workerId,hitId,assignmentId,subject,studyid,exp_date,exp_start,exp_end,time_start,time_end,trial,type,reward_validity,answer,image_top,image_left,image_right,response,response_time,response_acc,volatility,practice
SQQu2knn,3ncn4n1h2juy25d07zfv3rnlauxnbw,3eicbyg6489ng4cfx3o0ao8ew7ljcg,SQQu2knn,2020-0188,2020-11-19,11:24:05,11:44:38,NA,incomplete,0,shape,1,left,Green_Triangle_Chess_1.jpg,Purple_Triangle_Dots_3.jpg,Red_Plus_Chess_4.jpg,left,1009.0000000200234,true,NA,true
SQQu2knn,3ncn4n1h2juy25d07zfv3rnlauxnbw,3eicbyg6489ng4cfx3o0ao8ew7ljcg,SQQu2knn,2020-0188,2020-11-19,11:24:05,11:44:38,NA,incomplete,1,shape,1,left,Red_Circle_Chess_1.jpg,Blue_Circle_Grid_3.jpg,Purple_Star_Chess_4.jpg,left,472.00000000884756,true,NA,true
SQQu2knn,3ncn4n1h2juy25d07zfv3rnlauxnbw,3eicbyg6489ng4cfx3o0ao8ew7ljcg,SQQu2knn,2020-0188,2020-11-19,11:24:05,11:44:38,NA,incomplete,2,shape,1,left,Purple_Star_Chess_2.jpg,Green_Star_Dots_4.jpg,Red_Plus_Chess_1.jpg,left,764.9999999557622,true,NA,true
SQQu2knn,3ncn4n1h2juy25d07zfv3rnlauxnbw,3eicbyg6489ng4cfx3o0ao8ew7ljcg,SQQu2knn,2020-0188,2020-11-19,11:24:05,11:44:38,NA,incomplete,3,shape,1,right,Purple_Circle_Grid_1.jpg,Blue_Triangle_Grid_4.jpg,Green_Circle_Dots_3.jpg,right,679.9999999930151,true,NA,true
SQQu2knn,3ncn4n1h2juy25d07zfv3rnlauxnbw,3eicbyg6489ng4cfx3o0ao8ew7ljcg,SQQu2knn,2020-0188,2020-11-19,11:24:05,11:44:38,NA,incomplete,4,shape,1,right,Blue_Circle_Chess_4.jpg,Purple_Triangle_Chess_3.jpg,Red_Circle_Grid_2.jpg,right,527.9999999911524,true,NA,true
SQQu2knn,3ncn4n1h2juy25d07zfv3rnlauxnbw,3eicbyg6489ng4cfx3o0ao8ew7ljcg,SQQu2knn,2020-0188,2020-11-19,11:24:05,11:44:38,NA,incomplete,5,shape,0,right,Red_Circle_Dots_1.jpg,Purple_Star_Dots_4.jpg,Green_Circle_Chess_3.jpg,right,547.0000000204891,true,NA,true
SQQu2knn,3ncn4n1h2juy25d07zfv3rnlauxnbw,3eicbyg6489ng4cfx3o0ao8ew7ljcg,SQQu2knn,2020-0188,2020-11-19,11:24:05,11:44:38,NA,incomplete,6,shape,1,left,Blue_Star_Chess_2.jpg,Red_Star_Stripes_4.jpg,Green_Plus_Chess_3.jpg,left,978.000000002794,true,NA,true
SQQu2knn,3ncn4n1h2juy25d07zfv3rnlauxnbw,3eicbyg6489ng4cfx3o0ao8ew7ljcg,SQQu2knn,2020-0188,2020-11-19,11:24:05,11:44:38,NA,incomplete,7,shape,1,right,Green_Plus_Stripes_2.jpg,Red_Star_Stripes_1.jpg,Blue_Plus_Grid_4.jpg,right,782.0000000065193,true,NA,true
SQQu2knn,3ncn4n1h2juy25d07zfv3rnlauxnbw,3eicbyg6489ng4cfx3o0ao8ew7ljcg,SQQu2knn,2020-0188,2020-11-19,11:24:05,11:44:38,NA,incomplete,8,shape,1,right,Green_Circle_Stripes_2.jpg,Red_Plus_Stripes_3.jpg,Purple_Circle_Chess_4.jpg,right,510.999999998603,true,NA,true
SQQu2knn,3ncn4n1h2juy25d07zfv3rnlauxnbw,3eicbyg6489ng4cfx3o0ao8ew7ljcg,SQQu2knn,2020-0188,2020-11-19,11:24:05,11:44:38,NA,incomplete,9,shape,0,left,Green_Star_Grid_4.jpg,Purple_Star_Dots_2.jpg,Red_Plus_Grid_1.jpg,left,650.0000000232831,true,NA,true
SQQu2knn,3ncn4n1h2juy25d07zfv3rnlauxnbw,3eicbyg6489ng4cfx3o0ao8ew7ljcg,SQQu2knn,2020-0188,2020-11-19,11:24:05,11:44:38,NA,incomplete,10,shape,1,right,Red_Triangle_Dots_4.jpg,Purple_Star_Dots_3.jpg,Green_Triangle_Stripes_2.jpg,right,488.0000000121072,true,NA,true
SQQu2knn,3ncn4n1h2juy25d07zfv3rnlauxnbw,3eicbyg6489ng4cfx3o0ao8ew7ljcg,SQQu2knn,2020-0188,2020-11-19,11:24:05,11:44:38,NA,incomplete,11,shape,1,right,Blue_Star_Grid_1.jpg,Purple_Circle_Grid_2.jpg,Green_Star_Chess_3.jpg,right,548.0000000097789,true,NA,true
SQQu2knn,3ncn4n1h2juy25d07zfv3rnlauxnbw,3eicbyg6489ng4cfx3o0ao8ew7ljcg,SQQu2knn,2020-0188,2020-11-19,11:24:05,11:44:38,NA,incomplete,12,shape,1,right,Red_Plus_Stripes_2.jpg,Blue_Triangle_Stripes_4.jpg,Green_Plus_Dots_1.jpg,right,686.9999999762513,true,NA,true
SQQu2knn,3ncn4n1h2juy25d07zfv3rnlauxnbw,3eicbyg6489ng4cfx3o0ao8ew7ljcg,SQQu2knn,2020-0188,2020-11-19,11:24:05,11:44:38,NA,incomplete,13,shape,1,left,Red_Triangle_Chess_3.jpg,Purple_Triangle_Dots_1.jpg,Blue_Star_Chess_4.jpg,left,592.9999999934807,true,NA,true
SQQu2knn,3ncn4n1h2juy25d07zfv3rnlauxnbw,3eicbyg6489ng4cfx3o0ao8ew7ljcg,SQQu2knn,2020-0188,2020-11-19,11:24:05,11:44:38,NA,incomplete,14,shape,0,left,Green_Circle_Chess_1.jpg,Blue_Circle_Grid_4.jpg,Red_Plus_Chess_2.jpg,left,571.9999999855645,true,NA,true
SQQu2knn,3ncn4n1h2juy25d07zfv3rnlauxnbw,3eicbyg6489ng4cfx3o0ao8ew7ljcg,SQQu2knn,2020-0188,2020-11-19,11:24:05,11:44:38,NA,incomplete,15,shape,1,left,Purple_Plus_Grid_1.jpg,Green_Plus_Chess_4.jpg,Blue_Star_Grid_3.jpg,left,640.0000000139698,true,NA,true
SQQu2knn,3ncn4n1h2juy25d07zfv3rnlauxnbw,3eicbyg6489ng4cfx3o0ao8ew7ljcg,SQQu2knn,2020-0188,2020-11-19,11:24:05,11:44:38,NA,incomplete,16,shape,1,right,Purple_Star_Stripes_4.jpg,Red_Circle_Stripes_1.jpg,Green_Star_Dots_2.jpg,right,453.9999999688007,true,NA,true
SQQu2knn,3ncn4n1h2juy25d07zfv3rnlauxnbw,3eicbyg6489ng4cfx3o0ao8ew7ljcg,SQQu2knn,2020-0188,2020-11-19,11:24:05,11:44:38,NA,incomplete,17,shape,1,right,Blue_Star_Grid_2.jpg,Red_Plus_Grid_1.jpg,Purple_Star_Stripes_4.jpg,right,441.00000004982576,true,NA,true
SQQu2knn,3ncn4n1h2juy25d07zfv3rnlauxnbw,3eicbyg6489ng4cfx3o0ao8ew7ljcg,SQQu2knn,2020-0188,2020-11-19,11:24:05,11:44:38,NA,incomplete,18,shape,1,left,Purple_Star_Dots_1.jpg,Blue_Star_Stripes_2.jpg,Red_Triangle_Dots_3.jpg,left,548.0000000097789,true,NA,true
SQQu2knn,3ncn4n1h2juy25d07zfv3rnlauxnbw,3eicbyg6489ng4cfx3o0ao8ew7ljcg,SQQu2knn,2020-0188,2020-11-19,11:24:05,11:44:38,NA,incomplete,19,shape,1,right,Purple_Triangle_Dots_4.jpg,Red_Circle_Dots_1.jpg,Green_Triangle_Stripes_3.jpg,right,444.99999994877726,true,NA,true
SQQu2knn,3ncn4n1h2juy25d07zfv3rnlauxnbw,3eicbyg6489ng4cfx3o0ao8ew7ljcg,SQQu2knn,2020-0188,2020-11-19,11:24:05,11:44:38,NA,incomplete,20,filling,1,left,Red_Star_Dots_4.jpg,Purple_Triangle_Dots_1.jpg,Blue_Star_Stripes_3.jpg,right,405.0000000279397,false,NA,true
SQQu2knn,3ncn4n1h2juy25d07zfv3rnlauxnbw,3eicbyg6489ng4cfx3o0ao8ew7ljcg,SQQu2knn,2020-0188,2020-11-19,11:24:05,11:44:38,NA,incomplete,21,filling,1,right,Blue_Plus_Chess_4.jpg,Green_Plus_Stripes_2.jpg,Purple_Star_Chess_3.jpg,left,589.9999999674037,false,NA,true
SQQu2knn,3ncn4n1h2juy25d07zfv3rnlauxnbw,3eicbyg6489ng4cfx3o0ao8ew7ljcg,SQQu2knn,2020-0188,2020-11-19,11:24:05,11:44:38,NA,incomplete,22,filling,0,right,Purple_Triangle_Grid_2.jpg,Green_Triangle_Stripes_4.jpg,Red_Star_Grid_3.jpg,right,957.9999999841675,true,NA,true
SQQu2knn,3ncn4n1h2juy25d07zfv3rnlauxnbw,3eicbyg6489ng4cfx3o0ao8ew7ljcg,SQQu2knn,2020-0188,2020-11-19,11:24:05,11:44:38,NA,incomplete,23,filling,1,left,Red_Triangle_Stripes_4.jpg,Green_Plus_Stripes_2.jpg,Purple_Triangle_Grid_3.jpg,left,832.9999999841675,true,NA,true
SQQu2knn,3ncn4n1h2juy25d07zfv3rnlauxnbw,3eicbyg6489ng4cfx3o0ao8ew7ljcg,SQQu2knn,2020-0188,2020-11-19,11:24:05,11:44:38,NA,incomplete,24,filling,1,left,Green_Circle_Stripes_2.jpg,Blue_Plus_Stripes_3.jpg,Red_Circle_Grid_1.jpg,left,876.9999999785796,true,NA,true
SQQu2knn,3ncn4n1h2juy25d07zfv3rnlauxnbw,3eicbyg6489ng4cfx3o0ao8ew7ljcg,SQQu2knn,2020-0188,2020-11-19,11:24:05,11:44:38,NA,incomplete,25,filling,1,left,Blue_Star_Grid_3.jpg,Green_Plus_Grid_4.jpg,Red_Star_Dots_2.jpg,left,1063.0000000237487,true,NA,true
SQQu2knn,3ncn4n1h2juy25d07zfv3rnlauxnbw,3eicbyg6489ng4cfx3o0ao8ew7ljcg,SQQu2knn,2020-0188,2020-11-19,11:24:05,11:44:38,NA,incomplete,26,filling,1,right,Blue_Triangle_Stripes_1.jpg,Green_Triangle_Grid_2.jpg,Purple_Plus_Stripes_3.jpg,right,1033.9999999850988,true,NA,true
SQQu2knn,3ncn4n1h2juy25d07zfv3rnlauxnbw,3eicbyg6489ng4cfx3o0ao8ew7ljcg,SQQu2knn,2020-0188,2020-11-19,11:24:05,11:44:38,NA,incomplete,27,filling,1,right,Blue_Plus_Stripes_4.jpg,Purple_Plus_Dots_3.jpg,Green_Triangle_Stripes_2.jpg,right,972.9999999981374,true,NA,true
SQQu2knn,3ncn4n1h2juy25d07zfv3rnlauxnbw,3eicbyg6489ng4cfx3o0ao8ew7ljcg,SQQu2knn,2020-0188,2020-11-19,11:24:05,11:44:38,NA,incomplete,28,filling,1,left,Blue_Triangle_Stripes_3.jpg,Green_Star_Stripes_2.jpg,Red_Triangle_Grid_1.jpg,left,842.9999999934807,true,NA,true
SQQu2knn,3ncn4n1h2juy25d07zfv3rnlauxnbw,3eicbyg6489ng4cfx3o0ao8ew7ljcg,SQQu2knn,2020-0188,2020-11-19,11:24:05,11:44:38,NA,incomplete,29,filling,1,left,Red_Circle_Chess_2.jpg,Green_Triangle_Chess_1.jpg,Blue_Circle_Dots_3.jpg,left,854.9999999813735,true,NA,true
SQQu2knn,3ncn4n1h2juy25d07zfv3rnlauxnbw,3eicbyg6489ng4cfx3o0ao8ew7ljcg,SQQu2knn,2020-0188,2020-11-19,11:24:05,11:44:38,NA,incomplete,30,filling,0,right,Purple_Star_Grid_1.jpg,Green_Star_Chess_2.jpg,Blue_Plus_Grid_3.jpg,right,772.9999999864958,true,NA,true
SQQu2knn,3ncn4n1h2juy25d07zfv3rnlauxnbw,3eicbyg6489ng4cfx3o0ao8ew7ljcg,SQQu2knn,2020-0188,2020-11-19,11:24:05,11:44:38,NA,incomplete,31,filling,1,left,Green_Triangle_Grid_4.jpg,Blue_Circle_Grid_1.jpg,Red_Triangle_Dots_2.jpg,left,926.0000000358559,true,NA,true
SQQu2knn,3ncn4n1h2juy25d07zfv3rnlauxnbw,3eicbyg6489ng4cfx3o0ao8ew7ljcg,SQQu2knn,2020-0188,2020-11-19,11:24:05,11:44:38,NA,incomplete,32,filling,1,right,Blue_Star_Grid_2.jpg,Purple_Star_Stripes_1.jpg,Green_Circle_Grid_3.jpg,right,774.9999999650754,true,NA,true
SQQu2knn,3ncn4n1h2juy25d07zfv3rnlauxnbw,3eicbyg6489ng4cfx3o0ao8ew7ljcg,SQQu2knn,2020-0188,2020-11-19,11:24:05,11:44:38,NA,incomplete,33,filling,0,right,Red_Triangle_Chess_1.jpg,Green_Triangle_Stripes_2.jpg,Purple_Circle_Chess_4.jpg,right,949.0000000223517,true,NA,true
SQQu2knn,3ncn4n1h2juy25d07zfv3rnlauxnbw,3eicbyg6489ng4cfx3o0ao8ew7ljcg,SQQu2knn,2020-0188,2020-11-19,11:24:05,11:44:38,NA,incomplete,34,filling,1,right,Green_Star_Dots_1.jpg,Purple_Star_Grid_3.jpg,Red_Triangle_Dots_4.jpg,right,1046.9999999622814,true,NA,true
SQQu2knn,3ncn4n1h2juy25d07zfv3rnlauxnbw,3eicbyg6489ng4cfx3o0ao8ew7ljcg,SQQu2knn,2020-0188,2020-11-19,11:24:05,11:44:38,NA,incomplete,35,filling,1,right,Red_Triangle_Stripes_1.jpg,Green_Triangle_Grid_3.jpg,Purple_Plus_Stripes_2.jpg,left,765.0000000139698,false,NA,true
SQQu2knn,3ncn4n1h2juy25d07zfv3rnlauxnbw,3eicbyg6489ng4cfx3o0ao8ew7ljcg,SQQu2knn,2020-0188,2020-11-19,11:24:05,11:44:38,NA,incomplete,36,filling,0,right,Red_Circle_Dots_4.jpg,Blue_Circle_Grid_2.jpg,Purple_Triangle_Dots_3.jpg,right,929.9999999930151,true,NA,true
SQQu2knn,3ncn4n1h2juy25d07zfv3rnlauxnbw,3eicbyg6489ng4cfx3o0ao8ew7ljcg,SQQu2knn,2020-0188,2020-11-19,11:24:05,11:44:38,NA,incomplete,37,filling,1,left,Green_Circle_Dots_1.jpg,Red_Star_Dots_3.jpg,Purple_Circle_Grid_2.jpg,left,1073.000000033062,true,NA,true
SQQu2knn,3ncn4n1h2juy25d07zfv3rnlauxnbw,3eicbyg6489ng4cfx3o0ao8ew7ljcg,SQQu2knn,2020-0188,2020-11-19,11:24:05,11:44:38,NA,incomplete,38,filling,1,left,Purple_Triangle_Stripes_1.jpg,Blue_Circle_Stripes_4.jpg,Red_Triangle_Grid_2.jpg,left,934.9999999976717,true,NA,true
SQQu2knn,3ncn4n1h2juy25d07zfv3rnlauxnbw,3eicbyg6489ng4cfx3o0ao8ew7ljcg,SQQu2knn,2020-0188,2020-11-19,11:24:05,11:44:38,NA,incomplete,39,filling,0,left,Purple_Triangle_Stripes_4.jpg,Red_Star_Stripes_1.jpg,Green_Triangle_Grid_3.jpg,left,954.0000000270084,true,NA,true
SQQu2knn,3ncn4n1h2juy25d07zfv3rnlauxnbw,3eicbyg6489ng4cfx3o0ao8ew7ljcg,SQQu2knn,2020-0188,2020-11-19,11:24:05,11:44:38,NA,incomplete,0,shape,1,left,Blue_Triangle_Dots_2.jpg,Green_Triangle_Grid_1.jpg,Purple_Circle_Dots_3.jpg,left,906.0000000172295,true,high,false
SQQu2knn,3ncn4n1h2juy25d07zfv3rnlauxnbw,3eicbyg6489ng4cfx3o0ao8ew7ljcg,SQQu2knn,2020-0188,2020-11-19,11:24:05,11:44:38,NA,incomplete,1,shape,1,left,Green_Circle_Grid_1.jpg,Blue_Circle_Chess_3.jpg,Red_Star_Grid_2.jpg,left,504.0000000153668,true,high,false
SQQu2knn,3ncn4n1h2juy25d07zfv3rnlauxnbw,3eicbyg6489ng4cfx3o0ao8ew7ljcg,SQQu2knn,2020-0188,2020-11-19,11:24:05,11:44:38,NA,incomplete,2,shape,1,left,Purple_Plus_Dots_2.jpg,Green_Plus_Stripes_1.jpg,Red_Star_Dots_3.jpg,left,633.9999999618158,true,high,false
SQQu2knn,3ncn4n1h2juy25d07zfv3rnlauxnbw,3eicbyg6489ng4cfx3o0ao8ew7ljcg,SQQu2knn,2020-0188,2020-11-19,11:24:05,11:44:38,NA,incomplete,3,shape,1,left,Blue_Circle_Dots_4.jpg,Purple_Circle_Chess_3.jpg,Green_Plus_Dots_2.jpg,left,532.999999995809,true,high,false
SQQu2knn,3ncn4n1h2juy25d07zfv3rnlauxnbw,3eicbyg6489ng4cfx3o0ao8ew7ljcg,SQQu2knn,2020-0188,2020-11-19,11:24:05,11:44:38,NA,incomplete,4,shape,1,right,Blue_Triangle_Stripes_2.jpg,Red_Circle_Stripes_4.jpg,Green_Triangle_Dots_3.jpg,right,497.00000003213063,true,high,false
SQQu2knn,3ncn4n1h2juy25d07zfv3rnlauxnbw,3eicbyg6489ng4cfx3o0ao8ew7ljcg,SQQu2knn,2020-0188,2020-11-19,11:24:05,11:44:38,NA,incomplete,5,shape,0,right,Green_Star_Chess_1.jpg,Red_Triangle_Chess_2.jpg,Blue_Star_Dots_4.jpg,right,537.0000000111759,true,high,false
SQQu2knn,3ncn4n1h2juy25d07zfv3rnlauxnbw,3eicbyg6489ng4cfx3o0ao8ew7ljcg,SQQu2knn,2020-0188,2020-11-19,11:24:05,11:44:38,NA,incomplete,6,shape,0,right,Green_Circle_Dots_1.jpg,Red_Triangle_Dots_3.jpg,Purple_Circle_Chess_4.jpg,right,478.00000000279397,true,high,false
SQQu2knn,3ncn4n1h2juy25d07zfv3rnlauxnbw,3eicbyg6489ng4cfx3o0ao8ew7ljcg,SQQu2knn,2020-0188,2020-11-19,11:24:05,11:44:38,NA,incomplete,7,shape,0,right,Green_Star_Chess_2.jpg,Blue_Circle_Chess_1.jpg,Red_Star_Dots_4.jpg,right,457.9999999841675,true,high,false
SQQu2knn,3ncn4n1h2juy25d07zfv3rnlauxnbw,3eicbyg6489ng4cfx3o0ao8ew7ljcg,SQQu2knn,2020-0188,2020-11-19,11:24:05,11:44:38,NA,incomplete,8,shape,1,left,Green_Plus_Dots_3.jpg,Blue_Plus_Stripes_2.jpg,Red_Triangle_Dots_1.jpg,right,718.9999999827705,false,high,false
SQQu2knn,3ncn4n1h2juy25d07zfv3rnlauxnbw,3eicbyg6489ng4cfx3o0ao8ew7ljcg,SQQu2knn,2020-0188,2020-11-19,11:24:05,11:44:38,NA,incomplete,9,shape,1,right,Red_Star_Dots_1.jpg,Green_Plus_Dots_4.jpg,Blue_Star_Stripes_2.jpg,left,777.9999999911524,false,high,false
SQQu2knn,3ncn4n1h2juy25d07zfv3rnlauxnbw,3eicbyg6489ng4cfx3o0ao8ew7ljcg,SQQu2knn,2020-0188,2020-11-19,11:24:05,11:44:38,NA,incomplete,10,filling,1,right,Green_Triangle_Dots_3.jpg,Blue_Triangle_Chess_4.jpg,Purple_Circle_Dots_2.jpg,left,626.9999999785796,false,high,false
SQQu2knn,3ncn4n1h2juy25d07zfv3rnlauxnbw,3eicbyg6489ng4cfx3o0ao8ew7ljcg,SQQu2knn,2020-0188,2020-11-19,11:24:05,11:44:38,NA,incomplete,11,filling,1,left,Red_Star_Dots_1.jpg,Blue_Plus_Dots_3.jpg,Green_Star_Chess_2.jpg,right,608.9999999967404,false,high,false
SQQu2knn,3ncn4n1h2juy25d07zfv3rnlauxnbw,3eicbyg6489ng4cfx3o0ao8ew7ljcg,SQQu2knn,2020-0188,2020-11-19,11:24:05,11:44:38,NA,incomplete,12,filling,1,left,Blue_Circle_Stripes_1.jpg,Purple_Star_Stripes_4.jpg,Green_Circle_Chess_2.jpg,left,688.9999999548309,true,high,false
SQQu2knn,3ncn4n1h2juy25d07zfv3rnlauxnbw,3eicbyg6489ng4cfx3o0ao8ew7ljcg,SQQu2knn,2020-0188,2020-11-19,11:24:05,11:44:38,NA,incomplete,13,filling,0,left,Purple_Triangle_Grid_4.jpg,Green_Plus_Grid_1.jpg,Blue_Triangle_Stripes_3.jpg,left,853.9999999920838,true,high,false
SQQu2knn,3ncn4n1h2juy25d07zfv3rnlauxnbw,3eicbyg6489ng4cfx3o0ao8ew7ljcg,SQQu2knn,2020-0188,2020-11-19,11:24:05,11:44:38,NA,incomplete,14,filling,1,left,Red_Circle_Chess_2.jpg,Purple_Triangle_Chess_1.jpg,Green_Circle_Dots_3.jpg,left,665.999999968335,true,high,false
SQQu2knn,3ncn4n1h2juy25d07zfv3rnlauxnbw,3eicbyg6489ng4cfx3o0ao8ew7ljcg,SQQu2knn,2020-0188,2020-11-19,11:24:05,11:44:38,NA,incomplete,15,filling,1,left,Green_Circle_Dots_2.jpg,Blue_Triangle_Dots_4.jpg,Red_Circle_Grid_1.jpg,left,786.0000000218861,true,high,false
SQQu2knn,3ncn4n1h2juy25d07zfv3rnlauxnbw,3eicbyg6489ng4cfx3o0ao8ew7ljcg,SQQu2knn,2020-0188,2020-11-19,11:24:05,11:44:38,NA,incomplete,16,filling,0,left,Red_Triangle_Dots_4.jpg,Purple_Plus_Dots_2.jpg,Blue_Triangle_Chess_1.jpg,left,739.9999999906868,true,high,false
SQQu2knn,3ncn4n1h2juy25d07zfv3rnlauxnbw,3eicbyg6489ng4cfx3o0ao8ew7ljcg,SQQu2knn,2020-0188,2020-11-19,11:24:05,11:44:38,NA,incomplete,17,filling,1,left,Green_Triangle_Dots_2.jpg,Blue_Plus_Dots_3.jpg,Red_Triangle_Stripes_4.jpg,left,877.9999999678694,true,high,false
SQQu2knn,3ncn4n1h2juy25d07zfv3rnlauxnbw,3eicbyg6489ng4cfx3o0ao8ew7ljcg,SQQu2knn,2020-0188,2020-11-19,11:24:05,11:44:38,NA,incomplete,18,filling,1,left,Green_Plus_Dots_4.jpg,Red_Star_Dots_2.jpg,Blue_Plus_Stripes_3.jpg,left,823.9999999641441,true,high,false
SQQu2knn,3ncn4n1h2juy25d07zfv3rnlauxnbw,3eicbyg6489ng4cfx3o0ao8ew7ljcg,SQQu2knn,2020-0188,2020-11-19,11:24:05,11:44:38,NA,incomplete,19,filling,1,right,Green_Plus_Stripes_3.jpg,Red_Plus_Grid_2.jpg,Blue_Circle_Stripes_1.jpg,right,835.0000000209548,true,high,false
SQQu2knn,3ncn4n1h2juy25d07zfv3rnlauxnbw,3eicbyg6489ng4cfx3o0ao8ew7ljcg,SQQu2knn,2020-0188,2020-11-19,11:24:05,11:44:38,NA,incomplete,20,shape,1,left,Green_Star_Stripes_3.jpg,Red_Star_Chess_1.jpg,Purple_Circle_Stripes_4.jpg,right,733.0000000074506,false,high,false
SQQu2knn,3ncn4n1h2juy25d07zfv3rnlauxnbw,3eicbyg6489ng4cfx3o0ao8ew7ljcg,SQQu2knn,2020-0188,2020-11-19,11:24:05,11:44:38,NA,incomplete,21,shape,0,left,Purple_Triangle_Chess_3.jpg,Green_Triangle_Stripes_1.jpg,Red_Plus_Chess_2.jpg,right,767.9999999818392,false,high,false
SQQu2knn,3ncn4n1h2juy25d07zfv3rnlauxnbw,3eicbyg6489ng4cfx3o0ao8ew7ljcg,SQQu2knn,2020-0188,2020-11-19,11:24:05,11:44:38,NA,incomplete,22,shape,1,right,Green_Triangle_Chess_2.jpg,Purple_Circle_Chess_1.jpg,Red_Triangle_Grid_3.jpg,left,749.0000000107102,false,high,false
SQQu2knn,3ncn4n1h2juy25d07zfv3rnlauxnbw,3eicbyg6489ng4cfx3o0ao8ew7ljcg,SQQu2knn,2020-0188,2020-11-19,11:24:05,11:44:38,NA,incomplete,23,shape,0,left,Blue_Circle_Chess_3.jpg,Green_Circle_Stripes_2.jpg,Purple_Triangle_Chess_4.jpg,right,771.0000000079162,false,high,false
SQQu2knn,3ncn4n1h2juy25d07zfv3rnlauxnbw,3eicbyg6489ng4cfx3o0ao8ew7ljcg,SQQu2knn,2020-0188,2020-11-19,11:24:05,11:44:38,NA,incomplete,24,shape,1,right,Purple_Star_Stripes_2.jpg,Green_Triangle_Stripes_4.jpg,Red_Star_Chess_1.jpg,left,672.0000000204891,false,high,false
SQQu2knn,3ncn4n1h2juy25d07zfv3rnlauxnbw,3eicbyg6489ng4cfx3o0ao8ew7ljcg,SQQu2knn,2020-0188,2020-11-19,11:24:05,11:44:38,NA,incomplete,25,shape,0,right,Red_Triangle_Stripes_4.jpg,Blue_Plus_Stripes_3.jpg,Purple_Triangle_Grid_1.jpg,left,923.0000000097789,false,high,false
SQQu2knn,3ncn4n1h2juy25d07zfv3rnlauxnbw,3eicbyg6489ng4cfx3o0ao8ew7ljcg,SQQu2knn,2020-0188,2020-11-19,11:24:05,11:44:38,NA,incomplete,26,shape,1,right,Purple_Triangle_Dots_2.jpg,Blue_Star_Dots_4.jpg,Green_Triangle_Stripes_1.jpg,left,1043.999999994412,false,high,false
SQQu2knn,3ncn4n1h2juy25d07zfv3rnlauxnbw,3eicbyg6489ng4cfx3o0ao8ew7ljcg,SQQu2knn,2020-0188,2020-11-19,11:24:05,11:44:38,NA,incomplete,27,shape,1,right,Green_Plus_Chess_2.jpg,Purple_Triangle_Chess_1.jpg,Blue_Plus_Stripes_3.jpg,left,846.9999999506399,false,high,false
SQQu2knn,3ncn4n1h2juy25d07zfv3rnlauxnbw,3eicbyg6489ng4cfx3o0ao8ew7ljcg,SQQu2knn,2020-0188,2020-11-19,11:24:05,11:44:38,NA,incomplete,28,shape,0,right,Red_Star_Chess_3.jpg,Blue_Triangle_Chess_4.jpg,Purple_Star_Dots_2.jpg,right,603.000000002794,true,high,false
SQQu2knn,3ncn4n1h2juy25d07zfv3rnlauxnbw,3eicbyg6489ng4cfx3o0ao8ew7ljcg,SQQu2knn,2020-0188,2020-11-19,11:24:05,11:44:38,NA,incomplete,29,shape,1,left,Blue_Plus_Chess_3.jpg,Red_Plus_Dots_2.jpg,Purple_Star_Chess_4.jpg,left,657.0000000065193,true,high,false
SQQu2knn,3ncn4n1h2juy25d07zfv3rnlauxnbw,3eicbyg6489ng4cfx3o0ao8ew7ljcg,SQQu2knn,2020-0188,2020-11-19,11:24:05,11:44:38,NA,incomplete,30,filling,1,right,Red_Circle_Dots_4.jpg,Green_Circle_Stripes_1.jpg,Purple_Star_Dots_3.jpg,left,615.9999999799766,false,high,false
SQQu2knn,3ncn4n1h2juy25d07zfv3rnlauxnbw,3eicbyg6489ng4cfx3o0ao8ew7ljcg,SQQu2knn,2020-0188,2020-11-19,11:24:05,11:44:38,NA,incomplete,31,filling,1,left,Green_Star_Chess_1.jpg,Red_Circle_Chess_2.jpg,Blue_Star_Dots_4.jpg,left,930.0000000512227,true,high,false
SQQu2knn,3ncn4n1h2juy25d07zfv3rnlauxnbw,3eicbyg6489ng4cfx3o0ao8ew7ljcg,SQQu2knn,2020-0188,2020-11-19,11:24:05,11:44:38,NA,incomplete,32,filling,1,left,Green_Plus_Chess_3.jpg,Red_Circle_Chess_1.jpg,Blue_Plus_Dots_4.jpg,left,784.9999999743886,true,high,false
SQQu2knn,3ncn4n1h2juy25d07zfv3rnlauxnbw,3eicbyg6489ng4cfx3o0ao8ew7ljcg,SQQu2knn,2020-0188,2020-11-19,11:24:05,11:44:38,NA,incomplete,33,filling,1,right,Red_Plus_Stripes_2.jpg,Green_Plus_Dots_1.jpg,Purple_Circle_Stripes_4.jpg,right,705.0000000162981,true,high,false
SQQu2knn,3ncn4n1h2juy25d07zfv3rnlauxnbw,3eicbyg6489ng4cfx3o0ao8ew7ljcg,SQQu2knn,2020-0188,2020-11-19,11:24:05,11:44:38,NA,incomplete,34,filling,0,left,Purple_Star_Grid_1.jpg,Red_Plus_Grid_2.jpg,Blue_Star_Chess_4.jpg,left,831.0000000055879,true,high,false
SQQu2knn,3ncn4n1h2juy25d07zfv3rnlauxnbw,3eicbyg6489ng4cfx3o0ao8ew7ljcg,SQQu2knn,2020-0188,2020-11-19,11:24:05,11:44:38,NA,incomplete,35,filling,1,right,Blue_Triangle_Stripes_1.jpg,Purple_Triangle_Dots_2.jpg,Green_Star_Stripes_4.jpg,right,814.0000000130385,true,high,false
SQQu2knn,3ncn4n1h2juy25d07zfv3rnlauxnbw,3eicbyg6489ng4cfx3o0ao8ew7ljcg,SQQu2knn,2020-0188,2020-11-19,11:24:05,11:44:38,NA,incomplete,36,filling,1,left,Green_Triangle_Grid_1.jpg,Blue_Plus_Grid_3.jpg,Red_Triangle_Stripes_4.jpg,left,759.0000000200234,true,high,false
SQQu2knn,3ncn4n1h2juy25d07zfv3rnlauxnbw,3eicbyg6489ng4cfx3o0ao8ew7ljcg,SQQu2knn,2020-0188,2020-11-19,11:24:05,11:44:38,NA,incomplete,37,filling,1,right,Blue_Triangle_Grid_1.jpg,Purple_Triangle_Dots_2.jpg,Green_Plus_Grid_3.jpg,right,703.0000000377186,true,high,false
SQQu2knn,3ncn4n1h2juy25d07zfv3rnlauxnbw,3eicbyg6489ng4cfx3o0ao8ew7ljcg,SQQu2knn,2020-0188,2020-11-19,11:24:05,11:44:38,NA,incomplete,38,filling,0,left,Purple_Triangle_Dots_1.jpg,Red_Circle_Dots_4.jpg,Green_Triangle_Grid_3.jpg,left,609.9999999860302,true,high,false
SQQu2knn,3ncn4n1h2juy25d07zfv3rnlauxnbw,3eicbyg6489ng4cfx3o0ao8ew7ljcg,SQQu2knn,2020-0188,2020-11-19,11:24:05,11:44:38,NA,incomplete,39,filling,1,left,Red_Plus_Grid_2.jpg,Purple_Circle_Grid_3.jpg,Green_Plus_Chess_1.jpg,left,992.9999999585561,true,high,false
SQQu2knn,3ncn4n1h2juy25d07zfv3rnlauxnbw,3eicbyg6489ng4cfx3o0ao8ew7ljcg,SQQu2knn,2020-0188,2020-11-19,11:24:05,11:44:38,NA,incomplete,40,shape,1,right,Red_Star_Dots_2.jpg,Purple_Circle_Dots_1.jpg,Green_Star_Stripes_4.jpg,left,752.0000000367872,false,high,false
SQQu2knn,3ncn4n1h2juy25d07zfv3rnlauxnbw,3eicbyg6489ng4cfx3o0ao8ew7ljcg,SQQu2knn,2020-0188,2020-11-19,11:24:05,11:44:38,NA,incomplete,41,shape,1,right,Blue_Circle_Grid_2.jpg,Green_Star_Grid_4.jpg,Red_Circle_Stripes_3.jpg,left,771.0000000079162,false,high,false
SQQu2knn,3ncn4n1h2juy25d07zfv3rnlauxnbw,3eicbyg6489ng4cfx3o0ao8ew7ljcg,SQQu2knn,2020-0188,2020-11-19,11:24:05,11:44:38,NA,incomplete,42,shape,0,left,Red_Circle_Grid_3.jpg,Blue_Circle_Dots_2.jpg,Purple_Triangle_Grid_1.jpg,right,787.0000000111759,false,high,false
SQQu2knn,3ncn4n1h2juy25d07zfv3rnlauxnbw,3eicbyg6489ng4cfx3o0ao8ew7ljcg,SQQu2knn,2020-0188,2020-11-19,11:24:05,11:44:38,NA,incomplete,43,shape,1,left,Purple_Star_Grid_4.jpg,Blue_Star_Chess_1.jpg,Red_Circle_Grid_2.jpg,right,873.9999999525025,false,high,false
SQQu2knn,3ncn4n1h2juy25d07zfv3rnlauxnbw,3eicbyg6489ng4cfx3o0ao8ew7ljcg,SQQu2knn,2020-0188,2020-11-19,11:24:05,11:44:38,NA,incomplete,44,shape,0,right,Blue_Triangle_Grid_2.jpg,Red_Plus_Grid_4.jpg,Green_Triangle_Stripes_3.jpg,left,743.0000000167638,false,high,false
SQQu2knn,3ncn4n1h2juy25d07zfv3rnlauxnbw,3eicbyg6489ng4cfx3o0ao8ew7ljcg,SQQu2knn,2020-0188,2020-11-19,11:24:05,11:44:38,NA,incomplete,45,shape,1,left,Blue_Plus_Stripes_3.jpg,Green_Plus_Grid_1.jpg,Red_Circle_Stripes_2.jpg,right,738.0000000121072,false,high,false
SQQu2knn,3ncn4n1h2juy25d07zfv3rnlauxnbw,3eicbyg6489ng4cfx3o0ao8ew7ljcg,SQQu2knn,2020-0188,2020-11-19,11:24:05,11:44:38,NA,incomplete,46,shape,1,left,Green_Circle_Dots_2.jpg,Blue_Circle_Stripes_1.jpg,Red_Triangle_Dots_4.jpg,right,745.9999999846332,false,high,false
SQQu2knn,3ncn4n1h2juy25d07zfv3rnlauxnbw,3eicbyg6489ng4cfx3o0ao8ew7ljcg,SQQu2knn,2020-0188,2020-11-19,11:24:05,11:44:38,NA,incomplete,47,shape,0,left,Green_Star_Chess_2.jpg,Blue_Star_Stripes_4.jpg,Red_Triangle_Chess_1.jpg,left,480.99999997066334,true,high,false
SQQu2knn,3ncn4n1h2juy25d07zfv3rnlauxnbw,3eicbyg6489ng4cfx3o0ao8ew7ljcg,SQQu2knn,2020-0188,2020-11-19,11:24:05,11:44:38,NA,incomplete,48,shape,1,left,Red_Star_Grid_4.jpg,Green_Star_Stripes_1.jpg,Purple_Circle_Grid_3.jpg,left,567.9999999701977,true,high,false
SQQu2knn,3ncn4n1h2juy25d07zfv3rnlauxnbw,3eicbyg6489ng4cfx3o0ao8ew7ljcg,SQQu2knn,2020-0188,2020-11-19,11:24:05,11:44:38,NA,incomplete,49,shape,1,right,Purple_Triangle_Grid_1.jpg,Blue_Circle_Grid_2.jpg,Red_Triangle_Stripes_3.jpg,right,572.9999999748543,true,high,false
SQQu2knn,3ncn4n1h2juy25d07zfv3rnlauxnbw,3eicbyg6489ng4cfx3o0ao8ew7ljcg,SQQu2knn,2020-0188,2020-11-19,11:24:05,11:44:38,NA,incomplete,50,filling,1,left,Red_Circle_Dots_1.jpg,Blue_Triangle_Dots_2.jpg,Green_Circle_Grid_4.jpg,right,539.9999999790452,false,high,false
SQQu2knn,3ncn4n1h2juy25d07zfv3rnlauxnbw,3eicbyg6489ng4cfx3o0ao8ew7ljcg,SQQu2knn,2020-0188,2020-11-19,11:24:05,11:44:38,NA,incomplete,51,filling,1,right,Red_Triangle_Dots_2.jpg,Blue_Triangle_Stripes_4.jpg,Purple_Circle_Dots_1.jpg,left,532.0000000065193,false,high,false
SQQu2knn,3ncn4n1h2juy25d07zfv3rnlauxnbw,3eicbyg6489ng4cfx3o0ao8ew7ljcg,SQQu2knn,2020-0188,2020-11-19,11:24:05,11:44:38,NA,incomplete,52,filling,1,left,Purple_Star_Grid_2.jpg,Green_Triangle_Grid_3.jpg,Blue_Star_Stripes_1.jpg,left,652.0000000018626,true,high,false
SQQu2knn,3ncn4n1h2juy25d07zfv3rnlauxnbw,3eicbyg6489ng4cfx3o0ao8ew7ljcg,SQQu2knn,2020-0188,2020-11-19,11:24:05,11:44:38,NA,incomplete,53,filling,1,right,Blue_Circle_Chess_3.jpg,Purple_Circle_Dots_1.jpg,Green_Plus_Chess_4.jpg,right,778.9999999804422,true,high,false
SQQu2knn,3ncn4n1h2juy25d07zfv3rnlauxnbw,3eicbyg6489ng4cfx3o0ao8ew7ljcg,SQQu2knn,2020-0188,2020-11-19,11:24:05,11:44:38,NA,incomplete,54,filling,1,right,Green_Triangle_Dots_4.jpg,Purple_Triangle_Grid_2.jpg,Blue_Circle_Dots_3.jpg,right,658.9999999850988,true,high,false
SQQu2knn,3ncn4n1h2juy25d07zfv3rnlauxnbw,3eicbyg6489ng4cfx3o0ao8ew7ljcg,SQQu2knn,2020-0188,2020-11-19,11:24:05,11:44:38,NA,incomplete,55,filling,1,left,Green_Star_Stripes_2.jpg,Red_Circle_Stripes_1.jpg,Purple_Star_Dots_4.jpg,left,652.9999999911524,true,high,false
SQQu2knn,3ncn4n1h2juy25d07zfv3rnlauxnbw,3eicbyg6489ng4cfx3o0ao8ew7ljcg,SQQu2knn,2020-0188,2020-11-19,11:24:05,11:44:38,NA,incomplete,56,filling,1,right,Blue_Circle_Dots_2.jpg,Green_Circle_Grid_1.jpg,Purple_Star_Dots_4.jpg,left,701.9999999902211,false,high,false
SQQu2knn,3ncn4n1h2juy25d07zfv3rnlauxnbw,3eicbyg6489ng4cfx3o0ao8ew7ljcg,SQQu2knn,2020-0188,2020-11-19,11:24:05,11:44:38,NA,incomplete,57,filling,1,right,Blue_Circle_Dots_1.jpg,Red_Circle_Chess_3.jpg,Green_Star_Dots_4.jpg,right,858.9999999967404,true,high,false
SQQu2knn,3ncn4n1h2juy25d07zfv3rnlauxnbw,3eicbyg6489ng4cfx3o0ao8ew7ljcg,SQQu2knn,2020-0188,2020-11-19,11:24:05,11:44:38,NA,incomplete,58,filling,0,left,Purple_Plus_Stripes_4.jpg,Green_Triangle_Stripes_1.jpg,Red_Plus_Chess_2.jpg,left,722.0000000088476,true,high,false
SQQu2knn,3ncn4n1h2juy25d07zfv3rnlauxnbw,3eicbyg6489ng4cfx3o0ao8ew7ljcg,SQQu2knn,2020-0188,2020-11-19,11:24:05,11:44:38,NA,incomplete,59,filling,1,right,Purple_Plus_Chess_3.jpg,Green_Plus_Stripes_4.jpg,Blue_Triangle_Chess_1.jpg,right,846.0000000195578,true,high,false
SQQu2knn,3ncn4n1h2juy25d07zfv3rnlauxnbw,3eicbyg6489ng4cfx3o0ao8ew7ljcg,SQQu2knn,2020-0188,2020-11-19,11:24:05,11:44:38,NA,incomplete,60,shape,0,left,Purple_Plus_Dots_4.jpg,Blue_Plus_Stripes_1.jpg,Red_Star_Dots_2.jpg,right,839.0000000363216,false,high,false
SQQu2knn,3ncn4n1h2juy25d07zfv3rnlauxnbw,3eicbyg6489ng4cfx3o0ao8ew7ljcg,SQQu2knn,2020-0188,2020-11-19,11:24:05,11:44:38,NA,incomplete,61,shape,0,right,Green_Triangle_Grid_2.jpg,Red_Star_Grid_1.jpg,Blue_Triangle_Dots_4.jpg,left,839.0000000363216,false,high,false
SQQu2knn,3ncn4n1h2juy25d07zfv3rnlauxnbw,3eicbyg6489ng4cfx3o0ao8ew7ljcg,SQQu2knn,2020-0188,2020-11-19,11:24:05,11:44:38,NA,incomplete,62,shape,1,left,Red_Plus_Stripes_4.jpg,Green_Plus_Grid_2.jpg,Purple_Triangle_Stripes_3.jpg,right,969.9999999720603,false,high,false
SQQu2knn,3ncn4n1h2juy25d07zfv3rnlauxnbw,3eicbyg6489ng4cfx3o0ao8ew7ljcg,SQQu2knn,2020-0188,2020-11-19,11:24:05,11:44:38,NA,incomplete,63,shape,1,right,Red_Plus_Dots_2.jpg,Purple_Circle_Dots_4.jpg,Blue_Plus_Grid_3.jpg,left,711.0000000102445,false,high,false
SQQu2knn,3ncn4n1h2juy25d07zfv3rnlauxnbw,3eicbyg6489ng4cfx3o0ao8ew7ljcg,SQQu2knn,2020-0188,2020-11-19,11:24:05,11:44:38,NA,incomplete,64,shape,1,right,Green_Star_Grid_1.jpg,Blue_Circle_Grid_2.jpg,Red_Star_Chess_3.jpg,left,856.9999999599531,false,high,false
SQQu2knn,3ncn4n1h2juy25d07zfv3rnlauxnbw,3eicbyg6489ng4cfx3o0ao8ew7ljcg,SQQu2knn,2020-0188,2020-11-19,11:24:05,11:44:38,NA,incomplete,65,shape,1,right,Blue_Triangle_Grid_3.jpg,Red_Circle_Grid_4.jpg,Green_Triangle_Stripes_1.jpg,right,653.9999999804422,true,high,false
SQQu2knn,3ncn4n1h2juy25d07zfv3rnlauxnbw,3eicbyg6489ng4cfx3o0ao8ew7ljcg,SQQu2knn,2020-0188,2020-11-19,11:24:05,11:44:38,NA,incomplete,66,shape,1,right,Purple_Triangle_Grid_1.jpg,Green_Plus_Grid_4.jpg,Blue_Triangle_Dots_2.jpg,right,478.00000000279397,true,high,false
SQQu2knn,3ncn4n1h2juy25d07zfv3rnlauxnbw,3eicbyg6489ng4cfx3o0ao8ew7ljcg,SQQu2knn,2020-0188,2020-11-19,11:24:05,11:44:38,NA,incomplete,67,shape,1,left,Purple_Star_Dots_2.jpg,Green_Star_Chess_3.jpg,Red_Plus_Dots_1.jpg,left,668.9999999944121,true,high,false
SQQu2knn,3ncn4n1h2juy25d07zfv3rnlauxnbw,3eicbyg6489ng4cfx3o0ao8ew7ljcg,SQQu2knn,2020-0188,2020-11-19,11:24:05,11:44:38,NA,incomplete,68,shape,1,left,Green_Triangle_Chess_3.jpg,Purple_Triangle_Grid_2.jpg,Blue_Circle_Chess_1.jpg,left,458.9999999734573,true,high,false
SQQu2knn,3ncn4n1h2juy25d07zfv3rnlauxnbw,3eicbyg6489ng4cfx3o0ao8ew7ljcg,SQQu2knn,2020-0188,2020-11-19,11:24:05,11:44:38,NA,incomplete,69,shape,1,right,Green_Plus_Chess_3.jpg,Purple_Circle_Chess_1.jpg,Red_Plus_Stripes_4.jpg,right,467.99999999348074,true,high,false
SQQu2knn,3ncn4n1h2juy25d07zfv3rnlauxnbw,3eicbyg6489ng4cfx3o0ao8ew7ljcg,SQQu2knn,2020-0188,2020-11-19,11:24:05,11:44:38,NA,incomplete,70,filling,0,right,Blue_Plus_Stripes_1.jpg,Purple_Plus_Chess_4.jpg,Green_Star_Stripes_2.jpg,left,611.0000000335276,false,high,false
SQQu2knn,3ncn4n1h2juy25d07zfv3rnlauxnbw,3eicbyg6489ng4cfx3o0ao8ew7ljcg,SQQu2knn,2020-0188,2020-11-19,11:24:05,11:44:38,NA,incomplete,71,filling,1,left,Blue_Plus_Stripes_4.jpg,Green_Circle_Stripes_3.jpg,Red_Plus_Chess_2.jpg,right,560.9999999869615,false,high,false
SQQu2knn,3ncn4n1h2juy25d07zfv3rnlauxnbw,3eicbyg6489ng4cfx3o0ao8ew7ljcg,SQQu2knn,2020-0188,2020-11-19,11:24:05,11:44:38,NA,incomplete,72,filling,1,left,Blue_Circle_Grid_2.jpg,Green_Star_Grid_4.jpg,Red_Circle_Chess_3.jpg,right,625,false,high,false
SQQu2knn,3ncn4n1h2juy25d07zfv3rnlauxnbw,3eicbyg6489ng4cfx3o0ao8ew7ljcg,SQQu2knn,2020-0188,2020-11-19,11:24:05,11:44:38,NA,incomplete,73,filling,1,left,Blue_Triangle_Dots_4.jpg,Red_Plus_Dots_2.jpg,Green_Triangle_Grid_3.jpg,right,496.00000004284084,false,high,false
SQQu2knn,3ncn4n1h2juy25d07zfv3rnlauxnbw,3eicbyg6489ng4cfx3o0ao8ew7ljcg,SQQu2knn,2020-0188,2020-11-19,11:24:05,11:44:38,NA,incomplete,74,filling,1,left,Purple_Plus_Chess_1.jpg,Blue_Star_Chess_2.jpg,Green_Plus_Grid_3.jpg,left,790.0000000372529,true,high,false
SQQu2knn,3ncn4n1h2juy25d07zfv3rnlauxnbw,3eicbyg6489ng4cfx3o0ao8ew7ljcg,SQQu2knn,2020-0188,2020-11-19,11:24:05,11:44:38,NA,incomplete,75,filling,1,left,Red_Plus_Chess_1.jpg,Green_Star_Chess_3.jpg,Purple_Plus_Dots_2.jpg,left,843.9999999827705,true,high,false
SQQu2knn,3ncn4n1h2juy25d07zfv3rnlauxnbw,3eicbyg6489ng4cfx3o0ao8ew7ljcg,SQQu2knn,2020-0188,2020-11-19,11:24:05,11:44:38,NA,incomplete,76,filling,1,left,Blue_Circle_Grid_4.jpg,Red_Plus_Grid_3.jpg,Purple_Circle_Dots_1.jpg,left,1122.9999999632128,true,high,false
SQQu2knn,3ncn4n1h2juy25d07zfv3rnlauxnbw,3eicbyg6489ng4cfx3o0ao8ew7ljcg,SQQu2knn,2020-0188,2020-11-19,11:24:05,11:44:38,NA,incomplete,77,filling,1,left,Red_Triangle_Dots_2.jpg,Purple_Plus_Dots_1.jpg,Green_Triangle_Grid_3.jpg,left,1129.0000000153668,true,high,false
SQQu2knn,3ncn4n1h2juy25d07zfv3rnlauxnbw,3eicbyg6489ng4cfx3o0ao8ew7ljcg,SQQu2knn,2020-0188,2020-11-19,11:24:05,11:44:38,NA,incomplete,78,filling,1,left,Red_Triangle_Grid_4.jpg,Purple_Star_Grid_2.jpg,Green_Triangle_Dots_3.jpg,left,888.9999999664724,true,high,false
SQQu2knn,3ncn4n1h2juy25d07zfv3rnlauxnbw,3eicbyg6489ng4cfx3o0ao8ew7ljcg,SQQu2knn,2020-0188,2020-11-19,11:24:05,11:44:38,NA,incomplete,79,filling,0,left,Blue_Plus_Dots_4.jpg,Purple_Star_Dots_2.jpg,Red_Plus_Grid_3.jpg,left,700.0000000116415,true,high,false
SQQu2knn,3ncn4n1h2juy25d07zfv3rnlauxnbw,3eicbyg6489ng4cfx3o0ao8ew7ljcg,SQQu2knn,2020-0188,2020-11-19,11:24:05,11:44:38,NA,incomplete,80,shape,1,right,Blue_Plus_Grid_4.jpg,Red_Triangle_Grid_2.jpg,Green_Plus_Chess_1.jpg,left,835.0000000209548,false,high,false
SQQu2knn,3ncn4n1h2juy25d07zfv3rnlauxnbw,3eicbyg6489ng4cfx3o0ao8ew7ljcg,SQQu2knn,2020-0188,2020-11-19,11:24:05,11:44:38,NA,incomplete,81,shape,1,right,Purple_Star_Chess_4.jpg,Blue_Circle_Chess_3.jpg,Red_Star_Dots_2.jpg,right,732.0000000181608,true,high,false
SQQu2knn,3ncn4n1h2juy25d07zfv3rnlauxnbw,3eicbyg6489ng4cfx3o0ao8ew7ljcg,SQQu2knn,2020-0188,2020-11-19,11:24:05,11:44:38,NA,incomplete,82,shape,1,left,Red_Star_Grid_2.jpg,Blue_Star_Stripes_3.jpg,Purple_Triangle_Grid_4.jpg,left,603.9999999920838,true,high,false
SQQu2knn,3ncn4n1h2juy25d07zfv3rnlauxnbw,3eicbyg6489ng4cfx3o0ao8ew7ljcg,SQQu2knn,2020-0188,2020-11-19,11:24:05,11:44:38,NA,incomplete,83,shape,1,right,Red_Star_Dots_1.jpg,Blue_Circle_Dots_2.jpg,Green_Star_Stripes_3.jpg,right,433.0000000190921,true,high,false
SQQu2knn,3ncn4n1h2juy25d07zfv3rnlauxnbw,3eicbyg6489ng4cfx3o0ao8ew7ljcg,SQQu2knn,2020-0188,2020-11-19,11:24:05,11:44:38,NA,incomplete,84,shape,1,left,Green_Triangle_Chess_4.jpg,Blue_Triangle_Grid_1.jpg,Purple_Circle_Chess_3.jpg,right,859.9999999860302,false,high,false
SQQu2knn,3ncn4n1h2juy25d07zfv3rnlauxnbw,3eicbyg6489ng4cfx3o0ao8ew7ljcg,SQQu2knn,2020-0188,2020-11-19,11:24:05,11:44:38,NA,incomplete,85,shape,1,right,Red_Star_Grid_1.jpg,Purple_Triangle_Grid_4.jpg,Green_Star_Stripes_2.jpg,right,635.999999998603,true,high,false
SQQu2knn,3ncn4n1h2juy25d07zfv3rnlauxnbw,3eicbyg6489ng4cfx3o0ao8ew7ljcg,SQQu2knn,2020-0188,2020-11-19,11:24:05,11:44:38,NA,incomplete,86,shape,1,right,Blue_Star_Dots_2.jpg,Red_Plus_Dots_1.jpg,Green_Star_Chess_3.jpg,right,551.0000000358559,true,high,false
SQQu2knn,3ncn4n1h2juy25d07zfv3rnlauxnbw,3eicbyg6489ng4cfx3o0ao8ew7ljcg,SQQu2knn,2020-0188,2020-11-19,11:24:05,11:44:38,NA,incomplete,87,shape,1,right,Blue_Plus_Dots_3.jpg,Red_Star_Dots_2.jpg,Green_Plus_Chess_4.jpg,right,721.0000000195578,true,high,false
SQQu2knn,3ncn4n1h2juy25d07zfv3rnlauxnbw,3eicbyg6489ng4cfx3o0ao8ew7ljcg,SQQu2knn,2020-0188,2020-11-19,11:24:05,11:44:38,NA,incomplete,88,shape,1,right,Purple_Plus_Grid_1.jpg,Red_Triangle_Grid_3.jpg,Green_Plus_Dots_2.jpg,right,619.9999999953434,true,high,false
SQQu2knn,3ncn4n1h2juy25d07zfv3rnlauxnbw,3eicbyg6489ng4cfx3o0ao8ew7ljcg,SQQu2knn,2020-0188,2020-11-19,11:24:05,11:44:38,NA,incomplete,89,shape,1,left,Blue_Circle_Grid_2.jpg,Red_Circle_Dots_3.jpg,Green_Triangle_Grid_1.jpg,left,504.99999994644895,true,high,false
SQQu2knn,3ncn4n1h2juy25d07zfv3rnlauxnbw,3eicbyg6489ng4cfx3o0ao8ew7ljcg,SQQu2knn,2020-0188,2020-11-19,11:24:05,11:44:38,NA,incomplete,90,filling,1,right,Green_Circle_Grid_3.jpg,Red_Circle_Stripes_2.jpg,Blue_Star_Grid_4.jpg,left,464.9999999674037,false,high,false
SQQu2knn,3ncn4n1h2juy25d07zfv3rnlauxnbw,3eicbyg6489ng4cfx3o0ao8ew7ljcg,SQQu2knn,2020-0188,2020-11-19,11:24:05,11:44:38,NA,incomplete,91,filling,1,left,Blue_Circle_Grid_3.jpg,Green_Triangle_Grid_4.jpg,Red_Circle_Stripes_1.jpg,right,633.0000000307336,false,high,false
SQQu2knn,3ncn4n1h2juy25d07zfv3rnlauxnbw,3eicbyg6489ng4cfx3o0ao8ew7ljcg,SQQu2knn,2020-0188,2020-11-19,11:24:05,11:44:38,NA,incomplete,92,filling,0,right,Green_Triangle_Chess_4.jpg,Blue_Triangle_Dots_2.jpg,Purple_Circle_Chess_1.jpg,right,823.9999999641441,true,high,false
SQQu2knn,3ncn4n1h2juy25d07zfv3rnlauxnbw,3eicbyg6489ng4cfx3o0ao8ew7ljcg,SQQu2knn,2020-0188,2020-11-19,11:24:05,11:44:38,NA,incomplete,93,filling,1,left,Green_Triangle_Grid_4.jpg,Blue_Circle_Grid_2.jpg,Red_Triangle_Chess_1.jpg,left,840.0000000256114,true,high,false
SQQu2knn,3ncn4n1h2juy25d07zfv3rnlauxnbw,3eicbyg6489ng4cfx3o0ao8ew7ljcg,SQQu2knn,2020-0188,2020-11-19,11:24:05,11:44:38,NA,incomplete,94,filling,1,left,Red_Circle_Chess_3.jpg,Purple_Plus_Chess_2.jpg,Blue_Circle_Stripes_4.jpg,left,759.0000000200234,true,high,false
SQQu2knn,3ncn4n1h2juy25d07zfv3rnlauxnbw,3eicbyg6489ng4cfx3o0ao8ew7ljcg,SQQu2knn,2020-0188,2020-11-19,11:24:05,11:44:38,NA,incomplete,95,filling,0,left,Blue_Plus_Chess_2.jpg,Green_Star_Chess_4.jpg,Red_Plus_Grid_3.jpg,left,988.0000000121072,true,high,false
SQQu2knn,3ncn4n1h2juy25d07zfv3rnlauxnbw,3eicbyg6489ng4cfx3o0ao8ew7ljcg,SQQu2knn,2020-0188,2020-11-19,11:24:05,11:44:38,NA,incomplete,96,filling,1,right,Purple_Triangle_Dots_4.jpg,Green_Triangle_Stripes_2.jpg,Red_Circle_Dots_1.jpg,right,816.0000000498258,true,high,false
SQQu2knn,3ncn4n1h2juy25d07zfv3rnlauxnbw,3eicbyg6489ng4cfx3o0ao8ew7ljcg,SQQu2knn,2020-0188,2020-11-19,11:24:05,11:44:38,NA,incomplete,97,filling,1,left,Red_Plus_Stripes_3.jpg,Purple_Star_Stripes_2.jpg,Green_Plus_Grid_1.jpg,left,856.000000028871,true,high,false
SQQu2knn,3ncn4n1h2juy25d07zfv3rnlauxnbw,3eicbyg6489ng4cfx3o0ao8ew7ljcg,SQQu2knn,2020-0188,2020-11-19,11:24:05,11:44:38,NA,incomplete,98,filling,1,right,Purple_Plus_Dots_3.jpg,Blue_Plus_Stripes_1.jpg,Red_Star_Dots_2.jpg,right,830.0000000162981,true,high,false
SQQu2knn,3ncn4n1h2juy25d07zfv3rnlauxnbw,3eicbyg6489ng4cfx3o0ao8ew7ljcg,SQQu2knn,2020-0188,2020-11-19,11:24:05,11:44:38,NA,incomplete,99,filling,1,right,Purple_Circle_Grid_4.jpg,Red_Circle_Stripes_1.jpg,Blue_Star_Grid_2.jpg,left,603.000000002794,false,high,false
SQQu2knn,3ncn4n1h2juy25d07zfv3rnlauxnbw,3eicbyg6489ng4cfx3o0ao8ew7ljcg,SQQu2knn,2020-0188,2020-11-19,11:24:05,11:44:38,NA,incomplete,100,shape,0,left,Blue_Star_Chess_2.jpg,Red_Star_Grid_4.jpg,Purple_Triangle_Chess_3.jpg,right,884.0000000200234,false,high,false
SQQu2knn,3ncn4n1h2juy25d07zfv3rnlauxnbw,3eicbyg6489ng4cfx3o0ao8ew7ljcg,SQQu2knn,2020-0188,2020-11-19,11:24:05,11:44:38,NA,incomplete,101,shape,1,left,Purple_Star_Chess_1.jpg,Blue_Star_Grid_2.jpg,Red_Circle_Chess_3.jpg,right,827.9999999795109,false,high,false
SQQu2knn,3ncn4n1h2juy25d07zfv3rnlauxnbw,3eicbyg6489ng4cfx3o0ao8ew7ljcg,SQQu2knn,2020-0188,2020-11-19,11:24:05,11:44:38,NA,incomplete,102,shape,1,left,Purple_Triangle_Stripes_1.jpg,Blue_Triangle_Chess_3.jpg,Red_Circle_Stripes_4.jpg,right,739.9999999906868,false,high,false
SQQu2knn,3ncn4n1h2juy25d07zfv3rnlauxnbw,3eicbyg6489ng4cfx3o0ao8ew7ljcg,SQQu2knn,2020-0188,2020-11-19,11:24:05,11:44:38,NA,incomplete,103,shape,1,left,Green_Circle_Dots_1.jpg,Purple_Circle_Stripes_3.jpg,Red_Plus_Dots_2.jpg,left,464.0000000363216,true,high,false
SQQu2knn,3ncn4n1h2juy25d07zfv3rnlauxnbw,3eicbyg6489ng4cfx3o0ao8ew7ljcg,SQQu2knn,2020-0188,2020-11-19,11:24:05,11:44:38,NA,incomplete,104,shape,1,right,Purple_Triangle_Dots_4.jpg,Green_Plus_Dots_1.jpg,Red_Triangle_Stripes_2.jpg,right,509.00000002002344,true,high,false
SQQu2knn,3ncn4n1h2juy25d07zfv3rnlauxnbw,3eicbyg6489ng4cfx3o0ao8ew7ljcg,SQQu2knn,2020-0188,2020-11-19,11:24:05,11:44:38,NA,incomplete,105,shape,1,right,Purple_Plus_Chess_3.jpg,Blue_Star_Chess_1.jpg,Red_Plus_Stripes_4.jpg,right,556.9999999715947,true,high,false
SQQu2knn,3ncn4n1h2juy25d07zfv3rnlauxnbw,3eicbyg6489ng4cfx3o0ao8ew7ljcg,SQQu2knn,2020-0188,2020-11-19,11:24:05,11:44:38,NA,incomplete,106,shape,1,left,Blue_Triangle_Stripes_3.jpg,Red_Triangle_Chess_2.jpg,Green_Plus_Stripes_1.jpg,left,466.00000001490116,true,high,false
SQQu2knn,3ncn4n1h2juy25d07zfv3rnlauxnbw,3eicbyg6489ng4cfx3o0ao8ew7ljcg,SQQu2knn,2020-0188,2020-11-19,11:24:05,11:44:38,NA,incomplete,107,shape,1,right,Blue_Circle_Stripes_3.jpg,Red_Triangle_Stripes_4.jpg,Purple_Circle_Dots_2.jpg,right,561.9999999762513,true,high,false
SQQu2knn,3ncn4n1h2juy25d07zfv3rnlauxnbw,3eicbyg6489ng4cfx3o0ao8ew7ljcg,SQQu2knn,2020-0188,2020-11-19,11:24:05,11:44:38,NA,incomplete,108,shape,1,right,Green_Star_Dots_4.jpg,Purple_Circle_Dots_3.jpg,Red_Star_Grid_2.jpg,right,425.99999997764826,true,high,false
SQQu2knn,3ncn4n1h2juy25d07zfv3rnlauxnbw,3eicbyg6489ng4cfx3o0ao8ew7ljcg,SQQu2knn,2020-0188,2020-11-19,11:24:05,11:44:38,NA,incomplete,109,shape,1,left,Green_Circle_Grid_3.jpg,Blue_Circle_Dots_2.jpg,Red_Plus_Grid_4.jpg,left,470.9999999613501,true,high,false
SQQu2knn,3ncn4n1h2juy25d07zfv3rnlauxnbw,3eicbyg6489ng4cfx3o0ao8ew7ljcg,SQQu2knn,2020-0188,2020-11-19,11:24:05,11:44:38,NA,incomplete,110,filling,1,right,Red_Star_Stripes_1.jpg,Blue_Star_Grid_3.jpg,Purple_Plus_Stripes_2.jpg,left,537.0000000111759,false,high,false
SQQu2knn,3ncn4n1h2juy25d07zfv3rnlauxnbw,3eicbyg6489ng4cfx3o0ao8ew7ljcg,SQQu2knn,2020-0188,2020-11-19,11:24:05,11:44:38,NA,incomplete,111,filling,1,left,Purple_Plus_Dots_1.jpg,Red_Triangle_Dots_2.jpg,Green_Plus_Grid_4.jpg,right,500.9999999892898,false,high,false
SQQu2knn,3ncn4n1h2juy25d07zfv3rnlauxnbw,3eicbyg6489ng4cfx3o0ao8ew7ljcg,SQQu2knn,2020-0188,2020-11-19,11:24:05,11:44:38,NA,incomplete,112,filling,1,right,Blue_Star_Dots_4.jpg,Red_Star_Grid_1.jpg,Purple_Circle_Dots_2.jpg,right,836.9999999995343,true,high,false
SQQu2knn,3ncn4n1h2juy25d07zfv3rnlauxnbw,3eicbyg6489ng4cfx3o0ao8ew7ljcg,SQQu2knn,2020-0188,2020-11-19,11:24:05,11:44:38,NA,incomplete,113,filling,1,right,Purple_Triangle_Dots_3.jpg,Green_Triangle_Stripes_2.jpg,Red_Star_Dots_4.jpg,right,744.0000000060536,true,high,false
SQQu2knn,3ncn4n1h2juy25d07zfv3rnlauxnbw,3eicbyg6489ng4cfx3o0ao8ew7ljcg,SQQu2knn,2020-0188,2020-11-19,11:24:05,11:44:38,NA,incomplete,114,filling,0,right,Green_Star_Grid_3.jpg,Blue_Star_Stripes_1.jpg,Purple_Triangle_Grid_2.jpg,right,757.999999972526,true,high,false
SQQu2knn,3ncn4n1h2juy25d07zfv3rnlauxnbw,3eicbyg6489ng4cfx3o0ao8ew7ljcg,SQQu2knn,2020-0188,2020-11-19,11:24:05,11:44:38,NA,incomplete,115,filling,1,left,Blue_Circle_Stripes_2.jpg,Red_Star_Stripes_1.jpg,Green_Circle_Dots_3.jpg,left,823.9999999641441,true,high,false
SQQu2knn,3ncn4n1h2juy25d07zfv3rnlauxnbw,3eicbyg6489ng4cfx3o0ao8ew7ljcg,SQQu2knn,2020-0188,2020-11-19,11:24:05,11:44:38,NA,incomplete,116,filling,1,left,Purple_Star_Stripes_3.jpg,Blue_Triangle_Stripes_2.jpg,Red_Star_Grid_1.jpg,left,648.9999999757856,true,high,false
SQQu2knn,3ncn4n1h2juy25d07zfv3rnlauxnbw,3eicbyg6489ng4cfx3o0ao8ew7ljcg,SQQu2knn,2020-0188,2020-11-19,11:24:05,11:44:38,NA,incomplete,117,filling,1,left,Red_Circle_Dots_2.jpg,Purple_Triangle_Dots_1.jpg,Blue_Circle_Stripes_3.jpg,left,755.0000000046566,true,high,false
SQQu2knn,3ncn4n1h2juy25d07zfv3rnlauxnbw,3eicbyg6489ng4cfx3o0ao8ew7ljcg,SQQu2knn,2020-0188,2020-11-19,11:24:05,11:44:38,NA,incomplete,118,filling,0,right,Purple_Plus_Stripes_2.jpg,Blue_Plus_Grid_4.jpg,Red_Star_Stripes_1.jpg,right,937.0000000344589,true,high,false
SQQu2knn,3ncn4n1h2juy25d07zfv3rnlauxnbw,3eicbyg6489ng4cfx3o0ao8ew7ljcg,SQQu2knn,2020-0188,2020-11-19,11:24:05,11:44:38,NA,incomplete,119,filling,1,left,Red_Plus_Stripes_4.jpg,Blue_Circle_Stripes_3.jpg,Purple_Plus_Grid_1.jpg,left,695.9999999962747,true,high,false
SQQu2knn,3ncn4n1h2juy25d07zfv3rnlauxnbw,3eicbyg6489ng4cfx3o0ao8ew7ljcg,SQQu2knn,2020-0188,2020-11-19,11:24:05,11:44:38,NA,incomplete,120,color,1,left,Green_Star_Dots_1.jpg,Green_Circle_Stripes_3.jpg,Blue_Plus_Chess_1.jpg,right,894.0000000293367,false,high,false
SQQu2knn,3ncn4n1h2juy25d07zfv3rnlauxnbw,3eicbyg6489ng4cfx3o0ao8ew7ljcg,SQQu2knn,2020-0188,2020-11-19,11:24:05,11:44:38,NA,incomplete,121,color,1,right,Red_Plus_Grid_3.jpg,Blue_Triangle_Dots_3.jpg,Red_Star_Chess_1.jpg,right,706.9999999948777,true,high,false
SQQu2knn,3ncn4n1h2juy25d07zfv3rnlauxnbw,3eicbyg6489ng4cfx3o0ao8ew7ljcg,SQQu2knn,2020-0188,2020-11-19,11:24:05,11:44:38,NA,incomplete,122,color,1,left,Purple_Star_Dots_2.jpg,Purple_Plus_Chess_1.jpg,Blue_Circle_Stripes_2.jpg,left,478.99999999208376,true,high,false
SQQu2knn,3ncn4n1h2juy25d07zfv3rnlauxnbw,3eicbyg6489ng4cfx3o0ao8ew7ljcg,SQQu2knn,2020-0188,2020-11-19,11:24:05,11:44:38,NA,incomplete,123,color,1,left,Red_Triangle_Dots_1.jpg,Red_Star_Stripes_2.jpg,Blue_Plus_Grid_1.jpg,left,432.0000000298023,true,high,false
SQQu2knn,3ncn4n1h2juy25d07zfv3rnlauxnbw,3eicbyg6489ng4cfx3o0ao8ew7ljcg,SQQu2knn,2020-0188,2020-11-19,11:24:05,11:44:38,NA,incomplete,124,color,1,left,Red_Star_Grid_1.jpg,Red_Circle_Stripes_3.jpg,Purple_Plus_Chess_1.jpg,left,408.99999998509884,true,high,false
SQQu2knn,3ncn4n1h2juy25d07zfv3rnlauxnbw,3eicbyg6489ng4cfx3o0ao8ew7ljcg,SQQu2knn,2020-0188,2020-11-19,11:24:05,11:44:38,NA,incomplete,125,color,0,left,Red_Star_Chess_1.jpg,Red_Circle_Dots_2.jpg,Purple_Triangle_Stripes_1.jpg,left,356.99999995995313,true,high,false
SQQu2knn,3ncn4n1h2juy25d07zfv3rnlauxnbw,3eicbyg6489ng4cfx3o0ao8ew7ljcg,SQQu2knn,2020-0188,2020-11-19,11:24:05,11:44:38,NA,incomplete,126,color,1,left,Purple_Triangle_Dots_1.jpg,Purple_Star_Chess_3.jpg,Blue_Circle_Grid_1.jpg,left,478.99999999208376,true,high,false
SQQu2knn,3ncn4n1h2juy25d07zfv3rnlauxnbw,3eicbyg6489ng4cfx3o0ao8ew7ljcg,SQQu2knn,2020-0188,2020-11-19,11:24:05,11:44:38,NA,incomplete,127,color,1,left,Purple_Star_Dots_3.jpg,Purple_Triangle_Chess_2.jpg,Blue_Circle_Stripes_3.jpg,left,472.99999999813735,true,high,false
SQQu2knn,3ncn4n1h2juy25d07zfv3rnlauxnbw,3eicbyg6489ng4cfx3o0ao8ew7ljcg,SQQu2knn,2020-0188,2020-11-19,11:24:05,11:44:38,NA,incomplete,128,color,0,left,Blue_Plus_Chess_4.jpg,Blue_Star_Dots_1.jpg,Green_Triangle_Stripes_4.jpg,left,494.0000000060536,true,high,false
SQQu2knn,3ncn4n1h2juy25d07zfv3rnlauxnbw,3eicbyg6489ng4cfx3o0ao8ew7ljcg,SQQu2knn,2020-0188,2020-11-19,11:24:05,11:44:38,NA,incomplete,129,color,1,left,Red_Triangle_Chess_1.jpg,Red_Plus_Stripes_3.jpg,Purple_Circle_Dots_1.jpg,left,412.00000001117587,true,high,false
SQQu2knn,3ncn4n1h2juy25d07zfv3rnlauxnbw,3eicbyg6489ng4cfx3o0ao8ew7ljcg,SQQu2knn,2020-0188,2020-11-19,11:24:05,11:44:38,NA,incomplete,130,color,1,left,Blue_Circle_Dots_4.jpg,Blue_Triangle_Chess_2.jpg,Purple_Star_Grid_4.jpg,left,467.99999999348074,true,high,false
SQQu2knn,3ncn4n1h2juy25d07zfv3rnlauxnbw,3eicbyg6489ng4cfx3o0ao8ew7ljcg,SQQu2knn,2020-0188,2020-11-19,11:24:05,11:44:38,NA,incomplete,131,color,1,right,Blue_Star_Stripes_3.jpg,Green_Triangle_Dots_3.jpg,Blue_Plus_Grid_1.jpg,right,396.99999999720603,true,high,false
SQQu2knn,3ncn4n1h2juy25d07zfv3rnlauxnbw,3eicbyg6489ng4cfx3o0ao8ew7ljcg,SQQu2knn,2020-0188,2020-11-19,11:24:05,11:44:38,NA,incomplete,132,color,1,right,Purple_Plus_Chess_2.jpg,Red_Triangle_Grid_2.jpg,Purple_Circle_Dots_4.jpg,right,430.99999998230487,true,high,false
SQQu2knn,3ncn4n1h2juy25d07zfv3rnlauxnbw,3eicbyg6489ng4cfx3o0ao8ew7ljcg,SQQu2knn,2020-0188,2020-11-19,11:24:05,11:44:38,NA,incomplete,133,color,0,right,Blue_Circle_Chess_2.jpg,Green_Triangle_Stripes_2.jpg,Blue_Plus_Grid_4.jpg,right,396.99999999720603,true,high,false
SQQu2knn,3ncn4n1h2juy25d07zfv3rnlauxnbw,3eicbyg6489ng4cfx3o0ao8ew7ljcg,SQQu2knn,2020-0188,2020-11-19,11:24:05,11:44:38,NA,incomplete,134,color,1,left,Red_Star_Grid_4.jpg,Red_Plus_Dots_3.jpg,Green_Circle_Chess_4.jpg,left,429.9999999930151,true,high,false
SQQu2knn,3ncn4n1h2juy25d07zfv3rnlauxnbw,3eicbyg6489ng4cfx3o0ao8ew7ljcg,SQQu2knn,2020-0188,2020-11-19,11:24:05,11:44:38,NA,incomplete,135,color,0,right,Green_Plus_Dots_2.jpg,Purple_Triangle_Grid_2.jpg,Green_Star_Stripes_1.jpg,right,396.99999999720603,true,high,false
SQQu2knn,3ncn4n1h2juy25d07zfv3rnlauxnbw,3eicbyg6489ng4cfx3o0ao8ew7ljcg,SQQu2knn,2020-0188,2020-11-19,11:24:05,11:44:38,NA,incomplete,136,color,1,right,Blue_Star_Stripes_1.jpg,Purple_Plus_Dots_1.jpg,Blue_Triangle_Chess_3.jpg,right,386.9999999878928,true,high,false
SQQu2knn,3ncn4n1h2juy25d07zfv3rnlauxnbw,3eicbyg6489ng4cfx3o0ao8ew7ljcg,SQQu2knn,2020-0188,2020-11-19,11:24:05,11:44:38,NA,incomplete,137,color,1,left,Blue_Circle_Stripes_3.jpg,Blue_Triangle_Grid_2.jpg,Green_Plus_Dots_3.jpg,left,761.9999999878928,true,high,false
SQQu2knn,3ncn4n1h2juy25d07zfv3rnlauxnbw,3eicbyg6489ng4cfx3o0ao8ew7ljcg,SQQu2knn,2020-0188,2020-11-19,11:24:05,11:44:38,NA,incomplete,138,color,0,right,Green_Circle_Dots_2.jpg,Red_Plus_Chess_2.jpg,Green_Triangle_Stripes_4.jpg,right,404.999999969732,true,high,false
SQQu2knn,3ncn4n1h2juy25d07zfv3rnlauxnbw,3eicbyg6489ng4cfx3o0ao8ew7ljcg,SQQu2knn,2020-0188,2020-11-19,11:24:05,11:44:38,NA,incomplete,139,color,1,left,Green_Plus_Stripes_2.jpg,Green_Circle_Chess_1.jpg,Blue_Triangle_Grid_2.jpg,left,445.0000000069849,true,high,false
SQQu2knn,3ncn4n1h2juy25d07zfv3rnlauxnbw,3eicbyg6489ng4cfx3o0ao8ew7ljcg,SQQu2knn,2020-0188,2020-11-19,11:24:05,11:44:38,NA,incomplete,140,number,1,left,Purple_Plus_Dots_3.jpg,Blue_Star_Grid_3.jpg,Purple_Circle_Chess_4.jpg,right,429.9999999930151,false,high,false
SQQu2knn,3ncn4n1h2juy25d07zfv3rnlauxnbw,3eicbyg6489ng4cfx3o0ao8ew7ljcg,SQQu2knn,2020-0188,2020-11-19,11:24:05,11:44:38,NA,incomplete,141,number,1,left,Purple_Circle_Chess_4.jpg,Red_Triangle_Dots_4.jpg,Purple_Plus_Stripes_2.jpg,right,381.00000005215406,false,high,false
SQQu2knn,3ncn4n1h2juy25d07zfv3rnlauxnbw,3eicbyg6489ng4cfx3o0ao8ew7ljcg,SQQu2knn,2020-0188,2020-11-19,11:24:05,11:44:38,NA,incomplete,142,number,0,left,Green_Circle_Chess_4.jpg,Blue_Plus_Stripes_4.jpg,Green_Triangle_Dots_2.jpg,right,483.0000000074506,false,high,false
SQQu2knn,3ncn4n1h2juy25d07zfv3rnlauxnbw,3eicbyg6489ng4cfx3o0ao8ew7ljcg,SQQu2knn,2020-0188,2020-11-19,11:24:05,11:44:38,NA,incomplete,143,number,1,left,Green_Triangle_Grid_4.jpg,Purple_Circle_Chess_4.jpg,Green_Star_Stripes_1.jpg,left,619.9999999953434,true,high,false
SQQu2knn,3ncn4n1h2juy25d07zfv3rnlauxnbw,3eicbyg6489ng4cfx3o0ao8ew7ljcg,SQQu2knn,2020-0188,2020-11-19,11:24:05,11:44:38,NA,incomplete,144,number,1,left,Green_Circle_Dots_3.jpg,Blue_Triangle_Stripes_3.jpg,Green_Star_Chess_2.jpg,left,559.0000000083819,true,high,false
SQQu2knn,3ncn4n1h2juy25d07zfv3rnlauxnbw,3eicbyg6489ng4cfx3o0ao8ew7ljcg,SQQu2knn,2020-0188,2020-11-19,11:24:05,11:44:38,NA,incomplete,145,number,1,left,Red_Star_Grid_1.jpg,Purple_Circle_Stripes_1.jpg,Red_Triangle_Chess_2.jpg,left,769.0000000293367,true,high,false
SQQu2knn,3ncn4n1h2juy25d07zfv3rnlauxnbw,3eicbyg6489ng4cfx3o0ao8ew7ljcg,SQQu2knn,2020-0188,2020-11-19,11:24:05,11:44:38,NA,incomplete,146,number,0,right,Purple_Triangle_Dots_4.jpg,Purple_Plus_Grid_2.jpg,Red_Star_Stripes_4.jpg,right,846.9999999506399,true,high,false
SQQu2knn,3ncn4n1h2juy25d07zfv3rnlauxnbw,3eicbyg6489ng4cfx3o0ao8ew7ljcg,SQQu2knn,2020-0188,2020-11-19,11:24:05,11:44:38,NA,incomplete,147,number,1,left,Green_Star_Stripes_2.jpg,Purple_Circle_Dots_2.jpg,Green_Triangle_Grid_4.jpg,left,595.9999999613501,true,high,false
SQQu2knn,3ncn4n1h2juy25d07zfv3rnlauxnbw,3eicbyg6489ng4cfx3o0ao8ew7ljcg,SQQu2knn,2020-0188,2020-11-19,11:24:05,11:44:38,NA,incomplete,148,number,1,left,Red_Circle_Grid_1.jpg,Green_Star_Stripes_1.jpg,Red_Plus_Dots_3.jpg,left,591.0000000149012,true,high,false
SQQu2knn,3ncn4n1h2juy25d07zfv3rnlauxnbw,3eicbyg6489ng4cfx3o0ao8ew7ljcg,SQQu2knn,2020-0188,2020-11-19,11:24:05,11:44:38,NA,incomplete,149,number,0,right,Green_Circle_Stripes_4.jpg,Green_Star_Chess_2.jpg,Blue_Plus_Grid_4.jpg,right,709.000000031665,true,high,false
SQQu2knn,3ncn4n1h2juy25d07zfv3rnlauxnbw,3eicbyg6489ng4cfx3o0ao8ew7ljcg,SQQu2knn,2020-0188,2020-11-19,11:24:05,11:44:38,NA,incomplete,150,number,1,right,Red_Star_Grid_2.jpg,Red_Triangle_Dots_3.jpg,Purple_Plus_Stripes_2.jpg,right,824.0000000223517,true,high,false
SQQu2knn,3ncn4n1h2juy25d07zfv3rnlauxnbw,3eicbyg6489ng4cfx3o0ao8ew7ljcg,SQQu2knn,2020-0188,2020-11-19,11:24:05,11:44:38,NA,incomplete,151,number,0,right,Purple_Circle_Stripes_4.jpg,Purple_Triangle_Dots_2.jpg,Blue_Star_Grid_4.jpg,right,1101.0000000242144,true,high,false
SQQu2knn,3ncn4n1h2juy25d07zfv3rnlauxnbw,3eicbyg6489ng4cfx3o0ao8ew7ljcg,SQQu2knn,2020-0188,2020-11-19,11:24:05,11:44:38,NA,incomplete,152,number,1,left,Blue_Plus_Grid_2.jpg,Red_Triangle_Dots_2.jpg,Blue_Star_Chess_3.jpg,left,555.9999999823049,true,high,false
SQQu2knn,3ncn4n1h2juy25d07zfv3rnlauxnbw,3eicbyg6489ng4cfx3o0ao8ew7ljcg,SQQu2knn,2020-0188,2020-11-19,11:24:05,11:44:38,NA,incomplete,153,number,1,right,Blue_Triangle_Chess_3.jpg,Blue_Star_Dots_4.jpg,Green_Circle_Grid_3.jpg,right,790.999999968335,true,high,false
SQQu2knn,3ncn4n1h2juy25d07zfv3rnlauxnbw,3eicbyg6489ng4cfx3o0ao8ew7ljcg,SQQu2knn,2020-0188,2020-11-19,11:24:05,11:44:38,NA,incomplete,154,number,1,left,Red_Circle_Chess_1.jpg,Blue_Star_Grid_1.jpg,Red_Triangle_Stripes_3.jpg,left,540.0000000372529,true,high,false
SQQu2knn,3ncn4n1h2juy25d07zfv3rnlauxnbw,3eicbyg6489ng4cfx3o0ao8ew7ljcg,SQQu2knn,2020-0188,2020-11-19,11:24:05,11:44:38,NA,incomplete,155,number,1,left,Blue_Star_Dots_4.jpg,Green_Triangle_Grid_4.jpg,Blue_Plus_Chess_1.jpg,left,629.0000000153668,true,high,false
SQQu2knn,3ncn4n1h2juy25d07zfv3rnlauxnbw,3eicbyg6489ng4cfx3o0ao8ew7ljcg,SQQu2knn,2020-0188,2020-11-19,11:24:05,11:44:38,NA,incomplete,156,number,0,right,Purple_Star_Dots_2.jpg,Purple_Triangle_Chess_3.jpg,Green_Circle_Stripes_2.jpg,right,633.9999999618158,true,high,false
SQQu2knn,3ncn4n1h2juy25d07zfv3rnlauxnbw,3eicbyg6489ng4cfx3o0ao8ew7ljcg,SQQu2knn,2020-0188,2020-11-19,11:24:05,11:44:38,NA,incomplete,157,number,1,left,Green_Circle_Stripes_2.jpg,Red_Triangle_Chess_2.jpg,Green_Plus_Dots_4.jpg,right,680.9999999823049,false,high,false
SQQu2knn,3ncn4n1h2juy25d07zfv3rnlauxnbw,3eicbyg6489ng4cfx3o0ao8ew7ljcg,SQQu2knn,2020-0188,2020-11-19,11:24:05,11:44:38,NA,incomplete,158,number,1,left,Purple_Star_Chess_4.jpg,Red_Plus_Grid_4.jpg,Purple_Circle_Stripes_2.jpg,right,511.9999999878928,false,high,false
SQQu2knn,3ncn4n1h2juy25d07zfv3rnlauxnbw,3eicbyg6489ng4cfx3o0ao8ew7ljcg,SQQu2knn,2020-0188,2020-11-19,11:24:05,11:44:38,NA,incomplete,159,number,1,left,Blue_Triangle_Stripes_3.jpg,Green_Circle_Chess_3.jpg,Blue_Star_Dots_1.jpg,left,821.9999999855645,true,high,false
SQQu2knn,3ncn4n1h2juy25d07zfv3rnlauxnbw,3eicbyg6489ng4cfx3o0ao8ew7ljcg,SQQu2knn,2020-0188,2020-11-19,11:24:05,11:44:38,NA,incomplete,160,color,1,right,Red_Star_Stripes_3.jpg,Blue_Triangle_Grid_3.jpg,Red_Plus_Chess_4.jpg,left,651.0000000125729,false,high,false
SQQu2knn,3ncn4n1h2juy25d07zfv3rnlauxnbw,3eicbyg6489ng4cfx3o0ao8ew7ljcg,SQQu2knn,2020-0188,2020-11-19,11:24:05,11:44:38,NA,incomplete,161,color,1,left,Red_Plus_Dots_1.jpg,Red_Circle_Chess_2.jpg,Green_Triangle_Stripes_1.jpg,right,597.0000000088476,false,high,false
SQQu2knn,3ncn4n1h2juy25d07zfv3rnlauxnbw,3eicbyg6489ng4cfx3o0ao8ew7ljcg,SQQu2knn,2020-0188,2020-11-19,11:24:05,11:44:38,NA,incomplete,162,color,1,left,Blue_Star_Grid_1.jpg,Blue_Triangle_Stripes_3.jpg,Purple_Circle_Chess_1.jpg,right,570.0000000069849,false,high,false
SQQu2knn,3ncn4n1h2juy25d07zfv3rnlauxnbw,3eicbyg6489ng4cfx3o0ao8ew7ljcg,SQQu2knn,2020-0188,2020-11-19,11:24:05,11:44:38,NA,incomplete,163,color,0,left,Green_Star_Dots_4.jpg,Green_Triangle_Grid_2.jpg,Blue_Circle_Stripes_4.jpg,left,493.0000000167638,true,high,false
SQQu2knn,3ncn4n1h2juy25d07zfv3rnlauxnbw,3eicbyg6489ng4cfx3o0ao8ew7ljcg,SQQu2knn,2020-0188,2020-11-19,11:24:05,11:44:38,NA,incomplete,164,color,1,left,Blue_Plus_Stripes_3.jpg,Blue_Star_Grid_1.jpg,Red_Triangle_Chess_3.jpg,left,641.9999999925494,true,high,false
SQQu2knn,3ncn4n1h2juy25d07zfv3rnlauxnbw,3eicbyg6489ng4cfx3o0ao8ew7ljcg,SQQu2knn,2020-0188,2020-11-19,11:24:05,11:44:38,NA,incomplete,165,color,1,right,Green_Plus_Grid_3.jpg,Red_Circle_Chess_3.jpg,Green_Star_Dots_2.jpg,right,422.9999999515712,true,high,false
SQQu2knn,3ncn4n1h2juy25d07zfv3rnlauxnbw,3eicbyg6489ng4cfx3o0ao8ew7ljcg,SQQu2knn,2020-0188,2020-11-19,11:24:05,11:44:38,NA,incomplete,166,color,1,right,Purple_Circle_Stripes_3.jpg,Red_Triangle_Grid_3.jpg,Purple_Plus_Dots_2.jpg,right,396.00000000791624,true,high,false
SQQu2knn,3ncn4n1h2juy25d07zfv3rnlauxnbw,3eicbyg6489ng4cfx3o0ao8ew7ljcg,SQQu2knn,2020-0188,2020-11-19,11:24:05,11:44:38,NA,incomplete,167,color,1,right,Blue_Triangle_Dots_3.jpg,Green_Circle_Stripes_3.jpg,Blue_Star_Grid_1.jpg,right,447.9999999748543,true,high,false
SQQu2knn,3ncn4n1h2juy25d07zfv3rnlauxnbw,3eicbyg6489ng4cfx3o0ao8ew7ljcg,SQQu2knn,2020-0188,2020-11-19,11:24:05,11:44:38,NA,incomplete,168,color,0,left,Blue_Triangle_Dots_2.jpg,Blue_Star_Grid_4.jpg,Red_Plus_Chess_2.jpg,left,416.0000000265427,true,high,false
SQQu2knn,3ncn4n1h2juy25d07zfv3rnlauxnbw,3eicbyg6489ng4cfx3o0ao8ew7ljcg,SQQu2knn,2020-0188,2020-11-19,11:24:05,11:44:38,NA,incomplete,169,color,1,right,Red_Plus_Chess_3.jpg,Purple_Circle_Stripes_3.jpg,Red_Star_Dots_2.jpg,right,418.99999999441206,true,high,false
SQQu2knn,3ncn4n1h2juy25d07zfv3rnlauxnbw,3eicbyg6489ng4cfx3o0ao8ew7ljcg,SQQu2knn,2020-0188,2020-11-19,11:24:05,11:44:38,NA,incomplete,170,color,0,right,Red_Plus_Stripes_2.jpg,Blue_Star_Dots_2.jpg,Red_Triangle_Grid_4.jpg,right,453.9999999688007,true,high,false
SQQu2knn,3ncn4n1h2juy25d07zfv3rnlauxnbw,3eicbyg6489ng4cfx3o0ao8ew7ljcg,SQQu2knn,2020-0188,2020-11-19,11:24:05,11:44:38,NA,incomplete,171,color,1,left,Green_Circle_Dots_4.jpg,Green_Triangle_Chess_3.jpg,Blue_Plus_Grid_4.jpg,left,415.99999996833503,true,high,false
SQQu2knn,3ncn4n1h2juy25d07zfv3rnlauxnbw,3eicbyg6489ng4cfx3o0ao8ew7ljcg,SQQu2knn,2020-0188,2020-11-19,11:24:05,11:44:38,NA,incomplete,172,color,1,right,Red_Triangle_Dots_2.jpg,Purple_Circle_Grid_2.jpg,Red_Plus_Chess_3.jpg,right,434.9999999976717,true,high,false
SQQu2knn,3ncn4n1h2juy25d07zfv3rnlauxnbw,3eicbyg6489ng4cfx3o0ao8ew7ljcg,SQQu2knn,2020-0188,2020-11-19,11:24:05,11:44:38,NA,incomplete,173,color,1,left,Green_Plus_Dots_1.jpg,Green_Circle_Stripes_2.jpg,Blue_Star_Chess_1.jpg,left,451.9999999902211,true,high,false
SQQu2knn,3ncn4n1h2juy25d07zfv3rnlauxnbw,3eicbyg6489ng4cfx3o0ao8ew7ljcg,SQQu2knn,2020-0188,2020-11-19,11:24:05,11:44:38,NA,incomplete,174,color,1,right,Blue_Circle_Dots_3.jpg,Purple_Triangle_Chess_3.jpg,Blue_Plus_Grid_1.jpg,right,407.99999999580905,true,high,false
SQQu2knn,3ncn4n1h2juy25d07zfv3rnlauxnbw,3eicbyg6489ng4cfx3o0ao8ew7ljcg,SQQu2knn,2020-0188,2020-11-19,11:24:05,11:44:38,NA,incomplete,175,color,1,left,Green_Triangle_Dots_3.jpg,Green_Circle_Chess_4.jpg,Red_Plus_Stripes_3.jpg,left,433.0000000190921,true,high,false
SQQu2knn,3ncn4n1h2juy25d07zfv3rnlauxnbw,3eicbyg6489ng4cfx3o0ao8ew7ljcg,SQQu2knn,2020-0188,2020-11-19,11:24:05,11:44:38,NA,incomplete,176,color,0,left,Purple_Plus_Dots_3.jpg,Purple_Circle_Grid_4.jpg,Red_Star_Chess_3.jpg,left,484.99999998603016,true,high,false
SQQu2knn,3ncn4n1h2juy25d07zfv3rnlauxnbw,3eicbyg6489ng4cfx3o0ao8ew7ljcg,SQQu2knn,2020-0188,2020-11-19,11:24:05,11:44:38,NA,incomplete,177,color,1,right,Blue_Circle_Grid_1.jpg,Green_Star_Stripes_1.jpg,Blue_Plus_Dots_2.jpg,right,413.99999998975545,true,high,false
SQQu2knn,3ncn4n1h2juy25d07zfv3rnlauxnbw,3eicbyg6489ng4cfx3o0ao8ew7ljcg,SQQu2knn,2020-0188,2020-11-19,11:24:05,11:44:38,NA,incomplete,178,color,1,right,Blue_Circle_Grid_4.jpg,Purple_Plus_Chess_4.jpg,Blue_Triangle_Dots_1.jpg,right,457.9999999841675,true,high,false
SQQu2knn,3ncn4n1h2juy25d07zfv3rnlauxnbw,3eicbyg6489ng4cfx3o0ao8ew7ljcg,SQQu2knn,2020-0188,2020-11-19,11:24:05,11:44:38,NA,incomplete,179,color,1,right,Red_Circle_Dots_1.jpg,Green_Star_Stripes_1.jpg,Red_Plus_Chess_3.jpg,right,422.0000000204891,true,high,false
SQQu2knn,3ncn4n1h2juy25d07zfv3rnlauxnbw,3eicbyg6489ng4cfx3o0ao8ew7ljcg,SQQu2knn,2020-0188,2020-11-19,11:24:05,11:44:38,NA,incomplete,180,number,0,right,Purple_Triangle_Grid_2.jpg,Purple_Plus_Chess_4.jpg,Blue_Star_Dots_2.jpg,left,484.99999998603016,false,high,false
SQQu2knn,3ncn4n1h2juy25d07zfv3rnlauxnbw,3eicbyg6489ng4cfx3o0ao8ew7ljcg,SQQu2knn,2020-0188,2020-11-19,11:24:05,11:44:38,NA,incomplete,181,number,1,left,Purple_Circle_Chess_2.jpg,Blue_Star_Dots_2.jpg,Purple_Plus_Stripes_3.jpg,right,408.99999998509884,false,high,false
SQQu2knn,3ncn4n1h2juy25d07zfv3rnlauxnbw,3eicbyg6489ng4cfx3o0ao8ew7ljcg,SQQu2knn,2020-0188,2020-11-19,11:24:05,11:44:38,NA,incomplete,182,number,1,right,Red_Plus_Stripes_2.jpg,Red_Triangle_Grid_4.jpg,Purple_Circle_Chess_2.jpg,left,407.00000000651926,false,high,false
SQQu2knn,3ncn4n1h2juy25d07zfv3rnlauxnbw,3eicbyg6489ng4cfx3o0ao8ew7ljcg,SQQu2knn,2020-0188,2020-11-19,11:24:05,11:44:38,NA,incomplete,183,number,1,left,Blue_Plus_Stripes_3.jpg,Purple_Star_Dots_3.jpg,Blue_Circle_Grid_4.jpg,right,386.9999999878928,false,high,false
SQQu2knn,3ncn4n1h2juy25d07zfv3rnlauxnbw,3eicbyg6489ng4cfx3o0ao8ew7ljcg,SQQu2knn,2020-0188,2020-11-19,11:24:05,11:44:38,NA,incomplete,184,number,1,left,Green_Star_Dots_3.jpg,Purple_Plus_Grid_3.jpg,Green_Triangle_Stripes_2.jpg,left,630.9999999939464,true,high,false
SQQu2knn,3ncn4n1h2juy25d07zfv3rnlauxnbw,3eicbyg6489ng4cfx3o0ao8ew7ljcg,SQQu2knn,2020-0188,2020-11-19,11:24:05,11:44:38,NA,incomplete,185,number,1,right,Green_Circle_Chess_2.jpg,Green_Plus_Stripes_1.jpg,Red_Triangle_Dots_2.jpg,right,603.9999999920838,true,high,false
SQQu2knn,3ncn4n1h2juy25d07zfv3rnlauxnbw,3eicbyg6489ng4cfx3o0ao8ew7ljcg,SQQu2knn,2020-0188,2020-11-19,11:24:05,11:44:38,NA,incomplete,186,number,1,left,Green_Plus_Stripes_1.jpg,Blue_Star_Dots_1.jpg,Green_Circle_Chess_4.jpg,left,547.0000000204891,true,high,false
SQQu2knn,3ncn4n1h2juy25d07zfv3rnlauxnbw,3eicbyg6489ng4cfx3o0ao8ew7ljcg,SQQu2knn,2020-0188,2020-11-19,11:24:05,11:44:38,NA,incomplete,187,number,1,right,Red_Star_Dots_2.jpg,Red_Triangle_Chess_3.jpg,Purple_Plus_Grid_2.jpg,right,747.0000000321306,true,high,false
SQQu2knn,3ncn4n1h2juy25d07zfv3rnlauxnbw,3eicbyg6489ng4cfx3o0ao8ew7ljcg,SQQu2knn,2020-0188,2020-11-19,11:24:05,11:44:38,NA,incomplete,188,number,1,right,Purple_Star_Stripes_1.jpg,Purple_Plus_Grid_2.jpg,Green_Triangle_Dots_1.jpg,right,728.000000002794,true,high,false
SQQu2knn,3ncn4n1h2juy25d07zfv3rnlauxnbw,3eicbyg6489ng4cfx3o0ao8ew7ljcg,SQQu2knn,2020-0188,2020-11-19,11:24:05,11:44:38,NA,incomplete,189,number,1,right,Purple_Circle_Stripes_1.jpg,Purple_Triangle_Grid_2.jpg,Red_Star_Chess_1.jpg,right,567.0000000391155,true,high,false
SQQu2knn,3ncn4n1h2juy25d07zfv3rnlauxnbw,3eicbyg6489ng4cfx3o0ao8ew7ljcg,SQQu2knn,2020-0188,2020-11-19,11:24:05,11:44:38,NA,incomplete,190,number,1,left,Green_Circle_Dots_2.jpg,Purple_Star_Stripes_2.jpg,Green_Plus_Grid_1.jpg,left,625,true,high,false
SQQu2knn,3ncn4n1h2juy25d07zfv3rnlauxnbw,3eicbyg6489ng4cfx3o0ao8ew7ljcg,SQQu2knn,2020-0188,2020-11-19,11:24:05,11:44:38,NA,incomplete,191,number,0,left,Blue_Triangle_Stripes_4.jpg,Purple_Circle_Grid_4.jpg,Blue_Plus_Dots_2.jpg,left,617.9999999585561,true,high,false
SQQu2knn,3ncn4n1h2juy25d07zfv3rnlauxnbw,3eicbyg6489ng4cfx3o0ao8ew7ljcg,SQQu2knn,2020-0188,2020-11-19,11:24:05,11:44:38,NA,incomplete,192,number,1,left,Green_Star_Chess_1.jpg,Purple_Plus_Dots_1.jpg,Green_Circle_Stripes_2.jpg,left,519.0000000293367,true,high,false
SQQu2knn,3ncn4n1h2juy25d07zfv3rnlauxnbw,3eicbyg6489ng4cfx3o0ao8ew7ljcg,SQQu2knn,2020-0188,2020-11-19,11:24:05,11:44:38,NA,incomplete,193,number,1,left,Green_Plus_Dots_3.jpg,Red_Triangle_Chess_3.jpg,Green_Circle_Stripes_4.jpg,left,701.0000000009313,true,high,false
SQQu2knn,3ncn4n1h2juy25d07zfv3rnlauxnbw,3eicbyg6489ng4cfx3o0ao8ew7ljcg,SQQu2knn,2020-0188,2020-11-19,11:24:05,11:44:38,NA,incomplete,194,number,1,right,Red_Circle_Stripes_2.jpg,Red_Plus_Dots_3.jpg,Purple_Star_Grid_2.jpg,right,591.0000000149012,true,high,false
SQQu2knn,3ncn4n1h2juy25d07zfv3rnlauxnbw,3eicbyg6489ng4cfx3o0ao8ew7ljcg,SQQu2knn,2020-0188,2020-11-19,11:24:05,11:44:38,NA,incomplete,195,number,1,left,Purple_Circle_Chess_1.jpg,Blue_Triangle_Dots_1.jpg,Purple_Star_Stripes_2.jpg,left,548.9999999990687,true,high,false
SQQu2knn,3ncn4n1h2juy25d07zfv3rnlauxnbw,3eicbyg6489ng4cfx3o0ao8ew7ljcg,SQQu2knn,2020-0188,2020-11-19,11:24:05,11:44:38,NA,incomplete,196,number,1,left,Red_Circle_Grid_4.jpg,Purple_Triangle_Dots_4.jpg,Red_Plus_Chess_3.jpg,left,737.0000000228174,true,high,false
SQQu2knn,3ncn4n1h2juy25d07zfv3rnlauxnbw,3eicbyg6489ng4cfx3o0ao8ew7ljcg,SQQu2knn,2020-0188,2020-11-19,11:24:05,11:44:38,NA,incomplete,197,number,1,left,Blue_Circle_Grid_4.jpg,Purple_Plus_Stripes_4.jpg,Blue_Star_Dots_3.jpg,left,644.0000000293367,true,high,false
SQQu2knn,3ncn4n1h2juy25d07zfv3rnlauxnbw,3eicbyg6489ng4cfx3o0ao8ew7ljcg,SQQu2knn,2020-0188,2020-11-19,11:24:05,11:44:38,NA,incomplete,198,number,1,left,Blue_Triangle_Stripes_4.jpg,Red_Circle_Dots_4.jpg,Blue_Plus_Grid_2.jpg,left,570.0000000069849,true,high,false
SQQu2knn,3ncn4n1h2juy25d07zfv3rnlauxnbw,3eicbyg6489ng4cfx3o0ao8ew7ljcg,SQQu2knn,2020-0188,2020-11-19,11:24:05,11:44:38,NA,incomplete,199,number,0,left,Green_Plus_Chess_4.jpg,Red_Triangle_Stripes_4.jpg,Green_Circle_Grid_1.jpg,left,461.99999999953434,true,high,false
SQQu2knn,3ncn4n1h2juy25d07zfv3rnlauxnbw,3eicbyg6489ng4cfx3o0ao8ew7ljcg,SQQu2knn,2020-0188,2020-11-19,11:24:05,11:44:38,NA,incomplete,200,color,1,right,Red_Plus_Stripes_4.jpg,Green_Circle_Dots_4.jpg,Red_Triangle_Grid_3.jpg,left,557.9999999608845,false,high,false
SQQu2knn,3ncn4n1h2juy25d07zfv3rnlauxnbw,3eicbyg6489ng4cfx3o0ao8ew7ljcg,SQQu2knn,2020-0188,2020-11-19,11:24:05,11:44:38,NA,incomplete,201,color,1,right,Red_Star_Grid_3.jpg,Green_Circle_Dots_3.jpg,Red_Plus_Chess_1.jpg,right,560.9999999869615,true,high,false
SQQu2knn,3ncn4n1h2juy25d07zfv3rnlauxnbw,3eicbyg6489ng4cfx3o0ao8ew7ljcg,SQQu2knn,2020-0188,2020-11-19,11:24:05,11:44:38,NA,incomplete,202,color,0,left,Red_Circle_Stripes_1.jpg,Red_Triangle_Grid_2.jpg,Green_Star_Chess_1.jpg,left,389.00000002468005,true,high,false
SQQu2knn,3ncn4n1h2juy25d07zfv3rnlauxnbw,3eicbyg6489ng4cfx3o0ao8ew7ljcg,SQQu2knn,2020-0188,2020-11-19,11:24:05,11:44:38,NA,incomplete,203,color,1,left,Red_Triangle_Stripes_3.jpg,Red_Circle_Chess_1.jpg,Green_Star_Dots_3.jpg,left,512.9999999771826,true,high,false
SQQu2knn,3ncn4n1h2juy25d07zfv3rnlauxnbw,3eicbyg6489ng4cfx3o0ao8ew7ljcg,SQQu2knn,2020-0188,2020-11-19,11:24:05,11:44:38,NA,incomplete,204,color,1,right,Green_Plus_Chess_4.jpg,Purple_Circle_Stripes_4.jpg,Green_Star_Dots_3.jpg,right,507.999999972526,true,high,false
SQQu2knn,3ncn4n1h2juy25d07zfv3rnlauxnbw,3eicbyg6489ng4cfx3o0ao8ew7ljcg,SQQu2knn,2020-0188,2020-11-19,11:24:05,11:44:38,NA,incomplete,205,color,1,left,Blue_Triangle_Dots_4.jpg,Blue_Plus_Stripes_2.jpg,Green_Circle_Chess_4.jpg,left,701.0000000009313,true,high,false
SQQu2knn,3ncn4n1h2juy25d07zfv3rnlauxnbw,3eicbyg6489ng4cfx3o0ao8ew7ljcg,SQQu2knn,2020-0188,2020-11-19,11:24:05,11:44:38,NA,incomplete,206,color,1,right,Purple_Circle_Grid_4.jpg,Blue_Star_Stripes_4.jpg,Purple_Triangle_Chess_2.jpg,right,570.9999999962747,true,high,false
SQQu2knn,3ncn4n1h2juy25d07zfv3rnlauxnbw,3eicbyg6489ng4cfx3o0ao8ew7ljcg,SQQu2knn,2020-0188,2020-11-19,11:24:05,11:44:38,NA,incomplete,207,color,1,left,Red_Plus_Grid_2.jpg,Red_Triangle_Stripes_3.jpg,Green_Star_Dots_2.jpg,left,446.9999999855645,true,high,false
SQQu2knn,3ncn4n1h2juy25d07zfv3rnlauxnbw,3eicbyg6489ng4cfx3o0ao8ew7ljcg,SQQu2knn,2020-0188,2020-11-19,11:24:05,11:44:38,NA,incomplete,208,color,1,left,Purple_Triangle_Dots_2.jpg,Purple_Star_Stripes_4.jpg,Green_Plus_Chess_2.jpg,left,415.0000000372529,true,high,false
SQQu2knn,3ncn4n1h2juy25d07zfv3rnlauxnbw,3eicbyg6489ng4cfx3o0ao8ew7ljcg,SQQu2knn,2020-0188,2020-11-19,11:24:05,11:44:38,NA,incomplete,209,color,1,left,Red_Triangle_Stripes_2.jpg,Red_Star_Chess_4.jpg,Purple_Circle_Grid_2.jpg,left,414.99999997904524,true,high,false
SQQu2knn,3ncn4n1h2juy25d07zfv3rnlauxnbw,3eicbyg6489ng4cfx3o0ao8ew7ljcg,SQQu2knn,2020-0188,2020-11-19,11:24:05,11:44:38,NA,incomplete,210,color,1,left,Green_Plus_Dots_3.jpg,Green_Triangle_Stripes_4.jpg,Purple_Circle_Grid_3.jpg,left,418.99999999441206,true,high,false
SQQu2knn,3ncn4n1h2juy25d07zfv3rnlauxnbw,3eicbyg6489ng4cfx3o0ao8ew7ljcg,SQQu2knn,2020-0188,2020-11-19,11:24:05,11:44:38,NA,incomplete,211,color,1,left,Purple_Triangle_Dots_2.jpg,Purple_Star_Grid_3.jpg,Red_Circle_Stripes_2.jpg,left,430.99999998230487,true,high,false
SQQu2knn,3ncn4n1h2juy25d07zfv3rnlauxnbw,3eicbyg6489ng4cfx3o0ao8ew7ljcg,SQQu2knn,2020-0188,2020-11-19,11:24:05,11:44:38,NA,incomplete,212,color,1,left,Green_Plus_Stripes_4.jpg,Green_Star_Dots_1.jpg,Blue_Triangle_Grid_4.jpg,left,455.00000001629815,true,high,false
SQQu2knn,3ncn4n1h2juy25d07zfv3rnlauxnbw,3eicbyg6489ng4cfx3o0ao8ew7ljcg,SQQu2knn,2020-0188,2020-11-19,11:24:05,11:44:38,NA,incomplete,213,color,1,right,Blue_Circle_Chess_1.jpg,Purple_Plus_Dots_1.jpg,Blue_Star_Stripes_3.jpg,right,430.99999998230487,true,high,false
SQQu2knn,3ncn4n1h2juy25d07zfv3rnlauxnbw,3eicbyg6489ng4cfx3o0ao8ew7ljcg,SQQu2knn,2020-0188,2020-11-19,11:24:05,11:44:38,NA,incomplete,214,color,1,left,Green_Circle_Dots_1.jpg,Green_Star_Chess_4.jpg,Blue_Plus_Grid_1.jpg,left,417.0000000158325,true,high,false
SQQu2knn,3ncn4n1h2juy25d07zfv3rnlauxnbw,3eicbyg6489ng4cfx3o0ao8ew7ljcg,SQQu2knn,2020-0188,2020-11-19,11:24:05,11:44:38,NA,incomplete,215,color,1,left,Green_Circle_Chess_1.jpg,Green_Triangle_Grid_3.jpg,Red_Star_Stripes_1.jpg,left,394.00000002933666,true,high,false
SQQu2knn,3ncn4n1h2juy25d07zfv3rnlauxnbw,3eicbyg6489ng4cfx3o0ao8ew7ljcg,SQQu2knn,2020-0188,2020-11-19,11:24:05,11:44:38,NA,incomplete,216,color,0,left,Red_Plus_Chess_4.jpg,Red_Triangle_Grid_1.jpg,Green_Star_Dots_4.jpg,left,427.99999995622784,true,high,false
SQQu2knn,3ncn4n1h2juy25d07zfv3rnlauxnbw,3eicbyg6489ng4cfx3o0ao8ew7ljcg,SQQu2knn,2020-0188,2020-11-19,11:24:05,11:44:38,NA,incomplete,217,color,1,left,Purple_Triangle_Grid_1.jpg,Purple_Circle_Dots_4.jpg,Blue_Plus_Stripes_1.jpg,left,455.00000001629815,true,high,false
SQQu2knn,3ncn4n1h2juy25d07zfv3rnlauxnbw,3eicbyg6489ng4cfx3o0ao8ew7ljcg,SQQu2knn,2020-0188,2020-11-19,11:24:05,11:44:38,NA,incomplete,218,color,1,right,Red_Plus_Grid_4.jpg,Green_Star_Stripes_4.jpg,Red_Triangle_Dots_2.jpg,right,548.0000000097789,true,high,false
SQQu2knn,3ncn4n1h2juy25d07zfv3rnlauxnbw,3eicbyg6489ng4cfx3o0ao8ew7ljcg,SQQu2knn,2020-0188,2020-11-19,11:24:05,11:44:38,NA,incomplete,219,color,0,right,Red_Circle_Stripes_2.jpg,Green_Triangle_Dots_2.jpg,Red_Star_Grid_3.jpg,right,381.9999999832362,true,high,false
SQQu2knn,3ncn4n1h2juy25d07zfv3rnlauxnbw,3eicbyg6489ng4cfx3o0ao8ew7ljcg,SQQu2knn,2020-0188,2020-11-19,11:24:05,11:44:38,NA,incomplete,220,number,1,left,Blue_Plus_Grid_3.jpg,Red_Circle_Chess_3.jpg,Blue_Star_Dots_2.jpg,right,547.0000000204891,false,high,false
SQQu2knn,3ncn4n1h2juy25d07zfv3rnlauxnbw,3eicbyg6489ng4cfx3o0ao8ew7ljcg,SQQu2knn,2020-0188,2020-11-19,11:24:05,11:44:38,NA,incomplete,221,number,0,right,Blue_Star_Stripes_4.jpg,Blue_Circle_Grid_1.jpg,Purple_Plus_Chess_4.jpg,right,540.999999968335,true,high,false
SQQu2knn,3ncn4n1h2juy25d07zfv3rnlauxnbw,3eicbyg6489ng4cfx3o0ao8ew7ljcg,SQQu2knn,2020-0188,2020-11-19,11:24:05,11:44:38,NA,incomplete,222,number,1,right,Green_Circle_Grid_3.jpg,Green_Triangle_Dots_1.jpg,Red_Star_Chess_3.jpg,right,593.9999999827705,true,high,false
SQQu2knn,3ncn4n1h2juy25d07zfv3rnlauxnbw,3eicbyg6489ng4cfx3o0ao8ew7ljcg,SQQu2knn,2020-0188,2020-11-19,11:24:05,11:44:38,NA,incomplete,223,number,1,right,Green_Plus_Dots_2.jpg,Green_Star_Stripes_4.jpg,Purple_Triangle_Chess_2.jpg,right,645.0000000186265,true,high,false
SQQu2knn,3ncn4n1h2juy25d07zfv3rnlauxnbw,3eicbyg6489ng4cfx3o0ao8ew7ljcg,SQQu2knn,2020-0188,2020-11-19,11:24:05,11:44:38,NA,incomplete,224,number,0,left,Blue_Triangle_Stripes_2.jpg,Green_Circle_Grid_2.jpg,Blue_Plus_Dots_4.jpg,left,481.99999995995313,true,high,false
SQQu2knn,3ncn4n1h2juy25d07zfv3rnlauxnbw,3eicbyg6489ng4cfx3o0ao8ew7ljcg,SQQu2knn,2020-0188,2020-11-19,11:24:05,11:44:38,NA,incomplete,225,number,1,left,Red_Triangle_Grid_3.jpg,Purple_Plus_Dots_3.jpg,Red_Star_Chess_1.jpg,left,554.0000000037253,true,high,false
SQQu2knn,3ncn4n1h2juy25d07zfv3rnlauxnbw,3eicbyg6489ng4cfx3o0ao8ew7ljcg,SQQu2knn,2020-0188,2020-11-19,11:24:05,11:44:38,NA,incomplete,226,number,1,left,Red_Plus_Grid_4.jpg,Green_Star_Chess_4.jpg,Red_Circle_Dots_1.jpg,left,451.0000000009313,true,high,false
SQQu2knn,3ncn4n1h2juy25d07zfv3rnlauxnbw,3eicbyg6489ng4cfx3o0ao8ew7ljcg,SQQu2knn,2020-0188,2020-11-19,11:24:05,11:44:38,NA,incomplete,227,number,1,right,Purple_Circle_Chess_3.jpg,Purple_Triangle_Grid_1.jpg,Red_Star_Dots_3.jpg,right,589.0000000363216,true,high,false
SQQu2knn,3ncn4n1h2juy25d07zfv3rnlauxnbw,3eicbyg6489ng4cfx3o0ao8ew7ljcg,SQQu2knn,2020-0188,2020-11-19,11:24:05,11:44:38,NA,incomplete,228,number,1,left,Blue_Star_Grid_3.jpg,Green_Plus_Chess_3.jpg,Blue_Circle_Dots_2.jpg,left,465.9999999566935,true,high,false
SQQu2knn,3ncn4n1h2juy25d07zfv3rnlauxnbw,3eicbyg6489ng4cfx3o0ao8ew7ljcg,SQQu2knn,2020-0188,2020-11-19,11:24:05,11:44:38,NA,incomplete,229,number,1,right,Blue_Triangle_Dots_3.jpg,Blue_Circle_Stripes_4.jpg,Red_Plus_Chess_3.jpg,right,1021.0000000079162,true,high,false
SQQu2knn,3ncn4n1h2juy25d07zfv3rnlauxnbw,3eicbyg6489ng4cfx3o0ao8ew7ljcg,SQQu2knn,2020-0188,2020-11-19,11:24:05,11:44:38,NA,incomplete,230,number,1,right,Red_Star_Stripes_3.jpg,Red_Triangle_Chess_4.jpg,Purple_Plus_Grid_3.jpg,left,632.0000000414439,false,high,false
SQQu2knn,3ncn4n1h2juy25d07zfv3rnlauxnbw,3eicbyg6489ng4cfx3o0ao8ew7ljcg,SQQu2knn,2020-0188,2020-11-19,11:24:05,11:44:38,NA,incomplete,231,number,0,left,Purple_Star_Dots_4.jpg,Green_Triangle_Stripes_4.jpg,Purple_Plus_Grid_1.jpg,left,895.0000000186265,true,high,false
SQQu2knn,3ncn4n1h2juy25d07zfv3rnlauxnbw,3eicbyg6489ng4cfx3o0ao8ew7ljcg,SQQu2knn,2020-0188,2020-11-19,11:24:05,11:44:38,NA,incomplete,232,number,1,right,Red_Circle_Stripes_2.jpg,Red_Plus_Chess_1.jpg,Green_Star_Dots_2.jpg,left,369.9999999953434,false,high,false
SQQu2knn,3ncn4n1h2juy25d07zfv3rnlauxnbw,3eicbyg6489ng4cfx3o0ao8ew7ljcg,SQQu2knn,2020-0188,2020-11-19,11:24:05,11:44:38,NA,incomplete,233,number,1,left,Green_Triangle_Chess_4.jpg,Purple_Circle_Dots_4.jpg,Green_Plus_Grid_2.jpg,right,423.9999999990687,false,high,false
SQQu2knn,3ncn4n1h2juy25d07zfv3rnlauxnbw,3eicbyg6489ng4cfx3o0ao8ew7ljcg,SQQu2knn,2020-0188,2020-11-19,11:24:05,11:44:38,NA,incomplete,234,number,1,left,Green_Triangle_Dots_1.jpg,Red_Circle_Grid_1.jpg,Green_Star_Chess_3.jpg,left,496.00000004284084,true,high,false
SQQu2knn,3ncn4n1h2juy25d07zfv3rnlauxnbw,3eicbyg6489ng4cfx3o0ao8ew7ljcg,SQQu2knn,2020-0188,2020-11-19,11:24:05,11:44:38,NA,incomplete,235,number,1,right,Red_Circle_Stripes_3.jpg,Red_Star_Chess_4.jpg,Blue_Triangle_Grid_3.jpg,right,615.0000000488944,true,high,false
SQQu2knn,3ncn4n1h2juy25d07zfv3rnlauxnbw,3eicbyg6489ng4cfx3o0ao8ew7ljcg,SQQu2knn,2020-0188,2020-11-19,11:24:05,11:44:38,NA,incomplete,236,number,0,right,Green_Star_Stripes_1.jpg,Green_Triangle_Dots_2.jpg,Purple_Circle_Chess_1.jpg,right,663.9999999897555,true,high,false
SQQu2knn,3ncn4n1h2juy25d07zfv3rnlauxnbw,3eicbyg6489ng4cfx3o0ao8ew7ljcg,SQQu2knn,2020-0188,2020-11-19,11:24:05,11:44:38,NA,incomplete,237,number,1,left,Green_Plus_Grid_3.jpg,Purple_Star_Stripes_3.jpg,Green_Triangle_Dots_1.jpg,left,509.00000002002344,true,high,false
SQQu2knn,3ncn4n1h2juy25d07zfv3rnlauxnbw,3eicbyg6489ng4cfx3o0ao8ew7ljcg,SQQu2knn,2020-0188,2020-11-19,11:24:05,11:44:38,NA,incomplete,238,number,1,left,Blue_Star_Dots_4.jpg,Red_Circle_Chess_4.jpg,Blue_Triangle_Stripes_2.jpg,left,663.0000000004657,true,high,false
SQQu2knn,3ncn4n1h2juy25d07zfv3rnlauxnbw,3eicbyg6489ng4cfx3o0ao8ew7ljcg,SQQu2knn,2020-0188,2020-11-19,11:24:05,11:44:38,NA,incomplete,239,number,1,right,Red_Triangle_Grid_2.jpg,Red_Star_Stripes_3.jpg,Blue_Circle_Chess_2.jpg,right,608.0000000074506,true,high,false
SQQu2knn,3ncn4n1h2juy25d07zfv3rnlauxnbw,3eicbyg6489ng4cfx3o0ao8ew7ljcg,SQQu2knn,2020-0188,2020-11-19,11:24:05,11:44:38,NA,NA,instruction example,shape,NA,NA,Red_Circle_Grid_4.jpg,Purple_Circle_Dots_3.jpg,Green_Star_Grid_2.jpg,NA,NA,NA,NA,undefined
SQQu2knn,3ncn4n1h2juy25d07zfv3rnlauxnbw,3eicbyg6489ng4cfx3o0ao8ew7ljcg,SQQu2knn,2020-0188,2020-11-19,11:24:05,11:44:38,NA,NA,instruction example,shape,NA,NA,Blue_Circle_Chess_2.jpg,Red_Star_Chess_4.jpg,Purple_Circle_Grid_3.jpg,NA,NA,NA,NA,undefined
SQQu2knn,3ncn4n1h2juy25d07zfv3rnlauxnbw,3eicbyg6489ng4cfx3o0ao8ew7ljcg,SQQu2knn,2020-0188,2020-11-19,11:24:05,11:44:38,NA,NA,instruction example,shape,NA,NA,Red_Star_Grid_3.jpg,Red_Circle_Dots_1.jpg,Blue_Triangle_Stripes_3.jpg,NA,NA,NA,NA,undefined
SQQu2knn,3ncn4n1h2juy25d07zfv3rnlauxnbw,3eicbyg6489ng4cfx3o0ao8ew7ljcg,SQQu2knn,2020-0188,2020-11-19,11:24:05,11:44:38,NA,NA,instruction example,shape,NA,NA,Blue_Triangle_Grid_2.jpg,Red_Plus_Stripes_2.jpg,Blue_Star_Dots_1.jpg,NA,NA,NA,NA,undefined
SQQu2knn,3ncn4n1h2juy25d07zfv3rnlauxnbw,3eicbyg6489ng4cfx3o0ao8ew7ljcg,SQQu2knn,2020-0188,2020-11-19,11:24:05,11:44:38,1208092.9999999935,1234951.000000001,NA,NA,NA,NA,NA,NA,NA,NA,NA,NA,NA,undefined
