workerId,hitId,assignmentId,subject,studyid,exp_date,exp_start,exp_end,time_start,time_end,trial,type,reward_validity,answer,image_top,image_left,image_right,response,response_time,response_acc,volatility,practice
PHxvL3Q8,3axfspqoztbswwyvx39ztaxp9nrfjw,3f0bg9b9mt07zccismhs4pvna0c7ye,PHxvL3Q8,2020-0188,2020-05-21,15:46:19,16:00:38,NA,incomplete,0,number,1,right,Blue_Star_Chess_4.jpg,Green_Star_Dots_2.jpg,Red_Triangle_Grid_4.jpg,none,0,false,NA,true
PHxvL3Q8,3axfspqoztbswwyvx39ztaxp9nrfjw,3f0bg9b9mt07zccismhs4pvna0c7ye,PHxvL3Q8,2020-0188,2020-05-21,15:46:19,16:00:38,NA,incomplete,1,number,1,right,Blue_Star_Chess_4.jpg,Red_Star_Grid_2.jpg,Green_Triangle_Dots_4.jpg,right,1859.4250000314787,true,NA,true
PHxvL3Q8,3axfspqoztbswwyvx39ztaxp9nrfjw,3f0bg9b9mt07zccismhs4pvna0c7ye,PHxvL3Q8,2020-0188,2020-05-21,15:46:19,16:00:38,NA,incomplete,2,number,1,right,Purple_Triangle_Chess_4.jpg,Blue_Triangle_Dots_3.jpg,Red_Circle_Grid_4.jpg,right,1430.5000000167638,true,NA,true
PHxvL3Q8,3axfspqoztbswwyvx39ztaxp9nrfjw,3f0bg9b9mt07zccismhs4pvna0c7ye,PHxvL3Q8,2020-0188,2020-05-21,15:46:19,16:00:38,NA,incomplete,3,number,1,right,Green_Triangle_Grid_1.jpg,Blue_Triangle_Stripes_3.jpg,Purple_Star_Dots_1.jpg,right,854.9050000729039,true,NA,true
PHxvL3Q8,3axfspqoztbswwyvx39ztaxp9nrfjw,3f0bg9b9mt07zccismhs4pvna0c7ye,PHxvL3Q8,2020-0188,2020-05-21,15:46:19,16:00:38,NA,incomplete,4,number,1,right,Purple_Star_Chess_3.jpg,Green_Star_Grid_2.jpg,Red_Plus_Dots_3.jpg,right,1300.2800000831485,true,NA,true
PHxvL3Q8,3axfspqoztbswwyvx39ztaxp9nrfjw,3f0bg9b9mt07zccismhs4pvna0c7ye,PHxvL3Q8,2020-0188,2020-05-21,15:46:19,16:00:38,NA,incomplete,5,number,0,left,Green_Circle_Chess_2.jpg,Blue_Star_Stripes_2.jpg,Purple_Circle_Dots_4.jpg,none,0,false,NA,true
PHxvL3Q8,3axfspqoztbswwyvx39ztaxp9nrfjw,3f0bg9b9mt07zccismhs4pvna0c7ye,PHxvL3Q8,2020-0188,2020-05-21,15:46:19,16:00:38,NA,incomplete,6,number,0,right,Green_Star_Stripes_2.jpg,Blue_Star_Grid_1.jpg,Purple_Plus_Dots_2.jpg,right,1375.4850000841543,true,NA,true
PHxvL3Q8,3axfspqoztbswwyvx39ztaxp9nrfjw,3f0bg9b9mt07zccismhs4pvna0c7ye,PHxvL3Q8,2020-0188,2020-05-21,15:46:19,16:00:38,NA,incomplete,7,number,1,right,Purple_Star_Chess_2.jpg,Blue_Star_Grid_4.jpg,Green_Triangle_Stripes_2.jpg,none,0,false,NA,true
PHxvL3Q8,3axfspqoztbswwyvx39ztaxp9nrfjw,3f0bg9b9mt07zccismhs4pvna0c7ye,PHxvL3Q8,2020-0188,2020-05-21,15:46:19,16:00:38,NA,incomplete,8,number,1,right,Purple_Circle_Stripes_2.jpg,Green_Circle_Dots_4.jpg,Blue_Star_Chess_2.jpg,right,1183.2949999952689,true,NA,true
PHxvL3Q8,3axfspqoztbswwyvx39ztaxp9nrfjw,3f0bg9b9mt07zccismhs4pvna0c7ye,PHxvL3Q8,2020-0188,2020-05-21,15:46:19,16:00:38,NA,incomplete,9,number,1,right,Purple_Plus_Chess_3.jpg,Blue_Plus_Dots_1.jpg,Red_Star_Grid_3.jpg,right,863.3050000062212,true,NA,true
PHxvL3Q8,3axfspqoztbswwyvx39ztaxp9nrfjw,3f0bg9b9mt07zccismhs4pvna0c7ye,PHxvL3Q8,2020-0188,2020-05-21,15:46:19,16:00:38,NA,incomplete,10,number,1,left,Green_Triangle_Dots_4.jpg,Red_Circle_Chess_4.jpg,Blue_Triangle_Stripes_1.jpg,left,1343.4949999209493,true,NA,true
PHxvL3Q8,3axfspqoztbswwyvx39ztaxp9nrfjw,3f0bg9b9mt07zccismhs4pvna0c7ye,PHxvL3Q8,2020-0188,2020-05-21,15:46:19,16:00:38,NA,incomplete,11,number,1,left,Green_Circle_Chess_2.jpg,Red_Triangle_Dots_2.jpg,Purple_Circle_Grid_1.jpg,left,887.5499999849126,true,NA,true
PHxvL3Q8,3axfspqoztbswwyvx39ztaxp9nrfjw,3f0bg9b9mt07zccismhs4pvna0c7ye,PHxvL3Q8,2020-0188,2020-05-21,15:46:19,16:00:38,NA,incomplete,12,number,1,right,Green_Circle_Dots_4.jpg,Blue_Circle_Chess_1.jpg,Red_Plus_Stripes_4.jpg,right,728.1149999471381,true,NA,true
PHxvL3Q8,3axfspqoztbswwyvx39ztaxp9nrfjw,3f0bg9b9mt07zccismhs4pvna0c7ye,PHxvL3Q8,2020-0188,2020-05-21,15:46:19,16:00:38,NA,incomplete,13,number,1,left,Red_Circle_Chess_2.jpg,Purple_Star_Grid_2.jpg,Green_Circle_Stripes_4.jpg,left,1096.309999935329,true,NA,true
PHxvL3Q8,3axfspqoztbswwyvx39ztaxp9nrfjw,3f0bg9b9mt07zccismhs4pvna0c7ye,PHxvL3Q8,2020-0188,2020-05-21,15:46:19,16:00:38,NA,incomplete,14,number,0,left,Blue_Plus_Stripes_3.jpg,Green_Circle_Grid_3.jpg,Purple_Plus_Chess_2.jpg,right,729.9649999476969,false,NA,true
PHxvL3Q8,3axfspqoztbswwyvx39ztaxp9nrfjw,3f0bg9b9mt07zccismhs4pvna0c7ye,PHxvL3Q8,2020-0188,2020-05-21,15:46:19,16:00:38,NA,incomplete,15,number,1,left,Blue_Triangle_Dots_1.jpg,Green_Circle_Grid_1.jpg,Red_Triangle_Chess_3.jpg,left,1419.110000017099,true,NA,true
PHxvL3Q8,3axfspqoztbswwyvx39ztaxp9nrfjw,3f0bg9b9mt07zccismhs4pvna0c7ye,PHxvL3Q8,2020-0188,2020-05-21,15:46:19,16:00:38,NA,incomplete,16,number,1,left,Green_Plus_Chess_2.jpg,Blue_Star_Dots_2.jpg,Red_Plus_Grid_4.jpg,left,1130.5799999972805,true,NA,true
PHxvL3Q8,3axfspqoztbswwyvx39ztaxp9nrfjw,3f0bg9b9mt07zccismhs4pvna0c7ye,PHxvL3Q8,2020-0188,2020-05-21,15:46:19,16:00:38,NA,incomplete,17,number,0,left,Green_Plus_Chess_1.jpg,Red_Star_Grid_1.jpg,Purple_Plus_Dots_4.jpg,left,784.1450000414625,true,NA,true
PHxvL3Q8,3axfspqoztbswwyvx39ztaxp9nrfjw,3f0bg9b9mt07zccismhs4pvna0c7ye,PHxvL3Q8,2020-0188,2020-05-21,15:46:19,16:00:38,NA,incomplete,18,number,0,left,Red_Circle_Dots_3.jpg,Green_Star_Chess_3.jpg,Purple_Circle_Stripes_4.jpg,left,1401.5699999872595,true,NA,true
PHxvL3Q8,3axfspqoztbswwyvx39ztaxp9nrfjw,3f0bg9b9mt07zccismhs4pvna0c7ye,PHxvL3Q8,2020-0188,2020-05-21,15:46:19,16:00:38,NA,incomplete,19,number,1,right,Green_Triangle_Grid_1.jpg,Blue_Triangle_Stripes_3.jpg,Purple_Circle_Dots_1.jpg,right,1334.099999978207,true,NA,true
PHxvL3Q8,3axfspqoztbswwyvx39ztaxp9nrfjw,3f0bg9b9mt07zccismhs4pvna0c7ye,PHxvL3Q8,2020-0188,2020-05-21,15:46:19,16:00:38,NA,incomplete,20,shape,1,right,Blue_Star_Stripes_3.jpg,Green_Triangle_Chess_3.jpg,Purple_Star_Dots_4.jpg,right,1381.775000016205,true,NA,true
PHxvL3Q8,3axfspqoztbswwyvx39ztaxp9nrfjw,3f0bg9b9mt07zccismhs4pvna0c7ye,PHxvL3Q8,2020-0188,2020-05-21,15:46:19,16:00:38,NA,incomplete,21,shape,1,left,Purple_Star_Dots_3.jpg,Blue_Star_Grid_1.jpg,Green_Plus_Chess_3.jpg,left,1184.7149999812245,true,NA,true
PHxvL3Q8,3axfspqoztbswwyvx39ztaxp9nrfjw,3f0bg9b9mt07zccismhs4pvna0c7ye,PHxvL3Q8,2020-0188,2020-05-21,15:46:19,16:00:38,NA,incomplete,22,shape,1,right,Blue_Plus_Dots_2.jpg,Red_Circle_Grid_2.jpg,Purple_Plus_Stripes_4.jpg,right,1078.139999997802,true,NA,true
PHxvL3Q8,3axfspqoztbswwyvx39ztaxp9nrfjw,3f0bg9b9mt07zccismhs4pvna0c7ye,PHxvL3Q8,2020-0188,2020-05-21,15:46:19,16:00:38,NA,incomplete,23,shape,1,left,Red_Plus_Dots_3.jpg,Purple_Plus_Chess_2.jpg,Green_Circle_Stripes_3.jpg,left,1023.105000029318,true,NA,true
PHxvL3Q8,3axfspqoztbswwyvx39ztaxp9nrfjw,3f0bg9b9mt07zccismhs4pvna0c7ye,PHxvL3Q8,2020-0188,2020-05-21,15:46:19,16:00:38,NA,incomplete,24,shape,0,left,Blue_Star_Grid_2.jpg,Purple_Star_Stripes_4.jpg,Red_Circle_Dots_2.jpg,left,1388.3800000185147,true,NA,true
PHxvL3Q8,3axfspqoztbswwyvx39ztaxp9nrfjw,3f0bg9b9mt07zccismhs4pvna0c7ye,PHxvL3Q8,2020-0188,2020-05-21,15:46:19,16:00:38,NA,incomplete,25,shape,0,left,Purple_Star_Stripes_4.jpg,Red_Star_Chess_2.jpg,Blue_Circle_Dots_4.jpg,left,1118.6599999200553,true,NA,true
PHxvL3Q8,3axfspqoztbswwyvx39ztaxp9nrfjw,3f0bg9b9mt07zccismhs4pvna0c7ye,PHxvL3Q8,2020-0188,2020-05-21,15:46:19,16:00:38,NA,incomplete,26,shape,1,right,Blue_Plus_Dots_1.jpg,Green_Circle_Grid_1.jpg,Red_Plus_Stripes_3.jpg,right,1457.1800000267103,true,NA,true
PHxvL3Q8,3axfspqoztbswwyvx39ztaxp9nrfjw,3f0bg9b9mt07zccismhs4pvna0c7ye,PHxvL3Q8,2020-0188,2020-05-21,15:46:19,16:00:38,NA,incomplete,27,shape,1,left,Purple_Triangle_Stripes_1.jpg,Red_Triangle_Dots_2.jpg,Blue_Star_Chess_1.jpg,left,961.4249999867752,true,NA,true
PHxvL3Q8,3axfspqoztbswwyvx39ztaxp9nrfjw,3f0bg9b9mt07zccismhs4pvna0c7ye,PHxvL3Q8,2020-0188,2020-05-21,15:46:19,16:00:38,NA,incomplete,28,shape,1,left,Green_Plus_Grid_1.jpg,Blue_Plus_Stripes_2.jpg,Red_Star_Chess_1.jpg,left,1006.5399999730289,true,NA,true
PHxvL3Q8,3axfspqoztbswwyvx39ztaxp9nrfjw,3f0bg9b9mt07zccismhs4pvna0c7ye,PHxvL3Q8,2020-0188,2020-05-21,15:46:19,16:00:38,NA,incomplete,29,shape,1,left,Purple_Triangle_Stripes_3.jpg,Red_Triangle_Dots_2.jpg,Blue_Circle_Grid_3.jpg,left,985.0749999750406,true,NA,true
PHxvL3Q8,3axfspqoztbswwyvx39ztaxp9nrfjw,3f0bg9b9mt07zccismhs4pvna0c7ye,PHxvL3Q8,2020-0188,2020-05-21,15:46:19,16:00:38,NA,incomplete,30,shape,1,left,Green_Star_Dots_2.jpg,Red_Star_Stripes_1.jpg,Blue_Triangle_Grid_2.jpg,left,998.3950000023469,true,NA,true
PHxvL3Q8,3axfspqoztbswwyvx39ztaxp9nrfjw,3f0bg9b9mt07zccismhs4pvna0c7ye,PHxvL3Q8,2020-0188,2020-05-21,15:46:19,16:00:38,NA,incomplete,31,shape,1,left,Blue_Triangle_Stripes_4.jpg,Green_Triangle_Dots_1.jpg,Red_Plus_Chess_4.jpg,left,931.0250000562519,true,NA,true
PHxvL3Q8,3axfspqoztbswwyvx39ztaxp9nrfjw,3f0bg9b9mt07zccismhs4pvna0c7ye,PHxvL3Q8,2020-0188,2020-05-21,15:46:19,16:00:38,NA,incomplete,32,shape,1,right,Green_Triangle_Stripes_4.jpg,Red_Plus_Dots_4.jpg,Purple_Triangle_Grid_3.jpg,right,1170.9000000264496,true,NA,true
PHxvL3Q8,3axfspqoztbswwyvx39ztaxp9nrfjw,3f0bg9b9mt07zccismhs4pvna0c7ye,PHxvL3Q8,2020-0188,2020-05-21,15:46:19,16:00:38,NA,incomplete,33,shape,1,right,Red_Circle_Dots_2.jpg,Green_Plus_Grid_2.jpg,Blue_Circle_Chess_1.jpg,right,1102.9499999713153,true,NA,true
PHxvL3Q8,3axfspqoztbswwyvx39ztaxp9nrfjw,3f0bg9b9mt07zccismhs4pvna0c7ye,PHxvL3Q8,2020-0188,2020-05-21,15:46:19,16:00:38,NA,incomplete,34,shape,0,right,Green_Circle_Dots_2.jpg,Blue_Star_Grid_2.jpg,Purple_Circle_Stripes_1.jpg,right,845.5700000049546,true,NA,true
PHxvL3Q8,3axfspqoztbswwyvx39ztaxp9nrfjw,3f0bg9b9mt07zccismhs4pvna0c7ye,PHxvL3Q8,2020-0188,2020-05-21,15:46:19,16:00:38,NA,incomplete,35,shape,1,left,Green_Circle_Stripes_3.jpg,Blue_Circle_Grid_1.jpg,Purple_Star_Chess_3.jpg,left,1201.350000104867,true,NA,true
PHxvL3Q8,3axfspqoztbswwyvx39ztaxp9nrfjw,3f0bg9b9mt07zccismhs4pvna0c7ye,PHxvL3Q8,2020-0188,2020-05-21,15:46:19,16:00:38,NA,incomplete,36,shape,1,right,Green_Triangle_Grid_3.jpg,Red_Circle_Chess_3.jpg,Purple_Triangle_Dots_2.jpg,right,1151.1450000107288,true,NA,true
PHxvL3Q8,3axfspqoztbswwyvx39ztaxp9nrfjw,3f0bg9b9mt07zccismhs4pvna0c7ye,PHxvL3Q8,2020-0188,2020-05-21,15:46:19,16:00:38,NA,incomplete,37,shape,1,left,Red_Plus_Grid_1.jpg,Green_Plus_Dots_2.jpg,Purple_Triangle_Chess_1.jpg,left,789.83500006143,true,NA,true
PHxvL3Q8,3axfspqoztbswwyvx39ztaxp9nrfjw,3f0bg9b9mt07zccismhs4pvna0c7ye,PHxvL3Q8,2020-0188,2020-05-21,15:46:19,16:00:38,NA,incomplete,38,shape,1,left,Blue_Star_Grid_1.jpg,Red_Star_Stripes_4.jpg,Purple_Plus_Dots_1.jpg,left,879.4650000054389,true,NA,true
PHxvL3Q8,3axfspqoztbswwyvx39ztaxp9nrfjw,3f0bg9b9mt07zccismhs4pvna0c7ye,PHxvL3Q8,2020-0188,2020-05-21,15:46:19,16:00:38,NA,incomplete,39,shape,1,left,Purple_Plus_Dots_4.jpg,Blue_Plus_Grid_1.jpg,Red_Circle_Stripes_4.jpg,left,696.0299999918789,true,NA,true
PHxvL3Q8,3axfspqoztbswwyvx39ztaxp9nrfjw,3f0bg9b9mt07zccismhs4pvna0c7ye,PHxvL3Q8,2020-0188,2020-05-21,15:46:19,16:00:38,NA,incomplete,0,number,1,left,Red_Star_Chess_1.jpg,Green_Triangle_Stripes_1.jpg,Blue_Star_Grid_2.jpg,right,1111.3300001015887,false,high,false
PHxvL3Q8,3axfspqoztbswwyvx39ztaxp9nrfjw,3f0bg9b9mt07zccismhs4pvna0c7ye,PHxvL3Q8,2020-0188,2020-05-21,15:46:19,16:00:38,NA,incomplete,1,number,1,left,Purple_Triangle_Stripes_3.jpg,Green_Circle_Chess_3.jpg,Blue_Triangle_Grid_2.jpg,right,797.6549998857081,false,high,false
PHxvL3Q8,3axfspqoztbswwyvx39ztaxp9nrfjw,3f0bg9b9mt07zccismhs4pvna0c7ye,PHxvL3Q8,2020-0188,2020-05-21,15:46:19,16:00:38,NA,incomplete,2,number,1,right,Purple_Star_Chess_1.jpg,Green_Star_Dots_4.jpg,Red_Triangle_Grid_1.jpg,left,742.5999999977648,false,high,false
PHxvL3Q8,3axfspqoztbswwyvx39ztaxp9nrfjw,3f0bg9b9mt07zccismhs4pvna0c7ye,PHxvL3Q8,2020-0188,2020-05-21,15:46:19,16:00:38,NA,incomplete,3,number,1,left,Blue_Star_Dots_4.jpg,Green_Circle_Chess_4.jpg,Red_Star_Stripes_2.jpg,left,783.1099999602884,true,high,false
PHxvL3Q8,3axfspqoztbswwyvx39ztaxp9nrfjw,3f0bg9b9mt07zccismhs4pvna0c7ye,PHxvL3Q8,2020-0188,2020-05-21,15:46:19,16:00:38,NA,incomplete,4,number,1,right,Purple_Plus_Stripes_2.jpg,Green_Plus_Grid_3.jpg,Blue_Triangle_Dots_2.jpg,right,828.3750000409782,true,high,false
PHxvL3Q8,3axfspqoztbswwyvx39ztaxp9nrfjw,3f0bg9b9mt07zccismhs4pvna0c7ye,PHxvL3Q8,2020-0188,2020-05-21,15:46:19,16:00:38,NA,incomplete,5,number,1,left,Purple_Triangle_Grid_1.jpg,Blue_Plus_Chess_1.jpg,Green_Triangle_Dots_4.jpg,left,653.349999920465,true,high,false
PHxvL3Q8,3axfspqoztbswwyvx39ztaxp9nrfjw,3f0bg9b9mt07zccismhs4pvna0c7ye,PHxvL3Q8,2020-0188,2020-05-21,15:46:19,16:00:38,NA,incomplete,6,number,1,right,Purple_Star_Dots_3.jpg,Green_Star_Stripes_1.jpg,Blue_Triangle_Chess_3.jpg,right,797.9950000299141,true,high,false
PHxvL3Q8,3axfspqoztbswwyvx39ztaxp9nrfjw,3f0bg9b9mt07zccismhs4pvna0c7ye,PHxvL3Q8,2020-0188,2020-05-21,15:46:19,16:00:38,NA,incomplete,7,number,0,left,Green_Triangle_Grid_4.jpg,Red_Circle_Chess_4.jpg,Purple_Triangle_Dots_3.jpg,left,935.5999999679625,true,high,false
PHxvL3Q8,3axfspqoztbswwyvx39ztaxp9nrfjw,3f0bg9b9mt07zccismhs4pvna0c7ye,PHxvL3Q8,2020-0188,2020-05-21,15:46:19,16:00:38,NA,incomplete,8,number,1,left,Blue_Plus_Grid_4.jpg,Red_Triangle_Stripes_4.jpg,Green_Plus_Dots_2.jpg,right,985.6649999273941,false,high,false
PHxvL3Q8,3axfspqoztbswwyvx39ztaxp9nrfjw,3f0bg9b9mt07zccismhs4pvna0c7ye,PHxvL3Q8,2020-0188,2020-05-21,15:46:19,16:00:38,NA,incomplete,9,number,1,left,Purple_Circle_Dots_4.jpg,Red_Plus_Stripes_4.jpg,Green_Circle_Grid_3.jpg,left,828.5600000526756,true,high,false
PHxvL3Q8,3axfspqoztbswwyvx39ztaxp9nrfjw,3f0bg9b9mt07zccismhs4pvna0c7ye,PHxvL3Q8,2020-0188,2020-05-21,15:46:19,16:00:38,NA,incomplete,10,shape,1,left,Purple_Circle_Dots_4.jpg,Green_Circle_Chess_3.jpg,Blue_Star_Stripes_4.jpg,right,781.3949999399483,false,high,false
PHxvL3Q8,3axfspqoztbswwyvx39ztaxp9nrfjw,3f0bg9b9mt07zccismhs4pvna0c7ye,PHxvL3Q8,2020-0188,2020-05-21,15:46:19,16:00:38,NA,incomplete,11,shape,0,right,Green_Star_Chess_4.jpg,Blue_Plus_Dots_4.jpg,Purple_Star_Stripes_1.jpg,left,735.6900000013411,false,high,false
PHxvL3Q8,3axfspqoztbswwyvx39ztaxp9nrfjw,3f0bg9b9mt07zccismhs4pvna0c7ye,PHxvL3Q8,2020-0188,2020-05-21,15:46:19,16:00:38,NA,incomplete,12,shape,1,left,Purple_Star_Chess_1.jpg,Green_Star_Dots_4.jpg,Red_Circle_Stripes_1.jpg,right,607.8400000697002,false,high,false
PHxvL3Q8,3axfspqoztbswwyvx39ztaxp9nrfjw,3f0bg9b9mt07zccismhs4pvna0c7ye,PHxvL3Q8,2020-0188,2020-05-21,15:46:19,16:00:38,NA,incomplete,13,shape,1,right,Blue_Circle_Chess_3.jpg,Purple_Triangle_Stripes_3.jpg,Green_Circle_Dots_4.jpg,right,750.9850000496954,true,high,false
PHxvL3Q8,3axfspqoztbswwyvx39ztaxp9nrfjw,3f0bg9b9mt07zccismhs4pvna0c7ye,PHxvL3Q8,2020-0188,2020-05-21,15:46:19,16:00:38,NA,incomplete,14,shape,1,left,Red_Star_Stripes_2.jpg,Green_Star_Chess_3.jpg,Blue_Triangle_Dots_2.jpg,right,816.520000109449,false,high,false
PHxvL3Q8,3axfspqoztbswwyvx39ztaxp9nrfjw,3f0bg9b9mt07zccismhs4pvna0c7ye,PHxvL3Q8,2020-0188,2020-05-21,15:46:19,16:00:38,NA,incomplete,15,shape,1,right,Red_Triangle_Grid_4.jpg,Green_Plus_Stripes_4.jpg,Purple_Triangle_Chess_2.jpg,right,843.9500000094995,true,high,false
PHxvL3Q8,3axfspqoztbswwyvx39ztaxp9nrfjw,3f0bg9b9mt07zccismhs4pvna0c7ye,PHxvL3Q8,2020-0188,2020-05-21,15:46:19,16:00:38,NA,incomplete,16,shape,0,right,Green_Triangle_Chess_4.jpg,Blue_Star_Stripes_4.jpg,Purple_Triangle_Grid_1.jpg,right,867.8049999289215,true,high,false
PHxvL3Q8,3axfspqoztbswwyvx39ztaxp9nrfjw,3f0bg9b9mt07zccismhs4pvna0c7ye,PHxvL3Q8,2020-0188,2020-05-21,15:46:19,16:00:38,NA,incomplete,17,shape,1,right,Blue_Star_Grid_3.jpg,Purple_Circle_Chess_3.jpg,Red_Star_Dots_2.jpg,right,776.2249999213964,true,high,false
PHxvL3Q8,3axfspqoztbswwyvx39ztaxp9nrfjw,3f0bg9b9mt07zccismhs4pvna0c7ye,PHxvL3Q8,2020-0188,2020-05-21,15:46:19,16:00:38,NA,incomplete,18,shape,1,left,Green_Circle_Grid_4.jpg,Blue_Circle_Chess_3.jpg,Purple_Triangle_Dots_4.jpg,right,695.8350000204518,false,high,false
PHxvL3Q8,3axfspqoztbswwyvx39ztaxp9nrfjw,3f0bg9b9mt07zccismhs4pvna0c7ye,PHxvL3Q8,2020-0188,2020-05-21,15:46:19,16:00:38,NA,incomplete,19,shape,0,left,Red_Circle_Grid_4.jpg,Purple_Circle_Stripes_1.jpg,Green_Star_Dots_4.jpg,right,666.9400000246242,false,high,false
PHxvL3Q8,3axfspqoztbswwyvx39ztaxp9nrfjw,3f0bg9b9mt07zccismhs4pvna0c7ye,PHxvL3Q8,2020-0188,2020-05-21,15:46:19,16:00:38,NA,incomplete,20,number,0,right,Green_Plus_Dots_1.jpg,Red_Plus_Chess_4.jpg,Blue_Star_Stripes_1.jpg,left,809.8799999570474,false,high,false
PHxvL3Q8,3axfspqoztbswwyvx39ztaxp9nrfjw,3f0bg9b9mt07zccismhs4pvna0c7ye,PHxvL3Q8,2020-0188,2020-05-21,15:46:19,16:00:38,NA,incomplete,21,number,1,right,Green_Star_Dots_3.jpg,Red_Star_Stripes_4.jpg,Purple_Triangle_Grid_3.jpg,right,756.2100000213832,true,high,false
PHxvL3Q8,3axfspqoztbswwyvx39ztaxp9nrfjw,3f0bg9b9mt07zccismhs4pvna0c7ye,PHxvL3Q8,2020-0188,2020-05-21,15:46:19,16:00:38,NA,incomplete,22,number,1,left,Green_Plus_Chess_4.jpg,Purple_Triangle_Stripes_4.jpg,Red_Plus_Grid_3.jpg,right,769.4350000238046,false,high,false
PHxvL3Q8,3axfspqoztbswwyvx39ztaxp9nrfjw,3f0bg9b9mt07zccismhs4pvna0c7ye,PHxvL3Q8,2020-0188,2020-05-21,15:46:19,16:00:38,NA,incomplete,23,number,1,right,Purple_Plus_Grid_2.jpg,Red_Plus_Stripes_1.jpg,Blue_Circle_Chess_2.jpg,right,890.7550000585616,true,high,false
PHxvL3Q8,3axfspqoztbswwyvx39ztaxp9nrfjw,3f0bg9b9mt07zccismhs4pvna0c7ye,PHxvL3Q8,2020-0188,2020-05-21,15:46:19,16:00:38,NA,incomplete,24,number,1,right,Blue_Circle_Grid_4.jpg,Purple_Circle_Stripes_1.jpg,Green_Plus_Dots_4.jpg,right,700.139999971725,true,high,false
PHxvL3Q8,3axfspqoztbswwyvx39ztaxp9nrfjw,3f0bg9b9mt07zccismhs4pvna0c7ye,PHxvL3Q8,2020-0188,2020-05-21,15:46:19,16:00:38,NA,incomplete,25,number,1,right,Purple_Circle_Dots_3.jpg,Red_Circle_Grid_1.jpg,Green_Triangle_Stripes_3.jpg,left,711.7149999830872,false,high,false
PHxvL3Q8,3axfspqoztbswwyvx39ztaxp9nrfjw,3f0bg9b9mt07zccismhs4pvna0c7ye,PHxvL3Q8,2020-0188,2020-05-21,15:46:19,16:00:38,NA,incomplete,26,number,1,right,Purple_Star_Dots_3.jpg,Red_Star_Chess_4.jpg,Green_Triangle_Grid_3.jpg,right,780.254999990575,true,high,false
PHxvL3Q8,3axfspqoztbswwyvx39ztaxp9nrfjw,3f0bg9b9mt07zccismhs4pvna0c7ye,PHxvL3Q8,2020-0188,2020-05-21,15:46:19,16:00:38,NA,incomplete,27,number,1,left,Purple_Circle_Stripes_2.jpg,Blue_Star_Dots_2.jpg,Green_Circle_Chess_1.jpg,left,731.0049999505281,true,high,false
PHxvL3Q8,3axfspqoztbswwyvx39ztaxp9nrfjw,3f0bg9b9mt07zccismhs4pvna0c7ye,PHxvL3Q8,2020-0188,2020-05-21,15:46:19,16:00:38,NA,incomplete,28,number,1,left,Blue_Star_Dots_3.jpg,Red_Triangle_Stripes_3.jpg,Green_Star_Grid_4.jpg,right,811.9249999290332,false,high,false
PHxvL3Q8,3axfspqoztbswwyvx39ztaxp9nrfjw,3f0bg9b9mt07zccismhs4pvna0c7ye,PHxvL3Q8,2020-0188,2020-05-21,15:46:19,16:00:38,NA,incomplete,29,number,0,right,Green_Circle_Stripes_4.jpg,Purple_Circle_Grid_1.jpg,Blue_Plus_Dots_4.jpg,right,684.0200000442564,true,high,false
PHxvL3Q8,3axfspqoztbswwyvx39ztaxp9nrfjw,3f0bg9b9mt07zccismhs4pvna0c7ye,PHxvL3Q8,2020-0188,2020-05-21,15:46:19,16:00:38,NA,incomplete,30,shape,1,right,Purple_Star_Grid_2.jpg,Red_Plus_Stripes_2.jpg,Green_Star_Dots_3.jpg,right,882.5099999085069,true,high,false
PHxvL3Q8,3axfspqoztbswwyvx39ztaxp9nrfjw,3f0bg9b9mt07zccismhs4pvna0c7ye,PHxvL3Q8,2020-0188,2020-05-21,15:46:19,16:00:38,NA,incomplete,31,shape,0,right,Blue_Star_Chess_4.jpg,Red_Circle_Dots_4.jpg,Purple_Star_Stripes_3.jpg,right,757.4700000695884,true,high,false
PHxvL3Q8,3axfspqoztbswwyvx39ztaxp9nrfjw,3f0bg9b9mt07zccismhs4pvna0c7ye,PHxvL3Q8,2020-0188,2020-05-21,15:46:19,16:00:38,NA,incomplete,32,shape,1,right,Purple_Circle_Stripes_3.jpg,Green_Plus_Dots_3.jpg,Blue_Circle_Chess_1.jpg,left,782.0899999933317,false,high,false
PHxvL3Q8,3axfspqoztbswwyvx39ztaxp9nrfjw,3f0bg9b9mt07zccismhs4pvna0c7ye,PHxvL3Q8,2020-0188,2020-05-21,15:46:19,16:00:38,NA,incomplete,33,shape,0,right,Red_Plus_Grid_1.jpg,Blue_Circle_Stripes_1.jpg,Purple_Plus_Dots_3.jpg,right,711.0150000080466,true,high,false
PHxvL3Q8,3axfspqoztbswwyvx39ztaxp9nrfjw,3f0bg9b9mt07zccismhs4pvna0c7ye,PHxvL3Q8,2020-0188,2020-05-21,15:46:19,16:00:38,NA,incomplete,34,shape,1,right,Red_Star_Dots_2.jpg,Purple_Plus_Chess_2.jpg,Blue_Star_Grid_1.jpg,right,712.5899998936802,true,high,false
PHxvL3Q8,3axfspqoztbswwyvx39ztaxp9nrfjw,3f0bg9b9mt07zccismhs4pvna0c7ye,PHxvL3Q8,2020-0188,2020-05-21,15:46:19,16:00:38,NA,incomplete,35,shape,1,right,Purple_Plus_Stripes_1.jpg,Blue_Star_Dots_1.jpg,Red_Plus_Grid_3.jpg,right,709.584999945946,true,high,false
PHxvL3Q8,3axfspqoztbswwyvx39ztaxp9nrfjw,3f0bg9b9mt07zccismhs4pvna0c7ye,PHxvL3Q8,2020-0188,2020-05-21,15:46:19,16:00:38,NA,incomplete,36,shape,1,left,Purple_Circle_Stripes_2.jpg,Green_Circle_Chess_4.jpg,Blue_Star_Grid_2.jpg,left,800.3449999960139,true,high,false
PHxvL3Q8,3axfspqoztbswwyvx39ztaxp9nrfjw,3f0bg9b9mt07zccismhs4pvna0c7ye,PHxvL3Q8,2020-0188,2020-05-21,15:46:19,16:00:38,NA,incomplete,37,shape,1,left,Green_Plus_Dots_3.jpg,Blue_Plus_Grid_4.jpg,Purple_Circle_Chess_3.jpg,left,774.1150000365451,true,high,false
PHxvL3Q8,3axfspqoztbswwyvx39ztaxp9nrfjw,3f0bg9b9mt07zccismhs4pvna0c7ye,PHxvL3Q8,2020-0188,2020-05-21,15:46:19,16:00:38,NA,incomplete,38,shape,1,right,Blue_Circle_Grid_4.jpg,Green_Triangle_Dots_4.jpg,Red_Circle_Chess_1.jpg,left,751.700000022538,false,high,false
PHxvL3Q8,3axfspqoztbswwyvx39ztaxp9nrfjw,3f0bg9b9mt07zccismhs4pvna0c7ye,PHxvL3Q8,2020-0188,2020-05-21,15:46:19,16:00:38,NA,incomplete,39,shape,1,left,Blue_Circle_Dots_3.jpg,Green_Circle_Grid_1.jpg,Red_Plus_Stripes_3.jpg,left,861.6600000532344,true,high,false
PHxvL3Q8,3axfspqoztbswwyvx39ztaxp9nrfjw,3f0bg9b9mt07zccismhs4pvna0c7ye,PHxvL3Q8,2020-0188,2020-05-21,15:46:19,16:00:38,NA,incomplete,40,number,1,right,Purple_Plus_Chess_1.jpg,Blue_Plus_Dots_2.jpg,Green_Circle_Stripes_1.jpg,left,619.0850000130013,false,high,false
PHxvL3Q8,3axfspqoztbswwyvx39ztaxp9nrfjw,3f0bg9b9mt07zccismhs4pvna0c7ye,PHxvL3Q8,2020-0188,2020-05-21,15:46:19,16:00:38,NA,incomplete,41,number,1,left,Red_Plus_Dots_2.jpg,Green_Circle_Chess_2.jpg,Purple_Plus_Stripes_4.jpg,right,814.2900000093505,false,high,false
PHxvL3Q8,3axfspqoztbswwyvx39ztaxp9nrfjw,3f0bg9b9mt07zccismhs4pvna0c7ye,PHxvL3Q8,2020-0188,2020-05-21,15:46:19,16:00:38,NA,incomplete,42,number,1,right,Purple_Circle_Dots_4.jpg,Green_Circle_Grid_1.jpg,Red_Triangle_Stripes_4.jpg,right,800.334999919869,true,high,false
PHxvL3Q8,3axfspqoztbswwyvx39ztaxp9nrfjw,3f0bg9b9mt07zccismhs4pvna0c7ye,PHxvL3Q8,2020-0188,2020-05-21,15:46:19,16:00:38,NA,incomplete,43,number,0,right,Purple_Plus_Chess_4.jpg,Green_Plus_Dots_2.jpg,Blue_Triangle_Stripes_4.jpg,left,924.8199999565259,false,high,false
PHxvL3Q8,3axfspqoztbswwyvx39ztaxp9nrfjw,3f0bg9b9mt07zccismhs4pvna0c7ye,PHxvL3Q8,2020-0188,2020-05-21,15:46:19,16:00:38,NA,incomplete,44,number,1,left,Purple_Triangle_Chess_4.jpg,Red_Star_Stripes_4.jpg,Blue_Triangle_Dots_3.jpg,right,869.2999999038875,false,high,false
PHxvL3Q8,3axfspqoztbswwyvx39ztaxp9nrfjw,3f0bg9b9mt07zccismhs4pvna0c7ye,PHxvL3Q8,2020-0188,2020-05-21,15:46:19,16:00:38,NA,incomplete,45,number,1,right,Blue_Triangle_Chess_3.jpg,Red_Triangle_Stripes_4.jpg,Green_Circle_Grid_3.jpg,right,749.3050000630319,true,high,false
PHxvL3Q8,3axfspqoztbswwyvx39ztaxp9nrfjw,3f0bg9b9mt07zccismhs4pvna0c7ye,PHxvL3Q8,2020-0188,2020-05-21,15:46:19,16:00:38,NA,incomplete,46,number,1,right,Purple_Triangle_Stripes_4.jpg,Red_Triangle_Grid_1.jpg,Green_Circle_Chess_4.jpg,right,788.5750000132248,true,high,false
PHxvL3Q8,3axfspqoztbswwyvx39ztaxp9nrfjw,3f0bg9b9mt07zccismhs4pvna0c7ye,PHxvL3Q8,2020-0188,2020-05-21,15:46:19,16:00:38,NA,incomplete,47,number,1,left,Red_Triangle_Grid_3.jpg,Green_Star_Chess_3.jpg,Purple_Triangle_Stripes_1.jpg,left,706.6699999850243,true,high,false
PHxvL3Q8,3axfspqoztbswwyvx39ztaxp9nrfjw,3f0bg9b9mt07zccismhs4pvna0c7ye,PHxvL3Q8,2020-0188,2020-05-21,15:46:19,16:00:38,NA,incomplete,48,number,1,right,Red_Star_Grid_3.jpg,Blue_Star_Dots_2.jpg,Green_Triangle_Stripes_3.jpg,right,717.0350000960752,true,high,false
PHxvL3Q8,3axfspqoztbswwyvx39ztaxp9nrfjw,3f0bg9b9mt07zccismhs4pvna0c7ye,PHxvL3Q8,2020-0188,2020-05-21,15:46:19,16:00:38,NA,incomplete,49,number,1,left,Purple_Plus_Chess_1.jpg,Blue_Circle_Grid_1.jpg,Red_Plus_Dots_4.jpg,left,661.5750000346452,true,high,false
PHxvL3Q8,3axfspqoztbswwyvx39ztaxp9nrfjw,3f0bg9b9mt07zccismhs4pvna0c7ye,PHxvL3Q8,2020-0188,2020-05-21,15:46:19,16:00:38,NA,incomplete,50,shape,1,left,Red_Plus_Dots_2.jpg,Blue_Plus_Grid_4.jpg,Purple_Circle_Stripes_2.jpg,left,680.3749999962747,true,high,false
PHxvL3Q8,3axfspqoztbswwyvx39ztaxp9nrfjw,3f0bg9b9mt07zccismhs4pvna0c7ye,PHxvL3Q8,2020-0188,2020-05-21,15:46:19,16:00:38,NA,incomplete,51,shape,0,left,Blue_Circle_Grid_3.jpg,Red_Circle_Chess_1.jpg,Green_Star_Dots_3.jpg,right,598.6050000647083,false,high,false
PHxvL3Q8,3axfspqoztbswwyvx39ztaxp9nrfjw,3f0bg9b9mt07zccismhs4pvna0c7ye,PHxvL3Q8,2020-0188,2020-05-21,15:46:19,16:00:38,NA,incomplete,52,shape,0,right,Blue_Plus_Grid_4.jpg,Red_Star_Dots_4.jpg,Green_Plus_Stripes_2.jpg,left,652.2699999623001,false,high,false
PHxvL3Q8,3axfspqoztbswwyvx39ztaxp9nrfjw,3f0bg9b9mt07zccismhs4pvna0c7ye,PHxvL3Q8,2020-0188,2020-05-21,15:46:19,16:00:38,NA,incomplete,53,shape,1,right,Green_Circle_Dots_2.jpg,Red_Star_Grid_2.jpg,Purple_Circle_Chess_3.jpg,right,548.2499999925494,true,high,false
PHxvL3Q8,3axfspqoztbswwyvx39ztaxp9nrfjw,3f0bg9b9mt07zccismhs4pvna0c7ye,PHxvL3Q8,2020-0188,2020-05-21,15:46:19,16:00:38,NA,incomplete,54,shape,1,left,Red_Star_Chess_3.jpg,Blue_Star_Grid_4.jpg,Purple_Triangle_Dots_3.jpg,right,677.2799999453127,false,high,false
PHxvL3Q8,3axfspqoztbswwyvx39ztaxp9nrfjw,3f0bg9b9mt07zccismhs4pvna0c7ye,PHxvL3Q8,2020-0188,2020-05-21,15:46:19,16:00:38,NA,incomplete,55,shape,0,right,Purple_Star_Stripes_4.jpg,Green_Triangle_Grid_4.jpg,Red_Star_Chess_1.jpg,left,609.4150000717491,false,high,false
PHxvL3Q8,3axfspqoztbswwyvx39ztaxp9nrfjw,3f0bg9b9mt07zccismhs4pvna0c7ye,PHxvL3Q8,2020-0188,2020-05-21,15:46:19,16:00:38,NA,incomplete,56,shape,1,right,Purple_Plus_Chess_3.jpg,Red_Triangle_Dots_3.jpg,Green_Plus_Grid_4.jpg,right,842.9400000022724,true,high,false
PHxvL3Q8,3axfspqoztbswwyvx39ztaxp9nrfjw,3f0bg9b9mt07zccismhs4pvna0c7ye,PHxvL3Q8,2020-0188,2020-05-21,15:46:19,16:00:38,NA,incomplete,57,shape,1,right,Green_Triangle_Chess_1.jpg,Red_Star_Dots_1.jpg,Purple_Triangle_Stripes_2.jpg,right,547.4199999589473,true,high,false
PHxvL3Q8,3axfspqoztbswwyvx39ztaxp9nrfjw,3f0bg9b9mt07zccismhs4pvna0c7ye,PHxvL3Q8,2020-0188,2020-05-21,15:46:19,16:00:38,NA,incomplete,58,shape,1,left,Green_Plus_Grid_3.jpg,Purple_Plus_Stripes_4.jpg,Red_Triangle_Chess_3.jpg,left,761.4199999952689,true,high,false
PHxvL3Q8,3axfspqoztbswwyvx39ztaxp9nrfjw,3f0bg9b9mt07zccismhs4pvna0c7ye,PHxvL3Q8,2020-0188,2020-05-21,15:46:19,16:00:38,NA,incomplete,59,shape,1,right,Green_Star_Stripes_3.jpg,Red_Plus_Dots_3.jpg,Purple_Star_Chess_4.jpg,right,677.0000000251457,true,high,false
PHxvL3Q8,3axfspqoztbswwyvx39ztaxp9nrfjw,3f0bg9b9mt07zccismhs4pvna0c7ye,PHxvL3Q8,2020-0188,2020-05-21,15:46:19,16:00:38,NA,incomplete,60,number,0,right,Purple_Circle_Grid_4.jpg,Green_Circle_Chess_3.jpg,Red_Star_Stripes_4.jpg,left,535.5550000676885,false,high,false
PHxvL3Q8,3axfspqoztbswwyvx39ztaxp9nrfjw,3f0bg9b9mt07zccismhs4pvna0c7ye,PHxvL3Q8,2020-0188,2020-05-21,15:46:19,16:00:38,NA,incomplete,61,number,1,right,Red_Circle_Dots_4.jpg,Purple_Circle_Grid_1.jpg,Blue_Plus_Stripes_4.jpg,right,557.9900000011548,true,high,false
PHxvL3Q8,3axfspqoztbswwyvx39ztaxp9nrfjw,3f0bg9b9mt07zccismhs4pvna0c7ye,PHxvL3Q8,2020-0188,2020-05-21,15:46:19,16:00:38,NA,incomplete,62,number,0,right,Purple_Triangle_Chess_4.jpg,Red_Triangle_Stripes_3.jpg,Blue_Circle_Dots_4.jpg,right,787.4349999474362,true,high,false
PHxvL3Q8,3axfspqoztbswwyvx39ztaxp9nrfjw,3f0bg9b9mt07zccismhs4pvna0c7ye,PHxvL3Q8,2020-0188,2020-05-21,15:46:19,16:00:38,NA,incomplete,63,number,0,left,Blue_Circle_Dots_1.jpg,Green_Triangle_Grid_1.jpg,Red_Circle_Stripes_2.jpg,right,539.0549999428913,false,high,false
PHxvL3Q8,3axfspqoztbswwyvx39ztaxp9nrfjw,3f0bg9b9mt07zccismhs4pvna0c7ye,PHxvL3Q8,2020-0188,2020-05-21,15:46:19,16:00:38,NA,incomplete,64,number,0,right,Purple_Plus_Stripes_1.jpg,Red_Plus_Grid_2.jpg,Blue_Circle_Chess_1.jpg,left,637.1550000039861,false,high,false
PHxvL3Q8,3axfspqoztbswwyvx39ztaxp9nrfjw,3f0bg9b9mt07zccismhs4pvna0c7ye,PHxvL3Q8,2020-0188,2020-05-21,15:46:19,16:00:38,NA,incomplete,65,number,1,right,Blue_Plus_Chess_4.jpg,Green_Plus_Stripes_2.jpg,Purple_Triangle_Dots_4.jpg,right,846.3950000004843,true,high,false
PHxvL3Q8,3axfspqoztbswwyvx39ztaxp9nrfjw,3f0bg9b9mt07zccismhs4pvna0c7ye,PHxvL3Q8,2020-0188,2020-05-21,15:46:19,16:00:38,NA,incomplete,66,number,1,left,Blue_Circle_Stripes_1.jpg,Purple_Plus_Grid_1.jpg,Red_Circle_Chess_3.jpg,right,624.2450000718236,false,high,false
PHxvL3Q8,3axfspqoztbswwyvx39ztaxp9nrfjw,3f0bg9b9mt07zccismhs4pvna0c7ye,PHxvL3Q8,2020-0188,2020-05-21,15:46:19,16:00:38,NA,incomplete,67,number,0,right,Green_Circle_Chess_2.jpg,Purple_Circle_Stripes_4.jpg,Red_Star_Dots_2.jpg,left,657.7500000130385,false,high,false
PHxvL3Q8,3axfspqoztbswwyvx39ztaxp9nrfjw,3f0bg9b9mt07zccismhs4pvna0c7ye,PHxvL3Q8,2020-0188,2020-05-21,15:46:19,16:00:38,NA,incomplete,68,number,1,left,Green_Plus_Stripes_4.jpg,Red_Star_Grid_4.jpg,Purple_Plus_Dots_2.jpg,right,590.8049999270588,false,high,false
PHxvL3Q8,3axfspqoztbswwyvx39ztaxp9nrfjw,3f0bg9b9mt07zccismhs4pvna0c7ye,PHxvL3Q8,2020-0188,2020-05-21,15:46:19,16:00:38,NA,incomplete,69,number,1,left,Blue_Plus_Stripes_3.jpg,Green_Triangle_Dots_3.jpg,Red_Plus_Chess_1.jpg,left,444.60499996785074,true,high,false
PHxvL3Q8,3axfspqoztbswwyvx39ztaxp9nrfjw,3f0bg9b9mt07zccismhs4pvna0c7ye,PHxvL3Q8,2020-0188,2020-05-21,15:46:19,16:00:38,NA,incomplete,70,shape,0,left,Blue_Plus_Chess_4.jpg,Purple_Plus_Grid_1.jpg,Red_Circle_Dots_4.jpg,right,579.0000000270084,false,high,false
PHxvL3Q8,3axfspqoztbswwyvx39ztaxp9nrfjw,3f0bg9b9mt07zccismhs4pvna0c7ye,PHxvL3Q8,2020-0188,2020-05-21,15:46:19,16:00:38,NA,incomplete,71,shape,1,left,Green_Triangle_Stripes_1.jpg,Purple_Triangle_Dots_4.jpg,Blue_Circle_Grid_1.jpg,left,518.9949999330565,true,high,false
PHxvL3Q8,3axfspqoztbswwyvx39ztaxp9nrfjw,3f0bg9b9mt07zccismhs4pvna0c7ye,PHxvL3Q8,2020-0188,2020-05-21,15:46:19,16:00:38,NA,incomplete,72,shape,1,left,Blue_Circle_Dots_3.jpg,Green_Circle_Chess_1.jpg,Red_Star_Grid_3.jpg,right,520.4699999885634,false,high,false
PHxvL3Q8,3axfspqoztbswwyvx39ztaxp9nrfjw,3f0bg9b9mt07zccismhs4pvna0c7ye,PHxvL3Q8,2020-0188,2020-05-21,15:46:19,16:00:38,NA,incomplete,73,shape,0,left,Blue_Star_Dots_4.jpg,Purple_Star_Grid_2.jpg,Green_Circle_Stripes_4.jpg,left,781.3750000204891,true,high,false
PHxvL3Q8,3axfspqoztbswwyvx39ztaxp9nrfjw,3f0bg9b9mt07zccismhs4pvna0c7ye,PHxvL3Q8,2020-0188,2020-05-21,15:46:19,16:00:38,NA,incomplete,74,shape,1,right,Red_Star_Chess_1.jpg,Purple_Plus_Dots_1.jpg,Blue_Star_Grid_4.jpg,right,585.9149999450892,true,high,false
PHxvL3Q8,3axfspqoztbswwyvx39ztaxp9nrfjw,3f0bg9b9mt07zccismhs4pvna0c7ye,PHxvL3Q8,2020-0188,2020-05-21,15:46:19,16:00:38,NA,incomplete,75,shape,1,left,Blue_Star_Stripes_2.jpg,Red_Star_Dots_1.jpg,Purple_Triangle_Chess_2.jpg,left,687.1599999722093,true,high,false
PHxvL3Q8,3axfspqoztbswwyvx39ztaxp9nrfjw,3f0bg9b9mt07zccismhs4pvna0c7ye,PHxvL3Q8,2020-0188,2020-05-21,15:46:19,16:00:38,NA,incomplete,76,shape,1,left,Blue_Star_Grid_3.jpg,Purple_Star_Dots_4.jpg,Green_Plus_Chess_3.jpg,left,608.1400000257418,true,high,false
PHxvL3Q8,3axfspqoztbswwyvx39ztaxp9nrfjw,3f0bg9b9mt07zccismhs4pvna0c7ye,PHxvL3Q8,2020-0188,2020-05-21,15:46:19,16:00:38,NA,incomplete,77,shape,1,left,Green_Triangle_Stripes_3.jpg,Blue_Triangle_Chess_2.jpg,Purple_Circle_Dots_3.jpg,left,854.9049999564886,true,high,false
PHxvL3Q8,3axfspqoztbswwyvx39ztaxp9nrfjw,3f0bg9b9mt07zccismhs4pvna0c7ye,PHxvL3Q8,2020-0188,2020-05-21,15:46:19,16:00:38,NA,incomplete,78,shape,1,left,Blue_Star_Chess_2.jpg,Red_Star_Stripes_3.jpg,Purple_Plus_Dots_2.jpg,left,651.28500002902,true,high,false
PHxvL3Q8,3axfspqoztbswwyvx39ztaxp9nrfjw,3f0bg9b9mt07zccismhs4pvna0c7ye,PHxvL3Q8,2020-0188,2020-05-21,15:46:19,16:00:38,NA,incomplete,79,shape,1,left,Purple_Star_Chess_4.jpg,Blue_Star_Dots_1.jpg,Green_Circle_Grid_4.jpg,right,730.1450000377372,false,high,false
PHxvL3Q8,3axfspqoztbswwyvx39ztaxp9nrfjw,3f0bg9b9mt07zccismhs4pvna0c7ye,PHxvL3Q8,2020-0188,2020-05-21,15:46:19,16:00:38,NA,incomplete,80,number,1,left,Green_Star_Dots_4.jpg,Purple_Circle_Grid_4.jpg,Blue_Star_Chess_2.jpg,left,712.8100000554696,true,high,false
PHxvL3Q8,3axfspqoztbswwyvx39ztaxp9nrfjw,3f0bg9b9mt07zccismhs4pvna0c7ye,PHxvL3Q8,2020-0188,2020-05-21,15:46:19,16:00:38,NA,incomplete,81,number,1,right,Red_Plus_Grid_1.jpg,Green_Plus_Stripes_3.jpg,Purple_Triangle_Dots_1.jpg,left,813.469999935478,false,high,false
PHxvL3Q8,3axfspqoztbswwyvx39ztaxp9nrfjw,3f0bg9b9mt07zccismhs4pvna0c7ye,PHxvL3Q8,2020-0188,2020-05-21,15:46:19,16:00:38,NA,incomplete,82,number,1,right,Green_Star_Grid_3.jpg,Purple_Star_Stripes_2.jpg,Blue_Circle_Chess_3.jpg,left,679.64500002563,false,high,false
PHxvL3Q8,3axfspqoztbswwyvx39ztaxp9nrfjw,3f0bg9b9mt07zccismhs4pvna0c7ye,PHxvL3Q8,2020-0188,2020-05-21,15:46:19,16:00:38,NA,incomplete,83,number,0,right,Red_Plus_Chess_3.jpg,Green_Plus_Dots_1.jpg,Blue_Star_Grid_3.jpg,left,707.3899999959394,false,high,false
PHxvL3Q8,3axfspqoztbswwyvx39ztaxp9nrfjw,3f0bg9b9mt07zccismhs4pvna0c7ye,PHxvL3Q8,2020-0188,2020-05-21,15:46:19,16:00:38,NA,incomplete,84,number,1,left,Blue_Star_Grid_4.jpg,Red_Circle_Chess_4.jpg,Purple_Star_Dots_2.jpg,right,650.9749999968335,false,high,false
PHxvL3Q8,3axfspqoztbswwyvx39ztaxp9nrfjw,3f0bg9b9mt07zccismhs4pvna0c7ye,PHxvL3Q8,2020-0188,2020-05-21,15:46:19,16:00:38,NA,incomplete,85,number,1,left,Blue_Plus_Grid_2.jpg,Green_Circle_Chess_2.jpg,Red_Plus_Dots_3.jpg,right,681.1150000430644,false,high,false
PHxvL3Q8,3axfspqoztbswwyvx39ztaxp9nrfjw,3f0bg9b9mt07zccismhs4pvna0c7ye,PHxvL3Q8,2020-0188,2020-05-21,15:46:19,16:00:38,NA,incomplete,86,number,1,right,Red_Triangle_Stripes_3.jpg,Blue_Triangle_Chess_4.jpg,Green_Circle_Dots_3.jpg,right,817.3249999526888,true,high,false
PHxvL3Q8,3axfspqoztbswwyvx39ztaxp9nrfjw,3f0bg9b9mt07zccismhs4pvna0c7ye,PHxvL3Q8,2020-0188,2020-05-21,15:46:19,16:00:38,NA,incomplete,87,number,1,left,Purple_Star_Dots_2.jpg,Red_Circle_Stripes_2.jpg,Green_Star_Grid_4.jpg,left,804.7800000058487,true,high,false
PHxvL3Q8,3axfspqoztbswwyvx39ztaxp9nrfjw,3f0bg9b9mt07zccismhs4pvna0c7ye,PHxvL3Q8,2020-0188,2020-05-21,15:46:19,16:00:38,NA,incomplete,88,number,1,left,Purple_Triangle_Stripes_3.jpg,Green_Star_Dots_3.jpg,Red_Triangle_Grid_1.jpg,right,724.2550000082701,false,high,false
PHxvL3Q8,3axfspqoztbswwyvx39ztaxp9nrfjw,3f0bg9b9mt07zccismhs4pvna0c7ye,PHxvL3Q8,2020-0188,2020-05-21,15:46:19,16:00:38,NA,incomplete,89,number,0,left,Blue_Triangle_Chess_3.jpg,Green_Plus_Dots_3.jpg,Red_Triangle_Grid_2.jpg,left,777.570000034757,true,high,false
PHxvL3Q8,3axfspqoztbswwyvx39ztaxp9nrfjw,3f0bg9b9mt07zccismhs4pvna0c7ye,PHxvL3Q8,2020-0188,2020-05-21,15:46:19,16:00:38,NA,incomplete,90,shape,1,left,Purple_Star_Chess_4.jpg,Green_Star_Grid_2.jpg,Blue_Circle_Stripes_4.jpg,left,752.0149999763817,true,high,false
PHxvL3Q8,3axfspqoztbswwyvx39ztaxp9nrfjw,3f0bg9b9mt07zccismhs4pvna0c7ye,PHxvL3Q8,2020-0188,2020-05-21,15:46:19,16:00:38,NA,incomplete,91,shape,1,left,Green_Circle_Chess_2.jpg,Red_Circle_Grid_4.jpg,Blue_Triangle_Dots_2.jpg,left,597.1650000428781,true,high,false
PHxvL3Q8,3axfspqoztbswwyvx39ztaxp9nrfjw,3f0bg9b9mt07zccismhs4pvna0c7ye,PHxvL3Q8,2020-0188,2020-05-21,15:46:19,16:00:38,NA,incomplete,92,shape,1,right,Red_Triangle_Grid_1.jpg,Green_Star_Stripes_1.jpg,Purple_Triangle_Dots_4.jpg,right,597.9900000384077,true,high,false
PHxvL3Q8,3axfspqoztbswwyvx39ztaxp9nrfjw,3f0bg9b9mt07zccismhs4pvna0c7ye,PHxvL3Q8,2020-0188,2020-05-21,15:46:19,16:00:38,NA,incomplete,93,shape,1,left,Purple_Circle_Stripes_3.jpg,Blue_Circle_Chess_2.jpg,Green_Plus_Grid_3.jpg,left,575.0499999849126,true,high,false
PHxvL3Q8,3axfspqoztbswwyvx39ztaxp9nrfjw,3f0bg9b9mt07zccismhs4pvna0c7ye,PHxvL3Q8,2020-0188,2020-05-21,15:46:19,16:00:38,NA,incomplete,94,shape,1,right,Green_Circle_Dots_2.jpg,Red_Star_Chess_2.jpg,Purple_Circle_Stripes_4.jpg,left,596.8049999792129,false,high,false
PHxvL3Q8,3axfspqoztbswwyvx39ztaxp9nrfjw,3f0bg9b9mt07zccismhs4pvna0c7ye,PHxvL3Q8,2020-0188,2020-05-21,15:46:19,16:00:38,NA,incomplete,95,shape,1,left,Red_Triangle_Grid_4.jpg,Purple_Triangle_Chess_1.jpg,Blue_Circle_Dots_4.jpg,left,678.6950000096112,true,high,false
PHxvL3Q8,3axfspqoztbswwyvx39ztaxp9nrfjw,3f0bg9b9mt07zccismhs4pvna0c7ye,PHxvL3Q8,2020-0188,2020-05-21,15:46:19,16:00:38,NA,incomplete,96,shape,1,left,Green_Triangle_Grid_1.jpg,Blue_Triangle_Stripes_3.jpg,Red_Star_Dots_1.jpg,right,704.1250000474975,false,high,false
PHxvL3Q8,3axfspqoztbswwyvx39ztaxp9nrfjw,3f0bg9b9mt07zccismhs4pvna0c7ye,PHxvL3Q8,2020-0188,2020-05-21,15:46:19,16:00:38,NA,incomplete,97,shape,1,right,Blue_Circle_Chess_1.jpg,Purple_Star_Grid_1.jpg,Green_Circle_Dots_2.jpg,right,670.7099999766797,true,high,false
PHxvL3Q8,3axfspqoztbswwyvx39ztaxp9nrfjw,3f0bg9b9mt07zccismhs4pvna0c7ye,PHxvL3Q8,2020-0188,2020-05-21,15:46:19,16:00:38,NA,incomplete,98,shape,0,left,Purple_Circle_Stripes_2.jpg,Blue_Circle_Chess_1.jpg,Green_Plus_Grid_2.jpg,left,617.2700000461191,true,high,false
PHxvL3Q8,3axfspqoztbswwyvx39ztaxp9nrfjw,3f0bg9b9mt07zccismhs4pvna0c7ye,PHxvL3Q8,2020-0188,2020-05-21,15:46:19,16:00:38,NA,incomplete,99,shape,0,left,Blue_Triangle_Stripes_4.jpg,Purple_Triangle_Grid_2.jpg,Red_Circle_Dots_4.jpg,right,667.0800000429153,false,high,false
PHxvL3Q8,3axfspqoztbswwyvx39ztaxp9nrfjw,3f0bg9b9mt07zccismhs4pvna0c7ye,PHxvL3Q8,2020-0188,2020-05-21,15:46:19,16:00:38,NA,incomplete,100,number,1,right,Blue_Circle_Dots_1.jpg,Green_Circle_Chess_2.jpg,Red_Triangle_Grid_1.jpg,right,785.6449999380857,true,high,false
PHxvL3Q8,3axfspqoztbswwyvx39ztaxp9nrfjw,3f0bg9b9mt07zccismhs4pvna0c7ye,PHxvL3Q8,2020-0188,2020-05-21,15:46:19,16:00:38,NA,incomplete,101,number,1,right,Purple_Star_Stripes_1.jpg,Red_Star_Chess_3.jpg,Green_Triangle_Dots_1.jpg,right,588.4200000436977,true,high,false
PHxvL3Q8,3axfspqoztbswwyvx39ztaxp9nrfjw,3f0bg9b9mt07zccismhs4pvna0c7ye,PHxvL3Q8,2020-0188,2020-05-21,15:46:19,16:00:38,NA,incomplete,102,number,1,right,Green_Star_Grid_4.jpg,Blue_Star_Chess_2.jpg,Purple_Circle_Stripes_4.jpg,right,676.465000025928,true,high,false
PHxvL3Q8,3axfspqoztbswwyvx39ztaxp9nrfjw,3f0bg9b9mt07zccismhs4pvna0c7ye,PHxvL3Q8,2020-0188,2020-05-21,15:46:19,16:00:38,NA,incomplete,103,number,1,right,Purple_Plus_Stripes_3.jpg,Red_Plus_Grid_1.jpg,Green_Triangle_Chess_3.jpg,right,839.6050001028925,true,high,false
PHxvL3Q8,3axfspqoztbswwyvx39ztaxp9nrfjw,3f0bg9b9mt07zccismhs4pvna0c7ye,PHxvL3Q8,2020-0188,2020-05-21,15:46:19,16:00:38,NA,incomplete,104,number,1,left,Blue_Triangle_Chess_2.jpg,Purple_Star_Grid_2.jpg,Red_Triangle_Stripes_4.jpg,right,628.8349999813363,false,high,false
PHxvL3Q8,3axfspqoztbswwyvx39ztaxp9nrfjw,3f0bg9b9mt07zccismhs4pvna0c7ye,PHxvL3Q8,2020-0188,2020-05-21,15:46:19,16:00:38,NA,incomplete,105,number,1,left,Red_Star_Grid_1.jpg,Purple_Circle_Chess_1.jpg,Blue_Star_Stripes_4.jpg,right,606.0300000244752,false,high,false
PHxvL3Q8,3axfspqoztbswwyvx39ztaxp9nrfjw,3f0bg9b9mt07zccismhs4pvna0c7ye,PHxvL3Q8,2020-0188,2020-05-21,15:46:19,16:00:38,NA,incomplete,106,number,1,right,Red_Star_Chess_4.jpg,Green_Star_Stripes_2.jpg,Blue_Circle_Dots_4.jpg,right,500.2249999670312,true,high,false
PHxvL3Q8,3axfspqoztbswwyvx39ztaxp9nrfjw,3f0bg9b9mt07zccismhs4pvna0c7ye,PHxvL3Q8,2020-0188,2020-05-21,15:46:19,16:00:38,NA,incomplete,107,number,0,left,Blue_Plus_Grid_2.jpg,Red_Circle_Dots_2.jpg,Green_Plus_Chess_1.jpg,left,755.974999978207,true,high,false
PHxvL3Q8,3axfspqoztbswwyvx39ztaxp9nrfjw,3f0bg9b9mt07zccismhs4pvna0c7ye,PHxvL3Q8,2020-0188,2020-05-21,15:46:19,16:00:38,NA,incomplete,108,number,1,right,Red_Plus_Grid_4.jpg,Purple_Plus_Dots_2.jpg,Green_Star_Stripes_4.jpg,left,621.2300000479445,false,high,false
PHxvL3Q8,3axfspqoztbswwyvx39ztaxp9nrfjw,3f0bg9b9mt07zccismhs4pvna0c7ye,PHxvL3Q8,2020-0188,2020-05-21,15:46:19,16:00:38,NA,incomplete,109,number,1,left,Red_Triangle_Stripes_4.jpg,Purple_Circle_Chess_4.jpg,Blue_Triangle_Grid_3.jpg,right,568.5300000477582,false,high,false
PHxvL3Q8,3axfspqoztbswwyvx39ztaxp9nrfjw,3f0bg9b9mt07zccismhs4pvna0c7ye,PHxvL3Q8,2020-0188,2020-05-21,15:46:19,16:00:38,NA,incomplete,110,shape,1,right,Purple_Circle_Grid_3.jpg,Green_Triangle_Chess_3.jpg,Red_Circle_Stripes_2.jpg,left,689.6600000327453,false,high,false
PHxvL3Q8,3axfspqoztbswwyvx39ztaxp9nrfjw,3f0bg9b9mt07zccismhs4pvna0c7ye,PHxvL3Q8,2020-0188,2020-05-21,15:46:19,16:00:38,NA,incomplete,111,shape,1,right,Green_Plus_Grid_2.jpg,Red_Triangle_Stripes_2.jpg,Purple_Plus_Chess_3.jpg,right,591.4200000697747,true,high,false
PHxvL3Q8,3axfspqoztbswwyvx39ztaxp9nrfjw,3f0bg9b9mt07zccismhs4pvna0c7ye,PHxvL3Q8,2020-0188,2020-05-21,15:46:19,16:00:38,NA,incomplete,112,shape,1,right,Purple_Star_Stripes_1.jpg,Blue_Triangle_Chess_1.jpg,Green_Star_Grid_4.jpg,right,793.3049999410287,true,high,false
PHxvL3Q8,3axfspqoztbswwyvx39ztaxp9nrfjw,3f0bg9b9mt07zccismhs4pvna0c7ye,PHxvL3Q8,2020-0188,2020-05-21,15:46:19,16:00:38,NA,incomplete,113,shape,1,left,Green_Triangle_Stripes_1.jpg,Red_Triangle_Dots_4.jpg,Blue_Star_Grid_1.jpg,left,651.4749999623746,true,high,false
PHxvL3Q8,3axfspqoztbswwyvx39ztaxp9nrfjw,3f0bg9b9mt07zccismhs4pvna0c7ye,PHxvL3Q8,2020-0188,2020-05-21,15:46:19,16:00:38,NA,incomplete,114,shape,1,right,Red_Triangle_Dots_3.jpg,Green_Circle_Chess_3.jpg,Blue_Triangle_Stripes_2.jpg,right,672.7400000672787,true,high,false
PHxvL3Q8,3axfspqoztbswwyvx39ztaxp9nrfjw,3f0bg9b9mt07zccismhs4pvna0c7ye,PHxvL3Q8,2020-0188,2020-05-21,15:46:19,16:00:38,NA,incomplete,115,shape,1,right,Green_Circle_Chess_2.jpg,Blue_Triangle_Dots_2.jpg,Purple_Circle_Grid_4.jpg,right,544.0149999922141,true,high,false
PHxvL3Q8,3axfspqoztbswwyvx39ztaxp9nrfjw,3f0bg9b9mt07zccismhs4pvna0c7ye,PHxvL3Q8,2020-0188,2020-05-21,15:46:19,16:00:38,NA,incomplete,116,shape,1,left,Blue_Star_Chess_4.jpg,Green_Star_Grid_3.jpg,Purple_Circle_Stripes_4.jpg,left,685.9699999913573,true,high,false
PHxvL3Q8,3axfspqoztbswwyvx39ztaxp9nrfjw,3f0bg9b9mt07zccismhs4pvna0c7ye,PHxvL3Q8,2020-0188,2020-05-21,15:46:19,16:00:38,NA,incomplete,117,shape,1,right,Purple_Star_Dots_1.jpg,Green_Plus_Chess_1.jpg,Blue_Star_Stripes_2.jpg,right,571.8399999896064,true,high,false
PHxvL3Q8,3axfspqoztbswwyvx39ztaxp9nrfjw,3f0bg9b9mt07zccismhs4pvna0c7ye,PHxvL3Q8,2020-0188,2020-05-21,15:46:19,16:00:38,NA,incomplete,118,shape,1,right,Purple_Plus_Chess_2.jpg,Red_Circle_Stripes_2.jpg,Blue_Plus_Dots_3.jpg,right,662.2199999401346,true,high,false
PHxvL3Q8,3axfspqoztbswwyvx39ztaxp9nrfjw,3f0bg9b9mt07zccismhs4pvna0c7ye,PHxvL3Q8,2020-0188,2020-05-21,15:46:19,16:00:38,NA,incomplete,119,shape,1,left,Purple_Plus_Chess_3.jpg,Green_Plus_Dots_2.jpg,Red_Star_Grid_3.jpg,left,727.1250000922009,true,high,false
PHxvL3Q8,3axfspqoztbswwyvx39ztaxp9nrfjw,3f0bg9b9mt07zccismhs4pvna0c7ye,PHxvL3Q8,2020-0188,2020-05-21,15:46:19,16:00:38,NA,incomplete,120,filling,1,left,Purple_Star_Dots_2.jpg,Blue_Plus_Dots_1.jpg,Purple_Triangle_Grid_3.jpg,NA,NA,NA,high,false
PHxvL3Q8,3axfspqoztbswwyvx39ztaxp9nrfjw,3f0bg9b9mt07zccismhs4pvna0c7ye,PHxvL3Q8,2020-0188,2020-05-21,15:46:19,16:00:38,NA,incomplete,121,filling,1,right,Green_Circle_Dots_4.jpg,Green_Plus_Grid_1.jpg,Purple_Triangle_Dots_2.jpg,right,934.60999999661,true,high,false
PHxvL3Q8,3axfspqoztbswwyvx39ztaxp9nrfjw,3f0bg9b9mt07zccismhs4pvna0c7ye,PHxvL3Q8,2020-0188,2020-05-21,15:46:19,16:00:38,NA,incomplete,122,filling,0,right,Purple_Plus_Dots_1.jpg,Purple_Triangle_Stripes_4.jpg,Green_Star_Dots_3.jpg,right,797.0750000094995,true,high,false
PHxvL3Q8,3axfspqoztbswwyvx39ztaxp9nrfjw,3f0bg9b9mt07zccismhs4pvna0c7ye,PHxvL3Q8,2020-0188,2020-05-21,15:46:19,16:00:38,NA,incomplete,123,filling,1,left,Blue_Circle_Stripes_1.jpg,Purple_Star_Stripes_2.jpg,Blue_Plus_Grid_3.jpg,right,927.1900000749156,false,high,false
PHxvL3Q8,3axfspqoztbswwyvx39ztaxp9nrfjw,3f0bg9b9mt07zccismhs4pvna0c7ye,PHxvL3Q8,2020-0188,2020-05-21,15:46:19,16:00:38,NA,incomplete,124,filling,1,right,Blue_Triangle_Chess_2.jpg,Blue_Plus_Grid_4.jpg,Purple_Star_Chess_1.jpg,left,731.2349999556318,false,high,false
PHxvL3Q8,3axfspqoztbswwyvx39ztaxp9nrfjw,3f0bg9b9mt07zccismhs4pvna0c7ye,PHxvL3Q8,2020-0188,2020-05-21,15:46:19,16:00:38,NA,incomplete,125,filling,0,right,Green_Star_Dots_2.jpg,Green_Triangle_Grid_3.jpg,Blue_Plus_Dots_1.jpg,right,940.1749999960884,true,high,false
PHxvL3Q8,3axfspqoztbswwyvx39ztaxp9nrfjw,3f0bg9b9mt07zccismhs4pvna0c7ye,PHxvL3Q8,2020-0188,2020-05-21,15:46:19,16:00:38,NA,incomplete,126,filling,1,right,Purple_Circle_Dots_3.jpg,Purple_Plus_Chess_4.jpg,Blue_Triangle_Dots_2.jpg,right,784.7499999916181,true,high,false
PHxvL3Q8,3axfspqoztbswwyvx39ztaxp9nrfjw,3f0bg9b9mt07zccismhs4pvna0c7ye,PHxvL3Q8,2020-0188,2020-05-21,15:46:19,16:00:38,NA,incomplete,127,filling,1,right,Purple_Star_Grid_2.jpg,Purple_Plus_Chess_1.jpg,Red_Triangle_Grid_3.jpg,left,964.68500001356,false,high,false
PHxvL3Q8,3axfspqoztbswwyvx39ztaxp9nrfjw,3f0bg9b9mt07zccismhs4pvna0c7ye,PHxvL3Q8,2020-0188,2020-05-21,15:46:19,16:00:38,NA,incomplete,128,filling,1,left,Red_Triangle_Dots_4.jpg,Green_Plus_Dots_1.jpg,Red_Circle_Chess_2.jpg,right,554.7899999655783,false,high,false
PHxvL3Q8,3axfspqoztbswwyvx39ztaxp9nrfjw,3f0bg9b9mt07zccismhs4pvna0c7ye,PHxvL3Q8,2020-0188,2020-05-21,15:46:19,16:00:38,NA,incomplete,129,filling,1,right,Blue_Star_Stripes_1.jpg,Blue_Plus_Dots_4.jpg,Red_Circle_Stripes_3.jpg,right,873.9800000330433,true,high,false
PHxvL3Q8,3axfspqoztbswwyvx39ztaxp9nrfjw,3f0bg9b9mt07zccismhs4pvna0c7ye,PHxvL3Q8,2020-0188,2020-05-21,15:46:19,16:00:38,NA,incomplete,130,filling,1,left,Blue_Circle_Chess_2.jpg,Purple_Triangle_Chess_1.jpg,Blue_Plus_Stripes_4.jpg,left,857.9850000096485,true,high,false
PHxvL3Q8,3axfspqoztbswwyvx39ztaxp9nrfjw,3f0bg9b9mt07zccismhs4pvna0c7ye,PHxvL3Q8,2020-0188,2020-05-21,15:46:19,16:00:38,NA,incomplete,131,filling,0,left,Red_Triangle_Stripes_2.jpg,Green_Circle_Stripes_3.jpg,Red_Plus_Grid_1.jpg,right,486.60499998368323,false,high,false
PHxvL3Q8,3axfspqoztbswwyvx39ztaxp9nrfjw,3f0bg9b9mt07zccismhs4pvna0c7ye,PHxvL3Q8,2020-0188,2020-05-21,15:46:19,16:00:38,NA,incomplete,132,filling,1,right,Green_Plus_Grid_1.jpg,Green_Star_Dots_4.jpg,Blue_Circle_Grid_3.jpg,right,733.2549999700859,true,high,false
PHxvL3Q8,3axfspqoztbswwyvx39ztaxp9nrfjw,3f0bg9b9mt07zccismhs4pvna0c7ye,PHxvL3Q8,2020-0188,2020-05-21,15:46:19,16:00:38,NA,incomplete,133,filling,1,left,Purple_Star_Stripes_4.jpg,Green_Plus_Stripes_2.jpg,Purple_Triangle_Dots_3.jpg,right,817.8250000346452,false,high,false
PHxvL3Q8,3axfspqoztbswwyvx39ztaxp9nrfjw,3f0bg9b9mt07zccismhs4pvna0c7ye,PHxvL3Q8,2020-0188,2020-05-21,15:46:19,16:00:38,NA,incomplete,134,filling,1,right,Green_Plus_Grid_2.jpg,Green_Circle_Dots_4.jpg,Purple_Triangle_Grid_3.jpg,right,789.2050000373274,true,high,false
PHxvL3Q8,3axfspqoztbswwyvx39ztaxp9nrfjw,3f0bg9b9mt07zccismhs4pvna0c7ye,PHxvL3Q8,2020-0188,2020-05-21,15:46:19,16:00:38,NA,incomplete,135,filling,1,right,Purple_Plus_Chess_2.jpg,Purple_Triangle_Grid_3.jpg,Red_Circle_Chess_4.jpg,right,872.8000000119209,true,high,false
PHxvL3Q8,3axfspqoztbswwyvx39ztaxp9nrfjw,3f0bg9b9mt07zccismhs4pvna0c7ye,PHxvL3Q8,2020-0188,2020-05-21,15:46:19,16:00:38,NA,incomplete,136,filling,1,left,Blue_Star_Chess_3.jpg,Red_Triangle_Chess_4.jpg,Blue_Circle_Stripes_2.jpg,right,514.8499999195337,false,high,false
PHxvL3Q8,3axfspqoztbswwyvx39ztaxp9nrfjw,3f0bg9b9mt07zccismhs4pvna0c7ye,PHxvL3Q8,2020-0188,2020-05-21,15:46:19,16:00:38,NA,incomplete,137,filling,1,right,Red_Plus_Dots_3.jpg,Red_Circle_Stripes_1.jpg,Blue_Star_Dots_2.jpg,right,950.4749999614432,true,high,false
PHxvL3Q8,3axfspqoztbswwyvx39ztaxp9nrfjw,3f0bg9b9mt07zccismhs4pvna0c7ye,PHxvL3Q8,2020-0188,2020-05-21,15:46:19,16:00:38,NA,incomplete,138,filling,1,left,Purple_Circle_Dots_4.jpg,Green_Star_Dots_2.jpg,Purple_Triangle_Stripes_3.jpg,right,659.5499999821186,false,high,false
PHxvL3Q8,3axfspqoztbswwyvx39ztaxp9nrfjw,3f0bg9b9mt07zccismhs4pvna0c7ye,PHxvL3Q8,2020-0188,2020-05-21,15:46:19,16:00:38,NA,incomplete,139,filling,0,right,Purple_Plus_Dots_4.jpg,Purple_Star_Grid_1.jpg,Green_Triangle_Dots_2.jpg,right,857.1699999738485,true,high,false
PHxvL3Q8,3axfspqoztbswwyvx39ztaxp9nrfjw,3f0bg9b9mt07zccismhs4pvna0c7ye,PHxvL3Q8,2020-0188,2020-05-21,15:46:19,16:00:38,NA,incomplete,140,color,1,right,Blue_Circle_Chess_2.jpg,Green_Plus_Chess_3.jpg,Blue_Triangle_Stripes_4.jpg,left,1119.5749999023974,false,high,false
PHxvL3Q8,3axfspqoztbswwyvx39ztaxp9nrfjw,3f0bg9b9mt07zccismhs4pvna0c7ye,PHxvL3Q8,2020-0188,2020-05-21,15:46:19,16:00:38,NA,incomplete,141,color,1,left,Blue_Star_Chess_4.jpg,Blue_Triangle_Stripes_1.jpg,Green_Plus_Chess_2.jpg,left,643.0200000759214,true,high,false
PHxvL3Q8,3axfspqoztbswwyvx39ztaxp9nrfjw,3f0bg9b9mt07zccismhs4pvna0c7ye,PHxvL3Q8,2020-0188,2020-05-21,15:46:19,16:00:38,NA,incomplete,142,color,1,left,Blue_Triangle_Dots_1.jpg,Blue_Star_Grid_4.jpg,Red_Plus_Dots_3.jpg,left,479.71500002313405,true,high,false
PHxvL3Q8,3axfspqoztbswwyvx39ztaxp9nrfjw,3f0bg9b9mt07zccismhs4pvna0c7ye,PHxvL3Q8,2020-0188,2020-05-21,15:46:19,16:00:38,NA,incomplete,143,color,1,right,Blue_Star_Dots_4.jpg,Purple_Plus_Dots_1.jpg,Blue_Circle_Stripes_2.jpg,right,612.4749999726191,true,high,false
PHxvL3Q8,3axfspqoztbswwyvx39ztaxp9nrfjw,3f0bg9b9mt07zccismhs4pvna0c7ye,PHxvL3Q8,2020-0188,2020-05-21,15:46:19,16:00:38,NA,incomplete,144,color,1,left,Blue_Plus_Grid_1.jpg,Blue_Circle_Chess_2.jpg,Purple_Star_Grid_3.jpg,left,549.9099999433383,true,high,false
PHxvL3Q8,3axfspqoztbswwyvx39ztaxp9nrfjw,3f0bg9b9mt07zccismhs4pvna0c7ye,PHxvL3Q8,2020-0188,2020-05-21,15:46:19,16:00:38,NA,incomplete,145,color,0,right,Purple_Star_Stripes_3.jpg,Red_Circle_Stripes_1.jpg,Purple_Plus_Dots_2.jpg,right,492.0450000790879,true,high,false
PHxvL3Q8,3axfspqoztbswwyvx39ztaxp9nrfjw,3f0bg9b9mt07zccismhs4pvna0c7ye,PHxvL3Q8,2020-0188,2020-05-21,15:46:19,16:00:38,NA,incomplete,146,color,1,left,Red_Star_Dots_3.jpg,Red_Triangle_Chess_4.jpg,Blue_Circle_Dots_1.jpg,right,961.9050000328571,false,high,false
PHxvL3Q8,3axfspqoztbswwyvx39ztaxp9nrfjw,3f0bg9b9mt07zccismhs4pvna0c7ye,PHxvL3Q8,2020-0188,2020-05-21,15:46:19,16:00:38,NA,incomplete,147,color,0,right,Green_Triangle_Chess_4.jpg,Purple_Plus_Chess_3.jpg,Green_Circle_Grid_2.jpg,left,957.4400000274181,false,high,false
PHxvL3Q8,3axfspqoztbswwyvx39ztaxp9nrfjw,3f0bg9b9mt07zccismhs4pvna0c7ye,PHxvL3Q8,2020-0188,2020-05-21,15:46:19,16:00:38,NA,incomplete,148,color,1,right,Green_Star_Grid_2.jpg,Blue_Plus_Grid_4.jpg,Green_Circle_Chess_1.jpg,right,668.9799999585375,true,high,false
PHxvL3Q8,3axfspqoztbswwyvx39ztaxp9nrfjw,3f0bg9b9mt07zccismhs4pvna0c7ye,PHxvL3Q8,2020-0188,2020-05-21,15:46:19,16:00:38,NA,incomplete,149,color,1,left,Purple_Triangle_Chess_3.jpg,Purple_Star_Stripes_1.jpg,Blue_Circle_Chess_2.jpg,left,575.1000000163913,true,high,false
PHxvL3Q8,3axfspqoztbswwyvx39ztaxp9nrfjw,3f0bg9b9mt07zccismhs4pvna0c7ye,PHxvL3Q8,2020-0188,2020-05-21,15:46:19,16:00:38,NA,incomplete,150,color,1,left,Purple_Plus_Grid_1.jpg,Purple_Triangle_Chess_2.jpg,Green_Circle_Grid_3.jpg,left,402.48499996960163,true,high,false
PHxvL3Q8,3axfspqoztbswwyvx39ztaxp9nrfjw,3f0bg9b9mt07zccismhs4pvna0c7ye,PHxvL3Q8,2020-0188,2020-05-21,15:46:19,16:00:38,NA,incomplete,151,color,0,left,Green_Plus_Dots_1.jpg,Green_Triangle_Chess_4.jpg,Blue_Star_Dots_3.jpg,left,430.3849999560043,true,high,false
PHxvL3Q8,3axfspqoztbswwyvx39ztaxp9nrfjw,3f0bg9b9mt07zccismhs4pvna0c7ye,PHxvL3Q8,2020-0188,2020-05-21,15:46:19,16:00:38,NA,incomplete,152,color,1,left,Red_Circle_Dots_3.jpg,Red_Plus_Chess_2.jpg,Blue_Star_Dots_4.jpg,right,755.6999999796972,false,high,false
PHxvL3Q8,3axfspqoztbswwyvx39ztaxp9nrfjw,3f0bg9b9mt07zccismhs4pvna0c7ye,PHxvL3Q8,2020-0188,2020-05-21,15:46:19,16:00:38,NA,incomplete,153,color,0,right,Blue_Plus_Chess_4.jpg,Purple_Circle_Chess_1.jpg,Blue_Triangle_Dots_3.jpg,left,730.7049999944866,false,high,false
PHxvL3Q8,3axfspqoztbswwyvx39ztaxp9nrfjw,3f0bg9b9mt07zccismhs4pvna0c7ye,PHxvL3Q8,2020-0188,2020-05-21,15:46:19,16:00:38,NA,incomplete,154,color,1,left,Purple_Star_Dots_2.jpg,Purple_Circle_Chess_1.jpg,Green_Plus_Dots_3.jpg,left,450.14999993145466,true,high,false
PHxvL3Q8,3axfspqoztbswwyvx39ztaxp9nrfjw,3f0bg9b9mt07zccismhs4pvna0c7ye,PHxvL3Q8,2020-0188,2020-05-21,15:46:19,16:00:38,NA,incomplete,155,color,1,left,Purple_Triangle_Chess_2.jpg,Purple_Circle_Stripes_4.jpg,Red_Plus_Chess_1.jpg,left,490.7300000777468,true,high,false
PHxvL3Q8,3axfspqoztbswwyvx39ztaxp9nrfjw,3f0bg9b9mt07zccismhs4pvna0c7ye,PHxvL3Q8,2020-0188,2020-05-21,15:46:19,16:00:38,NA,incomplete,156,color,0,right,Purple_Star_Dots_3.jpg,Blue_Circle_Dots_1.jpg,Purple_Plus_Grid_4.jpg,right,556.609999970533,true,high,false
PHxvL3Q8,3axfspqoztbswwyvx39ztaxp9nrfjw,3f0bg9b9mt07zccismhs4pvna0c7ye,PHxvL3Q8,2020-0188,2020-05-21,15:46:19,16:00:38,NA,incomplete,157,color,1,right,Purple_Circle_Dots_2.jpg,Red_Plus_Dots_3.jpg,Purple_Triangle_Stripes_1.jpg,left,869.9799999594688,false,high,false
PHxvL3Q8,3axfspqoztbswwyvx39ztaxp9nrfjw,3f0bg9b9mt07zccismhs4pvna0c7ye,PHxvL3Q8,2020-0188,2020-05-21,15:46:19,16:00:38,NA,incomplete,158,color,1,left,Blue_Star_Grid_1.jpg,Blue_Triangle_Dots_3.jpg,Green_Circle_Grid_2.jpg,left,537.720000022091,true,high,false
PHxvL3Q8,3axfspqoztbswwyvx39ztaxp9nrfjw,3f0bg9b9mt07zccismhs4pvna0c7ye,PHxvL3Q8,2020-0188,2020-05-21,15:46:19,16:00:38,NA,incomplete,159,color,1,left,Red_Circle_Dots_2.jpg,Red_Triangle_Stripes_3.jpg,Purple_Plus_Dots_4.jpg,left,513.619999983348,true,high,false
PHxvL3Q8,3axfspqoztbswwyvx39ztaxp9nrfjw,3f0bg9b9mt07zccismhs4pvna0c7ye,PHxvL3Q8,2020-0188,2020-05-21,15:46:19,16:00:38,NA,incomplete,160,filling,1,right,Red_Circle_Dots_3.jpg,Red_Plus_Stripes_2.jpg,Blue_Star_Dots_1.jpg,left,487.94500005897135,false,high,false
PHxvL3Q8,3axfspqoztbswwyvx39ztaxp9nrfjw,3f0bg9b9mt07zccismhs4pvna0c7ye,PHxvL3Q8,2020-0188,2020-05-21,15:46:19,16:00:38,NA,incomplete,161,filling,0,right,Green_Circle_Stripes_2.jpg,Green_Star_Grid_1.jpg,Red_Plus_Stripes_4.jpg,right,783.6149999639019,true,high,false
PHxvL3Q8,3axfspqoztbswwyvx39ztaxp9nrfjw,3f0bg9b9mt07zccismhs4pvna0c7ye,PHxvL3Q8,2020-0188,2020-05-21,15:46:19,16:00:38,NA,incomplete,162,filling,1,right,Purple_Plus_Grid_2.jpg,Purple_Circle_Chess_3.jpg,Red_Triangle_Grid_4.jpg,left,507.9100000439212,false,high,false
PHxvL3Q8,3axfspqoztbswwyvx39ztaxp9nrfjw,3f0bg9b9mt07zccismhs4pvna0c7ye,PHxvL3Q8,2020-0188,2020-05-21,15:46:19,16:00:38,NA,incomplete,163,filling,0,left,Green_Star_Grid_2.jpg,Purple_Plus_Grid_4.jpg,Green_Circle_Dots_1.jpg,left,824.9399999622256,true,high,false
PHxvL3Q8,3axfspqoztbswwyvx39ztaxp9nrfjw,3f0bg9b9mt07zccismhs4pvna0c7ye,PHxvL3Q8,2020-0188,2020-05-21,15:46:19,16:00:38,NA,incomplete,164,filling,1,right,Green_Star_Grid_1.jpg,Green_Triangle_Stripes_2.jpg,Blue_Plus_Grid_4.jpg,left,496.3749999878928,false,high,false
PHxvL3Q8,3axfspqoztbswwyvx39ztaxp9nrfjw,3f0bg9b9mt07zccismhs4pvna0c7ye,PHxvL3Q8,2020-0188,2020-05-21,15:46:19,16:00:38,NA,incomplete,165,filling,1,left,Red_Triangle_Grid_3.jpg,Blue_Plus_Grid_2.jpg,Red_Circle_Chess_4.jpg,left,951.0449999943376,true,high,false
PHxvL3Q8,3axfspqoztbswwyvx39ztaxp9nrfjw,3f0bg9b9mt07zccismhs4pvna0c7ye,PHxvL3Q8,2020-0188,2020-05-21,15:46:19,16:00:38,NA,incomplete,166,filling,1,right,Red_Circle_Dots_2.jpg,Red_Plus_Chess_4.jpg,Purple_Triangle_Dots_1.jpg,right,776.5799999469891,true,high,false
PHxvL3Q8,3axfspqoztbswwyvx39ztaxp9nrfjw,3f0bg9b9mt07zccismhs4pvna0c7ye,PHxvL3Q8,2020-0188,2020-05-21,15:46:19,16:00:38,NA,incomplete,167,filling,1,right,Red_Star_Grid_3.jpg,Red_Circle_Chess_4.jpg,Blue_Plus_Grid_1.jpg,left,1059.3249999219552,false,high,false
PHxvL3Q8,3axfspqoztbswwyvx39ztaxp9nrfjw,3f0bg9b9mt07zccismhs4pvna0c7ye,PHxvL3Q8,2020-0188,2020-05-21,15:46:19,16:00:38,NA,incomplete,168,filling,0,right,Purple_Triangle_Grid_3.jpg,Purple_Plus_Chess_4.jpg,Green_Star_Grid_2.jpg,right,897.4349999334663,true,high,false
PHxvL3Q8,3axfspqoztbswwyvx39ztaxp9nrfjw,3f0bg9b9mt07zccismhs4pvna0c7ye,PHxvL3Q8,2020-0188,2020-05-21,15:46:19,16:00:38,NA,incomplete,169,filling,1,right,Purple_Star_Dots_2.jpg,Purple_Circle_Grid_4.jpg,Green_Triangle_Dots_3.jpg,left,402.42500009480864,false,high,false
PHxvL3Q8,3axfspqoztbswwyvx39ztaxp9nrfjw,3f0bg9b9mt07zccismhs4pvna0c7ye,PHxvL3Q8,2020-0188,2020-05-21,15:46:19,16:00:38,NA,incomplete,170,filling,1,right,Red_Star_Grid_4.jpg,Red_Circle_Chess_1.jpg,Blue_Triangle_Grid_2.jpg,right,765.4600000241771,true,high,false
PHxvL3Q8,3axfspqoztbswwyvx39ztaxp9nrfjw,3f0bg9b9mt07zccismhs4pvna0c7ye,PHxvL3Q8,2020-0188,2020-05-21,15:46:19,16:00:38,NA,incomplete,171,filling,1,right,Purple_Star_Stripes_3.jpg,Purple_Plus_Dots_4.jpg,Red_Circle_Stripes_2.jpg,right,748.604999971576,true,high,false
PHxvL3Q8,3axfspqoztbswwyvx39ztaxp9nrfjw,3f0bg9b9mt07zccismhs4pvna0c7ye,PHxvL3Q8,2020-0188,2020-05-21,15:46:19,16:00:38,NA,incomplete,172,filling,1,right,Purple_Circle_Chess_3.jpg,Purple_Triangle_Dots_4.jpg,Blue_Plus_Chess_1.jpg,right,858.2500000484288,true,high,false
PHxvL3Q8,3axfspqoztbswwyvx39ztaxp9nrfjw,3f0bg9b9mt07zccismhs4pvna0c7ye,PHxvL3Q8,2020-0188,2020-05-21,15:46:19,16:00:38,NA,incomplete,173,filling,1,right,Blue_Plus_Grid_2.jpg,Blue_Circle_Dots_3.jpg,Purple_Star_Grid_1.jpg,right,918.584999977611,true,high,false
PHxvL3Q8,3axfspqoztbswwyvx39ztaxp9nrfjw,3f0bg9b9mt07zccismhs4pvna0c7ye,PHxvL3Q8,2020-0188,2020-05-21,15:46:19,16:00:38,NA,incomplete,174,filling,1,left,Green_Circle_Grid_1.jpg,Blue_Triangle_Grid_4.jpg,Green_Star_Stripes_3.jpg,right,572.4350000964478,false,high,false
PHxvL3Q8,3axfspqoztbswwyvx39ztaxp9nrfjw,3f0bg9b9mt07zccismhs4pvna0c7ye,PHxvL3Q8,2020-0188,2020-05-21,15:46:19,16:00:38,NA,incomplete,175,filling,0,left,Purple_Plus_Dots_4.jpg,Blue_Triangle_Dots_2.jpg,Purple_Circle_Grid_3.jpg,left,891.3000000175089,true,high,false
PHxvL3Q8,3axfspqoztbswwyvx39ztaxp9nrfjw,3f0bg9b9mt07zccismhs4pvna0c7ye,PHxvL3Q8,2020-0188,2020-05-21,15:46:19,16:00:38,NA,incomplete,176,filling,1,left,Red_Triangle_Grid_1.jpg,Purple_Star_Grid_2.jpg,Red_Circle_Dots_4.jpg,right,513.9600000111386,false,high,false
PHxvL3Q8,3axfspqoztbswwyvx39ztaxp9nrfjw,3f0bg9b9mt07zccismhs4pvna0c7ye,PHxvL3Q8,2020-0188,2020-05-21,15:46:19,16:00:38,NA,incomplete,177,filling,0,right,Blue_Triangle_Grid_3.jpg,Blue_Plus_Chess_4.jpg,Purple_Star_Grid_1.jpg,right,811.7899999488145,true,high,false
PHxvL3Q8,3axfspqoztbswwyvx39ztaxp9nrfjw,3f0bg9b9mt07zccismhs4pvna0c7ye,PHxvL3Q8,2020-0188,2020-05-21,15:46:19,16:00:38,NA,incomplete,178,filling,1,left,Red_Plus_Chess_1.jpg,Purple_Triangle_Chess_4.jpg,Red_Circle_Dots_3.jpg,right,531.7449999274686,false,high,false
PHxvL3Q8,3axfspqoztbswwyvx39ztaxp9nrfjw,3f0bg9b9mt07zccismhs4pvna0c7ye,PHxvL3Q8,2020-0188,2020-05-21,15:46:19,16:00:38,NA,incomplete,179,filling,1,left,Purple_Triangle_Dots_1.jpg,Red_Star_Dots_4.jpg,Purple_Circle_Stripes_2.jpg,right,513.2500000763685,false,high,false
PHxvL3Q8,3axfspqoztbswwyvx39ztaxp9nrfjw,3f0bg9b9mt07zccismhs4pvna0c7ye,PHxvL3Q8,2020-0188,2020-05-21,15:46:19,16:00:38,NA,incomplete,180,color,1,left,Purple_Triangle_Stripes_1.jpg,Purple_Circle_Grid_4.jpg,Blue_Plus_Stripes_2.jpg,left,987.1799999382347,true,high,false
PHxvL3Q8,3axfspqoztbswwyvx39ztaxp9nrfjw,3f0bg9b9mt07zccismhs4pvna0c7ye,PHxvL3Q8,2020-0188,2020-05-21,15:46:19,16:00:38,NA,incomplete,181,color,1,left,Blue_Plus_Chess_2.jpg,Blue_Star_Dots_1.jpg,Green_Circle_Chess_4.jpg,right,731.4450000412762,false,high,false
PHxvL3Q8,3axfspqoztbswwyvx39ztaxp9nrfjw,3f0bg9b9mt07zccismhs4pvna0c7ye,PHxvL3Q8,2020-0188,2020-05-21,15:46:19,16:00:38,NA,incomplete,182,color,1,right,Green_Star_Stripes_4.jpg,Blue_Circle_Stripes_1.jpg,Green_Triangle_Dots_2.jpg,right,484.79000001680106,true,high,false
PHxvL3Q8,3axfspqoztbswwyvx39ztaxp9nrfjw,3f0bg9b9mt07zccismhs4pvna0c7ye,PHxvL3Q8,2020-0188,2020-05-21,15:46:19,16:00:38,NA,incomplete,183,color,0,right,Blue_Star_Chess_2.jpg,Red_Triangle_Chess_4.jpg,Blue_Circle_Grid_1.jpg,right,548.8950000144541,true,high,false
PHxvL3Q8,3axfspqoztbswwyvx39ztaxp9nrfjw,3f0bg9b9mt07zccismhs4pvna0c7ye,PHxvL3Q8,2020-0188,2020-05-21,15:46:19,16:00:38,NA,incomplete,184,color,1,left,Red_Star_Stripes_1.jpg,Red_Triangle_Grid_2.jpg,Green_Circle_Stripes_3.jpg,right,940.8500000135973,false,high,false
PHxvL3Q8,3axfspqoztbswwyvx39ztaxp9nrfjw,3f0bg9b9mt07zccismhs4pvna0c7ye,PHxvL3Q8,2020-0188,2020-05-21,15:46:19,16:00:38,NA,incomplete,185,color,0,left,Blue_Triangle_Dots_1.jpg,Blue_Star_Chess_4.jpg,Purple_Plus_Dots_2.jpg,right,777.765000006184,false,high,false
PHxvL3Q8,3axfspqoztbswwyvx39ztaxp9nrfjw,3f0bg9b9mt07zccismhs4pvna0c7ye,PHxvL3Q8,2020-0188,2020-05-21,15:46:19,16:00:38,NA,incomplete,186,color,1,right,Blue_Plus_Stripes_4.jpg,Red_Triangle_Stripes_3.jpg,Blue_Circle_Dots_2.jpg,right,550.4000000655651,true,high,false
PHxvL3Q8,3axfspqoztbswwyvx39ztaxp9nrfjw,3f0bg9b9mt07zccismhs4pvna0c7ye,PHxvL3Q8,2020-0188,2020-05-21,15:46:19,16:00:38,NA,incomplete,187,color,1,left,Blue_Circle_Stripes_3.jpg,Blue_Star_Dots_4.jpg,Green_Triangle_Stripes_1.jpg,left,714.7600000025705,true,high,false
PHxvL3Q8,3axfspqoztbswwyvx39ztaxp9nrfjw,3f0bg9b9mt07zccismhs4pvna0c7ye,PHxvL3Q8,2020-0188,2020-05-21,15:46:19,16:00:38,NA,incomplete,188,color,1,left,Green_Circle_Grid_2.jpg,Green_Star_Dots_3.jpg,Blue_Plus_Grid_4.jpg,left,508.93000001087785,true,high,false
PHxvL3Q8,3axfspqoztbswwyvx39ztaxp9nrfjw,3f0bg9b9mt07zccismhs4pvna0c7ye,PHxvL3Q8,2020-0188,2020-05-21,15:46:19,16:00:38,NA,incomplete,189,color,1,right,Red_Plus_Chess_3.jpg,Purple_Triangle_Chess_1.jpg,Red_Star_Stripes_4.jpg,right,484.12000003736466,true,high,false
PHxvL3Q8,3axfspqoztbswwyvx39ztaxp9nrfjw,3f0bg9b9mt07zccismhs4pvna0c7ye,PHxvL3Q8,2020-0188,2020-05-21,15:46:19,16:00:38,NA,incomplete,190,color,0,left,Blue_Triangle_Grid_2.jpg,Blue_Plus_Chess_3.jpg,Purple_Star_Grid_4.jpg,right,892.0050000306219,false,high,false
PHxvL3Q8,3axfspqoztbswwyvx39ztaxp9nrfjw,3f0bg9b9mt07zccismhs4pvna0c7ye,PHxvL3Q8,2020-0188,2020-05-21,15:46:19,16:00:38,NA,incomplete,191,color,1,right,Red_Circle_Chess_3.jpg,Green_Plus_Chess_2.jpg,Red_Triangle_Stripes_1.jpg,left,975.0950000016019,false,high,false
PHxvL3Q8,3axfspqoztbswwyvx39ztaxp9nrfjw,3f0bg9b9mt07zccismhs4pvna0c7ye,PHxvL3Q8,2020-0188,2020-05-21,15:46:19,16:00:38,NA,incomplete,192,color,0,right,Purple_Triangle_Chess_4.jpg,Red_Circle_Chess_1.jpg,Purple_Plus_Dots_2.jpg,right,502.44000006932765,true,high,false
PHxvL3Q8,3axfspqoztbswwyvx39ztaxp9nrfjw,3f0bg9b9mt07zccismhs4pvna0c7ye,PHxvL3Q8,2020-0188,2020-05-21,15:46:19,16:00:38,NA,incomplete,193,color,1,right,Red_Star_Stripes_1.jpg,Green_Circle_Stripes_2.jpg,Red_Plus_Chess_4.jpg,left,853.9599999785423,false,high,false
PHxvL3Q8,3axfspqoztbswwyvx39ztaxp9nrfjw,3f0bg9b9mt07zccismhs4pvna0c7ye,PHxvL3Q8,2020-0188,2020-05-21,15:46:19,16:00:38,NA,incomplete,194,color,1,right,Green_Plus_Stripes_4.jpg,Blue_Triangle_Stripes_2.jpg,Green_Star_Dots_3.jpg,right,523.1599999824539,true,high,false
PHxvL3Q8,3axfspqoztbswwyvx39ztaxp9nrfjw,3f0bg9b9mt07zccismhs4pvna0c7ye,PHxvL3Q8,2020-0188,2020-05-21,15:46:19,16:00:38,NA,incomplete,195,color,1,right,Green_Plus_Stripes_4.jpg,Blue_Circle_Stripes_1.jpg,Green_Star_Chess_3.jpg,right,600.6549999583513,true,high,false
PHxvL3Q8,3axfspqoztbswwyvx39ztaxp9nrfjw,3f0bg9b9mt07zccismhs4pvna0c7ye,PHxvL3Q8,2020-0188,2020-05-21,15:46:19,16:00:38,NA,incomplete,196,color,1,right,Green_Plus_Chess_2.jpg,Blue_Circle_Chess_4.jpg,Green_Triangle_Grid_1.jpg,right,527.9800000134856,true,high,false
PHxvL3Q8,3axfspqoztbswwyvx39ztaxp9nrfjw,3f0bg9b9mt07zccismhs4pvna0c7ye,PHxvL3Q8,2020-0188,2020-05-21,15:46:19,16:00:38,NA,incomplete,197,color,0,left,Purple_Plus_Grid_3.jpg,Purple_Circle_Chess_2.jpg,Red_Triangle_Grid_1.jpg,left,668.7149999197572,true,high,false
PHxvL3Q8,3axfspqoztbswwyvx39ztaxp9nrfjw,3f0bg9b9mt07zccismhs4pvna0c7ye,PHxvL3Q8,2020-0188,2020-05-21,15:46:19,16:00:38,NA,incomplete,198,color,1,left,Blue_Triangle_Grid_4.jpg,Blue_Plus_Dots_3.jpg,Red_Circle_Grid_2.jpg,right,1129.175000009127,false,high,false
PHxvL3Q8,3axfspqoztbswwyvx39ztaxp9nrfjw,3f0bg9b9mt07zccismhs4pvna0c7ye,PHxvL3Q8,2020-0188,2020-05-21,15:46:19,16:00:38,NA,incomplete,199,color,1,right,Blue_Circle_Grid_1.jpg,Red_Triangle_Grid_3.jpg,Blue_Star_Stripes_2.jpg,right,432.21999995876104,true,high,false
PHxvL3Q8,3axfspqoztbswwyvx39ztaxp9nrfjw,3f0bg9b9mt07zccismhs4pvna0c7ye,PHxvL3Q8,2020-0188,2020-05-21,15:46:19,16:00:38,NA,incomplete,200,filling,1,right,Red_Plus_Dots_3.jpg,Red_Triangle_Stripes_4.jpg,Blue_Star_Dots_2.jpg,left,474.82500004116446,false,high,false
PHxvL3Q8,3axfspqoztbswwyvx39ztaxp9nrfjw,3f0bg9b9mt07zccismhs4pvna0c7ye,PHxvL3Q8,2020-0188,2020-05-21,15:46:19,16:00:38,NA,incomplete,201,filling,1,right,Purple_Plus_Dots_3.jpg,Purple_Triangle_Stripes_4.jpg,Red_Circle_Dots_2.jpg,right,810.0300000514835,true,high,false
PHxvL3Q8,3axfspqoztbswwyvx39ztaxp9nrfjw,3f0bg9b9mt07zccismhs4pvna0c7ye,PHxvL3Q8,2020-0188,2020-05-21,15:46:19,16:00:38,NA,incomplete,202,filling,1,right,Blue_Plus_Chess_3.jpg,Blue_Triangle_Grid_1.jpg,Purple_Star_Chess_2.jpg,right,1052.534999907948,true,high,false
PHxvL3Q8,3axfspqoztbswwyvx39ztaxp9nrfjw,3f0bg9b9mt07zccismhs4pvna0c7ye,PHxvL3Q8,2020-0188,2020-05-21,15:46:19,16:00:38,NA,incomplete,203,filling,1,left,Red_Triangle_Dots_2.jpg,Green_Star_Dots_3.jpg,Red_Circle_Grid_1.jpg,right,767.0299999881536,false,high,false
PHxvL3Q8,3axfspqoztbswwyvx39ztaxp9nrfjw,3f0bg9b9mt07zccismhs4pvna0c7ye,PHxvL3Q8,2020-0188,2020-05-21,15:46:19,16:00:38,NA,incomplete,204,filling,1,left,Green_Circle_Chess_4.jpg,Blue_Plus_Chess_1.jpg,Green_Triangle_Stripes_3.jpg,right,867.3549999948591,false,high,false
PHxvL3Q8,3axfspqoztbswwyvx39ztaxp9nrfjw,3f0bg9b9mt07zccismhs4pvna0c7ye,PHxvL3Q8,2020-0188,2020-05-21,15:46:19,16:00:38,NA,incomplete,205,filling,1,left,Purple_Plus_Stripes_2.jpg,Red_Triangle_Stripes_1.jpg,Purple_Circle_Chess_3.jpg,left,971.80999990087,true,high,false
PHxvL3Q8,3axfspqoztbswwyvx39ztaxp9nrfjw,3f0bg9b9mt07zccismhs4pvna0c7ye,PHxvL3Q8,2020-0188,2020-05-21,15:46:19,16:00:38,NA,incomplete,206,filling,0,left,Blue_Star_Stripes_2.jpg,Purple_Circle_Stripes_3.jpg,Blue_Plus_Dots_1.jpg,left,857.1999999694526,true,high,false
PHxvL3Q8,3axfspqoztbswwyvx39ztaxp9nrfjw,3f0bg9b9mt07zccismhs4pvna0c7ye,PHxvL3Q8,2020-0188,2020-05-21,15:46:19,16:00:38,NA,incomplete,207,filling,1,right,Red_Star_Stripes_3.jpg,Red_Circle_Chess_4.jpg,Blue_Triangle_Stripes_1.jpg,left,572.5150000071153,false,high,false
PHxvL3Q8,3axfspqoztbswwyvx39ztaxp9nrfjw,3f0bg9b9mt07zccismhs4pvna0c7ye,PHxvL3Q8,2020-0188,2020-05-21,15:46:19,16:00:38,NA,incomplete,208,filling,1,right,Green_Triangle_Chess_2.jpg,Green_Plus_Stripes_3.jpg,Purple_Star_Chess_1.jpg,right,885.124999913387,true,high,false
PHxvL3Q8,3axfspqoztbswwyvx39ztaxp9nrfjw,3f0bg9b9mt07zccismhs4pvna0c7ye,PHxvL3Q8,2020-0188,2020-05-21,15:46:19,16:00:38,NA,incomplete,209,filling,1,right,Green_Star_Dots_2.jpg,Green_Circle_Chess_3.jpg,Red_Plus_Dots_4.jpg,right,853.2100000884384,true,high,false
PHxvL3Q8,3axfspqoztbswwyvx39ztaxp9nrfjw,3f0bg9b9mt07zccismhs4pvna0c7ye,PHxvL3Q8,2020-0188,2020-05-21,15:46:19,16:00:38,NA,incomplete,210,filling,0,right,Blue_Plus_Stripes_1.jpg,Blue_Triangle_Chess_4.jpg,Green_Circle_Stripes_2.jpg,right,745.7600000780076,true,high,false
PHxvL3Q8,3axfspqoztbswwyvx39ztaxp9nrfjw,3f0bg9b9mt07zccismhs4pvna0c7ye,PHxvL3Q8,2020-0188,2020-05-21,15:46:19,16:00:38,NA,incomplete,211,filling,1,right,Purple_Star_Chess_1.jpg,Purple_Plus_Dots_2.jpg,Red_Circle_Chess_3.jpg,left,694.8350000893697,false,high,false
PHxvL3Q8,3axfspqoztbswwyvx39ztaxp9nrfjw,3f0bg9b9mt07zccismhs4pvna0c7ye,PHxvL3Q8,2020-0188,2020-05-21,15:46:19,16:00:38,NA,incomplete,212,filling,1,right,Red_Triangle_Dots_1.jpg,Red_Star_Stripes_3.jpg,Green_Circle_Dots_4.jpg,right,773.2100000139326,true,high,false
PHxvL3Q8,3axfspqoztbswwyvx39ztaxp9nrfjw,3f0bg9b9mt07zccismhs4pvna0c7ye,PHxvL3Q8,2020-0188,2020-05-21,15:46:19,16:00:38,NA,incomplete,213,filling,1,right,Blue_Triangle_Grid_4.jpg,Blue_Star_Dots_2.jpg,Red_Circle_Grid_3.jpg,right,876.0300000431016,true,high,false
PHxvL3Q8,3axfspqoztbswwyvx39ztaxp9nrfjw,3f0bg9b9mt07zccismhs4pvna0c7ye,PHxvL3Q8,2020-0188,2020-05-21,15:46:19,16:00:38,NA,incomplete,214,filling,1,right,Green_Plus_Chess_3.jpg,Green_Star_Dots_1.jpg,Blue_Triangle_Chess_4.jpg,right,930.7449999032542,true,high,false
PHxvL3Q8,3axfspqoztbswwyvx39ztaxp9nrfjw,3f0bg9b9mt07zccismhs4pvna0c7ye,PHxvL3Q8,2020-0188,2020-05-21,15:46:19,16:00:38,NA,incomplete,215,filling,1,left,Red_Triangle_Stripes_4.jpg,Purple_Circle_Stripes_1.jpg,Red_Star_Chess_2.jpg,right,557.4349999660626,false,high,false
PHxvL3Q8,3axfspqoztbswwyvx39ztaxp9nrfjw,3f0bg9b9mt07zccismhs4pvna0c7ye,PHxvL3Q8,2020-0188,2020-05-21,15:46:19,16:00:38,NA,incomplete,216,filling,1,left,Purple_Star_Stripes_1.jpg,Red_Triangle_Stripes_2.jpg,Purple_Circle_Grid_3.jpg,right,872.3250000039116,false,high,false
PHxvL3Q8,3axfspqoztbswwyvx39ztaxp9nrfjw,3f0bg9b9mt07zccismhs4pvna0c7ye,PHxvL3Q8,2020-0188,2020-05-21,15:46:19,16:00:38,NA,incomplete,217,filling,1,right,Red_Circle_Stripes_3.jpg,Red_Plus_Grid_4.jpg,Green_Star_Stripes_1.jpg,left,984.5000000204891,false,high,false
PHxvL3Q8,3axfspqoztbswwyvx39ztaxp9nrfjw,3f0bg9b9mt07zccismhs4pvna0c7ye,PHxvL3Q8,2020-0188,2020-05-21,15:46:19,16:00:38,NA,incomplete,218,filling,1,right,Red_Circle_Chess_4.jpg,Red_Star_Stripes_1.jpg,Purple_Triangle_Chess_3.jpg,right,554.8749999143183,true,high,false
PHxvL3Q8,3axfspqoztbswwyvx39ztaxp9nrfjw,3f0bg9b9mt07zccismhs4pvna0c7ye,PHxvL3Q8,2020-0188,2020-05-21,15:46:19,16:00:38,NA,incomplete,219,filling,1,left,Red_Triangle_Stripes_1.jpg,Blue_Plus_Stripes_4.jpg,Red_Circle_Dots_3.jpg,left,912.055000080727,true,high,false
PHxvL3Q8,3axfspqoztbswwyvx39ztaxp9nrfjw,3f0bg9b9mt07zccismhs4pvna0c7ye,PHxvL3Q8,2020-0188,2020-05-21,15:46:19,16:00:38,NA,incomplete,220,color,0,left,Blue_Plus_Grid_4.jpg,Blue_Star_Stripes_2.jpg,Purple_Circle_Grid_1.jpg,right,1190.3350000502542,false,high,false
PHxvL3Q8,3axfspqoztbswwyvx39ztaxp9nrfjw,3f0bg9b9mt07zccismhs4pvna0c7ye,PHxvL3Q8,2020-0188,2020-05-21,15:46:19,16:00:38,NA,incomplete,221,color,1,left,Green_Triangle_Stripes_2.jpg,Green_Star_Dots_4.jpg,Purple_Circle_Stripes_3.jpg,right,688.0799999926239,false,high,false
PHxvL3Q8,3axfspqoztbswwyvx39ztaxp9nrfjw,3f0bg9b9mt07zccismhs4pvna0c7ye,PHxvL3Q8,2020-0188,2020-05-21,15:46:19,16:00:38,NA,incomplete,222,color,1,left,Green_Circle_Stripes_3.jpg,Green_Triangle_Chess_1.jpg,Purple_Star_Stripes_4.jpg,left,495.6050000619143,true,high,false
PHxvL3Q8,3axfspqoztbswwyvx39ztaxp9nrfjw,3f0bg9b9mt07zccismhs4pvna0c7ye,PHxvL3Q8,2020-0188,2020-05-21,15:46:19,16:00:38,NA,incomplete,223,color,0,left,Purple_Star_Stripes_1.jpg,Purple_Circle_Dots_4.jpg,Green_Triangle_Stripes_2.jpg,left,502.4299999931827,true,high,false
PHxvL3Q8,3axfspqoztbswwyvx39ztaxp9nrfjw,3f0bg9b9mt07zccismhs4pvna0c7ye,PHxvL3Q8,2020-0188,2020-05-21,15:46:19,16:00:38,NA,incomplete,224,color,1,right,Purple_Star_Dots_4.jpg,Green_Triangle_Dots_1.jpg,Purple_Circle_Chess_3.jpg,right,815.8249999396503,true,high,false
PHxvL3Q8,3axfspqoztbswwyvx39ztaxp9nrfjw,3f0bg9b9mt07zccismhs4pvna0c7ye,PHxvL3Q8,2020-0188,2020-05-21,15:46:19,16:00:38,NA,incomplete,225,color,1,right,Blue_Plus_Chess_4.jpg,Green_Triangle_Chess_2.jpg,Blue_Star_Dots_1.jpg,right,552.2950000595301,true,high,false
PHxvL3Q8,3axfspqoztbswwyvx39ztaxp9nrfjw,3f0bg9b9mt07zccismhs4pvna0c7ye,PHxvL3Q8,2020-0188,2020-05-21,15:46:19,16:00:38,NA,incomplete,226,color,1,left,Green_Plus_Chess_3.jpg,Green_Star_Grid_4.jpg,Red_Circle_Chess_2.jpg,left,562.620000098832,true,high,false
PHxvL3Q8,3axfspqoztbswwyvx39ztaxp9nrfjw,3f0bg9b9mt07zccismhs4pvna0c7ye,PHxvL3Q8,2020-0188,2020-05-21,15:46:19,16:00:38,NA,incomplete,227,color,1,left,Red_Plus_Grid_2.jpg,Red_Circle_Dots_1.jpg,Purple_Star_Grid_4.jpg,right,757.9100000439212,false,high,false
PHxvL3Q8,3axfspqoztbswwyvx39ztaxp9nrfjw,3f0bg9b9mt07zccismhs4pvna0c7ye,PHxvL3Q8,2020-0188,2020-05-21,15:46:19,16:00:38,NA,incomplete,228,color,1,left,Red_Star_Chess_1.jpg,Red_Circle_Stripes_2.jpg,Purple_Triangle_Chess_3.jpg,left,589.5549999549985,true,high,false
PHxvL3Q8,3axfspqoztbswwyvx39ztaxp9nrfjw,3f0bg9b9mt07zccismhs4pvna0c7ye,PHxvL3Q8,2020-0188,2020-05-21,15:46:19,16:00:38,NA,incomplete,229,color,0,right,Purple_Star_Stripes_4.jpg,Red_Plus_Stripes_2.jpg,Purple_Circle_Chess_1.jpg,right,605.0450000911951,true,high,false
PHxvL3Q8,3axfspqoztbswwyvx39ztaxp9nrfjw,3f0bg9b9mt07zccismhs4pvna0c7ye,PHxvL3Q8,2020-0188,2020-05-21,15:46:19,16:00:38,NA,incomplete,230,color,1,right,Green_Triangle_Dots_3.jpg,Blue_Star_Dots_1.jpg,Green_Circle_Stripes_2.jpg,left,753.6150000523776,false,high,false
PHxvL3Q8,3axfspqoztbswwyvx39ztaxp9nrfjw,3f0bg9b9mt07zccismhs4pvna0c7ye,PHxvL3Q8,2020-0188,2020-05-21,15:46:19,16:00:38,NA,incomplete,231,color,1,left,Purple_Star_Stripes_3.jpg,Purple_Plus_Dots_4.jpg,Red_Circle_Stripes_1.jpg,left,526.9049999769777,true,high,false
PHxvL3Q8,3axfspqoztbswwyvx39ztaxp9nrfjw,3f0bg9b9mt07zccismhs4pvna0c7ye,PHxvL3Q8,2020-0188,2020-05-21,15:46:19,16:00:38,NA,incomplete,232,color,1,left,Green_Plus_Dots_2.jpg,Green_Circle_Grid_1.jpg,Purple_Star_Dots_3.jpg,left,519.6250000735745,true,high,false
PHxvL3Q8,3axfspqoztbswwyvx39ztaxp9nrfjw,3f0bg9b9mt07zccismhs4pvna0c7ye,PHxvL3Q8,2020-0188,2020-05-21,15:46:19,16:00:38,NA,incomplete,233,color,1,right,Red_Triangle_Grid_3.jpg,Blue_Circle_Grid_4.jpg,Red_Plus_Dots_1.jpg,right,509.64000006206334,true,high,false
PHxvL3Q8,3axfspqoztbswwyvx39ztaxp9nrfjw,3f0bg9b9mt07zccismhs4pvna0c7ye,PHxvL3Q8,2020-0188,2020-05-21,15:46:19,16:00:38,NA,incomplete,234,color,1,left,Purple_Plus_Chess_4.jpg,Purple_Circle_Stripes_1.jpg,Red_Triangle_Chess_2.jpg,left,584.6300000557676,true,high,false
PHxvL3Q8,3axfspqoztbswwyvx39ztaxp9nrfjw,3f0bg9b9mt07zccismhs4pvna0c7ye,PHxvL3Q8,2020-0188,2020-05-21,15:46:19,16:00:38,NA,incomplete,235,color,1,left,Red_Star_Grid_2.jpg,Red_Circle_Stripes_3.jpg,Green_Triangle_Grid_4.jpg,left,513.7749999994412,true,high,false
PHxvL3Q8,3axfspqoztbswwyvx39ztaxp9nrfjw,3f0bg9b9mt07zccismhs4pvna0c7ye,PHxvL3Q8,2020-0188,2020-05-21,15:46:19,16:00:38,NA,incomplete,236,color,1,right,Green_Plus_Chess_2.jpg,Red_Circle_Chess_3.jpg,Green_Triangle_Dots_1.jpg,right,414.52500002924353,true,high,false
PHxvL3Q8,3axfspqoztbswwyvx39ztaxp9nrfjw,3f0bg9b9mt07zccismhs4pvna0c7ye,PHxvL3Q8,2020-0188,2020-05-21,15:46:19,16:00:38,NA,incomplete,237,color,1,left,Blue_Star_Grid_1.jpg,Blue_Circle_Chess_3.jpg,Red_Plus_Grid_4.jpg,left,487.6599999843165,true,high,false
PHxvL3Q8,3axfspqoztbswwyvx39ztaxp9nrfjw,3f0bg9b9mt07zccismhs4pvna0c7ye,PHxvL3Q8,2020-0188,2020-05-21,15:46:19,16:00:38,NA,incomplete,238,color,1,left,Purple_Star_Dots_3.jpg,Purple_Circle_Chess_4.jpg,Red_Triangle_Dots_1.jpg,left,503.7249999586493,true,high,false
PHxvL3Q8,3axfspqoztbswwyvx39ztaxp9nrfjw,3f0bg9b9mt07zccismhs4pvna0c7ye,PHxvL3Q8,2020-0188,2020-05-21,15:46:19,16:00:38,NA,incomplete,239,color,1,right,Green_Circle_Dots_4.jpg,Blue_Triangle_Dots_2.jpg,Green_Plus_Grid_3.jpg,right,575.3699999768287,true,high,false
PHxvL3Q8,3axfspqoztbswwyvx39ztaxp9nrfjw,3f0bg9b9mt07zccismhs4pvna0c7ye,PHxvL3Q8,2020-0188,2020-05-21,15:46:19,16:00:38,NA,NA,instruction example,number,NA,NA,Green_Triangle_Stripes_4.jpg,Red_Circle_Grid_4.jpg,Purple_Triangle_Dots_1.jpg,NA,NA,NA,NA,undefined
PHxvL3Q8,3axfspqoztbswwyvx39ztaxp9nrfjw,3f0bg9b9mt07zccismhs4pvna0c7ye,PHxvL3Q8,2020-0188,2020-05-21,15:46:19,16:00:38,NA,NA,instruction example,number,NA,NA,Red_Triangle_Grid_3.jpg,Purple_Triangle_Stripes_2.jpg,Blue_Plus_Chess_3.jpg,NA,NA,NA,NA,undefined
PHxvL3Q8,3axfspqoztbswwyvx39ztaxp9nrfjw,3f0bg9b9mt07zccismhs4pvna0c7ye,PHxvL3Q8,2020-0188,2020-05-21,15:46:19,16:00:38,NA,NA,instruction example,number,NA,NA,Blue_Circle_Chess_2.jpg,Purple_Plus_Chess_1.jpg,Blue_Star_Dots_4.jpg,NA,NA,NA,NA,undefined
PHxvL3Q8,3axfspqoztbswwyvx39ztaxp9nrfjw,3f0bg9b9mt07zccismhs4pvna0c7ye,PHxvL3Q8,2020-0188,2020-05-21,15:46:19,16:00:38,NA,NA,instruction example,number,NA,NA,Purple_Plus_Grid_1.jpg,Purple_Circle_Stripes_3.jpg,Green_Triangle_Grid_4.jpg,NA,NA,NA,NA,undefined
PHxvL3Q8,3axfspqoztbswwyvx39ztaxp9nrfjw,3f0bg9b9mt07zccismhs4pvna0c7ye,PHxvL3Q8,2020-0188,2020-05-21,15:46:19,16:00:38,831590.9850000171,858734.3200000469,NA,NA,NA,NA,NA,NA,NA,NA,NA,NA,NA,undefined
