workerId,hitId,assignmentId,subject,studyid,exp_date,exp_start,exp_end,time_start,time_end,trial,type,reward_validity,answer,image_top,image_left,image_right,response,response_time,response_acc,volatility,age,race,gender,ethnicity,color,vision,neuro,practice
Xy2ztaUw,338glsui56olvzhlkxidlboc564sfp,3fdjt1uu78lxs39i0e14xx2glf8k5h,Xy2ztaUw,2020-0188,2020-05-21,15:28:56,16:01:56,NA,incomplete,0,filling,1,right,Blue_Plus_Dots_3.jpg,Blue_Circle_Grid_2.jpg,Red_Triangle_Dots_1.jpg,none,0,false,NA,NA,NA,NA,NA,NA,NA,NA,true
Xy2ztaUw,338glsui56olvzhlkxidlboc564sfp,3fdjt1uu78lxs39i0e14xx2glf8k5h,Xy2ztaUw,2020-0188,2020-05-21,15:28:56,16:01:56,NA,incomplete,1,filling,1,right,Purple_Triangle_Stripes_3.jpg,Purple_Circle_Grid_1.jpg,Red_Star_Stripes_4.jpg,none,0,false,NA,NA,NA,NA,NA,NA,NA,NA,true
Xy2ztaUw,338glsui56olvzhlkxidlboc564sfp,3fdjt1uu78lxs39i0e14xx2glf8k5h,Xy2ztaUw,2020-0188,2020-05-21,15:28:56,16:01:56,NA,incomplete,2,filling,1,right,Blue_Plus_Grid_2.jpg,Blue_Circle_Stripes_1.jpg,Purple_Star_Grid_3.jpg,left,1076.5150000007125,false,NA,NA,NA,NA,NA,NA,NA,NA,true
Xy2ztaUw,338glsui56olvzhlkxidlboc564sfp,3fdjt1uu78lxs39i0e14xx2glf8k5h,Xy2ztaUw,2020-0188,2020-05-21,15:28:56,16:01:56,NA,incomplete,3,filling,0,right,Blue_Triangle_Dots_3.jpg,Blue_Circle_Stripes_2.jpg,Purple_Star_Dots_4.jpg,right,678.0899999993853,true,NA,NA,NA,NA,NA,NA,NA,NA,true
Xy2ztaUw,338glsui56olvzhlkxidlboc564sfp,3fdjt1uu78lxs39i0e14xx2glf8k5h,Xy2ztaUw,2020-0188,2020-05-21,15:28:56,16:01:56,NA,incomplete,4,filling,1,right,Red_Triangle_Grid_1.jpg,Red_Circle_Dots_2.jpg,Blue_Star_Grid_3.jpg,right,828.1200000001118,true,NA,NA,NA,NA,NA,NA,NA,NA,true
Xy2ztaUw,338glsui56olvzhlkxidlboc564sfp,3fdjt1uu78lxs39i0e14xx2glf8k5h,Xy2ztaUw,2020-0188,2020-05-21,15:28:56,16:01:56,NA,incomplete,5,filling,1,left,Green_Circle_Grid_3.jpg,Blue_Triangle_Grid_1.jpg,Green_Plus_Dots_4.jpg,left,762.1300000008196,true,NA,NA,NA,NA,NA,NA,NA,NA,true
Xy2ztaUw,338glsui56olvzhlkxidlboc564sfp,3fdjt1uu78lxs39i0e14xx2glf8k5h,Xy2ztaUw,2020-0188,2020-05-21,15:28:56,16:01:56,NA,incomplete,6,filling,1,right,Purple_Plus_Grid_3.jpg,Purple_Circle_Chess_2.jpg,Blue_Triangle_Grid_4.jpg,right,793.2800000000279,true,NA,NA,NA,NA,NA,NA,NA,NA,true
Xy2ztaUw,338glsui56olvzhlkxidlboc564sfp,3fdjt1uu78lxs39i0e14xx2glf8k5h,Xy2ztaUw,2020-0188,2020-05-21,15:28:56,16:01:56,NA,incomplete,7,filling,1,right,Green_Circle_Grid_4.jpg,Green_Triangle_Chess_2.jpg,Purple_Star_Grid_3.jpg,right,668.7449999989476,true,NA,NA,NA,NA,NA,NA,NA,NA,true
Xy2ztaUw,338glsui56olvzhlkxidlboc564sfp,3fdjt1uu78lxs39i0e14xx2glf8k5h,Xy2ztaUw,2020-0188,2020-05-21,15:28:56,16:01:56,NA,incomplete,8,filling,0,left,Purple_Triangle_Grid_4.jpg,Blue_Star_Grid_3.jpg,Purple_Plus_Stripes_2.jpg,left,630.4699999999721,true,NA,NA,NA,NA,NA,NA,NA,NA,true
Xy2ztaUw,338glsui56olvzhlkxidlboc564sfp,3fdjt1uu78lxs39i0e14xx2glf8k5h,Xy2ztaUw,2020-0188,2020-05-21,15:28:56,16:01:56,NA,incomplete,9,filling,0,left,Red_Plus_Chess_2.jpg,Purple_Triangle_Chess_4.jpg,Red_Circle_Dots_1.jpg,left,761.9850000010338,true,NA,NA,NA,NA,NA,NA,NA,NA,true
Xy2ztaUw,338glsui56olvzhlkxidlboc564sfp,3fdjt1uu78lxs39i0e14xx2glf8k5h,Xy2ztaUw,2020-0188,2020-05-21,15:28:56,16:01:56,NA,incomplete,10,filling,1,right,Blue_Plus_Chess_1.jpg,Blue_Star_Grid_4.jpg,Green_Triangle_Chess_3.jpg,right,564.0000000002328,true,NA,NA,NA,NA,NA,NA,NA,NA,true
Xy2ztaUw,338glsui56olvzhlkxidlboc564sfp,3fdjt1uu78lxs39i0e14xx2glf8k5h,Xy2ztaUw,2020-0188,2020-05-21,15:28:56,16:01:56,NA,incomplete,11,filling,1,right,Blue_Plus_Chess_2.jpg,Blue_Star_Stripes_1.jpg,Green_Circle_Chess_3.jpg,right,601.4349999986589,true,NA,NA,NA,NA,NA,NA,NA,NA,true
Xy2ztaUw,338glsui56olvzhlkxidlboc564sfp,3fdjt1uu78lxs39i0e14xx2glf8k5h,Xy2ztaUw,2020-0188,2020-05-21,15:28:56,16:01:56,NA,incomplete,12,filling,1,left,Green_Plus_Dots_4.jpg,Purple_Star_Dots_1.jpg,Green_Triangle_Stripes_2.jpg,left,745.5800000005402,true,NA,NA,NA,NA,NA,NA,NA,NA,true
Xy2ztaUw,338glsui56olvzhlkxidlboc564sfp,3fdjt1uu78lxs39i0e14xx2glf8k5h,Xy2ztaUw,2020-0188,2020-05-21,15:28:56,16:01:56,NA,incomplete,13,filling,1,right,Blue_Triangle_Chess_3.jpg,Blue_Circle_Stripes_4.jpg,Red_Plus_Chess_2.jpg,left,619.4899999990594,false,NA,NA,NA,NA,NA,NA,NA,NA,true
Xy2ztaUw,338glsui56olvzhlkxidlboc564sfp,3fdjt1uu78lxs39i0e14xx2glf8k5h,Xy2ztaUw,2020-0188,2020-05-21,15:28:56,16:01:56,NA,incomplete,14,filling,1,left,Red_Circle_Dots_1.jpg,Green_Plus_Dots_4.jpg,Red_Triangle_Grid_2.jpg,left,666.359999999404,true,NA,NA,NA,NA,NA,NA,NA,NA,true
Xy2ztaUw,338glsui56olvzhlkxidlboc564sfp,3fdjt1uu78lxs39i0e14xx2glf8k5h,Xy2ztaUw,2020-0188,2020-05-21,15:28:56,16:01:56,NA,incomplete,15,filling,1,left,Blue_Triangle_Stripes_2.jpg,Red_Star_Stripes_3.jpg,Blue_Plus_Dots_4.jpg,left,698.4549999996088,true,NA,NA,NA,NA,NA,NA,NA,NA,true
Xy2ztaUw,338glsui56olvzhlkxidlboc564sfp,3fdjt1uu78lxs39i0e14xx2glf8k5h,Xy2ztaUw,2020-0188,2020-05-21,15:28:56,16:01:56,NA,incomplete,16,filling,1,left,Blue_Triangle_Dots_1.jpg,Green_Star_Dots_2.jpg,Blue_Plus_Chess_4.jpg,left,839.0700000000652,true,NA,NA,NA,NA,NA,NA,NA,NA,true
Xy2ztaUw,338glsui56olvzhlkxidlboc564sfp,3fdjt1uu78lxs39i0e14xx2glf8k5h,Xy2ztaUw,2020-0188,2020-05-21,15:28:56,16:01:56,NA,incomplete,17,filling,1,right,Red_Circle_Dots_3.jpg,Red_Star_Grid_2.jpg,Blue_Triangle_Dots_4.jpg,right,664.4550000000745,true,NA,NA,NA,NA,NA,NA,NA,NA,true
Xy2ztaUw,338glsui56olvzhlkxidlboc564sfp,3fdjt1uu78lxs39i0e14xx2glf8k5h,Xy2ztaUw,2020-0188,2020-05-21,15:28:56,16:01:56,NA,incomplete,18,filling,1,right,Purple_Triangle_Dots_3.jpg,Purple_Plus_Stripes_4.jpg,Green_Circle_Dots_2.jpg,right,534.4899999999907,true,NA,NA,NA,NA,NA,NA,NA,NA,true
Xy2ztaUw,338glsui56olvzhlkxidlboc564sfp,3fdjt1uu78lxs39i0e14xx2glf8k5h,Xy2ztaUw,2020-0188,2020-05-21,15:28:56,16:01:56,NA,incomplete,19,filling,1,right,Blue_Plus_Chess_2.jpg,Blue_Circle_Stripes_3.jpg,Purple_Triangle_Chess_4.jpg,right,863.1800000004005,true,NA,NA,NA,NA,NA,NA,NA,NA,true
Xy2ztaUw,338glsui56olvzhlkxidlboc564sfp,3fdjt1uu78lxs39i0e14xx2glf8k5h,Xy2ztaUw,2020-0188,2020-05-21,15:28:56,16:01:56,NA,incomplete,20,color,0,left,Red_Star_Dots_4.jpg,Red_Triangle_Stripes_2.jpg,Blue_Plus_Dots_1.jpg,left,1333.5600000007544,true,NA,NA,NA,NA,NA,NA,NA,NA,true
Xy2ztaUw,338glsui56olvzhlkxidlboc564sfp,3fdjt1uu78lxs39i0e14xx2glf8k5h,Xy2ztaUw,2020-0188,2020-05-21,15:28:56,16:01:56,NA,incomplete,21,color,1,left,Green_Circle_Chess_1.jpg,Green_Triangle_Grid_4.jpg,Red_Plus_Chess_3.jpg,left,689.6450000004843,true,NA,NA,NA,NA,NA,NA,NA,NA,true
Xy2ztaUw,338glsui56olvzhlkxidlboc564sfp,3fdjt1uu78lxs39i0e14xx2glf8k5h,Xy2ztaUw,2020-0188,2020-05-21,15:28:56,16:01:56,NA,incomplete,22,color,0,left,Purple_Triangle_Dots_4.jpg,Purple_Plus_Grid_1.jpg,Blue_Star_Dots_3.jpg,left,534.4850000001024,true,NA,NA,NA,NA,NA,NA,NA,NA,true
Xy2ztaUw,338glsui56olvzhlkxidlboc564sfp,3fdjt1uu78lxs39i0e14xx2glf8k5h,Xy2ztaUw,2020-0188,2020-05-21,15:28:56,16:01:56,NA,incomplete,23,color,1,right,Blue_Circle_Grid_3.jpg,Purple_Triangle_Grid_4.jpg,Blue_Star_Chess_2.jpg,right,750.3699999998789,true,NA,NA,NA,NA,NA,NA,NA,NA,true
Xy2ztaUw,338glsui56olvzhlkxidlboc564sfp,3fdjt1uu78lxs39i0e14xx2glf8k5h,Xy2ztaUw,2020-0188,2020-05-21,15:28:56,16:01:56,NA,incomplete,24,color,1,left,Purple_Star_Grid_4.jpg,Purple_Triangle_Stripes_2.jpg,Green_Circle_Grid_3.jpg,left,442.989999999525,true,NA,NA,NA,NA,NA,NA,NA,NA,true
Xy2ztaUw,338glsui56olvzhlkxidlboc564sfp,3fdjt1uu78lxs39i0e14xx2glf8k5h,Xy2ztaUw,2020-0188,2020-05-21,15:28:56,16:01:56,NA,incomplete,25,color,1,left,Purple_Triangle_Stripes_1.jpg,Purple_Star_Chess_4.jpg,Red_Circle_Stripes_2.jpg,left,490.9299999999348,true,NA,NA,NA,NA,NA,NA,NA,NA,true
Xy2ztaUw,338glsui56olvzhlkxidlboc564sfp,3fdjt1uu78lxs39i0e14xx2glf8k5h,Xy2ztaUw,2020-0188,2020-05-21,15:28:56,16:01:56,NA,incomplete,26,color,0,right,Red_Star_Dots_2.jpg,Blue_Plus_Dots_1.jpg,Red_Circle_Grid_4.jpg,right,458.91499999933876,true,NA,NA,NA,NA,NA,NA,NA,NA,true
Xy2ztaUw,338glsui56olvzhlkxidlboc564sfp,3fdjt1uu78lxs39i0e14xx2glf8k5h,Xy2ztaUw,2020-0188,2020-05-21,15:28:56,16:01:56,NA,incomplete,27,color,1,left,Red_Plus_Chess_3.jpg,Red_Triangle_Stripes_4.jpg,Blue_Star_Chess_2.jpg,left,539.4349999986589,true,NA,NA,NA,NA,NA,NA,NA,NA,true
Xy2ztaUw,338glsui56olvzhlkxidlboc564sfp,3fdjt1uu78lxs39i0e14xx2glf8k5h,Xy2ztaUw,2020-0188,2020-05-21,15:28:56,16:01:56,NA,incomplete,28,color,1,right,Blue_Plus_Chess_1.jpg,Purple_Circle_Chess_2.jpg,Blue_Triangle_Stripes_4.jpg,right,420.5849999997299,true,NA,NA,NA,NA,NA,NA,NA,NA,true
Xy2ztaUw,338glsui56olvzhlkxidlboc564sfp,3fdjt1uu78lxs39i0e14xx2glf8k5h,Xy2ztaUw,2020-0188,2020-05-21,15:28:56,16:01:56,NA,incomplete,29,color,1,left,Green_Circle_Dots_2.jpg,Green_Triangle_Grid_4.jpg,Purple_Plus_Dots_1.jpg,left,534.0649999999441,true,NA,NA,NA,NA,NA,NA,NA,NA,true
Xy2ztaUw,338glsui56olvzhlkxidlboc564sfp,3fdjt1uu78lxs39i0e14xx2glf8k5h,Xy2ztaUw,2020-0188,2020-05-21,15:28:56,16:01:56,NA,incomplete,30,color,1,left,Green_Circle_Stripes_2.jpg,Green_Star_Dots_3.jpg,Purple_Plus_Stripes_1.jpg,left,541.7699999997858,true,NA,NA,NA,NA,NA,NA,NA,NA,true
Xy2ztaUw,338glsui56olvzhlkxidlboc564sfp,3fdjt1uu78lxs39i0e14xx2glf8k5h,Xy2ztaUw,2020-0188,2020-05-21,15:28:56,16:01:56,NA,incomplete,31,color,0,right,Blue_Circle_Grid_3.jpg,Red_Star_Grid_4.jpg,Blue_Triangle_Chess_1.jpg,right,474.00000000023283,true,NA,NA,NA,NA,NA,NA,NA,NA,true
Xy2ztaUw,338glsui56olvzhlkxidlboc564sfp,3fdjt1uu78lxs39i0e14xx2glf8k5h,Xy2ztaUw,2020-0188,2020-05-21,15:28:56,16:01:56,NA,incomplete,32,color,1,left,Blue_Plus_Chess_3.jpg,Blue_Star_Dots_1.jpg,Red_Triangle_Chess_2.jpg,left,547.2299999999814,true,NA,NA,NA,NA,NA,NA,NA,NA,true
Xy2ztaUw,338glsui56olvzhlkxidlboc564sfp,3fdjt1uu78lxs39i0e14xx2glf8k5h,Xy2ztaUw,2020-0188,2020-05-21,15:28:56,16:01:56,NA,incomplete,33,color,1,right,Blue_Circle_Stripes_2.jpg,Red_Triangle_Stripes_1.jpg,Blue_Plus_Dots_3.jpg,right,449.1499999985099,true,NA,NA,NA,NA,NA,NA,NA,NA,true
Xy2ztaUw,338glsui56olvzhlkxidlboc564sfp,3fdjt1uu78lxs39i0e14xx2glf8k5h,Xy2ztaUw,2020-0188,2020-05-21,15:28:56,16:01:56,NA,incomplete,34,color,1,right,Purple_Circle_Grid_3.jpg,Red_Plus_Grid_2.jpg,Purple_Star_Dots_1.jpg,right,501.37499999976717,true,NA,NA,NA,NA,NA,NA,NA,NA,true
Xy2ztaUw,338glsui56olvzhlkxidlboc564sfp,3fdjt1uu78lxs39i0e14xx2glf8k5h,Xy2ztaUw,2020-0188,2020-05-21,15:28:56,16:01:56,NA,incomplete,35,color,1,right,Purple_Plus_Stripes_1.jpg,Red_Triangle_Stripes_2.jpg,Purple_Star_Chess_4.jpg,right,568.4700000002049,true,NA,NA,NA,NA,NA,NA,NA,NA,true
Xy2ztaUw,338glsui56olvzhlkxidlboc564sfp,3fdjt1uu78lxs39i0e14xx2glf8k5h,Xy2ztaUw,2020-0188,2020-05-21,15:28:56,16:01:56,NA,incomplete,36,color,1,right,Green_Triangle_Grid_1.jpg,Purple_Star_Grid_4.jpg,Green_Circle_Dots_3.jpg,right,569.2349999989383,true,NA,NA,NA,NA,NA,NA,NA,NA,true
Xy2ztaUw,338glsui56olvzhlkxidlboc564sfp,3fdjt1uu78lxs39i0e14xx2glf8k5h,Xy2ztaUw,2020-0188,2020-05-21,15:28:56,16:01:56,NA,incomplete,37,color,1,right,Red_Circle_Chess_1.jpg,Blue_Triangle_Chess_4.jpg,Red_Plus_Grid_3.jpg,right,506.6950000000652,true,NA,NA,NA,NA,NA,NA,NA,NA,true
Xy2ztaUw,338glsui56olvzhlkxidlboc564sfp,3fdjt1uu78lxs39i0e14xx2glf8k5h,Xy2ztaUw,2020-0188,2020-05-21,15:28:56,16:01:56,NA,incomplete,38,color,0,left,Green_Star_Grid_4.jpg,Green_Plus_Stripes_2.jpg,Blue_Circle_Grid_3.jpg,left,450.1300000010524,true,NA,NA,NA,NA,NA,NA,NA,NA,true
Xy2ztaUw,338glsui56olvzhlkxidlboc564sfp,3fdjt1uu78lxs39i0e14xx2glf8k5h,Xy2ztaUw,2020-0188,2020-05-21,15:28:56,16:01:56,NA,incomplete,39,color,1,left,Blue_Triangle_Grid_4.jpg,Blue_Star_Stripes_2.jpg,Red_Circle_Grid_1.jpg,left,745.8449999992736,true,NA,NA,NA,NA,NA,NA,NA,NA,true
Xy2ztaUw,338glsui56olvzhlkxidlboc564sfp,3fdjt1uu78lxs39i0e14xx2glf8k5h,Xy2ztaUw,2020-0188,2020-05-21,15:28:56,16:01:56,NA,incomplete,0,filling,1,left,Red_Plus_Dots_2.jpg,Purple_Triangle_Dots_4.jpg,Red_Star_Stripes_1.jpg,none,0,false,low,NA,NA,NA,NA,NA,NA,NA,false
Xy2ztaUw,338glsui56olvzhlkxidlboc564sfp,3fdjt1uu78lxs39i0e14xx2glf8k5h,Xy2ztaUw,2020-0188,2020-05-21,15:28:56,16:01:56,NA,incomplete,1,filling,1,left,Red_Star_Stripes_1.jpg,Purple_Plus_Stripes_2.jpg,Red_Triangle_Grid_3.jpg,left,661.8150000011083,true,low,NA,NA,NA,NA,NA,NA,NA,false
Xy2ztaUw,338glsui56olvzhlkxidlboc564sfp,3fdjt1uu78lxs39i0e14xx2glf8k5h,Xy2ztaUw,2020-0188,2020-05-21,15:28:56,16:01:56,NA,incomplete,2,filling,1,left,Purple_Plus_Grid_1.jpg,Green_Triangle_Grid_2.jpg,Purple_Circle_Chess_3.jpg,left,645.660000000149,true,low,NA,NA,NA,NA,NA,NA,NA,false
Xy2ztaUw,338glsui56olvzhlkxidlboc564sfp,3fdjt1uu78lxs39i0e14xx2glf8k5h,Xy2ztaUw,2020-0188,2020-05-21,15:28:56,16:01:56,NA,incomplete,3,filling,0,left,Purple_Circle_Stripes_2.jpg,Blue_Triangle_Stripes_1.jpg,Purple_Star_Grid_4.jpg,left,692.4850000012666,true,low,NA,NA,NA,NA,NA,NA,NA,false
Xy2ztaUw,338glsui56olvzhlkxidlboc564sfp,3fdjt1uu78lxs39i0e14xx2glf8k5h,Xy2ztaUw,2020-0188,2020-05-21,15:28:56,16:01:56,NA,incomplete,4,filling,1,right,Blue_Circle_Stripes_3.jpg,Blue_Plus_Chess_2.jpg,Purple_Triangle_Stripes_1.jpg,right,578.8750000011642,true,low,NA,NA,NA,NA,NA,NA,NA,false
Xy2ztaUw,338glsui56olvzhlkxidlboc564sfp,3fdjt1uu78lxs39i0e14xx2glf8k5h,Xy2ztaUw,2020-0188,2020-05-21,15:28:56,16:01:56,NA,incomplete,5,filling,1,left,Green_Circle_Dots_4.jpg,Purple_Plus_Dots_2.jpg,Green_Triangle_Stripes_1.jpg,left,686.8400000000838,true,low,NA,NA,NA,NA,NA,NA,NA,false
Xy2ztaUw,338glsui56olvzhlkxidlboc564sfp,3fdjt1uu78lxs39i0e14xx2glf8k5h,Xy2ztaUw,2020-0188,2020-05-21,15:28:56,16:01:56,NA,incomplete,6,filling,1,left,Green_Star_Grid_3.jpg,Purple_Plus_Grid_2.jpg,Green_Triangle_Chess_4.jpg,left,750.9899999985937,true,low,NA,NA,NA,NA,NA,NA,NA,false
Xy2ztaUw,338glsui56olvzhlkxidlboc564sfp,3fdjt1uu78lxs39i0e14xx2glf8k5h,Xy2ztaUw,2020-0188,2020-05-21,15:28:56,16:01:56,NA,incomplete,7,filling,1,right,Purple_Triangle_Dots_3.jpg,Purple_Plus_Chess_2.jpg,Green_Star_Dots_4.jpg,right,609.9199999989942,true,low,NA,NA,NA,NA,NA,NA,NA,false
Xy2ztaUw,338glsui56olvzhlkxidlboc564sfp,3fdjt1uu78lxs39i0e14xx2glf8k5h,Xy2ztaUw,2020-0188,2020-05-21,15:28:56,16:01:56,NA,incomplete,8,filling,1,left,Red_Plus_Chess_3.jpg,Green_Star_Chess_2.jpg,Red_Circle_Stripes_4.jpg,left,735.255000001518,true,low,NA,NA,NA,NA,NA,NA,NA,false
Xy2ztaUw,338glsui56olvzhlkxidlboc564sfp,3fdjt1uu78lxs39i0e14xx2glf8k5h,Xy2ztaUw,2020-0188,2020-05-21,15:28:56,16:01:56,NA,incomplete,9,filling,1,right,Purple_Plus_Dots_1.jpg,Purple_Triangle_Stripes_4.jpg,Blue_Circle_Dots_2.jpg,right,572.2299999997485,true,low,NA,NA,NA,NA,NA,NA,NA,false
Xy2ztaUw,338glsui56olvzhlkxidlboc564sfp,3fdjt1uu78lxs39i0e14xx2glf8k5h,Xy2ztaUw,2020-0188,2020-05-21,15:28:56,16:01:56,NA,incomplete,10,filling,1,left,Purple_Star_Grid_1.jpg,Red_Plus_Grid_2.jpg,Purple_Triangle_Chess_3.jpg,left,618.7800000007264,true,low,NA,NA,NA,NA,NA,NA,NA,false
Xy2ztaUw,338glsui56olvzhlkxidlboc564sfp,3fdjt1uu78lxs39i0e14xx2glf8k5h,Xy2ztaUw,2020-0188,2020-05-21,15:28:56,16:01:56,NA,incomplete,11,filling,1,right,Green_Star_Dots_4.jpg,Green_Plus_Stripes_1.jpg,Blue_Triangle_Dots_2.jpg,right,555.8500000005588,true,low,NA,NA,NA,NA,NA,NA,NA,false
Xy2ztaUw,338glsui56olvzhlkxidlboc564sfp,3fdjt1uu78lxs39i0e14xx2glf8k5h,Xy2ztaUw,2020-0188,2020-05-21,15:28:56,16:01:56,NA,incomplete,12,filling,1,left,Purple_Circle_Grid_1.jpg,Blue_Plus_Grid_3.jpg,Purple_Triangle_Dots_2.jpg,left,559.0799999991432,true,low,NA,NA,NA,NA,NA,NA,NA,false
Xy2ztaUw,338glsui56olvzhlkxidlboc564sfp,3fdjt1uu78lxs39i0e14xx2glf8k5h,Xy2ztaUw,2020-0188,2020-05-21,15:28:56,16:01:56,NA,incomplete,13,filling,0,right,Red_Plus_Stripes_2.jpg,Red_Star_Grid_4.jpg,Blue_Circle_Stripes_1.jpg,right,728.4199999994598,true,low,NA,NA,NA,NA,NA,NA,NA,false
Xy2ztaUw,338glsui56olvzhlkxidlboc564sfp,3fdjt1uu78lxs39i0e14xx2glf8k5h,Xy2ztaUw,2020-0188,2020-05-21,15:28:56,16:01:56,NA,incomplete,14,filling,1,left,Green_Plus_Stripes_3.jpg,Blue_Triangle_Stripes_4.jpg,Green_Circle_Grid_2.jpg,left,617.6199999989476,true,low,NA,NA,NA,NA,NA,NA,NA,false
Xy2ztaUw,338glsui56olvzhlkxidlboc564sfp,3fdjt1uu78lxs39i0e14xx2glf8k5h,Xy2ztaUw,2020-0188,2020-05-21,15:28:56,16:01:56,NA,incomplete,15,filling,1,left,Red_Star_Chess_3.jpg,Blue_Circle_Chess_4.jpg,Red_Plus_Grid_1.jpg,left,777.5000000002328,true,low,NA,NA,NA,NA,NA,NA,NA,false
Xy2ztaUw,338glsui56olvzhlkxidlboc564sfp,3fdjt1uu78lxs39i0e14xx2glf8k5h,Xy2ztaUw,2020-0188,2020-05-21,15:28:56,16:01:56,NA,incomplete,16,filling,1,right,Blue_Circle_Dots_1.jpg,Blue_Star_Chess_2.jpg,Red_Triangle_Dots_3.jpg,right,654.5100000002421,true,low,NA,NA,NA,NA,NA,NA,NA,false
Xy2ztaUw,338glsui56olvzhlkxidlboc564sfp,3fdjt1uu78lxs39i0e14xx2glf8k5h,Xy2ztaUw,2020-0188,2020-05-21,15:28:56,16:01:56,NA,incomplete,17,filling,1,left,Green_Plus_Chess_4.jpg,Blue_Star_Chess_3.jpg,Green_Triangle_Dots_1.jpg,left,702.6099999984726,true,low,NA,NA,NA,NA,NA,NA,NA,false
Xy2ztaUw,338glsui56olvzhlkxidlboc564sfp,3fdjt1uu78lxs39i0e14xx2glf8k5h,Xy2ztaUw,2020-0188,2020-05-21,15:28:56,16:01:56,NA,incomplete,18,filling,1,right,Blue_Star_Stripes_2.jpg,Blue_Circle_Grid_1.jpg,Red_Plus_Stripes_4.jpg,right,744.3949999997858,true,low,NA,NA,NA,NA,NA,NA,NA,false
Xy2ztaUw,338glsui56olvzhlkxidlboc564sfp,3fdjt1uu78lxs39i0e14xx2glf8k5h,Xy2ztaUw,2020-0188,2020-05-21,15:28:56,16:01:56,NA,incomplete,19,filling,1,left,Red_Triangle_Stripes_1.jpg,Blue_Star_Stripes_2.jpg,Red_Circle_Chess_4.jpg,left,651.8549999999814,true,low,NA,NA,NA,NA,NA,NA,NA,false
Xy2ztaUw,338glsui56olvzhlkxidlboc564sfp,3fdjt1uu78lxs39i0e14xx2glf8k5h,Xy2ztaUw,2020-0188,2020-05-21,15:28:56,16:01:56,NA,incomplete,20,filling,0,left,Red_Star_Grid_1.jpg,Purple_Plus_Grid_4.jpg,Red_Circle_Dots_3.jpg,left,611.275000001071,true,low,NA,NA,NA,NA,NA,NA,NA,false
Xy2ztaUw,338glsui56olvzhlkxidlboc564sfp,3fdjt1uu78lxs39i0e14xx2glf8k5h,Xy2ztaUw,2020-0188,2020-05-21,15:28:56,16:01:56,NA,incomplete,21,filling,0,right,Green_Circle_Stripes_3.jpg,Green_Triangle_Dots_2.jpg,Blue_Star_Stripes_4.jpg,right,727.8100000002887,true,low,NA,NA,NA,NA,NA,NA,NA,false
Xy2ztaUw,338glsui56olvzhlkxidlboc564sfp,3fdjt1uu78lxs39i0e14xx2glf8k5h,Xy2ztaUw,2020-0188,2020-05-21,15:28:56,16:01:56,NA,incomplete,22,filling,1,left,Purple_Plus_Chess_2.jpg,Red_Circle_Chess_1.jpg,Purple_Star_Grid_3.jpg,left,655.8100000000559,true,low,NA,NA,NA,NA,NA,NA,NA,false
Xy2ztaUw,338glsui56olvzhlkxidlboc564sfp,3fdjt1uu78lxs39i0e14xx2glf8k5h,Xy2ztaUw,2020-0188,2020-05-21,15:28:56,16:01:56,NA,incomplete,23,filling,0,right,Purple_Star_Chess_2.jpg,Purple_Plus_Stripes_3.jpg,Red_Triangle_Chess_1.jpg,right,735.9250000007451,true,low,NA,NA,NA,NA,NA,NA,NA,false
Xy2ztaUw,338glsui56olvzhlkxidlboc564sfp,3fdjt1uu78lxs39i0e14xx2glf8k5h,Xy2ztaUw,2020-0188,2020-05-21,15:28:56,16:01:56,NA,incomplete,24,filling,1,left,Green_Star_Chess_4.jpg,Blue_Plus_Chess_2.jpg,Green_Triangle_Dots_3.jpg,left,610.2299999983516,true,low,NA,NA,NA,NA,NA,NA,NA,false
Xy2ztaUw,338glsui56olvzhlkxidlboc564sfp,3fdjt1uu78lxs39i0e14xx2glf8k5h,Xy2ztaUw,2020-0188,2020-05-21,15:28:56,16:01:56,NA,incomplete,25,filling,1,left,Purple_Circle_Grid_1.jpg,Red_Star_Grid_2.jpg,Purple_Triangle_Chess_4.jpg,left,1069.4999999995343,true,low,NA,NA,NA,NA,NA,NA,NA,false
Xy2ztaUw,338glsui56olvzhlkxidlboc564sfp,3fdjt1uu78lxs39i0e14xx2glf8k5h,Xy2ztaUw,2020-0188,2020-05-21,15:28:56,16:01:56,NA,incomplete,26,filling,1,right,Blue_Star_Chess_1.jpg,Blue_Triangle_Dots_2.jpg,Red_Circle_Chess_4.jpg,right,664.0950000002049,true,low,NA,NA,NA,NA,NA,NA,NA,false
Xy2ztaUw,338glsui56olvzhlkxidlboc564sfp,3fdjt1uu78lxs39i0e14xx2glf8k5h,Xy2ztaUw,2020-0188,2020-05-21,15:28:56,16:01:56,NA,incomplete,27,filling,1,left,Blue_Plus_Grid_4.jpg,Purple_Circle_Grid_1.jpg,Blue_Star_Stripes_3.jpg,left,691.6750000000466,true,low,NA,NA,NA,NA,NA,NA,NA,false
Xy2ztaUw,338glsui56olvzhlkxidlboc564sfp,3fdjt1uu78lxs39i0e14xx2glf8k5h,Xy2ztaUw,2020-0188,2020-05-21,15:28:56,16:01:56,NA,incomplete,28,filling,1,left,Green_Star_Dots_4.jpg,Purple_Circle_Dots_3.jpg,Green_Triangle_Grid_2.jpg,left,615.9850000005681,true,low,NA,NA,NA,NA,NA,NA,NA,false
Xy2ztaUw,338glsui56olvzhlkxidlboc564sfp,3fdjt1uu78lxs39i0e14xx2glf8k5h,Xy2ztaUw,2020-0188,2020-05-21,15:28:56,16:01:56,NA,incomplete,29,filling,1,right,Purple_Circle_Grid_4.jpg,Purple_Star_Dots_2.jpg,Green_Triangle_Grid_1.jpg,right,650.599999998929,true,low,NA,NA,NA,NA,NA,NA,NA,false
Xy2ztaUw,338glsui56olvzhlkxidlboc564sfp,3fdjt1uu78lxs39i0e14xx2glf8k5h,Xy2ztaUw,2020-0188,2020-05-21,15:28:56,16:01:56,NA,incomplete,30,color,1,right,Purple_Star_Stripes_3.jpg,Red_Plus_Stripes_1.jpg,Purple_Circle_Dots_2.jpg,left,572.304999999702,false,low,NA,NA,NA,NA,NA,NA,NA,false
Xy2ztaUw,338glsui56olvzhlkxidlboc564sfp,3fdjt1uu78lxs39i0e14xx2glf8k5h,Xy2ztaUw,2020-0188,2020-05-21,15:28:56,16:01:56,NA,incomplete,31,color,1,right,Red_Triangle_Chess_1.jpg,Purple_Circle_Chess_4.jpg,Red_Star_Dots_3.jpg,left,571.4550000012387,false,low,NA,NA,NA,NA,NA,NA,NA,false
Xy2ztaUw,338glsui56olvzhlkxidlboc564sfp,3fdjt1uu78lxs39i0e14xx2glf8k5h,Xy2ztaUw,2020-0188,2020-05-21,15:28:56,16:01:56,NA,incomplete,32,color,1,right,Red_Star_Chess_4.jpg,Blue_Plus_Chess_3.jpg,Red_Circle_Dots_1.jpg,left,576.1900000015739,false,low,NA,NA,NA,NA,NA,NA,NA,false
Xy2ztaUw,338glsui56olvzhlkxidlboc564sfp,3fdjt1uu78lxs39i0e14xx2glf8k5h,Xy2ztaUw,2020-0188,2020-05-21,15:28:56,16:01:56,NA,incomplete,33,color,1,right,Purple_Circle_Stripes_3.jpg,Blue_Star_Stripes_4.jpg,Purple_Plus_Grid_1.jpg,right,401.9200000001583,true,low,NA,NA,NA,NA,NA,NA,NA,false
Xy2ztaUw,338glsui56olvzhlkxidlboc564sfp,3fdjt1uu78lxs39i0e14xx2glf8k5h,Xy2ztaUw,2020-0188,2020-05-21,15:28:56,16:01:56,NA,incomplete,34,color,1,left,Green_Triangle_Dots_3.jpg,Green_Plus_Chess_2.jpg,Purple_Star_Dots_1.jpg,left,441.9999999990687,true,low,NA,NA,NA,NA,NA,NA,NA,false
Xy2ztaUw,338glsui56olvzhlkxidlboc564sfp,3fdjt1uu78lxs39i0e14xx2glf8k5h,Xy2ztaUw,2020-0188,2020-05-21,15:28:56,16:01:56,NA,incomplete,35,color,1,left,Blue_Triangle_Grid_4.jpg,Blue_Plus_Stripes_1.jpg,Red_Circle_Grid_3.jpg,left,455.3900000008289,true,low,NA,NA,NA,NA,NA,NA,NA,false
Xy2ztaUw,338glsui56olvzhlkxidlboc564sfp,3fdjt1uu78lxs39i0e14xx2glf8k5h,Xy2ztaUw,2020-0188,2020-05-21,15:28:56,16:01:56,NA,incomplete,36,color,1,right,Blue_Triangle_Chess_3.jpg,Green_Plus_Chess_4.jpg,Blue_Star_Dots_2.jpg,right,416.07499999925494,true,low,NA,NA,NA,NA,NA,NA,NA,false
Xy2ztaUw,338glsui56olvzhlkxidlboc564sfp,3fdjt1uu78lxs39i0e14xx2glf8k5h,Xy2ztaUw,2020-0188,2020-05-21,15:28:56,16:01:56,NA,incomplete,37,color,1,left,Blue_Plus_Chess_1.jpg,Blue_Star_Dots_3.jpg,Red_Triangle_Chess_4.jpg,left,413.1500000001397,true,low,NA,NA,NA,NA,NA,NA,NA,false
Xy2ztaUw,338glsui56olvzhlkxidlboc564sfp,3fdjt1uu78lxs39i0e14xx2glf8k5h,Xy2ztaUw,2020-0188,2020-05-21,15:28:56,16:01:56,NA,incomplete,38,color,1,left,Red_Star_Stripes_1.jpg,Red_Triangle_Dots_4.jpg,Purple_Plus_Stripes_2.jpg,left,394.3699999998789,true,low,NA,NA,NA,NA,NA,NA,NA,false
Xy2ztaUw,338glsui56olvzhlkxidlboc564sfp,3fdjt1uu78lxs39i0e14xx2glf8k5h,Xy2ztaUw,2020-0188,2020-05-21,15:28:56,16:01:56,NA,incomplete,39,color,1,right,Purple_Circle_Dots_2.jpg,Green_Triangle_Dots_4.jpg,Purple_Plus_Chess_1.jpg,right,407.43000000109896,true,low,NA,NA,NA,NA,NA,NA,NA,false
Xy2ztaUw,338glsui56olvzhlkxidlboc564sfp,3fdjt1uu78lxs39i0e14xx2glf8k5h,Xy2ztaUw,2020-0188,2020-05-21,15:28:56,16:01:56,NA,incomplete,40,color,1,right,Green_Circle_Dots_3.jpg,Purple_Plus_Dots_4.jpg,Green_Triangle_Chess_2.jpg,right,447.29000000003725,true,low,NA,NA,NA,NA,NA,NA,NA,false
Xy2ztaUw,338glsui56olvzhlkxidlboc564sfp,3fdjt1uu78lxs39i0e14xx2glf8k5h,Xy2ztaUw,2020-0188,2020-05-21,15:28:56,16:01:56,NA,incomplete,41,color,1,right,Purple_Star_Stripes_4.jpg,Green_Triangle_Stripes_1.jpg,Purple_Circle_Chess_2.jpg,right,397.9749999998603,true,low,NA,NA,NA,NA,NA,NA,NA,false
Xy2ztaUw,338glsui56olvzhlkxidlboc564sfp,3fdjt1uu78lxs39i0e14xx2glf8k5h,Xy2ztaUw,2020-0188,2020-05-21,15:28:56,16:01:56,NA,incomplete,42,color,1,right,Purple_Circle_Stripes_2.jpg,Red_Plus_Stripes_1.jpg,Purple_Triangle_Dots_4.jpg,right,390.7550000003539,true,low,NA,NA,NA,NA,NA,NA,NA,false
Xy2ztaUw,338glsui56olvzhlkxidlboc564sfp,3fdjt1uu78lxs39i0e14xx2glf8k5h,Xy2ztaUw,2020-0188,2020-05-21,15:28:56,16:01:56,NA,incomplete,43,color,1,left,Red_Plus_Dots_4.jpg,Red_Triangle_Grid_1.jpg,Purple_Circle_Dots_3.jpg,left,419.55500000040047,true,low,NA,NA,NA,NA,NA,NA,NA,false
Xy2ztaUw,338glsui56olvzhlkxidlboc564sfp,3fdjt1uu78lxs39i0e14xx2glf8k5h,Xy2ztaUw,2020-0188,2020-05-21,15:28:56,16:01:56,NA,incomplete,44,color,1,right,Purple_Triangle_Dots_1.jpg,Green_Circle_Dots_4.jpg,Purple_Star_Stripes_3.jpg,right,454.88500000094064,true,low,NA,NA,NA,NA,NA,NA,NA,false
Xy2ztaUw,338glsui56olvzhlkxidlboc564sfp,3fdjt1uu78lxs39i0e14xx2glf8k5h,Xy2ztaUw,2020-0188,2020-05-21,15:28:56,16:01:56,NA,incomplete,45,color,1,left,Green_Star_Stripes_3.jpg,Green_Circle_Dots_1.jpg,Purple_Plus_Stripes_2.jpg,left,404.7649999994319,true,low,NA,NA,NA,NA,NA,NA,NA,false
Xy2ztaUw,338glsui56olvzhlkxidlboc564sfp,3fdjt1uu78lxs39i0e14xx2glf8k5h,Xy2ztaUw,2020-0188,2020-05-21,15:28:56,16:01:56,NA,incomplete,46,color,1,right,Red_Plus_Grid_3.jpg,Blue_Circle_Grid_1.jpg,Red_Star_Stripes_4.jpg,right,402.830000000773,true,low,NA,NA,NA,NA,NA,NA,NA,false
Xy2ztaUw,338glsui56olvzhlkxidlboc564sfp,3fdjt1uu78lxs39i0e14xx2glf8k5h,Xy2ztaUw,2020-0188,2020-05-21,15:28:56,16:01:56,NA,incomplete,47,color,1,right,Blue_Circle_Stripes_2.jpg,Red_Plus_Stripes_1.jpg,Blue_Star_Dots_4.jpg,right,646.7849999989849,true,low,NA,NA,NA,NA,NA,NA,NA,false
Xy2ztaUw,338glsui56olvzhlkxidlboc564sfp,3fdjt1uu78lxs39i0e14xx2glf8k5h,Xy2ztaUw,2020-0188,2020-05-21,15:28:56,16:01:56,NA,incomplete,48,color,0,left,Red_Plus_Dots_1.jpg,Red_Circle_Grid_3.jpg,Purple_Star_Dots_4.jpg,left,485.84499999927357,true,low,NA,NA,NA,NA,NA,NA,NA,false
Xy2ztaUw,338glsui56olvzhlkxidlboc564sfp,3fdjt1uu78lxs39i0e14xx2glf8k5h,Xy2ztaUw,2020-0188,2020-05-21,15:28:56,16:01:56,NA,incomplete,49,color,1,left,Blue_Star_Grid_1.jpg,Blue_Circle_Dots_4.jpg,Green_Plus_Grid_3.jpg,left,422.13000000081956,true,low,NA,NA,NA,NA,NA,NA,NA,false
Xy2ztaUw,338glsui56olvzhlkxidlboc564sfp,3fdjt1uu78lxs39i0e14xx2glf8k5h,Xy2ztaUw,2020-0188,2020-05-21,15:28:56,16:01:56,NA,incomplete,50,color,0,left,Purple_Circle_Grid_1.jpg,Purple_Star_Chess_4.jpg,Blue_Triangle_Grid_2.jpg,left,622.5200000007171,true,low,NA,NA,NA,NA,NA,NA,NA,false
Xy2ztaUw,338glsui56olvzhlkxidlboc564sfp,3fdjt1uu78lxs39i0e14xx2glf8k5h,Xy2ztaUw,2020-0188,2020-05-21,15:28:56,16:01:56,NA,incomplete,51,color,1,right,Green_Plus_Stripes_1.jpg,Purple_Star_Stripes_2.jpg,Green_Circle_Chess_3.jpg,right,380.1999999997206,true,low,NA,NA,NA,NA,NA,NA,NA,false
Xy2ztaUw,338glsui56olvzhlkxidlboc564sfp,3fdjt1uu78lxs39i0e14xx2glf8k5h,Xy2ztaUw,2020-0188,2020-05-21,15:28:56,16:01:56,NA,incomplete,52,color,0,left,Purple_Circle_Chess_4.jpg,Purple_Star_Dots_1.jpg,Blue_Plus_Chess_3.jpg,left,442.68000000016764,true,low,NA,NA,NA,NA,NA,NA,NA,false
Xy2ztaUw,338glsui56olvzhlkxidlboc564sfp,3fdjt1uu78lxs39i0e14xx2glf8k5h,Xy2ztaUw,2020-0188,2020-05-21,15:28:56,16:01:56,NA,incomplete,53,color,0,right,Green_Circle_Stripes_1.jpg,Purple_Triangle_Stripes_2.jpg,Green_Star_Dots_4.jpg,right,369.39999999967404,true,low,NA,NA,NA,NA,NA,NA,NA,false
Xy2ztaUw,338glsui56olvzhlkxidlboc564sfp,3fdjt1uu78lxs39i0e14xx2glf8k5h,Xy2ztaUw,2020-0188,2020-05-21,15:28:56,16:01:56,NA,incomplete,54,color,1,right,Purple_Star_Chess_1.jpg,Red_Plus_Chess_2.jpg,Purple_Circle_Stripes_4.jpg,right,553.2550000008196,true,low,NA,NA,NA,NA,NA,NA,NA,false
Xy2ztaUw,338glsui56olvzhlkxidlboc564sfp,3fdjt1uu78lxs39i0e14xx2glf8k5h,Xy2ztaUw,2020-0188,2020-05-21,15:28:56,16:01:56,NA,incomplete,55,color,1,left,Purple_Circle_Chess_1.jpg,Purple_Plus_Dots_3.jpg,Green_Star_Chess_4.jpg,left,406.9999999993015,true,low,NA,NA,NA,NA,NA,NA,NA,false
Xy2ztaUw,338glsui56olvzhlkxidlboc564sfp,3fdjt1uu78lxs39i0e14xx2glf8k5h,Xy2ztaUw,2020-0188,2020-05-21,15:28:56,16:01:56,NA,incomplete,56,color,0,left,Green_Circle_Chess_3.jpg,Green_Plus_Dots_4.jpg,Red_Star_Chess_2.jpg,left,578.1599999989849,true,low,NA,NA,NA,NA,NA,NA,NA,false
Xy2ztaUw,338glsui56olvzhlkxidlboc564sfp,3fdjt1uu78lxs39i0e14xx2glf8k5h,Xy2ztaUw,2020-0188,2020-05-21,15:28:56,16:01:56,NA,incomplete,57,color,1,right,Green_Star_Stripes_2.jpg,Red_Circle_Stripes_1.jpg,Green_Plus_Dots_3.jpg,right,369.9799999995157,true,low,NA,NA,NA,NA,NA,NA,NA,false
Xy2ztaUw,338glsui56olvzhlkxidlboc564sfp,3fdjt1uu78lxs39i0e14xx2glf8k5h,Xy2ztaUw,2020-0188,2020-05-21,15:28:56,16:01:56,NA,incomplete,58,color,1,right,Purple_Plus_Grid_2.jpg,Red_Star_Grid_3.jpg,Purple_Triangle_Stripes_4.jpg,right,458.85499999905005,true,low,NA,NA,NA,NA,NA,NA,NA,false
Xy2ztaUw,338glsui56olvzhlkxidlboc564sfp,3fdjt1uu78lxs39i0e14xx2glf8k5h,Xy2ztaUw,2020-0188,2020-05-21,15:28:56,16:01:56,NA,incomplete,59,color,1,left,Green_Plus_Grid_1.jpg,Green_Star_Dots_4.jpg,Blue_Triangle_Grid_2.jpg,left,930.47999999905,true,low,NA,NA,NA,NA,NA,NA,NA,false
Xy2ztaUw,338glsui56olvzhlkxidlboc564sfp,3fdjt1uu78lxs39i0e14xx2glf8k5h,Xy2ztaUw,2020-0188,2020-05-21,15:28:56,16:01:56,NA,incomplete,60,filling,1,left,Green_Triangle_Chess_2.jpg,Red_Star_Chess_1.jpg,Green_Circle_Stripes_3.jpg,right,363.7650000001304,false,low,NA,NA,NA,NA,NA,NA,NA,false
Xy2ztaUw,338glsui56olvzhlkxidlboc564sfp,3fdjt1uu78lxs39i0e14xx2glf8k5h,Xy2ztaUw,2020-0188,2020-05-21,15:28:56,16:01:56,NA,incomplete,61,filling,1,right,Purple_Triangle_Stripes_4.jpg,Purple_Star_Dots_1.jpg,Green_Circle_Stripes_3.jpg,left,456.50000000023283,false,low,NA,NA,NA,NA,NA,NA,NA,false
Xy2ztaUw,338glsui56olvzhlkxidlboc564sfp,3fdjt1uu78lxs39i0e14xx2glf8k5h,Xy2ztaUw,2020-0188,2020-05-21,15:28:56,16:01:56,NA,incomplete,62,filling,1,right,Green_Circle_Dots_1.jpg,Green_Triangle_Stripes_4.jpg,Purple_Star_Dots_3.jpg,left,467.13500000094064,false,low,NA,NA,NA,NA,NA,NA,NA,false
Xy2ztaUw,338glsui56olvzhlkxidlboc564sfp,3fdjt1uu78lxs39i0e14xx2glf8k5h,Xy2ztaUw,2020-0188,2020-05-21,15:28:56,16:01:56,NA,incomplete,63,filling,1,left,Blue_Star_Stripes_2.jpg,Purple_Plus_Stripes_1.jpg,Blue_Circle_Grid_4.jpg,left,607.7799999983981,true,low,NA,NA,NA,NA,NA,NA,NA,false
Xy2ztaUw,338glsui56olvzhlkxidlboc564sfp,3fdjt1uu78lxs39i0e14xx2glf8k5h,Xy2ztaUw,2020-0188,2020-05-21,15:28:56,16:01:56,NA,incomplete,64,filling,1,left,Green_Star_Stripes_2.jpg,Purple_Circle_Stripes_4.jpg,Green_Triangle_Grid_1.jpg,left,685.3300000003073,true,low,NA,NA,NA,NA,NA,NA,NA,false
Xy2ztaUw,338glsui56olvzhlkxidlboc564sfp,3fdjt1uu78lxs39i0e14xx2glf8k5h,Xy2ztaUw,2020-0188,2020-05-21,15:28:56,16:01:56,NA,incomplete,65,filling,1,left,Green_Plus_Chess_1.jpg,Purple_Triangle_Chess_3.jpg,Green_Circle_Grid_2.jpg,left,634.3649999997579,true,low,NA,NA,NA,NA,NA,NA,NA,false
Xy2ztaUw,338glsui56olvzhlkxidlboc564sfp,3fdjt1uu78lxs39i0e14xx2glf8k5h,Xy2ztaUw,2020-0188,2020-05-21,15:28:56,16:01:56,NA,incomplete,66,filling,0,right,Purple_Circle_Chess_2.jpg,Purple_Plus_Dots_1.jpg,Green_Star_Chess_3.jpg,right,585.5249999985099,true,low,NA,NA,NA,NA,NA,NA,NA,false
Xy2ztaUw,338glsui56olvzhlkxidlboc564sfp,3fdjt1uu78lxs39i0e14xx2glf8k5h,Xy2ztaUw,2020-0188,2020-05-21,15:28:56,16:01:56,NA,incomplete,67,filling,1,left,Green_Plus_Grid_1.jpg,Purple_Star_Grid_2.jpg,Green_Triangle_Dots_3.jpg,left,586.7899999995716,true,low,NA,NA,NA,NA,NA,NA,NA,false
Xy2ztaUw,338glsui56olvzhlkxidlboc564sfp,3fdjt1uu78lxs39i0e14xx2glf8k5h,Xy2ztaUw,2020-0188,2020-05-21,15:28:56,16:01:56,NA,incomplete,68,filling,1,right,Purple_Triangle_Chess_1.jpg,Purple_Plus_Dots_4.jpg,Red_Star_Chess_3.jpg,right,544.2549999989569,true,low,NA,NA,NA,NA,NA,NA,NA,false
Xy2ztaUw,338glsui56olvzhlkxidlboc564sfp,3fdjt1uu78lxs39i0e14xx2glf8k5h,Xy2ztaUw,2020-0188,2020-05-21,15:28:56,16:01:56,NA,incomplete,69,filling,1,left,Purple_Triangle_Chess_3.jpg,Green_Star_Chess_2.jpg,Purple_Circle_Dots_1.jpg,left,477.9149999995716,true,low,NA,NA,NA,NA,NA,NA,NA,false
Xy2ztaUw,338glsui56olvzhlkxidlboc564sfp,3fdjt1uu78lxs39i0e14xx2glf8k5h,Xy2ztaUw,2020-0188,2020-05-21,15:28:56,16:01:56,NA,incomplete,70,filling,1,right,Blue_Star_Stripes_3.jpg,Blue_Plus_Dots_2.jpg,Purple_Circle_Stripes_1.jpg,right,582.1300000005867,true,low,NA,NA,NA,NA,NA,NA,NA,false
Xy2ztaUw,338glsui56olvzhlkxidlboc564sfp,3fdjt1uu78lxs39i0e14xx2glf8k5h,Xy2ztaUw,2020-0188,2020-05-21,15:28:56,16:01:56,NA,incomplete,71,filling,1,left,Green_Triangle_Stripes_3.jpg,Purple_Star_Stripes_1.jpg,Green_Circle_Dots_4.jpg,left,614.144999999553,true,low,NA,NA,NA,NA,NA,NA,NA,false
Xy2ztaUw,338glsui56olvzhlkxidlboc564sfp,3fdjt1uu78lxs39i0e14xx2glf8k5h,Xy2ztaUw,2020-0188,2020-05-21,15:28:56,16:01:56,NA,incomplete,72,filling,0,left,Green_Triangle_Chess_1.jpg,Purple_Plus_Chess_4.jpg,Green_Star_Dots_2.jpg,left,566.9949999991804,true,low,NA,NA,NA,NA,NA,NA,NA,false
Xy2ztaUw,338glsui56olvzhlkxidlboc564sfp,3fdjt1uu78lxs39i0e14xx2glf8k5h,Xy2ztaUw,2020-0188,2020-05-21,15:28:56,16:01:56,NA,incomplete,73,filling,1,left,Purple_Circle_Chess_2.jpg,Green_Star_Chess_3.jpg,Purple_Triangle_Stripes_1.jpg,left,585.5599999993574,true,low,NA,NA,NA,NA,NA,NA,NA,false
Xy2ztaUw,338glsui56olvzhlkxidlboc564sfp,3fdjt1uu78lxs39i0e14xx2glf8k5h,Xy2ztaUw,2020-0188,2020-05-21,15:28:56,16:01:56,NA,incomplete,74,filling,1,left,Red_Triangle_Grid_3.jpg,Purple_Star_Grid_2.jpg,Red_Plus_Stripes_4.jpg,left,652.9100000006147,true,low,NA,NA,NA,NA,NA,NA,NA,false
Xy2ztaUw,338glsui56olvzhlkxidlboc564sfp,3fdjt1uu78lxs39i0e14xx2glf8k5h,Xy2ztaUw,2020-0188,2020-05-21,15:28:56,16:01:56,NA,incomplete,75,filling,1,left,Red_Star_Chess_3.jpg,Blue_Triangle_Chess_4.jpg,Red_Plus_Dots_2.jpg,left,495.3100000002887,true,low,NA,NA,NA,NA,NA,NA,NA,false
Xy2ztaUw,338glsui56olvzhlkxidlboc564sfp,3fdjt1uu78lxs39i0e14xx2glf8k5h,Xy2ztaUw,2020-0188,2020-05-21,15:28:56,16:01:56,NA,incomplete,76,filling,1,left,Green_Star_Stripes_4.jpg,Blue_Circle_Stripes_2.jpg,Green_Plus_Grid_1.jpg,left,744.8750000004657,true,low,NA,NA,NA,NA,NA,NA,NA,false
Xy2ztaUw,338glsui56olvzhlkxidlboc564sfp,3fdjt1uu78lxs39i0e14xx2glf8k5h,Xy2ztaUw,2020-0188,2020-05-21,15:28:56,16:01:56,NA,incomplete,77,filling,0,right,Purple_Plus_Dots_4.jpg,Purple_Circle_Chess_1.jpg,Red_Triangle_Dots_2.jpg,right,618.6649999998044,true,low,NA,NA,NA,NA,NA,NA,NA,false
Xy2ztaUw,338glsui56olvzhlkxidlboc564sfp,3fdjt1uu78lxs39i0e14xx2glf8k5h,Xy2ztaUw,2020-0188,2020-05-21,15:28:56,16:01:56,NA,incomplete,78,filling,1,left,Purple_Star_Chess_1.jpg,Red_Circle_Chess_3.jpg,Purple_Triangle_Stripes_2.jpg,left,544.025000001071,true,low,NA,NA,NA,NA,NA,NA,NA,false
Xy2ztaUw,338glsui56olvzhlkxidlboc564sfp,3fdjt1uu78lxs39i0e14xx2glf8k5h,Xy2ztaUw,2020-0188,2020-05-21,15:28:56,16:01:56,NA,incomplete,79,filling,1,right,Purple_Star_Dots_1.jpg,Purple_Plus_Stripes_4.jpg,Blue_Circle_Dots_2.jpg,right,559.3100000005215,true,low,NA,NA,NA,NA,NA,NA,NA,false
Xy2ztaUw,338glsui56olvzhlkxidlboc564sfp,3fdjt1uu78lxs39i0e14xx2glf8k5h,Xy2ztaUw,2020-0188,2020-05-21,15:28:56,16:01:56,NA,incomplete,80,filling,1,right,Blue_Triangle_Dots_1.jpg,Blue_Circle_Grid_3.jpg,Purple_Star_Dots_4.jpg,right,634.1250000004657,true,low,NA,NA,NA,NA,NA,NA,NA,false
Xy2ztaUw,338glsui56olvzhlkxidlboc564sfp,3fdjt1uu78lxs39i0e14xx2glf8k5h,Xy2ztaUw,2020-0188,2020-05-21,15:28:56,16:01:56,NA,incomplete,81,filling,1,right,Red_Circle_Grid_1.jpg,Red_Triangle_Chess_3.jpg,Green_Star_Grid_4.jpg,right,629.9600000004284,true,low,NA,NA,NA,NA,NA,NA,NA,false
Xy2ztaUw,338glsui56olvzhlkxidlboc564sfp,3fdjt1uu78lxs39i0e14xx2glf8k5h,Xy2ztaUw,2020-0188,2020-05-21,15:28:56,16:01:56,NA,incomplete,82,filling,0,left,Purple_Plus_Stripes_3.jpg,Green_Circle_Stripes_2.jpg,Purple_Triangle_Chess_1.jpg,left,689.2150000003166,true,low,NA,NA,NA,NA,NA,NA,NA,false
Xy2ztaUw,338glsui56olvzhlkxidlboc564sfp,3fdjt1uu78lxs39i0e14xx2glf8k5h,Xy2ztaUw,2020-0188,2020-05-21,15:28:56,16:01:56,NA,incomplete,83,filling,1,right,Blue_Star_Grid_4.jpg,Blue_Circle_Dots_1.jpg,Green_Plus_Grid_2.jpg,right,574.3399999991525,true,low,NA,NA,NA,NA,NA,NA,NA,false
Xy2ztaUw,338glsui56olvzhlkxidlboc564sfp,3fdjt1uu78lxs39i0e14xx2glf8k5h,Xy2ztaUw,2020-0188,2020-05-21,15:28:56,16:01:56,NA,incomplete,84,filling,1,left,Red_Star_Chess_2.jpg,Blue_Triangle_Chess_1.jpg,Red_Circle_Dots_3.jpg,left,520.6099999996368,true,low,NA,NA,NA,NA,NA,NA,NA,false
Xy2ztaUw,338glsui56olvzhlkxidlboc564sfp,3fdjt1uu78lxs39i0e14xx2glf8k5h,Xy2ztaUw,2020-0188,2020-05-21,15:28:56,16:01:56,NA,incomplete,85,filling,1,right,Green_Circle_Chess_3.jpg,Green_Triangle_Grid_4.jpg,Purple_Plus_Chess_2.jpg,right,508.4750000005588,true,low,NA,NA,NA,NA,NA,NA,NA,false
Xy2ztaUw,338glsui56olvzhlkxidlboc564sfp,3fdjt1uu78lxs39i0e14xx2glf8k5h,Xy2ztaUw,2020-0188,2020-05-21,15:28:56,16:01:56,NA,incomplete,86,filling,1,left,Green_Plus_Stripes_4.jpg,Red_Circle_Stripes_3.jpg,Green_Star_Dots_1.jpg,left,537.4099999989849,true,low,NA,NA,NA,NA,NA,NA,NA,false
Xy2ztaUw,338glsui56olvzhlkxidlboc564sfp,3fdjt1uu78lxs39i0e14xx2glf8k5h,Xy2ztaUw,2020-0188,2020-05-21,15:28:56,16:01:56,NA,incomplete,87,filling,1,left,Purple_Triangle_Dots_3.jpg,Blue_Plus_Dots_4.jpg,Purple_Star_Stripes_2.jpg,left,693.6949999998324,true,low,NA,NA,NA,NA,NA,NA,NA,false
Xy2ztaUw,338glsui56olvzhlkxidlboc564sfp,3fdjt1uu78lxs39i0e14xx2glf8k5h,Xy2ztaUw,2020-0188,2020-05-21,15:28:56,16:01:56,NA,incomplete,88,filling,1,left,Blue_Star_Dots_2.jpg,Green_Triangle_Dots_4.jpg,Blue_Circle_Chess_3.jpg,left,619.6400000008289,true,low,NA,NA,NA,NA,NA,NA,NA,false
Xy2ztaUw,338glsui56olvzhlkxidlboc564sfp,3fdjt1uu78lxs39i0e14xx2glf8k5h,Xy2ztaUw,2020-0188,2020-05-21,15:28:56,16:01:56,NA,incomplete,89,filling,1,right,Red_Star_Grid_1.jpg,Red_Circle_Stripes_2.jpg,Purple_Triangle_Grid_4.jpg,right,570.9750000005588,true,low,NA,NA,NA,NA,NA,NA,NA,false
Xy2ztaUw,338glsui56olvzhlkxidlboc564sfp,3fdjt1uu78lxs39i0e14xx2glf8k5h,Xy2ztaUw,2020-0188,2020-05-21,15:28:56,16:01:56,NA,incomplete,90,color,0,right,Blue_Plus_Stripes_1.jpg,Purple_Star_Stripes_4.jpg,Blue_Triangle_Grid_3.jpg,left,954.0899999993853,false,low,NA,NA,NA,NA,NA,NA,NA,false
Xy2ztaUw,338glsui56olvzhlkxidlboc564sfp,3fdjt1uu78lxs39i0e14xx2glf8k5h,Xy2ztaUw,2020-0188,2020-05-21,15:28:56,16:01:56,NA,incomplete,91,color,1,left,Blue_Star_Grid_2.jpg,Blue_Triangle_Stripes_1.jpg,Red_Circle_Grid_3.jpg,right,670.5649999985471,false,low,NA,NA,NA,NA,NA,NA,NA,false
Xy2ztaUw,338glsui56olvzhlkxidlboc564sfp,3fdjt1uu78lxs39i0e14xx2glf8k5h,Xy2ztaUw,2020-0188,2020-05-21,15:28:56,16:01:56,NA,incomplete,92,color,1,left,Red_Triangle_Grid_2.jpg,Red_Star_Stripes_4.jpg,Purple_Circle_Grid_3.jpg,right,493.5150000001304,false,low,NA,NA,NA,NA,NA,NA,NA,false
Xy2ztaUw,338glsui56olvzhlkxidlboc564sfp,3fdjt1uu78lxs39i0e14xx2glf8k5h,Xy2ztaUw,2020-0188,2020-05-21,15:28:56,16:01:56,NA,incomplete,93,color,1,left,Blue_Star_Dots_2.jpg,Blue_Plus_Grid_4.jpg,Green_Triangle_Dots_1.jpg,right,523.8300000000745,false,low,NA,NA,NA,NA,NA,NA,NA,false
Xy2ztaUw,338glsui56olvzhlkxidlboc564sfp,3fdjt1uu78lxs39i0e14xx2glf8k5h,Xy2ztaUw,2020-0188,2020-05-21,15:28:56,16:01:56,NA,incomplete,94,color,1,right,Green_Circle_Chess_3.jpg,Purple_Star_Chess_1.jpg,Green_Plus_Stripes_4.jpg,left,524.7849999994505,false,low,NA,NA,NA,NA,NA,NA,NA,false
Xy2ztaUw,338glsui56olvzhlkxidlboc564sfp,3fdjt1uu78lxs39i0e14xx2glf8k5h,Xy2ztaUw,2020-0188,2020-05-21,15:28:56,16:01:56,NA,incomplete,95,color,1,right,Blue_Triangle_Grid_4.jpg,Red_Circle_Grid_2.jpg,Blue_Star_Dots_1.jpg,right,434.39500000025146,true,low,NA,NA,NA,NA,NA,NA,NA,false
Xy2ztaUw,338glsui56olvzhlkxidlboc564sfp,3fdjt1uu78lxs39i0e14xx2glf8k5h,Xy2ztaUw,2020-0188,2020-05-21,15:28:56,16:01:56,NA,incomplete,96,color,0,left,Purple_Plus_Grid_1.jpg,Purple_Triangle_Chess_3.jpg,Blue_Star_Grid_2.jpg,left,405.7049999991432,true,low,NA,NA,NA,NA,NA,NA,NA,false
Xy2ztaUw,338glsui56olvzhlkxidlboc564sfp,3fdjt1uu78lxs39i0e14xx2glf8k5h,Xy2ztaUw,2020-0188,2020-05-21,15:28:56,16:01:56,NA,incomplete,97,color,0,left,Green_Star_Chess_2.jpg,Green_Plus_Grid_1.jpg,Red_Circle_Chess_3.jpg,left,395.3249999994878,true,low,NA,NA,NA,NA,NA,NA,NA,false
Xy2ztaUw,338glsui56olvzhlkxidlboc564sfp,3fdjt1uu78lxs39i0e14xx2glf8k5h,Xy2ztaUw,2020-0188,2020-05-21,15:28:56,16:01:56,NA,incomplete,98,color,1,right,Purple_Triangle_Stripes_3.jpg,Blue_Star_Stripes_1.jpg,Purple_Plus_Grid_4.jpg,right,342.09499999997206,true,low,NA,NA,NA,NA,NA,NA,NA,false
Xy2ztaUw,338glsui56olvzhlkxidlboc564sfp,3fdjt1uu78lxs39i0e14xx2glf8k5h,Xy2ztaUw,2020-0188,2020-05-21,15:28:56,16:01:56,NA,incomplete,99,color,1,right,Blue_Triangle_Stripes_1.jpg,Red_Plus_Stripes_3.jpg,Blue_Circle_Grid_4.jpg,right,369.8149999999441,true,low,NA,NA,NA,NA,NA,NA,NA,false
Xy2ztaUw,338glsui56olvzhlkxidlboc564sfp,3fdjt1uu78lxs39i0e14xx2glf8k5h,Xy2ztaUw,2020-0188,2020-05-21,15:28:56,16:01:56,NA,incomplete,100,color,1,right,Blue_Plus_Chess_3.jpg,Red_Triangle_Chess_2.jpg,Blue_Circle_Dots_1.jpg,right,421.920000000624,true,low,NA,NA,NA,NA,NA,NA,NA,false
Xy2ztaUw,338glsui56olvzhlkxidlboc564sfp,3fdjt1uu78lxs39i0e14xx2glf8k5h,Xy2ztaUw,2020-0188,2020-05-21,15:28:56,16:01:56,NA,incomplete,101,color,0,right,Red_Star_Chess_3.jpg,Purple_Triangle_Chess_4.jpg,Red_Circle_Stripes_1.jpg,right,362.00999999884516,true,low,NA,NA,NA,NA,NA,NA,NA,false
Xy2ztaUw,338glsui56olvzhlkxidlboc564sfp,3fdjt1uu78lxs39i0e14xx2glf8k5h,Xy2ztaUw,2020-0188,2020-05-21,15:28:56,16:01:56,NA,incomplete,102,color,1,right,Green_Triangle_Chess_2.jpg,Purple_Circle_Chess_3.jpg,Green_Plus_Grid_1.jpg,right,323.58499999996275,true,low,NA,NA,NA,NA,NA,NA,NA,false
Xy2ztaUw,338glsui56olvzhlkxidlboc564sfp,3fdjt1uu78lxs39i0e14xx2glf8k5h,Xy2ztaUw,2020-0188,2020-05-21,15:28:56,16:01:56,NA,incomplete,103,color,1,right,Green_Plus_Dots_1.jpg,Blue_Star_Dots_4.jpg,Green_Triangle_Grid_3.jpg,right,356.88500000094064,true,low,NA,NA,NA,NA,NA,NA,NA,false
Xy2ztaUw,338glsui56olvzhlkxidlboc564sfp,3fdjt1uu78lxs39i0e14xx2glf8k5h,Xy2ztaUw,2020-0188,2020-05-21,15:28:56,16:01:56,NA,incomplete,104,color,0,right,Green_Circle_Grid_3.jpg,Red_Triangle_Grid_2.jpg,Green_Plus_Dots_4.jpg,right,353.8150000004098,true,low,NA,NA,NA,NA,NA,NA,NA,false
Xy2ztaUw,338glsui56olvzhlkxidlboc564sfp,3fdjt1uu78lxs39i0e14xx2glf8k5h,Xy2ztaUw,2020-0188,2020-05-21,15:28:56,16:01:56,NA,incomplete,105,color,1,left,Blue_Star_Stripes_2.jpg,Blue_Plus_Dots_4.jpg,Red_Triangle_Stripes_1.jpg,left,366.70500000030734,true,low,NA,NA,NA,NA,NA,NA,NA,false
Xy2ztaUw,338glsui56olvzhlkxidlboc564sfp,3fdjt1uu78lxs39i0e14xx2glf8k5h,Xy2ztaUw,2020-0188,2020-05-21,15:28:56,16:01:56,NA,incomplete,106,color,1,left,Blue_Star_Stripes_1.jpg,Blue_Plus_Grid_2.jpg,Red_Triangle_Stripes_3.jpg,left,366.80499999946915,true,low,NA,NA,NA,NA,NA,NA,NA,false
Xy2ztaUw,338glsui56olvzhlkxidlboc564sfp,3fdjt1uu78lxs39i0e14xx2glf8k5h,Xy2ztaUw,2020-0188,2020-05-21,15:28:56,16:01:56,NA,incomplete,107,color,1,left,Green_Circle_Stripes_4.jpg,Green_Star_Chess_2.jpg,Blue_Triangle_Stripes_3.jpg,left,442.8700000005774,true,low,NA,NA,NA,NA,NA,NA,NA,false
Xy2ztaUw,338glsui56olvzhlkxidlboc564sfp,3fdjt1uu78lxs39i0e14xx2glf8k5h,Xy2ztaUw,2020-0188,2020-05-21,15:28:56,16:01:56,NA,incomplete,108,color,1,right,Purple_Plus_Chess_1.jpg,Green_Star_Chess_2.jpg,Purple_Triangle_Stripes_3.jpg,right,362.385000000475,true,low,NA,NA,NA,NA,NA,NA,NA,false
Xy2ztaUw,338glsui56olvzhlkxidlboc564sfp,3fdjt1uu78lxs39i0e14xx2glf8k5h,Xy2ztaUw,2020-0188,2020-05-21,15:28:56,16:01:56,NA,incomplete,109,color,1,left,Blue_Circle_Stripes_1.jpg,Blue_Star_Grid_2.jpg,Purple_Plus_Stripes_3.jpg,left,456.5700000000652,true,low,NA,NA,NA,NA,NA,NA,NA,false
Xy2ztaUw,338glsui56olvzhlkxidlboc564sfp,3fdjt1uu78lxs39i0e14xx2glf8k5h,Xy2ztaUw,2020-0188,2020-05-21,15:28:56,16:01:56,NA,incomplete,110,color,0,left,Red_Star_Stripes_3.jpg,Red_Triangle_Grid_2.jpg,Green_Plus_Stripes_1.jpg,left,370.6400000008289,true,low,NA,NA,NA,NA,NA,NA,NA,false
Xy2ztaUw,338glsui56olvzhlkxidlboc564sfp,3fdjt1uu78lxs39i0e14xx2glf8k5h,Xy2ztaUw,2020-0188,2020-05-21,15:28:56,16:01:56,NA,incomplete,111,color,0,left,Purple_Circle_Chess_4.jpg,Purple_Triangle_Stripes_1.jpg,Green_Plus_Chess_3.jpg,left,436.58499999926426,true,low,NA,NA,NA,NA,NA,NA,NA,false
Xy2ztaUw,338glsui56olvzhlkxidlboc564sfp,3fdjt1uu78lxs39i0e14xx2glf8k5h,Xy2ztaUw,2020-0188,2020-05-21,15:28:56,16:01:56,NA,incomplete,112,color,0,left,Red_Plus_Chess_2.jpg,Red_Circle_Grid_3.jpg,Green_Triangle_Chess_4.jpg,right,550.0300000002608,false,low,NA,NA,NA,NA,NA,NA,NA,false
Xy2ztaUw,338glsui56olvzhlkxidlboc564sfp,3fdjt1uu78lxs39i0e14xx2glf8k5h,Xy2ztaUw,2020-0188,2020-05-21,15:28:56,16:01:56,NA,incomplete,113,color,1,right,Purple_Triangle_Stripes_1.jpg,Red_Circle_Stripes_2.jpg,Purple_Star_Chess_3.jpg,left,519.6949999991339,false,low,NA,NA,NA,NA,NA,NA,NA,false
Xy2ztaUw,338glsui56olvzhlkxidlboc564sfp,3fdjt1uu78lxs39i0e14xx2glf8k5h,Xy2ztaUw,2020-0188,2020-05-21,15:28:56,16:01:56,NA,incomplete,114,color,1,left,Blue_Triangle_Dots_2.jpg,Blue_Circle_Chess_4.jpg,Red_Plus_Dots_1.jpg,right,534.4649999989197,false,low,NA,NA,NA,NA,NA,NA,NA,false
Xy2ztaUw,338glsui56olvzhlkxidlboc564sfp,3fdjt1uu78lxs39i0e14xx2glf8k5h,Xy2ztaUw,2020-0188,2020-05-21,15:28:56,16:01:56,NA,incomplete,115,color,0,left,Blue_Triangle_Dots_4.jpg,Blue_Plus_Chess_1.jpg,Red_Star_Dots_2.jpg,right,586.3050000006333,false,low,NA,NA,NA,NA,NA,NA,NA,false
Xy2ztaUw,338glsui56olvzhlkxidlboc564sfp,3fdjt1uu78lxs39i0e14xx2glf8k5h,Xy2ztaUw,2020-0188,2020-05-21,15:28:56,16:01:56,NA,incomplete,116,color,1,left,Red_Circle_Dots_4.jpg,Red_Plus_Chess_1.jpg,Green_Triangle_Dots_3.jpg,right,483.14500000025146,false,low,NA,NA,NA,NA,NA,NA,NA,false
Xy2ztaUw,338glsui56olvzhlkxidlboc564sfp,3fdjt1uu78lxs39i0e14xx2glf8k5h,Xy2ztaUw,2020-0188,2020-05-21,15:28:56,16:01:56,NA,incomplete,117,color,0,right,Purple_Circle_Stripes_4.jpg,Blue_Triangle_Stripes_2.jpg,Purple_Star_Grid_3.jpg,right,381.21999999927357,true,low,NA,NA,NA,NA,NA,NA,NA,false
Xy2ztaUw,338glsui56olvzhlkxidlboc564sfp,3fdjt1uu78lxs39i0e14xx2glf8k5h,Xy2ztaUw,2020-0188,2020-05-21,15:28:56,16:01:56,NA,incomplete,118,color,1,right,Purple_Circle_Chess_1.jpg,Green_Plus_Chess_4.jpg,Purple_Star_Dots_2.jpg,right,439.51499999989755,true,low,NA,NA,NA,NA,NA,NA,NA,false
Xy2ztaUw,338glsui56olvzhlkxidlboc564sfp,3fdjt1uu78lxs39i0e14xx2glf8k5h,Xy2ztaUw,2020-0188,2020-05-21,15:28:56,16:01:56,NA,incomplete,119,color,1,right,Purple_Circle_Dots_4.jpg,Blue_Star_Dots_2.jpg,Purple_Plus_Grid_3.jpg,left,543.0249999989755,false,low,NA,NA,NA,NA,NA,NA,NA,false
Xy2ztaUw,338glsui56olvzhlkxidlboc564sfp,3fdjt1uu78lxs39i0e14xx2glf8k5h,Xy2ztaUw,2020-0188,2020-05-21,15:28:56,16:01:56,NA,incomplete,120,shape,1,right,Green_Circle_Stripes_1.jpg,Purple_Triangle_Chess_1.jpg,Blue_Circle_Dots_3.jpg,NA,NA,NA,low,NA,NA,NA,NA,NA,NA,NA,false
Xy2ztaUw,338glsui56olvzhlkxidlboc564sfp,3fdjt1uu78lxs39i0e14xx2glf8k5h,Xy2ztaUw,2020-0188,2020-05-21,15:28:56,16:01:56,NA,incomplete,121,shape,0,left,Green_Plus_Grid_3.jpg,Red_Plus_Chess_2.jpg,Blue_Triangle_Dots_3.jpg,left,642.3200000007637,true,low,NA,NA,NA,NA,NA,NA,NA,false
Xy2ztaUw,338glsui56olvzhlkxidlboc564sfp,3fdjt1uu78lxs39i0e14xx2glf8k5h,Xy2ztaUw,2020-0188,2020-05-21,15:28:56,16:01:56,NA,incomplete,122,shape,1,right,Green_Circle_Grid_2.jpg,Red_Star_Stripes_2.jpg,Blue_Circle_Chess_4.jpg,right,478.820000000298,true,low,NA,NA,NA,NA,NA,NA,NA,false
Xy2ztaUw,338glsui56olvzhlkxidlboc564sfp,3fdjt1uu78lxs39i0e14xx2glf8k5h,Xy2ztaUw,2020-0188,2020-05-21,15:28:56,16:01:56,NA,incomplete,123,shape,0,left,Red_Triangle_Stripes_1.jpg,Green_Triangle_Chess_2.jpg,Purple_Circle_Dots_1.jpg,left,535.2400000011548,true,low,NA,NA,NA,NA,NA,NA,NA,false
Xy2ztaUw,338glsui56olvzhlkxidlboc564sfp,3fdjt1uu78lxs39i0e14xx2glf8k5h,Xy2ztaUw,2020-0188,2020-05-21,15:28:56,16:01:56,NA,incomplete,124,shape,1,left,Red_Plus_Grid_1.jpg,Purple_Plus_Chess_3.jpg,Blue_Circle_Dots_1.jpg,left,555.8600000005681,true,low,NA,NA,NA,NA,NA,NA,NA,false
Xy2ztaUw,338glsui56olvzhlkxidlboc564sfp,3fdjt1uu78lxs39i0e14xx2glf8k5h,Xy2ztaUw,2020-0188,2020-05-21,15:28:56,16:01:56,NA,incomplete,125,shape,1,left,Purple_Plus_Stripes_1.jpg,Red_Plus_Grid_4.jpg,Blue_Star_Dots_1.jpg,left,505.1199999998789,true,low,NA,NA,NA,NA,NA,NA,NA,false
Xy2ztaUw,338glsui56olvzhlkxidlboc564sfp,3fdjt1uu78lxs39i0e14xx2glf8k5h,Xy2ztaUw,2020-0188,2020-05-21,15:28:56,16:01:56,NA,incomplete,126,shape,1,left,Purple_Triangle_Dots_3.jpg,Green_Triangle_Stripes_4.jpg,Blue_Star_Grid_3.jpg,left,486.989999999525,true,low,NA,NA,NA,NA,NA,NA,NA,false
Xy2ztaUw,338glsui56olvzhlkxidlboc564sfp,3fdjt1uu78lxs39i0e14xx2glf8k5h,Xy2ztaUw,2020-0188,2020-05-21,15:28:56,16:01:56,NA,incomplete,127,shape,1,left,Red_Plus_Grid_2.jpg,Blue_Plus_Chess_1.jpg,Purple_Circle_Stripes_2.jpg,left,517.434999999823,true,low,NA,NA,NA,NA,NA,NA,NA,false
Xy2ztaUw,338glsui56olvzhlkxidlboc564sfp,3fdjt1uu78lxs39i0e14xx2glf8k5h,Xy2ztaUw,2020-0188,2020-05-21,15:28:56,16:01:56,NA,incomplete,128,shape,1,left,Red_Star_Stripes_4.jpg,Blue_Star_Chess_3.jpg,Purple_Plus_Dots_4.jpg,left,764.744999998482,true,low,NA,NA,NA,NA,NA,NA,NA,false
Xy2ztaUw,338glsui56olvzhlkxidlboc564sfp,3fdjt1uu78lxs39i0e14xx2glf8k5h,Xy2ztaUw,2020-0188,2020-05-21,15:28:56,16:01:56,NA,incomplete,129,shape,1,left,Purple_Plus_Grid_3.jpg,Blue_Plus_Stripes_4.jpg,Red_Circle_Dots_3.jpg,left,629.4549999984447,true,low,NA,NA,NA,NA,NA,NA,NA,false
Xy2ztaUw,338glsui56olvzhlkxidlboc564sfp,3fdjt1uu78lxs39i0e14xx2glf8k5h,Xy2ztaUw,2020-0188,2020-05-21,15:28:56,16:01:56,NA,incomplete,130,shape,0,right,Green_Circle_Chess_1.jpg,Purple_Star_Grid_1.jpg,Blue_Circle_Dots_2.jpg,right,454.6750000009779,true,low,NA,NA,NA,NA,NA,NA,NA,false
Xy2ztaUw,338glsui56olvzhlkxidlboc564sfp,3fdjt1uu78lxs39i0e14xx2glf8k5h,Xy2ztaUw,2020-0188,2020-05-21,15:28:56,16:01:56,NA,incomplete,131,shape,1,left,Green_Star_Stripes_1.jpg,Blue_Star_Grid_2.jpg,Red_Triangle_Chess_1.jpg,left,460.035000000149,true,low,NA,NA,NA,NA,NA,NA,NA,false
Xy2ztaUw,338glsui56olvzhlkxidlboc564sfp,3fdjt1uu78lxs39i0e14xx2glf8k5h,Xy2ztaUw,2020-0188,2020-05-21,15:28:56,16:01:56,NA,incomplete,132,shape,0,right,Red_Triangle_Dots_3.jpg,Purple_Circle_Grid_3.jpg,Blue_Triangle_Chess_2.jpg,right,540.0300000002608,true,low,NA,NA,NA,NA,NA,NA,NA,false
Xy2ztaUw,338glsui56olvzhlkxidlboc564sfp,3fdjt1uu78lxs39i0e14xx2glf8k5h,Xy2ztaUw,2020-0188,2020-05-21,15:28:56,16:01:56,NA,incomplete,133,shape,1,left,Blue_Star_Chess_2.jpg,Purple_Star_Dots_4.jpg,Red_Plus_Stripes_2.jpg,left,533.5749999994878,true,low,NA,NA,NA,NA,NA,NA,NA,false
Xy2ztaUw,338glsui56olvzhlkxidlboc564sfp,3fdjt1uu78lxs39i0e14xx2glf8k5h,Xy2ztaUw,2020-0188,2020-05-21,15:28:56,16:01:56,NA,incomplete,134,shape,1,right,Green_Star_Stripes_4.jpg,Blue_Circle_Chess_4.jpg,Purple_Star_Dots_3.jpg,right,503.2749999992084,true,low,NA,NA,NA,NA,NA,NA,NA,false
Xy2ztaUw,338glsui56olvzhlkxidlboc564sfp,3fdjt1uu78lxs39i0e14xx2glf8k5h,Xy2ztaUw,2020-0188,2020-05-21,15:28:56,16:01:56,NA,incomplete,135,shape,1,right,Blue_Triangle_Chess_2.jpg,Green_Circle_Grid_2.jpg,Red_Triangle_Stripes_4.jpg,right,540.4650000000838,true,low,NA,NA,NA,NA,NA,NA,NA,false
Xy2ztaUw,338glsui56olvzhlkxidlboc564sfp,3fdjt1uu78lxs39i0e14xx2glf8k5h,Xy2ztaUw,2020-0188,2020-05-21,15:28:56,16:01:56,NA,incomplete,136,shape,0,left,Red_Plus_Chess_4.jpg,Green_Plus_Stripes_3.jpg,Blue_Star_Grid_4.jpg,left,519.8700000001118,true,low,NA,NA,NA,NA,NA,NA,NA,false
Xy2ztaUw,338glsui56olvzhlkxidlboc564sfp,3fdjt1uu78lxs39i0e14xx2glf8k5h,Xy2ztaUw,2020-0188,2020-05-21,15:28:56,16:01:56,NA,incomplete,137,shape,1,left,Green_Star_Stripes_3.jpg,Red_Star_Grid_4.jpg,Blue_Triangle_Chess_3.jpg,left,637.3149999999441,true,low,NA,NA,NA,NA,NA,NA,NA,false
Xy2ztaUw,338glsui56olvzhlkxidlboc564sfp,3fdjt1uu78lxs39i0e14xx2glf8k5h,Xy2ztaUw,2020-0188,2020-05-21,15:28:56,16:01:56,NA,incomplete,138,shape,1,left,Blue_Circle_Dots_4.jpg,Purple_Circle_Grid_2.jpg,Green_Star_Stripes_4.jpg,left,486.91999999945983,true,low,NA,NA,NA,NA,NA,NA,NA,false
Xy2ztaUw,338glsui56olvzhlkxidlboc564sfp,3fdjt1uu78lxs39i0e14xx2glf8k5h,Xy2ztaUw,2020-0188,2020-05-21,15:28:56,16:01:56,NA,incomplete,139,shape,1,right,Purple_Star_Stripes_4.jpg,Green_Plus_Chess_4.jpg,Blue_Star_Grid_1.jpg,right,536.3899999994319,true,low,NA,NA,NA,NA,NA,NA,NA,false
Xy2ztaUw,338glsui56olvzhlkxidlboc564sfp,3fdjt1uu78lxs39i0e14xx2glf8k5h,Xy2ztaUw,2020-0188,2020-05-21,15:28:56,16:01:56,NA,incomplete,140,number,1,left,Blue_Circle_Chess_2.jpg,Purple_Triangle_Stripes_2.jpg,Green_Circle_Dots_1.jpg,right,456.9599999994971,false,low,NA,NA,NA,NA,NA,NA,NA,false
Xy2ztaUw,338glsui56olvzhlkxidlboc564sfp,3fdjt1uu78lxs39i0e14xx2glf8k5h,Xy2ztaUw,2020-0188,2020-05-21,15:28:56,16:01:56,NA,incomplete,141,number,1,right,Red_Triangle_Stripes_4.jpg,Purple_Triangle_Chess_3.jpg,Blue_Circle_Dots_4.jpg,left,470.88499999884516,false,low,NA,NA,NA,NA,NA,NA,NA,false
Xy2ztaUw,338glsui56olvzhlkxidlboc564sfp,3fdjt1uu78lxs39i0e14xx2glf8k5h,Xy2ztaUw,2020-0188,2020-05-21,15:28:56,16:01:56,NA,incomplete,142,number,1,left,Purple_Circle_Dots_1.jpg,Blue_Plus_Grid_1.jpg,Red_Circle_Stripes_3.jpg,right,434.94499999890104,false,low,NA,NA,NA,NA,NA,NA,NA,false
Xy2ztaUw,338glsui56olvzhlkxidlboc564sfp,3fdjt1uu78lxs39i0e14xx2glf8k5h,Xy2ztaUw,2020-0188,2020-05-21,15:28:56,16:01:56,NA,incomplete,143,number,1,left,Purple_Plus_Grid_1.jpg,Blue_Star_Dots_1.jpg,Green_Plus_Chess_3.jpg,right,443.6049999985844,false,low,NA,NA,NA,NA,NA,NA,NA,false
Xy2ztaUw,338glsui56olvzhlkxidlboc564sfp,3fdjt1uu78lxs39i0e14xx2glf8k5h,Xy2ztaUw,2020-0188,2020-05-21,15:28:56,16:01:56,NA,incomplete,144,number,1,right,Purple_Plus_Stripes_3.jpg,Green_Plus_Chess_1.jpg,Red_Star_Dots_3.jpg,right,610.2449999996461,true,low,NA,NA,NA,NA,NA,NA,NA,false
Xy2ztaUw,338glsui56olvzhlkxidlboc564sfp,3fdjt1uu78lxs39i0e14xx2glf8k5h,Xy2ztaUw,2020-0188,2020-05-21,15:28:56,16:01:56,NA,incomplete,145,number,0,right,Blue_Star_Chess_4.jpg,Green_Star_Dots_2.jpg,Red_Circle_Grid_4.jpg,right,651.6549999997951,true,low,NA,NA,NA,NA,NA,NA,NA,false
Xy2ztaUw,338glsui56olvzhlkxidlboc564sfp,3fdjt1uu78lxs39i0e14xx2glf8k5h,Xy2ztaUw,2020-0188,2020-05-21,15:28:56,16:01:56,NA,incomplete,146,number,1,right,Red_Circle_Grid_1.jpg,Blue_Circle_Stripes_3.jpg,Purple_Star_Chess_1.jpg,right,759.8799999994226,true,low,NA,NA,NA,NA,NA,NA,NA,false
Xy2ztaUw,338glsui56olvzhlkxidlboc564sfp,3fdjt1uu78lxs39i0e14xx2glf8k5h,Xy2ztaUw,2020-0188,2020-05-21,15:28:56,16:01:56,NA,incomplete,147,number,1,right,Blue_Plus_Grid_1.jpg,Red_Plus_Dots_2.jpg,Green_Circle_Stripes_1.jpg,right,589.1650000012014,true,low,NA,NA,NA,NA,NA,NA,NA,false
Xy2ztaUw,338glsui56olvzhlkxidlboc564sfp,3fdjt1uu78lxs39i0e14xx2glf8k5h,Xy2ztaUw,2020-0188,2020-05-21,15:28:56,16:01:56,NA,incomplete,148,number,1,left,Blue_Triangle_Grid_2.jpg,Green_Star_Stripes_2.jpg,Red_Triangle_Dots_4.jpg,left,585.1799999999348,true,low,NA,NA,NA,NA,NA,NA,NA,false
Xy2ztaUw,338glsui56olvzhlkxidlboc564sfp,3fdjt1uu78lxs39i0e14xx2glf8k5h,Xy2ztaUw,2020-0188,2020-05-21,15:28:56,16:01:56,NA,incomplete,149,number,1,right,Red_Triangle_Grid_4.jpg,Blue_Triangle_Stripes_3.jpg,Purple_Circle_Dots_4.jpg,right,674.5099999988452,true,low,NA,NA,NA,NA,NA,NA,NA,false
Xy2ztaUw,338glsui56olvzhlkxidlboc564sfp,3fdjt1uu78lxs39i0e14xx2glf8k5h,Xy2ztaUw,2020-0188,2020-05-21,15:28:56,16:01:56,NA,incomplete,150,number,1,left,Red_Plus_Chess_3.jpg,Blue_Circle_Dots_3.jpg,Green_Plus_Stripes_1.jpg,right,496.3599999991711,false,low,NA,NA,NA,NA,NA,NA,NA,false
Xy2ztaUw,338glsui56olvzhlkxidlboc564sfp,3fdjt1uu78lxs39i0e14xx2glf8k5h,Xy2ztaUw,2020-0188,2020-05-21,15:28:56,16:01:56,NA,incomplete,151,number,1,right,Purple_Plus_Dots_1.jpg,Red_Plus_Grid_4.jpg,Green_Circle_Stripes_1.jpg,right,598.2299999995157,true,low,NA,NA,NA,NA,NA,NA,NA,false
Xy2ztaUw,338glsui56olvzhlkxidlboc564sfp,3fdjt1uu78lxs39i0e14xx2glf8k5h,Xy2ztaUw,2020-0188,2020-05-21,15:28:56,16:01:56,NA,incomplete,152,number,1,right,Red_Plus_Stripes_3.jpg,Green_Plus_Chess_4.jpg,Purple_Star_Grid_3.jpg,right,680.9649999996182,true,low,NA,NA,NA,NA,NA,NA,NA,false
Xy2ztaUw,338glsui56olvzhlkxidlboc564sfp,3fdjt1uu78lxs39i0e14xx2glf8k5h,Xy2ztaUw,2020-0188,2020-05-21,15:28:56,16:01:56,NA,incomplete,153,number,0,left,Blue_Triangle_Grid_3.jpg,Red_Star_Stripes_3.jpg,Purple_Triangle_Dots_4.jpg,right,524.7450000005774,false,low,NA,NA,NA,NA,NA,NA,NA,false
Xy2ztaUw,338glsui56olvzhlkxidlboc564sfp,3fdjt1uu78lxs39i0e14xx2glf8k5h,Xy2ztaUw,2020-0188,2020-05-21,15:28:56,16:01:56,NA,incomplete,154,number,1,right,Purple_Plus_Chess_2.jpg,Green_Plus_Dots_4.jpg,Red_Circle_Stripes_2.jpg,left,487.8699999989476,false,low,NA,NA,NA,NA,NA,NA,NA,false
Xy2ztaUw,338glsui56olvzhlkxidlboc564sfp,3fdjt1uu78lxs39i0e14xx2glf8k5h,Xy2ztaUw,2020-0188,2020-05-21,15:28:56,16:01:56,NA,incomplete,155,number,0,left,Purple_Circle_Chess_4.jpg,Green_Star_Stripes_4.jpg,Red_Circle_Dots_2.jpg,right,459.45000000018626,false,low,NA,NA,NA,NA,NA,NA,NA,false
Xy2ztaUw,338glsui56olvzhlkxidlboc564sfp,3fdjt1uu78lxs39i0e14xx2glf8k5h,Xy2ztaUw,2020-0188,2020-05-21,15:28:56,16:01:56,NA,incomplete,156,number,1,left,Blue_Triangle_Grid_3.jpg,Green_Plus_Dots_3.jpg,Purple_Triangle_Chess_1.jpg,right,652.7199999999721,false,low,NA,NA,NA,NA,NA,NA,NA,false
Xy2ztaUw,338glsui56olvzhlkxidlboc564sfp,3fdjt1uu78lxs39i0e14xx2glf8k5h,Xy2ztaUw,2020-0188,2020-05-21,15:28:56,16:01:56,NA,incomplete,157,number,0,right,Red_Star_Dots_2.jpg,Purple_Star_Stripes_4.jpg,Green_Plus_Grid_2.jpg,left,793.480000000447,false,low,NA,NA,NA,NA,NA,NA,NA,false
Xy2ztaUw,338glsui56olvzhlkxidlboc564sfp,3fdjt1uu78lxs39i0e14xx2glf8k5h,Xy2ztaUw,2020-0188,2020-05-21,15:28:56,16:01:56,NA,incomplete,158,number,1,left,Purple_Star_Stripes_4.jpg,Red_Triangle_Dots_4.jpg,Green_Star_Grid_3.jpg,right,517.0799999996088,false,low,NA,NA,NA,NA,NA,NA,NA,false
Xy2ztaUw,338glsui56olvzhlkxidlboc564sfp,3fdjt1uu78lxs39i0e14xx2glf8k5h,Xy2ztaUw,2020-0188,2020-05-21,15:28:56,16:01:56,NA,incomplete,159,number,1,right,Purple_Triangle_Stripes_1.jpg,Blue_Triangle_Grid_3.jpg,Green_Plus_Dots_1.jpg,left,629.4699999997392,false,low,NA,NA,NA,NA,NA,NA,NA,false
Xy2ztaUw,338glsui56olvzhlkxidlboc564sfp,3fdjt1uu78lxs39i0e14xx2glf8k5h,Xy2ztaUw,2020-0188,2020-05-21,15:28:56,16:01:56,NA,incomplete,160,shape,1,left,Purple_Triangle_Stripes_4.jpg,Blue_Triangle_Chess_2.jpg,Red_Plus_Dots_4.jpg,right,546.6199999991804,false,low,NA,NA,NA,NA,NA,NA,NA,false
Xy2ztaUw,338glsui56olvzhlkxidlboc564sfp,3fdjt1uu78lxs39i0e14xx2glf8k5h,Xy2ztaUw,2020-0188,2020-05-21,15:28:56,16:01:56,NA,incomplete,161,shape,1,left,Purple_Triangle_Stripes_1.jpg,Blue_Triangle_Chess_2.jpg,Green_Plus_Grid_1.jpg,left,535.1000000007916,true,low,NA,NA,NA,NA,NA,NA,NA,false
Xy2ztaUw,338glsui56olvzhlkxidlboc564sfp,3fdjt1uu78lxs39i0e14xx2glf8k5h,Xy2ztaUw,2020-0188,2020-05-21,15:28:56,16:01:56,NA,incomplete,162,shape,0,left,Red_Star_Stripes_4.jpg,Purple_Star_Grid_2.jpg,Blue_Triangle_Chess_4.jpg,left,511.65500000026077,true,low,NA,NA,NA,NA,NA,NA,NA,false
Xy2ztaUw,338glsui56olvzhlkxidlboc564sfp,3fdjt1uu78lxs39i0e14xx2glf8k5h,Xy2ztaUw,2020-0188,2020-05-21,15:28:56,16:01:56,NA,incomplete,163,shape,1,right,Purple_Triangle_Dots_2.jpg,Green_Circle_Chess_2.jpg,Red_Triangle_Stripes_3.jpg,right,948.3599999984726,true,low,NA,NA,NA,NA,NA,NA,NA,false
Xy2ztaUw,338glsui56olvzhlkxidlboc564sfp,3fdjt1uu78lxs39i0e14xx2glf8k5h,Xy2ztaUw,2020-0188,2020-05-21,15:28:56,16:01:56,NA,incomplete,164,shape,1,left,Purple_Plus_Grid_3.jpg,Blue_Plus_Dots_2.jpg,Red_Triangle_Stripes_3.jpg,left,485.16500000003725,true,low,NA,NA,NA,NA,NA,NA,NA,false
Xy2ztaUw,338glsui56olvzhlkxidlboc564sfp,3fdjt1uu78lxs39i0e14xx2glf8k5h,Xy2ztaUw,2020-0188,2020-05-21,15:28:56,16:01:56,NA,incomplete,165,shape,1,left,Green_Circle_Grid_1.jpg,Purple_Circle_Dots_3.jpg,Red_Plus_Stripes_1.jpg,left,513.56000000122,true,low,NA,NA,NA,NA,NA,NA,NA,false
Xy2ztaUw,338glsui56olvzhlkxidlboc564sfp,3fdjt1uu78lxs39i0e14xx2glf8k5h,Xy2ztaUw,2020-0188,2020-05-21,15:28:56,16:01:56,NA,incomplete,166,shape,1,left,Red_Triangle_Chess_2.jpg,Blue_Triangle_Grid_3.jpg,Purple_Circle_Stripes_2.jpg,left,435.92499999981374,true,low,NA,NA,NA,NA,NA,NA,NA,false
Xy2ztaUw,338glsui56olvzhlkxidlboc564sfp,3fdjt1uu78lxs39i0e14xx2glf8k5h,Xy2ztaUw,2020-0188,2020-05-21,15:28:56,16:01:56,NA,incomplete,167,shape,1,left,Green_Triangle_Stripes_3.jpg,Blue_Triangle_Dots_1.jpg,Red_Circle_Grid_3.jpg,left,534.7650000003632,true,low,NA,NA,NA,NA,NA,NA,NA,false
Xy2ztaUw,338glsui56olvzhlkxidlboc564sfp,3fdjt1uu78lxs39i0e14xx2glf8k5h,Xy2ztaUw,2020-0188,2020-05-21,15:28:56,16:01:56,NA,incomplete,168,shape,1,right,Red_Star_Grid_3.jpg,Green_Triangle_Stripes_3.jpg,Purple_Star_Dots_4.jpg,right,571.2899999998044,true,low,NA,NA,NA,NA,NA,NA,NA,false
Xy2ztaUw,338glsui56olvzhlkxidlboc564sfp,3fdjt1uu78lxs39i0e14xx2glf8k5h,Xy2ztaUw,2020-0188,2020-05-21,15:28:56,16:01:56,NA,incomplete,169,shape,0,left,Purple_Plus_Grid_2.jpg,Red_Plus_Dots_3.jpg,Green_Circle_Chess_2.jpg,left,462.7199999995064,true,low,NA,NA,NA,NA,NA,NA,NA,false
Xy2ztaUw,338glsui56olvzhlkxidlboc564sfp,3fdjt1uu78lxs39i0e14xx2glf8k5h,Xy2ztaUw,2020-0188,2020-05-21,15:28:56,16:01:56,NA,incomplete,170,shape,1,left,Green_Star_Chess_1.jpg,Purple_Star_Dots_3.jpg,Red_Circle_Stripes_1.jpg,left,502.5500000009779,true,low,NA,NA,NA,NA,NA,NA,NA,false
Xy2ztaUw,338glsui56olvzhlkxidlboc564sfp,3fdjt1uu78lxs39i0e14xx2glf8k5h,Xy2ztaUw,2020-0188,2020-05-21,15:28:56,16:01:56,NA,incomplete,171,shape,1,right,Red_Star_Dots_2.jpg,Green_Triangle_Stripes_2.jpg,Purple_Star_Chess_3.jpg,right,591.1049999995157,true,low,NA,NA,NA,NA,NA,NA,NA,false
Xy2ztaUw,338glsui56olvzhlkxidlboc564sfp,3fdjt1uu78lxs39i0e14xx2glf8k5h,Xy2ztaUw,2020-0188,2020-05-21,15:28:56,16:01:56,NA,incomplete,172,shape,1,left,Purple_Plus_Chess_2.jpg,Red_Plus_Grid_3.jpg,Blue_Triangle_Dots_2.jpg,left,548.8800000001211,true,low,NA,NA,NA,NA,NA,NA,NA,false
Xy2ztaUw,338glsui56olvzhlkxidlboc564sfp,3fdjt1uu78lxs39i0e14xx2glf8k5h,Xy2ztaUw,2020-0188,2020-05-21,15:28:56,16:01:56,NA,incomplete,173,shape,1,right,Purple_Circle_Chess_2.jpg,Blue_Triangle_Grid_2.jpg,Red_Circle_Stripes_4.jpg,right,566.4750000014901,true,low,NA,NA,NA,NA,NA,NA,NA,false
Xy2ztaUw,338glsui56olvzhlkxidlboc564sfp,3fdjt1uu78lxs39i0e14xx2glf8k5h,Xy2ztaUw,2020-0188,2020-05-21,15:28:56,16:01:56,NA,incomplete,174,shape,1,left,Purple_Triangle_Chess_3.jpg,Blue_Triangle_Dots_2.jpg,Red_Star_Grid_3.jpg,left,564.6450000004843,true,low,NA,NA,NA,NA,NA,NA,NA,false
Xy2ztaUw,338glsui56olvzhlkxidlboc564sfp,3fdjt1uu78lxs39i0e14xx2glf8k5h,Xy2ztaUw,2020-0188,2020-05-21,15:28:56,16:01:56,NA,incomplete,175,shape,1,left,Green_Plus_Chess_4.jpg,Red_Plus_Grid_1.jpg,Blue_Circle_Dots_4.jpg,left,466.58000000030734,true,low,NA,NA,NA,NA,NA,NA,NA,false
Xy2ztaUw,338glsui56olvzhlkxidlboc564sfp,3fdjt1uu78lxs39i0e14xx2glf8k5h,Xy2ztaUw,2020-0188,2020-05-21,15:28:56,16:01:56,NA,incomplete,176,shape,1,left,Blue_Triangle_Stripes_3.jpg,Purple_Triangle_Chess_1.jpg,Red_Star_Grid_3.jpg,left,569.5050000012852,true,low,NA,NA,NA,NA,NA,NA,NA,false
Xy2ztaUw,338glsui56olvzhlkxidlboc564sfp,3fdjt1uu78lxs39i0e14xx2glf8k5h,Xy2ztaUw,2020-0188,2020-05-21,15:28:56,16:01:56,NA,incomplete,177,shape,0,left,Blue_Star_Stripes_1.jpg,Purple_Star_Dots_2.jpg,Green_Plus_Chess_1.jpg,left,500.9499999997206,true,low,NA,NA,NA,NA,NA,NA,NA,false
Xy2ztaUw,338glsui56olvzhlkxidlboc564sfp,3fdjt1uu78lxs39i0e14xx2glf8k5h,Xy2ztaUw,2020-0188,2020-05-21,15:28:56,16:01:56,NA,incomplete,178,shape,1,right,Blue_Star_Chess_2.jpg,Purple_Triangle_Stripes_2.jpg,Green_Star_Dots_3.jpg,right,512.6950000014622,true,low,NA,NA,NA,NA,NA,NA,NA,false
Xy2ztaUw,338glsui56olvzhlkxidlboc564sfp,3fdjt1uu78lxs39i0e14xx2glf8k5h,Xy2ztaUw,2020-0188,2020-05-21,15:28:56,16:01:56,NA,incomplete,179,shape,0,left,Purple_Star_Chess_4.jpg,Blue_Star_Dots_3.jpg,Red_Circle_Grid_4.jpg,left,450.96999999997206,true,low,NA,NA,NA,NA,NA,NA,NA,false
Xy2ztaUw,338glsui56olvzhlkxidlboc564sfp,3fdjt1uu78lxs39i0e14xx2glf8k5h,Xy2ztaUw,2020-0188,2020-05-21,15:28:56,16:01:56,NA,incomplete,180,number,1,left,Blue_Star_Stripes_2.jpg,Red_Plus_Dots_2.jpg,Purple_Star_Chess_3.jpg,right,417.14499999955297,false,low,NA,NA,NA,NA,NA,NA,NA,false
Xy2ztaUw,338glsui56olvzhlkxidlboc564sfp,3fdjt1uu78lxs39i0e14xx2glf8k5h,Xy2ztaUw,2020-0188,2020-05-21,15:28:56,16:01:56,NA,incomplete,181,number,1,right,Green_Triangle_Grid_4.jpg,Purple_Triangle_Chess_2.jpg,Blue_Plus_Stripes_4.jpg,left,554.1300000003539,false,low,NA,NA,NA,NA,NA,NA,NA,false
Xy2ztaUw,338glsui56olvzhlkxidlboc564sfp,3fdjt1uu78lxs39i0e14xx2glf8k5h,Xy2ztaUw,2020-0188,2020-05-21,15:28:56,16:01:56,NA,incomplete,182,number,1,left,Blue_Triangle_Chess_2.jpg,Purple_Plus_Dots_2.jpg,Red_Triangle_Grid_3.jpg,left,538.1500000003725,true,low,NA,NA,NA,NA,NA,NA,NA,false
Xy2ztaUw,338glsui56olvzhlkxidlboc564sfp,3fdjt1uu78lxs39i0e14xx2glf8k5h,Xy2ztaUw,2020-0188,2020-05-21,15:28:56,16:01:56,NA,incomplete,183,number,1,right,Green_Triangle_Stripes_4.jpg,Red_Triangle_Dots_3.jpg,Purple_Circle_Chess_4.jpg,right,675.5200000007171,true,low,NA,NA,NA,NA,NA,NA,NA,false
Xy2ztaUw,338glsui56olvzhlkxidlboc564sfp,3fdjt1uu78lxs39i0e14xx2glf8k5h,Xy2ztaUw,2020-0188,2020-05-21,15:28:56,16:01:56,NA,incomplete,184,number,1,right,Red_Star_Grid_4.jpg,Blue_Star_Stripes_2.jpg,Purple_Triangle_Chess_4.jpg,right,495.0199999983888,true,low,NA,NA,NA,NA,NA,NA,NA,false
Xy2ztaUw,338glsui56olvzhlkxidlboc564sfp,3fdjt1uu78lxs39i0e14xx2glf8k5h,Xy2ztaUw,2020-0188,2020-05-21,15:28:56,16:01:56,NA,incomplete,185,number,1,left,Purple_Plus_Grid_1.jpg,Red_Triangle_Stripes_1.jpg,Green_Plus_Dots_3.jpg,right,569.5950000009034,false,low,NA,NA,NA,NA,NA,NA,NA,false
Xy2ztaUw,338glsui56olvzhlkxidlboc564sfp,3fdjt1uu78lxs39i0e14xx2glf8k5h,Xy2ztaUw,2020-0188,2020-05-21,15:28:56,16:01:56,NA,incomplete,186,number,1,left,Green_Triangle_Stripes_3.jpg,Red_Plus_Chess_3.jpg,Blue_Triangle_Grid_2.jpg,left,573.6500000003725,true,low,NA,NA,NA,NA,NA,NA,NA,false
Xy2ztaUw,338glsui56olvzhlkxidlboc564sfp,3fdjt1uu78lxs39i0e14xx2glf8k5h,Xy2ztaUw,2020-0188,2020-05-21,15:28:56,16:01:56,NA,incomplete,187,number,0,right,Red_Circle_Grid_2.jpg,Purple_Circle_Chess_3.jpg,Blue_Triangle_Stripes_2.jpg,right,621.6850000002887,true,low,NA,NA,NA,NA,NA,NA,NA,false
Xy2ztaUw,338glsui56olvzhlkxidlboc564sfp,3fdjt1uu78lxs39i0e14xx2glf8k5h,Xy2ztaUw,2020-0188,2020-05-21,15:28:56,16:01:56,NA,incomplete,188,number,1,right,Green_Triangle_Stripes_4.jpg,Blue_Triangle_Grid_3.jpg,Red_Circle_Dots_4.jpg,right,642.1549999995623,true,low,NA,NA,NA,NA,NA,NA,NA,false
Xy2ztaUw,338glsui56olvzhlkxidlboc564sfp,3fdjt1uu78lxs39i0e14xx2glf8k5h,Xy2ztaUw,2020-0188,2020-05-21,15:28:56,16:01:56,NA,incomplete,189,number,1,right,Red_Triangle_Grid_1.jpg,Purple_Triangle_Chess_4.jpg,Blue_Circle_Dots_1.jpg,right,524.3000000009779,true,low,NA,NA,NA,NA,NA,NA,NA,false
Xy2ztaUw,338glsui56olvzhlkxidlboc564sfp,3fdjt1uu78lxs39i0e14xx2glf8k5h,Xy2ztaUw,2020-0188,2020-05-21,15:28:56,16:01:56,NA,incomplete,190,number,0,right,Blue_Star_Stripes_2.jpg,Green_Star_Chess_4.jpg,Red_Triangle_Grid_2.jpg,right,573.1599999999162,true,low,NA,NA,NA,NA,NA,NA,NA,false
Xy2ztaUw,338glsui56olvzhlkxidlboc564sfp,3fdjt1uu78lxs39i0e14xx2glf8k5h,Xy2ztaUw,2020-0188,2020-05-21,15:28:56,16:01:56,NA,incomplete,191,number,1,left,Green_Plus_Dots_1.jpg,Purple_Circle_Chess_1.jpg,Red_Plus_Stripes_2.jpg,left,544.6749999993481,true,low,NA,NA,NA,NA,NA,NA,NA,false
Xy2ztaUw,338glsui56olvzhlkxidlboc564sfp,3fdjt1uu78lxs39i0e14xx2glf8k5h,Xy2ztaUw,2020-0188,2020-05-21,15:28:56,16:01:56,NA,incomplete,192,number,1,left,Purple_Circle_Dots_4.jpg,Green_Star_Grid_4.jpg,Blue_Circle_Chess_3.jpg,left,754.4500000001863,true,low,NA,NA,NA,NA,NA,NA,NA,false
Xy2ztaUw,338glsui56olvzhlkxidlboc564sfp,3fdjt1uu78lxs39i0e14xx2glf8k5h,Xy2ztaUw,2020-0188,2020-05-21,15:28:56,16:01:56,NA,incomplete,193,number,0,left,Blue_Circle_Dots_4.jpg,Green_Triangle_Chess_4.jpg,Red_Circle_Stripes_3.jpg,right,675.7750000015367,false,low,NA,NA,NA,NA,NA,NA,NA,false
Xy2ztaUw,338glsui56olvzhlkxidlboc564sfp,3fdjt1uu78lxs39i0e14xx2glf8k5h,Xy2ztaUw,2020-0188,2020-05-21,15:28:56,16:01:56,NA,incomplete,194,number,1,right,Red_Circle_Stripes_2.jpg,Purple_Circle_Chess_4.jpg,Green_Plus_Dots_2.jpg,left,482.79999999981374,false,low,NA,NA,NA,NA,NA,NA,NA,false
Xy2ztaUw,338glsui56olvzhlkxidlboc564sfp,3fdjt1uu78lxs39i0e14xx2glf8k5h,Xy2ztaUw,2020-0188,2020-05-21,15:28:56,16:01:56,NA,incomplete,195,number,1,right,Red_Star_Dots_3.jpg,Green_Star_Stripes_2.jpg,Purple_Plus_Chess_3.jpg,left,590.7499999993015,false,low,NA,NA,NA,NA,NA,NA,NA,false
Xy2ztaUw,338glsui56olvzhlkxidlboc564sfp,3fdjt1uu78lxs39i0e14xx2glf8k5h,Xy2ztaUw,2020-0188,2020-05-21,15:28:56,16:01:56,NA,incomplete,196,number,1,left,Red_Circle_Stripes_2.jpg,Blue_Plus_Grid_2.jpg,Green_Circle_Dots_4.jpg,left,645.6150000011548,true,low,NA,NA,NA,NA,NA,NA,NA,false
Xy2ztaUw,338glsui56olvzhlkxidlboc564sfp,3fdjt1uu78lxs39i0e14xx2glf8k5h,Xy2ztaUw,2020-0188,2020-05-21,15:28:56,16:01:56,NA,incomplete,197,number,1,right,Purple_Triangle_Grid_3.jpg,Red_Triangle_Dots_4.jpg,Green_Star_Chess_3.jpg,right,672.7899999988731,true,low,NA,NA,NA,NA,NA,NA,NA,false
Xy2ztaUw,338glsui56olvzhlkxidlboc564sfp,3fdjt1uu78lxs39i0e14xx2glf8k5h,Xy2ztaUw,2020-0188,2020-05-21,15:28:56,16:01:56,NA,incomplete,198,number,1,left,Purple_Circle_Grid_4.jpg,Green_Triangle_Stripes_4.jpg,Blue_Circle_Dots_2.jpg,left,715.6399999985006,true,low,NA,NA,NA,NA,NA,NA,NA,false
Xy2ztaUw,338glsui56olvzhlkxidlboc564sfp,3fdjt1uu78lxs39i0e14xx2glf8k5h,Xy2ztaUw,2020-0188,2020-05-21,15:28:56,16:01:56,NA,incomplete,199,number,1,right,Red_Star_Grid_1.jpg,Green_Star_Chess_2.jpg,Purple_Circle_Dots_1.jpg,right,509.03000000095926,true,low,NA,NA,NA,NA,NA,NA,NA,false
Xy2ztaUw,338glsui56olvzhlkxidlboc564sfp,3fdjt1uu78lxs39i0e14xx2glf8k5h,Xy2ztaUw,2020-0188,2020-05-21,15:28:56,16:01:56,NA,incomplete,200,shape,1,left,Blue_Circle_Grid_4.jpg,Green_Circle_Stripes_3.jpg,Purple_Plus_Chess_4.jpg,right,607.2749999985099,false,low,NA,NA,NA,NA,NA,NA,NA,false
Xy2ztaUw,338glsui56olvzhlkxidlboc564sfp,3fdjt1uu78lxs39i0e14xx2glf8k5h,Xy2ztaUw,2020-0188,2020-05-21,15:28:56,16:01:56,NA,incomplete,201,shape,1,left,Green_Triangle_Dots_1.jpg,Purple_Triangle_Chess_4.jpg,Blue_Plus_Grid_1.jpg,right,493.7300000002142,false,low,NA,NA,NA,NA,NA,NA,NA,false
Xy2ztaUw,338glsui56olvzhlkxidlboc564sfp,3fdjt1uu78lxs39i0e14xx2glf8k5h,Xy2ztaUw,2020-0188,2020-05-21,15:28:56,16:01:56,NA,incomplete,202,shape,1,left,Red_Circle_Dots_2.jpg,Blue_Circle_Grid_1.jpg,Green_Star_Chess_2.jpg,right,604.3900000003632,false,low,NA,NA,NA,NA,NA,NA,NA,false
Xy2ztaUw,338glsui56olvzhlkxidlboc564sfp,3fdjt1uu78lxs39i0e14xx2glf8k5h,Xy2ztaUw,2020-0188,2020-05-21,15:28:56,16:01:56,NA,incomplete,203,shape,1,right,Green_Plus_Chess_4.jpg,Purple_Circle_Grid_4.jpg,Red_Plus_Stripes_1.jpg,left,717.1850000014529,false,low,NA,NA,NA,NA,NA,NA,NA,false
Xy2ztaUw,338glsui56olvzhlkxidlboc564sfp,3fdjt1uu78lxs39i0e14xx2glf8k5h,Xy2ztaUw,2020-0188,2020-05-21,15:28:56,16:01:56,NA,incomplete,204,shape,0,left,Blue_Plus_Dots_4.jpg,Purple_Plus_Chess_2.jpg,Green_Circle_Grid_4.jpg,left,524.5050000012852,true,low,NA,NA,NA,NA,NA,NA,NA,false
Xy2ztaUw,338glsui56olvzhlkxidlboc564sfp,3fdjt1uu78lxs39i0e14xx2glf8k5h,Xy2ztaUw,2020-0188,2020-05-21,15:28:56,16:01:56,NA,incomplete,205,shape,1,left,Green_Plus_Dots_2.jpg,Blue_Plus_Grid_4.jpg,Red_Triangle_Stripes_2.jpg,right,549.9299999992363,false,low,NA,NA,NA,NA,NA,NA,NA,false
Xy2ztaUw,338glsui56olvzhlkxidlboc564sfp,3fdjt1uu78lxs39i0e14xx2glf8k5h,Xy2ztaUw,2020-0188,2020-05-21,15:28:56,16:01:56,NA,incomplete,206,shape,1,left,Green_Star_Chess_4.jpg,Purple_Star_Stripes_1.jpg,Red_Circle_Grid_4.jpg,left,545.4200000003912,true,low,NA,NA,NA,NA,NA,NA,NA,false
Xy2ztaUw,338glsui56olvzhlkxidlboc564sfp,3fdjt1uu78lxs39i0e14xx2glf8k5h,Xy2ztaUw,2020-0188,2020-05-21,15:28:56,16:01:56,NA,incomplete,207,shape,1,right,Red_Triangle_Dots_4.jpg,Purple_Star_Chess_4.jpg,Green_Triangle_Grid_2.jpg,right,580.635000000475,true,low,NA,NA,NA,NA,NA,NA,NA,false
Xy2ztaUw,338glsui56olvzhlkxidlboc564sfp,3fdjt1uu78lxs39i0e14xx2glf8k5h,Xy2ztaUw,2020-0188,2020-05-21,15:28:56,16:01:56,NA,incomplete,208,shape,0,right,Green_Circle_Dots_3.jpg,Purple_Triangle_Stripes_3.jpg,Blue_Circle_Chess_4.jpg,right,592.1749999998137,true,low,NA,NA,NA,NA,NA,NA,NA,false
Xy2ztaUw,338glsui56olvzhlkxidlboc564sfp,3fdjt1uu78lxs39i0e14xx2glf8k5h,Xy2ztaUw,2020-0188,2020-05-21,15:28:56,16:01:56,NA,incomplete,209,shape,1,left,Red_Star_Grid_2.jpg,Purple_Star_Dots_4.jpg,Green_Triangle_Chess_2.jpg,left,554.7800000004936,true,low,NA,NA,NA,NA,NA,NA,NA,false
Xy2ztaUw,338glsui56olvzhlkxidlboc564sfp,3fdjt1uu78lxs39i0e14xx2glf8k5h,Xy2ztaUw,2020-0188,2020-05-21,15:28:56,16:01:56,NA,incomplete,210,shape,1,left,Purple_Star_Stripes_3.jpg,Green_Star_Dots_2.jpg,Blue_Circle_Chess_3.jpg,left,559.8400000000838,true,low,NA,NA,NA,NA,NA,NA,NA,false
Xy2ztaUw,338glsui56olvzhlkxidlboc564sfp,3fdjt1uu78lxs39i0e14xx2glf8k5h,Xy2ztaUw,2020-0188,2020-05-21,15:28:56,16:01:56,NA,incomplete,211,shape,1,left,Purple_Triangle_Chess_4.jpg,Red_Triangle_Stripes_2.jpg,Green_Circle_Grid_4.jpg,left,555.2850000003818,true,low,NA,NA,NA,NA,NA,NA,NA,false
Xy2ztaUw,338glsui56olvzhlkxidlboc564sfp,3fdjt1uu78lxs39i0e14xx2glf8k5h,Xy2ztaUw,2020-0188,2020-05-21,15:28:56,16:01:56,NA,incomplete,212,shape,0,right,Purple_Circle_Dots_2.jpg,Red_Plus_Grid_2.jpg,Green_Circle_Chess_4.jpg,right,554.779999998631,true,low,NA,NA,NA,NA,NA,NA,NA,false
Xy2ztaUw,338glsui56olvzhlkxidlboc564sfp,3fdjt1uu78lxs39i0e14xx2glf8k5h,Xy2ztaUw,2020-0188,2020-05-21,15:28:56,16:01:56,NA,incomplete,213,shape,1,right,Green_Star_Dots_4.jpg,Red_Circle_Grid_4.jpg,Blue_Star_Chess_1.jpg,right,542.7500000006985,true,low,NA,NA,NA,NA,NA,NA,NA,false
Xy2ztaUw,338glsui56olvzhlkxidlboc564sfp,3fdjt1uu78lxs39i0e14xx2glf8k5h,Xy2ztaUw,2020-0188,2020-05-21,15:28:56,16:01:56,NA,incomplete,214,shape,1,right,Red_Star_Grid_4.jpg,Blue_Circle_Dots_4.jpg,Purple_Star_Chess_3.jpg,right,502.37999999988824,true,low,NA,NA,NA,NA,NA,NA,NA,false
Xy2ztaUw,338glsui56olvzhlkxidlboc564sfp,3fdjt1uu78lxs39i0e14xx2glf8k5h,Xy2ztaUw,2020-0188,2020-05-21,15:28:56,16:01:56,NA,incomplete,215,shape,1,left,Blue_Circle_Stripes_4.jpg,Green_Circle_Chess_2.jpg,Purple_Plus_Dots_4.jpg,left,454.03499999898486,true,low,NA,NA,NA,NA,NA,NA,NA,false
Xy2ztaUw,338glsui56olvzhlkxidlboc564sfp,3fdjt1uu78lxs39i0e14xx2glf8k5h,Xy2ztaUw,2020-0188,2020-05-21,15:28:56,16:01:56,NA,incomplete,216,shape,1,right,Blue_Triangle_Dots_1.jpg,Green_Circle_Grid_1.jpg,Purple_Triangle_Stripes_3.jpg,right,494.05999999912456,true,low,NA,NA,NA,NA,NA,NA,NA,false
Xy2ztaUw,338glsui56olvzhlkxidlboc564sfp,3fdjt1uu78lxs39i0e14xx2glf8k5h,Xy2ztaUw,2020-0188,2020-05-21,15:28:56,16:01:56,NA,incomplete,217,shape,1,right,Red_Triangle_Dots_3.jpg,Blue_Star_Stripes_3.jpg,Purple_Triangle_Chess_1.jpg,left,498.77000000025146,false,low,NA,NA,NA,NA,NA,NA,NA,false
Xy2ztaUw,338glsui56olvzhlkxidlboc564sfp,3fdjt1uu78lxs39i0e14xx2glf8k5h,Xy2ztaUw,2020-0188,2020-05-21,15:28:56,16:01:56,NA,incomplete,218,shape,0,left,Purple_Triangle_Chess_2.jpg,Red_Triangle_Stripes_4.jpg,Blue_Star_Grid_2.jpg,left,541.399999998277,true,low,NA,NA,NA,NA,NA,NA,NA,false
Xy2ztaUw,338glsui56olvzhlkxidlboc564sfp,3fdjt1uu78lxs39i0e14xx2glf8k5h,Xy2ztaUw,2020-0188,2020-05-21,15:28:56,16:01:56,NA,incomplete,219,shape,1,right,Red_Plus_Stripes_2.jpg,Green_Star_Grid_2.jpg,Blue_Plus_Dots_4.jpg,right,560.864999999525,true,low,NA,NA,NA,NA,NA,NA,NA,false
Xy2ztaUw,338glsui56olvzhlkxidlboc564sfp,3fdjt1uu78lxs39i0e14xx2glf8k5h,Xy2ztaUw,2020-0188,2020-05-21,15:28:56,16:01:56,NA,incomplete,220,number,1,left,Red_Star_Dots_4.jpg,Green_Plus_Grid_4.jpg,Blue_Star_Chess_1.jpg,right,530.7900000005029,false,low,NA,NA,NA,NA,NA,NA,NA,false
Xy2ztaUw,338glsui56olvzhlkxidlboc564sfp,3fdjt1uu78lxs39i0e14xx2glf8k5h,Xy2ztaUw,2020-0188,2020-05-21,15:28:56,16:01:56,NA,incomplete,221,number,1,left,Purple_Plus_Chess_1.jpg,Blue_Triangle_Stripes_1.jpg,Red_Plus_Grid_4.jpg,right,567.9699999999721,false,low,NA,NA,NA,NA,NA,NA,NA,false
Xy2ztaUw,338glsui56olvzhlkxidlboc564sfp,3fdjt1uu78lxs39i0e14xx2glf8k5h,Xy2ztaUw,2020-0188,2020-05-21,15:28:56,16:01:56,NA,incomplete,222,number,1,left,Green_Triangle_Chess_4.jpg,Red_Plus_Stripes_4.jpg,Purple_Triangle_Dots_3.jpg,right,547.5449999994598,false,low,NA,NA,NA,NA,NA,NA,NA,false
Xy2ztaUw,338glsui56olvzhlkxidlboc564sfp,3fdjt1uu78lxs39i0e14xx2glf8k5h,Xy2ztaUw,2020-0188,2020-05-21,15:28:56,16:01:56,NA,incomplete,223,number,1,left,Blue_Plus_Dots_2.jpg,Red_Star_Chess_2.jpg,Purple_Plus_Grid_3.jpg,left,857.39500000095,true,low,NA,NA,NA,NA,NA,NA,NA,false
Xy2ztaUw,338glsui56olvzhlkxidlboc564sfp,3fdjt1uu78lxs39i0e14xx2glf8k5h,Xy2ztaUw,2020-0188,2020-05-21,15:28:56,16:01:56,NA,incomplete,224,number,0,left,Blue_Circle_Dots_1.jpg,Red_Triangle_Stripes_1.jpg,Green_Circle_Grid_4.jpg,left,558.0250000001397,true,low,NA,NA,NA,NA,NA,NA,NA,false
Xy2ztaUw,338glsui56olvzhlkxidlboc564sfp,3fdjt1uu78lxs39i0e14xx2glf8k5h,Xy2ztaUw,2020-0188,2020-05-21,15:28:56,16:01:56,NA,incomplete,225,number,1,right,Purple_Circle_Stripes_2.jpg,Red_Circle_Chess_3.jpg,Green_Plus_Dots_2.jpg,right,807.9699999997392,true,low,NA,NA,NA,NA,NA,NA,NA,false
Xy2ztaUw,338glsui56olvzhlkxidlboc564sfp,3fdjt1uu78lxs39i0e14xx2glf8k5h,Xy2ztaUw,2020-0188,2020-05-21,15:28:56,16:01:56,NA,incomplete,226,number,1,right,Purple_Triangle_Dots_3.jpg,Green_Triangle_Stripes_4.jpg,Blue_Circle_Chess_3.jpg,right,762.1550000004936,true,low,NA,NA,NA,NA,NA,NA,NA,false
Xy2ztaUw,338glsui56olvzhlkxidlboc564sfp,3fdjt1uu78lxs39i0e14xx2glf8k5h,Xy2ztaUw,2020-0188,2020-05-21,15:28:56,16:01:56,NA,incomplete,227,number,1,left,Green_Triangle_Stripes_4.jpg,Purple_Circle_Chess_4.jpg,Red_Triangle_Dots_1.jpg,left,752.679999999702,true,low,NA,NA,NA,NA,NA,NA,NA,false
Xy2ztaUw,338glsui56olvzhlkxidlboc564sfp,3fdjt1uu78lxs39i0e14xx2glf8k5h,Xy2ztaUw,2020-0188,2020-05-21,15:28:56,16:01:56,NA,incomplete,228,number,1,left,Green_Triangle_Chess_4.jpg,Blue_Star_Stripes_4.jpg,Red_Triangle_Grid_2.jpg,left,676.6349999997765,true,low,NA,NA,NA,NA,NA,NA,NA,false
Xy2ztaUw,338glsui56olvzhlkxidlboc564sfp,3fdjt1uu78lxs39i0e14xx2glf8k5h,Xy2ztaUw,2020-0188,2020-05-21,15:28:56,16:01:56,NA,incomplete,229,number,1,right,Red_Plus_Dots_3.jpg,Purple_Plus_Grid_1.jpg,Blue_Triangle_Chess_3.jpg,right,546.6999999990221,true,low,NA,NA,NA,NA,NA,NA,NA,false
Xy2ztaUw,338glsui56olvzhlkxidlboc564sfp,3fdjt1uu78lxs39i0e14xx2glf8k5h,Xy2ztaUw,2020-0188,2020-05-21,15:28:56,16:01:56,NA,incomplete,230,number,1,left,Purple_Circle_Dots_1.jpg,Green_Triangle_Grid_1.jpg,Blue_Circle_Chess_4.jpg,right,570.2799999997951,false,low,NA,NA,NA,NA,NA,NA,NA,false
Xy2ztaUw,338glsui56olvzhlkxidlboc564sfp,3fdjt1uu78lxs39i0e14xx2glf8k5h,Xy2ztaUw,2020-0188,2020-05-21,15:28:56,16:01:56,NA,incomplete,231,number,0,right,Blue_Star_Chess_2.jpg,Red_Star_Dots_1.jpg,Purple_Triangle_Stripes_2.jpg,right,633.8550000002142,true,low,NA,NA,NA,NA,NA,NA,NA,false
Xy2ztaUw,338glsui56olvzhlkxidlboc564sfp,3fdjt1uu78lxs39i0e14xx2glf8k5h,Xy2ztaUw,2020-0188,2020-05-21,15:28:56,16:01:56,NA,incomplete,232,number,1,left,Red_Circle_Grid_3.jpg,Purple_Triangle_Stripes_3.jpg,Blue_Circle_Dots_2.jpg,left,649.3800000008196,true,low,NA,NA,NA,NA,NA,NA,NA,false
Xy2ztaUw,338glsui56olvzhlkxidlboc564sfp,3fdjt1uu78lxs39i0e14xx2glf8k5h,Xy2ztaUw,2020-0188,2020-05-21,15:28:56,16:01:56,NA,incomplete,233,number,1,left,Green_Star_Dots_1.jpg,Red_Circle_Grid_1.jpg,Blue_Star_Chess_2.jpg,left,545.3649999999907,true,low,NA,NA,NA,NA,NA,NA,NA,false
Xy2ztaUw,338glsui56olvzhlkxidlboc564sfp,3fdjt1uu78lxs39i0e14xx2glf8k5h,Xy2ztaUw,2020-0188,2020-05-21,15:28:56,16:01:56,NA,incomplete,234,number,1,right,Green_Triangle_Dots_1.jpg,Red_Triangle_Stripes_3.jpg,Purple_Plus_Chess_1.jpg,right,529.9550000017043,true,low,NA,NA,NA,NA,NA,NA,NA,false
Xy2ztaUw,338glsui56olvzhlkxidlboc564sfp,3fdjt1uu78lxs39i0e14xx2glf8k5h,Xy2ztaUw,2020-0188,2020-05-21,15:28:56,16:01:56,NA,incomplete,235,number,0,left,Blue_Triangle_Chess_2.jpg,Red_Circle_Dots_2.jpg,Purple_Triangle_Grid_1.jpg,left,599.1749999993481,true,low,NA,NA,NA,NA,NA,NA,NA,false
Xy2ztaUw,338glsui56olvzhlkxidlboc564sfp,3fdjt1uu78lxs39i0e14xx2glf8k5h,Xy2ztaUw,2020-0188,2020-05-21,15:28:56,16:01:56,NA,incomplete,236,number,1,right,Blue_Star_Chess_1.jpg,Green_Star_Grid_3.jpg,Purple_Circle_Dots_1.jpg,right,499.98000000067987,true,low,NA,NA,NA,NA,NA,NA,NA,false
Xy2ztaUw,338glsui56olvzhlkxidlboc564sfp,3fdjt1uu78lxs39i0e14xx2glf8k5h,Xy2ztaUw,2020-0188,2020-05-21,15:28:56,16:01:56,NA,incomplete,237,number,1,left,Green_Star_Chess_2.jpg,Purple_Plus_Dots_2.jpg,Red_Star_Grid_3.jpg,left,656.600000000326,true,low,NA,NA,NA,NA,NA,NA,NA,false
Xy2ztaUw,338glsui56olvzhlkxidlboc564sfp,3fdjt1uu78lxs39i0e14xx2glf8k5h,Xy2ztaUw,2020-0188,2020-05-21,15:28:56,16:01:56,NA,incomplete,238,number,0,left,Blue_Triangle_Grid_1.jpg,Purple_Plus_Stripes_1.jpg,Red_Triangle_Dots_2.jpg,left,601.77000000095,true,low,NA,NA,NA,NA,NA,NA,NA,false
Xy2ztaUw,338glsui56olvzhlkxidlboc564sfp,3fdjt1uu78lxs39i0e14xx2glf8k5h,Xy2ztaUw,2020-0188,2020-05-21,15:28:56,16:01:56,NA,incomplete,239,number,1,right,Red_Triangle_Dots_2.jpg,Green_Triangle_Grid_1.jpg,Purple_Star_Stripes_2.jpg,right,531.6950000014622,true,low,NA,NA,NA,NA,NA,NA,NA,false
Xy2ztaUw,338glsui56olvzhlkxidlboc564sfp,3fdjt1uu78lxs39i0e14xx2glf8k5h,Xy2ztaUw,2020-0188,2020-05-21,15:28:56,16:01:56,NA,NA,instruction example,filling,NA,NA,Red_Plus_Dots_3.jpg,Blue_Star_Dots_4.jpg,Red_Triangle_Grid_1.jpg,NA,NA,NA,NA,NA,NA,NA,NA,NA,NA,NA,undefined
Xy2ztaUw,338glsui56olvzhlkxidlboc564sfp,3fdjt1uu78lxs39i0e14xx2glf8k5h,Xy2ztaUw,2020-0188,2020-05-21,15:28:56,16:01:56,NA,NA,instruction example,filling,NA,NA,Red_Plus_Stripes_3.jpg,Red_Circle_Chess_1.jpg,Blue_Star_Stripes_2.jpg,NA,NA,NA,NA,NA,NA,NA,NA,NA,NA,NA,undefined
Xy2ztaUw,338glsui56olvzhlkxidlboc564sfp,3fdjt1uu78lxs39i0e14xx2glf8k5h,Xy2ztaUw,2020-0188,2020-05-21,15:28:56,16:01:56,NA,NA,instruction example,filling,NA,NA,Red_Plus_Stripes_3.jpg,Blue_Plus_Chess_4.jpg,Green_Star_Dots_3.jpg,NA,NA,NA,NA,NA,NA,NA,NA,NA,NA,NA,undefined
Xy2ztaUw,338glsui56olvzhlkxidlboc564sfp,3fdjt1uu78lxs39i0e14xx2glf8k5h,Xy2ztaUw,2020-0188,2020-05-21,15:28:56,16:01:56,NA,NA,instruction example,filling,NA,NA,Red_Star_Dots_4.jpg,Purple_Triangle_Chess_4.jpg,Green_Star_Stripes_3.jpg,NA,NA,NA,NA,NA,NA,NA,NA,NA,NA,NA,undefined
Xy2ztaUw,338glsui56olvzhlkxidlboc564sfp,3fdjt1uu78lxs39i0e14xx2glf8k5h,Xy2ztaUw,2020-0188,2020-05-21,15:28:56,16:01:56,1943444.9800000002,1981640.1050000004,NA,NA,NA,NA,NA,NA,NA,NA,NA,NA,NA,24,White/Caucasian,Female,Caucasian American ,no,no,no,undefined
