workerId,hitId,assignmentId,subject,studyid,exp_date,exp_start,exp_end,time_start,time_end,trial,type,reward_validity,answer,image_top,image_left,image_right,response,response_time,response_acc,volatility,age,race,gender,ethnicity,color,vision,neuro,practice
s2fkS6bn,3peg1bh7bh4xuzsxamnfbz6ha40bkr,3fq5jj512p11isfo4exqre22gxiknf,s2fkS6bn,2020-0188,2020-06-16,00:51:23,01:11:00,NA,incomplete,0,color,1,left,Red_Triangle_Stripes_4.jpg,Red_Star_Chess_2.jpg,Purple_Plus_Stripes_1.jpg,left,875.6599999978789,true,NA,NA,NA,NA,NA,NA,NA,NA,true
s2fkS6bn,3peg1bh7bh4xuzsxamnfbz6ha40bkr,3fq5jj512p11isfo4exqre22gxiknf,s2fkS6bn,2020-0188,2020-06-16,00:51:23,01:11:00,NA,incomplete,1,color,1,left,Green_Triangle_Dots_2.jpg,Green_Plus_Chess_1.jpg,Purple_Circle_Dots_3.jpg,left,512.3999999996158,true,NA,NA,NA,NA,NA,NA,NA,NA,true
s2fkS6bn,3peg1bh7bh4xuzsxamnfbz6ha40bkr,3fq5jj512p11isfo4exqre22gxiknf,s2fkS6bn,2020-0188,2020-06-16,00:51:23,01:11:00,NA,incomplete,2,color,1,left,Purple_Star_Dots_4.jpg,Purple_Plus_Chess_2.jpg,Blue_Circle_Dots_1.jpg,left,459.6799999999348,true,NA,NA,NA,NA,NA,NA,NA,NA,true
s2fkS6bn,3peg1bh7bh4xuzsxamnfbz6ha40bkr,3fq5jj512p11isfo4exqre22gxiknf,s2fkS6bn,2020-0188,2020-06-16,00:51:23,01:11:00,NA,incomplete,3,color,1,left,Purple_Triangle_Grid_4.jpg,Purple_Circle_Dots_2.jpg,Red_Star_Grid_3.jpg,left,505.6800000020303,true,NA,NA,NA,NA,NA,NA,NA,NA,true
s2fkS6bn,3peg1bh7bh4xuzsxamnfbz6ha40bkr,3fq5jj512p11isfo4exqre22gxiknf,s2fkS6bn,2020-0188,2020-06-16,00:51:23,01:11:00,NA,incomplete,4,color,1,right,Green_Triangle_Chess_3.jpg,Red_Star_Chess_1.jpg,Green_Plus_Dots_2.jpg,right,420.9800000026007,true,NA,NA,NA,NA,NA,NA,NA,NA,true
s2fkS6bn,3peg1bh7bh4xuzsxamnfbz6ha40bkr,3fq5jj512p11isfo4exqre22gxiknf,s2fkS6bn,2020-0188,2020-06-16,00:51:23,01:11:00,NA,incomplete,5,color,1,left,Green_Triangle_Grid_2.jpg,Green_Star_Stripes_1.jpg,Red_Plus_Grid_4.jpg,left,407.37500000250293,true,NA,NA,NA,NA,NA,NA,NA,NA,true
s2fkS6bn,3peg1bh7bh4xuzsxamnfbz6ha40bkr,3fq5jj512p11isfo4exqre22gxiknf,s2fkS6bn,2020-0188,2020-06-16,00:51:23,01:11:00,NA,incomplete,6,color,1,right,Purple_Circle_Dots_1.jpg,Red_Plus_Dots_4.jpg,Purple_Star_Grid_2.jpg,right,382.85999999789055,true,NA,NA,NA,NA,NA,NA,NA,NA,true
s2fkS6bn,3peg1bh7bh4xuzsxamnfbz6ha40bkr,3fq5jj512p11isfo4exqre22gxiknf,s2fkS6bn,2020-0188,2020-06-16,00:51:23,01:11:00,NA,incomplete,7,color,1,right,Green_Triangle_Grid_3.jpg,Blue_Star_Grid_2.jpg,Green_Circle_Dots_4.jpg,right,389.1349999976228,true,NA,NA,NA,NA,NA,NA,NA,NA,true
s2fkS6bn,3peg1bh7bh4xuzsxamnfbz6ha40bkr,3fq5jj512p11isfo4exqre22gxiknf,s2fkS6bn,2020-0188,2020-06-16,00:51:23,01:11:00,NA,incomplete,8,color,1,left,Blue_Star_Dots_2.jpg,Blue_Plus_Chess_3.jpg,Purple_Triangle_Dots_1.jpg,left,515.095000002475,true,NA,NA,NA,NA,NA,NA,NA,NA,true
s2fkS6bn,3peg1bh7bh4xuzsxamnfbz6ha40bkr,3fq5jj512p11isfo4exqre22gxiknf,s2fkS6bn,2020-0188,2020-06-16,00:51:23,01:11:00,NA,incomplete,9,color,0,left,Purple_Triangle_Grid_3.jpg,Purple_Plus_Chess_1.jpg,Green_Circle_Grid_4.jpg,left,448.4749999974156,true,NA,NA,NA,NA,NA,NA,NA,NA,true
s2fkS6bn,3peg1bh7bh4xuzsxamnfbz6ha40bkr,3fq5jj512p11isfo4exqre22gxiknf,s2fkS6bn,2020-0188,2020-06-16,00:51:23,01:11:00,NA,incomplete,10,color,0,right,Blue_Circle_Grid_3.jpg,Red_Triangle_Grid_2.jpg,Blue_Plus_Chess_4.jpg,right,394.3699999945238,true,NA,NA,NA,NA,NA,NA,NA,NA,true
s2fkS6bn,3peg1bh7bh4xuzsxamnfbz6ha40bkr,3fq5jj512p11isfo4exqre22gxiknf,s2fkS6bn,2020-0188,2020-06-16,00:51:23,01:11:00,NA,incomplete,11,color,1,right,Red_Circle_Stripes_1.jpg,Blue_Plus_Stripes_2.jpg,Red_Triangle_Chess_3.jpg,right,424.93000000104075,true,NA,NA,NA,NA,NA,NA,NA,NA,true
s2fkS6bn,3peg1bh7bh4xuzsxamnfbz6ha40bkr,3fq5jj512p11isfo4exqre22gxiknf,s2fkS6bn,2020-0188,2020-06-16,00:51:23,01:11:00,NA,incomplete,12,color,0,right,Blue_Triangle_Dots_3.jpg,Purple_Plus_Dots_4.jpg,Blue_Star_Chess_1.jpg,right,438.83500000083586,true,NA,NA,NA,NA,NA,NA,NA,NA,true
s2fkS6bn,3peg1bh7bh4xuzsxamnfbz6ha40bkr,3fq5jj512p11isfo4exqre22gxiknf,s2fkS6bn,2020-0188,2020-06-16,00:51:23,01:11:00,NA,incomplete,13,color,0,left,Green_Circle_Dots_1.jpg,Green_Star_Chess_2.jpg,Red_Triangle_Dots_4.jpg,left,434.9750000037602,true,NA,NA,NA,NA,NA,NA,NA,NA,true
s2fkS6bn,3peg1bh7bh4xuzsxamnfbz6ha40bkr,3fq5jj512p11isfo4exqre22gxiknf,s2fkS6bn,2020-0188,2020-06-16,00:51:23,01:11:00,NA,incomplete,14,color,1,right,Red_Star_Grid_3.jpg,Blue_Plus_Grid_4.jpg,Red_Triangle_Stripes_1.jpg,right,385.7700000007753,true,NA,NA,NA,NA,NA,NA,NA,NA,true
s2fkS6bn,3peg1bh7bh4xuzsxamnfbz6ha40bkr,3fq5jj512p11isfo4exqre22gxiknf,s2fkS6bn,2020-0188,2020-06-16,00:51:23,01:11:00,NA,incomplete,15,color,1,right,Blue_Plus_Stripes_4.jpg,Red_Triangle_Stripes_1.jpg,Blue_Circle_Grid_2.jpg,right,435.0800000029267,true,NA,NA,NA,NA,NA,NA,NA,NA,true
s2fkS6bn,3peg1bh7bh4xuzsxamnfbz6ha40bkr,3fq5jj512p11isfo4exqre22gxiknf,s2fkS6bn,2020-0188,2020-06-16,00:51:23,01:11:00,NA,incomplete,16,color,1,left,Green_Star_Dots_4.jpg,Green_Triangle_Stripes_3.jpg,Blue_Plus_Dots_2.jpg,left,418.9649999971152,true,NA,NA,NA,NA,NA,NA,NA,NA,true
s2fkS6bn,3peg1bh7bh4xuzsxamnfbz6ha40bkr,3fq5jj512p11isfo4exqre22gxiknf,s2fkS6bn,2020-0188,2020-06-16,00:51:23,01:11:00,NA,incomplete,17,color,1,right,Blue_Circle_Chess_3.jpg,Green_Triangle_Chess_2.jpg,Blue_Star_Dots_4.jpg,right,367.76000000099884,true,NA,NA,NA,NA,NA,NA,NA,NA,true
s2fkS6bn,3peg1bh7bh4xuzsxamnfbz6ha40bkr,3fq5jj512p11isfo4exqre22gxiknf,s2fkS6bn,2020-0188,2020-06-16,00:51:23,01:11:00,NA,incomplete,18,color,1,right,Blue_Triangle_Stripes_4.jpg,Green_Plus_Stripes_2.jpg,Blue_Star_Chess_3.jpg,right,381.9199999998091,true,NA,NA,NA,NA,NA,NA,NA,NA,true
s2fkS6bn,3peg1bh7bh4xuzsxamnfbz6ha40bkr,3fq5jj512p11isfo4exqre22gxiknf,s2fkS6bn,2020-0188,2020-06-16,00:51:23,01:11:00,NA,incomplete,19,color,1,right,Green_Triangle_Stripes_1.jpg,Blue_Circle_Stripes_2.jpg,Green_Star_Grid_4.jpg,right,439.9649999977555,true,NA,NA,NA,NA,NA,NA,NA,NA,true
s2fkS6bn,3peg1bh7bh4xuzsxamnfbz6ha40bkr,3fq5jj512p11isfo4exqre22gxiknf,s2fkS6bn,2020-0188,2020-06-16,00:51:23,01:11:00,NA,incomplete,20,filling,1,left,Blue_Triangle_Chess_2.jpg,Purple_Star_Chess_3.jpg,Blue_Circle_Dots_4.jpg,right,393.76500000071246,false,NA,NA,NA,NA,NA,NA,NA,NA,true
s2fkS6bn,3peg1bh7bh4xuzsxamnfbz6ha40bkr,3fq5jj512p11isfo4exqre22gxiknf,s2fkS6bn,2020-0188,2020-06-16,00:51:23,01:11:00,NA,incomplete,21,filling,1,right,Purple_Triangle_Chess_2.jpg,Purple_Star_Dots_1.jpg,Green_Circle_Chess_4.jpg,right,630.234999996901,true,NA,NA,NA,NA,NA,NA,NA,NA,true
s2fkS6bn,3peg1bh7bh4xuzsxamnfbz6ha40bkr,3fq5jj512p11isfo4exqre22gxiknf,s2fkS6bn,2020-0188,2020-06-16,00:51:23,01:11:00,NA,incomplete,22,filling,1,left,Red_Circle_Stripes_2.jpg,Green_Plus_Stripes_1.jpg,Red_Triangle_Chess_4.jpg,left,769.3499999950873,true,NA,NA,NA,NA,NA,NA,NA,NA,true
s2fkS6bn,3peg1bh7bh4xuzsxamnfbz6ha40bkr,3fq5jj512p11isfo4exqre22gxiknf,s2fkS6bn,2020-0188,2020-06-16,00:51:23,01:11:00,NA,incomplete,23,filling,1,right,Blue_Plus_Chess_3.jpg,Blue_Star_Dots_4.jpg,Red_Circle_Chess_1.jpg,right,663.379999998142,true,NA,NA,NA,NA,NA,NA,NA,NA,true
s2fkS6bn,3peg1bh7bh4xuzsxamnfbz6ha40bkr,3fq5jj512p11isfo4exqre22gxiknf,s2fkS6bn,2020-0188,2020-06-16,00:51:23,01:11:00,NA,incomplete,24,filling,0,right,Green_Star_Grid_4.jpg,Green_Circle_Dots_1.jpg,Purple_Plus_Grid_2.jpg,right,649.6000000042841,true,NA,NA,NA,NA,NA,NA,NA,NA,true
s2fkS6bn,3peg1bh7bh4xuzsxamnfbz6ha40bkr,3fq5jj512p11isfo4exqre22gxiknf,s2fkS6bn,2020-0188,2020-06-16,00:51:23,01:11:00,NA,incomplete,25,filling,1,left,Purple_Circle_Stripes_2.jpg,Red_Plus_Stripes_3.jpg,Purple_Triangle_Grid_4.jpg,left,708.5500000030734,true,NA,NA,NA,NA,NA,NA,NA,NA,true
s2fkS6bn,3peg1bh7bh4xuzsxamnfbz6ha40bkr,3fq5jj512p11isfo4exqre22gxiknf,s2fkS6bn,2020-0188,2020-06-16,00:51:23,01:11:00,NA,incomplete,26,filling,1,left,Blue_Star_Chess_3.jpg,Purple_Triangle_Chess_4.jpg,Blue_Plus_Dots_1.jpg,right,824.6199999994133,false,NA,NA,NA,NA,NA,NA,NA,NA,true
s2fkS6bn,3peg1bh7bh4xuzsxamnfbz6ha40bkr,3fq5jj512p11isfo4exqre22gxiknf,s2fkS6bn,2020-0188,2020-06-16,00:51:23,01:11:00,NA,incomplete,27,filling,1,left,Purple_Plus_Chess_1.jpg,Green_Triangle_Chess_3.jpg,Purple_Star_Dots_4.jpg,left,781.1799999980722,true,NA,NA,NA,NA,NA,NA,NA,NA,true
s2fkS6bn,3peg1bh7bh4xuzsxamnfbz6ha40bkr,3fq5jj512p11isfo4exqre22gxiknf,s2fkS6bn,2020-0188,2020-06-16,00:51:23,01:11:00,NA,incomplete,28,filling,0,left,Red_Triangle_Dots_3.jpg,Blue_Star_Dots_4.jpg,Red_Circle_Grid_1.jpg,right,749.5500000003958,false,NA,NA,NA,NA,NA,NA,NA,NA,true
s2fkS6bn,3peg1bh7bh4xuzsxamnfbz6ha40bkr,3fq5jj512p11isfo4exqre22gxiknf,s2fkS6bn,2020-0188,2020-06-16,00:51:23,01:11:00,NA,incomplete,29,filling,0,left,Blue_Star_Stripes_2.jpg,Purple_Plus_Stripes_3.jpg,Blue_Circle_Grid_1.jpg,left,866.6850000009872,true,NA,NA,NA,NA,NA,NA,NA,NA,true
s2fkS6bn,3peg1bh7bh4xuzsxamnfbz6ha40bkr,3fq5jj512p11isfo4exqre22gxiknf,s2fkS6bn,2020-0188,2020-06-16,00:51:23,01:11:00,NA,incomplete,30,filling,0,right,Blue_Triangle_Stripes_4.jpg,Blue_Circle_Chess_3.jpg,Green_Star_Stripes_1.jpg,right,897.1949999977369,true,NA,NA,NA,NA,NA,NA,NA,NA,true
s2fkS6bn,3peg1bh7bh4xuzsxamnfbz6ha40bkr,3fq5jj512p11isfo4exqre22gxiknf,s2fkS6bn,2020-0188,2020-06-16,00:51:23,01:11:00,NA,incomplete,31,filling,1,right,Red_Circle_Chess_2.jpg,Red_Star_Dots_4.jpg,Blue_Plus_Chess_3.jpg,right,1025.665000001085,true,NA,NA,NA,NA,NA,NA,NA,NA,true
s2fkS6bn,3peg1bh7bh4xuzsxamnfbz6ha40bkr,3fq5jj512p11isfo4exqre22gxiknf,s2fkS6bn,2020-0188,2020-06-16,00:51:23,01:11:00,NA,incomplete,32,filling,1,right,Green_Plus_Chess_3.jpg,Green_Triangle_Dots_4.jpg,Purple_Star_Chess_2.jpg,right,904.5049999987241,true,NA,NA,NA,NA,NA,NA,NA,NA,true
s2fkS6bn,3peg1bh7bh4xuzsxamnfbz6ha40bkr,3fq5jj512p11isfo4exqre22gxiknf,s2fkS6bn,2020-0188,2020-06-16,00:51:23,01:11:00,NA,incomplete,33,filling,1,right,Green_Circle_Dots_4.jpg,Green_Plus_Stripes_3.jpg,Purple_Triangle_Dots_1.jpg,right,722.0149999993155,true,NA,NA,NA,NA,NA,NA,NA,NA,true
s2fkS6bn,3peg1bh7bh4xuzsxamnfbz6ha40bkr,3fq5jj512p11isfo4exqre22gxiknf,s2fkS6bn,2020-0188,2020-06-16,00:51:23,01:11:00,NA,incomplete,34,filling,1,left,Red_Circle_Grid_4.jpg,Purple_Plus_Grid_2.jpg,Red_Triangle_Chess_1.jpg,left,867.890000001411,true,NA,NA,NA,NA,NA,NA,NA,NA,true
s2fkS6bn,3peg1bh7bh4xuzsxamnfbz6ha40bkr,3fq5jj512p11isfo4exqre22gxiknf,s2fkS6bn,2020-0188,2020-06-16,00:51:23,01:11:00,NA,incomplete,35,filling,1,left,Red_Circle_Dots_4.jpg,Green_Star_Dots_3.jpg,Red_Plus_Grid_1.jpg,left,816.9449999986682,true,NA,NA,NA,NA,NA,NA,NA,NA,true
s2fkS6bn,3peg1bh7bh4xuzsxamnfbz6ha40bkr,3fq5jj512p11isfo4exqre22gxiknf,s2fkS6bn,2020-0188,2020-06-16,00:51:23,01:11:00,NA,incomplete,36,filling,1,left,Purple_Circle_Dots_2.jpg,Blue_Triangle_Dots_3.jpg,Purple_Star_Stripes_1.jpg,left,751.2650000063004,true,NA,NA,NA,NA,NA,NA,NA,NA,true
s2fkS6bn,3peg1bh7bh4xuzsxamnfbz6ha40bkr,3fq5jj512p11isfo4exqre22gxiknf,s2fkS6bn,2020-0188,2020-06-16,00:51:23,01:11:00,NA,incomplete,37,filling,1,left,Blue_Circle_Stripes_3.jpg,Red_Triangle_Stripes_4.jpg,Blue_Star_Chess_1.jpg,left,657.6349999960512,true,NA,NA,NA,NA,NA,NA,NA,NA,true
s2fkS6bn,3peg1bh7bh4xuzsxamnfbz6ha40bkr,3fq5jj512p11isfo4exqre22gxiknf,s2fkS6bn,2020-0188,2020-06-16,00:51:23,01:11:00,NA,incomplete,38,filling,1,left,Purple_Star_Chess_4.jpg,Green_Triangle_Chess_1.jpg,Purple_Plus_Grid_3.jpg,left,857.7250000016065,true,NA,NA,NA,NA,NA,NA,NA,NA,true
s2fkS6bn,3peg1bh7bh4xuzsxamnfbz6ha40bkr,3fq5jj512p11isfo4exqre22gxiknf,s2fkS6bn,2020-0188,2020-06-16,00:51:23,01:11:00,NA,incomplete,39,filling,1,left,Green_Triangle_Stripes_3.jpg,Red_Plus_Stripes_2.jpg,Green_Circle_Chess_4.jpg,left,678.2699999966426,true,NA,NA,NA,NA,NA,NA,NA,NA,true
s2fkS6bn,3peg1bh7bh4xuzsxamnfbz6ha40bkr,3fq5jj512p11isfo4exqre22gxiknf,s2fkS6bn,2020-0188,2020-06-16,00:51:23,01:11:00,NA,incomplete,0,color,1,left,Purple_Circle_Chess_2.jpg,Purple_Triangle_Grid_3.jpg,Red_Star_Chess_4.jpg,left,894.2649999953574,true,high,NA,NA,NA,NA,NA,NA,NA,false
s2fkS6bn,3peg1bh7bh4xuzsxamnfbz6ha40bkr,3fq5jj512p11isfo4exqre22gxiknf,s2fkS6bn,2020-0188,2020-06-16,00:51:23,01:11:00,NA,incomplete,1,color,1,right,Purple_Star_Dots_3.jpg,Red_Circle_Dots_1.jpg,Purple_Plus_Chess_2.jpg,right,465.365000003716,true,high,NA,NA,NA,NA,NA,NA,NA,false
s2fkS6bn,3peg1bh7bh4xuzsxamnfbz6ha40bkr,3fq5jj512p11isfo4exqre22gxiknf,s2fkS6bn,2020-0188,2020-06-16,00:51:23,01:11:00,NA,incomplete,2,color,1,left,Blue_Triangle_Grid_4.jpg,Blue_Circle_Stripes_3.jpg,Green_Plus_Grid_1.jpg,left,479.4099999999162,true,high,NA,NA,NA,NA,NA,NA,NA,false
s2fkS6bn,3peg1bh7bh4xuzsxamnfbz6ha40bkr,3fq5jj512p11isfo4exqre22gxiknf,s2fkS6bn,2020-0188,2020-06-16,00:51:23,01:11:00,NA,incomplete,3,color,1,left,Red_Triangle_Chess_4.jpg,Red_Plus_Grid_2.jpg,Purple_Circle_Chess_3.jpg,left,495.6850000016857,true,high,NA,NA,NA,NA,NA,NA,NA,false
s2fkS6bn,3peg1bh7bh4xuzsxamnfbz6ha40bkr,3fq5jj512p11isfo4exqre22gxiknf,s2fkS6bn,2020-0188,2020-06-16,00:51:23,01:11:00,NA,incomplete,4,color,1,right,Blue_Star_Chess_1.jpg,Green_Circle_Chess_4.jpg,Blue_Triangle_Grid_2.jpg,right,446.5249999994412,true,high,NA,NA,NA,NA,NA,NA,NA,false
s2fkS6bn,3peg1bh7bh4xuzsxamnfbz6ha40bkr,3fq5jj512p11isfo4exqre22gxiknf,s2fkS6bn,2020-0188,2020-06-16,00:51:23,01:11:00,NA,incomplete,5,color,0,right,Red_Triangle_Grid_1.jpg,Purple_Star_Grid_4.jpg,Red_Circle_Chess_2.jpg,right,465.5050000001211,true,high,NA,NA,NA,NA,NA,NA,NA,false
s2fkS6bn,3peg1bh7bh4xuzsxamnfbz6ha40bkr,3fq5jj512p11isfo4exqre22gxiknf,s2fkS6bn,2020-0188,2020-06-16,00:51:23,01:11:00,NA,incomplete,6,color,1,right,Purple_Triangle_Chess_4.jpg,Red_Star_Chess_1.jpg,Purple_Circle_Grid_3.jpg,right,413.3299999956507,true,high,NA,NA,NA,NA,NA,NA,NA,false
s2fkS6bn,3peg1bh7bh4xuzsxamnfbz6ha40bkr,3fq5jj512p11isfo4exqre22gxiknf,s2fkS6bn,2020-0188,2020-06-16,00:51:23,01:11:00,NA,incomplete,7,color,0,left,Blue_Circle_Dots_2.jpg,Blue_Plus_Chess_3.jpg,Green_Triangle_Dots_1.jpg,left,401.7749999985099,true,high,NA,NA,NA,NA,NA,NA,NA,false
s2fkS6bn,3peg1bh7bh4xuzsxamnfbz6ha40bkr,3fq5jj512p11isfo4exqre22gxiknf,s2fkS6bn,2020-0188,2020-06-16,00:51:23,01:11:00,NA,incomplete,8,color,1,left,Red_Triangle_Grid_2.jpg,Red_Star_Stripes_4.jpg,Blue_Plus_Grid_1.jpg,left,425.6549999990966,true,high,NA,NA,NA,NA,NA,NA,NA,false
s2fkS6bn,3peg1bh7bh4xuzsxamnfbz6ha40bkr,3fq5jj512p11isfo4exqre22gxiknf,s2fkS6bn,2020-0188,2020-06-16,00:51:23,01:11:00,NA,incomplete,9,color,1,right,Red_Star_Grid_2.jpg,Blue_Plus_Grid_4.jpg,Red_Circle_Dots_3.jpg,right,377.6849999994738,true,high,NA,NA,NA,NA,NA,NA,NA,false
s2fkS6bn,3peg1bh7bh4xuzsxamnfbz6ha40bkr,3fq5jj512p11isfo4exqre22gxiknf,s2fkS6bn,2020-0188,2020-06-16,00:51:23,01:11:00,NA,incomplete,10,filling,1,right,Green_Plus_Dots_4.jpg,Green_Star_Stripes_2.jpg,Red_Circle_Dots_3.jpg,left,406.3800000003539,false,high,NA,NA,NA,NA,NA,NA,NA,false
s2fkS6bn,3peg1bh7bh4xuzsxamnfbz6ha40bkr,3fq5jj512p11isfo4exqre22gxiknf,s2fkS6bn,2020-0188,2020-06-16,00:51:23,01:11:00,NA,incomplete,11,filling,0,right,Purple_Circle_Dots_4.jpg,Purple_Triangle_Grid_3.jpg,Green_Star_Dots_1.jpg,left,422.6799999959767,false,high,NA,NA,NA,NA,NA,NA,NA,false
s2fkS6bn,3peg1bh7bh4xuzsxamnfbz6ha40bkr,3fq5jj512p11isfo4exqre22gxiknf,s2fkS6bn,2020-0188,2020-06-16,00:51:23,01:11:00,NA,incomplete,12,filling,1,left,Green_Circle_Dots_4.jpg,Blue_Star_Dots_3.jpg,Green_Triangle_Grid_2.jpg,right,410.775000003865,false,high,NA,NA,NA,NA,NA,NA,NA,false
s2fkS6bn,3peg1bh7bh4xuzsxamnfbz6ha40bkr,3fq5jj512p11isfo4exqre22gxiknf,s2fkS6bn,2020-0188,2020-06-16,00:51:23,01:11:00,NA,incomplete,13,filling,0,right,Blue_Triangle_Grid_1.jpg,Blue_Circle_Chess_3.jpg,Purple_Plus_Grid_2.jpg,left,407.09500000230037,false,high,NA,NA,NA,NA,NA,NA,NA,false
s2fkS6bn,3peg1bh7bh4xuzsxamnfbz6ha40bkr,3fq5jj512p11isfo4exqre22gxiknf,s2fkS6bn,2020-0188,2020-06-16,00:51:23,01:11:00,NA,incomplete,14,filling,1,right,Green_Plus_Stripes_4.jpg,Green_Triangle_Grid_2.jpg,Blue_Circle_Stripes_1.jpg,left,376.1049999957904,false,high,NA,NA,NA,NA,NA,NA,NA,false
s2fkS6bn,3peg1bh7bh4xuzsxamnfbz6ha40bkr,3fq5jj512p11isfo4exqre22gxiknf,s2fkS6bn,2020-0188,2020-06-16,00:51:23,01:11:00,NA,incomplete,15,filling,1,left,Purple_Circle_Dots_4.jpg,Blue_Star_Dots_2.jpg,Purple_Triangle_Chess_3.jpg,right,367.4499999979744,false,high,NA,NA,NA,NA,NA,NA,NA,false
s2fkS6bn,3peg1bh7bh4xuzsxamnfbz6ha40bkr,3fq5jj512p11isfo4exqre22gxiknf,s2fkS6bn,2020-0188,2020-06-16,00:51:23,01:11:00,NA,incomplete,16,filling,0,left,Red_Plus_Dots_1.jpg,Purple_Star_Dots_2.jpg,Red_Triangle_Chess_4.jpg,right,413.7600000030361,false,high,NA,NA,NA,NA,NA,NA,NA,false
s2fkS6bn,3peg1bh7bh4xuzsxamnfbz6ha40bkr,3fq5jj512p11isfo4exqre22gxiknf,s2fkS6bn,2020-0188,2020-06-16,00:51:23,01:11:00,NA,incomplete,17,filling,1,left,Blue_Plus_Chess_4.jpg,Red_Circle_Chess_3.jpg,Blue_Star_Grid_2.jpg,right,413.28499999514315,false,high,NA,NA,NA,NA,NA,NA,NA,false
s2fkS6bn,3peg1bh7bh4xuzsxamnfbz6ha40bkr,3fq5jj512p11isfo4exqre22gxiknf,s2fkS6bn,2020-0188,2020-06-16,00:51:23,01:11:00,NA,incomplete,18,filling,1,left,Blue_Triangle_Chess_3.jpg,Red_Circle_Chess_1.jpg,Blue_Plus_Stripes_2.jpg,right,405.6600000038743,false,high,NA,NA,NA,NA,NA,NA,NA,false
s2fkS6bn,3peg1bh7bh4xuzsxamnfbz6ha40bkr,3fq5jj512p11isfo4exqre22gxiknf,s2fkS6bn,2020-0188,2020-06-16,00:51:23,01:11:00,NA,incomplete,19,filling,0,right,Blue_Plus_Dots_4.jpg,Blue_Star_Stripes_1.jpg,Green_Circle_Dots_2.jpg,left,429.77999999851454,false,high,NA,NA,NA,NA,NA,NA,NA,false
s2fkS6bn,3peg1bh7bh4xuzsxamnfbz6ha40bkr,3fq5jj512p11isfo4exqre22gxiknf,s2fkS6bn,2020-0188,2020-06-16,00:51:23,01:11:00,NA,incomplete,20,color,1,right,Blue_Plus_Dots_4.jpg,Red_Triangle_Dots_2.jpg,Blue_Star_Chess_1.jpg,right,460.67000000039116,true,high,NA,NA,NA,NA,NA,NA,NA,false
s2fkS6bn,3peg1bh7bh4xuzsxamnfbz6ha40bkr,3fq5jj512p11isfo4exqre22gxiknf,s2fkS6bn,2020-0188,2020-06-16,00:51:23,01:11:00,NA,incomplete,21,color,1,left,Green_Plus_Chess_1.jpg,Green_Triangle_Stripes_4.jpg,Purple_Star_Chess_3.jpg,left,512.7250000005588,true,high,NA,NA,NA,NA,NA,NA,NA,false
s2fkS6bn,3peg1bh7bh4xuzsxamnfbz6ha40bkr,3fq5jj512p11isfo4exqre22gxiknf,s2fkS6bn,2020-0188,2020-06-16,00:51:23,01:11:00,NA,incomplete,22,color,1,right,Purple_Triangle_Chess_4.jpg,Blue_Plus_Chess_3.jpg,Purple_Star_Dots_1.jpg,right,394.7100000005448,true,high,NA,NA,NA,NA,NA,NA,NA,false
s2fkS6bn,3peg1bh7bh4xuzsxamnfbz6ha40bkr,3fq5jj512p11isfo4exqre22gxiknf,s2fkS6bn,2020-0188,2020-06-16,00:51:23,01:11:00,NA,incomplete,23,color,1,right,Blue_Plus_Dots_2.jpg,Green_Circle_Dots_1.jpg,Blue_Triangle_Chess_3.jpg,right,357.45999999926426,true,high,NA,NA,NA,NA,NA,NA,NA,false
s2fkS6bn,3peg1bh7bh4xuzsxamnfbz6ha40bkr,3fq5jj512p11isfo4exqre22gxiknf,s2fkS6bn,2020-0188,2020-06-16,00:51:23,01:11:00,NA,incomplete,24,color,1,right,Purple_Triangle_Grid_2.jpg,Red_Circle_Grid_1.jpg,Purple_Star_Chess_3.jpg,right,397.4000000016531,true,high,NA,NA,NA,NA,NA,NA,NA,false
s2fkS6bn,3peg1bh7bh4xuzsxamnfbz6ha40bkr,3fq5jj512p11isfo4exqre22gxiknf,s2fkS6bn,2020-0188,2020-06-16,00:51:23,01:11:00,NA,incomplete,25,color,0,right,Blue_Plus_Grid_1.jpg,Purple_Star_Grid_3.jpg,Blue_Circle_Stripes_2.jpg,right,389.99999999953434,true,high,NA,NA,NA,NA,NA,NA,NA,false
s2fkS6bn,3peg1bh7bh4xuzsxamnfbz6ha40bkr,3fq5jj512p11isfo4exqre22gxiknf,s2fkS6bn,2020-0188,2020-06-16,00:51:23,01:11:00,NA,incomplete,26,color,1,left,Blue_Plus_Chess_2.jpg,Blue_Star_Dots_4.jpg,Green_Triangle_Chess_1.jpg,left,437.44000000157394,true,high,NA,NA,NA,NA,NA,NA,NA,false
s2fkS6bn,3peg1bh7bh4xuzsxamnfbz6ha40bkr,3fq5jj512p11isfo4exqre22gxiknf,s2fkS6bn,2020-0188,2020-06-16,00:51:23,01:11:00,NA,incomplete,27,color,1,right,Blue_Plus_Stripes_1.jpg,Green_Star_Stripes_2.jpg,Blue_Triangle_Chess_3.jpg,right,353.9950000050012,true,high,NA,NA,NA,NA,NA,NA,NA,false
s2fkS6bn,3peg1bh7bh4xuzsxamnfbz6ha40bkr,3fq5jj512p11isfo4exqre22gxiknf,s2fkS6bn,2020-0188,2020-06-16,00:51:23,01:11:00,NA,incomplete,28,color,1,left,Green_Circle_Dots_1.jpg,Green_Plus_Grid_4.jpg,Red_Star_Dots_3.jpg,left,353.97999999986496,true,high,NA,NA,NA,NA,NA,NA,NA,false
s2fkS6bn,3peg1bh7bh4xuzsxamnfbz6ha40bkr,3fq5jj512p11isfo4exqre22gxiknf,s2fkS6bn,2020-0188,2020-06-16,00:51:23,01:11:00,NA,incomplete,29,color,0,left,Red_Star_Chess_2.jpg,Red_Circle_Grid_3.jpg,Green_Plus_Chess_4.jpg,left,403.79500000551343,true,high,NA,NA,NA,NA,NA,NA,NA,false
s2fkS6bn,3peg1bh7bh4xuzsxamnfbz6ha40bkr,3fq5jj512p11isfo4exqre22gxiknf,s2fkS6bn,2020-0188,2020-06-16,00:51:23,01:11:00,NA,incomplete,30,filling,1,left,Purple_Triangle_Dots_2.jpg,Blue_Star_Dots_3.jpg,Purple_Plus_Chess_1.jpg,right,355.04999999841675,false,high,NA,NA,NA,NA,NA,NA,NA,false
s2fkS6bn,3peg1bh7bh4xuzsxamnfbz6ha40bkr,3fq5jj512p11isfo4exqre22gxiknf,s2fkS6bn,2020-0188,2020-06-16,00:51:23,01:11:00,NA,incomplete,31,filling,1,right,Red_Star_Dots_2.jpg,Red_Circle_Chess_1.jpg,Green_Triangle_Dots_3.jpg,left,416.5099999953527,false,high,NA,NA,NA,NA,NA,NA,NA,false
s2fkS6bn,3peg1bh7bh4xuzsxamnfbz6ha40bkr,3fq5jj512p11isfo4exqre22gxiknf,s2fkS6bn,2020-0188,2020-06-16,00:51:23,01:11:00,NA,incomplete,32,filling,1,right,Purple_Plus_Grid_1.jpg,Purple_Triangle_Stripes_4.jpg,Green_Circle_Grid_2.jpg,left,442.88999999838416,false,high,NA,NA,NA,NA,NA,NA,NA,false
s2fkS6bn,3peg1bh7bh4xuzsxamnfbz6ha40bkr,3fq5jj512p11isfo4exqre22gxiknf,s2fkS6bn,2020-0188,2020-06-16,00:51:23,01:11:00,NA,incomplete,33,filling,1,right,Blue_Plus_Chess_2.jpg,Blue_Triangle_Grid_1.jpg,Green_Star_Chess_3.jpg,right,864.170000000624,true,high,NA,NA,NA,NA,NA,NA,NA,false
s2fkS6bn,3peg1bh7bh4xuzsxamnfbz6ha40bkr,3fq5jj512p11isfo4exqre22gxiknf,s2fkS6bn,2020-0188,2020-06-16,00:51:23,01:11:00,NA,incomplete,34,filling,1,right,Blue_Triangle_Stripes_2.jpg,Blue_Circle_Chess_3.jpg,Purple_Plus_Stripes_4.jpg,right,752.0949999962468,true,high,NA,NA,NA,NA,NA,NA,NA,false
s2fkS6bn,3peg1bh7bh4xuzsxamnfbz6ha40bkr,3fq5jj512p11isfo4exqre22gxiknf,s2fkS6bn,2020-0188,2020-06-16,00:51:23,01:11:00,NA,incomplete,35,filling,1,left,Blue_Plus_Grid_3.jpg,Red_Triangle_Grid_4.jpg,Blue_Star_Chess_1.jpg,left,787.6050000049872,true,high,NA,NA,NA,NA,NA,NA,NA,false
s2fkS6bn,3peg1bh7bh4xuzsxamnfbz6ha40bkr,3fq5jj512p11isfo4exqre22gxiknf,s2fkS6bn,2020-0188,2020-06-16,00:51:23,01:11:00,NA,incomplete,36,filling,0,left,Red_Triangle_Stripes_1.jpg,Purple_Star_Stripes_4.jpg,Red_Circle_Grid_2.jpg,left,876.5500000007451,true,high,NA,NA,NA,NA,NA,NA,NA,false
s2fkS6bn,3peg1bh7bh4xuzsxamnfbz6ha40bkr,3fq5jj512p11isfo4exqre22gxiknf,s2fkS6bn,2020-0188,2020-06-16,00:51:23,01:11:00,NA,incomplete,37,filling,1,right,Blue_Circle_Grid_2.jpg,Blue_Star_Dots_1.jpg,Purple_Plus_Grid_3.jpg,right,787.5850000054343,true,high,NA,NA,NA,NA,NA,NA,NA,false
s2fkS6bn,3peg1bh7bh4xuzsxamnfbz6ha40bkr,3fq5jj512p11isfo4exqre22gxiknf,s2fkS6bn,2020-0188,2020-06-16,00:51:23,01:11:00,NA,incomplete,38,filling,1,left,Blue_Triangle_Stripes_2.jpg,Green_Star_Stripes_4.jpg,Blue_Plus_Dots_3.jpg,left,738.5849999991478,true,high,NA,NA,NA,NA,NA,NA,NA,false
s2fkS6bn,3peg1bh7bh4xuzsxamnfbz6ha40bkr,3fq5jj512p11isfo4exqre22gxiknf,s2fkS6bn,2020-0188,2020-06-16,00:51:23,01:11:00,NA,incomplete,39,filling,0,right,Blue_Plus_Grid_3.jpg,Blue_Star_Dots_2.jpg,Green_Circle_Grid_4.jpg,right,718.6799999980722,true,high,NA,NA,NA,NA,NA,NA,NA,false
s2fkS6bn,3peg1bh7bh4xuzsxamnfbz6ha40bkr,3fq5jj512p11isfo4exqre22gxiknf,s2fkS6bn,2020-0188,2020-06-16,00:51:23,01:11:00,NA,incomplete,40,color,1,left,Red_Triangle_Grid_2.jpg,Red_Circle_Stripes_1.jpg,Green_Plus_Grid_4.jpg,left,679.2199999981094,true,high,NA,NA,NA,NA,NA,NA,NA,false
s2fkS6bn,3peg1bh7bh4xuzsxamnfbz6ha40bkr,3fq5jj512p11isfo4exqre22gxiknf,s2fkS6bn,2020-0188,2020-06-16,00:51:23,01:11:00,NA,incomplete,41,color,1,right,Red_Plus_Stripes_3.jpg,Green_Star_Stripes_4.jpg,Red_Triangle_Chess_1.jpg,left,895.5050000003539,false,high,NA,NA,NA,NA,NA,NA,NA,false
s2fkS6bn,3peg1bh7bh4xuzsxamnfbz6ha40bkr,3fq5jj512p11isfo4exqre22gxiknf,s2fkS6bn,2020-0188,2020-06-16,00:51:23,01:11:00,NA,incomplete,42,color,1,left,Green_Circle_Stripes_2.jpg,Green_Plus_Chess_4.jpg,Red_Triangle_Stripes_1.jpg,right,762.2000000047265,false,high,NA,NA,NA,NA,NA,NA,NA,false
s2fkS6bn,3peg1bh7bh4xuzsxamnfbz6ha40bkr,3fq5jj512p11isfo4exqre22gxiknf,s2fkS6bn,2020-0188,2020-06-16,00:51:23,01:11:00,NA,incomplete,43,color,1,right,Red_Star_Dots_3.jpg,Blue_Circle_Dots_4.jpg,Red_Triangle_Chess_1.jpg,left,788.3950000032783,false,high,NA,NA,NA,NA,NA,NA,NA,false
s2fkS6bn,3peg1bh7bh4xuzsxamnfbz6ha40bkr,3fq5jj512p11isfo4exqre22gxiknf,s2fkS6bn,2020-0188,2020-06-16,00:51:23,01:11:00,NA,incomplete,44,color,1,right,Purple_Circle_Grid_1.jpg,Blue_Star_Grid_3.jpg,Purple_Plus_Stripes_4.jpg,right,510.9500000034459,true,high,NA,NA,NA,NA,NA,NA,NA,false
s2fkS6bn,3peg1bh7bh4xuzsxamnfbz6ha40bkr,3fq5jj512p11isfo4exqre22gxiknf,s2fkS6bn,2020-0188,2020-06-16,00:51:23,01:11:00,NA,incomplete,45,color,1,left,Blue_Triangle_Grid_4.jpg,Blue_Circle_Stripes_3.jpg,Green_Plus_Grid_2.jpg,left,613.3699999991804,true,high,NA,NA,NA,NA,NA,NA,NA,false
s2fkS6bn,3peg1bh7bh4xuzsxamnfbz6ha40bkr,3fq5jj512p11isfo4exqre22gxiknf,s2fkS6bn,2020-0188,2020-06-16,00:51:23,01:11:00,NA,incomplete,46,color,0,right,Purple_Circle_Stripes_4.jpg,Red_Star_Stripes_1.jpg,Purple_Plus_Dots_3.jpg,right,495.5800000025192,true,high,NA,NA,NA,NA,NA,NA,NA,false
s2fkS6bn,3peg1bh7bh4xuzsxamnfbz6ha40bkr,3fq5jj512p11isfo4exqre22gxiknf,s2fkS6bn,2020-0188,2020-06-16,00:51:23,01:11:00,NA,incomplete,47,color,1,left,Green_Star_Dots_3.jpg,Green_Plus_Grid_4.jpg,Purple_Triangle_Dots_2.jpg,left,474.945000001695,true,high,NA,NA,NA,NA,NA,NA,NA,false
s2fkS6bn,3peg1bh7bh4xuzsxamnfbz6ha40bkr,3fq5jj512p11isfo4exqre22gxiknf,s2fkS6bn,2020-0188,2020-06-16,00:51:23,01:11:00,NA,incomplete,48,color,1,right,Purple_Circle_Dots_1.jpg,Green_Triangle_Dots_3.jpg,Purple_Star_Stripes_4.jpg,right,622.9749999983469,true,high,NA,NA,NA,NA,NA,NA,NA,false
s2fkS6bn,3peg1bh7bh4xuzsxamnfbz6ha40bkr,3fq5jj512p11isfo4exqre22gxiknf,s2fkS6bn,2020-0188,2020-06-16,00:51:23,01:11:00,NA,incomplete,49,color,1,left,Green_Circle_Chess_2.jpg,Green_Triangle_Dots_1.jpg,Blue_Star_Chess_3.jpg,left,571.6200000024401,true,high,NA,NA,NA,NA,NA,NA,NA,false
s2fkS6bn,3peg1bh7bh4xuzsxamnfbz6ha40bkr,3fq5jj512p11isfo4exqre22gxiknf,s2fkS6bn,2020-0188,2020-06-16,00:51:23,01:11:00,NA,incomplete,50,filling,1,right,Purple_Triangle_Dots_1.jpg,Purple_Circle_Stripes_4.jpg,Blue_Star_Dots_2.jpg,left,573.4049999956042,false,high,NA,NA,NA,NA,NA,NA,NA,false
s2fkS6bn,3peg1bh7bh4xuzsxamnfbz6ha40bkr,3fq5jj512p11isfo4exqre22gxiknf,s2fkS6bn,2020-0188,2020-06-16,00:51:23,01:11:00,NA,incomplete,51,filling,0,right,Red_Triangle_Grid_2.jpg,Red_Star_Stripes_1.jpg,Green_Plus_Grid_4.jpg,left,664.7999999986496,false,high,NA,NA,NA,NA,NA,NA,NA,false
s2fkS6bn,3peg1bh7bh4xuzsxamnfbz6ha40bkr,3fq5jj512p11isfo4exqre22gxiknf,s2fkS6bn,2020-0188,2020-06-16,00:51:23,01:11:00,NA,incomplete,52,filling,1,right,Red_Circle_Dots_3.jpg,Red_Plus_Chess_4.jpg,Green_Star_Dots_2.jpg,left,673.4550000036834,false,high,NA,NA,NA,NA,NA,NA,NA,false
s2fkS6bn,3peg1bh7bh4xuzsxamnfbz6ha40bkr,3fq5jj512p11isfo4exqre22gxiknf,s2fkS6bn,2020-0188,2020-06-16,00:51:23,01:11:00,NA,incomplete,53,filling,1,left,Purple_Star_Dots_1.jpg,Red_Plus_Dots_3.jpg,Purple_Triangle_Grid_2.jpg,right,433.4149999995716,false,high,NA,NA,NA,NA,NA,NA,NA,false
s2fkS6bn,3peg1bh7bh4xuzsxamnfbz6ha40bkr,3fq5jj512p11isfo4exqre22gxiknf,s2fkS6bn,2020-0188,2020-06-16,00:51:23,01:11:00,NA,incomplete,54,filling,1,left,Red_Triangle_Chess_2.jpg,Green_Plus_Chess_4.jpg,Red_Star_Stripes_3.jpg,right,705.5950000067241,false,high,NA,NA,NA,NA,NA,NA,NA,false
s2fkS6bn,3peg1bh7bh4xuzsxamnfbz6ha40bkr,3fq5jj512p11isfo4exqre22gxiknf,s2fkS6bn,2020-0188,2020-06-16,00:51:23,01:11:00,NA,incomplete,55,filling,1,left,Red_Star_Dots_4.jpg,Blue_Circle_Dots_3.jpg,Red_Triangle_Stripes_1.jpg,left,922.5700000025099,true,high,NA,NA,NA,NA,NA,NA,NA,false
s2fkS6bn,3peg1bh7bh4xuzsxamnfbz6ha40bkr,3fq5jj512p11isfo4exqre22gxiknf,s2fkS6bn,2020-0188,2020-06-16,00:51:23,01:11:00,NA,incomplete,56,filling,1,right,Blue_Star_Dots_4.jpg,Blue_Triangle_Stripes_3.jpg,Red_Plus_Dots_1.jpg,right,775.3200000007637,true,high,NA,NA,NA,NA,NA,NA,NA,false
s2fkS6bn,3peg1bh7bh4xuzsxamnfbz6ha40bkr,3fq5jj512p11isfo4exqre22gxiknf,s2fkS6bn,2020-0188,2020-06-16,00:51:23,01:11:00,NA,incomplete,57,filling,1,left,Green_Circle_Grid_4.jpg,Red_Triangle_Grid_3.jpg,Green_Star_Dots_2.jpg,left,722.4449999993667,true,high,NA,NA,NA,NA,NA,NA,NA,false
s2fkS6bn,3peg1bh7bh4xuzsxamnfbz6ha40bkr,3fq5jj512p11isfo4exqre22gxiknf,s2fkS6bn,2020-0188,2020-06-16,00:51:23,01:11:00,NA,incomplete,58,filling,1,left,Purple_Triangle_Dots_3.jpg,Green_Plus_Dots_1.jpg,Purple_Star_Stripes_2.jpg,left,906.9799999997485,true,high,NA,NA,NA,NA,NA,NA,NA,false
s2fkS6bn,3peg1bh7bh4xuzsxamnfbz6ha40bkr,3fq5jj512p11isfo4exqre22gxiknf,s2fkS6bn,2020-0188,2020-06-16,00:51:23,01:11:00,NA,incomplete,59,filling,1,left,Purple_Circle_Grid_3.jpg,Blue_Triangle_Grid_4.jpg,Purple_Star_Dots_1.jpg,left,716.8799999998882,true,high,NA,NA,NA,NA,NA,NA,NA,false
s2fkS6bn,3peg1bh7bh4xuzsxamnfbz6ha40bkr,3fq5jj512p11isfo4exqre22gxiknf,s2fkS6bn,2020-0188,2020-06-16,00:51:23,01:11:00,NA,incomplete,60,color,1,left,Blue_Star_Stripes_2.jpg,Blue_Plus_Dots_4.jpg,Red_Circle_Stripes_3.jpg,right,754.1700000001583,false,high,NA,NA,NA,NA,NA,NA,NA,false
s2fkS6bn,3peg1bh7bh4xuzsxamnfbz6ha40bkr,3fq5jj512p11isfo4exqre22gxiknf,s2fkS6bn,2020-0188,2020-06-16,00:51:23,01:11:00,NA,incomplete,61,color,1,left,Red_Star_Stripes_2.jpg,Red_Triangle_Dots_3.jpg,Green_Plus_Stripes_4.jpg,left,858.5800000000745,true,high,NA,NA,NA,NA,NA,NA,NA,false
s2fkS6bn,3peg1bh7bh4xuzsxamnfbz6ha40bkr,3fq5jj512p11isfo4exqre22gxiknf,s2fkS6bn,2020-0188,2020-06-16,00:51:23,01:11:00,NA,incomplete,62,color,1,right,Green_Circle_Dots_4.jpg,Blue_Star_Dots_1.jpg,Green_Triangle_Stripes_2.jpg,left,974.2800000022398,false,high,NA,NA,NA,NA,NA,NA,NA,false
s2fkS6bn,3peg1bh7bh4xuzsxamnfbz6ha40bkr,3fq5jj512p11isfo4exqre22gxiknf,s2fkS6bn,2020-0188,2020-06-16,00:51:23,01:11:00,NA,incomplete,63,color,1,left,Red_Triangle_Chess_2.jpg,Red_Star_Stripes_3.jpg,Purple_Circle_Chess_4.jpg,right,752.8349999992643,false,high,NA,NA,NA,NA,NA,NA,NA,false
s2fkS6bn,3peg1bh7bh4xuzsxamnfbz6ha40bkr,3fq5jj512p11isfo4exqre22gxiknf,s2fkS6bn,2020-0188,2020-06-16,00:51:23,01:11:00,NA,incomplete,64,color,0,right,Purple_Circle_Chess_1.jpg,Green_Plus_Chess_4.jpg,Purple_Star_Grid_3.jpg,right,616.4799999969546,true,high,NA,NA,NA,NA,NA,NA,NA,false
s2fkS6bn,3peg1bh7bh4xuzsxamnfbz6ha40bkr,3fq5jj512p11isfo4exqre22gxiknf,s2fkS6bn,2020-0188,2020-06-16,00:51:23,01:11:00,NA,incomplete,65,color,1,left,Purple_Plus_Dots_2.jpg,Purple_Circle_Grid_3.jpg,Blue_Triangle_Dots_4.jpg,left,482.54499999887776,true,high,NA,NA,NA,NA,NA,NA,NA,false
s2fkS6bn,3peg1bh7bh4xuzsxamnfbz6ha40bkr,3fq5jj512p11isfo4exqre22gxiknf,s2fkS6bn,2020-0188,2020-06-16,00:51:23,01:11:00,NA,incomplete,66,color,0,right,Red_Triangle_Grid_3.jpg,Purple_Circle_Grid_1.jpg,Red_Star_Stripes_4.jpg,right,541.4400000008754,true,high,NA,NA,NA,NA,NA,NA,NA,false
s2fkS6bn,3peg1bh7bh4xuzsxamnfbz6ha40bkr,3fq5jj512p11isfo4exqre22gxiknf,s2fkS6bn,2020-0188,2020-06-16,00:51:23,01:11:00,NA,incomplete,67,color,1,left,Green_Triangle_Chess_1.jpg,Green_Circle_Stripes_4.jpg,Red_Star_Chess_3.jpg,right,776.5500000022585,false,high,NA,NA,NA,NA,NA,NA,NA,false
s2fkS6bn,3peg1bh7bh4xuzsxamnfbz6ha40bkr,3fq5jj512p11isfo4exqre22gxiknf,s2fkS6bn,2020-0188,2020-06-16,00:51:23,01:11:00,NA,incomplete,68,color,1,left,Blue_Star_Chess_1.jpg,Blue_Circle_Stripes_4.jpg,Green_Plus_Chess_2.jpg,right,858.7249999982305,false,high,NA,NA,NA,NA,NA,NA,NA,false
s2fkS6bn,3peg1bh7bh4xuzsxamnfbz6ha40bkr,3fq5jj512p11isfo4exqre22gxiknf,s2fkS6bn,2020-0188,2020-06-16,00:51:23,01:11:00,NA,incomplete,69,color,1,left,Blue_Plus_Grid_2.jpg,Blue_Circle_Chess_3.jpg,Purple_Triangle_Grid_1.jpg,right,859.2249999928754,false,high,NA,NA,NA,NA,NA,NA,NA,false
s2fkS6bn,3peg1bh7bh4xuzsxamnfbz6ha40bkr,3fq5jj512p11isfo4exqre22gxiknf,s2fkS6bn,2020-0188,2020-06-16,00:51:23,01:11:00,NA,incomplete,70,filling,1,right,Red_Star_Stripes_3.jpg,Red_Triangle_Dots_2.jpg,Purple_Circle_Stripes_4.jpg,left,471.3400000036927,false,high,NA,NA,NA,NA,NA,NA,NA,false
s2fkS6bn,3peg1bh7bh4xuzsxamnfbz6ha40bkr,3fq5jj512p11isfo4exqre22gxiknf,s2fkS6bn,2020-0188,2020-06-16,00:51:23,01:11:00,NA,incomplete,71,filling,1,left,Purple_Star_Chess_1.jpg,Blue_Plus_Chess_3.jpg,Purple_Triangle_Dots_4.jpg,right,442.4700000018347,false,high,NA,NA,NA,NA,NA,NA,NA,false
s2fkS6bn,3peg1bh7bh4xuzsxamnfbz6ha40bkr,3fq5jj512p11isfo4exqre22gxiknf,s2fkS6bn,2020-0188,2020-06-16,00:51:23,01:11:00,NA,incomplete,72,filling,1,right,Green_Triangle_Grid_2.jpg,Green_Plus_Stripes_4.jpg,Blue_Circle_Grid_3.jpg,left,1433.454999998561,false,high,NA,NA,NA,NA,NA,NA,NA,false
s2fkS6bn,3peg1bh7bh4xuzsxamnfbz6ha40bkr,3fq5jj512p11isfo4exqre22gxiknf,s2fkS6bn,2020-0188,2020-06-16,00:51:23,01:11:00,NA,incomplete,73,filling,1,right,Green_Star_Dots_3.jpg,Green_Circle_Chess_2.jpg,Red_Triangle_Dots_4.jpg,left,1176.7749999999069,false,high,NA,NA,NA,NA,NA,NA,NA,false
s2fkS6bn,3peg1bh7bh4xuzsxamnfbz6ha40bkr,3fq5jj512p11isfo4exqre22gxiknf,s2fkS6bn,2020-0188,2020-06-16,00:51:23,01:11:00,NA,incomplete,74,filling,1,left,Green_Star_Grid_4.jpg,Blue_Triangle_Grid_1.jpg,Green_Circle_Dots_2.jpg,left,760.7149999967078,true,high,NA,NA,NA,NA,NA,NA,NA,false
s2fkS6bn,3peg1bh7bh4xuzsxamnfbz6ha40bkr,3fq5jj512p11isfo4exqre22gxiknf,s2fkS6bn,2020-0188,2020-06-16,00:51:23,01:11:00,NA,incomplete,75,filling,1,right,Purple_Plus_Grid_4.jpg,Purple_Circle_Stripes_2.jpg,Red_Triangle_Grid_3.jpg,right,1007.2300000030082,true,high,NA,NA,NA,NA,NA,NA,NA,false
s2fkS6bn,3peg1bh7bh4xuzsxamnfbz6ha40bkr,3fq5jj512p11isfo4exqre22gxiknf,s2fkS6bn,2020-0188,2020-06-16,00:51:23,01:11:00,NA,incomplete,76,filling,1,left,Purple_Star_Chess_2.jpg,Green_Triangle_Chess_1.jpg,Purple_Circle_Stripes_3.jpg,left,906.4449999931967,true,high,NA,NA,NA,NA,NA,NA,NA,false
s2fkS6bn,3peg1bh7bh4xuzsxamnfbz6ha40bkr,3fq5jj512p11isfo4exqre22gxiknf,s2fkS6bn,2020-0188,2020-06-16,00:51:23,01:11:00,NA,incomplete,77,filling,1,left,Green_Circle_Grid_1.jpg,Purple_Triangle_Grid_4.jpg,Green_Star_Dots_3.jpg,left,720.6300000034971,true,high,NA,NA,NA,NA,NA,NA,NA,false
s2fkS6bn,3peg1bh7bh4xuzsxamnfbz6ha40bkr,3fq5jj512p11isfo4exqre22gxiknf,s2fkS6bn,2020-0188,2020-06-16,00:51:23,01:11:00,NA,incomplete,78,filling,1,right,Red_Star_Dots_1.jpg,Red_Triangle_Stripes_2.jpg,Blue_Plus_Dots_4.jpg,right,861.6849999962142,true,high,NA,NA,NA,NA,NA,NA,NA,false
s2fkS6bn,3peg1bh7bh4xuzsxamnfbz6ha40bkr,3fq5jj512p11isfo4exqre22gxiknf,s2fkS6bn,2020-0188,2020-06-16,00:51:23,01:11:00,NA,incomplete,79,filling,1,right,Purple_Plus_Stripes_1.jpg,Purple_Circle_Grid_3.jpg,Green_Star_Stripes_2.jpg,right,886.4400000020396,true,high,NA,NA,NA,NA,NA,NA,NA,false
s2fkS6bn,3peg1bh7bh4xuzsxamnfbz6ha40bkr,3fq5jj512p11isfo4exqre22gxiknf,s2fkS6bn,2020-0188,2020-06-16,00:51:23,01:11:00,NA,incomplete,80,color,1,left,Red_Plus_Grid_4.jpg,Red_Triangle_Stripes_3.jpg,Purple_Circle_Grid_1.jpg,right,927.2150000033434,false,high,NA,NA,NA,NA,NA,NA,NA,false
s2fkS6bn,3peg1bh7bh4xuzsxamnfbz6ha40bkr,3fq5jj512p11isfo4exqre22gxiknf,s2fkS6bn,2020-0188,2020-06-16,00:51:23,01:11:00,NA,incomplete,81,color,1,right,Purple_Triangle_Dots_3.jpg,Blue_Star_Dots_4.jpg,Purple_Circle_Stripes_2.jpg,left,907.4949999995297,false,high,NA,NA,NA,NA,NA,NA,NA,false
s2fkS6bn,3peg1bh7bh4xuzsxamnfbz6ha40bkr,3fq5jj512p11isfo4exqre22gxiknf,s2fkS6bn,2020-0188,2020-06-16,00:51:23,01:11:00,NA,incomplete,82,color,1,left,Red_Circle_Grid_3.jpg,Red_Star_Dots_1.jpg,Purple_Plus_Grid_2.jpg,right,810.4600000005448,false,high,NA,NA,NA,NA,NA,NA,NA,false
s2fkS6bn,3peg1bh7bh4xuzsxamnfbz6ha40bkr,3fq5jj512p11isfo4exqre22gxiknf,s2fkS6bn,2020-0188,2020-06-16,00:51:23,01:11:00,NA,incomplete,83,color,1,left,Green_Triangle_Stripes_2.jpg,Green_Circle_Dots_1.jpg,Purple_Star_Stripes_3.jpg,right,853.0699999972712,false,high,NA,NA,NA,NA,NA,NA,NA,false
s2fkS6bn,3peg1bh7bh4xuzsxamnfbz6ha40bkr,3fq5jj512p11isfo4exqre22gxiknf,s2fkS6bn,2020-0188,2020-06-16,00:51:23,01:11:00,NA,incomplete,84,color,1,right,Purple_Circle_Chess_4.jpg,Blue_Star_Chess_3.jpg,Purple_Triangle_Grid_1.jpg,left,841.8850000016391,false,high,NA,NA,NA,NA,NA,NA,NA,false
s2fkS6bn,3peg1bh7bh4xuzsxamnfbz6ha40bkr,3fq5jj512p11isfo4exqre22gxiknf,s2fkS6bn,2020-0188,2020-06-16,00:51:23,01:11:00,NA,incomplete,85,color,1,right,Red_Circle_Grid_2.jpg,Purple_Triangle_Grid_3.jpg,Red_Star_Chess_1.jpg,right,451.48499999777414,true,high,NA,NA,NA,NA,NA,NA,NA,false
s2fkS6bn,3peg1bh7bh4xuzsxamnfbz6ha40bkr,3fq5jj512p11isfo4exqre22gxiknf,s2fkS6bn,2020-0188,2020-06-16,00:51:23,01:11:00,NA,incomplete,86,color,1,left,Blue_Circle_Dots_4.jpg,Blue_Triangle_Stripes_2.jpg,Red_Plus_Dots_1.jpg,left,396.01000000396743,true,high,NA,NA,NA,NA,NA,NA,NA,false
s2fkS6bn,3peg1bh7bh4xuzsxamnfbz6ha40bkr,3fq5jj512p11isfo4exqre22gxiknf,s2fkS6bn,2020-0188,2020-06-16,00:51:23,01:11:00,NA,incomplete,87,color,1,left,Red_Triangle_Dots_3.jpg,Red_Star_Chess_4.jpg,Green_Plus_Dots_2.jpg,left,507.839999998454,true,high,NA,NA,NA,NA,NA,NA,NA,false
s2fkS6bn,3peg1bh7bh4xuzsxamnfbz6ha40bkr,3fq5jj512p11isfo4exqre22gxiknf,s2fkS6bn,2020-0188,2020-06-16,00:51:23,01:11:00,NA,incomplete,88,color,1,right,Red_Plus_Stripes_1.jpg,Blue_Circle_Stripes_4.jpg,Red_Triangle_Chess_3.jpg,right,404.3999999994412,true,high,NA,NA,NA,NA,NA,NA,NA,false
s2fkS6bn,3peg1bh7bh4xuzsxamnfbz6ha40bkr,3fq5jj512p11isfo4exqre22gxiknf,s2fkS6bn,2020-0188,2020-06-16,00:51:23,01:11:00,NA,incomplete,89,color,1,left,Red_Circle_Stripes_1.jpg,Red_Star_Grid_2.jpg,Purple_Triangle_Stripes_4.jpg,left,496.2749999978114,true,high,NA,NA,NA,NA,NA,NA,NA,false
s2fkS6bn,3peg1bh7bh4xuzsxamnfbz6ha40bkr,3fq5jj512p11isfo4exqre22gxiknf,s2fkS6bn,2020-0188,2020-06-16,00:51:23,01:11:00,NA,incomplete,90,filling,1,left,Green_Circle_Chess_1.jpg,Red_Star_Chess_2.jpg,Green_Plus_Stripes_3.jpg,right,387.02500000363216,false,high,NA,NA,NA,NA,NA,NA,NA,false
s2fkS6bn,3peg1bh7bh4xuzsxamnfbz6ha40bkr,3fq5jj512p11isfo4exqre22gxiknf,s2fkS6bn,2020-0188,2020-06-16,00:51:23,01:11:00,NA,incomplete,91,filling,1,left,Red_Triangle_Chess_3.jpg,Purple_Star_Chess_1.jpg,Red_Plus_Stripes_4.jpg,right,436.3999999986263,false,high,NA,NA,NA,NA,NA,NA,NA,false
s2fkS6bn,3peg1bh7bh4xuzsxamnfbz6ha40bkr,3fq5jj512p11isfo4exqre22gxiknf,s2fkS6bn,2020-0188,2020-06-16,00:51:23,01:11:00,NA,incomplete,92,filling,1,right,Purple_Plus_Chess_4.jpg,Purple_Triangle_Grid_2.jpg,Green_Star_Chess_1.jpg,left,407.82000000041444,false,high,NA,NA,NA,NA,NA,NA,NA,false
s2fkS6bn,3peg1bh7bh4xuzsxamnfbz6ha40bkr,3fq5jj512p11isfo4exqre22gxiknf,s2fkS6bn,2020-0188,2020-06-16,00:51:23,01:11:00,NA,incomplete,93,filling,1,right,Blue_Star_Chess_4.jpg,Blue_Circle_Grid_1.jpg,Red_Triangle_Chess_3.jpg,right,833.1949999991339,true,high,NA,NA,NA,NA,NA,NA,NA,false
s2fkS6bn,3peg1bh7bh4xuzsxamnfbz6ha40bkr,3fq5jj512p11isfo4exqre22gxiknf,s2fkS6bn,2020-0188,2020-06-16,00:51:23,01:11:00,NA,incomplete,94,filling,1,left,Green_Star_Dots_4.jpg,Purple_Triangle_Dots_1.jpg,Green_Circle_Chess_2.jpg,left,837.6600000045728,true,high,NA,NA,NA,NA,NA,NA,NA,false
s2fkS6bn,3peg1bh7bh4xuzsxamnfbz6ha40bkr,3fq5jj512p11isfo4exqre22gxiknf,s2fkS6bn,2020-0188,2020-06-16,00:51:23,01:11:00,NA,incomplete,95,filling,0,right,Red_Triangle_Dots_3.jpg,Red_Plus_Grid_1.jpg,Blue_Circle_Dots_4.jpg,right,745.4700000016019,true,high,NA,NA,NA,NA,NA,NA,NA,false
s2fkS6bn,3peg1bh7bh4xuzsxamnfbz6ha40bkr,3fq5jj512p11isfo4exqre22gxiknf,s2fkS6bn,2020-0188,2020-06-16,00:51:23,01:11:00,NA,incomplete,96,filling,0,left,Blue_Star_Grid_2.jpg,Red_Circle_Grid_3.jpg,Blue_Plus_Dots_1.jpg,right,908.2899999993388,false,high,NA,NA,NA,NA,NA,NA,NA,false
s2fkS6bn,3peg1bh7bh4xuzsxamnfbz6ha40bkr,3fq5jj512p11isfo4exqre22gxiknf,s2fkS6bn,2020-0188,2020-06-16,00:51:23,01:11:00,NA,incomplete,97,filling,1,right,Blue_Triangle_Chess_4.jpg,Blue_Star_Grid_3.jpg,Red_Plus_Chess_2.jpg,right,887.2950000003912,true,high,NA,NA,NA,NA,NA,NA,NA,false
s2fkS6bn,3peg1bh7bh4xuzsxamnfbz6ha40bkr,3fq5jj512p11isfo4exqre22gxiknf,s2fkS6bn,2020-0188,2020-06-16,00:51:23,01:11:00,NA,incomplete,98,filling,1,right,Red_Circle_Grid_4.jpg,Red_Triangle_Dots_1.jpg,Purple_Plus_Grid_2.jpg,right,748.2549999987241,true,high,NA,NA,NA,NA,NA,NA,NA,false
s2fkS6bn,3peg1bh7bh4xuzsxamnfbz6ha40bkr,3fq5jj512p11isfo4exqre22gxiknf,s2fkS6bn,2020-0188,2020-06-16,00:51:23,01:11:00,NA,incomplete,99,filling,0,left,Red_Plus_Dots_1.jpg,Blue_Triangle_Dots_3.jpg,Red_Circle_Chess_4.jpg,left,760.3550000058021,true,high,NA,NA,NA,NA,NA,NA,NA,false
s2fkS6bn,3peg1bh7bh4xuzsxamnfbz6ha40bkr,3fq5jj512p11isfo4exqre22gxiknf,s2fkS6bn,2020-0188,2020-06-16,00:51:23,01:11:00,NA,incomplete,100,color,0,left,Green_Plus_Chess_1.jpg,Green_Triangle_Grid_2.jpg,Purple_Circle_Chess_3.jpg,right,710.5000000011642,false,high,NA,NA,NA,NA,NA,NA,NA,false
s2fkS6bn,3peg1bh7bh4xuzsxamnfbz6ha40bkr,3fq5jj512p11isfo4exqre22gxiknf,s2fkS6bn,2020-0188,2020-06-16,00:51:23,01:11:00,NA,incomplete,101,color,1,right,Blue_Star_Stripes_2.jpg,Purple_Circle_Stripes_1.jpg,Blue_Plus_Grid_4.jpg,left,762.3949999979232,false,high,NA,NA,NA,NA,NA,NA,NA,false
s2fkS6bn,3peg1bh7bh4xuzsxamnfbz6ha40bkr,3fq5jj512p11isfo4exqre22gxiknf,s2fkS6bn,2020-0188,2020-06-16,00:51:23,01:11:00,NA,incomplete,102,color,1,left,Red_Triangle_Stripes_3.jpg,Red_Circle_Chess_2.jpg,Purple_Plus_Stripes_4.jpg,right,715.990000004298,false,high,NA,NA,NA,NA,NA,NA,NA,false
s2fkS6bn,3peg1bh7bh4xuzsxamnfbz6ha40bkr,3fq5jj512p11isfo4exqre22gxiknf,s2fkS6bn,2020-0188,2020-06-16,00:51:23,01:11:00,NA,incomplete,103,color,1,right,Green_Triangle_Stripes_3.jpg,Red_Circle_Stripes_4.jpg,Green_Plus_Grid_2.jpg,left,683.3150000020396,false,high,NA,NA,NA,NA,NA,NA,NA,false
s2fkS6bn,3peg1bh7bh4xuzsxamnfbz6ha40bkr,3fq5jj512p11isfo4exqre22gxiknf,s2fkS6bn,2020-0188,2020-06-16,00:51:23,01:11:00,NA,incomplete,104,color,1,left,Green_Plus_Stripes_4.jpg,Green_Triangle_Dots_3.jpg,Red_Star_Stripes_1.jpg,right,913.1300000008196,false,high,NA,NA,NA,NA,NA,NA,NA,false
s2fkS6bn,3peg1bh7bh4xuzsxamnfbz6ha40bkr,3fq5jj512p11isfo4exqre22gxiknf,s2fkS6bn,2020-0188,2020-06-16,00:51:23,01:11:00,NA,incomplete,105,color,1,left,Green_Star_Grid_4.jpg,Green_Plus_Chess_1.jpg,Red_Circle_Grid_3.jpg,left,553.314999997383,true,high,NA,NA,NA,NA,NA,NA,NA,false
s2fkS6bn,3peg1bh7bh4xuzsxamnfbz6ha40bkr,3fq5jj512p11isfo4exqre22gxiknf,s2fkS6bn,2020-0188,2020-06-16,00:51:23,01:11:00,NA,incomplete,106,color,1,left,Purple_Star_Chess_1.jpg,Purple_Circle_Stripes_3.jpg,Red_Plus_Chess_4.jpg,left,501.0049999982584,true,high,NA,NA,NA,NA,NA,NA,NA,false
s2fkS6bn,3peg1bh7bh4xuzsxamnfbz6ha40bkr,3fq5jj512p11isfo4exqre22gxiknf,s2fkS6bn,2020-0188,2020-06-16,00:51:23,01:11:00,NA,incomplete,107,color,1,right,Purple_Triangle_Stripes_4.jpg,Green_Plus_Stripes_2.jpg,Purple_Circle_Chess_1.jpg,left,769.8749999981374,false,high,NA,NA,NA,NA,NA,NA,NA,false
s2fkS6bn,3peg1bh7bh4xuzsxamnfbz6ha40bkr,3fq5jj512p11isfo4exqre22gxiknf,s2fkS6bn,2020-0188,2020-06-16,00:51:23,01:11:00,NA,incomplete,108,color,1,left,Red_Circle_Stripes_4.jpg,Red_Triangle_Grid_2.jpg,Green_Star_Stripes_1.jpg,right,653.504999994766,false,high,NA,NA,NA,NA,NA,NA,NA,false
s2fkS6bn,3peg1bh7bh4xuzsxamnfbz6ha40bkr,3fq5jj512p11isfo4exqre22gxiknf,s2fkS6bn,2020-0188,2020-06-16,00:51:23,01:11:00,NA,incomplete,109,color,1,left,Green_Plus_Chess_1.jpg,Green_Circle_Grid_4.jpg,Red_Triangle_Chess_2.jpg,right,923.1500000023516,false,high,NA,NA,NA,NA,NA,NA,NA,false
s2fkS6bn,3peg1bh7bh4xuzsxamnfbz6ha40bkr,3fq5jj512p11isfo4exqre22gxiknf,s2fkS6bn,2020-0188,2020-06-16,00:51:23,01:11:00,NA,incomplete,110,filling,0,right,Purple_Triangle_Chess_1.jpg,Purple_Plus_Grid_4.jpg,Green_Circle_Chess_2.jpg,right,793.1200000019744,true,high,NA,NA,NA,NA,NA,NA,NA,false
s2fkS6bn,3peg1bh7bh4xuzsxamnfbz6ha40bkr,3fq5jj512p11isfo4exqre22gxiknf,s2fkS6bn,2020-0188,2020-06-16,00:51:23,01:11:00,NA,incomplete,111,filling,1,left,Purple_Star_Grid_1.jpg,Red_Plus_Grid_4.jpg,Purple_Triangle_Chess_2.jpg,left,796.0800000000745,true,high,NA,NA,NA,NA,NA,NA,NA,false
s2fkS6bn,3peg1bh7bh4xuzsxamnfbz6ha40bkr,3fq5jj512p11isfo4exqre22gxiknf,s2fkS6bn,2020-0188,2020-06-16,00:51:23,01:11:00,NA,incomplete,112,filling,0,right,Blue_Star_Stripes_1.jpg,Blue_Circle_Chess_4.jpg,Purple_Plus_Stripes_2.jpg,right,653.5000000003492,true,high,NA,NA,NA,NA,NA,NA,NA,false
s2fkS6bn,3peg1bh7bh4xuzsxamnfbz6ha40bkr,3fq5jj512p11isfo4exqre22gxiknf,s2fkS6bn,2020-0188,2020-06-16,00:51:23,01:11:00,NA,incomplete,113,filling,0,right,Green_Triangle_Chess_3.jpg,Green_Star_Stripes_4.jpg,Blue_Circle_Chess_1.jpg,right,761.2550000048941,true,high,NA,NA,NA,NA,NA,NA,NA,false
s2fkS6bn,3peg1bh7bh4xuzsxamnfbz6ha40bkr,3fq5jj512p11isfo4exqre22gxiknf,s2fkS6bn,2020-0188,2020-06-16,00:51:23,01:11:00,NA,incomplete,114,filling,0,left,Green_Circle_Dots_2.jpg,Red_Triangle_Dots_3.jpg,Green_Star_Stripes_4.jpg,left,662.3550000003306,true,high,NA,NA,NA,NA,NA,NA,NA,false
s2fkS6bn,3peg1bh7bh4xuzsxamnfbz6ha40bkr,3fq5jj512p11isfo4exqre22gxiknf,s2fkS6bn,2020-0188,2020-06-16,00:51:23,01:11:00,NA,incomplete,115,filling,1,right,Purple_Star_Grid_4.jpg,Purple_Plus_Dots_3.jpg,Blue_Triangle_Grid_1.jpg,left,595.8100000062259,false,high,NA,NA,NA,NA,NA,NA,NA,false
s2fkS6bn,3peg1bh7bh4xuzsxamnfbz6ha40bkr,3fq5jj512p11isfo4exqre22gxiknf,s2fkS6bn,2020-0188,2020-06-16,00:51:23,01:11:00,NA,incomplete,116,filling,1,left,Red_Circle_Dots_4.jpg,Purple_Triangle_Dots_1.jpg,Red_Plus_Grid_3.jpg,right,406.6049999964889,false,high,NA,NA,NA,NA,NA,NA,NA,false
s2fkS6bn,3peg1bh7bh4xuzsxamnfbz6ha40bkr,3fq5jj512p11isfo4exqre22gxiknf,s2fkS6bn,2020-0188,2020-06-16,00:51:23,01:11:00,NA,incomplete,117,filling,0,left,Purple_Plus_Grid_4.jpg,Blue_Triangle_Grid_3.jpg,Purple_Circle_Dots_2.jpg,right,504.69499999599066,false,high,NA,NA,NA,NA,NA,NA,NA,false
s2fkS6bn,3peg1bh7bh4xuzsxamnfbz6ha40bkr,3fq5jj512p11isfo4exqre22gxiknf,s2fkS6bn,2020-0188,2020-06-16,00:51:23,01:11:00,NA,incomplete,118,filling,0,left,Blue_Circle_Grid_4.jpg,Red_Plus_Grid_1.jpg,Blue_Star_Stripes_3.jpg,right,416.3300000000745,false,high,NA,NA,NA,NA,NA,NA,NA,false
s2fkS6bn,3peg1bh7bh4xuzsxamnfbz6ha40bkr,3fq5jj512p11isfo4exqre22gxiknf,s2fkS6bn,2020-0188,2020-06-16,00:51:23,01:11:00,NA,incomplete,119,filling,1,right,Purple_Plus_Chess_4.jpg,Purple_Circle_Dots_2.jpg,Green_Star_Chess_3.jpg,left,409.26500000210945,false,high,NA,NA,NA,NA,NA,NA,NA,false
s2fkS6bn,3peg1bh7bh4xuzsxamnfbz6ha40bkr,3fq5jj512p11isfo4exqre22gxiknf,s2fkS6bn,2020-0188,2020-06-16,00:51:23,01:11:00,NA,incomplete,120,shape,1,left,Blue_Star_Chess_2.jpg,Purple_Star_Dots_1.jpg,Red_Plus_Grid_2.jpg,NA,NA,NA,high,NA,NA,NA,NA,NA,NA,NA,false
s2fkS6bn,3peg1bh7bh4xuzsxamnfbz6ha40bkr,3fq5jj512p11isfo4exqre22gxiknf,s2fkS6bn,2020-0188,2020-06-16,00:51:23,01:11:00,NA,incomplete,121,shape,1,right,Green_Triangle_Grid_3.jpg,Red_Circle_Dots_3.jpg,Purple_Triangle_Stripes_2.jpg,right,1527.1450000000186,true,high,NA,NA,NA,NA,NA,NA,NA,false
s2fkS6bn,3peg1bh7bh4xuzsxamnfbz6ha40bkr,3fq5jj512p11isfo4exqre22gxiknf,s2fkS6bn,2020-0188,2020-06-16,00:51:23,01:11:00,NA,incomplete,122,shape,1,left,Blue_Circle_Grid_3.jpg,Red_Circle_Chess_4.jpg,Green_Plus_Dots_3.jpg,left,606.600000006496,true,high,NA,NA,NA,NA,NA,NA,NA,false
s2fkS6bn,3peg1bh7bh4xuzsxamnfbz6ha40bkr,3fq5jj512p11isfo4exqre22gxiknf,s2fkS6bn,2020-0188,2020-06-16,00:51:23,01:11:00,NA,incomplete,123,shape,1,left,Purple_Triangle_Chess_2.jpg,Red_Triangle_Dots_4.jpg,Blue_Plus_Stripes_2.jpg,left,899.9850000037113,true,high,NA,NA,NA,NA,NA,NA,NA,false
s2fkS6bn,3peg1bh7bh4xuzsxamnfbz6ha40bkr,3fq5jj512p11isfo4exqre22gxiknf,s2fkS6bn,2020-0188,2020-06-16,00:51:23,01:11:00,NA,incomplete,124,shape,0,right,Purple_Circle_Grid_4.jpg,Blue_Triangle_Dots_4.jpg,Green_Circle_Stripes_1.jpg,right,758.7799999965355,true,high,NA,NA,NA,NA,NA,NA,NA,false
s2fkS6bn,3peg1bh7bh4xuzsxamnfbz6ha40bkr,3fq5jj512p11isfo4exqre22gxiknf,s2fkS6bn,2020-0188,2020-06-16,00:51:23,01:11:00,NA,incomplete,125,shape,1,left,Green_Plus_Dots_1.jpg,Blue_Plus_Grid_3.jpg,Purple_Star_Stripes_1.jpg,left,571.2050000000745,true,high,NA,NA,NA,NA,NA,NA,NA,false
s2fkS6bn,3peg1bh7bh4xuzsxamnfbz6ha40bkr,3fq5jj512p11isfo4exqre22gxiknf,s2fkS6bn,2020-0188,2020-06-16,00:51:23,01:11:00,NA,incomplete,126,shape,0,right,Red_Plus_Chess_2.jpg,Purple_Triangle_Stripes_2.jpg,Blue_Plus_Grid_3.jpg,left,695.5100000051316,false,high,NA,NA,NA,NA,NA,NA,NA,false
s2fkS6bn,3peg1bh7bh4xuzsxamnfbz6ha40bkr,3fq5jj512p11isfo4exqre22gxiknf,s2fkS6bn,2020-0188,2020-06-16,00:51:23,01:11:00,NA,incomplete,127,shape,1,right,Blue_Star_Stripes_1.jpg,Purple_Triangle_Grid_1.jpg,Green_Star_Dots_4.jpg,right,676.994999994291,true,high,NA,NA,NA,NA,NA,NA,NA,false
s2fkS6bn,3peg1bh7bh4xuzsxamnfbz6ha40bkr,3fq5jj512p11isfo4exqre22gxiknf,s2fkS6bn,2020-0188,2020-06-16,00:51:23,01:11:00,NA,incomplete,128,shape,1,right,Purple_Plus_Dots_4.jpg,Green_Triangle_Chess_4.jpg,Red_Plus_Grid_1.jpg,right,646.1449999987381,true,high,NA,NA,NA,NA,NA,NA,NA,false
s2fkS6bn,3peg1bh7bh4xuzsxamnfbz6ha40bkr,3fq5jj512p11isfo4exqre22gxiknf,s2fkS6bn,2020-0188,2020-06-16,00:51:23,01:11:00,NA,incomplete,129,shape,1,left,Red_Triangle_Dots_4.jpg,Green_Triangle_Grid_2.jpg,Blue_Plus_Stripes_4.jpg,left,599.5399999956135,true,high,NA,NA,NA,NA,NA,NA,NA,false
s2fkS6bn,3peg1bh7bh4xuzsxamnfbz6ha40bkr,3fq5jj512p11isfo4exqre22gxiknf,s2fkS6bn,2020-0188,2020-06-16,00:51:23,01:11:00,NA,incomplete,130,shape,1,right,Red_Star_Stripes_3.jpg,Blue_Triangle_Chess_3.jpg,Purple_Star_Grid_4.jpg,right,603.429999995511,true,high,NA,NA,NA,NA,NA,NA,NA,false
s2fkS6bn,3peg1bh7bh4xuzsxamnfbz6ha40bkr,3fq5jj512p11isfo4exqre22gxiknf,s2fkS6bn,2020-0188,2020-06-16,00:51:23,01:11:00,NA,incomplete,131,shape,0,left,Green_Triangle_Stripes_3.jpg,Red_Triangle_Dots_4.jpg,Blue_Circle_Grid_3.jpg,left,589.4150000021327,true,high,NA,NA,NA,NA,NA,NA,NA,false
s2fkS6bn,3peg1bh7bh4xuzsxamnfbz6ha40bkr,3fq5jj512p11isfo4exqre22gxiknf,s2fkS6bn,2020-0188,2020-06-16,00:51:23,01:11:00,NA,incomplete,132,shape,1,right,Green_Plus_Chess_3.jpg,Purple_Circle_Grid_3.jpg,Blue_Plus_Dots_4.jpg,right,593.4849999975413,true,high,NA,NA,NA,NA,NA,NA,NA,false
s2fkS6bn,3peg1bh7bh4xuzsxamnfbz6ha40bkr,3fq5jj512p11isfo4exqre22gxiknf,s2fkS6bn,2020-0188,2020-06-16,00:51:23,01:11:00,NA,incomplete,133,shape,1,right,Blue_Circle_Chess_3.jpg,Purple_Triangle_Stripes_3.jpg,Red_Circle_Grid_4.jpg,right,569.5949999936856,true,high,NA,NA,NA,NA,NA,NA,NA,false
s2fkS6bn,3peg1bh7bh4xuzsxamnfbz6ha40bkr,3fq5jj512p11isfo4exqre22gxiknf,s2fkS6bn,2020-0188,2020-06-16,00:51:23,01:11:00,NA,incomplete,134,shape,1,left,Purple_Triangle_Stripes_1.jpg,Blue_Triangle_Chess_2.jpg,Green_Star_Grid_1.jpg,left,515.6599999972386,true,high,NA,NA,NA,NA,NA,NA,NA,false
s2fkS6bn,3peg1bh7bh4xuzsxamnfbz6ha40bkr,3fq5jj512p11isfo4exqre22gxiknf,s2fkS6bn,2020-0188,2020-06-16,00:51:23,01:11:00,NA,incomplete,135,shape,0,left,Green_Star_Dots_2.jpg,Blue_Star_Grid_3.jpg,Red_Circle_Stripes_2.jpg,left,595.4500000007683,true,high,NA,NA,NA,NA,NA,NA,NA,false
s2fkS6bn,3peg1bh7bh4xuzsxamnfbz6ha40bkr,3fq5jj512p11isfo4exqre22gxiknf,s2fkS6bn,2020-0188,2020-06-16,00:51:23,01:11:00,NA,incomplete,136,shape,1,left,Red_Circle_Chess_1.jpg,Purple_Circle_Stripes_4.jpg,Green_Star_Grid_1.jpg,left,606.2950000050478,true,high,NA,NA,NA,NA,NA,NA,NA,false
s2fkS6bn,3peg1bh7bh4xuzsxamnfbz6ha40bkr,3fq5jj512p11isfo4exqre22gxiknf,s2fkS6bn,2020-0188,2020-06-16,00:51:23,01:11:00,NA,incomplete,137,shape,1,right,Purple_Circle_Stripes_2.jpg,Blue_Triangle_Dots_2.jpg,Green_Circle_Grid_1.jpg,right,518.0749999999534,true,high,NA,NA,NA,NA,NA,NA,NA,false
s2fkS6bn,3peg1bh7bh4xuzsxamnfbz6ha40bkr,3fq5jj512p11isfo4exqre22gxiknf,s2fkS6bn,2020-0188,2020-06-16,00:51:23,01:11:00,NA,incomplete,138,shape,1,left,Purple_Circle_Grid_4.jpg,Red_Circle_Dots_1.jpg,Blue_Star_Chess_4.jpg,left,533.0150000009453,true,high,NA,NA,NA,NA,NA,NA,NA,false
s2fkS6bn,3peg1bh7bh4xuzsxamnfbz6ha40bkr,3fq5jj512p11isfo4exqre22gxiknf,s2fkS6bn,2020-0188,2020-06-16,00:51:23,01:11:00,NA,incomplete,139,shape,1,left,Purple_Circle_Grid_3.jpg,Blue_Circle_Dots_2.jpg,Green_Triangle_Chess_3.jpg,left,510.8299999992596,true,high,NA,NA,NA,NA,NA,NA,NA,false
s2fkS6bn,3peg1bh7bh4xuzsxamnfbz6ha40bkr,3fq5jj512p11isfo4exqre22gxiknf,s2fkS6bn,2020-0188,2020-06-16,00:51:23,01:11:00,NA,incomplete,140,number,1,left,Purple_Star_Dots_1.jpg,Red_Plus_Grid_1.jpg,Green_Star_Chess_2.jpg,right,537.624999997206,false,high,NA,NA,NA,NA,NA,NA,NA,false
s2fkS6bn,3peg1bh7bh4xuzsxamnfbz6ha40bkr,3fq5jj512p11isfo4exqre22gxiknf,s2fkS6bn,2020-0188,2020-06-16,00:51:23,01:11:00,NA,incomplete,141,number,0,right,Blue_Plus_Chess_4.jpg,Green_Plus_Dots_1.jpg,Red_Triangle_Stripes_4.jpg,left,570.7550000005867,false,high,NA,NA,NA,NA,NA,NA,NA,false
s2fkS6bn,3peg1bh7bh4xuzsxamnfbz6ha40bkr,3fq5jj512p11isfo4exqre22gxiknf,s2fkS6bn,2020-0188,2020-06-16,00:51:23,01:11:00,NA,incomplete,142,number,1,left,Red_Circle_Dots_1.jpg,Purple_Star_Stripes_1.jpg,Green_Circle_Grid_2.jpg,right,417.8650000031339,false,high,NA,NA,NA,NA,NA,NA,NA,false
s2fkS6bn,3peg1bh7bh4xuzsxamnfbz6ha40bkr,3fq5jj512p11isfo4exqre22gxiknf,s2fkS6bn,2020-0188,2020-06-16,00:51:23,01:11:00,NA,incomplete,143,number,1,left,Red_Circle_Grid_3.jpg,Purple_Plus_Stripes_3.jpg,Blue_Circle_Chess_1.jpg,right,691.1049999981187,false,high,NA,NA,NA,NA,NA,NA,NA,false
s2fkS6bn,3peg1bh7bh4xuzsxamnfbz6ha40bkr,3fq5jj512p11isfo4exqre22gxiknf,s2fkS6bn,2020-0188,2020-06-16,00:51:23,01:11:00,NA,incomplete,144,number,1,left,Red_Star_Grid_1.jpg,Purple_Triangle_Stripes_1.jpg,Green_Star_Chess_4.jpg,left,544.8850000029197,true,high,NA,NA,NA,NA,NA,NA,NA,false
s2fkS6bn,3peg1bh7bh4xuzsxamnfbz6ha40bkr,3fq5jj512p11isfo4exqre22gxiknf,s2fkS6bn,2020-0188,2020-06-16,00:51:23,01:11:00,NA,incomplete,145,number,1,left,Purple_Triangle_Chess_1.jpg,Blue_Star_Stripes_1.jpg,Green_Triangle_Grid_3.jpg,left,657.2349999988219,true,high,NA,NA,NA,NA,NA,NA,NA,false
s2fkS6bn,3peg1bh7bh4xuzsxamnfbz6ha40bkr,3fq5jj512p11isfo4exqre22gxiknf,s2fkS6bn,2020-0188,2020-06-16,00:51:23,01:11:00,NA,incomplete,146,number,0,left,Red_Circle_Stripes_3.jpg,Purple_Triangle_Dots_3.jpg,Blue_Circle_Chess_1.jpg,left,641.0050000048941,true,high,NA,NA,NA,NA,NA,NA,NA,false
s2fkS6bn,3peg1bh7bh4xuzsxamnfbz6ha40bkr,3fq5jj512p11isfo4exqre22gxiknf,s2fkS6bn,2020-0188,2020-06-16,00:51:23,01:11:00,NA,incomplete,147,number,1,right,Green_Triangle_Chess_1.jpg,Blue_Triangle_Grid_3.jpg,Red_Circle_Stripes_1.jpg,right,933.6549999933923,true,high,NA,NA,NA,NA,NA,NA,NA,false
s2fkS6bn,3peg1bh7bh4xuzsxamnfbz6ha40bkr,3fq5jj512p11isfo4exqre22gxiknf,s2fkS6bn,2020-0188,2020-06-16,00:51:23,01:11:00,NA,incomplete,148,number,1,right,Purple_Plus_Dots_4.jpg,Green_Plus_Chess_3.jpg,Red_Star_Grid_4.jpg,right,659.8400000002002,true,high,NA,NA,NA,NA,NA,NA,NA,false
s2fkS6bn,3peg1bh7bh4xuzsxamnfbz6ha40bkr,3fq5jj512p11isfo4exqre22gxiknf,s2fkS6bn,2020-0188,2020-06-16,00:51:23,01:11:00,NA,incomplete,149,number,1,left,Purple_Triangle_Stripes_2.jpg,Blue_Plus_Dots_2.jpg,Green_Triangle_Chess_1.jpg,left,669.9050000025891,true,high,NA,NA,NA,NA,NA,NA,NA,false
s2fkS6bn,3peg1bh7bh4xuzsxamnfbz6ha40bkr,3fq5jj512p11isfo4exqre22gxiknf,s2fkS6bn,2020-0188,2020-06-16,00:51:23,01:11:00,NA,incomplete,150,number,1,left,Red_Plus_Grid_2.jpg,Blue_Triangle_Chess_2.jpg,Purple_Plus_Stripes_4.jpg,left,555.1699999995762,true,high,NA,NA,NA,NA,NA,NA,NA,false
s2fkS6bn,3peg1bh7bh4xuzsxamnfbz6ha40bkr,3fq5jj512p11isfo4exqre22gxiknf,s2fkS6bn,2020-0188,2020-06-16,00:51:23,01:11:00,NA,incomplete,151,number,1,left,Red_Triangle_Stripes_1.jpg,Green_Circle_Chess_1.jpg,Purple_Triangle_Grid_4.jpg,left,544.3999999987427,true,high,NA,NA,NA,NA,NA,NA,NA,false
s2fkS6bn,3peg1bh7bh4xuzsxamnfbz6ha40bkr,3fq5jj512p11isfo4exqre22gxiknf,s2fkS6bn,2020-0188,2020-06-16,00:51:23,01:11:00,NA,incomplete,152,number,0,right,Blue_Star_Dots_2.jpg,Red_Star_Chess_4.jpg,Purple_Plus_Grid_2.jpg,right,743.7449999997625,true,high,NA,NA,NA,NA,NA,NA,NA,false
s2fkS6bn,3peg1bh7bh4xuzsxamnfbz6ha40bkr,3fq5jj512p11isfo4exqre22gxiknf,s2fkS6bn,2020-0188,2020-06-16,00:51:23,01:11:00,NA,incomplete,153,number,1,left,Purple_Star_Grid_1.jpg,Green_Plus_Chess_1.jpg,Red_Star_Dots_4.jpg,left,467.6550000003772,true,high,NA,NA,NA,NA,NA,NA,NA,false
s2fkS6bn,3peg1bh7bh4xuzsxamnfbz6ha40bkr,3fq5jj512p11isfo4exqre22gxiknf,s2fkS6bn,2020-0188,2020-06-16,00:51:23,01:11:00,NA,incomplete,154,number,1,right,Red_Plus_Stripes_3.jpg,Blue_Plus_Dots_4.jpg,Purple_Triangle_Chess_3.jpg,right,612.8100000058766,true,high,NA,NA,NA,NA,NA,NA,NA,false
s2fkS6bn,3peg1bh7bh4xuzsxamnfbz6ha40bkr,3fq5jj512p11isfo4exqre22gxiknf,s2fkS6bn,2020-0188,2020-06-16,00:51:23,01:11:00,NA,incomplete,155,number,1,left,Blue_Triangle_Dots_1.jpg,Purple_Plus_Chess_1.jpg,Red_Triangle_Stripes_2.jpg,left,544.6000000010245,true,high,NA,NA,NA,NA,NA,NA,NA,false
s2fkS6bn,3peg1bh7bh4xuzsxamnfbz6ha40bkr,3fq5jj512p11isfo4exqre22gxiknf,s2fkS6bn,2020-0188,2020-06-16,00:51:23,01:11:00,NA,incomplete,156,number,1,right,Blue_Triangle_Grid_3.jpg,Purple_Triangle_Stripes_1.jpg,Red_Plus_Chess_3.jpg,right,560.1150000002235,true,high,NA,NA,NA,NA,NA,NA,NA,false
s2fkS6bn,3peg1bh7bh4xuzsxamnfbz6ha40bkr,3fq5jj512p11isfo4exqre22gxiknf,s2fkS6bn,2020-0188,2020-06-16,00:51:23,01:11:00,NA,incomplete,157,number,0,right,Red_Circle_Stripes_2.jpg,Green_Circle_Grid_1.jpg,Purple_Triangle_Dots_2.jpg,right,604.9800000037067,true,high,NA,NA,NA,NA,NA,NA,NA,false
s2fkS6bn,3peg1bh7bh4xuzsxamnfbz6ha40bkr,3fq5jj512p11isfo4exqre22gxiknf,s2fkS6bn,2020-0188,2020-06-16,00:51:23,01:11:00,NA,incomplete,158,number,1,left,Green_Triangle_Chess_4.jpg,Red_Star_Stripes_4.jpg,Purple_Triangle_Dots_3.jpg,left,560.8600000051083,true,high,NA,NA,NA,NA,NA,NA,NA,false
s2fkS6bn,3peg1bh7bh4xuzsxamnfbz6ha40bkr,3fq5jj512p11isfo4exqre22gxiknf,s2fkS6bn,2020-0188,2020-06-16,00:51:23,01:11:00,NA,incomplete,159,number,1,right,Green_Plus_Grid_4.jpg,Red_Plus_Dots_1.jpg,Purple_Star_Stripes_4.jpg,right,491.96500000113156,true,high,NA,NA,NA,NA,NA,NA,NA,false
s2fkS6bn,3peg1bh7bh4xuzsxamnfbz6ha40bkr,3fq5jj512p11isfo4exqre22gxiknf,s2fkS6bn,2020-0188,2020-06-16,00:51:23,01:11:00,NA,incomplete,160,shape,0,left,Blue_Plus_Chess_4.jpg,Green_Plus_Grid_3.jpg,Red_Star_Stripes_4.jpg,right,635.8849999960512,false,high,NA,NA,NA,NA,NA,NA,NA,false
s2fkS6bn,3peg1bh7bh4xuzsxamnfbz6ha40bkr,3fq5jj512p11isfo4exqre22gxiknf,s2fkS6bn,2020-0188,2020-06-16,00:51:23,01:11:00,NA,incomplete,161,shape,1,right,Purple_Plus_Grid_3.jpg,Green_Circle_Dots_3.jpg,Red_Plus_Chess_1.jpg,left,577.7799999995623,false,high,NA,NA,NA,NA,NA,NA,NA,false
s2fkS6bn,3peg1bh7bh4xuzsxamnfbz6ha40bkr,3fq5jj512p11isfo4exqre22gxiknf,s2fkS6bn,2020-0188,2020-06-16,00:51:23,01:11:00,NA,incomplete,162,shape,1,left,Red_Star_Chess_2.jpg,Blue_Star_Grid_4.jpg,Purple_Triangle_Dots_2.jpg,right,587.020000006305,false,high,NA,NA,NA,NA,NA,NA,NA,false
s2fkS6bn,3peg1bh7bh4xuzsxamnfbz6ha40bkr,3fq5jj512p11isfo4exqre22gxiknf,s2fkS6bn,2020-0188,2020-06-16,00:51:23,01:11:00,NA,incomplete,163,shape,1,right,Purple_Star_Chess_3.jpg,Red_Triangle_Dots_3.jpg,Green_Star_Stripes_2.jpg,right,855.5099999939557,true,high,NA,NA,NA,NA,NA,NA,NA,false
s2fkS6bn,3peg1bh7bh4xuzsxamnfbz6ha40bkr,3fq5jj512p11isfo4exqre22gxiknf,s2fkS6bn,2020-0188,2020-06-16,00:51:23,01:11:00,NA,incomplete,164,shape,0,left,Green_Triangle_Dots_1.jpg,Red_Triangle_Chess_3.jpg,Purple_Star_Stripes_1.jpg,left,598.3400000041584,true,high,NA,NA,NA,NA,NA,NA,NA,false
s2fkS6bn,3peg1bh7bh4xuzsxamnfbz6ha40bkr,3fq5jj512p11isfo4exqre22gxiknf,s2fkS6bn,2020-0188,2020-06-16,00:51:23,01:11:00,NA,incomplete,165,shape,1,left,Red_Triangle_Chess_1.jpg,Green_Triangle_Dots_4.jpg,Blue_Plus_Grid_1.jpg,left,647.4000000015367,true,high,NA,NA,NA,NA,NA,NA,NA,false
s2fkS6bn,3peg1bh7bh4xuzsxamnfbz6ha40bkr,3fq5jj512p11isfo4exqre22gxiknf,s2fkS6bn,2020-0188,2020-06-16,00:51:23,01:11:00,NA,incomplete,166,shape,1,left,Red_Triangle_Dots_2.jpg,Green_Triangle_Chess_1.jpg,Purple_Star_Stripes_2.jpg,left,577.5250000006054,true,high,NA,NA,NA,NA,NA,NA,NA,false
s2fkS6bn,3peg1bh7bh4xuzsxamnfbz6ha40bkr,3fq5jj512p11isfo4exqre22gxiknf,s2fkS6bn,2020-0188,2020-06-16,00:51:23,01:11:00,NA,incomplete,167,shape,1,right,Purple_Triangle_Grid_2.jpg,Green_Star_Dots_2.jpg,Blue_Triangle_Stripes_1.jpg,left,823.7399999998743,false,high,NA,NA,NA,NA,NA,NA,NA,false
s2fkS6bn,3peg1bh7bh4xuzsxamnfbz6ha40bkr,3fq5jj512p11isfo4exqre22gxiknf,s2fkS6bn,2020-0188,2020-06-16,00:51:23,01:11:00,NA,incomplete,168,shape,1,right,Green_Circle_Chess_2.jpg,Purple_Triangle_Stripes_2.jpg,Blue_Circle_Grid_4.jpg,right,835.2149999991525,true,high,NA,NA,NA,NA,NA,NA,NA,false
s2fkS6bn,3peg1bh7bh4xuzsxamnfbz6ha40bkr,3fq5jj512p11isfo4exqre22gxiknf,s2fkS6bn,2020-0188,2020-06-16,00:51:23,01:11:00,NA,incomplete,169,shape,1,left,Green_Plus_Stripes_3.jpg,Red_Plus_Chess_2.jpg,Blue_Star_Grid_3.jpg,left,740.1150000005728,true,high,NA,NA,NA,NA,NA,NA,NA,false
s2fkS6bn,3peg1bh7bh4xuzsxamnfbz6ha40bkr,3fq5jj512p11isfo4exqre22gxiknf,s2fkS6bn,2020-0188,2020-06-16,00:51:23,01:11:00,NA,incomplete,170,shape,1,left,Red_Circle_Chess_2.jpg,Purple_Circle_Dots_4.jpg,Green_Star_Stripes_2.jpg,left,630.3449999977602,true,high,NA,NA,NA,NA,NA,NA,NA,false
s2fkS6bn,3peg1bh7bh4xuzsxamnfbz6ha40bkr,3fq5jj512p11isfo4exqre22gxiknf,s2fkS6bn,2020-0188,2020-06-16,00:51:23,01:11:00,NA,incomplete,171,shape,1,left,Red_Star_Dots_1.jpg,Blue_Star_Stripes_4.jpg,Purple_Plus_Chess_1.jpg,left,587.8099999972619,true,high,NA,NA,NA,NA,NA,NA,NA,false
s2fkS6bn,3peg1bh7bh4xuzsxamnfbz6ha40bkr,3fq5jj512p11isfo4exqre22gxiknf,s2fkS6bn,2020-0188,2020-06-16,00:51:23,01:11:00,NA,incomplete,172,shape,1,left,Red_Circle_Stripes_3.jpg,Green_Circle_Chess_4.jpg,Blue_Plus_Dots_3.jpg,left,666.4650000020629,true,high,NA,NA,NA,NA,NA,NA,NA,false
s2fkS6bn,3peg1bh7bh4xuzsxamnfbz6ha40bkr,3fq5jj512p11isfo4exqre22gxiknf,s2fkS6bn,2020-0188,2020-06-16,00:51:23,01:11:00,NA,incomplete,173,shape,1,right,Green_Star_Chess_4.jpg,Blue_Plus_Grid_4.jpg,Red_Star_Dots_2.jpg,right,654.5700000061188,true,high,NA,NA,NA,NA,NA,NA,NA,false
s2fkS6bn,3peg1bh7bh4xuzsxamnfbz6ha40bkr,3fq5jj512p11isfo4exqre22gxiknf,s2fkS6bn,2020-0188,2020-06-16,00:51:23,01:11:00,NA,incomplete,174,shape,1,right,Red_Plus_Chess_3.jpg,Purple_Triangle_Dots_3.jpg,Blue_Plus_Stripes_2.jpg,right,735.6349999973318,true,high,NA,NA,NA,NA,NA,NA,NA,false
s2fkS6bn,3peg1bh7bh4xuzsxamnfbz6ha40bkr,3fq5jj512p11isfo4exqre22gxiknf,s2fkS6bn,2020-0188,2020-06-16,00:51:23,01:11:00,NA,incomplete,175,shape,1,left,Green_Plus_Grid_2.jpg,Blue_Plus_Stripes_1.jpg,Purple_Star_Chess_2.jpg,left,573.920000002603,true,high,NA,NA,NA,NA,NA,NA,NA,false
s2fkS6bn,3peg1bh7bh4xuzsxamnfbz6ha40bkr,3fq5jj512p11isfo4exqre22gxiknf,s2fkS6bn,2020-0188,2020-06-16,00:51:23,01:11:00,NA,incomplete,176,shape,1,right,Red_Star_Stripes_2.jpg,Purple_Circle_Dots_2.jpg,Green_Star_Chess_1.jpg,right,615.874999995809,true,high,NA,NA,NA,NA,NA,NA,NA,false
s2fkS6bn,3peg1bh7bh4xuzsxamnfbz6ha40bkr,3fq5jj512p11isfo4exqre22gxiknf,s2fkS6bn,2020-0188,2020-06-16,00:51:23,01:11:00,NA,incomplete,177,shape,1,right,Green_Circle_Chess_4.jpg,Purple_Triangle_Stripes_4.jpg,Blue_Circle_Grid_1.jpg,right,561.9749999968335,true,high,NA,NA,NA,NA,NA,NA,NA,false
s2fkS6bn,3peg1bh7bh4xuzsxamnfbz6ha40bkr,3fq5jj512p11isfo4exqre22gxiknf,s2fkS6bn,2020-0188,2020-06-16,00:51:23,01:11:00,NA,incomplete,178,shape,1,right,Red_Plus_Grid_3.jpg,Purple_Star_Chess_3.jpg,Green_Plus_Dots_2.jpg,right,646.4650000053225,true,high,NA,NA,NA,NA,NA,NA,NA,false
s2fkS6bn,3peg1bh7bh4xuzsxamnfbz6ha40bkr,3fq5jj512p11isfo4exqre22gxiknf,s2fkS6bn,2020-0188,2020-06-16,00:51:23,01:11:00,NA,incomplete,179,shape,1,right,Red_Triangle_Chess_2.jpg,Green_Plus_Grid_2.jpg,Blue_Triangle_Dots_4.jpg,right,592.1050000034738,true,high,NA,NA,NA,NA,NA,NA,NA,false
s2fkS6bn,3peg1bh7bh4xuzsxamnfbz6ha40bkr,3fq5jj512p11isfo4exqre22gxiknf,s2fkS6bn,2020-0188,2020-06-16,00:51:23,01:11:00,NA,incomplete,180,number,1,left,Blue_Plus_Dots_2.jpg,Red_Triangle_Chess_2.jpg,Green_Plus_Grid_1.jpg,right,702.8849999988452,false,high,NA,NA,NA,NA,NA,NA,NA,false
s2fkS6bn,3peg1bh7bh4xuzsxamnfbz6ha40bkr,3fq5jj512p11isfo4exqre22gxiknf,s2fkS6bn,2020-0188,2020-06-16,00:51:23,01:11:00,NA,incomplete,181,number,1,left,Red_Plus_Grid_4.jpg,Blue_Triangle_Dots_4.jpg,Purple_Plus_Chess_3.jpg,right,656.9000000017695,false,high,NA,NA,NA,NA,NA,NA,NA,false
s2fkS6bn,3peg1bh7bh4xuzsxamnfbz6ha40bkr,3fq5jj512p11isfo4exqre22gxiknf,s2fkS6bn,2020-0188,2020-06-16,00:51:23,01:11:00,NA,incomplete,182,number,1,left,Purple_Circle_Chess_2.jpg,Red_Triangle_Dots_2.jpg,Blue_Circle_Stripes_3.jpg,left,547.9199999973644,true,high,NA,NA,NA,NA,NA,NA,NA,false
s2fkS6bn,3peg1bh7bh4xuzsxamnfbz6ha40bkr,3fq5jj512p11isfo4exqre22gxiknf,s2fkS6bn,2020-0188,2020-06-16,00:51:23,01:11:00,NA,incomplete,183,number,1,left,Purple_Circle_Dots_4.jpg,Green_Plus_Stripes_4.jpg,Blue_Circle_Chess_2.jpg,left,725.0399999975925,true,high,NA,NA,NA,NA,NA,NA,NA,false
s2fkS6bn,3peg1bh7bh4xuzsxamnfbz6ha40bkr,3fq5jj512p11isfo4exqre22gxiknf,s2fkS6bn,2020-0188,2020-06-16,00:51:23,01:11:00,NA,incomplete,184,number,0,right,Green_Circle_Dots_3.jpg,Red_Circle_Grid_1.jpg,Blue_Triangle_Chess_3.jpg,right,651.9399999962188,true,high,NA,NA,NA,NA,NA,NA,NA,false
s2fkS6bn,3peg1bh7bh4xuzsxamnfbz6ha40bkr,3fq5jj512p11isfo4exqre22gxiknf,s2fkS6bn,2020-0188,2020-06-16,00:51:23,01:11:00,NA,incomplete,185,number,1,left,Green_Plus_Stripes_2.jpg,Purple_Triangle_Chess_2.jpg,Red_Plus_Grid_3.jpg,left,554.3400000024121,true,high,NA,NA,NA,NA,NA,NA,NA,false
s2fkS6bn,3peg1bh7bh4xuzsxamnfbz6ha40bkr,3fq5jj512p11isfo4exqre22gxiknf,s2fkS6bn,2020-0188,2020-06-16,00:51:23,01:11:00,NA,incomplete,186,number,0,right,Red_Triangle_Stripes_1.jpg,Purple_Triangle_Dots_4.jpg,Blue_Circle_Grid_1.jpg,right,577.0249999987427,true,high,NA,NA,NA,NA,NA,NA,NA,false
s2fkS6bn,3peg1bh7bh4xuzsxamnfbz6ha40bkr,3fq5jj512p11isfo4exqre22gxiknf,s2fkS6bn,2020-0188,2020-06-16,00:51:23,01:11:00,NA,incomplete,187,number,1,right,Blue_Circle_Chess_4.jpg,Green_Circle_Dots_1.jpg,Red_Star_Grid_4.jpg,right,582.6949999972712,true,high,NA,NA,NA,NA,NA,NA,NA,false
s2fkS6bn,3peg1bh7bh4xuzsxamnfbz6ha40bkr,3fq5jj512p11isfo4exqre22gxiknf,s2fkS6bn,2020-0188,2020-06-16,00:51:23,01:11:00,NA,incomplete,188,number,1,left,Red_Plus_Chess_4.jpg,Purple_Circle_Grid_4.jpg,Blue_Plus_Dots_3.jpg,right,614.4050000002608,false,high,NA,NA,NA,NA,NA,NA,NA,false
s2fkS6bn,3peg1bh7bh4xuzsxamnfbz6ha40bkr,3fq5jj512p11isfo4exqre22gxiknf,s2fkS6bn,2020-0188,2020-06-16,00:51:23,01:11:00,NA,incomplete,189,number,1,right,Red_Plus_Chess_2.jpg,Green_Plus_Stripes_4.jpg,Blue_Triangle_Dots_2.jpg,right,682.5349999999162,true,high,NA,NA,NA,NA,NA,NA,NA,false
s2fkS6bn,3peg1bh7bh4xuzsxamnfbz6ha40bkr,3fq5jj512p11isfo4exqre22gxiknf,s2fkS6bn,2020-0188,2020-06-16,00:51:23,01:11:00,NA,incomplete,190,number,1,left,Blue_Star_Dots_4.jpg,Purple_Plus_Stripes_4.jpg,Green_Star_Chess_1.jpg,left,518.4149999986403,true,high,NA,NA,NA,NA,NA,NA,NA,false
s2fkS6bn,3peg1bh7bh4xuzsxamnfbz6ha40bkr,3fq5jj512p11isfo4exqre22gxiknf,s2fkS6bn,2020-0188,2020-06-16,00:51:23,01:11:00,NA,incomplete,191,number,1,left,Red_Plus_Dots_2.jpg,Blue_Circle_Stripes_2.jpg,Purple_Plus_Chess_3.jpg,left,575.5900000003166,true,high,NA,NA,NA,NA,NA,NA,NA,false
s2fkS6bn,3peg1bh7bh4xuzsxamnfbz6ha40bkr,3fq5jj512p11isfo4exqre22gxiknf,s2fkS6bn,2020-0188,2020-06-16,00:51:23,01:11:00,NA,incomplete,192,number,0,left,Green_Star_Chess_1.jpg,Red_Circle_Grid_1.jpg,Purple_Star_Stripes_3.jpg,left,587.1249999982538,true,high,NA,NA,NA,NA,NA,NA,NA,false
s2fkS6bn,3peg1bh7bh4xuzsxamnfbz6ha40bkr,3fq5jj512p11isfo4exqre22gxiknf,s2fkS6bn,2020-0188,2020-06-16,00:51:23,01:11:00,NA,incomplete,193,number,1,right,Blue_Star_Stripes_3.jpg,Green_Star_Grid_1.jpg,Red_Triangle_Dots_3.jpg,right,587.1299999998882,true,high,NA,NA,NA,NA,NA,NA,NA,false
s2fkS6bn,3peg1bh7bh4xuzsxamnfbz6ha40bkr,3fq5jj512p11isfo4exqre22gxiknf,s2fkS6bn,2020-0188,2020-06-16,00:51:23,01:11:00,NA,incomplete,194,number,0,right,Purple_Circle_Dots_2.jpg,Red_Circle_Chess_3.jpg,Blue_Triangle_Stripes_2.jpg,right,630.8500000013737,true,high,NA,NA,NA,NA,NA,NA,NA,false
s2fkS6bn,3peg1bh7bh4xuzsxamnfbz6ha40bkr,3fq5jj512p11isfo4exqre22gxiknf,s2fkS6bn,2020-0188,2020-06-16,00:51:23,01:11:00,NA,incomplete,195,number,1,right,Purple_Star_Stripes_4.jpg,Blue_Star_Dots_2.jpg,Red_Plus_Chess_4.jpg,right,604.4499999987893,true,high,NA,NA,NA,NA,NA,NA,NA,false
s2fkS6bn,3peg1bh7bh4xuzsxamnfbz6ha40bkr,3fq5jj512p11isfo4exqre22gxiknf,s2fkS6bn,2020-0188,2020-06-16,00:51:23,01:11:00,NA,incomplete,196,number,0,left,Blue_Circle_Stripes_2.jpg,Red_Plus_Grid_2.jpg,Green_Circle_Chess_4.jpg,left,716.8449999953154,true,high,NA,NA,NA,NA,NA,NA,NA,false
s2fkS6bn,3peg1bh7bh4xuzsxamnfbz6ha40bkr,3fq5jj512p11isfo4exqre22gxiknf,s2fkS6bn,2020-0188,2020-06-16,00:51:23,01:11:00,NA,incomplete,197,number,1,left,Green_Triangle_Grid_1.jpg,Red_Star_Stripes_1.jpg,Purple_Triangle_Chess_3.jpg,left,677.4000000003725,true,high,NA,NA,NA,NA,NA,NA,NA,false
s2fkS6bn,3peg1bh7bh4xuzsxamnfbz6ha40bkr,3fq5jj512p11isfo4exqre22gxiknf,s2fkS6bn,2020-0188,2020-06-16,00:51:23,01:11:00,NA,incomplete,198,number,1,left,Blue_Circle_Grid_1.jpg,Purple_Triangle_Chess_1.jpg,Red_Circle_Stripes_3.jpg,left,536.3700000017416,true,high,NA,NA,NA,NA,NA,NA,NA,false
s2fkS6bn,3peg1bh7bh4xuzsxamnfbz6ha40bkr,3fq5jj512p11isfo4exqre22gxiknf,s2fkS6bn,2020-0188,2020-06-16,00:51:23,01:11:00,NA,incomplete,199,number,0,right,Purple_Triangle_Dots_3.jpg,Red_Triangle_Grid_2.jpg,Green_Star_Stripes_3.jpg,right,613.6049999985844,true,high,NA,NA,NA,NA,NA,NA,NA,false
s2fkS6bn,3peg1bh7bh4xuzsxamnfbz6ha40bkr,3fq5jj512p11isfo4exqre22gxiknf,s2fkS6bn,2020-0188,2020-06-16,00:51:23,01:11:00,NA,incomplete,200,shape,1,right,Green_Plus_Stripes_4.jpg,Purple_Circle_Chess_4.jpg,Red_Plus_Dots_1.jpg,left,557.919999999227,false,high,NA,NA,NA,NA,NA,NA,NA,false
s2fkS6bn,3peg1bh7bh4xuzsxamnfbz6ha40bkr,3fq5jj512p11isfo4exqre22gxiknf,s2fkS6bn,2020-0188,2020-06-16,00:51:23,01:11:00,NA,incomplete,201,shape,1,right,Blue_Triangle_Chess_4.jpg,Purple_Star_Grid_4.jpg,Green_Triangle_Stripes_2.jpg,right,780.4350000005215,true,high,NA,NA,NA,NA,NA,NA,NA,false
s2fkS6bn,3peg1bh7bh4xuzsxamnfbz6ha40bkr,3fq5jj512p11isfo4exqre22gxiknf,s2fkS6bn,2020-0188,2020-06-16,00:51:23,01:11:00,NA,incomplete,202,shape,1,right,Purple_Circle_Dots_2.jpg,Red_Star_Stripes_2.jpg,Blue_Circle_Chess_3.jpg,right,476.82499999785796,true,high,NA,NA,NA,NA,NA,NA,NA,false
s2fkS6bn,3peg1bh7bh4xuzsxamnfbz6ha40bkr,3fq5jj512p11isfo4exqre22gxiknf,s2fkS6bn,2020-0188,2020-06-16,00:51:23,01:11:00,NA,incomplete,203,shape,1,left,Blue_Circle_Chess_2.jpg,Green_Circle_Stripes_3.jpg,Purple_Star_Dots_2.jpg,left,636.5099999965169,true,high,NA,NA,NA,NA,NA,NA,NA,false
s2fkS6bn,3peg1bh7bh4xuzsxamnfbz6ha40bkr,3fq5jj512p11isfo4exqre22gxiknf,s2fkS6bn,2020-0188,2020-06-16,00:51:23,01:11:00,NA,incomplete,204,shape,1,left,Red_Circle_Grid_3.jpg,Green_Circle_Chess_4.jpg,Blue_Plus_Stripes_3.jpg,left,483.58500000159256,true,high,NA,NA,NA,NA,NA,NA,NA,false
s2fkS6bn,3peg1bh7bh4xuzsxamnfbz6ha40bkr,3fq5jj512p11isfo4exqre22gxiknf,s2fkS6bn,2020-0188,2020-06-16,00:51:23,01:11:00,NA,incomplete,205,shape,1,left,Green_Circle_Grid_4.jpg,Red_Circle_Stripes_1.jpg,Blue_Plus_Dots_4.jpg,left,704.6499999994412,true,high,NA,NA,NA,NA,NA,NA,NA,false
s2fkS6bn,3peg1bh7bh4xuzsxamnfbz6ha40bkr,3fq5jj512p11isfo4exqre22gxiknf,s2fkS6bn,2020-0188,2020-06-16,00:51:23,01:11:00,NA,incomplete,206,shape,0,left,Purple_Star_Dots_1.jpg,Blue_Star_Chess_2.jpg,Green_Plus_Grid_1.jpg,left,673.2100000008941,true,high,NA,NA,NA,NA,NA,NA,NA,false
s2fkS6bn,3peg1bh7bh4xuzsxamnfbz6ha40bkr,3fq5jj512p11isfo4exqre22gxiknf,s2fkS6bn,2020-0188,2020-06-16,00:51:23,01:11:00,NA,incomplete,207,shape,1,right,Blue_Triangle_Stripes_1.jpg,Purple_Plus_Grid_1.jpg,Green_Triangle_Dots_2.jpg,right,592.3399999954272,true,high,NA,NA,NA,NA,NA,NA,NA,false
s2fkS6bn,3peg1bh7bh4xuzsxamnfbz6ha40bkr,3fq5jj512p11isfo4exqre22gxiknf,s2fkS6bn,2020-0188,2020-06-16,00:51:23,01:11:00,NA,incomplete,208,shape,0,left,Green_Star_Grid_4.jpg,Purple_Star_Stripes_1.jpg,Red_Plus_Chess_4.jpg,left,688.6299999968614,true,high,NA,NA,NA,NA,NA,NA,NA,false
s2fkS6bn,3peg1bh7bh4xuzsxamnfbz6ha40bkr,3fq5jj512p11isfo4exqre22gxiknf,s2fkS6bn,2020-0188,2020-06-16,00:51:23,01:11:00,NA,incomplete,209,shape,1,right,Blue_Triangle_Chess_1.jpg,Green_Star_Grid_1.jpg,Red_Triangle_Stripes_2.jpg,right,583.8799999984913,true,high,NA,NA,NA,NA,NA,NA,NA,false
s2fkS6bn,3peg1bh7bh4xuzsxamnfbz6ha40bkr,3fq5jj512p11isfo4exqre22gxiknf,s2fkS6bn,2020-0188,2020-06-16,00:51:23,01:11:00,NA,incomplete,210,shape,0,right,Blue_Triangle_Grid_3.jpg,Green_Plus_Dots_3.jpg,Purple_Triangle_Chess_2.jpg,right,559.4950000012759,true,high,NA,NA,NA,NA,NA,NA,NA,false
s2fkS6bn,3peg1bh7bh4xuzsxamnfbz6ha40bkr,3fq5jj512p11isfo4exqre22gxiknf,s2fkS6bn,2020-0188,2020-06-16,00:51:23,01:11:00,NA,incomplete,211,shape,1,left,Blue_Plus_Dots_1.jpg,Green_Plus_Grid_2.jpg,Red_Star_Chess_1.jpg,left,555.0349999975879,true,high,NA,NA,NA,NA,NA,NA,NA,false
s2fkS6bn,3peg1bh7bh4xuzsxamnfbz6ha40bkr,3fq5jj512p11isfo4exqre22gxiknf,s2fkS6bn,2020-0188,2020-06-16,00:51:23,01:11:00,NA,incomplete,212,shape,0,left,Green_Star_Grid_1.jpg,Red_Star_Stripes_2.jpg,Purple_Triangle_Chess_1.jpg,left,576.0200000004843,true,high,NA,NA,NA,NA,NA,NA,NA,false
s2fkS6bn,3peg1bh7bh4xuzsxamnfbz6ha40bkr,3fq5jj512p11isfo4exqre22gxiknf,s2fkS6bn,2020-0188,2020-06-16,00:51:23,01:11:00,NA,incomplete,213,shape,1,left,Green_Plus_Stripes_1.jpg,Red_Plus_Dots_3.jpg,Purple_Triangle_Grid_1.jpg,left,635.9750000047497,true,high,NA,NA,NA,NA,NA,NA,NA,false
s2fkS6bn,3peg1bh7bh4xuzsxamnfbz6ha40bkr,3fq5jj512p11isfo4exqre22gxiknf,s2fkS6bn,2020-0188,2020-06-16,00:51:23,01:11:00,NA,incomplete,214,shape,1,right,Red_Circle_Stripes_1.jpg,Purple_Triangle_Grid_1.jpg,Green_Circle_Chess_4.jpg,right,525.4199999982957,true,high,NA,NA,NA,NA,NA,NA,NA,false
s2fkS6bn,3peg1bh7bh4xuzsxamnfbz6ha40bkr,3fq5jj512p11isfo4exqre22gxiknf,s2fkS6bn,2020-0188,2020-06-16,00:51:23,01:11:00,NA,incomplete,215,shape,0,right,Green_Triangle_Grid_2.jpg,Purple_Star_Dots_2.jpg,Red_Triangle_Stripes_1.jpg,right,565.9549999982119,true,high,NA,NA,NA,NA,NA,NA,NA,false
s2fkS6bn,3peg1bh7bh4xuzsxamnfbz6ha40bkr,3fq5jj512p11isfo4exqre22gxiknf,s2fkS6bn,2020-0188,2020-06-16,00:51:23,01:11:00,NA,incomplete,216,shape,1,right,Purple_Star_Dots_3.jpg,Green_Plus_Stripes_3.jpg,Blue_Star_Chess_2.jpg,right,769.1899999992456,true,high,NA,NA,NA,NA,NA,NA,NA,false
s2fkS6bn,3peg1bh7bh4xuzsxamnfbz6ha40bkr,3fq5jj512p11isfo4exqre22gxiknf,s2fkS6bn,2020-0188,2020-06-16,00:51:23,01:11:00,NA,incomplete,217,shape,1,right,Red_Star_Chess_2.jpg,Blue_Circle_Stripes_2.jpg,Purple_Star_Grid_4.jpg,right,603.6850000019185,true,high,NA,NA,NA,NA,NA,NA,NA,false
s2fkS6bn,3peg1bh7bh4xuzsxamnfbz6ha40bkr,3fq5jj512p11isfo4exqre22gxiknf,s2fkS6bn,2020-0188,2020-06-16,00:51:23,01:11:00,NA,incomplete,218,shape,1,left,Green_Triangle_Chess_4.jpg,Blue_Triangle_Stripes_1.jpg,Red_Plus_Grid_4.jpg,left,587.9100000020117,true,high,NA,NA,NA,NA,NA,NA,NA,false
s2fkS6bn,3peg1bh7bh4xuzsxamnfbz6ha40bkr,3fq5jj512p11isfo4exqre22gxiknf,s2fkS6bn,2020-0188,2020-06-16,00:51:23,01:11:00,NA,incomplete,219,shape,1,right,Green_Circle_Dots_3.jpg,Purple_Triangle_Grid_3.jpg,Red_Circle_Stripes_4.jpg,right,560.8199999986682,true,high,NA,NA,NA,NA,NA,NA,NA,false
s2fkS6bn,3peg1bh7bh4xuzsxamnfbz6ha40bkr,3fq5jj512p11isfo4exqre22gxiknf,s2fkS6bn,2020-0188,2020-06-16,00:51:23,01:11:00,NA,incomplete,220,number,1,right,Red_Triangle_Stripes_2.jpg,Blue_Triangle_Grid_4.jpg,Green_Circle_Chess_2.jpg,left,544.4100000020117,false,high,NA,NA,NA,NA,NA,NA,NA,false
s2fkS6bn,3peg1bh7bh4xuzsxamnfbz6ha40bkr,3fq5jj512p11isfo4exqre22gxiknf,s2fkS6bn,2020-0188,2020-06-16,00:51:23,01:11:00,NA,incomplete,221,number,1,right,Purple_Star_Stripes_3.jpg,Green_Star_Chess_4.jpg,Red_Triangle_Dots_3.jpg,left,558.7799999993294,false,high,NA,NA,NA,NA,NA,NA,NA,false
s2fkS6bn,3peg1bh7bh4xuzsxamnfbz6ha40bkr,3fq5jj512p11isfo4exqre22gxiknf,s2fkS6bn,2020-0188,2020-06-16,00:51:23,01:11:00,NA,incomplete,222,number,1,left,Purple_Plus_Grid_4.jpg,Blue_Circle_Chess_4.jpg,Red_Plus_Stripes_1.jpg,right,555.5500000047032,false,high,NA,NA,NA,NA,NA,NA,NA,false
s2fkS6bn,3peg1bh7bh4xuzsxamnfbz6ha40bkr,3fq5jj512p11isfo4exqre22gxiknf,s2fkS6bn,2020-0188,2020-06-16,00:51:23,01:11:00,NA,incomplete,223,number,1,left,Blue_Plus_Stripes_3.jpg,Purple_Circle_Dots_3.jpg,Green_Plus_Grid_2.jpg,left,709.8299999996088,true,high,NA,NA,NA,NA,NA,NA,NA,false
s2fkS6bn,3peg1bh7bh4xuzsxamnfbz6ha40bkr,3fq5jj512p11isfo4exqre22gxiknf,s2fkS6bn,2020-0188,2020-06-16,00:51:23,01:11:00,NA,incomplete,224,number,0,left,Blue_Circle_Chess_3.jpg,Purple_Plus_Grid_3.jpg,Red_Circle_Stripes_4.jpg,left,820.149999999674,true,high,NA,NA,NA,NA,NA,NA,NA,false
s2fkS6bn,3peg1bh7bh4xuzsxamnfbz6ha40bkr,3fq5jj512p11isfo4exqre22gxiknf,s2fkS6bn,2020-0188,2020-06-16,00:51:23,01:11:00,NA,incomplete,225,number,1,right,Green_Star_Grid_3.jpg,Purple_Star_Chess_1.jpg,Red_Circle_Stripes_3.jpg,right,555.6950000028592,true,high,NA,NA,NA,NA,NA,NA,NA,false
s2fkS6bn,3peg1bh7bh4xuzsxamnfbz6ha40bkr,3fq5jj512p11isfo4exqre22gxiknf,s2fkS6bn,2020-0188,2020-06-16,00:51:23,01:11:00,NA,incomplete,226,number,0,left,Green_Triangle_Chess_3.jpg,Purple_Plus_Dots_3.jpg,Red_Triangle_Grid_2.jpg,left,631.2899999974761,true,high,NA,NA,NA,NA,NA,NA,NA,false
s2fkS6bn,3peg1bh7bh4xuzsxamnfbz6ha40bkr,3fq5jj512p11isfo4exqre22gxiknf,s2fkS6bn,2020-0188,2020-06-16,00:51:23,01:11:00,NA,incomplete,227,number,1,right,Green_Circle_Stripes_3.jpg,Red_Circle_Grid_1.jpg,Blue_Star_Chess_3.jpg,right,532.3449999997392,true,high,NA,NA,NA,NA,NA,NA,NA,false
s2fkS6bn,3peg1bh7bh4xuzsxamnfbz6ha40bkr,3fq5jj512p11isfo4exqre22gxiknf,s2fkS6bn,2020-0188,2020-06-16,00:51:23,01:11:00,NA,incomplete,228,number,1,left,Purple_Triangle_Grid_2.jpg,Blue_Circle_Stripes_2.jpg,Red_Triangle_Chess_3.jpg,left,541.5599999977276,true,high,NA,NA,NA,NA,NA,NA,NA,false
s2fkS6bn,3peg1bh7bh4xuzsxamnfbz6ha40bkr,3fq5jj512p11isfo4exqre22gxiknf,s2fkS6bn,2020-0188,2020-06-16,00:51:23,01:11:00,NA,incomplete,229,number,1,right,Red_Plus_Grid_3.jpg,Purple_Plus_Chess_1.jpg,Green_Triangle_Stripes_3.jpg,right,509.9599999957718,true,high,NA,NA,NA,NA,NA,NA,NA,false
s2fkS6bn,3peg1bh7bh4xuzsxamnfbz6ha40bkr,3fq5jj512p11isfo4exqre22gxiknf,s2fkS6bn,2020-0188,2020-06-16,00:51:23,01:11:00,NA,incomplete,230,number,1,left,Blue_Plus_Dots_4.jpg,Purple_Circle_Stripes_4.jpg,Red_Plus_Chess_2.jpg,left,631.2450000040699,true,high,NA,NA,NA,NA,NA,NA,NA,false
s2fkS6bn,3peg1bh7bh4xuzsxamnfbz6ha40bkr,3fq5jj512p11isfo4exqre22gxiknf,s2fkS6bn,2020-0188,2020-06-16,00:51:23,01:11:00,NA,incomplete,231,number,0,right,Purple_Circle_Chess_2.jpg,Blue_Circle_Stripes_4.jpg,Red_Plus_Dots_2.jpg,right,607.2849999980535,true,high,NA,NA,NA,NA,NA,NA,NA,false
s2fkS6bn,3peg1bh7bh4xuzsxamnfbz6ha40bkr,3fq5jj512p11isfo4exqre22gxiknf,s2fkS6bn,2020-0188,2020-06-16,00:51:23,01:11:00,NA,incomplete,232,number,1,right,Red_Star_Chess_3.jpg,Blue_Star_Stripes_2.jpg,Purple_Triangle_Dots_3.jpg,right,573.5749999948312,true,high,NA,NA,NA,NA,NA,NA,NA,false
s2fkS6bn,3peg1bh7bh4xuzsxamnfbz6ha40bkr,3fq5jj512p11isfo4exqre22gxiknf,s2fkS6bn,2020-0188,2020-06-16,00:51:23,01:11:00,NA,incomplete,233,number,1,right,Red_Circle_Grid_4.jpg,Green_Circle_Dots_1.jpg,Blue_Plus_Chess_4.jpg,right,566.4550000000745,true,high,NA,NA,NA,NA,NA,NA,NA,false
s2fkS6bn,3peg1bh7bh4xuzsxamnfbz6ha40bkr,3fq5jj512p11isfo4exqre22gxiknf,s2fkS6bn,2020-0188,2020-06-16,00:51:23,01:11:00,NA,incomplete,234,number,1,right,Blue_Plus_Dots_3.jpg,Red_Plus_Chess_1.jpg,Purple_Circle_Grid_3.jpg,right,560.4000000022352,true,high,NA,NA,NA,NA,NA,NA,NA,false
s2fkS6bn,3peg1bh7bh4xuzsxamnfbz6ha40bkr,3fq5jj512p11isfo4exqre22gxiknf,s2fkS6bn,2020-0188,2020-06-16,00:51:23,01:11:00,NA,incomplete,235,number,1,left,Green_Triangle_Chess_4.jpg,Red_Star_Stripes_4.jpg,Purple_Triangle_Dots_3.jpg,left,608.6299999949988,true,high,NA,NA,NA,NA,NA,NA,NA,false
s2fkS6bn,3peg1bh7bh4xuzsxamnfbz6ha40bkr,3fq5jj512p11isfo4exqre22gxiknf,s2fkS6bn,2020-0188,2020-06-16,00:51:23,01:11:00,NA,incomplete,236,number,1,right,Green_Circle_Dots_1.jpg,Red_Circle_Chess_4.jpg,Blue_Triangle_Stripes_1.jpg,right,572.6849999991246,true,high,NA,NA,NA,NA,NA,NA,NA,false
s2fkS6bn,3peg1bh7bh4xuzsxamnfbz6ha40bkr,3fq5jj512p11isfo4exqre22gxiknf,s2fkS6bn,2020-0188,2020-06-16,00:51:23,01:11:00,NA,incomplete,237,number,1,left,Green_Plus_Grid_3.jpg,Blue_Circle_Stripes_3.jpg,Purple_Plus_Chess_1.jpg,left,519.8799999998882,true,high,NA,NA,NA,NA,NA,NA,NA,false
s2fkS6bn,3peg1bh7bh4xuzsxamnfbz6ha40bkr,3fq5jj512p11isfo4exqre22gxiknf,s2fkS6bn,2020-0188,2020-06-16,00:51:23,01:11:00,NA,incomplete,238,number,1,left,Green_Triangle_Grid_4.jpg,Purple_Star_Chess_4.jpg,Blue_Triangle_Stripes_3.jpg,left,583.5650000008754,true,high,NA,NA,NA,NA,NA,NA,NA,false
s2fkS6bn,3peg1bh7bh4xuzsxamnfbz6ha40bkr,3fq5jj512p11isfo4exqre22gxiknf,s2fkS6bn,2020-0188,2020-06-16,00:51:23,01:11:00,NA,incomplete,239,number,1,left,Green_Circle_Grid_4.jpg,Blue_Star_Stripes_4.jpg,Red_Circle_Dots_3.jpg,left,631.7199999976438,true,high,NA,NA,NA,NA,NA,NA,NA,false
s2fkS6bn,3peg1bh7bh4xuzsxamnfbz6ha40bkr,3fq5jj512p11isfo4exqre22gxiknf,s2fkS6bn,2020-0188,2020-06-16,00:51:23,01:11:00,NA,NA,instruction example,color,NA,NA,Purple_Star_Grid_4.jpg,Purple_Circle_Chess_3.jpg,Green_Plus_Grid_1.jpg,NA,NA,NA,NA,NA,NA,NA,NA,NA,NA,NA,undefined
s2fkS6bn,3peg1bh7bh4xuzsxamnfbz6ha40bkr,3fq5jj512p11isfo4exqre22gxiknf,s2fkS6bn,2020-0188,2020-06-16,00:51:23,01:11:00,NA,NA,instruction example,color,NA,NA,Green_Triangle_Chess_3.jpg,Blue_Star_Chess_4.jpg,Green_Plus_Dots_2.jpg,NA,NA,NA,NA,NA,NA,NA,NA,NA,NA,NA,undefined
s2fkS6bn,3peg1bh7bh4xuzsxamnfbz6ha40bkr,3fq5jj512p11isfo4exqre22gxiknf,s2fkS6bn,2020-0188,2020-06-16,00:51:23,01:11:00,NA,NA,instruction example,color,NA,NA,Green_Circle_Grid_4.jpg,Red_Circle_Stripes_2.jpg,Purple_Star_Chess_4.jpg,NA,NA,NA,NA,NA,NA,NA,NA,NA,NA,NA,undefined
s2fkS6bn,3peg1bh7bh4xuzsxamnfbz6ha40bkr,3fq5jj512p11isfo4exqre22gxiknf,s2fkS6bn,2020-0188,2020-06-16,00:51:23,01:11:00,NA,NA,instruction example,color,NA,NA,Green_Plus_Chess_2.jpg,Purple_Triangle_Dots_2.jpg,Red_Plus_Stripes_1.jpg,NA,NA,NA,NA,NA,NA,NA,NA,NA,NA,NA,undefined
s2fkS6bn,3peg1bh7bh4xuzsxamnfbz6ha40bkr,3fq5jj512p11isfo4exqre22gxiknf,s2fkS6bn,2020-0188,2020-06-16,00:51:23,01:11:00,1162844.219999999,1178415.724999999,NA,NA,NA,NA,NA,NA,NA,NA,NA,NA,NA,45,White/Caucasian,Male,italian,no,no,no,undefined
