workerId,hitId,assignmentId,subject,studyid,exp_date,exp_start,exp_end,time_start,time_end,trial,type,reward_validity,answer,image_top,image_left,image_right,response,response_time,response_acc,volatility,age,race,gender,ethnicity,color,vision,neuro,practice
sTl7jCSP,3peg1bh7bh4xuzsxamnfbz6ha40bkr,3fq5jj512p11isfo4exqre22gwjnkh,sTl7jCSP,2020-0188,2020-06-15,17:02:50,17:21:14,NA,incomplete,0,color,1,right,Red_Plus_Stripes_3.jpg,Green_Star_Grid_3.jpg,Red_Circle_Dots_4.jpg,right,956.899999990128,true,NA,NA,NA,NA,NA,NA,NA,NA,true
sTl7jCSP,3peg1bh7bh4xuzsxamnfbz6ha40bkr,3fq5jj512p11isfo4exqre22gwjnkh,sTl7jCSP,2020-0188,2020-06-15,17:02:50,17:21:14,NA,incomplete,1,color,1,left,Green_Plus_Stripes_3.jpg,Green_Circle_Grid_4.jpg,Purple_Triangle_Dots_3.jpg,left,684.4949999940582,true,NA,NA,NA,NA,NA,NA,NA,NA,true
sTl7jCSP,3peg1bh7bh4xuzsxamnfbz6ha40bkr,3fq5jj512p11isfo4exqre22gwjnkh,sTl7jCSP,2020-0188,2020-06-15,17:02:50,17:21:14,NA,incomplete,2,color,1,right,Purple_Plus_Stripes_1.jpg,Blue_Triangle_Grid_1.jpg,Purple_Star_Dots_3.jpg,right,761.4100000355393,true,NA,NA,NA,NA,NA,NA,NA,NA,true
sTl7jCSP,3peg1bh7bh4xuzsxamnfbz6ha40bkr,3fq5jj512p11isfo4exqre22gwjnkh,sTl7jCSP,2020-0188,2020-06-15,17:02:50,17:21:14,NA,incomplete,3,color,0,right,Purple_Circle_Dots_3.jpg,Red_Triangle_Grid_3.jpg,Purple_Plus_Stripes_1.jpg,right,724.4649999774992,true,NA,NA,NA,NA,NA,NA,NA,NA,true
sTl7jCSP,3peg1bh7bh4xuzsxamnfbz6ha40bkr,3fq5jj512p11isfo4exqre22gwjnkh,sTl7jCSP,2020-0188,2020-06-15,17:02:50,17:21:14,NA,incomplete,4,color,1,left,Green_Plus_Dots_3.jpg,Green_Star_Stripes_4.jpg,Red_Triangle_Grid_3.jpg,right,1379.3249999871477,false,NA,NA,NA,NA,NA,NA,NA,NA,true
sTl7jCSP,3peg1bh7bh4xuzsxamnfbz6ha40bkr,3fq5jj512p11isfo4exqre22gwjnkh,sTl7jCSP,2020-0188,2020-06-15,17:02:50,17:21:14,NA,incomplete,5,color,0,left,Green_Plus_Chess_2.jpg,Green_Star_Grid_3.jpg,Red_Triangle_Stripes_2.jpg,left,965.6299999915063,true,NA,NA,NA,NA,NA,NA,NA,NA,true
sTl7jCSP,3peg1bh7bh4xuzsxamnfbz6ha40bkr,3fq5jj512p11isfo4exqre22gwjnkh,sTl7jCSP,2020-0188,2020-06-15,17:02:50,17:21:14,NA,incomplete,6,color,1,right,Purple_Triangle_Stripes_3.jpg,Red_Star_Grid_3.jpg,Purple_Circle_Chess_4.jpg,right,680.4600000032224,true,NA,NA,NA,NA,NA,NA,NA,NA,true
sTl7jCSP,3peg1bh7bh4xuzsxamnfbz6ha40bkr,3fq5jj512p11isfo4exqre22gwjnkh,sTl7jCSP,2020-0188,2020-06-15,17:02:50,17:21:14,NA,incomplete,7,color,1,left,Green_Star_Grid_2.jpg,Green_Triangle_Dots_4.jpg,Red_Circle_Chess_2.jpg,left,778.3300000010058,true,NA,NA,NA,NA,NA,NA,NA,NA,true
sTl7jCSP,3peg1bh7bh4xuzsxamnfbz6ha40bkr,3fq5jj512p11isfo4exqre22gwjnkh,sTl7jCSP,2020-0188,2020-06-15,17:02:50,17:21:14,NA,incomplete,8,color,1,left,Purple_Plus_Grid_4.jpg,Purple_Star_Dots_2.jpg,Green_Circle_Stripes_4.jpg,left,794.3349999841303,true,NA,NA,NA,NA,NA,NA,NA,NA,true
sTl7jCSP,3peg1bh7bh4xuzsxamnfbz6ha40bkr,3fq5jj512p11isfo4exqre22gwjnkh,sTl7jCSP,2020-0188,2020-06-15,17:02:50,17:21:14,NA,incomplete,9,color,1,right,Green_Star_Dots_2.jpg,Blue_Plus_Chess_2.jpg,Green_Circle_Stripes_3.jpg,right,596.1849999730475,true,NA,NA,NA,NA,NA,NA,NA,NA,true
sTl7jCSP,3peg1bh7bh4xuzsxamnfbz6ha40bkr,3fq5jj512p11isfo4exqre22gwjnkh,sTl7jCSP,2020-0188,2020-06-15,17:02:50,17:21:14,NA,incomplete,10,color,0,left,Green_Plus_Chess_3.jpg,Green_Triangle_Stripes_2.jpg,Purple_Star_Grid_3.jpg,left,706.6249999916181,true,NA,NA,NA,NA,NA,NA,NA,NA,true
sTl7jCSP,3peg1bh7bh4xuzsxamnfbz6ha40bkr,3fq5jj512p11isfo4exqre22gwjnkh,sTl7jCSP,2020-0188,2020-06-15,17:02:50,17:21:14,NA,incomplete,11,color,1,left,Green_Star_Chess_1.jpg,Green_Triangle_Stripes_2.jpg,Purple_Plus_Grid_1.jpg,left,699.3099999963306,true,NA,NA,NA,NA,NA,NA,NA,NA,true
sTl7jCSP,3peg1bh7bh4xuzsxamnfbz6ha40bkr,3fq5jj512p11isfo4exqre22gwjnkh,sTl7jCSP,2020-0188,2020-06-15,17:02:50,17:21:14,NA,incomplete,12,color,1,left,Blue_Star_Stripes_1.jpg,Blue_Plus_Chess_3.jpg,Red_Circle_Grid_1.jpg,left,642.0599999837577,true,NA,NA,NA,NA,NA,NA,NA,NA,true
sTl7jCSP,3peg1bh7bh4xuzsxamnfbz6ha40bkr,3fq5jj512p11isfo4exqre22gwjnkh,sTl7jCSP,2020-0188,2020-06-15,17:02:50,17:21:14,NA,incomplete,13,color,0,right,Green_Circle_Grid_1.jpg,Blue_Triangle_Dots_1.jpg,Green_Star_Chess_3.jpg,right,571.4199999929406,true,NA,NA,NA,NA,NA,NA,NA,NA,true
sTl7jCSP,3peg1bh7bh4xuzsxamnfbz6ha40bkr,3fq5jj512p11isfo4exqre22gwjnkh,sTl7jCSP,2020-0188,2020-06-15,17:02:50,17:21:14,NA,incomplete,14,color,1,right,Blue_Circle_Stripes_3.jpg,Green_Star_Dots_3.jpg,Blue_Triangle_Chess_4.jpg,right,660.2350000175647,true,NA,NA,NA,NA,NA,NA,NA,NA,true
sTl7jCSP,3peg1bh7bh4xuzsxamnfbz6ha40bkr,3fq5jj512p11isfo4exqre22gwjnkh,sTl7jCSP,2020-0188,2020-06-15,17:02:50,17:21:14,NA,incomplete,15,color,1,left,Green_Triangle_Chess_1.jpg,Green_Circle_Grid_2.jpg,Red_Star_Dots_1.jpg,left,634.1200000024401,true,NA,NA,NA,NA,NA,NA,NA,NA,true
sTl7jCSP,3peg1bh7bh4xuzsxamnfbz6ha40bkr,3fq5jj512p11isfo4exqre22gwjnkh,sTl7jCSP,2020-0188,2020-06-15,17:02:50,17:21:14,NA,incomplete,16,color,1,right,Blue_Plus_Grid_1.jpg,Green_Circle_Stripes_1.jpg,Blue_Star_Dots_4.jpg,right,663.875000027474,true,NA,NA,NA,NA,NA,NA,NA,NA,true
sTl7jCSP,3peg1bh7bh4xuzsxamnfbz6ha40bkr,3fq5jj512p11isfo4exqre22gwjnkh,sTl7jCSP,2020-0188,2020-06-15,17:02:50,17:21:14,NA,incomplete,17,color,0,right,Purple_Circle_Dots_4.jpg,Green_Plus_Chess_4.jpg,Purple_Star_Grid_1.jpg,right,687.9450000124052,true,NA,NA,NA,NA,NA,NA,NA,NA,true
sTl7jCSP,3peg1bh7bh4xuzsxamnfbz6ha40bkr,3fq5jj512p11isfo4exqre22gwjnkh,sTl7jCSP,2020-0188,2020-06-15,17:02:50,17:21:14,NA,incomplete,18,color,1,right,Green_Star_Stripes_4.jpg,Blue_Circle_Chess_4.jpg,Green_Triangle_Grid_2.jpg,right,771.9449999858625,true,NA,NA,NA,NA,NA,NA,NA,NA,true
sTl7jCSP,3peg1bh7bh4xuzsxamnfbz6ha40bkr,3fq5jj512p11isfo4exqre22gwjnkh,sTl7jCSP,2020-0188,2020-06-15,17:02:50,17:21:14,NA,incomplete,19,color,1,left,Purple_Triangle_Dots_1.jpg,Purple_Star_Chess_4.jpg,Red_Circle_Stripes_1.jpg,left,724.5399999665096,true,NA,NA,NA,NA,NA,NA,NA,NA,true
sTl7jCSP,3peg1bh7bh4xuzsxamnfbz6ha40bkr,3fq5jj512p11isfo4exqre22gwjnkh,sTl7jCSP,2020-0188,2020-06-15,17:02:50,17:21:14,NA,incomplete,20,number,1,left,Purple_Triangle_Chess_3.jpg,Green_Star_Stripes_3.jpg,Purple_Circle_Grid_1.jpg,right,764.0300000202842,false,NA,NA,NA,NA,NA,NA,NA,NA,true
sTl7jCSP,3peg1bh7bh4xuzsxamnfbz6ha40bkr,3fq5jj512p11isfo4exqre22gwjnkh,sTl7jCSP,2020-0188,2020-06-15,17:02:50,17:21:14,NA,incomplete,21,number,0,left,Blue_Triangle_Dots_3.jpg,Purple_Circle_Stripes_3.jpg,Blue_Plus_Grid_1.jpg,left,963.3349999785423,true,NA,NA,NA,NA,NA,NA,NA,NA,true
sTl7jCSP,3peg1bh7bh4xuzsxamnfbz6ha40bkr,3fq5jj512p11isfo4exqre22gwjnkh,sTl7jCSP,2020-0188,2020-06-15,17:02:50,17:21:14,NA,incomplete,22,number,1,right,Red_Star_Stripes_3.jpg,Red_Plus_Dots_1.jpg,Blue_Triangle_Chess_3.jpg,right,1400.5149999866262,true,NA,NA,NA,NA,NA,NA,NA,NA,true
sTl7jCSP,3peg1bh7bh4xuzsxamnfbz6ha40bkr,3fq5jj512p11isfo4exqre22gwjnkh,sTl7jCSP,2020-0188,2020-06-15,17:02:50,17:21:14,NA,incomplete,23,number,1,right,Blue_Star_Stripes_4.jpg,Blue_Circle_Grid_3.jpg,Purple_Triangle_Dots_4.jpg,right,1471.404999960214,true,NA,NA,NA,NA,NA,NA,NA,NA,true
sTl7jCSP,3peg1bh7bh4xuzsxamnfbz6ha40bkr,3fq5jj512p11isfo4exqre22gwjnkh,sTl7jCSP,2020-0188,2020-06-15,17:02:50,17:21:14,NA,incomplete,24,number,1,right,Red_Star_Stripes_1.jpg,Red_Circle_Dots_3.jpg,Purple_Triangle_Chess_1.jpg,right,1424.4799999869429,true,NA,NA,NA,NA,NA,NA,NA,NA,true
sTl7jCSP,3peg1bh7bh4xuzsxamnfbz6ha40bkr,3fq5jj512p11isfo4exqre22gwjnkh,sTl7jCSP,2020-0188,2020-06-15,17:02:50,17:21:14,NA,incomplete,25,number,1,left,Green_Plus_Grid_2.jpg,Red_Star_Dots_2.jpg,Green_Circle_Chess_3.jpg,left,1716.3050000090152,true,NA,NA,NA,NA,NA,NA,NA,NA,true
sTl7jCSP,3peg1bh7bh4xuzsxamnfbz6ha40bkr,3fq5jj512p11isfo4exqre22gwjnkh,sTl7jCSP,2020-0188,2020-06-15,17:02:50,17:21:14,NA,incomplete,26,number,1,left,Red_Plus_Stripes_1.jpg,Blue_Star_Dots_1.jpg,Red_Triangle_Grid_2.jpg,left,1767.5300000119023,true,NA,NA,NA,NA,NA,NA,NA,NA,true
sTl7jCSP,3peg1bh7bh4xuzsxamnfbz6ha40bkr,3fq5jj512p11isfo4exqre22gwjnkh,sTl7jCSP,2020-0188,2020-06-15,17:02:50,17:21:14,NA,incomplete,27,number,1,right,Purple_Star_Dots_2.jpg,Purple_Triangle_Stripes_1.jpg,Red_Circle_Grid_2.jpg,right,865.0200000265613,true,NA,NA,NA,NA,NA,NA,NA,NA,true
sTl7jCSP,3peg1bh7bh4xuzsxamnfbz6ha40bkr,3fq5jj512p11isfo4exqre22gwjnkh,sTl7jCSP,2020-0188,2020-06-15,17:02:50,17:21:14,NA,incomplete,28,number,1,left,Red_Star_Grid_1.jpg,Blue_Triangle_Chess_1.jpg,Red_Circle_Dots_2.jpg,left,921.2399999960326,true,NA,NA,NA,NA,NA,NA,NA,NA,true
sTl7jCSP,3peg1bh7bh4xuzsxamnfbz6ha40bkr,3fq5jj512p11isfo4exqre22gwjnkh,sTl7jCSP,2020-0188,2020-06-15,17:02:50,17:21:14,NA,incomplete,29,number,1,right,Green_Circle_Grid_1.jpg,Green_Plus_Stripes_4.jpg,Purple_Triangle_Chess_1.jpg,right,997.2999999881722,true,NA,NA,NA,NA,NA,NA,NA,NA,true
sTl7jCSP,3peg1bh7bh4xuzsxamnfbz6ha40bkr,3fq5jj512p11isfo4exqre22gwjnkh,sTl7jCSP,2020-0188,2020-06-15,17:02:50,17:21:14,NA,incomplete,30,number,1,left,Blue_Circle_Grid_1.jpg,Red_Triangle_Chess_1.jpg,Blue_Star_Stripes_3.jpg,left,1500.7750000222586,true,NA,NA,NA,NA,NA,NA,NA,NA,true
sTl7jCSP,3peg1bh7bh4xuzsxamnfbz6ha40bkr,3fq5jj512p11isfo4exqre22gwjnkh,sTl7jCSP,2020-0188,2020-06-15,17:02:50,17:21:14,NA,incomplete,31,number,1,left,Green_Circle_Chess_1.jpg,Blue_Triangle_Stripes_1.jpg,Green_Plus_Grid_4.jpg,left,1465.2149999747053,true,NA,NA,NA,NA,NA,NA,NA,NA,true
sTl7jCSP,3peg1bh7bh4xuzsxamnfbz6ha40bkr,3fq5jj512p11isfo4exqre22gwjnkh,sTl7jCSP,2020-0188,2020-06-15,17:02:50,17:21:14,NA,incomplete,32,number,1,left,Red_Circle_Dots_4.jpg,Green_Plus_Grid_4.jpg,Red_Star_Chess_1.jpg,left,1100.414999993518,true,NA,NA,NA,NA,NA,NA,NA,NA,true
sTl7jCSP,3peg1bh7bh4xuzsxamnfbz6ha40bkr,3fq5jj512p11isfo4exqre22gwjnkh,sTl7jCSP,2020-0188,2020-06-15,17:02:50,17:21:14,NA,incomplete,33,number,1,right,Red_Star_Stripes_3.jpg,Red_Triangle_Dots_2.jpg,Purple_Plus_Chess_3.jpg,right,977.2200000006706,true,NA,NA,NA,NA,NA,NA,NA,NA,true
sTl7jCSP,3peg1bh7bh4xuzsxamnfbz6ha40bkr,3fq5jj512p11isfo4exqre22gwjnkh,sTl7jCSP,2020-0188,2020-06-15,17:02:50,17:21:14,NA,incomplete,34,number,1,left,Red_Star_Grid_1.jpg,Blue_Circle_Chess_1.jpg,Red_Triangle_Dots_3.jpg,left,914.4849999574944,true,NA,NA,NA,NA,NA,NA,NA,NA,true
sTl7jCSP,3peg1bh7bh4xuzsxamnfbz6ha40bkr,3fq5jj512p11isfo4exqre22gwjnkh,sTl7jCSP,2020-0188,2020-06-15,17:02:50,17:21:14,NA,incomplete,35,number,1,right,Blue_Triangle_Dots_4.jpg,Blue_Plus_Stripes_2.jpg,Green_Star_Grid_4.jpg,right,914.4999999552965,true,NA,NA,NA,NA,NA,NA,NA,NA,true
sTl7jCSP,3peg1bh7bh4xuzsxamnfbz6ha40bkr,3fq5jj512p11isfo4exqre22gwjnkh,sTl7jCSP,2020-0188,2020-06-15,17:02:50,17:21:14,NA,incomplete,36,number,1,left,Green_Triangle_Stripes_3.jpg,Blue_Star_Grid_3.jpg,Green_Circle_Dots_4.jpg,left,961.5350000094622,true,NA,NA,NA,NA,NA,NA,NA,NA,true
sTl7jCSP,3peg1bh7bh4xuzsxamnfbz6ha40bkr,3fq5jj512p11isfo4exqre22gwjnkh,sTl7jCSP,2020-0188,2020-06-15,17:02:50,17:21:14,NA,incomplete,37,number,1,left,Blue_Plus_Dots_4.jpg,Green_Triangle_Grid_4.jpg,Blue_Star_Stripes_1.jpg,left,775.5600000382401,true,NA,NA,NA,NA,NA,NA,NA,NA,true
sTl7jCSP,3peg1bh7bh4xuzsxamnfbz6ha40bkr,3fq5jj512p11isfo4exqre22gwjnkh,sTl7jCSP,2020-0188,2020-06-15,17:02:50,17:21:14,NA,incomplete,38,number,0,left,Green_Plus_Stripes_4.jpg,Blue_Triangle_Dots_4.jpg,Green_Circle_Grid_2.jpg,left,803.0249999719672,true,NA,NA,NA,NA,NA,NA,NA,NA,true
sTl7jCSP,3peg1bh7bh4xuzsxamnfbz6ha40bkr,3fq5jj512p11isfo4exqre22gwjnkh,sTl7jCSP,2020-0188,2020-06-15,17:02:50,17:21:14,NA,incomplete,39,number,0,right,Blue_Plus_Chess_1.jpg,Blue_Circle_Stripes_4.jpg,Purple_Star_Dots_1.jpg,right,828.7899999995716,true,NA,NA,NA,NA,NA,NA,NA,NA,true
sTl7jCSP,3peg1bh7bh4xuzsxamnfbz6ha40bkr,3fq5jj512p11isfo4exqre22gwjnkh,sTl7jCSP,2020-0188,2020-06-15,17:02:50,17:21:14,NA,incomplete,0,color,1,right,Red_Plus_Stripes_1.jpg,Purple_Star_Dots_1.jpg,Red_Circle_Chess_2.jpg,left,1581.4549999777228,false,high,NA,NA,NA,NA,NA,NA,NA,false
sTl7jCSP,3peg1bh7bh4xuzsxamnfbz6ha40bkr,3fq5jj512p11isfo4exqre22gwjnkh,sTl7jCSP,2020-0188,2020-06-15,17:02:50,17:21:14,NA,incomplete,1,color,1,right,Blue_Plus_Dots_2.jpg,Green_Star_Grid_2.jpg,Blue_Triangle_Stripes_1.jpg,left,1010.6549999909475,false,high,NA,NA,NA,NA,NA,NA,NA,false
sTl7jCSP,3peg1bh7bh4xuzsxamnfbz6ha40bkr,3fq5jj512p11isfo4exqre22gwjnkh,sTl7jCSP,2020-0188,2020-06-15,17:02:50,17:21:14,NA,incomplete,2,color,1,left,Blue_Star_Stripes_1.jpg,Blue_Circle_Dots_3.jpg,Green_Triangle_Chess_1.jpg,left,1806.0800000093877,true,high,NA,NA,NA,NA,NA,NA,NA,false
sTl7jCSP,3peg1bh7bh4xuzsxamnfbz6ha40bkr,3fq5jj512p11isfo4exqre22gwjnkh,sTl7jCSP,2020-0188,2020-06-15,17:02:50,17:21:14,NA,incomplete,3,color,1,right,Green_Triangle_Dots_2.jpg,Blue_Circle_Grid_2.jpg,Green_Star_Stripes_4.jpg,right,877.1750000305474,true,high,NA,NA,NA,NA,NA,NA,NA,false
sTl7jCSP,3peg1bh7bh4xuzsxamnfbz6ha40bkr,3fq5jj512p11isfo4exqre22gwjnkh,sTl7jCSP,2020-0188,2020-06-15,17:02:50,17:21:14,NA,incomplete,4,color,1,right,Blue_Star_Chess_4.jpg,Green_Triangle_Stripes_4.jpg,Blue_Plus_Grid_2.jpg,right,976.059999957215,true,high,NA,NA,NA,NA,NA,NA,NA,false
sTl7jCSP,3peg1bh7bh4xuzsxamnfbz6ha40bkr,3fq5jj512p11isfo4exqre22gwjnkh,sTl7jCSP,2020-0188,2020-06-15,17:02:50,17:21:14,NA,incomplete,5,color,1,right,Green_Triangle_Grid_3.jpg,Red_Circle_Stripes_3.jpg,Green_Plus_Chess_1.jpg,right,860.4649999761023,true,high,NA,NA,NA,NA,NA,NA,NA,false
sTl7jCSP,3peg1bh7bh4xuzsxamnfbz6ha40bkr,3fq5jj512p11isfo4exqre22gwjnkh,sTl7jCSP,2020-0188,2020-06-15,17:02:50,17:21:14,NA,incomplete,6,color,1,left,Purple_Plus_Grid_2.jpg,Purple_Triangle_Stripes_3.jpg,Blue_Circle_Chess_2.jpg,left,942.3950000200421,true,high,NA,NA,NA,NA,NA,NA,NA,false
sTl7jCSP,3peg1bh7bh4xuzsxamnfbz6ha40bkr,3fq5jj512p11isfo4exqre22gwjnkh,sTl7jCSP,2020-0188,2020-06-15,17:02:50,17:21:14,NA,incomplete,7,color,1,left,Purple_Circle_Chess_2.jpg,Purple_Plus_Stripes_4.jpg,Blue_Star_Dots_2.jpg,left,984.3049999908544,true,high,NA,NA,NA,NA,NA,NA,NA,false
sTl7jCSP,3peg1bh7bh4xuzsxamnfbz6ha40bkr,3fq5jj512p11isfo4exqre22gwjnkh,sTl7jCSP,2020-0188,2020-06-15,17:02:50,17:21:14,NA,incomplete,8,color,1,left,Purple_Triangle_Dots_1.jpg,Purple_Star_Stripes_3.jpg,Blue_Circle_Chess_1.jpg,left,809.9599999841303,true,high,NA,NA,NA,NA,NA,NA,NA,false
sTl7jCSP,3peg1bh7bh4xuzsxamnfbz6ha40bkr,3fq5jj512p11isfo4exqre22gwjnkh,sTl7jCSP,2020-0188,2020-06-15,17:02:50,17:21:14,NA,incomplete,9,color,1,left,Green_Star_Chess_1.jpg,Green_Triangle_Grid_4.jpg,Red_Circle_Stripes_1.jpg,left,786.3200000138022,true,high,NA,NA,NA,NA,NA,NA,NA,false
sTl7jCSP,3peg1bh7bh4xuzsxamnfbz6ha40bkr,3fq5jj512p11isfo4exqre22gwjnkh,sTl7jCSP,2020-0188,2020-06-15,17:02:50,17:21:14,NA,incomplete,10,number,1,left,Blue_Triangle_Chess_2.jpg,Purple_Star_Grid_2.jpg,Blue_Plus_Dots_1.jpg,right,882.5349999824539,false,high,NA,NA,NA,NA,NA,NA,NA,false
sTl7jCSP,3peg1bh7bh4xuzsxamnfbz6ha40bkr,3fq5jj512p11isfo4exqre22gwjnkh,sTl7jCSP,2020-0188,2020-06-15,17:02:50,17:21:14,NA,incomplete,11,number,1,right,Green_Triangle_Stripes_3.jpg,Green_Circle_Grid_2.jpg,Purple_Star_Dots_3.jpg,left,861.8350000469945,false,high,NA,NA,NA,NA,NA,NA,NA,false
sTl7jCSP,3peg1bh7bh4xuzsxamnfbz6ha40bkr,3fq5jj512p11isfo4exqre22gwjnkh,sTl7jCSP,2020-0188,2020-06-15,17:02:50,17:21:14,NA,incomplete,12,number,1,right,Red_Star_Stripes_1.jpg,Red_Circle_Grid_2.jpg,Green_Plus_Chess_1.jpg,left,934.670000046026,false,high,NA,NA,NA,NA,NA,NA,NA,false
sTl7jCSP,3peg1bh7bh4xuzsxamnfbz6ha40bkr,3fq5jj512p11isfo4exqre22gwjnkh,sTl7jCSP,2020-0188,2020-06-15,17:02:50,17:21:14,NA,incomplete,13,number,1,right,Purple_Circle_Chess_3.jpg,Purple_Plus_Dots_1.jpg,Green_Triangle_Grid_3.jpg,right,1211.5699999849312,true,high,NA,NA,NA,NA,NA,NA,NA,false
sTl7jCSP,3peg1bh7bh4xuzsxamnfbz6ha40bkr,3fq5jj512p11isfo4exqre22gwjnkh,sTl7jCSP,2020-0188,2020-06-15,17:02:50,17:21:14,NA,incomplete,14,number,1,left,Red_Triangle_Grid_1.jpg,Purple_Plus_Dots_1.jpg,Red_Star_Stripes_2.jpg,left,991.3500000257045,true,high,NA,NA,NA,NA,NA,NA,NA,false
sTl7jCSP,3peg1bh7bh4xuzsxamnfbz6ha40bkr,3fq5jj512p11isfo4exqre22gwjnkh,sTl7jCSP,2020-0188,2020-06-15,17:02:50,17:21:14,NA,incomplete,15,number,1,right,Blue_Star_Dots_4.jpg,Blue_Triangle_Grid_1.jpg,Green_Plus_Stripes_4.jpg,right,1687.5800000270829,true,high,NA,NA,NA,NA,NA,NA,NA,false
sTl7jCSP,3peg1bh7bh4xuzsxamnfbz6ha40bkr,3fq5jj512p11isfo4exqre22gwjnkh,sTl7jCSP,2020-0188,2020-06-15,17:02:50,17:21:14,NA,incomplete,16,number,1,right,Green_Star_Grid_4.jpg,Green_Plus_Stripes_1.jpg,Red_Triangle_Dots_4.jpg,right,800.5300000077114,true,high,NA,NA,NA,NA,NA,NA,NA,false
sTl7jCSP,3peg1bh7bh4xuzsxamnfbz6ha40bkr,3fq5jj512p11isfo4exqre22gwjnkh,sTl7jCSP,2020-0188,2020-06-15,17:02:50,17:21:14,NA,incomplete,17,number,0,right,Red_Circle_Stripes_1.jpg,Red_Plus_Dots_3.jpg,Green_Star_Grid_1.jpg,right,1578.3499999670312,true,high,NA,NA,NA,NA,NA,NA,NA,false
sTl7jCSP,3peg1bh7bh4xuzsxamnfbz6ha40bkr,3fq5jj512p11isfo4exqre22gwjnkh,sTl7jCSP,2020-0188,2020-06-15,17:02:50,17:21:14,NA,incomplete,18,number,1,left,Red_Star_Stripes_1.jpg,Green_Triangle_Grid_1.jpg,Red_Plus_Chess_4.jpg,left,1270.719999971334,true,high,NA,NA,NA,NA,NA,NA,NA,false
sTl7jCSP,3peg1bh7bh4xuzsxamnfbz6ha40bkr,3fq5jj512p11isfo4exqre22gwjnkh,sTl7jCSP,2020-0188,2020-06-15,17:02:50,17:21:14,NA,incomplete,19,number,0,right,Blue_Plus_Dots_4.jpg,Blue_Triangle_Stripes_2.jpg,Red_Star_Grid_4.jpg,right,954.0900000138208,true,high,NA,NA,NA,NA,NA,NA,NA,false
sTl7jCSP,3peg1bh7bh4xuzsxamnfbz6ha40bkr,3fq5jj512p11isfo4exqre22gwjnkh,sTl7jCSP,2020-0188,2020-06-15,17:02:50,17:21:14,NA,incomplete,20,color,1,right,Green_Plus_Dots_1.jpg,Purple_Circle_Chess_1.jpg,Green_Star_Grid_2.jpg,left,1035.3999999933876,false,high,NA,NA,NA,NA,NA,NA,NA,false
sTl7jCSP,3peg1bh7bh4xuzsxamnfbz6ha40bkr,3fq5jj512p11isfo4exqre22gwjnkh,sTl7jCSP,2020-0188,2020-06-15,17:02:50,17:21:14,NA,incomplete,21,color,1,right,Purple_Plus_Stripes_2.jpg,Red_Triangle_Grid_2.jpg,Purple_Circle_Chess_4.jpg,right,955.8850000030361,true,high,NA,NA,NA,NA,NA,NA,NA,false
sTl7jCSP,3peg1bh7bh4xuzsxamnfbz6ha40bkr,3fq5jj512p11isfo4exqre22gwjnkh,sTl7jCSP,2020-0188,2020-06-15,17:02:50,17:21:14,NA,incomplete,22,color,0,right,Purple_Triangle_Stripes_1.jpg,Blue_Star_Dots_1.jpg,Purple_Circle_Chess_2.jpg,right,896.9749999814667,true,high,NA,NA,NA,NA,NA,NA,NA,false
sTl7jCSP,3peg1bh7bh4xuzsxamnfbz6ha40bkr,3fq5jj512p11isfo4exqre22gwjnkh,sTl7jCSP,2020-0188,2020-06-15,17:02:50,17:21:14,NA,incomplete,23,color,0,right,Green_Plus_Chess_1.jpg,Purple_Triangle_Dots_1.jpg,Green_Star_Grid_3.jpg,right,1388.7199999880977,true,high,NA,NA,NA,NA,NA,NA,NA,false
sTl7jCSP,3peg1bh7bh4xuzsxamnfbz6ha40bkr,3fq5jj512p11isfo4exqre22gwjnkh,sTl7jCSP,2020-0188,2020-06-15,17:02:50,17:21:14,NA,incomplete,24,color,1,left,Blue_Star_Chess_3.jpg,Blue_Circle_Dots_2.jpg,Red_Plus_Grid_3.jpg,right,1164.8900000145659,false,high,NA,NA,NA,NA,NA,NA,NA,false
sTl7jCSP,3peg1bh7bh4xuzsxamnfbz6ha40bkr,3fq5jj512p11isfo4exqre22gwjnkh,sTl7jCSP,2020-0188,2020-06-15,17:02:50,17:21:14,NA,incomplete,25,color,1,right,Purple_Circle_Grid_4.jpg,Green_Star_Stripes_4.jpg,Purple_Plus_Dots_2.jpg,right,1331.400000024587,true,high,NA,NA,NA,NA,NA,NA,NA,false
sTl7jCSP,3peg1bh7bh4xuzsxamnfbz6ha40bkr,3fq5jj512p11isfo4exqre22gwjnkh,sTl7jCSP,2020-0188,2020-06-15,17:02:50,17:21:14,NA,incomplete,26,color,1,left,Red_Triangle_Grid_2.jpg,Red_Plus_Dots_4.jpg,Blue_Circle_Stripes_2.jpg,left,1188.1249999860302,true,high,NA,NA,NA,NA,NA,NA,NA,false
sTl7jCSP,3peg1bh7bh4xuzsxamnfbz6ha40bkr,3fq5jj512p11isfo4exqre22gwjnkh,sTl7jCSP,2020-0188,2020-06-15,17:02:50,17:21:14,NA,incomplete,27,color,1,left,Green_Star_Chess_3.jpg,Green_Circle_Stripes_2.jpg,Blue_Plus_Grid_3.jpg,left,843.2450000545941,true,high,NA,NA,NA,NA,NA,NA,NA,false
sTl7jCSP,3peg1bh7bh4xuzsxamnfbz6ha40bkr,3fq5jj512p11isfo4exqre22gwjnkh,sTl7jCSP,2020-0188,2020-06-15,17:02:50,17:21:14,NA,incomplete,28,color,1,right,Blue_Plus_Stripes_1.jpg,Green_Circle_Dots_1.jpg,Blue_Star_Grid_4.jpg,right,739.9000000441447,true,high,NA,NA,NA,NA,NA,NA,NA,false
sTl7jCSP,3peg1bh7bh4xuzsxamnfbz6ha40bkr,3fq5jj512p11isfo4exqre22gwjnkh,sTl7jCSP,2020-0188,2020-06-15,17:02:50,17:21:14,NA,incomplete,29,color,1,right,Green_Triangle_Chess_2.jpg,Red_Circle_Grid_2.jpg,Green_Plus_Dots_4.jpg,right,1457.7850000350736,true,high,NA,NA,NA,NA,NA,NA,NA,false
sTl7jCSP,3peg1bh7bh4xuzsxamnfbz6ha40bkr,3fq5jj512p11isfo4exqre22gwjnkh,sTl7jCSP,2020-0188,2020-06-15,17:02:50,17:21:14,NA,incomplete,30,number,1,right,Blue_Circle_Dots_1.jpg,Blue_Triangle_Chess_3.jpg,Green_Star_Stripes_1.jpg,left,825.6299999775365,false,high,NA,NA,NA,NA,NA,NA,NA,false
sTl7jCSP,3peg1bh7bh4xuzsxamnfbz6ha40bkr,3fq5jj512p11isfo4exqre22gwjnkh,sTl7jCSP,2020-0188,2020-06-15,17:02:50,17:21:14,NA,incomplete,31,number,1,left,Red_Star_Stripes_2.jpg,Blue_Plus_Grid_2.jpg,Red_Circle_Dots_4.jpg,right,940.4300000169314,false,high,NA,NA,NA,NA,NA,NA,NA,false
sTl7jCSP,3peg1bh7bh4xuzsxamnfbz6ha40bkr,3fq5jj512p11isfo4exqre22gwjnkh,sTl7jCSP,2020-0188,2020-06-15,17:02:50,17:21:14,NA,incomplete,32,number,1,right,Red_Triangle_Stripes_3.jpg,Red_Star_Grid_2.jpg,Blue_Plus_Chess_3.jpg,right,852.5350000127219,true,high,NA,NA,NA,NA,NA,NA,NA,false
sTl7jCSP,3peg1bh7bh4xuzsxamnfbz6ha40bkr,3fq5jj512p11isfo4exqre22gwjnkh,sTl7jCSP,2020-0188,2020-06-15,17:02:50,17:21:14,NA,incomplete,33,number,1,left,Blue_Plus_Chess_1.jpg,Green_Star_Grid_1.jpg,Blue_Circle_Dots_4.jpg,none,0,false,high,NA,NA,NA,NA,NA,NA,NA,false
sTl7jCSP,3peg1bh7bh4xuzsxamnfbz6ha40bkr,3fq5jj512p11isfo4exqre22gwjnkh,sTl7jCSP,2020-0188,2020-06-15,17:02:50,17:21:14,NA,incomplete,34,number,1,right,Purple_Triangle_Grid_3.jpg,Purple_Star_Chess_1.jpg,Blue_Circle_Dots_3.jpg,left,618.8499999698251,false,high,NA,NA,NA,NA,NA,NA,NA,false
sTl7jCSP,3peg1bh7bh4xuzsxamnfbz6ha40bkr,3fq5jj512p11isfo4exqre22gwjnkh,sTl7jCSP,2020-0188,2020-06-15,17:02:50,17:21:14,NA,incomplete,35,number,1,right,Blue_Plus_Chess_2.jpg,Blue_Triangle_Dots_3.jpg,Green_Circle_Grid_2.jpg,left,705.7000000495464,false,high,NA,NA,NA,NA,NA,NA,NA,false
sTl7jCSP,3peg1bh7bh4xuzsxamnfbz6ha40bkr,3fq5jj512p11isfo4exqre22gwjnkh,sTl7jCSP,2020-0188,2020-06-15,17:02:50,17:21:14,NA,incomplete,36,number,1,left,Blue_Plus_Chess_1.jpg,Red_Star_Dots_1.jpg,Blue_Circle_Grid_2.jpg,left,772.8099999949336,true,high,NA,NA,NA,NA,NA,NA,NA,false
sTl7jCSP,3peg1bh7bh4xuzsxamnfbz6ha40bkr,3fq5jj512p11isfo4exqre22gwjnkh,sTl7jCSP,2020-0188,2020-06-15,17:02:50,17:21:14,NA,incomplete,37,number,1,right,Purple_Circle_Grid_1.jpg,Purple_Triangle_Dots_3.jpg,Blue_Plus_Chess_1.jpg,right,556.6050000488758,true,high,NA,NA,NA,NA,NA,NA,NA,false
sTl7jCSP,3peg1bh7bh4xuzsxamnfbz6ha40bkr,3fq5jj512p11isfo4exqre22gwjnkh,sTl7jCSP,2020-0188,2020-06-15,17:02:50,17:21:14,NA,incomplete,38,number,1,right,Purple_Plus_Dots_4.jpg,Purple_Triangle_Stripes_2.jpg,Blue_Circle_Grid_4.jpg,right,720.484999998007,true,high,NA,NA,NA,NA,NA,NA,NA,false
sTl7jCSP,3peg1bh7bh4xuzsxamnfbz6ha40bkr,3fq5jj512p11isfo4exqre22gwjnkh,sTl7jCSP,2020-0188,2020-06-15,17:02:50,17:21:14,NA,incomplete,39,number,1,right,Blue_Triangle_Chess_4.jpg,Blue_Circle_Stripes_3.jpg,Purple_Plus_Grid_4.jpg,right,676.1050000204705,true,high,NA,NA,NA,NA,NA,NA,NA,false
sTl7jCSP,3peg1bh7bh4xuzsxamnfbz6ha40bkr,3fq5jj512p11isfo4exqre22gwjnkh,sTl7jCSP,2020-0188,2020-06-15,17:02:50,17:21:14,NA,incomplete,40,color,1,right,Red_Circle_Chess_4.jpg,Green_Triangle_Dots_4.jpg,Red_Plus_Stripes_2.jpg,left,658.594999986235,false,high,NA,NA,NA,NA,NA,NA,NA,false
sTl7jCSP,3peg1bh7bh4xuzsxamnfbz6ha40bkr,3fq5jj512p11isfo4exqre22gwjnkh,sTl7jCSP,2020-0188,2020-06-15,17:02:50,17:21:14,NA,incomplete,41,color,0,right,Blue_Circle_Dots_3.jpg,Purple_Plus_Chess_3.jpg,Blue_Triangle_Stripes_2.jpg,left,755.6050000130199,false,high,NA,NA,NA,NA,NA,NA,NA,false
sTl7jCSP,3peg1bh7bh4xuzsxamnfbz6ha40bkr,3fq5jj512p11isfo4exqre22gwjnkh,sTl7jCSP,2020-0188,2020-06-15,17:02:50,17:21:14,NA,incomplete,42,color,1,right,Red_Plus_Stripes_4.jpg,Green_Star_Chess_4.jpg,Red_Circle_Dots_1.jpg,left,605.3550000069663,false,high,NA,NA,NA,NA,NA,NA,NA,false
sTl7jCSP,3peg1bh7bh4xuzsxamnfbz6ha40bkr,3fq5jj512p11isfo4exqre22gwjnkh,sTl7jCSP,2020-0188,2020-06-15,17:02:50,17:21:14,NA,incomplete,43,color,1,left,Purple_Triangle_Dots_3.jpg,Purple_Circle_Grid_2.jpg,Blue_Plus_Stripes_3.jpg,right,718.315000005532,false,high,NA,NA,NA,NA,NA,NA,NA,false
sTl7jCSP,3peg1bh7bh4xuzsxamnfbz6ha40bkr,3fq5jj512p11isfo4exqre22gwjnkh,sTl7jCSP,2020-0188,2020-06-15,17:02:50,17:21:14,NA,incomplete,44,color,1,left,Red_Star_Chess_3.jpg,Red_Circle_Grid_4.jpg,Blue_Triangle_Dots_3.jpg,left,708.8150000199676,true,high,NA,NA,NA,NA,NA,NA,NA,false
sTl7jCSP,3peg1bh7bh4xuzsxamnfbz6ha40bkr,3fq5jj512p11isfo4exqre22gwjnkh,sTl7jCSP,2020-0188,2020-06-15,17:02:50,17:21:14,NA,incomplete,45,color,1,right,Red_Triangle_Grid_1.jpg,Green_Circle_Chess_1.jpg,Red_Star_Dots_4.jpg,right,640.1499999919906,true,high,NA,NA,NA,NA,NA,NA,NA,false
sTl7jCSP,3peg1bh7bh4xuzsxamnfbz6ha40bkr,3fq5jj512p11isfo4exqre22gwjnkh,sTl7jCSP,2020-0188,2020-06-15,17:02:50,17:21:14,NA,incomplete,46,color,1,right,Purple_Plus_Stripes_3.jpg,Blue_Circle_Dots_3.jpg,Purple_Triangle_Grid_4.jpg,right,699.2500000051223,true,high,NA,NA,NA,NA,NA,NA,NA,false
sTl7jCSP,3peg1bh7bh4xuzsxamnfbz6ha40bkr,3fq5jj512p11isfo4exqre22gwjnkh,sTl7jCSP,2020-0188,2020-06-15,17:02:50,17:21:14,NA,incomplete,47,color,1,right,Green_Triangle_Dots_1.jpg,Red_Plus_Chess_1.jpg,Green_Circle_Grid_4.jpg,right,520.1499999966472,true,high,NA,NA,NA,NA,NA,NA,NA,false
sTl7jCSP,3peg1bh7bh4xuzsxamnfbz6ha40bkr,3fq5jj512p11isfo4exqre22gwjnkh,sTl7jCSP,2020-0188,2020-06-15,17:02:50,17:21:14,NA,incomplete,48,color,1,right,Blue_Plus_Chess_3.jpg,Red_Triangle_Stripes_3.jpg,Blue_Circle_Dots_2.jpg,right,579.6200000331737,true,high,NA,NA,NA,NA,NA,NA,NA,false
sTl7jCSP,3peg1bh7bh4xuzsxamnfbz6ha40bkr,3fq5jj512p11isfo4exqre22gwjnkh,sTl7jCSP,2020-0188,2020-06-15,17:02:50,17:21:14,NA,incomplete,49,color,1,left,Blue_Plus_Stripes_3.jpg,Blue_Star_Chess_4.jpg,Green_Triangle_Dots_3.jpg,left,612.8299999982119,true,high,NA,NA,NA,NA,NA,NA,NA,false
sTl7jCSP,3peg1bh7bh4xuzsxamnfbz6ha40bkr,3fq5jj512p11isfo4exqre22gwjnkh,sTl7jCSP,2020-0188,2020-06-15,17:02:50,17:21:14,NA,incomplete,50,number,1,left,Purple_Triangle_Stripes_1.jpg,Blue_Plus_Grid_1.jpg,Purple_Circle_Chess_4.jpg,right,697.9150000261143,false,high,NA,NA,NA,NA,NA,NA,NA,false
sTl7jCSP,3peg1bh7bh4xuzsxamnfbz6ha40bkr,3fq5jj512p11isfo4exqre22gwjnkh,sTl7jCSP,2020-0188,2020-06-15,17:02:50,17:21:14,NA,incomplete,51,number,1,right,Blue_Triangle_Dots_1.jpg,Blue_Circle_Stripes_3.jpg,Purple_Star_Chess_1.jpg,left,694.2649999982677,false,high,NA,NA,NA,NA,NA,NA,NA,false
sTl7jCSP,3peg1bh7bh4xuzsxamnfbz6ha40bkr,3fq5jj512p11isfo4exqre22gwjnkh,sTl7jCSP,2020-0188,2020-06-15,17:02:50,17:21:14,NA,incomplete,52,number,0,right,Green_Circle_Dots_2.jpg,Green_Star_Chess_3.jpg,Red_Plus_Grid_2.jpg,right,854.0650000213645,true,high,NA,NA,NA,NA,NA,NA,NA,false
sTl7jCSP,3peg1bh7bh4xuzsxamnfbz6ha40bkr,3fq5jj512p11isfo4exqre22gwjnkh,sTl7jCSP,2020-0188,2020-06-15,17:02:50,17:21:14,NA,incomplete,53,number,1,right,Green_Plus_Grid_4.jpg,Green_Triangle_Dots_1.jpg,Purple_Circle_Chess_4.jpg,right,703.8850000244565,true,high,NA,NA,NA,NA,NA,NA,NA,false
sTl7jCSP,3peg1bh7bh4xuzsxamnfbz6ha40bkr,3fq5jj512p11isfo4exqre22gwjnkh,sTl7jCSP,2020-0188,2020-06-15,17:02:50,17:21:14,NA,incomplete,54,number,1,left,Blue_Circle_Chess_1.jpg,Purple_Plus_Dots_1.jpg,Blue_Triangle_Stripes_4.jpg,left,1049.7050000121817,true,high,NA,NA,NA,NA,NA,NA,NA,false
sTl7jCSP,3peg1bh7bh4xuzsxamnfbz6ha40bkr,3fq5jj512p11isfo4exqre22gwjnkh,sTl7jCSP,2020-0188,2020-06-15,17:02:50,17:21:14,NA,incomplete,55,number,1,left,Purple_Triangle_Grid_1.jpg,Green_Plus_Dots_1.jpg,Purple_Star_Stripes_3.jpg,left,611.1600000294857,true,high,NA,NA,NA,NA,NA,NA,NA,false
sTl7jCSP,3peg1bh7bh4xuzsxamnfbz6ha40bkr,3fq5jj512p11isfo4exqre22gwjnkh,sTl7jCSP,2020-0188,2020-06-15,17:02:50,17:21:14,NA,incomplete,56,number,0,left,Blue_Triangle_Chess_3.jpg,Purple_Star_Grid_3.jpg,Blue_Circle_Stripes_2.jpg,left,838.2800000254065,true,high,NA,NA,NA,NA,NA,NA,NA,false
sTl7jCSP,3peg1bh7bh4xuzsxamnfbz6ha40bkr,3fq5jj512p11isfo4exqre22gwjnkh,sTl7jCSP,2020-0188,2020-06-15,17:02:50,17:21:14,NA,incomplete,57,number,0,right,Red_Plus_Grid_3.jpg,Red_Circle_Stripes_4.jpg,Green_Star_Chess_3.jpg,right,664.2899999860674,true,high,NA,NA,NA,NA,NA,NA,NA,false
sTl7jCSP,3peg1bh7bh4xuzsxamnfbz6ha40bkr,3fq5jj512p11isfo4exqre22gwjnkh,sTl7jCSP,2020-0188,2020-06-15,17:02:50,17:21:14,NA,incomplete,58,number,1,right,Purple_Circle_Stripes_1.jpg,Purple_Star_Dots_3.jpg,Blue_Plus_Grid_1.jpg,right,676.5500000328757,true,high,NA,NA,NA,NA,NA,NA,NA,false
sTl7jCSP,3peg1bh7bh4xuzsxamnfbz6ha40bkr,3fq5jj512p11isfo4exqre22gwjnkh,sTl7jCSP,2020-0188,2020-06-15,17:02:50,17:21:14,NA,incomplete,59,number,0,right,Green_Star_Grid_3.jpg,Green_Triangle_Dots_4.jpg,Red_Plus_Chess_3.jpg,right,647.5800000480376,true,high,NA,NA,NA,NA,NA,NA,NA,false
sTl7jCSP,3peg1bh7bh4xuzsxamnfbz6ha40bkr,3fq5jj512p11isfo4exqre22gwjnkh,sTl7jCSP,2020-0188,2020-06-15,17:02:50,17:21:14,NA,incomplete,60,color,1,left,Green_Circle_Dots_2.jpg,Green_Plus_Chess_1.jpg,Purple_Star_Stripes_2.jpg,right,1550.7999999681488,false,high,NA,NA,NA,NA,NA,NA,NA,false
sTl7jCSP,3peg1bh7bh4xuzsxamnfbz6ha40bkr,3fq5jj512p11isfo4exqre22gwjnkh,sTl7jCSP,2020-0188,2020-06-15,17:02:50,17:21:14,NA,incomplete,61,color,1,left,Purple_Circle_Dots_4.jpg,Purple_Triangle_Stripes_2.jpg,Green_Star_Chess_4.jpg,left,878.9049999904819,true,high,NA,NA,NA,NA,NA,NA,NA,false
sTl7jCSP,3peg1bh7bh4xuzsxamnfbz6ha40bkr,3fq5jj512p11isfo4exqre22gwjnkh,sTl7jCSP,2020-0188,2020-06-15,17:02:50,17:21:14,NA,incomplete,62,color,1,left,Blue_Star_Stripes_1.jpg,Blue_Circle_Grid_2.jpg,Red_Triangle_Chess_1.jpg,left,452.9850000399165,true,high,NA,NA,NA,NA,NA,NA,NA,false
sTl7jCSP,3peg1bh7bh4xuzsxamnfbz6ha40bkr,3fq5jj512p11isfo4exqre22gwjnkh,sTl7jCSP,2020-0188,2020-06-15,17:02:50,17:21:14,NA,incomplete,63,color,1,right,Purple_Star_Chess_4.jpg,Blue_Circle_Grid_4.jpg,Purple_Triangle_Dots_1.jpg,right,585.3950000018813,true,high,NA,NA,NA,NA,NA,NA,NA,false
sTl7jCSP,3peg1bh7bh4xuzsxamnfbz6ha40bkr,3fq5jj512p11isfo4exqre22gwjnkh,sTl7jCSP,2020-0188,2020-06-15,17:02:50,17:21:14,NA,incomplete,64,color,1,left,Green_Plus_Stripes_1.jpg,Green_Circle_Grid_2.jpg,Purple_Star_Chess_1.jpg,left,740.300000004936,true,high,NA,NA,NA,NA,NA,NA,NA,false
sTl7jCSP,3peg1bh7bh4xuzsxamnfbz6ha40bkr,3fq5jj512p11isfo4exqre22gwjnkh,sTl7jCSP,2020-0188,2020-06-15,17:02:50,17:21:14,NA,incomplete,65,color,1,left,Red_Plus_Chess_1.jpg,Red_Circle_Grid_3.jpg,Green_Triangle_Stripes_1.jpg,left,694.3549999850802,true,high,NA,NA,NA,NA,NA,NA,NA,false
sTl7jCSP,3peg1bh7bh4xuzsxamnfbz6ha40bkr,3fq5jj512p11isfo4exqre22gwjnkh,sTl7jCSP,2020-0188,2020-06-15,17:02:50,17:21:14,NA,incomplete,66,color,1,left,Blue_Star_Dots_3.jpg,Blue_Triangle_Chess_4.jpg,Red_Circle_Grid_3.jpg,left,579.0799999958836,true,high,NA,NA,NA,NA,NA,NA,NA,false
sTl7jCSP,3peg1bh7bh4xuzsxamnfbz6ha40bkr,3fq5jj512p11isfo4exqre22gwjnkh,sTl7jCSP,2020-0188,2020-06-15,17:02:50,17:21:14,NA,incomplete,67,color,1,right,Green_Circle_Stripes_1.jpg,Blue_Triangle_Dots_1.jpg,Green_Star_Chess_4.jpg,right,472.61499997694045,true,high,NA,NA,NA,NA,NA,NA,NA,false
sTl7jCSP,3peg1bh7bh4xuzsxamnfbz6ha40bkr,3fq5jj512p11isfo4exqre22gwjnkh,sTl7jCSP,2020-0188,2020-06-15,17:02:50,17:21:14,NA,incomplete,68,color,1,left,Blue_Circle_Stripes_4.jpg,Blue_Triangle_Dots_1.jpg,Green_Plus_Chess_4.jpg,left,698.949999990873,true,high,NA,NA,NA,NA,NA,NA,NA,false
sTl7jCSP,3peg1bh7bh4xuzsxamnfbz6ha40bkr,3fq5jj512p11isfo4exqre22gwjnkh,sTl7jCSP,2020-0188,2020-06-15,17:02:50,17:21:14,NA,incomplete,69,color,0,right,Red_Triangle_Chess_1.jpg,Purple_Plus_Dots_1.jpg,Red_Star_Stripes_2.jpg,right,457.69000001018867,true,high,NA,NA,NA,NA,NA,NA,NA,false
sTl7jCSP,3peg1bh7bh4xuzsxamnfbz6ha40bkr,3fq5jj512p11isfo4exqre22gwjnkh,sTl7jCSP,2020-0188,2020-06-15,17:02:50,17:21:14,NA,incomplete,70,number,0,right,Red_Circle_Dots_4.jpg,Red_Plus_Stripes_2.jpg,Purple_Star_Grid_4.jpg,left,707.3349999845959,false,high,NA,NA,NA,NA,NA,NA,NA,false
sTl7jCSP,3peg1bh7bh4xuzsxamnfbz6ha40bkr,3fq5jj512p11isfo4exqre22gwjnkh,sTl7jCSP,2020-0188,2020-06-15,17:02:50,17:21:14,NA,incomplete,71,number,1,left,Red_Star_Stripes_2.jpg,Blue_Triangle_Grid_2.jpg,Red_Circle_Chess_1.jpg,right,514.145000022836,false,high,NA,NA,NA,NA,NA,NA,NA,false
sTl7jCSP,3peg1bh7bh4xuzsxamnfbz6ha40bkr,3fq5jj512p11isfo4exqre22gwjnkh,sTl7jCSP,2020-0188,2020-06-15,17:02:50,17:21:14,NA,incomplete,72,number,1,right,Purple_Circle_Stripes_1.jpg,Purple_Plus_Grid_2.jpg,Blue_Star_Chess_1.jpg,left,1066.5199999930337,false,high,NA,NA,NA,NA,NA,NA,NA,false
sTl7jCSP,3peg1bh7bh4xuzsxamnfbz6ha40bkr,3fq5jj512p11isfo4exqre22gwjnkh,sTl7jCSP,2020-0188,2020-06-15,17:02:50,17:21:14,NA,incomplete,73,number,1,left,Green_Circle_Dots_1.jpg,Red_Triangle_Stripes_1.jpg,Green_Plus_Grid_2.jpg,left,1299.155000015162,true,high,NA,NA,NA,NA,NA,NA,NA,false
sTl7jCSP,3peg1bh7bh4xuzsxamnfbz6ha40bkr,3fq5jj512p11isfo4exqre22gwjnkh,sTl7jCSP,2020-0188,2020-06-15,17:02:50,17:21:14,NA,incomplete,74,number,1,left,Blue_Star_Stripes_1.jpg,Red_Circle_Dots_1.jpg,Blue_Plus_Chess_4.jpg,left,625.7750000222586,true,high,NA,NA,NA,NA,NA,NA,NA,false
sTl7jCSP,3peg1bh7bh4xuzsxamnfbz6ha40bkr,3fq5jj512p11isfo4exqre22gwjnkh,sTl7jCSP,2020-0188,2020-06-15,17:02:50,17:21:14,NA,incomplete,75,number,1,right,Red_Circle_Dots_1.jpg,Red_Triangle_Grid_4.jpg,Purple_Star_Chess_1.jpg,right,504.39000001642853,true,high,NA,NA,NA,NA,NA,NA,NA,false
sTl7jCSP,3peg1bh7bh4xuzsxamnfbz6ha40bkr,3fq5jj512p11isfo4exqre22gwjnkh,sTl7jCSP,2020-0188,2020-06-15,17:02:50,17:21:14,NA,incomplete,76,number,0,left,Purple_Circle_Grid_4.jpg,Green_Plus_Dots_4.jpg,Purple_Triangle_Chess_1.jpg,left,611.8249999708496,true,high,NA,NA,NA,NA,NA,NA,NA,false
sTl7jCSP,3peg1bh7bh4xuzsxamnfbz6ha40bkr,3fq5jj512p11isfo4exqre22gwjnkh,sTl7jCSP,2020-0188,2020-06-15,17:02:50,17:21:14,NA,incomplete,77,number,1,left,Purple_Plus_Dots_2.jpg,Green_Star_Grid_2.jpg,Purple_Circle_Stripes_3.jpg,left,737.4600000330247,true,high,NA,NA,NA,NA,NA,NA,NA,false
sTl7jCSP,3peg1bh7bh4xuzsxamnfbz6ha40bkr,3fq5jj512p11isfo4exqre22gwjnkh,sTl7jCSP,2020-0188,2020-06-15,17:02:50,17:21:14,NA,incomplete,78,number,1,right,Green_Triangle_Grid_1.jpg,Green_Circle_Dots_2.jpg,Purple_Star_Stripes_1.jpg,right,739.3800000427291,true,high,NA,NA,NA,NA,NA,NA,NA,false
sTl7jCSP,3peg1bh7bh4xuzsxamnfbz6ha40bkr,3fq5jj512p11isfo4exqre22gwjnkh,sTl7jCSP,2020-0188,2020-06-15,17:02:50,17:21:14,NA,incomplete,79,number,1,left,Blue_Triangle_Grid_3.jpg,Purple_Plus_Dots_3.jpg,Blue_Circle_Stripes_2.jpg,left,877.8250000323169,true,high,NA,NA,NA,NA,NA,NA,NA,false
sTl7jCSP,3peg1bh7bh4xuzsxamnfbz6ha40bkr,3fq5jj512p11isfo4exqre22gwjnkh,sTl7jCSP,2020-0188,2020-06-15,17:02:50,17:21:14,NA,incomplete,80,color,1,right,Purple_Circle_Chess_2.jpg,Green_Triangle_Stripes_2.jpg,Purple_Star_Grid_4.jpg,left,746.080000011716,false,high,NA,NA,NA,NA,NA,NA,NA,false
sTl7jCSP,3peg1bh7bh4xuzsxamnfbz6ha40bkr,3fq5jj512p11isfo4exqre22gwjnkh,sTl7jCSP,2020-0188,2020-06-15,17:02:50,17:21:14,NA,incomplete,81,color,1,left,Red_Triangle_Stripes_1.jpg,Red_Plus_Dots_2.jpg,Blue_Star_Chess_1.jpg,right,777.5799999944866,false,high,NA,NA,NA,NA,NA,NA,NA,false
sTl7jCSP,3peg1bh7bh4xuzsxamnfbz6ha40bkr,3fq5jj512p11isfo4exqre22gwjnkh,sTl7jCSP,2020-0188,2020-06-15,17:02:50,17:21:14,NA,incomplete,82,color,1,right,Red_Triangle_Chess_2.jpg,Blue_Plus_Grid_2.jpg,Red_Circle_Dots_3.jpg,right,587.279999977909,true,high,NA,NA,NA,NA,NA,NA,NA,false
sTl7jCSP,3peg1bh7bh4xuzsxamnfbz6ha40bkr,3fq5jj512p11isfo4exqre22gwjnkh,sTl7jCSP,2020-0188,2020-06-15,17:02:50,17:21:14,NA,incomplete,83,color,0,left,Red_Circle_Grid_4.jpg,Red_Triangle_Chess_3.jpg,Green_Star_Stripes_4.jpg,left,674.2950000334531,true,high,NA,NA,NA,NA,NA,NA,NA,false
sTl7jCSP,3peg1bh7bh4xuzsxamnfbz6ha40bkr,3fq5jj512p11isfo4exqre22gwjnkh,sTl7jCSP,2020-0188,2020-06-15,17:02:50,17:21:14,NA,incomplete,84,color,0,right,Red_Triangle_Grid_3.jpg,Purple_Star_Dots_3.jpg,Red_Circle_Chess_2.jpg,right,709.9649999872781,true,high,NA,NA,NA,NA,NA,NA,NA,false
sTl7jCSP,3peg1bh7bh4xuzsxamnfbz6ha40bkr,3fq5jj512p11isfo4exqre22gwjnkh,sTl7jCSP,2020-0188,2020-06-15,17:02:50,17:21:14,NA,incomplete,85,color,1,right,Purple_Star_Stripes_4.jpg,Blue_Triangle_Dots_4.jpg,Purple_Circle_Chess_3.jpg,left,688.6100000119768,false,high,NA,NA,NA,NA,NA,NA,NA,false
sTl7jCSP,3peg1bh7bh4xuzsxamnfbz6ha40bkr,3fq5jj512p11isfo4exqre22gwjnkh,sTl7jCSP,2020-0188,2020-06-15,17:02:50,17:21:14,NA,incomplete,86,color,1,right,Blue_Circle_Grid_3.jpg,Purple_Star_Stripes_3.jpg,Blue_Triangle_Chess_2.jpg,left,795.5599999986589,false,high,NA,NA,NA,NA,NA,NA,NA,false
sTl7jCSP,3peg1bh7bh4xuzsxamnfbz6ha40bkr,3fq5jj512p11isfo4exqre22gwjnkh,sTl7jCSP,2020-0188,2020-06-15,17:02:50,17:21:14,NA,incomplete,87,color,1,right,Blue_Circle_Grid_1.jpg,Green_Plus_Stripes_1.jpg,Blue_Triangle_Dots_4.jpg,right,623.6250000074506,true,high,NA,NA,NA,NA,NA,NA,NA,false
sTl7jCSP,3peg1bh7bh4xuzsxamnfbz6ha40bkr,3fq5jj512p11isfo4exqre22gwjnkh,sTl7jCSP,2020-0188,2020-06-15,17:02:50,17:21:14,NA,incomplete,88,color,0,right,Green_Circle_Stripes_2.jpg,Red_Star_Chess_2.jpg,Green_Plus_Grid_3.jpg,right,609.3399999663234,true,high,NA,NA,NA,NA,NA,NA,NA,false
sTl7jCSP,3peg1bh7bh4xuzsxamnfbz6ha40bkr,3fq5jj512p11isfo4exqre22gwjnkh,sTl7jCSP,2020-0188,2020-06-15,17:02:50,17:21:14,NA,incomplete,89,color,0,left,Green_Triangle_Stripes_1.jpg,Green_Star_Chess_2.jpg,Purple_Plus_Grid_1.jpg,right,811.9500000029802,false,high,NA,NA,NA,NA,NA,NA,NA,false
sTl7jCSP,3peg1bh7bh4xuzsxamnfbz6ha40bkr,3fq5jj512p11isfo4exqre22gwjnkh,sTl7jCSP,2020-0188,2020-06-15,17:02:50,17:21:14,NA,incomplete,90,number,1,left,Purple_Triangle_Dots_4.jpg,Green_Circle_Stripes_4.jpg,Purple_Plus_Chess_1.jpg,left,646.7100000008941,true,high,NA,NA,NA,NA,NA,NA,NA,false
sTl7jCSP,3peg1bh7bh4xuzsxamnfbz6ha40bkr,3fq5jj512p11isfo4exqre22gwjnkh,sTl7jCSP,2020-0188,2020-06-15,17:02:50,17:21:14,NA,incomplete,91,number,0,left,Green_Triangle_Chess_4.jpg,Red_Circle_Stripes_4.jpg,Green_Star_Dots_2.jpg,left,583.45500001451,true,high,NA,NA,NA,NA,NA,NA,NA,false
sTl7jCSP,3peg1bh7bh4xuzsxamnfbz6ha40bkr,3fq5jj512p11isfo4exqre22gwjnkh,sTl7jCSP,2020-0188,2020-06-15,17:02:50,17:21:14,NA,incomplete,92,number,1,right,Blue_Star_Dots_4.jpg,Blue_Triangle_Stripes_1.jpg,Purple_Plus_Grid_4.jpg,right,583.9500000001863,true,high,NA,NA,NA,NA,NA,NA,NA,false
sTl7jCSP,3peg1bh7bh4xuzsxamnfbz6ha40bkr,3fq5jj512p11isfo4exqre22gwjnkh,sTl7jCSP,2020-0188,2020-06-15,17:02:50,17:21:14,NA,incomplete,93,number,1,right,Green_Triangle_Dots_1.jpg,Green_Plus_Grid_4.jpg,Red_Circle_Stripes_1.jpg,right,881.0199999716133,true,high,NA,NA,NA,NA,NA,NA,NA,false
sTl7jCSP,3peg1bh7bh4xuzsxamnfbz6ha40bkr,3fq5jj512p11isfo4exqre22gwjnkh,sTl7jCSP,2020-0188,2020-06-15,17:02:50,17:21:14,NA,incomplete,94,number,1,right,Blue_Star_Stripes_1.jpg,Blue_Circle_Grid_3.jpg,Green_Plus_Chess_1.jpg,right,773.3899999875575,true,high,NA,NA,NA,NA,NA,NA,NA,false
sTl7jCSP,3peg1bh7bh4xuzsxamnfbz6ha40bkr,3fq5jj512p11isfo4exqre22gwjnkh,sTl7jCSP,2020-0188,2020-06-15,17:02:50,17:21:14,NA,incomplete,95,number,1,left,Purple_Circle_Stripes_4.jpg,Red_Plus_Dots_4.jpg,Purple_Triangle_Chess_3.jpg,left,507.41999997990206,true,high,NA,NA,NA,NA,NA,NA,NA,false
sTl7jCSP,3peg1bh7bh4xuzsxamnfbz6ha40bkr,3fq5jj512p11isfo4exqre22gwjnkh,sTl7jCSP,2020-0188,2020-06-15,17:02:50,17:21:14,NA,incomplete,96,number,1,right,Red_Triangle_Grid_1.jpg,Red_Star_Dots_2.jpg,Green_Circle_Chess_1.jpg,right,552.3349999566562,true,high,NA,NA,NA,NA,NA,NA,NA,false
sTl7jCSP,3peg1bh7bh4xuzsxamnfbz6ha40bkr,3fq5jj512p11isfo4exqre22gwjnkh,sTl7jCSP,2020-0188,2020-06-15,17:02:50,17:21:14,NA,incomplete,97,number,0,right,Purple_Triangle_Stripes_3.jpg,Purple_Circle_Chess_1.jpg,Red_Plus_Grid_3.jpg,right,512.1550000039861,true,high,NA,NA,NA,NA,NA,NA,NA,false
sTl7jCSP,3peg1bh7bh4xuzsxamnfbz6ha40bkr,3fq5jj512p11isfo4exqre22gwjnkh,sTl7jCSP,2020-0188,2020-06-15,17:02:50,17:21:14,NA,incomplete,98,number,1,right,Blue_Circle_Grid_1.jpg,Blue_Star_Dots_2.jpg,Purple_Plus_Chess_1.jpg,right,539.7050000028685,true,high,NA,NA,NA,NA,NA,NA,NA,false
sTl7jCSP,3peg1bh7bh4xuzsxamnfbz6ha40bkr,3fq5jj512p11isfo4exqre22gwjnkh,sTl7jCSP,2020-0188,2020-06-15,17:02:50,17:21:14,NA,incomplete,99,number,0,left,Red_Triangle_Grid_2.jpg,Green_Star_Dots_2.jpg,Red_Plus_Chess_4.jpg,left,538.1400000187568,true,high,NA,NA,NA,NA,NA,NA,NA,false
sTl7jCSP,3peg1bh7bh4xuzsxamnfbz6ha40bkr,3fq5jj512p11isfo4exqre22gwjnkh,sTl7jCSP,2020-0188,2020-06-15,17:02:50,17:21:14,NA,incomplete,100,color,0,right,Blue_Star_Chess_1.jpg,Red_Triangle_Dots_1.jpg,Blue_Plus_Stripes_2.jpg,left,512.5200000475161,false,high,NA,NA,NA,NA,NA,NA,NA,false
sTl7jCSP,3peg1bh7bh4xuzsxamnfbz6ha40bkr,3fq5jj512p11isfo4exqre22gwjnkh,sTl7jCSP,2020-0188,2020-06-15,17:02:50,17:21:14,NA,incomplete,101,color,1,right,Green_Circle_Stripes_2.jpg,Red_Star_Dots_2.jpg,Green_Triangle_Grid_1.jpg,left,481.7649999749847,false,high,NA,NA,NA,NA,NA,NA,NA,false
sTl7jCSP,3peg1bh7bh4xuzsxamnfbz6ha40bkr,3fq5jj512p11isfo4exqre22gwjnkh,sTl7jCSP,2020-0188,2020-06-15,17:02:50,17:21:14,NA,incomplete,102,color,0,right,Green_Circle_Stripes_2.jpg,Purple_Triangle_Grid_2.jpg,Green_Star_Chess_3.jpg,left,517.3000000067987,false,high,NA,NA,NA,NA,NA,NA,NA,false
sTl7jCSP,3peg1bh7bh4xuzsxamnfbz6ha40bkr,3fq5jj512p11isfo4exqre22gwjnkh,sTl7jCSP,2020-0188,2020-06-15,17:02:50,17:21:14,NA,incomplete,103,color,0,left,Red_Triangle_Chess_2.jpg,Red_Circle_Dots_3.jpg,Purple_Star_Stripes_2.jpg,right,494.2400000290945,false,high,NA,NA,NA,NA,NA,NA,NA,false
sTl7jCSP,3peg1bh7bh4xuzsxamnfbz6ha40bkr,3fq5jj512p11isfo4exqre22gwjnkh,sTl7jCSP,2020-0188,2020-06-15,17:02:50,17:21:14,NA,incomplete,104,color,1,left,Green_Triangle_Dots_3.jpg,Green_Plus_Chess_1.jpg,Red_Circle_Grid_3.jpg,right,477.5449999724515,false,high,NA,NA,NA,NA,NA,NA,NA,false
sTl7jCSP,3peg1bh7bh4xuzsxamnfbz6ha40bkr,3fq5jj512p11isfo4exqre22gwjnkh,sTl7jCSP,2020-0188,2020-06-15,17:02:50,17:21:14,NA,incomplete,105,color,1,right,Green_Circle_Grid_4.jpg,Purple_Plus_Stripes_4.jpg,Green_Triangle_Chess_1.jpg,left,424.425000033807,false,high,NA,NA,NA,NA,NA,NA,NA,false
sTl7jCSP,3peg1bh7bh4xuzsxamnfbz6ha40bkr,3fq5jj512p11isfo4exqre22gwjnkh,sTl7jCSP,2020-0188,2020-06-15,17:02:50,17:21:14,NA,incomplete,106,color,1,left,Red_Plus_Stripes_2.jpg,Red_Triangle_Grid_1.jpg,Purple_Circle_Dots_2.jpg,right,525.9000000078231,false,high,NA,NA,NA,NA,NA,NA,NA,false
sTl7jCSP,3peg1bh7bh4xuzsxamnfbz6ha40bkr,3fq5jj512p11isfo4exqre22gwjnkh,sTl7jCSP,2020-0188,2020-06-15,17:02:50,17:21:14,NA,incomplete,107,color,1,right,Green_Triangle_Grid_1.jpg,Red_Star_Chess_1.jpg,Green_Circle_Dots_4.jpg,left,544.6750000119209,false,high,NA,NA,NA,NA,NA,NA,NA,false
sTl7jCSP,3peg1bh7bh4xuzsxamnfbz6ha40bkr,3fq5jj512p11isfo4exqre22gwjnkh,sTl7jCSP,2020-0188,2020-06-15,17:02:50,17:21:14,NA,incomplete,108,color,1,right,Purple_Plus_Stripes_3.jpg,Green_Circle_Chess_3.jpg,Purple_Star_Dots_2.jpg,right,553.1000000191852,true,high,NA,NA,NA,NA,NA,NA,NA,false
sTl7jCSP,3peg1bh7bh4xuzsxamnfbz6ha40bkr,3fq5jj512p11isfo4exqre22gwjnkh,sTl7jCSP,2020-0188,2020-06-15,17:02:50,17:21:14,NA,incomplete,109,color,1,left,Purple_Circle_Chess_2.jpg,Purple_Plus_Dots_1.jpg,Red_Star_Grid_2.jpg,left,510.21000003675,true,high,NA,NA,NA,NA,NA,NA,NA,false
sTl7jCSP,3peg1bh7bh4xuzsxamnfbz6ha40bkr,3fq5jj512p11isfo4exqre22gwjnkh,sTl7jCSP,2020-0188,2020-06-15,17:02:50,17:21:14,NA,incomplete,110,number,1,left,Green_Star_Stripes_1.jpg,Purple_Plus_Chess_1.jpg,Green_Triangle_Grid_2.jpg,right,401.1000000173226,false,high,NA,NA,NA,NA,NA,NA,NA,false
sTl7jCSP,3peg1bh7bh4xuzsxamnfbz6ha40bkr,3fq5jj512p11isfo4exqre22gwjnkh,sTl7jCSP,2020-0188,2020-06-15,17:02:50,17:21:14,NA,incomplete,111,number,1,right,Purple_Triangle_Chess_4.jpg,Purple_Plus_Stripes_1.jpg,Green_Star_Dots_4.jpg,left,630.5500000016764,false,high,NA,NA,NA,NA,NA,NA,NA,false
sTl7jCSP,3peg1bh7bh4xuzsxamnfbz6ha40bkr,3fq5jj512p11isfo4exqre22gwjnkh,sTl7jCSP,2020-0188,2020-06-15,17:02:50,17:21:14,NA,incomplete,112,number,1,left,Green_Triangle_Dots_1.jpg,Purple_Circle_Chess_1.jpg,Green_Plus_Stripes_4.jpg,right,603.4799999906681,false,high,NA,NA,NA,NA,NA,NA,NA,false
sTl7jCSP,3peg1bh7bh4xuzsxamnfbz6ha40bkr,3fq5jj512p11isfo4exqre22gwjnkh,sTl7jCSP,2020-0188,2020-06-15,17:02:50,17:21:14,NA,incomplete,113,number,1,left,Purple_Triangle_Dots_1.jpg,Green_Plus_Chess_1.jpg,Purple_Circle_Stripes_2.jpg,left,1237.7099999575876,true,high,NA,NA,NA,NA,NA,NA,NA,false
sTl7jCSP,3peg1bh7bh4xuzsxamnfbz6ha40bkr,3fq5jj512p11isfo4exqre22gwjnkh,sTl7jCSP,2020-0188,2020-06-15,17:02:50,17:21:14,NA,incomplete,114,number,1,right,Blue_Triangle_Dots_2.jpg,Blue_Star_Chess_1.jpg,Purple_Plus_Stripes_2.jpg,right,1109.6699999761768,true,high,NA,NA,NA,NA,NA,NA,NA,false
sTl7jCSP,3peg1bh7bh4xuzsxamnfbz6ha40bkr,3fq5jj512p11isfo4exqre22gwjnkh,sTl7jCSP,2020-0188,2020-06-15,17:02:50,17:21:14,NA,incomplete,115,number,0,left,Green_Star_Chess_3.jpg,Purple_Plus_Grid_3.jpg,Green_Circle_Stripes_1.jpg,left,499.56500000553206,true,high,NA,NA,NA,NA,NA,NA,NA,false
sTl7jCSP,3peg1bh7bh4xuzsxamnfbz6ha40bkr,3fq5jj512p11isfo4exqre22gwjnkh,sTl7jCSP,2020-0188,2020-06-15,17:02:50,17:21:14,NA,incomplete,116,number,0,left,Purple_Star_Dots_4.jpg,Blue_Triangle_Stripes_4.jpg,Purple_Plus_Chess_3.jpg,left,815.9900000318885,true,high,NA,NA,NA,NA,NA,NA,NA,false
sTl7jCSP,3peg1bh7bh4xuzsxamnfbz6ha40bkr,3fq5jj512p11isfo4exqre22gwjnkh,sTl7jCSP,2020-0188,2020-06-15,17:02:50,17:21:14,NA,incomplete,117,number,1,right,Red_Triangle_Stripes_1.jpg,Red_Star_Chess_2.jpg,Purple_Circle_Grid_1.jpg,left,898.6099999747239,false,high,NA,NA,NA,NA,NA,NA,NA,false
sTl7jCSP,3peg1bh7bh4xuzsxamnfbz6ha40bkr,3fq5jj512p11isfo4exqre22gwjnkh,sTl7jCSP,2020-0188,2020-06-15,17:02:50,17:21:14,NA,incomplete,118,number,1,left,Blue_Circle_Dots_4.jpg,Green_Triangle_Stripes_4.jpg,Blue_Plus_Chess_1.jpg,left,761.995000008028,true,high,NA,NA,NA,NA,NA,NA,NA,false
sTl7jCSP,3peg1bh7bh4xuzsxamnfbz6ha40bkr,3fq5jj512p11isfo4exqre22gwjnkh,sTl7jCSP,2020-0188,2020-06-15,17:02:50,17:21:14,NA,incomplete,119,number,1,right,Green_Circle_Grid_4.jpg,Green_Star_Dots_1.jpg,Purple_Plus_Stripes_4.jpg,right,1008.8850000174716,true,high,NA,NA,NA,NA,NA,NA,NA,false
sTl7jCSP,3peg1bh7bh4xuzsxamnfbz6ha40bkr,3fq5jj512p11isfo4exqre22gwjnkh,sTl7jCSP,2020-0188,2020-06-15,17:02:50,17:21:14,NA,incomplete,120,filling,1,right,Blue_Circle_Dots_4.jpg,Red_Circle_Grid_3.jpg,Purple_Triangle_Dots_2.jpg,NA,NA,NA,high,NA,NA,NA,NA,NA,NA,NA,false
sTl7jCSP,3peg1bh7bh4xuzsxamnfbz6ha40bkr,3fq5jj512p11isfo4exqre22gwjnkh,sTl7jCSP,2020-0188,2020-06-15,17:02:50,17:21:14,NA,incomplete,121,filling,1,left,Red_Star_Dots_3.jpg,Blue_Circle_Dots_2.jpg,Green_Star_Chess_4.jpg,right,931.6899999976158,false,high,NA,NA,NA,NA,NA,NA,NA,false
sTl7jCSP,3peg1bh7bh4xuzsxamnfbz6ha40bkr,3fq5jj512p11isfo4exqre22gwjnkh,sTl7jCSP,2020-0188,2020-06-15,17:02:50,17:21:14,NA,incomplete,122,filling,0,left,Purple_Circle_Dots_3.jpg,Green_Plus_Dots_4.jpg,Red_Circle_Chess_1.jpg,right,1026.9050000351854,false,high,NA,NA,NA,NA,NA,NA,NA,false
sTl7jCSP,3peg1bh7bh4xuzsxamnfbz6ha40bkr,3fq5jj512p11isfo4exqre22gwjnkh,sTl7jCSP,2020-0188,2020-06-15,17:02:50,17:21:14,NA,incomplete,123,filling,1,right,Blue_Circle_Grid_4.jpg,Red_Circle_Stripes_2.jpg,Purple_Triangle_Grid_1.jpg,left,817.4650000291876,false,high,NA,NA,NA,NA,NA,NA,NA,false
sTl7jCSP,3peg1bh7bh4xuzsxamnfbz6ha40bkr,3fq5jj512p11isfo4exqre22gwjnkh,sTl7jCSP,2020-0188,2020-06-15,17:02:50,17:21:14,NA,incomplete,124,filling,1,right,Red_Star_Dots_2.jpg,Green_Star_Stripes_3.jpg,Purple_Plus_Dots_1.jpg,left,1190.5900000128895,false,high,NA,NA,NA,NA,NA,NA,NA,false
sTl7jCSP,3peg1bh7bh4xuzsxamnfbz6ha40bkr,3fq5jj512p11isfo4exqre22gwjnkh,sTl7jCSP,2020-0188,2020-06-15,17:02:50,17:21:14,NA,incomplete,125,filling,0,right,Purple_Circle_Grid_1.jpg,Green_Circle_Chess_2.jpg,Blue_Triangle_Grid_3.jpg,right,1047.4650000105612,true,high,NA,NA,NA,NA,NA,NA,NA,false
sTl7jCSP,3peg1bh7bh4xuzsxamnfbz6ha40bkr,3fq5jj512p11isfo4exqre22gwjnkh,sTl7jCSP,2020-0188,2020-06-15,17:02:50,17:21:14,NA,incomplete,126,filling,1,right,Blue_Circle_Chess_1.jpg,Red_Circle_Grid_3.jpg,Purple_Triangle_Chess_2.jpg,left,1530.4849999956787,false,high,NA,NA,NA,NA,NA,NA,NA,false
sTl7jCSP,3peg1bh7bh4xuzsxamnfbz6ha40bkr,3fq5jj512p11isfo4exqre22gwjnkh,sTl7jCSP,2020-0188,2020-06-15,17:02:50,17:21:14,NA,incomplete,127,filling,1,left,Blue_Star_Stripes_2.jpg,Green_Plus_Stripes_1.jpg,Purple_Star_Dots_4.jpg,left,853.5450000199489,true,high,NA,NA,NA,NA,NA,NA,NA,false
sTl7jCSP,3peg1bh7bh4xuzsxamnfbz6ha40bkr,3fq5jj512p11isfo4exqre22gwjnkh,sTl7jCSP,2020-0188,2020-06-15,17:02:50,17:21:14,NA,incomplete,128,filling,1,right,Blue_Triangle_Dots_2.jpg,Red_Triangle_Grid_3.jpg,Purple_Plus_Dots_4.jpg,right,952.4700000183657,true,high,NA,NA,NA,NA,NA,NA,NA,false
sTl7jCSP,3peg1bh7bh4xuzsxamnfbz6ha40bkr,3fq5jj512p11isfo4exqre22gwjnkh,sTl7jCSP,2020-0188,2020-06-15,17:02:50,17:21:14,NA,incomplete,129,filling,1,right,Blue_Circle_Stripes_4.jpg,Red_Circle_Grid_3.jpg,Green_Triangle_Stripes_2.jpg,right,1075.9600000455976,true,high,NA,NA,NA,NA,NA,NA,NA,false
sTl7jCSP,3peg1bh7bh4xuzsxamnfbz6ha40bkr,3fq5jj512p11isfo4exqre22gwjnkh,sTl7jCSP,2020-0188,2020-06-15,17:02:50,17:21:14,NA,incomplete,130,filling,1,right,Red_Circle_Grid_4.jpg,Green_Circle_Chess_1.jpg,Blue_Plus_Grid_2.jpg,right,892.1299999929033,true,high,NA,NA,NA,NA,NA,NA,NA,false
sTl7jCSP,3peg1bh7bh4xuzsxamnfbz6ha40bkr,3fq5jj512p11isfo4exqre22gwjnkh,sTl7jCSP,2020-0188,2020-06-15,17:02:50,17:21:14,NA,incomplete,131,filling,1,right,Green_Circle_Chess_4.jpg,Red_Circle_Stripes_2.jpg,Blue_Star_Chess_3.jpg,right,900.5050000268966,true,high,NA,NA,NA,NA,NA,NA,NA,false
sTl7jCSP,3peg1bh7bh4xuzsxamnfbz6ha40bkr,3fq5jj512p11isfo4exqre22gwjnkh,sTl7jCSP,2020-0188,2020-06-15,17:02:50,17:21:14,NA,incomplete,132,filling,0,left,Green_Star_Chess_2.jpg,Purple_Plus_Chess_3.jpg,Red_Star_Dots_4.jpg,left,936.3550000125542,true,high,NA,NA,NA,NA,NA,NA,NA,false
sTl7jCSP,3peg1bh7bh4xuzsxamnfbz6ha40bkr,3fq5jj512p11isfo4exqre22gwjnkh,sTl7jCSP,2020-0188,2020-06-15,17:02:50,17:21:14,NA,incomplete,133,filling,1,left,Purple_Plus_Chess_2.jpg,Red_Circle_Chess_4.jpg,Green_Plus_Grid_1.jpg,left,998.0399999767542,true,high,NA,NA,NA,NA,NA,NA,NA,false
sTl7jCSP,3peg1bh7bh4xuzsxamnfbz6ha40bkr,3fq5jj512p11isfo4exqre22gwjnkh,sTl7jCSP,2020-0188,2020-06-15,17:02:50,17:21:14,NA,incomplete,134,filling,1,left,Green_Star_Grid_3.jpg,Purple_Triangle_Grid_2.jpg,Red_Star_Dots_4.jpg,left,882.2149999905378,true,high,NA,NA,NA,NA,NA,NA,NA,false
sTl7jCSP,3peg1bh7bh4xuzsxamnfbz6ha40bkr,3fq5jj512p11isfo4exqre22gwjnkh,sTl7jCSP,2020-0188,2020-06-15,17:02:50,17:21:14,NA,incomplete,135,filling,1,left,Blue_Triangle_Dots_3.jpg,Red_Star_Dots_1.jpg,Purple_Triangle_Stripes_4.jpg,left,976.0649999952875,true,high,NA,NA,NA,NA,NA,NA,NA,false
sTl7jCSP,3peg1bh7bh4xuzsxamnfbz6ha40bkr,3fq5jj512p11isfo4exqre22gwjnkh,sTl7jCSP,2020-0188,2020-06-15,17:02:50,17:21:14,NA,incomplete,136,filling,0,right,Blue_Plus_Grid_4.jpg,Purple_Plus_Chess_2.jpg,Green_Star_Grid_1.jpg,right,1016.925000003539,true,high,NA,NA,NA,NA,NA,NA,NA,false
sTl7jCSP,3peg1bh7bh4xuzsxamnfbz6ha40bkr,3fq5jj512p11isfo4exqre22gwjnkh,sTl7jCSP,2020-0188,2020-06-15,17:02:50,17:21:14,NA,incomplete,137,filling,1,left,Blue_Star_Stripes_3.jpg,Red_Circle_Stripes_2.jpg,Purple_Star_Grid_1.jpg,left,1065.824999997858,true,high,NA,NA,NA,NA,NA,NA,NA,false
sTl7jCSP,3peg1bh7bh4xuzsxamnfbz6ha40bkr,3fq5jj512p11isfo4exqre22gwjnkh,sTl7jCSP,2020-0188,2020-06-15,17:02:50,17:21:14,NA,incomplete,138,filling,1,left,Green_Plus_Chess_3.jpg,Purple_Circle_Chess_2.jpg,Red_Plus_Grid_1.jpg,left,1063.190000015311,true,high,NA,NA,NA,NA,NA,NA,NA,false
sTl7jCSP,3peg1bh7bh4xuzsxamnfbz6ha40bkr,3fq5jj512p11isfo4exqre22gwjnkh,sTl7jCSP,2020-0188,2020-06-15,17:02:50,17:21:14,NA,incomplete,139,filling,0,right,Red_Star_Chess_4.jpg,Green_Star_Grid_3.jpg,Blue_Triangle_Chess_1.jpg,right,970.3449999797158,true,high,NA,NA,NA,NA,NA,NA,NA,false
sTl7jCSP,3peg1bh7bh4xuzsxamnfbz6ha40bkr,3fq5jj512p11isfo4exqre22gwjnkh,sTl7jCSP,2020-0188,2020-06-15,17:02:50,17:21:14,NA,incomplete,140,shape,1,left,Blue_Triangle_Dots_3.jpg,Green_Triangle_Chess_4.jpg,Purple_Star_Dots_1.jpg,right,997.7150000049733,false,high,NA,NA,NA,NA,NA,NA,NA,false
sTl7jCSP,3peg1bh7bh4xuzsxamnfbz6ha40bkr,3fq5jj512p11isfo4exqre22gwjnkh,sTl7jCSP,2020-0188,2020-06-15,17:02:50,17:21:14,NA,incomplete,141,shape,0,right,Green_Plus_Chess_1.jpg,Purple_Circle_Chess_3.jpg,Blue_Plus_Grid_2.jpg,left,943.2550000492483,false,high,NA,NA,NA,NA,NA,NA,NA,false
sTl7jCSP,3peg1bh7bh4xuzsxamnfbz6ha40bkr,3fq5jj512p11isfo4exqre22gwjnkh,sTl7jCSP,2020-0188,2020-06-15,17:02:50,17:21:14,NA,incomplete,142,shape,1,left,Red_Circle_Stripes_2.jpg,Green_Circle_Chess_1.jpg,Blue_Triangle_Stripes_3.jpg,right,757.3550000088289,false,high,NA,NA,NA,NA,NA,NA,NA,false
sTl7jCSP,3peg1bh7bh4xuzsxamnfbz6ha40bkr,3fq5jj512p11isfo4exqre22gwjnkh,sTl7jCSP,2020-0188,2020-06-15,17:02:50,17:21:14,NA,incomplete,143,shape,0,right,Red_Circle_Grid_2.jpg,Green_Plus_Grid_4.jpg,Blue_Circle_Stripes_3.jpg,left,950.0450000050478,false,high,NA,NA,NA,NA,NA,NA,NA,false
sTl7jCSP,3peg1bh7bh4xuzsxamnfbz6ha40bkr,3fq5jj512p11isfo4exqre22gwjnkh,sTl7jCSP,2020-0188,2020-06-15,17:02:50,17:21:14,NA,incomplete,144,shape,1,left,Blue_Plus_Stripes_4.jpg,Purple_Plus_Grid_2.jpg,Red_Circle_Stripes_1.jpg,right,957.3649999802001,false,high,NA,NA,NA,NA,NA,NA,NA,false
sTl7jCSP,3peg1bh7bh4xuzsxamnfbz6ha40bkr,3fq5jj512p11isfo4exqre22gwjnkh,sTl7jCSP,2020-0188,2020-06-15,17:02:50,17:21:14,NA,incomplete,145,shape,1,right,Red_Circle_Grid_2.jpg,Green_Triangle_Grid_1.jpg,Blue_Circle_Chess_3.jpg,left,1345.629999996163,false,high,NA,NA,NA,NA,NA,NA,NA,false
sTl7jCSP,3peg1bh7bh4xuzsxamnfbz6ha40bkr,3fq5jj512p11isfo4exqre22gwjnkh,sTl7jCSP,2020-0188,2020-06-15,17:02:50,17:21:14,NA,incomplete,146,shape,1,left,Purple_Circle_Chess_1.jpg,Red_Circle_Stripes_2.jpg,Green_Star_Chess_4.jpg,left,1141.8799999519251,true,high,NA,NA,NA,NA,NA,NA,NA,false
sTl7jCSP,3peg1bh7bh4xuzsxamnfbz6ha40bkr,3fq5jj512p11isfo4exqre22gwjnkh,sTl7jCSP,2020-0188,2020-06-15,17:02:50,17:21:14,NA,incomplete,147,shape,1,right,Red_Circle_Grid_3.jpg,Purple_Plus_Grid_4.jpg,Green_Circle_Stripes_2.jpg,right,577.9699999839067,true,high,NA,NA,NA,NA,NA,NA,NA,false
sTl7jCSP,3peg1bh7bh4xuzsxamnfbz6ha40bkr,3fq5jj512p11isfo4exqre22gwjnkh,sTl7jCSP,2020-0188,2020-06-15,17:02:50,17:21:14,NA,incomplete,148,shape,1,left,Purple_Star_Dots_3.jpg,Green_Star_Stripes_4.jpg,Red_Triangle_Dots_1.jpg,left,822.9949999949895,true,high,NA,NA,NA,NA,NA,NA,NA,false
sTl7jCSP,3peg1bh7bh4xuzsxamnfbz6ha40bkr,3fq5jj512p11isfo4exqre22gwjnkh,sTl7jCSP,2020-0188,2020-06-15,17:02:50,17:21:14,NA,incomplete,149,shape,0,left,Purple_Star_Chess_2.jpg,Green_Star_Dots_4.jpg,Red_Triangle_Chess_1.jpg,left,1002.8150000143796,true,high,NA,NA,NA,NA,NA,NA,NA,false
sTl7jCSP,3peg1bh7bh4xuzsxamnfbz6ha40bkr,3fq5jj512p11isfo4exqre22gwjnkh,sTl7jCSP,2020-0188,2020-06-15,17:02:50,17:21:14,NA,incomplete,150,shape,1,right,Red_Triangle_Dots_4.jpg,Purple_Circle_Dots_2.jpg,Green_Triangle_Chess_3.jpg,right,677.0200000028126,true,high,NA,NA,NA,NA,NA,NA,NA,false
sTl7jCSP,3peg1bh7bh4xuzsxamnfbz6ha40bkr,3fq5jj512p11isfo4exqre22gwjnkh,sTl7jCSP,2020-0188,2020-06-15,17:02:50,17:21:14,NA,incomplete,151,shape,1,left,Red_Star_Grid_4.jpg,Green_Star_Chess_1.jpg,Purple_Triangle_Grid_2.jpg,left,865.9099999931641,true,high,NA,NA,NA,NA,NA,NA,NA,false
sTl7jCSP,3peg1bh7bh4xuzsxamnfbz6ha40bkr,3fq5jj512p11isfo4exqre22gwjnkh,sTl7jCSP,2020-0188,2020-06-15,17:02:50,17:21:14,NA,incomplete,152,shape,1,left,Red_Star_Stripes_3.jpg,Green_Star_Dots_1.jpg,Blue_Plus_Stripes_2.jpg,left,919.3899999954738,true,high,NA,NA,NA,NA,NA,NA,NA,false
sTl7jCSP,3peg1bh7bh4xuzsxamnfbz6ha40bkr,3fq5jj512p11isfo4exqre22gwjnkh,sTl7jCSP,2020-0188,2020-06-15,17:02:50,17:21:14,NA,incomplete,153,shape,1,left,Purple_Circle_Grid_1.jpg,Blue_Circle_Dots_2.jpg,Green_Plus_Grid_3.jpg,left,839.0999999828637,true,high,NA,NA,NA,NA,NA,NA,NA,false
sTl7jCSP,3peg1bh7bh4xuzsxamnfbz6ha40bkr,3fq5jj512p11isfo4exqre22gwjnkh,sTl7jCSP,2020-0188,2020-06-15,17:02:50,17:21:14,NA,incomplete,154,shape,1,left,Red_Star_Grid_2.jpg,Green_Star_Dots_3.jpg,Blue_Plus_Grid_1.jpg,left,597.5549999857321,true,high,NA,NA,NA,NA,NA,NA,NA,false
sTl7jCSP,3peg1bh7bh4xuzsxamnfbz6ha40bkr,3fq5jj512p11isfo4exqre22gwjnkh,sTl7jCSP,2020-0188,2020-06-15,17:02:50,17:21:14,NA,incomplete,155,shape,0,left,Red_Circle_Stripes_2.jpg,Blue_Circle_Grid_1.jpg,Green_Star_Stripes_4.jpg,left,634.8400000133552,true,high,NA,NA,NA,NA,NA,NA,NA,false
sTl7jCSP,3peg1bh7bh4xuzsxamnfbz6ha40bkr,3fq5jj512p11isfo4exqre22gwjnkh,sTl7jCSP,2020-0188,2020-06-15,17:02:50,17:21:14,NA,incomplete,156,shape,1,right,Green_Star_Chess_1.jpg,Red_Triangle_Chess_2.jpg,Purple_Star_Dots_3.jpg,right,760.2549999719486,true,high,NA,NA,NA,NA,NA,NA,NA,false
sTl7jCSP,3peg1bh7bh4xuzsxamnfbz6ha40bkr,3fq5jj512p11isfo4exqre22gwjnkh,sTl7jCSP,2020-0188,2020-06-15,17:02:50,17:21:14,NA,incomplete,157,shape,1,right,Blue_Plus_Grid_2.jpg,Green_Circle_Grid_1.jpg,Red_Plus_Chess_4.jpg,right,627.9649999924004,true,high,NA,NA,NA,NA,NA,NA,NA,false
sTl7jCSP,3peg1bh7bh4xuzsxamnfbz6ha40bkr,3fq5jj512p11isfo4exqre22gwjnkh,sTl7jCSP,2020-0188,2020-06-15,17:02:50,17:21:14,NA,incomplete,158,shape,0,right,Purple_Circle_Dots_3.jpg,Green_Triangle_Dots_4.jpg,Blue_Circle_Chess_2.jpg,right,674.8099999967963,true,high,NA,NA,NA,NA,NA,NA,NA,false
sTl7jCSP,3peg1bh7bh4xuzsxamnfbz6ha40bkr,3fq5jj512p11isfo4exqre22gwjnkh,sTl7jCSP,2020-0188,2020-06-15,17:02:50,17:21:14,NA,incomplete,159,shape,1,left,Purple_Triangle_Stripes_3.jpg,Red_Triangle_Chess_2.jpg,Green_Plus_Stripes_1.jpg,left,649.8450000071898,true,high,NA,NA,NA,NA,NA,NA,NA,false
sTl7jCSP,3peg1bh7bh4xuzsxamnfbz6ha40bkr,3fq5jj512p11isfo4exqre22gwjnkh,sTl7jCSP,2020-0188,2020-06-15,17:02:50,17:21:14,NA,incomplete,160,filling,1,left,Red_Circle_Chess_1.jpg,Blue_Star_Chess_4.jpg,Green_Circle_Dots_3.jpg,right,620.6399999791756,false,high,NA,NA,NA,NA,NA,NA,NA,false
sTl7jCSP,3peg1bh7bh4xuzsxamnfbz6ha40bkr,3fq5jj512p11isfo4exqre22gwjnkh,sTl7jCSP,2020-0188,2020-06-15,17:02:50,17:21:14,NA,incomplete,161,filling,1,left,Purple_Plus_Grid_4.jpg,Blue_Triangle_Grid_1.jpg,Red_Plus_Dots_2.jpg,right,669.8500000056811,false,high,NA,NA,NA,NA,NA,NA,NA,false
sTl7jCSP,3peg1bh7bh4xuzsxamnfbz6ha40bkr,3fq5jj512p11isfo4exqre22gwjnkh,sTl7jCSP,2020-0188,2020-06-15,17:02:50,17:21:14,NA,incomplete,162,filling,1,right,Red_Star_Chess_1.jpg,Green_Star_Dots_4.jpg,Blue_Plus_Chess_3.jpg,right,1893.6500000418164,true,high,NA,NA,NA,NA,NA,NA,NA,false
sTl7jCSP,3peg1bh7bh4xuzsxamnfbz6ha40bkr,3fq5jj512p11isfo4exqre22gwjnkh,sTl7jCSP,2020-0188,2020-06-15,17:02:50,17:21:14,NA,incomplete,163,filling,0,left,Green_Star_Grid_2.jpg,Red_Plus_Grid_4.jpg,Blue_Star_Chess_1.jpg,left,1051.3500000233762,true,high,NA,NA,NA,NA,NA,NA,NA,false
sTl7jCSP,3peg1bh7bh4xuzsxamnfbz6ha40bkr,3fq5jj512p11isfo4exqre22gwjnkh,sTl7jCSP,2020-0188,2020-06-15,17:02:50,17:21:14,NA,incomplete,164,filling,1,right,Purple_Circle_Grid_1.jpg,Green_Circle_Dots_3.jpg,Red_Triangle_Grid_2.jpg,right,692.2599999816157,true,high,NA,NA,NA,NA,NA,NA,NA,false
sTl7jCSP,3peg1bh7bh4xuzsxamnfbz6ha40bkr,3fq5jj512p11isfo4exqre22gwjnkh,sTl7jCSP,2020-0188,2020-06-15,17:02:50,17:21:14,NA,incomplete,165,filling,0,right,Blue_Plus_Stripes_3.jpg,Red_Plus_Dots_1.jpg,Green_Triangle_Stripes_2.jpg,right,861.3649999606423,true,high,NA,NA,NA,NA,NA,NA,NA,false
sTl7jCSP,3peg1bh7bh4xuzsxamnfbz6ha40bkr,3fq5jj512p11isfo4exqre22gwjnkh,sTl7jCSP,2020-0188,2020-06-15,17:02:50,17:21:14,NA,incomplete,166,filling,1,right,Green_Circle_Grid_3.jpg,Blue_Circle_Chess_2.jpg,Purple_Triangle_Grid_1.jpg,right,1296.4200000278652,true,high,NA,NA,NA,NA,NA,NA,NA,false
sTl7jCSP,3peg1bh7bh4xuzsxamnfbz6ha40bkr,3fq5jj512p11isfo4exqre22gwjnkh,sTl7jCSP,2020-0188,2020-06-15,17:02:50,17:21:14,NA,incomplete,167,filling,1,right,Red_Plus_Grid_4.jpg,Purple_Plus_Dots_3.jpg,Blue_Circle_Grid_1.jpg,right,1187.7250000252388,true,high,NA,NA,NA,NA,NA,NA,NA,false
sTl7jCSP,3peg1bh7bh4xuzsxamnfbz6ha40bkr,3fq5jj512p11isfo4exqre22gwjnkh,sTl7jCSP,2020-0188,2020-06-15,17:02:50,17:21:14,NA,incomplete,168,filling,1,left,Blue_Triangle_Chess_3.jpg,Red_Star_Chess_2.jpg,Purple_Triangle_Dots_4.jpg,left,1043.9250000054017,true,high,NA,NA,NA,NA,NA,NA,NA,false
sTl7jCSP,3peg1bh7bh4xuzsxamnfbz6ha40bkr,3fq5jj512p11isfo4exqre22gwjnkh,sTl7jCSP,2020-0188,2020-06-15,17:02:50,17:21:14,NA,incomplete,169,filling,1,left,Red_Triangle_Grid_1.jpg,Purple_Star_Grid_4.jpg,Green_Triangle_Stripes_2.jpg,right,1028.0149999889545,false,high,NA,NA,NA,NA,NA,NA,NA,false
sTl7jCSP,3peg1bh7bh4xuzsxamnfbz6ha40bkr,3fq5jj512p11isfo4exqre22gwjnkh,sTl7jCSP,2020-0188,2020-06-15,17:02:50,17:21:14,NA,incomplete,170,filling,1,left,Blue_Circle_Dots_2.jpg,Green_Triangle_Dots_3.jpg,Purple_Circle_Grid_4.jpg,left,1182.3449999792501,true,high,NA,NA,NA,NA,NA,NA,NA,false
sTl7jCSP,3peg1bh7bh4xuzsxamnfbz6ha40bkr,3fq5jj512p11isfo4exqre22gwjnkh,sTl7jCSP,2020-0188,2020-06-15,17:02:50,17:21:14,NA,incomplete,171,filling,1,left,Green_Star_Dots_2.jpg,Red_Triangle_Dots_4.jpg,Blue_Star_Grid_1.jpg,left,1012.8050000057556,true,high,NA,NA,NA,NA,NA,NA,NA,false
sTl7jCSP,3peg1bh7bh4xuzsxamnfbz6ha40bkr,3fq5jj512p11isfo4exqre22gwjnkh,sTl7jCSP,2020-0188,2020-06-15,17:02:50,17:21:14,NA,incomplete,172,filling,0,left,Purple_Plus_Chess_2.jpg,Green_Star_Chess_3.jpg,Red_Plus_Grid_4.jpg,left,1132.3950000223704,true,high,NA,NA,NA,NA,NA,NA,NA,false
sTl7jCSP,3peg1bh7bh4xuzsxamnfbz6ha40bkr,3fq5jj512p11isfo4exqre22gwjnkh,sTl7jCSP,2020-0188,2020-06-15,17:02:50,17:21:14,NA,incomplete,173,filling,1,left,Blue_Triangle_Grid_1.jpg,Green_Plus_Grid_4.jpg,Purple_Triangle_Stripes_3.jpg,left,808.469999989029,true,high,NA,NA,NA,NA,NA,NA,NA,false
sTl7jCSP,3peg1bh7bh4xuzsxamnfbz6ha40bkr,3fq5jj512p11isfo4exqre22gwjnkh,sTl7jCSP,2020-0188,2020-06-15,17:02:50,17:21:14,NA,incomplete,174,filling,1,right,Red_Circle_Stripes_4.jpg,Blue_Circle_Dots_1.jpg,Purple_Triangle_Stripes_2.jpg,right,612.6800000201911,true,high,NA,NA,NA,NA,NA,NA,NA,false
sTl7jCSP,3peg1bh7bh4xuzsxamnfbz6ha40bkr,3fq5jj512p11isfo4exqre22gwjnkh,sTl7jCSP,2020-0188,2020-06-15,17:02:50,17:21:14,NA,incomplete,175,filling,1,left,Green_Star_Grid_2.jpg,Blue_Circle_Grid_4.jpg,Purple_Star_Stripes_1.jpg,left,857.7400000067428,true,high,NA,NA,NA,NA,NA,NA,NA,false
sTl7jCSP,3peg1bh7bh4xuzsxamnfbz6ha40bkr,3fq5jj512p11isfo4exqre22gwjnkh,sTl7jCSP,2020-0188,2020-06-15,17:02:50,17:21:14,NA,incomplete,176,filling,1,right,Green_Plus_Dots_2.jpg,Purple_Plus_Chess_3.jpg,Red_Triangle_Dots_4.jpg,right,1160.4049999732524,true,high,NA,NA,NA,NA,NA,NA,NA,false
sTl7jCSP,3peg1bh7bh4xuzsxamnfbz6ha40bkr,3fq5jj512p11isfo4exqre22gwjnkh,sTl7jCSP,2020-0188,2020-06-15,17:02:50,17:21:14,NA,incomplete,177,filling,1,left,Green_Star_Dots_2.jpg,Purple_Triangle_Dots_4.jpg,Blue_Star_Chess_1.jpg,left,789.0849999967031,true,high,NA,NA,NA,NA,NA,NA,NA,false
sTl7jCSP,3peg1bh7bh4xuzsxamnfbz6ha40bkr,3fq5jj512p11isfo4exqre22gwjnkh,sTl7jCSP,2020-0188,2020-06-15,17:02:50,17:21:14,NA,incomplete,178,filling,1,left,Purple_Circle_Grid_4.jpg,Red_Star_Grid_1.jpg,Green_Circle_Chess_3.jpg,left,785.3699999977835,true,high,NA,NA,NA,NA,NA,NA,NA,false
sTl7jCSP,3peg1bh7bh4xuzsxamnfbz6ha40bkr,3fq5jj512p11isfo4exqre22gwjnkh,sTl7jCSP,2020-0188,2020-06-15,17:02:50,17:21:14,NA,incomplete,179,filling,0,right,Green_Plus_Dots_2.jpg,Purple_Plus_Chess_4.jpg,Red_Star_Dots_3.jpg,right,890.7999999937601,true,high,NA,NA,NA,NA,NA,NA,NA,false
sTl7jCSP,3peg1bh7bh4xuzsxamnfbz6ha40bkr,3fq5jj512p11isfo4exqre22gwjnkh,sTl7jCSP,2020-0188,2020-06-15,17:02:50,17:21:14,NA,incomplete,180,shape,1,left,Green_Triangle_Stripes_3.jpg,Red_Triangle_Dots_4.jpg,Purple_Plus_Stripes_1.jpg,right,815.9299999824725,false,high,NA,NA,NA,NA,NA,NA,NA,false
sTl7jCSP,3peg1bh7bh4xuzsxamnfbz6ha40bkr,3fq5jj512p11isfo4exqre22gwjnkh,sTl7jCSP,2020-0188,2020-06-15,17:02:50,17:21:14,NA,incomplete,181,shape,1,right,Red_Star_Grid_4.jpg,Blue_Circle_Grid_3.jpg,Purple_Star_Dots_1.jpg,right,1092.8900000290014,true,high,NA,NA,NA,NA,NA,NA,NA,false
sTl7jCSP,3peg1bh7bh4xuzsxamnfbz6ha40bkr,3fq5jj512p11isfo4exqre22gwjnkh,sTl7jCSP,2020-0188,2020-06-15,17:02:50,17:21:14,NA,incomplete,182,shape,1,right,Blue_Triangle_Grid_4.jpg,Purple_Plus_Grid_2.jpg,Red_Triangle_Chess_1.jpg,right,979.0700000012293,true,high,NA,NA,NA,NA,NA,NA,NA,false
sTl7jCSP,3peg1bh7bh4xuzsxamnfbz6ha40bkr,3fq5jj512p11isfo4exqre22gwjnkh,sTl7jCSP,2020-0188,2020-06-15,17:02:50,17:21:14,NA,incomplete,183,shape,0,left,Red_Plus_Chess_1.jpg,Blue_Plus_Stripes_3.jpg,Purple_Circle_Chess_2.jpg,left,1092.914999986533,true,high,NA,NA,NA,NA,NA,NA,NA,false
sTl7jCSP,3peg1bh7bh4xuzsxamnfbz6ha40bkr,3fq5jj512p11isfo4exqre22gwjnkh,sTl7jCSP,2020-0188,2020-06-15,17:02:50,17:21:14,NA,incomplete,184,shape,1,right,Blue_Triangle_Stripes_1.jpg,Red_Circle_Stripes_3.jpg,Green_Triangle_Dots_2.jpg,right,678.4500000067055,true,high,NA,NA,NA,NA,NA,NA,NA,false
sTl7jCSP,3peg1bh7bh4xuzsxamnfbz6ha40bkr,3fq5jj512p11isfo4exqre22gwjnkh,sTl7jCSP,2020-0188,2020-06-15,17:02:50,17:21:14,NA,incomplete,185,shape,1,left,Red_Star_Chess_2.jpg,Green_Star_Dots_3.jpg,Blue_Plus_Chess_4.jpg,left,934.6750000258908,true,high,NA,NA,NA,NA,NA,NA,NA,false
sTl7jCSP,3peg1bh7bh4xuzsxamnfbz6ha40bkr,3fq5jj512p11isfo4exqre22gwjnkh,sTl7jCSP,2020-0188,2020-06-15,17:02:50,17:21:14,NA,incomplete,186,shape,1,right,Blue_Triangle_Grid_3.jpg,Red_Plus_Grid_4.jpg,Purple_Triangle_Dots_1.jpg,right,712.9650000133552,true,high,NA,NA,NA,NA,NA,NA,NA,false
sTl7jCSP,3peg1bh7bh4xuzsxamnfbz6ha40bkr,3fq5jj512p11isfo4exqre22gwjnkh,sTl7jCSP,2020-0188,2020-06-15,17:02:50,17:21:14,NA,incomplete,187,shape,1,right,Red_Star_Grid_4.jpg,Green_Plus_Grid_2.jpg,Blue_Star_Stripes_3.jpg,right,842.9899999755435,true,high,NA,NA,NA,NA,NA,NA,NA,false
sTl7jCSP,3peg1bh7bh4xuzsxamnfbz6ha40bkr,3fq5jj512p11isfo4exqre22gwjnkh,sTl7jCSP,2020-0188,2020-06-15,17:02:50,17:21:14,NA,incomplete,188,shape,1,left,Purple_Plus_Chess_2.jpg,Green_Plus_Dots_3.jpg,Blue_Star_Chess_1.jpg,left,678.7150000454858,true,high,NA,NA,NA,NA,NA,NA,NA,false
sTl7jCSP,3peg1bh7bh4xuzsxamnfbz6ha40bkr,3fq5jj512p11isfo4exqre22gwjnkh,sTl7jCSP,2020-0188,2020-06-15,17:02:50,17:21:14,NA,incomplete,189,shape,1,right,Blue_Triangle_Grid_1.jpg,Green_Star_Grid_3.jpg,Purple_Triangle_Chess_4.jpg,right,695.2549999696203,true,high,NA,NA,NA,NA,NA,NA,NA,false
sTl7jCSP,3peg1bh7bh4xuzsxamnfbz6ha40bkr,3fq5jj512p11isfo4exqre22gwjnkh,sTl7jCSP,2020-0188,2020-06-15,17:02:50,17:21:14,NA,incomplete,190,shape,1,left,Blue_Star_Grid_3.jpg,Green_Star_Chess_2.jpg,Purple_Triangle_Grid_1.jpg,left,631.435000046622,true,high,NA,NA,NA,NA,NA,NA,NA,false
sTl7jCSP,3peg1bh7bh4xuzsxamnfbz6ha40bkr,3fq5jj512p11isfo4exqre22gwjnkh,sTl7jCSP,2020-0188,2020-06-15,17:02:50,17:21:14,NA,incomplete,191,shape,1,right,Red_Plus_Chess_2.jpg,Blue_Star_Chess_4.jpg,Green_Plus_Dots_3.jpg,right,949.7700000065379,true,high,NA,NA,NA,NA,NA,NA,NA,false
sTl7jCSP,3peg1bh7bh4xuzsxamnfbz6ha40bkr,3fq5jj512p11isfo4exqre22gwjnkh,sTl7jCSP,2020-0188,2020-06-15,17:02:50,17:21:14,NA,incomplete,192,shape,1,left,Blue_Star_Dots_4.jpg,Purple_Star_Stripes_2.jpg,Red_Plus_Dots_3.jpg,left,650.9049999876879,true,high,NA,NA,NA,NA,NA,NA,NA,false
sTl7jCSP,3peg1bh7bh4xuzsxamnfbz6ha40bkr,3fq5jj512p11isfo4exqre22gwjnkh,sTl7jCSP,2020-0188,2020-06-15,17:02:50,17:21:14,NA,incomplete,193,shape,1,right,Red_Circle_Stripes_2.jpg,Purple_Plus_Stripes_3.jpg,Green_Circle_Chess_4.jpg,right,622.0850000390783,true,high,NA,NA,NA,NA,NA,NA,NA,false
sTl7jCSP,3peg1bh7bh4xuzsxamnfbz6ha40bkr,3fq5jj512p11isfo4exqre22gwjnkh,sTl7jCSP,2020-0188,2020-06-15,17:02:50,17:21:14,NA,incomplete,194,shape,1,right,Purple_Circle_Dots_1.jpg,Blue_Star_Dots_4.jpg,Green_Circle_Stripes_3.jpg,right,514.5849999971688,true,high,NA,NA,NA,NA,NA,NA,NA,false
sTl7jCSP,3peg1bh7bh4xuzsxamnfbz6ha40bkr,3fq5jj512p11isfo4exqre22gwjnkh,sTl7jCSP,2020-0188,2020-06-15,17:02:50,17:21:14,NA,incomplete,195,shape,0,right,Red_Circle_Dots_4.jpg,Blue_Triangle_Dots_1.jpg,Purple_Circle_Chess_2.jpg,right,496.7799999867566,true,high,NA,NA,NA,NA,NA,NA,NA,false
sTl7jCSP,3peg1bh7bh4xuzsxamnfbz6ha40bkr,3fq5jj512p11isfo4exqre22gwjnkh,sTl7jCSP,2020-0188,2020-06-15,17:02:50,17:21:14,NA,incomplete,196,shape,1,left,Purple_Plus_Chess_3.jpg,Red_Plus_Stripes_2.jpg,Blue_Star_Chess_4.jpg,left,740.9450000268407,true,high,NA,NA,NA,NA,NA,NA,NA,false
sTl7jCSP,3peg1bh7bh4xuzsxamnfbz6ha40bkr,3fq5jj512p11isfo4exqre22gwjnkh,sTl7jCSP,2020-0188,2020-06-15,17:02:50,17:21:14,NA,incomplete,197,shape,1,right,Purple_Plus_Grid_1.jpg,Green_Circle_Grid_3.jpg,Red_Plus_Dots_4.jpg,right,528.4649999812245,true,high,NA,NA,NA,NA,NA,NA,NA,false
sTl7jCSP,3peg1bh7bh4xuzsxamnfbz6ha40bkr,3fq5jj512p11isfo4exqre22gwjnkh,sTl7jCSP,2020-0188,2020-06-15,17:02:50,17:21:14,NA,incomplete,198,shape,0,right,Red_Circle_Grid_1.jpg,Green_Star_Grid_3.jpg,Purple_Circle_Dots_4.jpg,right,756.4450000063516,true,high,NA,NA,NA,NA,NA,NA,NA,false
sTl7jCSP,3peg1bh7bh4xuzsxamnfbz6ha40bkr,3fq5jj512p11isfo4exqre22gwjnkh,sTl7jCSP,2020-0188,2020-06-15,17:02:50,17:21:14,NA,incomplete,199,shape,1,left,Green_Circle_Grid_1.jpg,Red_Circle_Chess_2.jpg,Blue_Plus_Grid_3.jpg,left,732.3999999789521,true,high,NA,NA,NA,NA,NA,NA,NA,false
sTl7jCSP,3peg1bh7bh4xuzsxamnfbz6ha40bkr,3fq5jj512p11isfo4exqre22gwjnkh,sTl7jCSP,2020-0188,2020-06-15,17:02:50,17:21:14,NA,incomplete,200,filling,1,left,Red_Circle_Chess_4.jpg,Blue_Star_Chess_3.jpg,Green_Circle_Dots_2.jpg,right,519.3699999945238,false,high,NA,NA,NA,NA,NA,NA,NA,false
sTl7jCSP,3peg1bh7bh4xuzsxamnfbz6ha40bkr,3fq5jj512p11isfo4exqre22gwjnkh,sTl7jCSP,2020-0188,2020-06-15,17:02:50,17:21:14,NA,incomplete,201,filling,1,left,Green_Triangle_Stripes_4.jpg,Red_Star_Stripes_3.jpg,Blue_Triangle_Chess_1.jpg,right,782.6150000328198,false,high,NA,NA,NA,NA,NA,NA,NA,false
sTl7jCSP,3peg1bh7bh4xuzsxamnfbz6ha40bkr,3fq5jj512p11isfo4exqre22gwjnkh,sTl7jCSP,2020-0188,2020-06-15,17:02:50,17:21:14,NA,incomplete,202,filling,0,right,Red_Triangle_Dots_1.jpg,Purple_Triangle_Chess_4.jpg,Green_Circle_Dots_2.jpg,right,1237.665000022389,true,high,NA,NA,NA,NA,NA,NA,NA,false
sTl7jCSP,3peg1bh7bh4xuzsxamnfbz6ha40bkr,3fq5jj512p11isfo4exqre22gwjnkh,sTl7jCSP,2020-0188,2020-06-15,17:02:50,17:21:14,NA,incomplete,203,filling,1,left,Red_Triangle_Grid_3.jpg,Blue_Star_Grid_2.jpg,Purple_Triangle_Stripes_1.jpg,right,566.1949999630451,false,high,NA,NA,NA,NA,NA,NA,NA,false
sTl7jCSP,3peg1bh7bh4xuzsxamnfbz6ha40bkr,3fq5jj512p11isfo4exqre22gwjnkh,sTl7jCSP,2020-0188,2020-06-15,17:02:50,17:21:14,NA,incomplete,204,filling,1,right,Red_Plus_Chess_3.jpg,Green_Plus_Grid_4.jpg,Blue_Circle_Chess_2.jpg,right,1024.5749999885447,true,high,NA,NA,NA,NA,NA,NA,NA,false
sTl7jCSP,3peg1bh7bh4xuzsxamnfbz6ha40bkr,3fq5jj512p11isfo4exqre22gwjnkh,sTl7jCSP,2020-0188,2020-06-15,17:02:50,17:21:14,NA,incomplete,205,filling,1,right,Red_Plus_Grid_4.jpg,Blue_Plus_Dots_1.jpg,Purple_Circle_Grid_2.jpg,right,661.019999999553,true,high,NA,NA,NA,NA,NA,NA,NA,false
sTl7jCSP,3peg1bh7bh4xuzsxamnfbz6ha40bkr,3fq5jj512p11isfo4exqre22gwjnkh,sTl7jCSP,2020-0188,2020-06-15,17:02:50,17:21:14,NA,incomplete,206,filling,1,right,Green_Plus_Stripes_3.jpg,Purple_Plus_Grid_1.jpg,Red_Circle_Stripes_2.jpg,right,698.1699999887496,true,high,NA,NA,NA,NA,NA,NA,NA,false
sTl7jCSP,3peg1bh7bh4xuzsxamnfbz6ha40bkr,3fq5jj512p11isfo4exqre22gwjnkh,sTl7jCSP,2020-0188,2020-06-15,17:02:50,17:21:14,NA,incomplete,207,filling,1,left,Blue_Plus_Grid_3.jpg,Green_Triangle_Grid_1.jpg,Purple_Plus_Dots_2.jpg,left,1034.9000000278465,true,high,NA,NA,NA,NA,NA,NA,NA,false
sTl7jCSP,3peg1bh7bh4xuzsxamnfbz6ha40bkr,3fq5jj512p11isfo4exqre22gwjnkh,sTl7jCSP,2020-0188,2020-06-15,17:02:50,17:21:14,NA,incomplete,208,filling,0,right,Blue_Triangle_Dots_4.jpg,Red_Triangle_Stripes_3.jpg,Green_Star_Dots_2.jpg,right,728.8849999895319,true,high,NA,NA,NA,NA,NA,NA,NA,false
sTl7jCSP,3peg1bh7bh4xuzsxamnfbz6ha40bkr,3fq5jj512p11isfo4exqre22gwjnkh,sTl7jCSP,2020-0188,2020-06-15,17:02:50,17:21:14,NA,incomplete,209,filling,1,left,Red_Circle_Stripes_3.jpg,Purple_Star_Stripes_4.jpg,Blue_Circle_Chess_2.jpg,left,792.6100000040606,true,high,NA,NA,NA,NA,NA,NA,NA,false
sTl7jCSP,3peg1bh7bh4xuzsxamnfbz6ha40bkr,3fq5jj512p11isfo4exqre22gwjnkh,sTl7jCSP,2020-0188,2020-06-15,17:02:50,17:21:14,NA,incomplete,210,filling,0,right,Purple_Plus_Grid_4.jpg,Blue_Plus_Stripes_2.jpg,Red_Circle_Grid_3.jpg,right,935.4150000144728,true,high,NA,NA,NA,NA,NA,NA,NA,false
sTl7jCSP,3peg1bh7bh4xuzsxamnfbz6ha40bkr,3fq5jj512p11isfo4exqre22gwjnkh,sTl7jCSP,2020-0188,2020-06-15,17:02:50,17:21:14,NA,incomplete,211,filling,1,left,Blue_Star_Dots_4.jpg,Red_Circle_Dots_3.jpg,Purple_Star_Grid_2.jpg,left,878.2150000333786,true,high,NA,NA,NA,NA,NA,NA,NA,false
sTl7jCSP,3peg1bh7bh4xuzsxamnfbz6ha40bkr,3fq5jj512p11isfo4exqre22gwjnkh,sTl7jCSP,2020-0188,2020-06-15,17:02:50,17:21:14,NA,incomplete,212,filling,1,left,Blue_Circle_Grid_4.jpg,Red_Star_Grid_1.jpg,Purple_Circle_Dots_3.jpg,left,930.675000010524,true,high,NA,NA,NA,NA,NA,NA,NA,false
sTl7jCSP,3peg1bh7bh4xuzsxamnfbz6ha40bkr,3fq5jj512p11isfo4exqre22gwjnkh,sTl7jCSP,2020-0188,2020-06-15,17:02:50,17:21:14,NA,incomplete,213,filling,1,right,Blue_Circle_Chess_4.jpg,Purple_Circle_Grid_2.jpg,Red_Triangle_Chess_1.jpg,right,791.09499999322,true,high,NA,NA,NA,NA,NA,NA,NA,false
sTl7jCSP,3peg1bh7bh4xuzsxamnfbz6ha40bkr,3fq5jj512p11isfo4exqre22gwjnkh,sTl7jCSP,2020-0188,2020-06-15,17:02:50,17:21:14,NA,incomplete,214,filling,1,left,Purple_Plus_Stripes_3.jpg,Red_Star_Stripes_4.jpg,Green_Plus_Chess_2.jpg,left,719.2650000215508,true,high,NA,NA,NA,NA,NA,NA,NA,false
sTl7jCSP,3peg1bh7bh4xuzsxamnfbz6ha40bkr,3fq5jj512p11isfo4exqre22gwjnkh,sTl7jCSP,2020-0188,2020-06-15,17:02:50,17:21:14,NA,incomplete,215,filling,0,left,Green_Circle_Grid_3.jpg,Purple_Star_Grid_4.jpg,Blue_Circle_Chess_2.jpg,left,923.7150000408292,true,high,NA,NA,NA,NA,NA,NA,NA,false
sTl7jCSP,3peg1bh7bh4xuzsxamnfbz6ha40bkr,3fq5jj512p11isfo4exqre22gwjnkh,sTl7jCSP,2020-0188,2020-06-15,17:02:50,17:21:14,NA,incomplete,216,filling,1,right,Red_Circle_Stripes_4.jpg,Green_Circle_Grid_2.jpg,Blue_Plus_Stripes_1.jpg,right,803.7200000253506,true,high,NA,NA,NA,NA,NA,NA,NA,false
sTl7jCSP,3peg1bh7bh4xuzsxamnfbz6ha40bkr,3fq5jj512p11isfo4exqre22gwjnkh,sTl7jCSP,2020-0188,2020-06-15,17:02:50,17:21:14,NA,incomplete,217,filling,1,right,Purple_Triangle_Grid_4.jpg,Blue_Triangle_Dots_1.jpg,Green_Star_Grid_3.jpg,right,673.7849999917671,true,high,NA,NA,NA,NA,NA,NA,NA,false
sTl7jCSP,3peg1bh7bh4xuzsxamnfbz6ha40bkr,3fq5jj512p11isfo4exqre22gwjnkh,sTl7jCSP,2020-0188,2020-06-15,17:02:50,17:21:14,NA,incomplete,218,filling,0,right,Purple_Circle_Grid_2.jpg,Green_Circle_Chess_1.jpg,Red_Plus_Grid_3.jpg,right,858.6650000070222,true,high,NA,NA,NA,NA,NA,NA,NA,false
sTl7jCSP,3peg1bh7bh4xuzsxamnfbz6ha40bkr,3fq5jj512p11isfo4exqre22gwjnkh,sTl7jCSP,2020-0188,2020-06-15,17:02:50,17:21:14,NA,incomplete,219,filling,1,left,Green_Star_Chess_2.jpg,Purple_Plus_Chess_1.jpg,Blue_Star_Stripes_4.jpg,left,835.0449999561533,true,high,NA,NA,NA,NA,NA,NA,NA,false
sTl7jCSP,3peg1bh7bh4xuzsxamnfbz6ha40bkr,3fq5jj512p11isfo4exqre22gwjnkh,sTl7jCSP,2020-0188,2020-06-15,17:02:50,17:21:14,NA,incomplete,220,shape,1,left,Blue_Star_Chess_3.jpg,Green_Star_Stripes_1.jpg,Purple_Plus_Chess_4.jpg,right,605.31000001356,false,high,NA,NA,NA,NA,NA,NA,NA,false
sTl7jCSP,3peg1bh7bh4xuzsxamnfbz6ha40bkr,3fq5jj512p11isfo4exqre22gwjnkh,sTl7jCSP,2020-0188,2020-06-15,17:02:50,17:21:14,NA,incomplete,221,shape,1,right,Green_Plus_Chess_1.jpg,Blue_Circle_Chess_2.jpg,Purple_Plus_Grid_3.jpg,left,950.345000019297,false,high,NA,NA,NA,NA,NA,NA,NA,false
sTl7jCSP,3peg1bh7bh4xuzsxamnfbz6ha40bkr,3fq5jj512p11isfo4exqre22gwjnkh,sTl7jCSP,2020-0188,2020-06-15,17:02:50,17:21:14,NA,incomplete,222,shape,1,left,Purple_Star_Stripes_3.jpg,Red_Star_Dots_1.jpg,Blue_Circle_Stripes_4.jpg,left,607.4700000463054,true,high,NA,NA,NA,NA,NA,NA,NA,false
sTl7jCSP,3peg1bh7bh4xuzsxamnfbz6ha40bkr,3fq5jj512p11isfo4exqre22gwjnkh,sTl7jCSP,2020-0188,2020-06-15,17:02:50,17:21:14,NA,incomplete,223,shape,1,left,Green_Circle_Stripes_2.jpg,Blue_Circle_Chess_4.jpg,Red_Triangle_Stripes_1.jpg,left,648.2149999937974,true,high,NA,NA,NA,NA,NA,NA,NA,false
sTl7jCSP,3peg1bh7bh4xuzsxamnfbz6ha40bkr,3fq5jj512p11isfo4exqre22gwjnkh,sTl7jCSP,2020-0188,2020-06-15,17:02:50,17:21:14,NA,incomplete,224,shape,1,right,Purple_Circle_Chess_4.jpg,Green_Plus_Chess_2.jpg,Blue_Circle_Stripes_1.jpg,right,882.9849999747239,true,high,NA,NA,NA,NA,NA,NA,NA,false
sTl7jCSP,3peg1bh7bh4xuzsxamnfbz6ha40bkr,3fq5jj512p11isfo4exqre22gwjnkh,sTl7jCSP,2020-0188,2020-06-15,17:02:50,17:21:14,NA,incomplete,225,shape,1,right,Blue_Triangle_Grid_4.jpg,Red_Circle_Grid_1.jpg,Purple_Triangle_Dots_2.jpg,right,830.4500000085682,true,high,NA,NA,NA,NA,NA,NA,NA,false
sTl7jCSP,3peg1bh7bh4xuzsxamnfbz6ha40bkr,3fq5jj512p11isfo4exqre22gwjnkh,sTl7jCSP,2020-0188,2020-06-15,17:02:50,17:21:14,NA,incomplete,226,shape,0,left,Blue_Triangle_Grid_3.jpg,Red_Triangle_Chess_4.jpg,Purple_Circle_Grid_1.jpg,left,692.429999995511,true,high,NA,NA,NA,NA,NA,NA,NA,false
sTl7jCSP,3peg1bh7bh4xuzsxamnfbz6ha40bkr,3fq5jj512p11isfo4exqre22gwjnkh,sTl7jCSP,2020-0188,2020-06-15,17:02:50,17:21:14,NA,incomplete,227,shape,1,right,Green_Plus_Stripes_2.jpg,Red_Star_Stripes_4.jpg,Blue_Plus_Chess_3.jpg,right,1134.7400000086054,true,high,NA,NA,NA,NA,NA,NA,NA,false
sTl7jCSP,3peg1bh7bh4xuzsxamnfbz6ha40bkr,3fq5jj512p11isfo4exqre22gwjnkh,sTl7jCSP,2020-0188,2020-06-15,17:02:50,17:21:14,NA,incomplete,228,shape,1,right,Blue_Triangle_Stripes_1.jpg,Red_Plus_Stripes_3.jpg,Purple_Triangle_Grid_4.jpg,right,644.0300000249408,true,high,NA,NA,NA,NA,NA,NA,NA,false
sTl7jCSP,3peg1bh7bh4xuzsxamnfbz6ha40bkr,3fq5jj512p11isfo4exqre22gwjnkh,sTl7jCSP,2020-0188,2020-06-15,17:02:50,17:21:14,NA,incomplete,229,shape,1,left,Red_Star_Stripes_4.jpg,Blue_Star_Chess_2.jpg,Purple_Triangle_Stripes_3.jpg,left,553.249999997206,true,high,NA,NA,NA,NA,NA,NA,NA,false
sTl7jCSP,3peg1bh7bh4xuzsxamnfbz6ha40bkr,3fq5jj512p11isfo4exqre22gwjnkh,sTl7jCSP,2020-0188,2020-06-15,17:02:50,17:21:14,NA,incomplete,230,shape,1,left,Purple_Circle_Chess_2.jpg,Green_Circle_Stripes_4.jpg,Red_Plus_Chess_1.jpg,left,580.0349999917671,true,high,NA,NA,NA,NA,NA,NA,NA,false
sTl7jCSP,3peg1bh7bh4xuzsxamnfbz6ha40bkr,3fq5jj512p11isfo4exqre22gwjnkh,sTl7jCSP,2020-0188,2020-06-15,17:02:50,17:21:14,NA,incomplete,231,shape,1,right,Green_Plus_Chess_3.jpg,Blue_Star_Chess_2.jpg,Purple_Plus_Stripes_1.jpg,right,648.6400000285357,true,high,NA,NA,NA,NA,NA,NA,NA,false
sTl7jCSP,3peg1bh7bh4xuzsxamnfbz6ha40bkr,3fq5jj512p11isfo4exqre22gwjnkh,sTl7jCSP,2020-0188,2020-06-15,17:02:50,17:21:14,NA,incomplete,232,shape,0,left,Red_Plus_Grid_4.jpg,Purple_Plus_Dots_2.jpg,Blue_Triangle_Grid_1.jpg,left,496.0399999981746,true,high,NA,NA,NA,NA,NA,NA,NA,false
sTl7jCSP,3peg1bh7bh4xuzsxamnfbz6ha40bkr,3fq5jj512p11isfo4exqre22gwjnkh,sTl7jCSP,2020-0188,2020-06-15,17:02:50,17:21:14,NA,incomplete,233,shape,1,left,Green_Star_Grid_3.jpg,Purple_Star_Dots_4.jpg,Blue_Plus_Grid_1.jpg,left,691.9350000098348,true,high,NA,NA,NA,NA,NA,NA,NA,false
sTl7jCSP,3peg1bh7bh4xuzsxamnfbz6ha40bkr,3fq5jj512p11isfo4exqre22gwjnkh,sTl7jCSP,2020-0188,2020-06-15,17:02:50,17:21:14,NA,incomplete,234,shape,1,left,Blue_Star_Chess_2.jpg,Green_Star_Stripes_3.jpg,Red_Plus_Chess_1.jpg,left,545.2550000045449,true,high,NA,NA,NA,NA,NA,NA,NA,false
sTl7jCSP,3peg1bh7bh4xuzsxamnfbz6ha40bkr,3fq5jj512p11isfo4exqre22gwjnkh,sTl7jCSP,2020-0188,2020-06-15,17:02:50,17:21:14,NA,incomplete,235,shape,1,right,Purple_Plus_Stripes_2.jpg,Blue_Triangle_Stripes_4.jpg,Red_Plus_Dots_1.jpg,right,571.4099999750033,true,high,NA,NA,NA,NA,NA,NA,NA,false
sTl7jCSP,3peg1bh7bh4xuzsxamnfbz6ha40bkr,3fq5jj512p11isfo4exqre22gwjnkh,sTl7jCSP,2020-0188,2020-06-15,17:02:50,17:21:14,NA,incomplete,236,shape,1,left,Blue_Triangle_Stripes_2.jpg,Green_Triangle_Dots_1.jpg,Red_Plus_Stripes_3.jpg,left,531.5600000321865,true,high,NA,NA,NA,NA,NA,NA,NA,false
sTl7jCSP,3peg1bh7bh4xuzsxamnfbz6ha40bkr,3fq5jj512p11isfo4exqre22gwjnkh,sTl7jCSP,2020-0188,2020-06-15,17:02:50,17:21:14,NA,incomplete,237,shape,1,left,Green_Circle_Grid_4.jpg,Red_Circle_Chess_3.jpg,Purple_Plus_Grid_1.jpg,left,455.759999982547,true,high,NA,NA,NA,NA,NA,NA,NA,false
sTl7jCSP,3peg1bh7bh4xuzsxamnfbz6ha40bkr,3fq5jj512p11isfo4exqre22gwjnkh,sTl7jCSP,2020-0188,2020-06-15,17:02:50,17:21:14,NA,incomplete,238,shape,1,left,Green_Circle_Grid_4.jpg,Blue_Circle_Chess_1.jpg,Red_Triangle_Grid_3.jpg,left,457.2299999999814,true,high,NA,NA,NA,NA,NA,NA,NA,false
sTl7jCSP,3peg1bh7bh4xuzsxamnfbz6ha40bkr,3fq5jj512p11isfo4exqre22gwjnkh,sTl7jCSP,2020-0188,2020-06-15,17:02:50,17:21:14,NA,incomplete,239,shape,1,left,Blue_Circle_Chess_2.jpg,Red_Circle_Dots_3.jpg,Purple_Star_Chess_4.jpg,left,438.3149999775924,true,high,NA,NA,NA,NA,NA,NA,NA,false
sTl7jCSP,3peg1bh7bh4xuzsxamnfbz6ha40bkr,3fq5jj512p11isfo4exqre22gwjnkh,sTl7jCSP,2020-0188,2020-06-15,17:02:50,17:21:14,NA,NA,instruction example,color,NA,NA,Green_Plus_Stripes_3.jpg,Green_Circle_Grid_1.jpg,Red_Star_Chess_3.jpg,NA,NA,NA,NA,NA,NA,NA,NA,NA,NA,NA,undefined
sTl7jCSP,3peg1bh7bh4xuzsxamnfbz6ha40bkr,3fq5jj512p11isfo4exqre22gwjnkh,sTl7jCSP,2020-0188,2020-06-15,17:02:50,17:21:14,NA,NA,instruction example,color,NA,NA,Red_Triangle_Dots_3.jpg,Purple_Star_Chess_3.jpg,Red_Plus_Grid_1.jpg,NA,NA,NA,NA,NA,NA,NA,NA,NA,NA,NA,undefined
sTl7jCSP,3peg1bh7bh4xuzsxamnfbz6ha40bkr,3fq5jj512p11isfo4exqre22gwjnkh,sTl7jCSP,2020-0188,2020-06-15,17:02:50,17:21:14,NA,NA,instruction example,color,NA,NA,Red_Circle_Stripes_3.jpg,Purple_Plus_Stripes_4.jpg,Blue_Circle_Dots_2.jpg,NA,NA,NA,NA,NA,NA,NA,NA,NA,NA,NA,undefined
sTl7jCSP,3peg1bh7bh4xuzsxamnfbz6ha40bkr,3fq5jj512p11isfo4exqre22gwjnkh,sTl7jCSP,2020-0188,2020-06-15,17:02:50,17:21:14,NA,NA,instruction example,color,NA,NA,Purple_Star_Chess_2.jpg,Red_Star_Stripes_1.jpg,Blue_Triangle_Chess_4.jpg,NA,NA,NA,NA,NA,NA,NA,NA,NA,NA,NA,undefined
sTl7jCSP,3peg1bh7bh4xuzsxamnfbz6ha40bkr,3fq5jj512p11isfo4exqre22gwjnkh,sTl7jCSP,2020-0188,2020-06-15,17:02:50,17:21:14,1082768.8949999865,1104004.7050000285,NA,NA,NA,NA,NA,NA,NA,NA,NA,NA,NA,31,White/Caucasian,Female,White,no,yes,no,undefined
