workerId,hitId,assignmentId,subject,studyid,exp_date,exp_start,exp_end,time_start,time_end,trial,type,reward_validity,answer,image_top,image_left,image_right,response,response_time,response_acc,volatility,age,race,gender,ethnicity,color,vision,neuro,practice
K7eEBB95,3axfspqoztbswwyvx39ztaxp9nrfjw,3ftop5warj13mchzlnvgfn6cphmj0j,K7eEBB95,2020-0188,2020-05-21,13:21:39,13:52:26,NA,incomplete,0,filling,1,left,Blue_Circle_Grid_2.jpg,Purple_Triangle_Grid_4.jpg,Green_Plus_Dots_2.jpg,right,699.5000001043081,false,NA,NA,NA,NA,NA,NA,NA,NA,true
K7eEBB95,3axfspqoztbswwyvx39ztaxp9nrfjw,3ftop5warj13mchzlnvgfn6cphmj0j,K7eEBB95,2020-0188,2020-05-21,13:21:39,13:52:26,NA,incomplete,1,filling,0,right,Purple_Triangle_Grid_3.jpg,Blue_Star_Stripes_3.jpg,Green_Circle_Grid_4.jpg,right,660.135000012815,true,NA,NA,NA,NA,NA,NA,NA,NA,true
K7eEBB95,3axfspqoztbswwyvx39ztaxp9nrfjw,3ftop5warj13mchzlnvgfn6cphmj0j,K7eEBB95,2020-0188,2020-05-21,13:21:39,13:52:26,NA,incomplete,2,filling,1,right,Blue_Star_Chess_1.jpg,Purple_Plus_Stripes_1.jpg,Green_Triangle_Chess_2.jpg,right,734.0449998155236,true,NA,NA,NA,NA,NA,NA,NA,NA,true
K7eEBB95,3axfspqoztbswwyvx39ztaxp9nrfjw,3ftop5warj13mchzlnvgfn6cphmj0j,K7eEBB95,2020-0188,2020-05-21,13:21:39,13:52:26,NA,incomplete,3,filling,1,right,Purple_Star_Grid_3.jpg,Red_Circle_Chess_3.jpg,Blue_Plus_Grid_2.jpg,right,764.9300000630319,true,NA,NA,NA,NA,NA,NA,NA,NA,true
K7eEBB95,3axfspqoztbswwyvx39ztaxp9nrfjw,3ftop5warj13mchzlnvgfn6cphmj0j,K7eEBB95,2020-0188,2020-05-21,13:21:39,13:52:26,NA,incomplete,4,filling,1,right,Green_Triangle_Stripes_2.jpg,Blue_Plus_Chess_2.jpg,Red_Star_Stripes_3.jpg,right,635.5049996636808,true,NA,NA,NA,NA,NA,NA,NA,NA,true
K7eEBB95,3axfspqoztbswwyvx39ztaxp9nrfjw,3ftop5warj13mchzlnvgfn6cphmj0j,K7eEBB95,2020-0188,2020-05-21,13:21:39,13:52:26,NA,incomplete,5,filling,1,right,Green_Star_Chess_4.jpg,Purple_Circle_Stripes_4.jpg,Blue_Plus_Chess_3.jpg,right,733.3500003442168,true,NA,NA,NA,NA,NA,NA,NA,NA,true
K7eEBB95,3axfspqoztbswwyvx39ztaxp9nrfjw,3ftop5warj13mchzlnvgfn6cphmj0j,K7eEBB95,2020-0188,2020-05-21,13:21:39,13:52:26,NA,incomplete,6,filling,1,right,Blue_Star_Stripes_1.jpg,Green_Triangle_Grid_1.jpg,Purple_Plus_Stripes_3.jpg,right,820.69499976933,true,NA,NA,NA,NA,NA,NA,NA,NA,true
K7eEBB95,3axfspqoztbswwyvx39ztaxp9nrfjw,3ftop5warj13mchzlnvgfn6cphmj0j,K7eEBB95,2020-0188,2020-05-21,13:21:39,13:52:26,NA,incomplete,7,filling,0,right,Blue_Star_Grid_1.jpg,Purple_Plus_Stripes_1.jpg,Green_Circle_Grid_3.jpg,right,664.1600001603365,true,NA,NA,NA,NA,NA,NA,NA,NA,true
K7eEBB95,3axfspqoztbswwyvx39ztaxp9nrfjw,3ftop5warj13mchzlnvgfn6cphmj0j,K7eEBB95,2020-0188,2020-05-21,13:21:39,13:52:26,NA,incomplete,8,filling,1,left,Red_Star_Dots_2.jpg,Green_Triangle_Dots_4.jpg,Purple_Circle_Stripes_2.jpg,left,682.0550002157688,true,NA,NA,NA,NA,NA,NA,NA,NA,true
K7eEBB95,3axfspqoztbswwyvx39ztaxp9nrfjw,3ftop5warj13mchzlnvgfn6cphmj0j,K7eEBB95,2020-0188,2020-05-21,13:21:39,13:52:26,NA,incomplete,9,filling,1,left,Green_Star_Grid_3.jpg,Purple_Plus_Grid_4.jpg,Blue_Triangle_Dots_3.jpg,left,860.1950001902878,true,NA,NA,NA,NA,NA,NA,NA,NA,true
K7eEBB95,3axfspqoztbswwyvx39ztaxp9nrfjw,3ftop5warj13mchzlnvgfn6cphmj0j,K7eEBB95,2020-0188,2020-05-21,13:21:39,13:52:26,NA,incomplete,10,filling,1,right,Blue_Circle_Grid_4.jpg,Red_Triangle_Dots_4.jpg,Green_Star_Grid_3.jpg,right,629.5799999497831,true,NA,NA,NA,NA,NA,NA,NA,NA,true
K7eEBB95,3axfspqoztbswwyvx39ztaxp9nrfjw,3ftop5warj13mchzlnvgfn6cphmj0j,K7eEBB95,2020-0188,2020-05-21,13:21:39,13:52:26,NA,incomplete,11,filling,1,right,Purple_Star_Grid_3.jpg,Red_Plus_Dots_3.jpg,Blue_Circle_Grid_2.jpg,right,656.870000064373,true,NA,NA,NA,NA,NA,NA,NA,NA,true
K7eEBB95,3axfspqoztbswwyvx39ztaxp9nrfjw,3ftop5warj13mchzlnvgfn6cphmj0j,K7eEBB95,2020-0188,2020-05-21,13:21:39,13:52:26,NA,incomplete,12,filling,1,right,Green_Plus_Dots_3.jpg,Blue_Circle_Grid_3.jpg,Red_Triangle_Dots_4.jpg,right,658.9500000700355,true,NA,NA,NA,NA,NA,NA,NA,NA,true
K7eEBB95,3axfspqoztbswwyvx39ztaxp9nrfjw,3ftop5warj13mchzlnvgfn6cphmj0j,K7eEBB95,2020-0188,2020-05-21,13:21:39,13:52:26,NA,incomplete,13,filling,1,right,Blue_Triangle_Chess_3.jpg,Green_Plus_Grid_3.jpg,Red_Circle_Chess_4.jpg,right,548.9450003951788,true,NA,NA,NA,NA,NA,NA,NA,NA,true
K7eEBB95,3axfspqoztbswwyvx39ztaxp9nrfjw,3ftop5warj13mchzlnvgfn6cphmj0j,K7eEBB95,2020-0188,2020-05-21,13:21:39,13:52:26,NA,incomplete,14,filling,1,right,Green_Circle_Dots_2.jpg,Purple_Star_Chess_2.jpg,Red_Plus_Dots_1.jpg,right,628.5299998708069,true,NA,NA,NA,NA,NA,NA,NA,NA,true
K7eEBB95,3axfspqoztbswwyvx39ztaxp9nrfjw,3ftop5warj13mchzlnvgfn6cphmj0j,K7eEBB95,2020-0188,2020-05-21,13:21:39,13:52:26,NA,incomplete,15,filling,0,left,Purple_Triangle_Dots_2.jpg,Red_Plus_Dots_4.jpg,Blue_Star_Chess_2.jpg,left,566.9400002807379,true,NA,NA,NA,NA,NA,NA,NA,NA,true
K7eEBB95,3axfspqoztbswwyvx39ztaxp9nrfjw,3ftop5warj13mchzlnvgfn6cphmj0j,K7eEBB95,2020-0188,2020-05-21,13:21:39,13:52:26,NA,incomplete,16,filling,1,left,Red_Star_Dots_4.jpg,Blue_Triangle_Dots_2.jpg,Purple_Plus_Stripes_4.jpg,left,548.1050000526011,true,NA,NA,NA,NA,NA,NA,NA,NA,true
K7eEBB95,3axfspqoztbswwyvx39ztaxp9nrfjw,3ftop5warj13mchzlnvgfn6cphmj0j,K7eEBB95,2020-0188,2020-05-21,13:21:39,13:52:26,NA,incomplete,17,filling,1,left,Blue_Star_Stripes_4.jpg,Red_Triangle_Stripes_3.jpg,Purple_Circle_Chess_4.jpg,right,930.9149999171495,false,NA,NA,NA,NA,NA,NA,NA,NA,true
K7eEBB95,3axfspqoztbswwyvx39ztaxp9nrfjw,3ftop5warj13mchzlnvgfn6cphmj0j,K7eEBB95,2020-0188,2020-05-21,13:21:39,13:52:26,NA,incomplete,18,filling,1,right,Purple_Star_Chess_4.jpg,Blue_Triangle_Grid_4.jpg,Red_Plus_Chess_3.jpg,right,650.265000294894,true,NA,NA,NA,NA,NA,NA,NA,NA,true
K7eEBB95,3axfspqoztbswwyvx39ztaxp9nrfjw,3ftop5warj13mchzlnvgfn6cphmj0j,K7eEBB95,2020-0188,2020-05-21,13:21:39,13:52:26,NA,incomplete,19,filling,0,left,Purple_Star_Grid_3.jpg,Red_Circle_Grid_4.jpg,Green_Triangle_Chess_3.jpg,left,756.8450001999736,true,NA,NA,NA,NA,NA,NA,NA,NA,true
K7eEBB95,3axfspqoztbswwyvx39ztaxp9nrfjw,3ftop5warj13mchzlnvgfn6cphmj0j,K7eEBB95,2020-0188,2020-05-21,13:21:39,13:52:26,NA,incomplete,20,number,1,left,Red_Circle_Chess_4.jpg,Green_Star_Stripes_4.jpg,Purple_Plus_Chess_2.jpg,right,594.3749998696148,false,NA,NA,NA,NA,NA,NA,NA,NA,true
K7eEBB95,3axfspqoztbswwyvx39ztaxp9nrfjw,3ftop5warj13mchzlnvgfn6cphmj0j,K7eEBB95,2020-0188,2020-05-21,13:21:39,13:52:26,NA,incomplete,21,number,1,left,Green_Plus_Stripes_4.jpg,Purple_Circle_Dots_4.jpg,Blue_Triangle_Stripes_1.jpg,left,766.8749997392297,true,NA,NA,NA,NA,NA,NA,NA,NA,true
K7eEBB95,3axfspqoztbswwyvx39ztaxp9nrfjw,3ftop5warj13mchzlnvgfn6cphmj0j,K7eEBB95,2020-0188,2020-05-21,13:21:39,13:52:26,NA,incomplete,22,number,1,left,Purple_Triangle_Stripes_3.jpg,Red_Plus_Dots_3.jpg,Blue_Star_Stripes_2.jpg,left,628.2200003042817,true,NA,NA,NA,NA,NA,NA,NA,NA,true
K7eEBB95,3axfspqoztbswwyvx39ztaxp9nrfjw,3ftop5warj13mchzlnvgfn6cphmj0j,K7eEBB95,2020-0188,2020-05-21,13:21:39,13:52:26,NA,incomplete,23,number,1,right,Green_Plus_Grid_4.jpg,Blue_Circle_Grid_1.jpg,Purple_Triangle_Stripes_4.jpg,right,847.3900002427399,true,NA,NA,NA,NA,NA,NA,NA,NA,true
K7eEBB95,3axfspqoztbswwyvx39ztaxp9nrfjw,3ftop5warj13mchzlnvgfn6cphmj0j,K7eEBB95,2020-0188,2020-05-21,13:21:39,13:52:26,NA,incomplete,24,number,0,left,Purple_Plus_Chess_2.jpg,Green_Star_Grid_2.jpg,Red_Triangle_Chess_3.jpg,left,570.985000114888,true,NA,NA,NA,NA,NA,NA,NA,NA,true
K7eEBB95,3axfspqoztbswwyvx39ztaxp9nrfjw,3ftop5warj13mchzlnvgfn6cphmj0j,K7eEBB95,2020-0188,2020-05-21,13:21:39,13:52:26,NA,incomplete,25,number,1,right,Purple_Star_Stripes_2.jpg,Blue_Triangle_Stripes_1.jpg,Red_Circle_Dots_2.jpg,right,543.535000178963,true,NA,NA,NA,NA,NA,NA,NA,NA,true
K7eEBB95,3axfspqoztbswwyvx39ztaxp9nrfjw,3ftop5warj13mchzlnvgfn6cphmj0j,K7eEBB95,2020-0188,2020-05-21,13:21:39,13:52:26,NA,incomplete,26,number,1,left,Blue_Circle_Dots_3.jpg,Purple_Star_Stripes_3.jpg,Red_Plus_Dots_2.jpg,left,534.1599998064339,true,NA,NA,NA,NA,NA,NA,NA,NA,true
K7eEBB95,3axfspqoztbswwyvx39ztaxp9nrfjw,3ftop5warj13mchzlnvgfn6cphmj0j,K7eEBB95,2020-0188,2020-05-21,13:21:39,13:52:26,NA,incomplete,27,number,1,right,Purple_Circle_Dots_1.jpg,Blue_Triangle_Dots_4.jpg,Red_Star_Stripes_1.jpg,right,492.9550001397729,true,NA,NA,NA,NA,NA,NA,NA,NA,true
K7eEBB95,3axfspqoztbswwyvx39ztaxp9nrfjw,3ftop5warj13mchzlnvgfn6cphmj0j,K7eEBB95,2020-0188,2020-05-21,13:21:39,13:52:26,NA,incomplete,28,number,1,left,Red_Plus_Dots_4.jpg,Blue_Triangle_Stripes_4.jpg,Purple_Circle_Dots_2.jpg,left,501.6999999061227,true,NA,NA,NA,NA,NA,NA,NA,NA,true
K7eEBB95,3axfspqoztbswwyvx39ztaxp9nrfjw,3ftop5warj13mchzlnvgfn6cphmj0j,K7eEBB95,2020-0188,2020-05-21,13:21:39,13:52:26,NA,incomplete,29,number,1,right,Blue_Plus_Dots_2.jpg,Red_Circle_Dots_3.jpg,Purple_Star_Stripes_2.jpg,right,502.3449999280274,true,NA,NA,NA,NA,NA,NA,NA,NA,true
K7eEBB95,3axfspqoztbswwyvx39ztaxp9nrfjw,3ftop5warj13mchzlnvgfn6cphmj0j,K7eEBB95,2020-0188,2020-05-21,13:21:39,13:52:26,NA,incomplete,30,number,0,left,Blue_Circle_Chess_3.jpg,Purple_Star_Stripes_3.jpg,Green_Triangle_Chess_2.jpg,left,477.5600000284612,true,NA,NA,NA,NA,NA,NA,NA,NA,true
K7eEBB95,3axfspqoztbswwyvx39ztaxp9nrfjw,3ftop5warj13mchzlnvgfn6cphmj0j,K7eEBB95,2020-0188,2020-05-21,13:21:39,13:52:26,NA,incomplete,31,number,1,right,Blue_Star_Grid_1.jpg,Red_Plus_Grid_4.jpg,Purple_Triangle_Chess_1.jpg,right,470.9850000217557,true,NA,NA,NA,NA,NA,NA,NA,NA,true
K7eEBB95,3axfspqoztbswwyvx39ztaxp9nrfjw,3ftop5warj13mchzlnvgfn6cphmj0j,K7eEBB95,2020-0188,2020-05-21,13:21:39,13:52:26,NA,incomplete,32,number,1,right,Green_Triangle_Stripes_1.jpg,Purple_Plus_Stripes_4.jpg,Blue_Circle_Dots_1.jpg,right,488.33000008016825,true,NA,NA,NA,NA,NA,NA,NA,NA,true
K7eEBB95,3axfspqoztbswwyvx39ztaxp9nrfjw,3ftop5warj13mchzlnvgfn6cphmj0j,K7eEBB95,2020-0188,2020-05-21,13:21:39,13:52:26,NA,incomplete,33,number,1,right,Green_Star_Chess_3.jpg,Purple_Circle_Chess_2.jpg,Red_Triangle_Grid_3.jpg,right,528.9199999533594,true,NA,NA,NA,NA,NA,NA,NA,NA,true
K7eEBB95,3axfspqoztbswwyvx39ztaxp9nrfjw,3ftop5warj13mchzlnvgfn6cphmj0j,K7eEBB95,2020-0188,2020-05-21,13:21:39,13:52:26,NA,incomplete,34,number,0,left,Red_Plus_Grid_2.jpg,Purple_Star_Dots_2.jpg,Green_Triangle_Grid_1.jpg,left,552.3599996231496,true,NA,NA,NA,NA,NA,NA,NA,NA,true
K7eEBB95,3axfspqoztbswwyvx39ztaxp9nrfjw,3ftop5warj13mchzlnvgfn6cphmj0j,K7eEBB95,2020-0188,2020-05-21,13:21:39,13:52:26,NA,incomplete,35,number,0,right,Purple_Plus_Chess_2.jpg,Green_Circle_Chess_1.jpg,Red_Star_Dots_2.jpg,right,518.9700000919402,true,NA,NA,NA,NA,NA,NA,NA,NA,true
K7eEBB95,3axfspqoztbswwyvx39ztaxp9nrfjw,3ftop5warj13mchzlnvgfn6cphmj0j,K7eEBB95,2020-0188,2020-05-21,13:21:39,13:52:26,NA,incomplete,36,number,1,right,Blue_Circle_Chess_1.jpg,Red_Star_Chess_2.jpg,Green_Plus_Dots_1.jpg,left,597.6800001226366,false,NA,NA,NA,NA,NA,NA,NA,NA,true
K7eEBB95,3axfspqoztbswwyvx39ztaxp9nrfjw,3ftop5warj13mchzlnvgfn6cphmj0j,K7eEBB95,2020-0188,2020-05-21,13:21:39,13:52:26,NA,incomplete,37,number,1,right,Purple_Triangle_Chess_2.jpg,Blue_Star_Chess_3.jpg,Green_Plus_Stripes_2.jpg,right,754.2949998751283,true,NA,NA,NA,NA,NA,NA,NA,NA,true
K7eEBB95,3axfspqoztbswwyvx39ztaxp9nrfjw,3ftop5warj13mchzlnvgfn6cphmj0j,K7eEBB95,2020-0188,2020-05-21,13:21:39,13:52:26,NA,incomplete,38,number,1,right,Red_Triangle_Stripes_1.jpg,Green_Circle_Stripes_3.jpg,Purple_Star_Grid_1.jpg,right,560.5350001715124,true,NA,NA,NA,NA,NA,NA,NA,NA,true
K7eEBB95,3axfspqoztbswwyvx39ztaxp9nrfjw,3ftop5warj13mchzlnvgfn6cphmj0j,K7eEBB95,2020-0188,2020-05-21,13:21:39,13:52:26,NA,incomplete,39,number,1,left,Red_Star_Chess_4.jpg,Blue_Plus_Dots_4.jpg,Green_Triangle_Chess_3.jpg,left,718.3550000190735,true,NA,NA,NA,NA,NA,NA,NA,NA,true
K7eEBB95,3axfspqoztbswwyvx39ztaxp9nrfjw,3ftop5warj13mchzlnvgfn6cphmj0j,K7eEBB95,2020-0188,2020-05-21,13:21:39,13:52:26,NA,incomplete,0,filling,0,right,Purple_Triangle_Stripes_4.jpg,Blue_Circle_Dots_4.jpg,Red_Plus_Stripes_3.jpg,right,644.4000001065433,true,high,NA,NA,NA,NA,NA,NA,NA,false
K7eEBB95,3axfspqoztbswwyvx39ztaxp9nrfjw,3ftop5warj13mchzlnvgfn6cphmj0j,K7eEBB95,2020-0188,2020-05-21,13:21:39,13:52:26,NA,incomplete,1,filling,1,left,Red_Star_Grid_2.jpg,Green_Triangle_Grid_1.jpg,Purple_Circle_Chess_2.jpg,right,695.0850002467632,false,high,NA,NA,NA,NA,NA,NA,NA,false
K7eEBB95,3axfspqoztbswwyvx39ztaxp9nrfjw,3ftop5warj13mchzlnvgfn6cphmj0j,K7eEBB95,2020-0188,2020-05-21,13:21:39,13:52:26,NA,incomplete,2,filling,0,left,Blue_Star_Chess_1.jpg,Purple_Circle_Chess_2.jpg,Green_Triangle_Stripes_1.jpg,right,879.8099998384714,false,high,NA,NA,NA,NA,NA,NA,NA,false
K7eEBB95,3axfspqoztbswwyvx39ztaxp9nrfjw,3ftop5warj13mchzlnvgfn6cphmj0j,K7eEBB95,2020-0188,2020-05-21,13:21:39,13:52:26,NA,incomplete,3,filling,1,left,Purple_Plus_Grid_2.jpg,Blue_Star_Grid_4.jpg,Green_Triangle_Chess_2.jpg,right,969.1049996763468,false,high,NA,NA,NA,NA,NA,NA,NA,false
K7eEBB95,3axfspqoztbswwyvx39ztaxp9nrfjw,3ftop5warj13mchzlnvgfn6cphmj0j,K7eEBB95,2020-0188,2020-05-21,13:21:39,13:52:26,NA,incomplete,4,filling,1,left,Blue_Circle_Grid_4.jpg,Green_Plus_Grid_3.jpg,Purple_Star_Chess_4.jpg,right,911.1500000581145,false,high,NA,NA,NA,NA,NA,NA,NA,false
K7eEBB95,3axfspqoztbswwyvx39ztaxp9nrfjw,3ftop5warj13mchzlnvgfn6cphmj0j,K7eEBB95,2020-0188,2020-05-21,13:21:39,13:52:26,NA,incomplete,5,filling,1,left,Green_Triangle_Chess_2.jpg,Purple_Circle_Chess_4.jpg,Blue_Plus_Stripes_2.jpg,left,718.570000026375,true,high,NA,NA,NA,NA,NA,NA,NA,false
K7eEBB95,3axfspqoztbswwyvx39ztaxp9nrfjw,3ftop5warj13mchzlnvgfn6cphmj0j,K7eEBB95,2020-0188,2020-05-21,13:21:39,13:52:26,NA,incomplete,6,filling,1,left,Purple_Circle_Dots_1.jpg,Red_Star_Dots_2.jpg,Green_Triangle_Chess_1.jpg,right,758.909999858588,false,high,NA,NA,NA,NA,NA,NA,NA,false
K7eEBB95,3axfspqoztbswwyvx39ztaxp9nrfjw,3ftop5warj13mchzlnvgfn6cphmj0j,K7eEBB95,2020-0188,2020-05-21,13:21:39,13:52:26,NA,incomplete,7,filling,1,left,Green_Triangle_Grid_3.jpg,Blue_Plus_Grid_1.jpg,Purple_Star_Chess_3.jpg,right,675.8099999278784,false,high,NA,NA,NA,NA,NA,NA,NA,false
K7eEBB95,3axfspqoztbswwyvx39ztaxp9nrfjw,3ftop5warj13mchzlnvgfn6cphmj0j,K7eEBB95,2020-0188,2020-05-21,13:21:39,13:52:26,NA,incomplete,8,filling,1,right,Green_Star_Chess_3.jpg,Purple_Plus_Grid_3.jpg,Red_Circle_Chess_2.jpg,right,749.2449996061623,true,high,NA,NA,NA,NA,NA,NA,NA,false
K7eEBB95,3axfspqoztbswwyvx39ztaxp9nrfjw,3ftop5warj13mchzlnvgfn6cphmj0j,K7eEBB95,2020-0188,2020-05-21,13:21:39,13:52:26,NA,incomplete,9,filling,1,right,Blue_Circle_Grid_4.jpg,Red_Triangle_Stripes_4.jpg,Purple_Star_Grid_1.jpg,right,796.5750000439584,true,high,NA,NA,NA,NA,NA,NA,NA,false
K7eEBB95,3axfspqoztbswwyvx39ztaxp9nrfjw,3ftop5warj13mchzlnvgfn6cphmj0j,K7eEBB95,2020-0188,2020-05-21,13:21:39,13:52:26,NA,incomplete,10,number,0,right,Green_Star_Grid_1.jpg,Blue_Circle_Grid_4.jpg,Purple_Triangle_Stripes_1.jpg,left,760.5050001293421,false,high,NA,NA,NA,NA,NA,NA,NA,false
K7eEBB95,3axfspqoztbswwyvx39ztaxp9nrfjw,3ftop5warj13mchzlnvgfn6cphmj0j,K7eEBB95,2020-0188,2020-05-21,13:21:39,13:52:26,NA,incomplete,11,number,1,left,Green_Circle_Dots_2.jpg,Purple_Star_Grid_2.jpg,Red_Triangle_Dots_1.jpg,right,590.680000372231,false,high,NA,NA,NA,NA,NA,NA,NA,false
K7eEBB95,3axfspqoztbswwyvx39ztaxp9nrfjw,3ftop5warj13mchzlnvgfn6cphmj0j,K7eEBB95,2020-0188,2020-05-21,13:21:39,13:52:26,NA,incomplete,12,number,1,right,Green_Plus_Stripes_3.jpg,Blue_Star_Stripes_4.jpg,Purple_Circle_Chess_3.jpg,right,715.2250004000962,true,high,NA,NA,NA,NA,NA,NA,NA,false
K7eEBB95,3axfspqoztbswwyvx39ztaxp9nrfjw,3ftop5warj13mchzlnvgfn6cphmj0j,K7eEBB95,2020-0188,2020-05-21,13:21:39,13:52:26,NA,incomplete,13,number,1,right,Red_Triangle_Stripes_1.jpg,Purple_Circle_Stripes_3.jpg,Blue_Plus_Grid_1.jpg,right,619.2499999888241,true,high,NA,NA,NA,NA,NA,NA,NA,false
K7eEBB95,3axfspqoztbswwyvx39ztaxp9nrfjw,3ftop5warj13mchzlnvgfn6cphmj0j,K7eEBB95,2020-0188,2020-05-21,13:21:39,13:52:26,NA,incomplete,14,number,0,right,Green_Plus_Grid_2.jpg,Purple_Star_Grid_1.jpg,Blue_Circle_Chess_2.jpg,right,711.260000243783,true,high,NA,NA,NA,NA,NA,NA,NA,false
K7eEBB95,3axfspqoztbswwyvx39ztaxp9nrfjw,3ftop5warj13mchzlnvgfn6cphmj0j,K7eEBB95,2020-0188,2020-05-21,13:21:39,13:52:26,NA,incomplete,15,number,1,left,Red_Triangle_Grid_3.jpg,Green_Circle_Stripes_3.jpg,Blue_Plus_Grid_1.jpg,left,558.5399996489286,true,high,NA,NA,NA,NA,NA,NA,NA,false
K7eEBB95,3axfspqoztbswwyvx39ztaxp9nrfjw,3ftop5warj13mchzlnvgfn6cphmj0j,K7eEBB95,2020-0188,2020-05-21,13:21:39,13:52:26,NA,incomplete,16,number,1,left,Purple_Triangle_Dots_2.jpg,Blue_Plus_Grid_2.jpg,Green_Circle_Dots_3.jpg,left,612.5699998810887,true,high,NA,NA,NA,NA,NA,NA,NA,false
K7eEBB95,3axfspqoztbswwyvx39ztaxp9nrfjw,3ftop5warj13mchzlnvgfn6cphmj0j,K7eEBB95,2020-0188,2020-05-21,13:21:39,13:52:26,NA,incomplete,17,number,1,right,Blue_Circle_Grid_2.jpg,Green_Plus_Grid_1.jpg,Red_Triangle_Dots_2.jpg,right,560.5699997395277,true,high,NA,NA,NA,NA,NA,NA,NA,false
K7eEBB95,3axfspqoztbswwyvx39ztaxp9nrfjw,3ftop5warj13mchzlnvgfn6cphmj0j,K7eEBB95,2020-0188,2020-05-21,13:21:39,13:52:26,NA,incomplete,18,number,1,right,Purple_Plus_Chess_4.jpg,Blue_Star_Chess_1.jpg,Red_Triangle_Grid_4.jpg,right,534.3799996189773,true,high,NA,NA,NA,NA,NA,NA,NA,false
K7eEBB95,3axfspqoztbswwyvx39ztaxp9nrfjw,3ftop5warj13mchzlnvgfn6cphmj0j,K7eEBB95,2020-0188,2020-05-21,13:21:39,13:52:26,NA,incomplete,19,number,1,right,Red_Plus_Stripes_3.jpg,Blue_Circle_Stripes_2.jpg,Green_Triangle_Dots_3.jpg,right,557.8049998730421,true,high,NA,NA,NA,NA,NA,NA,NA,false
K7eEBB95,3axfspqoztbswwyvx39ztaxp9nrfjw,3ftop5warj13mchzlnvgfn6cphmj0j,K7eEBB95,2020-0188,2020-05-21,13:21:39,13:52:26,NA,incomplete,20,filling,1,right,Red_Triangle_Stripes_1.jpg,Blue_Star_Dots_1.jpg,Purple_Circle_Stripes_2.jpg,left,587.2100000269711,false,high,NA,NA,NA,NA,NA,NA,NA,false
K7eEBB95,3axfspqoztbswwyvx39ztaxp9nrfjw,3ftop5warj13mchzlnvgfn6cphmj0j,K7eEBB95,2020-0188,2020-05-21,13:21:39,13:52:26,NA,incomplete,21,filling,1,left,Green_Plus_Chess_3.jpg,Purple_Triangle_Chess_1.jpg,Red_Circle_Grid_3.jpg,right,527.910000178963,false,high,NA,NA,NA,NA,NA,NA,NA,false
K7eEBB95,3axfspqoztbswwyvx39ztaxp9nrfjw,3ftop5warj13mchzlnvgfn6cphmj0j,K7eEBB95,2020-0188,2020-05-21,13:21:39,13:52:26,NA,incomplete,22,filling,1,left,Red_Plus_Stripes_1.jpg,Blue_Circle_Stripes_3.jpg,Green_Star_Grid_1.jpg,left,711.3000000827014,true,high,NA,NA,NA,NA,NA,NA,NA,false
K7eEBB95,3axfspqoztbswwyvx39ztaxp9nrfjw,3ftop5warj13mchzlnvgfn6cphmj0j,K7eEBB95,2020-0188,2020-05-21,13:21:39,13:52:26,NA,incomplete,23,filling,1,left,Purple_Triangle_Stripes_1.jpg,Green_Plus_Stripes_4.jpg,Red_Circle_Grid_1.jpg,right,799.365000333637,false,high,NA,NA,NA,NA,NA,NA,NA,false
K7eEBB95,3axfspqoztbswwyvx39ztaxp9nrfjw,3ftop5warj13mchzlnvgfn6cphmj0j,K7eEBB95,2020-0188,2020-05-21,13:21:39,13:52:26,NA,incomplete,24,filling,1,left,Green_Star_Grid_3.jpg,Blue_Triangle_Grid_4.jpg,Red_Plus_Stripes_3.jpg,left,757.0199999026954,true,high,NA,NA,NA,NA,NA,NA,NA,false
K7eEBB95,3axfspqoztbswwyvx39ztaxp9nrfjw,3ftop5warj13mchzlnvgfn6cphmj0j,K7eEBB95,2020-0188,2020-05-21,13:21:39,13:52:26,NA,incomplete,25,filling,1,right,Green_Triangle_Stripes_3.jpg,Purple_Circle_Dots_3.jpg,Red_Star_Stripes_2.jpg,right,601.9250000827014,true,high,NA,NA,NA,NA,NA,NA,NA,false
K7eEBB95,3axfspqoztbswwyvx39ztaxp9nrfjw,3ftop5warj13mchzlnvgfn6cphmj0j,K7eEBB95,2020-0188,2020-05-21,13:21:39,13:52:26,NA,incomplete,26,filling,1,right,Green_Triangle_Chess_1.jpg,Red_Plus_Grid_1.jpg,Blue_Circle_Chess_2.jpg,right,733.9850002899766,true,high,NA,NA,NA,NA,NA,NA,NA,false
K7eEBB95,3axfspqoztbswwyvx39ztaxp9nrfjw,3ftop5warj13mchzlnvgfn6cphmj0j,K7eEBB95,2020-0188,2020-05-21,13:21:39,13:52:26,NA,incomplete,27,filling,1,right,Red_Star_Dots_1.jpg,Purple_Triangle_Grid_1.jpg,Blue_Circle_Dots_3.jpg,right,860.7900002971292,true,high,NA,NA,NA,NA,NA,NA,NA,false
K7eEBB95,3axfspqoztbswwyvx39ztaxp9nrfjw,3ftop5warj13mchzlnvgfn6cphmj0j,K7eEBB95,2020-0188,2020-05-21,13:21:39,13:52:26,NA,incomplete,28,filling,1,left,Purple_Plus_Chess_3.jpg,Blue_Circle_Chess_1.jpg,Red_Triangle_Grid_3.jpg,left,654.6950000338256,true,high,NA,NA,NA,NA,NA,NA,NA,false
K7eEBB95,3axfspqoztbswwyvx39ztaxp9nrfjw,3ftop5warj13mchzlnvgfn6cphmj0j,K7eEBB95,2020-0188,2020-05-21,13:21:39,13:52:26,NA,incomplete,29,filling,1,right,Green_Star_Chess_3.jpg,Red_Triangle_Stripes_3.jpg,Blue_Plus_Chess_4.jpg,right,601.4700001105666,true,high,NA,NA,NA,NA,NA,NA,NA,false
K7eEBB95,3axfspqoztbswwyvx39ztaxp9nrfjw,3ftop5warj13mchzlnvgfn6cphmj0j,K7eEBB95,2020-0188,2020-05-21,13:21:39,13:52:26,NA,incomplete,30,number,1,right,Green_Plus_Chess_4.jpg,Red_Triangle_Chess_2.jpg,Purple_Circle_Stripes_4.jpg,left,604.5949999243021,false,high,NA,NA,NA,NA,NA,NA,NA,false
K7eEBB95,3axfspqoztbswwyvx39ztaxp9nrfjw,3ftop5warj13mchzlnvgfn6cphmj0j,K7eEBB95,2020-0188,2020-05-21,13:21:39,13:52:26,NA,incomplete,31,number,1,right,Blue_Circle_Grid_2.jpg,Red_Triangle_Grid_4.jpg,Purple_Star_Stripes_2.jpg,left,648.7000002525747,false,high,NA,NA,NA,NA,NA,NA,NA,false
K7eEBB95,3axfspqoztbswwyvx39ztaxp9nrfjw,3ftop5warj13mchzlnvgfn6cphmj0j,K7eEBB95,2020-0188,2020-05-21,13:21:39,13:52:26,NA,incomplete,32,number,0,right,Green_Triangle_Chess_4.jpg,Blue_Plus_Chess_1.jpg,Red_Circle_Dots_4.jpg,right,683.4200001321733,true,high,NA,NA,NA,NA,NA,NA,NA,false
K7eEBB95,3axfspqoztbswwyvx39ztaxp9nrfjw,3ftop5warj13mchzlnvgfn6cphmj0j,K7eEBB95,2020-0188,2020-05-21,13:21:39,13:52:26,NA,incomplete,33,number,1,left,Blue_Circle_Stripes_2.jpg,Purple_Triangle_Dots_2.jpg,Red_Plus_Stripes_1.jpg,right,740.7499998807907,false,high,NA,NA,NA,NA,NA,NA,NA,false
K7eEBB95,3axfspqoztbswwyvx39ztaxp9nrfjw,3ftop5warj13mchzlnvgfn6cphmj0j,K7eEBB95,2020-0188,2020-05-21,13:21:39,13:52:26,NA,incomplete,34,number,1,left,Green_Plus_Chess_1.jpg,Blue_Triangle_Grid_1.jpg,Red_Star_Chess_2.jpg,left,956.0250001959503,true,high,NA,NA,NA,NA,NA,NA,NA,false
K7eEBB95,3axfspqoztbswwyvx39ztaxp9nrfjw,3ftop5warj13mchzlnvgfn6cphmj0j,K7eEBB95,2020-0188,2020-05-21,13:21:39,13:52:26,NA,incomplete,35,number,1,right,Red_Circle_Chess_4.jpg,Green_Plus_Chess_3.jpg,Purple_Star_Grid_4.jpg,right,625.6099999882281,true,high,NA,NA,NA,NA,NA,NA,NA,false
K7eEBB95,3axfspqoztbswwyvx39ztaxp9nrfjw,3ftop5warj13mchzlnvgfn6cphmj0j,K7eEBB95,2020-0188,2020-05-21,13:21:39,13:52:26,NA,incomplete,36,number,1,right,Green_Triangle_Dots_4.jpg,Blue_Star_Dots_1.jpg,Purple_Circle_Stripes_4.jpg,right,556.7049998790026,true,high,NA,NA,NA,NA,NA,NA,NA,false
K7eEBB95,3axfspqoztbswwyvx39ztaxp9nrfjw,3ftop5warj13mchzlnvgfn6cphmj0j,K7eEBB95,2020-0188,2020-05-21,13:21:39,13:52:26,NA,incomplete,37,number,1,left,Blue_Star_Grid_2.jpg,Red_Triangle_Dots_2.jpg,Purple_Plus_Grid_1.jpg,left,874.6950002387166,true,high,NA,NA,NA,NA,NA,NA,NA,false
K7eEBB95,3axfspqoztbswwyvx39ztaxp9nrfjw,3ftop5warj13mchzlnvgfn6cphmj0j,K7eEBB95,2020-0188,2020-05-21,13:21:39,13:52:26,NA,incomplete,38,number,1,right,Green_Plus_Dots_2.jpg,Purple_Triangle_Dots_1.jpg,Blue_Star_Stripes_2.jpg,right,604.164999909699,true,high,NA,NA,NA,NA,NA,NA,NA,false
K7eEBB95,3axfspqoztbswwyvx39ztaxp9nrfjw,3ftop5warj13mchzlnvgfn6cphmj0j,K7eEBB95,2020-0188,2020-05-21,13:21:39,13:52:26,NA,incomplete,39,number,1,left,Red_Circle_Dots_3.jpg,Green_Plus_Chess_3.jpg,Purple_Triangle_Dots_4.jpg,left,600.899999961257,true,high,NA,NA,NA,NA,NA,NA,NA,false
K7eEBB95,3axfspqoztbswwyvx39ztaxp9nrfjw,3ftop5warj13mchzlnvgfn6cphmj0j,K7eEBB95,2020-0188,2020-05-21,13:21:39,13:52:26,NA,incomplete,40,filling,0,left,Red_Circle_Dots_1.jpg,Green_Triangle_Dots_2.jpg,Blue_Plus_Chess_1.jpg,right,500.1449999399483,false,high,NA,NA,NA,NA,NA,NA,NA,false
K7eEBB95,3axfspqoztbswwyvx39ztaxp9nrfjw,3ftop5warj13mchzlnvgfn6cphmj0j,K7eEBB95,2020-0188,2020-05-21,13:21:39,13:52:26,NA,incomplete,41,filling,1,left,Blue_Plus_Stripes_4.jpg,Red_Circle_Stripes_2.jpg,Green_Star_Grid_4.jpg,right,604.8249998129904,false,high,NA,NA,NA,NA,NA,NA,NA,false
K7eEBB95,3axfspqoztbswwyvx39ztaxp9nrfjw,3ftop5warj13mchzlnvgfn6cphmj0j,K7eEBB95,2020-0188,2020-05-21,13:21:39,13:52:26,NA,incomplete,42,filling,1,left,Red_Triangle_Chess_1.jpg,Purple_Star_Chess_2.jpg,Green_Plus_Grid_1.jpg,right,488.70000010356307,false,high,NA,NA,NA,NA,NA,NA,NA,false
K7eEBB95,3axfspqoztbswwyvx39ztaxp9nrfjw,3ftop5warj13mchzlnvgfn6cphmj0j,K7eEBB95,2020-0188,2020-05-21,13:21:39,13:52:26,NA,incomplete,43,filling,1,left,Blue_Triangle_Chess_3.jpg,Green_Plus_Chess_1.jpg,Red_Circle_Stripes_3.jpg,left,761.5999998524785,true,high,NA,NA,NA,NA,NA,NA,NA,false
K7eEBB95,3axfspqoztbswwyvx39ztaxp9nrfjw,3ftop5warj13mchzlnvgfn6cphmj0j,K7eEBB95,2020-0188,2020-05-21,13:21:39,13:52:26,NA,incomplete,44,filling,1,left,Blue_Star_Chess_2.jpg,Green_Triangle_Chess_3.jpg,Purple_Circle_Dots_2.jpg,right,824.4900000281632,false,high,NA,NA,NA,NA,NA,NA,NA,false
K7eEBB95,3axfspqoztbswwyvx39ztaxp9nrfjw,3ftop5warj13mchzlnvgfn6cphmj0j,K7eEBB95,2020-0188,2020-05-21,13:21:39,13:52:26,NA,incomplete,45,filling,0,left,Blue_Circle_Dots_4.jpg,Purple_Plus_Dots_3.jpg,Red_Star_Grid_4.jpg,left,826.799999922514,true,high,NA,NA,NA,NA,NA,NA,NA,false
K7eEBB95,3axfspqoztbswwyvx39ztaxp9nrfjw,3ftop5warj13mchzlnvgfn6cphmj0j,K7eEBB95,2020-0188,2020-05-21,13:21:39,13:52:26,NA,incomplete,46,filling,1,right,Red_Plus_Grid_3.jpg,Purple_Star_Chess_3.jpg,Green_Circle_Grid_2.jpg,left,726.069999858737,false,high,NA,NA,NA,NA,NA,NA,NA,false
K7eEBB95,3axfspqoztbswwyvx39ztaxp9nrfjw,3ftop5warj13mchzlnvgfn6cphmj0j,K7eEBB95,2020-0188,2020-05-21,13:21:39,13:52:26,NA,incomplete,47,filling,1,right,Blue_Star_Dots_4.jpg,Purple_Circle_Grid_4.jpg,Red_Plus_Dots_3.jpg,right,733.4449999034405,true,high,NA,NA,NA,NA,NA,NA,NA,false
K7eEBB95,3axfspqoztbswwyvx39ztaxp9nrfjw,3ftop5warj13mchzlnvgfn6cphmj0j,K7eEBB95,2020-0188,2020-05-21,13:21:39,13:52:26,NA,incomplete,48,filling,1,right,Green_Triangle_Dots_3.jpg,Blue_Circle_Chess_3.jpg,Red_Star_Dots_1.jpg,left,612.7599999308586,false,high,NA,NA,NA,NA,NA,NA,NA,false
K7eEBB95,3axfspqoztbswwyvx39ztaxp9nrfjw,3ftop5warj13mchzlnvgfn6cphmj0j,K7eEBB95,2020-0188,2020-05-21,13:21:39,13:52:26,NA,incomplete,49,filling,1,right,Green_Star_Stripes_4.jpg,Red_Circle_Grid_4.jpg,Purple_Plus_Stripes_2.jpg,right,769.4049999117851,true,high,NA,NA,NA,NA,NA,NA,NA,false
K7eEBB95,3axfspqoztbswwyvx39ztaxp9nrfjw,3ftop5warj13mchzlnvgfn6cphmj0j,K7eEBB95,2020-0188,2020-05-21,13:21:39,13:52:26,NA,incomplete,50,number,1,left,Blue_Circle_Grid_4.jpg,Purple_Triangle_Dots_4.jpg,Green_Star_Grid_1.jpg,right,598.1749999336898,false,high,NA,NA,NA,NA,NA,NA,NA,false
K7eEBB95,3axfspqoztbswwyvx39ztaxp9nrfjw,3ftop5warj13mchzlnvgfn6cphmj0j,K7eEBB95,2020-0188,2020-05-21,13:21:39,13:52:26,NA,incomplete,51,number,0,right,Purple_Plus_Grid_1.jpg,Red_Star_Grid_2.jpg,Green_Circle_Stripes_1.jpg,right,858.8049998506904,true,high,NA,NA,NA,NA,NA,NA,NA,false
K7eEBB95,3axfspqoztbswwyvx39ztaxp9nrfjw,3ftop5warj13mchzlnvgfn6cphmj0j,K7eEBB95,2020-0188,2020-05-21,13:21:39,13:52:26,NA,incomplete,52,number,1,right,Red_Circle_Chess_4.jpg,Blue_Star_Chess_2.jpg,Purple_Triangle_Grid_4.jpg,left,820.9049999713898,false,high,NA,NA,NA,NA,NA,NA,NA,false
K7eEBB95,3axfspqoztbswwyvx39ztaxp9nrfjw,3ftop5warj13mchzlnvgfn6cphmj0j,K7eEBB95,2020-0188,2020-05-21,13:21:39,13:52:26,NA,incomplete,53,number,1,right,Blue_Plus_Chess_3.jpg,Purple_Star_Chess_4.jpg,Green_Circle_Stripes_3.jpg,left,720.0449998490512,false,high,NA,NA,NA,NA,NA,NA,NA,false
K7eEBB95,3axfspqoztbswwyvx39ztaxp9nrfjw,3ftop5warj13mchzlnvgfn6cphmj0j,K7eEBB95,2020-0188,2020-05-21,13:21:39,13:52:26,NA,incomplete,54,number,1,right,Blue_Circle_Dots_1.jpg,Green_Star_Dots_4.jpg,Red_Plus_Grid_1.jpg,right,632.1450001560152,true,high,NA,NA,NA,NA,NA,NA,NA,false
K7eEBB95,3axfspqoztbswwyvx39ztaxp9nrfjw,3ftop5warj13mchzlnvgfn6cphmj0j,K7eEBB95,2020-0188,2020-05-21,13:21:39,13:52:26,NA,incomplete,55,number,1,right,Purple_Star_Grid_1.jpg,Red_Triangle_Grid_2.jpg,Blue_Circle_Stripes_1.jpg,right,554.81499992311,true,high,NA,NA,NA,NA,NA,NA,NA,false
K7eEBB95,3axfspqoztbswwyvx39ztaxp9nrfjw,3ftop5warj13mchzlnvgfn6cphmj0j,K7eEBB95,2020-0188,2020-05-21,13:21:39,13:52:26,NA,incomplete,56,number,0,left,Blue_Star_Stripes_2.jpg,Red_Circle_Dots_2.jpg,Purple_Plus_Stripes_3.jpg,left,817.0549999922514,true,high,NA,NA,NA,NA,NA,NA,NA,false
K7eEBB95,3axfspqoztbswwyvx39ztaxp9nrfjw,3ftop5warj13mchzlnvgfn6cphmj0j,K7eEBB95,2020-0188,2020-05-21,13:21:39,13:52:26,NA,incomplete,57,number,0,right,Purple_Circle_Grid_4.jpg,Blue_Star_Grid_3.jpg,Green_Triangle_Chess_4.jpg,left,852.1599997766316,false,high,NA,NA,NA,NA,NA,NA,NA,false
K7eEBB95,3axfspqoztbswwyvx39ztaxp9nrfjw,3ftop5warj13mchzlnvgfn6cphmj0j,K7eEBB95,2020-0188,2020-05-21,13:21:39,13:52:26,NA,incomplete,58,number,1,left,Green_Star_Grid_2.jpg,Purple_Circle_Stripes_2.jpg,Red_Triangle_Grid_1.jpg,right,710.1599997840822,false,high,NA,NA,NA,NA,NA,NA,NA,false
K7eEBB95,3axfspqoztbswwyvx39ztaxp9nrfjw,3ftop5warj13mchzlnvgfn6cphmj0j,K7eEBB95,2020-0188,2020-05-21,13:21:39,13:52:26,NA,incomplete,59,number,1,left,Blue_Triangle_Dots_3.jpg,Red_Plus_Chess_3.jpg,Purple_Star_Dots_2.jpg,right,742.9299997165799,false,high,NA,NA,NA,NA,NA,NA,NA,false
K7eEBB95,3axfspqoztbswwyvx39ztaxp9nrfjw,3ftop5warj13mchzlnvgfn6cphmj0j,K7eEBB95,2020-0188,2020-05-21,13:21:39,13:52:26,NA,incomplete,60,filling,1,left,Green_Star_Grid_4.jpg,Purple_Triangle_Grid_2.jpg,Red_Plus_Chess_4.jpg,right,772.8549996390939,false,high,NA,NA,NA,NA,NA,NA,NA,false
K7eEBB95,3axfspqoztbswwyvx39ztaxp9nrfjw,3ftop5warj13mchzlnvgfn6cphmj0j,K7eEBB95,2020-0188,2020-05-21,13:21:39,13:52:26,NA,incomplete,61,filling,1,left,Purple_Plus_Grid_4.jpg,Red_Triangle_Grid_1.jpg,Blue_Circle_Stripes_4.jpg,left,738.3650001138449,true,high,NA,NA,NA,NA,NA,NA,NA,false
K7eEBB95,3axfspqoztbswwyvx39ztaxp9nrfjw,3ftop5warj13mchzlnvgfn6cphmj0j,K7eEBB95,2020-0188,2020-05-21,13:21:39,13:52:26,NA,incomplete,62,filling,0,left,Red_Star_Chess_1.jpg,Green_Circle_Chess_3.jpg,Purple_Plus_Stripes_1.jpg,right,728.9550001733005,false,high,NA,NA,NA,NA,NA,NA,NA,false
K7eEBB95,3axfspqoztbswwyvx39ztaxp9nrfjw,3ftop5warj13mchzlnvgfn6cphmj0j,K7eEBB95,2020-0188,2020-05-21,13:21:39,13:52:26,NA,incomplete,63,filling,1,right,Red_Plus_Grid_1.jpg,Purple_Star_Dots_1.jpg,Blue_Triangle_Grid_3.jpg,right,840.2749998494983,true,high,NA,NA,NA,NA,NA,NA,NA,false
K7eEBB95,3axfspqoztbswwyvx39ztaxp9nrfjw,3ftop5warj13mchzlnvgfn6cphmj0j,K7eEBB95,2020-0188,2020-05-21,13:21:39,13:52:26,NA,incomplete,64,filling,1,left,Red_Circle_Stripes_4.jpg,Blue_Plus_Stripes_1.jpg,Green_Triangle_Grid_4.jpg,left,763.610000256449,true,high,NA,NA,NA,NA,NA,NA,NA,false
K7eEBB95,3axfspqoztbswwyvx39ztaxp9nrfjw,3ftop5warj13mchzlnvgfn6cphmj0j,K7eEBB95,2020-0188,2020-05-21,13:21:39,13:52:26,NA,incomplete,65,filling,1,left,Blue_Plus_Dots_3.jpg,Red_Circle_Dots_4.jpg,Green_Triangle_Stripes_3.jpg,left,704.9200003966689,true,high,NA,NA,NA,NA,NA,NA,NA,false
K7eEBB95,3axfspqoztbswwyvx39ztaxp9nrfjw,3ftop5warj13mchzlnvgfn6cphmj0j,K7eEBB95,2020-0188,2020-05-21,13:21:39,13:52:26,NA,incomplete,66,filling,1,left,Green_Circle_Dots_4.jpg,Purple_Plus_Dots_2.jpg,Blue_Star_Chess_4.jpg,left,640.9199996851385,true,high,NA,NA,NA,NA,NA,NA,NA,false
K7eEBB95,3axfspqoztbswwyvx39ztaxp9nrfjw,3ftop5warj13mchzlnvgfn6cphmj0j,K7eEBB95,2020-0188,2020-05-21,13:21:39,13:52:26,NA,incomplete,67,filling,1,right,Red_Circle_Dots_1.jpg,Green_Star_Grid_1.jpg,Purple_Plus_Dots_3.jpg,left,907.5799998827279,false,high,NA,NA,NA,NA,NA,NA,NA,false
K7eEBB95,3axfspqoztbswwyvx39ztaxp9nrfjw,3ftop5warj13mchzlnvgfn6cphmj0j,K7eEBB95,2020-0188,2020-05-21,13:21:39,13:52:26,NA,incomplete,68,filling,0,left,Blue_Plus_Dots_3.jpg,Red_Circle_Dots_2.jpg,Purple_Star_Stripes_3.jpg,right,779.5500000938773,false,high,NA,NA,NA,NA,NA,NA,NA,false
K7eEBB95,3axfspqoztbswwyvx39ztaxp9nrfjw,3ftop5warj13mchzlnvgfn6cphmj0j,K7eEBB95,2020-0188,2020-05-21,13:21:39,13:52:26,NA,incomplete,69,filling,1,left,Blue_Circle_Chess_3.jpg,Purple_Triangle_Chess_4.jpg,Red_Plus_Grid_3.jpg,right,673.6650001257658,false,high,NA,NA,NA,NA,NA,NA,NA,false
K7eEBB95,3axfspqoztbswwyvx39ztaxp9nrfjw,3ftop5warj13mchzlnvgfn6cphmj0j,K7eEBB95,2020-0188,2020-05-21,13:21:39,13:52:26,NA,incomplete,70,number,0,left,Purple_Star_Stripes_3.jpg,Red_Triangle_Grid_3.jpg,Blue_Plus_Stripes_4.jpg,left,650.3550000488758,true,high,NA,NA,NA,NA,NA,NA,NA,false
K7eEBB95,3axfspqoztbswwyvx39ztaxp9nrfjw,3ftop5warj13mchzlnvgfn6cphmj0j,K7eEBB95,2020-0188,2020-05-21,13:21:39,13:52:26,NA,incomplete,71,number,1,left,Blue_Star_Chess_3.jpg,Red_Plus_Grid_3.jpg,Purple_Triangle_Chess_1.jpg,right,988.2900002412498,false,high,NA,NA,NA,NA,NA,NA,NA,false
K7eEBB95,3axfspqoztbswwyvx39ztaxp9nrfjw,3ftop5warj13mchzlnvgfn6cphmj0j,K7eEBB95,2020-0188,2020-05-21,13:21:39,13:52:26,NA,incomplete,72,number,1,left,Red_Triangle_Chess_3.jpg,Green_Star_Dots_3.jpg,Purple_Circle_Chess_1.jpg,right,785.0850000977516,false,high,NA,NA,NA,NA,NA,NA,NA,false
K7eEBB95,3axfspqoztbswwyvx39ztaxp9nrfjw,3ftop5warj13mchzlnvgfn6cphmj0j,K7eEBB95,2020-0188,2020-05-21,13:21:39,13:52:26,NA,incomplete,73,number,1,left,Red_Triangle_Stripes_4.jpg,Green_Circle_Dots_4.jpg,Blue_Plus_Stripes_1.jpg,left,717.5749996677041,true,high,NA,NA,NA,NA,NA,NA,NA,false
K7eEBB95,3axfspqoztbswwyvx39ztaxp9nrfjw,3ftop5warj13mchzlnvgfn6cphmj0j,K7eEBB95,2020-0188,2020-05-21,13:21:39,13:52:26,NA,incomplete,74,number,1,left,Green_Plus_Chess_3.jpg,Red_Triangle_Dots_3.jpg,Blue_Circle_Chess_1.jpg,left,718.129999935627,true,high,NA,NA,NA,NA,NA,NA,NA,false
K7eEBB95,3axfspqoztbswwyvx39ztaxp9nrfjw,3ftop5warj13mchzlnvgfn6cphmj0j,K7eEBB95,2020-0188,2020-05-21,13:21:39,13:52:26,NA,incomplete,75,number,1,right,Green_Circle_Dots_4.jpg,Red_Star_Dots_3.jpg,Purple_Plus_Stripes_4.jpg,right,684.415000025183,true,high,NA,NA,NA,NA,NA,NA,NA,false
K7eEBB95,3axfspqoztbswwyvx39ztaxp9nrfjw,3ftop5warj13mchzlnvgfn6cphmj0j,K7eEBB95,2020-0188,2020-05-21,13:21:39,13:52:26,NA,incomplete,76,number,1,right,Green_Triangle_Grid_1.jpg,Red_Circle_Grid_3.jpg,Purple_Plus_Chess_1.jpg,left,796.95999994874,false,high,NA,NA,NA,NA,NA,NA,NA,false
K7eEBB95,3axfspqoztbswwyvx39ztaxp9nrfjw,3ftop5warj13mchzlnvgfn6cphmj0j,K7eEBB95,2020-0188,2020-05-21,13:21:39,13:52:26,NA,incomplete,77,number,1,left,Purple_Circle_Chess_4.jpg,Red_Triangle_Stripes_4.jpg,Blue_Star_Chess_3.jpg,right,1121.7499999329448,false,high,NA,NA,NA,NA,NA,NA,NA,false
K7eEBB95,3axfspqoztbswwyvx39ztaxp9nrfjw,3ftop5warj13mchzlnvgfn6cphmj0j,K7eEBB95,2020-0188,2020-05-21,13:21:39,13:52:26,NA,incomplete,78,number,1,left,Blue_Circle_Chess_2.jpg,Green_Star_Dots_2.jpg,Purple_Plus_Chess_3.jpg,right,825.0249996781349,false,high,NA,NA,NA,NA,NA,NA,NA,false
K7eEBB95,3axfspqoztbswwyvx39ztaxp9nrfjw,3ftop5warj13mchzlnvgfn6cphmj0j,K7eEBB95,2020-0188,2020-05-21,13:21:39,13:52:26,NA,incomplete,79,number,1,left,Red_Star_Stripes_3.jpg,Green_Triangle_Dots_3.jpg,Blue_Plus_Stripes_1.jpg,left,549.085000064224,true,high,NA,NA,NA,NA,NA,NA,NA,false
K7eEBB95,3axfspqoztbswwyvx39ztaxp9nrfjw,3ftop5warj13mchzlnvgfn6cphmj0j,K7eEBB95,2020-0188,2020-05-21,13:21:39,13:52:26,NA,incomplete,80,filling,0,right,Blue_Plus_Stripes_2.jpg,Red_Star_Grid_2.jpg,Purple_Triangle_Stripes_4.jpg,left,770.9250003099442,false,high,NA,NA,NA,NA,NA,NA,NA,false
K7eEBB95,3axfspqoztbswwyvx39ztaxp9nrfjw,3ftop5warj13mchzlnvgfn6cphmj0j,K7eEBB95,2020-0188,2020-05-21,13:21:39,13:52:26,NA,incomplete,81,filling,1,right,Green_Circle_Stripes_3.jpg,Blue_Star_Chess_3.jpg,Purple_Triangle_Stripes_2.jpg,right,704.2650002986193,true,high,NA,NA,NA,NA,NA,NA,NA,false
K7eEBB95,3axfspqoztbswwyvx39ztaxp9nrfjw,3ftop5warj13mchzlnvgfn6cphmj0j,K7eEBB95,2020-0188,2020-05-21,13:21:39,13:52:26,NA,incomplete,82,filling,0,right,Blue_Triangle_Stripes_2.jpg,Green_Plus_Dots_2.jpg,Red_Star_Stripes_3.jpg,right,672.3650000058115,true,high,NA,NA,NA,NA,NA,NA,NA,false
K7eEBB95,3axfspqoztbswwyvx39ztaxp9nrfjw,3ftop5warj13mchzlnvgfn6cphmj0j,K7eEBB95,2020-0188,2020-05-21,13:21:39,13:52:26,NA,incomplete,83,filling,1,left,Green_Plus_Grid_3.jpg,Purple_Star_Grid_4.jpg,Blue_Triangle_Dots_3.jpg,left,681.6149996593595,true,high,NA,NA,NA,NA,NA,NA,NA,false
K7eEBB95,3axfspqoztbswwyvx39ztaxp9nrfjw,3ftop5warj13mchzlnvgfn6cphmj0j,K7eEBB95,2020-0188,2020-05-21,13:21:39,13:52:26,NA,incomplete,84,filling,1,left,Blue_Triangle_Stripes_2.jpg,Red_Star_Stripes_4.jpg,Green_Circle_Chess_2.jpg,right,651.8749999813735,false,high,NA,NA,NA,NA,NA,NA,NA,false
K7eEBB95,3axfspqoztbswwyvx39ztaxp9nrfjw,3ftop5warj13mchzlnvgfn6cphmj0j,K7eEBB95,2020-0188,2020-05-21,13:21:39,13:52:26,NA,incomplete,85,filling,1,left,Green_Triangle_Stripes_3.jpg,Purple_Plus_Stripes_1.jpg,Red_Circle_Dots_3.jpg,left,589.049999602139,true,high,NA,NA,NA,NA,NA,NA,NA,false
K7eEBB95,3axfspqoztbswwyvx39ztaxp9nrfjw,3ftop5warj13mchzlnvgfn6cphmj0j,K7eEBB95,2020-0188,2020-05-21,13:21:39,13:52:26,NA,incomplete,86,filling,1,right,Green_Circle_Grid_4.jpg,Red_Plus_Chess_4.jpg,Purple_Triangle_Grid_3.jpg,right,689.7499999031425,true,high,NA,NA,NA,NA,NA,NA,NA,false
K7eEBB95,3axfspqoztbswwyvx39ztaxp9nrfjw,3ftop5warj13mchzlnvgfn6cphmj0j,K7eEBB95,2020-0188,2020-05-21,13:21:39,13:52:26,NA,incomplete,87,filling,0,left,Red_Circle_Grid_3.jpg,Blue_Plus_Grid_4.jpg,Green_Star_Stripes_3.jpg,left,794.484999962151,true,high,NA,NA,NA,NA,NA,NA,NA,false
K7eEBB95,3axfspqoztbswwyvx39ztaxp9nrfjw,3ftop5warj13mchzlnvgfn6cphmj0j,K7eEBB95,2020-0188,2020-05-21,13:21:39,13:52:26,NA,incomplete,88,filling,0,right,Green_Plus_Stripes_4.jpg,Purple_Circle_Dots_4.jpg,Red_Triangle_Stripes_3.jpg,right,719.08999979496,true,high,NA,NA,NA,NA,NA,NA,NA,false
K7eEBB95,3axfspqoztbswwyvx39ztaxp9nrfjw,3ftop5warj13mchzlnvgfn6cphmj0j,K7eEBB95,2020-0188,2020-05-21,13:21:39,13:52:26,NA,incomplete,89,filling,1,right,Blue_Circle_Chess_4.jpg,Purple_Triangle_Stripes_4.jpg,Green_Plus_Chess_1.jpg,left,607.1200002916157,false,high,NA,NA,NA,NA,NA,NA,NA,false
K7eEBB95,3axfspqoztbswwyvx39ztaxp9nrfjw,3ftop5warj13mchzlnvgfn6cphmj0j,K7eEBB95,2020-0188,2020-05-21,13:21:39,13:52:26,NA,incomplete,90,number,1,left,Red_Triangle_Dots_2.jpg,Blue_Plus_Grid_2.jpg,Green_Circle_Dots_3.jpg,right,714.3250000663102,false,high,NA,NA,NA,NA,NA,NA,NA,false
K7eEBB95,3axfspqoztbswwyvx39ztaxp9nrfjw,3ftop5warj13mchzlnvgfn6cphmj0j,K7eEBB95,2020-0188,2020-05-21,13:21:39,13:52:26,NA,incomplete,91,number,0,right,Red_Star_Dots_1.jpg,Purple_Plus_Dots_4.jpg,Green_Circle_Grid_1.jpg,right,642.4549999646842,true,high,NA,NA,NA,NA,NA,NA,NA,false
K7eEBB95,3axfspqoztbswwyvx39ztaxp9nrfjw,3ftop5warj13mchzlnvgfn6cphmj0j,K7eEBB95,2020-0188,2020-05-21,13:21:39,13:52:26,NA,incomplete,92,number,1,right,Red_Plus_Chess_4.jpg,Purple_Triangle_Chess_1.jpg,Blue_Circle_Stripes_4.jpg,right,701.1099997907877,true,high,NA,NA,NA,NA,NA,NA,NA,false
K7eEBB95,3axfspqoztbswwyvx39ztaxp9nrfjw,3ftop5warj13mchzlnvgfn6cphmj0j,K7eEBB95,2020-0188,2020-05-21,13:21:39,13:52:26,NA,incomplete,93,number,1,right,Red_Triangle_Grid_3.jpg,Purple_Circle_Grid_2.jpg,Blue_Plus_Chess_3.jpg,right,645.1550000347197,true,high,NA,NA,NA,NA,NA,NA,NA,false
K7eEBB95,3axfspqoztbswwyvx39ztaxp9nrfjw,3ftop5warj13mchzlnvgfn6cphmj0j,K7eEBB95,2020-0188,2020-05-21,13:21:39,13:52:26,NA,incomplete,94,number,1,right,Green_Star_Chess_2.jpg,Red_Circle_Chess_3.jpg,Blue_Triangle_Stripes_2.jpg,right,800.6850001402199,true,high,NA,NA,NA,NA,NA,NA,NA,false
K7eEBB95,3axfspqoztbswwyvx39ztaxp9nrfjw,3ftop5warj13mchzlnvgfn6cphmj0j,K7eEBB95,2020-0188,2020-05-21,13:21:39,13:52:26,NA,incomplete,95,number,0,left,Purple_Plus_Chess_2.jpg,Green_Triangle_Dots_2.jpg,Blue_Star_Chess_1.jpg,left,651.8149999901652,true,high,NA,NA,NA,NA,NA,NA,NA,false
K7eEBB95,3axfspqoztbswwyvx39ztaxp9nrfjw,3ftop5warj13mchzlnvgfn6cphmj0j,K7eEBB95,2020-0188,2020-05-21,13:21:39,13:52:26,NA,incomplete,96,number,1,right,Green_Plus_Chess_3.jpg,Red_Triangle_Chess_4.jpg,Purple_Star_Grid_3.jpg,right,717.780000064522,true,high,NA,NA,NA,NA,NA,NA,NA,false
K7eEBB95,3axfspqoztbswwyvx39ztaxp9nrfjw,3ftop5warj13mchzlnvgfn6cphmj0j,K7eEBB95,2020-0188,2020-05-21,13:21:39,13:52:26,NA,incomplete,97,number,1,left,Purple_Circle_Grid_2.jpg,Red_Star_Stripes_2.jpg,Green_Plus_Grid_4.jpg,left,653.1150001101196,true,high,NA,NA,NA,NA,NA,NA,NA,false
K7eEBB95,3axfspqoztbswwyvx39ztaxp9nrfjw,3ftop5warj13mchzlnvgfn6cphmj0j,K7eEBB95,2020-0188,2020-05-21,13:21:39,13:52:26,NA,incomplete,98,number,1,left,Red_Plus_Chess_2.jpg,Green_Triangle_Grid_2.jpg,Purple_Circle_Chess_3.jpg,left,663.0649999715388,true,high,NA,NA,NA,NA,NA,NA,NA,false
K7eEBB95,3axfspqoztbswwyvx39ztaxp9nrfjw,3ftop5warj13mchzlnvgfn6cphmj0j,K7eEBB95,2020-0188,2020-05-21,13:21:39,13:52:26,NA,incomplete,99,number,1,right,Blue_Triangle_Grid_2.jpg,Red_Circle_Grid_4.jpg,Purple_Plus_Stripes_2.jpg,right,625.7850001566112,true,high,NA,NA,NA,NA,NA,NA,NA,false
K7eEBB95,3axfspqoztbswwyvx39ztaxp9nrfjw,3ftop5warj13mchzlnvgfn6cphmj0j,K7eEBB95,2020-0188,2020-05-21,13:21:39,13:52:26,NA,incomplete,100,filling,1,right,Green_Star_Chess_4.jpg,Purple_Circle_Dots_4.jpg,Red_Triangle_Chess_3.jpg,left,796.4999997057021,false,high,NA,NA,NA,NA,NA,NA,NA,false
K7eEBB95,3axfspqoztbswwyvx39ztaxp9nrfjw,3ftop5warj13mchzlnvgfn6cphmj0j,K7eEBB95,2020-0188,2020-05-21,13:21:39,13:52:26,NA,incomplete,101,filling,1,right,Green_Plus_Grid_4.jpg,Blue_Star_Chess_4.jpg,Red_Circle_Grid_3.jpg,left,753.1049996614456,false,high,NA,NA,NA,NA,NA,NA,NA,false
K7eEBB95,3axfspqoztbswwyvx39ztaxp9nrfjw,3ftop5warj13mchzlnvgfn6cphmj0j,K7eEBB95,2020-0188,2020-05-21,13:21:39,13:52:26,NA,incomplete,102,filling,0,right,Green_Star_Dots_1.jpg,Red_Plus_Stripes_1.jpg,Blue_Triangle_Dots_2.jpg,right,847.0949996262789,true,high,NA,NA,NA,NA,NA,NA,NA,false
K7eEBB95,3axfspqoztbswwyvx39ztaxp9nrfjw,3ftop5warj13mchzlnvgfn6cphmj0j,K7eEBB95,2020-0188,2020-05-21,13:21:39,13:52:26,NA,incomplete,103,filling,1,right,Blue_Star_Grid_2.jpg,Purple_Triangle_Stripes_2.jpg,Red_Circle_Grid_1.jpg,left,817.8000003099442,false,high,NA,NA,NA,NA,NA,NA,NA,false
K7eEBB95,3axfspqoztbswwyvx39ztaxp9nrfjw,3ftop5warj13mchzlnvgfn6cphmj0j,K7eEBB95,2020-0188,2020-05-21,13:21:39,13:52:26,NA,incomplete,104,filling,0,right,Green_Plus_Dots_2.jpg,Purple_Star_Stripes_2.jpg,Blue_Triangle_Dots_3.jpg,right,725.8299998939037,true,high,NA,NA,NA,NA,NA,NA,NA,false
K7eEBB95,3axfspqoztbswwyvx39ztaxp9nrfjw,3ftop5warj13mchzlnvgfn6cphmj0j,K7eEBB95,2020-0188,2020-05-21,13:21:39,13:52:26,NA,incomplete,105,filling,1,right,Purple_Circle_Stripes_3.jpg,Green_Triangle_Chess_3.jpg,Blue_Star_Stripes_4.jpg,left,684.4450002536178,false,high,NA,NA,NA,NA,NA,NA,NA,false
K7eEBB95,3axfspqoztbswwyvx39ztaxp9nrfjw,3ftop5warj13mchzlnvgfn6cphmj0j,K7eEBB95,2020-0188,2020-05-21,13:21:39,13:52:26,NA,incomplete,106,filling,1,right,Blue_Triangle_Chess_3.jpg,Green_Star_Dots_3.jpg,Purple_Circle_Chess_4.jpg,right,669.2749997600913,true,high,NA,NA,NA,NA,NA,NA,NA,false
K7eEBB95,3axfspqoztbswwyvx39ztaxp9nrfjw,3ftop5warj13mchzlnvgfn6cphmj0j,K7eEBB95,2020-0188,2020-05-21,13:21:39,13:52:26,NA,incomplete,107,filling,0,right,Green_Star_Dots_2.jpg,Purple_Circle_Stripes_2.jpg,Red_Triangle_Dots_4.jpg,right,798.549999948591,true,high,NA,NA,NA,NA,NA,NA,NA,false
K7eEBB95,3axfspqoztbswwyvx39ztaxp9nrfjw,3ftop5warj13mchzlnvgfn6cphmj0j,K7eEBB95,2020-0188,2020-05-21,13:21:39,13:52:26,NA,incomplete,108,filling,1,right,Blue_Plus_Dots_2.jpg,Purple_Star_Stripes_2.jpg,Green_Circle_Dots_3.jpg,right,787.1650001034141,true,high,NA,NA,NA,NA,NA,NA,NA,false
K7eEBB95,3axfspqoztbswwyvx39ztaxp9nrfjw,3ftop5warj13mchzlnvgfn6cphmj0j,K7eEBB95,2020-0188,2020-05-21,13:21:39,13:52:26,NA,incomplete,109,filling,1,right,Green_Circle_Stripes_4.jpg,Purple_Star_Grid_4.jpg,Red_Triangle_Stripes_2.jpg,right,584.5949999056756,true,high,NA,NA,NA,NA,NA,NA,NA,false
K7eEBB95,3axfspqoztbswwyvx39ztaxp9nrfjw,3ftop5warj13mchzlnvgfn6cphmj0j,K7eEBB95,2020-0188,2020-05-21,13:21:39,13:52:26,NA,incomplete,110,number,1,right,Purple_Star_Stripes_3.jpg,Green_Plus_Stripes_1.jpg,Red_Circle_Grid_3.jpg,left,804.5949996449053,false,high,NA,NA,NA,NA,NA,NA,NA,false
K7eEBB95,3axfspqoztbswwyvx39ztaxp9nrfjw,3ftop5warj13mchzlnvgfn6cphmj0j,K7eEBB95,2020-0188,2020-05-21,13:21:39,13:52:26,NA,incomplete,111,number,1,left,Red_Star_Dots_2.jpg,Purple_Triangle_Stripes_2.jpg,Blue_Plus_Dots_3.jpg,right,696.5450001880527,false,high,NA,NA,NA,NA,NA,NA,NA,false
K7eEBB95,3axfspqoztbswwyvx39ztaxp9nrfjw,3ftop5warj13mchzlnvgfn6cphmj0j,K7eEBB95,2020-0188,2020-05-21,13:21:39,13:52:26,NA,incomplete,112,number,1,right,Purple_Triangle_Stripes_1.jpg,Green_Circle_Stripes_2.jpg,Blue_Plus_Chess_1.jpg,left,721.2650002911687,false,high,NA,NA,NA,NA,NA,NA,NA,false
K7eEBB95,3axfspqoztbswwyvx39ztaxp9nrfjw,3ftop5warj13mchzlnvgfn6cphmj0j,K7eEBB95,2020-0188,2020-05-21,13:21:39,13:52:26,NA,incomplete,113,number,1,right,Green_Plus_Grid_4.jpg,Blue_Star_Grid_1.jpg,Purple_Circle_Chess_4.jpg,right,840.580000076443,true,high,NA,NA,NA,NA,NA,NA,NA,false
K7eEBB95,3axfspqoztbswwyvx39ztaxp9nrfjw,3ftop5warj13mchzlnvgfn6cphmj0j,K7eEBB95,2020-0188,2020-05-21,13:21:39,13:52:26,NA,incomplete,114,number,1,left,Blue_Triangle_Stripes_3.jpg,Purple_Plus_Dots_3.jpg,Red_Star_Stripes_1.jpg,left,620.1399997808039,true,high,NA,NA,NA,NA,NA,NA,NA,false
K7eEBB95,3axfspqoztbswwyvx39ztaxp9nrfjw,3ftop5warj13mchzlnvgfn6cphmj0j,K7eEBB95,2020-0188,2020-05-21,13:21:39,13:52:26,NA,incomplete,115,number,0,left,Red_Plus_Dots_4.jpg,Green_Circle_Chess_4.jpg,Purple_Triangle_Dots_3.jpg,left,662.6900001429021,true,high,NA,NA,NA,NA,NA,NA,NA,false
K7eEBB95,3axfspqoztbswwyvx39ztaxp9nrfjw,3ftop5warj13mchzlnvgfn6cphmj0j,K7eEBB95,2020-0188,2020-05-21,13:21:39,13:52:26,NA,incomplete,116,number,0,left,Blue_Triangle_Stripes_3.jpg,Red_Plus_Chess_3.jpg,Green_Star_Stripes_4.jpg,left,704.5399998314679,true,high,NA,NA,NA,NA,NA,NA,NA,false
K7eEBB95,3axfspqoztbswwyvx39ztaxp9nrfjw,3ftop5warj13mchzlnvgfn6cphmj0j,K7eEBB95,2020-0188,2020-05-21,13:21:39,13:52:26,NA,incomplete,117,number,1,left,Blue_Star_Grid_2.jpg,Green_Triangle_Chess_2.jpg,Red_Plus_Grid_3.jpg,left,800.7499999366701,true,high,NA,NA,NA,NA,NA,NA,NA,false
K7eEBB95,3axfspqoztbswwyvx39ztaxp9nrfjw,3ftop5warj13mchzlnvgfn6cphmj0j,K7eEBB95,2020-0188,2020-05-21,13:21:39,13:52:26,NA,incomplete,118,number,1,left,Green_Circle_Chess_3.jpg,Blue_Triangle_Grid_3.jpg,Purple_Star_Chess_4.jpg,left,740.6049999408424,true,high,NA,NA,NA,NA,NA,NA,NA,false
K7eEBB95,3axfspqoztbswwyvx39ztaxp9nrfjw,3ftop5warj13mchzlnvgfn6cphmj0j,K7eEBB95,2020-0188,2020-05-21,13:21:39,13:52:26,NA,incomplete,119,number,1,left,Red_Star_Grid_4.jpg,Blue_Circle_Stripes_4.jpg,Purple_Plus_Grid_1.jpg,left,668.0699996650219,true,high,NA,NA,NA,NA,NA,NA,NA,false
K7eEBB95,3axfspqoztbswwyvx39ztaxp9nrfjw,3ftop5warj13mchzlnvgfn6cphmj0j,K7eEBB95,2020-0188,2020-05-21,13:21:39,13:52:26,NA,incomplete,120,shape,1,left,Purple_Triangle_Grid_1.jpg,Green_Triangle_Dots_3.jpg,Purple_Circle_Stripes_2.jpg,NA,NA,NA,high,NA,NA,NA,NA,NA,NA,NA,false
K7eEBB95,3axfspqoztbswwyvx39ztaxp9nrfjw,3ftop5warj13mchzlnvgfn6cphmj0j,K7eEBB95,2020-0188,2020-05-21,13:21:39,13:52:26,NA,incomplete,121,shape,1,left,Red_Triangle_Grid_2.jpg,Green_Triangle_Stripes_3.jpg,Red_Circle_Dots_1.jpg,right,796.8899998813868,false,high,NA,NA,NA,NA,NA,NA,NA,false
K7eEBB95,3axfspqoztbswwyvx39ztaxp9nrfjw,3ftop5warj13mchzlnvgfn6cphmj0j,K7eEBB95,2020-0188,2020-05-21,13:21:39,13:52:26,NA,incomplete,122,shape,1,left,Green_Star_Dots_4.jpg,Blue_Star_Grid_3.jpg,Green_Triangle_Stripes_2.jpg,left,617.4449999816716,true,high,NA,NA,NA,NA,NA,NA,NA,false
K7eEBB95,3axfspqoztbswwyvx39ztaxp9nrfjw,3ftop5warj13mchzlnvgfn6cphmj0j,K7eEBB95,2020-0188,2020-05-21,13:21:39,13:52:26,NA,incomplete,123,shape,1,right,Red_Triangle_Grid_2.jpg,Red_Circle_Dots_4.jpg,Purple_Triangle_Stripes_1.jpg,right,781.7500000819564,true,high,NA,NA,NA,NA,NA,NA,NA,false
K7eEBB95,3axfspqoztbswwyvx39ztaxp9nrfjw,3ftop5warj13mchzlnvgfn6cphmj0j,K7eEBB95,2020-0188,2020-05-21,13:21:39,13:52:26,NA,incomplete,124,shape,0,right,Red_Triangle_Stripes_4.jpg,Red_Star_Dots_1.jpg,Green_Triangle_Chess_2.jpg,right,706.2999997287989,true,high,NA,NA,NA,NA,NA,NA,NA,false
K7eEBB95,3axfspqoztbswwyvx39ztaxp9nrfjw,3ftop5warj13mchzlnvgfn6cphmj0j,K7eEBB95,2020-0188,2020-05-21,13:21:39,13:52:26,NA,incomplete,125,shape,1,left,Red_Triangle_Stripes_3.jpg,Green_Triangle_Chess_1.jpg,Red_Star_Grid_4.jpg,left,826.169999781996,true,high,NA,NA,NA,NA,NA,NA,NA,false
K7eEBB95,3axfspqoztbswwyvx39ztaxp9nrfjw,3ftop5warj13mchzlnvgfn6cphmj0j,K7eEBB95,2020-0188,2020-05-21,13:21:39,13:52:26,NA,incomplete,126,shape,1,right,Blue_Circle_Dots_4.jpg,Blue_Triangle_Grid_3.jpg,Green_Circle_Chess_1.jpg,right,709.6099997870624,true,high,NA,NA,NA,NA,NA,NA,NA,false
K7eEBB95,3axfspqoztbswwyvx39ztaxp9nrfjw,3ftop5warj13mchzlnvgfn6cphmj0j,K7eEBB95,2020-0188,2020-05-21,13:21:39,13:52:26,NA,incomplete,127,shape,1,right,Purple_Plus_Dots_4.jpg,Purple_Circle_Grid_3.jpg,Green_Plus_Chess_1.jpg,right,917.4999999813735,true,high,NA,NA,NA,NA,NA,NA,NA,false
K7eEBB95,3axfspqoztbswwyvx39ztaxp9nrfjw,3ftop5warj13mchzlnvgfn6cphmj0j,K7eEBB95,2020-0188,2020-05-21,13:21:39,13:52:26,NA,incomplete,128,shape,0,left,Blue_Triangle_Dots_1.jpg,Red_Triangle_Grid_4.jpg,Blue_Plus_Chess_2.jpg,left,661.4500000141561,true,high,NA,NA,NA,NA,NA,NA,NA,false
K7eEBB95,3axfspqoztbswwyvx39ztaxp9nrfjw,3ftop5warj13mchzlnvgfn6cphmj0j,K7eEBB95,2020-0188,2020-05-21,13:21:39,13:52:26,NA,incomplete,129,shape,1,right,Purple_Star_Dots_3.jpg,Purple_Plus_Chess_4.jpg,Green_Star_Grid_1.jpg,left,911.0999996773899,false,high,NA,NA,NA,NA,NA,NA,NA,false
K7eEBB95,3axfspqoztbswwyvx39ztaxp9nrfjw,3ftop5warj13mchzlnvgfn6cphmj0j,K7eEBB95,2020-0188,2020-05-21,13:21:39,13:52:26,NA,incomplete,130,shape,0,left,Blue_Star_Chess_3.jpg,Red_Star_Grid_2.jpg,Blue_Plus_Stripes_4.jpg,left,990.9450002014637,true,high,NA,NA,NA,NA,NA,NA,NA,false
K7eEBB95,3axfspqoztbswwyvx39ztaxp9nrfjw,3ftop5warj13mchzlnvgfn6cphmj0j,K7eEBB95,2020-0188,2020-05-21,13:21:39,13:52:26,NA,incomplete,131,shape,1,right,Green_Star_Chess_2.jpg,Green_Triangle_Stripes_3.jpg,Purple_Star_Grid_1.jpg,left,707.5399998575449,false,high,NA,NA,NA,NA,NA,NA,NA,false
K7eEBB95,3axfspqoztbswwyvx39ztaxp9nrfjw,3ftop5warj13mchzlnvgfn6cphmj0j,K7eEBB95,2020-0188,2020-05-21,13:21:39,13:52:26,NA,incomplete,132,shape,1,left,Red_Circle_Stripes_4.jpg,Green_Circle_Dots_1.jpg,Red_Plus_Chess_3.jpg,left,763.764999806881,true,high,NA,NA,NA,NA,NA,NA,NA,false
K7eEBB95,3axfspqoztbswwyvx39ztaxp9nrfjw,3ftop5warj13mchzlnvgfn6cphmj0j,K7eEBB95,2020-0188,2020-05-21,13:21:39,13:52:26,NA,incomplete,133,shape,1,left,Purple_Triangle_Stripes_2.jpg,Green_Triangle_Grid_4.jpg,Purple_Circle_Dots_3.jpg,left,674.3800002150238,true,high,NA,NA,NA,NA,NA,NA,NA,false
K7eEBB95,3axfspqoztbswwyvx39ztaxp9nrfjw,3ftop5warj13mchzlnvgfn6cphmj0j,K7eEBB95,2020-0188,2020-05-21,13:21:39,13:52:26,NA,incomplete,134,shape,0,right,Red_Circle_Chess_2.jpg,Red_Star_Grid_3.jpg,Blue_Circle_Stripes_4.jpg,right,667.0099999755621,true,high,NA,NA,NA,NA,NA,NA,NA,false
K7eEBB95,3axfspqoztbswwyvx39ztaxp9nrfjw,3ftop5warj13mchzlnvgfn6cphmj0j,K7eEBB95,2020-0188,2020-05-21,13:21:39,13:52:26,NA,incomplete,135,shape,1,right,Green_Plus_Chess_1.jpg,Green_Circle_Grid_4.jpg,Blue_Plus_Dots_2.jpg,right,773.1500002555549,true,high,NA,NA,NA,NA,NA,NA,NA,false
K7eEBB95,3axfspqoztbswwyvx39ztaxp9nrfjw,3ftop5warj13mchzlnvgfn6cphmj0j,K7eEBB95,2020-0188,2020-05-21,13:21:39,13:52:26,NA,incomplete,136,shape,0,right,Purple_Plus_Dots_3.jpg,Purple_Star_Grid_1.jpg,Blue_Plus_Chess_4.jpg,right,794.2499998025596,true,high,NA,NA,NA,NA,NA,NA,NA,false
K7eEBB95,3axfspqoztbswwyvx39ztaxp9nrfjw,3ftop5warj13mchzlnvgfn6cphmj0j,K7eEBB95,2020-0188,2020-05-21,13:21:39,13:52:26,NA,incomplete,137,shape,1,right,Red_Triangle_Grid_3.jpg,Red_Plus_Dots_2.jpg,Purple_Triangle_Stripes_1.jpg,right,950.9050003252923,true,high,NA,NA,NA,NA,NA,NA,NA,false
K7eEBB95,3axfspqoztbswwyvx39ztaxp9nrfjw,3ftop5warj13mchzlnvgfn6cphmj0j,K7eEBB95,2020-0188,2020-05-21,13:21:39,13:52:26,NA,incomplete,138,shape,1,left,Purple_Circle_Chess_2.jpg,Green_Circle_Stripes_3.jpg,Purple_Triangle_Grid_1.jpg,left,741.710000205785,true,high,NA,NA,NA,NA,NA,NA,NA,false
K7eEBB95,3axfspqoztbswwyvx39ztaxp9nrfjw,3ftop5warj13mchzlnvgfn6cphmj0j,K7eEBB95,2020-0188,2020-05-21,13:21:39,13:52:26,NA,incomplete,139,shape,1,left,Purple_Plus_Chess_4.jpg,Blue_Plus_Dots_3.jpg,Purple_Circle_Stripes_2.jpg,left,611.7150001227856,true,high,NA,NA,NA,NA,NA,NA,NA,false
K7eEBB95,3axfspqoztbswwyvx39ztaxp9nrfjw,3ftop5warj13mchzlnvgfn6cphmj0j,K7eEBB95,2020-0188,2020-05-21,13:21:39,13:52:26,NA,incomplete,140,color,1,left,Blue_Plus_Stripes_2.jpg,Blue_Triangle_Grid_1.jpg,Red_Plus_Dots_4.jpg,right,719.5799998007715,false,high,NA,NA,NA,NA,NA,NA,NA,false
K7eEBB95,3axfspqoztbswwyvx39ztaxp9nrfjw,3ftop5warj13mchzlnvgfn6cphmj0j,K7eEBB95,2020-0188,2020-05-21,13:21:39,13:52:26,NA,incomplete,141,color,1,left,Purple_Triangle_Chess_3.jpg,Purple_Star_Dots_4.jpg,Blue_Triangle_Stripes_1.jpg,left,967.0400000177324,true,high,NA,NA,NA,NA,NA,NA,NA,false
K7eEBB95,3axfspqoztbswwyvx39ztaxp9nrfjw,3ftop5warj13mchzlnvgfn6cphmj0j,K7eEBB95,2020-0188,2020-05-21,13:21:39,13:52:26,NA,incomplete,142,color,1,right,Purple_Circle_Stripes_3.jpg,Blue_Circle_Chess_1.jpg,Purple_Star_Dots_4.jpg,right,684.3849997967482,true,high,NA,NA,NA,NA,NA,NA,NA,false
K7eEBB95,3axfspqoztbswwyvx39ztaxp9nrfjw,3ftop5warj13mchzlnvgfn6cphmj0j,K7eEBB95,2020-0188,2020-05-21,13:21:39,13:52:26,NA,incomplete,143,color,0,right,Blue_Star_Dots_2.jpg,Green_Star_Chess_3.jpg,Blue_Circle_Stripes_4.jpg,right,533.7899997830391,true,high,NA,NA,NA,NA,NA,NA,NA,false
K7eEBB95,3axfspqoztbswwyvx39ztaxp9nrfjw,3ftop5warj13mchzlnvgfn6cphmj0j,K7eEBB95,2020-0188,2020-05-21,13:21:39,13:52:26,NA,incomplete,144,color,1,left,Red_Star_Grid_2.jpg,Red_Plus_Dots_3.jpg,Green_Star_Chess_4.jpg,left,491.694999858737,true,high,NA,NA,NA,NA,NA,NA,NA,false
K7eEBB95,3axfspqoztbswwyvx39ztaxp9nrfjw,3ftop5warj13mchzlnvgfn6cphmj0j,K7eEBB95,2020-0188,2020-05-21,13:21:39,13:52:26,NA,incomplete,145,color,0,right,Red_Circle_Grid_4.jpg,Blue_Circle_Chess_2.jpg,Red_Star_Stripes_3.jpg,right,468.31999998539686,true,high,NA,NA,NA,NA,NA,NA,NA,false
K7eEBB95,3axfspqoztbswwyvx39ztaxp9nrfjw,3ftop5warj13mchzlnvgfn6cphmj0j,K7eEBB95,2020-0188,2020-05-21,13:21:39,13:52:26,NA,incomplete,146,color,1,right,Red_Circle_Dots_1.jpg,Blue_Circle_Stripes_2.jpg,Red_Triangle_Grid_3.jpg,right,589.7899996489286,true,high,NA,NA,NA,NA,NA,NA,NA,false
K7eEBB95,3axfspqoztbswwyvx39ztaxp9nrfjw,3ftop5warj13mchzlnvgfn6cphmj0j,K7eEBB95,2020-0188,2020-05-21,13:21:39,13:52:26,NA,incomplete,147,color,1,left,Red_Circle_Stripes_3.jpg,Red_Triangle_Chess_4.jpg,Green_Circle_Dots_1.jpg,left,482.40500036627054,true,high,NA,NA,NA,NA,NA,NA,NA,false
K7eEBB95,3axfspqoztbswwyvx39ztaxp9nrfjw,3ftop5warj13mchzlnvgfn6cphmj0j,K7eEBB95,2020-0188,2020-05-21,13:21:39,13:52:26,NA,incomplete,148,color,1,left,Purple_Star_Grid_2.jpg,Purple_Triangle_Stripes_1.jpg,Blue_Star_Chess_4.jpg,left,499.76500030606985,true,high,NA,NA,NA,NA,NA,NA,NA,false
K7eEBB95,3axfspqoztbswwyvx39ztaxp9nrfjw,3ftop5warj13mchzlnvgfn6cphmj0j,K7eEBB95,2020-0188,2020-05-21,13:21:39,13:52:26,NA,incomplete,149,color,1,right,Blue_Triangle_Stripes_1.jpg,Green_Triangle_Chess_2.jpg,Blue_Star_Grid_3.jpg,right,533.0999996513128,true,high,NA,NA,NA,NA,NA,NA,NA,false
K7eEBB95,3axfspqoztbswwyvx39ztaxp9nrfjw,3ftop5warj13mchzlnvgfn6cphmj0j,K7eEBB95,2020-0188,2020-05-21,13:21:39,13:52:26,NA,incomplete,150,color,1,left,Green_Circle_Chess_4.jpg,Green_Triangle_Dots_1.jpg,Red_Circle_Grid_2.jpg,left,531.9349998608232,true,high,NA,NA,NA,NA,NA,NA,NA,false
K7eEBB95,3axfspqoztbswwyvx39ztaxp9nrfjw,3ftop5warj13mchzlnvgfn6cphmj0j,K7eEBB95,2020-0188,2020-05-21,13:21:39,13:52:26,NA,incomplete,151,color,0,right,Purple_Plus_Stripes_3.jpg,Green_Plus_Chess_1.jpg,Purple_Triangle_Dots_4.jpg,right,587.0850002393126,true,high,NA,NA,NA,NA,NA,NA,NA,false
K7eEBB95,3axfspqoztbswwyvx39ztaxp9nrfjw,3ftop5warj13mchzlnvgfn6cphmj0j,K7eEBB95,2020-0188,2020-05-21,13:21:39,13:52:26,NA,incomplete,152,color,1,left,Purple_Triangle_Chess_1.jpg,Purple_Plus_Dots_3.jpg,Red_Triangle_Stripes_4.jpg,left,551.804999820888,true,high,NA,NA,NA,NA,NA,NA,NA,false
K7eEBB95,3axfspqoztbswwyvx39ztaxp9nrfjw,3ftop5warj13mchzlnvgfn6cphmj0j,K7eEBB95,2020-0188,2020-05-21,13:21:39,13:52:26,NA,incomplete,153,color,0,left,Green_Plus_Stripes_2.jpg,Green_Star_Grid_1.jpg,Purple_Plus_Chess_3.jpg,left,637.8049999475479,true,high,NA,NA,NA,NA,NA,NA,NA,false
K7eEBB95,3axfspqoztbswwyvx39ztaxp9nrfjw,3ftop5warj13mchzlnvgfn6cphmj0j,K7eEBB95,2020-0188,2020-05-21,13:21:39,13:52:26,NA,incomplete,154,color,1,right,Red_Circle_Stripes_2.jpg,Purple_Circle_Grid_4.jpg,Red_Triangle_Chess_3.jpg,left,937.3400001786649,false,high,NA,NA,NA,NA,NA,NA,NA,false
K7eEBB95,3axfspqoztbswwyvx39ztaxp9nrfjw,3ftop5warj13mchzlnvgfn6cphmj0j,K7eEBB95,2020-0188,2020-05-21,13:21:39,13:52:26,NA,incomplete,155,color,1,left,Green_Plus_Grid_3.jpg,Green_Circle_Chess_2.jpg,Purple_Plus_Dots_4.jpg,left,743.1350001133978,true,high,NA,NA,NA,NA,NA,NA,NA,false
K7eEBB95,3axfspqoztbswwyvx39ztaxp9nrfjw,3ftop5warj13mchzlnvgfn6cphmj0j,K7eEBB95,2020-0188,2020-05-21,13:21:39,13:52:26,NA,incomplete,156,color,1,right,Purple_Plus_Dots_3.jpg,Red_Plus_Chess_4.jpg,Purple_Triangle_Stripes_2.jpg,right,637.6499999314547,true,high,NA,NA,NA,NA,NA,NA,NA,false
K7eEBB95,3axfspqoztbswwyvx39ztaxp9nrfjw,3ftop5warj13mchzlnvgfn6cphmj0j,K7eEBB95,2020-0188,2020-05-21,13:21:39,13:52:26,NA,incomplete,157,color,1,left,Green_Circle_Dots_2.jpg,Green_Star_Chess_1.jpg,Blue_Circle_Stripes_3.jpg,left,576.365000102669,true,high,NA,NA,NA,NA,NA,NA,NA,false
K7eEBB95,3axfspqoztbswwyvx39ztaxp9nrfjw,3ftop5warj13mchzlnvgfn6cphmj0j,K7eEBB95,2020-0188,2020-05-21,13:21:39,13:52:26,NA,incomplete,158,color,1,left,Purple_Plus_Dots_2.jpg,Purple_Star_Chess_1.jpg,Green_Plus_Grid_3.jpg,left,533.7849999777973,true,high,NA,NA,NA,NA,NA,NA,NA,false
K7eEBB95,3axfspqoztbswwyvx39ztaxp9nrfjw,3ftop5warj13mchzlnvgfn6cphmj0j,K7eEBB95,2020-0188,2020-05-21,13:21:39,13:52:26,NA,incomplete,159,color,1,right,Blue_Circle_Dots_1.jpg,Purple_Circle_Stripes_3.jpg,Blue_Star_Chess_4.jpg,right,669.3799998611212,true,high,NA,NA,NA,NA,NA,NA,NA,false
K7eEBB95,3axfspqoztbswwyvx39ztaxp9nrfjw,3ftop5warj13mchzlnvgfn6cphmj0j,K7eEBB95,2020-0188,2020-05-21,13:21:39,13:52:26,NA,incomplete,160,shape,1,left,Green_Star_Dots_1.jpg,Red_Star_Chess_2.jpg,Green_Circle_Stripes_3.jpg,right,629.7499998472631,false,high,NA,NA,NA,NA,NA,NA,NA,false
K7eEBB95,3axfspqoztbswwyvx39ztaxp9nrfjw,3ftop5warj13mchzlnvgfn6cphmj0j,K7eEBB95,2020-0188,2020-05-21,13:21:39,13:52:26,NA,incomplete,161,shape,0,right,Purple_Circle_Chess_1.jpg,Purple_Triangle_Dots_2.jpg,Red_Circle_Stripes_3.jpg,left,513.3400000631809,false,high,NA,NA,NA,NA,NA,NA,NA,false
K7eEBB95,3axfspqoztbswwyvx39ztaxp9nrfjw,3ftop5warj13mchzlnvgfn6cphmj0j,K7eEBB95,2020-0188,2020-05-21,13:21:39,13:52:26,NA,incomplete,162,shape,1,right,Green_Triangle_Stripes_2.jpg,Green_Star_Chess_1.jpg,Purple_Triangle_Dots_4.jpg,left,409.25500029698014,false,high,NA,NA,NA,NA,NA,NA,NA,false
K7eEBB95,3axfspqoztbswwyvx39ztaxp9nrfjw,3ftop5warj13mchzlnvgfn6cphmj0j,K7eEBB95,2020-0188,2020-05-21,13:21:39,13:52:26,NA,incomplete,163,shape,1,left,Blue_Triangle_Grid_1.jpg,Red_Triangle_Chess_4.jpg,Blue_Circle_Dots_3.jpg,right,501.5300000086427,false,high,NA,NA,NA,NA,NA,NA,NA,false
K7eEBB95,3axfspqoztbswwyvx39ztaxp9nrfjw,3ftop5warj13mchzlnvgfn6cphmj0j,K7eEBB95,2020-0188,2020-05-21,13:21:39,13:52:26,NA,incomplete,164,shape,0,left,Blue_Star_Stripes_3.jpg,Red_Star_Chess_2.jpg,Blue_Plus_Dots_1.jpg,left,845.9200002253056,true,high,NA,NA,NA,NA,NA,NA,NA,false
K7eEBB95,3axfspqoztbswwyvx39ztaxp9nrfjw,3ftop5warj13mchzlnvgfn6cphmj0j,K7eEBB95,2020-0188,2020-05-21,13:21:39,13:52:26,NA,incomplete,165,shape,1,right,Purple_Triangle_Dots_3.jpg,Purple_Star_Grid_2.jpg,Blue_Triangle_Stripes_4.jpg,left,487.7550001256168,false,high,NA,NA,NA,NA,NA,NA,NA,false
K7eEBB95,3axfspqoztbswwyvx39ztaxp9nrfjw,3ftop5warj13mchzlnvgfn6cphmj0j,K7eEBB95,2020-0188,2020-05-21,13:21:39,13:52:26,NA,incomplete,166,shape,1,right,Purple_Triangle_Chess_1.jpg,Purple_Circle_Grid_4.jpg,Green_Triangle_Stripes_3.jpg,right,816.5400000289083,true,high,NA,NA,NA,NA,NA,NA,NA,false
K7eEBB95,3axfspqoztbswwyvx39ztaxp9nrfjw,3ftop5warj13mchzlnvgfn6cphmj0j,K7eEBB95,2020-0188,2020-05-21,13:21:39,13:52:26,NA,incomplete,167,shape,1,left,Purple_Triangle_Dots_4.jpg,Red_Triangle_Grid_3.jpg,Purple_Plus_Stripes_1.jpg,left,500.57000014930964,true,high,NA,NA,NA,NA,NA,NA,NA,false
K7eEBB95,3axfspqoztbswwyvx39ztaxp9nrfjw,3ftop5warj13mchzlnvgfn6cphmj0j,K7eEBB95,2020-0188,2020-05-21,13:21:39,13:52:26,NA,incomplete,168,shape,1,left,Blue_Star_Dots_3.jpg,Red_Star_Grid_4.jpg,Blue_Circle_Stripes_1.jpg,left,549.000000115484,true,high,NA,NA,NA,NA,NA,NA,NA,false
K7eEBB95,3axfspqoztbswwyvx39ztaxp9nrfjw,3ftop5warj13mchzlnvgfn6cphmj0j,K7eEBB95,2020-0188,2020-05-21,13:21:39,13:52:26,NA,incomplete,169,shape,1,left,Green_Star_Chess_3.jpg,Blue_Star_Stripes_1.jpg,Green_Circle_Dots_2.jpg,left,563.9399997889996,true,high,NA,NA,NA,NA,NA,NA,NA,false
K7eEBB95,3axfspqoztbswwyvx39ztaxp9nrfjw,3ftop5warj13mchzlnvgfn6cphmj0j,K7eEBB95,2020-0188,2020-05-21,13:21:39,13:52:26,NA,incomplete,170,shape,1,right,Red_Triangle_Dots_1.jpg,Red_Circle_Grid_3.jpg,Purple_Triangle_Stripes_4.jpg,right,673.2399999164045,true,high,NA,NA,NA,NA,NA,NA,NA,false
K7eEBB95,3axfspqoztbswwyvx39ztaxp9nrfjw,3ftop5warj13mchzlnvgfn6cphmj0j,K7eEBB95,2020-0188,2020-05-21,13:21:39,13:52:26,NA,incomplete,171,shape,1,right,Green_Plus_Stripes_2.jpg,Green_Triangle_Grid_3.jpg,Purple_Plus_Chess_4.jpg,right,754.7499998472631,true,high,NA,NA,NA,NA,NA,NA,NA,false
K7eEBB95,3axfspqoztbswwyvx39ztaxp9nrfjw,3ftop5warj13mchzlnvgfn6cphmj0j,K7eEBB95,2020-0188,2020-05-21,13:21:39,13:52:26,NA,incomplete,172,shape,1,left,Red_Circle_Chess_3.jpg,Green_Circle_Grid_1.jpg,Red_Star_Dots_4.jpg,left,632.5949998572469,true,high,NA,NA,NA,NA,NA,NA,NA,false
K7eEBB95,3axfspqoztbswwyvx39ztaxp9nrfjw,3ftop5warj13mchzlnvgfn6cphmj0j,K7eEBB95,2020-0188,2020-05-21,13:21:39,13:52:26,NA,incomplete,173,shape,0,left,Purple_Circle_Dots_4.jpg,Green_Circle_Grid_3.jpg,Purple_Star_Chess_2.jpg,left,484.05000008642673,true,high,NA,NA,NA,NA,NA,NA,NA,false
K7eEBB95,3axfspqoztbswwyvx39ztaxp9nrfjw,3ftop5warj13mchzlnvgfn6cphmj0j,K7eEBB95,2020-0188,2020-05-21,13:21:39,13:52:26,NA,incomplete,174,shape,1,left,Red_Circle_Chess_2.jpg,Blue_Circle_Stripes_4.jpg,Red_Star_Dots_1.jpg,left,485.2650002576411,true,high,NA,NA,NA,NA,NA,NA,NA,false
K7eEBB95,3axfspqoztbswwyvx39ztaxp9nrfjw,3ftop5warj13mchzlnvgfn6cphmj0j,K7eEBB95,2020-0188,2020-05-21,13:21:39,13:52:26,NA,incomplete,175,shape,1,right,Red_Triangle_Dots_1.jpg,Red_Plus_Chess_3.jpg,Blue_Triangle_Grid_4.jpg,right,557.2950001806021,true,high,NA,NA,NA,NA,NA,NA,NA,false
K7eEBB95,3axfspqoztbswwyvx39ztaxp9nrfjw,3ftop5warj13mchzlnvgfn6cphmj0j,K7eEBB95,2020-0188,2020-05-21,13:21:39,13:52:26,NA,incomplete,176,shape,1,right,Green_Star_Dots_4.jpg,Green_Plus_Grid_2.jpg,Purple_Star_Chess_1.jpg,right,707.2149999439716,true,high,NA,NA,NA,NA,NA,NA,NA,false
K7eEBB95,3axfspqoztbswwyvx39ztaxp9nrfjw,3ftop5warj13mchzlnvgfn6cphmj0j,K7eEBB95,2020-0188,2020-05-21,13:21:39,13:52:26,NA,incomplete,177,shape,1,right,Red_Circle_Grid_2.jpg,Red_Star_Dots_4.jpg,Purple_Circle_Stripes_1.jpg,right,563.4099999442697,true,high,NA,NA,NA,NA,NA,NA,NA,false
K7eEBB95,3axfspqoztbswwyvx39ztaxp9nrfjw,3ftop5warj13mchzlnvgfn6cphmj0j,K7eEBB95,2020-0188,2020-05-21,13:21:39,13:52:26,NA,incomplete,178,shape,0,left,Red_Plus_Dots_3.jpg,Blue_Plus_Stripes_4.jpg,Red_Triangle_Chess_1.jpg,left,641.1649999208748,true,high,NA,NA,NA,NA,NA,NA,NA,false
K7eEBB95,3axfspqoztbswwyvx39ztaxp9nrfjw,3ftop5warj13mchzlnvgfn6cphmj0j,K7eEBB95,2020-0188,2020-05-21,13:21:39,13:52:26,NA,incomplete,179,shape,1,left,Blue_Plus_Stripes_3.jpg,Purple_Plus_Grid_2.jpg,Blue_Circle_Chess_1.jpg,left,596.5149998664856,true,high,NA,NA,NA,NA,NA,NA,NA,false
K7eEBB95,3axfspqoztbswwyvx39ztaxp9nrfjw,3ftop5warj13mchzlnvgfn6cphmj0j,K7eEBB95,2020-0188,2020-05-21,13:21:39,13:52:26,NA,incomplete,180,color,1,left,Green_Circle_Stripes_2.jpg,Green_Plus_Dots_4.jpg,Red_Circle_Grid_3.jpg,right,648.6249999143183,false,high,NA,NA,NA,NA,NA,NA,NA,false
K7eEBB95,3axfspqoztbswwyvx39ztaxp9nrfjw,3ftop5warj13mchzlnvgfn6cphmj0j,K7eEBB95,2020-0188,2020-05-21,13:21:39,13:52:26,NA,incomplete,181,color,1,left,Blue_Star_Dots_2.jpg,Blue_Plus_Chess_4.jpg,Red_Star_Stripes_1.jpg,right,603.1650002114475,false,high,NA,NA,NA,NA,NA,NA,NA,false
K7eEBB95,3axfspqoztbswwyvx39ztaxp9nrfjw,3ftop5warj13mchzlnvgfn6cphmj0j,K7eEBB95,2020-0188,2020-05-21,13:21:39,13:52:26,NA,incomplete,182,color,1,left,Blue_Plus_Stripes_3.jpg,Blue_Star_Dots_2.jpg,Purple_Plus_Grid_4.jpg,left,567.524999845773,true,high,NA,NA,NA,NA,NA,NA,NA,false
K7eEBB95,3axfspqoztbswwyvx39ztaxp9nrfjw,3ftop5warj13mchzlnvgfn6cphmj0j,K7eEBB95,2020-0188,2020-05-21,13:21:39,13:52:26,NA,incomplete,183,color,1,left,Green_Star_Grid_2.jpg,Green_Plus_Stripes_3.jpg,Blue_Star_Dots_1.jpg,left,532.6699996367097,true,high,NA,NA,NA,NA,NA,NA,NA,false
K7eEBB95,3axfspqoztbswwyvx39ztaxp9nrfjw,3ftop5warj13mchzlnvgfn6cphmj0j,K7eEBB95,2020-0188,2020-05-21,13:21:39,13:52:26,NA,incomplete,184,color,1,right,Blue_Star_Chess_3.jpg,Red_Star_Stripes_2.jpg,Blue_Triangle_Dots_4.jpg,right,588.6599998921156,true,high,NA,NA,NA,NA,NA,NA,NA,false
K7eEBB95,3axfspqoztbswwyvx39ztaxp9nrfjw,3ftop5warj13mchzlnvgfn6cphmj0j,K7eEBB95,2020-0188,2020-05-21,13:21:39,13:52:26,NA,incomplete,185,color,1,right,Purple_Circle_Chess_4.jpg,Green_Circle_Stripes_3.jpg,Purple_Star_Dots_2.jpg,right,736.6749998182058,true,high,NA,NA,NA,NA,NA,NA,NA,false
K7eEBB95,3axfspqoztbswwyvx39ztaxp9nrfjw,3ftop5warj13mchzlnvgfn6cphmj0j,K7eEBB95,2020-0188,2020-05-21,13:21:39,13:52:26,NA,incomplete,186,color,1,left,Purple_Plus_Dots_2.jpg,Purple_Star_Stripes_3.jpg,Green_Plus_Grid_4.jpg,left,743.2450000196695,true,high,NA,NA,NA,NA,NA,NA,NA,false
K7eEBB95,3axfspqoztbswwyvx39ztaxp9nrfjw,3ftop5warj13mchzlnvgfn6cphmj0j,K7eEBB95,2020-0188,2020-05-21,13:21:39,13:52:26,NA,incomplete,187,color,1,right,Green_Plus_Stripes_1.jpg,Red_Plus_Dots_4.jpg,Green_Star_Chess_3.jpg,right,470.02500016242266,true,high,NA,NA,NA,NA,NA,NA,NA,false
K7eEBB95,3axfspqoztbswwyvx39ztaxp9nrfjw,3ftop5warj13mchzlnvgfn6cphmj0j,K7eEBB95,2020-0188,2020-05-21,13:21:39,13:52:26,NA,incomplete,188,color,1,left,Blue_Triangle_Chess_2.jpg,Blue_Circle_Grid_4.jpg,Red_Triangle_Dots_1.jpg,left,487.26999992504716,true,high,NA,NA,NA,NA,NA,NA,NA,false
K7eEBB95,3axfspqoztbswwyvx39ztaxp9nrfjw,3ftop5warj13mchzlnvgfn6cphmj0j,K7eEBB95,2020-0188,2020-05-21,13:21:39,13:52:26,NA,incomplete,189,color,0,left,Green_Plus_Stripes_1.jpg,Green_Circle_Chess_4.jpg,Red_Plus_Grid_2.jpg,left,528.5000000149012,true,high,NA,NA,NA,NA,NA,NA,NA,false
K7eEBB95,3axfspqoztbswwyvx39ztaxp9nrfjw,3ftop5warj13mchzlnvgfn6cphmj0j,K7eEBB95,2020-0188,2020-05-21,13:21:39,13:52:26,NA,incomplete,190,color,1,left,Purple_Circle_Dots_3.jpg,Purple_Star_Stripes_4.jpg,Red_Circle_Chess_2.jpg,left,559.3050001189113,true,high,NA,NA,NA,NA,NA,NA,NA,false
K7eEBB95,3axfspqoztbswwyvx39ztaxp9nrfjw,3ftop5warj13mchzlnvgfn6cphmj0j,K7eEBB95,2020-0188,2020-05-21,13:21:39,13:52:26,NA,incomplete,191,color,0,right,Purple_Star_Dots_4.jpg,Red_Star_Chess_2.jpg,Purple_Triangle_Stripes_3.jpg,right,557.3500003665686,true,high,NA,NA,NA,NA,NA,NA,NA,false
K7eEBB95,3axfspqoztbswwyvx39ztaxp9nrfjw,3ftop5warj13mchzlnvgfn6cphmj0j,K7eEBB95,2020-0188,2020-05-21,13:21:39,13:52:26,NA,incomplete,192,color,1,left,Blue_Plus_Grid_3.jpg,Blue_Star_Stripes_4.jpg,Purple_Plus_Chess_2.jpg,left,595.3750000335276,true,high,NA,NA,NA,NA,NA,NA,NA,false
K7eEBB95,3axfspqoztbswwyvx39ztaxp9nrfjw,3ftop5warj13mchzlnvgfn6cphmj0j,K7eEBB95,2020-0188,2020-05-21,13:21:39,13:52:26,NA,incomplete,193,color,1,left,Red_Plus_Chess_2.jpg,Red_Triangle_Stripes_4.jpg,Purple_Plus_Grid_3.jpg,left,488.07500023394823,true,high,NA,NA,NA,NA,NA,NA,NA,false
K7eEBB95,3axfspqoztbswwyvx39ztaxp9nrfjw,3ftop5warj13mchzlnvgfn6cphmj0j,K7eEBB95,2020-0188,2020-05-21,13:21:39,13:52:26,NA,incomplete,194,color,1,right,Blue_Triangle_Grid_4.jpg,Purple_Triangle_Chess_1.jpg,Blue_Star_Dots_2.jpg,right,481.39999993145466,true,high,NA,NA,NA,NA,NA,NA,NA,false
K7eEBB95,3axfspqoztbswwyvx39ztaxp9nrfjw,3ftop5warj13mchzlnvgfn6cphmj0j,K7eEBB95,2020-0188,2020-05-21,13:21:39,13:52:26,NA,incomplete,195,color,1,right,Purple_Plus_Dots_1.jpg,Green_Plus_Chess_2.jpg,Purple_Star_Stripes_4.jpg,right,529.9800001084805,true,high,NA,NA,NA,NA,NA,NA,NA,false
K7eEBB95,3axfspqoztbswwyvx39ztaxp9nrfjw,3ftop5warj13mchzlnvgfn6cphmj0j,K7eEBB95,2020-0188,2020-05-21,13:21:39,13:52:26,NA,incomplete,196,color,0,left,Blue_Star_Stripes_4.jpg,Blue_Plus_Grid_2.jpg,Green_Star_Chess_1.jpg,left,521.2899995967746,true,high,NA,NA,NA,NA,NA,NA,NA,false
K7eEBB95,3axfspqoztbswwyvx39ztaxp9nrfjw,3ftop5warj13mchzlnvgfn6cphmj0j,K7eEBB95,2020-0188,2020-05-21,13:21:39,13:52:26,NA,incomplete,197,color,1,left,Green_Plus_Dots_1.jpg,Green_Circle_Stripes_2.jpg,Purple_Plus_Grid_3.jpg,left,552.5899999774992,true,high,NA,NA,NA,NA,NA,NA,NA,false
K7eEBB95,3axfspqoztbswwyvx39ztaxp9nrfjw,3ftop5warj13mchzlnvgfn6cphmj0j,K7eEBB95,2020-0188,2020-05-21,13:21:39,13:52:26,NA,incomplete,198,color,1,left,Purple_Star_Grid_2.jpg,Purple_Plus_Chess_4.jpg,Red_Star_Stripes_3.jpg,left,526.7750001512468,true,high,NA,NA,NA,NA,NA,NA,NA,false
K7eEBB95,3axfspqoztbswwyvx39ztaxp9nrfjw,3ftop5warj13mchzlnvgfn6cphmj0j,K7eEBB95,2020-0188,2020-05-21,13:21:39,13:52:26,NA,incomplete,199,color,0,right,Green_Plus_Dots_2.jpg,Blue_Plus_Chess_4.jpg,Green_Star_Stripes_3.jpg,right,526.6350000165403,true,high,NA,NA,NA,NA,NA,NA,NA,false
K7eEBB95,3axfspqoztbswwyvx39ztaxp9nrfjw,3ftop5warj13mchzlnvgfn6cphmj0j,K7eEBB95,2020-0188,2020-05-21,13:21:39,13:52:26,NA,incomplete,200,shape,1,left,Green_Triangle_Grid_4.jpg,Red_Triangle_Stripes_3.jpg,Green_Star_Dots_2.jpg,right,533.4700001403689,false,high,NA,NA,NA,NA,NA,NA,NA,false
K7eEBB95,3axfspqoztbswwyvx39ztaxp9nrfjw,3ftop5warj13mchzlnvgfn6cphmj0j,K7eEBB95,2020-0188,2020-05-21,13:21:39,13:52:26,NA,incomplete,201,shape,1,left,Red_Star_Grid_1.jpg,Green_Star_Dots_4.jpg,Red_Circle_Stripes_3.jpg,left,828.7049997597933,true,high,NA,NA,NA,NA,NA,NA,NA,false
K7eEBB95,3axfspqoztbswwyvx39ztaxp9nrfjw,3ftop5warj13mchzlnvgfn6cphmj0j,K7eEBB95,2020-0188,2020-05-21,13:21:39,13:52:26,NA,incomplete,202,shape,0,left,Purple_Triangle_Stripes_1.jpg,Blue_Triangle_Grid_4.jpg,Purple_Plus_Chess_2.jpg,left,696.2850000709295,true,high,NA,NA,NA,NA,NA,NA,NA,false
K7eEBB95,3axfspqoztbswwyvx39ztaxp9nrfjw,3ftop5warj13mchzlnvgfn6cphmj0j,K7eEBB95,2020-0188,2020-05-21,13:21:39,13:52:26,NA,incomplete,203,shape,1,left,Purple_Triangle_Dots_4.jpg,Blue_Triangle_Chess_2.jpg,Purple_Plus_Grid_3.jpg,left,592.8400000557303,true,high,NA,NA,NA,NA,NA,NA,NA,false
K7eEBB95,3axfspqoztbswwyvx39ztaxp9nrfjw,3ftop5warj13mchzlnvgfn6cphmj0j,K7eEBB95,2020-0188,2020-05-21,13:21:39,13:52:26,NA,incomplete,204,shape,1,right,Purple_Star_Chess_1.jpg,Purple_Circle_Dots_3.jpg,Blue_Star_Stripes_2.jpg,right,694.2000002600253,true,high,NA,NA,NA,NA,NA,NA,NA,false
K7eEBB95,3axfspqoztbswwyvx39ztaxp9nrfjw,3ftop5warj13mchzlnvgfn6cphmj0j,K7eEBB95,2020-0188,2020-05-21,13:21:39,13:52:26,NA,incomplete,205,shape,1,right,Green_Circle_Chess_3.jpg,Green_Star_Grid_1.jpg,Red_Circle_Stripes_4.jpg,right,894.0650001168251,true,high,NA,NA,NA,NA,NA,NA,NA,false
K7eEBB95,3axfspqoztbswwyvx39ztaxp9nrfjw,3ftop5warj13mchzlnvgfn6cphmj0j,K7eEBB95,2020-0188,2020-05-21,13:21:39,13:52:26,NA,incomplete,206,shape,1,right,Green_Star_Stripes_3.jpg,Green_Triangle_Dots_1.jpg,Blue_Star_Grid_4.jpg,right,734.8050000146031,true,high,NA,NA,NA,NA,NA,NA,NA,false
K7eEBB95,3axfspqoztbswwyvx39ztaxp9nrfjw,3ftop5warj13mchzlnvgfn6cphmj0j,K7eEBB95,2020-0188,2020-05-21,13:21:39,13:52:26,NA,incomplete,207,shape,1,right,Green_Plus_Grid_4.jpg,Green_Circle_Chess_2.jpg,Purple_Plus_Stripes_3.jpg,right,741.5350000374019,true,high,NA,NA,NA,NA,NA,NA,NA,false
K7eEBB95,3axfspqoztbswwyvx39ztaxp9nrfjw,3ftop5warj13mchzlnvgfn6cphmj0j,K7eEBB95,2020-0188,2020-05-21,13:21:39,13:52:26,NA,incomplete,208,shape,1,left,Purple_Plus_Grid_4.jpg,Green_Plus_Dots_2.jpg,Purple_Circle_Stripes_3.jpg,left,540.1649996638298,true,high,NA,NA,NA,NA,NA,NA,NA,false
K7eEBB95,3axfspqoztbswwyvx39ztaxp9nrfjw,3ftop5warj13mchzlnvgfn6cphmj0j,K7eEBB95,2020-0188,2020-05-21,13:21:39,13:52:26,NA,incomplete,209,shape,1,left,Blue_Star_Stripes_2.jpg,Purple_Star_Chess_4.jpg,Blue_Plus_Grid_3.jpg,left,619.5599995553493,true,high,NA,NA,NA,NA,NA,NA,NA,false
K7eEBB95,3axfspqoztbswwyvx39ztaxp9nrfjw,3ftop5warj13mchzlnvgfn6cphmj0j,K7eEBB95,2020-0188,2020-05-21,13:21:39,13:52:26,NA,incomplete,210,shape,1,right,Green_Triangle_Chess_4.jpg,Green_Star_Dots_1.jpg,Red_Triangle_Grid_2.jpg,right,598.23999973014,true,high,NA,NA,NA,NA,NA,NA,NA,false
K7eEBB95,3axfspqoztbswwyvx39ztaxp9nrfjw,3ftop5warj13mchzlnvgfn6cphmj0j,K7eEBB95,2020-0188,2020-05-21,13:21:39,13:52:26,NA,incomplete,211,shape,1,right,Purple_Plus_Dots_4.jpg,Purple_Star_Stripes_2.jpg,Green_Plus_Grid_3.jpg,right,634.954999666661,true,high,NA,NA,NA,NA,NA,NA,NA,false
K7eEBB95,3axfspqoztbswwyvx39ztaxp9nrfjw,3ftop5warj13mchzlnvgfn6cphmj0j,K7eEBB95,2020-0188,2020-05-21,13:21:39,13:52:26,NA,incomplete,212,shape,0,left,Red_Triangle_Chess_4.jpg,Green_Triangle_Dots_2.jpg,Red_Star_Grid_1.jpg,left,613.5450000874698,true,high,NA,NA,NA,NA,NA,NA,NA,false
K7eEBB95,3axfspqoztbswwyvx39ztaxp9nrfjw,3ftop5warj13mchzlnvgfn6cphmj0j,K7eEBB95,2020-0188,2020-05-21,13:21:39,13:52:26,NA,incomplete,213,shape,1,left,Purple_Circle_Dots_1.jpg,Blue_Circle_Chess_3.jpg,Purple_Plus_Grid_2.jpg,left,657.6849999837577,true,high,NA,NA,NA,NA,NA,NA,NA,false
K7eEBB95,3axfspqoztbswwyvx39ztaxp9nrfjw,3ftop5warj13mchzlnvgfn6cphmj0j,K7eEBB95,2020-0188,2020-05-21,13:21:39,13:52:26,NA,incomplete,214,shape,1,right,Red_Plus_Grid_4.jpg,Red_Triangle_Dots_3.jpg,Green_Plus_Stripes_2.jpg,right,804.2150000110269,true,high,NA,NA,NA,NA,NA,NA,NA,false
K7eEBB95,3axfspqoztbswwyvx39ztaxp9nrfjw,3ftop5warj13mchzlnvgfn6cphmj0j,K7eEBB95,2020-0188,2020-05-21,13:21:39,13:52:26,NA,incomplete,215,shape,1,left,Red_Triangle_Chess_2.jpg,Blue_Triangle_Stripes_3.jpg,Red_Circle_Dots_4.jpg,left,551.729999948293,true,high,NA,NA,NA,NA,NA,NA,NA,false
K7eEBB95,3axfspqoztbswwyvx39ztaxp9nrfjw,3ftop5warj13mchzlnvgfn6cphmj0j,K7eEBB95,2020-0188,2020-05-21,13:21:39,13:52:26,NA,incomplete,216,shape,1,left,Purple_Star_Stripes_3.jpg,Green_Star_Grid_1.jpg,Purple_Plus_Dots_4.jpg,left,709.6799998544157,true,high,NA,NA,NA,NA,NA,NA,NA,false
K7eEBB95,3axfspqoztbswwyvx39ztaxp9nrfjw,3ftop5warj13mchzlnvgfn6cphmj0j,K7eEBB95,2020-0188,2020-05-21,13:21:39,13:52:26,NA,incomplete,217,shape,1,right,Red_Circle_Stripes_2.jpg,Red_Triangle_Chess_4.jpg,Purple_Circle_Dots_3.jpg,right,589.4450000487268,true,high,NA,NA,NA,NA,NA,NA,NA,false
K7eEBB95,3axfspqoztbswwyvx39ztaxp9nrfjw,3ftop5warj13mchzlnvgfn6cphmj0j,K7eEBB95,2020-0188,2020-05-21,13:21:39,13:52:26,NA,incomplete,218,shape,1,left,Red_Plus_Grid_2.jpg,Purple_Plus_Stripes_3.jpg,Red_Circle_Chess_1.jpg,left,610.2200001478195,true,high,NA,NA,NA,NA,NA,NA,NA,false
K7eEBB95,3axfspqoztbswwyvx39ztaxp9nrfjw,3ftop5warj13mchzlnvgfn6cphmj0j,K7eEBB95,2020-0188,2020-05-21,13:21:39,13:52:26,NA,incomplete,219,shape,1,left,Green_Triangle_Grid_1.jpg,Red_Triangle_Stripes_2.jpg,Green_Plus_Dots_4.jpg,right,654.7899995930493,false,high,NA,NA,NA,NA,NA,NA,NA,false
K7eEBB95,3axfspqoztbswwyvx39ztaxp9nrfjw,3ftop5warj13mchzlnvgfn6cphmj0j,K7eEBB95,2020-0188,2020-05-21,13:21:39,13:52:26,NA,incomplete,220,color,1,right,Blue_Star_Dots_3.jpg,Purple_Star_Chess_2.jpg,Blue_Plus_Grid_1.jpg,left,744.4099998101592,false,high,NA,NA,NA,NA,NA,NA,NA,false
K7eEBB95,3axfspqoztbswwyvx39ztaxp9nrfjw,3ftop5warj13mchzlnvgfn6cphmj0j,K7eEBB95,2020-0188,2020-05-21,13:21:39,13:52:26,NA,incomplete,221,color,1,left,Red_Star_Chess_1.jpg,Red_Plus_Dots_4.jpg,Blue_Star_Stripes_3.jpg,right,694.7800000198185,false,high,NA,NA,NA,NA,NA,NA,NA,false
K7eEBB95,3axfspqoztbswwyvx39ztaxp9nrfjw,3ftop5warj13mchzlnvgfn6cphmj0j,K7eEBB95,2020-0188,2020-05-21,13:21:39,13:52:26,NA,incomplete,222,color,1,left,Green_Star_Dots_1.jpg,Green_Triangle_Stripes_2.jpg,Red_Star_Grid_4.jpg,left,623.4849998727441,true,high,NA,NA,NA,NA,NA,NA,NA,false
K7eEBB95,3axfspqoztbswwyvx39ztaxp9nrfjw,3ftop5warj13mchzlnvgfn6cphmj0j,K7eEBB95,2020-0188,2020-05-21,13:21:39,13:52:26,NA,incomplete,223,color,1,left,Red_Circle_Grid_3.jpg,Red_Star_Stripes_2.jpg,Green_Circle_Dots_4.jpg,left,459.050000179559,true,high,NA,NA,NA,NA,NA,NA,NA,false
K7eEBB95,3axfspqoztbswwyvx39ztaxp9nrfjw,3ftop5warj13mchzlnvgfn6cphmj0j,K7eEBB95,2020-0188,2020-05-21,13:21:39,13:52:26,NA,incomplete,224,color,1,right,Green_Star_Chess_1.jpg,Red_Star_Grid_2.jpg,Green_Triangle_Stripes_3.jpg,right,549.5400000363588,true,high,NA,NA,NA,NA,NA,NA,NA,false
K7eEBB95,3axfspqoztbswwyvx39ztaxp9nrfjw,3ftop5warj13mchzlnvgfn6cphmj0j,K7eEBB95,2020-0188,2020-05-21,13:21:39,13:52:26,NA,incomplete,225,color,0,right,Red_Triangle_Dots_3.jpg,Purple_Triangle_Stripes_1.jpg,Red_Star_Chess_2.jpg,right,467.61999977752566,true,high,NA,NA,NA,NA,NA,NA,NA,false
K7eEBB95,3axfspqoztbswwyvx39ztaxp9nrfjw,3ftop5warj13mchzlnvgfn6cphmj0j,K7eEBB95,2020-0188,2020-05-21,13:21:39,13:52:26,NA,incomplete,226,color,1,left,Blue_Triangle_Dots_1.jpg,Blue_Plus_Stripes_2.jpg,Purple_Triangle_Chess_4.jpg,left,468.84500002488494,true,high,NA,NA,NA,NA,NA,NA,NA,false
K7eEBB95,3axfspqoztbswwyvx39ztaxp9nrfjw,3ftop5warj13mchzlnvgfn6cphmj0j,K7eEBB95,2020-0188,2020-05-21,13:21:39,13:52:26,NA,incomplete,227,color,0,right,Blue_Plus_Grid_2.jpg,Green_Plus_Chess_1.jpg,Blue_Star_Dots_3.jpg,right,558.3250001072884,true,high,NA,NA,NA,NA,NA,NA,NA,false
K7eEBB95,3axfspqoztbswwyvx39ztaxp9nrfjw,3ftop5warj13mchzlnvgfn6cphmj0j,K7eEBB95,2020-0188,2020-05-21,13:21:39,13:52:26,NA,incomplete,228,color,1,left,Red_Star_Chess_4.jpg,Red_Circle_Dots_3.jpg,Blue_Star_Stripes_2.jpg,left,540.2899999171495,true,high,NA,NA,NA,NA,NA,NA,NA,false
K7eEBB95,3axfspqoztbswwyvx39ztaxp9nrfjw,3ftop5warj13mchzlnvgfn6cphmj0j,K7eEBB95,2020-0188,2020-05-21,13:21:39,13:52:26,NA,incomplete,229,color,0,left,Blue_Triangle_Chess_1.jpg,Blue_Plus_Stripes_4.jpg,Purple_Triangle_Grid_2.jpg,left,474.9900000169873,true,high,NA,NA,NA,NA,NA,NA,NA,false
K7eEBB95,3axfspqoztbswwyvx39ztaxp9nrfjw,3ftop5warj13mchzlnvgfn6cphmj0j,K7eEBB95,2020-0188,2020-05-21,13:21:39,13:52:26,NA,incomplete,230,color,1,right,Purple_Triangle_Stripes_4.jpg,Blue_Triangle_Grid_1.jpg,Purple_Circle_Dots_2.jpg,right,749.0699999034405,true,high,NA,NA,NA,NA,NA,NA,NA,false
K7eEBB95,3axfspqoztbswwyvx39ztaxp9nrfjw,3ftop5warj13mchzlnvgfn6cphmj0j,K7eEBB95,2020-0188,2020-05-21,13:21:39,13:52:26,NA,incomplete,231,color,1,left,Green_Star_Dots_1.jpg,Green_Circle_Grid_2.jpg,Blue_Star_Stripes_4.jpg,left,547.1750004217029,true,high,NA,NA,NA,NA,NA,NA,NA,false
K7eEBB95,3axfspqoztbswwyvx39ztaxp9nrfjw,3ftop5warj13mchzlnvgfn6cphmj0j,K7eEBB95,2020-0188,2020-05-21,13:21:39,13:52:26,NA,incomplete,232,color,1,right,Purple_Triangle_Dots_3.jpg,Green_Triangle_Grid_2.jpg,Purple_Circle_Stripes_1.jpg,right,609.6749999560416,true,high,NA,NA,NA,NA,NA,NA,NA,false
K7eEBB95,3axfspqoztbswwyvx39ztaxp9nrfjw,3ftop5warj13mchzlnvgfn6cphmj0j,K7eEBB95,2020-0188,2020-05-21,13:21:39,13:52:26,NA,incomplete,233,color,1,left,Blue_Circle_Grid_2.jpg,Blue_Star_Dots_3.jpg,Green_Circle_Stripes_1.jpg,left,485.67500011995435,true,high,NA,NA,NA,NA,NA,NA,NA,false
K7eEBB95,3axfspqoztbswwyvx39ztaxp9nrfjw,3ftop5warj13mchzlnvgfn6cphmj0j,K7eEBB95,2020-0188,2020-05-21,13:21:39,13:52:26,NA,incomplete,234,color,1,right,Blue_Circle_Chess_3.jpg,Purple_Circle_Dots_2.jpg,Blue_Plus_Grid_1.jpg,right,518.3399999514222,true,high,NA,NA,NA,NA,NA,NA,NA,false
K7eEBB95,3axfspqoztbswwyvx39ztaxp9nrfjw,3ftop5warj13mchzlnvgfn6cphmj0j,K7eEBB95,2020-0188,2020-05-21,13:21:39,13:52:26,NA,incomplete,235,color,0,right,Red_Circle_Grid_1.jpg,Purple_Circle_Chess_2.jpg,Red_Plus_Stripes_4.jpg,right,590.3699998743832,true,high,NA,NA,NA,NA,NA,NA,NA,false
K7eEBB95,3axfspqoztbswwyvx39ztaxp9nrfjw,3ftop5warj13mchzlnvgfn6cphmj0j,K7eEBB95,2020-0188,2020-05-21,13:21:39,13:52:26,NA,incomplete,236,color,1,left,Blue_Triangle_Chess_3.jpg,Blue_Circle_Dots_1.jpg,Purple_Triangle_Grid_4.jpg,left,578.3700002357364,true,high,NA,NA,NA,NA,NA,NA,NA,false
K7eEBB95,3axfspqoztbswwyvx39ztaxp9nrfjw,3ftop5warj13mchzlnvgfn6cphmj0j,K7eEBB95,2020-0188,2020-05-21,13:21:39,13:52:26,NA,incomplete,237,color,0,left,Green_Circle_Grid_4.jpg,Green_Triangle_Stripes_3.jpg,Blue_Circle_Chess_1.jpg,left,463.68000004440546,true,high,NA,NA,NA,NA,NA,NA,NA,false
K7eEBB95,3axfspqoztbswwyvx39ztaxp9nrfjw,3ftop5warj13mchzlnvgfn6cphmj0j,K7eEBB95,2020-0188,2020-05-21,13:21:39,13:52:26,NA,incomplete,238,color,1,left,Red_Circle_Chess_3.jpg,Red_Triangle_Stripes_1.jpg,Purple_Circle_Dots_2.jpg,left,473.705000244081,true,high,NA,NA,NA,NA,NA,NA,NA,false
K7eEBB95,3axfspqoztbswwyvx39ztaxp9nrfjw,3ftop5warj13mchzlnvgfn6cphmj0j,K7eEBB95,2020-0188,2020-05-21,13:21:39,13:52:26,NA,incomplete,239,color,1,left,Purple_Star_Dots_4.jpg,Purple_Plus_Chess_3.jpg,Blue_Star_Grid_1.jpg,left,546.8950001522899,true,high,NA,NA,NA,NA,NA,NA,NA,false
K7eEBB95,3axfspqoztbswwyvx39ztaxp9nrfjw,3ftop5warj13mchzlnvgfn6cphmj0j,K7eEBB95,2020-0188,2020-05-21,13:21:39,13:52:26,NA,NA,instruction example,filling,NA,NA,Green_Star_Dots_1.jpg,Blue_Triangle_Dots_2.jpg,Red_Circle_Grid_1.jpg,NA,NA,NA,NA,NA,NA,NA,NA,NA,NA,NA,undefined
K7eEBB95,3axfspqoztbswwyvx39ztaxp9nrfjw,3ftop5warj13mchzlnvgfn6cphmj0j,K7eEBB95,2020-0188,2020-05-21,13:21:39,13:52:26,NA,NA,instruction example,filling,NA,NA,Green_Star_Grid_3.jpg,Purple_Plus_Chess_3.jpg,Red_Circle_Grid_4.jpg,NA,NA,NA,NA,NA,NA,NA,NA,NA,NA,NA,undefined
K7eEBB95,3axfspqoztbswwyvx39ztaxp9nrfjw,3ftop5warj13mchzlnvgfn6cphmj0j,K7eEBB95,2020-0188,2020-05-21,13:21:39,13:52:26,NA,NA,instruction example,filling,NA,NA,Purple_Star_Stripes_3.jpg,Green_Star_Dots_1.jpg,Purple_Triangle_Chess_4.jpg,NA,NA,NA,NA,NA,NA,NA,NA,NA,NA,NA,undefined
K7eEBB95,3axfspqoztbswwyvx39ztaxp9nrfjw,3ftop5warj13mchzlnvgfn6cphmj0j,K7eEBB95,2020-0188,2020-05-21,13:21:39,13:52:26,NA,NA,instruction example,filling,NA,NA,Red_Star_Grid_3.jpg,Red_Circle_Dots_4.jpg,Blue_Star_Chess_1.jpg,NA,NA,NA,NA,NA,NA,NA,NA,NA,NA,NA,undefined
K7eEBB95,3axfspqoztbswwyvx39ztaxp9nrfjw,3ftop5warj13mchzlnvgfn6cphmj0j,K7eEBB95,2020-0188,2020-05-21,13:21:39,13:52:26,1824060.6350000016,1847968.3199999854,NA,NA,NA,NA,NA,NA,NA,NA,NA,NA,NA,35,White/Caucasian,Male,Caucasian,no,no,no,undefined
