workerId,hitId,assignmentId,subject,studyid,exp_date,exp_start,exp_end,time_start,time_end,trial,type,reward_validity,answer,image_top,image_left,image_right,response,response_time,response_acc,volatility,age,race,gender,ethnicity,color,vision,neuro,practice
LVgleBuc,3lvtfb9df8vfwjy33dzq8w9nvhnqgc,3gm6g9zbkrau3tkbmmwifq0zojotmd,LVgleBuc,2020-0188,2020-11-18,16:06:09,16:22:01,NA,incomplete,0,shape,1,left,Red_Triangle_Grid_3.jpg,Green_Triangle_Chess_2.jpg,Purple_Circle_Grid_4.jpg,none,0,false,NA,NA,NA,NA,NA,NA,NA,NA,true
LVgleBuc,3lvtfb9df8vfwjy33dzq8w9nvhnqgc,3gm6g9zbkrau3tkbmmwifq0zojotmd,LVgleBuc,2020-0188,2020-11-18,16:06:09,16:22:01,NA,incomplete,1,shape,1,left,Red_Plus_Grid_2.jpg,Purple_Plus_Chess_4.jpg,Blue_Star_Grid_1.jpg,left,931.0250000562519,true,NA,NA,NA,NA,NA,NA,NA,NA,true
LVgleBuc,3lvtfb9df8vfwjy33dzq8w9nvhnqgc,3gm6g9zbkrau3tkbmmwifq0zojotmd,LVgleBuc,2020-0188,2020-11-18,16:06:09,16:22:01,NA,incomplete,2,shape,0,right,Blue_Circle_Chess_1.jpg,Green_Plus_Chess_2.jpg,Purple_Circle_Stripes_4.jpg,right,814.0549999661744,true,NA,NA,NA,NA,NA,NA,NA,NA,true
LVgleBuc,3lvtfb9df8vfwjy33dzq8w9nvhnqgc,3gm6g9zbkrau3tkbmmwifq0zojotmd,LVgleBuc,2020-0188,2020-11-18,16:06:09,16:22:01,NA,incomplete,3,shape,1,left,Purple_Circle_Dots_4.jpg,Blue_Circle_Chess_3.jpg,Green_Triangle_Dots_1.jpg,left,753.0550002120435,true,NA,NA,NA,NA,NA,NA,NA,NA,true
LVgleBuc,3lvtfb9df8vfwjy33dzq8w9nvhnqgc,3gm6g9zbkrau3tkbmmwifq0zojotmd,LVgleBuc,2020-0188,2020-11-18,16:06:09,16:22:01,NA,incomplete,4,shape,1,right,Purple_Star_Dots_2.jpg,Green_Triangle_Dots_1.jpg,Red_Star_Stripes_3.jpg,right,568.6149999964982,true,NA,NA,NA,NA,NA,NA,NA,NA,true
LVgleBuc,3lvtfb9df8vfwjy33dzq8w9nvhnqgc,3gm6g9zbkrau3tkbmmwifq0zojotmd,LVgleBuc,2020-0188,2020-11-18,16:06:09,16:22:01,NA,incomplete,5,shape,1,right,Red_Circle_Dots_2.jpg,Blue_Star_Dots_4.jpg,Purple_Circle_Chess_3.jpg,right,886.970000108704,true,NA,NA,NA,NA,NA,NA,NA,NA,true
LVgleBuc,3lvtfb9df8vfwjy33dzq8w9nvhnqgc,3gm6g9zbkrau3tkbmmwifq0zojotmd,LVgleBuc,2020-0188,2020-11-18,16:06:09,16:22:01,NA,incomplete,6,shape,1,left,Red_Triangle_Chess_1.jpg,Blue_Triangle_Dots_2.jpg,Green_Plus_Chess_3.jpg,left,1041.484999936074,true,NA,NA,NA,NA,NA,NA,NA,NA,true
LVgleBuc,3lvtfb9df8vfwjy33dzq8w9nvhnqgc,3gm6g9zbkrau3tkbmmwifq0zojotmd,LVgleBuc,2020-0188,2020-11-18,16:06:09,16:22:01,NA,incomplete,7,shape,0,left,Purple_Star_Chess_1.jpg,Red_Star_Stripes_2.jpg,Green_Plus_Chess_3.jpg,left,892.6399999763817,true,NA,NA,NA,NA,NA,NA,NA,NA,true
LVgleBuc,3lvtfb9df8vfwjy33dzq8w9nvhnqgc,3gm6g9zbkrau3tkbmmwifq0zojotmd,LVgleBuc,2020-0188,2020-11-18,16:06:09,16:22:01,NA,incomplete,8,shape,1,right,Green_Star_Chess_2.jpg,Blue_Circle_Chess_3.jpg,Red_Star_Stripes_4.jpg,right,864.2499998677522,true,NA,NA,NA,NA,NA,NA,NA,NA,true
LVgleBuc,3lvtfb9df8vfwjy33dzq8w9nvhnqgc,3gm6g9zbkrau3tkbmmwifq0zojotmd,LVgleBuc,2020-0188,2020-11-18,16:06:09,16:22:01,NA,incomplete,9,shape,1,left,Green_Circle_Stripes_2.jpg,Red_Circle_Grid_3.jpg,Purple_Plus_Stripes_4.jpg,left,573.4149999916553,true,NA,NA,NA,NA,NA,NA,NA,NA,true
LVgleBuc,3lvtfb9df8vfwjy33dzq8w9nvhnqgc,3gm6g9zbkrau3tkbmmwifq0zojotmd,LVgleBuc,2020-0188,2020-11-18,16:06:09,16:22:01,NA,incomplete,10,shape,1,left,Blue_Plus_Dots_1.jpg,Purple_Plus_Stripes_3.jpg,Red_Triangle_Dots_2.jpg,left,611.8999999016523,true,NA,NA,NA,NA,NA,NA,NA,NA,true
LVgleBuc,3lvtfb9df8vfwjy33dzq8w9nvhnqgc,3gm6g9zbkrau3tkbmmwifq0zojotmd,LVgleBuc,2020-0188,2020-11-18,16:06:09,16:22:01,NA,incomplete,11,shape,1,right,Red_Circle_Dots_2.jpg,Blue_Triangle_Dots_1.jpg,Green_Circle_Stripes_4.jpg,right,512.4649999197572,true,NA,NA,NA,NA,NA,NA,NA,NA,true
LVgleBuc,3lvtfb9df8vfwjy33dzq8w9nvhnqgc,3gm6g9zbkrau3tkbmmwifq0zojotmd,LVgleBuc,2020-0188,2020-11-18,16:06:09,16:22:01,NA,incomplete,12,shape,0,left,Red_Star_Dots_2.jpg,Purple_Star_Stripes_4.jpg,Green_Triangle_Dots_3.jpg,left,661.8850000668317,true,NA,NA,NA,NA,NA,NA,NA,NA,true
LVgleBuc,3lvtfb9df8vfwjy33dzq8w9nvhnqgc,3gm6g9zbkrau3tkbmmwifq0zojotmd,LVgleBuc,2020-0188,2020-11-18,16:06:09,16:22:01,NA,incomplete,13,shape,1,left,Blue_Plus_Grid_1.jpg,Purple_Plus_Dots_4.jpg,Green_Circle_Grid_2.jpg,left,1919.2950001452118,true,NA,NA,NA,NA,NA,NA,NA,NA,true
LVgleBuc,3lvtfb9df8vfwjy33dzq8w9nvhnqgc,3gm6g9zbkrau3tkbmmwifq0zojotmd,LVgleBuc,2020-0188,2020-11-18,16:06:09,16:22:01,NA,incomplete,14,shape,1,left,Red_Circle_Grid_2.jpg,Blue_Circle_Chess_4.jpg,Purple_Triangle_Grid_3.jpg,right,1511.3449997734278,false,NA,NA,NA,NA,NA,NA,NA,NA,true
LVgleBuc,3lvtfb9df8vfwjy33dzq8w9nvhnqgc,3gm6g9zbkrau3tkbmmwifq0zojotmd,LVgleBuc,2020-0188,2020-11-18,16:06:09,16:22:01,NA,incomplete,15,shape,1,right,Green_Triangle_Grid_1.jpg,Purple_Star_Grid_2.jpg,Blue_Triangle_Stripes_3.jpg,right,776.3050000648946,true,NA,NA,NA,NA,NA,NA,NA,NA,true
LVgleBuc,3lvtfb9df8vfwjy33dzq8w9nvhnqgc,3gm6g9zbkrau3tkbmmwifq0zojotmd,LVgleBuc,2020-0188,2020-11-18,16:06:09,16:22:01,NA,incomplete,16,shape,1,right,Purple_Star_Chess_1.jpg,Green_Circle_Chess_2.jpg,Blue_Star_Grid_3.jpg,right,970.8799999207258,true,NA,NA,NA,NA,NA,NA,NA,NA,true
LVgleBuc,3lvtfb9df8vfwjy33dzq8w9nvhnqgc,3gm6g9zbkrau3tkbmmwifq0zojotmd,LVgleBuc,2020-0188,2020-11-18,16:06:09,16:22:01,NA,incomplete,17,shape,1,right,Purple_Plus_Dots_1.jpg,Green_Star_Dots_2.jpg,Red_Plus_Grid_3.jpg,right,676.7700000200421,true,NA,NA,NA,NA,NA,NA,NA,NA,true
LVgleBuc,3lvtfb9df8vfwjy33dzq8w9nvhnqgc,3gm6g9zbkrau3tkbmmwifq0zojotmd,LVgleBuc,2020-0188,2020-11-18,16:06:09,16:22:01,NA,incomplete,18,shape,0,left,Red_Circle_Chess_4.jpg,Green_Circle_Stripes_2.jpg,Purple_Plus_Chess_1.jpg,left,742.6050000358373,true,NA,NA,NA,NA,NA,NA,NA,NA,true
LVgleBuc,3lvtfb9df8vfwjy33dzq8w9nvhnqgc,3gm6g9zbkrau3tkbmmwifq0zojotmd,LVgleBuc,2020-0188,2020-11-18,16:06:09,16:22:01,NA,incomplete,19,shape,1,left,Red_Circle_Dots_3.jpg,Green_Circle_Stripes_1.jpg,Blue_Plus_Dots_4.jpg,left,1078.6199998110533,true,NA,NA,NA,NA,NA,NA,NA,NA,true
LVgleBuc,3lvtfb9df8vfwjy33dzq8w9nvhnqgc,3gm6g9zbkrau3tkbmmwifq0zojotmd,LVgleBuc,2020-0188,2020-11-18,16:06:09,16:22:01,NA,incomplete,20,filling,1,right,Purple_Star_Stripes_1.jpg,Red_Star_Grid_2.jpg,Green_Plus_Stripes_4.jpg,left,707.8250001650304,false,NA,NA,NA,NA,NA,NA,NA,NA,true
LVgleBuc,3lvtfb9df8vfwjy33dzq8w9nvhnqgc,3gm6g9zbkrau3tkbmmwifq0zojotmd,LVgleBuc,2020-0188,2020-11-18,16:06:09,16:22:01,NA,incomplete,21,filling,1,right,Purple_Circle_Dots_4.jpg,Green_Circle_Grid_3.jpg,Blue_Star_Dots_2.jpg,left,1522.0949999056756,false,NA,NA,NA,NA,NA,NA,NA,NA,true
LVgleBuc,3lvtfb9df8vfwjy33dzq8w9nvhnqgc,3gm6g9zbkrau3tkbmmwifq0zojotmd,LVgleBuc,2020-0188,2020-11-18,16:06:09,16:22:01,NA,incomplete,22,filling,1,left,Red_Plus_Grid_1.jpg,Purple_Circle_Grid_2.jpg,Green_Plus_Dots_4.jpg,right,1639.2200000118464,false,NA,NA,NA,NA,NA,NA,NA,NA,true
LVgleBuc,3lvtfb9df8vfwjy33dzq8w9nvhnqgc,3gm6g9zbkrau3tkbmmwifq0zojotmd,LVgleBuc,2020-0188,2020-11-18,16:06:09,16:22:01,NA,incomplete,23,filling,1,left,Purple_Plus_Chess_3.jpg,Red_Star_Chess_4.jpg,Blue_Plus_Dots_2.jpg,right,983.0350000411272,false,NA,NA,NA,NA,NA,NA,NA,NA,true
LVgleBuc,3lvtfb9df8vfwjy33dzq8w9nvhnqgc,3gm6g9zbkrau3tkbmmwifq0zojotmd,LVgleBuc,2020-0188,2020-11-18,16:06:09,16:22:01,NA,incomplete,24,filling,0,right,Red_Plus_Dots_1.jpg,Green_Plus_Stripes_4.jpg,Blue_Star_Dots_2.jpg,left,761.8050000164658,false,NA,NA,NA,NA,NA,NA,NA,NA,true
LVgleBuc,3lvtfb9df8vfwjy33dzq8w9nvhnqgc,3gm6g9zbkrau3tkbmmwifq0zojotmd,LVgleBuc,2020-0188,2020-11-18,16:06:09,16:22:01,NA,incomplete,25,filling,1,right,Purple_Plus_Dots_2.jpg,Red_Plus_Grid_3.jpg,Blue_Circle_Dots_4.jpg,left,617.8749999962747,false,NA,NA,NA,NA,NA,NA,NA,NA,true
LVgleBuc,3lvtfb9df8vfwjy33dzq8w9nvhnqgc,3gm6g9zbkrau3tkbmmwifq0zojotmd,LVgleBuc,2020-0188,2020-11-18,16:06:09,16:22:01,NA,incomplete,26,filling,0,left,Green_Star_Stripes_4.jpg,Purple_Circle_Stripes_1.jpg,Red_Star_Chess_2.jpg,right,664.3650000914931,false,NA,NA,NA,NA,NA,NA,NA,NA,true
LVgleBuc,3lvtfb9df8vfwjy33dzq8w9nvhnqgc,3gm6g9zbkrau3tkbmmwifq0zojotmd,LVgleBuc,2020-0188,2020-11-18,16:06:09,16:22:01,NA,incomplete,27,filling,1,right,Blue_Plus_Stripes_3.jpg,Green_Plus_Dots_1.jpg,Red_Star_Stripes_2.jpg,left,693.5600000433624,false,NA,NA,NA,NA,NA,NA,NA,NA,true
LVgleBuc,3lvtfb9df8vfwjy33dzq8w9nvhnqgc,3gm6g9zbkrau3tkbmmwifq0zojotmd,LVgleBuc,2020-0188,2020-11-18,16:06:09,16:22:01,NA,incomplete,28,filling,1,left,Blue_Circle_Grid_1.jpg,Purple_Star_Grid_3.jpg,Red_Circle_Stripes_2.jpg,right,688.8399999588728,false,NA,NA,NA,NA,NA,NA,NA,NA,true
LVgleBuc,3lvtfb9df8vfwjy33dzq8w9nvhnqgc,3gm6g9zbkrau3tkbmmwifq0zojotmd,LVgleBuc,2020-0188,2020-11-18,16:06:09,16:22:01,NA,incomplete,29,filling,1,right,Red_Star_Grid_3.jpg,Green_Star_Chess_4.jpg,Purple_Triangle_Grid_1.jpg,left,985.4949999134988,false,NA,NA,NA,NA,NA,NA,NA,NA,true
LVgleBuc,3lvtfb9df8vfwjy33dzq8w9nvhnqgc,3gm6g9zbkrau3tkbmmwifq0zojotmd,LVgleBuc,2020-0188,2020-11-18,16:06:09,16:22:01,NA,incomplete,30,filling,0,left,Blue_Circle_Grid_4.jpg,Green_Triangle_Grid_2.jpg,Red_Circle_Dots_1.jpg,right,918.3699998538941,false,NA,NA,NA,NA,NA,NA,NA,NA,true
LVgleBuc,3lvtfb9df8vfwjy33dzq8w9nvhnqgc,3gm6g9zbkrau3tkbmmwifq0zojotmd,LVgleBuc,2020-0188,2020-11-18,16:06:09,16:22:01,NA,incomplete,31,filling,1,right,Purple_Circle_Grid_4.jpg,Blue_Circle_Dots_3.jpg,Red_Plus_Grid_1.jpg,left,729.1900001000613,false,NA,NA,NA,NA,NA,NA,NA,NA,true
LVgleBuc,3lvtfb9df8vfwjy33dzq8w9nvhnqgc,3gm6g9zbkrau3tkbmmwifq0zojotmd,LVgleBuc,2020-0188,2020-11-18,16:06:09,16:22:01,NA,incomplete,32,filling,1,left,Red_Plus_Grid_4.jpg,Green_Triangle_Grid_3.jpg,Blue_Plus_Dots_2.jpg,right,1262.7550000324845,false,NA,NA,NA,NA,NA,NA,NA,NA,true
LVgleBuc,3lvtfb9df8vfwjy33dzq8w9nvhnqgc,3gm6g9zbkrau3tkbmmwifq0zojotmd,LVgleBuc,2020-0188,2020-11-18,16:06:09,16:22:01,NA,incomplete,33,filling,1,left,Red_Triangle_Dots_2.jpg,Purple_Plus_Dots_4.jpg,Blue_Triangle_Grid_1.jpg,right,985.2100000716746,false,NA,NA,NA,NA,NA,NA,NA,NA,true
LVgleBuc,3lvtfb9df8vfwjy33dzq8w9nvhnqgc,3gm6g9zbkrau3tkbmmwifq0zojotmd,LVgleBuc,2020-0188,2020-11-18,16:06:09,16:22:01,NA,incomplete,34,filling,1,right,Blue_Circle_Grid_3.jpg,Purple_Circle_Stripes_4.jpg,Red_Plus_Grid_2.jpg,left,575.7000001613051,false,NA,NA,NA,NA,NA,NA,NA,NA,true
LVgleBuc,3lvtfb9df8vfwjy33dzq8w9nvhnqgc,3gm6g9zbkrau3tkbmmwifq0zojotmd,LVgleBuc,2020-0188,2020-11-18,16:06:09,16:22:01,NA,incomplete,35,filling,1,left,Purple_Triangle_Stripes_1.jpg,Red_Star_Stripes_4.jpg,Green_Triangle_Chess_3.jpg,left,1303.6700000520796,true,NA,NA,NA,NA,NA,NA,NA,NA,true
LVgleBuc,3lvtfb9df8vfwjy33dzq8w9nvhnqgc,3gm6g9zbkrau3tkbmmwifq0zojotmd,LVgleBuc,2020-0188,2020-11-18,16:06:09,16:22:01,NA,incomplete,36,filling,1,left,Green_Plus_Chess_2.jpg,Purple_Star_Chess_3.jpg,Red_Plus_Stripes_1.jpg,left,1623.4899999108166,true,NA,NA,NA,NA,NA,NA,NA,NA,true
LVgleBuc,3lvtfb9df8vfwjy33dzq8w9nvhnqgc,3gm6g9zbkrau3tkbmmwifq0zojotmd,LVgleBuc,2020-0188,2020-11-18,16:06:09,16:22:01,NA,incomplete,37,filling,1,left,Green_Plus_Dots_3.jpg,Red_Circle_Dots_2.jpg,Purple_Plus_Stripes_1.jpg,right,1509.410000173375,false,NA,NA,NA,NA,NA,NA,NA,NA,true
LVgleBuc,3lvtfb9df8vfwjy33dzq8w9nvhnqgc,3gm6g9zbkrau3tkbmmwifq0zojotmd,LVgleBuc,2020-0188,2020-11-18,16:06:09,16:22:01,NA,incomplete,38,filling,0,right,Red_Plus_Grid_3.jpg,Green_Plus_Chess_1.jpg,Purple_Triangle_Grid_2.jpg,right,1379.6849998179823,true,NA,NA,NA,NA,NA,NA,NA,NA,true
LVgleBuc,3lvtfb9df8vfwjy33dzq8w9nvhnqgc,3gm6g9zbkrau3tkbmmwifq0zojotmd,LVgleBuc,2020-0188,2020-11-18,16:06:09,16:22:01,NA,incomplete,39,filling,1,right,Green_Circle_Dots_3.jpg,Blue_Circle_Grid_1.jpg,Red_Star_Dots_2.jpg,none,0,false,NA,NA,NA,NA,NA,NA,NA,NA,true
LVgleBuc,3lvtfb9df8vfwjy33dzq8w9nvhnqgc,3gm6g9zbkrau3tkbmmwifq0zojotmd,LVgleBuc,2020-0188,2020-11-18,16:06:09,16:22:01,NA,incomplete,0,shape,0,right,Red_Triangle_Stripes_3.jpg,Purple_Plus_Stripes_2.jpg,Green_Triangle_Dots_4.jpg,right,834.9500000476837,true,low,NA,NA,NA,NA,NA,NA,NA,false
LVgleBuc,3lvtfb9df8vfwjy33dzq8w9nvhnqgc,3gm6g9zbkrau3tkbmmwifq0zojotmd,LVgleBuc,2020-0188,2020-11-18,16:06:09,16:22:01,NA,incomplete,1,shape,1,left,Green_Plus_Chess_4.jpg,Red_Plus_Grid_3.jpg,Blue_Star_Chess_2.jpg,left,660.5199999175966,true,low,NA,NA,NA,NA,NA,NA,NA,false
LVgleBuc,3lvtfb9df8vfwjy33dzq8w9nvhnqgc,3gm6g9zbkrau3tkbmmwifq0zojotmd,LVgleBuc,2020-0188,2020-11-18,16:06:09,16:22:01,NA,incomplete,2,shape,1,left,Red_Plus_Stripes_3.jpg,Blue_Plus_Chess_4.jpg,Purple_Star_Stripes_1.jpg,left,646.6349998954684,true,low,NA,NA,NA,NA,NA,NA,NA,false
LVgleBuc,3lvtfb9df8vfwjy33dzq8w9nvhnqgc,3gm6g9zbkrau3tkbmmwifq0zojotmd,LVgleBuc,2020-0188,2020-11-18,16:06:09,16:22:01,NA,incomplete,3,shape,1,left,Green_Plus_Dots_1.jpg,Red_Plus_Chess_3.jpg,Purple_Star_Dots_4.jpg,left,679.5350001193583,true,low,NA,NA,NA,NA,NA,NA,NA,false
LVgleBuc,3lvtfb9df8vfwjy33dzq8w9nvhnqgc,3gm6g9zbkrau3tkbmmwifq0zojotmd,LVgleBuc,2020-0188,2020-11-18,16:06:09,16:22:01,NA,incomplete,4,shape,1,right,Green_Star_Stripes_1.jpg,Red_Triangle_Stripes_4.jpg,Purple_Star_Chess_3.jpg,right,640.1349999941885,true,low,NA,NA,NA,NA,NA,NA,NA,false
LVgleBuc,3lvtfb9df8vfwjy33dzq8w9nvhnqgc,3gm6g9zbkrau3tkbmmwifq0zojotmd,LVgleBuc,2020-0188,2020-11-18,16:06:09,16:22:01,NA,incomplete,5,shape,1,right,Green_Plus_Stripes_2.jpg,Red_Star_Stripes_3.jpg,Purple_Plus_Dots_4.jpg,right,939.2399999778718,true,low,NA,NA,NA,NA,NA,NA,NA,false
LVgleBuc,3lvtfb9df8vfwjy33dzq8w9nvhnqgc,3gm6g9zbkrau3tkbmmwifq0zojotmd,LVgleBuc,2020-0188,2020-11-18,16:06:09,16:22:01,NA,incomplete,6,shape,1,right,Blue_Triangle_Dots_4.jpg,Purple_Circle_Dots_2.jpg,Red_Triangle_Grid_1.jpg,right,885.9249998349696,true,low,NA,NA,NA,NA,NA,NA,NA,false
LVgleBuc,3lvtfb9df8vfwjy33dzq8w9nvhnqgc,3gm6g9zbkrau3tkbmmwifq0zojotmd,LVgleBuc,2020-0188,2020-11-18,16:06:09,16:22:01,NA,incomplete,7,shape,1,left,Green_Triangle_Chess_4.jpg,Purple_Triangle_Dots_3.jpg,Red_Plus_Chess_1.jpg,left,820.1150000095367,true,low,NA,NA,NA,NA,NA,NA,NA,false
LVgleBuc,3lvtfb9df8vfwjy33dzq8w9nvhnqgc,3gm6g9zbkrau3tkbmmwifq0zojotmd,LVgleBuc,2020-0188,2020-11-18,16:06:09,16:22:01,NA,incomplete,8,shape,1,right,Red_Plus_Chess_3.jpg,Purple_Triangle_Chess_1.jpg,Green_Plus_Stripes_4.jpg,right,720.3349999617785,true,low,NA,NA,NA,NA,NA,NA,NA,false
LVgleBuc,3lvtfb9df8vfwjy33dzq8w9nvhnqgc,3gm6g9zbkrau3tkbmmwifq0zojotmd,LVgleBuc,2020-0188,2020-11-18,16:06:09,16:22:01,NA,incomplete,9,shape,0,right,Purple_Plus_Chess_2.jpg,Green_Star_Chess_4.jpg,Red_Plus_Grid_1.jpg,right,731.8400000222027,true,low,NA,NA,NA,NA,NA,NA,NA,false
LVgleBuc,3lvtfb9df8vfwjy33dzq8w9nvhnqgc,3gm6g9zbkrau3tkbmmwifq0zojotmd,LVgleBuc,2020-0188,2020-11-18,16:06:09,16:22:01,NA,incomplete,10,shape,1,left,Green_Circle_Stripes_1.jpg,Purple_Circle_Chess_2.jpg,Red_Plus_Stripes_4.jpg,left,557.3849999345839,true,low,NA,NA,NA,NA,NA,NA,NA,false
LVgleBuc,3lvtfb9df8vfwjy33dzq8w9nvhnqgc,3gm6g9zbkrau3tkbmmwifq0zojotmd,LVgleBuc,2020-0188,2020-11-18,16:06:09,16:22:01,NA,incomplete,11,shape,1,left,Purple_Triangle_Dots_3.jpg,Green_Triangle_Chess_2.jpg,Blue_Plus_Dots_1.jpg,left,700.2499999944121,true,low,NA,NA,NA,NA,NA,NA,NA,false
LVgleBuc,3lvtfb9df8vfwjy33dzq8w9nvhnqgc,3gm6g9zbkrau3tkbmmwifq0zojotmd,LVgleBuc,2020-0188,2020-11-18,16:06:09,16:22:01,NA,incomplete,12,shape,1,right,Blue_Circle_Dots_1.jpg,Purple_Star_Dots_2.jpg,Green_Circle_Chess_3.jpg,right,575.8400000631809,true,low,NA,NA,NA,NA,NA,NA,NA,false
LVgleBuc,3lvtfb9df8vfwjy33dzq8w9nvhnqgc,3gm6g9zbkrau3tkbmmwifq0zojotmd,LVgleBuc,2020-0188,2020-11-18,16:06:09,16:22:01,NA,incomplete,13,shape,1,left,Green_Star_Chess_4.jpg,Blue_Star_Stripes_3.jpg,Red_Plus_Chess_1.jpg,left,712.7300000283867,true,low,NA,NA,NA,NA,NA,NA,NA,false
LVgleBuc,3lvtfb9df8vfwjy33dzq8w9nvhnqgc,3gm6g9zbkrau3tkbmmwifq0zojotmd,LVgleBuc,2020-0188,2020-11-18,16:06:09,16:22:01,NA,incomplete,14,shape,1,left,Green_Star_Grid_4.jpg,Red_Star_Chess_3.jpg,Blue_Triangle_Grid_2.jpg,left,622.8750001173466,true,low,NA,NA,NA,NA,NA,NA,NA,false
LVgleBuc,3lvtfb9df8vfwjy33dzq8w9nvhnqgc,3gm6g9zbkrau3tkbmmwifq0zojotmd,LVgleBuc,2020-0188,2020-11-18,16:06:09,16:22:01,NA,incomplete,15,shape,1,left,Blue_Plus_Dots_3.jpg,Green_Plus_Chess_4.jpg,Purple_Circle_Dots_1.jpg,left,665.7300000078976,true,low,NA,NA,NA,NA,NA,NA,NA,false
LVgleBuc,3lvtfb9df8vfwjy33dzq8w9nvhnqgc,3gm6g9zbkrau3tkbmmwifq0zojotmd,LVgleBuc,2020-0188,2020-11-18,16:06:09,16:22:01,NA,incomplete,16,shape,1,right,Green_Plus_Stripes_3.jpg,Red_Star_Stripes_4.jpg,Purple_Plus_Dots_2.jpg,right,716.3350000046194,true,low,NA,NA,NA,NA,NA,NA,NA,false
LVgleBuc,3lvtfb9df8vfwjy33dzq8w9nvhnqgc,3gm6g9zbkrau3tkbmmwifq0zojotmd,LVgleBuc,2020-0188,2020-11-18,16:06:09,16:22:01,NA,incomplete,17,shape,1,right,Red_Triangle_Grid_2.jpg,Blue_Plus_Grid_1.jpg,Purple_Triangle_Chess_3.jpg,right,543.1800000369549,true,low,NA,NA,NA,NA,NA,NA,NA,false
LVgleBuc,3lvtfb9df8vfwjy33dzq8w9nvhnqgc,3gm6g9zbkrau3tkbmmwifq0zojotmd,LVgleBuc,2020-0188,2020-11-18,16:06:09,16:22:01,NA,incomplete,18,shape,0,right,Blue_Star_Dots_1.jpg,Red_Circle_Dots_3.jpg,Green_Star_Stripes_4.jpg,right,776.4149999711663,true,low,NA,NA,NA,NA,NA,NA,NA,false
LVgleBuc,3lvtfb9df8vfwjy33dzq8w9nvhnqgc,3gm6g9zbkrau3tkbmmwifq0zojotmd,LVgleBuc,2020-0188,2020-11-18,16:06:09,16:22:01,NA,incomplete,19,shape,1,right,Green_Star_Grid_4.jpg,Blue_Circle_Grid_1.jpg,Purple_Star_Dots_3.jpg,right,593.8549998681992,true,low,NA,NA,NA,NA,NA,NA,NA,false
LVgleBuc,3lvtfb9df8vfwjy33dzq8w9nvhnqgc,3gm6g9zbkrau3tkbmmwifq0zojotmd,LVgleBuc,2020-0188,2020-11-18,16:06:09,16:22:01,NA,incomplete,20,shape,1,right,Green_Plus_Dots_4.jpg,Red_Triangle_Dots_2.jpg,Blue_Plus_Chess_3.jpg,right,626.9000000320375,true,low,NA,NA,NA,NA,NA,NA,NA,false
LVgleBuc,3lvtfb9df8vfwjy33dzq8w9nvhnqgc,3gm6g9zbkrau3tkbmmwifq0zojotmd,LVgleBuc,2020-0188,2020-11-18,16:06:09,16:22:01,NA,incomplete,21,shape,1,right,Red_Star_Stripes_1.jpg,Blue_Plus_Stripes_4.jpg,Green_Star_Chess_3.jpg,right,541.0050000064075,true,low,NA,NA,NA,NA,NA,NA,NA,false
LVgleBuc,3lvtfb9df8vfwjy33dzq8w9nvhnqgc,3gm6g9zbkrau3tkbmmwifq0zojotmd,LVgleBuc,2020-0188,2020-11-18,16:06:09,16:22:01,NA,incomplete,22,shape,0,right,Blue_Plus_Chess_1.jpg,Red_Circle_Chess_4.jpg,Purple_Plus_Stripes_2.jpg,right,538.9300000388175,true,low,NA,NA,NA,NA,NA,NA,NA,false
LVgleBuc,3lvtfb9df8vfwjy33dzq8w9nvhnqgc,3gm6g9zbkrau3tkbmmwifq0zojotmd,LVgleBuc,2020-0188,2020-11-18,16:06:09,16:22:01,NA,incomplete,23,shape,0,left,Purple_Circle_Chess_4.jpg,Green_Circle_Grid_2.jpg,Red_Triangle_Chess_3.jpg,left,513.2449998054653,true,low,NA,NA,NA,NA,NA,NA,NA,false
LVgleBuc,3lvtfb9df8vfwjy33dzq8w9nvhnqgc,3gm6g9zbkrau3tkbmmwifq0zojotmd,LVgleBuc,2020-0188,2020-11-18,16:06:09,16:22:01,NA,incomplete,24,shape,0,left,Green_Circle_Stripes_3.jpg,Red_Circle_Grid_1.jpg,Blue_Triangle_Stripes_4.jpg,left,640.6999998725951,true,low,NA,NA,NA,NA,NA,NA,NA,false
LVgleBuc,3lvtfb9df8vfwjy33dzq8w9nvhnqgc,3gm6g9zbkrau3tkbmmwifq0zojotmd,LVgleBuc,2020-0188,2020-11-18,16:06:09,16:22:01,NA,incomplete,25,shape,1,left,Blue_Star_Stripes_1.jpg,Purple_Star_Dots_4.jpg,Green_Circle_Stripes_2.jpg,left,571.9149999786168,true,low,NA,NA,NA,NA,NA,NA,NA,false
LVgleBuc,3lvtfb9df8vfwjy33dzq8w9nvhnqgc,3gm6g9zbkrau3tkbmmwifq0zojotmd,LVgleBuc,2020-0188,2020-11-18,16:06:09,16:22:01,NA,incomplete,26,shape,1,left,Green_Triangle_Grid_2.jpg,Purple_Triangle_Chess_4.jpg,Red_Circle_Grid_3.jpg,left,658.1149999983609,true,low,NA,NA,NA,NA,NA,NA,NA,false
LVgleBuc,3lvtfb9df8vfwjy33dzq8w9nvhnqgc,3gm6g9zbkrau3tkbmmwifq0zojotmd,LVgleBuc,2020-0188,2020-11-18,16:06:09,16:22:01,NA,incomplete,27,shape,1,left,Purple_Star_Stripes_2.jpg,Red_Star_Dots_3.jpg,Blue_Triangle_Stripes_4.jpg,right,582.9900000244379,false,low,NA,NA,NA,NA,NA,NA,NA,false
LVgleBuc,3lvtfb9df8vfwjy33dzq8w9nvhnqgc,3gm6g9zbkrau3tkbmmwifq0zojotmd,LVgleBuc,2020-0188,2020-11-18,16:06:09,16:22:01,NA,incomplete,28,shape,1,left,Blue_Star_Dots_4.jpg,Green_Star_Stripes_3.jpg,Purple_Circle_Dots_2.jpg,left,813.8949999120086,true,low,NA,NA,NA,NA,NA,NA,NA,false
LVgleBuc,3lvtfb9df8vfwjy33dzq8w9nvhnqgc,3gm6g9zbkrau3tkbmmwifq0zojotmd,LVgleBuc,2020-0188,2020-11-18,16:06:09,16:22:01,NA,incomplete,29,shape,1,left,Red_Circle_Grid_3.jpg,Green_Circle_Dots_2.jpg,Purple_Plus_Grid_4.jpg,left,551.9300000742078,true,low,NA,NA,NA,NA,NA,NA,NA,false
LVgleBuc,3lvtfb9df8vfwjy33dzq8w9nvhnqgc,3gm6g9zbkrau3tkbmmwifq0zojotmd,LVgleBuc,2020-0188,2020-11-18,16:06:09,16:22:01,NA,incomplete,30,filling,1,left,Purple_Plus_Stripes_3.jpg,Blue_Circle_Stripes_1.jpg,Green_Plus_Grid_4.jpg,right,783.3600000012666,false,low,NA,NA,NA,NA,NA,NA,NA,false
LVgleBuc,3lvtfb9df8vfwjy33dzq8w9nvhnqgc,3gm6g9zbkrau3tkbmmwifq0zojotmd,LVgleBuc,2020-0188,2020-11-18,16:06:09,16:22:01,NA,incomplete,31,filling,1,right,Red_Circle_Chess_4.jpg,Green_Circle_Stripes_3.jpg,Blue_Plus_Chess_2.jpg,left,507.234999909997,false,low,NA,NA,NA,NA,NA,NA,NA,false
LVgleBuc,3lvtfb9df8vfwjy33dzq8w9nvhnqgc,3gm6g9zbkrau3tkbmmwifq0zojotmd,LVgleBuc,2020-0188,2020-11-18,16:06:09,16:22:01,NA,incomplete,32,filling,1,right,Blue_Triangle_Chess_2.jpg,Red_Triangle_Stripes_4.jpg,Purple_Plus_Chess_3.jpg,left,606.3900000881404,false,low,NA,NA,NA,NA,NA,NA,NA,false
LVgleBuc,3lvtfb9df8vfwjy33dzq8w9nvhnqgc,3gm6g9zbkrau3tkbmmwifq0zojotmd,LVgleBuc,2020-0188,2020-11-18,16:06:09,16:22:01,NA,incomplete,33,filling,0,left,Green_Plus_Chess_2.jpg,Purple_Triangle_Chess_1.jpg,Blue_Plus_Dots_4.jpg,right,759.9100000225008,false,low,NA,NA,NA,NA,NA,NA,NA,false
LVgleBuc,3lvtfb9df8vfwjy33dzq8w9nvhnqgc,3gm6g9zbkrau3tkbmmwifq0zojotmd,LVgleBuc,2020-0188,2020-11-18,16:06:09,16:22:01,NA,incomplete,34,filling,1,left,Green_Circle_Stripes_4.jpg,Red_Plus_Stripes_1.jpg,Purple_Circle_Dots_2.jpg,right,822.954999981448,false,low,NA,NA,NA,NA,NA,NA,NA,false
LVgleBuc,3lvtfb9df8vfwjy33dzq8w9nvhnqgc,3gm6g9zbkrau3tkbmmwifq0zojotmd,LVgleBuc,2020-0188,2020-11-18,16:06:09,16:22:01,NA,incomplete,35,filling,0,left,Red_Star_Grid_2.jpg,Green_Circle_Grid_4.jpg,Blue_Star_Stripes_3.jpg,left,922.2850000951439,true,low,NA,NA,NA,NA,NA,NA,NA,false
LVgleBuc,3lvtfb9df8vfwjy33dzq8w9nvhnqgc,3gm6g9zbkrau3tkbmmwifq0zojotmd,LVgleBuc,2020-0188,2020-11-18,16:06:09,16:22:01,NA,incomplete,36,filling,1,right,Purple_Triangle_Stripes_3.jpg,Red_Triangle_Chess_4.jpg,Green_Circle_Stripes_2.jpg,right,924.7649998869747,true,low,NA,NA,NA,NA,NA,NA,NA,false
LVgleBuc,3lvtfb9df8vfwjy33dzq8w9nvhnqgc,3gm6g9zbkrau3tkbmmwifq0zojotmd,LVgleBuc,2020-0188,2020-11-18,16:06:09,16:22:01,NA,incomplete,37,filling,1,right,Purple_Plus_Stripes_3.jpg,Green_Plus_Chess_2.jpg,Blue_Star_Stripes_1.jpg,left,597.4250000435859,false,low,NA,NA,NA,NA,NA,NA,NA,false
LVgleBuc,3lvtfb9df8vfwjy33dzq8w9nvhnqgc,3gm6g9zbkrau3tkbmmwifq0zojotmd,LVgleBuc,2020-0188,2020-11-18,16:06:09,16:22:01,NA,incomplete,38,filling,1,left,Purple_Circle_Grid_4.jpg,Blue_Star_Grid_3.jpg,Red_Circle_Dots_1.jpg,right,657.5700000394136,false,low,NA,NA,NA,NA,NA,NA,NA,false
LVgleBuc,3lvtfb9df8vfwjy33dzq8w9nvhnqgc,3gm6g9zbkrau3tkbmmwifq0zojotmd,LVgleBuc,2020-0188,2020-11-18,16:06:09,16:22:01,NA,incomplete,39,filling,1,left,Red_Circle_Chess_4.jpg,Blue_Star_Chess_3.jpg,Green_Circle_Dots_2.jpg,right,974.9249999877065,false,low,NA,NA,NA,NA,NA,NA,NA,false
LVgleBuc,3lvtfb9df8vfwjy33dzq8w9nvhnqgc,3gm6g9zbkrau3tkbmmwifq0zojotmd,LVgleBuc,2020-0188,2020-11-18,16:06:09,16:22:01,NA,incomplete,40,filling,1,right,Blue_Triangle_Dots_1.jpg,Red_Triangle_Chess_2.jpg,Green_Plus_Dots_4.jpg,right,1539.8499998264015,true,low,NA,NA,NA,NA,NA,NA,NA,false
LVgleBuc,3lvtfb9df8vfwjy33dzq8w9nvhnqgc,3gm6g9zbkrau3tkbmmwifq0zojotmd,LVgleBuc,2020-0188,2020-11-18,16:06:09,16:22:01,NA,incomplete,41,filling,1,right,Red_Plus_Stripes_3.jpg,Green_Plus_Chess_2.jpg,Blue_Circle_Stripes_4.jpg,right,1053.404999896884,true,low,NA,NA,NA,NA,NA,NA,NA,false
LVgleBuc,3lvtfb9df8vfwjy33dzq8w9nvhnqgc,3gm6g9zbkrau3tkbmmwifq0zojotmd,LVgleBuc,2020-0188,2020-11-18,16:06:09,16:22:01,NA,incomplete,42,filling,1,left,Red_Circle_Chess_3.jpg,Blue_Plus_Chess_2.jpg,Green_Circle_Stripes_1.jpg,left,1103.4200000576675,true,low,NA,NA,NA,NA,NA,NA,NA,false
LVgleBuc,3lvtfb9df8vfwjy33dzq8w9nvhnqgc,3gm6g9zbkrau3tkbmmwifq0zojotmd,LVgleBuc,2020-0188,2020-11-18,16:06:09,16:22:01,NA,incomplete,43,filling,1,right,Green_Star_Chess_2.jpg,Purple_Star_Dots_4.jpg,Red_Circle_Chess_3.jpg,right,1112.7949999645352,true,low,NA,NA,NA,NA,NA,NA,NA,false
LVgleBuc,3lvtfb9df8vfwjy33dzq8w9nvhnqgc,3gm6g9zbkrau3tkbmmwifq0zojotmd,LVgleBuc,2020-0188,2020-11-18,16:06:09,16:22:01,NA,incomplete,44,filling,1,left,Red_Circle_Chess_2.jpg,Purple_Plus_Chess_3.jpg,Green_Circle_Grid_1.jpg,left,987.1650000568479,true,low,NA,NA,NA,NA,NA,NA,NA,false
LVgleBuc,3lvtfb9df8vfwjy33dzq8w9nvhnqgc,3gm6g9zbkrau3tkbmmwifq0zojotmd,LVgleBuc,2020-0188,2020-11-18,16:06:09,16:22:01,NA,incomplete,45,filling,0,right,Purple_Triangle_Chess_3.jpg,Blue_Triangle_Stripes_4.jpg,Red_Star_Chess_2.jpg,right,921.6049998067319,true,low,NA,NA,NA,NA,NA,NA,NA,false
LVgleBuc,3lvtfb9df8vfwjy33dzq8w9nvhnqgc,3gm6g9zbkrau3tkbmmwifq0zojotmd,LVgleBuc,2020-0188,2020-11-18,16:06:09,16:22:01,NA,incomplete,46,filling,0,right,Red_Triangle_Stripes_2.jpg,Purple_Triangle_Grid_4.jpg,Blue_Star_Stripes_1.jpg,right,1171.6150001157075,true,low,NA,NA,NA,NA,NA,NA,NA,false
LVgleBuc,3lvtfb9df8vfwjy33dzq8w9nvhnqgc,3gm6g9zbkrau3tkbmmwifq0zojotmd,LVgleBuc,2020-0188,2020-11-18,16:06:09,16:22:01,NA,incomplete,47,filling,1,right,Red_Star_Chess_2.jpg,Purple_Star_Dots_4.jpg,Green_Circle_Chess_3.jpg,left,1092.9350000806153,false,low,NA,NA,NA,NA,NA,NA,NA,false
LVgleBuc,3lvtfb9df8vfwjy33dzq8w9nvhnqgc,3gm6g9zbkrau3tkbmmwifq0zojotmd,LVgleBuc,2020-0188,2020-11-18,16:06:09,16:22:01,NA,incomplete,48,filling,0,right,Green_Triangle_Grid_2.jpg,Purple_Triangle_Chess_4.jpg,Red_Star_Grid_3.jpg,left,650.0750000122935,false,low,NA,NA,NA,NA,NA,NA,NA,false
LVgleBuc,3lvtfb9df8vfwjy33dzq8w9nvhnqgc,3gm6g9zbkrau3tkbmmwifq0zojotmd,LVgleBuc,2020-0188,2020-11-18,16:06:09,16:22:01,NA,incomplete,49,filling,1,left,Blue_Star_Chess_1.jpg,Purple_Circle_Chess_4.jpg,Green_Star_Grid_2.jpg,right,706.0849999543279,false,low,NA,NA,NA,NA,NA,NA,NA,false
LVgleBuc,3lvtfb9df8vfwjy33dzq8w9nvhnqgc,3gm6g9zbkrau3tkbmmwifq0zojotmd,LVgleBuc,2020-0188,2020-11-18,16:06:09,16:22:01,NA,incomplete,50,filling,0,left,Purple_Circle_Grid_1.jpg,Blue_Star_Grid_3.jpg,Green_Circle_Dots_2.jpg,right,778.6099999211729,false,low,NA,NA,NA,NA,NA,NA,NA,false
LVgleBuc,3lvtfb9df8vfwjy33dzq8w9nvhnqgc,3gm6g9zbkrau3tkbmmwifq0zojotmd,LVgleBuc,2020-0188,2020-11-18,16:06:09,16:22:01,NA,incomplete,51,filling,1,left,Blue_Triangle_Chess_4.jpg,Green_Star_Chess_1.jpg,Purple_Triangle_Grid_3.jpg,left,1099.6600000653416,true,low,NA,NA,NA,NA,NA,NA,NA,false
LVgleBuc,3lvtfb9df8vfwjy33dzq8w9nvhnqgc,3gm6g9zbkrau3tkbmmwifq0zojotmd,LVgleBuc,2020-0188,2020-11-18,16:06:09,16:22:01,NA,incomplete,52,filling,1,left,Purple_Plus_Stripes_2.jpg,Green_Star_Stripes_4.jpg,Blue_Plus_Grid_3.jpg,left,1663.8449998572469,true,low,NA,NA,NA,NA,NA,NA,NA,false
LVgleBuc,3lvtfb9df8vfwjy33dzq8w9nvhnqgc,3gm6g9zbkrau3tkbmmwifq0zojotmd,LVgleBuc,2020-0188,2020-11-18,16:06:09,16:22:01,NA,incomplete,53,filling,1,left,Purple_Plus_Chess_1.jpg,Red_Star_Chess_3.jpg,Green_Plus_Grid_4.jpg,left,1083.8950001634657,true,low,NA,NA,NA,NA,NA,NA,NA,false
LVgleBuc,3lvtfb9df8vfwjy33dzq8w9nvhnqgc,3gm6g9zbkrau3tkbmmwifq0zojotmd,LVgleBuc,2020-0188,2020-11-18,16:06:09,16:22:01,NA,incomplete,54,filling,0,right,Green_Triangle_Stripes_1.jpg,Purple_Triangle_Grid_3.jpg,Red_Star_Stripes_4.jpg,left,1113.0550000816584,false,low,NA,NA,NA,NA,NA,NA,NA,false
LVgleBuc,3lvtfb9df8vfwjy33dzq8w9nvhnqgc,3gm6g9zbkrau3tkbmmwifq0zojotmd,LVgleBuc,2020-0188,2020-11-18,16:06:09,16:22:01,NA,incomplete,55,filling,1,left,Blue_Star_Grid_2.jpg,Purple_Triangle_Grid_3.jpg,Red_Star_Dots_1.jpg,right,928.940000012517,false,low,NA,NA,NA,NA,NA,NA,NA,false
LVgleBuc,3lvtfb9df8vfwjy33dzq8w9nvhnqgc,3gm6g9zbkrau3tkbmmwifq0zojotmd,LVgleBuc,2020-0188,2020-11-18,16:06:09,16:22:01,NA,incomplete,56,filling,1,right,Red_Star_Stripes_2.jpg,Green_Star_Chess_3.jpg,Blue_Plus_Stripes_1.jpg,left,951.1199998669326,false,low,NA,NA,NA,NA,NA,NA,NA,false
LVgleBuc,3lvtfb9df8vfwjy33dzq8w9nvhnqgc,3gm6g9zbkrau3tkbmmwifq0zojotmd,LVgleBuc,2020-0188,2020-11-18,16:06:09,16:22:01,NA,incomplete,57,filling,1,right,Purple_Triangle_Dots_2.jpg,Green_Triangle_Grid_3.jpg,Blue_Circle_Dots_1.jpg,left,1045.3900001011789,false,low,NA,NA,NA,NA,NA,NA,NA,false
LVgleBuc,3lvtfb9df8vfwjy33dzq8w9nvhnqgc,3gm6g9zbkrau3tkbmmwifq0zojotmd,LVgleBuc,2020-0188,2020-11-18,16:06:09,16:22:01,NA,incomplete,58,filling,0,left,Blue_Triangle_Grid_1.jpg,Purple_Plus_Grid_4.jpg,Red_Triangle_Dots_3.jpg,left,1338.0399998277426,true,low,NA,NA,NA,NA,NA,NA,NA,false
LVgleBuc,3lvtfb9df8vfwjy33dzq8w9nvhnqgc,3gm6g9zbkrau3tkbmmwifq0zojotmd,LVgleBuc,2020-0188,2020-11-18,16:06:09,16:22:01,NA,incomplete,59,filling,1,left,Purple_Triangle_Dots_2.jpg,Red_Plus_Dots_3.jpg,Blue_Triangle_Grid_4.jpg,right,832.7649999409914,false,low,NA,NA,NA,NA,NA,NA,NA,false
LVgleBuc,3lvtfb9df8vfwjy33dzq8w9nvhnqgc,3gm6g9zbkrau3tkbmmwifq0zojotmd,LVgleBuc,2020-0188,2020-11-18,16:06:09,16:22:01,NA,incomplete,60,shape,0,left,Green_Circle_Grid_1.jpg,Blue_Circle_Dots_2.jpg,Purple_Triangle_Grid_3.jpg,left,918.5249998699874,true,low,NA,NA,NA,NA,NA,NA,NA,false
LVgleBuc,3lvtfb9df8vfwjy33dzq8w9nvhnqgc,3gm6g9zbkrau3tkbmmwifq0zojotmd,LVgleBuc,2020-0188,2020-11-18,16:06:09,16:22:01,NA,incomplete,61,shape,1,left,Blue_Star_Chess_3.jpg,Purple_Star_Grid_2.jpg,Green_Circle_Chess_1.jpg,left,733.1499999854714,true,low,NA,NA,NA,NA,NA,NA,NA,false
LVgleBuc,3lvtfb9df8vfwjy33dzq8w9nvhnqgc,3gm6g9zbkrau3tkbmmwifq0zojotmd,LVgleBuc,2020-0188,2020-11-18,16:06:09,16:22:01,NA,incomplete,62,shape,1,right,Blue_Plus_Grid_1.jpg,Red_Circle_Grid_4.jpg,Green_Plus_Chess_2.jpg,right,716.7050000280142,true,low,NA,NA,NA,NA,NA,NA,NA,false
LVgleBuc,3lvtfb9df8vfwjy33dzq8w9nvhnqgc,3gm6g9zbkrau3tkbmmwifq0zojotmd,LVgleBuc,2020-0188,2020-11-18,16:06:09,16:22:01,NA,incomplete,63,shape,0,left,Blue_Star_Chess_3.jpg,Purple_Star_Dots_2.jpg,Green_Circle_Chess_4.jpg,left,662.3150000814348,true,low,NA,NA,NA,NA,NA,NA,NA,false
LVgleBuc,3lvtfb9df8vfwjy33dzq8w9nvhnqgc,3gm6g9zbkrau3tkbmmwifq0zojotmd,LVgleBuc,2020-0188,2020-11-18,16:06:09,16:22:01,NA,incomplete,64,shape,1,left,Green_Circle_Grid_3.jpg,Red_Circle_Chess_1.jpg,Purple_Plus_Grid_4.jpg,left,964.2700001131743,true,low,NA,NA,NA,NA,NA,NA,NA,false
LVgleBuc,3lvtfb9df8vfwjy33dzq8w9nvhnqgc,3gm6g9zbkrau3tkbmmwifq0zojotmd,LVgleBuc,2020-0188,2020-11-18,16:06:09,16:22:01,NA,incomplete,65,shape,1,left,Red_Plus_Grid_3.jpg,Blue_Plus_Stripes_1.jpg,Green_Star_Grid_2.jpg,left,622.9099999181926,true,low,NA,NA,NA,NA,NA,NA,NA,false
LVgleBuc,3lvtfb9df8vfwjy33dzq8w9nvhnqgc,3gm6g9zbkrau3tkbmmwifq0zojotmd,LVgleBuc,2020-0188,2020-11-18,16:06:09,16:22:01,NA,incomplete,66,shape,1,right,Blue_Circle_Dots_1.jpg,Purple_Star_Dots_2.jpg,Red_Circle_Chess_3.jpg,right,563.6149998754263,true,low,NA,NA,NA,NA,NA,NA,NA,false
LVgleBuc,3lvtfb9df8vfwjy33dzq8w9nvhnqgc,3gm6g9zbkrau3tkbmmwifq0zojotmd,LVgleBuc,2020-0188,2020-11-18,16:06:09,16:22:01,NA,incomplete,67,shape,1,left,Red_Star_Dots_2.jpg,Blue_Star_Chess_1.jpg,Green_Triangle_Dots_4.jpg,left,558.214999968186,true,low,NA,NA,NA,NA,NA,NA,NA,false
LVgleBuc,3lvtfb9df8vfwjy33dzq8w9nvhnqgc,3gm6g9zbkrau3tkbmmwifq0zojotmd,LVgleBuc,2020-0188,2020-11-18,16:06:09,16:22:01,NA,incomplete,68,shape,1,left,Green_Star_Stripes_4.jpg,Red_Star_Dots_1.jpg,Blue_Plus_Stripes_2.jpg,left,855.9350001160055,true,low,NA,NA,NA,NA,NA,NA,NA,false
LVgleBuc,3lvtfb9df8vfwjy33dzq8w9nvhnqgc,3gm6g9zbkrau3tkbmmwifq0zojotmd,LVgleBuc,2020-0188,2020-11-18,16:06:09,16:22:01,NA,incomplete,69,shape,1,right,Green_Triangle_Grid_2.jpg,Red_Plus_Grid_3.jpg,Purple_Triangle_Chess_4.jpg,right,1274.7150000650436,true,low,NA,NA,NA,NA,NA,NA,NA,false
LVgleBuc,3lvtfb9df8vfwjy33dzq8w9nvhnqgc,3gm6g9zbkrau3tkbmmwifq0zojotmd,LVgleBuc,2020-0188,2020-11-18,16:06:09,16:22:01,NA,incomplete,70,shape,1,right,Blue_Plus_Dots_3.jpg,Purple_Star_Dots_2.jpg,Green_Plus_Chess_4.jpg,right,906.8899999838322,true,low,NA,NA,NA,NA,NA,NA,NA,false
LVgleBuc,3lvtfb9df8vfwjy33dzq8w9nvhnqgc,3gm6g9zbkrau3tkbmmwifq0zojotmd,LVgleBuc,2020-0188,2020-11-18,16:06:09,16:22:01,NA,incomplete,71,shape,1,right,Red_Triangle_Chess_4.jpg,Purple_Star_Chess_2.jpg,Blue_Triangle_Dots_1.jpg,left,622.6299998816103,false,low,NA,NA,NA,NA,NA,NA,NA,false
LVgleBuc,3lvtfb9df8vfwjy33dzq8w9nvhnqgc,3gm6g9zbkrau3tkbmmwifq0zojotmd,LVgleBuc,2020-0188,2020-11-18,16:06:09,16:22:01,NA,incomplete,72,shape,1,right,Blue_Star_Chess_3.jpg,Green_Circle_Chess_1.jpg,Purple_Star_Dots_4.jpg,right,622.5049998611212,true,low,NA,NA,NA,NA,NA,NA,NA,false
LVgleBuc,3lvtfb9df8vfwjy33dzq8w9nvhnqgc,3gm6g9zbkrau3tkbmmwifq0zojotmd,LVgleBuc,2020-0188,2020-11-18,16:06:09,16:22:01,NA,incomplete,73,shape,1,right,Green_Star_Chess_1.jpg,Blue_Triangle_Chess_2.jpg,Purple_Star_Grid_4.jpg,right,709.4900000374764,true,low,NA,NA,NA,NA,NA,NA,NA,false
LVgleBuc,3lvtfb9df8vfwjy33dzq8w9nvhnqgc,3gm6g9zbkrau3tkbmmwifq0zojotmd,LVgleBuc,2020-0188,2020-11-18,16:06:09,16:22:01,NA,incomplete,74,shape,1,right,Purple_Plus_Dots_2.jpg,Red_Circle_Dots_1.jpg,Green_Plus_Stripes_3.jpg,right,624.3249999824911,true,low,NA,NA,NA,NA,NA,NA,NA,false
LVgleBuc,3lvtfb9df8vfwjy33dzq8w9nvhnqgc,3gm6g9zbkrau3tkbmmwifq0zojotmd,LVgleBuc,2020-0188,2020-11-18,16:06:09,16:22:01,NA,incomplete,75,shape,1,right,Purple_Triangle_Dots_1.jpg,Blue_Star_Dots_2.jpg,Green_Triangle_Chess_4.jpg,right,647.0900001004338,true,low,NA,NA,NA,NA,NA,NA,NA,false
LVgleBuc,3lvtfb9df8vfwjy33dzq8w9nvhnqgc,3gm6g9zbkrau3tkbmmwifq0zojotmd,LVgleBuc,2020-0188,2020-11-18,16:06:09,16:22:01,NA,incomplete,76,shape,0,right,Red_Plus_Stripes_3.jpg,Green_Circle_Stripes_1.jpg,Blue_Plus_Chess_2.jpg,right,679.1250000242144,true,low,NA,NA,NA,NA,NA,NA,NA,false
LVgleBuc,3lvtfb9df8vfwjy33dzq8w9nvhnqgc,3gm6g9zbkrau3tkbmmwifq0zojotmd,LVgleBuc,2020-0188,2020-11-18,16:06:09,16:22:01,NA,incomplete,77,shape,1,left,Blue_Circle_Dots_4.jpg,Purple_Circle_Grid_1.jpg,Green_Triangle_Dots_3.jpg,left,501.759999897331,true,low,NA,NA,NA,NA,NA,NA,NA,false
LVgleBuc,3lvtfb9df8vfwjy33dzq8w9nvhnqgc,3gm6g9zbkrau3tkbmmwifq0zojotmd,LVgleBuc,2020-0188,2020-11-18,16:06:09,16:22:01,NA,incomplete,78,shape,1,right,Blue_Star_Grid_2.jpg,Green_Triangle_Grid_1.jpg,Purple_Star_Dots_4.jpg,right,597.8300001006573,true,low,NA,NA,NA,NA,NA,NA,NA,false
LVgleBuc,3lvtfb9df8vfwjy33dzq8w9nvhnqgc,3gm6g9zbkrau3tkbmmwifq0zojotmd,LVgleBuc,2020-0188,2020-11-18,16:06:09,16:22:01,NA,incomplete,79,shape,0,left,Green_Triangle_Grid_3.jpg,Purple_Triangle_Stripes_2.jpg,Blue_Circle_Grid_1.jpg,left,516.679999884218,true,low,NA,NA,NA,NA,NA,NA,NA,false
LVgleBuc,3lvtfb9df8vfwjy33dzq8w9nvhnqgc,3gm6g9zbkrau3tkbmmwifq0zojotmd,LVgleBuc,2020-0188,2020-11-18,16:06:09,16:22:01,NA,incomplete,80,shape,1,left,Red_Triangle_Grid_3.jpg,Green_Triangle_Stripes_2.jpg,Blue_Star_Grid_1.jpg,left,575.3599999006838,true,low,NA,NA,NA,NA,NA,NA,NA,false
LVgleBuc,3lvtfb9df8vfwjy33dzq8w9nvhnqgc,3gm6g9zbkrau3tkbmmwifq0zojotmd,LVgleBuc,2020-0188,2020-11-18,16:06:09,16:22:01,NA,incomplete,81,shape,1,left,Red_Plus_Stripes_2.jpg,Blue_Plus_Chess_1.jpg,Green_Circle_Stripes_4.jpg,left,566.0399999469519,true,low,NA,NA,NA,NA,NA,NA,NA,false
LVgleBuc,3lvtfb9df8vfwjy33dzq8w9nvhnqgc,3gm6g9zbkrau3tkbmmwifq0zojotmd,LVgleBuc,2020-0188,2020-11-18,16:06:09,16:22:01,NA,incomplete,82,shape,1,right,Green_Plus_Dots_4.jpg,Red_Triangle_Dots_3.jpg,Blue_Plus_Chess_2.jpg,right,648.5200000461191,true,low,NA,NA,NA,NA,NA,NA,NA,false
LVgleBuc,3lvtfb9df8vfwjy33dzq8w9nvhnqgc,3gm6g9zbkrau3tkbmmwifq0zojotmd,LVgleBuc,2020-0188,2020-11-18,16:06:09,16:22:01,NA,incomplete,83,shape,1,left,Purple_Triangle_Stripes_2.jpg,Red_Triangle_Chess_1.jpg,Green_Plus_Stripes_3.jpg,left,577.1399999503046,true,low,NA,NA,NA,NA,NA,NA,NA,false
LVgleBuc,3lvtfb9df8vfwjy33dzq8w9nvhnqgc,3gm6g9zbkrau3tkbmmwifq0zojotmd,LVgleBuc,2020-0188,2020-11-18,16:06:09,16:22:01,NA,incomplete,84,shape,1,right,Red_Star_Dots_3.jpg,Blue_Triangle_Dots_4.jpg,Green_Star_Chess_2.jpg,right,666.5000000502914,true,low,NA,NA,NA,NA,NA,NA,NA,false
LVgleBuc,3lvtfb9df8vfwjy33dzq8w9nvhnqgc,3gm6g9zbkrau3tkbmmwifq0zojotmd,LVgleBuc,2020-0188,2020-11-18,16:06:09,16:22:01,NA,incomplete,85,shape,1,right,Red_Plus_Stripes_2.jpg,Purple_Star_Stripes_4.jpg,Blue_Plus_Grid_3.jpg,right,754.9249997828156,true,low,NA,NA,NA,NA,NA,NA,NA,false
LVgleBuc,3lvtfb9df8vfwjy33dzq8w9nvhnqgc,3gm6g9zbkrau3tkbmmwifq0zojotmd,LVgleBuc,2020-0188,2020-11-18,16:06:09,16:22:01,NA,incomplete,86,shape,1,left,Red_Circle_Dots_1.jpg,Purple_Circle_Stripes_3.jpg,Blue_Star_Dots_2.jpg,left,553.9750000461936,true,low,NA,NA,NA,NA,NA,NA,NA,false
LVgleBuc,3lvtfb9df8vfwjy33dzq8w9nvhnqgc,3gm6g9zbkrau3tkbmmwifq0zojotmd,LVgleBuc,2020-0188,2020-11-18,16:06:09,16:22:01,NA,incomplete,87,shape,0,left,Purple_Plus_Grid_1.jpg,Blue_Plus_Stripes_3.jpg,Red_Circle_Grid_4.jpg,left,720.3549998812377,true,low,NA,NA,NA,NA,NA,NA,NA,false
LVgleBuc,3lvtfb9df8vfwjy33dzq8w9nvhnqgc,3gm6g9zbkrau3tkbmmwifq0zojotmd,LVgleBuc,2020-0188,2020-11-18,16:06:09,16:22:01,NA,incomplete,88,shape,1,left,Green_Plus_Grid_1.jpg,Purple_Plus_Chess_3.jpg,Blue_Triangle_Grid_4.jpg,left,641.4499999955297,true,low,NA,NA,NA,NA,NA,NA,NA,false
LVgleBuc,3lvtfb9df8vfwjy33dzq8w9nvhnqgc,3gm6g9zbkrau3tkbmmwifq0zojotmd,LVgleBuc,2020-0188,2020-11-18,16:06:09,16:22:01,NA,incomplete,89,shape,0,left,Purple_Triangle_Dots_4.jpg,Red_Triangle_Chess_3.jpg,Green_Star_Dots_1.jpg,left,623.060000129044,true,low,NA,NA,NA,NA,NA,NA,NA,false
LVgleBuc,3lvtfb9df8vfwjy33dzq8w9nvhnqgc,3gm6g9zbkrau3tkbmmwifq0zojotmd,LVgleBuc,2020-0188,2020-11-18,16:06:09,16:22:01,NA,incomplete,90,filling,0,right,Red_Circle_Chess_3.jpg,Green_Circle_Grid_1.jpg,Blue_Plus_Chess_4.jpg,left,933.6399999447167,false,low,NA,NA,NA,NA,NA,NA,NA,false
LVgleBuc,3lvtfb9df8vfwjy33dzq8w9nvhnqgc,3gm6g9zbkrau3tkbmmwifq0zojotmd,LVgleBuc,2020-0188,2020-11-18,16:06:09,16:22:01,NA,incomplete,91,filling,1,left,Red_Triangle_Dots_4.jpg,Green_Plus_Dots_3.jpg,Blue_Triangle_Chess_2.jpg,right,745.7799999974668,false,low,NA,NA,NA,NA,NA,NA,NA,false
LVgleBuc,3lvtfb9df8vfwjy33dzq8w9nvhnqgc,3gm6g9zbkrau3tkbmmwifq0zojotmd,LVgleBuc,2020-0188,2020-11-18,16:06:09,16:22:01,NA,incomplete,92,filling,1,right,Green_Star_Chess_4.jpg,Red_Star_Dots_2.jpg,Blue_Circle_Chess_3.jpg,left,665.7100000884384,false,low,NA,NA,NA,NA,NA,NA,NA,false
LVgleBuc,3lvtfb9df8vfwjy33dzq8w9nvhnqgc,3gm6g9zbkrau3tkbmmwifq0zojotmd,LVgleBuc,2020-0188,2020-11-18,16:06:09,16:22:01,NA,incomplete,93,filling,1,left,Blue_Circle_Stripes_2.jpg,Red_Plus_Stripes_3.jpg,Green_Circle_Dots_1.jpg,left,1060.6299999635667,true,low,NA,NA,NA,NA,NA,NA,NA,false
LVgleBuc,3lvtfb9df8vfwjy33dzq8w9nvhnqgc,3gm6g9zbkrau3tkbmmwifq0zojotmd,LVgleBuc,2020-0188,2020-11-18,16:06:09,16:22:01,NA,incomplete,94,filling,1,right,Blue_Triangle_Grid_3.jpg,Purple_Triangle_Chess_4.jpg,Red_Plus_Grid_1.jpg,right,1159.4000000040978,true,low,NA,NA,NA,NA,NA,NA,NA,false
LVgleBuc,3lvtfb9df8vfwjy33dzq8w9nvhnqgc,3gm6g9zbkrau3tkbmmwifq0zojotmd,LVgleBuc,2020-0188,2020-11-18,16:06:09,16:22:01,NA,incomplete,95,filling,1,right,Red_Star_Chess_3.jpg,Green_Star_Grid_4.jpg,Blue_Circle_Chess_2.jpg,left,771.6050001326948,false,low,NA,NA,NA,NA,NA,NA,NA,false
LVgleBuc,3lvtfb9df8vfwjy33dzq8w9nvhnqgc,3gm6g9zbkrau3tkbmmwifq0zojotmd,LVgleBuc,2020-0188,2020-11-18,16:06:09,16:22:01,NA,incomplete,96,filling,1,left,Red_Circle_Dots_3.jpg,Blue_Triangle_Dots_4.jpg,Purple_Circle_Grid_2.jpg,left,1344.10999994725,true,low,NA,NA,NA,NA,NA,NA,NA,false
LVgleBuc,3lvtfb9df8vfwjy33dzq8w9nvhnqgc,3gm6g9zbkrau3tkbmmwifq0zojotmd,LVgleBuc,2020-0188,2020-11-18,16:06:09,16:22:01,NA,incomplete,97,filling,1,right,Purple_Circle_Dots_1.jpg,Green_Circle_Grid_3.jpg,Blue_Plus_Dots_4.jpg,right,1032.9599999822676,true,low,NA,NA,NA,NA,NA,NA,NA,false
LVgleBuc,3lvtfb9df8vfwjy33dzq8w9nvhnqgc,3gm6g9zbkrau3tkbmmwifq0zojotmd,LVgleBuc,2020-0188,2020-11-18,16:06:09,16:22:01,NA,incomplete,98,filling,1,left,Purple_Star_Stripes_3.jpg,Green_Triangle_Stripes_2.jpg,Red_Star_Chess_4.jpg,right,745.3749999403954,false,low,NA,NA,NA,NA,NA,NA,NA,false
LVgleBuc,3lvtfb9df8vfwjy33dzq8w9nvhnqgc,3gm6g9zbkrau3tkbmmwifq0zojotmd,LVgleBuc,2020-0188,2020-11-18,16:06:09,16:22:01,NA,incomplete,99,filling,1,left,Green_Star_Chess_2.jpg,Red_Plus_Chess_1.jpg,Blue_Star_Grid_3.jpg,left,951.0349999181926,true,low,NA,NA,NA,NA,NA,NA,NA,false
LVgleBuc,3lvtfb9df8vfwjy33dzq8w9nvhnqgc,3gm6g9zbkrau3tkbmmwifq0zojotmd,LVgleBuc,2020-0188,2020-11-18,16:06:09,16:22:01,NA,incomplete,100,filling,1,left,Purple_Plus_Chess_4.jpg,Blue_Triangle_Chess_3.jpg,Green_Plus_Grid_2.jpg,left,881.6700000315905,true,low,NA,NA,NA,NA,NA,NA,NA,false
LVgleBuc,3lvtfb9df8vfwjy33dzq8w9nvhnqgc,3gm6g9zbkrau3tkbmmwifq0zojotmd,LVgleBuc,2020-0188,2020-11-18,16:06:09,16:22:01,NA,incomplete,101,filling,1,left,Purple_Star_Chess_1.jpg,Green_Triangle_Chess_2.jpg,Red_Star_Stripes_4.jpg,left,775.7449999917299,true,low,NA,NA,NA,NA,NA,NA,NA,false
LVgleBuc,3lvtfb9df8vfwjy33dzq8w9nvhnqgc,3gm6g9zbkrau3tkbmmwifq0zojotmd,LVgleBuc,2020-0188,2020-11-18,16:06:09,16:22:01,NA,incomplete,102,filling,0,right,Blue_Triangle_Dots_1.jpg,Green_Triangle_Grid_2.jpg,Red_Circle_Dots_4.jpg,right,1125.609999988228,true,low,NA,NA,NA,NA,NA,NA,NA,false
LVgleBuc,3lvtfb9df8vfwjy33dzq8w9nvhnqgc,3gm6g9zbkrau3tkbmmwifq0zojotmd,LVgleBuc,2020-0188,2020-11-18,16:06:09,16:22:01,NA,incomplete,103,filling,1,right,Purple_Star_Dots_4.jpg,Blue_Star_Stripes_3.jpg,Red_Plus_Dots_1.jpg,left,648.8449999596924,false,low,NA,NA,NA,NA,NA,NA,NA,false
LVgleBuc,3lvtfb9df8vfwjy33dzq8w9nvhnqgc,3gm6g9zbkrau3tkbmmwifq0zojotmd,LVgleBuc,2020-0188,2020-11-18,16:06:09,16:22:01,NA,incomplete,104,filling,0,right,Purple_Triangle_Chess_1.jpg,Green_Triangle_Stripes_3.jpg,Red_Star_Chess_2.jpg,right,1400.859999936074,true,low,NA,NA,NA,NA,NA,NA,NA,false
LVgleBuc,3lvtfb9df8vfwjy33dzq8w9nvhnqgc,3gm6g9zbkrau3tkbmmwifq0zojotmd,LVgleBuc,2020-0188,2020-11-18,16:06:09,16:22:01,NA,incomplete,105,filling,1,left,Green_Star_Grid_2.jpg,Purple_Plus_Grid_1.jpg,Blue_Star_Chess_4.jpg,right,817.3799999058247,false,low,NA,NA,NA,NA,NA,NA,NA,false
LVgleBuc,3lvtfb9df8vfwjy33dzq8w9nvhnqgc,3gm6g9zbkrau3tkbmmwifq0zojotmd,LVgleBuc,2020-0188,2020-11-18,16:06:09,16:22:01,NA,incomplete,106,filling,1,right,Blue_Plus_Stripes_3.jpg,Red_Plus_Chess_2.jpg,Green_Circle_Stripes_4.jpg,left,1100.2750000916421,false,low,NA,NA,NA,NA,NA,NA,NA,false
LVgleBuc,3lvtfb9df8vfwjy33dzq8w9nvhnqgc,3gm6g9zbkrau3tkbmmwifq0zojotmd,LVgleBuc,2020-0188,2020-11-18,16:06:09,16:22:01,NA,incomplete,107,filling,1,left,Purple_Triangle_Grid_4.jpg,Red_Circle_Grid_2.jpg,Green_Triangle_Stripes_1.jpg,left,1405.7050000410527,true,low,NA,NA,NA,NA,NA,NA,NA,false
LVgleBuc,3lvtfb9df8vfwjy33dzq8w9nvhnqgc,3gm6g9zbkrau3tkbmmwifq0zojotmd,LVgleBuc,2020-0188,2020-11-18,16:06:09,16:22:01,NA,incomplete,108,filling,1,left,Red_Star_Dots_3.jpg,Green_Circle_Dots_4.jpg,Purple_Star_Grid_1.jpg,left,829.060000134632,true,low,NA,NA,NA,NA,NA,NA,NA,false
LVgleBuc,3lvtfb9df8vfwjy33dzq8w9nvhnqgc,3gm6g9zbkrau3tkbmmwifq0zojotmd,LVgleBuc,2020-0188,2020-11-18,16:06:09,16:22:01,NA,incomplete,109,filling,1,right,Blue_Triangle_Dots_2.jpg,Green_Triangle_Grid_4.jpg,Purple_Star_Dots_1.jpg,right,1444.4500000681728,true,low,NA,NA,NA,NA,NA,NA,NA,false
LVgleBuc,3lvtfb9df8vfwjy33dzq8w9nvhnqgc,3gm6g9zbkrau3tkbmmwifq0zojotmd,LVgleBuc,2020-0188,2020-11-18,16:06:09,16:22:01,NA,incomplete,110,filling,1,left,Blue_Star_Stripes_1.jpg,Purple_Plus_Stripes_4.jpg,Green_Star_Grid_3.jpg,left,1495.060000102967,true,low,NA,NA,NA,NA,NA,NA,NA,false
LVgleBuc,3lvtfb9df8vfwjy33dzq8w9nvhnqgc,3gm6g9zbkrau3tkbmmwifq0zojotmd,LVgleBuc,2020-0188,2020-11-18,16:06:09,16:22:01,NA,incomplete,111,filling,0,right,Green_Star_Dots_2.jpg,Blue_Star_Grid_3.jpg,Red_Triangle_Dots_1.jpg,right,942.310000071302,true,low,NA,NA,NA,NA,NA,NA,NA,false
LVgleBuc,3lvtfb9df8vfwjy33dzq8w9nvhnqgc,3gm6g9zbkrau3tkbmmwifq0zojotmd,LVgleBuc,2020-0188,2020-11-18,16:06:09,16:22:01,NA,incomplete,112,filling,1,left,Red_Circle_Dots_2.jpg,Green_Plus_Dots_1.jpg,Blue_Circle_Grid_4.jpg,right,1112.1799999382347,false,low,NA,NA,NA,NA,NA,NA,NA,false
LVgleBuc,3lvtfb9df8vfwjy33dzq8w9nvhnqgc,3gm6g9zbkrau3tkbmmwifq0zojotmd,LVgleBuc,2020-0188,2020-11-18,16:06:09,16:22:01,NA,incomplete,113,filling,1,left,Blue_Star_Chess_1.jpg,Purple_Plus_Chess_2.jpg,Green_Star_Grid_4.jpg,left,840.6749998684973,true,low,NA,NA,NA,NA,NA,NA,NA,false
LVgleBuc,3lvtfb9df8vfwjy33dzq8w9nvhnqgc,3gm6g9zbkrau3tkbmmwifq0zojotmd,LVgleBuc,2020-0188,2020-11-18,16:06:09,16:22:01,NA,incomplete,114,filling,1,right,Purple_Triangle_Grid_3.jpg,Red_Triangle_Chess_1.jpg,Green_Star_Grid_4.jpg,right,1034.1000000480562,true,low,NA,NA,NA,NA,NA,NA,NA,false
LVgleBuc,3lvtfb9df8vfwjy33dzq8w9nvhnqgc,3gm6g9zbkrau3tkbmmwifq0zojotmd,LVgleBuc,2020-0188,2020-11-18,16:06:09,16:22:01,NA,incomplete,115,filling,1,right,Red_Star_Stripes_2.jpg,Blue_Star_Dots_3.jpg,Purple_Circle_Stripes_4.jpg,right,889.0449998434633,true,low,NA,NA,NA,NA,NA,NA,NA,false
LVgleBuc,3lvtfb9df8vfwjy33dzq8w9nvhnqgc,3gm6g9zbkrau3tkbmmwifq0zojotmd,LVgleBuc,2020-0188,2020-11-18,16:06:09,16:22:01,NA,incomplete,116,filling,1,right,Purple_Circle_Stripes_3.jpg,Green_Circle_Dots_2.jpg,Red_Triangle_Stripes_4.jpg,right,1114.6849999204278,true,low,NA,NA,NA,NA,NA,NA,NA,false
LVgleBuc,3lvtfb9df8vfwjy33dzq8w9nvhnqgc,3gm6g9zbkrau3tkbmmwifq0zojotmd,LVgleBuc,2020-0188,2020-11-18,16:06:09,16:22:01,NA,incomplete,117,filling,1,right,Green_Star_Dots_3.jpg,Blue_Star_Stripes_2.jpg,Purple_Plus_Dots_4.jpg,right,745.7099999301136,true,low,NA,NA,NA,NA,NA,NA,NA,false
LVgleBuc,3lvtfb9df8vfwjy33dzq8w9nvhnqgc,3gm6g9zbkrau3tkbmmwifq0zojotmd,LVgleBuc,2020-0188,2020-11-18,16:06:09,16:22:01,NA,incomplete,118,filling,1,right,Green_Plus_Grid_3.jpg,Purple_Plus_Dots_1.jpg,Blue_Star_Grid_4.jpg,right,823.5849998891354,true,low,NA,NA,NA,NA,NA,NA,NA,false
LVgleBuc,3lvtfb9df8vfwjy33dzq8w9nvhnqgc,3gm6g9zbkrau3tkbmmwifq0zojotmd,LVgleBuc,2020-0188,2020-11-18,16:06:09,16:22:01,NA,incomplete,119,filling,1,right,Purple_Star_Dots_1.jpg,Green_Star_Stripes_4.jpg,Blue_Circle_Dots_3.jpg,right,787.8449999261647,true,low,NA,NA,NA,NA,NA,NA,NA,false
LVgleBuc,3lvtfb9df8vfwjy33dzq8w9nvhnqgc,3gm6g9zbkrau3tkbmmwifq0zojotmd,LVgleBuc,2020-0188,2020-11-18,16:06:09,16:22:01,NA,incomplete,120,color,1,right,Green_Plus_Stripes_4.jpg,Blue_Star_Grid_4.jpg,Green_Triangle_Chess_3.jpg,right,1439.65999991633,true,low,NA,NA,NA,NA,NA,NA,NA,false
LVgleBuc,3lvtfb9df8vfwjy33dzq8w9nvhnqgc,3gm6g9zbkrau3tkbmmwifq0zojotmd,LVgleBuc,2020-0188,2020-11-18,16:06:09,16:22:01,NA,incomplete,121,color,1,right,Red_Plus_Dots_2.jpg,Blue_Circle_Stripes_2.jpg,Red_Triangle_Chess_1.jpg,right,504.04000002890825,true,low,NA,NA,NA,NA,NA,NA,NA,false
LVgleBuc,3lvtfb9df8vfwjy33dzq8w9nvhnqgc,3gm6g9zbkrau3tkbmmwifq0zojotmd,LVgleBuc,2020-0188,2020-11-18,16:06:09,16:22:01,NA,incomplete,122,color,1,right,Purple_Circle_Dots_3.jpg,Blue_Star_Grid_3.jpg,Purple_Plus_Stripes_1.jpg,right,501.6999999061227,true,low,NA,NA,NA,NA,NA,NA,NA,false
LVgleBuc,3lvtfb9df8vfwjy33dzq8w9nvhnqgc,3gm6g9zbkrau3tkbmmwifq0zojotmd,LVgleBuc,2020-0188,2020-11-18,16:06:09,16:22:01,NA,incomplete,123,color,1,left,Blue_Circle_Stripes_4.jpg,Blue_Plus_Grid_3.jpg,Green_Triangle_Dots_4.jpg,left,463.4899999946356,true,low,NA,NA,NA,NA,NA,NA,NA,false
LVgleBuc,3lvtfb9df8vfwjy33dzq8w9nvhnqgc,3gm6g9zbkrau3tkbmmwifq0zojotmd,LVgleBuc,2020-0188,2020-11-18,16:06:09,16:22:01,NA,incomplete,124,color,1,left,Red_Plus_Dots_2.jpg,Red_Circle_Chess_1.jpg,Purple_Star_Stripes_2.jpg,left,576.5750000718981,true,low,NA,NA,NA,NA,NA,NA,NA,false
LVgleBuc,3lvtfb9df8vfwjy33dzq8w9nvhnqgc,3gm6g9zbkrau3tkbmmwifq0zojotmd,LVgleBuc,2020-0188,2020-11-18,16:06:09,16:22:01,NA,incomplete,125,color,1,left,Purple_Plus_Dots_1.jpg,Purple_Star_Stripes_2.jpg,Blue_Triangle_Chess_1.jpg,left,488.1000001914799,true,low,NA,NA,NA,NA,NA,NA,NA,false
LVgleBuc,3lvtfb9df8vfwjy33dzq8w9nvhnqgc,3gm6g9zbkrau3tkbmmwifq0zojotmd,LVgleBuc,2020-0188,2020-11-18,16:06:09,16:22:01,NA,incomplete,126,color,0,right,Red_Circle_Grid_4.jpg,Blue_Plus_Dots_4.jpg,Red_Triangle_Stripes_3.jpg,right,600.3099998924881,true,low,NA,NA,NA,NA,NA,NA,NA,false
LVgleBuc,3lvtfb9df8vfwjy33dzq8w9nvhnqgc,3gm6g9zbkrau3tkbmmwifq0zojotmd,LVgleBuc,2020-0188,2020-11-18,16:06:09,16:22:01,NA,incomplete,127,color,1,left,Purple_Triangle_Grid_4.jpg,Purple_Plus_Stripes_3.jpg,Green_Star_Chess_4.jpg,left,530.460000038147,true,low,NA,NA,NA,NA,NA,NA,NA,false
LVgleBuc,3lvtfb9df8vfwjy33dzq8w9nvhnqgc,3gm6g9zbkrau3tkbmmwifq0zojotmd,LVgleBuc,2020-0188,2020-11-18,16:06:09,16:22:01,NA,incomplete,128,color,1,right,Green_Star_Dots_1.jpg,Purple_Plus_Stripes_1.jpg,Green_Triangle_Chess_4.jpg,right,495.4049999359995,true,low,NA,NA,NA,NA,NA,NA,NA,false
LVgleBuc,3lvtfb9df8vfwjy33dzq8w9nvhnqgc,3gm6g9zbkrau3tkbmmwifq0zojotmd,LVgleBuc,2020-0188,2020-11-18,16:06:09,16:22:01,NA,incomplete,129,color,1,left,Blue_Circle_Chess_4.jpg,Blue_Star_Grid_3.jpg,Red_Plus_Dots_4.jpg,left,495.9899999666959,true,low,NA,NA,NA,NA,NA,NA,NA,false
LVgleBuc,3lvtfb9df8vfwjy33dzq8w9nvhnqgc,3gm6g9zbkrau3tkbmmwifq0zojotmd,LVgleBuc,2020-0188,2020-11-18,16:06:09,16:22:01,NA,incomplete,130,color,1,left,Green_Circle_Grid_4.jpg,Green_Triangle_Chess_3.jpg,Red_Star_Dots_4.jpg,left,516.1200000438839,true,low,NA,NA,NA,NA,NA,NA,NA,false
LVgleBuc,3lvtfb9df8vfwjy33dzq8w9nvhnqgc,3gm6g9zbkrau3tkbmmwifq0zojotmd,LVgleBuc,2020-0188,2020-11-18,16:06:09,16:22:01,NA,incomplete,131,color,1,right,Green_Triangle_Chess_3.jpg,Red_Plus_Dots_3.jpg,Green_Star_Stripes_4.jpg,right,490.7050000037998,true,low,NA,NA,NA,NA,NA,NA,NA,false
LVgleBuc,3lvtfb9df8vfwjy33dzq8w9nvhnqgc,3gm6g9zbkrau3tkbmmwifq0zojotmd,LVgleBuc,2020-0188,2020-11-18,16:06:09,16:22:01,NA,incomplete,132,color,1,left,Red_Circle_Chess_2.jpg,Red_Plus_Stripes_1.jpg,Blue_Star_Grid_2.jpg,left,485.1000001654029,true,low,NA,NA,NA,NA,NA,NA,NA,false
LVgleBuc,3lvtfb9df8vfwjy33dzq8w9nvhnqgc,3gm6g9zbkrau3tkbmmwifq0zojotmd,LVgleBuc,2020-0188,2020-11-18,16:06:09,16:22:01,NA,incomplete,133,color,1,right,Blue_Triangle_Grid_4.jpg,Red_Star_Chess_4.jpg,Blue_Circle_Stripes_1.jpg,right,830.7449999265373,true,low,NA,NA,NA,NA,NA,NA,NA,false
LVgleBuc,3lvtfb9df8vfwjy33dzq8w9nvhnqgc,3gm6g9zbkrau3tkbmmwifq0zojotmd,LVgleBuc,2020-0188,2020-11-18,16:06:09,16:22:01,NA,incomplete,134,color,1,right,Blue_Triangle_Dots_4.jpg,Green_Plus_Grid_4.jpg,Blue_Star_Stripes_3.jpg,right,441.22000015340745,true,low,NA,NA,NA,NA,NA,NA,NA,false
LVgleBuc,3lvtfb9df8vfwjy33dzq8w9nvhnqgc,3gm6g9zbkrau3tkbmmwifq0zojotmd,LVgleBuc,2020-0188,2020-11-18,16:06:09,16:22:01,NA,incomplete,135,color,0,right,Green_Circle_Stripes_3.jpg,Red_Triangle_Chess_3.jpg,Green_Star_Grid_1.jpg,right,568.3450000360608,true,low,NA,NA,NA,NA,NA,NA,NA,false
LVgleBuc,3lvtfb9df8vfwjy33dzq8w9nvhnqgc,3gm6g9zbkrau3tkbmmwifq0zojotmd,LVgleBuc,2020-0188,2020-11-18,16:06:09,16:22:01,NA,incomplete,136,color,1,right,Green_Plus_Dots_2.jpg,Blue_Triangle_Stripes_2.jpg,Green_Star_Grid_3.jpg,right,397.05000002868474,true,low,NA,NA,NA,NA,NA,NA,NA,false
LVgleBuc,3lvtfb9df8vfwjy33dzq8w9nvhnqgc,3gm6g9zbkrau3tkbmmwifq0zojotmd,LVgleBuc,2020-0188,2020-11-18,16:06:09,16:22:01,NA,incomplete,137,color,0,right,Purple_Star_Grid_4.jpg,Green_Triangle_Chess_4.jpg,Purple_Plus_Dots_2.jpg,right,697.5250001996756,true,low,NA,NA,NA,NA,NA,NA,NA,false
LVgleBuc,3lvtfb9df8vfwjy33dzq8w9nvhnqgc,3gm6g9zbkrau3tkbmmwifq0zojotmd,LVgleBuc,2020-0188,2020-11-18,16:06:09,16:22:01,NA,incomplete,138,color,1,right,Purple_Circle_Stripes_4.jpg,Red_Star_Grid_4.jpg,Purple_Plus_Dots_3.jpg,right,407.67500014044344,true,low,NA,NA,NA,NA,NA,NA,NA,false
LVgleBuc,3lvtfb9df8vfwjy33dzq8w9nvhnqgc,3gm6g9zbkrau3tkbmmwifq0zojotmd,LVgleBuc,2020-0188,2020-11-18,16:06:09,16:22:01,NA,incomplete,139,color,1,left,Blue_Circle_Chess_4.jpg,Blue_Star_Dots_1.jpg,Red_Plus_Stripes_4.jpg,left,547.8000000584871,true,low,NA,NA,NA,NA,NA,NA,NA,false
LVgleBuc,3lvtfb9df8vfwjy33dzq8w9nvhnqgc,3gm6g9zbkrau3tkbmmwifq0zojotmd,LVgleBuc,2020-0188,2020-11-18,16:06:09,16:22:01,NA,incomplete,140,number,1,right,Blue_Circle_Grid_2.jpg,Blue_Star_Dots_4.jpg,Red_Plus_Chess_2.jpg,left,467.79999998398125,false,low,NA,NA,NA,NA,NA,NA,NA,false
LVgleBuc,3lvtfb9df8vfwjy33dzq8w9nvhnqgc,3gm6g9zbkrau3tkbmmwifq0zojotmd,LVgleBuc,2020-0188,2020-11-18,16:06:09,16:22:01,NA,incomplete,141,number,0,right,Blue_Circle_Dots_1.jpg,Blue_Star_Stripes_2.jpg,Red_Plus_Chess_1.jpg,left,453.3949999604374,false,low,NA,NA,NA,NA,NA,NA,NA,false
LVgleBuc,3lvtfb9df8vfwjy33dzq8w9nvhnqgc,3gm6g9zbkrau3tkbmmwifq0zojotmd,LVgleBuc,2020-0188,2020-11-18,16:06:09,16:22:01,NA,incomplete,142,number,1,left,Green_Triangle_Chess_3.jpg,Red_Star_Grid_3.jpg,Green_Plus_Stripes_2.jpg,right,612.1650000568479,false,low,NA,NA,NA,NA,NA,NA,NA,false
LVgleBuc,3lvtfb9df8vfwjy33dzq8w9nvhnqgc,3gm6g9zbkrau3tkbmmwifq0zojotmd,LVgleBuc,2020-0188,2020-11-18,16:06:09,16:22:01,NA,incomplete,143,number,1,right,Green_Plus_Grid_4.jpg,Green_Star_Chess_2.jpg,Red_Triangle_Dots_4.jpg,left,1401.7149999272078,false,low,NA,NA,NA,NA,NA,NA,NA,false
LVgleBuc,3lvtfb9df8vfwjy33dzq8w9nvhnqgc,3gm6g9zbkrau3tkbmmwifq0zojotmd,LVgleBuc,2020-0188,2020-11-18,16:06:09,16:22:01,NA,incomplete,144,number,1,right,Green_Star_Dots_1.jpg,Green_Triangle_Stripes_4.jpg,Purple_Circle_Grid_1.jpg,right,1264.4599999766797,true,low,NA,NA,NA,NA,NA,NA,NA,false
LVgleBuc,3lvtfb9df8vfwjy33dzq8w9nvhnqgc,3gm6g9zbkrau3tkbmmwifq0zojotmd,LVgleBuc,2020-0188,2020-11-18,16:06:09,16:22:01,NA,incomplete,145,number,0,left,Blue_Star_Grid_3.jpg,Green_Circle_Stripes_3.jpg,Blue_Triangle_Chess_1.jpg,left,944.1199998836964,true,low,NA,NA,NA,NA,NA,NA,NA,false
LVgleBuc,3lvtfb9df8vfwjy33dzq8w9nvhnqgc,3gm6g9zbkrau3tkbmmwifq0zojotmd,LVgleBuc,2020-0188,2020-11-18,16:06:09,16:22:01,NA,incomplete,146,number,1,left,Blue_Star_Chess_1.jpg,Purple_Plus_Stripes_1.jpg,Blue_Circle_Dots_3.jpg,left,1035.3950001299381,true,low,NA,NA,NA,NA,NA,NA,NA,false
LVgleBuc,3lvtfb9df8vfwjy33dzq8w9nvhnqgc,3gm6g9zbkrau3tkbmmwifq0zojotmd,LVgleBuc,2020-0188,2020-11-18,16:06:09,16:22:01,NA,incomplete,147,number,0,right,Red_Plus_Chess_2.jpg,Red_Triangle_Grid_3.jpg,Purple_Circle_Dots_2.jpg,right,1071.2600001133978,true,low,NA,NA,NA,NA,NA,NA,NA,false
LVgleBuc,3lvtfb9df8vfwjy33dzq8w9nvhnqgc,3gm6g9zbkrau3tkbmmwifq0zojotmd,LVgleBuc,2020-0188,2020-11-18,16:06:09,16:22:01,NA,incomplete,148,number,1,right,Blue_Star_Stripes_4.jpg,Blue_Triangle_Grid_1.jpg,Purple_Plus_Dots_4.jpg,left,551.160000031814,false,low,NA,NA,NA,NA,NA,NA,NA,false
LVgleBuc,3lvtfb9df8vfwjy33dzq8w9nvhnqgc,3gm6g9zbkrau3tkbmmwifq0zojotmd,LVgleBuc,2020-0188,2020-11-18,16:06:09,16:22:01,NA,incomplete,149,number,0,left,Purple_Triangle_Stripes_4.jpg,Blue_Plus_Dots_4.jpg,Purple_Star_Grid_2.jpg,left,1334.9249998573214,true,low,NA,NA,NA,NA,NA,NA,NA,false
LVgleBuc,3lvtfb9df8vfwjy33dzq8w9nvhnqgc,3gm6g9zbkrau3tkbmmwifq0zojotmd,LVgleBuc,2020-0188,2020-11-18,16:06:09,16:22:01,NA,incomplete,150,number,1,right,Purple_Star_Chess_1.jpg,Purple_Plus_Stripes_4.jpg,Blue_Triangle_Grid_1.jpg,left,814.5149999763817,false,low,NA,NA,NA,NA,NA,NA,NA,false
LVgleBuc,3lvtfb9df8vfwjy33dzq8w9nvhnqgc,3gm6g9zbkrau3tkbmmwifq0zojotmd,LVgleBuc,2020-0188,2020-11-18,16:06:09,16:22:01,NA,incomplete,151,number,1,left,Green_Star_Stripes_1.jpg,Red_Plus_Dots_1.jpg,Green_Circle_Chess_3.jpg,left,1075.4799998831004,true,low,NA,NA,NA,NA,NA,NA,NA,false
LVgleBuc,3lvtfb9df8vfwjy33dzq8w9nvhnqgc,3gm6g9zbkrau3tkbmmwifq0zojotmd,LVgleBuc,2020-0188,2020-11-18,16:06:09,16:22:01,NA,incomplete,152,number,1,right,Blue_Star_Grid_1.jpg,Blue_Circle_Chess_2.jpg,Red_Plus_Stripes_1.jpg,right,707.3350001592189,true,low,NA,NA,NA,NA,NA,NA,NA,false
LVgleBuc,3lvtfb9df8vfwjy33dzq8w9nvhnqgc,3gm6g9zbkrau3tkbmmwifq0zojotmd,LVgleBuc,2020-0188,2020-11-18,16:06:09,16:22:01,NA,incomplete,153,number,1,right,Blue_Circle_Dots_1.jpg,Blue_Triangle_Stripes_3.jpg,Green_Star_Chess_1.jpg,right,707.6349998824298,true,low,NA,NA,NA,NA,NA,NA,NA,false
LVgleBuc,3lvtfb9df8vfwjy33dzq8w9nvhnqgc,3gm6g9zbkrau3tkbmmwifq0zojotmd,LVgleBuc,2020-0188,2020-11-18,16:06:09,16:22:01,NA,incomplete,154,number,1,left,Blue_Triangle_Chess_4.jpg,Purple_Star_Grid_4.jpg,Blue_Circle_Dots_1.jpg,left,986.049999948591,true,low,NA,NA,NA,NA,NA,NA,NA,false
LVgleBuc,3lvtfb9df8vfwjy33dzq8w9nvhnqgc,3gm6g9zbkrau3tkbmmwifq0zojotmd,LVgleBuc,2020-0188,2020-11-18,16:06:09,16:22:01,NA,incomplete,155,number,1,right,Green_Circle_Grid_2.jpg,Green_Star_Dots_1.jpg,Blue_Plus_Stripes_2.jpg,right,612.944999942556,true,low,NA,NA,NA,NA,NA,NA,NA,false
LVgleBuc,3lvtfb9df8vfwjy33dzq8w9nvhnqgc,3gm6g9zbkrau3tkbmmwifq0zojotmd,LVgleBuc,2020-0188,2020-11-18,16:06:09,16:22:01,NA,incomplete,156,number,1,right,Purple_Plus_Stripes_1.jpg,Purple_Triangle_Grid_2.jpg,Blue_Star_Chess_1.jpg,right,603.4700002055615,true,low,NA,NA,NA,NA,NA,NA,NA,false
LVgleBuc,3lvtfb9df8vfwjy33dzq8w9nvhnqgc,3gm6g9zbkrau3tkbmmwifq0zojotmd,LVgleBuc,2020-0188,2020-11-18,16:06:09,16:22:01,NA,incomplete,157,number,1,right,Green_Triangle_Dots_1.jpg,Green_Star_Stripes_2.jpg,Red_Plus_Grid_1.jpg,right,660.9600000083447,true,low,NA,NA,NA,NA,NA,NA,NA,false
LVgleBuc,3lvtfb9df8vfwjy33dzq8w9nvhnqgc,3gm6g9zbkrau3tkbmmwifq0zojotmd,LVgleBuc,2020-0188,2020-11-18,16:06:09,16:22:01,NA,incomplete,158,number,0,left,Red_Triangle_Grid_1.jpg,Green_Star_Dots_1.jpg,Red_Plus_Chess_4.jpg,left,574.155000038445,true,low,NA,NA,NA,NA,NA,NA,NA,false
LVgleBuc,3lvtfb9df8vfwjy33dzq8w9nvhnqgc,3gm6g9zbkrau3tkbmmwifq0zojotmd,LVgleBuc,2020-0188,2020-11-18,16:06:09,16:22:01,NA,incomplete,159,number,1,right,Red_Triangle_Grid_3.jpg,Red_Star_Dots_1.jpg,Purple_Circle_Chess_3.jpg,right,827.555000083521,true,low,NA,NA,NA,NA,NA,NA,NA,false
LVgleBuc,3lvtfb9df8vfwjy33dzq8w9nvhnqgc,3gm6g9zbkrau3tkbmmwifq0zojotmd,LVgleBuc,2020-0188,2020-11-18,16:06:09,16:22:01,NA,incomplete,160,color,1,right,Red_Star_Grid_2.jpg,Blue_Plus_Stripes_2.jpg,Red_Circle_Chess_4.jpg,left,661.2100000493228,false,low,NA,NA,NA,NA,NA,NA,NA,false
LVgleBuc,3lvtfb9df8vfwjy33dzq8w9nvhnqgc,3gm6g9zbkrau3tkbmmwifq0zojotmd,LVgleBuc,2020-0188,2020-11-18,16:06:09,16:22:01,NA,incomplete,161,color,1,left,Purple_Star_Grid_4.jpg,Purple_Plus_Chess_1.jpg,Green_Triangle_Stripes_4.jpg,left,574.7500001452863,true,low,NA,NA,NA,NA,NA,NA,NA,false
LVgleBuc,3lvtfb9df8vfwjy33dzq8w9nvhnqgc,3gm6g9zbkrau3tkbmmwifq0zojotmd,LVgleBuc,2020-0188,2020-11-18,16:06:09,16:22:01,NA,incomplete,162,color,1,right,Green_Star_Stripes_2.jpg,Red_Triangle_Chess_2.jpg,Green_Circle_Grid_4.jpg,right,474.4599999394268,true,low,NA,NA,NA,NA,NA,NA,NA,false
LVgleBuc,3lvtfb9df8vfwjy33dzq8w9nvhnqgc,3gm6g9zbkrau3tkbmmwifq0zojotmd,LVgleBuc,2020-0188,2020-11-18,16:06:09,16:22:01,NA,incomplete,163,color,1,right,Blue_Plus_Dots_4.jpg,Purple_Triangle_Grid_4.jpg,Blue_Circle_Chess_1.jpg,right,944.5899999700487,true,low,NA,NA,NA,NA,NA,NA,NA,false
LVgleBuc,3lvtfb9df8vfwjy33dzq8w9nvhnqgc,3gm6g9zbkrau3tkbmmwifq0zojotmd,LVgleBuc,2020-0188,2020-11-18,16:06:09,16:22:01,NA,incomplete,164,color,1,right,Blue_Star_Grid_4.jpg,Green_Plus_Chess_4.jpg,Blue_Triangle_Stripes_2.jpg,right,717.8500001318753,true,low,NA,NA,NA,NA,NA,NA,NA,false
LVgleBuc,3lvtfb9df8vfwjy33dzq8w9nvhnqgc,3gm6g9zbkrau3tkbmmwifq0zojotmd,LVgleBuc,2020-0188,2020-11-18,16:06:09,16:22:01,NA,incomplete,165,color,1,right,Red_Triangle_Dots_3.jpg,Green_Plus_Stripes_3.jpg,Red_Star_Grid_4.jpg,right,1015.1899999473244,true,low,NA,NA,NA,NA,NA,NA,NA,false
LVgleBuc,3lvtfb9df8vfwjy33dzq8w9nvhnqgc,3gm6g9zbkrau3tkbmmwifq0zojotmd,LVgleBuc,2020-0188,2020-11-18,16:06:09,16:22:01,NA,incomplete,166,color,0,right,Purple_Star_Stripes_3.jpg,Blue_Plus_Dots_3.jpg,Purple_Circle_Grid_2.jpg,right,600.2449998632073,true,low,NA,NA,NA,NA,NA,NA,NA,false
LVgleBuc,3lvtfb9df8vfwjy33dzq8w9nvhnqgc,3gm6g9zbkrau3tkbmmwifq0zojotmd,LVgleBuc,2020-0188,2020-11-18,16:06:09,16:22:01,NA,incomplete,167,color,1,left,Red_Star_Chess_1.jpg,Red_Circle_Stripes_3.jpg,Green_Triangle_Dots_1.jpg,left,497.8349998127669,true,low,NA,NA,NA,NA,NA,NA,NA,false
LVgleBuc,3lvtfb9df8vfwjy33dzq8w9nvhnqgc,3gm6g9zbkrau3tkbmmwifq0zojotmd,LVgleBuc,2020-0188,2020-11-18,16:06:09,16:22:01,NA,incomplete,168,color,1,left,Red_Triangle_Dots_4.jpg,Red_Plus_Stripes_3.jpg,Blue_Star_Chess_4.jpg,left,989.219999872148,true,low,NA,NA,NA,NA,NA,NA,NA,false
LVgleBuc,3lvtfb9df8vfwjy33dzq8w9nvhnqgc,3gm6g9zbkrau3tkbmmwifq0zojotmd,LVgleBuc,2020-0188,2020-11-18,16:06:09,16:22:01,NA,incomplete,169,color,0,right,Purple_Plus_Stripes_2.jpg,Green_Triangle_Dots_2.jpg,Purple_Circle_Chess_4.jpg,right,476.4149999246001,true,low,NA,NA,NA,NA,NA,NA,NA,false
LVgleBuc,3lvtfb9df8vfwjy33dzq8w9nvhnqgc,3gm6g9zbkrau3tkbmmwifq0zojotmd,LVgleBuc,2020-0188,2020-11-18,16:06:09,16:22:01,NA,incomplete,170,color,1,left,Blue_Plus_Grid_3.jpg,Blue_Star_Chess_2.jpg,Green_Circle_Dots_3.jpg,left,566.5250001475215,true,low,NA,NA,NA,NA,NA,NA,NA,false
LVgleBuc,3lvtfb9df8vfwjy33dzq8w9nvhnqgc,3gm6g9zbkrau3tkbmmwifq0zojotmd,LVgleBuc,2020-0188,2020-11-18,16:06:09,16:22:01,NA,incomplete,171,color,1,right,Green_Plus_Grid_4.jpg,Blue_Star_Stripes_4.jpg,Green_Triangle_Dots_1.jpg,right,488.1349999923259,true,low,NA,NA,NA,NA,NA,NA,NA,false
LVgleBuc,3lvtfb9df8vfwjy33dzq8w9nvhnqgc,3gm6g9zbkrau3tkbmmwifq0zojotmd,LVgleBuc,2020-0188,2020-11-18,16:06:09,16:22:01,NA,incomplete,172,color,1,right,Blue_Triangle_Grid_2.jpg,Red_Circle_Stripes_2.jpg,Blue_Star_Chess_3.jpg,right,533.3600000012666,true,low,NA,NA,NA,NA,NA,NA,NA,false
LVgleBuc,3lvtfb9df8vfwjy33dzq8w9nvhnqgc,3gm6g9zbkrau3tkbmmwifq0zojotmd,LVgleBuc,2020-0188,2020-11-18,16:06:09,16:22:01,NA,incomplete,173,color,1,left,Green_Circle_Chess_1.jpg,Green_Star_Stripes_3.jpg,Blue_Plus_Grid_1.jpg,left,420.21999997086823,true,low,NA,NA,NA,NA,NA,NA,NA,false
LVgleBuc,3lvtfb9df8vfwjy33dzq8w9nvhnqgc,3gm6g9zbkrau3tkbmmwifq0zojotmd,LVgleBuc,2020-0188,2020-11-18,16:06:09,16:22:01,NA,incomplete,174,color,1,left,Red_Circle_Grid_3.jpg,Red_Triangle_Dots_2.jpg,Purple_Plus_Chess_3.jpg,left,517.6550000905991,true,low,NA,NA,NA,NA,NA,NA,NA,false
LVgleBuc,3lvtfb9df8vfwjy33dzq8w9nvhnqgc,3gm6g9zbkrau3tkbmmwifq0zojotmd,LVgleBuc,2020-0188,2020-11-18,16:06:09,16:22:01,NA,incomplete,175,color,1,right,Red_Circle_Dots_4.jpg,Green_Triangle_Stripes_4.jpg,Red_Star_Chess_1.jpg,right,648.5349999275059,true,low,NA,NA,NA,NA,NA,NA,NA,false
LVgleBuc,3lvtfb9df8vfwjy33dzq8w9nvhnqgc,3gm6g9zbkrau3tkbmmwifq0zojotmd,LVgleBuc,2020-0188,2020-11-18,16:06:09,16:22:01,NA,incomplete,176,color,1,left,Purple_Plus_Dots_1.jpg,Purple_Circle_Chess_2.jpg,Blue_Star_Stripes_1.jpg,left,591.0900000017136,true,low,NA,NA,NA,NA,NA,NA,NA,false
LVgleBuc,3lvtfb9df8vfwjy33dzq8w9nvhnqgc,3gm6g9zbkrau3tkbmmwifq0zojotmd,LVgleBuc,2020-0188,2020-11-18,16:06:09,16:22:01,NA,incomplete,177,color,1,right,Red_Star_Chess_4.jpg,Purple_Circle_Stripes_4.jpg,Red_Plus_Dots_1.jpg,right,697.3300001118332,true,low,NA,NA,NA,NA,NA,NA,NA,false
LVgleBuc,3lvtfb9df8vfwjy33dzq8w9nvhnqgc,3gm6g9zbkrau3tkbmmwifq0zojotmd,LVgleBuc,2020-0188,2020-11-18,16:06:09,16:22:01,NA,incomplete,178,color,1,left,Green_Triangle_Dots_3.jpg,Green_Plus_Stripes_1.jpg,Blue_Star_Chess_3.jpg,left,491.15499993786216,true,low,NA,NA,NA,NA,NA,NA,NA,false
LVgleBuc,3lvtfb9df8vfwjy33dzq8w9nvhnqgc,3gm6g9zbkrau3tkbmmwifq0zojotmd,LVgleBuc,2020-0188,2020-11-18,16:06:09,16:22:01,NA,incomplete,179,color,0,left,Red_Plus_Chess_3.jpg,Red_Circle_Grid_2.jpg,Blue_Star_Dots_3.jpg,left,530.5050001479685,true,low,NA,NA,NA,NA,NA,NA,NA,false
LVgleBuc,3lvtfb9df8vfwjy33dzq8w9nvhnqgc,3gm6g9zbkrau3tkbmmwifq0zojotmd,LVgleBuc,2020-0188,2020-11-18,16:06:09,16:22:01,NA,incomplete,180,number,1,right,Green_Circle_Chess_2.jpg,Green_Triangle_Grid_4.jpg,Purple_Star_Dots_2.jpg,left,606.9900000002235,false,low,NA,NA,NA,NA,NA,NA,NA,false
LVgleBuc,3lvtfb9df8vfwjy33dzq8w9nvhnqgc,3gm6g9zbkrau3tkbmmwifq0zojotmd,LVgleBuc,2020-0188,2020-11-18,16:06:09,16:22:01,NA,incomplete,181,number,1,right,Red_Circle_Chess_2.jpg,Red_Star_Dots_4.jpg,Purple_Plus_Grid_2.jpg,right,910.0699999835342,true,low,NA,NA,NA,NA,NA,NA,NA,false
LVgleBuc,3lvtfb9df8vfwjy33dzq8w9nvhnqgc,3gm6g9zbkrau3tkbmmwifq0zojotmd,LVgleBuc,2020-0188,2020-11-18,16:06:09,16:22:01,NA,incomplete,182,number,1,right,Blue_Triangle_Chess_3.jpg,Blue_Circle_Grid_4.jpg,Green_Star_Stripes_3.jpg,right,788.6299998499453,true,low,NA,NA,NA,NA,NA,NA,NA,false
LVgleBuc,3lvtfb9df8vfwjy33dzq8w9nvhnqgc,3gm6g9zbkrau3tkbmmwifq0zojotmd,LVgleBuc,2020-0188,2020-11-18,16:06:09,16:22:01,NA,incomplete,183,number,1,left,Purple_Star_Dots_3.jpg,Red_Circle_Chess_3.jpg,Purple_Plus_Grid_1.jpg,left,1171.0699999239296,true,low,NA,NA,NA,NA,NA,NA,NA,false
LVgleBuc,3lvtfb9df8vfwjy33dzq8w9nvhnqgc,3gm6g9zbkrau3tkbmmwifq0zojotmd,LVgleBuc,2020-0188,2020-11-18,16:06:09,16:22:01,NA,incomplete,184,number,1,right,Blue_Circle_Grid_2.jpg,Blue_Plus_Dots_4.jpg,Red_Triangle_Chess_2.jpg,right,800.2400000113994,true,low,NA,NA,NA,NA,NA,NA,NA,false
LVgleBuc,3lvtfb9df8vfwjy33dzq8w9nvhnqgc,3gm6g9zbkrau3tkbmmwifq0zojotmd,LVgleBuc,2020-0188,2020-11-18,16:06:09,16:22:01,NA,incomplete,185,number,0,left,Green_Triangle_Grid_2.jpg,Red_Star_Dots_2.jpg,Green_Circle_Chess_3.jpg,right,533.0300000496209,false,low,NA,NA,NA,NA,NA,NA,NA,false
LVgleBuc,3lvtfb9df8vfwjy33dzq8w9nvhnqgc,3gm6g9zbkrau3tkbmmwifq0zojotmd,LVgleBuc,2020-0188,2020-11-18,16:06:09,16:22:01,NA,incomplete,186,number,1,left,Red_Triangle_Stripes_1.jpg,Purple_Plus_Grid_1.jpg,Red_Circle_Dots_4.jpg,left,1286.6650000214577,true,low,NA,NA,NA,NA,NA,NA,NA,false
LVgleBuc,3lvtfb9df8vfwjy33dzq8w9nvhnqgc,3gm6g9zbkrau3tkbmmwifq0zojotmd,LVgleBuc,2020-0188,2020-11-18,16:06:09,16:22:01,NA,incomplete,187,number,1,left,Purple_Star_Chess_3.jpg,Red_Plus_Dots_3.jpg,Purple_Circle_Grid_1.jpg,left,671.1800000630319,true,low,NA,NA,NA,NA,NA,NA,NA,false
LVgleBuc,3lvtfb9df8vfwjy33dzq8w9nvhnqgc,3gm6g9zbkrau3tkbmmwifq0zojotmd,LVgleBuc,2020-0188,2020-11-18,16:06:09,16:22:01,NA,incomplete,188,number,0,left,Red_Circle_Grid_2.jpg,Purple_Triangle_Dots_2.jpg,Red_Star_Chess_3.jpg,left,677.8450000565499,true,low,NA,NA,NA,NA,NA,NA,NA,false
LVgleBuc,3lvtfb9df8vfwjy33dzq8w9nvhnqgc,3gm6g9zbkrau3tkbmmwifq0zojotmd,LVgleBuc,2020-0188,2020-11-18,16:06:09,16:22:01,NA,incomplete,189,number,1,right,Red_Plus_Grid_4.jpg,Red_Star_Chess_2.jpg,Purple_Triangle_Dots_4.jpg,right,971.5249999426305,true,low,NA,NA,NA,NA,NA,NA,NA,false
LVgleBuc,3lvtfb9df8vfwjy33dzq8w9nvhnqgc,3gm6g9zbkrau3tkbmmwifq0zojotmd,LVgleBuc,2020-0188,2020-11-18,16:06:09,16:22:01,NA,incomplete,190,number,1,left,Purple_Plus_Stripes_3.jpg,Red_Star_Dots_3.jpg,Purple_Circle_Chess_2.jpg,left,668.8449999783188,true,low,NA,NA,NA,NA,NA,NA,NA,false
LVgleBuc,3lvtfb9df8vfwjy33dzq8w9nvhnqgc,3gm6g9zbkrau3tkbmmwifq0zojotmd,LVgleBuc,2020-0188,2020-11-18,16:06:09,16:22:01,NA,incomplete,191,number,1,left,Blue_Triangle_Dots_4.jpg,Green_Star_Chess_4.jpg,Blue_Circle_Stripes_1.jpg,left,649.0000002086163,true,low,NA,NA,NA,NA,NA,NA,NA,false
LVgleBuc,3lvtfb9df8vfwjy33dzq8w9nvhnqgc,3gm6g9zbkrau3tkbmmwifq0zojotmd,LVgleBuc,2020-0188,2020-11-18,16:06:09,16:22:01,NA,incomplete,192,number,1,right,Blue_Circle_Grid_3.jpg,Blue_Plus_Dots_2.jpg,Red_Triangle_Chess_3.jpg,right,700.124999973923,true,low,NA,NA,NA,NA,NA,NA,NA,false
LVgleBuc,3lvtfb9df8vfwjy33dzq8w9nvhnqgc,3gm6g9zbkrau3tkbmmwifq0zojotmd,LVgleBuc,2020-0188,2020-11-18,16:06:09,16:22:01,NA,incomplete,193,number,0,left,Red_Star_Grid_4.jpg,Green_Circle_Dots_4.jpg,Red_Plus_Stripes_2.jpg,left,672.0050000585616,true,low,NA,NA,NA,NA,NA,NA,NA,false
LVgleBuc,3lvtfb9df8vfwjy33dzq8w9nvhnqgc,3gm6g9zbkrau3tkbmmwifq0zojotmd,LVgleBuc,2020-0188,2020-11-18,16:06:09,16:22:01,NA,incomplete,194,number,1,right,Purple_Star_Grid_3.jpg,Purple_Triangle_Dots_2.jpg,Green_Plus_Chess_3.jpg,right,636.6149999666959,true,low,NA,NA,NA,NA,NA,NA,NA,false
LVgleBuc,3lvtfb9df8vfwjy33dzq8w9nvhnqgc,3gm6g9zbkrau3tkbmmwifq0zojotmd,LVgleBuc,2020-0188,2020-11-18,16:06:09,16:22:01,NA,incomplete,195,number,1,right,Red_Star_Grid_4.jpg,Red_Plus_Chess_1.jpg,Blue_Circle_Stripes_4.jpg,right,671.9949999824166,true,low,NA,NA,NA,NA,NA,NA,NA,false
LVgleBuc,3lvtfb9df8vfwjy33dzq8w9nvhnqgc,3gm6g9zbkrau3tkbmmwifq0zojotmd,LVgleBuc,2020-0188,2020-11-18,16:06:09,16:22:01,NA,incomplete,196,number,0,right,Red_Circle_Chess_1.jpg,Red_Star_Stripes_3.jpg,Purple_Triangle_Grid_1.jpg,right,773.3199999202043,true,low,NA,NA,NA,NA,NA,NA,NA,false
LVgleBuc,3lvtfb9df8vfwjy33dzq8w9nvhnqgc,3gm6g9zbkrau3tkbmmwifq0zojotmd,LVgleBuc,2020-0188,2020-11-18,16:06:09,16:22:01,NA,incomplete,197,number,1,left,Blue_Star_Chess_4.jpg,Red_Plus_Dots_4.jpg,Blue_Triangle_Grid_2.jpg,right,586.7250000592321,false,low,NA,NA,NA,NA,NA,NA,NA,false
LVgleBuc,3lvtfb9df8vfwjy33dzq8w9nvhnqgc,3gm6g9zbkrau3tkbmmwifq0zojotmd,LVgleBuc,2020-0188,2020-11-18,16:06:09,16:22:01,NA,incomplete,198,number,1,left,Blue_Circle_Dots_4.jpg,Purple_Triangle_Grid_4.jpg,Blue_Plus_Chess_3.jpg,left,696.9699999317527,true,low,NA,NA,NA,NA,NA,NA,NA,false
LVgleBuc,3lvtfb9df8vfwjy33dzq8w9nvhnqgc,3gm6g9zbkrau3tkbmmwifq0zojotmd,LVgleBuc,2020-0188,2020-11-18,16:06:09,16:22:01,NA,incomplete,199,number,1,left,Purple_Plus_Stripes_1.jpg,Red_Circle_Dots_1.jpg,Purple_Star_Chess_2.jpg,left,1117.7749999333173,true,low,NA,NA,NA,NA,NA,NA,NA,false
LVgleBuc,3lvtfb9df8vfwjy33dzq8w9nvhnqgc,3gm6g9zbkrau3tkbmmwifq0zojotmd,LVgleBuc,2020-0188,2020-11-18,16:06:09,16:22:01,NA,incomplete,200,color,1,left,Red_Plus_Grid_2.jpg,Red_Circle_Stripes_4.jpg,Blue_Triangle_Dots_2.jpg,right,735.4550000745803,false,low,NA,NA,NA,NA,NA,NA,NA,false
LVgleBuc,3lvtfb9df8vfwjy33dzq8w9nvhnqgc,3gm6g9zbkrau3tkbmmwifq0zojotmd,LVgleBuc,2020-0188,2020-11-18,16:06:09,16:22:01,NA,incomplete,201,color,0,right,Purple_Circle_Dots_1.jpg,Red_Triangle_Chess_1.jpg,Purple_Plus_Grid_3.jpg,left,925.0999998766929,false,low,NA,NA,NA,NA,NA,NA,NA,false
LVgleBuc,3lvtfb9df8vfwjy33dzq8w9nvhnqgc,3gm6g9zbkrau3tkbmmwifq0zojotmd,LVgleBuc,2020-0188,2020-11-18,16:06:09,16:22:01,NA,incomplete,202,color,1,right,Purple_Circle_Chess_3.jpg,Green_Plus_Grid_3.jpg,Purple_Triangle_Stripes_4.jpg,left,788.2550000213087,false,low,NA,NA,NA,NA,NA,NA,NA,false
LVgleBuc,3lvtfb9df8vfwjy33dzq8w9nvhnqgc,3gm6g9zbkrau3tkbmmwifq0zojotmd,LVgleBuc,2020-0188,2020-11-18,16:06:09,16:22:01,NA,incomplete,203,color,1,right,Red_Triangle_Chess_2.jpg,Purple_Star_Grid_2.jpg,Red_Plus_Dots_4.jpg,left,838.6949999257922,false,low,NA,NA,NA,NA,NA,NA,NA,false
LVgleBuc,3lvtfb9df8vfwjy33dzq8w9nvhnqgc,3gm6g9zbkrau3tkbmmwifq0zojotmd,LVgleBuc,2020-0188,2020-11-18,16:06:09,16:22:01,NA,incomplete,204,color,1,right,Green_Circle_Dots_2.jpg,Purple_Triangle_Stripes_2.jpg,Green_Star_Grid_3.jpg,right,491.51499988511205,true,low,NA,NA,NA,NA,NA,NA,NA,false
LVgleBuc,3lvtfb9df8vfwjy33dzq8w9nvhnqgc,3gm6g9zbkrau3tkbmmwifq0zojotmd,LVgleBuc,2020-0188,2020-11-18,16:06:09,16:22:01,NA,incomplete,205,color,0,right,Blue_Triangle_Stripes_4.jpg,Red_Plus_Dots_4.jpg,Blue_Circle_Grid_3.jpg,right,492.0049998909235,true,low,NA,NA,NA,NA,NA,NA,NA,false
LVgleBuc,3lvtfb9df8vfwjy33dzq8w9nvhnqgc,3gm6g9zbkrau3tkbmmwifq0zojotmd,LVgleBuc,2020-0188,2020-11-18,16:06:09,16:22:01,NA,incomplete,206,color,1,left,Red_Star_Chess_1.jpg,Red_Plus_Stripes_3.jpg,Green_Circle_Dots_1.jpg,left,511.0200000926852,true,low,NA,NA,NA,NA,NA,NA,NA,false
LVgleBuc,3lvtfb9df8vfwjy33dzq8w9nvhnqgc,3gm6g9zbkrau3tkbmmwifq0zojotmd,LVgleBuc,2020-0188,2020-11-18,16:06:09,16:22:01,NA,incomplete,207,color,1,left,Blue_Triangle_Dots_3.jpg,Blue_Circle_Grid_2.jpg,Red_Plus_Stripes_3.jpg,left,505.6849999818951,true,low,NA,NA,NA,NA,NA,NA,NA,false
LVgleBuc,3lvtfb9df8vfwjy33dzq8w9nvhnqgc,3gm6g9zbkrau3tkbmmwifq0zojotmd,LVgleBuc,2020-0188,2020-11-18,16:06:09,16:22:01,NA,incomplete,208,color,1,right,Purple_Star_Stripes_3.jpg,Green_Triangle_Chess_3.jpg,Purple_Plus_Dots_4.jpg,right,694.3699999246746,true,low,NA,NA,NA,NA,NA,NA,NA,false
LVgleBuc,3lvtfb9df8vfwjy33dzq8w9nvhnqgc,3gm6g9zbkrau3tkbmmwifq0zojotmd,LVgleBuc,2020-0188,2020-11-18,16:06:09,16:22:01,NA,incomplete,209,color,0,right,Green_Star_Grid_1.jpg,Purple_Plus_Chess_1.jpg,Green_Triangle_Stripes_3.jpg,right,1076.1499998625368,true,low,NA,NA,NA,NA,NA,NA,NA,false
LVgleBuc,3lvtfb9df8vfwjy33dzq8w9nvhnqgc,3gm6g9zbkrau3tkbmmwifq0zojotmd,LVgleBuc,2020-0188,2020-11-18,16:06:09,16:22:01,NA,incomplete,210,color,1,right,Purple_Star_Dots_4.jpg,Red_Plus_Chess_4.jpg,Purple_Circle_Grid_1.jpg,right,714.3600000999868,true,low,NA,NA,NA,NA,NA,NA,NA,false
LVgleBuc,3lvtfb9df8vfwjy33dzq8w9nvhnqgc,3gm6g9zbkrau3tkbmmwifq0zojotmd,LVgleBuc,2020-0188,2020-11-18,16:06:09,16:22:01,NA,incomplete,211,color,0,right,Purple_Triangle_Dots_4.jpg,Blue_Plus_Grid_4.jpg,Purple_Circle_Chess_3.jpg,right,433.1350000575185,true,low,NA,NA,NA,NA,NA,NA,NA,false
LVgleBuc,3lvtfb9df8vfwjy33dzq8w9nvhnqgc,3gm6g9zbkrau3tkbmmwifq0zojotmd,LVgleBuc,2020-0188,2020-11-18,16:06:09,16:22:01,NA,incomplete,212,color,1,right,Purple_Star_Dots_3.jpg,Green_Triangle_Stripes_3.jpg,Purple_Circle_Grid_2.jpg,right,689.3249999266118,true,low,NA,NA,NA,NA,NA,NA,NA,false
LVgleBuc,3lvtfb9df8vfwjy33dzq8w9nvhnqgc,3gm6g9zbkrau3tkbmmwifq0zojotmd,LVgleBuc,2020-0188,2020-11-18,16:06:09,16:22:01,NA,incomplete,213,color,0,right,Blue_Star_Grid_3.jpg,Red_Circle_Stripes_3.jpg,Blue_Triangle_Dots_4.jpg,right,486.2849998753518,true,low,NA,NA,NA,NA,NA,NA,NA,false
LVgleBuc,3lvtfb9df8vfwjy33dzq8w9nvhnqgc,3gm6g9zbkrau3tkbmmwifq0zojotmd,LVgleBuc,2020-0188,2020-11-18,16:06:09,16:22:01,NA,incomplete,214,color,1,left,Blue_Plus_Stripes_4.jpg,Blue_Circle_Grid_2.jpg,Purple_Triangle_Dots_4.jpg,left,973.5049998853356,true,low,NA,NA,NA,NA,NA,NA,NA,false
LVgleBuc,3lvtfb9df8vfwjy33dzq8w9nvhnqgc,3gm6g9zbkrau3tkbmmwifq0zojotmd,LVgleBuc,2020-0188,2020-11-18,16:06:09,16:22:01,NA,incomplete,215,color,0,left,Purple_Circle_Dots_1.jpg,Purple_Star_Chess_2.jpg,Green_Triangle_Stripes_1.jpg,left,497.98500002361834,true,low,NA,NA,NA,NA,NA,NA,NA,false
LVgleBuc,3lvtfb9df8vfwjy33dzq8w9nvhnqgc,3gm6g9zbkrau3tkbmmwifq0zojotmd,LVgleBuc,2020-0188,2020-11-18,16:06:09,16:22:01,NA,incomplete,216,color,1,right,Green_Star_Dots_1.jpg,Blue_Triangle_Chess_1.jpg,Green_Plus_Grid_3.jpg,left,705.0000000745058,false,low,NA,NA,NA,NA,NA,NA,NA,false
LVgleBuc,3lvtfb9df8vfwjy33dzq8w9nvhnqgc,3gm6g9zbkrau3tkbmmwifq0zojotmd,LVgleBuc,2020-0188,2020-11-18,16:06:09,16:22:01,NA,incomplete,217,color,1,left,Purple_Circle_Chess_4.jpg,Purple_Triangle_Dots_3.jpg,Red_Star_Stripes_4.jpg,left,713.1250000093132,true,low,NA,NA,NA,NA,NA,NA,NA,false
LVgleBuc,3lvtfb9df8vfwjy33dzq8w9nvhnqgc,3gm6g9zbkrau3tkbmmwifq0zojotmd,LVgleBuc,2020-0188,2020-11-18,16:06:09,16:22:01,NA,incomplete,218,color,1,right,Green_Circle_Grid_3.jpg,Red_Plus_Dots_3.jpg,Green_Triangle_Chess_2.jpg,right,1147.3699999041855,true,low,NA,NA,NA,NA,NA,NA,NA,false
LVgleBuc,3lvtfb9df8vfwjy33dzq8w9nvhnqgc,3gm6g9zbkrau3tkbmmwifq0zojotmd,LVgleBuc,2020-0188,2020-11-18,16:06:09,16:22:01,NA,incomplete,219,color,1,right,Blue_Plus_Grid_2.jpg,Purple_Triangle_Stripes_2.jpg,Blue_Star_Chess_1.jpg,right,562.3399999458343,true,low,NA,NA,NA,NA,NA,NA,NA,false
LVgleBuc,3lvtfb9df8vfwjy33dzq8w9nvhnqgc,3gm6g9zbkrau3tkbmmwifq0zojotmd,LVgleBuc,2020-0188,2020-11-18,16:06:09,16:22:01,NA,incomplete,220,number,1,right,Red_Triangle_Grid_1.jpg,Red_Star_Dots_3.jpg,Green_Plus_Stripes_1.jpg,left,682.2299999184906,false,low,NA,NA,NA,NA,NA,NA,NA,false
LVgleBuc,3lvtfb9df8vfwjy33dzq8w9nvhnqgc,3gm6g9zbkrau3tkbmmwifq0zojotmd,LVgleBuc,2020-0188,2020-11-18,16:06:09,16:22:01,NA,incomplete,221,number,1,left,Blue_Circle_Dots_1.jpg,Green_Triangle_Grid_1.jpg,Blue_Plus_Chess_3.jpg,right,441.48499984294176,false,low,NA,NA,NA,NA,NA,NA,NA,false
LVgleBuc,3lvtfb9df8vfwjy33dzq8w9nvhnqgc,3gm6g9zbkrau3tkbmmwifq0zojotmd,LVgleBuc,2020-0188,2020-11-18,16:06:09,16:22:01,NA,incomplete,222,number,0,left,Blue_Plus_Dots_1.jpg,Purple_Triangle_Grid_1.jpg,Blue_Star_Chess_2.jpg,left,843.0250000674278,true,low,NA,NA,NA,NA,NA,NA,NA,false
LVgleBuc,3lvtfb9df8vfwjy33dzq8w9nvhnqgc,3gm6g9zbkrau3tkbmmwifq0zojotmd,LVgleBuc,2020-0188,2020-11-18,16:06:09,16:22:01,NA,incomplete,223,number,1,left,Purple_Star_Stripes_3.jpg,Blue_Plus_Dots_3.jpg,Purple_Triangle_Grid_4.jpg,left,876.5549999661744,true,low,NA,NA,NA,NA,NA,NA,NA,false
LVgleBuc,3lvtfb9df8vfwjy33dzq8w9nvhnqgc,3gm6g9zbkrau3tkbmmwifq0zojotmd,LVgleBuc,2020-0188,2020-11-18,16:06:09,16:22:01,NA,incomplete,224,number,1,left,Blue_Triangle_Dots_1.jpg,Green_Plus_Grid_1.jpg,Blue_Star_Chess_3.jpg,left,856.6850000061095,true,low,NA,NA,NA,NA,NA,NA,NA,false
LVgleBuc,3lvtfb9df8vfwjy33dzq8w9nvhnqgc,3gm6g9zbkrau3tkbmmwifq0zojotmd,LVgleBuc,2020-0188,2020-11-18,16:06:09,16:22:01,NA,incomplete,225,number,1,right,Green_Star_Grid_1.jpg,Green_Triangle_Chess_4.jpg,Purple_Circle_Dots_1.jpg,right,813.035000115633,true,low,NA,NA,NA,NA,NA,NA,NA,false
LVgleBuc,3lvtfb9df8vfwjy33dzq8w9nvhnqgc,3gm6g9zbkrau3tkbmmwifq0zojotmd,LVgleBuc,2020-0188,2020-11-18,16:06:09,16:22:01,NA,incomplete,226,number,1,right,Blue_Triangle_Chess_3.jpg,Blue_Circle_Dots_4.jpg,Purple_Star_Grid_3.jpg,right,725.645000115037,true,low,NA,NA,NA,NA,NA,NA,NA,false
LVgleBuc,3lvtfb9df8vfwjy33dzq8w9nvhnqgc,3gm6g9zbkrau3tkbmmwifq0zojotmd,LVgleBuc,2020-0188,2020-11-18,16:06:09,16:22:01,NA,incomplete,227,number,1,left,Purple_Plus_Stripes_2.jpg,Green_Triangle_Dots_2.jpg,Purple_Circle_Grid_4.jpg,left,670.2599998097867,true,low,NA,NA,NA,NA,NA,NA,NA,false
LVgleBuc,3lvtfb9df8vfwjy33dzq8w9nvhnqgc,3gm6g9zbkrau3tkbmmwifq0zojotmd,LVgleBuc,2020-0188,2020-11-18,16:06:09,16:22:01,NA,incomplete,228,number,1,left,Red_Circle_Chess_4.jpg,Blue_Star_Dots_4.jpg,Red_Plus_Grid_3.jpg,left,630.7549998164177,true,low,NA,NA,NA,NA,NA,NA,NA,false
LVgleBuc,3lvtfb9df8vfwjy33dzq8w9nvhnqgc,3gm6g9zbkrau3tkbmmwifq0zojotmd,LVgleBuc,2020-0188,2020-11-18,16:06:09,16:22:01,NA,incomplete,229,number,1,left,Purple_Star_Grid_3.jpg,Blue_Circle_Chess_3.jpg,Purple_Plus_Dots_4.jpg,left,664.4999999552965,true,low,NA,NA,NA,NA,NA,NA,NA,false
LVgleBuc,3lvtfb9df8vfwjy33dzq8w9nvhnqgc,3gm6g9zbkrau3tkbmmwifq0zojotmd,LVgleBuc,2020-0188,2020-11-18,16:06:09,16:22:01,NA,incomplete,230,number,1,right,Blue_Star_Grid_3.jpg,Blue_Plus_Dots_1.jpg,Purple_Circle_Chess_3.jpg,right,605.1149999257177,true,low,NA,NA,NA,NA,NA,NA,NA,false
LVgleBuc,3lvtfb9df8vfwjy33dzq8w9nvhnqgc,3gm6g9zbkrau3tkbmmwifq0zojotmd,LVgleBuc,2020-0188,2020-11-18,16:06:09,16:22:01,NA,incomplete,231,number,0,right,Blue_Triangle_Chess_4.jpg,Blue_Star_Grid_2.jpg,Green_Circle_Dots_4.jpg,right,797.6849998813123,true,low,NA,NA,NA,NA,NA,NA,NA,false
LVgleBuc,3lvtfb9df8vfwjy33dzq8w9nvhnqgc,3gm6g9zbkrau3tkbmmwifq0zojotmd,LVgleBuc,2020-0188,2020-11-18,16:06:09,16:22:01,NA,incomplete,232,number,1,left,Red_Triangle_Stripes_3.jpg,Purple_Star_Grid_3.jpg,Red_Circle_Dots_4.jpg,left,660.0649999454618,true,low,NA,NA,NA,NA,NA,NA,NA,false
LVgleBuc,3lvtfb9df8vfwjy33dzq8w9nvhnqgc,3gm6g9zbkrau3tkbmmwifq0zojotmd,LVgleBuc,2020-0188,2020-11-18,16:06:09,16:22:01,NA,incomplete,233,number,0,right,Red_Circle_Chess_3.jpg,Red_Triangle_Stripes_2.jpg,Purple_Plus_Dots_3.jpg,right,629.3399999849498,true,low,NA,NA,NA,NA,NA,NA,NA,false
LVgleBuc,3lvtfb9df8vfwjy33dzq8w9nvhnqgc,3gm6g9zbkrau3tkbmmwifq0zojotmd,LVgleBuc,2020-0188,2020-11-18,16:06:09,16:22:01,NA,incomplete,234,number,1,right,Green_Plus_Grid_2.jpg,Green_Triangle_Dots_3.jpg,Purple_Circle_Stripes_2.jpg,right,881.0000000521541,true,low,NA,NA,NA,NA,NA,NA,NA,false
LVgleBuc,3lvtfb9df8vfwjy33dzq8w9nvhnqgc,3gm6g9zbkrau3tkbmmwifq0zojotmd,LVgleBuc,2020-0188,2020-11-18,16:06:09,16:22:01,NA,incomplete,235,number,1,right,Blue_Plus_Grid_2.jpg,Blue_Circle_Dots_3.jpg,Green_Triangle_Stripes_2.jpg,right,684.5949999988079,true,low,NA,NA,NA,NA,NA,NA,NA,false
LVgleBuc,3lvtfb9df8vfwjy33dzq8w9nvhnqgc,3gm6g9zbkrau3tkbmmwifq0zojotmd,LVgleBuc,2020-0188,2020-11-18,16:06:09,16:22:01,NA,incomplete,236,number,1,left,Red_Plus_Chess_3.jpg,Purple_Star_Stripes_3.jpg,Red_Circle_Dots_2.jpg,left,590.8049999270588,true,low,NA,NA,NA,NA,NA,NA,NA,false
LVgleBuc,3lvtfb9df8vfwjy33dzq8w9nvhnqgc,3gm6g9zbkrau3tkbmmwifq0zojotmd,LVgleBuc,2020-0188,2020-11-18,16:06:09,16:22:01,NA,incomplete,237,number,1,left,Red_Triangle_Grid_4.jpg,Green_Circle_Dots_4.jpg,Red_Star_Chess_2.jpg,left,740.0650000199676,true,low,NA,NA,NA,NA,NA,NA,NA,false
LVgleBuc,3lvtfb9df8vfwjy33dzq8w9nvhnqgc,3gm6g9zbkrau3tkbmmwifq0zojotmd,LVgleBuc,2020-0188,2020-11-18,16:06:09,16:22:01,NA,incomplete,238,number,1,left,Blue_Circle_Grid_1.jpg,Red_Triangle_Dots_1.jpg,Blue_Plus_Stripes_2.jpg,left,1124.9199998565018,true,low,NA,NA,NA,NA,NA,NA,NA,false
LVgleBuc,3lvtfb9df8vfwjy33dzq8w9nvhnqgc,3gm6g9zbkrau3tkbmmwifq0zojotmd,LVgleBuc,2020-0188,2020-11-18,16:06:09,16:22:01,NA,incomplete,239,number,1,left,Blue_Circle_Stripes_1.jpg,Purple_Plus_Chess_1.jpg,Blue_Triangle_Dots_4.jpg,left,700.6100001744926,true,low,NA,NA,NA,NA,NA,NA,NA,false
LVgleBuc,3lvtfb9df8vfwjy33dzq8w9nvhnqgc,3gm6g9zbkrau3tkbmmwifq0zojotmd,LVgleBuc,2020-0188,2020-11-18,16:06:09,16:22:01,NA,NA,instruction example,shape,NA,NA,Blue_Star_Dots_4.jpg,Green_Star_Chess_2.jpg,Red_Triangle_Dots_3.jpg,NA,NA,NA,NA,NA,NA,NA,NA,NA,NA,NA,undefined
LVgleBuc,3lvtfb9df8vfwjy33dzq8w9nvhnqgc,3gm6g9zbkrau3tkbmmwifq0zojotmd,LVgleBuc,2020-0188,2020-11-18,16:06:09,16:22:01,NA,NA,instruction example,shape,NA,NA,Red_Triangle_Chess_3.jpg,Green_Star_Chess_2.jpg,Purple_Triangle_Grid_4.jpg,NA,NA,NA,NA,NA,NA,NA,NA,NA,NA,NA,undefined
LVgleBuc,3lvtfb9df8vfwjy33dzq8w9nvhnqgc,3gm6g9zbkrau3tkbmmwifq0zojotmd,LVgleBuc,2020-0188,2020-11-18,16:06:09,16:22:01,NA,NA,instruction example,shape,NA,NA,Red_Star_Dots_3.jpg,Red_Plus_Grid_4.jpg,Green_Circle_Stripes_3.jpg,NA,NA,NA,NA,NA,NA,NA,NA,NA,NA,NA,undefined
LVgleBuc,3lvtfb9df8vfwjy33dzq8w9nvhnqgc,3gm6g9zbkrau3tkbmmwifq0zojotmd,LVgleBuc,2020-0188,2020-11-18,16:06:09,16:22:01,NA,NA,instruction example,shape,NA,NA,Green_Circle_Dots_1.jpg,Blue_Plus_Grid_1.jpg,Green_Star_Stripes_4.jpg,NA,NA,NA,NA,NA,NA,NA,NA,NA,NA,NA,undefined
LVgleBuc,3lvtfb9df8vfwjy33dzq8w9nvhnqgc,3gm6g9zbkrau3tkbmmwifq0zojotmd,LVgleBuc,2020-0188,2020-11-18,16:06:09,16:22:01,891431.3999998849,952967.5650000572,NA,NA,NA,NA,NA,NA,NA,NA,NA,NA,NA,32,White/Caucasian,Male,caucasian,no,yes,yes,undefined
