workerId,hitId,assignmentId,subject,studyid,exp_date,exp_start,exp_end,time_start,time_end,trial,type,reward_validity,answer,image_top,image_left,image_right,response,response_time,response_acc,volatility,age,race,gender,ethnicity,color,vision,neuro,practice
fTAHd4pF,3dzkabx20liukfefnqxhosng7x6cv3,3hhragryxcizjhw91w6eguorrfqo9j,fTAHd4pF,2020-0188,2020-05-21,10:31:55,10:51:57,NA,incomplete,0,color,0,right,Blue_Circle_Chess_2.jpg,Green_Circle_Grid_1.jpg,Blue_Plus_Stripes_3.jpg,right,1117.8899999940768,true,NA,NA,NA,NA,NA,NA,NA,NA,true
fTAHd4pF,3dzkabx20liukfefnqxhosng7x6cv3,3hhragryxcizjhw91w6eguorrfqo9j,fTAHd4pF,2020-0188,2020-05-21,10:31:55,10:51:57,NA,incomplete,1,color,0,left,Green_Circle_Chess_1.jpg,Green_Star_Grid_3.jpg,Blue_Circle_Dots_4.jpg,left,577.1649999951478,true,NA,NA,NA,NA,NA,NA,NA,NA,true
fTAHd4pF,3dzkabx20liukfefnqxhosng7x6cv3,3hhragryxcizjhw91w6eguorrfqo9j,fTAHd4pF,2020-0188,2020-05-21,10:31:55,10:51:57,NA,incomplete,2,color,1,left,Red_Plus_Dots_3.jpg,Red_Circle_Chess_1.jpg,Purple_Plus_Grid_2.jpg,left,453.63000000361353,true,NA,NA,NA,NA,NA,NA,NA,NA,true
fTAHd4pF,3dzkabx20liukfefnqxhosng7x6cv3,3hhragryxcizjhw91w6eguorrfqo9j,fTAHd4pF,2020-0188,2020-05-21,10:31:55,10:51:57,NA,incomplete,3,color,1,right,Green_Circle_Chess_3.jpg,Red_Circle_Stripes_2.jpg,Green_Plus_Grid_1.jpg,left,522.3849999965169,false,NA,NA,NA,NA,NA,NA,NA,NA,true
fTAHd4pF,3dzkabx20liukfefnqxhosng7x6cv3,3hhragryxcizjhw91w6eguorrfqo9j,fTAHd4pF,2020-0188,2020-05-21,10:31:55,10:51:57,NA,incomplete,4,color,1,right,Purple_Circle_Chess_2.jpg,Red_Circle_Grid_4.jpg,Purple_Star_Dots_3.jpg,right,547.6949999938952,true,NA,NA,NA,NA,NA,NA,NA,NA,true
fTAHd4pF,3dzkabx20liukfefnqxhosng7x6cv3,3hhragryxcizjhw91w6eguorrfqo9j,fTAHd4pF,2020-0188,2020-05-21,10:31:55,10:51:57,NA,incomplete,5,color,1,left,Blue_Star_Dots_1.jpg,Blue_Plus_Stripes_3.jpg,Purple_Star_Chess_4.jpg,left,712.8650000013877,true,NA,NA,NA,NA,NA,NA,NA,NA,true
fTAHd4pF,3dzkabx20liukfefnqxhosng7x6cv3,3hhragryxcizjhw91w6eguorrfqo9j,fTAHd4pF,2020-0188,2020-05-21,10:31:55,10:51:57,NA,incomplete,6,color,1,right,Purple_Circle_Chess_3.jpg,Green_Circle_Grid_2.jpg,Purple_Plus_Stripes_4.jpg,right,494.62999999371823,true,NA,NA,NA,NA,NA,NA,NA,NA,true
fTAHd4pF,3dzkabx20liukfefnqxhosng7x6cv3,3hhragryxcizjhw91w6eguorrfqo9j,fTAHd4pF,2020-0188,2020-05-21,10:31:55,10:51:57,NA,incomplete,7,color,1,right,Red_Triangle_Chess_3.jpg,Blue_Triangle_Dots_4.jpg,Red_Circle_Grid_1.jpg,right,534.2250000031199,true,NA,NA,NA,NA,NA,NA,NA,NA,true
fTAHd4pF,3dzkabx20liukfefnqxhosng7x6cv3,3hhragryxcizjhw91w6eguorrfqo9j,fTAHd4pF,2020-0188,2020-05-21,10:31:55,10:51:57,NA,incomplete,8,color,1,right,Blue_Plus_Grid_2.jpg,Red_Plus_Stripes_4.jpg,Blue_Triangle_Chess_3.jpg,right,575.4499999965774,true,NA,NA,NA,NA,NA,NA,NA,NA,true
fTAHd4pF,3dzkabx20liukfefnqxhosng7x6cv3,3hhragryxcizjhw91w6eguorrfqo9j,fTAHd4pF,2020-0188,2020-05-21,10:31:55,10:51:57,NA,incomplete,9,color,0,left,Green_Plus_Chess_2.jpg,Green_Star_Dots_4.jpg,Blue_Plus_Stripes_3.jpg,left,544.1050000007963,true,NA,NA,NA,NA,NA,NA,NA,NA,true
fTAHd4pF,3dzkabx20liukfefnqxhosng7x6cv3,3hhragryxcizjhw91w6eguorrfqo9j,fTAHd4pF,2020-0188,2020-05-21,10:31:55,10:51:57,NA,incomplete,10,color,0,right,Red_Plus_Stripes_1.jpg,Purple_Plus_Grid_4.jpg,Red_Star_Dots_3.jpg,right,428.2400000010384,true,NA,NA,NA,NA,NA,NA,NA,NA,true
fTAHd4pF,3dzkabx20liukfefnqxhosng7x6cv3,3hhragryxcizjhw91w6eguorrfqo9j,fTAHd4pF,2020-0188,2020-05-21,10:31:55,10:51:57,NA,incomplete,11,color,0,right,Green_Circle_Chess_3.jpg,Red_Circle_Grid_4.jpg,Green_Plus_Dots_1.jpg,right,421.7900000002701,true,NA,NA,NA,NA,NA,NA,NA,NA,true
fTAHd4pF,3dzkabx20liukfefnqxhosng7x6cv3,3hhragryxcizjhw91w6eguorrfqo9j,fTAHd4pF,2020-0188,2020-05-21,10:31:55,10:51:57,NA,incomplete,12,color,0,left,Green_Circle_Stripes_1.jpg,Green_Star_Dots_2.jpg,Blue_Circle_Chess_3.jpg,left,500.5250000031665,true,NA,NA,NA,NA,NA,NA,NA,NA,true
fTAHd4pF,3dzkabx20liukfefnqxhosng7x6cv3,3hhragryxcizjhw91w6eguorrfqo9j,fTAHd4pF,2020-0188,2020-05-21,10:31:55,10:51:57,NA,incomplete,13,color,1,left,Green_Star_Dots_2.jpg,Green_Triangle_Grid_1.jpg,Red_Star_Stripes_4.jpg,left,451.3599999991711,true,NA,NA,NA,NA,NA,NA,NA,NA,true
fTAHd4pF,3dzkabx20liukfefnqxhosng7x6cv3,3hhragryxcizjhw91w6eguorrfqo9j,fTAHd4pF,2020-0188,2020-05-21,10:31:55,10:51:57,NA,incomplete,14,color,1,left,Red_Plus_Grid_1.jpg,Red_Star_Stripes_2.jpg,Blue_Plus_Dots_4.jpg,left,383.0450000022538,true,NA,NA,NA,NA,NA,NA,NA,NA,true
fTAHd4pF,3dzkabx20liukfefnqxhosng7x6cv3,3hhragryxcizjhw91w6eguorrfqo9j,fTAHd4pF,2020-0188,2020-05-21,10:31:55,10:51:57,NA,incomplete,15,color,1,right,Blue_Star_Stripes_2.jpg,Green_Star_Chess_1.jpg,Blue_Plus_Grid_3.jpg,right,383.9799999987008,true,NA,NA,NA,NA,NA,NA,NA,NA,true
fTAHd4pF,3dzkabx20liukfefnqxhosng7x6cv3,3hhragryxcizjhw91w6eguorrfqo9j,fTAHd4pF,2020-0188,2020-05-21,10:31:55,10:51:57,NA,incomplete,16,color,1,right,Red_Plus_Grid_4.jpg,Blue_Plus_Stripes_1.jpg,Red_Circle_Chess_3.jpg,right,444.3050000045914,true,NA,NA,NA,NA,NA,NA,NA,NA,true
fTAHd4pF,3dzkabx20liukfefnqxhosng7x6cv3,3hhragryxcizjhw91w6eguorrfqo9j,fTAHd4pF,2020-0188,2020-05-21,10:31:55,10:51:57,NA,incomplete,17,color,1,right,Red_Triangle_Chess_1.jpg,Blue_Triangle_Dots_3.jpg,Red_Circle_Grid_2.jpg,right,393.36999999789987,true,NA,NA,NA,NA,NA,NA,NA,NA,true
fTAHd4pF,3dzkabx20liukfefnqxhosng7x6cv3,3hhragryxcizjhw91w6eguorrfqo9j,fTAHd4pF,2020-0188,2020-05-21,10:31:55,10:51:57,NA,incomplete,18,color,1,left,Green_Star_Grid_1.jpg,Green_Plus_Chess_2.jpg,Red_Star_Stripes_4.jpg,left,434.52000000257976,true,NA,NA,NA,NA,NA,NA,NA,NA,true
fTAHd4pF,3dzkabx20liukfefnqxhosng7x6cv3,3hhragryxcizjhw91w6eguorrfqo9j,fTAHd4pF,2020-0188,2020-05-21,10:31:55,10:51:57,NA,incomplete,19,color,1,right,Green_Star_Chess_4.jpg,Red_Star_Stripes_1.jpg,Green_Plus_Dots_3.jpg,right,361.1250000030268,true,NA,NA,NA,NA,NA,NA,NA,NA,true
fTAHd4pF,3dzkabx20liukfefnqxhosng7x6cv3,3hhragryxcizjhw91w6eguorrfqo9j,fTAHd4pF,2020-0188,2020-05-21,10:31:55,10:51:57,NA,incomplete,20,shape,1,left,Red_Circle_Dots_1.jpg,Green_Circle_Chess_4.jpg,Red_Plus_Grid_2.jpg,left,363.2750000033993,true,NA,NA,NA,NA,NA,NA,NA,NA,true
fTAHd4pF,3dzkabx20liukfefnqxhosng7x6cv3,3hhragryxcizjhw91w6eguorrfqo9j,fTAHd4pF,2020-0188,2020-05-21,10:31:55,10:51:57,NA,incomplete,21,shape,1,right,Green_Star_Stripes_4.jpg,Green_Circle_Dots_1.jpg,Blue_Star_Chess_3.jpg,right,582.5799999947194,true,NA,NA,NA,NA,NA,NA,NA,NA,true
fTAHd4pF,3dzkabx20liukfefnqxhosng7x6cv3,3hhragryxcizjhw91w6eguorrfqo9j,fTAHd4pF,2020-0188,2020-05-21,10:31:55,10:51:57,NA,incomplete,22,shape,1,left,Blue_Star_Dots_3.jpg,Red_Star_Grid_4.jpg,Blue_Triangle_Stripes_2.jpg,left,542.709999994142,true,NA,NA,NA,NA,NA,NA,NA,NA,true
fTAHd4pF,3dzkabx20liukfefnqxhosng7x6cv3,3hhragryxcizjhw91w6eguorrfqo9j,fTAHd4pF,2020-0188,2020-05-21,10:31:55,10:51:57,NA,incomplete,23,shape,1,right,Green_Triangle_Chess_4.jpg,Green_Plus_Stripes_1.jpg,Red_Triangle_Grid_3.jpg,right,516.070000005071,true,NA,NA,NA,NA,NA,NA,NA,NA,true
fTAHd4pF,3dzkabx20liukfefnqxhosng7x6cv3,3hhragryxcizjhw91w6eguorrfqo9j,fTAHd4pF,2020-0188,2020-05-21,10:31:55,10:51:57,NA,incomplete,24,shape,1,left,Blue_Triangle_Dots_3.jpg,Red_Triangle_Chess_1.jpg,Blue_Plus_Grid_2.jpg,left,472.2699999983888,true,NA,NA,NA,NA,NA,NA,NA,NA,true
fTAHd4pF,3dzkabx20liukfefnqxhosng7x6cv3,3hhragryxcizjhw91w6eguorrfqo9j,fTAHd4pF,2020-0188,2020-05-21,10:31:55,10:51:57,NA,incomplete,25,shape,1,left,Purple_Plus_Chess_1.jpg,Blue_Plus_Stripes_4.jpg,Purple_Star_Dots_3.jpg,right,373.2099999979837,false,NA,NA,NA,NA,NA,NA,NA,NA,true
fTAHd4pF,3dzkabx20liukfefnqxhosng7x6cv3,3hhragryxcizjhw91w6eguorrfqo9j,fTAHd4pF,2020-0188,2020-05-21,10:31:55,10:51:57,NA,incomplete,26,shape,1,left,Red_Circle_Stripes_3.jpg,Blue_Circle_Dots_1.jpg,Red_Star_Grid_4.jpg,right,491.53500000108033,false,NA,NA,NA,NA,NA,NA,NA,NA,true
fTAHd4pF,3dzkabx20liukfefnqxhosng7x6cv3,3hhragryxcizjhw91w6eguorrfqo9j,fTAHd4pF,2020-0188,2020-05-21,10:31:55,10:51:57,NA,incomplete,27,shape,1,left,Red_Triangle_Dots_2.jpg,Blue_Triangle_Chess_3.jpg,Red_Circle_Grid_4.jpg,left,509.8050000014482,true,NA,NA,NA,NA,NA,NA,NA,NA,true
fTAHd4pF,3dzkabx20liukfefnqxhosng7x6cv3,3hhragryxcizjhw91w6eguorrfqo9j,fTAHd4pF,2020-0188,2020-05-21,10:31:55,10:51:57,NA,incomplete,28,shape,1,left,Blue_Plus_Chess_2.jpg,Purple_Plus_Dots_1.jpg,Blue_Circle_Grid_4.jpg,left,517.1399999962887,true,NA,NA,NA,NA,NA,NA,NA,NA,true
fTAHd4pF,3dzkabx20liukfefnqxhosng7x6cv3,3hhragryxcizjhw91w6eguorrfqo9j,fTAHd4pF,2020-0188,2020-05-21,10:31:55,10:51:57,NA,incomplete,29,shape,1,left,Purple_Star_Chess_1.jpg,Red_Star_Grid_3.jpg,Purple_Plus_Dots_2.jpg,left,582.284999996773,true,NA,NA,NA,NA,NA,NA,NA,NA,true
fTAHd4pF,3dzkabx20liukfefnqxhosng7x6cv3,3hhragryxcizjhw91w6eguorrfqo9j,fTAHd4pF,2020-0188,2020-05-21,10:31:55,10:51:57,NA,incomplete,30,shape,1,right,Blue_Star_Stripes_3.jpg,Blue_Circle_Dots_4.jpg,Green_Star_Grid_1.jpg,right,663.6849999994738,true,NA,NA,NA,NA,NA,NA,NA,NA,true
fTAHd4pF,3dzkabx20liukfefnqxhosng7x6cv3,3hhragryxcizjhw91w6eguorrfqo9j,fTAHd4pF,2020-0188,2020-05-21,10:31:55,10:51:57,NA,incomplete,31,shape,1,right,Green_Plus_Grid_3.jpg,Green_Circle_Dots_1.jpg,Purple_Plus_Stripes_4.jpg,right,567.9200000013225,true,NA,NA,NA,NA,NA,NA,NA,NA,true
fTAHd4pF,3dzkabx20liukfefnqxhosng7x6cv3,3hhragryxcizjhw91w6eguorrfqo9j,fTAHd4pF,2020-0188,2020-05-21,10:31:55,10:51:57,NA,incomplete,32,shape,1,left,Blue_Circle_Chess_1.jpg,Green_Circle_Grid_2.jpg,Blue_Star_Stripes_3.jpg,left,526.9449999977369,true,NA,NA,NA,NA,NA,NA,NA,NA,true
fTAHd4pF,3dzkabx20liukfefnqxhosng7x6cv3,3hhragryxcizjhw91w6eguorrfqo9j,fTAHd4pF,2020-0188,2020-05-21,10:31:55,10:51:57,NA,incomplete,33,shape,1,right,Green_Plus_Chess_3.jpg,Green_Circle_Dots_4.jpg,Red_Plus_Stripes_1.jpg,right,572.9300000021467,true,NA,NA,NA,NA,NA,NA,NA,NA,true
fTAHd4pF,3dzkabx20liukfefnqxhosng7x6cv3,3hhragryxcizjhw91w6eguorrfqo9j,fTAHd4pF,2020-0188,2020-05-21,10:31:55,10:51:57,NA,incomplete,34,shape,1,left,Green_Circle_Chess_2.jpg,Blue_Circle_Grid_4.jpg,Green_Triangle_Stripes_3.jpg,left,559.195000001695,true,NA,NA,NA,NA,NA,NA,NA,NA,true
fTAHd4pF,3dzkabx20liukfefnqxhosng7x6cv3,3hhragryxcizjhw91w6eguorrfqo9j,fTAHd4pF,2020-0188,2020-05-21,10:31:55,10:51:57,NA,incomplete,35,shape,0,right,Red_Circle_Stripes_3.jpg,Red_Plus_Grid_2.jpg,Purple_Circle_Dots_1.jpg,right,569.8049999991199,true,NA,NA,NA,NA,NA,NA,NA,NA,true
fTAHd4pF,3dzkabx20liukfefnqxhosng7x6cv3,3hhragryxcizjhw91w6eguorrfqo9j,fTAHd4pF,2020-0188,2020-05-21,10:31:55,10:51:57,NA,incomplete,36,shape,1,right,Blue_Triangle_Chess_1.jpg,Blue_Circle_Dots_4.jpg,Purple_Triangle_Stripes_2.jpg,right,528.149999998277,true,NA,NA,NA,NA,NA,NA,NA,NA,true
fTAHd4pF,3dzkabx20liukfefnqxhosng7x6cv3,3hhragryxcizjhw91w6eguorrfqo9j,fTAHd4pF,2020-0188,2020-05-21,10:31:55,10:51:57,NA,incomplete,37,shape,1,left,Blue_Plus_Stripes_2.jpg,Purple_Plus_Dots_3.jpg,Blue_Star_Grid_4.jpg,left,464.05999999842606,true,NA,NA,NA,NA,NA,NA,NA,NA,true
fTAHd4pF,3dzkabx20liukfefnqxhosng7x6cv3,3hhragryxcizjhw91w6eguorrfqo9j,fTAHd4pF,2020-0188,2020-05-21,10:31:55,10:51:57,NA,incomplete,38,shape,0,right,Purple_Circle_Stripes_4.jpg,Purple_Triangle_Grid_2.jpg,Red_Circle_Chess_3.jpg,right,494.9350000023842,true,NA,NA,NA,NA,NA,NA,NA,NA,true
fTAHd4pF,3dzkabx20liukfefnqxhosng7x6cv3,3hhragryxcizjhw91w6eguorrfqo9j,fTAHd4pF,2020-0188,2020-05-21,10:31:55,10:51:57,NA,incomplete,39,shape,1,right,Red_Circle_Dots_1.jpg,Red_Triangle_Chess_2.jpg,Green_Circle_Grid_3.jpg,right,578.1550000028219,true,NA,NA,NA,NA,NA,NA,NA,NA,true
fTAHd4pF,3dzkabx20liukfefnqxhosng7x6cv3,3hhragryxcizjhw91w6eguorrfqo9j,fTAHd4pF,2020-0188,2020-05-21,10:31:55,10:51:57,NA,incomplete,0,color,1,left,Green_Circle_Chess_1.jpg,Green_Star_Dots_3.jpg,Red_Circle_Stripes_4.jpg,left,521.4699999996228,true,high,NA,NA,NA,NA,NA,NA,NA,false
fTAHd4pF,3dzkabx20liukfefnqxhosng7x6cv3,3hhragryxcizjhw91w6eguorrfqo9j,fTAHd4pF,2020-0188,2020-05-21,10:31:55,10:51:57,NA,incomplete,1,color,1,right,Purple_Star_Stripes_4.jpg,Red_Star_Dots_1.jpg,Purple_Circle_Chess_3.jpg,right,405.82500000158325,true,high,NA,NA,NA,NA,NA,NA,NA,false
fTAHd4pF,3dzkabx20liukfefnqxhosng7x6cv3,3hhragryxcizjhw91w6eguorrfqo9j,fTAHd4pF,2020-0188,2020-05-21,10:31:55,10:51:57,NA,incomplete,2,color,1,right,Blue_Star_Stripes_2.jpg,Green_Star_Chess_1.jpg,Blue_Plus_Dots_4.jpg,right,465.1850000008708,true,high,NA,NA,NA,NA,NA,NA,NA,false
fTAHd4pF,3dzkabx20liukfefnqxhosng7x6cv3,3hhragryxcizjhw91w6eguorrfqo9j,fTAHd4pF,2020-0188,2020-05-21,10:31:55,10:51:57,NA,incomplete,3,color,1,left,Purple_Star_Stripes_1.jpg,Purple_Circle_Dots_3.jpg,Green_Star_Grid_2.jpg,right,597.0649999944726,false,high,NA,NA,NA,NA,NA,NA,NA,false
fTAHd4pF,3dzkabx20liukfefnqxhosng7x6cv3,3hhragryxcizjhw91w6eguorrfqo9j,fTAHd4pF,2020-0188,2020-05-21,10:31:55,10:51:57,NA,incomplete,4,color,1,right,Red_Plus_Stripes_3.jpg,Blue_Plus_Chess_2.jpg,Red_Star_Dots_4.jpg,right,497.16499999328516,true,high,NA,NA,NA,NA,NA,NA,NA,false
fTAHd4pF,3dzkabx20liukfefnqxhosng7x6cv3,3hhragryxcizjhw91w6eguorrfqo9j,fTAHd4pF,2020-0188,2020-05-21,10:31:55,10:51:57,NA,incomplete,5,color,1,right,Blue_Plus_Stripes_4.jpg,Red_Plus_Dots_1.jpg,Blue_Star_Chess_2.jpg,right,420.995000000461,true,high,NA,NA,NA,NA,NA,NA,NA,false
fTAHd4pF,3dzkabx20liukfefnqxhosng7x6cv3,3hhragryxcizjhw91w6eguorrfqo9j,fTAHd4pF,2020-0188,2020-05-21,10:31:55,10:51:57,NA,incomplete,6,color,1,left,Purple_Plus_Grid_3.jpg,Purple_Triangle_Stripes_1.jpg,Blue_Plus_Dots_2.jpg,left,627.8299999976298,true,high,NA,NA,NA,NA,NA,NA,NA,false
fTAHd4pF,3dzkabx20liukfefnqxhosng7x6cv3,3hhragryxcizjhw91w6eguorrfqo9j,fTAHd4pF,2020-0188,2020-05-21,10:31:55,10:51:57,NA,incomplete,7,color,0,left,Red_Plus_Stripes_2.jpg,Red_Star_Grid_4.jpg,Blue_Plus_Dots_1.jpg,left,470.39000000222586,true,high,NA,NA,NA,NA,NA,NA,NA,false
fTAHd4pF,3dzkabx20liukfefnqxhosng7x6cv3,3hhragryxcizjhw91w6eguorrfqo9j,fTAHd4pF,2020-0188,2020-05-21,10:31:55,10:51:57,NA,incomplete,8,color,1,left,Blue_Plus_Grid_3.jpg,Blue_Star_Stripes_1.jpg,Green_Plus_Dots_4.jpg,left,649.7499999968568,true,high,NA,NA,NA,NA,NA,NA,NA,false
fTAHd4pF,3dzkabx20liukfefnqxhosng7x6cv3,3hhragryxcizjhw91w6eguorrfqo9j,fTAHd4pF,2020-0188,2020-05-21,10:31:55,10:51:57,NA,incomplete,9,color,1,right,Blue_Plus_Chess_1.jpg,Green_Plus_Dots_4.jpg,Blue_Triangle_Stripes_2.jpg,right,383.82999999879394,true,high,NA,NA,NA,NA,NA,NA,NA,false
fTAHd4pF,3dzkabx20liukfefnqxhosng7x6cv3,3hhragryxcizjhw91w6eguorrfqo9j,fTAHd4pF,2020-0188,2020-05-21,10:31:55,10:51:57,NA,incomplete,10,shape,1,left,Blue_Circle_Chess_2.jpg,Red_Circle_Dots_3.jpg,Blue_Triangle_Grid_4.jpg,right,412.5050000001211,false,high,NA,NA,NA,NA,NA,NA,NA,false
fTAHd4pF,3dzkabx20liukfefnqxhosng7x6cv3,3hhragryxcizjhw91w6eguorrfqo9j,fTAHd4pF,2020-0188,2020-05-21,10:31:55,10:51:57,NA,incomplete,11,shape,1,right,Blue_Plus_Chess_3.jpg,Blue_Circle_Dots_2.jpg,Green_Plus_Grid_4.jpg,left,442.3700000043027,false,high,NA,NA,NA,NA,NA,NA,NA,false
fTAHd4pF,3dzkabx20liukfefnqxhosng7x6cv3,3hhragryxcizjhw91w6eguorrfqo9j,fTAHd4pF,2020-0188,2020-05-21,10:31:55,10:51:57,NA,incomplete,12,shape,1,right,Purple_Plus_Grid_3.jpg,Purple_Circle_Stripes_2.jpg,Green_Plus_Chess_1.jpg,left,505.2800000049174,false,high,NA,NA,NA,NA,NA,NA,NA,false
fTAHd4pF,3dzkabx20liukfefnqxhosng7x6cv3,3hhragryxcizjhw91w6eguorrfqo9j,fTAHd4pF,2020-0188,2020-05-21,10:31:55,10:51:57,NA,incomplete,13,shape,1,left,Red_Triangle_Dots_2.jpg,Blue_Triangle_Chess_3.jpg,Red_Plus_Grid_1.jpg,left,729.4499999990221,true,high,NA,NA,NA,NA,NA,NA,NA,false
fTAHd4pF,3dzkabx20liukfefnqxhosng7x6cv3,3hhragryxcizjhw91w6eguorrfqo9j,fTAHd4pF,2020-0188,2020-05-21,10:31:55,10:51:57,NA,incomplete,14,shape,0,left,Red_Star_Chess_4.jpg,Blue_Star_Dots_2.jpg,Red_Circle_Grid_3.jpg,left,651.3950000007171,true,high,NA,NA,NA,NA,NA,NA,NA,false
fTAHd4pF,3dzkabx20liukfefnqxhosng7x6cv3,3hhragryxcizjhw91w6eguorrfqo9j,fTAHd4pF,2020-0188,2020-05-21,10:31:55,10:51:57,NA,incomplete,15,shape,0,left,Red_Triangle_Stripes_2.jpg,Blue_Triangle_Grid_3.jpg,Red_Plus_Chess_4.jpg,left,758.7600000043167,true,high,NA,NA,NA,NA,NA,NA,NA,false
fTAHd4pF,3dzkabx20liukfefnqxhosng7x6cv3,3hhragryxcizjhw91w6eguorrfqo9j,fTAHd4pF,2020-0188,2020-05-21,10:31:55,10:51:57,NA,incomplete,16,shape,1,right,Green_Plus_Chess_4.jpg,Green_Triangle_Stripes_2.jpg,Purple_Plus_Dots_3.jpg,right,564.8199999995995,true,high,NA,NA,NA,NA,NA,NA,NA,false
fTAHd4pF,3dzkabx20liukfefnqxhosng7x6cv3,3hhragryxcizjhw91w6eguorrfqo9j,fTAHd4pF,2020-0188,2020-05-21,10:31:55,10:51:57,NA,incomplete,17,shape,1,right,Blue_Star_Grid_4.jpg,Blue_Plus_Dots_3.jpg,Red_Star_Stripes_2.jpg,left,431.83500000310596,false,high,NA,NA,NA,NA,NA,NA,NA,false
fTAHd4pF,3dzkabx20liukfefnqxhosng7x6cv3,3hhragryxcizjhw91w6eguorrfqo9j,fTAHd4pF,2020-0188,2020-05-21,10:31:55,10:51:57,NA,incomplete,18,shape,1,left,Blue_Circle_Grid_2.jpg,Green_Circle_Dots_4.jpg,Blue_Triangle_Chess_3.jpg,left,649.3049999990035,true,high,NA,NA,NA,NA,NA,NA,NA,false
fTAHd4pF,3dzkabx20liukfefnqxhosng7x6cv3,3hhragryxcizjhw91w6eguorrfqo9j,fTAHd4pF,2020-0188,2020-05-21,10:31:55,10:51:57,NA,incomplete,19,shape,1,left,Green_Triangle_Dots_4.jpg,Red_Triangle_Grid_1.jpg,Green_Star_Stripes_2.jpg,right,645.7000000010012,false,high,NA,NA,NA,NA,NA,NA,NA,false
fTAHd4pF,3dzkabx20liukfefnqxhosng7x6cv3,3hhragryxcizjhw91w6eguorrfqo9j,fTAHd4pF,2020-0188,2020-05-21,10:31:55,10:51:57,NA,incomplete,20,color,0,left,Green_Triangle_Grid_1.jpg,Green_Plus_Dots_2.jpg,Purple_Triangle_Stripes_3.jpg,right,592.9099999993341,false,high,NA,NA,NA,NA,NA,NA,NA,false
fTAHd4pF,3dzkabx20liukfefnqxhosng7x6cv3,3hhragryxcizjhw91w6eguorrfqo9j,fTAHd4pF,2020-0188,2020-05-21,10:31:55,10:51:57,NA,incomplete,21,color,1,left,Red_Plus_Stripes_3.jpg,Red_Circle_Grid_1.jpg,Purple_Plus_Chess_4.jpg,right,663.8149999999441,false,high,NA,NA,NA,NA,NA,NA,NA,false
fTAHd4pF,3dzkabx20liukfefnqxhosng7x6cv3,3hhragryxcizjhw91w6eguorrfqo9j,fTAHd4pF,2020-0188,2020-05-21,10:31:55,10:51:57,NA,incomplete,22,color,0,right,Green_Star_Chess_2.jpg,Blue_Star_Grid_3.jpg,Green_Triangle_Dots_1.jpg,right,665.134999995702,true,high,NA,NA,NA,NA,NA,NA,NA,false
fTAHd4pF,3dzkabx20liukfefnqxhosng7x6cv3,3hhragryxcizjhw91w6eguorrfqo9j,fTAHd4pF,2020-0188,2020-05-21,10:31:55,10:51:57,NA,incomplete,23,color,1,right,Purple_Plus_Stripes_3.jpg,Red_Plus_Chess_2.jpg,Purple_Triangle_Dots_1.jpg,left,596.7400000008056,false,high,NA,NA,NA,NA,NA,NA,NA,false
fTAHd4pF,3dzkabx20liukfefnqxhosng7x6cv3,3hhragryxcizjhw91w6eguorrfqo9j,fTAHd4pF,2020-0188,2020-05-21,10:31:55,10:51:57,NA,incomplete,24,color,0,right,Red_Plus_Stripes_2.jpg,Green_Plus_Dots_1.jpg,Red_Circle_Chess_3.jpg,right,614.5600000019185,true,high,NA,NA,NA,NA,NA,NA,NA,false
fTAHd4pF,3dzkabx20liukfefnqxhosng7x6cv3,3hhragryxcizjhw91w6eguorrfqo9j,fTAHd4pF,2020-0188,2020-05-21,10:31:55,10:51:57,NA,incomplete,25,color,1,right,Purple_Star_Stripes_3.jpg,Blue_Star_Grid_4.jpg,Purple_Triangle_Dots_2.jpg,right,674.4749999997439,true,high,NA,NA,NA,NA,NA,NA,NA,false
fTAHd4pF,3dzkabx20liukfefnqxhosng7x6cv3,3hhragryxcizjhw91w6eguorrfqo9j,fTAHd4pF,2020-0188,2020-05-21,10:31:55,10:51:57,NA,incomplete,26,color,0,right,Red_Triangle_Chess_2.jpg,Blue_Triangle_Dots_4.jpg,Red_Circle_Stripes_3.jpg,right,1055.84999999695,true,high,NA,NA,NA,NA,NA,NA,NA,false
fTAHd4pF,3dzkabx20liukfefnqxhosng7x6cv3,3hhragryxcizjhw91w6eguorrfqo9j,fTAHd4pF,2020-0188,2020-05-21,10:31:55,10:51:57,NA,incomplete,27,color,0,right,Red_Star_Dots_1.jpg,Green_Star_Chess_3.jpg,Red_Triangle_Grid_2.jpg,left,790.8600000010338,false,high,NA,NA,NA,NA,NA,NA,NA,false
fTAHd4pF,3dzkabx20liukfefnqxhosng7x6cv3,3hhragryxcizjhw91w6eguorrfqo9j,fTAHd4pF,2020-0188,2020-05-21,10:31:55,10:51:57,NA,incomplete,28,color,1,left,Red_Triangle_Dots_4.jpg,Red_Star_Stripes_1.jpg,Purple_Triangle_Chess_2.jpg,left,930.009999996284,true,high,NA,NA,NA,NA,NA,NA,NA,false
fTAHd4pF,3dzkabx20liukfefnqxhosng7x6cv3,3hhragryxcizjhw91w6eguorrfqo9j,fTAHd4pF,2020-0188,2020-05-21,10:31:55,10:51:57,NA,incomplete,29,color,1,right,Green_Triangle_Chess_1.jpg,Red_Triangle_Stripes_2.jpg,Green_Circle_Grid_3.jpg,right,877.5299999979325,true,high,NA,NA,NA,NA,NA,NA,NA,false
fTAHd4pF,3dzkabx20liukfefnqxhosng7x6cv3,3hhragryxcizjhw91w6eguorrfqo9j,fTAHd4pF,2020-0188,2020-05-21,10:31:55,10:51:57,NA,incomplete,30,shape,1,left,Green_Triangle_Grid_1.jpg,Red_Triangle_Chess_3.jpg,Green_Circle_Stripes_4.jpg,right,551.0599999979604,false,high,NA,NA,NA,NA,NA,NA,NA,false
fTAHd4pF,3dzkabx20liukfefnqxhosng7x6cv3,3hhragryxcizjhw91w6eguorrfqo9j,fTAHd4pF,2020-0188,2020-05-21,10:31:55,10:51:57,NA,incomplete,31,shape,1,right,Red_Star_Stripes_3.jpg,Red_Plus_Grid_1.jpg,Purple_Star_Dots_4.jpg,left,736.5349999963073,false,high,NA,NA,NA,NA,NA,NA,NA,false
fTAHd4pF,3dzkabx20liukfefnqxhosng7x6cv3,3hhragryxcizjhw91w6eguorrfqo9j,fTAHd4pF,2020-0188,2020-05-21,10:31:55,10:51:57,NA,incomplete,32,shape,1,left,Blue_Star_Dots_3.jpg,Green_Star_Stripes_1.jpg,Blue_Plus_Chess_2.jpg,right,507.80500000109896,false,high,NA,NA,NA,NA,NA,NA,NA,false
fTAHd4pF,3dzkabx20liukfefnqxhosng7x6cv3,3hhragryxcizjhw91w6eguorrfqo9j,fTAHd4pF,2020-0188,2020-05-21,10:31:55,10:51:57,NA,incomplete,33,shape,0,left,Green_Triangle_Chess_4.jpg,Blue_Triangle_Stripes_1.jpg,Green_Star_Dots_3.jpg,right,419.4199999982957,false,high,NA,NA,NA,NA,NA,NA,NA,false
fTAHd4pF,3dzkabx20liukfefnqxhosng7x6cv3,3hhragryxcizjhw91w6eguorrfqo9j,fTAHd4pF,2020-0188,2020-05-21,10:31:55,10:51:57,NA,incomplete,34,shape,1,right,Red_Circle_Stripes_1.jpg,Red_Star_Grid_2.jpg,Purple_Circle_Chess_4.jpg,left,558.1499999971129,false,high,NA,NA,NA,NA,NA,NA,NA,false
fTAHd4pF,3dzkabx20liukfefnqxhosng7x6cv3,3hhragryxcizjhw91w6eguorrfqo9j,fTAHd4pF,2020-0188,2020-05-21,10:31:55,10:51:57,NA,incomplete,35,shape,1,right,Purple_Plus_Dots_3.jpg,Purple_Triangle_Grid_4.jpg,Red_Plus_Stripes_2.jpg,left,733.7199999964796,false,high,NA,NA,NA,NA,NA,NA,NA,false
fTAHd4pF,3dzkabx20liukfefnqxhosng7x6cv3,3hhragryxcizjhw91w6eguorrfqo9j,fTAHd4pF,2020-0188,2020-05-21,10:31:55,10:51:57,NA,incomplete,36,shape,1,left,Blue_Circle_Dots_3.jpg,Purple_Circle_Stripes_1.jpg,Blue_Plus_Grid_4.jpg,right,510.6949999972712,false,high,NA,NA,NA,NA,NA,NA,NA,false
fTAHd4pF,3dzkabx20liukfefnqxhosng7x6cv3,3hhragryxcizjhw91w6eguorrfqo9j,fTAHd4pF,2020-0188,2020-05-21,10:31:55,10:51:57,NA,incomplete,37,shape,1,right,Blue_Plus_Dots_3.jpg,Blue_Triangle_Stripes_2.jpg,Green_Plus_Chess_1.jpg,left,482.9249999965541,false,high,NA,NA,NA,NA,NA,NA,NA,false
fTAHd4pF,3dzkabx20liukfefnqxhosng7x6cv3,3hhragryxcizjhw91w6eguorrfqo9j,fTAHd4pF,2020-0188,2020-05-21,10:31:55,10:51:57,NA,incomplete,38,shape,1,left,Purple_Triangle_Grid_1.jpg,Blue_Triangle_Stripes_4.jpg,Purple_Plus_Dots_2.jpg,right,391.6749999989988,false,high,NA,NA,NA,NA,NA,NA,NA,false
fTAHd4pF,3dzkabx20liukfefnqxhosng7x6cv3,3hhragryxcizjhw91w6eguorrfqo9j,fTAHd4pF,2020-0188,2020-05-21,10:31:55,10:51:57,NA,incomplete,39,shape,1,right,Purple_Circle_Dots_3.jpg,Purple_Star_Stripes_4.jpg,Red_Circle_Chess_2.jpg,right,620.4650000000838,true,high,NA,NA,NA,NA,NA,NA,NA,false
fTAHd4pF,3dzkabx20liukfefnqxhosng7x6cv3,3hhragryxcizjhw91w6eguorrfqo9j,fTAHd4pF,2020-0188,2020-05-21,10:31:55,10:51:57,NA,incomplete,40,color,1,right,Green_Triangle_Grid_2.jpg,Purple_Triangle_Chess_4.jpg,Green_Star_Stripes_1.jpg,left,561.4950000017416,false,high,NA,NA,NA,NA,NA,NA,NA,false
fTAHd4pF,3dzkabx20liukfefnqxhosng7x6cv3,3hhragryxcizjhw91w6eguorrfqo9j,fTAHd4pF,2020-0188,2020-05-21,10:31:55,10:51:57,NA,incomplete,41,color,1,left,Purple_Circle_Grid_3.jpg,Purple_Triangle_Dots_2.jpg,Blue_Circle_Chess_1.jpg,left,522.1249999959255,true,high,NA,NA,NA,NA,NA,NA,NA,false
fTAHd4pF,3dzkabx20liukfefnqxhosng7x6cv3,3hhragryxcizjhw91w6eguorrfqo9j,fTAHd4pF,2020-0188,2020-05-21,10:31:55,10:51:57,NA,incomplete,42,color,0,left,Purple_Circle_Grid_2.jpg,Purple_Star_Stripes_3.jpg,Red_Circle_Dots_4.jpg,left,488.9150000017835,true,high,NA,NA,NA,NA,NA,NA,NA,false
fTAHd4pF,3dzkabx20liukfefnqxhosng7x6cv3,3hhragryxcizjhw91w6eguorrfqo9j,fTAHd4pF,2020-0188,2020-05-21,10:31:55,10:51:57,NA,incomplete,43,color,1,right,Purple_Triangle_Chess_2.jpg,Red_Triangle_Dots_1.jpg,Purple_Plus_Grid_3.jpg,left,289.9699999981094,false,high,NA,NA,NA,NA,NA,NA,NA,false
fTAHd4pF,3dzkabx20liukfefnqxhosng7x6cv3,3hhragryxcizjhw91w6eguorrfqo9j,fTAHd4pF,2020-0188,2020-05-21,10:31:55,10:51:57,NA,incomplete,44,color,0,right,Red_Triangle_Grid_4.jpg,Blue_Triangle_Stripes_3.jpg,Red_Star_Dots_1.jpg,left,481.3999999969965,false,high,NA,NA,NA,NA,NA,NA,NA,false
fTAHd4pF,3dzkabx20liukfefnqxhosng7x6cv3,3hhragryxcizjhw91w6eguorrfqo9j,fTAHd4pF,2020-0188,2020-05-21,10:31:55,10:51:57,NA,incomplete,45,color,1,right,Purple_Plus_Dots_2.jpg,Red_Plus_Grid_3.jpg,Purple_Triangle_Chess_1.jpg,left,787.420000000624,false,high,NA,NA,NA,NA,NA,NA,NA,false
fTAHd4pF,3dzkabx20liukfefnqxhosng7x6cv3,3hhragryxcizjhw91w6eguorrfqo9j,fTAHd4pF,2020-0188,2020-05-21,10:31:55,10:51:57,NA,incomplete,46,color,1,right,Red_Star_Stripes_4.jpg,Purple_Star_Dots_3.jpg,Red_Triangle_Grid_2.jpg,left,587.0250000007218,false,high,NA,NA,NA,NA,NA,NA,NA,false
fTAHd4pF,3dzkabx20liukfefnqxhosng7x6cv3,3hhragryxcizjhw91w6eguorrfqo9j,fTAHd4pF,2020-0188,2020-05-21,10:31:55,10:51:57,NA,incomplete,47,color,1,right,Red_Plus_Chess_4.jpg,Blue_Plus_Dots_3.jpg,Red_Triangle_Grid_2.jpg,left,704.859999998007,false,high,NA,NA,NA,NA,NA,NA,NA,false
fTAHd4pF,3dzkabx20liukfefnqxhosng7x6cv3,3hhragryxcizjhw91w6eguorrfqo9j,fTAHd4pF,2020-0188,2020-05-21,10:31:55,10:51:57,NA,incomplete,48,color,1,right,Purple_Circle_Grid_3.jpg,Red_Circle_Dots_1.jpg,Purple_Triangle_Stripes_4.jpg,right,745.4900000011548,true,high,NA,NA,NA,NA,NA,NA,NA,false
fTAHd4pF,3dzkabx20liukfefnqxhosng7x6cv3,3hhragryxcizjhw91w6eguorrfqo9j,fTAHd4pF,2020-0188,2020-05-21,10:31:55,10:51:57,NA,incomplete,49,color,0,left,Green_Star_Grid_1.jpg,Green_Plus_Chess_4.jpg,Red_Star_Stripes_2.jpg,left,621.2799999993294,true,high,NA,NA,NA,NA,NA,NA,NA,false
fTAHd4pF,3dzkabx20liukfefnqxhosng7x6cv3,3hhragryxcizjhw91w6eguorrfqo9j,fTAHd4pF,2020-0188,2020-05-21,10:31:55,10:51:57,NA,incomplete,50,shape,1,left,Red_Circle_Grid_3.jpg,Purple_Circle_Dots_4.jpg,Red_Triangle_Stripes_1.jpg,right,693.5999999986961,false,high,NA,NA,NA,NA,NA,NA,NA,false
fTAHd4pF,3dzkabx20liukfefnqxhosng7x6cv3,3hhragryxcizjhw91w6eguorrfqo9j,fTAHd4pF,2020-0188,2020-05-21,10:31:55,10:51:57,NA,incomplete,51,shape,1,right,Red_Plus_Stripes_1.jpg,Red_Star_Chess_3.jpg,Purple_Plus_Grid_4.jpg,right,783.2449999987148,true,high,NA,NA,NA,NA,NA,NA,NA,false
fTAHd4pF,3dzkabx20liukfefnqxhosng7x6cv3,3hhragryxcizjhw91w6eguorrfqo9j,fTAHd4pF,2020-0188,2020-05-21,10:31:55,10:51:57,NA,incomplete,52,shape,1,right,Red_Triangle_Dots_3.jpg,Red_Star_Stripes_4.jpg,Blue_Triangle_Grid_2.jpg,right,1012.7900000006193,true,high,NA,NA,NA,NA,NA,NA,NA,false
fTAHd4pF,3dzkabx20liukfefnqxhosng7x6cv3,3hhragryxcizjhw91w6eguorrfqo9j,fTAHd4pF,2020-0188,2020-05-21,10:31:55,10:51:57,NA,incomplete,53,shape,1,right,Blue_Circle_Stripes_1.jpg,Blue_Star_Grid_3.jpg,Red_Circle_Dots_4.jpg,left,1095.2149999939138,false,high,NA,NA,NA,NA,NA,NA,NA,false
fTAHd4pF,3dzkabx20liukfefnqxhosng7x6cv3,3hhragryxcizjhw91w6eguorrfqo9j,fTAHd4pF,2020-0188,2020-05-21,10:31:55,10:51:57,NA,incomplete,54,shape,1,right,Purple_Star_Stripes_1.jpg,Purple_Triangle_Dots_2.jpg,Red_Star_Chess_3.jpg,right,742.7699999971082,true,high,NA,NA,NA,NA,NA,NA,NA,false
fTAHd4pF,3dzkabx20liukfefnqxhosng7x6cv3,3hhragryxcizjhw91w6eguorrfqo9j,fTAHd4pF,2020-0188,2020-05-21,10:31:55,10:51:57,NA,incomplete,55,shape,1,right,Purple_Circle_Stripes_2.jpg,Purple_Star_Chess_4.jpg,Red_Circle_Grid_3.jpg,right,708.8300000032177,true,high,NA,NA,NA,NA,NA,NA,NA,false
fTAHd4pF,3dzkabx20liukfefnqxhosng7x6cv3,3hhragryxcizjhw91w6eguorrfqo9j,fTAHd4pF,2020-0188,2020-05-21,10:31:55,10:51:57,NA,incomplete,56,shape,1,left,Green_Plus_Dots_4.jpg,Blue_Plus_Grid_1.jpg,Green_Circle_Stripes_3.jpg,right,785.7999999977183,false,high,NA,NA,NA,NA,NA,NA,NA,false
fTAHd4pF,3dzkabx20liukfefnqxhosng7x6cv3,3hhragryxcizjhw91w6eguorrfqo9j,fTAHd4pF,2020-0188,2020-05-21,10:31:55,10:51:57,NA,incomplete,57,shape,0,right,Green_Circle_Stripes_4.jpg,Green_Triangle_Chess_3.jpg,Red_Circle_Grid_1.jpg,left,858.0599999986589,false,high,NA,NA,NA,NA,NA,NA,NA,false
fTAHd4pF,3dzkabx20liukfefnqxhosng7x6cv3,3hhragryxcizjhw91w6eguorrfqo9j,fTAHd4pF,2020-0188,2020-05-21,10:31:55,10:51:57,NA,incomplete,58,shape,1,right,Green_Triangle_Grid_1.jpg,Green_Star_Stripes_3.jpg,Blue_Triangle_Dots_2.jpg,right,1024.2950000029523,true,high,NA,NA,NA,NA,NA,NA,NA,false
fTAHd4pF,3dzkabx20liukfefnqxhosng7x6cv3,3hhragryxcizjhw91w6eguorrfqo9j,fTAHd4pF,2020-0188,2020-05-21,10:31:55,10:51:57,NA,incomplete,59,shape,1,left,Blue_Triangle_Chess_1.jpg,Purple_Triangle_Dots_2.jpg,Blue_Star_Stripes_4.jpg,right,908.4299999958603,false,high,NA,NA,NA,NA,NA,NA,NA,false
fTAHd4pF,3dzkabx20liukfefnqxhosng7x6cv3,3hhragryxcizjhw91w6eguorrfqo9j,fTAHd4pF,2020-0188,2020-05-21,10:31:55,10:51:57,NA,incomplete,60,color,1,right,Green_Star_Chess_4.jpg,Red_Star_Grid_2.jpg,Green_Triangle_Stripes_3.jpg,right,864.414999996312,true,high,NA,NA,NA,NA,NA,NA,NA,false
fTAHd4pF,3dzkabx20liukfefnqxhosng7x6cv3,3hhragryxcizjhw91w6eguorrfqo9j,fTAHd4pF,2020-0188,2020-05-21,10:31:55,10:51:57,NA,incomplete,61,color,1,right,Blue_Circle_Dots_1.jpg,Green_Circle_Chess_4.jpg,Blue_Plus_Grid_2.jpg,right,730.2799999961862,true,high,NA,NA,NA,NA,NA,NA,NA,false
fTAHd4pF,3dzkabx20liukfefnqxhosng7x6cv3,3hhragryxcizjhw91w6eguorrfqo9j,fTAHd4pF,2020-0188,2020-05-21,10:31:55,10:51:57,NA,incomplete,62,color,0,left,Red_Triangle_Chess_4.jpg,Red_Star_Dots_2.jpg,Purple_Triangle_Grid_1.jpg,right,1027.9200000005076,false,high,NA,NA,NA,NA,NA,NA,NA,false
fTAHd4pF,3dzkabx20liukfefnqxhosng7x6cv3,3hhragryxcizjhw91w6eguorrfqo9j,fTAHd4pF,2020-0188,2020-05-21,10:31:55,10:51:57,NA,incomplete,63,color,1,right,Red_Triangle_Grid_2.jpg,Purple_Triangle_Stripes_4.jpg,Red_Plus_Chess_3.jpg,right,1087.7150000014808,true,high,NA,NA,NA,NA,NA,NA,NA,false
fTAHd4pF,3dzkabx20liukfefnqxhosng7x6cv3,3hhragryxcizjhw91w6eguorrfqo9j,fTAHd4pF,2020-0188,2020-05-21,10:31:55,10:51:57,NA,incomplete,64,color,1,left,Red_Star_Stripes_1.jpg,Red_Circle_Chess_4.jpg,Purple_Star_Dots_3.jpg,right,1715.9099999989849,false,high,NA,NA,NA,NA,NA,NA,NA,false
fTAHd4pF,3dzkabx20liukfefnqxhosng7x6cv3,3hhragryxcizjhw91w6eguorrfqo9j,fTAHd4pF,2020-0188,2020-05-21,10:31:55,10:51:57,NA,incomplete,65,color,1,right,Red_Plus_Stripes_4.jpg,Purple_Plus_Grid_1.jpg,Red_Triangle_Chess_2.jpg,left,889.8700000062818,false,high,NA,NA,NA,NA,NA,NA,NA,false
fTAHd4pF,3dzkabx20liukfefnqxhosng7x6cv3,3hhragryxcizjhw91w6eguorrfqo9j,fTAHd4pF,2020-0188,2020-05-21,10:31:55,10:51:57,NA,incomplete,66,color,0,right,Green_Circle_Dots_2.jpg,Purple_Circle_Stripes_1.jpg,Green_Star_Grid_3.jpg,right,656.3699999969685,true,high,NA,NA,NA,NA,NA,NA,NA,false
fTAHd4pF,3dzkabx20liukfefnqxhosng7x6cv3,3hhragryxcizjhw91w6eguorrfqo9j,fTAHd4pF,2020-0188,2020-05-21,10:31:55,10:51:57,NA,incomplete,67,color,1,right,Green_Circle_Stripes_4.jpg,Purple_Circle_Dots_2.jpg,Green_Plus_Chess_1.jpg,right,451.4000000053784,true,high,NA,NA,NA,NA,NA,NA,NA,false
fTAHd4pF,3dzkabx20liukfefnqxhosng7x6cv3,3hhragryxcizjhw91w6eguorrfqo9j,fTAHd4pF,2020-0188,2020-05-21,10:31:55,10:51:57,NA,incomplete,68,color,1,left,Red_Triangle_Dots_4.jpg,Red_Circle_Chess_2.jpg,Purple_Triangle_Grid_1.jpg,right,622.5649999978486,false,high,NA,NA,NA,NA,NA,NA,NA,false
fTAHd4pF,3dzkabx20liukfefnqxhosng7x6cv3,3hhragryxcizjhw91w6eguorrfqo9j,fTAHd4pF,2020-0188,2020-05-21,10:31:55,10:51:57,NA,incomplete,69,color,1,right,Green_Triangle_Grid_4.jpg,Red_Triangle_Stripes_2.jpg,Green_Star_Chess_1.jpg,right,546.3049999962095,true,high,NA,NA,NA,NA,NA,NA,NA,false
fTAHd4pF,3dzkabx20liukfefnqxhosng7x6cv3,3hhragryxcizjhw91w6eguorrfqo9j,fTAHd4pF,2020-0188,2020-05-21,10:31:55,10:51:57,NA,incomplete,70,shape,1,left,Green_Star_Stripes_1.jpg,Purple_Star_Dots_4.jpg,Green_Triangle_Grid_3.jpg,right,402.8550000003306,false,high,NA,NA,NA,NA,NA,NA,NA,false
fTAHd4pF,3dzkabx20liukfefnqxhosng7x6cv3,3hhragryxcizjhw91w6eguorrfqo9j,fTAHd4pF,2020-0188,2020-05-21,10:31:55,10:51:57,NA,incomplete,71,shape,1,left,Blue_Plus_Grid_3.jpg,Purple_Plus_Dots_1.jpg,Blue_Star_Chess_4.jpg,right,619.8450000011362,false,high,NA,NA,NA,NA,NA,NA,NA,false
fTAHd4pF,3dzkabx20liukfefnqxhosng7x6cv3,3hhragryxcizjhw91w6eguorrfqo9j,fTAHd4pF,2020-0188,2020-05-21,10:31:55,10:51:57,NA,incomplete,72,shape,1,left,Purple_Triangle_Grid_2.jpg,Red_Triangle_Dots_3.jpg,Purple_Circle_Chess_1.jpg,right,635.5200000035111,false,high,NA,NA,NA,NA,NA,NA,NA,false
fTAHd4pF,3dzkabx20liukfefnqxhosng7x6cv3,3hhragryxcizjhw91w6eguorrfqo9j,fTAHd4pF,2020-0188,2020-05-21,10:31:55,10:51:57,NA,incomplete,73,shape,1,left,Red_Triangle_Dots_4.jpg,Blue_Triangle_Chess_1.jpg,Red_Circle_Grid_2.jpg,right,638.3600000044098,false,high,NA,NA,NA,NA,NA,NA,NA,false
fTAHd4pF,3dzkabx20liukfefnqxhosng7x6cv3,3hhragryxcizjhw91w6eguorrfqo9j,fTAHd4pF,2020-0188,2020-05-21,10:31:55,10:51:57,NA,incomplete,74,shape,0,left,Green_Star_Chess_1.jpg,Blue_Star_Stripes_4.jpg,Green_Plus_Grid_2.jpg,right,634.7049999968149,false,high,NA,NA,NA,NA,NA,NA,NA,false
fTAHd4pF,3dzkabx20liukfefnqxhosng7x6cv3,3hhragryxcizjhw91w6eguorrfqo9j,fTAHd4pF,2020-0188,2020-05-21,10:31:55,10:51:57,NA,incomplete,75,shape,0,right,Red_Plus_Stripes_2.jpg,Red_Star_Grid_3.jpg,Purple_Plus_Dots_4.jpg,right,925.1699999949196,true,high,NA,NA,NA,NA,NA,NA,NA,false
fTAHd4pF,3dzkabx20liukfefnqxhosng7x6cv3,3hhragryxcizjhw91w6eguorrfqo9j,fTAHd4pF,2020-0188,2020-05-21,10:31:55,10:51:57,NA,incomplete,76,shape,1,left,Blue_Circle_Stripes_2.jpg,Green_Circle_Chess_4.jpg,Blue_Plus_Dots_1.jpg,right,687.110000006156,false,high,NA,NA,NA,NA,NA,NA,NA,false
fTAHd4pF,3dzkabx20liukfefnqxhosng7x6cv3,3hhragryxcizjhw91w6eguorrfqo9j,fTAHd4pF,2020-0188,2020-05-21,10:31:55,10:51:57,NA,incomplete,77,shape,1,left,Purple_Star_Dots_3.jpg,Red_Star_Stripes_1.jpg,Purple_Triangle_Chess_4.jpg,right,400.789999999688,false,high,NA,NA,NA,NA,NA,NA,NA,false
fTAHd4pF,3dzkabx20liukfefnqxhosng7x6cv3,3hhragryxcizjhw91w6eguorrfqo9j,fTAHd4pF,2020-0188,2020-05-21,10:31:55,10:51:57,NA,incomplete,78,shape,1,left,Blue_Plus_Chess_4.jpg,Purple_Plus_Dots_2.jpg,Blue_Triangle_Grid_1.jpg,left,653.9350000020349,true,high,NA,NA,NA,NA,NA,NA,NA,false
fTAHd4pF,3dzkabx20liukfefnqxhosng7x6cv3,3hhragryxcizjhw91w6eguorrfqo9j,fTAHd4pF,2020-0188,2020-05-21,10:31:55,10:51:57,NA,incomplete,79,shape,1,left,Purple_Triangle_Stripes_1.jpg,Green_Triangle_Chess_3.jpg,Purple_Plus_Grid_4.jpg,left,646.8800000003539,true,high,NA,NA,NA,NA,NA,NA,NA,false
fTAHd4pF,3dzkabx20liukfefnqxhosng7x6cv3,3hhragryxcizjhw91w6eguorrfqo9j,fTAHd4pF,2020-0188,2020-05-21,10:31:55,10:51:57,NA,incomplete,80,color,1,right,Red_Star_Dots_2.jpg,Purple_Star_Stripes_1.jpg,Red_Circle_Chess_4.jpg,right,1052.960000000894,true,high,NA,NA,NA,NA,NA,NA,NA,false
fTAHd4pF,3dzkabx20liukfefnqxhosng7x6cv3,3hhragryxcizjhw91w6eguorrfqo9j,fTAHd4pF,2020-0188,2020-05-21,10:31:55,10:51:57,NA,incomplete,81,color,1,right,Blue_Circle_Chess_2.jpg,Red_Circle_Stripes_1.jpg,Blue_Plus_Grid_3.jpg,right,511.054999995511,true,high,NA,NA,NA,NA,NA,NA,NA,false
fTAHd4pF,3dzkabx20liukfefnqxhosng7x6cv3,3hhragryxcizjhw91w6eguorrfqo9j,fTAHd4pF,2020-0188,2020-05-21,10:31:55,10:51:57,NA,incomplete,82,color,1,left,Purple_Circle_Stripes_4.jpg,Purple_Star_Dots_1.jpg,Red_Circle_Chess_2.jpg,left,584.930000004475,true,high,NA,NA,NA,NA,NA,NA,NA,false
fTAHd4pF,3dzkabx20liukfefnqxhosng7x6cv3,3hhragryxcizjhw91w6eguorrfqo9j,fTAHd4pF,2020-0188,2020-05-21,10:31:55,10:51:57,NA,incomplete,83,color,1,left,Blue_Triangle_Stripes_4.jpg,Blue_Plus_Dots_1.jpg,Purple_Triangle_Grid_3.jpg,left,574.4950000008103,true,high,NA,NA,NA,NA,NA,NA,NA,false
fTAHd4pF,3dzkabx20liukfefnqxhosng7x6cv3,3hhragryxcizjhw91w6eguorrfqo9j,fTAHd4pF,2020-0188,2020-05-21,10:31:55,10:51:57,NA,incomplete,84,color,1,right,Red_Plus_Stripes_2.jpg,Blue_Plus_Chess_4.jpg,Red_Star_Dots_1.jpg,right,1037.6700000051642,true,high,NA,NA,NA,NA,NA,NA,NA,false
fTAHd4pF,3dzkabx20liukfefnqxhosng7x6cv3,3hhragryxcizjhw91w6eguorrfqo9j,fTAHd4pF,2020-0188,2020-05-21,10:31:55,10:51:57,NA,incomplete,85,color,1,left,Blue_Plus_Chess_1.jpg,Blue_Circle_Stripes_4.jpg,Green_Plus_Grid_2.jpg,left,718.4749999942724,true,high,NA,NA,NA,NA,NA,NA,NA,false
fTAHd4pF,3dzkabx20liukfefnqxhosng7x6cv3,3hhragryxcizjhw91w6eguorrfqo9j,fTAHd4pF,2020-0188,2020-05-21,10:31:55,10:51:57,NA,incomplete,86,color,1,right,Blue_Triangle_Stripes_1.jpg,Purple_Triangle_Grid_2.jpg,Blue_Star_Dots_4.jpg,right,498.5700000033248,true,high,NA,NA,NA,NA,NA,NA,NA,false
fTAHd4pF,3dzkabx20liukfefnqxhosng7x6cv3,3hhragryxcizjhw91w6eguorrfqo9j,fTAHd4pF,2020-0188,2020-05-21,10:31:55,10:51:57,NA,incomplete,87,color,0,right,Green_Circle_Grid_2.jpg,Purple_Circle_Dots_1.jpg,Green_Star_Stripes_4.jpg,right,507.51499999745283,true,high,NA,NA,NA,NA,NA,NA,NA,false
fTAHd4pF,3dzkabx20liukfefnqxhosng7x6cv3,3hhragryxcizjhw91w6eguorrfqo9j,fTAHd4pF,2020-0188,2020-05-21,10:31:55,10:51:57,NA,incomplete,88,color,1,right,Purple_Triangle_Chess_1.jpg,Green_Triangle_Dots_3.jpg,Purple_Circle_Stripes_4.jpg,right,477.63499999558553,true,high,NA,NA,NA,NA,NA,NA,NA,false
fTAHd4pF,3dzkabx20liukfefnqxhosng7x6cv3,3hhragryxcizjhw91w6eguorrfqo9j,fTAHd4pF,2020-0188,2020-05-21,10:31:55,10:51:57,NA,incomplete,89,color,1,right,Red_Star_Chess_4.jpg,Green_Star_Stripes_2.jpg,Red_Plus_Dots_3.jpg,right,509.85499999672174,true,high,NA,NA,NA,NA,NA,NA,NA,false
fTAHd4pF,3dzkabx20liukfefnqxhosng7x6cv3,3hhragryxcizjhw91w6eguorrfqo9j,fTAHd4pF,2020-0188,2020-05-21,10:31:55,10:51:57,NA,incomplete,90,shape,1,right,Red_Triangle_Grid_1.jpg,Red_Plus_Chess_2.jpg,Green_Triangle_Stripes_4.jpg,left,502.40499999932945,false,high,NA,NA,NA,NA,NA,NA,NA,false
fTAHd4pF,3dzkabx20liukfefnqxhosng7x6cv3,3hhragryxcizjhw91w6eguorrfqo9j,fTAHd4pF,2020-0188,2020-05-21,10:31:55,10:51:57,NA,incomplete,91,shape,1,right,Green_Triangle_Dots_4.jpg,Green_Plus_Stripes_1.jpg,Purple_Triangle_Grid_3.jpg,right,587.7749999999069,true,high,NA,NA,NA,NA,NA,NA,NA,false
fTAHd4pF,3dzkabx20liukfefnqxhosng7x6cv3,3hhragryxcizjhw91w6eguorrfqo9j,fTAHd4pF,2020-0188,2020-05-21,10:31:55,10:51:57,NA,incomplete,92,shape,1,left,Red_Circle_Grid_4.jpg,Blue_Circle_Dots_2.jpg,Red_Plus_Stripes_1.jpg,right,545.085000005085,false,high,NA,NA,NA,NA,NA,NA,NA,false
fTAHd4pF,3dzkabx20liukfefnqxhosng7x6cv3,3hhragryxcizjhw91w6eguorrfqo9j,fTAHd4pF,2020-0188,2020-05-21,10:31:55,10:51:57,NA,incomplete,93,shape,1,left,Purple_Star_Stripes_1.jpg,Green_Star_Dots_2.jpg,Purple_Circle_Chess_4.jpg,right,528.5099999964004,false,high,NA,NA,NA,NA,NA,NA,NA,false
fTAHd4pF,3dzkabx20liukfefnqxhosng7x6cv3,3hhragryxcizjhw91w6eguorrfqo9j,fTAHd4pF,2020-0188,2020-05-21,10:31:55,10:51:57,NA,incomplete,94,shape,0,right,Green_Plus_Grid_1.jpg,Green_Triangle_Stripes_3.jpg,Red_Plus_Dots_2.jpg,left,429.42500000214204,false,high,NA,NA,NA,NA,NA,NA,NA,false
fTAHd4pF,3dzkabx20liukfefnqxhosng7x6cv3,3hhragryxcizjhw91w6eguorrfqo9j,fTAHd4pF,2020-0188,2020-05-21,10:31:55,10:51:57,NA,incomplete,95,shape,1,right,Blue_Triangle_Grid_4.jpg,Blue_Circle_Stripes_1.jpg,Red_Triangle_Chess_2.jpg,left,446.9200000021374,false,high,NA,NA,NA,NA,NA,NA,NA,false
fTAHd4pF,3dzkabx20liukfefnqxhosng7x6cv3,3hhragryxcizjhw91w6eguorrfqo9j,fTAHd4pF,2020-0188,2020-05-21,10:31:55,10:51:57,NA,incomplete,96,shape,0,left,Blue_Star_Grid_2.jpg,Purple_Star_Chess_3.jpg,Blue_Plus_Dots_4.jpg,left,250.7499999993015,true,high,NA,NA,NA,NA,NA,NA,NA,false
fTAHd4pF,3dzkabx20liukfefnqxhosng7x6cv3,3hhragryxcizjhw91w6eguorrfqo9j,fTAHd4pF,2020-0188,2020-05-21,10:31:55,10:51:57,NA,incomplete,97,shape,1,left,Purple_Star_Chess_1.jpg,Red_Star_Grid_4.jpg,Purple_Plus_Stripes_3.jpg,right,441.9049999996787,false,high,NA,NA,NA,NA,NA,NA,NA,false
fTAHd4pF,3dzkabx20liukfefnqxhosng7x6cv3,3hhragryxcizjhw91w6eguorrfqo9j,fTAHd4pF,2020-0188,2020-05-21,10:31:55,10:51:57,NA,incomplete,98,shape,1,right,Red_Circle_Stripes_4.jpg,Red_Triangle_Grid_1.jpg,Green_Circle_Dots_2.jpg,left,441.2000000011176,false,high,NA,NA,NA,NA,NA,NA,NA,false
fTAHd4pF,3dzkabx20liukfefnqxhosng7x6cv3,3hhragryxcizjhw91w6eguorrfqo9j,fTAHd4pF,2020-0188,2020-05-21,10:31:55,10:51:57,NA,incomplete,99,shape,1,right,Blue_Circle_Grid_4.jpg,Blue_Plus_Chess_2.jpg,Green_Circle_Dots_3.jpg,right,521.130000000936,true,high,NA,NA,NA,NA,NA,NA,NA,false
fTAHd4pF,3dzkabx20liukfefnqxhosng7x6cv3,3hhragryxcizjhw91w6eguorrfqo9j,fTAHd4pF,2020-0188,2020-05-21,10:31:55,10:51:57,NA,incomplete,100,color,1,left,Green_Circle_Chess_4.jpg,Green_Plus_Dots_3.jpg,Purple_Circle_Stripes_2.jpg,right,544.8899999973364,false,high,NA,NA,NA,NA,NA,NA,NA,false
fTAHd4pF,3dzkabx20liukfefnqxhosng7x6cv3,3hhragryxcizjhw91w6eguorrfqo9j,fTAHd4pF,2020-0188,2020-05-21,10:31:55,10:51:57,NA,incomplete,101,color,0,left,Blue_Circle_Chess_1.jpg,Blue_Triangle_Stripes_3.jpg,Purple_Circle_Dots_4.jpg,right,519.5499999972526,false,high,NA,NA,NA,NA,NA,NA,NA,false
fTAHd4pF,3dzkabx20liukfefnqxhosng7x6cv3,3hhragryxcizjhw91w6eguorrfqo9j,fTAHd4pF,2020-0188,2020-05-21,10:31:55,10:51:57,NA,incomplete,102,color,1,right,Purple_Star_Stripes_1.jpg,Green_Star_Dots_2.jpg,Purple_Plus_Grid_3.jpg,left,765.1299999996554,false,high,NA,NA,NA,NA,NA,NA,NA,false
fTAHd4pF,3dzkabx20liukfefnqxhosng7x6cv3,3hhragryxcizjhw91w6eguorrfqo9j,fTAHd4pF,2020-0188,2020-05-21,10:31:55,10:51:57,NA,incomplete,103,color,1,right,Blue_Plus_Chess_3.jpg,Purple_Plus_Dots_2.jpg,Blue_Triangle_Stripes_1.jpg,left,683.8650000062771,false,high,NA,NA,NA,NA,NA,NA,NA,false
fTAHd4pF,3dzkabx20liukfefnqxhosng7x6cv3,3hhragryxcizjhw91w6eguorrfqo9j,fTAHd4pF,2020-0188,2020-05-21,10:31:55,10:51:57,NA,incomplete,104,color,1,left,Red_Circle_Stripes_3.jpg,Red_Star_Dots_4.jpg,Green_Circle_Grid_1.jpg,right,485.45000000018626,false,high,NA,NA,NA,NA,NA,NA,NA,false
fTAHd4pF,3dzkabx20liukfefnqxhosng7x6cv3,3hhragryxcizjhw91w6eguorrfqo9j,fTAHd4pF,2020-0188,2020-05-21,10:31:55,10:51:57,NA,incomplete,105,color,1,right,Purple_Plus_Dots_4.jpg,Blue_Plus_Stripes_3.jpg,Purple_Triangle_Chess_2.jpg,right,524.2300000027753,true,high,NA,NA,NA,NA,NA,NA,NA,false
fTAHd4pF,3dzkabx20liukfefnqxhosng7x6cv3,3hhragryxcizjhw91w6eguorrfqo9j,fTAHd4pF,2020-0188,2020-05-21,10:31:55,10:51:57,NA,incomplete,106,color,1,right,Blue_Triangle_Grid_3.jpg,Purple_Triangle_Stripes_1.jpg,Blue_Star_Dots_4.jpg,right,510.49999999662396,true,high,NA,NA,NA,NA,NA,NA,NA,false
fTAHd4pF,3dzkabx20liukfefnqxhosng7x6cv3,3hhragryxcizjhw91w6eguorrfqo9j,fTAHd4pF,2020-0188,2020-05-21,10:31:55,10:51:57,NA,incomplete,107,color,1,left,Red_Star_Grid_3.jpg,Red_Circle_Dots_1.jpg,Purple_Star_Chess_4.jpg,left,395.7700000028126,true,high,NA,NA,NA,NA,NA,NA,NA,false
fTAHd4pF,3dzkabx20liukfefnqxhosng7x6cv3,3hhragryxcizjhw91w6eguorrfqo9j,fTAHd4pF,2020-0188,2020-05-21,10:31:55,10:51:57,NA,incomplete,108,color,1,right,Purple_Triangle_Grid_4.jpg,Green_Triangle_Stripes_3.jpg,Purple_Star_Chess_1.jpg,left,416.47000000381377,false,high,NA,NA,NA,NA,NA,NA,NA,false
fTAHd4pF,3dzkabx20liukfefnqxhosng7x6cv3,3hhragryxcizjhw91w6eguorrfqo9j,fTAHd4pF,2020-0188,2020-05-21,10:31:55,10:51:57,NA,incomplete,109,color,0,left,Green_Triangle_Dots_3.jpg,Green_Plus_Stripes_2.jpg,Blue_Triangle_Chess_1.jpg,left,435.5599999980768,true,high,NA,NA,NA,NA,NA,NA,NA,false
fTAHd4pF,3dzkabx20liukfefnqxhosng7x6cv3,3hhragryxcizjhw91w6eguorrfqo9j,fTAHd4pF,2020-0188,2020-05-21,10:31:55,10:51:57,NA,incomplete,110,shape,1,right,Red_Triangle_Stripes_4.jpg,Red_Star_Chess_3.jpg,Blue_Triangle_Grid_1.jpg,right,725.8400000063702,true,high,NA,NA,NA,NA,NA,NA,NA,false
fTAHd4pF,3dzkabx20liukfefnqxhosng7x6cv3,3hhragryxcizjhw91w6eguorrfqo9j,fTAHd4pF,2020-0188,2020-05-21,10:31:55,10:51:57,NA,incomplete,111,shape,1,left,Green_Triangle_Grid_1.jpg,Red_Triangle_Dots_4.jpg,Green_Star_Chess_2.jpg,left,712.0250000007218,true,high,NA,NA,NA,NA,NA,NA,NA,false
fTAHd4pF,3dzkabx20liukfefnqxhosng7x6cv3,3hhragryxcizjhw91w6eguorrfqo9j,fTAHd4pF,2020-0188,2020-05-21,10:31:55,10:51:57,NA,incomplete,112,shape,1,left,Blue_Plus_Stripes_2.jpg,Green_Plus_Chess_4.jpg,Blue_Star_Dots_1.jpg,left,616.6349999986123,true,high,NA,NA,NA,NA,NA,NA,NA,false
fTAHd4pF,3dzkabx20liukfefnqxhosng7x6cv3,3hhragryxcizjhw91w6eguorrfqo9j,fTAHd4pF,2020-0188,2020-05-21,10:31:55,10:51:57,NA,incomplete,113,shape,1,left,Green_Triangle_Stripes_4.jpg,Blue_Triangle_Chess_3.jpg,Green_Circle_Dots_1.jpg,right,685.0600000033155,false,high,NA,NA,NA,NA,NA,NA,NA,false
fTAHd4pF,3dzkabx20liukfefnqxhosng7x6cv3,3hhragryxcizjhw91w6eguorrfqo9j,fTAHd4pF,2020-0188,2020-05-21,10:31:55,10:51:57,NA,incomplete,114,shape,1,left,Red_Plus_Dots_3.jpg,Green_Plus_Grid_1.jpg,Red_Circle_Chess_4.jpg,left,611.9450000041397,true,high,NA,NA,NA,NA,NA,NA,NA,false
fTAHd4pF,3dzkabx20liukfefnqxhosng7x6cv3,3hhragryxcizjhw91w6eguorrfqo9j,fTAHd4pF,2020-0188,2020-05-21,10:31:55,10:51:57,NA,incomplete,115,shape,0,right,Blue_Plus_Grid_2.jpg,Blue_Circle_Chess_3.jpg,Green_Plus_Stripes_1.jpg,right,669.6450000017649,true,high,NA,NA,NA,NA,NA,NA,NA,false
fTAHd4pF,3dzkabx20liukfefnqxhosng7x6cv3,3hhragryxcizjhw91w6eguorrfqo9j,fTAHd4pF,2020-0188,2020-05-21,10:31:55,10:51:57,NA,incomplete,116,shape,0,left,Red_Star_Chess_1.jpg,Green_Star_Dots_2.jpg,Red_Circle_Stripes_4.jpg,right,548.9950000047684,false,high,NA,NA,NA,NA,NA,NA,NA,false
fTAHd4pF,3dzkabx20liukfefnqxhosng7x6cv3,3hhragryxcizjhw91w6eguorrfqo9j,fTAHd4pF,2020-0188,2020-05-21,10:31:55,10:51:57,NA,incomplete,117,shape,1,right,Red_Star_Grid_3.jpg,Red_Plus_Stripes_4.jpg,Blue_Star_Dots_2.jpg,left,461.29999999538995,false,high,NA,NA,NA,NA,NA,NA,NA,false
fTAHd4pF,3dzkabx20liukfefnqxhosng7x6cv3,3hhragryxcizjhw91w6eguorrfqo9j,fTAHd4pF,2020-0188,2020-05-21,10:31:55,10:51:57,NA,incomplete,118,shape,1,left,Blue_Plus_Chess_4.jpg,Purple_Plus_Stripes_3.jpg,Blue_Circle_Grid_2.jpg,right,412.4100000045728,false,high,NA,NA,NA,NA,NA,NA,NA,false
fTAHd4pF,3dzkabx20liukfefnqxhosng7x6cv3,3hhragryxcizjhw91w6eguorrfqo9j,fTAHd4pF,2020-0188,2020-05-21,10:31:55,10:51:57,NA,incomplete,119,shape,1,right,Red_Plus_Stripes_2.jpg,Red_Triangle_Dots_1.jpg,Blue_Plus_Grid_3.jpg,right,432.63999999908265,true,high,NA,NA,NA,NA,NA,NA,NA,false
fTAHd4pF,3dzkabx20liukfefnqxhosng7x6cv3,3hhragryxcizjhw91w6eguorrfqo9j,fTAHd4pF,2020-0188,2020-05-21,10:31:55,10:51:57,NA,incomplete,120,filling,1,right,Blue_Circle_Chess_2.jpg,Green_Star_Stripes_2.jpg,Red_Plus_Chess_3.jpg,NA,NA,NA,high,NA,NA,NA,NA,NA,NA,NA,false
fTAHd4pF,3dzkabx20liukfefnqxhosng7x6cv3,3hhragryxcizjhw91w6eguorrfqo9j,fTAHd4pF,2020-0188,2020-05-21,10:31:55,10:51:57,NA,incomplete,121,filling,1,left,Blue_Triangle_Grid_1.jpg,Red_Plus_Grid_3.jpg,Purple_Star_Stripes_1.jpg,left,866.1300000021001,true,high,NA,NA,NA,NA,NA,NA,NA,false
fTAHd4pF,3dzkabx20liukfefnqxhosng7x6cv3,3hhragryxcizjhw91w6eguorrfqo9j,fTAHd4pF,2020-0188,2020-05-21,10:31:55,10:51:57,NA,incomplete,122,filling,1,right,Green_Circle_Dots_2.jpg,Blue_Triangle_Stripes_2.jpg,Red_Plus_Dots_4.jpg,right,576.0800000061281,true,high,NA,NA,NA,NA,NA,NA,NA,false
fTAHd4pF,3dzkabx20liukfefnqxhosng7x6cv3,3hhragryxcizjhw91w6eguorrfqo9j,fTAHd4pF,2020-0188,2020-05-21,10:31:55,10:51:57,NA,incomplete,123,filling,0,right,Green_Circle_Grid_4.jpg,Red_Triangle_Chess_4.jpg,Blue_Plus_Grid_3.jpg,left,466.97000000125263,false,high,NA,NA,NA,NA,NA,NA,NA,false
fTAHd4pF,3dzkabx20liukfefnqxhosng7x6cv3,3hhragryxcizjhw91w6eguorrfqo9j,fTAHd4pF,2020-0188,2020-05-21,10:31:55,10:51:57,NA,incomplete,124,filling,1,right,Red_Triangle_Stripes_2.jpg,Green_Circle_Dots_2.jpg,Blue_Plus_Stripes_3.jpg,right,496.964999998454,true,high,NA,NA,NA,NA,NA,NA,NA,false
fTAHd4pF,3dzkabx20liukfefnqxhosng7x6cv3,3hhragryxcizjhw91w6eguorrfqo9j,fTAHd4pF,2020-0188,2020-05-21,10:31:55,10:51:57,NA,incomplete,125,filling,0,left,Blue_Circle_Grid_1.jpg,Green_Plus_Grid_4.jpg,Purple_Triangle_Dots_1.jpg,left,286.3999999972293,true,high,NA,NA,NA,NA,NA,NA,NA,false
fTAHd4pF,3dzkabx20liukfefnqxhosng7x6cv3,3hhragryxcizjhw91w6eguorrfqo9j,fTAHd4pF,2020-0188,2020-05-21,10:31:55,10:51:57,NA,incomplete,126,filling,1,left,Blue_Triangle_Chess_2.jpg,Red_Plus_Chess_4.jpg,Purple_Star_Dots_2.jpg,left,165.4149999958463,true,high,NA,NA,NA,NA,NA,NA,NA,false
fTAHd4pF,3dzkabx20liukfefnqxhosng7x6cv3,3hhragryxcizjhw91w6eguorrfqo9j,fTAHd4pF,2020-0188,2020-05-21,10:31:55,10:51:57,NA,incomplete,127,filling,1,right,Red_Plus_Chess_2.jpg,Blue_Triangle_Dots_2.jpg,Purple_Star_Chess_4.jpg,right,405.7699999974575,true,high,NA,NA,NA,NA,NA,NA,NA,false
fTAHd4pF,3dzkabx20liukfefnqxhosng7x6cv3,3hhragryxcizjhw91w6eguorrfqo9j,fTAHd4pF,2020-0188,2020-05-21,10:31:55,10:51:57,NA,incomplete,128,filling,1,left,Purple_Plus_Stripes_4.jpg,Red_Star_Stripes_1.jpg,Blue_Circle_Dots_4.jpg,left,239.28999999770895,true,high,NA,NA,NA,NA,NA,NA,NA,false
fTAHd4pF,3dzkabx20liukfefnqxhosng7x6cv3,3hhragryxcizjhw91w6eguorrfqo9j,fTAHd4pF,2020-0188,2020-05-21,10:31:55,10:51:57,NA,incomplete,129,filling,0,left,Blue_Triangle_Stripes_1.jpg,Red_Plus_Stripes_2.jpg,Purple_Circle_Chess_1.jpg,left,231.44000000320375,true,high,NA,NA,NA,NA,NA,NA,NA,false
fTAHd4pF,3dzkabx20liukfefnqxhosng7x6cv3,3hhragryxcizjhw91w6eguorrfqo9j,fTAHd4pF,2020-0188,2020-05-21,10:31:55,10:51:57,NA,incomplete,130,filling,1,left,Purple_Star_Chess_2.jpg,Green_Circle_Chess_3.jpg,Blue_Triangle_Stripes_2.jpg,left,252.60500000149477,true,high,NA,NA,NA,NA,NA,NA,NA,false
fTAHd4pF,3dzkabx20liukfefnqxhosng7x6cv3,3hhragryxcizjhw91w6eguorrfqo9j,fTAHd4pF,2020-0188,2020-05-21,10:31:55,10:51:57,NA,incomplete,131,filling,0,left,Blue_Triangle_Stripes_2.jpg,Green_Plus_Stripes_1.jpg,Red_Star_Dots_2.jpg,left,361.8149999965681,true,high,NA,NA,NA,NA,NA,NA,NA,false
fTAHd4pF,3dzkabx20liukfefnqxhosng7x6cv3,3hhragryxcizjhw91w6eguorrfqo9j,fTAHd4pF,2020-0188,2020-05-21,10:31:55,10:51:57,NA,incomplete,132,filling,1,right,Green_Triangle_Dots_3.jpg,Purple_Star_Chess_3.jpg,Blue_Plus_Dots_1.jpg,left,109.8199999978533,false,high,NA,NA,NA,NA,NA,NA,NA,false
fTAHd4pF,3dzkabx20liukfefnqxhosng7x6cv3,3hhragryxcizjhw91w6eguorrfqo9j,fTAHd4pF,2020-0188,2020-05-21,10:31:55,10:51:57,NA,incomplete,133,filling,1,left,Red_Star_Dots_1.jpg,Purple_Triangle_Dots_4.jpg,Green_Plus_Grid_1.jpg,left,41.99999999406282,true,high,NA,NA,NA,NA,NA,NA,NA,false
fTAHd4pF,3dzkabx20liukfefnqxhosng7x6cv3,3hhragryxcizjhw91w6eguorrfqo9j,fTAHd4pF,2020-0188,2020-05-21,10:31:55,10:51:57,NA,incomplete,134,filling,0,right,Red_Star_Grid_1.jpg,Green_Circle_Dots_1.jpg,Purple_Plus_Grid_3.jpg,left,150.56999999796972,false,high,NA,NA,NA,NA,NA,NA,NA,false
fTAHd4pF,3dzkabx20liukfefnqxhosng7x6cv3,3hhragryxcizjhw91w6eguorrfqo9j,fTAHd4pF,2020-0188,2020-05-21,10:31:55,10:51:57,NA,incomplete,135,filling,1,right,Red_Star_Chess_2.jpg,Green_Circle_Dots_2.jpg,Purple_Plus_Chess_3.jpg,left,155.22000000067055,false,high,NA,NA,NA,NA,NA,NA,NA,false
fTAHd4pF,3dzkabx20liukfefnqxhosng7x6cv3,3hhragryxcizjhw91w6eguorrfqo9j,fTAHd4pF,2020-0188,2020-05-21,10:31:55,10:51:57,NA,incomplete,136,filling,1,right,Red_Triangle_Dots_2.jpg,Purple_Circle_Stripes_2.jpg,Blue_Plus_Dots_4.jpg,left,235.209999998915,false,high,NA,NA,NA,NA,NA,NA,NA,false
fTAHd4pF,3dzkabx20liukfefnqxhosng7x6cv3,3hhragryxcizjhw91w6eguorrfqo9j,fTAHd4pF,2020-0188,2020-05-21,10:31:55,10:51:57,NA,incomplete,137,filling,1,right,Blue_Star_Grid_3.jpg,Green_Circle_Stripes_3.jpg,Red_Triangle_Grid_1.jpg,right,258.17000000108965,true,high,NA,NA,NA,NA,NA,NA,NA,false
fTAHd4pF,3dzkabx20liukfefnqxhosng7x6cv3,3hhragryxcizjhw91w6eguorrfqo9j,fTAHd4pF,2020-0188,2020-05-21,10:31:55,10:51:57,NA,incomplete,138,filling,1,right,Green_Circle_Chess_2.jpg,Red_Triangle_Dots_2.jpg,Purple_Star_Chess_1.jpg,left,230.38000000093598,false,high,NA,NA,NA,NA,NA,NA,NA,false
fTAHd4pF,3dzkabx20liukfefnqxhosng7x6cv3,3hhragryxcizjhw91w6eguorrfqo9j,fTAHd4pF,2020-0188,2020-05-21,10:31:55,10:51:57,NA,incomplete,139,filling,1,right,Red_Triangle_Stripes_3.jpg,Green_Plus_Dots_3.jpg,Purple_Circle_Stripes_1.jpg,right,109.70000000088476,true,high,NA,NA,NA,NA,NA,NA,NA,false
fTAHd4pF,3dzkabx20liukfefnqxhosng7x6cv3,3hhragryxcizjhw91w6eguorrfqo9j,fTAHd4pF,2020-0188,2020-05-21,10:31:55,10:51:57,NA,incomplete,140,number,0,right,Purple_Plus_Stripes_1.jpg,Green_Circle_Stripes_2.jpg,Red_Triangle_Chess_1.jpg,left,161.89999999909196,false,high,NA,NA,NA,NA,NA,NA,NA,false
fTAHd4pF,3dzkabx20liukfefnqxhosng7x6cv3,3hhragryxcizjhw91w6eguorrfqo9j,fTAHd4pF,2020-0188,2020-05-21,10:31:55,10:51:57,NA,incomplete,141,number,1,right,Blue_Triangle_Stripes_4.jpg,Purple_Circle_Stripes_1.jpg,Red_Plus_Chess_4.jpg,right,99.77000000071712,true,high,NA,NA,NA,NA,NA,NA,NA,false
fTAHd4pF,3dzkabx20liukfefnqxhosng7x6cv3,3hhragryxcizjhw91w6eguorrfqo9j,fTAHd4pF,2020-0188,2020-05-21,10:31:55,10:51:57,NA,incomplete,142,number,1,right,Green_Circle_Chess_4.jpg,Blue_Triangle_Chess_3.jpg,Red_Star_Stripes_4.jpg,right,36.54499999550171,true,high,NA,NA,NA,NA,NA,NA,NA,false
fTAHd4pF,3dzkabx20liukfefnqxhosng7x6cv3,3hhragryxcizjhw91w6eguorrfqo9j,fTAHd4pF,2020-0188,2020-05-21,10:31:55,10:51:57,NA,incomplete,143,number,1,right,Blue_Star_Grid_1.jpg,Red_Plus_Grid_2.jpg,Green_Circle_Dots_1.jpg,left,43.50500000140164,false,high,NA,NA,NA,NA,NA,NA,NA,false
fTAHd4pF,3dzkabx20liukfefnqxhosng7x6cv3,3hhragryxcizjhw91w6eguorrfqo9j,fTAHd4pF,2020-0188,2020-05-21,10:31:55,10:51:57,NA,incomplete,144,number,1,right,Purple_Plus_Dots_2.jpg,Green_Circle_Dots_4.jpg,Blue_Triangle_Chess_2.jpg,right,198.90500000468455,true,high,NA,NA,NA,NA,NA,NA,NA,false
fTAHd4pF,3dzkabx20liukfefnqxhosng7x6cv3,3hhragryxcizjhw91w6eguorrfqo9j,fTAHd4pF,2020-0188,2020-05-21,10:31:55,10:51:57,NA,incomplete,145,number,1,left,Red_Star_Grid_2.jpg,Green_Triangle_Chess_2.jpg,Blue_Plus_Grid_1.jpg,right,88.38500000280328,false,high,NA,NA,NA,NA,NA,NA,NA,false
fTAHd4pF,3dzkabx20liukfefnqxhosng7x6cv3,3hhragryxcizjhw91w6eguorrfqo9j,fTAHd4pF,2020-0188,2020-05-21,10:31:55,10:51:57,NA,incomplete,146,number,1,left,Purple_Circle_Grid_3.jpg,Blue_Star_Stripes_3.jpg,Green_Triangle_Grid_2.jpg,right,156.68499999446794,false,high,NA,NA,NA,NA,NA,NA,NA,false
fTAHd4pF,3dzkabx20liukfefnqxhosng7x6cv3,3hhragryxcizjhw91w6eguorrfqo9j,fTAHd4pF,2020-0188,2020-05-21,10:31:55,10:51:57,NA,incomplete,147,number,1,right,Green_Plus_Stripes_2.jpg,Blue_Circle_Stripes_4.jpg,Red_Triangle_Chess_2.jpg,right,4.119999997783452,true,high,NA,NA,NA,NA,NA,NA,NA,false
fTAHd4pF,3dzkabx20liukfefnqxhosng7x6cv3,3hhragryxcizjhw91w6eguorrfqo9j,fTAHd4pF,2020-0188,2020-05-21,10:31:55,10:51:57,NA,incomplete,148,number,0,right,Red_Plus_Dots_3.jpg,Blue_Triangle_Dots_4.jpg,Purple_Circle_Chess_3.jpg,right,163.02000000001863,true,high,NA,NA,NA,NA,NA,NA,NA,false
fTAHd4pF,3dzkabx20liukfefnqxhosng7x6cv3,3hhragryxcizjhw91w6eguorrfqo9j,fTAHd4pF,2020-0188,2020-05-21,10:31:55,10:51:57,NA,incomplete,149,number,1,right,Green_Star_Chess_4.jpg,Blue_Triangle_Chess_1.jpg,Purple_Plus_Grid_4.jpg,right,40.824999996460974,true,high,NA,NA,NA,NA,NA,NA,NA,false
fTAHd4pF,3dzkabx20liukfefnqxhosng7x6cv3,3hhragryxcizjhw91w6eguorrfqo9j,fTAHd4pF,2020-0188,2020-05-21,10:31:55,10:51:57,NA,incomplete,150,number,1,right,Red_Plus_Dots_4.jpg,Purple_Circle_Dots_2.jpg,Green_Star_Grid_4.jpg,right,149.9649999969406,true,high,NA,NA,NA,NA,NA,NA,NA,false
fTAHd4pF,3dzkabx20liukfefnqxhosng7x6cv3,3hhragryxcizjhw91w6eguorrfqo9j,fTAHd4pF,2020-0188,2020-05-21,10:31:55,10:51:57,NA,incomplete,151,number,1,left,Red_Plus_Grid_4.jpg,Green_Circle_Chess_4.jpg,Blue_Star_Grid_3.jpg,right,44.804999997722916,false,high,NA,NA,NA,NA,NA,NA,NA,false
fTAHd4pF,3dzkabx20liukfefnqxhosng7x6cv3,3hhragryxcizjhw91w6eguorrfqo9j,fTAHd4pF,2020-0188,2020-05-21,10:31:55,10:51:57,NA,incomplete,152,number,1,left,Green_Triangle_Dots_2.jpg,Blue_Plus_Grid_2.jpg,Red_Star_Dots_4.jpg,right,82.62999999721069,false,high,NA,NA,NA,NA,NA,NA,NA,false
fTAHd4pF,3dzkabx20liukfefnqxhosng7x6cv3,3hhragryxcizjhw91w6eguorrfqo9j,fTAHd4pF,2020-0188,2020-05-21,10:31:55,10:51:57,NA,incomplete,153,number,1,left,Red_Star_Grid_4.jpg,Blue_Triangle_Chess_4.jpg,Purple_Plus_Grid_1.jpg,right,44.00999999779742,false,high,NA,NA,NA,NA,NA,NA,NA,false
fTAHd4pF,3dzkabx20liukfefnqxhosng7x6cv3,3hhragryxcizjhw91w6eguorrfqo9j,fTAHd4pF,2020-0188,2020-05-21,10:31:55,10:51:57,NA,incomplete,154,number,0,left,Blue_Plus_Chess_3.jpg,Purple_Triangle_Dots_3.jpg,Green_Circle_Chess_2.jpg,right,57.03999999957159,false,high,NA,NA,NA,NA,NA,NA,NA,false
fTAHd4pF,3dzkabx20liukfefnqxhosng7x6cv3,3hhragryxcizjhw91w6eguorrfqo9j,fTAHd4pF,2020-0188,2020-05-21,10:31:55,10:51:57,NA,incomplete,155,number,1,right,Purple_Star_Dots_2.jpg,Green_Triangle_Dots_4.jpg,Red_Plus_Stripes_2.jpg,right,12.684999994235113,true,high,NA,NA,NA,NA,NA,NA,NA,false
fTAHd4pF,3dzkabx20liukfefnqxhosng7x6cv3,3hhragryxcizjhw91w6eguorrfqo9j,fTAHd4pF,2020-0188,2020-05-21,10:31:55,10:51:57,NA,incomplete,156,number,1,right,Purple_Triangle_Stripes_4.jpg,Blue_Plus_Stripes_1.jpg,Red_Star_Chess_4.jpg,left,111.29499999515247,false,high,NA,NA,NA,NA,NA,NA,NA,false
fTAHd4pF,3dzkabx20liukfefnqxhosng7x6cv3,3hhragryxcizjhw91w6eguorrfqo9j,fTAHd4pF,2020-0188,2020-05-21,10:31:55,10:51:57,NA,incomplete,157,number,1,right,Red_Star_Chess_1.jpg,Blue_Plus_Chess_3.jpg,Purple_Triangle_Grid_1.jpg,right,71.79999999783468,true,high,NA,NA,NA,NA,NA,NA,NA,false
fTAHd4pF,3dzkabx20liukfefnqxhosng7x6cv3,3hhragryxcizjhw91w6eguorrfqo9j,fTAHd4pF,2020-0188,2020-05-21,10:31:55,10:51:57,NA,incomplete,158,number,1,left,Purple_Star_Dots_1.jpg,Blue_Plus_Grid_1.jpg,Red_Circle_Dots_3.jpg,right,175.2399999969639,false,high,NA,NA,NA,NA,NA,NA,NA,false
fTAHd4pF,3dzkabx20liukfefnqxhosng7x6cv3,3hhragryxcizjhw91w6eguorrfqo9j,fTAHd4pF,2020-0188,2020-05-21,10:31:55,10:51:57,NA,incomplete,159,number,1,right,Green_Star_Grid_4.jpg,Blue_Triangle_Grid_3.jpg,Red_Plus_Chess_4.jpg,right,45.96500000485685,true,high,NA,NA,NA,NA,NA,NA,NA,false
fTAHd4pF,3dzkabx20liukfefnqxhosng7x6cv3,3hhragryxcizjhw91w6eguorrfqo9j,fTAHd4pF,2020-0188,2020-05-21,10:31:55,10:51:57,NA,incomplete,160,filling,1,left,Blue_Circle_Chess_1.jpg,Green_Triangle_Chess_2.jpg,Red_Star_Stripes_1.jpg,right,68.184999996447,false,high,NA,NA,NA,NA,NA,NA,NA,false
fTAHd4pF,3dzkabx20liukfefnqxhosng7x6cv3,3hhragryxcizjhw91w6eguorrfqo9j,fTAHd4pF,2020-0188,2020-05-21,10:31:55,10:51:57,NA,incomplete,161,filling,1,right,Blue_Plus_Dots_1.jpg,Red_Star_Stripes_1.jpg,Purple_Circle_Dots_4.jpg,right,140.22499999543652,true,high,NA,NA,NA,NA,NA,NA,NA,false
fTAHd4pF,3dzkabx20liukfefnqxhosng7x6cv3,3hhragryxcizjhw91w6eguorrfqo9j,fTAHd4pF,2020-0188,2020-05-21,10:31:55,10:51:57,NA,incomplete,162,filling,0,right,Blue_Plus_Chess_4.jpg,Red_Circle_Grid_4.jpg,Green_Star_Chess_3.jpg,right,116.10499999369495,true,high,NA,NA,NA,NA,NA,NA,NA,false
fTAHd4pF,3dzkabx20liukfefnqxhosng7x6cv3,3hhragryxcizjhw91w6eguorrfqo9j,fTAHd4pF,2020-0188,2020-05-21,10:31:55,10:51:57,NA,incomplete,163,filling,1,right,Red_Triangle_Chess_2.jpg,Purple_Star_Stripes_2.jpg,Blue_Plus_Chess_3.jpg,right,15.479999994626269,true,high,NA,NA,NA,NA,NA,NA,NA,false
fTAHd4pF,3dzkabx20liukfefnqxhosng7x6cv3,3hhragryxcizjhw91w6eguorrfqo9j,fTAHd4pF,2020-0188,2020-05-21,10:31:55,10:51:57,NA,incomplete,164,filling,1,right,Blue_Triangle_Grid_1.jpg,Purple_Plus_Chess_1.jpg,Red_Circle_Grid_2.jpg,right,9.53999999910593,true,high,NA,NA,NA,NA,NA,NA,NA,false
fTAHd4pF,3dzkabx20liukfefnqxhosng7x6cv3,3hhragryxcizjhw91w6eguorrfqo9j,fTAHd4pF,2020-0188,2020-05-21,10:31:55,10:51:57,NA,incomplete,165,filling,1,right,Blue_Circle_Chess_4.jpg,Green_Star_Grid_4.jpg,Red_Triangle_Chess_3.jpg,right,127.96499999961816,true,high,NA,NA,NA,NA,NA,NA,NA,false
fTAHd4pF,3dzkabx20liukfefnqxhosng7x6cv3,3hhragryxcizjhw91w6eguorrfqo9j,fTAHd4pF,2020-0188,2020-05-21,10:31:55,10:51:57,NA,incomplete,166,filling,1,right,Blue_Circle_Grid_3.jpg,Green_Triangle_Dots_3.jpg,Red_Star_Grid_2.jpg,right,57.42499999899883,true,high,NA,NA,NA,NA,NA,NA,NA,false
fTAHd4pF,3dzkabx20liukfefnqxhosng7x6cv3,3hhragryxcizjhw91w6eguorrfqo9j,fTAHd4pF,2020-0188,2020-05-21,10:31:55,10:51:57,NA,incomplete,167,filling,0,right,Green_Circle_Stripes_4.jpg,Red_Star_Grid_4.jpg,Blue_Triangle_Stripes_3.jpg,right,82.64499999489635,true,high,NA,NA,NA,NA,NA,NA,NA,false
fTAHd4pF,3dzkabx20liukfefnqxhosng7x6cv3,3hhragryxcizjhw91w6eguorrfqo9j,fTAHd4pF,2020-0188,2020-05-21,10:31:55,10:51:57,NA,incomplete,168,filling,1,left,Blue_Star_Stripes_1.jpg,Green_Triangle_Stripes_4.jpg,Purple_Circle_Grid_1.jpg,left,94.75500000559259,true,high,NA,NA,NA,NA,NA,NA,NA,false
fTAHd4pF,3dzkabx20liukfefnqxhosng7x6cv3,3hhragryxcizjhw91w6eguorrfqo9j,fTAHd4pF,2020-0188,2020-05-21,10:31:55,10:51:57,NA,incomplete,169,filling,0,left,Purple_Plus_Chess_3.jpg,Red_Triangle_Chess_2.jpg,Blue_Circle_Stripes_3.jpg,left,101.1099999959115,true,high,NA,NA,NA,NA,NA,NA,NA,false
fTAHd4pF,3dzkabx20liukfefnqxhosng7x6cv3,3hhragryxcizjhw91w6eguorrfqo9j,fTAHd4pF,2020-0188,2020-05-21,10:31:55,10:51:57,NA,incomplete,170,filling,1,right,Green_Plus_Chess_3.jpg,Purple_Star_Stripes_3.jpg,Blue_Triangle_Chess_2.jpg,left,125.1750000010943,false,high,NA,NA,NA,NA,NA,NA,NA,false
fTAHd4pF,3dzkabx20liukfefnqxhosng7x6cv3,3hhragryxcizjhw91w6eguorrfqo9j,fTAHd4pF,2020-0188,2020-05-21,10:31:55,10:51:57,NA,incomplete,171,filling,1,right,Purple_Circle_Stripes_1.jpg,Green_Triangle_Chess_1.jpg,Blue_Plus_Stripes_4.jpg,right,48.23500000196509,true,high,NA,NA,NA,NA,NA,NA,NA,false
fTAHd4pF,3dzkabx20liukfefnqxhosng7x6cv3,3hhragryxcizjhw91w6eguorrfqo9j,fTAHd4pF,2020-0188,2020-05-21,10:31:55,10:51:57,NA,incomplete,172,filling,1,left,Purple_Circle_Dots_2.jpg,Red_Plus_Dots_4.jpg,Blue_Star_Grid_2.jpg,right,90.34500000416301,false,high,NA,NA,NA,NA,NA,NA,NA,false
fTAHd4pF,3dzkabx20liukfefnqxhosng7x6cv3,3hhragryxcizjhw91w6eguorrfqo9j,fTAHd4pF,2020-0188,2020-05-21,10:31:55,10:51:57,NA,incomplete,173,filling,1,right,Red_Plus_Grid_4.jpg,Purple_Star_Chess_4.jpg,Blue_Triangle_Grid_2.jpg,right,103.15999999875203,true,high,NA,NA,NA,NA,NA,NA,NA,false
fTAHd4pF,3dzkabx20liukfefnqxhosng7x6cv3,3hhragryxcizjhw91w6eguorrfqo9j,fTAHd4pF,2020-0188,2020-05-21,10:31:55,10:51:57,NA,incomplete,174,filling,1,left,Red_Circle_Grid_3.jpg,Purple_Plus_Grid_4.jpg,Blue_Star_Chess_3.jpg,right,48.97499999799766,false,high,NA,NA,NA,NA,NA,NA,NA,false
fTAHd4pF,3dzkabx20liukfefnqxhosng7x6cv3,3hhragryxcizjhw91w6eguorrfqo9j,fTAHd4pF,2020-0188,2020-05-21,10:31:55,10:51:57,NA,incomplete,175,filling,0,right,Purple_Triangle_Dots_3.jpg,Green_Star_Chess_3.jpg,Blue_Plus_Dots_2.jpg,right,52.4500000027474,true,high,NA,NA,NA,NA,NA,NA,NA,false
fTAHd4pF,3dzkabx20liukfefnqxhosng7x6cv3,3hhragryxcizjhw91w6eguorrfqo9j,fTAHd4pF,2020-0188,2020-05-21,10:31:55,10:51:57,NA,incomplete,176,filling,1,left,Blue_Triangle_Stripes_1.jpg,Purple_Plus_Stripes_3.jpg,Red_Star_Grid_1.jpg,right,131.80999999889173,false,high,NA,NA,NA,NA,NA,NA,NA,false
fTAHd4pF,3dzkabx20liukfefnqxhosng7x6cv3,3hhragryxcizjhw91w6eguorrfqo9j,fTAHd4pF,2020-0188,2020-05-21,10:31:55,10:51:57,NA,incomplete,177,filling,1,right,Red_Circle_Stripes_2.jpg,Purple_Star_Dots_2.jpg,Green_Triangle_Stripes_4.jpg,right,77.65500000095926,true,high,NA,NA,NA,NA,NA,NA,NA,false
fTAHd4pF,3dzkabx20liukfefnqxhosng7x6cv3,3hhragryxcizjhw91w6eguorrfqo9j,fTAHd4pF,2020-0188,2020-05-21,10:31:55,10:51:57,NA,incomplete,178,filling,1,left,Red_Circle_Grid_3.jpg,Blue_Plus_Grid_2.jpg,Green_Star_Chess_3.jpg,right,90.86000000394415,false,high,NA,NA,NA,NA,NA,NA,NA,false
fTAHd4pF,3dzkabx20liukfefnqxhosng7x6cv3,3hhragryxcizjhw91w6eguorrfqo9j,fTAHd4pF,2020-0188,2020-05-21,10:31:55,10:51:57,NA,incomplete,179,filling,0,right,Blue_Plus_Dots_2.jpg,Purple_Triangle_Stripes_2.jpg,Green_Circle_Dots_1.jpg,right,151.06999999983236,true,high,NA,NA,NA,NA,NA,NA,NA,false
fTAHd4pF,3dzkabx20liukfefnqxhosng7x6cv3,3hhragryxcizjhw91w6eguorrfqo9j,fTAHd4pF,2020-0188,2020-05-21,10:31:55,10:51:57,NA,incomplete,180,number,1,right,Green_Plus_Grid_4.jpg,Purple_Circle_Grid_2.jpg,Blue_Star_Dots_4.jpg,right,74.10499999974854,true,high,NA,NA,NA,NA,NA,NA,NA,false
fTAHd4pF,3dzkabx20liukfefnqxhosng7x6cv3,3hhragryxcizjhw91w6eguorrfqo9j,fTAHd4pF,2020-0188,2020-05-21,10:31:55,10:51:57,NA,incomplete,181,number,1,right,Blue_Triangle_Grid_1.jpg,Red_Plus_Grid_2.jpg,Green_Circle_Chess_1.jpg,right,110.21999999508262,true,high,NA,NA,NA,NA,NA,NA,NA,false
fTAHd4pF,3dzkabx20liukfefnqxhosng7x6cv3,3hhragryxcizjhw91w6eguorrfqo9j,fTAHd4pF,2020-0188,2020-05-21,10:31:55,10:51:57,NA,incomplete,182,number,0,right,Green_Triangle_Chess_4.jpg,Purple_Circle_Chess_1.jpg,Red_Star_Grid_4.jpg,right,97.86500000336673,true,high,NA,NA,NA,NA,NA,NA,NA,false
fTAHd4pF,3dzkabx20liukfefnqxhosng7x6cv3,3hhragryxcizjhw91w6eguorrfqo9j,fTAHd4pF,2020-0188,2020-05-21,10:31:55,10:51:57,NA,incomplete,183,number,1,right,Red_Plus_Chess_4.jpg,Blue_Circle_Chess_3.jpg,Purple_Star_Dots_4.jpg,right,143.03999999538064,true,high,NA,NA,NA,NA,NA,NA,NA,false
fTAHd4pF,3dzkabx20liukfefnqxhosng7x6cv3,3hhragryxcizjhw91w6eguorrfqo9j,fTAHd4pF,2020-0188,2020-05-21,10:31:55,10:51:57,NA,incomplete,184,number,1,right,Blue_Star_Grid_1.jpg,Green_Triangle_Grid_3.jpg,Purple_Plus_Chess_1.jpg,right,20.57499999506399,true,high,NA,NA,NA,NA,NA,NA,NA,false
fTAHd4pF,3dzkabx20liukfefnqxhosng7x6cv3,3hhragryxcizjhw91w6eguorrfqo9j,fTAHd4pF,2020-0188,2020-05-21,10:31:55,10:51:57,NA,incomplete,185,number,1,left,Blue_Circle_Stripes_2.jpg,Green_Star_Dots_2.jpg,Purple_Plus_Stripes_1.jpg,right,138.67000000027474,false,high,NA,NA,NA,NA,NA,NA,NA,false
fTAHd4pF,3dzkabx20liukfefnqxhosng7x6cv3,3hhragryxcizjhw91w6eguorrfqo9j,fTAHd4pF,2020-0188,2020-05-21,10:31:55,10:51:57,NA,incomplete,186,number,1,left,Purple_Circle_Chess_1.jpg,Green_Plus_Dots_1.jpg,Red_Triangle_Chess_4.jpg,right,56.70000000100117,false,high,NA,NA,NA,NA,NA,NA,NA,false
fTAHd4pF,3dzkabx20liukfefnqxhosng7x6cv3,3hhragryxcizjhw91w6eguorrfqo9j,fTAHd4pF,2020-0188,2020-05-21,10:31:55,10:51:57,NA,incomplete,187,number,1,left,Blue_Plus_Stripes_1.jpg,Green_Circle_Chess_1.jpg,Red_Triangle_Stripes_3.jpg,right,146.10499999986496,false,high,NA,NA,NA,NA,NA,NA,NA,false
fTAHd4pF,3dzkabx20liukfefnqxhosng7x6cv3,3hhragryxcizjhw91w6eguorrfqo9j,fTAHd4pF,2020-0188,2020-05-21,10:31:55,10:51:57,NA,incomplete,188,number,1,right,Blue_Star_Grid_1.jpg,Green_Circle_Grid_4.jpg,Red_Plus_Dots_1.jpg,right,155.315000003553,true,high,NA,NA,NA,NA,NA,NA,NA,false
fTAHd4pF,3dzkabx20liukfefnqxhosng7x6cv3,3hhragryxcizjhw91w6eguorrfqo9j,fTAHd4pF,2020-0188,2020-05-21,10:31:55,10:51:57,NA,incomplete,189,number,1,left,Blue_Circle_Chess_2.jpg,Red_Star_Dots_2.jpg,Purple_Triangle_Chess_4.jpg,right,166.6800000021467,false,high,NA,NA,NA,NA,NA,NA,NA,false
fTAHd4pF,3dzkabx20liukfefnqxhosng7x6cv3,3hhragryxcizjhw91w6eguorrfqo9j,fTAHd4pF,2020-0188,2020-05-21,10:31:55,10:51:57,NA,incomplete,190,number,1,right,Blue_Circle_Grid_4.jpg,Red_Triangle_Grid_2.jpg,Purple_Star_Stripes_4.jpg,right,61.36500000138767,true,high,NA,NA,NA,NA,NA,NA,NA,false
fTAHd4pF,3dzkabx20liukfefnqxhosng7x6cv3,3hhragryxcizjhw91w6eguorrfqo9j,fTAHd4pF,2020-0188,2020-05-21,10:31:55,10:51:57,NA,incomplete,191,number,1,right,Blue_Circle_Grid_1.jpg,Purple_Triangle_Grid_3.jpg,Red_Plus_Chess_1.jpg,left,58.945000004256144,false,high,NA,NA,NA,NA,NA,NA,NA,false
fTAHd4pF,3dzkabx20liukfefnqxhosng7x6cv3,3hhragryxcizjhw91w6eguorrfqo9j,fTAHd4pF,2020-0188,2020-05-21,10:31:55,10:51:57,NA,incomplete,192,number,1,right,Purple_Plus_Grid_3.jpg,Green_Triangle_Grid_4.jpg,Red_Star_Stripes_3.jpg,right,49.1150000016205,true,high,NA,NA,NA,NA,NA,NA,NA,false
fTAHd4pF,3dzkabx20liukfefnqxhosng7x6cv3,3hhragryxcizjhw91w6eguorrfqo9j,fTAHd4pF,2020-0188,2020-05-21,10:31:55,10:51:57,NA,incomplete,193,number,1,left,Green_Triangle_Stripes_4.jpg,Blue_Star_Grid_4.jpg,Red_Plus_Stripes_3.jpg,left,119.77499999920838,true,high,NA,NA,NA,NA,NA,NA,NA,false
fTAHd4pF,3dzkabx20liukfefnqxhosng7x6cv3,3hhragryxcizjhw91w6eguorrfqo9j,fTAHd4pF,2020-0188,2020-05-21,10:31:55,10:51:57,NA,incomplete,194,number,1,right,Green_Triangle_Dots_1.jpg,Blue_Circle_Dots_2.jpg,Purple_Star_Grid_1.jpg,left,65.59499999997206,false,high,NA,NA,NA,NA,NA,NA,NA,false
fTAHd4pF,3dzkabx20liukfefnqxhosng7x6cv3,3hhragryxcizjhw91w6eguorrfqo9j,fTAHd4pF,2020-0188,2020-05-21,10:31:55,10:51:57,NA,incomplete,195,number,0,left,Red_Star_Dots_3.jpg,Purple_Triangle_Stripes_3.jpg,Blue_Plus_Dots_2.jpg,right,218.47500000149012,false,high,NA,NA,NA,NA,NA,NA,NA,false
fTAHd4pF,3dzkabx20liukfefnqxhosng7x6cv3,3hhragryxcizjhw91w6eguorrfqo9j,fTAHd4pF,2020-0188,2020-05-21,10:31:55,10:51:57,NA,incomplete,196,number,1,left,Blue_Plus_Chess_2.jpg,Red_Circle_Stripes_2.jpg,Purple_Triangle_Chess_1.jpg,left,241.97500000451691,true,high,NA,NA,NA,NA,NA,NA,NA,false
fTAHd4pF,3dzkabx20liukfefnqxhosng7x6cv3,3hhragryxcizjhw91w6eguorrfqo9j,fTAHd4pF,2020-0188,2020-05-21,10:31:55,10:51:57,NA,incomplete,197,number,1,left,Purple_Circle_Chess_2.jpg,Red_Plus_Dots_2.jpg,Green_Star_Chess_4.jpg,left,173.83499999414198,true,high,NA,NA,NA,NA,NA,NA,NA,false
fTAHd4pF,3dzkabx20liukfefnqxhosng7x6cv3,3hhragryxcizjhw91w6eguorrfqo9j,fTAHd4pF,2020-0188,2020-05-21,10:31:55,10:51:57,NA,incomplete,198,number,1,left,Green_Circle_Dots_1.jpg,Blue_Triangle_Chess_1.jpg,Red_Plus_Dots_2.jpg,left,230.92499999632128,true,high,NA,NA,NA,NA,NA,NA,NA,false
fTAHd4pF,3dzkabx20liukfefnqxhosng7x6cv3,3hhragryxcizjhw91w6eguorrfqo9j,fTAHd4pF,2020-0188,2020-05-21,10:31:55,10:51:57,NA,incomplete,199,number,1,right,Purple_Star_Chess_2.jpg,Blue_Plus_Chess_4.jpg,Green_Triangle_Stripes_2.jpg,left,166.38000000244938,false,high,NA,NA,NA,NA,NA,NA,NA,false
fTAHd4pF,3dzkabx20liukfefnqxhosng7x6cv3,3hhragryxcizjhw91w6eguorrfqo9j,fTAHd4pF,2020-0188,2020-05-21,10:31:55,10:51:57,NA,incomplete,200,filling,0,right,Green_Star_Stripes_1.jpg,Blue_Triangle_Dots_1.jpg,Red_Plus_Stripes_4.jpg,right,4.464999998221174,true,high,NA,NA,NA,NA,NA,NA,NA,false
fTAHd4pF,3dzkabx20liukfefnqxhosng7x6cv3,3hhragryxcizjhw91w6eguorrfqo9j,fTAHd4pF,2020-0188,2020-05-21,10:31:55,10:51:57,NA,incomplete,201,filling,1,right,Blue_Circle_Chess_3.jpg,Green_Star_Grid_3.jpg,Red_Triangle_Chess_1.jpg,left,240.0199999974575,false,high,NA,NA,NA,NA,NA,NA,NA,false
fTAHd4pF,3dzkabx20liukfefnqxhosng7x6cv3,3hhragryxcizjhw91w6eguorrfqo9j,fTAHd4pF,2020-0188,2020-05-21,10:31:55,10:51:57,NA,incomplete,202,filling,1,left,Blue_Star_Chess_4.jpg,Red_Triangle_Chess_3.jpg,Green_Circle_Dots_4.jpg,left,273.01499999896623,true,high,NA,NA,NA,NA,NA,NA,NA,false
fTAHd4pF,3dzkabx20liukfefnqxhosng7x6cv3,3hhragryxcizjhw91w6eguorrfqo9j,fTAHd4pF,2020-0188,2020-05-21,10:31:55,10:51:57,NA,incomplete,203,filling,1,right,Blue_Plus_Chess_2.jpg,Purple_Triangle_Stripes_2.jpg,Red_Star_Chess_4.jpg,left,284.5050000033807,false,high,NA,NA,NA,NA,NA,NA,NA,false
fTAHd4pF,3dzkabx20liukfefnqxhosng7x6cv3,3hhragryxcizjhw91w6eguorrfqo9j,fTAHd4pF,2020-0188,2020-05-21,10:31:55,10:51:57,NA,incomplete,204,filling,1,right,Green_Plus_Chess_3.jpg,Red_Star_Stripes_3.jpg,Blue_Triangle_Chess_1.jpg,right,290.26500000339,true,high,NA,NA,NA,NA,NA,NA,NA,false
fTAHd4pF,3dzkabx20liukfefnqxhosng7x6cv3,3hhragryxcizjhw91w6eguorrfqo9j,fTAHd4pF,2020-0188,2020-05-21,10:31:55,10:51:57,NA,incomplete,205,filling,1,right,Red_Circle_Chess_2.jpg,Blue_Triangle_Dots_2.jpg,Green_Plus_Chess_1.jpg,left,260.72500000009313,false,high,NA,NA,NA,NA,NA,NA,NA,false
fTAHd4pF,3dzkabx20liukfefnqxhosng7x6cv3,3hhragryxcizjhw91w6eguorrfqo9j,fTAHd4pF,2020-0188,2020-05-21,10:31:55,10:51:57,NA,incomplete,206,filling,0,left,Purple_Plus_Dots_4.jpg,Red_Circle_Dots_3.jpg,Blue_Star_Grid_4.jpg,right,366.900000001071,false,high,NA,NA,NA,NA,NA,NA,NA,false
fTAHd4pF,3dzkabx20liukfefnqxhosng7x6cv3,3hhragryxcizjhw91w6eguorrfqo9j,fTAHd4pF,2020-0188,2020-05-21,10:31:55,10:51:57,NA,incomplete,207,filling,1,left,Purple_Triangle_Grid_2.jpg,Blue_Star_Grid_1.jpg,Green_Plus_Stripes_2.jpg,left,494.32000000518747,true,high,NA,NA,NA,NA,NA,NA,NA,false
fTAHd4pF,3dzkabx20liukfefnqxhosng7x6cv3,3hhragryxcizjhw91w6eguorrfqo9j,fTAHd4pF,2020-0188,2020-05-21,10:31:55,10:51:57,NA,incomplete,208,filling,0,left,Red_Plus_Stripes_3.jpg,Blue_Star_Stripes_1.jpg,Green_Circle_Chess_3.jpg,right,638.6100000017323,false,high,NA,NA,NA,NA,NA,NA,NA,false
fTAHd4pF,3dzkabx20liukfefnqxhosng7x6cv3,3hhragryxcizjhw91w6eguorrfqo9j,fTAHd4pF,2020-0188,2020-05-21,10:31:55,10:51:57,NA,incomplete,209,filling,1,left,Blue_Triangle_Chess_1.jpg,Purple_Star_Chess_2.jpg,Red_Circle_Dots_1.jpg,right,786.7649999971036,false,high,NA,NA,NA,NA,NA,NA,NA,false
fTAHd4pF,3dzkabx20liukfefnqxhosng7x6cv3,3hhragryxcizjhw91w6eguorrfqo9j,fTAHd4pF,2020-0188,2020-05-21,10:31:55,10:51:57,NA,incomplete,210,filling,0,left,Blue_Star_Chess_3.jpg,Red_Circle_Chess_2.jpg,Green_Plus_Stripes_3.jpg,left,816.3300000014715,true,high,NA,NA,NA,NA,NA,NA,NA,false
fTAHd4pF,3dzkabx20liukfefnqxhosng7x6cv3,3hhragryxcizjhw91w6eguorrfqo9j,fTAHd4pF,2020-0188,2020-05-21,10:31:55,10:51:57,NA,incomplete,211,filling,1,left,Blue_Triangle_Chess_2.jpg,Purple_Star_Chess_4.jpg,Green_Plus_Grid_2.jpg,right,634.0399999972433,false,high,NA,NA,NA,NA,NA,NA,NA,false
fTAHd4pF,3dzkabx20liukfefnqxhosng7x6cv3,3hhragryxcizjhw91w6eguorrfqo9j,fTAHd4pF,2020-0188,2020-05-21,10:31:55,10:51:57,NA,incomplete,212,filling,1,right,Green_Triangle_Stripes_1.jpg,Red_Plus_Grid_1.jpg,Purple_Circle_Stripes_2.jpg,left,326.779999995837,false,high,NA,NA,NA,NA,NA,NA,NA,false
fTAHd4pF,3dzkabx20liukfefnqxhosng7x6cv3,3hhragryxcizjhw91w6eguorrfqo9j,fTAHd4pF,2020-0188,2020-05-21,10:31:55,10:51:57,NA,incomplete,213,filling,1,left,Red_Triangle_Grid_3.jpg,Blue_Plus_Grid_2.jpg,Green_Circle_Stripes_3.jpg,right,153.59000000171363,false,high,NA,NA,NA,NA,NA,NA,NA,false
fTAHd4pF,3dzkabx20liukfefnqxhosng7x6cv3,3hhragryxcizjhw91w6eguorrfqo9j,fTAHd4pF,2020-0188,2020-05-21,10:31:55,10:51:57,NA,incomplete,214,filling,1,right,Red_Plus_Chess_2.jpg,Green_Circle_Stripes_2.jpg,Purple_Star_Chess_4.jpg,right,90.62499999720603,true,high,NA,NA,NA,NA,NA,NA,NA,false
fTAHd4pF,3dzkabx20liukfefnqxhosng7x6cv3,3hhragryxcizjhw91w6eguorrfqo9j,fTAHd4pF,2020-0188,2020-05-21,10:31:55,10:51:57,NA,incomplete,215,filling,1,left,Red_Circle_Dots_4.jpg,Purple_Triangle_Dots_3.jpg,Blue_Star_Stripes_4.jpg,left,25.519999995827675,true,high,NA,NA,NA,NA,NA,NA,NA,false
fTAHd4pF,3dzkabx20liukfefnqxhosng7x6cv3,3hhragryxcizjhw91w6eguorrfqo9j,fTAHd4pF,2020-0188,2020-05-21,10:31:55,10:51:57,NA,incomplete,216,filling,1,left,Blue_Circle_Chess_4.jpg,Purple_Plus_Chess_3.jpg,Red_Triangle_Dots_4.jpg,right,117.81999999959953,false,high,NA,NA,NA,NA,NA,NA,NA,false
fTAHd4pF,3dzkabx20liukfefnqxhosng7x6cv3,3hhragryxcizjhw91w6eguorrfqo9j,fTAHd4pF,2020-0188,2020-05-21,10:31:55,10:51:57,NA,incomplete,217,filling,1,right,Blue_Triangle_Dots_4.jpg,Red_Star_Chess_4.jpg,Purple_Plus_Dots_3.jpg,left,491.4549999956507,false,high,NA,NA,NA,NA,NA,NA,NA,false
fTAHd4pF,3dzkabx20liukfefnqxhosng7x6cv3,3hhragryxcizjhw91w6eguorrfqo9j,fTAHd4pF,2020-0188,2020-05-21,10:31:55,10:51:57,NA,incomplete,218,filling,1,right,Blue_Triangle_Stripes_2.jpg,Red_Plus_Chess_2.jpg,Green_Circle_Stripes_4.jpg,left,256.115000003716,false,high,NA,NA,NA,NA,NA,NA,NA,false
fTAHd4pF,3dzkabx20liukfefnqxhosng7x6cv3,3hhragryxcizjhw91w6eguorrfqo9j,fTAHd4pF,2020-0188,2020-05-21,10:31:55,10:51:57,NA,incomplete,219,filling,0,right,Green_Circle_Stripes_3.jpg,Red_Triangle_Chess_3.jpg,Purple_Star_Stripes_4.jpg,right,353.3650000025518,true,high,NA,NA,NA,NA,NA,NA,NA,false
fTAHd4pF,3dzkabx20liukfefnqxhosng7x6cv3,3hhragryxcizjhw91w6eguorrfqo9j,fTAHd4pF,2020-0188,2020-05-21,10:31:55,10:51:57,NA,incomplete,220,number,1,right,Green_Star_Dots_2.jpg,Purple_Plus_Dots_3.jpg,Red_Circle_Grid_2.jpg,right,510.28999999840744,true,high,NA,NA,NA,NA,NA,NA,NA,false
fTAHd4pF,3dzkabx20liukfefnqxhosng7x6cv3,3hhragryxcizjhw91w6eguorrfqo9j,fTAHd4pF,2020-0188,2020-05-21,10:31:55,10:51:57,NA,incomplete,221,number,1,left,Purple_Star_Stripes_3.jpg,Green_Circle_Dots_3.jpg,Red_Triangle_Stripes_2.jpg,left,613.5500000019092,true,high,NA,NA,NA,NA,NA,NA,NA,false
fTAHd4pF,3dzkabx20liukfefnqxhosng7x6cv3,3hhragryxcizjhw91w6eguorrfqo9j,fTAHd4pF,2020-0188,2020-05-21,10:31:55,10:51:57,NA,incomplete,222,number,1,right,Blue_Star_Stripes_4.jpg,Purple_Circle_Stripes_2.jpg,Red_Plus_Chess_4.jpg,right,692.6949999979697,true,high,NA,NA,NA,NA,NA,NA,NA,false
fTAHd4pF,3dzkabx20liukfefnqxhosng7x6cv3,3hhragryxcizjhw91w6eguorrfqo9j,fTAHd4pF,2020-0188,2020-05-21,10:31:55,10:51:57,NA,incomplete,223,number,1,left,Green_Plus_Chess_1.jpg,Purple_Circle_Grid_1.jpg,Red_Star_Chess_2.jpg,left,742.2949999962002,true,high,NA,NA,NA,NA,NA,NA,NA,false
fTAHd4pF,3dzkabx20liukfefnqxhosng7x6cv3,3hhragryxcizjhw91w6eguorrfqo9j,fTAHd4pF,2020-0188,2020-05-21,10:31:55,10:51:57,NA,incomplete,224,number,1,right,Green_Circle_Grid_2.jpg,Purple_Star_Grid_3.jpg,Blue_Plus_Stripes_2.jpg,right,539.7000000011176,true,high,NA,NA,NA,NA,NA,NA,NA,false
fTAHd4pF,3dzkabx20liukfefnqxhosng7x6cv3,3hhragryxcizjhw91w6eguorrfqo9j,fTAHd4pF,2020-0188,2020-05-21,10:31:55,10:51:57,NA,incomplete,225,number,1,right,Purple_Star_Stripes_2.jpg,Blue_Triangle_Stripes_4.jpg,Green_Circle_Dots_2.jpg,right,728.7649999998976,true,high,NA,NA,NA,NA,NA,NA,NA,false
fTAHd4pF,3dzkabx20liukfefnqxhosng7x6cv3,3hhragryxcizjhw91w6eguorrfqo9j,fTAHd4pF,2020-0188,2020-05-21,10:31:55,10:51:57,NA,incomplete,226,number,1,left,Green_Star_Chess_4.jpg,Purple_Circle_Stripes_4.jpg,Blue_Triangle_Chess_1.jpg,right,622.6049999967217,false,high,NA,NA,NA,NA,NA,NA,NA,false
fTAHd4pF,3dzkabx20liukfefnqxhosng7x6cv3,3hhragryxcizjhw91w6eguorrfqo9j,fTAHd4pF,2020-0188,2020-05-21,10:31:55,10:51:57,NA,incomplete,227,number,1,right,Green_Plus_Grid_1.jpg,Red_Star_Grid_2.jpg,Purple_Triangle_Dots_1.jpg,right,430.56500000250526,true,high,NA,NA,NA,NA,NA,NA,NA,false
fTAHd4pF,3dzkabx20liukfefnqxhosng7x6cv3,3hhragryxcizjhw91w6eguorrfqo9j,fTAHd4pF,2020-0188,2020-05-21,10:31:55,10:51:57,NA,incomplete,228,number,0,right,Red_Plus_Chess_2.jpg,Blue_Triangle_Chess_4.jpg,Green_Star_Stripes_2.jpg,right,727.2200000006706,true,high,NA,NA,NA,NA,NA,NA,NA,false
fTAHd4pF,3dzkabx20liukfefnqxhosng7x6cv3,3hhragryxcizjhw91w6eguorrfqo9j,fTAHd4pF,2020-0188,2020-05-21,10:31:55,10:51:57,NA,incomplete,229,number,1,right,Purple_Plus_Dots_2.jpg,Green_Triangle_Dots_3.jpg,Red_Circle_Chess_2.jpg,right,595.9799999981187,true,high,NA,NA,NA,NA,NA,NA,NA,false
fTAHd4pF,3dzkabx20liukfefnqxhosng7x6cv3,3hhragryxcizjhw91w6eguorrfqo9j,fTAHd4pF,2020-0188,2020-05-21,10:31:55,10:51:57,NA,incomplete,230,number,1,right,Purple_Triangle_Chess_4.jpg,Green_Circle_Chess_3.jpg,Red_Star_Dots_4.jpg,right,804.5750000018161,true,high,NA,NA,NA,NA,NA,NA,NA,false
fTAHd4pF,3dzkabx20liukfefnqxhosng7x6cv3,3hhragryxcizjhw91w6eguorrfqo9j,fTAHd4pF,2020-0188,2020-05-21,10:31:55,10:51:57,NA,incomplete,231,number,0,left,Blue_Triangle_Chess_4.jpg,Red_Circle_Grid_4.jpg,Purple_Plus_Chess_3.jpg,right,815.1250000009313,false,high,NA,NA,NA,NA,NA,NA,NA,false
fTAHd4pF,3dzkabx20liukfefnqxhosng7x6cv3,3hhragryxcizjhw91w6eguorrfqo9j,fTAHd4pF,2020-0188,2020-05-21,10:31:55,10:51:57,NA,incomplete,232,number,1,left,Purple_Triangle_Stripes_2.jpg,Red_Circle_Chess_2.jpg,Green_Star_Stripes_3.jpg,right,807.5900000040419,false,high,NA,NA,NA,NA,NA,NA,NA,false
fTAHd4pF,3dzkabx20liukfefnqxhosng7x6cv3,3hhragryxcizjhw91w6eguorrfqo9j,fTAHd4pF,2020-0188,2020-05-21,10:31:55,10:51:57,NA,incomplete,233,number,0,left,Green_Plus_Stripes_1.jpg,Purple_Triangle_Grid_1.jpg,Blue_Circle_Stripes_4.jpg,right,720.6149999983609,false,high,NA,NA,NA,NA,NA,NA,NA,false
fTAHd4pF,3dzkabx20liukfefnqxhosng7x6cv3,3hhragryxcizjhw91w6eguorrfqo9j,fTAHd4pF,2020-0188,2020-05-21,10:31:55,10:51:57,NA,incomplete,234,number,1,right,Purple_Circle_Stripes_3.jpg,Blue_Triangle_Stripes_1.jpg,Red_Star_Dots_3.jpg,left,607.884999997681,false,high,NA,NA,NA,NA,NA,NA,NA,false
fTAHd4pF,3dzkabx20liukfefnqxhosng7x6cv3,3hhragryxcizjhw91w6eguorrfqo9j,fTAHd4pF,2020-0188,2020-05-21,10:31:55,10:51:57,NA,incomplete,235,number,1,left,Red_Circle_Dots_1.jpg,Purple_Triangle_Stripes_1.jpg,Blue_Star_Dots_2.jpg,right,479.8950000042096,false,high,NA,NA,NA,NA,NA,NA,NA,false
fTAHd4pF,3dzkabx20liukfefnqxhosng7x6cv3,3hhragryxcizjhw91w6eguorrfqo9j,fTAHd4pF,2020-0188,2020-05-21,10:31:55,10:51:57,NA,incomplete,236,number,0,right,Red_Triangle_Chess_1.jpg,Purple_Circle_Chess_3.jpg,Blue_Star_Grid_1.jpg,right,483.9450000000652,true,high,NA,NA,NA,NA,NA,NA,NA,false
fTAHd4pF,3dzkabx20liukfefnqxhosng7x6cv3,3hhragryxcizjhw91w6eguorrfqo9j,fTAHd4pF,2020-0188,2020-05-21,10:31:55,10:51:57,NA,incomplete,237,number,1,left,Green_Star_Dots_1.jpg,Purple_Circle_Grid_1.jpg,Red_Plus_Dots_3.jpg,right,458.1949999993667,false,high,NA,NA,NA,NA,NA,NA,NA,false
fTAHd4pF,3dzkabx20liukfefnqxhosng7x6cv3,3hhragryxcizjhw91w6eguorrfqo9j,fTAHd4pF,2020-0188,2020-05-21,10:31:55,10:51:57,NA,incomplete,238,number,1,right,Green_Star_Dots_3.jpg,Purple_Circle_Dots_2.jpg,Blue_Triangle_Chess_3.jpg,left,634.5000000002328,false,high,NA,NA,NA,NA,NA,NA,NA,false
fTAHd4pF,3dzkabx20liukfefnqxhosng7x6cv3,3hhragryxcizjhw91w6eguorrfqo9j,fTAHd4pF,2020-0188,2020-05-21,10:31:55,10:51:57,NA,incomplete,239,number,1,right,Blue_Triangle_Dots_1.jpg,Purple_Star_Dots_3.jpg,Red_Plus_Grid_1.jpg,left,400.2299999995157,false,high,NA,NA,NA,NA,NA,NA,NA,false
fTAHd4pF,3dzkabx20liukfefnqxhosng7x6cv3,3hhragryxcizjhw91w6eguorrfqo9j,fTAHd4pF,2020-0188,2020-05-21,10:31:55,10:51:57,NA,NA,instruction example,color,NA,NA,Purple_Triangle_Stripes_4.jpg,Purple_Circle_Grid_1.jpg,Red_Triangle_Chess_3.jpg,NA,NA,NA,NA,NA,NA,NA,NA,NA,NA,NA,undefined
fTAHd4pF,3dzkabx20liukfefnqxhosng7x6cv3,3hhragryxcizjhw91w6eguorrfqo9j,fTAHd4pF,2020-0188,2020-05-21,10:31:55,10:51:57,NA,NA,instruction example,color,NA,NA,Blue_Star_Grid_2.jpg,Red_Star_Chess_3.jpg,Blue_Plus_Dots_4.jpg,NA,NA,NA,NA,NA,NA,NA,NA,NA,NA,NA,undefined
fTAHd4pF,3dzkabx20liukfefnqxhosng7x6cv3,3hhragryxcizjhw91w6eguorrfqo9j,fTAHd4pF,2020-0188,2020-05-21,10:31:55,10:51:57,NA,NA,instruction example,color,NA,NA,Purple_Star_Dots_4.jpg,Blue_Triangle_Dots_1.jpg,Red_Circle_Grid_4.jpg,NA,NA,NA,NA,NA,NA,NA,NA,NA,NA,NA,undefined
fTAHd4pF,3dzkabx20liukfefnqxhosng7x6cv3,3hhragryxcizjhw91w6eguorrfqo9j,fTAHd4pF,2020-0188,2020-05-21,10:31:55,10:51:57,NA,NA,instruction example,color,NA,NA,Purple_Circle_Dots_4.jpg,Red_Star_Chess_4.jpg,Green_Triangle_Dots_3.jpg,NA,NA,NA,NA,NA,NA,NA,NA,NA,NA,NA,undefined
fTAHd4pF,3dzkabx20liukfefnqxhosng7x6cv3,3hhragryxcizjhw91w6eguorrfqo9j,fTAHd4pF,2020-0188,2020-05-21,10:31:55,10:51:57,1146862.285000003,1206006.3100000042,NA,NA,NA,NA,NA,NA,NA,NA,NA,NA,NA,25,White/Caucasian,Male,White,no,no,no,undefined
