workerId,hitId,assignmentId,subject,studyid,exp_date,exp_start,exp_end,time_start,time_end,trial,type,reward_validity,answer,image_top,image_left,image_right,response,response_time,response_acc,volatility,age,race,gender,ethnicity,color,vision,neuro,practice
AXDgRPZX,3j6bhnx0vc5zv8hudcso2u6bq3dnka,3itxp059p0w3nl1bupe0ptcvk9isjs,AXDgRPZX,2020-0188,2020-05-21,11:25:59,11:54:38,NA,incomplete,0,number,0,right,Blue_Circle_Dots_4.jpg,Green_Plus_Dots_2.jpg,Red_Star_Stripes_4.jpg,left,1902.399999962654,false,NA,NA,NA,NA,NA,NA,NA,NA,true
AXDgRPZX,3j6bhnx0vc5zv8hudcso2u6bq3dnka,3itxp059p0w3nl1bupe0ptcvk9isjs,AXDgRPZX,2020-0188,2020-05-21,11:25:59,11:54:38,NA,incomplete,1,number,1,right,Purple_Circle_Grid_1.jpg,Blue_Triangle_Grid_3.jpg,Red_Star_Stripes_1.jpg,right,1119.1950000356883,true,NA,NA,NA,NA,NA,NA,NA,NA,true
AXDgRPZX,3j6bhnx0vc5zv8hudcso2u6bq3dnka,3itxp059p0w3nl1bupe0ptcvk9isjs,AXDgRPZX,2020-0188,2020-05-21,11:25:59,11:54:38,NA,incomplete,2,number,1,right,Red_Plus_Dots_1.jpg,Purple_Triangle_Dots_3.jpg,Green_Star_Chess_1.jpg,right,1121.1950000142679,true,NA,NA,NA,NA,NA,NA,NA,NA,true
AXDgRPZX,3j6bhnx0vc5zv8hudcso2u6bq3dnka,3itxp059p0w3nl1bupe0ptcvk9isjs,AXDgRPZX,2020-0188,2020-05-21,11:25:59,11:54:38,NA,incomplete,3,number,1,left,Red_Triangle_Stripes_3.jpg,Green_Plus_Dots_3.jpg,Blue_Star_Stripes_1.jpg,left,927.5149999884889,true,NA,NA,NA,NA,NA,NA,NA,NA,true
AXDgRPZX,3j6bhnx0vc5zv8hudcso2u6bq3dnka,3itxp059p0w3nl1bupe0ptcvk9isjs,AXDgRPZX,2020-0188,2020-05-21,11:25:59,11:54:38,NA,incomplete,4,number,1,right,Purple_Star_Dots_3.jpg,Green_Plus_Dots_4.jpg,Red_Triangle_Stripes_3.jpg,right,860.2299999911338,true,NA,NA,NA,NA,NA,NA,NA,NA,true
AXDgRPZX,3j6bhnx0vc5zv8hudcso2u6bq3dnka,3itxp059p0w3nl1bupe0ptcvk9isjs,AXDgRPZX,2020-0188,2020-05-21,11:25:59,11:54:38,NA,incomplete,5,number,1,right,Blue_Triangle_Stripes_4.jpg,Green_Plus_Stripes_2.jpg,Red_Star_Chess_4.jpg,right,886.9449999765493,true,NA,NA,NA,NA,NA,NA,NA,NA,true
AXDgRPZX,3j6bhnx0vc5zv8hudcso2u6bq3dnka,3itxp059p0w3nl1bupe0ptcvk9isjs,AXDgRPZX,2020-0188,2020-05-21,11:25:59,11:54:38,NA,incomplete,6,number,1,right,Purple_Triangle_Grid_4.jpg,Red_Plus_Grid_3.jpg,Green_Circle_Chess_4.jpg,right,743.7499999650754,true,NA,NA,NA,NA,NA,NA,NA,NA,true
AXDgRPZX,3j6bhnx0vc5zv8hudcso2u6bq3dnka,3itxp059p0w3nl1bupe0ptcvk9isjs,AXDgRPZX,2020-0188,2020-05-21,11:25:59,11:54:38,NA,incomplete,7,number,1,left,Blue_Triangle_Grid_2.jpg,Green_Circle_Dots_2.jpg,Purple_Plus_Grid_4.jpg,left,1163.3350000483915,true,NA,NA,NA,NA,NA,NA,NA,NA,true
AXDgRPZX,3j6bhnx0vc5zv8hudcso2u6bq3dnka,3itxp059p0w3nl1bupe0ptcvk9isjs,AXDgRPZX,2020-0188,2020-05-21,11:25:59,11:54:38,NA,incomplete,8,number,1,left,Blue_Plus_Chess_3.jpg,Green_Star_Stripes_3.jpg,Red_Circle_Chess_2.jpg,left,1060.7350000063889,true,NA,NA,NA,NA,NA,NA,NA,NA,true
AXDgRPZX,3j6bhnx0vc5zv8hudcso2u6bq3dnka,3itxp059p0w3nl1bupe0ptcvk9isjs,AXDgRPZX,2020-0188,2020-05-21,11:25:59,11:54:38,NA,incomplete,9,number,0,right,Red_Circle_Grid_2.jpg,Green_Plus_Grid_1.jpg,Blue_Star_Chess_2.jpg,right,1157.4049999471754,true,NA,NA,NA,NA,NA,NA,NA,NA,true
AXDgRPZX,3j6bhnx0vc5zv8hudcso2u6bq3dnka,3itxp059p0w3nl1bupe0ptcvk9isjs,AXDgRPZX,2020-0188,2020-05-21,11:25:59,11:54:38,NA,incomplete,10,number,1,right,Green_Circle_Stripes_3.jpg,Purple_Plus_Stripes_2.jpg,Blue_Triangle_Grid_3.jpg,right,939.8550000041723,true,NA,NA,NA,NA,NA,NA,NA,NA,true
AXDgRPZX,3j6bhnx0vc5zv8hudcso2u6bq3dnka,3itxp059p0w3nl1bupe0ptcvk9isjs,AXDgRPZX,2020-0188,2020-05-21,11:25:59,11:54:38,NA,incomplete,11,number,1,left,Green_Plus_Stripes_4.jpg,Red_Circle_Grid_4.jpg,Blue_Star_Stripes_1.jpg,left,827.820000005886,true,NA,NA,NA,NA,NA,NA,NA,NA,true
AXDgRPZX,3j6bhnx0vc5zv8hudcso2u6bq3dnka,3itxp059p0w3nl1bupe0ptcvk9isjs,AXDgRPZX,2020-0188,2020-05-21,11:25:59,11:54:38,NA,incomplete,12,number,1,left,Purple_Triangle_Chess_3.jpg,Green_Plus_Grid_3.jpg,Red_Circle_Chess_2.jpg,left,1150.9150000056252,true,NA,NA,NA,NA,NA,NA,NA,NA,true
AXDgRPZX,3j6bhnx0vc5zv8hudcso2u6bq3dnka,3itxp059p0w3nl1bupe0ptcvk9isjs,AXDgRPZX,2020-0188,2020-05-21,11:25:59,11:54:38,NA,incomplete,13,number,1,left,Green_Circle_Dots_1.jpg,Red_Star_Grid_1.jpg,Blue_Plus_Dots_3.jpg,left,764.08499997342,true,NA,NA,NA,NA,NA,NA,NA,NA,true
AXDgRPZX,3j6bhnx0vc5zv8hudcso2u6bq3dnka,3itxp059p0w3nl1bupe0ptcvk9isjs,AXDgRPZX,2020-0188,2020-05-21,11:25:59,11:54:38,NA,incomplete,14,number,1,right,Green_Plus_Grid_4.jpg,Red_Star_Grid_2.jpg,Purple_Triangle_Stripes_4.jpg,right,802.3549999925308,true,NA,NA,NA,NA,NA,NA,NA,NA,true
AXDgRPZX,3j6bhnx0vc5zv8hudcso2u6bq3dnka,3itxp059p0w3nl1bupe0ptcvk9isjs,AXDgRPZX,2020-0188,2020-05-21,11:25:59,11:54:38,NA,incomplete,15,number,1,left,Blue_Plus_Dots_2.jpg,Green_Triangle_Stripes_2.jpg,Red_Circle_Dots_4.jpg,left,822.199999995064,true,NA,NA,NA,NA,NA,NA,NA,NA,true
AXDgRPZX,3j6bhnx0vc5zv8hudcso2u6bq3dnka,3itxp059p0w3nl1bupe0ptcvk9isjs,AXDgRPZX,2020-0188,2020-05-21,11:25:59,11:54:38,NA,incomplete,16,number,1,left,Red_Star_Chess_3.jpg,Purple_Plus_Stripes_3.jpg,Blue_Circle_Chess_2.jpg,left,930.5950000416487,true,NA,NA,NA,NA,NA,NA,NA,NA,true
AXDgRPZX,3j6bhnx0vc5zv8hudcso2u6bq3dnka,3itxp059p0w3nl1bupe0ptcvk9isjs,AXDgRPZX,2020-0188,2020-05-21,11:25:59,11:54:38,NA,incomplete,17,number,1,right,Green_Triangle_Chess_2.jpg,Purple_Plus_Chess_4.jpg,Blue_Star_Grid_2.jpg,right,890.2349999989383,true,NA,NA,NA,NA,NA,NA,NA,NA,true
AXDgRPZX,3j6bhnx0vc5zv8hudcso2u6bq3dnka,3itxp059p0w3nl1bupe0ptcvk9isjs,AXDgRPZX,2020-0188,2020-05-21,11:25:59,11:54:38,NA,incomplete,18,number,0,left,Purple_Circle_Stripes_4.jpg,Blue_Star_Chess_4.jpg,Red_Triangle_Stripes_2.jpg,left,851.375000027474,true,NA,NA,NA,NA,NA,NA,NA,NA,true
AXDgRPZX,3j6bhnx0vc5zv8hudcso2u6bq3dnka,3itxp059p0w3nl1bupe0ptcvk9isjs,AXDgRPZX,2020-0188,2020-05-21,11:25:59,11:54:38,NA,incomplete,19,number,1,right,Blue_Circle_Stripes_1.jpg,Purple_Plus_Stripes_3.jpg,Green_Star_Dots_1.jpg,right,1140.8050000318326,true,NA,NA,NA,NA,NA,NA,NA,NA,true
AXDgRPZX,3j6bhnx0vc5zv8hudcso2u6bq3dnka,3itxp059p0w3nl1bupe0ptcvk9isjs,AXDgRPZX,2020-0188,2020-05-21,11:25:59,11:54:38,NA,incomplete,20,filling,0,left,Green_Triangle_Chess_3.jpg,Purple_Plus_Chess_1.jpg,Blue_Circle_Dots_3.jpg,left,1387.2749999864027,true,NA,NA,NA,NA,NA,NA,NA,NA,true
AXDgRPZX,3j6bhnx0vc5zv8hudcso2u6bq3dnka,3itxp059p0w3nl1bupe0ptcvk9isjs,AXDgRPZX,2020-0188,2020-05-21,11:25:59,11:54:38,NA,incomplete,21,filling,1,right,Green_Triangle_Dots_2.jpg,Red_Plus_Stripes_2.jpg,Blue_Star_Dots_1.jpg,none,0,false,NA,NA,NA,NA,NA,NA,NA,NA,true
AXDgRPZX,3j6bhnx0vc5zv8hudcso2u6bq3dnka,3itxp059p0w3nl1bupe0ptcvk9isjs,AXDgRPZX,2020-0188,2020-05-21,11:25:59,11:54:38,NA,incomplete,22,filling,1,right,Red_Triangle_Stripes_3.jpg,Blue_Plus_Grid_3.jpg,Green_Circle_Stripes_2.jpg,right,1185.5600000126287,true,NA,NA,NA,NA,NA,NA,NA,NA,true
AXDgRPZX,3j6bhnx0vc5zv8hudcso2u6bq3dnka,3itxp059p0w3nl1bupe0ptcvk9isjs,AXDgRPZX,2020-0188,2020-05-21,11:25:59,11:54:38,NA,incomplete,23,filling,0,left,Purple_Plus_Dots_2.jpg,Red_Triangle_Dots_4.jpg,Green_Star_Grid_2.jpg,left,1238.16499998793,true,NA,NA,NA,NA,NA,NA,NA,NA,true
AXDgRPZX,3j6bhnx0vc5zv8hudcso2u6bq3dnka,3itxp059p0w3nl1bupe0ptcvk9isjs,AXDgRPZX,2020-0188,2020-05-21,11:25:59,11:54:38,NA,incomplete,24,filling,1,left,Purple_Star_Dots_2.jpg,Green_Triangle_Dots_3.jpg,Blue_Plus_Stripes_2.jpg,left,1120.2850000117905,true,NA,NA,NA,NA,NA,NA,NA,NA,true
AXDgRPZX,3j6bhnx0vc5zv8hudcso2u6bq3dnka,3itxp059p0w3nl1bupe0ptcvk9isjs,AXDgRPZX,2020-0188,2020-05-21,11:25:59,11:54:38,NA,incomplete,25,filling,1,left,Red_Plus_Grid_3.jpg,Green_Triangle_Grid_4.jpg,Blue_Circle_Stripes_3.jpg,left,1072.9299999657087,true,NA,NA,NA,NA,NA,NA,NA,NA,true
AXDgRPZX,3j6bhnx0vc5zv8hudcso2u6bq3dnka,3itxp059p0w3nl1bupe0ptcvk9isjs,AXDgRPZX,2020-0188,2020-05-21,11:25:59,11:54:38,NA,incomplete,26,filling,1,left,Purple_Circle_Dots_3.jpg,Green_Star_Dots_4.jpg,Red_Plus_Chess_3.jpg,left,977.3999999742955,true,NA,NA,NA,NA,NA,NA,NA,NA,true
AXDgRPZX,3j6bhnx0vc5zv8hudcso2u6bq3dnka,3itxp059p0w3nl1bupe0ptcvk9isjs,AXDgRPZX,2020-0188,2020-05-21,11:25:59,11:54:38,NA,incomplete,27,filling,1,left,Red_Plus_Dots_3.jpg,Blue_Star_Dots_2.jpg,Green_Circle_Chess_3.jpg,left,1222.414999967441,true,NA,NA,NA,NA,NA,NA,NA,NA,true
AXDgRPZX,3j6bhnx0vc5zv8hudcso2u6bq3dnka,3itxp059p0w3nl1bupe0ptcvk9isjs,AXDgRPZX,2020-0188,2020-05-21,11:25:59,11:54:38,NA,incomplete,28,filling,1,right,Red_Circle_Chess_1.jpg,Blue_Star_Stripes_1.jpg,Green_Triangle_Chess_3.jpg,none,0,false,NA,NA,NA,NA,NA,NA,NA,NA,true
AXDgRPZX,3j6bhnx0vc5zv8hudcso2u6bq3dnka,3itxp059p0w3nl1bupe0ptcvk9isjs,AXDgRPZX,2020-0188,2020-05-21,11:25:59,11:54:38,NA,incomplete,29,filling,1,right,Purple_Star_Dots_3.jpg,Green_Triangle_Grid_3.jpg,Red_Circle_Dots_2.jpg,right,1295.3449999913573,true,NA,NA,NA,NA,NA,NA,NA,NA,true
AXDgRPZX,3j6bhnx0vc5zv8hudcso2u6bq3dnka,3itxp059p0w3nl1bupe0ptcvk9isjs,AXDgRPZX,2020-0188,2020-05-21,11:25:59,11:54:38,NA,incomplete,30,filling,1,right,Blue_Star_Chess_1.jpg,Green_Circle_Dots_1.jpg,Red_Plus_Chess_2.jpg,right,893.5300000011921,true,NA,NA,NA,NA,NA,NA,NA,NA,true
AXDgRPZX,3j6bhnx0vc5zv8hudcso2u6bq3dnka,3itxp059p0w3nl1bupe0ptcvk9isjs,AXDgRPZX,2020-0188,2020-05-21,11:25:59,11:54:38,NA,incomplete,31,filling,1,right,Purple_Plus_Grid_4.jpg,Red_Triangle_Stripes_4.jpg,Green_Circle_Grid_3.jpg,right,993.8449999899603,true,NA,NA,NA,NA,NA,NA,NA,NA,true
AXDgRPZX,3j6bhnx0vc5zv8hudcso2u6bq3dnka,3itxp059p0w3nl1bupe0ptcvk9isjs,AXDgRPZX,2020-0188,2020-05-21,11:25:59,11:54:38,NA,incomplete,32,filling,0,left,Purple_Star_Chess_3.jpg,Blue_Triangle_Chess_2.jpg,Red_Circle_Stripes_3.jpg,left,933.6599999805912,true,NA,NA,NA,NA,NA,NA,NA,NA,true
AXDgRPZX,3j6bhnx0vc5zv8hudcso2u6bq3dnka,3itxp059p0w3nl1bupe0ptcvk9isjs,AXDgRPZX,2020-0188,2020-05-21,11:25:59,11:54:38,NA,incomplete,33,filling,1,right,Purple_Triangle_Chess_4.jpg,Blue_Plus_Dots_4.jpg,Green_Circle_Chess_2.jpg,right,771.2700000265613,true,NA,NA,NA,NA,NA,NA,NA,NA,true
AXDgRPZX,3j6bhnx0vc5zv8hudcso2u6bq3dnka,3itxp059p0w3nl1bupe0ptcvk9isjs,AXDgRPZX,2020-0188,2020-05-21,11:25:59,11:54:38,NA,incomplete,34,filling,1,left,Green_Star_Dots_2.jpg,Purple_Triangle_Dots_3.jpg,Red_Plus_Stripes_2.jpg,left,1121.370000008028,true,NA,NA,NA,NA,NA,NA,NA,NA,true
AXDgRPZX,3j6bhnx0vc5zv8hudcso2u6bq3dnka,3itxp059p0w3nl1bupe0ptcvk9isjs,AXDgRPZX,2020-0188,2020-05-21,11:25:59,11:54:38,NA,incomplete,35,filling,0,left,Blue_Circle_Stripes_1.jpg,Red_Triangle_Stripes_3.jpg,Green_Plus_Dots_1.jpg,left,832.3200000450015,true,NA,NA,NA,NA,NA,NA,NA,NA,true
AXDgRPZX,3j6bhnx0vc5zv8hudcso2u6bq3dnka,3itxp059p0w3nl1bupe0ptcvk9isjs,AXDgRPZX,2020-0188,2020-05-21,11:25:59,11:54:38,NA,incomplete,36,filling,1,left,Blue_Circle_Dots_1.jpg,Red_Triangle_Dots_4.jpg,Purple_Plus_Stripes_1.jpg,right,812.3350000241771,false,NA,NA,NA,NA,NA,NA,NA,NA,true
AXDgRPZX,3j6bhnx0vc5zv8hudcso2u6bq3dnka,3itxp059p0w3nl1bupe0ptcvk9isjs,AXDgRPZX,2020-0188,2020-05-21,11:25:59,11:54:38,NA,incomplete,37,filling,1,left,Red_Circle_Stripes_1.jpg,Blue_Star_Stripes_4.jpg,Purple_Plus_Dots_1.jpg,left,928.8800000213087,true,NA,NA,NA,NA,NA,NA,NA,NA,true
AXDgRPZX,3j6bhnx0vc5zv8hudcso2u6bq3dnka,3itxp059p0w3nl1bupe0ptcvk9isjs,AXDgRPZX,2020-0188,2020-05-21,11:25:59,11:54:38,NA,incomplete,38,filling,0,left,Red_Plus_Grid_2.jpg,Green_Triangle_Grid_4.jpg,Purple_Circle_Dots_2.jpg,left,775.3100000554696,true,NA,NA,NA,NA,NA,NA,NA,NA,true
AXDgRPZX,3j6bhnx0vc5zv8hudcso2u6bq3dnka,3itxp059p0w3nl1bupe0ptcvk9isjs,AXDgRPZX,2020-0188,2020-05-21,11:25:59,11:54:38,NA,incomplete,39,filling,1,right,Purple_Plus_Grid_2.jpg,Green_Triangle_Stripes_2.jpg,Blue_Star_Grid_1.jpg,right,1204.3549999943934,true,NA,NA,NA,NA,NA,NA,NA,NA,true
AXDgRPZX,3j6bhnx0vc5zv8hudcso2u6bq3dnka,3itxp059p0w3nl1bupe0ptcvk9isjs,AXDgRPZX,2020-0188,2020-05-21,11:25:59,11:54:38,NA,incomplete,0,number,1,left,Blue_Circle_Grid_3.jpg,Red_Plus_Dots_3.jpg,Green_Triangle_Grid_1.jpg,right,1350.8450000081211,false,low,NA,NA,NA,NA,NA,NA,NA,false
AXDgRPZX,3j6bhnx0vc5zv8hudcso2u6bq3dnka,3itxp059p0w3nl1bupe0ptcvk9isjs,AXDgRPZX,2020-0188,2020-05-21,11:25:59,11:54:38,NA,incomplete,1,number,0,right,Red_Triangle_Dots_1.jpg,Green_Circle_Dots_3.jpg,Blue_Plus_Grid_1.jpg,left,1019.4100000080653,false,low,NA,NA,NA,NA,NA,NA,NA,false
AXDgRPZX,3j6bhnx0vc5zv8hudcso2u6bq3dnka,3itxp059p0w3nl1bupe0ptcvk9isjs,AXDgRPZX,2020-0188,2020-05-21,11:25:59,11:54:38,NA,incomplete,2,number,1,left,Red_Triangle_Stripes_3.jpg,Blue_Star_Grid_3.jpg,Green_Plus_Stripes_4.jpg,right,783.2449999987148,false,low,NA,NA,NA,NA,NA,NA,NA,false
AXDgRPZX,3j6bhnx0vc5zv8hudcso2u6bq3dnka,3itxp059p0w3nl1bupe0ptcvk9isjs,AXDgRPZX,2020-0188,2020-05-21,11:25:59,11:54:38,NA,incomplete,3,number,1,left,Purple_Star_Stripes_1.jpg,Blue_Plus_Chess_1.jpg,Red_Triangle_Stripes_3.jpg,left,652.2399999666959,true,low,NA,NA,NA,NA,NA,NA,NA,false
AXDgRPZX,3j6bhnx0vc5zv8hudcso2u6bq3dnka,3itxp059p0w3nl1bupe0ptcvk9isjs,AXDgRPZX,2020-0188,2020-05-21,11:25:59,11:54:38,NA,incomplete,4,number,0,right,Blue_Circle_Grid_1.jpg,Purple_Star_Grid_3.jpg,Green_Triangle_Dots_1.jpg,right,502.3050000309013,true,low,NA,NA,NA,NA,NA,NA,NA,false
AXDgRPZX,3j6bhnx0vc5zv8hudcso2u6bq3dnka,3itxp059p0w3nl1bupe0ptcvk9isjs,AXDgRPZX,2020-0188,2020-05-21,11:25:59,11:54:38,NA,incomplete,5,number,1,right,Green_Star_Chess_2.jpg,Purple_Triangle_Chess_3.jpg,Red_Plus_Grid_2.jpg,left,774.8100000317208,false,low,NA,NA,NA,NA,NA,NA,NA,false
AXDgRPZX,3j6bhnx0vc5zv8hudcso2u6bq3dnka,3itxp059p0w3nl1bupe0ptcvk9isjs,AXDgRPZX,2020-0188,2020-05-21,11:25:59,11:54:38,NA,incomplete,6,number,1,left,Green_Plus_Stripes_1.jpg,Blue_Circle_Chess_1.jpg,Purple_Star_Stripes_4.jpg,right,995.5099999788217,false,low,NA,NA,NA,NA,NA,NA,NA,false
AXDgRPZX,3j6bhnx0vc5zv8hudcso2u6bq3dnka,3itxp059p0w3nl1bupe0ptcvk9isjs,AXDgRPZX,2020-0188,2020-05-21,11:25:59,11:54:38,NA,incomplete,7,number,1,left,Green_Star_Grid_3.jpg,Red_Circle_Stripes_3.jpg,Blue_Plus_Grid_1.jpg,right,751.8999999738298,false,low,NA,NA,NA,NA,NA,NA,NA,false
AXDgRPZX,3j6bhnx0vc5zv8hudcso2u6bq3dnka,3itxp059p0w3nl1bupe0ptcvk9isjs,AXDgRPZX,2020-0188,2020-05-21,11:25:59,11:54:38,NA,incomplete,8,number,1,right,Red_Triangle_Chess_1.jpg,Green_Plus_Chess_3.jpg,Purple_Circle_Dots_1.jpg,left,704.4500000192784,false,low,NA,NA,NA,NA,NA,NA,NA,false
AXDgRPZX,3j6bhnx0vc5zv8hudcso2u6bq3dnka,3itxp059p0w3nl1bupe0ptcvk9isjs,AXDgRPZX,2020-0188,2020-05-21,11:25:59,11:54:38,NA,incomplete,9,number,1,left,Blue_Star_Stripes_1.jpg,Red_Triangle_Dots_1.jpg,Purple_Plus_Stripes_4.jpg,left,742.264999949839,true,low,NA,NA,NA,NA,NA,NA,NA,false
AXDgRPZX,3j6bhnx0vc5zv8hudcso2u6bq3dnka,3itxp059p0w3nl1bupe0ptcvk9isjs,AXDgRPZX,2020-0188,2020-05-21,11:25:59,11:54:38,NA,incomplete,10,number,1,right,Red_Circle_Dots_3.jpg,Blue_Star_Dots_4.jpg,Green_Plus_Chess_3.jpg,left,1293.5649999999441,false,low,NA,NA,NA,NA,NA,NA,NA,false
AXDgRPZX,3j6bhnx0vc5zv8hudcso2u6bq3dnka,3itxp059p0w3nl1bupe0ptcvk9isjs,AXDgRPZX,2020-0188,2020-05-21,11:25:59,11:54:38,NA,incomplete,11,number,1,left,Blue_Triangle_Chess_3.jpg,Purple_Star_Dots_3.jpg,Red_Plus_Chess_2.jpg,right,541.4549999986775,false,low,NA,NA,NA,NA,NA,NA,NA,false
AXDgRPZX,3j6bhnx0vc5zv8hudcso2u6bq3dnka,3itxp059p0w3nl1bupe0ptcvk9isjs,AXDgRPZX,2020-0188,2020-05-21,11:25:59,11:54:38,NA,incomplete,12,number,1,right,Red_Circle_Stripes_2.jpg,Green_Star_Stripes_1.jpg,Purple_Plus_Chess_2.jpg,right,732.6350000221282,true,low,NA,NA,NA,NA,NA,NA,NA,false
AXDgRPZX,3j6bhnx0vc5zv8hudcso2u6bq3dnka,3itxp059p0w3nl1bupe0ptcvk9isjs,AXDgRPZX,2020-0188,2020-05-21,11:25:59,11:54:38,NA,incomplete,13,number,1,left,Purple_Triangle_Stripes_4.jpg,Blue_Circle_Dots_4.jpg,Green_Star_Stripes_2.jpg,left,643.5300000011921,true,low,NA,NA,NA,NA,NA,NA,NA,false
AXDgRPZX,3j6bhnx0vc5zv8hudcso2u6bq3dnka,3itxp059p0w3nl1bupe0ptcvk9isjs,AXDgRPZX,2020-0188,2020-05-21,11:25:59,11:54:38,NA,incomplete,14,number,1,right,Red_Circle_Grid_4.jpg,Green_Plus_Grid_1.jpg,Blue_Star_Dots_4.jpg,right,654.3850000016391,true,low,NA,NA,NA,NA,NA,NA,NA,false
AXDgRPZX,3j6bhnx0vc5zv8hudcso2u6bq3dnka,3itxp059p0w3nl1bupe0ptcvk9isjs,AXDgRPZX,2020-0188,2020-05-21,11:25:59,11:54:38,NA,incomplete,15,number,0,left,Purple_Circle_Chess_4.jpg,Blue_Triangle_Dots_4.jpg,Green_Star_Chess_3.jpg,right,464.62500002235174,false,low,NA,NA,NA,NA,NA,NA,NA,false
AXDgRPZX,3j6bhnx0vc5zv8hudcso2u6bq3dnka,3itxp059p0w3nl1bupe0ptcvk9isjs,AXDgRPZX,2020-0188,2020-05-21,11:25:59,11:54:38,NA,incomplete,16,number,0,right,Red_Triangle_Grid_4.jpg,Blue_Star_Grid_2.jpg,Purple_Plus_Chess_4.jpg,left,427.2699999855831,false,low,NA,NA,NA,NA,NA,NA,NA,false
AXDgRPZX,3j6bhnx0vc5zv8hudcso2u6bq3dnka,3itxp059p0w3nl1bupe0ptcvk9isjs,AXDgRPZX,2020-0188,2020-05-21,11:25:59,11:54:38,NA,incomplete,17,number,1,right,Red_Triangle_Chess_3.jpg,Green_Star_Chess_4.jpg,Purple_Plus_Stripes_3.jpg,left,430.34000002080575,false,low,NA,NA,NA,NA,NA,NA,NA,false
AXDgRPZX,3j6bhnx0vc5zv8hudcso2u6bq3dnka,3itxp059p0w3nl1bupe0ptcvk9isjs,AXDgRPZX,2020-0188,2020-05-21,11:25:59,11:54:38,NA,incomplete,18,number,1,left,Blue_Circle_Dots_4.jpg,Purple_Star_Grid_4.jpg,Red_Plus_Dots_3.jpg,right,385.4849999770522,false,low,NA,NA,NA,NA,NA,NA,NA,false
AXDgRPZX,3j6bhnx0vc5zv8hudcso2u6bq3dnka,3itxp059p0w3nl1bupe0ptcvk9isjs,AXDgRPZX,2020-0188,2020-05-21,11:25:59,11:54:38,NA,incomplete,19,number,1,right,Blue_Star_Dots_3.jpg,Green_Triangle_Dots_2.jpg,Purple_Plus_Stripes_3.jpg,right,486.52500001480803,true,low,NA,NA,NA,NA,NA,NA,NA,false
AXDgRPZX,3j6bhnx0vc5zv8hudcso2u6bq3dnka,3itxp059p0w3nl1bupe0ptcvk9isjs,AXDgRPZX,2020-0188,2020-05-21,11:25:59,11:54:38,NA,incomplete,20,number,1,left,Green_Star_Dots_1.jpg,Blue_Triangle_Chess_1.jpg,Red_Circle_Dots_2.jpg,left,670.3649999690242,true,low,NA,NA,NA,NA,NA,NA,NA,false
AXDgRPZX,3j6bhnx0vc5zv8hudcso2u6bq3dnka,3itxp059p0w3nl1bupe0ptcvk9isjs,AXDgRPZX,2020-0188,2020-05-21,11:25:59,11:54:38,NA,incomplete,21,number,1,left,Purple_Star_Grid_2.jpg,Blue_Triangle_Dots_2.jpg,Green_Plus_Grid_1.jpg,right,736.1299999756739,false,low,NA,NA,NA,NA,NA,NA,NA,false
AXDgRPZX,3j6bhnx0vc5zv8hudcso2u6bq3dnka,3itxp059p0w3nl1bupe0ptcvk9isjs,AXDgRPZX,2020-0188,2020-05-21,11:25:59,11:54:38,NA,incomplete,22,number,1,right,Red_Triangle_Grid_1.jpg,Green_Star_Grid_3.jpg,Blue_Plus_Dots_1.jpg,right,614.70500001451,true,low,NA,NA,NA,NA,NA,NA,NA,false
AXDgRPZX,3j6bhnx0vc5zv8hudcso2u6bq3dnka,3itxp059p0w3nl1bupe0ptcvk9isjs,AXDgRPZX,2020-0188,2020-05-21,11:25:59,11:54:38,NA,incomplete,23,number,1,right,Purple_Plus_Chess_3.jpg,Green_Circle_Chess_4.jpg,Blue_Star_Grid_3.jpg,left,995.4300000099465,false,low,NA,NA,NA,NA,NA,NA,NA,false
AXDgRPZX,3j6bhnx0vc5zv8hudcso2u6bq3dnka,3itxp059p0w3nl1bupe0ptcvk9isjs,AXDgRPZX,2020-0188,2020-05-21,11:25:59,11:54:38,NA,incomplete,24,number,1,left,Blue_Plus_Stripes_3.jpg,Purple_Star_Grid_3.jpg,Red_Triangle_Stripes_1.jpg,left,575.2700000302866,true,low,NA,NA,NA,NA,NA,NA,NA,false
AXDgRPZX,3j6bhnx0vc5zv8hudcso2u6bq3dnka,3itxp059p0w3nl1bupe0ptcvk9isjs,AXDgRPZX,2020-0188,2020-05-21,11:25:59,11:54:38,NA,incomplete,25,number,1,left,Red_Circle_Grid_4.jpg,Green_Plus_Chess_4.jpg,Blue_Star_Grid_1.jpg,left,476.31499997805804,true,low,NA,NA,NA,NA,NA,NA,NA,false
AXDgRPZX,3j6bhnx0vc5zv8hudcso2u6bq3dnka,3itxp059p0w3nl1bupe0ptcvk9isjs,AXDgRPZX,2020-0188,2020-05-21,11:25:59,11:54:38,NA,incomplete,26,number,1,right,Red_Star_Stripes_3.jpg,Blue_Plus_Stripes_2.jpg,Purple_Circle_Grid_3.jpg,right,654.8700000275858,true,low,NA,NA,NA,NA,NA,NA,NA,false
AXDgRPZX,3j6bhnx0vc5zv8hudcso2u6bq3dnka,3itxp059p0w3nl1bupe0ptcvk9isjs,AXDgRPZX,2020-0188,2020-05-21,11:25:59,11:54:38,NA,incomplete,27,number,1,left,Red_Star_Grid_2.jpg,Blue_Triangle_Dots_2.jpg,Green_Circle_Grid_3.jpg,left,600.3149999887682,true,low,NA,NA,NA,NA,NA,NA,NA,false
AXDgRPZX,3j6bhnx0vc5zv8hudcso2u6bq3dnka,3itxp059p0w3nl1bupe0ptcvk9isjs,AXDgRPZX,2020-0188,2020-05-21,11:25:59,11:54:38,NA,incomplete,28,number,1,right,Red_Triangle_Chess_1.jpg,Blue_Circle_Chess_3.jpg,Green_Star_Grid_1.jpg,left,580.5050000199117,false,low,NA,NA,NA,NA,NA,NA,NA,false
AXDgRPZX,3j6bhnx0vc5zv8hudcso2u6bq3dnka,3itxp059p0w3nl1bupe0ptcvk9isjs,AXDgRPZX,2020-0188,2020-05-21,11:25:59,11:54:38,NA,incomplete,29,number,1,right,Red_Plus_Stripes_2.jpg,Green_Star_Stripes_3.jpg,Purple_Circle_Chess_2.jpg,left,633.3749999757856,false,low,NA,NA,NA,NA,NA,NA,NA,false
AXDgRPZX,3j6bhnx0vc5zv8hudcso2u6bq3dnka,3itxp059p0w3nl1bupe0ptcvk9isjs,AXDgRPZX,2020-0188,2020-05-21,11:25:59,11:54:38,NA,incomplete,30,filling,1,right,Green_Star_Stripes_2.jpg,Red_Circle_Grid_2.jpg,Blue_Triangle_Stripes_4.jpg,right,452.4249999667518,true,low,NA,NA,NA,NA,NA,NA,NA,false
AXDgRPZX,3j6bhnx0vc5zv8hudcso2u6bq3dnka,3itxp059p0w3nl1bupe0ptcvk9isjs,AXDgRPZX,2020-0188,2020-05-21,11:25:59,11:54:38,NA,incomplete,31,filling,1,right,Purple_Triangle_Dots_4.jpg,Red_Plus_Grid_4.jpg,Green_Circle_Dots_3.jpg,right,438.72500001452863,true,low,NA,NA,NA,NA,NA,NA,NA,false
AXDgRPZX,3j6bhnx0vc5zv8hudcso2u6bq3dnka,3itxp059p0w3nl1bupe0ptcvk9isjs,AXDgRPZX,2020-0188,2020-05-21,11:25:59,11:54:38,NA,incomplete,32,filling,1,right,Green_Star_Chess_4.jpg,Blue_Circle_Dots_4.jpg,Red_Plus_Chess_1.jpg,none,0,false,low,NA,NA,NA,NA,NA,NA,NA,false
AXDgRPZX,3j6bhnx0vc5zv8hudcso2u6bq3dnka,3itxp059p0w3nl1bupe0ptcvk9isjs,AXDgRPZX,2020-0188,2020-05-21,11:25:59,11:54:38,NA,incomplete,33,filling,1,left,Purple_Star_Grid_3.jpg,Red_Circle_Grid_4.jpg,Green_Triangle_Dots_3.jpg,right,488.43500000657514,false,low,NA,NA,NA,NA,NA,NA,NA,false
AXDgRPZX,3j6bhnx0vc5zv8hudcso2u6bq3dnka,3itxp059p0w3nl1bupe0ptcvk9isjs,AXDgRPZX,2020-0188,2020-05-21,11:25:59,11:54:38,NA,incomplete,34,filling,1,right,Blue_Star_Stripes_2.jpg,Purple_Triangle_Dots_2.jpg,Red_Circle_Stripes_1.jpg,left,379.5950000057928,false,low,NA,NA,NA,NA,NA,NA,NA,false
AXDgRPZX,3j6bhnx0vc5zv8hudcso2u6bq3dnka,3itxp059p0w3nl1bupe0ptcvk9isjs,AXDgRPZX,2020-0188,2020-05-21,11:25:59,11:54:38,NA,incomplete,35,filling,0,right,Purple_Circle_Chess_4.jpg,Red_Star_Stripes_4.jpg,Blue_Triangle_Chess_3.jpg,right,333.6699999636039,true,low,NA,NA,NA,NA,NA,NA,NA,false
AXDgRPZX,3j6bhnx0vc5zv8hudcso2u6bq3dnka,3itxp059p0w3nl1bupe0ptcvk9isjs,AXDgRPZX,2020-0188,2020-05-21,11:25:59,11:54:38,NA,incomplete,36,filling,0,right,Red_Star_Grid_4.jpg,Green_Plus_Stripes_4.jpg,Purple_Circle_Grid_3.jpg,right,428.2649999950081,true,low,NA,NA,NA,NA,NA,NA,NA,false
AXDgRPZX,3j6bhnx0vc5zv8hudcso2u6bq3dnka,3itxp059p0w3nl1bupe0ptcvk9isjs,AXDgRPZX,2020-0188,2020-05-21,11:25:59,11:54:38,NA,incomplete,37,filling,0,left,Green_Circle_Dots_3.jpg,Red_Plus_Dots_1.jpg,Blue_Triangle_Grid_3.jpg,right,546.3449999806471,false,low,NA,NA,NA,NA,NA,NA,NA,false
AXDgRPZX,3j6bhnx0vc5zv8hudcso2u6bq3dnka,3itxp059p0w3nl1bupe0ptcvk9isjs,AXDgRPZX,2020-0188,2020-05-21,11:25:59,11:54:38,NA,incomplete,38,filling,1,right,Purple_Star_Stripes_3.jpg,Red_Plus_Grid_3.jpg,Green_Triangle_Stripes_2.jpg,left,1438.2600000244565,false,low,NA,NA,NA,NA,NA,NA,NA,false
AXDgRPZX,3j6bhnx0vc5zv8hudcso2u6bq3dnka,3itxp059p0w3nl1bupe0ptcvk9isjs,AXDgRPZX,2020-0188,2020-05-21,11:25:59,11:54:38,NA,incomplete,39,filling,1,left,Purple_Triangle_Dots_3.jpg,Green_Circle_Dots_1.jpg,Red_Plus_Grid_3.jpg,left,1424.2349999840371,true,low,NA,NA,NA,NA,NA,NA,NA,false
AXDgRPZX,3j6bhnx0vc5zv8hudcso2u6bq3dnka,3itxp059p0w3nl1bupe0ptcvk9isjs,AXDgRPZX,2020-0188,2020-05-21,11:25:59,11:54:38,NA,incomplete,40,filling,1,left,Blue_Circle_Grid_1.jpg,Purple_Triangle_Grid_4.jpg,Red_Plus_Chess_1.jpg,right,692.2100000083447,false,low,NA,NA,NA,NA,NA,NA,NA,false
AXDgRPZX,3j6bhnx0vc5zv8hudcso2u6bq3dnka,3itxp059p0w3nl1bupe0ptcvk9isjs,AXDgRPZX,2020-0188,2020-05-21,11:25:59,11:54:38,NA,incomplete,41,filling,1,right,Purple_Star_Grid_4.jpg,Green_Triangle_Stripes_4.jpg,Red_Circle_Grid_1.jpg,none,0,false,low,NA,NA,NA,NA,NA,NA,NA,false
AXDgRPZX,3j6bhnx0vc5zv8hudcso2u6bq3dnka,3itxp059p0w3nl1bupe0ptcvk9isjs,AXDgRPZX,2020-0188,2020-05-21,11:25:59,11:54:38,NA,incomplete,42,filling,1,right,Red_Circle_Dots_3.jpg,Blue_Plus_Chess_3.jpg,Purple_Triangle_Dots_2.jpg,left,585.3650000062771,false,low,NA,NA,NA,NA,NA,NA,NA,false
AXDgRPZX,3j6bhnx0vc5zv8hudcso2u6bq3dnka,3itxp059p0w3nl1bupe0ptcvk9isjs,AXDgRPZX,2020-0188,2020-05-21,11:25:59,11:54:38,NA,incomplete,43,filling,1,left,Red_Circle_Chess_2.jpg,Green_Star_Chess_4.jpg,Blue_Plus_Stripes_2.jpg,right,423.47500001778826,false,low,NA,NA,NA,NA,NA,NA,NA,false
AXDgRPZX,3j6bhnx0vc5zv8hudcso2u6bq3dnka,3itxp059p0w3nl1bupe0ptcvk9isjs,AXDgRPZX,2020-0188,2020-05-21,11:25:59,11:54:38,NA,incomplete,44,filling,1,right,Green_Circle_Dots_1.jpg,Purple_Plus_Chess_1.jpg,Blue_Triangle_Dots_3.jpg,left,289.31500000180677,false,low,NA,NA,NA,NA,NA,NA,NA,false
AXDgRPZX,3j6bhnx0vc5zv8hudcso2u6bq3dnka,3itxp059p0w3nl1bupe0ptcvk9isjs,AXDgRPZX,2020-0188,2020-05-21,11:25:59,11:54:38,NA,incomplete,45,filling,1,left,Green_Triangle_Stripes_4.jpg,Blue_Plus_Stripes_3.jpg,Purple_Circle_Grid_4.jpg,left,202.11499999277294,true,low,NA,NA,NA,NA,NA,NA,NA,false
AXDgRPZX,3j6bhnx0vc5zv8hudcso2u6bq3dnka,3itxp059p0w3nl1bupe0ptcvk9isjs,AXDgRPZX,2020-0188,2020-05-21,11:25:59,11:54:38,NA,incomplete,46,filling,1,left,Green_Triangle_Dots_2.jpg,Blue_Circle_Dots_3.jpg,Purple_Star_Stripes_2.jpg,left,398.3299999963492,true,low,NA,NA,NA,NA,NA,NA,NA,false
AXDgRPZX,3j6bhnx0vc5zv8hudcso2u6bq3dnka,3itxp059p0w3nl1bupe0ptcvk9isjs,AXDgRPZX,2020-0188,2020-05-21,11:25:59,11:54:38,NA,incomplete,47,filling,1,left,Red_Circle_Chess_4.jpg,Blue_Star_Chess_3.jpg,Purple_Plus_Dots_4.jpg,left,556.1349999625236,true,low,NA,NA,NA,NA,NA,NA,NA,false
AXDgRPZX,3j6bhnx0vc5zv8hudcso2u6bq3dnka,3itxp059p0w3nl1bupe0ptcvk9isjs,AXDgRPZX,2020-0188,2020-05-21,11:25:59,11:54:38,NA,incomplete,48,filling,1,left,Green_Circle_Chess_3.jpg,Purple_Plus_Chess_2.jpg,Blue_Triangle_Dots_3.jpg,right,401.39499999349937,false,low,NA,NA,NA,NA,NA,NA,NA,false
AXDgRPZX,3j6bhnx0vc5zv8hudcso2u6bq3dnka,3itxp059p0w3nl1bupe0ptcvk9isjs,AXDgRPZX,2020-0188,2020-05-21,11:25:59,11:54:38,NA,incomplete,49,filling,1,right,Blue_Plus_Grid_3.jpg,Purple_Star_Stripes_3.jpg,Green_Triangle_Grid_1.jpg,left,260.439999983646,false,low,NA,NA,NA,NA,NA,NA,NA,false
AXDgRPZX,3j6bhnx0vc5zv8hudcso2u6bq3dnka,3itxp059p0w3nl1bupe0ptcvk9isjs,AXDgRPZX,2020-0188,2020-05-21,11:25:59,11:54:38,NA,incomplete,50,filling,0,left,Blue_Plus_Dots_4.jpg,Green_Circle_Dots_1.jpg,Purple_Star_Grid_4.jpg,right,415.5449999962002,false,low,NA,NA,NA,NA,NA,NA,NA,false
AXDgRPZX,3j6bhnx0vc5zv8hudcso2u6bq3dnka,3itxp059p0w3nl1bupe0ptcvk9isjs,AXDgRPZX,2020-0188,2020-05-21,11:25:59,11:54:38,NA,incomplete,51,filling,1,right,Blue_Circle_Grid_4.jpg,Green_Triangle_Stripes_4.jpg,Purple_Star_Grid_3.jpg,left,571.2050000438467,false,low,NA,NA,NA,NA,NA,NA,NA,false
AXDgRPZX,3j6bhnx0vc5zv8hudcso2u6bq3dnka,3itxp059p0w3nl1bupe0ptcvk9isjs,AXDgRPZX,2020-0188,2020-05-21,11:25:59,11:54:38,NA,incomplete,52,filling,1,right,Blue_Triangle_Stripes_1.jpg,Green_Plus_Chess_1.jpg,Red_Star_Stripes_4.jpg,right,1088.9600000227802,true,low,NA,NA,NA,NA,NA,NA,NA,false
AXDgRPZX,3j6bhnx0vc5zv8hudcso2u6bq3dnka,3itxp059p0w3nl1bupe0ptcvk9isjs,AXDgRPZX,2020-0188,2020-05-21,11:25:59,11:54:38,NA,incomplete,53,filling,1,right,Green_Plus_Stripes_2.jpg,Blue_Star_Chess_2.jpg,Red_Triangle_Stripes_1.jpg,right,353.27999998116866,true,low,NA,NA,NA,NA,NA,NA,NA,false
AXDgRPZX,3j6bhnx0vc5zv8hudcso2u6bq3dnka,3itxp059p0w3nl1bupe0ptcvk9isjs,AXDgRPZX,2020-0188,2020-05-21,11:25:59,11:54:38,NA,incomplete,54,filling,0,right,Blue_Circle_Stripes_1.jpg,Purple_Triangle_Chess_1.jpg,Green_Plus_Stripes_3.jpg,right,783.9249999960884,true,low,NA,NA,NA,NA,NA,NA,NA,false
AXDgRPZX,3j6bhnx0vc5zv8hudcso2u6bq3dnka,3itxp059p0w3nl1bupe0ptcvk9isjs,AXDgRPZX,2020-0188,2020-05-21,11:25:59,11:54:38,NA,incomplete,55,filling,1,right,Red_Triangle_Chess_2.jpg,Blue_Star_Stripes_2.jpg,Purple_Circle_Chess_1.jpg,right,444.4900000235066,true,low,NA,NA,NA,NA,NA,NA,NA,false
AXDgRPZX,3j6bhnx0vc5zv8hudcso2u6bq3dnka,3itxp059p0w3nl1bupe0ptcvk9isjs,AXDgRPZX,2020-0188,2020-05-21,11:25:59,11:54:38,NA,incomplete,56,filling,1,left,Green_Circle_Dots_1.jpg,Red_Plus_Dots_4.jpg,Purple_Triangle_Chess_1.jpg,right,415.4149999958463,false,low,NA,NA,NA,NA,NA,NA,NA,false
AXDgRPZX,3j6bhnx0vc5zv8hudcso2u6bq3dnka,3itxp059p0w3nl1bupe0ptcvk9isjs,AXDgRPZX,2020-0188,2020-05-21,11:25:59,11:54:38,NA,incomplete,57,filling,1,right,Red_Star_Stripes_2.jpg,Green_Plus_Chess_2.jpg,Blue_Triangle_Stripes_3.jpg,right,547.4000000394881,true,low,NA,NA,NA,NA,NA,NA,NA,false
AXDgRPZX,3j6bhnx0vc5zv8hudcso2u6bq3dnka,3itxp059p0w3nl1bupe0ptcvk9isjs,AXDgRPZX,2020-0188,2020-05-21,11:25:59,11:54:38,NA,incomplete,58,filling,1,left,Red_Plus_Chess_3.jpg,Green_Circle_Chess_1.jpg,Purple_Triangle_Stripes_3.jpg,left,401.7849999945611,true,low,NA,NA,NA,NA,NA,NA,NA,false
AXDgRPZX,3j6bhnx0vc5zv8hudcso2u6bq3dnka,3itxp059p0w3nl1bupe0ptcvk9isjs,AXDgRPZX,2020-0188,2020-05-21,11:25:59,11:54:38,NA,incomplete,59,filling,1,left,Purple_Star_Stripes_2.jpg,Green_Triangle_Stripes_4.jpg,Red_Circle_Chess_2.jpg,left,525.2349999500439,true,low,NA,NA,NA,NA,NA,NA,NA,false
AXDgRPZX,3j6bhnx0vc5zv8hudcso2u6bq3dnka,3itxp059p0w3nl1bupe0ptcvk9isjs,AXDgRPZX,2020-0188,2020-05-21,11:25:59,11:54:38,NA,incomplete,60,number,1,left,Blue_Circle_Dots_4.jpg,Red_Star_Grid_4.jpg,Green_Triangle_Dots_3.jpg,left,669.289999990724,true,low,NA,NA,NA,NA,NA,NA,NA,false
AXDgRPZX,3j6bhnx0vc5zv8hudcso2u6bq3dnka,3itxp059p0w3nl1bupe0ptcvk9isjs,AXDgRPZX,2020-0188,2020-05-21,11:25:59,11:54:38,NA,incomplete,61,number,1,left,Purple_Triangle_Dots_1.jpg,Green_Star_Chess_1.jpg,Blue_Circle_Dots_3.jpg,left,294.3199999863282,true,low,NA,NA,NA,NA,NA,NA,NA,false
AXDgRPZX,3j6bhnx0vc5zv8hudcso2u6bq3dnka,3itxp059p0w3nl1bupe0ptcvk9isjs,AXDgRPZX,2020-0188,2020-05-21,11:25:59,11:54:38,NA,incomplete,62,number,0,right,Red_Star_Stripes_1.jpg,Blue_Triangle_Stripes_4.jpg,Green_Plus_Chess_1.jpg,left,263.2699999958277,false,low,NA,NA,NA,NA,NA,NA,NA,false
AXDgRPZX,3j6bhnx0vc5zv8hudcso2u6bq3dnka,3itxp059p0w3nl1bupe0ptcvk9isjs,AXDgRPZX,2020-0188,2020-05-21,11:25:59,11:54:38,NA,incomplete,63,number,1,left,Red_Star_Dots_4.jpg,Green_Plus_Grid_4.jpg,Blue_Triangle_Dots_2.jpg,left,433.58000001171604,true,low,NA,NA,NA,NA,NA,NA,NA,false
AXDgRPZX,3j6bhnx0vc5zv8hudcso2u6bq3dnka,3itxp059p0w3nl1bupe0ptcvk9isjs,AXDgRPZX,2020-0188,2020-05-21,11:25:59,11:54:38,NA,incomplete,64,number,1,right,Green_Circle_Dots_2.jpg,Purple_Star_Dots_3.jpg,Red_Triangle_Grid_2.jpg,left,548.8999999943189,false,low,NA,NA,NA,NA,NA,NA,NA,false
AXDgRPZX,3j6bhnx0vc5zv8hudcso2u6bq3dnka,3itxp059p0w3nl1bupe0ptcvk9isjs,AXDgRPZX,2020-0188,2020-05-21,11:25:59,11:54:38,NA,incomplete,65,number,1,left,Purple_Star_Stripes_4.jpg,Green_Plus_Chess_4.jpg,Blue_Triangle_Stripes_3.jpg,right,331.5699999802746,false,low,NA,NA,NA,NA,NA,NA,NA,false
AXDgRPZX,3j6bhnx0vc5zv8hudcso2u6bq3dnka,3itxp059p0w3nl1bupe0ptcvk9isjs,AXDgRPZX,2020-0188,2020-05-21,11:25:59,11:54:38,NA,incomplete,66,number,1,right,Purple_Plus_Grid_3.jpg,Green_Circle_Grid_1.jpg,Blue_Star_Chess_3.jpg,left,386.1599999945611,false,low,NA,NA,NA,NA,NA,NA,NA,false
AXDgRPZX,3j6bhnx0vc5zv8hudcso2u6bq3dnka,3itxp059p0w3nl1bupe0ptcvk9isjs,AXDgRPZX,2020-0188,2020-05-21,11:25:59,11:54:38,NA,incomplete,67,number,1,right,Green_Triangle_Grid_1.jpg,Purple_Star_Grid_2.jpg,Red_Plus_Chess_1.jpg,right,414.44000002229586,true,low,NA,NA,NA,NA,NA,NA,NA,false
AXDgRPZX,3j6bhnx0vc5zv8hudcso2u6bq3dnka,3itxp059p0w3nl1bupe0ptcvk9isjs,AXDgRPZX,2020-0188,2020-05-21,11:25:59,11:54:38,NA,incomplete,68,number,1,left,Purple_Plus_Dots_1.jpg,Green_Triangle_Grid_1.jpg,Red_Circle_Dots_4.jpg,right,523.4850000124425,false,low,NA,NA,NA,NA,NA,NA,NA,false
AXDgRPZX,3j6bhnx0vc5zv8hudcso2u6bq3dnka,3itxp059p0w3nl1bupe0ptcvk9isjs,AXDgRPZX,2020-0188,2020-05-21,11:25:59,11:54:38,NA,incomplete,69,number,0,right,Red_Plus_Chess_2.jpg,Green_Star_Chess_3.jpg,Purple_Circle_Dots_2.jpg,left,642.6499999943189,false,low,NA,NA,NA,NA,NA,NA,NA,false
AXDgRPZX,3j6bhnx0vc5zv8hudcso2u6bq3dnka,3itxp059p0w3nl1bupe0ptcvk9isjs,AXDgRPZX,2020-0188,2020-05-21,11:25:59,11:54:38,NA,incomplete,70,number,1,right,Purple_Triangle_Dots_1.jpg,Green_Circle_Dots_4.jpg,Blue_Plus_Grid_1.jpg,left,349.965000001248,false,low,NA,NA,NA,NA,NA,NA,NA,false
AXDgRPZX,3j6bhnx0vc5zv8hudcso2u6bq3dnka,3itxp059p0w3nl1bupe0ptcvk9isjs,AXDgRPZX,2020-0188,2020-05-21,11:25:59,11:54:38,NA,incomplete,71,number,0,right,Purple_Star_Stripes_1.jpg,Green_Triangle_Stripes_4.jpg,Blue_Circle_Grid_1.jpg,right,276.2549999752082,true,low,NA,NA,NA,NA,NA,NA,NA,false
AXDgRPZX,3j6bhnx0vc5zv8hudcso2u6bq3dnka,3itxp059p0w3nl1bupe0ptcvk9isjs,AXDgRPZX,2020-0188,2020-05-21,11:25:59,11:54:38,NA,incomplete,72,number,1,left,Red_Star_Grid_3.jpg,Blue_Plus_Chess_3.jpg,Green_Circle_Grid_2.jpg,right,349.3749999906868,false,low,NA,NA,NA,NA,NA,NA,NA,false
AXDgRPZX,3j6bhnx0vc5zv8hudcso2u6bq3dnka,3itxp059p0w3nl1bupe0ptcvk9isjs,AXDgRPZX,2020-0188,2020-05-21,11:25:59,11:54:38,NA,incomplete,73,number,1,left,Purple_Plus_Dots_1.jpg,Green_Triangle_Grid_1.jpg,Red_Star_Dots_3.jpg,left,307.4299999861978,true,low,NA,NA,NA,NA,NA,NA,NA,false
AXDgRPZX,3j6bhnx0vc5zv8hudcso2u6bq3dnka,3itxp059p0w3nl1bupe0ptcvk9isjs,AXDgRPZX,2020-0188,2020-05-21,11:25:59,11:54:38,NA,incomplete,74,number,0,right,Purple_Triangle_Dots_3.jpg,Blue_Plus_Dots_4.jpg,Green_Star_Chess_3.jpg,left,400.2650000038557,false,low,NA,NA,NA,NA,NA,NA,NA,false
AXDgRPZX,3j6bhnx0vc5zv8hudcso2u6bq3dnka,3itxp059p0w3nl1bupe0ptcvk9isjs,AXDgRPZX,2020-0188,2020-05-21,11:25:59,11:54:38,NA,incomplete,75,number,1,left,Red_Star_Dots_1.jpg,Blue_Triangle_Stripes_1.jpg,Green_Circle_Dots_2.jpg,left,343.86999998241663,true,low,NA,NA,NA,NA,NA,NA,NA,false
AXDgRPZX,3j6bhnx0vc5zv8hudcso2u6bq3dnka,3itxp059p0w3nl1bupe0ptcvk9isjs,AXDgRPZX,2020-0188,2020-05-21,11:25:59,11:54:38,NA,incomplete,76,number,0,right,Purple_Star_Chess_3.jpg,Green_Circle_Chess_4.jpg,Blue_Triangle_Grid_3.jpg,right,581.4100000425242,true,low,NA,NA,NA,NA,NA,NA,NA,false
AXDgRPZX,3j6bhnx0vc5zv8hudcso2u6bq3dnka,3itxp059p0w3nl1bupe0ptcvk9isjs,AXDgRPZX,2020-0188,2020-05-21,11:25:59,11:54:38,NA,incomplete,77,number,1,right,Blue_Plus_Chess_4.jpg,Red_Circle_Chess_1.jpg,Purple_Star_Dots_4.jpg,left,355.39499996230006,false,low,NA,NA,NA,NA,NA,NA,NA,false
AXDgRPZX,3j6bhnx0vc5zv8hudcso2u6bq3dnka,3itxp059p0w3nl1bupe0ptcvk9isjs,AXDgRPZX,2020-0188,2020-05-21,11:25:59,11:54:38,NA,incomplete,78,number,1,left,Purple_Triangle_Chess_4.jpg,Green_Star_Stripes_4.jpg,Red_Circle_Chess_3.jpg,left,65.36499998765066,true,low,NA,NA,NA,NA,NA,NA,NA,false
AXDgRPZX,3j6bhnx0vc5zv8hudcso2u6bq3dnka,3itxp059p0w3nl1bupe0ptcvk9isjs,AXDgRPZX,2020-0188,2020-05-21,11:25:59,11:54:38,NA,incomplete,79,number,1,left,Purple_Star_Grid_1.jpg,Red_Circle_Chess_1.jpg,Blue_Plus_Grid_4.jpg,right,324.2750000208616,false,low,NA,NA,NA,NA,NA,NA,NA,false
AXDgRPZX,3j6bhnx0vc5zv8hudcso2u6bq3dnka,3itxp059p0w3nl1bupe0ptcvk9isjs,AXDgRPZX,2020-0188,2020-05-21,11:25:59,11:54:38,NA,incomplete,80,number,1,right,Purple_Star_Grid_1.jpg,Blue_Triangle_Grid_2.jpg,Green_Plus_Dots_1.jpg,right,322.3950000246987,true,low,NA,NA,NA,NA,NA,NA,NA,false
AXDgRPZX,3j6bhnx0vc5zv8hudcso2u6bq3dnka,3itxp059p0w3nl1bupe0ptcvk9isjs,AXDgRPZX,2020-0188,2020-05-21,11:25:59,11:54:38,NA,incomplete,81,number,1,left,Red_Plus_Chess_4.jpg,Blue_Triangle_Dots_4.jpg,Green_Circle_Chess_3.jpg,right,346.27999999793246,false,low,NA,NA,NA,NA,NA,NA,NA,false
AXDgRPZX,3j6bhnx0vc5zv8hudcso2u6bq3dnka,3itxp059p0w3nl1bupe0ptcvk9isjs,AXDgRPZX,2020-0188,2020-05-21,11:25:59,11:54:38,NA,incomplete,82,number,1,left,Blue_Plus_Stripes_4.jpg,Red_Triangle_Chess_4.jpg,Green_Star_Stripes_2.jpg,right,42.0600000070408,false,low,NA,NA,NA,NA,NA,NA,NA,false
AXDgRPZX,3j6bhnx0vc5zv8hudcso2u6bq3dnka,3itxp059p0w3nl1bupe0ptcvk9isjs,AXDgRPZX,2020-0188,2020-05-21,11:25:59,11:54:38,NA,incomplete,83,number,1,right,Blue_Circle_Stripes_3.jpg,Red_Plus_Stripes_1.jpg,Green_Triangle_Grid_3.jpg,left,491.295000014361,false,low,NA,NA,NA,NA,NA,NA,NA,false
AXDgRPZX,3j6bhnx0vc5zv8hudcso2u6bq3dnka,3itxp059p0w3nl1bupe0ptcvk9isjs,AXDgRPZX,2020-0188,2020-05-21,11:25:59,11:54:38,NA,incomplete,84,number,1,left,Blue_Star_Dots_1.jpg,Purple_Circle_Chess_1.jpg,Red_Triangle_Dots_3.jpg,right,460.38500004215166,false,low,NA,NA,NA,NA,NA,NA,NA,false
AXDgRPZX,3j6bhnx0vc5zv8hudcso2u6bq3dnka,3itxp059p0w3nl1bupe0ptcvk9isjs,AXDgRPZX,2020-0188,2020-05-21,11:25:59,11:54:38,NA,incomplete,85,number,1,left,Purple_Star_Stripes_3.jpg,Blue_Circle_Dots_3.jpg,Green_Triangle_Stripes_4.jpg,right,526.3450000202283,false,low,NA,NA,NA,NA,NA,NA,NA,false
AXDgRPZX,3j6bhnx0vc5zv8hudcso2u6bq3dnka,3itxp059p0w3nl1bupe0ptcvk9isjs,AXDgRPZX,2020-0188,2020-05-21,11:25:59,11:54:38,NA,incomplete,86,number,1,right,Green_Star_Stripes_4.jpg,Blue_Plus_Stripes_3.jpg,Red_Circle_Dots_4.jpg,left,485.40000000502914,false,low,NA,NA,NA,NA,NA,NA,NA,false
AXDgRPZX,3j6bhnx0vc5zv8hudcso2u6bq3dnka,3itxp059p0w3nl1bupe0ptcvk9isjs,AXDgRPZX,2020-0188,2020-05-21,11:25:59,11:54:38,NA,incomplete,87,number,1,right,Green_Triangle_Dots_3.jpg,Red_Circle_Dots_4.jpg,Blue_Plus_Grid_3.jpg,left,879.0450000087731,false,low,NA,NA,NA,NA,NA,NA,NA,false
AXDgRPZX,3j6bhnx0vc5zv8hudcso2u6bq3dnka,3itxp059p0w3nl1bupe0ptcvk9isjs,AXDgRPZX,2020-0188,2020-05-21,11:25:59,11:54:38,NA,incomplete,88,number,0,right,Green_Plus_Dots_3.jpg,Blue_Circle_Dots_2.jpg,Red_Star_Grid_3.jpg,right,591.405000013765,true,low,NA,NA,NA,NA,NA,NA,NA,false
AXDgRPZX,3j6bhnx0vc5zv8hudcso2u6bq3dnka,3itxp059p0w3nl1bupe0ptcvk9isjs,AXDgRPZX,2020-0188,2020-05-21,11:25:59,11:54:38,NA,incomplete,89,number,1,left,Purple_Plus_Dots_3.jpg,Blue_Circle_Grid_3.jpg,Red_Star_Dots_1.jpg,left,524.4050000328571,true,low,NA,NA,NA,NA,NA,NA,NA,false
AXDgRPZX,3j6bhnx0vc5zv8hudcso2u6bq3dnka,3itxp059p0w3nl1bupe0ptcvk9isjs,AXDgRPZX,2020-0188,2020-05-21,11:25:59,11:54:38,NA,incomplete,90,filling,1,left,Red_Triangle_Dots_1.jpg,Green_Plus_Dots_2.jpg,Purple_Circle_Grid_1.jpg,right,515.404999954626,false,low,NA,NA,NA,NA,NA,NA,NA,false
AXDgRPZX,3j6bhnx0vc5zv8hudcso2u6bq3dnka,3itxp059p0w3nl1bupe0ptcvk9isjs,AXDgRPZX,2020-0188,2020-05-21,11:25:59,11:54:38,NA,incomplete,91,filling,1,right,Purple_Triangle_Stripes_3.jpg,Green_Plus_Dots_3.jpg,Blue_Circle_Stripes_2.jpg,right,643.480000027921,true,low,NA,NA,NA,NA,NA,NA,NA,false
AXDgRPZX,3j6bhnx0vc5zv8hudcso2u6bq3dnka,3itxp059p0w3nl1bupe0ptcvk9isjs,AXDgRPZX,2020-0188,2020-05-21,11:25:59,11:54:38,NA,incomplete,92,filling,0,right,Purple_Triangle_Chess_2.jpg,Red_Circle_Grid_2.jpg,Green_Star_Chess_3.jpg,left,542.5299999769777,false,low,NA,NA,NA,NA,NA,NA,NA,false
AXDgRPZX,3j6bhnx0vc5zv8hudcso2u6bq3dnka,3itxp059p0w3nl1bupe0ptcvk9isjs,AXDgRPZX,2020-0188,2020-05-21,11:25:59,11:54:38,NA,incomplete,93,filling,1,left,Blue_Plus_Dots_4.jpg,Purple_Star_Dots_1.jpg,Red_Circle_Stripes_4.jpg,right,796.4849999989383,false,low,NA,NA,NA,NA,NA,NA,NA,false
AXDgRPZX,3j6bhnx0vc5zv8hudcso2u6bq3dnka,3itxp059p0w3nl1bupe0ptcvk9isjs,AXDgRPZX,2020-0188,2020-05-21,11:25:59,11:54:38,NA,incomplete,94,filling,1,left,Red_Plus_Chess_4.jpg,Green_Circle_Chess_1.jpg,Purple_Triangle_Dots_4.jpg,left,697.3350000334904,true,low,NA,NA,NA,NA,NA,NA,NA,false
AXDgRPZX,3j6bhnx0vc5zv8hudcso2u6bq3dnka,3itxp059p0w3nl1bupe0ptcvk9isjs,AXDgRPZX,2020-0188,2020-05-21,11:25:59,11:54:38,NA,incomplete,95,filling,1,right,Red_Star_Chess_2.jpg,Purple_Triangle_Stripes_2.jpg,Green_Circle_Chess_4.jpg,right,610.419999982696,true,low,NA,NA,NA,NA,NA,NA,NA,false
AXDgRPZX,3j6bhnx0vc5zv8hudcso2u6bq3dnka,3itxp059p0w3nl1bupe0ptcvk9isjs,AXDgRPZX,2020-0188,2020-05-21,11:25:59,11:54:38,NA,incomplete,96,filling,0,right,Green_Plus_Chess_3.jpg,Red_Star_Stripes_3.jpg,Purple_Circle_Chess_1.jpg,right,798.3349999994971,true,low,NA,NA,NA,NA,NA,NA,NA,false
AXDgRPZX,3j6bhnx0vc5zv8hudcso2u6bq3dnka,3itxp059p0w3nl1bupe0ptcvk9isjs,AXDgRPZX,2020-0188,2020-05-21,11:25:59,11:54:38,NA,incomplete,97,filling,1,left,Red_Plus_Dots_4.jpg,Purple_Circle_Dots_2.jpg,Green_Star_Chess_4.jpg,left,875.8650000090711,true,low,NA,NA,NA,NA,NA,NA,NA,false
AXDgRPZX,3j6bhnx0vc5zv8hudcso2u6bq3dnka,3itxp059p0w3nl1bupe0ptcvk9isjs,AXDgRPZX,2020-0188,2020-05-21,11:25:59,11:54:38,NA,incomplete,98,filling,1,left,Green_Star_Grid_3.jpg,Blue_Plus_Grid_2.jpg,Red_Triangle_Stripes_3.jpg,left,900.2849999815226,true,low,NA,NA,NA,NA,NA,NA,NA,false
AXDgRPZX,3j6bhnx0vc5zv8hudcso2u6bq3dnka,3itxp059p0w3nl1bupe0ptcvk9isjs,AXDgRPZX,2020-0188,2020-05-21,11:25:59,11:54:38,NA,incomplete,99,filling,1,right,Green_Circle_Chess_4.jpg,Purple_Triangle_Grid_4.jpg,Red_Plus_Chess_3.jpg,right,676.2999999918975,true,low,NA,NA,NA,NA,NA,NA,NA,false
AXDgRPZX,3j6bhnx0vc5zv8hudcso2u6bq3dnka,3itxp059p0w3nl1bupe0ptcvk9isjs,AXDgRPZX,2020-0188,2020-05-21,11:25:59,11:54:38,NA,incomplete,100,filling,0,right,Green_Plus_Chess_3.jpg,Red_Star_Grid_3.jpg,Blue_Circle_Chess_4.jpg,right,661.3849999848753,true,low,NA,NA,NA,NA,NA,NA,NA,false
AXDgRPZX,3j6bhnx0vc5zv8hudcso2u6bq3dnka,3itxp059p0w3nl1bupe0ptcvk9isjs,AXDgRPZX,2020-0188,2020-05-21,11:25:59,11:54:38,NA,incomplete,101,filling,1,left,Purple_Star_Chess_3.jpg,Green_Plus_Chess_4.jpg,Red_Circle_Stripes_3.jpg,left,727.3150000255555,true,low,NA,NA,NA,NA,NA,NA,NA,false
AXDgRPZX,3j6bhnx0vc5zv8hudcso2u6bq3dnka,3itxp059p0w3nl1bupe0ptcvk9isjs,AXDgRPZX,2020-0188,2020-05-21,11:25:59,11:54:38,NA,incomplete,102,filling,0,right,Purple_Star_Stripes_1.jpg,Blue_Triangle_Dots_1.jpg,Red_Plus_Stripes_4.jpg,right,663.7199999531731,true,low,NA,NA,NA,NA,NA,NA,NA,false
AXDgRPZX,3j6bhnx0vc5zv8hudcso2u6bq3dnka,3itxp059p0w3nl1bupe0ptcvk9isjs,AXDgRPZX,2020-0188,2020-05-21,11:25:59,11:54:38,NA,incomplete,103,filling,1,right,Blue_Circle_Dots_1.jpg,Purple_Plus_Stripes_1.jpg,Green_Star_Dots_3.jpg,left,1049.300000013318,false,low,NA,NA,NA,NA,NA,NA,NA,false
AXDgRPZX,3j6bhnx0vc5zv8hudcso2u6bq3dnka,3itxp059p0w3nl1bupe0ptcvk9isjs,AXDgRPZX,2020-0188,2020-05-21,11:25:59,11:54:38,NA,incomplete,104,filling,1,right,Green_Circle_Chess_4.jpg,Red_Star_Grid_4.jpg,Purple_Triangle_Chess_3.jpg,right,531.4599999692291,true,low,NA,NA,NA,NA,NA,NA,NA,false
AXDgRPZX,3j6bhnx0vc5zv8hudcso2u6bq3dnka,3itxp059p0w3nl1bupe0ptcvk9isjs,AXDgRPZX,2020-0188,2020-05-21,11:25:59,11:54:38,NA,incomplete,105,filling,0,right,Red_Star_Dots_4.jpg,Blue_Plus_Stripes_4.jpg,Purple_Triangle_Dots_3.jpg,right,658.4750000038184,true,low,NA,NA,NA,NA,NA,NA,NA,false
AXDgRPZX,3j6bhnx0vc5zv8hudcso2u6bq3dnka,3itxp059p0w3nl1bupe0ptcvk9isjs,AXDgRPZX,2020-0188,2020-05-21,11:25:59,11:54:38,NA,incomplete,106,filling,1,right,Green_Circle_Stripes_2.jpg,Purple_Plus_Chess_2.jpg,Red_Star_Stripes_3.jpg,right,949.0000000223517,true,low,NA,NA,NA,NA,NA,NA,NA,false
AXDgRPZX,3j6bhnx0vc5zv8hudcso2u6bq3dnka,3itxp059p0w3nl1bupe0ptcvk9isjs,AXDgRPZX,2020-0188,2020-05-21,11:25:59,11:54:38,NA,incomplete,107,filling,1,left,Green_Plus_Grid_3.jpg,Blue_Circle_Grid_2.jpg,Red_Triangle_Dots_3.jpg,left,771.8499999609776,true,low,NA,NA,NA,NA,NA,NA,NA,false
AXDgRPZX,3j6bhnx0vc5zv8hudcso2u6bq3dnka,3itxp059p0w3nl1bupe0ptcvk9isjs,AXDgRPZX,2020-0188,2020-05-21,11:25:59,11:54:38,NA,incomplete,108,filling,1,left,Red_Triangle_Dots_3.jpg,Purple_Plus_Dots_1.jpg,Blue_Star_Grid_3.jpg,right,585.3650000062771,false,low,NA,NA,NA,NA,NA,NA,NA,false
AXDgRPZX,3j6bhnx0vc5zv8hudcso2u6bq3dnka,3itxp059p0w3nl1bupe0ptcvk9isjs,AXDgRPZX,2020-0188,2020-05-21,11:25:59,11:54:38,NA,incomplete,109,filling,0,right,Red_Star_Stripes_4.jpg,Purple_Triangle_Dots_4.jpg,Blue_Plus_Stripes_3.jpg,left,501.29499996546656,false,low,NA,NA,NA,NA,NA,NA,NA,false
AXDgRPZX,3j6bhnx0vc5zv8hudcso2u6bq3dnka,3itxp059p0w3nl1bupe0ptcvk9isjs,AXDgRPZX,2020-0188,2020-05-21,11:25:59,11:54:38,NA,incomplete,110,filling,1,right,Purple_Star_Chess_1.jpg,Red_Triangle_Grid_1.jpg,Green_Circle_Chess_3.jpg,right,454.34999995632097,true,low,NA,NA,NA,NA,NA,NA,NA,false
AXDgRPZX,3j6bhnx0vc5zv8hudcso2u6bq3dnka,3itxp059p0w3nl1bupe0ptcvk9isjs,AXDgRPZX,2020-0188,2020-05-21,11:25:59,11:54:38,NA,incomplete,111,filling,1,left,Red_Circle_Chess_1.jpg,Green_Star_Chess_3.jpg,Purple_Triangle_Grid_1.jpg,right,599.6150000137277,false,low,NA,NA,NA,NA,NA,NA,NA,false
AXDgRPZX,3j6bhnx0vc5zv8hudcso2u6bq3dnka,3itxp059p0w3nl1bupe0ptcvk9isjs,AXDgRPZX,2020-0188,2020-05-21,11:25:59,11:54:38,NA,incomplete,112,filling,0,right,Red_Plus_Grid_4.jpg,Green_Triangle_Dots_4.jpg,Blue_Star_Grid_3.jpg,left,693.204999959562,false,low,NA,NA,NA,NA,NA,NA,NA,false
AXDgRPZX,3j6bhnx0vc5zv8hudcso2u6bq3dnka,3itxp059p0w3nl1bupe0ptcvk9isjs,AXDgRPZX,2020-0188,2020-05-21,11:25:59,11:54:38,NA,incomplete,113,filling,1,right,Blue_Plus_Stripes_1.jpg,Green_Circle_Dots_1.jpg,Purple_Star_Stripes_2.jpg,right,652.3799999849871,true,low,NA,NA,NA,NA,NA,NA,NA,false
AXDgRPZX,3j6bhnx0vc5zv8hudcso2u6bq3dnka,3itxp059p0w3nl1bupe0ptcvk9isjs,AXDgRPZX,2020-0188,2020-05-21,11:25:59,11:54:38,NA,incomplete,114,filling,1,right,Red_Star_Chess_3.jpg,Purple_Triangle_Stripes_3.jpg,Green_Plus_Chess_4.jpg,right,606.3549999962561,true,low,NA,NA,NA,NA,NA,NA,NA,false
AXDgRPZX,3j6bhnx0vc5zv8hudcso2u6bq3dnka,3itxp059p0w3nl1bupe0ptcvk9isjs,AXDgRPZX,2020-0188,2020-05-21,11:25:59,11:54:38,NA,incomplete,115,filling,1,left,Blue_Star_Stripes_2.jpg,Red_Triangle_Stripes_1.jpg,Purple_Plus_Grid_2.jpg,right,929.3249999755062,false,low,NA,NA,NA,NA,NA,NA,NA,false
AXDgRPZX,3j6bhnx0vc5zv8hudcso2u6bq3dnka,3itxp059p0w3nl1bupe0ptcvk9isjs,AXDgRPZX,2020-0188,2020-05-21,11:25:59,11:54:38,NA,incomplete,116,filling,0,right,Purple_Circle_Stripes_1.jpg,Green_Triangle_Dots_1.jpg,Blue_Star_Stripes_3.jpg,right,674.364999984391,true,low,NA,NA,NA,NA,NA,NA,NA,false
AXDgRPZX,3j6bhnx0vc5zv8hudcso2u6bq3dnka,3itxp059p0w3nl1bupe0ptcvk9isjs,AXDgRPZX,2020-0188,2020-05-21,11:25:59,11:54:38,NA,incomplete,117,filling,1,left,Purple_Triangle_Grid_1.jpg,Green_Star_Grid_4.jpg,Blue_Circle_Dots_1.jpg,left,563.6000000522472,true,low,NA,NA,NA,NA,NA,NA,NA,false
AXDgRPZX,3j6bhnx0vc5zv8hudcso2u6bq3dnka,3itxp059p0w3nl1bupe0ptcvk9isjs,AXDgRPZX,2020-0188,2020-05-21,11:25:59,11:54:38,NA,incomplete,118,filling,1,left,Purple_Star_Dots_3.jpg,Red_Circle_Dots_4.jpg,Blue_Plus_Chess_3.jpg,right,481.3499999581836,false,low,NA,NA,NA,NA,NA,NA,NA,false
AXDgRPZX,3j6bhnx0vc5zv8hudcso2u6bq3dnka,3itxp059p0w3nl1bupe0ptcvk9isjs,AXDgRPZX,2020-0188,2020-05-21,11:25:59,11:54:38,NA,incomplete,119,filling,0,right,Blue_Triangle_Chess_3.jpg,Purple_Star_Stripes_3.jpg,Red_Plus_Chess_1.jpg,left,467.3750000074506,false,low,NA,NA,NA,NA,NA,NA,NA,false
AXDgRPZX,3j6bhnx0vc5zv8hudcso2u6bq3dnka,3itxp059p0w3nl1bupe0ptcvk9isjs,AXDgRPZX,2020-0188,2020-05-21,11:25:59,11:54:38,NA,incomplete,120,color,0,right,Red_Star_Dots_2.jpg,Purple_Star_Grid_1.jpg,Red_Plus_Stripes_3.jpg,NA,NA,NA,low,NA,NA,NA,NA,NA,NA,NA,false
AXDgRPZX,3j6bhnx0vc5zv8hudcso2u6bq3dnka,3itxp059p0w3nl1bupe0ptcvk9isjs,AXDgRPZX,2020-0188,2020-05-21,11:25:59,11:54:38,NA,incomplete,121,color,1,left,Purple_Circle_Dots_4.jpg,Purple_Triangle_Chess_2.jpg,Red_Circle_Grid_3.jpg,left,577.1899999817833,true,low,NA,NA,NA,NA,NA,NA,NA,false
AXDgRPZX,3j6bhnx0vc5zv8hudcso2u6bq3dnka,3itxp059p0w3nl1bupe0ptcvk9isjs,AXDgRPZX,2020-0188,2020-05-21,11:25:59,11:54:38,NA,incomplete,122,color,1,left,Red_Triangle_Dots_4.jpg,Red_Plus_Stripes_1.jpg,Blue_Triangle_Grid_3.jpg,left,557.9750000033528,true,low,NA,NA,NA,NA,NA,NA,NA,false
AXDgRPZX,3j6bhnx0vc5zv8hudcso2u6bq3dnka,3itxp059p0w3nl1bupe0ptcvk9isjs,AXDgRPZX,2020-0188,2020-05-21,11:25:59,11:54:38,NA,incomplete,123,color,0,left,Green_Triangle_Dots_4.jpg,Green_Plus_Chess_2.jpg,Purple_Triangle_Stripes_1.jpg,left,972.3549999762326,true,low,NA,NA,NA,NA,NA,NA,NA,false
AXDgRPZX,3j6bhnx0vc5zv8hudcso2u6bq3dnka,3itxp059p0w3nl1bupe0ptcvk9isjs,AXDgRPZX,2020-0188,2020-05-21,11:25:59,11:54:38,NA,incomplete,124,color,1,right,Blue_Star_Grid_3.jpg,Purple_Star_Stripes_1.jpg,Blue_Triangle_Dots_4.jpg,left,833.4049999830313,false,low,NA,NA,NA,NA,NA,NA,NA,false
AXDgRPZX,3j6bhnx0vc5zv8hudcso2u6bq3dnka,3itxp059p0w3nl1bupe0ptcvk9isjs,AXDgRPZX,2020-0188,2020-05-21,11:25:59,11:54:38,NA,incomplete,125,color,1,right,Blue_Triangle_Grid_1.jpg,Purple_Triangle_Chess_2.jpg,Blue_Star_Stripes_3.jpg,right,756.4450000063516,true,low,NA,NA,NA,NA,NA,NA,NA,false
AXDgRPZX,3j6bhnx0vc5zv8hudcso2u6bq3dnka,3itxp059p0w3nl1bupe0ptcvk9isjs,AXDgRPZX,2020-0188,2020-05-21,11:25:59,11:54:38,NA,incomplete,126,color,1,right,Red_Circle_Chess_4.jpg,Blue_Circle_Dots_2.jpg,Red_Plus_Stripes_1.jpg,right,546.4399999473244,true,low,NA,NA,NA,NA,NA,NA,NA,false
AXDgRPZX,3j6bhnx0vc5zv8hudcso2u6bq3dnka,3itxp059p0w3nl1bupe0ptcvk9isjs,AXDgRPZX,2020-0188,2020-05-21,11:25:59,11:54:38,NA,incomplete,127,color,0,right,Blue_Plus_Chess_1.jpg,Red_Plus_Grid_2.jpg,Blue_Circle_Dots_4.jpg,right,1039.9949999991804,true,low,NA,NA,NA,NA,NA,NA,NA,false
AXDgRPZX,3j6bhnx0vc5zv8hudcso2u6bq3dnka,3itxp059p0w3nl1bupe0ptcvk9isjs,AXDgRPZX,2020-0188,2020-05-21,11:25:59,11:54:38,NA,incomplete,128,color,1,left,Blue_Circle_Stripes_1.jpg,Blue_Triangle_Chess_3.jpg,Green_Circle_Grid_4.jpg,left,530.5050000315532,true,low,NA,NA,NA,NA,NA,NA,NA,false
AXDgRPZX,3j6bhnx0vc5zv8hudcso2u6bq3dnka,3itxp059p0w3nl1bupe0ptcvk9isjs,AXDgRPZX,2020-0188,2020-05-21,11:25:59,11:54:38,NA,incomplete,129,color,0,right,Red_Star_Grid_1.jpg,Green_Star_Dots_4.jpg,Red_Plus_Stripes_3.jpg,right,498.39500000234693,true,low,NA,NA,NA,NA,NA,NA,NA,false
AXDgRPZX,3j6bhnx0vc5zv8hudcso2u6bq3dnka,3itxp059p0w3nl1bupe0ptcvk9isjs,AXDgRPZX,2020-0188,2020-05-21,11:25:59,11:54:38,NA,incomplete,130,color,1,left,Red_Star_Chess_3.jpg,Red_Plus_Dots_2.jpg,Green_Star_Grid_1.jpg,left,675.504999991972,true,low,NA,NA,NA,NA,NA,NA,NA,false
AXDgRPZX,3j6bhnx0vc5zv8hudcso2u6bq3dnka,3itxp059p0w3nl1bupe0ptcvk9isjs,AXDgRPZX,2020-0188,2020-05-21,11:25:59,11:54:38,NA,incomplete,131,color,1,right,Red_Plus_Dots_3.jpg,Green_Plus_Chess_1.jpg,Red_Circle_Grid_4.jpg,right,580.5149999796413,true,low,NA,NA,NA,NA,NA,NA,NA,false
AXDgRPZX,3j6bhnx0vc5zv8hudcso2u6bq3dnka,3itxp059p0w3nl1bupe0ptcvk9isjs,AXDgRPZX,2020-0188,2020-05-21,11:25:59,11:54:38,NA,incomplete,132,color,1,right,Blue_Plus_Chess_1.jpg,Purple_Plus_Dots_2.jpg,Blue_Circle_Grid_3.jpg,right,522.5750000099652,true,low,NA,NA,NA,NA,NA,NA,NA,false
AXDgRPZX,3j6bhnx0vc5zv8hudcso2u6bq3dnka,3itxp059p0w3nl1bupe0ptcvk9isjs,AXDgRPZX,2020-0188,2020-05-21,11:25:59,11:54:38,NA,incomplete,133,color,0,left,Purple_Triangle_Dots_2.jpg,Purple_Plus_Stripes_4.jpg,Red_Triangle_Chess_1.jpg,left,481.29000002518296,true,low,NA,NA,NA,NA,NA,NA,NA,false
AXDgRPZX,3j6bhnx0vc5zv8hudcso2u6bq3dnka,3itxp059p0w3nl1bupe0ptcvk9isjs,AXDgRPZX,2020-0188,2020-05-21,11:25:59,11:54:38,NA,incomplete,134,color,1,left,Purple_Circle_Grid_2.jpg,Purple_Triangle_Stripes_3.jpg,Blue_Circle_Chess_4.jpg,left,555.2349999779835,true,low,NA,NA,NA,NA,NA,NA,NA,false
AXDgRPZX,3j6bhnx0vc5zv8hudcso2u6bq3dnka,3itxp059p0w3nl1bupe0ptcvk9isjs,AXDgRPZX,2020-0188,2020-05-21,11:25:59,11:54:38,NA,incomplete,135,color,1,right,Red_Circle_Grid_4.jpg,Green_Circle_Dots_2.jpg,Red_Plus_Chess_1.jpg,right,560.1699999533594,true,low,NA,NA,NA,NA,NA,NA,NA,false
AXDgRPZX,3j6bhnx0vc5zv8hudcso2u6bq3dnka,3itxp059p0w3nl1bupe0ptcvk9isjs,AXDgRPZX,2020-0188,2020-05-21,11:25:59,11:54:38,NA,incomplete,136,color,1,left,Purple_Star_Stripes_1.jpg,Purple_Plus_Dots_2.jpg,Red_Star_Grid_3.jpg,left,535.3050000267103,true,low,NA,NA,NA,NA,NA,NA,NA,false
AXDgRPZX,3j6bhnx0vc5zv8hudcso2u6bq3dnka,3itxp059p0w3nl1bupe0ptcvk9isjs,AXDgRPZX,2020-0188,2020-05-21,11:25:59,11:54:38,NA,incomplete,137,color,0,right,Blue_Triangle_Dots_3.jpg,Red_Triangle_Chess_2.jpg,Blue_Circle_Stripes_1.jpg,right,510.65000001108274,true,low,NA,NA,NA,NA,NA,NA,NA,false
AXDgRPZX,3j6bhnx0vc5zv8hudcso2u6bq3dnka,3itxp059p0w3nl1bupe0ptcvk9isjs,AXDgRPZX,2020-0188,2020-05-21,11:25:59,11:54:38,NA,incomplete,138,color,1,left,Red_Triangle_Chess_4.jpg,Red_Plus_Dots_2.jpg,Blue_Triangle_Grid_1.jpg,left,496.34000001242384,true,low,NA,NA,NA,NA,NA,NA,NA,false
AXDgRPZX,3j6bhnx0vc5zv8hudcso2u6bq3dnka,3itxp059p0w3nl1bupe0ptcvk9isjs,AXDgRPZX,2020-0188,2020-05-21,11:25:59,11:54:38,NA,incomplete,139,color,0,left,Blue_Star_Grid_4.jpg,Blue_Plus_Stripes_1.jpg,Purple_Star_Chess_3.jpg,left,495.5700000282377,true,low,NA,NA,NA,NA,NA,NA,NA,false
AXDgRPZX,3j6bhnx0vc5zv8hudcso2u6bq3dnka,3itxp059p0w3nl1bupe0ptcvk9isjs,AXDgRPZX,2020-0188,2020-05-21,11:25:59,11:54:38,NA,incomplete,140,shape,1,right,Red_Circle_Chess_1.jpg,Red_Plus_Dots_2.jpg,Blue_Circle_Grid_4.jpg,right,560.6099999858998,true,low,NA,NA,NA,NA,NA,NA,NA,false
AXDgRPZX,3j6bhnx0vc5zv8hudcso2u6bq3dnka,3itxp059p0w3nl1bupe0ptcvk9isjs,AXDgRPZX,2020-0188,2020-05-21,11:25:59,11:54:38,NA,incomplete,141,shape,1,right,Green_Plus_Stripes_2.jpg,Green_Star_Chess_1.jpg,Purple_Plus_Dots_4.jpg,left,814.5449999719858,false,low,NA,NA,NA,NA,NA,NA,NA,false
AXDgRPZX,3j6bhnx0vc5zv8hudcso2u6bq3dnka,3itxp059p0w3nl1bupe0ptcvk9isjs,AXDgRPZX,2020-0188,2020-05-21,11:25:59,11:54:38,NA,incomplete,142,shape,1,right,Purple_Circle_Dots_4.jpg,Purple_Plus_Stripes_1.jpg,Blue_Circle_Grid_2.jpg,left,490.87999999755993,false,low,NA,NA,NA,NA,NA,NA,NA,false
AXDgRPZX,3j6bhnx0vc5zv8hudcso2u6bq3dnka,3itxp059p0w3nl1bupe0ptcvk9isjs,AXDgRPZX,2020-0188,2020-05-21,11:25:59,11:54:38,NA,incomplete,143,shape,1,left,Blue_Star_Dots_2.jpg,Purple_Star_Chess_4.jpg,Blue_Plus_Grid_3.jpg,right,562.2499999590218,false,low,NA,NA,NA,NA,NA,NA,NA,false
AXDgRPZX,3j6bhnx0vc5zv8hudcso2u6bq3dnka,3itxp059p0w3nl1bupe0ptcvk9isjs,AXDgRPZX,2020-0188,2020-05-21,11:25:59,11:54:38,NA,incomplete,144,shape,1,right,Green_Plus_Dots_4.jpg,Green_Triangle_Stripes_2.jpg,Purple_Plus_Chess_1.jpg,left,472.2300000139512,false,low,NA,NA,NA,NA,NA,NA,NA,false
AXDgRPZX,3j6bhnx0vc5zv8hudcso2u6bq3dnka,3itxp059p0w3nl1bupe0ptcvk9isjs,AXDgRPZX,2020-0188,2020-05-21,11:25:59,11:54:38,NA,incomplete,145,shape,0,left,Green_Plus_Chess_2.jpg,Red_Plus_Stripes_1.jpg,Green_Star_Dots_4.jpg,right,514.6149999927729,false,low,NA,NA,NA,NA,NA,NA,NA,false
AXDgRPZX,3j6bhnx0vc5zv8hudcso2u6bq3dnka,3itxp059p0w3nl1bupe0ptcvk9isjs,AXDgRPZX,2020-0188,2020-05-21,11:25:59,11:54:38,NA,incomplete,146,shape,1,right,Blue_Circle_Stripes_2.jpg,Blue_Triangle_Dots_4.jpg,Purple_Circle_Chess_3.jpg,left,474.37000001082197,false,low,NA,NA,NA,NA,NA,NA,NA,false
AXDgRPZX,3j6bhnx0vc5zv8hudcso2u6bq3dnka,3itxp059p0w3nl1bupe0ptcvk9isjs,AXDgRPZX,2020-0188,2020-05-21,11:25:59,11:54:38,NA,incomplete,147,shape,1,right,Red_Star_Dots_3.jpg,Red_Triangle_Grid_4.jpg,Blue_Star_Stripes_2.jpg,left,419.27000001305714,false,low,NA,NA,NA,NA,NA,NA,NA,false
AXDgRPZX,3j6bhnx0vc5zv8hudcso2u6bq3dnka,3itxp059p0w3nl1bupe0ptcvk9isjs,AXDgRPZX,2020-0188,2020-05-21,11:25:59,11:54:38,NA,incomplete,148,shape,1,right,Red_Circle_Grid_4.jpg,Red_Star_Chess_1.jpg,Blue_Circle_Stripes_2.jpg,left,671.730000001844,false,low,NA,NA,NA,NA,NA,NA,NA,false
AXDgRPZX,3j6bhnx0vc5zv8hudcso2u6bq3dnka,3itxp059p0w3nl1bupe0ptcvk9isjs,AXDgRPZX,2020-0188,2020-05-21,11:25:59,11:54:38,NA,incomplete,149,shape,1,left,Red_Circle_Grid_3.jpg,Purple_Circle_Chess_1.jpg,Red_Plus_Dots_2.jpg,right,384.4299999764189,false,low,NA,NA,NA,NA,NA,NA,NA,false
AXDgRPZX,3j6bhnx0vc5zv8hudcso2u6bq3dnka,3itxp059p0w3nl1bupe0ptcvk9isjs,AXDgRPZX,2020-0188,2020-05-21,11:25:59,11:54:38,NA,incomplete,150,shape,1,left,Purple_Star_Stripes_3.jpg,Green_Star_Dots_1.jpg,Purple_Circle_Chess_4.jpg,right,460.3899999638088,false,low,NA,NA,NA,NA,NA,NA,NA,false
AXDgRPZX,3j6bhnx0vc5zv8hudcso2u6bq3dnka,3itxp059p0w3nl1bupe0ptcvk9isjs,AXDgRPZX,2020-0188,2020-05-21,11:25:59,11:54:38,NA,incomplete,151,shape,1,right,Green_Circle_Dots_3.jpg,Green_Star_Grid_2.jpg,Blue_Circle_Chess_1.jpg,left,415.91999999945983,false,low,NA,NA,NA,NA,NA,NA,NA,false
AXDgRPZX,3j6bhnx0vc5zv8hudcso2u6bq3dnka,3itxp059p0w3nl1bupe0ptcvk9isjs,AXDgRPZX,2020-0188,2020-05-21,11:25:59,11:54:38,NA,incomplete,152,shape,1,left,Red_Star_Chess_3.jpg,Green_Star_Dots_4.jpg,Red_Triangle_Stripes_1.jpg,right,522.0799999660812,false,low,NA,NA,NA,NA,NA,NA,NA,false
AXDgRPZX,3j6bhnx0vc5zv8hudcso2u6bq3dnka,3itxp059p0w3nl1bupe0ptcvk9isjs,AXDgRPZX,2020-0188,2020-05-21,11:25:59,11:54:38,NA,incomplete,153,shape,1,left,Purple_Circle_Grid_2.jpg,Red_Circle_Dots_4.jpg,Purple_Plus_Chess_1.jpg,right,442.3250000108965,false,low,NA,NA,NA,NA,NA,NA,NA,false
AXDgRPZX,3j6bhnx0vc5zv8hudcso2u6bq3dnka,3itxp059p0w3nl1bupe0ptcvk9isjs,AXDgRPZX,2020-0188,2020-05-21,11:25:59,11:54:38,NA,incomplete,154,shape,1,left,Red_Plus_Dots_4.jpg,Purple_Plus_Grid_2.jpg,Red_Circle_Chess_1.jpg,right,444.8299999930896,false,low,NA,NA,NA,NA,NA,NA,NA,false
AXDgRPZX,3j6bhnx0vc5zv8hudcso2u6bq3dnka,3itxp059p0w3nl1bupe0ptcvk9isjs,AXDgRPZX,2020-0188,2020-05-21,11:25:59,11:54:38,NA,incomplete,155,shape,1,left,Green_Triangle_Dots_4.jpg,Purple_Triangle_Chess_3.jpg,Green_Circle_Grid_1.jpg,right,382.48500000918284,false,low,NA,NA,NA,NA,NA,NA,NA,false
AXDgRPZX,3j6bhnx0vc5zv8hudcso2u6bq3dnka,3itxp059p0w3nl1bupe0ptcvk9isjs,AXDgRPZX,2020-0188,2020-05-21,11:25:59,11:54:38,NA,incomplete,156,shape,1,right,Blue_Circle_Chess_2.jpg,Blue_Triangle_Dots_1.jpg,Green_Circle_Grid_4.jpg,left,740.349999978207,false,low,NA,NA,NA,NA,NA,NA,NA,false
AXDgRPZX,3j6bhnx0vc5zv8hudcso2u6bq3dnka,3itxp059p0w3nl1bupe0ptcvk9isjs,AXDgRPZX,2020-0188,2020-05-21,11:25:59,11:54:38,NA,incomplete,157,shape,1,left,Green_Circle_Grid_4.jpg,Purple_Circle_Stripes_2.jpg,Green_Triangle_Dots_3.jpg,right,419.3699999595992,false,low,NA,NA,NA,NA,NA,NA,NA,false
AXDgRPZX,3j6bhnx0vc5zv8hudcso2u6bq3dnka,3itxp059p0w3nl1bupe0ptcvk9isjs,AXDgRPZX,2020-0188,2020-05-21,11:25:59,11:54:38,NA,incomplete,158,shape,0,left,Purple_Plus_Grid_2.jpg,Blue_Plus_Stripes_1.jpg,Purple_Circle_Chess_4.jpg,left,654.5100000221282,true,low,NA,NA,NA,NA,NA,NA,NA,false
AXDgRPZX,3j6bhnx0vc5zv8hudcso2u6bq3dnka,3itxp059p0w3nl1bupe0ptcvk9isjs,AXDgRPZX,2020-0188,2020-05-21,11:25:59,11:54:38,NA,incomplete,159,shape,1,left,Blue_Triangle_Stripes_4.jpg,Purple_Triangle_Grid_1.jpg,Blue_Plus_Chess_3.jpg,right,433.0349999945611,false,low,NA,NA,NA,NA,NA,NA,NA,false
AXDgRPZX,3j6bhnx0vc5zv8hudcso2u6bq3dnka,3itxp059p0w3nl1bupe0ptcvk9isjs,AXDgRPZX,2020-0188,2020-05-21,11:25:59,11:54:38,NA,incomplete,160,color,1,right,Purple_Plus_Chess_3.jpg,Blue_Plus_Grid_4.jpg,Purple_Circle_Dots_2.jpg,right,435.3300000075251,true,low,NA,NA,NA,NA,NA,NA,NA,false
AXDgRPZX,3j6bhnx0vc5zv8hudcso2u6bq3dnka,3itxp059p0w3nl1bupe0ptcvk9isjs,AXDgRPZX,2020-0188,2020-05-21,11:25:59,11:54:38,NA,incomplete,161,color,0,left,Purple_Circle_Grid_1.jpg,Purple_Plus_Dots_4.jpg,Green_Circle_Chess_3.jpg,right,645.4399999929592,false,low,NA,NA,NA,NA,NA,NA,NA,false
AXDgRPZX,3j6bhnx0vc5zv8hudcso2u6bq3dnka,3itxp059p0w3nl1bupe0ptcvk9isjs,AXDgRPZX,2020-0188,2020-05-21,11:25:59,11:54:38,NA,incomplete,162,color,1,left,Green_Triangle_Stripes_3.jpg,Green_Star_Dots_2.jpg,Blue_Triangle_Grid_4.jpg,left,616.5650000330061,true,low,NA,NA,NA,NA,NA,NA,NA,false
AXDgRPZX,3j6bhnx0vc5zv8hudcso2u6bq3dnka,3itxp059p0w3nl1bupe0ptcvk9isjs,AXDgRPZX,2020-0188,2020-05-21,11:25:59,11:54:38,NA,incomplete,163,color,1,right,Green_Triangle_Chess_1.jpg,Purple_Triangle_Dots_4.jpg,Green_Plus_Stripes_3.jpg,right,555.5250000325032,true,low,NA,NA,NA,NA,NA,NA,NA,false
AXDgRPZX,3j6bhnx0vc5zv8hudcso2u6bq3dnka,3itxp059p0w3nl1bupe0ptcvk9isjs,AXDgRPZX,2020-0188,2020-05-21,11:25:59,11:54:38,NA,incomplete,164,color,1,right,Blue_Star_Dots_1.jpg,Red_Star_Chess_3.jpg,Blue_Plus_Stripes_2.jpg,right,554.584999976214,true,low,NA,NA,NA,NA,NA,NA,NA,false
AXDgRPZX,3j6bhnx0vc5zv8hudcso2u6bq3dnka,3itxp059p0w3nl1bupe0ptcvk9isjs,AXDgRPZX,2020-0188,2020-05-21,11:25:59,11:54:38,NA,incomplete,165,color,1,right,Green_Plus_Chess_3.jpg,Blue_Plus_Grid_1.jpg,Green_Star_Stripes_2.jpg,right,512.5700000207871,true,low,NA,NA,NA,NA,NA,NA,NA,false
AXDgRPZX,3j6bhnx0vc5zv8hudcso2u6bq3dnka,3itxp059p0w3nl1bupe0ptcvk9isjs,AXDgRPZX,2020-0188,2020-05-21,11:25:59,11:54:38,NA,incomplete,166,color,1,right,Red_Star_Grid_3.jpg,Green_Star_Chess_1.jpg,Red_Triangle_Dots_2.jpg,right,559.3550000339746,true,low,NA,NA,NA,NA,NA,NA,NA,false
AXDgRPZX,3j6bhnx0vc5zv8hudcso2u6bq3dnka,3itxp059p0w3nl1bupe0ptcvk9isjs,AXDgRPZX,2020-0188,2020-05-21,11:25:59,11:54:38,NA,incomplete,167,color,1,left,Green_Star_Chess_2.jpg,Green_Circle_Dots_4.jpg,Red_Star_Stripes_1.jpg,left,494.1949999774806,true,low,NA,NA,NA,NA,NA,NA,NA,false
AXDgRPZX,3j6bhnx0vc5zv8hudcso2u6bq3dnka,3itxp059p0w3nl1bupe0ptcvk9isjs,AXDgRPZX,2020-0188,2020-05-21,11:25:59,11:54:38,NA,incomplete,168,color,1,left,Blue_Circle_Dots_4.jpg,Blue_Plus_Grid_1.jpg,Green_Circle_Stripes_3.jpg,left,510.21000003675,true,low,NA,NA,NA,NA,NA,NA,NA,false
AXDgRPZX,3j6bhnx0vc5zv8hudcso2u6bq3dnka,3itxp059p0w3nl1bupe0ptcvk9isjs,AXDgRPZX,2020-0188,2020-05-21,11:25:59,11:54:38,NA,incomplete,169,color,0,right,Green_Plus_Stripes_2.jpg,Purple_Plus_Chess_1.jpg,Green_Circle_Dots_4.jpg,right,502.65500001842156,true,low,NA,NA,NA,NA,NA,NA,NA,false
AXDgRPZX,3j6bhnx0vc5zv8hudcso2u6bq3dnka,3itxp059p0w3nl1bupe0ptcvk9isjs,AXDgRPZX,2020-0188,2020-05-21,11:25:59,11:54:38,NA,incomplete,170,color,1,right,Red_Circle_Stripes_4.jpg,Blue_Circle_Chess_3.jpg,Red_Plus_Dots_1.jpg,right,528.4599999431521,true,low,NA,NA,NA,NA,NA,NA,NA,false
AXDgRPZX,3j6bhnx0vc5zv8hudcso2u6bq3dnka,3itxp059p0w3nl1bupe0ptcvk9isjs,AXDgRPZX,2020-0188,2020-05-21,11:25:59,11:54:38,NA,incomplete,171,color,1,right,Blue_Triangle_Dots_2.jpg,Red_Triangle_Chess_3.jpg,Blue_Circle_Stripes_4.jpg,right,398.3400000142865,true,low,NA,NA,NA,NA,NA,NA,NA,false
AXDgRPZX,3j6bhnx0vc5zv8hudcso2u6bq3dnka,3itxp059p0w3nl1bupe0ptcvk9isjs,AXDgRPZX,2020-0188,2020-05-21,11:25:59,11:54:38,NA,incomplete,172,color,1,left,Green_Triangle_Stripes_3.jpg,Green_Plus_Grid_1.jpg,Blue_Triangle_Dots_2.jpg,right,498.40499996207654,false,low,NA,NA,NA,NA,NA,NA,NA,false
AXDgRPZX,3j6bhnx0vc5zv8hudcso2u6bq3dnka,3itxp059p0w3nl1bupe0ptcvk9isjs,AXDgRPZX,2020-0188,2020-05-21,11:25:59,11:54:38,NA,incomplete,173,color,1,left,Purple_Star_Chess_1.jpg,Purple_Triangle_Grid_3.jpg,Red_Star_Dots_2.jpg,right,443.34499997785315,false,low,NA,NA,NA,NA,NA,NA,NA,false
AXDgRPZX,3j6bhnx0vc5zv8hudcso2u6bq3dnka,3itxp059p0w3nl1bupe0ptcvk9isjs,AXDgRPZX,2020-0188,2020-05-21,11:25:59,11:54:38,NA,incomplete,174,color,1,left,Green_Plus_Stripes_3.jpg,Green_Circle_Chess_2.jpg,Blue_Plus_Grid_4.jpg,right,573.8100000307895,false,low,NA,NA,NA,NA,NA,NA,NA,false
AXDgRPZX,3j6bhnx0vc5zv8hudcso2u6bq3dnka,3itxp059p0w3nl1bupe0ptcvk9isjs,AXDgRPZX,2020-0188,2020-05-21,11:25:59,11:54:38,NA,incomplete,175,color,1,left,Purple_Star_Chess_2.jpg,Purple_Circle_Stripes_1.jpg,Red_Star_Dots_3.jpg,left,651.6149999806657,true,low,NA,NA,NA,NA,NA,NA,NA,false
AXDgRPZX,3j6bhnx0vc5zv8hudcso2u6bq3dnka,3itxp059p0w3nl1bupe0ptcvk9isjs,AXDgRPZX,2020-0188,2020-05-21,11:25:59,11:54:38,NA,incomplete,176,color,1,right,Green_Circle_Grid_2.jpg,Red_Circle_Stripes_1.jpg,Green_Plus_Chess_4.jpg,left,453.3700000029057,false,low,NA,NA,NA,NA,NA,NA,NA,false
AXDgRPZX,3j6bhnx0vc5zv8hudcso2u6bq3dnka,3itxp059p0w3nl1bupe0ptcvk9isjs,AXDgRPZX,2020-0188,2020-05-21,11:25:59,11:54:38,NA,incomplete,177,color,0,right,Green_Circle_Chess_3.jpg,Purple_Circle_Grid_1.jpg,Green_Plus_Dots_4.jpg,none,0,false,low,NA,NA,NA,NA,NA,NA,NA,false
AXDgRPZX,3j6bhnx0vc5zv8hudcso2u6bq3dnka,3itxp059p0w3nl1bupe0ptcvk9isjs,AXDgRPZX,2020-0188,2020-05-21,11:25:59,11:54:38,NA,incomplete,178,color,1,left,Green_Star_Chess_4.jpg,Green_Circle_Grid_2.jpg,Blue_Star_Dots_3.jpg,right,613.3200000040233,false,low,NA,NA,NA,NA,NA,NA,NA,false
AXDgRPZX,3j6bhnx0vc5zv8hudcso2u6bq3dnka,3itxp059p0w3nl1bupe0ptcvk9isjs,AXDgRPZX,2020-0188,2020-05-21,11:25:59,11:54:38,NA,incomplete,179,color,1,left,Purple_Circle_Grid_4.jpg,Purple_Triangle_Dots_1.jpg,Red_Circle_Chess_3.jpg,left,385.7749999733642,true,low,NA,NA,NA,NA,NA,NA,NA,false
AXDgRPZX,3j6bhnx0vc5zv8hudcso2u6bq3dnka,3itxp059p0w3nl1bupe0ptcvk9isjs,AXDgRPZX,2020-0188,2020-05-21,11:25:59,11:54:38,NA,incomplete,180,shape,1,left,Green_Circle_Chess_1.jpg,Red_Circle_Dots_3.jpg,Green_Star_Stripes_4.jpg,left,713.3449999964796,true,low,NA,NA,NA,NA,NA,NA,NA,false
AXDgRPZX,3j6bhnx0vc5zv8hudcso2u6bq3dnka,3itxp059p0w3nl1bupe0ptcvk9isjs,AXDgRPZX,2020-0188,2020-05-21,11:25:59,11:54:38,NA,incomplete,181,shape,1,left,Red_Star_Grid_2.jpg,Green_Star_Chess_3.jpg,Red_Triangle_Stripes_1.jpg,right,1397.724999987986,false,low,NA,NA,NA,NA,NA,NA,NA,false
AXDgRPZX,3j6bhnx0vc5zv8hudcso2u6bq3dnka,3itxp059p0w3nl1bupe0ptcvk9isjs,AXDgRPZX,2020-0188,2020-05-21,11:25:59,11:54:38,NA,incomplete,182,shape,1,left,Purple_Star_Dots_3.jpg,Red_Star_Grid_4.jpg,Purple_Triangle_Stripes_1.jpg,right,707.1700000087731,false,low,NA,NA,NA,NA,NA,NA,NA,false
AXDgRPZX,3j6bhnx0vc5zv8hudcso2u6bq3dnka,3itxp059p0w3nl1bupe0ptcvk9isjs,AXDgRPZX,2020-0188,2020-05-21,11:25:59,11:54:38,NA,incomplete,183,shape,0,left,Purple_Star_Stripes_4.jpg,Blue_Star_Dots_2.jpg,Purple_Triangle_Grid_1.jpg,right,1326.7849999829195,false,low,NA,NA,NA,NA,NA,NA,NA,false
AXDgRPZX,3j6bhnx0vc5zv8hudcso2u6bq3dnka,3itxp059p0w3nl1bupe0ptcvk9isjs,AXDgRPZX,2020-0188,2020-05-21,11:25:59,11:54:38,NA,incomplete,184,shape,1,right,Green_Plus_Dots_4.jpg,Green_Triangle_Grid_1.jpg,Blue_Plus_Stripes_3.jpg,left,1193.7049999833107,false,low,NA,NA,NA,NA,NA,NA,NA,false
AXDgRPZX,3j6bhnx0vc5zv8hudcso2u6bq3dnka,3itxp059p0w3nl1bupe0ptcvk9isjs,AXDgRPZX,2020-0188,2020-05-21,11:25:59,11:54:38,NA,incomplete,185,shape,1,left,Green_Star_Chess_2.jpg,Blue_Star_Stripes_3.jpg,Green_Circle_Grid_1.jpg,right,1534.2800000216812,false,low,NA,NA,NA,NA,NA,NA,NA,false
AXDgRPZX,3j6bhnx0vc5zv8hudcso2u6bq3dnka,3itxp059p0w3nl1bupe0ptcvk9isjs,AXDgRPZX,2020-0188,2020-05-21,11:25:59,11:54:38,NA,incomplete,186,shape,1,right,Red_Circle_Chess_3.jpg,Red_Triangle_Dots_2.jpg,Blue_Circle_Stripes_4.jpg,left,123.41000000014901,false,low,NA,NA,NA,NA,NA,NA,NA,false
AXDgRPZX,3j6bhnx0vc5zv8hudcso2u6bq3dnka,3itxp059p0w3nl1bupe0ptcvk9isjs,AXDgRPZX,2020-0188,2020-05-21,11:25:59,11:54:38,NA,incomplete,187,shape,1,left,Blue_Circle_Stripes_3.jpg,Purple_Circle_Chess_4.jpg,Blue_Plus_Grid_2.jpg,left,284.479999972973,true,low,NA,NA,NA,NA,NA,NA,NA,false
AXDgRPZX,3j6bhnx0vc5zv8hudcso2u6bq3dnka,3itxp059p0w3nl1bupe0ptcvk9isjs,AXDgRPZX,2020-0188,2020-05-21,11:25:59,11:54:38,NA,incomplete,188,shape,1,left,Red_Plus_Grid_1.jpg,Green_Plus_Chess_2.jpg,Red_Triangle_Dots_4.jpg,right,733.0599999986589,false,low,NA,NA,NA,NA,NA,NA,NA,false
AXDgRPZX,3j6bhnx0vc5zv8hudcso2u6bq3dnka,3itxp059p0w3nl1bupe0ptcvk9isjs,AXDgRPZX,2020-0188,2020-05-21,11:25:59,11:54:38,NA,incomplete,189,shape,1,left,Purple_Circle_Dots_2.jpg,Green_Circle_Chess_3.jpg,Purple_Plus_Grid_1.jpg,right,228.36000000825152,false,low,NA,NA,NA,NA,NA,NA,NA,false
AXDgRPZX,3j6bhnx0vc5zv8hudcso2u6bq3dnka,3itxp059p0w3nl1bupe0ptcvk9isjs,AXDgRPZX,2020-0188,2020-05-21,11:25:59,11:54:38,NA,incomplete,190,shape,1,left,Purple_Plus_Stripes_4.jpg,Green_Plus_Dots_1.jpg,Purple_Star_Grid_3.jpg,right,239.3900000024587,false,low,NA,NA,NA,NA,NA,NA,NA,false
AXDgRPZX,3j6bhnx0vc5zv8hudcso2u6bq3dnka,3itxp059p0w3nl1bupe0ptcvk9isjs,AXDgRPZX,2020-0188,2020-05-21,11:25:59,11:54:38,NA,incomplete,191,shape,0,right,Purple_Star_Chess_2.jpg,Purple_Triangle_Stripes_4.jpg,Blue_Star_Dots_1.jpg,left,611.3699999987148,false,low,NA,NA,NA,NA,NA,NA,NA,false
AXDgRPZX,3j6bhnx0vc5zv8hudcso2u6bq3dnka,3itxp059p0w3nl1bupe0ptcvk9isjs,AXDgRPZX,2020-0188,2020-05-21,11:25:59,11:54:38,NA,incomplete,192,shape,1,right,Purple_Star_Dots_4.jpg,Purple_Plus_Stripes_3.jpg,Green_Star_Chess_2.jpg,left,398.30000000074506,false,low,NA,NA,NA,NA,NA,NA,NA,false
AXDgRPZX,3j6bhnx0vc5zv8hudcso2u6bq3dnka,3itxp059p0w3nl1bupe0ptcvk9isjs,AXDgRPZX,2020-0188,2020-05-21,11:25:59,11:54:38,NA,incomplete,193,shape,1,left,Purple_Triangle_Stripes_4.jpg,Green_Triangle_Dots_3.jpg,Purple_Circle_Grid_1.jpg,left,419.43500004708767,true,low,NA,NA,NA,NA,NA,NA,NA,false
AXDgRPZX,3j6bhnx0vc5zv8hudcso2u6bq3dnka,3itxp059p0w3nl1bupe0ptcvk9isjs,AXDgRPZX,2020-0188,2020-05-21,11:25:59,11:54:38,NA,incomplete,194,shape,0,right,Blue_Star_Dots_4.jpg,Blue_Circle_Chess_1.jpg,Purple_Star_Stripes_2.jpg,left,325.90500003425404,false,low,NA,NA,NA,NA,NA,NA,NA,false
AXDgRPZX,3j6bhnx0vc5zv8hudcso2u6bq3dnka,3itxp059p0w3nl1bupe0ptcvk9isjs,AXDgRPZX,2020-0188,2020-05-21,11:25:59,11:54:38,NA,incomplete,195,shape,1,right,Purple_Circle_Chess_3.jpg,Purple_Triangle_Stripes_2.jpg,Blue_Circle_Grid_4.jpg,left,319.67999995686114,false,low,NA,NA,NA,NA,NA,NA,NA,false
AXDgRPZX,3j6bhnx0vc5zv8hudcso2u6bq3dnka,3itxp059p0w3nl1bupe0ptcvk9isjs,AXDgRPZX,2020-0188,2020-05-21,11:25:59,11:54:38,NA,incomplete,196,shape,0,right,Blue_Triangle_Dots_4.jpg,Blue_Circle_Stripes_1.jpg,Green_Triangle_Chess_3.jpg,left,334.41000001039356,false,low,NA,NA,NA,NA,NA,NA,NA,false
AXDgRPZX,3j6bhnx0vc5zv8hudcso2u6bq3dnka,3itxp059p0w3nl1bupe0ptcvk9isjs,AXDgRPZX,2020-0188,2020-05-21,11:25:59,11:54:38,NA,incomplete,197,shape,1,left,Purple_Triangle_Stripes_1.jpg,Red_Triangle_Chess_3.jpg,Purple_Star_Grid_4.jpg,left,299.99000002862886,true,low,NA,NA,NA,NA,NA,NA,NA,false
AXDgRPZX,3j6bhnx0vc5zv8hudcso2u6bq3dnka,3itxp059p0w3nl1bupe0ptcvk9isjs,AXDgRPZX,2020-0188,2020-05-21,11:25:59,11:54:38,NA,incomplete,198,shape,1,right,Blue_Plus_Grid_3.jpg,Blue_Star_Stripes_1.jpg,Green_Plus_Dots_2.jpg,left,309.4050000072457,false,low,NA,NA,NA,NA,NA,NA,NA,false
AXDgRPZX,3j6bhnx0vc5zv8hudcso2u6bq3dnka,3itxp059p0w3nl1bupe0ptcvk9isjs,AXDgRPZX,2020-0188,2020-05-21,11:25:59,11:54:38,NA,incomplete,199,shape,1,left,Purple_Plus_Dots_2.jpg,Green_Plus_Grid_1.jpg,Purple_Star_Stripes_4.jpg,right,461.4150000270456,false,low,NA,NA,NA,NA,NA,NA,NA,false
AXDgRPZX,3j6bhnx0vc5zv8hudcso2u6bq3dnka,3itxp059p0w3nl1bupe0ptcvk9isjs,AXDgRPZX,2020-0188,2020-05-21,11:25:59,11:54:38,NA,incomplete,200,color,1,left,Purple_Star_Stripes_2.jpg,Purple_Triangle_Grid_1.jpg,Green_Star_Dots_4.jpg,right,471.0599999525584,false,low,NA,NA,NA,NA,NA,NA,NA,false
AXDgRPZX,3j6bhnx0vc5zv8hudcso2u6bq3dnka,3itxp059p0w3nl1bupe0ptcvk9isjs,AXDgRPZX,2020-0188,2020-05-21,11:25:59,11:54:38,NA,incomplete,201,color,0,left,Green_Star_Grid_2.jpg,Green_Triangle_Dots_4.jpg,Blue_Star_Stripes_3.jpg,left,344.4599999929778,true,low,NA,NA,NA,NA,NA,NA,NA,false
AXDgRPZX,3j6bhnx0vc5zv8hudcso2u6bq3dnka,3itxp059p0w3nl1bupe0ptcvk9isjs,AXDgRPZX,2020-0188,2020-05-21,11:25:59,11:54:38,NA,incomplete,202,color,1,right,Blue_Triangle_Chess_3.jpg,Red_Triangle_Dots_1.jpg,Blue_Star_Stripes_2.jpg,right,486.27499997382984,true,low,NA,NA,NA,NA,NA,NA,NA,false
AXDgRPZX,3j6bhnx0vc5zv8hudcso2u6bq3dnka,3itxp059p0w3nl1bupe0ptcvk9isjs,AXDgRPZX,2020-0188,2020-05-21,11:25:59,11:54:38,NA,incomplete,203,color,0,left,Red_Star_Grid_4.jpg,Red_Plus_Chess_3.jpg,Blue_Star_Stripes_2.jpg,left,503.39000002713874,true,low,NA,NA,NA,NA,NA,NA,NA,false
AXDgRPZX,3j6bhnx0vc5zv8hudcso2u6bq3dnka,3itxp059p0w3nl1bupe0ptcvk9isjs,AXDgRPZX,2020-0188,2020-05-21,11:25:59,11:54:38,NA,incomplete,204,color,1,left,Purple_Triangle_Dots_4.jpg,Purple_Plus_Grid_2.jpg,Red_Triangle_Stripes_1.jpg,left,391.0299999988638,true,low,NA,NA,NA,NA,NA,NA,NA,false
AXDgRPZX,3j6bhnx0vc5zv8hudcso2u6bq3dnka,3itxp059p0w3nl1bupe0ptcvk9isjs,AXDgRPZX,2020-0188,2020-05-21,11:25:59,11:54:38,NA,incomplete,205,color,1,right,Red_Plus_Stripes_4.jpg,Green_Plus_Dots_1.jpg,Red_Star_Grid_3.jpg,left,323.3849999960512,false,low,NA,NA,NA,NA,NA,NA,NA,false
AXDgRPZX,3j6bhnx0vc5zv8hudcso2u6bq3dnka,3itxp059p0w3nl1bupe0ptcvk9isjs,AXDgRPZX,2020-0188,2020-05-21,11:25:59,11:54:38,NA,incomplete,206,color,1,right,Green_Star_Chess_2.jpg,Red_Star_Dots_3.jpg,Green_Plus_Grid_4.jpg,left,396.06499997898936,false,low,NA,NA,NA,NA,NA,NA,NA,false
AXDgRPZX,3j6bhnx0vc5zv8hudcso2u6bq3dnka,3itxp059p0w3nl1bupe0ptcvk9isjs,AXDgRPZX,2020-0188,2020-05-21,11:25:59,11:54:38,NA,incomplete,207,color,1,left,Green_Plus_Grid_3.jpg,Green_Circle_Stripes_4.jpg,Blue_Plus_Dots_1.jpg,left,263.5299999965355,true,low,NA,NA,NA,NA,NA,NA,NA,false
AXDgRPZX,3j6bhnx0vc5zv8hudcso2u6bq3dnka,3itxp059p0w3nl1bupe0ptcvk9isjs,AXDgRPZX,2020-0188,2020-05-21,11:25:59,11:54:38,NA,incomplete,208,color,0,left,Purple_Plus_Chess_2.jpg,Purple_Circle_Dots_3.jpg,Green_Plus_Grid_1.jpg,left,408.72000000672415,true,low,NA,NA,NA,NA,NA,NA,NA,false
AXDgRPZX,3j6bhnx0vc5zv8hudcso2u6bq3dnka,3itxp059p0w3nl1bupe0ptcvk9isjs,AXDgRPZX,2020-0188,2020-05-21,11:25:59,11:54:38,NA,incomplete,209,color,1,right,Green_Plus_Stripes_2.jpg,Red_Plus_Dots_3.jpg,Green_Circle_Chess_4.jpg,left,222.24499995354563,false,low,NA,NA,NA,NA,NA,NA,NA,false
AXDgRPZX,3j6bhnx0vc5zv8hudcso2u6bq3dnka,3itxp059p0w3nl1bupe0ptcvk9isjs,AXDgRPZX,2020-0188,2020-05-21,11:25:59,11:54:38,NA,incomplete,210,color,1,left,Red_Circle_Dots_1.jpg,Red_Plus_Grid_2.jpg,Green_Circle_Chess_4.jpg,left,417.3900000168942,true,low,NA,NA,NA,NA,NA,NA,NA,false
AXDgRPZX,3j6bhnx0vc5zv8hudcso2u6bq3dnka,3itxp059p0w3nl1bupe0ptcvk9isjs,AXDgRPZX,2020-0188,2020-05-21,11:25:59,11:54:38,NA,incomplete,211,color,1,right,Blue_Plus_Dots_3.jpg,Green_Plus_Grid_1.jpg,Blue_Circle_Chess_4.jpg,left,4.799999995157123,false,low,NA,NA,NA,NA,NA,NA,NA,false
AXDgRPZX,3j6bhnx0vc5zv8hudcso2u6bq3dnka,3itxp059p0w3nl1bupe0ptcvk9isjs,AXDgRPZX,2020-0188,2020-05-21,11:25:59,11:54:38,NA,incomplete,212,color,1,right,Red_Triangle_Stripes_4.jpg,Green_Triangle_Chess_3.jpg,Red_Star_Dots_1.jpg,left,456.83500001905486,false,low,NA,NA,NA,NA,NA,NA,NA,false
AXDgRPZX,3j6bhnx0vc5zv8hudcso2u6bq3dnka,3itxp059p0w3nl1bupe0ptcvk9isjs,AXDgRPZX,2020-0188,2020-05-21,11:25:59,11:54:38,NA,incomplete,213,color,1,right,Blue_Triangle_Grid_2.jpg,Green_Triangle_Dots_1.jpg,Blue_Circle_Chess_3.jpg,right,651.7299999832176,true,low,NA,NA,NA,NA,NA,NA,NA,false
AXDgRPZX,3j6bhnx0vc5zv8hudcso2u6bq3dnka,3itxp059p0w3nl1bupe0ptcvk9isjs,AXDgRPZX,2020-0188,2020-05-21,11:25:59,11:54:38,NA,incomplete,214,color,1,left,Blue_Triangle_Stripes_2.jpg,Blue_Star_Chess_1.jpg,Red_Triangle_Grid_3.jpg,right,477.3100000456907,false,low,NA,NA,NA,NA,NA,NA,NA,false
AXDgRPZX,3j6bhnx0vc5zv8hudcso2u6bq3dnka,3itxp059p0w3nl1bupe0ptcvk9isjs,AXDgRPZX,2020-0188,2020-05-21,11:25:59,11:54:38,NA,incomplete,215,color,1,left,Purple_Triangle_Chess_4.jpg,Purple_Star_Dots_2.jpg,Blue_Triangle_Stripes_3.jpg,left,380.0550000160001,true,low,NA,NA,NA,NA,NA,NA,NA,false
AXDgRPZX,3j6bhnx0vc5zv8hudcso2u6bq3dnka,3itxp059p0w3nl1bupe0ptcvk9isjs,AXDgRPZX,2020-0188,2020-05-21,11:25:59,11:54:38,NA,incomplete,216,color,1,left,Purple_Plus_Dots_1.jpg,Purple_Star_Stripes_3.jpg,Red_Plus_Grid_2.jpg,left,372.6250000181608,true,low,NA,NA,NA,NA,NA,NA,NA,false
AXDgRPZX,3j6bhnx0vc5zv8hudcso2u6bq3dnka,3itxp059p0w3nl1bupe0ptcvk9isjs,AXDgRPZX,2020-0188,2020-05-21,11:25:59,11:54:38,NA,incomplete,217,color,1,right,Green_Triangle_Dots_3.jpg,Red_Triangle_Grid_2.jpg,Green_Circle_Stripes_4.jpg,left,385.37500001257285,false,low,NA,NA,NA,NA,NA,NA,NA,false
AXDgRPZX,3j6bhnx0vc5zv8hudcso2u6bq3dnka,3itxp059p0w3nl1bupe0ptcvk9isjs,AXDgRPZX,2020-0188,2020-05-21,11:25:59,11:54:38,NA,incomplete,218,color,1,left,Purple_Circle_Grid_3.jpg,Purple_Plus_Stripes_1.jpg,Blue_Circle_Chess_4.jpg,left,310.6250000419095,true,low,NA,NA,NA,NA,NA,NA,NA,false
AXDgRPZX,3j6bhnx0vc5zv8hudcso2u6bq3dnka,3itxp059p0w3nl1bupe0ptcvk9isjs,AXDgRPZX,2020-0188,2020-05-21,11:25:59,11:54:38,NA,incomplete,219,color,1,right,Blue_Circle_Stripes_2.jpg,Green_Circle_Grid_1.jpg,Blue_Star_Dots_4.jpg,left,358.3900000085123,false,low,NA,NA,NA,NA,NA,NA,NA,false
AXDgRPZX,3j6bhnx0vc5zv8hudcso2u6bq3dnka,3itxp059p0w3nl1bupe0ptcvk9isjs,AXDgRPZX,2020-0188,2020-05-21,11:25:59,11:54:38,NA,incomplete,220,shape,1,left,Green_Plus_Grid_1.jpg,Blue_Plus_Stripes_2.jpg,Green_Star_Chess_4.jpg,right,123.72000003233552,false,low,NA,NA,NA,NA,NA,NA,NA,false
AXDgRPZX,3j6bhnx0vc5zv8hudcso2u6bq3dnka,3itxp059p0w3nl1bupe0ptcvk9isjs,AXDgRPZX,2020-0188,2020-05-21,11:25:59,11:54:38,NA,incomplete,221,shape,1,right,Purple_Circle_Chess_2.jpg,Purple_Triangle_Dots_1.jpg,Red_Circle_Stripes_4.jpg,right,451.44500001333654,true,low,NA,NA,NA,NA,NA,NA,NA,false
AXDgRPZX,3j6bhnx0vc5zv8hudcso2u6bq3dnka,3itxp059p0w3nl1bupe0ptcvk9isjs,AXDgRPZX,2020-0188,2020-05-21,11:25:59,11:54:38,NA,incomplete,222,shape,0,left,Red_Star_Chess_1.jpg,Green_Star_Stripes_3.jpg,Red_Plus_Dots_4.jpg,right,748.3650000067428,false,low,NA,NA,NA,NA,NA,NA,NA,false
AXDgRPZX,3j6bhnx0vc5zv8hudcso2u6bq3dnka,3itxp059p0w3nl1bupe0ptcvk9isjs,AXDgRPZX,2020-0188,2020-05-21,11:25:59,11:54:38,NA,incomplete,223,shape,1,left,Blue_Plus_Chess_1.jpg,Green_Plus_Dots_4.jpg,Blue_Circle_Grid_2.jpg,right,476.35000001173466,false,low,NA,NA,NA,NA,NA,NA,NA,false
AXDgRPZX,3j6bhnx0vc5zv8hudcso2u6bq3dnka,3itxp059p0w3nl1bupe0ptcvk9isjs,AXDgRPZX,2020-0188,2020-05-21,11:25:59,11:54:38,NA,incomplete,224,shape,0,left,Red_Plus_Dots_1.jpg,Green_Plus_Stripes_4.jpg,Red_Triangle_Grid_3.jpg,right,661.9000000064261,false,low,NA,NA,NA,NA,NA,NA,NA,false
AXDgRPZX,3j6bhnx0vc5zv8hudcso2u6bq3dnka,3itxp059p0w3nl1bupe0ptcvk9isjs,AXDgRPZX,2020-0188,2020-05-21,11:25:59,11:54:38,NA,incomplete,225,shape,1,right,Green_Triangle_Chess_1.jpg,Green_Star_Dots_2.jpg,Red_Triangle_Stripes_3.jpg,left,479.46499998215586,false,low,NA,NA,NA,NA,NA,NA,NA,false
AXDgRPZX,3j6bhnx0vc5zv8hudcso2u6bq3dnka,3itxp059p0w3nl1bupe0ptcvk9isjs,AXDgRPZX,2020-0188,2020-05-21,11:25:59,11:54:38,NA,incomplete,226,shape,1,left,Red_Star_Grid_4.jpg,Blue_Star_Dots_1.jpg,Red_Triangle_Stripes_3.jpg,left,200.55500004673377,true,low,NA,NA,NA,NA,NA,NA,NA,false
AXDgRPZX,3j6bhnx0vc5zv8hudcso2u6bq3dnka,3itxp059p0w3nl1bupe0ptcvk9isjs,AXDgRPZX,2020-0188,2020-05-21,11:25:59,11:54:38,NA,incomplete,227,shape,1,right,Purple_Circle_Dots_2.jpg,Purple_Triangle_Stripes_1.jpg,Green_Circle_Chess_3.jpg,left,404.4100000173785,false,low,NA,NA,NA,NA,NA,NA,NA,false
AXDgRPZX,3j6bhnx0vc5zv8hudcso2u6bq3dnka,3itxp059p0w3nl1bupe0ptcvk9isjs,AXDgRPZX,2020-0188,2020-05-21,11:25:59,11:54:38,NA,incomplete,228,shape,0,left,Green_Circle_Grid_3.jpg,Purple_Circle_Dots_4.jpg,Green_Plus_Stripes_1.jpg,right,632.1749999769963,false,low,NA,NA,NA,NA,NA,NA,NA,false
AXDgRPZX,3j6bhnx0vc5zv8hudcso2u6bq3dnka,3itxp059p0w3nl1bupe0ptcvk9isjs,AXDgRPZX,2020-0188,2020-05-21,11:25:59,11:54:38,NA,incomplete,229,shape,1,right,Green_Plus_Grid_2.jpg,Green_Triangle_Chess_4.jpg,Blue_Plus_Stripes_1.jpg,right,393.5349999810569,true,low,NA,NA,NA,NA,NA,NA,NA,false
AXDgRPZX,3j6bhnx0vc5zv8hudcso2u6bq3dnka,3itxp059p0w3nl1bupe0ptcvk9isjs,AXDgRPZX,2020-0188,2020-05-21,11:25:59,11:54:38,NA,incomplete,230,shape,1,right,Green_Plus_Dots_3.jpg,Green_Triangle_Stripes_4.jpg,Blue_Plus_Chess_2.jpg,left,256.9249999942258,false,low,NA,NA,NA,NA,NA,NA,NA,false
AXDgRPZX,3j6bhnx0vc5zv8hudcso2u6bq3dnka,3itxp059p0w3nl1bupe0ptcvk9isjs,AXDgRPZX,2020-0188,2020-05-21,11:25:59,11:54:38,NA,incomplete,231,shape,1,left,Blue_Triangle_Dots_1.jpg,Green_Triangle_Chess_2.jpg,Blue_Star_Stripes_3.jpg,left,34.31999997701496,true,low,NA,NA,NA,NA,NA,NA,NA,false
AXDgRPZX,3j6bhnx0vc5zv8hudcso2u6bq3dnka,3itxp059p0w3nl1bupe0ptcvk9isjs,AXDgRPZX,2020-0188,2020-05-21,11:25:59,11:54:38,NA,incomplete,232,shape,1,right,Blue_Plus_Chess_2.jpg,Blue_Triangle_Grid_3.jpg,Green_Plus_Stripes_1.jpg,left,326.30499999504536,false,low,NA,NA,NA,NA,NA,NA,NA,false
AXDgRPZX,3j6bhnx0vc5zv8hudcso2u6bq3dnka,3itxp059p0w3nl1bupe0ptcvk9isjs,AXDgRPZX,2020-0188,2020-05-21,11:25:59,11:54:38,NA,incomplete,233,shape,0,left,Purple_Star_Chess_1.jpg,Green_Star_Grid_2.jpg,Purple_Plus_Stripes_4.jpg,right,159.51000002678484,false,low,NA,NA,NA,NA,NA,NA,NA,false
AXDgRPZX,3j6bhnx0vc5zv8hudcso2u6bq3dnka,3itxp059p0w3nl1bupe0ptcvk9isjs,AXDgRPZX,2020-0188,2020-05-21,11:25:59,11:54:38,NA,incomplete,234,shape,1,right,Blue_Plus_Grid_4.jpg,Blue_Star_Chess_3.jpg,Green_Plus_Dots_1.jpg,right,522.4750000052154,true,low,NA,NA,NA,NA,NA,NA,NA,false
AXDgRPZX,3j6bhnx0vc5zv8hudcso2u6bq3dnka,3itxp059p0w3nl1bupe0ptcvk9isjs,AXDgRPZX,2020-0188,2020-05-21,11:25:59,11:54:38,NA,incomplete,235,shape,1,left,Purple_Circle_Stripes_2.jpg,Blue_Circle_Dots_3.jpg,Purple_Triangle_Grid_4.jpg,right,714.3550000037067,false,low,NA,NA,NA,NA,NA,NA,NA,false
AXDgRPZX,3j6bhnx0vc5zv8hudcso2u6bq3dnka,3itxp059p0w3nl1bupe0ptcvk9isjs,AXDgRPZX,2020-0188,2020-05-21,11:25:59,11:54:38,NA,incomplete,236,shape,0,left,Green_Plus_Dots_1.jpg,Purple_Plus_Grid_3.jpg,Green_Triangle_Chess_4.jpg,right,673.9850000012666,false,low,NA,NA,NA,NA,NA,NA,NA,false
AXDgRPZX,3j6bhnx0vc5zv8hudcso2u6bq3dnka,3itxp059p0w3nl1bupe0ptcvk9isjs,AXDgRPZX,2020-0188,2020-05-21,11:25:59,11:54:38,NA,incomplete,237,shape,1,left,Green_Plus_Dots_2.jpg,Blue_Plus_Chess_1.jpg,Green_Circle_Stripes_3.jpg,left,388.3149999892339,true,low,NA,NA,NA,NA,NA,NA,NA,false
AXDgRPZX,3j6bhnx0vc5zv8hudcso2u6bq3dnka,3itxp059p0w3nl1bupe0ptcvk9isjs,AXDgRPZX,2020-0188,2020-05-21,11:25:59,11:54:38,NA,incomplete,238,shape,1,left,Red_Triangle_Stripes_4.jpg,Blue_Triangle_Chess_2.jpg,Red_Circle_Grid_1.jpg,left,463.1200000294484,true,low,NA,NA,NA,NA,NA,NA,NA,false
AXDgRPZX,3j6bhnx0vc5zv8hudcso2u6bq3dnka,3itxp059p0w3nl1bupe0ptcvk9isjs,AXDgRPZX,2020-0188,2020-05-21,11:25:59,11:54:38,NA,incomplete,239,shape,1,right,Blue_Star_Chess_1.jpg,Blue_Plus_Stripes_3.jpg,Red_Star_Grid_4.jpg,left,106.35000001639128,false,low,NA,NA,NA,NA,NA,NA,NA,false
AXDgRPZX,3j6bhnx0vc5zv8hudcso2u6bq3dnka,3itxp059p0w3nl1bupe0ptcvk9isjs,AXDgRPZX,2020-0188,2020-05-21,11:25:59,11:54:38,NA,NA,instruction example,number,NA,NA,Blue_Star_Chess_1.jpg,Purple_Plus_Stripes_1.jpg,Green_Triangle_Chess_2.jpg,NA,NA,NA,NA,NA,NA,NA,NA,NA,NA,NA,undefined
AXDgRPZX,3j6bhnx0vc5zv8hudcso2u6bq3dnka,3itxp059p0w3nl1bupe0ptcvk9isjs,AXDgRPZX,2020-0188,2020-05-21,11:25:59,11:54:38,NA,NA,instruction example,number,NA,NA,Blue_Star_Stripes_3.jpg,Red_Triangle_Stripes_4.jpg,Purple_Circle_Dots_3.jpg,NA,NA,NA,NA,NA,NA,NA,NA,NA,NA,NA,undefined
AXDgRPZX,3j6bhnx0vc5zv8hudcso2u6bq3dnka,3itxp059p0w3nl1bupe0ptcvk9isjs,AXDgRPZX,2020-0188,2020-05-21,11:25:59,11:54:38,NA,NA,instruction example,number,NA,NA,Blue_Plus_Chess_1.jpg,Blue_Circle_Stripes_2.jpg,Green_Plus_Dots_3.jpg,NA,NA,NA,NA,NA,NA,NA,NA,NA,NA,NA,undefined
AXDgRPZX,3j6bhnx0vc5zv8hudcso2u6bq3dnka,3itxp059p0w3nl1bupe0ptcvk9isjs,AXDgRPZX,2020-0188,2020-05-21,11:25:59,11:54:38,NA,NA,instruction example,number,NA,NA,Green_Circle_Dots_1.jpg,Red_Circle_Grid_2.jpg,Green_Plus_Stripes_3.jpg,NA,NA,NA,NA,NA,NA,NA,NA,NA,NA,NA,undefined
AXDgRPZX,3j6bhnx0vc5zv8hudcso2u6bq3dnka,3itxp059p0w3nl1bupe0ptcvk9isjs,AXDgRPZX,2020-0188,2020-05-21,11:25:59,11:54:38,1694013.7700000196,1719197.060000035,NA,NA,NA,NA,NA,NA,NA,NA,NA,NA,NA,25,Asian,Female,chinese,no,no,no,undefined
