workerId,hitId,assignmentId,subject,studyid,exp_date,exp_start,exp_end,time_start,time_end,trial,type,reward_validity,answer,image_top,image_left,image_right,response,response_time,response_acc,volatility,practice
RKbbyTjb,3dzkabx20liukfefnqxhosng7x6cv3,3j4q2z4ut2gdgpmx9k8ajjr24lzwq3,RKbbyTjb,2020-0188,2020-05-21,22:04:48,22:22:13,NA,incomplete,0,number,1,left,Purple_Star_Stripes_2.jpg,Red_Circle_Chess_2.jpg,Blue_Star_Dots_3.jpg,right,1451.3399999996182,false,NA,true
RKbbyTjb,3dzkabx20liukfefnqxhosng7x6cv3,3j4q2z4ut2gdgpmx9k8ajjr24lzwq3,RKbbyTjb,2020-0188,2020-05-21,22:04:48,22:22:13,NA,incomplete,1,number,1,left,Red_Plus_Stripes_4.jpg,Purple_Circle_Chess_4.jpg,Green_Plus_Dots_1.jpg,left,836.7650000145659,true,NA,true
RKbbyTjb,3dzkabx20liukfefnqxhosng7x6cv3,3j4q2z4ut2gdgpmx9k8ajjr24lzwq3,RKbbyTjb,2020-0188,2020-05-21,22:04:48,22:22:13,NA,incomplete,2,number,1,right,Red_Triangle_Grid_4.jpg,Purple_Triangle_Dots_2.jpg,Green_Plus_Chess_4.jpg,right,997.0949999988079,true,NA,true
RKbbyTjb,3dzkabx20liukfefnqxhosng7x6cv3,3j4q2z4ut2gdgpmx9k8ajjr24lzwq3,RKbbyTjb,2020-0188,2020-05-21,22:04:48,22:22:13,NA,incomplete,3,number,0,left,Red_Star_Dots_4.jpg,Green_Plus_Grid_4.jpg,Purple_Star_Stripes_3.jpg,left,878.1550000130665,true,NA,true
RKbbyTjb,3dzkabx20liukfefnqxhosng7x6cv3,3j4q2z4ut2gdgpmx9k8ajjr24lzwq3,RKbbyTjb,2020-0188,2020-05-21,22:04:48,22:22:13,NA,incomplete,4,number,1,left,Purple_Star_Stripes_1.jpg,Red_Triangle_Dots_1.jpg,Blue_Star_Chess_2.jpg,right,1032.7350000152364,false,NA,true
RKbbyTjb,3dzkabx20liukfefnqxhosng7x6cv3,3j4q2z4ut2gdgpmx9k8ajjr24lzwq3,RKbbyTjb,2020-0188,2020-05-21,22:04:48,22:22:13,NA,incomplete,5,number,1,right,Purple_Plus_Stripes_2.jpg,Blue_Plus_Chess_3.jpg,Red_Circle_Dots_2.jpg,right,963.1099999824073,true,NA,true
RKbbyTjb,3dzkabx20liukfefnqxhosng7x6cv3,3j4q2z4ut2gdgpmx9k8ajjr24lzwq3,RKbbyTjb,2020-0188,2020-05-21,22:04:48,22:22:13,NA,incomplete,6,number,1,right,Purple_Star_Grid_2.jpg,Green_Star_Chess_4.jpg,Blue_Circle_Stripes_2.jpg,right,778.7250000110362,true,NA,true
RKbbyTjb,3dzkabx20liukfefnqxhosng7x6cv3,3j4q2z4ut2gdgpmx9k8ajjr24lzwq3,RKbbyTjb,2020-0188,2020-05-21,22:04:48,22:22:13,NA,incomplete,7,number,1,left,Red_Triangle_Dots_3.jpg,Blue_Circle_Chess_3.jpg,Green_Triangle_Grid_1.jpg,left,855.5599999963306,true,NA,true
RKbbyTjb,3dzkabx20liukfefnqxhosng7x6cv3,3j4q2z4ut2gdgpmx9k8ajjr24lzwq3,RKbbyTjb,2020-0188,2020-05-21,22:04:48,22:22:13,NA,incomplete,8,number,1,right,Purple_Plus_Chess_3.jpg,Blue_Plus_Grid_1.jpg,Green_Triangle_Stripes_3.jpg,right,696.5399999753572,true,NA,true
RKbbyTjb,3dzkabx20liukfefnqxhosng7x6cv3,3j4q2z4ut2gdgpmx9k8ajjr24lzwq3,RKbbyTjb,2020-0188,2020-05-21,22:04:48,22:22:13,NA,incomplete,9,number,0,left,Red_Plus_Grid_3.jpg,Blue_Star_Chess_3.jpg,Green_Plus_Stripes_4.jpg,left,758.9750000042841,true,NA,true
RKbbyTjb,3dzkabx20liukfefnqxhosng7x6cv3,3j4q2z4ut2gdgpmx9k8ajjr24lzwq3,RKbbyTjb,2020-0188,2020-05-21,22:04:48,22:22:13,NA,incomplete,10,number,1,right,Purple_Star_Chess_3.jpg,Blue_Star_Stripes_1.jpg,Green_Plus_Grid_3.jpg,right,773.4850000124425,true,NA,true
RKbbyTjb,3dzkabx20liukfefnqxhosng7x6cv3,3j4q2z4ut2gdgpmx9k8ajjr24lzwq3,RKbbyTjb,2020-0188,2020-05-21,22:04:48,22:22:13,NA,incomplete,11,number,1,right,Red_Star_Dots_1.jpg,Purple_Star_Grid_2.jpg,Green_Triangle_Chess_1.jpg,right,672.5699999951757,true,NA,true
RKbbyTjb,3dzkabx20liukfefnqxhosng7x6cv3,3j4q2z4ut2gdgpmx9k8ajjr24lzwq3,RKbbyTjb,2020-0188,2020-05-21,22:04:48,22:22:13,NA,incomplete,12,number,1,right,Purple_Circle_Grid_3.jpg,Blue_Circle_Stripes_1.jpg,Red_Star_Dots_3.jpg,right,640.4399999883026,true,NA,true
RKbbyTjb,3dzkabx20liukfefnqxhosng7x6cv3,3j4q2z4ut2gdgpmx9k8ajjr24lzwq3,RKbbyTjb,2020-0188,2020-05-21,22:04:48,22:22:13,NA,incomplete,13,number,1,right,Purple_Plus_Chess_1.jpg,Blue_Plus_Grid_3.jpg,Green_Star_Stripes_1.jpg,right,579.3000000121538,true,NA,true
RKbbyTjb,3dzkabx20liukfefnqxhosng7x6cv3,3j4q2z4ut2gdgpmx9k8ajjr24lzwq3,RKbbyTjb,2020-0188,2020-05-21,22:04:48,22:22:13,NA,incomplete,14,number,1,left,Purple_Triangle_Dots_2.jpg,Blue_Plus_Stripes_2.jpg,Red_Triangle_Chess_4.jpg,left,785.184999986086,true,NA,true
RKbbyTjb,3dzkabx20liukfefnqxhosng7x6cv3,3j4q2z4ut2gdgpmx9k8ajjr24lzwq3,RKbbyTjb,2020-0188,2020-05-21,22:04:48,22:22:13,NA,incomplete,15,number,1,left,Purple_Triangle_Dots_4.jpg,Blue_Circle_Stripes_4.jpg,Red_Triangle_Chess_1.jpg,left,648.1349999958184,true,NA,true
RKbbyTjb,3dzkabx20liukfefnqxhosng7x6cv3,3j4q2z4ut2gdgpmx9k8ajjr24lzwq3,RKbbyTjb,2020-0188,2020-05-21,22:04:48,22:22:13,NA,incomplete,16,number,1,right,Purple_Plus_Stripes_3.jpg,Green_Plus_Grid_2.jpg,Blue_Circle_Dots_3.jpg,right,657.0099999953527,true,NA,true
RKbbyTjb,3dzkabx20liukfefnqxhosng7x6cv3,3j4q2z4ut2gdgpmx9k8ajjr24lzwq3,RKbbyTjb,2020-0188,2020-05-21,22:04:48,22:22:13,NA,incomplete,17,number,0,right,Red_Plus_Stripes_3.jpg,Green_Plus_Chess_2.jpg,Purple_Triangle_Grid_3.jpg,right,724.7049999714363,true,NA,true
RKbbyTjb,3dzkabx20liukfefnqxhosng7x6cv3,3j4q2z4ut2gdgpmx9k8ajjr24lzwq3,RKbbyTjb,2020-0188,2020-05-21,22:04:48,22:22:13,NA,incomplete,18,number,0,left,Green_Circle_Stripes_4.jpg,Red_Plus_Grid_4.jpg,Purple_Circle_Chess_3.jpg,left,783.2749999943189,true,NA,true
RKbbyTjb,3dzkabx20liukfefnqxhosng7x6cv3,3j4q2z4ut2gdgpmx9k8ajjr24lzwq3,RKbbyTjb,2020-0188,2020-05-21,22:04:48,22:22:13,NA,incomplete,19,number,0,left,Red_Star_Stripes_3.jpg,Purple_Plus_Grid_3.jpg,Green_Star_Dots_1.jpg,right,879.8999999999069,false,NA,true
RKbbyTjb,3dzkabx20liukfefnqxhosng7x6cv3,3j4q2z4ut2gdgpmx9k8ajjr24lzwq3,RKbbyTjb,2020-0188,2020-05-21,22:04:48,22:22:13,NA,incomplete,20,shape,1,right,Red_Circle_Dots_4.jpg,Green_Plus_Chess_4.jpg,Blue_Circle_Stripes_2.jpg,right,853.1899999943562,true,NA,true
RKbbyTjb,3dzkabx20liukfefnqxhosng7x6cv3,3j4q2z4ut2gdgpmx9k8ajjr24lzwq3,RKbbyTjb,2020-0188,2020-05-21,22:04:48,22:22:13,NA,incomplete,21,shape,1,right,Blue_Plus_Grid_1.jpg,Purple_Star_Stripes_1.jpg,Red_Plus_Chess_2.jpg,right,709.6399999863934,true,NA,true
RKbbyTjb,3dzkabx20liukfefnqxhosng7x6cv3,3j4q2z4ut2gdgpmx9k8ajjr24lzwq3,RKbbyTjb,2020-0188,2020-05-21,22:04:48,22:22:13,NA,incomplete,22,shape,1,right,Green_Plus_Stripes_2.jpg,Purple_Circle_Dots_2.jpg,Blue_Plus_Chess_1.jpg,right,772.8899999929126,true,NA,true
RKbbyTjb,3dzkabx20liukfefnqxhosng7x6cv3,3j4q2z4ut2gdgpmx9k8ajjr24lzwq3,RKbbyTjb,2020-0188,2020-05-21,22:04:48,22:22:13,NA,incomplete,23,shape,1,right,Purple_Triangle_Grid_4.jpg,Blue_Star_Dots_4.jpg,Red_Triangle_Chess_2.jpg,right,820.8199999935459,true,NA,true
RKbbyTjb,3dzkabx20liukfefnqxhosng7x6cv3,3j4q2z4ut2gdgpmx9k8ajjr24lzwq3,RKbbyTjb,2020-0188,2020-05-21,22:04:48,22:22:13,NA,incomplete,24,shape,1,left,Blue_Star_Chess_2.jpg,Red_Star_Stripes_1.jpg,Purple_Circle_Grid_2.jpg,left,693.1550000153948,true,NA,true
RKbbyTjb,3dzkabx20liukfefnqxhosng7x6cv3,3j4q2z4ut2gdgpmx9k8ajjr24lzwq3,RKbbyTjb,2020-0188,2020-05-21,22:04:48,22:22:13,NA,incomplete,25,shape,1,right,Blue_Plus_Grid_3.jpg,Green_Star_Chess_3.jpg,Red_Plus_Stripes_2.jpg,right,681.0499999846797,true,NA,true
RKbbyTjb,3dzkabx20liukfefnqxhosng7x6cv3,3j4q2z4ut2gdgpmx9k8ajjr24lzwq3,RKbbyTjb,2020-0188,2020-05-21,22:04:48,22:22:13,NA,incomplete,26,shape,1,left,Purple_Plus_Stripes_2.jpg,Red_Plus_Chess_3.jpg,Blue_Triangle_Grid_2.jpg,left,738.5299999732524,true,NA,true
RKbbyTjb,3dzkabx20liukfefnqxhosng7x6cv3,3j4q2z4ut2gdgpmx9k8ajjr24lzwq3,RKbbyTjb,2020-0188,2020-05-21,22:04:48,22:22:13,NA,incomplete,27,shape,1,right,Red_Circle_Chess_1.jpg,Purple_Star_Grid_1.jpg,Blue_Circle_Dots_2.jpg,right,561.2499999988358,true,NA,true
RKbbyTjb,3dzkabx20liukfefnqxhosng7x6cv3,3j4q2z4ut2gdgpmx9k8ajjr24lzwq3,RKbbyTjb,2020-0188,2020-05-21,22:04:48,22:22:13,NA,incomplete,28,shape,0,left,Purple_Star_Stripes_1.jpg,Red_Star_Chess_3.jpg,Blue_Triangle_Grid_1.jpg,left,634.4000000099186,true,NA,true
RKbbyTjb,3dzkabx20liukfefnqxhosng7x6cv3,3j4q2z4ut2gdgpmx9k8ajjr24lzwq3,RKbbyTjb,2020-0188,2020-05-21,22:04:48,22:22:13,NA,incomplete,29,shape,1,right,Blue_Triangle_Grid_4.jpg,Green_Plus_Dots_4.jpg,Purple_Triangle_Stripes_2.jpg,right,879.9650000000838,true,NA,true
RKbbyTjb,3dzkabx20liukfefnqxhosng7x6cv3,3j4q2z4ut2gdgpmx9k8ajjr24lzwq3,RKbbyTjb,2020-0188,2020-05-21,22:04:48,22:22:13,NA,incomplete,30,shape,1,right,Green_Plus_Dots_4.jpg,Purple_Circle_Chess_4.jpg,Red_Plus_Grid_2.jpg,right,826.5649999957532,true,NA,true
RKbbyTjb,3dzkabx20liukfefnqxhosng7x6cv3,3j4q2z4ut2gdgpmx9k8ajjr24lzwq3,RKbbyTjb,2020-0188,2020-05-21,22:04:48,22:22:13,NA,incomplete,31,shape,1,left,Red_Triangle_Grid_4.jpg,Green_Triangle_Stripes_1.jpg,Blue_Star_Chess_4.jpg,right,814.4650000031106,false,NA,true
RKbbyTjb,3dzkabx20liukfefnqxhosng7x6cv3,3j4q2z4ut2gdgpmx9k8ajjr24lzwq3,RKbbyTjb,2020-0188,2020-05-21,22:04:48,22:22:13,NA,incomplete,32,shape,1,left,Purple_Star_Stripes_1.jpg,Green_Star_Chess_3.jpg,Blue_Triangle_Grid_1.jpg,left,745.744999992894,true,NA,true
RKbbyTjb,3dzkabx20liukfefnqxhosng7x6cv3,3j4q2z4ut2gdgpmx9k8ajjr24lzwq3,RKbbyTjb,2020-0188,2020-05-21,22:04:48,22:22:13,NA,incomplete,33,shape,1,right,Red_Star_Dots_1.jpg,Green_Circle_Chess_1.jpg,Blue_Star_Stripes_2.jpg,right,676.6249999927823,true,NA,true
RKbbyTjb,3dzkabx20liukfefnqxhosng7x6cv3,3j4q2z4ut2gdgpmx9k8ajjr24lzwq3,RKbbyTjb,2020-0188,2020-05-21,22:04:48,22:22:13,NA,incomplete,34,shape,1,left,Green_Circle_Stripes_1.jpg,Red_Circle_Dots_4.jpg,Blue_Triangle_Chess_1.jpg,left,673.8600000098813,true,NA,true
RKbbyTjb,3dzkabx20liukfefnqxhosng7x6cv3,3j4q2z4ut2gdgpmx9k8ajjr24lzwq3,RKbbyTjb,2020-0188,2020-05-21,22:04:48,22:22:13,NA,incomplete,35,shape,0,right,Green_Triangle_Grid_4.jpg,Blue_Plus_Dots_4.jpg,Purple_Triangle_Chess_3.jpg,right,777.1800000045914,true,NA,true
RKbbyTjb,3dzkabx20liukfefnqxhosng7x6cv3,3j4q2z4ut2gdgpmx9k8ajjr24lzwq3,RKbbyTjb,2020-0188,2020-05-21,22:04:48,22:22:13,NA,incomplete,36,shape,1,left,Red_Circle_Grid_4.jpg,Green_Circle_Chess_2.jpg,Purple_Triangle_Dots_4.jpg,left,643.7950000108685,true,NA,true
RKbbyTjb,3dzkabx20liukfefnqxhosng7x6cv3,3j4q2z4ut2gdgpmx9k8ajjr24lzwq3,RKbbyTjb,2020-0188,2020-05-21,22:04:48,22:22:13,NA,incomplete,37,shape,1,right,Blue_Triangle_Grid_2.jpg,Green_Plus_Chess_2.jpg,Purple_Triangle_Stripes_3.jpg,right,664.1649999946821,true,NA,true
RKbbyTjb,3dzkabx20liukfefnqxhosng7x6cv3,3j4q2z4ut2gdgpmx9k8ajjr24lzwq3,RKbbyTjb,2020-0188,2020-05-21,22:04:48,22:22:13,NA,incomplete,38,shape,0,left,Green_Circle_Dots_2.jpg,Blue_Circle_Grid_4.jpg,Purple_Triangle_Stripes_2.jpg,left,665.6399999919813,true,NA,true
RKbbyTjb,3dzkabx20liukfefnqxhosng7x6cv3,3j4q2z4ut2gdgpmx9k8ajjr24lzwq3,RKbbyTjb,2020-0188,2020-05-21,22:04:48,22:22:13,NA,incomplete,39,shape,1,left,Purple_Circle_Stripes_1.jpg,Red_Circle_Grid_2.jpg,Blue_Plus_Chess_1.jpg,left,564.4800000009127,true,NA,true
RKbbyTjb,3dzkabx20liukfefnqxhosng7x6cv3,3j4q2z4ut2gdgpmx9k8ajjr24lzwq3,RKbbyTjb,2020-0188,2020-05-21,22:04:48,22:22:13,NA,incomplete,0,number,1,left,Purple_Circle_Stripes_1.jpg,Green_Triangle_Grid_1.jpg,Blue_Circle_Dots_3.jpg,right,1146.2900000042282,false,high,false
RKbbyTjb,3dzkabx20liukfefnqxhosng7x6cv3,3j4q2z4ut2gdgpmx9k8ajjr24lzwq3,RKbbyTjb,2020-0188,2020-05-21,22:04:48,22:22:13,NA,incomplete,1,number,1,left,Blue_Circle_Chess_1.jpg,Red_Plus_Dots_1.jpg,Purple_Circle_Stripes_2.jpg,left,849.2099999857601,true,high,false
RKbbyTjb,3dzkabx20liukfefnqxhosng7x6cv3,3j4q2z4ut2gdgpmx9k8ajjr24lzwq3,RKbbyTjb,2020-0188,2020-05-21,22:04:48,22:22:13,NA,incomplete,2,number,1,left,Purple_Star_Dots_1.jpg,Green_Triangle_Grid_1.jpg,Red_Star_Chess_4.jpg,left,673.4949999954551,true,high,false
RKbbyTjb,3dzkabx20liukfefnqxhosng7x6cv3,3j4q2z4ut2gdgpmx9k8ajjr24lzwq3,RKbbyTjb,2020-0188,2020-05-21,22:04:48,22:22:13,NA,incomplete,3,number,1,right,Purple_Star_Dots_3.jpg,Green_Star_Chess_1.jpg,Blue_Circle_Stripes_3.jpg,right,695.3049999719951,true,high,false
RKbbyTjb,3dzkabx20liukfefnqxhosng7x6cv3,3j4q2z4ut2gdgpmx9k8ajjr24lzwq3,RKbbyTjb,2020-0188,2020-05-21,22:04:48,22:22:13,NA,incomplete,4,number,1,left,Blue_Circle_Stripes_1.jpg,Purple_Triangle_Dots_1.jpg,Green_Circle_Grid_2.jpg,left,708.3549999806564,true,high,false
RKbbyTjb,3dzkabx20liukfefnqxhosng7x6cv3,3j4q2z4ut2gdgpmx9k8ajjr24lzwq3,RKbbyTjb,2020-0188,2020-05-21,22:04:48,22:22:13,NA,incomplete,5,number,1,right,Red_Circle_Dots_3.jpg,Purple_Circle_Grid_2.jpg,Blue_Plus_Stripes_3.jpg,right,639.0300000202842,true,high,false
RKbbyTjb,3dzkabx20liukfefnqxhosng7x6cv3,3j4q2z4ut2gdgpmx9k8ajjr24lzwq3,RKbbyTjb,2020-0188,2020-05-21,22:04:48,22:22:13,NA,incomplete,6,number,1,left,Red_Circle_Chess_4.jpg,Green_Plus_Grid_4.jpg,Blue_Circle_Dots_3.jpg,left,803.9450000214856,true,high,false
RKbbyTjb,3dzkabx20liukfefnqxhosng7x6cv3,3j4q2z4ut2gdgpmx9k8ajjr24lzwq3,RKbbyTjb,2020-0188,2020-05-21,22:04:48,22:22:13,NA,incomplete,7,number,1,right,Green_Circle_Grid_4.jpg,Blue_Circle_Chess_3.jpg,Red_Star_Stripes_4.jpg,right,697.3949999955948,true,high,false
RKbbyTjb,3dzkabx20liukfefnqxhosng7x6cv3,3j4q2z4ut2gdgpmx9k8ajjr24lzwq3,RKbbyTjb,2020-0188,2020-05-21,22:04:48,22:22:13,NA,incomplete,8,number,1,left,Purple_Circle_Grid_3.jpg,Red_Star_Stripes_3.jpg,Blue_Circle_Chess_4.jpg,left,788.7249999912456,true,high,false
RKbbyTjb,3dzkabx20liukfefnqxhosng7x6cv3,3j4q2z4ut2gdgpmx9k8ajjr24lzwq3,RKbbyTjb,2020-0188,2020-05-21,22:04:48,22:22:13,NA,incomplete,9,number,0,left,Green_Star_Stripes_4.jpg,Red_Plus_Chess_4.jpg,Purple_Star_Grid_1.jpg,left,589.1300000075717,true,high,false
RKbbyTjb,3dzkabx20liukfefnqxhosng7x6cv3,3j4q2z4ut2gdgpmx9k8ajjr24lzwq3,RKbbyTjb,2020-0188,2020-05-21,22:04:48,22:22:13,NA,incomplete,10,shape,1,right,Purple_Star_Dots_3.jpg,Red_Triangle_Stripes_3.jpg,Blue_Star_Chess_1.jpg,left,642.0100000104867,false,high,false
RKbbyTjb,3dzkabx20liukfefnqxhosng7x6cv3,3j4q2z4ut2gdgpmx9k8ajjr24lzwq3,RKbbyTjb,2020-0188,2020-05-21,22:04:48,22:22:13,NA,incomplete,11,shape,1,left,Green_Circle_Stripes_3.jpg,Purple_Circle_Grid_4.jpg,Blue_Plus_Chess_3.jpg,right,831.2799999839626,false,high,false
RKbbyTjb,3dzkabx20liukfefnqxhosng7x6cv3,3j4q2z4ut2gdgpmx9k8ajjr24lzwq3,RKbbyTjb,2020-0188,2020-05-21,22:04:48,22:22:13,NA,incomplete,12,shape,1,right,Green_Circle_Chess_1.jpg,Purple_Plus_Dots_1.jpg,Blue_Circle_Stripes_2.jpg,right,671.1000000068452,true,high,false
RKbbyTjb,3dzkabx20liukfefnqxhosng7x6cv3,3j4q2z4ut2gdgpmx9k8ajjr24lzwq3,RKbbyTjb,2020-0188,2020-05-21,22:04:48,22:22:13,NA,incomplete,13,shape,1,left,Purple_Circle_Grid_4.jpg,Green_Circle_Chess_2.jpg,Red_Triangle_Stripes_4.jpg,left,676.5299999970011,true,high,false
RKbbyTjb,3dzkabx20liukfefnqxhosng7x6cv3,3j4q2z4ut2gdgpmx9k8ajjr24lzwq3,RKbbyTjb,2020-0188,2020-05-21,22:04:48,22:22:13,NA,incomplete,14,shape,1,right,Green_Circle_Stripes_2.jpg,Blue_Plus_Grid_2.jpg,Purple_Circle_Dots_1.jpg,right,627.5000000023283,true,high,false
RKbbyTjb,3dzkabx20liukfefnqxhosng7x6cv3,3j4q2z4ut2gdgpmx9k8ajjr24lzwq3,RKbbyTjb,2020-0188,2020-05-21,22:04:48,22:22:13,NA,incomplete,15,shape,0,right,Purple_Star_Grid_1.jpg,Red_Triangle_Stripes_1.jpg,Green_Star_Dots_3.jpg,right,600.559999991674,true,high,false
RKbbyTjb,3dzkabx20liukfefnqxhosng7x6cv3,3j4q2z4ut2gdgpmx9k8ajjr24lzwq3,RKbbyTjb,2020-0188,2020-05-21,22:04:48,22:22:13,NA,incomplete,16,shape,1,left,Blue_Plus_Grid_4.jpg,Purple_Plus_Chess_1.jpg,Green_Circle_Stripes_4.jpg,left,719.3249999836553,true,high,false
RKbbyTjb,3dzkabx20liukfefnqxhosng7x6cv3,3j4q2z4ut2gdgpmx9k8ajjr24lzwq3,RKbbyTjb,2020-0188,2020-05-21,22:04:48,22:22:13,NA,incomplete,17,shape,1,right,Green_Circle_Dots_1.jpg,Purple_Triangle_Grid_1.jpg,Red_Circle_Stripes_3.jpg,right,588.1349999981467,true,high,false
RKbbyTjb,3dzkabx20liukfefnqxhosng7x6cv3,3j4q2z4ut2gdgpmx9k8ajjr24lzwq3,RKbbyTjb,2020-0188,2020-05-21,22:04:48,22:22:13,NA,incomplete,18,shape,0,left,Blue_Circle_Chess_2.jpg,Red_Circle_Grid_4.jpg,Purple_Plus_Dots_2.jpg,left,568.7000000034459,true,high,false
RKbbyTjb,3dzkabx20liukfefnqxhosng7x6cv3,3j4q2z4ut2gdgpmx9k8ajjr24lzwq3,RKbbyTjb,2020-0188,2020-05-21,22:04:48,22:22:13,NA,incomplete,19,shape,1,right,Blue_Triangle_Stripes_2.jpg,Green_Plus_Chess_2.jpg,Red_Triangle_Dots_1.jpg,right,655.02999999444,true,high,false
RKbbyTjb,3dzkabx20liukfefnqxhosng7x6cv3,3j4q2z4ut2gdgpmx9k8ajjr24lzwq3,RKbbyTjb,2020-0188,2020-05-21,22:04:48,22:22:13,NA,incomplete,20,number,0,right,Red_Triangle_Grid_3.jpg,Purple_Triangle_Chess_4.jpg,Green_Star_Dots_3.jpg,left,652.0149999996647,false,high,false
RKbbyTjb,3dzkabx20liukfefnqxhosng7x6cv3,3j4q2z4ut2gdgpmx9k8ajjr24lzwq3,RKbbyTjb,2020-0188,2020-05-21,22:04:48,22:22:13,NA,incomplete,21,number,1,left,Purple_Circle_Stripes_4.jpg,Green_Star_Chess_4.jpg,Red_Circle_Grid_1.jpg,right,689.6149999811314,false,high,false
RKbbyTjb,3dzkabx20liukfefnqxhosng7x6cv3,3j4q2z4ut2gdgpmx9k8ajjr24lzwq3,RKbbyTjb,2020-0188,2020-05-21,22:04:48,22:22:13,NA,incomplete,22,number,1,right,Green_Triangle_Chess_2.jpg,Purple_Triangle_Dots_1.jpg,Blue_Plus_Stripes_2.jpg,left,732.6750000065658,false,high,false
RKbbyTjb,3dzkabx20liukfefnqxhosng7x6cv3,3j4q2z4ut2gdgpmx9k8ajjr24lzwq3,RKbbyTjb,2020-0188,2020-05-21,22:04:48,22:22:13,NA,incomplete,23,number,1,right,Red_Triangle_Stripes_1.jpg,Purple_Triangle_Grid_3.jpg,Blue_Circle_Chess_1.jpg,right,929.424999980256,true,high,false
RKbbyTjb,3dzkabx20liukfefnqxhosng7x6cv3,3j4q2z4ut2gdgpmx9k8ajjr24lzwq3,RKbbyTjb,2020-0188,2020-05-21,22:04:48,22:22:13,NA,incomplete,24,number,1,left,Blue_Star_Chess_2.jpg,Red_Plus_Dots_2.jpg,Purple_Star_Stripes_1.jpg,left,723.4250000037719,true,high,false
RKbbyTjb,3dzkabx20liukfefnqxhosng7x6cv3,3j4q2z4ut2gdgpmx9k8ajjr24lzwq3,RKbbyTjb,2020-0188,2020-05-21,22:04:48,22:22:13,NA,incomplete,25,number,1,left,Blue_Plus_Stripes_2.jpg,Purple_Star_Chess_2.jpg,Green_Plus_Grid_3.jpg,left,659.0200000209734,true,high,false
RKbbyTjb,3dzkabx20liukfefnqxhosng7x6cv3,3j4q2z4ut2gdgpmx9k8ajjr24lzwq3,RKbbyTjb,2020-0188,2020-05-21,22:04:48,22:22:13,NA,incomplete,26,number,1,right,Green_Triangle_Stripes_2.jpg,Red_Triangle_Chess_3.jpg,Blue_Circle_Grid_2.jpg,right,663.9449999784119,true,high,false
RKbbyTjb,3dzkabx20liukfefnqxhosng7x6cv3,3j4q2z4ut2gdgpmx9k8ajjr24lzwq3,RKbbyTjb,2020-0188,2020-05-21,22:04:48,22:22:13,NA,incomplete,27,number,1,right,Purple_Plus_Chess_3.jpg,Red_Plus_Grid_4.jpg,Green_Star_Stripes_3.jpg,right,678.5150000068825,true,high,false
RKbbyTjb,3dzkabx20liukfefnqxhosng7x6cv3,3j4q2z4ut2gdgpmx9k8ajjr24lzwq3,RKbbyTjb,2020-0188,2020-05-21,22:04:48,22:22:13,NA,incomplete,28,number,1,right,Purple_Circle_Chess_4.jpg,Blue_Circle_Dots_1.jpg,Green_Plus_Stripes_4.jpg,right,576.5749999845866,true,high,false
RKbbyTjb,3dzkabx20liukfefnqxhosng7x6cv3,3j4q2z4ut2gdgpmx9k8ajjr24lzwq3,RKbbyTjb,2020-0188,2020-05-21,22:04:48,22:22:13,NA,incomplete,29,number,0,right,Purple_Circle_Stripes_1.jpg,Green_Circle_Chess_2.jpg,Red_Star_Grid_1.jpg,right,631.9449999718927,true,high,false
RKbbyTjb,3dzkabx20liukfefnqxhosng7x6cv3,3j4q2z4ut2gdgpmx9k8ajjr24lzwq3,RKbbyTjb,2020-0188,2020-05-21,22:04:48,22:22:13,NA,incomplete,30,shape,1,right,Green_Plus_Chess_4.jpg,Purple_Triangle_Stripes_4.jpg,Red_Plus_Grid_2.jpg,left,638.3450000139419,false,high,false
RKbbyTjb,3dzkabx20liukfefnqxhosng7x6cv3,3j4q2z4ut2gdgpmx9k8ajjr24lzwq3,RKbbyTjb,2020-0188,2020-05-21,22:04:48,22:22:13,NA,incomplete,31,shape,0,left,Purple_Star_Grid_4.jpg,Red_Star_Chess_3.jpg,Green_Circle_Stripes_4.jpg,left,798.1900000013411,true,high,false
RKbbyTjb,3dzkabx20liukfefnqxhosng7x6cv3,3j4q2z4ut2gdgpmx9k8ajjr24lzwq3,RKbbyTjb,2020-0188,2020-05-21,22:04:48,22:22:13,NA,incomplete,32,shape,0,left,Red_Star_Stripes_1.jpg,Blue_Star_Chess_3.jpg,Green_Triangle_Grid_1.jpg,right,791.54499998549,false,high,false
RKbbyTjb,3dzkabx20liukfefnqxhosng7x6cv3,3j4q2z4ut2gdgpmx9k8ajjr24lzwq3,RKbbyTjb,2020-0188,2020-05-21,22:04:48,22:22:13,NA,incomplete,33,shape,0,left,Green_Plus_Stripes_4.jpg,Purple_Plus_Grid_3.jpg,Red_Triangle_Chess_4.jpg,right,831.560000020545,false,high,false
RKbbyTjb,3dzkabx20liukfefnqxhosng7x6cv3,3j4q2z4ut2gdgpmx9k8ajjr24lzwq3,RKbbyTjb,2020-0188,2020-05-21,22:04:48,22:22:13,NA,incomplete,34,shape,0,left,Blue_Circle_Grid_1.jpg,Purple_Circle_Dots_4.jpg,Red_Star_Chess_1.jpg,right,713.6099999770522,false,high,false
RKbbyTjb,3dzkabx20liukfefnqxhosng7x6cv3,3j4q2z4ut2gdgpmx9k8ajjr24lzwq3,RKbbyTjb,2020-0188,2020-05-21,22:04:48,22:22:13,NA,incomplete,35,shape,1,left,Blue_Circle_Dots_3.jpg,Red_Circle_Stripes_1.jpg,Green_Triangle_Grid_3.jpg,left,665.3149999910966,true,high,false
RKbbyTjb,3dzkabx20liukfefnqxhosng7x6cv3,3j4q2z4ut2gdgpmx9k8ajjr24lzwq3,RKbbyTjb,2020-0188,2020-05-21,22:04:48,22:22:13,NA,incomplete,36,shape,1,left,Purple_Plus_Stripes_3.jpg,Green_Plus_Chess_4.jpg,Blue_Triangle_Grid_3.jpg,left,837.310000002617,true,high,false
RKbbyTjb,3dzkabx20liukfefnqxhosng7x6cv3,3j4q2z4ut2gdgpmx9k8ajjr24lzwq3,RKbbyTjb,2020-0188,2020-05-21,22:04:48,22:22:13,NA,incomplete,37,shape,0,right,Green_Plus_Dots_3.jpg,Purple_Circle_Grid_3.jpg,Red_Plus_Stripes_2.jpg,right,754.6750000037719,true,high,false
RKbbyTjb,3dzkabx20liukfefnqxhosng7x6cv3,3j4q2z4ut2gdgpmx9k8ajjr24lzwq3,RKbbyTjb,2020-0188,2020-05-21,22:04:48,22:22:13,NA,incomplete,38,shape,1,left,Red_Triangle_Grid_1.jpg,Green_Triangle_Dots_3.jpg,Purple_Plus_Chess_1.jpg,right,775.3549999906681,false,high,false
RKbbyTjb,3dzkabx20liukfefnqxhosng7x6cv3,3j4q2z4ut2gdgpmx9k8ajjr24lzwq3,RKbbyTjb,2020-0188,2020-05-21,22:04:48,22:22:13,NA,incomplete,39,shape,1,left,Red_Circle_Chess_1.jpg,Purple_Circle_Dots_4.jpg,Green_Plus_Stripes_1.jpg,left,674.3549999955576,true,high,false
RKbbyTjb,3dzkabx20liukfefnqxhosng7x6cv3,3j4q2z4ut2gdgpmx9k8ajjr24lzwq3,RKbbyTjb,2020-0188,2020-05-21,22:04:48,22:22:13,NA,incomplete,40,number,0,left,Green_Circle_Stripes_2.jpg,Red_Triangle_Dots_2.jpg,Purple_Circle_Chess_4.jpg,right,729.1199999745004,false,high,false
RKbbyTjb,3dzkabx20liukfefnqxhosng7x6cv3,3j4q2z4ut2gdgpmx9k8ajjr24lzwq3,RKbbyTjb,2020-0188,2020-05-21,22:04:48,22:22:13,NA,incomplete,41,number,0,right,Blue_Triangle_Stripes_2.jpg,Green_Triangle_Dots_4.jpg,Purple_Plus_Chess_2.jpg,left,681.750000017928,false,high,false
RKbbyTjb,3dzkabx20liukfefnqxhosng7x6cv3,3j4q2z4ut2gdgpmx9k8ajjr24lzwq3,RKbbyTjb,2020-0188,2020-05-21,22:04:48,22:22:13,NA,incomplete,42,number,0,right,Green_Circle_Grid_2.jpg,Red_Circle_Chess_1.jpg,Blue_Star_Stripes_2.jpg,left,633.9699999953154,false,high,false
RKbbyTjb,3dzkabx20liukfefnqxhosng7x6cv3,3j4q2z4ut2gdgpmx9k8ajjr24lzwq3,RKbbyTjb,2020-0188,2020-05-21,22:04:48,22:22:13,NA,incomplete,43,number,1,right,Red_Triangle_Dots_3.jpg,Purple_Triangle_Stripes_4.jpg,Green_Plus_Grid_3.jpg,left,723.9850000187289,false,high,false
RKbbyTjb,3dzkabx20liukfefnqxhosng7x6cv3,3j4q2z4ut2gdgpmx9k8ajjr24lzwq3,RKbbyTjb,2020-0188,2020-05-21,22:04:48,22:22:13,NA,incomplete,44,number,1,right,Green_Circle_Dots_4.jpg,Red_Circle_Grid_3.jpg,Purple_Plus_Chess_4.jpg,left,728.1199999852106,false,high,false
RKbbyTjb,3dzkabx20liukfefnqxhosng7x6cv3,3j4q2z4ut2gdgpmx9k8ajjr24lzwq3,RKbbyTjb,2020-0188,2020-05-21,22:04:48,22:22:13,NA,incomplete,45,number,1,left,Purple_Circle_Stripes_3.jpg,Blue_Triangle_Dots_3.jpg,Green_Circle_Grid_1.jpg,left,724.9049999809358,true,high,false
RKbbyTjb,3dzkabx20liukfefnqxhosng7x6cv3,3j4q2z4ut2gdgpmx9k8ajjr24lzwq3,RKbbyTjb,2020-0188,2020-05-21,22:04:48,22:22:13,NA,incomplete,46,number,0,left,Red_Plus_Grid_1.jpg,Green_Circle_Chess_1.jpg,Purple_Plus_Stripes_2.jpg,left,607.4899999948684,true,high,false
RKbbyTjb,3dzkabx20liukfefnqxhosng7x6cv3,3j4q2z4ut2gdgpmx9k8ajjr24lzwq3,RKbbyTjb,2020-0188,2020-05-21,22:04:48,22:22:13,NA,incomplete,47,number,0,left,Purple_Circle_Stripes_3.jpg,Green_Triangle_Grid_3.jpg,Blue_Circle_Chess_4.jpg,right,705.6750000047032,false,high,false
RKbbyTjb,3dzkabx20liukfefnqxhosng7x6cv3,3j4q2z4ut2gdgpmx9k8ajjr24lzwq3,RKbbyTjb,2020-0188,2020-05-21,22:04:48,22:22:13,NA,incomplete,48,number,1,left,Purple_Plus_Stripes_4.jpg,Blue_Triangle_Chess_4.jpg,Green_Plus_Dots_2.jpg,right,814.5450000010896,false,high,false
RKbbyTjb,3dzkabx20liukfefnqxhosng7x6cv3,3j4q2z4ut2gdgpmx9k8ajjr24lzwq3,RKbbyTjb,2020-0188,2020-05-21,22:04:48,22:22:13,NA,incomplete,49,number,1,right,Blue_Star_Chess_3.jpg,Purple_Star_Grid_1.jpg,Red_Plus_Dots_3.jpg,right,852.0850000204518,true,high,false
RKbbyTjb,3dzkabx20liukfefnqxhosng7x6cv3,3j4q2z4ut2gdgpmx9k8ajjr24lzwq3,RKbbyTjb,2020-0188,2020-05-21,22:04:48,22:22:13,NA,incomplete,50,shape,1,right,Purple_Triangle_Grid_3.jpg,Blue_Circle_Stripes_3.jpg,Green_Triangle_Dots_2.jpg,left,678.9599999901839,false,high,false
RKbbyTjb,3dzkabx20liukfefnqxhosng7x6cv3,3j4q2z4ut2gdgpmx9k8ajjr24lzwq3,RKbbyTjb,2020-0188,2020-05-21,22:04:48,22:22:13,NA,incomplete,51,shape,1,right,Green_Triangle_Grid_1.jpg,Red_Star_Chess_1.jpg,Blue_Triangle_Dots_2.jpg,left,646.3149999908637,false,high,false
RKbbyTjb,3dzkabx20liukfefnqxhosng7x6cv3,3j4q2z4ut2gdgpmx9k8ajjr24lzwq3,RKbbyTjb,2020-0188,2020-05-21,22:04:48,22:22:13,NA,incomplete,52,shape,1,right,Blue_Circle_Grid_2.jpg,Red_Plus_Dots_2.jpg,Green_Circle_Chess_3.jpg,right,676.2199999939185,true,high,false
RKbbyTjb,3dzkabx20liukfefnqxhosng7x6cv3,3j4q2z4ut2gdgpmx9k8ajjr24lzwq3,RKbbyTjb,2020-0188,2020-05-21,22:04:48,22:22:13,NA,incomplete,53,shape,1,right,Blue_Star_Dots_1.jpg,Purple_Plus_Chess_1.jpg,Green_Star_Grid_3.jpg,right,686.4500000083353,true,high,false
RKbbyTjb,3dzkabx20liukfefnqxhosng7x6cv3,3j4q2z4ut2gdgpmx9k8ajjr24lzwq3,RKbbyTjb,2020-0188,2020-05-21,22:04:48,22:22:13,NA,incomplete,54,shape,1,left,Red_Triangle_Grid_2.jpg,Green_Triangle_Chess_4.jpg,Blue_Circle_Dots_2.jpg,left,667.4950000015087,true,high,false
RKbbyTjb,3dzkabx20liukfefnqxhosng7x6cv3,3j4q2z4ut2gdgpmx9k8ajjr24lzwq3,RKbbyTjb,2020-0188,2020-05-21,22:04:48,22:22:13,NA,incomplete,55,shape,1,left,Blue_Plus_Stripes_2.jpg,Green_Plus_Grid_4.jpg,Red_Star_Chess_2.jpg,left,677.3700000194367,true,high,false
RKbbyTjb,3dzkabx20liukfefnqxhosng7x6cv3,3j4q2z4ut2gdgpmx9k8ajjr24lzwq3,RKbbyTjb,2020-0188,2020-05-21,22:04:48,22:22:13,NA,incomplete,56,shape,1,right,Purple_Plus_Dots_1.jpg,Green_Star_Grid_1.jpg,Blue_Plus_Chess_3.jpg,right,646.7650000122376,true,high,false
RKbbyTjb,3dzkabx20liukfefnqxhosng7x6cv3,3j4q2z4ut2gdgpmx9k8ajjr24lzwq3,RKbbyTjb,2020-0188,2020-05-21,22:04:48,22:22:13,NA,incomplete,57,shape,1,right,Red_Star_Chess_4.jpg,Purple_Triangle_Dots_4.jpg,Blue_Star_Grid_3.jpg,right,743.1550000037532,true,high,false
RKbbyTjb,3dzkabx20liukfefnqxhosng7x6cv3,3j4q2z4ut2gdgpmx9k8ajjr24lzwq3,RKbbyTjb,2020-0188,2020-05-21,22:04:48,22:22:13,NA,incomplete,58,shape,1,left,Red_Plus_Stripes_3.jpg,Green_Plus_Chess_1.jpg,Purple_Triangle_Grid_3.jpg,left,790.629999974044,true,high,false
RKbbyTjb,3dzkabx20liukfefnqxhosng7x6cv3,3j4q2z4ut2gdgpmx9k8ajjr24lzwq3,RKbbyTjb,2020-0188,2020-05-21,22:04:48,22:22:13,NA,incomplete,59,shape,1,left,Blue_Triangle_Dots_4.jpg,Red_Triangle_Stripes_1.jpg,Purple_Plus_Grid_4.jpg,left,648.3750000188593,true,high,false
RKbbyTjb,3dzkabx20liukfefnqxhosng7x6cv3,3j4q2z4ut2gdgpmx9k8ajjr24lzwq3,RKbbyTjb,2020-0188,2020-05-21,22:04:48,22:22:13,NA,incomplete,60,number,0,right,Green_Plus_Chess_1.jpg,Blue_Plus_Dots_3.jpg,Red_Triangle_Grid_1.jpg,left,708.4200000099372,false,high,false
RKbbyTjb,3dzkabx20liukfefnqxhosng7x6cv3,3j4q2z4ut2gdgpmx9k8ajjr24lzwq3,RKbbyTjb,2020-0188,2020-05-21,22:04:48,22:22:13,NA,incomplete,61,number,1,right,Blue_Triangle_Dots_3.jpg,Green_Triangle_Stripes_1.jpg,Red_Circle_Grid_3.jpg,left,673.09500000556,false,high,false
RKbbyTjb,3dzkabx20liukfefnqxhosng7x6cv3,3j4q2z4ut2gdgpmx9k8ajjr24lzwq3,RKbbyTjb,2020-0188,2020-05-21,22:04:48,22:22:13,NA,incomplete,62,number,1,right,Green_Circle_Stripes_1.jpg,Red_Circle_Dots_4.jpg,Purple_Triangle_Grid_1.jpg,right,713.6099999770522,true,high,false
RKbbyTjb,3dzkabx20liukfefnqxhosng7x6cv3,3j4q2z4ut2gdgpmx9k8ajjr24lzwq3,RKbbyTjb,2020-0188,2020-05-21,22:04:48,22:22:13,NA,incomplete,63,number,1,left,Green_Star_Grid_3.jpg,Blue_Triangle_Stripes_3.jpg,Red_Star_Dots_1.jpg,left,625.0750000181142,true,high,false
RKbbyTjb,3dzkabx20liukfefnqxhosng7x6cv3,3j4q2z4ut2gdgpmx9k8ajjr24lzwq3,RKbbyTjb,2020-0188,2020-05-21,22:04:48,22:22:13,NA,incomplete,64,number,1,right,Green_Plus_Grid_1.jpg,Blue_Plus_Dots_2.jpg,Purple_Star_Stripes_1.jpg,right,651.4699999825098,true,high,false
RKbbyTjb,3dzkabx20liukfefnqxhosng7x6cv3,3j4q2z4ut2gdgpmx9k8ajjr24lzwq3,RKbbyTjb,2020-0188,2020-05-21,22:04:48,22:22:13,NA,incomplete,65,number,1,right,Red_Plus_Chess_1.jpg,Blue_Plus_Stripes_2.jpg,Green_Triangle_Dots_1.jpg,right,675.809999986086,true,high,false
RKbbyTjb,3dzkabx20liukfefnqxhosng7x6cv3,3j4q2z4ut2gdgpmx9k8ajjr24lzwq3,RKbbyTjb,2020-0188,2020-05-21,22:04:48,22:22:13,NA,incomplete,66,number,1,left,Red_Star_Grid_4.jpg,Blue_Triangle_Chess_4.jpg,Green_Star_Dots_3.jpg,left,751.1449999874458,true,high,false
RKbbyTjb,3dzkabx20liukfefnqxhosng7x6cv3,3j4q2z4ut2gdgpmx9k8ajjr24lzwq3,RKbbyTjb,2020-0188,2020-05-21,22:04:48,22:22:13,NA,incomplete,67,number,1,left,Blue_Star_Chess_1.jpg,Red_Plus_Stripes_1.jpg,Purple_Star_Grid_2.jpg,left,603.3750000060536,true,high,false
RKbbyTjb,3dzkabx20liukfefnqxhosng7x6cv3,3j4q2z4ut2gdgpmx9k8ajjr24lzwq3,RKbbyTjb,2020-0188,2020-05-21,22:04:48,22:22:13,NA,incomplete,68,number,1,right,Purple_Triangle_Dots_4.jpg,Red_Triangle_Chess_2.jpg,Green_Plus_Stripes_4.jpg,right,718.3050000166986,true,high,false
RKbbyTjb,3dzkabx20liukfefnqxhosng7x6cv3,3j4q2z4ut2gdgpmx9k8ajjr24lzwq3,RKbbyTjb,2020-0188,2020-05-21,22:04:48,22:22:13,NA,incomplete,69,number,1,right,Green_Triangle_Stripes_1.jpg,Purple_Triangle_Dots_2.jpg,Blue_Plus_Grid_1.jpg,right,674.9249999993481,true,high,false
RKbbyTjb,3dzkabx20liukfefnqxhosng7x6cv3,3j4q2z4ut2gdgpmx9k8ajjr24lzwq3,RKbbyTjb,2020-0188,2020-05-21,22:04:48,22:22:13,NA,incomplete,70,shape,1,left,Blue_Star_Dots_1.jpg,Green_Star_Grid_4.jpg,Purple_Circle_Stripes_1.jpg,right,586.3900000113063,false,high,false
RKbbyTjb,3dzkabx20liukfefnqxhosng7x6cv3,3j4q2z4ut2gdgpmx9k8ajjr24lzwq3,RKbbyTjb,2020-0188,2020-05-21,22:04:48,22:22:13,NA,incomplete,71,shape,1,left,Red_Plus_Dots_3.jpg,Green_Plus_Chess_4.jpg,Purple_Circle_Grid_3.jpg,left,755.4900000104681,true,high,false
RKbbyTjb,3dzkabx20liukfefnqxhosng7x6cv3,3j4q2z4ut2gdgpmx9k8ajjr24lzwq3,RKbbyTjb,2020-0188,2020-05-21,22:04:48,22:22:13,NA,incomplete,72,shape,1,right,Purple_Plus_Grid_3.jpg,Red_Triangle_Chess_3.jpg,Green_Plus_Dots_2.jpg,right,765.9899999853224,true,high,false
RKbbyTjb,3dzkabx20liukfefnqxhosng7x6cv3,3j4q2z4ut2gdgpmx9k8ajjr24lzwq3,RKbbyTjb,2020-0188,2020-05-21,22:04:48,22:22:13,NA,incomplete,73,shape,1,right,Green_Triangle_Chess_4.jpg,Red_Circle_Grid_4.jpg,Blue_Triangle_Stripes_1.jpg,right,766.8200000189245,true,high,false
RKbbyTjb,3dzkabx20liukfefnqxhosng7x6cv3,3j4q2z4ut2gdgpmx9k8ajjr24lzwq3,RKbbyTjb,2020-0188,2020-05-21,22:04:48,22:22:13,NA,incomplete,74,shape,1,right,Green_Plus_Chess_4.jpg,Blue_Star_Stripes_4.jpg,Purple_Plus_Grid_2.jpg,right,744.2449999798555,true,high,false
RKbbyTjb,3dzkabx20liukfefnqxhosng7x6cv3,3j4q2z4ut2gdgpmx9k8ajjr24lzwq3,RKbbyTjb,2020-0188,2020-05-21,22:04:48,22:22:13,NA,incomplete,75,shape,1,right,Red_Star_Chess_3.jpg,Purple_Circle_Dots_3.jpg,Blue_Star_Stripes_2.jpg,right,696.9800000078976,true,high,false
RKbbyTjb,3dzkabx20liukfefnqxhosng7x6cv3,3j4q2z4ut2gdgpmx9k8ajjr24lzwq3,RKbbyTjb,2020-0188,2020-05-21,22:04:48,22:22:13,NA,incomplete,76,shape,1,left,Green_Circle_Chess_4.jpg,Purple_Circle_Grid_3.jpg,Red_Plus_Dots_4.jpg,left,589.9349999963306,true,high,false
RKbbyTjb,3dzkabx20liukfefnqxhosng7x6cv3,3j4q2z4ut2gdgpmx9k8ajjr24lzwq3,RKbbyTjb,2020-0188,2020-05-21,22:04:48,22:22:13,NA,incomplete,77,shape,1,left,Green_Plus_Stripes_2.jpg,Blue_Plus_Grid_3.jpg,Red_Triangle_Chess_2.jpg,left,698.2350000180304,true,high,false
RKbbyTjb,3dzkabx20liukfefnqxhosng7x6cv3,3j4q2z4ut2gdgpmx9k8ajjr24lzwq3,RKbbyTjb,2020-0188,2020-05-21,22:04:48,22:22:13,NA,incomplete,78,shape,1,left,Red_Triangle_Stripes_4.jpg,Blue_Triangle_Dots_3.jpg,Green_Star_Chess_4.jpg,left,626.1250000097789,true,high,false
RKbbyTjb,3dzkabx20liukfefnqxhosng7x6cv3,3j4q2z4ut2gdgpmx9k8ajjr24lzwq3,RKbbyTjb,2020-0188,2020-05-21,22:04:48,22:22:13,NA,incomplete,79,shape,0,left,Green_Plus_Stripes_1.jpg,Red_Plus_Chess_4.jpg,Blue_Star_Grid_1.jpg,left,606.5499999967869,true,high,false
RKbbyTjb,3dzkabx20liukfefnqxhosng7x6cv3,3j4q2z4ut2gdgpmx9k8ajjr24lzwq3,RKbbyTjb,2020-0188,2020-05-21,22:04:48,22:22:13,NA,incomplete,80,number,1,left,Green_Triangle_Stripes_1.jpg,Red_Plus_Grid_1.jpg,Blue_Triangle_Chess_2.jpg,right,692.4100000178441,false,high,false
RKbbyTjb,3dzkabx20liukfefnqxhosng7x6cv3,3j4q2z4ut2gdgpmx9k8ajjr24lzwq3,RKbbyTjb,2020-0188,2020-05-21,22:04:48,22:22:13,NA,incomplete,81,number,1,left,Purple_Circle_Dots_1.jpg,Green_Triangle_Grid_1.jpg,Blue_Circle_Chess_3.jpg,left,562.934999994468,true,high,false
RKbbyTjb,3dzkabx20liukfefnqxhosng7x6cv3,3j4q2z4ut2gdgpmx9k8ajjr24lzwq3,RKbbyTjb,2020-0188,2020-05-21,22:04:48,22:22:13,NA,incomplete,82,number,1,left,Blue_Circle_Chess_3.jpg,Purple_Triangle_Dots_3.jpg,Red_Circle_Stripes_1.jpg,left,685.6950000219513,true,high,false
RKbbyTjb,3dzkabx20liukfefnqxhosng7x6cv3,3j4q2z4ut2gdgpmx9k8ajjr24lzwq3,RKbbyTjb,2020-0188,2020-05-21,22:04:48,22:22:13,NA,incomplete,83,number,1,left,Red_Triangle_Grid_3.jpg,Purple_Plus_Dots_3.jpg,Green_Triangle_Stripes_2.jpg,left,621.8750000116415,true,high,false
RKbbyTjb,3dzkabx20liukfefnqxhosng7x6cv3,3j4q2z4ut2gdgpmx9k8ajjr24lzwq3,RKbbyTjb,2020-0188,2020-05-21,22:04:48,22:22:13,NA,incomplete,84,number,0,left,Green_Triangle_Grid_4.jpg,Red_Circle_Dots_4.jpg,Purple_Triangle_Stripes_1.jpg,left,611.220000020694,true,high,false
RKbbyTjb,3dzkabx20liukfefnqxhosng7x6cv3,3j4q2z4ut2gdgpmx9k8ajjr24lzwq3,RKbbyTjb,2020-0188,2020-05-21,22:04:48,22:22:13,NA,incomplete,85,number,1,right,Blue_Star_Stripes_2.jpg,Green_Star_Chess_1.jpg,Purple_Circle_Grid_2.jpg,right,730.7849999924656,true,high,false
RKbbyTjb,3dzkabx20liukfefnqxhosng7x6cv3,3j4q2z4ut2gdgpmx9k8ajjr24lzwq3,RKbbyTjb,2020-0188,2020-05-21,22:04:48,22:22:13,NA,incomplete,86,number,1,right,Purple_Triangle_Chess_3.jpg,Green_Triangle_Dots_2.jpg,Red_Plus_Grid_3.jpg,right,701.3199999928474,true,high,false
RKbbyTjb,3dzkabx20liukfefnqxhosng7x6cv3,3j4q2z4ut2gdgpmx9k8ajjr24lzwq3,RKbbyTjb,2020-0188,2020-05-21,22:04:48,22:22:13,NA,incomplete,87,number,1,right,Blue_Circle_Dots_1.jpg,Purple_Circle_Stripes_4.jpg,Red_Plus_Grid_1.jpg,right,652.0200000086334,true,high,false
RKbbyTjb,3dzkabx20liukfefnqxhosng7x6cv3,3j4q2z4ut2gdgpmx9k8ajjr24lzwq3,RKbbyTjb,2020-0188,2020-05-21,22:04:48,22:22:13,NA,incomplete,88,number,1,left,Blue_Triangle_Chess_4.jpg,Red_Plus_Stripes_4.jpg,Purple_Triangle_Grid_1.jpg,left,560.2800000051502,true,high,false
RKbbyTjb,3dzkabx20liukfefnqxhosng7x6cv3,3j4q2z4ut2gdgpmx9k8ajjr24lzwq3,RKbbyTjb,2020-0188,2020-05-21,22:04:48,22:22:13,NA,incomplete,89,number,1,right,Red_Circle_Stripes_1.jpg,Blue_Circle_Dots_2.jpg,Purple_Star_Chess_1.jpg,right,675.3050000115763,true,high,false
RKbbyTjb,3dzkabx20liukfefnqxhosng7x6cv3,3j4q2z4ut2gdgpmx9k8ajjr24lzwq3,RKbbyTjb,2020-0188,2020-05-21,22:04:48,22:22:13,NA,incomplete,90,shape,1,right,Blue_Star_Stripes_1.jpg,Green_Plus_Grid_1.jpg,Red_Star_Chess_2.jpg,left,562.0349999808241,false,high,false
RKbbyTjb,3dzkabx20liukfefnqxhosng7x6cv3,3j4q2z4ut2gdgpmx9k8ajjr24lzwq3,RKbbyTjb,2020-0188,2020-05-21,22:04:48,22:22:13,NA,incomplete,91,shape,0,right,Purple_Plus_Chess_2.jpg,Green_Circle_Stripes_2.jpg,Red_Plus_Dots_1.jpg,right,761.0100000165403,true,high,false
RKbbyTjb,3dzkabx20liukfefnqxhosng7x6cv3,3j4q2z4ut2gdgpmx9k8ajjr24lzwq3,RKbbyTjb,2020-0188,2020-05-21,22:04:48,22:22:13,NA,incomplete,92,shape,1,right,Purple_Triangle_Chess_1.jpg,Green_Plus_Stripes_1.jpg,Red_Triangle_Grid_4.jpg,left,612.089999980526,false,high,false
RKbbyTjb,3dzkabx20liukfefnqxhosng7x6cv3,3j4q2z4ut2gdgpmx9k8ajjr24lzwq3,RKbbyTjb,2020-0188,2020-05-21,22:04:48,22:22:13,NA,incomplete,93,shape,1,right,Purple_Star_Grid_2.jpg,Red_Plus_Chess_2.jpg,Green_Star_Stripes_3.jpg,right,725.2999999909662,true,high,false
RKbbyTjb,3dzkabx20liukfefnqxhosng7x6cv3,3j4q2z4ut2gdgpmx9k8ajjr24lzwq3,RKbbyTjb,2020-0188,2020-05-21,22:04:48,22:22:13,NA,incomplete,94,shape,1,left,Green_Triangle_Dots_4.jpg,Red_Triangle_Grid_3.jpg,Purple_Circle_Stripes_4.jpg,left,733.3750000107102,true,high,false
RKbbyTjb,3dzkabx20liukfefnqxhosng7x6cv3,3j4q2z4ut2gdgpmx9k8ajjr24lzwq3,RKbbyTjb,2020-0188,2020-05-21,22:04:48,22:22:13,NA,incomplete,95,shape,1,left,Blue_Plus_Dots_1.jpg,Red_Plus_Chess_3.jpg,Green_Circle_Stripes_1.jpg,left,691.2149999989197,true,high,false
RKbbyTjb,3dzkabx20liukfefnqxhosng7x6cv3,3j4q2z4ut2gdgpmx9k8ajjr24lzwq3,RKbbyTjb,2020-0188,2020-05-21,22:04:48,22:22:13,NA,incomplete,96,shape,0,left,Purple_Circle_Chess_3.jpg,Blue_Circle_Grid_4.jpg,Red_Triangle_Dots_3.jpg,left,654.355000006035,true,high,false
RKbbyTjb,3dzkabx20liukfefnqxhosng7x6cv3,3j4q2z4ut2gdgpmx9k8ajjr24lzwq3,RKbbyTjb,2020-0188,2020-05-21,22:04:48,22:22:13,NA,incomplete,97,shape,1,left,Green_Star_Chess_3.jpg,Blue_Star_Dots_2.jpg,Purple_Triangle_Grid_3.jpg,left,721.1949999909848,true,high,false
RKbbyTjb,3dzkabx20liukfefnqxhosng7x6cv3,3j4q2z4ut2gdgpmx9k8ajjr24lzwq3,RKbbyTjb,2020-0188,2020-05-21,22:04:48,22:22:13,NA,incomplete,98,shape,1,right,Blue_Star_Grid_2.jpg,Purple_Triangle_Stripes_2.jpg,Green_Star_Dots_3.jpg,right,696.0200000030454,true,high,false
RKbbyTjb,3dzkabx20liukfefnqxhosng7x6cv3,3j4q2z4ut2gdgpmx9k8ajjr24lzwq3,RKbbyTjb,2020-0188,2020-05-21,22:04:48,22:22:13,NA,incomplete,99,shape,0,right,Blue_Plus_Grid_1.jpg,Purple_Circle_Chess_1.jpg,Red_Plus_Stripes_4.jpg,right,719.6599999733735,true,high,false
RKbbyTjb,3dzkabx20liukfefnqxhosng7x6cv3,3j4q2z4ut2gdgpmx9k8ajjr24lzwq3,RKbbyTjb,2020-0188,2020-05-21,22:04:48,22:22:13,NA,incomplete,100,number,1,left,Blue_Plus_Chess_3.jpg,Red_Triangle_Grid_3.jpg,Purple_Plus_Stripes_1.jpg,right,781.4900000230409,false,high,false
RKbbyTjb,3dzkabx20liukfefnqxhosng7x6cv3,3j4q2z4ut2gdgpmx9k8ajjr24lzwq3,RKbbyTjb,2020-0188,2020-05-21,22:04:48,22:22:13,NA,incomplete,101,number,1,right,Red_Plus_Chess_4.jpg,Green_Plus_Grid_2.jpg,Blue_Star_Dots_4.jpg,right,819.1349999979138,true,high,false
RKbbyTjb,3dzkabx20liukfefnqxhosng7x6cv3,3j4q2z4ut2gdgpmx9k8ajjr24lzwq3,RKbbyTjb,2020-0188,2020-05-21,22:04:48,22:22:13,NA,incomplete,102,number,1,right,Blue_Plus_Stripes_1.jpg,Green_Plus_Dots_4.jpg,Purple_Triangle_Chess_1.jpg,left,725.8449999790173,false,high,false
RKbbyTjb,3dzkabx20liukfefnqxhosng7x6cv3,3j4q2z4ut2gdgpmx9k8ajjr24lzwq3,RKbbyTjb,2020-0188,2020-05-21,22:04:48,22:22:13,NA,incomplete,103,number,1,left,Red_Star_Dots_4.jpg,Green_Triangle_Grid_4.jpg,Blue_Star_Stripes_1.jpg,left,719.5950000023004,true,high,false
RKbbyTjb,3dzkabx20liukfefnqxhosng7x6cv3,3j4q2z4ut2gdgpmx9k8ajjr24lzwq3,RKbbyTjb,2020-0188,2020-05-21,22:04:48,22:22:13,NA,incomplete,104,number,1,left,Red_Triangle_Grid_1.jpg,Green_Circle_Chess_1.jpg,Blue_Triangle_Dots_3.jpg,left,780.6750000163447,true,high,false
RKbbyTjb,3dzkabx20liukfefnqxhosng7x6cv3,3j4q2z4ut2gdgpmx9k8ajjr24lzwq3,RKbbyTjb,2020-0188,2020-05-21,22:04:48,22:22:13,NA,incomplete,105,number,1,left,Purple_Plus_Grid_2.jpg,Red_Star_Chess_2.jpg,Green_Plus_Stripes_3.jpg,left,789.9550000147428,true,high,false
RKbbyTjb,3dzkabx20liukfefnqxhosng7x6cv3,3j4q2z4ut2gdgpmx9k8ajjr24lzwq3,RKbbyTjb,2020-0188,2020-05-21,22:04:48,22:22:13,NA,incomplete,106,number,1,right,Green_Plus_Chess_3.jpg,Purple_Plus_Dots_1.jpg,Red_Star_Stripes_3.jpg,right,668.6099999933504,true,high,false
RKbbyTjb,3dzkabx20liukfefnqxhosng7x6cv3,3j4q2z4ut2gdgpmx9k8ajjr24lzwq3,RKbbyTjb,2020-0188,2020-05-21,22:04:48,22:22:13,NA,incomplete,107,number,0,right,Red_Triangle_Dots_2.jpg,Green_Triangle_Grid_1.jpg,Purple_Plus_Chess_2.jpg,right,675.3450000251178,true,high,false
RKbbyTjb,3dzkabx20liukfefnqxhosng7x6cv3,3j4q2z4ut2gdgpmx9k8ajjr24lzwq3,RKbbyTjb,2020-0188,2020-05-21,22:04:48,22:22:13,NA,incomplete,108,number,1,right,Blue_Star_Grid_2.jpg,Purple_Star_Stripes_4.jpg,Green_Circle_Chess_2.jpg,left,843.7949999934062,false,high,false
RKbbyTjb,3dzkabx20liukfefnqxhosng7x6cv3,3j4q2z4ut2gdgpmx9k8ajjr24lzwq3,RKbbyTjb,2020-0188,2020-05-21,22:04:48,22:22:13,NA,incomplete,109,number,1,right,Green_Plus_Chess_4.jpg,Purple_Plus_Dots_1.jpg,Blue_Star_Grid_4.jpg,right,733.7300000071991,true,high,false
RKbbyTjb,3dzkabx20liukfefnqxhosng7x6cv3,3j4q2z4ut2gdgpmx9k8ajjr24lzwq3,RKbbyTjb,2020-0188,2020-05-21,22:04:48,22:22:13,NA,incomplete,110,shape,1,left,Purple_Triangle_Stripes_1.jpg,Green_Triangle_Chess_3.jpg,Blue_Star_Grid_1.jpg,right,639.8449999978766,false,high,false
RKbbyTjb,3dzkabx20liukfefnqxhosng7x6cv3,3j4q2z4ut2gdgpmx9k8ajjr24lzwq3,RKbbyTjb,2020-0188,2020-05-21,22:04:48,22:22:13,NA,incomplete,111,shape,1,right,Green_Star_Stripes_2.jpg,Purple_Circle_Chess_2.jpg,Blue_Star_Dots_1.jpg,left,648.4699999855366,false,high,false
RKbbyTjb,3dzkabx20liukfefnqxhosng7x6cv3,3j4q2z4ut2gdgpmx9k8ajjr24lzwq3,RKbbyTjb,2020-0188,2020-05-21,22:04:48,22:22:13,NA,incomplete,112,shape,1,left,Purple_Plus_Stripes_2.jpg,Red_Plus_Dots_4.jpg,Green_Star_Grid_2.jpg,left,765.2600000146776,true,high,false
RKbbyTjb,3dzkabx20liukfefnqxhosng7x6cv3,3j4q2z4ut2gdgpmx9k8ajjr24lzwq3,RKbbyTjb,2020-0188,2020-05-21,22:04:48,22:22:13,NA,incomplete,113,shape,0,left,Red_Circle_Grid_3.jpg,Blue_Circle_Chess_4.jpg,Purple_Triangle_Dots_3.jpg,left,577.9449999972712,true,high,false
RKbbyTjb,3dzkabx20liukfefnqxhosng7x6cv3,3j4q2z4ut2gdgpmx9k8ajjr24lzwq3,RKbbyTjb,2020-0188,2020-05-21,22:04:48,22:22:13,NA,incomplete,114,shape,1,right,Blue_Circle_Grid_1.jpg,Green_Plus_Chess_1.jpg,Red_Circle_Stripes_4.jpg,right,760.9599999850616,true,high,false
RKbbyTjb,3dzkabx20liukfefnqxhosng7x6cv3,3j4q2z4ut2gdgpmx9k8ajjr24lzwq3,RKbbyTjb,2020-0188,2020-05-21,22:04:48,22:22:13,NA,incomplete,115,shape,1,right,Red_Triangle_Stripes_3.jpg,Blue_Plus_Grid_3.jpg,Purple_Triangle_Chess_1.jpg,right,759.7600000153761,true,high,false
RKbbyTjb,3dzkabx20liukfefnqxhosng7x6cv3,3j4q2z4ut2gdgpmx9k8ajjr24lzwq3,RKbbyTjb,2020-0188,2020-05-21,22:04:48,22:22:13,NA,incomplete,116,shape,0,left,Green_Plus_Grid_2.jpg,Blue_Plus_Chess_4.jpg,Purple_Star_Dots_2.jpg,left,682.4999999953434,true,high,false
RKbbyTjb,3dzkabx20liukfefnqxhosng7x6cv3,3j4q2z4ut2gdgpmx9k8ajjr24lzwq3,RKbbyTjb,2020-0188,2020-05-21,22:04:48,22:22:13,NA,incomplete,117,shape,1,left,Purple_Star_Chess_4.jpg,Green_Star_Grid_1.jpg,Blue_Circle_Dots_4.jpg,right,688.769999978831,false,high,false
RKbbyTjb,3dzkabx20liukfefnqxhosng7x6cv3,3j4q2z4ut2gdgpmx9k8ajjr24lzwq3,RKbbyTjb,2020-0188,2020-05-21,22:04:48,22:22:13,NA,incomplete,118,shape,1,right,Blue_Circle_Chess_1.jpg,Red_Plus_Stripes_1.jpg,Green_Circle_Grid_3.jpg,right,684.0249999950174,true,high,false
RKbbyTjb,3dzkabx20liukfefnqxhosng7x6cv3,3j4q2z4ut2gdgpmx9k8ajjr24lzwq3,RKbbyTjb,2020-0188,2020-05-21,22:04:48,22:22:13,NA,incomplete,119,shape,1,right,Purple_Star_Stripes_1.jpg,Red_Triangle_Grid_1.jpg,Green_Star_Chess_2.jpg,right,790.8050000260118,true,high,false
RKbbyTjb,3dzkabx20liukfefnqxhosng7x6cv3,3j4q2z4ut2gdgpmx9k8ajjr24lzwq3,RKbbyTjb,2020-0188,2020-05-21,22:04:48,22:22:13,NA,incomplete,120,filling,1,right,Blue_Circle_Stripes_3.jpg,Blue_Star_Grid_1.jpg,Purple_Triangle_Stripes_2.jpg,NA,NA,NA,high,false
RKbbyTjb,3dzkabx20liukfefnqxhosng7x6cv3,3j4q2z4ut2gdgpmx9k8ajjr24lzwq3,RKbbyTjb,2020-0188,2020-05-21,22:04:48,22:22:13,NA,incomplete,121,filling,1,left,Blue_Plus_Chess_4.jpg,Green_Circle_Chess_1.jpg,Blue_Star_Stripes_3.jpg,right,820.7249999977648,false,high,false
RKbbyTjb,3dzkabx20liukfefnqxhosng7x6cv3,3j4q2z4ut2gdgpmx9k8ajjr24lzwq3,RKbbyTjb,2020-0188,2020-05-21,22:04:48,22:22:13,NA,incomplete,122,filling,1,right,Green_Circle_Stripes_3.jpg,Green_Star_Grid_4.jpg,Purple_Triangle_Stripes_2.jpg,left,818.9000000129454,false,high,false
RKbbyTjb,3dzkabx20liukfefnqxhosng7x6cv3,3j4q2z4ut2gdgpmx9k8ajjr24lzwq3,RKbbyTjb,2020-0188,2020-05-21,22:04:48,22:22:13,NA,incomplete,123,filling,1,left,Red_Plus_Chess_3.jpg,Purple_Triangle_Chess_2.jpg,Red_Star_Grid_1.jpg,right,1164.2099999880884,false,high,false
RKbbyTjb,3dzkabx20liukfefnqxhosng7x6cv3,3j4q2z4ut2gdgpmx9k8ajjr24lzwq3,RKbbyTjb,2020-0188,2020-05-21,22:04:48,22:22:13,NA,incomplete,124,filling,1,right,Purple_Plus_Chess_4.jpg,Purple_Star_Stripes_1.jpg,Blue_Circle_Chess_3.jpg,right,999.1250000020955,true,high,false
RKbbyTjb,3dzkabx20liukfefnqxhosng7x6cv3,3j4q2z4ut2gdgpmx9k8ajjr24lzwq3,RKbbyTjb,2020-0188,2020-05-21,22:04:48,22:22:13,NA,incomplete,125,filling,0,left,Blue_Triangle_Grid_1.jpg,Purple_Star_Grid_2.jpg,Blue_Circle_Chess_4.jpg,left,974.6600000071339,true,high,false
RKbbyTjb,3dzkabx20liukfefnqxhosng7x6cv3,3j4q2z4ut2gdgpmx9k8ajjr24lzwq3,RKbbyTjb,2020-0188,2020-05-21,22:04:48,22:22:13,NA,incomplete,126,filling,1,right,Blue_Plus_Chess_2.jpg,Blue_Triangle_Grid_1.jpg,Green_Circle_Chess_4.jpg,right,975.3149999887682,true,high,false
RKbbyTjb,3dzkabx20liukfefnqxhosng7x6cv3,3j4q2z4ut2gdgpmx9k8ajjr24lzwq3,RKbbyTjb,2020-0188,2020-05-21,22:04:48,22:22:13,NA,incomplete,127,filling,1,right,Blue_Plus_Chess_3.jpg,Blue_Circle_Grid_2.jpg,Red_Star_Chess_1.jpg,right,940.0449999957345,true,high,false
RKbbyTjb,3dzkabx20liukfefnqxhosng7x6cv3,3j4q2z4ut2gdgpmx9k8ajjr24lzwq3,RKbbyTjb,2020-0188,2020-05-21,22:04:48,22:22:13,NA,incomplete,128,filling,1,left,Purple_Circle_Stripes_4.jpg,Blue_Triangle_Stripes_2.jpg,Purple_Star_Grid_3.jpg,left,898.285000002943,true,high,false
RKbbyTjb,3dzkabx20liukfefnqxhosng7x6cv3,3j4q2z4ut2gdgpmx9k8ajjr24lzwq3,RKbbyTjb,2020-0188,2020-05-21,22:04:48,22:22:13,NA,incomplete,129,filling,0,left,Red_Plus_Chess_2.jpg,Blue_Circle_Chess_1.jpg,Red_Triangle_Dots_3.jpg,left,732.1149999916088,true,high,false
RKbbyTjb,3dzkabx20liukfefnqxhosng7x6cv3,3j4q2z4ut2gdgpmx9k8ajjr24lzwq3,RKbbyTjb,2020-0188,2020-05-21,22:04:48,22:22:13,NA,incomplete,130,filling,1,right,Red_Star_Grid_2.jpg,Red_Plus_Stripes_3.jpg,Blue_Triangle_Grid_1.jpg,left,880.6700000131968,false,high,false
RKbbyTjb,3dzkabx20liukfefnqxhosng7x6cv3,3j4q2z4ut2gdgpmx9k8ajjr24lzwq3,RKbbyTjb,2020-0188,2020-05-21,22:04:48,22:22:13,NA,incomplete,131,filling,1,left,Red_Star_Grid_3.jpg,Purple_Circle_Grid_2.jpg,Red_Triangle_Stripes_4.jpg,right,842.0999999798369,false,high,false
RKbbyTjb,3dzkabx20liukfefnqxhosng7x6cv3,3j4q2z4ut2gdgpmx9k8ajjr24lzwq3,RKbbyTjb,2020-0188,2020-05-21,22:04:48,22:22:13,NA,incomplete,132,filling,1,right,Red_Circle_Dots_1.jpg,Red_Plus_Chess_3.jpg,Purple_Triangle_Dots_2.jpg,right,967.8549999953248,true,high,false
RKbbyTjb,3dzkabx20liukfefnqxhosng7x6cv3,3j4q2z4ut2gdgpmx9k8ajjr24lzwq3,RKbbyTjb,2020-0188,2020-05-21,22:04:48,22:22:13,NA,incomplete,133,filling,1,left,Purple_Star_Chess_3.jpg,Red_Circle_Chess_2.jpg,Purple_Plus_Stripes_1.jpg,left,919.6249999804422,true,high,false
RKbbyTjb,3dzkabx20liukfefnqxhosng7x6cv3,3j4q2z4ut2gdgpmx9k8ajjr24lzwq3,RKbbyTjb,2020-0188,2020-05-21,22:04:48,22:22:13,NA,incomplete,134,filling,1,right,Green_Star_Dots_1.jpg,Green_Circle_Grid_2.jpg,Red_Triangle_Dots_3.jpg,right,915.3449999867007,true,high,false
RKbbyTjb,3dzkabx20liukfefnqxhosng7x6cv3,3j4q2z4ut2gdgpmx9k8ajjr24lzwq3,RKbbyTjb,2020-0188,2020-05-21,22:04:48,22:22:13,NA,incomplete,135,filling,1,right,Red_Plus_Grid_4.jpg,Red_Star_Dots_1.jpg,Green_Circle_Grid_2.jpg,right,972.5250000192318,true,high,false
RKbbyTjb,3dzkabx20liukfefnqxhosng7x6cv3,3j4q2z4ut2gdgpmx9k8ajjr24lzwq3,RKbbyTjb,2020-0188,2020-05-21,22:04:48,22:22:13,NA,incomplete,136,filling,1,right,Purple_Triangle_Dots_4.jpg,Purple_Circle_Stripes_1.jpg,Blue_Plus_Dots_2.jpg,right,919.8650000034831,true,high,false
RKbbyTjb,3dzkabx20liukfefnqxhosng7x6cv3,3j4q2z4ut2gdgpmx9k8ajjr24lzwq3,RKbbyTjb,2020-0188,2020-05-21,22:04:48,22:22:13,NA,incomplete,137,filling,1,right,Blue_Plus_Chess_3.jpg,Blue_Star_Stripes_1.jpg,Green_Circle_Chess_4.jpg,right,880.2100000029895,true,high,false
RKbbyTjb,3dzkabx20liukfefnqxhosng7x6cv3,3j4q2z4ut2gdgpmx9k8ajjr24lzwq3,RKbbyTjb,2020-0188,2020-05-21,22:04:48,22:22:13,NA,incomplete,138,filling,1,left,Green_Triangle_Dots_4.jpg,Red_Star_Dots_2.jpg,Green_Circle_Stripes_3.jpg,left,956.8300000100862,true,high,false
RKbbyTjb,3dzkabx20liukfefnqxhosng7x6cv3,3j4q2z4ut2gdgpmx9k8ajjr24lzwq3,RKbbyTjb,2020-0188,2020-05-21,22:04:48,22:22:13,NA,incomplete,139,filling,1,left,Purple_Star_Chess_2.jpg,Green_Plus_Chess_3.jpg,Purple_Triangle_Stripes_1.jpg,left,896.2800000153948,true,high,false
RKbbyTjb,3dzkabx20liukfefnqxhosng7x6cv3,3j4q2z4ut2gdgpmx9k8ajjr24lzwq3,RKbbyTjb,2020-0188,2020-05-21,22:04:48,22:22:13,NA,incomplete,140,color,0,right,Blue_Triangle_Grid_2.jpg,Green_Plus_Grid_3.jpg,Blue_Circle_Dots_4.jpg,left,959.7300000023097,false,high,false
RKbbyTjb,3dzkabx20liukfefnqxhosng7x6cv3,3j4q2z4ut2gdgpmx9k8ajjr24lzwq3,RKbbyTjb,2020-0188,2020-05-21,22:04:48,22:22:13,NA,incomplete,141,color,1,left,Red_Triangle_Dots_2.jpg,Red_Circle_Chess_1.jpg,Green_Plus_Dots_4.jpg,right,863.4049999818671,false,high,false
RKbbyTjb,3dzkabx20liukfefnqxhosng7x6cv3,3j4q2z4ut2gdgpmx9k8ajjr24lzwq3,RKbbyTjb,2020-0188,2020-05-21,22:04:48,22:22:13,NA,incomplete,142,color,1,left,Blue_Star_Dots_2.jpg,Blue_Triangle_Chess_3.jpg,Red_Plus_Dots_1.jpg,right,940.9650000161491,false,high,false
RKbbyTjb,3dzkabx20liukfefnqxhosng7x6cv3,3j4q2z4ut2gdgpmx9k8ajjr24lzwq3,RKbbyTjb,2020-0188,2020-05-21,22:04:48,22:22:13,NA,incomplete,143,color,1,right,Red_Star_Stripes_3.jpg,Purple_Circle_Stripes_4.jpg,Red_Plus_Grid_2.jpg,right,761.5150000201538,true,high,false
RKbbyTjb,3dzkabx20liukfefnqxhosng7x6cv3,3j4q2z4ut2gdgpmx9k8ajjr24lzwq3,RKbbyTjb,2020-0188,2020-05-21,22:04:48,22:22:13,NA,incomplete,144,color,0,right,Purple_Circle_Dots_2.jpg,Green_Star_Dots_4.jpg,Purple_Plus_Stripes_1.jpg,right,716.4849999826401,true,high,false
RKbbyTjb,3dzkabx20liukfefnqxhosng7x6cv3,3j4q2z4ut2gdgpmx9k8ajjr24lzwq3,RKbbyTjb,2020-0188,2020-05-21,22:04:48,22:22:13,NA,incomplete,145,color,1,right,Red_Plus_Stripes_4.jpg,Green_Star_Stripes_3.jpg,Red_Circle_Dots_2.jpg,right,949.2699999827892,true,high,false
RKbbyTjb,3dzkabx20liukfefnqxhosng7x6cv3,3j4q2z4ut2gdgpmx9k8ajjr24lzwq3,RKbbyTjb,2020-0188,2020-05-21,22:04:48,22:22:13,NA,incomplete,146,color,1,right,Blue_Plus_Stripes_3.jpg,Purple_Triangle_Stripes_2.jpg,Blue_Circle_Chess_4.jpg,right,625.9750000026543,true,high,false
RKbbyTjb,3dzkabx20liukfefnqxhosng7x6cv3,3j4q2z4ut2gdgpmx9k8ajjr24lzwq3,RKbbyTjb,2020-0188,2020-05-21,22:04:48,22:22:13,NA,incomplete,147,color,1,left,Red_Star_Stripes_2.jpg,Red_Plus_Chess_4.jpg,Purple_Circle_Stripes_3.jpg,left,714.8199999937788,true,high,false
RKbbyTjb,3dzkabx20liukfefnqxhosng7x6cv3,3j4q2z4ut2gdgpmx9k8ajjr24lzwq3,RKbbyTjb,2020-0188,2020-05-21,22:04:48,22:22:13,NA,incomplete,148,color,1,right,Red_Plus_Grid_3.jpg,Purple_Triangle_Grid_2.jpg,Red_Star_Chess_4.jpg,right,529.6450000023469,true,high,false
RKbbyTjb,3dzkabx20liukfefnqxhosng7x6cv3,3j4q2z4ut2gdgpmx9k8ajjr24lzwq3,RKbbyTjb,2020-0188,2020-05-21,22:04:48,22:22:13,NA,incomplete,149,color,1,right,Blue_Star_Dots_2.jpg,Purple_Plus_Dots_4.jpg,Blue_Triangle_Chess_3.jpg,right,667.3899999877904,true,high,false
RKbbyTjb,3dzkabx20liukfefnqxhosng7x6cv3,3j4q2z4ut2gdgpmx9k8ajjr24lzwq3,RKbbyTjb,2020-0188,2020-05-21,22:04:48,22:22:13,NA,incomplete,150,color,1,right,Red_Star_Stripes_4.jpg,Green_Triangle_Stripes_1.jpg,Red_Circle_Dots_3.jpg,right,847.8499999910127,true,high,false
RKbbyTjb,3dzkabx20liukfefnqxhosng7x6cv3,3j4q2z4ut2gdgpmx9k8ajjr24lzwq3,RKbbyTjb,2020-0188,2020-05-21,22:04:48,22:22:13,NA,incomplete,151,color,1,left,Blue_Plus_Grid_2.jpg,Blue_Star_Stripes_4.jpg,Red_Triangle_Grid_1.jpg,left,479.20499998144805,true,high,false
RKbbyTjb,3dzkabx20liukfefnqxhosng7x6cv3,3j4q2z4ut2gdgpmx9k8ajjr24lzwq3,RKbbyTjb,2020-0188,2020-05-21,22:04:48,22:22:13,NA,incomplete,152,color,1,right,Green_Circle_Dots_2.jpg,Blue_Plus_Dots_4.jpg,Green_Triangle_Stripes_1.jpg,right,592.2849999915343,true,high,false
RKbbyTjb,3dzkabx20liukfefnqxhosng7x6cv3,3j4q2z4ut2gdgpmx9k8ajjr24lzwq3,RKbbyTjb,2020-0188,2020-05-21,22:04:48,22:22:13,NA,incomplete,153,color,1,left,Red_Plus_Stripes_1.jpg,Red_Star_Grid_2.jpg,Purple_Circle_Stripes_3.jpg,left,586.5749999938998,true,high,false
RKbbyTjb,3dzkabx20liukfefnqxhosng7x6cv3,3j4q2z4ut2gdgpmx9k8ajjr24lzwq3,RKbbyTjb,2020-0188,2020-05-21,22:04:48,22:22:13,NA,incomplete,154,color,1,left,Red_Circle_Chess_4.jpg,Red_Triangle_Dots_1.jpg,Purple_Plus_Chess_3.jpg,left,519.8450000025332,true,high,false
RKbbyTjb,3dzkabx20liukfefnqxhosng7x6cv3,3j4q2z4ut2gdgpmx9k8ajjr24lzwq3,RKbbyTjb,2020-0188,2020-05-21,22:04:48,22:22:13,NA,incomplete,155,color,1,right,Green_Triangle_Stripes_1.jpg,Purple_Plus_Stripes_3.jpg,Green_Star_Dots_4.jpg,right,538.1449999986216,true,high,false
RKbbyTjb,3dzkabx20liukfefnqxhosng7x6cv3,3j4q2z4ut2gdgpmx9k8ajjr24lzwq3,RKbbyTjb,2020-0188,2020-05-21,22:04:48,22:22:13,NA,incomplete,156,color,1,right,Purple_Star_Stripes_4.jpg,Green_Circle_Stripes_3.jpg,Purple_Plus_Grid_2.jpg,right,513.8500000175554,true,high,false
RKbbyTjb,3dzkabx20liukfefnqxhosng7x6cv3,3j4q2z4ut2gdgpmx9k8ajjr24lzwq3,RKbbyTjb,2020-0188,2020-05-21,22:04:48,22:22:13,NA,incomplete,157,color,1,right,Green_Star_Stripes_1.jpg,Red_Plus_Stripes_4.jpg,Green_Triangle_Grid_2.jpg,right,509.2149999982212,true,high,false
RKbbyTjb,3dzkabx20liukfefnqxhosng7x6cv3,3j4q2z4ut2gdgpmx9k8ajjr24lzwq3,RKbbyTjb,2020-0188,2020-05-21,22:04:48,22:22:13,NA,incomplete,158,color,1,right,Purple_Star_Grid_1.jpg,Green_Plus_Grid_3.jpg,Purple_Circle_Dots_2.jpg,right,534.1550000011921,true,high,false
RKbbyTjb,3dzkabx20liukfefnqxhosng7x6cv3,3j4q2z4ut2gdgpmx9k8ajjr24lzwq3,RKbbyTjb,2020-0188,2020-05-21,22:04:48,22:22:13,NA,incomplete,159,color,1,right,Purple_Plus_Stripes_1.jpg,Blue_Star_Stripes_4.jpg,Purple_Triangle_Grid_2.jpg,right,492.73999998695217,true,high,false
RKbbyTjb,3dzkabx20liukfefnqxhosng7x6cv3,3j4q2z4ut2gdgpmx9k8ajjr24lzwq3,RKbbyTjb,2020-0188,2020-05-21,22:04:48,22:22:13,NA,incomplete,160,filling,0,left,Red_Triangle_Chess_4.jpg,Purple_Star_Chess_3.jpg,Red_Plus_Dots_2.jpg,right,514.8700000136159,false,high,false
RKbbyTjb,3dzkabx20liukfefnqxhosng7x6cv3,3j4q2z4ut2gdgpmx9k8ajjr24lzwq3,RKbbyTjb,2020-0188,2020-05-21,22:04:48,22:22:13,NA,incomplete,161,filling,1,right,Red_Triangle_Chess_3.jpg,Red_Circle_Stripes_1.jpg,Green_Star_Chess_4.jpg,left,620.0449999887496,false,high,false
RKbbyTjb,3dzkabx20liukfefnqxhosng7x6cv3,3j4q2z4ut2gdgpmx9k8ajjr24lzwq3,RKbbyTjb,2020-0188,2020-05-21,22:04:48,22:22:13,NA,incomplete,162,filling,1,right,Purple_Triangle_Stripes_1.jpg,Purple_Circle_Grid_2.jpg,Green_Star_Stripes_4.jpg,left,821.1149999988265,false,high,false
RKbbyTjb,3dzkabx20liukfefnqxhosng7x6cv3,3j4q2z4ut2gdgpmx9k8ajjr24lzwq3,RKbbyTjb,2020-0188,2020-05-21,22:04:48,22:22:13,NA,incomplete,163,filling,1,right,Purple_Plus_Dots_4.jpg,Purple_Circle_Grid_1.jpg,Red_Star_Dots_3.jpg,right,883.7500000081491,true,high,false
RKbbyTjb,3dzkabx20liukfefnqxhosng7x6cv3,3j4q2z4ut2gdgpmx9k8ajjr24lzwq3,RKbbyTjb,2020-0188,2020-05-21,22:04:48,22:22:13,NA,incomplete,164,filling,1,right,Purple_Plus_Dots_3.jpg,Purple_Circle_Chess_4.jpg,Red_Star_Dots_1.jpg,right,856.6850000061095,true,high,false
RKbbyTjb,3dzkabx20liukfefnqxhosng7x6cv3,3j4q2z4ut2gdgpmx9k8ajjr24lzwq3,RKbbyTjb,2020-0188,2020-05-21,22:04:48,22:22:13,NA,incomplete,165,filling,1,right,Purple_Circle_Dots_3.jpg,Purple_Triangle_Stripes_1.jpg,Red_Star_Dots_2.jpg,right,786.6100000101142,true,high,false
RKbbyTjb,3dzkabx20liukfefnqxhosng7x6cv3,3j4q2z4ut2gdgpmx9k8ajjr24lzwq3,RKbbyTjb,2020-0188,2020-05-21,22:04:48,22:22:13,NA,incomplete,166,filling,1,right,Purple_Star_Chess_4.jpg,Purple_Circle_Dots_1.jpg,Green_Triangle_Chess_2.jpg,right,917.9200000071432,true,high,false
RKbbyTjb,3dzkabx20liukfefnqxhosng7x6cv3,3j4q2z4ut2gdgpmx9k8ajjr24lzwq3,RKbbyTjb,2020-0188,2020-05-21,22:04:48,22:22:13,NA,incomplete,167,filling,1,left,Green_Circle_Dots_4.jpg,Blue_Star_Dots_2.jpg,Green_Triangle_Chess_3.jpg,right,812.6650000049267,false,high,false
RKbbyTjb,3dzkabx20liukfefnqxhosng7x6cv3,3j4q2z4ut2gdgpmx9k8ajjr24lzwq3,RKbbyTjb,2020-0188,2020-05-21,22:04:48,22:22:13,NA,incomplete,168,filling,1,right,Blue_Plus_Grid_3.jpg,Blue_Star_Dots_1.jpg,Purple_Circle_Grid_4.jpg,right,860.5650000099558,true,high,false
RKbbyTjb,3dzkabx20liukfefnqxhosng7x6cv3,3j4q2z4ut2gdgpmx9k8ajjr24lzwq3,RKbbyTjb,2020-0188,2020-05-21,22:04:48,22:22:13,NA,incomplete,169,filling,1,right,Blue_Plus_Dots_1.jpg,Blue_Circle_Grid_4.jpg,Red_Triangle_Dots_2.jpg,right,849.1849999991246,true,high,false
RKbbyTjb,3dzkabx20liukfefnqxhosng7x6cv3,3j4q2z4ut2gdgpmx9k8ajjr24lzwq3,RKbbyTjb,2020-0188,2020-05-21,22:04:48,22:22:13,NA,incomplete,170,filling,0,right,Red_Circle_Dots_2.jpg,Red_Star_Grid_1.jpg,Purple_Triangle_Dots_4.jpg,right,861.9050000270363,true,high,false
RKbbyTjb,3dzkabx20liukfefnqxhosng7x6cv3,3j4q2z4ut2gdgpmx9k8ajjr24lzwq3,RKbbyTjb,2020-0188,2020-05-21,22:04:48,22:22:13,NA,incomplete,171,filling,1,right,Red_Circle_Stripes_1.jpg,Red_Plus_Chess_3.jpg,Green_Star_Stripes_4.jpg,right,832.5499999918975,true,high,false
RKbbyTjb,3dzkabx20liukfefnqxhosng7x6cv3,3j4q2z4ut2gdgpmx9k8ajjr24lzwq3,RKbbyTjb,2020-0188,2020-05-21,22:04:48,22:22:13,NA,incomplete,172,filling,1,left,Green_Triangle_Chess_4.jpg,Blue_Plus_Chess_1.jpg,Green_Circle_Dots_3.jpg,left,703.4500000008848,true,high,false
RKbbyTjb,3dzkabx20liukfefnqxhosng7x6cv3,3j4q2z4ut2gdgpmx9k8ajjr24lzwq3,RKbbyTjb,2020-0188,2020-05-21,22:04:48,22:22:13,NA,incomplete,173,filling,1,right,Green_Star_Stripes_3.jpg,Green_Plus_Chess_2.jpg,Blue_Triangle_Stripes_1.jpg,right,845.8999999857042,true,high,false
RKbbyTjb,3dzkabx20liukfefnqxhosng7x6cv3,3j4q2z4ut2gdgpmx9k8ajjr24lzwq3,RKbbyTjb,2020-0188,2020-05-21,22:04:48,22:22:13,NA,incomplete,174,filling,1,left,Red_Circle_Stripes_2.jpg,Green_Star_Stripes_3.jpg,Red_Triangle_Dots_1.jpg,left,878.0599999881815,true,high,false
RKbbyTjb,3dzkabx20liukfefnqxhosng7x6cv3,3j4q2z4ut2gdgpmx9k8ajjr24lzwq3,RKbbyTjb,2020-0188,2020-05-21,22:04:48,22:22:13,NA,incomplete,175,filling,0,left,Blue_Triangle_Chess_1.jpg,Green_Plus_Chess_2.jpg,Blue_Circle_Grid_3.jpg,left,780.0450000213459,true,high,false
RKbbyTjb,3dzkabx20liukfefnqxhosng7x6cv3,3j4q2z4ut2gdgpmx9k8ajjr24lzwq3,RKbbyTjb,2020-0188,2020-05-21,22:04:48,22:22:13,NA,incomplete,176,filling,1,right,Red_Star_Chess_4.jpg,Red_Triangle_Stripes_1.jpg,Green_Plus_Chess_2.jpg,left,595.1699999859557,false,high,false
RKbbyTjb,3dzkabx20liukfefnqxhosng7x6cv3,3j4q2z4ut2gdgpmx9k8ajjr24lzwq3,RKbbyTjb,2020-0188,2020-05-21,22:04:48,22:22:13,NA,incomplete,177,filling,0,left,Purple_Triangle_Grid_1.jpg,Red_Circle_Grid_4.jpg,Purple_Star_Chess_3.jpg,right,563.2350000087172,false,high,false
RKbbyTjb,3dzkabx20liukfefnqxhosng7x6cv3,3j4q2z4ut2gdgpmx9k8ajjr24lzwq3,RKbbyTjb,2020-0188,2020-05-21,22:04:48,22:22:13,NA,incomplete,178,filling,1,right,Red_Triangle_Chess_1.jpg,Red_Star_Stripes_4.jpg,Purple_Plus_Chess_2.jpg,left,598.1700000120327,false,high,false
RKbbyTjb,3dzkabx20liukfefnqxhosng7x6cv3,3j4q2z4ut2gdgpmx9k8ajjr24lzwq3,RKbbyTjb,2020-0188,2020-05-21,22:04:48,22:22:13,NA,incomplete,179,filling,0,right,Blue_Star_Dots_1.jpg,Blue_Triangle_Grid_4.jpg,Green_Plus_Dots_2.jpg,right,788.990000000922,true,high,false
RKbbyTjb,3dzkabx20liukfefnqxhosng7x6cv3,3j4q2z4ut2gdgpmx9k8ajjr24lzwq3,RKbbyTjb,2020-0188,2020-05-21,22:04:48,22:22:13,NA,incomplete,180,color,1,left,Purple_Star_Grid_1.jpg,Purple_Plus_Stripes_3.jpg,Green_Circle_Grid_4.jpg,left,544.5349999936298,true,high,false
RKbbyTjb,3dzkabx20liukfefnqxhosng7x6cv3,3j4q2z4ut2gdgpmx9k8ajjr24lzwq3,RKbbyTjb,2020-0188,2020-05-21,22:04:48,22:22:13,NA,incomplete,181,color,1,right,Green_Circle_Dots_4.jpg,Purple_Plus_Dots_3.jpg,Green_Star_Grid_2.jpg,right,490.40499998955056,true,high,false
RKbbyTjb,3dzkabx20liukfefnqxhosng7x6cv3,3j4q2z4ut2gdgpmx9k8ajjr24lzwq3,RKbbyTjb,2020-0188,2020-05-21,22:04:48,22:22:13,NA,incomplete,182,color,1,left,Purple_Triangle_Dots_1.jpg,Purple_Star_Grid_4.jpg,Blue_Plus_Dots_3.jpg,left,528.5799999837764,true,high,false
RKbbyTjb,3dzkabx20liukfefnqxhosng7x6cv3,3j4q2z4ut2gdgpmx9k8ajjr24lzwq3,RKbbyTjb,2020-0188,2020-05-21,22:04:48,22:22:13,NA,incomplete,183,color,1,right,Blue_Circle_Grid_4.jpg,Red_Star_Grid_1.jpg,Blue_Plus_Stripes_3.jpg,right,531.5750000008848,true,high,false
RKbbyTjb,3dzkabx20liukfefnqxhosng7x6cv3,3j4q2z4ut2gdgpmx9k8ajjr24lzwq3,RKbbyTjb,2020-0188,2020-05-21,22:04:48,22:22:13,NA,incomplete,184,color,1,left,Purple_Plus_Dots_4.jpg,Purple_Star_Chess_2.jpg,Green_Circle_Dots_1.jpg,left,505.4150000214577,true,high,false
RKbbyTjb,3dzkabx20liukfefnqxhosng7x6cv3,3j4q2z4ut2gdgpmx9k8ajjr24lzwq3,RKbbyTjb,2020-0188,2020-05-21,22:04:48,22:22:13,NA,incomplete,185,color,1,right,Green_Circle_Stripes_1.jpg,Blue_Star_Stripes_4.jpg,Green_Triangle_Grid_3.jpg,right,493.6149999848567,true,high,false
RKbbyTjb,3dzkabx20liukfefnqxhosng7x6cv3,3j4q2z4ut2gdgpmx9k8ajjr24lzwq3,RKbbyTjb,2020-0188,2020-05-21,22:04:48,22:22:13,NA,incomplete,186,color,1,left,Green_Circle_Stripes_3.jpg,Green_Triangle_Chess_1.jpg,Purple_Plus_Stripes_4.jpg,left,529.4199999771081,true,high,false
RKbbyTjb,3dzkabx20liukfefnqxhosng7x6cv3,3j4q2z4ut2gdgpmx9k8ajjr24lzwq3,RKbbyTjb,2020-0188,2020-05-21,22:04:48,22:22:13,NA,incomplete,187,color,0,left,Red_Circle_Dots_3.jpg,Red_Plus_Stripes_4.jpg,Blue_Triangle_Dots_1.jpg,left,538.9200000208803,true,high,false
RKbbyTjb,3dzkabx20liukfefnqxhosng7x6cv3,3j4q2z4ut2gdgpmx9k8ajjr24lzwq3,RKbbyTjb,2020-0188,2020-05-21,22:04:48,22:22:13,NA,incomplete,188,color,1,right,Blue_Plus_Stripes_4.jpg,Purple_Triangle_Stripes_3.jpg,Blue_Star_Chess_2.jpg,right,447.7150000166148,true,high,false
RKbbyTjb,3dzkabx20liukfefnqxhosng7x6cv3,3j4q2z4ut2gdgpmx9k8ajjr24lzwq3,RKbbyTjb,2020-0188,2020-05-21,22:04:48,22:22:13,NA,incomplete,189,color,0,right,Red_Plus_Stripes_2.jpg,Green_Triangle_Stripes_1.jpg,Red_Star_Chess_3.jpg,right,587.230000004638,true,high,false
RKbbyTjb,3dzkabx20liukfefnqxhosng7x6cv3,3j4q2z4ut2gdgpmx9k8ajjr24lzwq3,RKbbyTjb,2020-0188,2020-05-21,22:04:48,22:22:13,NA,incomplete,190,color,1,right,Purple_Circle_Dots_4.jpg,Red_Plus_Dots_3.jpg,Purple_Star_Chess_2.jpg,right,771.4299999934155,true,high,false
RKbbyTjb,3dzkabx20liukfefnqxhosng7x6cv3,3j4q2z4ut2gdgpmx9k8ajjr24lzwq3,RKbbyTjb,2020-0188,2020-05-21,22:04:48,22:22:13,NA,incomplete,191,color,0,left,Red_Star_Grid_2.jpg,Red_Circle_Dots_3.jpg,Green_Triangle_Grid_1.jpg,right,827.7250000101048,false,high,false
RKbbyTjb,3dzkabx20liukfefnqxhosng7x6cv3,3j4q2z4ut2gdgpmx9k8ajjr24lzwq3,RKbbyTjb,2020-0188,2020-05-21,22:04:48,22:22:13,NA,incomplete,192,color,1,right,Red_Triangle_Stripes_1.jpg,Green_Plus_Stripes_2.jpg,Red_Star_Chess_3.jpg,right,667.1099999803118,true,high,false
RKbbyTjb,3dzkabx20liukfefnqxhosng7x6cv3,3j4q2z4ut2gdgpmx9k8ajjr24lzwq3,RKbbyTjb,2020-0188,2020-05-21,22:04:48,22:22:13,NA,incomplete,193,color,1,right,Red_Triangle_Chess_2.jpg,Purple_Circle_Chess_1.jpg,Red_Star_Dots_4.jpg,right,646.5949999983422,true,high,false
RKbbyTjb,3dzkabx20liukfefnqxhosng7x6cv3,3j4q2z4ut2gdgpmx9k8ajjr24lzwq3,RKbbyTjb,2020-0188,2020-05-21,22:04:48,22:22:13,NA,incomplete,194,color,0,left,Red_Circle_Stripes_3.jpg,Red_Plus_Chess_1.jpg,Blue_Triangle_Stripes_4.jpg,left,648.5450000036508,true,high,false
RKbbyTjb,3dzkabx20liukfefnqxhosng7x6cv3,3j4q2z4ut2gdgpmx9k8ajjr24lzwq3,RKbbyTjb,2020-0188,2020-05-21,22:04:48,22:22:13,NA,incomplete,195,color,1,left,Red_Plus_Chess_4.jpg,Red_Triangle_Grid_3.jpg,Green_Star_Chess_2.jpg,left,530.9849999903236,true,high,false
RKbbyTjb,3dzkabx20liukfefnqxhosng7x6cv3,3j4q2z4ut2gdgpmx9k8ajjr24lzwq3,RKbbyTjb,2020-0188,2020-05-21,22:04:48,22:22:13,NA,incomplete,196,color,1,right,Blue_Plus_Stripes_4.jpg,Green_Circle_Stripes_2.jpg,Blue_Triangle_Chess_1.jpg,right,531.3450000248849,true,high,false
RKbbyTjb,3dzkabx20liukfefnqxhosng7x6cv3,3j4q2z4ut2gdgpmx9k8ajjr24lzwq3,RKbbyTjb,2020-0188,2020-05-21,22:04:48,22:22:13,NA,incomplete,197,color,1,right,Green_Circle_Grid_1.jpg,Red_Star_Grid_3.jpg,Green_Triangle_Chess_2.jpg,right,497.6099999912549,true,high,false
RKbbyTjb,3dzkabx20liukfefnqxhosng7x6cv3,3j4q2z4ut2gdgpmx9k8ajjr24lzwq3,RKbbyTjb,2020-0188,2020-05-21,22:04:48,22:22:13,NA,incomplete,198,color,1,left,Green_Plus_Stripes_3.jpg,Green_Triangle_Grid_4.jpg,Blue_Circle_Stripes_1.jpg,left,459.11500000511296,true,high,false
RKbbyTjb,3dzkabx20liukfefnqxhosng7x6cv3,3j4q2z4ut2gdgpmx9k8ajjr24lzwq3,RKbbyTjb,2020-0188,2020-05-21,22:04:48,22:22:13,NA,incomplete,199,color,0,left,Purple_Star_Chess_2.jpg,Purple_Triangle_Grid_4.jpg,Blue_Plus_Chess_3.jpg,left,680.4499999852851,true,high,false
RKbbyTjb,3dzkabx20liukfefnqxhosng7x6cv3,3j4q2z4ut2gdgpmx9k8ajjr24lzwq3,RKbbyTjb,2020-0188,2020-05-21,22:04:48,22:22:13,NA,incomplete,200,filling,1,right,Blue_Star_Chess_1.jpg,Blue_Plus_Grid_4.jpg,Green_Circle_Chess_3.jpg,left,561.714999988908,false,high,false
RKbbyTjb,3dzkabx20liukfefnqxhosng7x6cv3,3j4q2z4ut2gdgpmx9k8ajjr24lzwq3,RKbbyTjb,2020-0188,2020-05-21,22:04:48,22:22:13,NA,incomplete,201,filling,1,right,Red_Plus_Stripes_1.jpg,Red_Star_Chess_2.jpg,Purple_Circle_Stripes_3.jpg,right,687.6850000116974,true,high,false
RKbbyTjb,3dzkabx20liukfefnqxhosng7x6cv3,3j4q2z4ut2gdgpmx9k8ajjr24lzwq3,RKbbyTjb,2020-0188,2020-05-21,22:04:48,22:22:13,NA,incomplete,202,filling,0,left,Purple_Circle_Dots_1.jpg,Red_Star_Dots_2.jpg,Purple_Plus_Grid_3.jpg,left,631.2549999856856,true,high,false
RKbbyTjb,3dzkabx20liukfefnqxhosng7x6cv3,3j4q2z4ut2gdgpmx9k8ajjr24lzwq3,RKbbyTjb,2020-0188,2020-05-21,22:04:48,22:22:13,NA,incomplete,203,filling,1,left,Green_Circle_Grid_3.jpg,Purple_Triangle_Grid_4.jpg,Green_Star_Stripes_1.jpg,right,910.4149999911897,false,high,false
RKbbyTjb,3dzkabx20liukfefnqxhosng7x6cv3,3j4q2z4ut2gdgpmx9k8ajjr24lzwq3,RKbbyTjb,2020-0188,2020-05-21,22:04:48,22:22:13,NA,incomplete,204,filling,0,left,Purple_Star_Stripes_2.jpg,Green_Triangle_Stripes_3.jpg,Purple_Plus_Chess_4.jpg,left,823.5400000121444,true,high,false
RKbbyTjb,3dzkabx20liukfefnqxhosng7x6cv3,3j4q2z4ut2gdgpmx9k8ajjr24lzwq3,RKbbyTjb,2020-0188,2020-05-21,22:04:48,22:22:13,NA,incomplete,205,filling,1,right,Green_Star_Grid_2.jpg,Green_Triangle_Chess_3.jpg,Purple_Plus_Grid_4.jpg,right,787.9400000092573,true,high,false
RKbbyTjb,3dzkabx20liukfefnqxhosng7x6cv3,3j4q2z4ut2gdgpmx9k8ajjr24lzwq3,RKbbyTjb,2020-0188,2020-05-21,22:04:48,22:22:13,NA,incomplete,206,filling,0,left,Blue_Triangle_Dots_1.jpg,Green_Circle_Dots_2.jpg,Blue_Star_Grid_3.jpg,left,712.020000006305,true,high,false
RKbbyTjb,3dzkabx20liukfefnqxhosng7x6cv3,3j4q2z4ut2gdgpmx9k8ajjr24lzwq3,RKbbyTjb,2020-0188,2020-05-21,22:04:48,22:22:13,NA,incomplete,207,filling,1,right,Red_Plus_Chess_1.jpg,Red_Triangle_Grid_4.jpg,Purple_Circle_Chess_3.jpg,right,817.7250000007916,true,high,false
RKbbyTjb,3dzkabx20liukfefnqxhosng7x6cv3,3j4q2z4ut2gdgpmx9k8ajjr24lzwq3,RKbbyTjb,2020-0188,2020-05-21,22:04:48,22:22:13,NA,incomplete,208,filling,1,right,Purple_Circle_Grid_2.jpg,Purple_Triangle_Chess_3.jpg,Red_Star_Grid_1.jpg,right,833.8149999908637,true,high,false
RKbbyTjb,3dzkabx20liukfefnqxhosng7x6cv3,3j4q2z4ut2gdgpmx9k8ajjr24lzwq3,RKbbyTjb,2020-0188,2020-05-21,22:04:48,22:22:13,NA,incomplete,209,filling,1,right,Green_Circle_Dots_4.jpg,Green_Star_Stripes_3.jpg,Purple_Triangle_Dots_2.jpg,right,809.7800000105053,true,high,false
RKbbyTjb,3dzkabx20liukfefnqxhosng7x6cv3,3j4q2z4ut2gdgpmx9k8ajjr24lzwq3,RKbbyTjb,2020-0188,2020-05-21,22:04:48,22:22:13,NA,incomplete,210,filling,1,right,Blue_Plus_Dots_3.jpg,Blue_Circle_Grid_1.jpg,Red_Star_Dots_4.jpg,right,703.1850000203121,true,high,false
RKbbyTjb,3dzkabx20liukfefnqxhosng7x6cv3,3j4q2z4ut2gdgpmx9k8ajjr24lzwq3,RKbbyTjb,2020-0188,2020-05-21,22:04:48,22:22:13,NA,incomplete,211,filling,0,left,Blue_Plus_Dots_2.jpg,Green_Triangle_Dots_1.jpg,Blue_Star_Chess_3.jpg,left,666.5300000167917,true,high,false
RKbbyTjb,3dzkabx20liukfefnqxhosng7x6cv3,3j4q2z4ut2gdgpmx9k8ajjr24lzwq3,RKbbyTjb,2020-0188,2020-05-21,22:04:48,22:22:13,NA,incomplete,212,filling,1,right,Purple_Triangle_Stripes_4.jpg,Purple_Plus_Chess_3.jpg,Red_Circle_Stripes_2.jpg,right,712.4800000165123,true,high,false
RKbbyTjb,3dzkabx20liukfefnqxhosng7x6cv3,3j4q2z4ut2gdgpmx9k8ajjr24lzwq3,RKbbyTjb,2020-0188,2020-05-21,22:04:48,22:22:13,NA,incomplete,213,filling,1,left,Red_Triangle_Dots_4.jpg,Purple_Circle_Dots_1.jpg,Red_Plus_Grid_3.jpg,left,817.8499999921769,true,high,false
RKbbyTjb,3dzkabx20liukfefnqxhosng7x6cv3,3j4q2z4ut2gdgpmx9k8ajjr24lzwq3,RKbbyTjb,2020-0188,2020-05-21,22:04:48,22:22:13,NA,incomplete,214,filling,1,left,Green_Circle_Dots_3.jpg,Purple_Star_Dots_2.jpg,Green_Plus_Stripes_4.jpg,right,801.275000005262,false,high,false
RKbbyTjb,3dzkabx20liukfefnqxhosng7x6cv3,3j4q2z4ut2gdgpmx9k8ajjr24lzwq3,RKbbyTjb,2020-0188,2020-05-21,22:04:48,22:22:13,NA,incomplete,215,filling,1,right,Green_Plus_Grid_4.jpg,Green_Triangle_Stripes_3.jpg,Red_Circle_Grid_2.jpg,right,810.8449999999721,true,high,false
RKbbyTjb,3dzkabx20liukfefnqxhosng7x6cv3,3j4q2z4ut2gdgpmx9k8ajjr24lzwq3,RKbbyTjb,2020-0188,2020-05-21,22:04:48,22:22:13,NA,incomplete,216,filling,1,left,Green_Star_Chess_4.jpg,Blue_Circle_Chess_1.jpg,Green_Triangle_Stripes_2.jpg,left,712.9750000021886,true,high,false
RKbbyTjb,3dzkabx20liukfefnqxhosng7x6cv3,3j4q2z4ut2gdgpmx9k8ajjr24lzwq3,RKbbyTjb,2020-0188,2020-05-21,22:04:48,22:22:13,NA,incomplete,217,filling,1,right,Red_Triangle_Chess_3.jpg,Red_Plus_Stripes_4.jpg,Green_Star_Chess_2.jpg,right,826.1899999924935,true,high,false
RKbbyTjb,3dzkabx20liukfefnqxhosng7x6cv3,3j4q2z4ut2gdgpmx9k8ajjr24lzwq3,RKbbyTjb,2020-0188,2020-05-21,22:04:48,22:22:13,NA,incomplete,218,filling,1,right,Purple_Circle_Stripes_2.jpg,Purple_Star_Grid_1.jpg,Blue_Triangle_Stripes_3.jpg,right,750.4550000012387,true,high,false
RKbbyTjb,3dzkabx20liukfefnqxhosng7x6cv3,3j4q2z4ut2gdgpmx9k8ajjr24lzwq3,RKbbyTjb,2020-0188,2020-05-21,22:04:48,22:22:13,NA,incomplete,219,filling,1,right,Green_Star_Stripes_2.jpg,Green_Triangle_Chess_3.jpg,Purple_Circle_Stripes_4.jpg,right,771.8199999944773,true,high,false
RKbbyTjb,3dzkabx20liukfefnqxhosng7x6cv3,3j4q2z4ut2gdgpmx9k8ajjr24lzwq3,RKbbyTjb,2020-0188,2020-05-21,22:04:48,22:22:13,NA,incomplete,220,color,0,left,Purple_Star_Stripes_4.jpg,Purple_Plus_Chess_1.jpg,Blue_Triangle_Stripes_2.jpg,right,723.8799999759067,false,high,false
RKbbyTjb,3dzkabx20liukfefnqxhosng7x6cv3,3j4q2z4ut2gdgpmx9k8ajjr24lzwq3,RKbbyTjb,2020-0188,2020-05-21,22:04:48,22:22:13,NA,incomplete,221,color,1,right,Green_Plus_Stripes_2.jpg,Purple_Triangle_Stripes_3.jpg,Green_Circle_Chess_4.jpg,left,729.0349999966566,false,high,false
RKbbyTjb,3dzkabx20liukfefnqxhosng7x6cv3,3j4q2z4ut2gdgpmx9k8ajjr24lzwq3,RKbbyTjb,2020-0188,2020-05-21,22:04:48,22:22:13,NA,incomplete,222,color,1,right,Green_Circle_Chess_2.jpg,Red_Triangle_Chess_3.jpg,Green_Star_Stripes_1.jpg,right,684.3700000026729,true,high,false
RKbbyTjb,3dzkabx20liukfefnqxhosng7x6cv3,3j4q2z4ut2gdgpmx9k8ajjr24lzwq3,RKbbyTjb,2020-0188,2020-05-21,22:04:48,22:22:13,NA,incomplete,223,color,1,left,Purple_Star_Stripes_2.jpg,Purple_Circle_Grid_4.jpg,Green_Plus_Stripes_3.jpg,left,497.32999998377636,true,high,false
RKbbyTjb,3dzkabx20liukfefnqxhosng7x6cv3,3j4q2z4ut2gdgpmx9k8ajjr24lzwq3,RKbbyTjb,2020-0188,2020-05-21,22:04:48,22:22:13,NA,incomplete,224,color,0,left,Blue_Triangle_Chess_1.jpg,Blue_Circle_Dots_2.jpg,Green_Star_Chess_3.jpg,left,541.0350000020117,true,high,false
RKbbyTjb,3dzkabx20liukfefnqxhosng7x6cv3,3j4q2z4ut2gdgpmx9k8ajjr24lzwq3,RKbbyTjb,2020-0188,2020-05-21,22:04:48,22:22:13,NA,incomplete,225,color,1,left,Green_Circle_Stripes_1.jpg,Green_Star_Grid_4.jpg,Blue_Plus_Stripes_3.jpg,right,752.8699999966193,false,high,false
RKbbyTjb,3dzkabx20liukfefnqxhosng7x6cv3,3j4q2z4ut2gdgpmx9k8ajjr24lzwq3,RKbbyTjb,2020-0188,2020-05-21,22:04:48,22:22:13,NA,incomplete,226,color,1,right,Blue_Circle_Chess_2.jpg,Purple_Star_Chess_1.jpg,Blue_Plus_Dots_3.jpg,right,483.03000000305474,true,high,false
RKbbyTjb,3dzkabx20liukfefnqxhosng7x6cv3,3j4q2z4ut2gdgpmx9k8ajjr24lzwq3,RKbbyTjb,2020-0188,2020-05-21,22:04:48,22:22:13,NA,incomplete,227,color,1,left,Red_Star_Grid_4.jpg,Red_Plus_Chess_3.jpg,Blue_Circle_Grid_2.jpg,left,475.71500000776723,true,high,false
RKbbyTjb,3dzkabx20liukfefnqxhosng7x6cv3,3j4q2z4ut2gdgpmx9k8ajjr24lzwq3,RKbbyTjb,2020-0188,2020-05-21,22:04:48,22:22:13,NA,incomplete,228,color,0,right,Purple_Triangle_Grid_4.jpg,Green_Star_Grid_3.jpg,Purple_Circle_Dots_1.jpg,right,558.7749999831431,true,high,false
RKbbyTjb,3dzkabx20liukfefnqxhosng7x6cv3,3j4q2z4ut2gdgpmx9k8ajjr24lzwq3,RKbbyTjb,2020-0188,2020-05-21,22:04:48,22:22:13,NA,incomplete,229,color,1,left,Blue_Circle_Stripes_3.jpg,Blue_Triangle_Grid_1.jpg,Red_Plus_Stripes_2.jpg,right,863.2650000217836,false,high,false
RKbbyTjb,3dzkabx20liukfefnqxhosng7x6cv3,3j4q2z4ut2gdgpmx9k8ajjr24lzwq3,RKbbyTjb,2020-0188,2020-05-21,22:04:48,22:22:13,NA,incomplete,230,color,1,left,Blue_Plus_Dots_3.jpg,Blue_Triangle_Grid_4.jpg,Red_Star_Dots_1.jpg,left,521.0749999969266,true,high,false
RKbbyTjb,3dzkabx20liukfefnqxhosng7x6cv3,3j4q2z4ut2gdgpmx9k8ajjr24lzwq3,RKbbyTjb,2020-0188,2020-05-21,22:04:48,22:22:13,NA,incomplete,231,color,0,left,Blue_Star_Stripes_4.jpg,Blue_Triangle_Grid_1.jpg,Green_Circle_Stripes_3.jpg,left,544.804999983171,true,high,false
RKbbyTjb,3dzkabx20liukfefnqxhosng7x6cv3,3j4q2z4ut2gdgpmx9k8ajjr24lzwq3,RKbbyTjb,2020-0188,2020-05-21,22:04:48,22:22:13,NA,incomplete,232,color,1,left,Red_Plus_Chess_4.jpg,Red_Triangle_Stripes_2.jpg,Green_Star_Chess_1.jpg,left,507.3850000044331,true,high,false
RKbbyTjb,3dzkabx20liukfefnqxhosng7x6cv3,3j4q2z4ut2gdgpmx9k8ajjr24lzwq3,RKbbyTjb,2020-0188,2020-05-21,22:04:48,22:22:13,NA,incomplete,233,color,0,left,Blue_Circle_Stripes_4.jpg,Blue_Star_Dots_3.jpg,Purple_Plus_Stripes_1.jpg,left,496.26500002341345,true,high,false
RKbbyTjb,3dzkabx20liukfefnqxhosng7x6cv3,3j4q2z4ut2gdgpmx9k8ajjr24lzwq3,RKbbyTjb,2020-0188,2020-05-21,22:04:48,22:22:13,NA,incomplete,234,color,1,left,Purple_Circle_Grid_4.jpg,Purple_Triangle_Dots_3.jpg,Blue_Plus_Grid_2.jpg,left,581.8100000033155,true,high,false
RKbbyTjb,3dzkabx20liukfefnqxhosng7x6cv3,3j4q2z4ut2gdgpmx9k8ajjr24lzwq3,RKbbyTjb,2020-0188,2020-05-21,22:04:48,22:22:13,NA,incomplete,235,color,1,right,Green_Triangle_Dots_3.jpg,Red_Star_Dots_4.jpg,Green_Circle_Chess_1.jpg,right,699.2650000029244,true,high,false
RKbbyTjb,3dzkabx20liukfefnqxhosng7x6cv3,3j4q2z4ut2gdgpmx9k8ajjr24lzwq3,RKbbyTjb,2020-0188,2020-05-21,22:04:48,22:22:13,NA,incomplete,236,color,0,left,Green_Plus_Stripes_1.jpg,Green_Circle_Grid_4.jpg,Red_Triangle_Stripes_3.jpg,left,517.8299999970477,true,high,false
RKbbyTjb,3dzkabx20liukfefnqxhosng7x6cv3,3j4q2z4ut2gdgpmx9k8ajjr24lzwq3,RKbbyTjb,2020-0188,2020-05-21,22:04:48,22:22:13,NA,incomplete,237,color,1,left,Red_Triangle_Stripes_3.jpg,Red_Plus_Dots_2.jpg,Green_Circle_Stripes_1.jpg,left,476.84999997727573,true,high,false
RKbbyTjb,3dzkabx20liukfefnqxhosng7x6cv3,3j4q2z4ut2gdgpmx9k8ajjr24lzwq3,RKbbyTjb,2020-0188,2020-05-21,22:04:48,22:22:13,NA,incomplete,238,color,1,right,Red_Triangle_Grid_2.jpg,Blue_Plus_Grid_3.jpg,Red_Star_Stripes_4.jpg,right,502.8150000143796,true,high,false
RKbbyTjb,3dzkabx20liukfefnqxhosng7x6cv3,3j4q2z4ut2gdgpmx9k8ajjr24lzwq3,RKbbyTjb,2020-0188,2020-05-21,22:04:48,22:22:13,NA,incomplete,239,color,1,right,Green_Star_Grid_3.jpg,Red_Triangle_Grid_4.jpg,Green_Circle_Dots_2.jpg,right,509.85500001115724,true,high,false
RKbbyTjb,3dzkabx20liukfefnqxhosng7x6cv3,3j4q2z4ut2gdgpmx9k8ajjr24lzwq3,RKbbyTjb,2020-0188,2020-05-21,22:04:48,22:22:13,NA,NA,instruction example,number,NA,NA,Blue_Triangle_Dots_2.jpg,Red_Plus_Grid_2.jpg,Purple_Triangle_Chess_1.jpg,NA,NA,NA,NA,undefined
RKbbyTjb,3dzkabx20liukfefnqxhosng7x6cv3,3j4q2z4ut2gdgpmx9k8ajjr24lzwq3,RKbbyTjb,2020-0188,2020-05-21,22:04:48,22:22:13,NA,NA,instruction example,number,NA,NA,Blue_Plus_Stripes_4.jpg,Green_Plus_Dots_1.jpg,Purple_Circle_Grid_4.jpg,NA,NA,NA,NA,undefined
RKbbyTjb,3dzkabx20liukfefnqxhosng7x6cv3,3j4q2z4ut2gdgpmx9k8ajjr24lzwq3,RKbbyTjb,2020-0188,2020-05-21,22:04:48,22:22:13,NA,NA,instruction example,number,NA,NA,Green_Star_Stripes_2.jpg,Purple_Plus_Stripes_1.jpg,Green_Circle_Chess_4.jpg,NA,NA,NA,NA,undefined
RKbbyTjb,3dzkabx20liukfefnqxhosng7x6cv3,3j4q2z4ut2gdgpmx9k8ajjr24lzwq3,RKbbyTjb,2020-0188,2020-05-21,22:04:48,22:22:13,NA,NA,instruction example,number,NA,NA,Blue_Plus_Grid_3.jpg,Blue_Star_Stripes_4.jpg,Purple_Circle_Grid_1.jpg,NA,NA,NA,NA,undefined
RKbbyTjb,3dzkabx20liukfefnqxhosng7x6cv3,3j4q2z4ut2gdgpmx9k8ajjr24lzwq3,RKbbyTjb,2020-0188,2020-05-21,22:04:48,22:22:13,1015893.8750000088,1045590.6100000138,NA,NA,NA,NA,NA,NA,NA,NA,NA,NA,NA,undefined
