workerId,hitId,assignmentId,subject,studyid,exp_date,exp_start,exp_end,time_start,time_end,trial,type,reward_validity,answer,image_top,image_left,image_right,response,response_time,response_acc,volatility,age,race,gender,ethnicity,color,vision,neuro,practice
p8FBFBtB,3o2y2uiudt7n7g4dfo9bupx2ocrfkv,3jmsru9hqm7b4xwnaj8e30jae57evp,p8FBFBtB,2020-0188,2020-05-21,13:46:55,14:05:56,NA,incomplete,0,filling,1,right,Red_Star_Grid_4.jpg,Green_Triangle_Stripes_4.jpg,Blue_Plus_Grid_1.jpg,right,1997.3599999793805,true,NA,NA,NA,NA,NA,NA,NA,NA,true
p8FBFBtB,3o2y2uiudt7n7g4dfo9bupx2ocrfkv,3jmsru9hqm7b4xwnaj8e30jae57evp,p8FBFBtB,2020-0188,2020-05-21,13:46:55,14:05:56,NA,incomplete,1,filling,1,right,Green_Plus_Stripes_2.jpg,Red_Triangle_Dots_2.jpg,Purple_Star_Stripes_4.jpg,right,1261.1800000304356,true,NA,NA,NA,NA,NA,NA,NA,NA,true
p8FBFBtB,3o2y2uiudt7n7g4dfo9bupx2ocrfkv,3jmsru9hqm7b4xwnaj8e30jae57evp,p8FBFBtB,2020-0188,2020-05-21,13:46:55,14:05:56,NA,incomplete,2,filling,1,left,Blue_Star_Chess_4.jpg,Green_Triangle_Chess_3.jpg,Red_Circle_Grid_4.jpg,left,1223.340000025928,true,NA,NA,NA,NA,NA,NA,NA,NA,true
p8FBFBtB,3o2y2uiudt7n7g4dfo9bupx2ocrfkv,3jmsru9hqm7b4xwnaj8e30jae57evp,p8FBFBtB,2020-0188,2020-05-21,13:46:55,14:05:56,NA,incomplete,3,filling,1,left,Purple_Triangle_Chess_1.jpg,Green_Circle_Chess_2.jpg,Red_Plus_Dots_1.jpg,left,768.3400000096299,true,NA,NA,NA,NA,NA,NA,NA,NA,true
p8FBFBtB,3o2y2uiudt7n7g4dfo9bupx2ocrfkv,3jmsru9hqm7b4xwnaj8e30jae57evp,p8FBFBtB,2020-0188,2020-05-21,13:46:55,14:05:56,NA,incomplete,4,filling,1,left,Red_Plus_Stripes_4.jpg,Purple_Star_Stripes_2.jpg,Green_Triangle_Grid_4.jpg,left,1670.3500000294298,true,NA,NA,NA,NA,NA,NA,NA,NA,true
p8FBFBtB,3o2y2uiudt7n7g4dfo9bupx2ocrfkv,3jmsru9hqm7b4xwnaj8e30jae57evp,p8FBFBtB,2020-0188,2020-05-21,13:46:55,14:05:56,NA,incomplete,5,filling,1,left,Green_Circle_Dots_1.jpg,Blue_Star_Dots_4.jpg,Purple_Triangle_Grid_1.jpg,left,1303.7299999850802,true,NA,NA,NA,NA,NA,NA,NA,NA,true
p8FBFBtB,3o2y2uiudt7n7g4dfo9bupx2ocrfkv,3jmsru9hqm7b4xwnaj8e30jae57evp,p8FBFBtB,2020-0188,2020-05-21,13:46:55,14:05:56,NA,incomplete,6,filling,1,left,Green_Plus_Dots_1.jpg,Red_Star_Dots_2.jpg,Purple_Triangle_Grid_1.jpg,left,1043.1399999652058,true,NA,NA,NA,NA,NA,NA,NA,NA,true
p8FBFBtB,3o2y2uiudt7n7g4dfo9bupx2ocrfkv,3jmsru9hqm7b4xwnaj8e30jae57evp,p8FBFBtB,2020-0188,2020-05-21,13:46:55,14:05:56,NA,incomplete,7,filling,1,left,Red_Star_Dots_2.jpg,Purple_Triangle_Dots_1.jpg,Blue_Plus_Grid_2.jpg,left,1011.3600000040606,true,NA,NA,NA,NA,NA,NA,NA,NA,true
p8FBFBtB,3o2y2uiudt7n7g4dfo9bupx2ocrfkv,3jmsru9hqm7b4xwnaj8e30jae57evp,p8FBFBtB,2020-0188,2020-05-21,13:46:55,14:05:56,NA,incomplete,8,filling,1,right,Red_Plus_Stripes_3.jpg,Purple_Star_Chess_3.jpg,Green_Circle_Stripes_4.jpg,right,1330.1750000100583,true,NA,NA,NA,NA,NA,NA,NA,NA,true
p8FBFBtB,3o2y2uiudt7n7g4dfo9bupx2ocrfkv,3jmsru9hqm7b4xwnaj8e30jae57evp,p8FBFBtB,2020-0188,2020-05-21,13:46:55,14:05:56,NA,incomplete,9,filling,1,left,Green_Plus_Stripes_1.jpg,Purple_Circle_Stripes_3.jpg,Red_Triangle_Dots_1.jpg,left,1053.8250000099652,true,NA,NA,NA,NA,NA,NA,NA,NA,true
p8FBFBtB,3o2y2uiudt7n7g4dfo9bupx2ocrfkv,3jmsru9hqm7b4xwnaj8e30jae57evp,p8FBFBtB,2020-0188,2020-05-21,13:46:55,14:05:56,NA,incomplete,10,filling,1,right,Red_Triangle_Dots_4.jpg,Purple_Star_Stripes_4.jpg,Green_Plus_Dots_1.jpg,right,1127.939999976661,true,NA,NA,NA,NA,NA,NA,NA,NA,true
p8FBFBtB,3o2y2uiudt7n7g4dfo9bupx2ocrfkv,3jmsru9hqm7b4xwnaj8e30jae57evp,p8FBFBtB,2020-0188,2020-05-21,13:46:55,14:05:56,NA,incomplete,11,filling,1,right,Red_Plus_Grid_4.jpg,Green_Circle_Stripes_4.jpg,Blue_Triangle_Grid_1.jpg,right,1380.684999981895,true,NA,NA,NA,NA,NA,NA,NA,NA,true
p8FBFBtB,3o2y2uiudt7n7g4dfo9bupx2ocrfkv,3jmsru9hqm7b4xwnaj8e30jae57evp,p8FBFBtB,2020-0188,2020-05-21,13:46:55,14:05:56,NA,incomplete,12,filling,1,left,Red_Circle_Dots_4.jpg,Green_Plus_Dots_1.jpg,Blue_Triangle_Stripes_4.jpg,left,936.6199999931268,true,NA,NA,NA,NA,NA,NA,NA,NA,true
p8FBFBtB,3o2y2uiudt7n7g4dfo9bupx2ocrfkv,3jmsru9hqm7b4xwnaj8e30jae57evp,p8FBFBtB,2020-0188,2020-05-21,13:46:55,14:05:56,NA,incomplete,13,filling,1,right,Blue_Triangle_Chess_4.jpg,Green_Plus_Grid_4.jpg,Purple_Circle_Chess_2.jpg,right,1175.8499999996275,true,NA,NA,NA,NA,NA,NA,NA,NA,true
p8FBFBtB,3o2y2uiudt7n7g4dfo9bupx2ocrfkv,3jmsru9hqm7b4xwnaj8e30jae57evp,p8FBFBtB,2020-0188,2020-05-21,13:46:55,14:05:56,NA,incomplete,14,filling,1,right,Purple_Circle_Dots_4.jpg,Red_Star_Stripes_4.jpg,Green_Plus_Dots_3.jpg,right,1392.7549999789335,true,NA,NA,NA,NA,NA,NA,NA,NA,true
p8FBFBtB,3o2y2uiudt7n7g4dfo9bupx2ocrfkv,3jmsru9hqm7b4xwnaj8e30jae57evp,p8FBFBtB,2020-0188,2020-05-21,13:46:55,14:05:56,NA,incomplete,15,filling,1,right,Blue_Triangle_Grid_1.jpg,Red_Plus_Dots_1.jpg,Purple_Circle_Grid_2.jpg,right,1069.8299999930896,true,NA,NA,NA,NA,NA,NA,NA,NA,true
p8FBFBtB,3o2y2uiudt7n7g4dfo9bupx2ocrfkv,3jmsru9hqm7b4xwnaj8e30jae57evp,p8FBFBtB,2020-0188,2020-05-21,13:46:55,14:05:56,NA,incomplete,16,filling,0,right,Green_Star_Chess_1.jpg,Blue_Triangle_Dots_1.jpg,Purple_Circle_Chess_4.jpg,right,1131.7700000363402,true,NA,NA,NA,NA,NA,NA,NA,NA,true
p8FBFBtB,3o2y2uiudt7n7g4dfo9bupx2ocrfkv,3jmsru9hqm7b4xwnaj8e30jae57evp,p8FBFBtB,2020-0188,2020-05-21,13:46:55,14:05:56,NA,incomplete,17,filling,0,right,Red_Circle_Chess_3.jpg,Purple_Triangle_Stripes_3.jpg,Green_Plus_Chess_1.jpg,right,1392.130000051111,true,NA,NA,NA,NA,NA,NA,NA,NA,true
p8FBFBtB,3o2y2uiudt7n7g4dfo9bupx2ocrfkv,3jmsru9hqm7b4xwnaj8e30jae57evp,p8FBFBtB,2020-0188,2020-05-21,13:46:55,14:05:56,NA,incomplete,18,filling,0,left,Purple_Plus_Grid_4.jpg,Green_Star_Grid_3.jpg,Red_Triangle_Chess_4.jpg,left,1547.835000033956,true,NA,NA,NA,NA,NA,NA,NA,NA,true
p8FBFBtB,3o2y2uiudt7n7g4dfo9bupx2ocrfkv,3jmsru9hqm7b4xwnaj8e30jae57evp,p8FBFBtB,2020-0188,2020-05-21,13:46:55,14:05:56,NA,incomplete,19,filling,1,right,Green_Star_Dots_1.jpg,Purple_Triangle_Chess_1.jpg,Red_Circle_Dots_3.jpg,right,1437.369999999646,true,NA,NA,NA,NA,NA,NA,NA,NA,true
p8FBFBtB,3o2y2uiudt7n7g4dfo9bupx2ocrfkv,3jmsru9hqm7b4xwnaj8e30jae57evp,p8FBFBtB,2020-0188,2020-05-21,13:46:55,14:05:56,NA,incomplete,20,number,0,right,Red_Star_Chess_4.jpg,Blue_Triangle_Chess_2.jpg,Green_Circle_Stripes_4.jpg,left,1271.5200000093319,false,NA,NA,NA,NA,NA,NA,NA,NA,true
p8FBFBtB,3o2y2uiudt7n7g4dfo9bupx2ocrfkv,3jmsru9hqm7b4xwnaj8e30jae57evp,p8FBFBtB,2020-0188,2020-05-21,13:46:55,14:05:56,NA,incomplete,21,number,1,right,Purple_Triangle_Stripes_2.jpg,Red_Circle_Stripes_3.jpg,Blue_Plus_Dots_2.jpg,left,1018.7899999436922,false,NA,NA,NA,NA,NA,NA,NA,NA,true
p8FBFBtB,3o2y2uiudt7n7g4dfo9bupx2ocrfkv,3jmsru9hqm7b4xwnaj8e30jae57evp,p8FBFBtB,2020-0188,2020-05-21,13:46:55,14:05:56,NA,incomplete,22,number,1,left,Blue_Circle_Stripes_3.jpg,Red_Plus_Dots_3.jpg,Purple_Star_Stripes_2.jpg,left,1493.9500000327826,true,NA,NA,NA,NA,NA,NA,NA,NA,true
p8FBFBtB,3o2y2uiudt7n7g4dfo9bupx2ocrfkv,3jmsru9hqm7b4xwnaj8e30jae57evp,p8FBFBtB,2020-0188,2020-05-21,13:46:55,14:05:56,NA,incomplete,23,number,1,right,Red_Star_Chess_2.jpg,Green_Circle_Chess_4.jpg,Blue_Triangle_Stripes_2.jpg,right,1386.884999985341,true,NA,NA,NA,NA,NA,NA,NA,NA,true
p8FBFBtB,3o2y2uiudt7n7g4dfo9bupx2ocrfkv,3jmsru9hqm7b4xwnaj8e30jae57evp,p8FBFBtB,2020-0188,2020-05-21,13:46:55,14:05:56,NA,incomplete,24,number,1,left,Purple_Triangle_Stripes_4.jpg,Green_Plus_Dots_4.jpg,Blue_Circle_Stripes_2.jpg,none,0,false,NA,NA,NA,NA,NA,NA,NA,NA,true
p8FBFBtB,3o2y2uiudt7n7g4dfo9bupx2ocrfkv,3jmsru9hqm7b4xwnaj8e30jae57evp,p8FBFBtB,2020-0188,2020-05-21,13:46:55,14:05:56,NA,incomplete,25,number,1,right,Blue_Plus_Stripes_2.jpg,Purple_Star_Stripes_4.jpg,Red_Triangle_Chess_2.jpg,right,1505.315000016708,true,NA,NA,NA,NA,NA,NA,NA,NA,true
p8FBFBtB,3o2y2uiudt7n7g4dfo9bupx2ocrfkv,3jmsru9hqm7b4xwnaj8e30jae57evp,p8FBFBtB,2020-0188,2020-05-21,13:46:55,14:05:56,NA,incomplete,26,number,1,left,Green_Circle_Stripes_1.jpg,Blue_Plus_Chess_1.jpg,Purple_Triangle_Stripes_2.jpg,left,765.880000020843,true,NA,NA,NA,NA,NA,NA,NA,NA,true
p8FBFBtB,3o2y2uiudt7n7g4dfo9bupx2ocrfkv,3jmsru9hqm7b4xwnaj8e30jae57evp,p8FBFBtB,2020-0188,2020-05-21,13:46:55,14:05:56,NA,incomplete,27,number,0,right,Green_Circle_Grid_3.jpg,Red_Triangle_Grid_4.jpg,Blue_Plus_Dots_3.jpg,right,1018.4000000008382,true,NA,NA,NA,NA,NA,NA,NA,NA,true
p8FBFBtB,3o2y2uiudt7n7g4dfo9bupx2ocrfkv,3jmsru9hqm7b4xwnaj8e30jae57evp,p8FBFBtB,2020-0188,2020-05-21,13:46:55,14:05:56,NA,incomplete,28,number,0,left,Green_Plus_Dots_4.jpg,Blue_Star_Stripes_4.jpg,Purple_Triangle_Dots_2.jpg,left,899.4150000507943,true,NA,NA,NA,NA,NA,NA,NA,NA,true
p8FBFBtB,3o2y2uiudt7n7g4dfo9bupx2ocrfkv,3jmsru9hqm7b4xwnaj8e30jae57evp,p8FBFBtB,2020-0188,2020-05-21,13:46:55,14:05:56,NA,incomplete,29,number,1,left,Red_Triangle_Chess_3.jpg,Blue_Plus_Stripes_3.jpg,Green_Circle_Chess_4.jpg,left,1052.449999959208,true,NA,NA,NA,NA,NA,NA,NA,NA,true
p8FBFBtB,3o2y2uiudt7n7g4dfo9bupx2ocrfkv,3jmsru9hqm7b4xwnaj8e30jae57evp,p8FBFBtB,2020-0188,2020-05-21,13:46:55,14:05:56,NA,incomplete,30,number,1,right,Blue_Circle_Chess_4.jpg,Purple_Star_Chess_1.jpg,Green_Triangle_Grid_4.jpg,right,940.1499999803491,true,NA,NA,NA,NA,NA,NA,NA,NA,true
p8FBFBtB,3o2y2uiudt7n7g4dfo9bupx2ocrfkv,3jmsru9hqm7b4xwnaj8e30jae57evp,p8FBFBtB,2020-0188,2020-05-21,13:46:55,14:05:56,NA,incomplete,31,number,1,left,Purple_Circle_Grid_4.jpg,Red_Triangle_Chess_4.jpg,Blue_Star_Grid_1.jpg,left,695.9400000050664,true,NA,NA,NA,NA,NA,NA,NA,NA,true
p8FBFBtB,3o2y2uiudt7n7g4dfo9bupx2ocrfkv,3jmsru9hqm7b4xwnaj8e30jae57evp,p8FBFBtB,2020-0188,2020-05-21,13:46:55,14:05:56,NA,incomplete,32,number,1,left,Purple_Star_Chess_4.jpg,Blue_Circle_Dots_4.jpg,Green_Triangle_Chess_1.jpg,left,746.2799999630079,true,NA,NA,NA,NA,NA,NA,NA,NA,true
p8FBFBtB,3o2y2uiudt7n7g4dfo9bupx2ocrfkv,3jmsru9hqm7b4xwnaj8e30jae57evp,p8FBFBtB,2020-0188,2020-05-21,13:46:55,14:05:56,NA,incomplete,33,number,0,left,Purple_Plus_Stripes_3.jpg,Red_Circle_Chess_3.jpg,Blue_Star_Stripes_4.jpg,left,966.7400000034831,true,NA,NA,NA,NA,NA,NA,NA,NA,true
p8FBFBtB,3o2y2uiudt7n7g4dfo9bupx2ocrfkv,3jmsru9hqm7b4xwnaj8e30jae57evp,p8FBFBtB,2020-0188,2020-05-21,13:46:55,14:05:56,NA,incomplete,34,number,1,left,Purple_Circle_Grid_3.jpg,Green_Star_Dots_3.jpg,Blue_Plus_Grid_2.jpg,left,834.7199999843724,true,NA,NA,NA,NA,NA,NA,NA,NA,true
p8FBFBtB,3o2y2uiudt7n7g4dfo9bupx2ocrfkv,3jmsru9hqm7b4xwnaj8e30jae57evp,p8FBFBtB,2020-0188,2020-05-21,13:46:55,14:05:56,NA,incomplete,35,number,0,right,Green_Circle_Dots_3.jpg,Red_Triangle_Dots_1.jpg,Purple_Star_Chess_3.jpg,right,818.6550000100397,true,NA,NA,NA,NA,NA,NA,NA,NA,true
p8FBFBtB,3o2y2uiudt7n7g4dfo9bupx2ocrfkv,3jmsru9hqm7b4xwnaj8e30jae57evp,p8FBFBtB,2020-0188,2020-05-21,13:46:55,14:05:56,NA,incomplete,36,number,1,left,Green_Plus_Grid_3.jpg,Purple_Circle_Stripes_3.jpg,Red_Star_Grid_2.jpg,left,763.7749999994412,true,NA,NA,NA,NA,NA,NA,NA,NA,true
p8FBFBtB,3o2y2uiudt7n7g4dfo9bupx2ocrfkv,3jmsru9hqm7b4xwnaj8e30jae57evp,p8FBFBtB,2020-0188,2020-05-21,13:46:55,14:05:56,NA,incomplete,37,number,1,right,Blue_Circle_Grid_1.jpg,Red_Plus_Grid_2.jpg,Purple_Triangle_Chess_1.jpg,right,793.5599999618717,true,NA,NA,NA,NA,NA,NA,NA,NA,true
p8FBFBtB,3o2y2uiudt7n7g4dfo9bupx2ocrfkv,3jmsru9hqm7b4xwnaj8e30jae57evp,p8FBFBtB,2020-0188,2020-05-21,13:46:55,14:05:56,NA,incomplete,38,number,1,right,Purple_Star_Chess_2.jpg,Green_Triangle_Chess_1.jpg,Blue_Plus_Stripes_2.jpg,right,896.3750000111759,true,NA,NA,NA,NA,NA,NA,NA,NA,true
p8FBFBtB,3o2y2uiudt7n7g4dfo9bupx2ocrfkv,3jmsru9hqm7b4xwnaj8e30jae57evp,p8FBFBtB,2020-0188,2020-05-21,13:46:55,14:05:56,NA,incomplete,39,number,1,right,Red_Circle_Grid_1.jpg,Green_Triangle_Grid_2.jpg,Blue_Star_Dots_1.jpg,right,823.8049999927171,true,NA,NA,NA,NA,NA,NA,NA,NA,true
p8FBFBtB,3o2y2uiudt7n7g4dfo9bupx2ocrfkv,3jmsru9hqm7b4xwnaj8e30jae57evp,p8FBFBtB,2020-0188,2020-05-21,13:46:55,14:05:56,NA,incomplete,0,filling,0,left,Green_Star_Dots_2.jpg,Red_Plus_Dots_1.jpg,Purple_Circle_Stripes_2.jpg,right,1000.8699999889359,false,low,NA,NA,NA,NA,NA,NA,NA,false
p8FBFBtB,3o2y2uiudt7n7g4dfo9bupx2ocrfkv,3jmsru9hqm7b4xwnaj8e30jae57evp,p8FBFBtB,2020-0188,2020-05-21,13:46:55,14:05:56,NA,incomplete,1,filling,1,left,Green_Star_Stripes_1.jpg,Red_Circle_Stripes_4.jpg,Purple_Triangle_Grid_1.jpg,right,773.8250000402331,false,low,NA,NA,NA,NA,NA,NA,NA,false
p8FBFBtB,3o2y2uiudt7n7g4dfo9bupx2ocrfkv,3jmsru9hqm7b4xwnaj8e30jae57evp,p8FBFBtB,2020-0188,2020-05-21,13:46:55,14:05:56,NA,incomplete,2,filling,1,left,Red_Triangle_Grid_2.jpg,Blue_Plus_Grid_3.jpg,Purple_Star_Dots_2.jpg,right,1017.9750000243075,false,low,NA,NA,NA,NA,NA,NA,NA,false
p8FBFBtB,3o2y2uiudt7n7g4dfo9bupx2ocrfkv,3jmsru9hqm7b4xwnaj8e30jae57evp,p8FBFBtB,2020-0188,2020-05-21,13:46:55,14:05:56,NA,incomplete,3,filling,1,right,Red_Triangle_Stripes_3.jpg,Purple_Star_Dots_3.jpg,Green_Circle_Stripes_2.jpg,right,1052.4300000397488,true,low,NA,NA,NA,NA,NA,NA,NA,false
p8FBFBtB,3o2y2uiudt7n7g4dfo9bupx2ocrfkv,3jmsru9hqm7b4xwnaj8e30jae57evp,p8FBFBtB,2020-0188,2020-05-21,13:46:55,14:05:56,NA,incomplete,4,filling,0,right,Red_Plus_Chess_3.jpg,Green_Star_Dots_3.jpg,Blue_Circle_Chess_4.jpg,right,842.3299999558367,true,low,NA,NA,NA,NA,NA,NA,NA,false
p8FBFBtB,3o2y2uiudt7n7g4dfo9bupx2ocrfkv,3jmsru9hqm7b4xwnaj8e30jae57evp,p8FBFBtB,2020-0188,2020-05-21,13:46:55,14:05:56,NA,incomplete,5,filling,1,left,Red_Triangle_Grid_3.jpg,Green_Star_Grid_4.jpg,Purple_Circle_Chess_3.jpg,left,1457.4349999893457,true,low,NA,NA,NA,NA,NA,NA,NA,false
p8FBFBtB,3o2y2uiudt7n7g4dfo9bupx2ocrfkv,3jmsru9hqm7b4xwnaj8e30jae57evp,p8FBFBtB,2020-0188,2020-05-21,13:46:55,14:05:56,NA,incomplete,6,filling,1,right,Green_Star_Dots_2.jpg,Purple_Triangle_Grid_2.jpg,Blue_Circle_Dots_3.jpg,right,1063.8749999925494,true,low,NA,NA,NA,NA,NA,NA,NA,false
p8FBFBtB,3o2y2uiudt7n7g4dfo9bupx2ocrfkv,3jmsru9hqm7b4xwnaj8e30jae57evp,p8FBFBtB,2020-0188,2020-05-21,13:46:55,14:05:56,NA,incomplete,7,filling,1,right,Blue_Triangle_Chess_3.jpg,Green_Star_Stripes_3.jpg,Purple_Plus_Chess_1.jpg,right,1203.3550000051036,true,low,NA,NA,NA,NA,NA,NA,NA,false
p8FBFBtB,3o2y2uiudt7n7g4dfo9bupx2ocrfkv,3jmsru9hqm7b4xwnaj8e30jae57evp,p8FBFBtB,2020-0188,2020-05-21,13:46:55,14:05:56,NA,incomplete,8,filling,0,left,Green_Star_Chess_3.jpg,Red_Triangle_Chess_4.jpg,Blue_Circle_Grid_3.jpg,left,902.3099999758415,true,low,NA,NA,NA,NA,NA,NA,NA,false
p8FBFBtB,3o2y2uiudt7n7g4dfo9bupx2ocrfkv,3jmsru9hqm7b4xwnaj8e30jae57evp,p8FBFBtB,2020-0188,2020-05-21,13:46:55,14:05:56,NA,incomplete,9,filling,1,right,Red_Circle_Chess_1.jpg,Blue_Star_Grid_1.jpg,Purple_Plus_Chess_4.jpg,right,814.9299999931827,true,low,NA,NA,NA,NA,NA,NA,NA,false
p8FBFBtB,3o2y2uiudt7n7g4dfo9bupx2ocrfkv,3jmsru9hqm7b4xwnaj8e30jae57evp,p8FBFBtB,2020-0188,2020-05-21,13:46:55,14:05:56,NA,incomplete,10,filling,1,right,Red_Plus_Chess_3.jpg,Blue_Circle_Dots_3.jpg,Purple_Star_Chess_2.jpg,right,765.2300000190735,true,low,NA,NA,NA,NA,NA,NA,NA,false
p8FBFBtB,3o2y2uiudt7n7g4dfo9bupx2ocrfkv,3jmsru9hqm7b4xwnaj8e30jae57evp,p8FBFBtB,2020-0188,2020-05-21,13:46:55,14:05:56,NA,incomplete,11,filling,1,right,Blue_Star_Chess_4.jpg,Red_Plus_Stripes_4.jpg,Purple_Triangle_Chess_3.jpg,right,959.7099999664351,true,low,NA,NA,NA,NA,NA,NA,NA,false
p8FBFBtB,3o2y2uiudt7n7g4dfo9bupx2ocrfkv,3jmsru9hqm7b4xwnaj8e30jae57evp,p8FBFBtB,2020-0188,2020-05-21,13:46:55,14:05:56,NA,incomplete,12,filling,1,left,Blue_Plus_Chess_1.jpg,Red_Triangle_Chess_4.jpg,Green_Star_Grid_1.jpg,left,671.7150000040419,true,low,NA,NA,NA,NA,NA,NA,NA,false
p8FBFBtB,3o2y2uiudt7n7g4dfo9bupx2ocrfkv,3jmsru9hqm7b4xwnaj8e30jae57evp,p8FBFBtB,2020-0188,2020-05-21,13:46:55,14:05:56,NA,incomplete,13,filling,1,left,Blue_Triangle_Stripes_1.jpg,Green_Plus_Stripes_3.jpg,Red_Star_Grid_1.jpg,left,805.7399999815971,true,low,NA,NA,NA,NA,NA,NA,NA,false
p8FBFBtB,3o2y2uiudt7n7g4dfo9bupx2ocrfkv,3jmsru9hqm7b4xwnaj8e30jae57evp,p8FBFBtB,2020-0188,2020-05-21,13:46:55,14:05:56,NA,incomplete,14,filling,1,right,Blue_Star_Grid_1.jpg,Purple_Triangle_Chess_1.jpg,Green_Plus_Grid_3.jpg,right,922.2300000255927,true,low,NA,NA,NA,NA,NA,NA,NA,false
p8FBFBtB,3o2y2uiudt7n7g4dfo9bupx2ocrfkv,3jmsru9hqm7b4xwnaj8e30jae57evp,p8FBFBtB,2020-0188,2020-05-21,13:46:55,14:05:56,NA,incomplete,15,filling,1,right,Blue_Circle_Dots_2.jpg,Red_Triangle_Chess_2.jpg,Green_Plus_Dots_4.jpg,right,930.8799999998882,true,low,NA,NA,NA,NA,NA,NA,NA,false
p8FBFBtB,3o2y2uiudt7n7g4dfo9bupx2ocrfkv,3jmsru9hqm7b4xwnaj8e30jae57evp,p8FBFBtB,2020-0188,2020-05-21,13:46:55,14:05:56,NA,incomplete,16,filling,1,right,Blue_Triangle_Stripes_1.jpg,Green_Plus_Grid_1.jpg,Red_Star_Stripes_3.jpg,right,1143.8750000088476,true,low,NA,NA,NA,NA,NA,NA,NA,false
p8FBFBtB,3o2y2uiudt7n7g4dfo9bupx2ocrfkv,3jmsru9hqm7b4xwnaj8e30jae57evp,p8FBFBtB,2020-0188,2020-05-21,13:46:55,14:05:56,NA,incomplete,17,filling,1,left,Blue_Star_Chess_4.jpg,Purple_Plus_Chess_3.jpg,Red_Triangle_Dots_4.jpg,left,769.765000033658,true,low,NA,NA,NA,NA,NA,NA,NA,false
p8FBFBtB,3o2y2uiudt7n7g4dfo9bupx2ocrfkv,3jmsru9hqm7b4xwnaj8e30jae57evp,p8FBFBtB,2020-0188,2020-05-21,13:46:55,14:05:56,NA,incomplete,18,filling,1,left,Blue_Star_Dots_3.jpg,Purple_Plus_Dots_4.jpg,Green_Triangle_Stripes_3.jpg,left,798.9749999833293,true,low,NA,NA,NA,NA,NA,NA,NA,false
p8FBFBtB,3o2y2uiudt7n7g4dfo9bupx2ocrfkv,3jmsru9hqm7b4xwnaj8e30jae57evp,p8FBFBtB,2020-0188,2020-05-21,13:46:55,14:05:56,NA,incomplete,19,filling,1,right,Green_Circle_Stripes_2.jpg,Blue_Triangle_Grid_2.jpg,Purple_Star_Stripes_3.jpg,right,1028.1950000207871,true,low,NA,NA,NA,NA,NA,NA,NA,false
p8FBFBtB,3o2y2uiudt7n7g4dfo9bupx2ocrfkv,3jmsru9hqm7b4xwnaj8e30jae57evp,p8FBFBtB,2020-0188,2020-05-21,13:46:55,14:05:56,NA,incomplete,20,filling,1,right,Red_Circle_Stripes_4.jpg,Purple_Triangle_Grid_4.jpg,Blue_Plus_Stripes_3.jpg,right,1121.5850000153296,true,low,NA,NA,NA,NA,NA,NA,NA,false
p8FBFBtB,3o2y2uiudt7n7g4dfo9bupx2ocrfkv,3jmsru9hqm7b4xwnaj8e30jae57evp,p8FBFBtB,2020-0188,2020-05-21,13:46:55,14:05:56,NA,incomplete,21,filling,1,right,Red_Circle_Grid_3.jpg,Purple_Plus_Stripes_3.jpg,Blue_Star_Grid_4.jpg,right,1160.7199999853037,true,low,NA,NA,NA,NA,NA,NA,NA,false
p8FBFBtB,3o2y2uiudt7n7g4dfo9bupx2ocrfkv,3jmsru9hqm7b4xwnaj8e30jae57evp,p8FBFBtB,2020-0188,2020-05-21,13:46:55,14:05:56,NA,incomplete,22,filling,1,right,Red_Plus_Stripes_1.jpg,Green_Triangle_Dots_1.jpg,Purple_Star_Stripes_2.jpg,right,720.4550000024028,true,low,NA,NA,NA,NA,NA,NA,NA,false
p8FBFBtB,3o2y2uiudt7n7g4dfo9bupx2ocrfkv,3jmsru9hqm7b4xwnaj8e30jae57evp,p8FBFBtB,2020-0188,2020-05-21,13:46:55,14:05:56,NA,incomplete,23,filling,0,right,Blue_Plus_Grid_2.jpg,Purple_Circle_Dots_2.jpg,Green_Triangle_Grid_3.jpg,right,919.5849999669008,true,low,NA,NA,NA,NA,NA,NA,NA,false
p8FBFBtB,3o2y2uiudt7n7g4dfo9bupx2ocrfkv,3jmsru9hqm7b4xwnaj8e30jae57evp,p8FBFBtB,2020-0188,2020-05-21,13:46:55,14:05:56,NA,incomplete,24,filling,0,right,Purple_Circle_Dots_1.jpg,Red_Plus_Stripes_1.jpg,Green_Triangle_Dots_2.jpg,right,885.3900000103749,true,low,NA,NA,NA,NA,NA,NA,NA,false
p8FBFBtB,3o2y2uiudt7n7g4dfo9bupx2ocrfkv,3jmsru9hqm7b4xwnaj8e30jae57evp,p8FBFBtB,2020-0188,2020-05-21,13:46:55,14:05:56,NA,incomplete,25,filling,1,left,Purple_Triangle_Chess_2.jpg,Red_Plus_Chess_1.jpg,Blue_Star_Dots_2.jpg,right,1868.8500000280328,false,low,NA,NA,NA,NA,NA,NA,NA,false
p8FBFBtB,3o2y2uiudt7n7g4dfo9bupx2ocrfkv,3jmsru9hqm7b4xwnaj8e30jae57evp,p8FBFBtB,2020-0188,2020-05-21,13:46:55,14:05:56,NA,incomplete,26,filling,1,right,Blue_Star_Grid_2.jpg,Green_Circle_Stripes_2.jpg,Red_Plus_Grid_4.jpg,left,1711.364999995567,false,low,NA,NA,NA,NA,NA,NA,NA,false
p8FBFBtB,3o2y2uiudt7n7g4dfo9bupx2ocrfkv,3jmsru9hqm7b4xwnaj8e30jae57evp,p8FBFBtB,2020-0188,2020-05-21,13:46:55,14:05:56,NA,incomplete,27,filling,1,left,Red_Circle_Stripes_1.jpg,Purple_Star_Stripes_4.jpg,Green_Plus_Dots_1.jpg,left,1159.574999997858,true,low,NA,NA,NA,NA,NA,NA,NA,false
p8FBFBtB,3o2y2uiudt7n7g4dfo9bupx2ocrfkv,3jmsru9hqm7b4xwnaj8e30jae57evp,p8FBFBtB,2020-0188,2020-05-21,13:46:55,14:05:56,NA,incomplete,28,filling,1,left,Green_Circle_Stripes_1.jpg,Red_Triangle_Stripes_3.jpg,Purple_Plus_Dots_1.jpg,left,826.4399999752641,true,low,NA,NA,NA,NA,NA,NA,NA,false
p8FBFBtB,3o2y2uiudt7n7g4dfo9bupx2ocrfkv,3jmsru9hqm7b4xwnaj8e30jae57evp,p8FBFBtB,2020-0188,2020-05-21,13:46:55,14:05:56,NA,incomplete,29,filling,1,left,Red_Triangle_Dots_4.jpg,Green_Circle_Dots_2.jpg,Blue_Plus_Stripes_4.jpg,left,790.0499999523163,true,low,NA,NA,NA,NA,NA,NA,NA,false
p8FBFBtB,3o2y2uiudt7n7g4dfo9bupx2ocrfkv,3jmsru9hqm7b4xwnaj8e30jae57evp,p8FBFBtB,2020-0188,2020-05-21,13:46:55,14:05:56,NA,incomplete,30,number,1,left,Blue_Plus_Grid_1.jpg,Red_Triangle_Chess_1.jpg,Green_Circle_Grid_3.jpg,right,947.8450000169687,false,low,NA,NA,NA,NA,NA,NA,NA,false
p8FBFBtB,3o2y2uiudt7n7g4dfo9bupx2ocrfkv,3jmsru9hqm7b4xwnaj8e30jae57evp,p8FBFBtB,2020-0188,2020-05-21,13:46:55,14:05:56,NA,incomplete,31,number,0,right,Green_Plus_Dots_3.jpg,Red_Circle_Dots_4.jpg,Purple_Triangle_Chess_3.jpg,right,1877.3599999840371,true,low,NA,NA,NA,NA,NA,NA,NA,false
p8FBFBtB,3o2y2uiudt7n7g4dfo9bupx2ocrfkv,3jmsru9hqm7b4xwnaj8e30jae57evp,p8FBFBtB,2020-0188,2020-05-21,13:46:55,14:05:56,NA,incomplete,32,number,1,left,Blue_Circle_Chess_1.jpg,Green_Triangle_Dots_1.jpg,Purple_Plus_Chess_2.jpg,left,1314.6199999609962,true,low,NA,NA,NA,NA,NA,NA,NA,false
p8FBFBtB,3o2y2uiudt7n7g4dfo9bupx2ocrfkv,3jmsru9hqm7b4xwnaj8e30jae57evp,p8FBFBtB,2020-0188,2020-05-21,13:46:55,14:05:56,NA,incomplete,33,number,1,right,Purple_Circle_Stripes_3.jpg,Blue_Triangle_Stripes_4.jpg,Green_Plus_Dots_3.jpg,right,1148.3050000388175,true,low,NA,NA,NA,NA,NA,NA,NA,false
p8FBFBtB,3o2y2uiudt7n7g4dfo9bupx2ocrfkv,3jmsru9hqm7b4xwnaj8e30jae57evp,p8FBFBtB,2020-0188,2020-05-21,13:46:55,14:05:56,NA,incomplete,34,number,1,left,Blue_Triangle_Dots_4.jpg,Red_Circle_Chess_4.jpg,Purple_Plus_Dots_2.jpg,left,720.9700000239536,true,low,NA,NA,NA,NA,NA,NA,NA,false
p8FBFBtB,3o2y2uiudt7n7g4dfo9bupx2ocrfkv,3jmsru9hqm7b4xwnaj8e30jae57evp,p8FBFBtB,2020-0188,2020-05-21,13:46:55,14:05:56,NA,incomplete,35,number,1,left,Purple_Triangle_Grid_3.jpg,Blue_Plus_Stripes_3.jpg,Green_Circle_Grid_1.jpg,left,690.4099999810569,true,low,NA,NA,NA,NA,NA,NA,NA,false
p8FBFBtB,3o2y2uiudt7n7g4dfo9bupx2ocrfkv,3jmsru9hqm7b4xwnaj8e30jae57evp,p8FBFBtB,2020-0188,2020-05-21,13:46:55,14:05:56,NA,incomplete,36,number,1,left,Green_Plus_Chess_3.jpg,Purple_Star_Grid_3.jpg,Blue_Triangle_Chess_4.jpg,left,936.2950000213459,true,low,NA,NA,NA,NA,NA,NA,NA,false
p8FBFBtB,3o2y2uiudt7n7g4dfo9bupx2ocrfkv,3jmsru9hqm7b4xwnaj8e30jae57evp,p8FBFBtB,2020-0188,2020-05-21,13:46:55,14:05:56,NA,incomplete,37,number,1,left,Green_Triangle_Grid_4.jpg,Blue_Star_Stripes_4.jpg,Red_Circle_Grid_2.jpg,left,1276.404999953229,true,low,NA,NA,NA,NA,NA,NA,NA,false
p8FBFBtB,3o2y2uiudt7n7g4dfo9bupx2ocrfkv,3jmsru9hqm7b4xwnaj8e30jae57evp,p8FBFBtB,2020-0188,2020-05-21,13:46:55,14:05:56,NA,incomplete,38,number,1,right,Red_Triangle_Stripes_4.jpg,Purple_Star_Stripes_1.jpg,Blue_Plus_Grid_4.jpg,right,619.9099999503233,true,low,NA,NA,NA,NA,NA,NA,NA,false
p8FBFBtB,3o2y2uiudt7n7g4dfo9bupx2ocrfkv,3jmsru9hqm7b4xwnaj8e30jae57evp,p8FBFBtB,2020-0188,2020-05-21,13:46:55,14:05:56,NA,incomplete,39,number,1,left,Blue_Triangle_Stripes_1.jpg,Red_Plus_Chess_1.jpg,Purple_Circle_Stripes_4.jpg,left,1269.0500000026077,true,low,NA,NA,NA,NA,NA,NA,NA,false
p8FBFBtB,3o2y2uiudt7n7g4dfo9bupx2ocrfkv,3jmsru9hqm7b4xwnaj8e30jae57evp,p8FBFBtB,2020-0188,2020-05-21,13:46:55,14:05:56,NA,incomplete,40,number,0,right,Purple_Plus_Chess_1.jpg,Green_Triangle_Chess_4.jpg,Blue_Star_Grid_1.jpg,right,728.4949999884702,true,low,NA,NA,NA,NA,NA,NA,NA,false
p8FBFBtB,3o2y2uiudt7n7g4dfo9bupx2ocrfkv,3jmsru9hqm7b4xwnaj8e30jae57evp,p8FBFBtB,2020-0188,2020-05-21,13:46:55,14:05:56,NA,incomplete,41,number,0,right,Blue_Triangle_Stripes_1.jpg,Purple_Plus_Stripes_3.jpg,Green_Circle_Chess_1.jpg,right,573.3250000048429,true,low,NA,NA,NA,NA,NA,NA,NA,false
p8FBFBtB,3o2y2uiudt7n7g4dfo9bupx2ocrfkv,3jmsru9hqm7b4xwnaj8e30jae57evp,p8FBFBtB,2020-0188,2020-05-21,13:46:55,14:05:56,NA,incomplete,42,number,1,left,Blue_Plus_Dots_2.jpg,Purple_Star_Grid_2.jpg,Red_Circle_Dots_3.jpg,right,1352.4500000057742,false,low,NA,NA,NA,NA,NA,NA,NA,false
p8FBFBtB,3o2y2uiudt7n7g4dfo9bupx2ocrfkv,3jmsru9hqm7b4xwnaj8e30jae57evp,p8FBFBtB,2020-0188,2020-05-21,13:46:55,14:05:56,NA,incomplete,43,number,1,right,Red_Plus_Grid_2.jpg,Purple_Circle_Grid_4.jpg,Blue_Triangle_Chess_2.jpg,left,1137.3049999820068,false,low,NA,NA,NA,NA,NA,NA,NA,false
p8FBFBtB,3o2y2uiudt7n7g4dfo9bupx2ocrfkv,3jmsru9hqm7b4xwnaj8e30jae57evp,p8FBFBtB,2020-0188,2020-05-21,13:46:55,14:05:56,NA,incomplete,44,number,1,right,Red_Triangle_Stripes_1.jpg,Purple_Star_Stripes_3.jpg,Green_Circle_Grid_1.jpg,right,1091.9349999749102,true,low,NA,NA,NA,NA,NA,NA,NA,false
p8FBFBtB,3o2y2uiudt7n7g4dfo9bupx2ocrfkv,3jmsru9hqm7b4xwnaj8e30jae57evp,p8FBFBtB,2020-0188,2020-05-21,13:46:55,14:05:56,NA,incomplete,45,number,0,left,Red_Star_Stripes_4.jpg,Green_Triangle_Chess_4.jpg,Purple_Plus_Stripes_2.jpg,left,1285.8450000057928,true,low,NA,NA,NA,NA,NA,NA,NA,false
p8FBFBtB,3o2y2uiudt7n7g4dfo9bupx2ocrfkv,3jmsru9hqm7b4xwnaj8e30jae57evp,p8FBFBtB,2020-0188,2020-05-21,13:46:55,14:05:56,NA,incomplete,46,number,1,right,Green_Triangle_Stripes_2.jpg,Blue_Circle_Stripes_4.jpg,Purple_Star_Dots_2.jpg,left,740.6099999789149,false,low,NA,NA,NA,NA,NA,NA,NA,false
p8FBFBtB,3o2y2uiudt7n7g4dfo9bupx2ocrfkv,3jmsru9hqm7b4xwnaj8e30jae57evp,p8FBFBtB,2020-0188,2020-05-21,13:46:55,14:05:56,NA,incomplete,47,number,1,right,Purple_Circle_Stripes_1.jpg,Blue_Star_Stripes_3.jpg,Red_Triangle_Chess_1.jpg,right,1654.6499999822117,true,low,NA,NA,NA,NA,NA,NA,NA,false
p8FBFBtB,3o2y2uiudt7n7g4dfo9bupx2ocrfkv,3jmsru9hqm7b4xwnaj8e30jae57evp,p8FBFBtB,2020-0188,2020-05-21,13:46:55,14:05:56,NA,incomplete,48,number,1,left,Purple_Triangle_Dots_3.jpg,Green_Circle_Stripes_3.jpg,Red_Plus_Dots_2.jpg,left,1084.2500000144355,true,low,NA,NA,NA,NA,NA,NA,NA,false
p8FBFBtB,3o2y2uiudt7n7g4dfo9bupx2ocrfkv,3jmsru9hqm7b4xwnaj8e30jae57evp,p8FBFBtB,2020-0188,2020-05-21,13:46:55,14:05:56,NA,incomplete,49,number,1,right,Red_Circle_Grid_4.jpg,Blue_Triangle_Grid_2.jpg,Purple_Plus_Dots_4.jpg,right,752.2849999950267,true,low,NA,NA,NA,NA,NA,NA,NA,false
p8FBFBtB,3o2y2uiudt7n7g4dfo9bupx2ocrfkv,3jmsru9hqm7b4xwnaj8e30jae57evp,p8FBFBtB,2020-0188,2020-05-21,13:46:55,14:05:56,NA,incomplete,50,number,1,right,Blue_Star_Chess_4.jpg,Purple_Plus_Chess_2.jpg,Red_Circle_Grid_4.jpg,right,794.495000038296,true,low,NA,NA,NA,NA,NA,NA,NA,false
p8FBFBtB,3o2y2uiudt7n7g4dfo9bupx2ocrfkv,3jmsru9hqm7b4xwnaj8e30jae57evp,p8FBFBtB,2020-0188,2020-05-21,13:46:55,14:05:56,NA,incomplete,51,number,1,left,Blue_Triangle_Dots_2.jpg,Green_Circle_Stripes_2.jpg,Purple_Plus_Dots_1.jpg,left,1167.5599999725819,true,low,NA,NA,NA,NA,NA,NA,NA,false
p8FBFBtB,3o2y2uiudt7n7g4dfo9bupx2ocrfkv,3jmsru9hqm7b4xwnaj8e30jae57evp,p8FBFBtB,2020-0188,2020-05-21,13:46:55,14:05:56,NA,incomplete,52,number,1,right,Green_Circle_Chess_2.jpg,Red_Star_Chess_4.jpg,Blue_Triangle_Stripes_2.jpg,right,734.9999999860302,true,low,NA,NA,NA,NA,NA,NA,NA,false
p8FBFBtB,3o2y2uiudt7n7g4dfo9bupx2ocrfkv,3jmsru9hqm7b4xwnaj8e30jae57evp,p8FBFBtB,2020-0188,2020-05-21,13:46:55,14:05:56,NA,incomplete,53,number,1,left,Purple_Circle_Stripes_1.jpg,Blue_Triangle_Grid_1.jpg,Green_Plus_Stripes_3.jpg,left,956.4900000113994,true,low,NA,NA,NA,NA,NA,NA,NA,false
p8FBFBtB,3o2y2uiudt7n7g4dfo9bupx2ocrfkv,3jmsru9hqm7b4xwnaj8e30jae57evp,p8FBFBtB,2020-0188,2020-05-21,13:46:55,14:05:56,NA,incomplete,54,number,0,left,Blue_Circle_Stripes_4.jpg,Red_Plus_Grid_4.jpg,Purple_Triangle_Stripes_2.jpg,left,661.2050000112504,true,low,NA,NA,NA,NA,NA,NA,NA,false
p8FBFBtB,3o2y2uiudt7n7g4dfo9bupx2ocrfkv,3jmsru9hqm7b4xwnaj8e30jae57evp,p8FBFBtB,2020-0188,2020-05-21,13:46:55,14:05:56,NA,incomplete,55,number,1,right,Purple_Plus_Chess_4.jpg,Blue_Triangle_Chess_1.jpg,Green_Star_Stripes_4.jpg,right,641.1150000058115,true,low,NA,NA,NA,NA,NA,NA,NA,false
p8FBFBtB,3o2y2uiudt7n7g4dfo9bupx2ocrfkv,3jmsru9hqm7b4xwnaj8e30jae57evp,p8FBFBtB,2020-0188,2020-05-21,13:46:55,14:05:56,NA,incomplete,56,number,0,left,Blue_Star_Chess_2.jpg,Purple_Circle_Dots_2.jpg,Green_Triangle_Chess_4.jpg,left,889.3149999785237,true,low,NA,NA,NA,NA,NA,NA,NA,false
p8FBFBtB,3o2y2uiudt7n7g4dfo9bupx2ocrfkv,3jmsru9hqm7b4xwnaj8e30jae57evp,p8FBFBtB,2020-0188,2020-05-21,13:46:55,14:05:56,NA,incomplete,57,number,1,right,Purple_Triangle_Grid_1.jpg,Green_Star_Grid_2.jpg,Red_Plus_Dots_1.jpg,left,877.814999956172,false,low,NA,NA,NA,NA,NA,NA,NA,false
p8FBFBtB,3o2y2uiudt7n7g4dfo9bupx2ocrfkv,3jmsru9hqm7b4xwnaj8e30jae57evp,p8FBFBtB,2020-0188,2020-05-21,13:46:55,14:05:56,NA,incomplete,58,number,1,left,Blue_Circle_Stripes_2.jpg,Red_Triangle_Dots_2.jpg,Green_Plus_Stripes_4.jpg,left,763.2299999822862,true,low,NA,NA,NA,NA,NA,NA,NA,false
p8FBFBtB,3o2y2uiudt7n7g4dfo9bupx2ocrfkv,3jmsru9hqm7b4xwnaj8e30jae57evp,p8FBFBtB,2020-0188,2020-05-21,13:46:55,14:05:56,NA,incomplete,59,number,1,right,Purple_Circle_Grid_3.jpg,Blue_Plus_Grid_2.jpg,Green_Triangle_Dots_3.jpg,right,697.4700000137091,true,low,NA,NA,NA,NA,NA,NA,NA,false
p8FBFBtB,3o2y2uiudt7n7g4dfo9bupx2ocrfkv,3jmsru9hqm7b4xwnaj8e30jae57evp,p8FBFBtB,2020-0188,2020-05-21,13:46:55,14:05:56,NA,incomplete,60,filling,1,right,Red_Triangle_Dots_2.jpg,Green_Star_Chess_2.jpg,Purple_Plus_Dots_3.jpg,left,768.9549999777228,false,low,NA,NA,NA,NA,NA,NA,NA,false
p8FBFBtB,3o2y2uiudt7n7g4dfo9bupx2ocrfkv,3jmsru9hqm7b4xwnaj8e30jae57evp,p8FBFBtB,2020-0188,2020-05-21,13:46:55,14:05:56,NA,incomplete,61,filling,1,right,Red_Circle_Dots_4.jpg,Blue_Star_Stripes_4.jpg,Green_Triangle_Dots_1.jpg,right,797.0949999871664,true,low,NA,NA,NA,NA,NA,NA,NA,false
p8FBFBtB,3o2y2uiudt7n7g4dfo9bupx2ocrfkv,3jmsru9hqm7b4xwnaj8e30jae57evp,p8FBFBtB,2020-0188,2020-05-21,13:46:55,14:05:56,NA,incomplete,62,filling,1,left,Green_Circle_Grid_3.jpg,Red_Star_Grid_1.jpg,Purple_Plus_Stripes_3.jpg,left,1206.7949999473058,true,low,NA,NA,NA,NA,NA,NA,NA,false
p8FBFBtB,3o2y2uiudt7n7g4dfo9bupx2ocrfkv,3jmsru9hqm7b4xwnaj8e30jae57evp,p8FBFBtB,2020-0188,2020-05-21,13:46:55,14:05:56,NA,incomplete,63,filling,1,left,Green_Circle_Grid_2.jpg,Blue_Star_Grid_1.jpg,Red_Plus_Chess_2.jpg,left,986.4400000078604,true,low,NA,NA,NA,NA,NA,NA,NA,false
p8FBFBtB,3o2y2uiudt7n7g4dfo9bupx2ocrfkv,3jmsru9hqm7b4xwnaj8e30jae57evp,p8FBFBtB,2020-0188,2020-05-21,13:46:55,14:05:56,NA,incomplete,64,filling,1,right,Red_Triangle_Dots_2.jpg,Blue_Plus_Stripes_2.jpg,Purple_Circle_Dots_4.jpg,right,718.4149999520741,true,low,NA,NA,NA,NA,NA,NA,NA,false
p8FBFBtB,3o2y2uiudt7n7g4dfo9bupx2ocrfkv,3jmsru9hqm7b4xwnaj8e30jae57evp,p8FBFBtB,2020-0188,2020-05-21,13:46:55,14:05:56,NA,incomplete,65,filling,1,left,Red_Star_Grid_1.jpg,Purple_Circle_Grid_3.jpg,Green_Plus_Chess_1.jpg,left,813.4200000204146,true,low,NA,NA,NA,NA,NA,NA,NA,false
p8FBFBtB,3o2y2uiudt7n7g4dfo9bupx2ocrfkv,3jmsru9hqm7b4xwnaj8e30jae57evp,p8FBFBtB,2020-0188,2020-05-21,13:46:55,14:05:56,NA,incomplete,66,filling,0,right,Blue_Star_Dots_2.jpg,Purple_Circle_Stripes_2.jpg,Green_Triangle_Dots_4.jpg,right,965.5100000090897,true,low,NA,NA,NA,NA,NA,NA,NA,false
p8FBFBtB,3o2y2uiudt7n7g4dfo9bupx2ocrfkv,3jmsru9hqm7b4xwnaj8e30jae57evp,p8FBFBtB,2020-0188,2020-05-21,13:46:55,14:05:56,NA,incomplete,67,filling,1,right,Purple_Star_Stripes_3.jpg,Green_Triangle_Grid_3.jpg,Red_Circle_Stripes_4.jpg,right,1175.3800000296906,true,low,NA,NA,NA,NA,NA,NA,NA,false
p8FBFBtB,3o2y2uiudt7n7g4dfo9bupx2ocrfkv,3jmsru9hqm7b4xwnaj8e30jae57evp,p8FBFBtB,2020-0188,2020-05-21,13:46:55,14:05:56,NA,incomplete,68,filling,1,left,Blue_Triangle_Grid_1.jpg,Red_Star_Grid_4.jpg,Purple_Circle_Stripes_1.jpg,left,851.1549999821,true,low,NA,NA,NA,NA,NA,NA,NA,false
p8FBFBtB,3o2y2uiudt7n7g4dfo9bupx2ocrfkv,3jmsru9hqm7b4xwnaj8e30jae57evp,p8FBFBtB,2020-0188,2020-05-21,13:46:55,14:05:56,NA,incomplete,69,filling,1,left,Blue_Plus_Stripes_2.jpg,Purple_Star_Stripes_4.jpg,Red_Triangle_Chess_2.jpg,left,1588.5249999701045,true,low,NA,NA,NA,NA,NA,NA,NA,false
p8FBFBtB,3o2y2uiudt7n7g4dfo9bupx2ocrfkv,3jmsru9hqm7b4xwnaj8e30jae57evp,p8FBFBtB,2020-0188,2020-05-21,13:46:55,14:05:56,NA,incomplete,70,filling,1,left,Purple_Circle_Grid_1.jpg,Blue_Plus_Grid_3.jpg,Red_Triangle_Chess_1.jpg,left,786.3900000229478,true,low,NA,NA,NA,NA,NA,NA,NA,false
p8FBFBtB,3o2y2uiudt7n7g4dfo9bupx2ocrfkv,3jmsru9hqm7b4xwnaj8e30jae57evp,p8FBFBtB,2020-0188,2020-05-21,13:46:55,14:05:56,NA,incomplete,71,filling,1,right,Blue_Star_Chess_4.jpg,Purple_Circle_Dots_4.jpg,Green_Triangle_Chess_2.jpg,right,848.0899999849498,true,low,NA,NA,NA,NA,NA,NA,NA,false
p8FBFBtB,3o2y2uiudt7n7g4dfo9bupx2ocrfkv,3jmsru9hqm7b4xwnaj8e30jae57evp,p8FBFBtB,2020-0188,2020-05-21,13:46:55,14:05:56,NA,incomplete,72,filling,0,left,Purple_Triangle_Stripes_4.jpg,Red_Plus_Stripes_1.jpg,Blue_Star_Chess_4.jpg,left,860.9149999683723,true,low,NA,NA,NA,NA,NA,NA,NA,false
p8FBFBtB,3o2y2uiudt7n7g4dfo9bupx2ocrfkv,3jmsru9hqm7b4xwnaj8e30jae57evp,p8FBFBtB,2020-0188,2020-05-21,13:46:55,14:05:56,NA,incomplete,73,filling,1,left,Purple_Triangle_Dots_2.jpg,Red_Circle_Dots_3.jpg,Blue_Plus_Chess_2.jpg,left,678.8700000033714,true,low,NA,NA,NA,NA,NA,NA,NA,false
p8FBFBtB,3o2y2uiudt7n7g4dfo9bupx2ocrfkv,3jmsru9hqm7b4xwnaj8e30jae57evp,p8FBFBtB,2020-0188,2020-05-21,13:46:55,14:05:56,NA,incomplete,74,filling,1,right,Purple_Plus_Stripes_1.jpg,Blue_Star_Dots_1.jpg,Red_Triangle_Stripes_2.jpg,right,655.5749999824911,true,low,NA,NA,NA,NA,NA,NA,NA,false
p8FBFBtB,3o2y2uiudt7n7g4dfo9bupx2ocrfkv,3jmsru9hqm7b4xwnaj8e30jae57evp,p8FBFBtB,2020-0188,2020-05-21,13:46:55,14:05:56,NA,incomplete,75,filling,1,right,Green_Triangle_Grid_3.jpg,Blue_Plus_Dots_3.jpg,Purple_Star_Grid_1.jpg,right,1068.840000021737,true,low,NA,NA,NA,NA,NA,NA,NA,false
p8FBFBtB,3o2y2uiudt7n7g4dfo9bupx2ocrfkv,3jmsru9hqm7b4xwnaj8e30jae57evp,p8FBFBtB,2020-0188,2020-05-21,13:46:55,14:05:56,NA,incomplete,76,filling,0,left,Red_Circle_Dots_1.jpg,Blue_Plus_Dots_2.jpg,Green_Triangle_Chess_1.jpg,left,795.2900000382215,true,low,NA,NA,NA,NA,NA,NA,NA,false
p8FBFBtB,3o2y2uiudt7n7g4dfo9bupx2ocrfkv,3jmsru9hqm7b4xwnaj8e30jae57evp,p8FBFBtB,2020-0188,2020-05-21,13:46:55,14:05:56,NA,incomplete,77,filling,1,right,Green_Circle_Grid_3.jpg,Red_Star_Dots_3.jpg,Purple_Triangle_Grid_2.jpg,right,830.820000031963,true,low,NA,NA,NA,NA,NA,NA,NA,false
p8FBFBtB,3o2y2uiudt7n7g4dfo9bupx2ocrfkv,3jmsru9hqm7b4xwnaj8e30jae57evp,p8FBFBtB,2020-0188,2020-05-21,13:46:55,14:05:56,NA,incomplete,78,filling,0,left,Blue_Star_Dots_1.jpg,Purple_Plus_Dots_3.jpg,Green_Circle_Grid_1.jpg,left,1014.435000019148,true,low,NA,NA,NA,NA,NA,NA,NA,false
p8FBFBtB,3o2y2uiudt7n7g4dfo9bupx2ocrfkv,3jmsru9hqm7b4xwnaj8e30jae57evp,p8FBFBtB,2020-0188,2020-05-21,13:46:55,14:05:56,NA,incomplete,79,filling,0,left,Red_Triangle_Stripes_1.jpg,Purple_Circle_Stripes_2.jpg,Blue_Plus_Chess_1.jpg,left,771.6500000096858,true,low,NA,NA,NA,NA,NA,NA,NA,false
p8FBFBtB,3o2y2uiudt7n7g4dfo9bupx2ocrfkv,3jmsru9hqm7b4xwnaj8e30jae57evp,p8FBFBtB,2020-0188,2020-05-21,13:46:55,14:05:56,NA,incomplete,80,filling,1,left,Red_Circle_Grid_1.jpg,Blue_Plus_Grid_3.jpg,Green_Star_Chess_1.jpg,right,632.0600000326522,false,low,NA,NA,NA,NA,NA,NA,NA,false
p8FBFBtB,3o2y2uiudt7n7g4dfo9bupx2ocrfkv,3jmsru9hqm7b4xwnaj8e30jae57evp,p8FBFBtB,2020-0188,2020-05-21,13:46:55,14:05:56,NA,incomplete,81,filling,0,left,Blue_Star_Chess_2.jpg,Purple_Circle_Chess_3.jpg,Red_Plus_Stripes_2.jpg,right,797.7100000134669,false,low,NA,NA,NA,NA,NA,NA,NA,false
p8FBFBtB,3o2y2uiudt7n7g4dfo9bupx2ocrfkv,3jmsru9hqm7b4xwnaj8e30jae57evp,p8FBFBtB,2020-0188,2020-05-21,13:46:55,14:05:56,NA,incomplete,82,filling,1,right,Red_Circle_Stripes_3.jpg,Green_Triangle_Dots_3.jpg,Blue_Plus_Stripes_1.jpg,left,729.674999951385,false,low,NA,NA,NA,NA,NA,NA,NA,false
p8FBFBtB,3o2y2uiudt7n7g4dfo9bupx2ocrfkv,3jmsru9hqm7b4xwnaj8e30jae57evp,p8FBFBtB,2020-0188,2020-05-21,13:46:55,14:05:56,NA,incomplete,83,filling,1,left,Purple_Triangle_Chess_2.jpg,Blue_Star_Chess_3.jpg,Red_Plus_Stripes_2.jpg,left,755.3450000123121,true,low,NA,NA,NA,NA,NA,NA,NA,false
p8FBFBtB,3o2y2uiudt7n7g4dfo9bupx2ocrfkv,3jmsru9hqm7b4xwnaj8e30jae57evp,p8FBFBtB,2020-0188,2020-05-21,13:46:55,14:05:56,NA,incomplete,84,filling,0,left,Blue_Plus_Grid_2.jpg,Red_Star_Grid_3.jpg,Purple_Triangle_Dots_2.jpg,left,896.3149999617599,true,low,NA,NA,NA,NA,NA,NA,NA,false
p8FBFBtB,3o2y2uiudt7n7g4dfo9bupx2ocrfkv,3jmsru9hqm7b4xwnaj8e30jae57evp,p8FBFBtB,2020-0188,2020-05-21,13:46:55,14:05:56,NA,incomplete,85,filling,1,right,Purple_Plus_Stripes_4.jpg,Blue_Circle_Chess_4.jpg,Red_Triangle_Stripes_2.jpg,left,820.7999999867752,false,low,NA,NA,NA,NA,NA,NA,NA,false
p8FBFBtB,3o2y2uiudt7n7g4dfo9bupx2ocrfkv,3jmsru9hqm7b4xwnaj8e30jae57evp,p8FBFBtB,2020-0188,2020-05-21,13:46:55,14:05:56,NA,incomplete,86,filling,1,right,Red_Triangle_Chess_4.jpg,Blue_Circle_Grid_4.jpg,Green_Plus_Chess_3.jpg,right,857.6050000265241,true,low,NA,NA,NA,NA,NA,NA,NA,false
p8FBFBtB,3o2y2uiudt7n7g4dfo9bupx2ocrfkv,3jmsru9hqm7b4xwnaj8e30jae57evp,p8FBFBtB,2020-0188,2020-05-21,13:46:55,14:05:56,NA,incomplete,87,filling,1,right,Purple_Star_Stripes_4.jpg,Red_Circle_Grid_4.jpg,Green_Plus_Stripes_1.jpg,right,1005.8999999891967,true,low,NA,NA,NA,NA,NA,NA,NA,false
p8FBFBtB,3o2y2uiudt7n7g4dfo9bupx2ocrfkv,3jmsru9hqm7b4xwnaj8e30jae57evp,p8FBFBtB,2020-0188,2020-05-21,13:46:55,14:05:56,NA,incomplete,88,filling,1,right,Green_Star_Chess_3.jpg,Red_Plus_Grid_3.jpg,Blue_Triangle_Chess_4.jpg,right,859.2249999637716,true,low,NA,NA,NA,NA,NA,NA,NA,false
p8FBFBtB,3o2y2uiudt7n7g4dfo9bupx2ocrfkv,3jmsru9hqm7b4xwnaj8e30jae57evp,p8FBFBtB,2020-0188,2020-05-21,13:46:55,14:05:56,NA,incomplete,89,filling,1,right,Purple_Star_Stripes_2.jpg,Red_Triangle_Chess_2.jpg,Green_Circle_Stripes_1.jpg,right,915.8199999947101,true,low,NA,NA,NA,NA,NA,NA,NA,false
p8FBFBtB,3o2y2uiudt7n7g4dfo9bupx2ocrfkv,3jmsru9hqm7b4xwnaj8e30jae57evp,p8FBFBtB,2020-0188,2020-05-21,13:46:55,14:05:56,NA,incomplete,90,number,1,left,Red_Circle_Dots_3.jpg,Green_Star_Chess_3.jpg,Purple_Triangle_Dots_2.jpg,right,773.7750000087544,false,low,NA,NA,NA,NA,NA,NA,NA,false
p8FBFBtB,3o2y2uiudt7n7g4dfo9bupx2ocrfkv,3jmsru9hqm7b4xwnaj8e30jae57evp,p8FBFBtB,2020-0188,2020-05-21,13:46:55,14:05:56,NA,incomplete,91,number,1,left,Purple_Circle_Grid_2.jpg,Blue_Plus_Stripes_2.jpg,Red_Star_Grid_1.jpg,left,664.4000000087544,true,low,NA,NA,NA,NA,NA,NA,NA,false
p8FBFBtB,3o2y2uiudt7n7g4dfo9bupx2ocrfkv,3jmsru9hqm7b4xwnaj8e30jae57evp,p8FBFBtB,2020-0188,2020-05-21,13:46:55,14:05:56,NA,incomplete,92,number,1,right,Green_Star_Grid_1.jpg,Red_Triangle_Grid_3.jpg,Purple_Circle_Dots_1.jpg,right,681.7599999485537,true,low,NA,NA,NA,NA,NA,NA,NA,false
p8FBFBtB,3o2y2uiudt7n7g4dfo9bupx2ocrfkv,3jmsru9hqm7b4xwnaj8e30jae57evp,p8FBFBtB,2020-0188,2020-05-21,13:46:55,14:05:56,NA,incomplete,93,number,1,left,Green_Triangle_Dots_1.jpg,Red_Circle_Grid_1.jpg,Purple_Plus_Dots_2.jpg,left,522.1800000290386,true,low,NA,NA,NA,NA,NA,NA,NA,false
p8FBFBtB,3o2y2uiudt7n7g4dfo9bupx2ocrfkv,3jmsru9hqm7b4xwnaj8e30jae57evp,p8FBFBtB,2020-0188,2020-05-21,13:46:55,14:05:56,NA,incomplete,94,number,1,left,Red_Triangle_Grid_1.jpg,Green_Plus_Chess_1.jpg,Blue_Star_Grid_4.jpg,left,493.480000004638,true,low,NA,NA,NA,NA,NA,NA,NA,false
p8FBFBtB,3o2y2uiudt7n7g4dfo9bupx2ocrfkv,3jmsru9hqm7b4xwnaj8e30jae57evp,p8FBFBtB,2020-0188,2020-05-21,13:46:55,14:05:56,NA,incomplete,95,number,1,left,Green_Circle_Dots_1.jpg,Purple_Star_Chess_1.jpg,Red_Triangle_Dots_4.jpg,left,521.6699999873526,true,low,NA,NA,NA,NA,NA,NA,NA,false
p8FBFBtB,3o2y2uiudt7n7g4dfo9bupx2ocrfkv,3jmsru9hqm7b4xwnaj8e30jae57evp,p8FBFBtB,2020-0188,2020-05-21,13:46:55,14:05:56,NA,incomplete,96,number,1,left,Green_Triangle_Grid_4.jpg,Blue_Circle_Chess_4.jpg,Red_Plus_Grid_1.jpg,left,579.9000000115484,true,low,NA,NA,NA,NA,NA,NA,NA,false
p8FBFBtB,3o2y2uiudt7n7g4dfo9bupx2ocrfkv,3jmsru9hqm7b4xwnaj8e30jae57evp,p8FBFBtB,2020-0188,2020-05-21,13:46:55,14:05:56,NA,incomplete,97,number,1,right,Red_Star_Chess_4.jpg,Purple_Triangle_Chess_2.jpg,Green_Circle_Stripes_4.jpg,right,657.8999999910593,true,low,NA,NA,NA,NA,NA,NA,NA,false
p8FBFBtB,3o2y2uiudt7n7g4dfo9bupx2ocrfkv,3jmsru9hqm7b4xwnaj8e30jae57evp,p8FBFBtB,2020-0188,2020-05-21,13:46:55,14:05:56,NA,incomplete,98,number,0,right,Green_Star_Chess_4.jpg,Blue_Plus_Chess_1.jpg,Red_Circle_Stripes_4.jpg,right,676.5650000306778,true,low,NA,NA,NA,NA,NA,NA,NA,false
p8FBFBtB,3o2y2uiudt7n7g4dfo9bupx2ocrfkv,3jmsru9hqm7b4xwnaj8e30jae57evp,p8FBFBtB,2020-0188,2020-05-21,13:46:55,14:05:56,NA,incomplete,99,number,1,right,Purple_Circle_Grid_3.jpg,Red_Star_Grid_1.jpg,Green_Plus_Chess_3.jpg,right,805.3550000186078,true,low,NA,NA,NA,NA,NA,NA,NA,false
p8FBFBtB,3o2y2uiudt7n7g4dfo9bupx2ocrfkv,3jmsru9hqm7b4xwnaj8e30jae57evp,p8FBFBtB,2020-0188,2020-05-21,13:46:55,14:05:56,NA,incomplete,100,number,1,left,Purple_Star_Stripes_4.jpg,Red_Triangle_Dots_4.jpg,Blue_Circle_Stripes_2.jpg,left,629.0199999930337,true,low,NA,NA,NA,NA,NA,NA,NA,false
p8FBFBtB,3o2y2uiudt7n7g4dfo9bupx2ocrfkv,3jmsru9hqm7b4xwnaj8e30jae57evp,p8FBFBtB,2020-0188,2020-05-21,13:46:55,14:05:56,NA,incomplete,101,number,1,right,Green_Star_Dots_2.jpg,Purple_Circle_Dots_4.jpg,Red_Plus_Stripes_2.jpg,right,728.1049999874085,true,low,NA,NA,NA,NA,NA,NA,NA,false
p8FBFBtB,3o2y2uiudt7n7g4dfo9bupx2ocrfkv,3jmsru9hqm7b4xwnaj8e30jae57evp,p8FBFBtB,2020-0188,2020-05-21,13:46:55,14:05:56,NA,incomplete,102,number,1,left,Purple_Plus_Grid_2.jpg,Blue_Triangle_Chess_2.jpg,Green_Circle_Grid_1.jpg,left,640.369999979157,true,low,NA,NA,NA,NA,NA,NA,NA,false
p8FBFBtB,3o2y2uiudt7n7g4dfo9bupx2ocrfkv,3jmsru9hqm7b4xwnaj8e30jae57evp,p8FBFBtB,2020-0188,2020-05-21,13:46:55,14:05:56,NA,incomplete,103,number,1,left,Green_Star_Grid_4.jpg,Purple_Triangle_Chess_4.jpg,Red_Plus_Grid_1.jpg,left,659.7549999714829,true,low,NA,NA,NA,NA,NA,NA,NA,false
p8FBFBtB,3o2y2uiudt7n7g4dfo9bupx2ocrfkv,3jmsru9hqm7b4xwnaj8e30jae57evp,p8FBFBtB,2020-0188,2020-05-21,13:46:55,14:05:56,NA,incomplete,104,number,1,right,Red_Circle_Chess_3.jpg,Purple_Triangle_Chess_2.jpg,Green_Star_Grid_3.jpg,right,1330.2350000012666,true,low,NA,NA,NA,NA,NA,NA,NA,false
p8FBFBtB,3o2y2uiudt7n7g4dfo9bupx2ocrfkv,3jmsru9hqm7b4xwnaj8e30jae57evp,p8FBFBtB,2020-0188,2020-05-21,13:46:55,14:05:56,NA,incomplete,105,number,0,left,Blue_Plus_Dots_3.jpg,Green_Triangle_Stripes_3.jpg,Purple_Star_Dots_4.jpg,left,730.2999999956228,true,low,NA,NA,NA,NA,NA,NA,NA,false
p8FBFBtB,3o2y2uiudt7n7g4dfo9bupx2ocrfkv,3jmsru9hqm7b4xwnaj8e30jae57evp,p8FBFBtB,2020-0188,2020-05-21,13:46:55,14:05:56,NA,incomplete,106,number,1,right,Purple_Triangle_Stripes_4.jpg,Blue_Circle_Stripes_2.jpg,Red_Plus_Chess_4.jpg,right,609.3549999641255,true,low,NA,NA,NA,NA,NA,NA,NA,false
p8FBFBtB,3o2y2uiudt7n7g4dfo9bupx2ocrfkv,3jmsru9hqm7b4xwnaj8e30jae57evp,p8FBFBtB,2020-0188,2020-05-21,13:46:55,14:05:56,NA,incomplete,107,number,0,left,Blue_Star_Chess_3.jpg,Green_Triangle_Dots_3.jpg,Purple_Plus_Chess_1.jpg,left,666.8749999953434,true,low,NA,NA,NA,NA,NA,NA,NA,false
p8FBFBtB,3o2y2uiudt7n7g4dfo9bupx2ocrfkv,3jmsru9hqm7b4xwnaj8e30jae57evp,p8FBFBtB,2020-0188,2020-05-21,13:46:55,14:05:56,NA,incomplete,108,number,1,left,Purple_Triangle_Grid_3.jpg,Green_Circle_Dots_3.jpg,Red_Star_Grid_4.jpg,left,894.6749999886379,true,low,NA,NA,NA,NA,NA,NA,NA,false
p8FBFBtB,3o2y2uiudt7n7g4dfo9bupx2ocrfkv,3jmsru9hqm7b4xwnaj8e30jae57evp,p8FBFBtB,2020-0188,2020-05-21,13:46:55,14:05:56,NA,incomplete,109,number,1,left,Red_Plus_Chess_2.jpg,Blue_Circle_Dots_2.jpg,Purple_Star_Chess_3.jpg,left,779.8949999851175,true,low,NA,NA,NA,NA,NA,NA,NA,false
p8FBFBtB,3o2y2uiudt7n7g4dfo9bupx2ocrfkv,3jmsru9hqm7b4xwnaj8e30jae57evp,p8FBFBtB,2020-0188,2020-05-21,13:46:55,14:05:56,NA,incomplete,110,number,1,right,Green_Plus_Stripes_2.jpg,Red_Star_Stripes_1.jpg,Blue_Circle_Dots_2.jpg,right,813.1500000017695,true,low,NA,NA,NA,NA,NA,NA,NA,false
p8FBFBtB,3o2y2uiudt7n7g4dfo9bupx2ocrfkv,3jmsru9hqm7b4xwnaj8e30jae57evp,p8FBFBtB,2020-0188,2020-05-21,13:46:55,14:05:56,NA,incomplete,111,number,1,left,Purple_Plus_Grid_3.jpg,Blue_Star_Chess_3.jpg,Green_Triangle_Grid_1.jpg,left,661.7499999701977,true,low,NA,NA,NA,NA,NA,NA,NA,false
p8FBFBtB,3o2y2uiudt7n7g4dfo9bupx2ocrfkv,3jmsru9hqm7b4xwnaj8e30jae57evp,p8FBFBtB,2020-0188,2020-05-21,13:46:55,14:05:56,NA,incomplete,112,number,1,right,Green_Circle_Grid_4.jpg,Red_Plus_Grid_1.jpg,Blue_Star_Stripes_4.jpg,right,575.3750000149012,true,low,NA,NA,NA,NA,NA,NA,NA,false
p8FBFBtB,3o2y2uiudt7n7g4dfo9bupx2ocrfkv,3jmsru9hqm7b4xwnaj8e30jae57evp,p8FBFBtB,2020-0188,2020-05-21,13:46:55,14:05:56,NA,incomplete,113,number,1,left,Red_Star_Grid_4.jpg,Green_Triangle_Stripes_4.jpg,Blue_Circle_Grid_1.jpg,left,624.2499999934807,true,low,NA,NA,NA,NA,NA,NA,NA,false
p8FBFBtB,3o2y2uiudt7n7g4dfo9bupx2ocrfkv,3jmsru9hqm7b4xwnaj8e30jae57evp,p8FBFBtB,2020-0188,2020-05-21,13:46:55,14:05:56,NA,incomplete,114,number,1,right,Purple_Circle_Grid_2.jpg,Green_Plus_Grid_1.jpg,Blue_Triangle_Dots_2.jpg,right,677.6350000291131,true,low,NA,NA,NA,NA,NA,NA,NA,false
p8FBFBtB,3o2y2uiudt7n7g4dfo9bupx2ocrfkv,3jmsru9hqm7b4xwnaj8e30jae57evp,p8FBFBtB,2020-0188,2020-05-21,13:46:55,14:05:56,NA,incomplete,115,number,0,left,Blue_Triangle_Stripes_2.jpg,Purple_Circle_Grid_2.jpg,Red_Star_Stripes_3.jpg,left,587.7300000283867,true,low,NA,NA,NA,NA,NA,NA,NA,false
p8FBFBtB,3o2y2uiudt7n7g4dfo9bupx2ocrfkv,3jmsru9hqm7b4xwnaj8e30jae57evp,p8FBFBtB,2020-0188,2020-05-21,13:46:55,14:05:56,NA,incomplete,116,number,1,left,Blue_Plus_Chess_3.jpg,Green_Star_Stripes_3.jpg,Red_Circle_Chess_4.jpg,left,658.4499999880791,true,low,NA,NA,NA,NA,NA,NA,NA,false
p8FBFBtB,3o2y2uiudt7n7g4dfo9bupx2ocrfkv,3jmsru9hqm7b4xwnaj8e30jae57evp,p8FBFBtB,2020-0188,2020-05-21,13:46:55,14:05:56,NA,incomplete,117,number,1,left,Blue_Triangle_Dots_3.jpg,Green_Circle_Grid_3.jpg,Purple_Plus_Dots_4.jpg,left,636.2849999568425,true,low,NA,NA,NA,NA,NA,NA,NA,false
p8FBFBtB,3o2y2uiudt7n7g4dfo9bupx2ocrfkv,3jmsru9hqm7b4xwnaj8e30jae57evp,p8FBFBtB,2020-0188,2020-05-21,13:46:55,14:05:56,NA,incomplete,118,number,0,left,Red_Plus_Chess_3.jpg,Blue_Circle_Dots_3.jpg,Green_Triangle_Chess_2.jpg,left,813.0700000328943,true,low,NA,NA,NA,NA,NA,NA,NA,false
p8FBFBtB,3o2y2uiudt7n7g4dfo9bupx2ocrfkv,3jmsru9hqm7b4xwnaj8e30jae57evp,p8FBFBtB,2020-0188,2020-05-21,13:46:55,14:05:56,NA,incomplete,119,number,0,right,Blue_Circle_Grid_2.jpg,Green_Triangle_Grid_3.jpg,Red_Star_Chess_2.jpg,right,889.1849999781698,true,low,NA,NA,NA,NA,NA,NA,NA,false
p8FBFBtB,3o2y2uiudt7n7g4dfo9bupx2ocrfkv,3jmsru9hqm7b4xwnaj8e30jae57evp,p8FBFBtB,2020-0188,2020-05-21,13:46:55,14:05:56,NA,incomplete,120,shape,1,left,Green_Star_Grid_4.jpg,Red_Star_Stripes_2.jpg,Green_Plus_Chess_3.jpg,NA,NA,NA,low,NA,NA,NA,NA,NA,NA,NA,false
p8FBFBtB,3o2y2uiudt7n7g4dfo9bupx2ocrfkv,3jmsru9hqm7b4xwnaj8e30jae57evp,p8FBFBtB,2020-0188,2020-05-21,13:46:55,14:05:56,NA,incomplete,121,shape,1,right,Blue_Plus_Dots_1.jpg,Blue_Circle_Chess_2.jpg,Red_Plus_Stripes_3.jpg,left,1181.6699999617413,false,low,NA,NA,NA,NA,NA,NA,NA,false
p8FBFBtB,3o2y2uiudt7n7g4dfo9bupx2ocrfkv,3jmsru9hqm7b4xwnaj8e30jae57evp,p8FBFBtB,2020-0188,2020-05-21,13:46:55,14:05:56,NA,incomplete,122,shape,1,right,Red_Triangle_Chess_1.jpg,Red_Star_Dots_2.jpg,Green_Triangle_Stripes_3.jpg,right,599.675000004936,true,low,NA,NA,NA,NA,NA,NA,NA,false
p8FBFBtB,3o2y2uiudt7n7g4dfo9bupx2ocrfkv,3jmsru9hqm7b4xwnaj8e30jae57evp,p8FBFBtB,2020-0188,2020-05-21,13:46:55,14:05:56,NA,incomplete,123,shape,1,left,Blue_Plus_Stripes_4.jpg,Purple_Plus_Dots_1.jpg,Blue_Triangle_Grid_3.jpg,left,1120.5900000059046,true,low,NA,NA,NA,NA,NA,NA,NA,false
p8FBFBtB,3o2y2uiudt7n7g4dfo9bupx2ocrfkv,3jmsru9hqm7b4xwnaj8e30jae57evp,p8FBFBtB,2020-0188,2020-05-21,13:46:55,14:05:56,NA,incomplete,124,shape,1,right,Green_Circle_Stripes_3.jpg,Green_Triangle_Dots_4.jpg,Blue_Circle_Grid_2.jpg,left,844.6750000002794,false,low,NA,NA,NA,NA,NA,NA,NA,false
p8FBFBtB,3o2y2uiudt7n7g4dfo9bupx2ocrfkv,3jmsru9hqm7b4xwnaj8e30jae57evp,p8FBFBtB,2020-0188,2020-05-21,13:46:55,14:05:56,NA,incomplete,125,shape,1,right,Purple_Star_Chess_1.jpg,Purple_Plus_Dots_2.jpg,Green_Star_Grid_4.jpg,right,983.0000000074506,true,low,NA,NA,NA,NA,NA,NA,NA,false
p8FBFBtB,3o2y2uiudt7n7g4dfo9bupx2ocrfkv,3jmsru9hqm7b4xwnaj8e30jae57evp,p8FBFBtB,2020-0188,2020-05-21,13:46:55,14:05:56,NA,incomplete,126,shape,0,right,Blue_Circle_Stripes_2.jpg,Blue_Star_Chess_3.jpg,Green_Circle_Grid_4.jpg,right,750.2949999761768,true,low,NA,NA,NA,NA,NA,NA,NA,false
p8FBFBtB,3o2y2uiudt7n7g4dfo9bupx2ocrfkv,3jmsru9hqm7b4xwnaj8e30jae57evp,p8FBFBtB,2020-0188,2020-05-21,13:46:55,14:05:56,NA,incomplete,127,shape,1,right,Red_Triangle_Grid_3.jpg,Red_Star_Dots_1.jpg,Blue_Triangle_Chess_2.jpg,right,641.1599999992177,true,low,NA,NA,NA,NA,NA,NA,NA,false
p8FBFBtB,3o2y2uiudt7n7g4dfo9bupx2ocrfkv,3jmsru9hqm7b4xwnaj8e30jae57evp,p8FBFBtB,2020-0188,2020-05-21,13:46:55,14:05:56,NA,incomplete,128,shape,0,right,Green_Circle_Dots_1.jpg,Green_Triangle_Stripes_3.jpg,Blue_Circle_Chess_2.jpg,right,574.7350000310689,true,low,NA,NA,NA,NA,NA,NA,NA,false
p8FBFBtB,3o2y2uiudt7n7g4dfo9bupx2ocrfkv,3jmsru9hqm7b4xwnaj8e30jae57evp,p8FBFBtB,2020-0188,2020-05-21,13:46:55,14:05:56,NA,incomplete,129,shape,1,left,Purple_Plus_Stripes_1.jpg,Green_Plus_Chess_4.jpg,Purple_Triangle_Grid_3.jpg,left,1142.7849999745376,true,low,NA,NA,NA,NA,NA,NA,NA,false
p8FBFBtB,3o2y2uiudt7n7g4dfo9bupx2ocrfkv,3jmsru9hqm7b4xwnaj8e30jae57evp,p8FBFBtB,2020-0188,2020-05-21,13:46:55,14:05:56,NA,incomplete,130,shape,1,left,Red_Star_Stripes_3.jpg,Blue_Star_Grid_1.jpg,Red_Triangle_Chess_4.jpg,left,880.2799999830313,true,low,NA,NA,NA,NA,NA,NA,NA,false
p8FBFBtB,3o2y2uiudt7n7g4dfo9bupx2ocrfkv,3jmsru9hqm7b4xwnaj8e30jae57evp,p8FBFBtB,2020-0188,2020-05-21,13:46:55,14:05:56,NA,incomplete,131,shape,0,right,Red_Plus_Chess_2.jpg,Red_Circle_Stripes_1.jpg,Green_Plus_Dots_4.jpg,right,842.4450000165962,true,low,NA,NA,NA,NA,NA,NA,NA,false
p8FBFBtB,3o2y2uiudt7n7g4dfo9bupx2ocrfkv,3jmsru9hqm7b4xwnaj8e30jae57evp,p8FBFBtB,2020-0188,2020-05-21,13:46:55,14:05:56,NA,incomplete,132,shape,1,right,Red_Star_Dots_1.jpg,Red_Triangle_Grid_3.jpg,Green_Star_Stripes_4.jpg,right,885.1549999671988,true,low,NA,NA,NA,NA,NA,NA,NA,false
p8FBFBtB,3o2y2uiudt7n7g4dfo9bupx2ocrfkv,3jmsru9hqm7b4xwnaj8e30jae57evp,p8FBFBtB,2020-0188,2020-05-21,13:46:55,14:05:56,NA,incomplete,133,shape,1,left,Red_Star_Chess_3.jpg,Green_Star_Grid_1.jpg,Red_Triangle_Dots_2.jpg,left,688.5200000251643,true,low,NA,NA,NA,NA,NA,NA,NA,false
p8FBFBtB,3o2y2uiudt7n7g4dfo9bupx2ocrfkv,3jmsru9hqm7b4xwnaj8e30jae57evp,p8FBFBtB,2020-0188,2020-05-21,13:46:55,14:05:56,NA,incomplete,134,shape,1,left,Purple_Star_Dots_3.jpg,Blue_Star_Chess_4.jpg,Purple_Plus_Grid_2.jpg,left,745.3950000344776,true,low,NA,NA,NA,NA,NA,NA,NA,false
p8FBFBtB,3o2y2uiudt7n7g4dfo9bupx2ocrfkv,3jmsru9hqm7b4xwnaj8e30jae57evp,p8FBFBtB,2020-0188,2020-05-21,13:46:55,14:05:56,NA,incomplete,135,shape,0,left,Purple_Star_Grid_1.jpg,Red_Star_Chess_2.jpg,Purple_Plus_Stripes_3.jpg,left,602.9550000093877,true,low,NA,NA,NA,NA,NA,NA,NA,false
p8FBFBtB,3o2y2uiudt7n7g4dfo9bupx2ocrfkv,3jmsru9hqm7b4xwnaj8e30jae57evp,p8FBFBtB,2020-0188,2020-05-21,13:46:55,14:05:56,NA,incomplete,136,shape,1,right,Green_Plus_Stripes_2.jpg,Green_Circle_Grid_3.jpg,Blue_Plus_Chess_4.jpg,left,951.4049999997951,false,low,NA,NA,NA,NA,NA,NA,NA,false
p8FBFBtB,3o2y2uiudt7n7g4dfo9bupx2ocrfkv,3jmsru9hqm7b4xwnaj8e30jae57evp,p8FBFBtB,2020-0188,2020-05-21,13:46:55,14:05:56,NA,incomplete,137,shape,1,right,Purple_Plus_Stripes_1.jpg,Purple_Circle_Dots_2.jpg,Green_Plus_Chess_4.jpg,right,1120.9299999754876,true,low,NA,NA,NA,NA,NA,NA,NA,false
p8FBFBtB,3o2y2uiudt7n7g4dfo9bupx2ocrfkv,3jmsru9hqm7b4xwnaj8e30jae57evp,p8FBFBtB,2020-0188,2020-05-21,13:46:55,14:05:56,NA,incomplete,138,shape,1,left,Blue_Triangle_Dots_3.jpg,Red_Triangle_Grid_4.jpg,Blue_Star_Chess_2.jpg,left,851.009999983944,true,low,NA,NA,NA,NA,NA,NA,NA,false
p8FBFBtB,3o2y2uiudt7n7g4dfo9bupx2ocrfkv,3jmsru9hqm7b4xwnaj8e30jae57evp,p8FBFBtB,2020-0188,2020-05-21,13:46:55,14:05:56,NA,incomplete,139,shape,0,right,Green_Star_Stripes_4.jpg,Green_Plus_Grid_1.jpg,Purple_Star_Chess_2.jpg,right,581.9299999857321,true,low,NA,NA,NA,NA,NA,NA,NA,false
p8FBFBtB,3o2y2uiudt7n7g4dfo9bupx2ocrfkv,3jmsru9hqm7b4xwnaj8e30jae57evp,p8FBFBtB,2020-0188,2020-05-21,13:46:55,14:05:56,NA,incomplete,140,color,1,right,Green_Star_Chess_4.jpg,Purple_Star_Dots_1.jpg,Green_Circle_Stripes_3.jpg,left,718.9200000138953,false,low,NA,NA,NA,NA,NA,NA,NA,false
p8FBFBtB,3o2y2uiudt7n7g4dfo9bupx2ocrfkv,3jmsru9hqm7b4xwnaj8e30jae57evp,p8FBFBtB,2020-0188,2020-05-21,13:46:55,14:05:56,NA,incomplete,141,color,1,left,Red_Triangle_Chess_4.jpg,Red_Star_Stripes_2.jpg,Green_Triangle_Dots_1.jpg,left,752.2200000239536,true,low,NA,NA,NA,NA,NA,NA,NA,false
p8FBFBtB,3o2y2uiudt7n7g4dfo9bupx2ocrfkv,3jmsru9hqm7b4xwnaj8e30jae57evp,p8FBFBtB,2020-0188,2020-05-21,13:46:55,14:05:56,NA,incomplete,142,color,1,right,Purple_Triangle_Stripes_1.jpg,Blue_Triangle_Chess_2.jpg,Purple_Plus_Dots_3.jpg,right,504.625000001397,true,low,NA,NA,NA,NA,NA,NA,NA,false
p8FBFBtB,3o2y2uiudt7n7g4dfo9bupx2ocrfkv,3jmsru9hqm7b4xwnaj8e30jae57evp,p8FBFBtB,2020-0188,2020-05-21,13:46:55,14:05:56,NA,incomplete,143,color,1,right,Red_Triangle_Stripes_1.jpg,Blue_Triangle_Grid_3.jpg,Red_Circle_Dots_2.jpg,right,547.7899999823421,true,low,NA,NA,NA,NA,NA,NA,NA,false
p8FBFBtB,3o2y2uiudt7n7g4dfo9bupx2ocrfkv,3jmsru9hqm7b4xwnaj8e30jae57evp,p8FBFBtB,2020-0188,2020-05-21,13:46:55,14:05:56,NA,incomplete,144,color,0,left,Green_Star_Grid_3.jpg,Green_Triangle_Stripes_2.jpg,Purple_Star_Dots_1.jpg,left,820.6450000288896,true,low,NA,NA,NA,NA,NA,NA,NA,false
p8FBFBtB,3o2y2uiudt7n7g4dfo9bupx2ocrfkv,3jmsru9hqm7b4xwnaj8e30jae57evp,p8FBFBtB,2020-0188,2020-05-21,13:46:55,14:05:56,NA,incomplete,145,color,1,right,Red_Plus_Dots_2.jpg,Purple_Plus_Stripes_3.jpg,Red_Circle_Grid_4.jpg,right,508.6649999720976,true,low,NA,NA,NA,NA,NA,NA,NA,false
p8FBFBtB,3o2y2uiudt7n7g4dfo9bupx2ocrfkv,3jmsru9hqm7b4xwnaj8e30jae57evp,p8FBFBtB,2020-0188,2020-05-21,13:46:55,14:05:56,NA,incomplete,146,color,1,right,Red_Star_Stripes_3.jpg,Purple_Star_Grid_2.jpg,Red_Circle_Chess_4.jpg,right,919.9099999968894,true,low,NA,NA,NA,NA,NA,NA,NA,false
p8FBFBtB,3o2y2uiudt7n7g4dfo9bupx2ocrfkv,3jmsru9hqm7b4xwnaj8e30jae57evp,p8FBFBtB,2020-0188,2020-05-21,13:46:55,14:05:56,NA,incomplete,147,color,0,left,Green_Plus_Grid_2.jpg,Green_Star_Stripes_4.jpg,Purple_Plus_Chess_1.jpg,left,695.5300000263378,true,low,NA,NA,NA,NA,NA,NA,NA,false
p8FBFBtB,3o2y2uiudt7n7g4dfo9bupx2ocrfkv,3jmsru9hqm7b4xwnaj8e30jae57evp,p8FBFBtB,2020-0188,2020-05-21,13:46:55,14:05:56,NA,incomplete,148,color,1,right,Blue_Plus_Stripes_2.jpg,Red_Plus_Grid_1.jpg,Blue_Star_Dots_4.jpg,right,598.2400000211783,true,low,NA,NA,NA,NA,NA,NA,NA,false
p8FBFBtB,3o2y2uiudt7n7g4dfo9bupx2ocrfkv,3jmsru9hqm7b4xwnaj8e30jae57evp,p8FBFBtB,2020-0188,2020-05-21,13:46:55,14:05:56,NA,incomplete,149,color,1,left,Red_Plus_Stripes_1.jpg,Red_Star_Grid_3.jpg,Blue_Plus_Chess_2.jpg,left,581.3949999865144,true,low,NA,NA,NA,NA,NA,NA,NA,false
p8FBFBtB,3o2y2uiudt7n7g4dfo9bupx2ocrfkv,3jmsru9hqm7b4xwnaj8e30jae57evp,p8FBFBtB,2020-0188,2020-05-21,13:46:55,14:05:56,NA,incomplete,150,color,0,right,Blue_Star_Grid_2.jpg,Purple_Star_Dots_1.jpg,Blue_Plus_Stripes_3.jpg,right,616.8099999777041,true,low,NA,NA,NA,NA,NA,NA,NA,false
p8FBFBtB,3o2y2uiudt7n7g4dfo9bupx2ocrfkv,3jmsru9hqm7b4xwnaj8e30jae57evp,p8FBFBtB,2020-0188,2020-05-21,13:46:55,14:05:56,NA,incomplete,151,color,1,right,Blue_Plus_Stripes_4.jpg,Purple_Plus_Chess_1.jpg,Blue_Circle_Dots_2.jpg,right,850.3749999799766,true,low,NA,NA,NA,NA,NA,NA,NA,false
p8FBFBtB,3o2y2uiudt7n7g4dfo9bupx2ocrfkv,3jmsru9hqm7b4xwnaj8e30jae57evp,p8FBFBtB,2020-0188,2020-05-21,13:46:55,14:05:56,NA,incomplete,152,color,1,left,Green_Plus_Chess_3.jpg,Green_Circle_Dots_2.jpg,Blue_Plus_Grid_4.jpg,left,980.1349999615923,true,low,NA,NA,NA,NA,NA,NA,NA,false
p8FBFBtB,3o2y2uiudt7n7g4dfo9bupx2ocrfkv,3jmsru9hqm7b4xwnaj8e30jae57evp,p8FBFBtB,2020-0188,2020-05-21,13:46:55,14:05:56,NA,incomplete,153,color,1,left,Purple_Star_Grid_4.jpg,Purple_Circle_Chess_2.jpg,Green_Star_Dots_3.jpg,left,623.955000017304,true,low,NA,NA,NA,NA,NA,NA,NA,false
p8FBFBtB,3o2y2uiudt7n7g4dfo9bupx2ocrfkv,3jmsru9hqm7b4xwnaj8e30jae57evp,p8FBFBtB,2020-0188,2020-05-21,13:46:55,14:05:56,NA,incomplete,154,color,1,right,Red_Star_Chess_4.jpg,Purple_Star_Stripes_1.jpg,Red_Circle_Grid_3.jpg,right,462.0349999750033,true,low,NA,NA,NA,NA,NA,NA,NA,false
p8FBFBtB,3o2y2uiudt7n7g4dfo9bupx2ocrfkv,3jmsru9hqm7b4xwnaj8e30jae57evp,p8FBFBtB,2020-0188,2020-05-21,13:46:55,14:05:56,NA,incomplete,155,color,1,left,Red_Triangle_Stripes_3.jpg,Red_Circle_Dots_2.jpg,Purple_Triangle_Grid_1.jpg,left,607.4150000349618,true,low,NA,NA,NA,NA,NA,NA,NA,false
p8FBFBtB,3o2y2uiudt7n7g4dfo9bupx2ocrfkv,3jmsru9hqm7b4xwnaj8e30jae57evp,p8FBFBtB,2020-0188,2020-05-21,13:46:55,14:05:56,NA,incomplete,156,color,1,right,Purple_Triangle_Grid_1.jpg,Red_Triangle_Dots_4.jpg,Purple_Plus_Stripes_3.jpg,right,611.6500000352971,true,low,NA,NA,NA,NA,NA,NA,NA,false
p8FBFBtB,3o2y2uiudt7n7g4dfo9bupx2ocrfkv,3jmsru9hqm7b4xwnaj8e30jae57evp,p8FBFBtB,2020-0188,2020-05-21,13:46:55,14:05:56,NA,incomplete,157,color,1,left,Green_Star_Chess_1.jpg,Green_Plus_Dots_4.jpg,Purple_Star_Stripes_3.jpg,left,541.1249999888241,true,low,NA,NA,NA,NA,NA,NA,NA,false
p8FBFBtB,3o2y2uiudt7n7g4dfo9bupx2ocrfkv,3jmsru9hqm7b4xwnaj8e30jae57evp,p8FBFBtB,2020-0188,2020-05-21,13:46:55,14:05:56,NA,incomplete,158,color,0,right,Red_Triangle_Stripes_3.jpg,Blue_Triangle_Chess_1.jpg,Red_Plus_Dots_2.jpg,right,479.01499998988584,true,low,NA,NA,NA,NA,NA,NA,NA,false
p8FBFBtB,3o2y2uiudt7n7g4dfo9bupx2ocrfkv,3jmsru9hqm7b4xwnaj8e30jae57evp,p8FBFBtB,2020-0188,2020-05-21,13:46:55,14:05:56,NA,incomplete,159,color,1,left,Red_Star_Dots_1.jpg,Red_Plus_Grid_3.jpg,Green_Star_Stripes_4.jpg,left,812.9199999966659,true,low,NA,NA,NA,NA,NA,NA,NA,false
p8FBFBtB,3o2y2uiudt7n7g4dfo9bupx2ocrfkv,3jmsru9hqm7b4xwnaj8e30jae57evp,p8FBFBtB,2020-0188,2020-05-21,13:46:55,14:05:56,NA,incomplete,160,shape,1,left,Red_Circle_Chess_2.jpg,Green_Circle_Dots_3.jpg,Red_Triangle_Stripes_1.jpg,right,540.0399999925867,false,low,NA,NA,NA,NA,NA,NA,NA,false
p8FBFBtB,3o2y2uiudt7n7g4dfo9bupx2ocrfkv,3jmsru9hqm7b4xwnaj8e30jae57evp,p8FBFBtB,2020-0188,2020-05-21,13:46:55,14:05:56,NA,incomplete,161,shape,1,right,Red_Plus_Dots_1.jpg,Red_Star_Stripes_3.jpg,Purple_Plus_Grid_2.jpg,right,929.5500000007451,true,low,NA,NA,NA,NA,NA,NA,NA,false
p8FBFBtB,3o2y2uiudt7n7g4dfo9bupx2ocrfkv,3jmsru9hqm7b4xwnaj8e30jae57evp,p8FBFBtB,2020-0188,2020-05-21,13:46:55,14:05:56,NA,incomplete,162,shape,1,right,Blue_Circle_Grid_4.jpg,Blue_Star_Chess_2.jpg,Green_Circle_Dots_3.jpg,right,979.7100000432692,true,low,NA,NA,NA,NA,NA,NA,NA,false
p8FBFBtB,3o2y2uiudt7n7g4dfo9bupx2ocrfkv,3jmsru9hqm7b4xwnaj8e30jae57evp,p8FBFBtB,2020-0188,2020-05-21,13:46:55,14:05:56,NA,incomplete,163,shape,1,right,Purple_Triangle_Grid_2.jpg,Purple_Star_Stripes_4.jpg,Blue_Triangle_Dots_1.jpg,right,1170.2749999822117,true,low,NA,NA,NA,NA,NA,NA,NA,false
p8FBFBtB,3o2y2uiudt7n7g4dfo9bupx2ocrfkv,3jmsru9hqm7b4xwnaj8e30jae57evp,p8FBFBtB,2020-0188,2020-05-21,13:46:55,14:05:56,NA,incomplete,164,shape,1,right,Green_Circle_Stripes_1.jpg,Green_Star_Grid_3.jpg,Purple_Circle_Chess_2.jpg,right,526.9800000241958,true,low,NA,NA,NA,NA,NA,NA,NA,false
p8FBFBtB,3o2y2uiudt7n7g4dfo9bupx2ocrfkv,3jmsru9hqm7b4xwnaj8e30jae57evp,p8FBFBtB,2020-0188,2020-05-21,13:46:55,14:05:56,NA,incomplete,165,shape,0,right,Green_Circle_Stripes_1.jpg,Green_Star_Chess_3.jpg,Blue_Circle_Grid_4.jpg,right,527.1049999864772,true,low,NA,NA,NA,NA,NA,NA,NA,false
p8FBFBtB,3o2y2uiudt7n7g4dfo9bupx2ocrfkv,3jmsru9hqm7b4xwnaj8e30jae57evp,p8FBFBtB,2020-0188,2020-05-21,13:46:55,14:05:56,NA,incomplete,166,shape,1,right,Blue_Star_Chess_2.jpg,Blue_Triangle_Stripes_3.jpg,Green_Star_Grid_4.jpg,right,663.9199999626726,true,low,NA,NA,NA,NA,NA,NA,NA,false
p8FBFBtB,3o2y2uiudt7n7g4dfo9bupx2ocrfkv,3jmsru9hqm7b4xwnaj8e30jae57evp,p8FBFBtB,2020-0188,2020-05-21,13:46:55,14:05:56,NA,incomplete,167,shape,1,right,Red_Star_Dots_3.jpg,Red_Triangle_Grid_1.jpg,Green_Star_Chess_4.jpg,right,794.7799999965355,true,low,NA,NA,NA,NA,NA,NA,NA,false
p8FBFBtB,3o2y2uiudt7n7g4dfo9bupx2ocrfkv,3jmsru9hqm7b4xwnaj8e30jae57evp,p8FBFBtB,2020-0188,2020-05-21,13:46:55,14:05:56,NA,incomplete,168,shape,1,right,Purple_Plus_Chess_4.jpg,Purple_Circle_Grid_1.jpg,Blue_Plus_Dots_2.jpg,right,824.3900000234134,true,low,NA,NA,NA,NA,NA,NA,NA,false
p8FBFBtB,3o2y2uiudt7n7g4dfo9bupx2ocrfkv,3jmsru9hqm7b4xwnaj8e30jae57evp,p8FBFBtB,2020-0188,2020-05-21,13:46:55,14:05:56,NA,incomplete,169,shape,0,left,Green_Circle_Dots_3.jpg,Purple_Circle_Chess_1.jpg,Green_Star_Stripes_4.jpg,left,933.8400000124238,true,low,NA,NA,NA,NA,NA,NA,NA,false
p8FBFBtB,3o2y2uiudt7n7g4dfo9bupx2ocrfkv,3jmsru9hqm7b4xwnaj8e30jae57evp,p8FBFBtB,2020-0188,2020-05-21,13:46:55,14:05:56,NA,incomplete,170,shape,1,right,Red_Star_Grid_4.jpg,Red_Plus_Stripes_1.jpg,Blue_Star_Chess_3.jpg,right,636.289999994915,true,low,NA,NA,NA,NA,NA,NA,NA,false
p8FBFBtB,3o2y2uiudt7n7g4dfo9bupx2ocrfkv,3jmsru9hqm7b4xwnaj8e30jae57evp,p8FBFBtB,2020-0188,2020-05-21,13:46:55,14:05:56,NA,incomplete,171,shape,1,right,Blue_Circle_Stripes_2.jpg,Blue_Plus_Grid_4.jpg,Green_Circle_Dots_1.jpg,right,565.4600000125356,true,low,NA,NA,NA,NA,NA,NA,NA,false
p8FBFBtB,3o2y2uiudt7n7g4dfo9bupx2ocrfkv,3jmsru9hqm7b4xwnaj8e30jae57evp,p8FBFBtB,2020-0188,2020-05-21,13:46:55,14:05:56,NA,incomplete,172,shape,0,right,Purple_Plus_Stripes_2.jpg,Purple_Triangle_Grid_1.jpg,Blue_Plus_Dots_4.jpg,right,756.0100000118837,true,low,NA,NA,NA,NA,NA,NA,NA,false
p8FBFBtB,3o2y2uiudt7n7g4dfo9bupx2ocrfkv,3jmsru9hqm7b4xwnaj8e30jae57evp,p8FBFBtB,2020-0188,2020-05-21,13:46:55,14:05:56,NA,incomplete,173,shape,1,right,Blue_Triangle_Dots_1.jpg,Blue_Star_Chess_3.jpg,Green_Triangle_Grid_4.jpg,right,603.0599999940023,true,low,NA,NA,NA,NA,NA,NA,NA,false
p8FBFBtB,3o2y2uiudt7n7g4dfo9bupx2ocrfkv,3jmsru9hqm7b4xwnaj8e30jae57evp,p8FBFBtB,2020-0188,2020-05-21,13:46:55,14:05:56,NA,incomplete,174,shape,1,right,Green_Triangle_Stripes_2.jpg,Green_Plus_Grid_4.jpg,Red_Triangle_Chess_1.jpg,left,801.4799999655224,false,low,NA,NA,NA,NA,NA,NA,NA,false
p8FBFBtB,3o2y2uiudt7n7g4dfo9bupx2ocrfkv,3jmsru9hqm7b4xwnaj8e30jae57evp,p8FBFBtB,2020-0188,2020-05-21,13:46:55,14:05:56,NA,incomplete,175,shape,1,right,Green_Circle_Chess_2.jpg,Green_Star_Stripes_1.jpg,Purple_Circle_Grid_4.jpg,right,1265.5049999593757,true,low,NA,NA,NA,NA,NA,NA,NA,false
p8FBFBtB,3o2y2uiudt7n7g4dfo9bupx2ocrfkv,3jmsru9hqm7b4xwnaj8e30jae57evp,p8FBFBtB,2020-0188,2020-05-21,13:46:55,14:05:56,NA,incomplete,176,shape,1,right,Purple_Circle_Dots_4.jpg,Purple_Plus_Chess_1.jpg,Red_Circle_Grid_3.jpg,right,551.1399999959394,true,low,NA,NA,NA,NA,NA,NA,NA,false
p8FBFBtB,3o2y2uiudt7n7g4dfo9bupx2ocrfkv,3jmsru9hqm7b4xwnaj8e30jae57evp,p8FBFBtB,2020-0188,2020-05-21,13:46:55,14:05:56,NA,incomplete,177,shape,1,right,Green_Circle_Stripes_2.jpg,Green_Plus_Dots_3.jpg,Red_Circle_Chess_4.jpg,right,621.7349999933504,true,low,NA,NA,NA,NA,NA,NA,NA,false
p8FBFBtB,3o2y2uiudt7n7g4dfo9bupx2ocrfkv,3jmsru9hqm7b4xwnaj8e30jae57evp,p8FBFBtB,2020-0188,2020-05-21,13:46:55,14:05:56,NA,incomplete,178,shape,1,right,Blue_Triangle_Grid_3.jpg,Blue_Circle_Stripes_1.jpg,Red_Triangle_Dots_2.jpg,right,558.8650000281632,true,low,NA,NA,NA,NA,NA,NA,NA,false
p8FBFBtB,3o2y2uiudt7n7g4dfo9bupx2ocrfkv,3jmsru9hqm7b4xwnaj8e30jae57evp,p8FBFBtB,2020-0188,2020-05-21,13:46:55,14:05:56,NA,incomplete,179,shape,1,left,Red_Circle_Dots_2.jpg,Blue_Circle_Stripes_3.jpg,Red_Star_Grid_1.jpg,left,730.5000000051223,true,low,NA,NA,NA,NA,NA,NA,NA,false
p8FBFBtB,3o2y2uiudt7n7g4dfo9bupx2ocrfkv,3jmsru9hqm7b4xwnaj8e30jae57evp,p8FBFBtB,2020-0188,2020-05-21,13:46:55,14:05:56,NA,incomplete,180,color,1,left,Green_Plus_Chess_1.jpg,Green_Star_Stripes_2.jpg,Blue_Plus_Grid_4.jpg,right,797.3199999541976,false,low,NA,NA,NA,NA,NA,NA,NA,false
p8FBFBtB,3o2y2uiudt7n7g4dfo9bupx2ocrfkv,3jmsru9hqm7b4xwnaj8e30jae57evp,p8FBFBtB,2020-0188,2020-05-21,13:46:55,14:05:56,NA,incomplete,181,color,1,left,Green_Plus_Stripes_4.jpg,Green_Triangle_Chess_1.jpg,Blue_Plus_Grid_2.jpg,right,611.1650000093505,false,low,NA,NA,NA,NA,NA,NA,NA,false
p8FBFBtB,3o2y2uiudt7n7g4dfo9bupx2ocrfkv,3jmsru9hqm7b4xwnaj8e30jae57evp,p8FBFBtB,2020-0188,2020-05-21,13:46:55,14:05:56,NA,incomplete,182,color,1,right,Purple_Plus_Dots_2.jpg,Blue_Plus_Chess_4.jpg,Purple_Star_Stripes_3.jpg,right,657.1699999622069,true,low,NA,NA,NA,NA,NA,NA,NA,false
p8FBFBtB,3o2y2uiudt7n7g4dfo9bupx2ocrfkv,3jmsru9hqm7b4xwnaj8e30jae57evp,p8FBFBtB,2020-0188,2020-05-21,13:46:55,14:05:56,NA,incomplete,183,color,0,right,Green_Plus_Stripes_2.jpg,Blue_Plus_Grid_1.jpg,Green_Circle_Chess_3.jpg,right,420.23000004701316,true,low,NA,NA,NA,NA,NA,NA,NA,false
p8FBFBtB,3o2y2uiudt7n7g4dfo9bupx2ocrfkv,3jmsru9hqm7b4xwnaj8e30jae57evp,p8FBFBtB,2020-0188,2020-05-21,13:46:55,14:05:56,NA,incomplete,184,color,1,right,Red_Circle_Grid_2.jpg,Green_Circle_Chess_1.jpg,Red_Plus_Dots_3.jpg,right,718.9900000230409,true,low,NA,NA,NA,NA,NA,NA,NA,false
p8FBFBtB,3o2y2uiudt7n7g4dfo9bupx2ocrfkv,3jmsru9hqm7b4xwnaj8e30jae57evp,p8FBFBtB,2020-0188,2020-05-21,13:46:55,14:05:56,NA,incomplete,185,color,1,left,Green_Triangle_Stripes_2.jpg,Green_Plus_Dots_4.jpg,Blue_Triangle_Chess_1.jpg,right,1086.4549999823794,false,low,NA,NA,NA,NA,NA,NA,NA,false
p8FBFBtB,3o2y2uiudt7n7g4dfo9bupx2ocrfkv,3jmsru9hqm7b4xwnaj8e30jae57evp,p8FBFBtB,2020-0188,2020-05-21,13:46:55,14:05:56,NA,incomplete,186,color,0,left,Purple_Triangle_Chess_4.jpg,Purple_Star_Dots_1.jpg,Blue_Triangle_Grid_2.jpg,left,638.8049999950454,true,low,NA,NA,NA,NA,NA,NA,NA,false
p8FBFBtB,3o2y2uiudt7n7g4dfo9bupx2ocrfkv,3jmsru9hqm7b4xwnaj8e30jae57evp,p8FBFBtB,2020-0188,2020-05-21,13:46:55,14:05:56,NA,incomplete,187,color,1,right,Green_Triangle_Dots_1.jpg,Blue_Triangle_Grid_2.jpg,Green_Circle_Chess_4.jpg,right,797.6400000043213,true,low,NA,NA,NA,NA,NA,NA,NA,false
p8FBFBtB,3o2y2uiudt7n7g4dfo9bupx2ocrfkv,3jmsru9hqm7b4xwnaj8e30jae57evp,p8FBFBtB,2020-0188,2020-05-21,13:46:55,14:05:56,NA,incomplete,188,color,1,left,Red_Circle_Grid_3.jpg,Red_Triangle_Stripes_1.jpg,Green_Circle_Dots_4.jpg,left,501.69499998446554,true,low,NA,NA,NA,NA,NA,NA,NA,false
p8FBFBtB,3o2y2uiudt7n7g4dfo9bupx2ocrfkv,3jmsru9hqm7b4xwnaj8e30jae57evp,p8FBFBtB,2020-0188,2020-05-21,13:46:55,14:05:56,NA,incomplete,189,color,0,right,Green_Circle_Dots_2.jpg,Purple_Circle_Chess_3.jpg,Green_Triangle_Stripes_1.jpg,right,520.0900000054389,true,low,NA,NA,NA,NA,NA,NA,NA,false
p8FBFBtB,3o2y2uiudt7n7g4dfo9bupx2ocrfkv,3jmsru9hqm7b4xwnaj8e30jae57evp,p8FBFBtB,2020-0188,2020-05-21,13:46:55,14:05:56,NA,incomplete,190,color,1,left,Red_Triangle_Dots_2.jpg,Red_Plus_Stripes_1.jpg,Green_Triangle_Chess_3.jpg,left,879.4599999673665,true,low,NA,NA,NA,NA,NA,NA,NA,false
p8FBFBtB,3o2y2uiudt7n7g4dfo9bupx2ocrfkv,3jmsru9hqm7b4xwnaj8e30jae57evp,p8FBFBtB,2020-0188,2020-05-21,13:46:55,14:05:56,NA,incomplete,191,color,0,left,Red_Triangle_Chess_1.jpg,Red_Circle_Stripes_2.jpg,Purple_Triangle_Grid_3.jpg,left,681.7949999822304,true,low,NA,NA,NA,NA,NA,NA,NA,false
p8FBFBtB,3o2y2uiudt7n7g4dfo9bupx2ocrfkv,3jmsru9hqm7b4xwnaj8e30jae57evp,p8FBFBtB,2020-0188,2020-05-21,13:46:55,14:05:56,NA,incomplete,192,color,1,left,Red_Plus_Grid_4.jpg,Red_Triangle_Stripes_1.jpg,Blue_Plus_Chess_2.jpg,left,941.4249999681488,true,low,NA,NA,NA,NA,NA,NA,NA,false
p8FBFBtB,3o2y2uiudt7n7g4dfo9bupx2ocrfkv,3jmsru9hqm7b4xwnaj8e30jae57evp,p8FBFBtB,2020-0188,2020-05-21,13:46:55,14:05:56,NA,incomplete,193,color,1,left,Purple_Plus_Dots_4.jpg,Purple_Star_Grid_1.jpg,Red_Plus_Stripes_3.jpg,left,617.3750000307336,true,low,NA,NA,NA,NA,NA,NA,NA,false
p8FBFBtB,3o2y2uiudt7n7g4dfo9bupx2ocrfkv,3jmsru9hqm7b4xwnaj8e30jae57evp,p8FBFBtB,2020-0188,2020-05-21,13:46:55,14:05:56,NA,incomplete,194,color,1,right,Purple_Plus_Dots_3.jpg,Red_Plus_Stripes_2.jpg,Purple_Circle_Grid_1.jpg,right,824.6750000398606,true,low,NA,NA,NA,NA,NA,NA,NA,false
p8FBFBtB,3o2y2uiudt7n7g4dfo9bupx2ocrfkv,3jmsru9hqm7b4xwnaj8e30jae57evp,p8FBFBtB,2020-0188,2020-05-21,13:46:55,14:05:56,NA,incomplete,195,color,0,left,Blue_Plus_Grid_3.jpg,Blue_Triangle_Dots_4.jpg,Red_Plus_Chess_2.jpg,left,858.3600000129081,true,low,NA,NA,NA,NA,NA,NA,NA,false
p8FBFBtB,3o2y2uiudt7n7g4dfo9bupx2ocrfkv,3jmsru9hqm7b4xwnaj8e30jae57evp,p8FBFBtB,2020-0188,2020-05-21,13:46:55,14:05:56,NA,incomplete,196,color,1,left,Green_Star_Dots_2.jpg,Green_Circle_Grid_3.jpg,Red_Star_Chess_4.jpg,left,673.5099999932572,true,low,NA,NA,NA,NA,NA,NA,NA,false
p8FBFBtB,3o2y2uiudt7n7g4dfo9bupx2ocrfkv,3jmsru9hqm7b4xwnaj8e30jae57evp,p8FBFBtB,2020-0188,2020-05-21,13:46:55,14:05:56,NA,incomplete,197,color,1,right,Green_Triangle_Stripes_3.jpg,Blue_Triangle_Chess_2.jpg,Green_Plus_Dots_1.jpg,right,869.4999999715947,true,low,NA,NA,NA,NA,NA,NA,NA,false
p8FBFBtB,3o2y2uiudt7n7g4dfo9bupx2ocrfkv,3jmsru9hqm7b4xwnaj8e30jae57evp,p8FBFBtB,2020-0188,2020-05-21,13:46:55,14:05:56,NA,incomplete,198,color,1,left,Blue_Star_Stripes_4.jpg,Blue_Triangle_Chess_2.jpg,Red_Star_Dots_3.jpg,left,653.0250000068918,true,low,NA,NA,NA,NA,NA,NA,NA,false
p8FBFBtB,3o2y2uiudt7n7g4dfo9bupx2ocrfkv,3jmsru9hqm7b4xwnaj8e30jae57evp,p8FBFBtB,2020-0188,2020-05-21,13:46:55,14:05:56,NA,incomplete,199,color,1,left,Red_Circle_Stripes_2.jpg,Red_Triangle_Chess_4.jpg,Blue_Circle_Dots_3.jpg,left,791.6500000283122,true,low,NA,NA,NA,NA,NA,NA,NA,false
p8FBFBtB,3o2y2uiudt7n7g4dfo9bupx2ocrfkv,3jmsru9hqm7b4xwnaj8e30jae57evp,p8FBFBtB,2020-0188,2020-05-21,13:46:55,14:05:56,NA,incomplete,200,shape,1,left,Red_Circle_Dots_1.jpg,Green_Circle_Chess_4.jpg,Red_Plus_Grid_3.jpg,right,624.3849999736995,false,low,NA,NA,NA,NA,NA,NA,NA,false
p8FBFBtB,3o2y2uiudt7n7g4dfo9bupx2ocrfkv,3jmsru9hqm7b4xwnaj8e30jae57evp,p8FBFBtB,2020-0188,2020-05-21,13:46:55,14:05:56,NA,incomplete,201,shape,1,left,Green_Plus_Stripes_4.jpg,Blue_Plus_Dots_3.jpg,Green_Star_Chess_1.jpg,right,553.7049999693409,false,low,NA,NA,NA,NA,NA,NA,NA,false
p8FBFBtB,3o2y2uiudt7n7g4dfo9bupx2ocrfkv,3jmsru9hqm7b4xwnaj8e30jae57evp,p8FBFBtB,2020-0188,2020-05-21,13:46:55,14:05:56,NA,incomplete,202,shape,0,right,Blue_Plus_Chess_3.jpg,Blue_Star_Stripes_1.jpg,Red_Plus_Grid_2.jpg,right,666.4599999785423,true,low,NA,NA,NA,NA,NA,NA,NA,false
p8FBFBtB,3o2y2uiudt7n7g4dfo9bupx2ocrfkv,3jmsru9hqm7b4xwnaj8e30jae57evp,p8FBFBtB,2020-0188,2020-05-21,13:46:55,14:05:56,NA,incomplete,203,shape,1,right,Purple_Star_Grid_2.jpg,Purple_Triangle_Stripes_1.jpg,Green_Star_Dots_4.jpg,left,710.7300000498071,false,low,NA,NA,NA,NA,NA,NA,NA,false
p8FBFBtB,3o2y2uiudt7n7g4dfo9bupx2ocrfkv,3jmsru9hqm7b4xwnaj8e30jae57evp,p8FBFBtB,2020-0188,2020-05-21,13:46:55,14:05:56,NA,incomplete,204,shape,1,right,Green_Triangle_Stripes_4.jpg,Green_Star_Grid_2.jpg,Purple_Triangle_Chess_1.jpg,right,1010.9350000275299,true,low,NA,NA,NA,NA,NA,NA,NA,false
p8FBFBtB,3o2y2uiudt7n7g4dfo9bupx2ocrfkv,3jmsru9hqm7b4xwnaj8e30jae57evp,p8FBFBtB,2020-0188,2020-05-21,13:46:55,14:05:56,NA,incomplete,205,shape,1,right,Red_Circle_Dots_2.jpg,Red_Star_Stripes_1.jpg,Purple_Circle_Chess_3.jpg,right,549.8450000304729,true,low,NA,NA,NA,NA,NA,NA,NA,false
p8FBFBtB,3o2y2uiudt7n7g4dfo9bupx2ocrfkv,3jmsru9hqm7b4xwnaj8e30jae57evp,p8FBFBtB,2020-0188,2020-05-21,13:46:55,14:05:56,NA,incomplete,206,shape,1,right,Red_Circle_Dots_4.jpg,Red_Star_Stripes_1.jpg,Purple_Circle_Grid_3.jpg,right,594.3850000039674,true,low,NA,NA,NA,NA,NA,NA,NA,false
p8FBFBtB,3o2y2uiudt7n7g4dfo9bupx2ocrfkv,3jmsru9hqm7b4xwnaj8e30jae57evp,p8FBFBtB,2020-0188,2020-05-21,13:46:55,14:05:56,NA,incomplete,207,shape,1,right,Purple_Triangle_Chess_3.jpg,Purple_Circle_Stripes_2.jpg,Green_Triangle_Dots_1.jpg,right,539.2800000263378,true,low,NA,NA,NA,NA,NA,NA,NA,false
p8FBFBtB,3o2y2uiudt7n7g4dfo9bupx2ocrfkv,3jmsru9hqm7b4xwnaj8e30jae57evp,p8FBFBtB,2020-0188,2020-05-21,13:46:55,14:05:56,NA,incomplete,208,shape,1,left,Green_Star_Grid_1.jpg,Purple_Star_Dots_3.jpg,Green_Plus_Chess_2.jpg,left,672.1999999717809,true,low,NA,NA,NA,NA,NA,NA,NA,false
p8FBFBtB,3o2y2uiudt7n7g4dfo9bupx2ocrfkv,3jmsru9hqm7b4xwnaj8e30jae57evp,p8FBFBtB,2020-0188,2020-05-21,13:46:55,14:05:56,NA,incomplete,209,shape,1,left,Green_Star_Grid_1.jpg,Blue_Star_Stripes_3.jpg,Green_Triangle_Chess_4.jpg,left,538.4049999993294,true,low,NA,NA,NA,NA,NA,NA,NA,false
p8FBFBtB,3o2y2uiudt7n7g4dfo9bupx2ocrfkv,3jmsru9hqm7b4xwnaj8e30jae57evp,p8FBFBtB,2020-0188,2020-05-21,13:46:55,14:05:56,NA,incomplete,210,shape,1,right,Red_Plus_Grid_2.jpg,Red_Star_Chess_3.jpg,Green_Plus_Dots_1.jpg,right,902.5800000526942,true,low,NA,NA,NA,NA,NA,NA,NA,false
p8FBFBtB,3o2y2uiudt7n7g4dfo9bupx2ocrfkv,3jmsru9hqm7b4xwnaj8e30jae57evp,p8FBFBtB,2020-0188,2020-05-21,13:46:55,14:05:56,NA,incomplete,211,shape,0,left,Purple_Circle_Dots_2.jpg,Green_Circle_Chess_1.jpg,Purple_Star_Grid_4.jpg,left,840.8800000324845,true,low,NA,NA,NA,NA,NA,NA,NA,false
p8FBFBtB,3o2y2uiudt7n7g4dfo9bupx2ocrfkv,3jmsru9hqm7b4xwnaj8e30jae57evp,p8FBFBtB,2020-0188,2020-05-21,13:46:55,14:05:56,NA,incomplete,212,shape,1,left,Red_Plus_Grid_4.jpg,Blue_Plus_Dots_1.jpg,Red_Triangle_Chess_3.jpg,left,940.2600000030361,true,low,NA,NA,NA,NA,NA,NA,NA,false
p8FBFBtB,3o2y2uiudt7n7g4dfo9bupx2ocrfkv,3jmsru9hqm7b4xwnaj8e30jae57evp,p8FBFBtB,2020-0188,2020-05-21,13:46:55,14:05:56,NA,incomplete,213,shape,1,left,Blue_Circle_Grid_4.jpg,Green_Circle_Stripes_3.jpg,Blue_Star_Chess_1.jpg,left,606.7449999973178,true,low,NA,NA,NA,NA,NA,NA,NA,false
p8FBFBtB,3o2y2uiudt7n7g4dfo9bupx2ocrfkv,3jmsru9hqm7b4xwnaj8e30jae57evp,p8FBFBtB,2020-0188,2020-05-21,13:46:55,14:05:56,NA,incomplete,214,shape,1,left,Purple_Triangle_Dots_3.jpg,Blue_Triangle_Chess_1.jpg,Purple_Circle_Grid_2.jpg,left,942.1950000105426,true,low,NA,NA,NA,NA,NA,NA,NA,false
p8FBFBtB,3o2y2uiudt7n7g4dfo9bupx2ocrfkv,3jmsru9hqm7b4xwnaj8e30jae57evp,p8FBFBtB,2020-0188,2020-05-21,13:46:55,14:05:56,NA,incomplete,215,shape,1,right,Purple_Plus_Grid_1.jpg,Purple_Star_Stripes_2.jpg,Green_Plus_Dots_4.jpg,right,860.7299999566749,true,low,NA,NA,NA,NA,NA,NA,NA,false
p8FBFBtB,3o2y2uiudt7n7g4dfo9bupx2ocrfkv,3jmsru9hqm7b4xwnaj8e30jae57evp,p8FBFBtB,2020-0188,2020-05-21,13:46:55,14:05:56,NA,incomplete,216,shape,1,left,Green_Circle_Grid_3.jpg,Red_Circle_Chess_2.jpg,Green_Plus_Dots_1.jpg,right,726.5050000278279,false,low,NA,NA,NA,NA,NA,NA,NA,false
p8FBFBtB,3o2y2uiudt7n7g4dfo9bupx2ocrfkv,3jmsru9hqm7b4xwnaj8e30jae57evp,p8FBFBtB,2020-0188,2020-05-21,13:46:55,14:05:56,NA,incomplete,217,shape,1,right,Blue_Triangle_Grid_2.jpg,Blue_Plus_Dots_1.jpg,Purple_Triangle_Chess_3.jpg,right,702.5349999894388,true,low,NA,NA,NA,NA,NA,NA,NA,false
p8FBFBtB,3o2y2uiudt7n7g4dfo9bupx2ocrfkv,3jmsru9hqm7b4xwnaj8e30jae57evp,p8FBFBtB,2020-0188,2020-05-21,13:46:55,14:05:56,NA,incomplete,218,shape,1,right,Purple_Circle_Chess_3.jpg,Purple_Triangle_Grid_2.jpg,Green_Circle_Dots_4.jpg,right,1158.7949999957345,true,low,NA,NA,NA,NA,NA,NA,NA,false
p8FBFBtB,3o2y2uiudt7n7g4dfo9bupx2ocrfkv,3jmsru9hqm7b4xwnaj8e30jae57evp,p8FBFBtB,2020-0188,2020-05-21,13:46:55,14:05:56,NA,incomplete,219,shape,1,left,Green_Triangle_Chess_2.jpg,Purple_Triangle_Grid_3.jpg,Green_Circle_Dots_4.jpg,left,594.7000000160187,true,low,NA,NA,NA,NA,NA,NA,NA,false
p8FBFBtB,3o2y2uiudt7n7g4dfo9bupx2ocrfkv,3jmsru9hqm7b4xwnaj8e30jae57evp,p8FBFBtB,2020-0188,2020-05-21,13:46:55,14:05:56,NA,incomplete,220,color,1,right,Blue_Star_Dots_4.jpg,Green_Star_Stripes_2.jpg,Blue_Plus_Chess_1.jpg,left,693.8700000173412,false,low,NA,NA,NA,NA,NA,NA,NA,false
p8FBFBtB,3o2y2uiudt7n7g4dfo9bupx2ocrfkv,3jmsru9hqm7b4xwnaj8e30jae57evp,p8FBFBtB,2020-0188,2020-05-21,13:46:55,14:05:56,NA,incomplete,221,color,1,left,Purple_Star_Chess_1.jpg,Purple_Circle_Stripes_2.jpg,Red_Star_Grid_4.jpg,right,604.5850000227802,false,low,NA,NA,NA,NA,NA,NA,NA,false
p8FBFBtB,3o2y2uiudt7n7g4dfo9bupx2ocrfkv,3jmsru9hqm7b4xwnaj8e30jae57evp,p8FBFBtB,2020-0188,2020-05-21,13:46:55,14:05:56,NA,incomplete,222,color,0,right,Blue_Circle_Grid_1.jpg,Purple_Circle_Dots_3.jpg,Blue_Plus_Stripes_2.jpg,right,497.4250000086613,true,low,NA,NA,NA,NA,NA,NA,NA,false
p8FBFBtB,3o2y2uiudt7n7g4dfo9bupx2ocrfkv,3jmsru9hqm7b4xwnaj8e30jae57evp,p8FBFBtB,2020-0188,2020-05-21,13:46:55,14:05:56,NA,incomplete,223,color,1,right,Red_Plus_Stripes_3.jpg,Green_Plus_Chess_1.jpg,Red_Triangle_Grid_2.jpg,right,541.8650000356138,true,low,NA,NA,NA,NA,NA,NA,NA,false
p8FBFBtB,3o2y2uiudt7n7g4dfo9bupx2ocrfkv,3jmsru9hqm7b4xwnaj8e30jae57evp,p8FBFBtB,2020-0188,2020-05-21,13:46:55,14:05:56,NA,incomplete,224,color,1,left,Green_Plus_Dots_1.jpg,Green_Triangle_Grid_3.jpg,Red_Plus_Stripes_2.jpg,left,495.7399999839254,true,low,NA,NA,NA,NA,NA,NA,NA,false
p8FBFBtB,3o2y2uiudt7n7g4dfo9bupx2ocrfkv,3jmsru9hqm7b4xwnaj8e30jae57evp,p8FBFBtB,2020-0188,2020-05-21,13:46:55,14:05:56,NA,incomplete,225,color,1,left,Red_Star_Grid_1.jpg,Red_Plus_Dots_3.jpg,Blue_Star_Stripes_4.jpg,left,478.1150000053458,true,low,NA,NA,NA,NA,NA,NA,NA,false
p8FBFBtB,3o2y2uiudt7n7g4dfo9bupx2ocrfkv,3jmsru9hqm7b4xwnaj8e30jae57evp,p8FBFBtB,2020-0188,2020-05-21,13:46:55,14:05:56,NA,incomplete,226,color,1,right,Red_Triangle_Stripes_3.jpg,Purple_Triangle_Chess_1.jpg,Red_Star_Grid_4.jpg,right,480.005000019446,true,low,NA,NA,NA,NA,NA,NA,NA,false
p8FBFBtB,3o2y2uiudt7n7g4dfo9bupx2ocrfkv,3jmsru9hqm7b4xwnaj8e30jae57evp,p8FBFBtB,2020-0188,2020-05-21,13:46:55,14:05:56,NA,incomplete,227,color,1,left,Purple_Star_Dots_4.jpg,Purple_Triangle_Chess_2.jpg,Green_Star_Stripes_3.jpg,left,698.9949999842793,true,low,NA,NA,NA,NA,NA,NA,NA,false
p8FBFBtB,3o2y2uiudt7n7g4dfo9bupx2ocrfkv,3jmsru9hqm7b4xwnaj8e30jae57evp,p8FBFBtB,2020-0188,2020-05-21,13:46:55,14:05:56,NA,incomplete,228,color,0,left,Purple_Plus_Grid_1.jpg,Purple_Triangle_Chess_3.jpg,Green_Plus_Dots_2.jpg,left,485.97999999765307,true,low,NA,NA,NA,NA,NA,NA,NA,false
p8FBFBtB,3o2y2uiudt7n7g4dfo9bupx2ocrfkv,3jmsru9hqm7b4xwnaj8e30jae57evp,p8FBFBtB,2020-0188,2020-05-21,13:46:55,14:05:56,NA,incomplete,229,color,1,left,Purple_Circle_Stripes_4.jpg,Purple_Star_Dots_3.jpg,Red_Circle_Grid_1.jpg,left,477.57499996805564,true,low,NA,NA,NA,NA,NA,NA,NA,false
p8FBFBtB,3o2y2uiudt7n7g4dfo9bupx2ocrfkv,3jmsru9hqm7b4xwnaj8e30jae57evp,p8FBFBtB,2020-0188,2020-05-21,13:46:55,14:05:56,NA,incomplete,230,color,1,right,Purple_Plus_Dots_4.jpg,Blue_Plus_Stripes_2.jpg,Purple_Triangle_Chess_1.jpg,right,447.80500000342727,true,low,NA,NA,NA,NA,NA,NA,NA,false
p8FBFBtB,3o2y2uiudt7n7g4dfo9bupx2ocrfkv,3jmsru9hqm7b4xwnaj8e30jae57evp,p8FBFBtB,2020-0188,2020-05-21,13:46:55,14:05:56,NA,incomplete,231,color,1,right,Green_Plus_Chess_4.jpg,Purple_Plus_Stripes_1.jpg,Green_Triangle_Grid_2.jpg,right,452.0550000015646,true,low,NA,NA,NA,NA,NA,NA,NA,false
p8FBFBtB,3o2y2uiudt7n7g4dfo9bupx2ocrfkv,3jmsru9hqm7b4xwnaj8e30jae57evp,p8FBFBtB,2020-0188,2020-05-21,13:46:55,14:05:56,NA,incomplete,232,color,0,right,Blue_Star_Dots_4.jpg,Red_Star_Stripes_1.jpg,Blue_Plus_Chess_2.jpg,right,469.46999995270744,true,low,NA,NA,NA,NA,NA,NA,NA,false
p8FBFBtB,3o2y2uiudt7n7g4dfo9bupx2ocrfkv,3jmsru9hqm7b4xwnaj8e30jae57evp,p8FBFBtB,2020-0188,2020-05-21,13:46:55,14:05:56,NA,incomplete,233,color,1,right,Green_Triangle_Stripes_3.jpg,Purple_Triangle_Grid_4.jpg,Green_Star_Chess_1.jpg,right,520.0549999717623,true,low,NA,NA,NA,NA,NA,NA,NA,false
p8FBFBtB,3o2y2uiudt7n7g4dfo9bupx2ocrfkv,3jmsru9hqm7b4xwnaj8e30jae57evp,p8FBFBtB,2020-0188,2020-05-21,13:46:55,14:05:56,NA,incomplete,234,color,1,right,Red_Star_Grid_2.jpg,Blue_Star_Chess_4.jpg,Red_Circle_Stripes_1.jpg,right,477.4399999878369,true,low,NA,NA,NA,NA,NA,NA,NA,false
p8FBFBtB,3o2y2uiudt7n7g4dfo9bupx2ocrfkv,3jmsru9hqm7b4xwnaj8e30jae57evp,p8FBFBtB,2020-0188,2020-05-21,13:46:55,14:05:56,NA,incomplete,235,color,1,right,Red_Plus_Dots_3.jpg,Blue_Plus_Chess_1.jpg,Red_Triangle_Grid_2.jpg,right,546.1599999689497,true,low,NA,NA,NA,NA,NA,NA,NA,false
p8FBFBtB,3o2y2uiudt7n7g4dfo9bupx2ocrfkv,3jmsru9hqm7b4xwnaj8e30jae57evp,p8FBFBtB,2020-0188,2020-05-21,13:46:55,14:05:56,NA,incomplete,236,color,0,right,Purple_Circle_Grid_2.jpg,Blue_Circle_Stripes_3.jpg,Purple_Plus_Dots_1.jpg,right,554.3499999912456,true,low,NA,NA,NA,NA,NA,NA,NA,false
p8FBFBtB,3o2y2uiudt7n7g4dfo9bupx2ocrfkv,3jmsru9hqm7b4xwnaj8e30jae57evp,p8FBFBtB,2020-0188,2020-05-21,13:46:55,14:05:56,NA,incomplete,237,color,1,right,Red_Circle_Dots_2.jpg,Green_Circle_Stripes_1.jpg,Red_Triangle_Grid_3.jpg,right,462.0700000086799,true,low,NA,NA,NA,NA,NA,NA,NA,false
p8FBFBtB,3o2y2uiudt7n7g4dfo9bupx2ocrfkv,3jmsru9hqm7b4xwnaj8e30jae57evp,p8FBFBtB,2020-0188,2020-05-21,13:46:55,14:05:56,NA,incomplete,238,color,0,right,Red_Star_Chess_3.jpg,Purple_Star_Stripes_1.jpg,Red_Plus_Grid_4.jpg,right,460.9749999945052,true,low,NA,NA,NA,NA,NA,NA,NA,false
p8FBFBtB,3o2y2uiudt7n7g4dfo9bupx2ocrfkv,3jmsru9hqm7b4xwnaj8e30jae57evp,p8FBFBtB,2020-0188,2020-05-21,13:46:55,14:05:56,NA,incomplete,239,color,1,right,Green_Circle_Stripes_4.jpg,Red_Circle_Chess_2.jpg,Green_Plus_Dots_1.jpg,right,574.3950000032783,true,low,NA,NA,NA,NA,NA,NA,NA,false
p8FBFBtB,3o2y2uiudt7n7g4dfo9bupx2ocrfkv,3jmsru9hqm7b4xwnaj8e30jae57evp,p8FBFBtB,2020-0188,2020-05-21,13:46:55,14:05:56,NA,NA,instruction example,filling,NA,NA,Red_Circle_Chess_3.jpg,Green_Plus_Chess_2.jpg,Blue_Triangle_Grid_3.jpg,NA,NA,NA,NA,NA,NA,NA,NA,NA,NA,NA,undefined
p8FBFBtB,3o2y2uiudt7n7g4dfo9bupx2ocrfkv,3jmsru9hqm7b4xwnaj8e30jae57evp,p8FBFBtB,2020-0188,2020-05-21,13:46:55,14:05:56,NA,NA,instruction example,filling,NA,NA,Blue_Triangle_Dots_1.jpg,Purple_Plus_Chess_1.jpg,Green_Star_Dots_3.jpg,NA,NA,NA,NA,NA,NA,NA,NA,NA,NA,NA,undefined
p8FBFBtB,3o2y2uiudt7n7g4dfo9bupx2ocrfkv,3jmsru9hqm7b4xwnaj8e30jae57evp,p8FBFBtB,2020-0188,2020-05-21,13:46:55,14:05:56,NA,NA,instruction example,filling,NA,NA,Red_Triangle_Dots_4.jpg,Blue_Triangle_Stripes_3.jpg,Red_Circle_Grid_2.jpg,NA,NA,NA,NA,NA,NA,NA,NA,NA,NA,NA,undefined
p8FBFBtB,3o2y2uiudt7n7g4dfo9bupx2ocrfkv,3jmsru9hqm7b4xwnaj8e30jae57evp,p8FBFBtB,2020-0188,2020-05-21,13:46:55,14:05:56,NA,NA,instruction example,filling,NA,NA,Green_Plus_Stripes_1.jpg,Green_Star_Grid_2.jpg,Purple_Plus_Dots_3.jpg,NA,NA,NA,NA,NA,NA,NA,NA,NA,NA,NA,undefined
p8FBFBtB,3o2y2uiudt7n7g4dfo9bupx2ocrfkv,3jmsru9hqm7b4xwnaj8e30jae57evp,p8FBFBtB,2020-0188,2020-05-21,13:46:55,14:05:56,1108824.5600000373,1141572.8250000393,NA,NA,NA,NA,NA,NA,NA,NA,NA,NA,NA,39,Multiracial,Female,Filipino and Caucasian,no,yes,no,undefined
