workerId,hitId,assignmentId,subject,studyid,exp_date,exp_start,exp_end,time_start,time_end,trial,type,reward_validity,answer,image_top,image_left,image_right,response,response_time,response_acc,volatility,practice
1RgBTnjW,3lvtfb9df8vfwjy33dzq8w9nvhnqgc,3k4j6m3cxi6pwnpg5j767gqa48nga3,1RgBTnjW,2020-0188,2020-11-18,16:32:32,17:05:28,NA,incomplete,0,filling,1,left,Purple_Star_Chess_2.jpg,Red_Triangle_Chess_1.jpg,Green_Star_Dots_3.jpg,right,1654.7049996443093,false,NA,true
1RgBTnjW,3lvtfb9df8vfwjy33dzq8w9nvhnqgc,3k4j6m3cxi6pwnpg5j767gqa48nga3,1RgBTnjW,2020-0188,2020-11-18,16:32:32,17:05:28,NA,incomplete,1,filling,1,right,Green_Star_Stripes_4.jpg,Blue_Star_Grid_2.jpg,Red_Triangle_Stripes_1.jpg,right,1361.6399997845292,true,NA,true
1RgBTnjW,3lvtfb9df8vfwjy33dzq8w9nvhnqgc,3k4j6m3cxi6pwnpg5j767gqa48nga3,1RgBTnjW,2020-0188,2020-11-18,16:32:32,17:05:28,NA,incomplete,2,filling,1,right,Green_Triangle_Stripes_2.jpg,Purple_Triangle_Grid_4.jpg,Blue_Circle_Stripes_1.jpg,right,1584.6850001253188,true,NA,true
1RgBTnjW,3lvtfb9df8vfwjy33dzq8w9nvhnqgc,3k4j6m3cxi6pwnpg5j767gqa48nga3,1RgBTnjW,2020-0188,2020-11-18,16:32:32,17:05:28,NA,incomplete,3,filling,1,left,Purple_Plus_Grid_3.jpg,Blue_Triangle_Grid_2.jpg,Red_Plus_Chess_4.jpg,left,1266.509999986738,true,NA,true
1RgBTnjW,3lvtfb9df8vfwjy33dzq8w9nvhnqgc,3k4j6m3cxi6pwnpg5j767gqa48nga3,1RgBTnjW,2020-0188,2020-11-18,16:32:32,17:05:28,NA,incomplete,4,filling,0,right,Green_Star_Chess_3.jpg,Purple_Star_Grid_4.jpg,Red_Plus_Chess_2.jpg,right,1276.2800003401935,true,NA,true
1RgBTnjW,3lvtfb9df8vfwjy33dzq8w9nvhnqgc,3k4j6m3cxi6pwnpg5j767gqa48nga3,1RgBTnjW,2020-0188,2020-11-18,16:32:32,17:05:28,NA,incomplete,5,filling,1,left,Green_Star_Dots_1.jpg,Purple_Triangle_Dots_2.jpg,Blue_Star_Grid_4.jpg,left,957.2099996730685,true,NA,true
1RgBTnjW,3lvtfb9df8vfwjy33dzq8w9nvhnqgc,3k4j6m3cxi6pwnpg5j767gqa48nga3,1RgBTnjW,2020-0188,2020-11-18,16:32:32,17:05:28,NA,incomplete,6,filling,1,left,Red_Star_Grid_4.jpg,Green_Triangle_Grid_2.jpg,Purple_Star_Stripes_1.jpg,right,1668.3950000442564,false,NA,true
1RgBTnjW,3lvtfb9df8vfwjy33dzq8w9nvhnqgc,3k4j6m3cxi6pwnpg5j767gqa48nga3,1RgBTnjW,2020-0188,2020-11-18,16:32:32,17:05:28,NA,incomplete,7,filling,0,right,Blue_Triangle_Chess_2.jpg,Red_Triangle_Dots_4.jpg,Green_Plus_Chess_3.jpg,right,1345.8199999295175,true,NA,true
1RgBTnjW,3lvtfb9df8vfwjy33dzq8w9nvhnqgc,3k4j6m3cxi6pwnpg5j767gqa48nga3,1RgBTnjW,2020-0188,2020-11-18,16:32:32,17:05:28,NA,incomplete,8,filling,0,right,Purple_Plus_Dots_3.jpg,Green_Plus_Stripes_2.jpg,Blue_Triangle_Dots_4.jpg,right,1341.5549998171628,true,NA,true
1RgBTnjW,3lvtfb9df8vfwjy33dzq8w9nvhnqgc,3k4j6m3cxi6pwnpg5j767gqa48nga3,1RgBTnjW,2020-0188,2020-11-18,16:32:32,17:05:28,NA,incomplete,9,filling,1,left,Blue_Plus_Grid_2.jpg,Red_Circle_Grid_3.jpg,Green_Plus_Chess_4.jpg,left,1412.345000077039,true,NA,true
1RgBTnjW,3lvtfb9df8vfwjy33dzq8w9nvhnqgc,3k4j6m3cxi6pwnpg5j767gqa48nga3,1RgBTnjW,2020-0188,2020-11-18,16:32:32,17:05:28,NA,incomplete,10,filling,0,left,Blue_Circle_Grid_1.jpg,Purple_Plus_Grid_4.jpg,Green_Circle_Stripes_2.jpg,left,1392.6400002092123,true,NA,true
1RgBTnjW,3lvtfb9df8vfwjy33dzq8w9nvhnqgc,3k4j6m3cxi6pwnpg5j767gqa48nga3,1RgBTnjW,2020-0188,2020-11-18,16:32:32,17:05:28,NA,incomplete,11,filling,1,left,Red_Circle_Chess_3.jpg,Purple_Plus_Chess_1.jpg,Green_Circle_Stripes_2.jpg,left,1307.750000152737,true,NA,true
1RgBTnjW,3lvtfb9df8vfwjy33dzq8w9nvhnqgc,3k4j6m3cxi6pwnpg5j767gqa48nga3,1RgBTnjW,2020-0188,2020-11-18,16:32:32,17:05:28,NA,incomplete,12,filling,1,right,Green_Star_Stripes_3.jpg,Blue_Star_Chess_2.jpg,Red_Triangle_Stripes_1.jpg,right,1278.7549998611212,true,NA,true
1RgBTnjW,3lvtfb9df8vfwjy33dzq8w9nvhnqgc,3k4j6m3cxi6pwnpg5j767gqa48nga3,1RgBTnjW,2020-0188,2020-11-18,16:32:32,17:05:28,NA,incomplete,13,filling,1,left,Blue_Triangle_Dots_3.jpg,Green_Circle_Dots_2.jpg,Red_Triangle_Grid_4.jpg,left,1036.8249998427927,true,NA,true
1RgBTnjW,3lvtfb9df8vfwjy33dzq8w9nvhnqgc,3k4j6m3cxi6pwnpg5j767gqa48nga3,1RgBTnjW,2020-0188,2020-11-18,16:32:32,17:05:28,NA,incomplete,14,filling,1,left,Purple_Plus_Stripes_4.jpg,Green_Triangle_Stripes_1.jpg,Red_Plus_Chess_3.jpg,left,1257.0249997079372,true,NA,true
1RgBTnjW,3lvtfb9df8vfwjy33dzq8w9nvhnqgc,3k4j6m3cxi6pwnpg5j767gqa48nga3,1RgBTnjW,2020-0188,2020-11-18,16:32:32,17:05:28,NA,incomplete,15,filling,0,right,Blue_Star_Dots_3.jpg,Purple_Star_Grid_2.jpg,Red_Plus_Dots_1.jpg,right,1405.6200003251433,true,NA,true
1RgBTnjW,3lvtfb9df8vfwjy33dzq8w9nvhnqgc,3k4j6m3cxi6pwnpg5j767gqa48nga3,1RgBTnjW,2020-0188,2020-11-18,16:32:32,17:05:28,NA,incomplete,16,filling,0,right,Green_Plus_Grid_2.jpg,Blue_Plus_Dots_3.jpg,Purple_Triangle_Grid_1.jpg,left,1377.1699997596443,false,NA,true
1RgBTnjW,3lvtfb9df8vfwjy33dzq8w9nvhnqgc,3k4j6m3cxi6pwnpg5j767gqa48nga3,1RgBTnjW,2020-0188,2020-11-18,16:32:32,17:05:28,NA,incomplete,17,filling,1,right,Green_Circle_Dots_1.jpg,Red_Circle_Grid_4.jpg,Purple_Triangle_Dots_2.jpg,right,1288.925000000745,true,NA,true
1RgBTnjW,3lvtfb9df8vfwjy33dzq8w9nvhnqgc,3k4j6m3cxi6pwnpg5j767gqa48nga3,1RgBTnjW,2020-0188,2020-11-18,16:32:32,17:05:28,NA,incomplete,18,filling,1,right,Blue_Star_Chess_1.jpg,Red_Star_Dots_3.jpg,Green_Triangle_Chess_2.jpg,right,1317.445000167936,true,NA,true
1RgBTnjW,3lvtfb9df8vfwjy33dzq8w9nvhnqgc,3k4j6m3cxi6pwnpg5j767gqa48nga3,1RgBTnjW,2020-0188,2020-11-18,16:32:32,17:05:28,NA,incomplete,19,filling,1,left,Green_Star_Grid_4.jpg,Blue_Circle_Grid_3.jpg,Red_Star_Dots_1.jpg,left,1367.1300001442432,true,NA,true
1RgBTnjW,3lvtfb9df8vfwjy33dzq8w9nvhnqgc,3k4j6m3cxi6pwnpg5j767gqa48nga3,1RgBTnjW,2020-0188,2020-11-18,16:32:32,17:05:28,NA,incomplete,20,shape,1,left,Green_Triangle_Stripes_1.jpg,Blue_Triangle_Chess_2.jpg,Red_Star_Stripes_3.jpg,left,994.8499999009073,true,NA,true
1RgBTnjW,3lvtfb9df8vfwjy33dzq8w9nvhnqgc,3k4j6m3cxi6pwnpg5j767gqa48nga3,1RgBTnjW,2020-0188,2020-11-18,16:32:32,17:05:28,NA,incomplete,21,shape,1,left,Blue_Plus_Chess_3.jpg,Purple_Plus_Dots_1.jpg,Green_Circle_Chess_4.jpg,left,1144.7950000874698,true,NA,true
1RgBTnjW,3lvtfb9df8vfwjy33dzq8w9nvhnqgc,3k4j6m3cxi6pwnpg5j767gqa48nga3,1RgBTnjW,2020-0188,2020-11-18,16:32:32,17:05:28,NA,incomplete,22,shape,1,left,Red_Triangle_Grid_1.jpg,Blue_Triangle_Stripes_2.jpg,Purple_Plus_Grid_4.jpg,left,914.9750000797212,true,NA,true
1RgBTnjW,3lvtfb9df8vfwjy33dzq8w9nvhnqgc,3k4j6m3cxi6pwnpg5j767gqa48nga3,1RgBTnjW,2020-0188,2020-11-18,16:32:32,17:05:28,NA,incomplete,23,shape,1,left,Purple_Plus_Grid_4.jpg,Blue_Plus_Chess_3.jpg,Red_Star_Grid_1.jpg,left,903.6400001496077,true,NA,true
1RgBTnjW,3lvtfb9df8vfwjy33dzq8w9nvhnqgc,3k4j6m3cxi6pwnpg5j767gqa48nga3,1RgBTnjW,2020-0188,2020-11-18,16:32:32,17:05:28,NA,incomplete,24,shape,1,left,Blue_Plus_Dots_3.jpg,Red_Plus_Chess_1.jpg,Green_Star_Dots_2.jpg,left,971.394999884069,true,NA,true
1RgBTnjW,3lvtfb9df8vfwjy33dzq8w9nvhnqgc,3k4j6m3cxi6pwnpg5j767gqa48nga3,1RgBTnjW,2020-0188,2020-11-18,16:32:32,17:05:28,NA,incomplete,25,shape,1,left,Purple_Plus_Dots_3.jpg,Blue_Plus_Chess_2.jpg,Red_Triangle_Dots_1.jpg,left,836.3249995745718,true,NA,true
1RgBTnjW,3lvtfb9df8vfwjy33dzq8w9nvhnqgc,3k4j6m3cxi6pwnpg5j767gqa48nga3,1RgBTnjW,2020-0188,2020-11-18,16:32:32,17:05:28,NA,incomplete,26,shape,1,right,Green_Plus_Stripes_1.jpg,Blue_Triangle_Stripes_3.jpg,Red_Plus_Grid_2.jpg,right,987.9749999381602,true,NA,true
1RgBTnjW,3lvtfb9df8vfwjy33dzq8w9nvhnqgc,3k4j6m3cxi6pwnpg5j767gqa48nga3,1RgBTnjW,2020-0188,2020-11-18,16:32:32,17:05:28,NA,incomplete,27,shape,1,right,Purple_Circle_Chess_2.jpg,Green_Star_Chess_3.jpg,Blue_Circle_Stripes_4.jpg,right,869.3849998526275,true,NA,true
1RgBTnjW,3lvtfb9df8vfwjy33dzq8w9nvhnqgc,3k4j6m3cxi6pwnpg5j767gqa48nga3,1RgBTnjW,2020-0188,2020-11-18,16:32:32,17:05:28,NA,incomplete,28,shape,1,left,Red_Circle_Stripes_2.jpg,Purple_Circle_Chess_3.jpg,Blue_Triangle_Stripes_1.jpg,left,794.400000013411,true,NA,true
1RgBTnjW,3lvtfb9df8vfwjy33dzq8w9nvhnqgc,3k4j6m3cxi6pwnpg5j767gqa48nga3,1RgBTnjW,2020-0188,2020-11-18,16:32:32,17:05:28,NA,incomplete,29,shape,1,right,Green_Star_Grid_3.jpg,Red_Triangle_Grid_1.jpg,Blue_Star_Stripes_4.jpg,right,1167.0199995860457,true,NA,true
1RgBTnjW,3lvtfb9df8vfwjy33dzq8w9nvhnqgc,3k4j6m3cxi6pwnpg5j767gqa48nga3,1RgBTnjW,2020-0188,2020-11-18,16:32:32,17:05:28,NA,incomplete,30,shape,1,right,Purple_Triangle_Stripes_3.jpg,Red_Plus_Stripes_2.jpg,Blue_Triangle_Chess_4.jpg,right,877.5300001725554,true,NA,true
1RgBTnjW,3lvtfb9df8vfwjy33dzq8w9nvhnqgc,3k4j6m3cxi6pwnpg5j767gqa48nga3,1RgBTnjW,2020-0188,2020-11-18,16:32:32,17:05:28,NA,incomplete,31,shape,1,left,Blue_Star_Grid_3.jpg,Red_Star_Chess_2.jpg,Purple_Triangle_Grid_1.jpg,left,879.1299997828901,true,NA,true
1RgBTnjW,3lvtfb9df8vfwjy33dzq8w9nvhnqgc,3k4j6m3cxi6pwnpg5j767gqa48nga3,1RgBTnjW,2020-0188,2020-11-18,16:32:32,17:05:28,NA,incomplete,32,shape,0,right,Blue_Circle_Grid_1.jpg,Red_Plus_Grid_4.jpg,Purple_Circle_Stripes_3.jpg,right,808.9749999344349,true,NA,true
1RgBTnjW,3lvtfb9df8vfwjy33dzq8w9nvhnqgc,3k4j6m3cxi6pwnpg5j767gqa48nga3,1RgBTnjW,2020-0188,2020-11-18,16:32:32,17:05:28,NA,incomplete,33,shape,1,right,Green_Star_Chess_4.jpg,Purple_Plus_Chess_3.jpg,Red_Star_Dots_2.jpg,right,1327.2899999283254,true,NA,true
1RgBTnjW,3lvtfb9df8vfwjy33dzq8w9nvhnqgc,3k4j6m3cxi6pwnpg5j767gqa48nga3,1RgBTnjW,2020-0188,2020-11-18,16:32:32,17:05:28,NA,incomplete,34,shape,1,right,Purple_Star_Grid_2.jpg,Green_Plus_Grid_1.jpg,Blue_Star_Chess_4.jpg,right,1059.7049999050796,true,NA,true
1RgBTnjW,3lvtfb9df8vfwjy33dzq8w9nvhnqgc,3k4j6m3cxi6pwnpg5j767gqa48nga3,1RgBTnjW,2020-0188,2020-11-18,16:32:32,17:05:28,NA,incomplete,35,shape,1,left,Green_Circle_Stripes_1.jpg,Blue_Circle_Grid_2.jpg,Purple_Plus_Stripes_3.jpg,left,822.0199998468161,true,NA,true
1RgBTnjW,3lvtfb9df8vfwjy33dzq8w9nvhnqgc,3k4j6m3cxi6pwnpg5j767gqa48nga3,1RgBTnjW,2020-0188,2020-11-18,16:32:32,17:05:28,NA,incomplete,36,shape,0,right,Blue_Plus_Chess_2.jpg,Purple_Star_Chess_1.jpg,Green_Plus_Grid_3.jpg,right,784.7749995999038,true,NA,true
1RgBTnjW,3lvtfb9df8vfwjy33dzq8w9nvhnqgc,3k4j6m3cxi6pwnpg5j767gqa48nga3,1RgBTnjW,2020-0188,2020-11-18,16:32:32,17:05:28,NA,incomplete,37,shape,1,right,Green_Plus_Grid_3.jpg,Blue_Circle_Grid_1.jpg,Red_Plus_Chess_2.jpg,right,1465.0050001218915,true,NA,true
1RgBTnjW,3lvtfb9df8vfwjy33dzq8w9nvhnqgc,3k4j6m3cxi6pwnpg5j767gqa48nga3,1RgBTnjW,2020-0188,2020-11-18,16:32:32,17:05:28,NA,incomplete,38,shape,1,right,Red_Star_Chess_1.jpg,Purple_Triangle_Chess_3.jpg,Green_Star_Grid_4.jpg,right,1060.0449997000396,true,NA,true
1RgBTnjW,3lvtfb9df8vfwjy33dzq8w9nvhnqgc,3k4j6m3cxi6pwnpg5j767gqa48nga3,1RgBTnjW,2020-0188,2020-11-18,16:32:32,17:05:28,NA,incomplete,39,shape,1,left,Red_Star_Chess_3.jpg,Blue_Star_Stripes_2.jpg,Green_Plus_Chess_1.jpg,left,841.5500000119209,true,NA,true
1RgBTnjW,3lvtfb9df8vfwjy33dzq8w9nvhnqgc,3k4j6m3cxi6pwnpg5j767gqa48nga3,1RgBTnjW,2020-0188,2020-11-18,16:32:32,17:05:28,NA,incomplete,0,filling,1,left,Red_Star_Chess_1.jpg,Purple_Triangle_Chess_4.jpg,Blue_Star_Stripes_2.jpg,left,1830.6200001388788,true,high,false
1RgBTnjW,3lvtfb9df8vfwjy33dzq8w9nvhnqgc,3k4j6m3cxi6pwnpg5j767gqa48nga3,1RgBTnjW,2020-0188,2020-11-18,16:32:32,17:05:28,NA,incomplete,1,filling,1,left,Blue_Triangle_Grid_4.jpg,Purple_Plus_Grid_1.jpg,Red_Triangle_Dots_2.jpg,left,1725.5250001326203,true,high,false
1RgBTnjW,3lvtfb9df8vfwjy33dzq8w9nvhnqgc,3k4j6m3cxi6pwnpg5j767gqa48nga3,1RgBTnjW,2020-0188,2020-11-18,16:32:32,17:05:28,NA,incomplete,2,filling,1,left,Green_Triangle_Dots_4.jpg,Blue_Circle_Dots_1.jpg,Red_Triangle_Grid_2.jpg,left,1106.9249999709427,true,high,false
1RgBTnjW,3lvtfb9df8vfwjy33dzq8w9nvhnqgc,3k4j6m3cxi6pwnpg5j767gqa48nga3,1RgBTnjW,2020-0188,2020-11-18,16:32:32,17:05:28,NA,incomplete,3,filling,0,right,Purple_Plus_Dots_4.jpg,Red_Plus_Grid_2.jpg,Green_Triangle_Dots_3.jpg,right,1327.8149999678135,true,high,false
1RgBTnjW,3lvtfb9df8vfwjy33dzq8w9nvhnqgc,3k4j6m3cxi6pwnpg5j767gqa48nga3,1RgBTnjW,2020-0188,2020-11-18,16:32:32,17:05:28,NA,incomplete,4,filling,1,left,Red_Star_Grid_3.jpg,Blue_Triangle_Grid_1.jpg,Purple_Star_Chess_2.jpg,left,1377.369999885559,true,high,false
1RgBTnjW,3lvtfb9df8vfwjy33dzq8w9nvhnqgc,3k4j6m3cxi6pwnpg5j767gqa48nga3,1RgBTnjW,2020-0188,2020-11-18,16:32:32,17:05:28,NA,incomplete,5,filling,1,right,Green_Plus_Chess_4.jpg,Purple_Plus_Dots_3.jpg,Blue_Circle_Chess_1.jpg,right,1464.7550000809133,true,high,false
1RgBTnjW,3lvtfb9df8vfwjy33dzq8w9nvhnqgc,3k4j6m3cxi6pwnpg5j767gqa48nga3,1RgBTnjW,2020-0188,2020-11-18,16:32:32,17:05:28,NA,incomplete,6,filling,1,right,Green_Plus_Stripes_4.jpg,Purple_Plus_Dots_3.jpg,Red_Triangle_Stripes_1.jpg,right,1292.1649999916553,true,high,false
1RgBTnjW,3lvtfb9df8vfwjy33dzq8w9nvhnqgc,3k4j6m3cxi6pwnpg5j767gqa48nga3,1RgBTnjW,2020-0188,2020-11-18,16:32:32,17:05:28,NA,incomplete,7,filling,0,right,Green_Triangle_Grid_1.jpg,Blue_Triangle_Dots_4.jpg,Red_Star_Grid_3.jpg,right,1345.8500001579523,true,high,false
1RgBTnjW,3lvtfb9df8vfwjy33dzq8w9nvhnqgc,3k4j6m3cxi6pwnpg5j767gqa48nga3,1RgBTnjW,2020-0188,2020-11-18,16:32:32,17:05:28,NA,incomplete,8,filling,0,left,Purple_Plus_Chess_2.jpg,Red_Triangle_Chess_3.jpg,Blue_Plus_Grid_4.jpg,left,1426.485000178218,true,high,false
1RgBTnjW,3lvtfb9df8vfwjy33dzq8w9nvhnqgc,3k4j6m3cxi6pwnpg5j767gqa48nga3,1RgBTnjW,2020-0188,2020-11-18,16:32:32,17:05:28,NA,incomplete,9,filling,1,left,Purple_Triangle_Dots_2.jpg,Blue_Plus_Dots_3.jpg,Red_Triangle_Grid_1.jpg,left,1160.8450002968311,true,high,false
1RgBTnjW,3lvtfb9df8vfwjy33dzq8w9nvhnqgc,3k4j6m3cxi6pwnpg5j767gqa48nga3,1RgBTnjW,2020-0188,2020-11-18,16:32:32,17:05:28,NA,incomplete,10,shape,1,right,Red_Triangle_Chess_1.jpg,Blue_Star_Chess_2.jpg,Green_Triangle_Grid_3.jpg,left,1269.1399999894202,false,high,false
1RgBTnjW,3lvtfb9df8vfwjy33dzq8w9nvhnqgc,3k4j6m3cxi6pwnpg5j767gqa48nga3,1RgBTnjW,2020-0188,2020-11-18,16:32:32,17:05:28,NA,incomplete,11,shape,1,left,Blue_Plus_Chess_4.jpg,Red_Plus_Grid_2.jpg,Green_Star_Chess_1.jpg,right,1426.7750000581145,false,high,false
1RgBTnjW,3lvtfb9df8vfwjy33dzq8w9nvhnqgc,3k4j6m3cxi6pwnpg5j767gqa48nga3,1RgBTnjW,2020-0188,2020-11-18,16:32:32,17:05:28,NA,incomplete,12,shape,0,left,Green_Circle_Stripes_3.jpg,Blue_Circle_Chess_2.jpg,Purple_Plus_Stripes_4.jpg,right,1680.085000116378,false,high,false
1RgBTnjW,3lvtfb9df8vfwjy33dzq8w9nvhnqgc,3k4j6m3cxi6pwnpg5j767gqa48nga3,1RgBTnjW,2020-0188,2020-11-18,16:32:32,17:05:28,NA,incomplete,13,shape,0,left,Purple_Plus_Chess_4.jpg,Green_Plus_Dots_1.jpg,Red_Star_Chess_2.jpg,right,1440.5050002969801,false,high,false
1RgBTnjW,3lvtfb9df8vfwjy33dzq8w9nvhnqgc,3k4j6m3cxi6pwnpg5j767gqa48nga3,1RgBTnjW,2020-0188,2020-11-18,16:32:32,17:05:28,NA,incomplete,14,shape,0,left,Purple_Triangle_Chess_1.jpg,Green_Triangle_Dots_4.jpg,Blue_Star_Chess_3.jpg,right,1244.8300002142787,false,high,false
1RgBTnjW,3lvtfb9df8vfwjy33dzq8w9nvhnqgc,3k4j6m3cxi6pwnpg5j767gqa48nga3,1RgBTnjW,2020-0188,2020-11-18,16:32:32,17:05:28,NA,incomplete,15,shape,0,left,Blue_Plus_Chess_3.jpg,Purple_Plus_Dots_4.jpg,Green_Triangle_Chess_2.jpg,right,1430.7699999772012,false,high,false
1RgBTnjW,3lvtfb9df8vfwjy33dzq8w9nvhnqgc,3k4j6m3cxi6pwnpg5j767gqa48nga3,1RgBTnjW,2020-0188,2020-11-18,16:32:32,17:05:28,NA,incomplete,16,shape,1,left,Blue_Triangle_Dots_2.jpg,Green_Triangle_Grid_3.jpg,Red_Circle_Dots_4.jpg,right,1075.6800002418458,false,high,false
1RgBTnjW,3lvtfb9df8vfwjy33dzq8w9nvhnqgc,3k4j6m3cxi6pwnpg5j767gqa48nga3,1RgBTnjW,2020-0188,2020-11-18,16:32:32,17:05:28,NA,incomplete,17,shape,1,left,Green_Circle_Dots_3.jpg,Blue_Circle_Chess_1.jpg,Red_Star_Dots_4.jpg,right,1339.8949997499585,false,high,false
1RgBTnjW,3lvtfb9df8vfwjy33dzq8w9nvhnqgc,3k4j6m3cxi6pwnpg5j767gqa48nga3,1RgBTnjW,2020-0188,2020-11-18,16:32:32,17:05:28,NA,incomplete,18,shape,1,left,Purple_Star_Stripes_3.jpg,Red_Star_Dots_1.jpg,Blue_Circle_Stripes_4.jpg,right,1312.9950002767146,false,high,false
1RgBTnjW,3lvtfb9df8vfwjy33dzq8w9nvhnqgc,3k4j6m3cxi6pwnpg5j767gqa48nga3,1RgBTnjW,2020-0188,2020-11-18,16:32:32,17:05:28,NA,incomplete,19,shape,0,left,Purple_Star_Dots_2.jpg,Red_Star_Chess_1.jpg,Blue_Triangle_Dots_4.jpg,left,1044.9950001202524,true,high,false
1RgBTnjW,3lvtfb9df8vfwjy33dzq8w9nvhnqgc,3k4j6m3cxi6pwnpg5j767gqa48nga3,1RgBTnjW,2020-0188,2020-11-18,16:32:32,17:05:28,NA,incomplete,20,filling,1,left,Blue_Plus_Chess_2.jpg,Green_Triangle_Chess_3.jpg,Purple_Plus_Grid_1.jpg,right,1127.5050002150238,false,high,false
1RgBTnjW,3lvtfb9df8vfwjy33dzq8w9nvhnqgc,3k4j6m3cxi6pwnpg5j767gqa48nga3,1RgBTnjW,2020-0188,2020-11-18,16:32:32,17:05:28,NA,incomplete,21,filling,1,left,Purple_Circle_Grid_4.jpg,Green_Triangle_Grid_3.jpg,Red_Circle_Stripes_1.jpg,left,1468.8400002196431,true,high,false
1RgBTnjW,3lvtfb9df8vfwjy33dzq8w9nvhnqgc,3k4j6m3cxi6pwnpg5j767gqa48nga3,1RgBTnjW,2020-0188,2020-11-18,16:32:32,17:05:28,NA,incomplete,22,filling,1,right,Green_Plus_Chess_2.jpg,Red_Plus_Stripes_3.jpg,Blue_Star_Chess_1.jpg,right,1343.1549998931587,true,high,false
1RgBTnjW,3lvtfb9df8vfwjy33dzq8w9nvhnqgc,3k4j6m3cxi6pwnpg5j767gqa48nga3,1RgBTnjW,2020-0188,2020-11-18,16:32:32,17:05:28,NA,incomplete,23,filling,1,left,Red_Circle_Grid_3.jpg,Blue_Triangle_Grid_1.jpg,Purple_Circle_Chess_2.jpg,left,1140.5600002035499,true,high,false
1RgBTnjW,3lvtfb9df8vfwjy33dzq8w9nvhnqgc,3k4j6m3cxi6pwnpg5j767gqa48nga3,1RgBTnjW,2020-0188,2020-11-18,16:32:32,17:05:28,NA,incomplete,24,filling,1,left,Red_Plus_Stripes_3.jpg,Purple_Circle_Stripes_2.jpg,Blue_Plus_Dots_1.jpg,left,1488.8849998824298,true,high,false
1RgBTnjW,3lvtfb9df8vfwjy33dzq8w9nvhnqgc,3k4j6m3cxi6pwnpg5j767gqa48nga3,1RgBTnjW,2020-0188,2020-11-18,16:32:32,17:05:28,NA,incomplete,25,filling,1,right,Green_Plus_Chess_3.jpg,Blue_Plus_Stripes_4.jpg,Red_Triangle_Chess_2.jpg,right,1321.8749999068677,true,high,false
1RgBTnjW,3lvtfb9df8vfwjy33dzq8w9nvhnqgc,3k4j6m3cxi6pwnpg5j767gqa48nga3,1RgBTnjW,2020-0188,2020-11-18,16:32:32,17:05:28,NA,incomplete,26,filling,0,right,Red_Plus_Chess_2.jpg,Green_Plus_Stripes_4.jpg,Blue_Triangle_Chess_1.jpg,right,1306.3749996945262,true,high,false
1RgBTnjW,3lvtfb9df8vfwjy33dzq8w9nvhnqgc,3k4j6m3cxi6pwnpg5j767gqa48nga3,1RgBTnjW,2020-0188,2020-11-18,16:32:32,17:05:28,NA,incomplete,27,filling,1,right,Purple_Plus_Dots_2.jpg,Green_Plus_Grid_1.jpg,Red_Triangle_Dots_3.jpg,right,1556.3950003124774,true,high,false
1RgBTnjW,3lvtfb9df8vfwjy33dzq8w9nvhnqgc,3k4j6m3cxi6pwnpg5j767gqa48nga3,1RgBTnjW,2020-0188,2020-11-18,16:32:32,17:05:28,NA,incomplete,28,filling,1,right,Green_Plus_Grid_4.jpg,Blue_Plus_Dots_2.jpg,Red_Triangle_Grid_3.jpg,right,1515.3250000439584,true,high,false
1RgBTnjW,3lvtfb9df8vfwjy33dzq8w9nvhnqgc,3k4j6m3cxi6pwnpg5j767gqa48nga3,1RgBTnjW,2020-0188,2020-11-18,16:32:32,17:05:28,NA,incomplete,29,filling,0,right,Green_Plus_Dots_1.jpg,Red_Plus_Grid_4.jpg,Blue_Circle_Dots_3.jpg,right,1248.1350000016391,true,high,false
1RgBTnjW,3lvtfb9df8vfwjy33dzq8w9nvhnqgc,3k4j6m3cxi6pwnpg5j767gqa48nga3,1RgBTnjW,2020-0188,2020-11-18,16:32:32,17:05:28,NA,incomplete,30,shape,1,left,Green_Circle_Dots_4.jpg,Purple_Circle_Grid_2.jpg,Blue_Plus_Dots_3.jpg,right,1483.1650000996888,false,high,false
1RgBTnjW,3lvtfb9df8vfwjy33dzq8w9nvhnqgc,3k4j6m3cxi6pwnpg5j767gqa48nga3,1RgBTnjW,2020-0188,2020-11-18,16:32:32,17:05:28,NA,incomplete,31,shape,1,left,Green_Plus_Stripes_4.jpg,Blue_Plus_Dots_2.jpg,Red_Triangle_Stripes_1.jpg,left,1295.8850003778934,true,high,false
1RgBTnjW,3lvtfb9df8vfwjy33dzq8w9nvhnqgc,3k4j6m3cxi6pwnpg5j767gqa48nga3,1RgBTnjW,2020-0188,2020-11-18,16:32:32,17:05:28,NA,incomplete,32,shape,1,left,Red_Plus_Dots_4.jpg,Green_Plus_Chess_3.jpg,Blue_Star_Dots_2.jpg,left,837.3500001616776,true,high,false
1RgBTnjW,3lvtfb9df8vfwjy33dzq8w9nvhnqgc,3k4j6m3cxi6pwnpg5j767gqa48nga3,1RgBTnjW,2020-0188,2020-11-18,16:32:32,17:05:28,NA,incomplete,33,shape,0,right,Green_Circle_Grid_2.jpg,Purple_Triangle_Grid_4.jpg,Red_Circle_Stripes_1.jpg,right,734.1499999165535,true,high,false
1RgBTnjW,3lvtfb9df8vfwjy33dzq8w9nvhnqgc,3k4j6m3cxi6pwnpg5j767gqa48nga3,1RgBTnjW,2020-0188,2020-11-18,16:32:32,17:05:28,NA,incomplete,34,shape,1,right,Red_Plus_Dots_1.jpg,Purple_Star_Dots_4.jpg,Blue_Plus_Chess_3.jpg,left,1747.5749999284744,false,high,false
1RgBTnjW,3lvtfb9df8vfwjy33dzq8w9nvhnqgc,3k4j6m3cxi6pwnpg5j767gqa48nga3,1RgBTnjW,2020-0188,2020-11-18,16:32:32,17:05:28,NA,incomplete,35,shape,1,right,Green_Star_Stripes_1.jpg,Purple_Circle_Stripes_2.jpg,Blue_Star_Grid_3.jpg,right,1163.2699999026954,true,high,false
1RgBTnjW,3lvtfb9df8vfwjy33dzq8w9nvhnqgc,3k4j6m3cxi6pwnpg5j767gqa48nga3,1RgBTnjW,2020-0188,2020-11-18,16:32:32,17:05:28,NA,incomplete,36,shape,1,right,Blue_Circle_Dots_4.jpg,Purple_Plus_Dots_3.jpg,Green_Circle_Stripes_2.jpg,right,1202.4600002914667,true,high,false
1RgBTnjW,3lvtfb9df8vfwjy33dzq8w9nvhnqgc,3k4j6m3cxi6pwnpg5j767gqa48nga3,1RgBTnjW,2020-0188,2020-11-18,16:32:32,17:05:28,NA,incomplete,37,shape,1,right,Purple_Circle_Grid_3.jpg,Blue_Star_Grid_1.jpg,Red_Circle_Dots_4.jpg,right,976.4499999582767,true,high,false
1RgBTnjW,3lvtfb9df8vfwjy33dzq8w9nvhnqgc,3k4j6m3cxi6pwnpg5j767gqa48nga3,1RgBTnjW,2020-0188,2020-11-18,16:32:32,17:05:28,NA,incomplete,38,shape,1,left,Purple_Triangle_Stripes_2.jpg,Green_Triangle_Grid_4.jpg,Red_Plus_Stripes_3.jpg,left,965.4349996708333,true,high,false
1RgBTnjW,3lvtfb9df8vfwjy33dzq8w9nvhnqgc,3k4j6m3cxi6pwnpg5j767gqa48nga3,1RgBTnjW,2020-0188,2020-11-18,16:32:32,17:05:28,NA,incomplete,39,shape,1,right,Red_Circle_Dots_2.jpg,Green_Star_Dots_1.jpg,Blue_Circle_Grid_4.jpg,right,727.7949997223914,true,high,false
1RgBTnjW,3lvtfb9df8vfwjy33dzq8w9nvhnqgc,3k4j6m3cxi6pwnpg5j767gqa48nga3,1RgBTnjW,2020-0188,2020-11-18,16:32:32,17:05:28,NA,incomplete,40,filling,0,left,Blue_Plus_Chess_1.jpg,Green_Star_Chess_3.jpg,Red_Plus_Dots_4.jpg,right,896.7199996113777,false,high,false
1RgBTnjW,3lvtfb9df8vfwjy33dzq8w9nvhnqgc,3k4j6m3cxi6pwnpg5j767gqa48nga3,1RgBTnjW,2020-0188,2020-11-18,16:32:32,17:05:28,NA,incomplete,41,filling,1,right,Green_Circle_Stripes_3.jpg,Red_Circle_Grid_1.jpg,Purple_Plus_Stripes_4.jpg,left,935.8649998903275,false,high,false
1RgBTnjW,3lvtfb9df8vfwjy33dzq8w9nvhnqgc,3k4j6m3cxi6pwnpg5j767gqa48nga3,1RgBTnjW,2020-0188,2020-11-18,16:32:32,17:05:28,NA,incomplete,42,filling,1,right,Red_Star_Grid_4.jpg,Blue_Star_Dots_2.jpg,Green_Circle_Grid_3.jpg,left,1225.2400000579655,false,high,false
1RgBTnjW,3lvtfb9df8vfwjy33dzq8w9nvhnqgc,3k4j6m3cxi6pwnpg5j767gqa48nga3,1RgBTnjW,2020-0188,2020-11-18,16:32:32,17:05:28,NA,incomplete,43,filling,1,left,Blue_Triangle_Dots_1.jpg,Green_Plus_Dots_2.jpg,Purple_Triangle_Chess_4.jpg,left,1285.2699998766184,true,high,false
1RgBTnjW,3lvtfb9df8vfwjy33dzq8w9nvhnqgc,3k4j6m3cxi6pwnpg5j767gqa48nga3,1RgBTnjW,2020-0188,2020-11-18,16:32:32,17:05:28,NA,incomplete,44,filling,1,left,Blue_Plus_Chess_4.jpg,Green_Star_Chess_2.jpg,Purple_Plus_Dots_1.jpg,left,1296.8350001610816,true,high,false
1RgBTnjW,3lvtfb9df8vfwjy33dzq8w9nvhnqgc,3k4j6m3cxi6pwnpg5j767gqa48nga3,1RgBTnjW,2020-0188,2020-11-18,16:32:32,17:05:28,NA,incomplete,45,filling,1,left,Purple_Plus_Dots_3.jpg,Green_Star_Dots_2.jpg,Blue_Plus_Stripes_4.jpg,left,1173.3650001697242,true,high,false
1RgBTnjW,3lvtfb9df8vfwjy33dzq8w9nvhnqgc,3k4j6m3cxi6pwnpg5j767gqa48nga3,1RgBTnjW,2020-0188,2020-11-18,16:32:32,17:05:28,NA,incomplete,46,filling,1,left,Green_Star_Stripes_2.jpg,Purple_Circle_Stripes_1.jpg,Blue_Star_Grid_3.jpg,left,1867.2499996609986,true,high,false
1RgBTnjW,3lvtfb9df8vfwjy33dzq8w9nvhnqgc,3k4j6m3cxi6pwnpg5j767gqa48nga3,1RgBTnjW,2020-0188,2020-11-18,16:32:32,17:05:28,NA,incomplete,47,filling,1,right,Red_Star_Grid_2.jpg,Blue_Star_Stripes_1.jpg,Green_Triangle_Grid_3.jpg,right,1635.6900003738701,true,high,false
1RgBTnjW,3lvtfb9df8vfwjy33dzq8w9nvhnqgc,3k4j6m3cxi6pwnpg5j767gqa48nga3,1RgBTnjW,2020-0188,2020-11-18,16:32:32,17:05:28,NA,incomplete,48,filling,1,left,Green_Plus_Grid_4.jpg,Purple_Star_Grid_1.jpg,Blue_Plus_Chess_3.jpg,left,1401.4400001615286,true,high,false
1RgBTnjW,3lvtfb9df8vfwjy33dzq8w9nvhnqgc,3k4j6m3cxi6pwnpg5j767gqa48nga3,1RgBTnjW,2020-0188,2020-11-18,16:32:32,17:05:28,NA,incomplete,49,filling,1,left,Red_Star_Dots_3.jpg,Purple_Triangle_Dots_4.jpg,Green_Star_Stripes_2.jpg,left,1246.809999924153,true,high,false
1RgBTnjW,3lvtfb9df8vfwjy33dzq8w9nvhnqgc,3k4j6m3cxi6pwnpg5j767gqa48nga3,1RgBTnjW,2020-0188,2020-11-18,16:32:32,17:05:28,NA,incomplete,50,shape,1,right,Red_Star_Chess_1.jpg,Green_Circle_Chess_2.jpg,Blue_Star_Stripes_3.jpg,left,1238.4350001811981,false,high,false
1RgBTnjW,3lvtfb9df8vfwjy33dzq8w9nvhnqgc,3k4j6m3cxi6pwnpg5j767gqa48nga3,1RgBTnjW,2020-0188,2020-11-18,16:32:32,17:05:28,NA,incomplete,51,shape,0,left,Blue_Star_Dots_2.jpg,Red_Star_Chess_3.jpg,Purple_Triangle_Dots_1.jpg,left,1267.8800001740456,true,high,false
1RgBTnjW,3lvtfb9df8vfwjy33dzq8w9nvhnqgc,3k4j6m3cxi6pwnpg5j767gqa48nga3,1RgBTnjW,2020-0188,2020-11-18,16:32:32,17:05:28,NA,incomplete,52,shape,1,right,Blue_Circle_Dots_3.jpg,Red_Plus_Dots_2.jpg,Purple_Circle_Grid_4.jpg,left,1358.0899997614324,false,high,false
1RgBTnjW,3lvtfb9df8vfwjy33dzq8w9nvhnqgc,3k4j6m3cxi6pwnpg5j767gqa48nga3,1RgBTnjW,2020-0188,2020-11-18,16:32:32,17:05:28,NA,incomplete,53,shape,1,right,Blue_Plus_Chess_4.jpg,Red_Triangle_Chess_3.jpg,Purple_Plus_Stripes_2.jpg,right,1016.414999961853,true,high,false
1RgBTnjW,3lvtfb9df8vfwjy33dzq8w9nvhnqgc,3k4j6m3cxi6pwnpg5j767gqa48nga3,1RgBTnjW,2020-0188,2020-11-18,16:32:32,17:05:28,NA,incomplete,54,shape,1,right,Green_Triangle_Dots_3.jpg,Red_Plus_Dots_2.jpg,Blue_Triangle_Chess_1.jpg,right,1174.9649997800589,true,high,false
1RgBTnjW,3lvtfb9df8vfwjy33dzq8w9nvhnqgc,3k4j6m3cxi6pwnpg5j767gqa48nga3,1RgBTnjW,2020-0188,2020-11-18,16:32:32,17:05:28,NA,incomplete,55,shape,1,left,Green_Star_Stripes_4.jpg,Purple_Star_Chess_2.jpg,Blue_Triangle_Stripes_3.jpg,left,740.4749998822808,true,high,false
1RgBTnjW,3lvtfb9df8vfwjy33dzq8w9nvhnqgc,3k4j6m3cxi6pwnpg5j767gqa48nga3,1RgBTnjW,2020-0188,2020-11-18,16:32:32,17:05:28,NA,incomplete,56,shape,1,left,Purple_Circle_Grid_3.jpg,Green_Circle_Stripes_4.jpg,Blue_Triangle_Grid_2.jpg,left,862.9250000230968,true,high,false
1RgBTnjW,3lvtfb9df8vfwjy33dzq8w9nvhnqgc,3k4j6m3cxi6pwnpg5j767gqa48nga3,1RgBTnjW,2020-0188,2020-11-18,16:32:32,17:05:28,NA,incomplete,57,shape,1,right,Purple_Plus_Chess_3.jpg,Red_Circle_Chess_1.jpg,Green_Plus_Stripes_2.jpg,right,806.8050001747906,true,high,false
1RgBTnjW,3lvtfb9df8vfwjy33dzq8w9nvhnqgc,3k4j6m3cxi6pwnpg5j767gqa48nga3,1RgBTnjW,2020-0188,2020-11-18,16:32:32,17:05:28,NA,incomplete,58,shape,1,left,Blue_Plus_Stripes_3.jpg,Red_Plus_Grid_4.jpg,Purple_Triangle_Stripes_2.jpg,left,910.4649997316301,true,high,false
1RgBTnjW,3lvtfb9df8vfwjy33dzq8w9nvhnqgc,3k4j6m3cxi6pwnpg5j767gqa48nga3,1RgBTnjW,2020-0188,2020-11-18,16:32:32,17:05:28,NA,incomplete,59,shape,1,right,Purple_Plus_Grid_2.jpg,Green_Triangle_Grid_4.jpg,Red_Plus_Dots_1.jpg,right,859.3649999238551,true,high,false
1RgBTnjW,3lvtfb9df8vfwjy33dzq8w9nvhnqgc,3k4j6m3cxi6pwnpg5j767gqa48nga3,1RgBTnjW,2020-0188,2020-11-18,16:32:32,17:05:28,NA,incomplete,60,filling,1,left,Purple_Circle_Chess_2.jpg,Blue_Plus_Chess_1.jpg,Red_Circle_Dots_4.jpg,right,706.4600000157952,false,high,false
1RgBTnjW,3lvtfb9df8vfwjy33dzq8w9nvhnqgc,3k4j6m3cxi6pwnpg5j767gqa48nga3,1RgBTnjW,2020-0188,2020-11-18,16:32:32,17:05:28,NA,incomplete,61,filling,1,left,Green_Plus_Grid_3.jpg,Purple_Star_Grid_4.jpg,Blue_Plus_Dots_1.jpg,left,1488.9749996364117,true,high,false
1RgBTnjW,3lvtfb9df8vfwjy33dzq8w9nvhnqgc,3k4j6m3cxi6pwnpg5j767gqa48nga3,1RgBTnjW,2020-0188,2020-11-18,16:32:32,17:05:28,NA,incomplete,62,filling,1,right,Green_Plus_Stripes_1.jpg,Blue_Plus_Chess_4.jpg,Purple_Star_Stripes_3.jpg,right,1335.0999997928739,true,high,false
1RgBTnjW,3lvtfb9df8vfwjy33dzq8w9nvhnqgc,3k4j6m3cxi6pwnpg5j767gqa48nga3,1RgBTnjW,2020-0188,2020-11-18,16:32:32,17:05:28,NA,incomplete,63,filling,1,right,Red_Star_Stripes_2.jpg,Green_Star_Grid_1.jpg,Purple_Plus_Stripes_3.jpg,left,1407.5050000101328,false,high,false
1RgBTnjW,3lvtfb9df8vfwjy33dzq8w9nvhnqgc,3k4j6m3cxi6pwnpg5j767gqa48nga3,1RgBTnjW,2020-0188,2020-11-18,16:32:32,17:05:28,NA,incomplete,64,filling,1,left,Red_Circle_Grid_1.jpg,Green_Triangle_Grid_4.jpg,Purple_Circle_Chess_2.jpg,left,1658.264999743551,true,high,false
1RgBTnjW,3lvtfb9df8vfwjy33dzq8w9nvhnqgc,3k4j6m3cxi6pwnpg5j767gqa48nga3,1RgBTnjW,2020-0188,2020-11-18,16:32:32,17:05:28,NA,incomplete,65,filling,0,right,Green_Triangle_Stripes_3.jpg,Red_Triangle_Grid_4.jpg,Purple_Star_Stripes_2.jpg,left,1477.3900001309812,false,high,false
1RgBTnjW,3lvtfb9df8vfwjy33dzq8w9nvhnqgc,3k4j6m3cxi6pwnpg5j767gqa48nga3,1RgBTnjW,2020-0188,2020-11-18,16:32:32,17:05:28,NA,incomplete,66,filling,1,right,Blue_Plus_Chess_4.jpg,Red_Plus_Dots_2.jpg,Purple_Star_Chess_3.jpg,right,1338.259999640286,true,high,false
1RgBTnjW,3lvtfb9df8vfwjy33dzq8w9nvhnqgc,3k4j6m3cxi6pwnpg5j767gqa48nga3,1RgBTnjW,2020-0188,2020-11-18,16:32:32,17:05:28,NA,incomplete,67,filling,1,left,Blue_Plus_Chess_1.jpg,Red_Star_Chess_4.jpg,Green_Plus_Grid_2.jpg,left,1513.1950001232326,true,high,false
1RgBTnjW,3lvtfb9df8vfwjy33dzq8w9nvhnqgc,3k4j6m3cxi6pwnpg5j767gqa48nga3,1RgBTnjW,2020-0188,2020-11-18,16:32:32,17:05:28,NA,incomplete,68,filling,1,left,Red_Star_Dots_4.jpg,Green_Plus_Dots_1.jpg,Purple_Star_Grid_3.jpg,left,1547.410000115633,true,high,false
1RgBTnjW,3lvtfb9df8vfwjy33dzq8w9nvhnqgc,3k4j6m3cxi6pwnpg5j767gqa48nga3,1RgBTnjW,2020-0188,2020-11-18,16:32:32,17:05:28,NA,incomplete,69,filling,0,right,Blue_Plus_Dots_2.jpg,Red_Plus_Stripes_3.jpg,Purple_Triangle_Dots_1.jpg,right,1194.554999936372,true,high,false
1RgBTnjW,3lvtfb9df8vfwjy33dzq8w9nvhnqgc,3k4j6m3cxi6pwnpg5j767gqa48nga3,1RgBTnjW,2020-0188,2020-11-18,16:32:32,17:05:28,NA,incomplete,70,shape,1,left,Purple_Plus_Dots_1.jpg,Blue_Plus_Chess_4.jpg,Red_Star_Dots_3.jpg,left,850.7449999451637,true,high,false
1RgBTnjW,3lvtfb9df8vfwjy33dzq8w9nvhnqgc,3k4j6m3cxi6pwnpg5j767gqa48nga3,1RgBTnjW,2020-0188,2020-11-18,16:32:32,17:05:28,NA,incomplete,71,shape,1,right,Purple_Star_Dots_1.jpg,Blue_Plus_Dots_4.jpg,Red_Star_Stripes_3.jpg,right,982.5949999503791,true,high,false
1RgBTnjW,3lvtfb9df8vfwjy33dzq8w9nvhnqgc,3k4j6m3cxi6pwnpg5j767gqa48nga3,1RgBTnjW,2020-0188,2020-11-18,16:32:32,17:05:28,NA,incomplete,72,shape,1,left,Red_Circle_Dots_4.jpg,Green_Circle_Chess_3.jpg,Purple_Plus_Dots_2.jpg,left,817.9549998603761,true,high,false
1RgBTnjW,3lvtfb9df8vfwjy33dzq8w9nvhnqgc,3k4j6m3cxi6pwnpg5j767gqa48nga3,1RgBTnjW,2020-0188,2020-11-18,16:32:32,17:05:28,NA,incomplete,73,shape,0,left,Purple_Star_Chess_1.jpg,Green_Star_Grid_4.jpg,Red_Circle_Chess_2.jpg,left,856.00999975577,true,high,false
1RgBTnjW,3lvtfb9df8vfwjy33dzq8w9nvhnqgc,3k4j6m3cxi6pwnpg5j767gqa48nga3,1RgBTnjW,2020-0188,2020-11-18,16:32:32,17:05:28,NA,incomplete,74,shape,1,left,Red_Circle_Dots_4.jpg,Purple_Circle_Stripes_2.jpg,Blue_Triangle_Dots_1.jpg,right,954.6599998138845,false,high,false
1RgBTnjW,3lvtfb9df8vfwjy33dzq8w9nvhnqgc,3k4j6m3cxi6pwnpg5j767gqa48nga3,1RgBTnjW,2020-0188,2020-11-18,16:32:32,17:05:28,NA,incomplete,75,shape,1,right,Red_Circle_Stripes_3.jpg,Green_Star_Stripes_4.jpg,Blue_Circle_Dots_1.jpg,left,1302.8049999848008,false,high,false
1RgBTnjW,3lvtfb9df8vfwjy33dzq8w9nvhnqgc,3k4j6m3cxi6pwnpg5j767gqa48nga3,1RgBTnjW,2020-0188,2020-11-18,16:32:32,17:05:28,NA,incomplete,76,shape,1,left,Red_Triangle_Chess_3.jpg,Green_Triangle_Grid_4.jpg,Purple_Star_Chess_2.jpg,left,880.3750001825392,true,high,false
1RgBTnjW,3lvtfb9df8vfwjy33dzq8w9nvhnqgc,3k4j6m3cxi6pwnpg5j767gqa48nga3,1RgBTnjW,2020-0188,2020-11-18,16:32:32,17:05:28,NA,incomplete,77,shape,1,left,Red_Plus_Grid_4.jpg,Blue_Plus_Dots_2.jpg,Purple_Triangle_Grid_3.jpg,left,856.7550000734627,true,high,false
1RgBTnjW,3lvtfb9df8vfwjy33dzq8w9nvhnqgc,3k4j6m3cxi6pwnpg5j767gqa48nga3,1RgBTnjW,2020-0188,2020-11-18,16:32:32,17:05:28,NA,incomplete,78,shape,1,left,Green_Triangle_Grid_4.jpg,Purple_Triangle_Chess_2.jpg,Blue_Star_Grid_1.jpg,left,633.5450001060963,true,high,false
1RgBTnjW,3lvtfb9df8vfwjy33dzq8w9nvhnqgc,3k4j6m3cxi6pwnpg5j767gqa48nga3,1RgBTnjW,2020-0188,2020-11-18,16:32:32,17:05:28,NA,incomplete,79,shape,1,right,Blue_Circle_Dots_4.jpg,Purple_Triangle_Dots_2.jpg,Green_Circle_Stripes_1.jpg,right,787.149999756366,true,high,false
1RgBTnjW,3lvtfb9df8vfwjy33dzq8w9nvhnqgc,3k4j6m3cxi6pwnpg5j767gqa48nga3,1RgBTnjW,2020-0188,2020-11-18,16:32:32,17:05:28,NA,incomplete,80,filling,0,left,Green_Plus_Grid_3.jpg,Blue_Circle_Grid_2.jpg,Red_Plus_Chess_1.jpg,right,950.0199998728931,false,high,false
1RgBTnjW,3lvtfb9df8vfwjy33dzq8w9nvhnqgc,3k4j6m3cxi6pwnpg5j767gqa48nga3,1RgBTnjW,2020-0188,2020-11-18,16:32:32,17:05:28,NA,incomplete,81,filling,1,right,Red_Star_Grid_4.jpg,Purple_Star_Chess_2.jpg,Green_Triangle_Grid_1.jpg,left,628.6549996584654,false,high,false
1RgBTnjW,3lvtfb9df8vfwjy33dzq8w9nvhnqgc,3k4j6m3cxi6pwnpg5j767gqa48nga3,1RgBTnjW,2020-0188,2020-11-18,16:32:32,17:05:28,NA,incomplete,82,filling,1,right,Purple_Triangle_Dots_1.jpg,Blue_Triangle_Grid_2.jpg,Red_Plus_Dots_3.jpg,left,879.1749998927116,false,high,false
1RgBTnjW,3lvtfb9df8vfwjy33dzq8w9nvhnqgc,3k4j6m3cxi6pwnpg5j767gqa48nga3,1RgBTnjW,2020-0188,2020-11-18,16:32:32,17:05:28,NA,incomplete,83,filling,0,right,Red_Circle_Grid_1.jpg,Green_Circle_Chess_2.jpg,Purple_Star_Grid_3.jpg,right,1209.8650000989437,true,high,false
1RgBTnjW,3lvtfb9df8vfwjy33dzq8w9nvhnqgc,3k4j6m3cxi6pwnpg5j767gqa48nga3,1RgBTnjW,2020-0188,2020-11-18,16:32:32,17:05:28,NA,incomplete,84,filling,1,left,Green_Plus_Stripes_1.jpg,Purple_Circle_Stripes_2.jpg,Blue_Plus_Dots_3.jpg,left,1491.6550000198185,true,high,false
1RgBTnjW,3lvtfb9df8vfwjy33dzq8w9nvhnqgc,3k4j6m3cxi6pwnpg5j767gqa48nga3,1RgBTnjW,2020-0188,2020-11-18,16:32:32,17:05:28,NA,incomplete,85,filling,1,right,Red_Triangle_Grid_3.jpg,Blue_Triangle_Stripes_1.jpg,Purple_Star_Grid_2.jpg,right,1525.1050000078976,true,high,false
1RgBTnjW,3lvtfb9df8vfwjy33dzq8w9nvhnqgc,3k4j6m3cxi6pwnpg5j767gqa48nga3,1RgBTnjW,2020-0188,2020-11-18,16:32:32,17:05:28,NA,incomplete,86,filling,1,left,Blue_Triangle_Stripes_4.jpg,Red_Circle_Stripes_2.jpg,Green_Triangle_Dots_1.jpg,left,1017.5950000993907,true,high,false
1RgBTnjW,3lvtfb9df8vfwjy33dzq8w9nvhnqgc,3k4j6m3cxi6pwnpg5j767gqa48nga3,1RgBTnjW,2020-0188,2020-11-18,16:32:32,17:05:28,NA,incomplete,87,filling,1,right,Green_Triangle_Dots_2.jpg,Red_Triangle_Stripes_1.jpg,Blue_Circle_Dots_3.jpg,right,894.6050000376999,true,high,false
1RgBTnjW,3lvtfb9df8vfwjy33dzq8w9nvhnqgc,3k4j6m3cxi6pwnpg5j767gqa48nga3,1RgBTnjW,2020-0188,2020-11-18,16:32:32,17:05:28,NA,incomplete,88,filling,1,right,Blue_Circle_Stripes_3.jpg,Red_Circle_Chess_1.jpg,Purple_Plus_Stripes_4.jpg,right,1134.0050003491342,true,high,false
1RgBTnjW,3lvtfb9df8vfwjy33dzq8w9nvhnqgc,3k4j6m3cxi6pwnpg5j767gqa48nga3,1RgBTnjW,2020-0188,2020-11-18,16:32:32,17:05:28,NA,incomplete,89,filling,1,right,Purple_Circle_Dots_3.jpg,Red_Circle_Chess_2.jpg,Blue_Triangle_Dots_4.jpg,right,1055.8199998922646,true,high,false
1RgBTnjW,3lvtfb9df8vfwjy33dzq8w9nvhnqgc,3k4j6m3cxi6pwnpg5j767gqa48nga3,1RgBTnjW,2020-0188,2020-11-18,16:32:32,17:05:28,NA,incomplete,90,shape,1,left,Blue_Plus_Grid_3.jpg,Green_Plus_Chess_2.jpg,Purple_Triangle_Grid_1.jpg,right,1248.7449999898672,false,high,false
1RgBTnjW,3lvtfb9df8vfwjy33dzq8w9nvhnqgc,3k4j6m3cxi6pwnpg5j767gqa48nga3,1RgBTnjW,2020-0188,2020-11-18,16:32:32,17:05:28,NA,incomplete,91,shape,1,left,Blue_Star_Grid_4.jpg,Red_Star_Stripes_2.jpg,Green_Plus_Grid_1.jpg,left,1348.610000219196,true,high,false
1RgBTnjW,3lvtfb9df8vfwjy33dzq8w9nvhnqgc,3k4j6m3cxi6pwnpg5j767gqa48nga3,1RgBTnjW,2020-0188,2020-11-18,16:32:32,17:05:28,NA,incomplete,92,shape,0,right,Blue_Plus_Chess_3.jpg,Green_Star_Chess_4.jpg,Purple_Plus_Dots_2.jpg,right,1319.3299998529255,true,high,false
1RgBTnjW,3lvtfb9df8vfwjy33dzq8w9nvhnqgc,3k4j6m3cxi6pwnpg5j767gqa48nga3,1RgBTnjW,2020-0188,2020-11-18,16:32:32,17:05:28,NA,incomplete,93,shape,1,left,Purple_Plus_Grid_1.jpg,Green_Plus_Dots_3.jpg,Red_Circle_Grid_4.jpg,right,1334.4400003552437,false,high,false
1RgBTnjW,3lvtfb9df8vfwjy33dzq8w9nvhnqgc,3k4j6m3cxi6pwnpg5j767gqa48nga3,1RgBTnjW,2020-0188,2020-11-18,16:32:32,17:05:28,NA,incomplete,94,shape,0,right,Purple_Star_Grid_1.jpg,Blue_Circle_Grid_2.jpg,Green_Star_Dots_3.jpg,right,829.2200001887977,true,high,false
1RgBTnjW,3lvtfb9df8vfwjy33dzq8w9nvhnqgc,3k4j6m3cxi6pwnpg5j767gqa48nga3,1RgBTnjW,2020-0188,2020-11-18,16:32:32,17:05:28,NA,incomplete,95,shape,1,right,Red_Circle_Dots_1.jpg,Blue_Star_Dots_2.jpg,Green_Circle_Grid_4.jpg,left,1539.6750001236796,false,high,false
1RgBTnjW,3lvtfb9df8vfwjy33dzq8w9nvhnqgc,3k4j6m3cxi6pwnpg5j767gqa48nga3,1RgBTnjW,2020-0188,2020-11-18,16:32:32,17:05:28,NA,incomplete,96,shape,0,left,Green_Plus_Stripes_2.jpg,Red_Plus_Chess_4.jpg,Blue_Triangle_Stripes_3.jpg,right,1261.0550001263618,false,high,false
1RgBTnjW,3lvtfb9df8vfwjy33dzq8w9nvhnqgc,3k4j6m3cxi6pwnpg5j767gqa48nga3,1RgBTnjW,2020-0188,2020-11-18,16:32:32,17:05:28,NA,incomplete,97,shape,1,left,Purple_Star_Dots_3.jpg,Blue_Star_Grid_4.jpg,Green_Triangle_Dots_2.jpg,right,1348.5499997623265,false,high,false
1RgBTnjW,3lvtfb9df8vfwjy33dzq8w9nvhnqgc,3k4j6m3cxi6pwnpg5j767gqa48nga3,1RgBTnjW,2020-0188,2020-11-18,16:32:32,17:05:28,NA,incomplete,98,shape,1,left,Green_Plus_Dots_3.jpg,Purple_Plus_Chess_1.jpg,Red_Circle_Dots_2.jpg,right,1515.5899999663234,false,high,false
1RgBTnjW,3lvtfb9df8vfwjy33dzq8w9nvhnqgc,3k4j6m3cxi6pwnpg5j767gqa48nga3,1RgBTnjW,2020-0188,2020-11-18,16:32:32,17:05:28,NA,incomplete,99,shape,1,left,Blue_Triangle_Stripes_2.jpg,Purple_Triangle_Grid_4.jpg,Red_Plus_Stripes_1.jpg,left,1199.3049997836351,true,high,false
1RgBTnjW,3lvtfb9df8vfwjy33dzq8w9nvhnqgc,3k4j6m3cxi6pwnpg5j767gqa48nga3,1RgBTnjW,2020-0188,2020-11-18,16:32:32,17:05:28,NA,incomplete,100,filling,1,right,Green_Circle_Grid_2.jpg,Red_Circle_Stripes_4.jpg,Blue_Plus_Grid_3.jpg,left,701.535000000149,false,high,false
1RgBTnjW,3lvtfb9df8vfwjy33dzq8w9nvhnqgc,3k4j6m3cxi6pwnpg5j767gqa48nga3,1RgBTnjW,2020-0188,2020-11-18,16:32:32,17:05:28,NA,incomplete,101,filling,1,left,Purple_Triangle_Dots_1.jpg,Red_Star_Dots_3.jpg,Blue_Triangle_Grid_4.jpg,left,1381.370000075549,true,high,false
1RgBTnjW,3lvtfb9df8vfwjy33dzq8w9nvhnqgc,3k4j6m3cxi6pwnpg5j767gqa48nga3,1RgBTnjW,2020-0188,2020-11-18,16:32:32,17:05:28,NA,incomplete,102,filling,0,left,Green_Triangle_Stripes_2.jpg,Purple_Star_Stripes_1.jpg,Red_Triangle_Grid_3.jpg,left,1374.7800001874566,true,high,false
1RgBTnjW,3lvtfb9df8vfwjy33dzq8w9nvhnqgc,3k4j6m3cxi6pwnpg5j767gqa48nga3,1RgBTnjW,2020-0188,2020-11-18,16:32:32,17:05:28,NA,incomplete,103,filling,1,left,Green_Triangle_Stripes_1.jpg,Red_Plus_Stripes_2.jpg,Purple_Triangle_Chess_3.jpg,left,1057.1149997413158,true,high,false
1RgBTnjW,3lvtfb9df8vfwjy33dzq8w9nvhnqgc,3k4j6m3cxi6pwnpg5j767gqa48nga3,1RgBTnjW,2020-0188,2020-11-18,16:32:32,17:05:28,NA,incomplete,104,filling,1,right,Blue_Circle_Grid_3.jpg,Purple_Circle_Dots_2.jpg,Red_Triangle_Grid_1.jpg,right,1143.1700000539422,true,high,false
1RgBTnjW,3lvtfb9df8vfwjy33dzq8w9nvhnqgc,3k4j6m3cxi6pwnpg5j767gqa48nga3,1RgBTnjW,2020-0188,2020-11-18,16:32:32,17:05:28,NA,incomplete,105,filling,1,left,Red_Plus_Stripes_1.jpg,Green_Circle_Stripes_2.jpg,Purple_Plus_Dots_4.jpg,left,1057.2750000283122,true,high,false
1RgBTnjW,3lvtfb9df8vfwjy33dzq8w9nvhnqgc,3k4j6m3cxi6pwnpg5j767gqa48nga3,1RgBTnjW,2020-0188,2020-11-18,16:32:32,17:05:28,NA,incomplete,106,filling,1,left,Green_Plus_Grid_2.jpg,Red_Circle_Grid_4.jpg,Purple_Plus_Dots_1.jpg,left,1573.779999744147,true,high,false
1RgBTnjW,3lvtfb9df8vfwjy33dzq8w9nvhnqgc,3k4j6m3cxi6pwnpg5j767gqa48nga3,1RgBTnjW,2020-0188,2020-11-18,16:32:32,17:05:28,NA,incomplete,107,filling,1,right,Red_Plus_Dots_2.jpg,Purple_Plus_Stripes_1.jpg,Green_Triangle_Dots_4.jpg,right,1155.1399999298155,true,high,false
1RgBTnjW,3lvtfb9df8vfwjy33dzq8w9nvhnqgc,3k4j6m3cxi6pwnpg5j767gqa48nga3,1RgBTnjW,2020-0188,2020-11-18,16:32:32,17:05:28,NA,incomplete,108,filling,1,left,Purple_Star_Dots_1.jpg,Green_Triangle_Dots_4.jpg,Blue_Star_Grid_3.jpg,left,1499.220000114292,true,high,false
1RgBTnjW,3lvtfb9df8vfwjy33dzq8w9nvhnqgc,3k4j6m3cxi6pwnpg5j767gqa48nga3,1RgBTnjW,2020-0188,2020-11-18,16:32:32,17:05:28,NA,incomplete,109,filling,1,left,Blue_Star_Stripes_3.jpg,Red_Triangle_Stripes_2.jpg,Green_Star_Grid_4.jpg,left,1631.000000052154,true,high,false
1RgBTnjW,3lvtfb9df8vfwjy33dzq8w9nvhnqgc,3k4j6m3cxi6pwnpg5j767gqa48nga3,1RgBTnjW,2020-0188,2020-11-18,16:32:32,17:05:28,NA,incomplete,110,shape,0,left,Blue_Plus_Chess_4.jpg,Green_Plus_Grid_3.jpg,Red_Circle_Chess_2.jpg,right,1190.2899998240173,false,high,false
1RgBTnjW,3lvtfb9df8vfwjy33dzq8w9nvhnqgc,3k4j6m3cxi6pwnpg5j767gqa48nga3,1RgBTnjW,2020-0188,2020-11-18,16:32:32,17:05:28,NA,incomplete,111,shape,1,left,Red_Triangle_Dots_2.jpg,Green_Triangle_Stripes_4.jpg,Blue_Circle_Dots_1.jpg,right,1041.6049999184906,false,high,false
1RgBTnjW,3lvtfb9df8vfwjy33dzq8w9nvhnqgc,3k4j6m3cxi6pwnpg5j767gqa48nga3,1RgBTnjW,2020-0188,2020-11-18,16:32:32,17:05:28,NA,incomplete,112,shape,1,left,Purple_Circle_Dots_4.jpg,Blue_Circle_Grid_2.jpg,Green_Triangle_Dots_1.jpg,left,708.9599999599159,true,high,false
1RgBTnjW,3lvtfb9df8vfwjy33dzq8w9nvhnqgc,3k4j6m3cxi6pwnpg5j767gqa48nga3,1RgBTnjW,2020-0188,2020-11-18,16:32:32,17:05:28,NA,incomplete,113,shape,1,left,Blue_Plus_Chess_2.jpg,Red_Plus_Stripes_3.jpg,Purple_Circle_Chess_4.jpg,left,679.7449998557568,true,high,false
1RgBTnjW,3lvtfb9df8vfwjy33dzq8w9nvhnqgc,3k4j6m3cxi6pwnpg5j767gqa48nga3,1RgBTnjW,2020-0188,2020-11-18,16:32:32,17:05:28,NA,incomplete,114,shape,1,right,Blue_Triangle_Dots_3.jpg,Green_Plus_Dots_4.jpg,Purple_Triangle_Chess_2.jpg,left,734.0800003148615,false,high,false
1RgBTnjW,3lvtfb9df8vfwjy33dzq8w9nvhnqgc,3k4j6m3cxi6pwnpg5j767gqa48nga3,1RgBTnjW,2020-0188,2020-11-18,16:32:32,17:05:28,NA,incomplete,115,shape,1,left,Red_Star_Grid_4.jpg,Green_Star_Stripes_3.jpg,Blue_Triangle_Grid_2.jpg,left,747.2299998626113,true,high,false
1RgBTnjW,3lvtfb9df8vfwjy33dzq8w9nvhnqgc,3k4j6m3cxi6pwnpg5j767gqa48nga3,1RgBTnjW,2020-0188,2020-11-18,16:32:32,17:05:28,NA,incomplete,116,shape,0,right,Purple_Plus_Stripes_1.jpg,Blue_Circle_Stripes_3.jpg,Green_Plus_Dots_4.jpg,right,675.2499998547137,true,high,false
1RgBTnjW,3lvtfb9df8vfwjy33dzq8w9nvhnqgc,3k4j6m3cxi6pwnpg5j767gqa48nga3,1RgBTnjW,2020-0188,2020-11-18,16:32:32,17:05:28,NA,incomplete,117,shape,1,left,Blue_Circle_Chess_4.jpg,Purple_Circle_Stripes_2.jpg,Red_Triangle_Chess_3.jpg,right,990.3649999760091,false,high,false
1RgBTnjW,3lvtfb9df8vfwjy33dzq8w9nvhnqgc,3k4j6m3cxi6pwnpg5j767gqa48nga3,1RgBTnjW,2020-0188,2020-11-18,16:32:32,17:05:28,NA,incomplete,118,shape,1,right,Red_Star_Dots_2.jpg,Purple_Circle_Dots_1.jpg,Blue_Star_Stripes_4.jpg,left,1003.604999743402,false,high,false
1RgBTnjW,3lvtfb9df8vfwjy33dzq8w9nvhnqgc,3k4j6m3cxi6pwnpg5j767gqa48nga3,1RgBTnjW,2020-0188,2020-11-18,16:32:32,17:05:28,NA,incomplete,119,shape,1,left,Blue_Circle_Chess_2.jpg,Purple_Circle_Dots_1.jpg,Red_Star_Chess_3.jpg,left,816.7300000786781,true,high,false
1RgBTnjW,3lvtfb9df8vfwjy33dzq8w9nvhnqgc,3k4j6m3cxi6pwnpg5j767gqa48nga3,1RgBTnjW,2020-0188,2020-11-18,16:32:32,17:05:28,NA,incomplete,120,number,1,left,Purple_Plus_Dots_3.jpg,Red_Circle_Grid_3.jpg,Purple_Triangle_Stripes_2.jpg,none,0,false,high,false
1RgBTnjW,3lvtfb9df8vfwjy33dzq8w9nvhnqgc,3k4j6m3cxi6pwnpg5j767gqa48nga3,1RgBTnjW,2020-0188,2020-11-18,16:32:32,17:05:28,NA,incomplete,121,number,0,right,Purple_Plus_Dots_2.jpg,Purple_Triangle_Grid_1.jpg,Blue_Star_Stripes_2.jpg,left,1627.820000052452,false,high,false
1RgBTnjW,3lvtfb9df8vfwjy33dzq8w9nvhnqgc,3k4j6m3cxi6pwnpg5j767gqa48nga3,1RgBTnjW,2020-0188,2020-11-18,16:32:32,17:05:28,NA,incomplete,122,number,1,left,Purple_Circle_Stripes_4.jpg,Blue_Plus_Grid_4.jpg,Purple_Triangle_Dots_1.jpg,left,1369.4700002670288,true,high,false
1RgBTnjW,3lvtfb9df8vfwjy33dzq8w9nvhnqgc,3k4j6m3cxi6pwnpg5j767gqa48nga3,1RgBTnjW,2020-0188,2020-11-18,16:32:32,17:05:28,NA,incomplete,123,number,1,right,Red_Plus_Grid_4.jpg,Red_Circle_Stripes_3.jpg,Blue_Star_Dots_4.jpg,right,1417.7899998612702,true,high,false
1RgBTnjW,3lvtfb9df8vfwjy33dzq8w9nvhnqgc,3k4j6m3cxi6pwnpg5j767gqa48nga3,1RgBTnjW,2020-0188,2020-11-18,16:32:32,17:05:28,NA,incomplete,124,number,0,right,Purple_Plus_Chess_4.jpg,Purple_Star_Stripes_2.jpg,Red_Circle_Grid_4.jpg,right,1259.8099997267127,true,high,false
1RgBTnjW,3lvtfb9df8vfwjy33dzq8w9nvhnqgc,3k4j6m3cxi6pwnpg5j767gqa48nga3,1RgBTnjW,2020-0188,2020-11-18,16:32:32,17:05:28,NA,incomplete,125,number,1,left,Blue_Star_Chess_4.jpg,Purple_Plus_Stripes_4.jpg,Blue_Triangle_Dots_1.jpg,left,1204.3200000189245,true,high,false
1RgBTnjW,3lvtfb9df8vfwjy33dzq8w9nvhnqgc,3k4j6m3cxi6pwnpg5j767gqa48nga3,1RgBTnjW,2020-0188,2020-11-18,16:32:32,17:05:28,NA,incomplete,126,number,1,right,Purple_Circle_Chess_4.jpg,Purple_Star_Grid_2.jpg,Blue_Plus_Stripes_4.jpg,left,1902.7100000530481,false,high,false
1RgBTnjW,3lvtfb9df8vfwjy33dzq8w9nvhnqgc,3k4j6m3cxi6pwnpg5j767gqa48nga3,1RgBTnjW,2020-0188,2020-11-18,16:32:32,17:05:28,NA,incomplete,127,number,0,left,Purple_Plus_Dots_4.jpg,Green_Triangle_Chess_4.jpg,Purple_Star_Grid_1.jpg,left,1333.4249998442829,true,high,false
1RgBTnjW,3lvtfb9df8vfwjy33dzq8w9nvhnqgc,3k4j6m3cxi6pwnpg5j767gqa48nga3,1RgBTnjW,2020-0188,2020-11-18,16:32:32,17:05:28,NA,incomplete,128,number,1,right,Green_Circle_Dots_4.jpg,Green_Plus_Grid_1.jpg,Red_Star_Chess_4.jpg,right,1452.335000038147,true,high,false
1RgBTnjW,3lvtfb9df8vfwjy33dzq8w9nvhnqgc,3k4j6m3cxi6pwnpg5j767gqa48nga3,1RgBTnjW,2020-0188,2020-11-18,16:32:32,17:05:28,NA,incomplete,129,number,1,left,Blue_Plus_Grid_4.jpg,Purple_Circle_Dots_4.jpg,Blue_Triangle_Stripes_3.jpg,left,1275.4999999888241,true,high,false
1RgBTnjW,3lvtfb9df8vfwjy33dzq8w9nvhnqgc,3k4j6m3cxi6pwnpg5j767gqa48nga3,1RgBTnjW,2020-0188,2020-11-18,16:32:32,17:05:28,NA,incomplete,130,number,1,left,Blue_Circle_Dots_2.jpg,Green_Plus_Stripes_2.jpg,Blue_Triangle_Grid_4.jpg,left,911.2149998545647,true,high,false
1RgBTnjW,3lvtfb9df8vfwjy33dzq8w9nvhnqgc,3k4j6m3cxi6pwnpg5j767gqa48nga3,1RgBTnjW,2020-0188,2020-11-18,16:32:32,17:05:28,NA,incomplete,131,number,0,right,Blue_Star_Grid_2.jpg,Blue_Triangle_Dots_4.jpg,Red_Plus_Stripes_2.jpg,right,961.159999947995,true,high,false
1RgBTnjW,3lvtfb9df8vfwjy33dzq8w9nvhnqgc,3k4j6m3cxi6pwnpg5j767gqa48nga3,1RgBTnjW,2020-0188,2020-11-18,16:32:32,17:05:28,NA,incomplete,132,number,1,left,Purple_Star_Chess_2.jpg,Blue_Plus_Dots_2.jpg,Purple_Triangle_Stripes_3.jpg,left,1508.390000090003,true,high,false
1RgBTnjW,3lvtfb9df8vfwjy33dzq8w9nvhnqgc,3k4j6m3cxi6pwnpg5j767gqa48nga3,1RgBTnjW,2020-0188,2020-11-18,16:32:32,17:05:28,NA,incomplete,133,number,1,left,Red_Star_Stripes_2.jpg,Green_Plus_Grid_2.jpg,Red_Circle_Chess_4.jpg,left,968.2099996134639,true,high,false
1RgBTnjW,3lvtfb9df8vfwjy33dzq8w9nvhnqgc,3k4j6m3cxi6pwnpg5j767gqa48nga3,1RgBTnjW,2020-0188,2020-11-18,16:32:32,17:05:28,NA,incomplete,134,number,0,left,Red_Circle_Stripes_2.jpg,Blue_Triangle_Chess_2.jpg,Red_Plus_Grid_3.jpg,left,1267.9650001227856,true,high,false
1RgBTnjW,3lvtfb9df8vfwjy33dzq8w9nvhnqgc,3k4j6m3cxi6pwnpg5j767gqa48nga3,1RgBTnjW,2020-0188,2020-11-18,16:32:32,17:05:28,NA,incomplete,135,number,1,left,Green_Plus_Dots_1.jpg,Blue_Circle_Stripes_1.jpg,Green_Triangle_Chess_3.jpg,right,1486.500000115484,false,high,false
1RgBTnjW,3lvtfb9df8vfwjy33dzq8w9nvhnqgc,3k4j6m3cxi6pwnpg5j767gqa48nga3,1RgBTnjW,2020-0188,2020-11-18,16:32:32,17:05:28,NA,incomplete,136,number,1,left,Purple_Star_Dots_4.jpg,Red_Triangle_Grid_4.jpg,Purple_Plus_Chess_2.jpg,left,1201.7950001172721,true,high,false
1RgBTnjW,3lvtfb9df8vfwjy33dzq8w9nvhnqgc,3k4j6m3cxi6pwnpg5j767gqa48nga3,1RgBTnjW,2020-0188,2020-11-18,16:32:32,17:05:28,NA,incomplete,137,number,0,right,Blue_Circle_Grid_1.jpg,Blue_Triangle_Chess_2.jpg,Green_Star_Stripes_1.jpg,right,1104.7149999067187,true,high,false
1RgBTnjW,3lvtfb9df8vfwjy33dzq8w9nvhnqgc,3k4j6m3cxi6pwnpg5j767gqa48nga3,1RgBTnjW,2020-0188,2020-11-18,16:32:32,17:05:28,NA,incomplete,138,number,1,left,Blue_Triangle_Dots_2.jpg,Purple_Star_Chess_2.jpg,Blue_Circle_Stripes_1.jpg,right,1613.2099996320903,false,high,false
1RgBTnjW,3lvtfb9df8vfwjy33dzq8w9nvhnqgc,3k4j6m3cxi6pwnpg5j767gqa48nga3,1RgBTnjW,2020-0188,2020-11-18,16:32:32,17:05:28,NA,incomplete,139,number,1,right,Green_Plus_Grid_1.jpg,Green_Circle_Stripes_3.jpg,Blue_Triangle_Dots_1.jpg,left,1555.1049998030066,false,high,false
1RgBTnjW,3lvtfb9df8vfwjy33dzq8w9nvhnqgc,3k4j6m3cxi6pwnpg5j767gqa48nga3,1RgBTnjW,2020-0188,2020-11-18,16:32:32,17:05:28,NA,incomplete,140,color,0,left,Blue_Plus_Chess_2.jpg,Blue_Triangle_Grid_4.jpg,Red_Star_Stripes_2.jpg,left,1543.8849995844066,true,high,false
1RgBTnjW,3lvtfb9df8vfwjy33dzq8w9nvhnqgc,3k4j6m3cxi6pwnpg5j767gqa48nga3,1RgBTnjW,2020-0188,2020-11-18,16:32:32,17:05:28,NA,incomplete,141,color,1,right,Blue_Star_Dots_3.jpg,Green_Triangle_Stripes_3.jpg,Blue_Circle_Chess_2.jpg,right,1758.4350001998246,true,high,false
1RgBTnjW,3lvtfb9df8vfwjy33dzq8w9nvhnqgc,3k4j6m3cxi6pwnpg5j767gqa48nga3,1RgBTnjW,2020-0188,2020-11-18,16:32:32,17:05:28,NA,incomplete,142,color,1,right,Green_Triangle_Stripes_2.jpg,Blue_Star_Grid_2.jpg,Green_Circle_Dots_4.jpg,right,1309.0649996884167,true,high,false
1RgBTnjW,3lvtfb9df8vfwjy33dzq8w9nvhnqgc,3k4j6m3cxi6pwnpg5j767gqa48nga3,1RgBTnjW,2020-0188,2020-11-18,16:32:32,17:05:28,NA,incomplete,143,color,1,left,Purple_Star_Stripes_1.jpg,Purple_Plus_Chess_3.jpg,Red_Circle_Dots_1.jpg,left,1227.2399999201298,true,high,false
1RgBTnjW,3lvtfb9df8vfwjy33dzq8w9nvhnqgc,3k4j6m3cxi6pwnpg5j767gqa48nga3,1RgBTnjW,2020-0188,2020-11-18,16:32:32,17:05:28,NA,incomplete,144,color,1,right,Green_Triangle_Dots_4.jpg,Red_Plus_Stripes_4.jpg,Green_Star_Chess_2.jpg,right,1781.3850003294647,true,high,false
1RgBTnjW,3lvtfb9df8vfwjy33dzq8w9nvhnqgc,3k4j6m3cxi6pwnpg5j767gqa48nga3,1RgBTnjW,2020-0188,2020-11-18,16:32:32,17:05:28,NA,incomplete,145,color,1,right,Purple_Circle_Chess_4.jpg,Green_Star_Dots_4.jpg,Purple_Triangle_Stripes_1.jpg,right,1232.1899998933077,true,high,false
1RgBTnjW,3lvtfb9df8vfwjy33dzq8w9nvhnqgc,3k4j6m3cxi6pwnpg5j767gqa48nga3,1RgBTnjW,2020-0188,2020-11-18,16:32:32,17:05:28,NA,incomplete,146,color,0,right,Green_Triangle_Stripes_3.jpg,Blue_Circle_Grid_3.jpg,Green_Plus_Dots_1.jpg,right,985.6400000862777,true,high,false
1RgBTnjW,3lvtfb9df8vfwjy33dzq8w9nvhnqgc,3k4j6m3cxi6pwnpg5j767gqa48nga3,1RgBTnjW,2020-0188,2020-11-18,16:32:32,17:05:28,NA,incomplete,147,color,1,left,Purple_Triangle_Stripes_2.jpg,Purple_Plus_Grid_3.jpg,Red_Star_Chess_2.jpg,right,1506.5650003962219,false,high,false
1RgBTnjW,3lvtfb9df8vfwjy33dzq8w9nvhnqgc,3k4j6m3cxi6pwnpg5j767gqa48nga3,1RgBTnjW,2020-0188,2020-11-18,16:32:32,17:05:28,NA,incomplete,148,color,0,right,Green_Plus_Chess_4.jpg,Purple_Circle_Grid_4.jpg,Green_Star_Stripes_2.jpg,left,1652.2799995727837,false,high,false
1RgBTnjW,3lvtfb9df8vfwjy33dzq8w9nvhnqgc,3k4j6m3cxi6pwnpg5j767gqa48nga3,1RgBTnjW,2020-0188,2020-11-18,16:32:32,17:05:28,NA,incomplete,149,color,1,left,Purple_Triangle_Stripes_3.jpg,Purple_Plus_Chess_1.jpg,Green_Circle_Dots_3.jpg,right,1371.8349998816848,false,high,false
1RgBTnjW,3lvtfb9df8vfwjy33dzq8w9nvhnqgc,3k4j6m3cxi6pwnpg5j767gqa48nga3,1RgBTnjW,2020-0188,2020-11-18,16:32:32,17:05:28,NA,incomplete,150,color,0,right,Red_Star_Stripes_1.jpg,Purple_Circle_Chess_1.jpg,Red_Plus_Grid_3.jpg,right,1728.2099998556077,true,high,false
1RgBTnjW,3lvtfb9df8vfwjy33dzq8w9nvhnqgc,3k4j6m3cxi6pwnpg5j767gqa48nga3,1RgBTnjW,2020-0188,2020-11-18,16:32:32,17:05:28,NA,incomplete,151,color,1,right,Green_Triangle_Dots_2.jpg,Blue_Plus_Chess_2.jpg,Green_Circle_Grid_1.jpg,left,979.0550000034273,false,high,false
1RgBTnjW,3lvtfb9df8vfwjy33dzq8w9nvhnqgc,3k4j6m3cxi6pwnpg5j767gqa48nga3,1RgBTnjW,2020-0188,2020-11-18,16:32:32,17:05:28,NA,incomplete,152,color,1,right,Purple_Star_Dots_3.jpg,Blue_Plus_Grid_3.jpg,Purple_Triangle_Stripes_2.jpg,right,1476.5700004063547,true,high,false
1RgBTnjW,3lvtfb9df8vfwjy33dzq8w9nvhnqgc,3k4j6m3cxi6pwnpg5j767gqa48nga3,1RgBTnjW,2020-0188,2020-11-18,16:32:32,17:05:28,NA,incomplete,153,color,1,left,Green_Triangle_Grid_4.jpg,Green_Circle_Chess_2.jpg,Purple_Star_Stripes_4.jpg,left,1546.1749997921288,true,high,false
1RgBTnjW,3lvtfb9df8vfwjy33dzq8w9nvhnqgc,3k4j6m3cxi6pwnpg5j767gqa48nga3,1RgBTnjW,2020-0188,2020-11-18,16:32:32,17:05:28,NA,incomplete,154,color,1,right,Purple_Plus_Stripes_3.jpg,Blue_Triangle_Grid_3.jpg,Purple_Circle_Dots_2.jpg,right,1419.204999692738,true,high,false
1RgBTnjW,3lvtfb9df8vfwjy33dzq8w9nvhnqgc,3k4j6m3cxi6pwnpg5j767gqa48nga3,1RgBTnjW,2020-0188,2020-11-18,16:32:32,17:05:28,NA,incomplete,155,color,1,right,Red_Plus_Dots_3.jpg,Green_Triangle_Grid_3.jpg,Red_Star_Chess_4.jpg,right,1081.5349998883903,true,high,false
1RgBTnjW,3lvtfb9df8vfwjy33dzq8w9nvhnqgc,3k4j6m3cxi6pwnpg5j767gqa48nga3,1RgBTnjW,2020-0188,2020-11-18,16:32:32,17:05:28,NA,incomplete,156,color,1,left,Red_Circle_Dots_4.jpg,Red_Plus_Grid_3.jpg,Purple_Triangle_Chess_4.jpg,left,1052.4699999950826,true,high,false
1RgBTnjW,3lvtfb9df8vfwjy33dzq8w9nvhnqgc,3k4j6m3cxi6pwnpg5j767gqa48nga3,1RgBTnjW,2020-0188,2020-11-18,16:32:32,17:05:28,NA,incomplete,157,color,1,right,Purple_Star_Grid_2.jpg,Green_Plus_Chess_2.jpg,Purple_Triangle_Dots_3.jpg,right,1068.9350003376603,true,high,false
1RgBTnjW,3lvtfb9df8vfwjy33dzq8w9nvhnqgc,3k4j6m3cxi6pwnpg5j767gqa48nga3,1RgBTnjW,2020-0188,2020-11-18,16:32:32,17:05:28,NA,incomplete,158,color,1,left,Red_Circle_Chess_4.jpg,Red_Plus_Stripes_1.jpg,Green_Star_Grid_4.jpg,left,1313.215000089258,true,high,false
1RgBTnjW,3lvtfb9df8vfwjy33dzq8w9nvhnqgc,3k4j6m3cxi6pwnpg5j767gqa48nga3,1RgBTnjW,2020-0188,2020-11-18,16:32:32,17:05:28,NA,incomplete,159,color,1,left,Red_Plus_Grid_1.jpg,Red_Star_Stripes_3.jpg,Blue_Triangle_Dots_1.jpg,left,806.855000089854,true,high,false
1RgBTnjW,3lvtfb9df8vfwjy33dzq8w9nvhnqgc,3k4j6m3cxi6pwnpg5j767gqa48nga3,1RgBTnjW,2020-0188,2020-11-18,16:32:32,17:05:28,NA,incomplete,160,number,1,left,Purple_Triangle_Stripes_3.jpg,Blue_Circle_Chess_3.jpg,Purple_Plus_Grid_2.jpg,right,1270.1900000683963,false,high,false
1RgBTnjW,3lvtfb9df8vfwjy33dzq8w9nvhnqgc,3k4j6m3cxi6pwnpg5j767gqa48nga3,1RgBTnjW,2020-0188,2020-11-18,16:32:32,17:05:28,NA,incomplete,161,number,0,left,Green_Plus_Chess_4.jpg,Blue_Circle_Dots_4.jpg,Green_Star_Grid_2.jpg,left,1409.3700000084937,true,high,false
1RgBTnjW,3lvtfb9df8vfwjy33dzq8w9nvhnqgc,3k4j6m3cxi6pwnpg5j767gqa48nga3,1RgBTnjW,2020-0188,2020-11-18,16:32:32,17:05:28,NA,incomplete,162,number,1,left,Green_Circle_Grid_2.jpg,Red_Triangle_Chess_2.jpg,Green_Star_Dots_3.jpg,right,1224.4449998252094,false,high,false
1RgBTnjW,3lvtfb9df8vfwjy33dzq8w9nvhnqgc,3k4j6m3cxi6pwnpg5j767gqa48nga3,1RgBTnjW,2020-0188,2020-11-18,16:32:32,17:05:28,NA,incomplete,163,number,1,right,Green_Star_Stripes_3.jpg,Green_Plus_Chess_1.jpg,Blue_Triangle_Dots_3.jpg,left,1480.845000129193,false,high,false
1RgBTnjW,3lvtfb9df8vfwjy33dzq8w9nvhnqgc,3k4j6m3cxi6pwnpg5j767gqa48nga3,1RgBTnjW,2020-0188,2020-11-18,16:32:32,17:05:28,NA,incomplete,164,number,1,left,Blue_Star_Chess_3.jpg,Purple_Circle_Grid_3.jpg,Blue_Plus_Stripes_1.jpg,left,1259.0450001880527,true,high,false
1RgBTnjW,3lvtfb9df8vfwjy33dzq8w9nvhnqgc,3k4j6m3cxi6pwnpg5j767gqa48nga3,1RgBTnjW,2020-0188,2020-11-18,16:32:32,17:05:28,NA,incomplete,165,number,1,left,Purple_Star_Dots_2.jpg,Green_Triangle_Grid_2.jpg,Purple_Circle_Stripes_4.jpg,left,1036.8999997153878,true,high,false
1RgBTnjW,3lvtfb9df8vfwjy33dzq8w9nvhnqgc,3k4j6m3cxi6pwnpg5j767gqa48nga3,1RgBTnjW,2020-0188,2020-11-18,16:32:32,17:05:28,NA,incomplete,166,number,1,right,Red_Star_Stripes_4.jpg,Red_Triangle_Grid_3.jpg,Blue_Circle_Chess_4.jpg,right,1158.2450000569224,true,high,false
1RgBTnjW,3lvtfb9df8vfwjy33dzq8w9nvhnqgc,3k4j6m3cxi6pwnpg5j767gqa48nga3,1RgBTnjW,2020-0188,2020-11-18,16:32:32,17:05:28,NA,incomplete,167,number,1,left,Blue_Star_Grid_2.jpg,Red_Triangle_Chess_2.jpg,Blue_Circle_Dots_1.jpg,left,902.5299996137619,true,high,false
1RgBTnjW,3lvtfb9df8vfwjy33dzq8w9nvhnqgc,3k4j6m3cxi6pwnpg5j767gqa48nga3,1RgBTnjW,2020-0188,2020-11-18,16:32:32,17:05:28,NA,incomplete,168,number,1,right,Red_Plus_Stripes_3.jpg,Red_Star_Chess_1.jpg,Blue_Circle_Grid_3.jpg,right,1036.9549999013543,true,high,false
1RgBTnjW,3lvtfb9df8vfwjy33dzq8w9nvhnqgc,3k4j6m3cxi6pwnpg5j767gqa48nga3,1RgBTnjW,2020-0188,2020-11-18,16:32:32,17:05:28,NA,incomplete,169,number,1,left,Red_Triangle_Dots_1.jpg,Purple_Star_Chess_1.jpg,Red_Plus_Grid_2.jpg,left,870.860000140965,true,high,false
1RgBTnjW,3lvtfb9df8vfwjy33dzq8w9nvhnqgc,3k4j6m3cxi6pwnpg5j767gqa48nga3,1RgBTnjW,2020-0188,2020-11-18,16:32:32,17:05:28,NA,incomplete,170,number,1,left,Purple_Star_Stripes_1.jpg,Green_Plus_Chess_1.jpg,Purple_Circle_Grid_2.jpg,left,786.2549996934831,true,high,false
1RgBTnjW,3lvtfb9df8vfwjy33dzq8w9nvhnqgc,3k4j6m3cxi6pwnpg5j767gqa48nga3,1RgBTnjW,2020-0188,2020-11-18,16:32:32,17:05:28,NA,incomplete,171,number,0,right,Purple_Triangle_Dots_1.jpg,Purple_Plus_Stripes_3.jpg,Green_Circle_Grid_1.jpg,right,1004.759999923408,true,high,false
1RgBTnjW,3lvtfb9df8vfwjy33dzq8w9nvhnqgc,3k4j6m3cxi6pwnpg5j767gqa48nga3,1RgBTnjW,2020-0188,2020-11-18,16:32:32,17:05:28,NA,incomplete,172,number,1,left,Blue_Plus_Grid_4.jpg,Purple_Triangle_Dots_4.jpg,Blue_Star_Stripes_1.jpg,left,1732.8650001436472,true,high,false
1RgBTnjW,3lvtfb9df8vfwjy33dzq8w9nvhnqgc,3k4j6m3cxi6pwnpg5j767gqa48nga3,1RgBTnjW,2020-0188,2020-11-18,16:32:32,17:05:28,NA,incomplete,173,number,1,right,Red_Star_Chess_2.jpg,Red_Plus_Grid_3.jpg,Green_Circle_Dots_2.jpg,right,1010.6700002215803,true,high,false
1RgBTnjW,3lvtfb9df8vfwjy33dzq8w9nvhnqgc,3k4j6m3cxi6pwnpg5j767gqa48nga3,1RgBTnjW,2020-0188,2020-11-18,16:32:32,17:05:28,NA,incomplete,174,number,1,right,Blue_Plus_Grid_3.jpg,Blue_Circle_Chess_1.jpg,Green_Star_Dots_3.jpg,right,949.9949999153614,true,high,false
1RgBTnjW,3lvtfb9df8vfwjy33dzq8w9nvhnqgc,3k4j6m3cxi6pwnpg5j767gqa48nga3,1RgBTnjW,2020-0188,2020-11-18,16:32:32,17:05:28,NA,incomplete,175,number,1,left,Green_Circle_Stripes_1.jpg,Blue_Plus_Dots_1.jpg,Green_Triangle_Chess_2.jpg,left,1351.4399998821318,true,high,false
1RgBTnjW,3lvtfb9df8vfwjy33dzq8w9nvhnqgc,3k4j6m3cxi6pwnpg5j767gqa48nga3,1RgBTnjW,2020-0188,2020-11-18,16:32:32,17:05:28,NA,incomplete,176,number,1,right,Blue_Circle_Grid_1.jpg,Blue_Star_Dots_2.jpg,Green_Plus_Stripes_1.jpg,right,1129.5199999585748,true,high,false
1RgBTnjW,3lvtfb9df8vfwjy33dzq8w9nvhnqgc,3k4j6m3cxi6pwnpg5j767gqa48nga3,1RgBTnjW,2020-0188,2020-11-18,16:32:32,17:05:28,NA,incomplete,177,number,1,left,Green_Star_Dots_2.jpg,Blue_Circle_Stripes_2.jpg,Green_Plus_Chess_4.jpg,left,1478.279999922961,true,high,false
1RgBTnjW,3lvtfb9df8vfwjy33dzq8w9nvhnqgc,3k4j6m3cxi6pwnpg5j767gqa48nga3,1RgBTnjW,2020-0188,2020-11-18,16:32:32,17:05:28,NA,incomplete,178,number,0,right,Purple_Circle_Chess_2.jpg,Purple_Star_Dots_1.jpg,Blue_Triangle_Grid_2.jpg,right,840.4449997469783,true,high,false
1RgBTnjW,3lvtfb9df8vfwjy33dzq8w9nvhnqgc,3k4j6m3cxi6pwnpg5j767gqa48nga3,1RgBTnjW,2020-0188,2020-11-18,16:32:32,17:05:28,NA,incomplete,179,number,1,right,Purple_Circle_Chess_1.jpg,Purple_Star_Grid_4.jpg,Green_Triangle_Stripes_1.jpg,left,1761.5050002932549,false,high,false
1RgBTnjW,3lvtfb9df8vfwjy33dzq8w9nvhnqgc,3k4j6m3cxi6pwnpg5j767gqa48nga3,1RgBTnjW,2020-0188,2020-11-18,16:32:32,17:05:28,NA,incomplete,180,color,0,right,Blue_Star_Grid_4.jpg,Green_Plus_Stripes_4.jpg,Blue_Circle_Dots_2.jpg,left,1427.964999806136,false,high,false
1RgBTnjW,3lvtfb9df8vfwjy33dzq8w9nvhnqgc,3k4j6m3cxi6pwnpg5j767gqa48nga3,1RgBTnjW,2020-0188,2020-11-18,16:32:32,17:05:28,NA,incomplete,181,color,1,right,Red_Circle_Stripes_3.jpg,Blue_Plus_Chess_3.jpg,Red_Star_Grid_2.jpg,left,1213.6050001718104,false,high,false
1RgBTnjW,3lvtfb9df8vfwjy33dzq8w9nvhnqgc,3k4j6m3cxi6pwnpg5j767gqa48nga3,1RgBTnjW,2020-0188,2020-11-18,16:32:32,17:05:28,NA,incomplete,182,color,1,right,Green_Plus_Grid_3.jpg,Blue_Star_Chess_3.jpg,Green_Triangle_Dots_1.jpg,right,1568.0949999950826,true,high,false
1RgBTnjW,3lvtfb9df8vfwjy33dzq8w9nvhnqgc,3k4j6m3cxi6pwnpg5j767gqa48nga3,1RgBTnjW,2020-0188,2020-11-18,16:32:32,17:05:28,NA,incomplete,183,color,1,left,Red_Plus_Stripes_4.jpg,Red_Star_Dots_3.jpg,Green_Circle_Grid_4.jpg,left,1085.8599999919534,true,high,false
1RgBTnjW,3lvtfb9df8vfwjy33dzq8w9nvhnqgc,3k4j6m3cxi6pwnpg5j767gqa48nga3,1RgBTnjW,2020-0188,2020-11-18,16:32:32,17:05:28,NA,incomplete,184,color,0,right,Blue_Plus_Grid_2.jpg,Red_Star_Chess_2.jpg,Blue_Circle_Dots_3.jpg,right,1072.5050000473857,true,high,false
1RgBTnjW,3lvtfb9df8vfwjy33dzq8w9nvhnqgc,3k4j6m3cxi6pwnpg5j767gqa48nga3,1RgBTnjW,2020-0188,2020-11-18,16:32:32,17:05:28,NA,incomplete,185,color,1,right,Red_Plus_Chess_3.jpg,Purple_Circle_Stripes_3.jpg,Red_Triangle_Dots_2.jpg,left,1631.6650002263486,false,high,false
1RgBTnjW,3lvtfb9df8vfwjy33dzq8w9nvhnqgc,3k4j6m3cxi6pwnpg5j767gqa48nga3,1RgBTnjW,2020-0188,2020-11-18,16:32:32,17:05:28,NA,incomplete,186,color,1,left,Red_Circle_Stripes_4.jpg,Red_Plus_Grid_3.jpg,Blue_Star_Chess_4.jpg,right,1253.339999821037,false,high,false
1RgBTnjW,3lvtfb9df8vfwjy33dzq8w9nvhnqgc,3k4j6m3cxi6pwnpg5j767gqa48nga3,1RgBTnjW,2020-0188,2020-11-18,16:32:32,17:05:28,NA,incomplete,187,color,1,left,Red_Circle_Dots_4.jpg,Red_Triangle_Grid_1.jpg,Green_Plus_Chess_4.jpg,right,829.0450000204146,false,high,false
1RgBTnjW,3lvtfb9df8vfwjy33dzq8w9nvhnqgc,3k4j6m3cxi6pwnpg5j767gqa48nga3,1RgBTnjW,2020-0188,2020-11-18,16:32:32,17:05:28,NA,incomplete,188,color,1,left,Blue_Triangle_Dots_2.jpg,Blue_Circle_Grid_3.jpg,Green_Plus_Stripes_2.jpg,left,1528.0849998816848,true,high,false
1RgBTnjW,3lvtfb9df8vfwjy33dzq8w9nvhnqgc,3k4j6m3cxi6pwnpg5j767gqa48nga3,1RgBTnjW,2020-0188,2020-11-18,16:32:32,17:05:28,NA,incomplete,189,color,1,right,Blue_Circle_Chess_2.jpg,Green_Star_Stripes_2.jpg,Blue_Plus_Grid_4.jpg,left,1091.7699998244643,false,high,false
1RgBTnjW,3lvtfb9df8vfwjy33dzq8w9nvhnqgc,3k4j6m3cxi6pwnpg5j767gqa48nga3,1RgBTnjW,2020-0188,2020-11-18,16:32:32,17:05:28,NA,incomplete,190,color,1,right,Green_Triangle_Grid_4.jpg,Purple_Circle_Dots_4.jpg,Green_Plus_Stripes_3.jpg,right,1171.3950000703335,true,high,false
1RgBTnjW,3lvtfb9df8vfwjy33dzq8w9nvhnqgc,3k4j6m3cxi6pwnpg5j767gqa48nga3,1RgBTnjW,2020-0188,2020-11-18,16:32:32,17:05:28,NA,incomplete,191,color,1,left,Purple_Star_Grid_2.jpg,Purple_Triangle_Chess_1.jpg,Green_Plus_Stripes_2.jpg,left,899.0699998103082,true,high,false
1RgBTnjW,3lvtfb9df8vfwjy33dzq8w9nvhnqgc,3k4j6m3cxi6pwnpg5j767gqa48nga3,1RgBTnjW,2020-0188,2020-11-18,16:32:32,17:05:28,NA,incomplete,192,color,1,left,Red_Triangle_Grid_3.jpg,Red_Plus_Dots_1.jpg,Purple_Circle_Stripes_3.jpg,left,690.3099999763072,true,high,false
1RgBTnjW,3lvtfb9df8vfwjy33dzq8w9nvhnqgc,3k4j6m3cxi6pwnpg5j767gqa48nga3,1RgBTnjW,2020-0188,2020-11-18,16:32:32,17:05:28,NA,incomplete,193,color,0,right,Red_Circle_Grid_3.jpg,Green_Plus_Stripes_3.jpg,Red_Star_Dots_2.jpg,right,826.1150000616908,true,high,false
1RgBTnjW,3lvtfb9df8vfwjy33dzq8w9nvhnqgc,3k4j6m3cxi6pwnpg5j767gqa48nga3,1RgBTnjW,2020-0188,2020-11-18,16:32:32,17:05:28,NA,incomplete,194,color,1,left,Green_Circle_Grid_4.jpg,Green_Plus_Dots_3.jpg,Purple_Star_Stripes_4.jpg,left,1592.9749999195337,true,high,false
1RgBTnjW,3lvtfb9df8vfwjy33dzq8w9nvhnqgc,3k4j6m3cxi6pwnpg5j767gqa48nga3,1RgBTnjW,2020-0188,2020-11-18,16:32:32,17:05:28,NA,incomplete,195,color,1,left,Green_Circle_Stripes_4.jpg,Green_Triangle_Dots_3.jpg,Red_Plus_Grid_4.jpg,left,1052.5899999774992,true,high,false
1RgBTnjW,3lvtfb9df8vfwjy33dzq8w9nvhnqgc,3k4j6m3cxi6pwnpg5j767gqa48nga3,1RgBTnjW,2020-0188,2020-11-18,16:32:32,17:05:28,NA,incomplete,196,color,1,left,Blue_Star_Stripes_1.jpg,Blue_Circle_Grid_2.jpg,Purple_Plus_Chess_1.jpg,left,886.0250003635883,true,high,false
1RgBTnjW,3lvtfb9df8vfwjy33dzq8w9nvhnqgc,3k4j6m3cxi6pwnpg5j767gqa48nga3,1RgBTnjW,2020-0188,2020-11-18,16:32:32,17:05:28,NA,incomplete,197,color,1,right,Blue_Star_Grid_2.jpg,Purple_Triangle_Stripes_2.jpg,Blue_Circle_Dots_1.jpg,right,855.6299996562302,true,high,false
1RgBTnjW,3lvtfb9df8vfwjy33dzq8w9nvhnqgc,3k4j6m3cxi6pwnpg5j767gqa48nga3,1RgBTnjW,2020-0188,2020-11-18,16:32:32,17:05:28,NA,incomplete,198,color,1,left,Red_Circle_Grid_1.jpg,Red_Triangle_Chess_3.jpg,Green_Star_Dots_1.jpg,left,957.6099999248981,true,high,false
1RgBTnjW,3lvtfb9df8vfwjy33dzq8w9nvhnqgc,3k4j6m3cxi6pwnpg5j767gqa48nga3,1RgBTnjW,2020-0188,2020-11-18,16:32:32,17:05:28,NA,incomplete,199,color,1,left,Blue_Plus_Stripes_3.jpg,Blue_Triangle_Dots_2.jpg,Red_Circle_Chess_3.jpg,left,851.43500007689,true,high,false
1RgBTnjW,3lvtfb9df8vfwjy33dzq8w9nvhnqgc,3k4j6m3cxi6pwnpg5j767gqa48nga3,1RgBTnjW,2020-0188,2020-11-18,16:32:32,17:05:28,NA,incomplete,200,number,1,right,Blue_Star_Stripes_1.jpg,Blue_Plus_Chess_2.jpg,Green_Triangle_Grid_1.jpg,left,811.9500000029802,false,high,false
1RgBTnjW,3lvtfb9df8vfwjy33dzq8w9nvhnqgc,3k4j6m3cxi6pwnpg5j767gqa48nga3,1RgBTnjW,2020-0188,2020-11-18,16:32:32,17:05:28,NA,incomplete,201,number,1,right,Red_Plus_Dots_4.jpg,Red_Circle_Grid_2.jpg,Blue_Star_Chess_4.jpg,right,926.3749998062849,true,high,false
1RgBTnjW,3lvtfb9df8vfwjy33dzq8w9nvhnqgc,3k4j6m3cxi6pwnpg5j767gqa48nga3,1RgBTnjW,2020-0188,2020-11-18,16:32:32,17:05:28,NA,incomplete,202,number,0,right,Blue_Star_Stripes_1.jpg,Blue_Plus_Grid_2.jpg,Green_Circle_Chess_1.jpg,right,1605.7950002141297,true,high,false
1RgBTnjW,3lvtfb9df8vfwjy33dzq8w9nvhnqgc,3k4j6m3cxi6pwnpg5j767gqa48nga3,1RgBTnjW,2020-0188,2020-11-18,16:32:32,17:05:28,NA,incomplete,203,number,1,right,Green_Plus_Chess_2.jpg,Green_Star_Dots_3.jpg,Purple_Triangle_Stripes_2.jpg,right,1758.125000167638,true,high,false
1RgBTnjW,3lvtfb9df8vfwjy33dzq8w9nvhnqgc,3k4j6m3cxi6pwnpg5j767gqa48nga3,1RgBTnjW,2020-0188,2020-11-18,16:32:32,17:05:28,NA,incomplete,204,number,1,right,Green_Star_Grid_2.jpg,Green_Circle_Dots_4.jpg,Purple_Triangle_Chess_2.jpg,right,1001.0400000028312,true,high,false
1RgBTnjW,3lvtfb9df8vfwjy33dzq8w9nvhnqgc,3k4j6m3cxi6pwnpg5j767gqa48nga3,1RgBTnjW,2020-0188,2020-11-18,16:32:32,17:05:28,NA,incomplete,205,number,1,right,Green_Plus_Stripes_1.jpg,Green_Circle_Grid_4.jpg,Purple_Star_Dots_1.jpg,right,927.7500002644956,true,high,false
1RgBTnjW,3lvtfb9df8vfwjy33dzq8w9nvhnqgc,3k4j6m3cxi6pwnpg5j767gqa48nga3,1RgBTnjW,2020-0188,2020-11-18,16:32:32,17:05:28,NA,incomplete,206,number,1,left,Purple_Circle_Dots_3.jpg,Blue_Plus_Stripes_3.jpg,Purple_Triangle_Grid_4.jpg,left,1706.8349998444319,true,high,false
1RgBTnjW,3lvtfb9df8vfwjy33dzq8w9nvhnqgc,3k4j6m3cxi6pwnpg5j767gqa48nga3,1RgBTnjW,2020-0188,2020-11-18,16:32:32,17:05:28,NA,incomplete,207,number,1,left,Purple_Triangle_Grid_3.jpg,Green_Circle_Dots_3.jpg,Purple_Plus_Stripes_1.jpg,left,1134.9349999800324,true,high,false
1RgBTnjW,3lvtfb9df8vfwjy33dzq8w9nvhnqgc,3k4j6m3cxi6pwnpg5j767gqa48nga3,1RgBTnjW,2020-0188,2020-11-18,16:32:32,17:05:28,NA,incomplete,208,number,1,left,Green_Triangle_Chess_3.jpg,Red_Circle_Dots_3.jpg,Green_Star_Stripes_2.jpg,left,1065.749999601394,true,high,false
1RgBTnjW,3lvtfb9df8vfwjy33dzq8w9nvhnqgc,3k4j6m3cxi6pwnpg5j767gqa48nga3,1RgBTnjW,2020-0188,2020-11-18,16:32:32,17:05:28,NA,incomplete,209,number,1,right,Green_Triangle_Dots_1.jpg,Green_Star_Chess_2.jpg,Blue_Plus_Stripes_1.jpg,right,1044.6000001393259,true,high,false
1RgBTnjW,3lvtfb9df8vfwjy33dzq8w9nvhnqgc,3k4j6m3cxi6pwnpg5j767gqa48nga3,1RgBTnjW,2020-0188,2020-11-18,16:32:32,17:05:28,NA,incomplete,210,number,0,left,Blue_Circle_Chess_2.jpg,Purple_Star_Grid_2.jpg,Blue_Triangle_Dots_3.jpg,left,1068.6850002966821,true,high,false
1RgBTnjW,3lvtfb9df8vfwjy33dzq8w9nvhnqgc,3k4j6m3cxi6pwnpg5j767gqa48nga3,1RgBTnjW,2020-0188,2020-11-18,16:32:32,17:05:28,NA,incomplete,211,number,1,left,Red_Star_Dots_3.jpg,Purple_Plus_Chess_3.jpg,Red_Triangle_Stripes_4.jpg,right,752.0399997010827,false,high,false
1RgBTnjW,3lvtfb9df8vfwjy33dzq8w9nvhnqgc,3k4j6m3cxi6pwnpg5j767gqa48nga3,1RgBTnjW,2020-0188,2020-11-18,16:32:32,17:05:28,NA,incomplete,212,number,1,right,Green_Triangle_Grid_4.jpg,Green_Star_Stripes_2.jpg,Blue_Circle_Dots_4.jpg,left,1040.1349999010563,false,high,false
1RgBTnjW,3lvtfb9df8vfwjy33dzq8w9nvhnqgc,3k4j6m3cxi6pwnpg5j767gqa48nga3,1RgBTnjW,2020-0188,2020-11-18,16:32:32,17:05:28,NA,incomplete,213,number,0,left,Red_Circle_Stripes_2.jpg,Green_Plus_Dots_2.jpg,Red_Triangle_Chess_4.jpg,left,1215.4299998655915,true,high,false
1RgBTnjW,3lvtfb9df8vfwjy33dzq8w9nvhnqgc,3k4j6m3cxi6pwnpg5j767gqa48nga3,1RgBTnjW,2020-0188,2020-11-18,16:32:32,17:05:28,NA,incomplete,214,number,1,right,Purple_Circle_Grid_1.jpg,Purple_Triangle_Stripes_4.jpg,Red_Star_Chess_1.jpg,left,1052.9000000096858,false,high,false
1RgBTnjW,3lvtfb9df8vfwjy33dzq8w9nvhnqgc,3k4j6m3cxi6pwnpg5j767gqa48nga3,1RgBTnjW,2020-0188,2020-11-18,16:32:32,17:05:28,NA,incomplete,215,number,0,left,Purple_Star_Chess_4.jpg,Red_Circle_Stripes_4.jpg,Purple_Triangle_Dots_1.jpg,right,1178.929999936372,false,high,false
1RgBTnjW,3lvtfb9df8vfwjy33dzq8w9nvhnqgc,3k4j6m3cxi6pwnpg5j767gqa48nga3,1RgBTnjW,2020-0188,2020-11-18,16:32:32,17:05:28,NA,incomplete,216,number,1,left,Green_Circle_Stripes_4.jpg,Purple_Plus_Grid_4.jpg,Green_Star_Dots_2.jpg,right,865.650000050664,false,high,false
1RgBTnjW,3lvtfb9df8vfwjy33dzq8w9nvhnqgc,3k4j6m3cxi6pwnpg5j767gqa48nga3,1RgBTnjW,2020-0188,2020-11-18,16:32:32,17:05:28,NA,incomplete,217,number,1,left,Green_Star_Grid_1.jpg,Red_Circle_Stripes_1.jpg,Green_Plus_Chess_3.jpg,left,1286.6750000976026,true,high,false
1RgBTnjW,3lvtfb9df8vfwjy33dzq8w9nvhnqgc,3k4j6m3cxi6pwnpg5j767gqa48nga3,1RgBTnjW,2020-0188,2020-11-18,16:32:32,17:05:28,NA,incomplete,218,number,1,right,Red_Circle_Grid_2.jpg,Red_Plus_Chess_1.jpg,Blue_Triangle_Stripes_2.jpg,right,974.9099998734891,true,high,false
1RgBTnjW,3lvtfb9df8vfwjy33dzq8w9nvhnqgc,3k4j6m3cxi6pwnpg5j767gqa48nga3,1RgBTnjW,2020-0188,2020-11-18,16:32:32,17:05:28,NA,incomplete,219,number,1,left,Red_Triangle_Dots_3.jpg,Purple_Plus_Stripes_3.jpg,Red_Star_Grid_2.jpg,left,1188.5100002400577,true,high,false
1RgBTnjW,3lvtfb9df8vfwjy33dzq8w9nvhnqgc,3k4j6m3cxi6pwnpg5j767gqa48nga3,1RgBTnjW,2020-0188,2020-11-18,16:32:32,17:05:28,NA,incomplete,220,color,1,left,Red_Star_Grid_4.jpg,Red_Triangle_Stripes_3.jpg,Blue_Circle_Chess_4.jpg,right,972.28500014171,false,high,false
1RgBTnjW,3lvtfb9df8vfwjy33dzq8w9nvhnqgc,3k4j6m3cxi6pwnpg5j767gqa48nga3,1RgBTnjW,2020-0188,2020-11-18,16:32:32,17:05:28,NA,incomplete,221,color,0,right,Purple_Triangle_Dots_3.jpg,Green_Star_Grid_3.jpg,Purple_Circle_Chess_1.jpg,right,1228.8000001572073,true,high,false
1RgBTnjW,3lvtfb9df8vfwjy33dzq8w9nvhnqgc,3k4j6m3cxi6pwnpg5j767gqa48nga3,1RgBTnjW,2020-0188,2020-11-18,16:32:32,17:05:28,NA,incomplete,222,color,1,right,Red_Triangle_Grid_3.jpg,Blue_Plus_Chess_3.jpg,Red_Circle_Stripes_1.jpg,left,1109.2650000937283,false,high,false
1RgBTnjW,3lvtfb9df8vfwjy33dzq8w9nvhnqgc,3k4j6m3cxi6pwnpg5j767gqa48nga3,1RgBTnjW,2020-0188,2020-11-18,16:32:32,17:05:28,NA,incomplete,223,color,1,right,Red_Star_Chess_4.jpg,Purple_Triangle_Grid_4.jpg,Red_Circle_Dots_1.jpg,right,953.7000004202127,true,high,false
1RgBTnjW,3lvtfb9df8vfwjy33dzq8w9nvhnqgc,3k4j6m3cxi6pwnpg5j767gqa48nga3,1RgBTnjW,2020-0188,2020-11-18,16:32:32,17:05:28,NA,incomplete,224,color,1,right,Green_Triangle_Dots_2.jpg,Blue_Star_Chess_2.jpg,Green_Plus_Stripes_3.jpg,right,1195.5200000666082,true,high,false
1RgBTnjW,3lvtfb9df8vfwjy33dzq8w9nvhnqgc,3k4j6m3cxi6pwnpg5j767gqa48nga3,1RgBTnjW,2020-0188,2020-11-18,16:32:32,17:05:28,NA,incomplete,225,color,1,left,Red_Plus_Stripes_3.jpg,Red_Star_Dots_4.jpg,Purple_Triangle_Grid_3.jpg,left,1586.6249999962747,true,high,false
1RgBTnjW,3lvtfb9df8vfwjy33dzq8w9nvhnqgc,3k4j6m3cxi6pwnpg5j767gqa48nga3,1RgBTnjW,2020-0188,2020-11-18,16:32:32,17:05:28,NA,incomplete,226,color,1,left,Blue_Circle_Dots_3.jpg,Blue_Plus_Grid_4.jpg,Red_Triangle_Chess_3.jpg,left,709.7000000067055,true,high,false
1RgBTnjW,3lvtfb9df8vfwjy33dzq8w9nvhnqgc,3k4j6m3cxi6pwnpg5j767gqa48nga3,1RgBTnjW,2020-0188,2020-11-18,16:32:32,17:05:28,NA,incomplete,227,color,0,right,Purple_Star_Dots_1.jpg,Green_Plus_Grid_1.jpg,Purple_Triangle_Chess_2.jpg,right,1136.6750001907349,true,high,false
1RgBTnjW,3lvtfb9df8vfwjy33dzq8w9nvhnqgc,3k4j6m3cxi6pwnpg5j767gqa48nga3,1RgBTnjW,2020-0188,2020-11-18,16:32:32,17:05:28,NA,incomplete,228,color,1,right,Green_Circle_Dots_3.jpg,Blue_Plus_Chess_3.jpg,Green_Triangle_Stripes_1.jpg,left,881.4049996435642,false,high,false
1RgBTnjW,3lvtfb9df8vfwjy33dzq8w9nvhnqgc,3k4j6m3cxi6pwnpg5j767gqa48nga3,1RgBTnjW,2020-0188,2020-11-18,16:32:32,17:05:28,NA,incomplete,229,color,1,left,Blue_Star_Dots_1.jpg,Blue_Triangle_Stripes_3.jpg,Red_Plus_Chess_1.jpg,right,1312.8850003704429,false,high,false
1RgBTnjW,3lvtfb9df8vfwjy33dzq8w9nvhnqgc,3k4j6m3cxi6pwnpg5j767gqa48nga3,1RgBTnjW,2020-0188,2020-11-18,16:32:32,17:05:28,NA,incomplete,230,color,1,left,Green_Triangle_Dots_2.jpg,Green_Circle_Grid_4.jpg,Red_Star_Stripes_2.jpg,left,1762.1550001204014,true,high,false
1RgBTnjW,3lvtfb9df8vfwjy33dzq8w9nvhnqgc,3k4j6m3cxi6pwnpg5j767gqa48nga3,1RgBTnjW,2020-0188,2020-11-18,16:32:32,17:05:28,NA,incomplete,231,color,0,left,Green_Circle_Stripes_1.jpg,Green_Triangle_Chess_4.jpg,Blue_Star_Dots_1.jpg,left,871.0150001570582,true,high,false
1RgBTnjW,3lvtfb9df8vfwjy33dzq8w9nvhnqgc,3k4j6m3cxi6pwnpg5j767gqa48nga3,1RgBTnjW,2020-0188,2020-11-18,16:32:32,17:05:28,NA,incomplete,232,color,1,left,Purple_Star_Grid_1.jpg,Purple_Circle_Stripes_3.jpg,Green_Plus_Dots_1.jpg,left,1040.9849998541176,true,high,false
1RgBTnjW,3lvtfb9df8vfwjy33dzq8w9nvhnqgc,3k4j6m3cxi6pwnpg5j767gqa48nga3,1RgBTnjW,2020-0188,2020-11-18,16:32:32,17:05:28,NA,incomplete,233,color,1,left,Blue_Star_Stripes_3.jpg,Blue_Plus_Dots_1.jpg,Green_Circle_Chess_3.jpg,left,934.5049997791648,true,high,false
1RgBTnjW,3lvtfb9df8vfwjy33dzq8w9nvhnqgc,3k4j6m3cxi6pwnpg5j767gqa48nga3,1RgBTnjW,2020-0188,2020-11-18,16:32:32,17:05:28,NA,incomplete,234,color,1,left,Purple_Triangle_Stripes_3.jpg,Purple_Plus_Dots_2.jpg,Green_Star_Chess_3.jpg,left,1056.2700000591576,true,high,false
1RgBTnjW,3lvtfb9df8vfwjy33dzq8w9nvhnqgc,3k4j6m3cxi6pwnpg5j767gqa48nga3,1RgBTnjW,2020-0188,2020-11-18,16:32:32,17:05:28,NA,incomplete,235,color,1,right,Red_Star_Dots_2.jpg,Blue_Plus_Grid_2.jpg,Red_Circle_Stripes_4.jpg,right,822.1599999815226,true,high,false
1RgBTnjW,3lvtfb9df8vfwjy33dzq8w9nvhnqgc,3k4j6m3cxi6pwnpg5j767gqa48nga3,1RgBTnjW,2020-0188,2020-11-18,16:32:32,17:05:28,NA,incomplete,236,color,1,left,Green_Circle_Grid_1.jpg,Green_Plus_Dots_2.jpg,Purple_Star_Chess_1.jpg,left,1158.7000000290573,true,high,false
1RgBTnjW,3lvtfb9df8vfwjy33dzq8w9nvhnqgc,3k4j6m3cxi6pwnpg5j767gqa48nga3,1RgBTnjW,2020-0188,2020-11-18,16:32:32,17:05:28,NA,incomplete,237,color,1,left,Green_Plus_Chess_4.jpg,Green_Circle_Stripes_3.jpg,Blue_Star_Grid_4.jpg,left,739.2649999819696,true,high,false
1RgBTnjW,3lvtfb9df8vfwjy33dzq8w9nvhnqgc,3k4j6m3cxi6pwnpg5j767gqa48nga3,1RgBTnjW,2020-0188,2020-11-18,16:32:32,17:05:28,NA,incomplete,238,color,0,left,Purple_Plus_Grid_4.jpg,Purple_Triangle_Chess_2.jpg,Green_Circle_Dots_4.jpg,left,920.6550000235438,true,high,false
1RgBTnjW,3lvtfb9df8vfwjy33dzq8w9nvhnqgc,3k4j6m3cxi6pwnpg5j767gqa48nga3,1RgBTnjW,2020-0188,2020-11-18,16:32:32,17:05:28,NA,incomplete,239,color,1,right,Blue_Triangle_Dots_2.jpg,Red_Star_Chess_2.jpg,Blue_Circle_Stripes_3.jpg,left,859.4650002196431,false,high,false
1RgBTnjW,3lvtfb9df8vfwjy33dzq8w9nvhnqgc,3k4j6m3cxi6pwnpg5j767gqa48nga3,1RgBTnjW,2020-0188,2020-11-18,16:32:32,17:05:28,NA,NA,instruction example,filling,NA,NA,Purple_Triangle_Chess_1.jpg,Red_Circle_Chess_3.jpg,Blue_Triangle_Dots_4.jpg,NA,NA,NA,NA,undefined
1RgBTnjW,3lvtfb9df8vfwjy33dzq8w9nvhnqgc,3k4j6m3cxi6pwnpg5j767gqa48nga3,1RgBTnjW,2020-0188,2020-11-18,16:32:32,17:05:28,NA,NA,instruction example,filling,NA,NA,Green_Triangle_Dots_3.jpg,Purple_Triangle_Chess_1.jpg,Blue_Plus_Dots_2.jpg,NA,NA,NA,NA,undefined
1RgBTnjW,3lvtfb9df8vfwjy33dzq8w9nvhnqgc,3k4j6m3cxi6pwnpg5j767gqa48nga3,1RgBTnjW,2020-0188,2020-11-18,16:32:32,17:05:28,NA,NA,instruction example,filling,NA,NA,Blue_Circle_Chess_1.jpg,Red_Star_Grid_1.jpg,Blue_Triangle_Stripes_3.jpg,NA,NA,NA,NA,undefined
1RgBTnjW,3lvtfb9df8vfwjy33dzq8w9nvhnqgc,3k4j6m3cxi6pwnpg5j767gqa48nga3,1RgBTnjW,2020-0188,2020-11-18,16:32:32,17:05:28,NA,NA,instruction example,filling,NA,NA,Red_Plus_Dots_4.jpg,Red_Star_Stripes_3.jpg,Green_Triangle_Grid_4.jpg,NA,NA,NA,NA,undefined
1RgBTnjW,3lvtfb9df8vfwjy33dzq8w9nvhnqgc,3k4j6m3cxi6pwnpg5j767gqa48nga3,1RgBTnjW,2020-0188,2020-11-18,16:32:32,17:05:28,1938887.714999728,1980606.1599999666,NA,NA,NA,NA,NA,NA,NA,NA,NA,NA,NA,undefined
