workerId,hitId,assignmentId,subject,studyid,exp_date,exp_start,exp_end,time_start,time_end,trial,type,reward_validity,answer,image_top,image_left,image_right,response,response_time,response_acc,volatility,age,race,gender,ethnicity,color,vision,neuro,practice
IBG6V1I2,3r15w654wg6vibc4e4w6loevry9lqd,3kkg4cdwkmbvfomricr52win8lt49m,IBG6V1I2,2020-0188,2020-11-18,17:46:41,18:09:42,NA,incomplete,0,color,0,right,Green_Plus_Chess_4.jpg,Red_Star_Chess_1.jpg,Green_Circle_Grid_2.jpg,right,1288.0700000005309,true,NA,NA,NA,NA,NA,NA,NA,NA,true
IBG6V1I2,3r15w654wg6vibc4e4w6loevry9lqd,3kkg4cdwkmbvfomricr52win8lt49m,IBG6V1I2,2020-0188,2020-11-18,17:46:41,18:09:42,NA,incomplete,1,color,0,right,Green_Star_Stripes_3.jpg,Purple_Plus_Stripes_2.jpg,Green_Circle_Chess_1.jpg,right,678.0500000003958,true,NA,NA,NA,NA,NA,NA,NA,NA,true
IBG6V1I2,3r15w654wg6vibc4e4w6loevry9lqd,3kkg4cdwkmbvfomricr52win8lt49m,IBG6V1I2,2020-0188,2020-11-18,17:46:41,18:09:42,NA,incomplete,2,color,1,right,Blue_Star_Grid_2.jpg,Purple_Circle_Grid_4.jpg,Blue_Triangle_Dots_1.jpg,right,849.1699999994598,true,NA,NA,NA,NA,NA,NA,NA,NA,true
IBG6V1I2,3r15w654wg6vibc4e4w6loevry9lqd,3kkg4cdwkmbvfomricr52win8lt49m,IBG6V1I2,2020-0188,2020-11-18,17:46:41,18:09:42,NA,incomplete,3,color,1,right,Purple_Triangle_Dots_4.jpg,Blue_Circle_Dots_2.jpg,Purple_Plus_Stripes_1.jpg,right,1080.5899999996182,true,NA,NA,NA,NA,NA,NA,NA,NA,true
IBG6V1I2,3r15w654wg6vibc4e4w6loevry9lqd,3kkg4cdwkmbvfomricr52win8lt49m,IBG6V1I2,2020-0188,2020-11-18,17:46:41,18:09:42,NA,incomplete,4,color,1,left,Purple_Plus_Chess_1.jpg,Purple_Triangle_Grid_2.jpg,Green_Star_Chess_3.jpg,left,580.1800000008661,true,NA,NA,NA,NA,NA,NA,NA,NA,true
IBG6V1I2,3r15w654wg6vibc4e4w6loevry9lqd,3kkg4cdwkmbvfomricr52win8lt49m,IBG6V1I2,2020-0188,2020-11-18,17:46:41,18:09:42,NA,incomplete,5,color,0,right,Blue_Plus_Stripes_4.jpg,Green_Triangle_Stripes_2.jpg,Blue_Star_Dots_3.jpg,right,580.7850000000326,true,NA,NA,NA,NA,NA,NA,NA,NA,true
IBG6V1I2,3r15w654wg6vibc4e4w6loevry9lqd,3kkg4cdwkmbvfomricr52win8lt49m,IBG6V1I2,2020-0188,2020-11-18,17:46:41,18:09:42,NA,incomplete,6,color,1,left,Blue_Triangle_Chess_3.jpg,Blue_Circle_Stripes_2.jpg,Green_Star_Chess_4.jpg,left,816.2400000001071,true,NA,NA,NA,NA,NA,NA,NA,NA,true
IBG6V1I2,3r15w654wg6vibc4e4w6loevry9lqd,3kkg4cdwkmbvfomricr52win8lt49m,IBG6V1I2,2020-0188,2020-11-18,17:46:41,18:09:42,NA,incomplete,7,color,1,right,Green_Star_Dots_2.jpg,Purple_Plus_Dots_1.jpg,Green_Triangle_Chess_4.jpg,right,654.4450000000652,true,NA,NA,NA,NA,NA,NA,NA,NA,true
IBG6V1I2,3r15w654wg6vibc4e4w6loevry9lqd,3kkg4cdwkmbvfomricr52win8lt49m,IBG6V1I2,2020-0188,2020-11-18,17:46:41,18:09:42,NA,incomplete,8,color,1,right,Purple_Circle_Grid_3.jpg,Green_Star_Grid_4.jpg,Purple_Triangle_Chess_2.jpg,right,737.1650000005029,true,NA,NA,NA,NA,NA,NA,NA,NA,true
IBG6V1I2,3r15w654wg6vibc4e4w6loevry9lqd,3kkg4cdwkmbvfomricr52win8lt49m,IBG6V1I2,2020-0188,2020-11-18,17:46:41,18:09:42,NA,incomplete,9,color,1,left,Green_Triangle_Dots_2.jpg,Green_Plus_Chess_3.jpg,Red_Star_Dots_1.jpg,left,638.2299999987008,true,NA,NA,NA,NA,NA,NA,NA,NA,true
IBG6V1I2,3r15w654wg6vibc4e4w6loevry9lqd,3kkg4cdwkmbvfomricr52win8lt49m,IBG6V1I2,2020-0188,2020-11-18,17:46:41,18:09:42,NA,incomplete,10,color,1,right,Blue_Triangle_Dots_3.jpg,Green_Plus_Dots_4.jpg,Blue_Star_Chess_2.jpg,right,608.5750000003027,true,NA,NA,NA,NA,NA,NA,NA,NA,true
IBG6V1I2,3r15w654wg6vibc4e4w6loevry9lqd,3kkg4cdwkmbvfomricr52win8lt49m,IBG6V1I2,2020-0188,2020-11-18,17:46:41,18:09:42,NA,incomplete,11,color,1,left,Green_Circle_Grid_4.jpg,Green_Triangle_Dots_3.jpg,Red_Plus_Grid_2.jpg,left,666.8250000001863,true,NA,NA,NA,NA,NA,NA,NA,NA,true
IBG6V1I2,3r15w654wg6vibc4e4w6loevry9lqd,3kkg4cdwkmbvfomricr52win8lt49m,IBG6V1I2,2020-0188,2020-11-18,17:46:41,18:09:42,NA,incomplete,12,color,0,left,Blue_Star_Grid_2.jpg,Blue_Circle_Dots_4.jpg,Purple_Triangle_Grid_1.jpg,left,763.1099999998696,true,NA,NA,NA,NA,NA,NA,NA,NA,true
IBG6V1I2,3r15w654wg6vibc4e4w6loevry9lqd,3kkg4cdwkmbvfomricr52win8lt49m,IBG6V1I2,2020-0188,2020-11-18,17:46:41,18:09:42,NA,incomplete,13,color,1,left,Purple_Circle_Dots_4.jpg,Purple_Triangle_Chess_2.jpg,Red_Plus_Dots_1.jpg,left,1191.0150000003632,true,NA,NA,NA,NA,NA,NA,NA,NA,true
IBG6V1I2,3r15w654wg6vibc4e4w6loevry9lqd,3kkg4cdwkmbvfomricr52win8lt49m,IBG6V1I2,2020-0188,2020-11-18,17:46:41,18:09:42,NA,incomplete,14,color,1,right,Purple_Triangle_Stripes_2.jpg,Red_Circle_Stripes_3.jpg,Purple_Plus_Chess_1.jpg,right,532.1800000000512,true,NA,NA,NA,NA,NA,NA,NA,NA,true
IBG6V1I2,3r15w654wg6vibc4e4w6loevry9lqd,3kkg4cdwkmbvfomricr52win8lt49m,IBG6V1I2,2020-0188,2020-11-18,17:46:41,18:09:42,NA,incomplete,15,color,1,left,Green_Star_Dots_4.jpg,Green_Plus_Stripes_1.jpg,Blue_Circle_Dots_3.jpg,left,593.1249999995343,true,NA,NA,NA,NA,NA,NA,NA,NA,true
IBG6V1I2,3r15w654wg6vibc4e4w6loevry9lqd,3kkg4cdwkmbvfomricr52win8lt49m,IBG6V1I2,2020-0188,2020-11-18,17:46:41,18:09:42,NA,incomplete,16,color,1,left,Blue_Circle_Stripes_4.jpg,Blue_Triangle_Dots_1.jpg,Purple_Star_Stripes_2.jpg,left,756.8350000001956,true,NA,NA,NA,NA,NA,NA,NA,NA,true
IBG6V1I2,3r15w654wg6vibc4e4w6loevry9lqd,3kkg4cdwkmbvfomricr52win8lt49m,IBG6V1I2,2020-0188,2020-11-18,17:46:41,18:09:42,NA,incomplete,17,color,1,left,Green_Circle_Chess_4.jpg,Green_Triangle_Stripes_1.jpg,Blue_Star_Chess_2.jpg,left,700.2650000012945,true,NA,NA,NA,NA,NA,NA,NA,NA,true
IBG6V1I2,3r15w654wg6vibc4e4w6loevry9lqd,3kkg4cdwkmbvfomricr52win8lt49m,IBG6V1I2,2020-0188,2020-11-18,17:46:41,18:09:42,NA,incomplete,18,color,1,left,Red_Star_Stripes_4.jpg,Red_Plus_Grid_1.jpg,Purple_Triangle_Stripes_3.jpg,left,847.3649999996414,true,NA,NA,NA,NA,NA,NA,NA,NA,true
IBG6V1I2,3r15w654wg6vibc4e4w6loevry9lqd,3kkg4cdwkmbvfomricr52win8lt49m,IBG6V1I2,2020-0188,2020-11-18,17:46:41,18:09:42,NA,incomplete,19,color,1,left,Blue_Star_Chess_1.jpg,Blue_Circle_Dots_2.jpg,Purple_Triangle_Chess_3.jpg,left,818.5450000001583,true,NA,NA,NA,NA,NA,NA,NA,NA,true
IBG6V1I2,3r15w654wg6vibc4e4w6loevry9lqd,3kkg4cdwkmbvfomricr52win8lt49m,IBG6V1I2,2020-0188,2020-11-18,17:46:41,18:09:42,NA,incomplete,20,filling,1,left,Purple_Star_Dots_3.jpg,Green_Plus_Dots_2.jpg,Purple_Triangle_Stripes_4.jpg,right,1032.6799999985378,false,NA,NA,NA,NA,NA,NA,NA,NA,true
IBG6V1I2,3r15w654wg6vibc4e4w6loevry9lqd,3kkg4cdwkmbvfomricr52win8lt49m,IBG6V1I2,2020-0188,2020-11-18,17:46:41,18:09:42,NA,incomplete,21,filling,0,right,Purple_Circle_Dots_4.jpg,Purple_Plus_Stripes_2.jpg,Green_Star_Dots_1.jpg,right,1332.0650000005262,true,NA,NA,NA,NA,NA,NA,NA,NA,true
IBG6V1I2,3r15w654wg6vibc4e4w6loevry9lqd,3kkg4cdwkmbvfomricr52win8lt49m,IBG6V1I2,2020-0188,2020-11-18,17:46:41,18:09:42,NA,incomplete,22,filling,0,right,Purple_Circle_Stripes_3.jpg,Purple_Plus_Chess_1.jpg,Blue_Star_Stripes_4.jpg,right,1776.0000000016298,true,NA,NA,NA,NA,NA,NA,NA,NA,true
IBG6V1I2,3r15w654wg6vibc4e4w6loevry9lqd,3kkg4cdwkmbvfomricr52win8lt49m,IBG6V1I2,2020-0188,2020-11-18,17:46:41,18:09:42,NA,incomplete,23,filling,1,right,Red_Star_Grid_2.jpg,Red_Plus_Stripes_1.jpg,Blue_Circle_Grid_4.jpg,none,0,false,NA,NA,NA,NA,NA,NA,NA,NA,true
IBG6V1I2,3r15w654wg6vibc4e4w6loevry9lqd,3kkg4cdwkmbvfomricr52win8lt49m,IBG6V1I2,2020-0188,2020-11-18,17:46:41,18:09:42,NA,incomplete,24,filling,1,left,Blue_Plus_Chess_4.jpg,Green_Circle_Chess_2.jpg,Blue_Star_Stripes_3.jpg,left,1263.7500000001164,true,NA,NA,NA,NA,NA,NA,NA,NA,true
IBG6V1I2,3r15w654wg6vibc4e4w6loevry9lqd,3kkg4cdwkmbvfomricr52win8lt49m,IBG6V1I2,2020-0188,2020-11-18,17:46:41,18:09:42,NA,incomplete,25,filling,1,right,Purple_Star_Chess_1.jpg,Purple_Circle_Grid_3.jpg,Blue_Plus_Chess_2.jpg,right,1332.7950000002747,true,NA,NA,NA,NA,NA,NA,NA,NA,true
IBG6V1I2,3r15w654wg6vibc4e4w6loevry9lqd,3kkg4cdwkmbvfomricr52win8lt49m,IBG6V1I2,2020-0188,2020-11-18,17:46:41,18:09:42,NA,incomplete,26,filling,1,right,Red_Circle_Dots_4.jpg,Red_Plus_Chess_1.jpg,Purple_Star_Dots_3.jpg,right,1228.440000000759,true,NA,NA,NA,NA,NA,NA,NA,NA,true
IBG6V1I2,3r15w654wg6vibc4e4w6loevry9lqd,3kkg4cdwkmbvfomricr52win8lt49m,IBG6V1I2,2020-0188,2020-11-18,17:46:41,18:09:42,NA,incomplete,27,filling,1,right,Purple_Circle_Chess_2.jpg,Purple_Plus_Stripes_1.jpg,Red_Star_Chess_3.jpg,right,1359.0750000003027,true,NA,NA,NA,NA,NA,NA,NA,NA,true
IBG6V1I2,3r15w654wg6vibc4e4w6loevry9lqd,3kkg4cdwkmbvfomricr52win8lt49m,IBG6V1I2,2020-0188,2020-11-18,17:46:41,18:09:42,NA,incomplete,28,filling,1,left,Blue_Plus_Dots_1.jpg,Red_Triangle_Dots_3.jpg,Blue_Star_Chess_4.jpg,left,1270.1799999995856,true,NA,NA,NA,NA,NA,NA,NA,NA,true
IBG6V1I2,3r15w654wg6vibc4e4w6loevry9lqd,3kkg4cdwkmbvfomricr52win8lt49m,IBG6V1I2,2020-0188,2020-11-18,17:46:41,18:09:42,NA,incomplete,29,filling,1,right,Purple_Plus_Grid_4.jpg,Purple_Star_Stripes_2.jpg,Red_Circle_Grid_1.jpg,right,1273.7950000009732,true,NA,NA,NA,NA,NA,NA,NA,NA,true
IBG6V1I2,3r15w654wg6vibc4e4w6loevry9lqd,3kkg4cdwkmbvfomricr52win8lt49m,IBG6V1I2,2020-0188,2020-11-18,17:46:41,18:09:42,NA,incomplete,30,filling,1,right,Purple_Triangle_Chess_1.jpg,Purple_Star_Stripes_4.jpg,Blue_Plus_Chess_3.jpg,right,1393.3800000012852,true,NA,NA,NA,NA,NA,NA,NA,NA,true
IBG6V1I2,3r15w654wg6vibc4e4w6loevry9lqd,3kkg4cdwkmbvfomricr52win8lt49m,IBG6V1I2,2020-0188,2020-11-18,17:46:41,18:09:42,NA,incomplete,31,filling,1,left,Blue_Star_Chess_1.jpg,Purple_Circle_Chess_4.jpg,Blue_Plus_Grid_3.jpg,left,1293.2949999994598,true,NA,NA,NA,NA,NA,NA,NA,NA,true
IBG6V1I2,3r15w654wg6vibc4e4w6loevry9lqd,3kkg4cdwkmbvfomricr52win8lt49m,IBG6V1I2,2020-0188,2020-11-18,17:46:41,18:09:42,NA,incomplete,32,filling,0,left,Purple_Circle_Dots_4.jpg,Red_Star_Dots_2.jpg,Purple_Plus_Grid_3.jpg,left,1132.8450000000885,true,NA,NA,NA,NA,NA,NA,NA,NA,true
IBG6V1I2,3r15w654wg6vibc4e4w6loevry9lqd,3kkg4cdwkmbvfomricr52win8lt49m,IBG6V1I2,2020-0188,2020-11-18,17:46:41,18:09:42,NA,incomplete,33,filling,1,right,Purple_Star_Chess_1.jpg,Purple_Plus_Stripes_4.jpg,Blue_Circle_Chess_3.jpg,right,1474.3749999997672,true,NA,NA,NA,NA,NA,NA,NA,NA,true
IBG6V1I2,3r15w654wg6vibc4e4w6loevry9lqd,3kkg4cdwkmbvfomricr52win8lt49m,IBG6V1I2,2020-0188,2020-11-18,17:46:41,18:09:42,NA,incomplete,34,filling,1,right,Blue_Triangle_Dots_2.jpg,Blue_Star_Grid_4.jpg,Purple_Plus_Dots_1.jpg,right,1032.660000000731,true,NA,NA,NA,NA,NA,NA,NA,NA,true
IBG6V1I2,3r15w654wg6vibc4e4w6loevry9lqd,3kkg4cdwkmbvfomricr52win8lt49m,IBG6V1I2,2020-0188,2020-11-18,17:46:41,18:09:42,NA,incomplete,35,filling,0,right,Green_Circle_Chess_2.jpg,Green_Plus_Grid_4.jpg,Red_Triangle_Chess_3.jpg,right,1345.4799999999814,true,NA,NA,NA,NA,NA,NA,NA,NA,true
IBG6V1I2,3r15w654wg6vibc4e4w6loevry9lqd,3kkg4cdwkmbvfomricr52win8lt49m,IBG6V1I2,2020-0188,2020-11-18,17:46:41,18:09:42,NA,incomplete,36,filling,1,right,Green_Triangle_Dots_2.jpg,Green_Star_Grid_1.jpg,Red_Circle_Dots_4.jpg,right,1138.6949999995995,true,NA,NA,NA,NA,NA,NA,NA,NA,true
IBG6V1I2,3r15w654wg6vibc4e4w6loevry9lqd,3kkg4cdwkmbvfomricr52win8lt49m,IBG6V1I2,2020-0188,2020-11-18,17:46:41,18:09:42,NA,incomplete,37,filling,1,left,Green_Triangle_Grid_1.jpg,Blue_Circle_Grid_4.jpg,Green_Plus_Chess_2.jpg,left,1174.1349999993108,true,NA,NA,NA,NA,NA,NA,NA,NA,true
IBG6V1I2,3r15w654wg6vibc4e4w6loevry9lqd,3kkg4cdwkmbvfomricr52win8lt49m,IBG6V1I2,2020-0188,2020-11-18,17:46:41,18:09:42,NA,incomplete,38,filling,1,left,Red_Star_Dots_1.jpg,Purple_Plus_Dots_3.jpg,Red_Triangle_Chess_4.jpg,left,1174.6250000015134,true,NA,NA,NA,NA,NA,NA,NA,NA,true
IBG6V1I2,3r15w654wg6vibc4e4w6loevry9lqd,3kkg4cdwkmbvfomricr52win8lt49m,IBG6V1I2,2020-0188,2020-11-18,17:46:41,18:09:42,NA,incomplete,39,filling,1,left,Green_Circle_Dots_2.jpg,Blue_Triangle_Dots_1.jpg,Green_Star_Grid_4.jpg,left,1128.3700000003446,true,NA,NA,NA,NA,NA,NA,NA,NA,true
IBG6V1I2,3r15w654wg6vibc4e4w6loevry9lqd,3kkg4cdwkmbvfomricr52win8lt49m,IBG6V1I2,2020-0188,2020-11-18,17:46:41,18:09:42,NA,incomplete,0,color,1,left,Red_Triangle_Grid_4.jpg,Red_Star_Chess_3.jpg,Blue_Circle_Grid_2.jpg,left,1498.1200000002282,true,high,NA,NA,NA,NA,NA,NA,NA,false
IBG6V1I2,3r15w654wg6vibc4e4w6loevry9lqd,3kkg4cdwkmbvfomricr52win8lt49m,IBG6V1I2,2020-0188,2020-11-18,17:46:41,18:09:42,NA,incomplete,1,color,0,right,Purple_Triangle_Chess_4.jpg,Green_Star_Chess_3.jpg,Purple_Circle_Dots_2.jpg,right,608.2900000001537,true,high,NA,NA,NA,NA,NA,NA,NA,false
IBG6V1I2,3r15w654wg6vibc4e4w6loevry9lqd,3kkg4cdwkmbvfomricr52win8lt49m,IBG6V1I2,2020-0188,2020-11-18,17:46:41,18:09:42,NA,incomplete,2,color,1,right,Green_Plus_Chess_4.jpg,Red_Star_Chess_1.jpg,Green_Triangle_Stripes_3.jpg,right,777.0149999996647,true,high,NA,NA,NA,NA,NA,NA,NA,false
IBG6V1I2,3r15w654wg6vibc4e4w6loevry9lqd,3kkg4cdwkmbvfomricr52win8lt49m,IBG6V1I2,2020-0188,2020-11-18,17:46:41,18:09:42,NA,incomplete,3,color,1,left,Blue_Circle_Stripes_2.jpg,Blue_Star_Grid_3.jpg,Purple_Plus_Stripes_1.jpg,left,717.964999999851,true,high,NA,NA,NA,NA,NA,NA,NA,false
IBG6V1I2,3r15w654wg6vibc4e4w6loevry9lqd,3kkg4cdwkmbvfomricr52win8lt49m,IBG6V1I2,2020-0188,2020-11-18,17:46:41,18:09:42,NA,incomplete,4,color,1,left,Purple_Triangle_Chess_1.jpg,Purple_Circle_Dots_2.jpg,Blue_Plus_Chess_4.jpg,left,679.6049999993993,true,high,NA,NA,NA,NA,NA,NA,NA,false
IBG6V1I2,3r15w654wg6vibc4e4w6loevry9lqd,3kkg4cdwkmbvfomricr52win8lt49m,IBG6V1I2,2020-0188,2020-11-18,17:46:41,18:09:42,NA,incomplete,5,color,1,left,Purple_Circle_Grid_1.jpg,Purple_Triangle_Chess_2.jpg,Red_Star_Grid_4.jpg,left,580.2899999998044,true,high,NA,NA,NA,NA,NA,NA,NA,false
IBG6V1I2,3r15w654wg6vibc4e4w6loevry9lqd,3kkg4cdwkmbvfomricr52win8lt49m,IBG6V1I2,2020-0188,2020-11-18,17:46:41,18:09:42,NA,incomplete,6,color,1,left,Green_Plus_Chess_3.jpg,Green_Triangle_Stripes_1.jpg,Purple_Circle_Chess_2.jpg,left,580.124999998603,true,high,NA,NA,NA,NA,NA,NA,NA,false
IBG6V1I2,3r15w654wg6vibc4e4w6loevry9lqd,3kkg4cdwkmbvfomricr52win8lt49m,IBG6V1I2,2020-0188,2020-11-18,17:46:41,18:09:42,NA,incomplete,7,color,0,left,Blue_Triangle_Chess_4.jpg,Blue_Circle_Grid_2.jpg,Red_Star_Chess_1.jpg,left,640.8499999997439,true,high,NA,NA,NA,NA,NA,NA,NA,false
IBG6V1I2,3r15w654wg6vibc4e4w6loevry9lqd,3kkg4cdwkmbvfomricr52win8lt49m,IBG6V1I2,2020-0188,2020-11-18,17:46:41,18:09:42,NA,incomplete,8,color,1,left,Red_Star_Grid_3.jpg,Red_Triangle_Chess_4.jpg,Green_Plus_Grid_1.jpg,right,1468.1350000009406,false,high,NA,NA,NA,NA,NA,NA,NA,false
IBG6V1I2,3r15w654wg6vibc4e4w6loevry9lqd,3kkg4cdwkmbvfomricr52win8lt49m,IBG6V1I2,2020-0188,2020-11-18,17:46:41,18:09:42,NA,incomplete,9,color,1,left,Purple_Circle_Stripes_1.jpg,Purple_Triangle_Grid_4.jpg,Green_Plus_Stripes_2.jpg,left,656.4150000013178,true,high,NA,NA,NA,NA,NA,NA,NA,false
IBG6V1I2,3r15w654wg6vibc4e4w6loevry9lqd,3kkg4cdwkmbvfomricr52win8lt49m,IBG6V1I2,2020-0188,2020-11-18,17:46:41,18:09:42,NA,incomplete,10,filling,0,left,Red_Circle_Dots_4.jpg,Blue_Star_Dots_3.jpg,Red_Plus_Chess_1.jpg,right,859.9950000006938,false,high,NA,NA,NA,NA,NA,NA,NA,false
IBG6V1I2,3r15w654wg6vibc4e4w6loevry9lqd,3kkg4cdwkmbvfomricr52win8lt49m,IBG6V1I2,2020-0188,2020-11-18,17:46:41,18:09:42,NA,incomplete,11,filling,1,left,Red_Star_Dots_2.jpg,Green_Circle_Dots_3.jpg,Red_Triangle_Stripes_4.jpg,right,616.925000000163,false,high,NA,NA,NA,NA,NA,NA,NA,false
IBG6V1I2,3r15w654wg6vibc4e4w6loevry9lqd,3kkg4cdwkmbvfomricr52win8lt49m,IBG6V1I2,2020-0188,2020-11-18,17:46:41,18:09:42,NA,incomplete,12,filling,1,right,Green_Star_Stripes_1.jpg,Green_Triangle_Chess_4.jpg,Purple_Circle_Stripes_3.jpg,left,901.3949999988545,false,high,NA,NA,NA,NA,NA,NA,NA,false
IBG6V1I2,3r15w654wg6vibc4e4w6loevry9lqd,3kkg4cdwkmbvfomricr52win8lt49m,IBG6V1I2,2020-0188,2020-11-18,17:46:41,18:09:42,NA,incomplete,13,filling,0,left,Purple_Plus_Stripes_4.jpg,Blue_Triangle_Stripes_3.jpg,Purple_Star_Chess_2.jpg,left,1082.4950000005774,true,high,NA,NA,NA,NA,NA,NA,NA,false
IBG6V1I2,3r15w654wg6vibc4e4w6loevry9lqd,3kkg4cdwkmbvfomricr52win8lt49m,IBG6V1I2,2020-0188,2020-11-18,17:46:41,18:09:42,NA,incomplete,14,filling,1,left,Red_Triangle_Stripes_4.jpg,Blue_Plus_Stripes_3.jpg,Red_Circle_Chess_1.jpg,right,776.1400000017602,false,high,NA,NA,NA,NA,NA,NA,NA,false
IBG6V1I2,3r15w654wg6vibc4e4w6loevry9lqd,3kkg4cdwkmbvfomricr52win8lt49m,IBG6V1I2,2020-0188,2020-11-18,17:46:41,18:09:42,NA,incomplete,15,filling,1,right,Red_Triangle_Dots_4.jpg,Red_Circle_Grid_3.jpg,Green_Plus_Dots_2.jpg,left,880.5850000007777,false,high,NA,NA,NA,NA,NA,NA,NA,false
IBG6V1I2,3r15w654wg6vibc4e4w6loevry9lqd,3kkg4cdwkmbvfomricr52win8lt49m,IBG6V1I2,2020-0188,2020-11-18,17:46:41,18:09:42,NA,incomplete,16,filling,1,right,Blue_Star_Grid_1.jpg,Blue_Circle_Dots_2.jpg,Green_Plus_Grid_3.jpg,right,1061.3300000005402,true,high,NA,NA,NA,NA,NA,NA,NA,false
IBG6V1I2,3r15w654wg6vibc4e4w6loevry9lqd,3kkg4cdwkmbvfomricr52win8lt49m,IBG6V1I2,2020-0188,2020-11-18,17:46:41,18:09:42,NA,incomplete,17,filling,0,right,Purple_Triangle_Chess_1.jpg,Purple_Circle_Dots_4.jpg,Green_Star_Chess_2.jpg,right,1231.4000000006054,true,high,NA,NA,NA,NA,NA,NA,NA,false
IBG6V1I2,3r15w654wg6vibc4e4w6loevry9lqd,3kkg4cdwkmbvfomricr52win8lt49m,IBG6V1I2,2020-0188,2020-11-18,17:46:41,18:09:42,NA,incomplete,18,filling,1,left,Purple_Circle_Dots_4.jpg,Blue_Star_Dots_1.jpg,Purple_Plus_Grid_2.jpg,left,1029.005000000354,true,high,NA,NA,NA,NA,NA,NA,NA,false
IBG6V1I2,3r15w654wg6vibc4e4w6loevry9lqd,3kkg4cdwkmbvfomricr52win8lt49m,IBG6V1I2,2020-0188,2020-11-18,17:46:41,18:09:42,NA,incomplete,19,filling,1,left,Blue_Triangle_Grid_3.jpg,Red_Plus_Grid_4.jpg,Blue_Star_Stripes_2.jpg,right,972.5600000001723,false,high,NA,NA,NA,NA,NA,NA,NA,false
IBG6V1I2,3r15w654wg6vibc4e4w6loevry9lqd,3kkg4cdwkmbvfomricr52win8lt49m,IBG6V1I2,2020-0188,2020-11-18,17:46:41,18:09:42,NA,incomplete,20,color,0,right,Green_Circle_Grid_2.jpg,Purple_Plus_Grid_1.jpg,Green_Star_Chess_3.jpg,right,753.5299999999115,true,high,NA,NA,NA,NA,NA,NA,NA,false
IBG6V1I2,3r15w654wg6vibc4e4w6loevry9lqd,3kkg4cdwkmbvfomricr52win8lt49m,IBG6V1I2,2020-0188,2020-11-18,17:46:41,18:09:42,NA,incomplete,21,color,0,left,Purple_Plus_Stripes_1.jpg,Purple_Circle_Dots_2.jpg,Green_Triangle_Stripes_3.jpg,right,1042.4849999998696,false,high,NA,NA,NA,NA,NA,NA,NA,false
IBG6V1I2,3r15w654wg6vibc4e4w6loevry9lqd,3kkg4cdwkmbvfomricr52win8lt49m,IBG6V1I2,2020-0188,2020-11-18,17:46:41,18:09:42,NA,incomplete,22,color,0,left,Purple_Triangle_Stripes_4.jpg,Purple_Circle_Dots_3.jpg,Red_Plus_Stripes_2.jpg,right,972.5349999989849,false,high,NA,NA,NA,NA,NA,NA,NA,false
IBG6V1I2,3r15w654wg6vibc4e4w6loevry9lqd,3kkg4cdwkmbvfomricr52win8lt49m,IBG6V1I2,2020-0188,2020-11-18,17:46:41,18:09:42,NA,incomplete,23,color,1,right,Purple_Circle_Grid_1.jpg,Red_Plus_Grid_2.jpg,Purple_Star_Dots_3.jpg,left,959.5100000007078,false,high,NA,NA,NA,NA,NA,NA,NA,false
IBG6V1I2,3r15w654wg6vibc4e4w6loevry9lqd,3kkg4cdwkmbvfomricr52win8lt49m,IBG6V1I2,2020-0188,2020-11-18,17:46:41,18:09:42,NA,incomplete,24,color,1,right,Purple_Plus_Chess_2.jpg,Red_Triangle_Chess_1.jpg,Purple_Star_Dots_3.jpg,left,1062.4599999991478,false,high,NA,NA,NA,NA,NA,NA,NA,false
IBG6V1I2,3r15w654wg6vibc4e4w6loevry9lqd,3kkg4cdwkmbvfomricr52win8lt49m,IBG6V1I2,2020-0188,2020-11-18,17:46:41,18:09:42,NA,incomplete,25,color,1,right,Green_Circle_Grid_2.jpg,Blue_Star_Grid_1.jpg,Green_Triangle_Dots_4.jpg,right,1194.2600000002421,true,high,NA,NA,NA,NA,NA,NA,NA,false
IBG6V1I2,3r15w654wg6vibc4e4w6loevry9lqd,3kkg4cdwkmbvfomricr52win8lt49m,IBG6V1I2,2020-0188,2020-11-18,17:46:41,18:09:42,NA,incomplete,26,color,1,left,Purple_Plus_Dots_4.jpg,Purple_Triangle_Stripes_2.jpg,Blue_Circle_Dots_3.jpg,left,678.9000000007218,true,high,NA,NA,NA,NA,NA,NA,NA,false
IBG6V1I2,3r15w654wg6vibc4e4w6loevry9lqd,3kkg4cdwkmbvfomricr52win8lt49m,IBG6V1I2,2020-0188,2020-11-18,17:46:41,18:09:42,NA,incomplete,27,color,1,left,Purple_Star_Stripes_1.jpg,Purple_Triangle_Grid_2.jpg,Green_Circle_Stripes_4.jpg,left,757.0250000007218,true,high,NA,NA,NA,NA,NA,NA,NA,false
IBG6V1I2,3r15w654wg6vibc4e4w6loevry9lqd,3kkg4cdwkmbvfomricr52win8lt49m,IBG6V1I2,2020-0188,2020-11-18,17:46:41,18:09:42,NA,incomplete,28,color,1,right,Blue_Star_Dots_3.jpg,Purple_Plus_Dots_2.jpg,Blue_Triangle_Stripes_1.jpg,right,587.0250000007218,true,high,NA,NA,NA,NA,NA,NA,NA,false
IBG6V1I2,3r15w654wg6vibc4e4w6loevry9lqd,3kkg4cdwkmbvfomricr52win8lt49m,IBG6V1I2,2020-0188,2020-11-18,17:46:41,18:09:42,NA,incomplete,29,color,1,right,Green_Star_Grid_1.jpg,Purple_Triangle_Grid_2.jpg,Green_Circle_Dots_4.jpg,left,1069.874999999185,false,high,NA,NA,NA,NA,NA,NA,NA,false
IBG6V1I2,3r15w654wg6vibc4e4w6loevry9lqd,3kkg4cdwkmbvfomricr52win8lt49m,IBG6V1I2,2020-0188,2020-11-18,17:46:41,18:09:42,NA,incomplete,30,filling,1,left,Red_Triangle_Stripes_2.jpg,Blue_Star_Stripes_4.jpg,Red_Plus_Dots_3.jpg,right,1016.5500000002794,false,high,NA,NA,NA,NA,NA,NA,NA,false
IBG6V1I2,3r15w654wg6vibc4e4w6loevry9lqd,3kkg4cdwkmbvfomricr52win8lt49m,IBG6V1I2,2020-0188,2020-11-18,17:46:41,18:09:42,NA,incomplete,31,filling,1,left,Red_Star_Chess_4.jpg,Green_Plus_Chess_2.jpg,Red_Circle_Stripes_3.jpg,left,1360.399999999674,true,high,NA,NA,NA,NA,NA,NA,NA,false
IBG6V1I2,3r15w654wg6vibc4e4w6loevry9lqd,3kkg4cdwkmbvfomricr52win8lt49m,IBG6V1I2,2020-0188,2020-11-18,17:46:41,18:09:42,NA,incomplete,32,filling,1,right,Red_Plus_Stripes_4.jpg,Red_Triangle_Chess_2.jpg,Blue_Circle_Stripes_3.jpg,right,1134.200000000419,true,high,NA,NA,NA,NA,NA,NA,NA,false
IBG6V1I2,3r15w654wg6vibc4e4w6loevry9lqd,3kkg4cdwkmbvfomricr52win8lt49m,IBG6V1I2,2020-0188,2020-11-18,17:46:41,18:09:42,NA,incomplete,33,filling,1,left,Blue_Circle_Grid_1.jpg,Green_Star_Grid_4.jpg,Blue_Triangle_Dots_3.jpg,left,1068.094999998808,true,high,NA,NA,NA,NA,NA,NA,NA,false
IBG6V1I2,3r15w654wg6vibc4e4w6loevry9lqd,3kkg4cdwkmbvfomricr52win8lt49m,IBG6V1I2,2020-0188,2020-11-18,17:46:41,18:09:42,NA,incomplete,34,filling,0,right,Blue_Plus_Dots_1.jpg,Blue_Triangle_Grid_4.jpg,Purple_Star_Dots_2.jpg,right,824.2800000007264,true,high,NA,NA,NA,NA,NA,NA,NA,false
IBG6V1I2,3r15w654wg6vibc4e4w6loevry9lqd,3kkg4cdwkmbvfomricr52win8lt49m,IBG6V1I2,2020-0188,2020-11-18,17:46:41,18:09:42,NA,incomplete,35,filling,1,left,Purple_Circle_Grid_2.jpg,Red_Triangle_Grid_1.jpg,Purple_Plus_Dots_4.jpg,right,570.8400000003166,false,high,NA,NA,NA,NA,NA,NA,NA,false
IBG6V1I2,3r15w654wg6vibc4e4w6loevry9lqd,3kkg4cdwkmbvfomricr52win8lt49m,IBG6V1I2,2020-0188,2020-11-18,17:46:41,18:09:42,NA,incomplete,36,filling,1,left,Purple_Circle_Chess_4.jpg,Red_Triangle_Chess_2.jpg,Purple_Star_Grid_3.jpg,left,947.6599999997998,true,high,NA,NA,NA,NA,NA,NA,NA,false
IBG6V1I2,3r15w654wg6vibc4e4w6loevry9lqd,3kkg4cdwkmbvfomricr52win8lt49m,IBG6V1I2,2020-0188,2020-11-18,17:46:41,18:09:42,NA,incomplete,37,filling,1,left,Purple_Triangle_Grid_4.jpg,Blue_Circle_Grid_1.jpg,Purple_Plus_Chess_2.jpg,left,1007.0100000011735,true,high,NA,NA,NA,NA,NA,NA,NA,false
IBG6V1I2,3r15w654wg6vibc4e4w6loevry9lqd,3kkg4cdwkmbvfomricr52win8lt49m,IBG6V1I2,2020-0188,2020-11-18,17:46:41,18:09:42,NA,incomplete,38,filling,1,left,Purple_Star_Chess_4.jpg,Blue_Plus_Chess_1.jpg,Purple_Triangle_Dots_3.jpg,left,854.0499999999302,true,high,NA,NA,NA,NA,NA,NA,NA,false
IBG6V1I2,3r15w654wg6vibc4e4w6loevry9lqd,3kkg4cdwkmbvfomricr52win8lt49m,IBG6V1I2,2020-0188,2020-11-18,17:46:41,18:09:42,NA,incomplete,39,filling,1,right,Red_Triangle_Stripes_3.jpg,Red_Circle_Chess_1.jpg,Green_Plus_Stripes_2.jpg,right,957.8600000004517,true,high,NA,NA,NA,NA,NA,NA,NA,false
IBG6V1I2,3r15w654wg6vibc4e4w6loevry9lqd,3kkg4cdwkmbvfomricr52win8lt49m,IBG6V1I2,2020-0188,2020-11-18,17:46:41,18:09:42,NA,incomplete,40,color,1,right,Purple_Circle_Grid_4.jpg,Green_Plus_Grid_1.jpg,Purple_Star_Stripes_2.jpg,left,863.7899999994552,false,high,NA,NA,NA,NA,NA,NA,NA,false
IBG6V1I2,3r15w654wg6vibc4e4w6loevry9lqd,3kkg4cdwkmbvfomricr52win8lt49m,IBG6V1I2,2020-0188,2020-11-18,17:46:41,18:09:42,NA,incomplete,41,color,1,right,Purple_Star_Grid_4.jpg,Blue_Plus_Grid_2.jpg,Purple_Triangle_Chess_1.jpg,left,1326.06000000122,false,high,NA,NA,NA,NA,NA,NA,NA,false
IBG6V1I2,3r15w654wg6vibc4e4w6loevry9lqd,3kkg4cdwkmbvfomricr52win8lt49m,IBG6V1I2,2020-0188,2020-11-18,17:46:41,18:09:42,NA,incomplete,42,color,0,right,Blue_Star_Dots_3.jpg,Red_Triangle_Dots_4.jpg,Blue_Circle_Chess_2.jpg,right,692.6050000002142,true,high,NA,NA,NA,NA,NA,NA,NA,false
IBG6V1I2,3r15w654wg6vibc4e4w6loevry9lqd,3kkg4cdwkmbvfomricr52win8lt49m,IBG6V1I2,2020-0188,2020-11-18,17:46:41,18:09:42,NA,incomplete,43,color,1,right,Green_Triangle_Stripes_2.jpg,Blue_Star_Stripes_4.jpg,Green_Circle_Dots_1.jpg,left,1026.4900000002235,false,high,NA,NA,NA,NA,NA,NA,NA,false
IBG6V1I2,3r15w654wg6vibc4e4w6loevry9lqd,3kkg4cdwkmbvfomricr52win8lt49m,IBG6V1I2,2020-0188,2020-11-18,17:46:41,18:09:42,NA,incomplete,44,color,0,left,Red_Plus_Dots_1.jpg,Red_Star_Chess_2.jpg,Green_Circle_Dots_3.jpg,left,1117.3500000004424,true,high,NA,NA,NA,NA,NA,NA,NA,false
IBG6V1I2,3r15w654wg6vibc4e4w6loevry9lqd,3kkg4cdwkmbvfomricr52win8lt49m,IBG6V1I2,2020-0188,2020-11-18,17:46:41,18:09:42,NA,incomplete,45,color,1,left,Purple_Circle_Grid_1.jpg,Purple_Star_Stripes_2.jpg,Green_Triangle_Grid_3.jpg,right,1265.1699999987613,false,high,NA,NA,NA,NA,NA,NA,NA,false
IBG6V1I2,3r15w654wg6vibc4e4w6loevry9lqd,3kkg4cdwkmbvfomricr52win8lt49m,IBG6V1I2,2020-0188,2020-11-18,17:46:41,18:09:42,NA,incomplete,46,color,1,left,Red_Plus_Grid_2.jpg,Red_Triangle_Dots_1.jpg,Purple_Circle_Grid_4.jpg,left,1630.1349999994272,true,high,NA,NA,NA,NA,NA,NA,NA,false
IBG6V1I2,3r15w654wg6vibc4e4w6loevry9lqd,3kkg4cdwkmbvfomricr52win8lt49m,IBG6V1I2,2020-0188,2020-11-18,17:46:41,18:09:42,NA,incomplete,47,color,1,right,Red_Triangle_Chess_1.jpg,Blue_Star_Chess_3.jpg,Red_Circle_Grid_4.jpg,right,630.9499999987893,true,high,NA,NA,NA,NA,NA,NA,NA,false
IBG6V1I2,3r15w654wg6vibc4e4w6loevry9lqd,3kkg4cdwkmbvfomricr52win8lt49m,IBG6V1I2,2020-0188,2020-11-18,17:46:41,18:09:42,NA,incomplete,48,color,1,right,Purple_Star_Stripes_1.jpg,Blue_Triangle_Stripes_4.jpg,Purple_Plus_Dots_3.jpg,right,732.0349999989849,true,high,NA,NA,NA,NA,NA,NA,NA,false
IBG6V1I2,3r15w654wg6vibc4e4w6loevry9lqd,3kkg4cdwkmbvfomricr52win8lt49m,IBG6V1I2,2020-0188,2020-11-18,17:46:41,18:09:42,NA,incomplete,49,color,1,right,Green_Triangle_Dots_4.jpg,Purple_Star_Dots_2.jpg,Green_Circle_Chess_1.jpg,right,698.734999999986,true,high,NA,NA,NA,NA,NA,NA,NA,false
IBG6V1I2,3r15w654wg6vibc4e4w6loevry9lqd,3kkg4cdwkmbvfomricr52win8lt49m,IBG6V1I2,2020-0188,2020-11-18,17:46:41,18:09:42,NA,incomplete,50,filling,1,right,Purple_Circle_Dots_1.jpg,Purple_Star_Grid_2.jpg,Blue_Triangle_Dots_4.jpg,left,702.9549999987939,false,high,NA,NA,NA,NA,NA,NA,NA,false
IBG6V1I2,3r15w654wg6vibc4e4w6loevry9lqd,3kkg4cdwkmbvfomricr52win8lt49m,IBG6V1I2,2020-0188,2020-11-18,17:46:41,18:09:42,NA,incomplete,51,filling,0,right,Green_Plus_Chess_2.jpg,Green_Triangle_Dots_4.jpg,Blue_Circle_Chess_1.jpg,right,1120.8499999993946,true,high,NA,NA,NA,NA,NA,NA,NA,false
IBG6V1I2,3r15w654wg6vibc4e4w6loevry9lqd,3kkg4cdwkmbvfomricr52win8lt49m,IBG6V1I2,2020-0188,2020-11-18,17:46:41,18:09:42,NA,incomplete,52,filling,1,right,Purple_Circle_Grid_2.jpg,Purple_Plus_Dots_3.jpg,Green_Triangle_Grid_1.jpg,left,954.1449999996694,false,high,NA,NA,NA,NA,NA,NA,NA,false
IBG6V1I2,3r15w654wg6vibc4e4w6loevry9lqd,3kkg4cdwkmbvfomricr52win8lt49m,IBG6V1I2,2020-0188,2020-11-18,17:46:41,18:09:42,NA,incomplete,53,filling,1,left,Green_Star_Dots_2.jpg,Purple_Circle_Dots_3.jpg,Green_Triangle_Grid_1.jpg,left,1763.230000000447,true,high,NA,NA,NA,NA,NA,NA,NA,false
IBG6V1I2,3r15w654wg6vibc4e4w6loevry9lqd,3kkg4cdwkmbvfomricr52win8lt49m,IBG6V1I2,2020-0188,2020-11-18,17:46:41,18:09:42,NA,incomplete,54,filling,1,right,Purple_Star_Stripes_3.jpg,Purple_Plus_Grid_2.jpg,Green_Triangle_Stripes_1.jpg,right,1227.1849999997066,true,high,NA,NA,NA,NA,NA,NA,NA,false
IBG6V1I2,3r15w654wg6vibc4e4w6loevry9lqd,3kkg4cdwkmbvfomricr52win8lt49m,IBG6V1I2,2020-0188,2020-11-18,17:46:41,18:09:42,NA,incomplete,55,filling,0,left,Green_Triangle_Stripes_1.jpg,Blue_Plus_Stripes_3.jpg,Green_Star_Dots_4.jpg,left,1192.6749999984168,true,high,NA,NA,NA,NA,NA,NA,NA,false
IBG6V1I2,3r15w654wg6vibc4e4w6loevry9lqd,3kkg4cdwkmbvfomricr52win8lt49m,IBG6V1I2,2020-0188,2020-11-18,17:46:41,18:09:42,NA,incomplete,56,filling,0,right,Green_Plus_Grid_2.jpg,Green_Star_Dots_4.jpg,Purple_Triangle_Grid_3.jpg,right,1213.5200000010664,true,high,NA,NA,NA,NA,NA,NA,NA,false
IBG6V1I2,3r15w654wg6vibc4e4w6loevry9lqd,3kkg4cdwkmbvfomricr52win8lt49m,IBG6V1I2,2020-0188,2020-11-18,17:46:41,18:09:42,NA,incomplete,57,filling,1,right,Purple_Plus_Chess_2.jpg,Purple_Star_Dots_3.jpg,Green_Circle_Chess_4.jpg,left,653.6150000010384,false,high,NA,NA,NA,NA,NA,NA,NA,false
IBG6V1I2,3r15w654wg6vibc4e4w6loevry9lqd,3kkg4cdwkmbvfomricr52win8lt49m,IBG6V1I2,2020-0188,2020-11-18,17:46:41,18:09:42,NA,incomplete,58,filling,1,left,Red_Star_Stripes_3.jpg,Green_Plus_Stripes_1.jpg,Red_Circle_Dots_2.jpg,right,866.359999999986,false,high,NA,NA,NA,NA,NA,NA,NA,false
IBG6V1I2,3r15w654wg6vibc4e4w6loevry9lqd,3kkg4cdwkmbvfomricr52win8lt49m,IBG6V1I2,2020-0188,2020-11-18,17:46:41,18:09:42,NA,incomplete,59,filling,1,right,Blue_Star_Dots_1.jpg,Blue_Triangle_Chess_4.jpg,Green_Circle_Dots_3.jpg,right,978.5899999988033,true,high,NA,NA,NA,NA,NA,NA,NA,false
IBG6V1I2,3r15w654wg6vibc4e4w6loevry9lqd,3kkg4cdwkmbvfomricr52win8lt49m,IBG6V1I2,2020-0188,2020-11-18,17:46:41,18:09:42,NA,incomplete,60,color,1,left,Blue_Star_Stripes_2.jpg,Blue_Plus_Chess_1.jpg,Green_Triangle_Stripes_3.jpg,right,1036.0650000002934,false,high,NA,NA,NA,NA,NA,NA,NA,false
IBG6V1I2,3r15w654wg6vibc4e4w6loevry9lqd,3kkg4cdwkmbvfomricr52win8lt49m,IBG6V1I2,2020-0188,2020-11-18,17:46:41,18:09:42,NA,incomplete,61,color,1,right,Red_Star_Chess_3.jpg,Purple_Circle_Chess_4.jpg,Red_Plus_Stripes_1.jpg,left,1369.5700000007637,false,high,NA,NA,NA,NA,NA,NA,NA,false
IBG6V1I2,3r15w654wg6vibc4e4w6loevry9lqd,3kkg4cdwkmbvfomricr52win8lt49m,IBG6V1I2,2020-0188,2020-11-18,17:46:41,18:09:42,NA,incomplete,62,color,1,right,Green_Plus_Dots_4.jpg,Blue_Star_Dots_1.jpg,Green_Triangle_Stripes_3.jpg,right,648.5350000002654,true,high,NA,NA,NA,NA,NA,NA,NA,false
IBG6V1I2,3r15w654wg6vibc4e4w6loevry9lqd,3kkg4cdwkmbvfomricr52win8lt49m,IBG6V1I2,2020-0188,2020-11-18,17:46:41,18:09:42,NA,incomplete,63,color,0,right,Red_Circle_Stripes_1.jpg,Blue_Star_Stripes_4.jpg,Red_Plus_Grid_3.jpg,right,785.4550000010058,true,high,NA,NA,NA,NA,NA,NA,NA,false
IBG6V1I2,3r15w654wg6vibc4e4w6loevry9lqd,3kkg4cdwkmbvfomricr52win8lt49m,IBG6V1I2,2020-0188,2020-11-18,17:46:41,18:09:42,NA,incomplete,64,color,1,right,Blue_Triangle_Stripes_4.jpg,Red_Circle_Stripes_2.jpg,Blue_Star_Grid_3.jpg,left,969.2800000010757,false,high,NA,NA,NA,NA,NA,NA,NA,false
IBG6V1I2,3r15w654wg6vibc4e4w6loevry9lqd,3kkg4cdwkmbvfomricr52win8lt49m,IBG6V1I2,2020-0188,2020-11-18,17:46:41,18:09:42,NA,incomplete,65,color,1,left,Blue_Triangle_Grid_3.jpg,Blue_Circle_Stripes_4.jpg,Purple_Plus_Grid_2.jpg,left,599.5799999999581,true,high,NA,NA,NA,NA,NA,NA,NA,false
IBG6V1I2,3r15w654wg6vibc4e4w6loevry9lqd,3kkg4cdwkmbvfomricr52win8lt49m,IBG6V1I2,2020-0188,2020-11-18,17:46:41,18:09:42,NA,incomplete,66,color,1,right,Red_Triangle_Dots_4.jpg,Blue_Star_Dots_2.jpg,Red_Circle_Grid_3.jpg,right,798.2250000004424,true,high,NA,NA,NA,NA,NA,NA,NA,false
IBG6V1I2,3r15w654wg6vibc4e4w6loevry9lqd,3kkg4cdwkmbvfomricr52win8lt49m,IBG6V1I2,2020-0188,2020-11-18,17:46:41,18:09:42,NA,incomplete,67,color,1,left,Red_Triangle_Grid_4.jpg,Red_Circle_Chess_2.jpg,Blue_Plus_Grid_1.jpg,left,592.1699999998091,true,high,NA,NA,NA,NA,NA,NA,NA,false
IBG6V1I2,3r15w654wg6vibc4e4w6loevry9lqd,3kkg4cdwkmbvfomricr52win8lt49m,IBG6V1I2,2020-0188,2020-11-18,17:46:41,18:09:42,NA,incomplete,68,color,1,right,Blue_Plus_Dots_1.jpg,Green_Triangle_Dots_3.jpg,Blue_Circle_Grid_4.jpg,right,703.1399999995483,true,high,NA,NA,NA,NA,NA,NA,NA,false
IBG6V1I2,3r15w654wg6vibc4e4w6loevry9lqd,3kkg4cdwkmbvfomricr52win8lt49m,IBG6V1I2,2020-0188,2020-11-18,17:46:41,18:09:42,NA,incomplete,69,color,1,left,Blue_Triangle_Grid_1.jpg,Blue_Plus_Stripes_3.jpg,Purple_Circle_Grid_2.jpg,left,574.1799999995856,true,high,NA,NA,NA,NA,NA,NA,NA,false
IBG6V1I2,3r15w654wg6vibc4e4w6loevry9lqd,3kkg4cdwkmbvfomricr52win8lt49m,IBG6V1I2,2020-0188,2020-11-18,17:46:41,18:09:42,NA,incomplete,70,filling,0,left,Green_Star_Stripes_2.jpg,Blue_Plus_Stripes_1.jpg,Green_Circle_Chess_3.jpg,right,650.0650000016904,false,high,NA,NA,NA,NA,NA,NA,NA,false
IBG6V1I2,3r15w654wg6vibc4e4w6loevry9lqd,3kkg4cdwkmbvfomricr52win8lt49m,IBG6V1I2,2020-0188,2020-11-18,17:46:41,18:09:42,NA,incomplete,71,filling,1,left,Purple_Triangle_Chess_2.jpg,Green_Circle_Chess_3.jpg,Purple_Star_Stripes_4.jpg,right,751.6500000001397,false,high,NA,NA,NA,NA,NA,NA,NA,false
IBG6V1I2,3r15w654wg6vibc4e4w6loevry9lqd,3kkg4cdwkmbvfomricr52win8lt49m,IBG6V1I2,2020-0188,2020-11-18,17:46:41,18:09:42,NA,incomplete,72,filling,1,left,Purple_Circle_Dots_1.jpg,Red_Plus_Dots_2.jpg,Purple_Star_Stripes_3.jpg,right,1199.3400000010151,false,high,NA,NA,NA,NA,NA,NA,NA,false
IBG6V1I2,3r15w654wg6vibc4e4w6loevry9lqd,3kkg4cdwkmbvfomricr52win8lt49m,IBG6V1I2,2020-0188,2020-11-18,17:46:41,18:09:42,NA,incomplete,73,filling,1,right,Red_Circle_Chess_3.jpg,Red_Star_Dots_2.jpg,Purple_Triangle_Chess_1.jpg,right,943.2150000011316,true,high,NA,NA,NA,NA,NA,NA,NA,false
IBG6V1I2,3r15w654wg6vibc4e4w6loevry9lqd,3kkg4cdwkmbvfomricr52win8lt49m,IBG6V1I2,2020-0188,2020-11-18,17:46:41,18:09:42,NA,incomplete,74,filling,1,left,Green_Triangle_Chess_1.jpg,Blue_Circle_Chess_2.jpg,Green_Star_Grid_3.jpg,left,869.4900000010384,true,high,NA,NA,NA,NA,NA,NA,NA,false
IBG6V1I2,3r15w654wg6vibc4e4w6loevry9lqd,3kkg4cdwkmbvfomricr52win8lt49m,IBG6V1I2,2020-0188,2020-11-18,17:46:41,18:09:42,NA,incomplete,75,filling,1,right,Blue_Triangle_Dots_4.jpg,Blue_Plus_Stripes_3.jpg,Purple_Star_Dots_1.jpg,right,1015.0049999993062,true,high,NA,NA,NA,NA,NA,NA,NA,false
IBG6V1I2,3r15w654wg6vibc4e4w6loevry9lqd,3kkg4cdwkmbvfomricr52win8lt49m,IBG6V1I2,2020-0188,2020-11-18,17:46:41,18:09:42,NA,incomplete,76,filling,0,left,Green_Plus_Grid_2.jpg,Blue_Star_Grid_4.jpg,Green_Triangle_Stripes_3.jpg,left,1206.369999999879,true,high,NA,NA,NA,NA,NA,NA,NA,false
IBG6V1I2,3r15w654wg6vibc4e4w6loevry9lqd,3kkg4cdwkmbvfomricr52win8lt49m,IBG6V1I2,2020-0188,2020-11-18,17:46:41,18:09:42,NA,incomplete,77,filling,1,left,Green_Plus_Dots_2.jpg,Red_Triangle_Dots_4.jpg,Green_Star_Grid_3.jpg,left,1018.1350000002421,true,high,NA,NA,NA,NA,NA,NA,NA,false
IBG6V1I2,3r15w654wg6vibc4e4w6loevry9lqd,3kkg4cdwkmbvfomricr52win8lt49m,IBG6V1I2,2020-0188,2020-11-18,17:46:41,18:09:42,NA,incomplete,78,filling,1,right,Red_Star_Grid_2.jpg,Red_Circle_Dots_4.jpg,Blue_Plus_Grid_1.jpg,right,974.8199999994831,true,high,NA,NA,NA,NA,NA,NA,NA,false
IBG6V1I2,3r15w654wg6vibc4e4w6loevry9lqd,3kkg4cdwkmbvfomricr52win8lt49m,IBG6V1I2,2020-0188,2020-11-18,17:46:41,18:09:42,NA,incomplete,79,filling,1,left,Blue_Star_Stripes_2.jpg,Red_Plus_Stripes_4.jpg,Blue_Triangle_Dots_1.jpg,right,899.8949999986216,false,high,NA,NA,NA,NA,NA,NA,NA,false
IBG6V1I2,3r15w654wg6vibc4e4w6loevry9lqd,3kkg4cdwkmbvfomricr52win8lt49m,IBG6V1I2,2020-0188,2020-11-18,17:46:41,18:09:42,NA,incomplete,80,color,0,left,Red_Circle_Grid_4.jpg,Red_Star_Stripes_1.jpg,Green_Triangle_Grid_2.jpg,right,1030.9649999999674,false,high,NA,NA,NA,NA,NA,NA,NA,false
IBG6V1I2,3r15w654wg6vibc4e4w6loevry9lqd,3kkg4cdwkmbvfomricr52win8lt49m,IBG6V1I2,2020-0188,2020-11-18,17:46:41,18:09:42,NA,incomplete,81,color,1,left,Red_Circle_Grid_2.jpg,Red_Plus_Chess_1.jpg,Blue_Star_Grid_4.jpg,right,988.9050000001444,false,high,NA,NA,NA,NA,NA,NA,NA,false
IBG6V1I2,3r15w654wg6vibc4e4w6loevry9lqd,3kkg4cdwkmbvfomricr52win8lt49m,IBG6V1I2,2020-0188,2020-11-18,17:46:41,18:09:42,NA,incomplete,82,color,0,left,Blue_Circle_Chess_3.jpg,Blue_Triangle_Stripes_2.jpg,Red_Plus_Chess_1.jpg,left,814.2950000001583,true,high,NA,NA,NA,NA,NA,NA,NA,false
IBG6V1I2,3r15w654wg6vibc4e4w6loevry9lqd,3kkg4cdwkmbvfomricr52win8lt49m,IBG6V1I2,2020-0188,2020-11-18,17:46:41,18:09:42,NA,incomplete,83,color,1,left,Red_Triangle_Dots_4.jpg,Red_Star_Chess_2.jpg,Purple_Plus_Dots_1.jpg,right,1001.1200000008103,false,high,NA,NA,NA,NA,NA,NA,NA,false
IBG6V1I2,3r15w654wg6vibc4e4w6loevry9lqd,3kkg4cdwkmbvfomricr52win8lt49m,IBG6V1I2,2020-0188,2020-11-18,17:46:41,18:09:42,NA,incomplete,84,color,1,left,Blue_Plus_Stripes_3.jpg,Blue_Star_Dots_2.jpg,Purple_Triangle_Stripes_4.jpg,left,1015.359999999404,true,high,NA,NA,NA,NA,NA,NA,NA,false
IBG6V1I2,3r15w654wg6vibc4e4w6loevry9lqd,3kkg4cdwkmbvfomricr52win8lt49m,IBG6V1I2,2020-0188,2020-11-18,17:46:41,18:09:42,NA,incomplete,85,color,0,left,Green_Star_Dots_1.jpg,Green_Circle_Grid_2.jpg,Blue_Triangle_Dots_3.jpg,left,932.9099999995669,true,high,NA,NA,NA,NA,NA,NA,NA,false
IBG6V1I2,3r15w654wg6vibc4e4w6loevry9lqd,3kkg4cdwkmbvfomricr52win8lt49m,IBG6V1I2,2020-0188,2020-11-18,17:46:41,18:09:42,NA,incomplete,86,color,1,left,Green_Circle_Stripes_2.jpg,Green_Star_Grid_1.jpg,Red_Triangle_Stripes_3.jpg,right,1008.9499999994878,false,high,NA,NA,NA,NA,NA,NA,NA,false
IBG6V1I2,3r15w654wg6vibc4e4w6loevry9lqd,3kkg4cdwkmbvfomricr52win8lt49m,IBG6V1I2,2020-0188,2020-11-18,17:46:41,18:09:42,NA,incomplete,87,color,1,left,Blue_Circle_Grid_3.jpg,Blue_Plus_Dots_2.jpg,Purple_Triangle_Grid_1.jpg,left,678.454999999376,true,high,NA,NA,NA,NA,NA,NA,NA,false
IBG6V1I2,3r15w654wg6vibc4e4w6loevry9lqd,3kkg4cdwkmbvfomricr52win8lt49m,IBG6V1I2,2020-0188,2020-11-18,17:46:41,18:09:42,NA,incomplete,88,color,0,left,Purple_Plus_Grid_3.jpg,Purple_Circle_Stripes_1.jpg,Green_Star_Grid_4.jpg,left,1006.0999999986961,true,high,NA,NA,NA,NA,NA,NA,NA,false
IBG6V1I2,3r15w654wg6vibc4e4w6loevry9lqd,3kkg4cdwkmbvfomricr52win8lt49m,IBG6V1I2,2020-0188,2020-11-18,17:46:41,18:09:42,NA,incomplete,89,color,1,right,Red_Plus_Stripes_3.jpg,Purple_Circle_Stripes_2.jpg,Red_Triangle_Dots_1.jpg,right,1008.68999999878,true,high,NA,NA,NA,NA,NA,NA,NA,false
IBG6V1I2,3r15w654wg6vibc4e4w6loevry9lqd,3kkg4cdwkmbvfomricr52win8lt49m,IBG6V1I2,2020-0188,2020-11-18,17:46:41,18:09:42,NA,incomplete,90,filling,1,left,Green_Triangle_Chess_2.jpg,Purple_Star_Chess_4.jpg,Green_Circle_Dots_1.jpg,right,1203.1449999994365,false,high,NA,NA,NA,NA,NA,NA,NA,false
IBG6V1I2,3r15w654wg6vibc4e4w6loevry9lqd,3kkg4cdwkmbvfomricr52win8lt49m,IBG6V1I2,2020-0188,2020-11-18,17:46:41,18:09:42,NA,incomplete,91,filling,1,right,Green_Plus_Stripes_2.jpg,Green_Star_Grid_1.jpg,Red_Circle_Stripes_4.jpg,right,1080.719999999972,true,high,NA,NA,NA,NA,NA,NA,NA,false
IBG6V1I2,3r15w654wg6vibc4e4w6loevry9lqd,3kkg4cdwkmbvfomricr52win8lt49m,IBG6V1I2,2020-0188,2020-11-18,17:46:41,18:09:42,NA,incomplete,92,filling,1,right,Purple_Circle_Dots_3.jpg,Purple_Triangle_Stripes_1.jpg,Red_Plus_Dots_2.jpg,right,978.6449999992037,true,high,NA,NA,NA,NA,NA,NA,NA,false
IBG6V1I2,3r15w654wg6vibc4e4w6loevry9lqd,3kkg4cdwkmbvfomricr52win8lt49m,IBG6V1I2,2020-0188,2020-11-18,17:46:41,18:09:42,NA,incomplete,93,filling,1,right,Blue_Star_Stripes_4.jpg,Blue_Plus_Dots_3.jpg,Green_Circle_Stripes_1.jpg,right,1033.8099999990081,true,high,NA,NA,NA,NA,NA,NA,NA,false
IBG6V1I2,3r15w654wg6vibc4e4w6loevry9lqd,3kkg4cdwkmbvfomricr52win8lt49m,IBG6V1I2,2020-0188,2020-11-18,17:46:41,18:09:42,NA,incomplete,94,filling,1,right,Purple_Triangle_Chess_3.jpg,Purple_Circle_Stripes_4.jpg,Red_Star_Chess_2.jpg,right,1058.6899999998277,true,high,NA,NA,NA,NA,NA,NA,NA,false
IBG6V1I2,3r15w654wg6vibc4e4w6loevry9lqd,3kkg4cdwkmbvfomricr52win8lt49m,IBG6V1I2,2020-0188,2020-11-18,17:46:41,18:09:42,NA,incomplete,95,filling,1,right,Red_Star_Dots_2.jpg,Red_Triangle_Chess_4.jpg,Blue_Circle_Dots_1.jpg,right,1107.7100000001956,true,high,NA,NA,NA,NA,NA,NA,NA,false
IBG6V1I2,3r15w654wg6vibc4e4w6loevry9lqd,3kkg4cdwkmbvfomricr52win8lt49m,IBG6V1I2,2020-0188,2020-11-18,17:46:41,18:09:42,NA,incomplete,96,filling,0,left,Blue_Plus_Stripes_4.jpg,Red_Circle_Stripes_2.jpg,Blue_Star_Dots_3.jpg,left,1096.6850000004051,true,high,NA,NA,NA,NA,NA,NA,NA,false
IBG6V1I2,3r15w654wg6vibc4e4w6loevry9lqd,3kkg4cdwkmbvfomricr52win8lt49m,IBG6V1I2,2020-0188,2020-11-18,17:46:41,18:09:42,NA,incomplete,97,filling,1,right,Red_Plus_Chess_4.jpg,Red_Circle_Stripes_2.jpg,Blue_Triangle_Chess_3.jpg,right,1061.7750000001397,true,high,NA,NA,NA,NA,NA,NA,NA,false
IBG6V1I2,3r15w654wg6vibc4e4w6loevry9lqd,3kkg4cdwkmbvfomricr52win8lt49m,IBG6V1I2,2020-0188,2020-11-18,17:46:41,18:09:42,NA,incomplete,98,filling,1,right,Green_Star_Grid_2.jpg,Green_Circle_Stripes_1.jpg,Red_Triangle_Grid_3.jpg,left,1299.74000000034,false,high,NA,NA,NA,NA,NA,NA,NA,false
IBG6V1I2,3r15w654wg6vibc4e4w6loevry9lqd,3kkg4cdwkmbvfomricr52win8lt49m,IBG6V1I2,2020-0188,2020-11-18,17:46:41,18:09:42,NA,incomplete,99,filling,0,right,Green_Circle_Grid_3.jpg,Green_Triangle_Dots_4.jpg,Purple_Plus_Grid_1.jpg,right,1323.6250000009313,true,high,NA,NA,NA,NA,NA,NA,NA,false
IBG6V1I2,3r15w654wg6vibc4e4w6loevry9lqd,3kkg4cdwkmbvfomricr52win8lt49m,IBG6V1I2,2020-0188,2020-11-18,17:46:41,18:09:42,NA,incomplete,100,color,1,left,Green_Circle_Grid_2.jpg,Green_Plus_Stripes_4.jpg,Purple_Star_Grid_3.jpg,left,601.3949999996694,true,high,NA,NA,NA,NA,NA,NA,NA,false
IBG6V1I2,3r15w654wg6vibc4e4w6loevry9lqd,3kkg4cdwkmbvfomricr52win8lt49m,IBG6V1I2,2020-0188,2020-11-18,17:46:41,18:09:42,NA,incomplete,101,color,1,left,Red_Circle_Dots_2.jpg,Red_Star_Stripes_1.jpg,Purple_Triangle_Dots_3.jpg,left,743.5699999987846,true,high,NA,NA,NA,NA,NA,NA,NA,false
IBG6V1I2,3r15w654wg6vibc4e4w6loevry9lqd,3kkg4cdwkmbvfomricr52win8lt49m,IBG6V1I2,2020-0188,2020-11-18,17:46:41,18:09:42,NA,incomplete,102,color,0,left,Green_Triangle_Stripes_4.jpg,Green_Plus_Grid_1.jpg,Red_Circle_Stripes_3.jpg,left,696.470000000787,true,high,NA,NA,NA,NA,NA,NA,NA,false
IBG6V1I2,3r15w654wg6vibc4e4w6loevry9lqd,3kkg4cdwkmbvfomricr52win8lt49m,IBG6V1I2,2020-0188,2020-11-18,17:46:41,18:09:42,NA,incomplete,103,color,1,left,Blue_Triangle_Grid_1.jpg,Blue_Circle_Stripes_3.jpg,Red_Plus_Grid_2.jpg,left,734.8299999994924,true,high,NA,NA,NA,NA,NA,NA,NA,false
IBG6V1I2,3r15w654wg6vibc4e4w6loevry9lqd,3kkg4cdwkmbvfomricr52win8lt49m,IBG6V1I2,2020-0188,2020-11-18,17:46:41,18:09:42,NA,incomplete,104,color,1,right,Blue_Star_Chess_3.jpg,Red_Plus_Chess_4.jpg,Blue_Circle_Grid_1.jpg,left,1138.8100000002887,false,high,NA,NA,NA,NA,NA,NA,NA,false
IBG6V1I2,3r15w654wg6vibc4e4w6loevry9lqd,3kkg4cdwkmbvfomricr52win8lt49m,IBG6V1I2,2020-0188,2020-11-18,17:46:41,18:09:42,NA,incomplete,105,color,1,left,Green_Triangle_Stripes_1.jpg,Green_Plus_Chess_4.jpg,Purple_Star_Stripes_2.jpg,left,953.7149999997346,true,high,NA,NA,NA,NA,NA,NA,NA,false
IBG6V1I2,3r15w654wg6vibc4e4w6loevry9lqd,3kkg4cdwkmbvfomricr52win8lt49m,IBG6V1I2,2020-0188,2020-11-18,17:46:41,18:09:42,NA,incomplete,106,color,1,right,Blue_Triangle_Grid_3.jpg,Green_Star_Grid_4.jpg,Blue_Circle_Chess_2.jpg,right,792.8699999992969,true,high,NA,NA,NA,NA,NA,NA,NA,false
IBG6V1I2,3r15w654wg6vibc4e4w6loevry9lqd,3kkg4cdwkmbvfomricr52win8lt49m,IBG6V1I2,2020-0188,2020-11-18,17:46:41,18:09:42,NA,incomplete,107,color,1,left,Blue_Plus_Dots_2.jpg,Blue_Circle_Stripes_1.jpg,Red_Star_Dots_4.jpg,left,747.1549999990966,true,high,NA,NA,NA,NA,NA,NA,NA,false
IBG6V1I2,3r15w654wg6vibc4e4w6loevry9lqd,3kkg4cdwkmbvfomricr52win8lt49m,IBG6V1I2,2020-0188,2020-11-18,17:46:41,18:09:42,NA,incomplete,108,color,1,left,Green_Circle_Stripes_4.jpg,Green_Star_Chess_3.jpg,Blue_Plus_Stripes_2.jpg,left,796.9250000005122,true,high,NA,NA,NA,NA,NA,NA,NA,false
IBG6V1I2,3r15w654wg6vibc4e4w6loevry9lqd,3kkg4cdwkmbvfomricr52win8lt49m,IBG6V1I2,2020-0188,2020-11-18,17:46:41,18:09:42,NA,incomplete,109,color,1,right,Green_Star_Grid_1.jpg,Blue_Plus_Grid_4.jpg,Green_Circle_Chess_2.jpg,right,690.6950000011129,true,high,NA,NA,NA,NA,NA,NA,NA,false
IBG6V1I2,3r15w654wg6vibc4e4w6loevry9lqd,3kkg4cdwkmbvfomricr52win8lt49m,IBG6V1I2,2020-0188,2020-11-18,17:46:41,18:09:42,NA,incomplete,110,filling,1,right,Green_Star_Chess_1.jpg,Green_Circle_Grid_3.jpg,Red_Plus_Chess_2.jpg,left,700.0300000000279,false,high,NA,NA,NA,NA,NA,NA,NA,false
IBG6V1I2,3r15w654wg6vibc4e4w6loevry9lqd,3kkg4cdwkmbvfomricr52win8lt49m,IBG6V1I2,2020-0188,2020-11-18,17:46:41,18:09:42,NA,incomplete,111,filling,1,left,Green_Circle_Grid_2.jpg,Red_Triangle_Grid_4.jpg,Green_Star_Dots_1.jpg,left,1060.0150000008289,true,high,NA,NA,NA,NA,NA,NA,NA,false
IBG6V1I2,3r15w654wg6vibc4e4w6loevry9lqd,3kkg4cdwkmbvfomricr52win8lt49m,IBG6V1I2,2020-0188,2020-11-18,17:46:41,18:09:42,NA,incomplete,112,filling,1,left,Purple_Star_Dots_1.jpg,Green_Circle_Dots_2.jpg,Purple_Plus_Grid_4.jpg,left,1037.9499999999534,true,high,NA,NA,NA,NA,NA,NA,NA,false
IBG6V1I2,3r15w654wg6vibc4e4w6loevry9lqd,3kkg4cdwkmbvfomricr52win8lt49m,IBG6V1I2,2020-0188,2020-11-18,17:46:41,18:09:42,NA,incomplete,113,filling,1,left,Green_Circle_Dots_3.jpg,Blue_Triangle_Dots_2.jpg,Green_Star_Grid_4.jpg,left,952.3399999997346,true,high,NA,NA,NA,NA,NA,NA,NA,false
IBG6V1I2,3r15w654wg6vibc4e4w6loevry9lqd,3kkg4cdwkmbvfomricr52win8lt49m,IBG6V1I2,2020-0188,2020-11-18,17:46:41,18:09:42,NA,incomplete,114,filling,1,right,Purple_Triangle_Grid_3.jpg,Purple_Circle_Chess_2.jpg,Green_Plus_Grid_1.jpg,right,1036.5650000002934,true,high,NA,NA,NA,NA,NA,NA,NA,false
IBG6V1I2,3r15w654wg6vibc4e4w6loevry9lqd,3kkg4cdwkmbvfomricr52win8lt49m,IBG6V1I2,2020-0188,2020-11-18,17:46:41,18:09:42,NA,incomplete,115,filling,1,left,Green_Triangle_Chess_4.jpg,Blue_Circle_Chess_1.jpg,Green_Plus_Grid_2.jpg,right,1122.874999999185,false,high,NA,NA,NA,NA,NA,NA,NA,false
IBG6V1I2,3r15w654wg6vibc4e4w6loevry9lqd,3kkg4cdwkmbvfomricr52win8lt49m,IBG6V1I2,2020-0188,2020-11-18,17:46:41,18:09:42,NA,incomplete,116,filling,1,left,Blue_Triangle_Chess_4.jpg,Purple_Plus_Chess_2.jpg,Blue_Circle_Stripes_3.jpg,left,988.9299999994691,true,high,NA,NA,NA,NA,NA,NA,NA,false
IBG6V1I2,3r15w654wg6vibc4e4w6loevry9lqd,3kkg4cdwkmbvfomricr52win8lt49m,IBG6V1I2,2020-0188,2020-11-18,17:46:41,18:09:42,NA,incomplete,117,filling,1,left,Blue_Plus_Grid_4.jpg,Green_Triangle_Grid_1.jpg,Blue_Circle_Stripes_2.jpg,left,1178.9750000006752,true,high,NA,NA,NA,NA,NA,NA,NA,false
IBG6V1I2,3r15w654wg6vibc4e4w6loevry9lqd,3kkg4cdwkmbvfomricr52win8lt49m,IBG6V1I2,2020-0188,2020-11-18,17:46:41,18:09:42,NA,incomplete,118,filling,1,left,Green_Triangle_Stripes_2.jpg,Purple_Circle_Stripes_3.jpg,Green_Star_Dots_4.jpg,left,893.8249999991385,true,high,NA,NA,NA,NA,NA,NA,NA,false
IBG6V1I2,3r15w654wg6vibc4e4w6loevry9lqd,3kkg4cdwkmbvfomricr52win8lt49m,IBG6V1I2,2020-0188,2020-11-18,17:46:41,18:09:42,NA,incomplete,119,filling,1,left,Red_Plus_Grid_1.jpg,Blue_Star_Grid_2.jpg,Red_Circle_Stripes_3.jpg,right,1054.1800000009825,false,high,NA,NA,NA,NA,NA,NA,NA,false
IBG6V1I2,3r15w654wg6vibc4e4w6loevry9lqd,3kkg4cdwkmbvfomricr52win8lt49m,IBG6V1I2,2020-0188,2020-11-18,17:46:41,18:09:42,NA,incomplete,120,number,1,right,Purple_Star_Dots_3.jpg,Green_Star_Chess_1.jpg,Red_Circle_Grid_3.jpg,left,1142.169999999227,false,high,NA,NA,NA,NA,NA,NA,NA,false
IBG6V1I2,3r15w654wg6vibc4e4w6loevry9lqd,3kkg4cdwkmbvfomricr52win8lt49m,IBG6V1I2,2020-0188,2020-11-18,17:46:41,18:09:42,NA,incomplete,121,number,0,right,Blue_Plus_Chess_3.jpg,Red_Plus_Dots_4.jpg,Purple_Triangle_Grid_3.jpg,right,855.7199999996228,true,high,NA,NA,NA,NA,NA,NA,NA,false
IBG6V1I2,3r15w654wg6vibc4e4w6loevry9lqd,3kkg4cdwkmbvfomricr52win8lt49m,IBG6V1I2,2020-0188,2020-11-18,17:46:41,18:09:42,NA,incomplete,122,number,1,left,Green_Circle_Chess_1.jpg,Purple_Triangle_Dots_1.jpg,Red_Circle_Grid_2.jpg,right,824.0949999999721,false,high,NA,NA,NA,NA,NA,NA,NA,false
IBG6V1I2,3r15w654wg6vibc4e4w6loevry9lqd,3kkg4cdwkmbvfomricr52win8lt49m,IBG6V1I2,2020-0188,2020-11-18,17:46:41,18:09:42,NA,incomplete,123,number,1,right,Blue_Plus_Chess_4.jpg,Red_Plus_Grid_2.jpg,Purple_Circle_Stripes_4.jpg,left,1043.8750000011642,false,high,NA,NA,NA,NA,NA,NA,NA,false
IBG6V1I2,3r15w654wg6vibc4e4w6loevry9lqd,3kkg4cdwkmbvfomricr52win8lt49m,IBG6V1I2,2020-0188,2020-11-18,17:46:41,18:09:42,NA,incomplete,124,number,1,right,Purple_Circle_Grid_1.jpg,Red_Circle_Dots_2.jpg,Blue_Star_Stripes_1.jpg,right,729.9600000005448,true,high,NA,NA,NA,NA,NA,NA,NA,false
IBG6V1I2,3r15w654wg6vibc4e4w6loevry9lqd,3kkg4cdwkmbvfomricr52win8lt49m,IBG6V1I2,2020-0188,2020-11-18,17:46:41,18:09:42,NA,incomplete,125,number,1,left,Green_Plus_Dots_1.jpg,Purple_Triangle_Stripes_1.jpg,Blue_Plus_Grid_2.jpg,right,1083.1250000010477,false,high,NA,NA,NA,NA,NA,NA,NA,false
IBG6V1I2,3r15w654wg6vibc4e4w6loevry9lqd,3kkg4cdwkmbvfomricr52win8lt49m,IBG6V1I2,2020-0188,2020-11-18,17:46:41,18:09:42,NA,incomplete,126,number,1,left,Purple_Circle_Dots_4.jpg,Blue_Star_Chess_4.jpg,Red_Circle_Grid_2.jpg,left,888.204999999376,true,high,NA,NA,NA,NA,NA,NA,NA,false
IBG6V1I2,3r15w654wg6vibc4e4w6loevry9lqd,3kkg4cdwkmbvfomricr52win8lt49m,IBG6V1I2,2020-0188,2020-11-18,17:46:41,18:09:42,NA,incomplete,127,number,1,left,Red_Triangle_Chess_3.jpg,Green_Star_Stripes_3.jpg,Purple_Triangle_Grid_4.jpg,left,778.164999999688,true,high,NA,NA,NA,NA,NA,NA,NA,false
IBG6V1I2,3r15w654wg6vibc4e4w6loevry9lqd,3kkg4cdwkmbvfomricr52win8lt49m,IBG6V1I2,2020-0188,2020-11-18,17:46:41,18:09:42,NA,incomplete,128,number,1,left,Green_Circle_Stripes_1.jpg,Blue_Plus_Grid_1.jpg,Red_Circle_Chess_3.jpg,left,680.9750000011409,true,high,NA,NA,NA,NA,NA,NA,NA,false
IBG6V1I2,3r15w654wg6vibc4e4w6loevry9lqd,3kkg4cdwkmbvfomricr52win8lt49m,IBG6V1I2,2020-0188,2020-11-18,17:46:41,18:09:42,NA,incomplete,129,number,1,left,Green_Circle_Dots_3.jpg,Blue_Star_Grid_3.jpg,Purple_Circle_Chess_4.jpg,left,740.8999999988591,true,high,NA,NA,NA,NA,NA,NA,NA,false
IBG6V1I2,3r15w654wg6vibc4e4w6loevry9lqd,3kkg4cdwkmbvfomricr52win8lt49m,IBG6V1I2,2020-0188,2020-11-18,17:46:41,18:09:42,NA,incomplete,130,number,0,left,Blue_Triangle_Stripes_1.jpg,Green_Plus_Chess_1.jpg,Red_Triangle_Grid_3.jpg,right,707.7100000005448,false,high,NA,NA,NA,NA,NA,NA,NA,false
IBG6V1I2,3r15w654wg6vibc4e4w6loevry9lqd,3kkg4cdwkmbvfomricr52win8lt49m,IBG6V1I2,2020-0188,2020-11-18,17:46:41,18:09:42,NA,incomplete,131,number,1,left,Purple_Circle_Grid_1.jpg,Green_Plus_Dots_1.jpg,Blue_Circle_Stripes_3.jpg,right,554.7499999994179,false,high,NA,NA,NA,NA,NA,NA,NA,false
IBG6V1I2,3r15w654wg6vibc4e4w6loevry9lqd,3kkg4cdwkmbvfomricr52win8lt49m,IBG6V1I2,2020-0188,2020-11-18,17:46:41,18:09:42,NA,incomplete,132,number,0,left,Green_Circle_Stripes_2.jpg,Purple_Plus_Dots_2.jpg,Red_Circle_Grid_4.jpg,right,992.8600000003353,false,high,NA,NA,NA,NA,NA,NA,NA,false
IBG6V1I2,3r15w654wg6vibc4e4w6loevry9lqd,3kkg4cdwkmbvfomricr52win8lt49m,IBG6V1I2,2020-0188,2020-11-18,17:46:41,18:09:42,NA,incomplete,133,number,1,right,Green_Plus_Stripes_2.jpg,Blue_Plus_Chess_3.jpg,Red_Triangle_Grid_2.jpg,left,849.8199999993667,false,high,NA,NA,NA,NA,NA,NA,NA,false
IBG6V1I2,3r15w654wg6vibc4e4w6loevry9lqd,3kkg4cdwkmbvfomricr52win8lt49m,IBG6V1I2,2020-0188,2020-11-18,17:46:41,18:09:42,NA,incomplete,134,number,1,right,Purple_Star_Chess_3.jpg,Blue_Star_Grid_2.jpg,Red_Triangle_Dots_3.jpg,right,928.2100000001956,true,high,NA,NA,NA,NA,NA,NA,NA,false
IBG6V1I2,3r15w654wg6vibc4e4w6loevry9lqd,3kkg4cdwkmbvfomricr52win8lt49m,IBG6V1I2,2020-0188,2020-11-18,17:46:41,18:09:42,NA,incomplete,135,number,0,right,Blue_Star_Stripes_2.jpg,Red_Star_Chess_1.jpg,Green_Triangle_Dots_2.jpg,right,654.3250000013504,true,high,NA,NA,NA,NA,NA,NA,NA,false
IBG6V1I2,3r15w654wg6vibc4e4w6loevry9lqd,3kkg4cdwkmbvfomricr52win8lt49m,IBG6V1I2,2020-0188,2020-11-18,17:46:41,18:09:42,NA,incomplete,136,number,1,left,Purple_Star_Chess_3.jpg,Red_Triangle_Dots_3.jpg,Blue_Star_Grid_4.jpg,right,1221.8000000012107,false,high,NA,NA,NA,NA,NA,NA,NA,false
IBG6V1I2,3r15w654wg6vibc4e4w6loevry9lqd,3kkg4cdwkmbvfomricr52win8lt49m,IBG6V1I2,2020-0188,2020-11-18,17:46:41,18:09:42,NA,incomplete,137,number,1,right,Purple_Circle_Grid_1.jpg,Blue_Circle_Chess_2.jpg,Green_Star_Stripes_1.jpg,right,668.4600000008941,true,high,NA,NA,NA,NA,NA,NA,NA,false
IBG6V1I2,3r15w654wg6vibc4e4w6loevry9lqd,3kkg4cdwkmbvfomricr52win8lt49m,IBG6V1I2,2020-0188,2020-11-18,17:46:41,18:09:42,NA,incomplete,138,number,1,right,Purple_Triangle_Dots_4.jpg,Blue_Triangle_Grid_2.jpg,Green_Plus_Chess_4.jpg,right,649.5350000003818,true,high,NA,NA,NA,NA,NA,NA,NA,false
IBG6V1I2,3r15w654wg6vibc4e4w6loevry9lqd,3kkg4cdwkmbvfomricr52win8lt49m,IBG6V1I2,2020-0188,2020-11-18,17:46:41,18:09:42,NA,incomplete,139,number,1,right,Blue_Triangle_Stripes_3.jpg,Red_Triangle_Chess_1.jpg,Purple_Circle_Grid_3.jpg,right,682.6299999994226,true,high,NA,NA,NA,NA,NA,NA,NA,false
IBG6V1I2,3r15w654wg6vibc4e4w6loevry9lqd,3kkg4cdwkmbvfomricr52win8lt49m,IBG6V1I2,2020-0188,2020-11-18,17:46:41,18:09:42,NA,incomplete,140,shape,1,right,Red_Plus_Dots_1.jpg,Purple_Triangle_Grid_1.jpg,Blue_Plus_Stripes_3.jpg,right,781.9200000013225,true,high,NA,NA,NA,NA,NA,NA,NA,false
IBG6V1I2,3r15w654wg6vibc4e4w6loevry9lqd,3kkg4cdwkmbvfomricr52win8lt49m,IBG6V1I2,2020-0188,2020-11-18,17:46:41,18:09:42,NA,incomplete,141,shape,0,right,Blue_Star_Chess_4.jpg,Red_Circle_Stripes_4.jpg,Purple_Star_Dots_3.jpg,right,659.1599999992177,true,high,NA,NA,NA,NA,NA,NA,NA,false
IBG6V1I2,3r15w654wg6vibc4e4w6loevry9lqd,3kkg4cdwkmbvfomricr52win8lt49m,IBG6V1I2,2020-0188,2020-11-18,17:46:41,18:09:42,NA,incomplete,142,shape,1,right,Blue_Plus_Stripes_3.jpg,Green_Star_Dots_3.jpg,Purple_Plus_Chess_2.jpg,right,961.0250000003725,true,high,NA,NA,NA,NA,NA,NA,NA,false
IBG6V1I2,3r15w654wg6vibc4e4w6loevry9lqd,3kkg4cdwkmbvfomricr52win8lt49m,IBG6V1I2,2020-0188,2020-11-18,17:46:41,18:09:42,NA,incomplete,143,shape,0,left,Red_Triangle_Chess_2.jpg,Blue_Triangle_Grid_1.jpg,Purple_Star_Stripes_2.jpg,left,801.4500000008848,true,high,NA,NA,NA,NA,NA,NA,NA,false
IBG6V1I2,3r15w654wg6vibc4e4w6loevry9lqd,3kkg4cdwkmbvfomricr52win8lt49m,IBG6V1I2,2020-0188,2020-11-18,17:46:41,18:09:42,NA,incomplete,144,shape,1,right,Red_Plus_Stripes_1.jpg,Green_Star_Chess_1.jpg,Purple_Plus_Dots_3.jpg,left,757.5099999993108,false,high,NA,NA,NA,NA,NA,NA,NA,false
IBG6V1I2,3r15w654wg6vibc4e4w6loevry9lqd,3kkg4cdwkmbvfomricr52win8lt49m,IBG6V1I2,2020-0188,2020-11-18,17:46:41,18:09:42,NA,incomplete,145,shape,0,right,Red_Plus_Grid_1.jpg,Purple_Star_Stripes_1.jpg,Green_Plus_Dots_2.jpg,right,849.6999999987893,true,high,NA,NA,NA,NA,NA,NA,NA,false
IBG6V1I2,3r15w654wg6vibc4e4w6loevry9lqd,3kkg4cdwkmbvfomricr52win8lt49m,IBG6V1I2,2020-0188,2020-11-18,17:46:41,18:09:42,NA,incomplete,146,shape,1,left,Red_Circle_Chess_4.jpg,Blue_Circle_Stripes_2.jpg,Green_Plus_Dots_4.jpg,right,673.4049999995623,false,high,NA,NA,NA,NA,NA,NA,NA,false
IBG6V1I2,3r15w654wg6vibc4e4w6loevry9lqd,3kkg4cdwkmbvfomricr52win8lt49m,IBG6V1I2,2020-0188,2020-11-18,17:46:41,18:09:42,NA,incomplete,147,shape,1,left,Blue_Star_Dots_3.jpg,Green_Star_Grid_1.jpg,Red_Plus_Chess_3.jpg,right,681.0349999996834,false,high,NA,NA,NA,NA,NA,NA,NA,false
IBG6V1I2,3r15w654wg6vibc4e4w6loevry9lqd,3kkg4cdwkmbvfomricr52win8lt49m,IBG6V1I2,2020-0188,2020-11-18,17:46:41,18:09:42,NA,incomplete,148,shape,1,right,Red_Triangle_Grid_4.jpg,Purple_Plus_Dots_4.jpg,Green_Triangle_Stripes_2.jpg,right,814.2900000002701,true,high,NA,NA,NA,NA,NA,NA,NA,false
IBG6V1I2,3r15w654wg6vibc4e4w6loevry9lqd,3kkg4cdwkmbvfomricr52win8lt49m,IBG6V1I2,2020-0188,2020-11-18,17:46:41,18:09:42,NA,incomplete,149,shape,1,left,Red_Triangle_Chess_3.jpg,Purple_Triangle_Grid_4.jpg,Blue_Plus_Stripes_3.jpg,left,695.2000000001863,true,high,NA,NA,NA,NA,NA,NA,NA,false
IBG6V1I2,3r15w654wg6vibc4e4w6loevry9lqd,3kkg4cdwkmbvfomricr52win8lt49m,IBG6V1I2,2020-0188,2020-11-18,17:46:41,18:09:42,NA,incomplete,150,shape,1,right,Blue_Star_Dots_4.jpg,Purple_Triangle_Chess_4.jpg,Red_Star_Grid_1.jpg,right,944.5500000002794,true,high,NA,NA,NA,NA,NA,NA,NA,false
IBG6V1I2,3r15w654wg6vibc4e4w6loevry9lqd,3kkg4cdwkmbvfomricr52win8lt49m,IBG6V1I2,2020-0188,2020-11-18,17:46:41,18:09:42,NA,incomplete,151,shape,1,left,Green_Star_Grid_4.jpg,Red_Star_Dots_3.jpg,Blue_Triangle_Stripes_4.jpg,left,687.9799999985844,true,high,NA,NA,NA,NA,NA,NA,NA,false
IBG6V1I2,3r15w654wg6vibc4e4w6loevry9lqd,3kkg4cdwkmbvfomricr52win8lt49m,IBG6V1I2,2020-0188,2020-11-18,17:46:41,18:09:42,NA,incomplete,152,shape,0,left,Blue_Circle_Dots_4.jpg,Red_Circle_Grid_1.jpg,Purple_Triangle_Chess_4.jpg,left,687.5349999992177,true,high,NA,NA,NA,NA,NA,NA,NA,false
IBG6V1I2,3r15w654wg6vibc4e4w6loevry9lqd,3kkg4cdwkmbvfomricr52win8lt49m,IBG6V1I2,2020-0188,2020-11-18,17:46:41,18:09:42,NA,incomplete,153,shape,1,left,Blue_Circle_Stripes_3.jpg,Green_Circle_Chess_1.jpg,Red_Plus_Dots_3.jpg,right,593.0399999998044,false,high,NA,NA,NA,NA,NA,NA,NA,false
IBG6V1I2,3r15w654wg6vibc4e4w6loevry9lqd,3kkg4cdwkmbvfomricr52win8lt49m,IBG6V1I2,2020-0188,2020-11-18,17:46:41,18:09:42,NA,incomplete,154,shape,1,right,Blue_Circle_Chess_2.jpg,Red_Triangle_Grid_2.jpg,Purple_Circle_Dots_1.jpg,right,911.5600000005215,true,high,NA,NA,NA,NA,NA,NA,NA,false
IBG6V1I2,3r15w654wg6vibc4e4w6loevry9lqd,3kkg4cdwkmbvfomricr52win8lt49m,IBG6V1I2,2020-0188,2020-11-18,17:46:41,18:09:42,NA,incomplete,155,shape,1,left,Blue_Plus_Stripes_4.jpg,Purple_Plus_Dots_1.jpg,Green_Triangle_Grid_4.jpg,left,765.8449999999721,true,high,NA,NA,NA,NA,NA,NA,NA,false
IBG6V1I2,3r15w654wg6vibc4e4w6loevry9lqd,3kkg4cdwkmbvfomricr52win8lt49m,IBG6V1I2,2020-0188,2020-11-18,17:46:41,18:09:42,NA,incomplete,156,shape,1,left,Blue_Plus_Stripes_3.jpg,Purple_Plus_Chess_4.jpg,Red_Circle_Grid_3.jpg,left,749.8200000007637,true,high,NA,NA,NA,NA,NA,NA,NA,false
IBG6V1I2,3r15w654wg6vibc4e4w6loevry9lqd,3kkg4cdwkmbvfomricr52win8lt49m,IBG6V1I2,2020-0188,2020-11-18,17:46:41,18:09:42,NA,incomplete,157,shape,1,right,Red_Plus_Chess_2.jpg,Purple_Star_Stripes_2.jpg,Green_Plus_Dots_4.jpg,right,773.0650000011083,true,high,NA,NA,NA,NA,NA,NA,NA,false
IBG6V1I2,3r15w654wg6vibc4e4w6loevry9lqd,3kkg4cdwkmbvfomricr52win8lt49m,IBG6V1I2,2020-0188,2020-11-18,17:46:41,18:09:42,NA,incomplete,158,shape,1,left,Red_Circle_Grid_3.jpg,Purple_Circle_Stripes_2.jpg,Green_Plus_Dots_3.jpg,left,770.9150000009686,true,high,NA,NA,NA,NA,NA,NA,NA,false
IBG6V1I2,3r15w654wg6vibc4e4w6loevry9lqd,3kkg4cdwkmbvfomricr52win8lt49m,IBG6V1I2,2020-0188,2020-11-18,17:46:41,18:09:42,NA,incomplete,159,shape,0,left,Green_Triangle_Grid_3.jpg,Blue_Triangle_Dots_2.jpg,Purple_Circle_Chess_3.jpg,left,740.2550000005867,true,high,NA,NA,NA,NA,NA,NA,NA,false
IBG6V1I2,3r15w654wg6vibc4e4w6loevry9lqd,3kkg4cdwkmbvfomricr52win8lt49m,IBG6V1I2,2020-0188,2020-11-18,17:46:41,18:09:42,NA,incomplete,160,number,1,left,Purple_Triangle_Grid_1.jpg,Green_Star_Dots_1.jpg,Blue_Triangle_Chess_3.jpg,right,994.1099999996368,false,high,NA,NA,NA,NA,NA,NA,NA,false
IBG6V1I2,3r15w654wg6vibc4e4w6loevry9lqd,3kkg4cdwkmbvfomricr52win8lt49m,IBG6V1I2,2020-0188,2020-11-18,17:46:41,18:09:42,NA,incomplete,161,number,0,left,Blue_Plus_Grid_3.jpg,Green_Triangle_Dots_3.jpg,Red_Plus_Stripes_1.jpg,left,658.1699999989942,true,high,NA,NA,NA,NA,NA,NA,NA,false
IBG6V1I2,3r15w654wg6vibc4e4w6loevry9lqd,3kkg4cdwkmbvfomricr52win8lt49m,IBG6V1I2,2020-0188,2020-11-18,17:46:41,18:09:42,NA,incomplete,162,number,1,right,Purple_Plus_Dots_1.jpg,Blue_Plus_Chess_3.jpg,Red_Triangle_Stripes_1.jpg,left,827.6650000007357,false,high,NA,NA,NA,NA,NA,NA,NA,false
IBG6V1I2,3r15w654wg6vibc4e4w6loevry9lqd,3kkg4cdwkmbvfomricr52win8lt49m,IBG6V1I2,2020-0188,2020-11-18,17:46:41,18:09:42,NA,incomplete,163,number,0,left,Blue_Circle_Grid_3.jpg,Purple_Triangle_Dots_3.jpg,Green_Circle_Stripes_1.jpg,left,680.2150000003166,true,high,NA,NA,NA,NA,NA,NA,NA,false
IBG6V1I2,3r15w654wg6vibc4e4w6loevry9lqd,3kkg4cdwkmbvfomricr52win8lt49m,IBG6V1I2,2020-0188,2020-11-18,17:46:41,18:09:42,NA,incomplete,164,number,1,right,Purple_Circle_Chess_1.jpg,Red_Circle_Stripes_2.jpg,Blue_Plus_Dots_1.jpg,left,822.7449999994133,false,high,NA,NA,NA,NA,NA,NA,NA,false
IBG6V1I2,3r15w654wg6vibc4e4w6loevry9lqd,3kkg4cdwkmbvfomricr52win8lt49m,IBG6V1I2,2020-0188,2020-11-18,17:46:41,18:09:42,NA,incomplete,165,number,0,left,Purple_Triangle_Stripes_3.jpg,Blue_Plus_Grid_3.jpg,Green_Triangle_Dots_4.jpg,right,739.5099999995437,false,high,NA,NA,NA,NA,NA,NA,NA,false
IBG6V1I2,3r15w654wg6vibc4e4w6loevry9lqd,3kkg4cdwkmbvfomricr52win8lt49m,IBG6V1I2,2020-0188,2020-11-18,17:46:41,18:09:42,NA,incomplete,166,number,1,right,Blue_Star_Grid_1.jpg,Purple_Star_Chess_4.jpg,Green_Circle_Dots_1.jpg,right,694.1999999999534,true,high,NA,NA,NA,NA,NA,NA,NA,false
IBG6V1I2,3r15w654wg6vibc4e4w6loevry9lqd,3kkg4cdwkmbvfomricr52win8lt49m,IBG6V1I2,2020-0188,2020-11-18,17:46:41,18:09:42,NA,incomplete,167,number,0,left,Blue_Star_Chess_4.jpg,Purple_Plus_Grid_4.jpg,Red_Star_Stripes_3.jpg,left,784.5600000000559,true,high,NA,NA,NA,NA,NA,NA,NA,false
IBG6V1I2,3r15w654wg6vibc4e4w6loevry9lqd,3kkg4cdwkmbvfomricr52win8lt49m,IBG6V1I2,2020-0188,2020-11-18,17:46:41,18:09:42,NA,incomplete,168,number,1,right,Blue_Triangle_Grid_4.jpg,Green_Triangle_Dots_3.jpg,Red_Circle_Stripes_4.jpg,left,685.8950000004843,false,high,NA,NA,NA,NA,NA,NA,NA,false
IBG6V1I2,3r15w654wg6vibc4e4w6loevry9lqd,3kkg4cdwkmbvfomricr52win8lt49m,IBG6V1I2,2020-0188,2020-11-18,17:46:41,18:09:42,NA,incomplete,169,number,1,left,Purple_Circle_Stripes_1.jpg,Blue_Triangle_Dots_1.jpg,Red_Circle_Chess_3.jpg,right,986.6050000002142,false,high,NA,NA,NA,NA,NA,NA,NA,false
IBG6V1I2,3r15w654wg6vibc4e4w6loevry9lqd,3kkg4cdwkmbvfomricr52win8lt49m,IBG6V1I2,2020-0188,2020-11-18,17:46:41,18:09:42,NA,incomplete,170,number,1,left,Red_Triangle_Stripes_4.jpg,Blue_Plus_Dots_4.jpg,Purple_Triangle_Chess_3.jpg,right,840.5599999988917,false,high,NA,NA,NA,NA,NA,NA,NA,false
IBG6V1I2,3r15w654wg6vibc4e4w6loevry9lqd,3kkg4cdwkmbvfomricr52win8lt49m,IBG6V1I2,2020-0188,2020-11-18,17:46:41,18:09:42,NA,incomplete,171,number,1,left,Green_Star_Grid_1.jpg,Blue_Plus_Chess_1.jpg,Red_Star_Dots_3.jpg,left,732.3799999994226,true,high,NA,NA,NA,NA,NA,NA,NA,false
IBG6V1I2,3r15w654wg6vibc4e4w6loevry9lqd,3kkg4cdwkmbvfomricr52win8lt49m,IBG6V1I2,2020-0188,2020-11-18,17:46:41,18:09:42,NA,incomplete,172,number,0,left,Purple_Circle_Dots_2.jpg,Blue_Plus_Chess_2.jpg,Green_Circle_Grid_1.jpg,left,811.9100000003818,true,high,NA,NA,NA,NA,NA,NA,NA,false
IBG6V1I2,3r15w654wg6vibc4e4w6loevry9lqd,3kkg4cdwkmbvfomricr52win8lt49m,IBG6V1I2,2020-0188,2020-11-18,17:46:41,18:09:42,NA,incomplete,173,number,1,left,Purple_Plus_Stripes_4.jpg,Red_Star_Chess_4.jpg,Green_Plus_Grid_3.jpg,left,862.9500000006519,true,high,NA,NA,NA,NA,NA,NA,NA,false
IBG6V1I2,3r15w654wg6vibc4e4w6loevry9lqd,3kkg4cdwkmbvfomricr52win8lt49m,IBG6V1I2,2020-0188,2020-11-18,17:46:41,18:09:42,NA,incomplete,174,number,1,right,Purple_Circle_Chess_2.jpg,Red_Circle_Dots_4.jpg,Green_Triangle_Stripes_2.jpg,left,733.3799999996554,false,high,NA,NA,NA,NA,NA,NA,NA,false
IBG6V1I2,3r15w654wg6vibc4e4w6loevry9lqd,3kkg4cdwkmbvfomricr52win8lt49m,IBG6V1I2,2020-0188,2020-11-18,17:46:41,18:09:42,NA,incomplete,175,number,0,right,Blue_Plus_Stripes_4.jpg,Green_Plus_Chess_2.jpg,Red_Star_Dots_4.jpg,right,667.8000000012107,true,high,NA,NA,NA,NA,NA,NA,NA,false
IBG6V1I2,3r15w654wg6vibc4e4w6loevry9lqd,3kkg4cdwkmbvfomricr52win8lt49m,IBG6V1I2,2020-0188,2020-11-18,17:46:41,18:09:42,NA,incomplete,176,number,1,left,Green_Star_Chess_4.jpg,Blue_Circle_Grid_4.jpg,Red_Star_Stripes_1.jpg,right,795.019999999553,false,high,NA,NA,NA,NA,NA,NA,NA,false
IBG6V1I2,3r15w654wg6vibc4e4w6loevry9lqd,3kkg4cdwkmbvfomricr52win8lt49m,IBG6V1I2,2020-0188,2020-11-18,17:46:41,18:09:42,NA,incomplete,177,number,1,left,Purple_Circle_Chess_2.jpg,Blue_Triangle_Dots_2.jpg,Green_Circle_Stripes_3.jpg,left,913.5999999998603,true,high,NA,NA,NA,NA,NA,NA,NA,false
IBG6V1I2,3r15w654wg6vibc4e4w6loevry9lqd,3kkg4cdwkmbvfomricr52win8lt49m,IBG6V1I2,2020-0188,2020-11-18,17:46:41,18:09:42,NA,incomplete,178,number,1,right,Green_Triangle_Grid_1.jpg,Red_Triangle_Dots_3.jpg,Purple_Circle_Stripes_1.jpg,right,764.4999999993015,true,high,NA,NA,NA,NA,NA,NA,NA,false
IBG6V1I2,3r15w654wg6vibc4e4w6loevry9lqd,3kkg4cdwkmbvfomricr52win8lt49m,IBG6V1I2,2020-0188,2020-11-18,17:46:41,18:09:42,NA,incomplete,179,number,1,right,Red_Circle_Chess_4.jpg,Blue_Circle_Grid_3.jpg,Purple_Triangle_Stripes_4.jpg,right,769.3199999993667,true,high,NA,NA,NA,NA,NA,NA,NA,false
IBG6V1I2,3r15w654wg6vibc4e4w6loevry9lqd,3kkg4cdwkmbvfomricr52win8lt49m,IBG6V1I2,2020-0188,2020-11-18,17:46:41,18:09:42,NA,incomplete,180,shape,1,right,Green_Triangle_Grid_4.jpg,Blue_Circle_Dots_4.jpg,Purple_Triangle_Stripes_2.jpg,left,640.5850000008941,false,high,NA,NA,NA,NA,NA,NA,NA,false
IBG6V1I2,3r15w654wg6vibc4e4w6loevry9lqd,3kkg4cdwkmbvfomricr52win8lt49m,IBG6V1I2,2020-0188,2020-11-18,17:46:41,18:09:42,NA,incomplete,181,shape,1,right,Blue_Plus_Chess_3.jpg,Purple_Star_Dots_3.jpg,Green_Plus_Stripes_2.jpg,right,938.8199999993667,true,high,NA,NA,NA,NA,NA,NA,NA,false
IBG6V1I2,3r15w654wg6vibc4e4w6loevry9lqd,3kkg4cdwkmbvfomricr52win8lt49m,IBG6V1I2,2020-0188,2020-11-18,17:46:41,18:09:42,NA,incomplete,182,shape,1,right,Purple_Triangle_Dots_1.jpg,Blue_Plus_Grid_1.jpg,Green_Triangle_Stripes_4.jpg,left,618.8999999994412,false,high,NA,NA,NA,NA,NA,NA,NA,false
IBG6V1I2,3r15w654wg6vibc4e4w6loevry9lqd,3kkg4cdwkmbvfomricr52win8lt49m,IBG6V1I2,2020-0188,2020-11-18,17:46:41,18:09:42,NA,incomplete,183,shape,1,right,Green_Star_Chess_3.jpg,Red_Plus_Dots_3.jpg,Purple_Star_Grid_2.jpg,left,677.4899999999907,false,high,NA,NA,NA,NA,NA,NA,NA,false
IBG6V1I2,3r15w654wg6vibc4e4w6loevry9lqd,3kkg4cdwkmbvfomricr52win8lt49m,IBG6V1I2,2020-0188,2020-11-18,17:46:41,18:09:42,NA,incomplete,184,shape,1,left,Red_Plus_Chess_1.jpg,Green_Plus_Stripes_3.jpg,Purple_Circle_Grid_1.jpg,left,906.7050000012387,true,high,NA,NA,NA,NA,NA,NA,NA,false
IBG6V1I2,3r15w654wg6vibc4e4w6loevry9lqd,3kkg4cdwkmbvfomricr52win8lt49m,IBG6V1I2,2020-0188,2020-11-18,17:46:41,18:09:42,NA,incomplete,185,shape,1,right,Red_Triangle_Stripes_4.jpg,Purple_Plus_Grid_4.jpg,Green_Triangle_Dots_1.jpg,right,965.5249999994412,true,high,NA,NA,NA,NA,NA,NA,NA,false
IBG6V1I2,3r15w654wg6vibc4e4w6loevry9lqd,3kkg4cdwkmbvfomricr52win8lt49m,IBG6V1I2,2020-0188,2020-11-18,17:46:41,18:09:42,NA,incomplete,186,shape,1,right,Green_Triangle_Grid_4.jpg,Purple_Plus_Stripes_4.jpg,Blue_Triangle_Chess_3.jpg,right,787.3650000002235,true,high,NA,NA,NA,NA,NA,NA,NA,false
IBG6V1I2,3r15w654wg6vibc4e4w6loevry9lqd,3kkg4cdwkmbvfomricr52win8lt49m,IBG6V1I2,2020-0188,2020-11-18,17:46:41,18:09:42,NA,incomplete,187,shape,0,right,Purple_Star_Grid_1.jpg,Blue_Plus_Stripes_1.jpg,Green_Star_Chess_3.jpg,right,845.6999999997206,true,high,NA,NA,NA,NA,NA,NA,NA,false
IBG6V1I2,3r15w654wg6vibc4e4w6loevry9lqd,3kkg4cdwkmbvfomricr52win8lt49m,IBG6V1I2,2020-0188,2020-11-18,17:46:41,18:09:42,NA,incomplete,188,shape,1,left,Blue_Circle_Grid_2.jpg,Purple_Circle_Dots_4.jpg,Red_Plus_Chess_2.jpg,right,802.3350000001956,false,high,NA,NA,NA,NA,NA,NA,NA,false
IBG6V1I2,3r15w654wg6vibc4e4w6loevry9lqd,3kkg4cdwkmbvfomricr52win8lt49m,IBG6V1I2,2020-0188,2020-11-18,17:46:41,18:09:42,NA,incomplete,189,shape,1,right,Purple_Plus_Dots_2.jpg,Red_Circle_Chess_2.jpg,Blue_Plus_Grid_3.jpg,right,879.089999998454,true,high,NA,NA,NA,NA,NA,NA,NA,false
IBG6V1I2,3r15w654wg6vibc4e4w6loevry9lqd,3kkg4cdwkmbvfomricr52win8lt49m,IBG6V1I2,2020-0188,2020-11-18,17:46:41,18:09:42,NA,incomplete,190,shape,0,right,Red_Triangle_Stripes_1.jpg,Purple_Star_Chess_1.jpg,Blue_Triangle_Dots_3.jpg,right,804.2349999996368,true,high,NA,NA,NA,NA,NA,NA,NA,false
IBG6V1I2,3r15w654wg6vibc4e4w6loevry9lqd,3kkg4cdwkmbvfomricr52win8lt49m,IBG6V1I2,2020-0188,2020-11-18,17:46:41,18:09:42,NA,incomplete,191,shape,1,right,Red_Plus_Stripes_1.jpg,Blue_Circle_Chess_1.jpg,Green_Plus_Grid_2.jpg,left,817.3700000005774,false,high,NA,NA,NA,NA,NA,NA,NA,false
IBG6V1I2,3r15w654wg6vibc4e4w6loevry9lqd,3kkg4cdwkmbvfomricr52win8lt49m,IBG6V1I2,2020-0188,2020-11-18,17:46:41,18:09:42,NA,incomplete,192,shape,1,right,Green_Circle_Stripes_1.jpg,Blue_Plus_Chess_1.jpg,Red_Circle_Grid_3.jpg,right,660.9449999995995,true,high,NA,NA,NA,NA,NA,NA,NA,false
IBG6V1I2,3r15w654wg6vibc4e4w6loevry9lqd,3kkg4cdwkmbvfomricr52win8lt49m,IBG6V1I2,2020-0188,2020-11-18,17:46:41,18:09:42,NA,incomplete,193,shape,0,right,Purple_Circle_Dots_4.jpg,Red_Star_Grid_4.jpg,Green_Circle_Stripes_3.jpg,right,871.6899999999441,true,high,NA,NA,NA,NA,NA,NA,NA,false
IBG6V1I2,3r15w654wg6vibc4e4w6loevry9lqd,3kkg4cdwkmbvfomricr52win8lt49m,IBG6V1I2,2020-0188,2020-11-18,17:46:41,18:09:42,NA,incomplete,194,shape,1,right,Purple_Circle_Stripes_2.jpg,Red_Star_Grid_2.jpg,Green_Circle_Chess_4.jpg,left,1037.8250000013504,false,high,NA,NA,NA,NA,NA,NA,NA,false
IBG6V1I2,3r15w654wg6vibc4e4w6loevry9lqd,3kkg4cdwkmbvfomricr52win8lt49m,IBG6V1I2,2020-0188,2020-11-18,17:46:41,18:09:42,NA,incomplete,195,shape,0,left,Blue_Star_Chess_1.jpg,Purple_Star_Grid_4.jpg,Green_Plus_Dots_1.jpg,left,728.4099999996834,true,high,NA,NA,NA,NA,NA,NA,NA,false
IBG6V1I2,3r15w654wg6vibc4e4w6loevry9lqd,3kkg4cdwkmbvfomricr52win8lt49m,IBG6V1I2,2020-0188,2020-11-18,17:46:41,18:09:42,NA,incomplete,196,shape,1,left,Red_Star_Stripes_4.jpg,Purple_Star_Dots_3.jpg,Green_Plus_Grid_4.jpg,right,928.5999999993946,false,high,NA,NA,NA,NA,NA,NA,NA,false
IBG6V1I2,3r15w654wg6vibc4e4w6loevry9lqd,3kkg4cdwkmbvfomricr52win8lt49m,IBG6V1I2,2020-0188,2020-11-18,17:46:41,18:09:42,NA,incomplete,197,shape,1,left,Red_Circle_Dots_1.jpg,Blue_Circle_Grid_2.jpg,Purple_Plus_Chess_1.jpg,left,889.8250000001863,true,high,NA,NA,NA,NA,NA,NA,NA,false
IBG6V1I2,3r15w654wg6vibc4e4w6loevry9lqd,3kkg4cdwkmbvfomricr52win8lt49m,IBG6V1I2,2020-0188,2020-11-18,17:46:41,18:09:42,NA,incomplete,198,shape,1,left,Purple_Star_Stripes_2.jpg,Blue_Star_Grid_1.jpg,Green_Triangle_Chess_2.jpg,left,757.364999999525,true,high,NA,NA,NA,NA,NA,NA,NA,false
IBG6V1I2,3r15w654wg6vibc4e4w6loevry9lqd,3kkg4cdwkmbvfomricr52win8lt49m,IBG6V1I2,2020-0188,2020-11-18,17:46:41,18:09:42,NA,incomplete,199,shape,0,right,Purple_Triangle_Chess_1.jpg,Blue_Plus_Grid_1.jpg,Red_Triangle_Dots_4.jpg,right,911.6349999986123,true,high,NA,NA,NA,NA,NA,NA,NA,false
IBG6V1I2,3r15w654wg6vibc4e4w6loevry9lqd,3kkg4cdwkmbvfomricr52win8lt49m,IBG6V1I2,2020-0188,2020-11-18,17:46:41,18:09:42,NA,incomplete,200,number,1,left,Red_Plus_Chess_1.jpg,Green_Triangle_Stripes_1.jpg,Blue_Plus_Grid_2.jpg,right,919.8249999990221,false,high,NA,NA,NA,NA,NA,NA,NA,false
IBG6V1I2,3r15w654wg6vibc4e4w6loevry9lqd,3kkg4cdwkmbvfomricr52win8lt49m,IBG6V1I2,2020-0188,2020-11-18,17:46:41,18:09:42,NA,incomplete,201,number,1,right,Green_Circle_Stripes_3.jpg,Purple_Circle_Dots_2.jpg,Blue_Triangle_Grid_3.jpg,right,657.2299999988172,true,high,NA,NA,NA,NA,NA,NA,NA,false
IBG6V1I2,3r15w654wg6vibc4e4w6loevry9lqd,3kkg4cdwkmbvfomricr52win8lt49m,IBG6V1I2,2020-0188,2020-11-18,17:46:41,18:09:42,NA,incomplete,202,number,1,right,Blue_Plus_Stripes_2.jpg,Red_Plus_Dots_3.jpg,Green_Triangle_Grid_2.jpg,right,823.6500000003725,true,high,NA,NA,NA,NA,NA,NA,NA,false
IBG6V1I2,3r15w654wg6vibc4e4w6loevry9lqd,3kkg4cdwkmbvfomricr52win8lt49m,IBG6V1I2,2020-0188,2020-11-18,17:46:41,18:09:42,NA,incomplete,203,number,1,right,Blue_Circle_Chess_1.jpg,Green_Circle_Stripes_4.jpg,Purple_Triangle_Grid_1.jpg,right,802.7999999993481,true,high,NA,NA,NA,NA,NA,NA,NA,false
IBG6V1I2,3r15w654wg6vibc4e4w6loevry9lqd,3kkg4cdwkmbvfomricr52win8lt49m,IBG6V1I2,2020-0188,2020-11-18,17:46:41,18:09:42,NA,incomplete,204,number,1,right,Blue_Circle_Grid_3.jpg,Red_Circle_Stripes_2.jpg,Purple_Triangle_Chess_3.jpg,right,1169.734999999404,true,high,NA,NA,NA,NA,NA,NA,NA,false
IBG6V1I2,3r15w654wg6vibc4e4w6loevry9lqd,3kkg4cdwkmbvfomricr52win8lt49m,IBG6V1I2,2020-0188,2020-11-18,17:46:41,18:09:42,NA,incomplete,205,number,1,right,Blue_Plus_Chess_1.jpg,Purple_Plus_Stripes_4.jpg,Red_Circle_Dots_1.jpg,right,845.859999999404,true,high,NA,NA,NA,NA,NA,NA,NA,false
IBG6V1I2,3r15w654wg6vibc4e4w6loevry9lqd,3kkg4cdwkmbvfomricr52win8lt49m,IBG6V1I2,2020-0188,2020-11-18,17:46:41,18:09:42,NA,incomplete,206,number,1,left,Purple_Star_Grid_1.jpg,Blue_Circle_Stripes_1.jpg,Red_Star_Dots_2.jpg,left,824.6550000004936,true,high,NA,NA,NA,NA,NA,NA,NA,false
IBG6V1I2,3r15w654wg6vibc4e4w6loevry9lqd,3kkg4cdwkmbvfomricr52win8lt49m,IBG6V1I2,2020-0188,2020-11-18,17:46:41,18:09:42,NA,incomplete,207,number,1,right,Blue_Circle_Chess_3.jpg,Red_Circle_Grid_2.jpg,Purple_Star_Dots_3.jpg,right,711.035000000149,true,high,NA,NA,NA,NA,NA,NA,NA,false
IBG6V1I2,3r15w654wg6vibc4e4w6loevry9lqd,3kkg4cdwkmbvfomricr52win8lt49m,IBG6V1I2,2020-0188,2020-11-18,17:46:41,18:09:42,NA,incomplete,208,number,1,left,Green_Triangle_Grid_2.jpg,Red_Circle_Stripes_2.jpg,Purple_Triangle_Chess_3.jpg,left,660.7399999992922,true,high,NA,NA,NA,NA,NA,NA,NA,false
IBG6V1I2,3r15w654wg6vibc4e4w6loevry9lqd,3kkg4cdwkmbvfomricr52win8lt49m,IBG6V1I2,2020-0188,2020-11-18,17:46:41,18:09:42,NA,incomplete,209,number,1,right,Blue_Circle_Chess_3.jpg,Red_Circle_Grid_4.jpg,Purple_Star_Dots_3.jpg,right,705.5,true,high,NA,NA,NA,NA,NA,NA,NA,false
IBG6V1I2,3r15w654wg6vibc4e4w6loevry9lqd,3kkg4cdwkmbvfomricr52win8lt49m,IBG6V1I2,2020-0188,2020-11-18,17:46:41,18:09:42,NA,incomplete,210,number,1,right,Red_Circle_Grid_1.jpg,Purple_Circle_Stripes_4.jpg,Blue_Triangle_Dots_1.jpg,right,774.1150000002235,true,high,NA,NA,NA,NA,NA,NA,NA,false
IBG6V1I2,3r15w654wg6vibc4e4w6loevry9lqd,3kkg4cdwkmbvfomricr52win8lt49m,IBG6V1I2,2020-0188,2020-11-18,17:46:41,18:09:42,NA,incomplete,211,number,1,right,Red_Triangle_Stripes_4.jpg,Blue_Triangle_Chess_2.jpg,Green_Circle_Dots_4.jpg,right,625.2700000004843,true,high,NA,NA,NA,NA,NA,NA,NA,false
IBG6V1I2,3r15w654wg6vibc4e4w6loevry9lqd,3kkg4cdwkmbvfomricr52win8lt49m,IBG6V1I2,2020-0188,2020-11-18,17:46:41,18:09:42,NA,incomplete,212,number,1,right,Blue_Star_Chess_1.jpg,Green_Star_Dots_3.jpg,Red_Circle_Stripes_1.jpg,right,790.0400000000373,true,high,NA,NA,NA,NA,NA,NA,NA,false
IBG6V1I2,3r15w654wg6vibc4e4w6loevry9lqd,3kkg4cdwkmbvfomricr52win8lt49m,IBG6V1I2,2020-0188,2020-11-18,17:46:41,18:09:42,NA,incomplete,213,number,1,left,Green_Circle_Stripes_2.jpg,Purple_Plus_Dots_2.jpg,Blue_Circle_Chess_3.jpg,left,730.4949999998789,true,high,NA,NA,NA,NA,NA,NA,NA,false
IBG6V1I2,3r15w654wg6vibc4e4w6loevry9lqd,3kkg4cdwkmbvfomricr52win8lt49m,IBG6V1I2,2020-0188,2020-11-18,17:46:41,18:09:42,NA,incomplete,214,number,1,left,Red_Triangle_Grid_4.jpg,Purple_Star_Dots_4.jpg,Green_Triangle_Stripes_1.jpg,left,740.5100000014063,true,high,NA,NA,NA,NA,NA,NA,NA,false
IBG6V1I2,3r15w654wg6vibc4e4w6loevry9lqd,3kkg4cdwkmbvfomricr52win8lt49m,IBG6V1I2,2020-0188,2020-11-18,17:46:41,18:09:42,NA,incomplete,215,number,1,left,Green_Star_Chess_4.jpg,Red_Circle_Grid_4.jpg,Blue_Star_Dots_1.jpg,left,621.3700000008103,true,high,NA,NA,NA,NA,NA,NA,NA,false
IBG6V1I2,3r15w654wg6vibc4e4w6loevry9lqd,3kkg4cdwkmbvfomricr52win8lt49m,IBG6V1I2,2020-0188,2020-11-18,17:46:41,18:09:42,NA,incomplete,216,number,0,left,Blue_Triangle_Stripes_2.jpg,Green_Plus_Dots_2.jpg,Purple_Triangle_Grid_4.jpg,left,692.2949999989942,true,high,NA,NA,NA,NA,NA,NA,NA,false
IBG6V1I2,3r15w654wg6vibc4e4w6loevry9lqd,3kkg4cdwkmbvfomricr52win8lt49m,IBG6V1I2,2020-0188,2020-11-18,17:46:41,18:09:42,NA,incomplete,217,number,1,left,Green_Circle_Chess_4.jpg,Red_Triangle_Stripes_4.jpg,Purple_Circle_Dots_3.jpg,right,638.4349999991246,false,high,NA,NA,NA,NA,NA,NA,NA,false
IBG6V1I2,3r15w654wg6vibc4e4w6loevry9lqd,3kkg4cdwkmbvfomricr52win8lt49m,IBG6V1I2,2020-0188,2020-11-18,17:46:41,18:09:42,NA,incomplete,218,number,1,right,Purple_Triangle_Grid_3.jpg,Green_Triangle_Chess_1.jpg,Red_Star_Dots_3.jpg,right,724.1899999990128,true,high,NA,NA,NA,NA,NA,NA,NA,false
IBG6V1I2,3r15w654wg6vibc4e4w6loevry9lqd,3kkg4cdwkmbvfomricr52win8lt49m,IBG6V1I2,2020-0188,2020-11-18,17:46:41,18:09:42,NA,incomplete,219,number,1,left,Purple_Circle_Grid_2.jpg,Green_Plus_Chess_2.jpg,Blue_Circle_Dots_3.jpg,left,846.0400000002701,true,high,NA,NA,NA,NA,NA,NA,NA,false
IBG6V1I2,3r15w654wg6vibc4e4w6loevry9lqd,3kkg4cdwkmbvfomricr52win8lt49m,IBG6V1I2,2020-0188,2020-11-18,17:46:41,18:09:42,NA,incomplete,220,shape,1,left,Purple_Triangle_Dots_1.jpg,Green_Triangle_Grid_2.jpg,Red_Circle_Stripes_1.jpg,right,616.9950000001118,false,high,NA,NA,NA,NA,NA,NA,NA,false
IBG6V1I2,3r15w654wg6vibc4e4w6loevry9lqd,3kkg4cdwkmbvfomricr52win8lt49m,IBG6V1I2,2020-0188,2020-11-18,17:46:41,18:09:42,NA,incomplete,221,shape,0,left,Purple_Plus_Grid_1.jpg,Red_Plus_Stripes_2.jpg,Green_Triangle_Chess_1.jpg,left,860.7150000007823,true,high,NA,NA,NA,NA,NA,NA,NA,false
IBG6V1I2,3r15w654wg6vibc4e4w6loevry9lqd,3kkg4cdwkmbvfomricr52win8lt49m,IBG6V1I2,2020-0188,2020-11-18,17:46:41,18:09:42,NA,incomplete,222,shape,1,left,Blue_Plus_Stripes_1.jpg,Purple_Plus_Chess_2.jpg,Red_Circle_Grid_1.jpg,right,717.5049999987241,false,high,NA,NA,NA,NA,NA,NA,NA,false
IBG6V1I2,3r15w654wg6vibc4e4w6loevry9lqd,3kkg4cdwkmbvfomricr52win8lt49m,IBG6V1I2,2020-0188,2020-11-18,17:46:41,18:09:42,NA,incomplete,223,shape,0,left,Purple_Circle_Dots_3.jpg,Blue_Circle_Chess_2.jpg,Green_Star_Stripes_3.jpg,right,688.0849999997299,false,high,NA,NA,NA,NA,NA,NA,NA,false
IBG6V1I2,3r15w654wg6vibc4e4w6loevry9lqd,3kkg4cdwkmbvfomricr52win8lt49m,IBG6V1I2,2020-0188,2020-11-18,17:46:41,18:09:42,NA,incomplete,224,shape,1,right,Blue_Plus_Grid_1.jpg,Green_Star_Stripes_1.jpg,Red_Plus_Dots_2.jpg,right,1007.7849999996834,true,high,NA,NA,NA,NA,NA,NA,NA,false
IBG6V1I2,3r15w654wg6vibc4e4w6loevry9lqd,3kkg4cdwkmbvfomricr52win8lt49m,IBG6V1I2,2020-0188,2020-11-18,17:46:41,18:09:42,NA,incomplete,225,shape,1,left,Blue_Circle_Stripes_2.jpg,Green_Circle_Dots_4.jpg,Red_Plus_Chess_2.jpg,right,720.7350000008009,false,high,NA,NA,NA,NA,NA,NA,NA,false
IBG6V1I2,3r15w654wg6vibc4e4w6loevry9lqd,3kkg4cdwkmbvfomricr52win8lt49m,IBG6V1I2,2020-0188,2020-11-18,17:46:41,18:09:42,NA,incomplete,226,shape,1,left,Red_Plus_Chess_2.jpg,Purple_Plus_Stripes_3.jpg,Blue_Triangle_Dots_2.jpg,left,1030.85499999905,true,high,NA,NA,NA,NA,NA,NA,NA,false
IBG6V1I2,3r15w654wg6vibc4e4w6loevry9lqd,3kkg4cdwkmbvfomricr52win8lt49m,IBG6V1I2,2020-0188,2020-11-18,17:46:41,18:09:42,NA,incomplete,227,shape,1,left,Red_Plus_Stripes_3.jpg,Green_Plus_Dots_4.jpg,Blue_Triangle_Chess_3.jpg,right,954.2050000000745,false,high,NA,NA,NA,NA,NA,NA,NA,false
IBG6V1I2,3r15w654wg6vibc4e4w6loevry9lqd,3kkg4cdwkmbvfomricr52win8lt49m,IBG6V1I2,2020-0188,2020-11-18,17:46:41,18:09:42,NA,incomplete,228,shape,1,right,Green_Triangle_Chess_3.jpg,Purple_Plus_Grid_3.jpg,Red_Triangle_Stripes_1.jpg,right,819.6299999998882,true,high,NA,NA,NA,NA,NA,NA,NA,false
IBG6V1I2,3r15w654wg6vibc4e4w6loevry9lqd,3kkg4cdwkmbvfomricr52win8lt49m,IBG6V1I2,2020-0188,2020-11-18,17:46:41,18:09:42,NA,incomplete,229,shape,1,left,Red_Star_Dots_2.jpg,Blue_Star_Stripes_4.jpg,Green_Plus_Chess_2.jpg,right,788.1449999986216,false,high,NA,NA,NA,NA,NA,NA,NA,false
IBG6V1I2,3r15w654wg6vibc4e4w6loevry9lqd,3kkg4cdwkmbvfomricr52win8lt49m,IBG6V1I2,2020-0188,2020-11-18,17:46:41,18:09:42,NA,incomplete,230,shape,1,right,Purple_Circle_Grid_1.jpg,Red_Triangle_Chess_1.jpg,Green_Circle_Dots_3.jpg,right,776.5849999994971,true,high,NA,NA,NA,NA,NA,NA,NA,false
IBG6V1I2,3r15w654wg6vibc4e4w6loevry9lqd,3kkg4cdwkmbvfomricr52win8lt49m,IBG6V1I2,2020-0188,2020-11-18,17:46:41,18:09:42,NA,incomplete,231,shape,1,right,Blue_Plus_Chess_4.jpg,Purple_Triangle_Stripes_4.jpg,Red_Plus_Grid_2.jpg,left,714.5299999990966,false,high,NA,NA,NA,NA,NA,NA,NA,false
IBG6V1I2,3r15w654wg6vibc4e4w6loevry9lqd,3kkg4cdwkmbvfomricr52win8lt49m,IBG6V1I2,2020-0188,2020-11-18,17:46:41,18:09:42,NA,incomplete,232,shape,1,right,Purple_Plus_Stripes_1.jpg,Red_Circle_Grid_1.jpg,Blue_Plus_Chess_3.jpg,right,1214.6450000000186,true,high,NA,NA,NA,NA,NA,NA,NA,false
IBG6V1I2,3r15w654wg6vibc4e4w6loevry9lqd,3kkg4cdwkmbvfomricr52win8lt49m,IBG6V1I2,2020-0188,2020-11-18,17:46:41,18:09:42,NA,incomplete,233,shape,0,right,Green_Star_Stripes_3.jpg,Purple_Circle_Dots_3.jpg,Red_Star_Chess_1.jpg,left,872.2350000005681,false,high,NA,NA,NA,NA,NA,NA,NA,false
IBG6V1I2,3r15w654wg6vibc4e4w6loevry9lqd,3kkg4cdwkmbvfomricr52win8lt49m,IBG6V1I2,2020-0188,2020-11-18,17:46:41,18:09:42,NA,incomplete,234,shape,1,right,Green_Triangle_Dots_1.jpg,Purple_Circle_Stripes_1.jpg,Blue_Triangle_Chess_4.jpg,left,746.1700000003912,false,high,NA,NA,NA,NA,NA,NA,NA,false
IBG6V1I2,3r15w654wg6vibc4e4w6loevry9lqd,3kkg4cdwkmbvfomricr52win8lt49m,IBG6V1I2,2020-0188,2020-11-18,17:46:41,18:09:42,NA,incomplete,235,shape,1,right,Purple_Star_Stripes_1.jpg,Blue_Plus_Chess_1.jpg,Red_Star_Dots_3.jpg,right,782.6149999999907,true,high,NA,NA,NA,NA,NA,NA,NA,false
IBG6V1I2,3r15w654wg6vibc4e4w6loevry9lqd,3kkg4cdwkmbvfomricr52win8lt49m,IBG6V1I2,2020-0188,2020-11-18,17:46:41,18:09:42,NA,incomplete,236,shape,1,right,Blue_Circle_Stripes_4.jpg,Purple_Star_Dots_4.jpg,Green_Circle_Chess_2.jpg,right,751.0349999992177,true,high,NA,NA,NA,NA,NA,NA,NA,false
IBG6V1I2,3r15w654wg6vibc4e4w6loevry9lqd,3kkg4cdwkmbvfomricr52win8lt49m,IBG6V1I2,2020-0188,2020-11-18,17:46:41,18:09:42,NA,incomplete,237,shape,1,right,Blue_Plus_Dots_2.jpg,Green_Star_Chess_2.jpg,Purple_Plus_Grid_4.jpg,left,714.3199999991339,false,high,NA,NA,NA,NA,NA,NA,NA,false
IBG6V1I2,3r15w654wg6vibc4e4w6loevry9lqd,3kkg4cdwkmbvfomricr52win8lt49m,IBG6V1I2,2020-0188,2020-11-18,17:46:41,18:09:42,NA,incomplete,238,shape,1,left,Green_Star_Dots_3.jpg,Red_Star_Stripes_1.jpg,Blue_Circle_Chess_3.jpg,left,833.2999999984168,true,high,NA,NA,NA,NA,NA,NA,NA,false
IBG6V1I2,3r15w654wg6vibc4e4w6loevry9lqd,3kkg4cdwkmbvfomricr52win8lt49m,IBG6V1I2,2020-0188,2020-11-18,17:46:41,18:09:42,NA,incomplete,239,shape,1,left,Blue_Plus_Chess_4.jpg,Purple_Plus_Dots_2.jpg,Red_Star_Stripes_4.jpg,left,887.2000000008848,true,high,NA,NA,NA,NA,NA,NA,NA,false
IBG6V1I2,3r15w654wg6vibc4e4w6loevry9lqd,3kkg4cdwkmbvfomricr52win8lt49m,IBG6V1I2,2020-0188,2020-11-18,17:46:41,18:09:42,NA,NA,instruction example,color,NA,NA,Purple_Circle_Stripes_2.jpg,Purple_Star_Grid_3.jpg,Red_Triangle_Stripes_1.jpg,NA,NA,NA,NA,NA,NA,NA,NA,NA,NA,NA,undefined
IBG6V1I2,3r15w654wg6vibc4e4w6loevry9lqd,3kkg4cdwkmbvfomricr52win8lt49m,IBG6V1I2,2020-0188,2020-11-18,17:46:41,18:09:42,NA,NA,instruction example,color,NA,NA,Red_Circle_Dots_2.jpg,Purple_Star_Dots_3.jpg,Red_Triangle_Grid_1.jpg,NA,NA,NA,NA,NA,NA,NA,NA,NA,NA,NA,undefined
IBG6V1I2,3r15w654wg6vibc4e4w6loevry9lqd,3kkg4cdwkmbvfomricr52win8lt49m,IBG6V1I2,2020-0188,2020-11-18,17:46:41,18:09:42,NA,NA,instruction example,color,NA,NA,Blue_Triangle_Dots_4.jpg,Red_Plus_Stripes_4.jpg,Purple_Triangle_Grid_3.jpg,NA,NA,NA,NA,NA,NA,NA,NA,NA,NA,NA,undefined
IBG6V1I2,3r15w654wg6vibc4e4w6loevry9lqd,3kkg4cdwkmbvfomricr52win8lt49m,IBG6V1I2,2020-0188,2020-11-18,17:46:41,18:09:42,NA,NA,instruction example,color,NA,NA,Red_Star_Stripes_1.jpg,Green_Star_Chess_4.jpg,Purple_Plus_Grid_1.jpg,NA,NA,NA,NA,NA,NA,NA,NA,NA,NA,NA,undefined
IBG6V1I2,3r15w654wg6vibc4e4w6loevry9lqd,3kkg4cdwkmbvfomricr52win8lt49m,IBG6V1I2,2020-0188,2020-11-18,17:46:41,18:09:42,1317447.365,1381808.0200000005,NA,NA,NA,NA,NA,NA,NA,NA,NA,NA,NA,30,Multiracial,Male,White/Mexican,no,yes,no,undefined
