workerId,hitId,assignmentId,subject,studyid,exp_date,exp_start,exp_end,time_start,time_end,trial,type,reward_validity,answer,image_top,image_left,image_right,response,response_time,response_acc,volatility,age,race,gender,ethnicity,color,vision,neuro,practice
5qwCi8De,338glsui56olvzhlkxidlboc564sfp,3kopy89hmcfz34gw4adzhl4jst6j3e,5qwCi8De,2020-0188,2020-05-21,11:00:27,11:16:25,NA,incomplete,0,filling,1,left,Red_Plus_Stripes_1.jpg,Green_Circle_Stripes_2.jpg,Purple_Plus_Chess_4.jpg,left,1738.054999965243,true,NA,NA,NA,NA,NA,NA,NA,NA,true
5qwCi8De,338glsui56olvzhlkxidlboc564sfp,3kopy89hmcfz34gw4adzhl4jst6j3e,5qwCi8De,2020-0188,2020-05-21,11:00:27,11:16:25,NA,incomplete,1,filling,0,right,Blue_Star_Stripes_2.jpg,Red_Star_Chess_4.jpg,Green_Plus_Stripes_3.jpg,right,1431.8249999778345,true,NA,NA,NA,NA,NA,NA,NA,NA,true
5qwCi8De,338glsui56olvzhlkxidlboc564sfp,3kopy89hmcfz34gw4adzhl4jst6j3e,5qwCi8De,2020-0188,2020-05-21,11:00:27,11:16:25,NA,incomplete,2,filling,1,left,Green_Circle_Dots_1.jpg,Blue_Triangle_Dots_2.jpg,Red_Circle_Stripes_3.jpg,left,1347.734999959357,true,NA,NA,NA,NA,NA,NA,NA,NA,true
5qwCi8De,338glsui56olvzhlkxidlboc564sfp,3kopy89hmcfz34gw4adzhl4jst6j3e,5qwCi8De,2020-0188,2020-05-21,11:00:27,11:16:25,NA,incomplete,3,filling,0,left,Green_Triangle_Stripes_3.jpg,Purple_Circle_Stripes_1.jpg,Blue_Triangle_Chess_4.jpg,left,1404.0200000163168,true,NA,NA,NA,NA,NA,NA,NA,NA,true
5qwCi8De,338glsui56olvzhlkxidlboc564sfp,3kopy89hmcfz34gw4adzhl4jst6j3e,5qwCi8De,2020-0188,2020-05-21,11:00:27,11:16:25,NA,incomplete,4,filling,1,right,Purple_Circle_Stripes_2.jpg,Blue_Circle_Dots_4.jpg,Red_Triangle_Stripes_1.jpg,right,1102.100000018254,true,NA,NA,NA,NA,NA,NA,NA,NA,true
5qwCi8De,338glsui56olvzhlkxidlboc564sfp,3kopy89hmcfz34gw4adzhl4jst6j3e,5qwCi8De,2020-0188,2020-05-21,11:00:27,11:16:25,NA,incomplete,5,filling,1,left,Green_Plus_Dots_4.jpg,Red_Triangle_Dots_3.jpg,Purple_Plus_Grid_2.jpg,left,1366.5699999546632,true,NA,NA,NA,NA,NA,NA,NA,NA,true
5qwCi8De,338glsui56olvzhlkxidlboc564sfp,3kopy89hmcfz34gw4adzhl4jst6j3e,5qwCi8De,2020-0188,2020-05-21,11:00:27,11:16:25,NA,incomplete,6,filling,1,left,Green_Plus_Grid_1.jpg,Red_Triangle_Grid_4.jpg,Purple_Plus_Dots_3.jpg,left,1148.0400000000373,true,NA,NA,NA,NA,NA,NA,NA,NA,true
5qwCi8De,338glsui56olvzhlkxidlboc564sfp,3kopy89hmcfz34gw4adzhl4jst6j3e,5qwCi8De,2020-0188,2020-05-21,11:00:27,11:16:25,NA,incomplete,7,filling,1,left,Green_Circle_Grid_1.jpg,Blue_Triangle_Grid_2.jpg,Purple_Circle_Dots_4.jpg,left,1155.4250000044703,true,NA,NA,NA,NA,NA,NA,NA,NA,true
5qwCi8De,338glsui56olvzhlkxidlboc564sfp,3kopy89hmcfz34gw4adzhl4jst6j3e,5qwCi8De,2020-0188,2020-05-21,11:00:27,11:16:25,NA,incomplete,8,filling,1,right,Green_Plus_Grid_4.jpg,Blue_Plus_Dots_3.jpg,Purple_Star_Grid_2.jpg,right,1144.9449999490753,true,NA,NA,NA,NA,NA,NA,NA,NA,true
5qwCi8De,338glsui56olvzhlkxidlboc564sfp,3kopy89hmcfz34gw4adzhl4jst6j3e,5qwCi8De,2020-0188,2020-05-21,11:00:27,11:16:25,NA,incomplete,9,filling,1,right,Red_Plus_Grid_3.jpg,Blue_Plus_Stripes_1.jpg,Green_Star_Grid_2.jpg,right,1367.5950000761077,true,NA,NA,NA,NA,NA,NA,NA,NA,true
5qwCi8De,338glsui56olvzhlkxidlboc564sfp,3kopy89hmcfz34gw4adzhl4jst6j3e,5qwCi8De,2020-0188,2020-05-21,11:00:27,11:16:25,NA,incomplete,10,filling,1,left,Red_Circle_Grid_4.jpg,Green_Star_Grid_1.jpg,Blue_Circle_Stripes_3.jpg,left,1292.435000068508,true,NA,NA,NA,NA,NA,NA,NA,NA,true
5qwCi8De,338glsui56olvzhlkxidlboc564sfp,3kopy89hmcfz34gw4adzhl4jst6j3e,5qwCi8De,2020-0188,2020-05-21,11:00:27,11:16:25,NA,incomplete,11,filling,1,left,Red_Circle_Chess_1.jpg,Green_Plus_Chess_2.jpg,Purple_Circle_Grid_4.jpg,left,1271.1650000419468,true,NA,NA,NA,NA,NA,NA,NA,NA,true
5qwCi8De,338glsui56olvzhlkxidlboc564sfp,3kopy89hmcfz34gw4adzhl4jst6j3e,5qwCi8De,2020-0188,2020-05-21,11:00:27,11:16:25,NA,incomplete,12,filling,1,left,Blue_Plus_Dots_2.jpg,Purple_Triangle_Dots_1.jpg,Green_Plus_Stripes_3.jpg,left,1333.7650001049042,true,NA,NA,NA,NA,NA,NA,NA,NA,true
5qwCi8De,338glsui56olvzhlkxidlboc564sfp,3kopy89hmcfz34gw4adzhl4jst6j3e,5qwCi8De,2020-0188,2020-05-21,11:00:27,11:16:25,NA,incomplete,13,filling,1,right,Purple_Circle_Stripes_1.jpg,Red_Circle_Chess_3.jpg,Blue_Plus_Stripes_2.jpg,right,1077.5000000139698,true,NA,NA,NA,NA,NA,NA,NA,NA,true
5qwCi8De,338glsui56olvzhlkxidlboc564sfp,3kopy89hmcfz34gw4adzhl4jst6j3e,5qwCi8De,2020-0188,2020-05-21,11:00:27,11:16:25,NA,incomplete,14,filling,1,right,Purple_Plus_Stripes_4.jpg,Blue_Plus_Dots_2.jpg,Green_Triangle_Stripes_3.jpg,right,1094.9750000145286,true,NA,NA,NA,NA,NA,NA,NA,NA,true
5qwCi8De,338glsui56olvzhlkxidlboc564sfp,3kopy89hmcfz34gw4adzhl4jst6j3e,5qwCi8De,2020-0188,2020-05-21,11:00:27,11:16:25,NA,incomplete,15,filling,1,left,Purple_Plus_Grid_1.jpg,Blue_Star_Grid_3.jpg,Green_Plus_Stripes_2.jpg,left,992.9700000211596,true,NA,NA,NA,NA,NA,NA,NA,NA,true
5qwCi8De,338glsui56olvzhlkxidlboc564sfp,3kopy89hmcfz34gw4adzhl4jst6j3e,5qwCi8De,2020-0188,2020-05-21,11:00:27,11:16:25,NA,incomplete,16,filling,1,right,Blue_Triangle_Grid_4.jpg,Purple_Triangle_Stripes_1.jpg,Red_Star_Grid_2.jpg,right,1212.3150000115857,true,NA,NA,NA,NA,NA,NA,NA,NA,true
5qwCi8De,338glsui56olvzhlkxidlboc564sfp,3kopy89hmcfz34gw4adzhl4jst6j3e,5qwCi8De,2020-0188,2020-05-21,11:00:27,11:16:25,NA,incomplete,17,filling,1,right,Purple_Circle_Chess_3.jpg,Blue_Circle_Grid_2.jpg,Red_Triangle_Chess_4.jpg,right,1231.7449999973178,true,NA,NA,NA,NA,NA,NA,NA,NA,true
5qwCi8De,338glsui56olvzhlkxidlboc564sfp,3kopy89hmcfz34gw4adzhl4jst6j3e,5qwCi8De,2020-0188,2020-05-21,11:00:27,11:16:25,NA,incomplete,18,filling,1,right,Red_Star_Chess_1.jpg,Purple_Star_Dots_3.jpg,Blue_Circle_Chess_2.jpg,right,1275.5250000627711,true,NA,NA,NA,NA,NA,NA,NA,NA,true
5qwCi8De,338glsui56olvzhlkxidlboc564sfp,3kopy89hmcfz34gw4adzhl4jst6j3e,5qwCi8De,2020-0188,2020-05-21,11:00:27,11:16:25,NA,incomplete,19,filling,1,left,Blue_Triangle_Chess_2.jpg,Red_Plus_Chess_3.jpg,Green_Triangle_Dots_4.jpg,left,1326.2649999232963,true,NA,NA,NA,NA,NA,NA,NA,NA,true
5qwCi8De,338glsui56olvzhlkxidlboc564sfp,3kopy89hmcfz34gw4adzhl4jst6j3e,5qwCi8De,2020-0188,2020-05-21,11:00:27,11:16:25,NA,incomplete,20,shape,0,right,Red_Triangle_Dots_4.jpg,Blue_Circle_Dots_3.jpg,Purple_Triangle_Chess_1.jpg,right,1140.445000026375,true,NA,NA,NA,NA,NA,NA,NA,NA,true
5qwCi8De,338glsui56olvzhlkxidlboc564sfp,3kopy89hmcfz34gw4adzhl4jst6j3e,5qwCi8De,2020-0188,2020-05-21,11:00:27,11:16:25,NA,incomplete,21,shape,1,right,Blue_Star_Chess_3.jpg,Purple_Triangle_Chess_1.jpg,Green_Star_Grid_4.jpg,right,954.8599999397993,true,NA,NA,NA,NA,NA,NA,NA,NA,true
5qwCi8De,338glsui56olvzhlkxidlboc564sfp,3kopy89hmcfz34gw4adzhl4jst6j3e,5qwCi8De,2020-0188,2020-05-21,11:00:27,11:16:25,NA,incomplete,22,shape,1,left,Green_Plus_Stripes_2.jpg,Purple_Plus_Dots_1.jpg,Red_Triangle_Stripes_3.jpg,left,928.74500004109,true,NA,NA,NA,NA,NA,NA,NA,NA,true
5qwCi8De,338glsui56olvzhlkxidlboc564sfp,3kopy89hmcfz34gw4adzhl4jst6j3e,5qwCi8De,2020-0188,2020-05-21,11:00:27,11:16:25,NA,incomplete,23,shape,0,left,Blue_Plus_Stripes_2.jpg,Purple_Plus_Grid_4.jpg,Green_Triangle_Stripes_3.jpg,left,896.2850000243634,true,NA,NA,NA,NA,NA,NA,NA,NA,true
5qwCi8De,338glsui56olvzhlkxidlboc564sfp,3kopy89hmcfz34gw4adzhl4jst6j3e,5qwCi8De,2020-0188,2020-05-21,11:00:27,11:16:25,NA,incomplete,24,shape,1,left,Purple_Plus_Dots_2.jpg,Green_Plus_Stripes_4.jpg,Red_Triangle_Dots_3.jpg,left,954.2799999471754,true,NA,NA,NA,NA,NA,NA,NA,NA,true
5qwCi8De,338glsui56olvzhlkxidlboc564sfp,3kopy89hmcfz34gw4adzhl4jst6j3e,5qwCi8De,2020-0188,2020-05-21,11:00:27,11:16:25,NA,incomplete,25,shape,1,right,Blue_Triangle_Stripes_2.jpg,Red_Circle_Stripes_4.jpg,Purple_Triangle_Chess_3.jpg,right,806.8549999734387,true,NA,NA,NA,NA,NA,NA,NA,NA,true
5qwCi8De,338glsui56olvzhlkxidlboc564sfp,3kopy89hmcfz34gw4adzhl4jst6j3e,5qwCi8De,2020-0188,2020-05-21,11:00:27,11:16:25,NA,incomplete,26,shape,1,left,Green_Star_Stripes_1.jpg,Blue_Star_Chess_2.jpg,Purple_Triangle_Stripes_4.jpg,left,922.4749999120831,true,NA,NA,NA,NA,NA,NA,NA,NA,true
5qwCi8De,338glsui56olvzhlkxidlboc564sfp,3kopy89hmcfz34gw4adzhl4jst6j3e,5qwCi8De,2020-0188,2020-05-21,11:00:27,11:16:25,NA,incomplete,27,shape,1,left,Red_Triangle_Grid_2.jpg,Purple_Triangle_Chess_3.jpg,Blue_Star_Grid_1.jpg,left,761.6400000406429,true,NA,NA,NA,NA,NA,NA,NA,NA,true
5qwCi8De,338glsui56olvzhlkxidlboc564sfp,3kopy89hmcfz34gw4adzhl4jst6j3e,5qwCi8De,2020-0188,2020-05-21,11:00:27,11:16:25,NA,incomplete,28,shape,0,right,Green_Circle_Chess_1.jpg,Blue_Triangle_Chess_4.jpg,Red_Circle_Dots_3.jpg,right,720.255000051111,true,NA,NA,NA,NA,NA,NA,NA,NA,true
5qwCi8De,338glsui56olvzhlkxidlboc564sfp,3kopy89hmcfz34gw4adzhl4jst6j3e,5qwCi8De,2020-0188,2020-05-21,11:00:27,11:16:25,NA,incomplete,29,shape,1,left,Red_Plus_Grid_3.jpg,Blue_Plus_Stripes_4.jpg,Green_Star_Grid_1.jpg,left,791.2100000539795,true,NA,NA,NA,NA,NA,NA,NA,NA,true
5qwCi8De,338glsui56olvzhlkxidlboc564sfp,3kopy89hmcfz34gw4adzhl4jst6j3e,5qwCi8De,2020-0188,2020-05-21,11:00:27,11:16:25,NA,incomplete,30,shape,0,right,Red_Circle_Stripes_2.jpg,Purple_Plus_Stripes_3.jpg,Green_Circle_Grid_1.jpg,right,596.0150000173599,true,NA,NA,NA,NA,NA,NA,NA,NA,true
5qwCi8De,338glsui56olvzhlkxidlboc564sfp,3kopy89hmcfz34gw4adzhl4jst6j3e,5qwCi8De,2020-0188,2020-05-21,11:00:27,11:16:25,NA,incomplete,31,shape,1,left,Red_Plus_Chess_1.jpg,Purple_Plus_Stripes_4.jpg,Blue_Triangle_Chess_3.jpg,left,688.785000005737,true,NA,NA,NA,NA,NA,NA,NA,NA,true
5qwCi8De,338glsui56olvzhlkxidlboc564sfp,3kopy89hmcfz34gw4adzhl4jst6j3e,5qwCi8De,2020-0188,2020-05-21,11:00:27,11:16:25,NA,incomplete,32,shape,0,left,Blue_Star_Stripes_3.jpg,Purple_Star_Grid_1.jpg,Green_Triangle_Stripes_2.jpg,left,697.5500000407919,true,NA,NA,NA,NA,NA,NA,NA,NA,true
5qwCi8De,338glsui56olvzhlkxidlboc564sfp,3kopy89hmcfz34gw4adzhl4jst6j3e,5qwCi8De,2020-0188,2020-05-21,11:00:27,11:16:25,NA,incomplete,33,shape,1,right,Purple_Plus_Stripes_1.jpg,Red_Triangle_Stripes_2.jpg,Blue_Plus_Chess_3.jpg,right,618.250000057742,true,NA,NA,NA,NA,NA,NA,NA,NA,true
5qwCi8De,338glsui56olvzhlkxidlboc564sfp,3kopy89hmcfz34gw4adzhl4jst6j3e,5qwCi8De,2020-0188,2020-05-21,11:00:27,11:16:25,NA,incomplete,34,shape,1,left,Purple_Circle_Dots_2.jpg,Green_Circle_Chess_3.jpg,Blue_Triangle_Dots_4.jpg,left,639.1150000272319,true,NA,NA,NA,NA,NA,NA,NA,NA,true
5qwCi8De,338glsui56olvzhlkxidlboc564sfp,3kopy89hmcfz34gw4adzhl4jst6j3e,5qwCi8De,2020-0188,2020-05-21,11:00:27,11:16:25,NA,incomplete,35,shape,1,right,Blue_Star_Stripes_4.jpg,Red_Circle_Stripes_3.jpg,Purple_Star_Dots_1.jpg,right,704.2050000745803,true,NA,NA,NA,NA,NA,NA,NA,NA,true
5qwCi8De,338glsui56olvzhlkxidlboc564sfp,3kopy89hmcfz34gw4adzhl4jst6j3e,5qwCi8De,2020-0188,2020-05-21,11:00:27,11:16:25,NA,incomplete,36,shape,1,left,Purple_Plus_Stripes_2.jpg,Green_Plus_Grid_1.jpg,Red_Triangle_Stripes_4.jpg,left,760.0149998907,true,NA,NA,NA,NA,NA,NA,NA,NA,true
5qwCi8De,338glsui56olvzhlkxidlboc564sfp,3kopy89hmcfz34gw4adzhl4jst6j3e,5qwCi8De,2020-0188,2020-05-21,11:00:27,11:16:25,NA,incomplete,37,shape,1,right,Blue_Circle_Grid_2.jpg,Purple_Plus_Grid_3.jpg,Green_Circle_Stripes_1.jpg,right,622.1600000280887,true,NA,NA,NA,NA,NA,NA,NA,NA,true
5qwCi8De,338glsui56olvzhlkxidlboc564sfp,3kopy89hmcfz34gw4adzhl4jst6j3e,5qwCi8De,2020-0188,2020-05-21,11:00:27,11:16:25,NA,incomplete,38,shape,1,left,Blue_Plus_Dots_2.jpg,Red_Plus_Grid_4.jpg,Purple_Triangle_Dots_1.jpg,left,793.5249999864027,true,NA,NA,NA,NA,NA,NA,NA,NA,true
5qwCi8De,338glsui56olvzhlkxidlboc564sfp,3kopy89hmcfz34gw4adzhl4jst6j3e,5qwCi8De,2020-0188,2020-05-21,11:00:27,11:16:25,NA,incomplete,39,shape,0,left,Red_Star_Chess_3.jpg,Green_Star_Dots_4.jpg,Blue_Circle_Chess_2.jpg,left,823.7199999857694,true,NA,NA,NA,NA,NA,NA,NA,NA,true
5qwCi8De,338glsui56olvzhlkxidlboc564sfp,3kopy89hmcfz34gw4adzhl4jst6j3e,5qwCi8De,2020-0188,2020-05-21,11:00:27,11:16:25,NA,incomplete,0,filling,0,right,Purple_Plus_Grid_4.jpg,Red_Plus_Stripes_1.jpg,Blue_Star_Grid_2.jpg,left,779.1350000770763,false,high,NA,NA,NA,NA,NA,NA,NA,false
5qwCi8De,338glsui56olvzhlkxidlboc564sfp,3kopy89hmcfz34gw4adzhl4jst6j3e,5qwCi8De,2020-0188,2020-05-21,11:00:27,11:16:25,NA,incomplete,1,filling,1,left,Red_Circle_Dots_3.jpg,Green_Triangle_Dots_1.jpg,Purple_Circle_Stripes_2.jpg,right,584.7450000001118,false,high,NA,NA,NA,NA,NA,NA,NA,false
5qwCi8De,338glsui56olvzhlkxidlboc564sfp,3kopy89hmcfz34gw4adzhl4jst6j3e,5qwCi8De,2020-0188,2020-05-21,11:00:27,11:16:25,NA,incomplete,2,filling,0,right,Green_Triangle_Stripes_1.jpg,Purple_Triangle_Chess_2.jpg,Red_Star_Stripes_3.jpg,left,661.4349998999387,false,high,NA,NA,NA,NA,NA,NA,NA,false
5qwCi8De,338glsui56olvzhlkxidlboc564sfp,3kopy89hmcfz34gw4adzhl4jst6j3e,5qwCi8De,2020-0188,2020-05-21,11:00:27,11:16:25,NA,incomplete,3,filling,1,left,Green_Star_Chess_3.jpg,Blue_Triangle_Chess_1.jpg,Purple_Star_Dots_2.jpg,right,615.6850000843406,false,high,NA,NA,NA,NA,NA,NA,NA,false
5qwCi8De,338glsui56olvzhlkxidlboc564sfp,3kopy89hmcfz34gw4adzhl4jst6j3e,5qwCi8De,2020-0188,2020-05-21,11:00:27,11:16:25,NA,incomplete,4,filling,1,left,Green_Plus_Grid_1.jpg,Blue_Triangle_Grid_2.jpg,Red_Plus_Dots_4.jpg,right,691.3400000194088,false,high,NA,NA,NA,NA,NA,NA,NA,false
5qwCi8De,338glsui56olvzhlkxidlboc564sfp,3kopy89hmcfz34gw4adzhl4jst6j3e,5qwCi8De,2020-0188,2020-05-21,11:00:27,11:16:25,NA,incomplete,5,filling,1,left,Purple_Star_Dots_1.jpg,Red_Plus_Dots_2.jpg,Green_Star_Chess_4.jpg,left,884.239999926649,true,high,NA,NA,NA,NA,NA,NA,NA,false
5qwCi8De,338glsui56olvzhlkxidlboc564sfp,3kopy89hmcfz34gw4adzhl4jst6j3e,5qwCi8De,2020-0188,2020-05-21,11:00:27,11:16:25,NA,incomplete,6,filling,1,left,Red_Circle_Chess_1.jpg,Purple_Star_Chess_3.jpg,Green_Circle_Grid_4.jpg,left,908.7050000671297,true,high,NA,NA,NA,NA,NA,NA,NA,false
5qwCi8De,338glsui56olvzhlkxidlboc564sfp,3kopy89hmcfz34gw4adzhl4jst6j3e,5qwCi8De,2020-0188,2020-05-21,11:00:27,11:16:25,NA,incomplete,7,filling,1,right,Purple_Star_Stripes_4.jpg,Red_Star_Dots_1.jpg,Green_Triangle_Stripes_2.jpg,right,1028.679999988526,true,high,NA,NA,NA,NA,NA,NA,NA,false
5qwCi8De,338glsui56olvzhlkxidlboc564sfp,3kopy89hmcfz34gw4adzhl4jst6j3e,5qwCi8De,2020-0188,2020-05-21,11:00:27,11:16:25,NA,incomplete,8,filling,1,right,Red_Star_Grid_4.jpg,Blue_Star_Chess_3.jpg,Green_Circle_Grid_2.jpg,right,864.1399999614805,true,high,NA,NA,NA,NA,NA,NA,NA,false
5qwCi8De,338glsui56olvzhlkxidlboc564sfp,3kopy89hmcfz34gw4adzhl4jst6j3e,5qwCi8De,2020-0188,2020-05-21,11:00:27,11:16:25,NA,incomplete,9,filling,1,left,Red_Circle_Chess_1.jpg,Purple_Star_Chess_4.jpg,Blue_Circle_Grid_2.jpg,left,731.6349999746308,true,high,NA,NA,NA,NA,NA,NA,NA,false
5qwCi8De,338glsui56olvzhlkxidlboc564sfp,3kopy89hmcfz34gw4adzhl4jst6j3e,5qwCi8De,2020-0188,2020-05-21,11:00:27,11:16:25,NA,incomplete,10,shape,1,left,Red_Star_Dots_1.jpg,Blue_Star_Stripes_2.jpg,Purple_Circle_Dots_3.jpg,right,705.4249999346212,false,high,NA,NA,NA,NA,NA,NA,NA,false
5qwCi8De,338glsui56olvzhlkxidlboc564sfp,3kopy89hmcfz34gw4adzhl4jst6j3e,5qwCi8De,2020-0188,2020-05-21,11:00:27,11:16:25,NA,incomplete,11,shape,1,right,Purple_Circle_Stripes_4.jpg,Blue_Plus_Stripes_2.jpg,Green_Circle_Grid_1.jpg,left,841.1949999863282,false,high,NA,NA,NA,NA,NA,NA,NA,false
5qwCi8De,338glsui56olvzhlkxidlboc564sfp,3kopy89hmcfz34gw4adzhl4jst6j3e,5qwCi8De,2020-0188,2020-05-21,11:00:27,11:16:25,NA,incomplete,12,shape,1,right,Blue_Star_Chess_2.jpg,Purple_Plus_Chess_1.jpg,Green_Star_Dots_4.jpg,left,956.0800000326708,false,high,NA,NA,NA,NA,NA,NA,NA,false
5qwCi8De,338glsui56olvzhlkxidlboc564sfp,3kopy89hmcfz34gw4adzhl4jst6j3e,5qwCi8De,2020-0188,2020-05-21,11:00:27,11:16:25,NA,incomplete,13,shape,1,left,Purple_Triangle_Grid_2.jpg,Red_Triangle_Dots_3.jpg,Green_Plus_Grid_4.jpg,left,682.245000032708,true,high,NA,NA,NA,NA,NA,NA,NA,false
5qwCi8De,338glsui56olvzhlkxidlboc564sfp,3kopy89hmcfz34gw4adzhl4jst6j3e,5qwCi8De,2020-0188,2020-05-21,11:00:27,11:16:25,NA,incomplete,14,shape,1,right,Green_Star_Dots_4.jpg,Red_Circle_Dots_1.jpg,Purple_Star_Stripes_2.jpg,right,580.8350000297651,true,high,NA,NA,NA,NA,NA,NA,NA,false
5qwCi8De,338glsui56olvzhlkxidlboc564sfp,3kopy89hmcfz34gw4adzhl4jst6j3e,5qwCi8De,2020-0188,2020-05-21,11:00:27,11:16:25,NA,incomplete,15,shape,0,right,Purple_Circle_Dots_4.jpg,Green_Plus_Dots_2.jpg,Red_Circle_Stripes_1.jpg,right,536.6199999116361,true,high,NA,NA,NA,NA,NA,NA,NA,false
5qwCi8De,338glsui56olvzhlkxidlboc564sfp,3kopy89hmcfz34gw4adzhl4jst6j3e,5qwCi8De,2020-0188,2020-05-21,11:00:27,11:16:25,NA,incomplete,16,shape,1,left,Green_Circle_Stripes_3.jpg,Purple_Circle_Dots_4.jpg,Blue_Star_Stripes_2.jpg,left,575.4849999211729,true,high,NA,NA,NA,NA,NA,NA,NA,false
5qwCi8De,338glsui56olvzhlkxidlboc564sfp,3kopy89hmcfz34gw4adzhl4jst6j3e,5qwCi8De,2020-0188,2020-05-21,11:00:27,11:16:25,NA,incomplete,17,shape,1,right,Green_Plus_Chess_4.jpg,Purple_Circle_Chess_3.jpg,Red_Plus_Dots_1.jpg,right,589.0549999894574,true,high,NA,NA,NA,NA,NA,NA,NA,false
5qwCi8De,338glsui56olvzhlkxidlboc564sfp,3kopy89hmcfz34gw4adzhl4jst6j3e,5qwCi8De,2020-0188,2020-05-21,11:00:27,11:16:25,NA,incomplete,18,shape,1,right,Purple_Star_Grid_3.jpg,Green_Plus_Grid_1.jpg,Blue_Star_Chess_2.jpg,right,536.9349999818951,true,high,NA,NA,NA,NA,NA,NA,NA,false
5qwCi8De,338glsui56olvzhlkxidlboc564sfp,3kopy89hmcfz34gw4adzhl4jst6j3e,5qwCi8De,2020-0188,2020-05-21,11:00:27,11:16:25,NA,incomplete,19,shape,1,right,Green_Plus_Chess_1.jpg,Red_Circle_Chess_2.jpg,Blue_Plus_Stripes_4.jpg,right,585.4749999707565,true,high,NA,NA,NA,NA,NA,NA,NA,false
5qwCi8De,338glsui56olvzhlkxidlboc564sfp,3kopy89hmcfz34gw4adzhl4jst6j3e,5qwCi8De,2020-0188,2020-05-21,11:00:27,11:16:25,NA,incomplete,20,filling,1,right,Green_Star_Dots_1.jpg,Blue_Star_Chess_2.jpg,Purple_Circle_Dots_3.jpg,left,588.8650000561029,false,high,NA,NA,NA,NA,NA,NA,NA,false
5qwCi8De,338glsui56olvzhlkxidlboc564sfp,3kopy89hmcfz34gw4adzhl4jst6j3e,5qwCi8De,2020-0188,2020-05-21,11:00:27,11:16:25,NA,incomplete,21,filling,1,right,Blue_Plus_Grid_1.jpg,Red_Plus_Chess_4.jpg,Green_Star_Grid_2.jpg,left,665.3749999823049,false,high,NA,NA,NA,NA,NA,NA,NA,false
5qwCi8De,338glsui56olvzhlkxidlboc564sfp,3kopy89hmcfz34gw4adzhl4jst6j3e,5qwCi8De,2020-0188,2020-05-21,11:00:27,11:16:25,NA,incomplete,22,filling,1,right,Red_Triangle_Grid_1.jpg,Purple_Triangle_Dots_4.jpg,Blue_Circle_Grid_2.jpg,left,563.5099998908117,false,high,NA,NA,NA,NA,NA,NA,NA,false
5qwCi8De,338glsui56olvzhlkxidlboc564sfp,3kopy89hmcfz34gw4adzhl4jst6j3e,5qwCi8De,2020-0188,2020-05-21,11:00:27,11:16:25,NA,incomplete,23,filling,1,left,Red_Circle_Grid_3.jpg,Green_Triangle_Grid_2.jpg,Purple_Circle_Stripes_4.jpg,left,841.4849999826401,true,high,NA,NA,NA,NA,NA,NA,NA,false
5qwCi8De,338glsui56olvzhlkxidlboc564sfp,3kopy89hmcfz34gw4adzhl4jst6j3e,5qwCi8De,2020-0188,2020-05-21,11:00:27,11:16:25,NA,incomplete,24,filling,1,right,Red_Circle_Stripes_4.jpg,Purple_Circle_Grid_1.jpg,Blue_Plus_Stripes_3.jpg,right,966.0450000083074,true,high,NA,NA,NA,NA,NA,NA,NA,false
5qwCi8De,338glsui56olvzhlkxidlboc564sfp,3kopy89hmcfz34gw4adzhl4jst6j3e,5qwCi8De,2020-0188,2020-05-21,11:00:27,11:16:25,NA,incomplete,25,filling,1,left,Red_Circle_Stripes_2.jpg,Green_Plus_Stripes_1.jpg,Purple_Circle_Dots_3.jpg,left,714.354999945499,true,high,NA,NA,NA,NA,NA,NA,NA,false
5qwCi8De,338glsui56olvzhlkxidlboc564sfp,3kopy89hmcfz34gw4adzhl4jst6j3e,5qwCi8De,2020-0188,2020-05-21,11:00:27,11:16:25,NA,incomplete,26,filling,1,left,Purple_Star_Chess_1.jpg,Blue_Triangle_Chess_3.jpg,Red_Star_Dots_2.jpg,left,882.0100000593811,true,high,NA,NA,NA,NA,NA,NA,NA,false
5qwCi8De,338glsui56olvzhlkxidlboc564sfp,3kopy89hmcfz34gw4adzhl4jst6j3e,5qwCi8De,2020-0188,2020-05-21,11:00:27,11:16:25,NA,incomplete,27,filling,0,left,Purple_Plus_Chess_1.jpg,Red_Circle_Chess_2.jpg,Blue_Plus_Grid_3.jpg,left,771.269999910146,true,high,NA,NA,NA,NA,NA,NA,NA,false
5qwCi8De,338glsui56olvzhlkxidlboc564sfp,3kopy89hmcfz34gw4adzhl4jst6j3e,5qwCi8De,2020-0188,2020-05-21,11:00:27,11:16:25,NA,incomplete,28,filling,0,left,Green_Triangle_Stripes_4.jpg,Purple_Circle_Stripes_1.jpg,Blue_Triangle_Grid_3.jpg,left,904.7099999152124,true,high,NA,NA,NA,NA,NA,NA,NA,false
5qwCi8De,338glsui56olvzhlkxidlboc564sfp,3kopy89hmcfz34gw4adzhl4jst6j3e,5qwCi8De,2020-0188,2020-05-21,11:00:27,11:16:25,NA,incomplete,29,filling,1,right,Green_Circle_Stripes_1.jpg,Purple_Circle_Dots_4.jpg,Red_Star_Stripes_2.jpg,left,594.1699999384582,false,high,NA,NA,NA,NA,NA,NA,NA,false
5qwCi8De,338glsui56olvzhlkxidlboc564sfp,3kopy89hmcfz34gw4adzhl4jst6j3e,5qwCi8De,2020-0188,2020-05-21,11:00:27,11:16:25,NA,incomplete,30,shape,1,left,Red_Circle_Dots_2.jpg,Blue_Circle_Grid_3.jpg,Purple_Plus_Dots_4.jpg,left,733.3300000755116,true,high,NA,NA,NA,NA,NA,NA,NA,false
5qwCi8De,338glsui56olvzhlkxidlboc564sfp,3kopy89hmcfz34gw4adzhl4jst6j3e,5qwCi8De,2020-0188,2020-05-21,11:00:27,11:16:25,NA,incomplete,31,shape,1,right,Purple_Plus_Grid_2.jpg,Blue_Circle_Grid_1.jpg,Green_Plus_Chess_4.jpg,right,548.8850000547245,true,high,NA,NA,NA,NA,NA,NA,NA,false
5qwCi8De,338glsui56olvzhlkxidlboc564sfp,3kopy89hmcfz34gw4adzhl4jst6j3e,5qwCi8De,2020-0188,2020-05-21,11:00:27,11:16:25,NA,incomplete,32,shape,1,left,Green_Circle_Grid_1.jpg,Red_Circle_Dots_3.jpg,Purple_Star_Grid_4.jpg,left,555.4850000189617,true,high,NA,NA,NA,NA,NA,NA,NA,false
5qwCi8De,338glsui56olvzhlkxidlboc564sfp,3kopy89hmcfz34gw4adzhl4jst6j3e,5qwCi8De,2020-0188,2020-05-21,11:00:27,11:16:25,NA,incomplete,33,shape,1,left,Red_Plus_Stripes_1.jpg,Green_Plus_Dots_4.jpg,Blue_Star_Stripes_3.jpg,left,601.3749999692664,true,high,NA,NA,NA,NA,NA,NA,NA,false
5qwCi8De,338glsui56olvzhlkxidlboc564sfp,3kopy89hmcfz34gw4adzhl4jst6j3e,5qwCi8De,2020-0188,2020-05-21,11:00:27,11:16:25,NA,incomplete,34,shape,1,left,Blue_Star_Dots_4.jpg,Red_Star_Grid_2.jpg,Purple_Circle_Dots_3.jpg,left,598.9650000119582,true,high,NA,NA,NA,NA,NA,NA,NA,false
5qwCi8De,338glsui56olvzhlkxidlboc564sfp,3kopy89hmcfz34gw4adzhl4jst6j3e,5qwCi8De,2020-0188,2020-05-21,11:00:27,11:16:25,NA,incomplete,35,shape,1,right,Green_Plus_Grid_2.jpg,Purple_Star_Grid_3.jpg,Blue_Plus_Chess_4.jpg,right,649.9949999852106,true,high,NA,NA,NA,NA,NA,NA,NA,false
5qwCi8De,338glsui56olvzhlkxidlboc564sfp,3kopy89hmcfz34gw4adzhl4jst6j3e,5qwCi8De,2020-0188,2020-05-21,11:00:27,11:16:25,NA,incomplete,36,shape,1,right,Blue_Triangle_Grid_2.jpg,Green_Plus_Grid_1.jpg,Red_Triangle_Chess_4.jpg,right,628.484999993816,true,high,NA,NA,NA,NA,NA,NA,NA,false
5qwCi8De,338glsui56olvzhlkxidlboc564sfp,3kopy89hmcfz34gw4adzhl4jst6j3e,5qwCi8De,2020-0188,2020-05-21,11:00:27,11:16:25,NA,incomplete,37,shape,1,left,Red_Star_Dots_2.jpg,Blue_Star_Grid_4.jpg,Purple_Triangle_Dots_3.jpg,left,623.9599999971688,true,high,NA,NA,NA,NA,NA,NA,NA,false
5qwCi8De,338glsui56olvzhlkxidlboc564sfp,3kopy89hmcfz34gw4adzhl4jst6j3e,5qwCi8De,2020-0188,2020-05-21,11:00:27,11:16:25,NA,incomplete,38,shape,1,right,Green_Circle_Stripes_1.jpg,Purple_Triangle_Stripes_3.jpg,Blue_Circle_Dots_4.jpg,right,555.6349999969825,true,high,NA,NA,NA,NA,NA,NA,NA,false
5qwCi8De,338glsui56olvzhlkxidlboc564sfp,3kopy89hmcfz34gw4adzhl4jst6j3e,5qwCi8De,2020-0188,2020-05-21,11:00:27,11:16:25,NA,incomplete,39,shape,0,right,Red_Triangle_Dots_1.jpg,Green_Plus_Dots_2.jpg,Purple_Triangle_Chess_3.jpg,right,562.889999942854,true,high,NA,NA,NA,NA,NA,NA,NA,false
5qwCi8De,338glsui56olvzhlkxidlboc564sfp,3kopy89hmcfz34gw4adzhl4jst6j3e,5qwCi8De,2020-0188,2020-05-21,11:00:27,11:16:25,NA,incomplete,40,filling,1,left,Green_Circle_Chess_3.jpg,Purple_Triangle_Chess_4.jpg,Red_Circle_Dots_2.jpg,right,535.0399999879301,false,high,NA,NA,NA,NA,NA,NA,NA,false
5qwCi8De,338glsui56olvzhlkxidlboc564sfp,3kopy89hmcfz34gw4adzhl4jst6j3e,5qwCi8De,2020-0188,2020-05-21,11:00:27,11:16:25,NA,incomplete,41,filling,1,right,Red_Circle_Chess_1.jpg,Blue_Circle_Grid_3.jpg,Purple_Star_Chess_4.jpg,right,838.4849999565631,true,high,NA,NA,NA,NA,NA,NA,NA,false
5qwCi8De,338glsui56olvzhlkxidlboc564sfp,3kopy89hmcfz34gw4adzhl4jst6j3e,5qwCi8De,2020-0188,2020-05-21,11:00:27,11:16:25,NA,incomplete,42,filling,1,right,Green_Triangle_Dots_4.jpg,Blue_Triangle_Chess_2.jpg,Red_Plus_Dots_3.jpg,right,824.6199999703094,true,high,NA,NA,NA,NA,NA,NA,NA,false
5qwCi8De,338glsui56olvzhlkxidlboc564sfp,3kopy89hmcfz34gw4adzhl4jst6j3e,5qwCi8De,2020-0188,2020-05-21,11:00:27,11:16:25,NA,incomplete,43,filling,0,right,Purple_Circle_Stripes_2.jpg,Blue_Circle_Grid_1.jpg,Green_Plus_Stripes_3.jpg,left,771.8399999430403,false,high,NA,NA,NA,NA,NA,NA,NA,false
5qwCi8De,338glsui56olvzhlkxidlboc564sfp,3kopy89hmcfz34gw4adzhl4jst6j3e,5qwCi8De,2020-0188,2020-05-21,11:00:27,11:16:25,NA,incomplete,44,filling,1,right,Red_Star_Dots_2.jpg,Blue_Star_Grid_3.jpg,Purple_Plus_Dots_1.jpg,right,932.5249999528751,true,high,NA,NA,NA,NA,NA,NA,NA,false
5qwCi8De,338glsui56olvzhlkxidlboc564sfp,3kopy89hmcfz34gw4adzhl4jst6j3e,5qwCi8De,2020-0188,2020-05-21,11:00:27,11:16:25,NA,incomplete,45,filling,1,left,Blue_Plus_Stripes_1.jpg,Red_Triangle_Stripes_4.jpg,Green_Plus_Grid_3.jpg,left,792.5550000509247,true,high,NA,NA,NA,NA,NA,NA,NA,false
5qwCi8De,338glsui56olvzhlkxidlboc564sfp,3kopy89hmcfz34gw4adzhl4jst6j3e,5qwCi8De,2020-0188,2020-05-21,11:00:27,11:16:25,NA,incomplete,46,filling,1,right,Red_Star_Grid_1.jpg,Green_Star_Dots_3.jpg,Blue_Triangle_Grid_4.jpg,right,780.6199999758974,true,high,NA,NA,NA,NA,NA,NA,NA,false
5qwCi8De,338glsui56olvzhlkxidlboc564sfp,3kopy89hmcfz34gw4adzhl4jst6j3e,5qwCi8De,2020-0188,2020-05-21,11:00:27,11:16:25,NA,incomplete,47,filling,1,right,Red_Star_Dots_1.jpg,Blue_Star_Grid_2.jpg,Purple_Circle_Dots_3.jpg,right,722.7299999212846,true,high,NA,NA,NA,NA,NA,NA,NA,false
5qwCi8De,338glsui56olvzhlkxidlboc564sfp,3kopy89hmcfz34gw4adzhl4jst6j3e,5qwCi8De,2020-0188,2020-05-21,11:00:27,11:16:25,NA,incomplete,48,filling,0,right,Red_Circle_Chess_4.jpg,Blue_Circle_Stripes_3.jpg,Purple_Star_Chess_2.jpg,right,778.2450000522658,true,high,NA,NA,NA,NA,NA,NA,NA,false
5qwCi8De,338glsui56olvzhlkxidlboc564sfp,3kopy89hmcfz34gw4adzhl4jst6j3e,5qwCi8De,2020-0188,2020-05-21,11:00:27,11:16:25,NA,incomplete,49,filling,0,right,Purple_Plus_Grid_4.jpg,Red_Plus_Chess_2.jpg,Green_Triangle_Grid_3.jpg,right,912.5950000016019,true,high,NA,NA,NA,NA,NA,NA,NA,false
5qwCi8De,338glsui56olvzhlkxidlboc564sfp,3kopy89hmcfz34gw4adzhl4jst6j3e,5qwCi8De,2020-0188,2020-05-21,11:00:27,11:16:25,NA,incomplete,50,shape,0,right,Red_Circle_Dots_3.jpg,Blue_Star_Dots_1.jpg,Green_Circle_Chess_2.jpg,right,679.0550000732765,true,high,NA,NA,NA,NA,NA,NA,NA,false
5qwCi8De,338glsui56olvzhlkxidlboc564sfp,3kopy89hmcfz34gw4adzhl4jst6j3e,5qwCi8De,2020-0188,2020-05-21,11:00:27,11:16:25,NA,incomplete,51,shape,1,right,Green_Circle_Chess_4.jpg,Blue_Plus_Chess_1.jpg,Red_Circle_Dots_3.jpg,right,593.3199999853969,true,high,NA,NA,NA,NA,NA,NA,NA,false
5qwCi8De,338glsui56olvzhlkxidlboc564sfp,3kopy89hmcfz34gw4adzhl4jst6j3e,5qwCi8De,2020-0188,2020-05-21,11:00:27,11:16:25,NA,incomplete,52,shape,1,left,Blue_Circle_Stripes_4.jpg,Green_Circle_Chess_3.jpg,Purple_Plus_Stripes_2.jpg,left,645.3499998897314,true,high,NA,NA,NA,NA,NA,NA,NA,false
5qwCi8De,338glsui56olvzhlkxidlboc564sfp,3kopy89hmcfz34gw4adzhl4jst6j3e,5qwCi8De,2020-0188,2020-05-21,11:00:27,11:16:25,NA,incomplete,53,shape,0,right,Green_Star_Dots_4.jpg,Purple_Triangle_Dots_1.jpg,Red_Star_Grid_3.jpg,right,582.9499999526888,true,high,NA,NA,NA,NA,NA,NA,NA,false
5qwCi8De,338glsui56olvzhlkxidlboc564sfp,3kopy89hmcfz34gw4adzhl4jst6j3e,5qwCi8De,2020-0188,2020-05-21,11:00:27,11:16:25,NA,incomplete,54,shape,1,left,Green_Star_Grid_4.jpg,Blue_Star_Stripes_2.jpg,Red_Circle_Grid_3.jpg,left,679.355000029318,true,high,NA,NA,NA,NA,NA,NA,NA,false
5qwCi8De,338glsui56olvzhlkxidlboc564sfp,3kopy89hmcfz34gw4adzhl4jst6j3e,5qwCi8De,2020-0188,2020-05-21,11:00:27,11:16:25,NA,incomplete,55,shape,1,left,Blue_Triangle_Dots_1.jpg,Red_Triangle_Grid_3.jpg,Purple_Plus_Dots_2.jpg,left,630.5400000419468,true,high,NA,NA,NA,NA,NA,NA,NA,false
5qwCi8De,338glsui56olvzhlkxidlboc564sfp,3kopy89hmcfz34gw4adzhl4jst6j3e,5qwCi8De,2020-0188,2020-05-21,11:00:27,11:16:25,NA,incomplete,56,shape,1,left,Blue_Triangle_Dots_1.jpg,Red_Triangle_Chess_4.jpg,Purple_Circle_Dots_2.jpg,left,642.0650000218302,true,high,NA,NA,NA,NA,NA,NA,NA,false
5qwCi8De,338glsui56olvzhlkxidlboc564sfp,3kopy89hmcfz34gw4adzhl4jst6j3e,5qwCi8De,2020-0188,2020-05-21,11:00:27,11:16:25,NA,incomplete,57,shape,1,left,Red_Triangle_Chess_2.jpg,Green_Triangle_Grid_4.jpg,Blue_Plus_Chess_3.jpg,left,604.6100000385195,true,high,NA,NA,NA,NA,NA,NA,NA,false
5qwCi8De,338glsui56olvzhlkxidlboc564sfp,3kopy89hmcfz34gw4adzhl4jst6j3e,5qwCi8De,2020-0188,2020-05-21,11:00:27,11:16:25,NA,incomplete,58,shape,1,left,Red_Triangle_Chess_2.jpg,Blue_Triangle_Stripes_4.jpg,Purple_Plus_Chess_3.jpg,left,567.5899999914691,true,high,NA,NA,NA,NA,NA,NA,NA,false
5qwCi8De,338glsui56olvzhlkxidlboc564sfp,3kopy89hmcfz34gw4adzhl4jst6j3e,5qwCi8De,2020-0188,2020-05-21,11:00:27,11:16:25,NA,incomplete,59,shape,1,right,Blue_Plus_Stripes_1.jpg,Purple_Circle_Stripes_4.jpg,Red_Plus_Grid_3.jpg,right,598.2800000347197,true,high,NA,NA,NA,NA,NA,NA,NA,false
5qwCi8De,338glsui56olvzhlkxidlboc564sfp,3kopy89hmcfz34gw4adzhl4jst6j3e,5qwCi8De,2020-0188,2020-05-21,11:00:27,11:16:25,NA,incomplete,60,filling,1,right,Blue_Plus_Dots_3.jpg,Green_Plus_Chess_2.jpg,Red_Circle_Dots_1.jpg,left,554.5050000073388,false,high,NA,NA,NA,NA,NA,NA,NA,false
5qwCi8De,338glsui56olvzhlkxidlboc564sfp,3kopy89hmcfz34gw4adzhl4jst6j3e,5qwCi8De,2020-0188,2020-05-21,11:00:27,11:16:25,NA,incomplete,61,filling,1,right,Blue_Circle_Dots_4.jpg,Purple_Circle_Chess_1.jpg,Green_Star_Dots_3.jpg,left,599.3800000287592,false,high,NA,NA,NA,NA,NA,NA,NA,false
5qwCi8De,338glsui56olvzhlkxidlboc564sfp,3kopy89hmcfz34gw4adzhl4jst6j3e,5qwCi8De,2020-0188,2020-05-21,11:00:27,11:16:25,NA,incomplete,62,filling,0,left,Green_Circle_Grid_1.jpg,Blue_Star_Grid_3.jpg,Red_Circle_Chess_4.jpg,left,822.0900000305846,true,high,NA,NA,NA,NA,NA,NA,NA,false
5qwCi8De,338glsui56olvzhlkxidlboc564sfp,3kopy89hmcfz34gw4adzhl4jst6j3e,5qwCi8De,2020-0188,2020-05-21,11:00:27,11:16:25,NA,incomplete,63,filling,1,right,Green_Plus_Grid_2.jpg,Purple_Plus_Stripes_3.jpg,Blue_Circle_Grid_1.jpg,right,984.6350000007078,true,high,NA,NA,NA,NA,NA,NA,NA,false
5qwCi8De,338glsui56olvzhlkxidlboc564sfp,3kopy89hmcfz34gw4adzhl4jst6j3e,5qwCi8De,2020-0188,2020-05-21,11:00:27,11:16:25,NA,incomplete,64,filling,1,right,Blue_Plus_Dots_2.jpg,Purple_Plus_Stripes_4.jpg,Red_Triangle_Dots_1.jpg,right,814.9249999551103,true,high,NA,NA,NA,NA,NA,NA,NA,false
5qwCi8De,338glsui56olvzhlkxidlboc564sfp,3kopy89hmcfz34gw4adzhl4jst6j3e,5qwCi8De,2020-0188,2020-05-21,11:00:27,11:16:25,NA,incomplete,65,filling,1,left,Purple_Star_Chess_4.jpg,Blue_Triangle_Chess_2.jpg,Green_Star_Stripes_1.jpg,left,1016.4349999977276,true,high,NA,NA,NA,NA,NA,NA,NA,false
5qwCi8De,338glsui56olvzhlkxidlboc564sfp,3kopy89hmcfz34gw4adzhl4jst6j3e,5qwCi8De,2020-0188,2020-05-21,11:00:27,11:16:25,NA,incomplete,66,filling,1,left,Green_Triangle_Grid_1.jpg,Blue_Star_Grid_4.jpg,Purple_Triangle_Dots_2.jpg,left,845.629999996163,true,high,NA,NA,NA,NA,NA,NA,NA,false
5qwCi8De,338glsui56olvzhlkxidlboc564sfp,3kopy89hmcfz34gw4adzhl4jst6j3e,5qwCi8De,2020-0188,2020-05-21,11:00:27,11:16:25,NA,incomplete,67,filling,1,right,Blue_Star_Grid_4.jpg,Purple_Star_Chess_1.jpg,Red_Plus_Grid_2.jpg,right,838.965000002645,true,high,NA,NA,NA,NA,NA,NA,NA,false
5qwCi8De,338glsui56olvzhlkxidlboc564sfp,3kopy89hmcfz34gw4adzhl4jst6j3e,5qwCi8De,2020-0188,2020-05-21,11:00:27,11:16:25,NA,incomplete,68,filling,1,left,Blue_Triangle_Stripes_4.jpg,Green_Plus_Stripes_1.jpg,Purple_Triangle_Grid_3.jpg,left,818.4050000272691,true,high,NA,NA,NA,NA,NA,NA,NA,false
5qwCi8De,338glsui56olvzhlkxidlboc564sfp,3kopy89hmcfz34gw4adzhl4jst6j3e,5qwCi8De,2020-0188,2020-05-21,11:00:27,11:16:25,NA,incomplete,69,filling,1,right,Purple_Circle_Grid_1.jpg,Green_Circle_Dots_4.jpg,Red_Plus_Grid_2.jpg,right,807.3200000217184,true,high,NA,NA,NA,NA,NA,NA,NA,false
5qwCi8De,338glsui56olvzhlkxidlboc564sfp,3kopy89hmcfz34gw4adzhl4jst6j3e,5qwCi8De,2020-0188,2020-05-21,11:00:27,11:16:25,NA,incomplete,70,shape,1,right,Blue_Circle_Chess_3.jpg,Green_Star_Chess_1.jpg,Red_Circle_Dots_4.jpg,left,865.4699999606237,false,high,NA,NA,NA,NA,NA,NA,NA,false
5qwCi8De,338glsui56olvzhlkxidlboc564sfp,3kopy89hmcfz34gw4adzhl4jst6j3e,5qwCi8De,2020-0188,2020-05-21,11:00:27,11:16:25,NA,incomplete,71,shape,1,left,Purple_Plus_Chess_4.jpg,Green_Plus_Dots_2.jpg,Blue_Circle_Chess_1.jpg,right,827.5950000388548,false,high,NA,NA,NA,NA,NA,NA,NA,false
5qwCi8De,338glsui56olvzhlkxidlboc564sfp,3kopy89hmcfz34gw4adzhl4jst6j3e,5qwCi8De,2020-0188,2020-05-21,11:00:27,11:16:25,NA,incomplete,72,shape,0,left,Blue_Star_Grid_4.jpg,Green_Star_Chess_1.jpg,Purple_Circle_Grid_3.jpg,left,647.205000044778,true,high,NA,NA,NA,NA,NA,NA,NA,false
5qwCi8De,338glsui56olvzhlkxidlboc564sfp,3kopy89hmcfz34gw4adzhl4jst6j3e,5qwCi8De,2020-0188,2020-05-21,11:00:27,11:16:25,NA,incomplete,73,shape,1,right,Blue_Plus_Grid_1.jpg,Red_Triangle_Grid_3.jpg,Green_Plus_Stripes_2.jpg,right,552.8400000184774,true,high,NA,NA,NA,NA,NA,NA,NA,false
5qwCi8De,338glsui56olvzhlkxidlboc564sfp,3kopy89hmcfz34gw4adzhl4jst6j3e,5qwCi8De,2020-0188,2020-05-21,11:00:27,11:16:25,NA,incomplete,74,shape,1,left,Blue_Plus_Grid_3.jpg,Purple_Plus_Chess_4.jpg,Red_Triangle_Grid_2.jpg,left,665.5099999625236,true,high,NA,NA,NA,NA,NA,NA,NA,false
5qwCi8De,338glsui56olvzhlkxidlboc564sfp,3kopy89hmcfz34gw4adzhl4jst6j3e,5qwCi8De,2020-0188,2020-05-21,11:00:27,11:16:25,NA,incomplete,75,shape,0,right,Red_Circle_Chess_2.jpg,Blue_Star_Chess_1.jpg,Purple_Circle_Stripes_4.jpg,right,578.0849999282509,true,high,NA,NA,NA,NA,NA,NA,NA,false
5qwCi8De,338glsui56olvzhlkxidlboc564sfp,3kopy89hmcfz34gw4adzhl4jst6j3e,5qwCi8De,2020-0188,2020-05-21,11:00:27,11:16:25,NA,incomplete,76,shape,1,left,Purple_Triangle_Chess_3.jpg,Blue_Triangle_Dots_2.jpg,Green_Star_Chess_1.jpg,left,542.9650000296533,true,high,NA,NA,NA,NA,NA,NA,NA,false
5qwCi8De,338glsui56olvzhlkxidlboc564sfp,3kopy89hmcfz34gw4adzhl4jst6j3e,5qwCi8De,2020-0188,2020-05-21,11:00:27,11:16:25,NA,incomplete,77,shape,1,left,Red_Star_Grid_3.jpg,Blue_Star_Dots_4.jpg,Green_Circle_Grid_1.jpg,left,573.8750000018626,true,high,NA,NA,NA,NA,NA,NA,NA,false
5qwCi8De,338glsui56olvzhlkxidlboc564sfp,3kopy89hmcfz34gw4adzhl4jst6j3e,5qwCi8De,2020-0188,2020-05-21,11:00:27,11:16:25,NA,incomplete,78,shape,1,right,Purple_Star_Dots_3.jpg,Blue_Circle_Dots_1.jpg,Green_Star_Grid_2.jpg,right,555.2449999377131,true,high,NA,NA,NA,NA,NA,NA,NA,false
5qwCi8De,338glsui56olvzhlkxidlboc564sfp,3kopy89hmcfz34gw4adzhl4jst6j3e,5qwCi8De,2020-0188,2020-05-21,11:00:27,11:16:25,NA,incomplete,79,shape,1,right,Green_Plus_Dots_3.jpg,Blue_Circle_Dots_2.jpg,Red_Plus_Chess_1.jpg,right,714.8850000230595,true,high,NA,NA,NA,NA,NA,NA,NA,false
5qwCi8De,338glsui56olvzhlkxidlboc564sfp,3kopy89hmcfz34gw4adzhl4jst6j3e,5qwCi8De,2020-0188,2020-05-21,11:00:27,11:16:25,NA,incomplete,80,filling,0,left,Purple_Circle_Grid_1.jpg,Green_Star_Grid_3.jpg,Blue_Circle_Chess_2.jpg,right,497.39999999292195,false,high,NA,NA,NA,NA,NA,NA,NA,false
5qwCi8De,338glsui56olvzhlkxidlboc564sfp,3kopy89hmcfz34gw4adzhl4jst6j3e,5qwCi8De,2020-0188,2020-05-21,11:00:27,11:16:25,NA,incomplete,81,filling,0,left,Purple_Circle_Chess_3.jpg,Blue_Star_Chess_2.jpg,Green_Circle_Stripes_1.jpg,right,481.79999995045364,false,high,NA,NA,NA,NA,NA,NA,NA,false
5qwCi8De,338glsui56olvzhlkxidlboc564sfp,3kopy89hmcfz34gw4adzhl4jst6j3e,5qwCi8De,2020-0188,2020-05-21,11:00:27,11:16:25,NA,incomplete,82,filling,1,left,Red_Triangle_Chess_3.jpg,Green_Circle_Chess_2.jpg,Purple_Triangle_Grid_1.jpg,right,643.4449999360368,false,high,NA,NA,NA,NA,NA,NA,NA,false
5qwCi8De,338glsui56olvzhlkxidlboc564sfp,3kopy89hmcfz34gw4adzhl4jst6j3e,5qwCi8De,2020-0188,2020-05-21,11:00:27,11:16:25,NA,incomplete,83,filling,0,left,Green_Star_Dots_1.jpg,Purple_Circle_Dots_4.jpg,Red_Star_Chess_3.jpg,right,494.1950000356883,false,high,NA,NA,NA,NA,NA,NA,NA,false
5qwCi8De,338glsui56olvzhlkxidlboc564sfp,3kopy89hmcfz34gw4adzhl4jst6j3e,5qwCi8De,2020-0188,2020-05-21,11:00:27,11:16:25,NA,incomplete,84,filling,1,left,Red_Triangle_Stripes_2.jpg,Green_Plus_Stripes_3.jpg,Blue_Triangle_Grid_4.jpg,right,504.21500008087605,false,high,NA,NA,NA,NA,NA,NA,NA,false
5qwCi8De,338glsui56olvzhlkxidlboc564sfp,3kopy89hmcfz34gw4adzhl4jst6j3e,5qwCi8De,2020-0188,2020-05-21,11:00:27,11:16:25,NA,incomplete,85,filling,0,right,Purple_Plus_Grid_3.jpg,Blue_Plus_Chess_4.jpg,Red_Circle_Grid_1.jpg,left,582.9549999907613,false,high,NA,NA,NA,NA,NA,NA,NA,false
5qwCi8De,338glsui56olvzhlkxidlboc564sfp,3kopy89hmcfz34gw4adzhl4jst6j3e,5qwCi8De,2020-0188,2020-05-21,11:00:27,11:16:25,NA,incomplete,86,filling,1,left,Purple_Circle_Grid_2.jpg,Red_Triangle_Grid_1.jpg,Blue_Circle_Stripes_3.jpg,right,500,false,high,NA,NA,NA,NA,NA,NA,NA,false
5qwCi8De,338glsui56olvzhlkxidlboc564sfp,3kopy89hmcfz34gw4adzhl4jst6j3e,5qwCi8De,2020-0188,2020-05-21,11:00:27,11:16:25,NA,incomplete,87,filling,0,right,Green_Plus_Grid_3.jpg,Blue_Plus_Chess_4.jpg,Red_Circle_Grid_2.jpg,right,981.800000066869,true,high,NA,NA,NA,NA,NA,NA,NA,false
5qwCi8De,338glsui56olvzhlkxidlboc564sfp,3kopy89hmcfz34gw4adzhl4jst6j3e,5qwCi8De,2020-0188,2020-05-21,11:00:27,11:16:25,NA,incomplete,88,filling,0,left,Red_Triangle_Chess_3.jpg,Blue_Circle_Chess_4.jpg,Green_Triangle_Stripes_2.jpg,left,809.914999990724,true,high,NA,NA,NA,NA,NA,NA,NA,false
5qwCi8De,338glsui56olvzhlkxidlboc564sfp,3kopy89hmcfz34gw4adzhl4jst6j3e,5qwCi8De,2020-0188,2020-05-21,11:00:27,11:16:25,NA,incomplete,89,filling,1,left,Red_Star_Grid_4.jpg,Blue_Circle_Grid_3.jpg,Green_Star_Stripes_2.jpg,right,727.4099999340251,false,high,NA,NA,NA,NA,NA,NA,NA,false
5qwCi8De,338glsui56olvzhlkxidlboc564sfp,3kopy89hmcfz34gw4adzhl4jst6j3e,5qwCi8De,2020-0188,2020-05-21,11:00:27,11:16:25,NA,incomplete,90,shape,1,right,Purple_Circle_Dots_2.jpg,Red_Triangle_Dots_4.jpg,Blue_Circle_Chess_1.jpg,right,525.5149999866262,true,high,NA,NA,NA,NA,NA,NA,NA,false
5qwCi8De,338glsui56olvzhlkxidlboc564sfp,3kopy89hmcfz34gw4adzhl4jst6j3e,5qwCi8De,2020-0188,2020-05-21,11:00:27,11:16:25,NA,incomplete,91,shape,1,right,Red_Triangle_Chess_2.jpg,Green_Star_Chess_1.jpg,Purple_Triangle_Stripes_4.jpg,right,556.4599999925122,true,high,NA,NA,NA,NA,NA,NA,NA,false
5qwCi8De,338glsui56olvzhlkxidlboc564sfp,3kopy89hmcfz34gw4adzhl4jst6j3e,5qwCi8De,2020-0188,2020-05-21,11:00:27,11:16:25,NA,incomplete,92,shape,0,left,Green_Circle_Stripes_1.jpg,Blue_Circle_Dots_2.jpg,Purple_Triangle_Stripes_4.jpg,left,554.64500002563,true,high,NA,NA,NA,NA,NA,NA,NA,false
5qwCi8De,338glsui56olvzhlkxidlboc564sfp,3kopy89hmcfz34gw4adzhl4jst6j3e,5qwCi8De,2020-0188,2020-05-21,11:00:27,11:16:25,NA,incomplete,93,shape,1,right,Green_Star_Stripes_2.jpg,Purple_Circle_Stripes_1.jpg,Blue_Star_Dots_3.jpg,right,544.4050000514835,true,high,NA,NA,NA,NA,NA,NA,NA,false
5qwCi8De,338glsui56olvzhlkxidlboc564sfp,3kopy89hmcfz34gw4adzhl4jst6j3e,5qwCi8De,2020-0188,2020-05-21,11:00:27,11:16:25,NA,incomplete,94,shape,1,right,Blue_Triangle_Grid_1.jpg,Purple_Star_Grid_4.jpg,Red_Triangle_Stripes_2.jpg,right,480.600000009872,true,high,NA,NA,NA,NA,NA,NA,NA,false
5qwCi8De,338glsui56olvzhlkxidlboc564sfp,3kopy89hmcfz34gw4adzhl4jst6j3e,5qwCi8De,2020-0188,2020-05-21,11:00:27,11:16:25,NA,incomplete,95,shape,1,left,Green_Star_Grid_4.jpg,Purple_Star_Stripes_1.jpg,Blue_Plus_Grid_2.jpg,left,703.8099999772385,true,high,NA,NA,NA,NA,NA,NA,NA,false
5qwCi8De,338glsui56olvzhlkxidlboc564sfp,3kopy89hmcfz34gw4adzhl4jst6j3e,5qwCi8De,2020-0188,2020-05-21,11:00:27,11:16:25,NA,incomplete,96,shape,1,right,Blue_Circle_Chess_2.jpg,Red_Triangle_Chess_3.jpg,Green_Circle_Grid_4.jpg,right,528.2550000119954,true,high,NA,NA,NA,NA,NA,NA,NA,false
5qwCi8De,338glsui56olvzhlkxidlboc564sfp,3kopy89hmcfz34gw4adzhl4jst6j3e,5qwCi8De,2020-0188,2020-05-21,11:00:27,11:16:25,NA,incomplete,97,shape,1,left,Blue_Star_Grid_4.jpg,Green_Star_Chess_1.jpg,Purple_Circle_Grid_2.jpg,left,591.8650000821799,true,high,NA,NA,NA,NA,NA,NA,NA,false
5qwCi8De,338glsui56olvzhlkxidlboc564sfp,3kopy89hmcfz34gw4adzhl4jst6j3e,5qwCi8De,2020-0188,2020-05-21,11:00:27,11:16:25,NA,incomplete,98,shape,1,right,Red_Triangle_Dots_2.jpg,Purple_Plus_Dots_3.jpg,Green_Triangle_Chess_4.jpg,right,580.6550000561401,true,high,NA,NA,NA,NA,NA,NA,NA,false
5qwCi8De,338glsui56olvzhlkxidlboc564sfp,3kopy89hmcfz34gw4adzhl4jst6j3e,5qwCi8De,2020-0188,2020-05-21,11:00:27,11:16:25,NA,incomplete,99,shape,1,right,Purple_Star_Chess_1.jpg,Blue_Triangle_Chess_2.jpg,Red_Star_Grid_4.jpg,right,595.5250000115484,true,high,NA,NA,NA,NA,NA,NA,NA,false
5qwCi8De,338glsui56olvzhlkxidlboc564sfp,3kopy89hmcfz34gw4adzhl4jst6j3e,5qwCi8De,2020-0188,2020-05-21,11:00:27,11:16:25,NA,incomplete,100,filling,1,left,Purple_Triangle_Grid_1.jpg,Red_Circle_Grid_2.jpg,Green_Triangle_Chess_4.jpg,right,550.554999965243,false,high,NA,NA,NA,NA,NA,NA,NA,false
5qwCi8De,338glsui56olvzhlkxidlboc564sfp,3kopy89hmcfz34gw4adzhl4jst6j3e,5qwCi8De,2020-0188,2020-05-21,11:00:27,11:16:25,NA,incomplete,101,filling,1,right,Red_Star_Dots_2.jpg,Purple_Star_Stripes_1.jpg,Blue_Plus_Dots_4.jpg,left,661.2749999621883,false,high,NA,NA,NA,NA,NA,NA,NA,false
5qwCi8De,338glsui56olvzhlkxidlboc564sfp,3kopy89hmcfz34gw4adzhl4jst6j3e,5qwCi8De,2020-0188,2020-05-21,11:00:27,11:16:25,NA,incomplete,102,filling,1,right,Green_Circle_Dots_2.jpg,Blue_Circle_Grid_3.jpg,Red_Star_Dots_1.jpg,right,975.2050000242889,true,high,NA,NA,NA,NA,NA,NA,NA,false
5qwCi8De,338glsui56olvzhlkxidlboc564sfp,3kopy89hmcfz34gw4adzhl4jst6j3e,5qwCi8De,2020-0188,2020-05-21,11:00:27,11:16:25,NA,incomplete,103,filling,1,left,Purple_Plus_Dots_3.jpg,Red_Star_Dots_1.jpg,Green_Plus_Grid_4.jpg,left,868.3500000042841,true,high,NA,NA,NA,NA,NA,NA,NA,false
5qwCi8De,338glsui56olvzhlkxidlboc564sfp,3kopy89hmcfz34gw4adzhl4jst6j3e,5qwCi8De,2020-0188,2020-05-21,11:00:27,11:16:25,NA,incomplete,104,filling,1,left,Red_Plus_Chess_1.jpg,Blue_Star_Chess_3.jpg,Green_Plus_Stripes_2.jpg,left,871.394999907352,true,high,NA,NA,NA,NA,NA,NA,NA,false
5qwCi8De,338glsui56olvzhlkxidlboc564sfp,3kopy89hmcfz34gw4adzhl4jst6j3e,5qwCi8De,2020-0188,2020-05-21,11:00:27,11:16:25,NA,incomplete,105,filling,1,right,Purple_Star_Stripes_2.jpg,Red_Star_Grid_4.jpg,Green_Circle_Stripes_3.jpg,right,823.0850000400096,true,high,NA,NA,NA,NA,NA,NA,NA,false
5qwCi8De,338glsui56olvzhlkxidlboc564sfp,3kopy89hmcfz34gw4adzhl4jst6j3e,5qwCi8De,2020-0188,2020-05-21,11:00:27,11:16:25,NA,incomplete,106,filling,1,right,Blue_Triangle_Dots_2.jpg,Green_Triangle_Grid_4.jpg,Purple_Star_Dots_1.jpg,right,842.5450000213459,true,high,NA,NA,NA,NA,NA,NA,NA,false
5qwCi8De,338glsui56olvzhlkxidlboc564sfp,3kopy89hmcfz34gw4adzhl4jst6j3e,5qwCi8De,2020-0188,2020-05-21,11:00:27,11:16:25,NA,incomplete,107,filling,1,right,Green_Star_Dots_1.jpg,Blue_Star_Chess_3.jpg,Purple_Circle_Dots_2.jpg,right,709.2600000323728,true,high,NA,NA,NA,NA,NA,NA,NA,false
5qwCi8De,338glsui56olvzhlkxidlboc564sfp,3kopy89hmcfz34gw4adzhl4jst6j3e,5qwCi8De,2020-0188,2020-05-21,11:00:27,11:16:25,NA,incomplete,108,filling,1,left,Green_Star_Dots_3.jpg,Purple_Circle_Dots_2.jpg,Red_Star_Grid_1.jpg,left,941.2099999608472,true,high,NA,NA,NA,NA,NA,NA,NA,false
5qwCi8De,338glsui56olvzhlkxidlboc564sfp,3kopy89hmcfz34gw4adzhl4jst6j3e,5qwCi8De,2020-0188,2020-05-21,11:00:27,11:16:25,NA,incomplete,109,filling,0,left,Red_Plus_Dots_3.jpg,Blue_Triangle_Dots_2.jpg,Green_Plus_Stripes_4.jpg,left,827.7600000146776,true,high,NA,NA,NA,NA,NA,NA,NA,false
5qwCi8De,338glsui56olvzhlkxidlboc564sfp,3kopy89hmcfz34gw4adzhl4jst6j3e,5qwCi8De,2020-0188,2020-05-21,11:00:27,11:16:25,NA,incomplete,110,shape,1,right,Blue_Triangle_Grid_1.jpg,Purple_Plus_Grid_4.jpg,Green_Triangle_Dots_2.jpg,left,863.2249999791384,false,high,NA,NA,NA,NA,NA,NA,NA,false
5qwCi8De,338glsui56olvzhlkxidlboc564sfp,3kopy89hmcfz34gw4adzhl4jst6j3e,5qwCi8De,2020-0188,2020-05-21,11:00:27,11:16:25,NA,incomplete,111,shape,0,right,Green_Circle_Grid_3.jpg,Purple_Star_Grid_2.jpg,Red_Circle_Dots_4.jpg,left,881.0999999986961,false,high,NA,NA,NA,NA,NA,NA,NA,false
5qwCi8De,338glsui56olvzhlkxidlboc564sfp,3kopy89hmcfz34gw4adzhl4jst6j3e,5qwCi8De,2020-0188,2020-05-21,11:00:27,11:16:25,NA,incomplete,112,shape,1,right,Green_Plus_Dots_3.jpg,Purple_Circle_Dots_4.jpg,Red_Plus_Chess_2.jpg,left,779.5099999057129,false,high,NA,NA,NA,NA,NA,NA,NA,false
5qwCi8De,338glsui56olvzhlkxidlboc564sfp,3kopy89hmcfz34gw4adzhl4jst6j3e,5qwCi8De,2020-0188,2020-05-21,11:00:27,11:16:25,NA,incomplete,113,shape,1,left,Blue_Circle_Dots_3.jpg,Green_Circle_Grid_1.jpg,Red_Star_Dots_4.jpg,right,791.0750000737607,false,high,NA,NA,NA,NA,NA,NA,NA,false
5qwCi8De,338glsui56olvzhlkxidlboc564sfp,3kopy89hmcfz34gw4adzhl4jst6j3e,5qwCi8De,2020-0188,2020-05-21,11:00:27,11:16:25,NA,incomplete,114,shape,1,right,Purple_Circle_Chess_1.jpg,Red_Star_Chess_3.jpg,Green_Circle_Stripes_2.jpg,right,531.8950000219047,true,high,NA,NA,NA,NA,NA,NA,NA,false
5qwCi8De,338glsui56olvzhlkxidlboc564sfp,3kopy89hmcfz34gw4adzhl4jst6j3e,5qwCi8De,2020-0188,2020-05-21,11:00:27,11:16:25,NA,incomplete,115,shape,0,right,Green_Plus_Grid_2.jpg,Red_Star_Grid_1.jpg,Purple_Plus_Chess_4.jpg,right,619.620000012219,true,high,NA,NA,NA,NA,NA,NA,NA,false
5qwCi8De,338glsui56olvzhlkxidlboc564sfp,3kopy89hmcfz34gw4adzhl4jst6j3e,5qwCi8De,2020-0188,2020-05-21,11:00:27,11:16:25,NA,incomplete,116,shape,1,right,Purple_Plus_Chess_2.jpg,Red_Triangle_Chess_3.jpg,Green_Plus_Stripes_1.jpg,right,839.6349999820814,true,high,NA,NA,NA,NA,NA,NA,NA,false
5qwCi8De,338glsui56olvzhlkxidlboc564sfp,3kopy89hmcfz34gw4adzhl4jst6j3e,5qwCi8De,2020-0188,2020-05-21,11:00:27,11:16:25,NA,incomplete,117,shape,1,left,Purple_Star_Dots_2.jpg,Blue_Star_Grid_3.jpg,Red_Plus_Dots_1.jpg,left,713.7449999572709,true,high,NA,NA,NA,NA,NA,NA,NA,false
5qwCi8De,338glsui56olvzhlkxidlboc564sfp,3kopy89hmcfz34gw4adzhl4jst6j3e,5qwCi8De,2020-0188,2020-05-21,11:00:27,11:16:25,NA,incomplete,118,shape,1,left,Purple_Star_Dots_2.jpg,Green_Star_Grid_4.jpg,Blue_Triangle_Dots_3.jpg,left,609.9049999611452,true,high,NA,NA,NA,NA,NA,NA,NA,false
5qwCi8De,338glsui56olvzhlkxidlboc564sfp,3kopy89hmcfz34gw4adzhl4jst6j3e,5qwCi8De,2020-0188,2020-05-21,11:00:27,11:16:25,NA,incomplete,119,shape,1,left,Purple_Star_Grid_2.jpg,Red_Star_Chess_1.jpg,Blue_Triangle_Grid_3.jpg,left,647.3599999444559,true,high,NA,NA,NA,NA,NA,NA,NA,false
5qwCi8De,338glsui56olvzhlkxidlboc564sfp,3kopy89hmcfz34gw4adzhl4jst6j3e,5qwCi8De,2020-0188,2020-05-21,11:00:27,11:16:25,NA,incomplete,120,number,1,right,Red_Triangle_Chess_2.jpg,Red_Plus_Stripes_4.jpg,Blue_Circle_Grid_2.jpg,NA,NA,NA,high,NA,NA,NA,NA,NA,NA,NA,false
5qwCi8De,338glsui56olvzhlkxidlboc564sfp,3kopy89hmcfz34gw4adzhl4jst6j3e,5qwCi8De,2020-0188,2020-05-21,11:00:27,11:16:25,NA,incomplete,121,number,1,right,Green_Plus_Dots_3.jpg,Green_Circle_Grid_1.jpg,Purple_Triangle_Stripes_3.jpg,right,735.6949999229982,true,high,NA,NA,NA,NA,NA,NA,NA,false
5qwCi8De,338glsui56olvzhlkxidlboc564sfp,3kopy89hmcfz34gw4adzhl4jst6j3e,5qwCi8De,2020-0188,2020-05-21,11:00:27,11:16:25,NA,incomplete,122,number,0,right,Green_Circle_Chess_1.jpg,Green_Triangle_Stripes_4.jpg,Red_Star_Grid_1.jpg,right,670.2999999979511,true,high,NA,NA,NA,NA,NA,NA,NA,false
5qwCi8De,338glsui56olvzhlkxidlboc564sfp,3kopy89hmcfz34gw4adzhl4jst6j3e,5qwCi8De,2020-0188,2020-05-21,11:00:27,11:16:25,NA,incomplete,123,number,1,left,Green_Triangle_Grid_2.jpg,Blue_Circle_Dots_2.jpg,Green_Plus_Stripes_3.jpg,left,719.634999986738,true,high,NA,NA,NA,NA,NA,NA,NA,false
5qwCi8De,338glsui56olvzhlkxidlboc564sfp,3kopy89hmcfz34gw4adzhl4jst6j3e,5qwCi8De,2020-0188,2020-05-21,11:00:27,11:16:25,NA,incomplete,124,number,1,left,Purple_Star_Stripes_1.jpg,Green_Plus_Dots_1.jpg,Purple_Triangle_Grid_2.jpg,left,646.9800000777468,true,high,NA,NA,NA,NA,NA,NA,NA,false
5qwCi8De,338glsui56olvzhlkxidlboc564sfp,3kopy89hmcfz34gw4adzhl4jst6j3e,5qwCi8De,2020-0188,2020-05-21,11:00:27,11:16:25,NA,incomplete,125,number,0,left,Red_Triangle_Chess_2.jpg,Blue_Plus_Grid_2.jpg,Red_Star_Dots_3.jpg,left,651.259999955073,true,high,NA,NA,NA,NA,NA,NA,NA,false
5qwCi8De,338glsui56olvzhlkxidlboc564sfp,3kopy89hmcfz34gw4adzhl4jst6j3e,5qwCi8De,2020-0188,2020-05-21,11:00:27,11:16:25,NA,incomplete,126,number,1,right,Red_Circle_Dots_4.jpg,Red_Plus_Stripes_1.jpg,Purple_Star_Chess_4.jpg,right,635.4600000195205,true,high,NA,NA,NA,NA,NA,NA,NA,false
5qwCi8De,338glsui56olvzhlkxidlboc564sfp,3kopy89hmcfz34gw4adzhl4jst6j3e,5qwCi8De,2020-0188,2020-05-21,11:00:27,11:16:25,NA,incomplete,127,number,1,right,Green_Plus_Chess_2.jpg,Green_Triangle_Grid_4.jpg,Purple_Circle_Stripes_2.jpg,right,974.3899999884889,true,high,NA,NA,NA,NA,NA,NA,NA,false
5qwCi8De,338glsui56olvzhlkxidlboc564sfp,3kopy89hmcfz34gw4adzhl4jst6j3e,5qwCi8De,2020-0188,2020-05-21,11:00:27,11:16:25,NA,incomplete,128,number,0,right,Blue_Plus_Grid_3.jpg,Blue_Circle_Chess_4.jpg,Red_Triangle_Dots_3.jpg,right,779.7200001077726,true,high,NA,NA,NA,NA,NA,NA,NA,false
5qwCi8De,338glsui56olvzhlkxidlboc564sfp,3kopy89hmcfz34gw4adzhl4jst6j3e,5qwCi8De,2020-0188,2020-05-21,11:00:27,11:16:25,NA,incomplete,129,number,1,left,Purple_Triangle_Dots_1.jpg,Blue_Plus_Stripes_1.jpg,Purple_Circle_Grid_2.jpg,left,905.0150000257418,true,high,NA,NA,NA,NA,NA,NA,NA,false
5qwCi8De,338glsui56olvzhlkxidlboc564sfp,3kopy89hmcfz34gw4adzhl4jst6j3e,5qwCi8De,2020-0188,2020-05-21,11:00:27,11:16:25,NA,incomplete,130,number,0,left,Blue_Triangle_Chess_3.jpg,Green_Star_Grid_3.jpg,Blue_Plus_Dots_4.jpg,left,849.6450000675395,true,high,NA,NA,NA,NA,NA,NA,NA,false
5qwCi8De,338glsui56olvzhlkxidlboc564sfp,3kopy89hmcfz34gw4adzhl4jst6j3e,5qwCi8De,2020-0188,2020-05-21,11:00:27,11:16:25,NA,incomplete,131,number,1,right,Blue_Plus_Grid_2.jpg,Blue_Circle_Chess_3.jpg,Green_Triangle_Stripes_2.jpg,left,587.6500000013039,false,high,NA,NA,NA,NA,NA,NA,NA,false
5qwCi8De,338glsui56olvzhlkxidlboc564sfp,3kopy89hmcfz34gw4adzhl4jst6j3e,5qwCi8De,2020-0188,2020-05-21,11:00:27,11:16:25,NA,incomplete,132,number,0,left,Red_Star_Stripes_3.jpg,Blue_Circle_Dots_3.jpg,Red_Triangle_Grid_2.jpg,right,560.7699999818578,false,high,NA,NA,NA,NA,NA,NA,NA,false
5qwCi8De,338glsui56olvzhlkxidlboc564sfp,3kopy89hmcfz34gw4adzhl4jst6j3e,5qwCi8De,2020-0188,2020-05-21,11:00:27,11:16:25,NA,incomplete,133,number,1,right,Blue_Triangle_Dots_1.jpg,Blue_Plus_Grid_2.jpg,Green_Star_Chess_1.jpg,left,526.6500000143424,false,high,NA,NA,NA,NA,NA,NA,NA,false
5qwCi8De,338glsui56olvzhlkxidlboc564sfp,3kopy89hmcfz34gw4adzhl4jst6j3e,5qwCi8De,2020-0188,2020-05-21,11:00:27,11:16:25,NA,incomplete,134,number,1,right,Green_Star_Grid_2.jpg,Green_Plus_Dots_1.jpg,Blue_Circle_Stripes_2.jpg,right,661.5699999965727,true,high,NA,NA,NA,NA,NA,NA,NA,false
5qwCi8De,338glsui56olvzhlkxidlboc564sfp,3kopy89hmcfz34gw4adzhl4jst6j3e,5qwCi8De,2020-0188,2020-05-21,11:00:27,11:16:25,NA,incomplete,135,number,1,left,Purple_Circle_Stripes_2.jpg,Blue_Plus_Chess_2.jpg,Purple_Star_Dots_1.jpg,left,593.0799999041483,true,high,NA,NA,NA,NA,NA,NA,NA,false
5qwCi8De,338glsui56olvzhlkxidlboc564sfp,3kopy89hmcfz34gw4adzhl4jst6j3e,5qwCi8De,2020-0188,2020-05-21,11:00:27,11:16:25,NA,incomplete,136,number,0,right,Red_Plus_Stripes_3.jpg,Red_Circle_Grid_2.jpg,Blue_Star_Chess_3.jpg,right,628.2600000267848,true,high,NA,NA,NA,NA,NA,NA,NA,false
5qwCi8De,338glsui56olvzhlkxidlboc564sfp,3kopy89hmcfz34gw4adzhl4jst6j3e,5qwCi8De,2020-0188,2020-05-21,11:00:27,11:16:25,NA,incomplete,137,number,1,right,Green_Plus_Dots_4.jpg,Green_Triangle_Grid_3.jpg,Red_Star_Chess_4.jpg,right,767.61500001885,true,high,NA,NA,NA,NA,NA,NA,NA,false
5qwCi8De,338glsui56olvzhlkxidlboc564sfp,3kopy89hmcfz34gw4adzhl4jst6j3e,5qwCi8De,2020-0188,2020-05-21,11:00:27,11:16:25,NA,incomplete,138,number,0,left,Green_Triangle_Dots_4.jpg,Blue_Plus_Stripes_4.jpg,Green_Star_Chess_1.jpg,left,581.3449999550357,true,high,NA,NA,NA,NA,NA,NA,NA,false
5qwCi8De,338glsui56olvzhlkxidlboc564sfp,3kopy89hmcfz34gw4adzhl4jst6j3e,5qwCi8De,2020-0188,2020-05-21,11:00:27,11:16:25,NA,incomplete,139,number,1,left,Red_Plus_Grid_4.jpg,Blue_Circle_Dots_4.jpg,Red_Triangle_Stripes_3.jpg,left,570.2250000322238,true,high,NA,NA,NA,NA,NA,NA,NA,false
5qwCi8De,338glsui56olvzhlkxidlboc564sfp,3kopy89hmcfz34gw4adzhl4jst6j3e,5qwCi8De,2020-0188,2020-05-21,11:00:27,11:16:25,NA,incomplete,140,color,0,right,Green_Star_Stripes_1.jpg,Purple_Circle_Chess_1.jpg,Green_Plus_Dots_3.jpg,left,569.2700000945479,false,high,NA,NA,NA,NA,NA,NA,NA,false
5qwCi8De,338glsui56olvzhlkxidlboc564sfp,3kopy89hmcfz34gw4adzhl4jst6j3e,5qwCi8De,2020-0188,2020-05-21,11:00:27,11:16:25,NA,incomplete,141,color,1,right,Purple_Triangle_Grid_2.jpg,Blue_Plus_Dots_2.jpg,Purple_Star_Chess_4.jpg,left,628.9099999703467,false,high,NA,NA,NA,NA,NA,NA,NA,false
5qwCi8De,338glsui56olvzhlkxidlboc564sfp,3kopy89hmcfz34gw4adzhl4jst6j3e,5qwCi8De,2020-0188,2020-05-21,11:00:27,11:16:25,NA,incomplete,142,color,0,right,Green_Star_Dots_1.jpg,Red_Plus_Grid_1.jpg,Green_Triangle_Stripes_2.jpg,left,592.3499999335036,false,high,NA,NA,NA,NA,NA,NA,NA,false
5qwCi8De,338glsui56olvzhlkxidlboc564sfp,3kopy89hmcfz34gw4adzhl4jst6j3e,5qwCi8De,2020-0188,2020-05-21,11:00:27,11:16:25,NA,incomplete,143,color,1,right,Blue_Circle_Grid_1.jpg,Red_Triangle_Chess_1.jpg,Blue_Star_Stripes_2.jpg,left,524.8799999244511,false,high,NA,NA,NA,NA,NA,NA,NA,false
5qwCi8De,338glsui56olvzhlkxidlboc564sfp,3kopy89hmcfz34gw4adzhl4jst6j3e,5qwCi8De,2020-0188,2020-05-21,11:00:27,11:16:25,NA,incomplete,144,color,1,right,Red_Plus_Dots_4.jpg,Purple_Triangle_Grid_4.jpg,Red_Circle_Stripes_1.jpg,left,612.2949999989942,false,high,NA,NA,NA,NA,NA,NA,NA,false
5qwCi8De,338glsui56olvzhlkxidlboc564sfp,3kopy89hmcfz34gw4adzhl4jst6j3e,5qwCi8De,2020-0188,2020-05-21,11:00:27,11:16:25,NA,incomplete,145,color,1,right,Green_Plus_Chess_2.jpg,Purple_Circle_Stripes_2.jpg,Green_Star_Dots_4.jpg,right,505.84999995771796,true,high,NA,NA,NA,NA,NA,NA,NA,false
5qwCi8De,338glsui56olvzhlkxidlboc564sfp,3kopy89hmcfz34gw4adzhl4jst6j3e,5qwCi8De,2020-0188,2020-05-21,11:00:27,11:16:25,NA,incomplete,146,color,1,right,Purple_Plus_Stripes_1.jpg,Blue_Star_Grid_1.jpg,Purple_Triangle_Dots_3.jpg,right,504.28499991539866,true,high,NA,NA,NA,NA,NA,NA,NA,false
5qwCi8De,338glsui56olvzhlkxidlboc564sfp,3kopy89hmcfz34gw4adzhl4jst6j3e,5qwCi8De,2020-0188,2020-05-21,11:00:27,11:16:25,NA,incomplete,147,color,1,left,Blue_Triangle_Chess_4.jpg,Blue_Plus_Grid_1.jpg,Purple_Circle_Stripes_4.jpg,left,504.39999997615814,true,high,NA,NA,NA,NA,NA,NA,NA,false
5qwCi8De,338glsui56olvzhlkxidlboc564sfp,3kopy89hmcfz34gw4adzhl4jst6j3e,5qwCi8De,2020-0188,2020-05-21,11:00:27,11:16:25,NA,incomplete,148,color,1,right,Blue_Triangle_Chess_3.jpg,Green_Plus_Dots_3.jpg,Blue_Circle_Stripes_1.jpg,right,472.38999989349395,true,high,NA,NA,NA,NA,NA,NA,NA,false
5qwCi8De,338glsui56olvzhlkxidlboc564sfp,3kopy89hmcfz34gw4adzhl4jst6j3e,5qwCi8De,2020-0188,2020-05-21,11:00:27,11:16:25,NA,incomplete,149,color,0,left,Red_Triangle_Stripes_1.jpg,Red_Star_Chess_3.jpg,Green_Circle_Grid_1.jpg,left,449.38500004354864,true,high,NA,NA,NA,NA,NA,NA,NA,false
5qwCi8De,338glsui56olvzhlkxidlboc564sfp,3kopy89hmcfz34gw4adzhl4jst6j3e,5qwCi8De,2020-0188,2020-05-21,11:00:27,11:16:25,NA,incomplete,150,color,1,left,Green_Star_Dots_3.jpg,Green_Circle_Stripes_1.jpg,Blue_Triangle_Grid_3.jpg,left,781.9749999325722,true,high,NA,NA,NA,NA,NA,NA,NA,false
5qwCi8De,338glsui56olvzhlkxidlboc564sfp,3kopy89hmcfz34gw4adzhl4jst6j3e,5qwCi8De,2020-0188,2020-05-21,11:00:27,11:16:25,NA,incomplete,151,color,1,left,Blue_Triangle_Grid_2.jpg,Blue_Plus_Dots_1.jpg,Purple_Star_Stripes_2.jpg,left,489.77999994531274,true,high,NA,NA,NA,NA,NA,NA,NA,false
5qwCi8De,338glsui56olvzhlkxidlboc564sfp,3kopy89hmcfz34gw4adzhl4jst6j3e,5qwCi8De,2020-0188,2020-05-21,11:00:27,11:16:25,NA,incomplete,152,color,1,left,Blue_Circle_Grid_3.jpg,Blue_Plus_Chess_1.jpg,Green_Triangle_Dots_3.jpg,left,465.09499999228865,true,high,NA,NA,NA,NA,NA,NA,NA,false
5qwCi8De,338glsui56olvzhlkxidlboc564sfp,3kopy89hmcfz34gw4adzhl4jst6j3e,5qwCi8De,2020-0188,2020-05-21,11:00:27,11:16:25,NA,incomplete,153,color,1,right,Green_Star_Dots_4.jpg,Purple_Plus_Chess_4.jpg,Green_Triangle_Grid_2.jpg,right,492.2650000080466,true,high,NA,NA,NA,NA,NA,NA,NA,false
5qwCi8De,338glsui56olvzhlkxidlboc564sfp,3kopy89hmcfz34gw4adzhl4jst6j3e,5qwCi8De,2020-0188,2020-05-21,11:00:27,11:16:25,NA,incomplete,154,color,1,left,Purple_Plus_Dots_3.jpg,Purple_Triangle_Chess_1.jpg,Blue_Circle_Stripes_3.jpg,left,468.92999997362494,true,high,NA,NA,NA,NA,NA,NA,NA,false
5qwCi8De,338glsui56olvzhlkxidlboc564sfp,3kopy89hmcfz34gw4adzhl4jst6j3e,5qwCi8De,2020-0188,2020-05-21,11:00:27,11:16:25,NA,incomplete,155,color,1,left,Green_Plus_Dots_1.jpg,Green_Star_Stripes_3.jpg,Red_Triangle_Chess_1.jpg,left,405.5549999466166,true,high,NA,NA,NA,NA,NA,NA,NA,false
5qwCi8De,338glsui56olvzhlkxidlboc564sfp,3kopy89hmcfz34gw4adzhl4jst6j3e,5qwCi8De,2020-0188,2020-05-21,11:00:27,11:16:25,NA,incomplete,156,color,1,left,Green_Plus_Grid_1.jpg,Green_Star_Chess_4.jpg,Blue_Triangle_Dots_1.jpg,left,411.74000001046807,true,high,NA,NA,NA,NA,NA,NA,NA,false
5qwCi8De,338glsui56olvzhlkxidlboc564sfp,3kopy89hmcfz34gw4adzhl4jst6j3e,5qwCi8De,2020-0188,2020-05-21,11:00:27,11:16:25,NA,incomplete,157,color,1,left,Blue_Triangle_Dots_4.jpg,Blue_Circle_Chess_3.jpg,Green_Plus_Stripes_4.jpg,left,462.3799999244511,true,high,NA,NA,NA,NA,NA,NA,NA,false
5qwCi8De,338glsui56olvzhlkxidlboc564sfp,3kopy89hmcfz34gw4adzhl4jst6j3e,5qwCi8De,2020-0188,2020-05-21,11:00:27,11:16:25,NA,incomplete,158,color,1,left,Blue_Plus_Stripes_3.jpg,Blue_Triangle_Chess_2.jpg,Red_Star_Dots_3.jpg,left,392.0899999793619,true,high,NA,NA,NA,NA,NA,NA,NA,false
5qwCi8De,338glsui56olvzhlkxidlboc564sfp,3kopy89hmcfz34gw4adzhl4jst6j3e,5qwCi8De,2020-0188,2020-05-21,11:00:27,11:16:25,NA,incomplete,159,color,1,left,Purple_Plus_Chess_2.jpg,Purple_Triangle_Dots_4.jpg,Blue_Circle_Grid_2.jpg,left,428.9949999656528,true,high,NA,NA,NA,NA,NA,NA,NA,false
5qwCi8De,338glsui56olvzhlkxidlboc564sfp,3kopy89hmcfz34gw4adzhl4jst6j3e,5qwCi8De,2020-0188,2020-05-21,11:00:27,11:16:25,NA,incomplete,160,number,0,left,Red_Star_Stripes_4.jpg,Green_Triangle_Chess_4.jpg,Red_Plus_Dots_1.jpg,right,457.0000000530854,false,high,NA,NA,NA,NA,NA,NA,NA,false
5qwCi8De,338glsui56olvzhlkxidlboc564sfp,3kopy89hmcfz34gw4adzhl4jst6j3e,5qwCi8De,2020-0188,2020-05-21,11:00:27,11:16:25,NA,incomplete,161,number,1,left,Green_Star_Dots_4.jpg,Blue_Triangle_Chess_4.jpg,Green_Plus_Grid_3.jpg,right,442.3299999907613,false,high,NA,NA,NA,NA,NA,NA,NA,false
5qwCi8De,338glsui56olvzhlkxidlboc564sfp,3kopy89hmcfz34gw4adzhl4jst6j3e,5qwCi8De,2020-0188,2020-05-21,11:00:27,11:16:25,NA,incomplete,162,number,1,left,Red_Triangle_Stripes_2.jpg,Green_Star_Chess_2.jpg,Red_Circle_Dots_3.jpg,right,430.7699999772012,false,high,NA,NA,NA,NA,NA,NA,NA,false
5qwCi8De,338glsui56olvzhlkxidlboc564sfp,3kopy89hmcfz34gw4adzhl4jst6j3e,5qwCi8De,2020-0188,2020-05-21,11:00:27,11:16:25,NA,incomplete,163,number,1,right,Blue_Circle_Dots_1.jpg,Blue_Triangle_Grid_4.jpg,Purple_Star_Stripes_1.jpg,right,568.1549999862909,true,high,NA,NA,NA,NA,NA,NA,NA,false
5qwCi8De,338glsui56olvzhlkxidlboc564sfp,3kopy89hmcfz34gw4adzhl4jst6j3e,5qwCi8De,2020-0188,2020-05-21,11:00:27,11:16:25,NA,incomplete,164,number,0,right,Green_Circle_Dots_1.jpg,Green_Plus_Stripes_4.jpg,Red_Star_Grid_1.jpg,right,565.569999977015,true,high,NA,NA,NA,NA,NA,NA,NA,false
5qwCi8De,338glsui56olvzhlkxidlboc564sfp,3kopy89hmcfz34gw4adzhl4jst6j3e,5qwCi8De,2020-0188,2020-05-21,11:00:27,11:16:25,NA,incomplete,165,number,1,right,Green_Plus_Dots_4.jpg,Green_Star_Chess_3.jpg,Red_Circle_Stripes_4.jpg,right,610.6199999339879,true,high,NA,NA,NA,NA,NA,NA,NA,false
5qwCi8De,338glsui56olvzhlkxidlboc564sfp,3kopy89hmcfz34gw4adzhl4jst6j3e,5qwCi8De,2020-0188,2020-05-21,11:00:27,11:16:25,NA,incomplete,166,number,1,left,Purple_Triangle_Dots_3.jpg,Green_Plus_Stripes_3.jpg,Purple_Star_Grid_2.jpg,left,639.5300000440329,true,high,NA,NA,NA,NA,NA,NA,NA,false
5qwCi8De,338glsui56olvzhlkxidlboc564sfp,3kopy89hmcfz34gw4adzhl4jst6j3e,5qwCi8De,2020-0188,2020-05-21,11:00:27,11:16:25,NA,incomplete,167,number,1,left,Purple_Triangle_Stripes_1.jpg,Blue_Circle_Chess_1.jpg,Purple_Plus_Grid_4.jpg,left,515.8550000051036,true,high,NA,NA,NA,NA,NA,NA,NA,false
5qwCi8De,338glsui56olvzhlkxidlboc564sfp,3kopy89hmcfz34gw4adzhl4jst6j3e,5qwCi8De,2020-0188,2020-05-21,11:00:27,11:16:25,NA,incomplete,168,number,1,left,Purple_Triangle_Dots_2.jpg,Red_Circle_Stripes_2.jpg,Purple_Plus_Grid_4.jpg,left,594.4649999728426,true,high,NA,NA,NA,NA,NA,NA,NA,false
5qwCi8De,338glsui56olvzhlkxidlboc564sfp,3kopy89hmcfz34gw4adzhl4jst6j3e,5qwCi8De,2020-0188,2020-05-21,11:00:27,11:16:25,NA,incomplete,169,number,1,right,Purple_Plus_Dots_3.jpg,Purple_Triangle_Chess_1.jpg,Red_Circle_Grid_3.jpg,right,638.8600000645965,true,high,NA,NA,NA,NA,NA,NA,NA,false
5qwCi8De,338glsui56olvzhlkxidlboc564sfp,3kopy89hmcfz34gw4adzhl4jst6j3e,5qwCi8De,2020-0188,2020-05-21,11:00:27,11:16:25,NA,incomplete,170,number,1,right,Blue_Circle_Grid_1.jpg,Blue_Triangle_Dots_2.jpg,Red_Star_Stripes_1.jpg,right,569.7949999012053,true,high,NA,NA,NA,NA,NA,NA,NA,false
5qwCi8De,338glsui56olvzhlkxidlboc564sfp,3kopy89hmcfz34gw4adzhl4jst6j3e,5qwCi8De,2020-0188,2020-05-21,11:00:27,11:16:25,NA,incomplete,171,number,1,right,Purple_Circle_Dots_4.jpg,Purple_Star_Grid_2.jpg,Green_Plus_Stripes_4.jpg,right,622.9499999899417,true,high,NA,NA,NA,NA,NA,NA,NA,false
5qwCi8De,338glsui56olvzhlkxidlboc564sfp,3kopy89hmcfz34gw4adzhl4jst6j3e,5qwCi8De,2020-0188,2020-05-21,11:00:27,11:16:25,NA,incomplete,172,number,1,left,Red_Triangle_Grid_3.jpg,Blue_Circle_Dots_3.jpg,Red_Star_Chess_4.jpg,left,579.8499999800697,true,high,NA,NA,NA,NA,NA,NA,NA,false
5qwCi8De,338glsui56olvzhlkxidlboc564sfp,3kopy89hmcfz34gw4adzhl4jst6j3e,5qwCi8De,2020-0188,2020-05-21,11:00:27,11:16:25,NA,incomplete,173,number,1,right,Red_Circle_Chess_3.jpg,Red_Star_Dots_1.jpg,Purple_Triangle_Grid_3.jpg,right,591.6649999562651,true,high,NA,NA,NA,NA,NA,NA,NA,false
5qwCi8De,338glsui56olvzhlkxidlboc564sfp,3kopy89hmcfz34gw4adzhl4jst6j3e,5qwCi8De,2020-0188,2020-05-21,11:00:27,11:16:25,NA,incomplete,174,number,1,left,Green_Triangle_Stripes_3.jpg,Purple_Circle_Chess_3.jpg,Green_Star_Grid_4.jpg,left,644.2699999315664,true,high,NA,NA,NA,NA,NA,NA,NA,false
5qwCi8De,338glsui56olvzhlkxidlboc564sfp,3kopy89hmcfz34gw4adzhl4jst6j3e,5qwCi8De,2020-0188,2020-05-21,11:00:27,11:16:25,NA,incomplete,175,number,1,left,Red_Triangle_Stripes_4.jpg,Green_Star_Chess_4.jpg,Red_Plus_Grid_3.jpg,right,757.9550000373274,false,high,NA,NA,NA,NA,NA,NA,NA,false
5qwCi8De,338glsui56olvzhlkxidlboc564sfp,3kopy89hmcfz34gw4adzhl4jst6j3e,5qwCi8De,2020-0188,2020-05-21,11:00:27,11:16:25,NA,incomplete,176,number,1,left,Red_Circle_Grid_1.jpg,Green_Triangle_Stripes_1.jpg,Red_Plus_Dots_2.jpg,left,764.8150000022724,true,high,NA,NA,NA,NA,NA,NA,NA,false
5qwCi8De,338glsui56olvzhlkxidlboc564sfp,3kopy89hmcfz34gw4adzhl4jst6j3e,5qwCi8De,2020-0188,2020-05-21,11:00:27,11:16:25,NA,incomplete,177,number,1,left,Purple_Circle_Dots_3.jpg,Blue_Triangle_Stripes_3.jpg,Purple_Plus_Chess_4.jpg,left,716.6250000009313,true,high,NA,NA,NA,NA,NA,NA,NA,false
5qwCi8De,338glsui56olvzhlkxidlboc564sfp,3kopy89hmcfz34gw4adzhl4jst6j3e,5qwCi8De,2020-0188,2020-05-21,11:00:27,11:16:25,NA,incomplete,178,number,1,left,Red_Circle_Chess_4.jpg,Purple_Triangle_Stripes_4.jpg,Red_Plus_Dots_2.jpg,left,595.0050000101328,true,high,NA,NA,NA,NA,NA,NA,NA,false
5qwCi8De,338glsui56olvzhlkxidlboc564sfp,3kopy89hmcfz34gw4adzhl4jst6j3e,5qwCi8De,2020-0188,2020-05-21,11:00:27,11:16:25,NA,incomplete,179,number,0,right,Red_Circle_Stripes_4.jpg,Red_Triangle_Grid_1.jpg,Blue_Plus_Chess_4.jpg,right,527.6499999454245,true,high,NA,NA,NA,NA,NA,NA,NA,false
5qwCi8De,338glsui56olvzhlkxidlboc564sfp,3kopy89hmcfz34gw4adzhl4jst6j3e,5qwCi8De,2020-0188,2020-05-21,11:00:27,11:16:25,NA,incomplete,180,color,1,left,Green_Plus_Dots_4.jpg,Green_Triangle_Chess_1.jpg,Purple_Circle_Grid_4.jpg,right,543.1399999652058,false,high,NA,NA,NA,NA,NA,NA,NA,false
5qwCi8De,338glsui56olvzhlkxidlboc564sfp,3kopy89hmcfz34gw4adzhl4jst6j3e,5qwCi8De,2020-0188,2020-05-21,11:00:27,11:16:25,NA,incomplete,181,color,1,right,Green_Star_Dots_4.jpg,Red_Triangle_Grid_4.jpg,Green_Plus_Stripes_1.jpg,right,477.5900000240654,true,high,NA,NA,NA,NA,NA,NA,NA,false
5qwCi8De,338glsui56olvzhlkxidlboc564sfp,3kopy89hmcfz34gw4adzhl4jst6j3e,5qwCi8De,2020-0188,2020-05-21,11:00:27,11:16:25,NA,incomplete,182,color,1,left,Green_Triangle_Chess_1.jpg,Green_Plus_Grid_2.jpg,Red_Circle_Stripes_1.jpg,left,440.3100000927225,true,high,NA,NA,NA,NA,NA,NA,NA,false
5qwCi8De,338glsui56olvzhlkxidlboc564sfp,3kopy89hmcfz34gw4adzhl4jst6j3e,5qwCi8De,2020-0188,2020-05-21,11:00:27,11:16:25,NA,incomplete,183,color,1,left,Blue_Circle_Chess_3.jpg,Blue_Triangle_Stripes_4.jpg,Green_Star_Grid_3.jpg,left,449.93000000249594,true,high,NA,NA,NA,NA,NA,NA,NA,false
5qwCi8De,338glsui56olvzhlkxidlboc564sfp,3kopy89hmcfz34gw4adzhl4jst6j3e,5qwCi8De,2020-0188,2020-05-21,11:00:27,11:16:25,NA,incomplete,184,color,1,right,Blue_Circle_Stripes_2.jpg,Purple_Triangle_Dots_2.jpg,Blue_Star_Chess_4.jpg,right,484.33500004466623,true,high,NA,NA,NA,NA,NA,NA,NA,false
5qwCi8De,338glsui56olvzhlkxidlboc564sfp,3kopy89hmcfz34gw4adzhl4jst6j3e,5qwCi8De,2020-0188,2020-05-21,11:00:27,11:16:25,NA,incomplete,185,color,1,left,Blue_Triangle_Dots_4.jpg,Blue_Circle_Stripes_1.jpg,Purple_Plus_Grid_4.jpg,left,582.0499999681488,true,high,NA,NA,NA,NA,NA,NA,NA,false
5qwCi8De,338glsui56olvzhlkxidlboc564sfp,3kopy89hmcfz34gw4adzhl4jst6j3e,5qwCi8De,2020-0188,2020-05-21,11:00:27,11:16:25,NA,incomplete,186,color,1,left,Green_Star_Chess_1.jpg,Green_Circle_Dots_3.jpg,Blue_Triangle_Stripes_1.jpg,left,490.8300000242889,true,high,NA,NA,NA,NA,NA,NA,NA,false
5qwCi8De,338glsui56olvzhlkxidlboc564sfp,3kopy89hmcfz34gw4adzhl4jst6j3e,5qwCi8De,2020-0188,2020-05-21,11:00:27,11:16:25,NA,incomplete,187,color,1,left,Purple_Circle_Stripes_4.jpg,Purple_Triangle_Dots_3.jpg,Green_Star_Chess_4.jpg,left,515.0799999246374,true,high,NA,NA,NA,NA,NA,NA,NA,false
5qwCi8De,338glsui56olvzhlkxidlboc564sfp,3kopy89hmcfz34gw4adzhl4jst6j3e,5qwCi8De,2020-0188,2020-05-21,11:00:27,11:16:25,NA,incomplete,188,color,1,right,Green_Star_Stripes_1.jpg,Purple_Plus_Dots_1.jpg,Green_Triangle_Chess_2.jpg,left,572.150000021793,false,high,NA,NA,NA,NA,NA,NA,NA,false
5qwCi8De,338glsui56olvzhlkxidlboc564sfp,3kopy89hmcfz34gw4adzhl4jst6j3e,5qwCi8De,2020-0188,2020-05-21,11:00:27,11:16:25,NA,incomplete,189,color,1,right,Green_Triangle_Grid_2.jpg,Purple_Star_Dots_2.jpg,Green_Circle_Stripes_4.jpg,right,535.4300000471994,true,high,NA,NA,NA,NA,NA,NA,NA,false
5qwCi8De,338glsui56olvzhlkxidlboc564sfp,3kopy89hmcfz34gw4adzhl4jst6j3e,5qwCi8De,2020-0188,2020-05-21,11:00:27,11:16:25,NA,incomplete,190,color,1,left,Blue_Triangle_Grid_1.jpg,Blue_Circle_Dots_3.jpg,Red_Star_Chess_1.jpg,left,446.93499989807606,true,high,NA,NA,NA,NA,NA,NA,NA,false
5qwCi8De,338glsui56olvzhlkxidlboc564sfp,3kopy89hmcfz34gw4adzhl4jst6j3e,5qwCi8De,2020-0188,2020-05-21,11:00:27,11:16:25,NA,incomplete,191,color,1,left,Purple_Star_Grid_2.jpg,Purple_Circle_Chess_4.jpg,Green_Triangle_Stripes_2.jpg,left,481.66500008665025,true,high,NA,NA,NA,NA,NA,NA,NA,false
5qwCi8De,338glsui56olvzhlkxidlboc564sfp,3kopy89hmcfz34gw4adzhl4jst6j3e,5qwCi8De,2020-0188,2020-05-21,11:00:27,11:16:25,NA,incomplete,192,color,1,left,Purple_Triangle_Stripes_3.jpg,Purple_Plus_Dots_4.jpg,Green_Star_Grid_3.jpg,left,539.2249999567866,true,high,NA,NA,NA,NA,NA,NA,NA,false
5qwCi8De,338glsui56olvzhlkxidlboc564sfp,3kopy89hmcfz34gw4adzhl4jst6j3e,5qwCi8De,2020-0188,2020-05-21,11:00:27,11:16:25,NA,incomplete,193,color,1,left,Blue_Triangle_Grid_4.jpg,Blue_Plus_Chess_3.jpg,Red_Circle_Stripes_4.jpg,left,433.6899999761954,true,high,NA,NA,NA,NA,NA,NA,NA,false
5qwCi8De,338glsui56olvzhlkxidlboc564sfp,3kopy89hmcfz34gw4adzhl4jst6j3e,5qwCi8De,2020-0188,2020-05-21,11:00:27,11:16:25,NA,incomplete,194,color,0,left,Green_Triangle_Chess_2.jpg,Green_Star_Dots_1.jpg,Purple_Circle_Grid_2.jpg,left,446.2249999633059,true,high,NA,NA,NA,NA,NA,NA,NA,false
5qwCi8De,338glsui56olvzhlkxidlboc564sfp,3kopy89hmcfz34gw4adzhl4jst6j3e,5qwCi8De,2020-0188,2020-05-21,11:00:27,11:16:25,NA,incomplete,195,color,1,right,Red_Triangle_Stripes_1.jpg,Blue_Circle_Grid_1.jpg,Red_Plus_Chess_3.jpg,right,463.5999999009073,true,high,NA,NA,NA,NA,NA,NA,NA,false
5qwCi8De,338glsui56olvzhlkxidlboc564sfp,3kopy89hmcfz34gw4adzhl4jst6j3e,5qwCi8De,2020-0188,2020-05-21,11:00:27,11:16:25,NA,incomplete,196,color,1,left,Red_Plus_Chess_1.jpg,Red_Triangle_Dots_2.jpg,Purple_Star_Grid_1.jpg,left,497.66999995335937,true,high,NA,NA,NA,NA,NA,NA,NA,false
5qwCi8De,338glsui56olvzhlkxidlboc564sfp,3kopy89hmcfz34gw4adzhl4jst6j3e,5qwCi8De,2020-0188,2020-05-21,11:00:27,11:16:25,NA,incomplete,197,color,0,left,Green_Plus_Stripes_2.jpg,Green_Triangle_Chess_1.jpg,Red_Star_Dots_2.jpg,left,450.1700000837445,true,high,NA,NA,NA,NA,NA,NA,NA,false
5qwCi8De,338glsui56olvzhlkxidlboc564sfp,3kopy89hmcfz34gw4adzhl4jst6j3e,5qwCi8De,2020-0188,2020-05-21,11:00:27,11:16:25,NA,incomplete,198,color,1,right,Green_Plus_Chess_1.jpg,Purple_Star_Dots_1.jpg,Green_Triangle_Grid_3.jpg,right,476.9050000468269,true,high,NA,NA,NA,NA,NA,NA,NA,false
5qwCi8De,338glsui56olvzhlkxidlboc564sfp,3kopy89hmcfz34gw4adzhl4jst6j3e,5qwCi8De,2020-0188,2020-05-21,11:00:27,11:16:25,NA,incomplete,199,color,0,left,Red_Circle_Stripes_1.jpg,Red_Star_Chess_3.jpg,Blue_Triangle_Grid_1.jpg,left,438.3949999464676,true,high,NA,NA,NA,NA,NA,NA,NA,false
5qwCi8De,338glsui56olvzhlkxidlboc564sfp,3kopy89hmcfz34gw4adzhl4jst6j3e,5qwCi8De,2020-0188,2020-05-21,11:00:27,11:16:25,NA,incomplete,200,number,1,left,Green_Plus_Grid_2.jpg,Red_Triangle_Dots_2.jpg,Green_Star_Stripes_3.jpg,right,506.5050000557676,false,high,NA,NA,NA,NA,NA,NA,NA,false
5qwCi8De,338glsui56olvzhlkxidlboc564sfp,3kopy89hmcfz34gw4adzhl4jst6j3e,5qwCi8De,2020-0188,2020-05-21,11:00:27,11:16:25,NA,incomplete,201,number,0,right,Green_Triangle_Stripes_3.jpg,Green_Circle_Grid_4.jpg,Red_Star_Chess_3.jpg,right,657.0449999999255,true,high,NA,NA,NA,NA,NA,NA,NA,false
5qwCi8De,338glsui56olvzhlkxidlboc564sfp,3kopy89hmcfz34gw4adzhl4jst6j3e,5qwCi8De,2020-0188,2020-05-21,11:00:27,11:16:25,NA,incomplete,202,number,1,right,Red_Triangle_Grid_4.jpg,Red_Star_Stripes_3.jpg,Green_Plus_Chess_4.jpg,right,602.9850000049919,true,high,NA,NA,NA,NA,NA,NA,NA,false
5qwCi8De,338glsui56olvzhlkxidlboc564sfp,3kopy89hmcfz34gw4adzhl4jst6j3e,5qwCi8De,2020-0188,2020-05-21,11:00:27,11:16:25,NA,incomplete,203,number,1,right,Red_Triangle_Dots_4.jpg,Red_Star_Chess_2.jpg,Blue_Circle_Grid_4.jpg,right,590.8150000032037,true,high,NA,NA,NA,NA,NA,NA,NA,false
5qwCi8De,338glsui56olvzhlkxidlboc564sfp,3kopy89hmcfz34gw4adzhl4jst6j3e,5qwCi8De,2020-0188,2020-05-21,11:00:27,11:16:25,NA,incomplete,204,number,0,right,Green_Triangle_Chess_3.jpg,Green_Circle_Stripes_4.jpg,Purple_Star_Grid_3.jpg,right,627.9899999499321,true,high,NA,NA,NA,NA,NA,NA,NA,false
5qwCi8De,338glsui56olvzhlkxidlboc564sfp,3kopy89hmcfz34gw4adzhl4jst6j3e,5qwCi8De,2020-0188,2020-05-21,11:00:27,11:16:25,NA,incomplete,205,number,1,left,Purple_Plus_Grid_4.jpg,Red_Star_Stripes_4.jpg,Purple_Circle_Dots_3.jpg,right,697.1299999859184,false,high,NA,NA,NA,NA,NA,NA,NA,false
5qwCi8De,338glsui56olvzhlkxidlboc564sfp,3kopy89hmcfz34gw4adzhl4jst6j3e,5qwCi8De,2020-0188,2020-05-21,11:00:27,11:16:25,NA,incomplete,206,number,1,right,Green_Triangle_Dots_3.jpg,Green_Circle_Stripes_4.jpg,Purple_Plus_Grid_3.jpg,right,872.2299999790266,true,high,NA,NA,NA,NA,NA,NA,NA,false
5qwCi8De,338glsui56olvzhlkxidlboc564sfp,3kopy89hmcfz34gw4adzhl4jst6j3e,5qwCi8De,2020-0188,2020-05-21,11:00:27,11:16:25,NA,incomplete,207,number,1,left,Purple_Star_Grid_1.jpg,Blue_Circle_Dots_1.jpg,Purple_Triangle_Stripes_4.jpg,left,721.5400000568479,true,high,NA,NA,NA,NA,NA,NA,NA,false
5qwCi8De,338glsui56olvzhlkxidlboc564sfp,3kopy89hmcfz34gw4adzhl4jst6j3e,5qwCi8De,2020-0188,2020-05-21,11:00:27,11:16:25,NA,incomplete,208,number,1,left,Red_Triangle_Dots_1.jpg,Purple_Circle_Chess_1.jpg,Red_Star_Stripes_3.jpg,left,559.9200000287965,true,high,NA,NA,NA,NA,NA,NA,NA,false
5qwCi8De,338glsui56olvzhlkxidlboc564sfp,3kopy89hmcfz34gw4adzhl4jst6j3e,5qwCi8De,2020-0188,2020-05-21,11:00:27,11:16:25,NA,incomplete,209,number,1,left,Green_Star_Grid_1.jpg,Purple_Triangle_Chess_1.jpg,Green_Circle_Stripes_4.jpg,left,542.8049999754876,true,high,NA,NA,NA,NA,NA,NA,NA,false
5qwCi8De,338glsui56olvzhlkxidlboc564sfp,3kopy89hmcfz34gw4adzhl4jst6j3e,5qwCi8De,2020-0188,2020-05-21,11:00:27,11:16:25,NA,incomplete,210,number,1,right,Green_Plus_Dots_1.jpg,Green_Triangle_Grid_4.jpg,Blue_Star_Stripes_1.jpg,right,567.1700000530109,true,high,NA,NA,NA,NA,NA,NA,NA,false
5qwCi8De,338glsui56olvzhlkxidlboc564sfp,3kopy89hmcfz34gw4adzhl4jst6j3e,5qwCi8De,2020-0188,2020-05-21,11:00:27,11:16:25,NA,incomplete,211,number,1,right,Blue_Star_Chess_2.jpg,Blue_Plus_Grid_4.jpg,Purple_Circle_Dots_2.jpg,right,651.4050000114366,true,high,NA,NA,NA,NA,NA,NA,NA,false
5qwCi8De,338glsui56olvzhlkxidlboc564sfp,3kopy89hmcfz34gw4adzhl4jst6j3e,5qwCi8De,2020-0188,2020-05-21,11:00:27,11:16:25,NA,incomplete,212,number,1,left,Blue_Plus_Grid_4.jpg,Green_Circle_Dots_4.jpg,Blue_Star_Stripes_2.jpg,left,621.6149999527261,true,high,NA,NA,NA,NA,NA,NA,NA,false
5qwCi8De,338glsui56olvzhlkxidlboc564sfp,3kopy89hmcfz34gw4adzhl4jst6j3e,5qwCi8De,2020-0188,2020-05-21,11:00:27,11:16:25,NA,incomplete,213,number,1,right,Green_Star_Stripes_4.jpg,Green_Circle_Chess_1.jpg,Red_Triangle_Dots_4.jpg,right,584.6850000089034,true,high,NA,NA,NA,NA,NA,NA,NA,false
5qwCi8De,338glsui56olvzhlkxidlboc564sfp,3kopy89hmcfz34gw4adzhl4jst6j3e,5qwCi8De,2020-0188,2020-05-21,11:00:27,11:16:25,NA,incomplete,214,number,0,right,Green_Triangle_Stripes_1.jpg,Green_Star_Dots_2.jpg,Blue_Circle_Chess_1.jpg,right,590.4100000625476,true,high,NA,NA,NA,NA,NA,NA,NA,false
5qwCi8De,338glsui56olvzhlkxidlboc564sfp,3kopy89hmcfz34gw4adzhl4jst6j3e,5qwCi8De,2020-0188,2020-05-21,11:00:27,11:16:25,NA,incomplete,215,number,1,right,Red_Circle_Stripes_3.jpg,Red_Triangle_Chess_1.jpg,Green_Star_Dots_3.jpg,right,635.7450000941753,true,high,NA,NA,NA,NA,NA,NA,NA,false
5qwCi8De,338glsui56olvzhlkxidlboc564sfp,3kopy89hmcfz34gw4adzhl4jst6j3e,5qwCi8De,2020-0188,2020-05-21,11:00:27,11:16:25,NA,incomplete,216,number,1,left,Green_Plus_Dots_4.jpg,Purple_Triangle_Stripes_4.jpg,Green_Circle_Grid_2.jpg,left,604.6750000678003,true,high,NA,NA,NA,NA,NA,NA,NA,false
5qwCi8De,338glsui56olvzhlkxidlboc564sfp,3kopy89hmcfz34gw4adzhl4jst6j3e,5qwCi8De,2020-0188,2020-05-21,11:00:27,11:16:25,NA,incomplete,217,number,1,right,Red_Triangle_Dots_2.jpg,Red_Circle_Stripes_4.jpg,Blue_Plus_Chess_2.jpg,right,640.8700000029057,true,high,NA,NA,NA,NA,NA,NA,NA,false
5qwCi8De,338glsui56olvzhlkxidlboc564sfp,3kopy89hmcfz34gw4adzhl4jst6j3e,5qwCi8De,2020-0188,2020-05-21,11:00:27,11:16:25,NA,incomplete,218,number,1,left,Purple_Plus_Chess_4.jpg,Red_Star_Stripes_4.jpg,Purple_Triangle_Dots_2.jpg,left,563.5150000452995,true,high,NA,NA,NA,NA,NA,NA,NA,false
5qwCi8De,338glsui56olvzhlkxidlboc564sfp,3kopy89hmcfz34gw4adzhl4jst6j3e,5qwCi8De,2020-0188,2020-05-21,11:00:27,11:16:25,NA,incomplete,219,number,1,right,Red_Plus_Stripes_1.jpg,Red_Circle_Grid_3.jpg,Blue_Star_Chess_1.jpg,right,513.535000034608,true,high,NA,NA,NA,NA,NA,NA,NA,false
5qwCi8De,338glsui56olvzhlkxidlboc564sfp,3kopy89hmcfz34gw4adzhl4jst6j3e,5qwCi8De,2020-0188,2020-05-21,11:00:27,11:16:25,NA,incomplete,220,color,1,right,Green_Circle_Grid_1.jpg,Purple_Triangle_Dots_1.jpg,Green_Plus_Stripes_2.jpg,left,547.2000000299886,false,high,NA,NA,NA,NA,NA,NA,NA,false
5qwCi8De,338glsui56olvzhlkxidlboc564sfp,3kopy89hmcfz34gw4adzhl4jst6j3e,5qwCi8De,2020-0188,2020-05-21,11:00:27,11:16:25,NA,incomplete,221,color,0,right,Blue_Triangle_Dots_1.jpg,Green_Star_Grid_1.jpg,Blue_Circle_Chess_2.jpg,left,496.2400000076741,false,high,NA,NA,NA,NA,NA,NA,NA,false
5qwCi8De,338glsui56olvzhlkxidlboc564sfp,3kopy89hmcfz34gw4adzhl4jst6j3e,5qwCi8De,2020-0188,2020-05-21,11:00:27,11:16:25,NA,incomplete,222,color,1,right,Blue_Triangle_Dots_3.jpg,Purple_Plus_Grid_3.jpg,Blue_Star_Chess_4.jpg,right,776.6650000121444,true,high,NA,NA,NA,NA,NA,NA,NA,false
5qwCi8De,338glsui56olvzhlkxidlboc564sfp,3kopy89hmcfz34gw4adzhl4jst6j3e,5qwCi8De,2020-0188,2020-05-21,11:00:27,11:16:25,NA,incomplete,223,color,0,right,Red_Plus_Chess_3.jpg,Green_Star_Dots_3.jpg,Red_Circle_Stripes_4.jpg,right,510.3000000817701,true,high,NA,NA,NA,NA,NA,NA,NA,false
5qwCi8De,338glsui56olvzhlkxidlboc564sfp,3kopy89hmcfz34gw4adzhl4jst6j3e,5qwCi8De,2020-0188,2020-05-21,11:00:27,11:16:25,NA,incomplete,224,color,1,right,Purple_Triangle_Stripes_4.jpg,Blue_Star_Grid_4.jpg,Purple_Plus_Dots_3.jpg,right,526.175000006333,true,high,NA,NA,NA,NA,NA,NA,NA,false
5qwCi8De,338glsui56olvzhlkxidlboc564sfp,3kopy89hmcfz34gw4adzhl4jst6j3e,5qwCi8De,2020-0188,2020-05-21,11:00:27,11:16:25,NA,incomplete,225,color,1,right,Blue_Star_Dots_4.jpg,Green_Circle_Stripes_4.jpg,Blue_Plus_Grid_3.jpg,right,495.14000001363456,true,high,NA,NA,NA,NA,NA,NA,NA,false
5qwCi8De,338glsui56olvzhlkxidlboc564sfp,3kopy89hmcfz34gw4adzhl4jst6j3e,5qwCi8De,2020-0188,2020-05-21,11:00:27,11:16:25,NA,incomplete,226,color,1,left,Blue_Star_Dots_4.jpg,Blue_Triangle_Grid_2.jpg,Green_Circle_Stripes_4.jpg,left,926.090000080876,true,high,NA,NA,NA,NA,NA,NA,NA,false
5qwCi8De,338glsui56olvzhlkxidlboc564sfp,3kopy89hmcfz34gw4adzhl4jst6j3e,5qwCi8De,2020-0188,2020-05-21,11:00:27,11:16:25,NA,incomplete,227,color,1,right,Red_Triangle_Grid_1.jpg,Blue_Circle_Dots_1.jpg,Red_Plus_Chess_2.jpg,right,653.4649999812245,true,high,NA,NA,NA,NA,NA,NA,NA,false
5qwCi8De,338glsui56olvzhlkxidlboc564sfp,3kopy89hmcfz34gw4adzhl4jst6j3e,5qwCi8De,2020-0188,2020-05-21,11:00:27,11:16:25,NA,incomplete,228,color,1,right,Red_Star_Chess_2.jpg,Purple_Triangle_Dots_2.jpg,Red_Circle_Grid_1.jpg,right,511.3550000824034,true,high,NA,NA,NA,NA,NA,NA,NA,false
5qwCi8De,338glsui56olvzhlkxidlboc564sfp,3kopy89hmcfz34gw4adzhl4jst6j3e,5qwCi8De,2020-0188,2020-05-21,11:00:27,11:16:25,NA,incomplete,229,color,0,right,Blue_Star_Chess_4.jpg,Red_Circle_Dots_4.jpg,Blue_Plus_Grid_1.jpg,right,431.47499999031425,true,high,NA,NA,NA,NA,NA,NA,NA,false
5qwCi8De,338glsui56olvzhlkxidlboc564sfp,3kopy89hmcfz34gw4adzhl4jst6j3e,5qwCi8De,2020-0188,2020-05-21,11:00:27,11:16:25,NA,incomplete,230,color,1,right,Green_Star_Dots_1.jpg,Red_Circle_Chess_1.jpg,Green_Plus_Grid_3.jpg,right,435.04499993287027,true,high,NA,NA,NA,NA,NA,NA,NA,false
5qwCi8De,338glsui56olvzhlkxidlboc564sfp,3kopy89hmcfz34gw4adzhl4jst6j3e,5qwCi8De,2020-0188,2020-05-21,11:00:27,11:16:25,NA,incomplete,231,color,1,left,Purple_Plus_Grid_1.jpg,Purple_Star_Chess_4.jpg,Green_Circle_Dots_1.jpg,left,461.51000005193055,true,high,NA,NA,NA,NA,NA,NA,NA,false
5qwCi8De,338glsui56olvzhlkxidlboc564sfp,3kopy89hmcfz34gw4adzhl4jst6j3e,5qwCi8De,2020-0188,2020-05-21,11:00:27,11:16:25,NA,incomplete,232,color,1,right,Blue_Plus_Dots_4.jpg,Red_Star_Grid_4.jpg,Blue_Triangle_Chess_1.jpg,right,503.76500003039837,true,high,NA,NA,NA,NA,NA,NA,NA,false
5qwCi8De,338glsui56olvzhlkxidlboc564sfp,3kopy89hmcfz34gw4adzhl4jst6j3e,5qwCi8De,2020-0188,2020-05-21,11:00:27,11:16:25,NA,incomplete,233,color,0,right,Purple_Star_Dots_1.jpg,Red_Plus_Stripes_1.jpg,Purple_Triangle_Grid_2.jpg,right,431.48499995004386,true,high,NA,NA,NA,NA,NA,NA,NA,false
5qwCi8De,338glsui56olvzhlkxidlboc564sfp,3kopy89hmcfz34gw4adzhl4jst6j3e,5qwCi8De,2020-0188,2020-05-21,11:00:27,11:16:25,NA,incomplete,234,color,1,right,Blue_Star_Grid_3.jpg,Green_Plus_Chess_3.jpg,Blue_Triangle_Stripes_1.jpg,right,458.7549999123439,true,high,NA,NA,NA,NA,NA,NA,NA,false
5qwCi8De,338glsui56olvzhlkxidlboc564sfp,3kopy89hmcfz34gw4adzhl4jst6j3e,5qwCi8De,2020-0188,2020-05-21,11:00:27,11:16:25,NA,incomplete,235,color,1,left,Purple_Circle_Grid_2.jpg,Purple_Plus_Stripes_4.jpg,Green_Triangle_Dots_2.jpg,left,492.72999993991107,true,high,NA,NA,NA,NA,NA,NA,NA,false
5qwCi8De,338glsui56olvzhlkxidlboc564sfp,3kopy89hmcfz34gw4adzhl4jst6j3e,5qwCi8De,2020-0188,2020-05-21,11:00:27,11:16:25,NA,incomplete,236,color,1,left,Red_Triangle_Stripes_3.jpg,Red_Circle_Grid_2.jpg,Blue_Plus_Dots_3.jpg,left,471.09000000637025,true,high,NA,NA,NA,NA,NA,NA,NA,false
5qwCi8De,338glsui56olvzhlkxidlboc564sfp,3kopy89hmcfz34gw4adzhl4jst6j3e,5qwCi8De,2020-0188,2020-05-21,11:00:27,11:16:25,NA,incomplete,237,color,0,right,Green_Plus_Stripes_3.jpg,Purple_Triangle_Grid_3.jpg,Green_Circle_Dots_1.jpg,right,494.57999994046986,true,high,NA,NA,NA,NA,NA,NA,NA,false
5qwCi8De,338glsui56olvzhlkxidlboc564sfp,3kopy89hmcfz34gw4adzhl4jst6j3e,5qwCi8De,2020-0188,2020-05-21,11:00:27,11:16:25,NA,incomplete,238,color,1,left,Blue_Circle_Dots_1.jpg,Blue_Plus_Stripes_3.jpg,Green_Star_Chess_1.jpg,left,431.4399999566376,true,high,NA,NA,NA,NA,NA,NA,NA,false
5qwCi8De,338glsui56olvzhlkxidlboc564sfp,3kopy89hmcfz34gw4adzhl4jst6j3e,5qwCi8De,2020-0188,2020-05-21,11:00:27,11:16:25,NA,incomplete,239,color,1,left,Red_Triangle_Chess_2.jpg,Red_Plus_Dots_1.jpg,Green_Star_Grid_2.jpg,left,441.980000003241,true,high,NA,NA,NA,NA,NA,NA,NA,false
5qwCi8De,338glsui56olvzhlkxidlboc564sfp,3kopy89hmcfz34gw4adzhl4jst6j3e,5qwCi8De,2020-0188,2020-05-21,11:00:27,11:16:25,NA,NA,instruction example,filling,NA,NA,Blue_Circle_Dots_3.jpg,Red_Triangle_Dots_4.jpg,Purple_Circle_Chess_2.jpg,NA,NA,NA,NA,NA,NA,NA,NA,NA,NA,NA,undefined
5qwCi8De,338glsui56olvzhlkxidlboc564sfp,3kopy89hmcfz34gw4adzhl4jst6j3e,5qwCi8De,2020-0188,2020-05-21,11:00:27,11:16:25,NA,NA,instruction example,filling,NA,NA,Purple_Star_Dots_3.jpg,Blue_Star_Stripes_1.jpg,Red_Triangle_Dots_4.jpg,NA,NA,NA,NA,NA,NA,NA,NA,NA,NA,NA,undefined
5qwCi8De,338glsui56olvzhlkxidlboc564sfp,3kopy89hmcfz34gw4adzhl4jst6j3e,5qwCi8De,2020-0188,2020-05-21,11:00:27,11:16:25,NA,NA,instruction example,filling,NA,NA,Green_Plus_Dots_3.jpg,Purple_Triangle_Grid_3.jpg,Green_Circle_Stripes_2.jpg,NA,NA,NA,NA,NA,NA,NA,NA,NA,NA,NA,undefined
5qwCi8De,338glsui56olvzhlkxidlboc564sfp,3kopy89hmcfz34gw4adzhl4jst6j3e,5qwCi8De,2020-0188,2020-05-21,11:00:27,11:16:25,NA,NA,instruction example,filling,NA,NA,Green_Star_Grid_1.jpg,Green_Triangle_Stripes_3.jpg,Red_Plus_Dots_1.jpg,NA,NA,NA,NA,NA,NA,NA,NA,NA,NA,NA,undefined
5qwCi8De,338glsui56olvzhlkxidlboc564sfp,3kopy89hmcfz34gw4adzhl4jst6j3e,5qwCi8De,2020-0188,2020-05-21,11:00:27,11:16:25,928919.6350000566,958871.4950000867,NA,NA,NA,NA,NA,NA,NA,NA,NA,NA,NA,39,White/Caucasian,Female,Caucasian ,no,yes,no,undefined
