workerId,hitId,assignmentId,subject,studyid,exp_date,exp_start,exp_end,time_start,time_end,trial,type,reward_validity,answer,image_top,image_left,image_right,response,response_time,response_acc,volatility,age,race,gender,ethnicity,color,vision,neuro,practice
Shmq1dHE,3087lxlj7ptluqx9bvztb5ithyq0fq,3lo69w1su7q6s6gk2awwgu6lyl7lgd,Shmq1dHE,2020-0188,2020-11-18,15:07:54,15:33:44,NA,incomplete,0,number,0,left,Green_Plus_Stripes_2.jpg,Blue_Circle_Grid_2.jpg,Green_Star_Chess_1.jpg,left,1427,true,NA,NA,NA,NA,NA,NA,NA,NA,true
Shmq1dHE,3087lxlj7ptluqx9bvztb5ithyq0fq,3lo69w1su7q6s6gk2awwgu6lyl7lgd,Shmq1dHE,2020-0188,2020-11-18,15:07:54,15:33:44,NA,incomplete,1,number,1,left,Red_Triangle_Stripes_3.jpg,Blue_Circle_Grid_3.jpg,Red_Plus_Dots_4.jpg,left,1458,true,NA,NA,NA,NA,NA,NA,NA,NA,true
Shmq1dHE,3087lxlj7ptluqx9bvztb5ithyq0fq,3lo69w1su7q6s6gk2awwgu6lyl7lgd,Shmq1dHE,2020-0188,2020-11-18,15:07:54,15:33:44,NA,incomplete,2,number,1,right,Green_Triangle_Chess_2.jpg,Green_Star_Dots_4.jpg,Purple_Circle_Stripes_2.jpg,right,1389,true,NA,NA,NA,NA,NA,NA,NA,NA,true
Shmq1dHE,3087lxlj7ptluqx9bvztb5ithyq0fq,3lo69w1su7q6s6gk2awwgu6lyl7lgd,Shmq1dHE,2020-0188,2020-11-18,15:07:54,15:33:44,NA,incomplete,3,number,1,left,Purple_Triangle_Grid_4.jpg,Green_Star_Stripes_4.jpg,Purple_Circle_Chess_2.jpg,right,1040,false,NA,NA,NA,NA,NA,NA,NA,NA,true
Shmq1dHE,3087lxlj7ptluqx9bvztb5ithyq0fq,3lo69w1su7q6s6gk2awwgu6lyl7lgd,Shmq1dHE,2020-0188,2020-11-18,15:07:54,15:33:44,NA,incomplete,4,number,1,right,Red_Star_Stripes_4.jpg,Red_Circle_Dots_1.jpg,Green_Plus_Grid_4.jpg,none,0,false,NA,NA,NA,NA,NA,NA,NA,NA,true
Shmq1dHE,3087lxlj7ptluqx9bvztb5ithyq0fq,3lo69w1su7q6s6gk2awwgu6lyl7lgd,Shmq1dHE,2020-0188,2020-11-18,15:07:54,15:33:44,NA,incomplete,5,number,1,right,Red_Triangle_Chess_2.jpg,Red_Circle_Grid_3.jpg,Green_Plus_Stripes_2.jpg,right,1400,true,NA,NA,NA,NA,NA,NA,NA,NA,true
Shmq1dHE,3087lxlj7ptluqx9bvztb5ithyq0fq,3lo69w1su7q6s6gk2awwgu6lyl7lgd,Shmq1dHE,2020-0188,2020-11-18,15:07:54,15:33:44,NA,incomplete,6,number,1,right,Purple_Star_Grid_3.jpg,Purple_Triangle_Stripes_2.jpg,Red_Circle_Chess_3.jpg,right,832,true,NA,NA,NA,NA,NA,NA,NA,NA,true
Shmq1dHE,3087lxlj7ptluqx9bvztb5ithyq0fq,3lo69w1su7q6s6gk2awwgu6lyl7lgd,Shmq1dHE,2020-0188,2020-11-18,15:07:54,15:33:44,NA,incomplete,7,number,1,left,Green_Plus_Dots_3.jpg,Purple_Triangle_Stripes_3.jpg,Green_Star_Chess_1.jpg,left,831,true,NA,NA,NA,NA,NA,NA,NA,NA,true
Shmq1dHE,3087lxlj7ptluqx9bvztb5ithyq0fq,3lo69w1su7q6s6gk2awwgu6lyl7lgd,Shmq1dHE,2020-0188,2020-11-18,15:07:54,15:33:44,NA,incomplete,8,number,0,right,Green_Plus_Stripes_3.jpg,Green_Star_Grid_4.jpg,Blue_Triangle_Chess_3.jpg,right,874,true,NA,NA,NA,NA,NA,NA,NA,NA,true
Shmq1dHE,3087lxlj7ptluqx9bvztb5ithyq0fq,3lo69w1su7q6s6gk2awwgu6lyl7lgd,Shmq1dHE,2020-0188,2020-11-18,15:07:54,15:33:44,NA,incomplete,9,number,0,left,Green_Circle_Stripes_1.jpg,Purple_Plus_Dots_1.jpg,Green_Triangle_Grid_3.jpg,left,788,true,NA,NA,NA,NA,NA,NA,NA,NA,true
Shmq1dHE,3087lxlj7ptluqx9bvztb5ithyq0fq,3lo69w1su7q6s6gk2awwgu6lyl7lgd,Shmq1dHE,2020-0188,2020-11-18,15:07:54,15:33:44,NA,incomplete,10,number,1,right,Blue_Plus_Chess_3.jpg,Blue_Star_Grid_2.jpg,Red_Triangle_Stripes_3.jpg,right,1291,true,NA,NA,NA,NA,NA,NA,NA,NA,true
Shmq1dHE,3087lxlj7ptluqx9bvztb5ithyq0fq,3lo69w1su7q6s6gk2awwgu6lyl7lgd,Shmq1dHE,2020-0188,2020-11-18,15:07:54,15:33:44,NA,incomplete,11,number,1,right,Red_Star_Chess_3.jpg,Red_Circle_Dots_2.jpg,Purple_Plus_Stripes_3.jpg,right,1036,true,NA,NA,NA,NA,NA,NA,NA,NA,true
Shmq1dHE,3087lxlj7ptluqx9bvztb5ithyq0fq,3lo69w1su7q6s6gk2awwgu6lyl7lgd,Shmq1dHE,2020-0188,2020-11-18,15:07:54,15:33:44,NA,incomplete,12,number,1,left,Blue_Triangle_Chess_1.jpg,Red_Circle_Grid_1.jpg,Blue_Star_Stripes_4.jpg,left,981,true,NA,NA,NA,NA,NA,NA,NA,NA,true
Shmq1dHE,3087lxlj7ptluqx9bvztb5ithyq0fq,3lo69w1su7q6s6gk2awwgu6lyl7lgd,Shmq1dHE,2020-0188,2020-11-18,15:07:54,15:33:44,NA,incomplete,13,number,0,left,Red_Star_Grid_4.jpg,Blue_Circle_Stripes_4.jpg,Red_Plus_Chess_3.jpg,left,1045,true,NA,NA,NA,NA,NA,NA,NA,NA,true
Shmq1dHE,3087lxlj7ptluqx9bvztb5ithyq0fq,3lo69w1su7q6s6gk2awwgu6lyl7lgd,Shmq1dHE,2020-0188,2020-11-18,15:07:54,15:33:44,NA,incomplete,14,number,0,right,Blue_Plus_Dots_3.jpg,Blue_Triangle_Grid_2.jpg,Purple_Circle_Chess_3.jpg,right,754,true,NA,NA,NA,NA,NA,NA,NA,NA,true
Shmq1dHE,3087lxlj7ptluqx9bvztb5ithyq0fq,3lo69w1su7q6s6gk2awwgu6lyl7lgd,Shmq1dHE,2020-0188,2020-11-18,15:07:54,15:33:44,NA,incomplete,15,number,1,right,Red_Plus_Grid_4.jpg,Red_Triangle_Stripes_3.jpg,Blue_Circle_Dots_4.jpg,right,1144,true,NA,NA,NA,NA,NA,NA,NA,NA,true
Shmq1dHE,3087lxlj7ptluqx9bvztb5ithyq0fq,3lo69w1su7q6s6gk2awwgu6lyl7lgd,Shmq1dHE,2020-0188,2020-11-18,15:07:54,15:33:44,NA,incomplete,16,number,1,right,Green_Star_Stripes_3.jpg,Green_Plus_Grid_2.jpg,Purple_Triangle_Dots_3.jpg,right,900,true,NA,NA,NA,NA,NA,NA,NA,NA,true
Shmq1dHE,3087lxlj7ptluqx9bvztb5ithyq0fq,3lo69w1su7q6s6gk2awwgu6lyl7lgd,Shmq1dHE,2020-0188,2020-11-18,15:07:54,15:33:44,NA,incomplete,17,number,1,left,Red_Triangle_Chess_1.jpg,Purple_Circle_Dots_1.jpg,Red_Plus_Grid_2.jpg,left,777,true,NA,NA,NA,NA,NA,NA,NA,NA,true
Shmq1dHE,3087lxlj7ptluqx9bvztb5ithyq0fq,3lo69w1su7q6s6gk2awwgu6lyl7lgd,Shmq1dHE,2020-0188,2020-11-18,15:07:54,15:33:44,NA,incomplete,18,number,1,left,Purple_Triangle_Chess_2.jpg,Blue_Star_Dots_2.jpg,Purple_Circle_Grid_3.jpg,right,865,false,NA,NA,NA,NA,NA,NA,NA,NA,true
Shmq1dHE,3087lxlj7ptluqx9bvztb5ithyq0fq,3lo69w1su7q6s6gk2awwgu6lyl7lgd,Shmq1dHE,2020-0188,2020-11-18,15:07:54,15:33:44,NA,incomplete,19,number,0,left,Red_Star_Stripes_3.jpg,Purple_Circle_Chess_3.jpg,Red_Plus_Grid_1.jpg,left,767,true,NA,NA,NA,NA,NA,NA,NA,NA,true
Shmq1dHE,3087lxlj7ptluqx9bvztb5ithyq0fq,3lo69w1su7q6s6gk2awwgu6lyl7lgd,Shmq1dHE,2020-0188,2020-11-18,15:07:54,15:33:44,NA,incomplete,20,color,1,right,Purple_Plus_Stripes_4.jpg,Red_Circle_Dots_4.jpg,Purple_Triangle_Chess_1.jpg,right,966,true,NA,NA,NA,NA,NA,NA,NA,NA,true
Shmq1dHE,3087lxlj7ptluqx9bvztb5ithyq0fq,3lo69w1su7q6s6gk2awwgu6lyl7lgd,Shmq1dHE,2020-0188,2020-11-18,15:07:54,15:33:44,NA,incomplete,21,color,0,left,Purple_Triangle_Dots_1.jpg,Purple_Star_Chess_3.jpg,Green_Plus_Stripes_1.jpg,left,697,true,NA,NA,NA,NA,NA,NA,NA,NA,true
Shmq1dHE,3087lxlj7ptluqx9bvztb5ithyq0fq,3lo69w1su7q6s6gk2awwgu6lyl7lgd,Shmq1dHE,2020-0188,2020-11-18,15:07:54,15:33:44,NA,incomplete,22,color,1,right,Purple_Circle_Grid_1.jpg,Blue_Triangle_Chess_1.jpg,Purple_Star_Dots_2.jpg,right,659,true,NA,NA,NA,NA,NA,NA,NA,NA,true
Shmq1dHE,3087lxlj7ptluqx9bvztb5ithyq0fq,3lo69w1su7q6s6gk2awwgu6lyl7lgd,Shmq1dHE,2020-0188,2020-11-18,15:07:54,15:33:44,NA,incomplete,23,color,1,right,Red_Triangle_Grid_2.jpg,Purple_Star_Stripes_2.jpg,Red_Plus_Dots_4.jpg,right,947,true,NA,NA,NA,NA,NA,NA,NA,NA,true
Shmq1dHE,3087lxlj7ptluqx9bvztb5ithyq0fq,3lo69w1su7q6s6gk2awwgu6lyl7lgd,Shmq1dHE,2020-0188,2020-11-18,15:07:54,15:33:44,NA,incomplete,24,color,1,right,Red_Circle_Chess_1.jpg,Blue_Plus_Grid_1.jpg,Red_Star_Stripes_3.jpg,left,1048,false,NA,NA,NA,NA,NA,NA,NA,NA,true
Shmq1dHE,3087lxlj7ptluqx9bvztb5ithyq0fq,3lo69w1su7q6s6gk2awwgu6lyl7lgd,Shmq1dHE,2020-0188,2020-11-18,15:07:54,15:33:44,NA,incomplete,25,color,1,right,Green_Circle_Dots_1.jpg,Blue_Triangle_Grid_1.jpg,Green_Plus_Stripes_2.jpg,right,933,true,NA,NA,NA,NA,NA,NA,NA,NA,true
Shmq1dHE,3087lxlj7ptluqx9bvztb5ithyq0fq,3lo69w1su7q6s6gk2awwgu6lyl7lgd,Shmq1dHE,2020-0188,2020-11-18,15:07:54,15:33:44,NA,incomplete,26,color,1,left,Blue_Triangle_Grid_2.jpg,Blue_Plus_Chess_4.jpg,Red_Star_Dots_2.jpg,left,758,true,NA,NA,NA,NA,NA,NA,NA,NA,true
Shmq1dHE,3087lxlj7ptluqx9bvztb5ithyq0fq,3lo69w1su7q6s6gk2awwgu6lyl7lgd,Shmq1dHE,2020-0188,2020-11-18,15:07:54,15:33:44,NA,incomplete,27,color,1,left,Blue_Triangle_Grid_3.jpg,Blue_Star_Chess_1.jpg,Purple_Plus_Dots_3.jpg,left,729,true,NA,NA,NA,NA,NA,NA,NA,NA,true
Shmq1dHE,3087lxlj7ptluqx9bvztb5ithyq0fq,3lo69w1su7q6s6gk2awwgu6lyl7lgd,Shmq1dHE,2020-0188,2020-11-18,15:07:54,15:33:44,NA,incomplete,28,color,1,left,Red_Triangle_Stripes_2.jpg,Red_Star_Chess_3.jpg,Green_Circle_Grid_2.jpg,left,881,true,NA,NA,NA,NA,NA,NA,NA,NA,true
Shmq1dHE,3087lxlj7ptluqx9bvztb5ithyq0fq,3lo69w1su7q6s6gk2awwgu6lyl7lgd,Shmq1dHE,2020-0188,2020-11-18,15:07:54,15:33:44,NA,incomplete,29,color,1,left,Green_Star_Chess_2.jpg,Green_Triangle_Dots_4.jpg,Purple_Plus_Stripes_2.jpg,left,1385,true,NA,NA,NA,NA,NA,NA,NA,NA,true
Shmq1dHE,3087lxlj7ptluqx9bvztb5ithyq0fq,3lo69w1su7q6s6gk2awwgu6lyl7lgd,Shmq1dHE,2020-0188,2020-11-18,15:07:54,15:33:44,NA,incomplete,30,color,1,right,Green_Star_Dots_3.jpg,Purple_Plus_Chess_3.jpg,Green_Triangle_Grid_1.jpg,right,858,true,NA,NA,NA,NA,NA,NA,NA,NA,true
Shmq1dHE,3087lxlj7ptluqx9bvztb5ithyq0fq,3lo69w1su7q6s6gk2awwgu6lyl7lgd,Shmq1dHE,2020-0188,2020-11-18,15:07:54,15:33:44,NA,incomplete,31,color,1,right,Blue_Plus_Dots_3.jpg,Red_Star_Chess_3.jpg,Blue_Triangle_Stripes_4.jpg,right,1020,true,NA,NA,NA,NA,NA,NA,NA,NA,true
Shmq1dHE,3087lxlj7ptluqx9bvztb5ithyq0fq,3lo69w1su7q6s6gk2awwgu6lyl7lgd,Shmq1dHE,2020-0188,2020-11-18,15:07:54,15:33:44,NA,incomplete,32,color,1,right,Purple_Circle_Dots_1.jpg,Green_Plus_Chess_1.jpg,Purple_Triangle_Grid_3.jpg,right,823,true,NA,NA,NA,NA,NA,NA,NA,NA,true
Shmq1dHE,3087lxlj7ptluqx9bvztb5ithyq0fq,3lo69w1su7q6s6gk2awwgu6lyl7lgd,Shmq1dHE,2020-0188,2020-11-18,15:07:54,15:33:44,NA,incomplete,33,color,1,right,Green_Triangle_Stripes_1.jpg,Red_Plus_Chess_1.jpg,Green_Circle_Grid_4.jpg,right,774,true,NA,NA,NA,NA,NA,NA,NA,NA,true
Shmq1dHE,3087lxlj7ptluqx9bvztb5ithyq0fq,3lo69w1su7q6s6gk2awwgu6lyl7lgd,Shmq1dHE,2020-0188,2020-11-18,15:07:54,15:33:44,NA,incomplete,34,color,1,right,Blue_Plus_Chess_1.jpg,Purple_Circle_Stripes_1.jpg,Blue_Triangle_Grid_2.jpg,right,823,true,NA,NA,NA,NA,NA,NA,NA,NA,true
Shmq1dHE,3087lxlj7ptluqx9bvztb5ithyq0fq,3lo69w1su7q6s6gk2awwgu6lyl7lgd,Shmq1dHE,2020-0188,2020-11-18,15:07:54,15:33:44,NA,incomplete,35,color,1,right,Green_Triangle_Stripes_3.jpg,Red_Plus_Dots_3.jpg,Green_Circle_Chess_1.jpg,right,840,true,NA,NA,NA,NA,NA,NA,NA,NA,true
Shmq1dHE,3087lxlj7ptluqx9bvztb5ithyq0fq,3lo69w1su7q6s6gk2awwgu6lyl7lgd,Shmq1dHE,2020-0188,2020-11-18,15:07:54,15:33:44,NA,incomplete,36,color,1,right,Green_Star_Dots_1.jpg,Blue_Circle_Stripes_1.jpg,Green_Plus_Grid_4.jpg,right,556,true,NA,NA,NA,NA,NA,NA,NA,NA,true
Shmq1dHE,3087lxlj7ptluqx9bvztb5ithyq0fq,3lo69w1su7q6s6gk2awwgu6lyl7lgd,Shmq1dHE,2020-0188,2020-11-18,15:07:54,15:33:44,NA,incomplete,37,color,1,right,Green_Star_Grid_1.jpg,Blue_Plus_Dots_1.jpg,Green_Circle_Chess_3.jpg,right,699,true,NA,NA,NA,NA,NA,NA,NA,NA,true
Shmq1dHE,3087lxlj7ptluqx9bvztb5ithyq0fq,3lo69w1su7q6s6gk2awwgu6lyl7lgd,Shmq1dHE,2020-0188,2020-11-18,15:07:54,15:33:44,NA,incomplete,38,color,1,right,Purple_Triangle_Dots_2.jpg,Blue_Star_Stripes_2.jpg,Purple_Plus_Grid_4.jpg,right,802,true,NA,NA,NA,NA,NA,NA,NA,NA,true
Shmq1dHE,3087lxlj7ptluqx9bvztb5ithyq0fq,3lo69w1su7q6s6gk2awwgu6lyl7lgd,Shmq1dHE,2020-0188,2020-11-18,15:07:54,15:33:44,NA,incomplete,39,color,0,right,Purple_Plus_Grid_4.jpg,Blue_Circle_Stripes_4.jpg,Purple_Triangle_Dots_2.jpg,right,802,true,NA,NA,NA,NA,NA,NA,NA,NA,true
Shmq1dHE,3087lxlj7ptluqx9bvztb5ithyq0fq,3lo69w1su7q6s6gk2awwgu6lyl7lgd,Shmq1dHE,2020-0188,2020-11-18,15:07:54,15:33:44,NA,incomplete,0,number,1,right,Red_Plus_Chess_2.jpg,Red_Circle_Grid_4.jpg,Purple_Triangle_Dots_2.jpg,right,1111,true,low,NA,NA,NA,NA,NA,NA,NA,false
Shmq1dHE,3087lxlj7ptluqx9bvztb5ithyq0fq,3lo69w1su7q6s6gk2awwgu6lyl7lgd,Shmq1dHE,2020-0188,2020-11-18,15:07:54,15:33:44,NA,incomplete,1,number,1,right,Green_Circle_Stripes_2.jpg,Green_Plus_Grid_3.jpg,Blue_Triangle_Dots_2.jpg,right,885,true,low,NA,NA,NA,NA,NA,NA,NA,false
Shmq1dHE,3087lxlj7ptluqx9bvztb5ithyq0fq,3lo69w1su7q6s6gk2awwgu6lyl7lgd,Shmq1dHE,2020-0188,2020-11-18,15:07:54,15:33:44,NA,incomplete,2,number,1,left,Red_Circle_Dots_4.jpg,Green_Plus_Stripes_4.jpg,Red_Star_Chess_2.jpg,left,1083,true,low,NA,NA,NA,NA,NA,NA,NA,false
Shmq1dHE,3087lxlj7ptluqx9bvztb5ithyq0fq,3lo69w1su7q6s6gk2awwgu6lyl7lgd,Shmq1dHE,2020-0188,2020-11-18,15:07:54,15:33:44,NA,incomplete,3,number,1,right,Blue_Triangle_Stripes_1.jpg,Blue_Circle_Dots_3.jpg,Purple_Plus_Grid_1.jpg,right,776,true,low,NA,NA,NA,NA,NA,NA,NA,false
Shmq1dHE,3087lxlj7ptluqx9bvztb5ithyq0fq,3lo69w1su7q6s6gk2awwgu6lyl7lgd,Shmq1dHE,2020-0188,2020-11-18,15:07:54,15:33:44,NA,incomplete,4,number,1,right,Green_Circle_Chess_4.jpg,Green_Star_Dots_3.jpg,Purple_Plus_Stripes_4.jpg,right,756,true,low,NA,NA,NA,NA,NA,NA,NA,false
Shmq1dHE,3087lxlj7ptluqx9bvztb5ithyq0fq,3lo69w1su7q6s6gk2awwgu6lyl7lgd,Shmq1dHE,2020-0188,2020-11-18,15:07:54,15:33:44,NA,incomplete,5,number,1,left,Red_Plus_Grid_1.jpg,Green_Circle_Chess_1.jpg,Red_Triangle_Dots_3.jpg,left,715,true,low,NA,NA,NA,NA,NA,NA,NA,false
Shmq1dHE,3087lxlj7ptluqx9bvztb5ithyq0fq,3lo69w1su7q6s6gk2awwgu6lyl7lgd,Shmq1dHE,2020-0188,2020-11-18,15:07:54,15:33:44,NA,incomplete,6,number,1,left,Green_Triangle_Grid_4.jpg,Purple_Plus_Stripes_4.jpg,Green_Star_Chess_2.jpg,left,817,true,low,NA,NA,NA,NA,NA,NA,NA,false
Shmq1dHE,3087lxlj7ptluqx9bvztb5ithyq0fq,3lo69w1su7q6s6gk2awwgu6lyl7lgd,Shmq1dHE,2020-0188,2020-11-18,15:07:54,15:33:44,NA,incomplete,7,number,1,left,Red_Plus_Dots_2.jpg,Green_Star_Stripes_2.jpg,Red_Circle_Chess_3.jpg,left,733,true,low,NA,NA,NA,NA,NA,NA,NA,false
Shmq1dHE,3087lxlj7ptluqx9bvztb5ithyq0fq,3lo69w1su7q6s6gk2awwgu6lyl7lgd,Shmq1dHE,2020-0188,2020-11-18,15:07:54,15:33:44,NA,incomplete,8,number,1,right,Green_Plus_Stripes_4.jpg,Green_Triangle_Grid_1.jpg,Purple_Star_Dots_4.jpg,right,614,true,low,NA,NA,NA,NA,NA,NA,NA,false
Shmq1dHE,3087lxlj7ptluqx9bvztb5ithyq0fq,3lo69w1su7q6s6gk2awwgu6lyl7lgd,Shmq1dHE,2020-0188,2020-11-18,15:07:54,15:33:44,NA,incomplete,9,number,1,left,Red_Plus_Chess_2.jpg,Purple_Triangle_Dots_2.jpg,Red_Circle_Stripes_3.jpg,left,778,true,low,NA,NA,NA,NA,NA,NA,NA,false
Shmq1dHE,3087lxlj7ptluqx9bvztb5ithyq0fq,3lo69w1su7q6s6gk2awwgu6lyl7lgd,Shmq1dHE,2020-0188,2020-11-18,15:07:54,15:33:44,NA,incomplete,10,number,1,right,Purple_Triangle_Stripes_3.jpg,Purple_Circle_Dots_1.jpg,Red_Plus_Grid_3.jpg,right,935,true,low,NA,NA,NA,NA,NA,NA,NA,false
Shmq1dHE,3087lxlj7ptluqx9bvztb5ithyq0fq,3lo69w1su7q6s6gk2awwgu6lyl7lgd,Shmq1dHE,2020-0188,2020-11-18,15:07:54,15:33:44,NA,incomplete,11,number,0,right,Red_Star_Stripes_2.jpg,Red_Plus_Dots_3.jpg,Blue_Circle_Chess_2.jpg,right,699,true,low,NA,NA,NA,NA,NA,NA,NA,false
Shmq1dHE,3087lxlj7ptluqx9bvztb5ithyq0fq,3lo69w1su7q6s6gk2awwgu6lyl7lgd,Shmq1dHE,2020-0188,2020-11-18,15:07:54,15:33:44,NA,incomplete,12,number,1,right,Red_Plus_Dots_3.jpg,Red_Star_Stripes_1.jpg,Green_Circle_Grid_3.jpg,right,774,true,low,NA,NA,NA,NA,NA,NA,NA,false
Shmq1dHE,3087lxlj7ptluqx9bvztb5ithyq0fq,3lo69w1su7q6s6gk2awwgu6lyl7lgd,Shmq1dHE,2020-0188,2020-11-18,15:07:54,15:33:44,NA,incomplete,13,number,1,left,Blue_Plus_Stripes_2.jpg,Green_Star_Grid_2.jpg,Blue_Circle_Dots_3.jpg,left,646,true,low,NA,NA,NA,NA,NA,NA,NA,false
Shmq1dHE,3087lxlj7ptluqx9bvztb5ithyq0fq,3lo69w1su7q6s6gk2awwgu6lyl7lgd,Shmq1dHE,2020-0188,2020-11-18,15:07:54,15:33:44,NA,incomplete,14,number,1,left,Purple_Circle_Grid_3.jpg,Blue_Triangle_Stripes_3.jpg,Purple_Star_Dots_2.jpg,left,863,true,low,NA,NA,NA,NA,NA,NA,NA,false
Shmq1dHE,3087lxlj7ptluqx9bvztb5ithyq0fq,3lo69w1su7q6s6gk2awwgu6lyl7lgd,Shmq1dHE,2020-0188,2020-11-18,15:07:54,15:33:44,NA,incomplete,15,number,1,right,Red_Star_Grid_3.jpg,Red_Triangle_Dots_4.jpg,Purple_Plus_Chess_3.jpg,right,876,true,low,NA,NA,NA,NA,NA,NA,NA,false
Shmq1dHE,3087lxlj7ptluqx9bvztb5ithyq0fq,3lo69w1su7q6s6gk2awwgu6lyl7lgd,Shmq1dHE,2020-0188,2020-11-18,15:07:54,15:33:44,NA,incomplete,16,number,0,right,Blue_Plus_Grid_2.jpg,Blue_Triangle_Chess_4.jpg,Purple_Star_Dots_2.jpg,right,636,true,low,NA,NA,NA,NA,NA,NA,NA,false
Shmq1dHE,3087lxlj7ptluqx9bvztb5ithyq0fq,3lo69w1su7q6s6gk2awwgu6lyl7lgd,Shmq1dHE,2020-0188,2020-11-18,15:07:54,15:33:44,NA,incomplete,17,number,1,right,Red_Circle_Chess_3.jpg,Red_Plus_Stripes_1.jpg,Purple_Triangle_Grid_3.jpg,right,560,true,low,NA,NA,NA,NA,NA,NA,NA,false
Shmq1dHE,3087lxlj7ptluqx9bvztb5ithyq0fq,3lo69w1su7q6s6gk2awwgu6lyl7lgd,Shmq1dHE,2020-0188,2020-11-18,15:07:54,15:33:44,NA,incomplete,18,number,0,left,Purple_Plus_Dots_3.jpg,Red_Triangle_Grid_3.jpg,Purple_Star_Chess_2.jpg,left,769,true,low,NA,NA,NA,NA,NA,NA,NA,false
Shmq1dHE,3087lxlj7ptluqx9bvztb5ithyq0fq,3lo69w1su7q6s6gk2awwgu6lyl7lgd,Shmq1dHE,2020-0188,2020-11-18,15:07:54,15:33:44,NA,incomplete,19,number,1,left,Red_Triangle_Chess_4.jpg,Blue_Star_Grid_4.jpg,Red_Plus_Stripes_3.jpg,left,742,true,low,NA,NA,NA,NA,NA,NA,NA,false
Shmq1dHE,3087lxlj7ptluqx9bvztb5ithyq0fq,3lo69w1su7q6s6gk2awwgu6lyl7lgd,Shmq1dHE,2020-0188,2020-11-18,15:07:54,15:33:44,NA,incomplete,20,number,1,left,Purple_Circle_Grid_1.jpg,Red_Plus_Chess_1.jpg,Purple_Triangle_Stripes_3.jpg,left,735,true,low,NA,NA,NA,NA,NA,NA,NA,false
Shmq1dHE,3087lxlj7ptluqx9bvztb5ithyq0fq,3lo69w1su7q6s6gk2awwgu6lyl7lgd,Shmq1dHE,2020-0188,2020-11-18,15:07:54,15:33:44,NA,incomplete,21,number,1,right,Green_Circle_Chess_3.jpg,Green_Star_Stripes_1.jpg,Red_Plus_Dots_3.jpg,left,1070,false,low,NA,NA,NA,NA,NA,NA,NA,false
Shmq1dHE,3087lxlj7ptluqx9bvztb5ithyq0fq,3lo69w1su7q6s6gk2awwgu6lyl7lgd,Shmq1dHE,2020-0188,2020-11-18,15:07:54,15:33:44,NA,incomplete,22,number,0,right,Red_Triangle_Stripes_1.jpg,Red_Circle_Dots_4.jpg,Green_Plus_Grid_1.jpg,right,898,true,low,NA,NA,NA,NA,NA,NA,NA,false
Shmq1dHE,3087lxlj7ptluqx9bvztb5ithyq0fq,3lo69w1su7q6s6gk2awwgu6lyl7lgd,Shmq1dHE,2020-0188,2020-11-18,15:07:54,15:33:44,NA,incomplete,23,number,1,right,Blue_Triangle_Chess_2.jpg,Blue_Circle_Grid_3.jpg,Purple_Star_Dots_2.jpg,right,870,true,low,NA,NA,NA,NA,NA,NA,NA,false
Shmq1dHE,3087lxlj7ptluqx9bvztb5ithyq0fq,3lo69w1su7q6s6gk2awwgu6lyl7lgd,Shmq1dHE,2020-0188,2020-11-18,15:07:54,15:33:44,NA,incomplete,24,number,1,left,Red_Triangle_Stripes_2.jpg,Blue_Circle_Dots_2.jpg,Red_Star_Grid_4.jpg,left,630,true,low,NA,NA,NA,NA,NA,NA,NA,false
Shmq1dHE,3087lxlj7ptluqx9bvztb5ithyq0fq,3lo69w1su7q6s6gk2awwgu6lyl7lgd,Shmq1dHE,2020-0188,2020-11-18,15:07:54,15:33:44,NA,incomplete,25,number,1,left,Purple_Star_Dots_4.jpg,Red_Triangle_Grid_4.jpg,Purple_Plus_Stripes_2.jpg,left,822,true,low,NA,NA,NA,NA,NA,NA,NA,false
Shmq1dHE,3087lxlj7ptluqx9bvztb5ithyq0fq,3lo69w1su7q6s6gk2awwgu6lyl7lgd,Shmq1dHE,2020-0188,2020-11-18,15:07:54,15:33:44,NA,incomplete,26,number,1,right,Blue_Triangle_Dots_2.jpg,Blue_Star_Chess_3.jpg,Purple_Circle_Stripes_2.jpg,right,705,true,low,NA,NA,NA,NA,NA,NA,NA,false
Shmq1dHE,3087lxlj7ptluqx9bvztb5ithyq0fq,3lo69w1su7q6s6gk2awwgu6lyl7lgd,Shmq1dHE,2020-0188,2020-11-18,15:07:54,15:33:44,NA,incomplete,27,number,1,left,Green_Circle_Dots_3.jpg,Red_Plus_Stripes_3.jpg,Green_Star_Chess_1.jpg,left,674,true,low,NA,NA,NA,NA,NA,NA,NA,false
Shmq1dHE,3087lxlj7ptluqx9bvztb5ithyq0fq,3lo69w1su7q6s6gk2awwgu6lyl7lgd,Shmq1dHE,2020-0188,2020-11-18,15:07:54,15:33:44,NA,incomplete,28,number,1,left,Purple_Triangle_Stripes_1.jpg,Red_Plus_Grid_1.jpg,Purple_Star_Dots_4.jpg,left,1190,true,low,NA,NA,NA,NA,NA,NA,NA,false
Shmq1dHE,3087lxlj7ptluqx9bvztb5ithyq0fq,3lo69w1su7q6s6gk2awwgu6lyl7lgd,Shmq1dHE,2020-0188,2020-11-18,15:07:54,15:33:44,NA,incomplete,29,number,1,right,Blue_Plus_Grid_3.jpg,Blue_Star_Chess_2.jpg,Purple_Circle_Stripes_3.jpg,right,562,true,low,NA,NA,NA,NA,NA,NA,NA,false
Shmq1dHE,3087lxlj7ptluqx9bvztb5ithyq0fq,3lo69w1su7q6s6gk2awwgu6lyl7lgd,Shmq1dHE,2020-0188,2020-11-18,15:07:54,15:33:44,NA,incomplete,30,color,0,left,Blue_Triangle_Stripes_3.jpg,Blue_Star_Dots_1.jpg,Purple_Plus_Chess_3.jpg,right,639,false,low,NA,NA,NA,NA,NA,NA,NA,false
Shmq1dHE,3087lxlj7ptluqx9bvztb5ithyq0fq,3lo69w1su7q6s6gk2awwgu6lyl7lgd,Shmq1dHE,2020-0188,2020-11-18,15:07:54,15:33:44,NA,incomplete,31,color,1,left,Purple_Star_Grid_4.jpg,Purple_Plus_Dots_3.jpg,Red_Triangle_Chess_4.jpg,right,660,false,low,NA,NA,NA,NA,NA,NA,NA,false
Shmq1dHE,3087lxlj7ptluqx9bvztb5ithyq0fq,3lo69w1su7q6s6gk2awwgu6lyl7lgd,Shmq1dHE,2020-0188,2020-11-18,15:07:54,15:33:44,NA,incomplete,32,color,0,right,Blue_Star_Chess_2.jpg,Purple_Circle_Dots_2.jpg,Blue_Triangle_Stripes_4.jpg,left,580,false,low,NA,NA,NA,NA,NA,NA,NA,false
Shmq1dHE,3087lxlj7ptluqx9bvztb5ithyq0fq,3lo69w1su7q6s6gk2awwgu6lyl7lgd,Shmq1dHE,2020-0188,2020-11-18,15:07:54,15:33:44,NA,incomplete,33,color,1,right,Green_Plus_Chess_2.jpg,Blue_Star_Grid_2.jpg,Green_Circle_Stripes_4.jpg,left,642,false,low,NA,NA,NA,NA,NA,NA,NA,false
Shmq1dHE,3087lxlj7ptluqx9bvztb5ithyq0fq,3lo69w1su7q6s6gk2awwgu6lyl7lgd,Shmq1dHE,2020-0188,2020-11-18,15:07:54,15:33:44,NA,incomplete,34,color,1,left,Blue_Triangle_Stripes_4.jpg,Blue_Star_Dots_3.jpg,Green_Plus_Chess_4.jpg,right,602,false,low,NA,NA,NA,NA,NA,NA,NA,false
Shmq1dHE,3087lxlj7ptluqx9bvztb5ithyq0fq,3lo69w1su7q6s6gk2awwgu6lyl7lgd,Shmq1dHE,2020-0188,2020-11-18,15:07:54,15:33:44,NA,incomplete,35,color,1,left,Blue_Circle_Dots_2.jpg,Blue_Plus_Grid_3.jpg,Red_Star_Stripes_2.jpg,left,723,true,low,NA,NA,NA,NA,NA,NA,NA,false
Shmq1dHE,3087lxlj7ptluqx9bvztb5ithyq0fq,3lo69w1su7q6s6gk2awwgu6lyl7lgd,Shmq1dHE,2020-0188,2020-11-18,15:07:54,15:33:44,NA,incomplete,36,color,0,left,Red_Circle_Dots_1.jpg,Red_Plus_Chess_2.jpg,Purple_Star_Grid_1.jpg,left,535,true,low,NA,NA,NA,NA,NA,NA,NA,false
Shmq1dHE,3087lxlj7ptluqx9bvztb5ithyq0fq,3lo69w1su7q6s6gk2awwgu6lyl7lgd,Shmq1dHE,2020-0188,2020-11-18,15:07:54,15:33:44,NA,incomplete,37,color,0,left,Purple_Star_Grid_1.jpg,Purple_Triangle_Stripes_4.jpg,Blue_Circle_Dots_1.jpg,right,563,false,low,NA,NA,NA,NA,NA,NA,NA,false
Shmq1dHE,3087lxlj7ptluqx9bvztb5ithyq0fq,3lo69w1su7q6s6gk2awwgu6lyl7lgd,Shmq1dHE,2020-0188,2020-11-18,15:07:54,15:33:44,NA,incomplete,38,color,1,right,Red_Triangle_Dots_2.jpg,Blue_Star_Chess_2.jpg,Red_Plus_Stripes_1.jpg,left,692,false,low,NA,NA,NA,NA,NA,NA,NA,false
Shmq1dHE,3087lxlj7ptluqx9bvztb5ithyq0fq,3lo69w1su7q6s6gk2awwgu6lyl7lgd,Shmq1dHE,2020-0188,2020-11-18,15:07:54,15:33:44,NA,incomplete,39,color,1,right,Red_Plus_Grid_1.jpg,Blue_Triangle_Stripes_1.jpg,Red_Circle_Dots_3.jpg,left,563,false,low,NA,NA,NA,NA,NA,NA,NA,false
Shmq1dHE,3087lxlj7ptluqx9bvztb5ithyq0fq,3lo69w1su7q6s6gk2awwgu6lyl7lgd,Shmq1dHE,2020-0188,2020-11-18,15:07:54,15:33:44,NA,incomplete,40,color,0,left,Purple_Triangle_Chess_4.jpg,Purple_Star_Grid_2.jpg,Green_Plus_Dots_4.jpg,right,642,false,low,NA,NA,NA,NA,NA,NA,NA,false
Shmq1dHE,3087lxlj7ptluqx9bvztb5ithyq0fq,3lo69w1su7q6s6gk2awwgu6lyl7lgd,Shmq1dHE,2020-0188,2020-11-18,15:07:54,15:33:44,NA,incomplete,41,color,1,right,Blue_Plus_Grid_3.jpg,Red_Triangle_Chess_3.jpg,Blue_Star_Dots_4.jpg,left,663,false,low,NA,NA,NA,NA,NA,NA,NA,false
Shmq1dHE,3087lxlj7ptluqx9bvztb5ithyq0fq,3lo69w1su7q6s6gk2awwgu6lyl7lgd,Shmq1dHE,2020-0188,2020-11-18,15:07:54,15:33:44,NA,incomplete,42,color,1,left,Purple_Triangle_Dots_1.jpg,Purple_Star_Chess_2.jpg,Green_Circle_Grid_1.jpg,right,763,false,low,NA,NA,NA,NA,NA,NA,NA,false
Shmq1dHE,3087lxlj7ptluqx9bvztb5ithyq0fq,3lo69w1su7q6s6gk2awwgu6lyl7lgd,Shmq1dHE,2020-0188,2020-11-18,15:07:54,15:33:44,NA,incomplete,43,color,1,right,Red_Circle_Grid_1.jpg,Blue_Star_Dots_1.jpg,Red_Triangle_Chess_3.jpg,right,699,true,low,NA,NA,NA,NA,NA,NA,NA,false
Shmq1dHE,3087lxlj7ptluqx9bvztb5ithyq0fq,3lo69w1su7q6s6gk2awwgu6lyl7lgd,Shmq1dHE,2020-0188,2020-11-18,15:07:54,15:33:44,NA,incomplete,44,color,1,right,Red_Plus_Dots_1.jpg,Green_Triangle_Chess_1.jpg,Red_Star_Grid_2.jpg,right,512,true,low,NA,NA,NA,NA,NA,NA,NA,false
Shmq1dHE,3087lxlj7ptluqx9bvztb5ithyq0fq,3lo69w1su7q6s6gk2awwgu6lyl7lgd,Shmq1dHE,2020-0188,2020-11-18,15:07:54,15:33:44,NA,incomplete,45,color,1,left,Blue_Star_Dots_2.jpg,Blue_Circle_Chess_1.jpg,Red_Plus_Stripes_2.jpg,left,907,true,low,NA,NA,NA,NA,NA,NA,NA,false
Shmq1dHE,3087lxlj7ptluqx9bvztb5ithyq0fq,3lo69w1su7q6s6gk2awwgu6lyl7lgd,Shmq1dHE,2020-0188,2020-11-18,15:07:54,15:33:44,NA,incomplete,46,color,0,left,Red_Plus_Stripes_1.jpg,Red_Circle_Chess_2.jpg,Purple_Triangle_Grid_1.jpg,left,765,true,low,NA,NA,NA,NA,NA,NA,NA,false
Shmq1dHE,3087lxlj7ptluqx9bvztb5ithyq0fq,3lo69w1su7q6s6gk2awwgu6lyl7lgd,Shmq1dHE,2020-0188,2020-11-18,15:07:54,15:33:44,NA,incomplete,47,color,0,left,Green_Circle_Stripes_1.jpg,Green_Triangle_Grid_2.jpg,Red_Plus_Dots_1.jpg,right,664,false,low,NA,NA,NA,NA,NA,NA,NA,false
Shmq1dHE,3087lxlj7ptluqx9bvztb5ithyq0fq,3lo69w1su7q6s6gk2awwgu6lyl7lgd,Shmq1dHE,2020-0188,2020-11-18,15:07:54,15:33:44,NA,incomplete,48,color,1,left,Purple_Circle_Grid_3.jpg,Purple_Star_Chess_4.jpg,Red_Plus_Stripes_3.jpg,right,772,false,low,NA,NA,NA,NA,NA,NA,NA,false
Shmq1dHE,3087lxlj7ptluqx9bvztb5ithyq0fq,3lo69w1su7q6s6gk2awwgu6lyl7lgd,Shmq1dHE,2020-0188,2020-11-18,15:07:54,15:33:44,NA,incomplete,49,color,1,right,Purple_Star_Stripes_3.jpg,Red_Plus_Grid_3.jpg,Purple_Circle_Dots_1.jpg,left,796,false,low,NA,NA,NA,NA,NA,NA,NA,false
Shmq1dHE,3087lxlj7ptluqx9bvztb5ithyq0fq,3lo69w1su7q6s6gk2awwgu6lyl7lgd,Shmq1dHE,2020-0188,2020-11-18,15:07:54,15:33:44,NA,incomplete,50,color,0,left,Purple_Circle_Chess_4.jpg,Purple_Plus_Stripes_2.jpg,Blue_Star_Dots_4.jpg,right,652,false,low,NA,NA,NA,NA,NA,NA,NA,false
Shmq1dHE,3087lxlj7ptluqx9bvztb5ithyq0fq,3lo69w1su7q6s6gk2awwgu6lyl7lgd,Shmq1dHE,2020-0188,2020-11-18,15:07:54,15:33:44,NA,incomplete,51,color,1,left,Red_Circle_Chess_1.jpg,Red_Star_Stripes_4.jpg,Purple_Triangle_Grid_1.jpg,right,800,false,low,NA,NA,NA,NA,NA,NA,NA,false
Shmq1dHE,3087lxlj7ptluqx9bvztb5ithyq0fq,3lo69w1su7q6s6gk2awwgu6lyl7lgd,Shmq1dHE,2020-0188,2020-11-18,15:07:54,15:33:44,NA,incomplete,52,color,1,right,Green_Star_Stripes_3.jpg,Red_Circle_Chess_3.jpg,Green_Triangle_Dots_2.jpg,left,848,false,low,NA,NA,NA,NA,NA,NA,NA,false
Shmq1dHE,3087lxlj7ptluqx9bvztb5ithyq0fq,3lo69w1su7q6s6gk2awwgu6lyl7lgd,Shmq1dHE,2020-0188,2020-11-18,15:07:54,15:33:44,NA,incomplete,53,color,1,left,Blue_Star_Dots_4.jpg,Blue_Plus_Chess_2.jpg,Red_Triangle_Grid_4.jpg,left,590,true,low,NA,NA,NA,NA,NA,NA,NA,false
Shmq1dHE,3087lxlj7ptluqx9bvztb5ithyq0fq,3lo69w1su7q6s6gk2awwgu6lyl7lgd,Shmq1dHE,2020-0188,2020-11-18,15:07:54,15:33:44,NA,incomplete,54,color,1,left,Blue_Triangle_Chess_3.jpg,Blue_Circle_Dots_2.jpg,Purple_Star_Grid_3.jpg,left,800,true,low,NA,NA,NA,NA,NA,NA,NA,false
Shmq1dHE,3087lxlj7ptluqx9bvztb5ithyq0fq,3lo69w1su7q6s6gk2awwgu6lyl7lgd,Shmq1dHE,2020-0188,2020-11-18,15:07:54,15:33:44,NA,incomplete,55,color,1,left,Blue_Plus_Chess_2.jpg,Blue_Circle_Dots_1.jpg,Red_Star_Grid_2.jpg,left,623,true,low,NA,NA,NA,NA,NA,NA,NA,false
Shmq1dHE,3087lxlj7ptluqx9bvztb5ithyq0fq,3lo69w1su7q6s6gk2awwgu6lyl7lgd,Shmq1dHE,2020-0188,2020-11-18,15:07:54,15:33:44,NA,incomplete,56,color,1,left,Green_Triangle_Grid_4.jpg,Green_Plus_Dots_1.jpg,Blue_Star_Chess_4.jpg,left,629,true,low,NA,NA,NA,NA,NA,NA,NA,false
Shmq1dHE,3087lxlj7ptluqx9bvztb5ithyq0fq,3lo69w1su7q6s6gk2awwgu6lyl7lgd,Shmq1dHE,2020-0188,2020-11-18,15:07:54,15:33:44,NA,incomplete,57,color,1,right,Red_Plus_Dots_4.jpg,Purple_Circle_Stripes_4.jpg,Red_Triangle_Grid_1.jpg,right,461,true,low,NA,NA,NA,NA,NA,NA,NA,false
Shmq1dHE,3087lxlj7ptluqx9bvztb5ithyq0fq,3lo69w1su7q6s6gk2awwgu6lyl7lgd,Shmq1dHE,2020-0188,2020-11-18,15:07:54,15:33:44,NA,incomplete,58,color,1,right,Green_Plus_Chess_3.jpg,Purple_Triangle_Dots_3.jpg,Green_Star_Grid_4.jpg,right,548,true,low,NA,NA,NA,NA,NA,NA,NA,false
Shmq1dHE,3087lxlj7ptluqx9bvztb5ithyq0fq,3lo69w1su7q6s6gk2awwgu6lyl7lgd,Shmq1dHE,2020-0188,2020-11-18,15:07:54,15:33:44,NA,incomplete,59,color,1,left,Blue_Plus_Grid_4.jpg,Blue_Star_Chess_2.jpg,Red_Circle_Dots_4.jpg,left,861,true,low,NA,NA,NA,NA,NA,NA,NA,false
Shmq1dHE,3087lxlj7ptluqx9bvztb5ithyq0fq,3lo69w1su7q6s6gk2awwgu6lyl7lgd,Shmq1dHE,2020-0188,2020-11-18,15:07:54,15:33:44,NA,incomplete,60,number,1,right,Blue_Plus_Grid_4.jpg,Blue_Circle_Dots_1.jpg,Red_Triangle_Chess_4.jpg,left,924,false,low,NA,NA,NA,NA,NA,NA,NA,false
Shmq1dHE,3087lxlj7ptluqx9bvztb5ithyq0fq,3lo69w1su7q6s6gk2awwgu6lyl7lgd,Shmq1dHE,2020-0188,2020-11-18,15:07:54,15:33:44,NA,incomplete,61,number,0,left,Green_Plus_Grid_2.jpg,Red_Star_Dots_2.jpg,Green_Circle_Chess_1.jpg,left,822,true,low,NA,NA,NA,NA,NA,NA,NA,false
Shmq1dHE,3087lxlj7ptluqx9bvztb5ithyq0fq,3lo69w1su7q6s6gk2awwgu6lyl7lgd,Shmq1dHE,2020-0188,2020-11-18,15:07:54,15:33:44,NA,incomplete,62,number,0,left,Red_Triangle_Chess_3.jpg,Blue_Circle_Dots_3.jpg,Red_Plus_Grid_1.jpg,right,957,false,low,NA,NA,NA,NA,NA,NA,NA,false
Shmq1dHE,3087lxlj7ptluqx9bvztb5ithyq0fq,3lo69w1su7q6s6gk2awwgu6lyl7lgd,Shmq1dHE,2020-0188,2020-11-18,15:07:54,15:33:44,NA,incomplete,63,number,1,right,Blue_Star_Grid_3.jpg,Blue_Triangle_Stripes_1.jpg,Green_Plus_Dots_3.jpg,left,676,false,low,NA,NA,NA,NA,NA,NA,NA,false
Shmq1dHE,3087lxlj7ptluqx9bvztb5ithyq0fq,3lo69w1su7q6s6gk2awwgu6lyl7lgd,Shmq1dHE,2020-0188,2020-11-18,15:07:54,15:33:44,NA,incomplete,64,number,1,right,Purple_Plus_Chess_4.jpg,Purple_Triangle_Grid_1.jpg,Green_Star_Dots_4.jpg,right,563,true,low,NA,NA,NA,NA,NA,NA,NA,false
Shmq1dHE,3087lxlj7ptluqx9bvztb5ithyq0fq,3lo69w1su7q6s6gk2awwgu6lyl7lgd,Shmq1dHE,2020-0188,2020-11-18,15:07:54,15:33:44,NA,incomplete,65,number,0,right,Purple_Circle_Stripes_3.jpg,Purple_Star_Dots_1.jpg,Blue_Triangle_Grid_3.jpg,left,926,false,low,NA,NA,NA,NA,NA,NA,NA,false
Shmq1dHE,3087lxlj7ptluqx9bvztb5ithyq0fq,3lo69w1su7q6s6gk2awwgu6lyl7lgd,Shmq1dHE,2020-0188,2020-11-18,15:07:54,15:33:44,NA,incomplete,66,number,1,right,Blue_Triangle_Chess_4.jpg,Blue_Star_Stripes_1.jpg,Green_Circle_Dots_4.jpg,right,741,true,low,NA,NA,NA,NA,NA,NA,NA,false
Shmq1dHE,3087lxlj7ptluqx9bvztb5ithyq0fq,3lo69w1su7q6s6gk2awwgu6lyl7lgd,Shmq1dHE,2020-0188,2020-11-18,15:07:54,15:33:44,NA,incomplete,67,number,1,right,Blue_Plus_Grid_1.jpg,Blue_Circle_Dots_3.jpg,Green_Star_Chess_1.jpg,right,723,true,low,NA,NA,NA,NA,NA,NA,NA,false
Shmq1dHE,3087lxlj7ptluqx9bvztb5ithyq0fq,3lo69w1su7q6s6gk2awwgu6lyl7lgd,Shmq1dHE,2020-0188,2020-11-18,15:07:54,15:33:44,NA,incomplete,68,number,1,left,Green_Triangle_Dots_3.jpg,Red_Circle_Stripes_3.jpg,Green_Plus_Chess_1.jpg,left,632,true,low,NA,NA,NA,NA,NA,NA,NA,false
Shmq1dHE,3087lxlj7ptluqx9bvztb5ithyq0fq,3lo69w1su7q6s6gk2awwgu6lyl7lgd,Shmq1dHE,2020-0188,2020-11-18,15:07:54,15:33:44,NA,incomplete,69,number,1,right,Green_Circle_Grid_4.jpg,Green_Triangle_Dots_2.jpg,Purple_Star_Stripes_4.jpg,right,647,true,low,NA,NA,NA,NA,NA,NA,NA,false
Shmq1dHE,3087lxlj7ptluqx9bvztb5ithyq0fq,3lo69w1su7q6s6gk2awwgu6lyl7lgd,Shmq1dHE,2020-0188,2020-11-18,15:07:54,15:33:44,NA,incomplete,70,number,1,left,Green_Plus_Chess_3.jpg,Purple_Star_Dots_3.jpg,Green_Circle_Stripes_4.jpg,left,764,true,low,NA,NA,NA,NA,NA,NA,NA,false
Shmq1dHE,3087lxlj7ptluqx9bvztb5ithyq0fq,3lo69w1su7q6s6gk2awwgu6lyl7lgd,Shmq1dHE,2020-0188,2020-11-18,15:07:54,15:33:44,NA,incomplete,71,number,1,right,Purple_Plus_Stripes_3.jpg,Purple_Star_Dots_2.jpg,Green_Triangle_Grid_3.jpg,right,623,true,low,NA,NA,NA,NA,NA,NA,NA,false
Shmq1dHE,3087lxlj7ptluqx9bvztb5ithyq0fq,3lo69w1su7q6s6gk2awwgu6lyl7lgd,Shmq1dHE,2020-0188,2020-11-18,15:07:54,15:33:44,NA,incomplete,72,number,0,right,Purple_Triangle_Dots_4.jpg,Purple_Star_Stripes_2.jpg,Red_Plus_Grid_4.jpg,right,822,true,low,NA,NA,NA,NA,NA,NA,NA,false
Shmq1dHE,3087lxlj7ptluqx9bvztb5ithyq0fq,3lo69w1su7q6s6gk2awwgu6lyl7lgd,Shmq1dHE,2020-0188,2020-11-18,15:07:54,15:33:44,NA,incomplete,73,number,1,left,Blue_Plus_Dots_1.jpg,Purple_Circle_Chess_1.jpg,Blue_Star_Grid_4.jpg,left,749,true,low,NA,NA,NA,NA,NA,NA,NA,false
Shmq1dHE,3087lxlj7ptluqx9bvztb5ithyq0fq,3lo69w1su7q6s6gk2awwgu6lyl7lgd,Shmq1dHE,2020-0188,2020-11-18,15:07:54,15:33:44,NA,incomplete,74,number,1,right,Blue_Star_Stripes_4.jpg,Blue_Circle_Chess_1.jpg,Green_Plus_Grid_4.jpg,right,634,true,low,NA,NA,NA,NA,NA,NA,NA,false
Shmq1dHE,3087lxlj7ptluqx9bvztb5ithyq0fq,3lo69w1su7q6s6gk2awwgu6lyl7lgd,Shmq1dHE,2020-0188,2020-11-18,15:07:54,15:33:44,NA,incomplete,75,number,0,right,Blue_Plus_Chess_2.jpg,Blue_Circle_Dots_4.jpg,Green_Star_Grid_2.jpg,right,815,true,low,NA,NA,NA,NA,NA,NA,NA,false
Shmq1dHE,3087lxlj7ptluqx9bvztb5ithyq0fq,3lo69w1su7q6s6gk2awwgu6lyl7lgd,Shmq1dHE,2020-0188,2020-11-18,15:07:54,15:33:44,NA,incomplete,76,number,1,left,Purple_Triangle_Dots_3.jpg,Blue_Star_Grid_3.jpg,Purple_Circle_Stripes_1.jpg,left,861,true,low,NA,NA,NA,NA,NA,NA,NA,false
Shmq1dHE,3087lxlj7ptluqx9bvztb5ithyq0fq,3lo69w1su7q6s6gk2awwgu6lyl7lgd,Shmq1dHE,2020-0188,2020-11-18,15:07:54,15:33:44,NA,incomplete,77,number,1,left,Blue_Circle_Grid_1.jpg,Green_Star_Stripes_1.jpg,Blue_Plus_Chess_4.jpg,left,657,true,low,NA,NA,NA,NA,NA,NA,NA,false
Shmq1dHE,3087lxlj7ptluqx9bvztb5ithyq0fq,3lo69w1su7q6s6gk2awwgu6lyl7lgd,Shmq1dHE,2020-0188,2020-11-18,15:07:54,15:33:44,NA,incomplete,78,number,1,left,Blue_Circle_Dots_3.jpg,Purple_Star_Chess_3.jpg,Blue_Plus_Grid_2.jpg,left,760,true,low,NA,NA,NA,NA,NA,NA,NA,false
Shmq1dHE,3087lxlj7ptluqx9bvztb5ithyq0fq,3lo69w1su7q6s6gk2awwgu6lyl7lgd,Shmq1dHE,2020-0188,2020-11-18,15:07:54,15:33:44,NA,incomplete,79,number,1,left,Purple_Star_Stripes_1.jpg,Green_Circle_Grid_1.jpg,Purple_Plus_Dots_2.jpg,left,877,true,low,NA,NA,NA,NA,NA,NA,NA,false
Shmq1dHE,3087lxlj7ptluqx9bvztb5ithyq0fq,3lo69w1su7q6s6gk2awwgu6lyl7lgd,Shmq1dHE,2020-0188,2020-11-18,15:07:54,15:33:44,NA,incomplete,80,number,1,right,Blue_Triangle_Dots_2.jpg,Blue_Plus_Grid_3.jpg,Purple_Circle_Chess_2.jpg,right,665,true,low,NA,NA,NA,NA,NA,NA,NA,false
Shmq1dHE,3087lxlj7ptluqx9bvztb5ithyq0fq,3lo69w1su7q6s6gk2awwgu6lyl7lgd,Shmq1dHE,2020-0188,2020-11-18,15:07:54,15:33:44,NA,incomplete,81,number,1,right,Green_Circle_Stripes_1.jpg,Green_Star_Grid_3.jpg,Blue_Plus_Dots_1.jpg,left,756,false,low,NA,NA,NA,NA,NA,NA,NA,false
Shmq1dHE,3087lxlj7ptluqx9bvztb5ithyq0fq,3lo69w1su7q6s6gk2awwgu6lyl7lgd,Shmq1dHE,2020-0188,2020-11-18,15:07:54,15:33:44,NA,incomplete,82,number,0,right,Purple_Triangle_Dots_2.jpg,Purple_Circle_Chess_4.jpg,Blue_Plus_Stripes_2.jpg,right,634,true,low,NA,NA,NA,NA,NA,NA,NA,false
Shmq1dHE,3087lxlj7ptluqx9bvztb5ithyq0fq,3lo69w1su7q6s6gk2awwgu6lyl7lgd,Shmq1dHE,2020-0188,2020-11-18,15:07:54,15:33:44,NA,incomplete,83,number,1,right,Green_Circle_Chess_1.jpg,Green_Star_Grid_3.jpg,Red_Triangle_Dots_1.jpg,left,541,false,low,NA,NA,NA,NA,NA,NA,NA,false
Shmq1dHE,3087lxlj7ptluqx9bvztb5ithyq0fq,3lo69w1su7q6s6gk2awwgu6lyl7lgd,Shmq1dHE,2020-0188,2020-11-18,15:07:54,15:33:44,NA,incomplete,84,number,0,right,Green_Circle_Stripes_1.jpg,Green_Star_Dots_3.jpg,Purple_Plus_Chess_1.jpg,right,622,true,low,NA,NA,NA,NA,NA,NA,NA,false
Shmq1dHE,3087lxlj7ptluqx9bvztb5ithyq0fq,3lo69w1su7q6s6gk2awwgu6lyl7lgd,Shmq1dHE,2020-0188,2020-11-18,15:07:54,15:33:44,NA,incomplete,85,number,1,left,Purple_Circle_Dots_3.jpg,Red_Plus_Chess_3.jpg,Purple_Star_Stripes_1.jpg,right,889,false,low,NA,NA,NA,NA,NA,NA,NA,false
Shmq1dHE,3087lxlj7ptluqx9bvztb5ithyq0fq,3lo69w1su7q6s6gk2awwgu6lyl7lgd,Shmq1dHE,2020-0188,2020-11-18,15:07:54,15:33:44,NA,incomplete,86,number,1,left,Purple_Plus_Dots_3.jpg,Blue_Star_Chess_3.jpg,Purple_Triangle_Grid_1.jpg,left,661,true,low,NA,NA,NA,NA,NA,NA,NA,false
Shmq1dHE,3087lxlj7ptluqx9bvztb5ithyq0fq,3lo69w1su7q6s6gk2awwgu6lyl7lgd,Shmq1dHE,2020-0188,2020-11-18,15:07:54,15:33:44,NA,incomplete,87,number,1,left,Green_Triangle_Dots_2.jpg,Purple_Star_Chess_2.jpg,Green_Plus_Grid_4.jpg,left,664,true,low,NA,NA,NA,NA,NA,NA,NA,false
Shmq1dHE,3087lxlj7ptluqx9bvztb5ithyq0fq,3lo69w1su7q6s6gk2awwgu6lyl7lgd,Shmq1dHE,2020-0188,2020-11-18,15:07:54,15:33:44,NA,incomplete,88,number,1,right,Blue_Star_Grid_1.jpg,Blue_Circle_Chess_3.jpg,Purple_Triangle_Dots_1.jpg,right,770,true,low,NA,NA,NA,NA,NA,NA,NA,false
Shmq1dHE,3087lxlj7ptluqx9bvztb5ithyq0fq,3lo69w1su7q6s6gk2awwgu6lyl7lgd,Shmq1dHE,2020-0188,2020-11-18,15:07:54,15:33:44,NA,incomplete,89,number,1,left,Red_Circle_Chess_1.jpg,Green_Triangle_Grid_1.jpg,Red_Plus_Stripes_4.jpg,left,942,true,low,NA,NA,NA,NA,NA,NA,NA,false
Shmq1dHE,3087lxlj7ptluqx9bvztb5ithyq0fq,3lo69w1su7q6s6gk2awwgu6lyl7lgd,Shmq1dHE,2020-0188,2020-11-18,15:07:54,15:33:44,NA,incomplete,90,color,1,right,Red_Star_Dots_2.jpg,Green_Triangle_Chess_2.jpg,Red_Circle_Grid_4.jpg,left,840,false,low,NA,NA,NA,NA,NA,NA,NA,false
Shmq1dHE,3087lxlj7ptluqx9bvztb5ithyq0fq,3lo69w1su7q6s6gk2awwgu6lyl7lgd,Shmq1dHE,2020-0188,2020-11-18,15:07:54,15:33:44,NA,incomplete,91,color,1,right,Green_Triangle_Grid_1.jpg,Purple_Star_Chess_1.jpg,Green_Circle_Dots_4.jpg,right,728,true,low,NA,NA,NA,NA,NA,NA,NA,false
Shmq1dHE,3087lxlj7ptluqx9bvztb5ithyq0fq,3lo69w1su7q6s6gk2awwgu6lyl7lgd,Shmq1dHE,2020-0188,2020-11-18,15:07:54,15:33:44,NA,incomplete,92,color,1,right,Purple_Star_Dots_4.jpg,Red_Triangle_Stripes_4.jpg,Purple_Plus_Grid_2.jpg,right,750,true,low,NA,NA,NA,NA,NA,NA,NA,false
Shmq1dHE,3087lxlj7ptluqx9bvztb5ithyq0fq,3lo69w1su7q6s6gk2awwgu6lyl7lgd,Shmq1dHE,2020-0188,2020-11-18,15:07:54,15:33:44,NA,incomplete,93,color,1,right,Green_Plus_Chess_2.jpg,Purple_Triangle_Grid_2.jpg,Green_Circle_Stripes_1.jpg,right,899,true,low,NA,NA,NA,NA,NA,NA,NA,false
Shmq1dHE,3087lxlj7ptluqx9bvztb5ithyq0fq,3lo69w1su7q6s6gk2awwgu6lyl7lgd,Shmq1dHE,2020-0188,2020-11-18,15:07:54,15:33:44,NA,incomplete,94,color,1,left,Blue_Star_Chess_3.jpg,Blue_Plus_Dots_4.jpg,Red_Triangle_Grid_3.jpg,left,560,true,low,NA,NA,NA,NA,NA,NA,NA,false
Shmq1dHE,3087lxlj7ptluqx9bvztb5ithyq0fq,3lo69w1su7q6s6gk2awwgu6lyl7lgd,Shmq1dHE,2020-0188,2020-11-18,15:07:54,15:33:44,NA,incomplete,95,color,1,right,Green_Plus_Grid_3.jpg,Blue_Star_Chess_3.jpg,Green_Circle_Stripes_4.jpg,right,567,true,low,NA,NA,NA,NA,NA,NA,NA,false
Shmq1dHE,3087lxlj7ptluqx9bvztb5ithyq0fq,3lo69w1su7q6s6gk2awwgu6lyl7lgd,Shmq1dHE,2020-0188,2020-11-18,15:07:54,15:33:44,NA,incomplete,96,color,1,right,Blue_Plus_Chess_3.jpg,Red_Circle_Grid_3.jpg,Blue_Triangle_Stripes_4.jpg,right,438,true,low,NA,NA,NA,NA,NA,NA,NA,false
Shmq1dHE,3087lxlj7ptluqx9bvztb5ithyq0fq,3lo69w1su7q6s6gk2awwgu6lyl7lgd,Shmq1dHE,2020-0188,2020-11-18,15:07:54,15:33:44,NA,incomplete,97,color,1,right,Green_Triangle_Dots_2.jpg,Blue_Star_Stripes_2.jpg,Green_Plus_Grid_4.jpg,right,619,true,low,NA,NA,NA,NA,NA,NA,NA,false
Shmq1dHE,3087lxlj7ptluqx9bvztb5ithyq0fq,3lo69w1su7q6s6gk2awwgu6lyl7lgd,Shmq1dHE,2020-0188,2020-11-18,15:07:54,15:33:44,NA,incomplete,98,color,1,right,Red_Circle_Stripes_4.jpg,Purple_Plus_Dots_4.jpg,Red_Star_Grid_2.jpg,right,1217,true,low,NA,NA,NA,NA,NA,NA,NA,false
Shmq1dHE,3087lxlj7ptluqx9bvztb5ithyq0fq,3lo69w1su7q6s6gk2awwgu6lyl7lgd,Shmq1dHE,2020-0188,2020-11-18,15:07:54,15:33:44,NA,incomplete,99,color,1,left,Green_Plus_Chess_4.jpg,Green_Star_Stripes_1.jpg,Red_Circle_Dots_4.jpg,left,604,true,low,NA,NA,NA,NA,NA,NA,NA,false
Shmq1dHE,3087lxlj7ptluqx9bvztb5ithyq0fq,3lo69w1su7q6s6gk2awwgu6lyl7lgd,Shmq1dHE,2020-0188,2020-11-18,15:07:54,15:33:44,NA,incomplete,100,color,1,left,Blue_Triangle_Dots_3.jpg,Blue_Plus_Chess_1.jpg,Red_Circle_Grid_3.jpg,left,519,true,low,NA,NA,NA,NA,NA,NA,NA,false
Shmq1dHE,3087lxlj7ptluqx9bvztb5ithyq0fq,3lo69w1su7q6s6gk2awwgu6lyl7lgd,Shmq1dHE,2020-0188,2020-11-18,15:07:54,15:33:44,NA,incomplete,101,color,1,right,Blue_Circle_Stripes_2.jpg,Red_Star_Grid_2.jpg,Blue_Triangle_Chess_3.jpg,right,480,true,low,NA,NA,NA,NA,NA,NA,NA,false
Shmq1dHE,3087lxlj7ptluqx9bvztb5ithyq0fq,3lo69w1su7q6s6gk2awwgu6lyl7lgd,Shmq1dHE,2020-0188,2020-11-18,15:07:54,15:33:44,NA,incomplete,102,color,1,left,Blue_Triangle_Stripes_1.jpg,Blue_Plus_Dots_3.jpg,Purple_Star_Grid_1.jpg,left,538,true,low,NA,NA,NA,NA,NA,NA,NA,false
Shmq1dHE,3087lxlj7ptluqx9bvztb5ithyq0fq,3lo69w1su7q6s6gk2awwgu6lyl7lgd,Shmq1dHE,2020-0188,2020-11-18,15:07:54,15:33:44,NA,incomplete,103,color,1,right,Purple_Star_Chess_4.jpg,Red_Triangle_Grid_4.jpg,Purple_Circle_Dots_1.jpg,right,547,true,low,NA,NA,NA,NA,NA,NA,NA,false
Shmq1dHE,3087lxlj7ptluqx9bvztb5ithyq0fq,3lo69w1su7q6s6gk2awwgu6lyl7lgd,Shmq1dHE,2020-0188,2020-11-18,15:07:54,15:33:44,NA,incomplete,104,color,1,left,Green_Plus_Grid_2.jpg,Green_Triangle_Chess_3.jpg,Blue_Star_Dots_2.jpg,left,622,true,low,NA,NA,NA,NA,NA,NA,NA,false
Shmq1dHE,3087lxlj7ptluqx9bvztb5ithyq0fq,3lo69w1su7q6s6gk2awwgu6lyl7lgd,Shmq1dHE,2020-0188,2020-11-18,15:07:54,15:33:44,NA,incomplete,105,color,1,left,Red_Circle_Stripes_2.jpg,Red_Plus_Dots_4.jpg,Blue_Triangle_Grid_2.jpg,left,743,true,low,NA,NA,NA,NA,NA,NA,NA,false
Shmq1dHE,3087lxlj7ptluqx9bvztb5ithyq0fq,3lo69w1su7q6s6gk2awwgu6lyl7lgd,Shmq1dHE,2020-0188,2020-11-18,15:07:54,15:33:44,NA,incomplete,106,color,1,left,Red_Triangle_Stripes_2.jpg,Red_Star_Grid_4.jpg,Purple_Circle_Chess_2.jpg,left,489,true,low,NA,NA,NA,NA,NA,NA,NA,false
Shmq1dHE,3087lxlj7ptluqx9bvztb5ithyq0fq,3lo69w1su7q6s6gk2awwgu6lyl7lgd,Shmq1dHE,2020-0188,2020-11-18,15:07:54,15:33:44,NA,incomplete,107,color,1,right,Blue_Circle_Chess_3.jpg,Purple_Triangle_Grid_3.jpg,Blue_Star_Stripes_1.jpg,right,876,true,low,NA,NA,NA,NA,NA,NA,NA,false
Shmq1dHE,3087lxlj7ptluqx9bvztb5ithyq0fq,3lo69w1su7q6s6gk2awwgu6lyl7lgd,Shmq1dHE,2020-0188,2020-11-18,15:07:54,15:33:44,NA,incomplete,108,color,1,right,Purple_Plus_Stripes_2.jpg,Blue_Triangle_Grid_2.jpg,Purple_Circle_Dots_1.jpg,right,489,true,low,NA,NA,NA,NA,NA,NA,NA,false
Shmq1dHE,3087lxlj7ptluqx9bvztb5ithyq0fq,3lo69w1su7q6s6gk2awwgu6lyl7lgd,Shmq1dHE,2020-0188,2020-11-18,15:07:54,15:33:44,NA,incomplete,109,color,1,right,Blue_Triangle_Chess_2.jpg,Green_Star_Grid_2.jpg,Blue_Circle_Stripes_1.jpg,right,497,true,low,NA,NA,NA,NA,NA,NA,NA,false
Shmq1dHE,3087lxlj7ptluqx9bvztb5ithyq0fq,3lo69w1su7q6s6gk2awwgu6lyl7lgd,Shmq1dHE,2020-0188,2020-11-18,15:07:54,15:33:44,NA,incomplete,110,color,1,left,Green_Star_Grid_3.jpg,Green_Plus_Stripes_4.jpg,Purple_Circle_Dots_3.jpg,left,839,true,low,NA,NA,NA,NA,NA,NA,NA,false
Shmq1dHE,3087lxlj7ptluqx9bvztb5ithyq0fq,3lo69w1su7q6s6gk2awwgu6lyl7lgd,Shmq1dHE,2020-0188,2020-11-18,15:07:54,15:33:44,NA,incomplete,111,color,0,left,Purple_Triangle_Chess_2.jpg,Purple_Plus_Dots_4.jpg,Green_Star_Stripes_2.jpg,left,738,true,low,NA,NA,NA,NA,NA,NA,NA,false
Shmq1dHE,3087lxlj7ptluqx9bvztb5ithyq0fq,3lo69w1su7q6s6gk2awwgu6lyl7lgd,Shmq1dHE,2020-0188,2020-11-18,15:07:54,15:33:44,NA,incomplete,112,color,1,right,Green_Triangle_Grid_3.jpg,Red_Star_Stripes_3.jpg,Green_Circle_Chess_4.jpg,left,787,false,low,NA,NA,NA,NA,NA,NA,NA,false
Shmq1dHE,3087lxlj7ptluqx9bvztb5ithyq0fq,3lo69w1su7q6s6gk2awwgu6lyl7lgd,Shmq1dHE,2020-0188,2020-11-18,15:07:54,15:33:44,NA,incomplete,113,color,0,left,Green_Triangle_Chess_2.jpg,Green_Star_Dots_1.jpg,Purple_Circle_Stripes_2.jpg,left,616,true,low,NA,NA,NA,NA,NA,NA,NA,false
Shmq1dHE,3087lxlj7ptluqx9bvztb5ithyq0fq,3lo69w1su7q6s6gk2awwgu6lyl7lgd,Shmq1dHE,2020-0188,2020-11-18,15:07:54,15:33:44,NA,incomplete,114,color,1,left,Blue_Circle_Chess_4.jpg,Blue_Triangle_Dots_2.jpg,Purple_Plus_Stripes_4.jpg,right,676,false,low,NA,NA,NA,NA,NA,NA,NA,false
Shmq1dHE,3087lxlj7ptluqx9bvztb5ithyq0fq,3lo69w1su7q6s6gk2awwgu6lyl7lgd,Shmq1dHE,2020-0188,2020-11-18,15:07:54,15:33:44,NA,incomplete,115,color,0,right,Purple_Circle_Chess_4.jpg,Green_Plus_Dots_4.jpg,Purple_Triangle_Grid_3.jpg,left,863,false,low,NA,NA,NA,NA,NA,NA,NA,false
Shmq1dHE,3087lxlj7ptluqx9bvztb5ithyq0fq,3lo69w1su7q6s6gk2awwgu6lyl7lgd,Shmq1dHE,2020-0188,2020-11-18,15:07:54,15:33:44,NA,incomplete,116,color,0,left,Red_Circle_Grid_2.jpg,Red_Plus_Stripes_3.jpg,Green_Star_Chess_2.jpg,right,1169,false,low,NA,NA,NA,NA,NA,NA,NA,false
Shmq1dHE,3087lxlj7ptluqx9bvztb5ithyq0fq,3lo69w1su7q6s6gk2awwgu6lyl7lgd,Shmq1dHE,2020-0188,2020-11-18,15:07:54,15:33:44,NA,incomplete,117,color,0,right,Green_Plus_Chess_2.jpg,Red_Circle_Grid_2.jpg,Green_Triangle_Stripes_1.jpg,left,799,false,low,NA,NA,NA,NA,NA,NA,NA,false
Shmq1dHE,3087lxlj7ptluqx9bvztb5ithyq0fq,3lo69w1su7q6s6gk2awwgu6lyl7lgd,Shmq1dHE,2020-0188,2020-11-18,15:07:54,15:33:44,NA,incomplete,118,color,1,right,Purple_Star_Stripes_4.jpg,Red_Triangle_Chess_4.jpg,Purple_Plus_Dots_2.jpg,left,1067,false,low,NA,NA,NA,NA,NA,NA,NA,false
Shmq1dHE,3087lxlj7ptluqx9bvztb5ithyq0fq,3lo69w1su7q6s6gk2awwgu6lyl7lgd,Shmq1dHE,2020-0188,2020-11-18,15:07:54,15:33:44,NA,incomplete,119,color,1,left,Blue_Plus_Chess_3.jpg,Blue_Star_Stripes_2.jpg,Green_Circle_Dots_3.jpg,right,687,false,low,NA,NA,NA,NA,NA,NA,NA,false
Shmq1dHE,3087lxlj7ptluqx9bvztb5ithyq0fq,3lo69w1su7q6s6gk2awwgu6lyl7lgd,Shmq1dHE,2020-0188,2020-11-18,15:07:54,15:33:44,NA,incomplete,120,filling,1,right,Green_Star_Grid_2.jpg,Blue_Star_Dots_4.jpg,Purple_Plus_Grid_3.jpg,left,935,false,low,NA,NA,NA,NA,NA,NA,NA,false
Shmq1dHE,3087lxlj7ptluqx9bvztb5ithyq0fq,3lo69w1su7q6s6gk2awwgu6lyl7lgd,Shmq1dHE,2020-0188,2020-11-18,15:07:54,15:33:44,NA,incomplete,121,filling,0,left,Green_Triangle_Stripes_1.jpg,Red_Circle_Stripes_2.jpg,Purple_Triangle_Dots_4.jpg,right,918,false,low,NA,NA,NA,NA,NA,NA,NA,false
Shmq1dHE,3087lxlj7ptluqx9bvztb5ithyq0fq,3lo69w1su7q6s6gk2awwgu6lyl7lgd,Shmq1dHE,2020-0188,2020-11-18,15:07:54,15:33:44,NA,incomplete,122,filling,1,right,Purple_Circle_Grid_4.jpg,Blue_Circle_Stripes_1.jpg,Red_Plus_Grid_3.jpg,left,1185,false,low,NA,NA,NA,NA,NA,NA,NA,false
Shmq1dHE,3087lxlj7ptluqx9bvztb5ithyq0fq,3lo69w1su7q6s6gk2awwgu6lyl7lgd,Shmq1dHE,2020-0188,2020-11-18,15:07:54,15:33:44,NA,incomplete,123,filling,1,left,Red_Circle_Stripes_3.jpg,Purple_Star_Stripes_4.jpg,Blue_Circle_Chess_2.jpg,right,1113,false,low,NA,NA,NA,NA,NA,NA,NA,false
Shmq1dHE,3087lxlj7ptluqx9bvztb5ithyq0fq,3lo69w1su7q6s6gk2awwgu6lyl7lgd,Shmq1dHE,2020-0188,2020-11-18,15:07:54,15:33:44,NA,incomplete,124,filling,0,right,Green_Star_Dots_4.jpg,Purple_Star_Chess_3.jpg,Blue_Triangle_Dots_2.jpg,left,1109,false,low,NA,NA,NA,NA,NA,NA,NA,false
Shmq1dHE,3087lxlj7ptluqx9bvztb5ithyq0fq,3lo69w1su7q6s6gk2awwgu6lyl7lgd,Shmq1dHE,2020-0188,2020-11-18,15:07:54,15:33:44,NA,incomplete,125,filling,1,left,Red_Plus_Chess_1.jpg,Purple_Circle_Chess_3.jpg,Blue_Plus_Grid_4.jpg,right,906,false,low,NA,NA,NA,NA,NA,NA,NA,false
Shmq1dHE,3087lxlj7ptluqx9bvztb5ithyq0fq,3lo69w1su7q6s6gk2awwgu6lyl7lgd,Shmq1dHE,2020-0188,2020-11-18,15:07:54,15:33:44,NA,incomplete,126,filling,0,right,Green_Triangle_Grid_3.jpg,Red_Triangle_Dots_2.jpg,Blue_Circle_Grid_4.jpg,right,797,true,low,NA,NA,NA,NA,NA,NA,NA,false
Shmq1dHE,3087lxlj7ptluqx9bvztb5ithyq0fq,3lo69w1su7q6s6gk2awwgu6lyl7lgd,Shmq1dHE,2020-0188,2020-11-18,15:07:54,15:33:44,NA,incomplete,127,filling,1,right,Purple_Triangle_Grid_4.jpg,Blue_Triangle_Dots_2.jpg,Green_Star_Grid_3.jpg,left,1271,false,low,NA,NA,NA,NA,NA,NA,NA,false
Shmq1dHE,3087lxlj7ptluqx9bvztb5ithyq0fq,3lo69w1su7q6s6gk2awwgu6lyl7lgd,Shmq1dHE,2020-0188,2020-11-18,15:07:54,15:33:44,NA,incomplete,128,filling,1,right,Blue_Star_Dots_2.jpg,Purple_Star_Stripes_3.jpg,Red_Triangle_Dots_1.jpg,right,1256,true,low,NA,NA,NA,NA,NA,NA,NA,false
Shmq1dHE,3087lxlj7ptluqx9bvztb5ithyq0fq,3lo69w1su7q6s6gk2awwgu6lyl7lgd,Shmq1dHE,2020-0188,2020-11-18,15:07:54,15:33:44,NA,incomplete,129,filling,1,right,Green_Circle_Grid_4.jpg,Blue_Circle_Stripes_3.jpg,Red_Plus_Grid_2.jpg,left,1099,false,low,NA,NA,NA,NA,NA,NA,NA,false
Shmq1dHE,3087lxlj7ptluqx9bvztb5ithyq0fq,3lo69w1su7q6s6gk2awwgu6lyl7lgd,Shmq1dHE,2020-0188,2020-11-18,15:07:54,15:33:44,NA,incomplete,130,filling,1,right,Green_Star_Dots_4.jpg,Blue_Star_Stripes_3.jpg,Red_Circle_Dots_1.jpg,right,1274,true,low,NA,NA,NA,NA,NA,NA,NA,false
Shmq1dHE,3087lxlj7ptluqx9bvztb5ithyq0fq,3lo69w1su7q6s6gk2awwgu6lyl7lgd,Shmq1dHE,2020-0188,2020-11-18,15:07:54,15:33:44,NA,incomplete,131,filling,1,left,Purple_Circle_Stripes_3.jpg,Green_Plus_Stripes_4.jpg,Blue_Circle_Chess_2.jpg,left,1020,true,low,NA,NA,NA,NA,NA,NA,NA,false
Shmq1dHE,3087lxlj7ptluqx9bvztb5ithyq0fq,3lo69w1su7q6s6gk2awwgu6lyl7lgd,Shmq1dHE,2020-0188,2020-11-18,15:07:54,15:33:44,NA,incomplete,132,filling,1,left,Red_Star_Chess_3.jpg,Green_Plus_Chess_4.jpg,Purple_Star_Dots_2.jpg,left,1197,true,low,NA,NA,NA,NA,NA,NA,NA,false
Shmq1dHE,3087lxlj7ptluqx9bvztb5ithyq0fq,3lo69w1su7q6s6gk2awwgu6lyl7lgd,Shmq1dHE,2020-0188,2020-11-18,15:07:54,15:33:44,NA,incomplete,133,filling,1,left,Red_Triangle_Dots_2.jpg,Blue_Star_Dots_1.jpg,Purple_Triangle_Chess_3.jpg,right,974,false,low,NA,NA,NA,NA,NA,NA,NA,false
Shmq1dHE,3087lxlj7ptluqx9bvztb5ithyq0fq,3lo69w1su7q6s6gk2awwgu6lyl7lgd,Shmq1dHE,2020-0188,2020-11-18,15:07:54,15:33:44,NA,incomplete,134,filling,1,left,Red_Circle_Dots_2.jpg,Blue_Star_Dots_1.jpg,Purple_Circle_Chess_3.jpg,left,1144,true,low,NA,NA,NA,NA,NA,NA,NA,false
Shmq1dHE,3087lxlj7ptluqx9bvztb5ithyq0fq,3lo69w1su7q6s6gk2awwgu6lyl7lgd,Shmq1dHE,2020-0188,2020-11-18,15:07:54,15:33:44,NA,incomplete,135,filling,1,left,Green_Star_Stripes_1.jpg,Red_Circle_Stripes_4.jpg,Purple_Star_Chess_2.jpg,left,872,true,low,NA,NA,NA,NA,NA,NA,NA,false
Shmq1dHE,3087lxlj7ptluqx9bvztb5ithyq0fq,3lo69w1su7q6s6gk2awwgu6lyl7lgd,Shmq1dHE,2020-0188,2020-11-18,15:07:54,15:33:44,NA,incomplete,136,filling,0,right,Red_Triangle_Grid_4.jpg,Purple_Triangle_Stripes_1.jpg,Green_Plus_Grid_3.jpg,right,968,true,low,NA,NA,NA,NA,NA,NA,NA,false
Shmq1dHE,3087lxlj7ptluqx9bvztb5ithyq0fq,3lo69w1su7q6s6gk2awwgu6lyl7lgd,Shmq1dHE,2020-0188,2020-11-18,15:07:54,15:33:44,NA,incomplete,137,filling,1,right,Purple_Star_Stripes_2.jpg,Blue_Star_Dots_1.jpg,Red_Plus_Stripes_3.jpg,left,665,false,low,NA,NA,NA,NA,NA,NA,NA,false
Shmq1dHE,3087lxlj7ptluqx9bvztb5ithyq0fq,3lo69w1su7q6s6gk2awwgu6lyl7lgd,Shmq1dHE,2020-0188,2020-11-18,15:07:54,15:33:44,NA,incomplete,138,filling,0,right,Purple_Triangle_Grid_1.jpg,Green_Triangle_Dots_3.jpg,Red_Star_Grid_2.jpg,right,955,true,low,NA,NA,NA,NA,NA,NA,NA,false
Shmq1dHE,3087lxlj7ptluqx9bvztb5ithyq0fq,3lo69w1su7q6s6gk2awwgu6lyl7lgd,Shmq1dHE,2020-0188,2020-11-18,15:07:54,15:33:44,NA,incomplete,139,filling,1,left,Green_Plus_Stripes_1.jpg,Red_Circle_Stripes_3.jpg,Blue_Plus_Grid_2.jpg,left,890,true,low,NA,NA,NA,NA,NA,NA,NA,false
Shmq1dHE,3087lxlj7ptluqx9bvztb5ithyq0fq,3lo69w1su7q6s6gk2awwgu6lyl7lgd,Shmq1dHE,2020-0188,2020-11-18,15:07:54,15:33:44,NA,incomplete,140,shape,1,left,Green_Circle_Dots_1.jpg,Blue_Circle_Grid_4.jpg,Red_Plus_Dots_2.jpg,right,1040,false,low,NA,NA,NA,NA,NA,NA,NA,false
Shmq1dHE,3087lxlj7ptluqx9bvztb5ithyq0fq,3lo69w1su7q6s6gk2awwgu6lyl7lgd,Shmq1dHE,2020-0188,2020-11-18,15:07:54,15:33:44,NA,incomplete,141,shape,1,left,Blue_Star_Dots_2.jpg,Green_Star_Stripes_4.jpg,Red_Triangle_Dots_1.jpg,left,916,true,low,NA,NA,NA,NA,NA,NA,NA,false
Shmq1dHE,3087lxlj7ptluqx9bvztb5ithyq0fq,3lo69w1su7q6s6gk2awwgu6lyl7lgd,Shmq1dHE,2020-0188,2020-11-18,15:07:54,15:33:44,NA,incomplete,142,shape,0,right,Purple_Circle_Dots_3.jpg,Green_Triangle_Dots_2.jpg,Red_Circle_Chess_4.jpg,right,1032,true,low,NA,NA,NA,NA,NA,NA,NA,false
Shmq1dHE,3087lxlj7ptluqx9bvztb5ithyq0fq,3lo69w1su7q6s6gk2awwgu6lyl7lgd,Shmq1dHE,2020-0188,2020-11-18,15:07:54,15:33:44,NA,incomplete,143,shape,1,right,Blue_Circle_Dots_2.jpg,Purple_Triangle_Dots_1.jpg,Green_Circle_Chess_3.jpg,left,971,false,low,NA,NA,NA,NA,NA,NA,NA,false
Shmq1dHE,3087lxlj7ptluqx9bvztb5ithyq0fq,3lo69w1su7q6s6gk2awwgu6lyl7lgd,Shmq1dHE,2020-0188,2020-11-18,15:07:54,15:33:44,NA,incomplete,144,shape,1,right,Red_Star_Dots_4.jpg,Green_Plus_Dots_3.jpg,Purple_Star_Stripes_2.jpg,right,1027,true,low,NA,NA,NA,NA,NA,NA,NA,false
Shmq1dHE,3087lxlj7ptluqx9bvztb5ithyq0fq,3lo69w1su7q6s6gk2awwgu6lyl7lgd,Shmq1dHE,2020-0188,2020-11-18,15:07:54,15:33:44,NA,incomplete,145,shape,1,right,Green_Plus_Chess_4.jpg,Blue_Star_Chess_1.jpg,Red_Plus_Dots_3.jpg,left,1160,false,low,NA,NA,NA,NA,NA,NA,NA,false
Shmq1dHE,3087lxlj7ptluqx9bvztb5ithyq0fq,3lo69w1su7q6s6gk2awwgu6lyl7lgd,Shmq1dHE,2020-0188,2020-11-18,15:07:54,15:33:44,NA,incomplete,146,shape,1,right,Purple_Triangle_Chess_1.jpg,Red_Star_Chess_2.jpg,Green_Triangle_Stripes_4.jpg,right,236,true,low,NA,NA,NA,NA,NA,NA,NA,false
Shmq1dHE,3087lxlj7ptluqx9bvztb5ithyq0fq,3lo69w1su7q6s6gk2awwgu6lyl7lgd,Shmq1dHE,2020-0188,2020-11-18,15:07:54,15:33:44,NA,incomplete,147,shape,1,right,Red_Plus_Stripes_1.jpg,Purple_Triangle_Stripes_4.jpg,Blue_Plus_Grid_2.jpg,left,876,false,low,NA,NA,NA,NA,NA,NA,NA,false
Shmq1dHE,3087lxlj7ptluqx9bvztb5ithyq0fq,3lo69w1su7q6s6gk2awwgu6lyl7lgd,Shmq1dHE,2020-0188,2020-11-18,15:07:54,15:33:44,NA,incomplete,148,shape,1,left,Red_Plus_Chess_1.jpg,Blue_Plus_Dots_4.jpg,Green_Star_Chess_3.jpg,right,240,false,low,NA,NA,NA,NA,NA,NA,NA,false
Shmq1dHE,3087lxlj7ptluqx9bvztb5ithyq0fq,3lo69w1su7q6s6gk2awwgu6lyl7lgd,Shmq1dHE,2020-0188,2020-11-18,15:07:54,15:33:44,NA,incomplete,149,shape,1,left,Blue_Triangle_Stripes_2.jpg,Green_Triangle_Chess_3.jpg,Purple_Star_Stripes_4.jpg,right,679,false,low,NA,NA,NA,NA,NA,NA,NA,false
Shmq1dHE,3087lxlj7ptluqx9bvztb5ithyq0fq,3lo69w1su7q6s6gk2awwgu6lyl7lgd,Shmq1dHE,2020-0188,2020-11-18,15:07:54,15:33:44,NA,incomplete,150,shape,0,right,Green_Star_Chess_2.jpg,Red_Plus_Chess_1.jpg,Blue_Star_Grid_4.jpg,left,1068,false,low,NA,NA,NA,NA,NA,NA,NA,false
Shmq1dHE,3087lxlj7ptluqx9bvztb5ithyq0fq,3lo69w1su7q6s6gk2awwgu6lyl7lgd,Shmq1dHE,2020-0188,2020-11-18,15:07:54,15:33:44,NA,incomplete,151,shape,1,right,Red_Plus_Grid_3.jpg,Blue_Star_Grid_1.jpg,Purple_Plus_Chess_2.jpg,left,1097,false,low,NA,NA,NA,NA,NA,NA,NA,false
Shmq1dHE,3087lxlj7ptluqx9bvztb5ithyq0fq,3lo69w1su7q6s6gk2awwgu6lyl7lgd,Shmq1dHE,2020-0188,2020-11-18,15:07:54,15:33:44,NA,incomplete,152,shape,1,right,Blue_Star_Dots_1.jpg,Purple_Plus_Dots_2.jpg,Red_Star_Grid_4.jpg,right,891,true,low,NA,NA,NA,NA,NA,NA,NA,false
Shmq1dHE,3087lxlj7ptluqx9bvztb5ithyq0fq,3lo69w1su7q6s6gk2awwgu6lyl7lgd,Shmq1dHE,2020-0188,2020-11-18,15:07:54,15:33:44,NA,incomplete,153,shape,0,right,Purple_Circle_Chess_3.jpg,Red_Plus_Chess_2.jpg,Blue_Circle_Grid_1.jpg,right,1035,true,low,NA,NA,NA,NA,NA,NA,NA,false
Shmq1dHE,3087lxlj7ptluqx9bvztb5ithyq0fq,3lo69w1su7q6s6gk2awwgu6lyl7lgd,Shmq1dHE,2020-0188,2020-11-18,15:07:54,15:33:44,NA,incomplete,154,shape,1,right,Blue_Triangle_Dots_1.jpg,Red_Plus_Dots_4.jpg,Green_Triangle_Chess_3.jpg,right,1003,true,low,NA,NA,NA,NA,NA,NA,NA,false
Shmq1dHE,3087lxlj7ptluqx9bvztb5ithyq0fq,3lo69w1su7q6s6gk2awwgu6lyl7lgd,Shmq1dHE,2020-0188,2020-11-18,15:07:54,15:33:44,NA,incomplete,155,shape,1,right,Green_Circle_Chess_2.jpg,Red_Plus_Chess_4.jpg,Blue_Circle_Stripes_1.jpg,right,709,true,low,NA,NA,NA,NA,NA,NA,NA,false
Shmq1dHE,3087lxlj7ptluqx9bvztb5ithyq0fq,3lo69w1su7q6s6gk2awwgu6lyl7lgd,Shmq1dHE,2020-0188,2020-11-18,15:07:54,15:33:44,NA,incomplete,156,shape,1,left,Blue_Plus_Grid_2.jpg,Green_Plus_Chess_1.jpg,Purple_Triangle_Grid_3.jpg,left,827,true,low,NA,NA,NA,NA,NA,NA,NA,false
Shmq1dHE,3087lxlj7ptluqx9bvztb5ithyq0fq,3lo69w1su7q6s6gk2awwgu6lyl7lgd,Shmq1dHE,2020-0188,2020-11-18,15:07:54,15:33:44,NA,incomplete,157,shape,1,right,Purple_Plus_Stripes_2.jpg,Blue_Star_Stripes_4.jpg,Red_Plus_Chess_1.jpg,right,806,true,low,NA,NA,NA,NA,NA,NA,NA,false
Shmq1dHE,3087lxlj7ptluqx9bvztb5ithyq0fq,3lo69w1su7q6s6gk2awwgu6lyl7lgd,Shmq1dHE,2020-0188,2020-11-18,15:07:54,15:33:44,NA,incomplete,158,shape,1,right,Purple_Plus_Grid_4.jpg,Red_Star_Grid_2.jpg,Green_Plus_Chess_1.jpg,right,872,true,low,NA,NA,NA,NA,NA,NA,NA,false
Shmq1dHE,3087lxlj7ptluqx9bvztb5ithyq0fq,3lo69w1su7q6s6gk2awwgu6lyl7lgd,Shmq1dHE,2020-0188,2020-11-18,15:07:54,15:33:44,NA,incomplete,159,shape,1,left,Red_Star_Dots_3.jpg,Purple_Star_Stripes_2.jpg,Blue_Triangle_Dots_4.jpg,left,848,true,low,NA,NA,NA,NA,NA,NA,NA,false
Shmq1dHE,3087lxlj7ptluqx9bvztb5ithyq0fq,3lo69w1su7q6s6gk2awwgu6lyl7lgd,Shmq1dHE,2020-0188,2020-11-18,15:07:54,15:33:44,NA,incomplete,160,filling,1,left,Green_Star_Chess_1.jpg,Purple_Circle_Chess_2.jpg,Blue_Star_Stripes_4.jpg,right,758,false,low,NA,NA,NA,NA,NA,NA,NA,false
Shmq1dHE,3087lxlj7ptluqx9bvztb5ithyq0fq,3lo69w1su7q6s6gk2awwgu6lyl7lgd,Shmq1dHE,2020-0188,2020-11-18,15:07:54,15:33:44,NA,incomplete,161,filling,0,right,Purple_Star_Grid_1.jpg,Green_Star_Chess_3.jpg,Red_Circle_Grid_2.jpg,left,1010,false,low,NA,NA,NA,NA,NA,NA,NA,false
Shmq1dHE,3087lxlj7ptluqx9bvztb5ithyq0fq,3lo69w1su7q6s6gk2awwgu6lyl7lgd,Shmq1dHE,2020-0188,2020-11-18,15:07:54,15:33:44,NA,incomplete,162,filling,1,left,Blue_Triangle_Stripes_3.jpg,Red_Star_Stripes_1.jpg,Purple_Triangle_Chess_2.jpg,right,665,false,low,NA,NA,NA,NA,NA,NA,NA,false
Shmq1dHE,3087lxlj7ptluqx9bvztb5ithyq0fq,3lo69w1su7q6s6gk2awwgu6lyl7lgd,Shmq1dHE,2020-0188,2020-11-18,15:07:54,15:33:44,NA,incomplete,163,filling,0,right,Red_Triangle_Chess_1.jpg,Purple_Triangle_Dots_3.jpg,Green_Circle_Chess_4.jpg,right,814,true,low,NA,NA,NA,NA,NA,NA,NA,false
Shmq1dHE,3087lxlj7ptluqx9bvztb5ithyq0fq,3lo69w1su7q6s6gk2awwgu6lyl7lgd,Shmq1dHE,2020-0188,2020-11-18,15:07:54,15:33:44,NA,incomplete,164,filling,1,right,Red_Star_Stripes_2.jpg,Blue_Star_Grid_4.jpg,Purple_Circle_Stripes_1.jpg,left,694,false,low,NA,NA,NA,NA,NA,NA,NA,false
Shmq1dHE,3087lxlj7ptluqx9bvztb5ithyq0fq,3lo69w1su7q6s6gk2awwgu6lyl7lgd,Shmq1dHE,2020-0188,2020-11-18,15:07:54,15:33:44,NA,incomplete,165,filling,1,left,Red_Star_Grid_3.jpg,Purple_Plus_Grid_4.jpg,Blue_Star_Stripes_2.jpg,left,967,true,low,NA,NA,NA,NA,NA,NA,NA,false
Shmq1dHE,3087lxlj7ptluqx9bvztb5ithyq0fq,3lo69w1su7q6s6gk2awwgu6lyl7lgd,Shmq1dHE,2020-0188,2020-11-18,15:07:54,15:33:44,NA,incomplete,166,filling,1,left,Red_Circle_Stripes_4.jpg,Blue_Plus_Stripes_3.jpg,Green_Circle_Dots_2.jpg,left,961,true,low,NA,NA,NA,NA,NA,NA,NA,false
Shmq1dHE,3087lxlj7ptluqx9bvztb5ithyq0fq,3lo69w1su7q6s6gk2awwgu6lyl7lgd,Shmq1dHE,2020-0188,2020-11-18,15:07:54,15:33:44,NA,incomplete,167,filling,1,left,Blue_Circle_Chess_4.jpg,Green_Star_Chess_3.jpg,Purple_Circle_Stripes_1.jpg,left,840,true,low,NA,NA,NA,NA,NA,NA,NA,false
Shmq1dHE,3087lxlj7ptluqx9bvztb5ithyq0fq,3lo69w1su7q6s6gk2awwgu6lyl7lgd,Shmq1dHE,2020-0188,2020-11-18,15:07:54,15:33:44,NA,incomplete,168,filling,0,right,Green_Circle_Grid_4.jpg,Red_Circle_Dots_1.jpg,Purple_Triangle_Grid_3.jpg,right,766,true,low,NA,NA,NA,NA,NA,NA,NA,false
Shmq1dHE,3087lxlj7ptluqx9bvztb5ithyq0fq,3lo69w1su7q6s6gk2awwgu6lyl7lgd,Shmq1dHE,2020-0188,2020-11-18,15:07:54,15:33:44,NA,incomplete,169,filling,1,right,Purple_Triangle_Grid_3.jpg,Green_Triangle_Chess_4.jpg,Blue_Circle_Grid_2.jpg,left,1025,false,low,NA,NA,NA,NA,NA,NA,NA,false
Shmq1dHE,3087lxlj7ptluqx9bvztb5ithyq0fq,3lo69w1su7q6s6gk2awwgu6lyl7lgd,Shmq1dHE,2020-0188,2020-11-18,15:07:54,15:33:44,NA,incomplete,170,filling,1,left,Purple_Star_Chess_2.jpg,Blue_Plus_Chess_1.jpg,Green_Star_Stripes_4.jpg,left,1001,true,low,NA,NA,NA,NA,NA,NA,NA,false
Shmq1dHE,3087lxlj7ptluqx9bvztb5ithyq0fq,3lo69w1su7q6s6gk2awwgu6lyl7lgd,Shmq1dHE,2020-0188,2020-11-18,15:07:54,15:33:44,NA,incomplete,171,filling,1,right,Purple_Circle_Grid_4.jpg,Green_Circle_Chess_1.jpg,Blue_Triangle_Grid_3.jpg,right,855,true,low,NA,NA,NA,NA,NA,NA,NA,false
Shmq1dHE,3087lxlj7ptluqx9bvztb5ithyq0fq,3lo69w1su7q6s6gk2awwgu6lyl7lgd,Shmq1dHE,2020-0188,2020-11-18,15:07:54,15:33:44,NA,incomplete,172,filling,1,right,Green_Plus_Stripes_3.jpg,Red_Plus_Chess_2.jpg,Blue_Circle_Stripes_1.jpg,right,973,true,low,NA,NA,NA,NA,NA,NA,NA,false
Shmq1dHE,3087lxlj7ptluqx9bvztb5ithyq0fq,3lo69w1su7q6s6gk2awwgu6lyl7lgd,Shmq1dHE,2020-0188,2020-11-18,15:07:54,15:33:44,NA,incomplete,173,filling,1,left,Purple_Triangle_Dots_2.jpg,Green_Star_Dots_1.jpg,Red_Triangle_Stripes_3.jpg,left,932,true,low,NA,NA,NA,NA,NA,NA,NA,false
Shmq1dHE,3087lxlj7ptluqx9bvztb5ithyq0fq,3lo69w1su7q6s6gk2awwgu6lyl7lgd,Shmq1dHE,2020-0188,2020-11-18,15:07:54,15:33:44,NA,incomplete,174,filling,0,left,Purple_Circle_Dots_2.jpg,Blue_Star_Dots_3.jpg,Green_Circle_Stripes_4.jpg,left,1041,true,low,NA,NA,NA,NA,NA,NA,NA,false
Shmq1dHE,3087lxlj7ptluqx9bvztb5ithyq0fq,3lo69w1su7q6s6gk2awwgu6lyl7lgd,Shmq1dHE,2020-0188,2020-11-18,15:07:54,15:33:44,NA,incomplete,175,filling,1,right,Blue_Plus_Dots_4.jpg,Purple_Plus_Chess_3.jpg,Green_Triangle_Dots_1.jpg,left,803,false,low,NA,NA,NA,NA,NA,NA,NA,false
Shmq1dHE,3087lxlj7ptluqx9bvztb5ithyq0fq,3lo69w1su7q6s6gk2awwgu6lyl7lgd,Shmq1dHE,2020-0188,2020-11-18,15:07:54,15:33:44,NA,incomplete,176,filling,0,left,Blue_Star_Grid_4.jpg,Green_Circle_Grid_1.jpg,Red_Star_Chess_2.jpg,left,881,true,low,NA,NA,NA,NA,NA,NA,NA,false
Shmq1dHE,3087lxlj7ptluqx9bvztb5ithyq0fq,3lo69w1su7q6s6gk2awwgu6lyl7lgd,Shmq1dHE,2020-0188,2020-11-18,15:07:54,15:33:44,NA,incomplete,177,filling,1,right,Blue_Circle_Chess_1.jpg,Green_Circle_Grid_2.jpg,Red_Star_Chess_4.jpg,left,757,false,low,NA,NA,NA,NA,NA,NA,NA,false
Shmq1dHE,3087lxlj7ptluqx9bvztb5ithyq0fq,3lo69w1su7q6s6gk2awwgu6lyl7lgd,Shmq1dHE,2020-0188,2020-11-18,15:07:54,15:33:44,NA,incomplete,178,filling,1,right,Blue_Plus_Stripes_4.jpg,Red_Plus_Grid_3.jpg,Green_Circle_Stripes_1.jpg,right,972,true,low,NA,NA,NA,NA,NA,NA,NA,false
Shmq1dHE,3087lxlj7ptluqx9bvztb5ithyq0fq,3lo69w1su7q6s6gk2awwgu6lyl7lgd,Shmq1dHE,2020-0188,2020-11-18,15:07:54,15:33:44,NA,incomplete,179,filling,0,right,Red_Triangle_Chess_2.jpg,Blue_Triangle_Stripes_1.jpg,Green_Star_Chess_4.jpg,right,907,true,low,NA,NA,NA,NA,NA,NA,NA,false
Shmq1dHE,3087lxlj7ptluqx9bvztb5ithyq0fq,3lo69w1su7q6s6gk2awwgu6lyl7lgd,Shmq1dHE,2020-0188,2020-11-18,15:07:54,15:33:44,NA,incomplete,180,shape,1,left,Green_Plus_Stripes_3.jpg,Red_Plus_Dots_4.jpg,Purple_Triangle_Stripes_1.jpg,left,660,true,low,NA,NA,NA,NA,NA,NA,NA,false
Shmq1dHE,3087lxlj7ptluqx9bvztb5ithyq0fq,3lo69w1su7q6s6gk2awwgu6lyl7lgd,Shmq1dHE,2020-0188,2020-11-18,15:07:54,15:33:44,NA,incomplete,181,shape,0,left,Red_Star_Dots_1.jpg,Green_Star_Chess_2.jpg,Blue_Triangle_Dots_4.jpg,left,812,true,low,NA,NA,NA,NA,NA,NA,NA,false
Shmq1dHE,3087lxlj7ptluqx9bvztb5ithyq0fq,3lo69w1su7q6s6gk2awwgu6lyl7lgd,Shmq1dHE,2020-0188,2020-11-18,15:07:54,15:33:44,NA,incomplete,182,shape,1,left,Green_Triangle_Grid_1.jpg,Blue_Triangle_Dots_4.jpg,Red_Plus_Grid_2.jpg,right,861,false,low,NA,NA,NA,NA,NA,NA,NA,false
Shmq1dHE,3087lxlj7ptluqx9bvztb5ithyq0fq,3lo69w1su7q6s6gk2awwgu6lyl7lgd,Shmq1dHE,2020-0188,2020-11-18,15:07:54,15:33:44,NA,incomplete,183,shape,1,left,Green_Star_Grid_4.jpg,Purple_Star_Chess_3.jpg,Red_Plus_Grid_2.jpg,right,894,false,low,NA,NA,NA,NA,NA,NA,NA,false
Shmq1dHE,3087lxlj7ptluqx9bvztb5ithyq0fq,3lo69w1su7q6s6gk2awwgu6lyl7lgd,Shmq1dHE,2020-0188,2020-11-18,15:07:54,15:33:44,NA,incomplete,184,shape,1,left,Blue_Circle_Dots_1.jpg,Purple_Circle_Stripes_2.jpg,Red_Star_Dots_4.jpg,left,826,true,low,NA,NA,NA,NA,NA,NA,NA,false
Shmq1dHE,3087lxlj7ptluqx9bvztb5ithyq0fq,3lo69w1su7q6s6gk2awwgu6lyl7lgd,Shmq1dHE,2020-0188,2020-11-18,15:07:54,15:33:44,NA,incomplete,185,shape,1,left,Purple_Triangle_Stripes_2.jpg,Red_Triangle_Chess_1.jpg,Blue_Star_Stripes_3.jpg,left,902,true,low,NA,NA,NA,NA,NA,NA,NA,false
Shmq1dHE,3087lxlj7ptluqx9bvztb5ithyq0fq,3lo69w1su7q6s6gk2awwgu6lyl7lgd,Shmq1dHE,2020-0188,2020-11-18,15:07:54,15:33:44,NA,incomplete,186,shape,0,right,Purple_Star_Stripes_3.jpg,Green_Circle_Stripes_4.jpg,Red_Star_Chess_1.jpg,right,812,true,low,NA,NA,NA,NA,NA,NA,NA,false
Shmq1dHE,3087lxlj7ptluqx9bvztb5ithyq0fq,3lo69w1su7q6s6gk2awwgu6lyl7lgd,Shmq1dHE,2020-0188,2020-11-18,15:07:54,15:33:44,NA,incomplete,187,shape,1,left,Purple_Plus_Grid_4.jpg,Blue_Plus_Chess_3.jpg,Green_Star_Grid_2.jpg,left,1052,true,low,NA,NA,NA,NA,NA,NA,NA,false
Shmq1dHE,3087lxlj7ptluqx9bvztb5ithyq0fq,3lo69w1su7q6s6gk2awwgu6lyl7lgd,Shmq1dHE,2020-0188,2020-11-18,15:07:54,15:33:44,NA,incomplete,188,shape,1,right,Green_Circle_Dots_3.jpg,Red_Star_Dots_2.jpg,Blue_Circle_Grid_4.jpg,left,1017,false,low,NA,NA,NA,NA,NA,NA,NA,false
Shmq1dHE,3087lxlj7ptluqx9bvztb5ithyq0fq,3lo69w1su7q6s6gk2awwgu6lyl7lgd,Shmq1dHE,2020-0188,2020-11-18,15:07:54,15:33:44,NA,incomplete,189,shape,0,right,Red_Circle_Chess_1.jpg,Blue_Triangle_Chess_2.jpg,Green_Circle_Grid_3.jpg,right,672,true,low,NA,NA,NA,NA,NA,NA,NA,false
Shmq1dHE,3087lxlj7ptluqx9bvztb5ithyq0fq,3lo69w1su7q6s6gk2awwgu6lyl7lgd,Shmq1dHE,2020-0188,2020-11-18,15:07:54,15:33:44,NA,incomplete,190,shape,1,right,Red_Triangle_Stripes_2.jpg,Green_Star_Stripes_4.jpg,Purple_Triangle_Grid_1.jpg,left,993,false,low,NA,NA,NA,NA,NA,NA,NA,false
Shmq1dHE,3087lxlj7ptluqx9bvztb5ithyq0fq,3lo69w1su7q6s6gk2awwgu6lyl7lgd,Shmq1dHE,2020-0188,2020-11-18,15:07:54,15:33:44,NA,incomplete,191,shape,0,right,Blue_Triangle_Grid_3.jpg,Red_Circle_Grid_1.jpg,Purple_Triangle_Chess_2.jpg,left,1046,false,low,NA,NA,NA,NA,NA,NA,NA,false
Shmq1dHE,3087lxlj7ptluqx9bvztb5ithyq0fq,3lo69w1su7q6s6gk2awwgu6lyl7lgd,Shmq1dHE,2020-0188,2020-11-18,15:07:54,15:33:44,NA,incomplete,192,shape,1,left,Purple_Star_Chess_4.jpg,Green_Star_Dots_1.jpg,Red_Plus_Chess_2.jpg,right,920,false,low,NA,NA,NA,NA,NA,NA,NA,false
Shmq1dHE,3087lxlj7ptluqx9bvztb5ithyq0fq,3lo69w1su7q6s6gk2awwgu6lyl7lgd,Shmq1dHE,2020-0188,2020-11-18,15:07:54,15:33:44,NA,incomplete,193,shape,0,left,Purple_Plus_Grid_4.jpg,Red_Plus_Stripes_1.jpg,Blue_Triangle_Grid_2.jpg,right,1195,false,low,NA,NA,NA,NA,NA,NA,NA,false
Shmq1dHE,3087lxlj7ptluqx9bvztb5ithyq0fq,3lo69w1su7q6s6gk2awwgu6lyl7lgd,Shmq1dHE,2020-0188,2020-11-18,15:07:54,15:33:44,NA,incomplete,194,shape,1,right,Blue_Circle_Dots_4.jpg,Green_Plus_Dots_3.jpg,Red_Circle_Grid_1.jpg,right,1100,true,low,NA,NA,NA,NA,NA,NA,NA,false
Shmq1dHE,3087lxlj7ptluqx9bvztb5ithyq0fq,3lo69w1su7q6s6gk2awwgu6lyl7lgd,Shmq1dHE,2020-0188,2020-11-18,15:07:54,15:33:44,NA,incomplete,195,shape,1,right,Red_Plus_Dots_2.jpg,Purple_Triangle_Dots_3.jpg,Green_Plus_Grid_1.jpg,right,697,true,low,NA,NA,NA,NA,NA,NA,NA,false
Shmq1dHE,3087lxlj7ptluqx9bvztb5ithyq0fq,3lo69w1su7q6s6gk2awwgu6lyl7lgd,Shmq1dHE,2020-0188,2020-11-18,15:07:54,15:33:44,NA,incomplete,196,shape,1,right,Green_Star_Stripes_1.jpg,Purple_Circle_Stripes_3.jpg,Red_Star_Dots_2.jpg,right,736,true,low,NA,NA,NA,NA,NA,NA,NA,false
Shmq1dHE,3087lxlj7ptluqx9bvztb5ithyq0fq,3lo69w1su7q6s6gk2awwgu6lyl7lgd,Shmq1dHE,2020-0188,2020-11-18,15:07:54,15:33:44,NA,incomplete,197,shape,1,right,Green_Plus_Stripes_2.jpg,Purple_Star_Stripes_3.jpg,Blue_Plus_Chess_1.jpg,right,823,true,low,NA,NA,NA,NA,NA,NA,NA,false
Shmq1dHE,3087lxlj7ptluqx9bvztb5ithyq0fq,3lo69w1su7q6s6gk2awwgu6lyl7lgd,Shmq1dHE,2020-0188,2020-11-18,15:07:54,15:33:44,NA,incomplete,198,shape,0,left,Purple_Circle_Dots_4.jpg,Red_Circle_Grid_3.jpg,Blue_Plus_Dots_1.jpg,left,612,true,low,NA,NA,NA,NA,NA,NA,NA,false
Shmq1dHE,3087lxlj7ptluqx9bvztb5ithyq0fq,3lo69w1su7q6s6gk2awwgu6lyl7lgd,Shmq1dHE,2020-0188,2020-11-18,15:07:54,15:33:44,NA,incomplete,199,shape,1,right,Blue_Circle_Stripes_1.jpg,Green_Star_Stripes_4.jpg,Purple_Circle_Chess_3.jpg,left,831,false,low,NA,NA,NA,NA,NA,NA,NA,false
Shmq1dHE,3087lxlj7ptluqx9bvztb5ithyq0fq,3lo69w1su7q6s6gk2awwgu6lyl7lgd,Shmq1dHE,2020-0188,2020-11-18,15:07:54,15:33:44,NA,incomplete,200,filling,1,right,Red_Plus_Chess_2.jpg,Purple_Plus_Grid_4.jpg,Green_Triangle_Chess_3.jpg,right,924,true,low,NA,NA,NA,NA,NA,NA,NA,false
Shmq1dHE,3087lxlj7ptluqx9bvztb5ithyq0fq,3lo69w1su7q6s6gk2awwgu6lyl7lgd,Shmq1dHE,2020-0188,2020-11-18,15:07:54,15:33:44,NA,incomplete,201,filling,1,right,Green_Circle_Chess_1.jpg,Purple_Circle_Stripes_3.jpg,Red_Star_Chess_4.jpg,left,671,false,low,NA,NA,NA,NA,NA,NA,NA,false
Shmq1dHE,3087lxlj7ptluqx9bvztb5ithyq0fq,3lo69w1su7q6s6gk2awwgu6lyl7lgd,Shmq1dHE,2020-0188,2020-11-18,15:07:54,15:33:44,NA,incomplete,202,filling,1,right,Blue_Circle_Dots_1.jpg,Red_Circle_Grid_4.jpg,Purple_Triangle_Dots_2.jpg,right,800,true,low,NA,NA,NA,NA,NA,NA,NA,false
Shmq1dHE,3087lxlj7ptluqx9bvztb5ithyq0fq,3lo69w1su7q6s6gk2awwgu6lyl7lgd,Shmq1dHE,2020-0188,2020-11-18,15:07:54,15:33:44,NA,incomplete,203,filling,1,right,Red_Triangle_Chess_4.jpg,Green_Triangle_Stripes_1.jpg,Purple_Circle_Chess_2.jpg,right,762,true,low,NA,NA,NA,NA,NA,NA,NA,false
Shmq1dHE,3087lxlj7ptluqx9bvztb5ithyq0fq,3lo69w1su7q6s6gk2awwgu6lyl7lgd,Shmq1dHE,2020-0188,2020-11-18,15:07:54,15:33:44,NA,incomplete,204,filling,1,right,Red_Star_Stripes_2.jpg,Blue_Star_Chess_3.jpg,Green_Circle_Stripes_4.jpg,left,840,false,low,NA,NA,NA,NA,NA,NA,NA,false
Shmq1dHE,3087lxlj7ptluqx9bvztb5ithyq0fq,3lo69w1su7q6s6gk2awwgu6lyl7lgd,Shmq1dHE,2020-0188,2020-11-18,15:07:54,15:33:44,NA,incomplete,205,filling,1,left,Red_Plus_Dots_1.jpg,Purple_Star_Dots_3.jpg,Green_Plus_Stripes_2.jpg,right,994,false,low,NA,NA,NA,NA,NA,NA,NA,false
Shmq1dHE,3087lxlj7ptluqx9bvztb5ithyq0fq,3lo69w1su7q6s6gk2awwgu6lyl7lgd,Shmq1dHE,2020-0188,2020-11-18,15:07:54,15:33:44,NA,incomplete,206,filling,1,right,Green_Triangle_Grid_4.jpg,Blue_Triangle_Dots_3.jpg,Purple_Circle_Grid_2.jpg,right,922,true,low,NA,NA,NA,NA,NA,NA,NA,false
Shmq1dHE,3087lxlj7ptluqx9bvztb5ithyq0fq,3lo69w1su7q6s6gk2awwgu6lyl7lgd,Shmq1dHE,2020-0188,2020-11-18,15:07:54,15:33:44,NA,incomplete,207,filling,1,left,Blue_Plus_Grid_3.jpg,Purple_Star_Grid_4.jpg,Red_Plus_Chess_2.jpg,right,802,false,low,NA,NA,NA,NA,NA,NA,NA,false
Shmq1dHE,3087lxlj7ptluqx9bvztb5ithyq0fq,3lo69w1su7q6s6gk2awwgu6lyl7lgd,Shmq1dHE,2020-0188,2020-11-18,15:07:54,15:33:44,NA,incomplete,208,filling,1,right,Purple_Star_Chess_2.jpg,Red_Star_Grid_3.jpg,Blue_Plus_Chess_1.jpg,right,961,true,low,NA,NA,NA,NA,NA,NA,NA,false
Shmq1dHE,3087lxlj7ptluqx9bvztb5ithyq0fq,3lo69w1su7q6s6gk2awwgu6lyl7lgd,Shmq1dHE,2020-0188,2020-11-18,15:07:54,15:33:44,NA,incomplete,209,filling,0,left,Red_Triangle_Stripes_3.jpg,Blue_Star_Stripes_1.jpg,Green_Triangle_Chess_2.jpg,left,786,true,low,NA,NA,NA,NA,NA,NA,NA,false
Shmq1dHE,3087lxlj7ptluqx9bvztb5ithyq0fq,3lo69w1su7q6s6gk2awwgu6lyl7lgd,Shmq1dHE,2020-0188,2020-11-18,15:07:54,15:33:44,NA,incomplete,210,filling,1,left,Red_Circle_Dots_3.jpg,Blue_Plus_Dots_2.jpg,Purple_Circle_Stripes_1.jpg,right,611,false,low,NA,NA,NA,NA,NA,NA,NA,false
Shmq1dHE,3087lxlj7ptluqx9bvztb5ithyq0fq,3lo69w1su7q6s6gk2awwgu6lyl7lgd,Shmq1dHE,2020-0188,2020-11-18,15:07:54,15:33:44,NA,incomplete,211,filling,1,left,Red_Star_Grid_3.jpg,Blue_Triangle_Grid_2.jpg,Purple_Star_Dots_1.jpg,left,892,true,low,NA,NA,NA,NA,NA,NA,NA,false
Shmq1dHE,3087lxlj7ptluqx9bvztb5ithyq0fq,3lo69w1su7q6s6gk2awwgu6lyl7lgd,Shmq1dHE,2020-0188,2020-11-18,15:07:54,15:33:44,NA,incomplete,212,filling,1,right,Green_Plus_Grid_3.jpg,Red_Plus_Stripes_1.jpg,Blue_Triangle_Grid_4.jpg,right,958,true,low,NA,NA,NA,NA,NA,NA,NA,false
Shmq1dHE,3087lxlj7ptluqx9bvztb5ithyq0fq,3lo69w1su7q6s6gk2awwgu6lyl7lgd,Shmq1dHE,2020-0188,2020-11-18,15:07:54,15:33:44,NA,incomplete,213,filling,0,left,Green_Star_Chess_4.jpg,Red_Circle_Chess_1.jpg,Purple_Star_Stripes_2.jpg,left,1004,true,low,NA,NA,NA,NA,NA,NA,NA,false
Shmq1dHE,3087lxlj7ptluqx9bvztb5ithyq0fq,3lo69w1su7q6s6gk2awwgu6lyl7lgd,Shmq1dHE,2020-0188,2020-11-18,15:07:54,15:33:44,NA,incomplete,214,filling,1,right,Green_Plus_Grid_1.jpg,Red_Plus_Chess_2.jpg,Purple_Triangle_Grid_4.jpg,right,1033,true,low,NA,NA,NA,NA,NA,NA,NA,false
Shmq1dHE,3087lxlj7ptluqx9bvztb5ithyq0fq,3lo69w1su7q6s6gk2awwgu6lyl7lgd,Shmq1dHE,2020-0188,2020-11-18,15:07:54,15:33:44,NA,incomplete,215,filling,1,left,Blue_Plus_Chess_4.jpg,Purple_Circle_Chess_1.jpg,Green_Plus_Dots_3.jpg,left,1013,true,low,NA,NA,NA,NA,NA,NA,NA,false
Shmq1dHE,3087lxlj7ptluqx9bvztb5ithyq0fq,3lo69w1su7q6s6gk2awwgu6lyl7lgd,Shmq1dHE,2020-0188,2020-11-18,15:07:54,15:33:44,NA,incomplete,216,filling,1,right,Blue_Triangle_Grid_2.jpg,Red_Triangle_Stripes_1.jpg,Purple_Star_Grid_3.jpg,right,864,true,low,NA,NA,NA,NA,NA,NA,NA,false
Shmq1dHE,3087lxlj7ptluqx9bvztb5ithyq0fq,3lo69w1su7q6s6gk2awwgu6lyl7lgd,Shmq1dHE,2020-0188,2020-11-18,15:07:54,15:33:44,NA,incomplete,217,filling,1,right,Red_Triangle_Dots_1.jpg,Blue_Triangle_Stripes_4.jpg,Green_Star_Dots_2.jpg,right,940,true,low,NA,NA,NA,NA,NA,NA,NA,false
Shmq1dHE,3087lxlj7ptluqx9bvztb5ithyq0fq,3lo69w1su7q6s6gk2awwgu6lyl7lgd,Shmq1dHE,2020-0188,2020-11-18,15:07:54,15:33:44,NA,incomplete,218,filling,1,right,Blue_Star_Stripes_1.jpg,Purple_Star_Chess_2.jpg,Green_Circle_Stripes_4.jpg,right,835,true,low,NA,NA,NA,NA,NA,NA,NA,false
Shmq1dHE,3087lxlj7ptluqx9bvztb5ithyq0fq,3lo69w1su7q6s6gk2awwgu6lyl7lgd,Shmq1dHE,2020-0188,2020-11-18,15:07:54,15:33:44,NA,incomplete,219,filling,1,right,Green_Plus_Stripes_3.jpg,Red_Plus_Chess_1.jpg,Purple_Circle_Stripes_4.jpg,right,934,true,low,NA,NA,NA,NA,NA,NA,NA,false
Shmq1dHE,3087lxlj7ptluqx9bvztb5ithyq0fq,3lo69w1su7q6s6gk2awwgu6lyl7lgd,Shmq1dHE,2020-0188,2020-11-18,15:07:54,15:33:44,NA,incomplete,220,shape,1,right,Red_Star_Dots_2.jpg,Purple_Circle_Dots_3.jpg,Green_Star_Chess_4.jpg,left,875,false,low,NA,NA,NA,NA,NA,NA,NA,false
Shmq1dHE,3087lxlj7ptluqx9bvztb5ithyq0fq,3lo69w1su7q6s6gk2awwgu6lyl7lgd,Shmq1dHE,2020-0188,2020-11-18,15:07:54,15:33:44,NA,incomplete,221,shape,1,left,Purple_Plus_Stripes_1.jpg,Blue_Plus_Chess_2.jpg,Green_Star_Stripes_4.jpg,left,905,true,low,NA,NA,NA,NA,NA,NA,NA,false
Shmq1dHE,3087lxlj7ptluqx9bvztb5ithyq0fq,3lo69w1su7q6s6gk2awwgu6lyl7lgd,Shmq1dHE,2020-0188,2020-11-18,15:07:54,15:33:44,NA,incomplete,222,shape,1,left,Green_Triangle_Stripes_1.jpg,Purple_Triangle_Chess_4.jpg,Blue_Plus_Stripes_3.jpg,left,729,true,low,NA,NA,NA,NA,NA,NA,NA,false
Shmq1dHE,3087lxlj7ptluqx9bvztb5ithyq0fq,3lo69w1su7q6s6gk2awwgu6lyl7lgd,Shmq1dHE,2020-0188,2020-11-18,15:07:54,15:33:44,NA,incomplete,223,shape,1,left,Green_Circle_Grid_4.jpg,Blue_Circle_Dots_1.jpg,Purple_Star_Grid_2.jpg,right,894,false,low,NA,NA,NA,NA,NA,NA,NA,false
Shmq1dHE,3087lxlj7ptluqx9bvztb5ithyq0fq,3lo69w1su7q6s6gk2awwgu6lyl7lgd,Shmq1dHE,2020-0188,2020-11-18,15:07:54,15:33:44,NA,incomplete,224,shape,1,left,Purple_Triangle_Dots_3.jpg,Red_Triangle_Grid_2.jpg,Green_Star_Dots_1.jpg,left,624,true,low,NA,NA,NA,NA,NA,NA,NA,false
Shmq1dHE,3087lxlj7ptluqx9bvztb5ithyq0fq,3lo69w1su7q6s6gk2awwgu6lyl7lgd,Shmq1dHE,2020-0188,2020-11-18,15:07:54,15:33:44,NA,incomplete,225,shape,1,left,Purple_Triangle_Grid_4.jpg,Green_Triangle_Dots_2.jpg,Blue_Plus_Grid_1.jpg,left,579,true,low,NA,NA,NA,NA,NA,NA,NA,false
Shmq1dHE,3087lxlj7ptluqx9bvztb5ithyq0fq,3lo69w1su7q6s6gk2awwgu6lyl7lgd,Shmq1dHE,2020-0188,2020-11-18,15:07:54,15:33:44,NA,incomplete,226,shape,1,right,Blue_Star_Chess_1.jpg,Purple_Circle_Chess_2.jpg,Green_Star_Dots_4.jpg,right,721,true,low,NA,NA,NA,NA,NA,NA,NA,false
Shmq1dHE,3087lxlj7ptluqx9bvztb5ithyq0fq,3lo69w1su7q6s6gk2awwgu6lyl7lgd,Shmq1dHE,2020-0188,2020-11-18,15:07:54,15:33:44,NA,incomplete,227,shape,1,left,Red_Plus_Grid_3.jpg,Green_Plus_Stripes_1.jpg,Blue_Triangle_Grid_2.jpg,left,1085,true,low,NA,NA,NA,NA,NA,NA,NA,false
Shmq1dHE,3087lxlj7ptluqx9bvztb5ithyq0fq,3lo69w1su7q6s6gk2awwgu6lyl7lgd,Shmq1dHE,2020-0188,2020-11-18,15:07:54,15:33:44,NA,incomplete,228,shape,0,right,Blue_Circle_Dots_3.jpg,Red_Star_Dots_2.jpg,Purple_Circle_Chess_1.jpg,right,594,true,low,NA,NA,NA,NA,NA,NA,NA,false
Shmq1dHE,3087lxlj7ptluqx9bvztb5ithyq0fq,3lo69w1su7q6s6gk2awwgu6lyl7lgd,Shmq1dHE,2020-0188,2020-11-18,15:07:54,15:33:44,NA,incomplete,229,shape,1,right,Green_Triangle_Grid_2.jpg,Red_Plus_Grid_4.jpg,Blue_Triangle_Dots_1.jpg,left,1101,false,low,NA,NA,NA,NA,NA,NA,NA,false
Shmq1dHE,3087lxlj7ptluqx9bvztb5ithyq0fq,3lo69w1su7q6s6gk2awwgu6lyl7lgd,Shmq1dHE,2020-0188,2020-11-18,15:07:54,15:33:44,NA,incomplete,230,shape,1,left,Purple_Circle_Stripes_2.jpg,Red_Circle_Grid_1.jpg,Blue_Star_Stripes_4.jpg,right,937,false,low,NA,NA,NA,NA,NA,NA,NA,false
Shmq1dHE,3087lxlj7ptluqx9bvztb5ithyq0fq,3lo69w1su7q6s6gk2awwgu6lyl7lgd,Shmq1dHE,2020-0188,2020-11-18,15:07:54,15:33:44,NA,incomplete,231,shape,1,left,Purple_Circle_Grid_1.jpg,Green_Circle_Stripes_2.jpg,Blue_Triangle_Grid_3.jpg,right,905,false,low,NA,NA,NA,NA,NA,NA,NA,false
Shmq1dHE,3087lxlj7ptluqx9bvztb5ithyq0fq,3lo69w1su7q6s6gk2awwgu6lyl7lgd,Shmq1dHE,2020-0188,2020-11-18,15:07:54,15:33:44,NA,incomplete,232,shape,1,right,Red_Plus_Chess_3.jpg,Purple_Star_Chess_1.jpg,Blue_Plus_Stripes_2.jpg,right,759,true,low,NA,NA,NA,NA,NA,NA,NA,false
Shmq1dHE,3087lxlj7ptluqx9bvztb5ithyq0fq,3lo69w1su7q6s6gk2awwgu6lyl7lgd,Shmq1dHE,2020-0188,2020-11-18,15:07:54,15:33:44,NA,incomplete,233,shape,1,left,Purple_Star_Stripes_3.jpg,Blue_Star_Grid_2.jpg,Red_Circle_Stripes_1.jpg,left,606,true,low,NA,NA,NA,NA,NA,NA,NA,false
Shmq1dHE,3087lxlj7ptluqx9bvztb5ithyq0fq,3lo69w1su7q6s6gk2awwgu6lyl7lgd,Shmq1dHE,2020-0188,2020-11-18,15:07:54,15:33:44,NA,incomplete,234,shape,0,right,Red_Triangle_Dots_4.jpg,Blue_Circle_Dots_1.jpg,Green_Triangle_Stripes_2.jpg,right,525,true,low,NA,NA,NA,NA,NA,NA,NA,false
Shmq1dHE,3087lxlj7ptluqx9bvztb5ithyq0fq,3lo69w1su7q6s6gk2awwgu6lyl7lgd,Shmq1dHE,2020-0188,2020-11-18,15:07:54,15:33:44,NA,incomplete,235,shape,1,right,Blue_Triangle_Dots_4.jpg,Red_Circle_Dots_3.jpg,Purple_Triangle_Grid_2.jpg,left,974,false,low,NA,NA,NA,NA,NA,NA,NA,false
Shmq1dHE,3087lxlj7ptluqx9bvztb5ithyq0fq,3lo69w1su7q6s6gk2awwgu6lyl7lgd,Shmq1dHE,2020-0188,2020-11-18,15:07:54,15:33:44,NA,incomplete,236,shape,1,right,Blue_Plus_Grid_1.jpg,Green_Triangle_Grid_4.jpg,Red_Plus_Chess_3.jpg,left,1142,false,low,NA,NA,NA,NA,NA,NA,NA,false
Shmq1dHE,3087lxlj7ptluqx9bvztb5ithyq0fq,3lo69w1su7q6s6gk2awwgu6lyl7lgd,Shmq1dHE,2020-0188,2020-11-18,15:07:54,15:33:44,NA,incomplete,237,shape,1,right,Purple_Triangle_Grid_1.jpg,Green_Circle_Grid_3.jpg,Red_Triangle_Dots_4.jpg,right,638,true,low,NA,NA,NA,NA,NA,NA,NA,false
Shmq1dHE,3087lxlj7ptluqx9bvztb5ithyq0fq,3lo69w1su7q6s6gk2awwgu6lyl7lgd,Shmq1dHE,2020-0188,2020-11-18,15:07:54,15:33:44,NA,incomplete,238,shape,1,right,Red_Circle_Stripes_4.jpg,Purple_Star_Stripes_3.jpg,Blue_Circle_Chess_2.jpg,right,620,true,low,NA,NA,NA,NA,NA,NA,NA,false
Shmq1dHE,3087lxlj7ptluqx9bvztb5ithyq0fq,3lo69w1su7q6s6gk2awwgu6lyl7lgd,Shmq1dHE,2020-0188,2020-11-18,15:07:54,15:33:44,NA,incomplete,239,shape,1,left,Red_Circle_Grid_3.jpg,Green_Circle_Stripes_1.jpg,Blue_Star_Grid_4.jpg,left,710,true,low,NA,NA,NA,NA,NA,NA,NA,false
Shmq1dHE,3087lxlj7ptluqx9bvztb5ithyq0fq,3lo69w1su7q6s6gk2awwgu6lyl7lgd,Shmq1dHE,2020-0188,2020-11-18,15:07:54,15:33:44,NA,NA,instruction example,number,NA,NA,Red_Star_Stripes_4.jpg,Blue_Triangle_Chess_4.jpg,Red_Plus_Dots_1.jpg,NA,NA,NA,NA,NA,NA,NA,NA,NA,NA,NA,undefined
Shmq1dHE,3087lxlj7ptluqx9bvztb5ithyq0fq,3lo69w1su7q6s6gk2awwgu6lyl7lgd,Shmq1dHE,2020-0188,2020-11-18,15:07:54,15:33:44,NA,NA,instruction example,number,NA,NA,Red_Plus_Chess_1.jpg,Red_Triangle_Grid_2.jpg,Blue_Star_Stripes_1.jpg,NA,NA,NA,NA,NA,NA,NA,NA,NA,NA,NA,undefined
Shmq1dHE,3087lxlj7ptluqx9bvztb5ithyq0fq,3lo69w1su7q6s6gk2awwgu6lyl7lgd,Shmq1dHE,2020-0188,2020-11-18,15:07:54,15:33:44,NA,NA,instruction example,number,NA,NA,Blue_Triangle_Dots_4.jpg,Red_Circle_Dots_1.jpg,Green_Triangle_Grid_3.jpg,NA,NA,NA,NA,NA,NA,NA,NA,NA,NA,NA,undefined
Shmq1dHE,3087lxlj7ptluqx9bvztb5ithyq0fq,3lo69w1su7q6s6gk2awwgu6lyl7lgd,Shmq1dHE,2020-0188,2020-11-18,15:07:54,15:33:44,NA,NA,instruction example,number,NA,NA,Red_Plus_Dots_3.jpg,Blue_Plus_Grid_1.jpg,Green_Star_Dots_2.jpg,NA,NA,NA,NA,NA,NA,NA,NA,NA,NA,NA,undefined
Shmq1dHE,3087lxlj7ptluqx9bvztb5ithyq0fq,3lo69w1su7q6s6gk2awwgu6lyl7lgd,Shmq1dHE,2020-0188,2020-11-18,15:07:54,15:33:44,1411881,1551170,NA,NA,NA,NA,NA,NA,NA,NA,NA,NA,NA,24,White/Caucasian,Male,Do not wish to reply.,no,yes,no,undefined
