workerId,hitId,assignmentId,subject,studyid,exp_date,exp_start,exp_end,time_start,time_end,trial,type,reward_validity,answer,image_top,image_left,image_right,response,response_time,response_acc,volatility,age,race,gender,ethnicity,color,vision,neuro,practice
FbP9uNsB,3axfspqoztbswwyvx39ztaxp9nrfjw,3lq8puhqfp5i213p1dh19eqtyljihw,FbP9uNsB,2020-0188,2020-05-21,17:13:32,17:36:39,NA,incomplete,0,number,1,right,Purple_Plus_Stripes_1.jpg,Blue_Plus_Dots_2.jpg,Red_Triangle_Chess_1.jpg,none,0,false,NA,NA,NA,NA,NA,NA,NA,NA,true
FbP9uNsB,3axfspqoztbswwyvx39ztaxp9nrfjw,3lq8puhqfp5i213p1dh19eqtyljihw,FbP9uNsB,2020-0188,2020-05-21,17:13:32,17:36:39,NA,incomplete,1,number,1,right,Purple_Circle_Chess_4.jpg,Green_Circle_Grid_1.jpg,Blue_Triangle_Stripes_4.jpg,right,1396.999999997206,true,NA,NA,NA,NA,NA,NA,NA,NA,true
FbP9uNsB,3axfspqoztbswwyvx39ztaxp9nrfjw,3lq8puhqfp5i213p1dh19eqtyljihw,FbP9uNsB,2020-0188,2020-05-21,17:13:32,17:36:39,NA,incomplete,2,number,1,left,Red_Circle_Dots_1.jpg,Blue_Star_Stripes_1.jpg,Purple_Circle_Chess_4.jpg,left,1096.9999999942956,true,NA,NA,NA,NA,NA,NA,NA,NA,true
FbP9uNsB,3axfspqoztbswwyvx39ztaxp9nrfjw,3lq8puhqfp5i213p1dh19eqtyljihw,FbP9uNsB,2020-0188,2020-05-21,17:13:32,17:36:39,NA,incomplete,3,number,1,left,Purple_Triangle_Grid_1.jpg,Green_Circle_Dots_1.jpg,Red_Triangle_Stripes_4.jpg,left,978.000000002794,true,NA,NA,NA,NA,NA,NA,NA,NA,true
FbP9uNsB,3axfspqoztbswwyvx39ztaxp9nrfjw,3lq8puhqfp5i213p1dh19eqtyljihw,FbP9uNsB,2020-0188,2020-05-21,17:13:32,17:36:39,NA,incomplete,4,number,1,right,Red_Star_Grid_3.jpg,Green_Star_Dots_1.jpg,Blue_Triangle_Stripes_3.jpg,right,1128.0000000042492,true,NA,NA,NA,NA,NA,NA,NA,NA,true
FbP9uNsB,3axfspqoztbswwyvx39ztaxp9nrfjw,3lq8puhqfp5i213p1dh19eqtyljihw,FbP9uNsB,2020-0188,2020-05-21,17:13:32,17:36:39,NA,incomplete,5,number,1,left,Red_Plus_Grid_4.jpg,Purple_Circle_Stripes_4.jpg,Green_Plus_Dots_3.jpg,left,1069.999999999709,true,NA,NA,NA,NA,NA,NA,NA,NA,true
FbP9uNsB,3axfspqoztbswwyvx39ztaxp9nrfjw,3lq8puhqfp5i213p1dh19eqtyljihw,FbP9uNsB,2020-0188,2020-05-21,17:13:32,17:36:39,NA,incomplete,6,number,1,right,Purple_Star_Dots_4.jpg,Red_Star_Chess_2.jpg,Green_Circle_Stripes_4.jpg,right,1324.0000000005239,true,NA,NA,NA,NA,NA,NA,NA,NA,true
FbP9uNsB,3axfspqoztbswwyvx39ztaxp9nrfjw,3lq8puhqfp5i213p1dh19eqtyljihw,FbP9uNsB,2020-0188,2020-05-21,17:13:32,17:36:39,NA,incomplete,7,number,1,right,Purple_Star_Grid_4.jpg,Green_Star_Dots_2.jpg,Blue_Triangle_Stripes_4.jpg,right,1152.9999999984284,true,NA,NA,NA,NA,NA,NA,NA,NA,true
FbP9uNsB,3axfspqoztbswwyvx39ztaxp9nrfjw,3lq8puhqfp5i213p1dh19eqtyljihw,FbP9uNsB,2020-0188,2020-05-21,17:13:32,17:36:39,NA,incomplete,8,number,0,right,Green_Star_Grid_2.jpg,Purple_Star_Stripes_1.jpg,Red_Circle_Dots_2.jpg,right,1139.0000000028522,true,NA,NA,NA,NA,NA,NA,NA,NA,true
FbP9uNsB,3axfspqoztbswwyvx39ztaxp9nrfjw,3lq8puhqfp5i213p1dh19eqtyljihw,FbP9uNsB,2020-0188,2020-05-21,17:13:32,17:36:39,NA,incomplete,9,number,1,left,Red_Plus_Dots_2.jpg,Blue_Triangle_Grid_2.jpg,Purple_Plus_Stripes_3.jpg,left,1137.9999999990105,true,NA,NA,NA,NA,NA,NA,NA,NA,true
FbP9uNsB,3axfspqoztbswwyvx39ztaxp9nrfjw,3lq8puhqfp5i213p1dh19eqtyljihw,FbP9uNsB,2020-0188,2020-05-21,17:13:32,17:36:39,NA,incomplete,10,number,1,right,Green_Plus_Dots_2.jpg,Red_Plus_Chess_3.jpg,Blue_Star_Stripes_2.jpg,right,1262.0000000024447,true,NA,NA,NA,NA,NA,NA,NA,NA,true
FbP9uNsB,3axfspqoztbswwyvx39ztaxp9nrfjw,3lq8puhqfp5i213p1dh19eqtyljihw,FbP9uNsB,2020-0188,2020-05-21,17:13:32,17:36:39,NA,incomplete,11,number,0,left,Green_Circle_Dots_1.jpg,Red_Triangle_Chess_1.jpg,Purple_Circle_Grid_3.jpg,left,981.9999999963329,true,NA,NA,NA,NA,NA,NA,NA,NA,true
FbP9uNsB,3axfspqoztbswwyvx39ztaxp9nrfjw,3lq8puhqfp5i213p1dh19eqtyljihw,FbP9uNsB,2020-0188,2020-05-21,17:13:32,17:36:39,NA,incomplete,12,number,1,left,Blue_Plus_Dots_2.jpg,Green_Star_Stripes_2.jpg,Purple_Plus_Chess_4.jpg,left,1424.9999999956344,true,NA,NA,NA,NA,NA,NA,NA,NA,true
FbP9uNsB,3axfspqoztbswwyvx39ztaxp9nrfjw,3lq8puhqfp5i213p1dh19eqtyljihw,FbP9uNsB,2020-0188,2020-05-21,17:13:32,17:36:39,NA,incomplete,13,number,1,right,Blue_Plus_Stripes_2.jpg,Red_Plus_Grid_4.jpg,Purple_Star_Dots_2.jpg,right,1155.0000000061118,true,NA,NA,NA,NA,NA,NA,NA,NA,true
FbP9uNsB,3axfspqoztbswwyvx39ztaxp9nrfjw,3lq8puhqfp5i213p1dh19eqtyljihw,FbP9uNsB,2020-0188,2020-05-21,17:13:32,17:36:39,NA,incomplete,14,number,1,right,Red_Plus_Grid_1.jpg,Green_Plus_Dots_4.jpg,Purple_Circle_Chess_1.jpg,right,988.000000004773,true,NA,NA,NA,NA,NA,NA,NA,NA,true
FbP9uNsB,3axfspqoztbswwyvx39ztaxp9nrfjw,3lq8puhqfp5i213p1dh19eqtyljihw,FbP9uNsB,2020-0188,2020-05-21,17:13:32,17:36:39,NA,incomplete,15,number,1,left,Red_Circle_Dots_3.jpg,Blue_Star_Chess_3.jpg,Green_Circle_Stripes_1.jpg,left,1082.9999999988358,true,NA,NA,NA,NA,NA,NA,NA,NA,true
FbP9uNsB,3axfspqoztbswwyvx39ztaxp9nrfjw,3lq8puhqfp5i213p1dh19eqtyljihw,FbP9uNsB,2020-0188,2020-05-21,17:13:32,17:36:39,NA,incomplete,16,number,0,right,Red_Star_Stripes_4.jpg,Green_Star_Chess_2.jpg,Purple_Triangle_Grid_4.jpg,right,1315.9999999989523,true,NA,NA,NA,NA,NA,NA,NA,NA,true
FbP9uNsB,3axfspqoztbswwyvx39ztaxp9nrfjw,3lq8puhqfp5i213p1dh19eqtyljihw,FbP9uNsB,2020-0188,2020-05-21,17:13:32,17:36:39,NA,incomplete,17,number,1,right,Red_Triangle_Chess_3.jpg,Blue_Triangle_Stripes_1.jpg,Purple_Plus_Grid_3.jpg,right,1156.999999999185,true,NA,NA,NA,NA,NA,NA,NA,NA,true
FbP9uNsB,3axfspqoztbswwyvx39ztaxp9nrfjw,3lq8puhqfp5i213p1dh19eqtyljihw,FbP9uNsB,2020-0188,2020-05-21,17:13:32,17:36:39,NA,incomplete,18,number,1,left,Purple_Plus_Chess_4.jpg,Green_Triangle_Dots_4.jpg,Blue_Plus_Grid_2.jpg,left,1033.9999999996508,true,NA,NA,NA,NA,NA,NA,NA,NA,true
FbP9uNsB,3axfspqoztbswwyvx39ztaxp9nrfjw,3lq8puhqfp5i213p1dh19eqtyljihw,FbP9uNsB,2020-0188,2020-05-21,17:13:32,17:36:39,NA,incomplete,19,number,1,left,Red_Circle_Dots_3.jpg,Blue_Star_Chess_3.jpg,Purple_Circle_Grid_4.jpg,left,1047.999999995227,true,NA,NA,NA,NA,NA,NA,NA,NA,true
FbP9uNsB,3axfspqoztbswwyvx39ztaxp9nrfjw,3lq8puhqfp5i213p1dh19eqtyljihw,FbP9uNsB,2020-0188,2020-05-21,17:13:32,17:36:39,NA,incomplete,20,shape,1,right,Green_Circle_Chess_4.jpg,Red_Star_Stripes_4.jpg,Blue_Circle_Grid_2.jpg,right,1608.0000000001164,true,NA,NA,NA,NA,NA,NA,NA,NA,true
FbP9uNsB,3axfspqoztbswwyvx39ztaxp9nrfjw,3lq8puhqfp5i213p1dh19eqtyljihw,FbP9uNsB,2020-0188,2020-05-21,17:13:32,17:36:39,NA,incomplete,21,shape,1,right,Purple_Circle_Grid_1.jpg,Red_Star_Dots_1.jpg,Blue_Circle_Stripes_2.jpg,right,1271.999999997206,true,NA,NA,NA,NA,NA,NA,NA,NA,true
FbP9uNsB,3axfspqoztbswwyvx39ztaxp9nrfjw,3lq8puhqfp5i213p1dh19eqtyljihw,FbP9uNsB,2020-0188,2020-05-21,17:13:32,17:36:39,NA,incomplete,22,shape,1,left,Blue_Triangle_Chess_4.jpg,Red_Triangle_Grid_2.jpg,Purple_Circle_Dots_4.jpg,left,1343.9999999973224,true,NA,NA,NA,NA,NA,NA,NA,NA,true
FbP9uNsB,3axfspqoztbswwyvx39ztaxp9nrfjw,3lq8puhqfp5i213p1dh19eqtyljihw,FbP9uNsB,2020-0188,2020-05-21,17:13:32,17:36:39,NA,incomplete,23,shape,1,right,Red_Star_Dots_1.jpg,Blue_Plus_Chess_1.jpg,Purple_Star_Grid_2.jpg,right,1290.9999999974389,true,NA,NA,NA,NA,NA,NA,NA,NA,true
FbP9uNsB,3axfspqoztbswwyvx39ztaxp9nrfjw,3lq8puhqfp5i213p1dh19eqtyljihw,FbP9uNsB,2020-0188,2020-05-21,17:13:32,17:36:39,NA,incomplete,24,shape,0,left,Green_Plus_Grid_1.jpg,Blue_Plus_Dots_4.jpg,Purple_Circle_Chess_1.jpg,left,1100.0000000058208,true,NA,NA,NA,NA,NA,NA,NA,NA,true
FbP9uNsB,3axfspqoztbswwyvx39ztaxp9nrfjw,3lq8puhqfp5i213p1dh19eqtyljihw,FbP9uNsB,2020-0188,2020-05-21,17:13:32,17:36:39,NA,incomplete,25,shape,1,right,Green_Circle_Chess_1.jpg,Red_Plus_Stripes_1.jpg,Purple_Circle_Grid_3.jpg,right,1166.9999999939464,true,NA,NA,NA,NA,NA,NA,NA,NA,true
FbP9uNsB,3axfspqoztbswwyvx39ztaxp9nrfjw,3lq8puhqfp5i213p1dh19eqtyljihw,FbP9uNsB,2020-0188,2020-05-21,17:13:32,17:36:39,NA,incomplete,26,shape,1,right,Blue_Star_Chess_1.jpg,Red_Plus_Stripes_1.jpg,Purple_Star_Dots_2.jpg,right,1018.0000000037253,true,NA,NA,NA,NA,NA,NA,NA,NA,true
FbP9uNsB,3axfspqoztbswwyvx39ztaxp9nrfjw,3lq8puhqfp5i213p1dh19eqtyljihw,FbP9uNsB,2020-0188,2020-05-21,17:13:32,17:36:39,NA,incomplete,27,shape,0,right,Blue_Triangle_Chess_2.jpg,Red_Star_Grid_2.jpg,Purple_Triangle_Stripes_1.jpg,right,1169.9999999982538,true,NA,NA,NA,NA,NA,NA,NA,NA,true
FbP9uNsB,3axfspqoztbswwyvx39ztaxp9nrfjw,3lq8puhqfp5i213p1dh19eqtyljihw,FbP9uNsB,2020-0188,2020-05-21,17:13:32,17:36:39,NA,incomplete,28,shape,1,right,Red_Circle_Chess_2.jpg,Purple_Plus_Stripes_2.jpg,Blue_Circle_Dots_1.jpg,right,1137.9999999990687,true,NA,NA,NA,NA,NA,NA,NA,NA,true
FbP9uNsB,3axfspqoztbswwyvx39ztaxp9nrfjw,3lq8puhqfp5i213p1dh19eqtyljihw,FbP9uNsB,2020-0188,2020-05-21,17:13:32,17:36:39,NA,incomplete,29,shape,1,left,Purple_Triangle_Dots_4.jpg,Red_Triangle_Stripes_1.jpg,Green_Star_Grid_4.jpg,left,1213.9999999998836,true,NA,NA,NA,NA,NA,NA,NA,NA,true
FbP9uNsB,3axfspqoztbswwyvx39ztaxp9nrfjw,3lq8puhqfp5i213p1dh19eqtyljihw,FbP9uNsB,2020-0188,2020-05-21,17:13:32,17:36:39,NA,incomplete,30,shape,1,right,Blue_Triangle_Grid_1.jpg,Red_Circle_Dots_1.jpg,Purple_Triangle_Chess_2.jpg,right,997.9999999996508,true,NA,NA,NA,NA,NA,NA,NA,NA,true
FbP9uNsB,3axfspqoztbswwyvx39ztaxp9nrfjw,3lq8puhqfp5i213p1dh19eqtyljihw,FbP9uNsB,2020-0188,2020-05-21,17:13:32,17:36:39,NA,incomplete,31,shape,1,left,Red_Star_Chess_2.jpg,Blue_Star_Dots_1.jpg,Purple_Triangle_Stripes_2.jpg,right,1031.9999999993015,false,NA,NA,NA,NA,NA,NA,NA,NA,true
FbP9uNsB,3axfspqoztbswwyvx39ztaxp9nrfjw,3lq8puhqfp5i213p1dh19eqtyljihw,FbP9uNsB,2020-0188,2020-05-21,17:13:32,17:36:39,NA,incomplete,32,shape,1,right,Purple_Triangle_Stripes_2.jpg,Red_Star_Chess_2.jpg,Green_Triangle_Grid_4.jpg,right,1558.0000000045402,true,NA,NA,NA,NA,NA,NA,NA,NA,true
FbP9uNsB,3axfspqoztbswwyvx39ztaxp9nrfjw,3lq8puhqfp5i213p1dh19eqtyljihw,FbP9uNsB,2020-0188,2020-05-21,17:13:32,17:36:39,NA,incomplete,33,shape,0,left,Green_Star_Chess_4.jpg,Purple_Star_Grid_1.jpg,Blue_Circle_Dots_4.jpg,left,1199.000000000582,true,NA,NA,NA,NA,NA,NA,NA,NA,true
FbP9uNsB,3axfspqoztbswwyvx39ztaxp9nrfjw,3lq8puhqfp5i213p1dh19eqtyljihw,FbP9uNsB,2020-0188,2020-05-21,17:13:32,17:36:39,NA,incomplete,34,shape,0,right,Purple_Star_Dots_3.jpg,Red_Circle_Grid_3.jpg,Blue_Star_Stripes_1.jpg,right,1358.9999999967404,true,NA,NA,NA,NA,NA,NA,NA,NA,true
FbP9uNsB,3axfspqoztbswwyvx39ztaxp9nrfjw,3lq8puhqfp5i213p1dh19eqtyljihw,FbP9uNsB,2020-0188,2020-05-21,17:13:32,17:36:39,NA,incomplete,35,shape,1,left,Purple_Circle_Grid_3.jpg,Blue_Circle_Dots_1.jpg,Red_Triangle_Chess_3.jpg,left,1423.0000000025611,true,NA,NA,NA,NA,NA,NA,NA,NA,true
FbP9uNsB,3axfspqoztbswwyvx39ztaxp9nrfjw,3lq8puhqfp5i213p1dh19eqtyljihw,FbP9uNsB,2020-0188,2020-05-21,17:13:32,17:36:39,NA,incomplete,36,shape,1,right,Red_Plus_Chess_2.jpg,Purple_Star_Dots_2.jpg,Blue_Plus_Grid_3.jpg,right,1281.999999999185,true,NA,NA,NA,NA,NA,NA,NA,NA,true
FbP9uNsB,3axfspqoztbswwyvx39ztaxp9nrfjw,3lq8puhqfp5i213p1dh19eqtyljihw,FbP9uNsB,2020-0188,2020-05-21,17:13:32,17:36:39,NA,incomplete,37,shape,0,left,Purple_Circle_Chess_3.jpg,Green_Circle_Grid_1.jpg,Blue_Plus_Dots_3.jpg,left,1152.0000000018626,true,NA,NA,NA,NA,NA,NA,NA,NA,true
FbP9uNsB,3axfspqoztbswwyvx39ztaxp9nrfjw,3lq8puhqfp5i213p1dh19eqtyljihw,FbP9uNsB,2020-0188,2020-05-21,17:13:32,17:36:39,NA,incomplete,38,shape,1,left,Red_Plus_Dots_3.jpg,Blue_Plus_Grid_4.jpg,Green_Star_Chess_3.jpg,left,1486.0000000044238,true,NA,NA,NA,NA,NA,NA,NA,NA,true
FbP9uNsB,3axfspqoztbswwyvx39ztaxp9nrfjw,3lq8puhqfp5i213p1dh19eqtyljihw,FbP9uNsB,2020-0188,2020-05-21,17:13:32,17:36:39,NA,incomplete,39,shape,1,right,Purple_Triangle_Dots_1.jpg,Red_Plus_Stripes_1.jpg,Green_Triangle_Chess_3.jpg,right,1088.0000000034925,true,NA,NA,NA,NA,NA,NA,NA,NA,true
FbP9uNsB,3axfspqoztbswwyvx39ztaxp9nrfjw,3lq8puhqfp5i213p1dh19eqtyljihw,FbP9uNsB,2020-0188,2020-05-21,17:13:32,17:36:39,NA,incomplete,0,number,1,right,Green_Circle_Stripes_1.jpg,Blue_Circle_Dots_2.jpg,Red_Triangle_Chess_1.jpg,left,1118.9999999987194,false,high,NA,NA,NA,NA,NA,NA,NA,false
FbP9uNsB,3axfspqoztbswwyvx39ztaxp9nrfjw,3lq8puhqfp5i213p1dh19eqtyljihw,FbP9uNsB,2020-0188,2020-05-21,17:13:32,17:36:39,NA,incomplete,1,number,1,right,Purple_Triangle_Grid_3.jpg,Blue_Triangle_Stripes_1.jpg,Green_Circle_Dots_3.jpg,left,1076.0000000009313,false,high,NA,NA,NA,NA,NA,NA,NA,false
FbP9uNsB,3axfspqoztbswwyvx39ztaxp9nrfjw,3lq8puhqfp5i213p1dh19eqtyljihw,FbP9uNsB,2020-0188,2020-05-21,17:13:32,17:36:39,NA,incomplete,2,number,1,left,Blue_Triangle_Chess_3.jpg,Green_Star_Dots_3.jpg,Purple_Triangle_Grid_4.jpg,right,1438.000000001979,false,high,NA,NA,NA,NA,NA,NA,NA,false
FbP9uNsB,3axfspqoztbswwyvx39ztaxp9nrfjw,3lq8puhqfp5i213p1dh19eqtyljihw,FbP9uNsB,2020-0188,2020-05-21,17:13:32,17:36:39,NA,incomplete,3,number,1,left,Green_Triangle_Dots_2.jpg,Red_Circle_Chess_2.jpg,Blue_Triangle_Stripes_3.jpg,left,889.0000000029104,true,high,NA,NA,NA,NA,NA,NA,NA,false
FbP9uNsB,3axfspqoztbswwyvx39ztaxp9nrfjw,3lq8puhqfp5i213p1dh19eqtyljihw,FbP9uNsB,2020-0188,2020-05-21,17:13:32,17:36:39,NA,incomplete,4,number,1,right,Purple_Plus_Chess_4.jpg,Red_Plus_Grid_2.jpg,Green_Circle_Dots_4.jpg,right,1099.9999999984866,true,high,NA,NA,NA,NA,NA,NA,NA,false
FbP9uNsB,3axfspqoztbswwyvx39ztaxp9nrfjw,3lq8puhqfp5i213p1dh19eqtyljihw,FbP9uNsB,2020-0188,2020-05-21,17:13:32,17:36:39,NA,incomplete,5,number,0,left,Blue_Star_Stripes_2.jpg,Purple_Triangle_Chess_2.jpg,Red_Star_Grid_3.jpg,left,970.9999999976717,true,high,NA,NA,NA,NA,NA,NA,NA,false
FbP9uNsB,3axfspqoztbswwyvx39ztaxp9nrfjw,3lq8puhqfp5i213p1dh19eqtyljihw,FbP9uNsB,2020-0188,2020-05-21,17:13:32,17:36:39,NA,incomplete,6,number,1,left,Green_Triangle_Dots_1.jpg,Blue_Circle_Chess_1.jpg,Purple_Triangle_Stripes_3.jpg,right,946.0000000036089,false,high,NA,NA,NA,NA,NA,NA,NA,false
FbP9uNsB,3axfspqoztbswwyvx39ztaxp9nrfjw,3lq8puhqfp5i213p1dh19eqtyljihw,FbP9uNsB,2020-0188,2020-05-21,17:13:32,17:36:39,NA,incomplete,7,number,1,left,Blue_Star_Chess_3.jpg,Purple_Plus_Dots_3.jpg,Red_Star_Stripes_4.jpg,right,1299.9999999955762,false,high,NA,NA,NA,NA,NA,NA,NA,false
FbP9uNsB,3axfspqoztbswwyvx39ztaxp9nrfjw,3lq8puhqfp5i213p1dh19eqtyljihw,FbP9uNsB,2020-0188,2020-05-21,17:13:32,17:36:39,NA,incomplete,8,number,1,left,Green_Circle_Dots_2.jpg,Blue_Triangle_Chess_2.jpg,Red_Circle_Stripes_1.jpg,left,965.0000000037253,true,high,NA,NA,NA,NA,NA,NA,NA,false
FbP9uNsB,3axfspqoztbswwyvx39ztaxp9nrfjw,3lq8puhqfp5i213p1dh19eqtyljihw,FbP9uNsB,2020-0188,2020-05-21,17:13:32,17:36:39,NA,incomplete,9,number,1,right,Purple_Triangle_Chess_3.jpg,Red_Triangle_Grid_2.jpg,Blue_Plus_Stripes_3.jpg,right,1108.9999999967404,true,high,NA,NA,NA,NA,NA,NA,NA,false
FbP9uNsB,3axfspqoztbswwyvx39ztaxp9nrfjw,3lq8puhqfp5i213p1dh19eqtyljihw,FbP9uNsB,2020-0188,2020-05-21,17:13:32,17:36:39,NA,incomplete,10,shape,1,left,Blue_Plus_Chess_4.jpg,Green_Plus_Dots_3.jpg,Red_Star_Grid_4.jpg,right,1184.0000000010477,false,high,NA,NA,NA,NA,NA,NA,NA,false
FbP9uNsB,3axfspqoztbswwyvx39ztaxp9nrfjw,3lq8puhqfp5i213p1dh19eqtyljihw,FbP9uNsB,2020-0188,2020-05-21,17:13:32,17:36:39,NA,incomplete,11,shape,1,left,Purple_Triangle_Grid_1.jpg,Green_Triangle_Stripes_3.jpg,Red_Star_Dots_1.jpg,right,887.0000000024447,false,high,NA,NA,NA,NA,NA,NA,NA,false
FbP9uNsB,3axfspqoztbswwyvx39ztaxp9nrfjw,3lq8puhqfp5i213p1dh19eqtyljihw,FbP9uNsB,2020-0188,2020-05-21,17:13:32,17:36:39,NA,incomplete,12,shape,1,left,Green_Star_Grid_1.jpg,Purple_Star_Dots_4.jpg,Red_Plus_Stripes_1.jpg,right,855.0000000031432,false,high,NA,NA,NA,NA,NA,NA,NA,false
FbP9uNsB,3axfspqoztbswwyvx39ztaxp9nrfjw,3lq8puhqfp5i213p1dh19eqtyljihw,FbP9uNsB,2020-0188,2020-05-21,17:13:32,17:36:39,NA,incomplete,13,shape,0,right,Purple_Circle_Grid_4.jpg,Green_Star_Stripes_4.jpg,Blue_Circle_Dots_1.jpg,right,959.9999999990687,true,high,NA,NA,NA,NA,NA,NA,NA,false
FbP9uNsB,3axfspqoztbswwyvx39ztaxp9nrfjw,3lq8puhqfp5i213p1dh19eqtyljihw,FbP9uNsB,2020-0188,2020-05-21,17:13:32,17:36:39,NA,incomplete,14,shape,0,left,Purple_Triangle_Stripes_1.jpg,Red_Triangle_Grid_4.jpg,Green_Plus_Chess_1.jpg,left,887.9999999990687,true,high,NA,NA,NA,NA,NA,NA,NA,false
FbP9uNsB,3axfspqoztbswwyvx39ztaxp9nrfjw,3lq8puhqfp5i213p1dh19eqtyljihw,FbP9uNsB,2020-0188,2020-05-21,17:13:32,17:36:39,NA,incomplete,15,shape,0,right,Green_Star_Grid_2.jpg,Purple_Circle_Dots_2.jpg,Blue_Star_Chess_4.jpg,left,1069.0000000031432,false,high,NA,NA,NA,NA,NA,NA,NA,false
FbP9uNsB,3axfspqoztbswwyvx39ztaxp9nrfjw,3lq8puhqfp5i213p1dh19eqtyljihw,FbP9uNsB,2020-0188,2020-05-21,17:13:32,17:36:39,NA,incomplete,16,shape,1,left,Purple_Triangle_Stripes_2.jpg,Red_Triangle_Grid_4.jpg,Blue_Star_Dots_2.jpg,right,979.0000000065193,false,high,NA,NA,NA,NA,NA,NA,NA,false
FbP9uNsB,3axfspqoztbswwyvx39ztaxp9nrfjw,3lq8puhqfp5i213p1dh19eqtyljihw,FbP9uNsB,2020-0188,2020-05-21,17:13:32,17:36:39,NA,incomplete,17,shape,0,right,Blue_Plus_Stripes_3.jpg,Green_Star_Grid_3.jpg,Purple_Plus_Chess_4.jpg,left,1158.9999999997672,false,high,NA,NA,NA,NA,NA,NA,NA,false
FbP9uNsB,3axfspqoztbswwyvx39ztaxp9nrfjw,3lq8puhqfp5i213p1dh19eqtyljihw,FbP9uNsB,2020-0188,2020-05-21,17:13:32,17:36:39,NA,incomplete,18,shape,1,left,Purple_Circle_Grid_3.jpg,Green_Circle_Chess_4.jpg,Blue_Star_Dots_3.jpg,left,745.9999999991851,true,high,NA,NA,NA,NA,NA,NA,NA,false
FbP9uNsB,3axfspqoztbswwyvx39ztaxp9nrfjw,3lq8puhqfp5i213p1dh19eqtyljihw,FbP9uNsB,2020-0188,2020-05-21,17:13:32,17:36:39,NA,incomplete,19,shape,1,left,Purple_Star_Stripes_1.jpg,Red_Star_Chess_3.jpg,Blue_Circle_Grid_1.jpg,left,787.0000000039581,true,high,NA,NA,NA,NA,NA,NA,NA,false
FbP9uNsB,3axfspqoztbswwyvx39ztaxp9nrfjw,3lq8puhqfp5i213p1dh19eqtyljihw,FbP9uNsB,2020-0188,2020-05-21,17:13:32,17:36:39,NA,incomplete,20,number,0,left,Red_Star_Chess_2.jpg,Blue_Triangle_Dots_2.jpg,Purple_Star_Stripes_4.jpg,right,951.9999999975553,false,high,NA,NA,NA,NA,NA,NA,NA,false
FbP9uNsB,3axfspqoztbswwyvx39ztaxp9nrfjw,3lq8puhqfp5i213p1dh19eqtyljihw,FbP9uNsB,2020-0188,2020-05-21,17:13:32,17:36:39,NA,incomplete,21,number,1,left,Blue_Triangle_Chess_3.jpg,Red_Circle_Grid_3.jpg,Green_Triangle_Dots_4.jpg,right,985.0000000004657,false,high,NA,NA,NA,NA,NA,NA,NA,false
FbP9uNsB,3axfspqoztbswwyvx39ztaxp9nrfjw,3lq8puhqfp5i213p1dh19eqtyljihw,FbP9uNsB,2020-0188,2020-05-21,17:13:32,17:36:39,NA,incomplete,22,number,1,right,Blue_Plus_Grid_2.jpg,Green_Plus_Stripes_4.jpg,Purple_Star_Chess_2.jpg,left,848.9999999946449,false,high,NA,NA,NA,NA,NA,NA,NA,false
FbP9uNsB,3axfspqoztbswwyvx39ztaxp9nrfjw,3lq8puhqfp5i213p1dh19eqtyljihw,FbP9uNsB,2020-0188,2020-05-21,17:13:32,17:36:39,NA,incomplete,23,number,1,left,Red_Circle_Stripes_1.jpg,Blue_Star_Grid_1.jpg,Purple_Circle_Dots_4.jpg,right,757.9999999944121,false,high,NA,NA,NA,NA,NA,NA,NA,false
FbP9uNsB,3axfspqoztbswwyvx39ztaxp9nrfjw,3lq8puhqfp5i213p1dh19eqtyljihw,FbP9uNsB,2020-0188,2020-05-21,17:13:32,17:36:39,NA,incomplete,24,number,1,right,Purple_Triangle_Grid_4.jpg,Red_Triangle_Chess_3.jpg,Green_Plus_Dots_4.jpg,right,1328.9999999979045,true,high,NA,NA,NA,NA,NA,NA,NA,false
FbP9uNsB,3axfspqoztbswwyvx39ztaxp9nrfjw,3lq8puhqfp5i213p1dh19eqtyljihw,FbP9uNsB,2020-0188,2020-05-21,17:13:32,17:36:39,NA,incomplete,25,number,1,left,Green_Star_Dots_4.jpg,Blue_Triangle_Chess_4.jpg,Red_Star_Grid_2.jpg,left,907.999999995809,true,high,NA,NA,NA,NA,NA,NA,NA,false
FbP9uNsB,3axfspqoztbswwyvx39ztaxp9nrfjw,3lq8puhqfp5i213p1dh19eqtyljihw,FbP9uNsB,2020-0188,2020-05-21,17:13:32,17:36:39,NA,incomplete,26,number,1,left,Green_Triangle_Chess_4.jpg,Red_Star_Grid_4.jpg,Purple_Triangle_Stripes_3.jpg,left,942.9999999993015,true,high,NA,NA,NA,NA,NA,NA,NA,false
FbP9uNsB,3axfspqoztbswwyvx39ztaxp9nrfjw,3lq8puhqfp5i213p1dh19eqtyljihw,FbP9uNsB,2020-0188,2020-05-21,17:13:32,17:36:39,NA,incomplete,27,number,1,right,Green_Triangle_Dots_2.jpg,Purple_Triangle_Grid_1.jpg,Blue_Star_Chess_2.jpg,right,909.9999999961583,true,high,NA,NA,NA,NA,NA,NA,NA,false
FbP9uNsB,3axfspqoztbswwyvx39ztaxp9nrfjw,3lq8puhqfp5i213p1dh19eqtyljihw,FbP9uNsB,2020-0188,2020-05-21,17:13:32,17:36:39,NA,incomplete,28,number,1,left,Red_Plus_Stripes_2.jpg,Purple_Star_Chess_2.jpg,Blue_Plus_Dots_3.jpg,left,894.0000000002328,true,high,NA,NA,NA,NA,NA,NA,NA,false
FbP9uNsB,3axfspqoztbswwyvx39ztaxp9nrfjw,3lq8puhqfp5i213p1dh19eqtyljihw,FbP9uNsB,2020-0188,2020-05-21,17:13:32,17:36:39,NA,incomplete,29,number,1,right,Red_Circle_Chess_2.jpg,Purple_Circle_Dots_4.jpg,Blue_Star_Stripes_2.jpg,right,885.999999998603,true,high,NA,NA,NA,NA,NA,NA,NA,false
FbP9uNsB,3axfspqoztbswwyvx39ztaxp9nrfjw,3lq8puhqfp5i213p1dh19eqtyljihw,FbP9uNsB,2020-0188,2020-05-21,17:13:32,17:36:39,NA,incomplete,30,shape,1,left,Green_Star_Dots_1.jpg,Red_Star_Grid_2.jpg,Purple_Triangle_Chess_1.jpg,right,860.0000000005821,false,high,NA,NA,NA,NA,NA,NA,NA,false
FbP9uNsB,3axfspqoztbswwyvx39ztaxp9nrfjw,3lq8puhqfp5i213p1dh19eqtyljihw,FbP9uNsB,2020-0188,2020-05-21,17:13:32,17:36:39,NA,incomplete,31,shape,1,right,Purple_Triangle_Grid_1.jpg,Blue_Plus_Dots_1.jpg,Red_Triangle_Stripes_3.jpg,right,1287.0000000039581,true,high,NA,NA,NA,NA,NA,NA,NA,false
FbP9uNsB,3axfspqoztbswwyvx39ztaxp9nrfjw,3lq8puhqfp5i213p1dh19eqtyljihw,FbP9uNsB,2020-0188,2020-05-21,17:13:32,17:36:39,NA,incomplete,32,shape,0,left,Red_Triangle_Grid_3.jpg,Green_Triangle_Dots_1.jpg,Blue_Circle_Stripes_3.jpg,left,1002.9999999969732,true,high,NA,NA,NA,NA,NA,NA,NA,false
FbP9uNsB,3axfspqoztbswwyvx39ztaxp9nrfjw,3lq8puhqfp5i213p1dh19eqtyljihw,FbP9uNsB,2020-0188,2020-05-21,17:13:32,17:36:39,NA,incomplete,33,shape,0,right,Green_Plus_Grid_3.jpg,Red_Triangle_Dots_3.jpg,Purple_Plus_Chess_4.jpg,left,1361.9999999937136,false,high,NA,NA,NA,NA,NA,NA,NA,false
FbP9uNsB,3axfspqoztbswwyvx39ztaxp9nrfjw,3lq8puhqfp5i213p1dh19eqtyljihw,FbP9uNsB,2020-0188,2020-05-21,17:13:32,17:36:39,NA,incomplete,34,shape,1,right,Blue_Circle_Dots_3.jpg,Purple_Star_Chess_3.jpg,Green_Circle_Stripes_2.jpg,left,1116.0000000018626,false,high,NA,NA,NA,NA,NA,NA,NA,false
FbP9uNsB,3axfspqoztbswwyvx39ztaxp9nrfjw,3lq8puhqfp5i213p1dh19eqtyljihw,FbP9uNsB,2020-0188,2020-05-21,17:13:32,17:36:39,NA,incomplete,35,shape,1,right,Red_Plus_Dots_1.jpg,Green_Circle_Grid_1.jpg,Blue_Plus_Stripes_2.jpg,right,906.0000000025611,true,high,NA,NA,NA,NA,NA,NA,NA,false
FbP9uNsB,3axfspqoztbswwyvx39ztaxp9nrfjw,3lq8puhqfp5i213p1dh19eqtyljihw,FbP9uNsB,2020-0188,2020-05-21,17:13:32,17:36:39,NA,incomplete,36,shape,1,right,Red_Plus_Dots_3.jpg,Blue_Triangle_Grid_3.jpg,Purple_Plus_Stripes_4.jpg,right,849.0000000018626,true,high,NA,NA,NA,NA,NA,NA,NA,false
FbP9uNsB,3axfspqoztbswwyvx39ztaxp9nrfjw,3lq8puhqfp5i213p1dh19eqtyljihw,FbP9uNsB,2020-0188,2020-05-21,17:13:32,17:36:39,NA,incomplete,37,shape,0,left,Red_Circle_Grid_4.jpg,Green_Circle_Chess_3.jpg,Purple_Plus_Stripes_4.jpg,left,992.0000000057044,true,high,NA,NA,NA,NA,NA,NA,NA,false
FbP9uNsB,3axfspqoztbswwyvx39ztaxp9nrfjw,3lq8puhqfp5i213p1dh19eqtyljihw,FbP9uNsB,2020-0188,2020-05-21,17:13:32,17:36:39,NA,incomplete,38,shape,1,left,Purple_Plus_Chess_4.jpg,Red_Plus_Stripes_3.jpg,Blue_Triangle_Grid_4.jpg,none,0,false,high,NA,NA,NA,NA,NA,NA,NA,false
FbP9uNsB,3axfspqoztbswwyvx39ztaxp9nrfjw,3lq8puhqfp5i213p1dh19eqtyljihw,FbP9uNsB,2020-0188,2020-05-21,17:13:32,17:36:39,NA,incomplete,39,shape,0,left,Red_Circle_Stripes_4.jpg,Purple_Circle_Chess_1.jpg,Green_Plus_Grid_4.jpg,left,1413.0000000004657,true,high,NA,NA,NA,NA,NA,NA,NA,false
FbP9uNsB,3axfspqoztbswwyvx39ztaxp9nrfjw,3lq8puhqfp5i213p1dh19eqtyljihw,FbP9uNsB,2020-0188,2020-05-21,17:13:32,17:36:39,NA,incomplete,40,number,1,left,Green_Triangle_Stripes_4.jpg,Red_Plus_Chess_4.jpg,Purple_Triangle_Grid_1.jpg,left,1521.000000000582,true,high,NA,NA,NA,NA,NA,NA,NA,false
FbP9uNsB,3axfspqoztbswwyvx39ztaxp9nrfjw,3lq8puhqfp5i213p1dh19eqtyljihw,FbP9uNsB,2020-0188,2020-05-21,17:13:32,17:36:39,NA,incomplete,41,number,1,left,Blue_Circle_Stripes_2.jpg,Green_Star_Grid_2.jpg,Red_Circle_Chess_1.jpg,right,1108.0000000001164,false,high,NA,NA,NA,NA,NA,NA,NA,false
FbP9uNsB,3axfspqoztbswwyvx39ztaxp9nrfjw,3lq8puhqfp5i213p1dh19eqtyljihw,FbP9uNsB,2020-0188,2020-05-21,17:13:32,17:36:39,NA,incomplete,42,number,1,left,Blue_Star_Chess_2.jpg,Purple_Circle_Stripes_2.jpg,Red_Star_Grid_1.jpg,left,1161,true,high,NA,NA,NA,NA,NA,NA,NA,false
FbP9uNsB,3axfspqoztbswwyvx39ztaxp9nrfjw,3lq8puhqfp5i213p1dh19eqtyljihw,FbP9uNsB,2020-0188,2020-05-21,17:13:32,17:36:39,NA,incomplete,43,number,1,left,Blue_Circle_Chess_4.jpg,Purple_Triangle_Grid_4.jpg,Green_Circle_Stripes_2.jpg,left,834.9999999991851,true,high,NA,NA,NA,NA,NA,NA,NA,false
FbP9uNsB,3axfspqoztbswwyvx39ztaxp9nrfjw,3lq8puhqfp5i213p1dh19eqtyljihw,FbP9uNsB,2020-0188,2020-05-21,17:13:32,17:36:39,NA,incomplete,44,number,1,right,Blue_Plus_Chess_3.jpg,Green_Plus_Grid_1.jpg,Red_Circle_Dots_3.jpg,right,1073.0000000039581,true,high,NA,NA,NA,NA,NA,NA,NA,false
FbP9uNsB,3axfspqoztbswwyvx39ztaxp9nrfjw,3lq8puhqfp5i213p1dh19eqtyljihw,FbP9uNsB,2020-0188,2020-05-21,17:13:32,17:36:39,NA,incomplete,45,number,1,right,Red_Plus_Chess_2.jpg,Green_Plus_Dots_1.jpg,Blue_Triangle_Grid_2.jpg,right,883.9999999982538,true,high,NA,NA,NA,NA,NA,NA,NA,false
FbP9uNsB,3axfspqoztbswwyvx39ztaxp9nrfjw,3lq8puhqfp5i213p1dh19eqtyljihw,FbP9uNsB,2020-0188,2020-05-21,17:13:32,17:36:39,NA,incomplete,46,number,1,right,Red_Circle_Chess_2.jpg,Blue_Circle_Grid_3.jpg,Green_Plus_Dots_2.jpg,right,794.9999999983702,true,high,NA,NA,NA,NA,NA,NA,NA,false
FbP9uNsB,3axfspqoztbswwyvx39ztaxp9nrfjw,3lq8puhqfp5i213p1dh19eqtyljihw,FbP9uNsB,2020-0188,2020-05-21,17:13:32,17:36:39,NA,incomplete,47,number,1,left,Blue_Plus_Grid_4.jpg,Purple_Circle_Dots_4.jpg,Red_Plus_Chess_3.jpg,left,931.000000004191,true,high,NA,NA,NA,NA,NA,NA,NA,false
FbP9uNsB,3axfspqoztbswwyvx39ztaxp9nrfjw,3lq8puhqfp5i213p1dh19eqtyljihw,FbP9uNsB,2020-0188,2020-05-21,17:13:32,17:36:39,NA,incomplete,48,number,1,right,Red_Circle_Dots_4.jpg,Green_Circle_Chess_3.jpg,Purple_Star_Stripes_4.jpg,right,843.9999999974389,true,high,NA,NA,NA,NA,NA,NA,NA,false
FbP9uNsB,3axfspqoztbswwyvx39ztaxp9nrfjw,3lq8puhqfp5i213p1dh19eqtyljihw,FbP9uNsB,2020-0188,2020-05-21,17:13:32,17:36:39,NA,incomplete,49,number,1,left,Purple_Plus_Stripes_4.jpg,Green_Star_Dots_4.jpg,Blue_Plus_Grid_3.jpg,left,1014.0000000029104,true,high,NA,NA,NA,NA,NA,NA,NA,false
FbP9uNsB,3axfspqoztbswwyvx39ztaxp9nrfjw,3lq8puhqfp5i213p1dh19eqtyljihw,FbP9uNsB,2020-0188,2020-05-21,17:13:32,17:36:39,NA,incomplete,50,shape,1,left,Red_Star_Chess_4.jpg,Purple_Star_Dots_2.jpg,Green_Circle_Grid_4.jpg,right,894.9999999967404,false,high,NA,NA,NA,NA,NA,NA,NA,false
FbP9uNsB,3axfspqoztbswwyvx39ztaxp9nrfjw,3lq8puhqfp5i213p1dh19eqtyljihw,FbP9uNsB,2020-0188,2020-05-21,17:13:32,17:36:39,NA,incomplete,51,shape,0,left,Red_Star_Grid_4.jpg,Green_Star_Dots_3.jpg,Purple_Circle_Stripes_4.jpg,right,910.0000000034925,false,high,NA,NA,NA,NA,NA,NA,NA,false
FbP9uNsB,3axfspqoztbswwyvx39ztaxp9nrfjw,3lq8puhqfp5i213p1dh19eqtyljihw,FbP9uNsB,2020-0188,2020-05-21,17:13:32,17:36:39,NA,incomplete,52,shape,0,left,Red_Circle_Dots_1.jpg,Blue_Circle_Chess_2.jpg,Purple_Plus_Grid_1.jpg,right,927.9999999998836,false,high,NA,NA,NA,NA,NA,NA,NA,false
FbP9uNsB,3axfspqoztbswwyvx39ztaxp9nrfjw,3lq8puhqfp5i213p1dh19eqtyljihw,FbP9uNsB,2020-0188,2020-05-21,17:13:32,17:36:39,NA,incomplete,53,shape,0,right,Blue_Star_Chess_1.jpg,Green_Triangle_Grid_1.jpg,Purple_Star_Stripes_4.jpg,left,877.0000000004657,false,high,NA,NA,NA,NA,NA,NA,NA,false
FbP9uNsB,3axfspqoztbswwyvx39ztaxp9nrfjw,3lq8puhqfp5i213p1dh19eqtyljihw,FbP9uNsB,2020-0188,2020-05-21,17:13:32,17:36:39,NA,incomplete,54,shape,1,left,Green_Triangle_Chess_4.jpg,Red_Triangle_Dots_3.jpg,Purple_Star_Grid_4.jpg,right,881.0000000012806,false,high,NA,NA,NA,NA,NA,NA,NA,false
FbP9uNsB,3axfspqoztbswwyvx39ztaxp9nrfjw,3lq8puhqfp5i213p1dh19eqtyljihw,FbP9uNsB,2020-0188,2020-05-21,17:13:32,17:36:39,NA,incomplete,55,shape,1,left,Red_Star_Grid_2.jpg,Blue_Star_Stripes_3.jpg,Purple_Circle_Dots_2.jpg,right,972.9999999981374,false,high,NA,NA,NA,NA,NA,NA,NA,false
FbP9uNsB,3axfspqoztbswwyvx39ztaxp9nrfjw,3lq8puhqfp5i213p1dh19eqtyljihw,FbP9uNsB,2020-0188,2020-05-21,17:13:32,17:36:39,NA,incomplete,56,shape,1,left,Blue_Triangle_Stripes_2.jpg,Purple_Triangle_Chess_3.jpg,Green_Star_Grid_2.jpg,left,843.9999999974389,true,high,NA,NA,NA,NA,NA,NA,NA,false
FbP9uNsB,3axfspqoztbswwyvx39ztaxp9nrfjw,3lq8puhqfp5i213p1dh19eqtyljihw,FbP9uNsB,2020-0188,2020-05-21,17:13:32,17:36:39,NA,incomplete,57,shape,1,left,Red_Plus_Dots_4.jpg,Blue_Plus_Grid_1.jpg,Green_Star_Chess_4.jpg,right,1042.0000000012806,false,high,NA,NA,NA,NA,NA,NA,NA,false
FbP9uNsB,3axfspqoztbswwyvx39ztaxp9nrfjw,3lq8puhqfp5i213p1dh19eqtyljihw,FbP9uNsB,2020-0188,2020-05-21,17:13:32,17:36:39,NA,incomplete,58,shape,0,right,Purple_Triangle_Stripes_3.jpg,Green_Star_Grid_3.jpg,Blue_Triangle_Chess_2.jpg,right,1131.0000000012806,true,high,NA,NA,NA,NA,NA,NA,NA,false
FbP9uNsB,3axfspqoztbswwyvx39ztaxp9nrfjw,3lq8puhqfp5i213p1dh19eqtyljihw,FbP9uNsB,2020-0188,2020-05-21,17:13:32,17:36:39,NA,incomplete,59,shape,0,left,Purple_Circle_Grid_3.jpg,Blue_Circle_Stripes_2.jpg,Red_Triangle_Chess_3.jpg,left,957.0000000022119,true,high,NA,NA,NA,NA,NA,NA,NA,false
FbP9uNsB,3axfspqoztbswwyvx39ztaxp9nrfjw,3lq8puhqfp5i213p1dh19eqtyljihw,FbP9uNsB,2020-0188,2020-05-21,17:13:32,17:36:39,NA,incomplete,60,number,1,right,Green_Triangle_Stripes_2.jpg,Blue_Triangle_Grid_3.jpg,Red_Plus_Dots_2.jpg,right,849.9999999984866,true,high,NA,NA,NA,NA,NA,NA,NA,false
FbP9uNsB,3axfspqoztbswwyvx39ztaxp9nrfjw,3lq8puhqfp5i213p1dh19eqtyljihw,FbP9uNsB,2020-0188,2020-05-21,17:13:32,17:36:39,NA,incomplete,61,number,1,right,Blue_Circle_Dots_3.jpg,Purple_Circle_Stripes_1.jpg,Red_Triangle_Chess_3.jpg,right,845.0000000011642,true,high,NA,NA,NA,NA,NA,NA,NA,false
FbP9uNsB,3axfspqoztbswwyvx39ztaxp9nrfjw,3lq8puhqfp5i213p1dh19eqtyljihw,FbP9uNsB,2020-0188,2020-05-21,17:13:32,17:36:39,NA,incomplete,62,number,1,left,Purple_Star_Chess_2.jpg,Blue_Triangle_Dots_2.jpg,Red_Star_Stripes_4.jpg,left,794.9999999982538,true,high,NA,NA,NA,NA,NA,NA,NA,false
FbP9uNsB,3axfspqoztbswwyvx39ztaxp9nrfjw,3lq8puhqfp5i213p1dh19eqtyljihw,FbP9uNsB,2020-0188,2020-05-21,17:13:32,17:36:39,NA,incomplete,63,number,1,left,Purple_Star_Stripes_4.jpg,Blue_Triangle_Chess_4.jpg,Green_Star_Grid_3.jpg,left,1065.9999999989523,true,high,NA,NA,NA,NA,NA,NA,NA,false
FbP9uNsB,3axfspqoztbswwyvx39ztaxp9nrfjw,3lq8puhqfp5i213p1dh19eqtyljihw,FbP9uNsB,2020-0188,2020-05-21,17:13:32,17:36:39,NA,incomplete,64,number,1,left,Green_Star_Chess_4.jpg,Purple_Triangle_Dots_4.jpg,Blue_Star_Grid_1.jpg,right,1015.9999999960419,false,high,NA,NA,NA,NA,NA,NA,NA,false
FbP9uNsB,3axfspqoztbswwyvx39ztaxp9nrfjw,3lq8puhqfp5i213p1dh19eqtyljihw,FbP9uNsB,2020-0188,2020-05-21,17:13:32,17:36:39,NA,incomplete,65,number,1,right,Green_Circle_Dots_4.jpg,Red_Circle_Grid_3.jpg,Blue_Star_Stripes_4.jpg,right,993.9999999987194,true,high,NA,NA,NA,NA,NA,NA,NA,false
FbP9uNsB,3axfspqoztbswwyvx39ztaxp9nrfjw,3lq8puhqfp5i213p1dh19eqtyljihw,FbP9uNsB,2020-0188,2020-05-21,17:13:32,17:36:39,NA,incomplete,66,number,1,left,Blue_Star_Chess_3.jpg,Green_Plus_Grid_3.jpg,Purple_Star_Stripes_4.jpg,left,901.0000000052387,true,high,NA,NA,NA,NA,NA,NA,NA,false
FbP9uNsB,3axfspqoztbswwyvx39ztaxp9nrfjw,3lq8puhqfp5i213p1dh19eqtyljihw,FbP9uNsB,2020-0188,2020-05-21,17:13:32,17:36:39,NA,incomplete,67,number,1,right,Blue_Plus_Chess_2.jpg,Purple_Plus_Dots_3.jpg,Green_Star_Grid_2.jpg,right,812.0000000053551,true,high,NA,NA,NA,NA,NA,NA,NA,false
FbP9uNsB,3axfspqoztbswwyvx39ztaxp9nrfjw,3lq8puhqfp5i213p1dh19eqtyljihw,FbP9uNsB,2020-0188,2020-05-21,17:13:32,17:36:39,NA,incomplete,68,number,1,left,Blue_Star_Grid_1.jpg,Green_Plus_Dots_1.jpg,Purple_Star_Chess_4.jpg,left,776.0000000052387,true,high,NA,NA,NA,NA,NA,NA,NA,false
FbP9uNsB,3axfspqoztbswwyvx39ztaxp9nrfjw,3lq8puhqfp5i213p1dh19eqtyljihw,FbP9uNsB,2020-0188,2020-05-21,17:13:32,17:36:39,NA,incomplete,69,number,0,left,Purple_Star_Grid_4.jpg,Blue_Plus_Dots_4.jpg,Red_Star_Chess_2.jpg,left,817.9999999993015,true,high,NA,NA,NA,NA,NA,NA,NA,false
FbP9uNsB,3axfspqoztbswwyvx39ztaxp9nrfjw,3lq8puhqfp5i213p1dh19eqtyljihw,FbP9uNsB,2020-0188,2020-05-21,17:13:32,17:36:39,NA,incomplete,70,shape,1,left,Green_Triangle_Stripes_1.jpg,Red_Triangle_Chess_4.jpg,Purple_Circle_Grid_1.jpg,right,1120.9999999993015,false,high,NA,NA,NA,NA,NA,NA,NA,false
FbP9uNsB,3axfspqoztbswwyvx39ztaxp9nrfjw,3lq8puhqfp5i213p1dh19eqtyljihw,FbP9uNsB,2020-0188,2020-05-21,17:13:32,17:36:39,NA,incomplete,71,shape,1,left,Red_Plus_Grid_3.jpg,Purple_Plus_Dots_2.jpg,Blue_Circle_Stripes_3.jpg,left,887.9999999990687,true,high,NA,NA,NA,NA,NA,NA,NA,false
FbP9uNsB,3axfspqoztbswwyvx39ztaxp9nrfjw,3lq8puhqfp5i213p1dh19eqtyljihw,FbP9uNsB,2020-0188,2020-05-21,17:13:32,17:36:39,NA,incomplete,72,shape,1,left,Red_Star_Chess_2.jpg,Blue_Star_Dots_1.jpg,Purple_Plus_Grid_2.jpg,left,858.0000000002328,true,high,NA,NA,NA,NA,NA,NA,NA,false
FbP9uNsB,3axfspqoztbswwyvx39ztaxp9nrfjw,3lq8puhqfp5i213p1dh19eqtyljihw,FbP9uNsB,2020-0188,2020-05-21,17:13:32,17:36:39,NA,incomplete,73,shape,1,right,Purple_Plus_Chess_2.jpg,Green_Star_Grid_2.jpg,Red_Plus_Dots_1.jpg,right,1152.9999999983702,true,high,NA,NA,NA,NA,NA,NA,NA,false
FbP9uNsB,3axfspqoztbswwyvx39ztaxp9nrfjw,3lq8puhqfp5i213p1dh19eqtyljihw,FbP9uNsB,2020-0188,2020-05-21,17:13:32,17:36:39,NA,incomplete,74,shape,1,left,Green_Plus_Stripes_1.jpg,Blue_Plus_Dots_2.jpg,Purple_Triangle_Chess_1.jpg,left,832.9999999988358,true,high,NA,NA,NA,NA,NA,NA,NA,false
FbP9uNsB,3axfspqoztbswwyvx39ztaxp9nrfjw,3lq8puhqfp5i213p1dh19eqtyljihw,FbP9uNsB,2020-0188,2020-05-21,17:13:32,17:36:39,NA,incomplete,75,shape,1,right,Purple_Plus_Stripes_4.jpg,Blue_Star_Dots_4.jpg,Green_Plus_Grid_1.jpg,right,1209.0000000025611,true,high,NA,NA,NA,NA,NA,NA,NA,false
FbP9uNsB,3axfspqoztbswwyvx39ztaxp9nrfjw,3lq8puhqfp5i213p1dh19eqtyljihw,FbP9uNsB,2020-0188,2020-05-21,17:13:32,17:36:39,NA,incomplete,76,shape,0,right,Purple_Triangle_Dots_1.jpg,Blue_Circle_Grid_1.jpg,Red_Triangle_Stripes_2.jpg,left,824.999999997206,false,high,NA,NA,NA,NA,NA,NA,NA,false
FbP9uNsB,3axfspqoztbswwyvx39ztaxp9nrfjw,3lq8puhqfp5i213p1dh19eqtyljihw,FbP9uNsB,2020-0188,2020-05-21,17:13:32,17:36:39,NA,incomplete,77,shape,1,left,Green_Circle_Dots_4.jpg,Blue_Circle_Chess_3.jpg,Purple_Plus_Grid_4.jpg,right,1389.000000002794,false,high,NA,NA,NA,NA,NA,NA,NA,false
FbP9uNsB,3axfspqoztbswwyvx39ztaxp9nrfjw,3lq8puhqfp5i213p1dh19eqtyljihw,FbP9uNsB,2020-0188,2020-05-21,17:13:32,17:36:39,NA,incomplete,78,shape,1,right,Purple_Triangle_Dots_2.jpg,Blue_Plus_Stripes_2.jpg,Green_Triangle_Chess_3.jpg,left,824.9999999969732,false,high,NA,NA,NA,NA,NA,NA,NA,false
FbP9uNsB,3axfspqoztbswwyvx39ztaxp9nrfjw,3lq8puhqfp5i213p1dh19eqtyljihw,FbP9uNsB,2020-0188,2020-05-21,17:13:32,17:36:39,NA,incomplete,79,shape,1,right,Green_Circle_Stripes_2.jpg,Red_Triangle_Dots_2.jpg,Blue_Circle_Chess_1.jpg,right,868.0000000022119,true,high,NA,NA,NA,NA,NA,NA,NA,false
FbP9uNsB,3axfspqoztbswwyvx39ztaxp9nrfjw,3lq8puhqfp5i213p1dh19eqtyljihw,FbP9uNsB,2020-0188,2020-05-21,17:13:32,17:36:39,NA,incomplete,80,number,1,left,Purple_Star_Chess_4.jpg,Red_Triangle_Dots_4.jpg,Blue_Star_Grid_3.jpg,right,892.9999999965075,false,high,NA,NA,NA,NA,NA,NA,NA,false
FbP9uNsB,3axfspqoztbswwyvx39ztaxp9nrfjw,3lq8puhqfp5i213p1dh19eqtyljihw,FbP9uNsB,2020-0188,2020-05-21,17:13:32,17:36:39,NA,incomplete,81,number,1,left,Green_Plus_Stripes_3.jpg,Purple_Triangle_Chess_3.jpg,Blue_Plus_Grid_1.jpg,left,769.9999999968568,true,high,NA,NA,NA,NA,NA,NA,NA,false
FbP9uNsB,3axfspqoztbswwyvx39ztaxp9nrfjw,3lq8puhqfp5i213p1dh19eqtyljihw,FbP9uNsB,2020-0188,2020-05-21,17:13:32,17:36:39,NA,incomplete,82,number,0,right,Red_Plus_Dots_2.jpg,Purple_Plus_Chess_1.jpg,Green_Star_Stripes_2.jpg,right,843.9999999973224,true,high,NA,NA,NA,NA,NA,NA,NA,false
FbP9uNsB,3axfspqoztbswwyvx39ztaxp9nrfjw,3lq8puhqfp5i213p1dh19eqtyljihw,FbP9uNsB,2020-0188,2020-05-21,17:13:32,17:36:39,NA,incomplete,83,number,1,right,Green_Circle_Dots_4.jpg,Blue_Circle_Chess_1.jpg,Purple_Plus_Grid_4.jpg,right,819.0000000031432,true,high,NA,NA,NA,NA,NA,NA,NA,false
FbP9uNsB,3axfspqoztbswwyvx39ztaxp9nrfjw,3lq8puhqfp5i213p1dh19eqtyljihw,FbP9uNsB,2020-0188,2020-05-21,17:13:32,17:36:39,NA,incomplete,84,number,1,right,Purple_Triangle_Stripes_3.jpg,Red_Triangle_Grid_1.jpg,Green_Circle_Chess_3.jpg,right,755.0000000046566,true,high,NA,NA,NA,NA,NA,NA,NA,false
FbP9uNsB,3axfspqoztbswwyvx39ztaxp9nrfjw,3lq8puhqfp5i213p1dh19eqtyljihw,FbP9uNsB,2020-0188,2020-05-21,17:13:32,17:36:39,NA,incomplete,85,number,1,right,Purple_Circle_Stripes_2.jpg,Red_Circle_Grid_1.jpg,Green_Plus_Chess_2.jpg,right,817.000000002794,true,high,NA,NA,NA,NA,NA,NA,NA,false
FbP9uNsB,3axfspqoztbswwyvx39ztaxp9nrfjw,3lq8puhqfp5i213p1dh19eqtyljihw,FbP9uNsB,2020-0188,2020-05-21,17:13:32,17:36:39,NA,incomplete,86,number,1,right,Blue_Circle_Stripes_3.jpg,Purple_Circle_Chess_1.jpg,Red_Plus_Grid_3.jpg,right,696.0000000036089,true,high,NA,NA,NA,NA,NA,NA,NA,false
FbP9uNsB,3axfspqoztbswwyvx39ztaxp9nrfjw,3lq8puhqfp5i213p1dh19eqtyljihw,FbP9uNsB,2020-0188,2020-05-21,17:13:32,17:36:39,NA,incomplete,87,number,1,left,Purple_Star_Dots_2.jpg,Blue_Plus_Stripes_2.jpg,Green_Star_Grid_3.jpg,left,705.0000000017462,true,high,NA,NA,NA,NA,NA,NA,NA,false
FbP9uNsB,3axfspqoztbswwyvx39ztaxp9nrfjw,3lq8puhqfp5i213p1dh19eqtyljihw,FbP9uNsB,2020-0188,2020-05-21,17:13:32,17:36:39,NA,incomplete,88,number,1,right,Green_Star_Grid_1.jpg,Blue_Star_Dots_3.jpg,Red_Circle_Stripes_1.jpg,right,639.0000000029104,true,high,NA,NA,NA,NA,NA,NA,NA,false
FbP9uNsB,3axfspqoztbswwyvx39ztaxp9nrfjw,3lq8puhqfp5i213p1dh19eqtyljihw,FbP9uNsB,2020-0188,2020-05-21,17:13:32,17:36:39,NA,incomplete,89,number,1,right,Green_Circle_Stripes_3.jpg,Blue_Circle_Grid_4.jpg,Red_Triangle_Dots_3.jpg,right,870.9999999990687,true,high,NA,NA,NA,NA,NA,NA,NA,false
FbP9uNsB,3axfspqoztbswwyvx39ztaxp9nrfjw,3lq8puhqfp5i213p1dh19eqtyljihw,FbP9uNsB,2020-0188,2020-05-21,17:13:32,17:36:39,NA,incomplete,90,shape,0,right,Green_Star_Dots_2.jpg,Purple_Plus_Grid_2.jpg,Red_Star_Chess_4.jpg,left,694.9999999997672,false,high,NA,NA,NA,NA,NA,NA,NA,false
FbP9uNsB,3axfspqoztbswwyvx39ztaxp9nrfjw,3lq8puhqfp5i213p1dh19eqtyljihw,FbP9uNsB,2020-0188,2020-05-21,17:13:32,17:36:39,NA,incomplete,91,shape,1,right,Red_Triangle_Grid_2.jpg,Green_Plus_Chess_2.jpg,Blue_Triangle_Stripes_3.jpg,left,694.9999999997672,false,high,NA,NA,NA,NA,NA,NA,NA,false
FbP9uNsB,3axfspqoztbswwyvx39ztaxp9nrfjw,3lq8puhqfp5i213p1dh19eqtyljihw,FbP9uNsB,2020-0188,2020-05-21,17:13:32,17:36:39,NA,incomplete,92,shape,1,left,Blue_Triangle_Grid_4.jpg,Green_Triangle_Chess_3.jpg,Red_Star_Dots_4.jpg,left,743.0000000023283,true,high,NA,NA,NA,NA,NA,NA,NA,false
FbP9uNsB,3axfspqoztbswwyvx39ztaxp9nrfjw,3lq8puhqfp5i213p1dh19eqtyljihw,FbP9uNsB,2020-0188,2020-05-21,17:13:32,17:36:39,NA,incomplete,93,shape,0,left,Green_Star_Grid_2.jpg,Blue_Star_Stripes_3.jpg,Purple_Triangle_Dots_2.jpg,right,763.0000000062864,false,high,NA,NA,NA,NA,NA,NA,NA,false
FbP9uNsB,3axfspqoztbswwyvx39ztaxp9nrfjw,3lq8puhqfp5i213p1dh19eqtyljihw,FbP9uNsB,2020-0188,2020-05-21,17:13:32,17:36:39,NA,incomplete,94,shape,1,right,Blue_Triangle_Chess_3.jpg,Red_Star_Dots_3.jpg,Green_Triangle_Stripes_4.jpg,right,782.0000000065193,true,high,NA,NA,NA,NA,NA,NA,NA,false
FbP9uNsB,3axfspqoztbswwyvx39ztaxp9nrfjw,3lq8puhqfp5i213p1dh19eqtyljihw,FbP9uNsB,2020-0188,2020-05-21,17:13:32,17:36:39,NA,incomplete,95,shape,1,left,Purple_Plus_Stripes_2.jpg,Blue_Plus_Dots_1.jpg,Green_Circle_Chess_2.jpg,left,711.0000000030268,true,high,NA,NA,NA,NA,NA,NA,NA,false
FbP9uNsB,3axfspqoztbswwyvx39ztaxp9nrfjw,3lq8puhqfp5i213p1dh19eqtyljihw,FbP9uNsB,2020-0188,2020-05-21,17:13:32,17:36:39,NA,incomplete,96,shape,1,left,Blue_Triangle_Dots_1.jpg,Purple_Triangle_Grid_2.jpg,Green_Circle_Chess_1.jpg,left,709.0000000025611,true,high,NA,NA,NA,NA,NA,NA,NA,false
FbP9uNsB,3axfspqoztbswwyvx39ztaxp9nrfjw,3lq8puhqfp5i213p1dh19eqtyljihw,FbP9uNsB,2020-0188,2020-05-21,17:13:32,17:36:39,NA,incomplete,97,shape,1,left,Blue_Star_Grid_1.jpg,Green_Star_Dots_4.jpg,Red_Triangle_Stripes_1.jpg,left,866.0000000017462,true,high,NA,NA,NA,NA,NA,NA,NA,false
FbP9uNsB,3axfspqoztbswwyvx39ztaxp9nrfjw,3lq8puhqfp5i213p1dh19eqtyljihw,FbP9uNsB,2020-0188,2020-05-21,17:13:32,17:36:39,NA,incomplete,98,shape,1,left,Green_Circle_Stripes_1.jpg,Purple_Circle_Chess_2.jpg,Blue_Star_Dots_1.jpg,left,738.0000000048894,true,high,NA,NA,NA,NA,NA,NA,NA,false
FbP9uNsB,3axfspqoztbswwyvx39ztaxp9nrfjw,3lq8puhqfp5i213p1dh19eqtyljihw,FbP9uNsB,2020-0188,2020-05-21,17:13:32,17:36:39,NA,incomplete,99,shape,1,left,Blue_Triangle_Chess_1.jpg,Red_Triangle_Dots_2.jpg,Purple_Star_Stripes_1.jpg,left,711.0000000029104,true,high,NA,NA,NA,NA,NA,NA,NA,false
FbP9uNsB,3axfspqoztbswwyvx39ztaxp9nrfjw,3lq8puhqfp5i213p1dh19eqtyljihw,FbP9uNsB,2020-0188,2020-05-21,17:13:32,17:36:39,NA,incomplete,100,number,1,left,Red_Circle_Dots_4.jpg,Blue_Triangle_Grid_4.jpg,Purple_Circle_Stripes_1.jpg,left,762.0000000024447,true,high,NA,NA,NA,NA,NA,NA,NA,false
FbP9uNsB,3axfspqoztbswwyvx39ztaxp9nrfjw,3lq8puhqfp5i213p1dh19eqtyljihw,FbP9uNsB,2020-0188,2020-05-21,17:13:32,17:36:39,NA,incomplete,101,number,1,left,Red_Triangle_Stripes_2.jpg,Blue_Star_Dots_2.jpg,Green_Triangle_Chess_4.jpg,right,915.9999999974389,false,high,NA,NA,NA,NA,NA,NA,NA,false
FbP9uNsB,3axfspqoztbswwyvx39ztaxp9nrfjw,3lq8puhqfp5i213p1dh19eqtyljihw,FbP9uNsB,2020-0188,2020-05-21,17:13:32,17:36:39,NA,incomplete,102,number,1,right,Red_Triangle_Grid_3.jpg,Purple_Triangle_Dots_1.jpg,Green_Circle_Stripes_3.jpg,right,986.0000000044238,true,high,NA,NA,NA,NA,NA,NA,NA,false
FbP9uNsB,3axfspqoztbswwyvx39ztaxp9nrfjw,3lq8puhqfp5i213p1dh19eqtyljihw,FbP9uNsB,2020-0188,2020-05-21,17:13:32,17:36:39,NA,incomplete,103,number,1,right,Blue_Triangle_Chess_4.jpg,Green_Triangle_Stripes_3.jpg,Purple_Star_Grid_4.jpg,right,826.9999999975553,true,high,NA,NA,NA,NA,NA,NA,NA,false
FbP9uNsB,3axfspqoztbswwyvx39ztaxp9nrfjw,3lq8puhqfp5i213p1dh19eqtyljihw,FbP9uNsB,2020-0188,2020-05-21,17:13:32,17:36:39,NA,incomplete,104,number,1,left,Blue_Plus_Stripes_4.jpg,Purple_Circle_Dots_4.jpg,Green_Plus_Chess_1.jpg,left,802.0000000032596,true,high,NA,NA,NA,NA,NA,NA,NA,false
FbP9uNsB,3axfspqoztbswwyvx39ztaxp9nrfjw,3lq8puhqfp5i213p1dh19eqtyljihw,FbP9uNsB,2020-0188,2020-05-21,17:13:32,17:36:39,NA,incomplete,105,number,0,left,Red_Circle_Chess_4.jpg,Purple_Triangle_Stripes_4.jpg,Blue_Circle_Dots_3.jpg,left,858.9999999967404,true,high,NA,NA,NA,NA,NA,NA,NA,false
FbP9uNsB,3axfspqoztbswwyvx39ztaxp9nrfjw,3lq8puhqfp5i213p1dh19eqtyljihw,FbP9uNsB,2020-0188,2020-05-21,17:13:32,17:36:39,NA,incomplete,106,number,1,right,Purple_Circle_Grid_4.jpg,Red_Circle_Dots_3.jpg,Green_Triangle_Chess_4.jpg,right,976.9999999990687,true,high,NA,NA,NA,NA,NA,NA,NA,false
FbP9uNsB,3axfspqoztbswwyvx39ztaxp9nrfjw,3lq8puhqfp5i213p1dh19eqtyljihw,FbP9uNsB,2020-0188,2020-05-21,17:13:32,17:36:39,NA,incomplete,107,number,1,right,Blue_Star_Chess_1.jpg,Purple_Star_Dots_2.jpg,Red_Plus_Grid_1.jpg,right,1006.9999999977881,true,high,NA,NA,NA,NA,NA,NA,NA,false
FbP9uNsB,3axfspqoztbswwyvx39ztaxp9nrfjw,3lq8puhqfp5i213p1dh19eqtyljihw,FbP9uNsB,2020-0188,2020-05-21,17:13:32,17:36:39,NA,incomplete,108,number,1,right,Blue_Star_Chess_3.jpg,Red_Star_Dots_1.jpg,Green_Plus_Stripes_3.jpg,right,778.9999999949941,true,high,NA,NA,NA,NA,NA,NA,NA,false
FbP9uNsB,3axfspqoztbswwyvx39ztaxp9nrfjw,3lq8puhqfp5i213p1dh19eqtyljihw,FbP9uNsB,2020-0188,2020-05-21,17:13:32,17:36:39,NA,incomplete,109,number,1,left,Green_Circle_Grid_1.jpg,Red_Plus_Chess_1.jpg,Blue_Circle_Stripes_3.jpg,left,596.9999999941792,true,high,NA,NA,NA,NA,NA,NA,NA,false
FbP9uNsB,3axfspqoztbswwyvx39ztaxp9nrfjw,3lq8puhqfp5i213p1dh19eqtyljihw,FbP9uNsB,2020-0188,2020-05-21,17:13:32,17:36:39,NA,incomplete,110,shape,1,left,Red_Circle_Dots_4.jpg,Blue_Circle_Stripes_1.jpg,Purple_Plus_Chess_4.jpg,right,720.0000000011642,false,high,NA,NA,NA,NA,NA,NA,NA,false
FbP9uNsB,3axfspqoztbswwyvx39ztaxp9nrfjw,3lq8puhqfp5i213p1dh19eqtyljihw,FbP9uNsB,2020-0188,2020-05-21,17:13:32,17:36:39,NA,incomplete,111,shape,0,right,Red_Star_Grid_4.jpg,Blue_Triangle_Dots_4.jpg,Purple_Star_Chess_1.jpg,right,876.0000000038417,true,high,NA,NA,NA,NA,NA,NA,NA,false
FbP9uNsB,3axfspqoztbswwyvx39ztaxp9nrfjw,3lq8puhqfp5i213p1dh19eqtyljihw,FbP9uNsB,2020-0188,2020-05-21,17:13:32,17:36:39,NA,incomplete,112,shape,1,right,Blue_Star_Chess_1.jpg,Red_Triangle_Grid_1.jpg,Purple_Star_Stripes_2.jpg,left,841.9999999968568,false,high,NA,NA,NA,NA,NA,NA,NA,false
FbP9uNsB,3axfspqoztbswwyvx39ztaxp9nrfjw,3lq8puhqfp5i213p1dh19eqtyljihw,FbP9uNsB,2020-0188,2020-05-21,17:13:32,17:36:39,NA,incomplete,113,shape,1,right,Red_Star_Chess_1.jpg,Purple_Triangle_Dots_1.jpg,Green_Star_Grid_2.jpg,right,766.0000000032596,true,high,NA,NA,NA,NA,NA,NA,NA,false
FbP9uNsB,3axfspqoztbswwyvx39ztaxp9nrfjw,3lq8puhqfp5i213p1dh19eqtyljihw,FbP9uNsB,2020-0188,2020-05-21,17:13:32,17:36:39,NA,incomplete,114,shape,1,left,Red_Plus_Grid_1.jpg,Green_Plus_Stripes_3.jpg,Purple_Triangle_Chess_1.jpg,left,790.9999999974389,true,high,NA,NA,NA,NA,NA,NA,NA,false
FbP9uNsB,3axfspqoztbswwyvx39ztaxp9nrfjw,3lq8puhqfp5i213p1dh19eqtyljihw,FbP9uNsB,2020-0188,2020-05-21,17:13:32,17:36:39,NA,incomplete,115,shape,0,left,Red_Circle_Grid_1.jpg,Purple_Circle_Chess_4.jpg,Blue_Triangle_Dots_1.jpg,right,951.9999999975553,false,high,NA,NA,NA,NA,NA,NA,NA,false
FbP9uNsB,3axfspqoztbswwyvx39ztaxp9nrfjw,3lq8puhqfp5i213p1dh19eqtyljihw,FbP9uNsB,2020-0188,2020-05-21,17:13:32,17:36:39,NA,incomplete,116,shape,1,right,Purple_Star_Grid_1.jpg,Red_Circle_Dots_1.jpg,Green_Star_Chess_4.jpg,left,694.0000000031432,false,high,NA,NA,NA,NA,NA,NA,NA,false
FbP9uNsB,3axfspqoztbswwyvx39ztaxp9nrfjw,3lq8puhqfp5i213p1dh19eqtyljihw,FbP9uNsB,2020-0188,2020-05-21,17:13:32,17:36:39,NA,incomplete,117,shape,1,left,Blue_Star_Dots_3.jpg,Green_Star_Chess_2.jpg,Purple_Plus_Grid_3.jpg,right,879.9999999973224,false,high,NA,NA,NA,NA,NA,NA,NA,false
FbP9uNsB,3axfspqoztbswwyvx39ztaxp9nrfjw,3lq8puhqfp5i213p1dh19eqtyljihw,FbP9uNsB,2020-0188,2020-05-21,17:13:32,17:36:39,NA,incomplete,118,shape,1,right,Blue_Triangle_Dots_2.jpg,Red_Star_Stripes_2.jpg,Green_Triangle_Grid_3.jpg,right,1016.9999999998836,true,high,NA,NA,NA,NA,NA,NA,NA,false
FbP9uNsB,3axfspqoztbswwyvx39ztaxp9nrfjw,3lq8puhqfp5i213p1dh19eqtyljihw,FbP9uNsB,2020-0188,2020-05-21,17:13:32,17:36:39,NA,incomplete,119,shape,0,left,Green_Circle_Dots_3.jpg,Red_Circle_Stripes_1.jpg,Blue_Star_Grid_3.jpg,left,1072.0000000001164,true,high,NA,NA,NA,NA,NA,NA,NA,false
FbP9uNsB,3axfspqoztbswwyvx39ztaxp9nrfjw,3lq8puhqfp5i213p1dh19eqtyljihw,FbP9uNsB,2020-0188,2020-05-21,17:13:32,17:36:39,NA,incomplete,120,filling,1,left,Red_Star_Dots_2.jpg,Purple_Circle_Dots_3.jpg,Red_Plus_Stripes_1.jpg,NA,NA,NA,high,NA,NA,NA,NA,NA,NA,NA,false
FbP9uNsB,3axfspqoztbswwyvx39ztaxp9nrfjw,3lq8puhqfp5i213p1dh19eqtyljihw,FbP9uNsB,2020-0188,2020-05-21,17:13:32,17:36:39,NA,incomplete,121,filling,0,right,Purple_Star_Dots_1.jpg,Purple_Circle_Grid_4.jpg,Red_Triangle_Dots_3.jpg,left,1627.9999999969732,false,high,NA,NA,NA,NA,NA,NA,NA,false
FbP9uNsB,3axfspqoztbswwyvx39ztaxp9nrfjw,3lq8puhqfp5i213p1dh19eqtyljihw,FbP9uNsB,2020-0188,2020-05-21,17:13:32,17:36:39,NA,incomplete,122,filling,1,right,Blue_Plus_Chess_4.jpg,Blue_Star_Stripes_2.jpg,Green_Triangle_Chess_3.jpg,left,1061.9999999981374,false,high,NA,NA,NA,NA,NA,NA,NA,false
FbP9uNsB,3axfspqoztbswwyvx39ztaxp9nrfjw,3lq8puhqfp5i213p1dh19eqtyljihw,FbP9uNsB,2020-0188,2020-05-21,17:13:32,17:36:39,NA,incomplete,123,filling,1,left,Red_Plus_Grid_2.jpg,Blue_Triangle_Grid_4.jpg,Red_Circle_Dots_3.jpg,left,1339,true,high,NA,NA,NA,NA,NA,NA,NA,false
FbP9uNsB,3axfspqoztbswwyvx39ztaxp9nrfjw,3lq8puhqfp5i213p1dh19eqtyljihw,FbP9uNsB,2020-0188,2020-05-21,17:13:32,17:36:39,NA,incomplete,124,filling,1,right,Purple_Plus_Chess_2.jpg,Purple_Circle_Stripes_4.jpg,Red_Star_Chess_3.jpg,right,1227.9999999955762,true,high,NA,NA,NA,NA,NA,NA,NA,false
FbP9uNsB,3axfspqoztbswwyvx39ztaxp9nrfjw,3lq8puhqfp5i213p1dh19eqtyljihw,FbP9uNsB,2020-0188,2020-05-21,17:13:32,17:36:39,NA,incomplete,125,filling,1,left,Blue_Plus_Dots_2.jpg,Purple_Triangle_Dots_1.jpg,Blue_Star_Chess_4.jpg,left,1415.9999999974389,true,high,NA,NA,NA,NA,NA,NA,NA,false
FbP9uNsB,3axfspqoztbswwyvx39ztaxp9nrfjw,3lq8puhqfp5i213p1dh19eqtyljihw,FbP9uNsB,2020-0188,2020-05-21,17:13:32,17:36:39,NA,incomplete,126,filling,0,left,Purple_Star_Dots_2.jpg,Red_Plus_Dots_3.jpg,Purple_Circle_Stripes_1.jpg,left,1152.0000000018626,true,high,NA,NA,NA,NA,NA,NA,NA,false
FbP9uNsB,3axfspqoztbswwyvx39ztaxp9nrfjw,3lq8puhqfp5i213p1dh19eqtyljihw,FbP9uNsB,2020-0188,2020-05-21,17:13:32,17:36:39,NA,incomplete,127,filling,1,left,Blue_Circle_Stripes_3.jpg,Green_Star_Stripes_4.jpg,Blue_Triangle_Grid_1.jpg,right,924.9999999956926,false,high,NA,NA,NA,NA,NA,NA,NA,false
FbP9uNsB,3axfspqoztbswwyvx39ztaxp9nrfjw,3lq8puhqfp5i213p1dh19eqtyljihw,FbP9uNsB,2020-0188,2020-05-21,17:13:32,17:36:39,NA,incomplete,128,filling,1,left,Green_Star_Chess_4.jpg,Red_Plus_Chess_2.jpg,Green_Triangle_Dots_1.jpg,left,897.9999999937136,true,high,NA,NA,NA,NA,NA,NA,NA,false
FbP9uNsB,3axfspqoztbswwyvx39ztaxp9nrfjw,3lq8puhqfp5i213p1dh19eqtyljihw,FbP9uNsB,2020-0188,2020-05-21,17:13:32,17:36:39,NA,incomplete,129,filling,1,right,Purple_Plus_Dots_4.jpg,Purple_Circle_Stripes_2.jpg,Red_Triangle_Dots_3.jpg,right,1171.9999999987194,true,high,NA,NA,NA,NA,NA,NA,NA,false
FbP9uNsB,3axfspqoztbswwyvx39ztaxp9nrfjw,3lq8puhqfp5i213p1dh19eqtyljihw,FbP9uNsB,2020-0188,2020-05-21,17:13:32,17:36:39,NA,incomplete,130,filling,0,left,Blue_Triangle_Dots_3.jpg,Purple_Star_Dots_1.jpg,Blue_Plus_Stripes_4.jpg,left,1072,true,high,NA,NA,NA,NA,NA,NA,NA,false
FbP9uNsB,3axfspqoztbswwyvx39ztaxp9nrfjw,3lq8puhqfp5i213p1dh19eqtyljihw,FbP9uNsB,2020-0188,2020-05-21,17:13:32,17:36:39,NA,incomplete,131,filling,1,left,Blue_Circle_Dots_4.jpg,Purple_Star_Dots_3.jpg,Blue_Triangle_Stripes_2.jpg,right,955.0000000018626,false,high,NA,NA,NA,NA,NA,NA,NA,false
FbP9uNsB,3axfspqoztbswwyvx39ztaxp9nrfjw,3lq8puhqfp5i213p1dh19eqtyljihw,FbP9uNsB,2020-0188,2020-05-21,17:13:32,17:36:39,NA,incomplete,132,filling,0,left,Blue_Triangle_Grid_3.jpg,Purple_Star_Grid_4.jpg,Blue_Circle_Stripes_2.jpg,left,1154.9999999988358,true,high,NA,NA,NA,NA,NA,NA,NA,false
FbP9uNsB,3axfspqoztbswwyvx39ztaxp9nrfjw,3lq8puhqfp5i213p1dh19eqtyljihw,FbP9uNsB,2020-0188,2020-05-21,17:13:32,17:36:39,NA,incomplete,133,filling,1,left,Blue_Star_Dots_3.jpg,Red_Plus_Dots_4.jpg,Blue_Circle_Stripes_2.jpg,right,1008.0000000016298,false,high,NA,NA,NA,NA,NA,NA,NA,false
FbP9uNsB,3axfspqoztbswwyvx39ztaxp9nrfjw,3lq8puhqfp5i213p1dh19eqtyljihw,FbP9uNsB,2020-0188,2020-05-21,17:13:32,17:36:39,NA,incomplete,134,filling,1,left,Purple_Circle_Dots_2.jpg,Red_Star_Dots_3.jpg,Purple_Triangle_Stripes_4.jpg,left,944.0000000030268,true,high,NA,NA,NA,NA,NA,NA,NA,false
FbP9uNsB,3axfspqoztbswwyvx39ztaxp9nrfjw,3lq8puhqfp5i213p1dh19eqtyljihw,FbP9uNsB,2020-0188,2020-05-21,17:13:32,17:36:39,NA,incomplete,135,filling,0,right,Red_Triangle_Dots_3.jpg,Red_Circle_Grid_2.jpg,Purple_Plus_Dots_1.jpg,right,911.0000000002328,true,high,NA,NA,NA,NA,NA,NA,NA,false
FbP9uNsB,3axfspqoztbswwyvx39ztaxp9nrfjw,3lq8puhqfp5i213p1dh19eqtyljihw,FbP9uNsB,2020-0188,2020-05-21,17:13:32,17:36:39,NA,incomplete,136,filling,1,right,Green_Plus_Stripes_1.jpg,Green_Star_Dots_2.jpg,Blue_Triangle_Stripes_4.jpg,right,1245.9999999990687,true,high,NA,NA,NA,NA,NA,NA,NA,false
FbP9uNsB,3axfspqoztbswwyvx39ztaxp9nrfjw,3lq8puhqfp5i213p1dh19eqtyljihw,FbP9uNsB,2020-0188,2020-05-21,17:13:32,17:36:39,NA,incomplete,137,filling,1,left,Purple_Triangle_Stripes_3.jpg,Red_Circle_Stripes_4.jpg,Purple_Plus_Grid_1.jpg,left,1105.0000000032596,true,high,NA,NA,NA,NA,NA,NA,NA,false
FbP9uNsB,3axfspqoztbswwyvx39ztaxp9nrfjw,3lq8puhqfp5i213p1dh19eqtyljihw,FbP9uNsB,2020-0188,2020-05-21,17:13:32,17:36:39,NA,incomplete,138,filling,1,right,Blue_Plus_Chess_3.jpg,Blue_Triangle_Stripes_1.jpg,Red_Star_Chess_2.jpg,right,919.0000000016298,true,high,NA,NA,NA,NA,NA,NA,NA,false
FbP9uNsB,3axfspqoztbswwyvx39ztaxp9nrfjw,3lq8puhqfp5i213p1dh19eqtyljihw,FbP9uNsB,2020-0188,2020-05-21,17:13:32,17:36:39,NA,incomplete,139,filling,1,left,Blue_Triangle_Dots_3.jpg,Purple_Star_Dots_4.jpg,Blue_Plus_Grid_1.jpg,left,783.0000000030268,true,high,NA,NA,NA,NA,NA,NA,NA,false
FbP9uNsB,3axfspqoztbswwyvx39ztaxp9nrfjw,3lq8puhqfp5i213p1dh19eqtyljihw,FbP9uNsB,2020-0188,2020-05-21,17:13:32,17:36:39,NA,incomplete,140,color,1,left,Red_Circle_Chess_3.jpg,Red_Plus_Dots_4.jpg,Green_Star_Chess_1.jpg,right,759.0000000055879,false,high,NA,NA,NA,NA,NA,NA,NA,false
FbP9uNsB,3axfspqoztbswwyvx39ztaxp9nrfjw,3lq8puhqfp5i213p1dh19eqtyljihw,FbP9uNsB,2020-0188,2020-05-21,17:13:32,17:36:39,NA,incomplete,141,color,1,right,Green_Triangle_Grid_3.jpg,Red_Star_Grid_2.jpg,Green_Plus_Dots_4.jpg,left,1279.9999999988358,false,high,NA,NA,NA,NA,NA,NA,NA,false
FbP9uNsB,3axfspqoztbswwyvx39ztaxp9nrfjw,3lq8puhqfp5i213p1dh19eqtyljihw,FbP9uNsB,2020-0188,2020-05-21,17:13:32,17:36:39,NA,incomplete,142,color,1,right,Green_Star_Stripes_4.jpg,Purple_Plus_Stripes_2.jpg,Green_Circle_Chess_1.jpg,right,656.9999999993015,true,high,NA,NA,NA,NA,NA,NA,NA,false
FbP9uNsB,3axfspqoztbswwyvx39ztaxp9nrfjw,3lq8puhqfp5i213p1dh19eqtyljihw,FbP9uNsB,2020-0188,2020-05-21,17:13:32,17:36:39,NA,incomplete,143,color,1,right,Red_Plus_Dots_1.jpg,Purple_Triangle_Dots_3.jpg,Red_Star_Stripes_2.jpg,right,720.9999999976717,true,high,NA,NA,NA,NA,NA,NA,NA,false
FbP9uNsB,3axfspqoztbswwyvx39ztaxp9nrfjw,3lq8puhqfp5i213p1dh19eqtyljihw,FbP9uNsB,2020-0188,2020-05-21,17:13:32,17:36:39,NA,incomplete,144,color,1,right,Blue_Triangle_Dots_4.jpg,Green_Plus_Dots_2.jpg,Blue_Star_Stripes_3.jpg,right,699.0000000006985,true,high,NA,NA,NA,NA,NA,NA,NA,false
FbP9uNsB,3axfspqoztbswwyvx39ztaxp9nrfjw,3lq8puhqfp5i213p1dh19eqtyljihw,FbP9uNsB,2020-0188,2020-05-21,17:13:32,17:36:39,NA,incomplete,145,color,1,right,Purple_Plus_Grid_1.jpg,Blue_Star_Grid_2.jpg,Purple_Circle_Stripes_3.jpg,right,783.9999999995343,true,high,NA,NA,NA,NA,NA,NA,NA,false
FbP9uNsB,3axfspqoztbswwyvx39ztaxp9nrfjw,3lq8puhqfp5i213p1dh19eqtyljihw,FbP9uNsB,2020-0188,2020-05-21,17:13:32,17:36:39,NA,incomplete,146,color,1,left,Green_Star_Dots_4.jpg,Green_Triangle_Chess_1.jpg,Blue_Plus_Dots_3.jpg,left,926.0000000067521,true,high,NA,NA,NA,NA,NA,NA,NA,false
FbP9uNsB,3axfspqoztbswwyvx39ztaxp9nrfjw,3lq8puhqfp5i213p1dh19eqtyljihw,FbP9uNsB,2020-0188,2020-05-21,17:13:32,17:36:39,NA,incomplete,147,color,0,right,Blue_Plus_Grid_1.jpg,Green_Star_Grid_3.jpg,Blue_Circle_Chess_2.jpg,right,883.0000000016298,true,high,NA,NA,NA,NA,NA,NA,NA,false
FbP9uNsB,3axfspqoztbswwyvx39ztaxp9nrfjw,3lq8puhqfp5i213p1dh19eqtyljihw,FbP9uNsB,2020-0188,2020-05-21,17:13:32,17:36:39,NA,incomplete,148,color,1,left,Green_Circle_Grid_1.jpg,Green_Plus_Dots_4.jpg,Purple_Triangle_Grid_3.jpg,right,952.9999999939464,false,high,NA,NA,NA,NA,NA,NA,NA,false
FbP9uNsB,3axfspqoztbswwyvx39ztaxp9nrfjw,3lq8puhqfp5i213p1dh19eqtyljihw,FbP9uNsB,2020-0188,2020-05-21,17:13:32,17:36:39,NA,incomplete,149,color,0,right,Red_Star_Stripes_1.jpg,Blue_Triangle_Stripes_3.jpg,Red_Plus_Dots_2.jpg,left,1192.0000000025611,false,high,NA,NA,NA,NA,NA,NA,NA,false
FbP9uNsB,3axfspqoztbswwyvx39ztaxp9nrfjw,3lq8puhqfp5i213p1dh19eqtyljihw,FbP9uNsB,2020-0188,2020-05-21,17:13:32,17:36:39,NA,incomplete,150,color,1,right,Green_Star_Chess_3.jpg,Red_Triangle_Chess_4.jpg,Green_Plus_Dots_2.jpg,left,870.9999999990687,false,high,NA,NA,NA,NA,NA,NA,NA,false
FbP9uNsB,3axfspqoztbswwyvx39ztaxp9nrfjw,3lq8puhqfp5i213p1dh19eqtyljihw,FbP9uNsB,2020-0188,2020-05-21,17:13:32,17:36:39,NA,incomplete,151,color,1,left,Blue_Circle_Stripes_4.jpg,Blue_Star_Chess_3.jpg,Green_Triangle_Stripes_2.jpg,left,947.9999999967404,true,high,NA,NA,NA,NA,NA,NA,NA,false
FbP9uNsB,3axfspqoztbswwyvx39ztaxp9nrfjw,3lq8puhqfp5i213p1dh19eqtyljihw,FbP9uNsB,2020-0188,2020-05-21,17:13:32,17:36:39,NA,incomplete,152,color,0,right,Red_Triangle_Chess_3.jpg,Green_Circle_Chess_1.jpg,Red_Star_Stripes_4.jpg,right,680.0000000004657,true,high,NA,NA,NA,NA,NA,NA,NA,false
FbP9uNsB,3axfspqoztbswwyvx39ztaxp9nrfjw,3lq8puhqfp5i213p1dh19eqtyljihw,FbP9uNsB,2020-0188,2020-05-21,17:13:32,17:36:39,NA,incomplete,153,color,1,left,Blue_Star_Chess_1.jpg,Blue_Triangle_Stripes_2.jpg,Red_Plus_Chess_4.jpg,left,917.9999999976717,true,high,NA,NA,NA,NA,NA,NA,NA,false
FbP9uNsB,3axfspqoztbswwyvx39ztaxp9nrfjw,3lq8puhqfp5i213p1dh19eqtyljihw,FbP9uNsB,2020-0188,2020-05-21,17:13:32,17:36:39,NA,incomplete,154,color,0,right,Red_Triangle_Stripes_3.jpg,Blue_Circle_Stripes_1.jpg,Red_Plus_Grid_2.jpg,right,783.9999999997672,true,high,NA,NA,NA,NA,NA,NA,NA,false
FbP9uNsB,3axfspqoztbswwyvx39ztaxp9nrfjw,3lq8puhqfp5i213p1dh19eqtyljihw,FbP9uNsB,2020-0188,2020-05-21,17:13:32,17:36:39,NA,incomplete,155,color,1,right,Purple_Circle_Chess_2.jpg,Blue_Triangle_Chess_3.jpg,Purple_Plus_Stripes_4.jpg,left,891.0000000032596,false,high,NA,NA,NA,NA,NA,NA,NA,false
FbP9uNsB,3axfspqoztbswwyvx39ztaxp9nrfjw,3lq8puhqfp5i213p1dh19eqtyljihw,FbP9uNsB,2020-0188,2020-05-21,17:13:32,17:36:39,NA,incomplete,156,color,1,left,Red_Plus_Dots_3.jpg,Red_Circle_Stripes_1.jpg,Green_Star_Dots_2.jpg,right,1017.9999999965075,false,high,NA,NA,NA,NA,NA,NA,NA,false
FbP9uNsB,3axfspqoztbswwyvx39ztaxp9nrfjw,3lq8puhqfp5i213p1dh19eqtyljihw,FbP9uNsB,2020-0188,2020-05-21,17:13:32,17:36:39,NA,incomplete,157,color,1,right,Red_Plus_Grid_1.jpg,Blue_Circle_Grid_4.jpg,Red_Star_Stripes_3.jpg,left,1127.0000000004657,false,high,NA,NA,NA,NA,NA,NA,NA,false
FbP9uNsB,3axfspqoztbswwyvx39ztaxp9nrfjw,3lq8puhqfp5i213p1dh19eqtyljihw,FbP9uNsB,2020-0188,2020-05-21,17:13:32,17:36:39,NA,incomplete,158,color,1,left,Red_Triangle_Dots_1.jpg,Red_Circle_Grid_4.jpg,Blue_Plus_Dots_3.jpg,right,918.9999999944121,false,high,NA,NA,NA,NA,NA,NA,NA,false
FbP9uNsB,3axfspqoztbswwyvx39ztaxp9nrfjw,3lq8puhqfp5i213p1dh19eqtyljihw,FbP9uNsB,2020-0188,2020-05-21,17:13:32,17:36:39,NA,incomplete,159,color,1,left,Purple_Triangle_Stripes_1.jpg,Purple_Circle_Dots_3.jpg,Green_Star_Stripes_2.jpg,left,963.9999999997672,true,high,NA,NA,NA,NA,NA,NA,NA,false
FbP9uNsB,3axfspqoztbswwyvx39ztaxp9nrfjw,3lq8puhqfp5i213p1dh19eqtyljihw,FbP9uNsB,2020-0188,2020-05-21,17:13:32,17:36:39,NA,incomplete,160,filling,1,left,Purple_Circle_Stripes_1.jpg,Blue_Plus_Stripes_3.jpg,Purple_Star_Dots_4.jpg,right,786.9999999965075,false,high,NA,NA,NA,NA,NA,NA,NA,false
FbP9uNsB,3axfspqoztbswwyvx39ztaxp9nrfjw,3lq8puhqfp5i213p1dh19eqtyljihw,FbP9uNsB,2020-0188,2020-05-21,17:13:32,17:36:39,NA,incomplete,161,filling,1,right,Red_Star_Chess_4.jpg,Red_Circle_Stripes_1.jpg,Purple_Triangle_Chess_2.jpg,left,942.000000002794,false,high,NA,NA,NA,NA,NA,NA,NA,false
FbP9uNsB,3axfspqoztbswwyvx39ztaxp9nrfjw,3lq8puhqfp5i213p1dh19eqtyljihw,FbP9uNsB,2020-0188,2020-05-21,17:13:32,17:36:39,NA,incomplete,162,filling,0,left,Red_Plus_Stripes_4.jpg,Green_Star_Stripes_2.jpg,Red_Circle_Chess_1.jpg,left,1597.0000000016298,true,high,NA,NA,NA,NA,NA,NA,NA,false
FbP9uNsB,3axfspqoztbswwyvx39ztaxp9nrfjw,3lq8puhqfp5i213p1dh19eqtyljihw,FbP9uNsB,2020-0188,2020-05-21,17:13:32,17:36:39,NA,incomplete,163,filling,1,right,Blue_Plus_Dots_4.jpg,Blue_Star_Stripes_2.jpg,Red_Circle_Dots_3.jpg,left,824.0000000004657,false,high,NA,NA,NA,NA,NA,NA,NA,false
FbP9uNsB,3axfspqoztbswwyvx39ztaxp9nrfjw,3lq8puhqfp5i213p1dh19eqtyljihw,FbP9uNsB,2020-0188,2020-05-21,17:13:32,17:36:39,NA,incomplete,164,filling,1,left,Green_Star_Dots_4.jpg,Red_Triangle_Dots_3.jpg,Green_Circle_Stripes_1.jpg,left,984.0000000039581,true,high,NA,NA,NA,NA,NA,NA,NA,false
FbP9uNsB,3axfspqoztbswwyvx39ztaxp9nrfjw,3lq8puhqfp5i213p1dh19eqtyljihw,FbP9uNsB,2020-0188,2020-05-21,17:13:32,17:36:39,NA,incomplete,165,filling,0,left,Blue_Triangle_Stripes_3.jpg,Red_Plus_Stripes_4.jpg,Blue_Circle_Dots_2.jpg,left,798.9999999990687,true,high,NA,NA,NA,NA,NA,NA,NA,false
FbP9uNsB,3axfspqoztbswwyvx39ztaxp9nrfjw,3lq8puhqfp5i213p1dh19eqtyljihw,FbP9uNsB,2020-0188,2020-05-21,17:13:32,17:36:39,NA,incomplete,166,filling,1,right,Purple_Plus_Chess_4.jpg,Purple_Star_Dots_3.jpg,Green_Triangle_Chess_1.jpg,right,867.9999999948777,true,high,NA,NA,NA,NA,NA,NA,NA,false
FbP9uNsB,3axfspqoztbswwyvx39ztaxp9nrfjw,3lq8puhqfp5i213p1dh19eqtyljihw,FbP9uNsB,2020-0188,2020-05-21,17:13:32,17:36:39,NA,incomplete,167,filling,1,right,Purple_Plus_Stripes_1.jpg,Purple_Circle_Chess_3.jpg,Red_Star_Stripes_4.jpg,right,988.0000000048894,true,high,NA,NA,NA,NA,NA,NA,NA,false
FbP9uNsB,3axfspqoztbswwyvx39ztaxp9nrfjw,3lq8puhqfp5i213p1dh19eqtyljihw,FbP9uNsB,2020-0188,2020-05-21,17:13:32,17:36:39,NA,incomplete,168,filling,1,left,Green_Circle_Stripes_2.jpg,Purple_Plus_Stripes_3.jpg,Green_Triangle_Chess_4.jpg,left,923.9999999990687,true,high,NA,NA,NA,NA,NA,NA,NA,false
FbP9uNsB,3axfspqoztbswwyvx39ztaxp9nrfjw,3lq8puhqfp5i213p1dh19eqtyljihw,FbP9uNsB,2020-0188,2020-05-21,17:13:32,17:36:39,NA,incomplete,169,filling,1,right,Purple_Star_Grid_1.jpg,Purple_Plus_Dots_3.jpg,Red_Circle_Grid_2.jpg,right,697.9999999965075,true,high,NA,NA,NA,NA,NA,NA,NA,false
FbP9uNsB,3axfspqoztbswwyvx39ztaxp9nrfjw,3lq8puhqfp5i213p1dh19eqtyljihw,FbP9uNsB,2020-0188,2020-05-21,17:13:32,17:36:39,NA,incomplete,170,filling,1,right,Red_Circle_Chess_4.jpg,Red_Star_Stripes_2.jpg,Purple_Triangle_Chess_1.jpg,right,783.0000000030268,true,high,NA,NA,NA,NA,NA,NA,NA,false
FbP9uNsB,3axfspqoztbswwyvx39ztaxp9nrfjw,3lq8puhqfp5i213p1dh19eqtyljihw,FbP9uNsB,2020-0188,2020-05-21,17:13:32,17:36:39,NA,incomplete,171,filling,1,right,Green_Star_Stripes_4.jpg,Green_Triangle_Dots_3.jpg,Purple_Circle_Stripes_2.jpg,right,652.9999999983702,true,high,NA,NA,NA,NA,NA,NA,NA,false
FbP9uNsB,3axfspqoztbswwyvx39ztaxp9nrfjw,3lq8puhqfp5i213p1dh19eqtyljihw,FbP9uNsB,2020-0188,2020-05-21,17:13:32,17:36:39,NA,incomplete,172,filling,1,right,Purple_Circle_Chess_1.jpg,Purple_Triangle_Grid_4.jpg,Green_Star_Chess_3.jpg,right,767.9999999965075,true,high,NA,NA,NA,NA,NA,NA,NA,false
FbP9uNsB,3axfspqoztbswwyvx39ztaxp9nrfjw,3lq8puhqfp5i213p1dh19eqtyljihw,FbP9uNsB,2020-0188,2020-05-21,17:13:32,17:36:39,NA,incomplete,173,filling,1,right,Red_Plus_Grid_4.jpg,Red_Star_Stripes_1.jpg,Blue_Triangle_Grid_2.jpg,right,737.9999999976717,true,high,NA,NA,NA,NA,NA,NA,NA,false
FbP9uNsB,3axfspqoztbswwyvx39ztaxp9nrfjw,3lq8puhqfp5i213p1dh19eqtyljihw,FbP9uNsB,2020-0188,2020-05-21,17:13:32,17:36:39,NA,incomplete,174,filling,1,left,Purple_Star_Stripes_3.jpg,Blue_Circle_Stripes_2.jpg,Purple_Triangle_Grid_1.jpg,left,582.999999998603,true,high,NA,NA,NA,NA,NA,NA,NA,false
FbP9uNsB,3axfspqoztbswwyvx39ztaxp9nrfjw,3lq8puhqfp5i213p1dh19eqtyljihw,FbP9uNsB,2020-0188,2020-05-21,17:13:32,17:36:39,NA,incomplete,175,filling,1,left,Purple_Circle_Grid_4.jpg,Blue_Star_Grid_3.jpg,Purple_Triangle_Chess_2.jpg,left,576.9999999974389,true,high,NA,NA,NA,NA,NA,NA,NA,false
FbP9uNsB,3axfspqoztbswwyvx39ztaxp9nrfjw,3lq8puhqfp5i213p1dh19eqtyljihw,FbP9uNsB,2020-0188,2020-05-21,17:13:32,17:36:39,NA,incomplete,176,filling,0,right,Green_Triangle_Grid_4.jpg,Green_Circle_Dots_2.jpg,Purple_Star_Grid_3.jpg,right,595.9999999976717,true,high,NA,NA,NA,NA,NA,NA,NA,false
FbP9uNsB,3axfspqoztbswwyvx39ztaxp9nrfjw,3lq8puhqfp5i213p1dh19eqtyljihw,FbP9uNsB,2020-0188,2020-05-21,17:13:32,17:36:39,NA,incomplete,177,filling,1,right,Red_Plus_Grid_2.jpg,Red_Star_Dots_1.jpg,Green_Triangle_Grid_4.jpg,left,791.0000000046566,false,high,NA,NA,NA,NA,NA,NA,NA,false
FbP9uNsB,3axfspqoztbswwyvx39ztaxp9nrfjw,3lq8puhqfp5i213p1dh19eqtyljihw,FbP9uNsB,2020-0188,2020-05-21,17:13:32,17:36:39,NA,incomplete,178,filling,1,left,Blue_Plus_Stripes_3.jpg,Green_Circle_Stripes_4.jpg,Blue_Star_Chess_2.jpg,right,705.9999999983702,false,high,NA,NA,NA,NA,NA,NA,NA,false
FbP9uNsB,3axfspqoztbswwyvx39ztaxp9nrfjw,3lq8puhqfp5i213p1dh19eqtyljihw,FbP9uNsB,2020-0188,2020-05-21,17:13:32,17:36:39,NA,incomplete,179,filling,1,left,Green_Plus_Dots_4.jpg,Red_Circle_Dots_3.jpg,Green_Star_Grid_1.jpg,left,620.9999999993015,true,high,NA,NA,NA,NA,NA,NA,NA,false
FbP9uNsB,3axfspqoztbswwyvx39ztaxp9nrfjw,3lq8puhqfp5i213p1dh19eqtyljihw,FbP9uNsB,2020-0188,2020-05-21,17:13:32,17:36:39,NA,incomplete,180,color,1,left,Red_Triangle_Stripes_1.jpg,Red_Star_Grid_4.jpg,Purple_Plus_Stripes_3.jpg,left,565.9999999988358,true,high,NA,NA,NA,NA,NA,NA,NA,false
FbP9uNsB,3axfspqoztbswwyvx39ztaxp9nrfjw,3lq8puhqfp5i213p1dh19eqtyljihw,FbP9uNsB,2020-0188,2020-05-21,17:13:32,17:36:39,NA,incomplete,181,color,1,right,Purple_Star_Grid_3.jpg,Red_Triangle_Grid_4.jpg,Purple_Plus_Stripes_2.jpg,right,690.0000000023283,true,high,NA,NA,NA,NA,NA,NA,NA,false
FbP9uNsB,3axfspqoztbswwyvx39ztaxp9nrfjw,3lq8puhqfp5i213p1dh19eqtyljihw,FbP9uNsB,2020-0188,2020-05-21,17:13:32,17:36:39,NA,incomplete,182,color,1,left,Blue_Star_Stripes_1.jpg,Blue_Triangle_Chess_2.jpg,Purple_Plus_Stripes_4.jpg,left,716.0000000004657,true,high,NA,NA,NA,NA,NA,NA,NA,false
FbP9uNsB,3axfspqoztbswwyvx39ztaxp9nrfjw,3lq8puhqfp5i213p1dh19eqtyljihw,FbP9uNsB,2020-0188,2020-05-21,17:13:32,17:36:39,NA,incomplete,183,color,1,right,Purple_Circle_Grid_1.jpg,Blue_Plus_Grid_2.jpg,Purple_Triangle_Chess_3.jpg,right,705.0000000018626,true,high,NA,NA,NA,NA,NA,NA,NA,false
FbP9uNsB,3axfspqoztbswwyvx39ztaxp9nrfjw,3lq8puhqfp5i213p1dh19eqtyljihw,FbP9uNsB,2020-0188,2020-05-21,17:13:32,17:36:39,NA,incomplete,184,color,1,right,Blue_Plus_Grid_2.jpg,Green_Circle_Grid_3.jpg,Blue_Triangle_Stripes_4.jpg,right,553,true,high,NA,NA,NA,NA,NA,NA,NA,false
FbP9uNsB,3axfspqoztbswwyvx39ztaxp9nrfjw,3lq8puhqfp5i213p1dh19eqtyljihw,FbP9uNsB,2020-0188,2020-05-21,17:13:32,17:36:39,NA,incomplete,185,color,0,left,Red_Star_Chess_3.jpg,Red_Circle_Stripes_4.jpg,Green_Triangle_Chess_2.jpg,left,600.9999999951106,true,high,NA,NA,NA,NA,NA,NA,NA,false
FbP9uNsB,3axfspqoztbswwyvx39ztaxp9nrfjw,3lq8puhqfp5i213p1dh19eqtyljihw,FbP9uNsB,2020-0188,2020-05-21,17:13:32,17:36:39,NA,incomplete,186,color,1,right,Purple_Triangle_Dots_2.jpg,Red_Star_Dots_1.jpg,Purple_Plus_Stripes_4.jpg,left,733.0000000002328,false,high,NA,NA,NA,NA,NA,NA,NA,false
FbP9uNsB,3axfspqoztbswwyvx39ztaxp9nrfjw,3lq8puhqfp5i213p1dh19eqtyljihw,FbP9uNsB,2020-0188,2020-05-21,17:13:32,17:36:39,NA,incomplete,187,color,1,right,Blue_Circle_Grid_4.jpg,Purple_Plus_Grid_3.jpg,Blue_Star_Stripes_1.jpg,right,616.0000000016298,true,high,NA,NA,NA,NA,NA,NA,NA,false
FbP9uNsB,3axfspqoztbswwyvx39ztaxp9nrfjw,3lq8puhqfp5i213p1dh19eqtyljihw,FbP9uNsB,2020-0188,2020-05-21,17:13:32,17:36:39,NA,incomplete,188,color,0,left,Purple_Triangle_Chess_3.jpg,Purple_Plus_Dots_2.jpg,Blue_Star_Chess_4.jpg,left,747.9999999997672,true,high,NA,NA,NA,NA,NA,NA,NA,false
FbP9uNsB,3axfspqoztbswwyvx39ztaxp9nrfjw,3lq8puhqfp5i213p1dh19eqtyljihw,FbP9uNsB,2020-0188,2020-05-21,17:13:32,17:36:39,NA,incomplete,189,color,1,left,Blue_Star_Dots_1.jpg,Blue_Plus_Grid_3.jpg,Green_Triangle_Dots_4.jpg,left,796.0000000020955,true,high,NA,NA,NA,NA,NA,NA,NA,false
FbP9uNsB,3axfspqoztbswwyvx39ztaxp9nrfjw,3lq8puhqfp5i213p1dh19eqtyljihw,FbP9uNsB,2020-0188,2020-05-21,17:13:32,17:36:39,NA,incomplete,190,color,1,left,Blue_Plus_Chess_3.jpg,Blue_Circle_Grid_4.jpg,Green_Star_Chess_2.jpg,left,689.9999999951106,true,high,NA,NA,NA,NA,NA,NA,NA,false
FbP9uNsB,3axfspqoztbswwyvx39ztaxp9nrfjw,3lq8puhqfp5i213p1dh19eqtyljihw,FbP9uNsB,2020-0188,2020-05-21,17:13:32,17:36:39,NA,incomplete,191,color,1,right,Purple_Star_Grid_2.jpg,Green_Circle_Grid_3.jpg,Purple_Triangle_Stripes_4.jpg,right,738.9999999941792,true,high,NA,NA,NA,NA,NA,NA,NA,false
FbP9uNsB,3axfspqoztbswwyvx39ztaxp9nrfjw,3lq8puhqfp5i213p1dh19eqtyljihw,FbP9uNsB,2020-0188,2020-05-21,17:13:32,17:36:39,NA,incomplete,192,color,1,right,Red_Plus_Chess_3.jpg,Green_Triangle_Chess_2.jpg,Red_Star_Dots_1.jpg,right,663.9999999969732,true,high,NA,NA,NA,NA,NA,NA,NA,false
FbP9uNsB,3axfspqoztbswwyvx39ztaxp9nrfjw,3lq8puhqfp5i213p1dh19eqtyljihw,FbP9uNsB,2020-0188,2020-05-21,17:13:32,17:36:39,NA,incomplete,193,color,0,right,Purple_Plus_Dots_2.jpg,Green_Star_Dots_1.jpg,Purple_Triangle_Chess_3.jpg,right,652.9999999983702,true,high,NA,NA,NA,NA,NA,NA,NA,false
FbP9uNsB,3axfspqoztbswwyvx39ztaxp9nrfjw,3lq8puhqfp5i213p1dh19eqtyljihw,FbP9uNsB,2020-0188,2020-05-21,17:13:32,17:36:39,NA,incomplete,194,color,1,left,Red_Triangle_Chess_3.jpg,Red_Circle_Dots_1.jpg,Purple_Star_Chess_2.jpg,right,868.9999999988358,false,high,NA,NA,NA,NA,NA,NA,NA,false
FbP9uNsB,3axfspqoztbswwyvx39ztaxp9nrfjw,3lq8puhqfp5i213p1dh19eqtyljihw,FbP9uNsB,2020-0188,2020-05-21,17:13:32,17:36:39,NA,incomplete,195,color,1,right,Blue_Star_Grid_4.jpg,Red_Triangle_Grid_3.jpg,Blue_Circle_Stripes_1.jpg,right,830.9999999981374,true,high,NA,NA,NA,NA,NA,NA,NA,false
FbP9uNsB,3axfspqoztbswwyvx39ztaxp9nrfjw,3lq8puhqfp5i213p1dh19eqtyljihw,FbP9uNsB,2020-0188,2020-05-21,17:13:32,17:36:39,NA,incomplete,196,color,1,right,Purple_Plus_Stripes_4.jpg,Red_Circle_Stripes_1.jpg,Purple_Star_Grid_3.jpg,right,612.9999999974389,true,high,NA,NA,NA,NA,NA,NA,NA,false
FbP9uNsB,3axfspqoztbswwyvx39ztaxp9nrfjw,3lq8puhqfp5i213p1dh19eqtyljihw,FbP9uNsB,2020-0188,2020-05-21,17:13:32,17:36:39,NA,incomplete,197,color,1,right,Red_Triangle_Dots_3.jpg,Purple_Plus_Dots_1.jpg,Red_Star_Stripes_2.jpg,right,599.999999998603,true,high,NA,NA,NA,NA,NA,NA,NA,false
FbP9uNsB,3axfspqoztbswwyvx39ztaxp9nrfjw,3lq8puhqfp5i213p1dh19eqtyljihw,FbP9uNsB,2020-0188,2020-05-21,17:13:32,17:36:39,NA,incomplete,198,color,0,left,Red_Circle_Stripes_2.jpg,Red_Plus_Grid_1.jpg,Green_Triangle_Stripes_4.jpg,left,795.0000000055879,true,high,NA,NA,NA,NA,NA,NA,NA,false
FbP9uNsB,3axfspqoztbswwyvx39ztaxp9nrfjw,3lq8puhqfp5i213p1dh19eqtyljihw,FbP9uNsB,2020-0188,2020-05-21,17:13:32,17:36:39,NA,incomplete,199,color,1,left,Green_Triangle_Grid_1.jpg,Green_Plus_Dots_3.jpg,Blue_Circle_Grid_2.jpg,right,777.0000000018626,false,high,NA,NA,NA,NA,NA,NA,NA,false
FbP9uNsB,3axfspqoztbswwyvx39ztaxp9nrfjw,3lq8puhqfp5i213p1dh19eqtyljihw,FbP9uNsB,2020-0188,2020-05-21,17:13:32,17:36:39,NA,incomplete,200,filling,0,right,Red_Circle_Chess_4.jpg,Red_Plus_Grid_2.jpg,Purple_Triangle_Chess_1.jpg,left,703.000000001397,false,high,NA,NA,NA,NA,NA,NA,NA,false
FbP9uNsB,3axfspqoztbswwyvx39ztaxp9nrfjw,3lq8puhqfp5i213p1dh19eqtyljihw,FbP9uNsB,2020-0188,2020-05-21,17:13:32,17:36:39,NA,incomplete,201,filling,1,left,Blue_Star_Stripes_3.jpg,Green_Circle_Stripes_1.jpg,Blue_Triangle_Grid_2.jpg,right,679.0000000037253,false,high,NA,NA,NA,NA,NA,NA,NA,false
FbP9uNsB,3axfspqoztbswwyvx39ztaxp9nrfjw,3lq8puhqfp5i213p1dh19eqtyljihw,FbP9uNsB,2020-0188,2020-05-21,17:13:32,17:36:39,NA,incomplete,202,filling,1,right,Purple_Triangle_Dots_1.jpg,Purple_Star_Stripes_2.jpg,Blue_Circle_Dots_3.jpg,left,727.9999999955762,false,high,NA,NA,NA,NA,NA,NA,NA,false
FbP9uNsB,3axfspqoztbswwyvx39ztaxp9nrfjw,3lq8puhqfp5i213p1dh19eqtyljihw,FbP9uNsB,2020-0188,2020-05-21,17:13:32,17:36:39,NA,incomplete,203,filling,1,right,Purple_Star_Dots_2.jpg,Purple_Plus_Chess_3.jpg,Red_Circle_Dots_1.jpg,left,663.0000000004657,false,high,NA,NA,NA,NA,NA,NA,NA,false
FbP9uNsB,3axfspqoztbswwyvx39ztaxp9nrfjw,3lq8puhqfp5i213p1dh19eqtyljihw,FbP9uNsB,2020-0188,2020-05-21,17:13:32,17:36:39,NA,incomplete,204,filling,0,left,Green_Triangle_Grid_4.jpg,Blue_Plus_Grid_2.jpg,Green_Circle_Stripes_1.jpg,left,627.9999999969732,true,high,NA,NA,NA,NA,NA,NA,NA,false
FbP9uNsB,3axfspqoztbswwyvx39ztaxp9nrfjw,3lq8puhqfp5i213p1dh19eqtyljihw,FbP9uNsB,2020-0188,2020-05-21,17:13:32,17:36:39,NA,incomplete,205,filling,1,right,Blue_Plus_Dots_1.jpg,Blue_Star_Grid_2.jpg,Purple_Triangle_Dots_3.jpg,left,810.9999999941792,false,high,NA,NA,NA,NA,NA,NA,NA,false
FbP9uNsB,3axfspqoztbswwyvx39ztaxp9nrfjw,3lq8puhqfp5i213p1dh19eqtyljihw,FbP9uNsB,2020-0188,2020-05-21,17:13:32,17:36:39,NA,incomplete,206,filling,1,right,Purple_Circle_Stripes_1.jpg,Purple_Star_Dots_4.jpg,Blue_Triangle_Stripes_2.jpg,left,800.0000000030268,false,high,NA,NA,NA,NA,NA,NA,NA,false
FbP9uNsB,3axfspqoztbswwyvx39ztaxp9nrfjw,3lq8puhqfp5i213p1dh19eqtyljihw,FbP9uNsB,2020-0188,2020-05-21,17:13:32,17:36:39,NA,incomplete,207,filling,1,right,Blue_Circle_Dots_4.jpg,Blue_Triangle_Chess_3.jpg,Green_Plus_Dots_1.jpg,right,768.0000000037253,true,high,NA,NA,NA,NA,NA,NA,NA,false
FbP9uNsB,3axfspqoztbswwyvx39ztaxp9nrfjw,3lq8puhqfp5i213p1dh19eqtyljihw,FbP9uNsB,2020-0188,2020-05-21,17:13:32,17:36:39,NA,incomplete,208,filling,0,right,Blue_Triangle_Grid_2.jpg,Blue_Circle_Chess_3.jpg,Red_Plus_Grid_4.jpg,right,735.0000000004657,true,high,NA,NA,NA,NA,NA,NA,NA,false
FbP9uNsB,3axfspqoztbswwyvx39ztaxp9nrfjw,3lq8puhqfp5i213p1dh19eqtyljihw,FbP9uNsB,2020-0188,2020-05-21,17:13:32,17:36:39,NA,incomplete,209,filling,1,left,Green_Circle_Stripes_3.jpg,Red_Triangle_Stripes_1.jpg,Green_Star_Chess_4.jpg,right,1030.9999999955762,false,high,NA,NA,NA,NA,NA,NA,NA,false
FbP9uNsB,3axfspqoztbswwyvx39ztaxp9nrfjw,3lq8puhqfp5i213p1dh19eqtyljihw,FbP9uNsB,2020-0188,2020-05-21,17:13:32,17:36:39,NA,incomplete,210,filling,1,right,Blue_Triangle_Grid_2.jpg,Blue_Plus_Chess_1.jpg,Green_Circle_Grid_3.jpg,left,825.000000004191,false,high,NA,NA,NA,NA,NA,NA,NA,false
FbP9uNsB,3axfspqoztbswwyvx39ztaxp9nrfjw,3lq8puhqfp5i213p1dh19eqtyljihw,FbP9uNsB,2020-0188,2020-05-21,17:13:32,17:36:39,NA,incomplete,211,filling,1,right,Purple_Plus_Stripes_4.jpg,Purple_Circle_Dots_2.jpg,Blue_Star_Stripes_3.jpg,right,1040.0000000009313,true,high,NA,NA,NA,NA,NA,NA,NA,false
FbP9uNsB,3axfspqoztbswwyvx39ztaxp9nrfjw,3lq8puhqfp5i213p1dh19eqtyljihw,FbP9uNsB,2020-0188,2020-05-21,17:13:32,17:36:39,NA,incomplete,212,filling,1,right,Green_Circle_Stripes_3.jpg,Green_Triangle_Dots_1.jpg,Red_Star_Stripes_4.jpg,right,1029.0000000023283,true,high,NA,NA,NA,NA,NA,NA,NA,false
FbP9uNsB,3axfspqoztbswwyvx39ztaxp9nrfjw,3lq8puhqfp5i213p1dh19eqtyljihw,FbP9uNsB,2020-0188,2020-05-21,17:13:32,17:36:39,NA,incomplete,213,filling,1,left,Red_Plus_Chess_1.jpg,Blue_Triangle_Chess_4.jpg,Red_Circle_Grid_2.jpg,left,1156.9999999990687,true,high,NA,NA,NA,NA,NA,NA,NA,false
FbP9uNsB,3axfspqoztbswwyvx39ztaxp9nrfjw,3lq8puhqfp5i213p1dh19eqtyljihw,FbP9uNsB,2020-0188,2020-05-21,17:13:32,17:36:39,NA,incomplete,214,filling,1,right,Green_Plus_Grid_3.jpg,Green_Triangle_Stripes_2.jpg,Red_Circle_Grid_1.jpg,right,1072.0000000002328,true,high,NA,NA,NA,NA,NA,NA,NA,false
FbP9uNsB,3axfspqoztbswwyvx39ztaxp9nrfjw,3lq8puhqfp5i213p1dh19eqtyljihw,FbP9uNsB,2020-0188,2020-05-21,17:13:32,17:36:39,NA,incomplete,215,filling,1,left,Red_Triangle_Chess_1.jpg,Purple_Circle_Chess_2.jpg,Red_Plus_Dots_3.jpg,left,1244.0000000060536,true,high,NA,NA,NA,NA,NA,NA,NA,false
FbP9uNsB,3axfspqoztbswwyvx39ztaxp9nrfjw,3lq8puhqfp5i213p1dh19eqtyljihw,FbP9uNsB,2020-0188,2020-05-21,17:13:32,17:36:39,NA,incomplete,216,filling,1,right,Red_Circle_Dots_1.jpg,Red_Plus_Grid_3.jpg,Blue_Triangle_Dots_2.jpg,right,1144.9999999967404,true,high,NA,NA,NA,NA,NA,NA,NA,false
FbP9uNsB,3axfspqoztbswwyvx39ztaxp9nrfjw,3lq8puhqfp5i213p1dh19eqtyljihw,FbP9uNsB,2020-0188,2020-05-21,17:13:32,17:36:39,NA,incomplete,217,filling,1,left,Purple_Plus_Stripes_1.jpg,Blue_Triangle_Stripes_4.jpg,Purple_Star_Dots_3.jpg,left,1037.0000000039581,true,high,NA,NA,NA,NA,NA,NA,NA,false
FbP9uNsB,3axfspqoztbswwyvx39ztaxp9nrfjw,3lq8puhqfp5i213p1dh19eqtyljihw,FbP9uNsB,2020-0188,2020-05-21,17:13:32,17:36:39,NA,incomplete,218,filling,1,left,Purple_Circle_Chess_4.jpg,Green_Triangle_Chess_3.jpg,Purple_Star_Dots_2.jpg,left,1222.0000000016298,true,high,NA,NA,NA,NA,NA,NA,NA,false
FbP9uNsB,3axfspqoztbswwyvx39ztaxp9nrfjw,3lq8puhqfp5i213p1dh19eqtyljihw,FbP9uNsB,2020-0188,2020-05-21,17:13:32,17:36:39,NA,incomplete,219,filling,1,right,Red_Star_Grid_1.jpg,Red_Circle_Dots_4.jpg,Blue_Triangle_Grid_3.jpg,right,1061.000000001397,true,high,NA,NA,NA,NA,NA,NA,NA,false
FbP9uNsB,3axfspqoztbswwyvx39ztaxp9nrfjw,3lq8puhqfp5i213p1dh19eqtyljihw,FbP9uNsB,2020-0188,2020-05-21,17:13:32,17:36:39,NA,incomplete,220,color,0,right,Purple_Plus_Stripes_3.jpg,Blue_Star_Stripes_4.jpg,Purple_Circle_Grid_2.jpg,left,1118.0000000023283,false,high,NA,NA,NA,NA,NA,NA,NA,false
FbP9uNsB,3axfspqoztbswwyvx39ztaxp9nrfjw,3lq8puhqfp5i213p1dh19eqtyljihw,FbP9uNsB,2020-0188,2020-05-21,17:13:32,17:36:39,NA,incomplete,221,color,1,right,Purple_Triangle_Stripes_1.jpg,Red_Star_Stripes_4.jpg,Purple_Plus_Chess_3.jpg,left,1012.0000000023283,false,high,NA,NA,NA,NA,NA,NA,NA,false
FbP9uNsB,3axfspqoztbswwyvx39ztaxp9nrfjw,3lq8puhqfp5i213p1dh19eqtyljihw,FbP9uNsB,2020-0188,2020-05-21,17:13:32,17:36:39,NA,incomplete,222,color,1,right,Purple_Circle_Grid_1.jpg,Red_Plus_Grid_3.jpg,Purple_Star_Dots_2.jpg,right,754.0000000006985,true,high,NA,NA,NA,NA,NA,NA,NA,false
FbP9uNsB,3axfspqoztbswwyvx39ztaxp9nrfjw,3lq8puhqfp5i213p1dh19eqtyljihw,FbP9uNsB,2020-0188,2020-05-21,17:13:32,17:36:39,NA,incomplete,223,color,0,right,Blue_Star_Grid_1.jpg,Green_Triangle_Grid_2.jpg,Blue_Circle_Chess_3.jpg,right,762.9999999990687,true,high,NA,NA,NA,NA,NA,NA,NA,false
FbP9uNsB,3axfspqoztbswwyvx39ztaxp9nrfjw,3lq8puhqfp5i213p1dh19eqtyljihw,FbP9uNsB,2020-0188,2020-05-21,17:13:32,17:36:39,NA,incomplete,224,color,1,left,Green_Circle_Stripes_2.jpg,Green_Star_Grid_3.jpg,Red_Triangle_Stripes_1.jpg,right,1126.0000000037253,false,high,NA,NA,NA,NA,NA,NA,NA,false
FbP9uNsB,3axfspqoztbswwyvx39ztaxp9nrfjw,3lq8puhqfp5i213p1dh19eqtyljihw,FbP9uNsB,2020-0188,2020-05-21,17:13:32,17:36:39,NA,incomplete,225,color,0,right,Blue_Triangle_Chess_2.jpg,Red_Circle_Chess_3.jpg,Blue_Star_Dots_4.jpg,right,808.0000000044238,true,high,NA,NA,NA,NA,NA,NA,NA,false
FbP9uNsB,3axfspqoztbswwyvx39ztaxp9nrfjw,3lq8puhqfp5i213p1dh19eqtyljihw,FbP9uNsB,2020-0188,2020-05-21,17:13:32,17:36:39,NA,incomplete,226,color,1,left,Blue_Circle_Grid_2.jpg,Blue_Triangle_Chess_1.jpg,Green_Star_Grid_4.jpg,right,1305.0000000002328,false,high,NA,NA,NA,NA,NA,NA,NA,false
FbP9uNsB,3axfspqoztbswwyvx39ztaxp9nrfjw,3lq8puhqfp5i213p1dh19eqtyljihw,FbP9uNsB,2020-0188,2020-05-21,17:13:32,17:36:39,NA,incomplete,227,color,0,right,Red_Star_Chess_1.jpg,Blue_Plus_Chess_2.jpg,Red_Triangle_Stripes_4.jpg,left,1807.0000000006985,false,high,NA,NA,NA,NA,NA,NA,NA,false
FbP9uNsB,3axfspqoztbswwyvx39ztaxp9nrfjw,3lq8puhqfp5i213p1dh19eqtyljihw,FbP9uNsB,2020-0188,2020-05-21,17:13:32,17:36:39,NA,incomplete,228,color,1,left,Red_Plus_Dots_2.jpg,Red_Star_Grid_4.jpg,Purple_Circle_Dots_3.jpg,left,791.9999999939464,true,high,NA,NA,NA,NA,NA,NA,NA,false
FbP9uNsB,3axfspqoztbswwyvx39ztaxp9nrfjw,3lq8puhqfp5i213p1dh19eqtyljihw,FbP9uNsB,2020-0188,2020-05-21,17:13:32,17:36:39,NA,incomplete,229,color,1,left,Red_Plus_Chess_2.jpg,Red_Circle_Dots_4.jpg,Blue_Triangle_Chess_3.jpg,left,636.9999999953434,true,high,NA,NA,NA,NA,NA,NA,NA,false
FbP9uNsB,3axfspqoztbswwyvx39ztaxp9nrfjw,3lq8puhqfp5i213p1dh19eqtyljihw,FbP9uNsB,2020-0188,2020-05-21,17:13:32,17:36:39,NA,incomplete,230,color,1,right,Blue_Circle_Chess_3.jpg,Red_Star_Chess_2.jpg,Blue_Triangle_Stripes_4.jpg,right,845.9999999979045,true,high,NA,NA,NA,NA,NA,NA,NA,false
FbP9uNsB,3axfspqoztbswwyvx39ztaxp9nrfjw,3lq8puhqfp5i213p1dh19eqtyljihw,FbP9uNsB,2020-0188,2020-05-21,17:13:32,17:36:39,NA,incomplete,231,color,1,right,Red_Star_Grid_4.jpg,Green_Circle_Grid_3.jpg,Red_Plus_Dots_1.jpg,right,845.9999999976717,true,high,NA,NA,NA,NA,NA,NA,NA,false
FbP9uNsB,3axfspqoztbswwyvx39ztaxp9nrfjw,3lq8puhqfp5i213p1dh19eqtyljihw,FbP9uNsB,2020-0188,2020-05-21,17:13:32,17:36:39,NA,incomplete,232,color,1,right,Blue_Star_Grid_4.jpg,Green_Triangle_Grid_1.jpg,Blue_Circle_Chess_3.jpg,right,624.0000000032596,true,high,NA,NA,NA,NA,NA,NA,NA,false
FbP9uNsB,3axfspqoztbswwyvx39ztaxp9nrfjw,3lq8puhqfp5i213p1dh19eqtyljihw,FbP9uNsB,2020-0188,2020-05-21,17:13:32,17:36:39,NA,incomplete,233,color,0,left,Green_Circle_Dots_2.jpg,Green_Plus_Chess_3.jpg,Blue_Triangle_Dots_1.jpg,left,832.9999999988358,true,high,NA,NA,NA,NA,NA,NA,NA,false
FbP9uNsB,3axfspqoztbswwyvx39ztaxp9nrfjw,3lq8puhqfp5i213p1dh19eqtyljihw,FbP9uNsB,2020-0188,2020-05-21,17:13:32,17:36:39,NA,incomplete,234,color,1,left,Green_Plus_Grid_1.jpg,Green_Star_Chess_4.jpg,Blue_Circle_Grid_3.jpg,right,1192.000000002794,false,high,NA,NA,NA,NA,NA,NA,NA,false
FbP9uNsB,3axfspqoztbswwyvx39ztaxp9nrfjw,3lq8puhqfp5i213p1dh19eqtyljihw,FbP9uNsB,2020-0188,2020-05-21,17:13:32,17:36:39,NA,incomplete,235,color,1,left,Green_Triangle_Dots_2.jpg,Green_Circle_Stripes_4.jpg,Purple_Plus_Dots_1.jpg,right,1279.9999999988358,false,high,NA,NA,NA,NA,NA,NA,NA,false
FbP9uNsB,3axfspqoztbswwyvx39ztaxp9nrfjw,3lq8puhqfp5i213p1dh19eqtyljihw,FbP9uNsB,2020-0188,2020-05-21,17:13:32,17:36:39,NA,incomplete,236,color,1,right,Blue_Plus_Stripes_2.jpg,Red_Triangle_Stripes_4.jpg,Blue_Star_Grid_1.jpg,right,709.9999999993015,true,high,NA,NA,NA,NA,NA,NA,NA,false
FbP9uNsB,3axfspqoztbswwyvx39ztaxp9nrfjw,3lq8puhqfp5i213p1dh19eqtyljihw,FbP9uNsB,2020-0188,2020-05-21,17:13:32,17:36:39,NA,incomplete,237,color,1,left,Green_Circle_Stripes_4.jpg,Green_Star_Chess_2.jpg,Blue_Plus_Stripes_3.jpg,right,1413.9999999969732,false,high,NA,NA,NA,NA,NA,NA,NA,false
FbP9uNsB,3axfspqoztbswwyvx39ztaxp9nrfjw,3lq8puhqfp5i213p1dh19eqtyljihw,FbP9uNsB,2020-0188,2020-05-21,17:13:32,17:36:39,NA,incomplete,238,color,1,right,Blue_Triangle_Grid_4.jpg,Green_Circle_Grid_1.jpg,Blue_Plus_Chess_2.jpg,right,750.9999999965075,true,high,NA,NA,NA,NA,NA,NA,NA,false
FbP9uNsB,3axfspqoztbswwyvx39ztaxp9nrfjw,3lq8puhqfp5i213p1dh19eqtyljihw,FbP9uNsB,2020-0188,2020-05-21,17:13:32,17:36:39,NA,incomplete,239,color,1,left,Red_Triangle_Dots_1.jpg,Red_Star_Grid_2.jpg,Blue_Plus_Dots_3.jpg,left,682.0000000006985,true,high,NA,NA,NA,NA,NA,NA,NA,false
FbP9uNsB,3axfspqoztbswwyvx39ztaxp9nrfjw,3lq8puhqfp5i213p1dh19eqtyljihw,FbP9uNsB,2020-0188,2020-05-21,17:13:32,17:36:39,NA,NA,instruction example,number,NA,NA,Blue_Triangle_Grid_2.jpg,Purple_Plus_Stripes_2.jpg,Green_Triangle_Dots_3.jpg,NA,NA,NA,NA,NA,NA,NA,NA,NA,NA,NA,undefined
FbP9uNsB,3axfspqoztbswwyvx39ztaxp9nrfjw,3lq8puhqfp5i213p1dh19eqtyljihw,FbP9uNsB,2020-0188,2020-05-21,17:13:32,17:36:39,NA,NA,instruction example,number,NA,NA,Blue_Triangle_Dots_4.jpg,Red_Triangle_Chess_1.jpg,Purple_Star_Stripes_4.jpg,NA,NA,NA,NA,NA,NA,NA,NA,NA,NA,NA,undefined
FbP9uNsB,3axfspqoztbswwyvx39ztaxp9nrfjw,3lq8puhqfp5i213p1dh19eqtyljihw,FbP9uNsB,2020-0188,2020-05-21,17:13:32,17:36:39,NA,NA,instruction example,number,NA,NA,Purple_Triangle_Stripes_4.jpg,Green_Circle_Stripes_2.jpg,Purple_Star_Chess_3.jpg,NA,NA,NA,NA,NA,NA,NA,NA,NA,NA,NA,undefined
FbP9uNsB,3axfspqoztbswwyvx39ztaxp9nrfjw,3lq8puhqfp5i213p1dh19eqtyljihw,FbP9uNsB,2020-0188,2020-05-21,17:13:32,17:36:39,NA,NA,instruction example,number,NA,NA,Red_Triangle_Dots_4.jpg,Red_Plus_Grid_2.jpg,Blue_Circle_Dots_3.jpg,NA,NA,NA,NA,NA,NA,NA,NA,NA,NA,NA,undefined
FbP9uNsB,3axfspqoztbswwyvx39ztaxp9nrfjw,3lq8puhqfp5i213p1dh19eqtyljihw,FbP9uNsB,2020-0188,2020-05-21,17:13:32,17:36:39,1324025.0000000014,1387803,NA,NA,NA,NA,NA,NA,NA,NA,NA,NA,NA,67,White/Caucasian,Male,caucasian white,no,yes,no,undefined
