workerId,hitId,assignmentId,subject,studyid,exp_date,exp_start,exp_end,time_start,time_end,trial,type,reward_validity,answer,image_top,image_left,image_right,response,response_time,response_acc,volatility,age,race,gender,ethnicity,color,vision,neuro,practice
ZwOYNHnf,338glsui56olvzhlkxidlboc564sfp,3lq8puhqfp5i213p1dh19eqtykqih1,ZwOYNHnf,2020-0188,2020-05-21,16:15:54,16:34:53,NA,incomplete,0,color,0,left,Blue_Circle_Grid_4.jpg,Blue_Star_Chess_1.jpg,Red_Triangle_Grid_3.jpg,left,1242.6100000011502,true,NA,NA,NA,NA,NA,NA,NA,NA,true
ZwOYNHnf,338glsui56olvzhlkxidlboc564sfp,3lq8puhqfp5i213p1dh19eqtykqih1,ZwOYNHnf,2020-0188,2020-05-21,16:15:54,16:34:53,NA,incomplete,1,color,0,left,Blue_Star_Dots_1.jpg,Blue_Plus_Chess_2.jpg,Green_Triangle_Dots_4.jpg,left,766.3999999931548,true,NA,NA,NA,NA,NA,NA,NA,NA,true
ZwOYNHnf,338glsui56olvzhlkxidlboc564sfp,3lq8puhqfp5i213p1dh19eqtykqih1,ZwOYNHnf,2020-0188,2020-05-21,16:15:54,16:34:53,NA,incomplete,2,color,1,right,Green_Star_Chess_3.jpg,Blue_Circle_Chess_2.jpg,Green_Triangle_Stripes_4.jpg,left,1836.7350000044098,false,NA,NA,NA,NA,NA,NA,NA,NA,true
ZwOYNHnf,338glsui56olvzhlkxidlboc564sfp,3lq8puhqfp5i213p1dh19eqtykqih1,ZwOYNHnf,2020-0188,2020-05-21,16:15:54,16:34:53,NA,incomplete,3,color,1,right,Blue_Star_Grid_1.jpg,Purple_Triangle_Grid_2.jpg,Blue_Plus_Chess_4.jpg,right,497.799999997369,true,NA,NA,NA,NA,NA,NA,NA,NA,true
ZwOYNHnf,338glsui56olvzhlkxidlboc564sfp,3lq8puhqfp5i213p1dh19eqtykqih1,ZwOYNHnf,2020-0188,2020-05-21,16:15:54,16:34:53,NA,incomplete,4,color,1,right,Green_Circle_Chess_3.jpg,Blue_Star_Chess_1.jpg,Green_Triangle_Stripes_4.jpg,right,634.1700000048149,true,NA,NA,NA,NA,NA,NA,NA,NA,true
ZwOYNHnf,338glsui56olvzhlkxidlboc564sfp,3lq8puhqfp5i213p1dh19eqtykqih1,ZwOYNHnf,2020-0188,2020-05-21,16:15:54,16:34:53,NA,incomplete,5,color,1,left,Green_Circle_Stripes_3.jpg,Green_Star_Dots_2.jpg,Blue_Triangle_Stripes_4.jpg,left,598.3350000024075,true,NA,NA,NA,NA,NA,NA,NA,NA,true
ZwOYNHnf,338glsui56olvzhlkxidlboc564sfp,3lq8puhqfp5i213p1dh19eqtykqih1,ZwOYNHnf,2020-0188,2020-05-21,16:15:54,16:34:53,NA,incomplete,6,color,1,left,Purple_Plus_Dots_2.jpg,Purple_Star_Chess_1.jpg,Green_Triangle_Dots_3.jpg,left,571.5200000122422,true,NA,NA,NA,NA,NA,NA,NA,NA,true
ZwOYNHnf,338glsui56olvzhlkxidlboc564sfp,3lq8puhqfp5i213p1dh19eqtykqih1,ZwOYNHnf,2020-0188,2020-05-21,16:15:54,16:34:53,NA,incomplete,7,color,0,right,Blue_Star_Grid_1.jpg,Purple_Circle_Grid_3.jpg,Blue_Triangle_Chess_4.jpg,right,465.72500000183936,true,NA,NA,NA,NA,NA,NA,NA,NA,true
ZwOYNHnf,338glsui56olvzhlkxidlboc564sfp,3lq8puhqfp5i213p1dh19eqtykqih1,ZwOYNHnf,2020-0188,2020-05-21,16:15:54,16:34:53,NA,incomplete,8,color,1,right,Blue_Triangle_Chess_1.jpg,Green_Circle_Chess_3.jpg,Blue_Star_Stripes_2.jpg,right,788.6549999966519,true,NA,NA,NA,NA,NA,NA,NA,NA,true
ZwOYNHnf,338glsui56olvzhlkxidlboc564sfp,3lq8puhqfp5i213p1dh19eqtykqih1,ZwOYNHnf,2020-0188,2020-05-21,16:15:54,16:34:53,NA,incomplete,9,color,1,right,Red_Star_Stripes_3.jpg,Green_Triangle_Stripes_2.jpg,Red_Circle_Chess_4.jpg,right,1082.6799999922514,true,NA,NA,NA,NA,NA,NA,NA,NA,true
ZwOYNHnf,338glsui56olvzhlkxidlboc564sfp,3lq8puhqfp5i213p1dh19eqtykqih1,ZwOYNHnf,2020-0188,2020-05-21,16:15:54,16:34:53,NA,incomplete,10,color,1,right,Purple_Plus_Chess_4.jpg,Red_Circle_Chess_2.jpg,Purple_Triangle_Stripes_1.jpg,right,1374.404999995022,true,NA,NA,NA,NA,NA,NA,NA,NA,true
ZwOYNHnf,338glsui56olvzhlkxidlboc564sfp,3lq8puhqfp5i213p1dh19eqtykqih1,ZwOYNHnf,2020-0188,2020-05-21,16:15:54,16:34:53,NA,incomplete,11,color,1,right,Purple_Star_Chess_1.jpg,Red_Plus_Chess_4.jpg,Purple_Circle_Stripes_2.jpg,right,556.1049999960233,true,NA,NA,NA,NA,NA,NA,NA,NA,true
ZwOYNHnf,338glsui56olvzhlkxidlboc564sfp,3lq8puhqfp5i213p1dh19eqtykqih1,ZwOYNHnf,2020-0188,2020-05-21,16:15:54,16:34:53,NA,incomplete,12,color,0,right,Green_Triangle_Chess_1.jpg,Blue_Star_Chess_4.jpg,Green_Plus_Dots_2.jpg,right,483.5099999909289,true,NA,NA,NA,NA,NA,NA,NA,NA,true
ZwOYNHnf,338glsui56olvzhlkxidlboc564sfp,3lq8puhqfp5i213p1dh19eqtykqih1,ZwOYNHnf,2020-0188,2020-05-21,16:15:54,16:34:53,NA,incomplete,13,color,1,right,Green_Triangle_Chess_3.jpg,Purple_Plus_Chess_4.jpg,Green_Star_Stripes_1.jpg,right,533.6700000043493,true,NA,NA,NA,NA,NA,NA,NA,NA,true
ZwOYNHnf,338glsui56olvzhlkxidlboc564sfp,3lq8puhqfp5i213p1dh19eqtykqih1,ZwOYNHnf,2020-0188,2020-05-21,16:15:54,16:34:53,NA,incomplete,14,color,1,left,Purple_Star_Chess_3.jpg,Purple_Triangle_Stripes_2.jpg,Green_Plus_Chess_4.jpg,left,413.5850000020582,true,NA,NA,NA,NA,NA,NA,NA,NA,true
ZwOYNHnf,338glsui56olvzhlkxidlboc564sfp,3lq8puhqfp5i213p1dh19eqtykqih1,ZwOYNHnf,2020-0188,2020-05-21,16:15:54,16:34:53,NA,incomplete,15,color,1,right,Red_Circle_Grid_4.jpg,Purple_Plus_Grid_1.jpg,Red_Triangle_Dots_2.jpg,right,458.0800000112504,true,NA,NA,NA,NA,NA,NA,NA,NA,true
ZwOYNHnf,338glsui56olvzhlkxidlboc564sfp,3lq8puhqfp5i213p1dh19eqtykqih1,ZwOYNHnf,2020-0188,2020-05-21,16:15:54,16:34:53,NA,incomplete,16,color,1,right,Red_Triangle_Dots_1.jpg,Green_Circle_Dots_2.jpg,Red_Plus_Stripes_3.jpg,right,637.6849999942351,true,NA,NA,NA,NA,NA,NA,NA,NA,true
ZwOYNHnf,338glsui56olvzhlkxidlboc564sfp,3lq8puhqfp5i213p1dh19eqtykqih1,ZwOYNHnf,2020-0188,2020-05-21,16:15:54,16:34:53,NA,incomplete,17,color,0,left,Blue_Plus_Grid_3.jpg,Blue_Star_Dots_2.jpg,Red_Circle_Grid_4.jpg,none,0,false,NA,NA,NA,NA,NA,NA,NA,NA,true
ZwOYNHnf,338glsui56olvzhlkxidlboc564sfp,3lq8puhqfp5i213p1dh19eqtykqih1,ZwOYNHnf,2020-0188,2020-05-21,16:15:54,16:34:53,NA,incomplete,18,color,1,right,Green_Star_Chess_4.jpg,Blue_Circle_Chess_1.jpg,Green_Plus_Dots_3.jpg,right,502.4450000055367,true,NA,NA,NA,NA,NA,NA,NA,NA,true
ZwOYNHnf,338glsui56olvzhlkxidlboc564sfp,3lq8puhqfp5i213p1dh19eqtykqih1,ZwOYNHnf,2020-0188,2020-05-21,16:15:54,16:34:53,NA,incomplete,19,color,1,left,Green_Plus_Chess_1.jpg,Green_Triangle_Stripes_2.jpg,Blue_Star_Chess_3.jpg,left,446.7399999994086,true,NA,NA,NA,NA,NA,NA,NA,NA,true
ZwOYNHnf,338glsui56olvzhlkxidlboc564sfp,3lq8puhqfp5i213p1dh19eqtykqih1,ZwOYNHnf,2020-0188,2020-05-21,16:15:54,16:34:53,NA,incomplete,20,filling,1,right,Purple_Plus_Dots_4.jpg,Purple_Star_Chess_1.jpg,Red_Circle_Dots_3.jpg,left,459.2300000076648,false,NA,NA,NA,NA,NA,NA,NA,NA,true
ZwOYNHnf,338glsui56olvzhlkxidlboc564sfp,3lq8puhqfp5i213p1dh19eqtykqih1,ZwOYNHnf,2020-0188,2020-05-21,16:15:54,16:34:53,NA,incomplete,21,filling,1,left,Purple_Circle_Grid_3.jpg,Green_Plus_Grid_2.jpg,Purple_Star_Dots_1.jpg,left,1108.9000000065425,true,NA,NA,NA,NA,NA,NA,NA,NA,true
ZwOYNHnf,338glsui56olvzhlkxidlboc564sfp,3lq8puhqfp5i213p1dh19eqtykqih1,ZwOYNHnf,2020-0188,2020-05-21,16:15:54,16:34:53,NA,incomplete,22,filling,1,left,Blue_Star_Stripes_3.jpg,Purple_Plus_Stripes_1.jpg,Blue_Triangle_Chess_4.jpg,left,1006.5799999865703,true,NA,NA,NA,NA,NA,NA,NA,NA,true
ZwOYNHnf,338glsui56olvzhlkxidlboc564sfp,3lq8puhqfp5i213p1dh19eqtykqih1,ZwOYNHnf,2020-0188,2020-05-21,16:15:54,16:34:53,NA,incomplete,23,filling,1,left,Green_Plus_Dots_4.jpg,Purple_Triangle_Dots_3.jpg,Green_Star_Grid_1.jpg,left,1083.344999991823,true,NA,NA,NA,NA,NA,NA,NA,NA,true
ZwOYNHnf,338glsui56olvzhlkxidlboc564sfp,3lq8puhqfp5i213p1dh19eqtykqih1,ZwOYNHnf,2020-0188,2020-05-21,16:15:54,16:34:53,NA,incomplete,24,filling,0,left,Blue_Triangle_Stripes_3.jpg,Red_Plus_Stripes_4.jpg,Blue_Star_Chess_1.jpg,left,734.1149999992922,true,NA,NA,NA,NA,NA,NA,NA,NA,true
ZwOYNHnf,338glsui56olvzhlkxidlboc564sfp,3lq8puhqfp5i213p1dh19eqtykqih1,ZwOYNHnf,2020-0188,2020-05-21,16:15:54,16:34:53,NA,incomplete,25,filling,1,left,Purple_Triangle_Grid_1.jpg,Red_Plus_Grid_2.jpg,Purple_Star_Stripes_3.jpg,left,1303.37999999756,true,NA,NA,NA,NA,NA,NA,NA,NA,true
ZwOYNHnf,338glsui56olvzhlkxidlboc564sfp,3lq8puhqfp5i213p1dh19eqtykqih1,ZwOYNHnf,2020-0188,2020-05-21,16:15:54,16:34:53,NA,incomplete,26,filling,1,right,Purple_Plus_Dots_2.jpg,Purple_Star_Stripes_1.jpg,Green_Circle_Dots_4.jpg,left,798.4450000076322,false,NA,NA,NA,NA,NA,NA,NA,NA,true
ZwOYNHnf,338glsui56olvzhlkxidlboc564sfp,3lq8puhqfp5i213p1dh19eqtykqih1,ZwOYNHnf,2020-0188,2020-05-21,16:15:54,16:34:53,NA,incomplete,27,filling,1,right,Red_Plus_Chess_2.jpg,Red_Circle_Dots_3.jpg,Purple_Star_Chess_4.jpg,right,844.7500000038417,true,NA,NA,NA,NA,NA,NA,NA,NA,true
ZwOYNHnf,338glsui56olvzhlkxidlboc564sfp,3lq8puhqfp5i213p1dh19eqtykqih1,ZwOYNHnf,2020-0188,2020-05-21,16:15:54,16:34:53,NA,incomplete,28,filling,1,left,Green_Circle_Dots_1.jpg,Blue_Triangle_Dots_3.jpg,Green_Plus_Stripes_2.jpg,left,792.7950000012061,true,NA,NA,NA,NA,NA,NA,NA,NA,true
ZwOYNHnf,338glsui56olvzhlkxidlboc564sfp,3lq8puhqfp5i213p1dh19eqtykqih1,ZwOYNHnf,2020-0188,2020-05-21,16:15:54,16:34:53,NA,incomplete,29,filling,1,right,Green_Circle_Dots_1.jpg,Green_Star_Stripes_2.jpg,Blue_Plus_Dots_4.jpg,right,790.3899999946589,true,NA,NA,NA,NA,NA,NA,NA,NA,true
ZwOYNHnf,338glsui56olvzhlkxidlboc564sfp,3lq8puhqfp5i213p1dh19eqtykqih1,ZwOYNHnf,2020-0188,2020-05-21,16:15:54,16:34:53,NA,incomplete,30,filling,0,left,Purple_Triangle_Stripes_2.jpg,Green_Circle_Stripes_3.jpg,Purple_Star_Grid_1.jpg,left,772.3649999970803,true,NA,NA,NA,NA,NA,NA,NA,NA,true
ZwOYNHnf,338glsui56olvzhlkxidlboc564sfp,3lq8puhqfp5i213p1dh19eqtykqih1,ZwOYNHnf,2020-0188,2020-05-21,16:15:54,16:34:53,NA,incomplete,31,filling,1,left,Green_Triangle_Dots_3.jpg,Red_Circle_Dots_4.jpg,Green_Star_Chess_2.jpg,left,850.4749999992782,true,NA,NA,NA,NA,NA,NA,NA,NA,true
ZwOYNHnf,338glsui56olvzhlkxidlboc564sfp,3lq8puhqfp5i213p1dh19eqtykqih1,ZwOYNHnf,2020-0188,2020-05-21,16:15:54,16:34:53,NA,incomplete,32,filling,1,right,Green_Star_Chess_4.jpg,Green_Plus_Grid_3.jpg,Red_Triangle_Chess_2.jpg,right,925.7700000016484,true,NA,NA,NA,NA,NA,NA,NA,NA,true
ZwOYNHnf,338glsui56olvzhlkxidlboc564sfp,3lq8puhqfp5i213p1dh19eqtykqih1,ZwOYNHnf,2020-0188,2020-05-21,16:15:54,16:34:53,NA,incomplete,33,filling,0,right,Green_Star_Dots_3.jpg,Green_Plus_Chess_4.jpg,Purple_Circle_Dots_1.jpg,right,918.5849999921629,true,NA,NA,NA,NA,NA,NA,NA,NA,true
ZwOYNHnf,338glsui56olvzhlkxidlboc564sfp,3lq8puhqfp5i213p1dh19eqtykqih1,ZwOYNHnf,2020-0188,2020-05-21,16:15:54,16:34:53,NA,incomplete,34,filling,1,right,Purple_Triangle_Grid_1.jpg,Purple_Star_Chess_4.jpg,Green_Plus_Grid_2.jpg,right,1022.1549999987474,true,NA,NA,NA,NA,NA,NA,NA,NA,true
ZwOYNHnf,338glsui56olvzhlkxidlboc564sfp,3lq8puhqfp5i213p1dh19eqtykqih1,ZwOYNHnf,2020-0188,2020-05-21,16:15:54,16:34:53,NA,incomplete,35,filling,1,right,Red_Plus_Chess_3.jpg,Red_Star_Grid_1.jpg,Blue_Triangle_Chess_2.jpg,right,820.785000003525,true,NA,NA,NA,NA,NA,NA,NA,NA,true
ZwOYNHnf,338glsui56olvzhlkxidlboc564sfp,3lq8puhqfp5i213p1dh19eqtykqih1,ZwOYNHnf,2020-0188,2020-05-21,16:15:54,16:34:53,NA,incomplete,36,filling,1,left,Blue_Plus_Chess_4.jpg,Purple_Triangle_Chess_1.jpg,Blue_Star_Grid_2.jpg,left,1040.1699999929406,true,NA,NA,NA,NA,NA,NA,NA,NA,true
ZwOYNHnf,338glsui56olvzhlkxidlboc564sfp,3lq8puhqfp5i213p1dh19eqtykqih1,ZwOYNHnf,2020-0188,2020-05-21,16:15:54,16:34:53,NA,incomplete,37,filling,1,left,Green_Star_Chess_3.jpg,Red_Circle_Chess_1.jpg,Green_Triangle_Dots_4.jpg,left,763.9400000043679,true,NA,NA,NA,NA,NA,NA,NA,NA,true
ZwOYNHnf,338glsui56olvzhlkxidlboc564sfp,3lq8puhqfp5i213p1dh19eqtykqih1,ZwOYNHnf,2020-0188,2020-05-21,16:15:54,16:34:53,NA,incomplete,38,filling,1,left,Blue_Plus_Dots_3.jpg,Purple_Circle_Dots_1.jpg,Blue_Triangle_Stripes_2.jpg,left,674.6300000086194,true,NA,NA,NA,NA,NA,NA,NA,NA,true
ZwOYNHnf,338glsui56olvzhlkxidlboc564sfp,3lq8puhqfp5i213p1dh19eqtykqih1,ZwOYNHnf,2020-0188,2020-05-21,16:15:54,16:34:53,NA,incomplete,39,filling,1,right,Green_Star_Dots_2.jpg,Green_Plus_Chess_3.jpg,Purple_Circle_Dots_1.jpg,right,700.7850000081817,true,NA,NA,NA,NA,NA,NA,NA,NA,true
ZwOYNHnf,338glsui56olvzhlkxidlboc564sfp,3lq8puhqfp5i213p1dh19eqtykqih1,ZwOYNHnf,2020-0188,2020-05-21,16:15:54,16:34:53,NA,incomplete,0,color,1,right,Green_Circle_Dots_1.jpg,Red_Triangle_Dots_2.jpg,Green_Star_Chess_4.jpg,left,821.3899999973364,false,high,NA,NA,NA,NA,NA,NA,NA,false
ZwOYNHnf,338glsui56olvzhlkxidlboc564sfp,3lq8puhqfp5i213p1dh19eqtykqih1,ZwOYNHnf,2020-0188,2020-05-21,16:15:54,16:34:53,NA,incomplete,1,color,1,right,Blue_Star_Stripes_3.jpg,Purple_Triangle_Stripes_4.jpg,Blue_Plus_Grid_1.jpg,right,746.8899999948917,true,high,NA,NA,NA,NA,NA,NA,NA,false
ZwOYNHnf,338glsui56olvzhlkxidlboc564sfp,3lq8puhqfp5i213p1dh19eqtykqih1,ZwOYNHnf,2020-0188,2020-05-21,16:15:54,16:34:53,NA,incomplete,2,color,1,right,Blue_Circle_Grid_3.jpg,Purple_Triangle_Grid_4.jpg,Blue_Plus_Chess_1.jpg,right,490.16499999561347,true,high,NA,NA,NA,NA,NA,NA,NA,false
ZwOYNHnf,338glsui56olvzhlkxidlboc564sfp,3lq8puhqfp5i213p1dh19eqtykqih1,ZwOYNHnf,2020-0188,2020-05-21,16:15:54,16:34:53,NA,incomplete,3,color,1,left,Red_Triangle_Grid_4.jpg,Red_Star_Dots_1.jpg,Green_Plus_Grid_2.jpg,left,443.80500000261236,true,high,NA,NA,NA,NA,NA,NA,NA,false
ZwOYNHnf,338glsui56olvzhlkxidlboc564sfp,3lq8puhqfp5i213p1dh19eqtykqih1,ZwOYNHnf,2020-0188,2020-05-21,16:15:54,16:34:53,NA,incomplete,4,color,1,left,Red_Circle_Grid_4.jpg,Red_Triangle_Dots_2.jpg,Blue_Star_Grid_3.jpg,left,423.2049999991432,true,high,NA,NA,NA,NA,NA,NA,NA,false
ZwOYNHnf,338glsui56olvzhlkxidlboc564sfp,3lq8puhqfp5i213p1dh19eqtykqih1,ZwOYNHnf,2020-0188,2020-05-21,16:15:54,16:34:53,NA,incomplete,5,color,0,right,Purple_Circle_Dots_1.jpg,Green_Star_Dots_2.jpg,Purple_Triangle_Chess_4.jpg,right,251.88499999057967,true,high,NA,NA,NA,NA,NA,NA,NA,false
ZwOYNHnf,338glsui56olvzhlkxidlboc564sfp,3lq8puhqfp5i213p1dh19eqtykqih1,ZwOYNHnf,2020-0188,2020-05-21,16:15:54,16:34:53,NA,incomplete,6,color,1,left,Blue_Star_Dots_1.jpg,Blue_Plus_Stripes_3.jpg,Green_Circle_Dots_2.jpg,right,270.32000001054257,false,high,NA,NA,NA,NA,NA,NA,NA,false
ZwOYNHnf,338glsui56olvzhlkxidlboc564sfp,3lq8puhqfp5i213p1dh19eqtykqih1,ZwOYNHnf,2020-0188,2020-05-21,16:15:54,16:34:53,NA,incomplete,7,color,1,right,Purple_Triangle_Stripes_3.jpg,Green_Circle_Stripes_2.jpg,Purple_Star_Chess_1.jpg,left,512.9649999871617,false,high,NA,NA,NA,NA,NA,NA,NA,false
ZwOYNHnf,338glsui56olvzhlkxidlboc564sfp,3lq8puhqfp5i213p1dh19eqtykqih1,ZwOYNHnf,2020-0188,2020-05-21,16:15:54,16:34:53,NA,incomplete,8,color,1,right,Purple_Plus_Dots_3.jpg,Red_Circle_Dots_4.jpg,Purple_Star_Stripes_1.jpg,right,89.37500001047738,true,high,NA,NA,NA,NA,NA,NA,NA,false
ZwOYNHnf,338glsui56olvzhlkxidlboc564sfp,3lq8puhqfp5i213p1dh19eqtykqih1,ZwOYNHnf,2020-0188,2020-05-21,16:15:54,16:34:53,NA,incomplete,9,color,1,right,Purple_Plus_Stripes_2.jpg,Red_Circle_Stripes_1.jpg,Purple_Star_Chess_3.jpg,left,564.2700000025798,false,high,NA,NA,NA,NA,NA,NA,NA,false
ZwOYNHnf,338glsui56olvzhlkxidlboc564sfp,3lq8puhqfp5i213p1dh19eqtykqih1,ZwOYNHnf,2020-0188,2020-05-21,16:15:54,16:34:53,NA,incomplete,10,filling,1,right,Green_Plus_Grid_3.jpg,Green_Circle_Dots_2.jpg,Blue_Triangle_Grid_1.jpg,left,337.8300000040326,false,high,NA,NA,NA,NA,NA,NA,NA,false
ZwOYNHnf,338glsui56olvzhlkxidlboc564sfp,3lq8puhqfp5i213p1dh19eqtykqih1,ZwOYNHnf,2020-0188,2020-05-21,16:15:54,16:34:53,NA,incomplete,11,filling,1,left,Blue_Star_Dots_3.jpg,Purple_Triangle_Dots_1.jpg,Blue_Plus_Chess_4.jpg,right,778.7099999986822,false,high,NA,NA,NA,NA,NA,NA,NA,false
ZwOYNHnf,338glsui56olvzhlkxidlboc564sfp,3lq8puhqfp5i213p1dh19eqtykqih1,ZwOYNHnf,2020-0188,2020-05-21,16:15:54,16:34:53,NA,incomplete,12,filling,0,left,Green_Triangle_Stripes_2.jpg,Blue_Star_Stripes_4.jpg,Green_Circle_Chess_3.jpg,left,800.4450000007637,true,high,NA,NA,NA,NA,NA,NA,NA,false
ZwOYNHnf,338glsui56olvzhlkxidlboc564sfp,3lq8puhqfp5i213p1dh19eqtykqih1,ZwOYNHnf,2020-0188,2020-05-21,16:15:54,16:34:53,NA,incomplete,13,filling,1,left,Red_Triangle_Chess_3.jpg,Blue_Circle_Chess_2.jpg,Red_Star_Stripes_1.jpg,right,541.0200000042096,false,high,NA,NA,NA,NA,NA,NA,NA,false
ZwOYNHnf,338glsui56olvzhlkxidlboc564sfp,3lq8puhqfp5i213p1dh19eqtykqih1,ZwOYNHnf,2020-0188,2020-05-21,16:15:54,16:34:53,NA,incomplete,14,filling,1,left,Purple_Star_Stripes_3.jpg,Blue_Plus_Stripes_4.jpg,Purple_Triangle_Dots_2.jpg,left,325.46999999613035,true,high,NA,NA,NA,NA,NA,NA,NA,false
ZwOYNHnf,338glsui56olvzhlkxidlboc564sfp,3lq8puhqfp5i213p1dh19eqtykqih1,ZwOYNHnf,2020-0188,2020-05-21,16:15:54,16:34:53,NA,incomplete,15,filling,1,left,Red_Triangle_Stripes_2.jpg,Green_Circle_Stripes_1.jpg,Red_Plus_Grid_3.jpg,right,637.589999998454,false,high,NA,NA,NA,NA,NA,NA,NA,false
ZwOYNHnf,338glsui56olvzhlkxidlboc564sfp,3lq8puhqfp5i213p1dh19eqtykqih1,ZwOYNHnf,2020-0188,2020-05-21,16:15:54,16:34:53,NA,incomplete,16,filling,0,right,Green_Plus_Stripes_4.jpg,Green_Circle_Grid_1.jpg,Purple_Star_Stripes_3.jpg,left,449.28499999514315,false,high,NA,NA,NA,NA,NA,NA,NA,false
ZwOYNHnf,338glsui56olvzhlkxidlboc564sfp,3lq8puhqfp5i213p1dh19eqtykqih1,ZwOYNHnf,2020-0188,2020-05-21,16:15:54,16:34:53,NA,incomplete,17,filling,1,left,Blue_Plus_Dots_3.jpg,Red_Star_Dots_4.jpg,Blue_Triangle_Chess_1.jpg,right,508.41499998932704,false,high,NA,NA,NA,NA,NA,NA,NA,false
ZwOYNHnf,338glsui56olvzhlkxidlboc564sfp,3lq8puhqfp5i213p1dh19eqtykqih1,ZwOYNHnf,2020-0188,2020-05-21,16:15:54,16:34:53,NA,incomplete,18,filling,0,left,Purple_Triangle_Chess_1.jpg,Green_Plus_Chess_4.jpg,Purple_Circle_Grid_2.jpg,left,429.3000000034226,true,high,NA,NA,NA,NA,NA,NA,NA,false
ZwOYNHnf,338glsui56olvzhlkxidlboc564sfp,3lq8puhqfp5i213p1dh19eqtykqih1,ZwOYNHnf,2020-0188,2020-05-21,16:15:54,16:34:53,NA,incomplete,19,filling,1,right,Blue_Circle_Chess_3.jpg,Blue_Triangle_Dots_2.jpg,Red_Plus_Chess_1.jpg,left,585.9749999945052,false,high,NA,NA,NA,NA,NA,NA,NA,false
ZwOYNHnf,338glsui56olvzhlkxidlboc564sfp,3lq8puhqfp5i213p1dh19eqtykqih1,ZwOYNHnf,2020-0188,2020-05-21,16:15:54,16:34:53,NA,incomplete,20,color,0,right,Red_Circle_Dots_2.jpg,Green_Plus_Dots_1.jpg,Red_Triangle_Stripes_3.jpg,right,663.1149999884656,true,high,NA,NA,NA,NA,NA,NA,NA,false
ZwOYNHnf,338glsui56olvzhlkxidlboc564sfp,3lq8puhqfp5i213p1dh19eqtykqih1,ZwOYNHnf,2020-0188,2020-05-21,16:15:54,16:34:53,NA,incomplete,21,color,1,left,Purple_Plus_Chess_3.jpg,Purple_Circle_Stripes_2.jpg,Blue_Triangle_Chess_1.jpg,left,258.26999999117106,true,high,NA,NA,NA,NA,NA,NA,NA,false
ZwOYNHnf,338glsui56olvzhlkxidlboc564sfp,3lq8puhqfp5i213p1dh19eqtykqih1,ZwOYNHnf,2020-0188,2020-05-21,16:15:54,16:34:53,NA,incomplete,22,color,1,left,Purple_Circle_Chess_1.jpg,Purple_Triangle_Stripes_3.jpg,Red_Plus_Chess_2.jpg,right,366.3550000055693,false,high,NA,NA,NA,NA,NA,NA,NA,false
ZwOYNHnf,338glsui56olvzhlkxidlboc564sfp,3lq8puhqfp5i213p1dh19eqtykqih1,ZwOYNHnf,2020-0188,2020-05-21,16:15:54,16:34:53,NA,incomplete,23,color,1,right,Green_Circle_Dots_1.jpg,Blue_Triangle_Dots_2.jpg,Green_Star_Grid_4.jpg,right,587.8799999918556,true,high,NA,NA,NA,NA,NA,NA,NA,false
ZwOYNHnf,338glsui56olvzhlkxidlboc564sfp,3lq8puhqfp5i213p1dh19eqtykqih1,ZwOYNHnf,2020-0188,2020-05-21,16:15:54,16:34:53,NA,incomplete,24,color,1,left,Purple_Star_Stripes_2.jpg,Purple_Triangle_Grid_4.jpg,Green_Circle_Stripes_3.jpg,left,385.6850000011036,true,high,NA,NA,NA,NA,NA,NA,NA,false
ZwOYNHnf,338glsui56olvzhlkxidlboc564sfp,3lq8puhqfp5i213p1dh19eqtykqih1,ZwOYNHnf,2020-0188,2020-05-21,16:15:54,16:34:53,NA,incomplete,25,color,1,left,Green_Plus_Chess_1.jpg,Green_Triangle_Stripes_3.jpg,Blue_Star_Chess_2.jpg,left,664.2599999904633,true,high,NA,NA,NA,NA,NA,NA,NA,false
ZwOYNHnf,338glsui56olvzhlkxidlboc564sfp,3lq8puhqfp5i213p1dh19eqtykqih1,ZwOYNHnf,2020-0188,2020-05-21,16:15:54,16:34:53,NA,incomplete,26,color,1,right,Red_Plus_Grid_4.jpg,Purple_Star_Grid_2.jpg,Red_Circle_Dots_3.jpg,right,874.5800000033341,true,high,NA,NA,NA,NA,NA,NA,NA,false
ZwOYNHnf,338glsui56olvzhlkxidlboc564sfp,3lq8puhqfp5i213p1dh19eqtykqih1,ZwOYNHnf,2020-0188,2020-05-21,16:15:54,16:34:53,NA,incomplete,27,color,1,left,Blue_Star_Grid_3.jpg,Blue_Triangle_Dots_1.jpg,Green_Plus_Grid_2.jpg,left,1004.929999995511,true,high,NA,NA,NA,NA,NA,NA,NA,false
ZwOYNHnf,338glsui56olvzhlkxidlboc564sfp,3lq8puhqfp5i213p1dh19eqtykqih1,ZwOYNHnf,2020-0188,2020-05-21,16:15:54,16:34:53,NA,incomplete,28,color,1,left,Red_Plus_Stripes_4.jpg,Red_Triangle_Dots_3.jpg,Purple_Circle_Stripes_2.jpg,left,1474.370000010822,true,high,NA,NA,NA,NA,NA,NA,NA,false
ZwOYNHnf,338glsui56olvzhlkxidlboc564sfp,3lq8puhqfp5i213p1dh19eqtykqih1,ZwOYNHnf,2020-0188,2020-05-21,16:15:54,16:34:53,NA,incomplete,29,color,0,left,Blue_Star_Chess_3.jpg,Blue_Triangle_Grid_4.jpg,Purple_Plus_Chess_1.jpg,left,1325.7350000058068,true,high,NA,NA,NA,NA,NA,NA,NA,false
ZwOYNHnf,338glsui56olvzhlkxidlboc564sfp,3lq8puhqfp5i213p1dh19eqtykqih1,ZwOYNHnf,2020-0188,2020-05-21,16:15:54,16:34:53,NA,incomplete,30,filling,1,left,Blue_Circle_Chess_2.jpg,Green_Triangle_Chess_1.jpg,Blue_Star_Stripes_3.jpg,right,781.4700000017183,false,high,NA,NA,NA,NA,NA,NA,NA,false
ZwOYNHnf,338glsui56olvzhlkxidlboc564sfp,3lq8puhqfp5i213p1dh19eqtykqih1,ZwOYNHnf,2020-0188,2020-05-21,16:15:54,16:34:53,NA,incomplete,31,filling,1,right,Blue_Plus_Stripes_1.jpg,Blue_Triangle_Chess_2.jpg,Purple_Circle_Stripes_4.jpg,left,924.1999999940163,false,high,NA,NA,NA,NA,NA,NA,NA,false
ZwOYNHnf,338glsui56olvzhlkxidlboc564sfp,3lq8puhqfp5i213p1dh19eqtykqih1,ZwOYNHnf,2020-0188,2020-05-21,16:15:54,16:34:53,NA,incomplete,32,filling,1,right,Red_Triangle_Grid_2.jpg,Red_Circle_Stripes_1.jpg,Green_Star_Grid_3.jpg,left,772.9450000042561,false,high,NA,NA,NA,NA,NA,NA,NA,false
ZwOYNHnf,338glsui56olvzhlkxidlboc564sfp,3lq8puhqfp5i213p1dh19eqtykqih1,ZwOYNHnf,2020-0188,2020-05-21,16:15:54,16:34:53,NA,incomplete,33,filling,0,left,Red_Triangle_Grid_4.jpg,Blue_Circle_Grid_1.jpg,Red_Plus_Dots_2.jpg,right,780.1449999969918,false,high,NA,NA,NA,NA,NA,NA,NA,false
ZwOYNHnf,338glsui56olvzhlkxidlboc564sfp,3lq8puhqfp5i213p1dh19eqtykqih1,ZwOYNHnf,2020-0188,2020-05-21,16:15:54,16:34:53,NA,incomplete,34,filling,1,left,Red_Triangle_Dots_3.jpg,Purple_Circle_Dots_4.jpg,Red_Star_Stripes_2.jpg,right,912.9850000026636,false,high,NA,NA,NA,NA,NA,NA,NA,false
ZwOYNHnf,338glsui56olvzhlkxidlboc564sfp,3lq8puhqfp5i213p1dh19eqtykqih1,ZwOYNHnf,2020-0188,2020-05-21,16:15:54,16:34:53,NA,incomplete,35,filling,1,left,Purple_Plus_Grid_1.jpg,Green_Circle_Grid_4.jpg,Purple_Star_Dots_3.jpg,right,979.6449999994365,false,high,NA,NA,NA,NA,NA,NA,NA,false
ZwOYNHnf,338glsui56olvzhlkxidlboc564sfp,3lq8puhqfp5i213p1dh19eqtykqih1,ZwOYNHnf,2020-0188,2020-05-21,16:15:54,16:34:53,NA,incomplete,36,filling,1,right,Red_Plus_Stripes_4.jpg,Red_Circle_Dots_1.jpg,Green_Star_Stripes_3.jpg,left,547.1749999996973,false,high,NA,NA,NA,NA,NA,NA,NA,false
ZwOYNHnf,338glsui56olvzhlkxidlboc564sfp,3lq8puhqfp5i213p1dh19eqtykqih1,ZwOYNHnf,2020-0188,2020-05-21,16:15:54,16:34:53,NA,incomplete,37,filling,1,left,Green_Circle_Dots_1.jpg,Purple_Star_Dots_2.jpg,Green_Plus_Stripes_3.jpg,right,688.5299999994459,false,high,NA,NA,NA,NA,NA,NA,NA,false
ZwOYNHnf,338glsui56olvzhlkxidlboc564sfp,3lq8puhqfp5i213p1dh19eqtykqih1,ZwOYNHnf,2020-0188,2020-05-21,16:15:54,16:34:53,NA,incomplete,38,filling,1,left,Purple_Plus_Grid_3.jpg,Red_Triangle_Grid_2.jpg,Purple_Circle_Dots_1.jpg,right,562.5099999888334,false,high,NA,NA,NA,NA,NA,NA,NA,false
ZwOYNHnf,338glsui56olvzhlkxidlboc564sfp,3lq8puhqfp5i213p1dh19eqtykqih1,ZwOYNHnf,2020-0188,2020-05-21,16:15:54,16:34:53,NA,incomplete,39,filling,1,right,Green_Star_Chess_3.jpg,Green_Plus_Dots_4.jpg,Purple_Triangle_Chess_2.jpg,left,426.7200000031153,false,high,NA,NA,NA,NA,NA,NA,NA,false
ZwOYNHnf,338glsui56olvzhlkxidlboc564sfp,3lq8puhqfp5i213p1dh19eqtykqih1,ZwOYNHnf,2020-0188,2020-05-21,16:15:54,16:34:53,NA,incomplete,40,color,1,left,Red_Plus_Stripes_1.jpg,Red_Triangle_Grid_3.jpg,Blue_Star_Stripes_4.jpg,right,871.515000006184,false,high,NA,NA,NA,NA,NA,NA,NA,false
ZwOYNHnf,338glsui56olvzhlkxidlboc564sfp,3lq8puhqfp5i213p1dh19eqtykqih1,ZwOYNHnf,2020-0188,2020-05-21,16:15:54,16:34:53,NA,incomplete,41,color,1,left,Green_Circle_Dots_3.jpg,Green_Plus_Stripes_4.jpg,Blue_Star_Dots_1.jpg,left,777.2300000069663,true,high,NA,NA,NA,NA,NA,NA,NA,false
ZwOYNHnf,338glsui56olvzhlkxidlboc564sfp,3lq8puhqfp5i213p1dh19eqtykqih1,ZwOYNHnf,2020-0188,2020-05-21,16:15:54,16:34:53,NA,incomplete,42,color,0,right,Green_Circle_Grid_2.jpg,Purple_Triangle_Grid_1.jpg,Green_Plus_Dots_3.jpg,left,670.5000000074506,false,high,NA,NA,NA,NA,NA,NA,NA,false
ZwOYNHnf,338glsui56olvzhlkxidlboc564sfp,3lq8puhqfp5i213p1dh19eqtykqih1,ZwOYNHnf,2020-0188,2020-05-21,16:15:54,16:34:53,NA,incomplete,43,color,1,right,Green_Plus_Stripes_1.jpg,Red_Circle_Stripes_4.jpg,Green_Star_Grid_3.jpg,right,608.7299999926472,true,high,NA,NA,NA,NA,NA,NA,NA,false
ZwOYNHnf,338glsui56olvzhlkxidlboc564sfp,3lq8puhqfp5i213p1dh19eqtykqih1,ZwOYNHnf,2020-0188,2020-05-21,16:15:54,16:34:53,NA,incomplete,44,color,1,right,Blue_Triangle_Dots_1.jpg,Purple_Plus_Dots_4.jpg,Blue_Circle_Chess_2.jpg,left,621.9750000018394,false,high,NA,NA,NA,NA,NA,NA,NA,false
ZwOYNHnf,338glsui56olvzhlkxidlboc564sfp,3lq8puhqfp5i213p1dh19eqtykqih1,ZwOYNHnf,2020-0188,2020-05-21,16:15:54,16:34:53,NA,incomplete,45,color,1,left,Red_Star_Stripes_3.jpg,Red_Plus_Chess_1.jpg,Green_Triangle_Stripes_4.jpg,right,714.6050000010291,false,high,NA,NA,NA,NA,NA,NA,NA,false
ZwOYNHnf,338glsui56olvzhlkxidlboc564sfp,3lq8puhqfp5i213p1dh19eqtykqih1,ZwOYNHnf,2020-0188,2020-05-21,16:15:54,16:34:53,NA,incomplete,46,color,1,right,Blue_Star_Grid_3.jpg,Red_Triangle_Grid_1.jpg,Blue_Circle_Stripes_2.jpg,right,507.36000000324566,true,high,NA,NA,NA,NA,NA,NA,NA,false
ZwOYNHnf,338glsui56olvzhlkxidlboc564sfp,3lq8puhqfp5i213p1dh19eqtykqih1,ZwOYNHnf,2020-0188,2020-05-21,16:15:54,16:34:53,NA,incomplete,47,color,1,left,Blue_Triangle_Grid_4.jpg,Blue_Plus_Stripes_2.jpg,Red_Star_Grid_3.jpg,left,492.47000001196284,true,high,NA,NA,NA,NA,NA,NA,NA,false
ZwOYNHnf,338glsui56olvzhlkxidlboc564sfp,3lq8puhqfp5i213p1dh19eqtykqih1,ZwOYNHnf,2020-0188,2020-05-21,16:15:54,16:34:53,NA,incomplete,48,color,1,right,Blue_Plus_Stripes_3.jpg,Green_Triangle_Stripes_1.jpg,Blue_Star_Grid_2.jpg,right,518.1900000025053,true,high,NA,NA,NA,NA,NA,NA,NA,false
ZwOYNHnf,338glsui56olvzhlkxidlboc564sfp,3lq8puhqfp5i213p1dh19eqtykqih1,ZwOYNHnf,2020-0188,2020-05-21,16:15:54,16:34:53,NA,incomplete,49,color,1,right,Blue_Plus_Chess_1.jpg,Green_Triangle_Chess_3.jpg,Blue_Circle_Dots_2.jpg,right,527.620000008028,true,high,NA,NA,NA,NA,NA,NA,NA,false
ZwOYNHnf,338glsui56olvzhlkxidlboc564sfp,3lq8puhqfp5i213p1dh19eqtykqih1,ZwOYNHnf,2020-0188,2020-05-21,16:15:54,16:34:53,NA,incomplete,50,filling,0,right,Red_Star_Dots_2.jpg,Red_Circle_Grid_4.jpg,Purple_Plus_Dots_3.jpg,left,463.6049999971874,false,high,NA,NA,NA,NA,NA,NA,NA,false
ZwOYNHnf,338glsui56olvzhlkxidlboc564sfp,3lq8puhqfp5i213p1dh19eqtykqih1,ZwOYNHnf,2020-0188,2020-05-21,16:15:54,16:34:53,NA,incomplete,51,filling,1,left,Purple_Circle_Chess_2.jpg,Green_Plus_Chess_4.jpg,Purple_Star_Stripes_3.jpg,right,866.569999998319,false,high,NA,NA,NA,NA,NA,NA,NA,false
ZwOYNHnf,338glsui56olvzhlkxidlboc564sfp,3lq8puhqfp5i213p1dh19eqtykqih1,ZwOYNHnf,2020-0188,2020-05-21,16:15:54,16:34:53,NA,incomplete,52,filling,1,left,Red_Plus_Grid_3.jpg,Green_Triangle_Grid_4.jpg,Red_Circle_Chess_2.jpg,left,1149.7650000092108,true,high,NA,NA,NA,NA,NA,NA,NA,false
ZwOYNHnf,338glsui56olvzhlkxidlboc564sfp,3lq8puhqfp5i213p1dh19eqtykqih1,ZwOYNHnf,2020-0188,2020-05-21,16:15:54,16:34:53,NA,incomplete,53,filling,1,left,Purple_Plus_Dots_1.jpg,Red_Star_Dots_3.jpg,Purple_Circle_Stripes_2.jpg,right,715.8900000067661,false,high,NA,NA,NA,NA,NA,NA,NA,false
ZwOYNHnf,338glsui56olvzhlkxidlboc564sfp,3lq8puhqfp5i213p1dh19eqtykqih1,ZwOYNHnf,2020-0188,2020-05-21,16:15:54,16:34:53,NA,incomplete,54,filling,1,right,Green_Star_Dots_1.jpg,Green_Plus_Stripes_2.jpg,Blue_Triangle_Dots_3.jpg,left,29.220000011264347,false,high,NA,NA,NA,NA,NA,NA,NA,false
ZwOYNHnf,338glsui56olvzhlkxidlboc564sfp,3lq8puhqfp5i213p1dh19eqtykqih1,ZwOYNHnf,2020-0188,2020-05-21,16:15:54,16:34:53,NA,incomplete,55,filling,1,left,Green_Triangle_Stripes_3.jpg,Blue_Plus_Stripes_2.jpg,Green_Star_Chess_1.jpg,right,1033.4399999992456,false,high,NA,NA,NA,NA,NA,NA,NA,false
ZwOYNHnf,338glsui56olvzhlkxidlboc564sfp,3lq8puhqfp5i213p1dh19eqtykqih1,ZwOYNHnf,2020-0188,2020-05-21,16:15:54,16:34:53,NA,incomplete,56,filling,1,left,Blue_Star_Grid_3.jpg,Purple_Circle_Grid_2.jpg,Blue_Triangle_Dots_1.jpg,right,405.9949999937089,false,high,NA,NA,NA,NA,NA,NA,NA,false
ZwOYNHnf,338glsui56olvzhlkxidlboc564sfp,3lq8puhqfp5i213p1dh19eqtykqih1,ZwOYNHnf,2020-0188,2020-05-21,16:15:54,16:34:53,NA,incomplete,57,filling,1,right,Red_Plus_Chess_4.jpg,Red_Triangle_Grid_3.jpg,Purple_Star_Chess_2.jpg,left,394.5700000040233,false,high,NA,NA,NA,NA,NA,NA,NA,false
ZwOYNHnf,338glsui56olvzhlkxidlboc564sfp,3lq8puhqfp5i213p1dh19eqtykqih1,ZwOYNHnf,2020-0188,2020-05-21,16:15:54,16:34:53,NA,incomplete,58,filling,0,right,Purple_Plus_Dots_2.jpg,Purple_Star_Chess_4.jpg,Green_Triangle_Dots_1.jpg,right,473.0299999937415,true,high,NA,NA,NA,NA,NA,NA,NA,false
ZwOYNHnf,338glsui56olvzhlkxidlboc564sfp,3lq8puhqfp5i213p1dh19eqtykqih1,ZwOYNHnf,2020-0188,2020-05-21,16:15:54,16:34:53,NA,incomplete,59,filling,1,left,Red_Plus_Dots_3.jpg,Green_Circle_Dots_4.jpg,Red_Triangle_Stripes_2.jpg,left,601.7250000004424,true,high,NA,NA,NA,NA,NA,NA,NA,false
ZwOYNHnf,338glsui56olvzhlkxidlboc564sfp,3lq8puhqfp5i213p1dh19eqtykqih1,ZwOYNHnf,2020-0188,2020-05-21,16:15:54,16:34:53,NA,incomplete,60,color,1,left,Red_Plus_Grid_3.jpg,Red_Star_Stripes_1.jpg,Purple_Circle_Grid_2.jpg,right,583.2650000083959,false,high,NA,NA,NA,NA,NA,NA,NA,false
ZwOYNHnf,338glsui56olvzhlkxidlboc564sfp,3lq8puhqfp5i213p1dh19eqtykqih1,ZwOYNHnf,2020-0188,2020-05-21,16:15:54,16:34:53,NA,incomplete,61,color,1,left,Red_Circle_Stripes_2.jpg,Red_Triangle_Chess_3.jpg,Blue_Star_Stripes_1.jpg,right,686.0100000048988,false,high,NA,NA,NA,NA,NA,NA,NA,false
ZwOYNHnf,338glsui56olvzhlkxidlboc564sfp,3lq8puhqfp5i213p1dh19eqtykqih1,ZwOYNHnf,2020-0188,2020-05-21,16:15:54,16:34:53,NA,incomplete,62,color,1,right,Red_Plus_Stripes_1.jpg,Green_Star_Stripes_2.jpg,Red_Triangle_Grid_3.jpg,right,686.8949999916367,true,high,NA,NA,NA,NA,NA,NA,NA,false
ZwOYNHnf,338glsui56olvzhlkxidlboc564sfp,3lq8puhqfp5i213p1dh19eqtykqih1,ZwOYNHnf,2020-0188,2020-05-21,16:15:54,16:34:53,NA,incomplete,63,color,0,left,Blue_Plus_Chess_2.jpg,Blue_Star_Stripes_4.jpg,Red_Triangle_Chess_1.jpg,left,617.115000000922,true,high,NA,NA,NA,NA,NA,NA,NA,false
ZwOYNHnf,338glsui56olvzhlkxidlboc564sfp,3lq8puhqfp5i213p1dh19eqtykqih1,ZwOYNHnf,2020-0188,2020-05-21,16:15:54,16:34:53,NA,incomplete,64,color,1,right,Blue_Triangle_Chess_3.jpg,Red_Star_Chess_1.jpg,Blue_Plus_Dots_4.jpg,right,540.5850000097416,true,high,NA,NA,NA,NA,NA,NA,NA,false
ZwOYNHnf,338glsui56olvzhlkxidlboc564sfp,3lq8puhqfp5i213p1dh19eqtykqih1,ZwOYNHnf,2020-0188,2020-05-21,16:15:54,16:34:53,NA,incomplete,65,color,1,right,Blue_Circle_Chess_1.jpg,Purple_Star_Chess_3.jpg,Blue_Triangle_Dots_4.jpg,left,918.1850000022678,false,high,NA,NA,NA,NA,NA,NA,NA,false
ZwOYNHnf,338glsui56olvzhlkxidlboc564sfp,3lq8puhqfp5i213p1dh19eqtykqih1,ZwOYNHnf,2020-0188,2020-05-21,16:15:54,16:34:53,NA,incomplete,66,color,1,left,Blue_Star_Dots_2.jpg,Blue_Triangle_Stripes_4.jpg,Red_Plus_Dots_3.jpg,right,806.1350000061793,false,high,NA,NA,NA,NA,NA,NA,NA,false
ZwOYNHnf,338glsui56olvzhlkxidlboc564sfp,3lq8puhqfp5i213p1dh19eqtykqih1,ZwOYNHnf,2020-0188,2020-05-21,16:15:54,16:34:53,NA,incomplete,67,color,0,left,Green_Star_Dots_4.jpg,Green_Plus_Stripes_3.jpg,Red_Triangle_Dots_1.jpg,left,899.0099999937229,true,high,NA,NA,NA,NA,NA,NA,NA,false
ZwOYNHnf,338glsui56olvzhlkxidlboc564sfp,3lq8puhqfp5i213p1dh19eqtykqih1,ZwOYNHnf,2020-0188,2020-05-21,16:15:54,16:34:53,NA,incomplete,68,color,0,left,Blue_Circle_Chess_2.jpg,Blue_Plus_Dots_1.jpg,Green_Star_Chess_4.jpg,left,1149.0049999993062,true,high,NA,NA,NA,NA,NA,NA,NA,false
ZwOYNHnf,338glsui56olvzhlkxidlboc564sfp,3lq8puhqfp5i213p1dh19eqtykqih1,ZwOYNHnf,2020-0188,2020-05-21,16:15:54,16:34:53,NA,incomplete,69,color,1,left,Green_Triangle_Dots_4.jpg,Green_Plus_Stripes_3.jpg,Purple_Star_Dots_1.jpg,left,780.4750000068452,true,high,NA,NA,NA,NA,NA,NA,NA,false
ZwOYNHnf,338glsui56olvzhlkxidlboc564sfp,3lq8puhqfp5i213p1dh19eqtykqih1,ZwOYNHnf,2020-0188,2020-05-21,16:15:54,16:34:53,NA,incomplete,70,filling,1,left,Blue_Plus_Grid_4.jpg,Red_Star_Grid_1.jpg,Blue_Triangle_Dots_3.jpg,right,843.1150000105845,false,high,NA,NA,NA,NA,NA,NA,NA,false
ZwOYNHnf,338glsui56olvzhlkxidlboc564sfp,3lq8puhqfp5i213p1dh19eqtykqih1,ZwOYNHnf,2020-0188,2020-05-21,16:15:54,16:34:53,NA,incomplete,71,filling,0,right,Purple_Star_Stripes_4.jpg,Purple_Triangle_Grid_2.jpg,Green_Circle_Stripes_1.jpg,left,351.14500000781845,false,high,NA,NA,NA,NA,NA,NA,NA,false
ZwOYNHnf,338glsui56olvzhlkxidlboc564sfp,3lq8puhqfp5i213p1dh19eqtykqih1,ZwOYNHnf,2020-0188,2020-05-21,16:15:54,16:34:53,NA,incomplete,72,filling,1,left,Red_Plus_Dots_1.jpg,Purple_Circle_Dots_2.jpg,Red_Triangle_Chess_4.jpg,right,549.1999999940163,false,high,NA,NA,NA,NA,NA,NA,NA,false
ZwOYNHnf,338glsui56olvzhlkxidlboc564sfp,3lq8puhqfp5i213p1dh19eqtykqih1,ZwOYNHnf,2020-0188,2020-05-21,16:15:54,16:34:53,NA,incomplete,73,filling,0,right,Red_Plus_Grid_3.jpg,Red_Circle_Chess_2.jpg,Blue_Star_Grid_4.jpg,left,420.5450000008568,false,high,NA,NA,NA,NA,NA,NA,NA,false
ZwOYNHnf,338glsui56olvzhlkxidlboc564sfp,3lq8puhqfp5i213p1dh19eqtykqih1,ZwOYNHnf,2020-0188,2020-05-21,16:15:54,16:34:53,NA,incomplete,74,filling,1,left,Red_Triangle_Dots_3.jpg,Blue_Star_Dots_2.jpg,Red_Circle_Stripes_1.jpg,left,665.1649999985239,true,high,NA,NA,NA,NA,NA,NA,NA,false
ZwOYNHnf,338glsui56olvzhlkxidlboc564sfp,3lq8puhqfp5i213p1dh19eqtykqih1,ZwOYNHnf,2020-0188,2020-05-21,16:15:54,16:34:53,NA,incomplete,75,filling,1,left,Green_Star_Grid_2.jpg,Purple_Circle_Grid_3.jpg,Green_Triangle_Chess_1.jpg,right,588.4000000078231,false,high,NA,NA,NA,NA,NA,NA,NA,false
ZwOYNHnf,338glsui56olvzhlkxidlboc564sfp,3lq8puhqfp5i213p1dh19eqtykqih1,ZwOYNHnf,2020-0188,2020-05-21,16:15:54,16:34:53,NA,incomplete,76,filling,1,right,Purple_Star_Stripes_4.jpg,Purple_Plus_Dots_3.jpg,Green_Triangle_Stripes_1.jpg,right,754.3449999939185,true,high,NA,NA,NA,NA,NA,NA,NA,false
ZwOYNHnf,338glsui56olvzhlkxidlboc564sfp,3lq8puhqfp5i213p1dh19eqtykqih1,ZwOYNHnf,2020-0188,2020-05-21,16:15:54,16:34:53,NA,incomplete,77,filling,0,left,Red_Triangle_Stripes_1.jpg,Green_Circle_Stripes_4.jpg,Red_Plus_Grid_2.jpg,left,680.899999992107,true,high,NA,NA,NA,NA,NA,NA,NA,false
ZwOYNHnf,338glsui56olvzhlkxidlboc564sfp,3lq8puhqfp5i213p1dh19eqtykqih1,ZwOYNHnf,2020-0188,2020-05-21,16:15:54,16:34:53,NA,incomplete,78,filling,1,left,Purple_Triangle_Grid_1.jpg,Blue_Plus_Grid_2.jpg,Purple_Circle_Stripes_4.jpg,left,771.3800000055926,true,high,NA,NA,NA,NA,NA,NA,NA,false
ZwOYNHnf,338glsui56olvzhlkxidlboc564sfp,3lq8puhqfp5i213p1dh19eqtykqih1,ZwOYNHnf,2020-0188,2020-05-21,16:15:54,16:34:53,NA,incomplete,79,filling,1,left,Red_Star_Chess_4.jpg,Purple_Plus_Chess_2.jpg,Red_Circle_Dots_3.jpg,left,658.6649999953806,true,high,NA,NA,NA,NA,NA,NA,NA,false
ZwOYNHnf,338glsui56olvzhlkxidlboc564sfp,3lq8puhqfp5i213p1dh19eqtykqih1,ZwOYNHnf,2020-0188,2020-05-21,16:15:54,16:34:53,NA,incomplete,80,color,1,right,Green_Star_Stripes_2.jpg,Purple_Circle_Stripes_1.jpg,Green_Triangle_Chess_3.jpg,left,768.6400000093272,false,high,NA,NA,NA,NA,NA,NA,NA,false
ZwOYNHnf,338glsui56olvzhlkxidlboc564sfp,3lq8puhqfp5i213p1dh19eqtykqih1,ZwOYNHnf,2020-0188,2020-05-21,16:15:54,16:34:53,NA,incomplete,81,color,0,left,Purple_Star_Dots_4.jpg,Purple_Circle_Grid_3.jpg,Green_Plus_Dots_1.jpg,right,467.05500000098255,false,high,NA,NA,NA,NA,NA,NA,NA,false
ZwOYNHnf,338glsui56olvzhlkxidlboc564sfp,3lq8puhqfp5i213p1dh19eqtykqih1,ZwOYNHnf,2020-0188,2020-05-21,16:15:54,16:34:53,NA,incomplete,82,color,1,left,Red_Circle_Stripes_1.jpg,Red_Star_Chess_2.jpg,Purple_Triangle_Stripes_4.jpg,left,1493.3750000054715,true,high,NA,NA,NA,NA,NA,NA,NA,false
ZwOYNHnf,338glsui56olvzhlkxidlboc564sfp,3lq8puhqfp5i213p1dh19eqtykqih1,ZwOYNHnf,2020-0188,2020-05-21,16:15:54,16:34:53,NA,incomplete,83,color,1,right,Blue_Triangle_Dots_3.jpg,Purple_Star_Dots_1.jpg,Blue_Plus_Grid_2.jpg,right,488.100000002305,true,high,NA,NA,NA,NA,NA,NA,NA,false
ZwOYNHnf,338glsui56olvzhlkxidlboc564sfp,3lq8puhqfp5i213p1dh19eqtykqih1,ZwOYNHnf,2020-0188,2020-05-21,16:15:54,16:34:53,NA,incomplete,84,color,1,right,Purple_Plus_Chess_2.jpg,Red_Triangle_Chess_1.jpg,Purple_Circle_Grid_4.jpg,left,1514.419999992242,false,high,NA,NA,NA,NA,NA,NA,NA,false
ZwOYNHnf,338glsui56olvzhlkxidlboc564sfp,3lq8puhqfp5i213p1dh19eqtykqih1,ZwOYNHnf,2020-0188,2020-05-21,16:15:54,16:34:53,NA,incomplete,85,color,1,right,Blue_Triangle_Grid_1.jpg,Green_Star_Grid_3.jpg,Blue_Plus_Chess_2.jpg,right,514.9300000048243,true,high,NA,NA,NA,NA,NA,NA,NA,false
ZwOYNHnf,338glsui56olvzhlkxidlboc564sfp,3lq8puhqfp5i213p1dh19eqtykqih1,ZwOYNHnf,2020-0188,2020-05-21,16:15:54,16:34:53,NA,incomplete,86,color,1,right,Blue_Circle_Grid_2.jpg,Red_Star_Grid_1.jpg,Blue_Plus_Chess_4.jpg,left,684.5949999988079,false,high,NA,NA,NA,NA,NA,NA,NA,false
ZwOYNHnf,338glsui56olvzhlkxidlboc564sfp,3lq8puhqfp5i213p1dh19eqtykqih1,ZwOYNHnf,2020-0188,2020-05-21,16:15:54,16:34:53,NA,incomplete,87,color,1,left,Red_Triangle_Grid_1.jpg,Red_Star_Stripes_4.jpg,Blue_Circle_Grid_2.jpg,right,949.0450000012061,false,high,NA,NA,NA,NA,NA,NA,NA,false
ZwOYNHnf,338glsui56olvzhlkxidlboc564sfp,3lq8puhqfp5i213p1dh19eqtykqih1,ZwOYNHnf,2020-0188,2020-05-21,16:15:54,16:34:53,NA,incomplete,88,color,1,left,Purple_Star_Dots_1.jpg,Purple_Plus_Stripes_4.jpg,Green_Circle_Dots_2.jpg,left,437.26999999489635,true,high,NA,NA,NA,NA,NA,NA,NA,false
ZwOYNHnf,338glsui56olvzhlkxidlboc564sfp,3lq8puhqfp5i213p1dh19eqtykqih1,ZwOYNHnf,2020-0188,2020-05-21,16:15:54,16:34:53,NA,incomplete,89,color,1,left,Blue_Circle_Chess_4.jpg,Blue_Star_Stripes_3.jpg,Red_Plus_Chess_1.jpg,right,753.4850000083679,false,high,NA,NA,NA,NA,NA,NA,NA,false
ZwOYNHnf,338glsui56olvzhlkxidlboc564sfp,3lq8puhqfp5i213p1dh19eqtykqih1,ZwOYNHnf,2020-0188,2020-05-21,16:15:54,16:34:53,NA,incomplete,90,filling,1,left,Red_Plus_Stripes_2.jpg,Blue_Triangle_Stripes_1.jpg,Red_Circle_Grid_4.jpg,left,560.9399999957532,true,high,NA,NA,NA,NA,NA,NA,NA,false
ZwOYNHnf,338glsui56olvzhlkxidlboc564sfp,3lq8puhqfp5i213p1dh19eqtykqih1,ZwOYNHnf,2020-0188,2020-05-21,16:15:54,16:34:53,NA,incomplete,91,filling,1,left,Purple_Triangle_Stripes_3.jpg,Red_Plus_Stripes_2.jpg,Purple_Circle_Chess_1.jpg,left,639.1200000070967,true,high,NA,NA,NA,NA,NA,NA,NA,false
ZwOYNHnf,338glsui56olvzhlkxidlboc564sfp,3lq8puhqfp5i213p1dh19eqtykqih1,ZwOYNHnf,2020-0188,2020-05-21,16:15:54,16:34:53,NA,incomplete,92,filling,1,right,Purple_Star_Stripes_2.jpg,Purple_Triangle_Dots_3.jpg,Green_Circle_Stripes_1.jpg,right,1130.61999999627,true,high,NA,NA,NA,NA,NA,NA,NA,false
ZwOYNHnf,338glsui56olvzhlkxidlboc564sfp,3lq8puhqfp5i213p1dh19eqtykqih1,ZwOYNHnf,2020-0188,2020-05-21,16:15:54,16:34:53,NA,incomplete,93,filling,1,left,Purple_Circle_Grid_1.jpg,Blue_Triangle_Grid_2.jpg,Purple_Star_Dots_3.jpg,right,723.0899999995017,false,high,NA,NA,NA,NA,NA,NA,NA,false
ZwOYNHnf,338glsui56olvzhlkxidlboc564sfp,3lq8puhqfp5i213p1dh19eqtykqih1,ZwOYNHnf,2020-0188,2020-05-21,16:15:54,16:34:53,NA,incomplete,94,filling,1,left,Purple_Star_Stripes_4.jpg,Green_Plus_Stripes_1.jpg,Purple_Triangle_Dots_3.jpg,left,1764.0799999935552,true,high,NA,NA,NA,NA,NA,NA,NA,false
ZwOYNHnf,338glsui56olvzhlkxidlboc564sfp,3lq8puhqfp5i213p1dh19eqtykqih1,ZwOYNHnf,2020-0188,2020-05-21,16:15:54,16:34:53,NA,incomplete,95,filling,1,right,Red_Plus_Grid_2.jpg,Red_Circle_Chess_4.jpg,Blue_Triangle_Grid_3.jpg,left,459.4900000083726,false,high,NA,NA,NA,NA,NA,NA,NA,false
ZwOYNHnf,338glsui56olvzhlkxidlboc564sfp,3lq8puhqfp5i213p1dh19eqtykqih1,ZwOYNHnf,2020-0188,2020-05-21,16:15:54,16:34:53,NA,incomplete,96,filling,1,right,Blue_Triangle_Grid_2.jpg,Blue_Star_Stripes_1.jpg,Red_Circle_Grid_4.jpg,right,6.26499998907093,true,high,NA,NA,NA,NA,NA,NA,NA,false
ZwOYNHnf,338glsui56olvzhlkxidlboc564sfp,3lq8puhqfp5i213p1dh19eqtykqih1,ZwOYNHnf,2020-0188,2020-05-21,16:15:54,16:34:53,NA,incomplete,97,filling,1,right,Green_Plus_Dots_3.jpg,Green_Star_Chess_4.jpg,Blue_Triangle_Dots_1.jpg,left,547.5299999961862,false,high,NA,NA,NA,NA,NA,NA,NA,false
ZwOYNHnf,338glsui56olvzhlkxidlboc564sfp,3lq8puhqfp5i213p1dh19eqtykqih1,ZwOYNHnf,2020-0188,2020-05-21,16:15:54,16:34:53,NA,incomplete,98,filling,1,left,Green_Plus_Stripes_4.jpg,Blue_Triangle_Stripes_2.jpg,Green_Star_Dots_1.jpg,right,650.5299999989802,false,high,NA,NA,NA,NA,NA,NA,NA,false
ZwOYNHnf,338glsui56olvzhlkxidlboc564sfp,3lq8puhqfp5i213p1dh19eqtykqih1,ZwOYNHnf,2020-0188,2020-05-21,16:15:54,16:34:53,NA,incomplete,99,filling,1,right,Red_Triangle_Chess_4.jpg,Red_Plus_Grid_2.jpg,Green_Circle_Chess_1.jpg,right,478.7999999971362,true,high,NA,NA,NA,NA,NA,NA,NA,false
ZwOYNHnf,338glsui56olvzhlkxidlboc564sfp,3lq8puhqfp5i213p1dh19eqtykqih1,ZwOYNHnf,2020-0188,2020-05-21,16:15:54,16:34:53,NA,incomplete,100,color,0,left,Red_Plus_Stripes_3.jpg,Red_Star_Grid_2.jpg,Blue_Circle_Stripes_4.jpg,right,465.5849999981001,false,high,NA,NA,NA,NA,NA,NA,NA,false
ZwOYNHnf,338glsui56olvzhlkxidlboc564sfp,3lq8puhqfp5i213p1dh19eqtykqih1,ZwOYNHnf,2020-0188,2020-05-21,16:15:54,16:34:53,NA,incomplete,101,color,1,left,Red_Star_Grid_1.jpg,Red_Triangle_Stripes_2.jpg,Purple_Plus_Grid_4.jpg,left,604.3249999929685,true,high,NA,NA,NA,NA,NA,NA,NA,false
ZwOYNHnf,338glsui56olvzhlkxidlboc564sfp,3lq8puhqfp5i213p1dh19eqtykqih1,ZwOYNHnf,2020-0188,2020-05-21,16:15:54,16:34:53,NA,incomplete,102,color,0,right,Green_Plus_Stripes_1.jpg,Red_Triangle_Stripes_4.jpg,Green_Circle_Dots_2.jpg,right,519.784999996773,true,high,NA,NA,NA,NA,NA,NA,NA,false
ZwOYNHnf,338glsui56olvzhlkxidlboc564sfp,3lq8puhqfp5i213p1dh19eqtykqih1,ZwOYNHnf,2020-0188,2020-05-21,16:15:54,16:34:53,NA,incomplete,103,color,0,left,Purple_Triangle_Grid_1.jpg,Purple_Circle_Dots_4.jpg,Green_Plus_Grid_3.jpg,right,792.5199999881443,false,high,NA,NA,NA,NA,NA,NA,NA,false
ZwOYNHnf,338glsui56olvzhlkxidlboc564sfp,3lq8puhqfp5i213p1dh19eqtykqih1,ZwOYNHnf,2020-0188,2020-05-21,16:15:54,16:34:53,NA,incomplete,104,color,1,right,Purple_Triangle_Chess_3.jpg,Green_Circle_Chess_1.jpg,Purple_Plus_Grid_2.jpg,left,375.48500001139473,false,high,NA,NA,NA,NA,NA,NA,NA,false
ZwOYNHnf,338glsui56olvzhlkxidlboc564sfp,3lq8puhqfp5i213p1dh19eqtykqih1,ZwOYNHnf,2020-0188,2020-05-21,16:15:54,16:34:53,NA,incomplete,105,color,1,left,Blue_Plus_Grid_2.jpg,Blue_Triangle_Dots_4.jpg,Purple_Star_Grid_1.jpg,right,460.6199999980163,false,high,NA,NA,NA,NA,NA,NA,NA,false
ZwOYNHnf,338glsui56olvzhlkxidlboc564sfp,3lq8puhqfp5i213p1dh19eqtykqih1,ZwOYNHnf,2020-0188,2020-05-21,16:15:54,16:34:53,NA,incomplete,106,color,0,right,Blue_Star_Dots_3.jpg,Purple_Plus_Dots_1.jpg,Blue_Circle_Chess_2.jpg,right,400.54000000236556,true,high,NA,NA,NA,NA,NA,NA,NA,false
ZwOYNHnf,338glsui56olvzhlkxidlboc564sfp,3lq8puhqfp5i213p1dh19eqtykqih1,ZwOYNHnf,2020-0188,2020-05-21,16:15:54,16:34:53,NA,incomplete,107,color,1,right,Purple_Star_Grid_3.jpg,Blue_Triangle_Grid_4.jpg,Purple_Circle_Stripes_2.jpg,right,637.9349999915576,true,high,NA,NA,NA,NA,NA,NA,NA,false
ZwOYNHnf,338glsui56olvzhlkxidlboc564sfp,3lq8puhqfp5i213p1dh19eqtykqih1,ZwOYNHnf,2020-0188,2020-05-21,16:15:54,16:34:53,NA,incomplete,108,color,1,right,Green_Circle_Grid_4.jpg,Blue_Star_Grid_2.jpg,Green_Plus_Chess_3.jpg,right,455.4150000039954,true,high,NA,NA,NA,NA,NA,NA,NA,false
ZwOYNHnf,338glsui56olvzhlkxidlboc564sfp,3lq8puhqfp5i213p1dh19eqtykqih1,ZwOYNHnf,2020-0188,2020-05-21,16:15:54,16:34:53,NA,incomplete,109,color,1,right,Purple_Circle_Grid_4.jpg,Blue_Plus_Grid_2.jpg,Purple_Triangle_Chess_1.jpg,right,603.2450000056997,true,high,NA,NA,NA,NA,NA,NA,NA,false
ZwOYNHnf,338glsui56olvzhlkxidlboc564sfp,3lq8puhqfp5i213p1dh19eqtykqih1,ZwOYNHnf,2020-0188,2020-05-21,16:15:54,16:34:53,NA,incomplete,110,filling,0,left,Blue_Triangle_Stripes_3.jpg,Purple_Circle_Stripes_1.jpg,Blue_Plus_Chess_2.jpg,right,538.4649999905378,false,high,NA,NA,NA,NA,NA,NA,NA,false
ZwOYNHnf,338glsui56olvzhlkxidlboc564sfp,3lq8puhqfp5i213p1dh19eqtykqih1,ZwOYNHnf,2020-0188,2020-05-21,16:15:54,16:34:53,NA,incomplete,111,filling,1,left,Purple_Star_Stripes_3.jpg,Green_Circle_Stripes_2.jpg,Purple_Plus_Grid_1.jpg,right,510.76999999349937,false,high,NA,NA,NA,NA,NA,NA,NA,false
ZwOYNHnf,338glsui56olvzhlkxidlboc564sfp,3lq8puhqfp5i213p1dh19eqtykqih1,ZwOYNHnf,2020-0188,2020-05-21,16:15:54,16:34:53,NA,incomplete,112,filling,1,right,Purple_Star_Grid_2.jpg,Purple_Triangle_Dots_4.jpg,Red_Circle_Grid_1.jpg,left,456.1799999937648,false,high,NA,NA,NA,NA,NA,NA,NA,false
ZwOYNHnf,338glsui56olvzhlkxidlboc564sfp,3lq8puhqfp5i213p1dh19eqtykqih1,ZwOYNHnf,2020-0188,2020-05-21,16:15:54,16:34:53,NA,incomplete,113,filling,0,left,Purple_Circle_Grid_3.jpg,Green_Star_Grid_2.jpg,Purple_Plus_Chess_1.jpg,left,420.5450000008568,true,high,NA,NA,NA,NA,NA,NA,NA,false
ZwOYNHnf,338glsui56olvzhlkxidlboc564sfp,3lq8puhqfp5i213p1dh19eqtykqih1,ZwOYNHnf,2020-0188,2020-05-21,16:15:54,16:34:53,NA,incomplete,114,filling,1,left,Blue_Triangle_Stripes_1.jpg,Green_Plus_Stripes_4.jpg,Blue_Star_Dots_3.jpg,left,463.8399999967078,true,high,NA,NA,NA,NA,NA,NA,NA,false
ZwOYNHnf,338glsui56olvzhlkxidlboc564sfp,3lq8puhqfp5i213p1dh19eqtykqih1,ZwOYNHnf,2020-0188,2020-05-21,16:15:54,16:34:53,NA,incomplete,115,filling,1,left,Blue_Triangle_Dots_3.jpg,Purple_Circle_Dots_1.jpg,Blue_Plus_Stripes_2.jpg,left,554.8750000016298,true,high,NA,NA,NA,NA,NA,NA,NA,false
ZwOYNHnf,338glsui56olvzhlkxidlboc564sfp,3lq8puhqfp5i213p1dh19eqtykqih1,ZwOYNHnf,2020-0188,2020-05-21,16:15:54,16:34:53,NA,incomplete,116,filling,1,right,Purple_Plus_Stripes_4.jpg,Purple_Star_Chess_1.jpg,Green_Triangle_Stripes_2.jpg,right,574.0550000045914,true,high,NA,NA,NA,NA,NA,NA,NA,false
ZwOYNHnf,338glsui56olvzhlkxidlboc564sfp,3lq8puhqfp5i213p1dh19eqtykqih1,ZwOYNHnf,2020-0188,2020-05-21,16:15:54,16:34:53,NA,incomplete,117,filling,1,right,Red_Plus_Grid_4.jpg,Red_Circle_Dots_3.jpg,Blue_Triangle_Grid_2.jpg,left,416.190000003553,false,high,NA,NA,NA,NA,NA,NA,NA,false
ZwOYNHnf,338glsui56olvzhlkxidlboc564sfp,3lq8puhqfp5i213p1dh19eqtykqih1,ZwOYNHnf,2020-0188,2020-05-21,16:15:54,16:34:53,NA,incomplete,118,filling,0,right,Red_Plus_Chess_4.jpg,Red_Triangle_Grid_3.jpg,Green_Circle_Chess_1.jpg,right,452.27999999769963,true,high,NA,NA,NA,NA,NA,NA,NA,false
ZwOYNHnf,338glsui56olvzhlkxidlboc564sfp,3lq8puhqfp5i213p1dh19eqtykqih1,ZwOYNHnf,2020-0188,2020-05-21,16:15:54,16:34:53,NA,incomplete,119,filling,1,left,Green_Plus_Grid_2.jpg,Red_Circle_Grid_1.jpg,Green_Star_Chess_3.jpg,left,336.48499999253545,true,high,NA,NA,NA,NA,NA,NA,NA,false
ZwOYNHnf,338glsui56olvzhlkxidlboc564sfp,3lq8puhqfp5i213p1dh19eqtykqih1,ZwOYNHnf,2020-0188,2020-05-21,16:15:54,16:34:53,NA,incomplete,120,number,0,left,Green_Circle_Dots_2.jpg,Purple_Star_Grid_2.jpg,Red_Circle_Chess_1.jpg,NA,NA,NA,high,NA,NA,NA,NA,NA,NA,NA,false
ZwOYNHnf,338glsui56olvzhlkxidlboc564sfp,3lq8puhqfp5i213p1dh19eqtykqih1,ZwOYNHnf,2020-0188,2020-05-21,16:15:54,16:34:53,NA,incomplete,121,number,1,left,Green_Star_Stripes_4.jpg,Red_Circle_Grid_4.jpg,Blue_Star_Chess_2.jpg,right,1514.2650000052527,false,high,NA,NA,NA,NA,NA,NA,NA,false
ZwOYNHnf,338glsui56olvzhlkxidlboc564sfp,3lq8puhqfp5i213p1dh19eqtykqih1,ZwOYNHnf,2020-0188,2020-05-21,16:15:54,16:34:53,NA,incomplete,122,number,1,right,Green_Triangle_Dots_1.jpg,Purple_Triangle_Grid_2.jpg,Red_Plus_Chess_1.jpg,right,868.3500000042841,true,high,NA,NA,NA,NA,NA,NA,NA,false
ZwOYNHnf,338glsui56olvzhlkxidlboc564sfp,3lq8puhqfp5i213p1dh19eqtykqih1,ZwOYNHnf,2020-0188,2020-05-21,16:15:54,16:34:53,NA,incomplete,123,number,0,left,Purple_Star_Dots_4.jpg,Red_Plus_Chess_4.jpg,Blue_Star_Grid_3.jpg,left,550.9749999910127,true,high,NA,NA,NA,NA,NA,NA,NA,false
ZwOYNHnf,338glsui56olvzhlkxidlboc564sfp,3lq8puhqfp5i213p1dh19eqtykqih1,ZwOYNHnf,2020-0188,2020-05-21,16:15:54,16:34:53,NA,incomplete,124,number,1,right,Red_Circle_Chess_3.jpg,Green_Circle_Stripes_4.jpg,Blue_Star_Dots_3.jpg,left,486.06999999901745,false,high,NA,NA,NA,NA,NA,NA,NA,false
ZwOYNHnf,338glsui56olvzhlkxidlboc564sfp,3lq8puhqfp5i213p1dh19eqtykqih1,ZwOYNHnf,2020-0188,2020-05-21,16:15:54,16:34:53,NA,incomplete,125,number,0,right,Green_Triangle_Chess_2.jpg,Red_Triangle_Grid_4.jpg,Purple_Plus_Dots_2.jpg,right,614.7300000011455,true,high,NA,NA,NA,NA,NA,NA,NA,false
ZwOYNHnf,338glsui56olvzhlkxidlboc564sfp,3lq8puhqfp5i213p1dh19eqtykqih1,ZwOYNHnf,2020-0188,2020-05-21,16:15:54,16:34:53,NA,incomplete,126,number,1,right,Green_Star_Dots_2.jpg,Red_Star_Grid_3.jpg,Purple_Plus_Stripes_2.jpg,right,590.200000006007,true,high,NA,NA,NA,NA,NA,NA,NA,false
ZwOYNHnf,338glsui56olvzhlkxidlboc564sfp,3lq8puhqfp5i213p1dh19eqtykqih1,ZwOYNHnf,2020-0188,2020-05-21,16:15:54,16:34:53,NA,incomplete,127,number,1,right,Purple_Circle_Grid_4.jpg,Green_Circle_Dots_1.jpg,Red_Triangle_Chess_4.jpg,left,457.3999999993248,false,high,NA,NA,NA,NA,NA,NA,NA,false
ZwOYNHnf,338glsui56olvzhlkxidlboc564sfp,3lq8puhqfp5i213p1dh19eqtykqih1,ZwOYNHnf,2020-0188,2020-05-21,16:15:54,16:34:53,NA,incomplete,128,number,1,right,Blue_Plus_Grid_4.jpg,Red_Plus_Dots_2.jpg,Purple_Circle_Chess_4.jpg,right,540.4750000016065,true,high,NA,NA,NA,NA,NA,NA,NA,false
ZwOYNHnf,338glsui56olvzhlkxidlboc564sfp,3lq8puhqfp5i213p1dh19eqtykqih1,ZwOYNHnf,2020-0188,2020-05-21,16:15:54,16:34:53,NA,incomplete,129,number,1,left,Red_Plus_Dots_2.jpg,Blue_Triangle_Chess_2.jpg,Purple_Plus_Stripes_4.jpg,left,548.0749999987893,true,high,NA,NA,NA,NA,NA,NA,NA,false
ZwOYNHnf,338glsui56olvzhlkxidlboc564sfp,3lq8puhqfp5i213p1dh19eqtykqih1,ZwOYNHnf,2020-0188,2020-05-21,16:15:54,16:34:53,NA,incomplete,130,number,1,right,Red_Circle_Dots_3.jpg,Blue_Circle_Chess_1.jpg,Green_Triangle_Stripes_3.jpg,right,476.5599999955157,true,high,NA,NA,NA,NA,NA,NA,NA,false
ZwOYNHnf,338glsui56olvzhlkxidlboc564sfp,3lq8puhqfp5i213p1dh19eqtykqih1,ZwOYNHnf,2020-0188,2020-05-21,16:15:54,16:34:53,NA,incomplete,131,number,0,right,Purple_Triangle_Chess_4.jpg,Red_Triangle_Grid_3.jpg,Green_Star_Dots_4.jpg,left,461.9200000015553,false,high,NA,NA,NA,NA,NA,NA,NA,false
ZwOYNHnf,338glsui56olvzhlkxidlboc564sfp,3lq8puhqfp5i213p1dh19eqtykqih1,ZwOYNHnf,2020-0188,2020-05-21,16:15:54,16:34:53,NA,incomplete,132,number,1,right,Blue_Circle_Chess_2.jpg,Purple_Circle_Grid_3.jpg,Green_Plus_Dots_2.jpg,left,681.3799999945331,false,high,NA,NA,NA,NA,NA,NA,NA,false
ZwOYNHnf,338glsui56olvzhlkxidlboc564sfp,3lq8puhqfp5i213p1dh19eqtykqih1,ZwOYNHnf,2020-0188,2020-05-21,16:15:54,16:34:53,NA,incomplete,133,number,1,right,Red_Triangle_Chess_3.jpg,Blue_Triangle_Stripes_2.jpg,Green_Plus_Grid_3.jpg,right,723.4150000003865,true,high,NA,NA,NA,NA,NA,NA,NA,false
ZwOYNHnf,338glsui56olvzhlkxidlboc564sfp,3lq8puhqfp5i213p1dh19eqtykqih1,ZwOYNHnf,2020-0188,2020-05-21,16:15:54,16:34:53,NA,incomplete,134,number,1,left,Purple_Plus_Grid_2.jpg,Green_Star_Chess_2.jpg,Red_Plus_Dots_1.jpg,left,500.0750000035623,true,high,NA,NA,NA,NA,NA,NA,NA,false
ZwOYNHnf,338glsui56olvzhlkxidlboc564sfp,3lq8puhqfp5i213p1dh19eqtykqih1,ZwOYNHnf,2020-0188,2020-05-21,16:15:54,16:34:53,NA,incomplete,135,number,1,right,Blue_Star_Stripes_3.jpg,Green_Star_Grid_2.jpg,Purple_Triangle_Chess_3.jpg,right,693.5599999997066,true,high,NA,NA,NA,NA,NA,NA,NA,false
ZwOYNHnf,338glsui56olvzhlkxidlboc564sfp,3lq8puhqfp5i213p1dh19eqtykqih1,ZwOYNHnf,2020-0188,2020-05-21,16:15:54,16:34:53,NA,incomplete,136,number,1,left,Green_Star_Stripes_1.jpg,Purple_Triangle_Grid_1.jpg,Red_Star_Chess_2.jpg,left,495.2599999960512,true,high,NA,NA,NA,NA,NA,NA,NA,false
ZwOYNHnf,338glsui56olvzhlkxidlboc564sfp,3lq8puhqfp5i213p1dh19eqtykqih1,ZwOYNHnf,2020-0188,2020-05-21,16:15:54,16:34:53,NA,incomplete,137,number,1,right,Green_Star_Chess_4.jpg,Red_Star_Dots_1.jpg,Blue_Circle_Grid_4.jpg,right,474.27999999490567,true,high,NA,NA,NA,NA,NA,NA,NA,false
ZwOYNHnf,338glsui56olvzhlkxidlboc564sfp,3lq8puhqfp5i213p1dh19eqtykqih1,ZwOYNHnf,2020-0188,2020-05-21,16:15:54,16:34:53,NA,incomplete,138,number,1,left,Purple_Triangle_Stripes_2.jpg,Green_Plus_Chess_2.jpg,Blue_Triangle_Grid_3.jpg,left,507.884999999078,true,high,NA,NA,NA,NA,NA,NA,NA,false
ZwOYNHnf,338glsui56olvzhlkxidlboc564sfp,3lq8puhqfp5i213p1dh19eqtykqih1,ZwOYNHnf,2020-0188,2020-05-21,16:15:54,16:34:53,NA,incomplete,139,number,0,left,Green_Star_Grid_4.jpg,Blue_Plus_Stripes_4.jpg,Purple_Star_Chess_2.jpg,left,524.0250000060769,true,high,NA,NA,NA,NA,NA,NA,NA,false
ZwOYNHnf,338glsui56olvzhlkxidlboc564sfp,3lq8puhqfp5i213p1dh19eqtykqih1,ZwOYNHnf,2020-0188,2020-05-21,16:15:54,16:34:53,NA,incomplete,140,shape,1,left,Red_Circle_Stripes_3.jpg,Purple_Circle_Chess_2.jpg,Green_Triangle_Dots_3.jpg,right,1149.2350000044098,false,high,NA,NA,NA,NA,NA,NA,NA,false
ZwOYNHnf,338glsui56olvzhlkxidlboc564sfp,3lq8puhqfp5i213p1dh19eqtykqih1,ZwOYNHnf,2020-0188,2020-05-21,16:15:54,16:34:53,NA,incomplete,141,shape,1,left,Blue_Circle_Grid_3.jpg,Green_Circle_Dots_1.jpg,Purple_Star_Stripes_3.jpg,left,645.6049999978859,true,high,NA,NA,NA,NA,NA,NA,NA,false
ZwOYNHnf,338glsui56olvzhlkxidlboc564sfp,3lq8puhqfp5i213p1dh19eqtykqih1,ZwOYNHnf,2020-0188,2020-05-21,16:15:54,16:34:53,NA,incomplete,142,shape,1,right,Green_Plus_Grid_4.jpg,Red_Circle_Chess_4.jpg,Purple_Plus_Dots_3.jpg,left,745.4300000099465,false,high,NA,NA,NA,NA,NA,NA,NA,false
ZwOYNHnf,338glsui56olvzhlkxidlboc564sfp,3lq8puhqfp5i213p1dh19eqtykqih1,ZwOYNHnf,2020-0188,2020-05-21,16:15:54,16:34:53,NA,incomplete,143,shape,1,right,Purple_Plus_Chess_1.jpg,Blue_Star_Stripes_1.jpg,Green_Plus_Dots_3.jpg,right,792.0450000092387,true,high,NA,NA,NA,NA,NA,NA,NA,false
ZwOYNHnf,338glsui56olvzhlkxidlboc564sfp,3lq8puhqfp5i213p1dh19eqtykqih1,ZwOYNHnf,2020-0188,2020-05-21,16:15:54,16:34:53,NA,incomplete,144,shape,1,left,Green_Circle_Grid_3.jpg,Purple_Circle_Stripes_4.jpg,Blue_Triangle_Chess_3.jpg,left,517.4200000037672,true,high,NA,NA,NA,NA,NA,NA,NA,false
ZwOYNHnf,338glsui56olvzhlkxidlboc564sfp,3lq8puhqfp5i213p1dh19eqtykqih1,ZwOYNHnf,2020-0188,2020-05-21,16:15:54,16:34:53,NA,incomplete,145,shape,1,left,Blue_Circle_Dots_1.jpg,Red_Circle_Chess_2.jpg,Green_Star_Grid_1.jpg,left,638.0150000040885,true,high,NA,NA,NA,NA,NA,NA,NA,false
ZwOYNHnf,338glsui56olvzhlkxidlboc564sfp,3lq8puhqfp5i213p1dh19eqtykqih1,ZwOYNHnf,2020-0188,2020-05-21,16:15:54,16:34:53,NA,incomplete,146,shape,1,right,Red_Star_Dots_3.jpg,Blue_Circle_Chess_3.jpg,Green_Star_Grid_2.jpg,right,874.0649999963352,true,high,NA,NA,NA,NA,NA,NA,NA,false
ZwOYNHnf,338glsui56olvzhlkxidlboc564sfp,3lq8puhqfp5i213p1dh19eqtykqih1,ZwOYNHnf,2020-0188,2020-05-21,16:15:54,16:34:53,NA,incomplete,147,shape,1,right,Blue_Star_Dots_2.jpg,Red_Plus_Chess_2.jpg,Purple_Star_Stripes_4.jpg,right,1068.5899999953108,true,high,NA,NA,NA,NA,NA,NA,NA,false
ZwOYNHnf,338glsui56olvzhlkxidlboc564sfp,3lq8puhqfp5i213p1dh19eqtykqih1,ZwOYNHnf,2020-0188,2020-05-21,16:15:54,16:34:53,NA,incomplete,148,shape,1,left,Red_Star_Stripes_1.jpg,Purple_Star_Dots_2.jpg,Blue_Triangle_Grid_1.jpg,left,615.4300000052899,true,high,NA,NA,NA,NA,NA,NA,NA,false
ZwOYNHnf,338glsui56olvzhlkxidlboc564sfp,3lq8puhqfp5i213p1dh19eqtykqih1,ZwOYNHnf,2020-0188,2020-05-21,16:15:54,16:34:53,NA,incomplete,149,shape,1,right,Blue_Plus_Stripes_4.jpg,Purple_Circle_Grid_4.jpg,Red_Plus_Dots_1.jpg,right,1092.1650000091176,true,high,NA,NA,NA,NA,NA,NA,NA,false
ZwOYNHnf,338glsui56olvzhlkxidlboc564sfp,3lq8puhqfp5i213p1dh19eqtykqih1,ZwOYNHnf,2020-0188,2020-05-21,16:15:54,16:34:53,NA,incomplete,150,shape,1,left,Purple_Plus_Stripes_3.jpg,Blue_Plus_Chess_4.jpg,Green_Star_Grid_3.jpg,left,877.6950000028592,true,high,NA,NA,NA,NA,NA,NA,NA,false
ZwOYNHnf,338glsui56olvzhlkxidlboc564sfp,3lq8puhqfp5i213p1dh19eqtykqih1,ZwOYNHnf,2020-0188,2020-05-21,16:15:54,16:34:53,NA,incomplete,151,shape,1,right,Purple_Plus_Dots_1.jpg,Green_Circle_Stripes_1.jpg,Blue_Plus_Chess_4.jpg,right,887.9949999973178,true,high,NA,NA,NA,NA,NA,NA,NA,false
ZwOYNHnf,338glsui56olvzhlkxidlboc564sfp,3lq8puhqfp5i213p1dh19eqtykqih1,ZwOYNHnf,2020-0188,2020-05-21,16:15:54,16:34:53,NA,incomplete,152,shape,1,right,Green_Plus_Grid_4.jpg,Blue_Triangle_Stripes_4.jpg,Purple_Plus_Chess_2.jpg,right,538.4950000006938,true,high,NA,NA,NA,NA,NA,NA,NA,false
ZwOYNHnf,338glsui56olvzhlkxidlboc564sfp,3lq8puhqfp5i213p1dh19eqtykqih1,ZwOYNHnf,2020-0188,2020-05-21,16:15:54,16:34:53,NA,incomplete,153,shape,1,right,Red_Plus_Chess_3.jpg,Purple_Triangle_Grid_3.jpg,Blue_Plus_Stripes_1.jpg,left,577.7800000068964,false,high,NA,NA,NA,NA,NA,NA,NA,false
ZwOYNHnf,338glsui56olvzhlkxidlboc564sfp,3lq8puhqfp5i213p1dh19eqtykqih1,ZwOYNHnf,2020-0188,2020-05-21,16:15:54,16:34:53,NA,incomplete,154,shape,1,right,Red_Star_Dots_4.jpg,Purple_Circle_Grid_4.jpg,Green_Star_Stripes_1.jpg,right,776.8300000025192,true,high,NA,NA,NA,NA,NA,NA,NA,false
ZwOYNHnf,338glsui56olvzhlkxidlboc564sfp,3lq8puhqfp5i213p1dh19eqtykqih1,ZwOYNHnf,2020-0188,2020-05-21,16:15:54,16:34:53,NA,incomplete,155,shape,1,right,Red_Plus_Dots_1.jpg,Purple_Circle_Stripes_1.jpg,Blue_Plus_Chess_4.jpg,right,527.845000004163,true,high,NA,NA,NA,NA,NA,NA,NA,false
ZwOYNHnf,338glsui56olvzhlkxidlboc564sfp,3lq8puhqfp5i213p1dh19eqtykqih1,ZwOYNHnf,2020-0188,2020-05-21,16:15:54,16:34:53,NA,incomplete,156,shape,1,left,Green_Plus_Dots_2.jpg,Red_Plus_Grid_3.jpg,Blue_Triangle_Stripes_2.jpg,left,510.98999999521766,true,high,NA,NA,NA,NA,NA,NA,NA,false
ZwOYNHnf,338glsui56olvzhlkxidlboc564sfp,3lq8puhqfp5i213p1dh19eqtykqih1,ZwOYNHnf,2020-0188,2020-05-21,16:15:54,16:34:53,NA,incomplete,157,shape,1,left,Green_Plus_Chess_2.jpg,Blue_Plus_Dots_3.jpg,Red_Triangle_Stripes_2.jpg,left,608.1300000078045,true,high,NA,NA,NA,NA,NA,NA,NA,false
ZwOYNHnf,338glsui56olvzhlkxidlboc564sfp,3lq8puhqfp5i213p1dh19eqtykqih1,ZwOYNHnf,2020-0188,2020-05-21,16:15:54,16:34:53,NA,incomplete,158,shape,0,left,Red_Plus_Stripes_4.jpg,Blue_Plus_Chess_1.jpg,Green_Circle_Dots_4.jpg,left,764.7049999941373,true,high,NA,NA,NA,NA,NA,NA,NA,false
ZwOYNHnf,338glsui56olvzhlkxidlboc564sfp,3lq8puhqfp5i213p1dh19eqtykqih1,ZwOYNHnf,2020-0188,2020-05-21,16:15:54,16:34:53,NA,incomplete,159,shape,1,right,Purple_Star_Dots_1.jpg,Green_Plus_Stripes_1.jpg,Blue_Star_Grid_4.jpg,left,700.154999998631,false,high,NA,NA,NA,NA,NA,NA,NA,false
ZwOYNHnf,338glsui56olvzhlkxidlboc564sfp,3lq8puhqfp5i213p1dh19eqtykqih1,ZwOYNHnf,2020-0188,2020-05-21,16:15:54,16:34:53,NA,incomplete,160,number,0,left,Blue_Circle_Dots_1.jpg,Purple_Star_Chess_1.jpg,Green_Circle_Stripes_3.jpg,left,484.7650000010617,true,high,NA,NA,NA,NA,NA,NA,NA,false
ZwOYNHnf,338glsui56olvzhlkxidlboc564sfp,3lq8puhqfp5i213p1dh19eqtykqih1,ZwOYNHnf,2020-0188,2020-05-21,16:15:54,16:34:53,NA,incomplete,161,number,1,right,Green_Plus_Chess_2.jpg,Red_Plus_Dots_3.jpg,Blue_Star_Grid_2.jpg,left,702.9949999996461,false,high,NA,NA,NA,NA,NA,NA,NA,false
ZwOYNHnf,338glsui56olvzhlkxidlboc564sfp,3lq8puhqfp5i213p1dh19eqtykqih1,ZwOYNHnf,2020-0188,2020-05-21,16:15:54,16:34:53,NA,incomplete,162,number,1,left,Purple_Plus_Chess_4.jpg,Red_Circle_Grid_4.jpg,Green_Plus_Dots_1.jpg,right,575.7599999924423,false,high,NA,NA,NA,NA,NA,NA,NA,false
ZwOYNHnf,338glsui56olvzhlkxidlboc564sfp,3lq8puhqfp5i213p1dh19eqtykqih1,ZwOYNHnf,2020-0188,2020-05-21,16:15:54,16:34:53,NA,incomplete,163,number,1,right,Blue_Triangle_Grid_4.jpg,Green_Triangle_Chess_2.jpg,Red_Circle_Stripes_4.jpg,right,510.2150000020629,true,high,NA,NA,NA,NA,NA,NA,NA,false
ZwOYNHnf,338glsui56olvzhlkxidlboc564sfp,3lq8puhqfp5i213p1dh19eqtykqih1,ZwOYNHnf,2020-0188,2020-05-21,16:15:54,16:34:53,NA,incomplete,164,number,0,right,Blue_Plus_Grid_4.jpg,Green_Plus_Dots_2.jpg,Red_Triangle_Stripes_4.jpg,left,519.9849999917205,false,high,NA,NA,NA,NA,NA,NA,NA,false
ZwOYNHnf,338glsui56olvzhlkxidlboc564sfp,3lq8puhqfp5i213p1dh19eqtykqih1,ZwOYNHnf,2020-0188,2020-05-21,16:15:54,16:34:53,NA,incomplete,165,number,1,right,Green_Plus_Chess_1.jpg,Red_Plus_Dots_4.jpg,Blue_Star_Grid_1.jpg,left,688.4100000024773,false,high,NA,NA,NA,NA,NA,NA,NA,false
ZwOYNHnf,338glsui56olvzhlkxidlboc564sfp,3lq8puhqfp5i213p1dh19eqtykqih1,ZwOYNHnf,2020-0188,2020-05-21,16:15:54,16:34:53,NA,incomplete,166,number,1,left,Blue_Triangle_Dots_1.jpg,Green_Circle_Stripes_1.jpg,Red_Triangle_Grid_4.jpg,left,562.2149999981048,true,high,NA,NA,NA,NA,NA,NA,NA,false
ZwOYNHnf,338glsui56olvzhlkxidlboc564sfp,3lq8puhqfp5i213p1dh19eqtykqih1,ZwOYNHnf,2020-0188,2020-05-21,16:15:54,16:34:53,NA,incomplete,167,number,1,right,Blue_Star_Dots_1.jpg,Green_Star_Chess_3.jpg,Purple_Circle_Grid_1.jpg,right,552.7500000025611,true,high,NA,NA,NA,NA,NA,NA,NA,false
ZwOYNHnf,338glsui56olvzhlkxidlboc564sfp,3lq8puhqfp5i213p1dh19eqtykqih1,ZwOYNHnf,2020-0188,2020-05-21,16:15:54,16:34:53,NA,incomplete,168,number,1,left,Green_Star_Chess_3.jpg,Purple_Circle_Stripes_3.jpg,Red_Star_Grid_1.jpg,left,510.41499999701045,true,high,NA,NA,NA,NA,NA,NA,NA,false
ZwOYNHnf,338glsui56olvzhlkxidlboc564sfp,3lq8puhqfp5i213p1dh19eqtykqih1,ZwOYNHnf,2020-0188,2020-05-21,16:15:54,16:34:53,NA,incomplete,169,number,1,right,Blue_Star_Grid_1.jpg,Green_Star_Chess_3.jpg,Purple_Plus_Stripes_1.jpg,left,767.8550000127871,false,high,NA,NA,NA,NA,NA,NA,NA,false
ZwOYNHnf,338glsui56olvzhlkxidlboc564sfp,3lq8puhqfp5i213p1dh19eqtykqih1,ZwOYNHnf,2020-0188,2020-05-21,16:15:54,16:34:53,NA,incomplete,170,number,1,right,Green_Triangle_Stripes_3.jpg,Blue_Triangle_Grid_4.jpg,Red_Star_Dots_3.jpg,right,646.3400000066031,true,high,NA,NA,NA,NA,NA,NA,NA,false
ZwOYNHnf,338glsui56olvzhlkxidlboc564sfp,3lq8puhqfp5i213p1dh19eqtykqih1,ZwOYNHnf,2020-0188,2020-05-21,16:15:54,16:34:53,NA,incomplete,171,number,0,right,Red_Circle_Dots_4.jpg,Purple_Circle_Chess_2.jpg,Green_Triangle_Stripes_4.jpg,left,554.7349999978906,false,high,NA,NA,NA,NA,NA,NA,NA,false
ZwOYNHnf,338glsui56olvzhlkxidlboc564sfp,3lq8puhqfp5i213p1dh19eqtykqih1,ZwOYNHnf,2020-0188,2020-05-21,16:15:54,16:34:53,NA,incomplete,172,number,1,right,Purple_Star_Stripes_3.jpg,Red_Star_Dots_1.jpg,Green_Triangle_Chess_3.jpg,left,737.4649999983376,false,high,NA,NA,NA,NA,NA,NA,NA,false
ZwOYNHnf,338glsui56olvzhlkxidlboc564sfp,3lq8puhqfp5i213p1dh19eqtykqih1,ZwOYNHnf,2020-0188,2020-05-21,16:15:54,16:34:53,NA,incomplete,173,number,0,left,Blue_Triangle_Stripes_1.jpg,Red_Star_Grid_1.jpg,Green_Triangle_Dots_2.jpg,right,665.6600000133039,false,high,NA,NA,NA,NA,NA,NA,NA,false
ZwOYNHnf,338glsui56olvzhlkxidlboc564sfp,3lq8puhqfp5i213p1dh19eqtykqih1,ZwOYNHnf,2020-0188,2020-05-21,16:15:54,16:34:53,NA,incomplete,174,number,1,right,Red_Plus_Chess_2.jpg,Blue_Plus_Dots_3.jpg,Purple_Circle_Stripes_2.jpg,left,516.3599999941653,false,high,NA,NA,NA,NA,NA,NA,NA,false
ZwOYNHnf,338glsui56olvzhlkxidlboc564sfp,3lq8puhqfp5i213p1dh19eqtykqih1,ZwOYNHnf,2020-0188,2020-05-21,16:15:54,16:34:53,NA,incomplete,175,number,1,left,Purple_Triangle_Stripes_4.jpg,Blue_Star_Grid_4.jpg,Green_Triangle_Dots_1.jpg,left,276.849999994738,true,high,NA,NA,NA,NA,NA,NA,NA,false
ZwOYNHnf,338glsui56olvzhlkxidlboc564sfp,3lq8puhqfp5i213p1dh19eqtykqih1,ZwOYNHnf,2020-0188,2020-05-21,16:15:54,16:34:53,NA,incomplete,176,number,1,left,Blue_Plus_Grid_1.jpg,Green_Triangle_Dots_1.jpg,Red_Plus_Chess_2.jpg,right,567.8599999955622,false,high,NA,NA,NA,NA,NA,NA,NA,false
ZwOYNHnf,338glsui56olvzhlkxidlboc564sfp,3lq8puhqfp5i213p1dh19eqtykqih1,ZwOYNHnf,2020-0188,2020-05-21,16:15:54,16:34:53,NA,incomplete,177,number,1,right,Green_Plus_Dots_3.jpg,Red_Plus_Stripes_4.jpg,Purple_Star_Chess_3.jpg,left,789.8500000010245,false,high,NA,NA,NA,NA,NA,NA,NA,false
ZwOYNHnf,338glsui56olvzhlkxidlboc564sfp,3lq8puhqfp5i213p1dh19eqtykqih1,ZwOYNHnf,2020-0188,2020-05-21,16:15:54,16:34:53,NA,incomplete,178,number,1,left,Red_Triangle_Chess_4.jpg,Blue_Plus_Stripes_4.jpg,Purple_Triangle_Grid_3.jpg,left,891.4499999955297,true,high,NA,NA,NA,NA,NA,NA,NA,false
ZwOYNHnf,338glsui56olvzhlkxidlboc564sfp,3lq8puhqfp5i213p1dh19eqtykqih1,ZwOYNHnf,2020-0188,2020-05-21,16:15:54,16:34:53,NA,incomplete,179,number,0,right,Purple_Star_Grid_3.jpg,Green_Star_Chess_2.jpg,Red_Circle_Stripes_3.jpg,right,629.0499999886379,true,high,NA,NA,NA,NA,NA,NA,NA,false
ZwOYNHnf,338glsui56olvzhlkxidlboc564sfp,3lq8puhqfp5i213p1dh19eqtykqih1,ZwOYNHnf,2020-0188,2020-05-21,16:15:54,16:34:53,NA,incomplete,180,shape,1,left,Blue_Star_Stripes_4.jpg,Purple_Star_Grid_3.jpg,Green_Triangle_Chess_4.jpg,right,609.8000000056345,false,high,NA,NA,NA,NA,NA,NA,NA,false
ZwOYNHnf,338glsui56olvzhlkxidlboc564sfp,3lq8puhqfp5i213p1dh19eqtykqih1,ZwOYNHnf,2020-0188,2020-05-21,16:15:54,16:34:53,NA,incomplete,181,shape,1,right,Blue_Star_Grid_1.jpg,Green_Circle_Dots_1.jpg,Red_Star_Chess_2.jpg,left,350.8250000013504,false,high,NA,NA,NA,NA,NA,NA,NA,false
ZwOYNHnf,338glsui56olvzhlkxidlboc564sfp,3lq8puhqfp5i213p1dh19eqtykqih1,ZwOYNHnf,2020-0188,2020-05-21,16:15:54,16:34:53,NA,incomplete,182,shape,0,left,Blue_Triangle_Grid_2.jpg,Purple_Triangle_Stripes_3.jpg,Green_Plus_Chess_2.jpg,right,565.6749999907333,false,high,NA,NA,NA,NA,NA,NA,NA,false
ZwOYNHnf,338glsui56olvzhlkxidlboc564sfp,3lq8puhqfp5i213p1dh19eqtykqih1,ZwOYNHnf,2020-0188,2020-05-21,16:15:54,16:34:53,NA,incomplete,183,shape,1,right,Red_Plus_Stripes_2.jpg,Purple_Circle_Chess_2.jpg,Blue_Plus_Dots_4.jpg,left,974.0450000099372,false,high,NA,NA,NA,NA,NA,NA,NA,false
ZwOYNHnf,338glsui56olvzhlkxidlboc564sfp,3lq8puhqfp5i213p1dh19eqtykqih1,ZwOYNHnf,2020-0188,2020-05-21,16:15:54,16:34:53,NA,incomplete,184,shape,1,left,Purple_Triangle_Chess_3.jpg,Blue_Triangle_Grid_2.jpg,Green_Circle_Dots_3.jpg,right,379.0699999954086,false,high,NA,NA,NA,NA,NA,NA,NA,false
ZwOYNHnf,338glsui56olvzhlkxidlboc564sfp,3lq8puhqfp5i213p1dh19eqtykqih1,ZwOYNHnf,2020-0188,2020-05-21,16:15:54,16:34:53,NA,incomplete,185,shape,0,left,Green_Star_Grid_3.jpg,Purple_Star_Dots_4.jpg,Red_Triangle_Chess_3.jpg,left,776.9100000004983,true,high,NA,NA,NA,NA,NA,NA,NA,false
ZwOYNHnf,338glsui56olvzhlkxidlboc564sfp,3lq8puhqfp5i213p1dh19eqtykqih1,ZwOYNHnf,2020-0188,2020-05-21,16:15:54,16:34:53,NA,incomplete,186,shape,1,right,Purple_Star_Dots_3.jpg,Blue_Triangle_Chess_3.jpg,Green_Star_Stripes_2.jpg,right,575.6600000022445,true,high,NA,NA,NA,NA,NA,NA,NA,false
ZwOYNHnf,338glsui56olvzhlkxidlboc564sfp,3lq8puhqfp5i213p1dh19eqtykqih1,ZwOYNHnf,2020-0188,2020-05-21,16:15:54,16:34:53,NA,incomplete,187,shape,0,left,Red_Circle_Chess_4.jpg,Purple_Circle_Grid_2.jpg,Green_Triangle_Stripes_4.jpg,none,0,false,high,NA,NA,NA,NA,NA,NA,NA,false
ZwOYNHnf,338glsui56olvzhlkxidlboc564sfp,3lq8puhqfp5i213p1dh19eqtykqih1,ZwOYNHnf,2020-0188,2020-05-21,16:15:54,16:34:53,NA,incomplete,188,shape,1,left,Red_Star_Chess_1.jpg,Blue_Star_Grid_2.jpg,Green_Plus_Stripes_1.jpg,right,1257.5849999993807,false,high,NA,NA,NA,NA,NA,NA,NA,false
ZwOYNHnf,338glsui56olvzhlkxidlboc564sfp,3lq8puhqfp5i213p1dh19eqtykqih1,ZwOYNHnf,2020-0188,2020-05-21,16:15:54,16:34:53,NA,incomplete,189,shape,1,right,Green_Star_Grid_4.jpg,Blue_Plus_Chess_4.jpg,Red_Star_Stripes_2.jpg,left,132.28499999968335,false,high,NA,NA,NA,NA,NA,NA,NA,false
ZwOYNHnf,338glsui56olvzhlkxidlboc564sfp,3lq8puhqfp5i213p1dh19eqtykqih1,ZwOYNHnf,2020-0188,2020-05-21,16:15:54,16:34:53,NA,incomplete,190,shape,1,right,Red_Triangle_Chess_4.jpg,Blue_Star_Grid_4.jpg,Purple_Triangle_Stripes_3.jpg,left,668.310000008205,false,high,NA,NA,NA,NA,NA,NA,NA,false
ZwOYNHnf,338glsui56olvzhlkxidlboc564sfp,3lq8puhqfp5i213p1dh19eqtykqih1,ZwOYNHnf,2020-0188,2020-05-21,16:15:54,16:34:53,NA,incomplete,191,shape,1,right,Purple_Star_Dots_4.jpg,Blue_Triangle_Chess_4.jpg,Red_Star_Stripes_2.jpg,right,316.19499999214895,true,high,NA,NA,NA,NA,NA,NA,NA,false
ZwOYNHnf,338glsui56olvzhlkxidlboc564sfp,3lq8puhqfp5i213p1dh19eqtykqih1,ZwOYNHnf,2020-0188,2020-05-21,16:15:54,16:34:53,NA,incomplete,192,shape,1,left,Red_Star_Chess_1.jpg,Green_Star_Grid_2.jpg,Blue_Plus_Stripes_1.jpg,right,697.4349999945844,false,high,NA,NA,NA,NA,NA,NA,NA,false
ZwOYNHnf,338glsui56olvzhlkxidlboc564sfp,3lq8puhqfp5i213p1dh19eqtykqih1,ZwOYNHnf,2020-0188,2020-05-21,16:15:54,16:34:53,NA,incomplete,193,shape,1,left,Blue_Star_Grid_2.jpg,Green_Star_Stripes_3.jpg,Red_Circle_Chess_2.jpg,left,57.415000002947636,true,high,NA,NA,NA,NA,NA,NA,NA,false
ZwOYNHnf,338glsui56olvzhlkxidlboc564sfp,3lq8puhqfp5i213p1dh19eqtykqih1,ZwOYNHnf,2020-0188,2020-05-21,16:15:54,16:34:53,NA,incomplete,194,shape,0,left,Red_Circle_Chess_3.jpg,Green_Circle_Grid_4.jpg,Blue_Triangle_Dots_3.jpg,right,621.0750000027474,false,high,NA,NA,NA,NA,NA,NA,NA,false
ZwOYNHnf,338glsui56olvzhlkxidlboc564sfp,3lq8puhqfp5i213p1dh19eqtykqih1,ZwOYNHnf,2020-0188,2020-05-21,16:15:54,16:34:53,NA,incomplete,195,shape,1,left,Blue_Triangle_Grid_4.jpg,Red_Triangle_Dots_3.jpg,Purple_Plus_Chess_4.jpg,right,521.3750000111759,false,high,NA,NA,NA,NA,NA,NA,NA,false
ZwOYNHnf,338glsui56olvzhlkxidlboc564sfp,3lq8puhqfp5i213p1dh19eqtykqih1,ZwOYNHnf,2020-0188,2020-05-21,16:15:54,16:34:53,NA,incomplete,196,shape,1,right,Green_Star_Chess_4.jpg,Purple_Plus_Dots_4.jpg,Red_Star_Grid_3.jpg,right,641.764999993029,true,high,NA,NA,NA,NA,NA,NA,NA,false
ZwOYNHnf,338glsui56olvzhlkxidlboc564sfp,3lq8puhqfp5i213p1dh19eqtykqih1,ZwOYNHnf,2020-0188,2020-05-21,16:15:54,16:34:53,NA,incomplete,197,shape,1,right,Red_Circle_Chess_1.jpg,Blue_Plus_Dots_1.jpg,Green_Circle_Stripes_2.jpg,right,556.9099999993341,true,high,NA,NA,NA,NA,NA,NA,NA,false
ZwOYNHnf,338glsui56olvzhlkxidlboc564sfp,3lq8puhqfp5i213p1dh19eqtykqih1,ZwOYNHnf,2020-0188,2020-05-21,16:15:54,16:34:53,NA,incomplete,198,shape,1,right,Blue_Plus_Stripes_4.jpg,Red_Circle_Dots_4.jpg,Green_Plus_Grid_1.jpg,left,476.17999999783933,false,high,NA,NA,NA,NA,NA,NA,NA,false
ZwOYNHnf,338glsui56olvzhlkxidlboc564sfp,3lq8puhqfp5i213p1dh19eqtykqih1,ZwOYNHnf,2020-0188,2020-05-21,16:15:54,16:34:53,NA,incomplete,199,shape,1,right,Blue_Star_Stripes_2.jpg,Purple_Triangle_Dots_2.jpg,Green_Star_Chess_1.jpg,right,597.7950000087731,true,high,NA,NA,NA,NA,NA,NA,NA,false
ZwOYNHnf,338glsui56olvzhlkxidlboc564sfp,3lq8puhqfp5i213p1dh19eqtykqih1,ZwOYNHnf,2020-0188,2020-05-21,16:15:54,16:34:53,NA,incomplete,200,number,1,right,Blue_Circle_Chess_3.jpg,Red_Circle_Stripes_2.jpg,Green_Plus_Dots_3.jpg,left,836.1399999994319,false,high,NA,NA,NA,NA,NA,NA,NA,false
ZwOYNHnf,338glsui56olvzhlkxidlboc564sfp,3lq8puhqfp5i213p1dh19eqtykqih1,ZwOYNHnf,2020-0188,2020-05-21,16:15:54,16:34:53,NA,incomplete,201,number,1,right,Purple_Circle_Chess_1.jpg,Green_Circle_Dots_3.jpg,Red_Triangle_Grid_1.jpg,right,671.6799999994691,true,high,NA,NA,NA,NA,NA,NA,NA,false
ZwOYNHnf,338glsui56olvzhlkxidlboc564sfp,3lq8puhqfp5i213p1dh19eqtykqih1,ZwOYNHnf,2020-0188,2020-05-21,16:15:54,16:34:53,NA,incomplete,202,number,0,left,Purple_Plus_Chess_2.jpg,Green_Triangle_Grid_2.jpg,Red_Plus_Stripes_1.jpg,right,553.7599999952363,false,high,NA,NA,NA,NA,NA,NA,NA,false
ZwOYNHnf,338glsui56olvzhlkxidlboc564sfp,3lq8puhqfp5i213p1dh19eqtykqih1,ZwOYNHnf,2020-0188,2020-05-21,16:15:54,16:34:53,NA,incomplete,203,number,1,right,Purple_Triangle_Stripes_1.jpg,Green_Triangle_Chess_4.jpg,Blue_Star_Dots_1.jpg,left,657.02000001329,false,high,NA,NA,NA,NA,NA,NA,NA,false
ZwOYNHnf,338glsui56olvzhlkxidlboc564sfp,3lq8puhqfp5i213p1dh19eqtykqih1,ZwOYNHnf,2020-0188,2020-05-21,16:15:54,16:34:53,NA,incomplete,204,number,1,right,Purple_Triangle_Stripes_4.jpg,Green_Triangle_Grid_3.jpg,Red_Star_Dots_4.jpg,right,541.2749999959487,true,high,NA,NA,NA,NA,NA,NA,NA,false
ZwOYNHnf,338glsui56olvzhlkxidlboc564sfp,3lq8puhqfp5i213p1dh19eqtykqih1,ZwOYNHnf,2020-0188,2020-05-21,16:15:54,16:34:53,NA,incomplete,205,number,1,left,Red_Plus_Grid_4.jpg,Blue_Circle_Dots_4.jpg,Green_Plus_Chess_1.jpg,left,596.239999998943,true,high,NA,NA,NA,NA,NA,NA,NA,false
ZwOYNHnf,338glsui56olvzhlkxidlboc564sfp,3lq8puhqfp5i213p1dh19eqtykqih1,ZwOYNHnf,2020-0188,2020-05-21,16:15:54,16:34:53,NA,incomplete,206,number,1,right,Green_Circle_Dots_3.jpg,Red_Circle_Chess_4.jpg,Blue_Triangle_Stripes_3.jpg,right,481.09000000113156,true,high,NA,NA,NA,NA,NA,NA,NA,false
ZwOYNHnf,338glsui56olvzhlkxidlboc564sfp,3lq8puhqfp5i213p1dh19eqtykqih1,ZwOYNHnf,2020-0188,2020-05-21,16:15:54,16:34:53,NA,incomplete,207,number,0,right,Blue_Star_Stripes_4.jpg,Red_Star_Grid_3.jpg,Purple_Triangle_Chess_4.jpg,right,603.9400000008754,true,high,NA,NA,NA,NA,NA,NA,NA,false
ZwOYNHnf,338glsui56olvzhlkxidlboc564sfp,3lq8puhqfp5i213p1dh19eqtykqih1,ZwOYNHnf,2020-0188,2020-05-21,16:15:54,16:34:53,NA,incomplete,208,number,1,right,Red_Star_Grid_2.jpg,Purple_Star_Dots_3.jpg,Green_Triangle_Stripes_2.jpg,right,696.630000005709,true,high,NA,NA,NA,NA,NA,NA,NA,false
ZwOYNHnf,338glsui56olvzhlkxidlboc564sfp,3lq8puhqfp5i213p1dh19eqtykqih1,ZwOYNHnf,2020-0188,2020-05-21,16:15:54,16:34:53,NA,incomplete,209,number,1,left,Red_Triangle_Chess_4.jpg,Green_Star_Stripes_4.jpg,Blue_Triangle_Grid_3.jpg,left,562.0300000011921,true,high,NA,NA,NA,NA,NA,NA,NA,false
ZwOYNHnf,338glsui56olvzhlkxidlboc564sfp,3lq8puhqfp5i213p1dh19eqtykqih1,ZwOYNHnf,2020-0188,2020-05-21,16:15:54,16:34:53,NA,incomplete,210,number,1,right,Red_Circle_Stripes_2.jpg,Purple_Circle_Grid_3.jpg,Blue_Plus_Dots_2.jpg,right,546.5799999947194,true,high,NA,NA,NA,NA,NA,NA,NA,false
ZwOYNHnf,338glsui56olvzhlkxidlboc564sfp,3lq8puhqfp5i213p1dh19eqtykqih1,ZwOYNHnf,2020-0188,2020-05-21,16:15:54,16:34:53,NA,incomplete,211,number,0,left,Purple_Plus_Chess_2.jpg,Blue_Triangle_Stripes_2.jpg,Green_Plus_Dots_4.jpg,left,553.3850000067614,true,high,NA,NA,NA,NA,NA,NA,NA,false
ZwOYNHnf,338glsui56olvzhlkxidlboc564sfp,3lq8puhqfp5i213p1dh19eqtykqih1,ZwOYNHnf,2020-0188,2020-05-21,16:15:54,16:34:53,NA,incomplete,212,number,1,left,Red_Plus_Chess_2.jpg,Green_Star_Stripes_2.jpg,Blue_Plus_Dots_1.jpg,right,551.9249999923632,false,high,NA,NA,NA,NA,NA,NA,NA,false
ZwOYNHnf,338glsui56olvzhlkxidlboc564sfp,3lq8puhqfp5i213p1dh19eqtykqih1,ZwOYNHnf,2020-0188,2020-05-21,16:15:54,16:34:53,NA,incomplete,213,number,0,left,Red_Triangle_Grid_1.jpg,Green_Star_Dots_1.jpg,Blue_Triangle_Stripes_3.jpg,left,495.7550000108313,true,high,NA,NA,NA,NA,NA,NA,NA,false
ZwOYNHnf,338glsui56olvzhlkxidlboc564sfp,3lq8puhqfp5i213p1dh19eqtykqih1,ZwOYNHnf,2020-0188,2020-05-21,16:15:54,16:34:53,NA,incomplete,214,number,1,right,Red_Plus_Dots_3.jpg,Green_Plus_Grid_1.jpg,Purple_Circle_Stripes_3.jpg,right,496.19000000553206,true,high,NA,NA,NA,NA,NA,NA,NA,false
ZwOYNHnf,338glsui56olvzhlkxidlboc564sfp,3lq8puhqfp5i213p1dh19eqtykqih1,ZwOYNHnf,2020-0188,2020-05-21,16:15:54,16:34:53,NA,incomplete,215,number,1,left,Purple_Circle_Dots_2.jpg,Red_Triangle_Grid_2.jpg,Green_Circle_Stripes_4.jpg,left,513.6150000034831,true,high,NA,NA,NA,NA,NA,NA,NA,false
ZwOYNHnf,338glsui56olvzhlkxidlboc564sfp,3lq8puhqfp5i213p1dh19eqtykqih1,ZwOYNHnf,2020-0188,2020-05-21,16:15:54,16:34:53,NA,incomplete,216,number,1,left,Purple_Triangle_Grid_3.jpg,Green_Plus_Stripes_3.jpg,Blue_Triangle_Dots_4.jpg,right,635.029999990249,false,high,NA,NA,NA,NA,NA,NA,NA,false
ZwOYNHnf,338glsui56olvzhlkxidlboc564sfp,3lq8puhqfp5i213p1dh19eqtykqih1,ZwOYNHnf,2020-0188,2020-05-21,16:15:54,16:34:53,NA,incomplete,217,number,0,left,Red_Circle_Grid_2.jpg,Blue_Triangle_Chess_2.jpg,Green_Circle_Stripes_1.jpg,left,616.2500000065193,true,high,NA,NA,NA,NA,NA,NA,NA,false
ZwOYNHnf,338glsui56olvzhlkxidlboc564sfp,3lq8puhqfp5i213p1dh19eqtykqih1,ZwOYNHnf,2020-0188,2020-05-21,16:15:54,16:34:53,NA,incomplete,218,number,1,left,Green_Circle_Grid_4.jpg,Red_Triangle_Dots_4.jpg,Purple_Circle_Chess_3.jpg,left,636.6699999927077,true,high,NA,NA,NA,NA,NA,NA,NA,false
ZwOYNHnf,338glsui56olvzhlkxidlboc564sfp,3lq8puhqfp5i213p1dh19eqtykqih1,ZwOYNHnf,2020-0188,2020-05-21,16:15:54,16:34:53,NA,incomplete,219,number,1,left,Green_Star_Chess_1.jpg,Purple_Triangle_Dots_1.jpg,Red_Star_Stripes_4.jpg,left,512.1499999950174,true,high,NA,NA,NA,NA,NA,NA,NA,false
ZwOYNHnf,338glsui56olvzhlkxidlboc564sfp,3lq8puhqfp5i213p1dh19eqtykqih1,ZwOYNHnf,2020-0188,2020-05-21,16:15:54,16:34:53,NA,incomplete,220,shape,0,right,Blue_Triangle_Dots_3.jpg,Purple_Plus_Chess_3.jpg,Green_Triangle_Stripes_4.jpg,left,585.6449999990873,false,high,NA,NA,NA,NA,NA,NA,NA,false
ZwOYNHnf,338glsui56olvzhlkxidlboc564sfp,3lq8puhqfp5i213p1dh19eqtykqih1,ZwOYNHnf,2020-0188,2020-05-21,16:15:54,16:34:53,NA,incomplete,221,shape,1,right,Red_Circle_Chess_4.jpg,Green_Plus_Grid_4.jpg,Purple_Circle_Stripes_3.jpg,left,486.92500000447035,false,high,NA,NA,NA,NA,NA,NA,NA,false
ZwOYNHnf,338glsui56olvzhlkxidlboc564sfp,3lq8puhqfp5i213p1dh19eqtykqih1,ZwOYNHnf,2020-0188,2020-05-21,16:15:54,16:34:53,NA,incomplete,222,shape,1,right,Purple_Star_Chess_1.jpg,Red_Plus_Stripes_1.jpg,Green_Star_Grid_3.jpg,left,520.0649999896996,false,high,NA,NA,NA,NA,NA,NA,NA,false
ZwOYNHnf,338glsui56olvzhlkxidlboc564sfp,3lq8puhqfp5i213p1dh19eqtykqih1,ZwOYNHnf,2020-0188,2020-05-21,16:15:54,16:34:53,NA,incomplete,223,shape,1,left,Purple_Plus_Dots_4.jpg,Green_Plus_Grid_2.jpg,Red_Circle_Chess_4.jpg,left,656.4400000059977,true,high,NA,NA,NA,NA,NA,NA,NA,false
ZwOYNHnf,338glsui56olvzhlkxidlboc564sfp,3lq8puhqfp5i213p1dh19eqtykqih1,ZwOYNHnf,2020-0188,2020-05-21,16:15:54,16:34:53,NA,incomplete,224,shape,1,left,Blue_Star_Chess_4.jpg,Red_Star_Grid_3.jpg,Purple_Triangle_Dots_4.jpg,left,635.945000001695,true,high,NA,NA,NA,NA,NA,NA,NA,false
ZwOYNHnf,338glsui56olvzhlkxidlboc564sfp,3lq8puhqfp5i213p1dh19eqtykqih1,ZwOYNHnf,2020-0188,2020-05-21,16:15:54,16:34:53,NA,incomplete,225,shape,1,right,Purple_Plus_Stripes_3.jpg,Green_Triangle_Chess_3.jpg,Red_Plus_Dots_2.jpg,right,502.70500000636093,true,high,NA,NA,NA,NA,NA,NA,NA,false
ZwOYNHnf,338glsui56olvzhlkxidlboc564sfp,3lq8puhqfp5i213p1dh19eqtykqih1,ZwOYNHnf,2020-0188,2020-05-21,16:15:54,16:34:53,NA,incomplete,226,shape,1,left,Blue_Circle_Grid_3.jpg,Green_Circle_Dots_4.jpg,Purple_Star_Chess_3.jpg,left,607.864999998128,true,high,NA,NA,NA,NA,NA,NA,NA,false
ZwOYNHnf,338glsui56olvzhlkxidlboc564sfp,3lq8puhqfp5i213p1dh19eqtykqih1,ZwOYNHnf,2020-0188,2020-05-21,16:15:54,16:34:53,NA,incomplete,227,shape,1,right,Purple_Circle_Stripes_2.jpg,Green_Triangle_Dots_2.jpg,Red_Circle_Grid_1.jpg,right,469.7849999938626,true,high,NA,NA,NA,NA,NA,NA,NA,false
ZwOYNHnf,338glsui56olvzhlkxidlboc564sfp,3lq8puhqfp5i213p1dh19eqtykqih1,ZwOYNHnf,2020-0188,2020-05-21,16:15:54,16:34:53,NA,incomplete,228,shape,1,left,Red_Star_Stripes_1.jpg,Blue_Star_Grid_4.jpg,Purple_Triangle_Chess_1.jpg,left,559.9599999985658,true,high,NA,NA,NA,NA,NA,NA,NA,false
ZwOYNHnf,338glsui56olvzhlkxidlboc564sfp,3lq8puhqfp5i213p1dh19eqtykqih1,ZwOYNHnf,2020-0188,2020-05-21,16:15:54,16:34:53,NA,incomplete,229,shape,1,left,Blue_Plus_Stripes_2.jpg,Green_Plus_Grid_3.jpg,Red_Star_Chess_2.jpg,left,654.8749999930151,true,high,NA,NA,NA,NA,NA,NA,NA,false
ZwOYNHnf,338glsui56olvzhlkxidlboc564sfp,3lq8puhqfp5i213p1dh19eqtykqih1,ZwOYNHnf,2020-0188,2020-05-21,16:15:54,16:34:53,NA,incomplete,230,shape,0,left,Purple_Circle_Dots_1.jpg,Blue_Circle_Stripes_3.jpg,Red_Star_Grid_1.jpg,left,545.6650000123773,true,high,NA,NA,NA,NA,NA,NA,NA,false
ZwOYNHnf,338glsui56olvzhlkxidlboc564sfp,3lq8puhqfp5i213p1dh19eqtykqih1,ZwOYNHnf,2020-0188,2020-05-21,16:15:54,16:34:53,NA,incomplete,231,shape,1,left,Purple_Plus_Grid_3.jpg,Green_Plus_Stripes_4.jpg,Blue_Star_Chess_3.jpg,right,657.0349999964237,false,high,NA,NA,NA,NA,NA,NA,NA,false
ZwOYNHnf,338glsui56olvzhlkxidlboc564sfp,3lq8puhqfp5i213p1dh19eqtykqih1,ZwOYNHnf,2020-0188,2020-05-21,16:15:54,16:34:53,NA,incomplete,232,shape,1,left,Green_Circle_Grid_1.jpg,Blue_Circle_Stripes_4.jpg,Red_Star_Dots_1.jpg,left,563.9799999915995,true,high,NA,NA,NA,NA,NA,NA,NA,false
ZwOYNHnf,338glsui56olvzhlkxidlboc564sfp,3lq8puhqfp5i213p1dh19eqtykqih1,ZwOYNHnf,2020-0188,2020-05-21,16:15:54,16:34:53,NA,incomplete,233,shape,1,right,Blue_Star_Chess_2.jpg,Green_Triangle_Stripes_2.jpg,Purple_Star_Dots_4.jpg,right,588.6999999929685,true,high,NA,NA,NA,NA,NA,NA,NA,false
ZwOYNHnf,338glsui56olvzhlkxidlboc564sfp,3lq8puhqfp5i213p1dh19eqtykqih1,ZwOYNHnf,2020-0188,2020-05-21,16:15:54,16:34:53,NA,incomplete,234,shape,1,left,Red_Triangle_Grid_4.jpg,Green_Triangle_Stripes_2.jpg,Purple_Circle_Chess_4.jpg,left,592.2699999934994,true,high,NA,NA,NA,NA,NA,NA,NA,false
ZwOYNHnf,338glsui56olvzhlkxidlboc564sfp,3lq8puhqfp5i213p1dh19eqtykqih1,ZwOYNHnf,2020-0188,2020-05-21,16:15:54,16:34:53,NA,incomplete,235,shape,0,left,Red_Triangle_Grid_4.jpg,Blue_Triangle_Stripes_1.jpg,Purple_Plus_Dots_4.jpg,left,598.545000000624,true,high,NA,NA,NA,NA,NA,NA,NA,false
ZwOYNHnf,338glsui56olvzhlkxidlboc564sfp,3lq8puhqfp5i213p1dh19eqtykqih1,ZwOYNHnf,2020-0188,2020-05-21,16:15:54,16:34:53,NA,incomplete,236,shape,1,right,Blue_Plus_Grid_3.jpg,Green_Star_Stripes_3.jpg,Red_Plus_Dots_2.jpg,right,643.6350000002421,true,high,NA,NA,NA,NA,NA,NA,NA,false
ZwOYNHnf,338glsui56olvzhlkxidlboc564sfp,3lq8puhqfp5i213p1dh19eqtykqih1,ZwOYNHnf,2020-0188,2020-05-21,16:15:54,16:34:53,NA,incomplete,237,shape,0,left,Blue_Circle_Grid_2.jpg,Green_Circle_Chess_4.jpg,Purple_Triangle_Stripes_2.jpg,left,584.9650000017136,true,high,NA,NA,NA,NA,NA,NA,NA,false
ZwOYNHnf,338glsui56olvzhlkxidlboc564sfp,3lq8puhqfp5i213p1dh19eqtykqih1,ZwOYNHnf,2020-0188,2020-05-21,16:15:54,16:34:53,NA,incomplete,238,shape,1,left,Purple_Plus_Dots_1.jpg,Red_Plus_Grid_4.jpg,Blue_Circle_Stripes_1.jpg,left,546.3049999959767,true,high,NA,NA,NA,NA,NA,NA,NA,false
ZwOYNHnf,338glsui56olvzhlkxidlboc564sfp,3lq8puhqfp5i213p1dh19eqtykqih1,ZwOYNHnf,2020-0188,2020-05-21,16:15:54,16:34:53,NA,incomplete,239,shape,1,left,Purple_Star_Chess_4.jpg,Green_Star_Dots_1.jpg,Red_Circle_Grid_4.jpg,left,692.8599999954458,true,high,NA,NA,NA,NA,NA,NA,NA,false
ZwOYNHnf,338glsui56olvzhlkxidlboc564sfp,3lq8puhqfp5i213p1dh19eqtykqih1,ZwOYNHnf,2020-0188,2020-05-21,16:15:54,16:34:53,NA,NA,instruction example,color,NA,NA,Green_Triangle_Stripes_4.jpg,Green_Plus_Chess_1.jpg,Blue_Star_Stripes_2.jpg,NA,NA,NA,NA,NA,NA,NA,NA,NA,NA,NA,undefined
ZwOYNHnf,338glsui56olvzhlkxidlboc564sfp,3lq8puhqfp5i213p1dh19eqtykqih1,ZwOYNHnf,2020-0188,2020-05-21,16:15:54,16:34:53,NA,NA,instruction example,color,NA,NA,Green_Plus_Dots_1.jpg,Blue_Star_Dots_2.jpg,Green_Circle_Stripes_4.jpg,NA,NA,NA,NA,NA,NA,NA,NA,NA,NA,NA,undefined
ZwOYNHnf,338glsui56olvzhlkxidlboc564sfp,3lq8puhqfp5i213p1dh19eqtykqih1,ZwOYNHnf,2020-0188,2020-05-21,16:15:54,16:34:53,NA,NA,instruction example,color,NA,NA,Green_Star_Stripes_1.jpg,Red_Plus_Chess_1.jpg,Purple_Star_Grid_4.jpg,NA,NA,NA,NA,NA,NA,NA,NA,NA,NA,NA,undefined
ZwOYNHnf,338glsui56olvzhlkxidlboc564sfp,3lq8puhqfp5i213p1dh19eqtykqih1,ZwOYNHnf,2020-0188,2020-05-21,16:15:54,16:34:53,NA,NA,instruction example,color,NA,NA,Green_Circle_Grid_4.jpg,Blue_Circle_Stripes_1.jpg,Purple_Star_Chess_4.jpg,NA,NA,NA,NA,NA,NA,NA,NA,NA,NA,NA,undefined
ZwOYNHnf,338glsui56olvzhlkxidlboc564sfp,3lq8puhqfp5i213p1dh19eqtykqih1,ZwOYNHnf,2020-0188,2020-05-21,16:15:54,16:34:53,1119589.7699999914,1139533.1299999962,NA,NA,NA,NA,NA,NA,NA,NA,NA,NA,NA,25,White/Caucasian,Male,white,no,yes,no,undefined
