workerId,hitId,assignmentId,subject,studyid,exp_date,exp_start,exp_end,time_start,time_end,trial,type,reward_validity,answer,image_top,image_left,image_right,response,response_time,response_acc,volatility,age,race,gender,ethnicity,color,vision,neuro,practice
uxxwbs2E,372ages0j7iqu68t52ou18jnn9hxrx,3m0bcwmb8z9qcjk8q2bkouw3ihsbws,uxxwbs2E,2020-0188,2020-05-21,12:27:37,12:50:39,NA,incomplete,0,filling,1,right,Red_Star_Dots_4.jpg,Purple_Triangle_Chess_4.jpg,Green_Plus_Dots_1.jpg,right,986.975000007078,true,NA,NA,NA,NA,NA,NA,NA,NA,true
uxxwbs2E,372ages0j7iqu68t52ou18jnn9hxrx,3m0bcwmb8z9qcjk8q2bkouw3ihsbws,uxxwbs2E,2020-0188,2020-05-21,12:27:37,12:50:39,NA,incomplete,1,filling,0,right,Purple_Star_Stripes_2.jpg,Green_Triangle_Dots_2.jpg,Red_Plus_Stripes_3.jpg,right,910.3449999820441,true,NA,NA,NA,NA,NA,NA,NA,NA,true
uxxwbs2E,372ages0j7iqu68t52ou18jnn9hxrx,3m0bcwmb8z9qcjk8q2bkouw3ihsbws,uxxwbs2E,2020-0188,2020-05-21,12:27:37,12:50:39,NA,incomplete,2,filling,1,left,Purple_Triangle_Grid_1.jpg,Blue_Circle_Grid_3.jpg,Green_Star_Chess_1.jpg,left,1030.1399999880232,true,NA,NA,NA,NA,NA,NA,NA,NA,true
uxxwbs2E,372ages0j7iqu68t52ou18jnn9hxrx,3m0bcwmb8z9qcjk8q2bkouw3ihsbws,uxxwbs2E,2020-0188,2020-05-21,12:27:37,12:50:39,NA,incomplete,3,filling,1,right,Green_Triangle_Dots_1.jpg,Red_Circle_Grid_1.jpg,Purple_Star_Dots_4.jpg,right,1028.6550000018906,true,NA,NA,NA,NA,NA,NA,NA,NA,true
uxxwbs2E,372ages0j7iqu68t52ou18jnn9hxrx,3m0bcwmb8z9qcjk8q2bkouw3ihsbws,uxxwbs2E,2020-0188,2020-05-21,12:27:37,12:50:39,NA,incomplete,4,filling,1,left,Red_Plus_Chess_2.jpg,Blue_Circle_Chess_3.jpg,Green_Star_Dots_2.jpg,left,1005.4099999833852,true,NA,NA,NA,NA,NA,NA,NA,NA,true
uxxwbs2E,372ages0j7iqu68t52ou18jnn9hxrx,3m0bcwmb8z9qcjk8q2bkouw3ihsbws,uxxwbs2E,2020-0188,2020-05-21,12:27:37,12:50:39,NA,incomplete,5,filling,1,left,Purple_Triangle_Stripes_4.jpg,Red_Star_Stripes_3.jpg,Blue_Circle_Grid_4.jpg,left,1013.7749999994412,true,NA,NA,NA,NA,NA,NA,NA,NA,true
uxxwbs2E,372ages0j7iqu68t52ou18jnn9hxrx,3m0bcwmb8z9qcjk8q2bkouw3ihsbws,uxxwbs2E,2020-0188,2020-05-21,12:27:37,12:50:39,NA,incomplete,6,filling,1,right,Blue_Plus_Chess_1.jpg,Red_Triangle_Dots_1.jpg,Green_Star_Chess_2.jpg,right,1004.1049999999814,true,NA,NA,NA,NA,NA,NA,NA,NA,true
uxxwbs2E,372ages0j7iqu68t52ou18jnn9hxrx,3m0bcwmb8z9qcjk8q2bkouw3ihsbws,uxxwbs2E,2020-0188,2020-05-21,12:27:37,12:50:39,NA,incomplete,7,filling,1,left,Green_Triangle_Dots_4.jpg,Red_Star_Dots_2.jpg,Purple_Circle_Stripes_4.jpg,left,925.1050000020768,true,NA,NA,NA,NA,NA,NA,NA,NA,true
uxxwbs2E,372ages0j7iqu68t52ou18jnn9hxrx,3m0bcwmb8z9qcjk8q2bkouw3ihsbws,uxxwbs2E,2020-0188,2020-05-21,12:27:37,12:50:39,NA,incomplete,8,filling,0,right,Green_Triangle_Dots_2.jpg,Red_Plus_Stripes_2.jpg,Purple_Star_Dots_3.jpg,right,943.6400000122376,true,NA,NA,NA,NA,NA,NA,NA,NA,true
uxxwbs2E,372ages0j7iqu68t52ou18jnn9hxrx,3m0bcwmb8z9qcjk8q2bkouw3ihsbws,uxxwbs2E,2020-0188,2020-05-21,12:27:37,12:50:39,NA,incomplete,9,filling,1,left,Purple_Star_Chess_1.jpg,Red_Triangle_Chess_3.jpg,Green_Circle_Dots_1.jpg,left,1001.9200000097044,true,NA,NA,NA,NA,NA,NA,NA,NA,true
uxxwbs2E,372ages0j7iqu68t52ou18jnn9hxrx,3m0bcwmb8z9qcjk8q2bkouw3ihsbws,uxxwbs2E,2020-0188,2020-05-21,12:27:37,12:50:39,NA,incomplete,10,filling,1,right,Red_Triangle_Chess_2.jpg,Green_Plus_Dots_2.jpg,Blue_Circle_Chess_1.jpg,right,856.3199999916833,true,NA,NA,NA,NA,NA,NA,NA,NA,true
uxxwbs2E,372ages0j7iqu68t52ou18jnn9hxrx,3m0bcwmb8z9qcjk8q2bkouw3ihsbws,uxxwbs2E,2020-0188,2020-05-21,12:27:37,12:50:39,NA,incomplete,11,filling,0,left,Red_Circle_Stripes_1.jpg,Blue_Plus_Stripes_2.jpg,Purple_Triangle_Dots_1.jpg,left,1062.4299999908544,true,NA,NA,NA,NA,NA,NA,NA,NA,true
uxxwbs2E,372ages0j7iqu68t52ou18jnn9hxrx,3m0bcwmb8z9qcjk8q2bkouw3ihsbws,uxxwbs2E,2020-0188,2020-05-21,12:27:37,12:50:39,NA,incomplete,12,filling,1,left,Green_Circle_Chess_3.jpg,Blue_Plus_Chess_4.jpg,Purple_Star_Dots_3.jpg,left,1026.209999981802,true,NA,NA,NA,NA,NA,NA,NA,NA,true
uxxwbs2E,372ages0j7iqu68t52ou18jnn9hxrx,3m0bcwmb8z9qcjk8q2bkouw3ihsbws,uxxwbs2E,2020-0188,2020-05-21,12:27:37,12:50:39,NA,incomplete,13,filling,1,right,Purple_Plus_Chess_4.jpg,Red_Triangle_Dots_4.jpg,Blue_Star_Chess_2.jpg,right,894.2899999965448,true,NA,NA,NA,NA,NA,NA,NA,NA,true
uxxwbs2E,372ages0j7iqu68t52ou18jnn9hxrx,3m0bcwmb8z9qcjk8q2bkouw3ihsbws,uxxwbs2E,2020-0188,2020-05-21,12:27:37,12:50:39,NA,incomplete,14,filling,0,right,Green_Star_Dots_3.jpg,Blue_Plus_Grid_3.jpg,Purple_Circle_Dots_2.jpg,right,944.1650000226218,true,NA,NA,NA,NA,NA,NA,NA,NA,true
uxxwbs2E,372ages0j7iqu68t52ou18jnn9hxrx,3m0bcwmb8z9qcjk8q2bkouw3ihsbws,uxxwbs2E,2020-0188,2020-05-21,12:27:37,12:50:39,NA,incomplete,15,filling,0,left,Blue_Circle_Chess_2.jpg,Purple_Plus_Chess_1.jpg,Green_Star_Stripes_2.jpg,left,883.6949999968056,true,NA,NA,NA,NA,NA,NA,NA,NA,true
uxxwbs2E,372ages0j7iqu68t52ou18jnn9hxrx,3m0bcwmb8z9qcjk8q2bkouw3ihsbws,uxxwbs2E,2020-0188,2020-05-21,12:27:37,12:50:39,NA,incomplete,16,filling,0,left,Blue_Star_Stripes_4.jpg,Red_Triangle_Stripes_1.jpg,Purple_Plus_Chess_4.jpg,left,1077.6300000143237,true,NA,NA,NA,NA,NA,NA,NA,NA,true
uxxwbs2E,372ages0j7iqu68t52ou18jnn9hxrx,3m0bcwmb8z9qcjk8q2bkouw3ihsbws,uxxwbs2E,2020-0188,2020-05-21,12:27:37,12:50:39,NA,incomplete,17,filling,0,left,Red_Star_Chess_3.jpg,Purple_Plus_Chess_2.jpg,Green_Triangle_Grid_3.jpg,right,721.9550000154413,false,NA,NA,NA,NA,NA,NA,NA,NA,true
uxxwbs2E,372ages0j7iqu68t52ou18jnn9hxrx,3m0bcwmb8z9qcjk8q2bkouw3ihsbws,uxxwbs2E,2020-0188,2020-05-21,12:27:37,12:50:39,NA,incomplete,18,filling,1,right,Red_Plus_Grid_3.jpg,Blue_Triangle_Chess_3.jpg,Purple_Circle_Grid_1.jpg,left,674.8950000037439,false,NA,NA,NA,NA,NA,NA,NA,NA,true
uxxwbs2E,372ages0j7iqu68t52ou18jnn9hxrx,3m0bcwmb8z9qcjk8q2bkouw3ihsbws,uxxwbs2E,2020-0188,2020-05-21,12:27:37,12:50:39,NA,incomplete,19,filling,1,left,Green_Circle_Stripes_4.jpg,Purple_Plus_Stripes_2.jpg,Blue_Star_Grid_4.jpg,left,1274.7699999890756,true,NA,NA,NA,NA,NA,NA,NA,NA,true
uxxwbs2E,372ages0j7iqu68t52ou18jnn9hxrx,3m0bcwmb8z9qcjk8q2bkouw3ihsbws,uxxwbs2E,2020-0188,2020-05-21,12:27:37,12:50:39,NA,incomplete,20,number,1,right,Purple_Star_Stripes_4.jpg,Blue_Plus_Stripes_1.jpg,Green_Circle_Grid_4.jpg,left,1182.9649999854155,false,NA,NA,NA,NA,NA,NA,NA,NA,true
uxxwbs2E,372ages0j7iqu68t52ou18jnn9hxrx,3m0bcwmb8z9qcjk8q2bkouw3ihsbws,uxxwbs2E,2020-0188,2020-05-21,12:27:37,12:50:39,NA,incomplete,21,number,1,left,Green_Triangle_Chess_2.jpg,Purple_Circle_Grid_2.jpg,Red_Plus_Chess_1.jpg,right,986.960000009276,false,NA,NA,NA,NA,NA,NA,NA,NA,true
uxxwbs2E,372ages0j7iqu68t52ou18jnn9hxrx,3m0bcwmb8z9qcjk8q2bkouw3ihsbws,uxxwbs2E,2020-0188,2020-05-21,12:27:37,12:50:39,NA,incomplete,22,number,1,right,Red_Circle_Dots_2.jpg,Green_Star_Dots_3.jpg,Purple_Plus_Stripes_2.jpg,right,812.6099999935832,true,NA,NA,NA,NA,NA,NA,NA,NA,true
uxxwbs2E,372ages0j7iqu68t52ou18jnn9hxrx,3m0bcwmb8z9qcjk8q2bkouw3ihsbws,uxxwbs2E,2020-0188,2020-05-21,12:27:37,12:50:39,NA,incomplete,23,number,1,right,Red_Triangle_Stripes_2.jpg,Blue_Star_Stripes_1.jpg,Green_Plus_Dots_2.jpg,right,1688.8899999903515,true,NA,NA,NA,NA,NA,NA,NA,NA,true
uxxwbs2E,372ages0j7iqu68t52ou18jnn9hxrx,3m0bcwmb8z9qcjk8q2bkouw3ihsbws,uxxwbs2E,2020-0188,2020-05-21,12:27:37,12:50:39,NA,incomplete,24,number,0,left,Red_Star_Stripes_1.jpg,Purple_Triangle_Dots_1.jpg,Green_Plus_Stripes_3.jpg,left,1281.7449999856763,true,NA,NA,NA,NA,NA,NA,NA,NA,true
uxxwbs2E,372ages0j7iqu68t52ou18jnn9hxrx,3m0bcwmb8z9qcjk8q2bkouw3ihsbws,uxxwbs2E,2020-0188,2020-05-21,12:27:37,12:50:39,NA,incomplete,25,number,1,left,Blue_Circle_Grid_1.jpg,Purple_Triangle_Dots_1.jpg,Red_Star_Grid_4.jpg,left,1503.3150000090245,true,NA,NA,NA,NA,NA,NA,NA,NA,true
uxxwbs2E,372ages0j7iqu68t52ou18jnn9hxrx,3m0bcwmb8z9qcjk8q2bkouw3ihsbws,uxxwbs2E,2020-0188,2020-05-21,12:27:37,12:50:39,NA,incomplete,26,number,1,right,Green_Plus_Stripes_2.jpg,Red_Star_Stripes_3.jpg,Blue_Triangle_Grid_2.jpg,right,997.4749999819323,true,NA,NA,NA,NA,NA,NA,NA,NA,true
uxxwbs2E,372ages0j7iqu68t52ou18jnn9hxrx,3m0bcwmb8z9qcjk8q2bkouw3ihsbws,uxxwbs2E,2020-0188,2020-05-21,12:27:37,12:50:39,NA,incomplete,27,number,1,right,Blue_Star_Grid_2.jpg,Red_Triangle_Grid_3.jpg,Purple_Plus_Dots_2.jpg,right,740.1700000045821,true,NA,NA,NA,NA,NA,NA,NA,NA,true
uxxwbs2E,372ages0j7iqu68t52ou18jnn9hxrx,3m0bcwmb8z9qcjk8q2bkouw3ihsbws,uxxwbs2E,2020-0188,2020-05-21,12:27:37,12:50:39,NA,incomplete,28,number,1,left,Blue_Circle_Chess_4.jpg,Red_Plus_Stripes_4.jpg,Purple_Star_Chess_2.jpg,left,731.2050000182353,true,NA,NA,NA,NA,NA,NA,NA,NA,true
uxxwbs2E,372ages0j7iqu68t52ou18jnn9hxrx,3m0bcwmb8z9qcjk8q2bkouw3ihsbws,uxxwbs2E,2020-0188,2020-05-21,12:27:37,12:50:39,NA,incomplete,29,number,1,left,Red_Circle_Dots_1.jpg,Green_Star_Stripes_1.jpg,Purple_Triangle_Dots_3.jpg,left,860.6650000147056,true,NA,NA,NA,NA,NA,NA,NA,NA,true
uxxwbs2E,372ages0j7iqu68t52ou18jnn9hxrx,3m0bcwmb8z9qcjk8q2bkouw3ihsbws,uxxwbs2E,2020-0188,2020-05-21,12:27:37,12:50:39,NA,incomplete,30,number,1,left,Purple_Plus_Chess_4.jpg,Blue_Circle_Stripes_4.jpg,Green_Triangle_Chess_2.jpg,left,633.7950000015553,true,NA,NA,NA,NA,NA,NA,NA,NA,true
uxxwbs2E,372ages0j7iqu68t52ou18jnn9hxrx,3m0bcwmb8z9qcjk8q2bkouw3ihsbws,uxxwbs2E,2020-0188,2020-05-21,12:27:37,12:50:39,NA,incomplete,31,number,1,right,Green_Star_Dots_2.jpg,Red_Circle_Dots_1.jpg,Blue_Plus_Chess_2.jpg,right,622.7249999938067,true,NA,NA,NA,NA,NA,NA,NA,NA,true
uxxwbs2E,372ages0j7iqu68t52ou18jnn9hxrx,3m0bcwmb8z9qcjk8q2bkouw3ihsbws,uxxwbs2E,2020-0188,2020-05-21,12:27:37,12:50:39,NA,incomplete,32,number,1,left,Blue_Triangle_Dots_4.jpg,Green_Circle_Chess_4.jpg,Red_Plus_Dots_2.jpg,left,709.9100000050385,true,NA,NA,NA,NA,NA,NA,NA,NA,true
uxxwbs2E,372ages0j7iqu68t52ou18jnn9hxrx,3m0bcwmb8z9qcjk8q2bkouw3ihsbws,uxxwbs2E,2020-0188,2020-05-21,12:27:37,12:50:39,NA,incomplete,33,number,1,left,Blue_Triangle_Chess_2.jpg,Red_Star_Stripes_2.jpg,Green_Circle_Chess_3.jpg,left,705.4000000061933,true,NA,NA,NA,NA,NA,NA,NA,NA,true
uxxwbs2E,372ages0j7iqu68t52ou18jnn9hxrx,3m0bcwmb8z9qcjk8q2bkouw3ihsbws,uxxwbs2E,2020-0188,2020-05-21,12:27:37,12:50:39,NA,incomplete,34,number,1,left,Blue_Star_Stripes_3.jpg,Green_Circle_Grid_3.jpg,Red_Plus_Stripes_4.jpg,left,749.0500000130851,true,NA,NA,NA,NA,NA,NA,NA,NA,true
uxxwbs2E,372ages0j7iqu68t52ou18jnn9hxrx,3m0bcwmb8z9qcjk8q2bkouw3ihsbws,uxxwbs2E,2020-0188,2020-05-21,12:27:37,12:50:39,NA,incomplete,35,number,1,left,Blue_Triangle_Chess_1.jpg,Red_Star_Stripes_1.jpg,Green_Plus_Chess_3.jpg,left,768.7199999927543,true,NA,NA,NA,NA,NA,NA,NA,NA,true
uxxwbs2E,372ages0j7iqu68t52ou18jnn9hxrx,3m0bcwmb8z9qcjk8q2bkouw3ihsbws,uxxwbs2E,2020-0188,2020-05-21,12:27:37,12:50:39,NA,incomplete,36,number,1,right,Purple_Plus_Dots_4.jpg,Green_Star_Dots_3.jpg,Blue_Triangle_Stripes_4.jpg,right,829.055000009248,true,NA,NA,NA,NA,NA,NA,NA,NA,true
uxxwbs2E,372ages0j7iqu68t52ou18jnn9hxrx,3m0bcwmb8z9qcjk8q2bkouw3ihsbws,uxxwbs2E,2020-0188,2020-05-21,12:27:37,12:50:39,NA,incomplete,37,number,1,left,Red_Star_Grid_3.jpg,Purple_Triangle_Chess_3.jpg,Green_Plus_Grid_2.jpg,left,742.8000000072643,true,NA,NA,NA,NA,NA,NA,NA,NA,true
uxxwbs2E,372ages0j7iqu68t52ou18jnn9hxrx,3m0bcwmb8z9qcjk8q2bkouw3ihsbws,uxxwbs2E,2020-0188,2020-05-21,12:27:37,12:50:39,NA,incomplete,38,number,1,right,Purple_Circle_Dots_2.jpg,Red_Star_Dots_1.jpg,Blue_Triangle_Stripes_2.jpg,right,621.899999998277,true,NA,NA,NA,NA,NA,NA,NA,NA,true
uxxwbs2E,372ages0j7iqu68t52ou18jnn9hxrx,3m0bcwmb8z9qcjk8q2bkouw3ihsbws,uxxwbs2E,2020-0188,2020-05-21,12:27:37,12:50:39,NA,incomplete,39,number,1,left,Green_Star_Grid_4.jpg,Blue_Triangle_Dots_4.jpg,Purple_Plus_Grid_3.jpg,left,770.0999999942724,true,NA,NA,NA,NA,NA,NA,NA,NA,true
uxxwbs2E,372ages0j7iqu68t52ou18jnn9hxrx,3m0bcwmb8z9qcjk8q2bkouw3ihsbws,uxxwbs2E,2020-0188,2020-05-21,12:27:37,12:50:39,NA,incomplete,0,filling,0,left,Red_Triangle_Grid_4.jpg,Purple_Star_Grid_2.jpg,Blue_Plus_Chess_4.jpg,right,1580.710000009276,false,low,NA,NA,NA,NA,NA,NA,NA,false
uxxwbs2E,372ages0j7iqu68t52ou18jnn9hxrx,3m0bcwmb8z9qcjk8q2bkouw3ihsbws,uxxwbs2E,2020-0188,2020-05-21,12:27:37,12:50:39,NA,incomplete,1,filling,1,left,Blue_Star_Stripes_1.jpg,Green_Triangle_Stripes_2.jpg,Red_Plus_Grid_1.jpg,right,1286.6400000057183,false,low,NA,NA,NA,NA,NA,NA,NA,false
uxxwbs2E,372ages0j7iqu68t52ou18jnn9hxrx,3m0bcwmb8z9qcjk8q2bkouw3ihsbws,uxxwbs2E,2020-0188,2020-05-21,12:27:37,12:50:39,NA,incomplete,2,filling,1,right,Purple_Triangle_Grid_4.jpg,Blue_Plus_Dots_4.jpg,Red_Star_Grid_1.jpg,left,890.6699999934062,false,low,NA,NA,NA,NA,NA,NA,NA,false
uxxwbs2E,372ages0j7iqu68t52ou18jnn9hxrx,3m0bcwmb8z9qcjk8q2bkouw3ihsbws,uxxwbs2E,2020-0188,2020-05-21,12:27:37,12:50:39,NA,incomplete,3,filling,1,right,Blue_Circle_Stripes_2.jpg,Red_Plus_Grid_2.jpg,Green_Star_Stripes_1.jpg,right,1036.8699999817181,true,low,NA,NA,NA,NA,NA,NA,NA,false
uxxwbs2E,372ages0j7iqu68t52ou18jnn9hxrx,3m0bcwmb8z9qcjk8q2bkouw3ihsbws,uxxwbs2E,2020-0188,2020-05-21,12:27:37,12:50:39,NA,incomplete,4,filling,1,right,Purple_Circle_Grid_3.jpg,Red_Plus_Dots_3.jpg,Green_Star_Grid_1.jpg,right,1038.1800000031944,true,low,NA,NA,NA,NA,NA,NA,NA,false
uxxwbs2E,372ages0j7iqu68t52ou18jnn9hxrx,3m0bcwmb8z9qcjk8q2bkouw3ihsbws,uxxwbs2E,2020-0188,2020-05-21,12:27:37,12:50:39,NA,incomplete,5,filling,1,left,Red_Plus_Grid_1.jpg,Purple_Circle_Grid_2.jpg,Green_Triangle_Stripes_1.jpg,left,1132.785000023432,true,low,NA,NA,NA,NA,NA,NA,NA,false
uxxwbs2E,372ages0j7iqu68t52ou18jnn9hxrx,3m0bcwmb8z9qcjk8q2bkouw3ihsbws,uxxwbs2E,2020-0188,2020-05-21,12:27:37,12:50:39,NA,incomplete,6,filling,1,left,Blue_Triangle_Grid_4.jpg,Red_Plus_Grid_1.jpg,Green_Star_Chess_4.jpg,left,1002.6099999959115,true,low,NA,NA,NA,NA,NA,NA,NA,false
uxxwbs2E,372ages0j7iqu68t52ou18jnn9hxrx,3m0bcwmb8z9qcjk8q2bkouw3ihsbws,uxxwbs2E,2020-0188,2020-05-21,12:27:37,12:50:39,NA,incomplete,7,filling,1,left,Green_Star_Chess_1.jpg,Purple_Circle_Chess_2.jpg,Blue_Plus_Stripes_1.jpg,left,1177.9500000120606,true,low,NA,NA,NA,NA,NA,NA,NA,false
uxxwbs2E,372ages0j7iqu68t52ou18jnn9hxrx,3m0bcwmb8z9qcjk8q2bkouw3ihsbws,uxxwbs2E,2020-0188,2020-05-21,12:27:37,12:50:39,NA,incomplete,8,filling,1,right,Blue_Star_Stripes_1.jpg,Green_Circle_Dots_1.jpg,Red_Triangle_Stripes_2.jpg,right,859.5750000094995,true,low,NA,NA,NA,NA,NA,NA,NA,false
uxxwbs2E,372ages0j7iqu68t52ou18jnn9hxrx,3m0bcwmb8z9qcjk8q2bkouw3ihsbws,uxxwbs2E,2020-0188,2020-05-21,12:27:37,12:50:39,NA,incomplete,9,filling,1,right,Purple_Triangle_Grid_4.jpg,Green_Star_Stripes_4.jpg,Blue_Plus_Grid_1.jpg,right,1045.0899999996182,true,low,NA,NA,NA,NA,NA,NA,NA,false
uxxwbs2E,372ages0j7iqu68t52ou18jnn9hxrx,3m0bcwmb8z9qcjk8q2bkouw3ihsbws,uxxwbs2E,2020-0188,2020-05-21,12:27:37,12:50:39,NA,incomplete,10,filling,1,right,Blue_Star_Grid_2.jpg,Purple_Plus_Chess_2.jpg,Green_Circle_Grid_1.jpg,right,1137.8900000127032,true,low,NA,NA,NA,NA,NA,NA,NA,false
uxxwbs2E,372ages0j7iqu68t52ou18jnn9hxrx,3m0bcwmb8z9qcjk8q2bkouw3ihsbws,uxxwbs2E,2020-0188,2020-05-21,12:27:37,12:50:39,NA,incomplete,11,filling,1,left,Purple_Circle_Grid_3.jpg,Green_Plus_Grid_2.jpg,Blue_Star_Stripes_3.jpg,left,1018.2450000138488,true,low,NA,NA,NA,NA,NA,NA,NA,false
uxxwbs2E,372ages0j7iqu68t52ou18jnn9hxrx,3m0bcwmb8z9qcjk8q2bkouw3ihsbws,uxxwbs2E,2020-0188,2020-05-21,12:27:37,12:50:39,NA,incomplete,12,filling,1,left,Purple_Circle_Chess_2.jpg,Green_Plus_Chess_3.jpg,Red_Star_Dots_2.jpg,left,1002.1450000058394,true,low,NA,NA,NA,NA,NA,NA,NA,false
uxxwbs2E,372ages0j7iqu68t52ou18jnn9hxrx,3m0bcwmb8z9qcjk8q2bkouw3ihsbws,uxxwbs2E,2020-0188,2020-05-21,12:27:37,12:50:39,NA,incomplete,13,filling,1,right,Blue_Star_Grid_3.jpg,Purple_Triangle_Stripes_3.jpg,Green_Plus_Grid_1.jpg,right,1068.6899999855086,true,low,NA,NA,NA,NA,NA,NA,NA,false
uxxwbs2E,372ages0j7iqu68t52ou18jnn9hxrx,3m0bcwmb8z9qcjk8q2bkouw3ihsbws,uxxwbs2E,2020-0188,2020-05-21,12:27:37,12:50:39,NA,incomplete,14,filling,1,left,Purple_Plus_Dots_1.jpg,Blue_Circle_Dots_4.jpg,Red_Star_Chess_1.jpg,left,930.675000010524,true,low,NA,NA,NA,NA,NA,NA,NA,false
uxxwbs2E,372ages0j7iqu68t52ou18jnn9hxrx,3m0bcwmb8z9qcjk8q2bkouw3ihsbws,uxxwbs2E,2020-0188,2020-05-21,12:27:37,12:50:39,NA,incomplete,15,filling,1,left,Red_Plus_Dots_1.jpg,Purple_Star_Dots_3.jpg,Green_Circle_Grid_1.jpg,left,996.820000000298,true,low,NA,NA,NA,NA,NA,NA,NA,false
uxxwbs2E,372ages0j7iqu68t52ou18jnn9hxrx,3m0bcwmb8z9qcjk8q2bkouw3ihsbws,uxxwbs2E,2020-0188,2020-05-21,12:27:37,12:50:39,NA,incomplete,16,filling,1,right,Red_Triangle_Dots_2.jpg,Blue_Plus_Grid_2.jpg,Green_Circle_Dots_3.jpg,right,1004.6199999924283,true,low,NA,NA,NA,NA,NA,NA,NA,false
uxxwbs2E,372ages0j7iqu68t52ou18jnn9hxrx,3m0bcwmb8z9qcjk8q2bkouw3ihsbws,uxxwbs2E,2020-0188,2020-05-21,12:27:37,12:50:39,NA,incomplete,17,filling,1,right,Purple_Plus_Chess_3.jpg,Red_Circle_Dots_3.jpg,Green_Star_Chess_1.jpg,right,783.2350000098813,true,low,NA,NA,NA,NA,NA,NA,NA,false
uxxwbs2E,372ages0j7iqu68t52ou18jnn9hxrx,3m0bcwmb8z9qcjk8q2bkouw3ihsbws,uxxwbs2E,2020-0188,2020-05-21,12:27:37,12:50:39,NA,incomplete,18,filling,0,left,Purple_Triangle_Grid_2.jpg,Blue_Plus_Grid_4.jpg,Red_Circle_Dots_2.jpg,left,893.9550000068266,true,low,NA,NA,NA,NA,NA,NA,NA,false
uxxwbs2E,372ages0j7iqu68t52ou18jnn9hxrx,3m0bcwmb8z9qcjk8q2bkouw3ihsbws,uxxwbs2E,2020-0188,2020-05-21,12:27:37,12:50:39,NA,incomplete,19,filling,1,right,Purple_Triangle_Chess_2.jpg,Blue_Plus_Grid_2.jpg,Green_Star_Chess_1.jpg,left,717.8450000064913,false,low,NA,NA,NA,NA,NA,NA,NA,false
uxxwbs2E,372ages0j7iqu68t52ou18jnn9hxrx,3m0bcwmb8z9qcjk8q2bkouw3ihsbws,uxxwbs2E,2020-0188,2020-05-21,12:27:37,12:50:39,NA,incomplete,20,filling,1,left,Green_Circle_Stripes_3.jpg,Red_Plus_Stripes_4.jpg,Purple_Triangle_Dots_3.jpg,left,1287.6950000063516,true,low,NA,NA,NA,NA,NA,NA,NA,false
uxxwbs2E,372ages0j7iqu68t52ou18jnn9hxrx,3m0bcwmb8z9qcjk8q2bkouw3ihsbws,uxxwbs2E,2020-0188,2020-05-21,12:27:37,12:50:39,NA,incomplete,21,filling,1,right,Blue_Triangle_Dots_2.jpg,Red_Plus_Chess_2.jpg,Purple_Circle_Dots_4.jpg,right,1001.894999993965,true,low,NA,NA,NA,NA,NA,NA,NA,false
uxxwbs2E,372ages0j7iqu68t52ou18jnn9hxrx,3m0bcwmb8z9qcjk8q2bkouw3ihsbws,uxxwbs2E,2020-0188,2020-05-21,12:27:37,12:50:39,NA,incomplete,22,filling,0,left,Red_Plus_Stripes_2.jpg,Green_Triangle_Stripes_4.jpg,Blue_Circle_Dots_2.jpg,left,930.915000004461,true,low,NA,NA,NA,NA,NA,NA,NA,false
uxxwbs2E,372ages0j7iqu68t52ou18jnn9hxrx,3m0bcwmb8z9qcjk8q2bkouw3ihsbws,uxxwbs2E,2020-0188,2020-05-21,12:27:37,12:50:39,NA,incomplete,23,filling,1,left,Green_Triangle_Stripes_2.jpg,Blue_Plus_Stripes_4.jpg,Red_Star_Dots_2.jpg,left,1266.0699999833014,true,low,NA,NA,NA,NA,NA,NA,NA,false
uxxwbs2E,372ages0j7iqu68t52ou18jnn9hxrx,3m0bcwmb8z9qcjk8q2bkouw3ihsbws,uxxwbs2E,2020-0188,2020-05-21,12:27:37,12:50:39,NA,incomplete,24,filling,0,left,Blue_Circle_Grid_3.jpg,Red_Plus_Grid_1.jpg,Green_Triangle_Dots_3.jpg,left,1282.630000001518,true,low,NA,NA,NA,NA,NA,NA,NA,false
uxxwbs2E,372ages0j7iqu68t52ou18jnn9hxrx,3m0bcwmb8z9qcjk8q2bkouw3ihsbws,uxxwbs2E,2020-0188,2020-05-21,12:27:37,12:50:39,NA,incomplete,25,filling,0,right,Blue_Plus_Chess_3.jpg,Red_Circle_Dots_3.jpg,Purple_Star_Chess_4.jpg,right,1309.754999994766,true,low,NA,NA,NA,NA,NA,NA,NA,false
uxxwbs2E,372ages0j7iqu68t52ou18jnn9hxrx,3m0bcwmb8z9qcjk8q2bkouw3ihsbws,uxxwbs2E,2020-0188,2020-05-21,12:27:37,12:50:39,NA,incomplete,26,filling,1,right,Red_Star_Chess_3.jpg,Green_Triangle_Grid_3.jpg,Blue_Circle_Chess_2.jpg,left,710.4099999996834,false,low,NA,NA,NA,NA,NA,NA,NA,false
uxxwbs2E,372ages0j7iqu68t52ou18jnn9hxrx,3m0bcwmb8z9qcjk8q2bkouw3ihsbws,uxxwbs2E,2020-0188,2020-05-21,12:27:37,12:50:39,NA,incomplete,27,filling,1,right,Green_Triangle_Dots_2.jpg,Red_Plus_Chess_2.jpg,Purple_Star_Dots_4.jpg,left,1494.1450000042096,false,low,NA,NA,NA,NA,NA,NA,NA,false
uxxwbs2E,372ages0j7iqu68t52ou18jnn9hxrx,3m0bcwmb8z9qcjk8q2bkouw3ihsbws,uxxwbs2E,2020-0188,2020-05-21,12:27:37,12:50:39,NA,incomplete,28,filling,1,left,Purple_Plus_Stripes_4.jpg,Green_Star_Stripes_1.jpg,Red_Triangle_Grid_4.jpg,right,1327.2150000266265,false,low,NA,NA,NA,NA,NA,NA,NA,false
uxxwbs2E,372ages0j7iqu68t52ou18jnn9hxrx,3m0bcwmb8z9qcjk8q2bkouw3ihsbws,uxxwbs2E,2020-0188,2020-05-21,12:27:37,12:50:39,NA,incomplete,29,filling,1,left,Blue_Circle_Chess_2.jpg,Green_Plus_Chess_3.jpg,Purple_Triangle_Dots_2.jpg,left,1342.4400000076275,true,low,NA,NA,NA,NA,NA,NA,NA,false
uxxwbs2E,372ages0j7iqu68t52ou18jnn9hxrx,3m0bcwmb8z9qcjk8q2bkouw3ihsbws,uxxwbs2E,2020-0188,2020-05-21,12:27:37,12:50:39,NA,incomplete,30,number,1,right,Red_Triangle_Dots_3.jpg,Green_Circle_Dots_4.jpg,Blue_Star_Grid_3.jpg,left,939.0699999930803,false,low,NA,NA,NA,NA,NA,NA,NA,false
uxxwbs2E,372ages0j7iqu68t52ou18jnn9hxrx,3m0bcwmb8z9qcjk8q2bkouw3ihsbws,uxxwbs2E,2020-0188,2020-05-21,12:27:37,12:50:39,NA,incomplete,31,number,1,right,Purple_Plus_Chess_2.jpg,Green_Circle_Chess_4.jpg,Red_Triangle_Stripes_2.jpg,left,1403.8199999777135,false,low,NA,NA,NA,NA,NA,NA,NA,false
uxxwbs2E,372ages0j7iqu68t52ou18jnn9hxrx,3m0bcwmb8z9qcjk8q2bkouw3ihsbws,uxxwbs2E,2020-0188,2020-05-21,12:27:37,12:50:39,NA,incomplete,32,number,1,right,Green_Plus_Stripes_3.jpg,Red_Triangle_Stripes_2.jpg,Purple_Star_Grid_3.jpg,right,1234.2099999950733,true,low,NA,NA,NA,NA,NA,NA,NA,false
uxxwbs2E,372ages0j7iqu68t52ou18jnn9hxrx,3m0bcwmb8z9qcjk8q2bkouw3ihsbws,uxxwbs2E,2020-0188,2020-05-21,12:27:37,12:50:39,NA,incomplete,33,number,0,right,Purple_Plus_Chess_1.jpg,Red_Star_Chess_4.jpg,Blue_Triangle_Dots_1.jpg,right,1301.2149999849498,true,low,NA,NA,NA,NA,NA,NA,NA,false
uxxwbs2E,372ages0j7iqu68t52ou18jnn9hxrx,3m0bcwmb8z9qcjk8q2bkouw3ihsbws,uxxwbs2E,2020-0188,2020-05-21,12:27:37,12:50:39,NA,incomplete,34,number,1,right,Green_Triangle_Chess_4.jpg,Red_Star_Chess_1.jpg,Blue_Plus_Stripes_4.jpg,left,1444.2250000138301,false,low,NA,NA,NA,NA,NA,NA,NA,false
uxxwbs2E,372ages0j7iqu68t52ou18jnn9hxrx,3m0bcwmb8z9qcjk8q2bkouw3ihsbws,uxxwbs2E,2020-0188,2020-05-21,12:27:37,12:50:39,NA,incomplete,35,number,1,right,Purple_Star_Chess_3.jpg,Green_Plus_Chess_2.jpg,Blue_Circle_Stripes_3.jpg,right,1277.2600000025705,true,low,NA,NA,NA,NA,NA,NA,NA,false
uxxwbs2E,372ages0j7iqu68t52ou18jnn9hxrx,3m0bcwmb8z9qcjk8q2bkouw3ihsbws,uxxwbs2E,2020-0188,2020-05-21,12:27:37,12:50:39,NA,incomplete,36,number,1,left,Purple_Star_Grid_4.jpg,Blue_Circle_Stripes_4.jpg,Red_Plus_Grid_1.jpg,left,926.1450000049081,true,low,NA,NA,NA,NA,NA,NA,NA,false
uxxwbs2E,372ages0j7iqu68t52ou18jnn9hxrx,3m0bcwmb8z9qcjk8q2bkouw3ihsbws,uxxwbs2E,2020-0188,2020-05-21,12:27:37,12:50:39,NA,incomplete,37,number,1,left,Purple_Triangle_Stripes_1.jpg,Red_Plus_Dots_1.jpg,Green_Circle_Stripes_4.jpg,right,1166.8849999841768,false,low,NA,NA,NA,NA,NA,NA,NA,false
uxxwbs2E,372ages0j7iqu68t52ou18jnn9hxrx,3m0bcwmb8z9qcjk8q2bkouw3ihsbws,uxxwbs2E,2020-0188,2020-05-21,12:27:37,12:50:39,NA,incomplete,38,number,1,left,Green_Triangle_Dots_1.jpg,Purple_Circle_Chess_1.jpg,Red_Star_Dots_2.jpg,right,1595.3149999841116,false,low,NA,NA,NA,NA,NA,NA,NA,false
uxxwbs2E,372ages0j7iqu68t52ou18jnn9hxrx,3m0bcwmb8z9qcjk8q2bkouw3ihsbws,uxxwbs2E,2020-0188,2020-05-21,12:27:37,12:50:39,NA,incomplete,39,number,0,left,Green_Circle_Stripes_3.jpg,Red_Plus_Chess_3.jpg,Purple_Star_Stripes_1.jpg,left,840.6599999871105,true,low,NA,NA,NA,NA,NA,NA,NA,false
uxxwbs2E,372ages0j7iqu68t52ou18jnn9hxrx,3m0bcwmb8z9qcjk8q2bkouw3ihsbws,uxxwbs2E,2020-0188,2020-05-21,12:27:37,12:50:39,NA,incomplete,40,number,1,right,Red_Plus_Chess_3.jpg,Blue_Star_Chess_1.jpg,Green_Circle_Dots_3.jpg,right,708.0950000090525,true,low,NA,NA,NA,NA,NA,NA,NA,false
uxxwbs2E,372ages0j7iqu68t52ou18jnn9hxrx,3m0bcwmb8z9qcjk8q2bkouw3ihsbws,uxxwbs2E,2020-0188,2020-05-21,12:27:37,12:50:39,NA,incomplete,41,number,1,right,Red_Triangle_Chess_3.jpg,Green_Circle_Chess_2.jpg,Purple_Star_Stripes_3.jpg,right,709.7300000023097,true,low,NA,NA,NA,NA,NA,NA,NA,false
uxxwbs2E,372ages0j7iqu68t52ou18jnn9hxrx,3m0bcwmb8z9qcjk8q2bkouw3ihsbws,uxxwbs2E,2020-0188,2020-05-21,12:27:37,12:50:39,NA,incomplete,42,number,1,right,Blue_Star_Stripes_2.jpg,Purple_Plus_Stripes_3.jpg,Red_Triangle_Grid_2.jpg,right,1014.8999999801163,true,low,NA,NA,NA,NA,NA,NA,NA,false
uxxwbs2E,372ages0j7iqu68t52ou18jnn9hxrx,3m0bcwmb8z9qcjk8q2bkouw3ihsbws,uxxwbs2E,2020-0188,2020-05-21,12:27:37,12:50:39,NA,incomplete,43,number,1,right,Purple_Star_Dots_3.jpg,Green_Triangle_Dots_1.jpg,Blue_Circle_Stripes_3.jpg,right,648.6250000016298,true,low,NA,NA,NA,NA,NA,NA,NA,false
uxxwbs2E,372ages0j7iqu68t52ou18jnn9hxrx,3m0bcwmb8z9qcjk8q2bkouw3ihsbws,uxxwbs2E,2020-0188,2020-05-21,12:27:37,12:50:39,NA,incomplete,44,number,1,left,Blue_Star_Dots_1.jpg,Green_Circle_Chess_1.jpg,Purple_Plus_Dots_4.jpg,right,1444.309999991674,false,low,NA,NA,NA,NA,NA,NA,NA,false
uxxwbs2E,372ages0j7iqu68t52ou18jnn9hxrx,3m0bcwmb8z9qcjk8q2bkouw3ihsbws,uxxwbs2E,2020-0188,2020-05-21,12:27:37,12:50:39,NA,incomplete,45,number,0,left,Green_Circle_Dots_3.jpg,Red_Plus_Chess_3.jpg,Purple_Triangle_Dots_4.jpg,left,925.0049999973271,true,low,NA,NA,NA,NA,NA,NA,NA,false
uxxwbs2E,372ages0j7iqu68t52ou18jnn9hxrx,3m0bcwmb8z9qcjk8q2bkouw3ihsbws,uxxwbs2E,2020-0188,2020-05-21,12:27:37,12:50:39,NA,incomplete,46,number,1,left,Green_Triangle_Grid_3.jpg,Red_Circle_Stripes_3.jpg,Purple_Plus_Grid_1.jpg,left,889.1500000027008,true,low,NA,NA,NA,NA,NA,NA,NA,false
uxxwbs2E,372ages0j7iqu68t52ou18jnn9hxrx,3m0bcwmb8z9qcjk8q2bkouw3ihsbws,uxxwbs2E,2020-0188,2020-05-21,12:27:37,12:50:39,NA,incomplete,47,number,1,right,Purple_Circle_Grid_2.jpg,Red_Star_Grid_4.jpg,Blue_Triangle_Dots_2.jpg,right,1102.8549999755342,true,low,NA,NA,NA,NA,NA,NA,NA,false
uxxwbs2E,372ages0j7iqu68t52ou18jnn9hxrx,3m0bcwmb8z9qcjk8q2bkouw3ihsbws,uxxwbs2E,2020-0188,2020-05-21,12:27:37,12:50:39,NA,incomplete,48,number,1,right,Green_Plus_Chess_3.jpg,Purple_Circle_Chess_2.jpg,Red_Triangle_Stripes_3.jpg,right,836.4099999889731,true,low,NA,NA,NA,NA,NA,NA,NA,false
uxxwbs2E,372ages0j7iqu68t52ou18jnn9hxrx,3m0bcwmb8z9qcjk8q2bkouw3ihsbws,uxxwbs2E,2020-0188,2020-05-21,12:27:37,12:50:39,NA,incomplete,49,number,0,right,Blue_Star_Chess_3.jpg,Red_Plus_Chess_2.jpg,Purple_Circle_Grid_3.jpg,right,976.524999976391,true,low,NA,NA,NA,NA,NA,NA,NA,false
uxxwbs2E,372ages0j7iqu68t52ou18jnn9hxrx,3m0bcwmb8z9qcjk8q2bkouw3ihsbws,uxxwbs2E,2020-0188,2020-05-21,12:27:37,12:50:39,NA,incomplete,50,number,1,right,Red_Triangle_Grid_2.jpg,Blue_Circle_Grid_3.jpg,Purple_Plus_Chess_2.jpg,right,1458.3800000254996,true,low,NA,NA,NA,NA,NA,NA,NA,false
uxxwbs2E,372ages0j7iqu68t52ou18jnn9hxrx,3m0bcwmb8z9qcjk8q2bkouw3ihsbws,uxxwbs2E,2020-0188,2020-05-21,12:27:37,12:50:39,NA,incomplete,51,number,1,left,Blue_Circle_Stripes_1.jpg,Green_Star_Chess_1.jpg,Purple_Plus_Stripes_2.jpg,left,1040.9250000084285,true,low,NA,NA,NA,NA,NA,NA,NA,false
uxxwbs2E,372ages0j7iqu68t52ou18jnn9hxrx,3m0bcwmb8z9qcjk8q2bkouw3ihsbws,uxxwbs2E,2020-0188,2020-05-21,12:27:37,12:50:39,NA,incomplete,52,number,1,right,Green_Plus_Dots_4.jpg,Blue_Star_Dots_2.jpg,Red_Circle_Stripes_4.jpg,right,943.3900000003632,true,low,NA,NA,NA,NA,NA,NA,NA,false
uxxwbs2E,372ages0j7iqu68t52ou18jnn9hxrx,3m0bcwmb8z9qcjk8q2bkouw3ihsbws,uxxwbs2E,2020-0188,2020-05-21,12:27:37,12:50:39,NA,incomplete,53,number,0,right,Green_Plus_Grid_3.jpg,Red_Star_Grid_4.jpg,Blue_Triangle_Dots_3.jpg,left,928.3749999885913,false,low,NA,NA,NA,NA,NA,NA,NA,false
uxxwbs2E,372ages0j7iqu68t52ou18jnn9hxrx,3m0bcwmb8z9qcjk8q2bkouw3ihsbws,uxxwbs2E,2020-0188,2020-05-21,12:27:37,12:50:39,NA,incomplete,54,number,1,left,Red_Plus_Stripes_4.jpg,Purple_Triangle_Dots_4.jpg,Green_Circle_Stripes_1.jpg,left,1214.4900000130292,true,low,NA,NA,NA,NA,NA,NA,NA,false
uxxwbs2E,372ages0j7iqu68t52ou18jnn9hxrx,3m0bcwmb8z9qcjk8q2bkouw3ihsbws,uxxwbs2E,2020-0188,2020-05-21,12:27:37,12:50:39,NA,incomplete,55,number,0,left,Purple_Circle_Chess_4.jpg,Blue_Star_Stripes_4.jpg,Red_Plus_Chess_3.jpg,left,914.8100000165869,true,low,NA,NA,NA,NA,NA,NA,NA,false
uxxwbs2E,372ages0j7iqu68t52ou18jnn9hxrx,3m0bcwmb8z9qcjk8q2bkouw3ihsbws,uxxwbs2E,2020-0188,2020-05-21,12:27:37,12:50:39,NA,incomplete,56,number,1,left,Blue_Circle_Dots_2.jpg,Purple_Triangle_Stripes_2.jpg,Green_Star_Dots_4.jpg,left,1104.8099999898113,true,low,NA,NA,NA,NA,NA,NA,NA,false
uxxwbs2E,372ages0j7iqu68t52ou18jnn9hxrx,3m0bcwmb8z9qcjk8q2bkouw3ihsbws,uxxwbs2E,2020-0188,2020-05-21,12:27:37,12:50:39,NA,incomplete,57,number,1,left,Blue_Plus_Dots_3.jpg,Red_Star_Stripes_3.jpg,Purple_Triangle_Dots_2.jpg,right,1094.7449999803212,false,low,NA,NA,NA,NA,NA,NA,NA,false
uxxwbs2E,372ages0j7iqu68t52ou18jnn9hxrx,3m0bcwmb8z9qcjk8q2bkouw3ihsbws,uxxwbs2E,2020-0188,2020-05-21,12:27:37,12:50:39,NA,incomplete,58,number,1,left,Green_Star_Chess_3.jpg,Red_Plus_Dots_3.jpg,Purple_Circle_Chess_2.jpg,left,1200.68499998888,true,low,NA,NA,NA,NA,NA,NA,NA,false
uxxwbs2E,372ages0j7iqu68t52ou18jnn9hxrx,3m0bcwmb8z9qcjk8q2bkouw3ihsbws,uxxwbs2E,2020-0188,2020-05-21,12:27:37,12:50:39,NA,incomplete,59,number,0,right,Green_Circle_Chess_1.jpg,Blue_Star_Chess_3.jpg,Purple_Plus_Stripes_1.jpg,right,1338.5249999992084,true,low,NA,NA,NA,NA,NA,NA,NA,false
uxxwbs2E,372ages0j7iqu68t52ou18jnn9hxrx,3m0bcwmb8z9qcjk8q2bkouw3ihsbws,uxxwbs2E,2020-0188,2020-05-21,12:27:37,12:50:39,NA,incomplete,60,filling,1,left,Green_Circle_Stripes_4.jpg,Red_Triangle_Stripes_1.jpg,Blue_Star_Chess_4.jpg,left,1491.3499999966007,true,low,NA,NA,NA,NA,NA,NA,NA,false
uxxwbs2E,372ages0j7iqu68t52ou18jnn9hxrx,3m0bcwmb8z9qcjk8q2bkouw3ihsbws,uxxwbs2E,2020-0188,2020-05-21,12:27:37,12:50:39,NA,incomplete,61,filling,0,right,Green_Star_Chess_3.jpg,Red_Circle_Dots_3.jpg,Blue_Plus_Chess_4.jpg,left,1303.7750000075903,false,low,NA,NA,NA,NA,NA,NA,NA,false
uxxwbs2E,372ages0j7iqu68t52ou18jnn9hxrx,3m0bcwmb8z9qcjk8q2bkouw3ihsbws,uxxwbs2E,2020-0188,2020-05-21,12:27:37,12:50:39,NA,incomplete,62,filling,1,left,Green_Star_Stripes_3.jpg,Blue_Plus_Stripes_2.jpg,Purple_Circle_Grid_3.jpg,right,761.7449999961536,false,low,NA,NA,NA,NA,NA,NA,NA,false
uxxwbs2E,372ages0j7iqu68t52ou18jnn9hxrx,3m0bcwmb8z9qcjk8q2bkouw3ihsbws,uxxwbs2E,2020-0188,2020-05-21,12:27:37,12:50:39,NA,incomplete,63,filling,1,left,Green_Star_Chess_2.jpg,Red_Plus_Chess_3.jpg,Blue_Triangle_Grid_2.jpg,right,1271.7799999809358,false,low,NA,NA,NA,NA,NA,NA,NA,false
uxxwbs2E,372ages0j7iqu68t52ou18jnn9hxrx,3m0bcwmb8z9qcjk8q2bkouw3ihsbws,uxxwbs2E,2020-0188,2020-05-21,12:27:37,12:50:39,NA,incomplete,64,filling,1,left,Green_Plus_Chess_2.jpg,Purple_Circle_Chess_1.jpg,Red_Star_Stripes_2.jpg,left,1238.6849999893457,true,low,NA,NA,NA,NA,NA,NA,NA,false
uxxwbs2E,372ages0j7iqu68t52ou18jnn9hxrx,3m0bcwmb8z9qcjk8q2bkouw3ihsbws,uxxwbs2E,2020-0188,2020-05-21,12:27:37,12:50:39,NA,incomplete,65,filling,1,right,Green_Triangle_Grid_3.jpg,Purple_Plus_Stripes_3.jpg,Blue_Circle_Grid_2.jpg,right,876.5949999797158,true,low,NA,NA,NA,NA,NA,NA,NA,false
uxxwbs2E,372ages0j7iqu68t52ou18jnn9hxrx,3m0bcwmb8z9qcjk8q2bkouw3ihsbws,uxxwbs2E,2020-0188,2020-05-21,12:27:37,12:50:39,NA,incomplete,66,filling,1,right,Green_Star_Stripes_3.jpg,Red_Triangle_Dots_3.jpg,Purple_Circle_Stripes_2.jpg,left,1164.325000019744,false,low,NA,NA,NA,NA,NA,NA,NA,false
uxxwbs2E,372ages0j7iqu68t52ou18jnn9hxrx,3m0bcwmb8z9qcjk8q2bkouw3ihsbws,uxxwbs2E,2020-0188,2020-05-21,12:27:37,12:50:39,NA,incomplete,67,filling,1,left,Blue_Circle_Chess_3.jpg,Purple_Triangle_Chess_1.jpg,Green_Plus_Stripes_3.jpg,left,1391.459999984363,true,low,NA,NA,NA,NA,NA,NA,NA,false
uxxwbs2E,372ages0j7iqu68t52ou18jnn9hxrx,3m0bcwmb8z9qcjk8q2bkouw3ihsbws,uxxwbs2E,2020-0188,2020-05-21,12:27:37,12:50:39,NA,incomplete,68,filling,1,left,Purple_Star_Grid_1.jpg,Green_Circle_Grid_2.jpg,Red_Plus_Dots_1.jpg,right,1399.7749999980442,false,low,NA,NA,NA,NA,NA,NA,NA,false
uxxwbs2E,372ages0j7iqu68t52ou18jnn9hxrx,3m0bcwmb8z9qcjk8q2bkouw3ihsbws,uxxwbs2E,2020-0188,2020-05-21,12:27:37,12:50:39,NA,incomplete,69,filling,1,left,Green_Plus_Stripes_4.jpg,Red_Circle_Stripes_3.jpg,Purple_Star_Grid_4.jpg,left,1365.0049999996554,true,low,NA,NA,NA,NA,NA,NA,NA,false
uxxwbs2E,372ages0j7iqu68t52ou18jnn9hxrx,3m0bcwmb8z9qcjk8q2bkouw3ihsbws,uxxwbs2E,2020-0188,2020-05-21,12:27:37,12:50:39,NA,incomplete,70,filling,1,left,Blue_Star_Stripes_2.jpg,Red_Triangle_Stripes_3.jpg,Purple_Plus_Chess_2.jpg,left,884.7750000131782,true,low,NA,NA,NA,NA,NA,NA,NA,false
uxxwbs2E,372ages0j7iqu68t52ou18jnn9hxrx,3m0bcwmb8z9qcjk8q2bkouw3ihsbws,uxxwbs2E,2020-0188,2020-05-21,12:27:37,12:50:39,NA,incomplete,71,filling,0,left,Blue_Plus_Stripes_3.jpg,Red_Triangle_Stripes_2.jpg,Green_Circle_Grid_3.jpg,left,1084.949999989476,true,low,NA,NA,NA,NA,NA,NA,NA,false
uxxwbs2E,372ages0j7iqu68t52ou18jnn9hxrx,3m0bcwmb8z9qcjk8q2bkouw3ihsbws,uxxwbs2E,2020-0188,2020-05-21,12:27:37,12:50:39,NA,incomplete,72,filling,1,right,Purple_Plus_Dots_2.jpg,Green_Star_Grid_2.jpg,Red_Triangle_Dots_1.jpg,right,1172.4899999971967,true,low,NA,NA,NA,NA,NA,NA,NA,false
uxxwbs2E,372ages0j7iqu68t52ou18jnn9hxrx,3m0bcwmb8z9qcjk8q2bkouw3ihsbws,uxxwbs2E,2020-0188,2020-05-21,12:27:37,12:50:39,NA,incomplete,73,filling,1,left,Green_Star_Stripes_1.jpg,Purple_Plus_Stripes_3.jpg,Red_Circle_Dots_1.jpg,left,974.0349999919999,true,low,NA,NA,NA,NA,NA,NA,NA,false
uxxwbs2E,372ages0j7iqu68t52ou18jnn9hxrx,3m0bcwmb8z9qcjk8q2bkouw3ihsbws,uxxwbs2E,2020-0188,2020-05-21,12:27:37,12:50:39,NA,incomplete,74,filling,1,right,Red_Triangle_Grid_2.jpg,Blue_Star_Stripes_2.jpg,Green_Circle_Grid_4.jpg,right,1177.3649999813642,true,low,NA,NA,NA,NA,NA,NA,NA,false
uxxwbs2E,372ages0j7iqu68t52ou18jnn9hxrx,3m0bcwmb8z9qcjk8q2bkouw3ihsbws,uxxwbs2E,2020-0188,2020-05-21,12:27:37,12:50:39,NA,incomplete,75,filling,1,right,Blue_Star_Grid_1.jpg,Green_Plus_Chess_1.jpg,Purple_Circle_Grid_2.jpg,right,1210.2400000148918,true,low,NA,NA,NA,NA,NA,NA,NA,false
uxxwbs2E,372ages0j7iqu68t52ou18jnn9hxrx,3m0bcwmb8z9qcjk8q2bkouw3ihsbws,uxxwbs2E,2020-0188,2020-05-21,12:27:37,12:50:39,NA,incomplete,76,filling,0,right,Purple_Triangle_Stripes_1.jpg,Red_Plus_Chess_1.jpg,Green_Star_Stripes_2.jpg,right,1011.1249999899883,true,low,NA,NA,NA,NA,NA,NA,NA,false
uxxwbs2E,372ages0j7iqu68t52ou18jnn9hxrx,3m0bcwmb8z9qcjk8q2bkouw3ihsbws,uxxwbs2E,2020-0188,2020-05-21,12:27:37,12:50:39,NA,incomplete,77,filling,0,left,Purple_Star_Chess_3.jpg,Red_Plus_Chess_4.jpg,Blue_Circle_Dots_3.jpg,right,971.9099999929313,false,low,NA,NA,NA,NA,NA,NA,NA,false
uxxwbs2E,372ages0j7iqu68t52ou18jnn9hxrx,3m0bcwmb8z9qcjk8q2bkouw3ihsbws,uxxwbs2E,2020-0188,2020-05-21,12:27:37,12:50:39,NA,incomplete,78,filling,1,right,Blue_Triangle_Chess_4.jpg,Red_Plus_Dots_4.jpg,Green_Circle_Chess_3.jpg,right,829.0649999980815,true,low,NA,NA,NA,NA,NA,NA,NA,false
uxxwbs2E,372ages0j7iqu68t52ou18jnn9hxrx,3m0bcwmb8z9qcjk8q2bkouw3ihsbws,uxxwbs2E,2020-0188,2020-05-21,12:27:37,12:50:39,NA,incomplete,79,filling,1,left,Blue_Circle_Chess_4.jpg,Red_Triangle_Chess_2.jpg,Green_Plus_Dots_4.jpg,left,1168.1550000212155,true,low,NA,NA,NA,NA,NA,NA,NA,false
uxxwbs2E,372ages0j7iqu68t52ou18jnn9hxrx,3m0bcwmb8z9qcjk8q2bkouw3ihsbws,uxxwbs2E,2020-0188,2020-05-21,12:27:37,12:50:39,NA,incomplete,80,filling,1,right,Green_Circle_Dots_2.jpg,Red_Plus_Stripes_2.jpg,Purple_Star_Dots_4.jpg,right,1192.4550000112504,true,low,NA,NA,NA,NA,NA,NA,NA,false
uxxwbs2E,372ages0j7iqu68t52ou18jnn9hxrx,3m0bcwmb8z9qcjk8q2bkouw3ihsbws,uxxwbs2E,2020-0188,2020-05-21,12:27:37,12:50:39,NA,incomplete,81,filling,1,right,Purple_Plus_Stripes_4.jpg,Blue_Triangle_Dots_4.jpg,Green_Circle_Stripes_2.jpg,right,1006.0349999985192,true,low,NA,NA,NA,NA,NA,NA,NA,false
uxxwbs2E,372ages0j7iqu68t52ou18jnn9hxrx,3m0bcwmb8z9qcjk8q2bkouw3ihsbws,uxxwbs2E,2020-0188,2020-05-21,12:27:37,12:50:39,NA,incomplete,82,filling,1,right,Green_Plus_Stripes_2.jpg,Purple_Circle_Chess_2.jpg,Blue_Star_Stripes_1.jpg,left,1411.1050000065006,false,low,NA,NA,NA,NA,NA,NA,NA,false
uxxwbs2E,372ages0j7iqu68t52ou18jnn9hxrx,3m0bcwmb8z9qcjk8q2bkouw3ihsbws,uxxwbs2E,2020-0188,2020-05-21,12:27:37,12:50:39,NA,incomplete,83,filling,1,left,Purple_Triangle_Dots_2.jpg,Green_Circle_Dots_3.jpg,Blue_Plus_Stripes_2.jpg,left,1068.3800000115298,true,low,NA,NA,NA,NA,NA,NA,NA,false
uxxwbs2E,372ages0j7iqu68t52ou18jnn9hxrx,3m0bcwmb8z9qcjk8q2bkouw3ihsbws,uxxwbs2E,2020-0188,2020-05-21,12:27:37,12:50:39,NA,incomplete,84,filling,1,right,Blue_Triangle_Grid_2.jpg,Purple_Plus_Dots_2.jpg,Green_Circle_Grid_4.jpg,right,1043.5900000156835,true,low,NA,NA,NA,NA,NA,NA,NA,false
uxxwbs2E,372ages0j7iqu68t52ou18jnn9hxrx,3m0bcwmb8z9qcjk8q2bkouw3ihsbws,uxxwbs2E,2020-0188,2020-05-21,12:27:37,12:50:39,NA,incomplete,85,filling,1,left,Blue_Circle_Dots_3.jpg,Purple_Star_Dots_1.jpg,Green_Triangle_Chess_3.jpg,right,1397.8799999749754,false,low,NA,NA,NA,NA,NA,NA,NA,false
uxxwbs2E,372ages0j7iqu68t52ou18jnn9hxrx,3m0bcwmb8z9qcjk8q2bkouw3ihsbws,uxxwbs2E,2020-0188,2020-05-21,12:27:37,12:50:39,NA,incomplete,86,filling,0,left,Green_Triangle_Dots_1.jpg,Blue_Star_Dots_4.jpg,Purple_Plus_Grid_1.jpg,left,929.2249999998603,true,low,NA,NA,NA,NA,NA,NA,NA,false
uxxwbs2E,372ages0j7iqu68t52ou18jnn9hxrx,3m0bcwmb8z9qcjk8q2bkouw3ihsbws,uxxwbs2E,2020-0188,2020-05-21,12:27:37,12:50:39,NA,incomplete,87,filling,1,left,Red_Circle_Stripes_2.jpg,Blue_Plus_Stripes_1.jpg,Green_Star_Chess_2.jpg,left,1381.6100000112783,true,low,NA,NA,NA,NA,NA,NA,NA,false
uxxwbs2E,372ages0j7iqu68t52ou18jnn9hxrx,3m0bcwmb8z9qcjk8q2bkouw3ihsbws,uxxwbs2E,2020-0188,2020-05-21,12:27:37,12:50:39,NA,incomplete,88,filling,0,right,Purple_Plus_Dots_1.jpg,Green_Star_Stripes_1.jpg,Red_Triangle_Dots_2.jpg,right,1353.4849999996368,true,low,NA,NA,NA,NA,NA,NA,NA,false
uxxwbs2E,372ages0j7iqu68t52ou18jnn9hxrx,3m0bcwmb8z9qcjk8q2bkouw3ihsbws,uxxwbs2E,2020-0188,2020-05-21,12:27:37,12:50:39,NA,incomplete,89,filling,1,left,Red_Triangle_Dots_2.jpg,Green_Star_Dots_3.jpg,Blue_Plus_Grid_2.jpg,right,1734.0550000080839,false,low,NA,NA,NA,NA,NA,NA,NA,false
uxxwbs2E,372ages0j7iqu68t52ou18jnn9hxrx,3m0bcwmb8z9qcjk8q2bkouw3ihsbws,uxxwbs2E,2020-0188,2020-05-21,12:27:37,12:50:39,NA,incomplete,90,number,1,left,Red_Triangle_Dots_4.jpg,Purple_Circle_Grid_4.jpg,Blue_Star_Dots_1.jpg,left,1595.4550000024028,true,low,NA,NA,NA,NA,NA,NA,NA,false
uxxwbs2E,372ages0j7iqu68t52ou18jnn9hxrx,3m0bcwmb8z9qcjk8q2bkouw3ihsbws,uxxwbs2E,2020-0188,2020-05-21,12:27:37,12:50:39,NA,incomplete,91,number,1,left,Red_Star_Grid_3.jpg,Purple_Plus_Chess_3.jpg,Blue_Circle_Grid_2.jpg,left,1969.825000007404,true,low,NA,NA,NA,NA,NA,NA,NA,false
uxxwbs2E,372ages0j7iqu68t52ou18jnn9hxrx,3m0bcwmb8z9qcjk8q2bkouw3ihsbws,uxxwbs2E,2020-0188,2020-05-21,12:27:37,12:50:39,NA,incomplete,92,number,0,right,Green_Plus_Chess_3.jpg,Blue_Star_Chess_1.jpg,Purple_Circle_Grid_3.jpg,right,1094.5250000222586,true,low,NA,NA,NA,NA,NA,NA,NA,false
uxxwbs2E,372ages0j7iqu68t52ou18jnn9hxrx,3m0bcwmb8z9qcjk8q2bkouw3ihsbws,uxxwbs2E,2020-0188,2020-05-21,12:27:37,12:50:39,NA,incomplete,93,number,0,right,Purple_Circle_Stripes_1.jpg,Blue_Plus_Stripes_2.jpg,Green_Star_Dots_1.jpg,left,1129.8900000110734,false,low,NA,NA,NA,NA,NA,NA,NA,false
uxxwbs2E,372ages0j7iqu68t52ou18jnn9hxrx,3m0bcwmb8z9qcjk8q2bkouw3ihsbws,uxxwbs2E,2020-0188,2020-05-21,12:27:37,12:50:39,NA,incomplete,94,number,0,right,Red_Circle_Grid_1.jpg,Purple_Triangle_Grid_3.jpg,Green_Star_Stripes_1.jpg,left,891.5699999779463,false,low,NA,NA,NA,NA,NA,NA,NA,false
uxxwbs2E,372ages0j7iqu68t52ou18jnn9hxrx,3m0bcwmb8z9qcjk8q2bkouw3ihsbws,uxxwbs2E,2020-0188,2020-05-21,12:27:37,12:50:39,NA,incomplete,95,number,1,left,Blue_Circle_Dots_2.jpg,Purple_Plus_Stripes_2.jpg,Green_Star_Dots_1.jpg,right,1286.195000022417,false,low,NA,NA,NA,NA,NA,NA,NA,false
uxxwbs2E,372ages0j7iqu68t52ou18jnn9hxrx,3m0bcwmb8z9qcjk8q2bkouw3ihsbws,uxxwbs2E,2020-0188,2020-05-21,12:27:37,12:50:39,NA,incomplete,96,number,1,right,Blue_Plus_Chess_4.jpg,Purple_Circle_Chess_3.jpg,Red_Star_Stripes_4.jpg,right,1045.2449999866076,true,low,NA,NA,NA,NA,NA,NA,NA,false
uxxwbs2E,372ages0j7iqu68t52ou18jnn9hxrx,3m0bcwmb8z9qcjk8q2bkouw3ihsbws,uxxwbs2E,2020-0188,2020-05-21,12:27:37,12:50:39,NA,incomplete,97,number,1,left,Green_Circle_Chess_3.jpg,Purple_Star_Dots_3.jpg,Red_Triangle_Chess_4.jpg,right,1153.340000018943,false,low,NA,NA,NA,NA,NA,NA,NA,false
uxxwbs2E,372ages0j7iqu68t52ou18jnn9hxrx,3m0bcwmb8z9qcjk8q2bkouw3ihsbws,uxxwbs2E,2020-0188,2020-05-21,12:27:37,12:50:39,NA,incomplete,98,number,1,left,Blue_Triangle_Dots_1.jpg,Green_Plus_Grid_1.jpg,Red_Star_Dots_3.jpg,right,902.620000008028,false,low,NA,NA,NA,NA,NA,NA,NA,false
uxxwbs2E,372ages0j7iqu68t52ou18jnn9hxrx,3m0bcwmb8z9qcjk8q2bkouw3ihsbws,uxxwbs2E,2020-0188,2020-05-21,12:27:37,12:50:39,NA,incomplete,99,number,1,left,Purple_Triangle_Dots_1.jpg,Blue_Plus_Stripes_1.jpg,Red_Circle_Dots_4.jpg,left,1139.4499999878462,true,low,NA,NA,NA,NA,NA,NA,NA,false
uxxwbs2E,372ages0j7iqu68t52ou18jnn9hxrx,3m0bcwmb8z9qcjk8q2bkouw3ihsbws,uxxwbs2E,2020-0188,2020-05-21,12:27:37,12:50:39,NA,incomplete,100,number,1,left,Purple_Star_Grid_1.jpg,Blue_Circle_Dots_1.jpg,Red_Plus_Grid_3.jpg,left,617.7049999823794,true,low,NA,NA,NA,NA,NA,NA,NA,false
uxxwbs2E,372ages0j7iqu68t52ou18jnn9hxrx,3m0bcwmb8z9qcjk8q2bkouw3ihsbws,uxxwbs2E,2020-0188,2020-05-21,12:27:37,12:50:39,NA,incomplete,101,number,1,right,Purple_Star_Grid_3.jpg,Blue_Plus_Grid_2.jpg,Green_Circle_Chess_3.jpg,right,817.3299999907613,true,low,NA,NA,NA,NA,NA,NA,NA,false
uxxwbs2E,372ages0j7iqu68t52ou18jnn9hxrx,3m0bcwmb8z9qcjk8q2bkouw3ihsbws,uxxwbs2E,2020-0188,2020-05-21,12:27:37,12:50:39,NA,incomplete,102,number,1,left,Red_Triangle_Grid_3.jpg,Green_Plus_Dots_3.jpg,Purple_Circle_Grid_2.jpg,left,664.42499999539,true,low,NA,NA,NA,NA,NA,NA,NA,false
uxxwbs2E,372ages0j7iqu68t52ou18jnn9hxrx,3m0bcwmb8z9qcjk8q2bkouw3ihsbws,uxxwbs2E,2020-0188,2020-05-21,12:27:37,12:50:39,NA,incomplete,103,number,1,left,Green_Star_Stripes_2.jpg,Purple_Circle_Grid_2.jpg,Red_Plus_Stripes_1.jpg,left,760.1050000230316,true,low,NA,NA,NA,NA,NA,NA,NA,false
uxxwbs2E,372ages0j7iqu68t52ou18jnn9hxrx,3m0bcwmb8z9qcjk8q2bkouw3ihsbws,uxxwbs2E,2020-0188,2020-05-21,12:27:37,12:50:39,NA,incomplete,104,number,1,left,Red_Triangle_Grid_3.jpg,Blue_Star_Dots_3.jpg,Purple_Circle_Grid_1.jpg,left,646.4799999957904,true,low,NA,NA,NA,NA,NA,NA,NA,false
uxxwbs2E,372ages0j7iqu68t52ou18jnn9hxrx,3m0bcwmb8z9qcjk8q2bkouw3ihsbws,uxxwbs2E,2020-0188,2020-05-21,12:27:37,12:50:39,NA,incomplete,105,number,1,right,Red_Star_Chess_3.jpg,Purple_Triangle_Chess_4.jpg,Green_Circle_Dots_3.jpg,left,637.6150000141934,false,low,NA,NA,NA,NA,NA,NA,NA,false
uxxwbs2E,372ages0j7iqu68t52ou18jnn9hxrx,3m0bcwmb8z9qcjk8q2bkouw3ihsbws,uxxwbs2E,2020-0188,2020-05-21,12:27:37,12:50:39,NA,incomplete,106,number,1,right,Purple_Plus_Grid_1.jpg,Red_Star_Grid_2.jpg,Green_Circle_Stripes_1.jpg,right,743.1499999947846,true,low,NA,NA,NA,NA,NA,NA,NA,false
uxxwbs2E,372ages0j7iqu68t52ou18jnn9hxrx,3m0bcwmb8z9qcjk8q2bkouw3ihsbws,uxxwbs2E,2020-0188,2020-05-21,12:27:37,12:50:39,NA,incomplete,107,number,1,right,Red_Plus_Chess_4.jpg,Green_Star_Chess_3.jpg,Purple_Circle_Grid_4.jpg,right,682.3100000037812,true,low,NA,NA,NA,NA,NA,NA,NA,false
uxxwbs2E,372ages0j7iqu68t52ou18jnn9hxrx,3m0bcwmb8z9qcjk8q2bkouw3ihsbws,uxxwbs2E,2020-0188,2020-05-21,12:27:37,12:50:39,NA,incomplete,108,number,1,right,Green_Triangle_Dots_1.jpg,Red_Plus_Dots_3.jpg,Purple_Star_Stripes_1.jpg,right,806.3899999833666,true,low,NA,NA,NA,NA,NA,NA,NA,false
uxxwbs2E,372ages0j7iqu68t52ou18jnn9hxrx,3m0bcwmb8z9qcjk8q2bkouw3ihsbws,uxxwbs2E,2020-0188,2020-05-21,12:27:37,12:50:39,NA,incomplete,109,number,1,left,Purple_Plus_Stripes_2.jpg,Blue_Triangle_Grid_2.jpg,Green_Circle_Stripes_4.jpg,left,723.6899999843445,true,low,NA,NA,NA,NA,NA,NA,NA,false
uxxwbs2E,372ages0j7iqu68t52ou18jnn9hxrx,3m0bcwmb8z9qcjk8q2bkouw3ihsbws,uxxwbs2E,2020-0188,2020-05-21,12:27:37,12:50:39,NA,incomplete,110,number,0,left,Red_Plus_Grid_4.jpg,Purple_Circle_Dots_4.jpg,Green_Triangle_Grid_2.jpg,left,702.9649999749381,true,low,NA,NA,NA,NA,NA,NA,NA,false
uxxwbs2E,372ages0j7iqu68t52ou18jnn9hxrx,3m0bcwmb8z9qcjk8q2bkouw3ihsbws,uxxwbs2E,2020-0188,2020-05-21,12:27:37,12:50:39,NA,incomplete,111,number,1,left,Green_Triangle_Chess_3.jpg,Purple_Star_Dots_3.jpg,Red_Circle_Chess_4.jpg,left,1098.6800000246149,true,low,NA,NA,NA,NA,NA,NA,NA,false
uxxwbs2E,372ages0j7iqu68t52ou18jnn9hxrx,3m0bcwmb8z9qcjk8q2bkouw3ihsbws,uxxwbs2E,2020-0188,2020-05-21,12:27:37,12:50:39,NA,incomplete,112,number,0,right,Blue_Plus_Chess_1.jpg,Green_Circle_Chess_2.jpg,Purple_Triangle_Grid_1.jpg,right,684.7100000013597,true,low,NA,NA,NA,NA,NA,NA,NA,false
uxxwbs2E,372ages0j7iqu68t52ou18jnn9hxrx,3m0bcwmb8z9qcjk8q2bkouw3ihsbws,uxxwbs2E,2020-0188,2020-05-21,12:27:37,12:50:39,NA,incomplete,113,number,1,right,Red_Circle_Chess_4.jpg,Green_Star_Chess_2.jpg,Purple_Plus_Stripes_4.jpg,left,1280.4100000066683,false,low,NA,NA,NA,NA,NA,NA,NA,false
uxxwbs2E,372ages0j7iqu68t52ou18jnn9hxrx,3m0bcwmb8z9qcjk8q2bkouw3ihsbws,uxxwbs2E,2020-0188,2020-05-21,12:27:37,12:50:39,NA,incomplete,114,number,1,left,Red_Circle_Stripes_1.jpg,Blue_Triangle_Dots_1.jpg,Green_Plus_Stripes_3.jpg,right,1395.2200000057928,false,low,NA,NA,NA,NA,NA,NA,NA,false
uxxwbs2E,372ages0j7iqu68t52ou18jnn9hxrx,3m0bcwmb8z9qcjk8q2bkouw3ihsbws,uxxwbs2E,2020-0188,2020-05-21,12:27:37,12:50:39,NA,incomplete,115,number,1,left,Blue_Star_Chess_2.jpg,Red_Circle_Grid_2.jpg,Green_Plus_Chess_1.jpg,right,1770.6550000002608,false,low,NA,NA,NA,NA,NA,NA,NA,false
uxxwbs2E,372ages0j7iqu68t52ou18jnn9hxrx,3m0bcwmb8z9qcjk8q2bkouw3ihsbws,uxxwbs2E,2020-0188,2020-05-21,12:27:37,12:50:39,NA,incomplete,116,number,1,right,Purple_Plus_Dots_1.jpg,Red_Circle_Dots_3.jpg,Blue_Triangle_Stripes_1.jpg,right,1069.2300000227988,true,low,NA,NA,NA,NA,NA,NA,NA,false
uxxwbs2E,372ages0j7iqu68t52ou18jnn9hxrx,3m0bcwmb8z9qcjk8q2bkouw3ihsbws,uxxwbs2E,2020-0188,2020-05-21,12:27:37,12:50:39,NA,incomplete,117,number,1,right,Red_Plus_Grid_4.jpg,Blue_Circle_Grid_1.jpg,Green_Star_Stripes_4.jpg,right,721.5849999920465,true,low,NA,NA,NA,NA,NA,NA,NA,false
uxxwbs2E,372ages0j7iqu68t52ou18jnn9hxrx,3m0bcwmb8z9qcjk8q2bkouw3ihsbws,uxxwbs2E,2020-0188,2020-05-21,12:27:37,12:50:39,NA,incomplete,118,number,1,right,Blue_Star_Dots_2.jpg,Green_Circle_Dots_4.jpg,Red_Triangle_Stripes_2.jpg,right,1267.0149999903515,true,low,NA,NA,NA,NA,NA,NA,NA,false
uxxwbs2E,372ages0j7iqu68t52ou18jnn9hxrx,3m0bcwmb8z9qcjk8q2bkouw3ihsbws,uxxwbs2E,2020-0188,2020-05-21,12:27:37,12:50:39,NA,incomplete,119,number,0,left,Blue_Triangle_Grid_4.jpg,Green_Plus_Stripes_4.jpg,Red_Circle_Grid_2.jpg,left,696.2649999768473,true,low,NA,NA,NA,NA,NA,NA,NA,false
uxxwbs2E,372ages0j7iqu68t52ou18jnn9hxrx,3m0bcwmb8z9qcjk8q2bkouw3ihsbws,uxxwbs2E,2020-0188,2020-05-21,12:27:37,12:50:39,NA,incomplete,120,color,1,left,Green_Circle_Dots_2.jpg,Green_Triangle_Stripes_3.jpg,Red_Circle_Chess_1.jpg,NA,NA,NA,low,NA,NA,NA,NA,NA,NA,NA,false
uxxwbs2E,372ages0j7iqu68t52ou18jnn9hxrx,3m0bcwmb8z9qcjk8q2bkouw3ihsbws,uxxwbs2E,2020-0188,2020-05-21,12:27:37,12:50:39,NA,incomplete,121,color,0,right,Green_Star_Grid_3.jpg,Purple_Star_Stripes_4.jpg,Green_Circle_Chess_1.jpg,right,1032.3050000006333,true,low,NA,NA,NA,NA,NA,NA,NA,false
uxxwbs2E,372ages0j7iqu68t52ou18jnn9hxrx,3m0bcwmb8z9qcjk8q2bkouw3ihsbws,uxxwbs2E,2020-0188,2020-05-21,12:27:37,12:50:39,NA,incomplete,122,color,1,left,Red_Star_Stripes_1.jpg,Red_Plus_Chess_3.jpg,Green_Star_Dots_2.jpg,left,979.605000000447,true,low,NA,NA,NA,NA,NA,NA,NA,false
uxxwbs2E,372ages0j7iqu68t52ou18jnn9hxrx,3m0bcwmb8z9qcjk8q2bkouw3ihsbws,uxxwbs2E,2020-0188,2020-05-21,12:27:37,12:50:39,NA,incomplete,123,color,1,left,Green_Triangle_Stripes_4.jpg,Green_Circle_Chess_2.jpg,Blue_Triangle_Grid_3.jpg,left,1446.1500000033993,true,low,NA,NA,NA,NA,NA,NA,NA,false
uxxwbs2E,372ages0j7iqu68t52ou18jnn9hxrx,3m0bcwmb8z9qcjk8q2bkouw3ihsbws,uxxwbs2E,2020-0188,2020-05-21,12:27:37,12:50:39,NA,incomplete,124,color,0,right,Green_Circle_Dots_2.jpg,Blue_Circle_Grid_1.jpg,Green_Triangle_Chess_3.jpg,right,1438.880000001518,true,low,NA,NA,NA,NA,NA,NA,NA,false
uxxwbs2E,372ages0j7iqu68t52ou18jnn9hxrx,3m0bcwmb8z9qcjk8q2bkouw3ihsbws,uxxwbs2E,2020-0188,2020-05-21,12:27:37,12:50:39,NA,incomplete,125,color,1,right,Green_Star_Stripes_3.jpg,Red_Star_Dots_2.jpg,Green_Triangle_Grid_4.jpg,left,1288.910000002943,false,low,NA,NA,NA,NA,NA,NA,NA,false
uxxwbs2E,372ages0j7iqu68t52ou18jnn9hxrx,3m0bcwmb8z9qcjk8q2bkouw3ihsbws,uxxwbs2E,2020-0188,2020-05-21,12:27:37,12:50:39,NA,incomplete,126,color,1,left,Blue_Plus_Stripes_3.jpg,Blue_Triangle_Grid_1.jpg,Green_Plus_Dots_2.jpg,right,1170.285000000149,false,low,NA,NA,NA,NA,NA,NA,NA,false
uxxwbs2E,372ages0j7iqu68t52ou18jnn9hxrx,3m0bcwmb8z9qcjk8q2bkouw3ihsbws,uxxwbs2E,2020-0188,2020-05-21,12:27:37,12:50:39,NA,incomplete,127,color,1,right,Red_Plus_Grid_3.jpg,Purple_Plus_Dots_2.jpg,Red_Star_Chess_1.jpg,right,801.4750000147615,true,low,NA,NA,NA,NA,NA,NA,NA,false
uxxwbs2E,372ages0j7iqu68t52ou18jnn9hxrx,3m0bcwmb8z9qcjk8q2bkouw3ihsbws,uxxwbs2E,2020-0188,2020-05-21,12:27:37,12:50:39,NA,incomplete,128,color,1,left,Purple_Triangle_Dots_2.jpg,Purple_Plus_Grid_4.jpg,Red_Triangle_Chess_3.jpg,left,950.524999992922,true,low,NA,NA,NA,NA,NA,NA,NA,false
uxxwbs2E,372ages0j7iqu68t52ou18jnn9hxrx,3m0bcwmb8z9qcjk8q2bkouw3ihsbws,uxxwbs2E,2020-0188,2020-05-21,12:27:37,12:50:39,NA,incomplete,129,color,1,right,Blue_Star_Grid_4.jpg,Green_Star_Stripes_3.jpg,Blue_Plus_Dots_2.jpg,right,891.9400000013411,true,low,NA,NA,NA,NA,NA,NA,NA,false
uxxwbs2E,372ages0j7iqu68t52ou18jnn9hxrx,3m0bcwmb8z9qcjk8q2bkouw3ihsbws,uxxwbs2E,2020-0188,2020-05-21,12:27:37,12:50:39,NA,incomplete,130,color,1,left,Red_Star_Stripes_4.jpg,Red_Triangle_Chess_1.jpg,Purple_Star_Dots_3.jpg,left,583.2999999984168,true,low,NA,NA,NA,NA,NA,NA,NA,false
uxxwbs2E,372ages0j7iqu68t52ou18jnn9hxrx,3m0bcwmb8z9qcjk8q2bkouw3ihsbws,uxxwbs2E,2020-0188,2020-05-21,12:27:37,12:50:39,NA,incomplete,131,color,0,left,Green_Plus_Grid_1.jpg,Green_Triangle_Chess_4.jpg,Blue_Plus_Stripes_3.jpg,left,523.3250000164844,true,low,NA,NA,NA,NA,NA,NA,NA,false
uxxwbs2E,372ages0j7iqu68t52ou18jnn9hxrx,3m0bcwmb8z9qcjk8q2bkouw3ihsbws,uxxwbs2E,2020-0188,2020-05-21,12:27:37,12:50:39,NA,incomplete,132,color,1,left,Blue_Plus_Chess_1.jpg,Blue_Triangle_Dots_2.jpg,Purple_Plus_Grid_3.jpg,right,1042.5849999883212,false,low,NA,NA,NA,NA,NA,NA,NA,false
uxxwbs2E,372ages0j7iqu68t52ou18jnn9hxrx,3m0bcwmb8z9qcjk8q2bkouw3ihsbws,uxxwbs2E,2020-0188,2020-05-21,12:27:37,12:50:39,NA,incomplete,133,color,1,left,Purple_Circle_Dots_1.jpg,Purple_Triangle_Stripes_3.jpg,Red_Circle_Grid_4.jpg,right,963.980000000447,false,low,NA,NA,NA,NA,NA,NA,NA,false
uxxwbs2E,372ages0j7iqu68t52ou18jnn9hxrx,3m0bcwmb8z9qcjk8q2bkouw3ihsbws,uxxwbs2E,2020-0188,2020-05-21,12:27:37,12:50:39,NA,incomplete,134,color,0,right,Red_Triangle_Grid_4.jpg,Purple_Triangle_Dots_3.jpg,Red_Plus_Stripes_1.jpg,right,728.0200000095647,true,low,NA,NA,NA,NA,NA,NA,NA,false
uxxwbs2E,372ages0j7iqu68t52ou18jnn9hxrx,3m0bcwmb8z9qcjk8q2bkouw3ihsbws,uxxwbs2E,2020-0188,2020-05-21,12:27:37,12:50:39,NA,incomplete,135,color,1,right,Red_Triangle_Stripes_1.jpg,Blue_Triangle_Dots_3.jpg,Red_Plus_Chess_4.jpg,left,926.7450000043027,false,low,NA,NA,NA,NA,NA,NA,NA,false
uxxwbs2E,372ages0j7iqu68t52ou18jnn9hxrx,3m0bcwmb8z9qcjk8q2bkouw3ihsbws,uxxwbs2E,2020-0188,2020-05-21,12:27:37,12:50:39,NA,incomplete,136,color,1,left,Purple_Plus_Dots_1.jpg,Purple_Circle_Grid_3.jpg,Red_Plus_Stripes_2.jpg,left,1379.6699999948032,true,low,NA,NA,NA,NA,NA,NA,NA,false
uxxwbs2E,372ages0j7iqu68t52ou18jnn9hxrx,3m0bcwmb8z9qcjk8q2bkouw3ihsbws,uxxwbs2E,2020-0188,2020-05-21,12:27:37,12:50:39,NA,incomplete,137,color,1,right,Purple_Plus_Grid_2.jpg,Green_Plus_Chess_3.jpg,Purple_Star_Dots_1.jpg,right,973.4349999926053,true,low,NA,NA,NA,NA,NA,NA,NA,false
uxxwbs2E,372ages0j7iqu68t52ou18jnn9hxrx,3m0bcwmb8z9qcjk8q2bkouw3ihsbws,uxxwbs2E,2020-0188,2020-05-21,12:27:37,12:50:39,NA,incomplete,138,color,0,right,Red_Plus_Dots_4.jpg,Green_Plus_Stripes_3.jpg,Red_Star_Grid_1.jpg,none,0,false,low,NA,NA,NA,NA,NA,NA,NA,false
uxxwbs2E,372ages0j7iqu68t52ou18jnn9hxrx,3m0bcwmb8z9qcjk8q2bkouw3ihsbws,uxxwbs2E,2020-0188,2020-05-21,12:27:37,12:50:39,NA,incomplete,139,color,1,left,Green_Triangle_Dots_3.jpg,Green_Plus_Chess_4.jpg,Purple_Triangle_Stripes_1.jpg,right,919.0999999991618,false,low,NA,NA,NA,NA,NA,NA,NA,false
uxxwbs2E,372ages0j7iqu68t52ou18jnn9hxrx,3m0bcwmb8z9qcjk8q2bkouw3ihsbws,uxxwbs2E,2020-0188,2020-05-21,12:27:37,12:50:39,NA,incomplete,140,shape,1,right,Purple_Plus_Grid_1.jpg,Purple_Circle_Chess_4.jpg,Red_Plus_Stripes_2.jpg,left,730.9050000039861,false,low,NA,NA,NA,NA,NA,NA,NA,false
uxxwbs2E,372ages0j7iqu68t52ou18jnn9hxrx,3m0bcwmb8z9qcjk8q2bkouw3ihsbws,uxxwbs2E,2020-0188,2020-05-21,12:27:37,12:50:39,NA,incomplete,141,shape,1,right,Red_Triangle_Stripes_1.jpg,Red_Star_Dots_2.jpg,Purple_Triangle_Grid_4.jpg,right,1271.3150000199676,true,low,NA,NA,NA,NA,NA,NA,NA,false
uxxwbs2E,372ages0j7iqu68t52ou18jnn9hxrx,3m0bcwmb8z9qcjk8q2bkouw3ihsbws,uxxwbs2E,2020-0188,2020-05-21,12:27:37,12:50:39,NA,incomplete,142,shape,1,left,Green_Plus_Stripes_3.jpg,Purple_Plus_Grid_2.jpg,Green_Star_Dots_4.jpg,right,1506.1050000076648,false,low,NA,NA,NA,NA,NA,NA,NA,false
uxxwbs2E,372ages0j7iqu68t52ou18jnn9hxrx,3m0bcwmb8z9qcjk8q2bkouw3ihsbws,uxxwbs2E,2020-0188,2020-05-21,12:27:37,12:50:39,NA,incomplete,143,shape,1,right,Purple_Triangle_Stripes_2.jpg,Purple_Plus_Grid_4.jpg,Red_Triangle_Chess_3.jpg,right,973.7299999978859,true,low,NA,NA,NA,NA,NA,NA,NA,false
uxxwbs2E,372ages0j7iqu68t52ou18jnn9hxrx,3m0bcwmb8z9qcjk8q2bkouw3ihsbws,uxxwbs2E,2020-0188,2020-05-21,12:27:37,12:50:39,NA,incomplete,144,shape,0,left,Red_Circle_Stripes_3.jpg,Green_Circle_Chess_1.jpg,Red_Plus_Dots_4.jpg,left,963.6549999995623,true,low,NA,NA,NA,NA,NA,NA,NA,false
uxxwbs2E,372ages0j7iqu68t52ou18jnn9hxrx,3m0bcwmb8z9qcjk8q2bkouw3ihsbws,uxxwbs2E,2020-0188,2020-05-21,12:27:37,12:50:39,NA,incomplete,145,shape,1,right,Red_Triangle_Chess_3.jpg,Red_Circle_Grid_1.jpg,Blue_Triangle_Stripes_2.jpg,right,745.6800000218209,true,low,NA,NA,NA,NA,NA,NA,NA,false
uxxwbs2E,372ages0j7iqu68t52ou18jnn9hxrx,3m0bcwmb8z9qcjk8q2bkouw3ihsbws,uxxwbs2E,2020-0188,2020-05-21,12:27:37,12:50:39,NA,incomplete,146,shape,0,right,Green_Circle_Chess_4.jpg,Green_Star_Dots_3.jpg,Purple_Circle_Grid_2.jpg,right,788.4349999949336,true,low,NA,NA,NA,NA,NA,NA,NA,false
uxxwbs2E,372ages0j7iqu68t52ou18jnn9hxrx,3m0bcwmb8z9qcjk8q2bkouw3ihsbws,uxxwbs2E,2020-0188,2020-05-21,12:27:37,12:50:39,NA,incomplete,147,shape,1,right,Red_Triangle_Chess_4.jpg,Red_Plus_Grid_3.jpg,Blue_Triangle_Dots_2.jpg,right,874.9499999976251,true,low,NA,NA,NA,NA,NA,NA,NA,false
uxxwbs2E,372ages0j7iqu68t52ou18jnn9hxrx,3m0bcwmb8z9qcjk8q2bkouw3ihsbws,uxxwbs2E,2020-0188,2020-05-21,12:27:37,12:50:39,NA,incomplete,148,shape,1,left,Red_Star_Stripes_3.jpg,Green_Star_Dots_1.jpg,Red_Triangle_Grid_4.jpg,left,863.4299999976065,true,low,NA,NA,NA,NA,NA,NA,NA,false
uxxwbs2E,372ages0j7iqu68t52ou18jnn9hxrx,3m0bcwmb8z9qcjk8q2bkouw3ihsbws,uxxwbs2E,2020-0188,2020-05-21,12:27:37,12:50:39,NA,incomplete,149,shape,0,right,Green_Star_Chess_1.jpg,Green_Triangle_Grid_3.jpg,Blue_Star_Dots_2.jpg,right,1078.704999992624,true,low,NA,NA,NA,NA,NA,NA,NA,false
uxxwbs2E,372ages0j7iqu68t52ou18jnn9hxrx,3m0bcwmb8z9qcjk8q2bkouw3ihsbws,uxxwbs2E,2020-0188,2020-05-21,12:27:37,12:50:39,NA,incomplete,150,shape,1,right,Purple_Circle_Stripes_2.jpg,Purple_Star_Grid_3.jpg,Blue_Circle_Chess_4.jpg,right,679.9549999996088,true,low,NA,NA,NA,NA,NA,NA,NA,false
uxxwbs2E,372ages0j7iqu68t52ou18jnn9hxrx,3m0bcwmb8z9qcjk8q2bkouw3ihsbws,uxxwbs2E,2020-0188,2020-05-21,12:27:37,12:50:39,NA,incomplete,151,shape,1,right,Purple_Circle_Dots_4.jpg,Purple_Triangle_Grid_3.jpg,Green_Circle_Stripes_1.jpg,right,893.3850000030361,true,low,NA,NA,NA,NA,NA,NA,NA,false
uxxwbs2E,372ages0j7iqu68t52ou18jnn9hxrx,3m0bcwmb8z9qcjk8q2bkouw3ihsbws,uxxwbs2E,2020-0188,2020-05-21,12:27:37,12:50:39,NA,incomplete,152,shape,1,right,Green_Triangle_Dots_2.jpg,Green_Star_Stripes_4.jpg,Blue_Triangle_Chess_3.jpg,right,803.025000001071,true,low,NA,NA,NA,NA,NA,NA,NA,false
uxxwbs2E,372ages0j7iqu68t52ou18jnn9hxrx,3m0bcwmb8z9qcjk8q2bkouw3ihsbws,uxxwbs2E,2020-0188,2020-05-21,12:27:37,12:50:39,NA,incomplete,153,shape,1,left,Green_Circle_Stripes_1.jpg,Red_Circle_Grid_4.jpg,Green_Triangle_Dots_3.jpg,left,759.5199999923352,true,low,NA,NA,NA,NA,NA,NA,NA,false
uxxwbs2E,372ages0j7iqu68t52ou18jnn9hxrx,3m0bcwmb8z9qcjk8q2bkouw3ihsbws,uxxwbs2E,2020-0188,2020-05-21,12:27:37,12:50:39,NA,incomplete,154,shape,1,left,Green_Circle_Chess_4.jpg,Red_Circle_Stripes_3.jpg,Green_Star_Dots_2.jpg,left,750.434999994468,true,low,NA,NA,NA,NA,NA,NA,NA,false
uxxwbs2E,372ages0j7iqu68t52ou18jnn9hxrx,3m0bcwmb8z9qcjk8q2bkouw3ihsbws,uxxwbs2E,2020-0188,2020-05-21,12:27:37,12:50:39,NA,incomplete,155,shape,1,right,Blue_Triangle_Stripes_2.jpg,Blue_Circle_Chess_3.jpg,Purple_Triangle_Dots_4.jpg,right,1168.5550000111107,true,low,NA,NA,NA,NA,NA,NA,NA,false
uxxwbs2E,372ages0j7iqu68t52ou18jnn9hxrx,3m0bcwmb8z9qcjk8q2bkouw3ihsbws,uxxwbs2E,2020-0188,2020-05-21,12:27:37,12:50:39,NA,incomplete,156,shape,1,left,Blue_Star_Grid_2.jpg,Purple_Star_Chess_1.jpg,Blue_Circle_Stripes_3.jpg,left,814.4249999895692,true,low,NA,NA,NA,NA,NA,NA,NA,false
uxxwbs2E,372ages0j7iqu68t52ou18jnn9hxrx,3m0bcwmb8z9qcjk8q2bkouw3ihsbws,uxxwbs2E,2020-0188,2020-05-21,12:27:37,12:50:39,NA,incomplete,157,shape,0,left,Blue_Triangle_Chess_1.jpg,Purple_Triangle_Dots_2.jpg,Blue_Circle_Stripes_3.jpg,left,813.9800000062678,true,low,NA,NA,NA,NA,NA,NA,NA,false
uxxwbs2E,372ages0j7iqu68t52ou18jnn9hxrx,3m0bcwmb8z9qcjk8q2bkouw3ihsbws,uxxwbs2E,2020-0188,2020-05-21,12:27:37,12:50:39,NA,incomplete,158,shape,1,right,Blue_Star_Stripes_3.jpg,Blue_Plus_Chess_4.jpg,Green_Star_Dots_1.jpg,right,1145.569999993313,true,low,NA,NA,NA,NA,NA,NA,NA,false
uxxwbs2E,372ages0j7iqu68t52ou18jnn9hxrx,3m0bcwmb8z9qcjk8q2bkouw3ihsbws,uxxwbs2E,2020-0188,2020-05-21,12:27:37,12:50:39,NA,incomplete,159,shape,1,left,Green_Star_Grid_1.jpg,Purple_Star_Stripes_4.jpg,Green_Triangle_Dots_2.jpg,right,1520.7399999781046,false,low,NA,NA,NA,NA,NA,NA,NA,false
uxxwbs2E,372ages0j7iqu68t52ou18jnn9hxrx,3m0bcwmb8z9qcjk8q2bkouw3ihsbws,uxxwbs2E,2020-0188,2020-05-21,12:27:37,12:50:39,NA,incomplete,160,color,1,right,Purple_Circle_Chess_3.jpg,Green_Circle_Dots_2.jpg,Purple_Triangle_Grid_1.jpg,left,1595.8699999901,false,low,NA,NA,NA,NA,NA,NA,NA,false
uxxwbs2E,372ages0j7iqu68t52ou18jnn9hxrx,3m0bcwmb8z9qcjk8q2bkouw3ihsbws,uxxwbs2E,2020-0188,2020-05-21,12:27:37,12:50:39,NA,incomplete,161,color,0,right,Red_Star_Grid_4.jpg,Green_Star_Dots_3.jpg,Red_Circle_Stripes_2.jpg,left,818.8450000016019,false,low,NA,NA,NA,NA,NA,NA,NA,false
uxxwbs2E,372ages0j7iqu68t52ou18jnn9hxrx,3m0bcwmb8z9qcjk8q2bkouw3ihsbws,uxxwbs2E,2020-0188,2020-05-21,12:27:37,12:50:39,NA,incomplete,162,color,1,right,Green_Circle_Dots_4.jpg,Red_Circle_Stripes_1.jpg,Green_Star_Grid_2.jpg,right,916.2150000047404,true,low,NA,NA,NA,NA,NA,NA,NA,false
uxxwbs2E,372ages0j7iqu68t52ou18jnn9hxrx,3m0bcwmb8z9qcjk8q2bkouw3ihsbws,uxxwbs2E,2020-0188,2020-05-21,12:27:37,12:50:39,NA,incomplete,163,color,1,left,Red_Triangle_Dots_3.jpg,Red_Circle_Chess_4.jpg,Blue_Triangle_Grid_1.jpg,left,749.294999986887,true,low,NA,NA,NA,NA,NA,NA,NA,false
uxxwbs2E,372ages0j7iqu68t52ou18jnn9hxrx,3m0bcwmb8z9qcjk8q2bkouw3ihsbws,uxxwbs2E,2020-0188,2020-05-21,12:27:37,12:50:39,NA,incomplete,164,color,1,right,Red_Triangle_Dots_2.jpg,Blue_Triangle_Stripes_3.jpg,Red_Star_Chess_4.jpg,right,1177.319999987958,true,low,NA,NA,NA,NA,NA,NA,NA,false
uxxwbs2E,372ages0j7iqu68t52ou18jnn9hxrx,3m0bcwmb8z9qcjk8q2bkouw3ihsbws,uxxwbs2E,2020-0188,2020-05-21,12:27:37,12:50:39,NA,incomplete,165,color,1,left,Green_Circle_Grid_2.jpg,Green_Plus_Chess_1.jpg,Purple_Circle_Dots_3.jpg,right,817.5150000024587,false,low,NA,NA,NA,NA,NA,NA,NA,false
uxxwbs2E,372ages0j7iqu68t52ou18jnn9hxrx,3m0bcwmb8z9qcjk8q2bkouw3ihsbws,uxxwbs2E,2020-0188,2020-05-21,12:27:37,12:50:39,NA,incomplete,166,color,1,right,Purple_Triangle_Stripes_1.jpg,Red_Triangle_Grid_2.jpg,Purple_Star_Dots_4.jpg,left,828.0049999884795,false,low,NA,NA,NA,NA,NA,NA,NA,false
uxxwbs2E,372ages0j7iqu68t52ou18jnn9hxrx,3m0bcwmb8z9qcjk8q2bkouw3ihsbws,uxxwbs2E,2020-0188,2020-05-21,12:27:37,12:50:39,NA,incomplete,167,color,1,right,Red_Star_Chess_2.jpg,Purple_Star_Stripes_4.jpg,Red_Circle_Dots_3.jpg,right,758.4349999960978,true,low,NA,NA,NA,NA,NA,NA,NA,false
uxxwbs2E,372ages0j7iqu68t52ou18jnn9hxrx,3m0bcwmb8z9qcjk8q2bkouw3ihsbws,uxxwbs2E,2020-0188,2020-05-21,12:27:37,12:50:39,NA,incomplete,168,color,0,left,Green_Circle_Dots_2.jpg,Green_Plus_Stripes_3.jpg,Red_Circle_Grid_1.jpg,left,1132.7199999941513,true,low,NA,NA,NA,NA,NA,NA,NA,false
uxxwbs2E,372ages0j7iqu68t52ou18jnn9hxrx,3m0bcwmb8z9qcjk8q2bkouw3ihsbws,uxxwbs2E,2020-0188,2020-05-21,12:27:37,12:50:39,NA,incomplete,169,color,1,right,Red_Plus_Grid_4.jpg,Green_Plus_Chess_2.jpg,Red_Circle_Stripes_1.jpg,right,909.509999997681,true,low,NA,NA,NA,NA,NA,NA,NA,false
uxxwbs2E,372ages0j7iqu68t52ou18jnn9hxrx,3m0bcwmb8z9qcjk8q2bkouw3ihsbws,uxxwbs2E,2020-0188,2020-05-21,12:27:37,12:50:39,NA,incomplete,170,color,0,left,Red_Triangle_Stripes_4.jpg,Red_Plus_Grid_2.jpg,Green_Triangle_Dots_1.jpg,left,1055.2949999982957,true,low,NA,NA,NA,NA,NA,NA,NA,false
uxxwbs2E,372ages0j7iqu68t52ou18jnn9hxrx,3m0bcwmb8z9qcjk8q2bkouw3ihsbws,uxxwbs2E,2020-0188,2020-05-21,12:27:37,12:50:39,NA,incomplete,171,color,1,left,Purple_Plus_Chess_3.jpg,Purple_Circle_Stripes_1.jpg,Blue_Plus_Grid_4.jpg,left,1249.5300000009593,true,low,NA,NA,NA,NA,NA,NA,NA,false
uxxwbs2E,372ages0j7iqu68t52ou18jnn9hxrx,3m0bcwmb8z9qcjk8q2bkouw3ihsbws,uxxwbs2E,2020-0188,2020-05-21,12:27:37,12:50:39,NA,incomplete,172,color,1,right,Purple_Triangle_Grid_3.jpg,Blue_Triangle_Stripes_2.jpg,Purple_Circle_Dots_1.jpg,right,764.4250000012107,true,low,NA,NA,NA,NA,NA,NA,NA,false
uxxwbs2E,372ages0j7iqu68t52ou18jnn9hxrx,3m0bcwmb8z9qcjk8q2bkouw3ihsbws,uxxwbs2E,2020-0188,2020-05-21,12:27:37,12:50:39,NA,incomplete,173,color,1,right,Red_Star_Stripes_1.jpg,Green_Star_Grid_2.jpg,Red_Circle_Dots_4.jpg,right,1047.7600000158418,true,low,NA,NA,NA,NA,NA,NA,NA,false
uxxwbs2E,372ages0j7iqu68t52ou18jnn9hxrx,3m0bcwmb8z9qcjk8q2bkouw3ihsbws,uxxwbs2E,2020-0188,2020-05-21,12:27:37,12:50:39,NA,incomplete,174,color,0,left,Blue_Triangle_Grid_3.jpg,Blue_Star_Dots_1.jpg,Red_Triangle_Stripes_4.jpg,left,720.8349999855272,true,low,NA,NA,NA,NA,NA,NA,NA,false
uxxwbs2E,372ages0j7iqu68t52ou18jnn9hxrx,3m0bcwmb8z9qcjk8q2bkouw3ihsbws,uxxwbs2E,2020-0188,2020-05-21,12:27:37,12:50:39,NA,incomplete,175,color,1,left,Red_Circle_Dots_4.jpg,Red_Star_Chess_2.jpg,Blue_Circle_Grid_3.jpg,left,910.6949999986682,true,low,NA,NA,NA,NA,NA,NA,NA,false
uxxwbs2E,372ages0j7iqu68t52ou18jnn9hxrx,3m0bcwmb8z9qcjk8q2bkouw3ihsbws,uxxwbs2E,2020-0188,2020-05-21,12:27:37,12:50:39,NA,incomplete,176,color,0,left,Purple_Plus_Grid_4.jpg,Purple_Star_Stripes_3.jpg,Red_Plus_Chess_1.jpg,left,697.1100000082515,true,low,NA,NA,NA,NA,NA,NA,NA,false
uxxwbs2E,372ages0j7iqu68t52ou18jnn9hxrx,3m0bcwmb8z9qcjk8q2bkouw3ihsbws,uxxwbs2E,2020-0188,2020-05-21,12:27:37,12:50:39,NA,incomplete,177,color,1,right,Green_Circle_Stripes_1.jpg,Blue_Circle_Dots_3.jpg,Green_Plus_Grid_4.jpg,right,1312.4949999910314,true,low,NA,NA,NA,NA,NA,NA,NA,false
uxxwbs2E,372ages0j7iqu68t52ou18jnn9hxrx,3m0bcwmb8z9qcjk8q2bkouw3ihsbws,uxxwbs2E,2020-0188,2020-05-21,12:27:37,12:50:39,NA,incomplete,178,color,1,left,Purple_Star_Grid_1.jpg,Purple_Triangle_Stripes_3.jpg,Green_Star_Chess_2.jpg,left,791.3150000094902,true,low,NA,NA,NA,NA,NA,NA,NA,false
uxxwbs2E,372ages0j7iqu68t52ou18jnn9hxrx,3m0bcwmb8z9qcjk8q2bkouw3ihsbws,uxxwbs2E,2020-0188,2020-05-21,12:27:37,12:50:39,NA,incomplete,179,color,1,right,Green_Plus_Dots_2.jpg,Purple_Plus_Stripes_3.jpg,Green_Star_Chess_4.jpg,right,791.8249999929685,true,low,NA,NA,NA,NA,NA,NA,NA,false
uxxwbs2E,372ages0j7iqu68t52ou18jnn9hxrx,3m0bcwmb8z9qcjk8q2bkouw3ihsbws,uxxwbs2E,2020-0188,2020-05-21,12:27:37,12:50:39,NA,incomplete,180,shape,0,left,Red_Triangle_Stripes_1.jpg,Purple_Triangle_Dots_4.jpg,Red_Plus_Grid_3.jpg,right,647.6299999922048,false,low,NA,NA,NA,NA,NA,NA,NA,false
uxxwbs2E,372ages0j7iqu68t52ou18jnn9hxrx,3m0bcwmb8z9qcjk8q2bkouw3ihsbws,uxxwbs2E,2020-0188,2020-05-21,12:27:37,12:50:39,NA,incomplete,181,shape,1,right,Purple_Plus_Chess_4.jpg,Purple_Triangle_Grid_3.jpg,Blue_Plus_Dots_1.jpg,left,707.2000000043772,false,low,NA,NA,NA,NA,NA,NA,NA,false
uxxwbs2E,372ages0j7iqu68t52ou18jnn9hxrx,3m0bcwmb8z9qcjk8q2bkouw3ihsbws,uxxwbs2E,2020-0188,2020-05-21,12:27:37,12:50:39,NA,incomplete,182,shape,1,right,Blue_Star_Stripes_3.jpg,Blue_Circle_Chess_4.jpg,Red_Star_Grid_2.jpg,left,1180.1749999867752,false,low,NA,NA,NA,NA,NA,NA,NA,false
uxxwbs2E,372ages0j7iqu68t52ou18jnn9hxrx,3m0bcwmb8z9qcjk8q2bkouw3ihsbws,uxxwbs2E,2020-0188,2020-05-21,12:27:37,12:50:39,NA,incomplete,183,shape,1,right,Red_Circle_Chess_1.jpg,Red_Star_Grid_4.jpg,Blue_Circle_Stripes_2.jpg,left,1407.8999999910593,false,low,NA,NA,NA,NA,NA,NA,NA,false
uxxwbs2E,372ages0j7iqu68t52ou18jnn9hxrx,3m0bcwmb8z9qcjk8q2bkouw3ihsbws,uxxwbs2E,2020-0188,2020-05-21,12:27:37,12:50:39,NA,incomplete,184,shape,0,left,Green_Circle_Dots_1.jpg,Blue_Circle_Chess_4.jpg,Green_Plus_Stripes_2.jpg,right,1161.4300000073854,false,low,NA,NA,NA,NA,NA,NA,NA,false
uxxwbs2E,372ages0j7iqu68t52ou18jnn9hxrx,3m0bcwmb8z9qcjk8q2bkouw3ihsbws,uxxwbs2E,2020-0188,2020-05-21,12:27:37,12:50:39,NA,incomplete,185,shape,1,left,Blue_Plus_Grid_4.jpg,Purple_Plus_Stripes_1.jpg,Blue_Circle_Chess_2.jpg,right,1407.7999999863096,false,low,NA,NA,NA,NA,NA,NA,NA,false
uxxwbs2E,372ages0j7iqu68t52ou18jnn9hxrx,3m0bcwmb8z9qcjk8q2bkouw3ihsbws,uxxwbs2E,2020-0188,2020-05-21,12:27:37,12:50:39,NA,incomplete,186,shape,1,right,Red_Triangle_Grid_2.jpg,Red_Star_Chess_1.jpg,Blue_Triangle_Stripes_4.jpg,right,1023.8900000113063,true,low,NA,NA,NA,NA,NA,NA,NA,false
uxxwbs2E,372ages0j7iqu68t52ou18jnn9hxrx,3m0bcwmb8z9qcjk8q2bkouw3ihsbws,uxxwbs2E,2020-0188,2020-05-21,12:27:37,12:50:39,NA,incomplete,187,shape,1,right,Purple_Circle_Dots_1.jpg,Purple_Plus_Grid_3.jpg,Blue_Circle_Stripes_4.jpg,right,1374.8299999861047,true,low,NA,NA,NA,NA,NA,NA,NA,false
uxxwbs2E,372ages0j7iqu68t52ou18jnn9hxrx,3m0bcwmb8z9qcjk8q2bkouw3ihsbws,uxxwbs2E,2020-0188,2020-05-21,12:27:37,12:50:39,NA,incomplete,188,shape,1,right,Blue_Circle_Grid_2.jpg,Blue_Star_Dots_1.jpg,Purple_Circle_Chess_4.jpg,right,1490.1050000044052,true,low,NA,NA,NA,NA,NA,NA,NA,false
uxxwbs2E,372ages0j7iqu68t52ou18jnn9hxrx,3m0bcwmb8z9qcjk8q2bkouw3ihsbws,uxxwbs2E,2020-0188,2020-05-21,12:27:37,12:50:39,NA,incomplete,189,shape,1,right,Green_Triangle_Stripes_3.jpg,Green_Circle_Grid_4.jpg,Purple_Triangle_Dots_1.jpg,left,1190.7000000064727,false,low,NA,NA,NA,NA,NA,NA,NA,false
uxxwbs2E,372ages0j7iqu68t52ou18jnn9hxrx,3m0bcwmb8z9qcjk8q2bkouw3ihsbws,uxxwbs2E,2020-0188,2020-05-21,12:27:37,12:50:39,NA,incomplete,190,shape,1,right,Green_Triangle_Dots_2.jpg,Green_Plus_Chess_4.jpg,Red_Triangle_Stripes_1.jpg,right,1146.0199999855831,true,low,NA,NA,NA,NA,NA,NA,NA,false
uxxwbs2E,372ages0j7iqu68t52ou18jnn9hxrx,3m0bcwmb8z9qcjk8q2bkouw3ihsbws,uxxwbs2E,2020-0188,2020-05-21,12:27:37,12:50:39,NA,incomplete,191,shape,1,right,Red_Star_Chess_3.jpg,Red_Circle_Stripes_1.jpg,Green_Star_Grid_2.jpg,right,1281.634999992093,true,low,NA,NA,NA,NA,NA,NA,NA,false
uxxwbs2E,372ages0j7iqu68t52ou18jnn9hxrx,3m0bcwmb8z9qcjk8q2bkouw3ihsbws,uxxwbs2E,2020-0188,2020-05-21,12:27:37,12:50:39,NA,incomplete,192,shape,1,left,Blue_Triangle_Grid_1.jpg,Purple_Triangle_Stripes_3.jpg,Blue_Star_Chess_2.jpg,left,1290.5599999940023,true,low,NA,NA,NA,NA,NA,NA,NA,false
uxxwbs2E,372ages0j7iqu68t52ou18jnn9hxrx,3m0bcwmb8z9qcjk8q2bkouw3ihsbws,uxxwbs2E,2020-0188,2020-05-21,12:27:37,12:50:39,NA,incomplete,193,shape,1,right,Red_Circle_Chess_2.jpg,Red_Star_Stripes_4.jpg,Purple_Circle_Grid_3.jpg,right,1324.4450000056531,true,low,NA,NA,NA,NA,NA,NA,NA,false
uxxwbs2E,372ages0j7iqu68t52ou18jnn9hxrx,3m0bcwmb8z9qcjk8q2bkouw3ihsbws,uxxwbs2E,2020-0188,2020-05-21,12:27:37,12:50:39,NA,incomplete,194,shape,0,right,Green_Triangle_Chess_1.jpg,Green_Circle_Stripes_2.jpg,Blue_Triangle_Grid_4.jpg,right,877.409999986412,true,low,NA,NA,NA,NA,NA,NA,NA,false
uxxwbs2E,372ages0j7iqu68t52ou18jnn9hxrx,3m0bcwmb8z9qcjk8q2bkouw3ihsbws,uxxwbs2E,2020-0188,2020-05-21,12:27:37,12:50:39,NA,incomplete,195,shape,1,left,Green_Triangle_Chess_3.jpg,Red_Triangle_Grid_2.jpg,Green_Star_Dots_1.jpg,left,1615.6799999880604,true,low,NA,NA,NA,NA,NA,NA,NA,false
uxxwbs2E,372ages0j7iqu68t52ou18jnn9hxrx,3m0bcwmb8z9qcjk8q2bkouw3ihsbws,uxxwbs2E,2020-0188,2020-05-21,12:27:37,12:50:39,NA,incomplete,196,shape,1,right,Blue_Star_Dots_2.jpg,Blue_Plus_Stripes_1.jpg,Red_Star_Chess_3.jpg,right,891.475000011269,true,low,NA,NA,NA,NA,NA,NA,NA,false
uxxwbs2E,372ages0j7iqu68t52ou18jnn9hxrx,3m0bcwmb8z9qcjk8q2bkouw3ihsbws,uxxwbs2E,2020-0188,2020-05-21,12:27:37,12:50:39,NA,incomplete,197,shape,0,right,Purple_Circle_Stripes_4.jpg,Purple_Plus_Dots_1.jpg,Green_Circle_Grid_2.jpg,right,1464.9849999987055,true,low,NA,NA,NA,NA,NA,NA,NA,false
uxxwbs2E,372ages0j7iqu68t52ou18jnn9hxrx,3m0bcwmb8z9qcjk8q2bkouw3ihsbws,uxxwbs2E,2020-0188,2020-05-21,12:27:37,12:50:39,NA,incomplete,198,shape,1,right,Red_Star_Chess_3.jpg,Red_Circle_Dots_2.jpg,Blue_Star_Grid_1.jpg,right,1255.265000014333,true,low,NA,NA,NA,NA,NA,NA,NA,false
uxxwbs2E,372ages0j7iqu68t52ou18jnn9hxrx,3m0bcwmb8z9qcjk8q2bkouw3ihsbws,uxxwbs2E,2020-0188,2020-05-21,12:27:37,12:50:39,NA,incomplete,199,shape,1,left,Red_Star_Chess_4.jpg,Purple_Star_Stripes_3.jpg,Red_Circle_Dots_1.jpg,right,740.6950000149664,false,low,NA,NA,NA,NA,NA,NA,NA,false
uxxwbs2E,372ages0j7iqu68t52ou18jnn9hxrx,3m0bcwmb8z9qcjk8q2bkouw3ihsbws,uxxwbs2E,2020-0188,2020-05-21,12:27:37,12:50:39,NA,incomplete,200,color,1,left,Red_Triangle_Chess_3.jpg,Red_Circle_Grid_1.jpg,Purple_Triangle_Stripes_4.jpg,right,1631.7749999871012,false,low,NA,NA,NA,NA,NA,NA,NA,false
uxxwbs2E,372ages0j7iqu68t52ou18jnn9hxrx,3m0bcwmb8z9qcjk8q2bkouw3ihsbws,uxxwbs2E,2020-0188,2020-05-21,12:27:37,12:50:39,NA,incomplete,201,color,1,right,Blue_Plus_Grid_3.jpg,Purple_Plus_Dots_1.jpg,Blue_Triangle_Stripes_4.jpg,left,1034.5300000044517,false,low,NA,NA,NA,NA,NA,NA,NA,false
uxxwbs2E,372ages0j7iqu68t52ou18jnn9hxrx,3m0bcwmb8z9qcjk8q2bkouw3ihsbws,uxxwbs2E,2020-0188,2020-05-21,12:27:37,12:50:39,NA,incomplete,202,color,1,right,Red_Plus_Chess_3.jpg,Green_Plus_Stripes_2.jpg,Red_Circle_Grid_4.jpg,left,896.1399999971036,false,low,NA,NA,NA,NA,NA,NA,NA,false
uxxwbs2E,372ages0j7iqu68t52ou18jnn9hxrx,3m0bcwmb8z9qcjk8q2bkouw3ihsbws,uxxwbs2E,2020-0188,2020-05-21,12:27:37,12:50:39,NA,incomplete,203,color,1,right,Green_Star_Chess_3.jpg,Red_Star_Dots_2.jpg,Green_Circle_Stripes_1.jpg,right,1128.8500000082422,true,low,NA,NA,NA,NA,NA,NA,NA,false
uxxwbs2E,372ages0j7iqu68t52ou18jnn9hxrx,3m0bcwmb8z9qcjk8q2bkouw3ihsbws,uxxwbs2E,2020-0188,2020-05-21,12:27:37,12:50:39,NA,incomplete,204,color,1,left,Blue_Plus_Stripes_1.jpg,Blue_Star_Chess_2.jpg,Purple_Plus_Grid_4.jpg,right,865.9449999977369,false,low,NA,NA,NA,NA,NA,NA,NA,false
uxxwbs2E,372ages0j7iqu68t52ou18jnn9hxrx,3m0bcwmb8z9qcjk8q2bkouw3ihsbws,uxxwbs2E,2020-0188,2020-05-21,12:27:37,12:50:39,NA,incomplete,205,color,1,left,Purple_Star_Dots_2.jpg,Purple_Plus_Chess_4.jpg,Red_Star_Grid_1.jpg,left,1171.4450000145007,true,low,NA,NA,NA,NA,NA,NA,NA,false
uxxwbs2E,372ages0j7iqu68t52ou18jnn9hxrx,3m0bcwmb8z9qcjk8q2bkouw3ihsbws,uxxwbs2E,2020-0188,2020-05-21,12:27:37,12:50:39,NA,incomplete,206,color,1,left,Red_Circle_Dots_2.jpg,Red_Plus_Grid_4.jpg,Green_Circle_Stripes_1.jpg,right,1092.6750000216998,false,low,NA,NA,NA,NA,NA,NA,NA,false
uxxwbs2E,372ages0j7iqu68t52ou18jnn9hxrx,3m0bcwmb8z9qcjk8q2bkouw3ihsbws,uxxwbs2E,2020-0188,2020-05-21,12:27:37,12:50:39,NA,incomplete,207,color,1,right,Red_Plus_Stripes_1.jpg,Green_Plus_Grid_4.jpg,Red_Triangle_Dots_3.jpg,right,1535.650000005262,true,low,NA,NA,NA,NA,NA,NA,NA,false
uxxwbs2E,372ages0j7iqu68t52ou18jnn9hxrx,3m0bcwmb8z9qcjk8q2bkouw3ihsbws,uxxwbs2E,2020-0188,2020-05-21,12:27:37,12:50:39,NA,incomplete,208,color,1,left,Green_Plus_Dots_3.jpg,Green_Star_Grid_4.jpg,Purple_Plus_Stripes_2.jpg,left,1004.2799999937415,true,low,NA,NA,NA,NA,NA,NA,NA,false
uxxwbs2E,372ages0j7iqu68t52ou18jnn9hxrx,3m0bcwmb8z9qcjk8q2bkouw3ihsbws,uxxwbs2E,2020-0188,2020-05-21,12:27:37,12:50:39,NA,incomplete,209,color,1,right,Blue_Plus_Stripes_2.jpg,Green_Plus_Dots_3.jpg,Blue_Star_Chess_1.jpg,right,1175.1900000090245,true,low,NA,NA,NA,NA,NA,NA,NA,false
uxxwbs2E,372ages0j7iqu68t52ou18jnn9hxrx,3m0bcwmb8z9qcjk8q2bkouw3ihsbws,uxxwbs2E,2020-0188,2020-05-21,12:27:37,12:50:39,NA,incomplete,210,color,1,left,Green_Plus_Stripes_2.jpg,Green_Triangle_Dots_4.jpg,Red_Plus_Grid_3.jpg,left,815.2399999962654,true,low,NA,NA,NA,NA,NA,NA,NA,false
uxxwbs2E,372ages0j7iqu68t52ou18jnn9hxrx,3m0bcwmb8z9qcjk8q2bkouw3ihsbws,uxxwbs2E,2020-0188,2020-05-21,12:27:37,12:50:39,NA,incomplete,211,color,1,right,Purple_Star_Chess_2.jpg,Red_Star_Grid_3.jpg,Purple_Triangle_Dots_1.jpg,right,1168.035000009695,true,low,NA,NA,NA,NA,NA,NA,NA,false
uxxwbs2E,372ages0j7iqu68t52ou18jnn9hxrx,3m0bcwmb8z9qcjk8q2bkouw3ihsbws,uxxwbs2E,2020-0188,2020-05-21,12:27:37,12:50:39,NA,incomplete,212,color,0,right,Blue_Plus_Chess_1.jpg,Red_Plus_Stripes_3.jpg,Blue_Circle_Grid_4.jpg,right,1090.9400000236928,true,low,NA,NA,NA,NA,NA,NA,NA,false
uxxwbs2E,372ages0j7iqu68t52ou18jnn9hxrx,3m0bcwmb8z9qcjk8q2bkouw3ihsbws,uxxwbs2E,2020-0188,2020-05-21,12:27:37,12:50:39,NA,incomplete,213,color,1,right,Green_Circle_Dots_2.jpg,Blue_Circle_Stripes_3.jpg,Green_Plus_Chess_1.jpg,right,1070.8900000026915,true,low,NA,NA,NA,NA,NA,NA,NA,false
uxxwbs2E,372ages0j7iqu68t52ou18jnn9hxrx,3m0bcwmb8z9qcjk8q2bkouw3ihsbws,uxxwbs2E,2020-0188,2020-05-21,12:27:37,12:50:39,NA,incomplete,214,color,0,right,Blue_Triangle_Dots_2.jpg,Red_Triangle_Chess_3.jpg,Blue_Star_Stripes_4.jpg,right,1012.8350000013597,true,low,NA,NA,NA,NA,NA,NA,NA,false
uxxwbs2E,372ages0j7iqu68t52ou18jnn9hxrx,3m0bcwmb8z9qcjk8q2bkouw3ihsbws,uxxwbs2E,2020-0188,2020-05-21,12:27:37,12:50:39,NA,incomplete,215,color,1,left,Red_Star_Dots_2.jpg,Red_Triangle_Grid_4.jpg,Purple_Star_Chess_3.jpg,left,809.6300000033807,true,low,NA,NA,NA,NA,NA,NA,NA,false
uxxwbs2E,372ages0j7iqu68t52ou18jnn9hxrx,3m0bcwmb8z9qcjk8q2bkouw3ihsbws,uxxwbs2E,2020-0188,2020-05-21,12:27:37,12:50:39,NA,incomplete,216,color,1,right,Green_Circle_Dots_3.jpg,Red_Circle_Chess_1.jpg,Green_Star_Stripes_2.jpg,right,917.0549999980722,true,low,NA,NA,NA,NA,NA,NA,NA,false
uxxwbs2E,372ages0j7iqu68t52ou18jnn9hxrx,3m0bcwmb8z9qcjk8q2bkouw3ihsbws,uxxwbs2E,2020-0188,2020-05-21,12:27:37,12:50:39,NA,incomplete,217,color,0,left,Green_Plus_Chess_1.jpg,Green_Star_Dots_2.jpg,Red_Plus_Stripes_4.jpg,left,1138.890000001993,true,low,NA,NA,NA,NA,NA,NA,NA,false
uxxwbs2E,372ages0j7iqu68t52ou18jnn9hxrx,3m0bcwmb8z9qcjk8q2bkouw3ihsbws,uxxwbs2E,2020-0188,2020-05-21,12:27:37,12:50:39,NA,incomplete,218,color,1,right,Green_Triangle_Dots_2.jpg,Purple_Triangle_Chess_3.jpg,Green_Star_Stripes_4.jpg,right,651.9499999994878,true,low,NA,NA,NA,NA,NA,NA,NA,false
uxxwbs2E,372ages0j7iqu68t52ou18jnn9hxrx,3m0bcwmb8z9qcjk8q2bkouw3ihsbws,uxxwbs2E,2020-0188,2020-05-21,12:27:37,12:50:39,NA,incomplete,219,color,1,left,Green_Plus_Stripes_4.jpg,Green_Circle_Dots_3.jpg,Purple_Plus_Chess_1.jpg,left,1287.530000001425,true,low,NA,NA,NA,NA,NA,NA,NA,false
uxxwbs2E,372ages0j7iqu68t52ou18jnn9hxrx,3m0bcwmb8z9qcjk8q2bkouw3ihsbws,uxxwbs2E,2020-0188,2020-05-21,12:27:37,12:50:39,NA,incomplete,220,shape,1,left,Purple_Triangle_Chess_2.jpg,Blue_Triangle_Stripes_1.jpg,Purple_Star_Grid_3.jpg,right,717.335000023013,false,low,NA,NA,NA,NA,NA,NA,NA,false
uxxwbs2E,372ages0j7iqu68t52ou18jnn9hxrx,3m0bcwmb8z9qcjk8q2bkouw3ihsbws,uxxwbs2E,2020-0188,2020-05-21,12:27:37,12:50:39,NA,incomplete,221,shape,1,left,Purple_Plus_Stripes_4.jpg,Red_Plus_Dots_2.jpg,Purple_Circle_Grid_3.jpg,right,972.715000010794,false,low,NA,NA,NA,NA,NA,NA,NA,false
uxxwbs2E,372ages0j7iqu68t52ou18jnn9hxrx,3m0bcwmb8z9qcjk8q2bkouw3ihsbws,uxxwbs2E,2020-0188,2020-05-21,12:27:37,12:50:39,NA,incomplete,222,shape,1,right,Blue_Star_Stripes_3.jpg,Blue_Circle_Grid_4.jpg,Red_Star_Chess_1.jpg,left,1084.3449999811128,false,low,NA,NA,NA,NA,NA,NA,NA,false
uxxwbs2E,372ages0j7iqu68t52ou18jnn9hxrx,3m0bcwmb8z9qcjk8q2bkouw3ihsbws,uxxwbs2E,2020-0188,2020-05-21,12:27:37,12:50:39,NA,incomplete,223,shape,0,left,Green_Plus_Dots_1.jpg,Purple_Plus_Stripes_4.jpg,Green_Circle_Chess_3.jpg,left,1694.5050000213087,true,low,NA,NA,NA,NA,NA,NA,NA,false
uxxwbs2E,372ages0j7iqu68t52ou18jnn9hxrx,3m0bcwmb8z9qcjk8q2bkouw3ihsbws,uxxwbs2E,2020-0188,2020-05-21,12:27:37,12:50:39,NA,incomplete,224,shape,1,right,Red_Plus_Stripes_4.jpg,Red_Star_Grid_2.jpg,Green_Plus_Dots_1.jpg,right,690.439999976661,true,low,NA,NA,NA,NA,NA,NA,NA,false
uxxwbs2E,372ages0j7iqu68t52ou18jnn9hxrx,3m0bcwmb8z9qcjk8q2bkouw3ihsbws,uxxwbs2E,2020-0188,2020-05-21,12:27:37,12:50:39,NA,incomplete,225,shape,0,right,Green_Triangle_Chess_4.jpg,Green_Star_Stripes_3.jpg,Blue_Triangle_Dots_2.jpg,right,1682.8500000119675,true,low,NA,NA,NA,NA,NA,NA,NA,false
uxxwbs2E,372ages0j7iqu68t52ou18jnn9hxrx,3m0bcwmb8z9qcjk8q2bkouw3ihsbws,uxxwbs2E,2020-0188,2020-05-21,12:27:37,12:50:39,NA,incomplete,226,shape,1,left,Blue_Circle_Grid_3.jpg,Red_Circle_Stripes_2.jpg,Blue_Plus_Dots_4.jpg,left,786.4800000097603,true,low,NA,NA,NA,NA,NA,NA,NA,false
uxxwbs2E,372ages0j7iqu68t52ou18jnn9hxrx,3m0bcwmb8z9qcjk8q2bkouw3ihsbws,uxxwbs2E,2020-0188,2020-05-21,12:27:37,12:50:39,NA,incomplete,227,shape,1,left,Green_Triangle_Dots_1.jpg,Purple_Triangle_Stripes_2.jpg,Green_Star_Chess_3.jpg,left,1374.9799999932293,true,low,NA,NA,NA,NA,NA,NA,NA,false
uxxwbs2E,372ages0j7iqu68t52ou18jnn9hxrx,3m0bcwmb8z9qcjk8q2bkouw3ihsbws,uxxwbs2E,2020-0188,2020-05-21,12:27:37,12:50:39,NA,incomplete,228,shape,0,right,Blue_Circle_Stripes_4.jpg,Blue_Star_Dots_3.jpg,Red_Circle_Chess_1.jpg,right,648.9700000092853,true,low,NA,NA,NA,NA,NA,NA,NA,false
uxxwbs2E,372ages0j7iqu68t52ou18jnn9hxrx,3m0bcwmb8z9qcjk8q2bkouw3ihsbws,uxxwbs2E,2020-0188,2020-05-21,12:27:37,12:50:39,NA,incomplete,229,shape,1,left,Green_Star_Chess_4.jpg,Purple_Star_Grid_2.jpg,Green_Plus_Dots_3.jpg,left,993.014999985462,true,low,NA,NA,NA,NA,NA,NA,NA,false
uxxwbs2E,372ages0j7iqu68t52ou18jnn9hxrx,3m0bcwmb8z9qcjk8q2bkouw3ihsbws,uxxwbs2E,2020-0188,2020-05-21,12:27:37,12:50:39,NA,incomplete,230,shape,1,right,Blue_Plus_Chess_2.jpg,Blue_Triangle_Grid_4.jpg,Green_Plus_Dots_1.jpg,right,829.939999995986,true,low,NA,NA,NA,NA,NA,NA,NA,false
uxxwbs2E,372ages0j7iqu68t52ou18jnn9hxrx,3m0bcwmb8z9qcjk8q2bkouw3ihsbws,uxxwbs2E,2020-0188,2020-05-21,12:27:37,12:50:39,NA,incomplete,231,shape,1,right,Red_Circle_Stripes_2.jpg,Red_Plus_Chess_4.jpg,Blue_Circle_Dots_1.jpg,right,1088.8149999955203,true,low,NA,NA,NA,NA,NA,NA,NA,false
uxxwbs2E,372ages0j7iqu68t52ou18jnn9hxrx,3m0bcwmb8z9qcjk8q2bkouw3ihsbws,uxxwbs2E,2020-0188,2020-05-21,12:27:37,12:50:39,NA,incomplete,232,shape,1,right,Blue_Plus_Chess_4.jpg,Blue_Circle_Grid_1.jpg,Purple_Plus_Dots_2.jpg,right,1157.2750000050291,true,low,NA,NA,NA,NA,NA,NA,NA,false
uxxwbs2E,372ages0j7iqu68t52ou18jnn9hxrx,3m0bcwmb8z9qcjk8q2bkouw3ihsbws,uxxwbs2E,2020-0188,2020-05-21,12:27:37,12:50:39,NA,incomplete,233,shape,1,left,Red_Triangle_Stripes_1.jpg,Purple_Triangle_Dots_2.jpg,Red_Plus_Grid_4.jpg,left,1060.700000001816,true,low,NA,NA,NA,NA,NA,NA,NA,false
uxxwbs2E,372ages0j7iqu68t52ou18jnn9hxrx,3m0bcwmb8z9qcjk8q2bkouw3ihsbws,uxxwbs2E,2020-0188,2020-05-21,12:27:37,12:50:39,NA,incomplete,234,shape,1,left,Green_Star_Dots_2.jpg,Purple_Star_Stripes_1.jpg,Green_Circle_Chess_3.jpg,left,1417.8749999846332,true,low,NA,NA,NA,NA,NA,NA,NA,false
uxxwbs2E,372ages0j7iqu68t52ou18jnn9hxrx,3m0bcwmb8z9qcjk8q2bkouw3ihsbws,uxxwbs2E,2020-0188,2020-05-21,12:27:37,12:50:39,NA,incomplete,235,shape,1,left,Red_Circle_Chess_3.jpg,Green_Circle_Dots_2.jpg,Red_Plus_Stripes_1.jpg,none,0,false,low,NA,NA,NA,NA,NA,NA,NA,false
uxxwbs2E,372ages0j7iqu68t52ou18jnn9hxrx,3m0bcwmb8z9qcjk8q2bkouw3ihsbws,uxxwbs2E,2020-0188,2020-05-21,12:27:37,12:50:39,NA,incomplete,236,shape,1,right,Green_Plus_Dots_4.jpg,Green_Star_Chess_2.jpg,Blue_Plus_Stripes_1.jpg,right,704.4999999925494,true,low,NA,NA,NA,NA,NA,NA,NA,false
uxxwbs2E,372ages0j7iqu68t52ou18jnn9hxrx,3m0bcwmb8z9qcjk8q2bkouw3ihsbws,uxxwbs2E,2020-0188,2020-05-21,12:27:37,12:50:39,NA,incomplete,237,shape,1,right,Blue_Triangle_Grid_3.jpg,Blue_Circle_Stripes_4.jpg,Red_Triangle_Chess_1.jpg,left,1240.3599999961443,false,low,NA,NA,NA,NA,NA,NA,NA,false
uxxwbs2E,372ages0j7iqu68t52ou18jnn9hxrx,3m0bcwmb8z9qcjk8q2bkouw3ihsbws,uxxwbs2E,2020-0188,2020-05-21,12:27:37,12:50:39,NA,incomplete,238,shape,1,right,Blue_Triangle_Grid_1.jpg,Blue_Star_Dots_3.jpg,Green_Triangle_Chess_4.jpg,right,1031.105000001844,true,low,NA,NA,NA,NA,NA,NA,NA,false
uxxwbs2E,372ages0j7iqu68t52ou18jnn9hxrx,3m0bcwmb8z9qcjk8q2bkouw3ihsbws,uxxwbs2E,2020-0188,2020-05-21,12:27:37,12:50:39,NA,incomplete,239,shape,1,left,Purple_Circle_Chess_3.jpg,Blue_Circle_Stripes_4.jpg,Purple_Plus_Dots_2.jpg,left,735.7500000216532,true,low,NA,NA,NA,NA,NA,NA,NA,false
uxxwbs2E,372ages0j7iqu68t52ou18jnn9hxrx,3m0bcwmb8z9qcjk8q2bkouw3ihsbws,uxxwbs2E,2020-0188,2020-05-21,12:27:37,12:50:39,NA,NA,instruction example,filling,NA,NA,Green_Plus_Stripes_4.jpg,Red_Star_Stripes_1.jpg,Purple_Triangle_Chess_4.jpg,NA,NA,NA,NA,NA,NA,NA,NA,NA,NA,NA,undefined
uxxwbs2E,372ages0j7iqu68t52ou18jnn9hxrx,3m0bcwmb8z9qcjk8q2bkouw3ihsbws,uxxwbs2E,2020-0188,2020-05-21,12:27:37,12:50:39,NA,NA,instruction example,filling,NA,NA,Red_Star_Chess_1.jpg,Blue_Triangle_Stripes_1.jpg,Green_Circle_Chess_2.jpg,NA,NA,NA,NA,NA,NA,NA,NA,NA,NA,NA,undefined
uxxwbs2E,372ages0j7iqu68t52ou18jnn9hxrx,3m0bcwmb8z9qcjk8q2bkouw3ihsbws,uxxwbs2E,2020-0188,2020-05-21,12:27:37,12:50:39,NA,NA,instruction example,filling,NA,NA,Blue_Triangle_Stripes_3.jpg,Blue_Plus_Chess_1.jpg,Purple_Triangle_Dots_4.jpg,NA,NA,NA,NA,NA,NA,NA,NA,NA,NA,NA,undefined
uxxwbs2E,372ages0j7iqu68t52ou18jnn9hxrx,3m0bcwmb8z9qcjk8q2bkouw3ihsbws,uxxwbs2E,2020-0188,2020-05-21,12:27:37,12:50:39,NA,NA,instruction example,filling,NA,NA,Green_Circle_Dots_1.jpg,Red_Circle_Stripes_3.jpg,Green_Triangle_Chess_4.jpg,NA,NA,NA,NA,NA,NA,NA,NA,NA,NA,NA,undefined
uxxwbs2E,372ages0j7iqu68t52ou18jnn9hxrx,3m0bcwmb8z9qcjk8q2bkouw3ihsbws,uxxwbs2E,2020-0188,2020-05-21,12:27:37,12:50:39,1366406.6049999965,1383256.3000000082,NA,NA,NA,NA,NA,NA,NA,NA,NA,NA,NA,36,White/Caucasian,Male,white,no,no,no,undefined
