workerId,hitId,assignmentId,subject,studyid,exp_date,exp_start,exp_end,time_start,time_end,trial,type,reward_validity,answer,image_top,image_left,image_right,response,response_time,response_acc,volatility,age,race,gender,ethnicity,color,vision,neuro,practice
6A94hcRV,3ac6mfv6anv2a7u5af0lkpxs80hhzh,3m1cvsfp64ig9cju8fci1uubcy0aq2,6A94hcRV,2020-0188,2020-05-21,13:08:35,13:30:35,NA,incomplete,0,filling,1,left,Green_Star_Dots_4.jpg,Red_Circle_Dots_2.jpg,Purple_Plus_Stripes_4.jpg,none,0,false,NA,NA,NA,NA,NA,NA,NA,NA,true
6A94hcRV,3ac6mfv6anv2a7u5af0lkpxs80hhzh,3m1cvsfp64ig9cju8fci1uubcy0aq2,6A94hcRV,2020-0188,2020-05-21,13:08:35,13:30:35,NA,incomplete,1,filling,1,right,Blue_Plus_Chess_1.jpg,Purple_Circle_Stripes_1.jpg,Green_Triangle_Chess_2.jpg,right,1084.8600000026636,true,NA,NA,NA,NA,NA,NA,NA,NA,true
6A94hcRV,3ac6mfv6anv2a7u5af0lkpxs80hhzh,3m1cvsfp64ig9cju8fci1uubcy0aq2,6A94hcRV,2020-0188,2020-05-21,13:08:35,13:30:35,NA,incomplete,2,filling,1,left,Red_Triangle_Stripes_3.jpg,Green_Plus_Stripes_2.jpg,Purple_Star_Dots_3.jpg,left,1174.2749999975786,true,NA,NA,NA,NA,NA,NA,NA,NA,true
6A94hcRV,3ac6mfv6anv2a7u5af0lkpxs80hhzh,3m1cvsfp64ig9cju8fci1uubcy0aq2,6A94hcRV,2020-0188,2020-05-21,13:08:35,13:30:35,NA,incomplete,3,filling,1,right,Purple_Circle_Stripes_3.jpg,Red_Star_Chess_3.jpg,Blue_Triangle_Stripes_4.jpg,right,930.3799999979092,true,NA,NA,NA,NA,NA,NA,NA,NA,true
6A94hcRV,3ac6mfv6anv2a7u5af0lkpxs80hhzh,3m1cvsfp64ig9cju8fci1uubcy0aq2,6A94hcRV,2020-0188,2020-05-21,13:08:35,13:30:35,NA,incomplete,4,filling,0,left,Red_Star_Grid_2.jpg,Blue_Plus_Grid_1.jpg,Green_Circle_Dots_2.jpg,left,811.2699999982724,true,NA,NA,NA,NA,NA,NA,NA,NA,true
6A94hcRV,3ac6mfv6anv2a7u5af0lkpxs80hhzh,3m1cvsfp64ig9cju8fci1uubcy0aq2,6A94hcRV,2020-0188,2020-05-21,13:08:35,13:30:35,NA,incomplete,5,filling,1,left,Blue_Star_Stripes_2.jpg,Green_Plus_Stripes_4.jpg,Red_Triangle_Dots_2.jpg,left,958.8100000037812,true,NA,NA,NA,NA,NA,NA,NA,NA,true
6A94hcRV,3ac6mfv6anv2a7u5af0lkpxs80hhzh,3m1cvsfp64ig9cju8fci1uubcy0aq2,6A94hcRV,2020-0188,2020-05-21,13:08:35,13:30:35,NA,incomplete,6,filling,0,right,Green_Circle_Chess_3.jpg,Purple_Plus_Grid_3.jpg,Red_Star_Chess_4.jpg,right,956.5949999960139,true,NA,NA,NA,NA,NA,NA,NA,NA,true
6A94hcRV,3ac6mfv6anv2a7u5af0lkpxs80hhzh,3m1cvsfp64ig9cju8fci1uubcy0aq2,6A94hcRV,2020-0188,2020-05-21,13:08:35,13:30:35,NA,incomplete,7,filling,1,left,Green_Star_Stripes_1.jpg,Blue_Circle_Stripes_4.jpg,Red_Triangle_Chess_1.jpg,left,1419.9399999997113,true,NA,NA,NA,NA,NA,NA,NA,NA,true
6A94hcRV,3ac6mfv6anv2a7u5af0lkpxs80hhzh,3m1cvsfp64ig9cju8fci1uubcy0aq2,6A94hcRV,2020-0188,2020-05-21,13:08:35,13:30:35,NA,incomplete,8,filling,1,right,Blue_Star_Chess_1.jpg,Purple_Circle_Dots_1.jpg,Red_Plus_Chess_3.jpg,right,988.0300000004936,true,NA,NA,NA,NA,NA,NA,NA,NA,true
6A94hcRV,3ac6mfv6anv2a7u5af0lkpxs80hhzh,3m1cvsfp64ig9cju8fci1uubcy0aq2,6A94hcRV,2020-0188,2020-05-21,13:08:35,13:30:35,NA,incomplete,9,filling,1,left,Green_Plus_Stripes_2.jpg,Blue_Circle_Stripes_4.jpg,Purple_Triangle_Dots_2.jpg,left,1042.7800000035204,true,NA,NA,NA,NA,NA,NA,NA,NA,true
6A94hcRV,3ac6mfv6anv2a7u5af0lkpxs80hhzh,3m1cvsfp64ig9cju8fci1uubcy0aq2,6A94hcRV,2020-0188,2020-05-21,13:08:35,13:30:35,NA,incomplete,10,filling,1,right,Blue_Plus_Grid_2.jpg,Purple_Circle_Dots_2.jpg,Green_Star_Grid_3.jpg,right,1149.64000000339,true,NA,NA,NA,NA,NA,NA,NA,NA,true
6A94hcRV,3ac6mfv6anv2a7u5af0lkpxs80hhzh,3m1cvsfp64ig9cju8fci1uubcy0aq2,6A94hcRV,2020-0188,2020-05-21,13:08:35,13:30:35,NA,incomplete,11,filling,0,right,Blue_Circle_Stripes_4.jpg,Purple_Star_Dots_4.jpg,Green_Plus_Stripes_2.jpg,right,1015.2000000015832,true,NA,NA,NA,NA,NA,NA,NA,NA,true
6A94hcRV,3ac6mfv6anv2a7u5af0lkpxs80hhzh,3m1cvsfp64ig9cju8fci1uubcy0aq2,6A94hcRV,2020-0188,2020-05-21,13:08:35,13:30:35,NA,incomplete,12,filling,0,right,Green_Plus_Chess_3.jpg,Blue_Circle_Stripes_3.jpg,Red_Star_Chess_2.jpg,right,1192.3400000014808,true,NA,NA,NA,NA,NA,NA,NA,NA,true
6A94hcRV,3ac6mfv6anv2a7u5af0lkpxs80hhzh,3m1cvsfp64ig9cju8fci1uubcy0aq2,6A94hcRV,2020-0188,2020-05-21,13:08:35,13:30:35,NA,incomplete,13,filling,1,left,Green_Circle_Dots_3.jpg,Blue_Triangle_Dots_2.jpg,Purple_Plus_Grid_3.jpg,left,1092.5300000017742,true,NA,NA,NA,NA,NA,NA,NA,NA,true
6A94hcRV,3ac6mfv6anv2a7u5af0lkpxs80hhzh,3m1cvsfp64ig9cju8fci1uubcy0aq2,6A94hcRV,2020-0188,2020-05-21,13:08:35,13:30:35,NA,incomplete,14,filling,0,left,Blue_Plus_Chess_1.jpg,Red_Circle_Chess_3.jpg,Purple_Star_Stripes_1.jpg,left,1237.5000000029104,true,NA,NA,NA,NA,NA,NA,NA,NA,true
6A94hcRV,3ac6mfv6anv2a7u5af0lkpxs80hhzh,3m1cvsfp64ig9cju8fci1uubcy0aq2,6A94hcRV,2020-0188,2020-05-21,13:08:35,13:30:35,NA,incomplete,15,filling,1,right,Green_Star_Chess_2.jpg,Blue_Triangle_Dots_2.jpg,Red_Circle_Chess_3.jpg,right,1059.7699999999022,true,NA,NA,NA,NA,NA,NA,NA,NA,true
6A94hcRV,3ac6mfv6anv2a7u5af0lkpxs80hhzh,3m1cvsfp64ig9cju8fci1uubcy0aq2,6A94hcRV,2020-0188,2020-05-21,13:08:35,13:30:35,NA,incomplete,16,filling,1,right,Blue_Plus_Dots_4.jpg,Red_Triangle_Stripes_4.jpg,Purple_Circle_Dots_3.jpg,left,873.8500000035856,false,NA,NA,NA,NA,NA,NA,NA,NA,true
6A94hcRV,3ac6mfv6anv2a7u5af0lkpxs80hhzh,3m1cvsfp64ig9cju8fci1uubcy0aq2,6A94hcRV,2020-0188,2020-05-21,13:08:35,13:30:35,NA,incomplete,17,filling,1,right,Red_Star_Dots_2.jpg,Green_Triangle_Chess_2.jpg,Purple_Circle_Dots_3.jpg,right,1075.2350000038277,true,NA,NA,NA,NA,NA,NA,NA,NA,true
6A94hcRV,3ac6mfv6anv2a7u5af0lkpxs80hhzh,3m1cvsfp64ig9cju8fci1uubcy0aq2,6A94hcRV,2020-0188,2020-05-21,13:08:35,13:30:35,NA,incomplete,18,filling,1,right,Green_Plus_Dots_4.jpg,Purple_Circle_Grid_4.jpg,Blue_Star_Dots_3.jpg,right,1093.159999996773,true,NA,NA,NA,NA,NA,NA,NA,NA,true
6A94hcRV,3ac6mfv6anv2a7u5af0lkpxs80hhzh,3m1cvsfp64ig9cju8fci1uubcy0aq2,6A94hcRV,2020-0188,2020-05-21,13:08:35,13:30:35,NA,incomplete,19,filling,1,left,Green_Circle_Chess_3.jpg,Blue_Star_Chess_2.jpg,Red_Plus_Grid_3.jpg,left,1025.7549999951152,true,NA,NA,NA,NA,NA,NA,NA,NA,true
6A94hcRV,3ac6mfv6anv2a7u5af0lkpxs80hhzh,3m1cvsfp64ig9cju8fci1uubcy0aq2,6A94hcRV,2020-0188,2020-05-21,13:08:35,13:30:35,NA,incomplete,20,number,1,right,Blue_Star_Stripes_3.jpg,Purple_Plus_Stripes_2.jpg,Green_Triangle_Chess_3.jpg,right,1451.0200000003679,true,NA,NA,NA,NA,NA,NA,NA,NA,true
6A94hcRV,3ac6mfv6anv2a7u5af0lkpxs80hhzh,3m1cvsfp64ig9cju8fci1uubcy0aq2,6A94hcRV,2020-0188,2020-05-21,13:08:35,13:30:35,NA,incomplete,21,number,1,left,Blue_Plus_Grid_3.jpg,Red_Triangle_Chess_3.jpg,Green_Star_Grid_4.jpg,left,1273.7350000025472,true,NA,NA,NA,NA,NA,NA,NA,NA,true
6A94hcRV,3ac6mfv6anv2a7u5af0lkpxs80hhzh,3m1cvsfp64ig9cju8fci1uubcy0aq2,6A94hcRV,2020-0188,2020-05-21,13:08:35,13:30:35,NA,incomplete,22,number,1,right,Purple_Plus_Stripes_4.jpg,Blue_Star_Stripes_1.jpg,Green_Circle_Chess_4.jpg,right,1076.90499999444,true,NA,NA,NA,NA,NA,NA,NA,NA,true
6A94hcRV,3ac6mfv6anv2a7u5af0lkpxs80hhzh,3m1cvsfp64ig9cju8fci1uubcy0aq2,6A94hcRV,2020-0188,2020-05-21,13:08:35,13:30:35,NA,incomplete,23,number,1,left,Green_Plus_Dots_3.jpg,Purple_Circle_Grid_3.jpg,Blue_Star_Dots_4.jpg,left,1313.2599999953527,true,NA,NA,NA,NA,NA,NA,NA,NA,true
6A94hcRV,3ac6mfv6anv2a7u5af0lkpxs80hhzh,3m1cvsfp64ig9cju8fci1uubcy0aq2,6A94hcRV,2020-0188,2020-05-21,13:08:35,13:30:35,NA,incomplete,24,number,0,right,Red_Circle_Stripes_2.jpg,Blue_Star_Stripes_1.jpg,Purple_Plus_Dots_2.jpg,right,1132.1200000019744,true,NA,NA,NA,NA,NA,NA,NA,NA,true
6A94hcRV,3ac6mfv6anv2a7u5af0lkpxs80hhzh,3m1cvsfp64ig9cju8fci1uubcy0aq2,6A94hcRV,2020-0188,2020-05-21,13:08:35,13:30:35,NA,incomplete,25,number,1,left,Red_Circle_Chess_4.jpg,Green_Star_Grid_4.jpg,Purple_Triangle_Chess_2.jpg,left,1326.4300000009825,true,NA,NA,NA,NA,NA,NA,NA,NA,true
6A94hcRV,3ac6mfv6anv2a7u5af0lkpxs80hhzh,3m1cvsfp64ig9cju8fci1uubcy0aq2,6A94hcRV,2020-0188,2020-05-21,13:08:35,13:30:35,NA,incomplete,26,number,1,left,Purple_Circle_Chess_4.jpg,Blue_Triangle_Stripes_4.jpg,Red_Plus_Chess_1.jpg,left,875.1850000044797,true,NA,NA,NA,NA,NA,NA,NA,NA,true
6A94hcRV,3ac6mfv6anv2a7u5af0lkpxs80hhzh,3m1cvsfp64ig9cju8fci1uubcy0aq2,6A94hcRV,2020-0188,2020-05-21,13:08:35,13:30:35,NA,incomplete,27,number,1,right,Red_Star_Dots_3.jpg,Purple_Plus_Dots_2.jpg,Blue_Circle_Grid_3.jpg,right,1177.2350000028964,true,NA,NA,NA,NA,NA,NA,NA,NA,true
6A94hcRV,3ac6mfv6anv2a7u5af0lkpxs80hhzh,3m1cvsfp64ig9cju8fci1uubcy0aq2,6A94hcRV,2020-0188,2020-05-21,13:08:35,13:30:35,NA,incomplete,28,number,1,right,Purple_Star_Chess_2.jpg,Green_Plus_Chess_3.jpg,Red_Triangle_Dots_2.jpg,right,972.415000003879,true,NA,NA,NA,NA,NA,NA,NA,NA,true
6A94hcRV,3ac6mfv6anv2a7u5af0lkpxs80hhzh,3m1cvsfp64ig9cju8fci1uubcy0aq2,6A94hcRV,2020-0188,2020-05-21,13:08:35,13:30:35,NA,incomplete,29,number,1,right,Red_Plus_Dots_2.jpg,Green_Circle_Dots_4.jpg,Blue_Star_Grid_2.jpg,right,896.5349999999162,true,NA,NA,NA,NA,NA,NA,NA,NA,true
6A94hcRV,3ac6mfv6anv2a7u5af0lkpxs80hhzh,3m1cvsfp64ig9cju8fci1uubcy0aq2,6A94hcRV,2020-0188,2020-05-21,13:08:35,13:30:35,NA,incomplete,30,number,1,left,Blue_Triangle_Dots_4.jpg,Red_Star_Chess_4.jpg,Purple_Plus_Dots_3.jpg,left,1002.0050000021001,true,NA,NA,NA,NA,NA,NA,NA,NA,true
6A94hcRV,3ac6mfv6anv2a7u5af0lkpxs80hhzh,3m1cvsfp64ig9cju8fci1uubcy0aq2,6A94hcRV,2020-0188,2020-05-21,13:08:35,13:30:35,NA,incomplete,31,number,1,left,Red_Circle_Stripes_4.jpg,Purple_Plus_Chess_4.jpg,Green_Star_Stripes_1.jpg,left,965.9899999969639,true,NA,NA,NA,NA,NA,NA,NA,NA,true
6A94hcRV,3ac6mfv6anv2a7u5af0lkpxs80hhzh,3m1cvsfp64ig9cju8fci1uubcy0aq2,6A94hcRV,2020-0188,2020-05-21,13:08:35,13:30:35,NA,incomplete,32,number,1,left,Red_Plus_Grid_3.jpg,Blue_Circle_Chess_3.jpg,Purple_Triangle_Grid_2.jpg,left,898.654999997234,true,NA,NA,NA,NA,NA,NA,NA,NA,true
6A94hcRV,3ac6mfv6anv2a7u5af0lkpxs80hhzh,3m1cvsfp64ig9cju8fci1uubcy0aq2,6A94hcRV,2020-0188,2020-05-21,13:08:35,13:30:35,NA,incomplete,33,number,0,left,Red_Triangle_Grid_3.jpg,Purple_Plus_Chess_3.jpg,Blue_Star_Grid_2.jpg,left,931.4549999980954,true,NA,NA,NA,NA,NA,NA,NA,NA,true
6A94hcRV,3ac6mfv6anv2a7u5af0lkpxs80hhzh,3m1cvsfp64ig9cju8fci1uubcy0aq2,6A94hcRV,2020-0188,2020-05-21,13:08:35,13:30:35,NA,incomplete,34,number,1,left,Green_Star_Dots_3.jpg,Purple_Circle_Grid_3.jpg,Red_Triangle_Dots_4.jpg,left,1364.199999996461,true,NA,NA,NA,NA,NA,NA,NA,NA,true
6A94hcRV,3ac6mfv6anv2a7u5af0lkpxs80hhzh,3m1cvsfp64ig9cju8fci1uubcy0aq2,6A94hcRV,2020-0188,2020-05-21,13:08:35,13:30:35,NA,incomplete,35,number,0,right,Green_Plus_Dots_2.jpg,Red_Star_Dots_4.jpg,Blue_Triangle_Grid_2.jpg,right,784.8550000053365,true,NA,NA,NA,NA,NA,NA,NA,NA,true
6A94hcRV,3ac6mfv6anv2a7u5af0lkpxs80hhzh,3m1cvsfp64ig9cju8fci1uubcy0aq2,6A94hcRV,2020-0188,2020-05-21,13:08:35,13:30:35,NA,incomplete,36,number,1,right,Green_Circle_Stripes_3.jpg,Purple_Star_Stripes_4.jpg,Blue_Triangle_Chess_3.jpg,right,1022.3399999958929,true,NA,NA,NA,NA,NA,NA,NA,NA,true
6A94hcRV,3ac6mfv6anv2a7u5af0lkpxs80hhzh,3m1cvsfp64ig9cju8fci1uubcy0aq2,6A94hcRV,2020-0188,2020-05-21,13:08:35,13:30:35,NA,incomplete,37,number,1,left,Blue_Triangle_Grid_4.jpg,Red_Plus_Dots_4.jpg,Purple_Circle_Grid_3.jpg,left,946.4999999981374,true,NA,NA,NA,NA,NA,NA,NA,NA,true
6A94hcRV,3ac6mfv6anv2a7u5af0lkpxs80hhzh,3m1cvsfp64ig9cju8fci1uubcy0aq2,6A94hcRV,2020-0188,2020-05-21,13:08:35,13:30:35,NA,incomplete,38,number,1,right,Blue_Triangle_Dots_4.jpg,Green_Circle_Dots_2.jpg,Red_Plus_Chess_4.jpg,right,913.4800000028918,true,NA,NA,NA,NA,NA,NA,NA,NA,true
6A94hcRV,3ac6mfv6anv2a7u5af0lkpxs80hhzh,3m1cvsfp64ig9cju8fci1uubcy0aq2,6A94hcRV,2020-0188,2020-05-21,13:08:35,13:30:35,NA,incomplete,39,number,1,left,Green_Star_Stripes_2.jpg,Red_Plus_Dots_2.jpg,Purple_Triangle_Stripes_1.jpg,left,976.535000001546,true,NA,NA,NA,NA,NA,NA,NA,NA,true
6A94hcRV,3ac6mfv6anv2a7u5af0lkpxs80hhzh,3m1cvsfp64ig9cju8fci1uubcy0aq2,6A94hcRV,2020-0188,2020-05-21,13:08:35,13:30:35,NA,incomplete,0,filling,1,right,Green_Star_Chess_3.jpg,Purple_Circle_Dots_3.jpg,Blue_Plus_Chess_2.jpg,left,1048.2849999971222,false,low,NA,NA,NA,NA,NA,NA,NA,false
6A94hcRV,3ac6mfv6anv2a7u5af0lkpxs80hhzh,3m1cvsfp64ig9cju8fci1uubcy0aq2,6A94hcRV,2020-0188,2020-05-21,13:08:35,13:30:35,NA,incomplete,1,filling,1,left,Blue_Star_Grid_1.jpg,Purple_Triangle_Grid_4.jpg,Green_Plus_Dots_1.jpg,left,1180.534999999567,true,low,NA,NA,NA,NA,NA,NA,NA,false
6A94hcRV,3ac6mfv6anv2a7u5af0lkpxs80hhzh,3m1cvsfp64ig9cju8fci1uubcy0aq2,6A94hcRV,2020-0188,2020-05-21,13:08:35,13:30:35,NA,incomplete,2,filling,1,right,Blue_Star_Stripes_4.jpg,Green_Plus_Dots_4.jpg,Purple_Triangle_Stripes_1.jpg,right,1100.1299999988405,true,low,NA,NA,NA,NA,NA,NA,NA,false
6A94hcRV,3ac6mfv6anv2a7u5af0lkpxs80hhzh,3m1cvsfp64ig9cju8fci1uubcy0aq2,6A94hcRV,2020-0188,2020-05-21,13:08:35,13:30:35,NA,incomplete,3,filling,1,left,Blue_Plus_Dots_1.jpg,Red_Triangle_Dots_4.jpg,Purple_Star_Grid_1.jpg,left,810.9150000017835,true,low,NA,NA,NA,NA,NA,NA,NA,false
6A94hcRV,3ac6mfv6anv2a7u5af0lkpxs80hhzh,3m1cvsfp64ig9cju8fci1uubcy0aq2,6A94hcRV,2020-0188,2020-05-21,13:08:35,13:30:35,NA,incomplete,4,filling,0,left,Blue_Circle_Chess_1.jpg,Red_Star_Chess_4.jpg,Purple_Triangle_Dots_1.jpg,right,782.6449999993201,false,low,NA,NA,NA,NA,NA,NA,NA,false
6A94hcRV,3ac6mfv6anv2a7u5af0lkpxs80hhzh,3m1cvsfp64ig9cju8fci1uubcy0aq2,6A94hcRV,2020-0188,2020-05-21,13:08:35,13:30:35,NA,incomplete,5,filling,1,right,Green_Star_Dots_1.jpg,Purple_Circle_Stripes_1.jpg,Red_Plus_Dots_3.jpg,left,725.2450000015087,false,low,NA,NA,NA,NA,NA,NA,NA,false
6A94hcRV,3ac6mfv6anv2a7u5af0lkpxs80hhzh,3m1cvsfp64ig9cju8fci1uubcy0aq2,6A94hcRV,2020-0188,2020-05-21,13:08:35,13:30:35,NA,incomplete,6,filling,1,right,Red_Triangle_Chess_3.jpg,Blue_Star_Grid_3.jpg,Green_Plus_Chess_4.jpg,right,999.6850000023842,true,low,NA,NA,NA,NA,NA,NA,NA,false
6A94hcRV,3ac6mfv6anv2a7u5af0lkpxs80hhzh,3m1cvsfp64ig9cju8fci1uubcy0aq2,6A94hcRV,2020-0188,2020-05-21,13:08:35,13:30:35,NA,incomplete,7,filling,1,left,Purple_Circle_Dots_1.jpg,Blue_Plus_Dots_2.jpg,Green_Star_Grid_1.jpg,left,1009.3450000057928,true,low,NA,NA,NA,NA,NA,NA,NA,false
6A94hcRV,3ac6mfv6anv2a7u5af0lkpxs80hhzh,3m1cvsfp64ig9cju8fci1uubcy0aq2,6A94hcRV,2020-0188,2020-05-21,13:08:35,13:30:35,NA,incomplete,8,filling,1,right,Green_Star_Grid_3.jpg,Red_Circle_Dots_3.jpg,Blue_Plus_Grid_2.jpg,right,901.4900000039488,true,low,NA,NA,NA,NA,NA,NA,NA,false
6A94hcRV,3ac6mfv6anv2a7u5af0lkpxs80hhzh,3m1cvsfp64ig9cju8fci1uubcy0aq2,6A94hcRV,2020-0188,2020-05-21,13:08:35,13:30:35,NA,incomplete,9,filling,1,left,Green_Circle_Stripes_4.jpg,Purple_Triangle_Stripes_1.jpg,Blue_Plus_Grid_4.jpg,left,818.794999999227,true,low,NA,NA,NA,NA,NA,NA,NA,false
6A94hcRV,3ac6mfv6anv2a7u5af0lkpxs80hhzh,3m1cvsfp64ig9cju8fci1uubcy0aq2,6A94hcRV,2020-0188,2020-05-21,13:08:35,13:30:35,NA,incomplete,10,filling,0,left,Blue_Star_Dots_2.jpg,Green_Plus_Dots_1.jpg,Red_Circle_Grid_2.jpg,right,936.4800000039395,false,low,NA,NA,NA,NA,NA,NA,NA,false
6A94hcRV,3ac6mfv6anv2a7u5af0lkpxs80hhzh,3m1cvsfp64ig9cju8fci1uubcy0aq2,6A94hcRV,2020-0188,2020-05-21,13:08:35,13:30:35,NA,incomplete,11,filling,1,left,Green_Star_Dots_1.jpg,Red_Circle_Dots_2.jpg,Purple_Triangle_Grid_1.jpg,left,1111.2300000023097,true,low,NA,NA,NA,NA,NA,NA,NA,false
6A94hcRV,3ac6mfv6anv2a7u5af0lkpxs80hhzh,3m1cvsfp64ig9cju8fci1uubcy0aq2,6A94hcRV,2020-0188,2020-05-21,13:08:35,13:30:35,NA,incomplete,12,filling,1,right,Red_Star_Dots_4.jpg,Purple_Circle_Grid_4.jpg,Blue_Triangle_Dots_3.jpg,left,1231.4399999958696,false,low,NA,NA,NA,NA,NA,NA,NA,false
6A94hcRV,3ac6mfv6anv2a7u5af0lkpxs80hhzh,3m1cvsfp64ig9cju8fci1uubcy0aq2,6A94hcRV,2020-0188,2020-05-21,13:08:35,13:30:35,NA,incomplete,13,filling,1,left,Purple_Triangle_Dots_3.jpg,Green_Star_Dots_2.jpg,Red_Plus_Chess_3.jpg,left,1083.9449999984354,true,low,NA,NA,NA,NA,NA,NA,NA,false
6A94hcRV,3ac6mfv6anv2a7u5af0lkpxs80hhzh,3m1cvsfp64ig9cju8fci1uubcy0aq2,6A94hcRV,2020-0188,2020-05-21,13:08:35,13:30:35,NA,incomplete,14,filling,1,left,Blue_Star_Stripes_4.jpg,Purple_Triangle_Stripes_2.jpg,Red_Plus_Grid_4.jpg,left,948.4050000028219,true,low,NA,NA,NA,NA,NA,NA,NA,false
6A94hcRV,3ac6mfv6anv2a7u5af0lkpxs80hhzh,3m1cvsfp64ig9cju8fci1uubcy0aq2,6A94hcRV,2020-0188,2020-05-21,13:08:35,13:30:35,NA,incomplete,15,filling,1,right,Green_Triangle_Dots_1.jpg,Blue_Star_Stripes_1.jpg,Red_Circle_Dots_2.jpg,right,941.1649999965448,true,low,NA,NA,NA,NA,NA,NA,NA,false
6A94hcRV,3ac6mfv6anv2a7u5af0lkpxs80hhzh,3m1cvsfp64ig9cju8fci1uubcy0aq2,6A94hcRV,2020-0188,2020-05-21,13:08:35,13:30:35,NA,incomplete,16,filling,1,left,Purple_Star_Stripes_2.jpg,Green_Plus_Stripes_4.jpg,Red_Triangle_Grid_2.jpg,left,1001.7949999965494,true,low,NA,NA,NA,NA,NA,NA,NA,false
6A94hcRV,3ac6mfv6anv2a7u5af0lkpxs80hhzh,3m1cvsfp64ig9cju8fci1uubcy0aq2,6A94hcRV,2020-0188,2020-05-21,13:08:35,13:30:35,NA,incomplete,17,filling,1,left,Purple_Triangle_Dots_4.jpg,Blue_Plus_Dots_2.jpg,Green_Circle_Grid_4.jpg,left,1028.3199999976205,true,low,NA,NA,NA,NA,NA,NA,NA,false
6A94hcRV,3ac6mfv6anv2a7u5af0lkpxs80hhzh,3m1cvsfp64ig9cju8fci1uubcy0aq2,6A94hcRV,2020-0188,2020-05-21,13:08:35,13:30:35,NA,incomplete,18,filling,1,right,Purple_Star_Chess_2.jpg,Green_Circle_Grid_2.jpg,Red_Triangle_Chess_4.jpg,right,961.0500000052853,true,low,NA,NA,NA,NA,NA,NA,NA,false
6A94hcRV,3ac6mfv6anv2a7u5af0lkpxs80hhzh,3m1cvsfp64ig9cju8fci1uubcy0aq2,6A94hcRV,2020-0188,2020-05-21,13:08:35,13:30:35,NA,incomplete,19,filling,1,left,Purple_Circle_Dots_3.jpg,Red_Plus_Dots_4.jpg,Green_Triangle_Stripes_3.jpg,left,910.1149999987101,true,low,NA,NA,NA,NA,NA,NA,NA,false
6A94hcRV,3ac6mfv6anv2a7u5af0lkpxs80hhzh,3m1cvsfp64ig9cju8fci1uubcy0aq2,6A94hcRV,2020-0188,2020-05-21,13:08:35,13:30:35,NA,incomplete,20,filling,1,left,Red_Circle_Dots_2.jpg,Green_Plus_Dots_3.jpg,Blue_Star_Chess_2.jpg,left,991.9599999992643,true,low,NA,NA,NA,NA,NA,NA,NA,false
6A94hcRV,3ac6mfv6anv2a7u5af0lkpxs80hhzh,3m1cvsfp64ig9cju8fci1uubcy0aq2,6A94hcRV,2020-0188,2020-05-21,13:08:35,13:30:35,NA,incomplete,21,filling,1,left,Purple_Triangle_Grid_2.jpg,Green_Plus_Grid_3.jpg,Red_Circle_Chess_2.jpg,left,954.1450000032783,true,low,NA,NA,NA,NA,NA,NA,NA,false
6A94hcRV,3ac6mfv6anv2a7u5af0lkpxs80hhzh,3m1cvsfp64ig9cju8fci1uubcy0aq2,6A94hcRV,2020-0188,2020-05-21,13:08:35,13:30:35,NA,incomplete,22,filling,1,left,Blue_Circle_Chess_3.jpg,Red_Plus_Chess_2.jpg,Green_Triangle_Grid_3.jpg,left,906.8450000048615,true,low,NA,NA,NA,NA,NA,NA,NA,false
6A94hcRV,3ac6mfv6anv2a7u5af0lkpxs80hhzh,3m1cvsfp64ig9cju8fci1uubcy0aq2,6A94hcRV,2020-0188,2020-05-21,13:08:35,13:30:35,NA,incomplete,23,filling,0,left,Green_Triangle_Dots_4.jpg,Red_Circle_Dots_1.jpg,Purple_Star_Grid_4.jpg,left,802.7549999969779,true,low,NA,NA,NA,NA,NA,NA,NA,false
6A94hcRV,3ac6mfv6anv2a7u5af0lkpxs80hhzh,3m1cvsfp64ig9cju8fci1uubcy0aq2,6A94hcRV,2020-0188,2020-05-21,13:08:35,13:30:35,NA,incomplete,24,filling,1,right,Purple_Plus_Grid_4.jpg,Red_Star_Dots_4.jpg,Green_Circle_Grid_3.jpg,left,1133.97499999695,false,low,NA,NA,NA,NA,NA,NA,NA,false
6A94hcRV,3ac6mfv6anv2a7u5af0lkpxs80hhzh,3m1cvsfp64ig9cju8fci1uubcy0aq2,6A94hcRV,2020-0188,2020-05-21,13:08:35,13:30:35,NA,incomplete,25,filling,1,right,Green_Triangle_Chess_2.jpg,Purple_Circle_Dots_2.jpg,Blue_Plus_Chess_4.jpg,right,944.5549999945797,true,low,NA,NA,NA,NA,NA,NA,NA,false
6A94hcRV,3ac6mfv6anv2a7u5af0lkpxs80hhzh,3m1cvsfp64ig9cju8fci1uubcy0aq2,6A94hcRV,2020-0188,2020-05-21,13:08:35,13:30:35,NA,incomplete,26,filling,1,right,Purple_Triangle_Chess_3.jpg,Blue_Star_Grid_3.jpg,Green_Plus_Chess_1.jpg,right,908.7199999995064,true,low,NA,NA,NA,NA,NA,NA,NA,false
6A94hcRV,3ac6mfv6anv2a7u5af0lkpxs80hhzh,3m1cvsfp64ig9cju8fci1uubcy0aq2,6A94hcRV,2020-0188,2020-05-21,13:08:35,13:30:35,NA,incomplete,27,filling,1,right,Purple_Circle_Dots_4.jpg,Blue_Star_Grid_4.jpg,Red_Triangle_Dots_1.jpg,right,1077.2149999975227,true,low,NA,NA,NA,NA,NA,NA,NA,false
6A94hcRV,3ac6mfv6anv2a7u5af0lkpxs80hhzh,3m1cvsfp64ig9cju8fci1uubcy0aq2,6A94hcRV,2020-0188,2020-05-21,13:08:35,13:30:35,NA,incomplete,28,filling,1,right,Red_Circle_Chess_2.jpg,Purple_Plus_Stripes_2.jpg,Blue_Triangle_Chess_3.jpg,right,852.0599999974947,true,low,NA,NA,NA,NA,NA,NA,NA,false
6A94hcRV,3ac6mfv6anv2a7u5af0lkpxs80hhzh,3m1cvsfp64ig9cju8fci1uubcy0aq2,6A94hcRV,2020-0188,2020-05-21,13:08:35,13:30:35,NA,incomplete,29,filling,1,right,Green_Triangle_Chess_3.jpg,Blue_Plus_Dots_3.jpg,Red_Circle_Chess_4.jpg,right,1007.4600000006612,true,low,NA,NA,NA,NA,NA,NA,NA,false
6A94hcRV,3ac6mfv6anv2a7u5af0lkpxs80hhzh,3m1cvsfp64ig9cju8fci1uubcy0aq2,6A94hcRV,2020-0188,2020-05-21,13:08:35,13:30:35,NA,incomplete,30,number,1,right,Red_Plus_Dots_4.jpg,Purple_Star_Dots_3.jpg,Green_Triangle_Grid_4.jpg,left,891.8049999993527,false,low,NA,NA,NA,NA,NA,NA,NA,false
6A94hcRV,3ac6mfv6anv2a7u5af0lkpxs80hhzh,3m1cvsfp64ig9cju8fci1uubcy0aq2,6A94hcRV,2020-0188,2020-05-21,13:08:35,13:30:35,NA,incomplete,31,number,0,left,Green_Star_Chess_2.jpg,Blue_Circle_Grid_2.jpg,Red_Plus_Chess_1.jpg,right,1348.7900000037625,false,low,NA,NA,NA,NA,NA,NA,NA,false
6A94hcRV,3ac6mfv6anv2a7u5af0lkpxs80hhzh,3m1cvsfp64ig9cju8fci1uubcy0aq2,6A94hcRV,2020-0188,2020-05-21,13:08:35,13:30:35,NA,incomplete,32,number,0,left,Green_Star_Grid_4.jpg,Purple_Circle_Dots_4.jpg,Red_Triangle_Grid_3.jpg,right,1146.7649999976857,false,low,NA,NA,NA,NA,NA,NA,NA,false
6A94hcRV,3ac6mfv6anv2a7u5af0lkpxs80hhzh,3m1cvsfp64ig9cju8fci1uubcy0aq2,6A94hcRV,2020-0188,2020-05-21,13:08:35,13:30:35,NA,incomplete,33,number,1,left,Purple_Triangle_Dots_4.jpg,Green_Circle_Grid_4.jpg,Blue_Plus_Dots_1.jpg,right,1250.6399999983842,false,low,NA,NA,NA,NA,NA,NA,NA,false
6A94hcRV,3ac6mfv6anv2a7u5af0lkpxs80hhzh,3m1cvsfp64ig9cju8fci1uubcy0aq2,6A94hcRV,2020-0188,2020-05-21,13:08:35,13:30:35,NA,incomplete,34,number,0,right,Blue_Triangle_Grid_2.jpg,Red_Star_Grid_4.jpg,Purple_Circle_Dots_2.jpg,left,1071.450000003213,false,low,NA,NA,NA,NA,NA,NA,NA,false
6A94hcRV,3ac6mfv6anv2a7u5af0lkpxs80hhzh,3m1cvsfp64ig9cju8fci1uubcy0aq2,6A94hcRV,2020-0188,2020-05-21,13:08:35,13:30:35,NA,incomplete,35,number,1,right,Green_Triangle_Chess_2.jpg,Purple_Plus_Chess_3.jpg,Blue_Circle_Grid_2.jpg,left,902.090000003227,false,low,NA,NA,NA,NA,NA,NA,NA,false
6A94hcRV,3ac6mfv6anv2a7u5af0lkpxs80hhzh,3m1cvsfp64ig9cju8fci1uubcy0aq2,6A94hcRV,2020-0188,2020-05-21,13:08:35,13:30:35,NA,incomplete,36,number,0,right,Purple_Plus_Chess_3.jpg,Red_Circle_Chess_1.jpg,Blue_Triangle_Grid_3.jpg,right,1132.9399999958696,true,low,NA,NA,NA,NA,NA,NA,NA,false
6A94hcRV,3ac6mfv6anv2a7u5af0lkpxs80hhzh,3m1cvsfp64ig9cju8fci1uubcy0aq2,6A94hcRV,2020-0188,2020-05-21,13:08:35,13:30:35,NA,incomplete,37,number,1,left,Purple_Circle_Grid_3.jpg,Blue_Star_Chess_3.jpg,Green_Triangle_Grid_1.jpg,right,1357.2649999987334,false,low,NA,NA,NA,NA,NA,NA,NA,false
6A94hcRV,3ac6mfv6anv2a7u5af0lkpxs80hhzh,3m1cvsfp64ig9cju8fci1uubcy0aq2,6A94hcRV,2020-0188,2020-05-21,13:08:35,13:30:35,NA,incomplete,38,number,1,left,Blue_Circle_Stripes_2.jpg,Red_Triangle_Dots_2.jpg,Purple_Plus_Stripes_1.jpg,right,1246.7600000017555,false,low,NA,NA,NA,NA,NA,NA,NA,false
6A94hcRV,3ac6mfv6anv2a7u5af0lkpxs80hhzh,3m1cvsfp64ig9cju8fci1uubcy0aq2,6A94hcRV,2020-0188,2020-05-21,13:08:35,13:30:35,NA,incomplete,39,number,1,right,Red_Star_Dots_4.jpg,Green_Circle_Dots_1.jpg,Purple_Plus_Grid_4.jpg,right,830.5450000043493,true,low,NA,NA,NA,NA,NA,NA,NA,false
6A94hcRV,3ac6mfv6anv2a7u5af0lkpxs80hhzh,3m1cvsfp64ig9cju8fci1uubcy0aq2,6A94hcRV,2020-0188,2020-05-21,13:08:35,13:30:35,NA,incomplete,40,number,1,right,Red_Triangle_Chess_3.jpg,Purple_Plus_Chess_2.jpg,Blue_Circle_Grid_3.jpg,right,865.0500000002794,true,low,NA,NA,NA,NA,NA,NA,NA,false
6A94hcRV,3ac6mfv6anv2a7u5af0lkpxs80hhzh,3m1cvsfp64ig9cju8fci1uubcy0aq2,6A94hcRV,2020-0188,2020-05-21,13:08:35,13:30:35,NA,incomplete,41,number,1,left,Purple_Triangle_Dots_3.jpg,Green_Circle_Grid_3.jpg,Blue_Plus_Dots_4.jpg,left,860.4599999962375,true,low,NA,NA,NA,NA,NA,NA,NA,false
6A94hcRV,3ac6mfv6anv2a7u5af0lkpxs80hhzh,3m1cvsfp64ig9cju8fci1uubcy0aq2,6A94hcRV,2020-0188,2020-05-21,13:08:35,13:30:35,NA,incomplete,42,number,1,right,Blue_Plus_Chess_4.jpg,Red_Circle_Chess_1.jpg,Purple_Triangle_Grid_4.jpg,right,935.279999997816,true,low,NA,NA,NA,NA,NA,NA,NA,false
6A94hcRV,3ac6mfv6anv2a7u5af0lkpxs80hhzh,3m1cvsfp64ig9cju8fci1uubcy0aq2,6A94hcRV,2020-0188,2020-05-21,13:08:35,13:30:35,NA,incomplete,43,number,1,right,Purple_Star_Dots_3.jpg,Blue_Triangle_Dots_1.jpg,Green_Circle_Stripes_3.jpg,right,788.6399999988498,true,low,NA,NA,NA,NA,NA,NA,NA,false
6A94hcRV,3ac6mfv6anv2a7u5af0lkpxs80hhzh,3m1cvsfp64ig9cju8fci1uubcy0aq2,6A94hcRV,2020-0188,2020-05-21,13:08:35,13:30:35,NA,incomplete,44,number,1,left,Blue_Triangle_Dots_3.jpg,Purple_Circle_Chess_3.jpg,Red_Star_Dots_4.jpg,left,785.6850000025006,true,low,NA,NA,NA,NA,NA,NA,NA,false
6A94hcRV,3ac6mfv6anv2a7u5af0lkpxs80hhzh,3m1cvsfp64ig9cju8fci1uubcy0aq2,6A94hcRV,2020-0188,2020-05-21,13:08:35,13:30:35,NA,incomplete,45,number,1,right,Purple_Circle_Chess_3.jpg,Green_Star_Chess_1.jpg,Red_Plus_Dots_3.jpg,right,733.4350000019185,true,low,NA,NA,NA,NA,NA,NA,NA,false
6A94hcRV,3ac6mfv6anv2a7u5af0lkpxs80hhzh,3m1cvsfp64ig9cju8fci1uubcy0aq2,6A94hcRV,2020-0188,2020-05-21,13:08:35,13:30:35,NA,incomplete,46,number,1,left,Red_Circle_Grid_1.jpg,Blue_Plus_Dots_1.jpg,Green_Triangle_Grid_2.jpg,left,708.0550000027288,true,low,NA,NA,NA,NA,NA,NA,NA,false
6A94hcRV,3ac6mfv6anv2a7u5af0lkpxs80hhzh,3m1cvsfp64ig9cju8fci1uubcy0aq2,6A94hcRV,2020-0188,2020-05-21,13:08:35,13:30:35,NA,incomplete,47,number,1,left,Blue_Circle_Stripes_4.jpg,Purple_Star_Grid_4.jpg,Green_Triangle_Stripes_3.jpg,left,683.084999996936,true,low,NA,NA,NA,NA,NA,NA,NA,false
6A94hcRV,3ac6mfv6anv2a7u5af0lkpxs80hhzh,3m1cvsfp64ig9cju8fci1uubcy0aq2,6A94hcRV,2020-0188,2020-05-21,13:08:35,13:30:35,NA,incomplete,48,number,0,left,Purple_Plus_Stripes_1.jpg,Green_Star_Chess_1.jpg,Red_Circle_Stripes_4.jpg,left,745.619999994291,true,low,NA,NA,NA,NA,NA,NA,NA,false
6A94hcRV,3ac6mfv6anv2a7u5af0lkpxs80hhzh,3m1cvsfp64ig9cju8fci1uubcy0aq2,6A94hcRV,2020-0188,2020-05-21,13:08:35,13:30:35,NA,incomplete,49,number,0,left,Purple_Triangle_Chess_1.jpg,Green_Plus_Stripes_1.jpg,Blue_Star_Chess_4.jpg,right,1212.9649999988033,false,low,NA,NA,NA,NA,NA,NA,NA,false
6A94hcRV,3ac6mfv6anv2a7u5af0lkpxs80hhzh,3m1cvsfp64ig9cju8fci1uubcy0aq2,6A94hcRV,2020-0188,2020-05-21,13:08:35,13:30:35,NA,incomplete,50,number,0,left,Purple_Circle_Chess_3.jpg,Green_Plus_Dots_3.jpg,Red_Triangle_Chess_2.jpg,left,976.4899999937043,true,low,NA,NA,NA,NA,NA,NA,NA,false
6A94hcRV,3ac6mfv6anv2a7u5af0lkpxs80hhzh,3m1cvsfp64ig9cju8fci1uubcy0aq2,6A94hcRV,2020-0188,2020-05-21,13:08:35,13:30:35,NA,incomplete,51,number,1,left,Purple_Plus_Grid_4.jpg,Green_Circle_Dots_4.jpg,Red_Star_Grid_3.jpg,right,950.620000003255,false,low,NA,NA,NA,NA,NA,NA,NA,false
6A94hcRV,3ac6mfv6anv2a7u5af0lkpxs80hhzh,3m1cvsfp64ig9cju8fci1uubcy0aq2,6A94hcRV,2020-0188,2020-05-21,13:08:35,13:30:35,NA,incomplete,52,number,1,right,Red_Star_Dots_2.jpg,Purple_Circle_Dots_1.jpg,Blue_Plus_Grid_2.jpg,left,1039.6750000000466,false,low,NA,NA,NA,NA,NA,NA,NA,false
6A94hcRV,3ac6mfv6anv2a7u5af0lkpxs80hhzh,3m1cvsfp64ig9cju8fci1uubcy0aq2,6A94hcRV,2020-0188,2020-05-21,13:08:35,13:30:35,NA,incomplete,53,number,1,left,Blue_Circle_Grid_2.jpg,Red_Triangle_Dots_2.jpg,Green_Plus_Grid_1.jpg,left,870.9799999996321,true,low,NA,NA,NA,NA,NA,NA,NA,false
6A94hcRV,3ac6mfv6anv2a7u5af0lkpxs80hhzh,3m1cvsfp64ig9cju8fci1uubcy0aq2,6A94hcRV,2020-0188,2020-05-21,13:08:35,13:30:35,NA,incomplete,54,number,1,left,Blue_Plus_Stripes_1.jpg,Green_Triangle_Grid_1.jpg,Red_Star_Stripes_4.jpg,left,704.6150000024354,true,low,NA,NA,NA,NA,NA,NA,NA,false
6A94hcRV,3ac6mfv6anv2a7u5af0lkpxs80hhzh,3m1cvsfp64ig9cju8fci1uubcy0aq2,6A94hcRV,2020-0188,2020-05-21,13:08:35,13:30:35,NA,incomplete,55,number,1,left,Red_Plus_Grid_3.jpg,Blue_Circle_Stripes_3.jpg,Green_Triangle_Grid_2.jpg,left,799.2450000019744,true,low,NA,NA,NA,NA,NA,NA,NA,false
6A94hcRV,3ac6mfv6anv2a7u5af0lkpxs80hhzh,3m1cvsfp64ig9cju8fci1uubcy0aq2,6A94hcRV,2020-0188,2020-05-21,13:08:35,13:30:35,NA,incomplete,56,number,0,left,Blue_Triangle_Dots_2.jpg,Purple_Plus_Stripes_2.jpg,Red_Star_Dots_3.jpg,left,765.9350000030827,true,low,NA,NA,NA,NA,NA,NA,NA,false
6A94hcRV,3ac6mfv6anv2a7u5af0lkpxs80hhzh,3m1cvsfp64ig9cju8fci1uubcy0aq2,6A94hcRV,2020-0188,2020-05-21,13:08:35,13:30:35,NA,incomplete,57,number,1,right,Purple_Plus_Chess_3.jpg,Green_Circle_Chess_2.jpg,Red_Triangle_Grid_3.jpg,right,1076.0300000038696,true,low,NA,NA,NA,NA,NA,NA,NA,false
6A94hcRV,3ac6mfv6anv2a7u5af0lkpxs80hhzh,3m1cvsfp64ig9cju8fci1uubcy0aq2,6A94hcRV,2020-0188,2020-05-21,13:08:35,13:30:35,NA,incomplete,58,number,1,left,Red_Plus_Chess_4.jpg,Green_Circle_Grid_4.jpg,Blue_Triangle_Chess_2.jpg,left,764.9900000032503,true,low,NA,NA,NA,NA,NA,NA,NA,false
6A94hcRV,3ac6mfv6anv2a7u5af0lkpxs80hhzh,3m1cvsfp64ig9cju8fci1uubcy0aq2,6A94hcRV,2020-0188,2020-05-21,13:08:35,13:30:35,NA,incomplete,59,number,1,left,Purple_Star_Chess_2.jpg,Blue_Circle_Stripes_2.jpg,Red_Triangle_Chess_1.jpg,left,833.8149999980815,true,low,NA,NA,NA,NA,NA,NA,NA,false
6A94hcRV,3ac6mfv6anv2a7u5af0lkpxs80hhzh,3m1cvsfp64ig9cju8fci1uubcy0aq2,6A94hcRV,2020-0188,2020-05-21,13:08:35,13:30:35,NA,incomplete,60,filling,1,right,Red_Star_Stripes_3.jpg,Purple_Circle_Grid_3.jpg,Blue_Plus_Stripes_4.jpg,left,804.3699999980163,false,low,NA,NA,NA,NA,NA,NA,NA,false
6A94hcRV,3ac6mfv6anv2a7u5af0lkpxs80hhzh,3m1cvsfp64ig9cju8fci1uubcy0aq2,6A94hcRV,2020-0188,2020-05-21,13:08:35,13:30:35,NA,incomplete,61,filling,1,left,Red_Plus_Dots_4.jpg,Green_Star_Dots_1.jpg,Purple_Triangle_Stripes_4.jpg,right,992.7600000009406,false,low,NA,NA,NA,NA,NA,NA,NA,false
6A94hcRV,3ac6mfv6anv2a7u5af0lkpxs80hhzh,3m1cvsfp64ig9cju8fci1uubcy0aq2,6A94hcRV,2020-0188,2020-05-21,13:08:35,13:30:35,NA,incomplete,62,filling,1,left,Blue_Plus_Grid_4.jpg,Green_Triangle_Grid_1.jpg,Purple_Star_Dots_4.jpg,left,1117.9250000059837,true,low,NA,NA,NA,NA,NA,NA,NA,false
6A94hcRV,3ac6mfv6anv2a7u5af0lkpxs80hhzh,3m1cvsfp64ig9cju8fci1uubcy0aq2,6A94hcRV,2020-0188,2020-05-21,13:08:35,13:30:35,NA,incomplete,63,filling,1,left,Red_Star_Stripes_3.jpg,Blue_Circle_Stripes_2.jpg,Purple_Plus_Grid_3.jpg,right,1197.420000004,false,low,NA,NA,NA,NA,NA,NA,NA,false
6A94hcRV,3ac6mfv6anv2a7u5af0lkpxs80hhzh,3m1cvsfp64ig9cju8fci1uubcy0aq2,6A94hcRV,2020-0188,2020-05-21,13:08:35,13:30:35,NA,incomplete,64,filling,1,right,Red_Circle_Dots_4.jpg,Purple_Triangle_Grid_4.jpg,Blue_Star_Dots_2.jpg,left,819.7499999951106,false,low,NA,NA,NA,NA,NA,NA,NA,false
6A94hcRV,3ac6mfv6anv2a7u5af0lkpxs80hhzh,3m1cvsfp64ig9cju8fci1uubcy0aq2,6A94hcRV,2020-0188,2020-05-21,13:08:35,13:30:35,NA,incomplete,65,filling,1,right,Purple_Triangle_Stripes_2.jpg,Green_Plus_Dots_2.jpg,Red_Circle_Stripes_1.jpg,right,1110.9999999970896,true,low,NA,NA,NA,NA,NA,NA,NA,false
6A94hcRV,3ac6mfv6anv2a7u5af0lkpxs80hhzh,3m1cvsfp64ig9cju8fci1uubcy0aq2,6A94hcRV,2020-0188,2020-05-21,13:08:35,13:30:35,NA,incomplete,66,filling,1,left,Blue_Plus_Grid_4.jpg,Purple_Triangle_Grid_1.jpg,Red_Star_Dots_4.jpg,left,1134.5900000014808,true,low,NA,NA,NA,NA,NA,NA,NA,false
6A94hcRV,3ac6mfv6anv2a7u5af0lkpxs80hhzh,3m1cvsfp64ig9cju8fci1uubcy0aq2,6A94hcRV,2020-0188,2020-05-21,13:08:35,13:30:35,NA,incomplete,67,filling,0,left,Purple_Circle_Chess_3.jpg,Red_Plus_Chess_1.jpg,Blue_Star_Stripes_3.jpg,left,941.0599999973783,true,low,NA,NA,NA,NA,NA,NA,NA,false
6A94hcRV,3ac6mfv6anv2a7u5af0lkpxs80hhzh,3m1cvsfp64ig9cju8fci1uubcy0aq2,6A94hcRV,2020-0188,2020-05-21,13:08:35,13:30:35,NA,incomplete,68,filling,1,left,Blue_Plus_Grid_4.jpg,Red_Star_Grid_2.jpg,Purple_Circle_Stripes_4.jpg,right,770.8050000001676,false,low,NA,NA,NA,NA,NA,NA,NA,false
6A94hcRV,3ac6mfv6anv2a7u5af0lkpxs80hhzh,3m1cvsfp64ig9cju8fci1uubcy0aq2,6A94hcRV,2020-0188,2020-05-21,13:08:35,13:30:35,NA,incomplete,69,filling,1,right,Red_Circle_Chess_1.jpg,Purple_Triangle_Grid_1.jpg,Blue_Star_Chess_4.jpg,right,1065.870000005816,true,low,NA,NA,NA,NA,NA,NA,NA,false
6A94hcRV,3ac6mfv6anv2a7u5af0lkpxs80hhzh,3m1cvsfp64ig9cju8fci1uubcy0aq2,6A94hcRV,2020-0188,2020-05-21,13:08:35,13:30:35,NA,incomplete,70,filling,0,right,Red_Triangle_Chess_1.jpg,Blue_Plus_Grid_1.jpg,Purple_Star_Chess_3.jpg,right,970.6599999989849,true,low,NA,NA,NA,NA,NA,NA,NA,false
6A94hcRV,3ac6mfv6anv2a7u5af0lkpxs80hhzh,3m1cvsfp64ig9cju8fci1uubcy0aq2,6A94hcRV,2020-0188,2020-05-21,13:08:35,13:30:35,NA,incomplete,71,filling,1,left,Blue_Circle_Grid_4.jpg,Green_Triangle_Grid_2.jpg,Purple_Star_Chess_4.jpg,left,889.8150000022724,true,low,NA,NA,NA,NA,NA,NA,NA,false
6A94hcRV,3ac6mfv6anv2a7u5af0lkpxs80hhzh,3m1cvsfp64ig9cju8fci1uubcy0aq2,6A94hcRV,2020-0188,2020-05-21,13:08:35,13:30:35,NA,incomplete,72,filling,1,left,Red_Circle_Stripes_2.jpg,Blue_Star_Stripes_1.jpg,Green_Triangle_Grid_2.jpg,left,985.5600000009872,true,low,NA,NA,NA,NA,NA,NA,NA,false
6A94hcRV,3ac6mfv6anv2a7u5af0lkpxs80hhzh,3m1cvsfp64ig9cju8fci1uubcy0aq2,6A94hcRV,2020-0188,2020-05-21,13:08:35,13:30:35,NA,incomplete,73,filling,1,left,Blue_Star_Dots_4.jpg,Green_Triangle_Dots_1.jpg,Red_Plus_Grid_4.jpg,left,853.0849999951897,true,low,NA,NA,NA,NA,NA,NA,NA,false
6A94hcRV,3ac6mfv6anv2a7u5af0lkpxs80hhzh,3m1cvsfp64ig9cju8fci1uubcy0aq2,6A94hcRV,2020-0188,2020-05-21,13:08:35,13:30:35,NA,incomplete,74,filling,1,left,Red_Plus_Stripes_1.jpg,Purple_Triangle_Stripes_3.jpg,Green_Circle_Dots_1.jpg,left,944.6299999980256,true,low,NA,NA,NA,NA,NA,NA,NA,false
6A94hcRV,3ac6mfv6anv2a7u5af0lkpxs80hhzh,3m1cvsfp64ig9cju8fci1uubcy0aq2,6A94hcRV,2020-0188,2020-05-21,13:08:35,13:30:35,NA,incomplete,75,filling,0,left,Purple_Star_Chess_1.jpg,Red_Circle_Chess_2.jpg,Blue_Plus_Grid_1.jpg,left,855.3450000035809,true,low,NA,NA,NA,NA,NA,NA,NA,false
6A94hcRV,3ac6mfv6anv2a7u5af0lkpxs80hhzh,3m1cvsfp64ig9cju8fci1uubcy0aq2,6A94hcRV,2020-0188,2020-05-21,13:08:35,13:30:35,NA,incomplete,76,filling,1,right,Purple_Plus_Dots_4.jpg,Green_Triangle_Chess_4.jpg,Blue_Star_Dots_3.jpg,left,890.3199999986682,false,low,NA,NA,NA,NA,NA,NA,NA,false
6A94hcRV,3ac6mfv6anv2a7u5af0lkpxs80hhzh,3m1cvsfp64ig9cju8fci1uubcy0aq2,6A94hcRV,2020-0188,2020-05-21,13:08:35,13:30:35,NA,incomplete,77,filling,0,left,Green_Triangle_Grid_2.jpg,Blue_Circle_Grid_3.jpg,Red_Star_Chess_2.jpg,left,937.3500000000931,true,low,NA,NA,NA,NA,NA,NA,NA,false
6A94hcRV,3ac6mfv6anv2a7u5af0lkpxs80hhzh,3m1cvsfp64ig9cju8fci1uubcy0aq2,6A94hcRV,2020-0188,2020-05-21,13:08:35,13:30:35,NA,incomplete,78,filling,1,left,Purple_Plus_Grid_2.jpg,Green_Star_Grid_4.jpg,Blue_Circle_Stripes_2.jpg,right,871.9350000028498,false,low,NA,NA,NA,NA,NA,NA,NA,false
6A94hcRV,3ac6mfv6anv2a7u5af0lkpxs80hhzh,3m1cvsfp64ig9cju8fci1uubcy0aq2,6A94hcRV,2020-0188,2020-05-21,13:08:35,13:30:35,NA,incomplete,79,filling,1,left,Purple_Triangle_Grid_4.jpg,Red_Star_Grid_3.jpg,Blue_Plus_Chess_4.jpg,left,1232.2899999998044,true,low,NA,NA,NA,NA,NA,NA,NA,false
6A94hcRV,3ac6mfv6anv2a7u5af0lkpxs80hhzh,3m1cvsfp64ig9cju8fci1uubcy0aq2,6A94hcRV,2020-0188,2020-05-21,13:08:35,13:30:35,NA,incomplete,80,filling,1,left,Blue_Plus_Chess_2.jpg,Green_Triangle_Chess_4.jpg,Purple_Star_Stripes_2.jpg,left,924.7699999978067,true,low,NA,NA,NA,NA,NA,NA,NA,false
6A94hcRV,3ac6mfv6anv2a7u5af0lkpxs80hhzh,3m1cvsfp64ig9cju8fci1uubcy0aq2,6A94hcRV,2020-0188,2020-05-21,13:08:35,13:30:35,NA,incomplete,81,filling,1,left,Red_Plus_Chess_3.jpg,Blue_Triangle_Chess_1.jpg,Purple_Circle_Grid_3.jpg,right,928.0849999994971,false,low,NA,NA,NA,NA,NA,NA,NA,false
6A94hcRV,3ac6mfv6anv2a7u5af0lkpxs80hhzh,3m1cvsfp64ig9cju8fci1uubcy0aq2,6A94hcRV,2020-0188,2020-05-21,13:08:35,13:30:35,NA,incomplete,82,filling,1,right,Blue_Star_Grid_1.jpg,Green_Circle_Chess_1.jpg,Purple_Plus_Grid_4.jpg,right,1115.9000000043306,true,low,NA,NA,NA,NA,NA,NA,NA,false
6A94hcRV,3ac6mfv6anv2a7u5af0lkpxs80hhzh,3m1cvsfp64ig9cju8fci1uubcy0aq2,6A94hcRV,2020-0188,2020-05-21,13:08:35,13:30:35,NA,incomplete,83,filling,1,right,Purple_Star_Dots_4.jpg,Blue_Plus_Stripes_4.jpg,Green_Circle_Dots_3.jpg,right,1027.8399999951944,true,low,NA,NA,NA,NA,NA,NA,NA,false
6A94hcRV,3ac6mfv6anv2a7u5af0lkpxs80hhzh,3m1cvsfp64ig9cju8fci1uubcy0aq2,6A94hcRV,2020-0188,2020-05-21,13:08:35,13:30:35,NA,incomplete,84,filling,1,left,Red_Plus_Stripes_3.jpg,Purple_Star_Stripes_2.jpg,Blue_Triangle_Dots_3.jpg,left,959.0950000056764,true,low,NA,NA,NA,NA,NA,NA,NA,false
6A94hcRV,3ac6mfv6anv2a7u5af0lkpxs80hhzh,3m1cvsfp64ig9cju8fci1uubcy0aq2,6A94hcRV,2020-0188,2020-05-21,13:08:35,13:30:35,NA,incomplete,85,filling,0,right,Blue_Triangle_Stripes_1.jpg,Red_Circle_Dots_1.jpg,Green_Star_Stripes_4.jpg,right,1049.5099999969825,true,low,NA,NA,NA,NA,NA,NA,NA,false
6A94hcRV,3ac6mfv6anv2a7u5af0lkpxs80hhzh,3m1cvsfp64ig9cju8fci1uubcy0aq2,6A94hcRV,2020-0188,2020-05-21,13:08:35,13:30:35,NA,incomplete,86,filling,1,right,Blue_Star_Grid_2.jpg,Purple_Triangle_Stripes_2.jpg,Green_Plus_Grid_3.jpg,right,1073.350000005914,true,low,NA,NA,NA,NA,NA,NA,NA,false
6A94hcRV,3ac6mfv6anv2a7u5af0lkpxs80hhzh,3m1cvsfp64ig9cju8fci1uubcy0aq2,6A94hcRV,2020-0188,2020-05-21,13:08:35,13:30:35,NA,incomplete,87,filling,0,left,Green_Circle_Dots_4.jpg,Blue_Star_Dots_1.jpg,Purple_Plus_Chess_4.jpg,left,922.0399999975925,true,low,NA,NA,NA,NA,NA,NA,NA,false
6A94hcRV,3ac6mfv6anv2a7u5af0lkpxs80hhzh,3m1cvsfp64ig9cju8fci1uubcy0aq2,6A94hcRV,2020-0188,2020-05-21,13:08:35,13:30:35,NA,incomplete,88,filling,1,left,Purple_Circle_Stripes_3.jpg,Blue_Triangle_Stripes_2.jpg,Green_Star_Grid_3.jpg,left,1000.5149999996647,true,low,NA,NA,NA,NA,NA,NA,NA,false
6A94hcRV,3ac6mfv6anv2a7u5af0lkpxs80hhzh,3m1cvsfp64ig9cju8fci1uubcy0aq2,6A94hcRV,2020-0188,2020-05-21,13:08:35,13:30:35,NA,incomplete,89,filling,1,right,Blue_Triangle_Grid_4.jpg,Green_Plus_Stripes_4.jpg,Purple_Star_Grid_3.jpg,right,1285.0800000014715,true,low,NA,NA,NA,NA,NA,NA,NA,false
6A94hcRV,3ac6mfv6anv2a7u5af0lkpxs80hhzh,3m1cvsfp64ig9cju8fci1uubcy0aq2,6A94hcRV,2020-0188,2020-05-21,13:08:35,13:30:35,NA,incomplete,90,number,1,left,Purple_Triangle_Stripes_1.jpg,Green_Circle_Chess_1.jpg,Blue_Star_Stripes_4.jpg,right,839.4150000021327,false,low,NA,NA,NA,NA,NA,NA,NA,false
6A94hcRV,3ac6mfv6anv2a7u5af0lkpxs80hhzh,3m1cvsfp64ig9cju8fci1uubcy0aq2,6A94hcRV,2020-0188,2020-05-21,13:08:35,13:30:35,NA,incomplete,91,number,0,right,Purple_Star_Chess_4.jpg,Green_Plus_Chess_1.jpg,Blue_Triangle_Grid_4.jpg,left,1041.0249999985099,false,low,NA,NA,NA,NA,NA,NA,NA,false
6A94hcRV,3ac6mfv6anv2a7u5af0lkpxs80hhzh,3m1cvsfp64ig9cju8fci1uubcy0aq2,6A94hcRV,2020-0188,2020-05-21,13:08:35,13:30:35,NA,incomplete,92,number,1,left,Red_Plus_Chess_3.jpg,Green_Triangle_Stripes_3.jpg,Purple_Circle_Chess_4.jpg,right,763.0150000040885,false,low,NA,NA,NA,NA,NA,NA,NA,false
6A94hcRV,3ac6mfv6anv2a7u5af0lkpxs80hhzh,3m1cvsfp64ig9cju8fci1uubcy0aq2,6A94hcRV,2020-0188,2020-05-21,13:08:35,13:30:35,NA,incomplete,93,number,1,left,Purple_Plus_Chess_1.jpg,Green_Star_Stripes_1.jpg,Red_Triangle_Chess_4.jpg,left,802.3900000043213,true,low,NA,NA,NA,NA,NA,NA,NA,false
6A94hcRV,3ac6mfv6anv2a7u5af0lkpxs80hhzh,3m1cvsfp64ig9cju8fci1uubcy0aq2,6A94hcRV,2020-0188,2020-05-21,13:08:35,13:30:35,NA,incomplete,94,number,0,left,Green_Circle_Chess_2.jpg,Red_Triangle_Dots_2.jpg,Purple_Plus_Chess_4.jpg,left,793.5900000011316,true,low,NA,NA,NA,NA,NA,NA,NA,false
6A94hcRV,3ac6mfv6anv2a7u5af0lkpxs80hhzh,3m1cvsfp64ig9cju8fci1uubcy0aq2,6A94hcRV,2020-0188,2020-05-21,13:08:35,13:30:35,NA,incomplete,95,number,1,left,Purple_Triangle_Stripes_4.jpg,Blue_Star_Chess_4.jpg,Red_Circle_Stripes_3.jpg,right,914.535000003525,false,low,NA,NA,NA,NA,NA,NA,NA,false
6A94hcRV,3ac6mfv6anv2a7u5af0lkpxs80hhzh,3m1cvsfp64ig9cju8fci1uubcy0aq2,6A94hcRV,2020-0188,2020-05-21,13:08:35,13:30:35,NA,incomplete,96,number,1,left,Green_Plus_Dots_4.jpg,Blue_Circle_Chess_4.jpg,Red_Triangle_Dots_2.jpg,right,961.6900000037858,false,low,NA,NA,NA,NA,NA,NA,NA,false
6A94hcRV,3ac6mfv6anv2a7u5af0lkpxs80hhzh,3m1cvsfp64ig9cju8fci1uubcy0aq2,6A94hcRV,2020-0188,2020-05-21,13:08:35,13:30:35,NA,incomplete,97,number,0,left,Purple_Circle_Stripes_1.jpg,Green_Star_Grid_1.jpg,Red_Plus_Stripes_2.jpg,left,1353.2150000027614,true,low,NA,NA,NA,NA,NA,NA,NA,false
6A94hcRV,3ac6mfv6anv2a7u5af0lkpxs80hhzh,3m1cvsfp64ig9cju8fci1uubcy0aq2,6A94hcRV,2020-0188,2020-05-21,13:08:35,13:30:35,NA,incomplete,98,number,1,right,Purple_Plus_Stripes_2.jpg,Red_Triangle_Stripes_1.jpg,Green_Circle_Grid_2.jpg,left,1009.060000004014,false,low,NA,NA,NA,NA,NA,NA,NA,false
6A94hcRV,3ac6mfv6anv2a7u5af0lkpxs80hhzh,3m1cvsfp64ig9cju8fci1uubcy0aq2,6A94hcRV,2020-0188,2020-05-21,13:08:35,13:30:35,NA,incomplete,99,number,0,left,Green_Circle_Stripes_4.jpg,Purple_Triangle_Chess_4.jpg,Blue_Star_Stripes_2.jpg,right,1059.5200000025798,false,low,NA,NA,NA,NA,NA,NA,NA,false
6A94hcRV,3ac6mfv6anv2a7u5af0lkpxs80hhzh,3m1cvsfp64ig9cju8fci1uubcy0aq2,6A94hcRV,2020-0188,2020-05-21,13:08:35,13:30:35,NA,incomplete,100,number,1,left,Blue_Triangle_Grid_1.jpg,Purple_Star_Dots_1.jpg,Red_Plus_Grid_2.jpg,right,1124.0200000028126,false,low,NA,NA,NA,NA,NA,NA,NA,false
6A94hcRV,3ac6mfv6anv2a7u5af0lkpxs80hhzh,3m1cvsfp64ig9cju8fci1uubcy0aq2,6A94hcRV,2020-0188,2020-05-21,13:08:35,13:30:35,NA,incomplete,101,number,1,left,Purple_Plus_Dots_4.jpg,Blue_Triangle_Grid_4.jpg,Red_Star_Dots_1.jpg,left,805.8049999962095,true,low,NA,NA,NA,NA,NA,NA,NA,false
6A94hcRV,3ac6mfv6anv2a7u5af0lkpxs80hhzh,3m1cvsfp64ig9cju8fci1uubcy0aq2,6A94hcRV,2020-0188,2020-05-21,13:08:35,13:30:35,NA,incomplete,102,number,1,left,Purple_Plus_Grid_3.jpg,Red_Star_Dots_3.jpg,Green_Triangle_Grid_2.jpg,left,800.8300000001909,true,low,NA,NA,NA,NA,NA,NA,NA,false
6A94hcRV,3ac6mfv6anv2a7u5af0lkpxs80hhzh,3m1cvsfp64ig9cju8fci1uubcy0aq2,6A94hcRV,2020-0188,2020-05-21,13:08:35,13:30:35,NA,incomplete,103,number,1,left,Green_Plus_Chess_2.jpg,Red_Circle_Dots_2.jpg,Blue_Star_Chess_1.jpg,left,768.1649999941001,true,low,NA,NA,NA,NA,NA,NA,NA,false
6A94hcRV,3ac6mfv6anv2a7u5af0lkpxs80hhzh,3m1cvsfp64ig9cju8fci1uubcy0aq2,6A94hcRV,2020-0188,2020-05-21,13:08:35,13:30:35,NA,incomplete,104,number,1,left,Green_Circle_Grid_1.jpg,Purple_Plus_Dots_1.jpg,Blue_Triangle_Grid_4.jpg,left,768.7049999949522,true,low,NA,NA,NA,NA,NA,NA,NA,false
6A94hcRV,3ac6mfv6anv2a7u5af0lkpxs80hhzh,3m1cvsfp64ig9cju8fci1uubcy0aq2,6A94hcRV,2020-0188,2020-05-21,13:08:35,13:30:35,NA,incomplete,105,number,1,left,Red_Circle_Grid_1.jpg,Blue_Triangle_Dots_1.jpg,Purple_Plus_Grid_3.jpg,left,832.2150000021793,true,low,NA,NA,NA,NA,NA,NA,NA,false
6A94hcRV,3ac6mfv6anv2a7u5af0lkpxs80hhzh,3m1cvsfp64ig9cju8fci1uubcy0aq2,6A94hcRV,2020-0188,2020-05-21,13:08:35,13:30:35,NA,incomplete,106,number,1,right,Red_Circle_Chess_4.jpg,Purple_Star_Chess_2.jpg,Green_Triangle_Dots_4.jpg,right,667.9899999945192,true,low,NA,NA,NA,NA,NA,NA,NA,false
6A94hcRV,3ac6mfv6anv2a7u5af0lkpxs80hhzh,3m1cvsfp64ig9cju8fci1uubcy0aq2,6A94hcRV,2020-0188,2020-05-21,13:08:35,13:30:35,NA,incomplete,107,number,1,left,Purple_Plus_Chess_2.jpg,Red_Circle_Stripes_2.jpg,Blue_Star_Chess_1.jpg,left,803.8100000048289,true,low,NA,NA,NA,NA,NA,NA,NA,false
6A94hcRV,3ac6mfv6anv2a7u5af0lkpxs80hhzh,3m1cvsfp64ig9cju8fci1uubcy0aq2,6A94hcRV,2020-0188,2020-05-21,13:08:35,13:30:35,NA,incomplete,108,number,1,left,Purple_Circle_Grid_4.jpg,Green_Plus_Chess_4.jpg,Blue_Star_Grid_2.jpg,left,640.7600000019884,true,low,NA,NA,NA,NA,NA,NA,NA,false
6A94hcRV,3ac6mfv6anv2a7u5af0lkpxs80hhzh,3m1cvsfp64ig9cju8fci1uubcy0aq2,6A94hcRV,2020-0188,2020-05-21,13:08:35,13:30:35,NA,incomplete,109,number,0,left,Purple_Circle_Chess_3.jpg,Green_Plus_Grid_3.jpg,Red_Triangle_Chess_4.jpg,right,498.8050000028452,false,low,NA,NA,NA,NA,NA,NA,NA,false
6A94hcRV,3ac6mfv6anv2a7u5af0lkpxs80hhzh,3m1cvsfp64ig9cju8fci1uubcy0aq2,6A94hcRV,2020-0188,2020-05-21,13:08:35,13:30:35,NA,incomplete,110,number,1,right,Red_Circle_Dots_4.jpg,Purple_Plus_Dots_3.jpg,Blue_Triangle_Stripes_4.jpg,left,971.7900000031805,false,low,NA,NA,NA,NA,NA,NA,NA,false
6A94hcRV,3ac6mfv6anv2a7u5af0lkpxs80hhzh,3m1cvsfp64ig9cju8fci1uubcy0aq2,6A94hcRV,2020-0188,2020-05-21,13:08:35,13:30:35,NA,incomplete,111,number,0,left,Red_Triangle_Chess_3.jpg,Green_Circle_Grid_3.jpg,Blue_Plus_Chess_4.jpg,left,930.1950000007637,true,low,NA,NA,NA,NA,NA,NA,NA,false
6A94hcRV,3ac6mfv6anv2a7u5af0lkpxs80hhzh,3m1cvsfp64ig9cju8fci1uubcy0aq2,6A94hcRV,2020-0188,2020-05-21,13:08:35,13:30:35,NA,incomplete,112,number,1,left,Blue_Triangle_Stripes_3.jpg,Red_Circle_Dots_3.jpg,Purple_Plus_Stripes_1.jpg,right,1137.0800000004238,false,low,NA,NA,NA,NA,NA,NA,NA,false
6A94hcRV,3ac6mfv6anv2a7u5af0lkpxs80hhzh,3m1cvsfp64ig9cju8fci1uubcy0aq2,6A94hcRV,2020-0188,2020-05-21,13:08:35,13:30:35,NA,incomplete,113,number,1,right,Green_Plus_Chess_2.jpg,Purple_Triangle_Chess_4.jpg,Blue_Star_Grid_2.jpg,left,982.219999997993,false,low,NA,NA,NA,NA,NA,NA,NA,false
6A94hcRV,3ac6mfv6anv2a7u5af0lkpxs80hhzh,3m1cvsfp64ig9cju8fci1uubcy0aq2,6A94hcRV,2020-0188,2020-05-21,13:08:35,13:30:35,NA,incomplete,114,number,1,right,Blue_Star_Grid_3.jpg,Red_Plus_Grid_1.jpg,Purple_Triangle_Dots_3.jpg,left,924.3249999999534,false,low,NA,NA,NA,NA,NA,NA,NA,false
6A94hcRV,3ac6mfv6anv2a7u5af0lkpxs80hhzh,3m1cvsfp64ig9cju8fci1uubcy0aq2,6A94hcRV,2020-0188,2020-05-21,13:08:35,13:30:35,NA,incomplete,115,number,1,left,Green_Star_Chess_1.jpg,Blue_Triangle_Grid_1.jpg,Purple_Circle_Chess_4.jpg,left,725.6350000025705,true,low,NA,NA,NA,NA,NA,NA,NA,false
6A94hcRV,3ac6mfv6anv2a7u5af0lkpxs80hhzh,3m1cvsfp64ig9cju8fci1uubcy0aq2,6A94hcRV,2020-0188,2020-05-21,13:08:35,13:30:35,NA,incomplete,116,number,1,right,Blue_Circle_Grid_3.jpg,Green_Plus_Grid_2.jpg,Purple_Star_Stripes_3.jpg,right,818.894999996759,true,low,NA,NA,NA,NA,NA,NA,NA,false
6A94hcRV,3ac6mfv6anv2a7u5af0lkpxs80hhzh,3m1cvsfp64ig9cju8fci1uubcy0aq2,6A94hcRV,2020-0188,2020-05-21,13:08:35,13:30:35,NA,incomplete,117,number,1,left,Purple_Circle_Chess_2.jpg,Red_Star_Dots_2.jpg,Blue_Plus_Chess_3.jpg,left,670.3550000019604,true,low,NA,NA,NA,NA,NA,NA,NA,false
6A94hcRV,3ac6mfv6anv2a7u5af0lkpxs80hhzh,3m1cvsfp64ig9cju8fci1uubcy0aq2,6A94hcRV,2020-0188,2020-05-21,13:08:35,13:30:35,NA,incomplete,118,number,0,right,Blue_Circle_Stripes_4.jpg,Green_Star_Stripes_3.jpg,Red_Triangle_Grid_4.jpg,right,1139.2600000036182,true,low,NA,NA,NA,NA,NA,NA,NA,false
6A94hcRV,3ac6mfv6anv2a7u5af0lkpxs80hhzh,3m1cvsfp64ig9cju8fci1uubcy0aq2,6A94hcRV,2020-0188,2020-05-21,13:08:35,13:30:35,NA,incomplete,119,number,1,right,Blue_Triangle_Stripes_4.jpg,Purple_Star_Stripes_3.jpg,Red_Plus_Grid_4.jpg,left,958.4099999993341,false,low,NA,NA,NA,NA,NA,NA,NA,false
6A94hcRV,3ac6mfv6anv2a7u5af0lkpxs80hhzh,3m1cvsfp64ig9cju8fci1uubcy0aq2,6A94hcRV,2020-0188,2020-05-21,13:08:35,13:30:35,NA,incomplete,120,color,1,right,Blue_Plus_Chess_2.jpg,Red_Plus_Dots_3.jpg,Blue_Star_Grid_1.jpg,NA,NA,NA,low,NA,NA,NA,NA,NA,NA,NA,false
6A94hcRV,3ac6mfv6anv2a7u5af0lkpxs80hhzh,3m1cvsfp64ig9cju8fci1uubcy0aq2,6A94hcRV,2020-0188,2020-05-21,13:08:35,13:30:35,NA,incomplete,121,color,0,left,Red_Circle_Stripes_3.jpg,Red_Star_Chess_4.jpg,Green_Circle_Grid_2.jpg,left,603.0850000024075,true,low,NA,NA,NA,NA,NA,NA,NA,false
6A94hcRV,3ac6mfv6anv2a7u5af0lkpxs80hhzh,3m1cvsfp64ig9cju8fci1uubcy0aq2,6A94hcRV,2020-0188,2020-05-21,13:08:35,13:30:35,NA,incomplete,122,color,1,right,Green_Plus_Stripes_4.jpg,Red_Plus_Dots_1.jpg,Green_Triangle_Chess_3.jpg,left,1127.330000002985,false,low,NA,NA,NA,NA,NA,NA,NA,false
6A94hcRV,3ac6mfv6anv2a7u5af0lkpxs80hhzh,3m1cvsfp64ig9cju8fci1uubcy0aq2,6A94hcRV,2020-0188,2020-05-21,13:08:35,13:30:35,NA,incomplete,123,color,1,left,Red_Circle_Dots_1.jpg,Red_Plus_Grid_4.jpg,Green_Circle_Chess_3.jpg,left,919.004999996163,true,low,NA,NA,NA,NA,NA,NA,NA,false
6A94hcRV,3ac6mfv6anv2a7u5af0lkpxs80hhzh,3m1cvsfp64ig9cju8fci1uubcy0aq2,6A94hcRV,2020-0188,2020-05-21,13:08:35,13:30:35,NA,incomplete,124,color,1,left,Blue_Star_Dots_3.jpg,Blue_Circle_Chess_2.jpg,Red_Star_Stripes_4.jpg,left,663.5249999961816,true,low,NA,NA,NA,NA,NA,NA,NA,false
6A94hcRV,3ac6mfv6anv2a7u5af0lkpxs80hhzh,3m1cvsfp64ig9cju8fci1uubcy0aq2,6A94hcRV,2020-0188,2020-05-21,13:08:35,13:30:35,NA,incomplete,125,color,0,left,Red_Star_Grid_4.jpg,Red_Plus_Chess_2.jpg,Purple_Star_Stripes_3.jpg,left,571.6549999996787,true,low,NA,NA,NA,NA,NA,NA,NA,false
6A94hcRV,3ac6mfv6anv2a7u5af0lkpxs80hhzh,3m1cvsfp64ig9cju8fci1uubcy0aq2,6A94hcRV,2020-0188,2020-05-21,13:08:35,13:30:35,NA,incomplete,126,color,1,left,Green_Circle_Chess_1.jpg,Green_Triangle_Dots_3.jpg,Blue_Circle_Grid_4.jpg,right,894.4150000025984,false,low,NA,NA,NA,NA,NA,NA,NA,false
6A94hcRV,3ac6mfv6anv2a7u5af0lkpxs80hhzh,3m1cvsfp64ig9cju8fci1uubcy0aq2,6A94hcRV,2020-0188,2020-05-21,13:08:35,13:30:35,NA,incomplete,127,color,0,left,Blue_Plus_Grid_1.jpg,Blue_Circle_Chess_2.jpg,Purple_Plus_Dots_3.jpg,left,631.7750000015367,true,low,NA,NA,NA,NA,NA,NA,NA,false
6A94hcRV,3ac6mfv6anv2a7u5af0lkpxs80hhzh,3m1cvsfp64ig9cju8fci1uubcy0aq2,6A94hcRV,2020-0188,2020-05-21,13:08:35,13:30:35,NA,incomplete,128,color,1,left,Blue_Plus_Chess_1.jpg,Blue_Triangle_Grid_4.jpg,Red_Plus_Stripes_3.jpg,left,728.4250000012107,true,low,NA,NA,NA,NA,NA,NA,NA,false
6A94hcRV,3ac6mfv6anv2a7u5af0lkpxs80hhzh,3m1cvsfp64ig9cju8fci1uubcy0aq2,6A94hcRV,2020-0188,2020-05-21,13:08:35,13:30:35,NA,incomplete,129,color,1,right,Purple_Plus_Grid_1.jpg,Red_Plus_Chess_2.jpg,Purple_Star_Dots_3.jpg,right,747.1950000035577,true,low,NA,NA,NA,NA,NA,NA,NA,false
6A94hcRV,3ac6mfv6anv2a7u5af0lkpxs80hhzh,3m1cvsfp64ig9cju8fci1uubcy0aq2,6A94hcRV,2020-0188,2020-05-21,13:08:35,13:30:35,NA,incomplete,130,color,1,right,Blue_Star_Dots_3.jpg,Red_Star_Grid_1.jpg,Blue_Plus_Chess_4.jpg,right,625.0100000033854,true,low,NA,NA,NA,NA,NA,NA,NA,false
6A94hcRV,3ac6mfv6anv2a7u5af0lkpxs80hhzh,3m1cvsfp64ig9cju8fci1uubcy0aq2,6A94hcRV,2020-0188,2020-05-21,13:08:35,13:30:35,NA,incomplete,131,color,0,right,Purple_Plus_Dots_4.jpg,Red_Plus_Chess_1.jpg,Purple_Triangle_Stripes_3.jpg,right,621.1600000024773,true,low,NA,NA,NA,NA,NA,NA,NA,false
6A94hcRV,3ac6mfv6anv2a7u5af0lkpxs80hhzh,3m1cvsfp64ig9cju8fci1uubcy0aq2,6A94hcRV,2020-0188,2020-05-21,13:08:35,13:30:35,NA,incomplete,132,color,1,right,Purple_Plus_Grid_4.jpg,Green_Plus_Chess_2.jpg,Purple_Star_Stripes_3.jpg,left,783.864999997546,false,low,NA,NA,NA,NA,NA,NA,NA,false
6A94hcRV,3ac6mfv6anv2a7u5af0lkpxs80hhzh,3m1cvsfp64ig9cju8fci1uubcy0aq2,6A94hcRV,2020-0188,2020-05-21,13:08:35,13:30:35,NA,incomplete,133,color,1,left,Green_Triangle_Chess_3.jpg,Green_Plus_Stripes_4.jpg,Purple_Triangle_Grid_1.jpg,left,940.2550000012852,true,low,NA,NA,NA,NA,NA,NA,NA,false
6A94hcRV,3ac6mfv6anv2a7u5af0lkpxs80hhzh,3m1cvsfp64ig9cju8fci1uubcy0aq2,6A94hcRV,2020-0188,2020-05-21,13:08:35,13:30:35,NA,incomplete,134,color,1,right,Green_Circle_Dots_1.jpg,Blue_Circle_Chess_2.jpg,Green_Plus_Stripes_4.jpg,right,827.5900000007823,true,low,NA,NA,NA,NA,NA,NA,NA,false
6A94hcRV,3ac6mfv6anv2a7u5af0lkpxs80hhzh,3m1cvsfp64ig9cju8fci1uubcy0aq2,6A94hcRV,2020-0188,2020-05-21,13:08:35,13:30:35,NA,incomplete,135,color,1,right,Green_Circle_Chess_3.jpg,Purple_Circle_Stripes_2.jpg,Green_Triangle_Grid_1.jpg,right,609.375,true,low,NA,NA,NA,NA,NA,NA,NA,false
6A94hcRV,3ac6mfv6anv2a7u5af0lkpxs80hhzh,3m1cvsfp64ig9cju8fci1uubcy0aq2,6A94hcRV,2020-0188,2020-05-21,13:08:35,13:30:35,NA,incomplete,136,color,1,right,Red_Triangle_Stripes_2.jpg,Blue_Triangle_Chess_3.jpg,Red_Circle_Dots_1.jpg,right,913.4300000004005,true,low,NA,NA,NA,NA,NA,NA,NA,false
6A94hcRV,3ac6mfv6anv2a7u5af0lkpxs80hhzh,3m1cvsfp64ig9cju8fci1uubcy0aq2,6A94hcRV,2020-0188,2020-05-21,13:08:35,13:30:35,NA,incomplete,137,color,0,right,Blue_Circle_Chess_3.jpg,Green_Circle_Stripes_4.jpg,Blue_Plus_Dots_2.jpg,right,1002.3650000002235,true,low,NA,NA,NA,NA,NA,NA,NA,false
6A94hcRV,3ac6mfv6anv2a7u5af0lkpxs80hhzh,3m1cvsfp64ig9cju8fci1uubcy0aq2,6A94hcRV,2020-0188,2020-05-21,13:08:35,13:30:35,NA,incomplete,138,color,1,right,Red_Triangle_Grid_3.jpg,Green_Triangle_Dots_4.jpg,Red_Star_Stripes_2.jpg,left,957.8199999961071,false,low,NA,NA,NA,NA,NA,NA,NA,false
6A94hcRV,3ac6mfv6anv2a7u5af0lkpxs80hhzh,3m1cvsfp64ig9cju8fci1uubcy0aq2,6A94hcRV,2020-0188,2020-05-21,13:08:35,13:30:35,NA,incomplete,139,color,1,left,Red_Plus_Chess_4.jpg,Red_Star_Dots_1.jpg,Purple_Plus_Grid_2.jpg,left,1216.04999999539,true,low,NA,NA,NA,NA,NA,NA,NA,false
6A94hcRV,3ac6mfv6anv2a7u5af0lkpxs80hhzh,3m1cvsfp64ig9cju8fci1uubcy0aq2,6A94hcRV,2020-0188,2020-05-21,13:08:35,13:30:35,NA,incomplete,140,shape,1,left,Purple_Circle_Stripes_4.jpg,Blue_Circle_Grid_3.jpg,Purple_Star_Dots_2.jpg,right,594.1949999977369,false,low,NA,NA,NA,NA,NA,NA,NA,false
6A94hcRV,3ac6mfv6anv2a7u5af0lkpxs80hhzh,3m1cvsfp64ig9cju8fci1uubcy0aq2,6A94hcRV,2020-0188,2020-05-21,13:08:35,13:30:35,NA,incomplete,141,shape,1,right,Blue_Star_Stripes_1.jpg,Blue_Plus_Chess_3.jpg,Green_Star_Dots_4.jpg,left,573.0400000028312,false,low,NA,NA,NA,NA,NA,NA,NA,false
6A94hcRV,3ac6mfv6anv2a7u5af0lkpxs80hhzh,3m1cvsfp64ig9cju8fci1uubcy0aq2,6A94hcRV,2020-0188,2020-05-21,13:08:35,13:30:35,NA,incomplete,142,shape,0,right,Blue_Triangle_Chess_1.jpg,Blue_Star_Stripes_2.jpg,Green_Triangle_Dots_3.jpg,right,971.1099999984726,true,low,NA,NA,NA,NA,NA,NA,NA,false
6A94hcRV,3ac6mfv6anv2a7u5af0lkpxs80hhzh,3m1cvsfp64ig9cju8fci1uubcy0aq2,6A94hcRV,2020-0188,2020-05-21,13:08:35,13:30:35,NA,incomplete,143,shape,1,left,Red_Star_Dots_3.jpg,Purple_Star_Chess_4.jpg,Red_Triangle_Stripes_1.jpg,right,622.9050000037532,false,low,NA,NA,NA,NA,NA,NA,NA,false
6A94hcRV,3ac6mfv6anv2a7u5af0lkpxs80hhzh,3m1cvsfp64ig9cju8fci1uubcy0aq2,6A94hcRV,2020-0188,2020-05-21,13:08:35,13:30:35,NA,incomplete,144,shape,1,left,Red_Triangle_Stripes_1.jpg,Purple_Triangle_Grid_3.jpg,Red_Plus_Dots_2.jpg,left,879.2700000049081,true,low,NA,NA,NA,NA,NA,NA,NA,false
6A94hcRV,3ac6mfv6anv2a7u5af0lkpxs80hhzh,3m1cvsfp64ig9cju8fci1uubcy0aq2,6A94hcRV,2020-0188,2020-05-21,13:08:35,13:30:35,NA,incomplete,145,shape,1,right,Blue_Star_Stripes_2.jpg,Blue_Circle_Grid_1.jpg,Red_Star_Dots_3.jpg,right,901.1749999991152,true,low,NA,NA,NA,NA,NA,NA,NA,false
6A94hcRV,3ac6mfv6anv2a7u5af0lkpxs80hhzh,3m1cvsfp64ig9cju8fci1uubcy0aq2,6A94hcRV,2020-0188,2020-05-21,13:08:35,13:30:35,NA,incomplete,146,shape,0,right,Blue_Triangle_Chess_2.jpg,Blue_Star_Stripes_4.jpg,Red_Triangle_Grid_1.jpg,left,877.3749999965075,false,low,NA,NA,NA,NA,NA,NA,NA,false
6A94hcRV,3ac6mfv6anv2a7u5af0lkpxs80hhzh,3m1cvsfp64ig9cju8fci1uubcy0aq2,6A94hcRV,2020-0188,2020-05-21,13:08:35,13:30:35,NA,incomplete,147,shape,1,left,Green_Circle_Chess_2.jpg,Red_Circle_Dots_3.jpg,Green_Plus_Grid_1.jpg,right,941.8950000035111,false,low,NA,NA,NA,NA,NA,NA,NA,false
6A94hcRV,3ac6mfv6anv2a7u5af0lkpxs80hhzh,3m1cvsfp64ig9cju8fci1uubcy0aq2,6A94hcRV,2020-0188,2020-05-21,13:08:35,13:30:35,NA,incomplete,148,shape,1,right,Blue_Triangle_Chess_1.jpg,Blue_Circle_Grid_3.jpg,Green_Triangle_Dots_2.jpg,left,1038.5749999987893,false,low,NA,NA,NA,NA,NA,NA,NA,false
6A94hcRV,3ac6mfv6anv2a7u5af0lkpxs80hhzh,3m1cvsfp64ig9cju8fci1uubcy0aq2,6A94hcRV,2020-0188,2020-05-21,13:08:35,13:30:35,NA,incomplete,149,shape,1,right,Green_Triangle_Chess_2.jpg,Green_Star_Dots_4.jpg,Blue_Triangle_Grid_1.jpg,left,579.2849999996834,false,low,NA,NA,NA,NA,NA,NA,NA,false
6A94hcRV,3ac6mfv6anv2a7u5af0lkpxs80hhzh,3m1cvsfp64ig9cju8fci1uubcy0aq2,6A94hcRV,2020-0188,2020-05-21,13:08:35,13:30:35,NA,incomplete,150,shape,1,right,Purple_Star_Chess_1.jpg,Purple_Circle_Dots_4.jpg,Blue_Star_Stripes_2.jpg,left,654.6100000049919,false,low,NA,NA,NA,NA,NA,NA,NA,false
6A94hcRV,3ac6mfv6anv2a7u5af0lkpxs80hhzh,3m1cvsfp64ig9cju8fci1uubcy0aq2,6A94hcRV,2020-0188,2020-05-21,13:08:35,13:30:35,NA,incomplete,151,shape,1,right,Purple_Triangle_Grid_1.jpg,Purple_Circle_Stripes_3.jpg,Blue_Triangle_Chess_2.jpg,right,999.8400000040419,true,low,NA,NA,NA,NA,NA,NA,NA,false
6A94hcRV,3ac6mfv6anv2a7u5af0lkpxs80hhzh,3m1cvsfp64ig9cju8fci1uubcy0aq2,6A94hcRV,2020-0188,2020-05-21,13:08:35,13:30:35,NA,incomplete,152,shape,1,left,Purple_Circle_Stripes_1.jpg,Blue_Circle_Dots_4.jpg,Purple_Plus_Chess_3.jpg,left,875.5949999978766,true,low,NA,NA,NA,NA,NA,NA,NA,false
6A94hcRV,3ac6mfv6anv2a7u5af0lkpxs80hhzh,3m1cvsfp64ig9cju8fci1uubcy0aq2,6A94hcRV,2020-0188,2020-05-21,13:08:35,13:30:35,NA,incomplete,153,shape,0,right,Purple_Star_Dots_2.jpg,Purple_Triangle_Chess_4.jpg,Blue_Star_Grid_3.jpg,right,924.3999999961816,true,low,NA,NA,NA,NA,NA,NA,NA,false
6A94hcRV,3ac6mfv6anv2a7u5af0lkpxs80hhzh,3m1cvsfp64ig9cju8fci1uubcy0aq2,6A94hcRV,2020-0188,2020-05-21,13:08:35,13:30:35,NA,incomplete,154,shape,1,right,Purple_Plus_Dots_4.jpg,Purple_Star_Stripes_2.jpg,Blue_Plus_Grid_1.jpg,left,532.4949999994133,false,low,NA,NA,NA,NA,NA,NA,NA,false
6A94hcRV,3ac6mfv6anv2a7u5af0lkpxs80hhzh,3m1cvsfp64ig9cju8fci1uubcy0aq2,6A94hcRV,2020-0188,2020-05-21,13:08:35,13:30:35,NA,incomplete,155,shape,1,left,Blue_Circle_Dots_4.jpg,Green_Circle_Grid_2.jpg,Blue_Triangle_Chess_3.jpg,right,620.6900000034366,false,low,NA,NA,NA,NA,NA,NA,NA,false
6A94hcRV,3ac6mfv6anv2a7u5af0lkpxs80hhzh,3m1cvsfp64ig9cju8fci1uubcy0aq2,6A94hcRV,2020-0188,2020-05-21,13:08:35,13:30:35,NA,incomplete,156,shape,1,right,Green_Star_Grid_1.jpg,Green_Plus_Stripes_2.jpg,Purple_Star_Chess_3.jpg,right,936.3599999996368,true,low,NA,NA,NA,NA,NA,NA,NA,false
6A94hcRV,3ac6mfv6anv2a7u5af0lkpxs80hhzh,3m1cvsfp64ig9cju8fci1uubcy0aq2,6A94hcRV,2020-0188,2020-05-21,13:08:35,13:30:35,NA,incomplete,157,shape,1,left,Blue_Plus_Chess_4.jpg,Green_Plus_Stripes_3.jpg,Blue_Triangle_Dots_2.jpg,left,918.5849999994971,true,low,NA,NA,NA,NA,NA,NA,NA,false
6A94hcRV,3ac6mfv6anv2a7u5af0lkpxs80hhzh,3m1cvsfp64ig9cju8fci1uubcy0aq2,6A94hcRV,2020-0188,2020-05-21,13:08:35,13:30:35,NA,incomplete,158,shape,1,right,Green_Plus_Stripes_2.jpg,Green_Triangle_Grid_3.jpg,Purple_Plus_Chess_4.jpg,right,822.3250000008848,true,low,NA,NA,NA,NA,NA,NA,NA,false
6A94hcRV,3ac6mfv6anv2a7u5af0lkpxs80hhzh,3m1cvsfp64ig9cju8fci1uubcy0aq2,6A94hcRV,2020-0188,2020-05-21,13:08:35,13:30:35,NA,incomplete,159,shape,0,right,Red_Triangle_Grid_2.jpg,Red_Star_Stripes_1.jpg,Green_Triangle_Dots_4.jpg,right,1137.445000000298,true,low,NA,NA,NA,NA,NA,NA,NA,false
6A94hcRV,3ac6mfv6anv2a7u5af0lkpxs80hhzh,3m1cvsfp64ig9cju8fci1uubcy0aq2,6A94hcRV,2020-0188,2020-05-21,13:08:35,13:30:35,NA,incomplete,160,color,1,right,Green_Plus_Stripes_2.jpg,Blue_Plus_Chess_1.jpg,Green_Triangle_Dots_3.jpg,left,1377.5049999966286,false,low,NA,NA,NA,NA,NA,NA,NA,false
6A94hcRV,3ac6mfv6anv2a7u5af0lkpxs80hhzh,3m1cvsfp64ig9cju8fci1uubcy0aq2,6A94hcRV,2020-0188,2020-05-21,13:08:35,13:30:35,NA,incomplete,161,color,1,right,Purple_Plus_Dots_2.jpg,Red_Plus_Grid_4.jpg,Purple_Circle_Stripes_1.jpg,right,716.0549999971408,true,low,NA,NA,NA,NA,NA,NA,NA,false
6A94hcRV,3ac6mfv6anv2a7u5af0lkpxs80hhzh,3m1cvsfp64ig9cju8fci1uubcy0aq2,6A94hcRV,2020-0188,2020-05-21,13:08:35,13:30:35,NA,incomplete,162,color,1,right,Green_Circle_Grid_2.jpg,Purple_Circle_Dots_3.jpg,Green_Plus_Chess_1.jpg,right,732.6049999971874,true,low,NA,NA,NA,NA,NA,NA,NA,false
6A94hcRV,3ac6mfv6anv2a7u5af0lkpxs80hhzh,3m1cvsfp64ig9cju8fci1uubcy0aq2,6A94hcRV,2020-0188,2020-05-21,13:08:35,13:30:35,NA,incomplete,163,color,1,right,Purple_Circle_Stripes_1.jpg,Blue_Circle_Grid_3.jpg,Purple_Star_Dots_4.jpg,left,948.155000005383,false,low,NA,NA,NA,NA,NA,NA,NA,false
6A94hcRV,3ac6mfv6anv2a7u5af0lkpxs80hhzh,3m1cvsfp64ig9cju8fci1uubcy0aq2,6A94hcRV,2020-0188,2020-05-21,13:08:35,13:30:35,NA,incomplete,164,color,1,right,Red_Triangle_Chess_2.jpg,Blue_Triangle_Dots_4.jpg,Red_Plus_Stripes_1.jpg,right,671.6999999990221,true,low,NA,NA,NA,NA,NA,NA,NA,false
6A94hcRV,3ac6mfv6anv2a7u5af0lkpxs80hhzh,3m1cvsfp64ig9cju8fci1uubcy0aq2,6A94hcRV,2020-0188,2020-05-21,13:08:35,13:30:35,NA,incomplete,165,color,1,left,Green_Plus_Stripes_4.jpg,Green_Star_Chess_3.jpg,Red_Plus_Dots_1.jpg,right,963.5749999943655,false,low,NA,NA,NA,NA,NA,NA,NA,false
6A94hcRV,3ac6mfv6anv2a7u5af0lkpxs80hhzh,3m1cvsfp64ig9cju8fci1uubcy0aq2,6A94hcRV,2020-0188,2020-05-21,13:08:35,13:30:35,NA,incomplete,166,color,1,left,Green_Circle_Chess_2.jpg,Green_Triangle_Grid_4.jpg,Purple_Circle_Stripes_3.jpg,left,532.7550000003539,true,low,NA,NA,NA,NA,NA,NA,NA,false
6A94hcRV,3ac6mfv6anv2a7u5af0lkpxs80hhzh,3m1cvsfp64ig9cju8fci1uubcy0aq2,6A94hcRV,2020-0188,2020-05-21,13:08:35,13:30:35,NA,incomplete,167,color,1,left,Green_Star_Stripes_1.jpg,Green_Circle_Chess_4.jpg,Purple_Star_Grid_3.jpg,left,506.09500000439584,true,low,NA,NA,NA,NA,NA,NA,NA,false
6A94hcRV,3ac6mfv6anv2a7u5af0lkpxs80hhzh,3m1cvsfp64ig9cju8fci1uubcy0aq2,6A94hcRV,2020-0188,2020-05-21,13:08:35,13:30:35,NA,incomplete,168,color,1,left,Green_Star_Dots_3.jpg,Green_Triangle_Stripes_2.jpg,Blue_Star_Chess_1.jpg,left,473.48999999673106,true,low,NA,NA,NA,NA,NA,NA,NA,false
6A94hcRV,3ac6mfv6anv2a7u5af0lkpxs80hhzh,3m1cvsfp64ig9cju8fci1uubcy0aq2,6A94hcRV,2020-0188,2020-05-21,13:08:35,13:30:35,NA,incomplete,169,color,1,right,Green_Circle_Stripes_4.jpg,Red_Circle_Dots_3.jpg,Green_Triangle_Chess_2.jpg,right,528.249999995809,true,low,NA,NA,NA,NA,NA,NA,NA,false
6A94hcRV,3ac6mfv6anv2a7u5af0lkpxs80hhzh,3m1cvsfp64ig9cju8fci1uubcy0aq2,6A94hcRV,2020-0188,2020-05-21,13:08:35,13:30:35,NA,incomplete,170,color,1,right,Blue_Triangle_Dots_2.jpg,Green_Triangle_Chess_4.jpg,Blue_Circle_Grid_1.jpg,right,756.294999999227,true,low,NA,NA,NA,NA,NA,NA,NA,false
6A94hcRV,3ac6mfv6anv2a7u5af0lkpxs80hhzh,3m1cvsfp64ig9cju8fci1uubcy0aq2,6A94hcRV,2020-0188,2020-05-21,13:08:35,13:30:35,NA,incomplete,171,color,1,right,Blue_Plus_Grid_3.jpg,Green_Plus_Stripes_2.jpg,Blue_Star_Chess_1.jpg,right,881.7399999969639,true,low,NA,NA,NA,NA,NA,NA,NA,false
6A94hcRV,3ac6mfv6anv2a7u5af0lkpxs80hhzh,3m1cvsfp64ig9cju8fci1uubcy0aq2,6A94hcRV,2020-0188,2020-05-21,13:08:35,13:30:35,NA,incomplete,172,color,0,right,Blue_Circle_Dots_3.jpg,Purple_Circle_Stripes_1.jpg,Blue_Plus_Grid_4.jpg,right,641.2199999976438,true,low,NA,NA,NA,NA,NA,NA,NA,false
6A94hcRV,3ac6mfv6anv2a7u5af0lkpxs80hhzh,3m1cvsfp64ig9cju8fci1uubcy0aq2,6A94hcRV,2020-0188,2020-05-21,13:08:35,13:30:35,NA,incomplete,173,color,1,right,Blue_Triangle_Grid_2.jpg,Purple_Triangle_Stripes_4.jpg,Blue_Star_Chess_1.jpg,right,619.9049999995623,true,low,NA,NA,NA,NA,NA,NA,NA,false
6A94hcRV,3ac6mfv6anv2a7u5af0lkpxs80hhzh,3m1cvsfp64ig9cju8fci1uubcy0aq2,6A94hcRV,2020-0188,2020-05-21,13:08:35,13:30:35,NA,incomplete,174,color,1,right,Blue_Circle_Grid_4.jpg,Green_Circle_Chess_2.jpg,Blue_Plus_Dots_1.jpg,right,456.26000000629574,true,low,NA,NA,NA,NA,NA,NA,NA,false
6A94hcRV,3ac6mfv6anv2a7u5af0lkpxs80hhzh,3m1cvsfp64ig9cju8fci1uubcy0aq2,6A94hcRV,2020-0188,2020-05-21,13:08:35,13:30:35,NA,incomplete,175,color,0,right,Green_Plus_Dots_1.jpg,Red_Plus_Stripes_3.jpg,Green_Triangle_Grid_2.jpg,right,545.7950000052806,true,low,NA,NA,NA,NA,NA,NA,NA,false
6A94hcRV,3ac6mfv6anv2a7u5af0lkpxs80hhzh,3m1cvsfp64ig9cju8fci1uubcy0aq2,6A94hcRV,2020-0188,2020-05-21,13:08:35,13:30:35,NA,incomplete,176,color,1,right,Green_Circle_Grid_1.jpg,Blue_Circle_Chess_3.jpg,Green_Triangle_Stripes_2.jpg,right,457.81500000157394,true,low,NA,NA,NA,NA,NA,NA,NA,false
6A94hcRV,3ac6mfv6anv2a7u5af0lkpxs80hhzh,3m1cvsfp64ig9cju8fci1uubcy0aq2,6A94hcRV,2020-0188,2020-05-21,13:08:35,13:30:35,NA,incomplete,177,color,1,left,Red_Triangle_Grid_1.jpg,Red_Circle_Dots_2.jpg,Blue_Triangle_Stripes_3.jpg,left,658.9699999967124,true,low,NA,NA,NA,NA,NA,NA,NA,false
6A94hcRV,3ac6mfv6anv2a7u5af0lkpxs80hhzh,3m1cvsfp64ig9cju8fci1uubcy0aq2,6A94hcRV,2020-0188,2020-05-21,13:08:35,13:30:35,NA,incomplete,178,color,1,left,Green_Triangle_Dots_4.jpg,Green_Circle_Stripes_2.jpg,Red_Triangle_Chess_3.jpg,left,597.3200000007637,true,low,NA,NA,NA,NA,NA,NA,NA,false
6A94hcRV,3ac6mfv6anv2a7u5af0lkpxs80hhzh,3m1cvsfp64ig9cju8fci1uubcy0aq2,6A94hcRV,2020-0188,2020-05-21,13:08:35,13:30:35,NA,incomplete,179,color,1,left,Green_Star_Dots_1.jpg,Green_Plus_Grid_4.jpg,Blue_Star_Chess_2.jpg,left,510.3400000005495,true,low,NA,NA,NA,NA,NA,NA,NA,false
6A94hcRV,3ac6mfv6anv2a7u5af0lkpxs80hhzh,3m1cvsfp64ig9cju8fci1uubcy0aq2,6A94hcRV,2020-0188,2020-05-21,13:08:35,13:30:35,NA,incomplete,180,shape,0,right,Green_Star_Grid_2.jpg,Green_Plus_Chess_1.jpg,Red_Star_Dots_3.jpg,left,484.04000000306405,false,low,NA,NA,NA,NA,NA,NA,NA,false
6A94hcRV,3ac6mfv6anv2a7u5af0lkpxs80hhzh,3m1cvsfp64ig9cju8fci1uubcy0aq2,6A94hcRV,2020-0188,2020-05-21,13:08:35,13:30:35,NA,incomplete,181,shape,1,left,Red_Star_Grid_3.jpg,Purple_Star_Dots_4.jpg,Red_Triangle_Chess_2.jpg,right,475.81999999959953,false,low,NA,NA,NA,NA,NA,NA,NA,false
6A94hcRV,3ac6mfv6anv2a7u5af0lkpxs80hhzh,3m1cvsfp64ig9cju8fci1uubcy0aq2,6A94hcRV,2020-0188,2020-05-21,13:08:35,13:30:35,NA,incomplete,182,shape,0,left,Blue_Plus_Chess_3.jpg,Red_Plus_Dots_2.jpg,Blue_Triangle_Stripes_4.jpg,right,669.5350000010803,false,low,NA,NA,NA,NA,NA,NA,NA,false
6A94hcRV,3ac6mfv6anv2a7u5af0lkpxs80hhzh,3m1cvsfp64ig9cju8fci1uubcy0aq2,6A94hcRV,2020-0188,2020-05-21,13:08:35,13:30:35,NA,incomplete,183,shape,1,right,Blue_Star_Stripes_3.jpg,Blue_Plus_Chess_2.jpg,Red_Star_Grid_4.jpg,left,679.694999998901,false,low,NA,NA,NA,NA,NA,NA,NA,false
6A94hcRV,3ac6mfv6anv2a7u5af0lkpxs80hhzh,3m1cvsfp64ig9cju8fci1uubcy0aq2,6A94hcRV,2020-0188,2020-05-21,13:08:35,13:30:35,NA,incomplete,184,shape,1,left,Blue_Circle_Stripes_3.jpg,Purple_Circle_Grid_4.jpg,Blue_Plus_Chess_2.jpg,right,515.6550000028219,false,low,NA,NA,NA,NA,NA,NA,NA,false
6A94hcRV,3ac6mfv6anv2a7u5af0lkpxs80hhzh,3m1cvsfp64ig9cju8fci1uubcy0aq2,6A94hcRV,2020-0188,2020-05-21,13:08:35,13:30:35,NA,incomplete,185,shape,1,right,Purple_Plus_Grid_2.jpg,Purple_Circle_Chess_3.jpg,Blue_Plus_Dots_1.jpg,left,809.4400000046007,false,low,NA,NA,NA,NA,NA,NA,NA,false
6A94hcRV,3ac6mfv6anv2a7u5af0lkpxs80hhzh,3m1cvsfp64ig9cju8fci1uubcy0aq2,6A94hcRV,2020-0188,2020-05-21,13:08:35,13:30:35,NA,incomplete,186,shape,0,right,Red_Circle_Chess_3.jpg,Red_Triangle_Stripes_2.jpg,Blue_Circle_Grid_4.jpg,left,699.8700000040699,false,low,NA,NA,NA,NA,NA,NA,NA,false
6A94hcRV,3ac6mfv6anv2a7u5af0lkpxs80hhzh,3m1cvsfp64ig9cju8fci1uubcy0aq2,6A94hcRV,2020-0188,2020-05-21,13:08:35,13:30:35,NA,incomplete,187,shape,1,left,Red_Triangle_Chess_2.jpg,Purple_Triangle_Stripes_1.jpg,Red_Circle_Dots_4.jpg,right,571.6500000054948,false,low,NA,NA,NA,NA,NA,NA,NA,false
6A94hcRV,3ac6mfv6anv2a7u5af0lkpxs80hhzh,3m1cvsfp64ig9cju8fci1uubcy0aq2,6A94hcRV,2020-0188,2020-05-21,13:08:35,13:30:35,NA,incomplete,188,shape,1,right,Green_Triangle_Grid_4.jpg,Green_Plus_Dots_3.jpg,Red_Triangle_Stripes_2.jpg,left,672.8150000052992,false,low,NA,NA,NA,NA,NA,NA,NA,false
6A94hcRV,3ac6mfv6anv2a7u5af0lkpxs80hhzh,3m1cvsfp64ig9cju8fci1uubcy0aq2,6A94hcRV,2020-0188,2020-05-21,13:08:35,13:30:35,NA,incomplete,189,shape,1,right,Red_Plus_Stripes_3.jpg,Red_Circle_Grid_4.jpg,Blue_Plus_Chess_2.jpg,right,1168.3550000016112,true,low,NA,NA,NA,NA,NA,NA,NA,false
6A94hcRV,3ac6mfv6anv2a7u5af0lkpxs80hhzh,3m1cvsfp64ig9cju8fci1uubcy0aq2,6A94hcRV,2020-0188,2020-05-21,13:08:35,13:30:35,NA,incomplete,190,shape,1,left,Purple_Star_Dots_2.jpg,Red_Star_Grid_3.jpg,Purple_Triangle_Chess_4.jpg,left,1145.315000001574,true,low,NA,NA,NA,NA,NA,NA,NA,false
6A94hcRV,3ac6mfv6anv2a7u5af0lkpxs80hhzh,3m1cvsfp64ig9cju8fci1uubcy0aq2,6A94hcRV,2020-0188,2020-05-21,13:08:35,13:30:35,NA,incomplete,191,shape,0,left,Red_Plus_Stripes_4.jpg,Blue_Plus_Chess_1.jpg,Red_Star_Dots_2.jpg,left,880.5199999988545,true,low,NA,NA,NA,NA,NA,NA,NA,false
6A94hcRV,3ac6mfv6anv2a7u5af0lkpxs80hhzh,3m1cvsfp64ig9cju8fci1uubcy0aq2,6A94hcRV,2020-0188,2020-05-21,13:08:35,13:30:35,NA,incomplete,192,shape,1,left,Red_Triangle_Grid_1.jpg,Purple_Triangle_Stripes_2.jpg,Red_Star_Dots_4.jpg,right,455.9450000014622,false,low,NA,NA,NA,NA,NA,NA,NA,false
6A94hcRV,3ac6mfv6anv2a7u5af0lkpxs80hhzh,3m1cvsfp64ig9cju8fci1uubcy0aq2,6A94hcRV,2020-0188,2020-05-21,13:08:35,13:30:35,NA,incomplete,193,shape,0,right,Purple_Star_Grid_3.jpg,Purple_Circle_Stripes_4.jpg,Green_Star_Dots_1.jpg,left,683.8700000008103,false,low,NA,NA,NA,NA,NA,NA,NA,false
6A94hcRV,3ac6mfv6anv2a7u5af0lkpxs80hhzh,3m1cvsfp64ig9cju8fci1uubcy0aq2,6A94hcRV,2020-0188,2020-05-21,13:08:35,13:30:35,NA,incomplete,194,shape,1,right,Purple_Plus_Stripes_2.jpg,Purple_Star_Chess_4.jpg,Red_Plus_Grid_3.jpg,left,776.834999996936,false,low,NA,NA,NA,NA,NA,NA,NA,false
6A94hcRV,3ac6mfv6anv2a7u5af0lkpxs80hhzh,3m1cvsfp64ig9cju8fci1uubcy0aq2,6A94hcRV,2020-0188,2020-05-21,13:08:35,13:30:35,NA,incomplete,195,shape,1,right,Purple_Triangle_Grid_2.jpg,Purple_Star_Stripes_1.jpg,Green_Triangle_Dots_4.jpg,left,571.1750000047032,false,low,NA,NA,NA,NA,NA,NA,NA,false
6A94hcRV,3ac6mfv6anv2a7u5af0lkpxs80hhzh,3m1cvsfp64ig9cju8fci1uubcy0aq2,6A94hcRV,2020-0188,2020-05-21,13:08:35,13:30:35,NA,incomplete,196,shape,1,right,Red_Star_Dots_2.jpg,Red_Circle_Grid_4.jpg,Green_Star_Chess_1.jpg,left,543.7349999991711,false,low,NA,NA,NA,NA,NA,NA,NA,false
6A94hcRV,3ac6mfv6anv2a7u5af0lkpxs80hhzh,3m1cvsfp64ig9cju8fci1uubcy0aq2,6A94hcRV,2020-0188,2020-05-21,13:08:35,13:30:35,NA,incomplete,197,shape,1,left,Red_Plus_Stripes_2.jpg,Purple_Plus_Chess_3.jpg,Red_Star_Dots_4.jpg,left,911.9199999985285,true,low,NA,NA,NA,NA,NA,NA,NA,false
6A94hcRV,3ac6mfv6anv2a7u5af0lkpxs80hhzh,3m1cvsfp64ig9cju8fci1uubcy0aq2,6A94hcRV,2020-0188,2020-05-21,13:08:35,13:30:35,NA,incomplete,198,shape,1,right,Blue_Triangle_Dots_1.jpg,Blue_Circle_Grid_4.jpg,Purple_Triangle_Stripes_2.jpg,right,758.8449999967124,true,low,NA,NA,NA,NA,NA,NA,NA,false
6A94hcRV,3ac6mfv6anv2a7u5af0lkpxs80hhzh,3m1cvsfp64ig9cju8fci1uubcy0aq2,6A94hcRV,2020-0188,2020-05-21,13:08:35,13:30:35,NA,incomplete,199,shape,1,left,Blue_Circle_Grid_2.jpg,Red_Circle_Chess_1.jpg,Blue_Plus_Dots_4.jpg,left,789.1499999966472,true,low,NA,NA,NA,NA,NA,NA,NA,false
6A94hcRV,3ac6mfv6anv2a7u5af0lkpxs80hhzh,3m1cvsfp64ig9cju8fci1uubcy0aq2,6A94hcRV,2020-0188,2020-05-21,13:08:35,13:30:35,NA,incomplete,200,color,1,right,Green_Plus_Stripes_3.jpg,Red_Plus_Grid_2.jpg,Green_Star_Dots_4.jpg,left,770.7399999999907,false,low,NA,NA,NA,NA,NA,NA,NA,false
6A94hcRV,3ac6mfv6anv2a7u5af0lkpxs80hhzh,3m1cvsfp64ig9cju8fci1uubcy0aq2,6A94hcRV,2020-0188,2020-05-21,13:08:35,13:30:35,NA,incomplete,201,color,1,right,Blue_Star_Grid_2.jpg,Red_Star_Stripes_3.jpg,Blue_Plus_Dots_4.jpg,right,840.2849999982864,true,low,NA,NA,NA,NA,NA,NA,NA,false
6A94hcRV,3ac6mfv6anv2a7u5af0lkpxs80hhzh,3m1cvsfp64ig9cju8fci1uubcy0aq2,6A94hcRV,2020-0188,2020-05-21,13:08:35,13:30:35,NA,incomplete,202,color,1,left,Purple_Star_Grid_1.jpg,Purple_Circle_Stripes_3.jpg,Blue_Star_Dots_2.jpg,left,1018.3150000011083,true,low,NA,NA,NA,NA,NA,NA,NA,false
6A94hcRV,3ac6mfv6anv2a7u5af0lkpxs80hhzh,3m1cvsfp64ig9cju8fci1uubcy0aq2,6A94hcRV,2020-0188,2020-05-21,13:08:35,13:30:35,NA,incomplete,203,color,0,right,Blue_Star_Chess_2.jpg,Red_Star_Grid_1.jpg,Blue_Circle_Dots_4.jpg,right,603.6349999995437,true,low,NA,NA,NA,NA,NA,NA,NA,false
6A94hcRV,3ac6mfv6anv2a7u5af0lkpxs80hhzh,3m1cvsfp64ig9cju8fci1uubcy0aq2,6A94hcRV,2020-0188,2020-05-21,13:08:35,13:30:35,NA,incomplete,204,color,1,left,Red_Plus_Grid_3.jpg,Red_Triangle_Dots_2.jpg,Blue_Plus_Chess_4.jpg,left,580.3049999959767,true,low,NA,NA,NA,NA,NA,NA,NA,false
6A94hcRV,3ac6mfv6anv2a7u5af0lkpxs80hhzh,3m1cvsfp64ig9cju8fci1uubcy0aq2,6A94hcRV,2020-0188,2020-05-21,13:08:35,13:30:35,NA,incomplete,205,color,1,left,Blue_Plus_Chess_1.jpg,Blue_Circle_Grid_4.jpg,Red_Plus_Stripes_2.jpg,left,750.5499999970198,true,low,NA,NA,NA,NA,NA,NA,NA,false
6A94hcRV,3ac6mfv6anv2a7u5af0lkpxs80hhzh,3m1cvsfp64ig9cju8fci1uubcy0aq2,6A94hcRV,2020-0188,2020-05-21,13:08:35,13:30:35,NA,incomplete,206,color,1,left,Red_Plus_Dots_1.jpg,Red_Circle_Grid_2.jpg,Blue_Plus_Stripes_4.jpg,left,676.929999994114,true,low,NA,NA,NA,NA,NA,NA,NA,false
6A94hcRV,3ac6mfv6anv2a7u5af0lkpxs80hhzh,3m1cvsfp64ig9cju8fci1uubcy0aq2,6A94hcRV,2020-0188,2020-05-21,13:08:35,13:30:35,NA,incomplete,207,color,1,left,Red_Star_Stripes_2.jpg,Red_Triangle_Dots_4.jpg,Green_Star_Grid_1.jpg,left,652.8850000030361,true,low,NA,NA,NA,NA,NA,NA,NA,false
6A94hcRV,3ac6mfv6anv2a7u5af0lkpxs80hhzh,3m1cvsfp64ig9cju8fci1uubcy0aq2,6A94hcRV,2020-0188,2020-05-21,13:08:35,13:30:35,NA,incomplete,208,color,1,left,Red_Star_Grid_4.jpg,Red_Triangle_Stripes_1.jpg,Blue_Star_Dots_3.jpg,left,608.1449999983888,true,low,NA,NA,NA,NA,NA,NA,NA,false
6A94hcRV,3ac6mfv6anv2a7u5af0lkpxs80hhzh,3m1cvsfp64ig9cju8fci1uubcy0aq2,6A94hcRV,2020-0188,2020-05-21,13:08:35,13:30:35,NA,incomplete,209,color,1,left,Green_Star_Chess_3.jpg,Green_Triangle_Stripes_4.jpg,Blue_Star_Grid_2.jpg,left,557.8149999999441,true,low,NA,NA,NA,NA,NA,NA,NA,false
6A94hcRV,3ac6mfv6anv2a7u5af0lkpxs80hhzh,3m1cvsfp64ig9cju8fci1uubcy0aq2,6A94hcRV,2020-0188,2020-05-21,13:08:35,13:30:35,NA,incomplete,210,color,1,left,Green_Circle_Chess_4.jpg,Green_Star_Dots_1.jpg,Blue_Circle_Grid_3.jpg,left,658.2700000000186,true,low,NA,NA,NA,NA,NA,NA,NA,false
6A94hcRV,3ac6mfv6anv2a7u5af0lkpxs80hhzh,3m1cvsfp64ig9cju8fci1uubcy0aq2,6A94hcRV,2020-0188,2020-05-21,13:08:35,13:30:35,NA,incomplete,211,color,1,left,Green_Circle_Stripes_1.jpg,Green_Plus_Grid_2.jpg,Purple_Circle_Chess_3.jpg,left,597.5049999977928,true,low,NA,NA,NA,NA,NA,NA,NA,false
6A94hcRV,3ac6mfv6anv2a7u5af0lkpxs80hhzh,3m1cvsfp64ig9cju8fci1uubcy0aq2,6A94hcRV,2020-0188,2020-05-21,13:08:35,13:30:35,NA,incomplete,212,color,1,right,Blue_Star_Chess_2.jpg,Purple_Star_Stripes_3.jpg,Blue_Triangle_Grid_1.jpg,right,601.4450000000652,true,low,NA,NA,NA,NA,NA,NA,NA,false
6A94hcRV,3ac6mfv6anv2a7u5af0lkpxs80hhzh,3m1cvsfp64ig9cju8fci1uubcy0aq2,6A94hcRV,2020-0188,2020-05-21,13:08:35,13:30:35,NA,incomplete,213,color,0,right,Blue_Triangle_Stripes_1.jpg,Purple_Triangle_Dots_4.jpg,Blue_Plus_Grid_2.jpg,right,446.18500000075437,true,low,NA,NA,NA,NA,NA,NA,NA,false
6A94hcRV,3ac6mfv6anv2a7u5af0lkpxs80hhzh,3m1cvsfp64ig9cju8fci1uubcy0aq2,6A94hcRV,2020-0188,2020-05-21,13:08:35,13:30:35,NA,incomplete,214,color,1,left,Blue_Plus_Stripes_2.jpg,Blue_Triangle_Grid_4.jpg,Green_Plus_Chess_3.jpg,left,595.679999998305,true,low,NA,NA,NA,NA,NA,NA,NA,false
6A94hcRV,3ac6mfv6anv2a7u5af0lkpxs80hhzh,3m1cvsfp64ig9cju8fci1uubcy0aq2,6A94hcRV,2020-0188,2020-05-21,13:08:35,13:30:35,NA,incomplete,215,color,1,left,Green_Plus_Chess_4.jpg,Green_Circle_Grid_2.jpg,Purple_Plus_Stripes_1.jpg,left,477.74500000383705,true,low,NA,NA,NA,NA,NA,NA,NA,false
6A94hcRV,3ac6mfv6anv2a7u5af0lkpxs80hhzh,3m1cvsfp64ig9cju8fci1uubcy0aq2,6A94hcRV,2020-0188,2020-05-21,13:08:35,13:30:35,NA,incomplete,216,color,1,right,Blue_Star_Dots_4.jpg,Green_Star_Stripes_3.jpg,Blue_Plus_Grid_2.jpg,right,697.5149999996647,true,low,NA,NA,NA,NA,NA,NA,NA,false
6A94hcRV,3ac6mfv6anv2a7u5af0lkpxs80hhzh,3m1cvsfp64ig9cju8fci1uubcy0aq2,6A94hcRV,2020-0188,2020-05-21,13:08:35,13:30:35,NA,incomplete,217,color,1,right,Blue_Star_Dots_1.jpg,Purple_Star_Stripes_4.jpg,Blue_Plus_Grid_3.jpg,right,480.4599999987986,true,low,NA,NA,NA,NA,NA,NA,NA,false
6A94hcRV,3ac6mfv6anv2a7u5af0lkpxs80hhzh,3m1cvsfp64ig9cju8fci1uubcy0aq2,6A94hcRV,2020-0188,2020-05-21,13:08:35,13:30:35,NA,incomplete,218,color,0,right,Purple_Plus_Chess_1.jpg,Blue_Plus_Dots_3.jpg,Purple_Triangle_Stripes_2.jpg,right,545.4249999965541,true,low,NA,NA,NA,NA,NA,NA,NA,false
6A94hcRV,3ac6mfv6anv2a7u5af0lkpxs80hhzh,3m1cvsfp64ig9cju8fci1uubcy0aq2,6A94hcRV,2020-0188,2020-05-21,13:08:35,13:30:35,NA,incomplete,219,color,1,left,Purple_Circle_Grid_1.jpg,Purple_Star_Chess_2.jpg,Red_Circle_Stripes_4.jpg,left,483.054999996908,true,low,NA,NA,NA,NA,NA,NA,NA,false
6A94hcRV,3ac6mfv6anv2a7u5af0lkpxs80hhzh,3m1cvsfp64ig9cju8fci1uubcy0aq2,6A94hcRV,2020-0188,2020-05-21,13:08:35,13:30:35,NA,incomplete,220,shape,1,left,Purple_Star_Chess_3.jpg,Green_Star_Stripes_4.jpg,Purple_Circle_Grid_2.jpg,right,576.3000000007451,false,low,NA,NA,NA,NA,NA,NA,NA,false
6A94hcRV,3ac6mfv6anv2a7u5af0lkpxs80hhzh,3m1cvsfp64ig9cju8fci1uubcy0aq2,6A94hcRV,2020-0188,2020-05-21,13:08:35,13:30:35,NA,incomplete,221,shape,1,left,Red_Star_Chess_3.jpg,Blue_Star_Dots_2.jpg,Red_Circle_Grid_1.jpg,right,622.019999995362,false,low,NA,NA,NA,NA,NA,NA,NA,false
6A94hcRV,3ac6mfv6anv2a7u5af0lkpxs80hhzh,3m1cvsfp64ig9cju8fci1uubcy0aq2,6A94hcRV,2020-0188,2020-05-21,13:08:35,13:30:35,NA,incomplete,222,shape,0,left,Purple_Star_Dots_4.jpg,Blue_Star_Chess_1.jpg,Purple_Triangle_Grid_2.jpg,left,1026.6799999952782,true,low,NA,NA,NA,NA,NA,NA,NA,false
6A94hcRV,3ac6mfv6anv2a7u5af0lkpxs80hhzh,3m1cvsfp64ig9cju8fci1uubcy0aq2,6A94hcRV,2020-0188,2020-05-21,13:08:35,13:30:35,NA,incomplete,223,shape,1,left,Green_Circle_Stripes_4.jpg,Blue_Circle_Chess_2.jpg,Green_Star_Dots_3.jpg,right,573.0599999951664,false,low,NA,NA,NA,NA,NA,NA,NA,false
6A94hcRV,3ac6mfv6anv2a7u5af0lkpxs80hhzh,3m1cvsfp64ig9cju8fci1uubcy0aq2,6A94hcRV,2020-0188,2020-05-21,13:08:35,13:30:35,NA,incomplete,224,shape,1,right,Green_Plus_Stripes_2.jpg,Green_Circle_Chess_4.jpg,Purple_Plus_Grid_1.jpg,right,1357.2200000053272,true,low,NA,NA,NA,NA,NA,NA,NA,false
6A94hcRV,3ac6mfv6anv2a7u5af0lkpxs80hhzh,3m1cvsfp64ig9cju8fci1uubcy0aq2,6A94hcRV,2020-0188,2020-05-21,13:08:35,13:30:35,NA,incomplete,225,shape,1,left,Purple_Star_Chess_3.jpg,Red_Star_Stripes_4.jpg,Purple_Triangle_Dots_1.jpg,right,586.0499999981839,false,low,NA,NA,NA,NA,NA,NA,NA,false
6A94hcRV,3ac6mfv6anv2a7u5af0lkpxs80hhzh,3m1cvsfp64ig9cju8fci1uubcy0aq2,6A94hcRV,2020-0188,2020-05-21,13:08:35,13:30:35,NA,incomplete,226,shape,0,left,Blue_Triangle_Stripes_3.jpg,Red_Triangle_Dots_2.jpg,Blue_Circle_Chess_1.jpg,left,734.0350000013132,true,low,NA,NA,NA,NA,NA,NA,NA,false
6A94hcRV,3ac6mfv6anv2a7u5af0lkpxs80hhzh,3m1cvsfp64ig9cju8fci1uubcy0aq2,6A94hcRV,2020-0188,2020-05-21,13:08:35,13:30:35,NA,incomplete,227,shape,1,left,Blue_Star_Chess_2.jpg,Red_Star_Grid_4.jpg,Blue_Plus_Dots_1.jpg,right,587.420000003418,false,low,NA,NA,NA,NA,NA,NA,NA,false
6A94hcRV,3ac6mfv6anv2a7u5af0lkpxs80hhzh,3m1cvsfp64ig9cju8fci1uubcy0aq2,6A94hcRV,2020-0188,2020-05-21,13:08:35,13:30:35,NA,incomplete,228,shape,1,right,Red_Star_Chess_4.jpg,Red_Triangle_Stripes_1.jpg,Green_Star_Grid_3.jpg,left,657.3550000030082,false,low,NA,NA,NA,NA,NA,NA,NA,false
6A94hcRV,3ac6mfv6anv2a7u5af0lkpxs80hhzh,3m1cvsfp64ig9cju8fci1uubcy0aq2,6A94hcRV,2020-0188,2020-05-21,13:08:35,13:30:35,NA,incomplete,229,shape,1,left,Red_Plus_Stripes_3.jpg,Purple_Plus_Chess_4.jpg,Red_Circle_Grid_1.jpg,left,974.6499999964144,true,low,NA,NA,NA,NA,NA,NA,NA,false
6A94hcRV,3ac6mfv6anv2a7u5af0lkpxs80hhzh,3m1cvsfp64ig9cju8fci1uubcy0aq2,6A94hcRV,2020-0188,2020-05-21,13:08:35,13:30:35,NA,incomplete,230,shape,1,right,Purple_Plus_Chess_3.jpg,Purple_Circle_Dots_4.jpg,Blue_Plus_Grid_1.jpg,right,800.6600000008475,true,low,NA,NA,NA,NA,NA,NA,NA,false
6A94hcRV,3ac6mfv6anv2a7u5af0lkpxs80hhzh,3m1cvsfp64ig9cju8fci1uubcy0aq2,6A94hcRV,2020-0188,2020-05-21,13:08:35,13:30:35,NA,incomplete,231,shape,0,left,Blue_Triangle_Dots_2.jpg,Purple_Triangle_Grid_1.jpg,Blue_Plus_Stripes_3.jpg,left,764.4900000013877,true,low,NA,NA,NA,NA,NA,NA,NA,false
6A94hcRV,3ac6mfv6anv2a7u5af0lkpxs80hhzh,3m1cvsfp64ig9cju8fci1uubcy0aq2,6A94hcRV,2020-0188,2020-05-21,13:08:35,13:30:35,NA,incomplete,232,shape,1,left,Purple_Plus_Grid_1.jpg,Green_Plus_Dots_2.jpg,Purple_Triangle_Chess_3.jpg,left,834.9400000006426,true,low,NA,NA,NA,NA,NA,NA,NA,false
6A94hcRV,3ac6mfv6anv2a7u5af0lkpxs80hhzh,3m1cvsfp64ig9cju8fci1uubcy0aq2,6A94hcRV,2020-0188,2020-05-21,13:08:35,13:30:35,NA,incomplete,233,shape,0,right,Green_Star_Stripes_1.jpg,Green_Circle_Chess_4.jpg,Purple_Star_Dots_3.jpg,right,781.4499999948312,true,low,NA,NA,NA,NA,NA,NA,NA,false
6A94hcRV,3ac6mfv6anv2a7u5af0lkpxs80hhzh,3m1cvsfp64ig9cju8fci1uubcy0aq2,6A94hcRV,2020-0188,2020-05-21,13:08:35,13:30:35,NA,incomplete,234,shape,1,left,Purple_Star_Grid_4.jpg,Green_Star_Dots_3.jpg,Purple_Plus_Stripes_2.jpg,left,813.6799999992363,true,low,NA,NA,NA,NA,NA,NA,NA,false
6A94hcRV,3ac6mfv6anv2a7u5af0lkpxs80hhzh,3m1cvsfp64ig9cju8fci1uubcy0aq2,6A94hcRV,2020-0188,2020-05-21,13:08:35,13:30:35,NA,incomplete,235,shape,1,left,Green_Star_Dots_1.jpg,Purple_Star_Chess_2.jpg,Green_Plus_Stripes_3.jpg,left,781.4500000022817,true,low,NA,NA,NA,NA,NA,NA,NA,false
6A94hcRV,3ac6mfv6anv2a7u5af0lkpxs80hhzh,3m1cvsfp64ig9cju8fci1uubcy0aq2,6A94hcRV,2020-0188,2020-05-21,13:08:35,13:30:35,NA,incomplete,236,shape,1,right,Blue_Plus_Dots_3.jpg,Blue_Circle_Chess_4.jpg,Green_Plus_Stripes_1.jpg,right,780.5149999985006,true,low,NA,NA,NA,NA,NA,NA,NA,false
6A94hcRV,3ac6mfv6anv2a7u5af0lkpxs80hhzh,3m1cvsfp64ig9cju8fci1uubcy0aq2,6A94hcRV,2020-0188,2020-05-21,13:08:35,13:30:35,NA,incomplete,237,shape,1,right,Red_Circle_Stripes_1.jpg,Red_Triangle_Grid_3.jpg,Green_Circle_Dots_2.jpg,right,704.944999997504,true,low,NA,NA,NA,NA,NA,NA,NA,false
6A94hcRV,3ac6mfv6anv2a7u5af0lkpxs80hhzh,3m1cvsfp64ig9cju8fci1uubcy0aq2,6A94hcRV,2020-0188,2020-05-21,13:08:35,13:30:35,NA,incomplete,238,shape,0,left,Red_Plus_Stripes_1.jpg,Purple_Plus_Dots_2.jpg,Red_Star_Grid_3.jpg,left,744.5699999951757,true,low,NA,NA,NA,NA,NA,NA,NA,false
6A94hcRV,3ac6mfv6anv2a7u5af0lkpxs80hhzh,3m1cvsfp64ig9cju8fci1uubcy0aq2,6A94hcRV,2020-0188,2020-05-21,13:08:35,13:30:35,NA,incomplete,239,shape,1,right,Blue_Circle_Stripes_2.jpg,Blue_Plus_Chess_1.jpg,Purple_Circle_Grid_3.jpg,right,896.3149999983143,true,low,NA,NA,NA,NA,NA,NA,NA,false
6A94hcRV,3ac6mfv6anv2a7u5af0lkpxs80hhzh,3m1cvsfp64ig9cju8fci1uubcy0aq2,6A94hcRV,2020-0188,2020-05-21,13:08:35,13:30:35,NA,NA,instruction example,filling,NA,NA,Green_Circle_Stripes_3.jpg,Blue_Triangle_Stripes_4.jpg,Purple_Plus_Chess_3.jpg,NA,NA,NA,NA,NA,NA,NA,NA,NA,NA,NA,undefined
6A94hcRV,3ac6mfv6anv2a7u5af0lkpxs80hhzh,3m1cvsfp64ig9cju8fci1uubcy0aq2,6A94hcRV,2020-0188,2020-05-21,13:08:35,13:30:35,NA,NA,instruction example,filling,NA,NA,Red_Circle_Chess_4.jpg,Blue_Star_Grid_4.jpg,Green_Triangle_Chess_1.jpg,NA,NA,NA,NA,NA,NA,NA,NA,NA,NA,NA,undefined
6A94hcRV,3ac6mfv6anv2a7u5af0lkpxs80hhzh,3m1cvsfp64ig9cju8fci1uubcy0aq2,6A94hcRV,2020-0188,2020-05-21,13:08:35,13:30:35,NA,NA,instruction example,filling,NA,NA,Green_Plus_Chess_4.jpg,Green_Circle_Grid_2.jpg,Blue_Plus_Dots_3.jpg,NA,NA,NA,NA,NA,NA,NA,NA,NA,NA,NA,undefined
6A94hcRV,3ac6mfv6anv2a7u5af0lkpxs80hhzh,3m1cvsfp64ig9cju8fci1uubcy0aq2,6A94hcRV,2020-0188,2020-05-21,13:08:35,13:30:35,NA,NA,instruction example,filling,NA,NA,Red_Triangle_Grid_2.jpg,Purple_Triangle_Chess_1.jpg,Red_Plus_Dots_4.jpg,NA,NA,NA,NA,NA,NA,NA,NA,NA,NA,NA,undefined
6A94hcRV,3ac6mfv6anv2a7u5af0lkpxs80hhzh,3m1cvsfp64ig9cju8fci1uubcy0aq2,6A94hcRV,2020-0188,2020-05-21,13:08:35,13:30:35,1287566.9899999993,1321006.8600000013,NA,NA,NA,NA,NA,NA,NA,NA,NA,NA,NA,51,White/Caucasian,Female,white,no,no,no,undefined
