workerId,hitId,assignmentId,subject,studyid,exp_date,exp_start,exp_end,time_start,time_end,trial,type,reward_validity,answer,image_top,image_left,image_right,response,response_time,response_acc,volatility,age,race,gender,ethnicity,color,vision,neuro,practice
RseSzMi3,3r15w654wg6vibc4e4w6loevry9lqd,3mrnmeiqw9j3gm6t0kvoa93olrhdlh,RseSzMi3,2020-0188,2020-11-18,13:06:23,13:23:18,NA,incomplete,0,shape,1,left,Red_Plus_Chess_4.jpg,Blue_Plus_Dots_3.jpg,Green_Circle_Grid_4.jpg,right,1579.2350000119768,false,NA,NA,NA,NA,NA,NA,NA,NA,true
RseSzMi3,3r15w654wg6vibc4e4w6loevry9lqd,3mrnmeiqw9j3gm6t0kvoa93olrhdlh,RseSzMi3,2020-0188,2020-11-18,13:06:23,13:23:18,NA,incomplete,1,shape,0,left,Blue_Star_Dots_4.jpg,Purple_Star_Grid_2.jpg,Green_Triangle_Chess_4.jpg,left,1088.434999983292,true,NA,NA,NA,NA,NA,NA,NA,NA,true
RseSzMi3,3r15w654wg6vibc4e4w6loevry9lqd,3mrnmeiqw9j3gm6t0kvoa93olrhdlh,RseSzMi3,2020-0188,2020-11-18,13:06:23,13:23:18,NA,incomplete,2,shape,1,left,Red_Plus_Dots_1.jpg,Blue_Plus_Stripes_2.jpg,Purple_Circle_Chess_1.jpg,left,1053.890000010142,true,NA,NA,NA,NA,NA,NA,NA,NA,true
RseSzMi3,3r15w654wg6vibc4e4w6loevry9lqd,3mrnmeiqw9j3gm6t0kvoa93olrhdlh,RseSzMi3,2020-0188,2020-11-18,13:06:23,13:23:18,NA,incomplete,3,shape,0,right,Purple_Triangle_Dots_4.jpg,Green_Star_Grid_4.jpg,Red_Triangle_Stripes_1.jpg,right,1321.7599999916274,true,NA,NA,NA,NA,NA,NA,NA,NA,true
RseSzMi3,3r15w654wg6vibc4e4w6loevry9lqd,3mrnmeiqw9j3gm6t0kvoa93olrhdlh,RseSzMi3,2020-0188,2020-11-18,13:06:23,13:23:18,NA,incomplete,4,shape,1,left,Green_Circle_Grid_2.jpg,Red_Circle_Dots_1.jpg,Blue_Plus_Stripes_2.jpg,left,1047.0149999891873,true,NA,NA,NA,NA,NA,NA,NA,NA,true
RseSzMi3,3r15w654wg6vibc4e4w6loevry9lqd,3mrnmeiqw9j3gm6t0kvoa93olrhdlh,RseSzMi3,2020-0188,2020-11-18,13:06:23,13:23:18,NA,incomplete,5,shape,1,right,Blue_Plus_Stripes_2.jpg,Red_Circle_Grid_2.jpg,Purple_Plus_Chess_4.jpg,right,870.1200000068638,true,NA,NA,NA,NA,NA,NA,NA,NA,true
RseSzMi3,3r15w654wg6vibc4e4w6loevry9lqd,3mrnmeiqw9j3gm6t0kvoa93olrhdlh,RseSzMi3,2020-0188,2020-11-18,13:06:23,13:23:18,NA,incomplete,6,shape,1,left,Red_Triangle_Chess_1.jpg,Purple_Triangle_Dots_2.jpg,Blue_Star_Grid_1.jpg,left,903.6000000196509,true,NA,NA,NA,NA,NA,NA,NA,NA,true
RseSzMi3,3r15w654wg6vibc4e4w6loevry9lqd,3mrnmeiqw9j3gm6t0kvoa93olrhdlh,RseSzMi3,2020-0188,2020-11-18,13:06:23,13:23:18,NA,incomplete,7,shape,1,right,Red_Plus_Chess_1.jpg,Blue_Star_Dots_1.jpg,Purple_Plus_Stripes_4.jpg,right,831.0899999924004,true,NA,NA,NA,NA,NA,NA,NA,NA,true
RseSzMi3,3r15w654wg6vibc4e4w6loevry9lqd,3mrnmeiqw9j3gm6t0kvoa93olrhdlh,RseSzMi3,2020-0188,2020-11-18,13:06:23,13:23:18,NA,incomplete,8,shape,1,right,Blue_Triangle_Dots_3.jpg,Green_Plus_Stripes_3.jpg,Red_Triangle_Grid_4.jpg,right,1271.0249999945518,true,NA,NA,NA,NA,NA,NA,NA,NA,true
RseSzMi3,3r15w654wg6vibc4e4w6loevry9lqd,3mrnmeiqw9j3gm6t0kvoa93olrhdlh,RseSzMi3,2020-0188,2020-11-18,13:06:23,13:23:18,NA,incomplete,9,shape,0,right,Blue_Star_Chess_3.jpg,Green_Circle_Grid_3.jpg,Purple_Star_Stripes_4.jpg,right,999.5000000053551,true,NA,NA,NA,NA,NA,NA,NA,NA,true
RseSzMi3,3r15w654wg6vibc4e4w6loevry9lqd,3mrnmeiqw9j3gm6t0kvoa93olrhdlh,RseSzMi3,2020-0188,2020-11-18,13:06:23,13:23:18,NA,incomplete,10,shape,1,left,Purple_Circle_Chess_3.jpg,Red_Circle_Grid_4.jpg,Blue_Plus_Stripes_3.jpg,left,992.9549999942537,true,NA,NA,NA,NA,NA,NA,NA,NA,true
RseSzMi3,3r15w654wg6vibc4e4w6loevry9lqd,3mrnmeiqw9j3gm6t0kvoa93olrhdlh,RseSzMi3,2020-0188,2020-11-18,13:06:23,13:23:18,NA,incomplete,11,shape,1,left,Red_Plus_Grid_2.jpg,Green_Plus_Dots_3.jpg,Blue_Triangle_Stripes_2.jpg,left,1088.5100000014063,true,NA,NA,NA,NA,NA,NA,NA,NA,true
RseSzMi3,3r15w654wg6vibc4e4w6loevry9lqd,3mrnmeiqw9j3gm6t0kvoa93olrhdlh,RseSzMi3,2020-0188,2020-11-18,13:06:23,13:23:18,NA,incomplete,12,shape,1,left,Red_Plus_Stripes_2.jpg,Blue_Plus_Chess_3.jpg,Purple_Star_Grid_2.jpg,left,898.5450000036508,true,NA,NA,NA,NA,NA,NA,NA,NA,true
RseSzMi3,3r15w654wg6vibc4e4w6loevry9lqd,3mrnmeiqw9j3gm6t0kvoa93olrhdlh,RseSzMi3,2020-0188,2020-11-18,13:06:23,13:23:18,NA,incomplete,13,shape,1,right,Purple_Circle_Chess_2.jpg,Blue_Triangle_Grid_2.jpg,Red_Circle_Dots_3.jpg,right,749.1900000022724,true,NA,NA,NA,NA,NA,NA,NA,NA,true
RseSzMi3,3r15w654wg6vibc4e4w6loevry9lqd,3mrnmeiqw9j3gm6t0kvoa93olrhdlh,RseSzMi3,2020-0188,2020-11-18,13:06:23,13:23:18,NA,incomplete,14,shape,0,left,Red_Triangle_Grid_2.jpg,Green_Triangle_Dots_4.jpg,Blue_Plus_Chess_2.jpg,left,855.9149999928195,true,NA,NA,NA,NA,NA,NA,NA,NA,true
RseSzMi3,3r15w654wg6vibc4e4w6loevry9lqd,3mrnmeiqw9j3gm6t0kvoa93olrhdlh,RseSzMi3,2020-0188,2020-11-18,13:06:23,13:23:18,NA,incomplete,15,shape,1,left,Blue_Star_Chess_1.jpg,Green_Star_Grid_4.jpg,Red_Circle_Stripes_1.jpg,left,995.5449999833945,true,NA,NA,NA,NA,NA,NA,NA,NA,true
RseSzMi3,3r15w654wg6vibc4e4w6loevry9lqd,3mrnmeiqw9j3gm6t0kvoa93olrhdlh,RseSzMi3,2020-0188,2020-11-18,13:06:23,13:23:18,NA,incomplete,16,shape,1,left,Purple_Circle_Stripes_2.jpg,Green_Circle_Grid_3.jpg,Red_Plus_Chess_2.jpg,left,630.6700000131968,true,NA,NA,NA,NA,NA,NA,NA,NA,true
RseSzMi3,3r15w654wg6vibc4e4w6loevry9lqd,3mrnmeiqw9j3gm6t0kvoa93olrhdlh,RseSzMi3,2020-0188,2020-11-18,13:06:23,13:23:18,NA,incomplete,17,shape,1,right,Green_Star_Stripes_4.jpg,Purple_Plus_Grid_4.jpg,Red_Star_Chess_3.jpg,right,1086.329999990994,true,NA,NA,NA,NA,NA,NA,NA,NA,true
RseSzMi3,3r15w654wg6vibc4e4w6loevry9lqd,3mrnmeiqw9j3gm6t0kvoa93olrhdlh,RseSzMi3,2020-0188,2020-11-18,13:06:23,13:23:18,NA,incomplete,18,shape,0,left,Purple_Plus_Grid_4.jpg,Green_Plus_Dots_3.jpg,Blue_Circle_Chess_4.jpg,left,868.4400000202004,true,NA,NA,NA,NA,NA,NA,NA,NA,true
RseSzMi3,3r15w654wg6vibc4e4w6loevry9lqd,3mrnmeiqw9j3gm6t0kvoa93olrhdlh,RseSzMi3,2020-0188,2020-11-18,13:06:23,13:23:18,NA,incomplete,19,shape,1,left,Purple_Triangle_Stripes_3.jpg,Green_Triangle_Dots_1.jpg,Red_Circle_Grid_3.jpg,right,776.3700000068638,false,NA,NA,NA,NA,NA,NA,NA,NA,true
RseSzMi3,3r15w654wg6vibc4e4w6loevry9lqd,3mrnmeiqw9j3gm6t0kvoa93olrhdlh,RseSzMi3,2020-0188,2020-11-18,13:06:23,13:23:18,NA,incomplete,20,number,1,left,Red_Triangle_Dots_1.jpg,Green_Plus_Chess_1.jpg,Purple_Triangle_Stripes_4.jpg,left,1739.979999983916,true,NA,NA,NA,NA,NA,NA,NA,NA,true
RseSzMi3,3r15w654wg6vibc4e4w6loevry9lqd,3mrnmeiqw9j3gm6t0kvoa93olrhdlh,RseSzMi3,2020-0188,2020-11-18,13:06:23,13:23:18,NA,incomplete,21,number,0,left,Blue_Plus_Grid_1.jpg,Red_Circle_Stripes_1.jpg,Purple_Plus_Chess_4.jpg,left,867.225000023609,true,NA,NA,NA,NA,NA,NA,NA,NA,true
RseSzMi3,3r15w654wg6vibc4e4w6loevry9lqd,3mrnmeiqw9j3gm6t0kvoa93olrhdlh,RseSzMi3,2020-0188,2020-11-18,13:06:23,13:23:18,NA,incomplete,22,number,1,right,Blue_Triangle_Stripes_3.jpg,Green_Triangle_Chess_4.jpg,Purple_Star_Dots_3.jpg,right,1347.715000010794,true,NA,NA,NA,NA,NA,NA,NA,NA,true
RseSzMi3,3r15w654wg6vibc4e4w6loevry9lqd,3mrnmeiqw9j3gm6t0kvoa93olrhdlh,RseSzMi3,2020-0188,2020-11-18,13:06:23,13:23:18,NA,incomplete,23,number,1,right,Red_Plus_Dots_1.jpg,Purple_Plus_Chess_4.jpg,Blue_Circle_Grid_1.jpg,right,1048.430000024382,true,NA,NA,NA,NA,NA,NA,NA,NA,true
RseSzMi3,3r15w654wg6vibc4e4w6loevry9lqd,3mrnmeiqw9j3gm6t0kvoa93olrhdlh,RseSzMi3,2020-0188,2020-11-18,13:06:23,13:23:18,NA,incomplete,24,number,1,left,Green_Triangle_Grid_2.jpg,Red_Plus_Chess_2.jpg,Blue_Triangle_Dots_4.jpg,left,1303.55499999132,true,NA,NA,NA,NA,NA,NA,NA,NA,true
RseSzMi3,3r15w654wg6vibc4e4w6loevry9lqd,3mrnmeiqw9j3gm6t0kvoa93olrhdlh,RseSzMi3,2020-0188,2020-11-18,13:06:23,13:23:18,NA,incomplete,25,number,1,right,Blue_Triangle_Chess_4.jpg,Purple_Triangle_Grid_2.jpg,Red_Circle_Dots_4.jpg,right,954.6449999907054,true,NA,NA,NA,NA,NA,NA,NA,NA,true
RseSzMi3,3r15w654wg6vibc4e4w6loevry9lqd,3mrnmeiqw9j3gm6t0kvoa93olrhdlh,RseSzMi3,2020-0188,2020-11-18,13:06:23,13:23:18,NA,incomplete,26,number,1,left,Purple_Circle_Stripes_1.jpg,Green_Star_Chess_1.jpg,Blue_Circle_Dots_4.jpg,left,715.0299999921117,true,NA,NA,NA,NA,NA,NA,NA,NA,true
RseSzMi3,3r15w654wg6vibc4e4w6loevry9lqd,3mrnmeiqw9j3gm6t0kvoa93olrhdlh,RseSzMi3,2020-0188,2020-11-18,13:06:23,13:23:18,NA,incomplete,27,number,1,left,Blue_Triangle_Chess_3.jpg,Green_Circle_Stripes_3.jpg,Red_Triangle_Grid_4.jpg,left,1083.7349999928847,true,NA,NA,NA,NA,NA,NA,NA,NA,true
RseSzMi3,3r15w654wg6vibc4e4w6loevry9lqd,3mrnmeiqw9j3gm6t0kvoa93olrhdlh,RseSzMi3,2020-0188,2020-11-18,13:06:23,13:23:18,NA,incomplete,28,number,1,right,Red_Circle_Chess_3.jpg,Purple_Circle_Dots_1.jpg,Green_Plus_Stripes_3.jpg,right,878.4100000048056,true,NA,NA,NA,NA,NA,NA,NA,NA,true
RseSzMi3,3r15w654wg6vibc4e4w6loevry9lqd,3mrnmeiqw9j3gm6t0kvoa93olrhdlh,RseSzMi3,2020-0188,2020-11-18,13:06:23,13:23:18,NA,incomplete,29,number,1,right,Blue_Circle_Grid_4.jpg,Green_Circle_Dots_3.jpg,Purple_Triangle_Stripes_4.jpg,right,1383.5450000187848,true,NA,NA,NA,NA,NA,NA,NA,NA,true
RseSzMi3,3r15w654wg6vibc4e4w6loevry9lqd,3mrnmeiqw9j3gm6t0kvoa93olrhdlh,RseSzMi3,2020-0188,2020-11-18,13:06:23,13:23:18,NA,incomplete,30,number,0,right,Blue_Plus_Grid_3.jpg,Green_Plus_Dots_2.jpg,Red_Star_Stripes_3.jpg,right,1204.7349999775179,true,NA,NA,NA,NA,NA,NA,NA,NA,true
RseSzMi3,3r15w654wg6vibc4e4w6loevry9lqd,3mrnmeiqw9j3gm6t0kvoa93olrhdlh,RseSzMi3,2020-0188,2020-11-18,13:06:23,13:23:18,NA,incomplete,31,number,1,right,Red_Star_Grid_4.jpg,Purple_Star_Dots_1.jpg,Green_Triangle_Stripes_4.jpg,right,978.1399999919813,true,NA,NA,NA,NA,NA,NA,NA,NA,true
RseSzMi3,3r15w654wg6vibc4e4w6loevry9lqd,3mrnmeiqw9j3gm6t0kvoa93olrhdlh,RseSzMi3,2020-0188,2020-11-18,13:06:23,13:23:18,NA,incomplete,32,number,1,right,Purple_Plus_Grid_2.jpg,Green_Plus_Dots_3.jpg,Blue_Triangle_Chess_2.jpg,right,1006.0800000210293,true,NA,NA,NA,NA,NA,NA,NA,NA,true
RseSzMi3,3r15w654wg6vibc4e4w6loevry9lqd,3mrnmeiqw9j3gm6t0kvoa93olrhdlh,RseSzMi3,2020-0188,2020-11-18,13:06:23,13:23:18,NA,incomplete,33,number,1,left,Blue_Circle_Dots_1.jpg,Green_Plus_Chess_1.jpg,Purple_Circle_Stripes_4.jpg,left,928.4350000089034,true,NA,NA,NA,NA,NA,NA,NA,NA,true
RseSzMi3,3r15w654wg6vibc4e4w6loevry9lqd,3mrnmeiqw9j3gm6t0kvoa93olrhdlh,RseSzMi3,2020-0188,2020-11-18,13:06:23,13:23:18,NA,incomplete,34,number,0,left,Purple_Star_Dots_1.jpg,Green_Circle_Grid_1.jpg,Blue_Star_Stripes_4.jpg,left,895.1100000122096,true,NA,NA,NA,NA,NA,NA,NA,NA,true
RseSzMi3,3r15w654wg6vibc4e4w6loevry9lqd,3mrnmeiqw9j3gm6t0kvoa93olrhdlh,RseSzMi3,2020-0188,2020-11-18,13:06:23,13:23:18,NA,incomplete,35,number,1,left,Purple_Star_Stripes_2.jpg,Blue_Circle_Dots_2.jpg,Red_Star_Grid_4.jpg,left,1127.6950000028592,true,NA,NA,NA,NA,NA,NA,NA,NA,true
RseSzMi3,3r15w654wg6vibc4e4w6loevry9lqd,3mrnmeiqw9j3gm6t0kvoa93olrhdlh,RseSzMi3,2020-0188,2020-11-18,13:06:23,13:23:18,NA,incomplete,36,number,1,left,Blue_Plus_Stripes_1.jpg,Red_Triangle_Grid_1.jpg,Purple_Plus_Chess_2.jpg,left,762.5999999872874,true,NA,NA,NA,NA,NA,NA,NA,NA,true
RseSzMi3,3r15w654wg6vibc4e4w6loevry9lqd,3mrnmeiqw9j3gm6t0kvoa93olrhdlh,RseSzMi3,2020-0188,2020-11-18,13:06:23,13:23:18,NA,incomplete,37,number,1,left,Purple_Star_Dots_2.jpg,Red_Triangle_Chess_2.jpg,Green_Star_Stripes_1.jpg,left,982.7099999820348,true,NA,NA,NA,NA,NA,NA,NA,NA,true
RseSzMi3,3r15w654wg6vibc4e4w6loevry9lqd,3mrnmeiqw9j3gm6t0kvoa93olrhdlh,RseSzMi3,2020-0188,2020-11-18,13:06:23,13:23:18,NA,incomplete,38,number,1,left,Purple_Circle_Grid_3.jpg,Red_Plus_Stripes_3.jpg,Blue_Circle_Chess_2.jpg,left,1079.135000007227,true,NA,NA,NA,NA,NA,NA,NA,NA,true
RseSzMi3,3r15w654wg6vibc4e4w6loevry9lqd,3mrnmeiqw9j3gm6t0kvoa93olrhdlh,RseSzMi3,2020-0188,2020-11-18,13:06:23,13:23:18,NA,incomplete,39,number,1,right,Blue_Circle_Chess_3.jpg,Red_Circle_Stripes_4.jpg,Purple_Plus_Dots_3.jpg,right,1005.5399999837391,true,NA,NA,NA,NA,NA,NA,NA,NA,true
RseSzMi3,3r15w654wg6vibc4e4w6loevry9lqd,3mrnmeiqw9j3gm6t0kvoa93olrhdlh,RseSzMi3,2020-0188,2020-11-18,13:06:23,13:23:18,NA,incomplete,0,shape,1,left,Purple_Plus_Grid_1.jpg,Green_Plus_Chess_4.jpg,Blue_Circle_Stripes_1.jpg,right,725.0549999880604,false,high,NA,NA,NA,NA,NA,NA,NA,false
RseSzMi3,3r15w654wg6vibc4e4w6loevry9lqd,3mrnmeiqw9j3gm6t0kvoa93olrhdlh,RseSzMi3,2020-0188,2020-11-18,13:06:23,13:23:18,NA,incomplete,1,shape,1,left,Purple_Plus_Chess_1.jpg,Green_Plus_Dots_4.jpg,Blue_Triangle_Grid_1.jpg,right,507.3850000044331,false,high,NA,NA,NA,NA,NA,NA,NA,false
RseSzMi3,3r15w654wg6vibc4e4w6loevry9lqd,3mrnmeiqw9j3gm6t0kvoa93olrhdlh,RseSzMi3,2020-0188,2020-11-18,13:06:23,13:23:18,NA,incomplete,2,shape,1,left,Blue_Plus_Grid_4.jpg,Green_Plus_Dots_2.jpg,Purple_Circle_Chess_4.jpg,left,803.120000025956,true,high,NA,NA,NA,NA,NA,NA,NA,false
RseSzMi3,3r15w654wg6vibc4e4w6loevry9lqd,3mrnmeiqw9j3gm6t0kvoa93olrhdlh,RseSzMi3,2020-0188,2020-11-18,13:06:23,13:23:18,NA,incomplete,3,shape,1,right,Green_Star_Chess_4.jpg,Purple_Triangle_Dots_4.jpg,Red_Star_Stripes_3.jpg,left,879.8900000110734,false,high,NA,NA,NA,NA,NA,NA,NA,false
RseSzMi3,3r15w654wg6vibc4e4w6loevry9lqd,3mrnmeiqw9j3gm6t0kvoa93olrhdlh,RseSzMi3,2020-0188,2020-11-18,13:06:23,13:23:18,NA,incomplete,4,shape,0,right,Blue_Plus_Stripes_4.jpg,Green_Circle_Dots_4.jpg,Purple_Plus_Grid_3.jpg,right,915.6699999875855,true,high,NA,NA,NA,NA,NA,NA,NA,false
RseSzMi3,3r15w654wg6vibc4e4w6loevry9lqd,3mrnmeiqw9j3gm6t0kvoa93olrhdlh,RseSzMi3,2020-0188,2020-11-18,13:06:23,13:23:18,NA,incomplete,5,shape,1,right,Green_Triangle_Dots_1.jpg,Blue_Circle_Chess_1.jpg,Red_Triangle_Stripes_2.jpg,left,881.5150000154972,false,high,NA,NA,NA,NA,NA,NA,NA,false
RseSzMi3,3r15w654wg6vibc4e4w6loevry9lqd,3mrnmeiqw9j3gm6t0kvoa93olrhdlh,RseSzMi3,2020-0188,2020-11-18,13:06:23,13:23:18,NA,incomplete,6,shape,1,right,Green_Circle_Stripes_4.jpg,Blue_Star_Chess_4.jpg,Purple_Circle_Grid_2.jpg,right,1676.4900000125635,true,high,NA,NA,NA,NA,NA,NA,NA,false
RseSzMi3,3r15w654wg6vibc4e4w6loevry9lqd,3mrnmeiqw9j3gm6t0kvoa93olrhdlh,RseSzMi3,2020-0188,2020-11-18,13:06:23,13:23:18,NA,incomplete,7,shape,1,left,Blue_Triangle_Dots_2.jpg,Purple_Triangle_Chess_3.jpg,Green_Circle_Stripes_2.jpg,right,884.8849999776576,false,high,NA,NA,NA,NA,NA,NA,NA,false
RseSzMi3,3r15w654wg6vibc4e4w6loevry9lqd,3mrnmeiqw9j3gm6t0kvoa93olrhdlh,RseSzMi3,2020-0188,2020-11-18,13:06:23,13:23:18,NA,incomplete,8,shape,0,left,Green_Triangle_Stripes_3.jpg,Purple_Triangle_Chess_1.jpg,Red_Plus_Dots_3.jpg,left,1237.7049999777228,true,high,NA,NA,NA,NA,NA,NA,NA,false
RseSzMi3,3r15w654wg6vibc4e4w6loevry9lqd,3mrnmeiqw9j3gm6t0kvoa93olrhdlh,RseSzMi3,2020-0188,2020-11-18,13:06:23,13:23:18,NA,incomplete,9,shape,1,left,Purple_Plus_Grid_2.jpg,Blue_Plus_Dots_4.jpg,Red_Star_Stripes_2.jpg,right,974.53000000678,false,high,NA,NA,NA,NA,NA,NA,NA,false
RseSzMi3,3r15w654wg6vibc4e4w6loevry9lqd,3mrnmeiqw9j3gm6t0kvoa93olrhdlh,RseSzMi3,2020-0188,2020-11-18,13:06:23,13:23:18,NA,incomplete,10,number,1,left,Green_Star_Stripes_1.jpg,Red_Triangle_Grid_1.jpg,Blue_Star_Chess_2.jpg,right,1281.0549999994691,false,high,NA,NA,NA,NA,NA,NA,NA,false
RseSzMi3,3r15w654wg6vibc4e4w6loevry9lqd,3mrnmeiqw9j3gm6t0kvoa93olrhdlh,RseSzMi3,2020-0188,2020-11-18,13:06:23,13:23:18,NA,incomplete,11,number,1,right,Green_Plus_Dots_2.jpg,Red_Plus_Chess_3.jpg,Blue_Star_Grid_2.jpg,right,1057.2149999788962,true,high,NA,NA,NA,NA,NA,NA,NA,false
RseSzMi3,3r15w654wg6vibc4e4w6loevry9lqd,3mrnmeiqw9j3gm6t0kvoa93olrhdlh,RseSzMi3,2020-0188,2020-11-18,13:06:23,13:23:18,NA,incomplete,12,number,1,left,Purple_Star_Grid_2.jpg,Blue_Plus_Dots_2.jpg,Red_Star_Stripes_3.jpg,left,865.2449999935925,true,high,NA,NA,NA,NA,NA,NA,NA,false
RseSzMi3,3r15w654wg6vibc4e4w6loevry9lqd,3mrnmeiqw9j3gm6t0kvoa93olrhdlh,RseSzMi3,2020-0188,2020-11-18,13:06:23,13:23:18,NA,incomplete,13,number,0,left,Blue_Circle_Chess_4.jpg,Purple_Plus_Stripes_4.jpg,Green_Circle_Grid_3.jpg,left,1010.2750000078231,true,high,NA,NA,NA,NA,NA,NA,NA,false
RseSzMi3,3r15w654wg6vibc4e4w6loevry9lqd,3mrnmeiqw9j3gm6t0kvoa93olrhdlh,RseSzMi3,2020-0188,2020-11-18,13:06:23,13:23:18,NA,incomplete,14,number,1,left,Red_Circle_Chess_4.jpg,Blue_Triangle_Dots_4.jpg,Green_Circle_Grid_3.jpg,left,1195.6549999886192,true,high,NA,NA,NA,NA,NA,NA,NA,false
RseSzMi3,3r15w654wg6vibc4e4w6loevry9lqd,3mrnmeiqw9j3gm6t0kvoa93olrhdlh,RseSzMi3,2020-0188,2020-11-18,13:06:23,13:23:18,NA,incomplete,15,number,1,left,Red_Circle_Dots_4.jpg,Purple_Star_Chess_4.jpg,Blue_Circle_Grid_3.jpg,left,810.9350000158884,true,high,NA,NA,NA,NA,NA,NA,NA,false
RseSzMi3,3r15w654wg6vibc4e4w6loevry9lqd,3mrnmeiqw9j3gm6t0kvoa93olrhdlh,RseSzMi3,2020-0188,2020-11-18,13:06:23,13:23:18,NA,incomplete,16,number,1,right,Green_Star_Chess_3.jpg,Blue_Star_Dots_1.jpg,Purple_Circle_Grid_3.jpg,right,990.3399999893736,true,high,NA,NA,NA,NA,NA,NA,NA,false
RseSzMi3,3r15w654wg6vibc4e4w6loevry9lqd,3mrnmeiqw9j3gm6t0kvoa93olrhdlh,RseSzMi3,2020-0188,2020-11-18,13:06:23,13:23:18,NA,incomplete,17,number,1,right,Blue_Circle_Grid_3.jpg,Red_Circle_Dots_2.jpg,Green_Plus_Chess_3.jpg,right,903.9650000049733,true,high,NA,NA,NA,NA,NA,NA,NA,false
RseSzMi3,3r15w654wg6vibc4e4w6loevry9lqd,3mrnmeiqw9j3gm6t0kvoa93olrhdlh,RseSzMi3,2020-0188,2020-11-18,13:06:23,13:23:18,NA,incomplete,18,number,1,right,Purple_Plus_Stripes_4.jpg,Red_Plus_Grid_3.jpg,Green_Triangle_Dots_4.jpg,right,863.7650000164285,true,high,NA,NA,NA,NA,NA,NA,NA,false
RseSzMi3,3r15w654wg6vibc4e4w6loevry9lqd,3mrnmeiqw9j3gm6t0kvoa93olrhdlh,RseSzMi3,2020-0188,2020-11-18,13:06:23,13:23:18,NA,incomplete,19,number,1,left,Red_Triangle_Stripes_4.jpg,Purple_Plus_Chess_4.jpg,Green_Triangle_Dots_1.jpg,left,712.8500000108033,true,high,NA,NA,NA,NA,NA,NA,NA,false
RseSzMi3,3r15w654wg6vibc4e4w6loevry9lqd,3mrnmeiqw9j3gm6t0kvoa93olrhdlh,RseSzMi3,2020-0188,2020-11-18,13:06:23,13:23:18,NA,incomplete,20,shape,1,right,Purple_Plus_Grid_4.jpg,Green_Triangle_Stripes_4.jpg,Blue_Plus_Chess_3.jpg,left,806.8499999935739,false,high,NA,NA,NA,NA,NA,NA,NA,false
RseSzMi3,3r15w654wg6vibc4e4w6loevry9lqd,3mrnmeiqw9j3gm6t0kvoa93olrhdlh,RseSzMi3,2020-0188,2020-11-18,13:06:23,13:23:18,NA,incomplete,21,shape,1,right,Green_Triangle_Grid_1.jpg,Blue_Star_Stripes_1.jpg,Purple_Triangle_Dots_3.jpg,left,1193.2200000155717,false,high,NA,NA,NA,NA,NA,NA,NA,false
RseSzMi3,3r15w654wg6vibc4e4w6loevry9lqd,3mrnmeiqw9j3gm6t0kvoa93olrhdlh,RseSzMi3,2020-0188,2020-11-18,13:06:23,13:23:18,NA,incomplete,22,shape,1,left,Green_Triangle_Stripes_3.jpg,Red_Triangle_Dots_4.jpg,Blue_Plus_Grid_3.jpg,left,1088.8300000224262,true,high,NA,NA,NA,NA,NA,NA,NA,false
RseSzMi3,3r15w654wg6vibc4e4w6loevry9lqd,3mrnmeiqw9j3gm6t0kvoa93olrhdlh,RseSzMi3,2020-0188,2020-11-18,13:06:23,13:23:18,NA,incomplete,23,shape,1,right,Purple_Plus_Dots_1.jpg,Red_Circle_Stripes_1.jpg,Blue_Plus_Chess_2.jpg,right,1187.8250000008848,true,high,NA,NA,NA,NA,NA,NA,NA,false
RseSzMi3,3r15w654wg6vibc4e4w6loevry9lqd,3mrnmeiqw9j3gm6t0kvoa93olrhdlh,RseSzMi3,2020-0188,2020-11-18,13:06:23,13:23:18,NA,incomplete,24,shape,1,left,Green_Triangle_Grid_3.jpg,Purple_Triangle_Dots_2.jpg,Red_Circle_Stripes_3.jpg,left,1667.5299999769777,true,high,NA,NA,NA,NA,NA,NA,NA,false
RseSzMi3,3r15w654wg6vibc4e4w6loevry9lqd,3mrnmeiqw9j3gm6t0kvoa93olrhdlh,RseSzMi3,2020-0188,2020-11-18,13:06:23,13:23:18,NA,incomplete,25,shape,1,right,Blue_Circle_Chess_2.jpg,Purple_Plus_Stripes_2.jpg,Red_Circle_Grid_1.jpg,right,1074.8850000090897,true,high,NA,NA,NA,NA,NA,NA,NA,false
RseSzMi3,3r15w654wg6vibc4e4w6loevry9lqd,3mrnmeiqw9j3gm6t0kvoa93olrhdlh,RseSzMi3,2020-0188,2020-11-18,13:06:23,13:23:18,NA,incomplete,26,shape,1,left,Red_Plus_Stripes_4.jpg,Purple_Plus_Chess_1.jpg,Blue_Circle_Grid_4.jpg,left,1144.1199999826495,true,high,NA,NA,NA,NA,NA,NA,NA,false
RseSzMi3,3r15w654wg6vibc4e4w6loevry9lqd,3mrnmeiqw9j3gm6t0kvoa93olrhdlh,RseSzMi3,2020-0188,2020-11-18,13:06:23,13:23:18,NA,incomplete,27,shape,1,right,Purple_Star_Chess_3.jpg,Green_Circle_Dots_3.jpg,Red_Star_Grid_4.jpg,right,1071.9450000033248,true,high,NA,NA,NA,NA,NA,NA,NA,false
RseSzMi3,3r15w654wg6vibc4e4w6loevry9lqd,3mrnmeiqw9j3gm6t0kvoa93olrhdlh,RseSzMi3,2020-0188,2020-11-18,13:06:23,13:23:18,NA,incomplete,28,shape,1,left,Green_Circle_Grid_4.jpg,Red_Circle_Chess_3.jpg,Purple_Triangle_Stripes_4.jpg,left,1470.7650000054855,true,high,NA,NA,NA,NA,NA,NA,NA,false
RseSzMi3,3r15w654wg6vibc4e4w6loevry9lqd,3mrnmeiqw9j3gm6t0kvoa93olrhdlh,RseSzMi3,2020-0188,2020-11-18,13:06:23,13:23:18,NA,incomplete,29,shape,0,left,Purple_Star_Stripes_4.jpg,Blue_Star_Chess_3.jpg,Green_Circle_Grid_4.jpg,left,1013.9699999999721,true,high,NA,NA,NA,NA,NA,NA,NA,false
RseSzMi3,3r15w654wg6vibc4e4w6loevry9lqd,3mrnmeiqw9j3gm6t0kvoa93olrhdlh,RseSzMi3,2020-0188,2020-11-18,13:06:23,13:23:18,NA,incomplete,30,number,1,left,Red_Plus_Stripes_4.jpg,Blue_Triangle_Chess_4.jpg,Purple_Plus_Grid_1.jpg,left,763.4699999762233,true,high,NA,NA,NA,NA,NA,NA,NA,false
RseSzMi3,3r15w654wg6vibc4e4w6loevry9lqd,3mrnmeiqw9j3gm6t0kvoa93olrhdlh,RseSzMi3,2020-0188,2020-11-18,13:06:23,13:23:18,NA,incomplete,31,number,1,left,Green_Triangle_Chess_3.jpg,Purple_Circle_Stripes_3.jpg,Blue_Triangle_Dots_4.jpg,left,1523.8599999865983,true,high,NA,NA,NA,NA,NA,NA,NA,false
RseSzMi3,3r15w654wg6vibc4e4w6loevry9lqd,3mrnmeiqw9j3gm6t0kvoa93olrhdlh,RseSzMi3,2020-0188,2020-11-18,13:06:23,13:23:18,NA,incomplete,32,number,1,left,Blue_Plus_Dots_4.jpg,Green_Triangle_Grid_4.jpg,Red_Plus_Chess_1.jpg,left,945.319999998901,true,high,NA,NA,NA,NA,NA,NA,NA,false
RseSzMi3,3r15w654wg6vibc4e4w6loevry9lqd,3mrnmeiqw9j3gm6t0kvoa93olrhdlh,RseSzMi3,2020-0188,2020-11-18,13:06:23,13:23:18,NA,incomplete,33,number,1,right,Green_Star_Grid_2.jpg,Blue_Star_Stripes_3.jpg,Red_Triangle_Dots_2.jpg,right,1492.4450000107754,true,high,NA,NA,NA,NA,NA,NA,NA,false
RseSzMi3,3r15w654wg6vibc4e4w6loevry9lqd,3mrnmeiqw9j3gm6t0kvoa93olrhdlh,RseSzMi3,2020-0188,2020-11-18,13:06:23,13:23:18,NA,incomplete,34,number,0,left,Purple_Triangle_Dots_1.jpg,Blue_Circle_Grid_1.jpg,Red_Triangle_Stripes_3.jpg,left,1142.2549999842886,true,high,NA,NA,NA,NA,NA,NA,NA,false
RseSzMi3,3r15w654wg6vibc4e4w6loevry9lqd,3mrnmeiqw9j3gm6t0kvoa93olrhdlh,RseSzMi3,2020-0188,2020-11-18,13:06:23,13:23:18,NA,incomplete,35,number,1,left,Red_Plus_Stripes_2.jpg,Blue_Star_Dots_2.jpg,Green_Plus_Chess_4.jpg,right,1184.4850000052247,false,high,NA,NA,NA,NA,NA,NA,NA,false
RseSzMi3,3r15w654wg6vibc4e4w6loevry9lqd,3mrnmeiqw9j3gm6t0kvoa93olrhdlh,RseSzMi3,2020-0188,2020-11-18,13:06:23,13:23:18,NA,incomplete,36,number,1,left,Purple_Star_Stripes_3.jpg,Blue_Triangle_Dots_3.jpg,Red_Star_Grid_2.jpg,left,866.1150000116322,true,high,NA,NA,NA,NA,NA,NA,NA,false
RseSzMi3,3r15w654wg6vibc4e4w6loevry9lqd,3mrnmeiqw9j3gm6t0kvoa93olrhdlh,RseSzMi3,2020-0188,2020-11-18,13:06:23,13:23:18,NA,incomplete,37,number,1,right,Purple_Circle_Grid_4.jpg,Green_Circle_Chess_3.jpg,Red_Star_Dots_4.jpg,right,1356.9450000068173,true,high,NA,NA,NA,NA,NA,NA,NA,false
RseSzMi3,3r15w654wg6vibc4e4w6loevry9lqd,3mrnmeiqw9j3gm6t0kvoa93olrhdlh,RseSzMi3,2020-0188,2020-11-18,13:06:23,13:23:18,NA,incomplete,38,number,0,right,Purple_Star_Chess_1.jpg,Blue_Star_Stripes_3.jpg,Red_Plus_Dots_1.jpg,right,834.2499999853317,true,high,NA,NA,NA,NA,NA,NA,NA,false
RseSzMi3,3r15w654wg6vibc4e4w6loevry9lqd,3mrnmeiqw9j3gm6t0kvoa93olrhdlh,RseSzMi3,2020-0188,2020-11-18,13:06:23,13:23:18,NA,incomplete,39,number,1,left,Blue_Plus_Dots_1.jpg,Red_Circle_Chess_1.jpg,Purple_Plus_Stripes_4.jpg,left,902.0650000020396,true,high,NA,NA,NA,NA,NA,NA,NA,false
RseSzMi3,3r15w654wg6vibc4e4w6loevry9lqd,3mrnmeiqw9j3gm6t0kvoa93olrhdlh,RseSzMi3,2020-0188,2020-11-18,13:06:23,13:23:18,NA,incomplete,40,shape,1,right,Blue_Plus_Dots_4.jpg,Green_Star_Grid_4.jpg,Purple_Plus_Chess_2.jpg,left,823.3800000161864,false,high,NA,NA,NA,NA,NA,NA,NA,false
RseSzMi3,3r15w654wg6vibc4e4w6loevry9lqd,3mrnmeiqw9j3gm6t0kvoa93olrhdlh,RseSzMi3,2020-0188,2020-11-18,13:06:23,13:23:18,NA,incomplete,41,shape,1,right,Green_Triangle_Chess_1.jpg,Purple_Plus_Stripes_1.jpg,Blue_Triangle_Dots_4.jpg,right,1067.6300000050105,true,high,NA,NA,NA,NA,NA,NA,NA,false
RseSzMi3,3r15w654wg6vibc4e4w6loevry9lqd,3mrnmeiqw9j3gm6t0kvoa93olrhdlh,RseSzMi3,2020-0188,2020-11-18,13:06:23,13:23:18,NA,incomplete,42,shape,0,right,Red_Plus_Grid_4.jpg,Purple_Star_Chess_4.jpg,Green_Plus_Dots_2.jpg,right,1049.3749999732245,true,high,NA,NA,NA,NA,NA,NA,NA,false
RseSzMi3,3r15w654wg6vibc4e4w6loevry9lqd,3mrnmeiqw9j3gm6t0kvoa93olrhdlh,RseSzMi3,2020-0188,2020-11-18,13:06:23,13:23:18,NA,incomplete,43,shape,0,right,Blue_Triangle_Stripes_2.jpg,Red_Plus_Dots_2.jpg,Purple_Triangle_Grid_4.jpg,right,1131.7649999982677,true,high,NA,NA,NA,NA,NA,NA,NA,false
RseSzMi3,3r15w654wg6vibc4e4w6loevry9lqd,3mrnmeiqw9j3gm6t0kvoa93olrhdlh,RseSzMi3,2020-0188,2020-11-18,13:06:23,13:23:18,NA,incomplete,44,shape,0,right,Green_Plus_Stripes_1.jpg,Purple_Star_Grid_1.jpg,Red_Plus_Chess_4.jpg,left,695.4350000014529,false,high,NA,NA,NA,NA,NA,NA,NA,false
RseSzMi3,3r15w654wg6vibc4e4w6loevry9lqd,3mrnmeiqw9j3gm6t0kvoa93olrhdlh,RseSzMi3,2020-0188,2020-11-18,13:06:23,13:23:18,NA,incomplete,45,shape,1,right,Green_Circle_Chess_4.jpg,Blue_Star_Grid_4.jpg,Purple_Circle_Dots_2.jpg,left,737.6449999865144,false,high,NA,NA,NA,NA,NA,NA,NA,false
RseSzMi3,3r15w654wg6vibc4e4w6loevry9lqd,3mrnmeiqw9j3gm6t0kvoa93olrhdlh,RseSzMi3,2020-0188,2020-11-18,13:06:23,13:23:18,NA,incomplete,46,shape,1,left,Red_Plus_Chess_1.jpg,Blue_Plus_Grid_3.jpg,Green_Star_Stripes_1.jpg,left,916.9750000000931,true,high,NA,NA,NA,NA,NA,NA,NA,false
RseSzMi3,3r15w654wg6vibc4e4w6loevry9lqd,3mrnmeiqw9j3gm6t0kvoa93olrhdlh,RseSzMi3,2020-0188,2020-11-18,13:06:23,13:23:18,NA,incomplete,47,shape,1,left,Blue_Circle_Stripes_4.jpg,Green_Circle_Dots_3.jpg,Red_Star_Grid_4.jpg,left,893.8899999775458,true,high,NA,NA,NA,NA,NA,NA,NA,false
RseSzMi3,3r15w654wg6vibc4e4w6loevry9lqd,3mrnmeiqw9j3gm6t0kvoa93olrhdlh,RseSzMi3,2020-0188,2020-11-18,13:06:23,13:23:18,NA,incomplete,48,shape,1,left,Blue_Plus_Stripes_2.jpg,Green_Plus_Grid_4.jpg,Purple_Circle_Dots_2.jpg,left,873.0100000102539,true,high,NA,NA,NA,NA,NA,NA,NA,false
RseSzMi3,3r15w654wg6vibc4e4w6loevry9lqd,3mrnmeiqw9j3gm6t0kvoa93olrhdlh,RseSzMi3,2020-0188,2020-11-18,13:06:23,13:23:18,NA,incomplete,49,shape,1,left,Blue_Plus_Dots_1.jpg,Green_Plus_Stripes_4.jpg,Red_Circle_Grid_1.jpg,left,1039.6949999849312,true,high,NA,NA,NA,NA,NA,NA,NA,false
RseSzMi3,3r15w654wg6vibc4e4w6loevry9lqd,3mrnmeiqw9j3gm6t0kvoa93olrhdlh,RseSzMi3,2020-0188,2020-11-18,13:06:23,13:23:18,NA,incomplete,50,number,1,left,Green_Plus_Grid_1.jpg,Purple_Circle_Dots_1.jpg,Blue_Plus_Stripes_4.jpg,right,1307.4800000176765,false,high,NA,NA,NA,NA,NA,NA,NA,false
RseSzMi3,3r15w654wg6vibc4e4w6loevry9lqd,3mrnmeiqw9j3gm6t0kvoa93olrhdlh,RseSzMi3,2020-0188,2020-11-18,13:06:23,13:23:18,NA,incomplete,51,number,1,right,Purple_Star_Grid_1.jpg,Green_Star_Dots_4.jpg,Blue_Plus_Chess_1.jpg,right,1410.8650000125635,true,high,NA,NA,NA,NA,NA,NA,NA,false
RseSzMi3,3r15w654wg6vibc4e4w6loevry9lqd,3mrnmeiqw9j3gm6t0kvoa93olrhdlh,RseSzMi3,2020-0188,2020-11-18,13:06:23,13:23:18,NA,incomplete,52,number,1,right,Red_Triangle_Chess_2.jpg,Blue_Triangle_Stripes_3.jpg,Purple_Plus_Dots_2.jpg,right,813.430000009248,true,high,NA,NA,NA,NA,NA,NA,NA,false
RseSzMi3,3r15w654wg6vibc4e4w6loevry9lqd,3mrnmeiqw9j3gm6t0kvoa93olrhdlh,RseSzMi3,2020-0188,2020-11-18,13:06:23,13:23:18,NA,incomplete,53,number,1,right,Green_Circle_Dots_4.jpg,Red_Circle_Chess_2.jpg,Blue_Triangle_Stripes_4.jpg,right,825.410000019474,true,high,NA,NA,NA,NA,NA,NA,NA,false
RseSzMi3,3r15w654wg6vibc4e4w6loevry9lqd,3mrnmeiqw9j3gm6t0kvoa93olrhdlh,RseSzMi3,2020-0188,2020-11-18,13:06:23,13:23:18,NA,incomplete,54,number,1,right,Purple_Circle_Chess_3.jpg,Blue_Circle_Grid_1.jpg,Red_Star_Stripes_3.jpg,right,1236.2250000005588,true,high,NA,NA,NA,NA,NA,NA,NA,false
RseSzMi3,3r15w654wg6vibc4e4w6loevry9lqd,3mrnmeiqw9j3gm6t0kvoa93olrhdlh,RseSzMi3,2020-0188,2020-11-18,13:06:23,13:23:18,NA,incomplete,55,number,1,right,Purple_Plus_Grid_2.jpg,Red_Plus_Stripes_3.jpg,Blue_Star_Dots_2.jpg,right,828.9499999955297,true,high,NA,NA,NA,NA,NA,NA,NA,false
RseSzMi3,3r15w654wg6vibc4e4w6loevry9lqd,3mrnmeiqw9j3gm6t0kvoa93olrhdlh,RseSzMi3,2020-0188,2020-11-18,13:06:23,13:23:18,NA,incomplete,56,number,1,left,Blue_Star_Grid_3.jpg,Green_Circle_Stripes_3.jpg,Purple_Star_Dots_4.jpg,left,952.9949999996461,true,high,NA,NA,NA,NA,NA,NA,NA,false
RseSzMi3,3r15w654wg6vibc4e4w6loevry9lqd,3mrnmeiqw9j3gm6t0kvoa93olrhdlh,RseSzMi3,2020-0188,2020-11-18,13:06:23,13:23:18,NA,incomplete,57,number,0,left,Red_Circle_Chess_2.jpg,Blue_Triangle_Grid_2.jpg,Purple_Circle_Stripes_1.jpg,left,1012.3049999820068,true,high,NA,NA,NA,NA,NA,NA,NA,false
RseSzMi3,3r15w654wg6vibc4e4w6loevry9lqd,3mrnmeiqw9j3gm6t0kvoa93olrhdlh,RseSzMi3,2020-0188,2020-11-18,13:06:23,13:23:18,NA,incomplete,58,number,0,right,Purple_Star_Dots_1.jpg,Blue_Star_Grid_2.jpg,Green_Circle_Chess_1.jpg,left,1258.49500001641,false,high,NA,NA,NA,NA,NA,NA,NA,false
RseSzMi3,3r15w654wg6vibc4e4w6loevry9lqd,3mrnmeiqw9j3gm6t0kvoa93olrhdlh,RseSzMi3,2020-0188,2020-11-18,13:06:23,13:23:18,NA,incomplete,59,number,0,right,Red_Star_Grid_4.jpg,Blue_Star_Stripes_1.jpg,Purple_Plus_Dots_4.jpg,left,963.9600000227802,false,high,NA,NA,NA,NA,NA,NA,NA,false
RseSzMi3,3r15w654wg6vibc4e4w6loevry9lqd,3mrnmeiqw9j3gm6t0kvoa93olrhdlh,RseSzMi3,2020-0188,2020-11-18,13:06:23,13:23:18,NA,incomplete,60,shape,1,left,Purple_Plus_Chess_2.jpg,Blue_Plus_Dots_4.jpg,Green_Circle_Stripes_2.jpg,left,864.2600000021048,true,high,NA,NA,NA,NA,NA,NA,NA,false
RseSzMi3,3r15w654wg6vibc4e4w6loevry9lqd,3mrnmeiqw9j3gm6t0kvoa93olrhdlh,RseSzMi3,2020-0188,2020-11-18,13:06:23,13:23:18,NA,incomplete,61,shape,1,left,Green_Plus_Stripes_1.jpg,Purple_Plus_Dots_3.jpg,Red_Star_Grid_1.jpg,left,1019.2150000075344,true,high,NA,NA,NA,NA,NA,NA,NA,false
RseSzMi3,3r15w654wg6vibc4e4w6loevry9lqd,3mrnmeiqw9j3gm6t0kvoa93olrhdlh,RseSzMi3,2020-0188,2020-11-18,13:06:23,13:23:18,NA,incomplete,62,shape,1,right,Blue_Plus_Chess_3.jpg,Green_Triangle_Stripes_3.jpg,Red_Plus_Dots_2.jpg,right,932.4799999885727,true,high,NA,NA,NA,NA,NA,NA,NA,false
RseSzMi3,3r15w654wg6vibc4e4w6loevry9lqd,3mrnmeiqw9j3gm6t0kvoa93olrhdlh,RseSzMi3,2020-0188,2020-11-18,13:06:23,13:23:18,NA,incomplete,63,shape,1,left,Red_Plus_Chess_3.jpg,Blue_Plus_Dots_4.jpg,Green_Circle_Grid_3.jpg,left,793.2999999902677,true,high,NA,NA,NA,NA,NA,NA,NA,false
RseSzMi3,3r15w654wg6vibc4e4w6loevry9lqd,3mrnmeiqw9j3gm6t0kvoa93olrhdlh,RseSzMi3,2020-0188,2020-11-18,13:06:23,13:23:18,NA,incomplete,64,shape,0,right,Blue_Circle_Chess_4.jpg,Red_Triangle_Dots_4.jpg,Green_Circle_Grid_1.jpg,right,1266.4499999955297,true,high,NA,NA,NA,NA,NA,NA,NA,false
RseSzMi3,3r15w654wg6vibc4e4w6loevry9lqd,3mrnmeiqw9j3gm6t0kvoa93olrhdlh,RseSzMi3,2020-0188,2020-11-18,13:06:23,13:23:18,NA,incomplete,65,shape,1,left,Green_Star_Dots_2.jpg,Blue_Star_Grid_1.jpg,Purple_Plus_Stripes_2.jpg,left,889.7199999773875,true,high,NA,NA,NA,NA,NA,NA,NA,false
RseSzMi3,3r15w654wg6vibc4e4w6loevry9lqd,3mrnmeiqw9j3gm6t0kvoa93olrhdlh,RseSzMi3,2020-0188,2020-11-18,13:06:23,13:23:18,NA,incomplete,66,shape,1,right,Green_Plus_Stripes_4.jpg,Blue_Triangle_Chess_4.jpg,Red_Plus_Grid_2.jpg,right,1001.879999996163,true,high,NA,NA,NA,NA,NA,NA,NA,false
RseSzMi3,3r15w654wg6vibc4e4w6loevry9lqd,3mrnmeiqw9j3gm6t0kvoa93olrhdlh,RseSzMi3,2020-0188,2020-11-18,13:06:23,13:23:18,NA,incomplete,67,shape,0,left,Green_Circle_Chess_4.jpg,Blue_Circle_Dots_1.jpg,Purple_Triangle_Grid_4.jpg,left,846.1449999886099,true,high,NA,NA,NA,NA,NA,NA,NA,false
RseSzMi3,3r15w654wg6vibc4e4w6loevry9lqd,3mrnmeiqw9j3gm6t0kvoa93olrhdlh,RseSzMi3,2020-0188,2020-11-18,13:06:23,13:23:18,NA,incomplete,68,shape,1,right,Green_Plus_Grid_4.jpg,Purple_Star_Dots_4.jpg,Red_Plus_Chess_2.jpg,right,1129.2200000025332,true,high,NA,NA,NA,NA,NA,NA,NA,false
RseSzMi3,3r15w654wg6vibc4e4w6loevry9lqd,3mrnmeiqw9j3gm6t0kvoa93olrhdlh,RseSzMi3,2020-0188,2020-11-18,13:06:23,13:23:18,NA,incomplete,69,shape,0,left,Blue_Circle_Stripes_4.jpg,Purple_Circle_Dots_3.jpg,Red_Triangle_Chess_4.jpg,left,894.9999999895226,true,high,NA,NA,NA,NA,NA,NA,NA,false
RseSzMi3,3r15w654wg6vibc4e4w6loevry9lqd,3mrnmeiqw9j3gm6t0kvoa93olrhdlh,RseSzMi3,2020-0188,2020-11-18,13:06:23,13:23:18,NA,incomplete,70,number,0,left,Red_Plus_Grid_2.jpg,Purple_Triangle_Dots_2.jpg,Blue_Plus_Stripes_3.jpg,left,1171.0299999976996,true,high,NA,NA,NA,NA,NA,NA,NA,false
RseSzMi3,3r15w654wg6vibc4e4w6loevry9lqd,3mrnmeiqw9j3gm6t0kvoa93olrhdlh,RseSzMi3,2020-0188,2020-11-18,13:06:23,13:23:18,NA,incomplete,71,number,0,right,Purple_Star_Chess_4.jpg,Red_Star_Grid_3.jpg,Green_Circle_Dots_4.jpg,right,1229.6749999804888,true,high,NA,NA,NA,NA,NA,NA,NA,false
RseSzMi3,3r15w654wg6vibc4e4w6loevry9lqd,3mrnmeiqw9j3gm6t0kvoa93olrhdlh,RseSzMi3,2020-0188,2020-11-18,13:06:23,13:23:18,NA,incomplete,72,number,1,right,Red_Circle_Chess_2.jpg,Blue_Circle_Grid_3.jpg,Purple_Star_Dots_2.jpg,left,862.554999999702,false,high,NA,NA,NA,NA,NA,NA,NA,false
RseSzMi3,3r15w654wg6vibc4e4w6loevry9lqd,3mrnmeiqw9j3gm6t0kvoa93olrhdlh,RseSzMi3,2020-0188,2020-11-18,13:06:23,13:23:18,NA,incomplete,73,number,1,right,Blue_Triangle_Dots_3.jpg,Green_Triangle_Stripes_4.jpg,Red_Star_Grid_3.jpg,left,916.5450000145938,false,high,NA,NA,NA,NA,NA,NA,NA,false
RseSzMi3,3r15w654wg6vibc4e4w6loevry9lqd,3mrnmeiqw9j3gm6t0kvoa93olrhdlh,RseSzMi3,2020-0188,2020-11-18,13:06:23,13:23:18,NA,incomplete,74,number,1,right,Green_Triangle_Chess_2.jpg,Blue_Triangle_Dots_3.jpg,Red_Star_Stripes_2.jpg,right,1086.1150000127964,true,high,NA,NA,NA,NA,NA,NA,NA,false
RseSzMi3,3r15w654wg6vibc4e4w6loevry9lqd,3mrnmeiqw9j3gm6t0kvoa93olrhdlh,RseSzMi3,2020-0188,2020-11-18,13:06:23,13:23:18,NA,incomplete,75,number,0,left,Purple_Triangle_Dots_3.jpg,Red_Star_Stripes_3.jpg,Green_Triangle_Chess_2.jpg,left,791.5099999809172,true,high,NA,NA,NA,NA,NA,NA,NA,false
RseSzMi3,3r15w654wg6vibc4e4w6loevry9lqd,3mrnmeiqw9j3gm6t0kvoa93olrhdlh,RseSzMi3,2020-0188,2020-11-18,13:06:23,13:23:18,NA,incomplete,76,number,1,left,Green_Star_Dots_1.jpg,Red_Circle_Grid_1.jpg,Purple_Star_Stripes_3.jpg,left,742.5149999908172,true,high,NA,NA,NA,NA,NA,NA,NA,false
RseSzMi3,3r15w654wg6vibc4e4w6loevry9lqd,3mrnmeiqw9j3gm6t0kvoa93olrhdlh,RseSzMi3,2020-0188,2020-11-18,13:06:23,13:23:18,NA,incomplete,77,number,1,left,Green_Plus_Stripes_4.jpg,Blue_Triangle_Grid_4.jpg,Purple_Plus_Chess_1.jpg,left,632.8349999967031,true,high,NA,NA,NA,NA,NA,NA,NA,false
RseSzMi3,3r15w654wg6vibc4e4w6loevry9lqd,3mrnmeiqw9j3gm6t0kvoa93olrhdlh,RseSzMi3,2020-0188,2020-11-18,13:06:23,13:23:18,NA,incomplete,78,number,1,right,Purple_Star_Stripes_3.jpg,Blue_Star_Dots_4.jpg,Red_Triangle_Grid_3.jpg,right,1006.1949999944773,true,high,NA,NA,NA,NA,NA,NA,NA,false
RseSzMi3,3r15w654wg6vibc4e4w6loevry9lqd,3mrnmeiqw9j3gm6t0kvoa93olrhdlh,RseSzMi3,2020-0188,2020-11-18,13:06:23,13:23:18,NA,incomplete,79,number,1,left,Red_Star_Grid_1.jpg,Blue_Triangle_Dots_1.jpg,Purple_Star_Chess_4.jpg,left,892.2099999908824,true,high,NA,NA,NA,NA,NA,NA,NA,false
RseSzMi3,3r15w654wg6vibc4e4w6loevry9lqd,3mrnmeiqw9j3gm6t0kvoa93olrhdlh,RseSzMi3,2020-0188,2020-11-18,13:06:23,13:23:18,NA,incomplete,80,shape,1,right,Purple_Triangle_Stripes_4.jpg,Green_Plus_Grid_4.jpg,Red_Triangle_Chess_1.jpg,left,568.1550000153948,false,high,NA,NA,NA,NA,NA,NA,NA,false
RseSzMi3,3r15w654wg6vibc4e4w6loevry9lqd,3mrnmeiqw9j3gm6t0kvoa93olrhdlh,RseSzMi3,2020-0188,2020-11-18,13:06:23,13:23:18,NA,incomplete,81,shape,1,left,Purple_Star_Chess_1.jpg,Red_Star_Dots_2.jpg,Blue_Plus_Grid_1.jpg,right,1591.0299999814015,false,high,NA,NA,NA,NA,NA,NA,NA,false
RseSzMi3,3r15w654wg6vibc4e4w6loevry9lqd,3mrnmeiqw9j3gm6t0kvoa93olrhdlh,RseSzMi3,2020-0188,2020-11-18,13:06:23,13:23:18,NA,incomplete,82,shape,0,left,Red_Triangle_Grid_2.jpg,Green_Triangle_Chess_3.jpg,Blue_Star_Stripes_2.jpg,left,774.360000010347,true,high,NA,NA,NA,NA,NA,NA,NA,false
RseSzMi3,3r15w654wg6vibc4e4w6loevry9lqd,3mrnmeiqw9j3gm6t0kvoa93olrhdlh,RseSzMi3,2020-0188,2020-11-18,13:06:23,13:23:18,NA,incomplete,83,shape,1,left,Green_Star_Chess_4.jpg,Blue_Star_Dots_3.jpg,Red_Triangle_Grid_4.jpg,left,877.5049999821931,true,high,NA,NA,NA,NA,NA,NA,NA,false
RseSzMi3,3r15w654wg6vibc4e4w6loevry9lqd,3mrnmeiqw9j3gm6t0kvoa93olrhdlh,RseSzMi3,2020-0188,2020-11-18,13:06:23,13:23:18,NA,incomplete,84,shape,1,right,Red_Circle_Grid_1.jpg,Green_Star_Dots_1.jpg,Blue_Circle_Stripes_3.jpg,right,906.4850000140723,true,high,NA,NA,NA,NA,NA,NA,NA,false
RseSzMi3,3r15w654wg6vibc4e4w6loevry9lqd,3mrnmeiqw9j3gm6t0kvoa93olrhdlh,RseSzMi3,2020-0188,2020-11-18,13:06:23,13:23:18,NA,incomplete,85,shape,1,left,Purple_Triangle_Chess_3.jpg,Green_Triangle_Dots_1.jpg,Blue_Star_Grid_3.jpg,left,1618.9350000058766,true,high,NA,NA,NA,NA,NA,NA,NA,false
RseSzMi3,3r15w654wg6vibc4e4w6loevry9lqd,3mrnmeiqw9j3gm6t0kvoa93olrhdlh,RseSzMi3,2020-0188,2020-11-18,13:06:23,13:23:18,NA,incomplete,86,shape,1,left,Red_Circle_Stripes_4.jpg,Blue_Circle_Dots_1.jpg,Purple_Plus_Grid_4.jpg,left,813.2550000154879,true,high,NA,NA,NA,NA,NA,NA,NA,false
RseSzMi3,3r15w654wg6vibc4e4w6loevry9lqd,3mrnmeiqw9j3gm6t0kvoa93olrhdlh,RseSzMi3,2020-0188,2020-11-18,13:06:23,13:23:18,NA,incomplete,87,shape,1,right,Purple_Plus_Dots_2.jpg,Green_Star_Chess_2.jpg,Red_Plus_Stripes_4.jpg,right,884.2849999782629,true,high,NA,NA,NA,NA,NA,NA,NA,false
RseSzMi3,3r15w654wg6vibc4e4w6loevry9lqd,3mrnmeiqw9j3gm6t0kvoa93olrhdlh,RseSzMi3,2020-0188,2020-11-18,13:06:23,13:23:18,NA,incomplete,88,shape,0,left,Green_Plus_Chess_2.jpg,Blue_Plus_Grid_4.jpg,Purple_Star_Stripes_2.jpg,left,687.6850000116974,true,high,NA,NA,NA,NA,NA,NA,NA,false
RseSzMi3,3r15w654wg6vibc4e4w6loevry9lqd,3mrnmeiqw9j3gm6t0kvoa93olrhdlh,RseSzMi3,2020-0188,2020-11-18,13:06:23,13:23:18,NA,incomplete,89,shape,1,right,Purple_Star_Grid_1.jpg,Green_Circle_Dots_1.jpg,Blue_Star_Chess_3.jpg,right,1099.0199999941979,true,high,NA,NA,NA,NA,NA,NA,NA,false
RseSzMi3,3r15w654wg6vibc4e4w6loevry9lqd,3mrnmeiqw9j3gm6t0kvoa93olrhdlh,RseSzMi3,2020-0188,2020-11-18,13:06:23,13:23:18,NA,incomplete,90,number,1,left,Green_Plus_Grid_2.jpg,Red_Star_Dots_2.jpg,Purple_Plus_Chess_1.jpg,right,1031.6749999765307,false,high,NA,NA,NA,NA,NA,NA,NA,false
RseSzMi3,3r15w654wg6vibc4e4w6loevry9lqd,3mrnmeiqw9j3gm6t0kvoa93olrhdlh,RseSzMi3,2020-0188,2020-11-18,13:06:23,13:23:18,NA,incomplete,91,number,0,right,Red_Triangle_Grid_3.jpg,Green_Triangle_Chess_4.jpg,Blue_Plus_Stripes_3.jpg,right,1021.3050000020303,true,high,NA,NA,NA,NA,NA,NA,NA,false
RseSzMi3,3r15w654wg6vibc4e4w6loevry9lqd,3mrnmeiqw9j3gm6t0kvoa93olrhdlh,RseSzMi3,2020-0188,2020-11-18,13:06:23,13:23:18,NA,incomplete,92,number,1,left,Blue_Plus_Chess_4.jpg,Green_Triangle_Grid_4.jpg,Red_Plus_Dots_2.jpg,left,836.8250000057742,true,high,NA,NA,NA,NA,NA,NA,NA,false
RseSzMi3,3r15w654wg6vibc4e4w6loevry9lqd,3mrnmeiqw9j3gm6t0kvoa93olrhdlh,RseSzMi3,2020-0188,2020-11-18,13:06:23,13:23:18,NA,incomplete,93,number,1,left,Blue_Circle_Dots_4.jpg,Red_Plus_Grid_4.jpg,Purple_Circle_Stripes_1.jpg,left,664.4599999999627,true,high,NA,NA,NA,NA,NA,NA,NA,false
RseSzMi3,3r15w654wg6vibc4e4w6loevry9lqd,3mrnmeiqw9j3gm6t0kvoa93olrhdlh,RseSzMi3,2020-0188,2020-11-18,13:06:23,13:23:18,NA,incomplete,94,number,1,left,Green_Star_Dots_4.jpg,Purple_Plus_Grid_4.jpg,Blue_Star_Chess_3.jpg,left,708.4449999965727,true,high,NA,NA,NA,NA,NA,NA,NA,false
RseSzMi3,3r15w654wg6vibc4e4w6loevry9lqd,3mrnmeiqw9j3gm6t0kvoa93olrhdlh,RseSzMi3,2020-0188,2020-11-18,13:06:23,13:23:18,NA,incomplete,95,number,1,right,Purple_Plus_Grid_4.jpg,Blue_Plus_Chess_2.jpg,Red_Star_Dots_4.jpg,right,685.0500000000466,true,high,NA,NA,NA,NA,NA,NA,NA,false
RseSzMi3,3r15w654wg6vibc4e4w6loevry9lqd,3mrnmeiqw9j3gm6t0kvoa93olrhdlh,RseSzMi3,2020-0188,2020-11-18,13:06:23,13:23:18,NA,incomplete,96,number,0,right,Red_Plus_Chess_4.jpg,Purple_Plus_Dots_2.jpg,Blue_Star_Stripes_4.jpg,right,644.6599999908358,true,high,NA,NA,NA,NA,NA,NA,NA,false
RseSzMi3,3r15w654wg6vibc4e4w6loevry9lqd,3mrnmeiqw9j3gm6t0kvoa93olrhdlh,RseSzMi3,2020-0188,2020-11-18,13:06:23,13:23:18,NA,incomplete,97,number,1,right,Green_Star_Dots_2.jpg,Purple_Star_Stripes_3.jpg,Red_Plus_Chess_2.jpg,right,1100.8849999925587,true,high,NA,NA,NA,NA,NA,NA,NA,false
RseSzMi3,3r15w654wg6vibc4e4w6loevry9lqd,3mrnmeiqw9j3gm6t0kvoa93olrhdlh,RseSzMi3,2020-0188,2020-11-18,13:06:23,13:23:18,NA,incomplete,98,number,1,left,Purple_Circle_Dots_2.jpg,Red_Triangle_Grid_2.jpg,Green_Circle_Chess_1.jpg,left,695.2750000054948,true,high,NA,NA,NA,NA,NA,NA,NA,false
RseSzMi3,3r15w654wg6vibc4e4w6loevry9lqd,3mrnmeiqw9j3gm6t0kvoa93olrhdlh,RseSzMi3,2020-0188,2020-11-18,13:06:23,13:23:18,NA,incomplete,99,number,1,left,Green_Star_Chess_4.jpg,Red_Plus_Stripes_4.jpg,Purple_Star_Dots_2.jpg,left,846.4699999894947,true,high,NA,NA,NA,NA,NA,NA,NA,false
RseSzMi3,3r15w654wg6vibc4e4w6loevry9lqd,3mrnmeiqw9j3gm6t0kvoa93olrhdlh,RseSzMi3,2020-0188,2020-11-18,13:06:23,13:23:18,NA,incomplete,100,shape,1,right,Red_Plus_Stripes_3.jpg,Green_Triangle_Chess_3.jpg,Purple_Plus_Grid_4.jpg,left,825.059999973746,false,high,NA,NA,NA,NA,NA,NA,NA,false
RseSzMi3,3r15w654wg6vibc4e4w6loevry9lqd,3mrnmeiqw9j3gm6t0kvoa93olrhdlh,RseSzMi3,2020-0188,2020-11-18,13:06:23,13:23:18,NA,incomplete,101,shape,1,left,Green_Star_Grid_1.jpg,Red_Star_Chess_4.jpg,Purple_Triangle_Dots_1.jpg,right,1080.2200000034645,false,high,NA,NA,NA,NA,NA,NA,NA,false
RseSzMi3,3r15w654wg6vibc4e4w6loevry9lqd,3mrnmeiqw9j3gm6t0kvoa93olrhdlh,RseSzMi3,2020-0188,2020-11-18,13:06:23,13:23:18,NA,incomplete,102,shape,0,left,Blue_Circle_Chess_2.jpg,Red_Circle_Grid_3.jpg,Green_Star_Stripes_2.jpg,left,927.0400000095833,true,high,NA,NA,NA,NA,NA,NA,NA,false
RseSzMi3,3r15w654wg6vibc4e4w6loevry9lqd,3mrnmeiqw9j3gm6t0kvoa93olrhdlh,RseSzMi3,2020-0188,2020-11-18,13:06:23,13:23:18,NA,incomplete,103,shape,1,right,Red_Star_Chess_1.jpg,Purple_Circle_Stripes_1.jpg,Blue_Star_Dots_3.jpg,left,581.2450000084937,false,high,NA,NA,NA,NA,NA,NA,NA,false
RseSzMi3,3r15w654wg6vibc4e4w6loevry9lqd,3mrnmeiqw9j3gm6t0kvoa93olrhdlh,RseSzMi3,2020-0188,2020-11-18,13:06:23,13:23:18,NA,incomplete,104,shape,1,left,Green_Circle_Chess_4.jpg,Red_Circle_Dots_3.jpg,Purple_Star_Grid_4.jpg,left,905.094999994617,true,high,NA,NA,NA,NA,NA,NA,NA,false
RseSzMi3,3r15w654wg6vibc4e4w6loevry9lqd,3mrnmeiqw9j3gm6t0kvoa93olrhdlh,RseSzMi3,2020-0188,2020-11-18,13:06:23,13:23:18,NA,incomplete,105,shape,1,right,Red_Star_Chess_3.jpg,Green_Circle_Dots_3.jpg,Blue_Star_Grid_2.jpg,right,1071.6900000115857,true,high,NA,NA,NA,NA,NA,NA,NA,false
RseSzMi3,3r15w654wg6vibc4e4w6loevry9lqd,3mrnmeiqw9j3gm6t0kvoa93olrhdlh,RseSzMi3,2020-0188,2020-11-18,13:06:23,13:23:18,NA,incomplete,106,shape,0,left,Red_Star_Grid_3.jpg,Blue_Star_Dots_4.jpg,Green_Plus_Stripes_3.jpg,left,1241.970000002766,true,high,NA,NA,NA,NA,NA,NA,NA,false
RseSzMi3,3r15w654wg6vibc4e4w6loevry9lqd,3mrnmeiqw9j3gm6t0kvoa93olrhdlh,RseSzMi3,2020-0188,2020-11-18,13:06:23,13:23:18,NA,incomplete,107,shape,1,right,Red_Circle_Stripes_4.jpg,Green_Star_Chess_4.jpg,Purple_Circle_Dots_3.jpg,right,967.4650000233669,true,high,NA,NA,NA,NA,NA,NA,NA,false
RseSzMi3,3r15w654wg6vibc4e4w6loevry9lqd,3mrnmeiqw9j3gm6t0kvoa93olrhdlh,RseSzMi3,2020-0188,2020-11-18,13:06:23,13:23:18,NA,incomplete,108,shape,1,left,Red_Circle_Grid_4.jpg,Green_Circle_Chess_3.jpg,Purple_Star_Dots_4.jpg,left,575.8099999802653,true,high,NA,NA,NA,NA,NA,NA,NA,false
RseSzMi3,3r15w654wg6vibc4e4w6loevry9lqd,3mrnmeiqw9j3gm6t0kvoa93olrhdlh,RseSzMi3,2020-0188,2020-11-18,13:06:23,13:23:18,NA,incomplete,109,shape,1,left,Green_Star_Dots_2.jpg,Purple_Star_Stripes_3.jpg,Red_Plus_Chess_2.jpg,left,876.8200000049546,true,high,NA,NA,NA,NA,NA,NA,NA,false
RseSzMi3,3r15w654wg6vibc4e4w6loevry9lqd,3mrnmeiqw9j3gm6t0kvoa93olrhdlh,RseSzMi3,2020-0188,2020-11-18,13:06:23,13:23:18,NA,incomplete,110,number,1,left,Red_Star_Chess_3.jpg,Purple_Triangle_Dots_3.jpg,Green_Star_Stripes_2.jpg,right,889.8599999956787,false,high,NA,NA,NA,NA,NA,NA,NA,false
RseSzMi3,3r15w654wg6vibc4e4w6loevry9lqd,3mrnmeiqw9j3gm6t0kvoa93olrhdlh,RseSzMi3,2020-0188,2020-11-18,13:06:23,13:23:18,NA,incomplete,111,number,1,left,Purple_Circle_Dots_2.jpg,Green_Plus_Chess_2.jpg,Blue_Circle_Stripes_1.jpg,right,990.7850000017788,false,high,NA,NA,NA,NA,NA,NA,NA,false
RseSzMi3,3r15w654wg6vibc4e4w6loevry9lqd,3mrnmeiqw9j3gm6t0kvoa93olrhdlh,RseSzMi3,2020-0188,2020-11-18,13:06:23,13:23:18,NA,incomplete,112,number,1,left,Green_Triangle_Stripes_1.jpg,Blue_Star_Grid_1.jpg,Purple_Triangle_Dots_3.jpg,left,767.1500000287779,true,high,NA,NA,NA,NA,NA,NA,NA,false
RseSzMi3,3r15w654wg6vibc4e4w6loevry9lqd,3mrnmeiqw9j3gm6t0kvoa93olrhdlh,RseSzMi3,2020-0188,2020-11-18,13:06:23,13:23:18,NA,incomplete,113,number,1,left,Purple_Plus_Chess_2.jpg,Green_Circle_Stripes_2.jpg,Blue_Plus_Grid_3.jpg,left,803.1599999812897,true,high,NA,NA,NA,NA,NA,NA,NA,false
RseSzMi3,3r15w654wg6vibc4e4w6loevry9lqd,3mrnmeiqw9j3gm6t0kvoa93olrhdlh,RseSzMi3,2020-0188,2020-11-18,13:06:23,13:23:18,NA,incomplete,114,number,1,right,Green_Star_Stripes_2.jpg,Blue_Star_Dots_3.jpg,Red_Plus_Chess_2.jpg,right,708.0249999999069,true,high,NA,NA,NA,NA,NA,NA,NA,false
RseSzMi3,3r15w654wg6vibc4e4w6loevry9lqd,3mrnmeiqw9j3gm6t0kvoa93olrhdlh,RseSzMi3,2020-0188,2020-11-18,13:06:23,13:23:18,NA,incomplete,115,number,1,left,Green_Plus_Chess_4.jpg,Red_Triangle_Stripes_4.jpg,Purple_Plus_Dots_3.jpg,left,801.8400000000838,true,high,NA,NA,NA,NA,NA,NA,NA,false
RseSzMi3,3r15w654wg6vibc4e4w6loevry9lqd,3mrnmeiqw9j3gm6t0kvoa93olrhdlh,RseSzMi3,2020-0188,2020-11-18,13:06:23,13:23:18,NA,incomplete,116,number,1,right,Purple_Triangle_Dots_1.jpg,Green_Triangle_Chess_2.jpg,Blue_Circle_Grid_1.jpg,right,944.0499999909662,true,high,NA,NA,NA,NA,NA,NA,NA,false
RseSzMi3,3r15w654wg6vibc4e4w6loevry9lqd,3mrnmeiqw9j3gm6t0kvoa93olrhdlh,RseSzMi3,2020-0188,2020-11-18,13:06:23,13:23:18,NA,incomplete,117,number,1,left,Green_Circle_Dots_1.jpg,Purple_Plus_Chess_1.jpg,Blue_Circle_Stripes_4.jpg,left,874.0850000176579,true,high,NA,NA,NA,NA,NA,NA,NA,false
RseSzMi3,3r15w654wg6vibc4e4w6loevry9lqd,3mrnmeiqw9j3gm6t0kvoa93olrhdlh,RseSzMi3,2020-0188,2020-11-18,13:06:23,13:23:18,NA,incomplete,118,number,1,right,Blue_Plus_Stripes_3.jpg,Purple_Plus_Grid_1.jpg,Red_Star_Chess_3.jpg,right,621.9350000028498,true,high,NA,NA,NA,NA,NA,NA,NA,false
RseSzMi3,3r15w654wg6vibc4e4w6loevry9lqd,3mrnmeiqw9j3gm6t0kvoa93olrhdlh,RseSzMi3,2020-0188,2020-11-18,13:06:23,13:23:18,NA,incomplete,119,number,1,left,Blue_Triangle_Chess_4.jpg,Green_Circle_Grid_4.jpg,Purple_Triangle_Dots_3.jpg,left,677.7899999869987,true,high,NA,NA,NA,NA,NA,NA,NA,false
RseSzMi3,3r15w654wg6vibc4e4w6loevry9lqd,3mrnmeiqw9j3gm6t0kvoa93olrhdlh,RseSzMi3,2020-0188,2020-11-18,13:06:23,13:23:18,NA,incomplete,120,color,1,right,Purple_Star_Grid_4.jpg,Green_Triangle_Grid_1.jpg,Purple_Plus_Stripes_3.jpg,none,0,false,high,NA,NA,NA,NA,NA,NA,NA,false
RseSzMi3,3r15w654wg6vibc4e4w6loevry9lqd,3mrnmeiqw9j3gm6t0kvoa93olrhdlh,RseSzMi3,2020-0188,2020-11-18,13:06:23,13:23:18,NA,incomplete,121,color,1,left,Red_Plus_Stripes_3.jpg,Red_Circle_Dots_4.jpg,Blue_Star_Stripes_1.jpg,left,710.3550000174437,true,high,NA,NA,NA,NA,NA,NA,NA,false
RseSzMi3,3r15w654wg6vibc4e4w6loevry9lqd,3mrnmeiqw9j3gm6t0kvoa93olrhdlh,RseSzMi3,2020-0188,2020-11-18,13:06:23,13:23:18,NA,incomplete,122,color,1,right,Red_Circle_Grid_2.jpg,Blue_Star_Grid_1.jpg,Red_Plus_Chess_4.jpg,right,486.3400000031106,true,high,NA,NA,NA,NA,NA,NA,NA,false
RseSzMi3,3r15w654wg6vibc4e4w6loevry9lqd,3mrnmeiqw9j3gm6t0kvoa93olrhdlh,RseSzMi3,2020-0188,2020-11-18,13:06:23,13:23:18,NA,incomplete,123,color,1,right,Green_Triangle_Grid_1.jpg,Red_Star_Grid_4.jpg,Green_Plus_Stripes_3.jpg,right,671.329999982845,true,high,NA,NA,NA,NA,NA,NA,NA,false
RseSzMi3,3r15w654wg6vibc4e4w6loevry9lqd,3mrnmeiqw9j3gm6t0kvoa93olrhdlh,RseSzMi3,2020-0188,2020-11-18,13:06:23,13:23:18,NA,incomplete,124,color,1,right,Red_Triangle_Stripes_1.jpg,Purple_Star_Stripes_3.jpg,Red_Circle_Chess_4.jpg,right,632.9299999924842,true,high,NA,NA,NA,NA,NA,NA,NA,false
RseSzMi3,3r15w654wg6vibc4e4w6loevry9lqd,3mrnmeiqw9j3gm6t0kvoa93olrhdlh,RseSzMi3,2020-0188,2020-11-18,13:06:23,13:23:18,NA,incomplete,125,color,1,right,Green_Star_Grid_4.jpg,Purple_Circle_Grid_2.jpg,Green_Plus_Dots_1.jpg,right,875.4500000213739,true,high,NA,NA,NA,NA,NA,NA,NA,false
RseSzMi3,3r15w654wg6vibc4e4w6loevry9lqd,3mrnmeiqw9j3gm6t0kvoa93olrhdlh,RseSzMi3,2020-0188,2020-11-18,13:06:23,13:23:18,NA,incomplete,126,color,1,right,Red_Triangle_Chess_1.jpg,Blue_Circle_Chess_2.jpg,Red_Plus_Grid_3.jpg,right,559.979999990901,true,high,NA,NA,NA,NA,NA,NA,NA,false
RseSzMi3,3r15w654wg6vibc4e4w6loevry9lqd,3mrnmeiqw9j3gm6t0kvoa93olrhdlh,RseSzMi3,2020-0188,2020-11-18,13:06:23,13:23:18,NA,incomplete,127,color,0,right,Purple_Plus_Chess_4.jpg,Blue_Star_Chess_2.jpg,Purple_Circle_Dots_3.jpg,right,436.65499999769963,true,high,NA,NA,NA,NA,NA,NA,NA,false
RseSzMi3,3r15w654wg6vibc4e4w6loevry9lqd,3mrnmeiqw9j3gm6t0kvoa93olrhdlh,RseSzMi3,2020-0188,2020-11-18,13:06:23,13:23:18,NA,incomplete,128,color,1,left,Green_Circle_Dots_4.jpg,Green_Plus_Grid_1.jpg,Purple_Star_Dots_2.jpg,left,512.5549999938812,true,high,NA,NA,NA,NA,NA,NA,NA,false
RseSzMi3,3r15w654wg6vibc4e4w6loevry9lqd,3mrnmeiqw9j3gm6t0kvoa93olrhdlh,RseSzMi3,2020-0188,2020-11-18,13:06:23,13:23:18,NA,incomplete,129,color,1,right,Blue_Triangle_Chess_2.jpg,Green_Star_Chess_1.jpg,Blue_Circle_Stripes_4.jpg,right,770.2899999858346,true,high,NA,NA,NA,NA,NA,NA,NA,false
RseSzMi3,3r15w654wg6vibc4e4w6loevry9lqd,3mrnmeiqw9j3gm6t0kvoa93olrhdlh,RseSzMi3,2020-0188,2020-11-18,13:06:23,13:23:18,NA,incomplete,130,color,1,left,Red_Plus_Stripes_3.jpg,Red_Triangle_Grid_4.jpg,Purple_Circle_Stripes_2.jpg,left,735.4400000185706,true,high,NA,NA,NA,NA,NA,NA,NA,false
RseSzMi3,3r15w654wg6vibc4e4w6loevry9lqd,3mrnmeiqw9j3gm6t0kvoa93olrhdlh,RseSzMi3,2020-0188,2020-11-18,13:06:23,13:23:18,NA,incomplete,131,color,1,left,Blue_Plus_Stripes_2.jpg,Blue_Circle_Chess_1.jpg,Green_Triangle_Stripes_4.jpg,left,679.8550000239629,true,high,NA,NA,NA,NA,NA,NA,NA,false
RseSzMi3,3r15w654wg6vibc4e4w6loevry9lqd,3mrnmeiqw9j3gm6t0kvoa93olrhdlh,RseSzMi3,2020-0188,2020-11-18,13:06:23,13:23:18,NA,incomplete,132,color,1,right,Green_Triangle_Dots_2.jpg,Purple_Plus_Dots_4.jpg,Green_Circle_Chess_1.jpg,right,490.9899999911431,true,high,NA,NA,NA,NA,NA,NA,NA,false
RseSzMi3,3r15w654wg6vibc4e4w6loevry9lqd,3mrnmeiqw9j3gm6t0kvoa93olrhdlh,RseSzMi3,2020-0188,2020-11-18,13:06:23,13:23:18,NA,incomplete,133,color,1,left,Green_Triangle_Stripes_1.jpg,Green_Star_Grid_4.jpg,Red_Circle_Stripes_2.jpg,left,478.4949999884702,true,high,NA,NA,NA,NA,NA,NA,NA,false
RseSzMi3,3r15w654wg6vibc4e4w6loevry9lqd,3mrnmeiqw9j3gm6t0kvoa93olrhdlh,RseSzMi3,2020-0188,2020-11-18,13:06:23,13:23:18,NA,incomplete,134,color,0,right,Red_Triangle_Chess_4.jpg,Purple_Circle_Chess_2.jpg,Red_Plus_Stripes_3.jpg,right,526.5500000095926,true,high,NA,NA,NA,NA,NA,NA,NA,false
RseSzMi3,3r15w654wg6vibc4e4w6loevry9lqd,3mrnmeiqw9j3gm6t0kvoa93olrhdlh,RseSzMi3,2020-0188,2020-11-18,13:06:23,13:23:18,NA,incomplete,135,color,1,right,Red_Plus_Dots_3.jpg,Blue_Star_Dots_2.jpg,Red_Circle_Stripes_4.jpg,right,449.1799999959767,true,high,NA,NA,NA,NA,NA,NA,NA,false
RseSzMi3,3r15w654wg6vibc4e4w6loevry9lqd,3mrnmeiqw9j3gm6t0kvoa93olrhdlh,RseSzMi3,2020-0188,2020-11-18,13:06:23,13:23:18,NA,incomplete,136,color,1,left,Purple_Circle_Stripes_2.jpg,Purple_Triangle_Chess_4.jpg,Green_Star_Stripes_3.jpg,left,513.7649999815039,true,high,NA,NA,NA,NA,NA,NA,NA,false
RseSzMi3,3r15w654wg6vibc4e4w6loevry9lqd,3mrnmeiqw9j3gm6t0kvoa93olrhdlh,RseSzMi3,2020-0188,2020-11-18,13:06:23,13:23:18,NA,incomplete,137,color,1,right,Green_Star_Dots_1.jpg,Purple_Triangle_Dots_3.jpg,Green_Circle_Grid_4.jpg,right,600.6500000075903,true,high,NA,NA,NA,NA,NA,NA,NA,false
RseSzMi3,3r15w654wg6vibc4e4w6loevry9lqd,3mrnmeiqw9j3gm6t0kvoa93olrhdlh,RseSzMi3,2020-0188,2020-11-18,13:06:23,13:23:18,NA,incomplete,138,color,0,left,Green_Triangle_Dots_3.jpg,Green_Circle_Grid_2.jpg,Red_Star_Dots_1.jpg,left,516.2600000039674,true,high,NA,NA,NA,NA,NA,NA,NA,false
RseSzMi3,3r15w654wg6vibc4e4w6loevry9lqd,3mrnmeiqw9j3gm6t0kvoa93olrhdlh,RseSzMi3,2020-0188,2020-11-18,13:06:23,13:23:18,NA,incomplete,139,color,1,right,Red_Circle_Stripes_1.jpg,Purple_Plus_Stripes_3.jpg,Red_Triangle_Dots_4.jpg,right,409.9049999786075,true,high,NA,NA,NA,NA,NA,NA,NA,false
RseSzMi3,3r15w654wg6vibc4e4w6loevry9lqd,3mrnmeiqw9j3gm6t0kvoa93olrhdlh,RseSzMi3,2020-0188,2020-11-18,13:06:23,13:23:18,NA,incomplete,140,filling,0,left,Green_Circle_Chess_4.jpg,Red_Star_Chess_2.jpg,Green_Triangle_Grid_1.jpg,right,523.3949999965262,false,high,NA,NA,NA,NA,NA,NA,NA,false
RseSzMi3,3r15w654wg6vibc4e4w6loevry9lqd,3mrnmeiqw9j3gm6t0kvoa93olrhdlh,RseSzMi3,2020-0188,2020-11-18,13:06:23,13:23:18,NA,incomplete,141,filling,1,right,Red_Triangle_Grid_3.jpg,Red_Plus_Chess_4.jpg,Purple_Star_Grid_2.jpg,right,475.53999998490326,true,high,NA,NA,NA,NA,NA,NA,NA,false
RseSzMi3,3r15w654wg6vibc4e4w6loevry9lqd,3mrnmeiqw9j3gm6t0kvoa93olrhdlh,RseSzMi3,2020-0188,2020-11-18,13:06:23,13:23:18,NA,incomplete,142,filling,1,right,Blue_Star_Grid_4.jpg,Blue_Plus_Stripes_3.jpg,Red_Circle_Grid_2.jpg,right,683.8350000034552,true,high,NA,NA,NA,NA,NA,NA,NA,false
RseSzMi3,3r15w654wg6vibc4e4w6loevry9lqd,3mrnmeiqw9j3gm6t0kvoa93olrhdlh,RseSzMi3,2020-0188,2020-11-18,13:06:23,13:23:18,NA,incomplete,143,filling,1,left,Blue_Star_Chess_4.jpg,Green_Plus_Chess_3.jpg,Blue_Circle_Grid_2.jpg,left,685.6499999994412,true,high,NA,NA,NA,NA,NA,NA,NA,false
RseSzMi3,3r15w654wg6vibc4e4w6loevry9lqd,3mrnmeiqw9j3gm6t0kvoa93olrhdlh,RseSzMi3,2020-0188,2020-11-18,13:06:23,13:23:18,NA,incomplete,144,filling,0,right,Green_Plus_Stripes_4.jpg,Green_Star_Dots_2.jpg,Purple_Circle_Stripes_3.jpg,right,726.1100000177976,true,high,NA,NA,NA,NA,NA,NA,NA,false
RseSzMi3,3r15w654wg6vibc4e4w6loevry9lqd,3mrnmeiqw9j3gm6t0kvoa93olrhdlh,RseSzMi3,2020-0188,2020-11-18,13:06:23,13:23:18,NA,incomplete,145,filling,1,right,Red_Plus_Stripes_1.jpg,Red_Circle_Chess_3.jpg,Blue_Triangle_Stripes_2.jpg,right,476.634999999078,true,high,NA,NA,NA,NA,NA,NA,NA,false
RseSzMi3,3r15w654wg6vibc4e4w6loevry9lqd,3mrnmeiqw9j3gm6t0kvoa93olrhdlh,RseSzMi3,2020-0188,2020-11-18,13:06:23,13:23:18,NA,incomplete,146,filling,0,left,Purple_Triangle_Chess_2.jpg,Green_Circle_Chess_4.jpg,Purple_Plus_Dots_1.jpg,left,686.9449999940116,true,high,NA,NA,NA,NA,NA,NA,NA,false
RseSzMi3,3r15w654wg6vibc4e4w6loevry9lqd,3mrnmeiqw9j3gm6t0kvoa93olrhdlh,RseSzMi3,2020-0188,2020-11-18,13:06:23,13:23:18,NA,incomplete,147,filling,1,right,Purple_Triangle_Stripes_4.jpg,Purple_Plus_Chess_2.jpg,Blue_Star_Stripes_1.jpg,right,783.835000009276,true,high,NA,NA,NA,NA,NA,NA,NA,false
RseSzMi3,3r15w654wg6vibc4e4w6loevry9lqd,3mrnmeiqw9j3gm6t0kvoa93olrhdlh,RseSzMi3,2020-0188,2020-11-18,13:06:23,13:23:18,NA,incomplete,148,filling,0,left,Blue_Star_Dots_1.jpg,Purple_Plus_Dots_4.jpg,Blue_Triangle_Chess_3.jpg,left,622.5749999866821,true,high,NA,NA,NA,NA,NA,NA,NA,false
RseSzMi3,3r15w654wg6vibc4e4w6loevry9lqd,3mrnmeiqw9j3gm6t0kvoa93olrhdlh,RseSzMi3,2020-0188,2020-11-18,13:06:23,13:23:18,NA,incomplete,149,filling,1,right,Purple_Plus_Dots_3.jpg,Purple_Circle_Chess_1.jpg,Red_Triangle_Dots_4.jpg,right,742.6300000224728,true,high,NA,NA,NA,NA,NA,NA,NA,false
RseSzMi3,3r15w654wg6vibc4e4w6loevry9lqd,3mrnmeiqw9j3gm6t0kvoa93olrhdlh,RseSzMi3,2020-0188,2020-11-18,13:06:23,13:23:18,NA,incomplete,150,filling,0,right,Blue_Plus_Chess_4.jpg,Blue_Circle_Grid_2.jpg,Green_Triangle_Chess_1.jpg,right,742.1749999921303,true,high,NA,NA,NA,NA,NA,NA,NA,false
RseSzMi3,3r15w654wg6vibc4e4w6loevry9lqd,3mrnmeiqw9j3gm6t0kvoa93olrhdlh,RseSzMi3,2020-0188,2020-11-18,13:06:23,13:23:18,NA,incomplete,151,filling,1,right,Green_Plus_Stripes_1.jpg,Green_Triangle_Grid_2.jpg,Red_Circle_Stripes_3.jpg,left,733.7400000251364,false,high,NA,NA,NA,NA,NA,NA,NA,false
RseSzMi3,3r15w654wg6vibc4e4w6loevry9lqd,3mrnmeiqw9j3gm6t0kvoa93olrhdlh,RseSzMi3,2020-0188,2020-11-18,13:06:23,13:23:18,NA,incomplete,152,filling,1,right,Green_Triangle_Stripes_2.jpg,Green_Circle_Chess_1.jpg,Blue_Star_Stripes_3.jpg,left,928.8550000055693,false,high,NA,NA,NA,NA,NA,NA,NA,false
RseSzMi3,3r15w654wg6vibc4e4w6loevry9lqd,3mrnmeiqw9j3gm6t0kvoa93olrhdlh,RseSzMi3,2020-0188,2020-11-18,13:06:23,13:23:18,NA,incomplete,153,filling,1,right,Blue_Triangle_Stripes_2.jpg,Blue_Circle_Dots_4.jpg,Red_Star_Stripes_1.jpg,right,733.3900000085123,true,high,NA,NA,NA,NA,NA,NA,NA,false
RseSzMi3,3r15w654wg6vibc4e4w6loevry9lqd,3mrnmeiqw9j3gm6t0kvoa93olrhdlh,RseSzMi3,2020-0188,2020-11-18,13:06:23,13:23:18,NA,incomplete,154,filling,1,right,Purple_Circle_Stripes_4.jpg,Purple_Star_Grid_2.jpg,Red_Plus_Stripes_1.jpg,right,592.7700000174809,true,high,NA,NA,NA,NA,NA,NA,NA,false
RseSzMi3,3r15w654wg6vibc4e4w6loevry9lqd,3mrnmeiqw9j3gm6t0kvoa93olrhdlh,RseSzMi3,2020-0188,2020-11-18,13:06:23,13:23:18,NA,incomplete,155,filling,1,left,Purple_Triangle_Chess_2.jpg,Green_Circle_Chess_4.jpg,Purple_Plus_Grid_1.jpg,right,646.7950000078417,false,high,NA,NA,NA,NA,NA,NA,NA,false
RseSzMi3,3r15w654wg6vibc4e4w6loevry9lqd,3mrnmeiqw9j3gm6t0kvoa93olrhdlh,RseSzMi3,2020-0188,2020-11-18,13:06:23,13:23:18,NA,incomplete,156,filling,1,left,Purple_Triangle_Grid_1.jpg,Red_Star_Grid_4.jpg,Purple_Plus_Chess_2.jpg,left,707.9450000019278,true,high,NA,NA,NA,NA,NA,NA,NA,false
RseSzMi3,3r15w654wg6vibc4e4w6loevry9lqd,3mrnmeiqw9j3gm6t0kvoa93olrhdlh,RseSzMi3,2020-0188,2020-11-18,13:06:23,13:23:18,NA,incomplete,157,filling,1,right,Green_Star_Chess_1.jpg,Green_Triangle_Stripes_4.jpg,Red_Circle_Chess_3.jpg,right,500.4950000147801,true,high,NA,NA,NA,NA,NA,NA,NA,false
RseSzMi3,3r15w654wg6vibc4e4w6loevry9lqd,3mrnmeiqw9j3gm6t0kvoa93olrhdlh,RseSzMi3,2020-0188,2020-11-18,13:06:23,13:23:18,NA,incomplete,158,filling,0,right,Green_Plus_Dots_4.jpg,Green_Triangle_Grid_3.jpg,Purple_Circle_Dots_2.jpg,right,617.0150000252761,true,high,NA,NA,NA,NA,NA,NA,NA,false
RseSzMi3,3r15w654wg6vibc4e4w6loevry9lqd,3mrnmeiqw9j3gm6t0kvoa93olrhdlh,RseSzMi3,2020-0188,2020-11-18,13:06:23,13:23:18,NA,incomplete,159,filling,1,right,Purple_Star_Chess_2.jpg,Purple_Plus_Dots_4.jpg,Blue_Triangle_Chess_1.jpg,right,471.38999999151565,true,high,NA,NA,NA,NA,NA,NA,NA,false
RseSzMi3,3r15w654wg6vibc4e4w6loevry9lqd,3mrnmeiqw9j3gm6t0kvoa93olrhdlh,RseSzMi3,2020-0188,2020-11-18,13:06:23,13:23:18,NA,incomplete,160,color,0,left,Red_Triangle_Dots_2.jpg,Red_Star_Chess_4.jpg,Blue_Plus_Dots_3.jpg,right,468.82999999797903,false,high,NA,NA,NA,NA,NA,NA,NA,false
RseSzMi3,3r15w654wg6vibc4e4w6loevry9lqd,3mrnmeiqw9j3gm6t0kvoa93olrhdlh,RseSzMi3,2020-0188,2020-11-18,13:06:23,13:23:18,NA,incomplete,161,color,1,left,Green_Plus_Stripes_1.jpg,Green_Triangle_Dots_2.jpg,Red_Star_Stripes_3.jpg,right,487.16499999864027,false,high,NA,NA,NA,NA,NA,NA,NA,false
RseSzMi3,3r15w654wg6vibc4e4w6loevry9lqd,3mrnmeiqw9j3gm6t0kvoa93olrhdlh,RseSzMi3,2020-0188,2020-11-18,13:06:23,13:23:18,NA,incomplete,162,color,1,left,Blue_Triangle_Grid_3.jpg,Blue_Plus_Chess_4.jpg,Purple_Circle_Grid_1.jpg,right,513.4299999917857,false,high,NA,NA,NA,NA,NA,NA,NA,false
RseSzMi3,3r15w654wg6vibc4e4w6loevry9lqd,3mrnmeiqw9j3gm6t0kvoa93olrhdlh,RseSzMi3,2020-0188,2020-11-18,13:06:23,13:23:18,NA,incomplete,163,color,1,right,Purple_Star_Grid_1.jpg,Blue_Plus_Grid_3.jpg,Purple_Circle_Stripes_2.jpg,right,798.9600000146311,true,high,NA,NA,NA,NA,NA,NA,NA,false
RseSzMi3,3r15w654wg6vibc4e4w6loevry9lqd,3mrnmeiqw9j3gm6t0kvoa93olrhdlh,RseSzMi3,2020-0188,2020-11-18,13:06:23,13:23:18,NA,incomplete,164,color,0,right,Blue_Star_Chess_2.jpg,Purple_Plus_Chess_1.jpg,Blue_Circle_Grid_4.jpg,right,452.0349999947939,true,high,NA,NA,NA,NA,NA,NA,NA,false
RseSzMi3,3r15w654wg6vibc4e4w6loevry9lqd,3mrnmeiqw9j3gm6t0kvoa93olrhdlh,RseSzMi3,2020-0188,2020-11-18,13:06:23,13:23:18,NA,incomplete,165,color,1,right,Purple_Circle_Stripes_1.jpg,Red_Triangle_Stripes_4.jpg,Purple_Plus_Grid_3.jpg,right,483.99999999674037,true,high,NA,NA,NA,NA,NA,NA,NA,false
RseSzMi3,3r15w654wg6vibc4e4w6loevry9lqd,3mrnmeiqw9j3gm6t0kvoa93olrhdlh,RseSzMi3,2020-0188,2020-11-18,13:06:23,13:23:18,NA,incomplete,166,color,1,right,Blue_Triangle_Grid_4.jpg,Red_Star_Grid_3.jpg,Blue_Circle_Dots_2.jpg,right,419.1599999903701,true,high,NA,NA,NA,NA,NA,NA,NA,false
RseSzMi3,3r15w654wg6vibc4e4w6loevry9lqd,3mrnmeiqw9j3gm6t0kvoa93olrhdlh,RseSzMi3,2020-0188,2020-11-18,13:06:23,13:23:18,NA,incomplete,167,color,0,left,Blue_Triangle_Chess_1.jpg,Blue_Plus_Stripes_3.jpg,Red_Circle_Chess_4.jpg,left,436.90000000060536,true,high,NA,NA,NA,NA,NA,NA,NA,false
RseSzMi3,3r15w654wg6vibc4e4w6loevry9lqd,3mrnmeiqw9j3gm6t0kvoa93olrhdlh,RseSzMi3,2020-0188,2020-11-18,13:06:23,13:23:18,NA,incomplete,168,color,1,right,Red_Circle_Grid_4.jpg,Purple_Star_Grid_1.jpg,Red_Plus_Chess_2.jpg,right,636.6850000049453,true,high,NA,NA,NA,NA,NA,NA,NA,false
RseSzMi3,3r15w654wg6vibc4e4w6loevry9lqd,3mrnmeiqw9j3gm6t0kvoa93olrhdlh,RseSzMi3,2020-0188,2020-11-18,13:06:23,13:23:18,NA,incomplete,169,color,0,left,Red_Plus_Grid_4.jpg,Red_Circle_Chess_3.jpg,Purple_Star_Grid_2.jpg,left,475.639999989653,true,high,NA,NA,NA,NA,NA,NA,NA,false
RseSzMi3,3r15w654wg6vibc4e4w6loevry9lqd,3mrnmeiqw9j3gm6t0kvoa93olrhdlh,RseSzMi3,2020-0188,2020-11-18,13:06:23,13:23:18,NA,incomplete,170,color,1,right,Red_Circle_Grid_4.jpg,Green_Plus_Grid_1.jpg,Red_Triangle_Chess_3.jpg,left,596.2599999911617,false,high,NA,NA,NA,NA,NA,NA,NA,false
RseSzMi3,3r15w654wg6vibc4e4w6loevry9lqd,3mrnmeiqw9j3gm6t0kvoa93olrhdlh,RseSzMi3,2020-0188,2020-11-18,13:06:23,13:23:18,NA,incomplete,171,color,1,right,Blue_Plus_Grid_4.jpg,Purple_Triangle_Grid_1.jpg,Blue_Circle_Chess_2.jpg,right,745.7400000130292,true,high,NA,NA,NA,NA,NA,NA,NA,false
RseSzMi3,3r15w654wg6vibc4e4w6loevry9lqd,3mrnmeiqw9j3gm6t0kvoa93olrhdlh,RseSzMi3,2020-0188,2020-11-18,13:06:23,13:23:18,NA,incomplete,172,color,1,right,Red_Star_Dots_1.jpg,Purple_Circle_Dots_2.jpg,Red_Plus_Chess_3.jpg,right,434.17000002227724,true,high,NA,NA,NA,NA,NA,NA,NA,false
RseSzMi3,3r15w654wg6vibc4e4w6loevry9lqd,3mrnmeiqw9j3gm6t0kvoa93olrhdlh,RseSzMi3,2020-0188,2020-11-18,13:06:23,13:23:18,NA,incomplete,173,color,1,right,Purple_Triangle_Grid_4.jpg,Red_Plus_Grid_1.jpg,Purple_Circle_Stripes_3.jpg,right,415.0900000240654,true,high,NA,NA,NA,NA,NA,NA,NA,false
RseSzMi3,3r15w654wg6vibc4e4w6loevry9lqd,3mrnmeiqw9j3gm6t0kvoa93olrhdlh,RseSzMi3,2020-0188,2020-11-18,13:06:23,13:23:18,NA,incomplete,174,color,1,right,Red_Circle_Stripes_2.jpg,Green_Star_Stripes_3.jpg,Red_Plus_Dots_1.jpg,left,500.4100000078324,false,high,NA,NA,NA,NA,NA,NA,NA,false
RseSzMi3,3r15w654wg6vibc4e4w6loevry9lqd,3mrnmeiqw9j3gm6t0kvoa93olrhdlh,RseSzMi3,2020-0188,2020-11-18,13:06:23,13:23:18,NA,incomplete,175,color,0,left,Red_Triangle_Dots_3.jpg,Red_Star_Stripes_2.jpg,Green_Plus_Dots_1.jpg,left,606.1600000248291,true,high,NA,NA,NA,NA,NA,NA,NA,false
RseSzMi3,3r15w654wg6vibc4e4w6loevry9lqd,3mrnmeiqw9j3gm6t0kvoa93olrhdlh,RseSzMi3,2020-0188,2020-11-18,13:06:23,13:23:18,NA,incomplete,176,color,1,right,Red_Triangle_Dots_1.jpg,Green_Plus_Dots_2.jpg,Red_Star_Grid_3.jpg,right,663.3250000013504,true,high,NA,NA,NA,NA,NA,NA,NA,false
RseSzMi3,3r15w654wg6vibc4e4w6loevry9lqd,3mrnmeiqw9j3gm6t0kvoa93olrhdlh,RseSzMi3,2020-0188,2020-11-18,13:06:23,13:23:18,NA,incomplete,177,color,1,left,Green_Plus_Stripes_2.jpg,Green_Circle_Grid_1.jpg,Red_Triangle_Stripes_4.jpg,left,948.0650000041351,true,high,NA,NA,NA,NA,NA,NA,NA,false
RseSzMi3,3r15w654wg6vibc4e4w6loevry9lqd,3mrnmeiqw9j3gm6t0kvoa93olrhdlh,RseSzMi3,2020-0188,2020-11-18,13:06:23,13:23:18,NA,incomplete,178,color,1,right,Purple_Circle_Dots_3.jpg,Red_Triangle_Dots_2.jpg,Purple_Plus_Grid_4.jpg,right,444.15500000468455,true,high,NA,NA,NA,NA,NA,NA,NA,false
RseSzMi3,3r15w654wg6vibc4e4w6loevry9lqd,3mrnmeiqw9j3gm6t0kvoa93olrhdlh,RseSzMi3,2020-0188,2020-11-18,13:06:23,13:23:18,NA,incomplete,179,color,1,right,Green_Star_Stripes_1.jpg,Blue_Circle_Stripes_4.jpg,Green_Plus_Chess_3.jpg,right,539.5050000224728,true,high,NA,NA,NA,NA,NA,NA,NA,false
RseSzMi3,3r15w654wg6vibc4e4w6loevry9lqd,3mrnmeiqw9j3gm6t0kvoa93olrhdlh,RseSzMi3,2020-0188,2020-11-18,13:06:23,13:23:18,NA,incomplete,180,filling,1,left,Purple_Circle_Dots_3.jpg,Red_Plus_Dots_1.jpg,Purple_Star_Chess_2.jpg,right,724.7050000005402,false,high,NA,NA,NA,NA,NA,NA,NA,false
RseSzMi3,3r15w654wg6vibc4e4w6loevry9lqd,3mrnmeiqw9j3gm6t0kvoa93olrhdlh,RseSzMi3,2020-0188,2020-11-18,13:06:23,13:23:18,NA,incomplete,181,filling,1,right,Blue_Plus_Dots_2.jpg,Blue_Circle_Grid_1.jpg,Red_Star_Dots_4.jpg,left,698.7800000060815,false,high,NA,NA,NA,NA,NA,NA,NA,false
RseSzMi3,3r15w654wg6vibc4e4w6loevry9lqd,3mrnmeiqw9j3gm6t0kvoa93olrhdlh,RseSzMi3,2020-0188,2020-11-18,13:06:23,13:23:18,NA,incomplete,182,filling,0,left,Blue_Star_Dots_4.jpg,Purple_Circle_Dots_2.jpg,Blue_Triangle_Stripes_1.jpg,left,711.3499999977648,true,high,NA,NA,NA,NA,NA,NA,NA,false
RseSzMi3,3r15w654wg6vibc4e4w6loevry9lqd,3mrnmeiqw9j3gm6t0kvoa93olrhdlh,RseSzMi3,2020-0188,2020-11-18,13:06:23,13:23:18,NA,incomplete,183,filling,1,left,Purple_Plus_Chess_3.jpg,Green_Triangle_Chess_4.jpg,Purple_Star_Grid_2.jpg,right,983.5399999865331,false,high,NA,NA,NA,NA,NA,NA,NA,false
RseSzMi3,3r15w654wg6vibc4e4w6loevry9lqd,3mrnmeiqw9j3gm6t0kvoa93olrhdlh,RseSzMi3,2020-0188,2020-11-18,13:06:23,13:23:18,NA,incomplete,184,filling,1,left,Green_Star_Dots_2.jpg,Red_Triangle_Dots_4.jpg,Green_Plus_Chess_1.jpg,left,864.4649999914691,true,high,NA,NA,NA,NA,NA,NA,NA,false
RseSzMi3,3r15w654wg6vibc4e4w6loevry9lqd,3mrnmeiqw9j3gm6t0kvoa93olrhdlh,RseSzMi3,2020-0188,2020-11-18,13:06:23,13:23:18,NA,incomplete,185,filling,1,left,Red_Circle_Grid_1.jpg,Blue_Plus_Grid_4.jpg,Red_Star_Dots_3.jpg,left,917.0449999801349,true,high,NA,NA,NA,NA,NA,NA,NA,false
RseSzMi3,3r15w654wg6vibc4e4w6loevry9lqd,3mrnmeiqw9j3gm6t0kvoa93olrhdlh,RseSzMi3,2020-0188,2020-11-18,13:06:23,13:23:18,NA,incomplete,186,filling,1,left,Green_Circle_Dots_2.jpg,Red_Plus_Dots_3.jpg,Green_Triangle_Stripes_1.jpg,left,528.3899999922141,true,high,NA,NA,NA,NA,NA,NA,NA,false
RseSzMi3,3r15w654wg6vibc4e4w6loevry9lqd,3mrnmeiqw9j3gm6t0kvoa93olrhdlh,RseSzMi3,2020-0188,2020-11-18,13:06:23,13:23:18,NA,incomplete,187,filling,1,right,Green_Star_Dots_2.jpg,Green_Plus_Grid_3.jpg,Purple_Triangle_Dots_1.jpg,right,825.9900000120979,true,high,NA,NA,NA,NA,NA,NA,NA,false
RseSzMi3,3r15w654wg6vibc4e4w6loevry9lqd,3mrnmeiqw9j3gm6t0kvoa93olrhdlh,RseSzMi3,2020-0188,2020-11-18,13:06:23,13:23:18,NA,incomplete,188,filling,1,right,Purple_Star_Chess_1.jpg,Purple_Triangle_Stripes_4.jpg,Blue_Plus_Chess_2.jpg,right,682.3799999838229,true,high,NA,NA,NA,NA,NA,NA,NA,false
RseSzMi3,3r15w654wg6vibc4e4w6loevry9lqd,3mrnmeiqw9j3gm6t0kvoa93olrhdlh,RseSzMi3,2020-0188,2020-11-18,13:06:23,13:23:18,NA,incomplete,189,filling,1,left,Purple_Plus_Stripes_4.jpg,Red_Circle_Stripes_2.jpg,Purple_Triangle_Chess_3.jpg,left,704.9750000005588,true,high,NA,NA,NA,NA,NA,NA,NA,false
RseSzMi3,3r15w654wg6vibc4e4w6loevry9lqd,3mrnmeiqw9j3gm6t0kvoa93olrhdlh,RseSzMi3,2020-0188,2020-11-18,13:06:23,13:23:18,NA,incomplete,190,filling,1,left,Purple_Circle_Chess_2.jpg,Blue_Star_Chess_1.jpg,Purple_Plus_Stripes_3.jpg,right,477.84999999566935,false,high,NA,NA,NA,NA,NA,NA,NA,false
RseSzMi3,3r15w654wg6vibc4e4w6loevry9lqd,3mrnmeiqw9j3gm6t0kvoa93olrhdlh,RseSzMi3,2020-0188,2020-11-18,13:06:23,13:23:18,NA,incomplete,191,filling,1,left,Purple_Star_Chess_4.jpg,Red_Plus_Chess_1.jpg,Purple_Circle_Dots_2.jpg,left,517.8149999992456,true,high,NA,NA,NA,NA,NA,NA,NA,false
RseSzMi3,3r15w654wg6vibc4e4w6loevry9lqd,3mrnmeiqw9j3gm6t0kvoa93olrhdlh,RseSzMi3,2020-0188,2020-11-18,13:06:23,13:23:18,NA,incomplete,192,filling,1,left,Red_Triangle_Grid_4.jpg,Purple_Circle_Grid_2.jpg,Red_Star_Dots_1.jpg,left,694.6549999993294,true,high,NA,NA,NA,NA,NA,NA,NA,false
RseSzMi3,3r15w654wg6vibc4e4w6loevry9lqd,3mrnmeiqw9j3gm6t0kvoa93olrhdlh,RseSzMi3,2020-0188,2020-11-18,13:06:23,13:23:18,NA,incomplete,193,filling,1,left,Purple_Circle_Chess_3.jpg,Blue_Plus_Chess_4.jpg,Purple_Triangle_Dots_1.jpg,left,592.1199999866076,true,high,NA,NA,NA,NA,NA,NA,NA,false
RseSzMi3,3r15w654wg6vibc4e4w6loevry9lqd,3mrnmeiqw9j3gm6t0kvoa93olrhdlh,RseSzMi3,2020-0188,2020-11-18,13:06:23,13:23:18,NA,incomplete,194,filling,1,right,Blue_Triangle_Grid_4.jpg,Blue_Star_Chess_1.jpg,Red_Circle_Grid_3.jpg,right,1113.5749999957625,true,high,NA,NA,NA,NA,NA,NA,NA,false
RseSzMi3,3r15w654wg6vibc4e4w6loevry9lqd,3mrnmeiqw9j3gm6t0kvoa93olrhdlh,RseSzMi3,2020-0188,2020-11-18,13:06:23,13:23:18,NA,incomplete,195,filling,0,right,Red_Star_Dots_3.jpg,Red_Triangle_Grid_1.jpg,Purple_Circle_Dots_4.jpg,left,1221.0749999794643,false,high,NA,NA,NA,NA,NA,NA,NA,false
RseSzMi3,3r15w654wg6vibc4e4w6loevry9lqd,3mrnmeiqw9j3gm6t0kvoa93olrhdlh,RseSzMi3,2020-0188,2020-11-18,13:06:23,13:23:18,NA,incomplete,196,filling,1,right,Blue_Circle_Grid_4.jpg,Blue_Plus_Chess_2.jpg,Green_Triangle_Grid_3.jpg,left,646.6550000186544,false,high,NA,NA,NA,NA,NA,NA,NA,false
RseSzMi3,3r15w654wg6vibc4e4w6loevry9lqd,3mrnmeiqw9j3gm6t0kvoa93olrhdlh,RseSzMi3,2020-0188,2020-11-18,13:06:23,13:23:18,NA,incomplete,197,filling,0,right,Green_Plus_Dots_3.jpg,Green_Star_Stripes_4.jpg,Red_Circle_Dots_1.jpg,right,657.9050000000279,true,high,NA,NA,NA,NA,NA,NA,NA,false
RseSzMi3,3r15w654wg6vibc4e4w6loevry9lqd,3mrnmeiqw9j3gm6t0kvoa93olrhdlh,RseSzMi3,2020-0188,2020-11-18,13:06:23,13:23:18,NA,incomplete,198,filling,1,right,Red_Star_Stripes_4.jpg,Red_Plus_Chess_3.jpg,Purple_Circle_Stripes_2.jpg,left,552.0050000050105,false,high,NA,NA,NA,NA,NA,NA,NA,false
RseSzMi3,3r15w654wg6vibc4e4w6loevry9lqd,3mrnmeiqw9j3gm6t0kvoa93olrhdlh,RseSzMi3,2020-0188,2020-11-18,13:06:23,13:23:18,NA,incomplete,199,filling,0,right,Red_Plus_Stripes_4.jpg,Red_Star_Grid_3.jpg,Green_Triangle_Stripes_1.jpg,right,537.9850000026636,true,high,NA,NA,NA,NA,NA,NA,NA,false
RseSzMi3,3r15w654wg6vibc4e4w6loevry9lqd,3mrnmeiqw9j3gm6t0kvoa93olrhdlh,RseSzMi3,2020-0188,2020-11-18,13:06:23,13:23:18,NA,incomplete,200,color,1,left,Red_Star_Chess_1.jpg,Red_Plus_Dots_3.jpg,Purple_Triangle_Chess_2.jpg,left,807.5499999977183,true,high,NA,NA,NA,NA,NA,NA,NA,false
RseSzMi3,3r15w654wg6vibc4e4w6loevry9lqd,3mrnmeiqw9j3gm6t0kvoa93olrhdlh,RseSzMi3,2020-0188,2020-11-18,13:06:23,13:23:18,NA,incomplete,201,color,1,right,Red_Circle_Dots_2.jpg,Blue_Triangle_Dots_3.jpg,Red_Star_Stripes_4.jpg,right,610.3199999779463,true,high,NA,NA,NA,NA,NA,NA,NA,false
RseSzMi3,3r15w654wg6vibc4e4w6loevry9lqd,3mrnmeiqw9j3gm6t0kvoa93olrhdlh,RseSzMi3,2020-0188,2020-11-18,13:06:23,13:23:18,NA,incomplete,202,color,1,left,Purple_Star_Grid_2.jpg,Purple_Plus_Stripes_1.jpg,Blue_Triangle_Grid_3.jpg,left,686.1600000120234,true,high,NA,NA,NA,NA,NA,NA,NA,false
RseSzMi3,3r15w654wg6vibc4e4w6loevry9lqd,3mrnmeiqw9j3gm6t0kvoa93olrhdlh,RseSzMi3,2020-0188,2020-11-18,13:06:23,13:23:18,NA,incomplete,203,color,1,left,Green_Star_Dots_1.jpg,Green_Circle_Grid_4.jpg,Purple_Triangle_Dots_3.jpg,left,665.0150000059512,true,high,NA,NA,NA,NA,NA,NA,NA,false
RseSzMi3,3r15w654wg6vibc4e4w6loevry9lqd,3mrnmeiqw9j3gm6t0kvoa93olrhdlh,RseSzMi3,2020-0188,2020-11-18,13:06:23,13:23:18,NA,incomplete,204,color,1,left,Red_Plus_Dots_3.jpg,Red_Star_Grid_2.jpg,Purple_Triangle_Dots_1.jpg,left,624.0450000041164,true,high,NA,NA,NA,NA,NA,NA,NA,false
RseSzMi3,3r15w654wg6vibc4e4w6loevry9lqd,3mrnmeiqw9j3gm6t0kvoa93olrhdlh,RseSzMi3,2020-0188,2020-11-18,13:06:23,13:23:18,NA,incomplete,205,color,1,right,Purple_Triangle_Stripes_4.jpg,Blue_Star_Stripes_3.jpg,Purple_Plus_Grid_2.jpg,right,546.6200000082608,true,high,NA,NA,NA,NA,NA,NA,NA,false
RseSzMi3,3r15w654wg6vibc4e4w6loevry9lqd,3mrnmeiqw9j3gm6t0kvoa93olrhdlh,RseSzMi3,2020-0188,2020-11-18,13:06:23,13:23:18,NA,incomplete,206,color,1,right,Red_Star_Stripes_4.jpg,Green_Triangle_Stripes_2.jpg,Red_Plus_Dots_1.jpg,right,830.9850000077859,true,high,NA,NA,NA,NA,NA,NA,NA,false
RseSzMi3,3r15w654wg6vibc4e4w6loevry9lqd,3mrnmeiqw9j3gm6t0kvoa93olrhdlh,RseSzMi3,2020-0188,2020-11-18,13:06:23,13:23:18,NA,incomplete,207,color,1,right,Red_Triangle_Stripes_4.jpg,Purple_Circle_Stripes_1.jpg,Red_Plus_Chess_2.jpg,right,499.0500000130851,true,high,NA,NA,NA,NA,NA,NA,NA,false
RseSzMi3,3r15w654wg6vibc4e4w6loevry9lqd,3mrnmeiqw9j3gm6t0kvoa93olrhdlh,RseSzMi3,2020-0188,2020-11-18,13:06:23,13:23:18,NA,incomplete,208,color,1,right,Purple_Triangle_Chess_2.jpg,Blue_Plus_Chess_3.jpg,Purple_Circle_Dots_4.jpg,right,753.8049999857321,true,high,NA,NA,NA,NA,NA,NA,NA,false
RseSzMi3,3r15w654wg6vibc4e4w6loevry9lqd,3mrnmeiqw9j3gm6t0kvoa93olrhdlh,RseSzMi3,2020-0188,2020-11-18,13:06:23,13:23:18,NA,incomplete,209,color,0,left,Green_Star_Chess_3.jpg,Green_Triangle_Grid_1.jpg,Blue_Circle_Chess_2.jpg,left,614.224999997532,true,high,NA,NA,NA,NA,NA,NA,NA,false
RseSzMi3,3r15w654wg6vibc4e4w6loevry9lqd,3mrnmeiqw9j3gm6t0kvoa93olrhdlh,RseSzMi3,2020-0188,2020-11-18,13:06:23,13:23:18,NA,incomplete,210,color,1,right,Green_Circle_Chess_3.jpg,Blue_Triangle_Chess_4.jpg,Green_Star_Stripes_1.jpg,right,650.6050000025425,true,high,NA,NA,NA,NA,NA,NA,NA,false
RseSzMi3,3r15w654wg6vibc4e4w6loevry9lqd,3mrnmeiqw9j3gm6t0kvoa93olrhdlh,RseSzMi3,2020-0188,2020-11-18,13:06:23,13:23:18,NA,incomplete,211,color,1,left,Green_Star_Chess_3.jpg,Green_Triangle_Dots_4.jpg,Red_Circle_Chess_1.jpg,left,590.4700000246521,true,high,NA,NA,NA,NA,NA,NA,NA,false
RseSzMi3,3r15w654wg6vibc4e4w6loevry9lqd,3mrnmeiqw9j3gm6t0kvoa93olrhdlh,RseSzMi3,2020-0188,2020-11-18,13:06:23,13:23:18,NA,incomplete,212,color,1,right,Purple_Circle_Grid_1.jpg,Green_Plus_Grid_3.jpg,Purple_Triangle_Chess_4.jpg,right,652.2899999981746,true,high,NA,NA,NA,NA,NA,NA,NA,false
RseSzMi3,3r15w654wg6vibc4e4w6loevry9lqd,3mrnmeiqw9j3gm6t0kvoa93olrhdlh,RseSzMi3,2020-0188,2020-11-18,13:06:23,13:23:18,NA,incomplete,213,color,0,right,Green_Circle_Chess_1.jpg,Blue_Plus_Chess_3.jpg,Green_Triangle_Dots_4.jpg,right,471.335000009276,true,high,NA,NA,NA,NA,NA,NA,NA,false
RseSzMi3,3r15w654wg6vibc4e4w6loevry9lqd,3mrnmeiqw9j3gm6t0kvoa93olrhdlh,RseSzMi3,2020-0188,2020-11-18,13:06:23,13:23:18,NA,incomplete,214,color,1,right,Red_Circle_Dots_1.jpg,Blue_Plus_Dots_4.jpg,Red_Star_Stripes_3.jpg,right,477.90500000701286,true,high,NA,NA,NA,NA,NA,NA,NA,false
RseSzMi3,3r15w654wg6vibc4e4w6loevry9lqd,3mrnmeiqw9j3gm6t0kvoa93olrhdlh,RseSzMi3,2020-0188,2020-11-18,13:06:23,13:23:18,NA,incomplete,215,color,1,right,Blue_Triangle_Chess_2.jpg,Green_Circle_Chess_3.jpg,Blue_Plus_Grid_1.jpg,right,598.679999995511,true,high,NA,NA,NA,NA,NA,NA,NA,false
RseSzMi3,3r15w654wg6vibc4e4w6loevry9lqd,3mrnmeiqw9j3gm6t0kvoa93olrhdlh,RseSzMi3,2020-0188,2020-11-18,13:06:23,13:23:18,NA,incomplete,216,color,1,right,Blue_Circle_Stripes_1.jpg,Green_Triangle_Stripes_3.jpg,Blue_Star_Dots_2.jpg,right,466.53500001411885,true,high,NA,NA,NA,NA,NA,NA,NA,false
RseSzMi3,3r15w654wg6vibc4e4w6loevry9lqd,3mrnmeiqw9j3gm6t0kvoa93olrhdlh,RseSzMi3,2020-0188,2020-11-18,13:06:23,13:23:18,NA,incomplete,217,color,1,right,Blue_Triangle_Stripes_1.jpg,Green_Circle_Stripes_4.jpg,Blue_Plus_Dots_3.jpg,right,572.34499999322,true,high,NA,NA,NA,NA,NA,NA,NA,false
RseSzMi3,3r15w654wg6vibc4e4w6loevry9lqd,3mrnmeiqw9j3gm6t0kvoa93olrhdlh,RseSzMi3,2020-0188,2020-11-18,13:06:23,13:23:18,NA,incomplete,218,color,1,right,Purple_Circle_Dots_4.jpg,Blue_Triangle_Dots_3.jpg,Purple_Plus_Chess_1.jpg,right,1218.7899999844376,true,high,NA,NA,NA,NA,NA,NA,NA,false
RseSzMi3,3r15w654wg6vibc4e4w6loevry9lqd,3mrnmeiqw9j3gm6t0kvoa93olrhdlh,RseSzMi3,2020-0188,2020-11-18,13:06:23,13:23:18,NA,incomplete,219,color,0,right,Purple_Star_Chess_1.jpg,Blue_Plus_Chess_4.jpg,Purple_Triangle_Grid_2.jpg,right,476.4199999917764,true,high,NA,NA,NA,NA,NA,NA,NA,false
RseSzMi3,3r15w654wg6vibc4e4w6loevry9lqd,3mrnmeiqw9j3gm6t0kvoa93olrhdlh,RseSzMi3,2020-0188,2020-11-18,13:06:23,13:23:18,NA,incomplete,220,filling,1,right,Red_Circle_Chess_2.jpg,Red_Plus_Stripes_4.jpg,Purple_Triangle_Chess_3.jpg,left,601.490000000922,false,high,NA,NA,NA,NA,NA,NA,NA,false
RseSzMi3,3r15w654wg6vibc4e4w6loevry9lqd,3mrnmeiqw9j3gm6t0kvoa93olrhdlh,RseSzMi3,2020-0188,2020-11-18,13:06:23,13:23:18,NA,incomplete,221,filling,1,left,Red_Circle_Grid_4.jpg,Purple_Plus_Grid_2.jpg,Red_Triangle_Stripes_1.jpg,left,690.8799999800976,true,high,NA,NA,NA,NA,NA,NA,NA,false
RseSzMi3,3r15w654wg6vibc4e4w6loevry9lqd,3mrnmeiqw9j3gm6t0kvoa93olrhdlh,RseSzMi3,2020-0188,2020-11-18,13:06:23,13:23:18,NA,incomplete,222,filling,0,right,Green_Star_Chess_1.jpg,Green_Circle_Grid_2.jpg,Red_Triangle_Chess_3.jpg,right,486.3049999985378,true,high,NA,NA,NA,NA,NA,NA,NA,false
RseSzMi3,3r15w654wg6vibc4e4w6loevry9lqd,3mrnmeiqw9j3gm6t0kvoa93olrhdlh,RseSzMi3,2020-0188,2020-11-18,13:06:23,13:23:18,NA,incomplete,223,filling,1,left,Red_Star_Stripes_2.jpg,Purple_Circle_Stripes_4.jpg,Red_Plus_Grid_3.jpg,left,612.6750000112224,true,high,NA,NA,NA,NA,NA,NA,NA,false
RseSzMi3,3r15w654wg6vibc4e4w6loevry9lqd,3mrnmeiqw9j3gm6t0kvoa93olrhdlh,RseSzMi3,2020-0188,2020-11-18,13:06:23,13:23:18,NA,incomplete,224,filling,1,left,Purple_Triangle_Stripes_4.jpg,Red_Plus_Stripes_2.jpg,Purple_Circle_Grid_1.jpg,left,585.4099999996834,true,high,NA,NA,NA,NA,NA,NA,NA,false
RseSzMi3,3r15w654wg6vibc4e4w6loevry9lqd,3mrnmeiqw9j3gm6t0kvoa93olrhdlh,RseSzMi3,2020-0188,2020-11-18,13:06:23,13:23:18,NA,incomplete,225,filling,0,left,Red_Circle_Grid_4.jpg,Purple_Plus_Grid_3.jpg,Red_Triangle_Dots_2.jpg,left,508.19000002229586,true,high,NA,NA,NA,NA,NA,NA,NA,false
RseSzMi3,3r15w654wg6vibc4e4w6loevry9lqd,3mrnmeiqw9j3gm6t0kvoa93olrhdlh,RseSzMi3,2020-0188,2020-11-18,13:06:23,13:23:18,NA,incomplete,226,filling,1,left,Green_Triangle_Grid_2.jpg,Purple_Circle_Grid_1.jpg,Green_Plus_Chess_3.jpg,left,599.5600000023842,true,high,NA,NA,NA,NA,NA,NA,NA,false
RseSzMi3,3r15w654wg6vibc4e4w6loevry9lqd,3mrnmeiqw9j3gm6t0kvoa93olrhdlh,RseSzMi3,2020-0188,2020-11-18,13:06:23,13:23:18,NA,incomplete,227,filling,1,right,Blue_Star_Grid_2.jpg,Blue_Plus_Dots_1.jpg,Red_Circle_Grid_4.jpg,right,639.2450000275858,true,high,NA,NA,NA,NA,NA,NA,NA,false
RseSzMi3,3r15w654wg6vibc4e4w6loevry9lqd,3mrnmeiqw9j3gm6t0kvoa93olrhdlh,RseSzMi3,2020-0188,2020-11-18,13:06:23,13:23:18,NA,incomplete,228,filling,1,right,Red_Circle_Dots_2.jpg,Red_Star_Chess_3.jpg,Blue_Plus_Dots_4.jpg,right,561.2650000257418,true,high,NA,NA,NA,NA,NA,NA,NA,false
RseSzMi3,3r15w654wg6vibc4e4w6loevry9lqd,3mrnmeiqw9j3gm6t0kvoa93olrhdlh,RseSzMi3,2020-0188,2020-11-18,13:06:23,13:23:18,NA,incomplete,229,filling,1,right,Green_Circle_Chess_3.jpg,Green_Star_Dots_2.jpg,Purple_Triangle_Chess_4.jpg,right,533.7650000001304,true,high,NA,NA,NA,NA,NA,NA,NA,false
RseSzMi3,3r15w654wg6vibc4e4w6loevry9lqd,3mrnmeiqw9j3gm6t0kvoa93olrhdlh,RseSzMi3,2020-0188,2020-11-18,13:06:23,13:23:18,NA,incomplete,230,filling,1,left,Green_Star_Chess_3.jpg,Red_Triangle_Chess_2.jpg,Green_Circle_Dots_1.jpg,left,506.695000018226,true,high,NA,NA,NA,NA,NA,NA,NA,false
RseSzMi3,3r15w654wg6vibc4e4w6loevry9lqd,3mrnmeiqw9j3gm6t0kvoa93olrhdlh,RseSzMi3,2020-0188,2020-11-18,13:06:23,13:23:18,NA,incomplete,231,filling,1,left,Blue_Plus_Grid_1.jpg,Purple_Triangle_Grid_4.jpg,Blue_Circle_Chess_2.jpg,left,1057.1950000012293,true,high,NA,NA,NA,NA,NA,NA,NA,false
RseSzMi3,3r15w654wg6vibc4e4w6loevry9lqd,3mrnmeiqw9j3gm6t0kvoa93olrhdlh,RseSzMi3,2020-0188,2020-11-18,13:06:23,13:23:18,NA,incomplete,232,filling,1,left,Purple_Star_Grid_3.jpg,Blue_Plus_Grid_4.jpg,Purple_Circle_Chess_2.jpg,left,454.98000000952743,true,high,NA,NA,NA,NA,NA,NA,NA,false
RseSzMi3,3r15w654wg6vibc4e4w6loevry9lqd,3mrnmeiqw9j3gm6t0kvoa93olrhdlh,RseSzMi3,2020-0188,2020-11-18,13:06:23,13:23:18,NA,incomplete,233,filling,1,left,Red_Circle_Stripes_1.jpg,Green_Plus_Stripes_2.jpg,Red_Star_Dots_3.jpg,left,456.8849999923259,true,high,NA,NA,NA,NA,NA,NA,NA,false
RseSzMi3,3r15w654wg6vibc4e4w6loevry9lqd,3mrnmeiqw9j3gm6t0kvoa93olrhdlh,RseSzMi3,2020-0188,2020-11-18,13:06:23,13:23:18,NA,incomplete,234,filling,0,left,Purple_Circle_Chess_1.jpg,Green_Plus_Chess_4.jpg,Purple_Triangle_Stripes_2.jpg,left,472.00000000884756,true,high,NA,NA,NA,NA,NA,NA,NA,false
RseSzMi3,3r15w654wg6vibc4e4w6loevry9lqd,3mrnmeiqw9j3gm6t0kvoa93olrhdlh,RseSzMi3,2020-0188,2020-11-18,13:06:23,13:23:18,NA,incomplete,235,filling,1,right,Green_Triangle_Grid_2.jpg,Green_Star_Chess_4.jpg,Blue_Plus_Grid_3.jpg,right,522.8150000039022,true,high,NA,NA,NA,NA,NA,NA,NA,false
RseSzMi3,3r15w654wg6vibc4e4w6loevry9lqd,3mrnmeiqw9j3gm6t0kvoa93olrhdlh,RseSzMi3,2020-0188,2020-11-18,13:06:23,13:23:18,NA,incomplete,236,filling,1,left,Green_Star_Grid_2.jpg,Blue_Circle_Grid_3.jpg,Green_Triangle_Stripes_4.jpg,left,523.1250000069849,true,high,NA,NA,NA,NA,NA,NA,NA,false
RseSzMi3,3r15w654wg6vibc4e4w6loevry9lqd,3mrnmeiqw9j3gm6t0kvoa93olrhdlh,RseSzMi3,2020-0188,2020-11-18,13:06:23,13:23:18,NA,incomplete,237,filling,1,left,Red_Triangle_Stripes_3.jpg,Purple_Circle_Stripes_2.jpg,Red_Plus_Dots_1.jpg,left,761.1700000124983,true,high,NA,NA,NA,NA,NA,NA,NA,false
RseSzMi3,3r15w654wg6vibc4e4w6loevry9lqd,3mrnmeiqw9j3gm6t0kvoa93olrhdlh,RseSzMi3,2020-0188,2020-11-18,13:06:23,13:23:18,NA,incomplete,238,filling,1,right,Blue_Circle_Dots_2.jpg,Blue_Plus_Stripes_1.jpg,Green_Triangle_Dots_3.jpg,right,480.0749999994878,true,high,NA,NA,NA,NA,NA,NA,NA,false
RseSzMi3,3r15w654wg6vibc4e4w6loevry9lqd,3mrnmeiqw9j3gm6t0kvoa93olrhdlh,RseSzMi3,2020-0188,2020-11-18,13:06:23,13:23:18,NA,incomplete,239,filling,1,right,Blue_Plus_Grid_1.jpg,Blue_Triangle_Chess_2.jpg,Purple_Circle_Grid_4.jpg,right,535.3750000067521,true,high,NA,NA,NA,NA,NA,NA,NA,false
RseSzMi3,3r15w654wg6vibc4e4w6loevry9lqd,3mrnmeiqw9j3gm6t0kvoa93olrhdlh,RseSzMi3,2020-0188,2020-11-18,13:06:23,13:23:18,NA,NA,instruction example,shape,NA,NA,Purple_Triangle_Grid_2.jpg,Red_Triangle_Chess_1.jpg,Green_Circle_Stripes_2.jpg,NA,NA,NA,NA,NA,NA,NA,NA,NA,NA,NA,undefined
RseSzMi3,3r15w654wg6vibc4e4w6loevry9lqd,3mrnmeiqw9j3gm6t0kvoa93olrhdlh,RseSzMi3,2020-0188,2020-11-18,13:06:23,13:23:18,NA,NA,instruction example,shape,NA,NA,Red_Plus_Grid_4.jpg,Blue_Star_Dots_4.jpg,Green_Plus_Chess_2.jpg,NA,NA,NA,NA,NA,NA,NA,NA,NA,NA,NA,undefined
RseSzMi3,3r15w654wg6vibc4e4w6loevry9lqd,3mrnmeiqw9j3gm6t0kvoa93olrhdlh,RseSzMi3,2020-0188,2020-11-18,13:06:23,13:23:18,NA,NA,instruction example,shape,NA,NA,Red_Circle_Dots_3.jpg,Red_Plus_Grid_4.jpg,Blue_Star_Dots_2.jpg,NA,NA,NA,NA,NA,NA,NA,NA,NA,NA,NA,undefined
RseSzMi3,3r15w654wg6vibc4e4w6loevry9lqd,3mrnmeiqw9j3gm6t0kvoa93olrhdlh,RseSzMi3,2020-0188,2020-11-18,13:06:23,13:23:18,NA,NA,instruction example,shape,NA,NA,Green_Circle_Chess_3.jpg,Red_Triangle_Chess_1.jpg,Green_Star_Stripes_2.jpg,NA,NA,NA,NA,NA,NA,NA,NA,NA,NA,NA,undefined
RseSzMi3,3r15w654wg6vibc4e4w6loevry9lqd,3mrnmeiqw9j3gm6t0kvoa93olrhdlh,RseSzMi3,2020-0188,2020-11-18,13:06:23,13:23:18,963009.9650000047,1016209.9500000186,NA,NA,NA,NA,NA,NA,NA,NA,NA,NA,NA,39,White/Caucasian,Female,Do not wish to reply,no,no,yes,undefined
