workerId,hitId,assignmentId,subject,studyid,exp_date,exp_start,exp_end,time_start,time_end,trial,type,reward_validity,answer,image_top,image_left,image_right,response,response_time,response_acc,volatility,practice
dshFDNkT,3eawoid6nwaaqnjzba4xtrlfy89v0t,3oe22wjigm10olxsekt91v65j1iquk,dshFDNkT,2020-0188,2020-05-21,10:15:41,10:43:24,NA,incomplete,0,number,1,right,Red_Triangle_Dots_1.jpg,Green_Circle_Dots_3.jpg,Blue_Plus_Grid_1.jpg,right,1644.510000012815,true,NA,true
dshFDNkT,3eawoid6nwaaqnjzba4xtrlfy89v0t,3oe22wjigm10olxsekt91v65j1iquk,dshFDNkT,2020-0188,2020-05-21,10:15:41,10:43:24,NA,incomplete,1,number,1,left,Red_Triangle_Grid_4.jpg,Green_Star_Stripes_4.jpg,Purple_Plus_Grid_2.jpg,left,880.8250000001863,true,NA,true
dshFDNkT,3eawoid6nwaaqnjzba4xtrlfy89v0t,3oe22wjigm10olxsekt91v65j1iquk,dshFDNkT,2020-0188,2020-05-21,10:15:41,10:43:24,NA,incomplete,2,number,1,left,Purple_Circle_Stripes_2.jpg,Red_Star_Grid_2.jpg,Blue_Plus_Stripes_1.jpg,left,733.9299999875948,true,NA,true
dshFDNkT,3eawoid6nwaaqnjzba4xtrlfy89v0t,3oe22wjigm10olxsekt91v65j1iquk,dshFDNkT,2020-0188,2020-05-21,10:15:41,10:43:24,NA,incomplete,3,number,0,left,Purple_Plus_Chess_2.jpg,Blue_Triangle_Stripes_2.jpg,Red_Circle_Chess_4.jpg,left,603.7750000250526,true,NA,true
dshFDNkT,3eawoid6nwaaqnjzba4xtrlfy89v0t,3oe22wjigm10olxsekt91v65j1iquk,dshFDNkT,2020-0188,2020-05-21,10:15:41,10:43:24,NA,incomplete,4,number,0,left,Blue_Triangle_Grid_1.jpg,Green_Circle_Stripes_1.jpg,Red_Star_Grid_3.jpg,left,563.3300000336021,true,NA,true
dshFDNkT,3eawoid6nwaaqnjzba4xtrlfy89v0t,3oe22wjigm10olxsekt91v65j1iquk,dshFDNkT,2020-0188,2020-05-21,10:15:41,10:43:24,NA,incomplete,5,number,1,left,Red_Plus_Chess_1.jpg,Blue_Circle_Grid_1.jpg,Green_Star_Chess_3.jpg,left,563.7700000079349,true,NA,true
dshFDNkT,3eawoid6nwaaqnjzba4xtrlfy89v0t,3oe22wjigm10olxsekt91v65j1iquk,dshFDNkT,2020-0188,2020-05-21,10:15:41,10:43:24,NA,incomplete,6,number,1,left,Blue_Star_Chess_3.jpg,Red_Circle_Stripes_3.jpg,Green_Triangle_Chess_2.jpg,left,650.9599999990314,true,NA,true
dshFDNkT,3eawoid6nwaaqnjzba4xtrlfy89v0t,3oe22wjigm10olxsekt91v65j1iquk,dshFDNkT,2020-0188,2020-05-21,10:15:41,10:43:24,NA,incomplete,7,number,1,left,Blue_Star_Chess_3.jpg,Purple_Plus_Stripes_3.jpg,Green_Circle_Chess_1.jpg,left,605.6749999988824,true,NA,true
dshFDNkT,3eawoid6nwaaqnjzba4xtrlfy89v0t,3oe22wjigm10olxsekt91v65j1iquk,dshFDNkT,2020-0188,2020-05-21,10:15:41,10:43:24,NA,incomplete,8,number,1,left,Green_Triangle_Grid_3.jpg,Red_Plus_Chess_3.jpg,Purple_Circle_Grid_1.jpg,left,618.929999996908,true,NA,true
dshFDNkT,3eawoid6nwaaqnjzba4xtrlfy89v0t,3oe22wjigm10olxsekt91v65j1iquk,dshFDNkT,2020-0188,2020-05-21,10:15:41,10:43:24,NA,incomplete,9,number,1,right,Blue_Circle_Chess_4.jpg,Red_Star_Chess_1.jpg,Green_Triangle_Stripes_4.jpg,right,645.3999999794178,true,NA,true
dshFDNkT,3eawoid6nwaaqnjzba4xtrlfy89v0t,3oe22wjigm10olxsekt91v65j1iquk,dshFDNkT,2020-0188,2020-05-21,10:15:41,10:43:24,NA,incomplete,10,number,1,left,Red_Triangle_Chess_3.jpg,Purple_Star_Dots_3.jpg,Green_Plus_Chess_2.jpg,left,664.7099999827333,true,NA,true
dshFDNkT,3eawoid6nwaaqnjzba4xtrlfy89v0t,3oe22wjigm10olxsekt91v65j1iquk,dshFDNkT,2020-0188,2020-05-21,10:15:41,10:43:24,NA,incomplete,11,number,1,left,Red_Plus_Grid_3.jpg,Blue_Circle_Chess_3.jpg,Green_Star_Grid_4.jpg,left,579.5349999680184,true,NA,true
dshFDNkT,3eawoid6nwaaqnjzba4xtrlfy89v0t,3oe22wjigm10olxsekt91v65j1iquk,dshFDNkT,2020-0188,2020-05-21,10:15:41,10:43:24,NA,incomplete,12,number,1,right,Red_Triangle_Stripes_4.jpg,Purple_Plus_Stripes_3.jpg,Green_Circle_Grid_4.jpg,right,678.9599999901839,true,NA,true
dshFDNkT,3eawoid6nwaaqnjzba4xtrlfy89v0t,3oe22wjigm10olxsekt91v65j1iquk,dshFDNkT,2020-0188,2020-05-21,10:15:41,10:43:24,NA,incomplete,13,number,1,left,Green_Plus_Stripes_3.jpg,Blue_Circle_Dots_3.jpg,Purple_Triangle_Stripes_2.jpg,left,603.5000000265427,true,NA,true
dshFDNkT,3eawoid6nwaaqnjzba4xtrlfy89v0t,3oe22wjigm10olxsekt91v65j1iquk,dshFDNkT,2020-0188,2020-05-21,10:15:41,10:43:24,NA,incomplete,14,number,1,left,Red_Star_Chess_1.jpg,Purple_Triangle_Stripes_1.jpg,Green_Plus_Chess_4.jpg,left,607.1649999939837,true,NA,true
dshFDNkT,3eawoid6nwaaqnjzba4xtrlfy89v0t,3oe22wjigm10olxsekt91v65j1iquk,dshFDNkT,2020-0188,2020-05-21,10:15:41,10:43:24,NA,incomplete,15,number,1,right,Green_Plus_Grid_2.jpg,Blue_Star_Grid_3.jpg,Purple_Circle_Dots_2.jpg,left,512.0250000036322,false,NA,true
dshFDNkT,3eawoid6nwaaqnjzba4xtrlfy89v0t,3oe22wjigm10olxsekt91v65j1iquk,dshFDNkT,2020-0188,2020-05-21,10:15:41,10:43:24,NA,incomplete,16,number,1,left,Blue_Triangle_Dots_1.jpg,Red_Circle_Grid_1.jpg,Green_Star_Dots_3.jpg,left,541.3599999737926,true,NA,true
dshFDNkT,3eawoid6nwaaqnjzba4xtrlfy89v0t,3oe22wjigm10olxsekt91v65j1iquk,dshFDNkT,2020-0188,2020-05-21,10:15:41,10:43:24,NA,incomplete,17,number,1,left,Purple_Triangle_Dots_4.jpg,Green_Plus_Chess_4.jpg,Blue_Circle_Dots_3.jpg,left,777.1150000044145,true,NA,true
dshFDNkT,3eawoid6nwaaqnjzba4xtrlfy89v0t,3oe22wjigm10olxsekt91v65j1iquk,dshFDNkT,2020-0188,2020-05-21,10:15:41,10:43:24,NA,incomplete,18,number,1,left,Purple_Triangle_Chess_4.jpg,Green_Star_Dots_4.jpg,Red_Plus_Chess_3.jpg,left,550.5899999989197,true,NA,true
dshFDNkT,3eawoid6nwaaqnjzba4xtrlfy89v0t,3oe22wjigm10olxsekt91v65j1iquk,dshFDNkT,2020-0188,2020-05-21,10:15:41,10:43:24,NA,incomplete,19,number,1,right,Green_Plus_Grid_3.jpg,Blue_Star_Grid_4.jpg,Purple_Circle_Dots_3.jpg,right,729.445000004489,true,NA,true
dshFDNkT,3eawoid6nwaaqnjzba4xtrlfy89v0t,3oe22wjigm10olxsekt91v65j1iquk,dshFDNkT,2020-0188,2020-05-21,10:15:41,10:43:24,NA,incomplete,20,filling,1,left,Blue_Plus_Grid_1.jpg,Purple_Triangle_Grid_4.jpg,Green_Circle_Chess_1.jpg,right,622.7700000163168,false,NA,true
dshFDNkT,3eawoid6nwaaqnjzba4xtrlfy89v0t,3oe22wjigm10olxsekt91v65j1iquk,dshFDNkT,2020-0188,2020-05-21,10:15:41,10:43:24,NA,incomplete,21,filling,1,left,Green_Circle_Stripes_2.jpg,Red_Plus_Stripes_1.jpg,Purple_Triangle_Chess_2.jpg,right,858.3949999883771,false,NA,true
dshFDNkT,3eawoid6nwaaqnjzba4xtrlfy89v0t,3oe22wjigm10olxsekt91v65j1iquk,dshFDNkT,2020-0188,2020-05-21,10:15:41,10:43:24,NA,incomplete,22,filling,1,left,Blue_Circle_Dots_1.jpg,Red_Triangle_Dots_3.jpg,Green_Plus_Chess_1.jpg,left,926.2749999761581,true,NA,true
dshFDNkT,3eawoid6nwaaqnjzba4xtrlfy89v0t,3oe22wjigm10olxsekt91v65j1iquk,dshFDNkT,2020-0188,2020-05-21,10:15:41,10:43:24,NA,incomplete,23,filling,0,right,Green_Circle_Dots_2.jpg,Purple_Star_Stripes_2.jpg,Blue_Triangle_Dots_4.jpg,right,835.4850000469014,true,NA,true
dshFDNkT,3eawoid6nwaaqnjzba4xtrlfy89v0t,3oe22wjigm10olxsekt91v65j1iquk,dshFDNkT,2020-0188,2020-05-21,10:15:41,10:43:24,NA,incomplete,24,filling,0,right,Red_Plus_Grid_3.jpg,Blue_Star_Dots_3.jpg,Green_Triangle_Grid_2.jpg,right,988.4449999663047,true,NA,true
dshFDNkT,3eawoid6nwaaqnjzba4xtrlfy89v0t,3oe22wjigm10olxsekt91v65j1iquk,dshFDNkT,2020-0188,2020-05-21,10:15:41,10:43:24,NA,incomplete,25,filling,1,left,Purple_Plus_Grid_1.jpg,Green_Triangle_Grid_3.jpg,Blue_Star_Dots_1.jpg,left,898.9750000182539,true,NA,true
dshFDNkT,3eawoid6nwaaqnjzba4xtrlfy89v0t,3oe22wjigm10olxsekt91v65j1iquk,dshFDNkT,2020-0188,2020-05-21,10:15:41,10:43:24,NA,incomplete,26,filling,0,left,Purple_Star_Dots_2.jpg,Green_Triangle_Dots_1.jpg,Blue_Circle_Stripes_2.jpg,left,1026.9650000263937,true,NA,true
dshFDNkT,3eawoid6nwaaqnjzba4xtrlfy89v0t,3oe22wjigm10olxsekt91v65j1iquk,dshFDNkT,2020-0188,2020-05-21,10:15:41,10:43:24,NA,incomplete,27,filling,0,right,Red_Plus_Dots_3.jpg,Green_Star_Stripes_3.jpg,Blue_Circle_Dots_4.jpg,right,809.6350000123493,true,NA,true
dshFDNkT,3eawoid6nwaaqnjzba4xtrlfy89v0t,3oe22wjigm10olxsekt91v65j1iquk,dshFDNkT,2020-0188,2020-05-21,10:15:41,10:43:24,NA,incomplete,28,filling,1,right,Blue_Circle_Dots_3.jpg,Green_Star_Grid_3.jpg,Purple_Triangle_Dots_1.jpg,right,909.734999993816,true,NA,true
dshFDNkT,3eawoid6nwaaqnjzba4xtrlfy89v0t,3oe22wjigm10olxsekt91v65j1iquk,dshFDNkT,2020-0188,2020-05-21,10:15:41,10:43:24,NA,incomplete,29,filling,1,right,Green_Star_Stripes_1.jpg,Purple_Circle_Grid_1.jpg,Red_Triangle_Stripes_3.jpg,right,948.5649999696761,true,NA,true
dshFDNkT,3eawoid6nwaaqnjzba4xtrlfy89v0t,3oe22wjigm10olxsekt91v65j1iquk,dshFDNkT,2020-0188,2020-05-21,10:15:41,10:43:24,NA,incomplete,30,filling,1,left,Green_Triangle_Grid_1.jpg,Purple_Plus_Grid_2.jpg,Blue_Circle_Dots_1.jpg,left,972.3849999718368,true,NA,true
dshFDNkT,3eawoid6nwaaqnjzba4xtrlfy89v0t,3oe22wjigm10olxsekt91v65j1iquk,dshFDNkT,2020-0188,2020-05-21,10:15:41,10:43:24,NA,incomplete,31,filling,1,left,Purple_Triangle_Grid_3.jpg,Red_Circle_Grid_1.jpg,Blue_Star_Stripes_3.jpg,left,1034.525000024587,true,NA,true
dshFDNkT,3eawoid6nwaaqnjzba4xtrlfy89v0t,3oe22wjigm10olxsekt91v65j1iquk,dshFDNkT,2020-0188,2020-05-21,10:15:41,10:43:24,NA,incomplete,32,filling,1,right,Purple_Plus_Grid_1.jpg,Blue_Triangle_Dots_1.jpg,Green_Star_Grid_2.jpg,right,838.5150000103749,true,NA,true
dshFDNkT,3eawoid6nwaaqnjzba4xtrlfy89v0t,3oe22wjigm10olxsekt91v65j1iquk,dshFDNkT,2020-0188,2020-05-21,10:15:41,10:43:24,NA,incomplete,33,filling,0,left,Red_Triangle_Stripes_1.jpg,Green_Circle_Stripes_3.jpg,Blue_Plus_Grid_1.jpg,left,825.8049999712966,true,NA,true
dshFDNkT,3eawoid6nwaaqnjzba4xtrlfy89v0t,3oe22wjigm10olxsekt91v65j1iquk,dshFDNkT,2020-0188,2020-05-21,10:15:41,10:43:24,NA,incomplete,34,filling,1,right,Green_Plus_Grid_2.jpg,Purple_Star_Dots_2.jpg,Red_Circle_Grid_4.jpg,right,882.7849999652244,true,NA,true
dshFDNkT,3eawoid6nwaaqnjzba4xtrlfy89v0t,3oe22wjigm10olxsekt91v65j1iquk,dshFDNkT,2020-0188,2020-05-21,10:15:41,10:43:24,NA,incomplete,35,filling,1,right,Purple_Triangle_Chess_2.jpg,Blue_Plus_Stripes_2.jpg,Green_Circle_Chess_4.jpg,right,1007.5650000362657,true,NA,true
dshFDNkT,3eawoid6nwaaqnjzba4xtrlfy89v0t,3oe22wjigm10olxsekt91v65j1iquk,dshFDNkT,2020-0188,2020-05-21,10:15:41,10:43:24,NA,incomplete,36,filling,1,right,Blue_Plus_Stripes_4.jpg,Green_Star_Grid_4.jpg,Red_Triangle_Stripes_3.jpg,right,900.91999998549,true,NA,true
dshFDNkT,3eawoid6nwaaqnjzba4xtrlfy89v0t,3oe22wjigm10olxsekt91v65j1iquk,dshFDNkT,2020-0188,2020-05-21,10:15:41,10:43:24,NA,incomplete,37,filling,1,left,Red_Plus_Dots_3.jpg,Purple_Star_Dots_1.jpg,Blue_Circle_Chess_3.jpg,left,968.204999982845,true,NA,true
dshFDNkT,3eawoid6nwaaqnjzba4xtrlfy89v0t,3oe22wjigm10olxsekt91v65j1iquk,dshFDNkT,2020-0188,2020-05-21,10:15:41,10:43:24,NA,incomplete,38,filling,1,right,Blue_Star_Grid_3.jpg,Red_Triangle_Stripes_3.jpg,Purple_Plus_Grid_2.jpg,right,1076.7549999873154,true,NA,true
dshFDNkT,3eawoid6nwaaqnjzba4xtrlfy89v0t,3oe22wjigm10olxsekt91v65j1iquk,dshFDNkT,2020-0188,2020-05-21,10:15:41,10:43:24,NA,incomplete,39,filling,0,right,Blue_Star_Grid_3.jpg,Green_Circle_Chess_3.jpg,Purple_Triangle_Grid_2.jpg,left,796.3749999762513,false,NA,true
dshFDNkT,3eawoid6nwaaqnjzba4xtrlfy89v0t,3oe22wjigm10olxsekt91v65j1iquk,dshFDNkT,2020-0188,2020-05-21,10:15:41,10:43:24,NA,incomplete,0,number,1,left,Green_Plus_Chess_3.jpg,Red_Triangle_Dots_3.jpg,Blue_Circle_Chess_1.jpg,left,415.05000001052395,true,low,false
dshFDNkT,3eawoid6nwaaqnjzba4xtrlfy89v0t,3oe22wjigm10olxsekt91v65j1iquk,dshFDNkT,2020-0188,2020-05-21,10:15:41,10:43:24,NA,incomplete,1,number,1,left,Green_Star_Stripes_3.jpg,Blue_Plus_Chess_3.jpg,Purple_Triangle_Stripes_4.jpg,left,733.3400000352412,true,low,false
dshFDNkT,3eawoid6nwaaqnjzba4xtrlfy89v0t,3oe22wjigm10olxsekt91v65j1iquk,dshFDNkT,2020-0188,2020-05-21,10:15:41,10:43:24,NA,incomplete,2,number,1,right,Purple_Circle_Chess_4.jpg,Green_Triangle_Chess_3.jpg,Blue_Plus_Grid_4.jpg,right,732.5800000107847,true,low,false
dshFDNkT,3eawoid6nwaaqnjzba4xtrlfy89v0t,3oe22wjigm10olxsekt91v65j1iquk,dshFDNkT,2020-0188,2020-05-21,10:15:41,10:43:24,NA,incomplete,3,number,0,left,Green_Star_Stripes_3.jpg,Red_Circle_Dots_3.jpg,Blue_Triangle_Stripes_1.jpg,left,633.910000033211,true,low,false
dshFDNkT,3eawoid6nwaaqnjzba4xtrlfy89v0t,3oe22wjigm10olxsekt91v65j1iquk,dshFDNkT,2020-0188,2020-05-21,10:15:41,10:43:24,NA,incomplete,4,number,1,left,Purple_Triangle_Chess_4.jpg,Blue_Circle_Stripes_4.jpg,Green_Plus_Chess_1.jpg,left,568.8300000037998,true,low,false
dshFDNkT,3eawoid6nwaaqnjzba4xtrlfy89v0t,3oe22wjigm10olxsekt91v65j1iquk,dshFDNkT,2020-0188,2020-05-21,10:15:41,10:43:24,NA,incomplete,5,number,1,left,Purple_Circle_Dots_2.jpg,Green_Star_Stripes_2.jpg,Blue_Triangle_Dots_4.jpg,left,799.3600000045262,true,low,false
dshFDNkT,3eawoid6nwaaqnjzba4xtrlfy89v0t,3oe22wjigm10olxsekt91v65j1iquk,dshFDNkT,2020-0188,2020-05-21,10:15:41,10:43:24,NA,incomplete,6,number,1,right,Green_Triangle_Grid_1.jpg,Red_Star_Grid_3.jpg,Blue_Circle_Dots_1.jpg,right,590.2399999904446,true,low,false
dshFDNkT,3eawoid6nwaaqnjzba4xtrlfy89v0t,3oe22wjigm10olxsekt91v65j1iquk,dshFDNkT,2020-0188,2020-05-21,10:15:41,10:43:24,NA,incomplete,7,number,1,right,Red_Star_Grid_1.jpg,Green_Triangle_Grid_3.jpg,Blue_Circle_Chess_1.jpg,right,598.2950000325218,true,low,false
dshFDNkT,3eawoid6nwaaqnjzba4xtrlfy89v0t,3oe22wjigm10olxsekt91v65j1iquk,dshFDNkT,2020-0188,2020-05-21,10:15:41,10:43:24,NA,incomplete,8,number,1,left,Purple_Circle_Dots_2.jpg,Green_Triangle_Stripes_2.jpg,Blue_Star_Dots_3.jpg,left,620.8299999707378,true,low,false
dshFDNkT,3eawoid6nwaaqnjzba4xtrlfy89v0t,3oe22wjigm10olxsekt91v65j1iquk,dshFDNkT,2020-0188,2020-05-21,10:15:41,10:43:24,NA,incomplete,9,number,1,left,Blue_Star_Chess_2.jpg,Red_Triangle_Dots_2.jpg,Purple_Circle_Chess_3.jpg,left,573.099999979604,true,low,false
dshFDNkT,3eawoid6nwaaqnjzba4xtrlfy89v0t,3oe22wjigm10olxsekt91v65j1iquk,dshFDNkT,2020-0188,2020-05-21,10:15:41,10:43:24,NA,incomplete,10,number,1,right,Red_Triangle_Dots_3.jpg,Green_Plus_Dots_4.jpg,Purple_Star_Chess_3.jpg,right,826.729999971576,true,low,false
dshFDNkT,3eawoid6nwaaqnjzba4xtrlfy89v0t,3oe22wjigm10olxsekt91v65j1iquk,dshFDNkT,2020-0188,2020-05-21,10:15:41,10:43:24,NA,incomplete,11,number,1,left,Red_Circle_Grid_1.jpg,Purple_Star_Chess_1.jpg,Green_Plus_Grid_2.jpg,left,673.6350000137463,true,low,false
dshFDNkT,3eawoid6nwaaqnjzba4xtrlfy89v0t,3oe22wjigm10olxsekt91v65j1iquk,dshFDNkT,2020-0188,2020-05-21,10:15:41,10:43:24,NA,incomplete,12,number,1,right,Green_Circle_Chess_3.jpg,Purple_Plus_Chess_1.jpg,Blue_Star_Stripes_3.jpg,right,631.9300000322983,true,low,false
dshFDNkT,3eawoid6nwaaqnjzba4xtrlfy89v0t,3oe22wjigm10olxsekt91v65j1iquk,dshFDNkT,2020-0188,2020-05-21,10:15:41,10:43:24,NA,incomplete,13,number,0,right,Blue_Star_Grid_2.jpg,Green_Circle_Grid_3.jpg,Purple_Plus_Dots_2.jpg,right,632.9600000171922,true,low,false
dshFDNkT,3eawoid6nwaaqnjzba4xtrlfy89v0t,3oe22wjigm10olxsekt91v65j1iquk,dshFDNkT,2020-0188,2020-05-21,10:15:41,10:43:24,NA,incomplete,14,number,1,left,Red_Triangle_Stripes_4.jpg,Green_Circle_Grid_4.jpg,Purple_Plus_Stripes_1.jpg,left,505.3699999698438,true,low,false
dshFDNkT,3eawoid6nwaaqnjzba4xtrlfy89v0t,3oe22wjigm10olxsekt91v65j1iquk,dshFDNkT,2020-0188,2020-05-21,10:15:41,10:43:24,NA,incomplete,15,number,1,right,Red_Plus_Dots_2.jpg,Purple_Star_Dots_4.jpg,Green_Triangle_Grid_2.jpg,right,702.6949999853969,true,low,false
dshFDNkT,3eawoid6nwaaqnjzba4xtrlfy89v0t,3oe22wjigm10olxsekt91v65j1iquk,dshFDNkT,2020-0188,2020-05-21,10:15:41,10:43:24,NA,incomplete,16,number,1,right,Red_Circle_Chess_2.jpg,Purple_Star_Chess_1.jpg,Green_Triangle_Grid_2.jpg,right,652.0550000132062,true,low,false
dshFDNkT,3eawoid6nwaaqnjzba4xtrlfy89v0t,3oe22wjigm10olxsekt91v65j1iquk,dshFDNkT,2020-0188,2020-05-21,10:15:41,10:43:24,NA,incomplete,17,number,1,right,Purple_Star_Chess_1.jpg,Red_Plus_Chess_3.jpg,Blue_Triangle_Stripes_1.jpg,right,654.3149999924935,true,low,false
dshFDNkT,3eawoid6nwaaqnjzba4xtrlfy89v0t,3oe22wjigm10olxsekt91v65j1iquk,dshFDNkT,2020-0188,2020-05-21,10:15:41,10:43:24,NA,incomplete,18,number,1,left,Blue_Star_Grid_2.jpg,Green_Plus_Chess_2.jpg,Red_Triangle_Grid_3.jpg,left,705.8900000411086,true,low,false
dshFDNkT,3eawoid6nwaaqnjzba4xtrlfy89v0t,3oe22wjigm10olxsekt91v65j1iquk,dshFDNkT,2020-0188,2020-05-21,10:15:41,10:43:24,NA,incomplete,19,number,1,right,Blue_Triangle_Stripes_4.jpg,Red_Plus_Stripes_2.jpg,Green_Star_Chess_4.jpg,right,730.6700000190176,true,low,false
dshFDNkT,3eawoid6nwaaqnjzba4xtrlfy89v0t,3oe22wjigm10olxsekt91v65j1iquk,dshFDNkT,2020-0188,2020-05-21,10:15:41,10:43:24,NA,incomplete,20,number,1,left,Purple_Triangle_Grid_4.jpg,Blue_Plus_Chess_4.jpg,Red_Circle_Grid_1.jpg,left,530.5400000070222,true,low,false
dshFDNkT,3eawoid6nwaaqnjzba4xtrlfy89v0t,3oe22wjigm10olxsekt91v65j1iquk,dshFDNkT,2020-0188,2020-05-21,10:15:41,10:43:24,NA,incomplete,21,number,1,left,Green_Star_Dots_3.jpg,Purple_Circle_Stripes_3.jpg,Red_Plus_Dots_2.jpg,right,864.5399999804795,false,low,false
dshFDNkT,3eawoid6nwaaqnjzba4xtrlfy89v0t,3oe22wjigm10olxsekt91v65j1iquk,dshFDNkT,2020-0188,2020-05-21,10:15:41,10:43:24,NA,incomplete,22,number,1,right,Blue_Triangle_Dots_1.jpg,Red_Plus_Dots_4.jpg,Green_Circle_Chess_1.jpg,right,768.3150000520982,true,low,false
dshFDNkT,3eawoid6nwaaqnjzba4xtrlfy89v0t,3oe22wjigm10olxsekt91v65j1iquk,dshFDNkT,2020-0188,2020-05-21,10:15:41,10:43:24,NA,incomplete,23,number,1,left,Blue_Star_Dots_2.jpg,Purple_Triangle_Stripes_2.jpg,Green_Circle_Dots_3.jpg,left,695.8400000003166,true,low,false
dshFDNkT,3eawoid6nwaaqnjzba4xtrlfy89v0t,3oe22wjigm10olxsekt91v65j1iquk,dshFDNkT,2020-0188,2020-05-21,10:15:41,10:43:24,NA,incomplete,24,number,1,right,Red_Triangle_Stripes_1.jpg,Purple_Plus_Stripes_2.jpg,Green_Circle_Grid_1.jpg,right,658.724999986589,true,low,false
dshFDNkT,3eawoid6nwaaqnjzba4xtrlfy89v0t,3oe22wjigm10olxsekt91v65j1iquk,dshFDNkT,2020-0188,2020-05-21,10:15:41,10:43:24,NA,incomplete,25,number,1,left,Blue_Star_Stripes_4.jpg,Green_Plus_Chess_4.jpg,Purple_Triangle_Stripes_3.jpg,left,875.2749999985099,true,low,false
dshFDNkT,3eawoid6nwaaqnjzba4xtrlfy89v0t,3oe22wjigm10olxsekt91v65j1iquk,dshFDNkT,2020-0188,2020-05-21,10:15:41,10:43:24,NA,incomplete,26,number,1,right,Red_Circle_Chess_2.jpg,Purple_Triangle_Chess_4.jpg,Blue_Star_Grid_2.jpg,right,715.4299999820068,true,low,false
dshFDNkT,3eawoid6nwaaqnjzba4xtrlfy89v0t,3oe22wjigm10olxsekt91v65j1iquk,dshFDNkT,2020-0188,2020-05-21,10:15:41,10:43:24,NA,incomplete,27,number,1,left,Blue_Star_Stripes_1.jpg,Red_Circle_Chess_1.jpg,Purple_Triangle_Stripes_4.jpg,left,620.0949999620207,true,low,false
dshFDNkT,3eawoid6nwaaqnjzba4xtrlfy89v0t,3oe22wjigm10olxsekt91v65j1iquk,dshFDNkT,2020-0188,2020-05-21,10:15:41,10:43:24,NA,incomplete,28,number,1,left,Purple_Circle_Grid_1.jpg,Blue_Plus_Stripes_1.jpg,Green_Triangle_Grid_3.jpg,left,592.0350000378676,true,low,false
dshFDNkT,3eawoid6nwaaqnjzba4xtrlfy89v0t,3oe22wjigm10olxsekt91v65j1iquk,dshFDNkT,2020-0188,2020-05-21,10:15:41,10:43:24,NA,incomplete,29,number,1,right,Blue_Plus_Chess_1.jpg,Red_Star_Chess_4.jpg,Green_Triangle_Stripes_1.jpg,right,681.8849999690428,true,low,false
dshFDNkT,3eawoid6nwaaqnjzba4xtrlfy89v0t,3oe22wjigm10olxsekt91v65j1iquk,dshFDNkT,2020-0188,2020-05-21,10:15:41,10:43:24,NA,incomplete,30,filling,1,left,Red_Plus_Stripes_3.jpg,Blue_Circle_Stripes_4.jpg,Purple_Triangle_Chess_3.jpg,left,667.310000048019,true,low,false
dshFDNkT,3eawoid6nwaaqnjzba4xtrlfy89v0t,3oe22wjigm10olxsekt91v65j1iquk,dshFDNkT,2020-0188,2020-05-21,10:15:41,10:43:24,NA,incomplete,31,filling,1,left,Red_Star_Grid_4.jpg,Green_Plus_Grid_1.jpg,Purple_Circle_Dots_4.jpg,left,926.4899999834597,true,low,false
dshFDNkT,3eawoid6nwaaqnjzba4xtrlfy89v0t,3oe22wjigm10olxsekt91v65j1iquk,dshFDNkT,2020-0188,2020-05-21,10:15:41,10:43:24,NA,incomplete,32,filling,1,right,Green_Triangle_Stripes_4.jpg,Purple_Plus_Grid_4.jpg,Red_Circle_Stripes_1.jpg,right,821.2950000306591,true,low,false
dshFDNkT,3eawoid6nwaaqnjzba4xtrlfy89v0t,3oe22wjigm10olxsekt91v65j1iquk,dshFDNkT,2020-0188,2020-05-21,10:15:41,10:43:24,NA,incomplete,33,filling,0,right,Green_Triangle_Dots_3.jpg,Blue_Star_Stripes_3.jpg,Red_Circle_Dots_2.jpg,right,1150.4049999639392,true,low,false
dshFDNkT,3eawoid6nwaaqnjzba4xtrlfy89v0t,3oe22wjigm10olxsekt91v65j1iquk,dshFDNkT,2020-0188,2020-05-21,10:15:41,10:43:24,NA,incomplete,34,filling,1,left,Purple_Triangle_Dots_3.jpg,Blue_Circle_Dots_1.jpg,Green_Plus_Chess_3.jpg,left,891.7350000119768,true,low,false
dshFDNkT,3eawoid6nwaaqnjzba4xtrlfy89v0t,3oe22wjigm10olxsekt91v65j1iquk,dshFDNkT,2020-0188,2020-05-21,10:15:41,10:43:24,NA,incomplete,35,filling,0,right,Red_Triangle_Stripes_2.jpg,Green_Star_Grid_2.jpg,Purple_Plus_Stripes_3.jpg,right,1247.434999968391,true,low,false
dshFDNkT,3eawoid6nwaaqnjzba4xtrlfy89v0t,3oe22wjigm10olxsekt91v65j1iquk,dshFDNkT,2020-0188,2020-05-21,10:15:41,10:43:24,NA,incomplete,36,filling,1,left,Purple_Circle_Dots_4.jpg,Blue_Star_Dots_1.jpg,Red_Triangle_Chess_4.jpg,left,1006.2100000213832,true,low,false
dshFDNkT,3eawoid6nwaaqnjzba4xtrlfy89v0t,3oe22wjigm10olxsekt91v65j1iquk,dshFDNkT,2020-0188,2020-05-21,10:15:41,10:43:24,NA,incomplete,37,filling,1,left,Red_Circle_Chess_2.jpg,Purple_Star_Chess_4.jpg,Green_Triangle_Stripes_2.jpg,left,844.2599999834783,true,low,false
dshFDNkT,3eawoid6nwaaqnjzba4xtrlfy89v0t,3oe22wjigm10olxsekt91v65j1iquk,dshFDNkT,2020-0188,2020-05-21,10:15:41,10:43:24,NA,incomplete,38,filling,1,right,Green_Circle_Stripes_2.jpg,Purple_Plus_Dots_2.jpg,Red_Star_Stripes_1.jpg,right,944.3949999986216,true,low,false
dshFDNkT,3eawoid6nwaaqnjzba4xtrlfy89v0t,3oe22wjigm10olxsekt91v65j1iquk,dshFDNkT,2020-0188,2020-05-21,10:15:41,10:43:24,NA,incomplete,39,filling,1,left,Blue_Plus_Dots_2.jpg,Green_Star_Dots_3.jpg,Purple_Triangle_Stripes_2.jpg,left,821.7249999870546,true,low,false
dshFDNkT,3eawoid6nwaaqnjzba4xtrlfy89v0t,3oe22wjigm10olxsekt91v65j1iquk,dshFDNkT,2020-0188,2020-05-21,10:15:41,10:43:24,NA,incomplete,40,filling,1,left,Purple_Triangle_Stripes_4.jpg,Red_Star_Stripes_3.jpg,Green_Circle_Dots_4.jpg,left,964.864999987185,true,low,false
dshFDNkT,3eawoid6nwaaqnjzba4xtrlfy89v0t,3oe22wjigm10olxsekt91v65j1iquk,dshFDNkT,2020-0188,2020-05-21,10:15:41,10:43:24,NA,incomplete,41,filling,1,left,Purple_Plus_Stripes_1.jpg,Blue_Triangle_Stripes_4.jpg,Red_Circle_Grid_1.jpg,left,904.4700000085868,true,low,false
dshFDNkT,3eawoid6nwaaqnjzba4xtrlfy89v0t,3oe22wjigm10olxsekt91v65j1iquk,dshFDNkT,2020-0188,2020-05-21,10:15:41,10:43:24,NA,incomplete,42,filling,0,left,Green_Circle_Dots_2.jpg,Red_Plus_Dots_3.jpg,Blue_Star_Stripes_2.jpg,left,844.4299999973737,true,low,false
dshFDNkT,3eawoid6nwaaqnjzba4xtrlfy89v0t,3oe22wjigm10olxsekt91v65j1iquk,dshFDNkT,2020-0188,2020-05-21,10:15:41,10:43:24,NA,incomplete,43,filling,1,right,Purple_Plus_Chess_4.jpg,Red_Triangle_Dots_4.jpg,Blue_Star_Chess_2.jpg,right,757.1999999927357,true,low,false
dshFDNkT,3eawoid6nwaaqnjzba4xtrlfy89v0t,3oe22wjigm10olxsekt91v65j1iquk,dshFDNkT,2020-0188,2020-05-21,10:15:41,10:43:24,NA,incomplete,44,filling,0,left,Blue_Star_Chess_2.jpg,Red_Plus_Chess_1.jpg,Purple_Circle_Stripes_2.jpg,left,773.6449999501929,true,low,false
dshFDNkT,3eawoid6nwaaqnjzba4xtrlfy89v0t,3oe22wjigm10olxsekt91v65j1iquk,dshFDNkT,2020-0188,2020-05-21,10:15:41,10:43:24,NA,incomplete,45,filling,0,left,Green_Circle_Grid_4.jpg,Blue_Plus_Grid_1.jpg,Purple_Triangle_Chess_4.jpg,left,1107.3600000236183,true,low,false
dshFDNkT,3eawoid6nwaaqnjzba4xtrlfy89v0t,3oe22wjigm10olxsekt91v65j1iquk,dshFDNkT,2020-0188,2020-05-21,10:15:41,10:43:24,NA,incomplete,46,filling,1,left,Blue_Plus_Stripes_4.jpg,Green_Star_Stripes_3.jpg,Purple_Circle_Chess_4.jpg,left,1225.8449999499135,true,low,false
dshFDNkT,3eawoid6nwaaqnjzba4xtrlfy89v0t,3oe22wjigm10olxsekt91v65j1iquk,dshFDNkT,2020-0188,2020-05-21,10:15:41,10:43:24,NA,incomplete,47,filling,1,right,Red_Circle_Grid_4.jpg,Blue_Plus_Chess_4.jpg,Purple_Triangle_Grid_3.jpg,left,940.2150000096299,false,low,false
dshFDNkT,3eawoid6nwaaqnjzba4xtrlfy89v0t,3oe22wjigm10olxsekt91v65j1iquk,dshFDNkT,2020-0188,2020-05-21,10:15:41,10:43:24,NA,incomplete,48,filling,1,left,Purple_Circle_Dots_1.jpg,Green_Star_Dots_3.jpg,Blue_Plus_Chess_1.jpg,left,821.5699999709614,true,low,false
dshFDNkT,3eawoid6nwaaqnjzba4xtrlfy89v0t,3oe22wjigm10olxsekt91v65j1iquk,dshFDNkT,2020-0188,2020-05-21,10:15:41,10:43:24,NA,incomplete,49,filling,1,left,Blue_Plus_Grid_3.jpg,Green_Triangle_Grid_2.jpg,Purple_Circle_Dots_3.jpg,left,819.7149999905378,true,low,false
dshFDNkT,3eawoid6nwaaqnjzba4xtrlfy89v0t,3oe22wjigm10olxsekt91v65j1iquk,dshFDNkT,2020-0188,2020-05-21,10:15:41,10:43:24,NA,incomplete,50,filling,1,right,Green_Star_Chess_3.jpg,Purple_Plus_Dots_3.jpg,Red_Triangle_Chess_1.jpg,right,814.0700000221841,true,low,false
dshFDNkT,3eawoid6nwaaqnjzba4xtrlfy89v0t,3oe22wjigm10olxsekt91v65j1iquk,dshFDNkT,2020-0188,2020-05-21,10:15:41,10:43:24,NA,incomplete,51,filling,0,left,Green_Plus_Stripes_4.jpg,Blue_Star_Stripes_1.jpg,Red_Circle_Chess_4.jpg,left,943.2100000558421,true,low,false
dshFDNkT,3eawoid6nwaaqnjzba4xtrlfy89v0t,3oe22wjigm10olxsekt91v65j1iquk,dshFDNkT,2020-0188,2020-05-21,10:15:41,10:43:24,NA,incomplete,52,filling,1,right,Blue_Star_Chess_4.jpg,Green_Plus_Stripes_4.jpg,Red_Triangle_Chess_2.jpg,right,775.0999999698251,true,low,false
dshFDNkT,3eawoid6nwaaqnjzba4xtrlfy89v0t,3oe22wjigm10olxsekt91v65j1iquk,dshFDNkT,2020-0188,2020-05-21,10:15:41,10:43:24,NA,incomplete,53,filling,0,right,Blue_Circle_Grid_3.jpg,Red_Plus_Dots_3.jpg,Purple_Star_Grid_4.jpg,right,1004.5849999878556,true,low,false
dshFDNkT,3eawoid6nwaaqnjzba4xtrlfy89v0t,3oe22wjigm10olxsekt91v65j1iquk,dshFDNkT,2020-0188,2020-05-21,10:15:41,10:43:24,NA,incomplete,54,filling,1,left,Blue_Plus_Dots_2.jpg,Green_Circle_Dots_3.jpg,Purple_Triangle_Stripes_2.jpg,left,747.3299999837764,true,low,false
dshFDNkT,3eawoid6nwaaqnjzba4xtrlfy89v0t,3oe22wjigm10olxsekt91v65j1iquk,dshFDNkT,2020-0188,2020-05-21,10:15:41,10:43:24,NA,incomplete,55,filling,1,right,Green_Circle_Stripes_4.jpg,Blue_Star_Dots_4.jpg,Red_Triangle_Stripes_2.jpg,right,874.4949999963865,true,low,false
dshFDNkT,3eawoid6nwaaqnjzba4xtrlfy89v0t,3oe22wjigm10olxsekt91v65j1iquk,dshFDNkT,2020-0188,2020-05-21,10:15:41,10:43:24,NA,incomplete,56,filling,1,left,Purple_Circle_Stripes_2.jpg,Red_Star_Stripes_4.jpg,Green_Triangle_Chess_2.jpg,left,799.9999999883585,true,low,false
dshFDNkT,3eawoid6nwaaqnjzba4xtrlfy89v0t,3oe22wjigm10olxsekt91v65j1iquk,dshFDNkT,2020-0188,2020-05-21,10:15:41,10:43:24,NA,incomplete,57,filling,1,left,Purple_Star_Dots_2.jpg,Blue_Triangle_Dots_3.jpg,Red_Plus_Stripes_2.jpg,left,1051.9850000273436,true,low,false
dshFDNkT,3eawoid6nwaaqnjzba4xtrlfy89v0t,3oe22wjigm10olxsekt91v65j1iquk,dshFDNkT,2020-0188,2020-05-21,10:15:41,10:43:24,NA,incomplete,58,filling,1,right,Red_Star_Stripes_4.jpg,Green_Plus_Dots_4.jpg,Purple_Triangle_Stripes_3.jpg,right,933.0850000260398,true,low,false
dshFDNkT,3eawoid6nwaaqnjzba4xtrlfy89v0t,3oe22wjigm10olxsekt91v65j1iquk,dshFDNkT,2020-0188,2020-05-21,10:15:41,10:43:24,NA,incomplete,59,filling,1,right,Blue_Triangle_Stripes_3.jpg,Red_Plus_Grid_3.jpg,Green_Star_Stripes_1.jpg,right,967.2600000048988,true,low,false
dshFDNkT,3eawoid6nwaaqnjzba4xtrlfy89v0t,3oe22wjigm10olxsekt91v65j1iquk,dshFDNkT,2020-0188,2020-05-21,10:15:41,10:43:24,NA,incomplete,60,number,1,left,Blue_Plus_Grid_3.jpg,Green_Triangle_Stripes_3.jpg,Red_Star_Grid_1.jpg,right,997.0800000010058,false,low,false
dshFDNkT,3eawoid6nwaaqnjzba4xtrlfy89v0t,3oe22wjigm10olxsekt91v65j1iquk,dshFDNkT,2020-0188,2020-05-21,10:15:41,10:43:24,NA,incomplete,61,number,1,left,Blue_Star_Grid_2.jpg,Green_Circle_Dots_2.jpg,Purple_Plus_Grid_3.jpg,right,1021.7100000008941,false,low,false
dshFDNkT,3eawoid6nwaaqnjzba4xtrlfy89v0t,3oe22wjigm10olxsekt91v65j1iquk,dshFDNkT,2020-0188,2020-05-21,10:15:41,10:43:24,NA,incomplete,62,number,1,left,Purple_Star_Chess_3.jpg,Blue_Plus_Dots_3.jpg,Green_Circle_Chess_1.jpg,right,1149.5300000533462,false,low,false
dshFDNkT,3eawoid6nwaaqnjzba4xtrlfy89v0t,3oe22wjigm10olxsekt91v65j1iquk,dshFDNkT,2020-0188,2020-05-21,10:15:41,10:43:24,NA,incomplete,63,number,0,right,Blue_Triangle_Stripes_3.jpg,Green_Plus_Stripes_4.jpg,Purple_Star_Dots_3.jpg,right,1202.0050000282936,true,low,false
dshFDNkT,3eawoid6nwaaqnjzba4xtrlfy89v0t,3oe22wjigm10olxsekt91v65j1iquk,dshFDNkT,2020-0188,2020-05-21,10:15:41,10:43:24,NA,incomplete,64,number,1,left,Blue_Triangle_Grid_4.jpg,Purple_Star_Chess_4.jpg,Red_Plus_Grid_3.jpg,right,1408.640000037849,false,low,false
dshFDNkT,3eawoid6nwaaqnjzba4xtrlfy89v0t,3oe22wjigm10olxsekt91v65j1iquk,dshFDNkT,2020-0188,2020-05-21,10:15:41,10:43:24,NA,incomplete,65,number,1,right,Blue_Circle_Grid_2.jpg,Red_Plus_Grid_4.jpg,Purple_Triangle_Chess_2.jpg,left,1104.2799999704584,false,low,false
dshFDNkT,3eawoid6nwaaqnjzba4xtrlfy89v0t,3oe22wjigm10olxsekt91v65j1iquk,dshFDNkT,2020-0188,2020-05-21,10:15:41,10:43:24,NA,incomplete,66,number,1,left,Blue_Circle_Stripes_2.jpg,Purple_Plus_Grid_2.jpg,Green_Star_Stripes_4.jpg,right,1550.9949999977835,false,low,false
dshFDNkT,3eawoid6nwaaqnjzba4xtrlfy89v0t,3oe22wjigm10olxsekt91v65j1iquk,dshFDNkT,2020-0188,2020-05-21,10:15:41,10:43:24,NA,incomplete,67,number,1,left,Blue_Star_Stripes_3.jpg,Purple_Plus_Dots_3.jpg,Green_Triangle_Stripes_2.jpg,left,850.6899999920279,true,low,false
dshFDNkT,3eawoid6nwaaqnjzba4xtrlfy89v0t,3oe22wjigm10olxsekt91v65j1iquk,dshFDNkT,2020-0188,2020-05-21,10:15:41,10:43:24,NA,incomplete,68,number,1,right,Blue_Triangle_Stripes_2.jpg,Purple_Circle_Stripes_4.jpg,Red_Plus_Grid_2.jpg,right,767.0800000196323,true,low,false
dshFDNkT,3eawoid6nwaaqnjzba4xtrlfy89v0t,3oe22wjigm10olxsekt91v65j1iquk,dshFDNkT,2020-0188,2020-05-21,10:15:41,10:43:24,NA,incomplete,69,number,1,left,Blue_Circle_Stripes_2.jpg,Purple_Triangle_Chess_2.jpg,Red_Plus_Stripes_4.jpg,left,861.1149999778718,true,low,false
dshFDNkT,3eawoid6nwaaqnjzba4xtrlfy89v0t,3oe22wjigm10olxsekt91v65j1iquk,dshFDNkT,2020-0188,2020-05-21,10:15:41,10:43:24,NA,incomplete,70,number,1,left,Purple_Plus_Stripes_3.jpg,Green_Star_Chess_3.jpg,Blue_Circle_Stripes_1.jpg,left,814.9299999931827,true,low,false
dshFDNkT,3eawoid6nwaaqnjzba4xtrlfy89v0t,3oe22wjigm10olxsekt91v65j1iquk,dshFDNkT,2020-0188,2020-05-21,10:15:41,10:43:24,NA,incomplete,71,number,0,right,Blue_Circle_Chess_2.jpg,Green_Star_Chess_1.jpg,Red_Plus_Stripes_2.jpg,right,761.8700000457466,true,low,false
dshFDNkT,3eawoid6nwaaqnjzba4xtrlfy89v0t,3oe22wjigm10olxsekt91v65j1iquk,dshFDNkT,2020-0188,2020-05-21,10:15:41,10:43:24,NA,incomplete,72,number,1,left,Red_Triangle_Chess_3.jpg,Green_Star_Grid_3.jpg,Purple_Circle_Chess_1.jpg,left,676.9450000138022,true,low,false
dshFDNkT,3eawoid6nwaaqnjzba4xtrlfy89v0t,3oe22wjigm10olxsekt91v65j1iquk,dshFDNkT,2020-0188,2020-05-21,10:15:41,10:43:24,NA,incomplete,73,number,0,right,Blue_Star_Stripes_2.jpg,Green_Plus_Stripes_4.jpg,Purple_Circle_Dots_2.jpg,right,863.2000000216067,true,low,false
dshFDNkT,3eawoid6nwaaqnjzba4xtrlfy89v0t,3oe22wjigm10olxsekt91v65j1iquk,dshFDNkT,2020-0188,2020-05-21,10:15:41,10:43:24,NA,incomplete,74,number,0,left,Purple_Triangle_Chess_3.jpg,Red_Star_Stripes_3.jpg,Blue_Plus_Chess_1.jpg,left,556.6600000020117,true,low,false
dshFDNkT,3eawoid6nwaaqnjzba4xtrlfy89v0t,3oe22wjigm10olxsekt91v65j1iquk,dshFDNkT,2020-0188,2020-05-21,10:15:41,10:43:24,NA,incomplete,75,number,1,right,Red_Triangle_Grid_3.jpg,Blue_Circle_Grid_2.jpg,Purple_Plus_Dots_3.jpg,right,822.6349999895319,true,low,false
dshFDNkT,3eawoid6nwaaqnjzba4xtrlfy89v0t,3oe22wjigm10olxsekt91v65j1iquk,dshFDNkT,2020-0188,2020-05-21,10:15:41,10:43:24,NA,incomplete,76,number,1,left,Purple_Triangle_Dots_3.jpg,Blue_Plus_Chess_3.jpg,Green_Star_Dots_2.jpg,left,599.6399999712594,true,low,false
dshFDNkT,3eawoid6nwaaqnjzba4xtrlfy89v0t,3oe22wjigm10olxsekt91v65j1iquk,dshFDNkT,2020-0188,2020-05-21,10:15:41,10:43:24,NA,incomplete,77,number,1,right,Purple_Triangle_Chess_3.jpg,Blue_Circle_Chess_4.jpg,Green_Plus_Stripes_3.jpg,right,766.9500000192784,true,low,false
dshFDNkT,3eawoid6nwaaqnjzba4xtrlfy89v0t,3oe22wjigm10olxsekt91v65j1iquk,dshFDNkT,2020-0188,2020-05-21,10:15:41,10:43:24,NA,incomplete,78,number,1,right,Blue_Circle_Stripes_2.jpg,Red_Triangle_Stripes_4.jpg,Purple_Star_Dots_2.jpg,right,752.2549999994226,true,low,false
dshFDNkT,3eawoid6nwaaqnjzba4xtrlfy89v0t,3oe22wjigm10olxsekt91v65j1iquk,dshFDNkT,2020-0188,2020-05-21,10:15:41,10:43:24,NA,incomplete,79,number,1,right,Red_Triangle_Dots_2.jpg,Purple_Star_Dots_1.jpg,Green_Circle_Chess_2.jpg,right,833.7300000130199,true,low,false
dshFDNkT,3eawoid6nwaaqnjzba4xtrlfy89v0t,3oe22wjigm10olxsekt91v65j1iquk,dshFDNkT,2020-0188,2020-05-21,10:15:41,10:43:24,NA,incomplete,80,number,1,right,Purple_Plus_Stripes_3.jpg,Red_Triangle_Stripes_1.jpg,Blue_Circle_Dots_3.jpg,right,759.6900000353344,true,low,false
dshFDNkT,3eawoid6nwaaqnjzba4xtrlfy89v0t,3oe22wjigm10olxsekt91v65j1iquk,dshFDNkT,2020-0188,2020-05-21,10:15:41,10:43:24,NA,incomplete,81,number,1,right,Blue_Triangle_Chess_1.jpg,Red_Star_Chess_4.jpg,Green_Plus_Dots_1.jpg,right,739.9250000016764,true,low,false
dshFDNkT,3eawoid6nwaaqnjzba4xtrlfy89v0t,3oe22wjigm10olxsekt91v65j1iquk,dshFDNkT,2020-0188,2020-05-21,10:15:41,10:43:24,NA,incomplete,82,number,0,left,Red_Triangle_Dots_3.jpg,Purple_Star_Stripes_3.jpg,Blue_Plus_Dots_4.jpg,left,608.7200000183657,true,low,false
dshFDNkT,3eawoid6nwaaqnjzba4xtrlfy89v0t,3oe22wjigm10olxsekt91v65j1iquk,dshFDNkT,2020-0188,2020-05-21,10:15:41,10:43:24,NA,incomplete,83,number,1,left,Purple_Star_Stripes_4.jpg,Green_Plus_Dots_4.jpg,Blue_Triangle_Stripes_3.jpg,right,588.5549999657087,false,low,false
dshFDNkT,3eawoid6nwaaqnjzba4xtrlfy89v0t,3oe22wjigm10olxsekt91v65j1iquk,dshFDNkT,2020-0188,2020-05-21,10:15:41,10:43:24,NA,incomplete,84,number,1,left,Green_Circle_Dots_4.jpg,Purple_Star_Chess_4.jpg,Blue_Triangle_Dots_1.jpg,left,891.0950000281446,true,low,false
dshFDNkT,3eawoid6nwaaqnjzba4xtrlfy89v0t,3oe22wjigm10olxsekt91v65j1iquk,dshFDNkT,2020-0188,2020-05-21,10:15:41,10:43:24,NA,incomplete,85,number,1,left,Purple_Star_Grid_2.jpg,Red_Triangle_Dots_2.jpg,Blue_Plus_Grid_4.jpg,left,667.0349999913014,true,low,false
dshFDNkT,3eawoid6nwaaqnjzba4xtrlfy89v0t,3oe22wjigm10olxsekt91v65j1iquk,dshFDNkT,2020-0188,2020-05-21,10:15:41,10:43:24,NA,incomplete,86,number,1,right,Blue_Star_Dots_3.jpg,Green_Triangle_Dots_4.jpg,Purple_Plus_Stripes_3.jpg,right,785.390000033658,true,low,false
dshFDNkT,3eawoid6nwaaqnjzba4xtrlfy89v0t,3oe22wjigm10olxsekt91v65j1iquk,dshFDNkT,2020-0188,2020-05-21,10:15:41,10:43:24,NA,incomplete,87,number,1,left,Red_Star_Stripes_4.jpg,Purple_Triangle_Dots_4.jpg,Green_Circle_Stripes_3.jpg,left,707.9749999684282,true,low,false
dshFDNkT,3eawoid6nwaaqnjzba4xtrlfy89v0t,3oe22wjigm10olxsekt91v65j1iquk,dshFDNkT,2020-0188,2020-05-21,10:15:41,10:43:24,NA,incomplete,88,number,1,left,Red_Circle_Grid_2.jpg,Blue_Triangle_Chess_2.jpg,Green_Star_Grid_1.jpg,left,720.755000016652,true,low,false
dshFDNkT,3eawoid6nwaaqnjzba4xtrlfy89v0t,3oe22wjigm10olxsekt91v65j1iquk,dshFDNkT,2020-0188,2020-05-21,10:15:41,10:43:24,NA,incomplete,89,number,1,right,Red_Circle_Grid_1.jpg,Blue_Plus_Grid_2.jpg,Green_Triangle_Dots_1.jpg,right,743.0850000237115,true,low,false
dshFDNkT,3eawoid6nwaaqnjzba4xtrlfy89v0t,3oe22wjigm10olxsekt91v65j1iquk,dshFDNkT,2020-0188,2020-05-21,10:15:41,10:43:24,NA,incomplete,90,filling,1,left,Red_Triangle_Grid_2.jpg,Green_Plus_Grid_3.jpg,Blue_Star_Chess_2.jpg,right,798.9799999631941,false,low,false
dshFDNkT,3eawoid6nwaaqnjzba4xtrlfy89v0t,3oe22wjigm10olxsekt91v65j1iquk,dshFDNkT,2020-0188,2020-05-21,10:15:41,10:43:24,NA,incomplete,91,filling,1,left,Blue_Plus_Dots_2.jpg,Red_Triangle_Dots_3.jpg,Green_Circle_Stripes_2.jpg,right,819.8199999751523,false,low,false
dshFDNkT,3eawoid6nwaaqnjzba4xtrlfy89v0t,3oe22wjigm10olxsekt91v65j1iquk,dshFDNkT,2020-0188,2020-05-21,10:15:41,10:43:24,NA,incomplete,92,filling,0,left,Green_Star_Dots_1.jpg,Purple_Plus_Dots_2.jpg,Red_Circle_Stripes_1.jpg,right,711.5999999805354,false,low,false
dshFDNkT,3eawoid6nwaaqnjzba4xtrlfy89v0t,3oe22wjigm10olxsekt91v65j1iquk,dshFDNkT,2020-0188,2020-05-21,10:15:41,10:43:24,NA,incomplete,93,filling,0,left,Blue_Plus_Dots_1.jpg,Purple_Triangle_Dots_3.jpg,Red_Star_Grid_1.jpg,right,1152.8200000175275,false,low,false
dshFDNkT,3eawoid6nwaaqnjzba4xtrlfy89v0t,3oe22wjigm10olxsekt91v65j1iquk,dshFDNkT,2020-0188,2020-05-21,10:15:41,10:43:24,NA,incomplete,94,filling,1,left,Purple_Plus_Dots_1.jpg,Green_Triangle_Dots_2.jpg,Blue_Star_Grid_1.jpg,right,758.7899999925867,false,low,false
dshFDNkT,3eawoid6nwaaqnjzba4xtrlfy89v0t,3oe22wjigm10olxsekt91v65j1iquk,dshFDNkT,2020-0188,2020-05-21,10:15:41,10:43:24,NA,incomplete,95,filling,1,right,Blue_Circle_Dots_3.jpg,Red_Plus_Stripes_3.jpg,Green_Triangle_Dots_1.jpg,left,683.1549999769777,false,low,false
dshFDNkT,3eawoid6nwaaqnjzba4xtrlfy89v0t,3oe22wjigm10olxsekt91v65j1iquk,dshFDNkT,2020-0188,2020-05-21,10:15:41,10:43:24,NA,incomplete,96,filling,1,left,Blue_Plus_Stripes_3.jpg,Purple_Star_Stripes_4.jpg,Green_Circle_Dots_3.jpg,right,907.6200000126846,false,low,false
dshFDNkT,3eawoid6nwaaqnjzba4xtrlfy89v0t,3oe22wjigm10olxsekt91v65j1iquk,dshFDNkT,2020-0188,2020-05-21,10:15:41,10:43:24,NA,incomplete,97,filling,1,right,Blue_Plus_Grid_3.jpg,Green_Circle_Chess_3.jpg,Red_Triangle_Grid_2.jpg,left,829.874999995809,false,low,false
dshFDNkT,3eawoid6nwaaqnjzba4xtrlfy89v0t,3oe22wjigm10olxsekt91v65j1iquk,dshFDNkT,2020-0188,2020-05-21,10:15:41,10:43:24,NA,incomplete,98,filling,0,left,Red_Triangle_Chess_3.jpg,Purple_Circle_Chess_1.jpg,Green_Plus_Stripes_3.jpg,left,753.8049999857321,true,low,false
dshFDNkT,3eawoid6nwaaqnjzba4xtrlfy89v0t,3oe22wjigm10olxsekt91v65j1iquk,dshFDNkT,2020-0188,2020-05-21,10:15:41,10:43:24,NA,incomplete,99,filling,1,left,Green_Star_Stripes_4.jpg,Purple_Plus_Stripes_2.jpg,Red_Circle_Grid_4.jpg,left,1492.020000005141,true,low,false
dshFDNkT,3eawoid6nwaaqnjzba4xtrlfy89v0t,3oe22wjigm10olxsekt91v65j1iquk,dshFDNkT,2020-0188,2020-05-21,10:15:41,10:43:24,NA,incomplete,100,filling,0,left,Red_Star_Stripes_4.jpg,Green_Triangle_Stripes_1.jpg,Blue_Plus_Grid_4.jpg,left,866.7600000044331,true,low,false
dshFDNkT,3eawoid6nwaaqnjzba4xtrlfy89v0t,3oe22wjigm10olxsekt91v65j1iquk,dshFDNkT,2020-0188,2020-05-21,10:15:41,10:43:24,NA,incomplete,101,filling,1,left,Blue_Triangle_Chess_3.jpg,Red_Star_Chess_1.jpg,Purple_Plus_Stripes_3.jpg,left,874.1449999506585,true,low,false
dshFDNkT,3eawoid6nwaaqnjzba4xtrlfy89v0t,3oe22wjigm10olxsekt91v65j1iquk,dshFDNkT,2020-0188,2020-05-21,10:15:41,10:43:24,NA,incomplete,102,filling,1,right,Red_Plus_Dots_3.jpg,Green_Star_Stripes_3.jpg,Purple_Triangle_Dots_1.jpg,right,821.7350000049919,true,low,false
dshFDNkT,3eawoid6nwaaqnjzba4xtrlfy89v0t,3oe22wjigm10olxsekt91v65j1iquk,dshFDNkT,2020-0188,2020-05-21,10:15:41,10:43:24,NA,incomplete,103,filling,1,right,Blue_Circle_Chess_2.jpg,Purple_Triangle_Stripes_2.jpg,Red_Star_Chess_1.jpg,right,927.4050000240095,true,low,false
dshFDNkT,3eawoid6nwaaqnjzba4xtrlfy89v0t,3oe22wjigm10olxsekt91v65j1iquk,dshFDNkT,2020-0188,2020-05-21,10:15:41,10:43:24,NA,incomplete,104,filling,0,left,Purple_Triangle_Chess_4.jpg,Blue_Circle_Chess_2.jpg,Red_Plus_Stripes_4.jpg,left,771.9049999723211,true,low,false
dshFDNkT,3eawoid6nwaaqnjzba4xtrlfy89v0t,3oe22wjigm10olxsekt91v65j1iquk,dshFDNkT,2020-0188,2020-05-21,10:15:41,10:43:24,NA,incomplete,105,filling,1,left,Blue_Triangle_Grid_2.jpg,Green_Circle_Grid_1.jpg,Purple_Plus_Dots_2.jpg,none,0,false,low,false
dshFDNkT,3eawoid6nwaaqnjzba4xtrlfy89v0t,3oe22wjigm10olxsekt91v65j1iquk,dshFDNkT,2020-0188,2020-05-21,10:15:41,10:43:24,NA,incomplete,106,filling,1,left,Blue_Triangle_Chess_1.jpg,Green_Plus_Chess_3.jpg,Purple_Star_Stripes_1.jpg,left,766.6949999984354,true,low,false
dshFDNkT,3eawoid6nwaaqnjzba4xtrlfy89v0t,3oe22wjigm10olxsekt91v65j1iquk,dshFDNkT,2020-0188,2020-05-21,10:15:41,10:43:24,NA,incomplete,107,filling,1,right,Blue_Circle_Grid_2.jpg,Green_Star_Chess_2.jpg,Red_Triangle_Grid_3.jpg,right,657.5850000372157,true,low,false
dshFDNkT,3eawoid6nwaaqnjzba4xtrlfy89v0t,3oe22wjigm10olxsekt91v65j1iquk,dshFDNkT,2020-0188,2020-05-21,10:15:41,10:43:24,NA,incomplete,108,filling,1,right,Purple_Triangle_Grid_3.jpg,Green_Circle_Chess_3.jpg,Blue_Star_Grid_1.jpg,right,776.2199999997392,true,low,false
dshFDNkT,3eawoid6nwaaqnjzba4xtrlfy89v0t,3oe22wjigm10olxsekt91v65j1iquk,dshFDNkT,2020-0188,2020-05-21,10:15:41,10:43:24,NA,incomplete,109,filling,1,left,Purple_Star_Dots_2.jpg,Green_Circle_Dots_1.jpg,Red_Plus_Grid_2.jpg,left,679.3450000113808,true,low,false
dshFDNkT,3eawoid6nwaaqnjzba4xtrlfy89v0t,3oe22wjigm10olxsekt91v65j1iquk,dshFDNkT,2020-0188,2020-05-21,10:15:41,10:43:24,NA,incomplete,110,filling,1,left,Green_Triangle_Grid_1.jpg,Red_Star_Grid_3.jpg,Blue_Circle_Dots_1.jpg,left,826.4450000133365,true,low,false
dshFDNkT,3eawoid6nwaaqnjzba4xtrlfy89v0t,3oe22wjigm10olxsekt91v65j1iquk,dshFDNkT,2020-0188,2020-05-21,10:15:41,10:43:24,NA,incomplete,111,filling,1,left,Green_Plus_Grid_1.jpg,Blue_Triangle_Grid_2.jpg,Red_Star_Dots_1.jpg,left,664.9749999633059,true,low,false
dshFDNkT,3eawoid6nwaaqnjzba4xtrlfy89v0t,3oe22wjigm10olxsekt91v65j1iquk,dshFDNkT,2020-0188,2020-05-21,10:15:41,10:43:24,NA,incomplete,112,filling,0,left,Green_Plus_Grid_2.jpg,Purple_Triangle_Grid_1.jpg,Blue_Star_Stripes_2.jpg,left,691.6499999933876,true,low,false
dshFDNkT,3eawoid6nwaaqnjzba4xtrlfy89v0t,3oe22wjigm10olxsekt91v65j1iquk,dshFDNkT,2020-0188,2020-05-21,10:15:41,10:43:24,NA,incomplete,113,filling,1,right,Blue_Triangle_Dots_3.jpg,Purple_Star_Chess_3.jpg,Green_Plus_Dots_2.jpg,right,652.3799999849871,true,low,false
dshFDNkT,3eawoid6nwaaqnjzba4xtrlfy89v0t,3oe22wjigm10olxsekt91v65j1iquk,dshFDNkT,2020-0188,2020-05-21,10:15:41,10:43:24,NA,incomplete,114,filling,1,right,Blue_Plus_Chess_4.jpg,Purple_Star_Stripes_4.jpg,Red_Triangle_Chess_3.jpg,left,718.7300000223331,false,low,false
dshFDNkT,3eawoid6nwaaqnjzba4xtrlfy89v0t,3oe22wjigm10olxsekt91v65j1iquk,dshFDNkT,2020-0188,2020-05-21,10:15:41,10:43:24,NA,incomplete,115,filling,0,left,Purple_Triangle_Stripes_1.jpg,Red_Star_Stripes_2.jpg,Blue_Plus_Chess_1.jpg,left,849.5600000023842,true,low,false
dshFDNkT,3eawoid6nwaaqnjzba4xtrlfy89v0t,3oe22wjigm10olxsekt91v65j1iquk,dshFDNkT,2020-0188,2020-05-21,10:15:41,10:43:24,NA,incomplete,116,filling,0,left,Blue_Star_Grid_3.jpg,Red_Triangle_Grid_4.jpg,Purple_Plus_Chess_3.jpg,left,838.2800000254065,true,low,false
dshFDNkT,3eawoid6nwaaqnjzba4xtrlfy89v0t,3oe22wjigm10olxsekt91v65j1iquk,dshFDNkT,2020-0188,2020-05-21,10:15:41,10:43:24,NA,incomplete,117,filling,0,left,Blue_Circle_Chess_2.jpg,Green_Plus_Chess_3.jpg,Red_Triangle_Stripes_2.jpg,right,849.469999957364,false,low,false
dshFDNkT,3eawoid6nwaaqnjzba4xtrlfy89v0t,3oe22wjigm10olxsekt91v65j1iquk,dshFDNkT,2020-0188,2020-05-21,10:15:41,10:43:24,NA,incomplete,118,filling,0,right,Red_Star_Grid_1.jpg,Purple_Plus_Dots_1.jpg,Green_Triangle_Grid_2.jpg,left,517.3099999665283,false,low,false
dshFDNkT,3eawoid6nwaaqnjzba4xtrlfy89v0t,3oe22wjigm10olxsekt91v65j1iquk,dshFDNkT,2020-0188,2020-05-21,10:15:41,10:43:24,NA,incomplete,119,filling,1,right,Green_Circle_Grid_3.jpg,Red_Plus_Stripes_3.jpg,Purple_Star_Grid_4.jpg,left,740.2349999756552,false,low,false
dshFDNkT,3eawoid6nwaaqnjzba4xtrlfy89v0t,3oe22wjigm10olxsekt91v65j1iquk,dshFDNkT,2020-0188,2020-05-21,10:15:41,10:43:24,NA,incomplete,120,color,1,right,Purple_Star_Stripes_3.jpg,Red_Star_Grid_4.jpg,Purple_Triangle_Dots_1.jpg,NA,NA,NA,low,false
dshFDNkT,3eawoid6nwaaqnjzba4xtrlfy89v0t,3oe22wjigm10olxsekt91v65j1iquk,dshFDNkT,2020-0188,2020-05-21,10:15:41,10:43:24,NA,incomplete,121,color,1,right,Purple_Star_Dots_4.jpg,Green_Star_Chess_1.jpg,Purple_Circle_Grid_2.jpg,right,636.3649999839254,true,low,false
dshFDNkT,3eawoid6nwaaqnjzba4xtrlfy89v0t,3oe22wjigm10olxsekt91v65j1iquk,dshFDNkT,2020-0188,2020-05-21,10:15:41,10:43:24,NA,incomplete,122,color,0,right,Purple_Star_Stripes_3.jpg,Green_Star_Chess_4.jpg,Purple_Triangle_Grid_1.jpg,right,517.2199999797158,true,low,false
dshFDNkT,3eawoid6nwaaqnjzba4xtrlfy89v0t,3oe22wjigm10olxsekt91v65j1iquk,dshFDNkT,2020-0188,2020-05-21,10:15:41,10:43:24,NA,incomplete,123,color,1,left,Green_Plus_Grid_4.jpg,Green_Circle_Dots_3.jpg,Red_Plus_Chess_2.jpg,left,580.1799999899231,true,low,false
dshFDNkT,3eawoid6nwaaqnjzba4xtrlfy89v0t,3oe22wjigm10olxsekt91v65j1iquk,dshFDNkT,2020-0188,2020-05-21,10:15:41,10:43:24,NA,incomplete,124,color,0,left,Red_Triangle_Grid_4.jpg,Red_Plus_Dots_1.jpg,Purple_Triangle_Chess_2.jpg,left,525.5050000268966,true,low,false
dshFDNkT,3eawoid6nwaaqnjzba4xtrlfy89v0t,3oe22wjigm10olxsekt91v65j1iquk,dshFDNkT,2020-0188,2020-05-21,10:15:41,10:43:24,NA,incomplete,125,color,1,left,Red_Star_Chess_4.jpg,Red_Triangle_Stripes_1.jpg,Green_Star_Grid_2.jpg,left,439.4700000411831,true,low,false
dshFDNkT,3eawoid6nwaaqnjzba4xtrlfy89v0t,3oe22wjigm10olxsekt91v65j1iquk,dshFDNkT,2020-0188,2020-05-21,10:15:41,10:43:24,NA,incomplete,126,color,1,right,Green_Circle_Grid_2.jpg,Red_Circle_Stripes_4.jpg,Green_Star_Dots_1.jpg,right,445.9299999871291,true,low,false
dshFDNkT,3eawoid6nwaaqnjzba4xtrlfy89v0t,3oe22wjigm10olxsekt91v65j1iquk,dshFDNkT,2020-0188,2020-05-21,10:15:41,10:43:24,NA,incomplete,127,color,1,right,Green_Star_Stripes_3.jpg,Purple_Star_Chess_2.jpg,Green_Plus_Grid_4.jpg,right,463.9500000048429,true,low,false
dshFDNkT,3eawoid6nwaaqnjzba4xtrlfy89v0t,3oe22wjigm10olxsekt91v65j1iquk,dshFDNkT,2020-0188,2020-05-21,10:15:41,10:43:24,NA,incomplete,128,color,1,right,Purple_Star_Stripes_4.jpg,Red_Star_Grid_1.jpg,Purple_Circle_Dots_3.jpg,right,706.9699999992736,true,low,false
dshFDNkT,3eawoid6nwaaqnjzba4xtrlfy89v0t,3oe22wjigm10olxsekt91v65j1iquk,dshFDNkT,2020-0188,2020-05-21,10:15:41,10:43:24,NA,incomplete,129,color,0,left,Blue_Triangle_Dots_3.jpg,Blue_Plus_Grid_2.jpg,Green_Triangle_Stripes_1.jpg,left,397.6649999967776,true,low,false
dshFDNkT,3eawoid6nwaaqnjzba4xtrlfy89v0t,3oe22wjigm10olxsekt91v65j1iquk,dshFDNkT,2020-0188,2020-05-21,10:15:41,10:43:24,NA,incomplete,130,color,1,left,Blue_Circle_Chess_1.jpg,Blue_Triangle_Stripes_4.jpg,Red_Circle_Grid_3.jpg,left,394.9750000028871,true,low,false
dshFDNkT,3eawoid6nwaaqnjzba4xtrlfy89v0t,3oe22wjigm10olxsekt91v65j1iquk,dshFDNkT,2020-0188,2020-05-21,10:15:41,10:43:24,NA,incomplete,131,color,0,right,Green_Circle_Dots_3.jpg,Purple_Circle_Stripes_1.jpg,Green_Star_Grid_4.jpg,right,369.90999995032325,true,low,false
dshFDNkT,3eawoid6nwaaqnjzba4xtrlfy89v0t,3oe22wjigm10olxsekt91v65j1iquk,dshFDNkT,2020-0188,2020-05-21,10:15:41,10:43:24,NA,incomplete,132,color,1,right,Red_Triangle_Grid_3.jpg,Green_Triangle_Dots_4.jpg,Red_Circle_Chess_2.jpg,right,503.06499999715015,true,low,false
dshFDNkT,3eawoid6nwaaqnjzba4xtrlfy89v0t,3oe22wjigm10olxsekt91v65j1iquk,dshFDNkT,2020-0188,2020-05-21,10:15:41,10:43:24,NA,incomplete,133,color,1,right,Purple_Star_Stripes_3.jpg,Red_Star_Dots_4.jpg,Purple_Circle_Grid_1.jpg,right,491.79499997990206,true,low,false
dshFDNkT,3eawoid6nwaaqnjzba4xtrlfy89v0t,3oe22wjigm10olxsekt91v65j1iquk,dshFDNkT,2020-0188,2020-05-21,10:15:41,10:43:24,NA,incomplete,134,color,1,right,Red_Plus_Grid_3.jpg,Green_Plus_Dots_1.jpg,Red_Star_Stripes_2.jpg,right,450.19000000320375,true,low,false
dshFDNkT,3eawoid6nwaaqnjzba4xtrlfy89v0t,3oe22wjigm10olxsekt91v65j1iquk,dshFDNkT,2020-0188,2020-05-21,10:15:41,10:43:24,NA,incomplete,135,color,0,left,Red_Triangle_Grid_2.jpg,Red_Star_Chess_1.jpg,Blue_Triangle_Stripes_4.jpg,left,358.09999995399266,true,low,false
dshFDNkT,3eawoid6nwaaqnjzba4xtrlfy89v0t,3oe22wjigm10olxsekt91v65j1iquk,dshFDNkT,2020-0188,2020-05-21,10:15:41,10:43:24,NA,incomplete,136,color,1,left,Purple_Plus_Chess_3.jpg,Purple_Triangle_Stripes_1.jpg,Green_Plus_Dots_4.jpg,left,707.9999999841675,true,low,false
dshFDNkT,3eawoid6nwaaqnjzba4xtrlfy89v0t,3oe22wjigm10olxsekt91v65j1iquk,dshFDNkT,2020-0188,2020-05-21,10:15:41,10:43:24,NA,incomplete,137,color,0,right,Red_Plus_Stripes_4.jpg,Green_Plus_Chess_3.jpg,Red_Triangle_Dots_1.jpg,right,469.1350000211969,true,low,false
dshFDNkT,3eawoid6nwaaqnjzba4xtrlfy89v0t,3oe22wjigm10olxsekt91v65j1iquk,dshFDNkT,2020-0188,2020-05-21,10:15:41,10:43:24,NA,incomplete,138,color,1,left,Purple_Star_Chess_3.jpg,Purple_Triangle_Dots_2.jpg,Red_Star_Grid_1.jpg,right,642.2500000335276,false,low,false
dshFDNkT,3eawoid6nwaaqnjzba4xtrlfy89v0t,3oe22wjigm10olxsekt91v65j1iquk,dshFDNkT,2020-0188,2020-05-21,10:15:41,10:43:24,NA,incomplete,139,color,1,left,Blue_Star_Stripes_1.jpg,Blue_Circle_Dots_4.jpg,Green_Star_Chess_2.jpg,left,611.2849999917671,true,low,false
dshFDNkT,3eawoid6nwaaqnjzba4xtrlfy89v0t,3oe22wjigm10olxsekt91v65j1iquk,dshFDNkT,2020-0188,2020-05-21,10:15:41,10:43:24,NA,incomplete,140,shape,1,right,Red_Plus_Dots_4.jpg,Red_Star_Chess_3.jpg,Green_Plus_Grid_2.jpg,left,699.7800000244752,false,low,false
dshFDNkT,3eawoid6nwaaqnjzba4xtrlfy89v0t,3oe22wjigm10olxsekt91v65j1iquk,dshFDNkT,2020-0188,2020-05-21,10:15:41,10:43:24,NA,incomplete,141,shape,0,right,Red_Plus_Grid_1.jpg,Red_Star_Dots_4.jpg,Purple_Plus_Stripes_2.jpg,left,441.9099999940954,false,low,false
dshFDNkT,3eawoid6nwaaqnjzba4xtrlfy89v0t,3oe22wjigm10olxsekt91v65j1iquk,dshFDNkT,2020-0188,2020-05-21,10:15:41,10:43:24,NA,incomplete,142,shape,1,left,Blue_Triangle_Dots_4.jpg,Red_Triangle_Grid_1.jpg,Blue_Circle_Stripes_3.jpg,right,515.3249999857508,false,low,false
dshFDNkT,3eawoid6nwaaqnjzba4xtrlfy89v0t,3oe22wjigm10olxsekt91v65j1iquk,dshFDNkT,2020-0188,2020-05-21,10:15:41,10:43:24,NA,incomplete,143,shape,1,right,Purple_Circle_Stripes_4.jpg,Purple_Triangle_Grid_1.jpg,Blue_Circle_Dots_3.jpg,left,462.98499999102205,false,low,false
dshFDNkT,3eawoid6nwaaqnjzba4xtrlfy89v0t,3oe22wjigm10olxsekt91v65j1iquk,dshFDNkT,2020-0188,2020-05-21,10:15:41,10:43:24,NA,incomplete,144,shape,0,right,Red_Star_Dots_3.jpg,Red_Plus_Stripes_4.jpg,Green_Star_Grid_2.jpg,left,548.6999999848194,false,low,false
dshFDNkT,3eawoid6nwaaqnjzba4xtrlfy89v0t,3oe22wjigm10olxsekt91v65j1iquk,dshFDNkT,2020-0188,2020-05-21,10:15:41,10:43:24,NA,incomplete,145,shape,1,left,Blue_Circle_Grid_3.jpg,Red_Circle_Chess_2.jpg,Blue_Star_Stripes_4.jpg,right,390.92500001424924,false,low,false
dshFDNkT,3eawoid6nwaaqnjzba4xtrlfy89v0t,3oe22wjigm10olxsekt91v65j1iquk,dshFDNkT,2020-0188,2020-05-21,10:15:41,10:43:24,NA,incomplete,146,shape,1,right,Red_Star_Stripes_1.jpg,Red_Plus_Grid_3.jpg,Green_Star_Chess_2.jpg,right,655.6799999671057,true,low,false
dshFDNkT,3eawoid6nwaaqnjzba4xtrlfy89v0t,3oe22wjigm10olxsekt91v65j1iquk,dshFDNkT,2020-0188,2020-05-21,10:15:41,10:43:24,NA,incomplete,147,shape,1,left,Blue_Triangle_Chess_3.jpg,Green_Triangle_Grid_1.jpg,Blue_Star_Stripes_2.jpg,left,601.6599999857135,true,low,false
dshFDNkT,3eawoid6nwaaqnjzba4xtrlfy89v0t,3oe22wjigm10olxsekt91v65j1iquk,dshFDNkT,2020-0188,2020-05-21,10:15:41,10:43:24,NA,incomplete,148,shape,1,left,Green_Star_Grid_4.jpg,Blue_Star_Stripes_2.jpg,Green_Triangle_Dots_1.jpg,right,658.3450000034645,false,low,false
dshFDNkT,3eawoid6nwaaqnjzba4xtrlfy89v0t,3oe22wjigm10olxsekt91v65j1iquk,dshFDNkT,2020-0188,2020-05-21,10:15:41,10:43:24,NA,incomplete,149,shape,0,left,Blue_Triangle_Dots_2.jpg,Red_Triangle_Stripes_3.jpg,Blue_Plus_Grid_1.jpg,left,734.6350000007078,true,low,false
dshFDNkT,3eawoid6nwaaqnjzba4xtrlfy89v0t,3oe22wjigm10olxsekt91v65j1iquk,dshFDNkT,2020-0188,2020-05-21,10:15:41,10:43:24,NA,incomplete,150,shape,1,right,Green_Plus_Grid_4.jpg,Green_Star_Chess_2.jpg,Red_Plus_Stripes_3.jpg,right,901.5200000139885,true,low,false
dshFDNkT,3eawoid6nwaaqnjzba4xtrlfy89v0t,3oe22wjigm10olxsekt91v65j1iquk,dshFDNkT,2020-0188,2020-05-21,10:15:41,10:43:24,NA,incomplete,151,shape,1,left,Purple_Star_Dots_3.jpg,Blue_Star_Grid_4.jpg,Purple_Plus_Stripes_1.jpg,left,646.0550000192598,true,low,false
dshFDNkT,3eawoid6nwaaqnjzba4xtrlfy89v0t,3oe22wjigm10olxsekt91v65j1iquk,dshFDNkT,2020-0188,2020-05-21,10:15:41,10:43:24,NA,incomplete,152,shape,1,right,Blue_Plus_Stripes_3.jpg,Blue_Star_Dots_1.jpg,Red_Plus_Chess_2.jpg,right,1005.2249999716878,true,low,false
dshFDNkT,3eawoid6nwaaqnjzba4xtrlfy89v0t,3oe22wjigm10olxsekt91v65j1iquk,dshFDNkT,2020-0188,2020-05-21,10:15:41,10:43:24,NA,incomplete,153,shape,1,left,Green_Plus_Chess_1.jpg,Purple_Plus_Grid_4.jpg,Green_Circle_Dots_3.jpg,left,548.5150000313297,true,low,false
dshFDNkT,3eawoid6nwaaqnjzba4xtrlfy89v0t,3oe22wjigm10olxsekt91v65j1iquk,dshFDNkT,2020-0188,2020-05-21,10:15:41,10:43:24,NA,incomplete,154,shape,1,left,Red_Star_Stripes_3.jpg,Green_Star_Chess_1.jpg,Red_Plus_Dots_4.jpg,left,587.3349999892525,true,low,false
dshFDNkT,3eawoid6nwaaqnjzba4xtrlfy89v0t,3oe22wjigm10olxsekt91v65j1iquk,dshFDNkT,2020-0188,2020-05-21,10:15:41,10:43:24,NA,incomplete,155,shape,1,right,Purple_Circle_Stripes_1.jpg,Purple_Plus_Dots_3.jpg,Red_Circle_Chess_2.jpg,left,663.8699999894015,false,low,false
dshFDNkT,3eawoid6nwaaqnjzba4xtrlfy89v0t,3oe22wjigm10olxsekt91v65j1iquk,dshFDNkT,2020-0188,2020-05-21,10:15:41,10:43:24,NA,incomplete,156,shape,0,right,Red_Plus_Stripes_2.jpg,Red_Star_Chess_3.jpg,Blue_Plus_Dots_1.jpg,right,1053.585000045132,true,low,false
dshFDNkT,3eawoid6nwaaqnjzba4xtrlfy89v0t,3oe22wjigm10olxsekt91v65j1iquk,dshFDNkT,2020-0188,2020-05-21,10:15:41,10:43:24,NA,incomplete,157,shape,1,right,Purple_Plus_Grid_2.jpg,Purple_Star_Chess_3.jpg,Green_Plus_Stripes_1.jpg,right,755.9949999558739,true,low,false
dshFDNkT,3eawoid6nwaaqnjzba4xtrlfy89v0t,3oe22wjigm10olxsekt91v65j1iquk,dshFDNkT,2020-0188,2020-05-21,10:15:41,10:43:24,NA,incomplete,158,shape,1,right,Purple_Triangle_Dots_4.jpg,Purple_Circle_Stripes_1.jpg,Blue_Triangle_Grid_2.jpg,right,641.1649999790825,true,low,false
dshFDNkT,3eawoid6nwaaqnjzba4xtrlfy89v0t,3oe22wjigm10olxsekt91v65j1iquk,dshFDNkT,2020-0188,2020-05-21,10:15:41,10:43:24,NA,incomplete,159,shape,1,right,Blue_Star_Chess_1.jpg,Blue_Triangle_Grid_3.jpg,Red_Star_Dots_2.jpg,left,622.6100000203587,false,low,false
dshFDNkT,3eawoid6nwaaqnjzba4xtrlfy89v0t,3oe22wjigm10olxsekt91v65j1iquk,dshFDNkT,2020-0188,2020-05-21,10:15:41,10:43:24,NA,incomplete,160,color,1,left,Green_Star_Chess_2.jpg,Green_Circle_Grid_4.jpg,Red_Star_Dots_1.jpg,right,806.8849999690428,false,low,false
dshFDNkT,3eawoid6nwaaqnjzba4xtrlfy89v0t,3oe22wjigm10olxsekt91v65j1iquk,dshFDNkT,2020-0188,2020-05-21,10:15:41,10:43:24,NA,incomplete,161,color,1,left,Blue_Plus_Chess_3.jpg,Blue_Triangle_Stripes_4.jpg,Purple_Plus_Grid_2.jpg,right,764.0249999822117,false,low,false
dshFDNkT,3eawoid6nwaaqnjzba4xtrlfy89v0t,3oe22wjigm10olxsekt91v65j1iquk,dshFDNkT,2020-0188,2020-05-21,10:15:41,10:43:24,NA,incomplete,162,color,1,right,Purple_Circle_Dots_1.jpg,Blue_Circle_Stripes_2.jpg,Purple_Plus_Chess_3.jpg,left,873.5749999759719,false,low,false
dshFDNkT,3eawoid6nwaaqnjzba4xtrlfy89v0t,3oe22wjigm10olxsekt91v65j1iquk,dshFDNkT,2020-0188,2020-05-21,10:15:41,10:43:24,NA,incomplete,163,color,1,right,Red_Plus_Grid_4.jpg,Purple_Plus_Chess_2.jpg,Red_Triangle_Stripes_1.jpg,right,579.0100000449456,true,low,false
dshFDNkT,3eawoid6nwaaqnjzba4xtrlfy89v0t,3oe22wjigm10olxsekt91v65j1iquk,dshFDNkT,2020-0188,2020-05-21,10:15:41,10:43:24,NA,incomplete,164,color,1,left,Purple_Circle_Dots_4.jpg,Purple_Star_Grid_3.jpg,Red_Circle_Stripes_2.jpg,left,640.4000000329688,true,low,false
dshFDNkT,3eawoid6nwaaqnjzba4xtrlfy89v0t,3oe22wjigm10olxsekt91v65j1iquk,dshFDNkT,2020-0188,2020-05-21,10:15:41,10:43:24,NA,incomplete,165,color,1,right,Red_Plus_Stripes_3.jpg,Green_Plus_Chess_2.jpg,Red_Circle_Dots_4.jpg,right,685.8650000067428,true,low,false
dshFDNkT,3eawoid6nwaaqnjzba4xtrlfy89v0t,3oe22wjigm10olxsekt91v65j1iquk,dshFDNkT,2020-0188,2020-05-21,10:15:41,10:43:24,NA,incomplete,166,color,0,right,Green_Plus_Dots_1.jpg,Blue_Plus_Chess_2.jpg,Green_Circle_Grid_4.jpg,right,454.6550000086427,true,low,false
dshFDNkT,3eawoid6nwaaqnjzba4xtrlfy89v0t,3oe22wjigm10olxsekt91v65j1iquk,dshFDNkT,2020-0188,2020-05-21,10:15:41,10:43:24,NA,incomplete,167,color,1,left,Red_Star_Stripes_1.jpg,Red_Plus_Dots_4.jpg,Purple_Star_Grid_2.jpg,left,446.0349999717437,true,low,false
dshFDNkT,3eawoid6nwaaqnjzba4xtrlfy89v0t,3oe22wjigm10olxsekt91v65j1iquk,dshFDNkT,2020-0188,2020-05-21,10:15:41,10:43:24,NA,incomplete,168,color,1,right,Red_Plus_Dots_1.jpg,Green_Plus_Grid_2.jpg,Red_Circle_Chess_4.jpg,right,447.0650000148453,true,low,false
dshFDNkT,3eawoid6nwaaqnjzba4xtrlfy89v0t,3oe22wjigm10olxsekt91v65j1iquk,dshFDNkT,2020-0188,2020-05-21,10:15:41,10:43:24,NA,incomplete,169,color,1,left,Red_Plus_Stripes_1.jpg,Red_Circle_Dots_4.jpg,Green_Plus_Chess_2.jpg,left,427.57499997969717,true,low,false
dshFDNkT,3eawoid6nwaaqnjzba4xtrlfy89v0t,3oe22wjigm10olxsekt91v65j1iquk,dshFDNkT,2020-0188,2020-05-21,10:15:41,10:43:24,NA,incomplete,170,color,1,left,Blue_Triangle_Dots_2.jpg,Blue_Plus_Chess_3.jpg,Purple_Triangle_Stripes_1.jpg,left,459.8099999711849,true,low,false
dshFDNkT,3eawoid6nwaaqnjzba4xtrlfy89v0t,3oe22wjigm10olxsekt91v65j1iquk,dshFDNkT,2020-0188,2020-05-21,10:15:41,10:43:24,NA,incomplete,171,color,1,right,Blue_Star_Dots_2.jpg,Purple_Star_Stripes_1.jpg,Blue_Triangle_Chess_4.jpg,right,398.31000001868233,true,low,false
dshFDNkT,3eawoid6nwaaqnjzba4xtrlfy89v0t,3oe22wjigm10olxsekt91v65j1iquk,dshFDNkT,2020-0188,2020-05-21,10:15:41,10:43:24,NA,incomplete,172,color,0,left,Blue_Star_Grid_4.jpg,Blue_Triangle_Dots_1.jpg,Green_Star_Stripes_2.jpg,left,521.9750000396743,true,low,false
dshFDNkT,3eawoid6nwaaqnjzba4xtrlfy89v0t,3oe22wjigm10olxsekt91v65j1iquk,dshFDNkT,2020-0188,2020-05-21,10:15:41,10:43:24,NA,incomplete,173,color,1,right,Blue_Triangle_Stripes_3.jpg,Purple_Triangle_Chess_2.jpg,Blue_Circle_Dots_4.jpg,right,438.38499998673797,true,low,false
dshFDNkT,3eawoid6nwaaqnjzba4xtrlfy89v0t,3oe22wjigm10olxsekt91v65j1iquk,dshFDNkT,2020-0188,2020-05-21,10:15:41,10:43:24,NA,incomplete,174,color,1,right,Red_Plus_Grid_1.jpg,Blue_Plus_Stripes_3.jpg,Red_Circle_Dots_4.jpg,right,482.3949999990873,true,low,false
dshFDNkT,3eawoid6nwaaqnjzba4xtrlfy89v0t,3oe22wjigm10olxsekt91v65j1iquk,dshFDNkT,2020-0188,2020-05-21,10:15:41,10:43:24,NA,incomplete,175,color,1,right,Blue_Triangle_Chess_3.jpg,Red_Triangle_Stripes_1.jpg,Blue_Star_Grid_2.jpg,right,597.2250000340864,true,low,false
dshFDNkT,3eawoid6nwaaqnjzba4xtrlfy89v0t,3oe22wjigm10olxsekt91v65j1iquk,dshFDNkT,2020-0188,2020-05-21,10:15:41,10:43:24,NA,incomplete,176,color,1,left,Green_Star_Grid_4.jpg,Green_Triangle_Dots_1.jpg,Red_Star_Chess_2.jpg,left,401.55499998945743,true,low,false
dshFDNkT,3eawoid6nwaaqnjzba4xtrlfy89v0t,3oe22wjigm10olxsekt91v65j1iquk,dshFDNkT,2020-0188,2020-05-21,10:15:41,10:43:24,NA,incomplete,177,color,1,left,Green_Star_Chess_1.jpg,Green_Triangle_Stripes_3.jpg,Blue_Star_Dots_4.jpg,left,435.43499999213964,true,low,false
dshFDNkT,3eawoid6nwaaqnjzba4xtrlfy89v0t,3oe22wjigm10olxsekt91v65j1iquk,dshFDNkT,2020-0188,2020-05-21,10:15:41,10:43:24,NA,incomplete,178,color,1,right,Red_Star_Dots_1.jpg,Green_Star_Chess_2.jpg,Red_Circle_Stripes_3.jpg,right,457.76499999919906,true,low,false
dshFDNkT,3eawoid6nwaaqnjzba4xtrlfy89v0t,3oe22wjigm10olxsekt91v65j1iquk,dshFDNkT,2020-0188,2020-05-21,10:15:41,10:43:24,NA,incomplete,179,color,0,left,Green_Plus_Chess_2.jpg,Green_Triangle_Stripes_3.jpg,Blue_Plus_Dots_4.jpg,left,370.6349999993108,true,low,false
dshFDNkT,3eawoid6nwaaqnjzba4xtrlfy89v0t,3oe22wjigm10olxsekt91v65j1iquk,dshFDNkT,2020-0188,2020-05-21,10:15:41,10:43:24,NA,incomplete,180,shape,1,left,Blue_Plus_Grid_3.jpg,Purple_Plus_Chess_2.jpg,Blue_Triangle_Dots_1.jpg,right,392.0000000507571,false,low,false
dshFDNkT,3eawoid6nwaaqnjzba4xtrlfy89v0t,3oe22wjigm10olxsekt91v65j1iquk,dshFDNkT,2020-0188,2020-05-21,10:15:41,10:43:24,NA,incomplete,181,shape,1,right,Blue_Triangle_Stripes_1.jpg,Blue_Plus_Chess_2.jpg,Red_Triangle_Dots_4.jpg,left,478.1650000368245,false,low,false
dshFDNkT,3eawoid6nwaaqnjzba4xtrlfy89v0t,3oe22wjigm10olxsekt91v65j1iquk,dshFDNkT,2020-0188,2020-05-21,10:15:41,10:43:24,NA,incomplete,182,shape,1,left,Blue_Triangle_Stripes_4.jpg,Red_Triangle_Dots_1.jpg,Blue_Circle_Grid_3.jpg,right,424.0549999522045,false,low,false
dshFDNkT,3eawoid6nwaaqnjzba4xtrlfy89v0t,3oe22wjigm10olxsekt91v65j1iquk,dshFDNkT,2020-0188,2020-05-21,10:15:41,10:43:24,NA,incomplete,183,shape,1,right,Red_Circle_Dots_1.jpg,Red_Star_Grid_3.jpg,Green_Circle_Chess_4.jpg,left,468.58500002417713,false,low,false
dshFDNkT,3eawoid6nwaaqnjzba4xtrlfy89v0t,3oe22wjigm10olxsekt91v65j1iquk,dshFDNkT,2020-0188,2020-05-21,10:15:41,10:43:24,NA,incomplete,184,shape,1,right,Green_Circle_Stripes_4.jpg,Green_Star_Dots_2.jpg,Purple_Circle_Grid_3.jpg,right,691.0050000296906,true,low,false
dshFDNkT,3eawoid6nwaaqnjzba4xtrlfy89v0t,3oe22wjigm10olxsekt91v65j1iquk,dshFDNkT,2020-0188,2020-05-21,10:15:41,10:43:24,NA,incomplete,185,shape,1,right,Blue_Star_Chess_1.jpg,Blue_Triangle_Stripes_3.jpg,Green_Star_Dots_2.jpg,right,652.3400000296533,true,low,false
dshFDNkT,3eawoid6nwaaqnjzba4xtrlfy89v0t,3oe22wjigm10olxsekt91v65j1iquk,dshFDNkT,2020-0188,2020-05-21,10:15:41,10:43:24,NA,incomplete,186,shape,1,left,Purple_Triangle_Chess_2.jpg,Red_Triangle_Grid_1.jpg,Purple_Plus_Stripes_3.jpg,left,618.3200000086799,true,low,false
dshFDNkT,3eawoid6nwaaqnjzba4xtrlfy89v0t,3oe22wjigm10olxsekt91v65j1iquk,dshFDNkT,2020-0188,2020-05-21,10:15:41,10:43:24,NA,incomplete,187,shape,0,right,Green_Plus_Stripes_3.jpg,Green_Triangle_Dots_4.jpg,Purple_Plus_Chess_1.jpg,right,554.0950000286102,true,low,false
dshFDNkT,3eawoid6nwaaqnjzba4xtrlfy89v0t,3oe22wjigm10olxsekt91v65j1iquk,dshFDNkT,2020-0188,2020-05-21,10:15:41,10:43:24,NA,incomplete,188,shape,1,right,Green_Triangle_Grid_2.jpg,Green_Circle_Dots_4.jpg,Red_Triangle_Stripes_3.jpg,right,711.185000021942,true,low,false
dshFDNkT,3eawoid6nwaaqnjzba4xtrlfy89v0t,3oe22wjigm10olxsekt91v65j1iquk,dshFDNkT,2020-0188,2020-05-21,10:15:41,10:43:24,NA,incomplete,189,shape,1,left,Red_Plus_Dots_1.jpg,Purple_Plus_Grid_2.jpg,Red_Triangle_Stripes_4.jpg,right,845.1449999702163,false,low,false
dshFDNkT,3eawoid6nwaaqnjzba4xtrlfy89v0t,3oe22wjigm10olxsekt91v65j1iquk,dshFDNkT,2020-0188,2020-05-21,10:15:41,10:43:24,NA,incomplete,190,shape,1,right,Red_Triangle_Stripes_4.jpg,Red_Star_Grid_1.jpg,Blue_Triangle_Chess_3.jpg,right,1199.529999983497,true,low,false
dshFDNkT,3eawoid6nwaaqnjzba4xtrlfy89v0t,3oe22wjigm10olxsekt91v65j1iquk,dshFDNkT,2020-0188,2020-05-21,10:15:41,10:43:24,NA,incomplete,191,shape,0,left,Red_Star_Stripes_2.jpg,Green_Star_Grid_4.jpg,Red_Plus_Dots_1.jpg,left,626.1300000478514,true,low,false
dshFDNkT,3eawoid6nwaaqnjzba4xtrlfy89v0t,3oe22wjigm10olxsekt91v65j1iquk,dshFDNkT,2020-0188,2020-05-21,10:15:41,10:43:24,NA,incomplete,192,shape,1,right,Red_Star_Stripes_3.jpg,Red_Plus_Grid_1.jpg,Purple_Star_Chess_2.jpg,right,680.7499999995343,true,low,false
dshFDNkT,3eawoid6nwaaqnjzba4xtrlfy89v0t,3oe22wjigm10olxsekt91v65j1iquk,dshFDNkT,2020-0188,2020-05-21,10:15:41,10:43:24,NA,incomplete,193,shape,0,left,Red_Triangle_Grid_1.jpg,Blue_Triangle_Stripes_4.jpg,Red_Star_Dots_3.jpg,left,522.6949999923818,true,low,false
dshFDNkT,3eawoid6nwaaqnjzba4xtrlfy89v0t,3oe22wjigm10olxsekt91v65j1iquk,dshFDNkT,2020-0188,2020-05-21,10:15:41,10:43:24,NA,incomplete,194,shape,1,right,Blue_Star_Stripes_1.jpg,Blue_Triangle_Chess_2.jpg,Red_Star_Grid_4.jpg,right,619.814999983646,true,low,false
dshFDNkT,3eawoid6nwaaqnjzba4xtrlfy89v0t,3oe22wjigm10olxsekt91v65j1iquk,dshFDNkT,2020-0188,2020-05-21,10:15:41,10:43:24,NA,incomplete,195,shape,1,left,Blue_Circle_Dots_3.jpg,Red_Circle_Stripes_4.jpg,Blue_Star_Grid_2.jpg,left,681.1599999782629,true,low,false
dshFDNkT,3eawoid6nwaaqnjzba4xtrlfy89v0t,3oe22wjigm10olxsekt91v65j1iquk,dshFDNkT,2020-0188,2020-05-21,10:15:41,10:43:24,NA,incomplete,196,shape,1,right,Red_Circle_Grid_4.jpg,Red_Triangle_Chess_2.jpg,Green_Circle_Stripes_3.jpg,right,642.4600000027567,true,low,false
dshFDNkT,3eawoid6nwaaqnjzba4xtrlfy89v0t,3oe22wjigm10olxsekt91v65j1iquk,dshFDNkT,2020-0188,2020-05-21,10:15:41,10:43:24,NA,incomplete,197,shape,0,right,Purple_Star_Dots_3.jpg,Purple_Plus_Grid_1.jpg,Red_Star_Chess_2.jpg,right,608.0300000030547,true,low,false
dshFDNkT,3eawoid6nwaaqnjzba4xtrlfy89v0t,3oe22wjigm10olxsekt91v65j1iquk,dshFDNkT,2020-0188,2020-05-21,10:15:41,10:43:24,NA,incomplete,198,shape,1,right,Green_Circle_Grid_2.jpg,Green_Plus_Stripes_3.jpg,Blue_Circle_Chess_4.jpg,right,574.1850000340492,true,low,false
dshFDNkT,3eawoid6nwaaqnjzba4xtrlfy89v0t,3oe22wjigm10olxsekt91v65j1iquk,dshFDNkT,2020-0188,2020-05-21,10:15:41,10:43:24,NA,incomplete,199,shape,1,left,Red_Circle_Grid_1.jpg,Blue_Circle_Stripes_2.jpg,Red_Plus_Dots_4.jpg,left,585.6750000384636,true,low,false
dshFDNkT,3eawoid6nwaaqnjzba4xtrlfy89v0t,3oe22wjigm10olxsekt91v65j1iquk,dshFDNkT,2020-0188,2020-05-21,10:15:41,10:43:24,NA,incomplete,200,color,1,right,Green_Circle_Dots_1.jpg,Blue_Circle_Chess_3.jpg,Green_Plus_Grid_4.jpg,left,583.5899999947287,false,low,false
dshFDNkT,3eawoid6nwaaqnjzba4xtrlfy89v0t,3oe22wjigm10olxsekt91v65j1iquk,dshFDNkT,2020-0188,2020-05-21,10:15:41,10:43:24,NA,incomplete,201,color,1,right,Green_Star_Dots_1.jpg,Purple_Star_Chess_4.jpg,Green_Plus_Stripes_3.jpg,left,746.3800000259653,false,low,false
dshFDNkT,3eawoid6nwaaqnjzba4xtrlfy89v0t,3oe22wjigm10olxsekt91v65j1iquk,dshFDNkT,2020-0188,2020-05-21,10:15:41,10:43:24,NA,incomplete,202,color,1,left,Green_Circle_Chess_1.jpg,Green_Triangle_Dots_2.jpg,Purple_Circle_Grid_3.jpg,right,863.2549999747425,false,low,false
dshFDNkT,3eawoid6nwaaqnjzba4xtrlfy89v0t,3oe22wjigm10olxsekt91v65j1iquk,dshFDNkT,2020-0188,2020-05-21,10:15:41,10:43:24,NA,incomplete,203,color,0,right,Blue_Circle_Stripes_4.jpg,Purple_Circle_Chess_1.jpg,Blue_Triangle_Grid_3.jpg,right,532.9900000360794,true,low,false
dshFDNkT,3eawoid6nwaaqnjzba4xtrlfy89v0t,3oe22wjigm10olxsekt91v65j1iquk,dshFDNkT,2020-0188,2020-05-21,10:15:41,10:43:24,NA,incomplete,204,color,1,right,Red_Plus_Stripes_3.jpg,Green_Plus_Dots_1.jpg,Red_Star_Grid_2.jpg,right,640.9599999897182,true,low,false
dshFDNkT,3eawoid6nwaaqnjzba4xtrlfy89v0t,3oe22wjigm10olxsekt91v65j1iquk,dshFDNkT,2020-0188,2020-05-21,10:15:41,10:43:24,NA,incomplete,205,color,1,left,Purple_Plus_Dots_1.jpg,Purple_Circle_Grid_2.jpg,Green_Plus_Stripes_3.jpg,left,455.05500002764165,true,low,false
dshFDNkT,3eawoid6nwaaqnjzba4xtrlfy89v0t,3oe22wjigm10olxsekt91v65j1iquk,dshFDNkT,2020-0188,2020-05-21,10:15:41,10:43:24,NA,incomplete,206,color,1,right,Blue_Triangle_Chess_3.jpg,Red_Triangle_Dots_4.jpg,Blue_Circle_Stripes_2.jpg,right,377.669999958016,true,low,false
dshFDNkT,3eawoid6nwaaqnjzba4xtrlfy89v0t,3oe22wjigm10olxsekt91v65j1iquk,dshFDNkT,2020-0188,2020-05-21,10:15:41,10:43:24,NA,incomplete,207,color,0,left,Purple_Star_Grid_1.jpg,Purple_Plus_Chess_4.jpg,Green_Star_Dots_2.jpg,left,383.0749999615364,true,low,false
dshFDNkT,3eawoid6nwaaqnjzba4xtrlfy89v0t,3oe22wjigm10olxsekt91v65j1iquk,dshFDNkT,2020-0188,2020-05-21,10:15:41,10:43:24,NA,incomplete,208,color,1,right,Green_Plus_Stripes_1.jpg,Blue_Plus_Chess_2.jpg,Green_Star_Grid_4.jpg,right,391.3450000109151,true,low,false
dshFDNkT,3eawoid6nwaaqnjzba4xtrlfy89v0t,3oe22wjigm10olxsekt91v65j1iquk,dshFDNkT,2020-0188,2020-05-21,10:15:41,10:43:24,NA,incomplete,209,color,1,right,Blue_Triangle_Grid_3.jpg,Purple_Triangle_Dots_2.jpg,Blue_Star_Stripes_4.jpg,right,489.4549999735318,true,low,false
dshFDNkT,3eawoid6nwaaqnjzba4xtrlfy89v0t,3oe22wjigm10olxsekt91v65j1iquk,dshFDNkT,2020-0188,2020-05-21,10:15:41,10:43:24,NA,incomplete,210,color,0,right,Red_Star_Chess_2.jpg,Blue_Star_Grid_1.jpg,Red_Triangle_Stripes_4.jpg,right,597.4649999989197,true,low,false
dshFDNkT,3eawoid6nwaaqnjzba4xtrlfy89v0t,3oe22wjigm10olxsekt91v65j1iquk,dshFDNkT,2020-0188,2020-05-21,10:15:41,10:43:24,NA,incomplete,211,color,1,left,Red_Triangle_Stripes_1.jpg,Red_Circle_Chess_3.jpg,Blue_Triangle_Grid_4.jpg,left,415.4850000049919,true,low,false
dshFDNkT,3eawoid6nwaaqnjzba4xtrlfy89v0t,3oe22wjigm10olxsekt91v65j1iquk,dshFDNkT,2020-0188,2020-05-21,10:15:41,10:43:24,NA,incomplete,212,color,0,right,Purple_Triangle_Grid_1.jpg,Red_Triangle_Dots_3.jpg,Purple_Circle_Chess_2.jpg,left,400.3650000086054,false,low,false
dshFDNkT,3eawoid6nwaaqnjzba4xtrlfy89v0t,3oe22wjigm10olxsekt91v65j1iquk,dshFDNkT,2020-0188,2020-05-21,10:15:41,10:43:24,NA,incomplete,213,color,1,left,Blue_Plus_Grid_4.jpg,Blue_Star_Stripes_3.jpg,Green_Plus_Dots_1.jpg,left,688.8799999724142,true,low,false
dshFDNkT,3eawoid6nwaaqnjzba4xtrlfy89v0t,3oe22wjigm10olxsekt91v65j1iquk,dshFDNkT,2020-0188,2020-05-21,10:15:41,10:43:24,NA,incomplete,214,color,1,left,Blue_Triangle_Stripes_3.jpg,Blue_Star_Chess_4.jpg,Red_Triangle_Dots_2.jpg,right,970.5199999734759,false,low,false
dshFDNkT,3eawoid6nwaaqnjzba4xtrlfy89v0t,3oe22wjigm10olxsekt91v65j1iquk,dshFDNkT,2020-0188,2020-05-21,10:15:41,10:43:24,NA,incomplete,215,color,1,left,Purple_Star_Stripes_4.jpg,Purple_Circle_Dots_3.jpg,Green_Star_Grid_1.jpg,right,848.085000005085,false,low,false
dshFDNkT,3eawoid6nwaaqnjzba4xtrlfy89v0t,3oe22wjigm10olxsekt91v65j1iquk,dshFDNkT,2020-0188,2020-05-21,10:15:41,10:43:24,NA,incomplete,216,color,0,right,Red_Plus_Grid_4.jpg,Green_Plus_Chess_3.jpg,Red_Triangle_Stripes_2.jpg,right,757.6649999828078,true,low,false
dshFDNkT,3eawoid6nwaaqnjzba4xtrlfy89v0t,3oe22wjigm10olxsekt91v65j1iquk,dshFDNkT,2020-0188,2020-05-21,10:15:41,10:43:24,NA,incomplete,217,color,1,left,Green_Triangle_Stripes_1.jpg,Green_Plus_Chess_3.jpg,Red_Triangle_Dots_2.jpg,left,419.3100000265986,true,low,false
dshFDNkT,3eawoid6nwaaqnjzba4xtrlfy89v0t,3oe22wjigm10olxsekt91v65j1iquk,dshFDNkT,2020-0188,2020-05-21,10:15:41,10:43:24,NA,incomplete,218,color,1,right,Red_Circle_Stripes_3.jpg,Purple_Circle_Chess_2.jpg,Red_Star_Grid_1.jpg,left,859.9500000127591,false,low,false
dshFDNkT,3eawoid6nwaaqnjzba4xtrlfy89v0t,3oe22wjigm10olxsekt91v65j1iquk,dshFDNkT,2020-0188,2020-05-21,10:15:41,10:43:24,NA,incomplete,219,color,0,right,Purple_Plus_Grid_1.jpg,Red_Plus_Stripes_4.jpg,Purple_Triangle_Chess_2.jpg,right,644.8450000025332,true,low,false
dshFDNkT,3eawoid6nwaaqnjzba4xtrlfy89v0t,3oe22wjigm10olxsekt91v65j1iquk,dshFDNkT,2020-0188,2020-05-21,10:15:41,10:43:24,NA,incomplete,220,shape,1,right,Blue_Circle_Chess_1.jpg,Blue_Star_Dots_4.jpg,Red_Circle_Stripes_3.jpg,left,478.68000000016764,false,low,false
dshFDNkT,3eawoid6nwaaqnjzba4xtrlfy89v0t,3oe22wjigm10olxsekt91v65j1iquk,dshFDNkT,2020-0188,2020-05-21,10:15:41,10:43:24,NA,incomplete,221,shape,1,right,Green_Star_Grid_4.jpg,Green_Plus_Chess_3.jpg,Purple_Star_Stripes_1.jpg,left,586.9650000240654,false,low,false
dshFDNkT,3eawoid6nwaaqnjzba4xtrlfy89v0t,3oe22wjigm10olxsekt91v65j1iquk,dshFDNkT,2020-0188,2020-05-21,10:15:41,10:43:24,NA,incomplete,222,shape,1,right,Purple_Triangle_Dots_2.jpg,Purple_Circle_Stripes_4.jpg,Red_Triangle_Chess_3.jpg,left,568.375000031665,false,low,false
dshFDNkT,3eawoid6nwaaqnjzba4xtrlfy89v0t,3oe22wjigm10olxsekt91v65j1iquk,dshFDNkT,2020-0188,2020-05-21,10:15:41,10:43:24,NA,incomplete,223,shape,1,left,Purple_Triangle_Grid_1.jpg,Green_Triangle_Dots_3.jpg,Purple_Circle_Stripes_4.jpg,left,710.2099999901839,true,low,false
dshFDNkT,3eawoid6nwaaqnjzba4xtrlfy89v0t,3oe22wjigm10olxsekt91v65j1iquk,dshFDNkT,2020-0188,2020-05-21,10:15:41,10:43:24,NA,incomplete,224,shape,1,left,Blue_Star_Chess_4.jpg,Red_Star_Dots_1.jpg,Blue_Triangle_Stripes_2.jpg,left,749.0000000107102,true,low,false
dshFDNkT,3eawoid6nwaaqnjzba4xtrlfy89v0t,3oe22wjigm10olxsekt91v65j1iquk,dshFDNkT,2020-0188,2020-05-21,10:15:41,10:43:24,NA,incomplete,225,shape,1,right,Red_Star_Grid_2.jpg,Red_Triangle_Dots_4.jpg,Purple_Star_Chess_3.jpg,right,569.8899999842979,true,low,false
dshFDNkT,3eawoid6nwaaqnjzba4xtrlfy89v0t,3oe22wjigm10olxsekt91v65j1iquk,dshFDNkT,2020-0188,2020-05-21,10:15:41,10:43:24,NA,incomplete,226,shape,1,right,Green_Triangle_Stripes_1.jpg,Green_Star_Grid_3.jpg,Blue_Triangle_Dots_2.jpg,left,720.5499999690801,false,low,false
dshFDNkT,3eawoid6nwaaqnjzba4xtrlfy89v0t,3oe22wjigm10olxsekt91v65j1iquk,dshFDNkT,2020-0188,2020-05-21,10:15:41,10:43:24,NA,incomplete,227,shape,1,right,Green_Circle_Stripes_2.jpg,Green_Plus_Grid_1.jpg,Red_Circle_Chess_3.jpg,right,694.9449999956414,true,low,false
dshFDNkT,3eawoid6nwaaqnjzba4xtrlfy89v0t,3oe22wjigm10olxsekt91v65j1iquk,dshFDNkT,2020-0188,2020-05-21,10:15:41,10:43:24,NA,incomplete,228,shape,1,right,Green_Plus_Dots_2.jpg,Green_Triangle_Stripes_4.jpg,Red_Plus_Grid_3.jpg,right,642.4949999782257,true,low,false
dshFDNkT,3eawoid6nwaaqnjzba4xtrlfy89v0t,3oe22wjigm10olxsekt91v65j1iquk,dshFDNkT,2020-0188,2020-05-21,10:15:41,10:43:24,NA,incomplete,229,shape,1,right,Red_Plus_Dots_4.jpg,Red_Star_Chess_1.jpg,Green_Plus_Grid_2.jpg,right,630.3949999855831,true,low,false
dshFDNkT,3eawoid6nwaaqnjzba4xtrlfy89v0t,3oe22wjigm10olxsekt91v65j1iquk,dshFDNkT,2020-0188,2020-05-21,10:15:41,10:43:24,NA,incomplete,230,shape,1,right,Blue_Triangle_Grid_1.jpg,Blue_Circle_Stripes_2.jpg,Green_Triangle_Chess_4.jpg,left,449.8899999889545,false,low,false
dshFDNkT,3eawoid6nwaaqnjzba4xtrlfy89v0t,3oe22wjigm10olxsekt91v65j1iquk,dshFDNkT,2020-0188,2020-05-21,10:15:41,10:43:24,NA,incomplete,231,shape,1,right,Purple_Triangle_Chess_1.jpg,Purple_Star_Dots_3.jpg,Blue_Triangle_Stripes_4.jpg,right,664.4000000087544,true,low,false
dshFDNkT,3eawoid6nwaaqnjzba4xtrlfy89v0t,3oe22wjigm10olxsekt91v65j1iquk,dshFDNkT,2020-0188,2020-05-21,10:15:41,10:43:24,NA,incomplete,232,shape,1,left,Red_Plus_Stripes_1.jpg,Blue_Plus_Chess_4.jpg,Red_Triangle_Grid_2.jpg,left,843.2349999784492,true,low,false
dshFDNkT,3eawoid6nwaaqnjzba4xtrlfy89v0t,3oe22wjigm10olxsekt91v65j1iquk,dshFDNkT,2020-0188,2020-05-21,10:15:41,10:43:24,NA,incomplete,233,shape,1,left,Red_Circle_Stripes_2.jpg,Purple_Circle_Chess_4.jpg,Red_Star_Grid_3.jpg,left,589.3100000103004,true,low,false
dshFDNkT,3eawoid6nwaaqnjzba4xtrlfy89v0t,3oe22wjigm10olxsekt91v65j1iquk,dshFDNkT,2020-0188,2020-05-21,10:15:41,10:43:24,NA,incomplete,234,shape,0,left,Blue_Star_Dots_4.jpg,Red_Star_Chess_3.jpg,Blue_Circle_Grid_2.jpg,left,658.739999984391,true,low,false
dshFDNkT,3eawoid6nwaaqnjzba4xtrlfy89v0t,3oe22wjigm10olxsekt91v65j1iquk,dshFDNkT,2020-0188,2020-05-21,10:15:41,10:43:24,NA,incomplete,235,shape,1,left,Blue_Circle_Stripes_2.jpg,Green_Circle_Chess_4.jpg,Blue_Plus_Grid_1.jpg,left,622.1350000123493,true,low,false
dshFDNkT,3eawoid6nwaaqnjzba4xtrlfy89v0t,3oe22wjigm10olxsekt91v65j1iquk,dshFDNkT,2020-0188,2020-05-21,10:15:41,10:43:24,NA,incomplete,236,shape,1,left,Red_Triangle_Chess_2.jpg,Blue_Triangle_Grid_4.jpg,Red_Star_Dots_3.jpg,left,630.1199999870732,true,low,false
dshFDNkT,3eawoid6nwaaqnjzba4xtrlfy89v0t,3oe22wjigm10olxsekt91v65j1iquk,dshFDNkT,2020-0188,2020-05-21,10:15:41,10:43:24,NA,incomplete,237,shape,1,left,Blue_Plus_Grid_1.jpg,Purple_Plus_Dots_3.jpg,Blue_Circle_Chess_2.jpg,left,662.2050000005402,true,low,false
dshFDNkT,3eawoid6nwaaqnjzba4xtrlfy89v0t,3oe22wjigm10olxsekt91v65j1iquk,dshFDNkT,2020-0188,2020-05-21,10:15:41,10:43:24,NA,incomplete,238,shape,1,left,Blue_Circle_Grid_1.jpg,Red_Circle_Chess_2.jpg,Blue_Triangle_Dots_3.jpg,left,629.2649999959394,true,low,false
dshFDNkT,3eawoid6nwaaqnjzba4xtrlfy89v0t,3oe22wjigm10olxsekt91v65j1iquk,dshFDNkT,2020-0188,2020-05-21,10:15:41,10:43:24,NA,incomplete,239,shape,1,right,Red_Circle_Dots_2.jpg,Red_Triangle_Stripes_1.jpg,Blue_Circle_Grid_4.jpg,right,655.6300000520423,true,low,false
dshFDNkT,3eawoid6nwaaqnjzba4xtrlfy89v0t,3oe22wjigm10olxsekt91v65j1iquk,dshFDNkT,2020-0188,2020-05-21,10:15:41,10:43:24,NA,NA,instruction example,number,NA,NA,Green_Plus_Chess_3.jpg,Red_Circle_Dots_3.jpg,Purple_Star_Chess_4.jpg,NA,NA,NA,NA,undefined
dshFDNkT,3eawoid6nwaaqnjzba4xtrlfy89v0t,3oe22wjigm10olxsekt91v65j1iquk,dshFDNkT,2020-0188,2020-05-21,10:15:41,10:43:24,NA,NA,instruction example,number,NA,NA,Green_Circle_Stripes_2.jpg,Red_Plus_Stripes_1.jpg,Purple_Star_Grid_2.jpg,NA,NA,NA,NA,undefined
dshFDNkT,3eawoid6nwaaqnjzba4xtrlfy89v0t,3oe22wjigm10olxsekt91v65j1iquk,dshFDNkT,2020-0188,2020-05-21,10:15:41,10:43:24,NA,NA,instruction example,number,NA,NA,Purple_Triangle_Dots_2.jpg,Purple_Plus_Chess_3.jpg,Blue_Triangle_Stripes_4.jpg,NA,NA,NA,NA,undefined
dshFDNkT,3eawoid6nwaaqnjzba4xtrlfy89v0t,3oe22wjigm10olxsekt91v65j1iquk,dshFDNkT,2020-0188,2020-05-21,10:15:41,10:43:24,NA,NA,instruction example,number,NA,NA,Blue_Star_Grid_2.jpg,Green_Star_Stripes_3.jpg,Blue_Plus_Dots_1.jpg,NA,NA,NA,NA,undefined
dshFDNkT,3eawoid6nwaaqnjzba4xtrlfy89v0t,3oe22wjigm10olxsekt91v65j1iquk,dshFDNkT,2020-0188,2020-05-21,10:15:41,10:43:24,1646961.6549999919,1664293.8350000186,NA,NA,NA,NA,NA,NA,NA,NA,NA,NA,NA,undefined
