workerId,hitId,assignmentId,subject,studyid,exp_date,exp_start,exp_end,time_start,time_end,trial,type,reward_validity,answer,image_top,image_left,image_right,response,response_time,response_acc,volatility,age,race,gender,ethnicity,color,vision,neuro,practice
JCrwHQzk,3icohx7eofotocxdgkfntnxt5xb0e8,3of2m9aatk1vzht7728km19ck9gzkt,JCrwHQzk,2020-0188,2020-11-18,15:17:53,15:40:59,NA,incomplete,0,shape,1,right,Red_Triangle_Stripes_2.jpg,Blue_Circle_Grid_2.jpg,Purple_Triangle_Dots_1.jpg,left,1207.990000024438,false,NA,NA,NA,NA,NA,NA,NA,NA,true
JCrwHQzk,3icohx7eofotocxdgkfntnxt5xb0e8,3of2m9aatk1vzht7728km19ck9gzkt,JCrwHQzk,2020-0188,2020-11-18,15:17:53,15:40:59,NA,incomplete,1,shape,1,left,Blue_Triangle_Stripes_3.jpg,Purple_Triangle_Grid_1.jpg,Green_Plus_Chess_3.jpg,left,1238.2249999791384,true,NA,NA,NA,NA,NA,NA,NA,NA,true
JCrwHQzk,3icohx7eofotocxdgkfntnxt5xb0e8,3of2m9aatk1vzht7728km19ck9gzkt,JCrwHQzk,2020-0188,2020-11-18,15:17:53,15:40:59,NA,incomplete,2,shape,1,right,Red_Star_Dots_4.jpg,Blue_Triangle_Grid_4.jpg,Green_Star_Stripes_3.jpg,right,1439.979999908246,true,NA,NA,NA,NA,NA,NA,NA,NA,true
JCrwHQzk,3icohx7eofotocxdgkfntnxt5xb0e8,3of2m9aatk1vzht7728km19ck9gzkt,JCrwHQzk,2020-0188,2020-11-18,15:17:53,15:40:59,NA,incomplete,3,shape,1,right,Blue_Circle_Chess_1.jpg,Purple_Plus_Stripes_1.jpg,Red_Circle_Grid_4.jpg,right,950.5799999460578,true,NA,NA,NA,NA,NA,NA,NA,NA,true
JCrwHQzk,3icohx7eofotocxdgkfntnxt5xb0e8,3of2m9aatk1vzht7728km19ck9gzkt,JCrwHQzk,2020-0188,2020-11-18,15:17:53,15:40:59,NA,incomplete,4,shape,1,right,Red_Triangle_Dots_3.jpg,Green_Star_Chess_3.jpg,Purple_Triangle_Stripes_2.jpg,right,812.0950000593439,true,NA,NA,NA,NA,NA,NA,NA,NA,true
JCrwHQzk,3icohx7eofotocxdgkfntnxt5xb0e8,3of2m9aatk1vzht7728km19ck9gzkt,JCrwHQzk,2020-0188,2020-11-18,15:17:53,15:40:59,NA,incomplete,5,shape,1,right,Purple_Triangle_Dots_3.jpg,Blue_Plus_Chess_3.jpg,Red_Triangle_Grid_2.jpg,right,886.8000000948086,true,NA,NA,NA,NA,NA,NA,NA,NA,true
JCrwHQzk,3icohx7eofotocxdgkfntnxt5xb0e8,3of2m9aatk1vzht7728km19ck9gzkt,JCrwHQzk,2020-0188,2020-11-18,15:17:53,15:40:59,NA,incomplete,6,shape,0,left,Blue_Star_Stripes_3.jpg,Red_Star_Chess_4.jpg,Green_Plus_Dots_3.jpg,left,1045.2450000448152,true,NA,NA,NA,NA,NA,NA,NA,NA,true
JCrwHQzk,3icohx7eofotocxdgkfntnxt5xb0e8,3of2m9aatk1vzht7728km19ck9gzkt,JCrwHQzk,2020-0188,2020-11-18,15:17:53,15:40:59,NA,incomplete,7,shape,1,right,Purple_Circle_Chess_2.jpg,Blue_Triangle_Stripes_2.jpg,Green_Circle_Grid_3.jpg,none,0,false,NA,NA,NA,NA,NA,NA,NA,NA,true
JCrwHQzk,3icohx7eofotocxdgkfntnxt5xb0e8,3of2m9aatk1vzht7728km19ck9gzkt,JCrwHQzk,2020-0188,2020-11-18,15:17:53,15:40:59,NA,incomplete,8,shape,1,left,Purple_Triangle_Grid_4.jpg,Red_Triangle_Chess_1.jpg,Blue_Circle_Dots_4.jpg,left,1306.6250000847504,true,NA,NA,NA,NA,NA,NA,NA,NA,true
JCrwHQzk,3icohx7eofotocxdgkfntnxt5xb0e8,3of2m9aatk1vzht7728km19ck9gzkt,JCrwHQzk,2020-0188,2020-11-18,15:17:53,15:40:59,NA,incomplete,9,shape,1,right,Purple_Star_Chess_1.jpg,Red_Circle_Dots_1.jpg,Blue_Star_Grid_2.jpg,right,1286.9799999753013,true,NA,NA,NA,NA,NA,NA,NA,NA,true
JCrwHQzk,3icohx7eofotocxdgkfntnxt5xb0e8,3of2m9aatk1vzht7728km19ck9gzkt,JCrwHQzk,2020-0188,2020-11-18,15:17:53,15:40:59,NA,incomplete,10,shape,0,left,Red_Plus_Chess_3.jpg,Blue_Plus_Stripes_1.jpg,Green_Star_Dots_3.jpg,left,1139.4399999408051,true,NA,NA,NA,NA,NA,NA,NA,NA,true
JCrwHQzk,3icohx7eofotocxdgkfntnxt5xb0e8,3of2m9aatk1vzht7728km19ck9gzkt,JCrwHQzk,2020-0188,2020-11-18,15:17:53,15:40:59,NA,incomplete,11,shape,0,left,Blue_Star_Grid_3.jpg,Red_Star_Chess_1.jpg,Green_Plus_Stripes_3.jpg,left,1141.6149999713525,true,NA,NA,NA,NA,NA,NA,NA,NA,true
JCrwHQzk,3icohx7eofotocxdgkfntnxt5xb0e8,3of2m9aatk1vzht7728km19ck9gzkt,JCrwHQzk,2020-0188,2020-11-18,15:17:53,15:40:59,NA,incomplete,12,shape,1,left,Green_Triangle_Dots_4.jpg,Red_Triangle_Stripes_1.jpg,Purple_Circle_Grid_4.jpg,none,0,false,NA,NA,NA,NA,NA,NA,NA,NA,true
JCrwHQzk,3icohx7eofotocxdgkfntnxt5xb0e8,3of2m9aatk1vzht7728km19ck9gzkt,JCrwHQzk,2020-0188,2020-11-18,15:17:53,15:40:59,NA,incomplete,13,shape,0,left,Green_Triangle_Chess_4.jpg,Purple_Triangle_Stripes_2.jpg,Red_Star_Dots_4.jpg,left,1567.134999902919,true,NA,NA,NA,NA,NA,NA,NA,NA,true
JCrwHQzk,3icohx7eofotocxdgkfntnxt5xb0e8,3of2m9aatk1vzht7728km19ck9gzkt,JCrwHQzk,2020-0188,2020-11-18,15:17:53,15:40:59,NA,incomplete,14,shape,1,left,Blue_Plus_Stripes_3.jpg,Purple_Plus_Chess_2.jpg,Green_Triangle_Dots_3.jpg,left,1440.610000048764,true,NA,NA,NA,NA,NA,NA,NA,NA,true
JCrwHQzk,3icohx7eofotocxdgkfntnxt5xb0e8,3of2m9aatk1vzht7728km19ck9gzkt,JCrwHQzk,2020-0188,2020-11-18,15:17:53,15:40:59,NA,incomplete,15,shape,0,left,Purple_Star_Stripes_4.jpg,Green_Star_Dots_2.jpg,Blue_Circle_Chess_4.jpg,left,1382.6799999224022,true,NA,NA,NA,NA,NA,NA,NA,NA,true
JCrwHQzk,3icohx7eofotocxdgkfntnxt5xb0e8,3of2m9aatk1vzht7728km19ck9gzkt,JCrwHQzk,2020-0188,2020-11-18,15:17:53,15:40:59,NA,incomplete,16,shape,1,right,Green_Circle_Dots_1.jpg,Blue_Star_Stripes_1.jpg,Red_Circle_Chess_3.jpg,right,784.8999999696389,true,NA,NA,NA,NA,NA,NA,NA,NA,true
JCrwHQzk,3icohx7eofotocxdgkfntnxt5xb0e8,3of2m9aatk1vzht7728km19ck9gzkt,JCrwHQzk,2020-0188,2020-11-18,15:17:53,15:40:59,NA,incomplete,17,shape,1,left,Green_Triangle_Grid_2.jpg,Purple_Triangle_Dots_3.jpg,Blue_Plus_Chess_2.jpg,left,1040.5949999112636,true,NA,NA,NA,NA,NA,NA,NA,NA,true
JCrwHQzk,3icohx7eofotocxdgkfntnxt5xb0e8,3of2m9aatk1vzht7728km19ck9gzkt,JCrwHQzk,2020-0188,2020-11-18,15:17:53,15:40:59,NA,incomplete,18,shape,1,left,Red_Plus_Chess_4.jpg,Blue_Plus_Dots_2.jpg,Purple_Star_Grid_4.jpg,left,973.7899999599904,true,NA,NA,NA,NA,NA,NA,NA,NA,true
JCrwHQzk,3icohx7eofotocxdgkfntnxt5xb0e8,3of2m9aatk1vzht7728km19ck9gzkt,JCrwHQzk,2020-0188,2020-11-18,15:17:53,15:40:59,NA,incomplete,19,shape,0,right,Green_Triangle_Chess_4.jpg,Purple_Circle_Grid_4.jpg,Red_Triangle_Dots_1.jpg,right,763.5849999496713,true,NA,NA,NA,NA,NA,NA,NA,NA,true
JCrwHQzk,3icohx7eofotocxdgkfntnxt5xb0e8,3of2m9aatk1vzht7728km19ck9gzkt,JCrwHQzk,2020-0188,2020-11-18,15:17:53,15:40:59,NA,incomplete,20,number,1,right,Red_Circle_Dots_1.jpg,Blue_Circle_Stripes_4.jpg,Purple_Plus_Grid_1.jpg,right,1009.5450000371784,true,NA,NA,NA,NA,NA,NA,NA,NA,true
JCrwHQzk,3icohx7eofotocxdgkfntnxt5xb0e8,3of2m9aatk1vzht7728km19ck9gzkt,JCrwHQzk,2020-0188,2020-11-18,15:17:53,15:40:59,NA,incomplete,21,number,1,right,Purple_Triangle_Stripes_3.jpg,Green_Triangle_Dots_2.jpg,Red_Plus_Chess_3.jpg,right,1866.6049999883398,true,NA,NA,NA,NA,NA,NA,NA,NA,true
JCrwHQzk,3icohx7eofotocxdgkfntnxt5xb0e8,3of2m9aatk1vzht7728km19ck9gzkt,JCrwHQzk,2020-0188,2020-11-18,15:17:53,15:40:59,NA,incomplete,22,number,1,left,Green_Triangle_Stripes_3.jpg,Blue_Circle_Grid_3.jpg,Red_Triangle_Dots_4.jpg,left,1350.2449999796227,true,NA,NA,NA,NA,NA,NA,NA,NA,true
JCrwHQzk,3icohx7eofotocxdgkfntnxt5xb0e8,3of2m9aatk1vzht7728km19ck9gzkt,JCrwHQzk,2020-0188,2020-11-18,15:17:53,15:40:59,NA,incomplete,23,number,1,left,Blue_Star_Grid_1.jpg,Green_Triangle_Dots_1.jpg,Red_Star_Stripes_3.jpg,left,1401.575000025332,true,NA,NA,NA,NA,NA,NA,NA,NA,true
JCrwHQzk,3icohx7eofotocxdgkfntnxt5xb0e8,3of2m9aatk1vzht7728km19ck9gzkt,JCrwHQzk,2020-0188,2020-11-18,15:17:53,15:40:59,NA,incomplete,24,number,1,left,Purple_Circle_Chess_2.jpg,Blue_Plus_Dots_2.jpg,Green_Circle_Stripes_1.jpg,left,1346.155000035651,true,NA,NA,NA,NA,NA,NA,NA,NA,true
JCrwHQzk,3icohx7eofotocxdgkfntnxt5xb0e8,3of2m9aatk1vzht7728km19ck9gzkt,JCrwHQzk,2020-0188,2020-11-18,15:17:53,15:40:59,NA,incomplete,25,number,1,left,Blue_Star_Chess_2.jpg,Purple_Plus_Dots_2.jpg,Green_Star_Stripes_4.jpg,left,934.8699999973178,true,NA,NA,NA,NA,NA,NA,NA,NA,true
JCrwHQzk,3icohx7eofotocxdgkfntnxt5xb0e8,3of2m9aatk1vzht7728km19ck9gzkt,JCrwHQzk,2020-0188,2020-11-18,15:17:53,15:40:59,NA,incomplete,26,number,1,right,Red_Triangle_Dots_4.jpg,Blue_Triangle_Stripes_3.jpg,Purple_Star_Chess_4.jpg,right,885.0200000451878,true,NA,NA,NA,NA,NA,NA,NA,NA,true
JCrwHQzk,3icohx7eofotocxdgkfntnxt5xb0e8,3of2m9aatk1vzht7728km19ck9gzkt,JCrwHQzk,2020-0188,2020-11-18,15:17:53,15:40:59,NA,incomplete,27,number,1,right,Blue_Circle_Stripes_3.jpg,Purple_Circle_Grid_2.jpg,Red_Star_Chess_3.jpg,right,914.435000042431,true,NA,NA,NA,NA,NA,NA,NA,NA,true
JCrwHQzk,3icohx7eofotocxdgkfntnxt5xb0e8,3of2m9aatk1vzht7728km19ck9gzkt,JCrwHQzk,2020-0188,2020-11-18,15:17:53,15:40:59,NA,incomplete,28,number,1,right,Blue_Triangle_Dots_2.jpg,Purple_Triangle_Stripes_3.jpg,Green_Star_Chess_2.jpg,right,858.2900000037625,true,NA,NA,NA,NA,NA,NA,NA,NA,true
JCrwHQzk,3icohx7eofotocxdgkfntnxt5xb0e8,3of2m9aatk1vzht7728km19ck9gzkt,JCrwHQzk,2020-0188,2020-11-18,15:17:53,15:40:59,NA,incomplete,29,number,1,right,Purple_Star_Dots_4.jpg,Blue_Star_Grid_3.jpg,Red_Plus_Stripes_4.jpg,right,845.8699999609962,true,NA,NA,NA,NA,NA,NA,NA,NA,true
JCrwHQzk,3icohx7eofotocxdgkfntnxt5xb0e8,3of2m9aatk1vzht7728km19ck9gzkt,JCrwHQzk,2020-0188,2020-11-18,15:17:53,15:40:59,NA,incomplete,30,number,1,right,Red_Star_Dots_1.jpg,Blue_Star_Stripes_2.jpg,Purple_Circle_Grid_1.jpg,right,692.1450000954792,true,NA,NA,NA,NA,NA,NA,NA,NA,true
JCrwHQzk,3icohx7eofotocxdgkfntnxt5xb0e8,3of2m9aatk1vzht7728km19ck9gzkt,JCrwHQzk,2020-0188,2020-11-18,15:17:53,15:40:59,NA,incomplete,31,number,1,left,Green_Plus_Grid_4.jpg,Blue_Circle_Dots_4.jpg,Red_Plus_Stripes_1.jpg,left,1154.1849999921396,true,NA,NA,NA,NA,NA,NA,NA,NA,true
JCrwHQzk,3icohx7eofotocxdgkfntnxt5xb0e8,3of2m9aatk1vzht7728km19ck9gzkt,JCrwHQzk,2020-0188,2020-11-18,15:17:53,15:40:59,NA,incomplete,32,number,1,right,Purple_Circle_Dots_1.jpg,Green_Circle_Chess_2.jpg,Red_Plus_Grid_1.jpg,right,749.7849999926984,true,NA,NA,NA,NA,NA,NA,NA,NA,true
JCrwHQzk,3icohx7eofotocxdgkfntnxt5xb0e8,3of2m9aatk1vzht7728km19ck9gzkt,JCrwHQzk,2020-0188,2020-11-18,15:17:53,15:40:59,NA,incomplete,33,number,1,left,Purple_Triangle_Grid_4.jpg,Blue_Star_Chess_4.jpg,Red_Triangle_Stripes_2.jpg,left,673.94999996759,true,NA,NA,NA,NA,NA,NA,NA,NA,true
JCrwHQzk,3icohx7eofotocxdgkfntnxt5xb0e8,3of2m9aatk1vzht7728km19ck9gzkt,JCrwHQzk,2020-0188,2020-11-18,15:17:53,15:40:59,NA,incomplete,34,number,1,left,Green_Circle_Stripes_1.jpg,Blue_Star_Dots_1.jpg,Purple_Circle_Chess_2.jpg,left,916.0149999661371,true,NA,NA,NA,NA,NA,NA,NA,NA,true
JCrwHQzk,3icohx7eofotocxdgkfntnxt5xb0e8,3of2m9aatk1vzht7728km19ck9gzkt,JCrwHQzk,2020-0188,2020-11-18,15:17:53,15:40:59,NA,incomplete,35,number,1,left,Green_Plus_Chess_3.jpg,Red_Star_Stripes_3.jpg,Purple_Plus_Dots_1.jpg,left,620.5349999945611,true,NA,NA,NA,NA,NA,NA,NA,NA,true
JCrwHQzk,3icohx7eofotocxdgkfntnxt5xb0e8,3of2m9aatk1vzht7728km19ck9gzkt,JCrwHQzk,2020-0188,2020-11-18,15:17:53,15:40:59,NA,incomplete,36,number,0,right,Red_Triangle_Dots_4.jpg,Green_Triangle_Grid_2.jpg,Purple_Plus_Stripes_4.jpg,right,757.5250000227243,true,NA,NA,NA,NA,NA,NA,NA,NA,true
JCrwHQzk,3icohx7eofotocxdgkfntnxt5xb0e8,3of2m9aatk1vzht7728km19ck9gzkt,JCrwHQzk,2020-0188,2020-11-18,15:17:53,15:40:59,NA,incomplete,37,number,1,right,Green_Plus_Stripes_1.jpg,Red_Plus_Dots_2.jpg,Purple_Star_Chess_1.jpg,right,1173.3600000152364,true,NA,NA,NA,NA,NA,NA,NA,NA,true
JCrwHQzk,3icohx7eofotocxdgkfntnxt5xb0e8,3of2m9aatk1vzht7728km19ck9gzkt,JCrwHQzk,2020-0188,2020-11-18,15:17:53,15:40:59,NA,incomplete,38,number,1,left,Purple_Plus_Grid_2.jpg,Blue_Circle_Chess_2.jpg,Red_Plus_Dots_3.jpg,left,878.2099999953061,true,NA,NA,NA,NA,NA,NA,NA,NA,true
JCrwHQzk,3icohx7eofotocxdgkfntnxt5xb0e8,3of2m9aatk1vzht7728km19ck9gzkt,JCrwHQzk,2020-0188,2020-11-18,15:17:53,15:40:59,NA,incomplete,39,number,0,right,Purple_Star_Chess_1.jpg,Blue_Star_Dots_2.jpg,Red_Plus_Stripes_1.jpg,right,628.9899999974295,true,NA,NA,NA,NA,NA,NA,NA,NA,true
JCrwHQzk,3icohx7eofotocxdgkfntnxt5xb0e8,3of2m9aatk1vzht7728km19ck9gzkt,JCrwHQzk,2020-0188,2020-11-18,15:17:53,15:40:59,NA,incomplete,0,shape,0,left,Purple_Plus_Chess_3.jpg,Green_Plus_Stripes_4.jpg,Blue_Circle_Grid_3.jpg,right,1633.9050000533462,false,low,NA,NA,NA,NA,NA,NA,NA,false
JCrwHQzk,3icohx7eofotocxdgkfntnxt5xb0e8,3of2m9aatk1vzht7728km19ck9gzkt,JCrwHQzk,2020-0188,2020-11-18,15:17:53,15:40:59,NA,incomplete,1,shape,1,left,Blue_Plus_Stripes_3.jpg,Green_Plus_Dots_2.jpg,Purple_Triangle_Grid_3.jpg,right,1297.8199999779463,false,low,NA,NA,NA,NA,NA,NA,NA,false
JCrwHQzk,3icohx7eofotocxdgkfntnxt5xb0e8,3of2m9aatk1vzht7728km19ck9gzkt,JCrwHQzk,2020-0188,2020-11-18,15:17:53,15:40:59,NA,incomplete,2,shape,1,right,Blue_Plus_Dots_3.jpg,Purple_Star_Grid_3.jpg,Green_Plus_Stripes_4.jpg,left,744.804999907501,false,low,NA,NA,NA,NA,NA,NA,NA,false
JCrwHQzk,3icohx7eofotocxdgkfntnxt5xb0e8,3of2m9aatk1vzht7728km19ck9gzkt,JCrwHQzk,2020-0188,2020-11-18,15:17:53,15:40:59,NA,incomplete,3,shape,1,right,Blue_Circle_Stripes_1.jpg,Purple_Star_Chess_1.jpg,Red_Circle_Grid_2.jpg,left,839.0800000634044,false,low,NA,NA,NA,NA,NA,NA,NA,false
JCrwHQzk,3icohx7eofotocxdgkfntnxt5xb0e8,3of2m9aatk1vzht7728km19ck9gzkt,JCrwHQzk,2020-0188,2020-11-18,15:17:53,15:40:59,NA,incomplete,4,shape,1,left,Purple_Plus_Stripes_3.jpg,Blue_Plus_Dots_1.jpg,Red_Circle_Grid_3.jpg,right,581.899999990128,false,low,NA,NA,NA,NA,NA,NA,NA,false
JCrwHQzk,3icohx7eofotocxdgkfntnxt5xb0e8,3of2m9aatk1vzht7728km19ck9gzkt,JCrwHQzk,2020-0188,2020-11-18,15:17:53,15:40:59,NA,incomplete,5,shape,1,left,Green_Triangle_Dots_4.jpg,Purple_Triangle_Stripes_1.jpg,Red_Circle_Chess_4.jpg,left,813.7250000145286,true,low,NA,NA,NA,NA,NA,NA,NA,false
JCrwHQzk,3icohx7eofotocxdgkfntnxt5xb0e8,3of2m9aatk1vzht7728km19ck9gzkt,JCrwHQzk,2020-0188,2020-11-18,15:17:53,15:40:59,NA,incomplete,6,shape,1,left,Green_Triangle_Grid_2.jpg,Blue_Triangle_Stripes_3.jpg,Purple_Plus_Chess_2.jpg,right,636.6500000003725,false,low,NA,NA,NA,NA,NA,NA,NA,false
JCrwHQzk,3icohx7eofotocxdgkfntnxt5xb0e8,3of2m9aatk1vzht7728km19ck9gzkt,JCrwHQzk,2020-0188,2020-11-18,15:17:53,15:40:59,NA,incomplete,7,shape,1,left,Blue_Plus_Stripes_2.jpg,Green_Plus_Chess_1.jpg,Purple_Star_Dots_2.jpg,left,832.5000000186265,true,low,NA,NA,NA,NA,NA,NA,NA,false
JCrwHQzk,3icohx7eofotocxdgkfntnxt5xb0e8,3of2m9aatk1vzht7728km19ck9gzkt,JCrwHQzk,2020-0188,2020-11-18,15:17:53,15:40:59,NA,incomplete,8,shape,1,left,Red_Triangle_Dots_4.jpg,Blue_Triangle_Grid_3.jpg,Purple_Circle_Chess_4.jpg,right,785.6499999761581,false,low,NA,NA,NA,NA,NA,NA,NA,false
JCrwHQzk,3icohx7eofotocxdgkfntnxt5xb0e8,3of2m9aatk1vzht7728km19ck9gzkt,JCrwHQzk,2020-0188,2020-11-18,15:17:53,15:40:59,NA,incomplete,9,shape,0,right,Blue_Star_Stripes_2.jpg,Purple_Plus_Chess_2.jpg,Red_Star_Dots_3.jpg,left,1239.6949999965727,false,low,NA,NA,NA,NA,NA,NA,NA,false
JCrwHQzk,3icohx7eofotocxdgkfntnxt5xb0e8,3of2m9aatk1vzht7728km19ck9gzkt,JCrwHQzk,2020-0188,2020-11-18,15:17:53,15:40:59,NA,incomplete,10,shape,1,left,Green_Triangle_Chess_3.jpg,Blue_Triangle_Grid_4.jpg,Red_Plus_Dots_3.jpg,right,1020.2350000618026,false,low,NA,NA,NA,NA,NA,NA,NA,false
JCrwHQzk,3icohx7eofotocxdgkfntnxt5xb0e8,3of2m9aatk1vzht7728km19ck9gzkt,JCrwHQzk,2020-0188,2020-11-18,15:17:53,15:40:59,NA,incomplete,11,shape,1,left,Green_Star_Stripes_1.jpg,Red_Star_Grid_3.jpg,Blue_Plus_Dots_1.jpg,right,907.4600000167266,false,low,NA,NA,NA,NA,NA,NA,NA,false
JCrwHQzk,3icohx7eofotocxdgkfntnxt5xb0e8,3of2m9aatk1vzht7728km19ck9gzkt,JCrwHQzk,2020-0188,2020-11-18,15:17:53,15:40:59,NA,incomplete,12,shape,0,right,Red_Star_Stripes_2.jpg,Blue_Plus_Grid_2.jpg,Green_Star_Chess_3.jpg,left,961.0699999611825,false,low,NA,NA,NA,NA,NA,NA,NA,false
JCrwHQzk,3icohx7eofotocxdgkfntnxt5xb0e8,3of2m9aatk1vzht7728km19ck9gzkt,JCrwHQzk,2020-0188,2020-11-18,15:17:53,15:40:59,NA,incomplete,13,shape,1,right,Green_Plus_Stripes_4.jpg,Red_Star_Grid_4.jpg,Blue_Plus_Chess_3.jpg,left,748.5449999803677,false,low,NA,NA,NA,NA,NA,NA,NA,false
JCrwHQzk,3icohx7eofotocxdgkfntnxt5xb0e8,3of2m9aatk1vzht7728km19ck9gzkt,JCrwHQzk,2020-0188,2020-11-18,15:17:53,15:40:59,NA,incomplete,14,shape,1,left,Green_Triangle_Grid_3.jpg,Blue_Triangle_Chess_2.jpg,Purple_Plus_Dots_3.jpg,right,243.75500006135553,false,low,NA,NA,NA,NA,NA,NA,NA,false
JCrwHQzk,3icohx7eofotocxdgkfntnxt5xb0e8,3of2m9aatk1vzht7728km19ck9gzkt,JCrwHQzk,2020-0188,2020-11-18,15:17:53,15:40:59,NA,incomplete,15,shape,1,right,Red_Triangle_Grid_3.jpg,Blue_Circle_Stripes_3.jpg,Purple_Triangle_Chess_4.jpg,left,545.6349999876693,false,low,NA,NA,NA,NA,NA,NA,NA,false
JCrwHQzk,3icohx7eofotocxdgkfntnxt5xb0e8,3of2m9aatk1vzht7728km19ck9gzkt,JCrwHQzk,2020-0188,2020-11-18,15:17:53,15:40:59,NA,incomplete,16,shape,1,left,Red_Circle_Stripes_4.jpg,Purple_Circle_Dots_3.jpg,Blue_Plus_Chess_4.jpg,left,399.11999995820224,true,low,NA,NA,NA,NA,NA,NA,NA,false
JCrwHQzk,3icohx7eofotocxdgkfntnxt5xb0e8,3of2m9aatk1vzht7728km19ck9gzkt,JCrwHQzk,2020-0188,2020-11-18,15:17:53,15:40:59,NA,incomplete,17,shape,1,left,Green_Circle_Grid_1.jpg,Red_Circle_Stripes_4.jpg,Purple_Star_Dots_1.jpg,right,273.26499996706843,false,low,NA,NA,NA,NA,NA,NA,NA,false
JCrwHQzk,3icohx7eofotocxdgkfntnxt5xb0e8,3of2m9aatk1vzht7728km19ck9gzkt,JCrwHQzk,2020-0188,2020-11-18,15:17:53,15:40:59,NA,incomplete,18,shape,1,right,Green_Plus_Stripes_1.jpg,Purple_Circle_Dots_1.jpg,Blue_Plus_Grid_2.jpg,left,425.5199999315664,false,low,NA,NA,NA,NA,NA,NA,NA,false
JCrwHQzk,3icohx7eofotocxdgkfntnxt5xb0e8,3of2m9aatk1vzht7728km19ck9gzkt,JCrwHQzk,2020-0188,2020-11-18,15:17:53,15:40:59,NA,incomplete,19,shape,1,right,Purple_Triangle_Dots_4.jpg,Green_Plus_Grid_4.jpg,Red_Triangle_Stripes_1.jpg,left,508.3849999355152,false,low,NA,NA,NA,NA,NA,NA,NA,false
JCrwHQzk,3icohx7eofotocxdgkfntnxt5xb0e8,3of2m9aatk1vzht7728km19ck9gzkt,JCrwHQzk,2020-0188,2020-11-18,15:17:53,15:40:59,NA,incomplete,20,shape,1,right,Purple_Triangle_Grid_3.jpg,Blue_Plus_Chess_3.jpg,Red_Triangle_Stripes_4.jpg,left,1608.0249999649823,false,low,NA,NA,NA,NA,NA,NA,NA,false
JCrwHQzk,3icohx7eofotocxdgkfntnxt5xb0e8,3of2m9aatk1vzht7728km19ck9gzkt,JCrwHQzk,2020-0188,2020-11-18,15:17:53,15:40:59,NA,incomplete,21,shape,1,right,Blue_Circle_Stripes_1.jpg,Green_Triangle_Grid_1.jpg,Red_Circle_Dots_2.jpg,right,287.0849999599159,true,low,NA,NA,NA,NA,NA,NA,NA,false
JCrwHQzk,3icohx7eofotocxdgkfntnxt5xb0e8,3of2m9aatk1vzht7728km19ck9gzkt,JCrwHQzk,2020-0188,2020-11-18,15:17:53,15:40:59,NA,incomplete,22,shape,1,left,Blue_Star_Chess_3.jpg,Red_Star_Grid_4.jpg,Purple_Triangle_Dots_3.jpg,right,62.27500003296882,false,low,NA,NA,NA,NA,NA,NA,NA,false
JCrwHQzk,3icohx7eofotocxdgkfntnxt5xb0e8,3of2m9aatk1vzht7728km19ck9gzkt,JCrwHQzk,2020-0188,2020-11-18,15:17:53,15:40:59,NA,incomplete,23,shape,0,right,Red_Triangle_Grid_4.jpg,Purple_Star_Chess_4.jpg,Blue_Triangle_Stripes_1.jpg,left,100.8849999634549,false,low,NA,NA,NA,NA,NA,NA,NA,false
JCrwHQzk,3icohx7eofotocxdgkfntnxt5xb0e8,3of2m9aatk1vzht7728km19ck9gzkt,JCrwHQzk,2020-0188,2020-11-18,15:17:53,15:40:59,NA,incomplete,24,shape,1,left,Red_Circle_Chess_1.jpg,Blue_Circle_Grid_4.jpg,Purple_Triangle_Stripes_1.jpg,right,691.56499998644,false,low,NA,NA,NA,NA,NA,NA,NA,false
JCrwHQzk,3icohx7eofotocxdgkfntnxt5xb0e8,3of2m9aatk1vzht7728km19ck9gzkt,JCrwHQzk,2020-0188,2020-11-18,15:17:53,15:40:59,NA,incomplete,25,shape,1,left,Green_Plus_Stripes_4.jpg,Purple_Plus_Grid_2.jpg,Blue_Triangle_Dots_4.jpg,left,749.6199999004602,true,low,NA,NA,NA,NA,NA,NA,NA,false
JCrwHQzk,3icohx7eofotocxdgkfntnxt5xb0e8,3of2m9aatk1vzht7728km19ck9gzkt,JCrwHQzk,2020-0188,2020-11-18,15:17:53,15:40:59,NA,incomplete,26,shape,1,right,Blue_Triangle_Chess_2.jpg,Green_Plus_Dots_2.jpg,Purple_Triangle_Stripes_3.jpg,right,735.8000000240281,true,low,NA,NA,NA,NA,NA,NA,NA,false
JCrwHQzk,3icohx7eofotocxdgkfntnxt5xb0e8,3of2m9aatk1vzht7728km19ck9gzkt,JCrwHQzk,2020-0188,2020-11-18,15:17:53,15:40:59,NA,incomplete,27,shape,1,right,Purple_Circle_Grid_2.jpg,Red_Star_Stripes_2.jpg,Green_Circle_Dots_3.jpg,left,875.7949999999255,false,low,NA,NA,NA,NA,NA,NA,NA,false
JCrwHQzk,3icohx7eofotocxdgkfntnxt5xb0e8,3of2m9aatk1vzht7728km19ck9gzkt,JCrwHQzk,2020-0188,2020-11-18,15:17:53,15:40:59,NA,incomplete,28,shape,1,left,Blue_Triangle_Chess_1.jpg,Purple_Triangle_Stripes_3.jpg,Green_Plus_Grid_1.jpg,right,784.1050000861287,false,low,NA,NA,NA,NA,NA,NA,NA,false
JCrwHQzk,3icohx7eofotocxdgkfntnxt5xb0e8,3of2m9aatk1vzht7728km19ck9gzkt,JCrwHQzk,2020-0188,2020-11-18,15:17:53,15:40:59,NA,incomplete,29,shape,1,left,Blue_Star_Dots_4.jpg,Red_Star_Chess_2.jpg,Green_Plus_Grid_4.jpg,right,670.4400000162423,false,low,NA,NA,NA,NA,NA,NA,NA,false
JCrwHQzk,3icohx7eofotocxdgkfntnxt5xb0e8,3of2m9aatk1vzht7728km19ck9gzkt,JCrwHQzk,2020-0188,2020-11-18,15:17:53,15:40:59,NA,incomplete,30,number,1,right,Purple_Triangle_Stripes_1.jpg,Red_Triangle_Grid_4.jpg,Blue_Star_Chess_1.jpg,right,852.1349999355152,true,low,NA,NA,NA,NA,NA,NA,NA,false
JCrwHQzk,3icohx7eofotocxdgkfntnxt5xb0e8,3of2m9aatk1vzht7728km19ck9gzkt,JCrwHQzk,2020-0188,2020-11-18,15:17:53,15:40:59,NA,incomplete,31,number,1,right,Purple_Triangle_Chess_1.jpg,Blue_Triangle_Grid_4.jpg,Green_Plus_Stripes_1.jpg,right,651.8200000282377,true,low,NA,NA,NA,NA,NA,NA,NA,false
JCrwHQzk,3icohx7eofotocxdgkfntnxt5xb0e8,3of2m9aatk1vzht7728km19ck9gzkt,JCrwHQzk,2020-0188,2020-11-18,15:17:53,15:40:59,NA,incomplete,32,number,1,left,Purple_Circle_Dots_4.jpg,Blue_Triangle_Grid_4.jpg,Green_Circle_Chess_1.jpg,left,672.9599999962375,true,low,NA,NA,NA,NA,NA,NA,NA,false
JCrwHQzk,3icohx7eofotocxdgkfntnxt5xb0e8,3of2m9aatk1vzht7728km19ck9gzkt,JCrwHQzk,2020-0188,2020-11-18,15:17:53,15:40:59,NA,incomplete,33,number,1,right,Green_Circle_Stripes_1.jpg,Red_Circle_Dots_2.jpg,Purple_Star_Chess_1.jpg,right,923.8500000210479,true,low,NA,NA,NA,NA,NA,NA,NA,false
JCrwHQzk,3icohx7eofotocxdgkfntnxt5xb0e8,3of2m9aatk1vzht7728km19ck9gzkt,JCrwHQzk,2020-0188,2020-11-18,15:17:53,15:40:59,NA,incomplete,34,number,1,left,Purple_Triangle_Chess_4.jpg,Red_Circle_Stripes_4.jpg,Green_Triangle_Grid_1.jpg,left,675.6900000618771,true,low,NA,NA,NA,NA,NA,NA,NA,false
JCrwHQzk,3icohx7eofotocxdgkfntnxt5xb0e8,3of2m9aatk1vzht7728km19ck9gzkt,JCrwHQzk,2020-0188,2020-11-18,15:17:53,15:40:59,NA,incomplete,35,number,1,left,Blue_Triangle_Stripes_4.jpg,Purple_Star_Dots_4.jpg,Green_Triangle_Chess_3.jpg,left,870.1250000158325,true,low,NA,NA,NA,NA,NA,NA,NA,false
JCrwHQzk,3icohx7eofotocxdgkfntnxt5xb0e8,3of2m9aatk1vzht7728km19ck9gzkt,JCrwHQzk,2020-0188,2020-11-18,15:17:53,15:40:59,NA,incomplete,36,number,0,left,Green_Plus_Stripes_3.jpg,Blue_Circle_Chess_3.jpg,Purple_Plus_Grid_4.jpg,left,835.4450000915676,true,low,NA,NA,NA,NA,NA,NA,NA,false
JCrwHQzk,3icohx7eofotocxdgkfntnxt5xb0e8,3of2m9aatk1vzht7728km19ck9gzkt,JCrwHQzk,2020-0188,2020-11-18,15:17:53,15:40:59,NA,incomplete,37,number,1,right,Purple_Star_Stripes_1.jpg,Green_Star_Dots_3.jpg,Red_Triangle_Chess_1.jpg,right,642.9350000107661,true,low,NA,NA,NA,NA,NA,NA,NA,false
JCrwHQzk,3icohx7eofotocxdgkfntnxt5xb0e8,3of2m9aatk1vzht7728km19ck9gzkt,JCrwHQzk,2020-0188,2020-11-18,15:17:53,15:40:59,NA,incomplete,38,number,1,right,Red_Circle_Grid_3.jpg,Purple_Circle_Stripes_4.jpg,Blue_Triangle_Dots_3.jpg,right,1091.5550000499934,true,low,NA,NA,NA,NA,NA,NA,NA,false
JCrwHQzk,3icohx7eofotocxdgkfntnxt5xb0e8,3of2m9aatk1vzht7728km19ck9gzkt,JCrwHQzk,2020-0188,2020-11-18,15:17:53,15:40:59,NA,incomplete,39,number,1,right,Green_Plus_Chess_4.jpg,Blue_Plus_Dots_1.jpg,Red_Circle_Grid_4.jpg,right,631.8100000498816,true,low,NA,NA,NA,NA,NA,NA,NA,false
JCrwHQzk,3icohx7eofotocxdgkfntnxt5xb0e8,3of2m9aatk1vzht7728km19ck9gzkt,JCrwHQzk,2020-0188,2020-11-18,15:17:53,15:40:59,NA,incomplete,40,number,0,right,Red_Triangle_Stripes_4.jpg,Green_Triangle_Grid_2.jpg,Purple_Star_Dots_4.jpg,right,638.2500000763685,true,low,NA,NA,NA,NA,NA,NA,NA,false
JCrwHQzk,3icohx7eofotocxdgkfntnxt5xb0e8,3of2m9aatk1vzht7728km19ck9gzkt,JCrwHQzk,2020-0188,2020-11-18,15:17:53,15:40:59,NA,incomplete,41,number,1,right,Purple_Triangle_Dots_2.jpg,Green_Triangle_Chess_3.jpg,Blue_Star_Grid_2.jpg,right,774.1549999918789,true,low,NA,NA,NA,NA,NA,NA,NA,false
JCrwHQzk,3icohx7eofotocxdgkfntnxt5xb0e8,3of2m9aatk1vzht7728km19ck9gzkt,JCrwHQzk,2020-0188,2020-11-18,15:17:53,15:40:59,NA,incomplete,42,number,1,left,Purple_Circle_Chess_4.jpg,Green_Star_Grid_4.jpg,Blue_Circle_Stripes_1.jpg,left,546.9499999890104,true,low,NA,NA,NA,NA,NA,NA,NA,false
JCrwHQzk,3icohx7eofotocxdgkfntnxt5xb0e8,3of2m9aatk1vzht7728km19ck9gzkt,JCrwHQzk,2020-0188,2020-11-18,15:17:53,15:40:59,NA,incomplete,43,number,1,right,Purple_Star_Stripes_2.jpg,Green_Star_Grid_3.jpg,Blue_Triangle_Chess_2.jpg,right,643.4450000524521,true,low,NA,NA,NA,NA,NA,NA,NA,false
JCrwHQzk,3icohx7eofotocxdgkfntnxt5xb0e8,3of2m9aatk1vzht7728km19ck9gzkt,JCrwHQzk,2020-0188,2020-11-18,15:17:53,15:40:59,NA,incomplete,44,number,1,right,Blue_Triangle_Dots_4.jpg,Purple_Triangle_Grid_2.jpg,Green_Plus_Stripes_4.jpg,right,891.2850000197068,true,low,NA,NA,NA,NA,NA,NA,NA,false
JCrwHQzk,3icohx7eofotocxdgkfntnxt5xb0e8,3of2m9aatk1vzht7728km19ck9gzkt,JCrwHQzk,2020-0188,2020-11-18,15:17:53,15:40:59,NA,incomplete,45,number,1,left,Purple_Triangle_Chess_4.jpg,Blue_Star_Grid_4.jpg,Green_Triangle_Stripes_3.jpg,left,741.440000012517,true,low,NA,NA,NA,NA,NA,NA,NA,false
JCrwHQzk,3icohx7eofotocxdgkfntnxt5xb0e8,3of2m9aatk1vzht7728km19ck9gzkt,JCrwHQzk,2020-0188,2020-11-18,15:17:53,15:40:59,NA,incomplete,46,number,1,right,Blue_Circle_Grid_4.jpg,Purple_Circle_Dots_1.jpg,Green_Star_Stripes_4.jpg,right,694.2949999356642,true,low,NA,NA,NA,NA,NA,NA,NA,false
JCrwHQzk,3icohx7eofotocxdgkfntnxt5xb0e8,3of2m9aatk1vzht7728km19ck9gzkt,JCrwHQzk,2020-0188,2020-11-18,15:17:53,15:40:59,NA,incomplete,47,number,0,left,Red_Triangle_Grid_1.jpg,Blue_Circle_Chess_1.jpg,Green_Triangle_Stripes_4.jpg,left,617.4050000263378,true,low,NA,NA,NA,NA,NA,NA,NA,false
JCrwHQzk,3icohx7eofotocxdgkfntnxt5xb0e8,3of2m9aatk1vzht7728km19ck9gzkt,JCrwHQzk,2020-0188,2020-11-18,15:17:53,15:40:59,NA,incomplete,48,number,1,right,Red_Triangle_Stripes_4.jpg,Blue_Triangle_Grid_3.jpg,Green_Circle_Dots_4.jpg,right,834.0450000250712,true,low,NA,NA,NA,NA,NA,NA,NA,false
JCrwHQzk,3icohx7eofotocxdgkfntnxt5xb0e8,3of2m9aatk1vzht7728km19ck9gzkt,JCrwHQzk,2020-0188,2020-11-18,15:17:53,15:40:59,NA,incomplete,49,number,1,left,Green_Plus_Grid_3.jpg,Blue_Circle_Stripes_3.jpg,Purple_Plus_Chess_2.jpg,left,894.4999999366701,true,low,NA,NA,NA,NA,NA,NA,NA,false
JCrwHQzk,3icohx7eofotocxdgkfntnxt5xb0e8,3of2m9aatk1vzht7728km19ck9gzkt,JCrwHQzk,2020-0188,2020-11-18,15:17:53,15:40:59,NA,incomplete,50,number,1,left,Red_Triangle_Grid_4.jpg,Purple_Star_Stripes_4.jpg,Blue_Triangle_Chess_2.jpg,left,652.3899999447167,true,low,NA,NA,NA,NA,NA,NA,NA,false
JCrwHQzk,3icohx7eofotocxdgkfntnxt5xb0e8,3of2m9aatk1vzht7728km19ck9gzkt,JCrwHQzk,2020-0188,2020-11-18,15:17:53,15:40:59,NA,incomplete,51,number,1,left,Green_Circle_Grid_1.jpg,Purple_Star_Chess_1.jpg,Red_Circle_Dots_2.jpg,left,777.1400000201538,true,low,NA,NA,NA,NA,NA,NA,NA,false
JCrwHQzk,3icohx7eofotocxdgkfntnxt5xb0e8,3of2m9aatk1vzht7728km19ck9gzkt,JCrwHQzk,2020-0188,2020-11-18,15:17:53,15:40:59,NA,incomplete,52,number,1,right,Purple_Triangle_Grid_4.jpg,Blue_Triangle_Dots_1.jpg,Green_Circle_Stripes_4.jpg,right,847.3549999762326,true,low,NA,NA,NA,NA,NA,NA,NA,false
JCrwHQzk,3icohx7eofotocxdgkfntnxt5xb0e8,3of2m9aatk1vzht7728km19ck9gzkt,JCrwHQzk,2020-0188,2020-11-18,15:17:53,15:40:59,NA,incomplete,53,number,0,right,Red_Circle_Chess_4.jpg,Blue_Circle_Grid_2.jpg,Purple_Triangle_Stripes_4.jpg,right,685.8149999752641,true,low,NA,NA,NA,NA,NA,NA,NA,false
JCrwHQzk,3icohx7eofotocxdgkfntnxt5xb0e8,3of2m9aatk1vzht7728km19ck9gzkt,JCrwHQzk,2020-0188,2020-11-18,15:17:53,15:40:59,NA,incomplete,54,number,1,right,Purple_Circle_Stripes_3.jpg,Green_Circle_Chess_1.jpg,Blue_Star_Dots_3.jpg,right,670.2150000492111,true,low,NA,NA,NA,NA,NA,NA,NA,false
JCrwHQzk,3icohx7eofotocxdgkfntnxt5xb0e8,3of2m9aatk1vzht7728km19ck9gzkt,JCrwHQzk,2020-0188,2020-11-18,15:17:53,15:40:59,NA,incomplete,55,number,0,left,Green_Triangle_Grid_4.jpg,Red_Circle_Dots_4.jpg,Purple_Triangle_Stripes_3.jpg,left,900.7550000678748,true,low,NA,NA,NA,NA,NA,NA,NA,false
JCrwHQzk,3icohx7eofotocxdgkfntnxt5xb0e8,3of2m9aatk1vzht7728km19ck9gzkt,JCrwHQzk,2020-0188,2020-11-18,15:17:53,15:40:59,NA,incomplete,56,number,1,left,Red_Circle_Stripes_4.jpg,Purple_Triangle_Dots_4.jpg,Blue_Circle_Chess_3.jpg,left,1137.9150000866503,true,low,NA,NA,NA,NA,NA,NA,NA,false
JCrwHQzk,3icohx7eofotocxdgkfntnxt5xb0e8,3of2m9aatk1vzht7728km19ck9gzkt,JCrwHQzk,2020-0188,2020-11-18,15:17:53,15:40:59,NA,incomplete,57,number,1,right,Blue_Plus_Chess_2.jpg,Green_Plus_Stripes_3.jpg,Purple_Star_Grid_2.jpg,right,835.9199999831617,true,low,NA,NA,NA,NA,NA,NA,NA,false
JCrwHQzk,3icohx7eofotocxdgkfntnxt5xb0e8,3of2m9aatk1vzht7728km19ck9gzkt,JCrwHQzk,2020-0188,2020-11-18,15:17:53,15:40:59,NA,incomplete,58,number,1,left,Purple_Plus_Stripes_3.jpg,Red_Star_Chess_3.jpg,Blue_Plus_Grid_4.jpg,left,850.635000038892,true,low,NA,NA,NA,NA,NA,NA,NA,false
JCrwHQzk,3icohx7eofotocxdgkfntnxt5xb0e8,3of2m9aatk1vzht7728km19ck9gzkt,JCrwHQzk,2020-0188,2020-11-18,15:17:53,15:40:59,NA,incomplete,59,number,1,left,Red_Circle_Grid_3.jpg,Blue_Star_Stripes_3.jpg,Purple_Circle_Chess_1.jpg,left,586.4199999487028,true,low,NA,NA,NA,NA,NA,NA,NA,false
JCrwHQzk,3icohx7eofotocxdgkfntnxt5xb0e8,3of2m9aatk1vzht7728km19ck9gzkt,JCrwHQzk,2020-0188,2020-11-18,15:17:53,15:40:59,NA,incomplete,60,shape,1,left,Blue_Star_Dots_2.jpg,Red_Star_Stripes_1.jpg,Green_Triangle_Chess_2.jpg,right,668.8449999783188,false,low,NA,NA,NA,NA,NA,NA,NA,false
JCrwHQzk,3icohx7eofotocxdgkfntnxt5xb0e8,3of2m9aatk1vzht7728km19ck9gzkt,JCrwHQzk,2020-0188,2020-11-18,15:17:53,15:40:59,NA,incomplete,61,shape,1,left,Green_Star_Stripes_1.jpg,Red_Star_Grid_2.jpg,Blue_Circle_Chess_1.jpg,right,607.0349999936298,false,low,NA,NA,NA,NA,NA,NA,NA,false
JCrwHQzk,3icohx7eofotocxdgkfntnxt5xb0e8,3of2m9aatk1vzht7728km19ck9gzkt,JCrwHQzk,2020-0188,2020-11-18,15:17:53,15:40:59,NA,incomplete,62,shape,1,left,Purple_Triangle_Grid_4.jpg,Blue_Triangle_Stripes_1.jpg,Red_Plus_Dots_4.jpg,right,731.1149999732152,false,low,NA,NA,NA,NA,NA,NA,NA,false
JCrwHQzk,3icohx7eofotocxdgkfntnxt5xb0e8,3of2m9aatk1vzht7728km19ck9gzkt,JCrwHQzk,2020-0188,2020-11-18,15:17:53,15:40:59,NA,incomplete,63,shape,1,right,Blue_Circle_Stripes_2.jpg,Green_Triangle_Grid_2.jpg,Purple_Circle_Dots_4.jpg,left,555.3300000028685,false,low,NA,NA,NA,NA,NA,NA,NA,false
JCrwHQzk,3icohx7eofotocxdgkfntnxt5xb0e8,3of2m9aatk1vzht7728km19ck9gzkt,JCrwHQzk,2020-0188,2020-11-18,15:17:53,15:40:59,NA,incomplete,64,shape,1,left,Purple_Triangle_Grid_2.jpg,Red_Triangle_Stripes_1.jpg,Blue_Plus_Dots_2.jpg,right,641.1899999948218,false,low,NA,NA,NA,NA,NA,NA,NA,false
JCrwHQzk,3icohx7eofotocxdgkfntnxt5xb0e8,3of2m9aatk1vzht7728km19ck9gzkt,JCrwHQzk,2020-0188,2020-11-18,15:17:53,15:40:59,NA,incomplete,65,shape,1,left,Purple_Star_Stripes_4.jpg,Green_Star_Grid_3.jpg,Red_Plus_Dots_4.jpg,left,1462.1200000401586,true,low,NA,NA,NA,NA,NA,NA,NA,false
JCrwHQzk,3icohx7eofotocxdgkfntnxt5xb0e8,3of2m9aatk1vzht7728km19ck9gzkt,JCrwHQzk,2020-0188,2020-11-18,15:17:53,15:40:59,NA,incomplete,66,shape,0,right,Green_Circle_Grid_1.jpg,Red_Plus_Chess_1.jpg,Purple_Circle_Dots_4.jpg,right,748.020000057295,true,low,NA,NA,NA,NA,NA,NA,NA,false
JCrwHQzk,3icohx7eofotocxdgkfntnxt5xb0e8,3of2m9aatk1vzht7728km19ck9gzkt,JCrwHQzk,2020-0188,2020-11-18,15:17:53,15:40:59,NA,incomplete,67,shape,1,left,Purple_Plus_Dots_1.jpg,Blue_Plus_Chess_2.jpg,Green_Circle_Stripes_1.jpg,right,825.1849999651313,false,low,NA,NA,NA,NA,NA,NA,NA,false
JCrwHQzk,3icohx7eofotocxdgkfntnxt5xb0e8,3of2m9aatk1vzht7728km19ck9gzkt,JCrwHQzk,2020-0188,2020-11-18,15:17:53,15:40:59,NA,incomplete,68,shape,1,right,Red_Plus_Dots_4.jpg,Purple_Star_Chess_4.jpg,Green_Plus_Stripes_2.jpg,left,557.9950000392273,false,low,NA,NA,NA,NA,NA,NA,NA,false
JCrwHQzk,3icohx7eofotocxdgkfntnxt5xb0e8,3of2m9aatk1vzht7728km19ck9gzkt,JCrwHQzk,2020-0188,2020-11-18,15:17:53,15:40:59,NA,incomplete,69,shape,1,right,Blue_Circle_Chess_4.jpg,Red_Star_Dots_4.jpg,Green_Circle_Grid_3.jpg,right,277.875000028871,true,low,NA,NA,NA,NA,NA,NA,NA,false
JCrwHQzk,3icohx7eofotocxdgkfntnxt5xb0e8,3of2m9aatk1vzht7728km19ck9gzkt,JCrwHQzk,2020-0188,2020-11-18,15:17:53,15:40:59,NA,incomplete,70,shape,1,right,Purple_Star_Chess_4.jpg,Green_Circle_Dots_4.jpg,Blue_Star_Grid_3.jpg,right,615.860000019893,true,low,NA,NA,NA,NA,NA,NA,NA,false
JCrwHQzk,3icohx7eofotocxdgkfntnxt5xb0e8,3of2m9aatk1vzht7728km19ck9gzkt,JCrwHQzk,2020-0188,2020-11-18,15:17:53,15:40:59,NA,incomplete,71,shape,0,right,Red_Circle_Grid_2.jpg,Green_Star_Stripes_2.jpg,Blue_Circle_Dots_4.jpg,right,523.2500000856817,true,low,NA,NA,NA,NA,NA,NA,NA,false
JCrwHQzk,3icohx7eofotocxdgkfntnxt5xb0e8,3of2m9aatk1vzht7728km19ck9gzkt,JCrwHQzk,2020-0188,2020-11-18,15:17:53,15:40:59,NA,incomplete,72,shape,1,left,Red_Plus_Stripes_1.jpg,Purple_Plus_Dots_2.jpg,Blue_Star_Chess_1.jpg,left,516.5000000270084,true,low,NA,NA,NA,NA,NA,NA,NA,false
JCrwHQzk,3icohx7eofotocxdgkfntnxt5xb0e8,3of2m9aatk1vzht7728km19ck9gzkt,JCrwHQzk,2020-0188,2020-11-18,15:17:53,15:40:59,NA,incomplete,73,shape,1,left,Blue_Triangle_Chess_4.jpg,Purple_Triangle_Stripes_2.jpg,Red_Star_Dots_4.jpg,right,1249.4449999649078,false,low,NA,NA,NA,NA,NA,NA,NA,false
JCrwHQzk,3icohx7eofotocxdgkfntnxt5xb0e8,3of2m9aatk1vzht7728km19ck9gzkt,JCrwHQzk,2020-0188,2020-11-18,15:17:53,15:40:59,NA,incomplete,74,shape,1,right,Green_Circle_Grid_2.jpg,Purple_Star_Dots_2.jpg,Red_Circle_Chess_3.jpg,right,796.4399999473244,true,low,NA,NA,NA,NA,NA,NA,NA,false
JCrwHQzk,3icohx7eofotocxdgkfntnxt5xb0e8,3of2m9aatk1vzht7728km19ck9gzkt,JCrwHQzk,2020-0188,2020-11-18,15:17:53,15:40:59,NA,incomplete,75,shape,0,left,Purple_Plus_Chess_1.jpg,Blue_Plus_Stripes_4.jpg,Red_Triangle_Grid_1.jpg,left,807.7650000341237,true,low,NA,NA,NA,NA,NA,NA,NA,false
JCrwHQzk,3icohx7eofotocxdgkfntnxt5xb0e8,3of2m9aatk1vzht7728km19ck9gzkt,JCrwHQzk,2020-0188,2020-11-18,15:17:53,15:40:59,NA,incomplete,76,shape,1,left,Blue_Triangle_Grid_4.jpg,Red_Triangle_Dots_1.jpg,Green_Plus_Chess_4.jpg,right,749.9600000446662,false,low,NA,NA,NA,NA,NA,NA,NA,false
JCrwHQzk,3icohx7eofotocxdgkfntnxt5xb0e8,3of2m9aatk1vzht7728km19ck9gzkt,JCrwHQzk,2020-0188,2020-11-18,15:17:53,15:40:59,NA,incomplete,77,shape,1,left,Red_Star_Dots_4.jpg,Blue_Star_Chess_3.jpg,Purple_Circle_Stripes_4.jpg,left,1076.3349999906495,true,low,NA,NA,NA,NA,NA,NA,NA,false
JCrwHQzk,3icohx7eofotocxdgkfntnxt5xb0e8,3of2m9aatk1vzht7728km19ck9gzkt,JCrwHQzk,2020-0188,2020-11-18,15:17:53,15:40:59,NA,incomplete,78,shape,1,left,Purple_Circle_Stripes_2.jpg,Green_Circle_Dots_1.jpg,Red_Plus_Grid_2.jpg,left,606.6550000105053,true,low,NA,NA,NA,NA,NA,NA,NA,false
JCrwHQzk,3icohx7eofotocxdgkfntnxt5xb0e8,3of2m9aatk1vzht7728km19ck9gzkt,JCrwHQzk,2020-0188,2020-11-18,15:17:53,15:40:59,NA,incomplete,79,shape,1,right,Purple_Triangle_Chess_4.jpg,Red_Circle_Dots_4.jpg,Green_Triangle_Grid_1.jpg,right,579.1400000452995,true,low,NA,NA,NA,NA,NA,NA,NA,false
JCrwHQzk,3icohx7eofotocxdgkfntnxt5xb0e8,3of2m9aatk1vzht7728km19ck9gzkt,JCrwHQzk,2020-0188,2020-11-18,15:17:53,15:40:59,NA,incomplete,80,shape,0,right,Green_Plus_Grid_4.jpg,Purple_Triangle_Stripes_4.jpg,Blue_Plus_Dots_2.jpg,right,548.6699999310076,true,low,NA,NA,NA,NA,NA,NA,NA,false
JCrwHQzk,3icohx7eofotocxdgkfntnxt5xb0e8,3of2m9aatk1vzht7728km19ck9gzkt,JCrwHQzk,2020-0188,2020-11-18,15:17:53,15:40:59,NA,incomplete,81,shape,1,right,Purple_Star_Stripes_3.jpg,Green_Plus_Chess_3.jpg,Red_Star_Dots_4.jpg,right,609.0500000864267,true,low,NA,NA,NA,NA,NA,NA,NA,false
JCrwHQzk,3icohx7eofotocxdgkfntnxt5xb0e8,3of2m9aatk1vzht7728km19ck9gzkt,JCrwHQzk,2020-0188,2020-11-18,15:17:53,15:40:59,NA,incomplete,82,shape,0,left,Green_Plus_Grid_3.jpg,Blue_Plus_Chess_1.jpg,Purple_Circle_Stripes_3.jpg,left,807.4349999660626,true,low,NA,NA,NA,NA,NA,NA,NA,false
JCrwHQzk,3icohx7eofotocxdgkfntnxt5xb0e8,3of2m9aatk1vzht7728km19ck9gzkt,JCrwHQzk,2020-0188,2020-11-18,15:17:53,15:40:59,NA,incomplete,83,shape,1,left,Green_Plus_Stripes_4.jpg,Red_Plus_Dots_3.jpg,Blue_Star_Grid_4.jpg,left,752.8249999741092,true,low,NA,NA,NA,NA,NA,NA,NA,false
JCrwHQzk,3icohx7eofotocxdgkfntnxt5xb0e8,3of2m9aatk1vzht7728km19ck9gzkt,JCrwHQzk,2020-0188,2020-11-18,15:17:53,15:40:59,NA,incomplete,84,shape,1,left,Red_Star_Dots_2.jpg,Purple_Star_Grid_3.jpg,Green_Triangle_Chess_2.jpg,left,540.2500000782311,true,low,NA,NA,NA,NA,NA,NA,NA,false
JCrwHQzk,3icohx7eofotocxdgkfntnxt5xb0e8,3of2m9aatk1vzht7728km19ck9gzkt,JCrwHQzk,2020-0188,2020-11-18,15:17:53,15:40:59,NA,incomplete,85,shape,1,left,Red_Triangle_Grid_3.jpg,Purple_Triangle_Stripes_2.jpg,Green_Plus_Chess_3.jpg,left,770.2399999834597,true,low,NA,NA,NA,NA,NA,NA,NA,false
JCrwHQzk,3icohx7eofotocxdgkfntnxt5xb0e8,3of2m9aatk1vzht7728km19ck9gzkt,JCrwHQzk,2020-0188,2020-11-18,15:17:53,15:40:59,NA,incomplete,86,shape,1,left,Purple_Star_Dots_4.jpg,Green_Star_Stripes_1.jpg,Red_Triangle_Grid_4.jpg,left,755.4199999431148,true,low,NA,NA,NA,NA,NA,NA,NA,false
JCrwHQzk,3icohx7eofotocxdgkfntnxt5xb0e8,3of2m9aatk1vzht7728km19ck9gzkt,JCrwHQzk,2020-0188,2020-11-18,15:17:53,15:40:59,NA,incomplete,87,shape,0,right,Blue_Star_Chess_3.jpg,Purple_Plus_Grid_3.jpg,Red_Star_Dots_2.jpg,left,647.6849999744445,false,low,NA,NA,NA,NA,NA,NA,NA,false
JCrwHQzk,3icohx7eofotocxdgkfntnxt5xb0e8,3of2m9aatk1vzht7728km19ck9gzkt,JCrwHQzk,2020-0188,2020-11-18,15:17:53,15:40:59,NA,incomplete,88,shape,1,right,Blue_Circle_Stripes_1.jpg,Green_Plus_Chess_1.jpg,Purple_Circle_Dots_3.jpg,right,696.7449999647215,true,low,NA,NA,NA,NA,NA,NA,NA,false
JCrwHQzk,3icohx7eofotocxdgkfntnxt5xb0e8,3of2m9aatk1vzht7728km19ck9gzkt,JCrwHQzk,2020-0188,2020-11-18,15:17:53,15:40:59,NA,incomplete,89,shape,0,right,Green_Plus_Chess_4.jpg,Purple_Circle_Dots_4.jpg,Red_Plus_Grid_3.jpg,right,924.7850000392646,true,low,NA,NA,NA,NA,NA,NA,NA,false
JCrwHQzk,3icohx7eofotocxdgkfntnxt5xb0e8,3of2m9aatk1vzht7728km19ck9gzkt,JCrwHQzk,2020-0188,2020-11-18,15:17:53,15:40:59,NA,incomplete,90,number,1,right,Green_Star_Chess_2.jpg,Red_Star_Grid_4.jpg,Purple_Plus_Stripes_2.jpg,left,589.3550000619143,false,low,NA,NA,NA,NA,NA,NA,NA,false
JCrwHQzk,3icohx7eofotocxdgkfntnxt5xb0e8,3of2m9aatk1vzht7728km19ck9gzkt,JCrwHQzk,2020-0188,2020-11-18,15:17:53,15:40:59,NA,incomplete,91,number,1,right,Purple_Circle_Chess_3.jpg,Green_Circle_Stripes_2.jpg,Blue_Plus_Grid_3.jpg,left,591.1049999995157,false,low,NA,NA,NA,NA,NA,NA,NA,false
JCrwHQzk,3icohx7eofotocxdgkfntnxt5xb0e8,3of2m9aatk1vzht7728km19ck9gzkt,JCrwHQzk,2020-0188,2020-11-18,15:17:53,15:40:59,NA,incomplete,92,number,1,right,Red_Circle_Grid_3.jpg,Blue_Circle_Dots_4.jpg,Green_Triangle_Chess_3.jpg,right,359.11000007763505,true,low,NA,NA,NA,NA,NA,NA,NA,false
JCrwHQzk,3icohx7eofotocxdgkfntnxt5xb0e8,3of2m9aatk1vzht7728km19ck9gzkt,JCrwHQzk,2020-0188,2020-11-18,15:17:53,15:40:59,NA,incomplete,93,number,1,right,Purple_Circle_Chess_2.jpg,Red_Circle_Dots_1.jpg,Blue_Star_Stripes_2.jpg,left,449.63500008452684,false,low,NA,NA,NA,NA,NA,NA,NA,false
JCrwHQzk,3icohx7eofotocxdgkfntnxt5xb0e8,3of2m9aatk1vzht7728km19ck9gzkt,JCrwHQzk,2020-0188,2020-11-18,15:17:53,15:40:59,NA,incomplete,94,number,0,left,Green_Star_Chess_4.jpg,Blue_Plus_Stripes_4.jpg,Red_Star_Grid_3.jpg,right,670.0399999972433,false,low,NA,NA,NA,NA,NA,NA,NA,false
JCrwHQzk,3icohx7eofotocxdgkfntnxt5xb0e8,3of2m9aatk1vzht7728km19ck9gzkt,JCrwHQzk,2020-0188,2020-11-18,15:17:53,15:40:59,NA,incomplete,95,number,1,left,Green_Circle_Dots_3.jpg,Blue_Star_Grid_3.jpg,Purple_Circle_Chess_1.jpg,right,562.3100000666454,false,low,NA,NA,NA,NA,NA,NA,NA,false
JCrwHQzk,3icohx7eofotocxdgkfntnxt5xb0e8,3of2m9aatk1vzht7728km19ck9gzkt,JCrwHQzk,2020-0188,2020-11-18,15:17:53,15:40:59,NA,incomplete,96,number,0,left,Blue_Star_Chess_1.jpg,Green_Plus_Stripes_1.jpg,Purple_Star_Grid_4.jpg,left,475.78999993856996,true,low,NA,NA,NA,NA,NA,NA,NA,false
JCrwHQzk,3icohx7eofotocxdgkfntnxt5xb0e8,3of2m9aatk1vzht7728km19ck9gzkt,JCrwHQzk,2020-0188,2020-11-18,15:17:53,15:40:59,NA,incomplete,97,number,1,right,Blue_Star_Dots_1.jpg,Purple_Star_Grid_4.jpg,Green_Plus_Chess_1.jpg,left,763.6550000170246,false,low,NA,NA,NA,NA,NA,NA,NA,false
JCrwHQzk,3icohx7eofotocxdgkfntnxt5xb0e8,3of2m9aatk1vzht7728km19ck9gzkt,JCrwHQzk,2020-0188,2020-11-18,15:17:53,15:40:59,NA,incomplete,98,number,1,right,Blue_Circle_Chess_2.jpg,Purple_Circle_Dots_1.jpg,Green_Plus_Grid_2.jpg,right,800.9150000289083,true,low,NA,NA,NA,NA,NA,NA,NA,false
JCrwHQzk,3icohx7eofotocxdgkfntnxt5xb0e8,3of2m9aatk1vzht7728km19ck9gzkt,JCrwHQzk,2020-0188,2020-11-18,15:17:53,15:40:59,NA,incomplete,99,number,1,right,Red_Star_Dots_1.jpg,Blue_Star_Grid_2.jpg,Green_Circle_Chess_1.jpg,right,677.8900000499561,true,low,NA,NA,NA,NA,NA,NA,NA,false
JCrwHQzk,3icohx7eofotocxdgkfntnxt5xb0e8,3of2m9aatk1vzht7728km19ck9gzkt,JCrwHQzk,2020-0188,2020-11-18,15:17:53,15:40:59,NA,incomplete,100,number,1,right,Red_Triangle_Stripes_1.jpg,Purple_Triangle_Grid_3.jpg,Green_Star_Chess_1.jpg,right,816.8050000676885,true,low,NA,NA,NA,NA,NA,NA,NA,false
JCrwHQzk,3icohx7eofotocxdgkfntnxt5xb0e8,3of2m9aatk1vzht7728km19ck9gzkt,JCrwHQzk,2020-0188,2020-11-18,15:17:53,15:40:59,NA,incomplete,101,number,0,right,Red_Triangle_Dots_3.jpg,Green_Triangle_Stripes_2.jpg,Blue_Star_Chess_3.jpg,right,762.5949999783188,true,low,NA,NA,NA,NA,NA,NA,NA,false
JCrwHQzk,3icohx7eofotocxdgkfntnxt5xb0e8,3of2m9aatk1vzht7728km19ck9gzkt,JCrwHQzk,2020-0188,2020-11-18,15:17:53,15:40:59,NA,incomplete,102,number,1,right,Blue_Plus_Grid_4.jpg,Red_Plus_Dots_2.jpg,Purple_Star_Stripes_4.jpg,left,1090.2749999659136,false,low,NA,NA,NA,NA,NA,NA,NA,false
JCrwHQzk,3icohx7eofotocxdgkfntnxt5xb0e8,3of2m9aatk1vzht7728km19ck9gzkt,JCrwHQzk,2020-0188,2020-11-18,15:17:53,15:40:59,NA,incomplete,103,number,1,right,Green_Triangle_Dots_4.jpg,Red_Triangle_Stripes_2.jpg,Blue_Plus_Grid_4.jpg,right,696.3449999457225,true,low,NA,NA,NA,NA,NA,NA,NA,false
JCrwHQzk,3icohx7eofotocxdgkfntnxt5xb0e8,3of2m9aatk1vzht7728km19ck9gzkt,JCrwHQzk,2020-0188,2020-11-18,15:17:53,15:40:59,NA,incomplete,104,number,1,right,Red_Star_Stripes_1.jpg,Green_Star_Grid_4.jpg,Purple_Triangle_Chess_1.jpg,right,631.3699999591336,true,low,NA,NA,NA,NA,NA,NA,NA,false
JCrwHQzk,3icohx7eofotocxdgkfntnxt5xb0e8,3of2m9aatk1vzht7728km19ck9gzkt,JCrwHQzk,2020-0188,2020-11-18,15:17:53,15:40:59,NA,incomplete,105,number,1,left,Blue_Circle_Stripes_1.jpg,Purple_Triangle_Grid_1.jpg,Red_Circle_Chess_4.jpg,left,772.49500004109,true,low,NA,NA,NA,NA,NA,NA,NA,false
JCrwHQzk,3icohx7eofotocxdgkfntnxt5xb0e8,3of2m9aatk1vzht7728km19ck9gzkt,JCrwHQzk,2020-0188,2020-11-18,15:17:53,15:40:59,NA,incomplete,106,number,1,left,Red_Circle_Grid_1.jpg,Green_Triangle_Dots_1.jpg,Purple_Circle_Chess_2.jpg,left,682.0449999067932,true,low,NA,NA,NA,NA,NA,NA,NA,false
JCrwHQzk,3icohx7eofotocxdgkfntnxt5xb0e8,3of2m9aatk1vzht7728km19ck9gzkt,JCrwHQzk,2020-0188,2020-11-18,15:17:53,15:40:59,NA,incomplete,107,number,0,left,Green_Star_Stripes_1.jpg,Red_Circle_Chess_1.jpg,Blue_Star_Grid_2.jpg,left,622.5199999753386,true,low,NA,NA,NA,NA,NA,NA,NA,false
JCrwHQzk,3icohx7eofotocxdgkfntnxt5xb0e8,3of2m9aatk1vzht7728km19ck9gzkt,JCrwHQzk,2020-0188,2020-11-18,15:17:53,15:40:59,NA,incomplete,108,number,0,left,Red_Plus_Grid_3.jpg,Blue_Circle_Chess_3.jpg,Green_Plus_Stripes_4.jpg,right,925.675000064075,false,low,NA,NA,NA,NA,NA,NA,NA,false
JCrwHQzk,3icohx7eofotocxdgkfntnxt5xb0e8,3of2m9aatk1vzht7728km19ck9gzkt,JCrwHQzk,2020-0188,2020-11-18,15:17:53,15:40:59,NA,incomplete,109,number,1,right,Red_Plus_Dots_2.jpg,Blue_Plus_Chess_4.jpg,Purple_Triangle_Grid_2.jpg,right,818.9649999840185,true,low,NA,NA,NA,NA,NA,NA,NA,false
JCrwHQzk,3icohx7eofotocxdgkfntnxt5xb0e8,3of2m9aatk1vzht7728km19ck9gzkt,JCrwHQzk,2020-0188,2020-11-18,15:17:53,15:40:59,NA,incomplete,110,number,0,left,Red_Plus_Dots_3.jpg,Green_Triangle_Chess_3.jpg,Purple_Plus_Stripes_2.jpg,left,888.7249999679625,true,low,NA,NA,NA,NA,NA,NA,NA,false
JCrwHQzk,3icohx7eofotocxdgkfntnxt5xb0e8,3of2m9aatk1vzht7728km19ck9gzkt,JCrwHQzk,2020-0188,2020-11-18,15:17:53,15:40:59,NA,incomplete,111,number,1,right,Green_Triangle_Dots_1.jpg,Blue_Triangle_Grid_3.jpg,Purple_Star_Stripes_1.jpg,right,789.6100000943989,true,low,NA,NA,NA,NA,NA,NA,NA,false
JCrwHQzk,3icohx7eofotocxdgkfntnxt5xb0e8,3of2m9aatk1vzht7728km19ck9gzkt,JCrwHQzk,2020-0188,2020-11-18,15:17:53,15:40:59,NA,incomplete,112,number,1,left,Red_Triangle_Stripes_4.jpg,Blue_Circle_Grid_4.jpg,Purple_Triangle_Dots_2.jpg,left,1038.620000006631,true,low,NA,NA,NA,NA,NA,NA,NA,false
JCrwHQzk,3icohx7eofotocxdgkfntnxt5xb0e8,3of2m9aatk1vzht7728km19ck9gzkt,JCrwHQzk,2020-0188,2020-11-18,15:17:53,15:40:59,NA,incomplete,113,number,1,left,Red_Plus_Chess_3.jpg,Purple_Circle_Grid_3.jpg,Green_Plus_Dots_2.jpg,left,796.7599999392405,true,low,NA,NA,NA,NA,NA,NA,NA,false
JCrwHQzk,3icohx7eofotocxdgkfntnxt5xb0e8,3of2m9aatk1vzht7728km19ck9gzkt,JCrwHQzk,2020-0188,2020-11-18,15:17:53,15:40:59,NA,incomplete,114,number,1,right,Purple_Plus_Stripes_2.jpg,Green_Plus_Chess_3.jpg,Red_Star_Dots_2.jpg,right,703.9749999530613,true,low,NA,NA,NA,NA,NA,NA,NA,false
JCrwHQzk,3icohx7eofotocxdgkfntnxt5xb0e8,3of2m9aatk1vzht7728km19ck9gzkt,JCrwHQzk,2020-0188,2020-11-18,15:17:53,15:40:59,NA,incomplete,115,number,1,right,Purple_Triangle_Chess_3.jpg,Blue_Triangle_Stripes_2.jpg,Green_Plus_Grid_3.jpg,right,721.1850000312552,true,low,NA,NA,NA,NA,NA,NA,NA,false
JCrwHQzk,3icohx7eofotocxdgkfntnxt5xb0e8,3of2m9aatk1vzht7728km19ck9gzkt,JCrwHQzk,2020-0188,2020-11-18,15:17:53,15:40:59,NA,incomplete,116,number,1,left,Green_Triangle_Chess_2.jpg,Red_Star_Grid_2.jpg,Blue_Triangle_Dots_4.jpg,left,802.3299999767914,true,low,NA,NA,NA,NA,NA,NA,NA,false
JCrwHQzk,3icohx7eofotocxdgkfntnxt5xb0e8,3of2m9aatk1vzht7728km19ck9gzkt,JCrwHQzk,2020-0188,2020-11-18,15:17:53,15:40:59,NA,incomplete,117,number,1,right,Purple_Plus_Grid_3.jpg,Green_Plus_Dots_4.jpg,Red_Circle_Chess_3.jpg,right,846.0699999704957,true,low,NA,NA,NA,NA,NA,NA,NA,false
JCrwHQzk,3icohx7eofotocxdgkfntnxt5xb0e8,3of2m9aatk1vzht7728km19ck9gzkt,JCrwHQzk,2020-0188,2020-11-18,15:17:53,15:40:59,NA,incomplete,118,number,0,left,Green_Star_Chess_1.jpg,Red_Plus_Dots_1.jpg,Purple_Star_Stripes_2.jpg,left,499.76000003516674,true,low,NA,NA,NA,NA,NA,NA,NA,false
JCrwHQzk,3icohx7eofotocxdgkfntnxt5xb0e8,3of2m9aatk1vzht7728km19ck9gzkt,JCrwHQzk,2020-0188,2020-11-18,15:17:53,15:40:59,NA,incomplete,119,number,0,right,Purple_Circle_Chess_4.jpg,Red_Circle_Stripes_2.jpg,Green_Triangle_Grid_4.jpg,right,776.9400000106543,true,low,NA,NA,NA,NA,NA,NA,NA,false
JCrwHQzk,3icohx7eofotocxdgkfntnxt5xb0e8,3of2m9aatk1vzht7728km19ck9gzkt,JCrwHQzk,2020-0188,2020-11-18,15:17:53,15:40:59,NA,incomplete,120,filling,1,left,Purple_Plus_Dots_2.jpg,Green_Circle_Dots_4.jpg,Purple_Star_Chess_3.jpg,left,1020.3399999300018,true,low,NA,NA,NA,NA,NA,NA,NA,false
JCrwHQzk,3icohx7eofotocxdgkfntnxt5xb0e8,3of2m9aatk1vzht7728km19ck9gzkt,JCrwHQzk,2020-0188,2020-11-18,15:17:53,15:40:59,NA,incomplete,121,filling,1,right,Purple_Triangle_Chess_1.jpg,Purple_Circle_Grid_3.jpg,Blue_Star_Chess_4.jpg,right,1266.8099999427795,true,low,NA,NA,NA,NA,NA,NA,NA,false
JCrwHQzk,3icohx7eofotocxdgkfntnxt5xb0e8,3of2m9aatk1vzht7728km19ck9gzkt,JCrwHQzk,2020-0188,2020-11-18,15:17:53,15:40:59,NA,incomplete,122,filling,0,left,Blue_Circle_Chess_2.jpg,Purple_Star_Chess_3.jpg,Blue_Plus_Stripes_1.jpg,left,779.1649999562651,true,low,NA,NA,NA,NA,NA,NA,NA,false
JCrwHQzk,3icohx7eofotocxdgkfntnxt5xb0e8,3of2m9aatk1vzht7728km19ck9gzkt,JCrwHQzk,2020-0188,2020-11-18,15:17:53,15:40:59,NA,incomplete,123,filling,1,left,Blue_Star_Chess_2.jpg,Purple_Circle_Chess_4.jpg,Blue_Plus_Grid_1.jpg,right,1294.0200000302866,false,low,NA,NA,NA,NA,NA,NA,NA,false
JCrwHQzk,3icohx7eofotocxdgkfntnxt5xb0e8,3of2m9aatk1vzht7728km19ck9gzkt,JCrwHQzk,2020-0188,2020-11-18,15:17:53,15:40:59,NA,incomplete,124,filling,1,left,Green_Triangle_Chess_1.jpg,Purple_Plus_Chess_3.jpg,Green_Star_Stripes_4.jpg,left,809.1300000669435,true,low,NA,NA,NA,NA,NA,NA,NA,false
JCrwHQzk,3icohx7eofotocxdgkfntnxt5xb0e8,3of2m9aatk1vzht7728km19ck9gzkt,JCrwHQzk,2020-0188,2020-11-18,15:17:53,15:40:59,NA,incomplete,125,filling,1,left,Red_Star_Grid_2.jpg,Green_Circle_Grid_4.jpg,Red_Plus_Dots_3.jpg,left,918.6550000449643,true,low,NA,NA,NA,NA,NA,NA,NA,false
JCrwHQzk,3icohx7eofotocxdgkfntnxt5xb0e8,3of2m9aatk1vzht7728km19ck9gzkt,JCrwHQzk,2020-0188,2020-11-18,15:17:53,15:40:59,NA,incomplete,126,filling,1,right,Blue_Plus_Stripes_1.jpg,Blue_Triangle_Dots_4.jpg,Green_Star_Stripes_2.jpg,right,880.9299999848008,true,low,NA,NA,NA,NA,NA,NA,NA,false
JCrwHQzk,3icohx7eofotocxdgkfntnxt5xb0e8,3of2m9aatk1vzht7728km19ck9gzkt,JCrwHQzk,2020-0188,2020-11-18,15:17:53,15:40:59,NA,incomplete,127,filling,1,left,Red_Star_Chess_2.jpg,Purple_Circle_Chess_3.jpg,Red_Plus_Stripes_1.jpg,left,892.0050000306219,true,low,NA,NA,NA,NA,NA,NA,NA,false
JCrwHQzk,3icohx7eofotocxdgkfntnxt5xb0e8,3of2m9aatk1vzht7728km19ck9gzkt,JCrwHQzk,2020-0188,2020-11-18,15:17:53,15:40:59,NA,incomplete,128,filling,0,left,Red_Star_Stripes_4.jpg,Blue_Plus_Stripes_3.jpg,Red_Triangle_Chess_1.jpg,left,1008.4999999962747,true,low,NA,NA,NA,NA,NA,NA,NA,false
JCrwHQzk,3icohx7eofotocxdgkfntnxt5xb0e8,3of2m9aatk1vzht7728km19ck9gzkt,JCrwHQzk,2020-0188,2020-11-18,15:17:53,15:40:59,NA,incomplete,129,filling,1,left,Blue_Plus_Grid_2.jpg,Red_Circle_Grid_4.jpg,Blue_Star_Dots_3.jpg,left,798.0799999786541,true,low,NA,NA,NA,NA,NA,NA,NA,false
JCrwHQzk,3icohx7eofotocxdgkfntnxt5xb0e8,3of2m9aatk1vzht7728km19ck9gzkt,JCrwHQzk,2020-0188,2020-11-18,15:17:53,15:40:59,NA,incomplete,130,filling,1,left,Green_Star_Grid_1.jpg,Purple_Triangle_Grid_2.jpg,Green_Plus_Chess_4.jpg,left,879.0299999527633,true,low,NA,NA,NA,NA,NA,NA,NA,false
JCrwHQzk,3icohx7eofotocxdgkfntnxt5xb0e8,3of2m9aatk1vzht7728km19ck9gzkt,JCrwHQzk,2020-0188,2020-11-18,15:17:53,15:40:59,NA,incomplete,131,filling,1,left,Blue_Plus_Stripes_2.jpg,Green_Triangle_Stripes_1.jpg,Blue_Circle_Chess_3.jpg,left,1336.864999961108,true,low,NA,NA,NA,NA,NA,NA,NA,false
JCrwHQzk,3icohx7eofotocxdgkfntnxt5xb0e8,3of2m9aatk1vzht7728km19ck9gzkt,JCrwHQzk,2020-0188,2020-11-18,15:17:53,15:40:59,NA,incomplete,132,filling,1,left,Blue_Triangle_Dots_2.jpg,Purple_Circle_Dots_1.jpg,Blue_Plus_Stripes_4.jpg,left,871.8349999981001,true,low,NA,NA,NA,NA,NA,NA,NA,false
JCrwHQzk,3icohx7eofotocxdgkfntnxt5xb0e8,3of2m9aatk1vzht7728km19ck9gzkt,JCrwHQzk,2020-0188,2020-11-18,15:17:53,15:40:59,NA,incomplete,133,filling,1,left,Red_Plus_Grid_2.jpg,Purple_Triangle_Grid_3.jpg,Red_Star_Chess_4.jpg,left,714.8700000252575,true,low,NA,NA,NA,NA,NA,NA,NA,false
JCrwHQzk,3icohx7eofotocxdgkfntnxt5xb0e8,3of2m9aatk1vzht7728km19ck9gzkt,JCrwHQzk,2020-0188,2020-11-18,15:17:53,15:40:59,NA,incomplete,134,filling,0,right,Blue_Circle_Dots_2.jpg,Blue_Star_Chess_3.jpg,Red_Plus_Dots_4.jpg,right,982.1950000477955,true,low,NA,NA,NA,NA,NA,NA,NA,false
JCrwHQzk,3icohx7eofotocxdgkfntnxt5xb0e8,3of2m9aatk1vzht7728km19ck9gzkt,JCrwHQzk,2020-0188,2020-11-18,15:17:53,15:40:59,NA,incomplete,135,filling,1,right,Purple_Circle_Grid_3.jpg,Purple_Plus_Chess_1.jpg,Red_Star_Grid_4.jpg,right,1024.1350000724196,true,low,NA,NA,NA,NA,NA,NA,NA,false
JCrwHQzk,3icohx7eofotocxdgkfntnxt5xb0e8,3of2m9aatk1vzht7728km19ck9gzkt,JCrwHQzk,2020-0188,2020-11-18,15:17:53,15:40:59,NA,incomplete,136,filling,1,right,Red_Triangle_Dots_3.jpg,Red_Circle_Stripes_2.jpg,Purple_Star_Dots_4.jpg,right,964.5699999528006,true,low,NA,NA,NA,NA,NA,NA,NA,false
JCrwHQzk,3icohx7eofotocxdgkfntnxt5xb0e8,3of2m9aatk1vzht7728km19ck9gzkt,JCrwHQzk,2020-0188,2020-11-18,15:17:53,15:40:59,NA,incomplete,137,filling,1,left,Blue_Circle_Dots_1.jpg,Red_Plus_Dots_4.jpg,Blue_Triangle_Stripes_2.jpg,left,882.6099999714643,true,low,NA,NA,NA,NA,NA,NA,NA,false
JCrwHQzk,3icohx7eofotocxdgkfntnxt5xb0e8,3of2m9aatk1vzht7728km19ck9gzkt,JCrwHQzk,2020-0188,2020-11-18,15:17:53,15:40:59,NA,incomplete,138,filling,1,right,Blue_Triangle_Stripes_3.jpg,Blue_Plus_Dots_2.jpg,Purple_Circle_Stripes_1.jpg,right,1099.4599999394268,true,low,NA,NA,NA,NA,NA,NA,NA,false
JCrwHQzk,3icohx7eofotocxdgkfntnxt5xb0e8,3of2m9aatk1vzht7728km19ck9gzkt,JCrwHQzk,2020-0188,2020-11-18,15:17:53,15:40:59,NA,incomplete,139,filling,1,left,Green_Triangle_Grid_4.jpg,Blue_Star_Grid_3.jpg,Green_Circle_Chess_1.jpg,left,1067.1950000105426,true,low,NA,NA,NA,NA,NA,NA,NA,false
JCrwHQzk,3icohx7eofotocxdgkfntnxt5xb0e8,3of2m9aatk1vzht7728km19ck9gzkt,JCrwHQzk,2020-0188,2020-11-18,15:17:53,15:40:59,NA,incomplete,140,color,1,right,Green_Plus_Chess_3.jpg,Purple_Triangle_Chess_1.jpg,Green_Circle_Stripes_2.jpg,left,1061.0600000945851,false,low,NA,NA,NA,NA,NA,NA,NA,false
JCrwHQzk,3icohx7eofotocxdgkfntnxt5xb0e8,3of2m9aatk1vzht7728km19ck9gzkt,JCrwHQzk,2020-0188,2020-11-18,15:17:53,15:40:59,NA,incomplete,141,color,1,left,Red_Plus_Dots_2.jpg,Red_Circle_Grid_3.jpg,Blue_Triangle_Dots_4.jpg,right,1024.5949999662116,false,low,NA,NA,NA,NA,NA,NA,NA,false
JCrwHQzk,3icohx7eofotocxdgkfntnxt5xb0e8,3of2m9aatk1vzht7728km19ck9gzkt,JCrwHQzk,2020-0188,2020-11-18,15:17:53,15:40:59,NA,incomplete,142,color,1,left,Blue_Triangle_Stripes_1.jpg,Blue_Plus_Chess_4.jpg,Green_Circle_Stripes_3.jpg,right,1045.1699999393895,false,low,NA,NA,NA,NA,NA,NA,NA,false
JCrwHQzk,3icohx7eofotocxdgkfntnxt5xb0e8,3of2m9aatk1vzht7728km19ck9gzkt,JCrwHQzk,2020-0188,2020-11-18,15:17:53,15:40:59,NA,incomplete,143,color,1,left,Red_Circle_Stripes_1.jpg,Red_Star_Chess_4.jpg,Blue_Triangle_Stripes_2.jpg,right,830.2799999946728,false,low,NA,NA,NA,NA,NA,NA,NA,false
JCrwHQzk,3icohx7eofotocxdgkfntnxt5xb0e8,3of2m9aatk1vzht7728km19ck9gzkt,JCrwHQzk,2020-0188,2020-11-18,15:17:53,15:40:59,NA,incomplete,144,color,1,right,Green_Plus_Stripes_3.jpg,Purple_Circle_Stripes_1.jpg,Green_Triangle_Dots_4.jpg,left,750.3199999919161,false,low,NA,NA,NA,NA,NA,NA,NA,false
JCrwHQzk,3icohx7eofotocxdgkfntnxt5xb0e8,3of2m9aatk1vzht7728km19ck9gzkt,JCrwHQzk,2020-0188,2020-11-18,15:17:53,15:40:59,NA,incomplete,145,color,1,right,Blue_Triangle_Grid_2.jpg,Red_Circle_Grid_4.jpg,Blue_Plus_Chess_3.jpg,left,902.6099999900907,false,low,NA,NA,NA,NA,NA,NA,NA,false
JCrwHQzk,3icohx7eofotocxdgkfntnxt5xb0e8,3of2m9aatk1vzht7728km19ck9gzkt,JCrwHQzk,2020-0188,2020-11-18,15:17:53,15:40:59,NA,incomplete,146,color,1,right,Green_Circle_Grid_1.jpg,Blue_Star_Grid_2.jpg,Green_Plus_Chess_4.jpg,left,953.6549999611452,false,low,NA,NA,NA,NA,NA,NA,NA,false
JCrwHQzk,3icohx7eofotocxdgkfntnxt5xb0e8,3of2m9aatk1vzht7728km19ck9gzkt,JCrwHQzk,2020-0188,2020-11-18,15:17:53,15:40:59,NA,incomplete,147,color,1,left,Purple_Star_Dots_3.jpg,Purple_Circle_Grid_1.jpg,Blue_Triangle_Dots_4.jpg,right,1086.475000018254,false,low,NA,NA,NA,NA,NA,NA,NA,false
JCrwHQzk,3icohx7eofotocxdgkfntnxt5xb0e8,3of2m9aatk1vzht7728km19ck9gzkt,JCrwHQzk,2020-0188,2020-11-18,15:17:53,15:40:59,NA,incomplete,148,color,1,right,Purple_Triangle_Grid_4.jpg,Green_Star_Grid_3.jpg,Purple_Circle_Chess_1.jpg,left,1045.1549999415874,false,low,NA,NA,NA,NA,NA,NA,NA,false
JCrwHQzk,3icohx7eofotocxdgkfntnxt5xb0e8,3of2m9aatk1vzht7728km19ck9gzkt,JCrwHQzk,2020-0188,2020-11-18,15:17:53,15:40:59,NA,incomplete,149,color,0,right,Purple_Circle_Stripes_2.jpg,Blue_Plus_Stripes_3.jpg,Purple_Star_Chess_4.jpg,right,1072.4900000495836,true,low,NA,NA,NA,NA,NA,NA,NA,false
JCrwHQzk,3icohx7eofotocxdgkfntnxt5xb0e8,3of2m9aatk1vzht7728km19ck9gzkt,JCrwHQzk,2020-0188,2020-11-18,15:17:53,15:40:59,NA,incomplete,150,color,1,left,Green_Circle_Dots_3.jpg,Green_Star_Chess_4.jpg,Blue_Plus_Dots_2.jpg,right,1858.379999990575,false,low,NA,NA,NA,NA,NA,NA,NA,false
JCrwHQzk,3icohx7eofotocxdgkfntnxt5xb0e8,3of2m9aatk1vzht7728km19ck9gzkt,JCrwHQzk,2020-0188,2020-11-18,15:17:53,15:40:59,NA,incomplete,151,color,1,left,Red_Star_Grid_3.jpg,Red_Triangle_Chess_4.jpg,Green_Plus_Grid_2.jpg,right,1061.794999986887,false,low,NA,NA,NA,NA,NA,NA,NA,false
JCrwHQzk,3icohx7eofotocxdgkfntnxt5xb0e8,3of2m9aatk1vzht7728km19ck9gzkt,JCrwHQzk,2020-0188,2020-11-18,15:17:53,15:40:59,NA,incomplete,152,color,1,right,Purple_Circle_Chess_1.jpg,Green_Triangle_Chess_2.jpg,Purple_Plus_Grid_4.jpg,left,952.8599999612197,false,low,NA,NA,NA,NA,NA,NA,NA,false
JCrwHQzk,3icohx7eofotocxdgkfntnxt5xb0e8,3of2m9aatk1vzht7728km19ck9gzkt,JCrwHQzk,2020-0188,2020-11-18,15:17:53,15:40:59,NA,incomplete,153,color,0,left,Purple_Triangle_Chess_4.jpg,Purple_Plus_Dots_1.jpg,Blue_Star_Chess_2.jpg,left,1845.494999899529,true,low,NA,NA,NA,NA,NA,NA,NA,false
JCrwHQzk,3icohx7eofotocxdgkfntnxt5xb0e8,3of2m9aatk1vzht7728km19ck9gzkt,JCrwHQzk,2020-0188,2020-11-18,15:17:53,15:40:59,NA,incomplete,154,color,1,right,Purple_Plus_Stripes_4.jpg,Green_Triangle_Stripes_1.jpg,Purple_Circle_Dots_2.jpg,right,1176.534999976866,true,low,NA,NA,NA,NA,NA,NA,NA,false
JCrwHQzk,3icohx7eofotocxdgkfntnxt5xb0e8,3of2m9aatk1vzht7728km19ck9gzkt,JCrwHQzk,2020-0188,2020-11-18,15:17:53,15:40:59,NA,incomplete,155,color,1,right,Blue_Star_Grid_2.jpg,Red_Triangle_Grid_1.jpg,Blue_Plus_Chess_3.jpg,right,790.1449999772012,true,low,NA,NA,NA,NA,NA,NA,NA,false
JCrwHQzk,3icohx7eofotocxdgkfntnxt5xb0e8,3of2m9aatk1vzht7728km19ck9gzkt,JCrwHQzk,2020-0188,2020-11-18,15:17:53,15:40:59,NA,incomplete,156,color,0,right,Green_Star_Stripes_3.jpg,Blue_Triangle_Stripes_2.jpg,Green_Circle_Chess_4.jpg,right,933.5149999242276,true,low,NA,NA,NA,NA,NA,NA,NA,false
JCrwHQzk,3icohx7eofotocxdgkfntnxt5xb0e8,3of2m9aatk1vzht7728km19ck9gzkt,JCrwHQzk,2020-0188,2020-11-18,15:17:53,15:40:59,NA,incomplete,157,color,1,right,Red_Triangle_Chess_2.jpg,Purple_Plus_Chess_3.jpg,Red_Star_Dots_1.jpg,right,643.915000022389,true,low,NA,NA,NA,NA,NA,NA,NA,false
JCrwHQzk,3icohx7eofotocxdgkfntnxt5xb0e8,3of2m9aatk1vzht7728km19ck9gzkt,JCrwHQzk,2020-0188,2020-11-18,15:17:53,15:40:59,NA,incomplete,158,color,1,right,Green_Plus_Stripes_4.jpg,Purple_Circle_Stripes_1.jpg,Green_Star_Dots_3.jpg,right,491.2750000366941,true,low,NA,NA,NA,NA,NA,NA,NA,false
JCrwHQzk,3icohx7eofotocxdgkfntnxt5xb0e8,3of2m9aatk1vzht7728km19ck9gzkt,JCrwHQzk,2020-0188,2020-11-18,15:17:53,15:40:59,NA,incomplete,159,color,1,left,Red_Triangle_Dots_2.jpg,Red_Circle_Chess_1.jpg,Blue_Star_Dots_3.jpg,left,573.24499997776,true,low,NA,NA,NA,NA,NA,NA,NA,false
JCrwHQzk,3icohx7eofotocxdgkfntnxt5xb0e8,3of2m9aatk1vzht7728km19ck9gzkt,JCrwHQzk,2020-0188,2020-11-18,15:17:53,15:40:59,NA,incomplete,160,filling,0,right,Blue_Circle_Chess_2.jpg,Blue_Plus_Stripes_3.jpg,Red_Star_Chess_4.jpg,right,387.82499998342246,true,low,NA,NA,NA,NA,NA,NA,NA,false
JCrwHQzk,3icohx7eofotocxdgkfntnxt5xb0e8,3of2m9aatk1vzht7728km19ck9gzkt,JCrwHQzk,2020-0188,2020-11-18,15:17:53,15:40:59,NA,incomplete,161,filling,1,right,Blue_Triangle_Grid_4.jpg,Blue_Plus_Dots_1.jpg,Green_Circle_Grid_2.jpg,left,411.38999990653247,false,low,NA,NA,NA,NA,NA,NA,NA,false
JCrwHQzk,3icohx7eofotocxdgkfntnxt5xb0e8,3of2m9aatk1vzht7728km19ck9gzkt,JCrwHQzk,2020-0188,2020-11-18,15:17:53,15:40:59,NA,incomplete,162,filling,1,right,Red_Circle_Grid_4.jpg,Red_Plus_Dots_3.jpg,Green_Star_Grid_1.jpg,right,985.2399999508634,true,low,NA,NA,NA,NA,NA,NA,NA,false
JCrwHQzk,3icohx7eofotocxdgkfntnxt5xb0e8,3of2m9aatk1vzht7728km19ck9gzkt,JCrwHQzk,2020-0188,2020-11-18,15:17:53,15:40:59,NA,incomplete,163,filling,1,right,Purple_Triangle_Grid_3.jpg,Purple_Star_Dots_1.jpg,Red_Circle_Grid_2.jpg,right,699.4900000281632,true,low,NA,NA,NA,NA,NA,NA,NA,false
JCrwHQzk,3icohx7eofotocxdgkfntnxt5xb0e8,3of2m9aatk1vzht7728km19ck9gzkt,JCrwHQzk,2020-0188,2020-11-18,15:17:53,15:40:59,NA,incomplete,164,filling,1,right,Blue_Star_Dots_1.jpg,Blue_Circle_Chess_4.jpg,Purple_Triangle_Dots_3.jpg,left,1483.765000011772,false,low,NA,NA,NA,NA,NA,NA,NA,false
JCrwHQzk,3icohx7eofotocxdgkfntnxt5xb0e8,3of2m9aatk1vzht7728km19ck9gzkt,JCrwHQzk,2020-0188,2020-11-18,15:17:53,15:40:59,NA,incomplete,165,filling,1,right,Blue_Plus_Chess_2.jpg,Blue_Triangle_Dots_4.jpg,Green_Circle_Chess_3.jpg,right,911.8599999928847,true,low,NA,NA,NA,NA,NA,NA,NA,false
JCrwHQzk,3icohx7eofotocxdgkfntnxt5xb0e8,3of2m9aatk1vzht7728km19ck9gzkt,JCrwHQzk,2020-0188,2020-11-18,15:17:53,15:40:59,NA,incomplete,166,filling,1,left,Green_Triangle_Grid_3.jpg,Purple_Circle_Grid_2.jpg,Green_Star_Chess_1.jpg,left,923.2349999947473,true,low,NA,NA,NA,NA,NA,NA,NA,false
JCrwHQzk,3icohx7eofotocxdgkfntnxt5xb0e8,3of2m9aatk1vzht7728km19ck9gzkt,JCrwHQzk,2020-0188,2020-11-18,15:17:53,15:40:59,NA,incomplete,167,filling,1,right,Green_Plus_Dots_3.jpg,Green_Circle_Grid_4.jpg,Red_Star_Dots_1.jpg,right,1007.9699999187142,true,low,NA,NA,NA,NA,NA,NA,NA,false
JCrwHQzk,3icohx7eofotocxdgkfntnxt5xb0e8,3of2m9aatk1vzht7728km19ck9gzkt,JCrwHQzk,2020-0188,2020-11-18,15:17:53,15:40:59,NA,incomplete,168,filling,1,left,Red_Star_Grid_1.jpg,Blue_Circle_Grid_4.jpg,Red_Triangle_Chess_2.jpg,left,826.1049999855459,true,low,NA,NA,NA,NA,NA,NA,NA,false
JCrwHQzk,3icohx7eofotocxdgkfntnxt5xb0e8,3of2m9aatk1vzht7728km19ck9gzkt,JCrwHQzk,2020-0188,2020-11-18,15:17:53,15:40:59,NA,incomplete,169,filling,0,left,Blue_Circle_Stripes_4.jpg,Purple_Plus_Stripes_2.jpg,Blue_Triangle_Chess_3.jpg,left,1019.5800000801682,true,low,NA,NA,NA,NA,NA,NA,NA,false
JCrwHQzk,3icohx7eofotocxdgkfntnxt5xb0e8,3of2m9aatk1vzht7728km19ck9gzkt,JCrwHQzk,2020-0188,2020-11-18,15:17:53,15:40:59,NA,incomplete,170,filling,1,left,Red_Circle_Stripes_2.jpg,Green_Triangle_Stripes_3.jpg,Red_Star_Chess_1.jpg,left,845.2400000533089,true,low,NA,NA,NA,NA,NA,NA,NA,false
JCrwHQzk,3icohx7eofotocxdgkfntnxt5xb0e8,3of2m9aatk1vzht7728km19ck9gzkt,JCrwHQzk,2020-0188,2020-11-18,15:17:53,15:40:59,NA,incomplete,171,filling,0,right,Red_Circle_Dots_2.jpg,Red_Star_Grid_4.jpg,Blue_Plus_Dots_3.jpg,right,954.8649999778718,true,low,NA,NA,NA,NA,NA,NA,NA,false
JCrwHQzk,3icohx7eofotocxdgkfntnxt5xb0e8,3of2m9aatk1vzht7728km19ck9gzkt,JCrwHQzk,2020-0188,2020-11-18,15:17:53,15:40:59,NA,incomplete,172,filling,1,left,Red_Star_Chess_2.jpg,Purple_Plus_Chess_4.jpg,Red_Circle_Dots_1.jpg,left,790.6799999764189,true,low,NA,NA,NA,NA,NA,NA,NA,false
JCrwHQzk,3icohx7eofotocxdgkfntnxt5xb0e8,3of2m9aatk1vzht7728km19ck9gzkt,JCrwHQzk,2020-0188,2020-11-18,15:17:53,15:40:59,NA,incomplete,173,filling,0,right,Red_Plus_Grid_2.jpg,Red_Circle_Stripes_1.jpg,Purple_Star_Grid_3.jpg,left,835.0899999495596,false,low,NA,NA,NA,NA,NA,NA,NA,false
JCrwHQzk,3icohx7eofotocxdgkfntnxt5xb0e8,3of2m9aatk1vzht7728km19ck9gzkt,JCrwHQzk,2020-0188,2020-11-18,15:17:53,15:40:59,NA,incomplete,174,filling,1,left,Purple_Plus_Stripes_2.jpg,Blue_Star_Stripes_3.jpg,Purple_Circle_Grid_1.jpg,right,521.1400000844151,false,low,NA,NA,NA,NA,NA,NA,NA,false
JCrwHQzk,3icohx7eofotocxdgkfntnxt5xb0e8,3of2m9aatk1vzht7728km19ck9gzkt,JCrwHQzk,2020-0188,2020-11-18,15:17:53,15:40:59,NA,incomplete,175,filling,1,right,Blue_Circle_Stripes_4.jpg,Blue_Star_Grid_1.jpg,Red_Triangle_Stripes_3.jpg,right,894.5400000084192,true,low,NA,NA,NA,NA,NA,NA,NA,false
JCrwHQzk,3icohx7eofotocxdgkfntnxt5xb0e8,3of2m9aatk1vzht7728km19ck9gzkt,JCrwHQzk,2020-0188,2020-11-18,15:17:53,15:40:59,NA,incomplete,176,filling,1,right,Green_Plus_Dots_4.jpg,Green_Star_Grid_3.jpg,Purple_Triangle_Dots_1.jpg,right,1222.4700000369921,true,low,NA,NA,NA,NA,NA,NA,NA,false
JCrwHQzk,3icohx7eofotocxdgkfntnxt5xb0e8,3of2m9aatk1vzht7728km19ck9gzkt,JCrwHQzk,2020-0188,2020-11-18,15:17:53,15:40:59,NA,incomplete,177,filling,1,left,Green_Plus_Grid_1.jpg,Blue_Triangle_Grid_3.jpg,Green_Star_Chess_4.jpg,left,1431.3750000437722,true,low,NA,NA,NA,NA,NA,NA,NA,false
JCrwHQzk,3icohx7eofotocxdgkfntnxt5xb0e8,3of2m9aatk1vzht7728km19ck9gzkt,JCrwHQzk,2020-0188,2020-11-18,15:17:53,15:40:59,NA,incomplete,178,filling,1,left,Blue_Circle_Stripes_3.jpg,Red_Star_Stripes_2.jpg,Blue_Triangle_Grid_4.jpg,left,1080.0750000635162,true,low,NA,NA,NA,NA,NA,NA,NA,false
JCrwHQzk,3icohx7eofotocxdgkfntnxt5xb0e8,3of2m9aatk1vzht7728km19ck9gzkt,JCrwHQzk,2020-0188,2020-11-18,15:17:53,15:40:59,NA,incomplete,179,filling,1,left,Red_Plus_Chess_2.jpg,Blue_Circle_Chess_3.jpg,Red_Star_Dots_1.jpg,left,1517.6350000547245,true,low,NA,NA,NA,NA,NA,NA,NA,false
JCrwHQzk,3icohx7eofotocxdgkfntnxt5xb0e8,3of2m9aatk1vzht7728km19ck9gzkt,JCrwHQzk,2020-0188,2020-11-18,15:17:53,15:40:59,NA,incomplete,180,color,1,left,Red_Star_Stripes_2.jpg,Red_Triangle_Chess_4.jpg,Green_Plus_Stripes_1.jpg,right,926.9649999914691,false,low,NA,NA,NA,NA,NA,NA,NA,false
JCrwHQzk,3icohx7eofotocxdgkfntnxt5xb0e8,3of2m9aatk1vzht7728km19ck9gzkt,JCrwHQzk,2020-0188,2020-11-18,15:17:53,15:40:59,NA,incomplete,181,color,0,left,Blue_Circle_Chess_1.jpg,Blue_Plus_Grid_3.jpg,Green_Triangle_Chess_4.jpg,right,815.3549999697134,false,low,NA,NA,NA,NA,NA,NA,NA,false
JCrwHQzk,3icohx7eofotocxdgkfntnxt5xb0e8,3of2m9aatk1vzht7728km19ck9gzkt,JCrwHQzk,2020-0188,2020-11-18,15:17:53,15:40:59,NA,incomplete,182,color,1,right,Red_Star_Chess_2.jpg,Green_Plus_Chess_4.jpg,Red_Circle_Dots_1.jpg,left,940.1399999624118,false,low,NA,NA,NA,NA,NA,NA,NA,false
JCrwHQzk,3icohx7eofotocxdgkfntnxt5xb0e8,3of2m9aatk1vzht7728km19ck9gzkt,JCrwHQzk,2020-0188,2020-11-18,15:17:53,15:40:59,NA,incomplete,183,color,0,right,Red_Plus_Chess_1.jpg,Purple_Circle_Chess_3.jpg,Red_Star_Stripes_4.jpg,left,1039.684999966994,false,low,NA,NA,NA,NA,NA,NA,NA,false
JCrwHQzk,3icohx7eofotocxdgkfntnxt5xb0e8,3of2m9aatk1vzht7728km19ck9gzkt,JCrwHQzk,2020-0188,2020-11-18,15:17:53,15:40:59,NA,incomplete,184,color,1,right,Red_Star_Stripes_3.jpg,Green_Triangle_Stripes_1.jpg,Red_Plus_Dots_4.jpg,left,911.420000018552,false,low,NA,NA,NA,NA,NA,NA,NA,false
JCrwHQzk,3icohx7eofotocxdgkfntnxt5xb0e8,3of2m9aatk1vzht7728km19ck9gzkt,JCrwHQzk,2020-0188,2020-11-18,15:17:53,15:40:59,NA,incomplete,185,color,1,left,Purple_Circle_Grid_3.jpg,Purple_Star_Dots_4.jpg,Red_Plus_Grid_1.jpg,right,947.5150000071153,false,low,NA,NA,NA,NA,NA,NA,NA,false
JCrwHQzk,3icohx7eofotocxdgkfntnxt5xb0e8,3of2m9aatk1vzht7728km19ck9gzkt,JCrwHQzk,2020-0188,2020-11-18,15:17:53,15:40:59,NA,incomplete,186,color,0,right,Red_Triangle_Dots_2.jpg,Blue_Plus_Dots_3.jpg,Red_Circle_Grid_1.jpg,left,958.1350000808015,false,low,NA,NA,NA,NA,NA,NA,NA,false
JCrwHQzk,3icohx7eofotocxdgkfntnxt5xb0e8,3of2m9aatk1vzht7728km19ck9gzkt,JCrwHQzk,2020-0188,2020-11-18,15:17:53,15:40:59,NA,incomplete,187,color,1,left,Green_Plus_Grid_1.jpg,Green_Star_Stripes_2.jpg,Red_Triangle_Grid_4.jpg,right,979.605000000447,false,low,NA,NA,NA,NA,NA,NA,NA,false
JCrwHQzk,3icohx7eofotocxdgkfntnxt5xb0e8,3of2m9aatk1vzht7728km19ck9gzkt,JCrwHQzk,2020-0188,2020-11-18,15:17:53,15:40:59,NA,incomplete,188,color,1,left,Purple_Circle_Stripes_4.jpg,Purple_Plus_Dots_2.jpg,Green_Star_Stripes_1.jpg,right,835.9350000973791,false,low,NA,NA,NA,NA,NA,NA,NA,false
JCrwHQzk,3icohx7eofotocxdgkfntnxt5xb0e8,3of2m9aatk1vzht7728km19ck9gzkt,JCrwHQzk,2020-0188,2020-11-18,15:17:53,15:40:59,NA,incomplete,189,color,1,left,Blue_Circle_Chess_3.jpg,Blue_Plus_Stripes_1.jpg,Green_Triangle_Chess_4.jpg,left,1004.4850000413135,true,low,NA,NA,NA,NA,NA,NA,NA,false
JCrwHQzk,3icohx7eofotocxdgkfntnxt5xb0e8,3of2m9aatk1vzht7728km19ck9gzkt,JCrwHQzk,2020-0188,2020-11-18,15:17:53,15:40:59,NA,incomplete,190,color,1,right,Blue_Plus_Dots_4.jpg,Green_Star_Dots_1.jpg,Blue_Triangle_Grid_3.jpg,right,457.3600000003353,true,low,NA,NA,NA,NA,NA,NA,NA,false
JCrwHQzk,3icohx7eofotocxdgkfntnxt5xb0e8,3of2m9aatk1vzht7728km19ck9gzkt,JCrwHQzk,2020-0188,2020-11-18,15:17:53,15:40:59,NA,incomplete,191,color,0,left,Red_Plus_Chess_2.jpg,Red_Circle_Grid_1.jpg,Green_Triangle_Chess_3.jpg,left,428.39499993715435,true,low,NA,NA,NA,NA,NA,NA,NA,false
JCrwHQzk,3icohx7eofotocxdgkfntnxt5xb0e8,3of2m9aatk1vzht7728km19ck9gzkt,JCrwHQzk,2020-0188,2020-11-18,15:17:53,15:40:59,NA,incomplete,192,color,1,left,Purple_Star_Chess_1.jpg,Purple_Circle_Stripes_3.jpg,Red_Triangle_Chess_2.jpg,left,479.4150000670925,true,low,NA,NA,NA,NA,NA,NA,NA,false
JCrwHQzk,3icohx7eofotocxdgkfntnxt5xb0e8,3of2m9aatk1vzht7728km19ck9gzkt,JCrwHQzk,2020-0188,2020-11-18,15:17:53,15:40:59,NA,incomplete,193,color,1,left,Red_Star_Grid_2.jpg,Red_Circle_Chess_1.jpg,Blue_Triangle_Grid_3.jpg,left,1221.5099999448285,true,low,NA,NA,NA,NA,NA,NA,NA,false
JCrwHQzk,3icohx7eofotocxdgkfntnxt5xb0e8,3of2m9aatk1vzht7728km19ck9gzkt,JCrwHQzk,2020-0188,2020-11-18,15:17:53,15:40:59,NA,incomplete,194,color,1,right,Purple_Plus_Stripes_4.jpg,Green_Circle_Stripes_1.jpg,Purple_Star_Grid_3.jpg,right,606.2500000698492,true,low,NA,NA,NA,NA,NA,NA,NA,false
JCrwHQzk,3icohx7eofotocxdgkfntnxt5xb0e8,3of2m9aatk1vzht7728km19ck9gzkt,JCrwHQzk,2020-0188,2020-11-18,15:17:53,15:40:59,NA,incomplete,195,color,1,left,Red_Plus_Chess_2.jpg,Red_Star_Dots_3.jpg,Purple_Triangle_Chess_1.jpg,left,671.8799999216571,true,low,NA,NA,NA,NA,NA,NA,NA,false
JCrwHQzk,3icohx7eofotocxdgkfntnxt5xb0e8,3of2m9aatk1vzht7728km19ck9gzkt,JCrwHQzk,2020-0188,2020-11-18,15:17:53,15:40:59,NA,incomplete,196,color,1,left,Blue_Circle_Grid_2.jpg,Blue_Plus_Chess_3.jpg,Red_Star_Grid_4.jpg,left,570.8250000607222,true,low,NA,NA,NA,NA,NA,NA,NA,false
JCrwHQzk,3icohx7eofotocxdgkfntnxt5xb0e8,3of2m9aatk1vzht7728km19ck9gzkt,JCrwHQzk,2020-0188,2020-11-18,15:17:53,15:40:59,NA,incomplete,197,color,1,right,Purple_Triangle_Dots_3.jpg,Green_Star_Dots_2.jpg,Purple_Plus_Grid_4.jpg,right,507.48000002931803,true,low,NA,NA,NA,NA,NA,NA,NA,false
JCrwHQzk,3icohx7eofotocxdgkfntnxt5xb0e8,3of2m9aatk1vzht7728km19ck9gzkt,JCrwHQzk,2020-0188,2020-11-18,15:17:53,15:40:59,NA,incomplete,198,color,1,left,Red_Plus_Chess_3.jpg,Red_Triangle_Dots_2.jpg,Purple_Star_Chess_1.jpg,left,431.87999993097037,true,low,NA,NA,NA,NA,NA,NA,NA,false
JCrwHQzk,3icohx7eofotocxdgkfntnxt5xb0e8,3of2m9aatk1vzht7728km19ck9gzkt,JCrwHQzk,2020-0188,2020-11-18,15:17:53,15:40:59,NA,incomplete,199,color,0,right,Blue_Circle_Grid_3.jpg,Red_Triangle_Grid_4.jpg,Blue_Plus_Chess_1.jpg,right,536.8550000712276,true,low,NA,NA,NA,NA,NA,NA,NA,false
JCrwHQzk,3icohx7eofotocxdgkfntnxt5xb0e8,3of2m9aatk1vzht7728km19ck9gzkt,JCrwHQzk,2020-0188,2020-11-18,15:17:53,15:40:59,NA,incomplete,200,filling,1,right,Blue_Plus_Grid_3.jpg,Blue_Star_Dots_4.jpg,Purple_Triangle_Grid_1.jpg,left,464.6199999842793,false,low,NA,NA,NA,NA,NA,NA,NA,false
JCrwHQzk,3icohx7eofotocxdgkfntnxt5xb0e8,3of2m9aatk1vzht7728km19ck9gzkt,JCrwHQzk,2020-0188,2020-11-18,15:17:53,15:40:59,NA,incomplete,201,filling,1,right,Green_Triangle_Dots_1.jpg,Green_Circle_Chess_3.jpg,Blue_Star_Dots_2.jpg,left,604.5650000451133,false,low,NA,NA,NA,NA,NA,NA,NA,false
JCrwHQzk,3icohx7eofotocxdgkfntnxt5xb0e8,3of2m9aatk1vzht7728km19ck9gzkt,JCrwHQzk,2020-0188,2020-11-18,15:17:53,15:40:59,NA,incomplete,202,filling,1,right,Green_Triangle_Grid_4.jpg,Green_Star_Chess_1.jpg,Purple_Plus_Grid_3.jpg,right,912.099999957718,true,low,NA,NA,NA,NA,NA,NA,NA,false
JCrwHQzk,3icohx7eofotocxdgkfntnxt5xb0e8,3of2m9aatk1vzht7728km19ck9gzkt,JCrwHQzk,2020-0188,2020-11-18,15:17:53,15:40:59,NA,incomplete,203,filling,1,left,Purple_Plus_Dots_4.jpg,Red_Circle_Dots_3.jpg,Purple_Star_Chess_2.jpg,left,734.6699999179691,true,low,NA,NA,NA,NA,NA,NA,NA,false
JCrwHQzk,3icohx7eofotocxdgkfntnxt5xb0e8,3of2m9aatk1vzht7728km19ck9gzkt,JCrwHQzk,2020-0188,2020-11-18,15:17:53,15:40:59,NA,incomplete,204,filling,1,left,Red_Plus_Dots_2.jpg,Green_Triangle_Dots_4.jpg,Red_Star_Stripes_3.jpg,left,912.3150000814348,true,low,NA,NA,NA,NA,NA,NA,NA,false
JCrwHQzk,3icohx7eofotocxdgkfntnxt5xb0e8,3of2m9aatk1vzht7728km19ck9gzkt,JCrwHQzk,2020-0188,2020-11-18,15:17:53,15:40:59,NA,incomplete,205,filling,0,left,Red_Star_Chess_1.jpg,Blue_Triangle_Chess_3.jpg,Red_Plus_Grid_4.jpg,left,806.2700000591576,true,low,NA,NA,NA,NA,NA,NA,NA,false
JCrwHQzk,3icohx7eofotocxdgkfntnxt5xb0e8,3of2m9aatk1vzht7728km19ck9gzkt,JCrwHQzk,2020-0188,2020-11-18,15:17:53,15:40:59,NA,incomplete,206,filling,1,right,Blue_Triangle_Dots_2.jpg,Blue_Star_Chess_1.jpg,Red_Plus_Dots_3.jpg,right,876.4449999434873,true,low,NA,NA,NA,NA,NA,NA,NA,false
JCrwHQzk,3icohx7eofotocxdgkfntnxt5xb0e8,3of2m9aatk1vzht7728km19ck9gzkt,JCrwHQzk,2020-0188,2020-11-18,15:17:53,15:40:59,NA,incomplete,207,filling,0,left,Green_Plus_Dots_3.jpg,Purple_Circle_Dots_2.jpg,Green_Star_Grid_4.jpg,left,944.1400000359863,true,low,NA,NA,NA,NA,NA,NA,NA,false
JCrwHQzk,3icohx7eofotocxdgkfntnxt5xb0e8,3of2m9aatk1vzht7728km19ck9gzkt,JCrwHQzk,2020-0188,2020-11-18,15:17:53,15:40:59,NA,incomplete,208,filling,1,left,Green_Circle_Dots_1.jpg,Red_Plus_Dots_3.jpg,Green_Star_Chess_4.jpg,left,830.0650001037866,true,low,NA,NA,NA,NA,NA,NA,NA,false
JCrwHQzk,3icohx7eofotocxdgkfntnxt5xb0e8,3of2m9aatk1vzht7728km19ck9gzkt,JCrwHQzk,2020-0188,2020-11-18,15:17:53,15:40:59,NA,incomplete,209,filling,0,right,Purple_Circle_Stripes_1.jpg,Purple_Star_Dots_4.jpg,Blue_Plus_Stripes_3.jpg,right,792.1299999579787,true,low,NA,NA,NA,NA,NA,NA,NA,false
JCrwHQzk,3icohx7eofotocxdgkfntnxt5xb0e8,3of2m9aatk1vzht7728km19ck9gzkt,JCrwHQzk,2020-0188,2020-11-18,15:17:53,15:40:59,NA,incomplete,210,filling,1,left,Purple_Circle_Stripes_4.jpg,Green_Triangle_Stripes_3.jpg,Purple_Star_Dots_2.jpg,left,680.2949999691918,true,low,NA,NA,NA,NA,NA,NA,NA,false
JCrwHQzk,3icohx7eofotocxdgkfntnxt5xb0e8,3of2m9aatk1vzht7728km19ck9gzkt,JCrwHQzk,2020-0188,2020-11-18,15:17:53,15:40:59,NA,incomplete,211,filling,0,right,Red_Star_Stripes_2.jpg,Red_Plus_Dots_3.jpg,Green_Triangle_Stripes_1.jpg,right,894.6599999908358,true,low,NA,NA,NA,NA,NA,NA,NA,false
JCrwHQzk,3icohx7eofotocxdgkfntnxt5xb0e8,3of2m9aatk1vzht7728km19ck9gzkt,JCrwHQzk,2020-0188,2020-11-18,15:17:53,15:40:59,NA,incomplete,212,filling,1,left,Red_Circle_Grid_1.jpg,Green_Plus_Grid_2.jpg,Red_Triangle_Dots_3.jpg,left,889.0250000404194,true,low,NA,NA,NA,NA,NA,NA,NA,false
JCrwHQzk,3icohx7eofotocxdgkfntnxt5xb0e8,3of2m9aatk1vzht7728km19ck9gzkt,JCrwHQzk,2020-0188,2020-11-18,15:17:53,15:40:59,NA,incomplete,213,filling,1,right,Red_Star_Stripes_3.jpg,Red_Plus_Grid_1.jpg,Blue_Circle_Stripes_2.jpg,right,1018.1600000942126,true,low,NA,NA,NA,NA,NA,NA,NA,false
JCrwHQzk,3icohx7eofotocxdgkfntnxt5xb0e8,3of2m9aatk1vzht7728km19ck9gzkt,JCrwHQzk,2020-0188,2020-11-18,15:17:53,15:40:59,NA,incomplete,214,filling,1,left,Purple_Triangle_Stripes_2.jpg,Green_Star_Stripes_1.jpg,Purple_Circle_Dots_3.jpg,left,882.090000086464,true,low,NA,NA,NA,NA,NA,NA,NA,false
JCrwHQzk,3icohx7eofotocxdgkfntnxt5xb0e8,3of2m9aatk1vzht7728km19ck9gzkt,JCrwHQzk,2020-0188,2020-11-18,15:17:53,15:40:59,NA,incomplete,215,filling,1,left,Blue_Triangle_Dots_2.jpg,Purple_Star_Dots_4.jpg,Blue_Circle_Grid_1.jpg,right,652.6850000955164,false,low,NA,NA,NA,NA,NA,NA,NA,false
JCrwHQzk,3icohx7eofotocxdgkfntnxt5xb0e8,3of2m9aatk1vzht7728km19ck9gzkt,JCrwHQzk,2020-0188,2020-11-18,15:17:53,15:40:59,NA,incomplete,216,filling,1,right,Red_Star_Chess_1.jpg,Red_Circle_Dots_2.jpg,Blue_Plus_Chess_3.jpg,right,869.5649999426678,true,low,NA,NA,NA,NA,NA,NA,NA,false
JCrwHQzk,3icohx7eofotocxdgkfntnxt5xb0e8,3of2m9aatk1vzht7728km19ck9gzkt,JCrwHQzk,2020-0188,2020-11-18,15:17:53,15:40:59,NA,incomplete,217,filling,0,right,Blue_Star_Grid_2.jpg,Blue_Plus_Stripes_3.jpg,Green_Circle_Grid_1.jpg,right,1118.750000023283,true,low,NA,NA,NA,NA,NA,NA,NA,false
JCrwHQzk,3icohx7eofotocxdgkfntnxt5xb0e8,3of2m9aatk1vzht7728km19ck9gzkt,JCrwHQzk,2020-0188,2020-11-18,15:17:53,15:40:59,NA,incomplete,218,filling,1,left,Green_Triangle_Dots_4.jpg,Purple_Plus_Dots_3.jpg,Green_Star_Stripes_2.jpg,right,545.0000000419095,false,low,NA,NA,NA,NA,NA,NA,NA,false
JCrwHQzk,3icohx7eofotocxdgkfntnxt5xb0e8,3of2m9aatk1vzht7728km19ck9gzkt,JCrwHQzk,2020-0188,2020-11-18,15:17:53,15:40:59,NA,incomplete,219,filling,0,left,Red_Plus_Stripes_3.jpg,Purple_Triangle_Stripes_1.jpg,Red_Star_Dots_4.jpg,right,602.1900000050664,false,low,NA,NA,NA,NA,NA,NA,NA,false
JCrwHQzk,3icohx7eofotocxdgkfntnxt5xb0e8,3of2m9aatk1vzht7728km19ck9gzkt,JCrwHQzk,2020-0188,2020-11-18,15:17:53,15:40:59,NA,incomplete,220,color,1,right,Blue_Plus_Stripes_2.jpg,Red_Circle_Stripes_1.jpg,Blue_Star_Grid_3.jpg,right,648.2499999692664,true,low,NA,NA,NA,NA,NA,NA,NA,false
JCrwHQzk,3icohx7eofotocxdgkfntnxt5xb0e8,3of2m9aatk1vzht7728km19ck9gzkt,JCrwHQzk,2020-0188,2020-11-18,15:17:53,15:40:59,NA,incomplete,221,color,1,right,Red_Triangle_Grid_4.jpg,Blue_Plus_Grid_2.jpg,Red_Circle_Chess_1.jpg,right,501.6699999105185,true,low,NA,NA,NA,NA,NA,NA,NA,false
JCrwHQzk,3icohx7eofotocxdgkfntnxt5xb0e8,3of2m9aatk1vzht7728km19ck9gzkt,JCrwHQzk,2020-0188,2020-11-18,15:17:53,15:40:59,NA,incomplete,222,color,1,left,Purple_Circle_Dots_2.jpg,Purple_Plus_Chess_3.jpg,Blue_Star_Dots_4.jpg,left,575.1600000075996,true,low,NA,NA,NA,NA,NA,NA,NA,false
JCrwHQzk,3icohx7eofotocxdgkfntnxt5xb0e8,3of2m9aatk1vzht7728km19ck9gzkt,JCrwHQzk,2020-0188,2020-11-18,15:17:53,15:40:59,NA,incomplete,223,color,1,right,Blue_Triangle_Dots_4.jpg,Purple_Plus_Dots_1.jpg,Blue_Circle_Stripes_3.jpg,right,555.3050000453368,true,low,NA,NA,NA,NA,NA,NA,NA,false
JCrwHQzk,3icohx7eofotocxdgkfntnxt5xb0e8,3of2m9aatk1vzht7728km19ck9gzkt,JCrwHQzk,2020-0188,2020-11-18,15:17:53,15:40:59,NA,incomplete,224,color,1,left,Red_Triangle_Chess_1.jpg,Red_Plus_Stripes_4.jpg,Green_Star_Chess_3.jpg,left,607.1500000543892,true,low,NA,NA,NA,NA,NA,NA,NA,false
JCrwHQzk,3icohx7eofotocxdgkfntnxt5xb0e8,3of2m9aatk1vzht7728km19ck9gzkt,JCrwHQzk,2020-0188,2020-11-18,15:17:53,15:40:59,NA,incomplete,225,color,0,left,Blue_Plus_Stripes_1.jpg,Blue_Triangle_Dots_2.jpg,Red_Circle_Stripes_4.jpg,left,412.7899999730289,true,low,NA,NA,NA,NA,NA,NA,NA,false
JCrwHQzk,3icohx7eofotocxdgkfntnxt5xb0e8,3of2m9aatk1vzht7728km19ck9gzkt,JCrwHQzk,2020-0188,2020-11-18,15:17:53,15:40:59,NA,incomplete,226,color,1,right,Blue_Circle_Chess_1.jpg,Red_Star_Chess_4.jpg,Blue_Triangle_Grid_2.jpg,right,431.1549999983981,true,low,NA,NA,NA,NA,NA,NA,NA,false
JCrwHQzk,3icohx7eofotocxdgkfntnxt5xb0e8,3of2m9aatk1vzht7728km19ck9gzkt,JCrwHQzk,2020-0188,2020-11-18,15:17:53,15:40:59,NA,incomplete,227,color,0,left,Purple_Triangle_Chess_2.jpg,Purple_Star_Dots_4.jpg,Blue_Circle_Chess_1.jpg,left,499.19999996200204,true,low,NA,NA,NA,NA,NA,NA,NA,false
JCrwHQzk,3icohx7eofotocxdgkfntnxt5xb0e8,3of2m9aatk1vzht7728km19ck9gzkt,JCrwHQzk,2020-0188,2020-11-18,15:17:53,15:40:59,NA,incomplete,228,color,1,right,Green_Triangle_Chess_4.jpg,Blue_Plus_Chess_2.jpg,Green_Star_Grid_3.jpg,right,472.8200000245124,true,low,NA,NA,NA,NA,NA,NA,NA,false
JCrwHQzk,3icohx7eofotocxdgkfntnxt5xb0e8,3of2m9aatk1vzht7728km19ck9gzkt,JCrwHQzk,2020-0188,2020-11-18,15:17:53,15:40:59,NA,incomplete,229,color,1,right,Blue_Plus_Dots_2.jpg,Purple_Triangle_Dots_3.jpg,Blue_Circle_Stripes_4.jpg,right,512.0549999410287,true,low,NA,NA,NA,NA,NA,NA,NA,false
JCrwHQzk,3icohx7eofotocxdgkfntnxt5xb0e8,3of2m9aatk1vzht7728km19ck9gzkt,JCrwHQzk,2020-0188,2020-11-18,15:17:53,15:40:59,NA,incomplete,230,color,1,right,Green_Triangle_Chess_1.jpg,Blue_Plus_Chess_3.jpg,Green_Circle_Dots_4.jpg,right,487.94500005897135,true,low,NA,NA,NA,NA,NA,NA,NA,false
JCrwHQzk,3icohx7eofotocxdgkfntnxt5xb0e8,3of2m9aatk1vzht7728km19ck9gzkt,JCrwHQzk,2020-0188,2020-11-18,15:17:53,15:40:59,NA,incomplete,231,color,1,right,Green_Plus_Stripes_2.jpg,Purple_Star_Stripes_3.jpg,Green_Circle_Grid_4.jpg,right,481.38000001199543,true,low,NA,NA,NA,NA,NA,NA,NA,false
JCrwHQzk,3icohx7eofotocxdgkfntnxt5xb0e8,3of2m9aatk1vzht7728km19ck9gzkt,JCrwHQzk,2020-0188,2020-11-18,15:17:53,15:40:59,NA,incomplete,232,color,1,right,Purple_Plus_Dots_2.jpg,Red_Circle_Dots_3.jpg,Purple_Triangle_Stripes_4.jpg,right,520.5350000178441,true,low,NA,NA,NA,NA,NA,NA,NA,false
JCrwHQzk,3icohx7eofotocxdgkfntnxt5xb0e8,3of2m9aatk1vzht7728km19ck9gzkt,JCrwHQzk,2020-0188,2020-11-18,15:17:53,15:40:59,NA,incomplete,233,color,1,left,Purple_Circle_Stripes_2.jpg,Purple_Plus_Chess_1.jpg,Blue_Triangle_Stripes_4.jpg,left,694.9050000403076,true,low,NA,NA,NA,NA,NA,NA,NA,false
JCrwHQzk,3icohx7eofotocxdgkfntnxt5xb0e8,3of2m9aatk1vzht7728km19ck9gzkt,JCrwHQzk,2020-0188,2020-11-18,15:17:53,15:40:59,NA,incomplete,234,color,1,left,Purple_Plus_Chess_1.jpg,Purple_Star_Grid_2.jpg,Green_Triangle_Chess_3.jpg,left,429.0999999502674,true,low,NA,NA,NA,NA,NA,NA,NA,false
JCrwHQzk,3icohx7eofotocxdgkfntnxt5xb0e8,3of2m9aatk1vzht7728km19ck9gzkt,JCrwHQzk,2020-0188,2020-11-18,15:17:53,15:40:59,NA,incomplete,235,color,1,left,Red_Circle_Chess_3.jpg,Red_Triangle_Stripes_2.jpg,Green_Plus_Chess_1.jpg,left,486.0900000203401,true,low,NA,NA,NA,NA,NA,NA,NA,false
JCrwHQzk,3icohx7eofotocxdgkfntnxt5xb0e8,3of2m9aatk1vzht7728km19ck9gzkt,JCrwHQzk,2020-0188,2020-11-18,15:17:53,15:40:59,NA,incomplete,236,color,1,right,Green_Star_Grid_3.jpg,Purple_Plus_Grid_2.jpg,Green_Circle_Stripes_4.jpg,right,404.5749999349937,true,low,NA,NA,NA,NA,NA,NA,NA,false
JCrwHQzk,3icohx7eofotocxdgkfntnxt5xb0e8,3of2m9aatk1vzht7728km19ck9gzkt,JCrwHQzk,2020-0188,2020-11-18,15:17:53,15:40:59,NA,incomplete,237,color,0,left,Purple_Triangle_Stripes_4.jpg,Purple_Plus_Dots_3.jpg,Red_Star_Stripes_1.jpg,left,452.3300000000745,true,low,NA,NA,NA,NA,NA,NA,NA,false
JCrwHQzk,3icohx7eofotocxdgkfntnxt5xb0e8,3of2m9aatk1vzht7728km19ck9gzkt,JCrwHQzk,2020-0188,2020-11-18,15:17:53,15:40:59,NA,incomplete,238,color,1,left,Blue_Star_Grid_2.jpg,Blue_Plus_Chess_4.jpg,Green_Circle_Grid_3.jpg,left,573.2250000583008,true,low,NA,NA,NA,NA,NA,NA,NA,false
JCrwHQzk,3icohx7eofotocxdgkfntnxt5xb0e8,3of2m9aatk1vzht7728km19ck9gzkt,JCrwHQzk,2020-0188,2020-11-18,15:17:53,15:40:59,NA,incomplete,239,color,1,left,Purple_Star_Chess_2.jpg,Purple_Circle_Stripes_1.jpg,Red_Plus_Chess_4.jpg,left,581.1850000172853,true,low,NA,NA,NA,NA,NA,NA,NA,false
JCrwHQzk,3icohx7eofotocxdgkfntnxt5xb0e8,3of2m9aatk1vzht7728km19ck9gzkt,JCrwHQzk,2020-0188,2020-11-18,15:17:53,15:40:59,NA,NA,instruction example,shape,NA,NA,Green_Star_Chess_2.jpg,Blue_Star_Grid_4.jpg,Red_Triangle_Dots_2.jpg,NA,NA,NA,NA,NA,NA,NA,NA,NA,NA,NA,undefined
JCrwHQzk,3icohx7eofotocxdgkfntnxt5xb0e8,3of2m9aatk1vzht7728km19ck9gzkt,JCrwHQzk,2020-0188,2020-11-18,15:17:53,15:40:59,NA,NA,instruction example,shape,NA,NA,Purple_Plus_Stripes_3.jpg,Red_Star_Dots_3.jpg,Green_Plus_Grid_1.jpg,NA,NA,NA,NA,NA,NA,NA,NA,NA,NA,NA,undefined
JCrwHQzk,3icohx7eofotocxdgkfntnxt5xb0e8,3of2m9aatk1vzht7728km19ck9gzkt,JCrwHQzk,2020-0188,2020-11-18,15:17:53,15:40:59,NA,NA,instruction example,shape,NA,NA,Green_Circle_Stripes_3.jpg,Purple_Plus_Stripes_4.jpg,Green_Triangle_Grid_1.jpg,NA,NA,NA,NA,NA,NA,NA,NA,NA,NA,NA,undefined
JCrwHQzk,3icohx7eofotocxdgkfntnxt5xb0e8,3of2m9aatk1vzht7728km19ck9gzkt,JCrwHQzk,2020-0188,2020-11-18,15:17:53,15:40:59,NA,NA,instruction example,shape,NA,NA,Blue_Plus_Stripes_4.jpg,Blue_Star_Chess_2.jpg,Purple_Circle_Stripes_3.jpg,NA,NA,NA,NA,NA,NA,NA,NA,NA,NA,NA,undefined
JCrwHQzk,3icohx7eofotocxdgkfntnxt5xb0e8,3of2m9aatk1vzht7728km19ck9gzkt,JCrwHQzk,2020-0188,2020-11-18,15:17:53,15:40:59,1360417.9399999557,1386848.9800000098,NA,NA,NA,NA,NA,NA,NA,NA,NA,NA,NA,29,White/Caucasian,Female,White,no,no,no,undefined
