workerId,hitId,assignmentId,subject,studyid,exp_date,exp_start,exp_end,time_start,time_end,trial,type,reward_validity,answer,image_top,image_left,image_right,response,response_time,response_acc,volatility,practice
MS8wtcWY,3jhb4bpsgnm0h9bvp7tggfn0kkoq96,3olqqlkknw22d2wttuuv0c8gjiwej0,MS8wtcWY,2020-0188,2020-05-21,13:16:50,13:42:23,NA,incomplete,0,shape,1,right,Purple_Triangle_Grid_3.jpg,Purple_Plus_Chess_4.jpg,Red_Triangle_Dots_2.jpg,left,1222.4249999999302,false,NA,true
MS8wtcWY,3jhb4bpsgnm0h9bvp7tggfn0kkoq96,3olqqlkknw22d2wttuuv0c8gjiwej0,MS8wtcWY,2020-0188,2020-05-21,13:16:50,13:42:23,NA,incomplete,1,shape,1,right,Purple_Circle_Chess_3.jpg,Purple_Star_Dots_1.jpg,Blue_Circle_Grid_4.jpg,none,0,false,NA,true
MS8wtcWY,3jhb4bpsgnm0h9bvp7tggfn0kkoq96,3olqqlkknw22d2wttuuv0c8gjiwej0,MS8wtcWY,2020-0188,2020-05-21,13:16:50,13:42:23,NA,incomplete,2,shape,1,right,Purple_Star_Dots_3.jpg,Purple_Plus_Grid_2.jpg,Green_Star_Chess_1.jpg,right,912.910000006319,true,NA,true
MS8wtcWY,3jhb4bpsgnm0h9bvp7tggfn0kkoq96,3olqqlkknw22d2wttuuv0c8gjiwej0,MS8wtcWY,2020-0188,2020-05-21,13:16:50,13:42:23,NA,incomplete,3,shape,0,right,Red_Circle_Stripes_1.jpg,Red_Star_Grid_4.jpg,Purple_Circle_Dots_2.jpg,right,912.9299999986542,true,NA,true
MS8wtcWY,3jhb4bpsgnm0h9bvp7tggfn0kkoq96,3olqqlkknw22d2wttuuv0c8gjiwej0,MS8wtcWY,2020-0188,2020-05-21,13:16:50,13:42:23,NA,incomplete,4,shape,1,left,Green_Triangle_Chess_1.jpg,Blue_Triangle_Dots_2.jpg,Green_Circle_Stripes_3.jpg,left,721.0550000017975,true,NA,true
MS8wtcWY,3jhb4bpsgnm0h9bvp7tggfn0kkoq96,3olqqlkknw22d2wttuuv0c8gjiwej0,MS8wtcWY,2020-0188,2020-05-21,13:16:50,13:42:23,NA,incomplete,5,shape,0,left,Red_Plus_Chess_4.jpg,Purple_Plus_Stripes_1.jpg,Red_Triangle_Dots_3.jpg,left,856.4100000002654,true,NA,true
MS8wtcWY,3jhb4bpsgnm0h9bvp7tggfn0kkoq96,3olqqlkknw22d2wttuuv0c8gjiwej0,MS8wtcWY,2020-0188,2020-05-21,13:16:50,13:42:23,NA,incomplete,6,shape,1,left,Purple_Star_Stripes_3.jpg,Green_Star_Dots_1.jpg,Purple_Plus_Chess_4.jpg,left,1066.3950000016484,true,NA,true
MS8wtcWY,3jhb4bpsgnm0h9bvp7tggfn0kkoq96,3olqqlkknw22d2wttuuv0c8gjiwej0,MS8wtcWY,2020-0188,2020-05-21,13:16:50,13:42:23,NA,incomplete,7,shape,0,right,Blue_Plus_Stripes_1.jpg,Blue_Triangle_Dots_4.jpg,Purple_Plus_Grid_3.jpg,right,756.7399999969639,true,NA,true
MS8wtcWY,3jhb4bpsgnm0h9bvp7tggfn0kkoq96,3olqqlkknw22d2wttuuv0c8gjiwej0,MS8wtcWY,2020-0188,2020-05-21,13:16:50,13:42:23,NA,incomplete,8,shape,1,right,Green_Plus_Grid_2.jpg,Green_Star_Stripes_3.jpg,Purple_Plus_Dots_1.jpg,right,762.92499999539,true,NA,true
MS8wtcWY,3jhb4bpsgnm0h9bvp7tggfn0kkoq96,3olqqlkknw22d2wttuuv0c8gjiwej0,MS8wtcWY,2020-0188,2020-05-21,13:16:50,13:42:23,NA,incomplete,9,shape,1,right,Blue_Circle_Stripes_4.jpg,Blue_Star_Chess_2.jpg,Red_Circle_Dots_1.jpg,right,800.7599999983795,true,NA,true
MS8wtcWY,3jhb4bpsgnm0h9bvp7tggfn0kkoq96,3olqqlkknw22d2wttuuv0c8gjiwej0,MS8wtcWY,2020-0188,2020-05-21,13:16:50,13:42:23,NA,incomplete,10,shape,0,right,Red_Circle_Stripes_4.jpg,Red_Triangle_Chess_2.jpg,Blue_Circle_Grid_1.jpg,right,692.7749999958323,true,NA,true
MS8wtcWY,3jhb4bpsgnm0h9bvp7tggfn0kkoq96,3olqqlkknw22d2wttuuv0c8gjiwej0,MS8wtcWY,2020-0188,2020-05-21,13:16:50,13:42:23,NA,incomplete,11,shape,1,left,Purple_Triangle_Grid_1.jpg,Red_Triangle_Stripes_3.jpg,Purple_Plus_Chess_2.jpg,left,781.6850000016857,true,NA,true
MS8wtcWY,3jhb4bpsgnm0h9bvp7tggfn0kkoq96,3olqqlkknw22d2wttuuv0c8gjiwej0,MS8wtcWY,2020-0188,2020-05-21,13:16:50,13:42:23,NA,incomplete,12,shape,1,left,Green_Plus_Grid_1.jpg,Blue_Plus_Chess_4.jpg,Green_Circle_Stripes_3.jpg,left,931.1900000029709,true,NA,true
MS8wtcWY,3jhb4bpsgnm0h9bvp7tggfn0kkoq96,3olqqlkknw22d2wttuuv0c8gjiwej0,MS8wtcWY,2020-0188,2020-05-21,13:16:50,13:42:23,NA,incomplete,13,shape,0,right,Red_Triangle_Stripes_4.jpg,Red_Star_Grid_3.jpg,Green_Triangle_Chess_1.jpg,right,706.2650000007125,true,NA,true
MS8wtcWY,3jhb4bpsgnm0h9bvp7tggfn0kkoq96,3olqqlkknw22d2wttuuv0c8gjiwej0,MS8wtcWY,2020-0188,2020-05-21,13:16:50,13:42:23,NA,incomplete,14,shape,0,left,Purple_Star_Grid_3.jpg,Green_Star_Stripes_1.jpg,Purple_Triangle_Dots_4.jpg,left,730.2500000004657,true,NA,true
MS8wtcWY,3jhb4bpsgnm0h9bvp7tggfn0kkoq96,3olqqlkknw22d2wttuuv0c8gjiwej0,MS8wtcWY,2020-0188,2020-05-21,13:16:50,13:42:23,NA,incomplete,15,shape,1,left,Purple_Circle_Grid_3.jpg,Red_Circle_Stripes_1.jpg,Purple_Star_Dots_4.jpg,left,529.7400000054622,true,NA,true
MS8wtcWY,3jhb4bpsgnm0h9bvp7tggfn0kkoq96,3olqqlkknw22d2wttuuv0c8gjiwej0,MS8wtcWY,2020-0188,2020-05-21,13:16:50,13:42:23,NA,incomplete,16,shape,0,right,Red_Triangle_Chess_3.jpg,Red_Plus_Dots_4.jpg,Purple_Triangle_Stripes_2.jpg,right,529.2249999984633,true,NA,true
MS8wtcWY,3jhb4bpsgnm0h9bvp7tggfn0kkoq96,3olqqlkknw22d2wttuuv0c8gjiwej0,MS8wtcWY,2020-0188,2020-05-21,13:16:50,13:42:23,NA,incomplete,17,shape,1,left,Green_Triangle_Chess_1.jpg,Blue_Triangle_Grid_4.jpg,Green_Star_Dots_3.jpg,left,704.7999999994645,true,NA,true
MS8wtcWY,3jhb4bpsgnm0h9bvp7tggfn0kkoq96,3olqqlkknw22d2wttuuv0c8gjiwej0,MS8wtcWY,2020-0188,2020-05-21,13:16:50,13:42:23,NA,incomplete,18,shape,1,left,Blue_Triangle_Grid_3.jpg,Purple_Triangle_Chess_4.jpg,Blue_Star_Dots_2.jpg,left,680.7100000005448,true,NA,true
MS8wtcWY,3jhb4bpsgnm0h9bvp7tggfn0kkoq96,3olqqlkknw22d2wttuuv0c8gjiwej0,MS8wtcWY,2020-0188,2020-05-21,13:16:50,13:42:23,NA,incomplete,19,shape,1,right,Blue_Star_Chess_1.jpg,Blue_Triangle_Grid_4.jpg,Red_Star_Dots_2.jpg,right,674.2650000015274,true,NA,true
MS8wtcWY,3jhb4bpsgnm0h9bvp7tggfn0kkoq96,3olqqlkknw22d2wttuuv0c8gjiwej0,MS8wtcWY,2020-0188,2020-05-21,13:16:50,13:42:23,NA,incomplete,20,color,1,right,Blue_Plus_Dots_3.jpg,Red_Plus_Stripes_4.jpg,Blue_Triangle_Grid_1.jpg,left,587.579999999376,false,NA,true
MS8wtcWY,3jhb4bpsgnm0h9bvp7tggfn0kkoq96,3olqqlkknw22d2wttuuv0c8gjiwej0,MS8wtcWY,2020-0188,2020-05-21,13:16:50,13:42:23,NA,incomplete,21,color,1,left,Red_Triangle_Chess_2.jpg,Red_Circle_Grid_3.jpg,Green_Triangle_Stripes_1.jpg,left,1096.1099999987055,true,NA,true
MS8wtcWY,3jhb4bpsgnm0h9bvp7tggfn0kkoq96,3olqqlkknw22d2wttuuv0c8gjiwej0,MS8wtcWY,2020-0188,2020-05-21,13:16:50,13:42:23,NA,incomplete,22,color,1,left,Green_Plus_Dots_2.jpg,Green_Star_Chess_3.jpg,Purple_Plus_Grid_1.jpg,left,625.1849999972619,true,NA,true
MS8wtcWY,3jhb4bpsgnm0h9bvp7tggfn0kkoq96,3olqqlkknw22d2wttuuv0c8gjiwej0,MS8wtcWY,2020-0188,2020-05-21,13:16:50,13:42:23,NA,incomplete,23,color,1,right,Red_Star_Dots_4.jpg,Blue_Star_Stripes_1.jpg,Red_Triangle_Chess_2.jpg,left,780.5200000002515,false,NA,true
MS8wtcWY,3jhb4bpsgnm0h9bvp7tggfn0kkoq96,3olqqlkknw22d2wttuuv0c8gjiwej0,MS8wtcWY,2020-0188,2020-05-21,13:16:50,13:42:23,NA,incomplete,24,color,1,left,Blue_Circle_Dots_3.jpg,Blue_Triangle_Stripes_4.jpg,Purple_Circle_Chess_1.jpg,left,897.9099999996834,true,NA,true
MS8wtcWY,3jhb4bpsgnm0h9bvp7tggfn0kkoq96,3olqqlkknw22d2wttuuv0c8gjiwej0,MS8wtcWY,2020-0188,2020-05-21,13:16:50,13:42:23,NA,incomplete,25,color,0,left,Red_Triangle_Dots_2.jpg,Red_Star_Chess_4.jpg,Blue_Triangle_Grid_1.jpg,left,594.5750000027474,true,NA,true
MS8wtcWY,3jhb4bpsgnm0h9bvp7tggfn0kkoq96,3olqqlkknw22d2wttuuv0c8gjiwej0,MS8wtcWY,2020-0188,2020-05-21,13:16:50,13:42:23,NA,incomplete,26,color,1,left,Red_Triangle_Grid_1.jpg,Red_Circle_Chess_3.jpg,Purple_Triangle_Stripes_2.jpg,left,559.2799999939743,true,NA,true
MS8wtcWY,3jhb4bpsgnm0h9bvp7tggfn0kkoq96,3olqqlkknw22d2wttuuv0c8gjiwej0,MS8wtcWY,2020-0188,2020-05-21,13:16:50,13:42:23,NA,incomplete,27,color,1,right,Green_Circle_Stripes_3.jpg,Blue_Circle_Dots_4.jpg,Green_Triangle_Grid_2.jpg,right,589.4249999983003,true,NA,true
MS8wtcWY,3jhb4bpsgnm0h9bvp7tggfn0kkoq96,3olqqlkknw22d2wttuuv0c8gjiwej0,MS8wtcWY,2020-0188,2020-05-21,13:16:50,13:42:23,NA,incomplete,28,color,1,left,Red_Triangle_Grid_4.jpg,Red_Star_Chess_2.jpg,Blue_Triangle_Stripes_1.jpg,left,554.114999998943,true,NA,true
MS8wtcWY,3jhb4bpsgnm0h9bvp7tggfn0kkoq96,3olqqlkknw22d2wttuuv0c8gjiwej0,MS8wtcWY,2020-0188,2020-05-21,13:16:50,13:42:23,NA,incomplete,29,color,1,right,Red_Star_Chess_4.jpg,Blue_Star_Dots_1.jpg,Red_Triangle_Stripes_2.jpg,right,567.9550000058953,true,NA,true
MS8wtcWY,3jhb4bpsgnm0h9bvp7tggfn0kkoq96,3olqqlkknw22d2wttuuv0c8gjiwej0,MS8wtcWY,2020-0188,2020-05-21,13:16:50,13:42:23,NA,incomplete,30,color,1,left,Purple_Plus_Dots_3.jpg,Purple_Circle_Grid_2.jpg,Green_Plus_Stripes_1.jpg,left,517.529999997234,true,NA,true
MS8wtcWY,3jhb4bpsgnm0h9bvp7tggfn0kkoq96,3olqqlkknw22d2wttuuv0c8gjiwej0,MS8wtcWY,2020-0188,2020-05-21,13:16:50,13:42:23,NA,incomplete,31,color,1,right,Blue_Triangle_Chess_4.jpg,Purple_Triangle_Stripes_2.jpg,Blue_Circle_Dots_3.jpg,right,596.875000002794,true,NA,true
MS8wtcWY,3jhb4bpsgnm0h9bvp7tggfn0kkoq96,3olqqlkknw22d2wttuuv0c8gjiwej0,MS8wtcWY,2020-0188,2020-05-21,13:16:50,13:42:23,NA,incomplete,32,color,1,right,Purple_Plus_Chess_2.jpg,Red_Plus_Stripes_1.jpg,Purple_Star_Dots_4.jpg,right,513.8850000003586,true,NA,true
MS8wtcWY,3jhb4bpsgnm0h9bvp7tggfn0kkoq96,3olqqlkknw22d2wttuuv0c8gjiwej0,MS8wtcWY,2020-0188,2020-05-21,13:16:50,13:42:23,NA,incomplete,33,color,1,left,Red_Circle_Grid_3.jpg,Red_Triangle_Stripes_4.jpg,Blue_Circle_Chess_2.jpg,left,577.7749999978114,true,NA,true
MS8wtcWY,3jhb4bpsgnm0h9bvp7tggfn0kkoq96,3olqqlkknw22d2wttuuv0c8gjiwej0,MS8wtcWY,2020-0188,2020-05-21,13:16:50,13:42:23,NA,incomplete,34,color,1,left,Purple_Star_Grid_1.jpg,Purple_Triangle_Chess_2.jpg,Blue_Star_Dots_3.jpg,left,543.0649999979651,true,NA,true
MS8wtcWY,3jhb4bpsgnm0h9bvp7tggfn0kkoq96,3olqqlkknw22d2wttuuv0c8gjiwej0,MS8wtcWY,2020-0188,2020-05-21,13:16:50,13:42:23,NA,incomplete,35,color,1,right,Purple_Triangle_Stripes_2.jpg,Red_Triangle_Chess_1.jpg,Purple_Plus_Dots_4.jpg,right,526.0049999996554,true,NA,true
MS8wtcWY,3jhb4bpsgnm0h9bvp7tggfn0kkoq96,3olqqlkknw22d2wttuuv0c8gjiwej0,MS8wtcWY,2020-0188,2020-05-21,13:16:50,13:42:23,NA,incomplete,36,color,1,right,Blue_Plus_Chess_3.jpg,Red_Plus_Grid_2.jpg,Blue_Star_Stripes_1.jpg,right,669.9399999998277,true,NA,true
MS8wtcWY,3jhb4bpsgnm0h9bvp7tggfn0kkoq96,3olqqlkknw22d2wttuuv0c8gjiwej0,MS8wtcWY,2020-0188,2020-05-21,13:16:50,13:42:23,NA,incomplete,37,color,1,left,Purple_Star_Grid_3.jpg,Purple_Triangle_Dots_2.jpg,Green_Star_Chess_4.jpg,left,550.7450000005774,true,NA,true
MS8wtcWY,3jhb4bpsgnm0h9bvp7tggfn0kkoq96,3olqqlkknw22d2wttuuv0c8gjiwej0,MS8wtcWY,2020-0188,2020-05-21,13:16:50,13:42:23,NA,incomplete,38,color,1,left,Blue_Plus_Chess_3.jpg,Blue_Triangle_Grid_1.jpg,Green_Plus_Stripes_4.jpg,left,500.76999999873806,true,NA,true
MS8wtcWY,3jhb4bpsgnm0h9bvp7tggfn0kkoq96,3olqqlkknw22d2wttuuv0c8gjiwej0,MS8wtcWY,2020-0188,2020-05-21,13:16:50,13:42:23,NA,incomplete,39,color,1,left,Blue_Plus_Grid_3.jpg,Blue_Star_Stripes_2.jpg,Purple_Plus_Dots_4.jpg,left,469.2799999975832,true,NA,true
MS8wtcWY,3jhb4bpsgnm0h9bvp7tggfn0kkoq96,3olqqlkknw22d2wttuuv0c8gjiwej0,MS8wtcWY,2020-0188,2020-05-21,13:16:50,13:42:23,NA,incomplete,0,shape,1,left,Green_Circle_Grid_4.jpg,Purple_Circle_Chess_1.jpg,Green_Plus_Stripes_2.jpg,right,1125.919999998645,false,high,false
MS8wtcWY,3jhb4bpsgnm0h9bvp7tggfn0kkoq96,3olqqlkknw22d2wttuuv0c8gjiwej0,MS8wtcWY,2020-0188,2020-05-21,13:16:50,13:42:23,NA,incomplete,1,shape,1,left,Purple_Circle_Dots_3.jpg,Green_Circle_Chess_2.jpg,Purple_Star_Grid_1.jpg,right,1037.420000000624,false,high,false
MS8wtcWY,3jhb4bpsgnm0h9bvp7tggfn0kkoq96,3olqqlkknw22d2wttuuv0c8gjiwej0,MS8wtcWY,2020-0188,2020-05-21,13:16:50,13:42:23,NA,incomplete,2,shape,1,left,Green_Triangle_Chess_1.jpg,Blue_Triangle_Stripes_3.jpg,Green_Plus_Grid_2.jpg,right,631.9199999999255,false,high,false
MS8wtcWY,3jhb4bpsgnm0h9bvp7tggfn0kkoq96,3olqqlkknw22d2wttuuv0c8gjiwej0,MS8wtcWY,2020-0188,2020-05-21,13:16:50,13:42:23,NA,incomplete,3,shape,1,right,Purple_Triangle_Chess_3.jpg,Purple_Star_Stripes_2.jpg,Red_Triangle_Dots_1.jpg,left,547.3750000019791,false,high,false
MS8wtcWY,3jhb4bpsgnm0h9bvp7tggfn0kkoq96,3olqqlkknw22d2wttuuv0c8gjiwej0,MS8wtcWY,2020-0188,2020-05-21,13:16:50,13:42:23,NA,incomplete,4,shape,1,right,Green_Plus_Chess_1.jpg,Green_Triangle_Grid_2.jpg,Blue_Plus_Stripes_3.jpg,right,50.56500000494998,true,high,false
MS8wtcWY,3jhb4bpsgnm0h9bvp7tggfn0kkoq96,3olqqlkknw22d2wttuuv0c8gjiwej0,MS8wtcWY,2020-0188,2020-05-21,13:16:50,13:42:23,NA,incomplete,5,shape,0,right,Red_Circle_Grid_3.jpg,Red_Star_Stripes_2.jpg,Blue_Circle_Dots_1.jpg,right,116.22000000346452,true,high,false
MS8wtcWY,3jhb4bpsgnm0h9bvp7tggfn0kkoq96,3olqqlkknw22d2wttuuv0c8gjiwej0,MS8wtcWY,2020-0188,2020-05-21,13:16:50,13:42:23,NA,incomplete,6,shape,1,right,Green_Star_Chess_4.jpg,Green_Circle_Stripes_3.jpg,Purple_Star_Dots_2.jpg,left,20.325000005075708,false,high,false
MS8wtcWY,3jhb4bpsgnm0h9bvp7tggfn0kkoq96,3olqqlkknw22d2wttuuv0c8gjiwej0,MS8wtcWY,2020-0188,2020-05-21,13:16:50,13:42:23,NA,incomplete,7,shape,1,left,Blue_Plus_Grid_4.jpg,Red_Plus_Dots_3.jpg,Blue_Triangle_Stripes_1.jpg,left,920.0100000016391,true,high,false
MS8wtcWY,3jhb4bpsgnm0h9bvp7tggfn0kkoq96,3olqqlkknw22d2wttuuv0c8gjiwej0,MS8wtcWY,2020-0188,2020-05-21,13:16:50,13:42:23,NA,incomplete,8,shape,1,left,Red_Plus_Stripes_2.jpg,Blue_Plus_Chess_1.jpg,Red_Circle_Grid_4.jpg,left,983.350000002305,true,high,false
MS8wtcWY,3jhb4bpsgnm0h9bvp7tggfn0kkoq96,3olqqlkknw22d2wttuuv0c8gjiwej0,MS8wtcWY,2020-0188,2020-05-21,13:16:50,13:42:23,NA,incomplete,9,shape,1,left,Purple_Star_Grid_1.jpg,Red_Star_Chess_3.jpg,Purple_Plus_Stripes_2.jpg,left,836.7100000032224,true,high,false
MS8wtcWY,3jhb4bpsgnm0h9bvp7tggfn0kkoq96,3olqqlkknw22d2wttuuv0c8gjiwej0,MS8wtcWY,2020-0188,2020-05-21,13:16:50,13:42:23,NA,incomplete,10,color,1,left,Blue_Plus_Stripes_3.jpg,Blue_Triangle_Chess_1.jpg,Purple_Plus_Dots_2.jpg,right,759.0950000011362,false,high,false
MS8wtcWY,3jhb4bpsgnm0h9bvp7tggfn0kkoq96,3olqqlkknw22d2wttuuv0c8gjiwej0,MS8wtcWY,2020-0188,2020-05-21,13:16:50,13:42:23,NA,incomplete,11,color,1,right,Red_Star_Chess_2.jpg,Purple_Star_Dots_4.jpg,Red_Triangle_Grid_1.jpg,right,845.3300000036834,true,high,false
MS8wtcWY,3jhb4bpsgnm0h9bvp7tggfn0kkoq96,3olqqlkknw22d2wttuuv0c8gjiwej0,MS8wtcWY,2020-0188,2020-05-21,13:16:50,13:42:23,NA,incomplete,12,color,1,left,Red_Star_Dots_2.jpg,Red_Triangle_Chess_1.jpg,Blue_Star_Stripes_3.jpg,right,703.9850000001024,false,high,false
MS8wtcWY,3jhb4bpsgnm0h9bvp7tggfn0kkoq96,3olqqlkknw22d2wttuuv0c8gjiwej0,MS8wtcWY,2020-0188,2020-05-21,13:16:50,13:42:23,NA,incomplete,13,color,1,left,Blue_Plus_Stripes_4.jpg,Blue_Star_Dots_2.jpg,Green_Plus_Grid_1.jpg,left,488.1200000017416,true,high,false
MS8wtcWY,3jhb4bpsgnm0h9bvp7tggfn0kkoq96,3olqqlkknw22d2wttuuv0c8gjiwej0,MS8wtcWY,2020-0188,2020-05-21,13:16:50,13:42:23,NA,incomplete,14,color,0,left,Green_Plus_Grid_2.jpg,Green_Triangle_Dots_3.jpg,Blue_Plus_Chess_4.jpg,right,793.084999997518,false,high,false
MS8wtcWY,3jhb4bpsgnm0h9bvp7tggfn0kkoq96,3olqqlkknw22d2wttuuv0c8gjiwej0,MS8wtcWY,2020-0188,2020-05-21,13:16:50,13:42:23,NA,incomplete,15,color,1,left,Purple_Triangle_Grid_3.jpg,Purple_Plus_Stripes_2.jpg,Blue_Triangle_Dots_4.jpg,left,685.8700000012759,true,high,false
MS8wtcWY,3jhb4bpsgnm0h9bvp7tggfn0kkoq96,3olqqlkknw22d2wttuuv0c8gjiwej0,MS8wtcWY,2020-0188,2020-05-21,13:16:50,13:42:23,NA,incomplete,16,color,0,left,Purple_Triangle_Chess_2.jpg,Purple_Plus_Grid_3.jpg,Blue_Triangle_Stripes_1.jpg,left,678.3700000015087,true,high,false
MS8wtcWY,3jhb4bpsgnm0h9bvp7tggfn0kkoq96,3olqqlkknw22d2wttuuv0c8gjiwej0,MS8wtcWY,2020-0188,2020-05-21,13:16:50,13:42:23,NA,incomplete,17,color,1,right,Red_Star_Dots_3.jpg,Purple_Star_Chess_4.jpg,Red_Triangle_Stripes_1.jpg,right,655.7799999936251,true,high,false
MS8wtcWY,3jhb4bpsgnm0h9bvp7tggfn0kkoq96,3olqqlkknw22d2wttuuv0c8gjiwej0,MS8wtcWY,2020-0188,2020-05-21,13:16:50,13:42:23,NA,incomplete,18,color,0,left,Purple_Circle_Dots_2.jpg,Purple_Triangle_Chess_3.jpg,Green_Circle_Grid_4.jpg,right,745.8600000026636,false,high,false
MS8wtcWY,3jhb4bpsgnm0h9bvp7tggfn0kkoq96,3olqqlkknw22d2wttuuv0c8gjiwej0,MS8wtcWY,2020-0188,2020-05-21,13:16:50,13:42:23,NA,incomplete,19,color,0,right,Blue_Plus_Stripes_3.jpg,Red_Plus_Chess_2.jpg,Blue_Star_Grid_1.jpg,left,896.9749999959022,false,high,false
MS8wtcWY,3jhb4bpsgnm0h9bvp7tggfn0kkoq96,3olqqlkknw22d2wttuuv0c8gjiwej0,MS8wtcWY,2020-0188,2020-05-21,13:16:50,13:42:23,NA,incomplete,20,shape,1,left,Red_Star_Grid_1.jpg,Green_Star_Stripes_3.jpg,Red_Circle_Dots_2.jpg,left,817.2149999954272,true,high,false
MS8wtcWY,3jhb4bpsgnm0h9bvp7tggfn0kkoq96,3olqqlkknw22d2wttuuv0c8gjiwej0,MS8wtcWY,2020-0188,2020-05-21,13:16:50,13:42:23,NA,incomplete,21,shape,1,right,Red_Star_Dots_4.jpg,Red_Triangle_Stripes_1.jpg,Blue_Star_Grid_3.jpg,right,660.830000000773,true,high,false
MS8wtcWY,3jhb4bpsgnm0h9bvp7tggfn0kkoq96,3olqqlkknw22d2wttuuv0c8gjiwej0,MS8wtcWY,2020-0188,2020-05-21,13:16:50,13:42:23,NA,incomplete,22,shape,1,left,Red_Star_Grid_4.jpg,Blue_Star_Stripes_2.jpg,Red_Circle_Dots_3.jpg,left,735.3650000004563,true,high,false
MS8wtcWY,3jhb4bpsgnm0h9bvp7tggfn0kkoq96,3olqqlkknw22d2wttuuv0c8gjiwej0,MS8wtcWY,2020-0188,2020-05-21,13:16:50,13:42:23,NA,incomplete,23,shape,1,right,Blue_Plus_Chess_1.jpg,Blue_Triangle_Dots_4.jpg,Red_Plus_Grid_2.jpg,left,629.5250000039814,false,high,false
MS8wtcWY,3jhb4bpsgnm0h9bvp7tggfn0kkoq96,3olqqlkknw22d2wttuuv0c8gjiwej0,MS8wtcWY,2020-0188,2020-05-21,13:16:50,13:42:23,NA,incomplete,24,shape,0,left,Green_Star_Grid_1.jpg,Red_Star_Chess_4.jpg,Green_Plus_Dots_2.jpg,right,544.980000006035,false,high,false
MS8wtcWY,3jhb4bpsgnm0h9bvp7tggfn0kkoq96,3olqqlkknw22d2wttuuv0c8gjiwej0,MS8wtcWY,2020-0188,2020-05-21,13:16:50,13:42:23,NA,incomplete,25,shape,1,right,Red_Plus_Dots_4.jpg,Red_Star_Stripes_2.jpg,Green_Plus_Chess_3.jpg,right,591.390000001411,true,high,false
MS8wtcWY,3jhb4bpsgnm0h9bvp7tggfn0kkoq96,3olqqlkknw22d2wttuuv0c8gjiwej0,MS8wtcWY,2020-0188,2020-05-21,13:16:50,13:42:23,NA,incomplete,26,shape,1,left,Red_Triangle_Dots_3.jpg,Green_Triangle_Stripes_1.jpg,Red_Plus_Grid_2.jpg,left,1004.3799999984913,true,high,false
MS8wtcWY,3jhb4bpsgnm0h9bvp7tggfn0kkoq96,3olqqlkknw22d2wttuuv0c8gjiwej0,MS8wtcWY,2020-0188,2020-05-21,13:16:50,13:42:23,NA,incomplete,27,shape,0,right,Green_Triangle_Dots_3.jpg,Green_Plus_Stripes_4.jpg,Purple_Triangle_Chess_2.jpg,left,840.3400000025285,false,high,false
MS8wtcWY,3jhb4bpsgnm0h9bvp7tggfn0kkoq96,3olqqlkknw22d2wttuuv0c8gjiwej0,MS8wtcWY,2020-0188,2020-05-21,13:16:50,13:42:23,NA,incomplete,28,shape,1,left,Green_Plus_Stripes_4.jpg,Red_Plus_Grid_2.jpg,Green_Triangle_Chess_1.jpg,right,619.1749999998137,false,high,false
MS8wtcWY,3jhb4bpsgnm0h9bvp7tggfn0kkoq96,3olqqlkknw22d2wttuuv0c8gjiwej0,MS8wtcWY,2020-0188,2020-05-21,13:16:50,13:42:23,NA,incomplete,29,shape,1,right,Green_Circle_Chess_3.jpg,Green_Plus_Grid_2.jpg,Red_Circle_Stripes_1.jpg,right,614.645000001532,true,high,false
MS8wtcWY,3jhb4bpsgnm0h9bvp7tggfn0kkoq96,3olqqlkknw22d2wttuuv0c8gjiwej0,MS8wtcWY,2020-0188,2020-05-21,13:16:50,13:42:23,NA,incomplete,30,color,1,right,Red_Plus_Stripes_3.jpg,Green_Plus_Chess_1.jpg,Red_Triangle_Grid_4.jpg,left,736.899999996298,false,high,false
MS8wtcWY,3jhb4bpsgnm0h9bvp7tggfn0kkoq96,3olqqlkknw22d2wttuuv0c8gjiwej0,MS8wtcWY,2020-0188,2020-05-21,13:16:50,13:42:23,NA,incomplete,31,color,1,right,Red_Plus_Grid_2.jpg,Blue_Plus_Chess_4.jpg,Red_Star_Stripes_3.jpg,left,553.4299999999348,false,high,false
MS8wtcWY,3jhb4bpsgnm0h9bvp7tggfn0kkoq96,3olqqlkknw22d2wttuuv0c8gjiwej0,MS8wtcWY,2020-0188,2020-05-21,13:16:50,13:42:23,NA,incomplete,32,color,0,right,Blue_Plus_Dots_2.jpg,Green_Plus_Chess_3.jpg,Blue_Triangle_Stripes_4.jpg,right,583.6500000003725,true,high,false
MS8wtcWY,3jhb4bpsgnm0h9bvp7tggfn0kkoq96,3olqqlkknw22d2wttuuv0c8gjiwej0,MS8wtcWY,2020-0188,2020-05-21,13:16:50,13:42:23,NA,incomplete,33,color,1,left,Purple_Circle_Grid_4.jpg,Purple_Plus_Dots_2.jpg,Green_Circle_Chess_3.jpg,left,980.2850000051549,true,high,false
MS8wtcWY,3jhb4bpsgnm0h9bvp7tggfn0kkoq96,3olqqlkknw22d2wttuuv0c8gjiwej0,MS8wtcWY,2020-0188,2020-05-21,13:16:50,13:42:23,NA,incomplete,34,color,1,right,Blue_Star_Dots_3.jpg,Purple_Star_Chess_4.jpg,Blue_Triangle_Grid_1.jpg,right,497.78499999956694,true,high,false
MS8wtcWY,3jhb4bpsgnm0h9bvp7tggfn0kkoq96,3olqqlkknw22d2wttuuv0c8gjiwej0,MS8wtcWY,2020-0188,2020-05-21,13:16:50,13:42:23,NA,incomplete,35,color,0,right,Green_Star_Chess_2.jpg,Blue_Star_Stripes_1.jpg,Green_Triangle_Dots_3.jpg,right,546.1799999976065,true,high,false
MS8wtcWY,3jhb4bpsgnm0h9bvp7tggfn0kkoq96,3olqqlkknw22d2wttuuv0c8gjiwej0,MS8wtcWY,2020-0188,2020-05-21,13:16:50,13:42:23,NA,incomplete,36,color,0,right,Blue_Star_Dots_3.jpg,Green_Star_Chess_4.jpg,Blue_Circle_Stripes_2.jpg,left,321.06000000203494,false,high,false
MS8wtcWY,3jhb4bpsgnm0h9bvp7tggfn0kkoq96,3olqqlkknw22d2wttuuv0c8gjiwej0,MS8wtcWY,2020-0188,2020-05-21,13:16:50,13:42:23,NA,incomplete,37,color,1,left,Blue_Triangle_Dots_1.jpg,Blue_Circle_Chess_3.jpg,Purple_Triangle_Stripes_4.jpg,right,328.4899999999907,false,high,false
MS8wtcWY,3jhb4bpsgnm0h9bvp7tggfn0kkoq96,3olqqlkknw22d2wttuuv0c8gjiwej0,MS8wtcWY,2020-0188,2020-05-21,13:16:50,13:42:23,NA,incomplete,38,color,0,right,Red_Plus_Grid_3.jpg,Blue_Plus_Stripes_4.jpg,Red_Circle_Chess_2.jpg,right,608.4899999988265,true,high,false
MS8wtcWY,3jhb4bpsgnm0h9bvp7tggfn0kkoq96,3olqqlkknw22d2wttuuv0c8gjiwej0,MS8wtcWY,2020-0188,2020-05-21,13:16:50,13:42:23,NA,incomplete,39,color,1,right,Blue_Triangle_Grid_3.jpg,Red_Triangle_Chess_1.jpg,Blue_Star_Dots_2.jpg,right,652.504999998142,true,high,false
MS8wtcWY,3jhb4bpsgnm0h9bvp7tggfn0kkoq96,3olqqlkknw22d2wttuuv0c8gjiwej0,MS8wtcWY,2020-0188,2020-05-21,13:16:50,13:42:23,NA,incomplete,40,shape,1,left,Blue_Triangle_Stripes_3.jpg,Purple_Triangle_Dots_4.jpg,Blue_Star_Chess_2.jpg,right,518.1250000023283,false,high,false
MS8wtcWY,3jhb4bpsgnm0h9bvp7tggfn0kkoq96,3olqqlkknw22d2wttuuv0c8gjiwej0,MS8wtcWY,2020-0188,2020-05-21,13:16:50,13:42:23,NA,incomplete,41,shape,1,left,Red_Triangle_Grid_4.jpg,Green_Triangle_Stripes_2.jpg,Red_Star_Chess_3.jpg,right,405.2399999999907,false,high,false
MS8wtcWY,3jhb4bpsgnm0h9bvp7tggfn0kkoq96,3olqqlkknw22d2wttuuv0c8gjiwej0,MS8wtcWY,2020-0188,2020-05-21,13:16:50,13:42:23,NA,incomplete,42,shape,1,left,Green_Triangle_Stripes_3.jpg,Blue_Triangle_Grid_1.jpg,Green_Star_Chess_4.jpg,right,553.5400000008522,false,high,false
MS8wtcWY,3jhb4bpsgnm0h9bvp7tggfn0kkoq96,3olqqlkknw22d2wttuuv0c8gjiwej0,MS8wtcWY,2020-0188,2020-05-21,13:16:50,13:42:23,NA,incomplete,43,shape,1,right,Blue_Plus_Chess_1.jpg,Blue_Triangle_Stripes_2.jpg,Red_Plus_Dots_4.jpg,right,1381.9999999979045,true,high,false
MS8wtcWY,3jhb4bpsgnm0h9bvp7tggfn0kkoq96,3olqqlkknw22d2wttuuv0c8gjiwej0,MS8wtcWY,2020-0188,2020-05-21,13:16:50,13:42:23,NA,incomplete,44,shape,0,left,Purple_Star_Grid_3.jpg,Blue_Star_Stripes_1.jpg,Purple_Plus_Chess_2.jpg,left,1124.1649999938672,true,high,false
MS8wtcWY,3jhb4bpsgnm0h9bvp7tggfn0kkoq96,3olqqlkknw22d2wttuuv0c8gjiwej0,MS8wtcWY,2020-0188,2020-05-21,13:16:50,13:42:23,NA,incomplete,45,shape,1,left,Blue_Star_Dots_4.jpg,Green_Star_Chess_2.jpg,Blue_Plus_Stripes_3.jpg,left,876.0350000010803,true,high,false
MS8wtcWY,3jhb4bpsgnm0h9bvp7tggfn0kkoq96,3olqqlkknw22d2wttuuv0c8gjiwej0,MS8wtcWY,2020-0188,2020-05-21,13:16:50,13:42:23,NA,incomplete,46,shape,1,left,Blue_Triangle_Stripes_3.jpg,Red_Triangle_Chess_1.jpg,Blue_Star_Grid_4.jpg,left,797.0149999964051,true,high,false
MS8wtcWY,3jhb4bpsgnm0h9bvp7tggfn0kkoq96,3olqqlkknw22d2wttuuv0c8gjiwej0,MS8wtcWY,2020-0188,2020-05-21,13:16:50,13:42:23,NA,incomplete,47,shape,1,right,Green_Triangle_Dots_1.jpg,Green_Star_Stripes_4.jpg,Blue_Triangle_Chess_3.jpg,left,513.7299999987008,false,high,false
MS8wtcWY,3jhb4bpsgnm0h9bvp7tggfn0kkoq96,3olqqlkknw22d2wttuuv0c8gjiwej0,MS8wtcWY,2020-0188,2020-05-21,13:16:50,13:42:23,NA,incomplete,48,shape,1,left,Purple_Star_Dots_3.jpg,Green_Star_Grid_1.jpg,Purple_Triangle_Chess_2.jpg,left,818.2600000000093,true,high,false
MS8wtcWY,3jhb4bpsgnm0h9bvp7tggfn0kkoq96,3olqqlkknw22d2wttuuv0c8gjiwej0,MS8wtcWY,2020-0188,2020-05-21,13:16:50,13:42:23,NA,incomplete,49,shape,1,left,Green_Plus_Chess_4.jpg,Red_Plus_Dots_1.jpg,Green_Circle_Grid_3.jpg,left,677.2649999985006,true,high,false
MS8wtcWY,3jhb4bpsgnm0h9bvp7tggfn0kkoq96,3olqqlkknw22d2wttuuv0c8gjiwej0,MS8wtcWY,2020-0188,2020-05-21,13:16:50,13:42:23,NA,incomplete,50,color,1,left,Purple_Triangle_Stripes_2.jpg,Purple_Star_Grid_3.jpg,Blue_Triangle_Dots_4.jpg,left,526.8750000031432,true,high,false
MS8wtcWY,3jhb4bpsgnm0h9bvp7tggfn0kkoq96,3olqqlkknw22d2wttuuv0c8gjiwej0,MS8wtcWY,2020-0188,2020-05-21,13:16:50,13:42:23,NA,incomplete,51,color,1,right,Green_Star_Chess_3.jpg,Red_Star_Dots_4.jpg,Green_Circle_Stripes_2.jpg,left,558.0950000003213,false,high,false
MS8wtcWY,3jhb4bpsgnm0h9bvp7tggfn0kkoq96,3olqqlkknw22d2wttuuv0c8gjiwej0,MS8wtcWY,2020-0188,2020-05-21,13:16:50,13:42:23,NA,incomplete,52,color,0,left,Purple_Circle_Chess_2.jpg,Purple_Plus_Grid_4.jpg,Blue_Circle_Stripes_1.jpg,left,332.040000001085,true,high,false
MS8wtcWY,3jhb4bpsgnm0h9bvp7tggfn0kkoq96,3olqqlkknw22d2wttuuv0c8gjiwej0,MS8wtcWY,2020-0188,2020-05-21,13:16:50,13:42:23,NA,incomplete,53,color,1,right,Blue_Circle_Chess_1.jpg,Red_Circle_Dots_3.jpg,Blue_Star_Grid_2.jpg,right,611.6449999972247,true,high,false
MS8wtcWY,3jhb4bpsgnm0h9bvp7tggfn0kkoq96,3olqqlkknw22d2wttuuv0c8gjiwej0,MS8wtcWY,2020-0188,2020-05-21,13:16:50,13:42:23,NA,incomplete,54,color,1,left,Blue_Star_Stripes_4.jpg,Blue_Plus_Chess_3.jpg,Purple_Star_Grid_2.jpg,right,352.2199999933364,false,high,false
MS8wtcWY,3jhb4bpsgnm0h9bvp7tggfn0kkoq96,3olqqlkknw22d2wttuuv0c8gjiwej0,MS8wtcWY,2020-0188,2020-05-21,13:16:50,13:42:23,NA,incomplete,55,color,1,right,Green_Star_Stripes_2.jpg,Purple_Star_Dots_3.jpg,Green_Circle_Chess_1.jpg,right,469.43499999912456,true,high,false
MS8wtcWY,3jhb4bpsgnm0h9bvp7tggfn0kkoq96,3olqqlkknw22d2wttuuv0c8gjiwej0,MS8wtcWY,2020-0188,2020-05-21,13:16:50,13:42:23,NA,incomplete,56,color,1,right,Green_Triangle_Chess_2.jpg,Red_Triangle_Dots_4.jpg,Green_Circle_Stripes_1.jpg,right,503.2749999954831,true,high,false
MS8wtcWY,3jhb4bpsgnm0h9bvp7tggfn0kkoq96,3olqqlkknw22d2wttuuv0c8gjiwej0,MS8wtcWY,2020-0188,2020-05-21,13:16:50,13:42:23,NA,incomplete,57,color,1,left,Purple_Star_Dots_4.jpg,Purple_Triangle_Chess_2.jpg,Red_Star_Grid_1.jpg,left,599.1300000022165,true,high,false
MS8wtcWY,3jhb4bpsgnm0h9bvp7tggfn0kkoq96,3olqqlkknw22d2wttuuv0c8gjiwej0,MS8wtcWY,2020-0188,2020-05-21,13:16:50,13:42:23,NA,incomplete,58,color,1,left,Red_Star_Chess_4.jpg,Red_Circle_Grid_1.jpg,Green_Star_Stripes_2.jpg,right,627.5150000001304,false,high,false
MS8wtcWY,3jhb4bpsgnm0h9bvp7tggfn0kkoq96,3olqqlkknw22d2wttuuv0c8gjiwej0,MS8wtcWY,2020-0188,2020-05-21,13:16:50,13:42:23,NA,incomplete,59,color,1,left,Green_Circle_Dots_1.jpg,Green_Plus_Stripes_3.jpg,Red_Circle_Grid_2.jpg,left,831.140000001993,true,high,false
MS8wtcWY,3jhb4bpsgnm0h9bvp7tggfn0kkoq96,3olqqlkknw22d2wttuuv0c8gjiwej0,MS8wtcWY,2020-0188,2020-05-21,13:16:50,13:42:23,NA,incomplete,60,shape,1,left,Blue_Star_Dots_3.jpg,Purple_Star_Stripes_2.jpg,Blue_Triangle_Chess_4.jpg,left,898.6250000016298,true,high,false
MS8wtcWY,3jhb4bpsgnm0h9bvp7tggfn0kkoq96,3olqqlkknw22d2wttuuv0c8gjiwej0,MS8wtcWY,2020-0188,2020-05-21,13:16:50,13:42:23,NA,incomplete,61,shape,0,left,Blue_Star_Chess_2.jpg,Purple_Star_Stripes_4.jpg,Blue_Plus_Dots_1.jpg,none,0,false,high,false
MS8wtcWY,3jhb4bpsgnm0h9bvp7tggfn0kkoq96,3olqqlkknw22d2wttuuv0c8gjiwej0,MS8wtcWY,2020-0188,2020-05-21,13:16:50,13:42:23,NA,incomplete,62,shape,1,right,Green_Plus_Dots_1.jpg,Green_Triangle_Stripes_2.jpg,Red_Plus_Chess_3.jpg,right,686.915000005858,true,high,false
MS8wtcWY,3jhb4bpsgnm0h9bvp7tggfn0kkoq96,3olqqlkknw22d2wttuuv0c8gjiwej0,MS8wtcWY,2020-0188,2020-05-21,13:16:50,13:42:23,NA,incomplete,63,shape,1,right,Green_Plus_Stripes_1.jpg,Green_Triangle_Grid_3.jpg,Blue_Plus_Chess_4.jpg,left,583.6950000012293,false,high,false
MS8wtcWY,3jhb4bpsgnm0h9bvp7tggfn0kkoq96,3olqqlkknw22d2wttuuv0c8gjiwej0,MS8wtcWY,2020-0188,2020-05-21,13:16:50,13:42:23,NA,incomplete,64,shape,1,right,Red_Plus_Dots_4.jpg,Red_Star_Grid_2.jpg,Green_Plus_Stripes_3.jpg,right,419.9799999988172,true,high,false
MS8wtcWY,3jhb4bpsgnm0h9bvp7tggfn0kkoq96,3olqqlkknw22d2wttuuv0c8gjiwej0,MS8wtcWY,2020-0188,2020-05-21,13:16:50,13:42:23,NA,incomplete,65,shape,0,left,Red_Plus_Chess_3.jpg,Purple_Plus_Stripes_4.jpg,Red_Circle_Dots_2.jpg,left,663.6950000028592,true,high,false
MS8wtcWY,3jhb4bpsgnm0h9bvp7tggfn0kkoq96,3olqqlkknw22d2wttuuv0c8gjiwej0,MS8wtcWY,2020-0188,2020-05-21,13:16:50,13:42:23,NA,incomplete,66,shape,1,right,Green_Plus_Grid_3.jpg,Green_Triangle_Dots_2.jpg,Blue_Plus_Chess_4.jpg,right,625.7699999986216,true,high,false
MS8wtcWY,3jhb4bpsgnm0h9bvp7tggfn0kkoq96,3olqqlkknw22d2wttuuv0c8gjiwej0,MS8wtcWY,2020-0188,2020-05-21,13:16:50,13:42:23,NA,incomplete,67,shape,1,left,Green_Star_Grid_3.jpg,Red_Star_Stripes_2.jpg,Green_Plus_Chess_4.jpg,left,989.244999997085,true,high,false
MS8wtcWY,3jhb4bpsgnm0h9bvp7tggfn0kkoq96,3olqqlkknw22d2wttuuv0c8gjiwej0,MS8wtcWY,2020-0188,2020-05-21,13:16:50,13:42:23,NA,incomplete,68,shape,1,left,Blue_Star_Stripes_2.jpg,Red_Star_Dots_1.jpg,Blue_Plus_Chess_3.jpg,left,889.7199999992736,true,high,false
MS8wtcWY,3jhb4bpsgnm0h9bvp7tggfn0kkoq96,3olqqlkknw22d2wttuuv0c8gjiwej0,MS8wtcWY,2020-0188,2020-05-21,13:16:50,13:42:23,NA,incomplete,69,shape,1,left,Green_Star_Dots_4.jpg,Blue_Star_Stripes_2.jpg,Green_Plus_Chess_1.jpg,left,506.5099999993108,true,high,false
MS8wtcWY,3jhb4bpsgnm0h9bvp7tggfn0kkoq96,3olqqlkknw22d2wttuuv0c8gjiwej0,MS8wtcWY,2020-0188,2020-05-21,13:16:50,13:42:23,NA,incomplete,70,color,1,right,Blue_Plus_Stripes_1.jpg,Purple_Plus_Chess_3.jpg,Blue_Triangle_Grid_2.jpg,left,602.4899999974295,false,high,false
MS8wtcWY,3jhb4bpsgnm0h9bvp7tggfn0kkoq96,3olqqlkknw22d2wttuuv0c8gjiwej0,MS8wtcWY,2020-0188,2020-05-21,13:16:50,13:42:23,NA,incomplete,71,color,1,right,Red_Circle_Stripes_4.jpg,Blue_Circle_Dots_3.jpg,Red_Star_Grid_1.jpg,left,614.8600000017323,false,high,false
MS8wtcWY,3jhb4bpsgnm0h9bvp7tggfn0kkoq96,3olqqlkknw22d2wttuuv0c8gjiwej0,MS8wtcWY,2020-0188,2020-05-21,13:16:50,13:42:23,NA,incomplete,72,color,1,right,Red_Plus_Grid_4.jpg,Green_Plus_Chess_3.jpg,Red_Triangle_Stripes_1.jpg,right,898.8900000038557,true,high,false
MS8wtcWY,3jhb4bpsgnm0h9bvp7tggfn0kkoq96,3olqqlkknw22d2wttuuv0c8gjiwej0,MS8wtcWY,2020-0188,2020-05-21,13:16:50,13:42:23,NA,incomplete,73,color,1,right,Red_Plus_Chess_4.jpg,Purple_Plus_Grid_1.jpg,Red_Triangle_Stripes_2.jpg,right,547.5650000006426,true,high,false
MS8wtcWY,3jhb4bpsgnm0h9bvp7tggfn0kkoq96,3olqqlkknw22d2wttuuv0c8gjiwej0,MS8wtcWY,2020-0188,2020-05-21,13:16:50,13:42:23,NA,incomplete,74,color,1,left,Blue_Plus_Dots_2.jpg,Blue_Circle_Grid_3.jpg,Red_Plus_Chess_1.jpg,right,594.1999999994878,false,high,false
MS8wtcWY,3jhb4bpsgnm0h9bvp7tggfn0kkoq96,3olqqlkknw22d2wttuuv0c8gjiwej0,MS8wtcWY,2020-0188,2020-05-21,13:16:50,13:42:23,NA,incomplete,75,color,1,right,Purple_Triangle_Grid_3.jpg,Green_Triangle_Dots_2.jpg,Purple_Circle_Stripes_4.jpg,left,830.9299999964423,false,high,false
MS8wtcWY,3jhb4bpsgnm0h9bvp7tggfn0kkoq96,3olqqlkknw22d2wttuuv0c8gjiwej0,MS8wtcWY,2020-0188,2020-05-21,13:16:50,13:42:23,NA,incomplete,76,color,0,left,Green_Star_Chess_3.jpg,Green_Triangle_Stripes_1.jpg,Blue_Star_Grid_4.jpg,left,530.7400000020862,true,high,false
MS8wtcWY,3jhb4bpsgnm0h9bvp7tggfn0kkoq96,3olqqlkknw22d2wttuuv0c8gjiwej0,MS8wtcWY,2020-0188,2020-05-21,13:16:50,13:42:23,NA,incomplete,77,color,1,right,Blue_Star_Stripes_3.jpg,Green_Star_Dots_4.jpg,Blue_Circle_Grid_1.jpg,right,657.9749999945052,true,high,false
MS8wtcWY,3jhb4bpsgnm0h9bvp7tggfn0kkoq96,3olqqlkknw22d2wttuuv0c8gjiwej0,MS8wtcWY,2020-0188,2020-05-21,13:16:50,13:42:23,NA,incomplete,78,color,1,right,Green_Circle_Chess_3.jpg,Purple_Circle_Dots_4.jpg,Green_Star_Grid_2.jpg,right,539.9099999994505,true,high,false
MS8wtcWY,3jhb4bpsgnm0h9bvp7tggfn0kkoq96,3olqqlkknw22d2wttuuv0c8gjiwej0,MS8wtcWY,2020-0188,2020-05-21,13:16:50,13:42:23,NA,incomplete,79,color,0,left,Green_Circle_Chess_1.jpg,Green_Triangle_Stripes_3.jpg,Purple_Circle_Dots_2.jpg,left,554.785000000149,true,high,false
MS8wtcWY,3jhb4bpsgnm0h9bvp7tggfn0kkoq96,3olqqlkknw22d2wttuuv0c8gjiwej0,MS8wtcWY,2020-0188,2020-05-21,13:16:50,13:42:23,NA,incomplete,80,shape,1,right,Green_Plus_Grid_1.jpg,Green_Triangle_Chess_3.jpg,Blue_Plus_Stripes_2.jpg,left,504.69000000157394,false,high,false
MS8wtcWY,3jhb4bpsgnm0h9bvp7tggfn0kkoq96,3olqqlkknw22d2wttuuv0c8gjiwej0,MS8wtcWY,2020-0188,2020-05-21,13:16:50,13:42:23,NA,incomplete,81,shape,0,right,Green_Plus_Stripes_4.jpg,Green_Star_Grid_3.jpg,Red_Plus_Chess_2.jpg,left,457.0300000049174,false,high,false
MS8wtcWY,3jhb4bpsgnm0h9bvp7tggfn0kkoq96,3olqqlkknw22d2wttuuv0c8gjiwej0,MS8wtcWY,2020-0188,2020-05-21,13:16:50,13:42:23,NA,incomplete,82,shape,0,left,Green_Triangle_Dots_1.jpg,Blue_Triangle_Stripes_4.jpg,Green_Circle_Chess_3.jpg,right,474.8099999995902,false,high,false
MS8wtcWY,3jhb4bpsgnm0h9bvp7tggfn0kkoq96,3olqqlkknw22d2wttuuv0c8gjiwej0,MS8wtcWY,2020-0188,2020-05-21,13:16:50,13:42:23,NA,incomplete,83,shape,1,left,Blue_Plus_Stripes_4.jpg,Red_Plus_Dots_1.jpg,Blue_Star_Grid_2.jpg,right,460.40999999968335,false,high,false
MS8wtcWY,3jhb4bpsgnm0h9bvp7tggfn0kkoq96,3olqqlkknw22d2wttuuv0c8gjiwej0,MS8wtcWY,2020-0188,2020-05-21,13:16:50,13:42:23,NA,incomplete,84,shape,1,left,Purple_Circle_Dots_1.jpg,Blue_Circle_Chess_2.jpg,Purple_Triangle_Stripes_4.jpg,right,702.1099999984726,false,high,false
MS8wtcWY,3jhb4bpsgnm0h9bvp7tggfn0kkoq96,3olqqlkknw22d2wttuuv0c8gjiwej0,MS8wtcWY,2020-0188,2020-05-21,13:16:50,13:42:23,NA,incomplete,85,shape,1,right,Green_Triangle_Chess_2.jpg,Green_Star_Grid_4.jpg,Blue_Triangle_Dots_1.jpg,left,502.5549999992363,false,high,false
MS8wtcWY,3jhb4bpsgnm0h9bvp7tggfn0kkoq96,3olqqlkknw22d2wttuuv0c8gjiwej0,MS8wtcWY,2020-0188,2020-05-21,13:16:50,13:42:23,NA,incomplete,86,shape,0,right,Red_Triangle_Chess_1.jpg,Red_Circle_Stripes_4.jpg,Purple_Triangle_Dots_3.jpg,left,662.6749999995809,false,high,false
MS8wtcWY,3jhb4bpsgnm0h9bvp7tggfn0kkoq96,3olqqlkknw22d2wttuuv0c8gjiwej0,MS8wtcWY,2020-0188,2020-05-21,13:16:50,13:42:23,NA,incomplete,87,shape,1,left,Blue_Circle_Stripes_3.jpg,Green_Circle_Dots_4.jpg,Blue_Star_Chess_1.jpg,right,672.2299999967217,false,high,false
MS8wtcWY,3jhb4bpsgnm0h9bvp7tggfn0kkoq96,3olqqlkknw22d2wttuuv0c8gjiwej0,MS8wtcWY,2020-0188,2020-05-21,13:16:50,13:42:23,NA,incomplete,88,shape,1,left,Red_Circle_Stripes_1.jpg,Green_Circle_Chess_2.jpg,Red_Star_Grid_4.jpg,right,665.7799999956042,false,high,false
MS8wtcWY,3jhb4bpsgnm0h9bvp7tggfn0kkoq96,3olqqlkknw22d2wttuuv0c8gjiwej0,MS8wtcWY,2020-0188,2020-05-21,13:16:50,13:42:23,NA,incomplete,89,shape,1,left,Green_Triangle_Stripes_3.jpg,Purple_Triangle_Dots_1.jpg,Green_Circle_Grid_4.jpg,left,1171.9750000047497,true,high,false
MS8wtcWY,3jhb4bpsgnm0h9bvp7tggfn0kkoq96,3olqqlkknw22d2wttuuv0c8gjiwej0,MS8wtcWY,2020-0188,2020-05-21,13:16:50,13:42:23,NA,incomplete,90,color,1,left,Blue_Circle_Chess_2.jpg,Blue_Plus_Stripes_4.jpg,Red_Circle_Dots_3.jpg,right,1271.6849999995902,false,high,false
MS8wtcWY,3jhb4bpsgnm0h9bvp7tggfn0kkoq96,3olqqlkknw22d2wttuuv0c8gjiwej0,MS8wtcWY,2020-0188,2020-05-21,13:16:50,13:42:23,NA,incomplete,91,color,1,left,Green_Plus_Chess_1.jpg,Green_Circle_Stripes_3.jpg,Purple_Plus_Dots_4.jpg,right,715.834999995539,false,high,false
MS8wtcWY,3jhb4bpsgnm0h9bvp7tggfn0kkoq96,3olqqlkknw22d2wttuuv0c8gjiwej0,MS8wtcWY,2020-0188,2020-05-21,13:16:50,13:42:23,NA,incomplete,92,color,1,left,Green_Plus_Stripes_1.jpg,Green_Triangle_Grid_2.jpg,Red_Plus_Dots_3.jpg,right,578.9250000016764,false,high,false
MS8wtcWY,3jhb4bpsgnm0h9bvp7tggfn0kkoq96,3olqqlkknw22d2wttuuv0c8gjiwej0,MS8wtcWY,2020-0188,2020-05-21,13:16:50,13:42:23,NA,incomplete,93,color,1,left,Blue_Star_Stripes_1.jpg,Blue_Circle_Chess_4.jpg,Purple_Star_Grid_2.jpg,right,895.9399999948218,false,high,false
MS8wtcWY,3jhb4bpsgnm0h9bvp7tggfn0kkoq96,3olqqlkknw22d2wttuuv0c8gjiwej0,MS8wtcWY,2020-0188,2020-05-21,13:16:50,13:42:23,NA,incomplete,94,color,1,right,Green_Triangle_Dots_3.jpg,Red_Triangle_Chess_1.jpg,Green_Plus_Grid_4.jpg,right,721.1050000041723,true,high,false
MS8wtcWY,3jhb4bpsgnm0h9bvp7tggfn0kkoq96,3olqqlkknw22d2wttuuv0c8gjiwej0,MS8wtcWY,2020-0188,2020-05-21,13:16:50,13:42:23,NA,incomplete,95,color,1,right,Red_Circle_Chess_4.jpg,Purple_Circle_Stripes_1.jpg,Red_Triangle_Dots_2.jpg,right,568.4649999965914,true,high,false
MS8wtcWY,3jhb4bpsgnm0h9bvp7tggfn0kkoq96,3olqqlkknw22d2wttuuv0c8gjiwej0,MS8wtcWY,2020-0188,2020-05-21,13:16:50,13:42:23,NA,incomplete,96,color,1,right,Blue_Plus_Grid_2.jpg,Red_Plus_Dots_4.jpg,Blue_Circle_Stripes_3.jpg,right,885.9850000008009,true,high,false
MS8wtcWY,3jhb4bpsgnm0h9bvp7tggfn0kkoq96,3olqqlkknw22d2wttuuv0c8gjiwej0,MS8wtcWY,2020-0188,2020-05-21,13:16:50,13:42:23,NA,incomplete,97,color,1,right,Green_Star_Grid_2.jpg,Purple_Star_Dots_3.jpg,Green_Triangle_Chess_4.jpg,right,438.4500000013504,true,high,false
MS8wtcWY,3jhb4bpsgnm0h9bvp7tggfn0kkoq96,3olqqlkknw22d2wttuuv0c8gjiwej0,MS8wtcWY,2020-0188,2020-05-21,13:16:50,13:42:23,NA,incomplete,98,color,1,left,Red_Plus_Dots_2.jpg,Red_Star_Grid_3.jpg,Green_Plus_Stripes_1.jpg,left,745.3199999944773,true,high,false
MS8wtcWY,3jhb4bpsgnm0h9bvp7tggfn0kkoq96,3olqqlkknw22d2wttuuv0c8gjiwej0,MS8wtcWY,2020-0188,2020-05-21,13:16:50,13:42:23,NA,incomplete,99,color,1,right,Purple_Star_Stripes_3.jpg,Blue_Star_Grid_4.jpg,Purple_Plus_Chess_1.jpg,right,719.9049999981653,true,high,false
MS8wtcWY,3jhb4bpsgnm0h9bvp7tggfn0kkoq96,3olqqlkknw22d2wttuuv0c8gjiwej0,MS8wtcWY,2020-0188,2020-05-21,13:16:50,13:42:23,NA,incomplete,100,shape,1,right,Red_Circle_Grid_4.jpg,Red_Triangle_Dots_2.jpg,Green_Circle_Stripes_1.jpg,left,551.525000002468,false,high,false
MS8wtcWY,3jhb4bpsgnm0h9bvp7tggfn0kkoq96,3olqqlkknw22d2wttuuv0c8gjiwej0,MS8wtcWY,2020-0188,2020-05-21,13:16:50,13:42:23,NA,incomplete,101,shape,1,right,Green_Triangle_Dots_2.jpg,Green_Circle_Stripes_4.jpg,Red_Triangle_Grid_1.jpg,left,518.1050000027753,false,high,false
MS8wtcWY,3jhb4bpsgnm0h9bvp7tggfn0kkoq96,3olqqlkknw22d2wttuuv0c8gjiwej0,MS8wtcWY,2020-0188,2020-05-21,13:16:50,13:42:23,NA,incomplete,102,shape,1,left,Red_Circle_Stripes_1.jpg,Purple_Circle_Dots_2.jpg,Red_Plus_Grid_4.jpg,left,917.3100000044797,true,high,false
MS8wtcWY,3jhb4bpsgnm0h9bvp7tggfn0kkoq96,3olqqlkknw22d2wttuuv0c8gjiwej0,MS8wtcWY,2020-0188,2020-05-21,13:16:50,13:42:23,NA,incomplete,103,shape,1,right,Blue_Circle_Dots_4.jpg,Blue_Star_Stripes_2.jpg,Green_Circle_Grid_3.jpg,right,644.2549999991897,true,high,false
MS8wtcWY,3jhb4bpsgnm0h9bvp7tggfn0kkoq96,3olqqlkknw22d2wttuuv0c8gjiwej0,MS8wtcWY,2020-0188,2020-05-21,13:16:50,13:42:23,NA,incomplete,104,shape,1,right,Green_Star_Stripes_1.jpg,Green_Circle_Dots_4.jpg,Red_Star_Chess_3.jpg,right,703.045000002021,true,high,false
MS8wtcWY,3jhb4bpsgnm0h9bvp7tggfn0kkoq96,3olqqlkknw22d2wttuuv0c8gjiwej0,MS8wtcWY,2020-0188,2020-05-21,13:16:50,13:42:23,NA,incomplete,105,shape,1,left,Purple_Triangle_Stripes_2.jpg,Green_Triangle_Grid_4.jpg,Purple_Star_Chess_3.jpg,left,743.2049999989104,true,high,false
MS8wtcWY,3jhb4bpsgnm0h9bvp7tggfn0kkoq96,3olqqlkknw22d2wttuuv0c8gjiwej0,MS8wtcWY,2020-0188,2020-05-21,13:16:50,13:42:23,NA,incomplete,106,shape,1,right,Red_Triangle_Stripes_1.jpg,Red_Plus_Grid_3.jpg,Purple_Triangle_Chess_4.jpg,right,990.0800000033341,true,high,false
MS8wtcWY,3jhb4bpsgnm0h9bvp7tggfn0kkoq96,3olqqlkknw22d2wttuuv0c8gjiwej0,MS8wtcWY,2020-0188,2020-05-21,13:16:50,13:42:23,NA,incomplete,107,shape,1,right,Blue_Triangle_Grid_1.jpg,Blue_Circle_Stripes_3.jpg,Green_Triangle_Chess_4.jpg,right,554.689999997383,true,high,false
MS8wtcWY,3jhb4bpsgnm0h9bvp7tggfn0kkoq96,3olqqlkknw22d2wttuuv0c8gjiwej0,MS8wtcWY,2020-0188,2020-05-21,13:16:50,13:42:23,NA,incomplete,108,shape,1,left,Red_Plus_Chess_2.jpg,Green_Plus_Stripes_3.jpg,Red_Triangle_Grid_4.jpg,left,632.749999997206,true,high,false
MS8wtcWY,3jhb4bpsgnm0h9bvp7tggfn0kkoq96,3olqqlkknw22d2wttuuv0c8gjiwej0,MS8wtcWY,2020-0188,2020-05-21,13:16:50,13:42:23,NA,incomplete,109,shape,1,right,Red_Plus_Grid_4.jpg,Red_Circle_Stripes_2.jpg,Blue_Plus_Chess_1.jpg,right,756.0850000008941,true,high,false
MS8wtcWY,3jhb4bpsgnm0h9bvp7tggfn0kkoq96,3olqqlkknw22d2wttuuv0c8gjiwej0,MS8wtcWY,2020-0188,2020-05-21,13:16:50,13:42:23,NA,incomplete,110,color,1,right,Blue_Plus_Chess_1.jpg,Purple_Plus_Dots_4.jpg,Blue_Triangle_Grid_3.jpg,right,474.04500000271946,true,high,false
MS8wtcWY,3jhb4bpsgnm0h9bvp7tggfn0kkoq96,3olqqlkknw22d2wttuuv0c8gjiwej0,MS8wtcWY,2020-0188,2020-05-21,13:16:50,13:42:23,NA,incomplete,111,color,0,left,Red_Plus_Chess_2.jpg,Red_Triangle_Stripes_3.jpg,Blue_Plus_Dots_1.jpg,left,891.5150000031572,true,high,false
MS8wtcWY,3jhb4bpsgnm0h9bvp7tggfn0kkoq96,3olqqlkknw22d2wttuuv0c8gjiwej0,MS8wtcWY,2020-0188,2020-05-21,13:16:50,13:42:23,NA,incomplete,112,color,1,left,Purple_Triangle_Grid_2.jpg,Purple_Circle_Dots_4.jpg,Red_Triangle_Chess_3.jpg,right,668.2149999977555,false,high,false
MS8wtcWY,3jhb4bpsgnm0h9bvp7tggfn0kkoq96,3olqqlkknw22d2wttuuv0c8gjiwej0,MS8wtcWY,2020-0188,2020-05-21,13:16:50,13:42:23,NA,incomplete,113,color,0,right,Blue_Plus_Grid_4.jpg,Purple_Plus_Chess_3.jpg,Blue_Circle_Stripes_1.jpg,right,645.7050000026356,true,high,false
MS8wtcWY,3jhb4bpsgnm0h9bvp7tggfn0kkoq96,3olqqlkknw22d2wttuuv0c8gjiwej0,MS8wtcWY,2020-0188,2020-05-21,13:16:50,13:42:23,NA,incomplete,114,color,1,right,Blue_Triangle_Dots_4.jpg,Red_Triangle_Grid_1.jpg,Blue_Star_Chess_3.jpg,right,448.2900000002701,true,high,false
MS8wtcWY,3jhb4bpsgnm0h9bvp7tggfn0kkoq96,3olqqlkknw22d2wttuuv0c8gjiwej0,MS8wtcWY,2020-0188,2020-05-21,13:16:50,13:42:23,NA,incomplete,115,color,1,left,Purple_Plus_Chess_1.jpg,Purple_Star_Grid_4.jpg,Red_Plus_Dots_3.jpg,left,563.1350000039674,true,high,false
MS8wtcWY,3jhb4bpsgnm0h9bvp7tggfn0kkoq96,3olqqlkknw22d2wttuuv0c8gjiwej0,MS8wtcWY,2020-0188,2020-05-21,13:16:50,13:42:23,NA,incomplete,116,color,0,right,Green_Star_Dots_4.jpg,Blue_Star_Grid_1.jpg,Green_Circle_Stripes_2.jpg,right,609.2600000046659,true,high,false
MS8wtcWY,3jhb4bpsgnm0h9bvp7tggfn0kkoq96,3olqqlkknw22d2wttuuv0c8gjiwej0,MS8wtcWY,2020-0188,2020-05-21,13:16:50,13:42:23,NA,incomplete,117,color,1,right,Blue_Circle_Stripes_1.jpg,Green_Circle_Dots_4.jpg,Blue_Triangle_Chess_2.jpg,right,653.294999996433,true,high,false
MS8wtcWY,3jhb4bpsgnm0h9bvp7tggfn0kkoq96,3olqqlkknw22d2wttuuv0c8gjiwej0,MS8wtcWY,2020-0188,2020-05-21,13:16:50,13:42:23,NA,incomplete,118,color,0,right,Purple_Star_Dots_3.jpg,Green_Star_Chess_2.jpg,Purple_Triangle_Stripes_4.jpg,right,455.3449999948498,true,high,false
MS8wtcWY,3jhb4bpsgnm0h9bvp7tggfn0kkoq96,3olqqlkknw22d2wttuuv0c8gjiwej0,MS8wtcWY,2020-0188,2020-05-21,13:16:50,13:42:23,NA,incomplete,119,color,1,right,Green_Star_Stripes_4.jpg,Red_Star_Chess_3.jpg,Green_Triangle_Dots_1.jpg,right,569.3699999973178,true,high,false
MS8wtcWY,3jhb4bpsgnm0h9bvp7tggfn0kkoq96,3olqqlkknw22d2wttuuv0c8gjiwej0,MS8wtcWY,2020-0188,2020-05-21,13:16:50,13:42:23,NA,incomplete,120,filling,0,left,Blue_Star_Stripes_2.jpg,Green_Triangle_Stripes_4.jpg,Red_Plus_Dots_2.jpg,NA,NA,NA,high,false
MS8wtcWY,3jhb4bpsgnm0h9bvp7tggfn0kkoq96,3olqqlkknw22d2wttuuv0c8gjiwej0,MS8wtcWY,2020-0188,2020-05-21,13:16:50,13:42:23,NA,incomplete,121,filling,1,left,Green_Star_Chess_1.jpg,Red_Plus_Chess_2.jpg,Purple_Triangle_Dots_1.jpg,left,1302.0949999990407,true,high,false
MS8wtcWY,3jhb4bpsgnm0h9bvp7tggfn0kkoq96,3olqqlkknw22d2wttuuv0c8gjiwej0,MS8wtcWY,2020-0188,2020-05-21,13:16:50,13:42:23,NA,incomplete,122,filling,0,left,Green_Circle_Grid_3.jpg,Purple_Star_Grid_2.jpg,Blue_Triangle_Chess_3.jpg,left,1814.1599999943282,true,high,false
MS8wtcWY,3jhb4bpsgnm0h9bvp7tggfn0kkoq96,3olqqlkknw22d2wttuuv0c8gjiwej0,MS8wtcWY,2020-0188,2020-05-21,13:16:50,13:42:23,NA,incomplete,123,filling,1,left,Blue_Star_Chess_2.jpg,Red_Plus_Chess_3.jpg,Purple_Triangle_Dots_2.jpg,left,1634.20500000217,true,high,false
MS8wtcWY,3jhb4bpsgnm0h9bvp7tggfn0kkoq96,3olqqlkknw22d2wttuuv0c8gjiwej0,MS8wtcWY,2020-0188,2020-05-21,13:16:50,13:42:23,NA,incomplete,124,filling,1,left,Red_Plus_Chess_4.jpg,Purple_Circle_Chess_1.jpg,Green_Star_Grid_4.jpg,left,1493.1600000055041,true,high,false
MS8wtcWY,3jhb4bpsgnm0h9bvp7tggfn0kkoq96,3olqqlkknw22d2wttuuv0c8gjiwej0,MS8wtcWY,2020-0188,2020-05-21,13:16:50,13:42:23,NA,incomplete,125,filling,0,left,Red_Star_Chess_4.jpg,Purple_Triangle_Chess_2.jpg,Blue_Circle_Grid_4.jpg,left,1517.8500000038184,true,high,false
MS8wtcWY,3jhb4bpsgnm0h9bvp7tggfn0kkoq96,3olqqlkknw22d2wttuuv0c8gjiwej0,MS8wtcWY,2020-0188,2020-05-21,13:16:50,13:42:23,NA,incomplete,126,filling,1,left,Purple_Circle_Grid_4.jpg,Blue_Star_Grid_2.jpg,Red_Triangle_Stripes_4.jpg,none,0,false,high,false
MS8wtcWY,3jhb4bpsgnm0h9bvp7tggfn0kkoq96,3olqqlkknw22d2wttuuv0c8gjiwej0,MS8wtcWY,2020-0188,2020-05-21,13:16:50,13:42:23,NA,incomplete,127,filling,1,left,Red_Star_Grid_4.jpg,Purple_Circle_Grid_1.jpg,Green_Plus_Dots_4.jpg,left,1462.325000000419,true,high,false
MS8wtcWY,3jhb4bpsgnm0h9bvp7tggfn0kkoq96,3olqqlkknw22d2wttuuv0c8gjiwej0,MS8wtcWY,2020-0188,2020-05-21,13:16:50,13:42:23,NA,incomplete,128,filling,0,right,Red_Plus_Grid_2.jpg,Green_Circle_Dots_2.jpg,Blue_Star_Grid_1.jpg,right,1296.2150000021793,true,high,false
MS8wtcWY,3jhb4bpsgnm0h9bvp7tggfn0kkoq96,3olqqlkknw22d2wttuuv0c8gjiwej0,MS8wtcWY,2020-0188,2020-05-21,13:16:50,13:42:23,NA,incomplete,129,filling,1,right,Red_Star_Chess_1.jpg,Green_Plus_Stripes_1.jpg,Blue_Triangle_Chess_3.jpg,right,1121.0900000005495,true,high,false
MS8wtcWY,3jhb4bpsgnm0h9bvp7tggfn0kkoq96,3olqqlkknw22d2wttuuv0c8gjiwej0,MS8wtcWY,2020-0188,2020-05-21,13:16:50,13:42:23,NA,incomplete,130,filling,0,left,Red_Star_Dots_1.jpg,Green_Plus_Dots_3.jpg,Purple_Circle_Chess_1.jpg,right,600.7600000011735,false,high,false
MS8wtcWY,3jhb4bpsgnm0h9bvp7tggfn0kkoq96,3olqqlkknw22d2wttuuv0c8gjiwej0,MS8wtcWY,2020-0188,2020-05-21,13:16:50,13:42:23,NA,incomplete,131,filling,1,right,Red_Circle_Stripes_4.jpg,Purple_Plus_Dots_4.jpg,Blue_Triangle_Stripes_2.jpg,right,852.3699999933597,true,high,false
MS8wtcWY,3jhb4bpsgnm0h9bvp7tggfn0kkoq96,3olqqlkknw22d2wttuuv0c8gjiwej0,MS8wtcWY,2020-0188,2020-05-21,13:16:50,13:42:23,NA,incomplete,132,filling,1,right,Red_Star_Grid_3.jpg,Blue_Plus_Chess_3.jpg,Green_Triangle_Grid_4.jpg,left,1110.5150000001304,false,high,false
MS8wtcWY,3jhb4bpsgnm0h9bvp7tggfn0kkoq96,3olqqlkknw22d2wttuuv0c8gjiwej0,MS8wtcWY,2020-0188,2020-05-21,13:16:50,13:42:23,NA,incomplete,133,filling,1,left,Red_Star_Chess_4.jpg,Purple_Plus_Chess_2.jpg,Green_Triangle_Dots_4.jpg,right,1630.8900000003632,false,high,false
MS8wtcWY,3jhb4bpsgnm0h9bvp7tggfn0kkoq96,3olqqlkknw22d2wttuuv0c8gjiwej0,MS8wtcWY,2020-0188,2020-05-21,13:16:50,13:42:23,NA,incomplete,134,filling,1,left,Green_Triangle_Chess_2.jpg,Purple_Plus_Chess_1.jpg,Red_Circle_Stripes_2.jpg,left,913.9349999967963,true,high,false
MS8wtcWY,3jhb4bpsgnm0h9bvp7tggfn0kkoq96,3olqqlkknw22d2wttuuv0c8gjiwej0,MS8wtcWY,2020-0188,2020-05-21,13:16:50,13:42:23,NA,incomplete,135,filling,1,left,Blue_Triangle_Grid_2.jpg,Purple_Plus_Grid_4.jpg,Red_Circle_Stripes_2.jpg,left,1201.9650000003166,true,high,false
MS8wtcWY,3jhb4bpsgnm0h9bvp7tggfn0kkoq96,3olqqlkknw22d2wttuuv0c8gjiwej0,MS8wtcWY,2020-0188,2020-05-21,13:16:50,13:42:23,NA,incomplete,136,filling,1,left,Blue_Plus_Dots_3.jpg,Purple_Circle_Dots_4.jpg,Green_Star_Chess_3.jpg,left,1446.1000000010245,true,high,false
MS8wtcWY,3jhb4bpsgnm0h9bvp7tggfn0kkoq96,3olqqlkknw22d2wttuuv0c8gjiwej0,MS8wtcWY,2020-0188,2020-05-21,13:16:50,13:42:23,NA,incomplete,137,filling,1,left,Blue_Plus_Chess_1.jpg,Red_Triangle_Chess_2.jpg,Purple_Circle_Stripes_1.jpg,left,945.1799999952782,true,high,false
MS8wtcWY,3jhb4bpsgnm0h9bvp7tggfn0kkoq96,3olqqlkknw22d2wttuuv0c8gjiwej0,MS8wtcWY,2020-0188,2020-05-21,13:16:50,13:42:23,NA,incomplete,138,filling,1,left,Purple_Star_Stripes_2.jpg,Blue_Circle_Stripes_1.jpg,Green_Plus_Grid_2.jpg,left,1535.7849999999162,true,high,false
MS8wtcWY,3jhb4bpsgnm0h9bvp7tggfn0kkoq96,3olqqlkknw22d2wttuuv0c8gjiwej0,MS8wtcWY,2020-0188,2020-05-21,13:16:50,13:42:23,NA,incomplete,139,filling,1,left,Purple_Star_Chess_2.jpg,Red_Triangle_Chess_1.jpg,Blue_Circle_Dots_2.jpg,left,838.4650000007823,true,high,false
MS8wtcWY,3jhb4bpsgnm0h9bvp7tggfn0kkoq96,3olqqlkknw22d2wttuuv0c8gjiwej0,MS8wtcWY,2020-0188,2020-05-21,13:16:50,13:42:23,NA,incomplete,140,number,1,left,Red_Triangle_Chess_1.jpg,Purple_Circle_Grid_1.jpg,Blue_Plus_Chess_3.jpg,left,601.0099999986123,true,high,false
MS8wtcWY,3jhb4bpsgnm0h9bvp7tggfn0kkoq96,3olqqlkknw22d2wttuuv0c8gjiwej0,MS8wtcWY,2020-0188,2020-05-21,13:16:50,13:42:23,NA,incomplete,141,number,0,right,Red_Triangle_Dots_3.jpg,Blue_Circle_Dots_1.jpg,Green_Star_Grid_3.jpg,left,869.1999999938998,false,high,false
MS8wtcWY,3jhb4bpsgnm0h9bvp7tggfn0kkoq96,3olqqlkknw22d2wttuuv0c8gjiwej0,MS8wtcWY,2020-0188,2020-05-21,13:16:50,13:42:23,NA,incomplete,142,number,1,right,Blue_Circle_Chess_2.jpg,Purple_Star_Chess_3.jpg,Red_Plus_Grid_2.jpg,left,950.8500000010245,false,high,false
MS8wtcWY,3jhb4bpsgnm0h9bvp7tggfn0kkoq96,3olqqlkknw22d2wttuuv0c8gjiwej0,MS8wtcWY,2020-0188,2020-05-21,13:16:50,13:42:23,NA,incomplete,143,number,1,left,Purple_Plus_Grid_2.jpg,Red_Triangle_Dots_2.jpg,Green_Star_Grid_1.jpg,right,1044.6350000055972,false,high,false
MS8wtcWY,3jhb4bpsgnm0h9bvp7tggfn0kkoq96,3olqqlkknw22d2wttuuv0c8gjiwej0,MS8wtcWY,2020-0188,2020-05-21,13:16:50,13:42:23,NA,incomplete,144,number,1,left,Green_Circle_Grid_1.jpg,Purple_Plus_Stripes_1.jpg,Red_Triangle_Grid_2.jpg,right,911.3549999964889,false,high,false
MS8wtcWY,3jhb4bpsgnm0h9bvp7tggfn0kkoq96,3olqqlkknw22d2wttuuv0c8gjiwej0,MS8wtcWY,2020-0188,2020-05-21,13:16:50,13:42:23,NA,incomplete,145,number,1,left,Blue_Circle_Dots_4.jpg,Green_Star_Chess_4.jpg,Red_Plus_Dots_1.jpg,right,1215.315000001341,false,high,false
MS8wtcWY,3jhb4bpsgnm0h9bvp7tggfn0kkoq96,3olqqlkknw22d2wttuuv0c8gjiwej0,MS8wtcWY,2020-0188,2020-05-21,13:16:50,13:42:23,NA,incomplete,146,number,1,left,Red_Triangle_Grid_1.jpg,Blue_Plus_Stripes_1.jpg,Purple_Circle_Grid_3.jpg,right,1171.97999999905,false,high,false
MS8wtcWY,3jhb4bpsgnm0h9bvp7tggfn0kkoq96,3olqqlkknw22d2wttuuv0c8gjiwej0,MS8wtcWY,2020-0188,2020-05-21,13:16:50,13:42:23,NA,incomplete,147,number,1,left,Blue_Plus_Grid_3.jpg,Green_Triangle_Dots_3.jpg,Purple_Circle_Grid_4.jpg,right,920.9450000054203,false,high,false
MS8wtcWY,3jhb4bpsgnm0h9bvp7tggfn0kkoq96,3olqqlkknw22d2wttuuv0c8gjiwej0,MS8wtcWY,2020-0188,2020-05-21,13:16:50,13:42:23,NA,incomplete,148,number,1,right,Purple_Plus_Grid_3.jpg,Blue_Star_Grid_4.jpg,Green_Triangle_Stripes_3.jpg,left,1352.4949999991804,false,high,false
MS8wtcWY,3jhb4bpsgnm0h9bvp7tggfn0kkoq96,3olqqlkknw22d2wttuuv0c8gjiwej0,MS8wtcWY,2020-0188,2020-05-21,13:16:50,13:42:23,NA,incomplete,149,number,0,left,Green_Star_Dots_4.jpg,Red_Triangle_Chess_4.jpg,Blue_Circle_Dots_3.jpg,right,999.0150000010617,false,high,false
MS8wtcWY,3jhb4bpsgnm0h9bvp7tggfn0kkoq96,3olqqlkknw22d2wttuuv0c8gjiwej0,MS8wtcWY,2020-0188,2020-05-21,13:16:50,13:42:23,NA,incomplete,150,number,1,left,Purple_Triangle_Dots_4.jpg,Blue_Circle_Stripes_4.jpg,Green_Star_Dots_3.jpg,right,867.3750000016298,false,high,false
MS8wtcWY,3jhb4bpsgnm0h9bvp7tggfn0kkoq96,3olqqlkknw22d2wttuuv0c8gjiwej0,MS8wtcWY,2020-0188,2020-05-21,13:16:50,13:42:23,NA,incomplete,151,number,1,left,Red_Star_Stripes_3.jpg,Blue_Plus_Grid_3.jpg,Purple_Triangle_Stripes_1.jpg,right,836.4750000035856,false,high,false
MS8wtcWY,3jhb4bpsgnm0h9bvp7tggfn0kkoq96,3olqqlkknw22d2wttuuv0c8gjiwej0,MS8wtcWY,2020-0188,2020-05-21,13:16:50,13:42:23,NA,incomplete,152,number,1,right,Purple_Star_Stripes_2.jpg,Blue_Plus_Stripes_1.jpg,Green_Triangle_Dots_2.jpg,left,1335.3199999982025,false,high,false
MS8wtcWY,3jhb4bpsgnm0h9bvp7tggfn0kkoq96,3olqqlkknw22d2wttuuv0c8gjiwej0,MS8wtcWY,2020-0188,2020-05-21,13:16:50,13:42:23,NA,incomplete,153,number,1,right,Red_Circle_Grid_4.jpg,Blue_Plus_Grid_2.jpg,Green_Star_Chess_4.jpg,left,934.1449999993201,false,high,false
MS8wtcWY,3jhb4bpsgnm0h9bvp7tggfn0kkoq96,3olqqlkknw22d2wttuuv0c8gjiwej0,MS8wtcWY,2020-0188,2020-05-21,13:16:50,13:42:23,NA,incomplete,154,number,0,left,Blue_Star_Stripes_3.jpg,Red_Triangle_Chess_3.jpg,Green_Circle_Stripes_1.jpg,right,612.8300000054296,false,high,false
MS8wtcWY,3jhb4bpsgnm0h9bvp7tggfn0kkoq96,3olqqlkknw22d2wttuuv0c8gjiwej0,MS8wtcWY,2020-0188,2020-05-21,13:16:50,13:42:23,NA,incomplete,155,number,1,left,Blue_Circle_Chess_2.jpg,Green_Triangle_Grid_2.jpg,Red_Star_Chess_3.jpg,left,641.2200000048615,true,high,false
MS8wtcWY,3jhb4bpsgnm0h9bvp7tggfn0kkoq96,3olqqlkknw22d2wttuuv0c8gjiwej0,MS8wtcWY,2020-0188,2020-05-21,13:16:50,13:42:23,NA,incomplete,156,number,1,right,Blue_Circle_Grid_2.jpg,Green_Triangle_Grid_4.jpg,Purple_Plus_Dots_2.jpg,left,523.7650000052527,false,high,false
MS8wtcWY,3jhb4bpsgnm0h9bvp7tggfn0kkoq96,3olqqlkknw22d2wttuuv0c8gjiwej0,MS8wtcWY,2020-0188,2020-05-21,13:16:50,13:42:23,NA,incomplete,157,number,1,right,Blue_Triangle_Dots_2.jpg,Purple_Plus_Dots_4.jpg,Green_Circle_Stripes_2.jpg,left,1035.0350000008475,false,high,false
MS8wtcWY,3jhb4bpsgnm0h9bvp7tggfn0kkoq96,3olqqlkknw22d2wttuuv0c8gjiwej0,MS8wtcWY,2020-0188,2020-05-21,13:16:50,13:42:23,NA,incomplete,158,number,1,left,Red_Circle_Stripes_2.jpg,Purple_Triangle_Dots_2.jpg,Green_Plus_Stripes_4.jpg,right,885.8899999978021,false,high,false
MS8wtcWY,3jhb4bpsgnm0h9bvp7tggfn0kkoq96,3olqqlkknw22d2wttuuv0c8gjiwej0,MS8wtcWY,2020-0188,2020-05-21,13:16:50,13:42:23,NA,incomplete,159,number,1,left,Purple_Star_Dots_3.jpg,Red_Triangle_Stripes_3.jpg,Blue_Plus_Dots_2.jpg,right,999.1599999992177,false,high,false
MS8wtcWY,3jhb4bpsgnm0h9bvp7tggfn0kkoq96,3olqqlkknw22d2wttuuv0c8gjiwej0,MS8wtcWY,2020-0188,2020-05-21,13:16:50,13:42:23,NA,incomplete,160,filling,1,left,Blue_Plus_Dots_2.jpg,Green_Star_Dots_3.jpg,Red_Triangle_Stripes_2.jpg,left,1171.525000005262,true,high,false
MS8wtcWY,3jhb4bpsgnm0h9bvp7tggfn0kkoq96,3olqqlkknw22d2wttuuv0c8gjiwej0,MS8wtcWY,2020-0188,2020-05-21,13:16:50,13:42:23,NA,incomplete,161,filling,1,left,Blue_Plus_Grid_3.jpg,Red_Star_Grid_1.jpg,Purple_Circle_Stripes_3.jpg,left,1384.809999995865,true,high,false
MS8wtcWY,3jhb4bpsgnm0h9bvp7tggfn0kkoq96,3olqqlkknw22d2wttuuv0c8gjiwej0,MS8wtcWY,2020-0188,2020-05-21,13:16:50,13:42:23,NA,incomplete,162,filling,1,left,Red_Plus_Stripes_2.jpg,Purple_Star_Stripes_4.jpg,Green_Triangle_Chess_2.jpg,left,1077.5300000021234,true,high,false
MS8wtcWY,3jhb4bpsgnm0h9bvp7tggfn0kkoq96,3olqqlkknw22d2wttuuv0c8gjiwej0,MS8wtcWY,2020-0188,2020-05-21,13:16:50,13:42:23,NA,incomplete,163,filling,1,left,Red_Circle_Dots_2.jpg,Purple_Triangle_Dots_1.jpg,Blue_Plus_Grid_2.jpg,left,1550.8300000000745,true,high,false
MS8wtcWY,3jhb4bpsgnm0h9bvp7tggfn0kkoq96,3olqqlkknw22d2wttuuv0c8gjiwej0,MS8wtcWY,2020-0188,2020-05-21,13:16:50,13:42:23,NA,incomplete,164,filling,1,left,Blue_Circle_Grid_3.jpg,Red_Star_Grid_1.jpg,Green_Triangle_Chess_3.jpg,right,1061.2449999973178,false,high,false
MS8wtcWY,3jhb4bpsgnm0h9bvp7tggfn0kkoq96,3olqqlkknw22d2wttuuv0c8gjiwej0,MS8wtcWY,2020-0188,2020-05-21,13:16:50,13:42:23,NA,incomplete,165,filling,0,left,Blue_Triangle_Dots_2.jpg,Red_Star_Dots_4.jpg,Green_Plus_Stripes_2.jpg,left,991.0500000040047,true,high,false
MS8wtcWY,3jhb4bpsgnm0h9bvp7tggfn0kkoq96,3olqqlkknw22d2wttuuv0c8gjiwej0,MS8wtcWY,2020-0188,2020-05-21,13:16:50,13:42:23,NA,incomplete,166,filling,1,right,Blue_Circle_Stripes_2.jpg,Red_Plus_Grid_2.jpg,Green_Triangle_Stripes_4.jpg,right,1068.0750000029802,true,high,false
MS8wtcWY,3jhb4bpsgnm0h9bvp7tggfn0kkoq96,3olqqlkknw22d2wttuuv0c8gjiwej0,MS8wtcWY,2020-0188,2020-05-21,13:16:50,13:42:23,NA,incomplete,167,filling,1,right,Purple_Circle_Stripes_3.jpg,Red_Star_Dots_3.jpg,Green_Triangle_Stripes_4.jpg,right,549.910000001546,true,high,false
MS8wtcWY,3jhb4bpsgnm0h9bvp7tggfn0kkoq96,3olqqlkknw22d2wttuuv0c8gjiwej0,MS8wtcWY,2020-0188,2020-05-21,13:16:50,13:42:23,NA,incomplete,168,filling,1,right,Red_Circle_Chess_1.jpg,Purple_Plus_Stripes_1.jpg,Green_Star_Chess_2.jpg,right,1012.1049999943934,true,high,false
MS8wtcWY,3jhb4bpsgnm0h9bvp7tggfn0kkoq96,3olqqlkknw22d2wttuuv0c8gjiwej0,MS8wtcWY,2020-0188,2020-05-21,13:16:50,13:42:23,NA,incomplete,169,filling,1,left,Purple_Circle_Dots_1.jpg,Blue_Plus_Dots_4.jpg,Red_Triangle_Stripes_1.jpg,left,1104.2899999956135,true,high,false
MS8wtcWY,3jhb4bpsgnm0h9bvp7tggfn0kkoq96,3olqqlkknw22d2wttuuv0c8gjiwej0,MS8wtcWY,2020-0188,2020-05-21,13:16:50,13:42:23,NA,incomplete,170,filling,0,left,Green_Triangle_Chess_2.jpg,Blue_Star_Chess_1.jpg,Red_Plus_Stripes_2.jpg,left,840.2149999963585,true,high,false
MS8wtcWY,3jhb4bpsgnm0h9bvp7tggfn0kkoq96,3olqqlkknw22d2wttuuv0c8gjiwej0,MS8wtcWY,2020-0188,2020-05-21,13:16:50,13:42:23,NA,incomplete,171,filling,1,left,Blue_Plus_Stripes_3.jpg,Purple_Circle_Stripes_2.jpg,Green_Triangle_Chess_3.jpg,left,1226.92499999539,true,high,false
MS8wtcWY,3jhb4bpsgnm0h9bvp7tggfn0kkoq96,3olqqlkknw22d2wttuuv0c8gjiwej0,MS8wtcWY,2020-0188,2020-05-21,13:16:50,13:42:23,NA,incomplete,172,filling,1,right,Green_Star_Grid_1.jpg,Purple_Plus_Chess_1.jpg,Blue_Triangle_Grid_2.jpg,right,1214.7849999964237,true,high,false
MS8wtcWY,3jhb4bpsgnm0h9bvp7tggfn0kkoq96,3olqqlkknw22d2wttuuv0c8gjiwej0,MS8wtcWY,2020-0188,2020-05-21,13:16:50,13:42:23,NA,incomplete,173,filling,1,right,Red_Triangle_Stripes_3.jpg,Purple_Star_Dots_3.jpg,Blue_Plus_Stripes_1.jpg,right,914.5500000014435,true,high,false
MS8wtcWY,3jhb4bpsgnm0h9bvp7tggfn0kkoq96,3olqqlkknw22d2wttuuv0c8gjiwej0,MS8wtcWY,2020-0188,2020-05-21,13:16:50,13:42:23,NA,incomplete,174,filling,1,right,Blue_Triangle_Grid_1.jpg,Green_Plus_Stripes_1.jpg,Purple_Circle_Grid_4.jpg,right,1266.3200000023935,true,high,false
MS8wtcWY,3jhb4bpsgnm0h9bvp7tggfn0kkoq96,3olqqlkknw22d2wttuuv0c8gjiwej0,MS8wtcWY,2020-0188,2020-05-21,13:16:50,13:42:23,NA,incomplete,175,filling,1,right,Purple_Triangle_Grid_4.jpg,Green_Circle_Chess_4.jpg,Blue_Plus_Grid_2.jpg,none,0,false,high,false
MS8wtcWY,3jhb4bpsgnm0h9bvp7tggfn0kkoq96,3olqqlkknw22d2wttuuv0c8gjiwej0,MS8wtcWY,2020-0188,2020-05-21,13:16:50,13:42:23,NA,incomplete,176,filling,1,left,Red_Circle_Stripes_3.jpg,Blue_Star_Stripes_1.jpg,Green_Plus_Dots_3.jpg,left,896.7300000002142,true,high,false
MS8wtcWY,3jhb4bpsgnm0h9bvp7tggfn0kkoq96,3olqqlkknw22d2wttuuv0c8gjiwej0,MS8wtcWY,2020-0188,2020-05-21,13:16:50,13:42:23,NA,incomplete,177,filling,0,left,Red_Circle_Dots_3.jpg,Green_Star_Dots_2.jpg,Blue_Triangle_Grid_3.jpg,left,1233.6950000026263,true,high,false
MS8wtcWY,3jhb4bpsgnm0h9bvp7tggfn0kkoq96,3olqqlkknw22d2wttuuv0c8gjiwej0,MS8wtcWY,2020-0188,2020-05-21,13:16:50,13:42:23,NA,incomplete,178,filling,1,right,Blue_Triangle_Grid_2.jpg,Purple_Plus_Dots_2.jpg,Red_Star_Grid_4.jpg,right,1092.1849999940023,true,high,false
MS8wtcWY,3jhb4bpsgnm0h9bvp7tggfn0kkoq96,3olqqlkknw22d2wttuuv0c8gjiwej0,MS8wtcWY,2020-0188,2020-05-21,13:16:50,13:42:23,NA,incomplete,179,filling,1,right,Blue_Plus_Dots_4.jpg,Purple_Circle_Chess_4.jpg,Green_Triangle_Dots_1.jpg,right,972.9749999970663,true,high,false
MS8wtcWY,3jhb4bpsgnm0h9bvp7tggfn0kkoq96,3olqqlkknw22d2wttuuv0c8gjiwej0,MS8wtcWY,2020-0188,2020-05-21,13:16:50,13:42:23,NA,incomplete,180,number,1,left,Red_Star_Grid_2.jpg,Purple_Plus_Dots_2.jpg,Green_Triangle_Grid_4.jpg,right,602.4149999937508,false,high,false
MS8wtcWY,3jhb4bpsgnm0h9bvp7tggfn0kkoq96,3olqqlkknw22d2wttuuv0c8gjiwej0,MS8wtcWY,2020-0188,2020-05-21,13:16:50,13:42:23,NA,incomplete,181,number,1,right,Green_Triangle_Dots_3.jpg,Purple_Plus_Dots_2.jpg,Blue_Circle_Stripes_3.jpg,left,886.3599999968428,false,high,false
MS8wtcWY,3jhb4bpsgnm0h9bvp7tggfn0kkoq96,3olqqlkknw22d2wttuuv0c8gjiwej0,MS8wtcWY,2020-0188,2020-05-21,13:16:50,13:42:23,NA,incomplete,182,number,1,left,Purple_Circle_Grid_1.jpg,Blue_Triangle_Chess_1.jpg,Green_Plus_Grid_3.jpg,left,903.4000000029337,true,high,false
MS8wtcWY,3jhb4bpsgnm0h9bvp7tggfn0kkoq96,3olqqlkknw22d2wttuuv0c8gjiwej0,MS8wtcWY,2020-0188,2020-05-21,13:16:50,13:42:23,NA,incomplete,183,number,0,right,Green_Circle_Chess_1.jpg,Blue_Plus_Chess_3.jpg,Red_Star_Stripes_1.jpg,left,983.2699999969918,false,high,false
MS8wtcWY,3jhb4bpsgnm0h9bvp7tggfn0kkoq96,3olqqlkknw22d2wttuuv0c8gjiwej0,MS8wtcWY,2020-0188,2020-05-21,13:16:50,13:42:23,NA,incomplete,184,number,1,left,Green_Circle_Dots_3.jpg,Purple_Plus_Stripes_3.jpg,Blue_Star_Dots_4.jpg,right,836.6349999997765,false,high,false
MS8wtcWY,3jhb4bpsgnm0h9bvp7tggfn0kkoq96,3olqqlkknw22d2wttuuv0c8gjiwej0,MS8wtcWY,2020-0188,2020-05-21,13:16:50,13:42:23,NA,incomplete,185,number,1,right,Purple_Plus_Stripes_1.jpg,Green_Triangle_Stripes_3.jpg,Blue_Circle_Grid_1.jpg,left,1815.205000006361,false,high,false
MS8wtcWY,3jhb4bpsgnm0h9bvp7tggfn0kkoq96,3olqqlkknw22d2wttuuv0c8gjiwej0,MS8wtcWY,2020-0188,2020-05-21,13:16:50,13:42:23,NA,incomplete,186,number,0,left,Blue_Star_Chess_4.jpg,Green_Plus_Stripes_4.jpg,Purple_Triangle_Chess_1.jpg,left,899.7099999978673,true,high,false
MS8wtcWY,3jhb4bpsgnm0h9bvp7tggfn0kkoq96,3olqqlkknw22d2wttuuv0c8gjiwej0,MS8wtcWY,2020-0188,2020-05-21,13:16:50,13:42:23,NA,incomplete,187,number,1,right,Blue_Plus_Grid_3.jpg,Purple_Circle_Grid_1.jpg,Green_Star_Stripes_3.jpg,left,1204.0449999985285,false,high,false
MS8wtcWY,3jhb4bpsgnm0h9bvp7tggfn0kkoq96,3olqqlkknw22d2wttuuv0c8gjiwej0,MS8wtcWY,2020-0188,2020-05-21,13:16:50,13:42:23,NA,incomplete,188,number,0,right,Green_Circle_Chess_4.jpg,Purple_Plus_Chess_1.jpg,Red_Star_Grid_4.jpg,left,1192.33499999973,false,high,false
MS8wtcWY,3jhb4bpsgnm0h9bvp7tggfn0kkoq96,3olqqlkknw22d2wttuuv0c8gjiwej0,MS8wtcWY,2020-0188,2020-05-21,13:16:50,13:42:23,NA,incomplete,189,number,1,right,Red_Plus_Stripes_2.jpg,Purple_Star_Stripes_1.jpg,Blue_Circle_Chess_2.jpg,left,989.0099999974482,false,high,false
MS8wtcWY,3jhb4bpsgnm0h9bvp7tggfn0kkoq96,3olqqlkknw22d2wttuuv0c8gjiwej0,MS8wtcWY,2020-0188,2020-05-21,13:16:50,13:42:23,NA,incomplete,190,number,0,right,Green_Circle_Stripes_4.jpg,Blue_Star_Stripes_2.jpg,Red_Triangle_Dots_4.jpg,left,1066.0500000014435,false,high,false
MS8wtcWY,3jhb4bpsgnm0h9bvp7tggfn0kkoq96,3olqqlkknw22d2wttuuv0c8gjiwej0,MS8wtcWY,2020-0188,2020-05-21,13:16:50,13:42:23,NA,incomplete,191,number,1,left,Red_Triangle_Grid_3.jpg,Blue_Star_Dots_3.jpg,Green_Circle_Grid_2.jpg,right,835.9150000032969,false,high,false
MS8wtcWY,3jhb4bpsgnm0h9bvp7tggfn0kkoq96,3olqqlkknw22d2wttuuv0c8gjiwej0,MS8wtcWY,2020-0188,2020-05-21,13:16:50,13:42:23,NA,incomplete,192,number,1,left,Blue_Star_Dots_4.jpg,Purple_Triangle_Grid_4.jpg,Green_Plus_Dots_1.jpg,right,982.7199999999721,false,high,false
MS8wtcWY,3jhb4bpsgnm0h9bvp7tggfn0kkoq96,3olqqlkknw22d2wttuuv0c8gjiwej0,MS8wtcWY,2020-0188,2020-05-21,13:16:50,13:42:23,NA,incomplete,193,number,1,right,Green_Plus_Chess_2.jpg,Purple_Triangle_Chess_3.jpg,Red_Star_Grid_2.jpg,left,884.040000004461,false,high,false
MS8wtcWY,3jhb4bpsgnm0h9bvp7tggfn0kkoq96,3olqqlkknw22d2wttuuv0c8gjiwej0,MS8wtcWY,2020-0188,2020-05-21,13:16:50,13:42:23,NA,incomplete,194,number,0,left,Red_Circle_Dots_4.jpg,Purple_Star_Stripes_4.jpg,Green_Plus_Dots_1.jpg,right,1252.6900000011083,false,high,false
MS8wtcWY,3jhb4bpsgnm0h9bvp7tggfn0kkoq96,3olqqlkknw22d2wttuuv0c8gjiwej0,MS8wtcWY,2020-0188,2020-05-21,13:16:50,13:42:23,NA,incomplete,195,number,1,left,Green_Star_Dots_1.jpg,Purple_Triangle_Grid_1.jpg,Blue_Circle_Dots_2.jpg,right,775.054999998305,false,high,false
MS8wtcWY,3jhb4bpsgnm0h9bvp7tggfn0kkoq96,3olqqlkknw22d2wttuuv0c8gjiwej0,MS8wtcWY,2020-0188,2020-05-21,13:16:50,13:42:23,NA,incomplete,196,number,1,left,Purple_Star_Stripes_4.jpg,Red_Triangle_Dots_4.jpg,Green_Plus_Stripes_1.jpg,right,924.1350000011735,false,high,false
MS8wtcWY,3jhb4bpsgnm0h9bvp7tggfn0kkoq96,3olqqlkknw22d2wttuuv0c8gjiwej0,MS8wtcWY,2020-0188,2020-05-21,13:16:50,13:42:23,NA,incomplete,197,number,0,right,Blue_Triangle_Grid_3.jpg,Purple_Plus_Grid_4.jpg,Green_Circle_Stripes_3.jpg,left,939.7450000033714,false,high,false
MS8wtcWY,3jhb4bpsgnm0h9bvp7tggfn0kkoq96,3olqqlkknw22d2wttuuv0c8gjiwej0,MS8wtcWY,2020-0188,2020-05-21,13:16:50,13:42:23,NA,incomplete,198,number,1,left,Red_Plus_Dots_1.jpg,Blue_Circle_Chess_1.jpg,Green_Triangle_Dots_3.jpg,right,1530.3800000038464,false,high,false
MS8wtcWY,3jhb4bpsgnm0h9bvp7tggfn0kkoq96,3olqqlkknw22d2wttuuv0c8gjiwej0,MS8wtcWY,2020-0188,2020-05-21,13:16:50,13:42:23,NA,incomplete,199,number,1,left,Green_Circle_Dots_4.jpg,Blue_Star_Stripes_4.jpg,Purple_Triangle_Dots_2.jpg,right,1234.1799999994691,false,high,false
MS8wtcWY,3jhb4bpsgnm0h9bvp7tggfn0kkoq96,3olqqlkknw22d2wttuuv0c8gjiwej0,MS8wtcWY,2020-0188,2020-05-21,13:16:50,13:42:23,NA,incomplete,200,filling,0,right,Green_Circle_Chess_3.jpg,Purple_Triangle_Stripes_3.jpg,Blue_Star_Chess_1.jpg,left,1428.7149999944959,false,high,false
MS8wtcWY,3jhb4bpsgnm0h9bvp7tggfn0kkoq96,3olqqlkknw22d2wttuuv0c8gjiwej0,MS8wtcWY,2020-0188,2020-05-21,13:16:50,13:42:23,NA,incomplete,201,filling,1,left,Purple_Circle_Chess_4.jpg,Green_Triangle_Chess_3.jpg,Red_Plus_Stripes_4.jpg,right,640.4599999953061,false,high,false
MS8wtcWY,3jhb4bpsgnm0h9bvp7tggfn0kkoq96,3olqqlkknw22d2wttuuv0c8gjiwej0,MS8wtcWY,2020-0188,2020-05-21,13:16:50,13:42:23,NA,incomplete,202,filling,1,left,Purple_Plus_Chess_3.jpg,Red_Circle_Chess_1.jpg,Green_Triangle_Grid_3.jpg,right,1066.7499999981374,false,high,false
MS8wtcWY,3jhb4bpsgnm0h9bvp7tggfn0kkoq96,3olqqlkknw22d2wttuuv0c8gjiwej0,MS8wtcWY,2020-0188,2020-05-21,13:16:50,13:42:23,NA,incomplete,203,filling,1,right,Red_Star_Stripes_1.jpg,Green_Triangle_Chess_1.jpg,Blue_Plus_Stripes_3.jpg,right,1253.304999998305,true,high,false
MS8wtcWY,3jhb4bpsgnm0h9bvp7tggfn0kkoq96,3olqqlkknw22d2wttuuv0c8gjiwej0,MS8wtcWY,2020-0188,2020-05-21,13:16:50,13:42:23,NA,incomplete,204,filling,1,right,Purple_Circle_Stripes_1.jpg,Green_Plus_Grid_1.jpg,Red_Triangle_Stripes_4.jpg,right,614.8000000028405,true,high,false
MS8wtcWY,3jhb4bpsgnm0h9bvp7tggfn0kkoq96,3olqqlkknw22d2wttuuv0c8gjiwej0,MS8wtcWY,2020-0188,2020-05-21,13:16:50,13:42:23,NA,incomplete,205,filling,0,left,Green_Triangle_Grid_2.jpg,Purple_Star_Grid_1.jpg,Blue_Plus_Dots_2.jpg,left,1043.0399999967776,true,high,false
MS8wtcWY,3jhb4bpsgnm0h9bvp7tggfn0kkoq96,3olqqlkknw22d2wttuuv0c8gjiwej0,MS8wtcWY,2020-0188,2020-05-21,13:16:50,13:42:23,NA,incomplete,206,filling,1,left,Blue_Triangle_Stripes_1.jpg,Green_Star_Stripes_3.jpg,Red_Plus_Chess_1.jpg,left,909.734999993816,true,high,false
MS8wtcWY,3jhb4bpsgnm0h9bvp7tggfn0kkoq96,3olqqlkknw22d2wttuuv0c8gjiwej0,MS8wtcWY,2020-0188,2020-05-21,13:16:50,13:42:23,NA,incomplete,207,filling,1,left,Red_Plus_Stripes_1.jpg,Purple_Triangle_Stripes_3.jpg,Green_Star_Grid_1.jpg,left,621.6700000003912,true,high,false
MS8wtcWY,3jhb4bpsgnm0h9bvp7tggfn0kkoq96,3olqqlkknw22d2wttuuv0c8gjiwej0,MS8wtcWY,2020-0188,2020-05-21,13:16:50,13:42:23,NA,incomplete,208,filling,1,left,Blue_Plus_Stripes_2.jpg,Green_Triangle_Stripes_4.jpg,Purple_Circle_Grid_2.jpg,left,473.39500000094995,true,high,false
MS8wtcWY,3jhb4bpsgnm0h9bvp7tggfn0kkoq96,3olqqlkknw22d2wttuuv0c8gjiwej0,MS8wtcWY,2020-0188,2020-05-21,13:16:50,13:42:23,NA,incomplete,209,filling,0,right,Green_Plus_Dots_2.jpg,Blue_Triangle_Stripes_2.jpg,Purple_Star_Dots_4.jpg,left,586.6299999977928,false,high,false
MS8wtcWY,3jhb4bpsgnm0h9bvp7tggfn0kkoq96,3olqqlkknw22d2wttuuv0c8gjiwej0,MS8wtcWY,2020-0188,2020-05-21,13:16:50,13:42:23,NA,incomplete,210,filling,1,right,Red_Star_Dots_3.jpg,Green_Plus_Grid_3.jpg,Blue_Circle_Dots_1.jpg,right,823.3649999967311,true,high,false
MS8wtcWY,3jhb4bpsgnm0h9bvp7tggfn0kkoq96,3olqqlkknw22d2wttuuv0c8gjiwej0,MS8wtcWY,2020-0188,2020-05-21,13:16:50,13:42:23,NA,incomplete,211,filling,1,left,Purple_Triangle_Grid_1.jpg,Red_Plus_Grid_2.jpg,Blue_Star_Chess_1.jpg,right,538.6900000013411,false,high,false
MS8wtcWY,3jhb4bpsgnm0h9bvp7tggfn0kkoq96,3olqqlkknw22d2wttuuv0c8gjiwej0,MS8wtcWY,2020-0188,2020-05-21,13:16:50,13:42:23,NA,incomplete,212,filling,1,right,Green_Star_Stripes_2.jpg,Blue_Triangle_Chess_2.jpg,Purple_Plus_Stripes_3.jpg,left,233.50000000209548,false,high,false
MS8wtcWY,3jhb4bpsgnm0h9bvp7tggfn0kkoq96,3olqqlkknw22d2wttuuv0c8gjiwej0,MS8wtcWY,2020-0188,2020-05-21,13:16:50,13:42:23,NA,incomplete,213,filling,1,left,Red_Star_Dots_4.jpg,Blue_Triangle_Dots_2.jpg,Green_Circle_Chess_4.jpg,left,916.1999999994878,true,high,false
MS8wtcWY,3jhb4bpsgnm0h9bvp7tggfn0kkoq96,3olqqlkknw22d2wttuuv0c8gjiwej0,MS8wtcWY,2020-0188,2020-05-21,13:16:50,13:42:23,NA,incomplete,214,filling,1,right,Blue_Circle_Chess_4.jpg,Red_Plus_Stripes_4.jpg,Purple_Star_Chess_2.jpg,left,948.3199999961071,false,high,false
MS8wtcWY,3jhb4bpsgnm0h9bvp7tggfn0kkoq96,3olqqlkknw22d2wttuuv0c8gjiwej0,MS8wtcWY,2020-0188,2020-05-21,13:16:50,13:42:23,NA,incomplete,215,filling,1,right,Blue_Star_Grid_2.jpg,Green_Circle_Stripes_2.jpg,Red_Plus_Grid_4.jpg,right,1074.990000000922,true,high,false
MS8wtcWY,3jhb4bpsgnm0h9bvp7tggfn0kkoq96,3olqqlkknw22d2wttuuv0c8gjiwej0,MS8wtcWY,2020-0188,2020-05-21,13:16:50,13:42:23,NA,incomplete,216,filling,1,left,Purple_Triangle_Chess_2.jpg,Red_Plus_Chess_3.jpg,Blue_Circle_Grid_2.jpg,right,556.5149999966379,false,high,false
MS8wtcWY,3jhb4bpsgnm0h9bvp7tggfn0kkoq96,3olqqlkknw22d2wttuuv0c8gjiwej0,MS8wtcWY,2020-0188,2020-05-21,13:16:50,13:42:23,NA,incomplete,217,filling,1,left,Red_Circle_Stripes_4.jpg,Blue_Plus_Stripes_3.jpg,Green_Triangle_Grid_4.jpg,right,1098.5250000013039,false,high,false
MS8wtcWY,3jhb4bpsgnm0h9bvp7tggfn0kkoq96,3olqqlkknw22d2wttuuv0c8gjiwej0,MS8wtcWY,2020-0188,2020-05-21,13:16:50,13:42:23,NA,incomplete,218,filling,1,right,Blue_Triangle_Dots_3.jpg,Green_Star_Stripes_3.jpg,Purple_Circle_Dots_2.jpg,right,995.2800000028219,true,high,false
MS8wtcWY,3jhb4bpsgnm0h9bvp7tggfn0kkoq96,3olqqlkknw22d2wttuuv0c8gjiwej0,MS8wtcWY,2020-0188,2020-05-21,13:16:50,13:42:23,NA,incomplete,219,filling,1,right,Green_Plus_Chess_2.jpg,Purple_Triangle_Grid_2.jpg,Blue_Star_Chess_1.jpg,right,1200.2300000023097,true,high,false
MS8wtcWY,3jhb4bpsgnm0h9bvp7tggfn0kkoq96,3olqqlkknw22d2wttuuv0c8gjiwej0,MS8wtcWY,2020-0188,2020-05-21,13:16:50,13:42:23,NA,incomplete,220,number,0,right,Blue_Triangle_Chess_1.jpg,Purple_Star_Chess_3.jpg,Green_Circle_Dots_1.jpg,left,660.6350000002421,false,high,false
MS8wtcWY,3jhb4bpsgnm0h9bvp7tggfn0kkoq96,3olqqlkknw22d2wttuuv0c8gjiwej0,MS8wtcWY,2020-0188,2020-05-21,13:16:50,13:42:23,NA,incomplete,221,number,1,left,Purple_Plus_Chess_2.jpg,Green_Star_Stripes_2.jpg,Red_Triangle_Chess_4.jpg,right,638.9949999938253,false,high,false
MS8wtcWY,3jhb4bpsgnm0h9bvp7tggfn0kkoq96,3olqqlkknw22d2wttuuv0c8gjiwej0,MS8wtcWY,2020-0188,2020-05-21,13:16:50,13:42:23,NA,incomplete,222,number,1,left,Green_Star_Stripes_2.jpg,Purple_Plus_Chess_2.jpg,Blue_Triangle_Stripes_3.jpg,right,937.5550000041258,false,high,false
MS8wtcWY,3jhb4bpsgnm0h9bvp7tggfn0kkoq96,3olqqlkknw22d2wttuuv0c8gjiwej0,MS8wtcWY,2020-0188,2020-05-21,13:16:50,13:42:23,NA,incomplete,223,number,1,right,Green_Circle_Stripes_4.jpg,Blue_Star_Stripes_2.jpg,Red_Triangle_Grid_4.jpg,left,760.5299999993294,false,high,false
MS8wtcWY,3jhb4bpsgnm0h9bvp7tggfn0kkoq96,3olqqlkknw22d2wttuuv0c8gjiwej0,MS8wtcWY,2020-0188,2020-05-21,13:16:50,13:42:23,NA,incomplete,224,number,1,left,Green_Triangle_Stripes_2.jpg,Red_Star_Grid_2.jpg,Purple_Plus_Stripes_1.jpg,right,558.1149999999907,false,high,false
MS8wtcWY,3jhb4bpsgnm0h9bvp7tggfn0kkoq96,3olqqlkknw22d2wttuuv0c8gjiwej0,MS8wtcWY,2020-0188,2020-05-21,13:16:50,13:42:23,NA,incomplete,225,number,1,left,Purple_Star_Grid_4.jpg,Blue_Triangle_Chess_4.jpg,Red_Plus_Grid_3.jpg,right,492.40500000468455,false,high,false
MS8wtcWY,3jhb4bpsgnm0h9bvp7tggfn0kkoq96,3olqqlkknw22d2wttuuv0c8gjiwej0,MS8wtcWY,2020-0188,2020-05-21,13:16:50,13:42:23,NA,incomplete,226,number,1,left,Purple_Plus_Dots_3.jpg,Red_Circle_Stripes_3.jpg,Green_Star_Dots_2.jpg,left,349.1300000024494,true,high,false
MS8wtcWY,3jhb4bpsgnm0h9bvp7tggfn0kkoq96,3olqqlkknw22d2wttuuv0c8gjiwej0,MS8wtcWY,2020-0188,2020-05-21,13:16:50,13:42:23,NA,incomplete,227,number,1,left,Red_Triangle_Chess_4.jpg,Blue_Star_Stripes_4.jpg,Purple_Circle_Chess_2.jpg,right,739.8699999975506,false,high,false
MS8wtcWY,3jhb4bpsgnm0h9bvp7tggfn0kkoq96,3olqqlkknw22d2wttuuv0c8gjiwej0,MS8wtcWY,2020-0188,2020-05-21,13:16:50,13:42:23,NA,incomplete,228,number,0,right,Green_Triangle_Grid_4.jpg,Blue_Circle_Grid_1.jpg,Red_Star_Stripes_4.jpg,left,1098.8349999971688,false,high,false
MS8wtcWY,3jhb4bpsgnm0h9bvp7tggfn0kkoq96,3olqqlkknw22d2wttuuv0c8gjiwej0,MS8wtcWY,2020-0188,2020-05-21,13:16:50,13:42:23,NA,incomplete,229,number,1,left,Blue_Triangle_Dots_4.jpg,Red_Circle_Chess_4.jpg,Green_Plus_Dots_2.jpg,left,691.3100000021514,true,high,false
MS8wtcWY,3jhb4bpsgnm0h9bvp7tggfn0kkoq96,3olqqlkknw22d2wttuuv0c8gjiwej0,MS8wtcWY,2020-0188,2020-05-21,13:16:50,13:42:23,NA,incomplete,230,number,1,right,Purple_Circle_Stripes_2.jpg,Red_Plus_Stripes_3.jpg,Green_Triangle_Grid_2.jpg,right,587.8000000009779,true,high,false
MS8wtcWY,3jhb4bpsgnm0h9bvp7tggfn0kkoq96,3olqqlkknw22d2wttuuv0c8gjiwej0,MS8wtcWY,2020-0188,2020-05-21,13:16:50,13:42:23,NA,incomplete,231,number,1,right,Red_Star_Dots_3.jpg,Blue_Plus_Dots_1.jpg,Green_Triangle_Chess_3.jpg,left,488.7299999971874,false,high,false
MS8wtcWY,3jhb4bpsgnm0h9bvp7tggfn0kkoq96,3olqqlkknw22d2wttuuv0c8gjiwej0,MS8wtcWY,2020-0188,2020-05-21,13:16:50,13:42:23,NA,incomplete,232,number,0,right,Purple_Star_Dots_3.jpg,Green_Circle_Dots_2.jpg,Blue_Triangle_Grid_3.jpg,right,313.9100000045728,true,high,false
MS8wtcWY,3jhb4bpsgnm0h9bvp7tggfn0kkoq96,3olqqlkknw22d2wttuuv0c8gjiwej0,MS8wtcWY,2020-0188,2020-05-21,13:16:50,13:42:23,NA,incomplete,233,number,1,left,Green_Star_Dots_4.jpg,Red_Triangle_Chess_4.jpg,Purple_Circle_Dots_1.jpg,right,977.875000004191,false,high,false
MS8wtcWY,3jhb4bpsgnm0h9bvp7tggfn0kkoq96,3olqqlkknw22d2wttuuv0c8gjiwej0,MS8wtcWY,2020-0188,2020-05-21,13:16:50,13:42:23,NA,incomplete,234,number,1,left,Purple_Circle_Dots_4.jpg,Blue_Plus_Grid_4.jpg,Green_Star_Dots_1.jpg,right,750.9399999980815,false,high,false
MS8wtcWY,3jhb4bpsgnm0h9bvp7tggfn0kkoq96,3olqqlkknw22d2wttuuv0c8gjiwej0,MS8wtcWY,2020-0188,2020-05-21,13:16:50,13:42:23,NA,incomplete,235,number,0,right,Red_Triangle_Grid_1.jpg,Blue_Plus_Grid_4.jpg,Purple_Star_Dots_1.jpg,left,981.9150000039954,false,high,false
MS8wtcWY,3jhb4bpsgnm0h9bvp7tggfn0kkoq96,3olqqlkknw22d2wttuuv0c8gjiwej0,MS8wtcWY,2020-0188,2020-05-21,13:16:50,13:42:23,NA,incomplete,236,number,1,right,Purple_Star_Chess_3.jpg,Red_Circle_Chess_2.jpg,Green_Triangle_Grid_3.jpg,left,1234.524999999674,false,high,false
MS8wtcWY,3jhb4bpsgnm0h9bvp7tggfn0kkoq96,3olqqlkknw22d2wttuuv0c8gjiwej0,MS8wtcWY,2020-0188,2020-05-21,13:16:50,13:42:23,NA,incomplete,237,number,1,right,Blue_Plus_Stripes_2.jpg,Purple_Triangle_Stripes_1.jpg,Green_Circle_Grid_2.jpg,left,1269.4650000049733,false,high,false
MS8wtcWY,3jhb4bpsgnm0h9bvp7tggfn0kkoq96,3olqqlkknw22d2wttuuv0c8gjiwej0,MS8wtcWY,2020-0188,2020-05-21,13:16:50,13:42:23,NA,incomplete,238,number,1,right,Blue_Star_Dots_2.jpg,Green_Plus_Dots_1.jpg,Purple_Circle_Stripes_2.jpg,left,1014.7099999957718,false,high,false
MS8wtcWY,3jhb4bpsgnm0h9bvp7tggfn0kkoq96,3olqqlkknw22d2wttuuv0c8gjiwej0,MS8wtcWY,2020-0188,2020-05-21,13:16:50,13:42:23,NA,incomplete,239,number,1,left,Purple_Star_Stripes_3.jpg,Red_Circle_Grid_3.jpg,Blue_Plus_Stripes_4.jpg,right,898.7100000011269,false,high,false
MS8wtcWY,3jhb4bpsgnm0h9bvp7tggfn0kkoq96,3olqqlkknw22d2wttuuv0c8gjiwej0,MS8wtcWY,2020-0188,2020-05-21,13:16:50,13:42:23,NA,NA,instruction example,shape,NA,NA,Red_Triangle_Chess_2.jpg,Purple_Triangle_Stripes_1.jpg,Red_Plus_Dots_4.jpg,NA,NA,NA,NA,undefined
MS8wtcWY,3jhb4bpsgnm0h9bvp7tggfn0kkoq96,3olqqlkknw22d2wttuuv0c8gjiwej0,MS8wtcWY,2020-0188,2020-05-21,13:16:50,13:42:23,NA,NA,instruction example,shape,NA,NA,Red_Plus_Dots_4.jpg,Red_Circle_Grid_3.jpg,Purple_Plus_Chess_1.jpg,NA,NA,NA,NA,undefined
MS8wtcWY,3jhb4bpsgnm0h9bvp7tggfn0kkoq96,3olqqlkknw22d2wttuuv0c8gjiwej0,MS8wtcWY,2020-0188,2020-05-21,13:16:50,13:42:23,NA,NA,instruction example,shape,NA,NA,Blue_Triangle_Stripes_3.jpg,Red_Star_Stripes_2.jpg,Green_Plus_Grid_3.jpg,NA,NA,NA,NA,undefined
MS8wtcWY,3jhb4bpsgnm0h9bvp7tggfn0kkoq96,3olqqlkknw22d2wttuuv0c8gjiwej0,MS8wtcWY,2020-0188,2020-05-21,13:16:50,13:42:23,NA,NA,instruction example,shape,NA,NA,Blue_Star_Grid_4.jpg,Purple_Triangle_Chess_4.jpg,Red_Plus_Grid_2.jpg,NA,NA,NA,NA,undefined
MS8wtcWY,3jhb4bpsgnm0h9bvp7tggfn0kkoq96,3olqqlkknw22d2wttuuv0c8gjiwej0,MS8wtcWY,2020-0188,2020-05-21,13:16:50,13:42:23,1503731.6449999998,1533306.6450000042,NA,NA,NA,NA,NA,NA,NA,NA,NA,NA,NA,undefined
