workerId,hitId,assignmentId,subject,studyid,exp_date,exp_start,exp_end,time_start,time_end,trial,type,reward_validity,answer,image_top,image_left,image_right,response,response_time,response_acc,volatility,practice
fd12Ikna,3tl87mo8dp2yrmmv0olc9pahdcwfly,3oonkj5dkgwi7ab6zgka70jhfftobt,fd12Ikna,2020-0188,2020-05-21,10:06:53,10:54:39,NA,incomplete,0,shape,1,right,Blue_Plus_Chess_2.jpg,Blue_Star_Grid_3.jpg,Green_Plus_Dots_4.jpg,right,599.0700000256766,true,NA,true
fd12Ikna,3tl87mo8dp2yrmmv0olc9pahdcwfly,3oonkj5dkgwi7ab6zgka70jhfftobt,fd12Ikna,2020-0188,2020-05-21,10:06:53,10:54:39,NA,incomplete,1,shape,1,left,Purple_Circle_Dots_1.jpg,Blue_Circle_Chess_3.jpg,Purple_Star_Grid_2.jpg,left,1014.500000019325,true,NA,true
fd12Ikna,3tl87mo8dp2yrmmv0olc9pahdcwfly,3oonkj5dkgwi7ab6zgka70jhfftobt,fd12Ikna,2020-0188,2020-05-21,10:06:53,10:54:39,NA,incomplete,2,shape,1,left,Blue_Star_Grid_2.jpg,Red_Star_Dots_4.jpg,Blue_Triangle_Stripes_1.jpg,left,668.3750000083819,true,NA,true
fd12Ikna,3tl87mo8dp2yrmmv0olc9pahdcwfly,3oonkj5dkgwi7ab6zgka70jhfftobt,fd12Ikna,2020-0188,2020-05-21,10:06:53,10:54:39,NA,incomplete,3,shape,0,right,Red_Plus_Dots_4.jpg,Red_Triangle_Chess_2.jpg,Blue_Plus_Stripes_3.jpg,right,798.1100000033621,true,NA,true
fd12Ikna,3tl87mo8dp2yrmmv0olc9pahdcwfly,3oonkj5dkgwi7ab6zgka70jhfftobt,fd12Ikna,2020-0188,2020-05-21,10:06:53,10:54:39,NA,incomplete,4,shape,0,left,Red_Circle_Stripes_4.jpg,Blue_Circle_Chess_1.jpg,Red_Triangle_Dots_2.jpg,left,626.5499999863096,true,NA,true
fd12Ikna,3tl87mo8dp2yrmmv0olc9pahdcwfly,3oonkj5dkgwi7ab6zgka70jhfftobt,fd12Ikna,2020-0188,2020-05-21,10:06:53,10:54:39,NA,incomplete,5,shape,1,right,Purple_Star_Grid_4.jpg,Purple_Plus_Dots_3.jpg,Blue_Star_Chess_1.jpg,right,821.7050000093877,true,NA,true
fd12Ikna,3tl87mo8dp2yrmmv0olc9pahdcwfly,3oonkj5dkgwi7ab6zgka70jhfftobt,fd12Ikna,2020-0188,2020-05-21,10:06:53,10:54:39,NA,incomplete,6,shape,1,left,Red_Circle_Grid_2.jpg,Green_Circle_Chess_3.jpg,Red_Triangle_Stripes_1.jpg,left,990.9399999887682,true,NA,true
fd12Ikna,3tl87mo8dp2yrmmv0olc9pahdcwfly,3oonkj5dkgwi7ab6zgka70jhfftobt,fd12Ikna,2020-0188,2020-05-21,10:06:53,10:54:39,NA,incomplete,7,shape,1,right,Green_Plus_Stripes_1.jpg,Green_Triangle_Chess_4.jpg,Purple_Plus_Dots_2.jpg,right,528.5799999837764,true,NA,true
fd12Ikna,3tl87mo8dp2yrmmv0olc9pahdcwfly,3oonkj5dkgwi7ab6zgka70jhfftobt,fd12Ikna,2020-0188,2020-05-21,10:06:53,10:54:39,NA,incomplete,8,shape,1,left,Green_Circle_Stripes_3.jpg,Blue_Circle_Dots_1.jpg,Green_Star_Chess_2.jpg,left,564.9350000021514,true,NA,true
fd12Ikna,3tl87mo8dp2yrmmv0olc9pahdcwfly,3oonkj5dkgwi7ab6zgka70jhfftobt,fd12Ikna,2020-0188,2020-05-21,10:06:53,10:54:39,NA,incomplete,9,shape,1,left,Blue_Star_Chess_2.jpg,Green_Star_Grid_4.jpg,Blue_Triangle_Stripes_1.jpg,left,790.5650000029709,true,NA,true
fd12Ikna,3tl87mo8dp2yrmmv0olc9pahdcwfly,3oonkj5dkgwi7ab6zgka70jhfftobt,fd12Ikna,2020-0188,2020-05-21,10:06:53,10:54:39,NA,incomplete,10,shape,1,left,Blue_Circle_Stripes_3.jpg,Purple_Circle_Grid_4.jpg,Blue_Star_Dots_2.jpg,left,778.504999994766,true,NA,true
fd12Ikna,3tl87mo8dp2yrmmv0olc9pahdcwfly,3oonkj5dkgwi7ab6zgka70jhfftobt,fd12Ikna,2020-0188,2020-05-21,10:06:53,10:54:39,NA,incomplete,11,shape,1,left,Red_Plus_Chess_1.jpg,Green_Plus_Grid_3.jpg,Red_Circle_Stripes_4.jpg,left,789.2850000062026,true,NA,true
fd12Ikna,3tl87mo8dp2yrmmv0olc9pahdcwfly,3oonkj5dkgwi7ab6zgka70jhfftobt,fd12Ikna,2020-0188,2020-05-21,10:06:53,10:54:39,NA,incomplete,12,shape,0,left,Green_Plus_Stripes_2.jpg,Red_Plus_Grid_3.jpg,Green_Triangle_Dots_1.jpg,left,672.2200000076555,true,NA,true
fd12Ikna,3tl87mo8dp2yrmmv0olc9pahdcwfly,3oonkj5dkgwi7ab6zgka70jhfftobt,fd12Ikna,2020-0188,2020-05-21,10:06:53,10:54:39,NA,incomplete,13,shape,1,right,Red_Plus_Grid_3.jpg,Red_Triangle_Dots_1.jpg,Blue_Plus_Stripes_4.jpg,right,721.785000001546,true,NA,true
fd12Ikna,3tl87mo8dp2yrmmv0olc9pahdcwfly,3oonkj5dkgwi7ab6zgka70jhfftobt,fd12Ikna,2020-0188,2020-05-21,10:06:53,10:54:39,NA,incomplete,14,shape,1,right,Blue_Star_Grid_2.jpg,Blue_Circle_Stripes_3.jpg,Green_Star_Chess_1.jpg,right,762.6349999918602,true,NA,true
fd12Ikna,3tl87mo8dp2yrmmv0olc9pahdcwfly,3oonkj5dkgwi7ab6zgka70jhfftobt,fd12Ikna,2020-0188,2020-05-21,10:06:53,10:54:39,NA,incomplete,15,shape,1,right,Purple_Plus_Chess_4.jpg,Purple_Circle_Stripes_2.jpg,Blue_Plus_Grid_3.jpg,right,585.8250000164844,true,NA,true
fd12Ikna,3tl87mo8dp2yrmmv0olc9pahdcwfly,3oonkj5dkgwi7ab6zgka70jhfftobt,fd12Ikna,2020-0188,2020-05-21,10:06:53,10:54:39,NA,incomplete,16,shape,1,left,Red_Plus_Stripes_4.jpg,Purple_Plus_Dots_2.jpg,Red_Triangle_Chess_1.jpg,left,583.1799999868963,true,NA,true
fd12Ikna,3tl87mo8dp2yrmmv0olc9pahdcwfly,3oonkj5dkgwi7ab6zgka70jhfftobt,fd12Ikna,2020-0188,2020-05-21,10:06:53,10:54:39,NA,incomplete,17,shape,1,left,Blue_Circle_Chess_2.jpg,Red_Circle_Grid_3.jpg,Blue_Plus_Dots_1.jpg,left,586.5200000116602,true,NA,true
fd12Ikna,3tl87mo8dp2yrmmv0olc9pahdcwfly,3oonkj5dkgwi7ab6zgka70jhfftobt,fd12Ikna,2020-0188,2020-05-21,10:06:53,10:54:39,NA,incomplete,18,shape,0,left,Red_Star_Stripes_4.jpg,Green_Star_Grid_3.jpg,Red_Circle_Chess_2.jpg,left,719.4149999995716,true,NA,true
fd12Ikna,3tl87mo8dp2yrmmv0olc9pahdcwfly,3oonkj5dkgwi7ab6zgka70jhfftobt,fd12Ikna,2020-0188,2020-05-21,10:06:53,10:54:39,NA,incomplete,19,shape,1,right,Red_Circle_Grid_1.jpg,Red_Star_Dots_2.jpg,Blue_Circle_Chess_3.jpg,right,688.159999990603,true,NA,true
fd12Ikna,3tl87mo8dp2yrmmv0olc9pahdcwfly,3oonkj5dkgwi7ab6zgka70jhfftobt,fd12Ikna,2020-0188,2020-05-21,10:06:53,10:54:39,NA,incomplete,20,color,1,left,Blue_Plus_Chess_2.jpg,Blue_Triangle_Grid_1.jpg,Red_Plus_Stripes_4.jpg,right,581.0350000101607,false,NA,true
fd12Ikna,3tl87mo8dp2yrmmv0olc9pahdcwfly,3oonkj5dkgwi7ab6zgka70jhfftobt,fd12Ikna,2020-0188,2020-05-21,10:06:53,10:54:39,NA,incomplete,21,color,1,left,Green_Triangle_Chess_4.jpg,Green_Circle_Stripes_3.jpg,Red_Triangle_Grid_2.jpg,right,881.274999992922,false,NA,true
fd12Ikna,3tl87mo8dp2yrmmv0olc9pahdcwfly,3oonkj5dkgwi7ab6zgka70jhfftobt,fd12Ikna,2020-0188,2020-05-21,10:06:53,10:54:39,NA,incomplete,22,color,1,left,Purple_Circle_Chess_3.jpg,Purple_Triangle_Grid_2.jpg,Green_Circle_Dots_1.jpg,left,722.074999997858,true,NA,true
fd12Ikna,3tl87mo8dp2yrmmv0olc9pahdcwfly,3oonkj5dkgwi7ab6zgka70jhfftobt,fd12Ikna,2020-0188,2020-05-21,10:06:53,10:54:39,NA,incomplete,23,color,1,right,Green_Triangle_Stripes_2.jpg,Red_Triangle_Dots_1.jpg,Green_Plus_Chess_3.jpg,right,667.0450000092387,true,NA,true
fd12Ikna,3tl87mo8dp2yrmmv0olc9pahdcwfly,3oonkj5dkgwi7ab6zgka70jhfftobt,fd12Ikna,2020-0188,2020-05-21,10:06:53,10:54:39,NA,incomplete,24,color,1,right,Red_Plus_Dots_1.jpg,Green_Plus_Stripes_4.jpg,Red_Star_Chess_3.jpg,left,596.4650000096299,false,NA,true
fd12Ikna,3tl87mo8dp2yrmmv0olc9pahdcwfly,3oonkj5dkgwi7ab6zgka70jhfftobt,fd12Ikna,2020-0188,2020-05-21,10:06:53,10:54:39,NA,incomplete,25,color,1,right,Blue_Triangle_Stripes_1.jpg,Purple_Triangle_Chess_4.jpg,Blue_Plus_Dots_2.jpg,right,722.4700000076555,true,NA,true
fd12Ikna,3tl87mo8dp2yrmmv0olc9pahdcwfly,3oonkj5dkgwi7ab6zgka70jhfftobt,fd12Ikna,2020-0188,2020-05-21,10:06:53,10:54:39,NA,incomplete,26,color,0,right,Purple_Triangle_Grid_4.jpg,Blue_Triangle_Dots_3.jpg,Purple_Plus_Stripes_2.jpg,right,540.804999996908,true,NA,true
fd12Ikna,3tl87mo8dp2yrmmv0olc9pahdcwfly,3oonkj5dkgwi7ab6zgka70jhfftobt,fd12Ikna,2020-0188,2020-05-21,10:06:53,10:54:39,NA,incomplete,27,color,1,right,Green_Plus_Chess_4.jpg,Blue_Plus_Grid_1.jpg,Green_Circle_Dots_3.jpg,right,425.989999988582,true,NA,true
fd12Ikna,3tl87mo8dp2yrmmv0olc9pahdcwfly,3oonkj5dkgwi7ab6zgka70jhfftobt,fd12Ikna,2020-0188,2020-05-21,10:06:53,10:54:39,NA,incomplete,28,color,1,left,Purple_Triangle_Chess_3.jpg,Purple_Star_Dots_1.jpg,Red_Triangle_Stripes_2.jpg,left,774.3750000079162,true,NA,true
fd12Ikna,3tl87mo8dp2yrmmv0olc9pahdcwfly,3oonkj5dkgwi7ab6zgka70jhfftobt,fd12Ikna,2020-0188,2020-05-21,10:06:53,10:54:39,NA,incomplete,29,color,1,right,Blue_Star_Stripes_3.jpg,Green_Star_Chess_1.jpg,Blue_Circle_Grid_2.jpg,right,407.60999999474734,true,NA,true
fd12Ikna,3tl87mo8dp2yrmmv0olc9pahdcwfly,3oonkj5dkgwi7ab6zgka70jhfftobt,fd12Ikna,2020-0188,2020-05-21,10:06:53,10:54:39,NA,incomplete,30,color,1,left,Green_Plus_Chess_4.jpg,Green_Star_Dots_2.jpg,Red_Plus_Stripes_3.jpg,left,537.3449999899603,true,NA,true
fd12Ikna,3tl87mo8dp2yrmmv0olc9pahdcwfly,3oonkj5dkgwi7ab6zgka70jhfftobt,fd12Ikna,2020-0188,2020-05-21,10:06:53,10:54:39,NA,incomplete,31,color,1,left,Green_Plus_Grid_2.jpg,Green_Circle_Chess_4.jpg,Blue_Plus_Stripes_1.jpg,left,639.1550000119023,true,NA,true
fd12Ikna,3tl87mo8dp2yrmmv0olc9pahdcwfly,3oonkj5dkgwi7ab6zgka70jhfftobt,fd12Ikna,2020-0188,2020-05-21,10:06:53,10:54:39,NA,incomplete,32,color,0,left,Purple_Triangle_Dots_4.jpg,Purple_Circle_Stripes_2.jpg,Red_Triangle_Grid_3.jpg,left,554.9550000000745,true,NA,true
fd12Ikna,3tl87mo8dp2yrmmv0olc9pahdcwfly,3oonkj5dkgwi7ab6zgka70jhfftobt,fd12Ikna,2020-0188,2020-05-21,10:06:53,10:54:39,NA,incomplete,33,color,1,right,Red_Triangle_Grid_3.jpg,Green_Triangle_Chess_1.jpg,Red_Star_Dots_2.jpg,right,684.8100000061095,true,NA,true
fd12Ikna,3tl87mo8dp2yrmmv0olc9pahdcwfly,3oonkj5dkgwi7ab6zgka70jhfftobt,fd12Ikna,2020-0188,2020-05-21,10:06:53,10:54:39,NA,incomplete,34,color,0,right,Blue_Triangle_Chess_2.jpg,Green_Triangle_Dots_4.jpg,Blue_Circle_Stripes_3.jpg,right,600.3749999799766,true,NA,true
fd12Ikna,3tl87mo8dp2yrmmv0olc9pahdcwfly,3oonkj5dkgwi7ab6zgka70jhfftobt,fd12Ikna,2020-0188,2020-05-21,10:06:53,10:54:39,NA,incomplete,35,color,0,right,Red_Plus_Chess_3.jpg,Purple_Plus_Dots_4.jpg,Red_Triangle_Grid_2.jpg,right,511.31499998178333,true,NA,true
fd12Ikna,3tl87mo8dp2yrmmv0olc9pahdcwfly,3oonkj5dkgwi7ab6zgka70jhfftobt,fd12Ikna,2020-0188,2020-05-21,10:06:53,10:54:39,NA,incomplete,36,color,1,left,Red_Star_Chess_3.jpg,Red_Circle_Stripes_4.jpg,Blue_Star_Dots_1.jpg,left,369.1449999748729,true,NA,true
fd12Ikna,3tl87mo8dp2yrmmv0olc9pahdcwfly,3oonkj5dkgwi7ab6zgka70jhfftobt,fd12Ikna,2020-0188,2020-05-21,10:06:53,10:54:39,NA,incomplete,37,color,1,left,Green_Triangle_Grid_4.jpg,Green_Plus_Dots_2.jpg,Blue_Triangle_Chess_1.jpg,left,404.72500000009313,true,NA,true
fd12Ikna,3tl87mo8dp2yrmmv0olc9pahdcwfly,3oonkj5dkgwi7ab6zgka70jhfftobt,fd12Ikna,2020-0188,2020-05-21,10:06:53,10:54:39,NA,incomplete,38,color,1,right,Green_Star_Chess_4.jpg,Purple_Star_Grid_2.jpg,Green_Triangle_Dots_1.jpg,right,678.2799999928102,true,NA,true
fd12Ikna,3tl87mo8dp2yrmmv0olc9pahdcwfly,3oonkj5dkgwi7ab6zgka70jhfftobt,fd12Ikna,2020-0188,2020-05-21,10:06:53,10:54:39,NA,incomplete,39,color,1,right,Purple_Star_Chess_2.jpg,Blue_Star_Stripes_4.jpg,Purple_Circle_Grid_1.jpg,right,584.6899999883026,true,NA,true
fd12Ikna,3tl87mo8dp2yrmmv0olc9pahdcwfly,3oonkj5dkgwi7ab6zgka70jhfftobt,fd12Ikna,2020-0188,2020-05-21,10:06:53,10:54:39,NA,incomplete,0,shape,1,right,Blue_Plus_Chess_3.jpg,Blue_Star_Dots_2.jpg,Green_Plus_Stripes_1.jpg,right,1311.3399999858811,true,low,false
fd12Ikna,3tl87mo8dp2yrmmv0olc9pahdcwfly,3oonkj5dkgwi7ab6zgka70jhfftobt,fd12Ikna,2020-0188,2020-05-21,10:06:53,10:54:39,NA,incomplete,1,shape,1,left,Blue_Star_Dots_2.jpg,Green_Star_Stripes_3.jpg,Blue_Plus_Grid_4.jpg,right,834.0200000097975,false,low,false
fd12Ikna,3tl87mo8dp2yrmmv0olc9pahdcwfly,3oonkj5dkgwi7ab6zgka70jhfftobt,fd12Ikna,2020-0188,2020-05-21,10:06:53,10:54:39,NA,incomplete,2,shape,1,right,Green_Triangle_Grid_1.jpg,Green_Plus_Chess_4.jpg,Red_Triangle_Dots_3.jpg,right,1077.0150000168942,true,low,false
fd12Ikna,3tl87mo8dp2yrmmv0olc9pahdcwfly,3oonkj5dkgwi7ab6zgka70jhfftobt,fd12Ikna,2020-0188,2020-05-21,10:06:53,10:54:39,NA,incomplete,3,shape,0,right,Green_Triangle_Dots_1.jpg,Green_Circle_Grid_3.jpg,Purple_Triangle_Chess_4.jpg,right,668.8049999936484,true,low,false
fd12Ikna,3tl87mo8dp2yrmmv0olc9pahdcwfly,3oonkj5dkgwi7ab6zgka70jhfftobt,fd12Ikna,2020-0188,2020-05-21,10:06:53,10:54:39,NA,incomplete,4,shape,1,right,Purple_Star_Grid_1.jpg,Purple_Plus_Dots_2.jpg,Blue_Star_Stripes_3.jpg,right,781.3099999912083,true,low,false
fd12Ikna,3tl87mo8dp2yrmmv0olc9pahdcwfly,3oonkj5dkgwi7ab6zgka70jhfftobt,fd12Ikna,2020-0188,2020-05-21,10:06:53,10:54:39,NA,incomplete,5,shape,1,right,Green_Circle_Chess_2.jpg,Green_Star_Grid_1.jpg,Red_Circle_Stripes_3.jpg,right,881.0850000008941,true,low,false
fd12Ikna,3tl87mo8dp2yrmmv0olc9pahdcwfly,3oonkj5dkgwi7ab6zgka70jhfftobt,fd12Ikna,2020-0188,2020-05-21,10:06:53,10:54:39,NA,incomplete,6,shape,1,left,Blue_Triangle_Grid_4.jpg,Green_Triangle_Stripes_3.jpg,Blue_Circle_Chess_1.jpg,left,625.9199999915436,true,low,false
fd12Ikna,3tl87mo8dp2yrmmv0olc9pahdcwfly,3oonkj5dkgwi7ab6zgka70jhfftobt,fd12Ikna,2020-0188,2020-05-21,10:06:53,10:54:39,NA,incomplete,7,shape,1,left,Blue_Triangle_Stripes_4.jpg,Green_Triangle_Dots_3.jpg,Blue_Plus_Chess_2.jpg,right,621.2949999901466,false,low,false
fd12Ikna,3tl87mo8dp2yrmmv0olc9pahdcwfly,3oonkj5dkgwi7ab6zgka70jhfftobt,fd12Ikna,2020-0188,2020-05-21,10:06:53,10:54:39,NA,incomplete,8,shape,1,right,Purple_Circle_Dots_1.jpg,Purple_Plus_Chess_4.jpg,Blue_Circle_Stripes_3.jpg,right,559.2750000068918,true,low,false
fd12Ikna,3tl87mo8dp2yrmmv0olc9pahdcwfly,3oonkj5dkgwi7ab6zgka70jhfftobt,fd12Ikna,2020-0188,2020-05-21,10:06:53,10:54:39,NA,incomplete,9,shape,1,left,Red_Plus_Stripes_2.jpg,Blue_Plus_Grid_1.jpg,Red_Star_Chess_3.jpg,left,1031.940000015311,true,low,false
fd12Ikna,3tl87mo8dp2yrmmv0olc9pahdcwfly,3oonkj5dkgwi7ab6zgka70jhfftobt,fd12Ikna,2020-0188,2020-05-21,10:06:53,10:54:39,NA,incomplete,10,shape,1,right,Green_Triangle_Dots_4.jpg,Green_Plus_Chess_1.jpg,Red_Triangle_Grid_2.jpg,left,984.969999990426,false,low,false
fd12Ikna,3tl87mo8dp2yrmmv0olc9pahdcwfly,3oonkj5dkgwi7ab6zgka70jhfftobt,fd12Ikna,2020-0188,2020-05-21,10:06:53,10:54:39,NA,incomplete,11,shape,0,right,Green_Star_Dots_2.jpg,Green_Triangle_Chess_4.jpg,Blue_Star_Grid_1.jpg,right,1409.5850000157952,true,low,false
fd12Ikna,3tl87mo8dp2yrmmv0olc9pahdcwfly,3oonkj5dkgwi7ab6zgka70jhfftobt,fd12Ikna,2020-0188,2020-05-21,10:06:53,10:54:39,NA,incomplete,12,shape,1,left,Purple_Plus_Chess_2.jpg,Red_Plus_Grid_1.jpg,Purple_Star_Dots_4.jpg,left,1386.0699999788776,true,low,false
fd12Ikna,3tl87mo8dp2yrmmv0olc9pahdcwfly,3oonkj5dkgwi7ab6zgka70jhfftobt,fd12Ikna,2020-0188,2020-05-21,10:06:53,10:54:39,NA,incomplete,13,shape,0,right,Green_Plus_Stripes_1.jpg,Green_Star_Dots_3.jpg,Red_Plus_Grid_2.jpg,right,729.5199999930337,true,low,false
fd12Ikna,3tl87mo8dp2yrmmv0olc9pahdcwfly,3oonkj5dkgwi7ab6zgka70jhfftobt,fd12Ikna,2020-0188,2020-05-21,10:06:53,10:54:39,NA,incomplete,14,shape,1,right,Purple_Plus_Chess_2.jpg,Purple_Triangle_Stripes_1.jpg,Red_Plus_Grid_3.jpg,right,620.7350000040606,true,low,false
fd12Ikna,3tl87mo8dp2yrmmv0olc9pahdcwfly,3oonkj5dkgwi7ab6zgka70jhfftobt,fd12Ikna,2020-0188,2020-05-21,10:06:53,10:54:39,NA,incomplete,15,shape,1,right,Purple_Circle_Grid_1.jpg,Purple_Triangle_Chess_2.jpg,Blue_Circle_Stripes_4.jpg,right,1174.640000011772,true,low,false
fd12Ikna,3tl87mo8dp2yrmmv0olc9pahdcwfly,3oonkj5dkgwi7ab6zgka70jhfftobt,fd12Ikna,2020-0188,2020-05-21,10:06:53,10:54:39,NA,incomplete,16,shape,0,right,Blue_Plus_Stripes_1.jpg,Blue_Triangle_Grid_3.jpg,Red_Plus_Dots_4.jpg,right,1637.3599999928847,true,low,false
fd12Ikna,3tl87mo8dp2yrmmv0olc9pahdcwfly,3oonkj5dkgwi7ab6zgka70jhfftobt,fd12Ikna,2020-0188,2020-05-21,10:06:53,10:54:39,NA,incomplete,17,shape,1,right,Red_Triangle_Grid_2.jpg,Red_Star_Stripes_4.jpg,Purple_Triangle_Chess_3.jpg,left,1440.9049999956042,false,low,false
fd12Ikna,3tl87mo8dp2yrmmv0olc9pahdcwfly,3oonkj5dkgwi7ab6zgka70jhfftobt,fd12Ikna,2020-0188,2020-05-21,10:06:53,10:54:39,NA,incomplete,18,shape,1,left,Purple_Triangle_Dots_1.jpg,Green_Triangle_Chess_3.jpg,Purple_Circle_Stripes_2.jpg,right,1497.0900000194088,false,low,false
fd12Ikna,3tl87mo8dp2yrmmv0olc9pahdcwfly,3oonkj5dkgwi7ab6zgka70jhfftobt,fd12Ikna,2020-0188,2020-05-21,10:06:53,10:54:39,NA,incomplete,19,shape,0,right,Green_Plus_Stripes_3.jpg,Green_Triangle_Grid_2.jpg,Purple_Plus_Chess_1.jpg,right,637.6749999765307,true,low,false
fd12Ikna,3tl87mo8dp2yrmmv0olc9pahdcwfly,3oonkj5dkgwi7ab6zgka70jhfftobt,fd12Ikna,2020-0188,2020-05-21,10:06:53,10:54:39,NA,incomplete,20,shape,1,right,Blue_Star_Stripes_2.jpg,Blue_Triangle_Dots_1.jpg,Red_Star_Grid_4.jpg,right,740.9249999905005,true,low,false
fd12Ikna,3tl87mo8dp2yrmmv0olc9pahdcwfly,3oonkj5dkgwi7ab6zgka70jhfftobt,fd12Ikna,2020-0188,2020-05-21,10:06:53,10:54:39,NA,incomplete,21,shape,1,right,Purple_Plus_Grid_3.jpg,Purple_Star_Dots_1.jpg,Green_Plus_Chess_4.jpg,right,568.8900000243448,true,low,false
fd12Ikna,3tl87mo8dp2yrmmv0olc9pahdcwfly,3oonkj5dkgwi7ab6zgka70jhfftobt,fd12Ikna,2020-0188,2020-05-21,10:06:53,10:54:39,NA,incomplete,22,shape,1,left,Red_Triangle_Stripes_3.jpg,Blue_Triangle_Grid_1.jpg,Red_Circle_Dots_2.jpg,left,898.6149999834597,true,low,false
fd12Ikna,3tl87mo8dp2yrmmv0olc9pahdcwfly,3oonkj5dkgwi7ab6zgka70jhfftobt,fd12Ikna,2020-0188,2020-05-21,10:06:53,10:54:39,NA,incomplete,23,shape,1,left,Purple_Circle_Grid_4.jpg,Green_Circle_Stripes_1.jpg,Purple_Triangle_Chess_2.jpg,left,967.449999996461,true,low,false
fd12Ikna,3tl87mo8dp2yrmmv0olc9pahdcwfly,3oonkj5dkgwi7ab6zgka70jhfftobt,fd12Ikna,2020-0188,2020-05-21,10:06:53,10:54:39,NA,incomplete,24,shape,0,left,Blue_Star_Stripes_3.jpg,Purple_Star_Grid_2.jpg,Blue_Triangle_Dots_1.jpg,left,669.9700000174344,true,low,false
fd12Ikna,3tl87mo8dp2yrmmv0olc9pahdcwfly,3oonkj5dkgwi7ab6zgka70jhfftobt,fd12Ikna,2020-0188,2020-05-21,10:06:53,10:54:39,NA,incomplete,25,shape,1,left,Red_Circle_Stripes_2.jpg,Blue_Circle_Dots_3.jpg,Red_Triangle_Chess_4.jpg,left,567.490000016056,true,low,false
fd12Ikna,3tl87mo8dp2yrmmv0olc9pahdcwfly,3oonkj5dkgwi7ab6zgka70jhfftobt,fd12Ikna,2020-0188,2020-05-21,10:06:53,10:54:39,NA,incomplete,26,shape,1,right,Purple_Circle_Chess_3.jpg,Purple_Star_Grid_4.jpg,Blue_Circle_Stripes_2.jpg,right,969.2849999992177,true,low,false
fd12Ikna,3tl87mo8dp2yrmmv0olc9pahdcwfly,3oonkj5dkgwi7ab6zgka70jhfftobt,fd12Ikna,2020-0188,2020-05-21,10:06:53,10:54:39,NA,incomplete,27,shape,1,right,Purple_Triangle_Stripes_3.jpg,Purple_Star_Chess_4.jpg,Blue_Triangle_Dots_1.jpg,right,576.0999999768101,true,low,false
fd12Ikna,3tl87mo8dp2yrmmv0olc9pahdcwfly,3oonkj5dkgwi7ab6zgka70jhfftobt,fd12Ikna,2020-0188,2020-05-21,10:06:53,10:54:39,NA,incomplete,28,shape,1,right,Purple_Star_Dots_3.jpg,Purple_Triangle_Stripes_1.jpg,Green_Star_Chess_2.jpg,right,531.4650000073016,true,low,false
fd12Ikna,3tl87mo8dp2yrmmv0olc9pahdcwfly,3oonkj5dkgwi7ab6zgka70jhfftobt,fd12Ikna,2020-0188,2020-05-21,10:06:53,10:54:39,NA,incomplete,29,shape,1,right,Red_Plus_Chess_3.jpg,Red_Star_Dots_1.jpg,Green_Plus_Stripes_2.jpg,right,847.32999998983,true,low,false
fd12Ikna,3tl87mo8dp2yrmmv0olc9pahdcwfly,3oonkj5dkgwi7ab6zgka70jhfftobt,fd12Ikna,2020-0188,2020-05-21,10:06:53,10:54:39,NA,incomplete,30,color,1,left,Purple_Star_Chess_1.jpg,Purple_Circle_Dots_3.jpg,Blue_Star_Stripes_2.jpg,right,635.2550000012852,false,low,false
fd12Ikna,3tl87mo8dp2yrmmv0olc9pahdcwfly,3oonkj5dkgwi7ab6zgka70jhfftobt,fd12Ikna,2020-0188,2020-05-21,10:06:53,10:54:39,NA,incomplete,31,color,1,left,Green_Circle_Stripes_1.jpg,Green_Triangle_Chess_4.jpg,Purple_Circle_Grid_2.jpg,right,799.5349999982864,false,low,false
fd12Ikna,3tl87mo8dp2yrmmv0olc9pahdcwfly,3oonkj5dkgwi7ab6zgka70jhfftobt,fd12Ikna,2020-0188,2020-05-21,10:06:53,10:54:39,NA,incomplete,32,color,1,right,Green_Plus_Dots_3.jpg,Red_Plus_Chess_2.jpg,Green_Triangle_Stripes_4.jpg,left,741.1900000008754,false,low,false
fd12Ikna,3tl87mo8dp2yrmmv0olc9pahdcwfly,3oonkj5dkgwi7ab6zgka70jhfftobt,fd12Ikna,2020-0188,2020-05-21,10:06:53,10:54:39,NA,incomplete,33,color,0,left,Green_Plus_Stripes_2.jpg,Green_Triangle_Chess_3.jpg,Blue_Plus_Dots_1.jpg,right,673.6699999887496,false,low,false
fd12Ikna,3tl87mo8dp2yrmmv0olc9pahdcwfly,3oonkj5dkgwi7ab6zgka70jhfftobt,fd12Ikna,2020-0188,2020-05-21,10:06:53,10:54:39,NA,incomplete,34,color,1,right,Green_Star_Chess_3.jpg,Purple_Star_Stripes_2.jpg,Green_Circle_Grid_4.jpg,left,722.7649999838322,false,low,false
fd12Ikna,3tl87mo8dp2yrmmv0olc9pahdcwfly,3oonkj5dkgwi7ab6zgka70jhfftobt,fd12Ikna,2020-0188,2020-05-21,10:06:53,10:54:39,NA,incomplete,35,color,1,right,Blue_Circle_Stripes_4.jpg,Red_Circle_Dots_1.jpg,Blue_Triangle_Chess_3.jpg,left,676.6849999842234,false,low,false
fd12Ikna,3tl87mo8dp2yrmmv0olc9pahdcwfly,3oonkj5dkgwi7ab6zgka70jhfftobt,fd12Ikna,2020-0188,2020-05-21,10:06:53,10:54:39,NA,incomplete,36,color,1,left,Purple_Plus_Grid_4.jpg,Purple_Triangle_Dots_2.jpg,Red_Plus_Chess_3.jpg,left,983.3499999949709,true,low,false
fd12Ikna,3tl87mo8dp2yrmmv0olc9pahdcwfly,3oonkj5dkgwi7ab6zgka70jhfftobt,fd12Ikna,2020-0188,2020-05-21,10:06:53,10:54:39,NA,incomplete,37,color,1,right,Red_Plus_Dots_1.jpg,Purple_Plus_Chess_3.jpg,Red_Triangle_Grid_4.jpg,right,1096.5199999921024,true,low,false
fd12Ikna,3tl87mo8dp2yrmmv0olc9pahdcwfly,3oonkj5dkgwi7ab6zgka70jhfftobt,fd12Ikna,2020-0188,2020-05-21,10:06:53,10:54:39,NA,incomplete,38,color,0,right,Purple_Triangle_Dots_4.jpg,Red_Triangle_Grid_1.jpg,Purple_Circle_Chess_3.jpg,right,473.23500001244247,true,low,false
fd12Ikna,3tl87mo8dp2yrmmv0olc9pahdcwfly,3oonkj5dkgwi7ab6zgka70jhfftobt,fd12Ikna,2020-0188,2020-05-21,10:06:53,10:54:39,NA,incomplete,39,color,1,left,Purple_Circle_Chess_3.jpg,Purple_Star_Stripes_2.jpg,Blue_Circle_Grid_4.jpg,right,550.2600000179373,false,low,false
fd12Ikna,3tl87mo8dp2yrmmv0olc9pahdcwfly,3oonkj5dkgwi7ab6zgka70jhfftobt,fd12Ikna,2020-0188,2020-05-21,10:06:53,10:54:39,NA,incomplete,40,color,0,left,Purple_Plus_Grid_4.jpg,Purple_Triangle_Stripes_3.jpg,Green_Plus_Dots_2.jpg,right,510.02000001631677,false,low,false
fd12Ikna,3tl87mo8dp2yrmmv0olc9pahdcwfly,3oonkj5dkgwi7ab6zgka70jhfftobt,fd12Ikna,2020-0188,2020-05-21,10:06:53,10:54:39,NA,incomplete,41,color,1,right,Red_Plus_Dots_3.jpg,Green_Plus_Grid_2.jpg,Red_Star_Stripes_4.jpg,right,727.1599999801256,true,low,false
fd12Ikna,3tl87mo8dp2yrmmv0olc9pahdcwfly,3oonkj5dkgwi7ab6zgka70jhfftobt,fd12Ikna,2020-0188,2020-05-21,10:06:53,10:54:39,NA,incomplete,42,color,1,right,Red_Star_Chess_2.jpg,Purple_Star_Grid_4.jpg,Red_Triangle_Dots_1.jpg,right,713.2449999917299,true,low,false
fd12Ikna,3tl87mo8dp2yrmmv0olc9pahdcwfly,3oonkj5dkgwi7ab6zgka70jhfftobt,fd12Ikna,2020-0188,2020-05-21,10:06:53,10:54:39,NA,incomplete,43,color,1,left,Green_Plus_Dots_4.jpg,Green_Triangle_Grid_1.jpg,Red_Plus_Chess_2.jpg,right,849.4000000064261,false,low,false
fd12Ikna,3tl87mo8dp2yrmmv0olc9pahdcwfly,3oonkj5dkgwi7ab6zgka70jhfftobt,fd12Ikna,2020-0188,2020-05-21,10:06:53,10:54:39,NA,incomplete,44,color,1,right,Purple_Star_Stripes_1.jpg,Blue_Star_Grid_4.jpg,Purple_Circle_Chess_3.jpg,right,718.0050000026822,true,low,false
fd12Ikna,3tl87mo8dp2yrmmv0olc9pahdcwfly,3oonkj5dkgwi7ab6zgka70jhfftobt,fd12Ikna,2020-0188,2020-05-21,10:06:53,10:54:39,NA,incomplete,45,color,1,left,Green_Triangle_Grid_3.jpg,Green_Star_Stripes_2.jpg,Blue_Triangle_Dots_4.jpg,left,782.9550000019372,true,low,false
fd12Ikna,3tl87mo8dp2yrmmv0olc9pahdcwfly,3oonkj5dkgwi7ab6zgka70jhfftobt,fd12Ikna,2020-0188,2020-05-21,10:06:53,10:54:39,NA,incomplete,46,color,1,left,Red_Circle_Dots_2.jpg,Red_Star_Stripes_3.jpg,Blue_Circle_Grid_1.jpg,left,497.47000000206754,true,low,false
fd12Ikna,3tl87mo8dp2yrmmv0olc9pahdcwfly,3oonkj5dkgwi7ab6zgka70jhfftobt,fd12Ikna,2020-0188,2020-05-21,10:06:53,10:54:39,NA,incomplete,47,color,1,right,Blue_Plus_Stripes_4.jpg,Red_Plus_Grid_2.jpg,Blue_Star_Chess_3.jpg,right,424.5149999917485,true,low,false
fd12Ikna,3tl87mo8dp2yrmmv0olc9pahdcwfly,3oonkj5dkgwi7ab6zgka70jhfftobt,fd12Ikna,2020-0188,2020-05-21,10:06:53,10:54:39,NA,incomplete,48,color,1,right,Red_Triangle_Grid_1.jpg,Green_Triangle_Dots_4.jpg,Red_Circle_Stripes_2.jpg,right,405.5650000227615,true,low,false
fd12Ikna,3tl87mo8dp2yrmmv0olc9pahdcwfly,3oonkj5dkgwi7ab6zgka70jhfftobt,fd12Ikna,2020-0188,2020-05-21,10:06:53,10:54:39,NA,incomplete,49,color,1,left,Green_Circle_Chess_4.jpg,Green_Triangle_Dots_3.jpg,Blue_Circle_Stripes_1.jpg,left,542.2550000078045,true,low,false
fd12Ikna,3tl87mo8dp2yrmmv0olc9pahdcwfly,3oonkj5dkgwi7ab6zgka70jhfftobt,fd12Ikna,2020-0188,2020-05-21,10:06:53,10:54:39,NA,incomplete,50,color,1,left,Green_Plus_Chess_4.jpg,Green_Star_Grid_1.jpg,Red_Plus_Dots_2.jpg,left,477.01499998243526,true,low,false
fd12Ikna,3tl87mo8dp2yrmmv0olc9pahdcwfly,3oonkj5dkgwi7ab6zgka70jhfftobt,fd12Ikna,2020-0188,2020-05-21,10:06:53,10:54:39,NA,incomplete,51,color,1,right,Red_Plus_Dots_2.jpg,Blue_Plus_Chess_3.jpg,Red_Circle_Grid_1.jpg,right,600.9999999953434,true,low,false
fd12Ikna,3tl87mo8dp2yrmmv0olc9pahdcwfly,3oonkj5dkgwi7ab6zgka70jhfftobt,fd12Ikna,2020-0188,2020-05-21,10:06:53,10:54:39,NA,incomplete,52,color,1,right,Green_Star_Stripes_2.jpg,Red_Star_Dots_1.jpg,Green_Triangle_Grid_4.jpg,right,567.9399999789894,true,low,false
fd12Ikna,3tl87mo8dp2yrmmv0olc9pahdcwfly,3oonkj5dkgwi7ab6zgka70jhfftobt,fd12Ikna,2020-0188,2020-05-21,10:06:53,10:54:39,NA,incomplete,53,color,1,left,Red_Star_Dots_1.jpg,Red_Triangle_Grid_4.jpg,Purple_Star_Chess_3.jpg,left,585.9850000124425,true,low,false
fd12Ikna,3tl87mo8dp2yrmmv0olc9pahdcwfly,3oonkj5dkgwi7ab6zgka70jhfftobt,fd12Ikna,2020-0188,2020-05-21,10:06:53,10:54:39,NA,incomplete,54,color,0,right,Red_Triangle_Chess_2.jpg,Blue_Triangle_Grid_1.jpg,Red_Plus_Stripes_4.jpg,right,398.29000001214445,true,low,false
fd12Ikna,3tl87mo8dp2yrmmv0olc9pahdcwfly,3oonkj5dkgwi7ab6zgka70jhfftobt,fd12Ikna,2020-0188,2020-05-21,10:06:53,10:54:39,NA,incomplete,55,color,0,right,Blue_Star_Stripes_1.jpg,Red_Star_Grid_3.jpg,Blue_Triangle_Chess_4.jpg,right,430.8949999976903,true,low,false
fd12Ikna,3tl87mo8dp2yrmmv0olc9pahdcwfly,3oonkj5dkgwi7ab6zgka70jhfftobt,fd12Ikna,2020-0188,2020-05-21,10:06:53,10:54:39,NA,incomplete,56,color,0,left,Purple_Star_Grid_4.jpg,Purple_Triangle_Stripes_1.jpg,Green_Star_Chess_3.jpg,right,556.4600000218488,false,low,false
fd12Ikna,3tl87mo8dp2yrmmv0olc9pahdcwfly,3oonkj5dkgwi7ab6zgka70jhfftobt,fd12Ikna,2020-0188,2020-05-21,10:06:53,10:54:39,NA,incomplete,57,color,1,right,Blue_Triangle_Stripes_3.jpg,Green_Triangle_Dots_4.jpg,Blue_Circle_Grid_1.jpg,right,501.09000000497326,true,low,false
fd12Ikna,3tl87mo8dp2yrmmv0olc9pahdcwfly,3oonkj5dkgwi7ab6zgka70jhfftobt,fd12Ikna,2020-0188,2020-05-21,10:06:53,10:54:39,NA,incomplete,58,color,0,right,Purple_Plus_Stripes_1.jpg,Red_Plus_Dots_2.jpg,Purple_Circle_Chess_3.jpg,right,381.30999999679625,true,low,false
fd12Ikna,3tl87mo8dp2yrmmv0olc9pahdcwfly,3oonkj5dkgwi7ab6zgka70jhfftobt,fd12Ikna,2020-0188,2020-05-21,10:06:53,10:54:39,NA,incomplete,59,color,1,right,Red_Plus_Chess_2.jpg,Green_Plus_Stripes_1.jpg,Red_Circle_Grid_3.jpg,right,771.005000016652,true,low,false
fd12Ikna,3tl87mo8dp2yrmmv0olc9pahdcwfly,3oonkj5dkgwi7ab6zgka70jhfftobt,fd12Ikna,2020-0188,2020-05-21,10:06:53,10:54:39,NA,incomplete,60,shape,0,right,Purple_Triangle_Chess_3.jpg,Purple_Circle_Stripes_2.jpg,Green_Triangle_Grid_4.jpg,left,539.8800000254996,false,low,false
fd12Ikna,3tl87mo8dp2yrmmv0olc9pahdcwfly,3oonkj5dkgwi7ab6zgka70jhfftobt,fd12Ikna,2020-0188,2020-05-21,10:06:53,10:54:39,NA,incomplete,61,shape,0,left,Purple_Star_Grid_1.jpg,Red_Star_Chess_3.jpg,Purple_Circle_Dots_4.jpg,right,448.0900000198744,false,low,false
fd12Ikna,3tl87mo8dp2yrmmv0olc9pahdcwfly,3oonkj5dkgwi7ab6zgka70jhfftobt,fd12Ikna,2020-0188,2020-05-21,10:06:53,10:54:39,NA,incomplete,62,shape,1,right,Red_Star_Stripes_1.jpg,Red_Circle_Chess_3.jpg,Green_Star_Grid_2.jpg,left,545.0849999906495,false,low,false
fd12Ikna,3tl87mo8dp2yrmmv0olc9pahdcwfly,3oonkj5dkgwi7ab6zgka70jhfftobt,fd12Ikna,2020-0188,2020-05-21,10:06:53,10:54:39,NA,incomplete,63,shape,0,left,Red_Plus_Grid_2.jpg,Green_Plus_Stripes_3.jpg,Red_Triangle_Chess_4.jpg,right,431.6150000086054,false,low,false
fd12Ikna,3tl87mo8dp2yrmmv0olc9pahdcwfly,3oonkj5dkgwi7ab6zgka70jhfftobt,fd12Ikna,2020-0188,2020-05-21,10:06:53,10:54:39,NA,incomplete,64,shape,0,left,Red_Triangle_Stripes_1.jpg,Green_Triangle_Chess_4.jpg,Red_Plus_Dots_2.jpg,right,461.20499999960884,false,low,false
fd12Ikna,3tl87mo8dp2yrmmv0olc9pahdcwfly,3oonkj5dkgwi7ab6zgka70jhfftobt,fd12Ikna,2020-0188,2020-05-21,10:06:53,10:54:39,NA,incomplete,65,shape,1,right,Blue_Star_Stripes_4.jpg,Blue_Triangle_Chess_1.jpg,Purple_Star_Grid_3.jpg,left,855.6200000168756,false,low,false
fd12Ikna,3tl87mo8dp2yrmmv0olc9pahdcwfly,3oonkj5dkgwi7ab6zgka70jhfftobt,fd12Ikna,2020-0188,2020-05-21,10:06:53,10:54:39,NA,incomplete,66,shape,1,right,Purple_Circle_Dots_2.jpg,Purple_Triangle_Chess_4.jpg,Red_Circle_Grid_3.jpg,left,485.11499998904765,false,low,false
fd12Ikna,3tl87mo8dp2yrmmv0olc9pahdcwfly,3oonkj5dkgwi7ab6zgka70jhfftobt,fd12Ikna,2020-0188,2020-05-21,10:06:53,10:54:39,NA,incomplete,67,shape,1,left,Purple_Circle_Stripes_2.jpg,Blue_Circle_Dots_3.jpg,Purple_Triangle_Chess_4.jpg,right,530.2249999949709,false,low,false
fd12Ikna,3tl87mo8dp2yrmmv0olc9pahdcwfly,3oonkj5dkgwi7ab6zgka70jhfftobt,fd12Ikna,2020-0188,2020-05-21,10:06:53,10:54:39,NA,incomplete,68,shape,1,left,Purple_Star_Grid_4.jpg,Green_Star_Stripes_3.jpg,Purple_Triangle_Dots_1.jpg,left,1830.8150000232272,true,low,false
fd12Ikna,3tl87mo8dp2yrmmv0olc9pahdcwfly,3oonkj5dkgwi7ab6zgka70jhfftobt,fd12Ikna,2020-0188,2020-05-21,10:06:53,10:54:39,NA,incomplete,69,shape,1,left,Red_Triangle_Dots_2.jpg,Green_Triangle_Chess_1.jpg,Red_Plus_Stripes_4.jpg,right,584.4949999880046,false,low,false
fd12Ikna,3tl87mo8dp2yrmmv0olc9pahdcwfly,3oonkj5dkgwi7ab6zgka70jhfftobt,fd12Ikna,2020-0188,2020-05-21,10:06:53,10:54:39,NA,incomplete,70,shape,1,left,Purple_Triangle_Stripes_2.jpg,Red_Triangle_Grid_1.jpg,Purple_Circle_Chess_4.jpg,left,741.9100000113249,true,low,false
fd12Ikna,3tl87mo8dp2yrmmv0olc9pahdcwfly,3oonkj5dkgwi7ab6zgka70jhfftobt,fd12Ikna,2020-0188,2020-05-21,10:06:53,10:54:39,NA,incomplete,71,shape,1,left,Blue_Circle_Dots_3.jpg,Purple_Circle_Chess_2.jpg,Blue_Triangle_Stripes_1.jpg,left,1057.5849999729544,true,low,false
fd12Ikna,3tl87mo8dp2yrmmv0olc9pahdcwfly,3oonkj5dkgwi7ab6zgka70jhfftobt,fd12Ikna,2020-0188,2020-05-21,10:06:53,10:54:39,NA,incomplete,72,shape,1,left,Blue_Circle_Grid_4.jpg,Green_Circle_Dots_2.jpg,Blue_Star_Stripes_1.jpg,left,502.210000006482,true,low,false
fd12Ikna,3tl87mo8dp2yrmmv0olc9pahdcwfly,3oonkj5dkgwi7ab6zgka70jhfftobt,fd12Ikna,2020-0188,2020-05-21,10:06:53,10:54:39,NA,incomplete,73,shape,1,left,Blue_Star_Dots_2.jpg,Green_Star_Chess_1.jpg,Blue_Triangle_Grid_3.jpg,left,806.3350000008941,true,low,false
fd12Ikna,3tl87mo8dp2yrmmv0olc9pahdcwfly,3oonkj5dkgwi7ab6zgka70jhfftobt,fd12Ikna,2020-0188,2020-05-21,10:06:53,10:54:39,NA,incomplete,74,shape,1,right,Blue_Star_Dots_3.jpg,Blue_Plus_Grid_1.jpg,Red_Star_Chess_2.jpg,right,876.9949999987148,true,low,false
fd12Ikna,3tl87mo8dp2yrmmv0olc9pahdcwfly,3oonkj5dkgwi7ab6zgka70jhfftobt,fd12Ikna,2020-0188,2020-05-21,10:06:53,10:54:39,NA,incomplete,75,shape,0,right,Green_Circle_Chess_2.jpg,Green_Plus_Grid_1.jpg,Blue_Circle_Dots_3.jpg,right,830.7149999896064,true,low,false
fd12Ikna,3tl87mo8dp2yrmmv0olc9pahdcwfly,3oonkj5dkgwi7ab6zgka70jhfftobt,fd12Ikna,2020-0188,2020-05-21,10:06:53,10:54:39,NA,incomplete,76,shape,1,left,Red_Star_Chess_1.jpg,Purple_Star_Grid_4.jpg,Red_Circle_Dots_3.jpg,left,872.3349999925122,true,low,false
fd12Ikna,3tl87mo8dp2yrmmv0olc9pahdcwfly,3oonkj5dkgwi7ab6zgka70jhfftobt,fd12Ikna,2020-0188,2020-05-21,10:06:53,10:54:39,NA,incomplete,77,shape,1,right,Red_Circle_Stripes_1.jpg,Red_Star_Dots_2.jpg,Green_Circle_Grid_4.jpg,right,672.3350000102073,true,low,false
fd12Ikna,3tl87mo8dp2yrmmv0olc9pahdcwfly,3oonkj5dkgwi7ab6zgka70jhfftobt,fd12Ikna,2020-0188,2020-05-21,10:06:53,10:54:39,NA,incomplete,78,shape,1,right,Purple_Triangle_Stripes_4.jpg,Purple_Star_Grid_1.jpg,Blue_Triangle_Dots_2.jpg,right,673.7850000206381,true,low,false
fd12Ikna,3tl87mo8dp2yrmmv0olc9pahdcwfly,3oonkj5dkgwi7ab6zgka70jhfftobt,fd12Ikna,2020-0188,2020-05-21,10:06:53,10:54:39,NA,incomplete,79,shape,0,right,Purple_Plus_Dots_2.jpg,Purple_Star_Grid_1.jpg,Red_Plus_Chess_3.jpg,right,564.3449999913573,true,low,false
fd12Ikna,3tl87mo8dp2yrmmv0olc9pahdcwfly,3oonkj5dkgwi7ab6zgka70jhfftobt,fd12Ikna,2020-0188,2020-05-21,10:06:53,10:54:39,NA,incomplete,80,shape,1,right,Purple_Triangle_Dots_3.jpg,Purple_Star_Grid_1.jpg,Blue_Triangle_Chess_4.jpg,right,678.5099999979138,true,low,false
fd12Ikna,3tl87mo8dp2yrmmv0olc9pahdcwfly,3oonkj5dkgwi7ab6zgka70jhfftobt,fd12Ikna,2020-0188,2020-05-21,10:06:53,10:54:39,NA,incomplete,81,shape,0,left,Green_Circle_Dots_4.jpg,Purple_Circle_Stripes_3.jpg,Green_Star_Grid_2.jpg,left,512.5500000142492,true,low,false
fd12Ikna,3tl87mo8dp2yrmmv0olc9pahdcwfly,3oonkj5dkgwi7ab6zgka70jhfftobt,fd12Ikna,2020-0188,2020-05-21,10:06:53,10:54:39,NA,incomplete,82,shape,1,left,Purple_Star_Chess_2.jpg,Red_Star_Dots_3.jpg,Purple_Triangle_Grid_1.jpg,left,521.7650000127032,true,low,false
fd12Ikna,3tl87mo8dp2yrmmv0olc9pahdcwfly,3oonkj5dkgwi7ab6zgka70jhfftobt,fd12Ikna,2020-0188,2020-05-21,10:06:53,10:54:39,NA,incomplete,83,shape,1,right,Blue_Plus_Chess_3.jpg,Blue_Triangle_Dots_1.jpg,Purple_Plus_Grid_4.jpg,right,477.3400000119582,true,low,false
fd12Ikna,3tl87mo8dp2yrmmv0olc9pahdcwfly,3oonkj5dkgwi7ab6zgka70jhfftobt,fd12Ikna,2020-0188,2020-05-21,10:06:53,10:54:39,NA,incomplete,84,shape,1,right,Red_Triangle_Dots_1.jpg,Red_Circle_Grid_4.jpg,Green_Triangle_Chess_2.jpg,right,521.2349999928847,true,low,false
fd12Ikna,3tl87mo8dp2yrmmv0olc9pahdcwfly,3oonkj5dkgwi7ab6zgka70jhfftobt,fd12Ikna,2020-0188,2020-05-21,10:06:53,10:54:39,NA,incomplete,85,shape,0,right,Purple_Circle_Dots_1.jpg,Purple_Star_Chess_4.jpg,Green_Circle_Grid_3.jpg,right,597.1900000004098,true,low,false
fd12Ikna,3tl87mo8dp2yrmmv0olc9pahdcwfly,3oonkj5dkgwi7ab6zgka70jhfftobt,fd12Ikna,2020-0188,2020-05-21,10:06:53,10:54:39,NA,incomplete,86,shape,1,left,Green_Plus_Dots_4.jpg,Purple_Plus_Grid_2.jpg,Green_Triangle_Stripes_1.jpg,left,554.330000013113,true,low,false
fd12Ikna,3tl87mo8dp2yrmmv0olc9pahdcwfly,3oonkj5dkgwi7ab6zgka70jhfftobt,fd12Ikna,2020-0188,2020-05-21,10:06:53,10:54:39,NA,incomplete,87,shape,1,left,Red_Circle_Stripes_4.jpg,Blue_Circle_Grid_3.jpg,Red_Star_Dots_1.jpg,left,561.9650000007823,true,low,false
fd12Ikna,3tl87mo8dp2yrmmv0olc9pahdcwfly,3oonkj5dkgwi7ab6zgka70jhfftobt,fd12Ikna,2020-0188,2020-05-21,10:06:53,10:54:39,NA,incomplete,88,shape,0,right,Blue_Plus_Chess_2.jpg,Blue_Triangle_Grid_1.jpg,Purple_Plus_Dots_4.jpg,right,498.4750000005588,true,low,false
fd12Ikna,3tl87mo8dp2yrmmv0olc9pahdcwfly,3oonkj5dkgwi7ab6zgka70jhfftobt,fd12Ikna,2020-0188,2020-05-21,10:06:53,10:54:39,NA,incomplete,89,shape,1,left,Purple_Circle_Grid_2.jpg,Red_Circle_Stripes_4.jpg,Purple_Triangle_Chess_1.jpg,left,521.770000021439,true,low,false
fd12Ikna,3tl87mo8dp2yrmmv0olc9pahdcwfly,3oonkj5dkgwi7ab6zgka70jhfftobt,fd12Ikna,2020-0188,2020-05-21,10:06:53,10:54:39,NA,incomplete,90,color,1,right,Green_Triangle_Grid_3.jpg,Red_Triangle_Chess_4.jpg,Green_Plus_Stripes_2.jpg,left,765.6349999890663,false,low,false
fd12Ikna,3tl87mo8dp2yrmmv0olc9pahdcwfly,3oonkj5dkgwi7ab6zgka70jhfftobt,fd12Ikna,2020-0188,2020-05-21,10:06:53,10:54:39,NA,incomplete,91,color,1,right,Purple_Star_Dots_2.jpg,Blue_Star_Chess_3.jpg,Purple_Plus_Stripes_4.jpg,left,973.5150000196882,false,low,false
fd12Ikna,3tl87mo8dp2yrmmv0olc9pahdcwfly,3oonkj5dkgwi7ab6zgka70jhfftobt,fd12Ikna,2020-0188,2020-05-21,10:06:53,10:54:39,NA,incomplete,92,color,1,right,Red_Star_Stripes_1.jpg,Purple_Star_Grid_3.jpg,Red_Plus_Dots_4.jpg,right,469.5149999749847,true,low,false
fd12Ikna,3tl87mo8dp2yrmmv0olc9pahdcwfly,3oonkj5dkgwi7ab6zgka70jhfftobt,fd12Ikna,2020-0188,2020-05-21,10:06:53,10:54:39,NA,incomplete,93,color,1,right,Blue_Star_Chess_4.jpg,Red_Star_Grid_1.jpg,Blue_Plus_Stripes_3.jpg,right,816.4550000224262,true,low,false
fd12Ikna,3tl87mo8dp2yrmmv0olc9pahdcwfly,3oonkj5dkgwi7ab6zgka70jhfftobt,fd12Ikna,2020-0188,2020-05-21,10:06:53,10:54:39,NA,incomplete,94,color,0,right,Blue_Plus_Dots_2.jpg,Red_Plus_Stripes_1.jpg,Blue_Triangle_Chess_4.jpg,left,648.2100000139326,false,low,false
fd12Ikna,3tl87mo8dp2yrmmv0olc9pahdcwfly,3oonkj5dkgwi7ab6zgka70jhfftobt,fd12Ikna,2020-0188,2020-05-21,10:06:53,10:54:39,NA,incomplete,95,color,1,left,Green_Plus_Chess_2.jpg,Green_Circle_Stripes_3.jpg,Blue_Plus_Dots_1.jpg,left,494.9349999949336,true,low,false
fd12Ikna,3tl87mo8dp2yrmmv0olc9pahdcwfly,3oonkj5dkgwi7ab6zgka70jhfftobt,fd12Ikna,2020-0188,2020-05-21,10:06:53,10:54:39,NA,incomplete,96,color,0,left,Blue_Triangle_Grid_4.jpg,Blue_Circle_Chess_2.jpg,Red_Triangle_Dots_3.jpg,right,645.6199999954551,false,low,false
fd12Ikna,3tl87mo8dp2yrmmv0olc9pahdcwfly,3oonkj5dkgwi7ab6zgka70jhfftobt,fd12Ikna,2020-0188,2020-05-21,10:06:53,10:54:39,NA,incomplete,97,color,1,left,Purple_Circle_Grid_1.jpg,Purple_Triangle_Stripes_3.jpg,Blue_Circle_Dots_2.jpg,right,778.8349999752827,false,low,false
fd12Ikna,3tl87mo8dp2yrmmv0olc9pahdcwfly,3oonkj5dkgwi7ab6zgka70jhfftobt,fd12Ikna,2020-0188,2020-05-21,10:06:53,10:54:39,NA,incomplete,98,color,1,left,Red_Triangle_Grid_2.jpg,Red_Plus_Stripes_3.jpg,Green_Triangle_Chess_1.jpg,left,405.48000001581386,true,low,false
fd12Ikna,3tl87mo8dp2yrmmv0olc9pahdcwfly,3oonkj5dkgwi7ab6zgka70jhfftobt,fd12Ikna,2020-0188,2020-05-21,10:06:53,10:54:39,NA,incomplete,99,color,1,right,Green_Triangle_Dots_2.jpg,Red_Triangle_Chess_4.jpg,Green_Plus_Stripes_1.jpg,right,774.9550000005402,true,low,false
fd12Ikna,3tl87mo8dp2yrmmv0olc9pahdcwfly,3oonkj5dkgwi7ab6zgka70jhfftobt,fd12Ikna,2020-0188,2020-05-21,10:06:53,10:54:39,NA,incomplete,100,color,1,right,Green_Triangle_Stripes_2.jpg,Purple_Triangle_Grid_1.jpg,Green_Plus_Chess_3.jpg,right,648.6950000105426,true,low,false
fd12Ikna,3tl87mo8dp2yrmmv0olc9pahdcwfly,3oonkj5dkgwi7ab6zgka70jhfftobt,fd12Ikna,2020-0188,2020-05-21,10:06:53,10:54:39,NA,incomplete,101,color,1,left,Purple_Circle_Grid_1.jpg,Purple_Plus_Stripes_3.jpg,Blue_Circle_Dots_4.jpg,left,630.5999999749474,true,low,false
fd12Ikna,3tl87mo8dp2yrmmv0olc9pahdcwfly,3oonkj5dkgwi7ab6zgka70jhfftobt,fd12Ikna,2020-0188,2020-05-21,10:06:53,10:54:39,NA,incomplete,102,color,1,left,Blue_Circle_Chess_2.jpg,Blue_Plus_Stripes_3.jpg,Purple_Circle_Dots_1.jpg,left,569.8550000088289,true,low,false
fd12Ikna,3tl87mo8dp2yrmmv0olc9pahdcwfly,3oonkj5dkgwi7ab6zgka70jhfftobt,fd12Ikna,2020-0188,2020-05-21,10:06:53,10:54:39,NA,incomplete,103,color,1,left,Green_Star_Stripes_4.jpg,Green_Circle_Dots_3.jpg,Red_Star_Grid_2.jpg,left,332.4900000002235,true,low,false
fd12Ikna,3tl87mo8dp2yrmmv0olc9pahdcwfly,3oonkj5dkgwi7ab6zgka70jhfftobt,fd12Ikna,2020-0188,2020-05-21,10:06:53,10:54:39,NA,incomplete,104,color,1,right,Purple_Star_Dots_4.jpg,Red_Star_Grid_1.jpg,Purple_Plus_Stripes_2.jpg,right,393.03999999538064,true,low,false
fd12Ikna,3tl87mo8dp2yrmmv0olc9pahdcwfly,3oonkj5dkgwi7ab6zgka70jhfftobt,fd12Ikna,2020-0188,2020-05-21,10:06:53,10:54:39,NA,incomplete,105,color,1,right,Purple_Circle_Stripes_3.jpg,Red_Circle_Dots_1.jpg,Purple_Star_Chess_4.jpg,right,449.7750000152737,true,low,false
fd12Ikna,3tl87mo8dp2yrmmv0olc9pahdcwfly,3oonkj5dkgwi7ab6zgka70jhfftobt,fd12Ikna,2020-0188,2020-05-21,10:06:53,10:54:39,NA,incomplete,106,color,1,right,Purple_Triangle_Stripes_4.jpg,Blue_Triangle_Grid_2.jpg,Purple_Plus_Dots_3.jpg,right,481.85999999940395,true,low,false
fd12Ikna,3tl87mo8dp2yrmmv0olc9pahdcwfly,3oonkj5dkgwi7ab6zgka70jhfftobt,fd12Ikna,2020-0188,2020-05-21,10:06:53,10:54:39,NA,incomplete,107,color,1,right,Green_Star_Dots_4.jpg,Red_Star_Chess_1.jpg,Green_Circle_Grid_3.jpg,right,574.4150000098161,true,low,false
fd12Ikna,3tl87mo8dp2yrmmv0olc9pahdcwfly,3oonkj5dkgwi7ab6zgka70jhfftobt,fd12Ikna,2020-0188,2020-05-21,10:06:53,10:54:39,NA,incomplete,108,color,1,left,Green_Triangle_Grid_3.jpg,Green_Circle_Dots_4.jpg,Purple_Triangle_Chess_2.jpg,left,345.0849999785423,true,low,false
fd12Ikna,3tl87mo8dp2yrmmv0olc9pahdcwfly,3oonkj5dkgwi7ab6zgka70jhfftobt,fd12Ikna,2020-0188,2020-05-21,10:06:53,10:54:39,NA,incomplete,109,color,1,left,Red_Triangle_Chess_4.jpg,Red_Plus_Stripes_3.jpg,Purple_Triangle_Dots_2.jpg,left,480.9150000214577,true,low,false
fd12Ikna,3tl87mo8dp2yrmmv0olc9pahdcwfly,3oonkj5dkgwi7ab6zgka70jhfftobt,fd12Ikna,2020-0188,2020-05-21,10:06:53,10:54:39,NA,incomplete,110,color,1,left,Green_Star_Chess_3.jpg,Green_Circle_Dots_2.jpg,Blue_Star_Stripes_1.jpg,left,534.0200000209734,true,low,false
fd12Ikna,3tl87mo8dp2yrmmv0olc9pahdcwfly,3oonkj5dkgwi7ab6zgka70jhfftobt,fd12Ikna,2020-0188,2020-05-21,10:06:53,10:54:39,NA,incomplete,111,color,1,left,Green_Circle_Chess_3.jpg,Green_Star_Grid_1.jpg,Purple_Circle_Dots_2.jpg,left,482.47999997716397,true,low,false
fd12Ikna,3tl87mo8dp2yrmmv0olc9pahdcwfly,3oonkj5dkgwi7ab6zgka70jhfftobt,fd12Ikna,2020-0188,2020-05-21,10:06:53,10:54:39,NA,incomplete,112,color,1,left,Green_Triangle_Stripes_1.jpg,Green_Plus_Dots_4.jpg,Purple_Triangle_Chess_3.jpg,left,904.004999989178,true,low,false
fd12Ikna,3tl87mo8dp2yrmmv0olc9pahdcwfly,3oonkj5dkgwi7ab6zgka70jhfftobt,fd12Ikna,2020-0188,2020-05-21,10:06:53,10:54:39,NA,incomplete,113,color,1,right,Blue_Circle_Dots_2.jpg,Purple_Circle_Stripes_4.jpg,Blue_Plus_Chess_3.jpg,right,469.0300000072457,true,low,false
fd12Ikna,3tl87mo8dp2yrmmv0olc9pahdcwfly,3oonkj5dkgwi7ab6zgka70jhfftobt,fd12Ikna,2020-0188,2020-05-21,10:06:53,10:54:39,NA,incomplete,114,color,1,left,Blue_Circle_Stripes_2.jpg,Blue_Star_Chess_1.jpg,Red_Circle_Grid_3.jpg,left,903.8650000002235,true,low,false
fd12Ikna,3tl87mo8dp2yrmmv0olc9pahdcwfly,3oonkj5dkgwi7ab6zgka70jhfftobt,fd12Ikna,2020-0188,2020-05-21,10:06:53,10:54:39,NA,incomplete,115,color,1,left,Blue_Plus_Grid_4.jpg,Blue_Star_Stripes_2.jpg,Red_Plus_Dots_1.jpg,right,765.3149999971502,false,low,false
fd12Ikna,3tl87mo8dp2yrmmv0olc9pahdcwfly,3oonkj5dkgwi7ab6zgka70jhfftobt,fd12Ikna,2020-0188,2020-05-21,10:06:53,10:54:39,NA,incomplete,116,color,1,left,Green_Plus_Grid_3.jpg,Green_Triangle_Dots_4.jpg,Purple_Plus_Chess_1.jpg,left,357.589999999851,true,low,false
fd12Ikna,3tl87mo8dp2yrmmv0olc9pahdcwfly,3oonkj5dkgwi7ab6zgka70jhfftobt,fd12Ikna,2020-0188,2020-05-21,10:06:53,10:54:39,NA,incomplete,117,color,1,right,Red_Triangle_Grid_2.jpg,Blue_Triangle_Dots_3.jpg,Red_Circle_Stripes_1.jpg,right,1096.0950000155717,true,low,false
fd12Ikna,3tl87mo8dp2yrmmv0olc9pahdcwfly,3oonkj5dkgwi7ab6zgka70jhfftobt,fd12Ikna,2020-0188,2020-05-21,10:06:53,10:54:39,NA,incomplete,118,color,1,right,Red_Triangle_Grid_3.jpg,Green_Triangle_Dots_4.jpg,Red_Circle_Stripes_2.jpg,right,1281.69999999227,true,low,false
fd12Ikna,3tl87mo8dp2yrmmv0olc9pahdcwfly,3oonkj5dkgwi7ab6zgka70jhfftobt,fd12Ikna,2020-0188,2020-05-21,10:06:53,10:54:39,NA,incomplete,119,color,1,right,Red_Triangle_Dots_1.jpg,Green_Triangle_Grid_3.jpg,Red_Plus_Chess_2.jpg,right,455.95499998284504,true,low,false
fd12Ikna,3tl87mo8dp2yrmmv0olc9pahdcwfly,3oonkj5dkgwi7ab6zgka70jhfftobt,fd12Ikna,2020-0188,2020-05-21,10:06:53,10:54:39,NA,incomplete,120,number,1,left,Purple_Circle_Stripes_2.jpg,Green_Triangle_Chess_2.jpg,Red_Plus_Stripes_1.jpg,NA,NA,NA,low,false
fd12Ikna,3tl87mo8dp2yrmmv0olc9pahdcwfly,3oonkj5dkgwi7ab6zgka70jhfftobt,fd12Ikna,2020-0188,2020-05-21,10:06:53,10:54:39,NA,incomplete,121,number,1,right,Blue_Plus_Chess_4.jpg,Purple_Circle_Chess_3.jpg,Red_Triangle_Dots_4.jpg,left,1316.025000007823,false,low,false
fd12Ikna,3tl87mo8dp2yrmmv0olc9pahdcwfly,3oonkj5dkgwi7ab6zgka70jhfftobt,fd12Ikna,2020-0188,2020-05-21,10:06:53,10:54:39,NA,incomplete,122,number,1,left,Blue_Circle_Dots_4.jpg,Red_Triangle_Grid_4.jpg,Green_Plus_Dots_2.jpg,left,975.8900000015274,true,low,false
fd12Ikna,3tl87mo8dp2yrmmv0olc9pahdcwfly,3oonkj5dkgwi7ab6zgka70jhfftobt,fd12Ikna,2020-0188,2020-05-21,10:06:53,10:54:39,NA,incomplete,123,number,0,right,Blue_Triangle_Stripes_3.jpg,Red_Plus_Stripes_4.jpg,Green_Star_Grid_3.jpg,right,727.6549999951385,true,low,false
fd12Ikna,3tl87mo8dp2yrmmv0olc9pahdcwfly,3oonkj5dkgwi7ab6zgka70jhfftobt,fd12Ikna,2020-0188,2020-05-21,10:06:53,10:54:39,NA,incomplete,124,number,1,left,Blue_Plus_Stripes_2.jpg,Purple_Triangle_Dots_2.jpg,Red_Star_Stripes_3.jpg,left,897.8400000194088,true,low,false
fd12Ikna,3tl87mo8dp2yrmmv0olc9pahdcwfly,3oonkj5dkgwi7ab6zgka70jhfftobt,fd12Ikna,2020-0188,2020-05-21,10:06:53,10:54:39,NA,incomplete,125,number,1,right,Blue_Star_Stripes_3.jpg,Green_Triangle_Stripes_1.jpg,Purple_Circle_Dots_3.jpg,right,798.1550000258721,true,low,false
fd12Ikna,3tl87mo8dp2yrmmv0olc9pahdcwfly,3oonkj5dkgwi7ab6zgka70jhfftobt,fd12Ikna,2020-0188,2020-05-21,10:06:53,10:54:39,NA,incomplete,126,number,0,right,Green_Plus_Dots_1.jpg,Blue_Triangle_Dots_2.jpg,Purple_Star_Stripes_1.jpg,right,866.6400000220165,true,low,false
fd12Ikna,3tl87mo8dp2yrmmv0olc9pahdcwfly,3oonkj5dkgwi7ab6zgka70jhfftobt,fd12Ikna,2020-0188,2020-05-21,10:06:53,10:54:39,NA,incomplete,127,number,1,right,Red_Triangle_Dots_2.jpg,Blue_Circle_Dots_3.jpg,Purple_Star_Stripes_2.jpg,right,785.7650000080466,true,low,false
fd12Ikna,3tl87mo8dp2yrmmv0olc9pahdcwfly,3oonkj5dkgwi7ab6zgka70jhfftobt,fd12Ikna,2020-0188,2020-05-21,10:06:53,10:54:39,NA,incomplete,128,number,1,right,Green_Star_Chess_1.jpg,Purple_Circle_Chess_4.jpg,Red_Triangle_Stripes_1.jpg,right,557.629999996163,true,low,false
fd12Ikna,3tl87mo8dp2yrmmv0olc9pahdcwfly,3oonkj5dkgwi7ab6zgka70jhfftobt,fd12Ikna,2020-0188,2020-05-21,10:06:53,10:54:39,NA,incomplete,129,number,0,right,Blue_Triangle_Dots_2.jpg,Green_Star_Dots_3.jpg,Purple_Plus_Grid_2.jpg,right,549.8700000168756,true,low,false
fd12Ikna,3tl87mo8dp2yrmmv0olc9pahdcwfly,3oonkj5dkgwi7ab6zgka70jhfftobt,fd12Ikna,2020-0188,2020-05-21,10:06:53,10:54:39,NA,incomplete,130,number,1,left,Green_Triangle_Chess_4.jpg,Purple_Star_Dots_4.jpg,Blue_Circle_Chess_3.jpg,left,781.4899999941699,true,low,false
fd12Ikna,3tl87mo8dp2yrmmv0olc9pahdcwfly,3oonkj5dkgwi7ab6zgka70jhfftobt,fd12Ikna,2020-0188,2020-05-21,10:06:53,10:54:39,NA,incomplete,131,number,1,left,Purple_Plus_Chess_2.jpg,Red_Triangle_Stripes_2.jpg,Green_Star_Chess_4.jpg,left,1280.219999986235,true,low,false
fd12Ikna,3tl87mo8dp2yrmmv0olc9pahdcwfly,3oonkj5dkgwi7ab6zgka70jhfftobt,fd12Ikna,2020-0188,2020-05-21,10:06:53,10:54:39,NA,incomplete,132,number,1,right,Green_Star_Grid_1.jpg,Blue_Circle_Grid_3.jpg,Purple_Triangle_Dots_1.jpg,right,614.4250000072643,true,low,false
fd12Ikna,3tl87mo8dp2yrmmv0olc9pahdcwfly,3oonkj5dkgwi7ab6zgka70jhfftobt,fd12Ikna,2020-0188,2020-05-21,10:06:53,10:54:39,NA,incomplete,133,number,1,left,Blue_Star_Grid_1.jpg,Red_Triangle_Stripes_1.jpg,Green_Circle_Grid_2.jpg,left,727.9550000093877,true,low,false
fd12Ikna,3tl87mo8dp2yrmmv0olc9pahdcwfly,3oonkj5dkgwi7ab6zgka70jhfftobt,fd12Ikna,2020-0188,2020-05-21,10:06:53,10:54:39,NA,incomplete,134,number,0,left,Blue_Circle_Chess_2.jpg,Red_Plus_Grid_2.jpg,Green_Star_Chess_3.jpg,left,777.5900000128895,true,low,false
fd12Ikna,3tl87mo8dp2yrmmv0olc9pahdcwfly,3oonkj5dkgwi7ab6zgka70jhfftobt,fd12Ikna,2020-0188,2020-05-21,10:06:53,10:54:39,NA,incomplete,135,number,1,right,Purple_Plus_Chess_3.jpg,Green_Triangle_Chess_2.jpg,Blue_Star_Grid_3.jpg,right,586.9300000197254,true,low,false
fd12Ikna,3tl87mo8dp2yrmmv0olc9pahdcwfly,3oonkj5dkgwi7ab6zgka70jhfftobt,fd12Ikna,2020-0188,2020-05-21,10:06:53,10:54:39,NA,incomplete,136,number,1,left,Blue_Plus_Grid_1.jpg,Red_Triangle_Chess_1.jpg,Purple_Star_Grid_3.jpg,left,687.474999983795,true,low,false
fd12Ikna,3tl87mo8dp2yrmmv0olc9pahdcwfly,3oonkj5dkgwi7ab6zgka70jhfftobt,fd12Ikna,2020-0188,2020-05-21,10:06:53,10:54:39,NA,incomplete,137,number,1,right,Green_Circle_Stripes_3.jpg,Red_Star_Stripes_2.jpg,Blue_Triangle_Chess_3.jpg,right,675.4249999937601,true,low,false
fd12Ikna,3tl87mo8dp2yrmmv0olc9pahdcwfly,3oonkj5dkgwi7ab6zgka70jhfftobt,fd12Ikna,2020-0188,2020-05-21,10:06:53,10:54:39,NA,incomplete,138,number,1,right,Red_Triangle_Stripes_3.jpg,Blue_Plus_Stripes_2.jpg,Purple_Circle_Dots_3.jpg,right,583.6100000012666,true,low,false
fd12Ikna,3tl87mo8dp2yrmmv0olc9pahdcwfly,3oonkj5dkgwi7ab6zgka70jhfftobt,fd12Ikna,2020-0188,2020-05-21,10:06:53,10:54:39,NA,incomplete,139,number,0,right,Purple_Circle_Dots_3.jpg,Blue_Triangle_Dots_4.jpg,Red_Star_Stripes_3.jpg,right,643.8550000023097,true,low,false
fd12Ikna,3tl87mo8dp2yrmmv0olc9pahdcwfly,3oonkj5dkgwi7ab6zgka70jhfftobt,fd12Ikna,2020-0188,2020-05-21,10:06:53,10:54:39,NA,incomplete,140,filling,1,left,Green_Star_Dots_4.jpg,Blue_Plus_Dots_2.jpg,Red_Circle_Grid_4.jpg,right,865.250000002794,false,low,false
fd12Ikna,3tl87mo8dp2yrmmv0olc9pahdcwfly,3oonkj5dkgwi7ab6zgka70jhfftobt,fd12Ikna,2020-0188,2020-05-21,10:06:53,10:54:39,NA,incomplete,141,filling,1,left,Green_Plus_Chess_1.jpg,Blue_Triangle_Chess_4.jpg,Red_Star_Stripes_1.jpg,right,936.5850000176579,false,low,false
fd12Ikna,3tl87mo8dp2yrmmv0olc9pahdcwfly,3oonkj5dkgwi7ab6zgka70jhfftobt,fd12Ikna,2020-0188,2020-05-21,10:06:53,10:54:39,NA,incomplete,142,filling,1,right,Purple_Star_Dots_4.jpg,Green_Triangle_Stripes_4.jpg,Blue_Plus_Dots_1.jpg,right,938.0999999991618,true,low,false
fd12Ikna,3tl87mo8dp2yrmmv0olc9pahdcwfly,3oonkj5dkgwi7ab6zgka70jhfftobt,fd12Ikna,2020-0188,2020-05-21,10:06:53,10:54:39,NA,incomplete,143,filling,1,right,Blue_Triangle_Chess_1.jpg,Red_Star_Dots_1.jpg,Purple_Plus_Chess_3.jpg,right,965.3650000109337,true,low,false
fd12Ikna,3tl87mo8dp2yrmmv0olc9pahdcwfly,3oonkj5dkgwi7ab6zgka70jhfftobt,fd12Ikna,2020-0188,2020-05-21,10:06:53,10:54:39,NA,incomplete,144,filling,1,left,Red_Triangle_Chess_2.jpg,Blue_Circle_Chess_3.jpg,Purple_Plus_Dots_2.jpg,left,834.6050000106916,true,low,false
fd12Ikna,3tl87mo8dp2yrmmv0olc9pahdcwfly,3oonkj5dkgwi7ab6zgka70jhfftobt,fd12Ikna,2020-0188,2020-05-21,10:06:53,10:54:39,NA,incomplete,145,filling,1,left,Green_Circle_Chess_4.jpg,Purple_Plus_Chess_3.jpg,Red_Star_Dots_4.jpg,left,877.7199999894947,true,low,false
fd12Ikna,3tl87mo8dp2yrmmv0olc9pahdcwfly,3oonkj5dkgwi7ab6zgka70jhfftobt,fd12Ikna,2020-0188,2020-05-21,10:06:53,10:54:39,NA,incomplete,146,filling,1,right,Blue_Star_Grid_1.jpg,Green_Triangle_Chess_1.jpg,Red_Circle_Grid_4.jpg,right,814.9500000001863,true,low,false
fd12Ikna,3tl87mo8dp2yrmmv0olc9pahdcwfly,3oonkj5dkgwi7ab6zgka70jhfftobt,fd12Ikna,2020-0188,2020-05-21,10:06:53,10:54:39,NA,incomplete,147,filling,1,left,Green_Plus_Grid_2.jpg,Purple_Circle_Grid_3.jpg,Blue_Triangle_Dots_2.jpg,left,806.4749999903142,true,low,false
fd12Ikna,3tl87mo8dp2yrmmv0olc9pahdcwfly,3oonkj5dkgwi7ab6zgka70jhfftobt,fd12Ikna,2020-0188,2020-05-21,10:06:53,10:54:39,NA,incomplete,148,filling,1,left,Purple_Circle_Grid_3.jpg,Blue_Star_Grid_1.jpg,Green_Plus_Chess_3.jpg,left,885.8250000048429,true,low,false
fd12Ikna,3tl87mo8dp2yrmmv0olc9pahdcwfly,3oonkj5dkgwi7ab6zgka70jhfftobt,fd12Ikna,2020-0188,2020-05-21,10:06:53,10:54:39,NA,incomplete,149,filling,1,right,Purple_Star_Dots_2.jpg,Red_Triangle_Chess_2.jpg,Blue_Circle_Dots_1.jpg,right,871.3449999922886,true,low,false
fd12Ikna,3tl87mo8dp2yrmmv0olc9pahdcwfly,3oonkj5dkgwi7ab6zgka70jhfftobt,fd12Ikna,2020-0188,2020-05-21,10:06:53,10:54:39,NA,incomplete,150,filling,0,right,Green_Star_Stripes_3.jpg,Blue_Plus_Dots_3.jpg,Purple_Circle_Stripes_4.jpg,right,727.5699999881908,true,low,false
fd12Ikna,3tl87mo8dp2yrmmv0olc9pahdcwfly,3oonkj5dkgwi7ab6zgka70jhfftobt,fd12Ikna,2020-0188,2020-05-21,10:06:53,10:54:39,NA,incomplete,151,filling,1,right,Purple_Triangle_Stripes_1.jpg,Red_Star_Dots_1.jpg,Green_Circle_Stripes_4.jpg,right,641.3950000130571,true,low,false
fd12Ikna,3tl87mo8dp2yrmmv0olc9pahdcwfly,3oonkj5dkgwi7ab6zgka70jhfftobt,fd12Ikna,2020-0188,2020-05-21,10:06:53,10:54:39,NA,incomplete,152,filling,1,left,Red_Star_Dots_1.jpg,Blue_Plus_Dots_4.jpg,Green_Triangle_Chess_1.jpg,left,934.9250000086613,true,low,false
fd12Ikna,3tl87mo8dp2yrmmv0olc9pahdcwfly,3oonkj5dkgwi7ab6zgka70jhfftobt,fd12Ikna,2020-0188,2020-05-21,10:06:53,10:54:39,NA,incomplete,153,filling,1,left,Green_Star_Dots_4.jpg,Red_Plus_Dots_3.jpg,Blue_Triangle_Stripes_4.jpg,left,944.9749999912456,true,low,false
fd12Ikna,3tl87mo8dp2yrmmv0olc9pahdcwfly,3oonkj5dkgwi7ab6zgka70jhfftobt,fd12Ikna,2020-0188,2020-05-21,10:06:53,10:54:39,NA,incomplete,154,filling,1,left,Blue_Circle_Chess_1.jpg,Green_Plus_Chess_3.jpg,Purple_Triangle_Stripes_1.jpg,left,844.3850000039674,true,low,false
fd12Ikna,3tl87mo8dp2yrmmv0olc9pahdcwfly,3oonkj5dkgwi7ab6zgka70jhfftobt,fd12Ikna,2020-0188,2020-05-21,10:06:53,10:54:39,NA,incomplete,155,filling,0,left,Green_Triangle_Stripes_2.jpg,Purple_Circle_Stripes_4.jpg,Red_Star_Chess_2.jpg,left,872.3149999859743,true,low,false
fd12Ikna,3tl87mo8dp2yrmmv0olc9pahdcwfly,3oonkj5dkgwi7ab6zgka70jhfftobt,fd12Ikna,2020-0188,2020-05-21,10:06:53,10:54:39,NA,incomplete,156,filling,1,left,Purple_Triangle_Dots_2.jpg,Red_Plus_Dots_3.jpg,Green_Circle_Chess_2.jpg,right,1191.3049999857321,false,low,false
fd12Ikna,3tl87mo8dp2yrmmv0olc9pahdcwfly,3oonkj5dkgwi7ab6zgka70jhfftobt,fd12Ikna,2020-0188,2020-05-21,10:06:53,10:54:39,NA,incomplete,157,filling,1,left,Red_Plus_Grid_4.jpg,Green_Triangle_Grid_3.jpg,Blue_Star_Dots_4.jpg,right,793.2049999944866,false,low,false
fd12Ikna,3tl87mo8dp2yrmmv0olc9pahdcwfly,3oonkj5dkgwi7ab6zgka70jhfftobt,fd12Ikna,2020-0188,2020-05-21,10:06:53,10:54:39,NA,incomplete,158,filling,1,right,Purple_Star_Dots_2.jpg,Red_Triangle_Grid_2.jpg,Green_Circle_Dots_1.jpg,right,1366.474999987986,true,low,false
fd12Ikna,3tl87mo8dp2yrmmv0olc9pahdcwfly,3oonkj5dkgwi7ab6zgka70jhfftobt,fd12Ikna,2020-0188,2020-05-21,10:06:53,10:54:39,NA,incomplete,159,filling,1,right,Blue_Circle_Dots_1.jpg,Purple_Plus_Stripes_1.jpg,Green_Triangle_Dots_2.jpg,right,744.7099999990314,true,low,false
fd12Ikna,3tl87mo8dp2yrmmv0olc9pahdcwfly,3oonkj5dkgwi7ab6zgka70jhfftobt,fd12Ikna,2020-0188,2020-05-21,10:06:53,10:54:39,NA,incomplete,160,number,1,left,Purple_Circle_Dots_4.jpg,Blue_Plus_Chess_4.jpg,Green_Star_Dots_3.jpg,right,806.140000000596,false,low,false
fd12Ikna,3tl87mo8dp2yrmmv0olc9pahdcwfly,3oonkj5dkgwi7ab6zgka70jhfftobt,fd12Ikna,2020-0188,2020-05-21,10:06:53,10:54:39,NA,incomplete,161,number,1,right,Red_Circle_Dots_2.jpg,Blue_Plus_Dots_1.jpg,Green_Triangle_Chess_2.jpg,left,868.8350000013597,false,low,false
fd12Ikna,3tl87mo8dp2yrmmv0olc9pahdcwfly,3oonkj5dkgwi7ab6zgka70jhfftobt,fd12Ikna,2020-0188,2020-05-21,10:06:53,10:54:39,NA,incomplete,162,number,1,right,Green_Triangle_Grid_4.jpg,Red_Star_Grid_2.jpg,Purple_Plus_Dots_4.jpg,right,700.9649999965914,true,low,false
fd12Ikna,3tl87mo8dp2yrmmv0olc9pahdcwfly,3oonkj5dkgwi7ab6zgka70jhfftobt,fd12Ikna,2020-0188,2020-05-21,10:06:53,10:54:39,NA,incomplete,163,number,1,left,Red_Star_Dots_2.jpg,Blue_Plus_Chess_2.jpg,Green_Circle_Dots_3.jpg,left,1315.1800000048243,true,low,false
fd12Ikna,3tl87mo8dp2yrmmv0olc9pahdcwfly,3oonkj5dkgwi7ab6zgka70jhfftobt,fd12Ikna,2020-0188,2020-05-21,10:06:53,10:54:39,NA,incomplete,164,number,0,right,Blue_Circle_Stripes_1.jpg,Purple_Star_Stripes_4.jpg,Red_Triangle_Chess_1.jpg,right,742.3550000237301,true,low,false
fd12Ikna,3tl87mo8dp2yrmmv0olc9pahdcwfly,3oonkj5dkgwi7ab6zgka70jhfftobt,fd12Ikna,2020-0188,2020-05-21,10:06:53,10:54:39,NA,incomplete,165,number,1,left,Blue_Triangle_Dots_2.jpg,Red_Star_Grid_2.jpg,Purple_Circle_Dots_1.jpg,left,1250.7650000043213,true,low,false
fd12Ikna,3tl87mo8dp2yrmmv0olc9pahdcwfly,3oonkj5dkgwi7ab6zgka70jhfftobt,fd12Ikna,2020-0188,2020-05-21,10:06:53,10:54:39,NA,incomplete,166,number,1,left,Red_Star_Grid_3.jpg,Blue_Triangle_Dots_3.jpg,Purple_Circle_Grid_4.jpg,left,868.8300000214949,true,low,false
fd12Ikna,3tl87mo8dp2yrmmv0olc9pahdcwfly,3oonkj5dkgwi7ab6zgka70jhfftobt,fd12Ikna,2020-0188,2020-05-21,10:06:53,10:54:39,NA,incomplete,167,number,1,right,Purple_Star_Stripes_1.jpg,Blue_Triangle_Stripes_4.jpg,Red_Circle_Grid_1.jpg,right,676.8600000068545,true,low,false
fd12Ikna,3tl87mo8dp2yrmmv0olc9pahdcwfly,3oonkj5dkgwi7ab6zgka70jhfftobt,fd12Ikna,2020-0188,2020-05-21,10:06:53,10:54:39,NA,incomplete,168,number,1,left,Red_Star_Grid_2.jpg,Blue_Circle_Stripes_2.jpg,Green_Plus_Grid_3.jpg,left,1424.059999990277,true,low,false
fd12Ikna,3tl87mo8dp2yrmmv0olc9pahdcwfly,3oonkj5dkgwi7ab6zgka70jhfftobt,fd12Ikna,2020-0188,2020-05-21,10:06:53,10:54:39,NA,incomplete,169,number,1,right,Purple_Plus_Stripes_4.jpg,Green_Circle_Stripes_1.jpg,Red_Triangle_Dots_4.jpg,right,604.2949999971315,true,low,false
fd12Ikna,3tl87mo8dp2yrmmv0olc9pahdcwfly,3oonkj5dkgwi7ab6zgka70jhfftobt,fd12Ikna,2020-0188,2020-05-21,10:06:53,10:54:39,NA,incomplete,170,number,1,left,Red_Plus_Grid_1.jpg,Purple_Circle_Stripes_1.jpg,Green_Star_Grid_2.jpg,left,643.0899999979883,true,low,false
fd12Ikna,3tl87mo8dp2yrmmv0olc9pahdcwfly,3oonkj5dkgwi7ab6zgka70jhfftobt,fd12Ikna,2020-0188,2020-05-21,10:06:53,10:54:39,NA,incomplete,171,number,1,right,Green_Circle_Stripes_3.jpg,Red_Star_Stripes_1.jpg,Purple_Plus_Grid_3.jpg,right,696.4750000042841,true,low,false
fd12Ikna,3tl87mo8dp2yrmmv0olc9pahdcwfly,3oonkj5dkgwi7ab6zgka70jhfftobt,fd12Ikna,2020-0188,2020-05-21,10:06:53,10:54:39,NA,incomplete,172,number,1,left,Blue_Plus_Stripes_1.jpg,Green_Circle_Grid_1.jpg,Purple_Star_Stripes_4.jpg,left,590.2800000039861,true,low,false
fd12Ikna,3tl87mo8dp2yrmmv0olc9pahdcwfly,3oonkj5dkgwi7ab6zgka70jhfftobt,fd12Ikna,2020-0188,2020-05-21,10:06:53,10:54:39,NA,incomplete,173,number,0,left,Blue_Triangle_Stripes_2.jpg,Green_Circle_Grid_2.jpg,Purple_Plus_Stripes_4.jpg,left,843.6600000131875,true,low,false
fd12Ikna,3tl87mo8dp2yrmmv0olc9pahdcwfly,3oonkj5dkgwi7ab6zgka70jhfftobt,fd12Ikna,2020-0188,2020-05-21,10:06:53,10:54:39,NA,incomplete,174,number,1,left,Purple_Triangle_Grid_1.jpg,Blue_Star_Chess_1.jpg,Red_Circle_Grid_4.jpg,left,519.135000010021,true,low,false
fd12Ikna,3tl87mo8dp2yrmmv0olc9pahdcwfly,3oonkj5dkgwi7ab6zgka70jhfftobt,fd12Ikna,2020-0188,2020-05-21,10:06:53,10:54:39,NA,incomplete,175,number,0,right,Purple_Circle_Stripes_3.jpg,Red_Plus_Stripes_4.jpg,Blue_Triangle_Chess_3.jpg,right,609.4199999934062,true,low,false
fd12Ikna,3tl87mo8dp2yrmmv0olc9pahdcwfly,3oonkj5dkgwi7ab6zgka70jhfftobt,fd12Ikna,2020-0188,2020-05-21,10:06:53,10:54:39,NA,incomplete,176,number,1,right,Green_Circle_Stripes_2.jpg,Purple_Triangle_Stripes_4.jpg,Red_Star_Chess_2.jpg,right,593.3350000120699,true,low,false
fd12Ikna,3tl87mo8dp2yrmmv0olc9pahdcwfly,3oonkj5dkgwi7ab6zgka70jhfftobt,fd12Ikna,2020-0188,2020-05-21,10:06:53,10:54:39,NA,incomplete,177,number,0,right,Purple_Circle_Dots_2.jpg,Blue_Triangle_Dots_3.jpg,Red_Star_Chess_2.jpg,right,719.5899999933317,true,low,false
fd12Ikna,3tl87mo8dp2yrmmv0olc9pahdcwfly,3oonkj5dkgwi7ab6zgka70jhfftobt,fd12Ikna,2020-0188,2020-05-21,10:06:53,10:54:39,NA,incomplete,178,number,1,right,Blue_Triangle_Dots_4.jpg,Purple_Star_Dots_1.jpg,Green_Plus_Stripes_4.jpg,right,528.6249999767169,true,low,false
fd12Ikna,3tl87mo8dp2yrmmv0olc9pahdcwfly,3oonkj5dkgwi7ab6zgka70jhfftobt,fd12Ikna,2020-0188,2020-05-21,10:06:53,10:54:39,NA,incomplete,179,number,1,left,Red_Triangle_Dots_3.jpg,Purple_Circle_Grid_3.jpg,Green_Star_Dots_1.jpg,left,1180.78500000434,true,low,false
fd12Ikna,3tl87mo8dp2yrmmv0olc9pahdcwfly,3oonkj5dkgwi7ab6zgka70jhfftobt,fd12Ikna,2020-0188,2020-05-21,10:06:53,10:54:39,NA,incomplete,180,filling,1,left,Purple_Triangle_Dots_1.jpg,Green_Star_Dots_2.jpg,Blue_Circle_Chess_1.jpg,right,548.4349999753758,false,low,false
fd12Ikna,3tl87mo8dp2yrmmv0olc9pahdcwfly,3oonkj5dkgwi7ab6zgka70jhfftobt,fd12Ikna,2020-0188,2020-05-21,10:06:53,10:54:39,NA,incomplete,181,filling,0,left,Blue_Triangle_Grid_2.jpg,Green_Star_Grid_3.jpg,Purple_Circle_Chess_2.jpg,right,1202.8749999883585,false,low,false
fd12Ikna,3tl87mo8dp2yrmmv0olc9pahdcwfly,3oonkj5dkgwi7ab6zgka70jhfftobt,fd12Ikna,2020-0188,2020-05-21,10:06:53,10:54:39,NA,incomplete,182,filling,1,right,Purple_Star_Stripes_1.jpg,Red_Triangle_Dots_1.jpg,Blue_Circle_Stripes_2.jpg,left,661.7200000034645,false,low,false
fd12Ikna,3tl87mo8dp2yrmmv0olc9pahdcwfly,3oonkj5dkgwi7ab6zgka70jhfftobt,fd12Ikna,2020-0188,2020-05-21,10:06:53,10:54:39,NA,incomplete,183,filling,0,left,Purple_Triangle_Grid_2.jpg,Green_Plus_Grid_1.jpg,Red_Circle_Stripes_2.jpg,right,542.6649999865331,false,low,false
fd12Ikna,3tl87mo8dp2yrmmv0olc9pahdcwfly,3oonkj5dkgwi7ab6zgka70jhfftobt,fd12Ikna,2020-0188,2020-05-21,10:06:53,10:54:39,NA,incomplete,184,filling,1,left,Red_Star_Grid_3.jpg,Purple_Plus_Grid_4.jpg,Green_Circle_Dots_3.jpg,right,619.4499999983236,false,low,false
fd12Ikna,3tl87mo8dp2yrmmv0olc9pahdcwfly,3oonkj5dkgwi7ab6zgka70jhfftobt,fd12Ikna,2020-0188,2020-05-21,10:06:53,10:54:39,NA,incomplete,185,filling,1,right,Green_Triangle_Grid_2.jpg,Purple_Plus_Stripes_2.jpg,Red_Circle_Grid_3.jpg,left,1334.9400000008754,false,low,false
fd12Ikna,3tl87mo8dp2yrmmv0olc9pahdcwfly,3oonkj5dkgwi7ab6zgka70jhfftobt,fd12Ikna,2020-0188,2020-05-21,10:06:53,10:54:39,NA,incomplete,186,filling,1,left,Blue_Star_Dots_3.jpg,Green_Plus_Dots_4.jpg,Purple_Triangle_Chess_3.jpg,left,844.8600000119768,true,low,false
fd12Ikna,3tl87mo8dp2yrmmv0olc9pahdcwfly,3oonkj5dkgwi7ab6zgka70jhfftobt,fd12Ikna,2020-0188,2020-05-21,10:06:53,10:54:39,NA,incomplete,187,filling,1,right,Purple_Plus_Stripes_1.jpg,Blue_Star_Dots_1.jpg,Red_Circle_Stripes_3.jpg,right,1016.8249999987893,true,low,false
fd12Ikna,3tl87mo8dp2yrmmv0olc9pahdcwfly,3oonkj5dkgwi7ab6zgka70jhfftobt,fd12Ikna,2020-0188,2020-05-21,10:06:53,10:54:39,NA,incomplete,188,filling,0,right,Blue_Circle_Stripes_2.jpg,Purple_Star_Dots_2.jpg,Red_Triangle_Stripes_3.jpg,right,647.4900000030175,true,low,false
fd12Ikna,3tl87mo8dp2yrmmv0olc9pahdcwfly,3oonkj5dkgwi7ab6zgka70jhfftobt,fd12Ikna,2020-0188,2020-05-21,10:06:53,10:54:39,NA,incomplete,189,filling,1,right,Green_Circle_Stripes_2.jpg,Blue_Star_Grid_2.jpg,Purple_Triangle_Stripes_1.jpg,right,677.4550000266172,true,low,false
fd12Ikna,3tl87mo8dp2yrmmv0olc9pahdcwfly,3oonkj5dkgwi7ab6zgka70jhfftobt,fd12Ikna,2020-0188,2020-05-21,10:06:53,10:54:39,NA,incomplete,190,filling,0,left,Purple_Circle_Grid_4.jpg,Green_Plus_Grid_1.jpg,Red_Star_Dots_4.jpg,left,872.0599999940023,true,low,false
fd12Ikna,3tl87mo8dp2yrmmv0olc9pahdcwfly,3oonkj5dkgwi7ab6zgka70jhfftobt,fd12Ikna,2020-0188,2020-05-21,10:06:53,10:54:39,NA,incomplete,191,filling,1,right,Red_Star_Stripes_2.jpg,Green_Circle_Grid_2.jpg,Blue_Plus_Stripes_4.jpg,left,1968.4699999922886,false,low,false
fd12Ikna,3tl87mo8dp2yrmmv0olc9pahdcwfly,3oonkj5dkgwi7ab6zgka70jhfftobt,fd12Ikna,2020-0188,2020-05-21,10:06:53,10:54:39,NA,incomplete,192,filling,1,right,Red_Triangle_Grid_2.jpg,Blue_Circle_Dots_2.jpg,Green_Plus_Grid_1.jpg,right,1167.9700000095181,true,low,false
fd12Ikna,3tl87mo8dp2yrmmv0olc9pahdcwfly,3oonkj5dkgwi7ab6zgka70jhfftobt,fd12Ikna,2020-0188,2020-05-21,10:06:53,10:54:39,NA,incomplete,193,filling,1,right,Red_Star_Stripes_4.jpg,Purple_Circle_Dots_4.jpg,Blue_Triangle_Stripes_3.jpg,right,1556.9499999983236,true,low,false
fd12Ikna,3tl87mo8dp2yrmmv0olc9pahdcwfly,3oonkj5dkgwi7ab6zgka70jhfftobt,fd12Ikna,2020-0188,2020-05-21,10:06:53,10:54:39,NA,incomplete,194,filling,1,right,Red_Star_Chess_2.jpg,Blue_Plus_Dots_2.jpg,Green_Circle_Chess_1.jpg,right,1413.7399999890476,true,low,false
fd12Ikna,3tl87mo8dp2yrmmv0olc9pahdcwfly,3oonkj5dkgwi7ab6zgka70jhfftobt,fd12Ikna,2020-0188,2020-05-21,10:06:53,10:54:39,NA,incomplete,195,filling,1,right,Purple_Star_Chess_2.jpg,Red_Plus_Dots_2.jpg,Blue_Triangle_Chess_4.jpg,right,896.2149999863468,true,low,false
fd12Ikna,3tl87mo8dp2yrmmv0olc9pahdcwfly,3oonkj5dkgwi7ab6zgka70jhfftobt,fd12Ikna,2020-0188,2020-05-21,10:06:53,10:54:39,NA,incomplete,196,filling,1,left,Blue_Triangle_Stripes_1.jpg,Red_Plus_Stripes_3.jpg,Green_Star_Chess_1.jpg,left,1613.0699999923818,true,low,false
fd12Ikna,3tl87mo8dp2yrmmv0olc9pahdcwfly,3oonkj5dkgwi7ab6zgka70jhfftobt,fd12Ikna,2020-0188,2020-05-21,10:06:53,10:54:39,NA,incomplete,197,filling,1,left,Purple_Star_Dots_4.jpg,Red_Circle_Dots_3.jpg,Blue_Plus_Stripes_4.jpg,left,1101.8400000175461,true,low,false
fd12Ikna,3tl87mo8dp2yrmmv0olc9pahdcwfly,3oonkj5dkgwi7ab6zgka70jhfftobt,fd12Ikna,2020-0188,2020-05-21,10:06:53,10:54:39,NA,incomplete,198,filling,1,right,Red_Star_Chess_2.jpg,Green_Circle_Grid_2.jpg,Purple_Triangle_Chess_3.jpg,right,776.7799999853596,true,low,false
fd12Ikna,3tl87mo8dp2yrmmv0olc9pahdcwfly,3oonkj5dkgwi7ab6zgka70jhfftobt,fd12Ikna,2020-0188,2020-05-21,10:06:53,10:54:39,NA,incomplete,199,filling,1,right,Blue_Plus_Stripes_2.jpg,Red_Triangle_Grid_2.jpg,Purple_Circle_Stripes_4.jpg,right,818.1350000090897,true,low,false
fd12Ikna,3tl87mo8dp2yrmmv0olc9pahdcwfly,3oonkj5dkgwi7ab6zgka70jhfftobt,fd12Ikna,2020-0188,2020-05-21,10:06:53,10:54:39,NA,incomplete,200,number,0,left,Red_Circle_Chess_2.jpg,Green_Plus_Grid_2.jpg,Blue_Star_Chess_4.jpg,right,801.9350000252016,false,low,false
fd12Ikna,3tl87mo8dp2yrmmv0olc9pahdcwfly,3oonkj5dkgwi7ab6zgka70jhfftobt,fd12Ikna,2020-0188,2020-05-21,10:06:53,10:54:39,NA,incomplete,201,number,1,right,Green_Plus_Grid_1.jpg,Blue_Star_Grid_4.jpg,Purple_Circle_Dots_1.jpg,left,983.9499999945983,false,low,false
fd12Ikna,3tl87mo8dp2yrmmv0olc9pahdcwfly,3oonkj5dkgwi7ab6zgka70jhfftobt,fd12Ikna,2020-0188,2020-05-21,10:06:53,10:54:39,NA,incomplete,202,number,1,right,Red_Triangle_Grid_3.jpg,Green_Circle_Grid_4.jpg,Blue_Star_Chess_3.jpg,left,784.505000018049,false,low,false
fd12Ikna,3tl87mo8dp2yrmmv0olc9pahdcwfly,3oonkj5dkgwi7ab6zgka70jhfftobt,fd12Ikna,2020-0188,2020-05-21,10:06:53,10:54:39,NA,incomplete,203,number,0,right,Green_Triangle_Chess_1.jpg,Blue_Circle_Chess_2.jpg,Purple_Star_Dots_1.jpg,right,594.9700000057928,true,low,false
fd12Ikna,3tl87mo8dp2yrmmv0olc9pahdcwfly,3oonkj5dkgwi7ab6zgka70jhfftobt,fd12Ikna,2020-0188,2020-05-21,10:06:53,10:54:39,NA,incomplete,204,number,1,right,Red_Plus_Grid_1.jpg,Purple_Star_Grid_2.jpg,Green_Circle_Dots_1.jpg,right,1225.0200000125915,true,low,false
fd12Ikna,3tl87mo8dp2yrmmv0olc9pahdcwfly,3oonkj5dkgwi7ab6zgka70jhfftobt,fd12Ikna,2020-0188,2020-05-21,10:06:53,10:54:39,NA,incomplete,205,number,0,right,Red_Star_Dots_1.jpg,Purple_Triangle_Dots_3.jpg,Blue_Plus_Grid_1.jpg,right,1463.5000000121072,true,low,false
fd12Ikna,3tl87mo8dp2yrmmv0olc9pahdcwfly,3oonkj5dkgwi7ab6zgka70jhfftobt,fd12Ikna,2020-0188,2020-05-21,10:06:53,10:54:39,NA,incomplete,206,number,1,left,Purple_Plus_Grid_3.jpg,Blue_Triangle_Dots_3.jpg,Green_Circle_Grid_2.jpg,left,561.0950000118464,true,low,false
fd12Ikna,3tl87mo8dp2yrmmv0olc9pahdcwfly,3oonkj5dkgwi7ab6zgka70jhfftobt,fd12Ikna,2020-0188,2020-05-21,10:06:53,10:54:39,NA,incomplete,207,number,1,left,Purple_Triangle_Stripes_1.jpg,Green_Star_Chess_1.jpg,Blue_Circle_Stripes_4.jpg,left,1545.7950000124983,true,low,false
fd12Ikna,3tl87mo8dp2yrmmv0olc9pahdcwfly,3oonkj5dkgwi7ab6zgka70jhfftobt,fd12Ikna,2020-0188,2020-05-21,10:06:53,10:54:39,NA,incomplete,208,number,1,right,Blue_Circle_Stripes_1.jpg,Red_Plus_Stripes_2.jpg,Green_Star_Chess_1.jpg,right,856.3349999897182,true,low,false
fd12Ikna,3tl87mo8dp2yrmmv0olc9pahdcwfly,3oonkj5dkgwi7ab6zgka70jhfftobt,fd12Ikna,2020-0188,2020-05-21,10:06:53,10:54:39,NA,incomplete,209,number,1,right,Purple_Circle_Grid_1.jpg,Blue_Star_Grid_3.jpg,Red_Triangle_Dots_1.jpg,right,854.1400000108406,true,low,false
fd12Ikna,3tl87mo8dp2yrmmv0olc9pahdcwfly,3oonkj5dkgwi7ab6zgka70jhfftobt,fd12Ikna,2020-0188,2020-05-21,10:06:53,10:54:39,NA,incomplete,210,number,1,right,Blue_Circle_Dots_2.jpg,Purple_Plus_Dots_4.jpg,Red_Star_Chess_2.jpg,right,675.0450000106357,true,low,false
fd12Ikna,3tl87mo8dp2yrmmv0olc9pahdcwfly,3oonkj5dkgwi7ab6zgka70jhfftobt,fd12Ikna,2020-0188,2020-05-21,10:06:53,10:54:39,NA,incomplete,211,number,1,left,Green_Star_Grid_4.jpg,Purple_Plus_Chess_4.jpg,Red_Circle_Grid_1.jpg,left,1310.0149999954738,true,low,false
fd12Ikna,3tl87mo8dp2yrmmv0olc9pahdcwfly,3oonkj5dkgwi7ab6zgka70jhfftobt,fd12Ikna,2020-0188,2020-05-21,10:06:53,10:54:39,NA,incomplete,212,number,0,left,Purple_Star_Dots_1.jpg,Green_Triangle_Grid_1.jpg,Red_Circle_Dots_4.jpg,left,888.3999999961816,true,low,false
fd12Ikna,3tl87mo8dp2yrmmv0olc9pahdcwfly,3oonkj5dkgwi7ab6zgka70jhfftobt,fd12Ikna,2020-0188,2020-05-21,10:06:53,10:54:39,NA,incomplete,213,number,1,left,Purple_Plus_Dots_4.jpg,Red_Circle_Stripes_4.jpg,Blue_Star_Dots_3.jpg,left,1194.7550000045449,true,low,false
fd12Ikna,3tl87mo8dp2yrmmv0olc9pahdcwfly,3oonkj5dkgwi7ab6zgka70jhfftobt,fd12Ikna,2020-0188,2020-05-21,10:06:53,10:54:39,NA,incomplete,214,number,0,left,Purple_Circle_Grid_4.jpg,Blue_Star_Dots_4.jpg,Green_Plus_Grid_2.jpg,left,780.9999999883585,true,low,false
fd12Ikna,3tl87mo8dp2yrmmv0olc9pahdcwfly,3oonkj5dkgwi7ab6zgka70jhfftobt,fd12Ikna,2020-0188,2020-05-21,10:06:53,10:54:39,NA,incomplete,215,number,1,right,Blue_Circle_Dots_2.jpg,Green_Star_Dots_3.jpg,Red_Triangle_Grid_2.jpg,right,710.9399999901652,true,low,false
fd12Ikna,3tl87mo8dp2yrmmv0olc9pahdcwfly,3oonkj5dkgwi7ab6zgka70jhfftobt,fd12Ikna,2020-0188,2020-05-21,10:06:53,10:54:39,NA,incomplete,216,number,1,right,Blue_Plus_Dots_4.jpg,Red_Triangle_Dots_3.jpg,Purple_Circle_Grid_4.jpg,right,1159.075000003446,true,low,false
fd12Ikna,3tl87mo8dp2yrmmv0olc9pahdcwfly,3oonkj5dkgwi7ab6zgka70jhfftobt,fd12Ikna,2020-0188,2020-05-21,10:06:53,10:54:39,NA,incomplete,217,number,1,right,Blue_Plus_Stripes_3.jpg,Purple_Triangle_Stripes_1.jpg,Red_Star_Chess_3.jpg,right,1194.3000000026077,true,low,false
fd12Ikna,3tl87mo8dp2yrmmv0olc9pahdcwfly,3oonkj5dkgwi7ab6zgka70jhfftobt,fd12Ikna,2020-0188,2020-05-21,10:06:53,10:54:39,NA,incomplete,218,number,1,right,Green_Plus_Grid_1.jpg,Purple_Star_Grid_3.jpg,Red_Circle_Stripes_1.jpg,right,635.1250000009313,true,low,false
fd12Ikna,3tl87mo8dp2yrmmv0olc9pahdcwfly,3oonkj5dkgwi7ab6zgka70jhfftobt,fd12Ikna,2020-0188,2020-05-21,10:06:53,10:54:39,NA,incomplete,219,number,0,left,Red_Triangle_Stripes_2.jpg,Blue_Star_Dots_2.jpg,Purple_Circle_Stripes_1.jpg,left,1159.8999999989755,true,low,false
fd12Ikna,3tl87mo8dp2yrmmv0olc9pahdcwfly,3oonkj5dkgwi7ab6zgka70jhfftobt,fd12Ikna,2020-0188,2020-05-21,10:06:53,10:54:39,NA,incomplete,220,filling,1,right,Blue_Star_Stripes_2.jpg,Green_Plus_Dots_2.jpg,Red_Circle_Stripes_3.jpg,left,834.8349999869242,false,low,false
fd12Ikna,3tl87mo8dp2yrmmv0olc9pahdcwfly,3oonkj5dkgwi7ab6zgka70jhfftobt,fd12Ikna,2020-0188,2020-05-21,10:06:53,10:54:39,NA,incomplete,221,filling,1,right,Blue_Triangle_Stripes_2.jpg,Purple_Star_Dots_2.jpg,Red_Circle_Stripes_3.jpg,right,997.6500000045635,true,low,false
fd12Ikna,3tl87mo8dp2yrmmv0olc9pahdcwfly,3oonkj5dkgwi7ab6zgka70jhfftobt,fd12Ikna,2020-0188,2020-05-21,10:06:53,10:54:39,NA,incomplete,222,filling,1,right,Red_Circle_Dots_1.jpg,Purple_Star_Chess_1.jpg,Green_Plus_Dots_2.jpg,right,1713.1900000092573,true,low,false
fd12Ikna,3tl87mo8dp2yrmmv0olc9pahdcwfly,3oonkj5dkgwi7ab6zgka70jhfftobt,fd12Ikna,2020-0188,2020-05-21,10:06:53,10:54:39,NA,incomplete,223,filling,0,right,Blue_Star_Dots_2.jpg,Purple_Plus_Stripes_2.jpg,Red_Triangle_Dots_4.jpg,right,785.3100000070408,true,low,false
fd12Ikna,3tl87mo8dp2yrmmv0olc9pahdcwfly,3oonkj5dkgwi7ab6zgka70jhfftobt,fd12Ikna,2020-0188,2020-05-21,10:06:53,10:54:39,NA,incomplete,224,filling,1,right,Blue_Plus_Dots_3.jpg,Red_Triangle_Chess_3.jpg,Purple_Circle_Dots_1.jpg,right,604.3600000264123,true,low,false
fd12Ikna,3tl87mo8dp2yrmmv0olc9pahdcwfly,3oonkj5dkgwi7ab6zgka70jhfftobt,fd12Ikna,2020-0188,2020-05-21,10:06:53,10:54:39,NA,incomplete,225,filling,1,right,Blue_Triangle_Stripes_3.jpg,Purple_Circle_Chess_3.jpg,Green_Star_Stripes_4.jpg,left,668.4300000201911,false,low,false
fd12Ikna,3tl87mo8dp2yrmmv0olc9pahdcwfly,3oonkj5dkgwi7ab6zgka70jhfftobt,fd12Ikna,2020-0188,2020-05-21,10:06:53,10:54:39,NA,incomplete,226,filling,0,right,Green_Plus_Dots_1.jpg,Red_Star_Chess_1.jpg,Purple_Triangle_Dots_4.jpg,right,878.0399999814108,true,low,false
fd12Ikna,3tl87mo8dp2yrmmv0olc9pahdcwfly,3oonkj5dkgwi7ab6zgka70jhfftobt,fd12Ikna,2020-0188,2020-05-21,10:06:53,10:54:39,NA,incomplete,227,filling,1,left,Red_Plus_Stripes_4.jpg,Purple_Star_Stripes_3.jpg,Blue_Triangle_Dots_4.jpg,left,999.2899999776855,true,low,false
fd12Ikna,3tl87mo8dp2yrmmv0olc9pahdcwfly,3oonkj5dkgwi7ab6zgka70jhfftobt,fd12Ikna,2020-0188,2020-05-21,10:06:53,10:54:39,NA,incomplete,228,filling,1,right,Purple_Star_Stripes_4.jpg,Green_Plus_Grid_4.jpg,Red_Circle_Stripes_3.jpg,right,722.8150000157766,true,low,false
fd12Ikna,3tl87mo8dp2yrmmv0olc9pahdcwfly,3oonkj5dkgwi7ab6zgka70jhfftobt,fd12Ikna,2020-0188,2020-05-21,10:06:53,10:54:39,NA,incomplete,229,filling,1,right,Red_Plus_Dots_3.jpg,Purple_Triangle_Grid_3.jpg,Blue_Star_Dots_4.jpg,right,1076.549999997951,true,low,false
fd12Ikna,3tl87mo8dp2yrmmv0olc9pahdcwfly,3oonkj5dkgwi7ab6zgka70jhfftobt,fd12Ikna,2020-0188,2020-05-21,10:06:53,10:54:39,NA,incomplete,230,filling,1,right,Purple_Star_Grid_2.jpg,Green_Plus_Chess_2.jpg,Red_Circle_Grid_3.jpg,right,1379.3149999985471,true,low,false
fd12Ikna,3tl87mo8dp2yrmmv0olc9pahdcwfly,3oonkj5dkgwi7ab6zgka70jhfftobt,fd12Ikna,2020-0188,2020-05-21,10:06:53,10:54:39,NA,incomplete,231,filling,0,right,Red_Triangle_Grid_3.jpg,Purple_Star_Dots_3.jpg,Blue_Circle_Grid_4.jpg,right,568.4250000044703,true,low,false
fd12Ikna,3tl87mo8dp2yrmmv0olc9pahdcwfly,3oonkj5dkgwi7ab6zgka70jhfftobt,fd12Ikna,2020-0188,2020-05-21,10:06:53,10:54:39,NA,incomplete,232,filling,1,right,Red_Circle_Stripes_1.jpg,Green_Star_Dots_1.jpg,Blue_Triangle_Stripes_3.jpg,right,682.1800000034273,true,low,false
fd12Ikna,3tl87mo8dp2yrmmv0olc9pahdcwfly,3oonkj5dkgwi7ab6zgka70jhfftobt,fd12Ikna,2020-0188,2020-05-21,10:06:53,10:54:39,NA,incomplete,233,filling,1,left,Red_Star_Chess_2.jpg,Blue_Circle_Chess_1.jpg,Purple_Plus_Grid_2.jpg,left,894.2300000055693,true,low,false
fd12Ikna,3tl87mo8dp2yrmmv0olc9pahdcwfly,3oonkj5dkgwi7ab6zgka70jhfftobt,fd12Ikna,2020-0188,2020-05-21,10:06:53,10:54:39,NA,incomplete,234,filling,1,left,Green_Plus_Stripes_2.jpg,Purple_Triangle_Stripes_4.jpg,Red_Star_Grid_2.jpg,left,1017.2200000090525,true,low,false
fd12Ikna,3tl87mo8dp2yrmmv0olc9pahdcwfly,3oonkj5dkgwi7ab6zgka70jhfftobt,fd12Ikna,2020-0188,2020-05-21,10:06:53,10:54:39,NA,incomplete,235,filling,1,left,Purple_Star_Dots_4.jpg,Blue_Triangle_Dots_1.jpg,Green_Plus_Grid_4.jpg,left,1335.4500000132248,true,low,false
fd12Ikna,3tl87mo8dp2yrmmv0olc9pahdcwfly,3oonkj5dkgwi7ab6zgka70jhfftobt,fd12Ikna,2020-0188,2020-05-21,10:06:53,10:54:39,NA,incomplete,236,filling,1,left,Green_Triangle_Stripes_3.jpg,Purple_Circle_Stripes_1.jpg,Red_Plus_Grid_3.jpg,left,750.4550000014715,true,low,false
fd12Ikna,3tl87mo8dp2yrmmv0olc9pahdcwfly,3oonkj5dkgwi7ab6zgka70jhfftobt,fd12Ikna,2020-0188,2020-05-21,10:06:53,10:54:39,NA,incomplete,237,filling,1,left,Blue_Circle_Dots_2.jpg,Purple_Star_Dots_1.jpg,Green_Plus_Grid_2.jpg,left,1037.1199999935925,true,low,false
fd12Ikna,3tl87mo8dp2yrmmv0olc9pahdcwfly,3oonkj5dkgwi7ab6zgka70jhfftobt,fd12Ikna,2020-0188,2020-05-21,10:06:53,10:54:39,NA,incomplete,238,filling,1,left,Purple_Triangle_Grid_1.jpg,Red_Circle_Grid_3.jpg,Blue_Star_Chess_1.jpg,left,702.1249999813735,true,low,false
fd12Ikna,3tl87mo8dp2yrmmv0olc9pahdcwfly,3oonkj5dkgwi7ab6zgka70jhfftobt,fd12Ikna,2020-0188,2020-05-21,10:06:53,10:54:39,NA,incomplete,239,filling,1,right,Purple_Plus_Chess_3.jpg,Red_Triangle_Grid_3.jpg,Blue_Star_Chess_4.jpg,right,844.9850000031292,true,low,false
fd12Ikna,3tl87mo8dp2yrmmv0olc9pahdcwfly,3oonkj5dkgwi7ab6zgka70jhfftobt,fd12Ikna,2020-0188,2020-05-21,10:06:53,10:54:39,NA,NA,instruction example,shape,NA,NA,Green_Plus_Grid_4.jpg,Red_Plus_Chess_1.jpg,Green_Star_Stripes_3.jpg,NA,NA,NA,NA,undefined
fd12Ikna,3tl87mo8dp2yrmmv0olc9pahdcwfly,3oonkj5dkgwi7ab6zgka70jhfftobt,fd12Ikna,2020-0188,2020-05-21,10:06:53,10:54:39,NA,NA,instruction example,shape,NA,NA,Red_Triangle_Chess_1.jpg,Red_Circle_Stripes_2.jpg,Blue_Triangle_Dots_3.jpg,NA,NA,NA,NA,undefined
fd12Ikna,3tl87mo8dp2yrmmv0olc9pahdcwfly,3oonkj5dkgwi7ab6zgka70jhfftobt,fd12Ikna,2020-0188,2020-05-21,10:06:53,10:54:39,NA,NA,instruction example,shape,NA,NA,Blue_Circle_Chess_2.jpg,Purple_Triangle_Grid_2.jpg,Green_Plus_Chess_3.jpg,NA,NA,NA,NA,undefined
fd12Ikna,3tl87mo8dp2yrmmv0olc9pahdcwfly,3oonkj5dkgwi7ab6zgka70jhfftobt,fd12Ikna,2020-0188,2020-05-21,10:06:53,10:54:39,NA,NA,instruction example,shape,NA,NA,Green_Star_Dots_2.jpg,Red_Triangle_Dots_4.jpg,Purple_Circle_Stripes_2.jpg,NA,NA,NA,NA,undefined
fd12Ikna,3tl87mo8dp2yrmmv0olc9pahdcwfly,3oonkj5dkgwi7ab6zgka70jhfftobt,fd12Ikna,2020-0188,2020-05-21,10:06:53,10:54:39,2841305.6999999974,2867317.5049999845,NA,NA,NA,NA,NA,NA,NA,NA,NA,NA,NA,undefined
