workerId,hitId,assignmentId,subject,studyid,exp_date,exp_start,exp_end,time_start,time_end,trial,type,reward_validity,answer,image_top,image_left,image_right,response,response_time,response_acc,volatility,age,race,gender,ethnicity,color,vision,neuro,practice
AqX83Vy6,32xn26mty2w7ui75x62r6ind7a7l00,3p4rdnwnd9jet7yfpdkmlr68bb6ijg,AqX83Vy6,2020-0188,2020-05-21,13:26:55,13:43:24,NA,incomplete,0,number,1,left,Blue_Plus_Grid_1.jpg,Green_Star_Dots_1.jpg,Blue_Triangle_Chess_4.jpg,right,1655,false,NA,NA,NA,NA,NA,NA,NA,NA,true
AqX83Vy6,32xn26mty2w7ui75x62r6ind7a7l00,3p4rdnwnd9jet7yfpdkmlr68bb6ijg,AqX83Vy6,2020-0188,2020-05-21,13:26:55,13:43:24,NA,incomplete,1,number,1,left,Red_Plus_Dots_2.jpg,Blue_Star_Chess_2.jpg,Red_Circle_Stripes_3.jpg,left,1160,true,NA,NA,NA,NA,NA,NA,NA,NA,true
AqX83Vy6,32xn26mty2w7ui75x62r6ind7a7l00,3p4rdnwnd9jet7yfpdkmlr68bb6ijg,AqX83Vy6,2020-0188,2020-05-21,13:26:55,13:43:24,NA,incomplete,2,number,0,left,Purple_Plus_Grid_4.jpg,Blue_Circle_Stripes_4.jpg,Purple_Star_Chess_2.jpg,left,1493,true,NA,NA,NA,NA,NA,NA,NA,NA,true
AqX83Vy6,32xn26mty2w7ui75x62r6ind7a7l00,3p4rdnwnd9jet7yfpdkmlr68bb6ijg,AqX83Vy6,2020-0188,2020-05-21,13:26:55,13:43:24,NA,incomplete,3,number,1,right,Red_Circle_Grid_1.jpg,Red_Plus_Chess_4.jpg,Blue_Star_Stripes_1.jpg,right,943,true,NA,NA,NA,NA,NA,NA,NA,NA,true
AqX83Vy6,32xn26mty2w7ui75x62r6ind7a7l00,3p4rdnwnd9jet7yfpdkmlr68bb6ijg,AqX83Vy6,2020-0188,2020-05-21,13:26:55,13:43:24,NA,incomplete,4,number,0,left,Green_Star_Grid_3.jpg,Blue_Circle_Stripes_3.jpg,Green_Plus_Dots_4.jpg,left,860,true,NA,NA,NA,NA,NA,NA,NA,NA,true
AqX83Vy6,32xn26mty2w7ui75x62r6ind7a7l00,3p4rdnwnd9jet7yfpdkmlr68bb6ijg,AqX83Vy6,2020-0188,2020-05-21,13:26:55,13:43:24,NA,incomplete,5,number,1,left,Red_Plus_Stripes_4.jpg,Blue_Triangle_Dots_4.jpg,Red_Circle_Grid_1.jpg,left,1405,true,NA,NA,NA,NA,NA,NA,NA,NA,true
AqX83Vy6,32xn26mty2w7ui75x62r6ind7a7l00,3p4rdnwnd9jet7yfpdkmlr68bb6ijg,AqX83Vy6,2020-0188,2020-05-21,13:26:55,13:43:24,NA,incomplete,6,number,1,right,Green_Plus_Chess_3.jpg,Green_Circle_Grid_1.jpg,Blue_Star_Stripes_3.jpg,right,1122,true,NA,NA,NA,NA,NA,NA,NA,NA,true
AqX83Vy6,32xn26mty2w7ui75x62r6ind7a7l00,3p4rdnwnd9jet7yfpdkmlr68bb6ijg,AqX83Vy6,2020-0188,2020-05-21,13:26:55,13:43:24,NA,incomplete,7,number,0,left,Red_Star_Stripes_2.jpg,Blue_Triangle_Grid_2.jpg,Red_Plus_Chess_3.jpg,left,1130,true,NA,NA,NA,NA,NA,NA,NA,NA,true
AqX83Vy6,32xn26mty2w7ui75x62r6ind7a7l00,3p4rdnwnd9jet7yfpdkmlr68bb6ijg,AqX83Vy6,2020-0188,2020-05-21,13:26:55,13:43:24,NA,incomplete,8,number,1,left,Blue_Plus_Stripes_3.jpg,Green_Triangle_Chess_3.jpg,Blue_Circle_Grid_4.jpg,left,1209,true,NA,NA,NA,NA,NA,NA,NA,NA,true
AqX83Vy6,32xn26mty2w7ui75x62r6ind7a7l00,3p4rdnwnd9jet7yfpdkmlr68bb6ijg,AqX83Vy6,2020-0188,2020-05-21,13:26:55,13:43:24,NA,incomplete,9,number,1,right,Green_Plus_Grid_3.jpg,Green_Circle_Chess_1.jpg,Red_Star_Dots_3.jpg,right,860,true,NA,NA,NA,NA,NA,NA,NA,NA,true
AqX83Vy6,32xn26mty2w7ui75x62r6ind7a7l00,3p4rdnwnd9jet7yfpdkmlr68bb6ijg,AqX83Vy6,2020-0188,2020-05-21,13:26:55,13:43:24,NA,incomplete,10,number,1,left,Red_Triangle_Dots_2.jpg,Green_Plus_Chess_2.jpg,Red_Star_Grid_4.jpg,left,1046,true,NA,NA,NA,NA,NA,NA,NA,NA,true
AqX83Vy6,32xn26mty2w7ui75x62r6ind7a7l00,3p4rdnwnd9jet7yfpdkmlr68bb6ijg,AqX83Vy6,2020-0188,2020-05-21,13:26:55,13:43:24,NA,incomplete,11,number,0,left,Red_Star_Dots_2.jpg,Blue_Triangle_Chess_2.jpg,Red_Circle_Grid_3.jpg,left,817,true,NA,NA,NA,NA,NA,NA,NA,NA,true
AqX83Vy6,32xn26mty2w7ui75x62r6ind7a7l00,3p4rdnwnd9jet7yfpdkmlr68bb6ijg,AqX83Vy6,2020-0188,2020-05-21,13:26:55,13:43:24,NA,incomplete,12,number,1,right,Purple_Star_Stripes_3.jpg,Purple_Triangle_Dots_2.jpg,Green_Plus_Grid_3.jpg,left,756,false,NA,NA,NA,NA,NA,NA,NA,NA,true
AqX83Vy6,32xn26mty2w7ui75x62r6ind7a7l00,3p4rdnwnd9jet7yfpdkmlr68bb6ijg,AqX83Vy6,2020-0188,2020-05-21,13:26:55,13:43:24,NA,incomplete,13,number,1,left,Purple_Circle_Stripes_2.jpg,Green_Star_Chess_2.jpg,Purple_Triangle_Dots_4.jpg,left,834,true,NA,NA,NA,NA,NA,NA,NA,NA,true
AqX83Vy6,32xn26mty2w7ui75x62r6ind7a7l00,3p4rdnwnd9jet7yfpdkmlr68bb6ijg,AqX83Vy6,2020-0188,2020-05-21,13:26:55,13:43:24,NA,incomplete,14,number,1,right,Blue_Star_Dots_2.jpg,Blue_Triangle_Stripes_4.jpg,Red_Plus_Grid_2.jpg,right,732,true,NA,NA,NA,NA,NA,NA,NA,NA,true
AqX83Vy6,32xn26mty2w7ui75x62r6ind7a7l00,3p4rdnwnd9jet7yfpdkmlr68bb6ijg,AqX83Vy6,2020-0188,2020-05-21,13:26:55,13:43:24,NA,incomplete,15,number,1,left,Purple_Triangle_Dots_3.jpg,Red_Circle_Chess_3.jpg,Purple_Star_Stripes_1.jpg,left,1228,true,NA,NA,NA,NA,NA,NA,NA,NA,true
AqX83Vy6,32xn26mty2w7ui75x62r6ind7a7l00,3p4rdnwnd9jet7yfpdkmlr68bb6ijg,AqX83Vy6,2020-0188,2020-05-21,13:26:55,13:43:24,NA,incomplete,16,number,0,right,Red_Triangle_Grid_2.jpg,Red_Plus_Dots_3.jpg,Green_Circle_Stripes_2.jpg,right,727,true,NA,NA,NA,NA,NA,NA,NA,NA,true
AqX83Vy6,32xn26mty2w7ui75x62r6ind7a7l00,3p4rdnwnd9jet7yfpdkmlr68bb6ijg,AqX83Vy6,2020-0188,2020-05-21,13:26:55,13:43:24,NA,incomplete,17,number,1,left,Green_Triangle_Chess_4.jpg,Red_Star_Stripes_4.jpg,Green_Circle_Grid_3.jpg,left,934,true,NA,NA,NA,NA,NA,NA,NA,NA,true
AqX83Vy6,32xn26mty2w7ui75x62r6ind7a7l00,3p4rdnwnd9jet7yfpdkmlr68bb6ijg,AqX83Vy6,2020-0188,2020-05-21,13:26:55,13:43:24,NA,incomplete,18,number,0,right,Red_Circle_Grid_1.jpg,Red_Plus_Chess_2.jpg,Purple_Triangle_Dots_1.jpg,right,764,true,NA,NA,NA,NA,NA,NA,NA,NA,true
AqX83Vy6,32xn26mty2w7ui75x62r6ind7a7l00,3p4rdnwnd9jet7yfpdkmlr68bb6ijg,AqX83Vy6,2020-0188,2020-05-21,13:26:55,13:43:24,NA,incomplete,19,number,1,right,Red_Star_Dots_1.jpg,Red_Triangle_Stripes_2.jpg,Blue_Circle_Chess_1.jpg,right,658,true,NA,NA,NA,NA,NA,NA,NA,NA,true
AqX83Vy6,32xn26mty2w7ui75x62r6ind7a7l00,3p4rdnwnd9jet7yfpdkmlr68bb6ijg,AqX83Vy6,2020-0188,2020-05-21,13:26:55,13:43:24,NA,incomplete,20,color,1,left,Blue_Circle_Chess_3.jpg,Blue_Plus_Grid_2.jpg,Purple_Star_Dots_3.jpg,right,996,false,NA,NA,NA,NA,NA,NA,NA,NA,true
AqX83Vy6,32xn26mty2w7ui75x62r6ind7a7l00,3p4rdnwnd9jet7yfpdkmlr68bb6ijg,AqX83Vy6,2020-0188,2020-05-21,13:26:55,13:43:24,NA,incomplete,21,color,1,right,Purple_Star_Stripes_1.jpg,Green_Circle_Chess_1.jpg,Purple_Triangle_Grid_2.jpg,left,785,false,NA,NA,NA,NA,NA,NA,NA,NA,true
AqX83Vy6,32xn26mty2w7ui75x62r6ind7a7l00,3p4rdnwnd9jet7yfpdkmlr68bb6ijg,AqX83Vy6,2020-0188,2020-05-21,13:26:55,13:43:24,NA,incomplete,22,color,1,right,Blue_Triangle_Grid_3.jpg,Purple_Circle_Dots_3.jpg,Blue_Star_Stripes_4.jpg,right,1453,true,NA,NA,NA,NA,NA,NA,NA,NA,true
AqX83Vy6,32xn26mty2w7ui75x62r6ind7a7l00,3p4rdnwnd9jet7yfpdkmlr68bb6ijg,AqX83Vy6,2020-0188,2020-05-21,13:26:55,13:43:24,NA,incomplete,23,color,1,left,Blue_Plus_Chess_3.jpg,Blue_Star_Stripes_4.jpg,Green_Triangle_Dots_3.jpg,left,862,true,NA,NA,NA,NA,NA,NA,NA,NA,true
AqX83Vy6,32xn26mty2w7ui75x62r6ind7a7l00,3p4rdnwnd9jet7yfpdkmlr68bb6ijg,AqX83Vy6,2020-0188,2020-05-21,13:26:55,13:43:24,NA,incomplete,24,color,0,left,Green_Plus_Stripes_4.jpg,Green_Star_Chess_2.jpg,Purple_Triangle_Dots_4.jpg,left,769,true,NA,NA,NA,NA,NA,NA,NA,NA,true
AqX83Vy6,32xn26mty2w7ui75x62r6ind7a7l00,3p4rdnwnd9jet7yfpdkmlr68bb6ijg,AqX83Vy6,2020-0188,2020-05-21,13:26:55,13:43:24,NA,incomplete,25,color,1,right,Green_Plus_Dots_3.jpg,Purple_Circle_Stripes_3.jpg,Green_Star_Grid_1.jpg,right,901,true,NA,NA,NA,NA,NA,NA,NA,NA,true
AqX83Vy6,32xn26mty2w7ui75x62r6ind7a7l00,3p4rdnwnd9jet7yfpdkmlr68bb6ijg,AqX83Vy6,2020-0188,2020-05-21,13:26:55,13:43:24,NA,incomplete,26,color,1,left,Purple_Circle_Chess_3.jpg,Purple_Star_Grid_4.jpg,Red_Triangle_Stripes_3.jpg,left,1429,true,NA,NA,NA,NA,NA,NA,NA,NA,true
AqX83Vy6,32xn26mty2w7ui75x62r6ind7a7l00,3p4rdnwnd9jet7yfpdkmlr68bb6ijg,AqX83Vy6,2020-0188,2020-05-21,13:26:55,13:43:24,NA,incomplete,27,color,1,right,Purple_Star_Stripes_3.jpg,Red_Plus_Chess_3.jpg,Purple_Circle_Grid_2.jpg,right,680,true,NA,NA,NA,NA,NA,NA,NA,NA,true
AqX83Vy6,32xn26mty2w7ui75x62r6ind7a7l00,3p4rdnwnd9jet7yfpdkmlr68bb6ijg,AqX83Vy6,2020-0188,2020-05-21,13:26:55,13:43:24,NA,incomplete,28,color,1,left,Blue_Star_Chess_3.jpg,Blue_Plus_Dots_2.jpg,Green_Circle_Stripes_3.jpg,left,809,true,NA,NA,NA,NA,NA,NA,NA,NA,true
AqX83Vy6,32xn26mty2w7ui75x62r6ind7a7l00,3p4rdnwnd9jet7yfpdkmlr68bb6ijg,AqX83Vy6,2020-0188,2020-05-21,13:26:55,13:43:24,NA,incomplete,29,color,1,left,Green_Plus_Chess_1.jpg,Green_Circle_Dots_4.jpg,Purple_Triangle_Stripes_1.jpg,left,805,true,NA,NA,NA,NA,NA,NA,NA,NA,true
AqX83Vy6,32xn26mty2w7ui75x62r6ind7a7l00,3p4rdnwnd9jet7yfpdkmlr68bb6ijg,AqX83Vy6,2020-0188,2020-05-21,13:26:55,13:43:24,NA,incomplete,30,color,1,left,Purple_Plus_Grid_3.jpg,Purple_Triangle_Chess_1.jpg,Blue_Star_Stripes_3.jpg,left,912,true,NA,NA,NA,NA,NA,NA,NA,NA,true
AqX83Vy6,32xn26mty2w7ui75x62r6ind7a7l00,3p4rdnwnd9jet7yfpdkmlr68bb6ijg,AqX83Vy6,2020-0188,2020-05-21,13:26:55,13:43:24,NA,incomplete,31,color,1,left,Green_Triangle_Stripes_2.jpg,Green_Plus_Dots_3.jpg,Red_Circle_Grid_2.jpg,left,810,true,NA,NA,NA,NA,NA,NA,NA,NA,true
AqX83Vy6,32xn26mty2w7ui75x62r6ind7a7l00,3p4rdnwnd9jet7yfpdkmlr68bb6ijg,AqX83Vy6,2020-0188,2020-05-21,13:26:55,13:43:24,NA,incomplete,32,color,1,right,Purple_Plus_Chess_3.jpg,Red_Circle_Stripes_3.jpg,Purple_Star_Dots_4.jpg,right,765,true,NA,NA,NA,NA,NA,NA,NA,NA,true
AqX83Vy6,32xn26mty2w7ui75x62r6ind7a7l00,3p4rdnwnd9jet7yfpdkmlr68bb6ijg,AqX83Vy6,2020-0188,2020-05-21,13:26:55,13:43:24,NA,incomplete,33,color,1,right,Purple_Circle_Stripes_4.jpg,Green_Plus_Dots_4.jpg,Purple_Star_Grid_2.jpg,right,779,true,NA,NA,NA,NA,NA,NA,NA,NA,true
AqX83Vy6,32xn26mty2w7ui75x62r6ind7a7l00,3p4rdnwnd9jet7yfpdkmlr68bb6ijg,AqX83Vy6,2020-0188,2020-05-21,13:26:55,13:43:24,NA,incomplete,34,color,1,right,Red_Star_Stripes_1.jpg,Green_Triangle_Chess_1.jpg,Red_Circle_Dots_2.jpg,right,592,true,NA,NA,NA,NA,NA,NA,NA,NA,true
AqX83Vy6,32xn26mty2w7ui75x62r6ind7a7l00,3p4rdnwnd9jet7yfpdkmlr68bb6ijg,AqX83Vy6,2020-0188,2020-05-21,13:26:55,13:43:24,NA,incomplete,35,color,1,right,Purple_Triangle_Stripes_4.jpg,Red_Star_Grid_4.jpg,Purple_Plus_Chess_2.jpg,right,637,true,NA,NA,NA,NA,NA,NA,NA,NA,true
AqX83Vy6,32xn26mty2w7ui75x62r6ind7a7l00,3p4rdnwnd9jet7yfpdkmlr68bb6ijg,AqX83Vy6,2020-0188,2020-05-21,13:26:55,13:43:24,NA,incomplete,36,color,1,right,Red_Circle_Stripes_3.jpg,Blue_Star_Dots_3.jpg,Red_Triangle_Grid_2.jpg,right,647,true,NA,NA,NA,NA,NA,NA,NA,NA,true
AqX83Vy6,32xn26mty2w7ui75x62r6ind7a7l00,3p4rdnwnd9jet7yfpdkmlr68bb6ijg,AqX83Vy6,2020-0188,2020-05-21,13:26:55,13:43:24,NA,incomplete,37,color,0,right,Purple_Triangle_Dots_4.jpg,Blue_Star_Stripes_4.jpg,Purple_Plus_Chess_1.jpg,right,673,true,NA,NA,NA,NA,NA,NA,NA,NA,true
AqX83Vy6,32xn26mty2w7ui75x62r6ind7a7l00,3p4rdnwnd9jet7yfpdkmlr68bb6ijg,AqX83Vy6,2020-0188,2020-05-21,13:26:55,13:43:24,NA,incomplete,38,color,1,left,Red_Plus_Dots_1.jpg,Red_Circle_Grid_2.jpg,Green_Star_Chess_1.jpg,left,730,true,NA,NA,NA,NA,NA,NA,NA,NA,true
AqX83Vy6,32xn26mty2w7ui75x62r6ind7a7l00,3p4rdnwnd9jet7yfpdkmlr68bb6ijg,AqX83Vy6,2020-0188,2020-05-21,13:26:55,13:43:24,NA,incomplete,39,color,1,left,Red_Circle_Stripes_1.jpg,Red_Triangle_Chess_2.jpg,Blue_Star_Dots_1.jpg,left,594,true,NA,NA,NA,NA,NA,NA,NA,NA,true
AqX83Vy6,32xn26mty2w7ui75x62r6ind7a7l00,3p4rdnwnd9jet7yfpdkmlr68bb6ijg,AqX83Vy6,2020-0188,2020-05-21,13:26:55,13:43:24,NA,incomplete,0,number,1,left,Green_Star_Stripes_2.jpg,Blue_Circle_Chess_2.jpg,Green_Plus_Grid_3.jpg,right,1195,false,low,NA,NA,NA,NA,NA,NA,NA,false
AqX83Vy6,32xn26mty2w7ui75x62r6ind7a7l00,3p4rdnwnd9jet7yfpdkmlr68bb6ijg,AqX83Vy6,2020-0188,2020-05-21,13:26:55,13:43:24,NA,incomplete,1,number,0,right,Purple_Star_Chess_2.jpg,Purple_Triangle_Grid_1.jpg,Red_Plus_Stripes_2.jpg,right,1295,true,low,NA,NA,NA,NA,NA,NA,NA,false
AqX83Vy6,32xn26mty2w7ui75x62r6ind7a7l00,3p4rdnwnd9jet7yfpdkmlr68bb6ijg,AqX83Vy6,2020-0188,2020-05-21,13:26:55,13:43:24,NA,incomplete,2,number,1,left,Red_Plus_Chess_1.jpg,Blue_Triangle_Grid_1.jpg,Red_Circle_Dots_3.jpg,right,728,false,low,NA,NA,NA,NA,NA,NA,NA,false
AqX83Vy6,32xn26mty2w7ui75x62r6ind7a7l00,3p4rdnwnd9jet7yfpdkmlr68bb6ijg,AqX83Vy6,2020-0188,2020-05-21,13:26:55,13:43:24,NA,incomplete,3,number,1,right,Blue_Circle_Chess_2.jpg,Blue_Plus_Grid_3.jpg,Purple_Triangle_Dots_2.jpg,left,928,false,low,NA,NA,NA,NA,NA,NA,NA,false
AqX83Vy6,32xn26mty2w7ui75x62r6ind7a7l00,3p4rdnwnd9jet7yfpdkmlr68bb6ijg,AqX83Vy6,2020-0188,2020-05-21,13:26:55,13:43:24,NA,incomplete,4,number,1,left,Blue_Plus_Grid_1.jpg,Red_Star_Chess_1.jpg,Blue_Circle_Stripes_2.jpg,right,638,false,low,NA,NA,NA,NA,NA,NA,NA,false
AqX83Vy6,32xn26mty2w7ui75x62r6ind7a7l00,3p4rdnwnd9jet7yfpdkmlr68bb6ijg,AqX83Vy6,2020-0188,2020-05-21,13:26:55,13:43:24,NA,incomplete,5,number,1,left,Green_Circle_Stripes_2.jpg,Red_Star_Grid_2.jpg,Green_Plus_Dots_3.jpg,none,0,false,low,NA,NA,NA,NA,NA,NA,NA,false
AqX83Vy6,32xn26mty2w7ui75x62r6ind7a7l00,3p4rdnwnd9jet7yfpdkmlr68bb6ijg,AqX83Vy6,2020-0188,2020-05-21,13:26:55,13:43:24,NA,incomplete,6,number,1,left,Green_Triangle_Grid_4.jpg,Purple_Plus_Chess_4.jpg,Green_Circle_Stripes_1.jpg,right,923,false,low,NA,NA,NA,NA,NA,NA,NA,false
AqX83Vy6,32xn26mty2w7ui75x62r6ind7a7l00,3p4rdnwnd9jet7yfpdkmlr68bb6ijg,AqX83Vy6,2020-0188,2020-05-21,13:26:55,13:43:24,NA,incomplete,7,number,1,right,Red_Circle_Grid_1.jpg,Red_Plus_Stripes_4.jpg,Green_Triangle_Chess_1.jpg,right,986,true,low,NA,NA,NA,NA,NA,NA,NA,false
AqX83Vy6,32xn26mty2w7ui75x62r6ind7a7l00,3p4rdnwnd9jet7yfpdkmlr68bb6ijg,AqX83Vy6,2020-0188,2020-05-21,13:26:55,13:43:24,NA,incomplete,8,number,1,right,Green_Star_Stripes_4.jpg,Green_Triangle_Grid_2.jpg,Purple_Circle_Chess_4.jpg,right,1199,true,low,NA,NA,NA,NA,NA,NA,NA,false
AqX83Vy6,32xn26mty2w7ui75x62r6ind7a7l00,3p4rdnwnd9jet7yfpdkmlr68bb6ijg,AqX83Vy6,2020-0188,2020-05-21,13:26:55,13:43:24,NA,incomplete,9,number,0,right,Blue_Star_Dots_2.jpg,Blue_Circle_Grid_3.jpg,Green_Triangle_Chess_2.jpg,right,945,true,low,NA,NA,NA,NA,NA,NA,NA,false
AqX83Vy6,32xn26mty2w7ui75x62r6ind7a7l00,3p4rdnwnd9jet7yfpdkmlr68bb6ijg,AqX83Vy6,2020-0188,2020-05-21,13:26:55,13:43:24,NA,incomplete,10,number,1,left,Red_Triangle_Stripes_3.jpg,Purple_Star_Chess_3.jpg,Red_Circle_Grid_4.jpg,left,912,true,low,NA,NA,NA,NA,NA,NA,NA,false
AqX83Vy6,32xn26mty2w7ui75x62r6ind7a7l00,3p4rdnwnd9jet7yfpdkmlr68bb6ijg,AqX83Vy6,2020-0188,2020-05-21,13:26:55,13:43:24,NA,incomplete,11,number,1,left,Purple_Star_Stripes_2.jpg,Red_Triangle_Grid_2.jpg,Purple_Plus_Dots_3.jpg,right,977,false,low,NA,NA,NA,NA,NA,NA,NA,false
AqX83Vy6,32xn26mty2w7ui75x62r6ind7a7l00,3p4rdnwnd9jet7yfpdkmlr68bb6ijg,AqX83Vy6,2020-0188,2020-05-21,13:26:55,13:43:24,NA,incomplete,12,number,1,right,Blue_Circle_Stripes_4.jpg,Blue_Star_Chess_2.jpg,Green_Triangle_Dots_4.jpg,left,1407,false,low,NA,NA,NA,NA,NA,NA,NA,false
AqX83Vy6,32xn26mty2w7ui75x62r6ind7a7l00,3p4rdnwnd9jet7yfpdkmlr68bb6ijg,AqX83Vy6,2020-0188,2020-05-21,13:26:55,13:43:24,NA,incomplete,13,number,1,left,Blue_Plus_Grid_1.jpg,Purple_Circle_Stripes_1.jpg,Blue_Star_Dots_3.jpg,left,905,true,low,NA,NA,NA,NA,NA,NA,NA,false
AqX83Vy6,32xn26mty2w7ui75x62r6ind7a7l00,3p4rdnwnd9jet7yfpdkmlr68bb6ijg,AqX83Vy6,2020-0188,2020-05-21,13:26:55,13:43:24,NA,incomplete,14,number,1,left,Purple_Plus_Stripes_2.jpg,Blue_Circle_Chess_2.jpg,Purple_Star_Dots_3.jpg,left,785,true,low,NA,NA,NA,NA,NA,NA,NA,false
AqX83Vy6,32xn26mty2w7ui75x62r6ind7a7l00,3p4rdnwnd9jet7yfpdkmlr68bb6ijg,AqX83Vy6,2020-0188,2020-05-21,13:26:55,13:43:24,NA,incomplete,15,number,1,left,Blue_Star_Grid_1.jpg,Purple_Plus_Dots_1.jpg,Blue_Circle_Chess_4.jpg,left,765,true,low,NA,NA,NA,NA,NA,NA,NA,false
AqX83Vy6,32xn26mty2w7ui75x62r6ind7a7l00,3p4rdnwnd9jet7yfpdkmlr68bb6ijg,AqX83Vy6,2020-0188,2020-05-21,13:26:55,13:43:24,NA,incomplete,16,number,1,left,Green_Star_Chess_2.jpg,Blue_Circle_Stripes_2.jpg,Green_Plus_Dots_4.jpg,left,1092,true,low,NA,NA,NA,NA,NA,NA,NA,false
AqX83Vy6,32xn26mty2w7ui75x62r6ind7a7l00,3p4rdnwnd9jet7yfpdkmlr68bb6ijg,AqX83Vy6,2020-0188,2020-05-21,13:26:55,13:43:24,NA,incomplete,17,number,1,right,Purple_Circle_Chess_1.jpg,Purple_Star_Dots_3.jpg,Red_Plus_Stripes_1.jpg,left,1275,false,low,NA,NA,NA,NA,NA,NA,NA,false
AqX83Vy6,32xn26mty2w7ui75x62r6ind7a7l00,3p4rdnwnd9jet7yfpdkmlr68bb6ijg,AqX83Vy6,2020-0188,2020-05-21,13:26:55,13:43:24,NA,incomplete,18,number,1,left,Purple_Circle_Dots_3.jpg,Blue_Plus_Chess_3.jpg,Purple_Star_Stripes_4.jpg,left,1078,true,low,NA,NA,NA,NA,NA,NA,NA,false
AqX83Vy6,32xn26mty2w7ui75x62r6ind7a7l00,3p4rdnwnd9jet7yfpdkmlr68bb6ijg,AqX83Vy6,2020-0188,2020-05-21,13:26:55,13:43:24,NA,incomplete,19,number,1,left,Red_Star_Dots_4.jpg,Blue_Plus_Stripes_4.jpg,Red_Triangle_Grid_1.jpg,left,1015,true,low,NA,NA,NA,NA,NA,NA,NA,false
AqX83Vy6,32xn26mty2w7ui75x62r6ind7a7l00,3p4rdnwnd9jet7yfpdkmlr68bb6ijg,AqX83Vy6,2020-0188,2020-05-21,13:26:55,13:43:24,NA,incomplete,20,number,1,right,Purple_Star_Chess_1.jpg,Purple_Triangle_Grid_4.jpg,Green_Circle_Stripes_1.jpg,right,962,true,low,NA,NA,NA,NA,NA,NA,NA,false
AqX83Vy6,32xn26mty2w7ui75x62r6ind7a7l00,3p4rdnwnd9jet7yfpdkmlr68bb6ijg,AqX83Vy6,2020-0188,2020-05-21,13:26:55,13:43:24,NA,incomplete,21,number,1,left,Blue_Circle_Dots_3.jpg,Purple_Triangle_Stripes_3.jpg,Blue_Plus_Chess_4.jpg,left,983,true,low,NA,NA,NA,NA,NA,NA,NA,false
AqX83Vy6,32xn26mty2w7ui75x62r6ind7a7l00,3p4rdnwnd9jet7yfpdkmlr68bb6ijg,AqX83Vy6,2020-0188,2020-05-21,13:26:55,13:43:24,NA,incomplete,22,number,1,left,Blue_Star_Grid_3.jpg,Red_Circle_Dots_3.jpg,Blue_Triangle_Chess_4.jpg,left,876,true,low,NA,NA,NA,NA,NA,NA,NA,false
AqX83Vy6,32xn26mty2w7ui75x62r6ind7a7l00,3p4rdnwnd9jet7yfpdkmlr68bb6ijg,AqX83Vy6,2020-0188,2020-05-21,13:26:55,13:43:24,NA,incomplete,23,number,0,right,Red_Star_Chess_2.jpg,Red_Triangle_Dots_1.jpg,Green_Plus_Grid_2.jpg,right,998,true,low,NA,NA,NA,NA,NA,NA,NA,false
AqX83Vy6,32xn26mty2w7ui75x62r6ind7a7l00,3p4rdnwnd9jet7yfpdkmlr68bb6ijg,AqX83Vy6,2020-0188,2020-05-21,13:26:55,13:43:24,NA,incomplete,24,number,0,left,Purple_Triangle_Stripes_4.jpg,Blue_Circle_Chess_4.jpg,Purple_Plus_Dots_1.jpg,left,842,true,low,NA,NA,NA,NA,NA,NA,NA,false
AqX83Vy6,32xn26mty2w7ui75x62r6ind7a7l00,3p4rdnwnd9jet7yfpdkmlr68bb6ijg,AqX83Vy6,2020-0188,2020-05-21,13:26:55,13:43:24,NA,incomplete,25,number,1,right,Purple_Star_Chess_1.jpg,Purple_Plus_Dots_3.jpg,Green_Circle_Stripes_1.jpg,right,772,true,low,NA,NA,NA,NA,NA,NA,NA,false
AqX83Vy6,32xn26mty2w7ui75x62r6ind7a7l00,3p4rdnwnd9jet7yfpdkmlr68bb6ijg,AqX83Vy6,2020-0188,2020-05-21,13:26:55,13:43:24,NA,incomplete,26,number,1,right,Red_Star_Stripes_4.jpg,Red_Plus_Grid_3.jpg,Green_Triangle_Chess_4.jpg,right,946,true,low,NA,NA,NA,NA,NA,NA,NA,false
AqX83Vy6,32xn26mty2w7ui75x62r6ind7a7l00,3p4rdnwnd9jet7yfpdkmlr68bb6ijg,AqX83Vy6,2020-0188,2020-05-21,13:26:55,13:43:24,NA,incomplete,27,number,1,left,Red_Star_Dots_2.jpg,Purple_Plus_Chess_2.jpg,Red_Circle_Stripes_3.jpg,right,880,false,low,NA,NA,NA,NA,NA,NA,NA,false
AqX83Vy6,32xn26mty2w7ui75x62r6ind7a7l00,3p4rdnwnd9jet7yfpdkmlr68bb6ijg,AqX83Vy6,2020-0188,2020-05-21,13:26:55,13:43:24,NA,incomplete,28,number,1,right,Red_Plus_Chess_2.jpg,Red_Triangle_Stripes_4.jpg,Blue_Circle_Dots_2.jpg,right,962,true,low,NA,NA,NA,NA,NA,NA,NA,false
AqX83Vy6,32xn26mty2w7ui75x62r6ind7a7l00,3p4rdnwnd9jet7yfpdkmlr68bb6ijg,AqX83Vy6,2020-0188,2020-05-21,13:26:55,13:43:24,NA,incomplete,29,number,1,left,Green_Triangle_Stripes_2.jpg,Blue_Circle_Dots_2.jpg,Green_Star_Chess_1.jpg,left,774,true,low,NA,NA,NA,NA,NA,NA,NA,false
AqX83Vy6,32xn26mty2w7ui75x62r6ind7a7l00,3p4rdnwnd9jet7yfpdkmlr68bb6ijg,AqX83Vy6,2020-0188,2020-05-21,13:26:55,13:43:24,NA,incomplete,30,color,1,left,Green_Triangle_Dots_1.jpg,Green_Circle_Chess_2.jpg,Blue_Plus_Grid_1.jpg,left,820,true,low,NA,NA,NA,NA,NA,NA,NA,false
AqX83Vy6,32xn26mty2w7ui75x62r6ind7a7l00,3p4rdnwnd9jet7yfpdkmlr68bb6ijg,AqX83Vy6,2020-0188,2020-05-21,13:26:55,13:43:24,NA,incomplete,31,color,1,right,Red_Circle_Stripes_4.jpg,Purple_Triangle_Dots_4.jpg,Red_Plus_Grid_2.jpg,left,1280,false,low,NA,NA,NA,NA,NA,NA,NA,false
AqX83Vy6,32xn26mty2w7ui75x62r6ind7a7l00,3p4rdnwnd9jet7yfpdkmlr68bb6ijg,AqX83Vy6,2020-0188,2020-05-21,13:26:55,13:43:24,NA,incomplete,32,color,0,left,Blue_Star_Dots_4.jpg,Blue_Plus_Chess_2.jpg,Green_Triangle_Stripes_4.jpg,left,1049,true,low,NA,NA,NA,NA,NA,NA,NA,false
AqX83Vy6,32xn26mty2w7ui75x62r6ind7a7l00,3p4rdnwnd9jet7yfpdkmlr68bb6ijg,AqX83Vy6,2020-0188,2020-05-21,13:26:55,13:43:24,NA,incomplete,33,color,1,right,Purple_Triangle_Dots_2.jpg,Red_Plus_Grid_2.jpg,Purple_Star_Stripes_1.jpg,left,692,false,low,NA,NA,NA,NA,NA,NA,NA,false
AqX83Vy6,32xn26mty2w7ui75x62r6ind7a7l00,3p4rdnwnd9jet7yfpdkmlr68bb6ijg,AqX83Vy6,2020-0188,2020-05-21,13:26:55,13:43:24,NA,incomplete,34,color,0,left,Purple_Circle_Stripes_1.jpg,Purple_Triangle_Grid_3.jpg,Blue_Plus_Chess_1.jpg,left,844,true,low,NA,NA,NA,NA,NA,NA,NA,false
AqX83Vy6,32xn26mty2w7ui75x62r6ind7a7l00,3p4rdnwnd9jet7yfpdkmlr68bb6ijg,AqX83Vy6,2020-0188,2020-05-21,13:26:55,13:43:24,NA,incomplete,35,color,1,left,Green_Triangle_Stripes_4.jpg,Green_Star_Chess_1.jpg,Red_Plus_Grid_4.jpg,right,1461,false,low,NA,NA,NA,NA,NA,NA,NA,false
AqX83Vy6,32xn26mty2w7ui75x62r6ind7a7l00,3p4rdnwnd9jet7yfpdkmlr68bb6ijg,AqX83Vy6,2020-0188,2020-05-21,13:26:55,13:43:24,NA,incomplete,36,color,1,left,Purple_Star_Dots_1.jpg,Purple_Triangle_Stripes_2.jpg,Blue_Plus_Grid_1.jpg,right,936,false,low,NA,NA,NA,NA,NA,NA,NA,false
AqX83Vy6,32xn26mty2w7ui75x62r6ind7a7l00,3p4rdnwnd9jet7yfpdkmlr68bb6ijg,AqX83Vy6,2020-0188,2020-05-21,13:26:55,13:43:24,NA,incomplete,37,color,1,right,Purple_Circle_Grid_1.jpg,Blue_Star_Stripes_1.jpg,Purple_Plus_Dots_2.jpg,right,1239,true,low,NA,NA,NA,NA,NA,NA,NA,false
AqX83Vy6,32xn26mty2w7ui75x62r6ind7a7l00,3p4rdnwnd9jet7yfpdkmlr68bb6ijg,AqX83Vy6,2020-0188,2020-05-21,13:26:55,13:43:24,NA,incomplete,38,color,1,left,Blue_Triangle_Chess_4.jpg,Blue_Plus_Dots_2.jpg,Purple_Circle_Grid_4.jpg,left,680,true,low,NA,NA,NA,NA,NA,NA,NA,false
AqX83Vy6,32xn26mty2w7ui75x62r6ind7a7l00,3p4rdnwnd9jet7yfpdkmlr68bb6ijg,AqX83Vy6,2020-0188,2020-05-21,13:26:55,13:43:24,NA,incomplete,39,color,0,left,Green_Triangle_Grid_3.jpg,Green_Plus_Chess_1.jpg,Blue_Star_Dots_3.jpg,left,1193,true,low,NA,NA,NA,NA,NA,NA,NA,false
AqX83Vy6,32xn26mty2w7ui75x62r6ind7a7l00,3p4rdnwnd9jet7yfpdkmlr68bb6ijg,AqX83Vy6,2020-0188,2020-05-21,13:26:55,13:43:24,NA,incomplete,40,color,1,left,Green_Star_Grid_3.jpg,Green_Triangle_Stripes_1.jpg,Purple_Circle_Dots_3.jpg,right,759,false,low,NA,NA,NA,NA,NA,NA,NA,false
AqX83Vy6,32xn26mty2w7ui75x62r6ind7a7l00,3p4rdnwnd9jet7yfpdkmlr68bb6ijg,AqX83Vy6,2020-0188,2020-05-21,13:26:55,13:43:24,NA,incomplete,41,color,1,right,Purple_Circle_Stripes_4.jpg,Blue_Star_Dots_4.jpg,Purple_Triangle_Grid_1.jpg,left,852,false,low,NA,NA,NA,NA,NA,NA,NA,false
AqX83Vy6,32xn26mty2w7ui75x62r6ind7a7l00,3p4rdnwnd9jet7yfpdkmlr68bb6ijg,AqX83Vy6,2020-0188,2020-05-21,13:26:55,13:43:24,NA,incomplete,42,color,1,left,Blue_Circle_Grid_4.jpg,Blue_Plus_Chess_3.jpg,Red_Triangle_Stripes_4.jpg,right,1070,false,low,NA,NA,NA,NA,NA,NA,NA,false
AqX83Vy6,32xn26mty2w7ui75x62r6ind7a7l00,3p4rdnwnd9jet7yfpdkmlr68bb6ijg,AqX83Vy6,2020-0188,2020-05-21,13:26:55,13:43:24,NA,incomplete,43,color,1,right,Green_Star_Chess_3.jpg,Blue_Triangle_Dots_3.jpg,Green_Circle_Grid_4.jpg,left,864,false,low,NA,NA,NA,NA,NA,NA,NA,false
AqX83Vy6,32xn26mty2w7ui75x62r6ind7a7l00,3p4rdnwnd9jet7yfpdkmlr68bb6ijg,AqX83Vy6,2020-0188,2020-05-21,13:26:55,13:43:24,NA,incomplete,44,color,1,left,Purple_Triangle_Grid_1.jpg,Purple_Star_Chess_4.jpg,Green_Circle_Dots_1.jpg,right,808,false,low,NA,NA,NA,NA,NA,NA,NA,false
AqX83Vy6,32xn26mty2w7ui75x62r6ind7a7l00,3p4rdnwnd9jet7yfpdkmlr68bb6ijg,AqX83Vy6,2020-0188,2020-05-21,13:26:55,13:43:24,NA,incomplete,45,color,1,right,Red_Circle_Grid_1.jpg,Purple_Triangle_Dots_1.jpg,Red_Plus_Chess_4.jpg,right,790,true,low,NA,NA,NA,NA,NA,NA,NA,false
AqX83Vy6,32xn26mty2w7ui75x62r6ind7a7l00,3p4rdnwnd9jet7yfpdkmlr68bb6ijg,AqX83Vy6,2020-0188,2020-05-21,13:26:55,13:43:24,NA,incomplete,46,color,1,left,Green_Star_Dots_1.jpg,Green_Plus_Chess_4.jpg,Red_Circle_Grid_1.jpg,left,593,true,low,NA,NA,NA,NA,NA,NA,NA,false
AqX83Vy6,32xn26mty2w7ui75x62r6ind7a7l00,3p4rdnwnd9jet7yfpdkmlr68bb6ijg,AqX83Vy6,2020-0188,2020-05-21,13:26:55,13:43:24,NA,incomplete,47,color,0,right,Green_Star_Stripes_4.jpg,Red_Triangle_Grid_4.jpg,Green_Plus_Chess_3.jpg,right,630,true,low,NA,NA,NA,NA,NA,NA,NA,false
AqX83Vy6,32xn26mty2w7ui75x62r6ind7a7l00,3p4rdnwnd9jet7yfpdkmlr68bb6ijg,AqX83Vy6,2020-0188,2020-05-21,13:26:55,13:43:24,NA,incomplete,48,color,1,left,Purple_Circle_Grid_1.jpg,Purple_Plus_Chess_2.jpg,Green_Star_Dots_1.jpg,left,601,true,low,NA,NA,NA,NA,NA,NA,NA,false
AqX83Vy6,32xn26mty2w7ui75x62r6ind7a7l00,3p4rdnwnd9jet7yfpdkmlr68bb6ijg,AqX83Vy6,2020-0188,2020-05-21,13:26:55,13:43:24,NA,incomplete,49,color,1,left,Blue_Plus_Stripes_2.jpg,Blue_Triangle_Grid_3.jpg,Purple_Star_Dots_2.jpg,left,677,true,low,NA,NA,NA,NA,NA,NA,NA,false
AqX83Vy6,32xn26mty2w7ui75x62r6ind7a7l00,3p4rdnwnd9jet7yfpdkmlr68bb6ijg,AqX83Vy6,2020-0188,2020-05-21,13:26:55,13:43:24,NA,incomplete,50,color,1,right,Blue_Triangle_Dots_2.jpg,Red_Plus_Stripes_2.jpg,Blue_Star_Grid_4.jpg,right,629,true,low,NA,NA,NA,NA,NA,NA,NA,false
AqX83Vy6,32xn26mty2w7ui75x62r6ind7a7l00,3p4rdnwnd9jet7yfpdkmlr68bb6ijg,AqX83Vy6,2020-0188,2020-05-21,13:26:55,13:43:24,NA,incomplete,51,color,1,left,Green_Triangle_Stripes_2.jpg,Green_Circle_Grid_4.jpg,Red_Star_Chess_2.jpg,left,482,true,low,NA,NA,NA,NA,NA,NA,NA,false
AqX83Vy6,32xn26mty2w7ui75x62r6ind7a7l00,3p4rdnwnd9jet7yfpdkmlr68bb6ijg,AqX83Vy6,2020-0188,2020-05-21,13:26:55,13:43:24,NA,incomplete,52,color,1,right,Blue_Triangle_Grid_4.jpg,Purple_Plus_Dots_4.jpg,Blue_Circle_Stripes_1.jpg,right,619,true,low,NA,NA,NA,NA,NA,NA,NA,false
AqX83Vy6,32xn26mty2w7ui75x62r6ind7a7l00,3p4rdnwnd9jet7yfpdkmlr68bb6ijg,AqX83Vy6,2020-0188,2020-05-21,13:26:55,13:43:24,NA,incomplete,53,color,1,right,Purple_Star_Stripes_2.jpg,Green_Circle_Chess_2.jpg,Purple_Triangle_Grid_1.jpg,right,749,true,low,NA,NA,NA,NA,NA,NA,NA,false
AqX83Vy6,32xn26mty2w7ui75x62r6ind7a7l00,3p4rdnwnd9jet7yfpdkmlr68bb6ijg,AqX83Vy6,2020-0188,2020-05-21,13:26:55,13:43:24,NA,incomplete,54,color,1,left,Green_Circle_Stripes_3.jpg,Green_Plus_Dots_4.jpg,Red_Star_Grid_3.jpg,left,572,true,low,NA,NA,NA,NA,NA,NA,NA,false
AqX83Vy6,32xn26mty2w7ui75x62r6ind7a7l00,3p4rdnwnd9jet7yfpdkmlr68bb6ijg,AqX83Vy6,2020-0188,2020-05-21,13:26:55,13:43:24,NA,incomplete,55,color,1,right,Red_Circle_Grid_4.jpg,Blue_Plus_Stripes_4.jpg,Red_Star_Chess_2.jpg,right,617,true,low,NA,NA,NA,NA,NA,NA,NA,false
AqX83Vy6,32xn26mty2w7ui75x62r6ind7a7l00,3p4rdnwnd9jet7yfpdkmlr68bb6ijg,AqX83Vy6,2020-0188,2020-05-21,13:26:55,13:43:24,NA,incomplete,56,color,1,left,Purple_Plus_Stripes_2.jpg,Purple_Circle_Dots_4.jpg,Blue_Star_Chess_2.jpg,left,540,true,low,NA,NA,NA,NA,NA,NA,NA,false
AqX83Vy6,32xn26mty2w7ui75x62r6ind7a7l00,3p4rdnwnd9jet7yfpdkmlr68bb6ijg,AqX83Vy6,2020-0188,2020-05-21,13:26:55,13:43:24,NA,incomplete,57,color,1,right,Green_Triangle_Chess_2.jpg,Red_Circle_Dots_2.jpg,Green_Star_Stripes_1.jpg,right,538,true,low,NA,NA,NA,NA,NA,NA,NA,false
AqX83Vy6,32xn26mty2w7ui75x62r6ind7a7l00,3p4rdnwnd9jet7yfpdkmlr68bb6ijg,AqX83Vy6,2020-0188,2020-05-21,13:26:55,13:43:24,NA,incomplete,58,color,1,left,Purple_Star_Dots_4.jpg,Purple_Triangle_Grid_3.jpg,Blue_Circle_Chess_4.jpg,left,505,true,low,NA,NA,NA,NA,NA,NA,NA,false
AqX83Vy6,32xn26mty2w7ui75x62r6ind7a7l00,3p4rdnwnd9jet7yfpdkmlr68bb6ijg,AqX83Vy6,2020-0188,2020-05-21,13:26:55,13:43:24,NA,incomplete,59,color,0,left,Red_Plus_Dots_1.jpg,Red_Triangle_Grid_3.jpg,Purple_Star_Chess_1.jpg,left,505,true,low,NA,NA,NA,NA,NA,NA,NA,false
AqX83Vy6,32xn26mty2w7ui75x62r6ind7a7l00,3p4rdnwnd9jet7yfpdkmlr68bb6ijg,AqX83Vy6,2020-0188,2020-05-21,13:26:55,13:43:24,NA,incomplete,60,number,1,left,Red_Triangle_Chess_4.jpg,Purple_Plus_Dots_4.jpg,Red_Circle_Stripes_2.jpg,left,801,true,low,NA,NA,NA,NA,NA,NA,NA,false
AqX83Vy6,32xn26mty2w7ui75x62r6ind7a7l00,3p4rdnwnd9jet7yfpdkmlr68bb6ijg,AqX83Vy6,2020-0188,2020-05-21,13:26:55,13:43:24,NA,incomplete,61,number,1,right,Blue_Triangle_Grid_2.jpg,Blue_Star_Dots_3.jpg,Red_Plus_Chess_2.jpg,right,901,true,low,NA,NA,NA,NA,NA,NA,NA,false
AqX83Vy6,32xn26mty2w7ui75x62r6ind7a7l00,3p4rdnwnd9jet7yfpdkmlr68bb6ijg,AqX83Vy6,2020-0188,2020-05-21,13:26:55,13:43:24,NA,incomplete,62,number,1,right,Green_Circle_Grid_1.jpg,Green_Triangle_Dots_3.jpg,Red_Plus_Chess_1.jpg,right,781,true,low,NA,NA,NA,NA,NA,NA,NA,false
AqX83Vy6,32xn26mty2w7ui75x62r6ind7a7l00,3p4rdnwnd9jet7yfpdkmlr68bb6ijg,AqX83Vy6,2020-0188,2020-05-21,13:26:55,13:43:24,NA,incomplete,63,number,0,right,Green_Star_Dots_4.jpg,Green_Triangle_Chess_2.jpg,Blue_Circle_Grid_4.jpg,right,754,true,low,NA,NA,NA,NA,NA,NA,NA,false
AqX83Vy6,32xn26mty2w7ui75x62r6ind7a7l00,3p4rdnwnd9jet7yfpdkmlr68bb6ijg,AqX83Vy6,2020-0188,2020-05-21,13:26:55,13:43:24,NA,incomplete,64,number,1,left,Green_Triangle_Stripes_4.jpg,Blue_Plus_Chess_4.jpg,Green_Star_Grid_1.jpg,right,631,false,low,NA,NA,NA,NA,NA,NA,NA,false
AqX83Vy6,32xn26mty2w7ui75x62r6ind7a7l00,3p4rdnwnd9jet7yfpdkmlr68bb6ijg,AqX83Vy6,2020-0188,2020-05-21,13:26:55,13:43:24,NA,incomplete,65,number,1,right,Green_Triangle_Chess_2.jpg,Green_Star_Stripes_4.jpg,Blue_Circle_Dots_2.jpg,left,1219,false,low,NA,NA,NA,NA,NA,NA,NA,false
AqX83Vy6,32xn26mty2w7ui75x62r6ind7a7l00,3p4rdnwnd9jet7yfpdkmlr68bb6ijg,AqX83Vy6,2020-0188,2020-05-21,13:26:55,13:43:24,NA,incomplete,66,number,1,left,Green_Triangle_Dots_1.jpg,Red_Plus_Chess_1.jpg,Green_Star_Grid_2.jpg,left,893,true,low,NA,NA,NA,NA,NA,NA,NA,false
AqX83Vy6,32xn26mty2w7ui75x62r6ind7a7l00,3p4rdnwnd9jet7yfpdkmlr68bb6ijg,AqX83Vy6,2020-0188,2020-05-21,13:26:55,13:43:24,NA,incomplete,67,number,0,left,Blue_Circle_Stripes_1.jpg,Red_Plus_Chess_1.jpg,Blue_Triangle_Dots_2.jpg,left,654,true,low,NA,NA,NA,NA,NA,NA,NA,false
AqX83Vy6,32xn26mty2w7ui75x62r6ind7a7l00,3p4rdnwnd9jet7yfpdkmlr68bb6ijg,AqX83Vy6,2020-0188,2020-05-21,13:26:55,13:43:24,NA,incomplete,68,number,1,left,Green_Triangle_Grid_4.jpg,Red_Star_Dots_4.jpg,Green_Plus_Chess_2.jpg,right,624,false,low,NA,NA,NA,NA,NA,NA,NA,false
AqX83Vy6,32xn26mty2w7ui75x62r6ind7a7l00,3p4rdnwnd9jet7yfpdkmlr68bb6ijg,AqX83Vy6,2020-0188,2020-05-21,13:26:55,13:43:24,NA,incomplete,69,number,1,right,Purple_Star_Stripes_2.jpg,Purple_Circle_Dots_3.jpg,Green_Triangle_Chess_2.jpg,right,1003,true,low,NA,NA,NA,NA,NA,NA,NA,false
AqX83Vy6,32xn26mty2w7ui75x62r6ind7a7l00,3p4rdnwnd9jet7yfpdkmlr68bb6ijg,AqX83Vy6,2020-0188,2020-05-21,13:26:55,13:43:24,NA,incomplete,70,number,1,left,Blue_Star_Dots_1.jpg,Green_Triangle_Chess_1.jpg,Blue_Plus_Grid_3.jpg,left,886,true,low,NA,NA,NA,NA,NA,NA,NA,false
AqX83Vy6,32xn26mty2w7ui75x62r6ind7a7l00,3p4rdnwnd9jet7yfpdkmlr68bb6ijg,AqX83Vy6,2020-0188,2020-05-21,13:26:55,13:43:24,NA,incomplete,71,number,1,right,Purple_Circle_Chess_2.jpg,Purple_Triangle_Dots_4.jpg,Blue_Star_Grid_2.jpg,right,766,true,low,NA,NA,NA,NA,NA,NA,NA,false
AqX83Vy6,32xn26mty2w7ui75x62r6ind7a7l00,3p4rdnwnd9jet7yfpdkmlr68bb6ijg,AqX83Vy6,2020-0188,2020-05-21,13:26:55,13:43:24,NA,incomplete,72,number,1,right,Blue_Triangle_Dots_4.jpg,Blue_Circle_Grid_2.jpg,Green_Plus_Chess_4.jpg,right,708,true,low,NA,NA,NA,NA,NA,NA,NA,false
AqX83Vy6,32xn26mty2w7ui75x62r6ind7a7l00,3p4rdnwnd9jet7yfpdkmlr68bb6ijg,AqX83Vy6,2020-0188,2020-05-21,13:26:55,13:43:24,NA,incomplete,73,number,1,left,Purple_Star_Chess_4.jpg,Green_Triangle_Dots_4.jpg,Purple_Circle_Stripes_1.jpg,left,580,true,low,NA,NA,NA,NA,NA,NA,NA,false
AqX83Vy6,32xn26mty2w7ui75x62r6ind7a7l00,3p4rdnwnd9jet7yfpdkmlr68bb6ijg,AqX83Vy6,2020-0188,2020-05-21,13:26:55,13:43:24,NA,incomplete,74,number,0,left,Red_Plus_Stripes_3.jpg,Purple_Star_Grid_3.jpg,Red_Circle_Dots_2.jpg,left,834,true,low,NA,NA,NA,NA,NA,NA,NA,false
AqX83Vy6,32xn26mty2w7ui75x62r6ind7a7l00,3p4rdnwnd9jet7yfpdkmlr68bb6ijg,AqX83Vy6,2020-0188,2020-05-21,13:26:55,13:43:24,NA,incomplete,75,number,0,right,Purple_Triangle_Chess_1.jpg,Purple_Plus_Dots_2.jpg,Blue_Circle_Grid_1.jpg,left,1037,false,low,NA,NA,NA,NA,NA,NA,NA,false
AqX83Vy6,32xn26mty2w7ui75x62r6ind7a7l00,3p4rdnwnd9jet7yfpdkmlr68bb6ijg,AqX83Vy6,2020-0188,2020-05-21,13:26:55,13:43:24,NA,incomplete,76,number,1,right,Red_Triangle_Chess_4.jpg,Red_Circle_Stripes_1.jpg,Green_Plus_Dots_4.jpg,left,607,false,low,NA,NA,NA,NA,NA,NA,NA,false
AqX83Vy6,32xn26mty2w7ui75x62r6ind7a7l00,3p4rdnwnd9jet7yfpdkmlr68bb6ijg,AqX83Vy6,2020-0188,2020-05-21,13:26:55,13:43:24,NA,incomplete,77,number,1,left,Purple_Triangle_Stripes_4.jpg,Blue_Circle_Grid_4.jpg,Purple_Star_Chess_2.jpg,right,635,false,low,NA,NA,NA,NA,NA,NA,NA,false
AqX83Vy6,32xn26mty2w7ui75x62r6ind7a7l00,3p4rdnwnd9jet7yfpdkmlr68bb6ijg,AqX83Vy6,2020-0188,2020-05-21,13:26:55,13:43:24,NA,incomplete,78,number,1,right,Purple_Star_Dots_3.jpg,Purple_Triangle_Grid_1.jpg,Blue_Circle_Chess_3.jpg,right,702,true,low,NA,NA,NA,NA,NA,NA,NA,false
AqX83Vy6,32xn26mty2w7ui75x62r6ind7a7l00,3p4rdnwnd9jet7yfpdkmlr68bb6ijg,AqX83Vy6,2020-0188,2020-05-21,13:26:55,13:43:24,NA,incomplete,79,number,1,right,Red_Plus_Dots_3.jpg,Red_Triangle_Stripes_2.jpg,Blue_Star_Chess_3.jpg,right,726,true,low,NA,NA,NA,NA,NA,NA,NA,false
AqX83Vy6,32xn26mty2w7ui75x62r6ind7a7l00,3p4rdnwnd9jet7yfpdkmlr68bb6ijg,AqX83Vy6,2020-0188,2020-05-21,13:26:55,13:43:24,NA,incomplete,80,number,1,left,Red_Circle_Chess_1.jpg,Green_Star_Grid_1.jpg,Red_Triangle_Dots_4.jpg,left,764,true,low,NA,NA,NA,NA,NA,NA,NA,false
AqX83Vy6,32xn26mty2w7ui75x62r6ind7a7l00,3p4rdnwnd9jet7yfpdkmlr68bb6ijg,AqX83Vy6,2020-0188,2020-05-21,13:26:55,13:43:24,NA,incomplete,81,number,1,left,Purple_Triangle_Stripes_3.jpg,Red_Star_Grid_3.jpg,Purple_Circle_Chess_2.jpg,left,1002,true,low,NA,NA,NA,NA,NA,NA,NA,false
AqX83Vy6,32xn26mty2w7ui75x62r6ind7a7l00,3p4rdnwnd9jet7yfpdkmlr68bb6ijg,AqX83Vy6,2020-0188,2020-05-21,13:26:55,13:43:24,NA,incomplete,82,number,1,right,Red_Plus_Chess_2.jpg,Red_Triangle_Dots_4.jpg,Purple_Circle_Stripes_2.jpg,right,782,true,low,NA,NA,NA,NA,NA,NA,NA,false
AqX83Vy6,32xn26mty2w7ui75x62r6ind7a7l00,3p4rdnwnd9jet7yfpdkmlr68bb6ijg,AqX83Vy6,2020-0188,2020-05-21,13:26:55,13:43:24,NA,incomplete,83,number,1,right,Purple_Plus_Grid_1.jpg,Purple_Triangle_Chess_4.jpg,Blue_Star_Dots_1.jpg,right,755,true,low,NA,NA,NA,NA,NA,NA,NA,false
AqX83Vy6,32xn26mty2w7ui75x62r6ind7a7l00,3p4rdnwnd9jet7yfpdkmlr68bb6ijg,AqX83Vy6,2020-0188,2020-05-21,13:26:55,13:43:24,NA,incomplete,84,number,0,right,Purple_Circle_Stripes_4.jpg,Purple_Plus_Grid_2.jpg,Blue_Star_Chess_4.jpg,right,864,true,low,NA,NA,NA,NA,NA,NA,NA,false
AqX83Vy6,32xn26mty2w7ui75x62r6ind7a7l00,3p4rdnwnd9jet7yfpdkmlr68bb6ijg,AqX83Vy6,2020-0188,2020-05-21,13:26:55,13:43:24,NA,incomplete,85,number,0,left,Red_Star_Dots_2.jpg,Green_Triangle_Grid_2.jpg,Red_Plus_Chess_3.jpg,left,819,true,low,NA,NA,NA,NA,NA,NA,NA,false
AqX83Vy6,32xn26mty2w7ui75x62r6ind7a7l00,3p4rdnwnd9jet7yfpdkmlr68bb6ijg,AqX83Vy6,2020-0188,2020-05-21,13:26:55,13:43:24,NA,incomplete,86,number,0,left,Red_Circle_Stripes_1.jpg,Blue_Plus_Grid_1.jpg,Red_Star_Chess_4.jpg,right,702,false,low,NA,NA,NA,NA,NA,NA,NA,false
AqX83Vy6,32xn26mty2w7ui75x62r6ind7a7l00,3p4rdnwnd9jet7yfpdkmlr68bb6ijg,AqX83Vy6,2020-0188,2020-05-21,13:26:55,13:43:24,NA,incomplete,87,number,1,right,Blue_Plus_Grid_2.jpg,Blue_Circle_Dots_4.jpg,Purple_Star_Stripes_2.jpg,left,670,false,low,NA,NA,NA,NA,NA,NA,NA,false
AqX83Vy6,32xn26mty2w7ui75x62r6ind7a7l00,3p4rdnwnd9jet7yfpdkmlr68bb6ijg,AqX83Vy6,2020-0188,2020-05-21,13:26:55,13:43:24,NA,incomplete,88,number,1,left,Red_Plus_Stripes_4.jpg,Green_Star_Chess_4.jpg,Red_Circle_Grid_1.jpg,right,999,false,low,NA,NA,NA,NA,NA,NA,NA,false
AqX83Vy6,32xn26mty2w7ui75x62r6ind7a7l00,3p4rdnwnd9jet7yfpdkmlr68bb6ijg,AqX83Vy6,2020-0188,2020-05-21,13:26:55,13:43:24,NA,incomplete,89,number,1,right,Blue_Plus_Dots_1.jpg,Blue_Triangle_Stripes_2.jpg,Purple_Star_Grid_1.jpg,left,1083,false,low,NA,NA,NA,NA,NA,NA,NA,false
AqX83Vy6,32xn26mty2w7ui75x62r6ind7a7l00,3p4rdnwnd9jet7yfpdkmlr68bb6ijg,AqX83Vy6,2020-0188,2020-05-21,13:26:55,13:43:24,NA,incomplete,90,color,0,left,Red_Circle_Stripes_3.jpg,Red_Star_Dots_2.jpg,Green_Plus_Chess_3.jpg,right,788,false,low,NA,NA,NA,NA,NA,NA,NA,false
AqX83Vy6,32xn26mty2w7ui75x62r6ind7a7l00,3p4rdnwnd9jet7yfpdkmlr68bb6ijg,AqX83Vy6,2020-0188,2020-05-21,13:26:55,13:43:24,NA,incomplete,91,color,1,right,Blue_Triangle_Stripes_2.jpg,Purple_Circle_Grid_2.jpg,Blue_Star_Dots_1.jpg,left,1032,false,low,NA,NA,NA,NA,NA,NA,NA,false
AqX83Vy6,32xn26mty2w7ui75x62r6ind7a7l00,3p4rdnwnd9jet7yfpdkmlr68bb6ijg,AqX83Vy6,2020-0188,2020-05-21,13:26:55,13:43:24,NA,incomplete,92,color,1,right,Green_Star_Grid_3.jpg,Blue_Circle_Stripes_3.jpg,Green_Triangle_Chess_1.jpg,left,1156,false,low,NA,NA,NA,NA,NA,NA,NA,false
AqX83Vy6,32xn26mty2w7ui75x62r6ind7a7l00,3p4rdnwnd9jet7yfpdkmlr68bb6ijg,AqX83Vy6,2020-0188,2020-05-21,13:26:55,13:43:24,NA,incomplete,93,color,1,right,Purple_Circle_Dots_1.jpg,Blue_Plus_Grid_1.jpg,Purple_Star_Stripes_3.jpg,left,722,false,low,NA,NA,NA,NA,NA,NA,NA,false
AqX83Vy6,32xn26mty2w7ui75x62r6ind7a7l00,3p4rdnwnd9jet7yfpdkmlr68bb6ijg,AqX83Vy6,2020-0188,2020-05-21,13:26:55,13:43:24,NA,incomplete,94,color,1,left,Purple_Triangle_Grid_3.jpg,Purple_Circle_Dots_4.jpg,Green_Plus_Stripes_3.jpg,right,825,false,low,NA,NA,NA,NA,NA,NA,NA,false
AqX83Vy6,32xn26mty2w7ui75x62r6ind7a7l00,3p4rdnwnd9jet7yfpdkmlr68bb6ijg,AqX83Vy6,2020-0188,2020-05-21,13:26:55,13:43:24,NA,incomplete,95,color,1,right,Red_Circle_Stripes_2.jpg,Blue_Star_Dots_2.jpg,Red_Plus_Grid_1.jpg,right,732,true,low,NA,NA,NA,NA,NA,NA,NA,false
AqX83Vy6,32xn26mty2w7ui75x62r6ind7a7l00,3p4rdnwnd9jet7yfpdkmlr68bb6ijg,AqX83Vy6,2020-0188,2020-05-21,13:26:55,13:43:24,NA,incomplete,96,color,1,left,Red_Plus_Grid_1.jpg,Red_Triangle_Stripes_2.jpg,Blue_Circle_Dots_1.jpg,left,827,true,low,NA,NA,NA,NA,NA,NA,NA,false
AqX83Vy6,32xn26mty2w7ui75x62r6ind7a7l00,3p4rdnwnd9jet7yfpdkmlr68bb6ijg,AqX83Vy6,2020-0188,2020-05-21,13:26:55,13:43:24,NA,incomplete,97,color,0,left,Purple_Circle_Stripes_1.jpg,Purple_Triangle_Dots_3.jpg,Green_Star_Grid_1.jpg,left,726,true,low,NA,NA,NA,NA,NA,NA,NA,false
AqX83Vy6,32xn26mty2w7ui75x62r6ind7a7l00,3p4rdnwnd9jet7yfpdkmlr68bb6ijg,AqX83Vy6,2020-0188,2020-05-21,13:26:55,13:43:24,NA,incomplete,98,color,1,left,Green_Plus_Chess_4.jpg,Green_Triangle_Stripes_3.jpg,Red_Circle_Grid_4.jpg,left,629,true,low,NA,NA,NA,NA,NA,NA,NA,false
AqX83Vy6,32xn26mty2w7ui75x62r6ind7a7l00,3p4rdnwnd9jet7yfpdkmlr68bb6ijg,AqX83Vy6,2020-0188,2020-05-21,13:26:55,13:43:24,NA,incomplete,99,color,1,right,Red_Star_Grid_4.jpg,Purple_Triangle_Stripes_4.jpg,Red_Circle_Chess_3.jpg,right,897,true,low,NA,NA,NA,NA,NA,NA,NA,false
AqX83Vy6,32xn26mty2w7ui75x62r6ind7a7l00,3p4rdnwnd9jet7yfpdkmlr68bb6ijg,AqX83Vy6,2020-0188,2020-05-21,13:26:55,13:43:24,NA,incomplete,100,color,1,left,Blue_Star_Stripes_2.jpg,Blue_Plus_Chess_3.jpg,Red_Triangle_Grid_2.jpg,left,746,true,low,NA,NA,NA,NA,NA,NA,NA,false
AqX83Vy6,32xn26mty2w7ui75x62r6ind7a7l00,3p4rdnwnd9jet7yfpdkmlr68bb6ijg,AqX83Vy6,2020-0188,2020-05-21,13:26:55,13:43:24,NA,incomplete,101,color,1,left,Blue_Plus_Chess_2.jpg,Blue_Triangle_Grid_4.jpg,Green_Star_Stripes_2.jpg,right,727,false,low,NA,NA,NA,NA,NA,NA,NA,false
AqX83Vy6,32xn26mty2w7ui75x62r6ind7a7l00,3p4rdnwnd9jet7yfpdkmlr68bb6ijg,AqX83Vy6,2020-0188,2020-05-21,13:26:55,13:43:24,NA,incomplete,102,color,1,right,Green_Star_Stripes_4.jpg,Red_Circle_Dots_4.jpg,Green_Triangle_Grid_1.jpg,right,1167,true,low,NA,NA,NA,NA,NA,NA,NA,false
AqX83Vy6,32xn26mty2w7ui75x62r6ind7a7l00,3p4rdnwnd9jet7yfpdkmlr68bb6ijg,AqX83Vy6,2020-0188,2020-05-21,13:26:55,13:43:24,NA,incomplete,103,color,1,right,Purple_Plus_Chess_1.jpg,Red_Triangle_Dots_1.jpg,Purple_Star_Grid_3.jpg,right,708,true,low,NA,NA,NA,NA,NA,NA,NA,false
AqX83Vy6,32xn26mty2w7ui75x62r6ind7a7l00,3p4rdnwnd9jet7yfpdkmlr68bb6ijg,AqX83Vy6,2020-0188,2020-05-21,13:26:55,13:43:24,NA,incomplete,104,color,1,left,Blue_Triangle_Chess_2.jpg,Blue_Circle_Dots_1.jpg,Green_Plus_Grid_2.jpg,left,740,true,low,NA,NA,NA,NA,NA,NA,NA,false
AqX83Vy6,32xn26mty2w7ui75x62r6ind7a7l00,3p4rdnwnd9jet7yfpdkmlr68bb6ijg,AqX83Vy6,2020-0188,2020-05-21,13:26:55,13:43:24,NA,incomplete,105,color,0,right,Red_Plus_Dots_1.jpg,Blue_Circle_Chess_1.jpg,Red_Star_Stripes_2.jpg,right,778,true,low,NA,NA,NA,NA,NA,NA,NA,false
AqX83Vy6,32xn26mty2w7ui75x62r6ind7a7l00,3p4rdnwnd9jet7yfpdkmlr68bb6ijg,AqX83Vy6,2020-0188,2020-05-21,13:26:55,13:43:24,NA,incomplete,106,color,1,right,Red_Triangle_Grid_4.jpg,Blue_Star_Stripes_4.jpg,Red_Plus_Chess_2.jpg,right,761,true,low,NA,NA,NA,NA,NA,NA,NA,false
AqX83Vy6,32xn26mty2w7ui75x62r6ind7a7l00,3p4rdnwnd9jet7yfpdkmlr68bb6ijg,AqX83Vy6,2020-0188,2020-05-21,13:26:55,13:43:24,NA,incomplete,107,color,1,left,Blue_Star_Chess_4.jpg,Blue_Triangle_Stripes_2.jpg,Red_Circle_Grid_4.jpg,left,797,true,low,NA,NA,NA,NA,NA,NA,NA,false
AqX83Vy6,32xn26mty2w7ui75x62r6ind7a7l00,3p4rdnwnd9jet7yfpdkmlr68bb6ijg,AqX83Vy6,2020-0188,2020-05-21,13:26:55,13:43:24,NA,incomplete,108,color,1,left,Purple_Plus_Dots_3.jpg,Purple_Star_Stripes_4.jpg,Green_Triangle_Chess_3.jpg,left,706,true,low,NA,NA,NA,NA,NA,NA,NA,false
AqX83Vy6,32xn26mty2w7ui75x62r6ind7a7l00,3p4rdnwnd9jet7yfpdkmlr68bb6ijg,AqX83Vy6,2020-0188,2020-05-21,13:26:55,13:43:24,NA,incomplete,109,color,1,right,Red_Triangle_Dots_2.jpg,Blue_Plus_Grid_2.jpg,Red_Circle_Stripes_3.jpg,right,658,true,low,NA,NA,NA,NA,NA,NA,NA,false
AqX83Vy6,32xn26mty2w7ui75x62r6ind7a7l00,3p4rdnwnd9jet7yfpdkmlr68bb6ijg,AqX83Vy6,2020-0188,2020-05-21,13:26:55,13:43:24,NA,incomplete,110,color,0,right,Red_Circle_Grid_1.jpg,Blue_Star_Stripes_1.jpg,Red_Plus_Dots_4.jpg,right,612,true,low,NA,NA,NA,NA,NA,NA,NA,false
AqX83Vy6,32xn26mty2w7ui75x62r6ind7a7l00,3p4rdnwnd9jet7yfpdkmlr68bb6ijg,AqX83Vy6,2020-0188,2020-05-21,13:26:55,13:43:24,NA,incomplete,111,color,1,left,Green_Star_Grid_1.jpg,Green_Plus_Dots_3.jpg,Purple_Triangle_Chess_1.jpg,left,496,true,low,NA,NA,NA,NA,NA,NA,NA,false
AqX83Vy6,32xn26mty2w7ui75x62r6ind7a7l00,3p4rdnwnd9jet7yfpdkmlr68bb6ijg,AqX83Vy6,2020-0188,2020-05-21,13:26:55,13:43:24,NA,incomplete,112,color,0,left,Green_Plus_Stripes_1.jpg,Green_Triangle_Dots_2.jpg,Blue_Circle_Chess_1.jpg,left,488,true,low,NA,NA,NA,NA,NA,NA,NA,false
AqX83Vy6,32xn26mty2w7ui75x62r6ind7a7l00,3p4rdnwnd9jet7yfpdkmlr68bb6ijg,AqX83Vy6,2020-0188,2020-05-21,13:26:55,13:43:24,NA,incomplete,113,color,1,right,Purple_Triangle_Stripes_2.jpg,Blue_Plus_Dots_2.jpg,Purple_Star_Chess_4.jpg,right,536,true,low,NA,NA,NA,NA,NA,NA,NA,false
AqX83Vy6,32xn26mty2w7ui75x62r6ind7a7l00,3p4rdnwnd9jet7yfpdkmlr68bb6ijg,AqX83Vy6,2020-0188,2020-05-21,13:26:55,13:43:24,NA,incomplete,114,color,0,right,Red_Circle_Stripes_3.jpg,Blue_Star_Grid_3.jpg,Red_Triangle_Chess_2.jpg,right,638,true,low,NA,NA,NA,NA,NA,NA,NA,false
AqX83Vy6,32xn26mty2w7ui75x62r6ind7a7l00,3p4rdnwnd9jet7yfpdkmlr68bb6ijg,AqX83Vy6,2020-0188,2020-05-21,13:26:55,13:43:24,NA,incomplete,115,color,1,right,Green_Circle_Dots_4.jpg,Purple_Star_Stripes_4.jpg,Green_Triangle_Grid_3.jpg,right,578,true,low,NA,NA,NA,NA,NA,NA,NA,false
AqX83Vy6,32xn26mty2w7ui75x62r6ind7a7l00,3p4rdnwnd9jet7yfpdkmlr68bb6ijg,AqX83Vy6,2020-0188,2020-05-21,13:26:55,13:43:24,NA,incomplete,116,color,0,right,Green_Plus_Dots_3.jpg,Blue_Triangle_Chess_3.jpg,Green_Circle_Stripes_4.jpg,right,494,true,low,NA,NA,NA,NA,NA,NA,NA,false
AqX83Vy6,32xn26mty2w7ui75x62r6ind7a7l00,3p4rdnwnd9jet7yfpdkmlr68bb6ijg,AqX83Vy6,2020-0188,2020-05-21,13:26:55,13:43:24,NA,incomplete,117,color,0,right,Red_Triangle_Chess_4.jpg,Green_Plus_Grid_4.jpg,Red_Star_Stripes_3.jpg,right,759,true,low,NA,NA,NA,NA,NA,NA,NA,false
AqX83Vy6,32xn26mty2w7ui75x62r6ind7a7l00,3p4rdnwnd9jet7yfpdkmlr68bb6ijg,AqX83Vy6,2020-0188,2020-05-21,13:26:55,13:43:24,NA,incomplete,118,color,1,right,Blue_Circle_Chess_4.jpg,Red_Plus_Grid_4.jpg,Blue_Star_Stripes_2.jpg,left,820,false,low,NA,NA,NA,NA,NA,NA,NA,false
AqX83Vy6,32xn26mty2w7ui75x62r6ind7a7l00,3p4rdnwnd9jet7yfpdkmlr68bb6ijg,AqX83Vy6,2020-0188,2020-05-21,13:26:55,13:43:24,NA,incomplete,119,color,1,right,Red_Triangle_Stripes_2.jpg,Purple_Plus_Grid_2.jpg,Red_Circle_Dots_4.jpg,left,809,false,low,NA,NA,NA,NA,NA,NA,NA,false
AqX83Vy6,32xn26mty2w7ui75x62r6ind7a7l00,3p4rdnwnd9jet7yfpdkmlr68bb6ijg,AqX83Vy6,2020-0188,2020-05-21,13:26:55,13:43:24,NA,incomplete,120,shape,1,left,Red_Plus_Stripes_3.jpg,Purple_Plus_Chess_2.jpg,Green_Circle_Stripes_4.jpg,NA,NA,NA,low,NA,NA,NA,NA,NA,NA,NA,false
AqX83Vy6,32xn26mty2w7ui75x62r6ind7a7l00,3p4rdnwnd9jet7yfpdkmlr68bb6ijg,AqX83Vy6,2020-0188,2020-05-21,13:26:55,13:43:24,NA,incomplete,121,shape,0,right,Red_Triangle_Stripes_2.jpg,Purple_Circle_Stripes_1.jpg,Green_Triangle_Grid_4.jpg,left,1449,false,low,NA,NA,NA,NA,NA,NA,NA,false
AqX83Vy6,32xn26mty2w7ui75x62r6ind7a7l00,3p4rdnwnd9jet7yfpdkmlr68bb6ijg,AqX83Vy6,2020-0188,2020-05-21,13:26:55,13:43:24,NA,incomplete,122,shape,1,left,Purple_Circle_Grid_1.jpg,Red_Circle_Chess_4.jpg,Green_Triangle_Grid_3.jpg,right,971,false,low,NA,NA,NA,NA,NA,NA,NA,false
AqX83Vy6,32xn26mty2w7ui75x62r6ind7a7l00,3p4rdnwnd9jet7yfpdkmlr68bb6ijg,AqX83Vy6,2020-0188,2020-05-21,13:26:55,13:43:24,NA,incomplete,123,shape,1,left,Green_Star_Chess_2.jpg,Red_Star_Dots_4.jpg,Blue_Circle_Chess_3.jpg,right,1073,false,low,NA,NA,NA,NA,NA,NA,NA,false
AqX83Vy6,32xn26mty2w7ui75x62r6ind7a7l00,3p4rdnwnd9jet7yfpdkmlr68bb6ijg,AqX83Vy6,2020-0188,2020-05-21,13:26:55,13:43:24,NA,incomplete,124,shape,1,left,Blue_Plus_Stripes_3.jpg,Red_Plus_Dots_1.jpg,Purple_Circle_Stripes_4.jpg,left,704,true,low,NA,NA,NA,NA,NA,NA,NA,false
AqX83Vy6,32xn26mty2w7ui75x62r6ind7a7l00,3p4rdnwnd9jet7yfpdkmlr68bb6ijg,AqX83Vy6,2020-0188,2020-05-21,13:26:55,13:43:24,NA,incomplete,125,shape,1,left,Blue_Star_Grid_2.jpg,Green_Star_Dots_3.jpg,Red_Plus_Grid_4.jpg,left,666,true,low,NA,NA,NA,NA,NA,NA,NA,false
AqX83Vy6,32xn26mty2w7ui75x62r6ind7a7l00,3p4rdnwnd9jet7yfpdkmlr68bb6ijg,AqX83Vy6,2020-0188,2020-05-21,13:26:55,13:43:24,NA,incomplete,126,shape,0,right,Purple_Star_Chess_1.jpg,Green_Circle_Chess_3.jpg,Blue_Star_Grid_2.jpg,right,571,true,low,NA,NA,NA,NA,NA,NA,NA,false
AqX83Vy6,32xn26mty2w7ui75x62r6ind7a7l00,3p4rdnwnd9jet7yfpdkmlr68bb6ijg,AqX83Vy6,2020-0188,2020-05-21,13:26:55,13:43:24,NA,incomplete,127,shape,1,left,Blue_Circle_Chess_4.jpg,Red_Circle_Grid_3.jpg,Purple_Plus_Chess_2.jpg,left,721,true,low,NA,NA,NA,NA,NA,NA,NA,false
AqX83Vy6,32xn26mty2w7ui75x62r6ind7a7l00,3p4rdnwnd9jet7yfpdkmlr68bb6ijg,AqX83Vy6,2020-0188,2020-05-21,13:26:55,13:43:24,NA,incomplete,128,shape,0,left,Purple_Circle_Grid_1.jpg,Blue_Circle_Dots_3.jpg,Red_Star_Grid_4.jpg,left,639,true,low,NA,NA,NA,NA,NA,NA,NA,false
AqX83Vy6,32xn26mty2w7ui75x62r6ind7a7l00,3p4rdnwnd9jet7yfpdkmlr68bb6ijg,AqX83Vy6,2020-0188,2020-05-21,13:26:55,13:43:24,NA,incomplete,129,shape,1,left,Purple_Star_Chess_2.jpg,Blue_Star_Stripes_1.jpg,Green_Circle_Chess_3.jpg,left,697,true,low,NA,NA,NA,NA,NA,NA,NA,false
AqX83Vy6,32xn26mty2w7ui75x62r6ind7a7l00,3p4rdnwnd9jet7yfpdkmlr68bb6ijg,AqX83Vy6,2020-0188,2020-05-21,13:26:55,13:43:24,NA,incomplete,130,shape,1,left,Purple_Plus_Chess_4.jpg,Green_Plus_Stripes_3.jpg,Blue_Star_Chess_1.jpg,left,555,true,low,NA,NA,NA,NA,NA,NA,NA,false
AqX83Vy6,32xn26mty2w7ui75x62r6ind7a7l00,3p4rdnwnd9jet7yfpdkmlr68bb6ijg,AqX83Vy6,2020-0188,2020-05-21,13:26:55,13:43:24,NA,incomplete,131,shape,0,left,Purple_Plus_Stripes_2.jpg,Green_Plus_Chess_4.jpg,Red_Star_Stripes_1.jpg,left,592,true,low,NA,NA,NA,NA,NA,NA,NA,false
AqX83Vy6,32xn26mty2w7ui75x62r6ind7a7l00,3p4rdnwnd9jet7yfpdkmlr68bb6ijg,AqX83Vy6,2020-0188,2020-05-21,13:26:55,13:43:24,NA,incomplete,132,shape,1,right,Green_Star_Stripes_1.jpg,Red_Circle_Stripes_3.jpg,Purple_Star_Dots_2.jpg,right,669,true,low,NA,NA,NA,NA,NA,NA,NA,false
AqX83Vy6,32xn26mty2w7ui75x62r6ind7a7l00,3p4rdnwnd9jet7yfpdkmlr68bb6ijg,AqX83Vy6,2020-0188,2020-05-21,13:26:55,13:43:24,NA,incomplete,133,shape,1,right,Green_Triangle_Dots_3.jpg,Blue_Circle_Dots_1.jpg,Red_Triangle_Stripes_2.jpg,right,630,true,low,NA,NA,NA,NA,NA,NA,NA,false
AqX83Vy6,32xn26mty2w7ui75x62r6ind7a7l00,3p4rdnwnd9jet7yfpdkmlr68bb6ijg,AqX83Vy6,2020-0188,2020-05-21,13:26:55,13:43:24,NA,incomplete,134,shape,0,left,Purple_Triangle_Grid_4.jpg,Blue_Triangle_Dots_2.jpg,Red_Star_Grid_1.jpg,left,529,true,low,NA,NA,NA,NA,NA,NA,NA,false
AqX83Vy6,32xn26mty2w7ui75x62r6ind7a7l00,3p4rdnwnd9jet7yfpdkmlr68bb6ijg,AqX83Vy6,2020-0188,2020-05-21,13:26:55,13:43:24,NA,incomplete,135,shape,1,left,Blue_Star_Grid_3.jpg,Purple_Star_Dots_1.jpg,Green_Circle_Grid_4.jpg,left,632,true,low,NA,NA,NA,NA,NA,NA,NA,false
AqX83Vy6,32xn26mty2w7ui75x62r6ind7a7l00,3p4rdnwnd9jet7yfpdkmlr68bb6ijg,AqX83Vy6,2020-0188,2020-05-21,13:26:55,13:43:24,NA,incomplete,136,shape,0,left,Blue_Circle_Grid_3.jpg,Green_Circle_Dots_4.jpg,Red_Triangle_Grid_2.jpg,left,1243,true,low,NA,NA,NA,NA,NA,NA,NA,false
AqX83Vy6,32xn26mty2w7ui75x62r6ind7a7l00,3p4rdnwnd9jet7yfpdkmlr68bb6ijg,AqX83Vy6,2020-0188,2020-05-21,13:26:55,13:43:24,NA,incomplete,137,shape,1,left,Purple_Triangle_Chess_2.jpg,Red_Triangle_Grid_4.jpg,Green_Plus_Chess_1.jpg,left,550,true,low,NA,NA,NA,NA,NA,NA,NA,false
AqX83Vy6,32xn26mty2w7ui75x62r6ind7a7l00,3p4rdnwnd9jet7yfpdkmlr68bb6ijg,AqX83Vy6,2020-0188,2020-05-21,13:26:55,13:43:24,NA,incomplete,138,shape,1,right,Green_Star_Chess_1.jpg,Purple_Triangle_Chess_2.jpg,Red_Star_Grid_3.jpg,right,652,true,low,NA,NA,NA,NA,NA,NA,NA,false
AqX83Vy6,32xn26mty2w7ui75x62r6ind7a7l00,3p4rdnwnd9jet7yfpdkmlr68bb6ijg,AqX83Vy6,2020-0188,2020-05-21,13:26:55,13:43:24,NA,incomplete,139,shape,0,left,Blue_Plus_Chess_4.jpg,Red_Plus_Stripes_2.jpg,Green_Circle_Chess_1.jpg,left,533,true,low,NA,NA,NA,NA,NA,NA,NA,false
AqX83Vy6,32xn26mty2w7ui75x62r6ind7a7l00,3p4rdnwnd9jet7yfpdkmlr68bb6ijg,AqX83Vy6,2020-0188,2020-05-21,13:26:55,13:43:24,NA,incomplete,140,filling,1,left,Green_Circle_Stripes_2.jpg,Red_Plus_Stripes_1.jpg,Blue_Circle_Chess_3.jpg,right,597,false,low,NA,NA,NA,NA,NA,NA,NA,false
AqX83Vy6,32xn26mty2w7ui75x62r6ind7a7l00,3p4rdnwnd9jet7yfpdkmlr68bb6ijg,AqX83Vy6,2020-0188,2020-05-21,13:26:55,13:43:24,NA,incomplete,141,filling,0,left,Purple_Star_Stripes_1.jpg,Green_Plus_Stripes_3.jpg,Red_Star_Chess_2.jpg,left,1040,true,low,NA,NA,NA,NA,NA,NA,NA,false
AqX83Vy6,32xn26mty2w7ui75x62r6ind7a7l00,3p4rdnwnd9jet7yfpdkmlr68bb6ijg,AqX83Vy6,2020-0188,2020-05-21,13:26:55,13:43:24,NA,incomplete,142,filling,1,right,Red_Plus_Grid_4.jpg,Green_Plus_Dots_1.jpg,Purple_Circle_Grid_3.jpg,left,796,false,low,NA,NA,NA,NA,NA,NA,NA,false
AqX83Vy6,32xn26mty2w7ui75x62r6ind7a7l00,3p4rdnwnd9jet7yfpdkmlr68bb6ijg,AqX83Vy6,2020-0188,2020-05-21,13:26:55,13:43:24,NA,incomplete,143,filling,1,right,Blue_Star_Stripes_3.jpg,Red_Star_Grid_2.jpg,Green_Triangle_Stripes_4.jpg,right,961,true,low,NA,NA,NA,NA,NA,NA,NA,false
AqX83Vy6,32xn26mty2w7ui75x62r6ind7a7l00,3p4rdnwnd9jet7yfpdkmlr68bb6ijg,AqX83Vy6,2020-0188,2020-05-21,13:26:55,13:43:24,NA,incomplete,144,filling,1,left,Green_Triangle_Dots_4.jpg,Blue_Plus_Dots_3.jpg,Purple_Triangle_Stripes_1.jpg,right,901,false,low,NA,NA,NA,NA,NA,NA,NA,false
AqX83Vy6,32xn26mty2w7ui75x62r6ind7a7l00,3p4rdnwnd9jet7yfpdkmlr68bb6ijg,AqX83Vy6,2020-0188,2020-05-21,13:26:55,13:43:24,NA,incomplete,145,filling,1,right,Blue_Plus_Grid_1.jpg,Green_Plus_Stripes_4.jpg,Red_Star_Grid_2.jpg,left,934,false,low,NA,NA,NA,NA,NA,NA,NA,false
AqX83Vy6,32xn26mty2w7ui75x62r6ind7a7l00,3p4rdnwnd9jet7yfpdkmlr68bb6ijg,AqX83Vy6,2020-0188,2020-05-21,13:26:55,13:43:24,NA,incomplete,146,filling,1,left,Red_Star_Dots_2.jpg,Blue_Plus_Dots_3.jpg,Purple_Star_Chess_1.jpg,left,1381,true,low,NA,NA,NA,NA,NA,NA,NA,false
AqX83Vy6,32xn26mty2w7ui75x62r6ind7a7l00,3p4rdnwnd9jet7yfpdkmlr68bb6ijg,AqX83Vy6,2020-0188,2020-05-21,13:26:55,13:43:24,NA,incomplete,147,filling,1,right,Purple_Triangle_Stripes_4.jpg,Blue_Triangle_Dots_1.jpg,Red_Plus_Stripes_2.jpg,right,1193,true,low,NA,NA,NA,NA,NA,NA,NA,false
AqX83Vy6,32xn26mty2w7ui75x62r6ind7a7l00,3p4rdnwnd9jet7yfpdkmlr68bb6ijg,AqX83Vy6,2020-0188,2020-05-21,13:26:55,13:43:24,NA,incomplete,148,filling,1,left,Green_Triangle_Dots_3.jpg,Purple_Plus_Dots_4.jpg,Blue_Triangle_Chess_2.jpg,left,1213,true,low,NA,NA,NA,NA,NA,NA,NA,false
AqX83Vy6,32xn26mty2w7ui75x62r6ind7a7l00,3p4rdnwnd9jet7yfpdkmlr68bb6ijg,AqX83Vy6,2020-0188,2020-05-21,13:26:55,13:43:24,NA,incomplete,149,filling,1,left,Blue_Circle_Stripes_2.jpg,Purple_Star_Stripes_4.jpg,Red_Circle_Chess_3.jpg,left,1322,true,low,NA,NA,NA,NA,NA,NA,NA,false
AqX83Vy6,32xn26mty2w7ui75x62r6ind7a7l00,3p4rdnwnd9jet7yfpdkmlr68bb6ijg,AqX83Vy6,2020-0188,2020-05-21,13:26:55,13:43:24,NA,incomplete,150,filling,0,left,Blue_Triangle_Dots_4.jpg,Green_Star_Dots_1.jpg,Purple_Triangle_Grid_3.jpg,left,1120,true,low,NA,NA,NA,NA,NA,NA,NA,false
AqX83Vy6,32xn26mty2w7ui75x62r6ind7a7l00,3p4rdnwnd9jet7yfpdkmlr68bb6ijg,AqX83Vy6,2020-0188,2020-05-21,13:26:55,13:43:24,NA,incomplete,151,filling,1,left,Red_Plus_Grid_2.jpg,Purple_Circle_Grid_3.jpg,Blue_Plus_Stripes_4.jpg,left,1049,true,low,NA,NA,NA,NA,NA,NA,NA,false
AqX83Vy6,32xn26mty2w7ui75x62r6ind7a7l00,3p4rdnwnd9jet7yfpdkmlr68bb6ijg,AqX83Vy6,2020-0188,2020-05-21,13:26:55,13:43:24,NA,incomplete,152,filling,0,left,Red_Triangle_Grid_3.jpg,Blue_Circle_Grid_1.jpg,Purple_Triangle_Stripes_4.jpg,left,866,true,low,NA,NA,NA,NA,NA,NA,NA,false
AqX83Vy6,32xn26mty2w7ui75x62r6ind7a7l00,3p4rdnwnd9jet7yfpdkmlr68bb6ijg,AqX83Vy6,2020-0188,2020-05-21,13:26:55,13:43:24,NA,incomplete,153,filling,1,left,Red_Plus_Grid_4.jpg,Purple_Triangle_Grid_2.jpg,Green_Plus_Chess_3.jpg,left,716,true,low,NA,NA,NA,NA,NA,NA,NA,false
AqX83Vy6,32xn26mty2w7ui75x62r6ind7a7l00,3p4rdnwnd9jet7yfpdkmlr68bb6ijg,AqX83Vy6,2020-0188,2020-05-21,13:26:55,13:43:24,NA,incomplete,154,filling,1,right,Purple_Star_Dots_4.jpg,Blue_Star_Chess_2.jpg,Green_Plus_Dots_3.jpg,right,716,true,low,NA,NA,NA,NA,NA,NA,NA,false
AqX83Vy6,32xn26mty2w7ui75x62r6ind7a7l00,3p4rdnwnd9jet7yfpdkmlr68bb6ijg,AqX83Vy6,2020-0188,2020-05-21,13:26:55,13:43:24,NA,incomplete,155,filling,1,right,Red_Star_Chess_2.jpg,Purple_Star_Dots_3.jpg,Green_Plus_Chess_4.jpg,right,788,true,low,NA,NA,NA,NA,NA,NA,NA,false
AqX83Vy6,32xn26mty2w7ui75x62r6ind7a7l00,3p4rdnwnd9jet7yfpdkmlr68bb6ijg,AqX83Vy6,2020-0188,2020-05-21,13:26:55,13:43:24,NA,incomplete,156,filling,1,right,Green_Circle_Dots_4.jpg,Red_Circle_Chess_1.jpg,Purple_Triangle_Dots_2.jpg,right,960,true,low,NA,NA,NA,NA,NA,NA,NA,false
AqX83Vy6,32xn26mty2w7ui75x62r6ind7a7l00,3p4rdnwnd9jet7yfpdkmlr68bb6ijg,AqX83Vy6,2020-0188,2020-05-21,13:26:55,13:43:24,NA,incomplete,157,filling,0,right,Green_Plus_Stripes_1.jpg,Purple_Plus_Grid_4.jpg,Blue_Circle_Stripes_2.jpg,right,894,true,low,NA,NA,NA,NA,NA,NA,NA,false
AqX83Vy6,32xn26mty2w7ui75x62r6ind7a7l00,3p4rdnwnd9jet7yfpdkmlr68bb6ijg,AqX83Vy6,2020-0188,2020-05-21,13:26:55,13:43:24,NA,incomplete,158,filling,1,right,Purple_Star_Stripes_1.jpg,Green_Star_Grid_2.jpg,Red_Triangle_Stripes_4.jpg,right,831,true,low,NA,NA,NA,NA,NA,NA,NA,false
AqX83Vy6,32xn26mty2w7ui75x62r6ind7a7l00,3p4rdnwnd9jet7yfpdkmlr68bb6ijg,AqX83Vy6,2020-0188,2020-05-21,13:26:55,13:43:24,NA,incomplete,159,filling,1,right,Blue_Triangle_Dots_4.jpg,Red_Triangle_Grid_3.jpg,Purple_Circle_Dots_2.jpg,right,617,true,low,NA,NA,NA,NA,NA,NA,NA,false
AqX83Vy6,32xn26mty2w7ui75x62r6ind7a7l00,3p4rdnwnd9jet7yfpdkmlr68bb6ijg,AqX83Vy6,2020-0188,2020-05-21,13:26:55,13:43:24,NA,incomplete,160,shape,0,left,Purple_Circle_Grid_1.jpg,Green_Circle_Dots_3.jpg,Red_Triangle_Grid_2.jpg,right,892,false,low,NA,NA,NA,NA,NA,NA,NA,false
AqX83Vy6,32xn26mty2w7ui75x62r6ind7a7l00,3p4rdnwnd9jet7yfpdkmlr68bb6ijg,AqX83Vy6,2020-0188,2020-05-21,13:26:55,13:43:24,NA,incomplete,161,shape,1,left,Green_Circle_Grid_4.jpg,Blue_Circle_Stripes_2.jpg,Red_Star_Grid_3.jpg,right,781,false,low,NA,NA,NA,NA,NA,NA,NA,false
AqX83Vy6,32xn26mty2w7ui75x62r6ind7a7l00,3p4rdnwnd9jet7yfpdkmlr68bb6ijg,AqX83Vy6,2020-0188,2020-05-21,13:26:55,13:43:24,NA,incomplete,162,shape,0,right,Blue_Circle_Stripes_4.jpg,Purple_Plus_Stripes_3.jpg,Green_Circle_Grid_2.jpg,left,715,false,low,NA,NA,NA,NA,NA,NA,NA,false
AqX83Vy6,32xn26mty2w7ui75x62r6ind7a7l00,3p4rdnwnd9jet7yfpdkmlr68bb6ijg,AqX83Vy6,2020-0188,2020-05-21,13:26:55,13:43:24,NA,incomplete,163,shape,1,left,Purple_Triangle_Chess_1.jpg,Green_Triangle_Stripes_3.jpg,Red_Star_Chess_4.jpg,right,835,false,low,NA,NA,NA,NA,NA,NA,NA,false
AqX83Vy6,32xn26mty2w7ui75x62r6ind7a7l00,3p4rdnwnd9jet7yfpdkmlr68bb6ijg,AqX83Vy6,2020-0188,2020-05-21,13:26:55,13:43:24,NA,incomplete,164,shape,0,right,Green_Triangle_Dots_4.jpg,Blue_Star_Dots_2.jpg,Red_Triangle_Stripes_3.jpg,left,716,false,low,NA,NA,NA,NA,NA,NA,NA,false
AqX83Vy6,32xn26mty2w7ui75x62r6ind7a7l00,3p4rdnwnd9jet7yfpdkmlr68bb6ijg,AqX83Vy6,2020-0188,2020-05-21,13:26:55,13:43:24,NA,incomplete,165,shape,1,right,Red_Star_Dots_2.jpg,Blue_Circle_Dots_3.jpg,Purple_Star_Stripes_4.jpg,left,757,false,low,NA,NA,NA,NA,NA,NA,NA,false
AqX83Vy6,32xn26mty2w7ui75x62r6ind7a7l00,3p4rdnwnd9jet7yfpdkmlr68bb6ijg,AqX83Vy6,2020-0188,2020-05-21,13:26:55,13:43:24,NA,incomplete,166,shape,1,right,Red_Circle_Stripes_4.jpg,Green_Plus_Stripes_1.jpg,Blue_Circle_Grid_3.jpg,left,979,false,low,NA,NA,NA,NA,NA,NA,NA,false
AqX83Vy6,32xn26mty2w7ui75x62r6ind7a7l00,3p4rdnwnd9jet7yfpdkmlr68bb6ijg,AqX83Vy6,2020-0188,2020-05-21,13:26:55,13:43:24,NA,incomplete,167,shape,1,left,Purple_Star_Stripes_2.jpg,Blue_Star_Dots_3.jpg,Green_Circle_Stripes_1.jpg,left,799,true,low,NA,NA,NA,NA,NA,NA,NA,false
AqX83Vy6,32xn26mty2w7ui75x62r6ind7a7l00,3p4rdnwnd9jet7yfpdkmlr68bb6ijg,AqX83Vy6,2020-0188,2020-05-21,13:26:55,13:43:24,NA,incomplete,168,shape,1,left,Purple_Triangle_Dots_2.jpg,Blue_Triangle_Grid_3.jpg,Red_Star_Dots_1.jpg,left,660,true,low,NA,NA,NA,NA,NA,NA,NA,false
AqX83Vy6,32xn26mty2w7ui75x62r6ind7a7l00,3p4rdnwnd9jet7yfpdkmlr68bb6ijg,AqX83Vy6,2020-0188,2020-05-21,13:26:55,13:43:24,NA,incomplete,169,shape,1,right,Green_Plus_Chess_4.jpg,Red_Triangle_Chess_3.jpg,Purple_Plus_Grid_2.jpg,right,846,true,low,NA,NA,NA,NA,NA,NA,NA,false
AqX83Vy6,32xn26mty2w7ui75x62r6ind7a7l00,3p4rdnwnd9jet7yfpdkmlr68bb6ijg,AqX83Vy6,2020-0188,2020-05-21,13:26:55,13:43:24,NA,incomplete,170,shape,1,left,Red_Plus_Dots_3.jpg,Blue_Plus_Stripes_1.jpg,Purple_Triangle_Dots_4.jpg,left,672,true,low,NA,NA,NA,NA,NA,NA,NA,false
AqX83Vy6,32xn26mty2w7ui75x62r6ind7a7l00,3p4rdnwnd9jet7yfpdkmlr68bb6ijg,AqX83Vy6,2020-0188,2020-05-21,13:26:55,13:43:24,NA,incomplete,171,shape,1,left,Green_Triangle_Stripes_2.jpg,Blue_Triangle_Dots_1.jpg,Purple_Plus_Stripes_3.jpg,left,682,true,low,NA,NA,NA,NA,NA,NA,NA,false
AqX83Vy6,32xn26mty2w7ui75x62r6ind7a7l00,3p4rdnwnd9jet7yfpdkmlr68bb6ijg,AqX83Vy6,2020-0188,2020-05-21,13:26:55,13:43:24,NA,incomplete,172,shape,1,right,Red_Star_Grid_4.jpg,Purple_Plus_Grid_2.jpg,Green_Star_Chess_1.jpg,right,859,true,low,NA,NA,NA,NA,NA,NA,NA,false
AqX83Vy6,32xn26mty2w7ui75x62r6ind7a7l00,3p4rdnwnd9jet7yfpdkmlr68bb6ijg,AqX83Vy6,2020-0188,2020-05-21,13:26:55,13:43:24,NA,incomplete,173,shape,1,right,Red_Plus_Dots_1.jpg,Blue_Circle_Dots_2.jpg,Green_Plus_Grid_4.jpg,right,740,true,low,NA,NA,NA,NA,NA,NA,NA,false
AqX83Vy6,32xn26mty2w7ui75x62r6ind7a7l00,3p4rdnwnd9jet7yfpdkmlr68bb6ijg,AqX83Vy6,2020-0188,2020-05-21,13:26:55,13:43:24,NA,incomplete,174,shape,1,left,Blue_Plus_Dots_4.jpg,Purple_Plus_Chess_2.jpg,Green_Star_Dots_3.jpg,left,643,true,low,NA,NA,NA,NA,NA,NA,NA,false
AqX83Vy6,32xn26mty2w7ui75x62r6ind7a7l00,3p4rdnwnd9jet7yfpdkmlr68bb6ijg,AqX83Vy6,2020-0188,2020-05-21,13:26:55,13:43:24,NA,incomplete,175,shape,1,left,Blue_Plus_Grid_3.jpg,Red_Plus_Dots_1.jpg,Green_Triangle_Grid_4.jpg,left,693,true,low,NA,NA,NA,NA,NA,NA,NA,false
AqX83Vy6,32xn26mty2w7ui75x62r6ind7a7l00,3p4rdnwnd9jet7yfpdkmlr68bb6ijg,AqX83Vy6,2020-0188,2020-05-21,13:26:55,13:43:24,NA,incomplete,176,shape,1,left,Purple_Triangle_Chess_1.jpg,Blue_Triangle_Dots_2.jpg,Red_Plus_Chess_4.jpg,left,582,true,low,NA,NA,NA,NA,NA,NA,NA,false
AqX83Vy6,32xn26mty2w7ui75x62r6ind7a7l00,3p4rdnwnd9jet7yfpdkmlr68bb6ijg,AqX83Vy6,2020-0188,2020-05-21,13:26:55,13:43:24,NA,incomplete,177,shape,1,right,Blue_Triangle_Chess_3.jpg,Green_Circle_Chess_4.jpg,Red_Triangle_Grid_1.jpg,right,635,true,low,NA,NA,NA,NA,NA,NA,NA,false
AqX83Vy6,32xn26mty2w7ui75x62r6ind7a7l00,3p4rdnwnd9jet7yfpdkmlr68bb6ijg,AqX83Vy6,2020-0188,2020-05-21,13:26:55,13:43:24,NA,incomplete,178,shape,1,right,Blue_Circle_Stripes_4.jpg,Purple_Star_Stripes_2.jpg,Red_Circle_Dots_1.jpg,right,726,true,low,NA,NA,NA,NA,NA,NA,NA,false
AqX83Vy6,32xn26mty2w7ui75x62r6ind7a7l00,3p4rdnwnd9jet7yfpdkmlr68bb6ijg,AqX83Vy6,2020-0188,2020-05-21,13:26:55,13:43:24,NA,incomplete,179,shape,1,right,Purple_Circle_Dots_4.jpg,Green_Plus_Dots_1.jpg,Blue_Circle_Grid_3.jpg,right,557,true,low,NA,NA,NA,NA,NA,NA,NA,false
AqX83Vy6,32xn26mty2w7ui75x62r6ind7a7l00,3p4rdnwnd9jet7yfpdkmlr68bb6ijg,AqX83Vy6,2020-0188,2020-05-21,13:26:55,13:43:24,NA,incomplete,180,filling,1,right,Blue_Plus_Chess_2.jpg,Purple_Plus_Grid_1.jpg,Green_Star_Chess_3.jpg,left,547,false,low,NA,NA,NA,NA,NA,NA,NA,false
AqX83Vy6,32xn26mty2w7ui75x62r6ind7a7l00,3p4rdnwnd9jet7yfpdkmlr68bb6ijg,AqX83Vy6,2020-0188,2020-05-21,13:26:55,13:43:24,NA,incomplete,181,filling,1,right,Green_Plus_Dots_3.jpg,Red_Plus_Stripes_2.jpg,Purple_Triangle_Dots_1.jpg,left,537,false,low,NA,NA,NA,NA,NA,NA,NA,false
AqX83Vy6,32xn26mty2w7ui75x62r6ind7a7l00,3p4rdnwnd9jet7yfpdkmlr68bb6ijg,AqX83Vy6,2020-0188,2020-05-21,13:26:55,13:43:24,NA,incomplete,182,filling,0,right,Blue_Triangle_Grid_3.jpg,Green_Triangle_Stripes_2.jpg,Red_Star_Grid_1.jpg,left,607,false,low,NA,NA,NA,NA,NA,NA,NA,false
AqX83Vy6,32xn26mty2w7ui75x62r6ind7a7l00,3p4rdnwnd9jet7yfpdkmlr68bb6ijg,AqX83Vy6,2020-0188,2020-05-21,13:26:55,13:43:24,NA,incomplete,183,filling,1,right,Purple_Triangle_Dots_2.jpg,Blue_Triangle_Grid_4.jpg,Green_Plus_Dots_3.jpg,left,579,false,low,NA,NA,NA,NA,NA,NA,NA,false
AqX83Vy6,32xn26mty2w7ui75x62r6ind7a7l00,3p4rdnwnd9jet7yfpdkmlr68bb6ijg,AqX83Vy6,2020-0188,2020-05-21,13:26:55,13:43:24,NA,incomplete,184,filling,1,right,Red_Triangle_Stripes_3.jpg,Green_Triangle_Dots_2.jpg,Purple_Circle_Stripes_1.jpg,right,728,true,low,NA,NA,NA,NA,NA,NA,NA,false
AqX83Vy6,32xn26mty2w7ui75x62r6ind7a7l00,3p4rdnwnd9jet7yfpdkmlr68bb6ijg,AqX83Vy6,2020-0188,2020-05-21,13:26:55,13:43:24,NA,incomplete,185,filling,1,right,Green_Circle_Chess_4.jpg,Blue_Circle_Dots_2.jpg,Red_Plus_Chess_1.jpg,right,712,true,low,NA,NA,NA,NA,NA,NA,NA,false
AqX83Vy6,32xn26mty2w7ui75x62r6ind7a7l00,3p4rdnwnd9jet7yfpdkmlr68bb6ijg,AqX83Vy6,2020-0188,2020-05-21,13:26:55,13:43:24,NA,incomplete,186,filling,1,right,Green_Plus_Grid_1.jpg,Blue_Plus_Stripes_4.jpg,Red_Triangle_Grid_2.jpg,left,655,false,low,NA,NA,NA,NA,NA,NA,NA,false
AqX83Vy6,32xn26mty2w7ui75x62r6ind7a7l00,3p4rdnwnd9jet7yfpdkmlr68bb6ijg,AqX83Vy6,2020-0188,2020-05-21,13:26:55,13:43:24,NA,incomplete,187,filling,1,right,Purple_Star_Stripes_3.jpg,Red_Star_Chess_1.jpg,Blue_Triangle_Stripes_2.jpg,right,737,true,low,NA,NA,NA,NA,NA,NA,NA,false
AqX83Vy6,32xn26mty2w7ui75x62r6ind7a7l00,3p4rdnwnd9jet7yfpdkmlr68bb6ijg,AqX83Vy6,2020-0188,2020-05-21,13:26:55,13:43:24,NA,incomplete,188,filling,0,right,Blue_Star_Chess_2.jpg,Purple_Star_Dots_1.jpg,Green_Circle_Chess_3.jpg,right,687,true,low,NA,NA,NA,NA,NA,NA,NA,false
AqX83Vy6,32xn26mty2w7ui75x62r6ind7a7l00,3p4rdnwnd9jet7yfpdkmlr68bb6ijg,AqX83Vy6,2020-0188,2020-05-21,13:26:55,13:43:24,NA,incomplete,189,filling,1,right,Purple_Circle_Stripes_4.jpg,Green_Circle_Grid_2.jpg,Red_Triangle_Stripes_1.jpg,right,783,true,low,NA,NA,NA,NA,NA,NA,NA,false
AqX83Vy6,32xn26mty2w7ui75x62r6ind7a7l00,3p4rdnwnd9jet7yfpdkmlr68bb6ijg,AqX83Vy6,2020-0188,2020-05-21,13:26:55,13:43:24,NA,incomplete,190,filling,1,left,Green_Star_Grid_3.jpg,Blue_Triangle_Grid_2.jpg,Purple_Star_Stripes_1.jpg,left,660,true,low,NA,NA,NA,NA,NA,NA,NA,false
AqX83Vy6,32xn26mty2w7ui75x62r6ind7a7l00,3p4rdnwnd9jet7yfpdkmlr68bb6ijg,AqX83Vy6,2020-0188,2020-05-21,13:26:55,13:43:24,NA,incomplete,191,filling,1,left,Blue_Plus_Grid_3.jpg,Red_Star_Grid_2.jpg,Green_Plus_Chess_4.jpg,left,597,true,low,NA,NA,NA,NA,NA,NA,NA,false
AqX83Vy6,32xn26mty2w7ui75x62r6ind7a7l00,3p4rdnwnd9jet7yfpdkmlr68bb6ijg,AqX83Vy6,2020-0188,2020-05-21,13:26:55,13:43:24,NA,incomplete,192,filling,1,left,Blue_Plus_Stripes_1.jpg,Green_Star_Stripes_3.jpg,Purple_Plus_Grid_2.jpg,left,642,true,low,NA,NA,NA,NA,NA,NA,NA,false
AqX83Vy6,32xn26mty2w7ui75x62r6ind7a7l00,3p4rdnwnd9jet7yfpdkmlr68bb6ijg,AqX83Vy6,2020-0188,2020-05-21,13:26:55,13:43:24,NA,incomplete,193,filling,1,left,Green_Triangle_Chess_1.jpg,Red_Star_Chess_3.jpg,Blue_Triangle_Stripes_2.jpg,left,622,true,low,NA,NA,NA,NA,NA,NA,NA,false
AqX83Vy6,32xn26mty2w7ui75x62r6ind7a7l00,3p4rdnwnd9jet7yfpdkmlr68bb6ijg,AqX83Vy6,2020-0188,2020-05-21,13:26:55,13:43:24,NA,incomplete,194,filling,1,right,Green_Circle_Stripes_2.jpg,Red_Circle_Grid_4.jpg,Purple_Plus_Stripes_1.jpg,right,752,true,low,NA,NA,NA,NA,NA,NA,NA,false
AqX83Vy6,32xn26mty2w7ui75x62r6ind7a7l00,3p4rdnwnd9jet7yfpdkmlr68bb6ijg,AqX83Vy6,2020-0188,2020-05-21,13:26:55,13:43:24,NA,incomplete,195,filling,1,left,Red_Circle_Chess_3.jpg,Blue_Plus_Chess_4.jpg,Green_Circle_Stripes_1.jpg,left,734,true,low,NA,NA,NA,NA,NA,NA,NA,false
AqX83Vy6,32xn26mty2w7ui75x62r6ind7a7l00,3p4rdnwnd9jet7yfpdkmlr68bb6ijg,AqX83Vy6,2020-0188,2020-05-21,13:26:55,13:43:24,NA,incomplete,196,filling,1,left,Blue_Plus_Stripes_2.jpg,Red_Triangle_Stripes_1.jpg,Purple_Plus_Dots_3.jpg,left,773,true,low,NA,NA,NA,NA,NA,NA,NA,false
AqX83Vy6,32xn26mty2w7ui75x62r6ind7a7l00,3p4rdnwnd9jet7yfpdkmlr68bb6ijg,AqX83Vy6,2020-0188,2020-05-21,13:26:55,13:43:24,NA,incomplete,197,filling,1,left,Green_Plus_Dots_2.jpg,Red_Star_Dots_4.jpg,Blue_Plus_Chess_1.jpg,left,665,true,low,NA,NA,NA,NA,NA,NA,NA,false
AqX83Vy6,32xn26mty2w7ui75x62r6ind7a7l00,3p4rdnwnd9jet7yfpdkmlr68bb6ijg,AqX83Vy6,2020-0188,2020-05-21,13:26:55,13:43:24,NA,incomplete,198,filling,1,right,Green_Triangle_Chess_4.jpg,Blue_Triangle_Dots_1.jpg,Red_Plus_Chess_3.jpg,right,660,true,low,NA,NA,NA,NA,NA,NA,NA,false
AqX83Vy6,32xn26mty2w7ui75x62r6ind7a7l00,3p4rdnwnd9jet7yfpdkmlr68bb6ijg,AqX83Vy6,2020-0188,2020-05-21,13:26:55,13:43:24,NA,incomplete,199,filling,1,left,Red_Star_Dots_4.jpg,Purple_Plus_Dots_1.jpg,Green_Star_Stripes_3.jpg,left,582,true,low,NA,NA,NA,NA,NA,NA,NA,false
AqX83Vy6,32xn26mty2w7ui75x62r6ind7a7l00,3p4rdnwnd9jet7yfpdkmlr68bb6ijg,AqX83Vy6,2020-0188,2020-05-21,13:26:55,13:43:24,NA,incomplete,200,shape,1,right,Green_Triangle_Stripes_3.jpg,Red_Star_Stripes_2.jpg,Purple_Triangle_Dots_4.jpg,left,658,false,low,NA,NA,NA,NA,NA,NA,NA,false
AqX83Vy6,32xn26mty2w7ui75x62r6ind7a7l00,3p4rdnwnd9jet7yfpdkmlr68bb6ijg,AqX83Vy6,2020-0188,2020-05-21,13:26:55,13:43:24,NA,incomplete,201,shape,0,right,Red_Triangle_Grid_1.jpg,Purple_Star_Grid_2.jpg,Blue_Triangle_Stripes_3.jpg,left,781,false,low,NA,NA,NA,NA,NA,NA,NA,false
AqX83Vy6,32xn26mty2w7ui75x62r6ind7a7l00,3p4rdnwnd9jet7yfpdkmlr68bb6ijg,AqX83Vy6,2020-0188,2020-05-21,13:26:55,13:43:24,NA,incomplete,202,shape,1,right,Red_Plus_Dots_4.jpg,Green_Triangle_Dots_1.jpg,Purple_Plus_Grid_2.jpg,right,674,true,low,NA,NA,NA,NA,NA,NA,NA,false
AqX83Vy6,32xn26mty2w7ui75x62r6ind7a7l00,3p4rdnwnd9jet7yfpdkmlr68bb6ijg,AqX83Vy6,2020-0188,2020-05-21,13:26:55,13:43:24,NA,incomplete,203,shape,1,right,Green_Circle_Stripes_3.jpg,Blue_Triangle_Stripes_2.jpg,Red_Circle_Chess_4.jpg,right,1739,true,low,NA,NA,NA,NA,NA,NA,NA,false
AqX83Vy6,32xn26mty2w7ui75x62r6ind7a7l00,3p4rdnwnd9jet7yfpdkmlr68bb6ijg,AqX83Vy6,2020-0188,2020-05-21,13:26:55,13:43:24,NA,incomplete,204,shape,1,right,Purple_Plus_Stripes_3.jpg,Blue_Circle_Stripes_4.jpg,Green_Plus_Chess_1.jpg,right,858,true,low,NA,NA,NA,NA,NA,NA,NA,false
AqX83Vy6,32xn26mty2w7ui75x62r6ind7a7l00,3p4rdnwnd9jet7yfpdkmlr68bb6ijg,AqX83Vy6,2020-0188,2020-05-21,13:26:55,13:43:24,NA,incomplete,205,shape,1,right,Red_Triangle_Chess_2.jpg,Blue_Circle_Chess_3.jpg,Purple_Triangle_Stripes_1.jpg,right,907,true,low,NA,NA,NA,NA,NA,NA,NA,false
AqX83Vy6,32xn26mty2w7ui75x62r6ind7a7l00,3p4rdnwnd9jet7yfpdkmlr68bb6ijg,AqX83Vy6,2020-0188,2020-05-21,13:26:55,13:43:24,NA,incomplete,206,shape,1,right,Blue_Circle_Chess_1.jpg,Purple_Star_Chess_4.jpg,Green_Circle_Dots_2.jpg,right,803,true,low,NA,NA,NA,NA,NA,NA,NA,false
AqX83Vy6,32xn26mty2w7ui75x62r6ind7a7l00,3p4rdnwnd9jet7yfpdkmlr68bb6ijg,AqX83Vy6,2020-0188,2020-05-21,13:26:55,13:43:24,NA,incomplete,207,shape,0,right,Green_Plus_Dots_1.jpg,Red_Circle_Dots_2.jpg,Blue_Plus_Chess_4.jpg,right,991,true,low,NA,NA,NA,NA,NA,NA,NA,false
AqX83Vy6,32xn26mty2w7ui75x62r6ind7a7l00,3p4rdnwnd9jet7yfpdkmlr68bb6ijg,AqX83Vy6,2020-0188,2020-05-21,13:26:55,13:43:24,NA,incomplete,208,shape,1,left,Blue_Star_Stripes_2.jpg,Purple_Star_Chess_1.jpg,Red_Circle_Stripes_4.jpg,left,691,true,low,NA,NA,NA,NA,NA,NA,NA,false
AqX83Vy6,32xn26mty2w7ui75x62r6ind7a7l00,3p4rdnwnd9jet7yfpdkmlr68bb6ijg,AqX83Vy6,2020-0188,2020-05-21,13:26:55,13:43:24,NA,incomplete,209,shape,1,right,Green_Star_Grid_2.jpg,Red_Circle_Grid_3.jpg,Blue_Star_Chess_4.jpg,right,596,true,low,NA,NA,NA,NA,NA,NA,NA,false
AqX83Vy6,32xn26mty2w7ui75x62r6ind7a7l00,3p4rdnwnd9jet7yfpdkmlr68bb6ijg,AqX83Vy6,2020-0188,2020-05-21,13:26:55,13:43:24,NA,incomplete,210,shape,1,left,Green_Circle_Grid_1.jpg,Blue_Circle_Stripes_4.jpg,Purple_Triangle_Grid_2.jpg,left,623,true,low,NA,NA,NA,NA,NA,NA,NA,false
AqX83Vy6,32xn26mty2w7ui75x62r6ind7a7l00,3p4rdnwnd9jet7yfpdkmlr68bb6ijg,AqX83Vy6,2020-0188,2020-05-21,13:26:55,13:43:24,NA,incomplete,211,shape,1,left,Blue_Circle_Dots_2.jpg,Red_Circle_Chess_4.jpg,Purple_Triangle_Dots_3.jpg,left,571,true,low,NA,NA,NA,NA,NA,NA,NA,false
AqX83Vy6,32xn26mty2w7ui75x62r6ind7a7l00,3p4rdnwnd9jet7yfpdkmlr68bb6ijg,AqX83Vy6,2020-0188,2020-05-21,13:26:55,13:43:24,NA,incomplete,212,shape,0,left,Blue_Circle_Chess_4.jpg,Purple_Circle_Grid_3.jpg,Green_Triangle_Chess_2.jpg,left,497,true,low,NA,NA,NA,NA,NA,NA,NA,false
AqX83Vy6,32xn26mty2w7ui75x62r6ind7a7l00,3p4rdnwnd9jet7yfpdkmlr68bb6ijg,AqX83Vy6,2020-0188,2020-05-21,13:26:55,13:43:24,NA,incomplete,213,shape,1,right,Green_Star_Chess_4.jpg,Purple_Circle_Chess_2.jpg,Blue_Star_Stripes_3.jpg,right,841,true,low,NA,NA,NA,NA,NA,NA,NA,false
AqX83Vy6,32xn26mty2w7ui75x62r6ind7a7l00,3p4rdnwnd9jet7yfpdkmlr68bb6ijg,AqX83Vy6,2020-0188,2020-05-21,13:26:55,13:43:24,NA,incomplete,214,shape,1,left,Purple_Plus_Chess_1.jpg,Green_Plus_Dots_2.jpg,Red_Circle_Chess_4.jpg,left,635,true,low,NA,NA,NA,NA,NA,NA,NA,false
AqX83Vy6,32xn26mty2w7ui75x62r6ind7a7l00,3p4rdnwnd9jet7yfpdkmlr68bb6ijg,AqX83Vy6,2020-0188,2020-05-21,13:26:55,13:43:24,NA,incomplete,215,shape,1,left,Blue_Plus_Stripes_1.jpg,Red_Plus_Grid_4.jpg,Purple_Circle_Stripes_3.jpg,left,453,true,low,NA,NA,NA,NA,NA,NA,NA,false
AqX83Vy6,32xn26mty2w7ui75x62r6ind7a7l00,3p4rdnwnd9jet7yfpdkmlr68bb6ijg,AqX83Vy6,2020-0188,2020-05-21,13:26:55,13:43:24,NA,incomplete,216,shape,0,right,Green_Plus_Stripes_2.jpg,Blue_Triangle_Stripes_3.jpg,Purple_Plus_Grid_1.jpg,right,616,true,low,NA,NA,NA,NA,NA,NA,NA,false
AqX83Vy6,32xn26mty2w7ui75x62r6ind7a7l00,3p4rdnwnd9jet7yfpdkmlr68bb6ijg,AqX83Vy6,2020-0188,2020-05-21,13:26:55,13:43:24,NA,incomplete,217,shape,1,left,Green_Plus_Stripes_4.jpg,Purple_Plus_Dots_1.jpg,Red_Circle_Stripes_3.jpg,left,531,true,low,NA,NA,NA,NA,NA,NA,NA,false
AqX83Vy6,32xn26mty2w7ui75x62r6ind7a7l00,3p4rdnwnd9jet7yfpdkmlr68bb6ijg,AqX83Vy6,2020-0188,2020-05-21,13:26:55,13:43:24,NA,incomplete,218,shape,1,left,Green_Triangle_Chess_1.jpg,Purple_Triangle_Stripes_3.jpg,Blue_Plus_Chess_2.jpg,left,882,true,low,NA,NA,NA,NA,NA,NA,NA,false
AqX83Vy6,32xn26mty2w7ui75x62r6ind7a7l00,3p4rdnwnd9jet7yfpdkmlr68bb6ijg,AqX83Vy6,2020-0188,2020-05-21,13:26:55,13:43:24,NA,incomplete,219,shape,1,left,Blue_Circle_Dots_4.jpg,Red_Circle_Chess_3.jpg,Purple_Star_Dots_2.jpg,left,604,true,low,NA,NA,NA,NA,NA,NA,NA,false
AqX83Vy6,32xn26mty2w7ui75x62r6ind7a7l00,3p4rdnwnd9jet7yfpdkmlr68bb6ijg,AqX83Vy6,2020-0188,2020-05-21,13:26:55,13:43:24,NA,incomplete,220,filling,0,right,Blue_Plus_Grid_2.jpg,Purple_Plus_Stripes_3.jpg,Green_Triangle_Grid_1.jpg,left,576,false,low,NA,NA,NA,NA,NA,NA,NA,false
AqX83Vy6,32xn26mty2w7ui75x62r6ind7a7l00,3p4rdnwnd9jet7yfpdkmlr68bb6ijg,AqX83Vy6,2020-0188,2020-05-21,13:26:55,13:43:24,NA,incomplete,221,filling,1,right,Blue_Triangle_Grid_4.jpg,Green_Triangle_Stripes_2.jpg,Red_Star_Grid_1.jpg,left,549,false,low,NA,NA,NA,NA,NA,NA,NA,false
AqX83Vy6,32xn26mty2w7ui75x62r6ind7a7l00,3p4rdnwnd9jet7yfpdkmlr68bb6ijg,AqX83Vy6,2020-0188,2020-05-21,13:26:55,13:43:24,NA,incomplete,222,filling,1,left,Red_Triangle_Chess_3.jpg,Purple_Star_Chess_4.jpg,Blue_Triangle_Stripes_1.jpg,right,658,false,low,NA,NA,NA,NA,NA,NA,NA,false
AqX83Vy6,32xn26mty2w7ui75x62r6ind7a7l00,3p4rdnwnd9jet7yfpdkmlr68bb6ijg,AqX83Vy6,2020-0188,2020-05-21,13:26:55,13:43:24,NA,incomplete,223,filling,1,left,Red_Triangle_Dots_2.jpg,Green_Star_Dots_1.jpg,Blue_Triangle_Stripes_3.jpg,left,1309,true,low,NA,NA,NA,NA,NA,NA,NA,false
AqX83Vy6,32xn26mty2w7ui75x62r6ind7a7l00,3p4rdnwnd9jet7yfpdkmlr68bb6ijg,AqX83Vy6,2020-0188,2020-05-21,13:26:55,13:43:24,NA,incomplete,224,filling,1,left,Red_Star_Grid_1.jpg,Purple_Triangle_Grid_3.jpg,Blue_Star_Chess_4.jpg,left,948,true,low,NA,NA,NA,NA,NA,NA,NA,false
AqX83Vy6,32xn26mty2w7ui75x62r6ind7a7l00,3p4rdnwnd9jet7yfpdkmlr68bb6ijg,AqX83Vy6,2020-0188,2020-05-21,13:26:55,13:43:24,NA,incomplete,225,filling,0,right,Red_Triangle_Dots_1.jpg,Green_Triangle_Grid_2.jpg,Purple_Star_Dots_3.jpg,right,812,true,low,NA,NA,NA,NA,NA,NA,NA,false
AqX83Vy6,32xn26mty2w7ui75x62r6ind7a7l00,3p4rdnwnd9jet7yfpdkmlr68bb6ijg,AqX83Vy6,2020-0188,2020-05-21,13:26:55,13:43:24,NA,incomplete,226,filling,1,left,Red_Star_Dots_3.jpg,Purple_Plus_Dots_4.jpg,Green_Star_Grid_2.jpg,left,799,true,low,NA,NA,NA,NA,NA,NA,NA,false
AqX83Vy6,32xn26mty2w7ui75x62r6ind7a7l00,3p4rdnwnd9jet7yfpdkmlr68bb6ijg,AqX83Vy6,2020-0188,2020-05-21,13:26:55,13:43:24,NA,incomplete,227,filling,1,right,Green_Star_Chess_1.jpg,Purple_Star_Dots_4.jpg,Red_Plus_Chess_3.jpg,right,715,true,low,NA,NA,NA,NA,NA,NA,NA,false
AqX83Vy6,32xn26mty2w7ui75x62r6ind7a7l00,3p4rdnwnd9jet7yfpdkmlr68bb6ijg,AqX83Vy6,2020-0188,2020-05-21,13:26:55,13:43:24,NA,incomplete,228,filling,1,right,Blue_Triangle_Stripes_1.jpg,Red_Triangle_Dots_3.jpg,Purple_Star_Stripes_4.jpg,right,787,true,low,NA,NA,NA,NA,NA,NA,NA,false
AqX83Vy6,32xn26mty2w7ui75x62r6ind7a7l00,3p4rdnwnd9jet7yfpdkmlr68bb6ijg,AqX83Vy6,2020-0188,2020-05-21,13:26:55,13:43:24,NA,incomplete,229,filling,1,left,Purple_Star_Stripes_4.jpg,Green_Triangle_Stripes_2.jpg,Blue_Star_Grid_3.jpg,left,616,true,low,NA,NA,NA,NA,NA,NA,NA,false
AqX83Vy6,32xn26mty2w7ui75x62r6ind7a7l00,3p4rdnwnd9jet7yfpdkmlr68bb6ijg,AqX83Vy6,2020-0188,2020-05-21,13:26:55,13:43:24,NA,incomplete,230,filling,0,left,Red_Star_Chess_3.jpg,Purple_Circle_Chess_4.jpg,Green_Star_Dots_2.jpg,left,612,true,low,NA,NA,NA,NA,NA,NA,NA,false
AqX83Vy6,32xn26mty2w7ui75x62r6ind7a7l00,3p4rdnwnd9jet7yfpdkmlr68bb6ijg,AqX83Vy6,2020-0188,2020-05-21,13:26:55,13:43:24,NA,incomplete,231,filling,1,right,Purple_Triangle_Grid_4.jpg,Blue_Triangle_Stripes_1.jpg,Red_Circle_Grid_3.jpg,right,807,true,low,NA,NA,NA,NA,NA,NA,NA,false
AqX83Vy6,32xn26mty2w7ui75x62r6ind7a7l00,3p4rdnwnd9jet7yfpdkmlr68bb6ijg,AqX83Vy6,2020-0188,2020-05-21,13:26:55,13:43:24,NA,incomplete,232,filling,1,right,Red_Triangle_Grid_3.jpg,Blue_Triangle_Stripes_1.jpg,Purple_Circle_Grid_4.jpg,right,819,true,low,NA,NA,NA,NA,NA,NA,NA,false
AqX83Vy6,32xn26mty2w7ui75x62r6ind7a7l00,3p4rdnwnd9jet7yfpdkmlr68bb6ijg,AqX83Vy6,2020-0188,2020-05-21,13:26:55,13:43:24,NA,incomplete,233,filling,1,left,Purple_Circle_Chess_1.jpg,Red_Plus_Chess_4.jpg,Blue_Circle_Stripes_2.jpg,left,854,true,low,NA,NA,NA,NA,NA,NA,NA,false
AqX83Vy6,32xn26mty2w7ui75x62r6ind7a7l00,3p4rdnwnd9jet7yfpdkmlr68bb6ijg,AqX83Vy6,2020-0188,2020-05-21,13:26:55,13:43:24,NA,incomplete,234,filling,0,left,Purple_Plus_Grid_1.jpg,Green_Triangle_Grid_2.jpg,Blue_Plus_Chess_3.jpg,left,801,true,low,NA,NA,NA,NA,NA,NA,NA,false
AqX83Vy6,32xn26mty2w7ui75x62r6ind7a7l00,3p4rdnwnd9jet7yfpdkmlr68bb6ijg,AqX83Vy6,2020-0188,2020-05-21,13:26:55,13:43:24,NA,incomplete,235,filling,1,left,Blue_Triangle_Grid_3.jpg,Red_Plus_Grid_4.jpg,Green_Triangle_Dots_2.jpg,left,685,true,low,NA,NA,NA,NA,NA,NA,NA,false
AqX83Vy6,32xn26mty2w7ui75x62r6ind7a7l00,3p4rdnwnd9jet7yfpdkmlr68bb6ijg,AqX83Vy6,2020-0188,2020-05-21,13:26:55,13:43:24,NA,incomplete,236,filling,1,left,Purple_Circle_Dots_1.jpg,Blue_Plus_Dots_3.jpg,Green_Circle_Chess_2.jpg,left,805,true,low,NA,NA,NA,NA,NA,NA,NA,false
AqX83Vy6,32xn26mty2w7ui75x62r6ind7a7l00,3p4rdnwnd9jet7yfpdkmlr68bb6ijg,AqX83Vy6,2020-0188,2020-05-21,13:26:55,13:43:24,NA,incomplete,237,filling,1,right,Purple_Star_Grid_3.jpg,Red_Star_Dots_1.jpg,Blue_Plus_Grid_4.jpg,right,761,true,low,NA,NA,NA,NA,NA,NA,NA,false
AqX83Vy6,32xn26mty2w7ui75x62r6ind7a7l00,3p4rdnwnd9jet7yfpdkmlr68bb6ijg,AqX83Vy6,2020-0188,2020-05-21,13:26:55,13:43:24,NA,incomplete,238,filling,1,left,Blue_Plus_Grid_2.jpg,Purple_Triangle_Grid_1.jpg,Green_Plus_Dots_3.jpg,left,630,true,low,NA,NA,NA,NA,NA,NA,NA,false
AqX83Vy6,32xn26mty2w7ui75x62r6ind7a7l00,3p4rdnwnd9jet7yfpdkmlr68bb6ijg,AqX83Vy6,2020-0188,2020-05-21,13:26:55,13:43:24,NA,incomplete,239,filling,1,right,Green_Circle_Dots_1.jpg,Purple_Circle_Stripes_2.jpg,Red_Triangle_Dots_3.jpg,right,786,true,low,NA,NA,NA,NA,NA,NA,NA,false
AqX83Vy6,32xn26mty2w7ui75x62r6ind7a7l00,3p4rdnwnd9jet7yfpdkmlr68bb6ijg,AqX83Vy6,2020-0188,2020-05-21,13:26:55,13:43:24,NA,NA,instruction example,number,NA,NA,Blue_Plus_Stripes_4.jpg,Purple_Circle_Dots_4.jpg,Blue_Star_Grid_3.jpg,NA,NA,NA,NA,NA,NA,NA,NA,NA,NA,NA,undefined
AqX83Vy6,32xn26mty2w7ui75x62r6ind7a7l00,3p4rdnwnd9jet7yfpdkmlr68bb6ijg,AqX83Vy6,2020-0188,2020-05-21,13:26:55,13:43:24,NA,NA,instruction example,number,NA,NA,Red_Star_Chess_3.jpg,Red_Triangle_Grid_2.jpg,Green_Plus_Dots_3.jpg,NA,NA,NA,NA,NA,NA,NA,NA,NA,NA,NA,undefined
AqX83Vy6,32xn26mty2w7ui75x62r6ind7a7l00,3p4rdnwnd9jet7yfpdkmlr68bb6ijg,AqX83Vy6,2020-0188,2020-05-21,13:26:55,13:43:24,NA,NA,instruction example,number,NA,NA,Red_Triangle_Dots_1.jpg,Purple_Triangle_Chess_3.jpg,Blue_Star_Dots_2.jpg,NA,NA,NA,NA,NA,NA,NA,NA,NA,NA,NA,undefined
AqX83Vy6,32xn26mty2w7ui75x62r6ind7a7l00,3p4rdnwnd9jet7yfpdkmlr68bb6ijg,AqX83Vy6,2020-0188,2020-05-21,13:26:55,13:43:24,NA,NA,instruction example,number,NA,NA,Green_Plus_Chess_1.jpg,Blue_Circle_Chess_2.jpg,Purple_Plus_Dots_3.jpg,NA,NA,NA,NA,NA,NA,NA,NA,NA,NA,NA,undefined
AqX83Vy6,32xn26mty2w7ui75x62r6ind7a7l00,3p4rdnwnd9jet7yfpdkmlr68bb6ijg,AqX83Vy6,2020-0188,2020-05-21,13:26:55,13:43:24,948775,990217,NA,NA,NA,NA,NA,NA,NA,NA,NA,NA,NA,33,White/Caucasian,Male,American,no,yes,no,undefined
