workerId,hitId,assignmentId,subject,studyid,exp_date,exp_start,exp_end,time_start,time_end,trial,type,reward_validity,answer,image_top,image_left,image_right,response,response_time,response_acc,volatility,practice
CbkGWxsL,3087lxlj7ptluqx9bvztb5ithyq0fq,3pb5a5bd0zj7dlriygvmxpok3zm7g6,CbkGWxsL,2020-0188,2020-11-18,16:01:16,16:23:52,NA,incomplete,0,color,1,left,Red_Plus_Dots_2.jpg,Red_Circle_Chess_1.jpg,Blue_Plus_Stripes_4.jpg,left,1710.655000002589,true,NA,true
CbkGWxsL,3087lxlj7ptluqx9bvztb5ithyq0fq,3pb5a5bd0zj7dlriygvmxpok3zm7g6,CbkGWxsL,2020-0188,2020-11-18,16:01:16,16:23:52,NA,incomplete,1,color,1,right,Purple_Star_Chess_3.jpg,Red_Star_Stripes_2.jpg,Purple_Triangle_Dots_4.jpg,right,1270.2100000024075,true,NA,true
CbkGWxsL,3087lxlj7ptluqx9bvztb5ithyq0fq,3pb5a5bd0zj7dlriygvmxpok3zm7g6,CbkGWxsL,2020-0188,2020-11-18,16:01:16,16:23:52,NA,incomplete,2,color,1,left,Green_Star_Grid_2.jpg,Green_Triangle_Stripes_1.jpg,Purple_Star_Chess_4.jpg,left,831.5350000011967,true,NA,true
CbkGWxsL,3087lxlj7ptluqx9bvztb5ithyq0fq,3pb5a5bd0zj7dlriygvmxpok3zm7g6,CbkGWxsL,2020-0188,2020-11-18,16:01:16,16:23:52,NA,incomplete,3,color,1,right,Green_Plus_Stripes_2.jpg,Red_Plus_Grid_4.jpg,Green_Circle_Dots_3.jpg,right,739.059999999823,true,NA,true
CbkGWxsL,3087lxlj7ptluqx9bvztb5ithyq0fq,3pb5a5bd0zj7dlriygvmxpok3zm7g6,CbkGWxsL,2020-0188,2020-11-18,16:01:16,16:23:52,NA,incomplete,4,color,1,left,Blue_Circle_Dots_2.jpg,Blue_Triangle_Grid_4.jpg,Green_Circle_Stripes_1.jpg,left,970.7249999992782,true,NA,true
CbkGWxsL,3087lxlj7ptluqx9bvztb5ithyq0fq,3pb5a5bd0zj7dlriygvmxpok3zm7g6,CbkGWxsL,2020-0188,2020-11-18,16:01:16,16:23:52,NA,incomplete,5,color,1,right,Green_Star_Chess_4.jpg,Blue_Star_Dots_2.jpg,Green_Circle_Grid_3.jpg,right,839.4399999998277,true,NA,true
CbkGWxsL,3087lxlj7ptluqx9bvztb5ithyq0fq,3pb5a5bd0zj7dlriygvmxpok3zm7g6,CbkGWxsL,2020-0188,2020-11-18,16:01:16,16:23:52,NA,incomplete,6,color,1,right,Green_Circle_Chess_4.jpg,Purple_Circle_Dots_1.jpg,Green_Triangle_Stripes_3.jpg,right,826.1449999990873,true,NA,true
CbkGWxsL,3087lxlj7ptluqx9bvztb5ithyq0fq,3pb5a5bd0zj7dlriygvmxpok3zm7g6,CbkGWxsL,2020-0188,2020-11-18,16:01:16,16:23:52,NA,incomplete,7,color,0,right,Green_Triangle_Chess_1.jpg,Red_Triangle_Stripes_3.jpg,Green_Plus_Grid_4.jpg,right,772.9399999988964,true,NA,true
CbkGWxsL,3087lxlj7ptluqx9bvztb5ithyq0fq,3pb5a5bd0zj7dlriygvmxpok3zm7g6,CbkGWxsL,2020-0188,2020-11-18,16:01:16,16:23:52,NA,incomplete,8,color,0,right,Blue_Circle_Stripes_4.jpg,Green_Circle_Chess_1.jpg,Blue_Triangle_Dots_2.jpg,right,979.2850000011967,true,NA,true
CbkGWxsL,3087lxlj7ptluqx9bvztb5ithyq0fq,3pb5a5bd0zj7dlriygvmxpok3zm7g6,CbkGWxsL,2020-0188,2020-11-18,16:01:16,16:23:52,NA,incomplete,9,color,1,left,Red_Circle_Stripes_1.jpg,Red_Triangle_Dots_4.jpg,Blue_Circle_Chess_2.jpg,left,1112.9750000000931,true,NA,true
CbkGWxsL,3087lxlj7ptluqx9bvztb5ithyq0fq,3pb5a5bd0zj7dlriygvmxpok3zm7g6,CbkGWxsL,2020-0188,2020-11-18,16:01:16,16:23:52,NA,incomplete,10,color,1,right,Blue_Star_Stripes_1.jpg,Red_Star_Dots_3.jpg,Blue_Triangle_Grid_4.jpg,right,896.3499999990454,true,NA,true
CbkGWxsL,3087lxlj7ptluqx9bvztb5ithyq0fq,3pb5a5bd0zj7dlriygvmxpok3zm7g6,CbkGWxsL,2020-0188,2020-11-18,16:01:16,16:23:52,NA,incomplete,11,color,1,left,Red_Triangle_Stripes_1.jpg,Red_Circle_Grid_2.jpg,Green_Triangle_Chess_4.jpg,left,1153.809999999823,true,NA,true
CbkGWxsL,3087lxlj7ptluqx9bvztb5ithyq0fq,3pb5a5bd0zj7dlriygvmxpok3zm7g6,CbkGWxsL,2020-0188,2020-11-18,16:01:16,16:23:52,NA,incomplete,12,color,1,right,Purple_Star_Grid_4.jpg,Green_Star_Dots_1.jpg,Purple_Triangle_Chess_2.jpg,right,752.8200000015786,true,NA,true
CbkGWxsL,3087lxlj7ptluqx9bvztb5ithyq0fq,3pb5a5bd0zj7dlriygvmxpok3zm7g6,CbkGWxsL,2020-0188,2020-11-18,16:01:16,16:23:52,NA,incomplete,13,color,1,left,Red_Circle_Stripes_4.jpg,Red_Plus_Dots_1.jpg,Green_Circle_Chess_3.jpg,left,870.2049999992596,true,NA,true
CbkGWxsL,3087lxlj7ptluqx9bvztb5ithyq0fq,3pb5a5bd0zj7dlriygvmxpok3zm7g6,CbkGWxsL,2020-0188,2020-11-18,16:01:16,16:23:52,NA,incomplete,14,color,0,right,Purple_Plus_Dots_4.jpg,Blue_Plus_Grid_1.jpg,Purple_Triangle_Chess_2.jpg,right,896.85499999905,true,NA,true
CbkGWxsL,3087lxlj7ptluqx9bvztb5ithyq0fq,3pb5a5bd0zj7dlriygvmxpok3zm7g6,CbkGWxsL,2020-0188,2020-11-18,16:01:16,16:23:52,NA,incomplete,15,color,1,left,Blue_Plus_Chess_3.jpg,Blue_Star_Grid_4.jpg,Purple_Plus_Dots_2.jpg,left,801.2950000010896,true,NA,true
CbkGWxsL,3087lxlj7ptluqx9bvztb5ithyq0fq,3pb5a5bd0zj7dlriygvmxpok3zm7g6,CbkGWxsL,2020-0188,2020-11-18,16:01:16,16:23:52,NA,incomplete,16,color,1,left,Red_Circle_Chess_1.jpg,Red_Plus_Dots_3.jpg,Blue_Circle_Grid_2.jpg,left,1100.4949999988312,true,NA,true
CbkGWxsL,3087lxlj7ptluqx9bvztb5ithyq0fq,3pb5a5bd0zj7dlriygvmxpok3zm7g6,CbkGWxsL,2020-0188,2020-11-18,16:01:16,16:23:52,NA,incomplete,17,color,1,left,Red_Triangle_Dots_3.jpg,Red_Circle_Stripes_4.jpg,Green_Triangle_Chess_2.jpg,left,794.8450000003213,true,NA,true
CbkGWxsL,3087lxlj7ptluqx9bvztb5ithyq0fq,3pb5a5bd0zj7dlriygvmxpok3zm7g6,CbkGWxsL,2020-0188,2020-11-18,16:01:16,16:23:52,NA,incomplete,18,color,1,left,Green_Plus_Stripes_2.jpg,Green_Triangle_Chess_1.jpg,Purple_Plus_Dots_4.jpg,left,722.1499999978114,true,NA,true
CbkGWxsL,3087lxlj7ptluqx9bvztb5ithyq0fq,3pb5a5bd0zj7dlriygvmxpok3zm7g6,CbkGWxsL,2020-0188,2020-11-18,16:01:16,16:23:52,NA,incomplete,19,color,1,right,Red_Star_Stripes_3.jpg,Blue_Star_Chess_2.jpg,Red_Triangle_Grid_1.jpg,right,810.944999997504,true,NA,true
CbkGWxsL,3087lxlj7ptluqx9bvztb5ithyq0fq,3pb5a5bd0zj7dlriygvmxpok3zm7g6,CbkGWxsL,2020-0188,2020-11-18,16:01:16,16:23:52,NA,incomplete,20,shape,0,right,Purple_Plus_Stripes_4.jpg,Purple_Circle_Chess_2.jpg,Red_Plus_Dots_3.jpg,right,1199.1699999999255,true,NA,true
CbkGWxsL,3087lxlj7ptluqx9bvztb5ithyq0fq,3pb5a5bd0zj7dlriygvmxpok3zm7g6,CbkGWxsL,2020-0188,2020-11-18,16:01:16,16:23:52,NA,incomplete,21,shape,1,left,Purple_Star_Dots_1.jpg,Green_Star_Grid_3.jpg,Purple_Plus_Chess_4.jpg,left,993.8350000011269,true,NA,true
CbkGWxsL,3087lxlj7ptluqx9bvztb5ithyq0fq,3pb5a5bd0zj7dlriygvmxpok3zm7g6,CbkGWxsL,2020-0188,2020-11-18,16:01:16,16:23:52,NA,incomplete,22,shape,1,left,Red_Plus_Grid_4.jpg,Green_Plus_Stripes_1.jpg,Red_Star_Dots_3.jpg,left,1263.2599999997765,true,NA,true
CbkGWxsL,3087lxlj7ptluqx9bvztb5ithyq0fq,3pb5a5bd0zj7dlriygvmxpok3zm7g6,CbkGWxsL,2020-0188,2020-11-18,16:01:16,16:23:52,NA,incomplete,23,shape,1,right,Purple_Plus_Stripes_3.jpg,Purple_Circle_Grid_1.jpg,Red_Plus_Dots_4.jpg,right,1156.895000000135,true,NA,true
CbkGWxsL,3087lxlj7ptluqx9bvztb5ithyq0fq,3pb5a5bd0zj7dlriygvmxpok3zm7g6,CbkGWxsL,2020-0188,2020-11-18,16:01:16,16:23:52,NA,incomplete,24,shape,1,left,Green_Circle_Dots_4.jpg,Blue_Circle_Chess_3.jpg,Green_Plus_Stripes_2.jpg,left,982.845000002184,true,NA,true
CbkGWxsL,3087lxlj7ptluqx9bvztb5ithyq0fq,3pb5a5bd0zj7dlriygvmxpok3zm7g6,CbkGWxsL,2020-0188,2020-11-18,16:01:16,16:23:52,NA,incomplete,25,shape,0,left,Green_Star_Dots_4.jpg,Purple_Star_Stripes_1.jpg,Green_Circle_Chess_3.jpg,left,1108.495000000461,true,NA,true
CbkGWxsL,3087lxlj7ptluqx9bvztb5ithyq0fq,3pb5a5bd0zj7dlriygvmxpok3zm7g6,CbkGWxsL,2020-0188,2020-11-18,16:01:16,16:23:52,NA,incomplete,26,shape,0,right,Red_Triangle_Stripes_4.jpg,Red_Circle_Grid_3.jpg,Green_Triangle_Chess_1.jpg,right,1099.905000002822,true,NA,true
CbkGWxsL,3087lxlj7ptluqx9bvztb5ithyq0fq,3pb5a5bd0zj7dlriygvmxpok3zm7g6,CbkGWxsL,2020-0188,2020-11-18,16:01:16,16:23:52,NA,incomplete,27,shape,0,right,Red_Triangle_Grid_4.jpg,Red_Circle_Stripes_1.jpg,Green_Triangle_Dots_2.jpg,right,1207.4549999997253,true,NA,true
CbkGWxsL,3087lxlj7ptluqx9bvztb5ithyq0fq,3pb5a5bd0zj7dlriygvmxpok3zm7g6,CbkGWxsL,2020-0188,2020-11-18,16:01:16,16:23:52,NA,incomplete,28,shape,1,right,Purple_Circle_Stripes_4.jpg,Purple_Plus_Dots_3.jpg,Green_Circle_Chess_2.jpg,right,1067.8450000014855,true,NA,true
CbkGWxsL,3087lxlj7ptluqx9bvztb5ithyq0fq,3pb5a5bd0zj7dlriygvmxpok3zm7g6,CbkGWxsL,2020-0188,2020-11-18,16:01:16,16:23:52,NA,incomplete,29,shape,1,right,Purple_Circle_Dots_3.jpg,Purple_Star_Stripes_4.jpg,Red_Circle_Chess_1.jpg,right,1052.260000000475,true,NA,true
CbkGWxsL,3087lxlj7ptluqx9bvztb5ithyq0fq,3pb5a5bd0zj7dlriygvmxpok3zm7g6,CbkGWxsL,2020-0188,2020-11-18,16:01:16,16:23:52,NA,incomplete,30,shape,1,left,Green_Star_Stripes_3.jpg,Red_Star_Grid_4.jpg,Green_Circle_Chess_1.jpg,left,984.5899999999674,true,NA,true
CbkGWxsL,3087lxlj7ptluqx9bvztb5ithyq0fq,3pb5a5bd0zj7dlriygvmxpok3zm7g6,CbkGWxsL,2020-0188,2020-11-18,16:01:16,16:23:52,NA,incomplete,31,shape,0,right,Purple_Plus_Grid_1.jpg,Purple_Star_Dots_4.jpg,Blue_Plus_Chess_3.jpg,right,1146.7449999981327,true,NA,true
CbkGWxsL,3087lxlj7ptluqx9bvztb5ithyq0fq,3pb5a5bd0zj7dlriygvmxpok3zm7g6,CbkGWxsL,2020-0188,2020-11-18,16:01:16,16:23:52,NA,incomplete,32,shape,1,left,Red_Plus_Dots_4.jpg,Blue_Plus_Chess_1.jpg,Red_Triangle_Stripes_2.jpg,left,939.2499999995343,true,NA,true
CbkGWxsL,3087lxlj7ptluqx9bvztb5ithyq0fq,3pb5a5bd0zj7dlriygvmxpok3zm7g6,CbkGWxsL,2020-0188,2020-11-18,16:01:16,16:23:52,NA,incomplete,33,shape,1,left,Purple_Circle_Grid_1.jpg,Green_Circle_Stripes_2.jpg,Purple_Triangle_Dots_4.jpg,left,1104.620000001858,true,NA,true
CbkGWxsL,3087lxlj7ptluqx9bvztb5ithyq0fq,3pb5a5bd0zj7dlriygvmxpok3zm7g6,CbkGWxsL,2020-0188,2020-11-18,16:01:16,16:23:52,NA,incomplete,34,shape,1,right,Blue_Triangle_Dots_2.jpg,Blue_Plus_Chess_1.jpg,Green_Triangle_Grid_3.jpg,right,961.4049999981653,true,NA,true
CbkGWxsL,3087lxlj7ptluqx9bvztb5ithyq0fq,3pb5a5bd0zj7dlriygvmxpok3zm7g6,CbkGWxsL,2020-0188,2020-11-18,16:01:16,16:23:52,NA,incomplete,35,shape,1,left,Green_Triangle_Chess_2.jpg,Blue_Triangle_Grid_1.jpg,Green_Circle_Stripes_3.jpg,left,854.7699999980396,true,NA,true
CbkGWxsL,3087lxlj7ptluqx9bvztb5ithyq0fq,3pb5a5bd0zj7dlriygvmxpok3zm7g6,CbkGWxsL,2020-0188,2020-11-18,16:01:16,16:23:52,NA,incomplete,36,shape,1,left,Green_Plus_Grid_4.jpg,Purple_Plus_Dots_2.jpg,Green_Star_Stripes_3.jpg,left,1706.8699999981327,true,NA,true
CbkGWxsL,3087lxlj7ptluqx9bvztb5ithyq0fq,3pb5a5bd0zj7dlriygvmxpok3zm7g6,CbkGWxsL,2020-0188,2020-11-18,16:01:16,16:23:52,NA,incomplete,37,shape,1,right,Blue_Circle_Dots_4.jpg,Blue_Triangle_Grid_3.jpg,Purple_Circle_Stripes_1.jpg,right,993.2499999995343,true,NA,true
CbkGWxsL,3087lxlj7ptluqx9bvztb5ithyq0fq,3pb5a5bd0zj7dlriygvmxpok3zm7g6,CbkGWxsL,2020-0188,2020-11-18,16:01:16,16:23:52,NA,incomplete,38,shape,1,right,Purple_Circle_Chess_4.jpg,Purple_Star_Grid_2.jpg,Blue_Circle_Stripes_3.jpg,right,877.9849999991711,true,NA,true
CbkGWxsL,3087lxlj7ptluqx9bvztb5ithyq0fq,3pb5a5bd0zj7dlriygvmxpok3zm7g6,CbkGWxsL,2020-0188,2020-11-18,16:01:16,16:23:52,NA,incomplete,39,shape,1,left,Red_Circle_Grid_1.jpg,Purple_Circle_Chess_2.jpg,Red_Star_Dots_4.jpg,left,902.5000000002328,true,NA,true
CbkGWxsL,3087lxlj7ptluqx9bvztb5ithyq0fq,3pb5a5bd0zj7dlriygvmxpok3zm7g6,CbkGWxsL,2020-0188,2020-11-18,16:01:16,16:23:52,NA,incomplete,0,color,1,left,Red_Triangle_Chess_1.jpg,Red_Plus_Grid_4.jpg,Blue_Triangle_Stripes_2.jpg,left,1555.9949999987148,true,low,false
CbkGWxsL,3087lxlj7ptluqx9bvztb5ithyq0fq,3pb5a5bd0zj7dlriygvmxpok3zm7g6,CbkGWxsL,2020-0188,2020-11-18,16:01:16,16:23:52,NA,incomplete,1,color,1,right,Blue_Plus_Grid_3.jpg,Purple_Plus_Stripes_2.jpg,Blue_Triangle_Dots_4.jpg,right,804.0599999986589,true,low,false
CbkGWxsL,3087lxlj7ptluqx9bvztb5ithyq0fq,3pb5a5bd0zj7dlriygvmxpok3zm7g6,CbkGWxsL,2020-0188,2020-11-18,16:01:16,16:23:52,NA,incomplete,2,color,0,left,Blue_Triangle_Stripes_4.jpg,Blue_Plus_Grid_2.jpg,Green_Triangle_Chess_1.jpg,left,710.05000000156,true,low,false
CbkGWxsL,3087lxlj7ptluqx9bvztb5ithyq0fq,3pb5a5bd0zj7dlriygvmxpok3zm7g6,CbkGWxsL,2020-0188,2020-11-18,16:01:16,16:23:52,NA,incomplete,3,color,1,left,Purple_Triangle_Chess_4.jpg,Purple_Plus_Grid_2.jpg,Green_Triangle_Dots_1.jpg,right,1032.4550000004238,false,low,false
CbkGWxsL,3087lxlj7ptluqx9bvztb5ithyq0fq,3pb5a5bd0zj7dlriygvmxpok3zm7g6,CbkGWxsL,2020-0188,2020-11-18,16:01:16,16:23:52,NA,incomplete,4,color,1,left,Blue_Circle_Stripes_3.jpg,Blue_Plus_Grid_1.jpg,Purple_Circle_Dots_2.jpg,left,1628.4449999984354,true,low,false
CbkGWxsL,3087lxlj7ptluqx9bvztb5ithyq0fq,3pb5a5bd0zj7dlriygvmxpok3zm7g6,CbkGWxsL,2020-0188,2020-11-18,16:01:16,16:23:52,NA,incomplete,5,color,1,right,Red_Triangle_Grid_2.jpg,Blue_Triangle_Stripes_1.jpg,Red_Plus_Dots_4.jpg,right,973.2400000030175,true,low,false
CbkGWxsL,3087lxlj7ptluqx9bvztb5ithyq0fq,3pb5a5bd0zj7dlriygvmxpok3zm7g6,CbkGWxsL,2020-0188,2020-11-18,16:01:16,16:23:52,NA,incomplete,6,color,1,left,Green_Plus_Chess_2.jpg,Green_Triangle_Dots_4.jpg,Red_Plus_Grid_3.jpg,left,722.620000000461,true,low,false
CbkGWxsL,3087lxlj7ptluqx9bvztb5ithyq0fq,3pb5a5bd0zj7dlriygvmxpok3zm7g6,CbkGWxsL,2020-0188,2020-11-18,16:01:16,16:23:52,NA,incomplete,7,color,1,right,Green_Triangle_Chess_1.jpg,Red_Triangle_Grid_3.jpg,Green_Circle_Stripes_4.jpg,right,771.2500000016298,true,low,false
CbkGWxsL,3087lxlj7ptluqx9bvztb5ithyq0fq,3pb5a5bd0zj7dlriygvmxpok3zm7g6,CbkGWxsL,2020-0188,2020-11-18,16:01:16,16:23:52,NA,incomplete,8,color,1,right,Blue_Star_Dots_2.jpg,Purple_Star_Grid_4.jpg,Blue_Circle_Stripes_3.jpg,right,855.9500000010012,true,low,false
CbkGWxsL,3087lxlj7ptluqx9bvztb5ithyq0fq,3pb5a5bd0zj7dlriygvmxpok3zm7g6,CbkGWxsL,2020-0188,2020-11-18,16:01:16,16:23:52,NA,incomplete,9,color,1,left,Purple_Circle_Grid_1.jpg,Purple_Plus_Stripes_3.jpg,Red_Circle_Dots_4.jpg,left,1018.1049999991665,true,low,false
CbkGWxsL,3087lxlj7ptluqx9bvztb5ithyq0fq,3pb5a5bd0zj7dlriygvmxpok3zm7g6,CbkGWxsL,2020-0188,2020-11-18,16:01:16,16:23:52,NA,incomplete,10,color,1,right,Purple_Star_Chess_1.jpg,Blue_Star_Stripes_4.jpg,Purple_Triangle_Dots_3.jpg,right,678.8200000009965,true,low,false
CbkGWxsL,3087lxlj7ptluqx9bvztb5ithyq0fq,3pb5a5bd0zj7dlriygvmxpok3zm7g6,CbkGWxsL,2020-0188,2020-11-18,16:01:16,16:23:52,NA,incomplete,11,color,1,right,Green_Circle_Chess_4.jpg,Blue_Circle_Dots_2.jpg,Green_Plus_Stripes_3.jpg,right,1129.3650000006892,true,low,false
CbkGWxsL,3087lxlj7ptluqx9bvztb5ithyq0fq,3pb5a5bd0zj7dlriygvmxpok3zm7g6,CbkGWxsL,2020-0188,2020-11-18,16:01:16,16:23:52,NA,incomplete,12,color,1,right,Purple_Triangle_Stripes_1.jpg,Red_Triangle_Chess_4.jpg,Purple_Plus_Grid_2.jpg,right,727.7649999996647,true,low,false
CbkGWxsL,3087lxlj7ptluqx9bvztb5ithyq0fq,3pb5a5bd0zj7dlriygvmxpok3zm7g6,CbkGWxsL,2020-0188,2020-11-18,16:01:16,16:23:52,NA,incomplete,13,color,0,left,Red_Star_Chess_4.jpg,Red_Circle_Stripes_1.jpg,Green_Star_Grid_2.jpg,left,800.3300000018207,true,low,false
CbkGWxsL,3087lxlj7ptluqx9bvztb5ithyq0fq,3pb5a5bd0zj7dlriygvmxpok3zm7g6,CbkGWxsL,2020-0188,2020-11-18,16:01:16,16:23:52,NA,incomplete,14,color,1,right,Purple_Star_Stripes_3.jpg,Green_Star_Dots_4.jpg,Purple_Triangle_Chess_1.jpg,right,796.875,true,low,false
CbkGWxsL,3087lxlj7ptluqx9bvztb5ithyq0fq,3pb5a5bd0zj7dlriygvmxpok3zm7g6,CbkGWxsL,2020-0188,2020-11-18,16:01:16,16:23:52,NA,incomplete,15,color,1,right,Blue_Star_Grid_3.jpg,Purple_Star_Dots_4.jpg,Blue_Plus_Chess_1.jpg,right,670.7199999983422,true,low,false
CbkGWxsL,3087lxlj7ptluqx9bvztb5ithyq0fq,3pb5a5bd0zj7dlriygvmxpok3zm7g6,CbkGWxsL,2020-0188,2020-11-18,16:01:16,16:23:52,NA,incomplete,16,color,0,right,Red_Star_Chess_4.jpg,Purple_Star_Stripes_3.jpg,Red_Triangle_Grid_1.jpg,right,1114.7399999973131,true,low,false
CbkGWxsL,3087lxlj7ptluqx9bvztb5ithyq0fq,3pb5a5bd0zj7dlriygvmxpok3zm7g6,CbkGWxsL,2020-0188,2020-11-18,16:01:16,16:23:52,NA,incomplete,17,color,1,right,Purple_Triangle_Grid_1.jpg,Red_Triangle_Dots_3.jpg,Purple_Star_Chess_4.jpg,right,698.2150000003166,true,low,false
CbkGWxsL,3087lxlj7ptluqx9bvztb5ithyq0fq,3pb5a5bd0zj7dlriygvmxpok3zm7g6,CbkGWxsL,2020-0188,2020-11-18,16:01:16,16:23:52,NA,incomplete,18,color,1,left,Purple_Star_Dots_1.jpg,Purple_Triangle_Stripes_4.jpg,Blue_Star_Chess_3.jpg,left,707.7199999985751,true,low,false
CbkGWxsL,3087lxlj7ptluqx9bvztb5ithyq0fq,3pb5a5bd0zj7dlriygvmxpok3zm7g6,CbkGWxsL,2020-0188,2020-11-18,16:01:16,16:23:52,NA,incomplete,19,color,0,right,Purple_Plus_Dots_3.jpg,Blue_Plus_Chess_1.jpg,Purple_Star_Grid_2.jpg,right,1029.3200000014622,true,low,false
CbkGWxsL,3087lxlj7ptluqx9bvztb5ithyq0fq,3pb5a5bd0zj7dlriygvmxpok3zm7g6,CbkGWxsL,2020-0188,2020-11-18,16:01:16,16:23:52,NA,incomplete,20,color,0,right,Blue_Circle_Chess_3.jpg,Purple_Circle_Stripes_2.jpg,Blue_Star_Dots_1.jpg,right,1504.1149999996414,true,low,false
CbkGWxsL,3087lxlj7ptluqx9bvztb5ithyq0fq,3pb5a5bd0zj7dlriygvmxpok3zm7g6,CbkGWxsL,2020-0188,2020-11-18,16:01:16,16:23:52,NA,incomplete,21,color,1,right,Purple_Star_Dots_1.jpg,Blue_Star_Grid_2.jpg,Purple_Plus_Chess_4.jpg,right,668.9899999983609,true,low,false
CbkGWxsL,3087lxlj7ptluqx9bvztb5ithyq0fq,3pb5a5bd0zj7dlriygvmxpok3zm7g6,CbkGWxsL,2020-0188,2020-11-18,16:01:16,16:23:52,NA,incomplete,22,color,0,left,Purple_Triangle_Dots_3.jpg,Purple_Plus_Chess_2.jpg,Green_Triangle_Stripes_1.jpg,none,0,false,low,false
CbkGWxsL,3087lxlj7ptluqx9bvztb5ithyq0fq,3pb5a5bd0zj7dlriygvmxpok3zm7g6,CbkGWxsL,2020-0188,2020-11-18,16:01:16,16:23:52,NA,incomplete,23,color,1,left,Green_Circle_Stripes_4.jpg,Green_Triangle_Grid_2.jpg,Purple_Circle_Dots_1.jpg,left,869.0400000014342,true,low,false
CbkGWxsL,3087lxlj7ptluqx9bvztb5ithyq0fq,3pb5a5bd0zj7dlriygvmxpok3zm7g6,CbkGWxsL,2020-0188,2020-11-18,16:01:16,16:23:52,NA,incomplete,24,color,1,right,Blue_Plus_Stripes_3.jpg,Purple_Plus_Chess_4.jpg,Blue_Circle_Dots_2.jpg,right,734.0949999997392,true,low,false
CbkGWxsL,3087lxlj7ptluqx9bvztb5ithyq0fq,3pb5a5bd0zj7dlriygvmxpok3zm7g6,CbkGWxsL,2020-0188,2020-11-18,16:01:16,16:23:52,NA,incomplete,25,color,1,left,Blue_Plus_Dots_3.jpg,Blue_Star_Stripes_1.jpg,Green_Plus_Grid_2.jpg,left,789.2949999986449,true,low,false
CbkGWxsL,3087lxlj7ptluqx9bvztb5ithyq0fq,3pb5a5bd0zj7dlriygvmxpok3zm7g6,CbkGWxsL,2020-0188,2020-11-18,16:01:16,16:23:52,NA,incomplete,26,color,1,left,Purple_Plus_Dots_3.jpg,Purple_Circle_Chess_2.jpg,Green_Plus_Grid_1.jpg,left,785.2100000018254,true,low,false
CbkGWxsL,3087lxlj7ptluqx9bvztb5ithyq0fq,3pb5a5bd0zj7dlriygvmxpok3zm7g6,CbkGWxsL,2020-0188,2020-11-18,16:01:16,16:23:52,NA,incomplete,27,color,1,left,Purple_Circle_Dots_2.jpg,Purple_Plus_Grid_3.jpg,Green_Circle_Stripes_4.jpg,left,638.7299999987008,true,low,false
CbkGWxsL,3087lxlj7ptluqx9bvztb5ithyq0fq,3pb5a5bd0zj7dlriygvmxpok3zm7g6,CbkGWxsL,2020-0188,2020-11-18,16:01:16,16:23:52,NA,incomplete,28,color,1,left,Green_Star_Chess_4.jpg,Green_Triangle_Grid_1.jpg,Red_Star_Stripes_2.jpg,left,569.7099999997299,true,low,false
CbkGWxsL,3087lxlj7ptluqx9bvztb5ithyq0fq,3pb5a5bd0zj7dlriygvmxpok3zm7g6,CbkGWxsL,2020-0188,2020-11-18,16:01:16,16:23:52,NA,incomplete,29,color,0,right,Green_Triangle_Stripes_2.jpg,Blue_Triangle_Grid_1.jpg,Green_Circle_Chess_4.jpg,right,558.6300000031479,true,low,false
CbkGWxsL,3087lxlj7ptluqx9bvztb5ithyq0fq,3pb5a5bd0zj7dlriygvmxpok3zm7g6,CbkGWxsL,2020-0188,2020-11-18,16:01:16,16:23:52,NA,incomplete,30,shape,1,right,Purple_Star_Chess_4.jpg,Purple_Circle_Dots_2.jpg,Red_Star_Stripes_3.jpg,left,652.9350000019185,false,low,false
CbkGWxsL,3087lxlj7ptluqx9bvztb5ithyq0fq,3pb5a5bd0zj7dlriygvmxpok3zm7g6,CbkGWxsL,2020-0188,2020-11-18,16:01:16,16:23:52,NA,incomplete,31,shape,1,right,Red_Triangle_Grid_3.jpg,Red_Circle_Stripes_1.jpg,Blue_Triangle_Dots_4.jpg,right,998.9800000003306,true,low,false
CbkGWxsL,3087lxlj7ptluqx9bvztb5ithyq0fq,3pb5a5bd0zj7dlriygvmxpok3zm7g6,CbkGWxsL,2020-0188,2020-11-18,16:01:16,16:23:52,NA,incomplete,32,shape,1,right,Purple_Star_Chess_4.jpg,Purple_Triangle_Dots_2.jpg,Blue_Star_Grid_3.jpg,right,796.3600000003353,true,low,false
CbkGWxsL,3087lxlj7ptluqx9bvztb5ithyq0fq,3pb5a5bd0zj7dlriygvmxpok3zm7g6,CbkGWxsL,2020-0188,2020-11-18,16:01:16,16:23:52,NA,incomplete,33,shape,0,right,Blue_Plus_Chess_2.jpg,Blue_Star_Stripes_3.jpg,Red_Plus_Dots_4.jpg,right,800.8499999996275,true,low,false
CbkGWxsL,3087lxlj7ptluqx9bvztb5ithyq0fq,3pb5a5bd0zj7dlriygvmxpok3zm7g6,CbkGWxsL,2020-0188,2020-11-18,16:01:16,16:23:52,NA,incomplete,34,shape,1,left,Blue_Triangle_Stripes_1.jpg,Green_Triangle_Chess_3.jpg,Blue_Star_Grid_2.jpg,left,899.3800000025658,true,low,false
CbkGWxsL,3087lxlj7ptluqx9bvztb5ithyq0fq,3pb5a5bd0zj7dlriygvmxpok3zm7g6,CbkGWxsL,2020-0188,2020-11-18,16:01:16,16:23:52,NA,incomplete,35,shape,0,left,Blue_Plus_Chess_4.jpg,Green_Plus_Stripes_2.jpg,Blue_Star_Grid_3.jpg,right,1021.9899999974295,false,low,false
CbkGWxsL,3087lxlj7ptluqx9bvztb5ithyq0fq,3pb5a5bd0zj7dlriygvmxpok3zm7g6,CbkGWxsL,2020-0188,2020-11-18,16:01:16,16:23:52,NA,incomplete,36,shape,1,right,Blue_Star_Dots_4.jpg,Blue_Triangle_Grid_1.jpg,Red_Star_Stripes_2.jpg,right,945.6250000002328,true,low,false
CbkGWxsL,3087lxlj7ptluqx9bvztb5ithyq0fq,3pb5a5bd0zj7dlriygvmxpok3zm7g6,CbkGWxsL,2020-0188,2020-11-18,16:01:16,16:23:52,NA,incomplete,37,shape,1,right,Purple_Star_Dots_2.jpg,Purple_Triangle_Stripes_4.jpg,Red_Star_Grid_1.jpg,right,864.3400000000838,true,low,false
CbkGWxsL,3087lxlj7ptluqx9bvztb5ithyq0fq,3pb5a5bd0zj7dlriygvmxpok3zm7g6,CbkGWxsL,2020-0188,2020-11-18,16:01:16,16:23:52,NA,incomplete,38,shape,0,right,Purple_Circle_Chess_4.jpg,Purple_Plus_Dots_1.jpg,Blue_Circle_Stripes_2.jpg,right,642.0699999979697,true,low,false
CbkGWxsL,3087lxlj7ptluqx9bvztb5ithyq0fq,3pb5a5bd0zj7dlriygvmxpok3zm7g6,CbkGWxsL,2020-0188,2020-11-18,16:01:16,16:23:52,NA,incomplete,39,shape,1,left,Green_Plus_Chess_3.jpg,Blue_Plus_Stripes_2.jpg,Green_Star_Dots_4.jpg,left,1333.6950000012293,true,low,false
CbkGWxsL,3087lxlj7ptluqx9bvztb5ithyq0fq,3pb5a5bd0zj7dlriygvmxpok3zm7g6,CbkGWxsL,2020-0188,2020-11-18,16:01:16,16:23:52,NA,incomplete,40,shape,1,left,Purple_Triangle_Stripes_3.jpg,Blue_Triangle_Dots_1.jpg,Purple_Star_Grid_2.jpg,right,660.735000001383,false,low,false
CbkGWxsL,3087lxlj7ptluqx9bvztb5ithyq0fq,3pb5a5bd0zj7dlriygvmxpok3zm7g6,CbkGWxsL,2020-0188,2020-11-18,16:01:16,16:23:52,NA,incomplete,41,shape,1,left,Red_Star_Dots_3.jpg,Blue_Star_Chess_4.jpg,Red_Circle_Grid_2.jpg,left,886.9000000013039,true,low,false
CbkGWxsL,3087lxlj7ptluqx9bvztb5ithyq0fq,3pb5a5bd0zj7dlriygvmxpok3zm7g6,CbkGWxsL,2020-0188,2020-11-18,16:01:16,16:23:52,NA,incomplete,42,shape,1,right,Green_Plus_Stripes_3.jpg,Green_Circle_Chess_1.jpg,Blue_Plus_Dots_4.jpg,right,951.489999999525,true,low,false
CbkGWxsL,3087lxlj7ptluqx9bvztb5ithyq0fq,3pb5a5bd0zj7dlriygvmxpok3zm7g6,CbkGWxsL,2020-0188,2020-11-18,16:01:16,16:23:52,NA,incomplete,43,shape,1,left,Red_Plus_Dots_1.jpg,Purple_Plus_Grid_4.jpg,Red_Circle_Chess_2.jpg,left,669.0750000015832,true,low,false
CbkGWxsL,3087lxlj7ptluqx9bvztb5ithyq0fq,3pb5a5bd0zj7dlriygvmxpok3zm7g6,CbkGWxsL,2020-0188,2020-11-18,16:01:16,16:23:52,NA,incomplete,44,shape,1,right,Red_Circle_Chess_3.jpg,Red_Triangle_Dots_2.jpg,Purple_Circle_Grid_4.jpg,right,959.4150000012014,true,low,false
CbkGWxsL,3087lxlj7ptluqx9bvztb5ithyq0fq,3pb5a5bd0zj7dlriygvmxpok3zm7g6,CbkGWxsL,2020-0188,2020-11-18,16:01:16,16:23:52,NA,incomplete,45,shape,1,left,Blue_Triangle_Stripes_1.jpg,Purple_Triangle_Grid_3.jpg,Blue_Star_Chess_4.jpg,right,595.2549999966286,false,low,false
CbkGWxsL,3087lxlj7ptluqx9bvztb5ithyq0fq,3pb5a5bd0zj7dlriygvmxpok3zm7g6,CbkGWxsL,2020-0188,2020-11-18,16:01:16,16:23:52,NA,incomplete,46,shape,0,right,Red_Plus_Chess_3.jpg,Red_Circle_Stripes_2.jpg,Purple_Plus_Dots_4.jpg,left,897.6050000019604,false,low,false
CbkGWxsL,3087lxlj7ptluqx9bvztb5ithyq0fq,3pb5a5bd0zj7dlriygvmxpok3zm7g6,CbkGWxsL,2020-0188,2020-11-18,16:01:16,16:23:52,NA,incomplete,47,shape,1,left,Green_Star_Grid_2.jpg,Blue_Star_Chess_4.jpg,Green_Plus_Dots_1.jpg,right,885.1749999994645,false,low,false
CbkGWxsL,3087lxlj7ptluqx9bvztb5ithyq0fq,3pb5a5bd0zj7dlriygvmxpok3zm7g6,CbkGWxsL,2020-0188,2020-11-18,16:01:16,16:23:52,NA,incomplete,48,shape,0,left,Purple_Circle_Stripes_1.jpg,Green_Circle_Grid_2.jpg,Purple_Star_Dots_3.jpg,left,893.0999999974156,true,low,false
CbkGWxsL,3087lxlj7ptluqx9bvztb5ithyq0fq,3pb5a5bd0zj7dlriygvmxpok3zm7g6,CbkGWxsL,2020-0188,2020-11-18,16:01:16,16:23:52,NA,incomplete,49,shape,1,right,Purple_Circle_Stripes_2.jpg,Purple_Star_Chess_4.jpg,Blue_Circle_Grid_1.jpg,right,716.7499999996508,true,low,false
CbkGWxsL,3087lxlj7ptluqx9bvztb5ithyq0fq,3pb5a5bd0zj7dlriygvmxpok3zm7g6,CbkGWxsL,2020-0188,2020-11-18,16:01:16,16:23:52,NA,incomplete,50,shape,1,right,Red_Star_Chess_3.jpg,Red_Plus_Stripes_1.jpg,Blue_Star_Dots_4.jpg,right,804.7650000007125,true,low,false
CbkGWxsL,3087lxlj7ptluqx9bvztb5ithyq0fq,3pb5a5bd0zj7dlriygvmxpok3zm7g6,CbkGWxsL,2020-0188,2020-11-18,16:01:16,16:23:52,NA,incomplete,51,shape,1,right,Purple_Plus_Stripes_2.jpg,Purple_Triangle_Chess_4.jpg,Green_Plus_Grid_1.jpg,left,1145.6700000016717,false,low,false
CbkGWxsL,3087lxlj7ptluqx9bvztb5ithyq0fq,3pb5a5bd0zj7dlriygvmxpok3zm7g6,CbkGWxsL,2020-0188,2020-11-18,16:01:16,16:23:52,NA,incomplete,52,shape,1,right,Blue_Plus_Chess_2.jpg,Blue_Star_Stripes_1.jpg,Purple_Plus_Grid_4.jpg,right,883.2150000015972,true,low,false
CbkGWxsL,3087lxlj7ptluqx9bvztb5ithyq0fq,3pb5a5bd0zj7dlriygvmxpok3zm7g6,CbkGWxsL,2020-0188,2020-11-18,16:01:16,16:23:52,NA,incomplete,53,shape,0,right,Purple_Plus_Chess_3.jpg,Purple_Star_Dots_1.jpg,Red_Plus_Grid_4.jpg,right,762.4150000009686,true,low,false
CbkGWxsL,3087lxlj7ptluqx9bvztb5ithyq0fq,3pb5a5bd0zj7dlriygvmxpok3zm7g6,CbkGWxsL,2020-0188,2020-11-18,16:01:16,16:23:52,NA,incomplete,54,shape,1,right,Purple_Star_Chess_4.jpg,Purple_Triangle_Stripes_1.jpg,Red_Star_Dots_2.jpg,right,887.3099999981932,true,low,false
CbkGWxsL,3087lxlj7ptluqx9bvztb5ithyq0fq,3pb5a5bd0zj7dlriygvmxpok3zm7g6,CbkGWxsL,2020-0188,2020-11-18,16:01:16,16:23:52,NA,incomplete,55,shape,1,right,Blue_Circle_Chess_2.jpg,Blue_Plus_Dots_1.jpg,Green_Circle_Grid_3.jpg,right,737.2199999990407,true,low,false
CbkGWxsL,3087lxlj7ptluqx9bvztb5ithyq0fq,3pb5a5bd0zj7dlriygvmxpok3zm7g6,CbkGWxsL,2020-0188,2020-11-18,16:01:16,16:23:52,NA,incomplete,56,shape,1,left,Green_Triangle_Grid_4.jpg,Red_Triangle_Stripes_2.jpg,Green_Star_Chess_3.jpg,left,1478.309999998659,true,low,false
CbkGWxsL,3087lxlj7ptluqx9bvztb5ithyq0fq,3pb5a5bd0zj7dlriygvmxpok3zm7g6,CbkGWxsL,2020-0188,2020-11-18,16:01:16,16:23:52,NA,incomplete,57,shape,1,right,Green_Circle_Stripes_1.jpg,Green_Star_Dots_2.jpg,Purple_Circle_Grid_4.jpg,none,0,false,low,false
CbkGWxsL,3087lxlj7ptluqx9bvztb5ithyq0fq,3pb5a5bd0zj7dlriygvmxpok3zm7g6,CbkGWxsL,2020-0188,2020-11-18,16:01:16,16:23:52,NA,incomplete,58,shape,1,right,Purple_Triangle_Dots_3.jpg,Purple_Circle_Stripes_2.jpg,Blue_Triangle_Chess_4.jpg,right,890.01499999722,true,low,false
CbkGWxsL,3087lxlj7ptluqx9bvztb5ithyq0fq,3pb5a5bd0zj7dlriygvmxpok3zm7g6,CbkGWxsL,2020-0188,2020-11-18,16:01:16,16:23:52,NA,incomplete,59,shape,1,left,Blue_Plus_Grid_3.jpg,Red_Plus_Dots_1.jpg,Blue_Star_Stripes_4.jpg,left,1132.20999999973,true,low,false
CbkGWxsL,3087lxlj7ptluqx9bvztb5ithyq0fq,3pb5a5bd0zj7dlriygvmxpok3zm7g6,CbkGWxsL,2020-0188,2020-11-18,16:01:16,16:23:52,NA,incomplete,60,color,1,left,Green_Triangle_Dots_3.jpg,Green_Star_Chess_1.jpg,Purple_Triangle_Grid_4.jpg,right,643.1150000026682,false,low,false
CbkGWxsL,3087lxlj7ptluqx9bvztb5ithyq0fq,3pb5a5bd0zj7dlriygvmxpok3zm7g6,CbkGWxsL,2020-0188,2020-11-18,16:01:16,16:23:52,NA,incomplete,61,color,1,right,Purple_Plus_Grid_4.jpg,Red_Plus_Stripes_3.jpg,Purple_Circle_Chess_2.jpg,left,942.4350000007544,false,low,false
CbkGWxsL,3087lxlj7ptluqx9bvztb5ithyq0fq,3pb5a5bd0zj7dlriygvmxpok3zm7g6,CbkGWxsL,2020-0188,2020-11-18,16:01:16,16:23:52,NA,incomplete,62,color,1,left,Red_Triangle_Chess_1.jpg,Red_Plus_Grid_4.jpg,Purple_Triangle_Stripes_3.jpg,right,1638.1799999980722,false,low,false
CbkGWxsL,3087lxlj7ptluqx9bvztb5ithyq0fq,3pb5a5bd0zj7dlriygvmxpok3zm7g6,CbkGWxsL,2020-0188,2020-11-18,16:01:16,16:23:52,NA,incomplete,63,color,1,left,Purple_Triangle_Grid_3.jpg,Purple_Circle_Dots_1.jpg,Red_Triangle_Chess_2.jpg,left,1356.7750000001397,true,low,false
CbkGWxsL,3087lxlj7ptluqx9bvztb5ithyq0fq,3pb5a5bd0zj7dlriygvmxpok3zm7g6,CbkGWxsL,2020-0188,2020-11-18,16:01:16,16:23:52,NA,incomplete,64,color,1,left,Red_Plus_Stripes_1.jpg,Red_Star_Grid_2.jpg,Blue_Plus_Dots_3.jpg,left,996.1149999980116,true,low,false
CbkGWxsL,3087lxlj7ptluqx9bvztb5ithyq0fq,3pb5a5bd0zj7dlriygvmxpok3zm7g6,CbkGWxsL,2020-0188,2020-11-18,16:01:16,16:23:52,NA,incomplete,65,color,1,left,Blue_Plus_Stripes_1.jpg,Blue_Star_Dots_2.jpg,Purple_Plus_Chess_3.jpg,right,1449.205000000773,false,low,false
CbkGWxsL,3087lxlj7ptluqx9bvztb5ithyq0fq,3pb5a5bd0zj7dlriygvmxpok3zm7g6,CbkGWxsL,2020-0188,2020-11-18,16:01:16,16:23:52,NA,incomplete,66,color,1,right,Blue_Plus_Stripes_3.jpg,Red_Plus_Grid_1.jpg,Blue_Circle_Chess_4.jpg,right,932.4950000009267,true,low,false
CbkGWxsL,3087lxlj7ptluqx9bvztb5ithyq0fq,3pb5a5bd0zj7dlriygvmxpok3zm7g6,CbkGWxsL,2020-0188,2020-11-18,16:01:16,16:23:52,NA,incomplete,67,color,0,left,Blue_Circle_Stripes_2.jpg,Blue_Triangle_Grid_1.jpg,Purple_Circle_Chess_4.jpg,left,700.3149999983143,true,low,false
CbkGWxsL,3087lxlj7ptluqx9bvztb5ithyq0fq,3pb5a5bd0zj7dlriygvmxpok3zm7g6,CbkGWxsL,2020-0188,2020-11-18,16:01:16,16:23:52,NA,incomplete,68,color,1,left,Red_Circle_Dots_3.jpg,Red_Triangle_Chess_1.jpg,Blue_Circle_Stripes_4.jpg,left,860.3100000000559,true,low,false
CbkGWxsL,3087lxlj7ptluqx9bvztb5ithyq0fq,3pb5a5bd0zj7dlriygvmxpok3zm7g6,CbkGWxsL,2020-0188,2020-11-18,16:01:16,16:23:52,NA,incomplete,69,color,1,left,Purple_Plus_Stripes_2.jpg,Purple_Star_Grid_4.jpg,Green_Plus_Dots_3.jpg,left,920.7900000000373,true,low,false
CbkGWxsL,3087lxlj7ptluqx9bvztb5ithyq0fq,3pb5a5bd0zj7dlriygvmxpok3zm7g6,CbkGWxsL,2020-0188,2020-11-18,16:01:16,16:23:52,NA,incomplete,70,color,1,left,Green_Triangle_Chess_4.jpg,Green_Star_Grid_3.jpg,Blue_Triangle_Stripes_2.jpg,left,671.4649999993853,true,low,false
CbkGWxsL,3087lxlj7ptluqx9bvztb5ithyq0fq,3pb5a5bd0zj7dlriygvmxpok3zm7g6,CbkGWxsL,2020-0188,2020-11-18,16:01:16,16:23:52,NA,incomplete,71,color,1,left,Red_Circle_Dots_4.jpg,Red_Triangle_Stripes_1.jpg,Purple_Circle_Grid_3.jpg,left,696.3149999974994,true,low,false
CbkGWxsL,3087lxlj7ptluqx9bvztb5ithyq0fq,3pb5a5bd0zj7dlriygvmxpok3zm7g6,CbkGWxsL,2020-0188,2020-11-18,16:01:16,16:23:52,NA,incomplete,72,color,1,left,Blue_Triangle_Dots_3.jpg,Blue_Circle_Chess_4.jpg,Green_Triangle_Stripes_2.jpg,left,648.0300000002608,true,low,false
CbkGWxsL,3087lxlj7ptluqx9bvztb5ithyq0fq,3pb5a5bd0zj7dlriygvmxpok3zm7g6,CbkGWxsL,2020-0188,2020-11-18,16:01:16,16:23:52,NA,incomplete,73,color,0,right,Red_Circle_Grid_4.jpg,Blue_Circle_Chess_1.jpg,Red_Triangle_Dots_2.jpg,right,604.9999999996508,true,low,false
CbkGWxsL,3087lxlj7ptluqx9bvztb5ithyq0fq,3pb5a5bd0zj7dlriygvmxpok3zm7g6,CbkGWxsL,2020-0188,2020-11-18,16:01:16,16:23:52,NA,incomplete,74,color,1,right,Blue_Circle_Dots_3.jpg,Green_Circle_Stripes_1.jpg,Blue_Triangle_Chess_4.jpg,right,560.5249999971129,true,low,false
CbkGWxsL,3087lxlj7ptluqx9bvztb5ithyq0fq,3pb5a5bd0zj7dlriygvmxpok3zm7g6,CbkGWxsL,2020-0188,2020-11-18,16:01:16,16:23:52,NA,incomplete,75,color,1,right,Red_Circle_Grid_1.jpg,Green_Circle_Dots_3.jpg,Red_Plus_Stripes_2.jpg,right,653.0949999977602,true,low,false
CbkGWxsL,3087lxlj7ptluqx9bvztb5ithyq0fq,3pb5a5bd0zj7dlriygvmxpok3zm7g6,CbkGWxsL,2020-0188,2020-11-18,16:01:16,16:23:52,NA,incomplete,76,color,1,left,Red_Triangle_Dots_3.jpg,Red_Plus_Grid_1.jpg,Purple_Triangle_Stripes_4.jpg,left,721.0699999995995,true,low,false
CbkGWxsL,3087lxlj7ptluqx9bvztb5ithyq0fq,3pb5a5bd0zj7dlriygvmxpok3zm7g6,CbkGWxsL,2020-0188,2020-11-18,16:01:16,16:23:52,NA,incomplete,77,color,1,left,Green_Plus_Grid_3.jpg,Green_Circle_Dots_4.jpg,Red_Plus_Stripes_2.jpg,left,679.1000000012573,true,low,false
CbkGWxsL,3087lxlj7ptluqx9bvztb5ithyq0fq,3pb5a5bd0zj7dlriygvmxpok3zm7g6,CbkGWxsL,2020-0188,2020-11-18,16:01:16,16:23:52,NA,incomplete,78,color,1,right,Green_Plus_Chess_3.jpg,Blue_Plus_Grid_4.jpg,Green_Circle_Stripes_2.jpg,right,561.7950000015553,true,low,false
CbkGWxsL,3087lxlj7ptluqx9bvztb5ithyq0fq,3pb5a5bd0zj7dlriygvmxpok3zm7g6,CbkGWxsL,2020-0188,2020-11-18,16:01:16,16:23:52,NA,incomplete,79,color,1,left,Green_Star_Chess_2.jpg,Green_Circle_Stripes_3.jpg,Purple_Star_Grid_4.jpg,left,486.69499999959953,true,low,false
CbkGWxsL,3087lxlj7ptluqx9bvztb5ithyq0fq,3pb5a5bd0zj7dlriygvmxpok3zm7g6,CbkGWxsL,2020-0188,2020-11-18,16:01:16,16:23:52,NA,incomplete,80,color,1,right,Blue_Star_Dots_2.jpg,Green_Star_Stripes_1.jpg,Blue_Plus_Chess_4.jpg,right,535.6450000000186,true,low,false
CbkGWxsL,3087lxlj7ptluqx9bvztb5ithyq0fq,3pb5a5bd0zj7dlriygvmxpok3zm7g6,CbkGWxsL,2020-0188,2020-11-18,16:01:16,16:23:52,NA,incomplete,81,color,1,right,Blue_Plus_Stripes_3.jpg,Red_Plus_Chess_2.jpg,Blue_Triangle_Grid_4.jpg,right,583.9250000027241,true,low,false
CbkGWxsL,3087lxlj7ptluqx9bvztb5ithyq0fq,3pb5a5bd0zj7dlriygvmxpok3zm7g6,CbkGWxsL,2020-0188,2020-11-18,16:01:16,16:23:52,NA,incomplete,82,color,0,left,Purple_Circle_Grid_4.jpg,Purple_Plus_Stripes_3.jpg,Green_Circle_Dots_2.jpg,left,444.21499999950174,true,low,false
CbkGWxsL,3087lxlj7ptluqx9bvztb5ithyq0fq,3pb5a5bd0zj7dlriygvmxpok3zm7g6,CbkGWxsL,2020-0188,2020-11-18,16:01:16,16:23:52,NA,incomplete,83,color,1,right,Purple_Triangle_Dots_2.jpg,Red_Triangle_Chess_1.jpg,Purple_Plus_Grid_4.jpg,right,1038.5249999999069,true,low,false
CbkGWxsL,3087lxlj7ptluqx9bvztb5ithyq0fq,3pb5a5bd0zj7dlriygvmxpok3zm7g6,CbkGWxsL,2020-0188,2020-11-18,16:01:16,16:23:52,NA,incomplete,84,color,1,left,Red_Circle_Stripes_3.jpg,Red_Star_Chess_4.jpg,Green_Circle_Dots_2.jpg,left,625.1600000032922,true,low,false
CbkGWxsL,3087lxlj7ptluqx9bvztb5ithyq0fq,3pb5a5bd0zj7dlriygvmxpok3zm7g6,CbkGWxsL,2020-0188,2020-11-18,16:01:16,16:23:52,NA,incomplete,85,color,1,right,Green_Star_Stripes_3.jpg,Blue_Star_Grid_1.jpg,Green_Plus_Chess_2.jpg,right,533.1649999971269,true,low,false
CbkGWxsL,3087lxlj7ptluqx9bvztb5ithyq0fq,3pb5a5bd0zj7dlriygvmxpok3zm7g6,CbkGWxsL,2020-0188,2020-11-18,16:01:16,16:23:52,NA,incomplete,86,color,1,left,Red_Star_Chess_4.jpg,Red_Circle_Stripes_1.jpg,Purple_Star_Dots_2.jpg,left,580.8500000021886,true,low,false
CbkGWxsL,3087lxlj7ptluqx9bvztb5ithyq0fq,3pb5a5bd0zj7dlriygvmxpok3zm7g6,CbkGWxsL,2020-0188,2020-11-18,16:01:16,16:23:52,NA,incomplete,87,color,1,left,Red_Star_Grid_2.jpg,Red_Triangle_Chess_1.jpg,Blue_Star_Stripes_3.jpg,left,553.8999999989755,true,low,false
CbkGWxsL,3087lxlj7ptluqx9bvztb5ithyq0fq,3pb5a5bd0zj7dlriygvmxpok3zm7g6,CbkGWxsL,2020-0188,2020-11-18,16:01:16,16:23:52,NA,incomplete,88,color,1,right,Blue_Star_Chess_3.jpg,Red_Star_Grid_1.jpg,Blue_Circle_Stripes_2.jpg,right,471.94500000111293,true,low,false
CbkGWxsL,3087lxlj7ptluqx9bvztb5ithyq0fq,3pb5a5bd0zj7dlriygvmxpok3zm7g6,CbkGWxsL,2020-0188,2020-11-18,16:01:16,16:23:52,NA,incomplete,89,color,0,left,Purple_Circle_Chess_2.jpg,Purple_Star_Grid_4.jpg,Red_Circle_Stripes_3.jpg,left,537.7200000002049,true,low,false
CbkGWxsL,3087lxlj7ptluqx9bvztb5ithyq0fq,3pb5a5bd0zj7dlriygvmxpok3zm7g6,CbkGWxsL,2020-0188,2020-11-18,16:01:16,16:23:52,NA,incomplete,90,shape,1,left,Green_Triangle_Dots_2.jpg,Purple_Triangle_Grid_3.jpg,Green_Star_Chess_4.jpg,right,696.025000001071,false,low,false
CbkGWxsL,3087lxlj7ptluqx9bvztb5ithyq0fq,3pb5a5bd0zj7dlriygvmxpok3zm7g6,CbkGWxsL,2020-0188,2020-11-18,16:01:16,16:23:52,NA,incomplete,91,shape,1,right,Green_Plus_Stripes_3.jpg,Green_Star_Grid_1.jpg,Red_Plus_Chess_2.jpg,right,777.8050000015646,true,low,false
CbkGWxsL,3087lxlj7ptluqx9bvztb5ithyq0fq,3pb5a5bd0zj7dlriygvmxpok3zm7g6,CbkGWxsL,2020-0188,2020-11-18,16:01:16,16:23:52,NA,incomplete,92,shape,1,right,Blue_Circle_Dots_1.jpg,Blue_Plus_Stripes_2.jpg,Red_Circle_Chess_4.jpg,left,589.5500000006286,false,low,false
CbkGWxsL,3087lxlj7ptluqx9bvztb5ithyq0fq,3pb5a5bd0zj7dlriygvmxpok3zm7g6,CbkGWxsL,2020-0188,2020-11-18,16:01:16,16:23:52,NA,incomplete,93,shape,0,right,Blue_Triangle_Dots_4.jpg,Blue_Star_Grid_3.jpg,Red_Triangle_Chess_2.jpg,right,995.2549999980256,true,low,false
CbkGWxsL,3087lxlj7ptluqx9bvztb5ithyq0fq,3pb5a5bd0zj7dlriygvmxpok3zm7g6,CbkGWxsL,2020-0188,2020-11-18,16:01:16,16:23:52,NA,incomplete,94,shape,1,right,Red_Circle_Chess_1.jpg,Red_Triangle_Dots_3.jpg,Purple_Circle_Grid_4.jpg,right,759.6100000009174,true,low,false
CbkGWxsL,3087lxlj7ptluqx9bvztb5ithyq0fq,3pb5a5bd0zj7dlriygvmxpok3zm7g6,CbkGWxsL,2020-0188,2020-11-18,16:01:16,16:23:52,NA,incomplete,95,shape,1,left,Blue_Star_Dots_2.jpg,Red_Star_Grid_4.jpg,Blue_Circle_Chess_3.jpg,right,830.1649999994552,false,low,false
CbkGWxsL,3087lxlj7ptluqx9bvztb5ithyq0fq,3pb5a5bd0zj7dlriygvmxpok3zm7g6,CbkGWxsL,2020-0188,2020-11-18,16:01:16,16:23:52,NA,incomplete,96,shape,1,right,Purple_Triangle_Dots_3.jpg,Purple_Circle_Grid_1.jpg,Red_Triangle_Stripes_2.jpg,right,657.820000000298,true,low,false
CbkGWxsL,3087lxlj7ptluqx9bvztb5ithyq0fq,3pb5a5bd0zj7dlriygvmxpok3zm7g6,CbkGWxsL,2020-0188,2020-11-18,16:01:16,16:23:52,NA,incomplete,97,shape,1,right,Red_Circle_Dots_2.jpg,Red_Triangle_Grid_1.jpg,Purple_Circle_Chess_3.jpg,right,774.2550000002375,true,low,false
CbkGWxsL,3087lxlj7ptluqx9bvztb5ithyq0fq,3pb5a5bd0zj7dlriygvmxpok3zm7g6,CbkGWxsL,2020-0188,2020-11-18,16:01:16,16:23:52,NA,incomplete,98,shape,1,left,Blue_Circle_Dots_2.jpg,Red_Circle_Grid_3.jpg,Blue_Plus_Chess_1.jpg,left,608.8149999994785,true,low,false
CbkGWxsL,3087lxlj7ptluqx9bvztb5ithyq0fq,3pb5a5bd0zj7dlriygvmxpok3zm7g6,CbkGWxsL,2020-0188,2020-11-18,16:01:16,16:23:52,NA,incomplete,99,shape,1,left,Green_Star_Grid_4.jpg,Blue_Star_Stripes_1.jpg,Green_Circle_Chess_3.jpg,left,925.0000000030268,true,low,false
CbkGWxsL,3087lxlj7ptluqx9bvztb5ithyq0fq,3pb5a5bd0zj7dlriygvmxpok3zm7g6,CbkGWxsL,2020-0188,2020-11-18,16:01:16,16:23:52,NA,incomplete,100,shape,0,right,Purple_Plus_Dots_1.jpg,Purple_Circle_Stripes_2.jpg,Green_Plus_Grid_3.jpg,right,669.4800000005635,true,low,false
CbkGWxsL,3087lxlj7ptluqx9bvztb5ithyq0fq,3pb5a5bd0zj7dlriygvmxpok3zm7g6,CbkGWxsL,2020-0188,2020-11-18,16:01:16,16:23:52,NA,incomplete,101,shape,1,right,Green_Plus_Chess_4.jpg,Green_Circle_Stripes_2.jpg,Purple_Plus_Dots_1.jpg,right,942.3050000005169,true,low,false
CbkGWxsL,3087lxlj7ptluqx9bvztb5ithyq0fq,3pb5a5bd0zj7dlriygvmxpok3zm7g6,CbkGWxsL,2020-0188,2020-11-18,16:01:16,16:23:52,NA,incomplete,102,shape,0,left,Green_Plus_Dots_2.jpg,Blue_Plus_Chess_4.jpg,Green_Circle_Grid_3.jpg,left,727.4500000021653,true,low,false
CbkGWxsL,3087lxlj7ptluqx9bvztb5ithyq0fq,3pb5a5bd0zj7dlriygvmxpok3zm7g6,CbkGWxsL,2020-0188,2020-11-18,16:01:16,16:23:52,NA,incomplete,103,shape,1,right,Purple_Plus_Grid_1.jpg,Purple_Star_Chess_4.jpg,Blue_Plus_Dots_2.jpg,right,1116.235000001383,true,low,false
CbkGWxsL,3087lxlj7ptluqx9bvztb5ithyq0fq,3pb5a5bd0zj7dlriygvmxpok3zm7g6,CbkGWxsL,2020-0188,2020-11-18,16:01:16,16:23:52,NA,incomplete,104,shape,1,left,Green_Plus_Chess_1.jpg,Blue_Plus_Grid_2.jpg,Green_Triangle_Dots_3.jpg,left,685.73500000278,true,low,false
CbkGWxsL,3087lxlj7ptluqx9bvztb5ithyq0fq,3pb5a5bd0zj7dlriygvmxpok3zm7g6,CbkGWxsL,2020-0188,2020-11-18,16:01:16,16:23:52,NA,incomplete,105,shape,1,left,Green_Triangle_Grid_2.jpg,Purple_Triangle_Dots_4.jpg,Green_Star_Chess_3.jpg,right,558.3350000014761,false,low,false
CbkGWxsL,3087lxlj7ptluqx9bvztb5ithyq0fq,3pb5a5bd0zj7dlriygvmxpok3zm7g6,CbkGWxsL,2020-0188,2020-11-18,16:01:16,16:23:52,NA,incomplete,106,shape,1,right,Green_Plus_Stripes_3.jpg,Green_Star_Grid_1.jpg,Blue_Plus_Chess_4.jpg,right,1403.4350000001723,true,low,false
CbkGWxsL,3087lxlj7ptluqx9bvztb5ithyq0fq,3pb5a5bd0zj7dlriygvmxpok3zm7g6,CbkGWxsL,2020-0188,2020-11-18,16:01:16,16:23:52,NA,incomplete,107,shape,0,left,Purple_Circle_Stripes_1.jpg,Green_Circle_Grid_3.jpg,Purple_Plus_Chess_4.jpg,left,783.4399999992456,true,low,false
CbkGWxsL,3087lxlj7ptluqx9bvztb5ithyq0fq,3pb5a5bd0zj7dlriygvmxpok3zm7g6,CbkGWxsL,2020-0188,2020-11-18,16:01:16,16:23:52,NA,incomplete,108,shape,1,right,Green_Circle_Stripes_4.jpg,Green_Triangle_Dots_1.jpg,Red_Circle_Grid_3.jpg,right,692.9600000001956,true,low,false
CbkGWxsL,3087lxlj7ptluqx9bvztb5ithyq0fq,3pb5a5bd0zj7dlriygvmxpok3zm7g6,CbkGWxsL,2020-0188,2020-11-18,16:01:16,16:23:52,NA,incomplete,109,shape,0,left,Green_Star_Dots_4.jpg,Purple_Star_Chess_1.jpg,Green_Circle_Stripes_3.jpg,left,773.7999999989988,true,low,false
CbkGWxsL,3087lxlj7ptluqx9bvztb5ithyq0fq,3pb5a5bd0zj7dlriygvmxpok3zm7g6,CbkGWxsL,2020-0188,2020-11-18,16:01:16,16:23:52,NA,incomplete,110,shape,1,right,Green_Triangle_Stripes_2.jpg,Green_Star_Grid_4.jpg,Purple_Triangle_Dots_3.jpg,left,818.9600000005448,false,low,false
CbkGWxsL,3087lxlj7ptluqx9bvztb5ithyq0fq,3pb5a5bd0zj7dlriygvmxpok3zm7g6,CbkGWxsL,2020-0188,2020-11-18,16:01:16,16:23:52,NA,incomplete,111,shape,1,right,Red_Circle_Stripes_3.jpg,Red_Star_Dots_1.jpg,Green_Circle_Grid_2.jpg,right,935.1300000016345,true,low,false
CbkGWxsL,3087lxlj7ptluqx9bvztb5ithyq0fq,3pb5a5bd0zj7dlriygvmxpok3zm7g6,CbkGWxsL,2020-0188,2020-11-18,16:01:16,16:23:52,NA,incomplete,112,shape,1,right,Red_Circle_Chess_4.jpg,Red_Plus_Grid_1.jpg,Green_Circle_Stripes_3.jpg,right,1711.0800000008894,true,low,false
CbkGWxsL,3087lxlj7ptluqx9bvztb5ithyq0fq,3pb5a5bd0zj7dlriygvmxpok3zm7g6,CbkGWxsL,2020-0188,2020-11-18,16:01:16,16:23:52,NA,incomplete,113,shape,0,left,Purple_Circle_Chess_3.jpg,Green_Circle_Stripes_1.jpg,Purple_Triangle_Grid_2.jpg,left,805.420000000624,true,low,false
CbkGWxsL,3087lxlj7ptluqx9bvztb5ithyq0fq,3pb5a5bd0zj7dlriygvmxpok3zm7g6,CbkGWxsL,2020-0188,2020-11-18,16:01:16,16:23:52,NA,incomplete,114,shape,1,right,Green_Triangle_Stripes_4.jpg,Green_Plus_Dots_1.jpg,Blue_Triangle_Grid_3.jpg,right,1561.6049999989336,true,low,false
CbkGWxsL,3087lxlj7ptluqx9bvztb5ithyq0fq,3pb5a5bd0zj7dlriygvmxpok3zm7g6,CbkGWxsL,2020-0188,2020-11-18,16:01:16,16:23:52,NA,incomplete,115,shape,1,right,Red_Triangle_Chess_4.jpg,Red_Star_Dots_3.jpg,Blue_Triangle_Stripes_1.jpg,right,680.4100000008475,true,low,false
CbkGWxsL,3087lxlj7ptluqx9bvztb5ithyq0fq,3pb5a5bd0zj7dlriygvmxpok3zm7g6,CbkGWxsL,2020-0188,2020-11-18,16:01:16,16:23:52,NA,incomplete,116,shape,1,left,Purple_Triangle_Stripes_3.jpg,Blue_Triangle_Chess_2.jpg,Purple_Plus_Grid_4.jpg,left,689.68500000122,true,low,false
CbkGWxsL,3087lxlj7ptluqx9bvztb5ithyq0fq,3pb5a5bd0zj7dlriygvmxpok3zm7g6,CbkGWxsL,2020-0188,2020-11-18,16:01:16,16:23:52,NA,incomplete,117,shape,1,right,Green_Star_Grid_4.jpg,Green_Circle_Dots_1.jpg,Red_Star_Stripes_3.jpg,right,779.4450000000652,true,low,false
CbkGWxsL,3087lxlj7ptluqx9bvztb5ithyq0fq,3pb5a5bd0zj7dlriygvmxpok3zm7g6,CbkGWxsL,2020-0188,2020-11-18,16:01:16,16:23:52,NA,incomplete,118,shape,0,left,Purple_Circle_Stripes_4.jpg,Green_Circle_Chess_3.jpg,Purple_Plus_Dots_2.jpg,left,734.9150000008522,true,low,false
CbkGWxsL,3087lxlj7ptluqx9bvztb5ithyq0fq,3pb5a5bd0zj7dlriygvmxpok3zm7g6,CbkGWxsL,2020-0188,2020-11-18,16:01:16,16:23:52,NA,incomplete,119,shape,1,right,Red_Star_Dots_4.jpg,Red_Triangle_Grid_2.jpg,Blue_Star_Chess_1.jpg,left,775.3599999996368,false,low,false
CbkGWxsL,3087lxlj7ptluqx9bvztb5ithyq0fq,3pb5a5bd0zj7dlriygvmxpok3zm7g6,CbkGWxsL,2020-0188,2020-11-18,16:01:16,16:23:52,NA,incomplete,120,number,1,left,Green_Star_Dots_1.jpg,Purple_Triangle_Stripes_1.jpg,Blue_Circle_Dots_4.jpg,left,1553.089999997639,true,low,false
CbkGWxsL,3087lxlj7ptluqx9bvztb5ithyq0fq,3pb5a5bd0zj7dlriygvmxpok3zm7g6,CbkGWxsL,2020-0188,2020-11-18,16:01:16,16:23:52,NA,incomplete,121,number,0,right,Red_Triangle_Stripes_3.jpg,Purple_Star_Stripes_2.jpg,Green_Circle_Chess_3.jpg,right,1085.7199999991572,true,low,false
CbkGWxsL,3087lxlj7ptluqx9bvztb5ithyq0fq,3pb5a5bd0zj7dlriygvmxpok3zm7g6,CbkGWxsL,2020-0188,2020-11-18,16:01:16,16:23:52,NA,incomplete,122,number,1,left,Blue_Triangle_Dots_3.jpg,Green_Plus_Grid_3.jpg,Red_Star_Dots_2.jpg,left,878.4799999993993,true,low,false
CbkGWxsL,3087lxlj7ptluqx9bvztb5ithyq0fq,3pb5a5bd0zj7dlriygvmxpok3zm7g6,CbkGWxsL,2020-0188,2020-11-18,16:01:16,16:23:52,NA,incomplete,123,number,1,left,Blue_Plus_Stripes_3.jpg,Green_Circle_Grid_3.jpg,Red_Triangle_Stripes_2.jpg,left,815.4549999999581,true,low,false
CbkGWxsL,3087lxlj7ptluqx9bvztb5ithyq0fq,3pb5a5bd0zj7dlriygvmxpok3zm7g6,CbkGWxsL,2020-0188,2020-11-18,16:01:16,16:23:52,NA,incomplete,124,number,1,right,Green_Circle_Grid_3.jpg,Blue_Plus_Grid_2.jpg,Red_Triangle_Chess_3.jpg,right,827.9499999989057,true,low,false
CbkGWxsL,3087lxlj7ptluqx9bvztb5ithyq0fq,3pb5a5bd0zj7dlriygvmxpok3zm7g6,CbkGWxsL,2020-0188,2020-11-18,16:01:16,16:23:52,NA,incomplete,125,number,1,left,Green_Plus_Chess_1.jpg,Red_Star_Dots_1.jpg,Purple_Circle_Chess_4.jpg,left,638.0250000001397,true,low,false
CbkGWxsL,3087lxlj7ptluqx9bvztb5ithyq0fq,3pb5a5bd0zj7dlriygvmxpok3zm7g6,CbkGWxsL,2020-0188,2020-11-18,16:01:16,16:23:52,NA,incomplete,126,number,1,left,Purple_Plus_Stripes_1.jpg,Red_Triangle_Chess_1.jpg,Green_Circle_Stripes_3.jpg,left,497.86500000115484,true,low,false
CbkGWxsL,3087lxlj7ptluqx9bvztb5ithyq0fq,3pb5a5bd0zj7dlriygvmxpok3zm7g6,CbkGWxsL,2020-0188,2020-11-18,16:01:16,16:23:52,NA,incomplete,127,number,1,left,Red_Star_Chess_4.jpg,Blue_Circle_Stripes_4.jpg,Green_Triangle_Chess_1.jpg,left,980.5300000007264,true,low,false
CbkGWxsL,3087lxlj7ptluqx9bvztb5ithyq0fq,3pb5a5bd0zj7dlriygvmxpok3zm7g6,CbkGWxsL,2020-0188,2020-11-18,16:01:16,16:23:52,NA,incomplete,128,number,1,left,Red_Triangle_Dots_1.jpg,Blue_Star_Grid_1.jpg,Green_Plus_Dots_2.jpg,left,632.0599999999395,true,low,false
CbkGWxsL,3087lxlj7ptluqx9bvztb5ithyq0fq,3pb5a5bd0zj7dlriygvmxpok3zm7g6,CbkGWxsL,2020-0188,2020-11-18,16:01:16,16:23:52,NA,incomplete,129,number,1,left,Purple_Circle_Dots_2.jpg,Green_Triangle_Grid_2.jpg,Blue_Plus_Dots_1.jpg,left,923.7250000005588,true,low,false
CbkGWxsL,3087lxlj7ptluqx9bvztb5ithyq0fq,3pb5a5bd0zj7dlriygvmxpok3zm7g6,CbkGWxsL,2020-0188,2020-11-18,16:01:16,16:23:52,NA,incomplete,130,number,1,right,Red_Circle_Stripes_2.jpg,Blue_Triangle_Stripes_4.jpg,Purple_Plus_Dots_2.jpg,right,675.0199999987381,true,low,false
CbkGWxsL,3087lxlj7ptluqx9bvztb5ithyq0fq,3pb5a5bd0zj7dlriygvmxpok3zm7g6,CbkGWxsL,2020-0188,2020-11-18,16:01:16,16:23:52,NA,incomplete,131,number,1,left,Green_Triangle_Grid_4.jpg,Red_Plus_Chess_4.jpg,Blue_Circle_Grid_1.jpg,left,724.4249999966705,true,low,false
CbkGWxsL,3087lxlj7ptluqx9bvztb5ithyq0fq,3pb5a5bd0zj7dlriygvmxpok3zm7g6,CbkGWxsL,2020-0188,2020-11-18,16:01:16,16:23:52,NA,incomplete,132,number,1,right,Blue_Plus_Grid_1.jpg,Red_Triangle_Grid_3.jpg,Purple_Star_Stripes_1.jpg,right,564.7400000016205,true,low,false
CbkGWxsL,3087lxlj7ptluqx9bvztb5ithyq0fq,3pb5a5bd0zj7dlriygvmxpok3zm7g6,CbkGWxsL,2020-0188,2020-11-18,16:01:16,16:23:52,NA,incomplete,133,number,1,right,Red_Star_Stripes_1.jpg,Green_Circle_Stripes_2.jpg,Blue_Triangle_Chess_1.jpg,right,713.950000001234,true,low,false
CbkGWxsL,3087lxlj7ptluqx9bvztb5ithyq0fq,3pb5a5bd0zj7dlriygvmxpok3zm7g6,CbkGWxsL,2020-0188,2020-11-18,16:01:16,16:23:52,NA,incomplete,134,number,0,right,Purple_Plus_Stripes_2.jpg,Blue_Triangle_Stripes_4.jpg,Red_Circle_Chess_2.jpg,right,1172.3850000016391,true,low,false
CbkGWxsL,3087lxlj7ptluqx9bvztb5ithyq0fq,3pb5a5bd0zj7dlriygvmxpok3zm7g6,CbkGWxsL,2020-0188,2020-11-18,16:01:16,16:23:52,NA,incomplete,135,number,1,left,Green_Star_Chess_1.jpg,Purple_Circle_Dots_1.jpg,Red_Triangle_Chess_2.jpg,right,1143.209999998333,false,low,false
CbkGWxsL,3087lxlj7ptluqx9bvztb5ithyq0fq,3pb5a5bd0zj7dlriygvmxpok3zm7g6,CbkGWxsL,2020-0188,2020-11-18,16:01:16,16:23:52,NA,incomplete,136,number,1,left,Red_Triangle_Stripes_4.jpg,Green_Circle_Grid_4.jpg,Purple_Star_Stripes_2.jpg,left,1059.4750000019558,true,low,false
CbkGWxsL,3087lxlj7ptluqx9bvztb5ithyq0fq,3pb5a5bd0zj7dlriygvmxpok3zm7g6,CbkGWxsL,2020-0188,2020-11-18,16:01:16,16:23:52,NA,incomplete,137,number,1,right,Red_Triangle_Chess_3.jpg,Green_Star_Chess_2.jpg,Blue_Circle_Stripes_3.jpg,right,944.9749999984633,true,low,false
CbkGWxsL,3087lxlj7ptluqx9bvztb5ithyq0fq,3pb5a5bd0zj7dlriygvmxpok3zm7g6,CbkGWxsL,2020-0188,2020-11-18,16:01:16,16:23:52,NA,incomplete,138,number,1,left,Green_Star_Dots_3.jpg,Red_Triangle_Stripes_3.jpg,Purple_Plus_Dots_1.jpg,left,695.9850000021979,true,low,false
CbkGWxsL,3087lxlj7ptluqx9bvztb5ithyq0fq,3pb5a5bd0zj7dlriygvmxpok3zm7g6,CbkGWxsL,2020-0188,2020-11-18,16:01:16,16:23:52,NA,incomplete,139,number,1,right,Purple_Star_Chess_1.jpg,Red_Plus_Chess_4.jpg,Green_Circle_Grid_1.jpg,right,919.7249999998603,true,low,false
CbkGWxsL,3087lxlj7ptluqx9bvztb5ithyq0fq,3pb5a5bd0zj7dlriygvmxpok3zm7g6,CbkGWxsL,2020-0188,2020-11-18,16:01:16,16:23:52,NA,incomplete,140,filling,1,left,Green_Star_Chess_4.jpg,Red_Triangle_Chess_2.jpg,Purple_Circle_Stripes_4.jpg,right,657.749999998603,false,low,false
CbkGWxsL,3087lxlj7ptluqx9bvztb5ithyq0fq,3pb5a5bd0zj7dlriygvmxpok3zm7g6,CbkGWxsL,2020-0188,2020-11-18,16:01:16,16:23:52,NA,incomplete,141,filling,0,left,Green_Triangle_Dots_4.jpg,Blue_Circle_Dots_1.jpg,Purple_Star_Grid_4.jpg,left,1234.3349999974016,true,low,false
CbkGWxsL,3087lxlj7ptluqx9bvztb5ithyq0fq,3pb5a5bd0zj7dlriygvmxpok3zm7g6,CbkGWxsL,2020-0188,2020-11-18,16:01:16,16:23:52,NA,incomplete,142,filling,1,left,Red_Triangle_Grid_3.jpg,Purple_Star_Grid_1.jpg,Green_Circle_Chess_3.jpg,right,789.849999997532,false,low,false
CbkGWxsL,3087lxlj7ptluqx9bvztb5ithyq0fq,3pb5a5bd0zj7dlriygvmxpok3zm7g6,CbkGWxsL,2020-0188,2020-11-18,16:01:16,16:23:52,NA,incomplete,143,filling,1,left,Red_Circle_Grid_4.jpg,Purple_Star_Grid_2.jpg,Blue_Plus_Chess_4.jpg,left,1337.8950000007171,true,low,false
CbkGWxsL,3087lxlj7ptluqx9bvztb5ithyq0fq,3pb5a5bd0zj7dlriygvmxpok3zm7g6,CbkGWxsL,2020-0188,2020-11-18,16:01:16,16:23:52,NA,incomplete,144,filling,0,right,Red_Star_Dots_3.jpg,Purple_Plus_Chess_3.jpg,Blue_Circle_Dots_4.jpg,right,1186.1900000004098,true,low,false
CbkGWxsL,3087lxlj7ptluqx9bvztb5ithyq0fq,3pb5a5bd0zj7dlriygvmxpok3zm7g6,CbkGWxsL,2020-0188,2020-11-18,16:01:16,16:23:52,NA,incomplete,145,filling,1,left,Green_Triangle_Dots_4.jpg,Purple_Star_Dots_2.jpg,Blue_Plus_Stripes_4.jpg,left,1159.8200000007637,true,low,false
CbkGWxsL,3087lxlj7ptluqx9bvztb5ithyq0fq,3pb5a5bd0zj7dlriygvmxpok3zm7g6,CbkGWxsL,2020-0188,2020-11-18,16:01:16,16:23:52,NA,incomplete,146,filling,0,right,Purple_Star_Stripes_1.jpg,Red_Circle_Chess_1.jpg,Blue_Plus_Stripes_4.jpg,right,1117.070000000298,true,low,false
CbkGWxsL,3087lxlj7ptluqx9bvztb5ithyq0fq,3pb5a5bd0zj7dlriygvmxpok3zm7g6,CbkGWxsL,2020-0188,2020-11-18,16:01:16,16:23:52,NA,incomplete,147,filling,1,right,Blue_Star_Dots_4.jpg,Purple_Circle_Chess_4.jpg,Red_Triangle_Dots_3.jpg,right,1148.405000000028,true,low,false
CbkGWxsL,3087lxlj7ptluqx9bvztb5ithyq0fq,3pb5a5bd0zj7dlriygvmxpok3zm7g6,CbkGWxsL,2020-0188,2020-11-18,16:01:16,16:23:52,NA,incomplete,148,filling,1,left,Purple_Star_Chess_1.jpg,Green_Triangle_Chess_2.jpg,Blue_Circle_Grid_1.jpg,left,1084.0050000005867,true,low,false
CbkGWxsL,3087lxlj7ptluqx9bvztb5ithyq0fq,3pb5a5bd0zj7dlriygvmxpok3zm7g6,CbkGWxsL,2020-0188,2020-11-18,16:01:16,16:23:52,NA,incomplete,149,filling,1,right,Blue_Plus_Chess_1.jpg,Red_Star_Dots_1.jpg,Green_Triangle_Chess_4.jpg,right,966.7650000010617,true,low,false
CbkGWxsL,3087lxlj7ptluqx9bvztb5ithyq0fq,3pb5a5bd0zj7dlriygvmxpok3zm7g6,CbkGWxsL,2020-0188,2020-11-18,16:01:16,16:23:52,NA,incomplete,150,filling,1,right,Purple_Star_Chess_1.jpg,Green_Triangle_Stripes_1.jpg,Red_Circle_Chess_3.jpg,right,915.9799999978859,true,low,false
CbkGWxsL,3087lxlj7ptluqx9bvztb5ithyq0fq,3pb5a5bd0zj7dlriygvmxpok3zm7g6,CbkGWxsL,2020-0188,2020-11-18,16:01:16,16:23:52,NA,incomplete,151,filling,1,right,Purple_Plus_Stripes_1.jpg,Red_Star_Chess_1.jpg,Green_Triangle_Stripes_2.jpg,right,885.0549999987707,true,low,false
CbkGWxsL,3087lxlj7ptluqx9bvztb5ithyq0fq,3pb5a5bd0zj7dlriygvmxpok3zm7g6,CbkGWxsL,2020-0188,2020-11-18,16:01:16,16:23:52,NA,incomplete,152,filling,1,left,Purple_Star_Stripes_2.jpg,Green_Triangle_Stripes_1.jpg,Red_Plus_Dots_2.jpg,left,1013.1900000015739,true,low,false
CbkGWxsL,3087lxlj7ptluqx9bvztb5ithyq0fq,3pb5a5bd0zj7dlriygvmxpok3zm7g6,CbkGWxsL,2020-0188,2020-11-18,16:01:16,16:23:52,NA,incomplete,153,filling,1,right,Blue_Star_Dots_4.jpg,Green_Circle_Grid_4.jpg,Purple_Plus_Dots_2.jpg,right,1136.2599999993108,true,low,false
CbkGWxsL,3087lxlj7ptluqx9bvztb5ithyq0fq,3pb5a5bd0zj7dlriygvmxpok3zm7g6,CbkGWxsL,2020-0188,2020-11-18,16:01:16,16:23:52,NA,incomplete,154,filling,1,right,Red_Star_Chess_4.jpg,Purple_Plus_Dots_4.jpg,Blue_Triangle_Chess_3.jpg,right,1334.2449999980163,true,low,false
CbkGWxsL,3087lxlj7ptluqx9bvztb5ithyq0fq,3pb5a5bd0zj7dlriygvmxpok3zm7g6,CbkGWxsL,2020-0188,2020-11-18,16:01:16,16:23:52,NA,incomplete,155,filling,1,right,Red_Plus_Chess_3.jpg,Green_Triangle_Dots_3.jpg,Blue_Circle_Chess_1.jpg,right,878.4500000001863,true,low,false
CbkGWxsL,3087lxlj7ptluqx9bvztb5ithyq0fq,3pb5a5bd0zj7dlriygvmxpok3zm7g6,CbkGWxsL,2020-0188,2020-11-18,16:01:16,16:23:52,NA,incomplete,156,filling,1,right,Green_Plus_Stripes_4.jpg,Red_Star_Grid_4.jpg,Blue_Circle_Stripes_2.jpg,right,1054.1699999994598,true,low,false
CbkGWxsL,3087lxlj7ptluqx9bvztb5ithyq0fq,3pb5a5bd0zj7dlriygvmxpok3zm7g6,CbkGWxsL,2020-0188,2020-11-18,16:01:16,16:23:52,NA,incomplete,157,filling,0,left,Blue_Star_Dots_1.jpg,Red_Plus_Dots_4.jpg,Green_Triangle_Stripes_1.jpg,left,937.8499999984633,true,low,false
CbkGWxsL,3087lxlj7ptluqx9bvztb5ithyq0fq,3pb5a5bd0zj7dlriygvmxpok3zm7g6,CbkGWxsL,2020-0188,2020-11-18,16:01:16,16:23:52,NA,incomplete,158,filling,1,right,Purple_Circle_Stripes_3.jpg,Green_Triangle_Dots_3.jpg,Blue_Star_Stripes_1.jpg,right,970.1499999973457,true,low,false
CbkGWxsL,3087lxlj7ptluqx9bvztb5ithyq0fq,3pb5a5bd0zj7dlriygvmxpok3zm7g6,CbkGWxsL,2020-0188,2020-11-18,16:01:16,16:23:52,NA,incomplete,159,filling,1,right,Purple_Plus_Grid_1.jpg,Red_Triangle_Dots_1.jpg,Green_Star_Grid_4.jpg,right,1180.6250000009313,true,low,false
CbkGWxsL,3087lxlj7ptluqx9bvztb5ithyq0fq,3pb5a5bd0zj7dlriygvmxpok3zm7g6,CbkGWxsL,2020-0188,2020-11-18,16:01:16,16:23:52,NA,incomplete,160,number,1,left,Green_Circle_Grid_3.jpg,Red_Triangle_Dots_3.jpg,Blue_Star_Grid_2.jpg,right,980.0450000001583,false,low,false
CbkGWxsL,3087lxlj7ptluqx9bvztb5ithyq0fq,3pb5a5bd0zj7dlriygvmxpok3zm7g6,CbkGWxsL,2020-0188,2020-11-18,16:01:16,16:23:52,NA,incomplete,161,number,1,left,Green_Circle_Stripes_1.jpg,Purple_Plus_Dots_1.jpg,Red_Triangle_Stripes_4.jpg,right,864.1749999988824,false,low,false
CbkGWxsL,3087lxlj7ptluqx9bvztb5ithyq0fq,3pb5a5bd0zj7dlriygvmxpok3zm7g6,CbkGWxsL,2020-0188,2020-11-18,16:01:16,16:23:52,NA,incomplete,162,number,0,right,Purple_Star_Stripes_2.jpg,Red_Triangle_Stripes_1.jpg,Blue_Circle_Chess_2.jpg,right,905.8750000004657,true,low,false
CbkGWxsL,3087lxlj7ptluqx9bvztb5ithyq0fq,3pb5a5bd0zj7dlriygvmxpok3zm7g6,CbkGWxsL,2020-0188,2020-11-18,16:01:16,16:23:52,NA,incomplete,163,number,1,left,Blue_Circle_Chess_1.jpg,Purple_Star_Grid_1.jpg,Green_Plus_Chess_2.jpg,left,763.2000000013504,true,low,false
CbkGWxsL,3087lxlj7ptluqx9bvztb5ithyq0fq,3pb5a5bd0zj7dlriygvmxpok3zm7g6,CbkGWxsL,2020-0188,2020-11-18,16:01:16,16:23:52,NA,incomplete,164,number,1,left,Green_Circle_Dots_1.jpg,Red_Star_Stripes_1.jpg,Purple_Plus_Dots_3.jpg,left,1170.6800000029616,true,low,false
CbkGWxsL,3087lxlj7ptluqx9bvztb5ithyq0fq,3pb5a5bd0zj7dlriygvmxpok3zm7g6,CbkGWxsL,2020-0188,2020-11-18,16:01:16,16:23:52,NA,incomplete,165,number,0,right,Blue_Triangle_Chess_3.jpg,Red_Star_Chess_4.jpg,Purple_Plus_Dots_3.jpg,right,1616.0249999994412,true,low,false
CbkGWxsL,3087lxlj7ptluqx9bvztb5ithyq0fq,3pb5a5bd0zj7dlriygvmxpok3zm7g6,CbkGWxsL,2020-0188,2020-11-18,16:01:16,16:23:52,NA,incomplete,166,number,1,right,Green_Plus_Stripes_1.jpg,Purple_Triangle_Stripes_2.jpg,Red_Circle_Chess_1.jpg,right,673.9349999988917,true,low,false
CbkGWxsL,3087lxlj7ptluqx9bvztb5ithyq0fq,3pb5a5bd0zj7dlriygvmxpok3zm7g6,CbkGWxsL,2020-0188,2020-11-18,16:01:16,16:23:52,NA,incomplete,167,number,0,right,Blue_Circle_Dots_2.jpg,Purple_Star_Dots_4.jpg,Red_Plus_Stripes_2.jpg,left,987.9450000007637,false,low,false
CbkGWxsL,3087lxlj7ptluqx9bvztb5ithyq0fq,3pb5a5bd0zj7dlriygvmxpok3zm7g6,CbkGWxsL,2020-0188,2020-11-18,16:01:16,16:23:52,NA,incomplete,168,number,1,right,Purple_Triangle_Dots_4.jpg,Red_Star_Dots_3.jpg,Blue_Plus_Chess_4.jpg,right,880.9750000000931,true,low,false
CbkGWxsL,3087lxlj7ptluqx9bvztb5ithyq0fq,3pb5a5bd0zj7dlriygvmxpok3zm7g6,CbkGWxsL,2020-0188,2020-11-18,16:01:16,16:23:52,NA,incomplete,169,number,1,left,Red_Circle_Dots_2.jpg,Green_Star_Grid_2.jpg,Blue_Plus_Dots_1.jpg,left,803.7149999979883,true,low,false
CbkGWxsL,3087lxlj7ptluqx9bvztb5ithyq0fq,3pb5a5bd0zj7dlriygvmxpok3zm7g6,CbkGWxsL,2020-0188,2020-11-18,16:01:16,16:23:52,NA,incomplete,170,number,0,left,Blue_Circle_Dots_1.jpg,Purple_Plus_Grid_1.jpg,Red_Star_Dots_2.jpg,right,982.249999997206,false,low,false
CbkGWxsL,3087lxlj7ptluqx9bvztb5ithyq0fq,3pb5a5bd0zj7dlriygvmxpok3zm7g6,CbkGWxsL,2020-0188,2020-11-18,16:01:16,16:23:52,NA,incomplete,171,number,1,left,Purple_Star_Stripes_3.jpg,Red_Plus_Grid_3.jpg,Green_Circle_Stripes_2.jpg,left,795.5499999991152,true,low,false
CbkGWxsL,3087lxlj7ptluqx9bvztb5ithyq0fq,3pb5a5bd0zj7dlriygvmxpok3zm7g6,CbkGWxsL,2020-0188,2020-11-18,16:01:16,16:23:52,NA,incomplete,172,number,0,right,Blue_Plus_Stripes_1.jpg,Purple_Triangle_Stripes_3.jpg,Green_Circle_Chess_1.jpg,right,800.1299999996554,true,low,false
CbkGWxsL,3087lxlj7ptluqx9bvztb5ithyq0fq,3pb5a5bd0zj7dlriygvmxpok3zm7g6,CbkGWxsL,2020-0188,2020-11-18,16:01:16,16:23:52,NA,incomplete,173,number,1,right,Blue_Star_Dots_2.jpg,Green_Plus_Dots_1.jpg,Red_Triangle_Grid_2.jpg,right,757.3749999974389,true,low,false
CbkGWxsL,3087lxlj7ptluqx9bvztb5ithyq0fq,3pb5a5bd0zj7dlriygvmxpok3zm7g6,CbkGWxsL,2020-0188,2020-11-18,16:01:16,16:23:52,NA,incomplete,174,number,1,left,Blue_Star_Grid_1.jpg,Red_Triangle_Chess_1.jpg,Purple_Circle_Grid_4.jpg,left,858.8400000007823,true,low,false
CbkGWxsL,3087lxlj7ptluqx9bvztb5ithyq0fq,3pb5a5bd0zj7dlriygvmxpok3zm7g6,CbkGWxsL,2020-0188,2020-11-18,16:01:16,16:23:52,NA,incomplete,175,number,1,right,Purple_Plus_Stripes_3.jpg,Green_Star_Stripes_4.jpg,Red_Circle_Chess_3.jpg,right,741.2750000003725,true,low,false
CbkGWxsL,3087lxlj7ptluqx9bvztb5ithyq0fq,3pb5a5bd0zj7dlriygvmxpok3zm7g6,CbkGWxsL,2020-0188,2020-11-18,16:01:16,16:23:52,NA,incomplete,176,number,1,left,Purple_Plus_Chess_3.jpg,Red_Circle_Dots_3.jpg,Green_Star_Chess_4.jpg,right,707.9850000010338,false,low,false
CbkGWxsL,3087lxlj7ptluqx9bvztb5ithyq0fq,3pb5a5bd0zj7dlriygvmxpok3zm7g6,CbkGWxsL,2020-0188,2020-11-18,16:01:16,16:23:52,NA,incomplete,177,number,1,right,Purple_Star_Stripes_1.jpg,Blue_Plus_Stripes_3.jpg,Red_Circle_Chess_1.jpg,right,636.4549999998417,true,low,false
CbkGWxsL,3087lxlj7ptluqx9bvztb5ithyq0fq,3pb5a5bd0zj7dlriygvmxpok3zm7g6,CbkGWxsL,2020-0188,2020-11-18,16:01:16,16:23:52,NA,incomplete,178,number,1,left,Green_Star_Dots_3.jpg,Blue_Plus_Stripes_3.jpg,Purple_Triangle_Dots_4.jpg,left,855.7450000005774,true,low,false
CbkGWxsL,3087lxlj7ptluqx9bvztb5ithyq0fq,3pb5a5bd0zj7dlriygvmxpok3zm7g6,CbkGWxsL,2020-0188,2020-11-18,16:01:16,16:23:52,NA,incomplete,179,number,0,left,Green_Circle_Chess_4.jpg,Purple_Triangle_Dots_4.jpg,Blue_Star_Chess_3.jpg,right,913.6700000017881,false,low,false
CbkGWxsL,3087lxlj7ptluqx9bvztb5ithyq0fq,3pb5a5bd0zj7dlriygvmxpok3zm7g6,CbkGWxsL,2020-0188,2020-11-18,16:01:16,16:23:52,NA,incomplete,180,filling,1,left,Blue_Star_Grid_1.jpg,Purple_Circle_Grid_3.jpg,Red_Triangle_Chess_1.jpg,right,625.8350000025239,false,low,false
CbkGWxsL,3087lxlj7ptluqx9bvztb5ithyq0fq,3pb5a5bd0zj7dlriygvmxpok3zm7g6,CbkGWxsL,2020-0188,2020-11-18,16:01:16,16:23:52,NA,incomplete,181,filling,1,right,Purple_Triangle_Grid_2.jpg,Green_Plus_Dots_2.jpg,Red_Circle_Grid_1.jpg,right,933.0049999989569,true,low,false
CbkGWxsL,3087lxlj7ptluqx9bvztb5ithyq0fq,3pb5a5bd0zj7dlriygvmxpok3zm7g6,CbkGWxsL,2020-0188,2020-11-18,16:01:16,16:23:52,NA,incomplete,182,filling,1,left,Red_Circle_Chess_4.jpg,Purple_Triangle_Chess_1.jpg,Blue_Star_Grid_4.jpg,left,1004.5299999983981,true,low,false
CbkGWxsL,3087lxlj7ptluqx9bvztb5ithyq0fq,3pb5a5bd0zj7dlriygvmxpok3zm7g6,CbkGWxsL,2020-0188,2020-11-18,16:01:16,16:23:52,NA,incomplete,183,filling,0,right,Purple_Circle_Stripes_2.jpg,Blue_Plus_Dots_2.jpg,Red_Triangle_Stripes_3.jpg,right,801.0549999999348,true,low,false
CbkGWxsL,3087lxlj7ptluqx9bvztb5ithyq0fq,3pb5a5bd0zj7dlriygvmxpok3zm7g6,CbkGWxsL,2020-0188,2020-11-18,16:01:16,16:23:52,NA,incomplete,184,filling,1,left,Purple_Triangle_Dots_4.jpg,Green_Star_Dots_3.jpg,Red_Circle_Stripes_4.jpg,right,1101.3899999998976,false,low,false
CbkGWxsL,3087lxlj7ptluqx9bvztb5ithyq0fq,3pb5a5bd0zj7dlriygvmxpok3zm7g6,CbkGWxsL,2020-0188,2020-11-18,16:01:16,16:23:52,NA,incomplete,185,filling,1,right,Green_Star_Dots_1.jpg,Blue_Plus_Chess_1.jpg,Purple_Circle_Dots_3.jpg,right,957.2849999968894,true,low,false
CbkGWxsL,3087lxlj7ptluqx9bvztb5ithyq0fq,3pb5a5bd0zj7dlriygvmxpok3zm7g6,CbkGWxsL,2020-0188,2020-11-18,16:01:16,16:23:52,NA,incomplete,186,filling,1,left,Red_Star_Grid_1.jpg,Green_Triangle_Grid_4.jpg,Purple_Plus_Chess_1.jpg,left,907.3449999995064,true,low,false
CbkGWxsL,3087lxlj7ptluqx9bvztb5ithyq0fq,3pb5a5bd0zj7dlriygvmxpok3zm7g6,CbkGWxsL,2020-0188,2020-11-18,16:01:16,16:23:52,NA,incomplete,187,filling,1,right,Red_Star_Dots_4.jpg,Green_Plus_Chess_4.jpg,Blue_Triangle_Dots_2.jpg,right,939.9200000008568,true,low,false
CbkGWxsL,3087lxlj7ptluqx9bvztb5ithyq0fq,3pb5a5bd0zj7dlriygvmxpok3zm7g6,CbkGWxsL,2020-0188,2020-11-18,16:01:16,16:23:52,NA,incomplete,188,filling,0,left,Purple_Circle_Dots_2.jpg,Green_Plus_Dots_1.jpg,Blue_Triangle_Stripes_2.jpg,left,876.9549999998417,true,low,false
CbkGWxsL,3087lxlj7ptluqx9bvztb5ithyq0fq,3pb5a5bd0zj7dlriygvmxpok3zm7g6,CbkGWxsL,2020-0188,2020-11-18,16:01:16,16:23:52,NA,incomplete,189,filling,1,left,Green_Triangle_Stripes_1.jpg,Blue_Plus_Stripes_3.jpg,Purple_Circle_Dots_1.jpg,left,1019.9700000011362,true,low,false
CbkGWxsL,3087lxlj7ptluqx9bvztb5ithyq0fq,3pb5a5bd0zj7dlriygvmxpok3zm7g6,CbkGWxsL,2020-0188,2020-11-18,16:01:16,16:23:52,NA,incomplete,190,filling,1,left,Red_Circle_Stripes_2.jpg,Purple_Plus_Stripes_3.jpg,Green_Triangle_Dots_2.jpg,left,888.6099999982398,true,low,false
CbkGWxsL,3087lxlj7ptluqx9bvztb5ithyq0fq,3pb5a5bd0zj7dlriygvmxpok3zm7g6,CbkGWxsL,2020-0188,2020-11-18,16:01:16,16:23:52,NA,incomplete,191,filling,1,right,Red_Triangle_Stripes_4.jpg,Purple_Circle_Chess_4.jpg,Blue_Plus_Stripes_2.jpg,right,935.4449999991339,true,low,false
CbkGWxsL,3087lxlj7ptluqx9bvztb5ithyq0fq,3pb5a5bd0zj7dlriygvmxpok3zm7g6,CbkGWxsL,2020-0188,2020-11-18,16:01:16,16:23:52,NA,incomplete,192,filling,0,left,Red_Circle_Dots_4.jpg,Blue_Triangle_Dots_3.jpg,Green_Star_Grid_4.jpg,left,1056.1100000014994,true,low,false
CbkGWxsL,3087lxlj7ptluqx9bvztb5ithyq0fq,3pb5a5bd0zj7dlriygvmxpok3zm7g6,CbkGWxsL,2020-0188,2020-11-18,16:01:16,16:23:52,NA,incomplete,193,filling,1,left,Purple_Star_Stripes_1.jpg,Red_Triangle_Stripes_2.jpg,Green_Circle_Dots_1.jpg,left,961.9100000017788,true,low,false
CbkGWxsL,3087lxlj7ptluqx9bvztb5ithyq0fq,3pb5a5bd0zj7dlriygvmxpok3zm7g6,CbkGWxsL,2020-0188,2020-11-18,16:01:16,16:23:52,NA,incomplete,194,filling,1,left,Blue_Plus_Grid_3.jpg,Red_Circle_Grid_1.jpg,Purple_Triangle_Dots_3.jpg,left,1134.9750000007916,true,low,false
CbkGWxsL,3087lxlj7ptluqx9bvztb5ithyq0fq,3pb5a5bd0zj7dlriygvmxpok3zm7g6,CbkGWxsL,2020-0188,2020-11-18,16:01:16,16:23:52,NA,incomplete,195,filling,0,right,Purple_Star_Grid_3.jpg,Green_Triangle_Dots_3.jpg,Red_Circle_Grid_2.jpg,left,1213.475000000326,false,low,false
CbkGWxsL,3087lxlj7ptluqx9bvztb5ithyq0fq,3pb5a5bd0zj7dlriygvmxpok3zm7g6,CbkGWxsL,2020-0188,2020-11-18,16:01:16,16:23:52,NA,incomplete,196,filling,1,right,Purple_Plus_Grid_2.jpg,Red_Triangle_Chess_2.jpg,Green_Star_Grid_1.jpg,right,1171.4250000005122,true,low,false
CbkGWxsL,3087lxlj7ptluqx9bvztb5ithyq0fq,3pb5a5bd0zj7dlriygvmxpok3zm7g6,CbkGWxsL,2020-0188,2020-11-18,16:01:16,16:23:52,NA,incomplete,197,filling,0,left,Purple_Triangle_Stripes_1.jpg,Red_Plus_Stripes_4.jpg,Blue_Circle_Grid_1.jpg,right,961.0700000012293,false,low,false
CbkGWxsL,3087lxlj7ptluqx9bvztb5ithyq0fq,3pb5a5bd0zj7dlriygvmxpok3zm7g6,CbkGWxsL,2020-0188,2020-11-18,16:01:16,16:23:52,NA,incomplete,198,filling,1,right,Red_Plus_Stripes_3.jpg,Purple_Star_Grid_3.jpg,Blue_Circle_Stripes_1.jpg,left,718.3399999993853,false,low,false
CbkGWxsL,3087lxlj7ptluqx9bvztb5ithyq0fq,3pb5a5bd0zj7dlriygvmxpok3zm7g6,CbkGWxsL,2020-0188,2020-11-18,16:01:16,16:23:52,NA,incomplete,199,filling,1,left,Green_Triangle_Dots_1.jpg,Red_Star_Dots_4.jpg,Blue_Plus_Grid_1.jpg,left,1052.9099999985192,true,low,false
CbkGWxsL,3087lxlj7ptluqx9bvztb5ithyq0fq,3pb5a5bd0zj7dlriygvmxpok3zm7g6,CbkGWxsL,2020-0188,2020-11-18,16:01:16,16:23:52,NA,incomplete,200,number,1,right,Red_Plus_Dots_4.jpg,Blue_Circle_Dots_2.jpg,Green_Star_Stripes_4.jpg,right,832.2650000010617,true,low,false
CbkGWxsL,3087lxlj7ptluqx9bvztb5ithyq0fq,3pb5a5bd0zj7dlriygvmxpok3zm7g6,CbkGWxsL,2020-0188,2020-11-18,16:01:16,16:23:52,NA,incomplete,201,number,1,right,Purple_Star_Chess_1.jpg,Green_Triangle_Chess_2.jpg,Blue_Plus_Stripes_1.jpg,left,939.0000000020955,false,low,false
CbkGWxsL,3087lxlj7ptluqx9bvztb5ithyq0fq,3pb5a5bd0zj7dlriygvmxpok3zm7g6,CbkGWxsL,2020-0188,2020-11-18,16:01:16,16:23:52,NA,incomplete,202,number,1,left,Purple_Star_Chess_2.jpg,Green_Plus_Stripes_2.jpg,Red_Triangle_Chess_3.jpg,right,1019.8650000020862,false,low,false
CbkGWxsL,3087lxlj7ptluqx9bvztb5ithyq0fq,3pb5a5bd0zj7dlriygvmxpok3zm7g6,CbkGWxsL,2020-0188,2020-11-18,16:01:16,16:23:52,NA,incomplete,203,number,1,left,Blue_Triangle_Stripes_4.jpg,Purple_Circle_Chess_4.jpg,Green_Plus_Stripes_2.jpg,left,829.0150000029244,true,low,false
CbkGWxsL,3087lxlj7ptluqx9bvztb5ithyq0fq,3pb5a5bd0zj7dlriygvmxpok3zm7g6,CbkGWxsL,2020-0188,2020-11-18,16:01:16,16:23:52,NA,incomplete,204,number,1,left,Blue_Star_Dots_4.jpg,Purple_Circle_Chess_4.jpg,Red_Triangle_Dots_3.jpg,left,960.4299999992363,true,low,false
CbkGWxsL,3087lxlj7ptluqx9bvztb5ithyq0fq,3pb5a5bd0zj7dlriygvmxpok3zm7g6,CbkGWxsL,2020-0188,2020-11-18,16:01:16,16:23:52,NA,incomplete,205,number,1,right,Red_Triangle_Dots_4.jpg,Blue_Star_Dots_3.jpg,Purple_Circle_Grid_4.jpg,left,878.2800000007264,false,low,false
CbkGWxsL,3087lxlj7ptluqx9bvztb5ithyq0fq,3pb5a5bd0zj7dlriygvmxpok3zm7g6,CbkGWxsL,2020-0188,2020-11-18,16:01:16,16:23:52,NA,incomplete,206,number,1,right,Red_Triangle_Dots_4.jpg,Blue_Circle_Dots_3.jpg,Purple_Star_Chess_4.jpg,right,656.54499999783,true,low,false
CbkGWxsL,3087lxlj7ptluqx9bvztb5ithyq0fq,3pb5a5bd0zj7dlriygvmxpok3zm7g6,CbkGWxsL,2020-0188,2020-11-18,16:01:16,16:23:52,NA,incomplete,207,number,0,right,Red_Star_Grid_3.jpg,Purple_Plus_Grid_2.jpg,Green_Circle_Dots_3.jpg,right,861.659999998752,true,low,false
CbkGWxsL,3087lxlj7ptluqx9bvztb5ithyq0fq,3pb5a5bd0zj7dlriygvmxpok3zm7g6,CbkGWxsL,2020-0188,2020-11-18,16:01:16,16:23:52,NA,incomplete,208,number,1,right,Red_Plus_Chess_4.jpg,Purple_Star_Chess_3.jpg,Blue_Triangle_Grid_4.jpg,left,1028.5350000013132,false,low,false
CbkGWxsL,3087lxlj7ptluqx9bvztb5ithyq0fq,3pb5a5bd0zj7dlriygvmxpok3zm7g6,CbkGWxsL,2020-0188,2020-11-18,16:01:16,16:23:52,NA,incomplete,209,number,0,right,Blue_Plus_Grid_2.jpg,Red_Triangle_Grid_1.jpg,Green_Circle_Dots_2.jpg,right,832.9600000034552,true,low,false
CbkGWxsL,3087lxlj7ptluqx9bvztb5ithyq0fq,3pb5a5bd0zj7dlriygvmxpok3zm7g6,CbkGWxsL,2020-0188,2020-11-18,16:01:16,16:23:52,NA,incomplete,210,number,1,right,Blue_Plus_Dots_1.jpg,Purple_Star_Dots_2.jpg,Green_Circle_Grid_1.jpg,left,1211.0099999988452,false,low,false
CbkGWxsL,3087lxlj7ptluqx9bvztb5ithyq0fq,3pb5a5bd0zj7dlriygvmxpok3zm7g6,CbkGWxsL,2020-0188,2020-11-18,16:01:16,16:23:52,NA,incomplete,211,number,1,left,Blue_Triangle_Grid_4.jpg,Green_Plus_Dots_4.jpg,Red_Star_Grid_2.jpg,left,1250.5249999994412,true,low,false
CbkGWxsL,3087lxlj7ptluqx9bvztb5ithyq0fq,3pb5a5bd0zj7dlriygvmxpok3zm7g6,CbkGWxsL,2020-0188,2020-11-18,16:01:16,16:23:52,NA,incomplete,212,number,1,right,Blue_Circle_Stripes_2.jpg,Green_Star_Stripes_4.jpg,Red_Triangle_Chess_2.jpg,left,1338.6800000008661,false,low,false
CbkGWxsL,3087lxlj7ptluqx9bvztb5ithyq0fq,3pb5a5bd0zj7dlriygvmxpok3zm7g6,CbkGWxsL,2020-0188,2020-11-18,16:01:16,16:23:52,NA,incomplete,213,number,1,right,Blue_Triangle_Dots_4.jpg,Purple_Star_Dots_2.jpg,Red_Circle_Grid_4.jpg,right,762.7250000005588,true,low,false
CbkGWxsL,3087lxlj7ptluqx9bvztb5ithyq0fq,3pb5a5bd0zj7dlriygvmxpok3zm7g6,CbkGWxsL,2020-0188,2020-11-18,16:01:16,16:23:52,NA,incomplete,214,number,0,left,Blue_Circle_Chess_3.jpg,Red_Plus_Stripes_3.jpg,Purple_Star_Chess_1.jpg,left,912.4999999983702,true,low,false
CbkGWxsL,3087lxlj7ptluqx9bvztb5ithyq0fq,3pb5a5bd0zj7dlriygvmxpok3zm7g6,CbkGWxsL,2020-0188,2020-11-18,16:01:16,16:23:52,NA,incomplete,215,number,1,left,Purple_Circle_Grid_1.jpg,Green_Star_Chess_1.jpg,Red_Plus_Grid_4.jpg,right,1119.6750000016764,false,low,false
CbkGWxsL,3087lxlj7ptluqx9bvztb5ithyq0fq,3pb5a5bd0zj7dlriygvmxpok3zm7g6,CbkGWxsL,2020-0188,2020-11-18,16:01:16,16:23:52,NA,incomplete,216,number,1,left,Green_Plus_Grid_4.jpg,Red_Circle_Stripes_4.jpg,Purple_Star_Grid_1.jpg,left,942.6650000023656,true,low,false
CbkGWxsL,3087lxlj7ptluqx9bvztb5ithyq0fq,3pb5a5bd0zj7dlriygvmxpok3zm7g6,CbkGWxsL,2020-0188,2020-11-18,16:01:16,16:23:52,NA,incomplete,217,number,1,right,Blue_Plus_Grid_2.jpg,Red_Circle_Grid_1.jpg,Green_Star_Dots_2.jpg,right,797.6750000016764,true,low,false
CbkGWxsL,3087lxlj7ptluqx9bvztb5ithyq0fq,3pb5a5bd0zj7dlriygvmxpok3zm7g6,CbkGWxsL,2020-0188,2020-11-18,16:01:16,16:23:52,NA,incomplete,218,number,1,left,Green_Plus_Dots_2.jpg,Red_Star_Chess_2.jpg,Purple_Circle_Dots_1.jpg,left,882.1499999975786,true,low,false
CbkGWxsL,3087lxlj7ptluqx9bvztb5ithyq0fq,3pb5a5bd0zj7dlriygvmxpok3zm7g6,CbkGWxsL,2020-0188,2020-11-18,16:01:16,16:23:52,NA,incomplete,219,number,0,left,Blue_Plus_Dots_3.jpg,Green_Triangle_Grid_3.jpg,Purple_Circle_Dots_4.jpg,left,835.9149999995716,true,low,false
CbkGWxsL,3087lxlj7ptluqx9bvztb5ithyq0fq,3pb5a5bd0zj7dlriygvmxpok3zm7g6,CbkGWxsL,2020-0188,2020-11-18,16:01:16,16:23:52,NA,incomplete,220,filling,1,left,Green_Circle_Dots_4.jpg,Blue_Plus_Dots_2.jpg,Purple_Star_Grid_4.jpg,right,703.0649999978486,false,low,false
CbkGWxsL,3087lxlj7ptluqx9bvztb5ithyq0fq,3pb5a5bd0zj7dlriygvmxpok3zm7g6,CbkGWxsL,2020-0188,2020-11-18,16:01:16,16:23:52,NA,incomplete,221,filling,1,left,Blue_Circle_Chess_1.jpg,Red_Plus_Chess_4.jpg,Green_Triangle_Dots_1.jpg,left,1398.679999998305,true,low,false
CbkGWxsL,3087lxlj7ptluqx9bvztb5ithyq0fq,3pb5a5bd0zj7dlriygvmxpok3zm7g6,CbkGWxsL,2020-0188,2020-11-18,16:01:16,16:23:52,NA,incomplete,222,filling,0,left,Red_Triangle_Stripes_1.jpg,Blue_Star_Stripes_4.jpg,Purple_Circle_Grid_1.jpg,left,1011.4500000018161,true,low,false
CbkGWxsL,3087lxlj7ptluqx9bvztb5ithyq0fq,3pb5a5bd0zj7dlriygvmxpok3zm7g6,CbkGWxsL,2020-0188,2020-11-18,16:01:16,16:23:52,NA,incomplete,223,filling,1,left,Green_Plus_Dots_3.jpg,Blue_Triangle_Dots_4.jpg,Purple_Star_Stripes_3.jpg,left,1062.5749999999534,true,low,false
CbkGWxsL,3087lxlj7ptluqx9bvztb5ithyq0fq,3pb5a5bd0zj7dlriygvmxpok3zm7g6,CbkGWxsL,2020-0188,2020-11-18,16:01:16,16:23:52,NA,incomplete,224,filling,1,left,Purple_Star_Stripes_4.jpg,Green_Plus_Stripes_3.jpg,Red_Circle_Grid_4.jpg,left,1546.3349999990314,true,low,false
CbkGWxsL,3087lxlj7ptluqx9bvztb5ithyq0fq,3pb5a5bd0zj7dlriygvmxpok3zm7g6,CbkGWxsL,2020-0188,2020-11-18,16:01:16,16:23:52,NA,incomplete,225,filling,1,left,Red_Triangle_Chess_3.jpg,Green_Star_Chess_4.jpg,Blue_Circle_Dots_3.jpg,left,1017.2200000016019,true,low,false
CbkGWxsL,3087lxlj7ptluqx9bvztb5ithyq0fq,3pb5a5bd0zj7dlriygvmxpok3zm7g6,CbkGWxsL,2020-0188,2020-11-18,16:01:16,16:23:52,NA,incomplete,226,filling,0,right,Blue_Star_Grid_1.jpg,Purple_Plus_Stripes_1.jpg,Red_Circle_Grid_2.jpg,right,828.3899999987334,true,low,false
CbkGWxsL,3087lxlj7ptluqx9bvztb5ithyq0fq,3pb5a5bd0zj7dlriygvmxpok3zm7g6,CbkGWxsL,2020-0188,2020-11-18,16:01:16,16:23:52,NA,incomplete,227,filling,1,right,Blue_Plus_Stripes_1.jpg,Purple_Circle_Chess_1.jpg,Red_Triangle_Stripes_2.jpg,right,992.3600000001024,true,low,false
CbkGWxsL,3087lxlj7ptluqx9bvztb5ithyq0fq,3pb5a5bd0zj7dlriygvmxpok3zm7g6,CbkGWxsL,2020-0188,2020-11-18,16:01:16,16:23:52,NA,incomplete,228,filling,1,left,Blue_Triangle_Chess_1.jpg,Purple_Star_Chess_2.jpg,Green_Plus_Grid_1.jpg,left,1005.1500000008382,true,low,false
CbkGWxsL,3087lxlj7ptluqx9bvztb5ithyq0fq,3pb5a5bd0zj7dlriygvmxpok3zm7g6,CbkGWxsL,2020-0188,2020-11-18,16:01:16,16:23:52,NA,incomplete,229,filling,1,left,Red_Circle_Dots_1.jpg,Purple_Star_Dots_4.jpg,Blue_Plus_Stripes_1.jpg,left,1001.6749999995809,true,low,false
CbkGWxsL,3087lxlj7ptluqx9bvztb5ithyq0fq,3pb5a5bd0zj7dlriygvmxpok3zm7g6,CbkGWxsL,2020-0188,2020-11-18,16:01:16,16:23:52,NA,incomplete,230,filling,0,right,Purple_Triangle_Chess_2.jpg,Blue_Plus_Stripes_2.jpg,Red_Star_Chess_4.jpg,right,981.7349999975413,true,low,false
CbkGWxsL,3087lxlj7ptluqx9bvztb5ithyq0fq,3pb5a5bd0zj7dlriygvmxpok3zm7g6,CbkGWxsL,2020-0188,2020-11-18,16:01:16,16:23:52,NA,incomplete,231,filling,1,left,Blue_Star_Stripes_1.jpg,Red_Triangle_Stripes_3.jpg,Green_Plus_Grid_1.jpg,left,1043.8549999999814,true,low,false
CbkGWxsL,3087lxlj7ptluqx9bvztb5ithyq0fq,3pb5a5bd0zj7dlriygvmxpok3zm7g6,CbkGWxsL,2020-0188,2020-11-18,16:01:16,16:23:52,NA,incomplete,232,filling,1,right,Purple_Circle_Chess_1.jpg,Green_Star_Dots_1.jpg,Blue_Triangle_Chess_3.jpg,right,965.6550000000279,true,low,false
CbkGWxsL,3087lxlj7ptluqx9bvztb5ithyq0fq,3pb5a5bd0zj7dlriygvmxpok3zm7g6,CbkGWxsL,2020-0188,2020-11-18,16:01:16,16:23:52,NA,incomplete,233,filling,1,right,Red_Circle_Dots_1.jpg,Purple_Triangle_Stripes_1.jpg,Green_Plus_Dots_4.jpg,right,1269.059999998659,true,low,false
CbkGWxsL,3087lxlj7ptluqx9bvztb5ithyq0fq,3pb5a5bd0zj7dlriygvmxpok3zm7g6,CbkGWxsL,2020-0188,2020-11-18,16:01:16,16:23:52,NA,incomplete,234,filling,1,right,Blue_Triangle_Grid_3.jpg,Green_Star_Chess_3.jpg,Purple_Plus_Grid_1.jpg,right,910.6049999974202,true,low,false
CbkGWxsL,3087lxlj7ptluqx9bvztb5ithyq0fq,3pb5a5bd0zj7dlriygvmxpok3zm7g6,CbkGWxsL,2020-0188,2020-11-18,16:01:16,16:23:52,NA,incomplete,235,filling,1,left,Red_Circle_Chess_4.jpg,Green_Plus_Chess_3.jpg,Blue_Triangle_Dots_4.jpg,left,1262.0900000000838,true,low,false
CbkGWxsL,3087lxlj7ptluqx9bvztb5ithyq0fq,3pb5a5bd0zj7dlriygvmxpok3zm7g6,CbkGWxsL,2020-0188,2020-11-18,16:01:16,16:23:52,NA,incomplete,236,filling,1,right,Purple_Plus_Grid_4.jpg,Red_Triangle_Chess_4.jpg,Green_Star_Grid_3.jpg,right,1479.800000000978,true,low,false
CbkGWxsL,3087lxlj7ptluqx9bvztb5ithyq0fq,3pb5a5bd0zj7dlriygvmxpok3zm7g6,CbkGWxsL,2020-0188,2020-11-18,16:01:16,16:23:52,NA,incomplete,237,filling,1,right,Blue_Triangle_Chess_2.jpg,Purple_Circle_Stripes_2.jpg,Red_Star_Chess_1.jpg,right,1291.6450000011828,true,low,false
CbkGWxsL,3087lxlj7ptluqx9bvztb5ithyq0fq,3pb5a5bd0zj7dlriygvmxpok3zm7g6,CbkGWxsL,2020-0188,2020-11-18,16:01:16,16:23:52,NA,incomplete,238,filling,1,right,Purple_Circle_Chess_3.jpg,Red_Star_Stripes_3.jpg,Blue_Triangle_Chess_2.jpg,right,978.4749999998603,true,low,false
CbkGWxsL,3087lxlj7ptluqx9bvztb5ithyq0fq,3pb5a5bd0zj7dlriygvmxpok3zm7g6,CbkGWxsL,2020-0188,2020-11-18,16:01:16,16:23:52,NA,incomplete,239,filling,1,left,Blue_Star_Grid_1.jpg,Purple_Plus_Grid_2.jpg,Green_Circle_Stripes_1.jpg,right,1033.0350000003818,false,low,false
CbkGWxsL,3087lxlj7ptluqx9bvztb5ithyq0fq,3pb5a5bd0zj7dlriygvmxpok3zm7g6,CbkGWxsL,2020-0188,2020-11-18,16:01:16,16:23:52,NA,NA,instruction example,color,NA,NA,Purple_Star_Dots_3.jpg,Purple_Plus_Grid_1.jpg,Blue_Star_Stripes_4.jpg,NA,NA,NA,NA,undefined
CbkGWxsL,3087lxlj7ptluqx9bvztb5ithyq0fq,3pb5a5bd0zj7dlriygvmxpok3zm7g6,CbkGWxsL,2020-0188,2020-11-18,16:01:16,16:23:52,NA,NA,instruction example,color,NA,NA,Green_Circle_Stripes_2.jpg,Blue_Circle_Chess_3.jpg,Green_Plus_Grid_4.jpg,NA,NA,NA,NA,undefined
CbkGWxsL,3087lxlj7ptluqx9bvztb5ithyq0fq,3pb5a5bd0zj7dlriygvmxpok3zm7g6,CbkGWxsL,2020-0188,2020-11-18,16:01:16,16:23:52,NA,NA,instruction example,color,NA,NA,Purple_Star_Dots_1.jpg,Red_Plus_Grid_1.jpg,Blue_Triangle_Dots_4.jpg,NA,NA,NA,NA,undefined
CbkGWxsL,3087lxlj7ptluqx9bvztb5ithyq0fq,3pb5a5bd0zj7dlriygvmxpok3zm7g6,CbkGWxsL,2020-0188,2020-11-18,16:01:16,16:23:52,NA,NA,instruction example,color,NA,NA,Red_Circle_Grid_1.jpg,Green_Triangle_Grid_4.jpg,Blue_Plus_Chess_1.jpg,NA,NA,NA,NA,undefined
CbkGWxsL,3087lxlj7ptluqx9bvztb5ithyq0fq,3pb5a5bd0zj7dlriygvmxpok3zm7g6,CbkGWxsL,2020-0188,2020-11-18,16:01:16,16:23:52,1319366.254999997,1359822.795,NA,NA,NA,NA,NA,NA,NA,NA,NA,NA,NA,undefined
