workerId,hitId,assignmentId,subject,studyid,exp_date,exp_start,exp_end,time_start,time_end,trial,type,reward_validity,answer,image_top,image_left,image_right,response,response_time,response_acc,volatility,age,race,gender,ethnicity,color,vision,neuro,practice
70Guzgkx,3axfspqoztbswwyvx39ztaxp9nrfjw,3pdjhanyk9t29h8ozc8ccb0ops4h6d,70Guzgkx,2020-0188,2020-05-21,12:43:03,13:04:27,NA,incomplete,0,shape,0,right,Blue_Star_Stripes_3.jpg,Red_Plus_Chess_3.jpg,Green_Star_Dots_2.jpg,right,1251.4000000000815,true,NA,NA,NA,NA,NA,NA,NA,NA,true
70Guzgkx,3axfspqoztbswwyvx39ztaxp9nrfjw,3pdjhanyk9t29h8ozc8ccb0ops4h6d,70Guzgkx,2020-0188,2020-05-21,12:43:03,13:04:27,NA,incomplete,1,shape,1,right,Green_Star_Stripes_3.jpg,Purple_Plus_Dots_3.jpg,Red_Star_Chess_4.jpg,right,902.3049999995856,true,NA,NA,NA,NA,NA,NA,NA,NA,true
70Guzgkx,3axfspqoztbswwyvx39ztaxp9nrfjw,3pdjhanyk9t29h8ozc8ccb0ops4h6d,70Guzgkx,2020-0188,2020-05-21,12:43:03,13:04:27,NA,incomplete,2,shape,0,right,Purple_Circle_Dots_1.jpg,Red_Plus_Chess_1.jpg,Green_Circle_Grid_2.jpg,right,910.144999999844,true,NA,NA,NA,NA,NA,NA,NA,NA,true
70Guzgkx,3axfspqoztbswwyvx39ztaxp9nrfjw,3pdjhanyk9t29h8ozc8ccb0ops4h6d,70Guzgkx,2020-0188,2020-05-21,12:43:03,13:04:27,NA,incomplete,3,shape,1,left,Green_Circle_Stripes_3.jpg,Red_Circle_Dots_4.jpg,Purple_Plus_Grid_3.jpg,right,805.8699999996461,false,NA,NA,NA,NA,NA,NA,NA,NA,true
70Guzgkx,3axfspqoztbswwyvx39ztaxp9nrfjw,3pdjhanyk9t29h8ozc8ccb0ops4h6d,70Guzgkx,2020-0188,2020-05-21,12:43:03,13:04:27,NA,incomplete,4,shape,1,right,Green_Star_Chess_3.jpg,Purple_Plus_Grid_3.jpg,Red_Star_Stripes_1.jpg,right,1257.9749999999767,true,NA,NA,NA,NA,NA,NA,NA,NA,true
70Guzgkx,3axfspqoztbswwyvx39ztaxp9nrfjw,3pdjhanyk9t29h8ozc8ccb0ops4h6d,70Guzgkx,2020-0188,2020-05-21,12:43:03,13:04:27,NA,incomplete,5,shape,1,right,Purple_Circle_Dots_3.jpg,Green_Plus_Chess_3.jpg,Blue_Circle_Grid_2.jpg,right,851.5800000000163,true,NA,NA,NA,NA,NA,NA,NA,NA,true
70Guzgkx,3axfspqoztbswwyvx39ztaxp9nrfjw,3pdjhanyk9t29h8ozc8ccb0ops4h6d,70Guzgkx,2020-0188,2020-05-21,12:43:03,13:04:27,NA,incomplete,6,shape,1,left,Red_Star_Dots_2.jpg,Purple_Star_Stripes_1.jpg,Blue_Triangle_Grid_2.jpg,left,925.4300000002258,true,NA,NA,NA,NA,NA,NA,NA,NA,true
70Guzgkx,3axfspqoztbswwyvx39ztaxp9nrfjw,3pdjhanyk9t29h8ozc8ccb0ops4h6d,70Guzgkx,2020-0188,2020-05-21,12:43:03,13:04:27,NA,incomplete,7,shape,1,right,Red_Triangle_Grid_2.jpg,Purple_Circle_Stripes_2.jpg,Blue_Triangle_Dots_3.jpg,right,853.2699999996112,true,NA,NA,NA,NA,NA,NA,NA,NA,true
70Guzgkx,3axfspqoztbswwyvx39ztaxp9nrfjw,3pdjhanyk9t29h8ozc8ccb0ops4h6d,70Guzgkx,2020-0188,2020-05-21,12:43:03,13:04:27,NA,incomplete,8,shape,1,left,Blue_Triangle_Dots_4.jpg,Red_Triangle_Chess_3.jpg,Green_Plus_Stripes_4.jpg,left,1254.1249999999418,true,NA,NA,NA,NA,NA,NA,NA,NA,true
70Guzgkx,3axfspqoztbswwyvx39ztaxp9nrfjw,3pdjhanyk9t29h8ozc8ccb0ops4h6d,70Guzgkx,2020-0188,2020-05-21,12:43:03,13:04:27,NA,incomplete,9,shape,1,left,Blue_Star_Chess_1.jpg,Green_Star_Grid_4.jpg,Red_Plus_Dots_1.jpg,left,698.3200000004144,true,NA,NA,NA,NA,NA,NA,NA,NA,true
70Guzgkx,3axfspqoztbswwyvx39ztaxp9nrfjw,3pdjhanyk9t29h8ozc8ccb0ops4h6d,70Guzgkx,2020-0188,2020-05-21,12:43:03,13:04:27,NA,incomplete,10,shape,1,left,Purple_Star_Stripes_1.jpg,Green_Star_Chess_4.jpg,Blue_Plus_Dots_1.jpg,left,777.8550000002724,true,NA,NA,NA,NA,NA,NA,NA,NA,true
70Guzgkx,3axfspqoztbswwyvx39ztaxp9nrfjw,3pdjhanyk9t29h8ozc8ccb0ops4h6d,70Guzgkx,2020-0188,2020-05-21,12:43:03,13:04:27,NA,incomplete,11,shape,0,left,Green_Star_Dots_2.jpg,Blue_Star_Grid_3.jpg,Purple_Circle_Stripes_2.jpg,left,575.62999999983,true,NA,NA,NA,NA,NA,NA,NA,NA,true
70Guzgkx,3axfspqoztbswwyvx39ztaxp9nrfjw,3pdjhanyk9t29h8ozc8ccb0ops4h6d,70Guzgkx,2020-0188,2020-05-21,12:43:03,13:04:27,NA,incomplete,12,shape,1,left,Red_Circle_Dots_3.jpg,Purple_Circle_Chess_4.jpg,Blue_Triangle_Grid_3.jpg,left,852.5199999999022,true,NA,NA,NA,NA,NA,NA,NA,NA,true
70Guzgkx,3axfspqoztbswwyvx39ztaxp9nrfjw,3pdjhanyk9t29h8ozc8ccb0ops4h6d,70Guzgkx,2020-0188,2020-05-21,12:43:03,13:04:27,NA,incomplete,13,shape,1,left,Blue_Plus_Dots_3.jpg,Green_Plus_Chess_2.jpg,Purple_Triangle_Stripes_3.jpg,left,910.2550000002375,true,NA,NA,NA,NA,NA,NA,NA,NA,true
70Guzgkx,3axfspqoztbswwyvx39ztaxp9nrfjw,3pdjhanyk9t29h8ozc8ccb0ops4h6d,70Guzgkx,2020-0188,2020-05-21,12:43:03,13:04:27,NA,incomplete,14,shape,1,right,Red_Plus_Grid_1.jpg,Green_Star_Chess_1.jpg,Blue_Plus_Dots_2.jpg,right,886.1950000000652,true,NA,NA,NA,NA,NA,NA,NA,NA,true
70Guzgkx,3axfspqoztbswwyvx39ztaxp9nrfjw,3pdjhanyk9t29h8ozc8ccb0ops4h6d,70Guzgkx,2020-0188,2020-05-21,12:43:03,13:04:27,NA,incomplete,15,shape,0,right,Red_Plus_Stripes_2.jpg,Green_Star_Dots_2.jpg,Blue_Plus_Chess_3.jpg,right,973.9850000001024,true,NA,NA,NA,NA,NA,NA,NA,NA,true
70Guzgkx,3axfspqoztbswwyvx39ztaxp9nrfjw,3pdjhanyk9t29h8ozc8ccb0ops4h6d,70Guzgkx,2020-0188,2020-05-21,12:43:03,13:04:27,NA,incomplete,16,shape,1,right,Purple_Circle_Stripes_2.jpg,Red_Plus_Chess_2.jpg,Blue_Circle_Dots_3.jpg,right,740.4299999998184,true,NA,NA,NA,NA,NA,NA,NA,NA,true
70Guzgkx,3axfspqoztbswwyvx39ztaxp9nrfjw,3pdjhanyk9t29h8ozc8ccb0ops4h6d,70Guzgkx,2020-0188,2020-05-21,12:43:03,13:04:27,NA,incomplete,17,shape,0,left,Red_Triangle_Dots_2.jpg,Purple_Triangle_Stripes_3.jpg,Green_Plus_Grid_2.jpg,left,746.5999999999767,true,NA,NA,NA,NA,NA,NA,NA,NA,true
70Guzgkx,3axfspqoztbswwyvx39ztaxp9nrfjw,3pdjhanyk9t29h8ozc8ccb0ops4h6d,70Guzgkx,2020-0188,2020-05-21,12:43:03,13:04:27,NA,incomplete,18,shape,1,left,Purple_Triangle_Chess_4.jpg,Green_Triangle_Grid_2.jpg,Red_Circle_Stripes_4.jpg,left,969.3750000001746,true,NA,NA,NA,NA,NA,NA,NA,NA,true
70Guzgkx,3axfspqoztbswwyvx39ztaxp9nrfjw,3pdjhanyk9t29h8ozc8ccb0ops4h6d,70Guzgkx,2020-0188,2020-05-21,12:43:03,13:04:27,NA,incomplete,19,shape,1,left,Red_Star_Stripes_3.jpg,Purple_Star_Chess_2.jpg,Green_Triangle_Grid_3.jpg,left,664.6550000000279,true,NA,NA,NA,NA,NA,NA,NA,NA,true
70Guzgkx,3axfspqoztbswwyvx39ztaxp9nrfjw,3pdjhanyk9t29h8ozc8ccb0ops4h6d,70Guzgkx,2020-0188,2020-05-21,12:43:03,13:04:27,NA,incomplete,20,number,1,left,Green_Plus_Chess_3.jpg,Blue_Triangle_Dots_3.jpg,Purple_Plus_Grid_2.jpg,none,0,false,NA,NA,NA,NA,NA,NA,NA,NA,true
70Guzgkx,3axfspqoztbswwyvx39ztaxp9nrfjw,3pdjhanyk9t29h8ozc8ccb0ops4h6d,70Guzgkx,2020-0188,2020-05-21,12:43:03,13:04:27,NA,incomplete,21,number,1,left,Purple_Circle_Grid_3.jpg,Green_Triangle_Chess_3.jpg,Blue_Circle_Stripes_2.jpg,left,1331.2450000003446,true,NA,NA,NA,NA,NA,NA,NA,NA,true
70Guzgkx,3axfspqoztbswwyvx39ztaxp9nrfjw,3pdjhanyk9t29h8ozc8ccb0ops4h6d,70Guzgkx,2020-0188,2020-05-21,12:43:03,13:04:27,NA,incomplete,22,number,0,left,Purple_Plus_Grid_2.jpg,Blue_Triangle_Dots_2.jpg,Red_Plus_Chess_4.jpg,right,786.8899999998976,false,NA,NA,NA,NA,NA,NA,NA,NA,true
70Guzgkx,3axfspqoztbswwyvx39ztaxp9nrfjw,3pdjhanyk9t29h8ozc8ccb0ops4h6d,70Guzgkx,2020-0188,2020-05-21,12:43:03,13:04:27,NA,incomplete,23,number,1,left,Purple_Plus_Stripes_1.jpg,Red_Star_Grid_1.jpg,Green_Plus_Chess_2.jpg,left,1289.9200000001583,true,NA,NA,NA,NA,NA,NA,NA,NA,true
70Guzgkx,3axfspqoztbswwyvx39ztaxp9nrfjw,3pdjhanyk9t29h8ozc8ccb0ops4h6d,70Guzgkx,2020-0188,2020-05-21,12:43:03,13:04:27,NA,incomplete,24,number,1,left,Red_Plus_Chess_1.jpg,Green_Triangle_Grid_1.jpg,Purple_Plus_Stripes_2.jpg,left,864.6750000002794,true,NA,NA,NA,NA,NA,NA,NA,NA,true
70Guzgkx,3axfspqoztbswwyvx39ztaxp9nrfjw,3pdjhanyk9t29h8ozc8ccb0ops4h6d,70Guzgkx,2020-0188,2020-05-21,12:43:03,13:04:27,NA,incomplete,25,number,1,right,Purple_Star_Grid_4.jpg,Red_Star_Stripes_2.jpg,Blue_Circle_Chess_4.jpg,right,938.820000000298,true,NA,NA,NA,NA,NA,NA,NA,NA,true
70Guzgkx,3axfspqoztbswwyvx39ztaxp9nrfjw,3pdjhanyk9t29h8ozc8ccb0ops4h6d,70Guzgkx,2020-0188,2020-05-21,12:43:03,13:04:27,NA,incomplete,26,number,1,left,Red_Triangle_Dots_1.jpg,Purple_Circle_Grid_1.jpg,Blue_Triangle_Chess_4.jpg,left,841.0050000001793,true,NA,NA,NA,NA,NA,NA,NA,NA,true
70Guzgkx,3axfspqoztbswwyvx39ztaxp9nrfjw,3pdjhanyk9t29h8ozc8ccb0ops4h6d,70Guzgkx,2020-0188,2020-05-21,12:43:03,13:04:27,NA,incomplete,27,number,1,right,Green_Circle_Chess_1.jpg,Blue_Circle_Dots_3.jpg,Purple_Plus_Stripes_1.jpg,right,858.9350000001723,true,NA,NA,NA,NA,NA,NA,NA,NA,true
70Guzgkx,3axfspqoztbswwyvx39ztaxp9nrfjw,3pdjhanyk9t29h8ozc8ccb0ops4h6d,70Guzgkx,2020-0188,2020-05-21,12:43:03,13:04:27,NA,incomplete,28,number,0,right,Red_Triangle_Grid_2.jpg,Blue_Triangle_Stripes_4.jpg,Green_Circle_Dots_2.jpg,right,832.1350000001257,true,NA,NA,NA,NA,NA,NA,NA,NA,true
70Guzgkx,3axfspqoztbswwyvx39ztaxp9nrfjw,3pdjhanyk9t29h8ozc8ccb0ops4h6d,70Guzgkx,2020-0188,2020-05-21,12:43:03,13:04:27,NA,incomplete,29,number,1,right,Purple_Star_Grid_3.jpg,Green_Star_Dots_4.jpg,Red_Circle_Chess_3.jpg,right,1001.1300000000629,true,NA,NA,NA,NA,NA,NA,NA,NA,true
70Guzgkx,3axfspqoztbswwyvx39ztaxp9nrfjw,3pdjhanyk9t29h8ozc8ccb0ops4h6d,70Guzgkx,2020-0188,2020-05-21,12:43:03,13:04:27,NA,incomplete,30,number,1,right,Red_Plus_Dots_1.jpg,Green_Plus_Grid_2.jpg,Blue_Star_Chess_1.jpg,right,757.0900000000838,true,NA,NA,NA,NA,NA,NA,NA,NA,true
70Guzgkx,3axfspqoztbswwyvx39ztaxp9nrfjw,3pdjhanyk9t29h8ozc8ccb0ops4h6d,70Guzgkx,2020-0188,2020-05-21,12:43:03,13:04:27,NA,incomplete,31,number,1,right,Blue_Star_Chess_2.jpg,Red_Star_Dots_4.jpg,Green_Circle_Grid_2.jpg,right,978.2599999998347,true,NA,NA,NA,NA,NA,NA,NA,NA,true
70Guzgkx,3axfspqoztbswwyvx39ztaxp9nrfjw,3pdjhanyk9t29h8ozc8ccb0ops4h6d,70Guzgkx,2020-0188,2020-05-21,12:43:03,13:04:27,NA,incomplete,32,number,1,right,Blue_Triangle_Grid_3.jpg,Green_Triangle_Dots_2.jpg,Purple_Star_Stripes_3.jpg,right,856.1450000001932,true,NA,NA,NA,NA,NA,NA,NA,NA,true
70Guzgkx,3axfspqoztbswwyvx39ztaxp9nrfjw,3pdjhanyk9t29h8ozc8ccb0ops4h6d,70Guzgkx,2020-0188,2020-05-21,12:43:03,13:04:27,NA,incomplete,33,number,1,right,Green_Circle_Stripes_3.jpg,Red_Circle_Chess_4.jpg,Blue_Plus_Grid_3.jpg,right,778.5699999999488,true,NA,NA,NA,NA,NA,NA,NA,NA,true
70Guzgkx,3axfspqoztbswwyvx39ztaxp9nrfjw,3pdjhanyk9t29h8ozc8ccb0ops4h6d,70Guzgkx,2020-0188,2020-05-21,12:43:03,13:04:27,NA,incomplete,34,number,1,right,Blue_Triangle_Stripes_1.jpg,Red_Triangle_Chess_2.jpg,Green_Star_Grid_1.jpg,right,760.3249999997206,true,NA,NA,NA,NA,NA,NA,NA,NA,true
70Guzgkx,3axfspqoztbswwyvx39ztaxp9nrfjw,3pdjhanyk9t29h8ozc8ccb0ops4h6d,70Guzgkx,2020-0188,2020-05-21,12:43:03,13:04:27,NA,incomplete,35,number,1,right,Red_Circle_Dots_3.jpg,Green_Circle_Grid_4.jpg,Blue_Plus_Chess_3.jpg,right,702.1100000002189,true,NA,NA,NA,NA,NA,NA,NA,NA,true
70Guzgkx,3axfspqoztbswwyvx39ztaxp9nrfjw,3pdjhanyk9t29h8ozc8ccb0ops4h6d,70Guzgkx,2020-0188,2020-05-21,12:43:03,13:04:27,NA,incomplete,36,number,0,right,Blue_Triangle_Grid_4.jpg,Purple_Triangle_Stripes_1.jpg,Red_Circle_Chess_4.jpg,right,805.875,true,NA,NA,NA,NA,NA,NA,NA,NA,true
70Guzgkx,3axfspqoztbswwyvx39ztaxp9nrfjw,3pdjhanyk9t29h8ozc8ccb0ops4h6d,70Guzgkx,2020-0188,2020-05-21,12:43:03,13:04:27,NA,incomplete,37,number,1,left,Purple_Circle_Grid_2.jpg,Blue_Star_Chess_2.jpg,Red_Circle_Stripes_1.jpg,left,793.7799999999697,true,NA,NA,NA,NA,NA,NA,NA,NA,true
70Guzgkx,3axfspqoztbswwyvx39ztaxp9nrfjw,3pdjhanyk9t29h8ozc8ccb0ops4h6d,70Guzgkx,2020-0188,2020-05-21,12:43:03,13:04:27,NA,incomplete,38,number,1,left,Green_Circle_Stripes_3.jpg,Red_Plus_Dots_3.jpg,Purple_Circle_Chess_1.jpg,left,774.8449999999139,true,NA,NA,NA,NA,NA,NA,NA,NA,true
70Guzgkx,3axfspqoztbswwyvx39ztaxp9nrfjw,3pdjhanyk9t29h8ozc8ccb0ops4h6d,70Guzgkx,2020-0188,2020-05-21,12:43:03,13:04:27,NA,incomplete,39,number,1,left,Green_Plus_Grid_1.jpg,Blue_Triangle_Dots_1.jpg,Red_Plus_Stripes_4.jpg,left,1315.029999999737,true,NA,NA,NA,NA,NA,NA,NA,NA,true
70Guzgkx,3axfspqoztbswwyvx39ztaxp9nrfjw,3pdjhanyk9t29h8ozc8ccb0ops4h6d,70Guzgkx,2020-0188,2020-05-21,12:43:03,13:04:27,NA,incomplete,0,shape,1,right,Green_Circle_Dots_3.jpg,Blue_Star_Chess_3.jpg,Red_Circle_Stripes_1.jpg,left,1088.1899999999441,false,low,NA,NA,NA,NA,NA,NA,NA,false
70Guzgkx,3axfspqoztbswwyvx39ztaxp9nrfjw,3pdjhanyk9t29h8ozc8ccb0ops4h6d,70Guzgkx,2020-0188,2020-05-21,12:43:03,13:04:27,NA,incomplete,1,shape,1,left,Red_Plus_Chess_4.jpg,Purple_Plus_Dots_1.jpg,Blue_Circle_Grid_4.jpg,right,1008.2099999999627,false,low,NA,NA,NA,NA,NA,NA,NA,false
70Guzgkx,3axfspqoztbswwyvx39ztaxp9nrfjw,3pdjhanyk9t29h8ozc8ccb0ops4h6d,70Guzgkx,2020-0188,2020-05-21,12:43:03,13:04:27,NA,incomplete,2,shape,1,right,Blue_Plus_Chess_3.jpg,Purple_Circle_Grid_3.jpg,Red_Plus_Dots_2.jpg,left,1300.9199999996927,false,low,NA,NA,NA,NA,NA,NA,NA,false
70Guzgkx,3axfspqoztbswwyvx39ztaxp9nrfjw,3pdjhanyk9t29h8ozc8ccb0ops4h6d,70Guzgkx,2020-0188,2020-05-21,12:43:03,13:04:27,NA,incomplete,3,shape,0,left,Purple_Star_Dots_2.jpg,Green_Star_Stripes_1.jpg,Blue_Circle_Chess_2.jpg,left,900.5349999997416,true,low,NA,NA,NA,NA,NA,NA,NA,false
70Guzgkx,3axfspqoztbswwyvx39ztaxp9nrfjw,3pdjhanyk9t29h8ozc8ccb0ops4h6d,70Guzgkx,2020-0188,2020-05-21,12:43:03,13:04:27,NA,incomplete,4,shape,1,right,Green_Triangle_Grid_4.jpg,Blue_Plus_Stripes_4.jpg,Purple_Triangle_Chess_2.jpg,right,1044.6600000000326,true,low,NA,NA,NA,NA,NA,NA,NA,false
70Guzgkx,3axfspqoztbswwyvx39ztaxp9nrfjw,3pdjhanyk9t29h8ozc8ccb0ops4h6d,70Guzgkx,2020-0188,2020-05-21,12:43:03,13:04:27,NA,incomplete,5,shape,1,right,Purple_Triangle_Dots_4.jpg,Green_Circle_Chess_4.jpg,Red_Triangle_Grid_3.jpg,right,719.5099999999511,true,low,NA,NA,NA,NA,NA,NA,NA,false
70Guzgkx,3axfspqoztbswwyvx39ztaxp9nrfjw,3pdjhanyk9t29h8ozc8ccb0ops4h6d,70Guzgkx,2020-0188,2020-05-21,12:43:03,13:04:27,NA,incomplete,6,shape,0,right,Blue_Triangle_Dots_4.jpg,Green_Circle_Grid_4.jpg,Red_Triangle_Stripes_2.jpg,right,718.2099999999627,true,low,NA,NA,NA,NA,NA,NA,NA,false
70Guzgkx,3axfspqoztbswwyvx39ztaxp9nrfjw,3pdjhanyk9t29h8ozc8ccb0ops4h6d,70Guzgkx,2020-0188,2020-05-21,12:43:03,13:04:27,NA,incomplete,7,shape,0,right,Green_Triangle_Stripes_4.jpg,Red_Plus_Dots_4.jpg,Purple_Triangle_Grid_2.jpg,right,645.895000000135,true,low,NA,NA,NA,NA,NA,NA,NA,false
70Guzgkx,3axfspqoztbswwyvx39ztaxp9nrfjw,3pdjhanyk9t29h8ozc8ccb0ops4h6d,70Guzgkx,2020-0188,2020-05-21,12:43:03,13:04:27,NA,incomplete,8,shape,1,left,Green_Plus_Grid_2.jpg,Red_Plus_Dots_3.jpg,Purple_Triangle_Stripes_2.jpg,left,1096.3149999997695,true,low,NA,NA,NA,NA,NA,NA,NA,false
70Guzgkx,3axfspqoztbswwyvx39ztaxp9nrfjw,3pdjhanyk9t29h8ozc8ccb0ops4h6d,70Guzgkx,2020-0188,2020-05-21,12:43:03,13:04:27,NA,incomplete,9,shape,1,right,Purple_Circle_Grid_4.jpg,Blue_Star_Dots_4.jpg,Green_Circle_Chess_2.jpg,right,736.789999999979,true,low,NA,NA,NA,NA,NA,NA,NA,false
70Guzgkx,3axfspqoztbswwyvx39ztaxp9nrfjw,3pdjhanyk9t29h8ozc8ccb0ops4h6d,70Guzgkx,2020-0188,2020-05-21,12:43:03,13:04:27,NA,incomplete,10,shape,1,right,Blue_Triangle_Chess_4.jpg,Green_Circle_Grid_4.jpg,Red_Triangle_Dots_2.jpg,right,655.020000000135,true,low,NA,NA,NA,NA,NA,NA,NA,false
70Guzgkx,3axfspqoztbswwyvx39ztaxp9nrfjw,3pdjhanyk9t29h8ozc8ccb0ops4h6d,70Guzgkx,2020-0188,2020-05-21,12:43:03,13:04:27,NA,incomplete,11,shape,1,right,Purple_Plus_Chess_2.jpg,Green_Triangle_Grid_2.jpg,Red_Plus_Dots_3.jpg,right,880.8100000001141,true,low,NA,NA,NA,NA,NA,NA,NA,false
70Guzgkx,3axfspqoztbswwyvx39ztaxp9nrfjw,3pdjhanyk9t29h8ozc8ccb0ops4h6d,70Guzgkx,2020-0188,2020-05-21,12:43:03,13:04:27,NA,incomplete,12,shape,1,right,Green_Plus_Grid_1.jpg,Purple_Triangle_Dots_1.jpg,Red_Plus_Stripes_4.jpg,right,690.7599999999511,true,low,NA,NA,NA,NA,NA,NA,NA,false
70Guzgkx,3axfspqoztbswwyvx39ztaxp9nrfjw,3pdjhanyk9t29h8ozc8ccb0ops4h6d,70Guzgkx,2020-0188,2020-05-21,12:43:03,13:04:27,NA,incomplete,13,shape,1,left,Blue_Triangle_Dots_4.jpg,Red_Triangle_Grid_3.jpg,Purple_Circle_Stripes_4.jpg,left,828.179999999993,true,low,NA,NA,NA,NA,NA,NA,NA,false
70Guzgkx,3axfspqoztbswwyvx39ztaxp9nrfjw,3pdjhanyk9t29h8ozc8ccb0ops4h6d,70Guzgkx,2020-0188,2020-05-21,12:43:03,13:04:27,NA,incomplete,14,shape,1,right,Green_Plus_Grid_4.jpg,Purple_Circle_Stripes_4.jpg,Blue_Plus_Dots_1.jpg,right,632.3449999999721,true,low,NA,NA,NA,NA,NA,NA,NA,false
70Guzgkx,3axfspqoztbswwyvx39ztaxp9nrfjw,3pdjhanyk9t29h8ozc8ccb0ops4h6d,70Guzgkx,2020-0188,2020-05-21,12:43:03,13:04:27,NA,incomplete,15,shape,1,left,Purple_Circle_Chess_4.jpg,Green_Circle_Grid_1.jpg,Red_Plus_Dots_4.jpg,left,778.6099999998696,true,low,NA,NA,NA,NA,NA,NA,NA,false
70Guzgkx,3axfspqoztbswwyvx39ztaxp9nrfjw,3pdjhanyk9t29h8ozc8ccb0ops4h6d,70Guzgkx,2020-0188,2020-05-21,12:43:03,13:04:27,NA,incomplete,16,shape,1,left,Green_Circle_Dots_3.jpg,Blue_Circle_Grid_2.jpg,Red_Star_Chess_3.jpg,left,799.4050000002026,true,low,NA,NA,NA,NA,NA,NA,NA,false
70Guzgkx,3axfspqoztbswwyvx39ztaxp9nrfjw,3pdjhanyk9t29h8ozc8ccb0ops4h6d,70Guzgkx,2020-0188,2020-05-21,12:43:03,13:04:27,NA,incomplete,17,shape,1,right,Blue_Plus_Chess_1.jpg,Green_Circle_Grid_1.jpg,Red_Plus_Dots_2.jpg,right,747.7200000003213,true,low,NA,NA,NA,NA,NA,NA,NA,false
70Guzgkx,3axfspqoztbswwyvx39ztaxp9nrfjw,3pdjhanyk9t29h8ozc8ccb0ops4h6d,70Guzgkx,2020-0188,2020-05-21,12:43:03,13:04:27,NA,incomplete,18,shape,1,right,Purple_Plus_Grid_2.jpg,Red_Star_Stripes_2.jpg,Blue_Plus_Chess_3.jpg,right,714.5249999998487,true,low,NA,NA,NA,NA,NA,NA,NA,false
70Guzgkx,3axfspqoztbswwyvx39ztaxp9nrfjw,3pdjhanyk9t29h8ozc8ccb0ops4h6d,70Guzgkx,2020-0188,2020-05-21,12:43:03,13:04:27,NA,incomplete,19,shape,1,right,Red_Triangle_Dots_2.jpg,Green_Star_Chess_2.jpg,Blue_Triangle_Stripes_3.jpg,right,714.9800000002142,true,low,NA,NA,NA,NA,NA,NA,NA,false
70Guzgkx,3axfspqoztbswwyvx39ztaxp9nrfjw,3pdjhanyk9t29h8ozc8ccb0ops4h6d,70Guzgkx,2020-0188,2020-05-21,12:43:03,13:04:27,NA,incomplete,20,shape,1,left,Blue_Star_Stripes_3.jpg,Purple_Star_Grid_1.jpg,Red_Circle_Dots_3.jpg,left,914.9800000000396,true,low,NA,NA,NA,NA,NA,NA,NA,false
70Guzgkx,3axfspqoztbswwyvx39ztaxp9nrfjw,3pdjhanyk9t29h8ozc8ccb0ops4h6d,70Guzgkx,2020-0188,2020-05-21,12:43:03,13:04:27,NA,incomplete,21,shape,1,right,Purple_Star_Dots_3.jpg,Blue_Triangle_Chess_3.jpg,Red_Star_Grid_2.jpg,right,650.8600000002189,true,low,NA,NA,NA,NA,NA,NA,NA,false
70Guzgkx,3axfspqoztbswwyvx39ztaxp9nrfjw,3pdjhanyk9t29h8ozc8ccb0ops4h6d,70Guzgkx,2020-0188,2020-05-21,12:43:03,13:04:27,NA,incomplete,22,shape,0,left,Red_Star_Stripes_2.jpg,Green_Star_Grid_3.jpg,Blue_Triangle_Dots_2.jpg,left,540.609999999986,true,low,NA,NA,NA,NA,NA,NA,NA,false
70Guzgkx,3axfspqoztbswwyvx39ztaxp9nrfjw,3pdjhanyk9t29h8ozc8ccb0ops4h6d,70Guzgkx,2020-0188,2020-05-21,12:43:03,13:04:27,NA,incomplete,23,shape,1,right,Green_Star_Stripes_1.jpg,Purple_Triangle_Chess_1.jpg,Red_Star_Dots_4.jpg,right,603.1749999996973,true,low,NA,NA,NA,NA,NA,NA,NA,false
70Guzgkx,3axfspqoztbswwyvx39ztaxp9nrfjw,3pdjhanyk9t29h8ozc8ccb0ops4h6d,70Guzgkx,2020-0188,2020-05-21,12:43:03,13:04:27,NA,incomplete,24,shape,1,left,Red_Star_Stripes_2.jpg,Purple_Star_Chess_4.jpg,Green_Circle_Grid_2.jpg,left,576.8349999998463,true,low,NA,NA,NA,NA,NA,NA,NA,false
70Guzgkx,3axfspqoztbswwyvx39ztaxp9nrfjw,3pdjhanyk9t29h8ozc8ccb0ops4h6d,70Guzgkx,2020-0188,2020-05-21,12:43:03,13:04:27,NA,incomplete,25,shape,1,right,Purple_Circle_Chess_4.jpg,Red_Star_Dots_4.jpg,Green_Circle_Stripes_2.jpg,right,676.9399999998277,true,low,NA,NA,NA,NA,NA,NA,NA,false
70Guzgkx,3axfspqoztbswwyvx39ztaxp9nrfjw,3pdjhanyk9t29h8ozc8ccb0ops4h6d,70Guzgkx,2020-0188,2020-05-21,12:43:03,13:04:27,NA,incomplete,26,shape,1,right,Red_Plus_Dots_2.jpg,Blue_Triangle_Stripes_2.jpg,Green_Plus_Chess_1.jpg,right,589.7049999999581,true,low,NA,NA,NA,NA,NA,NA,NA,false
70Guzgkx,3axfspqoztbswwyvx39ztaxp9nrfjw,3pdjhanyk9t29h8ozc8ccb0ops4h6d,70Guzgkx,2020-0188,2020-05-21,12:43:03,13:04:27,NA,incomplete,27,shape,1,left,Blue_Star_Grid_1.jpg,Green_Star_Dots_4.jpg,Red_Plus_Chess_1.jpg,left,610.600000000326,true,low,NA,NA,NA,NA,NA,NA,NA,false
70Guzgkx,3axfspqoztbswwyvx39ztaxp9nrfjw,3pdjhanyk9t29h8ozc8ccb0ops4h6d,70Guzgkx,2020-0188,2020-05-21,12:43:03,13:04:27,NA,incomplete,28,shape,0,right,Purple_Star_Stripes_2.jpg,Blue_Circle_Chess_2.jpg,Green_Star_Grid_3.jpg,right,518.3150000002934,true,low,NA,NA,NA,NA,NA,NA,NA,false
70Guzgkx,3axfspqoztbswwyvx39ztaxp9nrfjw,3pdjhanyk9t29h8ozc8ccb0ops4h6d,70Guzgkx,2020-0188,2020-05-21,12:43:03,13:04:27,NA,incomplete,29,shape,1,left,Blue_Star_Dots_4.jpg,Green_Star_Chess_3.jpg,Purple_Plus_Stripes_4.jpg,left,719.2150000000838,true,low,NA,NA,NA,NA,NA,NA,NA,false
70Guzgkx,3axfspqoztbswwyvx39ztaxp9nrfjw,3pdjhanyk9t29h8ozc8ccb0ops4h6d,70Guzgkx,2020-0188,2020-05-21,12:43:03,13:04:27,NA,incomplete,30,number,1,left,Blue_Plus_Dots_1.jpg,Green_Circle_Grid_1.jpg,Red_Plus_Chess_4.jpg,right,517.2100000004284,false,low,NA,NA,NA,NA,NA,NA,NA,false
70Guzgkx,3axfspqoztbswwyvx39ztaxp9nrfjw,3pdjhanyk9t29h8ozc8ccb0ops4h6d,70Guzgkx,2020-0188,2020-05-21,12:43:03,13:04:27,NA,incomplete,31,number,1,right,Green_Circle_Chess_4.jpg,Purple_Circle_Dots_3.jpg,Red_Star_Grid_4.jpg,left,644.6049999999814,false,low,NA,NA,NA,NA,NA,NA,NA,false
70Guzgkx,3axfspqoztbswwyvx39ztaxp9nrfjw,3pdjhanyk9t29h8ozc8ccb0ops4h6d,70Guzgkx,2020-0188,2020-05-21,12:43:03,13:04:27,NA,incomplete,32,number,0,right,Green_Triangle_Dots_2.jpg,Purple_Triangle_Stripes_4.jpg,Blue_Plus_Grid_2.jpg,left,655.3850000000093,false,low,NA,NA,NA,NA,NA,NA,NA,false
70Guzgkx,3axfspqoztbswwyvx39ztaxp9nrfjw,3pdjhanyk9t29h8ozc8ccb0ops4h6d,70Guzgkx,2020-0188,2020-05-21,12:43:03,13:04:27,NA,incomplete,33,number,1,left,Purple_Triangle_Dots_3.jpg,Blue_Circle_Stripes_3.jpg,Green_Triangle_Grid_2.jpg,right,601.0949999999721,false,low,NA,NA,NA,NA,NA,NA,NA,false
70Guzgkx,3axfspqoztbswwyvx39ztaxp9nrfjw,3pdjhanyk9t29h8ozc8ccb0ops4h6d,70Guzgkx,2020-0188,2020-05-21,12:43:03,13:04:27,NA,incomplete,34,number,1,left,Red_Circle_Chess_3.jpg,Purple_Triangle_Grid_3.jpg,Green_Circle_Dots_1.jpg,right,757.5250000000233,false,low,NA,NA,NA,NA,NA,NA,NA,false
70Guzgkx,3axfspqoztbswwyvx39ztaxp9nrfjw,3pdjhanyk9t29h8ozc8ccb0ops4h6d,70Guzgkx,2020-0188,2020-05-21,12:43:03,13:04:27,NA,incomplete,35,number,1,right,Red_Triangle_Grid_4.jpg,Blue_Triangle_Dots_2.jpg,Purple_Star_Chess_4.jpg,right,1059.4449999998324,true,low,NA,NA,NA,NA,NA,NA,NA,false
70Guzgkx,3axfspqoztbswwyvx39ztaxp9nrfjw,3pdjhanyk9t29h8ozc8ccb0ops4h6d,70Guzgkx,2020-0188,2020-05-21,12:43:03,13:04:27,NA,incomplete,36,number,0,right,Green_Triangle_Dots_4.jpg,Blue_Triangle_Chess_2.jpg,Red_Plus_Grid_4.jpg,right,782.1350000003586,true,low,NA,NA,NA,NA,NA,NA,NA,false
70Guzgkx,3axfspqoztbswwyvx39ztaxp9nrfjw,3pdjhanyk9t29h8ozc8ccb0ops4h6d,70Guzgkx,2020-0188,2020-05-21,12:43:03,13:04:27,NA,incomplete,37,number,1,left,Red_Plus_Grid_3.jpg,Purple_Star_Stripes_3.jpg,Green_Plus_Chess_2.jpg,left,979.0199999997858,true,low,NA,NA,NA,NA,NA,NA,NA,false
70Guzgkx,3axfspqoztbswwyvx39ztaxp9nrfjw,3pdjhanyk9t29h8ozc8ccb0ops4h6d,70Guzgkx,2020-0188,2020-05-21,12:43:03,13:04:27,NA,incomplete,38,number,0,left,Blue_Plus_Chess_3.jpg,Red_Circle_Stripes_3.jpg,Green_Plus_Dots_1.jpg,left,728.3099999999395,true,low,NA,NA,NA,NA,NA,NA,NA,false
70Guzgkx,3axfspqoztbswwyvx39ztaxp9nrfjw,3pdjhanyk9t29h8ozc8ccb0ops4h6d,70Guzgkx,2020-0188,2020-05-21,12:43:03,13:04:27,NA,incomplete,39,number,1,left,Purple_Circle_Chess_3.jpg,Red_Triangle_Dots_3.jpg,Green_Circle_Grid_4.jpg,left,943.7750000002561,true,low,NA,NA,NA,NA,NA,NA,NA,false
70Guzgkx,3axfspqoztbswwyvx39ztaxp9nrfjw,3pdjhanyk9t29h8ozc8ccb0ops4h6d,70Guzgkx,2020-0188,2020-05-21,12:43:03,13:04:27,NA,incomplete,40,number,1,right,Purple_Circle_Grid_4.jpg,Red_Circle_Chess_3.jpg,Blue_Plus_Stripes_4.jpg,right,1414.3199999998324,true,low,NA,NA,NA,NA,NA,NA,NA,false
70Guzgkx,3axfspqoztbswwyvx39ztaxp9nrfjw,3pdjhanyk9t29h8ozc8ccb0ops4h6d,70Guzgkx,2020-0188,2020-05-21,12:43:03,13:04:27,NA,incomplete,41,number,1,right,Blue_Plus_Stripes_2.jpg,Purple_Plus_Grid_1.jpg,Green_Triangle_Chess_2.jpg,right,746.1899999998277,true,low,NA,NA,NA,NA,NA,NA,NA,false
70Guzgkx,3axfspqoztbswwyvx39ztaxp9nrfjw,3pdjhanyk9t29h8ozc8ccb0ops4h6d,70Guzgkx,2020-0188,2020-05-21,12:43:03,13:04:27,NA,incomplete,42,number,1,right,Purple_Star_Chess_1.jpg,Green_Star_Stripes_4.jpg,Blue_Triangle_Dots_1.jpg,right,848.9999999997672,true,low,NA,NA,NA,NA,NA,NA,NA,false
70Guzgkx,3axfspqoztbswwyvx39ztaxp9nrfjw,3pdjhanyk9t29h8ozc8ccb0ops4h6d,70Guzgkx,2020-0188,2020-05-21,12:43:03,13:04:27,NA,incomplete,43,number,1,right,Red_Circle_Chess_2.jpg,Green_Circle_Stripes_4.jpg,Purple_Triangle_Dots_2.jpg,right,915.3650000002235,true,low,NA,NA,NA,NA,NA,NA,NA,false
70Guzgkx,3axfspqoztbswwyvx39ztaxp9nrfjw,3pdjhanyk9t29h8ozc8ccb0ops4h6d,70Guzgkx,2020-0188,2020-05-21,12:43:03,13:04:27,NA,incomplete,44,number,1,left,Green_Plus_Grid_2.jpg,Purple_Circle_Chess_2.jpg,Red_Plus_Stripes_3.jpg,left,819.7949999999255,true,low,NA,NA,NA,NA,NA,NA,NA,false
70Guzgkx,3axfspqoztbswwyvx39ztaxp9nrfjw,3pdjhanyk9t29h8ozc8ccb0ops4h6d,70Guzgkx,2020-0188,2020-05-21,12:43:03,13:04:27,NA,incomplete,45,number,0,right,Green_Star_Stripes_4.jpg,Red_Star_Chess_2.jpg,Purple_Circle_Grid_4.jpg,right,662.1300000002375,true,low,NA,NA,NA,NA,NA,NA,NA,false
70Guzgkx,3axfspqoztbswwyvx39ztaxp9nrfjw,3pdjhanyk9t29h8ozc8ccb0ops4h6d,70Guzgkx,2020-0188,2020-05-21,12:43:03,13:04:27,NA,incomplete,46,number,1,left,Red_Circle_Dots_4.jpg,Green_Plus_Grid_4.jpg,Purple_Circle_Chess_3.jpg,left,831.350000000326,true,low,NA,NA,NA,NA,NA,NA,NA,false
70Guzgkx,3axfspqoztbswwyvx39ztaxp9nrfjw,3pdjhanyk9t29h8ozc8ccb0ops4h6d,70Guzgkx,2020-0188,2020-05-21,12:43:03,13:04:27,NA,incomplete,47,number,1,left,Red_Star_Grid_1.jpg,Green_Triangle_Stripes_1.jpg,Blue_Star_Chess_3.jpg,left,796.1899999999441,true,low,NA,NA,NA,NA,NA,NA,NA,false
70Guzgkx,3axfspqoztbswwyvx39ztaxp9nrfjw,3pdjhanyk9t29h8ozc8ccb0ops4h6d,70Guzgkx,2020-0188,2020-05-21,12:43:03,13:04:27,NA,incomplete,48,number,1,left,Red_Triangle_Stripes_2.jpg,Blue_Plus_Chess_2.jpg,Green_Triangle_Grid_1.jpg,left,992.8500000000931,true,low,NA,NA,NA,NA,NA,NA,NA,false
70Guzgkx,3axfspqoztbswwyvx39ztaxp9nrfjw,3pdjhanyk9t29h8ozc8ccb0ops4h6d,70Guzgkx,2020-0188,2020-05-21,12:43:03,13:04:27,NA,incomplete,49,number,1,right,Green_Triangle_Chess_4.jpg,Blue_Triangle_Grid_2.jpg,Red_Plus_Stripes_4.jpg,right,725.6049999996321,true,low,NA,NA,NA,NA,NA,NA,NA,false
70Guzgkx,3axfspqoztbswwyvx39ztaxp9nrfjw,3pdjhanyk9t29h8ozc8ccb0ops4h6d,70Guzgkx,2020-0188,2020-05-21,12:43:03,13:04:27,NA,incomplete,50,number,1,left,Red_Plus_Stripes_4.jpg,Blue_Star_Chess_4.jpg,Purple_Plus_Dots_3.jpg,left,907.9149999998044,true,low,NA,NA,NA,NA,NA,NA,NA,false
70Guzgkx,3axfspqoztbswwyvx39ztaxp9nrfjw,3pdjhanyk9t29h8ozc8ccb0ops4h6d,70Guzgkx,2020-0188,2020-05-21,12:43:03,13:04:27,NA,incomplete,51,number,0,left,Blue_Circle_Grid_3.jpg,Red_Star_Stripes_3.jpg,Purple_Circle_Chess_2.jpg,left,866.7550000000047,true,low,NA,NA,NA,NA,NA,NA,NA,false
70Guzgkx,3axfspqoztbswwyvx39ztaxp9nrfjw,3pdjhanyk9t29h8ozc8ccb0ops4h6d,70Guzgkx,2020-0188,2020-05-21,12:43:03,13:04:27,NA,incomplete,52,number,0,right,Purple_Circle_Grid_4.jpg,Green_Circle_Stripes_3.jpg,Red_Plus_Chess_4.jpg,right,742.2399999999907,true,low,NA,NA,NA,NA,NA,NA,NA,false
70Guzgkx,3axfspqoztbswwyvx39ztaxp9nrfjw,3pdjhanyk9t29h8ozc8ccb0ops4h6d,70Guzgkx,2020-0188,2020-05-21,12:43:03,13:04:27,NA,incomplete,53,number,1,left,Green_Circle_Grid_3.jpg,Purple_Triangle_Stripes_3.jpg,Blue_Circle_Dots_2.jpg,left,924.7100000001956,true,low,NA,NA,NA,NA,NA,NA,NA,false
70Guzgkx,3axfspqoztbswwyvx39ztaxp9nrfjw,3pdjhanyk9t29h8ozc8ccb0ops4h6d,70Guzgkx,2020-0188,2020-05-21,12:43:03,13:04:27,NA,incomplete,54,number,1,right,Purple_Triangle_Dots_4.jpg,Green_Triangle_Chess_1.jpg,Blue_Star_Stripes_4.jpg,right,845.6499999997905,true,low,NA,NA,NA,NA,NA,NA,NA,false
70Guzgkx,3axfspqoztbswwyvx39ztaxp9nrfjw,3pdjhanyk9t29h8ozc8ccb0ops4h6d,70Guzgkx,2020-0188,2020-05-21,12:43:03,13:04:27,NA,incomplete,55,number,1,right,Green_Plus_Chess_2.jpg,Red_Plus_Dots_3.jpg,Blue_Circle_Grid_2.jpg,right,894.0799999996088,true,low,NA,NA,NA,NA,NA,NA,NA,false
70Guzgkx,3axfspqoztbswwyvx39ztaxp9nrfjw,3pdjhanyk9t29h8ozc8ccb0ops4h6d,70Guzgkx,2020-0188,2020-05-21,12:43:03,13:04:27,NA,incomplete,56,number,1,right,Purple_Circle_Stripes_1.jpg,Blue_Circle_Grid_3.jpg,Red_Triangle_Dots_1.jpg,right,879.375,true,low,NA,NA,NA,NA,NA,NA,NA,false
70Guzgkx,3axfspqoztbswwyvx39ztaxp9nrfjw,3pdjhanyk9t29h8ozc8ccb0ops4h6d,70Guzgkx,2020-0188,2020-05-21,12:43:03,13:04:27,NA,incomplete,57,number,0,right,Blue_Plus_Stripes_4.jpg,Green_Plus_Grid_2.jpg,Red_Circle_Dots_4.jpg,right,720.5749999997206,true,low,NA,NA,NA,NA,NA,NA,NA,false
70Guzgkx,3axfspqoztbswwyvx39ztaxp9nrfjw,3pdjhanyk9t29h8ozc8ccb0ops4h6d,70Guzgkx,2020-0188,2020-05-21,12:43:03,13:04:27,NA,incomplete,58,number,1,right,Green_Plus_Chess_2.jpg,Purple_Plus_Grid_4.jpg,Blue_Triangle_Dots_2.jpg,right,728.3449999999721,true,low,NA,NA,NA,NA,NA,NA,NA,false
70Guzgkx,3axfspqoztbswwyvx39ztaxp9nrfjw,3pdjhanyk9t29h8ozc8ccb0ops4h6d,70Guzgkx,2020-0188,2020-05-21,12:43:03,13:04:27,NA,incomplete,59,number,1,left,Blue_Circle_Chess_1.jpg,Red_Plus_Grid_1.jpg,Purple_Circle_Dots_4.jpg,left,720.8799999998882,true,low,NA,NA,NA,NA,NA,NA,NA,false
70Guzgkx,3axfspqoztbswwyvx39ztaxp9nrfjw,3pdjhanyk9t29h8ozc8ccb0ops4h6d,70Guzgkx,2020-0188,2020-05-21,12:43:03,13:04:27,NA,incomplete,60,shape,1,right,Green_Plus_Grid_3.jpg,Red_Circle_Dots_3.jpg,Blue_Plus_Chess_1.jpg,left,726.3549999997485,false,low,NA,NA,NA,NA,NA,NA,NA,false
70Guzgkx,3axfspqoztbswwyvx39ztaxp9nrfjw,3pdjhanyk9t29h8ozc8ccb0ops4h6d,70Guzgkx,2020-0188,2020-05-21,12:43:03,13:04:27,NA,incomplete,61,shape,1,right,Green_Star_Chess_1.jpg,Blue_Plus_Dots_1.jpg,Red_Star_Grid_4.jpg,left,741.0049999997718,false,low,NA,NA,NA,NA,NA,NA,NA,false
70Guzgkx,3axfspqoztbswwyvx39ztaxp9nrfjw,3pdjhanyk9t29h8ozc8ccb0ops4h6d,70Guzgkx,2020-0188,2020-05-21,12:43:03,13:04:27,NA,incomplete,62,shape,1,left,Blue_Plus_Stripes_2.jpg,Green_Plus_Grid_1.jpg,Red_Circle_Dots_2.jpg,right,868.5050000003539,false,low,NA,NA,NA,NA,NA,NA,NA,false
70Guzgkx,3axfspqoztbswwyvx39ztaxp9nrfjw,3pdjhanyk9t29h8ozc8ccb0ops4h6d,70Guzgkx,2020-0188,2020-05-21,12:43:03,13:04:27,NA,incomplete,63,shape,1,right,Red_Plus_Grid_1.jpg,Green_Circle_Dots_1.jpg,Blue_Plus_Stripes_2.jpg,right,925.5450000000419,true,low,NA,NA,NA,NA,NA,NA,NA,false
70Guzgkx,3axfspqoztbswwyvx39ztaxp9nrfjw,3pdjhanyk9t29h8ozc8ccb0ops4h6d,70Guzgkx,2020-0188,2020-05-21,12:43:03,13:04:27,NA,incomplete,64,shape,1,left,Green_Triangle_Dots_3.jpg,Purple_Triangle_Grid_4.jpg,Red_Plus_Chess_3.jpg,right,806.6850000000559,false,low,NA,NA,NA,NA,NA,NA,NA,false
70Guzgkx,3axfspqoztbswwyvx39ztaxp9nrfjw,3pdjhanyk9t29h8ozc8ccb0ops4h6d,70Guzgkx,2020-0188,2020-05-21,12:43:03,13:04:27,NA,incomplete,65,shape,1,left,Blue_Star_Stripes_3.jpg,Purple_Star_Grid_2.jpg,Green_Plus_Chess_3.jpg,right,729.0050000001211,false,low,NA,NA,NA,NA,NA,NA,NA,false
70Guzgkx,3axfspqoztbswwyvx39ztaxp9nrfjw,3pdjhanyk9t29h8ozc8ccb0ops4h6d,70Guzgkx,2020-0188,2020-05-21,12:43:03,13:04:27,NA,incomplete,66,shape,1,left,Green_Triangle_Chess_2.jpg,Purple_Triangle_Stripes_4.jpg,Blue_Circle_Dots_2.jpg,left,776.3149999995949,true,low,NA,NA,NA,NA,NA,NA,NA,false
70Guzgkx,3axfspqoztbswwyvx39ztaxp9nrfjw,3pdjhanyk9t29h8ozc8ccb0ops4h6d,70Guzgkx,2020-0188,2020-05-21,12:43:03,13:04:27,NA,incomplete,67,shape,1,right,Purple_Triangle_Grid_3.jpg,Red_Circle_Dots_3.jpg,Blue_Triangle_Chess_4.jpg,right,677.4099999997998,true,low,NA,NA,NA,NA,NA,NA,NA,false
70Guzgkx,3axfspqoztbswwyvx39ztaxp9nrfjw,3pdjhanyk9t29h8ozc8ccb0ops4h6d,70Guzgkx,2020-0188,2020-05-21,12:43:03,13:04:27,NA,incomplete,68,shape,0,left,Purple_Plus_Stripes_4.jpg,Blue_Plus_Chess_2.jpg,Red_Triangle_Grid_4.jpg,right,807.6249999998836,false,low,NA,NA,NA,NA,NA,NA,NA,false
70Guzgkx,3axfspqoztbswwyvx39ztaxp9nrfjw,3pdjhanyk9t29h8ozc8ccb0ops4h6d,70Guzgkx,2020-0188,2020-05-21,12:43:03,13:04:27,NA,incomplete,69,shape,1,left,Red_Plus_Dots_3.jpg,Blue_Plus_Grid_1.jpg,Purple_Star_Chess_3.jpg,right,725.2899999999208,false,low,NA,NA,NA,NA,NA,NA,NA,false
70Guzgkx,3axfspqoztbswwyvx39ztaxp9nrfjw,3pdjhanyk9t29h8ozc8ccb0ops4h6d,70Guzgkx,2020-0188,2020-05-21,12:43:03,13:04:27,NA,incomplete,70,shape,1,left,Purple_Triangle_Stripes_2.jpg,Blue_Triangle_Grid_3.jpg,Red_Star_Dots_2.jpg,left,658.1449999999022,true,low,NA,NA,NA,NA,NA,NA,NA,false
70Guzgkx,3axfspqoztbswwyvx39ztaxp9nrfjw,3pdjhanyk9t29h8ozc8ccb0ops4h6d,70Guzgkx,2020-0188,2020-05-21,12:43:03,13:04:27,NA,incomplete,71,shape,1,left,Purple_Circle_Chess_3.jpg,Red_Circle_Dots_2.jpg,Blue_Plus_Stripes_3.jpg,left,796.1099999997532,true,low,NA,NA,NA,NA,NA,NA,NA,false
70Guzgkx,3axfspqoztbswwyvx39ztaxp9nrfjw,3pdjhanyk9t29h8ozc8ccb0ops4h6d,70Guzgkx,2020-0188,2020-05-21,12:43:03,13:04:27,NA,incomplete,72,shape,1,right,Blue_Plus_Dots_2.jpg,Green_Circle_Chess_2.jpg,Red_Plus_Grid_3.jpg,right,960.7849999997998,true,low,NA,NA,NA,NA,NA,NA,NA,false
70Guzgkx,3axfspqoztbswwyvx39ztaxp9nrfjw,3pdjhanyk9t29h8ozc8ccb0ops4h6d,70Guzgkx,2020-0188,2020-05-21,12:43:03,13:04:27,NA,incomplete,73,shape,0,right,Blue_Triangle_Grid_2.jpg,Purple_Plus_Chess_2.jpg,Red_Triangle_Dots_4.jpg,right,846.0899999999674,true,low,NA,NA,NA,NA,NA,NA,NA,false
70Guzgkx,3axfspqoztbswwyvx39ztaxp9nrfjw,3pdjhanyk9t29h8ozc8ccb0ops4h6d,70Guzgkx,2020-0188,2020-05-21,12:43:03,13:04:27,NA,incomplete,74,shape,1,right,Red_Star_Grid_3.jpg,Purple_Circle_Stripes_3.jpg,Green_Star_Chess_4.jpg,right,673.6799999999348,true,low,NA,NA,NA,NA,NA,NA,NA,false
70Guzgkx,3axfspqoztbswwyvx39ztaxp9nrfjw,3pdjhanyk9t29h8ozc8ccb0ops4h6d,70Guzgkx,2020-0188,2020-05-21,12:43:03,13:04:27,NA,incomplete,75,shape,0,left,Green_Triangle_Dots_4.jpg,Blue_Triangle_Stripes_1.jpg,Red_Star_Chess_4.jpg,left,762.6450000002515,true,low,NA,NA,NA,NA,NA,NA,NA,false
70Guzgkx,3axfspqoztbswwyvx39ztaxp9nrfjw,3pdjhanyk9t29h8ozc8ccb0ops4h6d,70Guzgkx,2020-0188,2020-05-21,12:43:03,13:04:27,NA,incomplete,76,shape,1,left,Blue_Circle_Grid_1.jpg,Purple_Circle_Chess_2.jpg,Green_Star_Stripes_1.jpg,left,808.5399999999208,true,low,NA,NA,NA,NA,NA,NA,NA,false
70Guzgkx,3axfspqoztbswwyvx39ztaxp9nrfjw,3pdjhanyk9t29h8ozc8ccb0ops4h6d,70Guzgkx,2020-0188,2020-05-21,12:43:03,13:04:27,NA,incomplete,77,shape,1,left,Blue_Circle_Chess_4.jpg,Purple_Circle_Dots_2.jpg,Green_Triangle_Grid_4.jpg,left,885.0750000000698,true,low,NA,NA,NA,NA,NA,NA,NA,false
70Guzgkx,3axfspqoztbswwyvx39ztaxp9nrfjw,3pdjhanyk9t29h8ozc8ccb0ops4h6d,70Guzgkx,2020-0188,2020-05-21,12:43:03,13:04:27,NA,incomplete,78,shape,1,right,Red_Star_Stripes_3.jpg,Blue_Plus_Dots_3.jpg,Purple_Star_Grid_4.jpg,right,869.8100000001723,true,low,NA,NA,NA,NA,NA,NA,NA,false
70Guzgkx,3axfspqoztbswwyvx39ztaxp9nrfjw,3pdjhanyk9t29h8ozc8ccb0ops4h6d,70Guzgkx,2020-0188,2020-05-21,12:43:03,13:04:27,NA,incomplete,79,shape,0,left,Purple_Plus_Grid_4.jpg,Blue_Plus_Dots_3.jpg,Red_Star_Stripes_4.jpg,left,982.8550000000978,true,low,NA,NA,NA,NA,NA,NA,NA,false
70Guzgkx,3axfspqoztbswwyvx39ztaxp9nrfjw,3pdjhanyk9t29h8ozc8ccb0ops4h6d,70Guzgkx,2020-0188,2020-05-21,12:43:03,13:04:27,NA,incomplete,80,shape,1,left,Purple_Star_Stripes_2.jpg,Blue_Star_Chess_4.jpg,Green_Triangle_Dots_2.jpg,left,603.770000000135,true,low,NA,NA,NA,NA,NA,NA,NA,false
70Guzgkx,3axfspqoztbswwyvx39ztaxp9nrfjw,3pdjhanyk9t29h8ozc8ccb0ops4h6d,70Guzgkx,2020-0188,2020-05-21,12:43:03,13:04:27,NA,incomplete,81,shape,0,left,Purple_Star_Chess_2.jpg,Blue_Star_Dots_4.jpg,Red_Triangle_Stripes_2.jpg,left,631.6550000001444,true,low,NA,NA,NA,NA,NA,NA,NA,false
70Guzgkx,3axfspqoztbswwyvx39ztaxp9nrfjw,3pdjhanyk9t29h8ozc8ccb0ops4h6d,70Guzgkx,2020-0188,2020-05-21,12:43:03,13:04:27,NA,incomplete,82,shape,1,left,Blue_Triangle_Stripes_3.jpg,Red_Triangle_Chess_2.jpg,Green_Plus_Grid_3.jpg,left,818.4449999999488,true,low,NA,NA,NA,NA,NA,NA,NA,false
70Guzgkx,3axfspqoztbswwyvx39ztaxp9nrfjw,3pdjhanyk9t29h8ozc8ccb0ops4h6d,70Guzgkx,2020-0188,2020-05-21,12:43:03,13:04:27,NA,incomplete,83,shape,1,right,Green_Star_Stripes_3.jpg,Blue_Triangle_Chess_3.jpg,Purple_Star_Grid_2.jpg,right,766.4549999999581,true,low,NA,NA,NA,NA,NA,NA,NA,false
70Guzgkx,3axfspqoztbswwyvx39ztaxp9nrfjw,3pdjhanyk9t29h8ozc8ccb0ops4h6d,70Guzgkx,2020-0188,2020-05-21,12:43:03,13:04:27,NA,incomplete,84,shape,1,right,Red_Star_Chess_1.jpg,Purple_Plus_Grid_1.jpg,Green_Star_Dots_3.jpg,right,941.0899999997346,true,low,NA,NA,NA,NA,NA,NA,NA,false
70Guzgkx,3axfspqoztbswwyvx39ztaxp9nrfjw,3pdjhanyk9t29h8ozc8ccb0ops4h6d,70Guzgkx,2020-0188,2020-05-21,12:43:03,13:04:27,NA,incomplete,85,shape,1,right,Purple_Plus_Chess_2.jpg,Blue_Star_Stripes_2.jpg,Red_Plus_Grid_4.jpg,right,587.4399999997113,true,low,NA,NA,NA,NA,NA,NA,NA,false
70Guzgkx,3axfspqoztbswwyvx39ztaxp9nrfjw,3pdjhanyk9t29h8ozc8ccb0ops4h6d,70Guzgkx,2020-0188,2020-05-21,12:43:03,13:04:27,NA,incomplete,86,shape,1,left,Green_Star_Grid_1.jpg,Purple_Star_Stripes_3.jpg,Blue_Triangle_Dots_1.jpg,left,816.3650000001071,true,low,NA,NA,NA,NA,NA,NA,NA,false
70Guzgkx,3axfspqoztbswwyvx39ztaxp9nrfjw,3pdjhanyk9t29h8ozc8ccb0ops4h6d,70Guzgkx,2020-0188,2020-05-21,12:43:03,13:04:27,NA,incomplete,87,shape,1,right,Red_Star_Stripes_3.jpg,Purple_Circle_Chess_3.jpg,Blue_Star_Dots_2.jpg,right,676.0400000002701,true,low,NA,NA,NA,NA,NA,NA,NA,false
70Guzgkx,3axfspqoztbswwyvx39ztaxp9nrfjw,3pdjhanyk9t29h8ozc8ccb0ops4h6d,70Guzgkx,2020-0188,2020-05-21,12:43:03,13:04:27,NA,incomplete,88,shape,1,right,Red_Star_Stripes_4.jpg,Blue_Circle_Grid_4.jpg,Green_Star_Dots_1.jpg,right,708.4399999998277,true,low,NA,NA,NA,NA,NA,NA,NA,false
70Guzgkx,3axfspqoztbswwyvx39ztaxp9nrfjw,3pdjhanyk9t29h8ozc8ccb0ops4h6d,70Guzgkx,2020-0188,2020-05-21,12:43:03,13:04:27,NA,incomplete,89,shape,1,left,Blue_Circle_Dots_4.jpg,Red_Circle_Stripes_2.jpg,Green_Triangle_Grid_4.jpg,left,750.4100000000326,true,low,NA,NA,NA,NA,NA,NA,NA,false
70Guzgkx,3axfspqoztbswwyvx39ztaxp9nrfjw,3pdjhanyk9t29h8ozc8ccb0ops4h6d,70Guzgkx,2020-0188,2020-05-21,12:43:03,13:04:27,NA,incomplete,90,number,1,right,Green_Triangle_Grid_1.jpg,Blue_Triangle_Dots_2.jpg,Red_Plus_Chess_1.jpg,left,555.2999999999302,false,low,NA,NA,NA,NA,NA,NA,NA,false
70Guzgkx,3axfspqoztbswwyvx39ztaxp9nrfjw,3pdjhanyk9t29h8ozc8ccb0ops4h6d,70Guzgkx,2020-0188,2020-05-21,12:43:03,13:04:27,NA,incomplete,91,number,1,right,Purple_Triangle_Chess_2.jpg,Green_Triangle_Grid_4.jpg,Red_Star_Stripes_2.jpg,left,745.5750000004191,false,low,NA,NA,NA,NA,NA,NA,NA,false
70Guzgkx,3axfspqoztbswwyvx39ztaxp9nrfjw,3pdjhanyk9t29h8ozc8ccb0ops4h6d,70Guzgkx,2020-0188,2020-05-21,12:43:03,13:04:27,NA,incomplete,92,number,0,right,Red_Star_Chess_4.jpg,Purple_Star_Stripes_2.jpg,Green_Plus_Dots_4.jpg,left,672.3350000001956,false,low,NA,NA,NA,NA,NA,NA,NA,false
70Guzgkx,3axfspqoztbswwyvx39ztaxp9nrfjw,3pdjhanyk9t29h8ozc8ccb0ops4h6d,70Guzgkx,2020-0188,2020-05-21,12:43:03,13:04:27,NA,incomplete,93,number,1,right,Purple_Triangle_Chess_2.jpg,Blue_Triangle_Grid_4.jpg,Green_Star_Dots_2.jpg,left,897.6050000002142,false,low,NA,NA,NA,NA,NA,NA,NA,false
70Guzgkx,3axfspqoztbswwyvx39ztaxp9nrfjw,3pdjhanyk9t29h8ozc8ccb0ops4h6d,70Guzgkx,2020-0188,2020-05-21,12:43:03,13:04:27,NA,incomplete,94,number,1,right,Green_Triangle_Grid_3.jpg,Red_Triangle_Stripes_2.jpg,Blue_Plus_Dots_3.jpg,left,706.1500000000233,false,low,NA,NA,NA,NA,NA,NA,NA,false
70Guzgkx,3axfspqoztbswwyvx39ztaxp9nrfjw,3pdjhanyk9t29h8ozc8ccb0ops4h6d,70Guzgkx,2020-0188,2020-05-21,12:43:03,13:04:27,NA,incomplete,95,number,0,left,Green_Star_Dots_4.jpg,Red_Triangle_Chess_4.jpg,Purple_Star_Stripes_1.jpg,left,1761.7350000001024,true,low,NA,NA,NA,NA,NA,NA,NA,false
70Guzgkx,3axfspqoztbswwyvx39ztaxp9nrfjw,3pdjhanyk9t29h8ozc8ccb0ops4h6d,70Guzgkx,2020-0188,2020-05-21,12:43:03,13:04:27,NA,incomplete,96,number,0,right,Green_Star_Dots_3.jpg,Purple_Star_Grid_2.jpg,Blue_Triangle_Stripes_3.jpg,right,1399.9300000000512,true,low,NA,NA,NA,NA,NA,NA,NA,false
70Guzgkx,3axfspqoztbswwyvx39ztaxp9nrfjw,3pdjhanyk9t29h8ozc8ccb0ops4h6d,70Guzgkx,2020-0188,2020-05-21,12:43:03,13:04:27,NA,incomplete,97,number,1,right,Red_Star_Grid_1.jpg,Blue_Star_Stripes_4.jpg,Green_Circle_Dots_1.jpg,right,1109.3449999998556,true,low,NA,NA,NA,NA,NA,NA,NA,false
70Guzgkx,3axfspqoztbswwyvx39ztaxp9nrfjw,3pdjhanyk9t29h8ozc8ccb0ops4h6d,70Guzgkx,2020-0188,2020-05-21,12:43:03,13:04:27,NA,incomplete,98,number,1,right,Purple_Circle_Chess_4.jpg,Blue_Circle_Grid_3.jpg,Green_Plus_Dots_4.jpg,right,966.734999999986,true,low,NA,NA,NA,NA,NA,NA,NA,false
70Guzgkx,3axfspqoztbswwyvx39ztaxp9nrfjw,3pdjhanyk9t29h8ozc8ccb0ops4h6d,70Guzgkx,2020-0188,2020-05-21,12:43:03,13:04:27,NA,incomplete,99,number,1,left,Blue_Star_Stripes_4.jpg,Purple_Plus_Grid_4.jpg,Red_Star_Chess_3.jpg,left,1066.4150000001537,true,low,NA,NA,NA,NA,NA,NA,NA,false
70Guzgkx,3axfspqoztbswwyvx39ztaxp9nrfjw,3pdjhanyk9t29h8ozc8ccb0ops4h6d,70Guzgkx,2020-0188,2020-05-21,12:43:03,13:04:27,NA,incomplete,100,number,1,right,Red_Plus_Stripes_1.jpg,Blue_Plus_Dots_4.jpg,Green_Circle_Grid_1.jpg,right,748.285000000149,true,low,NA,NA,NA,NA,NA,NA,NA,false
70Guzgkx,3axfspqoztbswwyvx39ztaxp9nrfjw,3pdjhanyk9t29h8ozc8ccb0ops4h6d,70Guzgkx,2020-0188,2020-05-21,12:43:03,13:04:27,NA,incomplete,101,number,1,left,Green_Star_Dots_3.jpg,Blue_Triangle_Stripes_3.jpg,Red_Star_Grid_1.jpg,left,874.9899999998743,true,low,NA,NA,NA,NA,NA,NA,NA,false
70Guzgkx,3axfspqoztbswwyvx39ztaxp9nrfjw,3pdjhanyk9t29h8ozc8ccb0ops4h6d,70Guzgkx,2020-0188,2020-05-21,12:43:03,13:04:27,NA,incomplete,102,number,0,right,Green_Star_Stripes_4.jpg,Red_Star_Chess_1.jpg,Purple_Plus_Dots_4.jpg,right,652.0800000003073,true,low,NA,NA,NA,NA,NA,NA,NA,false
70Guzgkx,3axfspqoztbswwyvx39ztaxp9nrfjw,3pdjhanyk9t29h8ozc8ccb0ops4h6d,70Guzgkx,2020-0188,2020-05-21,12:43:03,13:04:27,NA,incomplete,103,number,1,left,Green_Circle_Chess_1.jpg,Purple_Plus_Dots_1.jpg,Blue_Circle_Stripes_4.jpg,left,680.9899999998743,true,low,NA,NA,NA,NA,NA,NA,NA,false
70Guzgkx,3axfspqoztbswwyvx39ztaxp9nrfjw,3pdjhanyk9t29h8ozc8ccb0ops4h6d,70Guzgkx,2020-0188,2020-05-21,12:43:03,13:04:27,NA,incomplete,104,number,1,left,Red_Plus_Stripes_2.jpg,Green_Star_Dots_2.jpg,Blue_Plus_Grid_1.jpg,left,784.2150000000838,true,low,NA,NA,NA,NA,NA,NA,NA,false
70Guzgkx,3axfspqoztbswwyvx39ztaxp9nrfjw,3pdjhanyk9t29h8ozc8ccb0ops4h6d,70Guzgkx,2020-0188,2020-05-21,12:43:03,13:04:27,NA,incomplete,105,number,1,right,Green_Circle_Dots_3.jpg,Blue_Circle_Chess_4.jpg,Purple_Star_Stripes_3.jpg,right,941.0499999999302,true,low,NA,NA,NA,NA,NA,NA,NA,false
70Guzgkx,3axfspqoztbswwyvx39ztaxp9nrfjw,3pdjhanyk9t29h8ozc8ccb0ops4h6d,70Guzgkx,2020-0188,2020-05-21,12:43:03,13:04:27,NA,incomplete,106,number,1,right,Green_Star_Chess_4.jpg,Blue_Star_Stripes_3.jpg,Red_Plus_Dots_4.jpg,right,723.6699999998091,true,low,NA,NA,NA,NA,NA,NA,NA,false
70Guzgkx,3axfspqoztbswwyvx39ztaxp9nrfjw,3pdjhanyk9t29h8ozc8ccb0ops4h6d,70Guzgkx,2020-0188,2020-05-21,12:43:03,13:04:27,NA,incomplete,107,number,0,left,Blue_Circle_Stripes_1.jpg,Red_Triangle_Chess_1.jpg,Green_Circle_Dots_4.jpg,left,698.2149999999674,true,low,NA,NA,NA,NA,NA,NA,NA,false
70Guzgkx,3axfspqoztbswwyvx39ztaxp9nrfjw,3pdjhanyk9t29h8ozc8ccb0ops4h6d,70Guzgkx,2020-0188,2020-05-21,12:43:03,13:04:27,NA,incomplete,108,number,1,left,Purple_Plus_Grid_4.jpg,Blue_Star_Chess_4.jpg,Red_Plus_Dots_2.jpg,left,611.4400000000605,true,low,NA,NA,NA,NA,NA,NA,NA,false
70Guzgkx,3axfspqoztbswwyvx39ztaxp9nrfjw,3pdjhanyk9t29h8ozc8ccb0ops4h6d,70Guzgkx,2020-0188,2020-05-21,12:43:03,13:04:27,NA,incomplete,109,number,1,left,Blue_Circle_Stripes_2.jpg,Purple_Triangle_Grid_2.jpg,Green_Circle_Chess_1.jpg,left,798.555000000284,true,low,NA,NA,NA,NA,NA,NA,NA,false
70Guzgkx,3axfspqoztbswwyvx39ztaxp9nrfjw,3pdjhanyk9t29h8ozc8ccb0ops4h6d,70Guzgkx,2020-0188,2020-05-21,12:43:03,13:04:27,NA,incomplete,110,number,1,right,Green_Circle_Dots_3.jpg,Purple_Circle_Stripes_1.jpg,Blue_Plus_Grid_3.jpg,right,717.2200000000885,true,low,NA,NA,NA,NA,NA,NA,NA,false
70Guzgkx,3axfspqoztbswwyvx39ztaxp9nrfjw,3pdjhanyk9t29h8ozc8ccb0ops4h6d,70Guzgkx,2020-0188,2020-05-21,12:43:03,13:04:27,NA,incomplete,111,number,0,right,Blue_Circle_Dots_3.jpg,Green_Circle_Stripes_1.jpg,Red_Star_Chess_3.jpg,right,578.5700000001816,true,low,NA,NA,NA,NA,NA,NA,NA,false
70Guzgkx,3axfspqoztbswwyvx39ztaxp9nrfjw,3pdjhanyk9t29h8ozc8ccb0ops4h6d,70Guzgkx,2020-0188,2020-05-21,12:43:03,13:04:27,NA,incomplete,112,number,1,right,Red_Star_Dots_3.jpg,Blue_Star_Stripes_1.jpg,Purple_Plus_Chess_3.jpg,right,880.9150000002701,true,low,NA,NA,NA,NA,NA,NA,NA,false
70Guzgkx,3axfspqoztbswwyvx39ztaxp9nrfjw,3pdjhanyk9t29h8ozc8ccb0ops4h6d,70Guzgkx,2020-0188,2020-05-21,12:43:03,13:04:27,NA,incomplete,113,number,1,right,Red_Circle_Dots_4.jpg,Purple_Circle_Chess_1.jpg,Green_Plus_Stripes_4.jpg,right,587.3499999997439,true,low,NA,NA,NA,NA,NA,NA,NA,false
70Guzgkx,3axfspqoztbswwyvx39ztaxp9nrfjw,3pdjhanyk9t29h8ozc8ccb0ops4h6d,70Guzgkx,2020-0188,2020-05-21,12:43:03,13:04:27,NA,incomplete,114,number,0,left,Blue_Plus_Chess_3.jpg,Purple_Star_Dots_3.jpg,Green_Plus_Stripes_1.jpg,left,518.4150000000373,true,low,NA,NA,NA,NA,NA,NA,NA,false
70Guzgkx,3axfspqoztbswwyvx39ztaxp9nrfjw,3pdjhanyk9t29h8ozc8ccb0ops4h6d,70Guzgkx,2020-0188,2020-05-21,12:43:03,13:04:27,NA,incomplete,115,number,1,right,Green_Plus_Stripes_4.jpg,Red_Plus_Grid_3.jpg,Purple_Triangle_Chess_4.jpg,right,798.4699999997392,true,low,NA,NA,NA,NA,NA,NA,NA,false
70Guzgkx,3axfspqoztbswwyvx39ztaxp9nrfjw,3pdjhanyk9t29h8ozc8ccb0ops4h6d,70Guzgkx,2020-0188,2020-05-21,12:43:03,13:04:27,NA,incomplete,116,number,1,right,Green_Plus_Chess_1.jpg,Red_Plus_Dots_2.jpg,Purple_Circle_Stripes_1.jpg,right,849.890000000014,true,low,NA,NA,NA,NA,NA,NA,NA,false
70Guzgkx,3axfspqoztbswwyvx39ztaxp9nrfjw,3pdjhanyk9t29h8ozc8ccb0ops4h6d,70Guzgkx,2020-0188,2020-05-21,12:43:03,13:04:27,NA,incomplete,117,number,1,left,Purple_Triangle_Stripes_1.jpg,Red_Circle_Grid_1.jpg,Green_Triangle_Dots_4.jpg,left,716.390000000014,true,low,NA,NA,NA,NA,NA,NA,NA,false
70Guzgkx,3axfspqoztbswwyvx39ztaxp9nrfjw,3pdjhanyk9t29h8ozc8ccb0ops4h6d,70Guzgkx,2020-0188,2020-05-21,12:43:03,13:04:27,NA,incomplete,118,number,1,left,Purple_Plus_Grid_3.jpg,Green_Circle_Stripes_3.jpg,Red_Plus_Chess_4.jpg,left,1157.0150000002468,true,low,NA,NA,NA,NA,NA,NA,NA,false
70Guzgkx,3axfspqoztbswwyvx39ztaxp9nrfjw,3pdjhanyk9t29h8ozc8ccb0ops4h6d,70Guzgkx,2020-0188,2020-05-21,12:43:03,13:04:27,NA,incomplete,119,number,1,right,Blue_Triangle_Dots_3.jpg,Green_Triangle_Grid_4.jpg,Purple_Circle_Chess_3.jpg,right,737.8550000002142,true,low,NA,NA,NA,NA,NA,NA,NA,false
70Guzgkx,3axfspqoztbswwyvx39ztaxp9nrfjw,3pdjhanyk9t29h8ozc8ccb0ops4h6d,70Guzgkx,2020-0188,2020-05-21,12:43:03,13:04:27,NA,incomplete,120,filling,1,left,Purple_Star_Grid_4.jpg,Red_Plus_Grid_3.jpg,Purple_Triangle_Dots_1.jpg,NA,NA,NA,low,NA,NA,NA,NA,NA,NA,NA,false
70Guzgkx,3axfspqoztbswwyvx39ztaxp9nrfjw,3pdjhanyk9t29h8ozc8ccb0ops4h6d,70Guzgkx,2020-0188,2020-05-21,12:43:03,13:04:27,NA,incomplete,121,filling,0,right,Green_Circle_Stripes_4.jpg,Green_Star_Grid_1.jpg,Red_Plus_Stripes_2.jpg,right,1321.7850000000326,true,low,NA,NA,NA,NA,NA,NA,NA,false
70Guzgkx,3axfspqoztbswwyvx39ztaxp9nrfjw,3pdjhanyk9t29h8ozc8ccb0ops4h6d,70Guzgkx,2020-0188,2020-05-21,12:43:03,13:04:27,NA,incomplete,122,filling,1,left,Blue_Plus_Grid_1.jpg,Purple_Triangle_Grid_2.jpg,Blue_Circle_Stripes_4.jpg,right,1194.6400000002468,false,low,NA,NA,NA,NA,NA,NA,NA,false
70Guzgkx,3axfspqoztbswwyvx39ztaxp9nrfjw,3pdjhanyk9t29h8ozc8ccb0ops4h6d,70Guzgkx,2020-0188,2020-05-21,12:43:03,13:04:27,NA,incomplete,123,filling,1,left,Purple_Star_Chess_4.jpg,Blue_Circle_Chess_3.jpg,Purple_Triangle_Grid_2.jpg,right,1078.0299999996787,false,low,NA,NA,NA,NA,NA,NA,NA,false
70Guzgkx,3axfspqoztbswwyvx39ztaxp9nrfjw,3pdjhanyk9t29h8ozc8ccb0ops4h6d,70Guzgkx,2020-0188,2020-05-21,12:43:03,13:04:27,NA,incomplete,124,filling,1,left,Green_Triangle_Dots_1.jpg,Blue_Star_Dots_4.jpg,Green_Circle_Stripes_2.jpg,right,970.3950000002515,false,low,NA,NA,NA,NA,NA,NA,NA,false
70Guzgkx,3axfspqoztbswwyvx39ztaxp9nrfjw,3pdjhanyk9t29h8ozc8ccb0ops4h6d,70Guzgkx,2020-0188,2020-05-21,12:43:03,13:04:27,NA,incomplete,125,filling,1,left,Purple_Star_Stripes_4.jpg,Blue_Triangle_Stripes_1.jpg,Purple_Circle_Dots_3.jpg,left,1014.304999999702,true,low,NA,NA,NA,NA,NA,NA,NA,false
70Guzgkx,3axfspqoztbswwyvx39ztaxp9nrfjw,3pdjhanyk9t29h8ozc8ccb0ops4h6d,70Guzgkx,2020-0188,2020-05-21,12:43:03,13:04:27,NA,incomplete,126,filling,0,right,Blue_Plus_Dots_1.jpg,Blue_Star_Grid_2.jpg,Red_Circle_Dots_3.jpg,right,1058.0350000000326,true,low,NA,NA,NA,NA,NA,NA,NA,false
70Guzgkx,3axfspqoztbswwyvx39ztaxp9nrfjw,3pdjhanyk9t29h8ozc8ccb0ops4h6d,70Guzgkx,2020-0188,2020-05-21,12:43:03,13:04:27,NA,incomplete,127,filling,1,right,Purple_Triangle_Grid_4.jpg,Purple_Plus_Dots_2.jpg,Green_Star_Grid_3.jpg,right,915.6650000000373,true,low,NA,NA,NA,NA,NA,NA,NA,false
70Guzgkx,3axfspqoztbswwyvx39ztaxp9nrfjw,3pdjhanyk9t29h8ozc8ccb0ops4h6d,70Guzgkx,2020-0188,2020-05-21,12:43:03,13:04:27,NA,incomplete,128,filling,1,left,Red_Triangle_Chess_3.jpg,Blue_Circle_Chess_2.jpg,Red_Plus_Stripes_4.jpg,left,1011.9049999997951,true,low,NA,NA,NA,NA,NA,NA,NA,false
70Guzgkx,3axfspqoztbswwyvx39ztaxp9nrfjw,3pdjhanyk9t29h8ozc8ccb0ops4h6d,70Guzgkx,2020-0188,2020-05-21,12:43:03,13:04:27,NA,incomplete,129,filling,1,left,Purple_Star_Dots_3.jpg,Red_Triangle_Dots_4.jpg,Purple_Plus_Chess_1.jpg,left,848.1100000003353,true,low,NA,NA,NA,NA,NA,NA,NA,false
70Guzgkx,3axfspqoztbswwyvx39ztaxp9nrfjw,3pdjhanyk9t29h8ozc8ccb0ops4h6d,70Guzgkx,2020-0188,2020-05-21,12:43:03,13:04:27,NA,incomplete,130,filling,1,right,Red_Triangle_Stripes_4.jpg,Red_Star_Grid_3.jpg,Green_Plus_Stripes_1.jpg,right,867.9149999998044,true,low,NA,NA,NA,NA,NA,NA,NA,false
70Guzgkx,3axfspqoztbswwyvx39ztaxp9nrfjw,3pdjhanyk9t29h8ozc8ccb0ops4h6d,70Guzgkx,2020-0188,2020-05-21,12:43:03,13:04:27,NA,incomplete,131,filling,1,right,Purple_Star_Grid_4.jpg,Purple_Triangle_Dots_2.jpg,Blue_Circle_Grid_3.jpg,right,740.0149999998976,true,low,NA,NA,NA,NA,NA,NA,NA,false
70Guzgkx,3axfspqoztbswwyvx39ztaxp9nrfjw,3pdjhanyk9t29h8ozc8ccb0ops4h6d,70Guzgkx,2020-0188,2020-05-21,12:43:03,13:04:27,NA,incomplete,132,filling,1,right,Purple_Star_Stripes_1.jpg,Purple_Circle_Dots_3.jpg,Green_Plus_Stripes_2.jpg,right,778.8600000003353,true,low,NA,NA,NA,NA,NA,NA,NA,false
70Guzgkx,3axfspqoztbswwyvx39ztaxp9nrfjw,3pdjhanyk9t29h8ozc8ccb0ops4h6d,70Guzgkx,2020-0188,2020-05-21,12:43:03,13:04:27,NA,incomplete,133,filling,0,left,Red_Plus_Stripes_4.jpg,Purple_Star_Stripes_2.jpg,Red_Circle_Chess_1.jpg,left,863.524999999674,true,low,NA,NA,NA,NA,NA,NA,NA,false
70Guzgkx,3axfspqoztbswwyvx39ztaxp9nrfjw,3pdjhanyk9t29h8ozc8ccb0ops4h6d,70Guzgkx,2020-0188,2020-05-21,12:43:03,13:04:27,NA,incomplete,134,filling,1,right,Purple_Triangle_Stripes_1.jpg,Purple_Star_Grid_4.jpg,Blue_Circle_Stripes_3.jpg,right,648.8850000001257,true,low,NA,NA,NA,NA,NA,NA,NA,false
70Guzgkx,3axfspqoztbswwyvx39ztaxp9nrfjw,3pdjhanyk9t29h8ozc8ccb0ops4h6d,70Guzgkx,2020-0188,2020-05-21,12:43:03,13:04:27,NA,incomplete,135,filling,1,right,Red_Circle_Grid_4.jpg,Red_Star_Chess_3.jpg,Green_Plus_Grid_1.jpg,right,788.2450000002282,true,low,NA,NA,NA,NA,NA,NA,NA,false
70Guzgkx,3axfspqoztbswwyvx39ztaxp9nrfjw,3pdjhanyk9t29h8ozc8ccb0ops4h6d,70Guzgkx,2020-0188,2020-05-21,12:43:03,13:04:27,NA,incomplete,136,filling,0,right,Green_Star_Grid_1.jpg,Green_Circle_Dots_3.jpg,Blue_Triangle_Grid_2.jpg,right,688.5300000003772,true,low,NA,NA,NA,NA,NA,NA,NA,false
70Guzgkx,3axfspqoztbswwyvx39ztaxp9nrfjw,3pdjhanyk9t29h8ozc8ccb0ops4h6d,70Guzgkx,2020-0188,2020-05-21,12:43:03,13:04:27,NA,incomplete,137,filling,1,right,Blue_Triangle_Chess_3.jpg,Blue_Star_Grid_4.jpg,Green_Plus_Chess_1.jpg,right,841.9499999999534,true,low,NA,NA,NA,NA,NA,NA,NA,false
70Guzgkx,3axfspqoztbswwyvx39ztaxp9nrfjw,3pdjhanyk9t29h8ozc8ccb0ops4h6d,70Guzgkx,2020-0188,2020-05-21,12:43:03,13:04:27,NA,incomplete,138,filling,1,left,Red_Star_Chess_3.jpg,Blue_Plus_Chess_1.jpg,Red_Triangle_Stripes_2.jpg,left,812.9050000002608,true,low,NA,NA,NA,NA,NA,NA,NA,false
70Guzgkx,3axfspqoztbswwyvx39ztaxp9nrfjw,3pdjhanyk9t29h8ozc8ccb0ops4h6d,70Guzgkx,2020-0188,2020-05-21,12:43:03,13:04:27,NA,incomplete,139,filling,0,right,Purple_Plus_Dots_4.jpg,Purple_Triangle_Chess_1.jpg,Blue_Star_Dots_3.jpg,right,808.7500000001164,true,low,NA,NA,NA,NA,NA,NA,NA,false
70Guzgkx,3axfspqoztbswwyvx39ztaxp9nrfjw,3pdjhanyk9t29h8ozc8ccb0ops4h6d,70Guzgkx,2020-0188,2020-05-21,12:43:03,13:04:27,NA,incomplete,140,color,1,right,Red_Star_Dots_1.jpg,Blue_Plus_Dots_3.jpg,Red_Triangle_Stripes_2.jpg,left,806.0549999999348,false,low,NA,NA,NA,NA,NA,NA,NA,false
70Guzgkx,3axfspqoztbswwyvx39ztaxp9nrfjw,3pdjhanyk9t29h8ozc8ccb0ops4h6d,70Guzgkx,2020-0188,2020-05-21,12:43:03,13:04:27,NA,incomplete,141,color,1,left,Green_Plus_Chess_2.jpg,Green_Circle_Stripes_1.jpg,Red_Star_Chess_3.jpg,right,1044.75,false,low,NA,NA,NA,NA,NA,NA,NA,false
70Guzgkx,3axfspqoztbswwyvx39ztaxp9nrfjw,3pdjhanyk9t29h8ozc8ccb0ops4h6d,70Guzgkx,2020-0188,2020-05-21,12:43:03,13:04:27,NA,incomplete,142,color,1,right,Green_Triangle_Grid_1.jpg,Purple_Plus_Grid_4.jpg,Green_Star_Chess_3.jpg,right,778.3500000000931,true,low,NA,NA,NA,NA,NA,NA,NA,false
70Guzgkx,3axfspqoztbswwyvx39ztaxp9nrfjw,3pdjhanyk9t29h8ozc8ccb0ops4h6d,70Guzgkx,2020-0188,2020-05-21,12:43:03,13:04:27,NA,incomplete,143,color,1,left,Red_Circle_Stripes_2.jpg,Red_Triangle_Dots_3.jpg,Purple_Plus_Stripes_4.jpg,left,608.1949999998324,true,low,NA,NA,NA,NA,NA,NA,NA,false
70Guzgkx,3axfspqoztbswwyvx39ztaxp9nrfjw,3pdjhanyk9t29h8ozc8ccb0ops4h6d,70Guzgkx,2020-0188,2020-05-21,12:43:03,13:04:27,NA,incomplete,144,color,0,right,Blue_Plus_Dots_1.jpg,Purple_Triangle_Dots_3.jpg,Blue_Circle_Chess_2.jpg,right,484.9399999998277,true,low,NA,NA,NA,NA,NA,NA,NA,false
70Guzgkx,3axfspqoztbswwyvx39ztaxp9nrfjw,3pdjhanyk9t29h8ozc8ccb0ops4h6d,70Guzgkx,2020-0188,2020-05-21,12:43:03,13:04:27,NA,incomplete,145,color,1,left,Blue_Circle_Dots_4.jpg,Blue_Plus_Stripes_2.jpg,Green_Triangle_Dots_1.jpg,left,484.77499999979045,true,low,NA,NA,NA,NA,NA,NA,NA,false
70Guzgkx,3axfspqoztbswwyvx39ztaxp9nrfjw,3pdjhanyk9t29h8ozc8ccb0ops4h6d,70Guzgkx,2020-0188,2020-05-21,12:43:03,13:04:27,NA,incomplete,146,color,1,right,Red_Circle_Stripes_4.jpg,Green_Star_Stripes_2.jpg,Red_Triangle_Dots_1.jpg,right,493.5199999999022,true,low,NA,NA,NA,NA,NA,NA,NA,false
70Guzgkx,3axfspqoztbswwyvx39ztaxp9nrfjw,3pdjhanyk9t29h8ozc8ccb0ops4h6d,70Guzgkx,2020-0188,2020-05-21,12:43:03,13:04:27,NA,incomplete,147,color,1,left,Green_Plus_Stripes_4.jpg,Green_Triangle_Chess_1.jpg,Purple_Circle_Stripes_2.jpg,left,470.38999999989755,true,low,NA,NA,NA,NA,NA,NA,NA,false
70Guzgkx,3axfspqoztbswwyvx39ztaxp9nrfjw,3pdjhanyk9t29h8ozc8ccb0ops4h6d,70Guzgkx,2020-0188,2020-05-21,12:43:03,13:04:27,NA,incomplete,148,color,1,right,Red_Star_Stripes_1.jpg,Green_Triangle_Stripes_2.jpg,Red_Plus_Grid_4.jpg,right,446.6449999999022,true,low,NA,NA,NA,NA,NA,NA,NA,false
70Guzgkx,3axfspqoztbswwyvx39ztaxp9nrfjw,3pdjhanyk9t29h8ozc8ccb0ops4h6d,70Guzgkx,2020-0188,2020-05-21,12:43:03,13:04:27,NA,incomplete,149,color,1,left,Red_Triangle_Chess_2.jpg,Red_Plus_Stripes_3.jpg,Green_Star_Chess_4.jpg,left,457.4450000000652,true,low,NA,NA,NA,NA,NA,NA,NA,false
70Guzgkx,3axfspqoztbswwyvx39ztaxp9nrfjw,3pdjhanyk9t29h8ozc8ccb0ops4h6d,70Guzgkx,2020-0188,2020-05-21,12:43:03,13:04:27,NA,incomplete,150,color,1,left,Purple_Plus_Dots_2.jpg,Purple_Circle_Grid_1.jpg,Blue_Triangle_Dots_4.jpg,left,475.38500000024214,true,low,NA,NA,NA,NA,NA,NA,NA,false
70Guzgkx,3axfspqoztbswwyvx39ztaxp9nrfjw,3pdjhanyk9t29h8ozc8ccb0ops4h6d,70Guzgkx,2020-0188,2020-05-21,12:43:03,13:04:27,NA,incomplete,151,color,0,right,Blue_Star_Chess_1.jpg,Purple_Circle_Chess_2.jpg,Blue_Triangle_Grid_3.jpg,right,493.375,true,low,NA,NA,NA,NA,NA,NA,NA,false
70Guzgkx,3axfspqoztbswwyvx39ztaxp9nrfjw,3pdjhanyk9t29h8ozc8ccb0ops4h6d,70Guzgkx,2020-0188,2020-05-21,12:43:03,13:04:27,NA,incomplete,152,color,1,right,Green_Circle_Dots_2.jpg,Red_Plus_Dots_4.jpg,Green_Triangle_Stripes_3.jpg,right,525.979999999865,true,low,NA,NA,NA,NA,NA,NA,NA,false
70Guzgkx,3axfspqoztbswwyvx39ztaxp9nrfjw,3pdjhanyk9t29h8ozc8ccb0ops4h6d,70Guzgkx,2020-0188,2020-05-21,12:43:03,13:04:27,NA,incomplete,153,color,0,left,Blue_Star_Dots_2.jpg,Blue_Triangle_Stripes_1.jpg,Purple_Plus_Dots_3.jpg,left,452.89999999979045,true,low,NA,NA,NA,NA,NA,NA,NA,false
70Guzgkx,3axfspqoztbswwyvx39ztaxp9nrfjw,3pdjhanyk9t29h8ozc8ccb0ops4h6d,70Guzgkx,2020-0188,2020-05-21,12:43:03,13:04:27,NA,incomplete,154,color,1,left,Green_Plus_Dots_1.jpg,Green_Circle_Grid_3.jpg,Red_Star_Dots_2.jpg,left,510.53500000038184,true,low,NA,NA,NA,NA,NA,NA,NA,false
70Guzgkx,3axfspqoztbswwyvx39ztaxp9nrfjw,3pdjhanyk9t29h8ozc8ccb0ops4h6d,70Guzgkx,2020-0188,2020-05-21,12:43:03,13:04:27,NA,incomplete,155,color,1,right,Green_Star_Grid_4.jpg,Blue_Plus_Grid_3.jpg,Green_Triangle_Chess_2.jpg,right,519.2099999994971,true,low,NA,NA,NA,NA,NA,NA,NA,false
70Guzgkx,3axfspqoztbswwyvx39ztaxp9nrfjw,3pdjhanyk9t29h8ozc8ccb0ops4h6d,70Guzgkx,2020-0188,2020-05-21,12:43:03,13:04:27,NA,incomplete,156,color,1,right,Purple_Triangle_Stripes_2.jpg,Red_Star_Stripes_1.jpg,Purple_Circle_Grid_4.jpg,right,446.16000000038184,true,low,NA,NA,NA,NA,NA,NA,NA,false
70Guzgkx,3axfspqoztbswwyvx39ztaxp9nrfjw,3pdjhanyk9t29h8ozc8ccb0ops4h6d,70Guzgkx,2020-0188,2020-05-21,12:43:03,13:04:27,NA,incomplete,157,color,1,left,Red_Star_Chess_1.jpg,Red_Circle_Dots_3.jpg,Blue_Plus_Chess_4.jpg,left,483.52499999967404,true,low,NA,NA,NA,NA,NA,NA,NA,false
70Guzgkx,3axfspqoztbswwyvx39ztaxp9nrfjw,3pdjhanyk9t29h8ozc8ccb0ops4h6d,70Guzgkx,2020-0188,2020-05-21,12:43:03,13:04:27,NA,incomplete,158,color,1,left,Red_Plus_Chess_1.jpg,Red_Circle_Grid_3.jpg,Purple_Star_Chess_4.jpg,left,498.6099999996368,true,low,NA,NA,NA,NA,NA,NA,NA,false
70Guzgkx,3axfspqoztbswwyvx39ztaxp9nrfjw,3pdjhanyk9t29h8ozc8ccb0ops4h6d,70Guzgkx,2020-0188,2020-05-21,12:43:03,13:04:27,NA,incomplete,159,color,0,left,Blue_Plus_Stripes_4.jpg,Blue_Star_Dots_3.jpg,Purple_Triangle_Stripes_1.jpg,left,499.66000000038184,true,low,NA,NA,NA,NA,NA,NA,NA,false
70Guzgkx,3axfspqoztbswwyvx39ztaxp9nrfjw,3pdjhanyk9t29h8ozc8ccb0ops4h6d,70Guzgkx,2020-0188,2020-05-21,12:43:03,13:04:27,NA,incomplete,160,filling,1,right,Blue_Star_Stripes_1.jpg,Blue_Plus_Grid_2.jpg,Green_Triangle_Stripes_4.jpg,left,531.8600000001024,false,low,NA,NA,NA,NA,NA,NA,NA,false
70Guzgkx,3axfspqoztbswwyvx39ztaxp9nrfjw,3pdjhanyk9t29h8ozc8ccb0ops4h6d,70Guzgkx,2020-0188,2020-05-21,12:43:03,13:04:27,NA,incomplete,161,filling,1,right,Blue_Circle_Dots_1.jpg,Blue_Plus_Chess_4.jpg,Red_Triangle_Dots_2.jpg,left,923.0249999999069,false,low,NA,NA,NA,NA,NA,NA,NA,false
70Guzgkx,3axfspqoztbswwyvx39ztaxp9nrfjw,3pdjhanyk9t29h8ozc8ccb0ops4h6d,70Guzgkx,2020-0188,2020-05-21,12:43:03,13:04:27,NA,incomplete,162,filling,0,left,Red_Triangle_Dots_2.jpg,Blue_Star_Dots_4.jpg,Red_Circle_Stripes_1.jpg,left,979.0050000001211,true,low,NA,NA,NA,NA,NA,NA,NA,false
70Guzgkx,3axfspqoztbswwyvx39ztaxp9nrfjw,3pdjhanyk9t29h8ozc8ccb0ops4h6d,70Guzgkx,2020-0188,2020-05-21,12:43:03,13:04:27,NA,incomplete,163,filling,1,right,Green_Triangle_Grid_3.jpg,Green_Circle_Chess_1.jpg,Purple_Star_Grid_4.jpg,right,943.3499999996275,true,low,NA,NA,NA,NA,NA,NA,NA,false
70Guzgkx,3axfspqoztbswwyvx39ztaxp9nrfjw,3pdjhanyk9t29h8ozc8ccb0ops4h6d,70Guzgkx,2020-0188,2020-05-21,12:43:03,13:04:27,NA,incomplete,164,filling,0,right,Purple_Star_Grid_4.jpg,Purple_Triangle_Chess_3.jpg,Red_Circle_Grid_2.jpg,right,950.8049999994691,true,low,NA,NA,NA,NA,NA,NA,NA,false
70Guzgkx,3axfspqoztbswwyvx39ztaxp9nrfjw,3pdjhanyk9t29h8ozc8ccb0ops4h6d,70Guzgkx,2020-0188,2020-05-21,12:43:03,13:04:27,NA,incomplete,165,filling,1,right,Red_Plus_Grid_3.jpg,Red_Circle_Chess_1.jpg,Purple_Triangle_Grid_4.jpg,right,804.434999999823,true,low,NA,NA,NA,NA,NA,NA,NA,false
70Guzgkx,3axfspqoztbswwyvx39ztaxp9nrfjw,3pdjhanyk9t29h8ozc8ccb0ops4h6d,70Guzgkx,2020-0188,2020-05-21,12:43:03,13:04:27,NA,incomplete,166,filling,1,left,Red_Triangle_Chess_1.jpg,Green_Star_Chess_2.jpg,Red_Plus_Dots_3.jpg,left,800.2150000003166,true,low,NA,NA,NA,NA,NA,NA,NA,false
70Guzgkx,3axfspqoztbswwyvx39ztaxp9nrfjw,3pdjhanyk9t29h8ozc8ccb0ops4h6d,70Guzgkx,2020-0188,2020-05-21,12:43:03,13:04:27,NA,incomplete,167,filling,1,left,Purple_Circle_Grid_1.jpg,Blue_Star_Grid_3.jpg,Purple_Triangle_Dots_2.jpg,left,885.0599999995902,true,low,NA,NA,NA,NA,NA,NA,NA,false
70Guzgkx,3axfspqoztbswwyvx39ztaxp9nrfjw,3pdjhanyk9t29h8ozc8ccb0ops4h6d,70Guzgkx,2020-0188,2020-05-21,12:43:03,13:04:27,NA,incomplete,168,filling,0,left,Green_Triangle_Dots_3.jpg,Red_Star_Dots_2.jpg,Green_Plus_Chess_1.jpg,left,965.1949999998324,true,low,NA,NA,NA,NA,NA,NA,NA,false
70Guzgkx,3axfspqoztbswwyvx39ztaxp9nrfjw,3pdjhanyk9t29h8ozc8ccb0ops4h6d,70Guzgkx,2020-0188,2020-05-21,12:43:03,13:04:27,NA,incomplete,169,filling,1,right,Blue_Plus_Stripes_4.jpg,Blue_Star_Dots_1.jpg,Red_Circle_Stripes_3.jpg,right,707.7300000002142,true,low,NA,NA,NA,NA,NA,NA,NA,false
70Guzgkx,3axfspqoztbswwyvx39ztaxp9nrfjw,3pdjhanyk9t29h8ozc8ccb0ops4h6d,70Guzgkx,2020-0188,2020-05-21,12:43:03,13:04:27,NA,incomplete,170,filling,1,right,Purple_Triangle_Stripes_1.jpg,Purple_Plus_Chess_3.jpg,Blue_Star_Stripes_2.jpg,right,780.0199999993201,true,low,NA,NA,NA,NA,NA,NA,NA,false
70Guzgkx,3axfspqoztbswwyvx39ztaxp9nrfjw,3pdjhanyk9t29h8ozc8ccb0ops4h6d,70Guzgkx,2020-0188,2020-05-21,12:43:03,13:04:27,NA,incomplete,171,filling,1,left,Blue_Star_Dots_2.jpg,Red_Triangle_Dots_4.jpg,Blue_Circle_Stripes_3.jpg,left,728.2949999999255,true,low,NA,NA,NA,NA,NA,NA,NA,false
70Guzgkx,3axfspqoztbswwyvx39ztaxp9nrfjw,3pdjhanyk9t29h8ozc8ccb0ops4h6d,70Guzgkx,2020-0188,2020-05-21,12:43:03,13:04:27,NA,incomplete,172,filling,1,left,Red_Star_Dots_2.jpg,Blue_Circle_Dots_1.jpg,Red_Plus_Chess_4.jpg,left,681.8699999994133,true,low,NA,NA,NA,NA,NA,NA,NA,false
70Guzgkx,3axfspqoztbswwyvx39ztaxp9nrfjw,3pdjhanyk9t29h8ozc8ccb0ops4h6d,70Guzgkx,2020-0188,2020-05-21,12:43:03,13:04:27,NA,incomplete,173,filling,1,left,Purple_Triangle_Dots_2.jpg,Red_Plus_Dots_1.jpg,Purple_Circle_Chess_3.jpg,left,656.804999999702,true,low,NA,NA,NA,NA,NA,NA,NA,false
70Guzgkx,3axfspqoztbswwyvx39ztaxp9nrfjw,3pdjhanyk9t29h8ozc8ccb0ops4h6d,70Guzgkx,2020-0188,2020-05-21,12:43:03,13:04:27,NA,incomplete,174,filling,1,right,Red_Plus_Dots_4.jpg,Red_Star_Chess_2.jpg,Blue_Circle_Dots_1.jpg,right,714.7449999991804,true,low,NA,NA,NA,NA,NA,NA,NA,false
70Guzgkx,3axfspqoztbswwyvx39ztaxp9nrfjw,3pdjhanyk9t29h8ozc8ccb0ops4h6d,70Guzgkx,2020-0188,2020-05-21,12:43:03,13:04:27,NA,incomplete,175,filling,1,left,Purple_Circle_Chess_3.jpg,Red_Star_Chess_4.jpg,Purple_Triangle_Grid_2.jpg,left,746.2450000001118,true,low,NA,NA,NA,NA,NA,NA,NA,false
70Guzgkx,3axfspqoztbswwyvx39ztaxp9nrfjw,3pdjhanyk9t29h8ozc8ccb0ops4h6d,70Guzgkx,2020-0188,2020-05-21,12:43:03,13:04:27,NA,incomplete,176,filling,1,right,Purple_Star_Dots_2.jpg,Purple_Triangle_Stripes_1.jpg,Green_Circle_Dots_4.jpg,right,648.8349999999627,true,low,NA,NA,NA,NA,NA,NA,NA,false
70Guzgkx,3axfspqoztbswwyvx39ztaxp9nrfjw,3pdjhanyk9t29h8ozc8ccb0ops4h6d,70Guzgkx,2020-0188,2020-05-21,12:43:03,13:04:27,NA,incomplete,177,filling,1,right,Red_Triangle_Chess_2.jpg,Red_Plus_Grid_1.jpg,Blue_Circle_Chess_3.jpg,right,652.350000000326,true,low,NA,NA,NA,NA,NA,NA,NA,false
70Guzgkx,3axfspqoztbswwyvx39ztaxp9nrfjw,3pdjhanyk9t29h8ozc8ccb0ops4h6d,70Guzgkx,2020-0188,2020-05-21,12:43:03,13:04:27,NA,incomplete,178,filling,1,left,Green_Plus_Stripes_2.jpg,Red_Circle_Stripes_4.jpg,Green_Triangle_Grid_1.jpg,left,693.5800000000745,true,low,NA,NA,NA,NA,NA,NA,NA,false
70Guzgkx,3axfspqoztbswwyvx39ztaxp9nrfjw,3pdjhanyk9t29h8ozc8ccb0ops4h6d,70Guzgkx,2020-0188,2020-05-21,12:43:03,13:04:27,NA,incomplete,179,filling,1,left,Green_Triangle_Stripes_2.jpg,Blue_Circle_Stripes_1.jpg,Green_Plus_Chess_3.jpg,left,606.464999999851,true,low,NA,NA,NA,NA,NA,NA,NA,false
70Guzgkx,3axfspqoztbswwyvx39ztaxp9nrfjw,3pdjhanyk9t29h8ozc8ccb0ops4h6d,70Guzgkx,2020-0188,2020-05-21,12:43:03,13:04:27,NA,incomplete,180,color,1,left,Red_Plus_Dots_1.jpg,Red_Triangle_Chess_2.jpg,Purple_Circle_Dots_3.jpg,right,650.9049999995623,false,low,NA,NA,NA,NA,NA,NA,NA,false
70Guzgkx,3axfspqoztbswwyvx39ztaxp9nrfjw,3pdjhanyk9t29h8ozc8ccb0ops4h6d,70Guzgkx,2020-0188,2020-05-21,12:43:03,13:04:27,NA,incomplete,181,color,1,left,Green_Star_Dots_2.jpg,Green_Plus_Stripes_4.jpg,Red_Triangle_Dots_3.jpg,right,780.3800000001211,false,low,NA,NA,NA,NA,NA,NA,NA,false
70Guzgkx,3axfspqoztbswwyvx39ztaxp9nrfjw,3pdjhanyk9t29h8ozc8ccb0ops4h6d,70Guzgkx,2020-0188,2020-05-21,12:43:03,13:04:27,NA,incomplete,182,color,1,left,Red_Plus_Grid_4.jpg,Red_Circle_Stripes_3.jpg,Purple_Triangle_Grid_2.jpg,right,740.2800000000279,false,low,NA,NA,NA,NA,NA,NA,NA,false
70Guzgkx,3axfspqoztbswwyvx39ztaxp9nrfjw,3pdjhanyk9t29h8ozc8ccb0ops4h6d,70Guzgkx,2020-0188,2020-05-21,12:43:03,13:04:27,NA,incomplete,183,color,0,left,Red_Star_Dots_2.jpg,Red_Plus_Grid_4.jpg,Purple_Circle_Dots_3.jpg,left,592.3599999996368,true,low,NA,NA,NA,NA,NA,NA,NA,false
70Guzgkx,3axfspqoztbswwyvx39ztaxp9nrfjw,3pdjhanyk9t29h8ozc8ccb0ops4h6d,70Guzgkx,2020-0188,2020-05-21,12:43:03,13:04:27,NA,incomplete,184,color,1,left,Red_Triangle_Dots_4.jpg,Red_Plus_Chess_2.jpg,Green_Star_Dots_1.jpg,left,685.0050000003539,true,low,NA,NA,NA,NA,NA,NA,NA,false
70Guzgkx,3axfspqoztbswwyvx39ztaxp9nrfjw,3pdjhanyk9t29h8ozc8ccb0ops4h6d,70Guzgkx,2020-0188,2020-05-21,12:43:03,13:04:27,NA,incomplete,185,color,1,left,Green_Circle_Grid_3.jpg,Green_Star_Chess_2.jpg,Purple_Triangle_Grid_1.jpg,left,533.809999999823,true,low,NA,NA,NA,NA,NA,NA,NA,false
70Guzgkx,3axfspqoztbswwyvx39ztaxp9nrfjw,3pdjhanyk9t29h8ozc8ccb0ops4h6d,70Guzgkx,2020-0188,2020-05-21,12:43:03,13:04:27,NA,incomplete,186,color,1,right,Blue_Star_Stripes_3.jpg,Green_Triangle_Stripes_2.jpg,Blue_Plus_Dots_1.jpg,right,564.8600000003353,true,low,NA,NA,NA,NA,NA,NA,NA,false
70Guzgkx,3axfspqoztbswwyvx39ztaxp9nrfjw,3pdjhanyk9t29h8ozc8ccb0ops4h6d,70Guzgkx,2020-0188,2020-05-21,12:43:03,13:04:27,NA,incomplete,187,color,1,right,Green_Plus_Dots_3.jpg,Blue_Triangle_Dots_2.jpg,Green_Circle_Grid_1.jpg,right,468.2050000000745,true,low,NA,NA,NA,NA,NA,NA,NA,false
70Guzgkx,3axfspqoztbswwyvx39ztaxp9nrfjw,3pdjhanyk9t29h8ozc8ccb0ops4h6d,70Guzgkx,2020-0188,2020-05-21,12:43:03,13:04:27,NA,incomplete,188,color,1,right,Purple_Plus_Dots_4.jpg,Green_Star_Dots_1.jpg,Purple_Triangle_Stripes_3.jpg,right,612.6999999997206,true,low,NA,NA,NA,NA,NA,NA,NA,false
70Guzgkx,3axfspqoztbswwyvx39ztaxp9nrfjw,3pdjhanyk9t29h8ozc8ccb0ops4h6d,70Guzgkx,2020-0188,2020-05-21,12:43:03,13:04:27,NA,incomplete,189,color,1,right,Blue_Plus_Dots_3.jpg,Purple_Star_Dots_1.jpg,Blue_Triangle_Grid_2.jpg,right,463.8599999998696,true,low,NA,NA,NA,NA,NA,NA,NA,false
70Guzgkx,3axfspqoztbswwyvx39ztaxp9nrfjw,3pdjhanyk9t29h8ozc8ccb0ops4h6d,70Guzgkx,2020-0188,2020-05-21,12:43:03,13:04:27,NA,incomplete,190,color,1,right,Blue_Triangle_Chess_3.jpg,Green_Star_Chess_4.jpg,Blue_Plus_Stripes_1.jpg,right,498.2700000000186,true,low,NA,NA,NA,NA,NA,NA,NA,false
70Guzgkx,3axfspqoztbswwyvx39ztaxp9nrfjw,3pdjhanyk9t29h8ozc8ccb0ops4h6d,70Guzgkx,2020-0188,2020-05-21,12:43:03,13:04:27,NA,incomplete,191,color,1,left,Green_Plus_Grid_2.jpg,Green_Triangle_Dots_4.jpg,Red_Circle_Grid_3.jpg,left,450.95999999996275,true,low,NA,NA,NA,NA,NA,NA,NA,false
70Guzgkx,3axfspqoztbswwyvx39ztaxp9nrfjw,3pdjhanyk9t29h8ozc8ccb0ops4h6d,70Guzgkx,2020-0188,2020-05-21,12:43:03,13:04:27,NA,incomplete,192,color,0,right,Green_Plus_Chess_4.jpg,Blue_Triangle_Chess_1.jpg,Green_Circle_Stripes_2.jpg,right,468.8699999996461,true,low,NA,NA,NA,NA,NA,NA,NA,false
70Guzgkx,3axfspqoztbswwyvx39ztaxp9nrfjw,3pdjhanyk9t29h8ozc8ccb0ops4h6d,70Guzgkx,2020-0188,2020-05-21,12:43:03,13:04:27,NA,incomplete,193,color,1,left,Red_Triangle_Dots_1.jpg,Red_Circle_Grid_2.jpg,Green_Star_Dots_4.jpg,left,463.4050000004936,true,low,NA,NA,NA,NA,NA,NA,NA,false
70Guzgkx,3axfspqoztbswwyvx39ztaxp9nrfjw,3pdjhanyk9t29h8ozc8ccb0ops4h6d,70Guzgkx,2020-0188,2020-05-21,12:43:03,13:04:27,NA,incomplete,194,color,1,right,Red_Triangle_Dots_4.jpg,Blue_Plus_Dots_1.jpg,Red_Circle_Stripes_3.jpg,right,407.6899999999441,true,low,NA,NA,NA,NA,NA,NA,NA,false
70Guzgkx,3axfspqoztbswwyvx39ztaxp9nrfjw,3pdjhanyk9t29h8ozc8ccb0ops4h6d,70Guzgkx,2020-0188,2020-05-21,12:43:03,13:04:27,NA,incomplete,195,color,1,right,Green_Triangle_Dots_2.jpg,Purple_Circle_Dots_3.jpg,Green_Star_Stripes_4.jpg,right,475.5400000002701,true,low,NA,NA,NA,NA,NA,NA,NA,false
70Guzgkx,3axfspqoztbswwyvx39ztaxp9nrfjw,3pdjhanyk9t29h8ozc8ccb0ops4h6d,70Guzgkx,2020-0188,2020-05-21,12:43:03,13:04:27,NA,incomplete,196,color,0,right,Blue_Star_Grid_2.jpg,Green_Circle_Grid_4.jpg,Blue_Triangle_Chess_1.jpg,right,485.43500000052154,true,low,NA,NA,NA,NA,NA,NA,NA,false
70Guzgkx,3axfspqoztbswwyvx39ztaxp9nrfjw,3pdjhanyk9t29h8ozc8ccb0ops4h6d,70Guzgkx,2020-0188,2020-05-21,12:43:03,13:04:27,NA,incomplete,197,color,1,left,Purple_Star_Chess_1.jpg,Purple_Triangle_Dots_4.jpg,Green_Plus_Chess_3.jpg,left,542.0299999995623,true,low,NA,NA,NA,NA,NA,NA,NA,false
70Guzgkx,3axfspqoztbswwyvx39ztaxp9nrfjw,3pdjhanyk9t29h8ozc8ccb0ops4h6d,70Guzgkx,2020-0188,2020-05-21,12:43:03,13:04:27,NA,incomplete,198,color,1,right,Purple_Circle_Dots_1.jpg,Blue_Star_Dots_2.jpg,Purple_Plus_Grid_4.jpg,right,484.84499999997206,true,low,NA,NA,NA,NA,NA,NA,NA,false
70Guzgkx,3axfspqoztbswwyvx39ztaxp9nrfjw,3pdjhanyk9t29h8ozc8ccb0ops4h6d,70Guzgkx,2020-0188,2020-05-21,12:43:03,13:04:27,NA,incomplete,199,color,0,right,Red_Triangle_Stripes_2.jpg,Blue_Star_Stripes_3.jpg,Red_Plus_Chess_4.jpg,right,422.6699999999255,true,low,NA,NA,NA,NA,NA,NA,NA,false
70Guzgkx,3axfspqoztbswwyvx39ztaxp9nrfjw,3pdjhanyk9t29h8ozc8ccb0ops4h6d,70Guzgkx,2020-0188,2020-05-21,12:43:03,13:04:27,NA,incomplete,200,filling,1,left,Red_Star_Stripes_2.jpg,Green_Triangle_Stripes_4.jpg,Red_Plus_Grid_1.jpg,right,488.6450000004843,false,low,NA,NA,NA,NA,NA,NA,NA,false
70Guzgkx,3axfspqoztbswwyvx39ztaxp9nrfjw,3pdjhanyk9t29h8ozc8ccb0ops4h6d,70Guzgkx,2020-0188,2020-05-21,12:43:03,13:04:27,NA,incomplete,201,filling,1,left,Purple_Plus_Dots_4.jpg,Green_Circle_Dots_2.jpg,Purple_Star_Chess_1.jpg,right,537.7650000001304,false,low,NA,NA,NA,NA,NA,NA,NA,false
70Guzgkx,3axfspqoztbswwyvx39ztaxp9nrfjw,3pdjhanyk9t29h8ozc8ccb0ops4h6d,70Guzgkx,2020-0188,2020-05-21,12:43:03,13:04:27,NA,incomplete,202,filling,1,right,Purple_Circle_Dots_2.jpg,Purple_Plus_Stripes_1.jpg,Blue_Star_Dots_3.jpg,right,951.454999999376,true,low,NA,NA,NA,NA,NA,NA,NA,false
70Guzgkx,3axfspqoztbswwyvx39ztaxp9nrfjw,3pdjhanyk9t29h8ozc8ccb0ops4h6d,70Guzgkx,2020-0188,2020-05-21,12:43:03,13:04:27,NA,incomplete,203,filling,1,left,Green_Plus_Stripes_4.jpg,Blue_Star_Stripes_3.jpg,Green_Circle_Grid_1.jpg,left,1127.3149999997113,true,low,NA,NA,NA,NA,NA,NA,NA,false
70Guzgkx,3axfspqoztbswwyvx39ztaxp9nrfjw,3pdjhanyk9t29h8ozc8ccb0ops4h6d,70Guzgkx,2020-0188,2020-05-21,12:43:03,13:04:27,NA,incomplete,204,filling,1,left,Green_Circle_Stripes_3.jpg,Blue_Star_Stripes_4.jpg,Green_Plus_Chess_2.jpg,left,789.1750000000466,true,low,NA,NA,NA,NA,NA,NA,NA,false
70Guzgkx,3axfspqoztbswwyvx39ztaxp9nrfjw,3pdjhanyk9t29h8ozc8ccb0ops4h6d,70Guzgkx,2020-0188,2020-05-21,12:43:03,13:04:27,NA,incomplete,205,filling,1,right,Green_Triangle_Dots_2.jpg,Green_Circle_Chess_1.jpg,Red_Plus_Dots_3.jpg,right,761.4549999998417,true,low,NA,NA,NA,NA,NA,NA,NA,false
70Guzgkx,3axfspqoztbswwyvx39ztaxp9nrfjw,3pdjhanyk9t29h8ozc8ccb0ops4h6d,70Guzgkx,2020-0188,2020-05-21,12:43:03,13:04:27,NA,incomplete,206,filling,1,left,Blue_Circle_Dots_3.jpg,Red_Triangle_Dots_1.jpg,Blue_Plus_Grid_2.jpg,left,751.7200000002049,true,low,NA,NA,NA,NA,NA,NA,NA,false
70Guzgkx,3axfspqoztbswwyvx39ztaxp9nrfjw,3pdjhanyk9t29h8ozc8ccb0ops4h6d,70Guzgkx,2020-0188,2020-05-21,12:43:03,13:04:27,NA,incomplete,207,filling,0,right,Purple_Triangle_Dots_2.jpg,Purple_Plus_Chess_1.jpg,Green_Star_Dots_3.jpg,right,741.6650000005029,true,low,NA,NA,NA,NA,NA,NA,NA,false
70Guzgkx,3axfspqoztbswwyvx39ztaxp9nrfjw,3pdjhanyk9t29h8ozc8ccb0ops4h6d,70Guzgkx,2020-0188,2020-05-21,12:43:03,13:04:27,NA,incomplete,208,filling,1,right,Red_Triangle_Chess_3.jpg,Red_Circle_Dots_4.jpg,Blue_Plus_Chess_1.jpg,right,780.2799999997951,true,low,NA,NA,NA,NA,NA,NA,NA,false
70Guzgkx,3axfspqoztbswwyvx39ztaxp9nrfjw,3pdjhanyk9t29h8ozc8ccb0ops4h6d,70Guzgkx,2020-0188,2020-05-21,12:43:03,13:04:27,NA,incomplete,209,filling,0,right,Green_Plus_Stripes_3.jpg,Green_Circle_Grid_2.jpg,Red_Triangle_Stripes_1.jpg,right,802.7350000003353,true,low,NA,NA,NA,NA,NA,NA,NA,false
70Guzgkx,3axfspqoztbswwyvx39ztaxp9nrfjw,3pdjhanyk9t29h8ozc8ccb0ops4h6d,70Guzgkx,2020-0188,2020-05-21,12:43:03,13:04:27,NA,incomplete,210,filling,1,right,Red_Plus_Chess_3.jpg,Red_Triangle_Grid_4.jpg,Green_Circle_Chess_1.jpg,right,757.4549999998417,true,low,NA,NA,NA,NA,NA,NA,NA,false
70Guzgkx,3axfspqoztbswwyvx39ztaxp9nrfjw,3pdjhanyk9t29h8ozc8ccb0ops4h6d,70Guzgkx,2020-0188,2020-05-21,12:43:03,13:04:27,NA,incomplete,211,filling,0,left,Green_Triangle_Grid_1.jpg,Blue_Plus_Grid_4.jpg,Green_Circle_Dots_2.jpg,left,731.3500000000931,true,low,NA,NA,NA,NA,NA,NA,NA,false
70Guzgkx,3axfspqoztbswwyvx39ztaxp9nrfjw,3pdjhanyk9t29h8ozc8ccb0ops4h6d,70Guzgkx,2020-0188,2020-05-21,12:43:03,13:04:27,NA,incomplete,212,filling,1,right,Purple_Star_Stripes_2.jpg,Purple_Circle_Grid_1.jpg,Red_Plus_Stripes_3.jpg,right,826.1700000001583,true,low,NA,NA,NA,NA,NA,NA,NA,false
70Guzgkx,3axfspqoztbswwyvx39ztaxp9nrfjw,3pdjhanyk9t29h8ozc8ccb0ops4h6d,70Guzgkx,2020-0188,2020-05-21,12:43:03,13:04:27,NA,incomplete,213,filling,1,left,Green_Circle_Stripes_1.jpg,Blue_Plus_Stripes_2.jpg,Green_Triangle_Chess_3.jpg,left,742.6699999996927,true,low,NA,NA,NA,NA,NA,NA,NA,false
70Guzgkx,3axfspqoztbswwyvx39ztaxp9nrfjw,3pdjhanyk9t29h8ozc8ccb0ops4h6d,70Guzgkx,2020-0188,2020-05-21,12:43:03,13:04:27,NA,incomplete,214,filling,1,right,Red_Star_Dots_2.jpg,Red_Plus_Grid_3.jpg,Purple_Circle_Dots_1.jpg,right,750.2050000003073,true,low,NA,NA,NA,NA,NA,NA,NA,false
70Guzgkx,3axfspqoztbswwyvx39ztaxp9nrfjw,3pdjhanyk9t29h8ozc8ccb0ops4h6d,70Guzgkx,2020-0188,2020-05-21,12:43:03,13:04:27,NA,incomplete,215,filling,0,right,Blue_Plus_Grid_4.jpg,Blue_Triangle_Chess_1.jpg,Red_Star_Grid_3.jpg,right,835.1750000002794,true,low,NA,NA,NA,NA,NA,NA,NA,false
70Guzgkx,3axfspqoztbswwyvx39ztaxp9nrfjw,3pdjhanyk9t29h8ozc8ccb0ops4h6d,70Guzgkx,2020-0188,2020-05-21,12:43:03,13:04:27,NA,incomplete,216,filling,1,left,Purple_Star_Dots_2.jpg,Blue_Plus_Dots_1.jpg,Purple_Circle_Stripes_4.jpg,left,1037.4099999999162,true,low,NA,NA,NA,NA,NA,NA,NA,false
70Guzgkx,3axfspqoztbswwyvx39ztaxp9nrfjw,3pdjhanyk9t29h8ozc8ccb0ops4h6d,70Guzgkx,2020-0188,2020-05-21,12:43:03,13:04:27,NA,incomplete,217,filling,0,left,Purple_Plus_Chess_2.jpg,Blue_Circle_Chess_3.jpg,Purple_Star_Stripes_4.jpg,left,840.0049999998882,true,low,NA,NA,NA,NA,NA,NA,NA,false
70Guzgkx,3axfspqoztbswwyvx39ztaxp9nrfjw,3pdjhanyk9t29h8ozc8ccb0ops4h6d,70Guzgkx,2020-0188,2020-05-21,12:43:03,13:04:27,NA,incomplete,218,filling,1,right,Purple_Circle_Dots_3.jpg,Purple_Triangle_Stripes_1.jpg,Green_Plus_Dots_2.jpg,right,907.6399999994319,true,low,NA,NA,NA,NA,NA,NA,NA,false
70Guzgkx,3axfspqoztbswwyvx39ztaxp9nrfjw,3pdjhanyk9t29h8ozc8ccb0ops4h6d,70Guzgkx,2020-0188,2020-05-21,12:43:03,13:04:27,NA,incomplete,219,filling,1,right,Red_Star_Chess_2.jpg,Red_Circle_Stripes_1.jpg,Blue_Plus_Chess_4.jpg,right,787.7600000002421,true,low,NA,NA,NA,NA,NA,NA,NA,false
70Guzgkx,3axfspqoztbswwyvx39ztaxp9nrfjw,3pdjhanyk9t29h8ozc8ccb0ops4h6d,70Guzgkx,2020-0188,2020-05-21,12:43:03,13:04:27,NA,incomplete,220,color,0,right,Purple_Circle_Dots_3.jpg,Blue_Plus_Dots_2.jpg,Purple_Star_Stripes_1.jpg,left,871.7299999997485,false,low,NA,NA,NA,NA,NA,NA,NA,false
70Guzgkx,3axfspqoztbswwyvx39ztaxp9nrfjw,3pdjhanyk9t29h8ozc8ccb0ops4h6d,70Guzgkx,2020-0188,2020-05-21,12:43:03,13:04:27,NA,incomplete,221,color,1,left,Purple_Triangle_Dots_3.jpg,Purple_Plus_Stripes_4.jpg,Green_Star_Dots_1.jpg,right,784.3449999999721,false,low,NA,NA,NA,NA,NA,NA,NA,false
70Guzgkx,3axfspqoztbswwyvx39ztaxp9nrfjw,3pdjhanyk9t29h8ozc8ccb0ops4h6d,70Guzgkx,2020-0188,2020-05-21,12:43:03,13:04:27,NA,incomplete,222,color,1,right,Purple_Circle_Stripes_2.jpg,Blue_Star_Stripes_4.jpg,Purple_Triangle_Dots_1.jpg,left,845.7100000004284,false,low,NA,NA,NA,NA,NA,NA,NA,false
70Guzgkx,3axfspqoztbswwyvx39ztaxp9nrfjw,3pdjhanyk9t29h8ozc8ccb0ops4h6d,70Guzgkx,2020-0188,2020-05-21,12:43:03,13:04:27,NA,incomplete,223,color,1,right,Blue_Triangle_Stripes_1.jpg,Green_Star_Stripes_3.jpg,Blue_Plus_Dots_4.jpg,left,1512.2650000001304,false,low,NA,NA,NA,NA,NA,NA,NA,false
70Guzgkx,3axfspqoztbswwyvx39ztaxp9nrfjw,3pdjhanyk9t29h8ozc8ccb0ops4h6d,70Guzgkx,2020-0188,2020-05-21,12:43:03,13:04:27,NA,incomplete,224,color,1,right,Red_Plus_Stripes_2.jpg,Green_Circle_Stripes_4.jpg,Red_Triangle_Chess_3.jpg,right,754.3349999994971,true,low,NA,NA,NA,NA,NA,NA,NA,false
70Guzgkx,3axfspqoztbswwyvx39ztaxp9nrfjw,3pdjhanyk9t29h8ozc8ccb0ops4h6d,70Guzgkx,2020-0188,2020-05-21,12:43:03,13:04:27,NA,incomplete,225,color,1,right,Purple_Plus_Dots_2.jpg,Green_Star_Dots_1.jpg,Purple_Triangle_Chess_4.jpg,right,526.3200000000652,true,low,NA,NA,NA,NA,NA,NA,NA,false
70Guzgkx,3axfspqoztbswwyvx39ztaxp9nrfjw,3pdjhanyk9t29h8ozc8ccb0ops4h6d,70Guzgkx,2020-0188,2020-05-21,12:43:03,13:04:27,NA,incomplete,226,color,1,left,Blue_Triangle_Stripes_2.jpg,Blue_Plus_Dots_1.jpg,Green_Circle_Stripes_4.jpg,left,862.1099999998696,true,low,NA,NA,NA,NA,NA,NA,NA,false
70Guzgkx,3axfspqoztbswwyvx39ztaxp9nrfjw,3pdjhanyk9t29h8ozc8ccb0ops4h6d,70Guzgkx,2020-0188,2020-05-21,12:43:03,13:04:27,NA,incomplete,227,color,1,left,Green_Triangle_Grid_3.jpg,Green_Plus_Chess_2.jpg,Red_Circle_Grid_1.jpg,left,551.8149999997113,true,low,NA,NA,NA,NA,NA,NA,NA,false
70Guzgkx,3axfspqoztbswwyvx39ztaxp9nrfjw,3pdjhanyk9t29h8ozc8ccb0ops4h6d,70Guzgkx,2020-0188,2020-05-21,12:43:03,13:04:27,NA,incomplete,228,color,1,right,Red_Circle_Dots_4.jpg,Purple_Plus_Dots_3.jpg,Red_Triangle_Grid_1.jpg,right,781.4499999994878,true,low,NA,NA,NA,NA,NA,NA,NA,false
70Guzgkx,3axfspqoztbswwyvx39ztaxp9nrfjw,3pdjhanyk9t29h8ozc8ccb0ops4h6d,70Guzgkx,2020-0188,2020-05-21,12:43:03,13:04:27,NA,incomplete,229,color,1,left,Red_Triangle_Stripes_3.jpg,Red_Plus_Grid_4.jpg,Green_Star_Stripes_2.jpg,left,658.9000000003725,true,low,NA,NA,NA,NA,NA,NA,NA,false
70Guzgkx,3axfspqoztbswwyvx39ztaxp9nrfjw,3pdjhanyk9t29h8ozc8ccb0ops4h6d,70Guzgkx,2020-0188,2020-05-21,12:43:03,13:04:27,NA,incomplete,230,color,1,left,Purple_Plus_Dots_2.jpg,Purple_Circle_Stripes_3.jpg,Red_Star_Dots_4.jpg,left,676.7950000001583,true,low,NA,NA,NA,NA,NA,NA,NA,false
70Guzgkx,3axfspqoztbswwyvx39ztaxp9nrfjw,3pdjhanyk9t29h8ozc8ccb0ops4h6d,70Guzgkx,2020-0188,2020-05-21,12:43:03,13:04:27,NA,incomplete,231,color,1,left,Red_Plus_Chess_4.jpg,Red_Star_Stripes_3.jpg,Green_Circle_Chess_2.jpg,left,509.79999999981374,true,low,NA,NA,NA,NA,NA,NA,NA,false
70Guzgkx,3axfspqoztbswwyvx39ztaxp9nrfjw,3pdjhanyk9t29h8ozc8ccb0ops4h6d,70Guzgkx,2020-0188,2020-05-21,12:43:03,13:04:27,NA,incomplete,232,color,1,right,Red_Triangle_Grid_4.jpg,Purple_Plus_Grid_3.jpg,Red_Star_Dots_2.jpg,right,565.5699999998324,true,low,NA,NA,NA,NA,NA,NA,NA,false
70Guzgkx,3axfspqoztbswwyvx39ztaxp9nrfjw,3pdjhanyk9t29h8ozc8ccb0ops4h6d,70Guzgkx,2020-0188,2020-05-21,12:43:03,13:04:27,NA,incomplete,233,color,0,left,Green_Star_Grid_3.jpg,Green_Triangle_Stripes_2.jpg,Purple_Circle_Grid_1.jpg,left,443.57500000018626,true,low,NA,NA,NA,NA,NA,NA,NA,false
70Guzgkx,3axfspqoztbswwyvx39ztaxp9nrfjw,3pdjhanyk9t29h8ozc8ccb0ops4h6d,70Guzgkx,2020-0188,2020-05-21,12:43:03,13:04:27,NA,incomplete,234,color,1,right,Green_Triangle_Dots_4.jpg,Blue_Circle_Dots_2.jpg,Green_Star_Grid_1.jpg,right,487.07499999995343,true,low,NA,NA,NA,NA,NA,NA,NA,false
70Guzgkx,3axfspqoztbswwyvx39ztaxp9nrfjw,3pdjhanyk9t29h8ozc8ccb0ops4h6d,70Guzgkx,2020-0188,2020-05-21,12:43:03,13:04:27,NA,incomplete,235,color,1,right,Red_Circle_Dots_4.jpg,Purple_Triangle_Dots_1.jpg,Red_Star_Grid_3.jpg,right,447.29000000003725,true,low,NA,NA,NA,NA,NA,NA,NA,false
70Guzgkx,3axfspqoztbswwyvx39ztaxp9nrfjw,3pdjhanyk9t29h8ozc8ccb0ops4h6d,70Guzgkx,2020-0188,2020-05-21,12:43:03,13:04:27,NA,incomplete,236,color,1,left,Red_Circle_Grid_1.jpg,Red_Plus_Dots_4.jpg,Blue_Star_Grid_2.jpg,left,609.9850000001024,true,low,NA,NA,NA,NA,NA,NA,NA,false
70Guzgkx,3axfspqoztbswwyvx39ztaxp9nrfjw,3pdjhanyk9t29h8ozc8ccb0ops4h6d,70Guzgkx,2020-0188,2020-05-21,12:43:03,13:04:27,NA,incomplete,237,color,0,right,Red_Circle_Dots_2.jpg,Blue_Plus_Dots_1.jpg,Red_Star_Grid_4.jpg,right,461.7950000001583,true,low,NA,NA,NA,NA,NA,NA,NA,false
70Guzgkx,3axfspqoztbswwyvx39ztaxp9nrfjw,3pdjhanyk9t29h8ozc8ccb0ops4h6d,70Guzgkx,2020-0188,2020-05-21,12:43:03,13:04:27,NA,incomplete,238,color,1,left,Blue_Triangle_Chess_3.jpg,Blue_Circle_Grid_1.jpg,Red_Star_Chess_4.jpg,left,559.6050000002142,true,low,NA,NA,NA,NA,NA,NA,NA,false
70Guzgkx,3axfspqoztbswwyvx39ztaxp9nrfjw,3pdjhanyk9t29h8ozc8ccb0ops4h6d,70Guzgkx,2020-0188,2020-05-21,12:43:03,13:04:27,NA,incomplete,239,color,1,left,Green_Plus_Chess_2.jpg,Green_Triangle_Dots_3.jpg,Purple_Star_Chess_4.jpg,left,478.06500000017695,true,low,NA,NA,NA,NA,NA,NA,NA,false
70Guzgkx,3axfspqoztbswwyvx39ztaxp9nrfjw,3pdjhanyk9t29h8ozc8ccb0ops4h6d,70Guzgkx,2020-0188,2020-05-21,12:43:03,13:04:27,NA,NA,instruction example,shape,NA,NA,Purple_Triangle_Grid_2.jpg,Red_Triangle_Dots_3.jpg,Blue_Star_Stripes_2.jpg,NA,NA,NA,NA,NA,NA,NA,NA,NA,NA,NA,undefined
70Guzgkx,3axfspqoztbswwyvx39ztaxp9nrfjw,3pdjhanyk9t29h8ozc8ccb0ops4h6d,70Guzgkx,2020-0188,2020-05-21,12:43:03,13:04:27,NA,NA,instruction example,shape,NA,NA,Blue_Star_Dots_2.jpg,Green_Plus_Stripes_2.jpg,Red_Star_Chess_3.jpg,NA,NA,NA,NA,NA,NA,NA,NA,NA,NA,NA,undefined
70Guzgkx,3axfspqoztbswwyvx39ztaxp9nrfjw,3pdjhanyk9t29h8ozc8ccb0ops4h6d,70Guzgkx,2020-0188,2020-05-21,12:43:03,13:04:27,NA,NA,instruction example,shape,NA,NA,Red_Triangle_Dots_2.jpg,Purple_Plus_Dots_3.jpg,Red_Circle_Stripes_4.jpg,NA,NA,NA,NA,NA,NA,NA,NA,NA,NA,NA,undefined
70Guzgkx,3axfspqoztbswwyvx39ztaxp9nrfjw,3pdjhanyk9t29h8ozc8ccb0ops4h6d,70Guzgkx,2020-0188,2020-05-21,12:43:03,13:04:27,NA,NA,instruction example,shape,NA,NA,Green_Star_Stripes_2.jpg,Green_Triangle_Chess_3.jpg,Purple_Circle_Stripes_4.jpg,NA,NA,NA,NA,NA,NA,NA,NA,NA,NA,NA,undefined
70Guzgkx,3axfspqoztbswwyvx39ztaxp9nrfjw,3pdjhanyk9t29h8ozc8ccb0ops4h6d,70Guzgkx,2020-0188,2020-05-21,12:43:03,13:04:27,1243623.96,1289150.7600000005,NA,NA,NA,NA,NA,NA,NA,NA,NA,NA,NA,38,White/Caucasian,Male,Anglo ,no,no,no,undefined
