workerId,hitId,assignmentId,subject,studyid,exp_date,exp_start,exp_end,time_start,time_end,trial,type,reward_validity,answer,image_top,image_left,image_right,response,response_time,response_acc,volatility,age,race,gender,ethnicity,color,vision,neuro,practice
uPhOU5H9,3o2y2uiudt7n7g4dfo9bupx2ocrfkv,3peijlry6x6xpmn9vy32drnv1lzwx7,uPhOU5H9,2020-0188,2020-05-21,15:02:12,15:21:35,NA,incomplete,0,filling,1,right,Purple_Plus_Chess_2.jpg,Red_Plus_Dots_1.jpg,Green_Circle_Chess_3.jpg,right,1364.644999965094,true,NA,NA,NA,NA,NA,NA,NA,NA,true
uPhOU5H9,3o2y2uiudt7n7g4dfo9bupx2ocrfkv,3peijlry6x6xpmn9vy32drnv1lzwx7,uPhOU5H9,2020-0188,2020-05-21,15:02:12,15:21:35,NA,incomplete,1,filling,1,right,Blue_Star_Grid_4.jpg,Red_Star_Stripes_1.jpg,Green_Plus_Grid_2.jpg,right,1611.3100000657141,true,NA,NA,NA,NA,NA,NA,NA,NA,true
uPhOU5H9,3o2y2uiudt7n7g4dfo9bupx2ocrfkv,3peijlry6x6xpmn9vy32drnv1lzwx7,uPhOU5H9,2020-0188,2020-05-21,15:02:12,15:21:35,NA,incomplete,2,filling,0,left,Blue_Plus_Stripes_2.jpg,Red_Star_Stripes_3.jpg,Green_Plus_Chess_4.jpg,left,1108.295000041835,true,NA,NA,NA,NA,NA,NA,NA,NA,true
uPhOU5H9,3o2y2uiudt7n7g4dfo9bupx2ocrfkv,3peijlry6x6xpmn9vy32drnv1lzwx7,uPhOU5H9,2020-0188,2020-05-21,15:02:12,15:21:35,NA,incomplete,3,filling,1,left,Green_Plus_Dots_4.jpg,Purple_Triangle_Dots_3.jpg,Red_Plus_Stripes_2.jpg,left,1149.8049999354407,true,NA,NA,NA,NA,NA,NA,NA,NA,true
uPhOU5H9,3o2y2uiudt7n7g4dfo9bupx2ocrfkv,3peijlry6x6xpmn9vy32drnv1lzwx7,uPhOU5H9,2020-0188,2020-05-21,15:02:12,15:21:35,NA,incomplete,4,filling,1,right,Purple_Plus_Stripes_4.jpg,Green_Plus_Dots_1.jpg,Red_Circle_Stripes_2.jpg,right,940.8100000582635,true,NA,NA,NA,NA,NA,NA,NA,NA,true
uPhOU5H9,3o2y2uiudt7n7g4dfo9bupx2ocrfkv,3peijlry6x6xpmn9vy32drnv1lzwx7,uPhOU5H9,2020-0188,2020-05-21,15:02:12,15:21:35,NA,incomplete,5,filling,1,left,Purple_Triangle_Grid_3.jpg,Green_Plus_Grid_1.jpg,Blue_Triangle_Stripes_4.jpg,right,1001.6449999529868,false,NA,NA,NA,NA,NA,NA,NA,NA,true
uPhOU5H9,3o2y2uiudt7n7g4dfo9bupx2ocrfkv,3peijlry6x6xpmn9vy32drnv1lzwx7,uPhOU5H9,2020-0188,2020-05-21,15:02:12,15:21:35,NA,incomplete,6,filling,1,left,Green_Plus_Dots_4.jpg,Blue_Circle_Dots_3.jpg,Red_Plus_Grid_2.jpg,left,976.8449999392033,true,NA,NA,NA,NA,NA,NA,NA,NA,true
uPhOU5H9,3o2y2uiudt7n7g4dfo9bupx2ocrfkv,3peijlry6x6xpmn9vy32drnv1lzwx7,uPhOU5H9,2020-0188,2020-05-21,15:02:12,15:21:35,NA,incomplete,7,filling,1,right,Purple_Plus_Grid_4.jpg,Blue_Plus_Chess_1.jpg,Green_Circle_Grid_2.jpg,right,1088.3799999719486,true,NA,NA,NA,NA,NA,NA,NA,NA,true
uPhOU5H9,3o2y2uiudt7n7g4dfo9bupx2ocrfkv,3peijlry6x6xpmn9vy32drnv1lzwx7,uPhOU5H9,2020-0188,2020-05-21,15:02:12,15:21:35,NA,incomplete,8,filling,1,left,Green_Star_Dots_1.jpg,Purple_Circle_Dots_4.jpg,Red_Star_Grid_3.jpg,left,1028.2700000097975,true,NA,NA,NA,NA,NA,NA,NA,NA,true
uPhOU5H9,3o2y2uiudt7n7g4dfo9bupx2ocrfkv,3peijlry6x6xpmn9vy32drnv1lzwx7,uPhOU5H9,2020-0188,2020-05-21,15:02:12,15:21:35,NA,incomplete,9,filling,1,right,Purple_Circle_Chess_4.jpg,Green_Circle_Dots_3.jpg,Blue_Star_Chess_1.jpg,right,971.1700000334531,true,NA,NA,NA,NA,NA,NA,NA,NA,true
uPhOU5H9,3o2y2uiudt7n7g4dfo9bupx2ocrfkv,3peijlry6x6xpmn9vy32drnv1lzwx7,uPhOU5H9,2020-0188,2020-05-21,15:02:12,15:21:35,NA,incomplete,10,filling,0,right,Red_Plus_Grid_2.jpg,Green_Plus_Chess_3.jpg,Purple_Star_Grid_1.jpg,right,1104.535000049509,true,NA,NA,NA,NA,NA,NA,NA,NA,true
uPhOU5H9,3o2y2uiudt7n7g4dfo9bupx2ocrfkv,3peijlry6x6xpmn9vy32drnv1lzwx7,uPhOU5H9,2020-0188,2020-05-21,15:02:12,15:21:35,NA,incomplete,11,filling,1,left,Red_Plus_Chess_2.jpg,Green_Triangle_Chess_1.jpg,Blue_Plus_Stripes_4.jpg,left,924.1199999814853,true,NA,NA,NA,NA,NA,NA,NA,NA,true
uPhOU5H9,3o2y2uiudt7n7g4dfo9bupx2ocrfkv,3peijlry6x6xpmn9vy32drnv1lzwx7,uPhOU5H9,2020-0188,2020-05-21,15:02:12,15:21:35,NA,incomplete,12,filling,1,right,Red_Triangle_Grid_4.jpg,Green_Triangle_Chess_1.jpg,Purple_Star_Grid_3.jpg,right,1092.5949999364093,true,NA,NA,NA,NA,NA,NA,NA,NA,true
uPhOU5H9,3o2y2uiudt7n7g4dfo9bupx2ocrfkv,3peijlry6x6xpmn9vy32drnv1lzwx7,uPhOU5H9,2020-0188,2020-05-21,15:02:12,15:21:35,NA,incomplete,13,filling,1,left,Blue_Star_Grid_4.jpg,Purple_Triangle_Grid_2.jpg,Red_Star_Stripes_1.jpg,left,1605.199999990873,true,NA,NA,NA,NA,NA,NA,NA,NA,true
uPhOU5H9,3o2y2uiudt7n7g4dfo9bupx2ocrfkv,3peijlry6x6xpmn9vy32drnv1lzwx7,uPhOU5H9,2020-0188,2020-05-21,15:02:12,15:21:35,NA,incomplete,14,filling,1,left,Green_Circle_Stripes_1.jpg,Purple_Plus_Stripes_2.jpg,Red_Circle_Dots_4.jpg,left,798.6200000159442,true,NA,NA,NA,NA,NA,NA,NA,NA,true
uPhOU5H9,3o2y2uiudt7n7g4dfo9bupx2ocrfkv,3peijlry6x6xpmn9vy32drnv1lzwx7,uPhOU5H9,2020-0188,2020-05-21,15:02:12,15:21:35,NA,incomplete,15,filling,1,right,Red_Plus_Dots_2.jpg,Green_Plus_Stripes_4.jpg,Purple_Circle_Dots_1.jpg,right,824.4000000413507,true,NA,NA,NA,NA,NA,NA,NA,NA,true
uPhOU5H9,3o2y2uiudt7n7g4dfo9bupx2ocrfkv,3peijlry6x6xpmn9vy32drnv1lzwx7,uPhOU5H9,2020-0188,2020-05-21,15:02:12,15:21:35,NA,incomplete,16,filling,1,right,Red_Circle_Stripes_3.jpg,Green_Circle_Grid_4.jpg,Purple_Triangle_Stripes_1.jpg,right,830.6549999397248,true,NA,NA,NA,NA,NA,NA,NA,NA,true
uPhOU5H9,3o2y2uiudt7n7g4dfo9bupx2ocrfkv,3peijlry6x6xpmn9vy32drnv1lzwx7,uPhOU5H9,2020-0188,2020-05-21,15:02:12,15:21:35,NA,incomplete,17,filling,0,right,Red_Triangle_Stripes_3.jpg,Green_Triangle_Dots_4.jpg,Blue_Plus_Stripes_2.jpg,right,812.6700000138953,true,NA,NA,NA,NA,NA,NA,NA,NA,true
uPhOU5H9,3o2y2uiudt7n7g4dfo9bupx2ocrfkv,3peijlry6x6xpmn9vy32drnv1lzwx7,uPhOU5H9,2020-0188,2020-05-21,15:02:12,15:21:35,NA,incomplete,18,filling,1,right,Green_Plus_Grid_4.jpg,Purple_Plus_Dots_3.jpg,Red_Star_Grid_2.jpg,right,1047.0149999018759,true,NA,NA,NA,NA,NA,NA,NA,NA,true
uPhOU5H9,3o2y2uiudt7n7g4dfo9bupx2ocrfkv,3peijlry6x6xpmn9vy32drnv1lzwx7,uPhOU5H9,2020-0188,2020-05-21,15:02:12,15:21:35,NA,incomplete,19,filling,0,left,Purple_Triangle_Chess_3.jpg,Green_Plus_Chess_4.jpg,Red_Triangle_Stripes_1.jpg,left,818.3000000426546,true,NA,NA,NA,NA,NA,NA,NA,NA,true
uPhOU5H9,3o2y2uiudt7n7g4dfo9bupx2ocrfkv,3peijlry6x6xpmn9vy32drnv1lzwx7,uPhOU5H9,2020-0188,2020-05-21,15:02:12,15:21:35,NA,incomplete,20,shape,0,left,Red_Plus_Grid_1.jpg,Purple_Plus_Stripes_3.jpg,Blue_Star_Grid_4.jpg,left,911.4050000207499,true,NA,NA,NA,NA,NA,NA,NA,NA,true
uPhOU5H9,3o2y2uiudt7n7g4dfo9bupx2ocrfkv,3peijlry6x6xpmn9vy32drnv1lzwx7,uPhOU5H9,2020-0188,2020-05-21,15:02:12,15:21:35,NA,incomplete,21,shape,1,left,Blue_Triangle_Chess_1.jpg,Green_Triangle_Grid_2.jpg,Purple_Star_Chess_4.jpg,right,935.2800000924617,false,NA,NA,NA,NA,NA,NA,NA,NA,true
uPhOU5H9,3o2y2uiudt7n7g4dfo9bupx2ocrfkv,3peijlry6x6xpmn9vy32drnv1lzwx7,uPhOU5H9,2020-0188,2020-05-21,15:02:12,15:21:35,NA,incomplete,22,shape,1,right,Red_Star_Grid_1.jpg,Purple_Plus_Grid_3.jpg,Blue_Star_Dots_4.jpg,right,1115.4150000074878,true,NA,NA,NA,NA,NA,NA,NA,NA,true
uPhOU5H9,3o2y2uiudt7n7g4dfo9bupx2ocrfkv,3peijlry6x6xpmn9vy32drnv1lzwx7,uPhOU5H9,2020-0188,2020-05-21,15:02:12,15:21:35,NA,incomplete,23,shape,1,right,Red_Star_Stripes_1.jpg,Blue_Triangle_Stripes_3.jpg,Purple_Star_Dots_4.jpg,right,754.0349999908358,true,NA,NA,NA,NA,NA,NA,NA,NA,true
uPhOU5H9,3o2y2uiudt7n7g4dfo9bupx2ocrfkv,3peijlry6x6xpmn9vy32drnv1lzwx7,uPhOU5H9,2020-0188,2020-05-21,15:02:12,15:21:35,NA,incomplete,24,shape,1,left,Purple_Triangle_Stripes_3.jpg,Red_Triangle_Dots_4.jpg,Green_Circle_Stripes_1.jpg,left,639.7299999371171,true,NA,NA,NA,NA,NA,NA,NA,NA,true
uPhOU5H9,3o2y2uiudt7n7g4dfo9bupx2ocrfkv,3peijlry6x6xpmn9vy32drnv1lzwx7,uPhOU5H9,2020-0188,2020-05-21,15:02:12,15:21:35,NA,incomplete,25,shape,1,right,Red_Triangle_Dots_4.jpg,Green_Star_Dots_1.jpg,Purple_Triangle_Grid_2.jpg,right,729.4599999440834,true,NA,NA,NA,NA,NA,NA,NA,NA,true
uPhOU5H9,3o2y2uiudt7n7g4dfo9bupx2ocrfkv,3peijlry6x6xpmn9vy32drnv1lzwx7,uPhOU5H9,2020-0188,2020-05-21,15:02:12,15:21:35,NA,incomplete,26,shape,1,right,Green_Star_Stripes_2.jpg,Red_Circle_Stripes_3.jpg,Blue_Star_Dots_1.jpg,right,672.069999971427,true,NA,NA,NA,NA,NA,NA,NA,NA,true
uPhOU5H9,3o2y2uiudt7n7g4dfo9bupx2ocrfkv,3peijlry6x6xpmn9vy32drnv1lzwx7,uPhOU5H9,2020-0188,2020-05-21,15:02:12,15:21:35,NA,incomplete,27,shape,0,right,Red_Triangle_Stripes_3.jpg,Green_Circle_Stripes_1.jpg,Purple_Triangle_Grid_2.jpg,right,578.6999999545515,true,NA,NA,NA,NA,NA,NA,NA,NA,true
uPhOU5H9,3o2y2uiudt7n7g4dfo9bupx2ocrfkv,3peijlry6x6xpmn9vy32drnv1lzwx7,uPhOU5H9,2020-0188,2020-05-21,15:02:12,15:21:35,NA,incomplete,28,shape,0,left,Blue_Star_Chess_1.jpg,Green_Star_Stripes_4.jpg,Purple_Plus_Chess_3.jpg,left,1016.7950000613928,true,NA,NA,NA,NA,NA,NA,NA,NA,true
uPhOU5H9,3o2y2uiudt7n7g4dfo9bupx2ocrfkv,3peijlry6x6xpmn9vy32drnv1lzwx7,uPhOU5H9,2020-0188,2020-05-21,15:02:12,15:21:35,NA,incomplete,29,shape,1,left,Red_Star_Stripes_2.jpg,Green_Star_Dots_4.jpg,Blue_Plus_Stripes_3.jpg,right,914.8549999808893,false,NA,NA,NA,NA,NA,NA,NA,NA,true
uPhOU5H9,3o2y2uiudt7n7g4dfo9bupx2ocrfkv,3peijlry6x6xpmn9vy32drnv1lzwx7,uPhOU5H9,2020-0188,2020-05-21,15:02:12,15:21:35,NA,incomplete,30,shape,1,left,Purple_Star_Stripes_2.jpg,Blue_Star_Grid_4.jpg,Green_Plus_Stripes_1.jpg,left,1683.8950000237674,true,NA,NA,NA,NA,NA,NA,NA,NA,true
uPhOU5H9,3o2y2uiudt7n7g4dfo9bupx2ocrfkv,3peijlry6x6xpmn9vy32drnv1lzwx7,uPhOU5H9,2020-0188,2020-05-21,15:02:12,15:21:35,NA,incomplete,31,shape,1,left,Green_Plus_Grid_1.jpg,Purple_Plus_Dots_4.jpg,Red_Star_Grid_3.jpg,left,1088.3499999763444,true,NA,NA,NA,NA,NA,NA,NA,NA,true
uPhOU5H9,3o2y2uiudt7n7g4dfo9bupx2ocrfkv,3peijlry6x6xpmn9vy32drnv1lzwx7,uPhOU5H9,2020-0188,2020-05-21,15:02:12,15:21:35,NA,incomplete,32,shape,1,right,Blue_Plus_Grid_2.jpg,Red_Circle_Grid_1.jpg,Purple_Plus_Stripes_4.jpg,right,734.7200000658631,true,NA,NA,NA,NA,NA,NA,NA,NA,true
uPhOU5H9,3o2y2uiudt7n7g4dfo9bupx2ocrfkv,3peijlry6x6xpmn9vy32drnv1lzwx7,uPhOU5H9,2020-0188,2020-05-21,15:02:12,15:21:35,NA,incomplete,33,shape,1,left,Green_Circle_Stripes_2.jpg,Blue_Circle_Dots_3.jpg,Purple_Triangle_Stripes_4.jpg,left,804.6800000593066,true,NA,NA,NA,NA,NA,NA,NA,NA,true
uPhOU5H9,3o2y2uiudt7n7g4dfo9bupx2ocrfkv,3peijlry6x6xpmn9vy32drnv1lzwx7,uPhOU5H9,2020-0188,2020-05-21,15:02:12,15:21:35,NA,incomplete,34,shape,1,left,Blue_Plus_Dots_3.jpg,Purple_Plus_Grid_1.jpg,Green_Star_Dots_2.jpg,left,1075.3649999387562,true,NA,NA,NA,NA,NA,NA,NA,NA,true
uPhOU5H9,3o2y2uiudt7n7g4dfo9bupx2ocrfkv,3peijlry6x6xpmn9vy32drnv1lzwx7,uPhOU5H9,2020-0188,2020-05-21,15:02:12,15:21:35,NA,incomplete,35,shape,1,right,Red_Star_Grid_3.jpg,Purple_Triangle_Grid_4.jpg,Blue_Star_Dots_1.jpg,right,1081.7749999696389,true,NA,NA,NA,NA,NA,NA,NA,NA,true
uPhOU5H9,3o2y2uiudt7n7g4dfo9bupx2ocrfkv,3peijlry6x6xpmn9vy32drnv1lzwx7,uPhOU5H9,2020-0188,2020-05-21,15:02:12,15:21:35,NA,incomplete,36,shape,1,right,Blue_Plus_Dots_2.jpg,Red_Star_Dots_3.jpg,Purple_Plus_Grid_1.jpg,right,782.5149999698624,true,NA,NA,NA,NA,NA,NA,NA,NA,true
uPhOU5H9,3o2y2uiudt7n7g4dfo9bupx2ocrfkv,3peijlry6x6xpmn9vy32drnv1lzwx7,uPhOU5H9,2020-0188,2020-05-21,15:02:12,15:21:35,NA,incomplete,37,shape,1,right,Red_Triangle_Chess_3.jpg,Green_Circle_Chess_4.jpg,Purple_Triangle_Grid_2.jpg,right,664.1600000439212,true,NA,NA,NA,NA,NA,NA,NA,NA,true
uPhOU5H9,3o2y2uiudt7n7g4dfo9bupx2ocrfkv,3peijlry6x6xpmn9vy32drnv1lzwx7,uPhOU5H9,2020-0188,2020-05-21,15:02:12,15:21:35,NA,incomplete,38,shape,0,right,Blue_Circle_Stripes_4.jpg,Purple_Triangle_Stripes_2.jpg,Green_Circle_Dots_1.jpg,right,651.5000000363216,true,NA,NA,NA,NA,NA,NA,NA,NA,true
uPhOU5H9,3o2y2uiudt7n7g4dfo9bupx2ocrfkv,3peijlry6x6xpmn9vy32drnv1lzwx7,uPhOU5H9,2020-0188,2020-05-21,15:02:12,15:21:35,NA,incomplete,39,shape,1,right,Red_Triangle_Chess_1.jpg,Green_Plus_Chess_4.jpg,Purple_Triangle_Grid_2.jpg,right,611.380000016652,true,NA,NA,NA,NA,NA,NA,NA,NA,true
uPhOU5H9,3o2y2uiudt7n7g4dfo9bupx2ocrfkv,3peijlry6x6xpmn9vy32drnv1lzwx7,uPhOU5H9,2020-0188,2020-05-21,15:02:12,15:21:35,NA,incomplete,0,filling,1,left,Purple_Circle_Stripes_1.jpg,Green_Star_Stripes_3.jpg,Blue_Circle_Chess_2.jpg,left,1168.6400000471622,true,high,NA,NA,NA,NA,NA,NA,NA,false
uPhOU5H9,3o2y2uiudt7n7g4dfo9bupx2ocrfkv,3peijlry6x6xpmn9vy32drnv1lzwx7,uPhOU5H9,2020-0188,2020-05-21,15:02:12,15:21:35,NA,incomplete,1,filling,1,right,Purple_Plus_Chess_1.jpg,Blue_Plus_Grid_4.jpg,Green_Triangle_Chess_3.jpg,right,914.589999942109,true,high,NA,NA,NA,NA,NA,NA,NA,false
uPhOU5H9,3o2y2uiudt7n7g4dfo9bupx2ocrfkv,3peijlry6x6xpmn9vy32drnv1lzwx7,uPhOU5H9,2020-0188,2020-05-21,15:02:12,15:21:35,NA,incomplete,2,filling,1,right,Blue_Plus_Stripes_2.jpg,Red_Plus_Dots_4.jpg,Purple_Circle_Stripes_3.jpg,right,1034.3550000106916,true,high,NA,NA,NA,NA,NA,NA,NA,false
uPhOU5H9,3o2y2uiudt7n7g4dfo9bupx2ocrfkv,3peijlry6x6xpmn9vy32drnv1lzwx7,uPhOU5H9,2020-0188,2020-05-21,15:02:12,15:21:35,NA,incomplete,3,filling,1,right,Green_Plus_Grid_1.jpg,Red_Plus_Dots_3.jpg,Blue_Star_Grid_2.jpg,right,947.8349999990314,true,high,NA,NA,NA,NA,NA,NA,NA,false
uPhOU5H9,3o2y2uiudt7n7g4dfo9bupx2ocrfkv,3peijlry6x6xpmn9vy32drnv1lzwx7,uPhOU5H9,2020-0188,2020-05-21,15:02:12,15:21:35,NA,incomplete,4,filling,1,right,Red_Star_Dots_1.jpg,Purple_Star_Chess_3.jpg,Green_Plus_Dots_4.jpg,right,924.4800000451505,true,high,NA,NA,NA,NA,NA,NA,NA,false
uPhOU5H9,3o2y2uiudt7n7g4dfo9bupx2ocrfkv,3peijlry6x6xpmn9vy32drnv1lzwx7,uPhOU5H9,2020-0188,2020-05-21,15:02:12,15:21:35,NA,incomplete,5,filling,1,left,Purple_Plus_Dots_1.jpg,Red_Star_Dots_2.jpg,Green_Plus_Chess_4.jpg,left,893.9349999418482,true,high,NA,NA,NA,NA,NA,NA,NA,false
uPhOU5H9,3o2y2uiudt7n7g4dfo9bupx2ocrfkv,3peijlry6x6xpmn9vy32drnv1lzwx7,uPhOU5H9,2020-0188,2020-05-21,15:02:12,15:21:35,NA,incomplete,6,filling,1,right,Purple_Star_Stripes_1.jpg,Red_Star_Dots_4.jpg,Blue_Circle_Stripes_2.jpg,right,909.5600000582635,true,high,NA,NA,NA,NA,NA,NA,NA,false
uPhOU5H9,3o2y2uiudt7n7g4dfo9bupx2ocrfkv,3peijlry6x6xpmn9vy32drnv1lzwx7,uPhOU5H9,2020-0188,2020-05-21,15:02:12,15:21:35,NA,incomplete,7,filling,1,left,Red_Star_Stripes_3.jpg,Green_Triangle_Stripes_4.jpg,Blue_Star_Chess_1.jpg,left,849.640000029467,true,high,NA,NA,NA,NA,NA,NA,NA,false
uPhOU5H9,3o2y2uiudt7n7g4dfo9bupx2ocrfkv,3peijlry6x6xpmn9vy32drnv1lzwx7,uPhOU5H9,2020-0188,2020-05-21,15:02:12,15:21:35,NA,incomplete,8,filling,0,right,Purple_Star_Stripes_2.jpg,Green_Star_Dots_3.jpg,Blue_Plus_Stripes_1.jpg,right,1001.1549999471754,true,high,NA,NA,NA,NA,NA,NA,NA,false
uPhOU5H9,3o2y2uiudt7n7g4dfo9bupx2ocrfkv,3peijlry6x6xpmn9vy32drnv1lzwx7,uPhOU5H9,2020-0188,2020-05-21,15:02:12,15:21:35,NA,incomplete,9,filling,0,right,Purple_Triangle_Dots_3.jpg,Red_Triangle_Stripes_1.jpg,Green_Star_Dots_4.jpg,right,824.0300000179559,true,high,NA,NA,NA,NA,NA,NA,NA,false
uPhOU5H9,3o2y2uiudt7n7g4dfo9bupx2ocrfkv,3peijlry6x6xpmn9vy32drnv1lzwx7,uPhOU5H9,2020-0188,2020-05-21,15:02:12,15:21:35,NA,incomplete,10,shape,1,right,Purple_Star_Chess_3.jpg,Red_Triangle_Chess_1.jpg,Blue_Star_Stripes_2.jpg,left,1005.4699999745935,false,high,NA,NA,NA,NA,NA,NA,NA,false
uPhOU5H9,3o2y2uiudt7n7g4dfo9bupx2ocrfkv,3peijlry6x6xpmn9vy32drnv1lzwx7,uPhOU5H9,2020-0188,2020-05-21,15:02:12,15:21:35,NA,incomplete,11,shape,1,right,Purple_Star_Stripes_3.jpg,Red_Circle_Stripes_4.jpg,Blue_Star_Dots_1.jpg,right,749.2349999956787,true,high,NA,NA,NA,NA,NA,NA,NA,false
uPhOU5H9,3o2y2uiudt7n7g4dfo9bupx2ocrfkv,3peijlry6x6xpmn9vy32drnv1lzwx7,uPhOU5H9,2020-0188,2020-05-21,15:02:12,15:21:35,NA,incomplete,12,shape,1,left,Green_Circle_Chess_1.jpg,Purple_Circle_Stripes_4.jpg,Blue_Triangle_Chess_2.jpg,left,724.8799999943003,true,high,NA,NA,NA,NA,NA,NA,NA,false
uPhOU5H9,3o2y2uiudt7n7g4dfo9bupx2ocrfkv,3peijlry6x6xpmn9vy32drnv1lzwx7,uPhOU5H9,2020-0188,2020-05-21,15:02:12,15:21:35,NA,incomplete,13,shape,1,left,Purple_Star_Chess_2.jpg,Blue_Star_Stripes_1.jpg,Green_Circle_Chess_3.jpg,right,731.8799999775365,false,high,NA,NA,NA,NA,NA,NA,NA,false
uPhOU5H9,3o2y2uiudt7n7g4dfo9bupx2ocrfkv,3peijlry6x6xpmn9vy32drnv1lzwx7,uPhOU5H9,2020-0188,2020-05-21,15:02:12,15:21:35,NA,incomplete,14,shape,1,right,Purple_Star_Grid_4.jpg,Blue_Circle_Grid_2.jpg,Red_Star_Stripes_1.jpg,right,687.2299999231473,true,high,NA,NA,NA,NA,NA,NA,NA,false
uPhOU5H9,3o2y2uiudt7n7g4dfo9bupx2ocrfkv,3peijlry6x6xpmn9vy32drnv1lzwx7,uPhOU5H9,2020-0188,2020-05-21,15:02:12,15:21:35,NA,incomplete,15,shape,1,right,Blue_Star_Dots_3.jpg,Red_Circle_Dots_1.jpg,Purple_Star_Chess_4.jpg,right,839.5049999235198,true,high,NA,NA,NA,NA,NA,NA,NA,false
uPhOU5H9,3o2y2uiudt7n7g4dfo9bupx2ocrfkv,3peijlry6x6xpmn9vy32drnv1lzwx7,uPhOU5H9,2020-0188,2020-05-21,15:02:12,15:21:35,NA,incomplete,16,shape,1,left,Green_Triangle_Stripes_3.jpg,Red_Triangle_Chess_2.jpg,Purple_Circle_Stripes_4.jpg,left,661.6700000595301,true,high,NA,NA,NA,NA,NA,NA,NA,false
uPhOU5H9,3o2y2uiudt7n7g4dfo9bupx2ocrfkv,3peijlry6x6xpmn9vy32drnv1lzwx7,uPhOU5H9,2020-0188,2020-05-21,15:02:12,15:21:35,NA,incomplete,17,shape,1,left,Blue_Triangle_Chess_2.jpg,Red_Triangle_Dots_4.jpg,Green_Star_Chess_3.jpg,left,896.2049999972805,true,high,NA,NA,NA,NA,NA,NA,NA,false
uPhOU5H9,3o2y2uiudt7n7g4dfo9bupx2ocrfkv,3peijlry6x6xpmn9vy32drnv1lzwx7,uPhOU5H9,2020-0188,2020-05-21,15:02:12,15:21:35,NA,incomplete,18,shape,1,right,Red_Plus_Dots_4.jpg,Purple_Circle_Dots_2.jpg,Blue_Plus_Stripes_1.jpg,right,673.1349999317899,true,high,NA,NA,NA,NA,NA,NA,NA,false
uPhOU5H9,3o2y2uiudt7n7g4dfo9bupx2ocrfkv,3peijlry6x6xpmn9vy32drnv1lzwx7,uPhOU5H9,2020-0188,2020-05-21,15:02:12,15:21:35,NA,incomplete,19,shape,1,right,Red_Plus_Grid_2.jpg,Purple_Triangle_Grid_4.jpg,Blue_Plus_Chess_3.jpg,right,741.9549999758601,true,high,NA,NA,NA,NA,NA,NA,NA,false
uPhOU5H9,3o2y2uiudt7n7g4dfo9bupx2ocrfkv,3peijlry6x6xpmn9vy32drnv1lzwx7,uPhOU5H9,2020-0188,2020-05-21,15:02:12,15:21:35,NA,incomplete,20,filling,0,left,Red_Plus_Chess_4.jpg,Blue_Triangle_Chess_3.jpg,Green_Plus_Stripes_2.jpg,right,769.3549999967217,false,high,NA,NA,NA,NA,NA,NA,NA,false
uPhOU5H9,3o2y2uiudt7n7g4dfo9bupx2ocrfkv,3peijlry6x6xpmn9vy32drnv1lzwx7,uPhOU5H9,2020-0188,2020-05-21,15:02:12,15:21:35,NA,incomplete,21,filling,0,right,Blue_Circle_Stripes_1.jpg,Red_Circle_Grid_2.jpg,Green_Plus_Stripes_4.jpg,left,686.5799999795854,false,high,NA,NA,NA,NA,NA,NA,NA,false
uPhOU5H9,3o2y2uiudt7n7g4dfo9bupx2ocrfkv,3peijlry6x6xpmn9vy32drnv1lzwx7,uPhOU5H9,2020-0188,2020-05-21,15:02:12,15:21:35,NA,incomplete,22,filling,1,right,Green_Circle_Grid_2.jpg,Red_Circle_Chess_3.jpg,Purple_Plus_Grid_1.jpg,left,712.5049999449402,false,high,NA,NA,NA,NA,NA,NA,NA,false
uPhOU5H9,3o2y2uiudt7n7g4dfo9bupx2ocrfkv,3peijlry6x6xpmn9vy32drnv1lzwx7,uPhOU5H9,2020-0188,2020-05-21,15:02:12,15:21:35,NA,incomplete,23,filling,1,left,Blue_Triangle_Chess_2.jpg,Purple_Star_Chess_4.jpg,Green_Triangle_Grid_3.jpg,right,637.6999999629334,false,high,NA,NA,NA,NA,NA,NA,NA,false
uPhOU5H9,3o2y2uiudt7n7g4dfo9bupx2ocrfkv,3peijlry6x6xpmn9vy32drnv1lzwx7,uPhOU5H9,2020-0188,2020-05-21,15:02:12,15:21:35,NA,incomplete,24,filling,1,left,Blue_Plus_Grid_1.jpg,Green_Triangle_Grid_3.jpg,Red_Plus_Stripes_4.jpg,left,1577.22500001546,true,high,NA,NA,NA,NA,NA,NA,NA,false
uPhOU5H9,3o2y2uiudt7n7g4dfo9bupx2ocrfkv,3peijlry6x6xpmn9vy32drnv1lzwx7,uPhOU5H9,2020-0188,2020-05-21,15:02:12,15:21:35,NA,incomplete,25,filling,1,left,Purple_Plus_Grid_4.jpg,Green_Circle_Grid_3.jpg,Red_Plus_Stripes_1.jpg,right,1541.3799999514595,false,high,NA,NA,NA,NA,NA,NA,NA,false
uPhOU5H9,3o2y2uiudt7n7g4dfo9bupx2ocrfkv,3peijlry6x6xpmn9vy32drnv1lzwx7,uPhOU5H9,2020-0188,2020-05-21,15:02:12,15:21:35,NA,incomplete,26,filling,1,right,Blue_Triangle_Grid_1.jpg,Purple_Triangle_Stripes_4.jpg,Green_Star_Grid_2.jpg,right,1253.275000024587,true,high,NA,NA,NA,NA,NA,NA,NA,false
uPhOU5H9,3o2y2uiudt7n7g4dfo9bupx2ocrfkv,3peijlry6x6xpmn9vy32drnv1lzwx7,uPhOU5H9,2020-0188,2020-05-21,15:02:12,15:21:35,NA,incomplete,27,filling,1,left,Green_Circle_Stripes_1.jpg,Purple_Star_Stripes_3.jpg,Red_Circle_Chess_4.jpg,left,999.7250000014901,true,high,NA,NA,NA,NA,NA,NA,NA,false
uPhOU5H9,3o2y2uiudt7n7g4dfo9bupx2ocrfkv,3peijlry6x6xpmn9vy32drnv1lzwx7,uPhOU5H9,2020-0188,2020-05-21,15:02:12,15:21:35,NA,incomplete,28,filling,1,right,Red_Circle_Grid_3.jpg,Purple_Circle_Dots_4.jpg,Blue_Plus_Grid_1.jpg,right,965.059999958612,true,high,NA,NA,NA,NA,NA,NA,NA,false
uPhOU5H9,3o2y2uiudt7n7g4dfo9bupx2ocrfkv,3peijlry6x6xpmn9vy32drnv1lzwx7,uPhOU5H9,2020-0188,2020-05-21,15:02:12,15:21:35,NA,incomplete,29,filling,1,right,Blue_Circle_Grid_1.jpg,Red_Circle_Stripes_4.jpg,Green_Plus_Grid_2.jpg,right,846.1099999258295,true,high,NA,NA,NA,NA,NA,NA,NA,false
uPhOU5H9,3o2y2uiudt7n7g4dfo9bupx2ocrfkv,3peijlry6x6xpmn9vy32drnv1lzwx7,uPhOU5H9,2020-0188,2020-05-21,15:02:12,15:21:35,NA,incomplete,30,shape,1,right,Red_Star_Chess_1.jpg,Purple_Plus_Chess_4.jpg,Green_Star_Grid_3.jpg,left,984.5999999670312,false,high,NA,NA,NA,NA,NA,NA,NA,false
uPhOU5H9,3o2y2uiudt7n7g4dfo9bupx2ocrfkv,3peijlry6x6xpmn9vy32drnv1lzwx7,uPhOU5H9,2020-0188,2020-05-21,15:02:12,15:21:35,NA,incomplete,31,shape,1,left,Purple_Triangle_Grid_4.jpg,Blue_Triangle_Chess_3.jpg,Green_Star_Grid_1.jpg,right,961.490000016056,false,high,NA,NA,NA,NA,NA,NA,NA,false
uPhOU5H9,3o2y2uiudt7n7g4dfo9bupx2ocrfkv,3peijlry6x6xpmn9vy32drnv1lzwx7,uPhOU5H9,2020-0188,2020-05-21,15:02:12,15:21:35,NA,incomplete,32,shape,1,left,Purple_Triangle_Stripes_2.jpg,Red_Triangle_Grid_4.jpg,Green_Star_Stripes_3.jpg,left,1146.7550001107156,true,high,NA,NA,NA,NA,NA,NA,NA,false
uPhOU5H9,3o2y2uiudt7n7g4dfo9bupx2ocrfkv,3peijlry6x6xpmn9vy32drnv1lzwx7,uPhOU5H9,2020-0188,2020-05-21,15:02:12,15:21:35,NA,incomplete,33,shape,1,right,Purple_Triangle_Dots_1.jpg,Red_Circle_Dots_3.jpg,Blue_Triangle_Stripes_2.jpg,right,648.3899999875575,true,high,NA,NA,NA,NA,NA,NA,NA,false
uPhOU5H9,3o2y2uiudt7n7g4dfo9bupx2ocrfkv,3peijlry6x6xpmn9vy32drnv1lzwx7,uPhOU5H9,2020-0188,2020-05-21,15:02:12,15:21:35,NA,incomplete,34,shape,1,right,Blue_Star_Chess_3.jpg,Red_Triangle_Chess_1.jpg,Purple_Star_Grid_2.jpg,right,595.4299999866635,true,high,NA,NA,NA,NA,NA,NA,NA,false
uPhOU5H9,3o2y2uiudt7n7g4dfo9bupx2ocrfkv,3peijlry6x6xpmn9vy32drnv1lzwx7,uPhOU5H9,2020-0188,2020-05-21,15:02:12,15:21:35,NA,incomplete,35,shape,0,right,Red_Star_Stripes_3.jpg,Blue_Triangle_Stripes_1.jpg,Purple_Star_Chess_2.jpg,right,571.8700001016259,true,high,NA,NA,NA,NA,NA,NA,NA,false
uPhOU5H9,3o2y2uiudt7n7g4dfo9bupx2ocrfkv,3peijlry6x6xpmn9vy32drnv1lzwx7,uPhOU5H9,2020-0188,2020-05-21,15:02:12,15:21:35,NA,incomplete,36,shape,0,left,Purple_Star_Dots_4.jpg,Blue_Star_Chess_2.jpg,Green_Circle_Dots_1.jpg,left,727.8500000247732,true,high,NA,NA,NA,NA,NA,NA,NA,false
uPhOU5H9,3o2y2uiudt7n7g4dfo9bupx2ocrfkv,3peijlry6x6xpmn9vy32drnv1lzwx7,uPhOU5H9,2020-0188,2020-05-21,15:02:12,15:21:35,NA,incomplete,37,shape,1,left,Purple_Triangle_Stripes_2.jpg,Red_Triangle_Grid_4.jpg,Blue_Circle_Stripes_1.jpg,right,1172.484999988228,false,high,NA,NA,NA,NA,NA,NA,NA,false
uPhOU5H9,3o2y2uiudt7n7g4dfo9bupx2ocrfkv,3peijlry6x6xpmn9vy32drnv1lzwx7,uPhOU5H9,2020-0188,2020-05-21,15:02:12,15:21:35,NA,incomplete,38,shape,0,right,Purple_Triangle_Grid_2.jpg,Blue_Star_Grid_1.jpg,Green_Triangle_Chess_3.jpg,left,1485.4500000365078,false,high,NA,NA,NA,NA,NA,NA,NA,false
uPhOU5H9,3o2y2uiudt7n7g4dfo9bupx2ocrfkv,3peijlry6x6xpmn9vy32drnv1lzwx7,uPhOU5H9,2020-0188,2020-05-21,15:02:12,15:21:35,NA,incomplete,39,shape,1,right,Green_Star_Grid_3.jpg,Blue_Plus_Grid_1.jpg,Red_Star_Chess_4.jpg,left,1324.640000006184,false,high,NA,NA,NA,NA,NA,NA,NA,false
uPhOU5H9,3o2y2uiudt7n7g4dfo9bupx2ocrfkv,3peijlry6x6xpmn9vy32drnv1lzwx7,uPhOU5H9,2020-0188,2020-05-21,15:02:12,15:21:35,NA,incomplete,40,filling,1,left,Green_Triangle_Grid_4.jpg,Purple_Star_Grid_3.jpg,Red_Triangle_Chess_2.jpg,left,1028.745000017807,true,high,NA,NA,NA,NA,NA,NA,NA,false
uPhOU5H9,3o2y2uiudt7n7g4dfo9bupx2ocrfkv,3peijlry6x6xpmn9vy32drnv1lzwx7,uPhOU5H9,2020-0188,2020-05-21,15:02:12,15:21:35,NA,incomplete,41,filling,1,right,Green_Triangle_Dots_1.jpg,Blue_Triangle_Chess_3.jpg,Purple_Circle_Dots_4.jpg,right,873.6000000499189,true,high,NA,NA,NA,NA,NA,NA,NA,false
uPhOU5H9,3o2y2uiudt7n7g4dfo9bupx2ocrfkv,3peijlry6x6xpmn9vy32drnv1lzwx7,uPhOU5H9,2020-0188,2020-05-21,15:02:12,15:21:35,NA,incomplete,42,filling,1,right,Green_Star_Dots_4.jpg,Blue_Star_Stripes_3.jpg,Purple_Circle_Dots_2.jpg,right,886.060000048019,true,high,NA,NA,NA,NA,NA,NA,NA,false
uPhOU5H9,3o2y2uiudt7n7g4dfo9bupx2ocrfkv,3peijlry6x6xpmn9vy32drnv1lzwx7,uPhOU5H9,2020-0188,2020-05-21,15:02:12,15:21:35,NA,incomplete,43,filling,1,right,Blue_Plus_Stripes_1.jpg,Green_Plus_Chess_2.jpg,Purple_Star_Stripes_4.jpg,right,1151.079999981448,true,high,NA,NA,NA,NA,NA,NA,NA,false
uPhOU5H9,3o2y2uiudt7n7g4dfo9bupx2ocrfkv,3peijlry6x6xpmn9vy32drnv1lzwx7,uPhOU5H9,2020-0188,2020-05-21,15:02:12,15:21:35,NA,incomplete,44,filling,1,right,Blue_Star_Chess_2.jpg,Purple_Star_Dots_3.jpg,Green_Triangle_Chess_1.jpg,right,1053.635000018403,true,high,NA,NA,NA,NA,NA,NA,NA,false
uPhOU5H9,3o2y2uiudt7n7g4dfo9bupx2ocrfkv,3peijlry6x6xpmn9vy32drnv1lzwx7,uPhOU5H9,2020-0188,2020-05-21,15:02:12,15:21:35,NA,incomplete,45,filling,1,right,Purple_Plus_Stripes_4.jpg,Blue_Plus_Chess_2.jpg,Green_Star_Stripes_1.jpg,right,962.764999945648,true,high,NA,NA,NA,NA,NA,NA,NA,false
uPhOU5H9,3o2y2uiudt7n7g4dfo9bupx2ocrfkv,3peijlry6x6xpmn9vy32drnv1lzwx7,uPhOU5H9,2020-0188,2020-05-21,15:02:12,15:21:35,NA,incomplete,46,filling,1,right,Blue_Circle_Grid_4.jpg,Red_Circle_Dots_3.jpg,Green_Star_Grid_1.jpg,right,1016.8599999742582,true,high,NA,NA,NA,NA,NA,NA,NA,false
uPhOU5H9,3o2y2uiudt7n7g4dfo9bupx2ocrfkv,3peijlry6x6xpmn9vy32drnv1lzwx7,uPhOU5H9,2020-0188,2020-05-21,15:02:12,15:21:35,NA,incomplete,47,filling,0,left,Blue_Star_Stripes_4.jpg,Red_Triangle_Stripes_1.jpg,Purple_Star_Dots_3.jpg,left,976.1149999685585,true,high,NA,NA,NA,NA,NA,NA,NA,false
uPhOU5H9,3o2y2uiudt7n7g4dfo9bupx2ocrfkv,3peijlry6x6xpmn9vy32drnv1lzwx7,uPhOU5H9,2020-0188,2020-05-21,15:02:12,15:21:35,NA,incomplete,48,filling,0,right,Purple_Plus_Grid_1.jpg,Green_Plus_Dots_4.jpg,Blue_Star_Grid_2.jpg,left,907.4450000189245,false,high,NA,NA,NA,NA,NA,NA,NA,false
uPhOU5H9,3o2y2uiudt7n7g4dfo9bupx2ocrfkv,3peijlry6x6xpmn9vy32drnv1lzwx7,uPhOU5H9,2020-0188,2020-05-21,15:02:12,15:21:35,NA,incomplete,49,filling,1,left,Blue_Triangle_Chess_3.jpg,Red_Circle_Chess_2.jpg,Purple_Triangle_Dots_1.jpg,right,642.6549999741837,false,high,NA,NA,NA,NA,NA,NA,NA,false
uPhOU5H9,3o2y2uiudt7n7g4dfo9bupx2ocrfkv,3peijlry6x6xpmn9vy32drnv1lzwx7,uPhOU5H9,2020-0188,2020-05-21,15:02:12,15:21:35,NA,incomplete,50,shape,1,right,Purple_Triangle_Stripes_4.jpg,Blue_Star_Stripes_1.jpg,Green_Triangle_Dots_2.jpg,right,657.1999998996034,true,high,NA,NA,NA,NA,NA,NA,NA,false
uPhOU5H9,3o2y2uiudt7n7g4dfo9bupx2ocrfkv,3peijlry6x6xpmn9vy32drnv1lzwx7,uPhOU5H9,2020-0188,2020-05-21,15:02:12,15:21:35,NA,incomplete,51,shape,1,right,Blue_Plus_Stripes_3.jpg,Green_Triangle_Stripes_1.jpg,Purple_Plus_Chess_2.jpg,right,850.3599999239668,true,high,NA,NA,NA,NA,NA,NA,NA,false
uPhOU5H9,3o2y2uiudt7n7g4dfo9bupx2ocrfkv,3peijlry6x6xpmn9vy32drnv1lzwx7,uPhOU5H9,2020-0188,2020-05-21,15:02:12,15:21:35,NA,incomplete,52,shape,1,right,Green_Circle_Stripes_4.jpg,Purple_Star_Stripes_2.jpg,Red_Circle_Chess_3.jpg,right,627.8049999382347,true,high,NA,NA,NA,NA,NA,NA,NA,false
uPhOU5H9,3o2y2uiudt7n7g4dfo9bupx2ocrfkv,3peijlry6x6xpmn9vy32drnv1lzwx7,uPhOU5H9,2020-0188,2020-05-21,15:02:12,15:21:35,NA,incomplete,53,shape,1,left,Blue_Triangle_Dots_1.jpg,Green_Triangle_Chess_4.jpg,Red_Plus_Dots_2.jpg,left,759.0149999596179,true,high,NA,NA,NA,NA,NA,NA,NA,false
uPhOU5H9,3o2y2uiudt7n7g4dfo9bupx2ocrfkv,3peijlry6x6xpmn9vy32drnv1lzwx7,uPhOU5H9,2020-0188,2020-05-21,15:02:12,15:21:35,NA,incomplete,54,shape,1,right,Purple_Star_Grid_1.jpg,Green_Plus_Grid_4.jpg,Blue_Star_Chess_3.jpg,right,533.5200000554323,true,high,NA,NA,NA,NA,NA,NA,NA,false
uPhOU5H9,3o2y2uiudt7n7g4dfo9bupx2ocrfkv,3peijlry6x6xpmn9vy32drnv1lzwx7,uPhOU5H9,2020-0188,2020-05-21,15:02:12,15:21:35,NA,incomplete,55,shape,1,left,Purple_Triangle_Chess_2.jpg,Red_Triangle_Stripes_1.jpg,Green_Star_Chess_4.jpg,left,675.8350000018254,true,high,NA,NA,NA,NA,NA,NA,NA,false
uPhOU5H9,3o2y2uiudt7n7g4dfo9bupx2ocrfkv,3peijlry6x6xpmn9vy32drnv1lzwx7,uPhOU5H9,2020-0188,2020-05-21,15:02:12,15:21:35,NA,incomplete,56,shape,0,right,Purple_Triangle_Chess_4.jpg,Red_Circle_Chess_1.jpg,Green_Triangle_Dots_3.jpg,right,564.4999999785796,true,high,NA,NA,NA,NA,NA,NA,NA,false
uPhOU5H9,3o2y2uiudt7n7g4dfo9bupx2ocrfkv,3peijlry6x6xpmn9vy32drnv1lzwx7,uPhOU5H9,2020-0188,2020-05-21,15:02:12,15:21:35,NA,incomplete,57,shape,1,right,Purple_Triangle_Stripes_4.jpg,Blue_Plus_Stripes_1.jpg,Green_Triangle_Grid_2.jpg,right,463.34499993827194,true,high,NA,NA,NA,NA,NA,NA,NA,false
uPhOU5H9,3o2y2uiudt7n7g4dfo9bupx2ocrfkv,3peijlry6x6xpmn9vy32drnv1lzwx7,uPhOU5H9,2020-0188,2020-05-21,15:02:12,15:21:35,NA,incomplete,58,shape,1,left,Blue_Triangle_Dots_1.jpg,Purple_Triangle_Stripes_3.jpg,Green_Star_Dots_2.jpg,left,623.1600000755861,true,high,NA,NA,NA,NA,NA,NA,NA,false
uPhOU5H9,3o2y2uiudt7n7g4dfo9bupx2ocrfkv,3peijlry6x6xpmn9vy32drnv1lzwx7,uPhOU5H9,2020-0188,2020-05-21,15:02:12,15:21:35,NA,incomplete,59,shape,0,left,Green_Triangle_Chess_2.jpg,Blue_Triangle_Dots_4.jpg,Purple_Star_Chess_3.jpg,left,655.8900000527501,true,high,NA,NA,NA,NA,NA,NA,NA,false
uPhOU5H9,3o2y2uiudt7n7g4dfo9bupx2ocrfkv,3peijlry6x6xpmn9vy32drnv1lzwx7,uPhOU5H9,2020-0188,2020-05-21,15:02:12,15:21:35,NA,incomplete,60,filling,1,right,Green_Triangle_Dots_3.jpg,Blue_Triangle_Grid_2.jpg,Purple_Star_Dots_4.jpg,right,527.5399999227375,true,high,NA,NA,NA,NA,NA,NA,NA,false
uPhOU5H9,3o2y2uiudt7n7g4dfo9bupx2ocrfkv,3peijlry6x6xpmn9vy32drnv1lzwx7,uPhOU5H9,2020-0188,2020-05-21,15:02:12,15:21:35,NA,incomplete,61,filling,0,right,Red_Plus_Chess_1.jpg,Purple_Plus_Dots_2.jpg,Blue_Triangle_Chess_4.jpg,right,1015.0699999649078,true,high,NA,NA,NA,NA,NA,NA,NA,false
uPhOU5H9,3o2y2uiudt7n7g4dfo9bupx2ocrfkv,3peijlry6x6xpmn9vy32drnv1lzwx7,uPhOU5H9,2020-0188,2020-05-21,15:02:12,15:21:35,NA,incomplete,62,filling,1,right,Red_Plus_Grid_2.jpg,Purple_Plus_Dots_1.jpg,Green_Circle_Grid_3.jpg,left,1213.1199999712408,false,high,NA,NA,NA,NA,NA,NA,NA,false
uPhOU5H9,3o2y2uiudt7n7g4dfo9bupx2ocrfkv,3peijlry6x6xpmn9vy32drnv1lzwx7,uPhOU5H9,2020-0188,2020-05-21,15:02:12,15:21:35,NA,incomplete,63,filling,1,right,Blue_Plus_Chess_1.jpg,Purple_Plus_Stripes_4.jpg,Green_Star_Chess_3.jpg,right,910.3699999395758,true,high,NA,NA,NA,NA,NA,NA,NA,false
uPhOU5H9,3o2y2uiudt7n7g4dfo9bupx2ocrfkv,3peijlry6x6xpmn9vy32drnv1lzwx7,uPhOU5H9,2020-0188,2020-05-21,15:02:12,15:21:35,NA,incomplete,64,filling,0,right,Blue_Triangle_Stripes_2.jpg,Purple_Triangle_Grid_1.jpg,Green_Circle_Stripes_3.jpg,right,846.6750000370666,true,high,NA,NA,NA,NA,NA,NA,NA,false
uPhOU5H9,3o2y2uiudt7n7g4dfo9bupx2ocrfkv,3peijlry6x6xpmn9vy32drnv1lzwx7,uPhOU5H9,2020-0188,2020-05-21,15:02:12,15:21:35,NA,incomplete,65,filling,0,left,Red_Circle_Dots_1.jpg,Purple_Plus_Dots_4.jpg,Green_Circle_Grid_2.jpg,left,1018.0950000649318,true,high,NA,NA,NA,NA,NA,NA,NA,false
uPhOU5H9,3o2y2uiudt7n7g4dfo9bupx2ocrfkv,3peijlry6x6xpmn9vy32drnv1lzwx7,uPhOU5H9,2020-0188,2020-05-21,15:02:12,15:21:35,NA,incomplete,66,filling,1,right,Blue_Triangle_Grid_2.jpg,Red_Triangle_Stripes_3.jpg,Green_Plus_Grid_4.jpg,left,691.4899999974295,false,high,NA,NA,NA,NA,NA,NA,NA,false
uPhOU5H9,3o2y2uiudt7n7g4dfo9bupx2ocrfkv,3peijlry6x6xpmn9vy32drnv1lzwx7,uPhOU5H9,2020-0188,2020-05-21,15:02:12,15:21:35,NA,incomplete,67,filling,1,left,Purple_Star_Dots_1.jpg,Blue_Circle_Dots_4.jpg,Red_Star_Grid_3.jpg,left,1142.2350000357255,true,high,NA,NA,NA,NA,NA,NA,NA,false
uPhOU5H9,3o2y2uiudt7n7g4dfo9bupx2ocrfkv,3peijlry6x6xpmn9vy32drnv1lzwx7,uPhOU5H9,2020-0188,2020-05-21,15:02:12,15:21:35,NA,incomplete,68,filling,0,right,Red_Star_Grid_2.jpg,Blue_Star_Stripes_3.jpg,Green_Circle_Grid_4.jpg,right,1093.7699999194592,true,high,NA,NA,NA,NA,NA,NA,NA,false
uPhOU5H9,3o2y2uiudt7n7g4dfo9bupx2ocrfkv,3peijlry6x6xpmn9vy32drnv1lzwx7,uPhOU5H9,2020-0188,2020-05-21,15:02:12,15:21:35,NA,incomplete,69,filling,1,left,Purple_Triangle_Chess_4.jpg,Blue_Circle_Chess_1.jpg,Red_Triangle_Stripes_3.jpg,left,921.1650000652298,true,high,NA,NA,NA,NA,NA,NA,NA,false
uPhOU5H9,3o2y2uiudt7n7g4dfo9bupx2ocrfkv,3peijlry6x6xpmn9vy32drnv1lzwx7,uPhOU5H9,2020-0188,2020-05-21,15:02:12,15:21:35,NA,incomplete,70,shape,0,left,Purple_Triangle_Chess_2.jpg,Blue_Triangle_Stripes_3.jpg,Green_Plus_Chess_1.jpg,right,1250.720000010915,false,high,NA,NA,NA,NA,NA,NA,NA,false
uPhOU5H9,3o2y2uiudt7n7g4dfo9bupx2ocrfkv,3peijlry6x6xpmn9vy32drnv1lzwx7,uPhOU5H9,2020-0188,2020-05-21,15:02:12,15:21:35,NA,incomplete,71,shape,1,left,Green_Triangle_Stripes_2.jpg,Red_Triangle_Chess_4.jpg,Purple_Plus_Stripes_1.jpg,right,1038.8249999377877,false,high,NA,NA,NA,NA,NA,NA,NA,false
uPhOU5H9,3o2y2uiudt7n7g4dfo9bupx2ocrfkv,3peijlry6x6xpmn9vy32drnv1lzwx7,uPhOU5H9,2020-0188,2020-05-21,15:02:12,15:21:35,NA,incomplete,72,shape,1,left,Green_Plus_Grid_2.jpg,Purple_Plus_Chess_1.jpg,Blue_Circle_Grid_4.jpg,right,1004.5099999988452,false,high,NA,NA,NA,NA,NA,NA,NA,false
uPhOU5H9,3o2y2uiudt7n7g4dfo9bupx2ocrfkv,3peijlry6x6xpmn9vy32drnv1lzwx7,uPhOU5H9,2020-0188,2020-05-21,15:02:12,15:21:35,NA,incomplete,73,shape,1,left,Red_Triangle_Chess_2.jpg,Purple_Triangle_Dots_4.jpg,Blue_Star_Chess_1.jpg,left,740.1799999643117,true,high,NA,NA,NA,NA,NA,NA,NA,false
uPhOU5H9,3o2y2uiudt7n7g4dfo9bupx2ocrfkv,3peijlry6x6xpmn9vy32drnv1lzwx7,uPhOU5H9,2020-0188,2020-05-21,15:02:12,15:21:35,NA,incomplete,74,shape,1,left,Blue_Circle_Grid_4.jpg,Purple_Circle_Stripes_3.jpg,Green_Star_Grid_1.jpg,left,1003.4500000765547,true,high,NA,NA,NA,NA,NA,NA,NA,false
uPhOU5H9,3o2y2uiudt7n7g4dfo9bupx2ocrfkv,3peijlry6x6xpmn9vy32drnv1lzwx7,uPhOU5H9,2020-0188,2020-05-21,15:02:12,15:21:35,NA,incomplete,75,shape,1,right,Red_Star_Dots_3.jpg,Green_Plus_Dots_2.jpg,Blue_Star_Grid_4.jpg,right,936.5550000220537,true,high,NA,NA,NA,NA,NA,NA,NA,false
uPhOU5H9,3o2y2uiudt7n7g4dfo9bupx2ocrfkv,3peijlry6x6xpmn9vy32drnv1lzwx7,uPhOU5H9,2020-0188,2020-05-21,15:02:12,15:21:35,NA,incomplete,76,shape,1,right,Purple_Triangle_Grid_3.jpg,Blue_Plus_Grid_4.jpg,Red_Triangle_Dots_1.jpg,right,701.4099999796599,true,high,NA,NA,NA,NA,NA,NA,NA,false
uPhOU5H9,3o2y2uiudt7n7g4dfo9bupx2ocrfkv,3peijlry6x6xpmn9vy32drnv1lzwx7,uPhOU5H9,2020-0188,2020-05-21,15:02:12,15:21:35,NA,incomplete,77,shape,1,right,Red_Triangle_Chess_1.jpg,Purple_Plus_Chess_3.jpg,Blue_Triangle_Dots_4.jpg,right,712.3350000474602,true,high,NA,NA,NA,NA,NA,NA,NA,false
uPhOU5H9,3o2y2uiudt7n7g4dfo9bupx2ocrfkv,3peijlry6x6xpmn9vy32drnv1lzwx7,uPhOU5H9,2020-0188,2020-05-21,15:02:12,15:21:35,NA,incomplete,78,shape,1,left,Red_Plus_Dots_3.jpg,Blue_Plus_Grid_1.jpg,Green_Circle_Dots_2.jpg,left,690.9699999960139,true,high,NA,NA,NA,NA,NA,NA,NA,false
uPhOU5H9,3o2y2uiudt7n7g4dfo9bupx2ocrfkv,3peijlry6x6xpmn9vy32drnv1lzwx7,uPhOU5H9,2020-0188,2020-05-21,15:02:12,15:21:35,NA,incomplete,79,shape,1,right,Red_Circle_Dots_3.jpg,Blue_Plus_Dots_1.jpg,Green_Circle_Grid_2.jpg,right,556.9700000341982,true,high,NA,NA,NA,NA,NA,NA,NA,false
uPhOU5H9,3o2y2uiudt7n7g4dfo9bupx2ocrfkv,3peijlry6x6xpmn9vy32drnv1lzwx7,uPhOU5H9,2020-0188,2020-05-21,15:02:12,15:21:35,NA,incomplete,80,filling,1,left,Purple_Star_Dots_3.jpg,Blue_Circle_Dots_4.jpg,Red_Star_Grid_1.jpg,right,729.9650000641122,false,high,NA,NA,NA,NA,NA,NA,NA,false
uPhOU5H9,3o2y2uiudt7n7g4dfo9bupx2ocrfkv,3peijlry6x6xpmn9vy32drnv1lzwx7,uPhOU5H9,2020-0188,2020-05-21,15:02:12,15:21:35,NA,incomplete,81,filling,0,right,Blue_Plus_Dots_2.jpg,Red_Plus_Stripes_4.jpg,Green_Circle_Dots_1.jpg,left,848.6000000266358,false,high,NA,NA,NA,NA,NA,NA,NA,false
uPhOU5H9,3o2y2uiudt7n7g4dfo9bupx2ocrfkv,3peijlry6x6xpmn9vy32drnv1lzwx7,uPhOU5H9,2020-0188,2020-05-21,15:02:12,15:21:35,NA,incomplete,82,filling,1,right,Red_Plus_Chess_2.jpg,Green_Plus_Stripes_4.jpg,Blue_Star_Chess_3.jpg,left,937.2749999165535,false,high,NA,NA,NA,NA,NA,NA,NA,false
uPhOU5H9,3o2y2uiudt7n7g4dfo9bupx2ocrfkv,3peijlry6x6xpmn9vy32drnv1lzwx7,uPhOU5H9,2020-0188,2020-05-21,15:02:12,15:21:35,NA,incomplete,83,filling,1,right,Blue_Circle_Stripes_3.jpg,Purple_Circle_Dots_4.jpg,Red_Star_Stripes_2.jpg,right,1022.9250000556931,true,high,NA,NA,NA,NA,NA,NA,NA,false
uPhOU5H9,3o2y2uiudt7n7g4dfo9bupx2ocrfkv,3peijlry6x6xpmn9vy32drnv1lzwx7,uPhOU5H9,2020-0188,2020-05-21,15:02:12,15:21:35,NA,incomplete,84,filling,1,right,Blue_Star_Dots_4.jpg,Red_Star_Stripes_3.jpg,Purple_Triangle_Dots_2.jpg,right,1029.4050000375137,true,high,NA,NA,NA,NA,NA,NA,NA,false
uPhOU5H9,3o2y2uiudt7n7g4dfo9bupx2ocrfkv,3peijlry6x6xpmn9vy32drnv1lzwx7,uPhOU5H9,2020-0188,2020-05-21,15:02:12,15:21:35,NA,incomplete,85,filling,1,right,Red_Circle_Grid_1.jpg,Blue_Circle_Chess_2.jpg,Purple_Triangle_Grid_3.jpg,right,1133.960000006482,true,high,NA,NA,NA,NA,NA,NA,NA,false
uPhOU5H9,3o2y2uiudt7n7g4dfo9bupx2ocrfkv,3peijlry6x6xpmn9vy32drnv1lzwx7,uPhOU5H9,2020-0188,2020-05-21,15:02:12,15:21:35,NA,incomplete,86,filling,0,right,Green_Circle_Grid_2.jpg,Purple_Circle_Dots_3.jpg,Blue_Plus_Grid_4.jpg,right,1163.9950000680983,true,high,NA,NA,NA,NA,NA,NA,NA,false
uPhOU5H9,3o2y2uiudt7n7g4dfo9bupx2ocrfkv,3peijlry6x6xpmn9vy32drnv1lzwx7,uPhOU5H9,2020-0188,2020-05-21,15:02:12,15:21:35,NA,incomplete,87,filling,0,left,Green_Circle_Stripes_2.jpg,Purple_Triangle_Stripes_3.jpg,Red_Circle_Dots_1.jpg,left,992.8300000028685,true,high,NA,NA,NA,NA,NA,NA,NA,false
uPhOU5H9,3o2y2uiudt7n7g4dfo9bupx2ocrfkv,3peijlry6x6xpmn9vy32drnv1lzwx7,uPhOU5H9,2020-0188,2020-05-21,15:02:12,15:21:35,NA,incomplete,88,filling,1,right,Red_Circle_Dots_3.jpg,Green_Circle_Chess_4.jpg,Blue_Plus_Dots_2.jpg,right,1259.4800000078976,true,high,NA,NA,NA,NA,NA,NA,NA,false
uPhOU5H9,3o2y2uiudt7n7g4dfo9bupx2ocrfkv,3peijlry6x6xpmn9vy32drnv1lzwx7,uPhOU5H9,2020-0188,2020-05-21,15:02:12,15:21:35,NA,incomplete,89,filling,0,right,Red_Circle_Grid_4.jpg,Purple_Circle_Dots_1.jpg,Blue_Star_Grid_2.jpg,right,1067.339999950491,true,high,NA,NA,NA,NA,NA,NA,NA,false
uPhOU5H9,3o2y2uiudt7n7g4dfo9bupx2ocrfkv,3peijlry6x6xpmn9vy32drnv1lzwx7,uPhOU5H9,2020-0188,2020-05-21,15:02:12,15:21:35,NA,incomplete,90,shape,1,right,Blue_Star_Stripes_1.jpg,Red_Circle_Stripes_4.jpg,Purple_Star_Grid_2.jpg,right,1627.5450000539422,true,high,NA,NA,NA,NA,NA,NA,NA,false
uPhOU5H9,3o2y2uiudt7n7g4dfo9bupx2ocrfkv,3peijlry6x6xpmn9vy32drnv1lzwx7,uPhOU5H9,2020-0188,2020-05-21,15:02:12,15:21:35,NA,incomplete,91,shape,1,right,Green_Triangle_Grid_2.jpg,Blue_Star_Grid_1.jpg,Red_Triangle_Dots_3.jpg,right,939.4399999873713,true,high,NA,NA,NA,NA,NA,NA,NA,false
uPhOU5H9,3o2y2uiudt7n7g4dfo9bupx2ocrfkv,3peijlry6x6xpmn9vy32drnv1lzwx7,uPhOU5H9,2020-0188,2020-05-21,15:02:12,15:21:35,NA,incomplete,92,shape,1,left,Purple_Triangle_Chess_4.jpg,Green_Triangle_Stripes_1.jpg,Red_Star_Chess_2.jpg,left,1180.1200000336394,true,high,NA,NA,NA,NA,NA,NA,NA,false
uPhOU5H9,3o2y2uiudt7n7g4dfo9bupx2ocrfkv,3peijlry6x6xpmn9vy32drnv1lzwx7,uPhOU5H9,2020-0188,2020-05-21,15:02:12,15:21:35,NA,incomplete,93,shape,1,left,Green_Plus_Stripes_1.jpg,Blue_Plus_Grid_3.jpg,Purple_Triangle_Stripes_2.jpg,left,947.9099999880418,true,high,NA,NA,NA,NA,NA,NA,NA,false
uPhOU5H9,3o2y2uiudt7n7g4dfo9bupx2ocrfkv,3peijlry6x6xpmn9vy32drnv1lzwx7,uPhOU5H9,2020-0188,2020-05-21,15:02:12,15:21:35,NA,incomplete,94,shape,1,left,Green_Triangle_Chess_2.jpg,Red_Triangle_Grid_1.jpg,Purple_Star_Chess_4.jpg,left,975.2899999730289,true,high,NA,NA,NA,NA,NA,NA,NA,false
uPhOU5H9,3o2y2uiudt7n7g4dfo9bupx2ocrfkv,3peijlry6x6xpmn9vy32drnv1lzwx7,uPhOU5H9,2020-0188,2020-05-21,15:02:12,15:21:35,NA,incomplete,95,shape,0,right,Green_Plus_Chess_4.jpg,Blue_Triangle_Chess_3.jpg,Purple_Plus_Dots_2.jpg,right,800.1249999506399,true,high,NA,NA,NA,NA,NA,NA,NA,false
uPhOU5H9,3o2y2uiudt7n7g4dfo9bupx2ocrfkv,3peijlry6x6xpmn9vy32drnv1lzwx7,uPhOU5H9,2020-0188,2020-05-21,15:02:12,15:21:35,NA,incomplete,96,shape,1,right,Green_Triangle_Chess_4.jpg,Purple_Plus_Chess_2.jpg,Blue_Triangle_Stripes_1.jpg,right,753.069999977015,true,high,NA,NA,NA,NA,NA,NA,NA,false
uPhOU5H9,3o2y2uiudt7n7g4dfo9bupx2ocrfkv,3peijlry6x6xpmn9vy32drnv1lzwx7,uPhOU5H9,2020-0188,2020-05-21,15:02:12,15:21:35,NA,incomplete,97,shape,1,right,Blue_Plus_Dots_2.jpg,Purple_Circle_Dots_1.jpg,Red_Plus_Stripes_4.jpg,right,726.825000019744,true,high,NA,NA,NA,NA,NA,NA,NA,false
uPhOU5H9,3o2y2uiudt7n7g4dfo9bupx2ocrfkv,3peijlry6x6xpmn9vy32drnv1lzwx7,uPhOU5H9,2020-0188,2020-05-21,15:02:12,15:21:35,NA,incomplete,98,shape,1,left,Green_Triangle_Grid_3.jpg,Blue_Triangle_Chess_4.jpg,Purple_Star_Grid_2.jpg,left,768.6799999792129,true,high,NA,NA,NA,NA,NA,NA,NA,false
uPhOU5H9,3o2y2uiudt7n7g4dfo9bupx2ocrfkv,3peijlry6x6xpmn9vy32drnv1lzwx7,uPhOU5H9,2020-0188,2020-05-21,15:02:12,15:21:35,NA,incomplete,99,shape,1,left,Purple_Plus_Grid_3.jpg,Green_Plus_Stripes_2.jpg,Blue_Star_Grid_1.jpg,left,913.4450000710785,true,high,NA,NA,NA,NA,NA,NA,NA,false
uPhOU5H9,3o2y2uiudt7n7g4dfo9bupx2ocrfkv,3peijlry6x6xpmn9vy32drnv1lzwx7,uPhOU5H9,2020-0188,2020-05-21,15:02:12,15:21:35,NA,incomplete,100,filling,1,right,Red_Triangle_Stripes_4.jpg,Green_Triangle_Chess_2.jpg,Purple_Star_Stripes_1.jpg,left,742.9050001082942,false,high,NA,NA,NA,NA,NA,NA,NA,false
uPhOU5H9,3o2y2uiudt7n7g4dfo9bupx2ocrfkv,3peijlry6x6xpmn9vy32drnv1lzwx7,uPhOU5H9,2020-0188,2020-05-21,15:02:12,15:21:35,NA,incomplete,101,filling,1,left,Red_Plus_Dots_3.jpg,Green_Star_Dots_4.jpg,Blue_Plus_Grid_1.jpg,right,744.4250000407919,false,high,NA,NA,NA,NA,NA,NA,NA,false
uPhOU5H9,3o2y2uiudt7n7g4dfo9bupx2ocrfkv,3peijlry6x6xpmn9vy32drnv1lzwx7,uPhOU5H9,2020-0188,2020-05-21,15:02:12,15:21:35,NA,incomplete,102,filling,1,right,Green_Plus_Grid_1.jpg,Purple_Plus_Dots_4.jpg,Blue_Circle_Grid_2.jpg,right,860.4449999984354,true,high,NA,NA,NA,NA,NA,NA,NA,false
uPhOU5H9,3o2y2uiudt7n7g4dfo9bupx2ocrfkv,3peijlry6x6xpmn9vy32drnv1lzwx7,uPhOU5H9,2020-0188,2020-05-21,15:02:12,15:21:35,NA,incomplete,103,filling,1,right,Blue_Plus_Stripes_1.jpg,Purple_Plus_Grid_4.jpg,Red_Star_Stripes_3.jpg,left,1018.1650000158697,false,high,NA,NA,NA,NA,NA,NA,NA,false
uPhOU5H9,3o2y2uiudt7n7g4dfo9bupx2ocrfkv,3peijlry6x6xpmn9vy32drnv1lzwx7,uPhOU5H9,2020-0188,2020-05-21,15:02:12,15:21:35,NA,incomplete,104,filling,1,right,Purple_Star_Chess_3.jpg,Green_Star_Grid_4.jpg,Blue_Circle_Chess_1.jpg,right,832.5150000164285,true,high,NA,NA,NA,NA,NA,NA,NA,false
uPhOU5H9,3o2y2uiudt7n7g4dfo9bupx2ocrfkv,3peijlry6x6xpmn9vy32drnv1lzwx7,uPhOU5H9,2020-0188,2020-05-21,15:02:12,15:21:35,NA,incomplete,105,filling,1,right,Purple_Plus_Stripes_4.jpg,Red_Plus_Dots_1.jpg,Blue_Circle_Stripes_2.jpg,right,1450.330000021495,true,high,NA,NA,NA,NA,NA,NA,NA,false
uPhOU5H9,3o2y2uiudt7n7g4dfo9bupx2ocrfkv,3peijlry6x6xpmn9vy32drnv1lzwx7,uPhOU5H9,2020-0188,2020-05-21,15:02:12,15:21:35,NA,incomplete,106,filling,1,right,Red_Circle_Chess_3.jpg,Green_Circle_Dots_1.jpg,Blue_Plus_Chess_2.jpg,none,0,false,high,NA,NA,NA,NA,NA,NA,NA,false
uPhOU5H9,3o2y2uiudt7n7g4dfo9bupx2ocrfkv,3peijlry6x6xpmn9vy32drnv1lzwx7,uPhOU5H9,2020-0188,2020-05-21,15:02:12,15:21:35,NA,incomplete,107,filling,0,left,Blue_Star_Chess_2.jpg,Green_Circle_Chess_1.jpg,Purple_Star_Stripes_3.jpg,right,859.5450000138953,false,high,NA,NA,NA,NA,NA,NA,NA,false
uPhOU5H9,3o2y2uiudt7n7g4dfo9bupx2ocrfkv,3peijlry6x6xpmn9vy32drnv1lzwx7,uPhOU5H9,2020-0188,2020-05-21,15:02:12,15:21:35,NA,incomplete,108,filling,1,left,Blue_Circle_Grid_3.jpg,Purple_Triangle_Grid_4.jpg,Red_Circle_Stripes_1.jpg,right,642.6200000569224,false,high,NA,NA,NA,NA,NA,NA,NA,false
uPhOU5H9,3o2y2uiudt7n7g4dfo9bupx2ocrfkv,3peijlry6x6xpmn9vy32drnv1lzwx7,uPhOU5H9,2020-0188,2020-05-21,15:02:12,15:21:35,NA,incomplete,109,filling,1,right,Red_Triangle_Stripes_2.jpg,Green_Triangle_Grid_4.jpg,Purple_Circle_Stripes_3.jpg,right,907.0000000065193,true,high,NA,NA,NA,NA,NA,NA,NA,false
uPhOU5H9,3o2y2uiudt7n7g4dfo9bupx2ocrfkv,3peijlry6x6xpmn9vy32drnv1lzwx7,uPhOU5H9,2020-0188,2020-05-21,15:02:12,15:21:35,NA,incomplete,110,shape,1,left,Purple_Plus_Grid_4.jpg,Red_Plus_Dots_3.jpg,Blue_Star_Grid_2.jpg,right,1091.245000017807,false,high,NA,NA,NA,NA,NA,NA,NA,false
uPhOU5H9,3o2y2uiudt7n7g4dfo9bupx2ocrfkv,3peijlry6x6xpmn9vy32drnv1lzwx7,uPhOU5H9,2020-0188,2020-05-21,15:02:12,15:21:35,NA,incomplete,111,shape,1,right,Red_Star_Chess_2.jpg,Blue_Plus_Chess_3.jpg,Green_Star_Dots_4.jpg,left,1031.760000041686,false,high,NA,NA,NA,NA,NA,NA,NA,false
uPhOU5H9,3o2y2uiudt7n7g4dfo9bupx2ocrfkv,3peijlry6x6xpmn9vy32drnv1lzwx7,uPhOU5H9,2020-0188,2020-05-21,15:02:12,15:21:35,NA,incomplete,112,shape,1,left,Green_Plus_Dots_2.jpg,Purple_Plus_Stripes_3.jpg,Red_Star_Dots_1.jpg,right,919.1049999790266,false,high,NA,NA,NA,NA,NA,NA,NA,false
uPhOU5H9,3o2y2uiudt7n7g4dfo9bupx2ocrfkv,3peijlry6x6xpmn9vy32drnv1lzwx7,uPhOU5H9,2020-0188,2020-05-21,15:02:12,15:21:35,NA,incomplete,113,shape,1,right,Red_Plus_Stripes_4.jpg,Blue_Triangle_Stripes_3.jpg,Green_Plus_Dots_1.jpg,right,861.6699998965487,true,high,NA,NA,NA,NA,NA,NA,NA,false
uPhOU5H9,3o2y2uiudt7n7g4dfo9bupx2ocrfkv,3peijlry6x6xpmn9vy32drnv1lzwx7,uPhOU5H9,2020-0188,2020-05-21,15:02:12,15:21:35,NA,incomplete,114,shape,0,right,Blue_Plus_Dots_4.jpg,Purple_Circle_Dots_1.jpg,Red_Plus_Stripes_3.jpg,right,821.4750000042841,true,high,NA,NA,NA,NA,NA,NA,NA,false
uPhOU5H9,3o2y2uiudt7n7g4dfo9bupx2ocrfkv,3peijlry6x6xpmn9vy32drnv1lzwx7,uPhOU5H9,2020-0188,2020-05-21,15:02:12,15:21:35,NA,incomplete,115,shape,1,left,Red_Circle_Stripes_4.jpg,Green_Circle_Chess_2.jpg,Blue_Star_Stripes_3.jpg,left,1028.855000040494,true,high,NA,NA,NA,NA,NA,NA,NA,false
uPhOU5H9,3o2y2uiudt7n7g4dfo9bupx2ocrfkv,3peijlry6x6xpmn9vy32drnv1lzwx7,uPhOU5H9,2020-0188,2020-05-21,15:02:12,15:21:35,NA,incomplete,116,shape,1,left,Blue_Triangle_Dots_1.jpg,Purple_Triangle_Stripes_4.jpg,Red_Circle_Dots_2.jpg,left,968.7649999978021,true,high,NA,NA,NA,NA,NA,NA,NA,false
uPhOU5H9,3o2y2uiudt7n7g4dfo9bupx2ocrfkv,3peijlry6x6xpmn9vy32drnv1lzwx7,uPhOU5H9,2020-0188,2020-05-21,15:02:12,15:21:35,NA,incomplete,117,shape,1,right,Purple_Circle_Chess_2.jpg,Red_Triangle_Chess_3.jpg,Green_Circle_Dots_1.jpg,right,683.6749999783933,true,high,NA,NA,NA,NA,NA,NA,NA,false
uPhOU5H9,3o2y2uiudt7n7g4dfo9bupx2ocrfkv,3peijlry6x6xpmn9vy32drnv1lzwx7,uPhOU5H9,2020-0188,2020-05-21,15:02:12,15:21:35,NA,incomplete,118,shape,0,left,Purple_Plus_Dots_3.jpg,Blue_Plus_Chess_1.jpg,Red_Star_Dots_2.jpg,left,749.6899999678135,true,high,NA,NA,NA,NA,NA,NA,NA,false
uPhOU5H9,3o2y2uiudt7n7g4dfo9bupx2ocrfkv,3peijlry6x6xpmn9vy32drnv1lzwx7,uPhOU5H9,2020-0188,2020-05-21,15:02:12,15:21:35,NA,incomplete,119,shape,1,right,Green_Plus_Chess_2.jpg,Purple_Triangle_Chess_1.jpg,Blue_Plus_Grid_4.jpg,right,813.300000037998,true,high,NA,NA,NA,NA,NA,NA,NA,false
uPhOU5H9,3o2y2uiudt7n7g4dfo9bupx2ocrfkv,3peijlry6x6xpmn9vy32drnv1lzwx7,uPhOU5H9,2020-0188,2020-05-21,15:02:12,15:21:35,NA,incomplete,120,color,1,left,Green_Triangle_Chess_3.jpg,Green_Plus_Stripes_1.jpg,Purple_Star_Grid_3.jpg,NA,NA,NA,high,NA,NA,NA,NA,NA,NA,NA,false
uPhOU5H9,3o2y2uiudt7n7g4dfo9bupx2ocrfkv,3peijlry6x6xpmn9vy32drnv1lzwx7,uPhOU5H9,2020-0188,2020-05-21,15:02:12,15:21:35,NA,incomplete,121,color,1,right,Blue_Star_Grid_4.jpg,Red_Plus_Stripes_4.jpg,Blue_Triangle_Dots_2.jpg,right,891.7349999537691,true,high,NA,NA,NA,NA,NA,NA,NA,false
uPhOU5H9,3o2y2uiudt7n7g4dfo9bupx2ocrfkv,3peijlry6x6xpmn9vy32drnv1lzwx7,uPhOU5H9,2020-0188,2020-05-21,15:02:12,15:21:35,NA,incomplete,122,color,1,right,Purple_Star_Chess_3.jpg,Red_Circle_Grid_3.jpg,Purple_Plus_Dots_1.jpg,right,568.7600000528619,true,high,NA,NA,NA,NA,NA,NA,NA,false
uPhOU5H9,3o2y2uiudt7n7g4dfo9bupx2ocrfkv,3peijlry6x6xpmn9vy32drnv1lzwx7,uPhOU5H9,2020-0188,2020-05-21,15:02:12,15:21:35,NA,incomplete,123,color,1,right,Red_Circle_Chess_1.jpg,Purple_Plus_Dots_1.jpg,Red_Star_Grid_4.jpg,right,533.255000016652,true,high,NA,NA,NA,NA,NA,NA,NA,false
uPhOU5H9,3o2y2uiudt7n7g4dfo9bupx2ocrfkv,3peijlry6x6xpmn9vy32drnv1lzwx7,uPhOU5H9,2020-0188,2020-05-21,15:02:12,15:21:35,NA,incomplete,124,color,1,right,Blue_Plus_Chess_4.jpg,Red_Star_Grid_4.jpg,Blue_Circle_Stripes_2.jpg,right,527.2400000831112,true,high,NA,NA,NA,NA,NA,NA,NA,false
uPhOU5H9,3o2y2uiudt7n7g4dfo9bupx2ocrfkv,3peijlry6x6xpmn9vy32drnv1lzwx7,uPhOU5H9,2020-0188,2020-05-21,15:02:12,15:21:35,NA,incomplete,125,color,1,left,Blue_Triangle_Grid_4.jpg,Blue_Circle_Dots_1.jpg,Red_Plus_Stripes_4.jpg,right,444.9350000359118,false,high,NA,NA,NA,NA,NA,NA,NA,false
uPhOU5H9,3o2y2uiudt7n7g4dfo9bupx2ocrfkv,3peijlry6x6xpmn9vy32drnv1lzwx7,uPhOU5H9,2020-0188,2020-05-21,15:02:12,15:21:35,NA,incomplete,126,color,1,left,Red_Star_Grid_3.jpg,Red_Circle_Dots_2.jpg,Blue_Plus_Stripes_3.jpg,left,797.9850000701845,true,high,NA,NA,NA,NA,NA,NA,NA,false
uPhOU5H9,3o2y2uiudt7n7g4dfo9bupx2ocrfkv,3peijlry6x6xpmn9vy32drnv1lzwx7,uPhOU5H9,2020-0188,2020-05-21,15:02:12,15:21:35,NA,incomplete,127,color,1,left,Green_Plus_Stripes_4.jpg,Green_Triangle_Chess_3.jpg,Red_Star_Grid_4.jpg,left,574.2600000230595,true,high,NA,NA,NA,NA,NA,NA,NA,false
uPhOU5H9,3o2y2uiudt7n7g4dfo9bupx2ocrfkv,3peijlry6x6xpmn9vy32drnv1lzwx7,uPhOU5H9,2020-0188,2020-05-21,15:02:12,15:21:35,NA,incomplete,128,color,1,left,Red_Star_Dots_1.jpg,Red_Plus_Chess_3.jpg,Blue_Circle_Stripes_1.jpg,left,549.9050000216812,true,high,NA,NA,NA,NA,NA,NA,NA,false
uPhOU5H9,3o2y2uiudt7n7g4dfo9bupx2ocrfkv,3peijlry6x6xpmn9vy32drnv1lzwx7,uPhOU5H9,2020-0188,2020-05-21,15:02:12,15:21:35,NA,incomplete,129,color,0,right,Red_Circle_Dots_4.jpg,Purple_Star_Grid_4.jpg,Red_Triangle_Stripes_1.jpg,right,540.2950000716373,true,high,NA,NA,NA,NA,NA,NA,NA,false
uPhOU5H9,3o2y2uiudt7n7g4dfo9bupx2ocrfkv,3peijlry6x6xpmn9vy32drnv1lzwx7,uPhOU5H9,2020-0188,2020-05-21,15:02:12,15:21:35,NA,incomplete,130,color,1,left,Red_Circle_Chess_4.jpg,Red_Star_Dots_3.jpg,Green_Triangle_Grid_4.jpg,right,753.2499999506399,false,high,NA,NA,NA,NA,NA,NA,NA,false
uPhOU5H9,3o2y2uiudt7n7g4dfo9bupx2ocrfkv,3peijlry6x6xpmn9vy32drnv1lzwx7,uPhOU5H9,2020-0188,2020-05-21,15:02:12,15:21:35,NA,incomplete,131,color,1,right,Green_Star_Chess_3.jpg,Red_Circle_Dots_3.jpg,Green_Plus_Stripes_4.jpg,right,627.8699999675155,true,high,NA,NA,NA,NA,NA,NA,NA,false
uPhOU5H9,3o2y2uiudt7n7g4dfo9bupx2ocrfkv,3peijlry6x6xpmn9vy32drnv1lzwx7,uPhOU5H9,2020-0188,2020-05-21,15:02:12,15:21:35,NA,incomplete,132,color,1,left,Purple_Plus_Dots_3.jpg,Purple_Triangle_Stripes_1.jpg,Blue_Circle_Grid_3.jpg,left,721.4300000341609,true,high,NA,NA,NA,NA,NA,NA,NA,false
uPhOU5H9,3o2y2uiudt7n7g4dfo9bupx2ocrfkv,3peijlry6x6xpmn9vy32drnv1lzwx7,uPhOU5H9,2020-0188,2020-05-21,15:02:12,15:21:35,NA,incomplete,133,color,1,right,Purple_Star_Dots_2.jpg,Green_Circle_Chess_2.jpg,Purple_Plus_Grid_3.jpg,right,572.054999996908,true,high,NA,NA,NA,NA,NA,NA,NA,false
uPhOU5H9,3o2y2uiudt7n7g4dfo9bupx2ocrfkv,3peijlry6x6xpmn9vy32drnv1lzwx7,uPhOU5H9,2020-0188,2020-05-21,15:02:12,15:21:35,NA,incomplete,134,color,0,right,Blue_Circle_Grid_1.jpg,Purple_Plus_Stripes_1.jpg,Blue_Star_Dots_2.jpg,right,506.7000000271946,true,high,NA,NA,NA,NA,NA,NA,NA,false
uPhOU5H9,3o2y2uiudt7n7g4dfo9bupx2ocrfkv,3peijlry6x6xpmn9vy32drnv1lzwx7,uPhOU5H9,2020-0188,2020-05-21,15:02:12,15:21:35,NA,incomplete,135,color,1,left,Red_Circle_Chess_4.jpg,Red_Plus_Dots_3.jpg,Green_Star_Grid_4.jpg,left,800.3250000765547,true,high,NA,NA,NA,NA,NA,NA,NA,false
uPhOU5H9,3o2y2uiudt7n7g4dfo9bupx2ocrfkv,3peijlry6x6xpmn9vy32drnv1lzwx7,uPhOU5H9,2020-0188,2020-05-21,15:02:12,15:21:35,NA,incomplete,136,color,0,left,Green_Star_Chess_2.jpg,Green_Plus_Dots_4.jpg,Purple_Circle_Grid_2.jpg,left,540.5650000320747,true,high,NA,NA,NA,NA,NA,NA,NA,false
uPhOU5H9,3o2y2uiudt7n7g4dfo9bupx2ocrfkv,3peijlry6x6xpmn9vy32drnv1lzwx7,uPhOU5H9,2020-0188,2020-05-21,15:02:12,15:21:35,NA,incomplete,137,color,1,right,Purple_Star_Chess_1.jpg,Blue_Plus_Grid_1.jpg,Purple_Triangle_Stripes_4.jpg,right,493.3200000086799,true,high,NA,NA,NA,NA,NA,NA,NA,false
uPhOU5H9,3o2y2uiudt7n7g4dfo9bupx2ocrfkv,3peijlry6x6xpmn9vy32drnv1lzwx7,uPhOU5H9,2020-0188,2020-05-21,15:02:12,15:21:35,NA,incomplete,138,color,0,right,Red_Triangle_Chess_3.jpg,Green_Plus_Dots_3.jpg,Red_Circle_Grid_4.jpg,right,502.41499999538064,true,high,NA,NA,NA,NA,NA,NA,NA,false
uPhOU5H9,3o2y2uiudt7n7g4dfo9bupx2ocrfkv,3peijlry6x6xpmn9vy32drnv1lzwx7,uPhOU5H9,2020-0188,2020-05-21,15:02:12,15:21:35,NA,incomplete,139,color,1,left,Red_Plus_Stripes_2.jpg,Red_Star_Chess_1.jpg,Green_Circle_Dots_2.jpg,left,489.56499993801117,true,high,NA,NA,NA,NA,NA,NA,NA,false
uPhOU5H9,3o2y2uiudt7n7g4dfo9bupx2ocrfkv,3peijlry6x6xpmn9vy32drnv1lzwx7,uPhOU5H9,2020-0188,2020-05-21,15:02:12,15:21:35,NA,incomplete,140,number,1,right,Green_Circle_Dots_3.jpg,Green_Plus_Chess_4.jpg,Blue_Star_Stripes_3.jpg,left,489.84999989625067,false,high,NA,NA,NA,NA,NA,NA,NA,false
uPhOU5H9,3o2y2uiudt7n7g4dfo9bupx2ocrfkv,3peijlry6x6xpmn9vy32drnv1lzwx7,uPhOU5H9,2020-0188,2020-05-21,15:02:12,15:21:35,NA,incomplete,141,number,1,left,Blue_Star_Stripes_2.jpg,Red_Triangle_Dots_2.jpg,Blue_Plus_Grid_3.jpg,right,504.369999980554,false,high,NA,NA,NA,NA,NA,NA,NA,false
uPhOU5H9,3o2y2uiudt7n7g4dfo9bupx2ocrfkv,3peijlry6x6xpmn9vy32drnv1lzwx7,uPhOU5H9,2020-0188,2020-05-21,15:02:12,15:21:35,NA,incomplete,142,number,1,right,Purple_Triangle_Stripes_4.jpg,Purple_Star_Dots_1.jpg,Green_Circle_Chess_4.jpg,right,840.0499999988824,true,high,NA,NA,NA,NA,NA,NA,NA,false
uPhOU5H9,3o2y2uiudt7n7g4dfo9bupx2ocrfkv,3peijlry6x6xpmn9vy32drnv1lzwx7,uPhOU5H9,2020-0188,2020-05-21,15:02:12,15:21:35,NA,incomplete,143,number,0,left,Purple_Triangle_Grid_3.jpg,Green_Star_Dots_3.jpg,Purple_Circle_Stripes_4.jpg,left,663.1999999517575,true,high,NA,NA,NA,NA,NA,NA,NA,false
uPhOU5H9,3o2y2uiudt7n7g4dfo9bupx2ocrfkv,3peijlry6x6xpmn9vy32drnv1lzwx7,uPhOU5H9,2020-0188,2020-05-21,15:02:12,15:21:35,NA,incomplete,144,number,1,left,Blue_Circle_Stripes_1.jpg,Red_Triangle_Chess_1.jpg,Blue_Plus_Grid_3.jpg,left,624.5849999831989,true,high,NA,NA,NA,NA,NA,NA,NA,false
uPhOU5H9,3o2y2uiudt7n7g4dfo9bupx2ocrfkv,3peijlry6x6xpmn9vy32drnv1lzwx7,uPhOU5H9,2020-0188,2020-05-21,15:02:12,15:21:35,NA,incomplete,145,number,1,left,Green_Triangle_Grid_1.jpg,Blue_Circle_Dots_1.jpg,Green_Plus_Stripes_3.jpg,left,717.4400000367314,true,high,NA,NA,NA,NA,NA,NA,NA,false
uPhOU5H9,3o2y2uiudt7n7g4dfo9bupx2ocrfkv,3peijlry6x6xpmn9vy32drnv1lzwx7,uPhOU5H9,2020-0188,2020-05-21,15:02:12,15:21:35,NA,incomplete,146,number,0,left,Red_Plus_Stripes_2.jpg,Purple_Circle_Chess_2.jpg,Red_Star_Dots_4.jpg,left,898.0349999619648,true,high,NA,NA,NA,NA,NA,NA,NA,false
uPhOU5H9,3o2y2uiudt7n7g4dfo9bupx2ocrfkv,3peijlry6x6xpmn9vy32drnv1lzwx7,uPhOU5H9,2020-0188,2020-05-21,15:02:12,15:21:35,NA,incomplete,147,number,1,left,Green_Triangle_Grid_1.jpg,Blue_Circle_Stripes_1.jpg,Green_Plus_Dots_2.jpg,left,563.5800000745803,true,high,NA,NA,NA,NA,NA,NA,NA,false
uPhOU5H9,3o2y2uiudt7n7g4dfo9bupx2ocrfkv,3peijlry6x6xpmn9vy32drnv1lzwx7,uPhOU5H9,2020-0188,2020-05-21,15:02:12,15:21:35,NA,incomplete,148,number,1,right,Purple_Circle_Chess_2.jpg,Purple_Plus_Grid_1.jpg,Red_Triangle_Dots_2.jpg,right,693.5349999694154,true,high,NA,NA,NA,NA,NA,NA,NA,false
uPhOU5H9,3o2y2uiudt7n7g4dfo9bupx2ocrfkv,3peijlry6x6xpmn9vy32drnv1lzwx7,uPhOU5H9,2020-0188,2020-05-21,15:02:12,15:21:35,NA,incomplete,149,number,1,left,Blue_Triangle_Chess_2.jpg,Red_Star_Stripes_2.jpg,Blue_Plus_Dots_1.jpg,left,658.6949999909848,true,high,NA,NA,NA,NA,NA,NA,NA,false
uPhOU5H9,3o2y2uiudt7n7g4dfo9bupx2ocrfkv,3peijlry6x6xpmn9vy32drnv1lzwx7,uPhOU5H9,2020-0188,2020-05-21,15:02:12,15:21:35,NA,incomplete,150,number,1,left,Red_Plus_Stripes_3.jpg,Green_Star_Dots_3.jpg,Red_Triangle_Chess_4.jpg,left,805.7000000262633,true,high,NA,NA,NA,NA,NA,NA,NA,false
uPhOU5H9,3o2y2uiudt7n7g4dfo9bupx2ocrfkv,3peijlry6x6xpmn9vy32drnv1lzwx7,uPhOU5H9,2020-0188,2020-05-21,15:02:12,15:21:35,NA,incomplete,151,number,0,left,Green_Triangle_Grid_1.jpg,Purple_Circle_Stripes_1.jpg,Green_Plus_Dots_4.jpg,left,553.0149999540299,true,high,NA,NA,NA,NA,NA,NA,NA,false
uPhOU5H9,3o2y2uiudt7n7g4dfo9bupx2ocrfkv,3peijlry6x6xpmn9vy32drnv1lzwx7,uPhOU5H9,2020-0188,2020-05-21,15:02:12,15:21:35,NA,incomplete,152,number,1,right,Red_Plus_Grid_4.jpg,Red_Star_Chess_3.jpg,Purple_Circle_Stripes_4.jpg,right,925.9599999058992,true,high,NA,NA,NA,NA,NA,NA,NA,false
uPhOU5H9,3o2y2uiudt7n7g4dfo9bupx2ocrfkv,3peijlry6x6xpmn9vy32drnv1lzwx7,uPhOU5H9,2020-0188,2020-05-21,15:02:12,15:21:35,NA,incomplete,153,number,1,right,Purple_Triangle_Chess_3.jpg,Purple_Plus_Dots_1.jpg,Red_Circle_Grid_3.jpg,right,727.1849999669939,true,high,NA,NA,NA,NA,NA,NA,NA,false
uPhOU5H9,3o2y2uiudt7n7g4dfo9bupx2ocrfkv,3peijlry6x6xpmn9vy32drnv1lzwx7,uPhOU5H9,2020-0188,2020-05-21,15:02:12,15:21:35,NA,incomplete,154,number,1,left,Blue_Star_Chess_2.jpg,Purple_Plus_Grid_2.jpg,Blue_Triangle_Stripes_1.jpg,left,659.734999993816,true,high,NA,NA,NA,NA,NA,NA,NA,false
uPhOU5H9,3o2y2uiudt7n7g4dfo9bupx2ocrfkv,3peijlry6x6xpmn9vy32drnv1lzwx7,uPhOU5H9,2020-0188,2020-05-21,15:02:12,15:21:35,NA,incomplete,155,number,1,right,Green_Plus_Grid_3.jpg,Green_Triangle_Chess_2.jpg,Red_Star_Dots_3.jpg,right,718.6999999685213,true,high,NA,NA,NA,NA,NA,NA,NA,false
uPhOU5H9,3o2y2uiudt7n7g4dfo9bupx2ocrfkv,3peijlry6x6xpmn9vy32drnv1lzwx7,uPhOU5H9,2020-0188,2020-05-21,15:02:12,15:21:35,NA,incomplete,156,number,1,right,Blue_Star_Chess_1.jpg,Blue_Triangle_Grid_2.jpg,Purple_Circle_Stripes_1.jpg,right,587.3000000137836,true,high,NA,NA,NA,NA,NA,NA,NA,false
uPhOU5H9,3o2y2uiudt7n7g4dfo9bupx2ocrfkv,3peijlry6x6xpmn9vy32drnv1lzwx7,uPhOU5H9,2020-0188,2020-05-21,15:02:12,15:21:35,NA,incomplete,157,number,0,right,Red_Plus_Grid_2.jpg,Red_Circle_Stripes_3.jpg,Purple_Star_Chess_2.jpg,right,738.8900000369176,true,high,NA,NA,NA,NA,NA,NA,NA,false
uPhOU5H9,3o2y2uiudt7n7g4dfo9bupx2ocrfkv,3peijlry6x6xpmn9vy32drnv1lzwx7,uPhOU5H9,2020-0188,2020-05-21,15:02:12,15:21:35,NA,incomplete,158,number,1,left,Red_Circle_Grid_2.jpg,Purple_Triangle_Stripes_2.jpg,Red_Star_Dots_3.jpg,left,748.6650000791997,true,high,NA,NA,NA,NA,NA,NA,NA,false
uPhOU5H9,3o2y2uiudt7n7g4dfo9bupx2ocrfkv,3peijlry6x6xpmn9vy32drnv1lzwx7,uPhOU5H9,2020-0188,2020-05-21,15:02:12,15:21:35,NA,incomplete,159,number,1,left,Blue_Star_Chess_1.jpg,Green_Plus_Dots_1.jpg,Blue_Circle_Grid_4.jpg,left,639.3199999583885,true,high,NA,NA,NA,NA,NA,NA,NA,false
uPhOU5H9,3o2y2uiudt7n7g4dfo9bupx2ocrfkv,3peijlry6x6xpmn9vy32drnv1lzwx7,uPhOU5H9,2020-0188,2020-05-21,15:02:12,15:21:35,NA,incomplete,160,color,1,right,Purple_Triangle_Stripes_2.jpg,Red_Circle_Grid_2.jpg,Purple_Star_Dots_4.jpg,left,702.4499999824911,false,high,NA,NA,NA,NA,NA,NA,NA,false
uPhOU5H9,3o2y2uiudt7n7g4dfo9bupx2ocrfkv,3peijlry6x6xpmn9vy32drnv1lzwx7,uPhOU5H9,2020-0188,2020-05-21,15:02:12,15:21:35,NA,incomplete,161,color,0,right,Purple_Circle_Stripes_2.jpg,Red_Triangle_Dots_2.jpg,Purple_Star_Chess_1.jpg,left,688.4149999823421,false,high,NA,NA,NA,NA,NA,NA,NA,false
uPhOU5H9,3o2y2uiudt7n7g4dfo9bupx2ocrfkv,3peijlry6x6xpmn9vy32drnv1lzwx7,uPhOU5H9,2020-0188,2020-05-21,15:02:12,15:21:35,NA,incomplete,162,color,1,right,Red_Circle_Chess_3.jpg,Blue_Star_Grid_3.jpg,Red_Plus_Dots_1.jpg,left,734.6949999919161,false,high,NA,NA,NA,NA,NA,NA,NA,false
uPhOU5H9,3o2y2uiudt7n7g4dfo9bupx2ocrfkv,3peijlry6x6xpmn9vy32drnv1lzwx7,uPhOU5H9,2020-0188,2020-05-21,15:02:12,15:21:35,NA,incomplete,163,color,0,right,Purple_Star_Stripes_4.jpg,Blue_Triangle_Grid_4.jpg,Purple_Circle_Chess_1.jpg,left,724.5849999599159,false,high,NA,NA,NA,NA,NA,NA,NA,false
uPhOU5H9,3o2y2uiudt7n7g4dfo9bupx2ocrfkv,3peijlry6x6xpmn9vy32drnv1lzwx7,uPhOU5H9,2020-0188,2020-05-21,15:02:12,15:21:35,NA,incomplete,164,color,1,left,Purple_Plus_Dots_3.jpg,Purple_Circle_Grid_4.jpg,Green_Triangle_Stripes_3.jpg,right,731.6049999790266,false,high,NA,NA,NA,NA,NA,NA,NA,false
uPhOU5H9,3o2y2uiudt7n7g4dfo9bupx2ocrfkv,3peijlry6x6xpmn9vy32drnv1lzwx7,uPhOU5H9,2020-0188,2020-05-21,15:02:12,15:21:35,NA,incomplete,165,color,1,left,Red_Plus_Chess_4.jpg,Red_Circle_Stripes_2.jpg,Purple_Star_Dots_4.jpg,right,774.6749999932945,false,high,NA,NA,NA,NA,NA,NA,NA,false
uPhOU5H9,3o2y2uiudt7n7g4dfo9bupx2ocrfkv,3peijlry6x6xpmn9vy32drnv1lzwx7,uPhOU5H9,2020-0188,2020-05-21,15:02:12,15:21:35,NA,incomplete,166,color,1,right,Red_Circle_Chess_3.jpg,Green_Plus_Dots_3.jpg,Red_Star_Stripes_2.jpg,right,479.6599999535829,true,high,NA,NA,NA,NA,NA,NA,NA,false
uPhOU5H9,3o2y2uiudt7n7g4dfo9bupx2ocrfkv,3peijlry6x6xpmn9vy32drnv1lzwx7,uPhOU5H9,2020-0188,2020-05-21,15:02:12,15:21:35,NA,incomplete,167,color,1,right,Purple_Plus_Chess_1.jpg,Red_Star_Stripes_1.jpg,Purple_Triangle_Grid_2.jpg,right,480.4550000699237,true,high,NA,NA,NA,NA,NA,NA,NA,false
uPhOU5H9,3o2y2uiudt7n7g4dfo9bupx2ocrfkv,3peijlry6x6xpmn9vy32drnv1lzwx7,uPhOU5H9,2020-0188,2020-05-21,15:02:12,15:21:35,NA,incomplete,168,color,1,right,Blue_Plus_Dots_2.jpg,Green_Star_Stripes_2.jpg,Blue_Triangle_Chess_4.jpg,right,612.8350000362843,true,high,NA,NA,NA,NA,NA,NA,NA,false
uPhOU5H9,3o2y2uiudt7n7g4dfo9bupx2ocrfkv,3peijlry6x6xpmn9vy32drnv1lzwx7,uPhOU5H9,2020-0188,2020-05-21,15:02:12,15:21:35,NA,incomplete,169,color,1,right,Purple_Plus_Chess_3.jpg,Blue_Triangle_Dots_3.jpg,Purple_Star_Grid_4.jpg,right,449.1700000362471,true,high,NA,NA,NA,NA,NA,NA,NA,false
uPhOU5H9,3o2y2uiudt7n7g4dfo9bupx2ocrfkv,3peijlry6x6xpmn9vy32drnv1lzwx7,uPhOU5H9,2020-0188,2020-05-21,15:02:12,15:21:35,NA,incomplete,170,color,1,left,Purple_Circle_Stripes_1.jpg,Purple_Plus_Chess_4.jpg,Red_Triangle_Dots_1.jpg,left,550.5899999989197,true,high,NA,NA,NA,NA,NA,NA,NA,false
uPhOU5H9,3o2y2uiudt7n7g4dfo9bupx2ocrfkv,3peijlry6x6xpmn9vy32drnv1lzwx7,uPhOU5H9,2020-0188,2020-05-21,15:02:12,15:21:35,NA,incomplete,171,color,1,left,Green_Circle_Chess_1.jpg,Green_Plus_Dots_3.jpg,Purple_Triangle_Grid_1.jpg,left,453.7949999794364,true,high,NA,NA,NA,NA,NA,NA,NA,false
uPhOU5H9,3o2y2uiudt7n7g4dfo9bupx2ocrfkv,3peijlry6x6xpmn9vy32drnv1lzwx7,uPhOU5H9,2020-0188,2020-05-21,15:02:12,15:21:35,NA,incomplete,172,color,1,left,Green_Triangle_Stripes_3.jpg,Green_Plus_Grid_4.jpg,Purple_Circle_Dots_3.jpg,right,533.3100000862032,false,high,NA,NA,NA,NA,NA,NA,NA,false
uPhOU5H9,3o2y2uiudt7n7g4dfo9bupx2ocrfkv,3peijlry6x6xpmn9vy32drnv1lzwx7,uPhOU5H9,2020-0188,2020-05-21,15:02:12,15:21:35,NA,incomplete,173,color,1,right,Red_Circle_Stripes_1.jpg,Blue_Plus_Dots_1.jpg,Red_Triangle_Grid_3.jpg,right,526.0299999499694,true,high,NA,NA,NA,NA,NA,NA,NA,false
uPhOU5H9,3o2y2uiudt7n7g4dfo9bupx2ocrfkv,3peijlry6x6xpmn9vy32drnv1lzwx7,uPhOU5H9,2020-0188,2020-05-21,15:02:12,15:21:35,NA,incomplete,174,color,0,right,Green_Star_Stripes_1.jpg,Purple_Circle_Chess_1.jpg,Green_Triangle_Grid_2.jpg,right,496.7600000090897,true,high,NA,NA,NA,NA,NA,NA,NA,false
uPhOU5H9,3o2y2uiudt7n7g4dfo9bupx2ocrfkv,3peijlry6x6xpmn9vy32drnv1lzwx7,uPhOU5H9,2020-0188,2020-05-21,15:02:12,15:21:35,NA,incomplete,175,color,1,left,Purple_Circle_Grid_3.jpg,Purple_Star_Stripes_2.jpg,Blue_Triangle_Dots_3.jpg,left,535.6700000120327,true,high,NA,NA,NA,NA,NA,NA,NA,false
uPhOU5H9,3o2y2uiudt7n7g4dfo9bupx2ocrfkv,3peijlry6x6xpmn9vy32drnv1lzwx7,uPhOU5H9,2020-0188,2020-05-21,15:02:12,15:21:35,NA,incomplete,176,color,0,left,Blue_Star_Chess_2.jpg,Blue_Circle_Dots_3.jpg,Green_Triangle_Stripes_2.jpg,left,599.61499995552,true,high,NA,NA,NA,NA,NA,NA,NA,false
uPhOU5H9,3o2y2uiudt7n7g4dfo9bupx2ocrfkv,3peijlry6x6xpmn9vy32drnv1lzwx7,uPhOU5H9,2020-0188,2020-05-21,15:02:12,15:21:35,NA,incomplete,177,color,1,left,Purple_Circle_Chess_3.jpg,Purple_Star_Grid_2.jpg,Blue_Triangle_Stripes_3.jpg,left,484.6849999157712,true,high,NA,NA,NA,NA,NA,NA,NA,false
uPhOU5H9,3o2y2uiudt7n7g4dfo9bupx2ocrfkv,3peijlry6x6xpmn9vy32drnv1lzwx7,uPhOU5H9,2020-0188,2020-05-21,15:02:12,15:21:35,NA,incomplete,178,color,1,left,Green_Star_Stripes_1.jpg,Green_Plus_Chess_2.jpg,Blue_Triangle_Grid_1.jpg,left,448.6799999140203,true,high,NA,NA,NA,NA,NA,NA,NA,false
uPhOU5H9,3o2y2uiudt7n7g4dfo9bupx2ocrfkv,3peijlry6x6xpmn9vy32drnv1lzwx7,uPhOU5H9,2020-0188,2020-05-21,15:02:12,15:21:35,NA,incomplete,179,color,0,right,Green_Star_Dots_4.jpg,Purple_Triangle_Grid_4.jpg,Green_Plus_Chess_1.jpg,right,502.0950000034645,true,high,NA,NA,NA,NA,NA,NA,NA,false
uPhOU5H9,3o2y2uiudt7n7g4dfo9bupx2ocrfkv,3peijlry6x6xpmn9vy32drnv1lzwx7,uPhOU5H9,2020-0188,2020-05-21,15:02:12,15:21:35,NA,incomplete,180,number,1,left,Purple_Star_Stripes_2.jpg,Red_Triangle_Grid_2.jpg,Purple_Plus_Chess_4.jpg,right,461.6150000365451,false,high,NA,NA,NA,NA,NA,NA,NA,false
uPhOU5H9,3o2y2uiudt7n7g4dfo9bupx2ocrfkv,3peijlry6x6xpmn9vy32drnv1lzwx7,uPhOU5H9,2020-0188,2020-05-21,15:02:12,15:21:35,NA,incomplete,181,number,1,right,Blue_Star_Grid_3.jpg,Blue_Plus_Dots_1.jpg,Red_Circle_Stripes_3.jpg,right,672.1449999604374,true,high,NA,NA,NA,NA,NA,NA,NA,false
uPhOU5H9,3o2y2uiudt7n7g4dfo9bupx2ocrfkv,3peijlry6x6xpmn9vy32drnv1lzwx7,uPhOU5H9,2020-0188,2020-05-21,15:02:12,15:21:35,NA,incomplete,182,number,1,right,Purple_Triangle_Chess_3.jpg,Purple_Circle_Dots_1.jpg,Red_Star_Grid_3.jpg,right,759.8850000649691,true,high,NA,NA,NA,NA,NA,NA,NA,false
uPhOU5H9,3o2y2uiudt7n7g4dfo9bupx2ocrfkv,3peijlry6x6xpmn9vy32drnv1lzwx7,uPhOU5H9,2020-0188,2020-05-21,15:02:12,15:21:35,NA,incomplete,183,number,1,right,Purple_Plus_Dots_2.jpg,Purple_Triangle_Grid_4.jpg,Red_Circle_Chess_2.jpg,right,582.909999997355,true,high,NA,NA,NA,NA,NA,NA,NA,false
uPhOU5H9,3o2y2uiudt7n7g4dfo9bupx2ocrfkv,3peijlry6x6xpmn9vy32drnv1lzwx7,uPhOU5H9,2020-0188,2020-05-21,15:02:12,15:21:35,NA,incomplete,184,number,1,right,Purple_Star_Dots_4.jpg,Purple_Circle_Stripes_1.jpg,Red_Triangle_Grid_4.jpg,right,578.7100000306964,true,high,NA,NA,NA,NA,NA,NA,NA,false
uPhOU5H9,3o2y2uiudt7n7g4dfo9bupx2ocrfkv,3peijlry6x6xpmn9vy32drnv1lzwx7,uPhOU5H9,2020-0188,2020-05-21,15:02:12,15:21:35,NA,incomplete,185,number,1,left,Blue_Circle_Grid_3.jpg,Red_Triangle_Chess_3.jpg,Blue_Plus_Dots_2.jpg,right,944.9799999129027,false,high,NA,NA,NA,NA,NA,NA,NA,false
uPhOU5H9,3o2y2uiudt7n7g4dfo9bupx2ocrfkv,3peijlry6x6xpmn9vy32drnv1lzwx7,uPhOU5H9,2020-0188,2020-05-21,15:02:12,15:21:35,NA,incomplete,186,number,1,left,Red_Plus_Chess_1.jpg,Purple_Triangle_Stripes_1.jpg,Red_Star_Dots_2.jpg,left,634.5149999251589,true,high,NA,NA,NA,NA,NA,NA,NA,false
uPhOU5H9,3o2y2uiudt7n7g4dfo9bupx2ocrfkv,3peijlry6x6xpmn9vy32drnv1lzwx7,uPhOU5H9,2020-0188,2020-05-21,15:02:12,15:21:35,NA,incomplete,187,number,1,left,Purple_Circle_Chess_3.jpg,Blue_Plus_Dots_3.jpg,Purple_Triangle_Grid_1.jpg,left,794.2449999973178,true,high,NA,NA,NA,NA,NA,NA,NA,false
uPhOU5H9,3o2y2uiudt7n7g4dfo9bupx2ocrfkv,3peijlry6x6xpmn9vy32drnv1lzwx7,uPhOU5H9,2020-0188,2020-05-21,15:02:12,15:21:35,NA,incomplete,188,number,0,left,Red_Star_Chess_4.jpg,Green_Triangle_Dots_4.jpg,Red_Plus_Grid_3.jpg,left,746.1249999469146,true,high,NA,NA,NA,NA,NA,NA,NA,false
uPhOU5H9,3o2y2uiudt7n7g4dfo9bupx2ocrfkv,3peijlry6x6xpmn9vy32drnv1lzwx7,uPhOU5H9,2020-0188,2020-05-21,15:02:12,15:21:35,NA,incomplete,189,number,1,left,Blue_Plus_Chess_3.jpg,Green_Star_Grid_3.jpg,Blue_Triangle_Dots_4.jpg,left,686.5349999861792,true,high,NA,NA,NA,NA,NA,NA,NA,false
uPhOU5H9,3o2y2uiudt7n7g4dfo9bupx2ocrfkv,3peijlry6x6xpmn9vy32drnv1lzwx7,uPhOU5H9,2020-0188,2020-05-21,15:02:12,15:21:35,NA,incomplete,190,number,1,left,Red_Plus_Grid_1.jpg,Purple_Circle_Stripes_1.jpg,Red_Triangle_Dots_2.jpg,left,625.98499993328,true,high,NA,NA,NA,NA,NA,NA,NA,false
uPhOU5H9,3o2y2uiudt7n7g4dfo9bupx2ocrfkv,3peijlry6x6xpmn9vy32drnv1lzwx7,uPhOU5H9,2020-0188,2020-05-21,15:02:12,15:21:35,NA,incomplete,191,number,0,right,Red_Circle_Chess_4.jpg,Red_Star_Grid_2.jpg,Green_Triangle_Dots_4.jpg,right,856.6049999790266,true,high,NA,NA,NA,NA,NA,NA,NA,false
uPhOU5H9,3o2y2uiudt7n7g4dfo9bupx2ocrfkv,3peijlry6x6xpmn9vy32drnv1lzwx7,uPhOU5H9,2020-0188,2020-05-21,15:02:12,15:21:35,NA,incomplete,192,number,1,left,Red_Circle_Chess_2.jpg,Green_Triangle_Grid_2.jpg,Red_Star_Stripes_3.jpg,left,763.0950000602752,true,high,NA,NA,NA,NA,NA,NA,NA,false
uPhOU5H9,3o2y2uiudt7n7g4dfo9bupx2ocrfkv,3peijlry6x6xpmn9vy32drnv1lzwx7,uPhOU5H9,2020-0188,2020-05-21,15:02:12,15:21:35,NA,incomplete,193,number,1,right,Purple_Triangle_Grid_3.jpg,Purple_Circle_Stripes_4.jpg,Red_Star_Dots_3.jpg,right,734.7849999787286,true,high,NA,NA,NA,NA,NA,NA,NA,false
uPhOU5H9,3o2y2uiudt7n7g4dfo9bupx2ocrfkv,3peijlry6x6xpmn9vy32drnv1lzwx7,uPhOU5H9,2020-0188,2020-05-21,15:02:12,15:21:35,NA,incomplete,194,number,0,left,Red_Triangle_Dots_4.jpg,Purple_Star_Stripes_4.jpg,Red_Plus_Chess_3.jpg,left,800.7399999769405,true,high,NA,NA,NA,NA,NA,NA,NA,false
uPhOU5H9,3o2y2uiudt7n7g4dfo9bupx2ocrfkv,3peijlry6x6xpmn9vy32drnv1lzwx7,uPhOU5H9,2020-0188,2020-05-21,15:02:12,15:21:35,NA,incomplete,195,number,1,left,Red_Star_Dots_4.jpg,Purple_Triangle_Chess_4.jpg,Red_Plus_Grid_2.jpg,left,837.6700000371784,true,high,NA,NA,NA,NA,NA,NA,NA,false
uPhOU5H9,3o2y2uiudt7n7g4dfo9bupx2ocrfkv,3peijlry6x6xpmn9vy32drnv1lzwx7,uPhOU5H9,2020-0188,2020-05-21,15:02:12,15:21:35,NA,incomplete,196,number,1,right,Purple_Plus_Grid_3.jpg,Purple_Star_Dots_1.jpg,Red_Circle_Chess_3.jpg,right,727.889999980107,true,high,NA,NA,NA,NA,NA,NA,NA,false
uPhOU5H9,3o2y2uiudt7n7g4dfo9bupx2ocrfkv,3peijlry6x6xpmn9vy32drnv1lzwx7,uPhOU5H9,2020-0188,2020-05-21,15:02:12,15:21:35,NA,incomplete,197,number,1,left,Red_Triangle_Stripes_4.jpg,Purple_Circle_Chess_4.jpg,Red_Plus_Dots_2.jpg,left,666.4999999338761,true,high,NA,NA,NA,NA,NA,NA,NA,false
uPhOU5H9,3o2y2uiudt7n7g4dfo9bupx2ocrfkv,3peijlry6x6xpmn9vy32drnv1lzwx7,uPhOU5H9,2020-0188,2020-05-21,15:02:12,15:21:35,NA,incomplete,198,number,1,right,Purple_Star_Stripes_1.jpg,Purple_Circle_Chess_3.jpg,Red_Triangle_Grid_1.jpg,right,589.2400000011548,true,high,NA,NA,NA,NA,NA,NA,NA,false
uPhOU5H9,3o2y2uiudt7n7g4dfo9bupx2ocrfkv,3peijlry6x6xpmn9vy32drnv1lzwx7,uPhOU5H9,2020-0188,2020-05-21,15:02:12,15:21:35,NA,incomplete,199,number,1,right,Purple_Plus_Grid_4.jpg,Purple_Star_Dots_1.jpg,Blue_Triangle_Stripes_4.jpg,right,655.9699999634176,true,high,NA,NA,NA,NA,NA,NA,NA,false
uPhOU5H9,3o2y2uiudt7n7g4dfo9bupx2ocrfkv,3peijlry6x6xpmn9vy32drnv1lzwx7,uPhOU5H9,2020-0188,2020-05-21,15:02:12,15:21:35,NA,incomplete,200,color,1,left,Purple_Plus_Dots_3.jpg,Purple_Triangle_Stripes_4.jpg,Green_Circle_Chess_3.jpg,right,739.159999997355,false,high,NA,NA,NA,NA,NA,NA,NA,false
uPhOU5H9,3o2y2uiudt7n7g4dfo9bupx2ocrfkv,3peijlry6x6xpmn9vy32drnv1lzwx7,uPhOU5H9,2020-0188,2020-05-21,15:02:12,15:21:35,NA,incomplete,201,color,1,right,Green_Circle_Chess_3.jpg,Red_Star_Stripes_3.jpg,Green_Plus_Grid_1.jpg,left,660.7350000413135,false,high,NA,NA,NA,NA,NA,NA,NA,false
uPhOU5H9,3o2y2uiudt7n7g4dfo9bupx2ocrfkv,3peijlry6x6xpmn9vy32drnv1lzwx7,uPhOU5H9,2020-0188,2020-05-21,15:02:12,15:21:35,NA,incomplete,202,color,0,right,Blue_Triangle_Chess_1.jpg,Red_Circle_Stripes_1.jpg,Blue_Star_Grid_4.jpg,left,620.2599999960512,false,high,NA,NA,NA,NA,NA,NA,NA,false
uPhOU5H9,3o2y2uiudt7n7g4dfo9bupx2ocrfkv,3peijlry6x6xpmn9vy32drnv1lzwx7,uPhOU5H9,2020-0188,2020-05-21,15:02:12,15:21:35,NA,incomplete,203,color,1,right,Red_Circle_Dots_3.jpg,Green_Triangle_Grid_3.jpg,Red_Plus_Chess_4.jpg,left,715.5100000090897,false,high,NA,NA,NA,NA,NA,NA,NA,false
uPhOU5H9,3o2y2uiudt7n7g4dfo9bupx2ocrfkv,3peijlry6x6xpmn9vy32drnv1lzwx7,uPhOU5H9,2020-0188,2020-05-21,15:02:12,15:21:35,NA,incomplete,204,color,1,right,Green_Circle_Dots_4.jpg,Blue_Star_Stripes_4.jpg,Green_Plus_Chess_3.jpg,left,938.8850000686944,false,high,NA,NA,NA,NA,NA,NA,NA,false
uPhOU5H9,3o2y2uiudt7n7g4dfo9bupx2ocrfkv,3peijlry6x6xpmn9vy32drnv1lzwx7,uPhOU5H9,2020-0188,2020-05-21,15:02:12,15:21:35,NA,incomplete,205,color,1,right,Red_Triangle_Stripes_3.jpg,Blue_Star_Grid_3.jpg,Red_Plus_Chess_2.jpg,right,540.3600001009181,true,high,NA,NA,NA,NA,NA,NA,NA,false
uPhOU5H9,3o2y2uiudt7n7g4dfo9bupx2ocrfkv,3peijlry6x6xpmn9vy32drnv1lzwx7,uPhOU5H9,2020-0188,2020-05-21,15:02:12,15:21:35,NA,incomplete,206,color,1,right,Green_Plus_Stripes_1.jpg,Blue_Star_Dots_1.jpg,Green_Circle_Grid_4.jpg,right,462.2000000672415,true,high,NA,NA,NA,NA,NA,NA,NA,false
uPhOU5H9,3o2y2uiudt7n7g4dfo9bupx2ocrfkv,3peijlry6x6xpmn9vy32drnv1lzwx7,uPhOU5H9,2020-0188,2020-05-21,15:02:12,15:21:35,NA,incomplete,207,color,0,right,Red_Triangle_Stripes_3.jpg,Green_Plus_Dots_3.jpg,Red_Star_Chess_4.jpg,right,498.6349999671802,true,high,NA,NA,NA,NA,NA,NA,NA,false
uPhOU5H9,3o2y2uiudt7n7g4dfo9bupx2ocrfkv,3peijlry6x6xpmn9vy32drnv1lzwx7,uPhOU5H9,2020-0188,2020-05-21,15:02:12,15:21:35,NA,incomplete,208,color,1,right,Blue_Circle_Dots_1.jpg,Purple_Plus_Stripes_1.jpg,Blue_Triangle_Grid_4.jpg,right,425.4050001036376,true,high,NA,NA,NA,NA,NA,NA,NA,false
uPhOU5H9,3o2y2uiudt7n7g4dfo9bupx2ocrfkv,3peijlry6x6xpmn9vy32drnv1lzwx7,uPhOU5H9,2020-0188,2020-05-21,15:02:12,15:21:35,NA,incomplete,209,color,1,left,Purple_Plus_Grid_1.jpg,Purple_Circle_Dots_2.jpg,Green_Star_Chess_1.jpg,left,581.4499999396503,true,high,NA,NA,NA,NA,NA,NA,NA,false
uPhOU5H9,3o2y2uiudt7n7g4dfo9bupx2ocrfkv,3peijlry6x6xpmn9vy32drnv1lzwx7,uPhOU5H9,2020-0188,2020-05-21,15:02:12,15:21:35,NA,incomplete,210,color,1,right,Blue_Circle_Chess_3.jpg,Purple_Star_Stripes_3.jpg,Blue_Triangle_Grid_4.jpg,right,525.9300000034273,true,high,NA,NA,NA,NA,NA,NA,NA,false
uPhOU5H9,3o2y2uiudt7n7g4dfo9bupx2ocrfkv,3peijlry6x6xpmn9vy32drnv1lzwx7,uPhOU5H9,2020-0188,2020-05-21,15:02:12,15:21:35,NA,incomplete,211,color,1,left,Green_Circle_Chess_4.jpg,Green_Triangle_Stripes_2.jpg,Purple_Star_Grid_4.jpg,left,438.6450001038611,true,high,NA,NA,NA,NA,NA,NA,NA,false
uPhOU5H9,3o2y2uiudt7n7g4dfo9bupx2ocrfkv,3peijlry6x6xpmn9vy32drnv1lzwx7,uPhOU5H9,2020-0188,2020-05-21,15:02:12,15:21:35,NA,incomplete,212,color,1,right,Red_Star_Grid_4.jpg,Green_Triangle_Dots_4.jpg,Red_Plus_Stripes_2.jpg,right,452.79499993193895,true,high,NA,NA,NA,NA,NA,NA,NA,false
uPhOU5H9,3o2y2uiudt7n7g4dfo9bupx2ocrfkv,3peijlry6x6xpmn9vy32drnv1lzwx7,uPhOU5H9,2020-0188,2020-05-21,15:02:12,15:21:35,NA,incomplete,213,color,1,right,Purple_Plus_Dots_4.jpg,Green_Triangle_Chess_4.jpg,Purple_Star_Grid_2.jpg,right,464.3550000619143,true,high,NA,NA,NA,NA,NA,NA,NA,false
uPhOU5H9,3o2y2uiudt7n7g4dfo9bupx2ocrfkv,3peijlry6x6xpmn9vy32drnv1lzwx7,uPhOU5H9,2020-0188,2020-05-21,15:02:12,15:21:35,NA,incomplete,214,color,1,left,Green_Plus_Stripes_3.jpg,Green_Triangle_Grid_4.jpg,Blue_Circle_Dots_3.jpg,left,549.8150000348687,true,high,NA,NA,NA,NA,NA,NA,NA,false
uPhOU5H9,3o2y2uiudt7n7g4dfo9bupx2ocrfkv,3peijlry6x6xpmn9vy32drnv1lzwx7,uPhOU5H9,2020-0188,2020-05-21,15:02:12,15:21:35,NA,incomplete,215,color,1,left,Red_Plus_Grid_4.jpg,Red_Circle_Chess_2.jpg,Blue_Star_Stripes_4.jpg,left,575.9850000031292,true,high,NA,NA,NA,NA,NA,NA,NA,false
uPhOU5H9,3o2y2uiudt7n7g4dfo9bupx2ocrfkv,3peijlry6x6xpmn9vy32drnv1lzwx7,uPhOU5H9,2020-0188,2020-05-21,15:02:12,15:21:35,NA,incomplete,216,color,1,right,Red_Star_Stripes_3.jpg,Purple_Triangle_Dots_3.jpg,Red_Circle_Chess_4.jpg,right,409.0200000209734,true,high,NA,NA,NA,NA,NA,NA,NA,false
uPhOU5H9,3o2y2uiudt7n7g4dfo9bupx2ocrfkv,3peijlry6x6xpmn9vy32drnv1lzwx7,uPhOU5H9,2020-0188,2020-05-21,15:02:12,15:21:35,NA,incomplete,217,color,1,right,Blue_Circle_Chess_1.jpg,Purple_Plus_Stripes_1.jpg,Blue_Star_Grid_4.jpg,right,438.2449999684468,true,high,NA,NA,NA,NA,NA,NA,NA,false
uPhOU5H9,3o2y2uiudt7n7g4dfo9bupx2ocrfkv,3peijlry6x6xpmn9vy32drnv1lzwx7,uPhOU5H9,2020-0188,2020-05-21,15:02:12,15:21:35,NA,incomplete,218,color,1,left,Purple_Triangle_Grid_4.jpg,Purple_Circle_Chess_1.jpg,Red_Plus_Stripes_4.jpg,left,516.5450000204146,true,high,NA,NA,NA,NA,NA,NA,NA,false
uPhOU5H9,3o2y2uiudt7n7g4dfo9bupx2ocrfkv,3peijlry6x6xpmn9vy32drnv1lzwx7,uPhOU5H9,2020-0188,2020-05-21,15:02:12,15:21:35,NA,incomplete,219,color,1,left,Blue_Star_Stripes_3.jpg,Blue_Triangle_Chess_4.jpg,Red_Circle_Dots_3.jpg,left,439.2750000115484,true,high,NA,NA,NA,NA,NA,NA,NA,false
uPhOU5H9,3o2y2uiudt7n7g4dfo9bupx2ocrfkv,3peijlry6x6xpmn9vy32drnv1lzwx7,uPhOU5H9,2020-0188,2020-05-21,15:02:12,15:21:35,NA,incomplete,220,number,0,right,Purple_Star_Dots_4.jpg,Purple_Plus_Grid_1.jpg,Green_Circle_Chess_4.jpg,left,477.59500006213784,false,high,NA,NA,NA,NA,NA,NA,NA,false
uPhOU5H9,3o2y2uiudt7n7g4dfo9bupx2ocrfkv,3peijlry6x6xpmn9vy32drnv1lzwx7,uPhOU5H9,2020-0188,2020-05-21,15:02:12,15:21:35,NA,incomplete,221,number,1,left,Green_Triangle_Grid_2.jpg,Purple_Circle_Dots_2.jpg,Green_Plus_Stripes_1.jpg,right,472.3150000208989,false,high,NA,NA,NA,NA,NA,NA,NA,false
uPhOU5H9,3o2y2uiudt7n7g4dfo9bupx2ocrfkv,3peijlry6x6xpmn9vy32drnv1lzwx7,uPhOU5H9,2020-0188,2020-05-21,15:02:12,15:21:35,NA,incomplete,222,number,0,left,Purple_Star_Dots_4.jpg,Red_Triangle_Grid_4.jpg,Purple_Circle_Stripes_1.jpg,left,725.1750000286847,true,high,NA,NA,NA,NA,NA,NA,NA,false
uPhOU5H9,3o2y2uiudt7n7g4dfo9bupx2ocrfkv,3peijlry6x6xpmn9vy32drnv1lzwx7,uPhOU5H9,2020-0188,2020-05-21,15:02:12,15:21:35,NA,incomplete,223,number,1,left,Green_Star_Dots_2.jpg,Red_Triangle_Chess_2.jpg,Green_Plus_Grid_1.jpg,right,518.1600000942126,false,high,NA,NA,NA,NA,NA,NA,NA,false
uPhOU5H9,3o2y2uiudt7n7g4dfo9bupx2ocrfkv,3peijlry6x6xpmn9vy32drnv1lzwx7,uPhOU5H9,2020-0188,2020-05-21,15:02:12,15:21:35,NA,incomplete,224,number,1,left,Blue_Triangle_Stripes_2.jpg,Purple_Circle_Grid_2.jpg,Blue_Star_Chess_1.jpg,right,524.0800000028685,false,high,NA,NA,NA,NA,NA,NA,NA,false
uPhOU5H9,3o2y2uiudt7n7g4dfo9bupx2ocrfkv,3peijlry6x6xpmn9vy32drnv1lzwx7,uPhOU5H9,2020-0188,2020-05-21,15:02:12,15:21:35,NA,incomplete,225,number,1,left,Red_Circle_Grid_3.jpg,Green_Triangle_Chess_3.jpg,Red_Star_Dots_1.jpg,right,1317.600000067614,false,high,NA,NA,NA,NA,NA,NA,NA,false
uPhOU5H9,3o2y2uiudt7n7g4dfo9bupx2ocrfkv,3peijlry6x6xpmn9vy32drnv1lzwx7,uPhOU5H9,2020-0188,2020-05-21,15:02:12,15:21:35,NA,incomplete,226,number,1,right,Blue_Star_Dots_2.jpg,Blue_Plus_Chess_3.jpg,Red_Triangle_Grid_2.jpg,right,674.2100000847131,true,high,NA,NA,NA,NA,NA,NA,NA,false
uPhOU5H9,3o2y2uiudt7n7g4dfo9bupx2ocrfkv,3peijlry6x6xpmn9vy32drnv1lzwx7,uPhOU5H9,2020-0188,2020-05-21,15:02:12,15:21:35,NA,incomplete,227,number,0,right,Purple_Star_Grid_4.jpg,Purple_Circle_Dots_2.jpg,Blue_Triangle_Stripes_4.jpg,right,824.9099999666214,true,high,NA,NA,NA,NA,NA,NA,NA,false
uPhOU5H9,3o2y2uiudt7n7g4dfo9bupx2ocrfkv,3peijlry6x6xpmn9vy32drnv1lzwx7,uPhOU5H9,2020-0188,2020-05-21,15:02:12,15:21:35,NA,incomplete,228,number,1,right,Purple_Circle_Stripes_4.jpg,Purple_Star_Dots_2.jpg,Blue_Triangle_Chess_4.jpg,right,668.9300000434741,true,high,NA,NA,NA,NA,NA,NA,NA,false
uPhOU5H9,3o2y2uiudt7n7g4dfo9bupx2ocrfkv,3peijlry6x6xpmn9vy32drnv1lzwx7,uPhOU5H9,2020-0188,2020-05-21,15:02:12,15:21:35,NA,incomplete,229,number,0,left,Green_Circle_Stripes_1.jpg,Red_Plus_Grid_1.jpg,Green_Triangle_Chess_2.jpg,left,1123.7850000616163,true,high,NA,NA,NA,NA,NA,NA,NA,false
uPhOU5H9,3o2y2uiudt7n7g4dfo9bupx2ocrfkv,3peijlry6x6xpmn9vy32drnv1lzwx7,uPhOU5H9,2020-0188,2020-05-21,15:02:12,15:21:35,NA,incomplete,230,number,1,left,Purple_Circle_Dots_1.jpg,Blue_Star_Stripes_1.jpg,Purple_Triangle_Grid_2.jpg,left,767.3799999756739,true,high,NA,NA,NA,NA,NA,NA,NA,false
uPhOU5H9,3o2y2uiudt7n7g4dfo9bupx2ocrfkv,3peijlry6x6xpmn9vy32drnv1lzwx7,uPhOU5H9,2020-0188,2020-05-21,15:02:12,15:21:35,NA,incomplete,231,number,1,left,Red_Plus_Stripes_4.jpg,Blue_Star_Chess_4.jpg,Red_Triangle_Dots_3.jpg,left,743.3050000108778,true,high,NA,NA,NA,NA,NA,NA,NA,false
uPhOU5H9,3o2y2uiudt7n7g4dfo9bupx2ocrfkv,3peijlry6x6xpmn9vy32drnv1lzwx7,uPhOU5H9,2020-0188,2020-05-21,15:02:12,15:21:35,NA,incomplete,232,number,1,left,Blue_Triangle_Stripes_3.jpg,Green_Circle_Dots_3.jpg,Blue_Star_Grid_1.jpg,left,784.2849999433383,true,high,NA,NA,NA,NA,NA,NA,NA,false
uPhOU5H9,3o2y2uiudt7n7g4dfo9bupx2ocrfkv,3peijlry6x6xpmn9vy32drnv1lzwx7,uPhOU5H9,2020-0188,2020-05-21,15:02:12,15:21:35,NA,incomplete,233,number,0,left,Green_Star_Stripes_4.jpg,Purple_Plus_Chess_4.jpg,Green_Triangle_Dots_2.jpg,left,688.0649999948218,true,high,NA,NA,NA,NA,NA,NA,NA,false
uPhOU5H9,3o2y2uiudt7n7g4dfo9bupx2ocrfkv,3peijlry6x6xpmn9vy32drnv1lzwx7,uPhOU5H9,2020-0188,2020-05-21,15:02:12,15:21:35,NA,incomplete,234,number,1,left,Green_Circle_Grid_2.jpg,Red_Plus_Chess_2.jpg,Green_Triangle_Stripes_3.jpg,left,690.5999999726191,true,high,NA,NA,NA,NA,NA,NA,NA,false
uPhOU5H9,3o2y2uiudt7n7g4dfo9bupx2ocrfkv,3peijlry6x6xpmn9vy32drnv1lzwx7,uPhOU5H9,2020-0188,2020-05-21,15:02:12,15:21:35,NA,incomplete,235,number,1,left,Purple_Star_Stripes_4.jpg,Blue_Circle_Grid_4.jpg,Purple_Triangle_Dots_1.jpg,left,629.6100000618026,true,high,NA,NA,NA,NA,NA,NA,NA,false
uPhOU5H9,3o2y2uiudt7n7g4dfo9bupx2ocrfkv,3peijlry6x6xpmn9vy32drnv1lzwx7,uPhOU5H9,2020-0188,2020-05-21,15:02:12,15:21:35,NA,incomplete,236,number,0,left,Green_Circle_Grid_4.jpg,Red_Star_Stripes_4.jpg,Green_Triangle_Chess_1.jpg,left,856.1999999219552,true,high,NA,NA,NA,NA,NA,NA,NA,false
uPhOU5H9,3o2y2uiudt7n7g4dfo9bupx2ocrfkv,3peijlry6x6xpmn9vy32drnv1lzwx7,uPhOU5H9,2020-0188,2020-05-21,15:02:12,15:21:35,NA,incomplete,237,number,1,left,Green_Star_Stripes_4.jpg,Purple_Plus_Chess_4.jpg,Green_Triangle_Dots_2.jpg,left,618.1050000013784,true,high,NA,NA,NA,NA,NA,NA,NA,false
uPhOU5H9,3o2y2uiudt7n7g4dfo9bupx2ocrfkv,3peijlry6x6xpmn9vy32drnv1lzwx7,uPhOU5H9,2020-0188,2020-05-21,15:02:12,15:21:35,NA,incomplete,238,number,1,left,Purple_Triangle_Grid_2.jpg,Green_Star_Chess_2.jpg,Purple_Circle_Stripes_3.jpg,left,776.5150000341237,true,high,NA,NA,NA,NA,NA,NA,NA,false
uPhOU5H9,3o2y2uiudt7n7g4dfo9bupx2ocrfkv,3peijlry6x6xpmn9vy32drnv1lzwx7,uPhOU5H9,2020-0188,2020-05-21,15:02:12,15:21:35,NA,incomplete,239,number,1,right,Blue_Star_Stripes_1.jpg,Blue_Circle_Grid_4.jpg,Purple_Triangle_Chess_1.jpg,right,657.4000000255182,true,high,NA,NA,NA,NA,NA,NA,NA,false
uPhOU5H9,3o2y2uiudt7n7g4dfo9bupx2ocrfkv,3peijlry6x6xpmn9vy32drnv1lzwx7,uPhOU5H9,2020-0188,2020-05-21,15:02:12,15:21:35,NA,NA,instruction example,filling,NA,NA,Purple_Triangle_Grid_1.jpg,Green_Circle_Grid_3.jpg,Blue_Triangle_Chess_2.jpg,NA,NA,NA,NA,NA,NA,NA,NA,NA,NA,NA,undefined
uPhOU5H9,3o2y2uiudt7n7g4dfo9bupx2ocrfkv,3peijlry6x6xpmn9vy32drnv1lzwx7,uPhOU5H9,2020-0188,2020-05-21,15:02:12,15:21:35,NA,NA,instruction example,filling,NA,NA,Red_Plus_Stripes_3.jpg,Green_Plus_Chess_2.jpg,Purple_Circle_Stripes_1.jpg,NA,NA,NA,NA,NA,NA,NA,NA,NA,NA,NA,undefined
uPhOU5H9,3o2y2uiudt7n7g4dfo9bupx2ocrfkv,3peijlry6x6xpmn9vy32drnv1lzwx7,uPhOU5H9,2020-0188,2020-05-21,15:02:12,15:21:35,NA,NA,instruction example,filling,NA,NA,Green_Star_Dots_2.jpg,Green_Triangle_Chess_4.jpg,Red_Circle_Stripes_2.jpg,NA,NA,NA,NA,NA,NA,NA,NA,NA,NA,NA,undefined
uPhOU5H9,3o2y2uiudt7n7g4dfo9bupx2ocrfkv,3peijlry6x6xpmn9vy32drnv1lzwx7,uPhOU5H9,2020-0188,2020-05-21,15:02:12,15:21:35,NA,NA,instruction example,filling,NA,NA,Blue_Circle_Stripes_4.jpg,Red_Triangle_Chess_4.jpg,Blue_Plus_Grid_3.jpg,NA,NA,NA,NA,NA,NA,NA,NA,NA,NA,NA,undefined
uPhOU5H9,3o2y2uiudt7n7g4dfo9bupx2ocrfkv,3peijlry6x6xpmn9vy32drnv1lzwx7,uPhOU5H9,2020-0188,2020-05-21,15:02:12,15:21:35,1143794.4099999731,1163537.7250000602,NA,NA,NA,NA,NA,NA,NA,NA,NA,NA,NA,33,White/Caucasian,Female,white,no,yes,no,undefined
