workerId,hitId,assignmentId,subject,studyid,exp_date,exp_start,exp_end,time_start,time_end,trial,type,reward_validity,answer,image_top,image_left,image_right,response,response_time,response_acc,volatility,practice
kcwCfj9X,3087lxlj7ptluqx9bvztb5ithyq0fq,3pm8nzgv82ts5prnjp4wl25abguxq8,kcwCfj9X,2020-0188,2020-11-18,15:52:23,16:06:18,NA,incomplete,0,filling,1,left,Purple_Triangle_Stripes_4.jpg,Green_Star_Stripes_3.jpg,Purple_Circle_Dots_1.jpg,none,0,false,NA,true
kcwCfj9X,3087lxlj7ptluqx9bvztb5ithyq0fq,3pm8nzgv82ts5prnjp4wl25abguxq8,kcwCfj9X,2020-0188,2020-11-18,15:52:23,16:06:18,NA,incomplete,1,filling,0,right,Green_Star_Chess_4.jpg,Green_Plus_Dots_3.jpg,Blue_Triangle_Chess_1.jpg,right,1555.91999999978,true,NA,true
kcwCfj9X,3087lxlj7ptluqx9bvztb5ithyq0fq,3pm8nzgv82ts5prnjp4wl25abguxq8,kcwCfj9X,2020-0188,2020-11-18,15:52:23,16:06:18,NA,incomplete,2,filling,1,left,Purple_Star_Stripes_1.jpg,Blue_Plus_Stripes_4.jpg,Purple_Triangle_Dots_3.jpg,left,1946.4900000002817,true,NA,true
kcwCfj9X,3087lxlj7ptluqx9bvztb5ithyq0fq,3pm8nzgv82ts5prnjp4wl25abguxq8,kcwCfj9X,2020-0188,2020-11-18,15:52:23,16:06:18,NA,incomplete,3,filling,0,right,Red_Circle_Stripes_3.jpg,Red_Star_Chess_4.jpg,Blue_Plus_Stripes_1.jpg,right,1116.24500000017,true,NA,true
kcwCfj9X,3087lxlj7ptluqx9bvztb5ithyq0fq,3pm8nzgv82ts5prnjp4wl25abguxq8,kcwCfj9X,2020-0188,2020-11-18,15:52:23,16:06:18,NA,incomplete,4,filling,1,left,Purple_Plus_Stripes_4.jpg,Green_Star_Stripes_3.jpg,Purple_Circle_Chess_2.jpg,left,1436.2000000000698,true,NA,true
kcwCfj9X,3087lxlj7ptluqx9bvztb5ithyq0fq,3pm8nzgv82ts5prnjp4wl25abguxq8,kcwCfj9X,2020-0188,2020-11-18,15:52:23,16:06:18,NA,incomplete,5,filling,1,left,Green_Star_Dots_1.jpg,Blue_Circle_Dots_2.jpg,Green_Plus_Grid_3.jpg,left,1397.119999999617,true,NA,true
kcwCfj9X,3087lxlj7ptluqx9bvztb5ithyq0fq,3pm8nzgv82ts5prnjp4wl25abguxq8,kcwCfj9X,2020-0188,2020-11-18,15:52:23,16:06:18,NA,incomplete,6,filling,1,right,Blue_Star_Stripes_3.jpg,Blue_Circle_Chess_1.jpg,Purple_Plus_Stripes_4.jpg,right,1135.1399999998685,true,NA,true
kcwCfj9X,3087lxlj7ptluqx9bvztb5ithyq0fq,3pm8nzgv82ts5prnjp4wl25abguxq8,kcwCfj9X,2020-0188,2020-11-18,15:52:23,16:06:18,NA,incomplete,7,filling,1,left,Purple_Circle_Dots_2.jpg,Green_Triangle_Dots_1.jpg,Purple_Plus_Chess_4.jpg,left,1292.0650000000896,true,NA,true
kcwCfj9X,3087lxlj7ptluqx9bvztb5ithyq0fq,3pm8nzgv82ts5prnjp4wl25abguxq8,kcwCfj9X,2020-0188,2020-11-18,15:52:23,16:06:18,NA,incomplete,8,filling,1,right,Green_Star_Dots_3.jpg,Green_Triangle_Stripes_2.jpg,Blue_Circle_Dots_4.jpg,right,1421.6499999997613,true,NA,true
kcwCfj9X,3087lxlj7ptluqx9bvztb5ithyq0fq,3pm8nzgv82ts5prnjp4wl25abguxq8,kcwCfj9X,2020-0188,2020-11-18,15:52:23,16:06:18,NA,incomplete,9,filling,1,left,Red_Triangle_Grid_1.jpg,Purple_Star_Grid_4.jpg,Red_Plus_Dots_3.jpg,left,1284.3800000000629,true,NA,true
kcwCfj9X,3087lxlj7ptluqx9bvztb5ithyq0fq,3pm8nzgv82ts5prnjp4wl25abguxq8,kcwCfj9X,2020-0188,2020-11-18,15:52:23,16:06:18,NA,incomplete,10,filling,1,right,Green_Circle_Chess_3.jpg,Green_Triangle_Grid_1.jpg,Blue_Star_Chess_4.jpg,right,1100.8050000000221,true,NA,true
kcwCfj9X,3087lxlj7ptluqx9bvztb5ithyq0fq,3pm8nzgv82ts5prnjp4wl25abguxq8,kcwCfj9X,2020-0188,2020-11-18,15:52:23,16:06:18,NA,incomplete,11,filling,1,right,Blue_Star_Chess_2.jpg,Blue_Triangle_Grid_4.jpg,Green_Plus_Chess_1.jpg,right,1157.8250000002445,true,NA,true
kcwCfj9X,3087lxlj7ptluqx9bvztb5ithyq0fq,3pm8nzgv82ts5prnjp4wl25abguxq8,kcwCfj9X,2020-0188,2020-11-18,15:52:23,16:06:18,NA,incomplete,12,filling,0,right,Green_Triangle_Grid_4.jpg,Green_Star_Chess_1.jpg,Blue_Circle_Grid_2.jpg,right,1338.6850000001723,true,NA,true
kcwCfj9X,3087lxlj7ptluqx9bvztb5ithyq0fq,3pm8nzgv82ts5prnjp4wl25abguxq8,kcwCfj9X,2020-0188,2020-11-18,15:52:23,16:06:18,NA,incomplete,13,filling,0,right,Blue_Triangle_Chess_3.jpg,Blue_Circle_Stripes_2.jpg,Green_Star_Chess_4.jpg,right,1272.3799999998882,true,NA,true
kcwCfj9X,3087lxlj7ptluqx9bvztb5ithyq0fq,3pm8nzgv82ts5prnjp4wl25abguxq8,kcwCfj9X,2020-0188,2020-11-18,15:52:23,16:06:18,NA,incomplete,14,filling,1,left,Blue_Star_Grid_2.jpg,Red_Triangle_Grid_3.jpg,Blue_Circle_Chess_1.jpg,left,1374.2199999997101,true,NA,true
kcwCfj9X,3087lxlj7ptluqx9bvztb5ithyq0fq,3pm8nzgv82ts5prnjp4wl25abguxq8,kcwCfj9X,2020-0188,2020-11-18,15:52:23,16:06:18,NA,incomplete,15,filling,0,right,Purple_Triangle_Chess_2.jpg,Purple_Plus_Dots_4.jpg,Blue_Star_Chess_1.jpg,right,1215.9950000000244,true,NA,true
kcwCfj9X,3087lxlj7ptluqx9bvztb5ithyq0fq,3pm8nzgv82ts5prnjp4wl25abguxq8,kcwCfj9X,2020-0188,2020-11-18,15:52:23,16:06:18,NA,incomplete,16,filling,1,right,Red_Plus_Grid_1.jpg,Red_Circle_Stripes_4.jpg,Green_Triangle_Grid_3.jpg,right,1197.9699999997101,true,NA,true
kcwCfj9X,3087lxlj7ptluqx9bvztb5ithyq0fq,3pm8nzgv82ts5prnjp4wl25abguxq8,kcwCfj9X,2020-0188,2020-11-18,15:52:23,16:06:18,NA,incomplete,17,filling,1,right,Purple_Triangle_Grid_2.jpg,Purple_Circle_Dots_4.jpg,Red_Plus_Grid_1.jpg,right,927.3899999998393,true,NA,true
kcwCfj9X,3087lxlj7ptluqx9bvztb5ithyq0fq,3pm8nzgv82ts5prnjp4wl25abguxq8,kcwCfj9X,2020-0188,2020-11-18,15:52:23,16:06:18,NA,incomplete,18,filling,1,left,Purple_Star_Stripes_4.jpg,Green_Circle_Stripes_2.jpg,Purple_Plus_Grid_1.jpg,left,931.3850000003004,true,NA,true
kcwCfj9X,3087lxlj7ptluqx9bvztb5ithyq0fq,3pm8nzgv82ts5prnjp4wl25abguxq8,kcwCfj9X,2020-0188,2020-11-18,15:52:23,16:06:18,NA,incomplete,19,filling,1,right,Purple_Star_Chess_1.jpg,Purple_Triangle_Dots_4.jpg,Blue_Plus_Chess_3.jpg,right,776.4250000000175,true,NA,true
kcwCfj9X,3087lxlj7ptluqx9bvztb5ithyq0fq,3pm8nzgv82ts5prnjp4wl25abguxq8,kcwCfj9X,2020-0188,2020-11-18,15:52:23,16:06:18,NA,incomplete,20,color,1,left,Red_Star_Dots_4.jpg,Red_Circle_Chess_3.jpg,Blue_Triangle_Dots_1.jpg,left,887.6000000000349,true,NA,true
kcwCfj9X,3087lxlj7ptluqx9bvztb5ithyq0fq,3pm8nzgv82ts5prnjp4wl25abguxq8,kcwCfj9X,2020-0188,2020-11-18,15:52:23,16:06:18,NA,incomplete,21,color,0,right,Green_Plus_Grid_2.jpg,Purple_Circle_Grid_1.jpg,Green_Star_Dots_4.jpg,right,708.0750000000116,true,NA,true
kcwCfj9X,3087lxlj7ptluqx9bvztb5ithyq0fq,3pm8nzgv82ts5prnjp4wl25abguxq8,kcwCfj9X,2020-0188,2020-11-18,15:52:23,16:06:18,NA,incomplete,22,color,1,left,Red_Circle_Chess_3.jpg,Red_Triangle_Dots_1.jpg,Blue_Plus_Chess_4.jpg,left,898.2049999999581,true,NA,true
kcwCfj9X,3087lxlj7ptluqx9bvztb5ithyq0fq,3pm8nzgv82ts5prnjp4wl25abguxq8,kcwCfj9X,2020-0188,2020-11-18,15:52:23,16:06:18,NA,incomplete,23,color,1,left,Green_Star_Chess_2.jpg,Green_Plus_Grid_4.jpg,Red_Triangle_Chess_3.jpg,left,701.5249999999651,true,NA,true
kcwCfj9X,3087lxlj7ptluqx9bvztb5ithyq0fq,3pm8nzgv82ts5prnjp4wl25abguxq8,kcwCfj9X,2020-0188,2020-11-18,15:52:23,16:06:18,NA,incomplete,24,color,1,right,Purple_Plus_Dots_1.jpg,Green_Star_Dots_3.jpg,Purple_Triangle_Chess_4.jpg,right,677.8899999999558,true,NA,true
kcwCfj9X,3087lxlj7ptluqx9bvztb5ithyq0fq,3pm8nzgv82ts5prnjp4wl25abguxq8,kcwCfj9X,2020-0188,2020-11-18,15:52:23,16:06:18,NA,incomplete,25,color,1,left,Green_Circle_Stripes_1.jpg,Green_Star_Grid_2.jpg,Blue_Triangle_Stripes_4.jpg,left,668.4549999999872,true,NA,true
kcwCfj9X,3087lxlj7ptluqx9bvztb5ithyq0fq,3pm8nzgv82ts5prnjp4wl25abguxq8,kcwCfj9X,2020-0188,2020-11-18,15:52:23,16:06:18,NA,incomplete,26,color,0,left,Green_Circle_Chess_3.jpg,Green_Plus_Grid_1.jpg,Purple_Star_Chess_4.jpg,left,528.454999999667,true,NA,true
kcwCfj9X,3087lxlj7ptluqx9bvztb5ithyq0fq,3pm8nzgv82ts5prnjp4wl25abguxq8,kcwCfj9X,2020-0188,2020-11-18,15:52:23,16:06:18,NA,incomplete,27,color,1,right,Green_Star_Chess_1.jpg,Purple_Triangle_Chess_3.jpg,Green_Circle_Dots_2.jpg,right,735.0400000000081,true,NA,true
kcwCfj9X,3087lxlj7ptluqx9bvztb5ithyq0fq,3pm8nzgv82ts5prnjp4wl25abguxq8,kcwCfj9X,2020-0188,2020-11-18,15:52:23,16:06:18,NA,incomplete,28,color,1,right,Green_Circle_Grid_2.jpg,Blue_Plus_Grid_3.jpg,Green_Triangle_Chess_4.jpg,right,542.6499999998778,true,NA,true
kcwCfj9X,3087lxlj7ptluqx9bvztb5ithyq0fq,3pm8nzgv82ts5prnjp4wl25abguxq8,kcwCfj9X,2020-0188,2020-11-18,15:52:23,16:06:18,NA,incomplete,29,color,1,left,Green_Plus_Grid_4.jpg,Green_Star_Dots_1.jpg,Red_Triangle_Grid_3.jpg,left,525.6249999997672,true,NA,true
kcwCfj9X,3087lxlj7ptluqx9bvztb5ithyq0fq,3pm8nzgv82ts5prnjp4wl25abguxq8,kcwCfj9X,2020-0188,2020-11-18,15:52:23,16:06:18,NA,incomplete,30,color,1,left,Blue_Plus_Chess_3.jpg,Blue_Circle_Grid_2.jpg,Red_Star_Chess_1.jpg,left,582.5150000000431,true,NA,true
kcwCfj9X,3087lxlj7ptluqx9bvztb5ithyq0fq,3pm8nzgv82ts5prnjp4wl25abguxq8,kcwCfj9X,2020-0188,2020-11-18,15:52:23,16:06:18,NA,incomplete,31,color,1,left,Blue_Circle_Stripes_4.jpg,Blue_Triangle_Chess_2.jpg,Green_Plus_Stripes_3.jpg,left,570.4700000001176,true,NA,true
kcwCfj9X,3087lxlj7ptluqx9bvztb5ithyq0fq,3pm8nzgv82ts5prnjp4wl25abguxq8,kcwCfj9X,2020-0188,2020-11-18,15:52:23,16:06:18,NA,incomplete,32,color,1,right,Purple_Plus_Stripes_1.jpg,Red_Triangle_Stripes_4.jpg,Purple_Star_Chess_3.jpg,right,572.799999999901,true,NA,true
kcwCfj9X,3087lxlj7ptluqx9bvztb5ithyq0fq,3pm8nzgv82ts5prnjp4wl25abguxq8,kcwCfj9X,2020-0188,2020-11-18,15:52:23,16:06:18,NA,incomplete,33,color,1,left,Blue_Triangle_Dots_3.jpg,Blue_Star_Chess_2.jpg,Green_Circle_Dots_1.jpg,left,613.3750000003492,true,NA,true
kcwCfj9X,3087lxlj7ptluqx9bvztb5ithyq0fq,3pm8nzgv82ts5prnjp4wl25abguxq8,kcwCfj9X,2020-0188,2020-11-18,15:52:23,16:06:18,NA,incomplete,34,color,1,left,Green_Plus_Stripes_1.jpg,Green_Triangle_Grid_2.jpg,Blue_Star_Stripes_3.jpg,left,521.6949999998906,true,NA,true
kcwCfj9X,3087lxlj7ptluqx9bvztb5ithyq0fq,3pm8nzgv82ts5prnjp4wl25abguxq8,kcwCfj9X,2020-0188,2020-11-18,15:52:23,16:06:18,NA,incomplete,35,color,1,right,Purple_Triangle_Grid_2.jpg,Blue_Circle_Grid_4.jpg,Purple_Plus_Chess_3.jpg,right,516.575000000099,true,NA,true
kcwCfj9X,3087lxlj7ptluqx9bvztb5ithyq0fq,3pm8nzgv82ts5prnjp4wl25abguxq8,kcwCfj9X,2020-0188,2020-11-18,15:52:23,16:06:18,NA,incomplete,36,color,1,left,Purple_Circle_Grid_4.jpg,Purple_Star_Stripes_2.jpg,Red_Triangle_Grid_3.jpg,left,610.4199999999837,true,NA,true
kcwCfj9X,3087lxlj7ptluqx9bvztb5ithyq0fq,3pm8nzgv82ts5prnjp4wl25abguxq8,kcwCfj9X,2020-0188,2020-11-18,15:52:23,16:06:18,NA,incomplete,37,color,1,right,Red_Plus_Grid_1.jpg,Green_Star_Grid_3.jpg,Red_Triangle_Dots_2.jpg,right,534.2000000000407,true,NA,true
kcwCfj9X,3087lxlj7ptluqx9bvztb5ithyq0fq,3pm8nzgv82ts5prnjp4wl25abguxq8,kcwCfj9X,2020-0188,2020-11-18,15:52:23,16:06:18,NA,incomplete,38,color,1,right,Green_Triangle_Chess_2.jpg,Purple_Star_Chess_3.jpg,Green_Plus_Grid_1.jpg,right,564.1249999998836,true,NA,true
kcwCfj9X,3087lxlj7ptluqx9bvztb5ithyq0fq,3pm8nzgv82ts5prnjp4wl25abguxq8,kcwCfj9X,2020-0188,2020-11-18,15:52:23,16:06:18,NA,incomplete,39,color,0,left,Green_Circle_Grid_1.jpg,Green_Triangle_Stripes_3.jpg,Blue_Star_Grid_2.jpg,left,485.76499999989755,true,NA,true
kcwCfj9X,3087lxlj7ptluqx9bvztb5ithyq0fq,3pm8nzgv82ts5prnjp4wl25abguxq8,kcwCfj9X,2020-0188,2020-11-18,15:52:23,16:06:18,NA,incomplete,0,filling,1,right,Green_Circle_Chess_4.jpg,Green_Triangle_Stripes_2.jpg,Purple_Star_Chess_1.jpg,left,1051.6000000002095,false,high,false
kcwCfj9X,3087lxlj7ptluqx9bvztb5ithyq0fq,3pm8nzgv82ts5prnjp4wl25abguxq8,kcwCfj9X,2020-0188,2020-11-18,15:52:23,16:06:18,NA,incomplete,1,filling,1,right,Blue_Star_Chess_1.jpg,Blue_Plus_Dots_3.jpg,Red_Triangle_Chess_4.jpg,left,902.1499999999069,false,high,false
kcwCfj9X,3087lxlj7ptluqx9bvztb5ithyq0fq,3pm8nzgv82ts5prnjp4wl25abguxq8,kcwCfj9X,2020-0188,2020-11-18,15:52:23,16:06:18,NA,incomplete,2,filling,1,right,Red_Triangle_Grid_4.jpg,Red_Star_Stripes_1.jpg,Blue_Plus_Grid_2.jpg,right,807.9150000003283,true,high,false
kcwCfj9X,3087lxlj7ptluqx9bvztb5ithyq0fq,3pm8nzgv82ts5prnjp4wl25abguxq8,kcwCfj9X,2020-0188,2020-11-18,15:52:23,16:06:18,NA,incomplete,3,filling,1,left,Blue_Star_Chess_3.jpg,Green_Triangle_Chess_1.jpg,Blue_Circle_Dots_4.jpg,left,646.2000000001863,true,high,false
kcwCfj9X,3087lxlj7ptluqx9bvztb5ithyq0fq,3pm8nzgv82ts5prnjp4wl25abguxq8,kcwCfj9X,2020-0188,2020-11-18,15:52:23,16:06:18,NA,incomplete,4,filling,1,right,Purple_Star_Dots_1.jpg,Purple_Plus_Stripes_2.jpg,Green_Circle_Dots_3.jpg,right,911.3649999999325,true,high,false
kcwCfj9X,3087lxlj7ptluqx9bvztb5ithyq0fq,3pm8nzgv82ts5prnjp4wl25abguxq8,kcwCfj9X,2020-0188,2020-11-18,15:52:23,16:06:18,NA,incomplete,5,filling,1,right,Red_Star_Grid_4.jpg,Red_Triangle_Dots_3.jpg,Blue_Plus_Grid_1.jpg,left,1055.8449999998556,false,high,false
kcwCfj9X,3087lxlj7ptluqx9bvztb5ithyq0fq,3pm8nzgv82ts5prnjp4wl25abguxq8,kcwCfj9X,2020-0188,2020-11-18,15:52:23,16:06:18,NA,incomplete,6,filling,1,right,Purple_Circle_Dots_2.jpg,Purple_Plus_Grid_4.jpg,Red_Triangle_Dots_3.jpg,right,961.0299999999115,true,high,false
kcwCfj9X,3087lxlj7ptluqx9bvztb5ithyq0fq,3pm8nzgv82ts5prnjp4wl25abguxq8,kcwCfj9X,2020-0188,2020-11-18,15:52:23,16:06:18,NA,incomplete,7,filling,0,left,Blue_Plus_Stripes_3.jpg,Green_Triangle_Stripes_2.jpg,Blue_Circle_Chess_1.jpg,left,899.37999999983,true,high,false
kcwCfj9X,3087lxlj7ptluqx9bvztb5ithyq0fq,3pm8nzgv82ts5prnjp4wl25abguxq8,kcwCfj9X,2020-0188,2020-11-18,15:52:23,16:06:18,NA,incomplete,8,filling,1,right,Red_Triangle_Stripes_4.jpg,Red_Plus_Dots_3.jpg,Purple_Circle_Stripes_1.jpg,right,854.1500000000815,true,high,false
kcwCfj9X,3087lxlj7ptluqx9bvztb5ithyq0fq,3pm8nzgv82ts5prnjp4wl25abguxq8,kcwCfj9X,2020-0188,2020-11-18,15:52:23,16:06:18,NA,incomplete,9,filling,1,left,Green_Plus_Chess_4.jpg,Red_Circle_Chess_2.jpg,Green_Triangle_Stripes_3.jpg,left,809.7450000000536,true,high,false
kcwCfj9X,3087lxlj7ptluqx9bvztb5ithyq0fq,3pm8nzgv82ts5prnjp4wl25abguxq8,kcwCfj9X,2020-0188,2020-11-18,15:52:23,16:06:18,NA,incomplete,10,color,1,right,Blue_Circle_Grid_1.jpg,Green_Triangle_Grid_3.jpg,Blue_Plus_Chess_2.jpg,right,735.4300000001676,true,high,false
kcwCfj9X,3087lxlj7ptluqx9bvztb5ithyq0fq,3pm8nzgv82ts5prnjp4wl25abguxq8,kcwCfj9X,2020-0188,2020-11-18,15:52:23,16:06:18,NA,incomplete,11,color,1,right,Red_Triangle_Stripes_3.jpg,Green_Star_Stripes_4.jpg,Red_Plus_Chess_2.jpg,left,776.3899999999558,false,high,false
kcwCfj9X,3087lxlj7ptluqx9bvztb5ithyq0fq,3pm8nzgv82ts5prnjp4wl25abguxq8,kcwCfj9X,2020-0188,2020-11-18,15:52:23,16:06:18,NA,incomplete,12,color,1,left,Green_Plus_Stripes_3.jpg,Green_Circle_Chess_2.jpg,Purple_Triangle_Stripes_1.jpg,right,818.3599999997532,false,high,false
kcwCfj9X,3087lxlj7ptluqx9bvztb5ithyq0fq,3pm8nzgv82ts5prnjp4wl25abguxq8,kcwCfj9X,2020-0188,2020-11-18,15:52:23,16:06:18,NA,incomplete,13,color,1,left,Purple_Plus_Grid_4.jpg,Purple_Triangle_Chess_1.jpg,Red_Star_Grid_3.jpg,right,929.5449999999837,false,high,false
kcwCfj9X,3087lxlj7ptluqx9bvztb5ithyq0fq,3pm8nzgv82ts5prnjp4wl25abguxq8,kcwCfj9X,2020-0188,2020-11-18,15:52:23,16:06:18,NA,incomplete,14,color,0,left,Green_Star_Chess_4.jpg,Green_Plus_Stripes_2.jpg,Purple_Circle_Chess_1.jpg,left,486.26500000001397,true,high,false
kcwCfj9X,3087lxlj7ptluqx9bvztb5ithyq0fq,3pm8nzgv82ts5prnjp4wl25abguxq8,kcwCfj9X,2020-0188,2020-11-18,15:52:23,16:06:18,NA,incomplete,15,color,0,right,Blue_Triangle_Chess_4.jpg,Purple_Star_Chess_3.jpg,Blue_Plus_Grid_2.jpg,right,545.2950000003912,true,high,false
kcwCfj9X,3087lxlj7ptluqx9bvztb5ithyq0fq,3pm8nzgv82ts5prnjp4wl25abguxq8,kcwCfj9X,2020-0188,2020-11-18,15:52:23,16:06:18,NA,incomplete,16,color,1,left,Red_Star_Stripes_1.jpg,Red_Plus_Dots_2.jpg,Green_Circle_Stripes_4.jpg,right,571.2250000001513,false,high,false
kcwCfj9X,3087lxlj7ptluqx9bvztb5ithyq0fq,3pm8nzgv82ts5prnjp4wl25abguxq8,kcwCfj9X,2020-0188,2020-11-18,15:52:23,16:06:18,NA,incomplete,17,color,1,left,Green_Circle_Grid_3.jpg,Green_Plus_Chess_2.jpg,Red_Triangle_Grid_1.jpg,right,888.4049999996787,false,high,false
kcwCfj9X,3087lxlj7ptluqx9bvztb5ithyq0fq,3pm8nzgv82ts5prnjp4wl25abguxq8,kcwCfj9X,2020-0188,2020-11-18,15:52:23,16:06:18,NA,incomplete,18,color,1,right,Purple_Circle_Stripes_4.jpg,Red_Triangle_Stripes_2.jpg,Purple_Star_Dots_3.jpg,left,1099.4849999997532,false,high,false
kcwCfj9X,3087lxlj7ptluqx9bvztb5ithyq0fq,3pm8nzgv82ts5prnjp4wl25abguxq8,kcwCfj9X,2020-0188,2020-11-18,15:52:23,16:06:18,NA,incomplete,19,color,1,left,Green_Star_Stripes_4.jpg,Green_Triangle_Chess_2.jpg,Purple_Circle_Stripes_1.jpg,right,1081.4399999999441,false,high,false
kcwCfj9X,3087lxlj7ptluqx9bvztb5ithyq0fq,3pm8nzgv82ts5prnjp4wl25abguxq8,kcwCfj9X,2020-0188,2020-11-18,15:52:23,16:06:18,NA,incomplete,20,filling,1,right,Red_Star_Chess_1.jpg,Red_Circle_Dots_4.jpg,Blue_Triangle_Chess_2.jpg,right,855.3800000000047,true,high,false
kcwCfj9X,3087lxlj7ptluqx9bvztb5ithyq0fq,3pm8nzgv82ts5prnjp4wl25abguxq8,kcwCfj9X,2020-0188,2020-11-18,15:52:23,16:06:18,NA,incomplete,21,filling,1,right,Red_Star_Chess_2.jpg,Red_Triangle_Stripes_1.jpg,Purple_Plus_Chess_4.jpg,right,993.6250000001164,true,high,false
kcwCfj9X,3087lxlj7ptluqx9bvztb5ithyq0fq,3pm8nzgv82ts5prnjp4wl25abguxq8,kcwCfj9X,2020-0188,2020-11-18,15:52:23,16:06:18,NA,incomplete,22,filling,1,right,Blue_Circle_Grid_1.jpg,Blue_Plus_Stripes_4.jpg,Purple_Triangle_Grid_3.jpg,right,820.7999999999884,true,high,false
kcwCfj9X,3087lxlj7ptluqx9bvztb5ithyq0fq,3pm8nzgv82ts5prnjp4wl25abguxq8,kcwCfj9X,2020-0188,2020-11-18,15:52:23,16:06:18,NA,incomplete,23,filling,1,left,Purple_Plus_Grid_4.jpg,Red_Star_Grid_1.jpg,Purple_Triangle_Stripes_2.jpg,left,829.0099999998929,true,high,false
kcwCfj9X,3087lxlj7ptluqx9bvztb5ithyq0fq,3pm8nzgv82ts5prnjp4wl25abguxq8,kcwCfj9X,2020-0188,2020-11-18,15:52:23,16:06:18,NA,incomplete,24,filling,1,left,Blue_Circle_Grid_4.jpg,Purple_Plus_Grid_2.jpg,Blue_Triangle_Dots_1.jpg,left,806.465000000142,true,high,false
kcwCfj9X,3087lxlj7ptluqx9bvztb5ithyq0fq,3pm8nzgv82ts5prnjp4wl25abguxq8,kcwCfj9X,2020-0188,2020-11-18,15:52:23,16:06:18,NA,incomplete,25,filling,1,left,Blue_Plus_Stripes_2.jpg,Red_Star_Stripes_3.jpg,Blue_Circle_Dots_1.jpg,left,848.059999999823,true,high,false
kcwCfj9X,3087lxlj7ptluqx9bvztb5ithyq0fq,3pm8nzgv82ts5prnjp4wl25abguxq8,kcwCfj9X,2020-0188,2020-11-18,15:52:23,16:06:18,NA,incomplete,26,filling,1,left,Green_Star_Stripes_2.jpg,Red_Plus_Stripes_3.jpg,Green_Circle_Dots_4.jpg,left,834.6050000000396,true,high,false
kcwCfj9X,3087lxlj7ptluqx9bvztb5ithyq0fq,3pm8nzgv82ts5prnjp4wl25abguxq8,kcwCfj9X,2020-0188,2020-11-18,15:52:23,16:06:18,NA,incomplete,27,filling,1,right,Blue_Triangle_Stripes_1.jpg,Blue_Plus_Dots_2.jpg,Green_Star_Stripes_4.jpg,right,833.0550000000512,true,high,false
kcwCfj9X,3087lxlj7ptluqx9bvztb5ithyq0fq,3pm8nzgv82ts5prnjp4wl25abguxq8,kcwCfj9X,2020-0188,2020-11-18,15:52:23,16:06:18,NA,incomplete,28,filling,0,right,Purple_Star_Chess_2.jpg,Purple_Triangle_Stripes_3.jpg,Green_Circle_Chess_4.jpg,right,1185.4000000003143,true,high,false
kcwCfj9X,3087lxlj7ptluqx9bvztb5ithyq0fq,3pm8nzgv82ts5prnjp4wl25abguxq8,kcwCfj9X,2020-0188,2020-11-18,15:52:23,16:06:18,NA,incomplete,29,filling,1,right,Green_Triangle_Grid_1.jpg,Green_Circle_Chess_3.jpg,Red_Star_Grid_2.jpg,right,931.3099999999395,true,high,false
kcwCfj9X,3087lxlj7ptluqx9bvztb5ithyq0fq,3pm8nzgv82ts5prnjp4wl25abguxq8,kcwCfj9X,2020-0188,2020-11-18,15:52:23,16:06:18,NA,incomplete,30,color,1,right,Green_Plus_Grid_4.jpg,Blue_Circle_Grid_1.jpg,Green_Triangle_Stripes_3.jpg,left,883.809999999823,false,high,false
kcwCfj9X,3087lxlj7ptluqx9bvztb5ithyq0fq,3pm8nzgv82ts5prnjp4wl25abguxq8,kcwCfj9X,2020-0188,2020-11-18,15:52:23,16:06:18,NA,incomplete,31,color,0,left,Red_Plus_Grid_1.jpg,Red_Circle_Stripes_3.jpg,Green_Star_Grid_4.jpg,right,851.4249999998137,false,high,false
kcwCfj9X,3087lxlj7ptluqx9bvztb5ithyq0fq,3pm8nzgv82ts5prnjp4wl25abguxq8,kcwCfj9X,2020-0188,2020-11-18,15:52:23,16:06:18,NA,incomplete,32,color,1,right,Blue_Plus_Grid_1.jpg,Red_Circle_Grid_2.jpg,Blue_Triangle_Chess_4.jpg,left,820.9500000002445,false,high,false
kcwCfj9X,3087lxlj7ptluqx9bvztb5ithyq0fq,3pm8nzgv82ts5prnjp4wl25abguxq8,kcwCfj9X,2020-0188,2020-11-18,15:52:23,16:06:18,NA,incomplete,33,color,0,right,Red_Plus_Dots_4.jpg,Green_Circle_Dots_1.jpg,Red_Triangle_Chess_2.jpg,left,945.4150000001537,false,high,false
kcwCfj9X,3087lxlj7ptluqx9bvztb5ithyq0fq,3pm8nzgv82ts5prnjp4wl25abguxq8,kcwCfj9X,2020-0188,2020-11-18,15:52:23,16:06:18,NA,incomplete,34,color,1,left,Purple_Circle_Dots_3.jpg,Purple_Triangle_Grid_1.jpg,Blue_Star_Dots_4.jpg,right,827.4900000001071,false,high,false
kcwCfj9X,3087lxlj7ptluqx9bvztb5ithyq0fq,3pm8nzgv82ts5prnjp4wl25abguxq8,kcwCfj9X,2020-0188,2020-11-18,15:52:23,16:06:18,NA,incomplete,35,color,1,right,Purple_Circle_Chess_1.jpg,Green_Star_Chess_4.jpg,Purple_Plus_Stripes_3.jpg,left,805.8899999996647,false,high,false
kcwCfj9X,3087lxlj7ptluqx9bvztb5ithyq0fq,3pm8nzgv82ts5prnjp4wl25abguxq8,kcwCfj9X,2020-0188,2020-11-18,15:52:23,16:06:18,NA,incomplete,36,color,0,left,Blue_Circle_Grid_1.jpg,Blue_Triangle_Stripes_4.jpg,Purple_Star_Grid_3.jpg,left,528.0649999999441,true,high,false
kcwCfj9X,3087lxlj7ptluqx9bvztb5ithyq0fq,3pm8nzgv82ts5prnjp4wl25abguxq8,kcwCfj9X,2020-0188,2020-11-18,15:52:23,16:06:18,NA,incomplete,37,color,1,right,Green_Triangle_Dots_4.jpg,Red_Circle_Dots_1.jpg,Green_Star_Stripes_3.jpg,left,833.8300000000745,false,high,false
kcwCfj9X,3087lxlj7ptluqx9bvztb5ithyq0fq,3pm8nzgv82ts5prnjp4wl25abguxq8,kcwCfj9X,2020-0188,2020-11-18,15:52:23,16:06:18,NA,incomplete,38,color,1,left,Blue_Circle_Chess_3.jpg,Blue_Triangle_Dots_2.jpg,Purple_Star_Chess_1.jpg,left,538.7850000002072,true,high,false
kcwCfj9X,3087lxlj7ptluqx9bvztb5ithyq0fq,3pm8nzgv82ts5prnjp4wl25abguxq8,kcwCfj9X,2020-0188,2020-11-18,15:52:23,16:06:18,NA,incomplete,39,color,0,left,Blue_Star_Grid_3.jpg,Blue_Plus_Chess_4.jpg,Purple_Circle_Grid_1.jpg,left,456.16500000003725,true,high,false
kcwCfj9X,3087lxlj7ptluqx9bvztb5ithyq0fq,3pm8nzgv82ts5prnjp4wl25abguxq8,kcwCfj9X,2020-0188,2020-11-18,15:52:23,16:06:18,NA,incomplete,40,filling,1,left,Blue_Star_Dots_4.jpg,Purple_Triangle_Dots_1.jpg,Blue_Circle_Chess_2.jpg,right,556.6749999998137,false,high,false
kcwCfj9X,3087lxlj7ptluqx9bvztb5ithyq0fq,3pm8nzgv82ts5prnjp4wl25abguxq8,kcwCfj9X,2020-0188,2020-11-18,15:52:23,16:06:18,NA,incomplete,41,filling,1,left,Red_Triangle_Grid_2.jpg,Purple_Star_Grid_1.jpg,Red_Plus_Dots_3.jpg,left,906.1200000001118,true,high,false
kcwCfj9X,3087lxlj7ptluqx9bvztb5ithyq0fq,3pm8nzgv82ts5prnjp4wl25abguxq8,kcwCfj9X,2020-0188,2020-11-18,15:52:23,16:06:18,NA,incomplete,42,filling,1,right,Green_Star_Stripes_2.jpg,Green_Circle_Dots_3.jpg,Blue_Plus_Stripes_1.jpg,right,838.7950000001583,true,high,false
kcwCfj9X,3087lxlj7ptluqx9bvztb5ithyq0fq,3pm8nzgv82ts5prnjp4wl25abguxq8,kcwCfj9X,2020-0188,2020-11-18,15:52:23,16:06:18,NA,incomplete,43,filling,1,right,Red_Triangle_Dots_2.jpg,Red_Star_Chess_3.jpg,Purple_Circle_Dots_4.jpg,right,776.9000000002561,true,high,false
kcwCfj9X,3087lxlj7ptluqx9bvztb5ithyq0fq,3pm8nzgv82ts5prnjp4wl25abguxq8,kcwCfj9X,2020-0188,2020-11-18,15:52:23,16:06:18,NA,incomplete,44,filling,1,right,Green_Plus_Grid_1.jpg,Green_Circle_Dots_4.jpg,Blue_Triangle_Grid_2.jpg,right,760.4249999999302,true,high,false
kcwCfj9X,3087lxlj7ptluqx9bvztb5ithyq0fq,3pm8nzgv82ts5prnjp4wl25abguxq8,kcwCfj9X,2020-0188,2020-11-18,15:52:23,16:06:18,NA,incomplete,45,filling,0,left,Green_Circle_Grid_1.jpg,Purple_Star_Grid_2.jpg,Green_Triangle_Dots_3.jpg,left,677.0200000000768,true,high,false
kcwCfj9X,3087lxlj7ptluqx9bvztb5ithyq0fq,3pm8nzgv82ts5prnjp4wl25abguxq8,kcwCfj9X,2020-0188,2020-11-18,15:52:23,16:06:18,NA,incomplete,46,filling,0,right,Red_Circle_Stripes_1.jpg,Red_Triangle_Dots_2.jpg,Green_Plus_Stripes_4.jpg,right,806.8450000000885,true,high,false
kcwCfj9X,3087lxlj7ptluqx9bvztb5ithyq0fq,3pm8nzgv82ts5prnjp4wl25abguxq8,kcwCfj9X,2020-0188,2020-11-18,15:52:23,16:06:18,NA,incomplete,47,filling,1,left,Blue_Circle_Chess_2.jpg,Green_Star_Chess_4.jpg,Blue_Plus_Dots_1.jpg,left,747.8149999997113,true,high,false
kcwCfj9X,3087lxlj7ptluqx9bvztb5ithyq0fq,3pm8nzgv82ts5prnjp4wl25abguxq8,kcwCfj9X,2020-0188,2020-11-18,15:52:23,16:06:18,NA,incomplete,48,filling,1,left,Blue_Plus_Chess_1.jpg,Purple_Triangle_Chess_4.jpg,Blue_Star_Dots_3.jpg,left,752.7099999997299,true,high,false
kcwCfj9X,3087lxlj7ptluqx9bvztb5ithyq0fq,3pm8nzgv82ts5prnjp4wl25abguxq8,kcwCfj9X,2020-0188,2020-11-18,15:52:23,16:06:18,NA,incomplete,49,filling,1,right,Blue_Circle_Dots_2.jpg,Blue_Triangle_Stripes_1.jpg,Red_Plus_Dots_3.jpg,right,775.7150000002002,true,high,false
kcwCfj9X,3087lxlj7ptluqx9bvztb5ithyq0fq,3pm8nzgv82ts5prnjp4wl25abguxq8,kcwCfj9X,2020-0188,2020-11-18,15:52:23,16:06:18,NA,incomplete,50,color,1,right,Blue_Circle_Grid_4.jpg,Red_Star_Grid_2.jpg,Blue_Plus_Stripes_3.jpg,right,874.3850000000675,true,high,false
kcwCfj9X,3087lxlj7ptluqx9bvztb5ithyq0fq,3pm8nzgv82ts5prnjp4wl25abguxq8,kcwCfj9X,2020-0188,2020-11-18,15:52:23,16:06:18,NA,incomplete,51,color,1,left,Red_Triangle_Stripes_4.jpg,Red_Circle_Dots_3.jpg,Blue_Plus_Stripes_2.jpg,left,543.3200000002398,true,high,false
kcwCfj9X,3087lxlj7ptluqx9bvztb5ithyq0fq,3pm8nzgv82ts5prnjp4wl25abguxq8,kcwCfj9X,2020-0188,2020-11-18,15:52:23,16:06:18,NA,incomplete,52,color,1,right,Green_Plus_Dots_3.jpg,Blue_Triangle_Dots_1.jpg,Green_Circle_Chess_2.jpg,right,473.8900000001886,true,high,false
kcwCfj9X,3087lxlj7ptluqx9bvztb5ithyq0fq,3pm8nzgv82ts5prnjp4wl25abguxq8,kcwCfj9X,2020-0188,2020-11-18,15:52:23,16:06:18,NA,incomplete,53,color,1,right,Green_Star_Dots_3.jpg,Blue_Circle_Dots_4.jpg,Green_Triangle_Chess_2.jpg,right,453.44999999995343,true,high,false
kcwCfj9X,3087lxlj7ptluqx9bvztb5ithyq0fq,3pm8nzgv82ts5prnjp4wl25abguxq8,kcwCfj9X,2020-0188,2020-11-18,15:52:23,16:06:18,NA,incomplete,54,color,0,left,Green_Star_Chess_2.jpg,Green_Plus_Grid_3.jpg,Blue_Circle_Chess_1.jpg,left,389.5049999996554,true,high,false
kcwCfj9X,3087lxlj7ptluqx9bvztb5ithyq0fq,3pm8nzgv82ts5prnjp4wl25abguxq8,kcwCfj9X,2020-0188,2020-11-18,15:52:23,16:06:18,NA,incomplete,55,color,0,right,Red_Plus_Chess_4.jpg,Green_Triangle_Chess_1.jpg,Red_Circle_Stripes_2.jpg,right,452.3150000000023,true,high,false
kcwCfj9X,3087lxlj7ptluqx9bvztb5ithyq0fq,3pm8nzgv82ts5prnjp4wl25abguxq8,kcwCfj9X,2020-0188,2020-11-18,15:52:23,16:06:18,NA,incomplete,56,color,1,left,Purple_Star_Chess_1.jpg,Purple_Triangle_Stripes_4.jpg,Red_Circle_Chess_2.jpg,right,822.5499999998719,false,high,false
kcwCfj9X,3087lxlj7ptluqx9bvztb5ithyq0fq,3pm8nzgv82ts5prnjp4wl25abguxq8,kcwCfj9X,2020-0188,2020-11-18,15:52:23,16:06:18,NA,incomplete,57,color,1,right,Purple_Star_Chess_2.jpg,Red_Plus_Chess_3.jpg,Purple_Circle_Dots_1.jpg,left,848.5300000002026,false,high,false
kcwCfj9X,3087lxlj7ptluqx9bvztb5ithyq0fq,3pm8nzgv82ts5prnjp4wl25abguxq8,kcwCfj9X,2020-0188,2020-11-18,15:52:23,16:06:18,NA,incomplete,58,color,1,left,Blue_Triangle_Stripes_3.jpg,Blue_Circle_Dots_4.jpg,Purple_Star_Stripes_1.jpg,right,878.0599999999977,false,high,false
kcwCfj9X,3087lxlj7ptluqx9bvztb5ithyq0fq,3pm8nzgv82ts5prnjp4wl25abguxq8,kcwCfj9X,2020-0188,2020-11-18,15:52:23,16:06:18,NA,incomplete,59,color,0,right,Blue_Triangle_Dots_2.jpg,Purple_Star_Dots_3.jpg,Blue_Plus_Chess_4.jpg,right,539.2750000000815,true,high,false
kcwCfj9X,3087lxlj7ptluqx9bvztb5ithyq0fq,3pm8nzgv82ts5prnjp4wl25abguxq8,kcwCfj9X,2020-0188,2020-11-18,15:52:23,16:06:18,NA,incomplete,60,filling,1,left,Blue_Circle_Chess_3.jpg,Purple_Triangle_Chess_2.jpg,Blue_Plus_Stripes_4.jpg,left,807.5249999997322,true,high,false
kcwCfj9X,3087lxlj7ptluqx9bvztb5ithyq0fq,3pm8nzgv82ts5prnjp4wl25abguxq8,kcwCfj9X,2020-0188,2020-11-18,15:52:23,16:06:18,NA,incomplete,61,filling,1,right,Purple_Plus_Chess_3.jpg,Purple_Triangle_Stripes_2.jpg,Red_Star_Chess_4.jpg,right,738.7149999999674,true,high,false
kcwCfj9X,3087lxlj7ptluqx9bvztb5ithyq0fq,3pm8nzgv82ts5prnjp4wl25abguxq8,kcwCfj9X,2020-0188,2020-11-18,15:52:23,16:06:18,NA,incomplete,62,filling,1,left,Red_Triangle_Dots_4.jpg,Blue_Star_Dots_1.jpg,Red_Plus_Grid_3.jpg,left,832.2800000000861,true,high,false
kcwCfj9X,3087lxlj7ptluqx9bvztb5ithyq0fq,3pm8nzgv82ts5prnjp4wl25abguxq8,kcwCfj9X,2020-0188,2020-11-18,15:52:23,16:06:18,NA,incomplete,63,filling,1,right,Purple_Star_Grid_1.jpg,Purple_Circle_Stripes_2.jpg,Green_Plus_Grid_3.jpg,right,917.6699999998091,true,high,false
kcwCfj9X,3087lxlj7ptluqx9bvztb5ithyq0fq,3pm8nzgv82ts5prnjp4wl25abguxq8,kcwCfj9X,2020-0188,2020-11-18,15:52:23,16:06:18,NA,incomplete,64,filling,1,right,Green_Plus_Dots_3.jpg,Green_Star_Chess_4.jpg,Red_Triangle_Dots_1.jpg,right,791.5699999998906,true,high,false
kcwCfj9X,3087lxlj7ptluqx9bvztb5ithyq0fq,3pm8nzgv82ts5prnjp4wl25abguxq8,kcwCfj9X,2020-0188,2020-11-18,15:52:23,16:06:18,NA,incomplete,65,filling,1,right,Purple_Plus_Grid_3.jpg,Purple_Circle_Chess_4.jpg,Blue_Triangle_Grid_2.jpg,right,815.645000000135,true,high,false
kcwCfj9X,3087lxlj7ptluqx9bvztb5ithyq0fq,3pm8nzgv82ts5prnjp4wl25abguxq8,kcwCfj9X,2020-0188,2020-11-18,15:52:23,16:06:18,NA,incomplete,66,filling,1,left,Green_Plus_Stripes_4.jpg,Blue_Circle_Stripes_2.jpg,Green_Triangle_Dots_3.jpg,left,784.9700000001467,true,high,false
kcwCfj9X,3087lxlj7ptluqx9bvztb5ithyq0fq,3pm8nzgv82ts5prnjp4wl25abguxq8,kcwCfj9X,2020-0188,2020-11-18,15:52:23,16:06:18,NA,incomplete,67,filling,1,left,Purple_Circle_Dots_3.jpg,Blue_Plus_Dots_2.jpg,Purple_Triangle_Stripes_4.jpg,left,763.9199999998673,true,high,false
kcwCfj9X,3087lxlj7ptluqx9bvztb5ithyq0fq,3pm8nzgv82ts5prnjp4wl25abguxq8,kcwCfj9X,2020-0188,2020-11-18,15:52:23,16:06:18,NA,incomplete,68,filling,1,left,Red_Plus_Stripes_3.jpg,Purple_Star_Stripes_1.jpg,Red_Circle_Dots_2.jpg,left,788.8700000002864,true,high,false
kcwCfj9X,3087lxlj7ptluqx9bvztb5ithyq0fq,3pm8nzgv82ts5prnjp4wl25abguxq8,kcwCfj9X,2020-0188,2020-11-18,15:52:23,16:06:18,NA,incomplete,69,filling,1,left,Red_Plus_Chess_4.jpg,Purple_Circle_Chess_1.jpg,Red_Triangle_Grid_2.jpg,left,778.585000000021,true,high,false
kcwCfj9X,3087lxlj7ptluqx9bvztb5ithyq0fq,3pm8nzgv82ts5prnjp4wl25abguxq8,kcwCfj9X,2020-0188,2020-11-18,15:52:23,16:06:18,NA,incomplete,70,color,1,right,Purple_Plus_Dots_1.jpg,Blue_Star_Dots_3.jpg,Purple_Circle_Chess_4.jpg,left,711.4499999997788,false,high,false
kcwCfj9X,3087lxlj7ptluqx9bvztb5ithyq0fq,3pm8nzgv82ts5prnjp4wl25abguxq8,kcwCfj9X,2020-0188,2020-11-18,15:52:23,16:06:18,NA,incomplete,71,color,1,right,Green_Plus_Grid_3.jpg,Purple_Star_Grid_4.jpg,Green_Triangle_Chess_2.jpg,right,814.0650000000605,true,high,false
kcwCfj9X,3087lxlj7ptluqx9bvztb5ithyq0fq,3pm8nzgv82ts5prnjp4wl25abguxq8,kcwCfj9X,2020-0188,2020-11-18,15:52:23,16:06:18,NA,incomplete,72,color,1,right,Blue_Triangle_Chess_4.jpg,Purple_Star_Chess_2.jpg,Blue_Circle_Dots_1.jpg,left,750.5550000000512,false,high,false
kcwCfj9X,3087lxlj7ptluqx9bvztb5ithyq0fq,3pm8nzgv82ts5prnjp4wl25abguxq8,kcwCfj9X,2020-0188,2020-11-18,15:52:23,16:06:18,NA,incomplete,73,color,1,left,Purple_Plus_Stripes_3.jpg,Purple_Triangle_Chess_2.jpg,Green_Star_Stripes_4.jpg,left,538.5549999996438,true,high,false
kcwCfj9X,3087lxlj7ptluqx9bvztb5ithyq0fq,3pm8nzgv82ts5prnjp4wl25abguxq8,kcwCfj9X,2020-0188,2020-11-18,15:52:23,16:06:18,NA,incomplete,74,color,1,left,Red_Plus_Dots_3.jpg,Red_Triangle_Stripes_2.jpg,Green_Circle_Dots_4.jpg,left,558.2249999997439,true,high,false
kcwCfj9X,3087lxlj7ptluqx9bvztb5ithyq0fq,3pm8nzgv82ts5prnjp4wl25abguxq8,kcwCfj9X,2020-0188,2020-11-18,15:52:23,16:06:18,NA,incomplete,75,color,1,right,Red_Plus_Grid_2.jpg,Green_Circle_Grid_4.jpg,Red_Triangle_Stripes_3.jpg,right,468.6500000002561,true,high,false
kcwCfj9X,3087lxlj7ptluqx9bvztb5ithyq0fq,3pm8nzgv82ts5prnjp4wl25abguxq8,kcwCfj9X,2020-0188,2020-11-18,15:52:23,16:06:18,NA,incomplete,76,color,1,right,Purple_Triangle_Chess_3.jpg,Red_Plus_Chess_2.jpg,Purple_Star_Dots_4.jpg,right,524.9699999999139,true,high,false
kcwCfj9X,3087lxlj7ptluqx9bvztb5ithyq0fq,3pm8nzgv82ts5prnjp4wl25abguxq8,kcwCfj9X,2020-0188,2020-11-18,15:52:23,16:06:18,NA,incomplete,77,color,1,right,Red_Plus_Chess_3.jpg,Blue_Circle_Chess_2.jpg,Red_Star_Grid_4.jpg,right,528.7699999999022,true,high,false
kcwCfj9X,3087lxlj7ptluqx9bvztb5ithyq0fq,3pm8nzgv82ts5prnjp4wl25abguxq8,kcwCfj9X,2020-0188,2020-11-18,15:52:23,16:06:18,NA,incomplete,78,color,1,right,Red_Circle_Stripes_2.jpg,Purple_Triangle_Stripes_4.jpg,Red_Star_Dots_3.jpg,right,497.55000000004657,true,high,false
kcwCfj9X,3087lxlj7ptluqx9bvztb5ithyq0fq,3pm8nzgv82ts5prnjp4wl25abguxq8,kcwCfj9X,2020-0188,2020-11-18,15:52:23,16:06:18,NA,incomplete,79,color,1,right,Green_Circle_Grid_3.jpg,Red_Star_Grid_1.jpg,Green_Triangle_Chess_4.jpg,right,567.8550000002724,true,high,false
kcwCfj9X,3087lxlj7ptluqx9bvztb5ithyq0fq,3pm8nzgv82ts5prnjp4wl25abguxq8,kcwCfj9X,2020-0188,2020-11-18,15:52:23,16:06:18,NA,incomplete,80,filling,1,left,Blue_Triangle_Chess_4.jpg,Red_Plus_Chess_2.jpg,Blue_Circle_Stripes_3.jpg,right,444.4250000001048,false,high,false
kcwCfj9X,3087lxlj7ptluqx9bvztb5ithyq0fq,3pm8nzgv82ts5prnjp4wl25abguxq8,kcwCfj9X,2020-0188,2020-11-18,15:52:23,16:06:18,NA,incomplete,81,filling,1,right,Purple_Circle_Chess_3.jpg,Purple_Star_Dots_4.jpg,Green_Triangle_Chess_1.jpg,right,840.3450000000885,true,high,false
kcwCfj9X,3087lxlj7ptluqx9bvztb5ithyq0fq,3pm8nzgv82ts5prnjp4wl25abguxq8,kcwCfj9X,2020-0188,2020-11-18,15:52:23,16:06:18,NA,incomplete,82,filling,1,left,Green_Circle_Stripes_4.jpg,Red_Star_Stripes_1.jpg,Green_Plus_Dots_2.jpg,left,868.1150000002235,true,high,false
kcwCfj9X,3087lxlj7ptluqx9bvztb5ithyq0fq,3pm8nzgv82ts5prnjp4wl25abguxq8,kcwCfj9X,2020-0188,2020-11-18,15:52:23,16:06:18,NA,incomplete,83,filling,1,left,Green_Triangle_Chess_1.jpg,Blue_Star_Chess_4.jpg,Green_Plus_Grid_3.jpg,left,849.3499999999185,true,high,false
kcwCfj9X,3087lxlj7ptluqx9bvztb5ithyq0fq,3pm8nzgv82ts5prnjp4wl25abguxq8,kcwCfj9X,2020-0188,2020-11-18,15:52:23,16:06:18,NA,incomplete,84,filling,0,left,Purple_Circle_Grid_1.jpg,Red_Star_Grid_2.jpg,Purple_Plus_Chess_3.jpg,left,792.7299999996321,true,high,false
kcwCfj9X,3087lxlj7ptluqx9bvztb5ithyq0fq,3pm8nzgv82ts5prnjp4wl25abguxq8,kcwCfj9X,2020-0188,2020-11-18,15:52:23,16:06:18,NA,incomplete,85,filling,1,left,Green_Plus_Grid_2.jpg,Purple_Triangle_Grid_1.jpg,Green_Circle_Stripes_3.jpg,left,856.039999999688,true,high,false
kcwCfj9X,3087lxlj7ptluqx9bvztb5ithyq0fq,3pm8nzgv82ts5prnjp4wl25abguxq8,kcwCfj9X,2020-0188,2020-11-18,15:52:23,16:06:18,NA,incomplete,86,filling,0,right,Purple_Star_Chess_3.jpg,Purple_Triangle_Stripes_4.jpg,Green_Plus_Chess_2.jpg,right,759.8699999998207,true,high,false
kcwCfj9X,3087lxlj7ptluqx9bvztb5ithyq0fq,3pm8nzgv82ts5prnjp4wl25abguxq8,kcwCfj9X,2020-0188,2020-11-18,15:52:23,16:06:18,NA,incomplete,87,filling,0,right,Purple_Triangle_Stripes_1.jpg,Purple_Star_Dots_2.jpg,Blue_Circle_Stripes_3.jpg,left,593.0450000001001,false,high,false
kcwCfj9X,3087lxlj7ptluqx9bvztb5ithyq0fq,3pm8nzgv82ts5prnjp4wl25abguxq8,kcwCfj9X,2020-0188,2020-11-18,15:52:23,16:06:18,NA,incomplete,88,filling,1,right,Purple_Triangle_Dots_4.jpg,Purple_Plus_Stripes_3.jpg,Blue_Circle_Dots_1.jpg,left,516.3299999998999,false,high,false
kcwCfj9X,3087lxlj7ptluqx9bvztb5ithyq0fq,3pm8nzgv82ts5prnjp4wl25abguxq8,kcwCfj9X,2020-0188,2020-11-18,15:52:23,16:06:18,NA,incomplete,89,filling,1,left,Green_Triangle_Chess_2.jpg,Blue_Circle_Chess_1.jpg,Green_Plus_Grid_3.jpg,right,483.4250000003376,false,high,false
kcwCfj9X,3087lxlj7ptluqx9bvztb5ithyq0fq,3pm8nzgv82ts5prnjp4wl25abguxq8,kcwCfj9X,2020-0188,2020-11-18,15:52:23,16:06:18,NA,incomplete,90,color,1,right,Red_Triangle_Chess_1.jpg,Green_Circle_Chess_3.jpg,Red_Plus_Grid_4.jpg,left,835.0999999998021,false,high,false
kcwCfj9X,3087lxlj7ptluqx9bvztb5ithyq0fq,3pm8nzgv82ts5prnjp4wl25abguxq8,kcwCfj9X,2020-0188,2020-11-18,15:52:23,16:06:18,NA,incomplete,91,color,0,left,Green_Plus_Grid_3.jpg,Green_Circle_Dots_2.jpg,Purple_Triangle_Grid_4.jpg,left,492.7400000001071,true,high,false
kcwCfj9X,3087lxlj7ptluqx9bvztb5ithyq0fq,3pm8nzgv82ts5prnjp4wl25abguxq8,kcwCfj9X,2020-0188,2020-11-18,15:52:23,16:06:18,NA,incomplete,92,color,1,right,Red_Triangle_Dots_1.jpg,Green_Star_Dots_3.jpg,Red_Plus_Stripes_2.jpg,right,557.4550000001327,true,high,false
kcwCfj9X,3087lxlj7ptluqx9bvztb5ithyq0fq,3pm8nzgv82ts5prnjp4wl25abguxq8,kcwCfj9X,2020-0188,2020-11-18,15:52:23,16:06:18,NA,incomplete,93,color,1,right,Purple_Circle_Chess_3.jpg,Red_Triangle_Chess_1.jpg,Purple_Star_Grid_4.jpg,right,488.4099999999744,true,high,false
kcwCfj9X,3087lxlj7ptluqx9bvztb5ithyq0fq,3pm8nzgv82ts5prnjp4wl25abguxq8,kcwCfj9X,2020-0188,2020-11-18,15:52:23,16:06:18,NA,incomplete,94,color,1,left,Green_Triangle_Dots_3.jpg,Green_Circle_Stripes_4.jpg,Red_Star_Dots_2.jpg,left,449.70000000012806,true,high,false
kcwCfj9X,3087lxlj7ptluqx9bvztb5ithyq0fq,3pm8nzgv82ts5prnjp4wl25abguxq8,kcwCfj9X,2020-0188,2020-11-18,15:52:23,16:06:18,NA,incomplete,95,color,1,right,Red_Circle_Grid_2.jpg,Green_Star_Grid_1.jpg,Red_Triangle_Chess_4.jpg,right,477.8550000000978,true,high,false
kcwCfj9X,3087lxlj7ptluqx9bvztb5ithyq0fq,3pm8nzgv82ts5prnjp4wl25abguxq8,kcwCfj9X,2020-0188,2020-11-18,15:52:23,16:06:18,NA,incomplete,96,color,0,right,Red_Star_Chess_3.jpg,Blue_Circle_Chess_4.jpg,Red_Triangle_Dots_1.jpg,right,520.8399999996764,true,high,false
kcwCfj9X,3087lxlj7ptluqx9bvztb5ithyq0fq,3pm8nzgv82ts5prnjp4wl25abguxq8,kcwCfj9X,2020-0188,2020-11-18,15:52:23,16:06:18,NA,incomplete,97,color,1,left,Purple_Star_Stripes_4.jpg,Purple_Circle_Grid_2.jpg,Green_Plus_Stripes_1.jpg,left,471.79000000009546,true,high,false
kcwCfj9X,3087lxlj7ptluqx9bvztb5ithyq0fq,3pm8nzgv82ts5prnjp4wl25abguxq8,kcwCfj9X,2020-0188,2020-11-18,15:52:23,16:06:18,NA,incomplete,98,color,1,right,Green_Plus_Grid_1.jpg,Red_Triangle_Grid_3.jpg,Green_Star_Chess_4.jpg,right,463.23500000016065,true,high,false
kcwCfj9X,3087lxlj7ptluqx9bvztb5ithyq0fq,3pm8nzgv82ts5prnjp4wl25abguxq8,kcwCfj9X,2020-0188,2020-11-18,15:52:23,16:06:18,NA,incomplete,99,color,1,right,Blue_Triangle_Grid_4.jpg,Purple_Plus_Grid_2.jpg,Blue_Star_Stripes_1.jpg,right,533.9100000000908,true,high,false
kcwCfj9X,3087lxlj7ptluqx9bvztb5ithyq0fq,3pm8nzgv82ts5prnjp4wl25abguxq8,kcwCfj9X,2020-0188,2020-11-18,15:52:23,16:06:18,NA,incomplete,100,filling,1,right,Red_Triangle_Grid_3.jpg,Red_Circle_Stripes_2.jpg,Green_Star_Grid_4.jpg,left,420.6299999995972,false,high,false
kcwCfj9X,3087lxlj7ptluqx9bvztb5ithyq0fq,3pm8nzgv82ts5prnjp4wl25abguxq8,kcwCfj9X,2020-0188,2020-11-18,15:52:23,16:06:18,NA,incomplete,101,filling,0,left,Blue_Star_Dots_1.jpg,Purple_Plus_Dots_2.jpg,Blue_Triangle_Chess_3.jpg,right,488.6700000001583,false,high,false
kcwCfj9X,3087lxlj7ptluqx9bvztb5ithyq0fq,3pm8nzgv82ts5prnjp4wl25abguxq8,kcwCfj9X,2020-0188,2020-11-18,15:52:23,16:06:18,NA,incomplete,102,filling,0,right,Red_Circle_Stripes_2.jpg,Red_Triangle_Chess_1.jpg,Green_Star_Stripes_3.jpg,left,474.4700000001467,false,high,false
kcwCfj9X,3087lxlj7ptluqx9bvztb5ithyq0fq,3pm8nzgv82ts5prnjp4wl25abguxq8,kcwCfj9X,2020-0188,2020-11-18,15:52:23,16:06:18,NA,incomplete,103,filling,0,right,Red_Triangle_Grid_2.jpg,Red_Star_Chess_1.jpg,Blue_Circle_Grid_3.jpg,left,453.8299999998999,false,high,false
kcwCfj9X,3087lxlj7ptluqx9bvztb5ithyq0fq,3pm8nzgv82ts5prnjp4wl25abguxq8,kcwCfj9X,2020-0188,2020-11-18,15:52:23,16:06:18,NA,incomplete,104,filling,1,left,Red_Circle_Dots_2.jpg,Purple_Triangle_Dots_3.jpg,Red_Star_Grid_1.jpg,right,534.5800000000163,false,high,false
kcwCfj9X,3087lxlj7ptluqx9bvztb5ithyq0fq,3pm8nzgv82ts5prnjp4wl25abguxq8,kcwCfj9X,2020-0188,2020-11-18,15:52:23,16:06:18,NA,incomplete,105,filling,1,left,Purple_Star_Stripes_2.jpg,Red_Triangle_Stripes_1.jpg,Purple_Plus_Grid_3.jpg,left,715.155000000319,true,high,false
kcwCfj9X,3087lxlj7ptluqx9bvztb5ithyq0fq,3pm8nzgv82ts5prnjp4wl25abguxq8,kcwCfj9X,2020-0188,2020-11-18,15:52:23,16:06:18,NA,incomplete,106,filling,0,right,Green_Triangle_Chess_1.jpg,Green_Plus_Stripes_3.jpg,Purple_Circle_Chess_4.jpg,right,739.4599999997881,true,high,false
kcwCfj9X,3087lxlj7ptluqx9bvztb5ithyq0fq,3pm8nzgv82ts5prnjp4wl25abguxq8,kcwCfj9X,2020-0188,2020-11-18,15:52:23,16:06:18,NA,incomplete,107,filling,0,left,Green_Plus_Grid_3.jpg,Red_Circle_Grid_1.jpg,Green_Triangle_Chess_2.jpg,left,764.6350000000093,true,high,false
kcwCfj9X,3087lxlj7ptluqx9bvztb5ithyq0fq,3pm8nzgv82ts5prnjp4wl25abguxq8,kcwCfj9X,2020-0188,2020-11-18,15:52:23,16:06:18,NA,incomplete,108,filling,1,right,Green_Star_Stripes_4.jpg,Green_Circle_Chess_2.jpg,Purple_Plus_Stripes_1.jpg,left,484.90999999968335,false,high,false
kcwCfj9X,3087lxlj7ptluqx9bvztb5ithyq0fq,3pm8nzgv82ts5prnjp4wl25abguxq8,kcwCfj9X,2020-0188,2020-11-18,15:52:23,16:06:18,NA,incomplete,109,filling,1,right,Green_Triangle_Dots_4.jpg,Green_Star_Chess_2.jpg,Blue_Plus_Dots_1.jpg,right,780.7199999997392,true,high,false
kcwCfj9X,3087lxlj7ptluqx9bvztb5ithyq0fq,3pm8nzgv82ts5prnjp4wl25abguxq8,kcwCfj9X,2020-0188,2020-11-18,15:52:23,16:06:18,NA,incomplete,110,color,1,left,Green_Triangle_Chess_2.jpg,Green_Star_Dots_1.jpg,Red_Plus_Chess_4.jpg,right,711.7400000001653,false,high,false
kcwCfj9X,3087lxlj7ptluqx9bvztb5ithyq0fq,3pm8nzgv82ts5prnjp4wl25abguxq8,kcwCfj9X,2020-0188,2020-11-18,15:52:23,16:06:18,NA,incomplete,111,color,1,left,Blue_Triangle_Grid_4.jpg,Blue_Circle_Stripes_1.jpg,Red_Star_Grid_2.jpg,left,441.7499999999418,true,high,false
kcwCfj9X,3087lxlj7ptluqx9bvztb5ithyq0fq,3pm8nzgv82ts5prnjp4wl25abguxq8,kcwCfj9X,2020-0188,2020-11-18,15:52:23,16:06:18,NA,incomplete,112,color,1,right,Green_Circle_Stripes_1.jpg,Purple_Triangle_Stripes_2.jpg,Green_Plus_Dots_3.jpg,right,410.0050000001793,true,high,false
kcwCfj9X,3087lxlj7ptluqx9bvztb5ithyq0fq,3pm8nzgv82ts5prnjp4wl25abguxq8,kcwCfj9X,2020-0188,2020-11-18,15:52:23,16:06:18,NA,incomplete,113,color,1,left,Purple_Triangle_Grid_1.jpg,Purple_Star_Dots_2.jpg,Blue_Circle_Grid_3.jpg,left,449.4599999997881,true,high,false
kcwCfj9X,3087lxlj7ptluqx9bvztb5ithyq0fq,3pm8nzgv82ts5prnjp4wl25abguxq8,kcwCfj9X,2020-0188,2020-11-18,15:52:23,16:06:18,NA,incomplete,114,color,1,left,Red_Star_Grid_2.jpg,Red_Plus_Chess_4.jpg,Green_Circle_Grid_3.jpg,left,435.550000000163,true,high,false
kcwCfj9X,3087lxlj7ptluqx9bvztb5ithyq0fq,3pm8nzgv82ts5prnjp4wl25abguxq8,kcwCfj9X,2020-0188,2020-11-18,15:52:23,16:06:18,NA,incomplete,115,color,0,left,Red_Star_Stripes_3.jpg,Red_Plus_Dots_1.jpg,Purple_Circle_Stripes_4.jpg,left,508.09000000025844,true,high,false
kcwCfj9X,3087lxlj7ptluqx9bvztb5ithyq0fq,3pm8nzgv82ts5prnjp4wl25abguxq8,kcwCfj9X,2020-0188,2020-11-18,15:52:23,16:06:18,NA,incomplete,116,color,1,left,Purple_Star_Grid_2.jpg,Purple_Circle_Dots_3.jpg,Blue_Plus_Grid_4.jpg,left,516.8899999998976,true,high,false
kcwCfj9X,3087lxlj7ptluqx9bvztb5ithyq0fq,3pm8nzgv82ts5prnjp4wl25abguxq8,kcwCfj9X,2020-0188,2020-11-18,15:52:23,16:06:18,NA,incomplete,117,color,1,right,Purple_Circle_Chess_3.jpg,Green_Star_Chess_4.jpg,Purple_Plus_Stripes_2.jpg,right,664.1100000002189,true,high,false
kcwCfj9X,3087lxlj7ptluqx9bvztb5ithyq0fq,3pm8nzgv82ts5prnjp4wl25abguxq8,kcwCfj9X,2020-0188,2020-11-18,15:52:23,16:06:18,NA,incomplete,118,color,1,right,Purple_Star_Chess_1.jpg,Green_Plus_Chess_4.jpg,Purple_Circle_Stripes_3.jpg,right,465.1549999999115,true,high,false
kcwCfj9X,3087lxlj7ptluqx9bvztb5ithyq0fq,3pm8nzgv82ts5prnjp4wl25abguxq8,kcwCfj9X,2020-0188,2020-11-18,15:52:23,16:06:18,NA,incomplete,119,color,1,right,Green_Circle_Chess_4.jpg,Purple_Triangle_Chess_3.jpg,Green_Plus_Dots_2.jpg,right,455.6549999997951,true,high,false
kcwCfj9X,3087lxlj7ptluqx9bvztb5ithyq0fq,3pm8nzgv82ts5prnjp4wl25abguxq8,kcwCfj9X,2020-0188,2020-11-18,15:52:23,16:06:18,NA,incomplete,120,number,1,right,Green_Star_Grid_4.jpg,Blue_Star_Dots_3.jpg,Purple_Circle_Stripes_4.jpg,left,889.6250000002328,false,high,false
kcwCfj9X,3087lxlj7ptluqx9bvztb5ithyq0fq,3pm8nzgv82ts5prnjp4wl25abguxq8,kcwCfj9X,2020-0188,2020-11-18,15:52:23,16:06:18,NA,incomplete,121,number,1,left,Red_Star_Stripes_4.jpg,Green_Plus_Grid_4.jpg,Purple_Star_Chess_1.jpg,left,591.2050000001909,true,high,false
kcwCfj9X,3087lxlj7ptluqx9bvztb5ithyq0fq,3pm8nzgv82ts5prnjp4wl25abguxq8,kcwCfj9X,2020-0188,2020-11-18,15:52:23,16:06:18,NA,incomplete,122,number,0,left,Red_Circle_Dots_3.jpg,Green_Triangle_Grid_3.jpg,Purple_Circle_Stripes_2.jpg,left,637.5650000000605,true,high,false
kcwCfj9X,3087lxlj7ptluqx9bvztb5ithyq0fq,3pm8nzgv82ts5prnjp4wl25abguxq8,kcwCfj9X,2020-0188,2020-11-18,15:52:23,16:06:18,NA,incomplete,123,number,1,left,Green_Triangle_Chess_3.jpg,Blue_Plus_Stripes_3.jpg,Purple_Triangle_Dots_4.jpg,left,583.5750000000698,true,high,false
kcwCfj9X,3087lxlj7ptluqx9bvztb5ithyq0fq,3pm8nzgv82ts5prnjp4wl25abguxq8,kcwCfj9X,2020-0188,2020-11-18,15:52:23,16:06:18,NA,incomplete,124,number,1,right,Blue_Star_Stripes_1.jpg,Purple_Star_Chess_3.jpg,Red_Plus_Dots_1.jpg,right,578.7799999997951,true,high,false
kcwCfj9X,3087lxlj7ptluqx9bvztb5ithyq0fq,3pm8nzgv82ts5prnjp4wl25abguxq8,kcwCfj9X,2020-0188,2020-11-18,15:52:23,16:06:18,NA,incomplete,125,number,1,left,Blue_Star_Grid_1.jpg,Red_Plus_Chess_1.jpg,Purple_Star_Dots_3.jpg,left,514.0799999999581,true,high,false
kcwCfj9X,3087lxlj7ptluqx9bvztb5ithyq0fq,3pm8nzgv82ts5prnjp4wl25abguxq8,kcwCfj9X,2020-0188,2020-11-18,15:52:23,16:06:18,NA,incomplete,126,number,1,left,Purple_Triangle_Grid_2.jpg,Blue_Plus_Chess_2.jpg,Red_Triangle_Dots_4.jpg,left,683.3350000001956,true,high,false
kcwCfj9X,3087lxlj7ptluqx9bvztb5ithyq0fq,3pm8nzgv82ts5prnjp4wl25abguxq8,kcwCfj9X,2020-0188,2020-11-18,15:52:23,16:06:18,NA,incomplete,127,number,0,left,Green_Plus_Grid_3.jpg,Blue_Circle_Stripes_3.jpg,Purple_Plus_Dots_4.jpg,left,617.9899999997579,true,high,false
kcwCfj9X,3087lxlj7ptluqx9bvztb5ithyq0fq,3pm8nzgv82ts5prnjp4wl25abguxq8,kcwCfj9X,2020-0188,2020-11-18,15:52:23,16:06:18,NA,incomplete,128,number,1,right,Purple_Circle_Grid_4.jpg,Green_Circle_Chess_3.jpg,Red_Star_Dots_4.jpg,right,782.1749999998137,true,high,false
kcwCfj9X,3087lxlj7ptluqx9bvztb5ithyq0fq,3pm8nzgv82ts5prnjp4wl25abguxq8,kcwCfj9X,2020-0188,2020-11-18,15:52:23,16:06:18,NA,incomplete,129,number,1,right,Purple_Star_Grid_1.jpg,Green_Star_Stripes_2.jpg,Red_Triangle_Chess_1.jpg,left,648.4550000000745,false,high,false
kcwCfj9X,3087lxlj7ptluqx9bvztb5ithyq0fq,3pm8nzgv82ts5prnjp4wl25abguxq8,kcwCfj9X,2020-0188,2020-11-18,15:52:23,16:06:18,NA,incomplete,130,number,1,right,Blue_Star_Stripes_4.jpg,Red_Star_Dots_2.jpg,Purple_Circle_Grid_4.jpg,right,607.5099999997765,true,high,false
kcwCfj9X,3087lxlj7ptluqx9bvztb5ithyq0fq,3pm8nzgv82ts5prnjp4wl25abguxq8,kcwCfj9X,2020-0188,2020-11-18,15:52:23,16:06:18,NA,incomplete,131,number,1,right,Blue_Star_Dots_2.jpg,Red_Star_Chess_4.jpg,Green_Plus_Grid_2.jpg,right,583.3299999998417,true,high,false
kcwCfj9X,3087lxlj7ptluqx9bvztb5ithyq0fq,3pm8nzgv82ts5prnjp4wl25abguxq8,kcwCfj9X,2020-0188,2020-11-18,15:52:23,16:06:18,NA,incomplete,132,number,1,left,Purple_Star_Stripes_1.jpg,Blue_Plus_Grid_1.jpg,Red_Star_Chess_3.jpg,left,540.1850000002887,true,high,false
kcwCfj9X,3087lxlj7ptluqx9bvztb5ithyq0fq,3pm8nzgv82ts5prnjp4wl25abguxq8,kcwCfj9X,2020-0188,2020-11-18,15:52:23,16:06:18,NA,incomplete,133,number,1,right,Red_Triangle_Grid_3.jpg,Purple_Triangle_Stripes_4.jpg,Blue_Star_Chess_3.jpg,right,529.2750000003725,true,high,false
kcwCfj9X,3087lxlj7ptluqx9bvztb5ithyq0fq,3pm8nzgv82ts5prnjp4wl25abguxq8,kcwCfj9X,2020-0188,2020-11-18,15:52:23,16:06:18,NA,incomplete,134,number,1,left,Red_Plus_Chess_2.jpg,Blue_Triangle_Stripes_2.jpg,Purple_Plus_Grid_4.jpg,left,557.305000000284,true,high,false
kcwCfj9X,3087lxlj7ptluqx9bvztb5ithyq0fq,3pm8nzgv82ts5prnjp4wl25abguxq8,kcwCfj9X,2020-0188,2020-11-18,15:52:23,16:06:18,NA,incomplete,135,number,1,left,Blue_Plus_Stripes_4.jpg,Red_Triangle_Chess_4.jpg,Green_Plus_Dots_3.jpg,left,555.8699999996461,true,high,false
kcwCfj9X,3087lxlj7ptluqx9bvztb5ithyq0fq,3pm8nzgv82ts5prnjp4wl25abguxq8,kcwCfj9X,2020-0188,2020-11-18,15:52:23,16:06:18,NA,incomplete,136,number,1,right,Blue_Plus_Grid_3.jpg,Green_Plus_Chess_4.jpg,Purple_Circle_Dots_3.jpg,right,588.5250000000233,true,high,false
kcwCfj9X,3087lxlj7ptluqx9bvztb5ithyq0fq,3pm8nzgv82ts5prnjp4wl25abguxq8,kcwCfj9X,2020-0188,2020-11-18,15:52:23,16:06:18,NA,incomplete,137,number,1,left,Red_Circle_Dots_2.jpg,Green_Triangle_Chess_2.jpg,Purple_Circle_Stripes_1.jpg,left,515.3549999999814,true,high,false
kcwCfj9X,3087lxlj7ptluqx9bvztb5ithyq0fq,3pm8nzgv82ts5prnjp4wl25abguxq8,kcwCfj9X,2020-0188,2020-11-18,15:52:23,16:06:18,NA,incomplete,138,number,1,left,Purple_Star_Stripes_4.jpg,Blue_Plus_Dots_4.jpg,Green_Star_Grid_2.jpg,left,544.734999999986,true,high,false
kcwCfj9X,3087lxlj7ptluqx9bvztb5ithyq0fq,3pm8nzgv82ts5prnjp4wl25abguxq8,kcwCfj9X,2020-0188,2020-11-18,15:52:23,16:06:18,NA,incomplete,139,number,0,left,Purple_Triangle_Grid_1.jpg,Blue_Circle_Stripes_1.jpg,Green_Triangle_Chess_2.jpg,left,548.4449999999488,true,high,false
kcwCfj9X,3087lxlj7ptluqx9bvztb5ithyq0fq,3pm8nzgv82ts5prnjp4wl25abguxq8,kcwCfj9X,2020-0188,2020-11-18,15:52:23,16:06:18,NA,incomplete,140,shape,1,left,Blue_Plus_Stripes_4.jpg,Red_Plus_Chess_1.jpg,Green_Circle_Dots_4.jpg,right,559.8150000000605,false,high,false
kcwCfj9X,3087lxlj7ptluqx9bvztb5ithyq0fq,3pm8nzgv82ts5prnjp4wl25abguxq8,kcwCfj9X,2020-0188,2020-11-18,15:52:23,16:06:18,NA,incomplete,141,shape,1,left,Purple_Triangle_Chess_1.jpg,Red_Triangle_Dots_2.jpg,Green_Plus_Grid_1.jpg,right,591.7249999997439,false,high,false
kcwCfj9X,3087lxlj7ptluqx9bvztb5ithyq0fq,3pm8nzgv82ts5prnjp4wl25abguxq8,kcwCfj9X,2020-0188,2020-11-18,15:52:23,16:06:18,NA,incomplete,142,shape,1,left,Green_Triangle_Chess_4.jpg,Purple_Triangle_Stripes_2.jpg,Red_Circle_Dots_4.jpg,right,525.2600000003586,false,high,false
kcwCfj9X,3087lxlj7ptluqx9bvztb5ithyq0fq,3pm8nzgv82ts5prnjp4wl25abguxq8,kcwCfj9X,2020-0188,2020-11-18,15:52:23,16:06:18,NA,incomplete,143,shape,0,left,Purple_Triangle_Dots_3.jpg,Red_Triangle_Stripes_4.jpg,Blue_Star_Chess_3.jpg,left,568.7499999998836,true,high,false
kcwCfj9X,3087lxlj7ptluqx9bvztb5ithyq0fq,3pm8nzgv82ts5prnjp4wl25abguxq8,kcwCfj9X,2020-0188,2020-11-18,15:52:23,16:06:18,NA,incomplete,144,shape,1,left,Purple_Triangle_Stripes_1.jpg,Green_Triangle_Grid_2.jpg,Blue_Star_Dots_1.jpg,left,574.5150000002468,true,high,false
kcwCfj9X,3087lxlj7ptluqx9bvztb5ithyq0fq,3pm8nzgv82ts5prnjp4wl25abguxq8,kcwCfj9X,2020-0188,2020-11-18,15:52:23,16:06:18,NA,incomplete,145,shape,0,right,Green_Star_Dots_3.jpg,Purple_Circle_Grid_3.jpg,Red_Star_Stripes_2.jpg,right,569.8499999998603,true,high,false
kcwCfj9X,3087lxlj7ptluqx9bvztb5ithyq0fq,3pm8nzgv82ts5prnjp4wl25abguxq8,kcwCfj9X,2020-0188,2020-11-18,15:52:23,16:06:18,NA,incomplete,146,shape,1,right,Red_Circle_Dots_2.jpg,Green_Star_Chess_2.jpg,Blue_Circle_Grid_1.jpg,right,586.8599999998696,true,high,false
kcwCfj9X,3087lxlj7ptluqx9bvztb5ithyq0fq,3pm8nzgv82ts5prnjp4wl25abguxq8,kcwCfj9X,2020-0188,2020-11-18,15:52:23,16:06:18,NA,incomplete,147,shape,0,left,Blue_Circle_Dots_1.jpg,Red_Circle_Grid_2.jpg,Green_Plus_Chess_1.jpg,left,548.6300000002375,true,high,false
kcwCfj9X,3087lxlj7ptluqx9bvztb5ithyq0fq,3pm8nzgv82ts5prnjp4wl25abguxq8,kcwCfj9X,2020-0188,2020-11-18,15:52:23,16:06:18,NA,incomplete,148,shape,1,left,Blue_Circle_Chess_1.jpg,Green_Circle_Dots_4.jpg,Purple_Plus_Stripes_1.jpg,left,874.4099999999162,true,high,false
kcwCfj9X,3087lxlj7ptluqx9bvztb5ithyq0fq,3pm8nzgv82ts5prnjp4wl25abguxq8,kcwCfj9X,2020-0188,2020-11-18,15:52:23,16:06:18,NA,incomplete,149,shape,0,left,Green_Circle_Dots_2.jpg,Purple_Circle_Stripes_4.jpg,Blue_Triangle_Grid_2.jpg,left,633.440000000177,true,high,false
kcwCfj9X,3087lxlj7ptluqx9bvztb5ithyq0fq,3pm8nzgv82ts5prnjp4wl25abguxq8,kcwCfj9X,2020-0188,2020-11-18,15:52:23,16:06:18,NA,incomplete,150,shape,1,right,Green_Triangle_Chess_4.jpg,Red_Circle_Grid_4.jpg,Purple_Triangle_Dots_1.jpg,left,501.9849999998696,false,high,false
kcwCfj9X,3087lxlj7ptluqx9bvztb5ithyq0fq,3pm8nzgv82ts5prnjp4wl25abguxq8,kcwCfj9X,2020-0188,2020-11-18,15:52:23,16:06:18,NA,incomplete,151,shape,1,left,Blue_Plus_Stripes_3.jpg,Green_Plus_Chess_4.jpg,Purple_Circle_Dots_3.jpg,right,652.0049999998882,false,high,false
kcwCfj9X,3087lxlj7ptluqx9bvztb5ithyq0fq,3pm8nzgv82ts5prnjp4wl25abguxq8,kcwCfj9X,2020-0188,2020-11-18,15:52:23,16:06:18,NA,incomplete,152,shape,1,left,Blue_Plus_Chess_4.jpg,Purple_Plus_Grid_1.jpg,Green_Triangle_Dots_4.jpg,left,602.5450000002747,true,high,false
kcwCfj9X,3087lxlj7ptluqx9bvztb5ithyq0fq,3pm8nzgv82ts5prnjp4wl25abguxq8,kcwCfj9X,2020-0188,2020-11-18,15:52:23,16:06:18,NA,incomplete,153,shape,1,left,Green_Star_Stripes_2.jpg,Blue_Star_Grid_4.jpg,Red_Plus_Dots_2.jpg,left,596.6849999999395,true,high,false
kcwCfj9X,3087lxlj7ptluqx9bvztb5ithyq0fq,3pm8nzgv82ts5prnjp4wl25abguxq8,kcwCfj9X,2020-0188,2020-11-18,15:52:23,16:06:18,NA,incomplete,154,shape,1,left,Blue_Star_Chess_4.jpg,Purple_Star_Stripes_3.jpg,Green_Triangle_Grid_4.jpg,left,608.8250000001863,true,high,false
kcwCfj9X,3087lxlj7ptluqx9bvztb5ithyq0fq,3pm8nzgv82ts5prnjp4wl25abguxq8,kcwCfj9X,2020-0188,2020-11-18,15:52:23,16:06:18,NA,incomplete,155,shape,1,left,Red_Star_Grid_3.jpg,Green_Star_Dots_2.jpg,Purple_Plus_Chess_3.jpg,left,600.809999999823,true,high,false
kcwCfj9X,3087lxlj7ptluqx9bvztb5ithyq0fq,3pm8nzgv82ts5prnjp4wl25abguxq8,kcwCfj9X,2020-0188,2020-11-18,15:52:23,16:06:18,NA,incomplete,156,shape,1,left,Purple_Plus_Stripes_4.jpg,Green_Plus_Dots_3.jpg,Blue_Triangle_Grid_4.jpg,left,643.535000000149,true,high,false
kcwCfj9X,3087lxlj7ptluqx9bvztb5ithyq0fq,3pm8nzgv82ts5prnjp4wl25abguxq8,kcwCfj9X,2020-0188,2020-11-18,15:52:23,16:06:18,NA,incomplete,157,shape,0,left,Blue_Circle_Chess_3.jpg,Purple_Circle_Grid_4.jpg,Green_Triangle_Dots_3.jpg,left,537.4699999998556,true,high,false
kcwCfj9X,3087lxlj7ptluqx9bvztb5ithyq0fq,3pm8nzgv82ts5prnjp4wl25abguxq8,kcwCfj9X,2020-0188,2020-11-18,15:52:23,16:06:18,NA,incomplete,158,shape,1,right,Blue_Plus_Dots_2.jpg,Green_Star_Chess_2.jpg,Purple_Plus_Grid_1.jpg,right,594.0200000000186,true,high,false
kcwCfj9X,3087lxlj7ptluqx9bvztb5ithyq0fq,3pm8nzgv82ts5prnjp4wl25abguxq8,kcwCfj9X,2020-0188,2020-11-18,15:52:23,16:06:18,NA,incomplete,159,shape,0,left,Red_Plus_Stripes_2.jpg,Green_Plus_Chess_1.jpg,Purple_Star_Grid_2.jpg,left,486.2850000000326,true,high,false
kcwCfj9X,3087lxlj7ptluqx9bvztb5ithyq0fq,3pm8nzgv82ts5prnjp4wl25abguxq8,kcwCfj9X,2020-0188,2020-11-18,15:52:23,16:06:18,NA,incomplete,160,number,1,right,Red_Star_Dots_3.jpg,Green_Star_Chess_4.jpg,Blue_Circle_Stripes_3.jpg,right,553.434999999823,true,high,false
kcwCfj9X,3087lxlj7ptluqx9bvztb5ithyq0fq,3pm8nzgv82ts5prnjp4wl25abguxq8,kcwCfj9X,2020-0188,2020-11-18,15:52:23,16:06:18,NA,incomplete,161,number,1,left,Red_Star_Stripes_1.jpg,Blue_Triangle_Grid_1.jpg,Purple_Star_Dots_3.jpg,left,540.7599999997765,true,high,false
kcwCfj9X,3087lxlj7ptluqx9bvztb5ithyq0fq,3pm8nzgv82ts5prnjp4wl25abguxq8,kcwCfj9X,2020-0188,2020-11-18,15:52:23,16:06:18,NA,incomplete,162,number,1,left,Purple_Circle_Dots_3.jpg,Green_Plus_Stripes_3.jpg,Red_Circle_Grid_2.jpg,right,597.6100000003353,false,high,false
kcwCfj9X,3087lxlj7ptluqx9bvztb5ithyq0fq,3pm8nzgv82ts5prnjp4wl25abguxq8,kcwCfj9X,2020-0188,2020-11-18,15:52:23,16:06:18,NA,incomplete,163,number,0,left,Green_Triangle_Dots_4.jpg,Red_Star_Stripes_4.jpg,Blue_Triangle_Grid_2.jpg,left,528.7600000001257,true,high,false
kcwCfj9X,3087lxlj7ptluqx9bvztb5ithyq0fq,3pm8nzgv82ts5prnjp4wl25abguxq8,kcwCfj9X,2020-0188,2020-11-18,15:52:23,16:06:18,NA,incomplete,164,number,1,right,Green_Star_Grid_3.jpg,Red_Star_Chess_4.jpg,Blue_Circle_Dots_3.jpg,right,662.2000000001863,true,high,false
kcwCfj9X,3087lxlj7ptluqx9bvztb5ithyq0fq,3pm8nzgv82ts5prnjp4wl25abguxq8,kcwCfj9X,2020-0188,2020-11-18,15:52:23,16:06:18,NA,incomplete,165,number,1,left,Blue_Circle_Dots_2.jpg,Purple_Plus_Stripes_2.jpg,Green_Circle_Chess_3.jpg,left,584.684999999823,true,high,false
kcwCfj9X,3087lxlj7ptluqx9bvztb5ithyq0fq,3pm8nzgv82ts5prnjp4wl25abguxq8,kcwCfj9X,2020-0188,2020-11-18,15:52:23,16:06:18,NA,incomplete,166,number,1,left,Green_Circle_Stripes_2.jpg,Red_Star_Grid_2.jpg,Purple_Circle_Chess_1.jpg,left,592.3299999999581,true,high,false
kcwCfj9X,3087lxlj7ptluqx9bvztb5ithyq0fq,3pm8nzgv82ts5prnjp4wl25abguxq8,kcwCfj9X,2020-0188,2020-11-18,15:52:23,16:06:18,NA,incomplete,167,number,1,right,Purple_Circle_Grid_4.jpg,Red_Circle_Chess_2.jpg,Blue_Triangle_Stripes_4.jpg,right,513.8550000000978,true,high,false
kcwCfj9X,3087lxlj7ptluqx9bvztb5ithyq0fq,3pm8nzgv82ts5prnjp4wl25abguxq8,kcwCfj9X,2020-0188,2020-11-18,15:52:23,16:06:18,NA,incomplete,168,number,1,left,Blue_Triangle_Grid_4.jpg,Purple_Circle_Dots_4.jpg,Green_Triangle_Chess_2.jpg,left,521.9149999998044,true,high,false
kcwCfj9X,3087lxlj7ptluqx9bvztb5ithyq0fq,3pm8nzgv82ts5prnjp4wl25abguxq8,kcwCfj9X,2020-0188,2020-11-18,15:52:23,16:06:18,NA,incomplete,169,number,1,right,Red_Plus_Grid_1.jpg,Blue_Plus_Chess_4.jpg,Purple_Circle_Stripes_1.jpg,right,562.5150000001304,true,high,false
kcwCfj9X,3087lxlj7ptluqx9bvztb5ithyq0fq,3pm8nzgv82ts5prnjp4wl25abguxq8,kcwCfj9X,2020-0188,2020-11-18,15:52:23,16:06:18,NA,incomplete,170,number,1,left,Green_Circle_Stripes_4.jpg,Purple_Star_Chess_4.jpg,Red_Circle_Grid_3.jpg,left,622.8200000000652,true,high,false
kcwCfj9X,3087lxlj7ptluqx9bvztb5ithyq0fq,3pm8nzgv82ts5prnjp4wl25abguxq8,kcwCfj9X,2020-0188,2020-11-18,15:52:23,16:06:18,NA,incomplete,171,number,1,left,Blue_Circle_Chess_2.jpg,Red_Triangle_Grid_2.jpg,Green_Circle_Stripes_1.jpg,left,621.3750000002328,true,high,false
kcwCfj9X,3087lxlj7ptluqx9bvztb5ithyq0fq,3pm8nzgv82ts5prnjp4wl25abguxq8,kcwCfj9X,2020-0188,2020-11-18,15:52:23,16:06:18,NA,incomplete,172,number,1,right,Blue_Plus_Dots_2.jpg,Purple_Plus_Chess_3.jpg,Green_Triangle_Grid_2.jpg,right,799.5299999997951,true,high,false
kcwCfj9X,3087lxlj7ptluqx9bvztb5ithyq0fq,3pm8nzgv82ts5prnjp4wl25abguxq8,kcwCfj9X,2020-0188,2020-11-18,15:52:23,16:06:18,NA,incomplete,173,number,1,right,Red_Star_Chess_2.jpg,Green_Star_Stripes_4.jpg,Purple_Circle_Dots_2.jpg,right,693.2550000001211,true,high,false
kcwCfj9X,3087lxlj7ptluqx9bvztb5ithyq0fq,3pm8nzgv82ts5prnjp4wl25abguxq8,kcwCfj9X,2020-0188,2020-11-18,15:52:23,16:06:18,NA,incomplete,174,number,0,left,Purple_Circle_Stripes_4.jpg,Green_Plus_Chess_4.jpg,Red_Circle_Grid_1.jpg,left,582.265000000014,true,high,false
kcwCfj9X,3087lxlj7ptluqx9bvztb5ithyq0fq,3pm8nzgv82ts5prnjp4wl25abguxq8,kcwCfj9X,2020-0188,2020-11-18,15:52:23,16:06:18,NA,incomplete,175,number,1,right,Purple_Circle_Dots_3.jpg,Green_Circle_Grid_2.jpg,Red_Plus_Chess_3.jpg,right,670.1450000000186,true,high,false
kcwCfj9X,3087lxlj7ptluqx9bvztb5ithyq0fq,3pm8nzgv82ts5prnjp4wl25abguxq8,kcwCfj9X,2020-0188,2020-11-18,15:52:23,16:06:18,NA,incomplete,176,number,1,right,Blue_Circle_Chess_3.jpg,Purple_Circle_Grid_1.jpg,Red_Star_Dots_3.jpg,right,609.8950000000186,true,high,false
kcwCfj9X,3087lxlj7ptluqx9bvztb5ithyq0fq,3pm8nzgv82ts5prnjp4wl25abguxq8,kcwCfj9X,2020-0188,2020-11-18,15:52:23,16:06:18,NA,incomplete,177,number,0,left,Green_Plus_Chess_3.jpg,Purple_Star_Stripes_3.jpg,Red_Plus_Grid_4.jpg,left,599.7600000001257,true,high,false
kcwCfj9X,3087lxlj7ptluqx9bvztb5ithyq0fq,3pm8nzgv82ts5prnjp4wl25abguxq8,kcwCfj9X,2020-0188,2020-11-18,15:52:23,16:06:18,NA,incomplete,178,number,1,right,Green_Plus_Stripes_3.jpg,Blue_Plus_Dots_2.jpg,Red_Triangle_Chess_3.jpg,right,581.8499999999767,true,high,false
kcwCfj9X,3087lxlj7ptluqx9bvztb5ithyq0fq,3pm8nzgv82ts5prnjp4wl25abguxq8,kcwCfj9X,2020-0188,2020-11-18,15:52:23,16:06:18,NA,incomplete,179,number,0,right,Red_Star_Dots_1.jpg,Green_Star_Chess_3.jpg,Blue_Triangle_Grid_1.jpg,right,645.1950000000652,true,high,false
kcwCfj9X,3087lxlj7ptluqx9bvztb5ithyq0fq,3pm8nzgv82ts5prnjp4wl25abguxq8,kcwCfj9X,2020-0188,2020-11-18,15:52:23,16:06:18,NA,incomplete,180,shape,1,right,Green_Circle_Stripes_1.jpg,Red_Plus_Grid_1.jpg,Purple_Circle_Chess_4.jpg,left,659.7299999997485,false,high,false
kcwCfj9X,3087lxlj7ptluqx9bvztb5ithyq0fq,3pm8nzgv82ts5prnjp4wl25abguxq8,kcwCfj9X,2020-0188,2020-11-18,15:52:23,16:06:18,NA,incomplete,181,shape,1,left,Red_Triangle_Dots_3.jpg,Green_Triangle_Chess_1.jpg,Purple_Star_Grid_3.jpg,left,673.9950000001118,true,high,false
kcwCfj9X,3087lxlj7ptluqx9bvztb5ithyq0fq,3pm8nzgv82ts5prnjp4wl25abguxq8,kcwCfj9X,2020-0188,2020-11-18,15:52:23,16:06:18,NA,incomplete,182,shape,0,left,Green_Plus_Grid_2.jpg,Blue_Plus_Dots_3.jpg,Purple_Triangle_Stripes_2.jpg,left,561.6750000003958,true,high,false
kcwCfj9X,3087lxlj7ptluqx9bvztb5ithyq0fq,3pm8nzgv82ts5prnjp4wl25abguxq8,kcwCfj9X,2020-0188,2020-11-18,15:52:23,16:06:18,NA,incomplete,183,shape,1,left,Green_Triangle_Dots_3.jpg,Purple_Triangle_Chess_1.jpg,Blue_Circle_Stripes_3.jpg,left,582.8700000002282,true,high,false
kcwCfj9X,3087lxlj7ptluqx9bvztb5ithyq0fq,3pm8nzgv82ts5prnjp4wl25abguxq8,kcwCfj9X,2020-0188,2020-11-18,15:52:23,16:06:18,NA,incomplete,184,shape,1,left,Purple_Plus_Stripes_4.jpg,Red_Plus_Dots_1.jpg,Green_Triangle_Grid_4.jpg,left,616.7550000000047,true,high,false
kcwCfj9X,3087lxlj7ptluqx9bvztb5ithyq0fq,3pm8nzgv82ts5prnjp4wl25abguxq8,kcwCfj9X,2020-0188,2020-11-18,15:52:23,16:06:18,NA,incomplete,185,shape,1,right,Red_Plus_Grid_4.jpg,Blue_Circle_Chess_4.jpg,Purple_Plus_Stripes_1.jpg,right,535.140000000014,true,high,false
kcwCfj9X,3087lxlj7ptluqx9bvztb5ithyq0fq,3pm8nzgv82ts5prnjp4wl25abguxq8,kcwCfj9X,2020-0188,2020-11-18,15:52:23,16:06:18,NA,incomplete,186,shape,1,left,Green_Triangle_Chess_2.jpg,Blue_Triangle_Dots_3.jpg,Purple_Star_Grid_2.jpg,left,593.4799999999814,true,high,false
kcwCfj9X,3087lxlj7ptluqx9bvztb5ithyq0fq,3pm8nzgv82ts5prnjp4wl25abguxq8,kcwCfj9X,2020-0188,2020-11-18,15:52:23,16:06:18,NA,incomplete,187,shape,1,left,Purple_Star_Chess_2.jpg,Green_Star_Stripes_4.jpg,Red_Triangle_Dots_2.jpg,left,600.8999999999069,true,high,false
kcwCfj9X,3087lxlj7ptluqx9bvztb5ithyq0fq,3pm8nzgv82ts5prnjp4wl25abguxq8,kcwCfj9X,2020-0188,2020-11-18,15:52:23,16:06:18,NA,incomplete,188,shape,1,left,Purple_Plus_Dots_2.jpg,Blue_Plus_Chess_4.jpg,Green_Triangle_Stripes_2.jpg,left,584.339999999851,true,high,false
kcwCfj9X,3087lxlj7ptluqx9bvztb5ithyq0fq,3pm8nzgv82ts5prnjp4wl25abguxq8,kcwCfj9X,2020-0188,2020-11-18,15:52:23,16:06:18,NA,incomplete,189,shape,0,right,Blue_Triangle_Dots_4.jpg,Green_Plus_Chess_4.jpg,Red_Triangle_Stripes_1.jpg,right,610.6549999999115,true,high,false
kcwCfj9X,3087lxlj7ptluqx9bvztb5ithyq0fq,3pm8nzgv82ts5prnjp4wl25abguxq8,kcwCfj9X,2020-0188,2020-11-18,15:52:23,16:06:18,NA,incomplete,190,shape,1,right,Green_Circle_Chess_3.jpg,Red_Plus_Dots_3.jpg,Purple_Circle_Stripes_1.jpg,left,638.5799999998417,false,high,false
kcwCfj9X,3087lxlj7ptluqx9bvztb5ithyq0fq,3pm8nzgv82ts5prnjp4wl25abguxq8,kcwCfj9X,2020-0188,2020-11-18,15:52:23,16:06:18,NA,incomplete,191,shape,1,right,Blue_Circle_Chess_3.jpg,Red_Plus_Stripes_3.jpg,Green_Circle_Dots_4.jpg,right,1128.8150000000605,true,high,false
kcwCfj9X,3087lxlj7ptluqx9bvztb5ithyq0fq,3pm8nzgv82ts5prnjp4wl25abguxq8,kcwCfj9X,2020-0188,2020-11-18,15:52:23,16:06:18,NA,incomplete,192,shape,1,right,Purple_Triangle_Stripes_2.jpg,Green_Star_Grid_2.jpg,Blue_Triangle_Chess_1.jpg,right,633.1750000003958,true,high,false
kcwCfj9X,3087lxlj7ptluqx9bvztb5ithyq0fq,3pm8nzgv82ts5prnjp4wl25abguxq8,kcwCfj9X,2020-0188,2020-11-18,15:52:23,16:06:18,NA,incomplete,193,shape,1,right,Red_Triangle_Stripes_4.jpg,Blue_Plus_Chess_4.jpg,Purple_Triangle_Grid_1.jpg,right,1163.410000000149,true,high,false
kcwCfj9X,3087lxlj7ptluqx9bvztb5ithyq0fq,3pm8nzgv82ts5prnjp4wl25abguxq8,kcwCfj9X,2020-0188,2020-11-18,15:52:23,16:06:18,NA,incomplete,194,shape,0,left,Purple_Star_Grid_1.jpg,Green_Star_Stripes_3.jpg,Red_Plus_Chess_1.jpg,left,761.8499999998603,true,high,false
kcwCfj9X,3087lxlj7ptluqx9bvztb5ithyq0fq,3pm8nzgv82ts5prnjp4wl25abguxq8,kcwCfj9X,2020-0188,2020-11-18,15:52:23,16:06:18,NA,incomplete,195,shape,1,right,Blue_Triangle_Chess_4.jpg,Purple_Plus_Dots_4.jpg,Red_Triangle_Grid_1.jpg,left,551.2549999998882,false,high,false
kcwCfj9X,3087lxlj7ptluqx9bvztb5ithyq0fq,3pm8nzgv82ts5prnjp4wl25abguxq8,kcwCfj9X,2020-0188,2020-11-18,15:52:23,16:06:18,NA,incomplete,196,shape,1,right,Green_Circle_Dots_1.jpg,Blue_Triangle_Stripes_1.jpg,Purple_Circle_Grid_3.jpg,left,549.1299999998882,false,high,false
kcwCfj9X,3087lxlj7ptluqx9bvztb5ithyq0fq,3pm8nzgv82ts5prnjp4wl25abguxq8,kcwCfj9X,2020-0188,2020-11-18,15:52:23,16:06:18,NA,incomplete,197,shape,1,right,Purple_Plus_Dots_3.jpg,Red_Triangle_Grid_3.jpg,Blue_Plus_Stripes_2.jpg,right,529.960000000312,true,high,false
kcwCfj9X,3087lxlj7ptluqx9bvztb5ithyq0fq,3pm8nzgv82ts5prnjp4wl25abguxq8,kcwCfj9X,2020-0188,2020-11-18,15:52:23,16:06:18,NA,incomplete,198,shape,1,left,Red_Circle_Dots_3.jpg,Green_Circle_Grid_1.jpg,Blue_Plus_Chess_3.jpg,left,504.53999999992084,true,high,false
kcwCfj9X,3087lxlj7ptluqx9bvztb5ithyq0fq,3pm8nzgv82ts5prnjp4wl25abguxq8,kcwCfj9X,2020-0188,2020-11-18,15:52:23,16:06:18,NA,incomplete,199,shape,1,left,Red_Star_Stripes_3.jpg,Green_Star_Dots_1.jpg,Purple_Triangle_Chess_3.jpg,left,570.3100000000559,true,high,false
kcwCfj9X,3087lxlj7ptluqx9bvztb5ithyq0fq,3pm8nzgv82ts5prnjp4wl25abguxq8,kcwCfj9X,2020-0188,2020-11-18,15:52:23,16:06:18,NA,incomplete,200,number,1,right,Purple_Plus_Dots_4.jpg,Green_Plus_Chess_2.jpg,Blue_Triangle_Stripes_4.jpg,left,552.4399999998277,false,high,false
kcwCfj9X,3087lxlj7ptluqx9bvztb5ithyq0fq,3pm8nzgv82ts5prnjp4wl25abguxq8,kcwCfj9X,2020-0188,2020-11-18,15:52:23,16:06:18,NA,incomplete,201,number,1,right,Purple_Triangle_Stripes_1.jpg,Red_Triangle_Grid_2.jpg,Green_Star_Dots_1.jpg,left,487.0600000004051,false,high,false
kcwCfj9X,3087lxlj7ptluqx9bvztb5ithyq0fq,3pm8nzgv82ts5prnjp4wl25abguxq8,kcwCfj9X,2020-0188,2020-11-18,15:52:23,16:06:18,NA,incomplete,202,number,0,right,Blue_Triangle_Dots_3.jpg,Purple_Triangle_Grid_4.jpg,Red_Star_Chess_3.jpg,left,626.0950000000885,false,high,false
kcwCfj9X,3087lxlj7ptluqx9bvztb5ithyq0fq,3pm8nzgv82ts5prnjp4wl25abguxq8,kcwCfj9X,2020-0188,2020-11-18,15:52:23,16:06:18,NA,incomplete,203,number,1,left,Green_Star_Stripes_4.jpg,Red_Triangle_Dots_4.jpg,Purple_Star_Grid_2.jpg,right,569.2650000001304,false,high,false
kcwCfj9X,3087lxlj7ptluqx9bvztb5ithyq0fq,3pm8nzgv82ts5prnjp4wl25abguxq8,kcwCfj9X,2020-0188,2020-11-18,15:52:23,16:06:18,NA,incomplete,204,number,1,right,Red_Plus_Chess_1.jpg,Blue_Plus_Grid_2.jpg,Purple_Circle_Dots_1.jpg,left,604.940000000177,false,high,false
kcwCfj9X,3087lxlj7ptluqx9bvztb5ithyq0fq,3pm8nzgv82ts5prnjp4wl25abguxq8,kcwCfj9X,2020-0188,2020-11-18,15:52:23,16:06:18,NA,incomplete,205,number,1,left,Red_Triangle_Dots_1.jpg,Green_Star_Stripes_1.jpg,Blue_Triangle_Grid_3.jpg,right,731.8300000000745,false,high,false
kcwCfj9X,3087lxlj7ptluqx9bvztb5ithyq0fq,3pm8nzgv82ts5prnjp4wl25abguxq8,kcwCfj9X,2020-0188,2020-11-18,15:52:23,16:06:18,NA,incomplete,206,number,1,right,Blue_Triangle_Stripes_1.jpg,Green_Triangle_Grid_3.jpg,Red_Plus_Chess_1.jpg,right,729.4299999998184,true,high,false
kcwCfj9X,3087lxlj7ptluqx9bvztb5ithyq0fq,3pm8nzgv82ts5prnjp4wl25abguxq8,kcwCfj9X,2020-0188,2020-11-18,15:52:23,16:06:18,NA,incomplete,207,number,1,left,Purple_Plus_Grid_2.jpg,Green_Circle_Stripes_2.jpg,Blue_Plus_Chess_4.jpg,left,718.2099999999627,true,high,false
kcwCfj9X,3087lxlj7ptluqx9bvztb5ithyq0fq,3pm8nzgv82ts5prnjp4wl25abguxq8,kcwCfj9X,2020-0188,2020-11-18,15:52:23,16:06:18,NA,incomplete,208,number,1,left,Green_Plus_Chess_4.jpg,Blue_Circle_Dots_4.jpg,Purple_Plus_Stripes_2.jpg,left,533.7100000000792,true,high,false
kcwCfj9X,3087lxlj7ptluqx9bvztb5ithyq0fq,3pm8nzgv82ts5prnjp4wl25abguxq8,kcwCfj9X,2020-0188,2020-11-18,15:52:23,16:06:18,NA,incomplete,209,number,0,left,Purple_Plus_Stripes_3.jpg,Red_Star_Grid_3.jpg,Green_Plus_Chess_2.jpg,left,652.1749999996973,true,high,false
kcwCfj9X,3087lxlj7ptluqx9bvztb5ithyq0fq,3pm8nzgv82ts5prnjp4wl25abguxq8,kcwCfj9X,2020-0188,2020-11-18,15:52:23,16:06:18,NA,incomplete,210,number,1,right,Red_Circle_Grid_2.jpg,Purple_Circle_Chess_1.jpg,Blue_Star_Dots_2.jpg,right,637.8449999997392,true,high,false
kcwCfj9X,3087lxlj7ptluqx9bvztb5ithyq0fq,3pm8nzgv82ts5prnjp4wl25abguxq8,kcwCfj9X,2020-0188,2020-11-18,15:52:23,16:06:18,NA,incomplete,211,number,1,left,Purple_Star_Chess_4.jpg,Blue_Plus_Stripes_4.jpg,Red_Star_Dots_2.jpg,left,556.6350000000093,true,high,false
kcwCfj9X,3087lxlj7ptluqx9bvztb5ithyq0fq,3pm8nzgv82ts5prnjp4wl25abguxq8,kcwCfj9X,2020-0188,2020-11-18,15:52:23,16:06:18,NA,incomplete,212,number,1,left,Green_Plus_Dots_2.jpg,Purple_Triangle_Grid_2.jpg,Blue_Plus_Stripes_4.jpg,left,687.4000000002561,true,high,false
kcwCfj9X,3087lxlj7ptluqx9bvztb5ithyq0fq,3pm8nzgv82ts5prnjp4wl25abguxq8,kcwCfj9X,2020-0188,2020-11-18,15:52:23,16:06:18,NA,incomplete,213,number,1,left,Blue_Circle_Grid_4.jpg,Green_Star_Chess_4.jpg,Red_Circle_Dots_2.jpg,left,554.3150000004098,true,high,false
kcwCfj9X,3087lxlj7ptluqx9bvztb5ithyq0fq,3pm8nzgv82ts5prnjp4wl25abguxq8,kcwCfj9X,2020-0188,2020-11-18,15:52:23,16:06:18,NA,incomplete,214,number,1,right,Purple_Star_Dots_2.jpg,Red_Star_Grid_1.jpg,Blue_Plus_Stripes_2.jpg,right,707.684999999823,true,high,false
kcwCfj9X,3087lxlj7ptluqx9bvztb5ithyq0fq,3pm8nzgv82ts5prnjp4wl25abguxq8,kcwCfj9X,2020-0188,2020-11-18,15:52:23,16:06:18,NA,incomplete,215,number,1,left,Purple_Star_Dots_2.jpg,Green_Circle_Stripes_2.jpg,Blue_Star_Grid_3.jpg,left,608.6500000001397,true,high,false
kcwCfj9X,3087lxlj7ptluqx9bvztb5ithyq0fq,3pm8nzgv82ts5prnjp4wl25abguxq8,kcwCfj9X,2020-0188,2020-11-18,15:52:23,16:06:18,NA,incomplete,216,number,0,right,Green_Triangle_Stripes_3.jpg,Blue_Triangle_Grid_4.jpg,Purple_Circle_Chess_3.jpg,right,845.4400000000605,true,high,false
kcwCfj9X,3087lxlj7ptluqx9bvztb5ithyq0fq,3pm8nzgv82ts5prnjp4wl25abguxq8,kcwCfj9X,2020-0188,2020-11-18,15:52:23,16:06:18,NA,incomplete,217,number,1,right,Red_Circle_Grid_4.jpg,Purple_Circle_Chess_3.jpg,Blue_Plus_Dots_4.jpg,right,596.4050000002608,true,high,false
kcwCfj9X,3087lxlj7ptluqx9bvztb5ithyq0fq,3pm8nzgv82ts5prnjp4wl25abguxq8,kcwCfj9X,2020-0188,2020-11-18,15:52:23,16:06:18,NA,incomplete,218,number,0,right,Blue_Plus_Dots_1.jpg,Purple_Plus_Chess_2.jpg,Red_Circle_Grid_1.jpg,right,588.4049999999115,true,high,false
kcwCfj9X,3087lxlj7ptluqx9bvztb5ithyq0fq,3pm8nzgv82ts5prnjp4wl25abguxq8,kcwCfj9X,2020-0188,2020-11-18,15:52:23,16:06:18,NA,incomplete,219,number,1,left,Purple_Plus_Grid_4.jpg,Green_Star_Dots_4.jpg,Blue_Plus_Stripes_3.jpg,left,761.3700000002282,true,high,false
kcwCfj9X,3087lxlj7ptluqx9bvztb5ithyq0fq,3pm8nzgv82ts5prnjp4wl25abguxq8,kcwCfj9X,2020-0188,2020-11-18,15:52:23,16:06:18,NA,incomplete,220,shape,1,right,Blue_Plus_Chess_1.jpg,Green_Star_Stripes_1.jpg,Purple_Plus_Grid_3.jpg,left,550.824999999837,false,high,false
kcwCfj9X,3087lxlj7ptluqx9bvztb5ithyq0fq,3pm8nzgv82ts5prnjp4wl25abguxq8,kcwCfj9X,2020-0188,2020-11-18,15:52:23,16:06:18,NA,incomplete,221,shape,1,right,Purple_Circle_Chess_4.jpg,Red_Plus_Stripes_4.jpg,Green_Circle_Dots_3.jpg,left,568.2900000001537,false,high,false
kcwCfj9X,3087lxlj7ptluqx9bvztb5ithyq0fq,3pm8nzgv82ts5prnjp4wl25abguxq8,kcwCfj9X,2020-0188,2020-11-18,15:52:23,16:06:18,NA,incomplete,222,shape,0,left,Blue_Circle_Stripes_2.jpg,Green_Circle_Grid_4.jpg,Red_Triangle_Dots_2.jpg,left,599.9149999998044,true,high,false
kcwCfj9X,3087lxlj7ptluqx9bvztb5ithyq0fq,3pm8nzgv82ts5prnjp4wl25abguxq8,kcwCfj9X,2020-0188,2020-11-18,15:52:23,16:06:18,NA,incomplete,223,shape,1,right,Purple_Circle_Grid_4.jpg,Blue_Star_Stripes_4.jpg,Green_Circle_Chess_1.jpg,right,536.3299999998417,true,high,false
kcwCfj9X,3087lxlj7ptluqx9bvztb5ithyq0fq,3pm8nzgv82ts5prnjp4wl25abguxq8,kcwCfj9X,2020-0188,2020-11-18,15:52:23,16:06:18,NA,incomplete,224,shape,0,right,Purple_Circle_Chess_1.jpg,Blue_Plus_Stripes_1.jpg,Green_Circle_Dots_4.jpg,right,536.059999999823,true,high,false
kcwCfj9X,3087lxlj7ptluqx9bvztb5ithyq0fq,3pm8nzgv82ts5prnjp4wl25abguxq8,kcwCfj9X,2020-0188,2020-11-18,15:52:23,16:06:18,NA,incomplete,225,shape,1,left,Purple_Circle_Grid_1.jpg,Red_Circle_Chess_2.jpg,Blue_Star_Dots_1.jpg,left,558.9549999999581,true,high,false
kcwCfj9X,3087lxlj7ptluqx9bvztb5ithyq0fq,3pm8nzgv82ts5prnjp4wl25abguxq8,kcwCfj9X,2020-0188,2020-11-18,15:52:23,16:06:18,NA,incomplete,226,shape,1,right,Blue_Circle_Grid_1.jpg,Purple_Star_Dots_1.jpg,Green_Circle_Chess_2.jpg,right,509.9350000000559,true,high,false
kcwCfj9X,3087lxlj7ptluqx9bvztb5ithyq0fq,3pm8nzgv82ts5prnjp4wl25abguxq8,kcwCfj9X,2020-0188,2020-11-18,15:52:23,16:06:18,NA,incomplete,227,shape,1,left,Blue_Circle_Dots_1.jpg,Green_Circle_Grid_2.jpg,Purple_Triangle_Stripes_1.jpg,left,494.3850000000093,true,high,false
kcwCfj9X,3087lxlj7ptluqx9bvztb5ithyq0fq,3pm8nzgv82ts5prnjp4wl25abguxq8,kcwCfj9X,2020-0188,2020-11-18,15:52:23,16:06:18,NA,incomplete,228,shape,0,right,Green_Star_Dots_2.jpg,Purple_Plus_Chess_2.jpg,Red_Star_Grid_3.jpg,right,699.9350000000559,true,high,false
kcwCfj9X,3087lxlj7ptluqx9bvztb5ithyq0fq,3pm8nzgv82ts5prnjp4wl25abguxq8,kcwCfj9X,2020-0188,2020-11-18,15:52:23,16:06:18,NA,incomplete,229,shape,1,right,Blue_Plus_Stripes_2.jpg,Red_Circle_Grid_2.jpg,Green_Plus_Dots_1.jpg,right,580.5150000001304,true,high,false
kcwCfj9X,3087lxlj7ptluqx9bvztb5ithyq0fq,3pm8nzgv82ts5prnjp4wl25abguxq8,kcwCfj9X,2020-0188,2020-11-18,15:52:23,16:06:18,NA,incomplete,230,shape,1,left,Green_Star_Dots_3.jpg,Purple_Star_Stripes_4.jpg,Blue_Circle_Chess_3.jpg,left,590.7950000000419,true,high,false
kcwCfj9X,3087lxlj7ptluqx9bvztb5ithyq0fq,3pm8nzgv82ts5prnjp4wl25abguxq8,kcwCfj9X,2020-0188,2020-11-18,15:52:23,16:06:18,NA,incomplete,231,shape,0,right,Blue_Triangle_Dots_1.jpg,Green_Plus_Chess_1.jpg,Purple_Triangle_Stripes_3.jpg,right,543.9049999999115,true,high,false
kcwCfj9X,3087lxlj7ptluqx9bvztb5ithyq0fq,3pm8nzgv82ts5prnjp4wl25abguxq8,kcwCfj9X,2020-0188,2020-11-18,15:52:23,16:06:18,NA,incomplete,232,shape,1,left,Blue_Plus_Chess_2.jpg,Red_Plus_Grid_1.jpg,Purple_Triangle_Stripes_2.jpg,left,585.3549999996321,true,high,false
kcwCfj9X,3087lxlj7ptluqx9bvztb5ithyq0fq,3pm8nzgv82ts5prnjp4wl25abguxq8,kcwCfj9X,2020-0188,2020-11-18,15:52:23,16:06:18,NA,incomplete,233,shape,1,left,Blue_Plus_Dots_4.jpg,Green_Plus_Stripes_1.jpg,Red_Circle_Grid_4.jpg,left,612.4549999999581,true,high,false
kcwCfj9X,3087lxlj7ptluqx9bvztb5ithyq0fq,3pm8nzgv82ts5prnjp4wl25abguxq8,kcwCfj9X,2020-0188,2020-11-18,15:52:23,16:06:18,NA,incomplete,234,shape,1,left,Blue_Star_Chess_1.jpg,Green_Star_Dots_2.jpg,Purple_Triangle_Stripes_1.jpg,left,559.8300000001909,true,high,false
kcwCfj9X,3087lxlj7ptluqx9bvztb5ithyq0fq,3pm8nzgv82ts5prnjp4wl25abguxq8,kcwCfj9X,2020-0188,2020-11-18,15:52:23,16:06:18,NA,incomplete,235,shape,1,right,Blue_Plus_Grid_2.jpg,Green_Star_Chess_2.jpg,Purple_Plus_Stripes_4.jpg,right,565.6850000000559,true,high,false
kcwCfj9X,3087lxlj7ptluqx9bvztb5ithyq0fq,3pm8nzgv82ts5prnjp4wl25abguxq8,kcwCfj9X,2020-0188,2020-11-18,15:52:23,16:06:18,NA,incomplete,236,shape,1,left,Green_Triangle_Chess_1.jpg,Purple_Triangle_Grid_2.jpg,Red_Plus_Stripes_1.jpg,left,537.7749999997905,true,high,false
kcwCfj9X,3087lxlj7ptluqx9bvztb5ithyq0fq,3pm8nzgv82ts5prnjp4wl25abguxq8,kcwCfj9X,2020-0188,2020-11-18,15:52:23,16:06:18,NA,incomplete,237,shape,1,right,Blue_Star_Grid_1.jpg,Green_Plus_Stripes_1.jpg,Purple_Star_Chess_2.jpg,right,581.5799999999581,true,high,false
kcwCfj9X,3087lxlj7ptluqx9bvztb5ithyq0fq,3pm8nzgv82ts5prnjp4wl25abguxq8,kcwCfj9X,2020-0188,2020-11-18,15:52:23,16:06:18,NA,incomplete,238,shape,1,right,Blue_Star_Chess_3.jpg,Purple_Triangle_Dots_3.jpg,Green_Star_Stripes_4.jpg,right,512.5649999999441,true,high,false
kcwCfj9X,3087lxlj7ptluqx9bvztb5ithyq0fq,3pm8nzgv82ts5prnjp4wl25abguxq8,kcwCfj9X,2020-0188,2020-11-18,15:52:23,16:06:18,NA,incomplete,239,shape,1,right,Blue_Plus_Grid_1.jpg,Red_Circle_Stripes_1.jpg,Purple_Plus_Dots_3.jpg,right,568.9900000002235,true,high,false
kcwCfj9X,3087lxlj7ptluqx9bvztb5ithyq0fq,3pm8nzgv82ts5prnjp4wl25abguxq8,kcwCfj9X,2020-0188,2020-11-18,15:52:23,16:06:18,NA,NA,instruction example,filling,NA,NA,Red_Star_Grid_4.jpg,Blue_Plus_Grid_1.jpg,Red_Circle_Dots_3.jpg,NA,NA,NA,NA,undefined
kcwCfj9X,3087lxlj7ptluqx9bvztb5ithyq0fq,3pm8nzgv82ts5prnjp4wl25abguxq8,kcwCfj9X,2020-0188,2020-11-18,15:52:23,16:06:18,NA,NA,instruction example,filling,NA,NA,Red_Plus_Chess_3.jpg,Red_Star_Grid_1.jpg,Blue_Circle_Chess_4.jpg,NA,NA,NA,NA,undefined
kcwCfj9X,3087lxlj7ptluqx9bvztb5ithyq0fq,3pm8nzgv82ts5prnjp4wl25abguxq8,kcwCfj9X,2020-0188,2020-11-18,15:52:23,16:06:18,NA,NA,instruction example,filling,NA,NA,Red_Star_Stripes_2.jpg,Blue_Triangle_Chess_2.jpg,Green_Star_Dots_4.jpg,NA,NA,NA,NA,undefined
kcwCfj9X,3087lxlj7ptluqx9bvztb5ithyq0fq,3pm8nzgv82ts5prnjp4wl25abguxq8,kcwCfj9X,2020-0188,2020-11-18,15:52:23,16:06:18,NA,NA,instruction example,filling,NA,NA,Purple_Plus_Dots_4.jpg,Red_Plus_Grid_1.jpg,Blue_Triangle_Chess_4.jpg,NA,NA,NA,NA,undefined
kcwCfj9X,3087lxlj7ptluqx9bvztb5ithyq0fq,3pm8nzgv82ts5prnjp4wl25abguxq8,kcwCfj9X,2020-0188,2020-11-18,15:52:23,16:06:18,807625.4749999999,836092.2949999999,NA,NA,NA,NA,NA,NA,NA,NA,NA,NA,NA,undefined
