workerId,hitId,assignmentId,subject,studyid,exp_date,exp_start,exp_end,time_start,time_end,trial,type,reward_validity,answer,image_top,image_left,image_right,response,response_time,response_acc,volatility,age,race,gender,ethnicity,color,vision,neuro,practice
hcRRW6ud,3ac6mfv6anv2a7u5af0lkpxs80hhzh,3ql2ofsm9avjzu30c1gs3vpu7svncv,hcRRW6ud,2020-0188,2020-05-21,15:57:20,16:24:49,NA,incomplete,0,color,1,left,Green_Circle_Grid_1.jpg,Green_Triangle_Chess_2.jpg,Blue_Star_Grid_3.jpg,left,979.3349999999627,true,NA,NA,NA,NA,"NA",NA,NA,NA,true
hcRRW6ud,3ac6mfv6anv2a7u5af0lkpxs80hhzh,3ql2ofsm9avjzu30c1gs3vpu7svncv,hcRRW6ud,2020-0188,2020-05-21,15:57:20,16:24:49,NA,incomplete,1,color,1,right,Blue_Triangle_Stripes_2.jpg,Green_Circle_Stripes_4.jpg,Blue_Plus_Dots_3.jpg,right,822.9100000025937,true,NA,NA,NA,NA,"NA",NA,NA,NA,true
hcRRW6ud,3ac6mfv6anv2a7u5af0lkpxs80hhzh,3ql2ofsm9avjzu30c1gs3vpu7svncv,hcRRW6ud,2020-0188,2020-05-21,15:57:20,16:24:49,NA,incomplete,2,color,1,right,Green_Circle_Chess_3.jpg,Red_Triangle_Chess_1.jpg,Green_Plus_Stripes_2.jpg,right,806.3849999998929,true,NA,NA,NA,NA,"NA",NA,NA,NA,true
hcRRW6ud,3ac6mfv6anv2a7u5af0lkpxs80hhzh,3ql2ofsm9avjzu30c1gs3vpu7svncv,hcRRW6ud,2020-0188,2020-05-21,15:57:20,16:24:49,NA,incomplete,3,color,1,right,Blue_Triangle_Grid_2.jpg,Red_Circle_Grid_4.jpg,Blue_Plus_Chess_1.jpg,right,840.3250000010012,true,NA,NA,NA,NA,"NA",NA,NA,NA,true
hcRRW6ud,3ac6mfv6anv2a7u5af0lkpxs80hhzh,3ql2ofsm9avjzu30c1gs3vpu7svncv,hcRRW6ud,2020-0188,2020-05-21,15:57:20,16:24:49,NA,incomplete,4,color,1,left,Green_Plus_Dots_1.jpg,Green_Star_Chess_4.jpg,Purple_Circle_Dots_3.jpg,left,944.5400000003865,true,NA,NA,NA,NA,"NA",NA,NA,NA,true
hcRRW6ud,3ac6mfv6anv2a7u5af0lkpxs80hhzh,3ql2ofsm9avjzu30c1gs3vpu7svncv,hcRRW6ud,2020-0188,2020-05-21,15:57:20,16:24:49,NA,incomplete,5,color,1,right,Red_Star_Dots_3.jpg,Blue_Triangle_Dots_4.jpg,Red_Plus_Chess_2.jpg,right,796.0950000014855,true,NA,NA,NA,NA,"NA",NA,NA,NA,true
hcRRW6ud,3ac6mfv6anv2a7u5af0lkpxs80hhzh,3ql2ofsm9avjzu30c1gs3vpu7svncv,hcRRW6ud,2020-0188,2020-05-21,15:57:20,16:24:49,NA,incomplete,6,color,1,left,Green_Star_Grid_3.jpg,Green_Circle_Stripes_1.jpg,Purple_Plus_Grid_2.jpg,left,789.969999997993,true,NA,NA,NA,NA,"NA",NA,NA,NA,true
hcRRW6ud,3ac6mfv6anv2a7u5af0lkpxs80hhzh,3ql2ofsm9avjzu30c1gs3vpu7svncv,hcRRW6ud,2020-0188,2020-05-21,15:57:20,16:24:49,NA,incomplete,7,color,1,left,Blue_Circle_Dots_1.jpg,Blue_Plus_Grid_4.jpg,Red_Star_Dots_3.jpg,left,703.9550000008894,true,NA,NA,NA,NA,"NA",NA,NA,NA,true
hcRRW6ud,3ac6mfv6anv2a7u5af0lkpxs80hhzh,3ql2ofsm9avjzu30c1gs3vpu7svncv,hcRRW6ud,2020-0188,2020-05-21,15:57:20,16:24:49,NA,incomplete,8,color,1,right,Red_Triangle_Grid_3.jpg,Blue_Star_Grid_4.jpg,Red_Plus_Dots_2.jpg,right,788.8149999999441,true,NA,NA,NA,NA,"NA",NA,NA,NA,true
hcRRW6ud,3ac6mfv6anv2a7u5af0lkpxs80hhzh,3ql2ofsm9avjzu30c1gs3vpu7svncv,hcRRW6ud,2020-0188,2020-05-21,15:57:20,16:24:49,NA,incomplete,9,color,1,left,Blue_Triangle_Dots_2.jpg,Blue_Star_Chess_1.jpg,Purple_Circle_Dots_3.jpg,left,737.2350000005681,true,NA,NA,NA,NA,"NA",NA,NA,NA,true
hcRRW6ud,3ac6mfv6anv2a7u5af0lkpxs80hhzh,3ql2ofsm9avjzu30c1gs3vpu7svncv,hcRRW6ud,2020-0188,2020-05-21,15:57:20,16:24:49,NA,incomplete,10,color,1,right,Green_Star_Stripes_2.jpg,Purple_Circle_Stripes_4.jpg,Green_Triangle_Grid_1.jpg,right,667.815000000759,true,NA,NA,NA,NA,"NA",NA,NA,NA,true
hcRRW6ud,3ac6mfv6anv2a7u5af0lkpxs80hhzh,3ql2ofsm9avjzu30c1gs3vpu7svncv,hcRRW6ud,2020-0188,2020-05-21,15:57:20,16:24:49,NA,incomplete,11,color,1,right,Green_Star_Stripes_1.jpg,Purple_Circle_Stripes_4.jpg,Green_Plus_Dots_2.jpg,right,747.5500000000466,true,NA,NA,NA,NA,"NA",NA,NA,NA,true
hcRRW6ud,3ac6mfv6anv2a7u5af0lkpxs80hhzh,3ql2ofsm9avjzu30c1gs3vpu7svncv,hcRRW6ud,2020-0188,2020-05-21,15:57:20,16:24:49,NA,incomplete,12,color,1,right,Blue_Triangle_Grid_1.jpg,Red_Circle_Grid_2.jpg,Blue_Star_Stripes_3.jpg,right,782.9750000019558,true,NA,NA,NA,NA,"NA",NA,NA,NA,true
hcRRW6ud,3ac6mfv6anv2a7u5af0lkpxs80hhzh,3ql2ofsm9avjzu30c1gs3vpu7svncv,hcRRW6ud,2020-0188,2020-05-21,15:57:20,16:24:49,NA,incomplete,13,color,1,left,Blue_Triangle_Dots_2.jpg,Blue_Circle_Stripes_4.jpg,Red_Plus_Dots_1.jpg,left,842.0949999999721,true,NA,NA,NA,NA,"NA",NA,NA,NA,true
hcRRW6ud,3ac6mfv6anv2a7u5af0lkpxs80hhzh,3ql2ofsm9avjzu30c1gs3vpu7svncv,hcRRW6ud,2020-0188,2020-05-21,15:57:20,16:24:49,NA,incomplete,14,color,1,left,Green_Star_Chess_2.jpg,Green_Triangle_Stripes_4.jpg,Blue_Circle_Chess_3.jpg,left,803.4950000001118,true,NA,NA,NA,NA,"NA",NA,NA,NA,true
hcRRW6ud,3ac6mfv6anv2a7u5af0lkpxs80hhzh,3ql2ofsm9avjzu30c1gs3vpu7svncv,hcRRW6ud,2020-0188,2020-05-21,15:57:20,16:24:49,NA,incomplete,15,color,1,right,Blue_Triangle_Grid_1.jpg,Red_Circle_Grid_4.jpg,Blue_Plus_Stripes_3.jpg,right,754.7950000007404,true,NA,NA,NA,NA,"NA",NA,NA,NA,true
hcRRW6ud,3ac6mfv6anv2a7u5af0lkpxs80hhzh,3ql2ofsm9avjzu30c1gs3vpu7svncv,hcRRW6ud,2020-0188,2020-05-21,15:57:20,16:24:49,NA,incomplete,16,color,1,left,Red_Star_Stripes_1.jpg,Red_Circle_Dots_3.jpg,Green_Triangle_Stripes_4.jpg,left,982.785000000149,true,NA,NA,NA,NA,"NA",NA,NA,NA,true
hcRRW6ud,3ac6mfv6anv2a7u5af0lkpxs80hhzh,3ql2ofsm9avjzu30c1gs3vpu7svncv,hcRRW6ud,2020-0188,2020-05-21,15:57:20,16:24:49,NA,incomplete,17,color,1,left,Red_Star_Stripes_3.jpg,Red_Circle_Chess_1.jpg,Blue_Triangle_Stripes_4.jpg,left,839.8900000029244,true,NA,NA,NA,NA,"NA",NA,NA,NA,true
hcRRW6ud,3ac6mfv6anv2a7u5af0lkpxs80hhzh,3ql2ofsm9avjzu30c1gs3vpu7svncv,hcRRW6ud,2020-0188,2020-05-21,15:57:20,16:24:49,NA,incomplete,18,color,1,left,Purple_Plus_Dots_2.jpg,Purple_Circle_Stripes_4.jpg,Blue_Star_Dots_1.jpg,left,921.2950000000419,true,NA,NA,NA,NA,"NA",NA,NA,NA,true
hcRRW6ud,3ac6mfv6anv2a7u5af0lkpxs80hhzh,3ql2ofsm9avjzu30c1gs3vpu7svncv,hcRRW6ud,2020-0188,2020-05-21,15:57:20,16:24:49,NA,incomplete,19,color,1,right,Green_Plus_Chess_1.jpg,Purple_Triangle_Chess_2.jpg,Green_Circle_Stripes_3.jpg,right,822.8300000008894,true,NA,NA,NA,NA,"NA",NA,NA,NA,true
hcRRW6ud,3ac6mfv6anv2a7u5af0lkpxs80hhzh,3ql2ofsm9avjzu30c1gs3vpu7svncv,hcRRW6ud,2020-0188,2020-05-21,15:57:20,16:24:49,NA,incomplete,20,filling,0,left,Green_Triangle_Grid_2.jpg,Purple_Plus_Grid_3.jpg,Green_Circle_Stripes_4.jpg,right,1286.0600000022678,false,NA,NA,NA,NA,"NA",NA,NA,NA,true
hcRRW6ud,3ac6mfv6anv2a7u5af0lkpxs80hhzh,3ql2ofsm9avjzu30c1gs3vpu7svncv,hcRRW6ud,2020-0188,2020-05-21,15:57:20,16:24:49,NA,incomplete,21,filling,1,left,Red_Triangle_Grid_2.jpg,Blue_Circle_Grid_3.jpg,Red_Plus_Dots_1.jpg,left,1226.9249999989988,true,NA,NA,NA,NA,"NA",NA,NA,NA,true
hcRRW6ud,3ac6mfv6anv2a7u5af0lkpxs80hhzh,3ql2ofsm9avjzu30c1gs3vpu7svncv,hcRRW6ud,2020-0188,2020-05-21,15:57:20,16:24:49,NA,incomplete,22,filling,0,right,Green_Circle_Dots_1.jpg,Green_Triangle_Stripes_2.jpg,Red_Plus_Dots_4.jpg,right,1675.790000001085,true,NA,NA,NA,NA,"NA",NA,NA,NA,true
hcRRW6ud,3ac6mfv6anv2a7u5af0lkpxs80hhzh,3ql2ofsm9avjzu30c1gs3vpu7svncv,hcRRW6ud,2020-0188,2020-05-21,15:57:20,16:24:49,NA,incomplete,23,filling,0,left,Blue_Triangle_Grid_1.jpg,Green_Star_Grid_4.jpg,Blue_Plus_Chess_2.jpg,left,1195.1450000014156,true,NA,NA,NA,NA,"NA",NA,NA,NA,true
hcRRW6ud,3ac6mfv6anv2a7u5af0lkpxs80hhzh,3ql2ofsm9avjzu30c1gs3vpu7svncv,hcRRW6ud,2020-0188,2020-05-21,15:57:20,16:24:49,NA,incomplete,24,filling,1,left,Green_Triangle_Grid_1.jpg,Purple_Star_Grid_4.jpg,Green_Circle_Dots_3.jpg,left,1498.2449999988312,true,NA,NA,NA,NA,"NA",NA,NA,NA,true
hcRRW6ud,3ac6mfv6anv2a7u5af0lkpxs80hhzh,3ql2ofsm9avjzu30c1gs3vpu7svncv,hcRRW6ud,2020-0188,2020-05-21,15:57:20,16:24:49,NA,incomplete,25,filling,1,left,Blue_Circle_Chess_3.jpg,Red_Plus_Chess_4.jpg,Blue_Triangle_Dots_1.jpg,left,1104.0700000012293,true,NA,NA,NA,NA,"NA",NA,NA,NA,true
hcRRW6ud,3ac6mfv6anv2a7u5af0lkpxs80hhzh,3ql2ofsm9avjzu30c1gs3vpu7svncv,hcRRW6ud,2020-0188,2020-05-21,15:57:20,16:24:49,NA,incomplete,26,filling,1,left,Purple_Triangle_Dots_4.jpg,Red_Star_Dots_3.jpg,Purple_Plus_Stripes_1.jpg,right,1084.6549999988638,false,NA,NA,NA,NA,"NA",NA,NA,NA,true
hcRRW6ud,3ac6mfv6anv2a7u5af0lkpxs80hhzh,3ql2ofsm9avjzu30c1gs3vpu7svncv,hcRRW6ud,2020-0188,2020-05-21,15:57:20,16:24:49,NA,incomplete,27,filling,1,left,Red_Star_Stripes_3.jpg,Purple_Plus_Stripes_1.jpg,Red_Triangle_Dots_4.jpg,left,1164.4850000010338,true,NA,NA,NA,NA,"NA",NA,NA,NA,true
hcRRW6ud,3ac6mfv6anv2a7u5af0lkpxs80hhzh,3ql2ofsm9avjzu30c1gs3vpu7svncv,hcRRW6ud,2020-0188,2020-05-21,15:57:20,16:24:49,NA,incomplete,28,filling,1,left,Green_Triangle_Stripes_4.jpg,Purple_Circle_Stripes_3.jpg,Green_Plus_Grid_1.jpg,left,1101.6550000021234,true,NA,NA,NA,NA,"NA",NA,NA,NA,true
hcRRW6ud,3ac6mfv6anv2a7u5af0lkpxs80hhzh,3ql2ofsm9avjzu30c1gs3vpu7svncv,hcRRW6ud,2020-0188,2020-05-21,15:57:20,16:24:49,NA,incomplete,29,filling,1,right,Green_Triangle_Dots_3.jpg,Green_Star_Chess_2.jpg,Purple_Plus_Dots_4.jpg,right,1355.4650000005495,true,NA,NA,NA,NA,"NA",NA,NA,NA,true
hcRRW6ud,3ac6mfv6anv2a7u5af0lkpxs80hhzh,3ql2ofsm9avjzu30c1gs3vpu7svncv,hcRRW6ud,2020-0188,2020-05-21,15:57:20,16:24:49,NA,incomplete,30,filling,1,right,Green_Star_Chess_1.jpg,Green_Triangle_Stripes_2.jpg,Blue_Plus_Chess_3.jpg,right,1142.289999999688,true,NA,NA,NA,NA,"NA",NA,NA,NA,true
hcRRW6ud,3ac6mfv6anv2a7u5af0lkpxs80hhzh,3ql2ofsm9avjzu30c1gs3vpu7svncv,hcRRW6ud,2020-0188,2020-05-21,15:57:20,16:24:49,NA,incomplete,31,filling,0,left,Green_Star_Chess_3.jpg,Red_Plus_Chess_4.jpg,Green_Circle_Stripes_2.jpg,left,1092.0399999995716,true,NA,NA,NA,NA,"NA",NA,NA,NA,true
hcRRW6ud,3ac6mfv6anv2a7u5af0lkpxs80hhzh,3ql2ofsm9avjzu30c1gs3vpu7svncv,hcRRW6ud,2020-0188,2020-05-21,15:57:20,16:24:49,NA,incomplete,32,filling,1,right,Purple_Circle_Stripes_4.jpg,Purple_Triangle_Grid_1.jpg,Green_Plus_Stripes_2.jpg,left,1014.9099999980535,false,NA,NA,NA,NA,"NA",NA,NA,NA,true
hcRRW6ud,3ac6mfv6anv2a7u5af0lkpxs80hhzh,3ql2ofsm9avjzu30c1gs3vpu7svncv,hcRRW6ud,2020-0188,2020-05-21,15:57:20,16:24:49,NA,incomplete,33,filling,1,left,Green_Star_Chess_4.jpg,Purple_Triangle_Chess_2.jpg,Green_Circle_Dots_1.jpg,left,1152.925000002142,true,NA,NA,NA,NA,"NA",NA,NA,NA,true
hcRRW6ud,3ac6mfv6anv2a7u5af0lkpxs80hhzh,3ql2ofsm9avjzu30c1gs3vpu7svncv,hcRRW6ud,2020-0188,2020-05-21,15:57:20,16:24:49,NA,incomplete,34,filling,1,left,Blue_Star_Stripes_1.jpg,Green_Circle_Stripes_3.jpg,Blue_Plus_Grid_4.jpg,left,1211.2200000010198,true,NA,NA,NA,NA,"NA",NA,NA,NA,true
hcRRW6ud,3ac6mfv6anv2a7u5af0lkpxs80hhzh,3ql2ofsm9avjzu30c1gs3vpu7svncv,hcRRW6ud,2020-0188,2020-05-21,15:57:20,16:24:49,NA,incomplete,35,filling,0,left,Blue_Circle_Chess_2.jpg,Purple_Plus_Chess_3.jpg,Blue_Star_Dots_4.jpg,left,1221.4800000002142,true,NA,NA,NA,NA,"NA",NA,NA,NA,true
hcRRW6ud,3ac6mfv6anv2a7u5af0lkpxs80hhzh,3ql2ofsm9avjzu30c1gs3vpu7svncv,hcRRW6ud,2020-0188,2020-05-21,15:57:20,16:24:49,NA,incomplete,36,filling,0,left,Red_Triangle_Dots_1.jpg,Blue_Circle_Dots_2.jpg,Red_Star_Stripes_4.jpg,left,1157.4349999973783,true,NA,NA,NA,NA,"NA",NA,NA,NA,true
hcRRW6ud,3ac6mfv6anv2a7u5af0lkpxs80hhzh,3ql2ofsm9avjzu30c1gs3vpu7svncv,hcRRW6ud,2020-0188,2020-05-21,15:57:20,16:24:49,NA,incomplete,37,filling,0,left,Red_Circle_Dots_1.jpg,Blue_Triangle_Dots_3.jpg,Red_Star_Chess_2.jpg,left,1287.7450000013923,true,NA,NA,NA,NA,"NA",NA,NA,NA,true
hcRRW6ud,3ac6mfv6anv2a7u5af0lkpxs80hhzh,3ql2ofsm9avjzu30c1gs3vpu7svncv,hcRRW6ud,2020-0188,2020-05-21,15:57:20,16:24:49,NA,incomplete,38,filling,1,right,Purple_Plus_Dots_1.jpg,Purple_Star_Stripes_4.jpg,Red_Triangle_Dots_3.jpg,right,1492.1450000002515,true,NA,NA,NA,NA,"NA",NA,NA,NA,true
hcRRW6ud,3ac6mfv6anv2a7u5af0lkpxs80hhzh,3ql2ofsm9avjzu30c1gs3vpu7svncv,hcRRW6ud,2020-0188,2020-05-21,15:57:20,16:24:49,NA,incomplete,39,filling,0,left,Purple_Circle_Stripes_3.jpg,Blue_Star_Stripes_4.jpg,Purple_Triangle_Chess_2.jpg,left,1083.9599999999627,true,NA,NA,NA,NA,"NA",NA,NA,NA,true
hcRRW6ud,3ac6mfv6anv2a7u5af0lkpxs80hhzh,3ql2ofsm9avjzu30c1gs3vpu7svncv,hcRRW6ud,2020-0188,2020-05-21,15:57:20,16:24:49,NA,incomplete,0,color,1,right,Blue_Circle_Stripes_1.jpg,Purple_Triangle_Stripes_2.jpg,Blue_Star_Grid_4.jpg,right,1089.3399999986868,true,low,NA,NA,NA,"NA",NA,NA,NA,false
hcRRW6ud,3ac6mfv6anv2a7u5af0lkpxs80hhzh,3ql2ofsm9avjzu30c1gs3vpu7svncv,hcRRW6ud,2020-0188,2020-05-21,15:57:20,16:24:49,NA,incomplete,1,color,1,left,Red_Circle_Dots_3.jpg,Red_Triangle_Chess_4.jpg,Green_Plus_Dots_1.jpg,left,909.9599999971688,true,low,NA,NA,NA,"NA",NA,NA,NA,false
hcRRW6ud,3ac6mfv6anv2a7u5af0lkpxs80hhzh,3ql2ofsm9avjzu30c1gs3vpu7svncv,hcRRW6ud,2020-0188,2020-05-21,15:57:20,16:24:49,NA,incomplete,2,color,1,left,Red_Plus_Stripes_2.jpg,Red_Star_Grid_1.jpg,Purple_Circle_Stripes_4.jpg,left,802.7900000014342,true,low,NA,NA,NA,"NA",NA,NA,NA,false
hcRRW6ud,3ac6mfv6anv2a7u5af0lkpxs80hhzh,3ql2ofsm9avjzu30c1gs3vpu7svncv,hcRRW6ud,2020-0188,2020-05-21,15:57:20,16:24:49,NA,incomplete,3,color,1,left,Red_Plus_Chess_2.jpg,Red_Triangle_Grid_3.jpg,Blue_Circle_Chess_1.jpg,left,756.5499999981839,true,low,NA,NA,NA,"NA",NA,NA,NA,false
hcRRW6ud,3ac6mfv6anv2a7u5af0lkpxs80hhzh,3ql2ofsm9avjzu30c1gs3vpu7svncv,hcRRW6ud,2020-0188,2020-05-21,15:57:20,16:24:49,NA,incomplete,4,color,1,left,Blue_Triangle_Stripes_1.jpg,Blue_Plus_Dots_3.jpg,Green_Star_Stripes_2.jpg,left,769.524999999674,true,low,NA,NA,NA,"NA",NA,NA,NA,false
hcRRW6ud,3ac6mfv6anv2a7u5af0lkpxs80hhzh,3ql2ofsm9avjzu30c1gs3vpu7svncv,hcRRW6ud,2020-0188,2020-05-21,15:57:20,16:24:49,NA,incomplete,5,color,1,left,Blue_Triangle_Grid_2.jpg,Blue_Circle_Chess_3.jpg,Purple_Star_Grid_4.jpg,left,858.4499999997206,true,low,NA,NA,NA,"NA",NA,NA,NA,false
hcRRW6ud,3ac6mfv6anv2a7u5af0lkpxs80hhzh,3ql2ofsm9avjzu30c1gs3vpu7svncv,hcRRW6ud,2020-0188,2020-05-21,15:57:20,16:24:49,NA,incomplete,6,color,1,left,Purple_Star_Grid_3.jpg,Purple_Triangle_Dots_1.jpg,Green_Circle_Grid_4.jpg,left,849.1399999983842,true,low,NA,NA,NA,"NA",NA,NA,NA,false
hcRRW6ud,3ac6mfv6anv2a7u5af0lkpxs80hhzh,3ql2ofsm9avjzu30c1gs3vpu7svncv,hcRRW6ud,2020-0188,2020-05-21,15:57:20,16:24:49,NA,incomplete,7,color,1,left,Purple_Star_Dots_3.jpg,Purple_Circle_Stripes_4.jpg,Red_Triangle_Dots_2.jpg,left,1082.1350000005914,true,low,NA,NA,NA,"NA",NA,NA,NA,false
hcRRW6ud,3ac6mfv6anv2a7u5af0lkpxs80hhzh,3ql2ofsm9avjzu30c1gs3vpu7svncv,hcRRW6ud,2020-0188,2020-05-21,15:57:20,16:24:49,NA,incomplete,8,color,0,left,Blue_Star_Chess_1.jpg,Blue_Plus_Dots_3.jpg,Purple_Circle_Chess_4.jpg,left,744.0949999981094,true,low,NA,NA,NA,"NA",NA,NA,NA,false
hcRRW6ud,3ac6mfv6anv2a7u5af0lkpxs80hhzh,3ql2ofsm9avjzu30c1gs3vpu7svncv,hcRRW6ud,2020-0188,2020-05-21,15:57:20,16:24:49,NA,incomplete,9,color,1,left,Red_Circle_Dots_1.jpg,Red_Plus_Grid_4.jpg,Purple_Triangle_Dots_2.jpg,left,893.9649999992689,true,low,NA,NA,NA,"NA",NA,NA,NA,false
hcRRW6ud,3ac6mfv6anv2a7u5af0lkpxs80hhzh,3ql2ofsm9avjzu30c1gs3vpu7svncv,hcRRW6ud,2020-0188,2020-05-21,15:57:20,16:24:49,NA,incomplete,10,color,0,left,Red_Triangle_Dots_4.jpg,Red_Star_Stripes_3.jpg,Purple_Plus_Dots_1.jpg,left,762.4250000007451,true,low,NA,NA,NA,"NA",NA,NA,NA,false
hcRRW6ud,3ac6mfv6anv2a7u5af0lkpxs80hhzh,3ql2ofsm9avjzu30c1gs3vpu7svncv,hcRRW6ud,2020-0188,2020-05-21,15:57:20,16:24:49,NA,incomplete,11,color,1,right,Blue_Star_Grid_1.jpg,Green_Plus_Grid_2.jpg,Blue_Circle_Stripes_3.jpg,right,813.0500000006286,true,low,NA,NA,NA,"NA",NA,NA,NA,false
hcRRW6ud,3ac6mfv6anv2a7u5af0lkpxs80hhzh,3ql2ofsm9avjzu30c1gs3vpu7svncv,hcRRW6ud,2020-0188,2020-05-21,15:57:20,16:24:49,NA,incomplete,12,color,1,right,Blue_Star_Grid_2.jpg,Purple_Plus_Grid_4.jpg,Blue_Circle_Dots_1.jpg,right,958.9099999975879,true,low,NA,NA,NA,"NA",NA,NA,NA,false
hcRRW6ud,3ac6mfv6anv2a7u5af0lkpxs80hhzh,3ql2ofsm9avjzu30c1gs3vpu7svncv,hcRRW6ud,2020-0188,2020-05-21,15:57:20,16:24:49,NA,incomplete,13,color,1,right,Purple_Triangle_Dots_4.jpg,Blue_Plus_Dots_2.jpg,Purple_Circle_Stripes_1.jpg,right,1017.2050000001909,true,low,NA,NA,NA,"NA",NA,NA,NA,false
hcRRW6ud,3ac6mfv6anv2a7u5af0lkpxs80hhzh,3ql2ofsm9avjzu30c1gs3vpu7svncv,hcRRW6ud,2020-0188,2020-05-21,15:57:20,16:24:49,NA,incomplete,14,color,0,right,Purple_Star_Stripes_2.jpg,Blue_Plus_Stripes_3.jpg,Purple_Triangle_Dots_4.jpg,right,869.350000000908,true,low,NA,NA,NA,"NA",NA,NA,NA,false
hcRRW6ud,3ac6mfv6anv2a7u5af0lkpxs80hhzh,3ql2ofsm9avjzu30c1gs3vpu7svncv,hcRRW6ud,2020-0188,2020-05-21,15:57:20,16:24:49,NA,incomplete,15,color,1,right,Blue_Star_Dots_2.jpg,Purple_Triangle_Dots_3.jpg,Blue_Plus_Stripes_4.jpg,right,978.329999997979,true,low,NA,NA,NA,"NA",NA,NA,NA,false
hcRRW6ud,3ac6mfv6anv2a7u5af0lkpxs80hhzh,3ql2ofsm9avjzu30c1gs3vpu7svncv,hcRRW6ud,2020-0188,2020-05-21,15:57:20,16:24:49,NA,incomplete,16,color,1,left,Purple_Circle_Grid_3.jpg,Purple_Triangle_Stripes_2.jpg,Green_Star_Grid_1.jpg,left,796.2950000000419,true,low,NA,NA,NA,"NA",NA,NA,NA,false
hcRRW6ud,3ac6mfv6anv2a7u5af0lkpxs80hhzh,3ql2ofsm9avjzu30c1gs3vpu7svncv,hcRRW6ud,2020-0188,2020-05-21,15:57:20,16:24:49,NA,incomplete,17,color,0,right,Blue_Triangle_Chess_3.jpg,Red_Plus_Chess_4.jpg,Blue_Star_Grid_1.jpg,right,918.2349999974249,true,low,NA,NA,NA,"NA",NA,NA,NA,false
hcRRW6ud,3ac6mfv6anv2a7u5af0lkpxs80hhzh,3ql2ofsm9avjzu30c1gs3vpu7svncv,hcRRW6ud,2020-0188,2020-05-21,15:57:20,16:24:49,NA,incomplete,18,color,1,right,Red_Star_Dots_1.jpg,Blue_Plus_Dots_3.jpg,Red_Circle_Chess_2.jpg,right,1364.6699999991106,true,low,NA,NA,NA,"NA",NA,NA,NA,false
hcRRW6ud,3ac6mfv6anv2a7u5af0lkpxs80hhzh,3ql2ofsm9avjzu30c1gs3vpu7svncv,hcRRW6ud,2020-0188,2020-05-21,15:57:20,16:24:49,NA,incomplete,19,color,1,left,Purple_Plus_Dots_1.jpg,Purple_Circle_Chess_3.jpg,Green_Triangle_Dots_2.jpg,left,1245.7450000002282,true,low,NA,NA,NA,"NA",NA,NA,NA,false
hcRRW6ud,3ac6mfv6anv2a7u5af0lkpxs80hhzh,3ql2ofsm9avjzu30c1gs3vpu7svncv,hcRRW6ud,2020-0188,2020-05-21,15:57:20,16:24:49,NA,incomplete,20,color,1,left,Purple_Triangle_Dots_4.jpg,Purple_Circle_Stripes_3.jpg,Red_Star_Dots_1.jpg,left,893.6099999991711,true,low,NA,NA,NA,"NA",NA,NA,NA,false
hcRRW6ud,3ac6mfv6anv2a7u5af0lkpxs80hhzh,3ql2ofsm9avjzu30c1gs3vpu7svncv,hcRRW6ud,2020-0188,2020-05-21,15:57:20,16:24:49,NA,incomplete,21,color,0,right,Red_Star_Stripes_3.jpg,Blue_Triangle_Stripes_1.jpg,Red_Circle_Dots_2.jpg,right,795.3900000029244,true,low,NA,NA,NA,"NA",NA,NA,NA,false
hcRRW6ud,3ac6mfv6anv2a7u5af0lkpxs80hhzh,3ql2ofsm9avjzu30c1gs3vpu7svncv,hcRRW6ud,2020-0188,2020-05-21,15:57:20,16:24:49,NA,incomplete,22,color,0,right,Green_Plus_Dots_3.jpg,Blue_Triangle_Dots_1.jpg,Green_Circle_Grid_2.jpg,right,845.274999999674,true,low,NA,NA,NA,"NA",NA,NA,NA,false
hcRRW6ud,3ac6mfv6anv2a7u5af0lkpxs80hhzh,3ql2ofsm9avjzu30c1gs3vpu7svncv,hcRRW6ud,2020-0188,2020-05-21,15:57:20,16:24:49,NA,incomplete,23,color,1,right,Purple_Plus_Stripes_2.jpg,Blue_Circle_Stripes_1.jpg,Purple_Star_Dots_3.jpg,left,1158.52000000095,false,low,NA,NA,NA,"NA",NA,NA,NA,false
hcRRW6ud,3ac6mfv6anv2a7u5af0lkpxs80hhzh,3ql2ofsm9avjzu30c1gs3vpu7svncv,hcRRW6ud,2020-0188,2020-05-21,15:57:20,16:24:49,NA,incomplete,24,color,1,left,Green_Plus_Grid_3.jpg,Green_Triangle_Chess_2.jpg,Purple_Star_Grid_4.jpg,right,1143.2449999994133,false,low,NA,NA,NA,"NA",NA,NA,NA,false
hcRRW6ud,3ac6mfv6anv2a7u5af0lkpxs80hhzh,3ql2ofsm9avjzu30c1gs3vpu7svncv,hcRRW6ud,2020-0188,2020-05-21,15:57:20,16:24:49,NA,incomplete,25,color,1,left,Green_Triangle_Grid_1.jpg,Green_Circle_Stripes_2.jpg,Red_Star_Grid_4.jpg,left,755.8049999971408,true,low,NA,NA,NA,"NA",NA,NA,NA,false
hcRRW6ud,3ac6mfv6anv2a7u5af0lkpxs80hhzh,3ql2ofsm9avjzu30c1gs3vpu7svncv,hcRRW6ud,2020-0188,2020-05-21,15:57:20,16:24:49,NA,incomplete,26,color,1,right,Red_Triangle_Stripes_3.jpg,Purple_Star_Stripes_1.jpg,Red_Circle_Dots_2.jpg,right,982.6300000022165,true,low,NA,NA,NA,"NA",NA,NA,NA,false
hcRRW6ud,3ac6mfv6anv2a7u5af0lkpxs80hhzh,3ql2ofsm9avjzu30c1gs3vpu7svncv,hcRRW6ud,2020-0188,2020-05-21,15:57:20,16:24:49,NA,incomplete,27,color,0,right,Green_Circle_Dots_1.jpg,Blue_Triangle_Dots_3.jpg,Green_Plus_Stripes_4.jpg,right,922.2350000018487,true,low,NA,NA,NA,"NA",NA,NA,NA,false
hcRRW6ud,3ac6mfv6anv2a7u5af0lkpxs80hhzh,3ql2ofsm9avjzu30c1gs3vpu7svncv,hcRRW6ud,2020-0188,2020-05-21,15:57:20,16:24:49,NA,incomplete,28,color,1,left,Red_Plus_Grid_3.jpg,Red_Circle_Dots_1.jpg,Green_Triangle_Grid_2.jpg,left,990.574999999837,true,low,NA,NA,NA,"NA",NA,NA,NA,false
hcRRW6ud,3ac6mfv6anv2a7u5af0lkpxs80hhzh,3ql2ofsm9avjzu30c1gs3vpu7svncv,hcRRW6ud,2020-0188,2020-05-21,15:57:20,16:24:49,NA,incomplete,29,color,0,right,Green_Circle_Dots_2.jpg,Purple_Triangle_Dots_4.jpg,Green_Star_Grid_1.jpg,right,735.274999999092,true,low,NA,NA,NA,"NA",NA,NA,NA,false
hcRRW6ud,3ac6mfv6anv2a7u5af0lkpxs80hhzh,3ql2ofsm9avjzu30c1gs3vpu7svncv,hcRRW6ud,2020-0188,2020-05-21,15:57:20,16:24:49,NA,incomplete,30,filling,1,left,Purple_Circle_Dots_3.jpg,Red_Triangle_Dots_2.jpg,Purple_Star_Stripes_4.jpg,right,868.1150000010384,false,low,NA,NA,NA,"NA",NA,NA,NA,false
hcRRW6ud,3ac6mfv6anv2a7u5af0lkpxs80hhzh,3ql2ofsm9avjzu30c1gs3vpu7svncv,hcRRW6ud,2020-0188,2020-05-21,15:57:20,16:24:49,NA,incomplete,31,filling,0,left,Purple_Star_Stripes_4.jpg,Blue_Plus_Stripes_1.jpg,Purple_Triangle_Dots_2.jpg,left,1298.1949999993667,true,low,NA,NA,NA,"NA",NA,NA,NA,false
hcRRW6ud,3ac6mfv6anv2a7u5af0lkpxs80hhzh,3ql2ofsm9avjzu30c1gs3vpu7svncv,hcRRW6ud,2020-0188,2020-05-21,15:57:20,16:24:49,NA,incomplete,32,filling,1,left,Purple_Plus_Grid_2.jpg,Green_Star_Grid_4.jpg,Purple_Triangle_Dots_1.jpg,right,823.6150000011548,false,low,NA,NA,NA,"NA",NA,NA,NA,false
hcRRW6ud,3ac6mfv6anv2a7u5af0lkpxs80hhzh,3ql2ofsm9avjzu30c1gs3vpu7svncv,hcRRW6ud,2020-0188,2020-05-21,15:57:20,16:24:49,NA,incomplete,33,filling,1,left,Purple_Triangle_Grid_1.jpg,Red_Plus_Grid_4.jpg,Purple_Star_Chess_2.jpg,right,914.1650000020163,false,low,NA,NA,NA,"NA",NA,NA,NA,false
hcRRW6ud,3ac6mfv6anv2a7u5af0lkpxs80hhzh,3ql2ofsm9avjzu30c1gs3vpu7svncv,hcRRW6ud,2020-0188,2020-05-21,15:57:20,16:24:49,NA,incomplete,34,filling,1,left,Red_Triangle_Dots_4.jpg,Purple_Plus_Dots_3.jpg,Red_Star_Stripes_2.jpg,left,1366.3049999995856,true,low,NA,NA,NA,"NA",NA,NA,NA,false
hcRRW6ud,3ac6mfv6anv2a7u5af0lkpxs80hhzh,3ql2ofsm9avjzu30c1gs3vpu7svncv,hcRRW6ud,2020-0188,2020-05-21,15:57:20,16:24:49,NA,incomplete,35,filling,1,left,Purple_Circle_Stripes_4.jpg,Blue_Plus_Stripes_2.jpg,Purple_Star_Dots_1.jpg,left,1127.7899999986403,true,low,NA,NA,NA,"NA",NA,NA,NA,false
hcRRW6ud,3ac6mfv6anv2a7u5af0lkpxs80hhzh,3ql2ofsm9avjzu30c1gs3vpu7svncv,hcRRW6ud,2020-0188,2020-05-21,15:57:20,16:24:49,NA,incomplete,36,filling,0,right,Green_Star_Stripes_4.jpg,Green_Triangle_Dots_2.jpg,Blue_Circle_Stripes_1.jpg,right,1181.1950000009965,true,low,NA,NA,NA,"NA",NA,NA,NA,false
hcRRW6ud,3ac6mfv6anv2a7u5af0lkpxs80hhzh,3ql2ofsm9avjzu30c1gs3vpu7svncv,hcRRW6ud,2020-0188,2020-05-21,15:57:20,16:24:49,NA,incomplete,37,filling,1,left,Blue_Star_Dots_4.jpg,Green_Triangle_Dots_1.jpg,Blue_Plus_Stripes_2.jpg,left,1201.7550000018673,true,low,NA,NA,NA,"NA",NA,NA,NA,false
hcRRW6ud,3ac6mfv6anv2a7u5af0lkpxs80hhzh,3ql2ofsm9avjzu30c1gs3vpu7svncv,hcRRW6ud,2020-0188,2020-05-21,15:57:20,16:24:49,NA,incomplete,38,filling,1,left,Green_Triangle_Grid_1.jpg,Blue_Plus_Grid_2.jpg,Green_Circle_Chess_3.jpg,left,1177.5750000015832,true,low,NA,NA,NA,"NA",NA,NA,NA,false
hcRRW6ud,3ac6mfv6anv2a7u5af0lkpxs80hhzh,3ql2ofsm9avjzu30c1gs3vpu7svncv,hcRRW6ud,2020-0188,2020-05-21,15:57:20,16:24:49,NA,incomplete,39,filling,1,left,Blue_Circle_Grid_4.jpg,Red_Triangle_Grid_3.jpg,Blue_Star_Dots_1.jpg,left,1146.4500000001863,true,low,NA,NA,NA,"NA",NA,NA,NA,false
hcRRW6ud,3ac6mfv6anv2a7u5af0lkpxs80hhzh,3ql2ofsm9avjzu30c1gs3vpu7svncv,hcRRW6ud,2020-0188,2020-05-21,15:57:20,16:24:49,NA,incomplete,40,filling,1,left,Blue_Star_Stripes_1.jpg,Red_Triangle_Stripes_3.jpg,Blue_Circle_Chess_2.jpg,left,1190.4500000019325,true,low,NA,NA,NA,"NA",NA,NA,NA,false
hcRRW6ud,3ac6mfv6anv2a7u5af0lkpxs80hhzh,3ql2ofsm9avjzu30c1gs3vpu7svncv,hcRRW6ud,2020-0188,2020-05-21,15:57:20,16:24:49,NA,incomplete,41,filling,1,left,Purple_Circle_Dots_3.jpg,Green_Star_Dots_2.jpg,Purple_Triangle_Stripes_1.jpg,left,1073.7850000004983,true,low,NA,NA,NA,"NA",NA,NA,NA,false
hcRRW6ud,3ac6mfv6anv2a7u5af0lkpxs80hhzh,3ql2ofsm9avjzu30c1gs3vpu7svncv,hcRRW6ud,2020-0188,2020-05-21,15:57:20,16:24:49,NA,incomplete,42,filling,0,left,Green_Plus_Grid_4.jpg,Blue_Circle_Grid_1.jpg,Green_Star_Stripes_2.jpg,left,1118.2599999993108,true,low,NA,NA,NA,"NA",NA,NA,NA,false
hcRRW6ud,3ac6mfv6anv2a7u5af0lkpxs80hhzh,3ql2ofsm9avjzu30c1gs3vpu7svncv,hcRRW6ud,2020-0188,2020-05-21,15:57:20,16:24:49,NA,incomplete,43,filling,1,left,Purple_Triangle_Stripes_2.jpg,Green_Plus_Stripes_1.jpg,Purple_Circle_Chess_4.jpg,left,1202.2000000033295,true,low,NA,NA,NA,"NA",NA,NA,NA,false
hcRRW6ud,3ac6mfv6anv2a7u5af0lkpxs80hhzh,3ql2ofsm9avjzu30c1gs3vpu7svncv,hcRRW6ud,2020-0188,2020-05-21,15:57:20,16:24:49,NA,incomplete,44,filling,1,left,Purple_Circle_Grid_2.jpg,Blue_Plus_Grid_4.jpg,Purple_Star_Stripes_3.jpg,left,1012.1099999996368,true,low,NA,NA,NA,"NA",NA,NA,NA,false
hcRRW6ud,3ac6mfv6anv2a7u5af0lkpxs80hhzh,3ql2ofsm9avjzu30c1gs3vpu7svncv,hcRRW6ud,2020-0188,2020-05-21,15:57:20,16:24:49,NA,incomplete,45,filling,1,right,Red_Plus_Dots_4.jpg,Red_Star_Chess_2.jpg,Green_Circle_Dots_1.jpg,right,1229.5800000028685,true,low,NA,NA,NA,"NA",NA,NA,NA,false
hcRRW6ud,3ac6mfv6anv2a7u5af0lkpxs80hhzh,3ql2ofsm9avjzu30c1gs3vpu7svncv,hcRRW6ud,2020-0188,2020-05-21,15:57:20,16:24:49,NA,incomplete,46,filling,1,left,Green_Star_Grid_1.jpg,Blue_Triangle_Grid_3.jpg,Green_Plus_Stripes_4.jpg,left,965.1750000012107,true,low,NA,NA,NA,"NA",NA,NA,NA,false
hcRRW6ud,3ac6mfv6anv2a7u5af0lkpxs80hhzh,3ql2ofsm9avjzu30c1gs3vpu7svncv,hcRRW6ud,2020-0188,2020-05-21,15:57:20,16:24:49,NA,incomplete,47,filling,1,right,Green_Star_Dots_4.jpg,Green_Plus_Stripes_1.jpg,Blue_Circle_Dots_3.jpg,left,1184.3349999981,false,low,NA,NA,NA,"NA",NA,NA,NA,false
hcRRW6ud,3ac6mfv6anv2a7u5af0lkpxs80hhzh,3ql2ofsm9avjzu30c1gs3vpu7svncv,hcRRW6ud,2020-0188,2020-05-21,15:57:20,16:24:49,NA,incomplete,48,filling,1,right,Blue_Triangle_Grid_2.jpg,Blue_Star_Dots_1.jpg,Green_Circle_Grid_3.jpg,right,1051.1649999971269,true,low,NA,NA,NA,"NA",NA,NA,NA,false
hcRRW6ud,3ac6mfv6anv2a7u5af0lkpxs80hhzh,3ql2ofsm9avjzu30c1gs3vpu7svncv,hcRRW6ud,2020-0188,2020-05-21,15:57:20,16:24:49,NA,incomplete,49,filling,1,left,Purple_Triangle_Grid_2.jpg,Red_Plus_Grid_1.jpg,Purple_Star_Stripes_4.jpg,left,1026.8400000022957,true,low,NA,NA,NA,"NA",NA,NA,NA,false
hcRRW6ud,3ac6mfv6anv2a7u5af0lkpxs80hhzh,3ql2ofsm9avjzu30c1gs3vpu7svncv,hcRRW6ud,2020-0188,2020-05-21,15:57:20,16:24:49,NA,incomplete,50,filling,1,right,Blue_Plus_Chess_4.jpg,Blue_Circle_Stripes_1.jpg,Purple_Triangle_Chess_3.jpg,right,1066.1000000000931,true,low,NA,NA,NA,"NA",NA,NA,NA,false
hcRRW6ud,3ac6mfv6anv2a7u5af0lkpxs80hhzh,3ql2ofsm9avjzu30c1gs3vpu7svncv,hcRRW6ud,2020-0188,2020-05-21,15:57:20,16:24:49,NA,incomplete,51,filling,1,left,Blue_Triangle_Stripes_3.jpg,Green_Circle_Stripes_1.jpg,Blue_Star_Chess_2.jpg,left,1337.469999998575,true,low,NA,NA,NA,"NA",NA,NA,NA,false
hcRRW6ud,3ac6mfv6anv2a7u5af0lkpxs80hhzh,3ql2ofsm9avjzu30c1gs3vpu7svncv,hcRRW6ud,2020-0188,2020-05-21,15:57:20,16:24:49,NA,incomplete,52,filling,1,right,Green_Star_Stripes_4.jpg,Green_Triangle_Dots_2.jpg,Blue_Plus_Stripes_3.jpg,right,1117.1700000013225,true,low,NA,NA,NA,"NA",NA,NA,NA,false
hcRRW6ud,3ac6mfv6anv2a7u5af0lkpxs80hhzh,3ql2ofsm9avjzu30c1gs3vpu7svncv,hcRRW6ud,2020-0188,2020-05-21,15:57:20,16:24:49,NA,incomplete,53,filling,1,left,Red_Triangle_Chess_4.jpg,Blue_Circle_Chess_2.jpg,Red_Plus_Grid_1.jpg,left,1010.7250000000931,true,low,NA,NA,NA,"NA",NA,NA,NA,false
hcRRW6ud,3ac6mfv6anv2a7u5af0lkpxs80hhzh,3ql2ofsm9avjzu30c1gs3vpu7svncv,hcRRW6ud,2020-0188,2020-05-21,15:57:20,16:24:49,NA,incomplete,54,filling,0,left,Purple_Star_Grid_3.jpg,Red_Circle_Grid_2.jpg,Purple_Plus_Dots_1.jpg,left,1147.8750000024447,true,low,NA,NA,NA,"NA",NA,NA,NA,false
hcRRW6ud,3ac6mfv6anv2a7u5af0lkpxs80hhzh,3ql2ofsm9avjzu30c1gs3vpu7svncv,hcRRW6ud,2020-0188,2020-05-21,15:57:20,16:24:49,NA,incomplete,55,filling,1,right,Green_Circle_Grid_4.jpg,Green_Triangle_Chess_2.jpg,Red_Star_Grid_1.jpg,right,1086.9400000009919,true,low,NA,NA,NA,"NA",NA,NA,NA,false
hcRRW6ud,3ac6mfv6anv2a7u5af0lkpxs80hhzh,3ql2ofsm9avjzu30c1gs3vpu7svncv,hcRRW6ud,2020-0188,2020-05-21,15:57:20,16:24:49,NA,incomplete,56,filling,1,left,Green_Triangle_Stripes_3.jpg,Blue_Circle_Stripes_2.jpg,Green_Plus_Chess_1.jpg,left,1108.7249999982305,true,low,NA,NA,NA,"NA",NA,NA,NA,false
hcRRW6ud,3ac6mfv6anv2a7u5af0lkpxs80hhzh,3ql2ofsm9avjzu30c1gs3vpu7svncv,hcRRW6ud,2020-0188,2020-05-21,15:57:20,16:24:49,NA,incomplete,57,filling,1,left,Green_Plus_Chess_3.jpg,Red_Triangle_Chess_4.jpg,Green_Circle_Stripes_1.jpg,left,1099.0999999993946,true,low,NA,NA,NA,"NA",NA,NA,NA,false
hcRRW6ud,3ac6mfv6anv2a7u5af0lkpxs80hhzh,3ql2ofsm9avjzu30c1gs3vpu7svncv,hcRRW6ud,2020-0188,2020-05-21,15:57:20,16:24:49,NA,incomplete,58,filling,1,right,Green_Triangle_Chess_3.jpg,Green_Circle_Stripes_4.jpg,Red_Plus_Chess_1.jpg,right,1119.5900000021793,true,low,NA,NA,NA,"NA",NA,NA,NA,false
hcRRW6ud,3ac6mfv6anv2a7u5af0lkpxs80hhzh,3ql2ofsm9avjzu30c1gs3vpu7svncv,hcRRW6ud,2020-0188,2020-05-21,15:57:20,16:24:49,NA,incomplete,59,filling,0,right,Blue_Plus_Grid_4.jpg,Blue_Triangle_Stripes_3.jpg,Green_Circle_Grid_1.jpg,right,1163.2749999989755,true,low,NA,NA,NA,"NA",NA,NA,NA,false
hcRRW6ud,3ac6mfv6anv2a7u5af0lkpxs80hhzh,3ql2ofsm9avjzu30c1gs3vpu7svncv,hcRRW6ud,2020-0188,2020-05-21,15:57:20,16:24:49,NA,incomplete,60,color,0,left,Purple_Triangle_Chess_1.jpg,Purple_Star_Stripes_4.jpg,Red_Plus_Chess_3.jpg,right,1142.399999997113,false,low,NA,NA,NA,"NA",NA,NA,NA,false
hcRRW6ud,3ac6mfv6anv2a7u5af0lkpxs80hhzh,3ql2ofsm9avjzu30c1gs3vpu7svncv,hcRRW6ud,2020-0188,2020-05-21,15:57:20,16:24:49,NA,incomplete,61,color,1,right,Green_Circle_Grid_1.jpg,Purple_Plus_Grid_4.jpg,Green_Star_Chess_3.jpg,left,1043.1600000010803,false,low,NA,NA,NA,"NA",NA,NA,NA,false
hcRRW6ud,3ac6mfv6anv2a7u5af0lkpxs80hhzh,3ql2ofsm9avjzu30c1gs3vpu7svncv,hcRRW6ud,2020-0188,2020-05-21,15:57:20,16:24:49,NA,incomplete,62,color,1,right,Green_Plus_Grid_3.jpg,Red_Triangle_Grid_2.jpg,Green_Star_Dots_1.jpg,left,1145.629999998957,false,low,NA,NA,NA,"NA",NA,NA,NA,false
hcRRW6ud,3ac6mfv6anv2a7u5af0lkpxs80hhzh,3ql2ofsm9avjzu30c1gs3vpu7svncv,hcRRW6ud,2020-0188,2020-05-21,15:57:20,16:24:49,NA,incomplete,63,color,0,right,Red_Circle_Grid_1.jpg,Blue_Star_Grid_3.jpg,Red_Plus_Chess_2.jpg,right,788.4850000010338,true,low,NA,NA,NA,"NA",NA,NA,NA,false
hcRRW6ud,3ac6mfv6anv2a7u5af0lkpxs80hhzh,3ql2ofsm9avjzu30c1gs3vpu7svncv,hcRRW6ud,2020-0188,2020-05-21,15:57:20,16:24:49,NA,incomplete,64,color,1,left,Purple_Star_Stripes_4.jpg,Purple_Plus_Chess_1.jpg,Blue_Circle_Stripes_2.jpg,left,1063.2750000006054,true,low,NA,NA,NA,"NA",NA,NA,NA,false
hcRRW6ud,3ac6mfv6anv2a7u5af0lkpxs80hhzh,3ql2ofsm9avjzu30c1gs3vpu7svncv,hcRRW6ud,2020-0188,2020-05-21,15:57:20,16:24:49,NA,incomplete,65,color,0,left,Red_Triangle_Stripes_4.jpg,Red_Circle_Dots_2.jpg,Blue_Plus_Stripes_1.jpg,left,798.0749999987893,true,low,NA,NA,NA,"NA",NA,NA,NA,false
hcRRW6ud,3ac6mfv6anv2a7u5af0lkpxs80hhzh,3ql2ofsm9avjzu30c1gs3vpu7svncv,hcRRW6ud,2020-0188,2020-05-21,15:57:20,16:24:49,NA,incomplete,66,color,1,right,Green_Plus_Chess_4.jpg,Red_Star_Chess_2.jpg,Green_Circle_Dots_3.jpg,left,1081.585000003688,false,low,NA,NA,NA,"NA",NA,NA,NA,false
hcRRW6ud,3ac6mfv6anv2a7u5af0lkpxs80hhzh,3ql2ofsm9avjzu30c1gs3vpu7svncv,hcRRW6ud,2020-0188,2020-05-21,15:57:20,16:24:49,NA,incomplete,67,color,1,right,Purple_Star_Grid_1.jpg,Blue_Triangle_Grid_4.jpg,Purple_Plus_Chess_3.jpg,right,805.8999999992084,true,low,NA,NA,NA,"NA",NA,NA,NA,false
hcRRW6ud,3ac6mfv6anv2a7u5af0lkpxs80hhzh,3ql2ofsm9avjzu30c1gs3vpu7svncv,hcRRW6ud,2020-0188,2020-05-21,15:57:20,16:24:49,NA,incomplete,68,color,1,right,Green_Circle_Dots_4.jpg,Red_Triangle_Dots_1.jpg,Green_Star_Stripes_2.jpg,right,863.5600000014529,true,low,NA,NA,NA,"NA",NA,NA,NA,false
hcRRW6ud,3ac6mfv6anv2a7u5af0lkpxs80hhzh,3ql2ofsm9avjzu30c1gs3vpu7svncv,hcRRW6ud,2020-0188,2020-05-21,15:57:20,16:24:49,NA,incomplete,69,color,1,right,Blue_Star_Dots_2.jpg,Purple_Plus_Dots_4.jpg,Blue_Triangle_Chess_3.jpg,right,814.5399999995716,true,low,NA,NA,NA,"NA",NA,NA,NA,false
hcRRW6ud,3ac6mfv6anv2a7u5af0lkpxs80hhzh,3ql2ofsm9avjzu30c1gs3vpu7svncv,hcRRW6ud,2020-0188,2020-05-21,15:57:20,16:24:49,NA,incomplete,70,color,1,right,Red_Circle_Grid_4.jpg,Blue_Star_Grid_3.jpg,Red_Triangle_Chess_1.jpg,right,800.4249999974854,true,low,NA,NA,NA,"NA",NA,NA,NA,false
hcRRW6ud,3ac6mfv6anv2a7u5af0lkpxs80hhzh,3ql2ofsm9avjzu30c1gs3vpu7svncv,hcRRW6ud,2020-0188,2020-05-21,15:57:20,16:24:49,NA,incomplete,71,color,0,left,Red_Circle_Grid_3.jpg,Red_Triangle_Dots_1.jpg,Purple_Star_Grid_2.jpg,left,812.2150000017136,true,low,NA,NA,NA,"NA",NA,NA,NA,false
hcRRW6ud,3ac6mfv6anv2a7u5af0lkpxs80hhzh,3ql2ofsm9avjzu30c1gs3vpu7svncv,hcRRW6ud,2020-0188,2020-05-21,15:57:20,16:24:49,NA,incomplete,72,color,1,left,Red_Star_Grid_4.jpg,Red_Triangle_Dots_2.jpg,Purple_Circle_Grid_1.jpg,left,683.2199999990407,true,low,NA,NA,NA,"NA",NA,NA,NA,false
hcRRW6ud,3ac6mfv6anv2a7u5af0lkpxs80hhzh,3ql2ofsm9avjzu30c1gs3vpu7svncv,hcRRW6ud,2020-0188,2020-05-21,15:57:20,16:24:49,NA,incomplete,73,color,1,left,Green_Plus_Stripes_4.jpg,Green_Triangle_Chess_2.jpg,Purple_Circle_Stripes_1.jpg,left,857.9050000007264,true,low,NA,NA,NA,"NA",NA,NA,NA,false
hcRRW6ud,3ac6mfv6anv2a7u5af0lkpxs80hhzh,3ql2ofsm9avjzu30c1gs3vpu7svncv,hcRRW6ud,2020-0188,2020-05-21,15:57:20,16:24:49,NA,incomplete,74,color,1,right,Purple_Triangle_Chess_1.jpg,Blue_Plus_Chess_2.jpg,Purple_Circle_Grid_4.jpg,right,714.0299999990966,true,low,NA,NA,NA,"NA",NA,NA,NA,false
hcRRW6ud,3ac6mfv6anv2a7u5af0lkpxs80hhzh,3ql2ofsm9avjzu30c1gs3vpu7svncv,hcRRW6ud,2020-0188,2020-05-21,15:57:20,16:24:49,NA,incomplete,75,color,1,right,Blue_Circle_Stripes_2.jpg,Green_Star_Stripes_4.jpg,Blue_Plus_Chess_3.jpg,right,766.429999999702,true,low,NA,NA,NA,"NA",NA,NA,NA,false
hcRRW6ud,3ac6mfv6anv2a7u5af0lkpxs80hhzh,3ql2ofsm9avjzu30c1gs3vpu7svncv,hcRRW6ud,2020-0188,2020-05-21,15:57:20,16:24:49,NA,incomplete,76,color,0,left,Red_Triangle_Chess_1.jpg,Red_Circle_Grid_4.jpg,Green_Star_Chess_3.jpg,left,708.1599999982864,true,low,NA,NA,NA,"NA",NA,NA,NA,false
hcRRW6ud,3ac6mfv6anv2a7u5af0lkpxs80hhzh,3ql2ofsm9avjzu30c1gs3vpu7svncv,hcRRW6ud,2020-0188,2020-05-21,15:57:20,16:24:49,NA,incomplete,77,color,1,left,Blue_Triangle_Stripes_2.jpg,Blue_Plus_Dots_3.jpg,Green_Circle_Stripes_4.jpg,left,831.409999998752,true,low,NA,NA,NA,"NA",NA,NA,NA,false
hcRRW6ud,3ac6mfv6anv2a7u5af0lkpxs80hhzh,3ql2ofsm9avjzu30c1gs3vpu7svncv,hcRRW6ud,2020-0188,2020-05-21,15:57:20,16:24:49,NA,incomplete,78,color,1,left,Green_Circle_Stripes_2.jpg,Green_Star_Grid_1.jpg,Purple_Triangle_Stripes_3.jpg,left,768.3899999973364,true,low,NA,NA,NA,"NA",NA,NA,NA,false
hcRRW6ud,3ac6mfv6anv2a7u5af0lkpxs80hhzh,3ql2ofsm9avjzu30c1gs3vpu7svncv,hcRRW6ud,2020-0188,2020-05-21,15:57:20,16:24:49,NA,incomplete,79,color,1,left,Purple_Triangle_Grid_4.jpg,Purple_Star_Chess_2.jpg,Blue_Plus_Grid_3.jpg,left,883.8450000004377,true,low,NA,NA,NA,"NA",NA,NA,NA,false
hcRRW6ud,3ac6mfv6anv2a7u5af0lkpxs80hhzh,3ql2ofsm9avjzu30c1gs3vpu7svncv,hcRRW6ud,2020-0188,2020-05-21,15:57:20,16:24:49,NA,incomplete,80,color,1,right,Red_Triangle_Stripes_1.jpg,Blue_Circle_Stripes_4.jpg,Red_Plus_Chess_3.jpg,right,706.0949999978766,true,low,NA,NA,NA,"NA",NA,NA,NA,false
hcRRW6ud,3ac6mfv6anv2a7u5af0lkpxs80hhzh,3ql2ofsm9avjzu30c1gs3vpu7svncv,hcRRW6ud,2020-0188,2020-05-21,15:57:20,16:24:49,NA,incomplete,81,color,0,left,Purple_Triangle_Chess_1.jpg,Purple_Plus_Stripes_3.jpg,Blue_Circle_Chess_2.jpg,left,745.184999999823,true,low,NA,NA,NA,"NA",NA,NA,NA,false
hcRRW6ud,3ac6mfv6anv2a7u5af0lkpxs80hhzh,3ql2ofsm9avjzu30c1gs3vpu7svncv,hcRRW6ud,2020-0188,2020-05-21,15:57:20,16:24:49,NA,incomplete,82,color,1,left,Purple_Plus_Stripes_4.jpg,Purple_Circle_Grid_3.jpg,Blue_Triangle_Stripes_1.jpg,left,771.6000000000931,true,low,NA,NA,NA,"NA",NA,NA,NA,false
hcRRW6ud,3ac6mfv6anv2a7u5af0lkpxs80hhzh,3ql2ofsm9avjzu30c1gs3vpu7svncv,hcRRW6ud,2020-0188,2020-05-21,15:57:20,16:24:49,NA,incomplete,83,color,1,left,Purple_Star_Stripes_1.jpg,Purple_Plus_Dots_3.jpg,Green_Triangle_Stripes_2.jpg,left,869.9449999984354,true,low,NA,NA,NA,"NA",NA,NA,NA,false
hcRRW6ud,3ac6mfv6anv2a7u5af0lkpxs80hhzh,3ql2ofsm9avjzu30c1gs3vpu7svncv,hcRRW6ud,2020-0188,2020-05-21,15:57:20,16:24:49,NA,incomplete,84,color,1,right,Purple_Triangle_Stripes_4.jpg,Blue_Star_Stripes_2.jpg,Purple_Circle_Grid_1.jpg,right,773.345000001369,true,low,NA,NA,NA,"NA",NA,NA,NA,false
hcRRW6ud,3ac6mfv6anv2a7u5af0lkpxs80hhzh,3ql2ofsm9avjzu30c1gs3vpu7svncv,hcRRW6ud,2020-0188,2020-05-21,15:57:20,16:24:49,NA,incomplete,85,color,0,left,Red_Star_Dots_4.jpg,Red_Plus_Stripes_1.jpg,Green_Triangle_Dots_2.jpg,left,727.2199999971781,true,low,NA,NA,NA,"NA",NA,NA,NA,false
hcRRW6ud,3ac6mfv6anv2a7u5af0lkpxs80hhzh,3ql2ofsm9avjzu30c1gs3vpu7svncv,hcRRW6ud,2020-0188,2020-05-21,15:57:20,16:24:49,NA,incomplete,86,color,1,right,Purple_Star_Chess_3.jpg,Red_Plus_Chess_4.jpg,Purple_Triangle_Stripes_2.jpg,right,764.8549999976531,true,low,NA,NA,NA,"NA",NA,NA,NA,false
hcRRW6ud,3ac6mfv6anv2a7u5af0lkpxs80hhzh,3ql2ofsm9avjzu30c1gs3vpu7svncv,hcRRW6ud,2020-0188,2020-05-21,15:57:20,16:24:49,NA,incomplete,87,color,1,right,Blue_Star_Grid_4.jpg,Red_Triangle_Grid_3.jpg,Blue_Plus_Chess_1.jpg,right,742.6950000009965,true,low,NA,NA,NA,"NA",NA,NA,NA,false
hcRRW6ud,3ac6mfv6anv2a7u5af0lkpxs80hhzh,3ql2ofsm9avjzu30c1gs3vpu7svncv,hcRRW6ud,2020-0188,2020-05-21,15:57:20,16:24:49,NA,incomplete,88,color,1,left,Red_Star_Stripes_2.jpg,Red_Circle_Chess_3.jpg,Blue_Plus_Stripes_1.jpg,left,747.8349999983329,true,low,NA,NA,NA,"NA",NA,NA,NA,false
hcRRW6ud,3ac6mfv6anv2a7u5af0lkpxs80hhzh,3ql2ofsm9avjzu30c1gs3vpu7svncv,hcRRW6ud,2020-0188,2020-05-21,15:57:20,16:24:49,NA,incomplete,89,color,0,left,Blue_Triangle_Chess_1.jpg,Blue_Plus_Grid_2.jpg,Purple_Circle_Chess_3.jpg,left,775.5749999997206,true,low,NA,NA,NA,"NA",NA,NA,NA,false
hcRRW6ud,3ac6mfv6anv2a7u5af0lkpxs80hhzh,3ql2ofsm9avjzu30c1gs3vpu7svncv,hcRRW6ud,2020-0188,2020-05-21,15:57:20,16:24:49,NA,incomplete,90,filling,1,right,Red_Circle_Chess_2.jpg,Red_Star_Grid_1.jpg,Green_Plus_Chess_4.jpg,left,810.5050000012852,false,low,NA,NA,NA,"NA",NA,NA,NA,false
hcRRW6ud,3ac6mfv6anv2a7u5af0lkpxs80hhzh,3ql2ofsm9avjzu30c1gs3vpu7svncv,hcRRW6ud,2020-0188,2020-05-21,15:57:20,16:24:49,NA,incomplete,91,filling,1,right,Blue_Plus_Stripes_3.jpg,Blue_Triangle_Dots_1.jpg,Purple_Star_Stripes_2.jpg,right,1037.0199999997858,true,low,NA,NA,NA,"NA",NA,NA,NA,false
hcRRW6ud,3ac6mfv6anv2a7u5af0lkpxs80hhzh,3ql2ofsm9avjzu30c1gs3vpu7svncv,hcRRW6ud,2020-0188,2020-05-21,15:57:20,16:24:49,NA,incomplete,92,filling,1,right,Purple_Triangle_Grid_3.jpg,Purple_Circle_Chess_2.jpg,Red_Plus_Grid_1.jpg,right,1187.0849999978673,true,low,NA,NA,NA,"NA",NA,NA,NA,false
hcRRW6ud,3ac6mfv6anv2a7u5af0lkpxs80hhzh,3ql2ofsm9avjzu30c1gs3vpu7svncv,hcRRW6ud,2020-0188,2020-05-21,15:57:20,16:24:49,NA,incomplete,93,filling,1,left,Red_Circle_Grid_1.jpg,Blue_Star_Grid_2.jpg,Red_Triangle_Stripes_4.jpg,left,1037.5549999990035,true,low,NA,NA,NA,"NA",NA,NA,NA,false
hcRRW6ud,3ac6mfv6anv2a7u5af0lkpxs80hhzh,3ql2ofsm9avjzu30c1gs3vpu7svncv,hcRRW6ud,2020-0188,2020-05-21,15:57:20,16:24:49,NA,incomplete,94,filling,1,left,Blue_Circle_Grid_3.jpg,Green_Star_Grid_2.jpg,Blue_Plus_Chess_1.jpg,left,1084.9650000017136,true,low,NA,NA,NA,"NA",NA,NA,NA,false
hcRRW6ud,3ac6mfv6anv2a7u5af0lkpxs80hhzh,3ql2ofsm9avjzu30c1gs3vpu7svncv,hcRRW6ud,2020-0188,2020-05-21,15:57:20,16:24:49,NA,incomplete,95,filling,1,right,Red_Plus_Chess_4.jpg,Red_Circle_Stripes_1.jpg,Blue_Triangle_Chess_2.jpg,right,1220.1249999997672,true,low,NA,NA,NA,"NA",NA,NA,NA,false
hcRRW6ud,3ac6mfv6anv2a7u5af0lkpxs80hhzh,3ql2ofsm9avjzu30c1gs3vpu7svncv,hcRRW6ud,2020-0188,2020-05-21,15:57:20,16:24:49,NA,incomplete,96,filling,1,right,Purple_Star_Grid_4.jpg,Purple_Triangle_Stripes_3.jpg,Green_Plus_Grid_2.jpg,right,1099.5400000028312,true,low,NA,NA,NA,"NA",NA,NA,NA,false
hcRRW6ud,3ac6mfv6anv2a7u5af0lkpxs80hhzh,3ql2ofsm9avjzu30c1gs3vpu7svncv,hcRRW6ud,2020-0188,2020-05-21,15:57:20,16:24:49,NA,incomplete,97,filling,1,right,Blue_Star_Dots_3.jpg,Blue_Circle_Stripes_1.jpg,Red_Plus_Dots_2.jpg,right,1104.2849999975879,true,low,NA,NA,NA,"NA",NA,NA,NA,false
hcRRW6ud,3ac6mfv6anv2a7u5af0lkpxs80hhzh,3ql2ofsm9avjzu30c1gs3vpu7svncv,hcRRW6ud,2020-0188,2020-05-21,15:57:20,16:24:49,NA,incomplete,98,filling,1,right,Purple_Plus_Chess_1.jpg,Purple_Triangle_Stripes_3.jpg,Red_Circle_Chess_4.jpg,right,1052.514999999432,true,low,NA,NA,NA,"NA",NA,NA,NA,false
hcRRW6ud,3ac6mfv6anv2a7u5af0lkpxs80hhzh,3ql2ofsm9avjzu30c1gs3vpu7svncv,hcRRW6ud,2020-0188,2020-05-21,15:57:20,16:24:49,NA,incomplete,99,filling,1,left,Purple_Circle_Stripes_2.jpg,Blue_Triangle_Stripes_1.jpg,Purple_Star_Chess_4.jpg,left,957.5399999993388,true,low,NA,NA,NA,"NA",NA,NA,NA,false
hcRRW6ud,3ac6mfv6anv2a7u5af0lkpxs80hhzh,3ql2ofsm9avjzu30c1gs3vpu7svncv,hcRRW6ud,2020-0188,2020-05-21,15:57:20,16:24:49,NA,incomplete,100,filling,1,right,Blue_Triangle_Stripes_4.jpg,Blue_Circle_Chess_2.jpg,Purple_Star_Stripes_3.jpg,right,999.8300000005402,true,low,NA,NA,NA,"NA",NA,NA,NA,false
hcRRW6ud,3ac6mfv6anv2a7u5af0lkpxs80hhzh,3ql2ofsm9avjzu30c1gs3vpu7svncv,hcRRW6ud,2020-0188,2020-05-21,15:57:20,16:24:49,NA,incomplete,101,filling,1,right,Blue_Circle_Grid_2.jpg,Blue_Plus_Dots_3.jpg,Purple_Star_Grid_1.jpg,right,1233.570000000298,true,low,NA,NA,NA,"NA",NA,NA,NA,false
hcRRW6ud,3ac6mfv6anv2a7u5af0lkpxs80hhzh,3ql2ofsm9avjzu30c1gs3vpu7svncv,hcRRW6ud,2020-0188,2020-05-21,15:57:20,16:24:49,NA,incomplete,102,filling,1,left,Blue_Triangle_Dots_4.jpg,Green_Circle_Dots_3.jpg,Blue_Plus_Stripes_2.jpg,left,1177.4650000007823,true,low,NA,NA,NA,"NA",NA,NA,NA,false
hcRRW6ud,3ac6mfv6anv2a7u5af0lkpxs80hhzh,3ql2ofsm9avjzu30c1gs3vpu7svncv,hcRRW6ud,2020-0188,2020-05-21,15:57:20,16:24:49,NA,incomplete,103,filling,0,left,Red_Circle_Chess_4.jpg,Purple_Plus_Chess_2.jpg,Red_Triangle_Grid_1.jpg,left,1022.2050000012387,true,low,NA,NA,NA,"NA",NA,NA,NA,false
hcRRW6ud,3ac6mfv6anv2a7u5af0lkpxs80hhzh,3ql2ofsm9avjzu30c1gs3vpu7svncv,hcRRW6ud,2020-0188,2020-05-21,15:57:20,16:24:49,NA,incomplete,104,filling,1,left,Blue_Plus_Grid_1.jpg,Green_Circle_Grid_2.jpg,Blue_Star_Stripes_4.jpg,left,924.1150000016205,true,low,NA,NA,NA,"NA",NA,NA,NA,false
hcRRW6ud,3ac6mfv6anv2a7u5af0lkpxs80hhzh,3ql2ofsm9avjzu30c1gs3vpu7svncv,hcRRW6ud,2020-0188,2020-05-21,15:57:20,16:24:49,NA,incomplete,105,filling,1,right,Blue_Plus_Stripes_4.jpg,Blue_Triangle_Grid_3.jpg,Green_Circle_Stripes_2.jpg,right,1305.1599999999162,true,low,NA,NA,NA,"NA",NA,NA,NA,false
hcRRW6ud,3ac6mfv6anv2a7u5af0lkpxs80hhzh,3ql2ofsm9avjzu30c1gs3vpu7svncv,hcRRW6ud,2020-0188,2020-05-21,15:57:20,16:24:49,NA,incomplete,106,filling,1,right,Purple_Circle_Dots_2.jpg,Purple_Plus_Stripes_4.jpg,Green_Star_Dots_3.jpg,right,1133.9399999999441,true,low,NA,NA,NA,"NA",NA,NA,NA,false
hcRRW6ud,3ac6mfv6anv2a7u5af0lkpxs80hhzh,3ql2ofsm9avjzu30c1gs3vpu7svncv,hcRRW6ud,2020-0188,2020-05-21,15:57:20,16:24:49,NA,incomplete,107,filling,1,right,Red_Plus_Chess_2.jpg,Red_Star_Stripes_1.jpg,Green_Circle_Chess_4.jpg,right,1131.969999998575,true,low,NA,NA,NA,"NA",NA,NA,NA,false
hcRRW6ud,3ac6mfv6anv2a7u5af0lkpxs80hhzh,3ql2ofsm9avjzu30c1gs3vpu7svncv,hcRRW6ud,2020-0188,2020-05-21,15:57:20,16:24:49,NA,incomplete,108,filling,0,left,Blue_Plus_Chess_2.jpg,Purple_Star_Chess_4.jpg,Blue_Circle_Stripes_1.jpg,left,990.5550000004005,true,low,NA,NA,NA,"NA",NA,NA,NA,false
hcRRW6ud,3ac6mfv6anv2a7u5af0lkpxs80hhzh,3ql2ofsm9avjzu30c1gs3vpu7svncv,hcRRW6ud,2020-0188,2020-05-21,15:57:20,16:24:49,NA,incomplete,109,filling,1,right,Blue_Star_Chess_4.jpg,Blue_Triangle_Stripes_1.jpg,Red_Plus_Chess_2.jpg,right,896.2949999985285,true,low,NA,NA,NA,"NA",NA,NA,NA,false
hcRRW6ud,3ac6mfv6anv2a7u5af0lkpxs80hhzh,3ql2ofsm9avjzu30c1gs3vpu7svncv,hcRRW6ud,2020-0188,2020-05-21,15:57:20,16:24:49,NA,incomplete,110,filling,1,left,Blue_Plus_Chess_3.jpg,Red_Triangle_Chess_2.jpg,Blue_Circle_Stripes_4.jpg,left,1086.2650000017602,true,low,NA,NA,NA,"NA",NA,NA,NA,false
hcRRW6ud,3ac6mfv6anv2a7u5af0lkpxs80hhzh,3ql2ofsm9avjzu30c1gs3vpu7svncv,hcRRW6ud,2020-0188,2020-05-21,15:57:20,16:24:49,NA,incomplete,111,filling,1,right,Purple_Triangle_Grid_1.jpg,Purple_Plus_Stripes_3.jpg,Blue_Star_Grid_2.jpg,left,1060.740000000922,false,low,NA,NA,NA,"NA",NA,NA,NA,false
hcRRW6ud,3ac6mfv6anv2a7u5af0lkpxs80hhzh,3ql2ofsm9avjzu30c1gs3vpu7svncv,hcRRW6ud,2020-0188,2020-05-21,15:57:20,16:24:49,NA,incomplete,112,filling,1,right,Red_Circle_Stripes_1.jpg,Red_Plus_Chess_4.jpg,Purple_Triangle_Stripes_3.jpg,right,1098.905000002589,true,low,NA,NA,NA,"NA",NA,NA,NA,false
hcRRW6ud,3ac6mfv6anv2a7u5af0lkpxs80hhzh,3ql2ofsm9avjzu30c1gs3vpu7svncv,hcRRW6ud,2020-0188,2020-05-21,15:57:20,16:24:49,NA,incomplete,113,filling,1,right,Blue_Circle_Dots_1.jpg,Blue_Star_Stripes_4.jpg,Red_Plus_Dots_3.jpg,right,1199.520000002114,true,low,NA,NA,NA,"NA",NA,NA,NA,false
hcRRW6ud,3ac6mfv6anv2a7u5af0lkpxs80hhzh,3ql2ofsm9avjzu30c1gs3vpu7svncv,hcRRW6ud,2020-0188,2020-05-21,15:57:20,16:24:49,NA,incomplete,114,filling,1,right,Green_Star_Stripes_4.jpg,Green_Triangle_Grid_2.jpg,Blue_Plus_Stripes_1.jpg,right,1105.6499999978114,true,low,NA,NA,NA,"NA",NA,NA,NA,false
hcRRW6ud,3ac6mfv6anv2a7u5af0lkpxs80hhzh,3ql2ofsm9avjzu30c1gs3vpu7svncv,hcRRW6ud,2020-0188,2020-05-21,15:57:20,16:24:49,NA,incomplete,115,filling,1,left,Blue_Triangle_Stripes_4.jpg,Green_Circle_Stripes_3.jpg,Blue_Star_Grid_2.jpg,left,991.9550000012387,true,low,NA,NA,NA,"NA",NA,NA,NA,false
hcRRW6ud,3ac6mfv6anv2a7u5af0lkpxs80hhzh,3ql2ofsm9avjzu30c1gs3vpu7svncv,hcRRW6ud,2020-0188,2020-05-21,15:57:20,16:24:49,NA,incomplete,116,filling,1,right,Green_Plus_Stripes_4.jpg,Green_Star_Chess_2.jpg,Red_Circle_Stripes_1.jpg,right,1144.2949999980628,true,low,NA,NA,NA,"NA",NA,NA,NA,false
hcRRW6ud,3ac6mfv6anv2a7u5af0lkpxs80hhzh,3ql2ofsm9avjzu30c1gs3vpu7svncv,hcRRW6ud,2020-0188,2020-05-21,15:57:20,16:24:49,NA,incomplete,117,filling,1,left,Purple_Triangle_Grid_1.jpg,Blue_Circle_Grid_2.jpg,Purple_Star_Stripes_4.jpg,left,1052.2050000000745,true,low,NA,NA,NA,"NA",NA,NA,NA,false
hcRRW6ud,3ac6mfv6anv2a7u5af0lkpxs80hhzh,3ql2ofsm9avjzu30c1gs3vpu7svncv,hcRRW6ud,2020-0188,2020-05-21,15:57:20,16:24:49,NA,incomplete,118,filling,1,right,Blue_Circle_Chess_2.jpg,Blue_Triangle_Dots_1.jpg,Purple_Star_Chess_3.jpg,right,930.8500000007916,true,low,NA,NA,NA,"NA",NA,NA,NA,false
hcRRW6ud,3ac6mfv6anv2a7u5af0lkpxs80hhzh,3ql2ofsm9avjzu30c1gs3vpu7svncv,hcRRW6ud,2020-0188,2020-05-21,15:57:20,16:24:49,NA,incomplete,119,filling,0,left,Purple_Plus_Stripes_2.jpg,Green_Star_Stripes_4.jpg,Purple_Triangle_Dots_3.jpg,left,838.9900000002235,true,low,NA,NA,NA,"NA",NA,NA,NA,false
hcRRW6ud,3ac6mfv6anv2a7u5af0lkpxs80hhzh,3ql2ofsm9avjzu30c1gs3vpu7svncv,hcRRW6ud,2020-0188,2020-05-21,15:57:20,16:24:49,NA,incomplete,120,shape,0,left,Red_Triangle_Stripes_3.jpg,Blue_Triangle_Dots_4.jpg,Purple_Star_Chess_3.jpg,NA,NA,NA,low,NA,NA,NA,"NA",NA,NA,NA,false
hcRRW6ud,3ac6mfv6anv2a7u5af0lkpxs80hhzh,3ql2ofsm9avjzu30c1gs3vpu7svncv,hcRRW6ud,2020-0188,2020-05-21,15:57:20,16:24:49,NA,incomplete,121,shape,1,left,Blue_Plus_Stripes_3.jpg,Green_Plus_Dots_2.jpg,Purple_Triangle_Chess_3.jpg,right,1160.7299999995157,false,low,NA,NA,NA,"NA",NA,NA,NA,false
hcRRW6ud,3ac6mfv6anv2a7u5af0lkpxs80hhzh,3ql2ofsm9avjzu30c1gs3vpu7svncv,hcRRW6ud,2020-0188,2020-05-21,15:57:20,16:24:49,NA,incomplete,122,shape,0,right,Red_Star_Dots_4.jpg,Blue_Plus_Grid_4.jpg,Purple_Star_Stripes_3.jpg,left,1149.7149999996182,false,low,NA,NA,NA,"NA",NA,NA,NA,false
hcRRW6ud,3ac6mfv6anv2a7u5af0lkpxs80hhzh,3ql2ofsm9avjzu30c1gs3vpu7svncv,hcRRW6ud,2020-0188,2020-05-21,15:57:20,16:24:49,NA,incomplete,123,shape,1,left,Purple_Plus_Grid_1.jpg,Red_Plus_Chess_2.jpg,Green_Circle_Stripes_1.jpg,left,1198.8350000027567,true,low,NA,NA,NA,"NA",NA,NA,NA,false
hcRRW6ud,3ac6mfv6anv2a7u5af0lkpxs80hhzh,3ql2ofsm9avjzu30c1gs3vpu7svncv,hcRRW6ud,2020-0188,2020-05-21,15:57:20,16:24:49,NA,incomplete,124,shape,1,right,Blue_Triangle_Stripes_4.jpg,Green_Star_Grid_4.jpg,Red_Triangle_Dots_1.jpg,right,1360.7049999991432,true,low,NA,NA,NA,"NA",NA,NA,NA,false
hcRRW6ud,3ac6mfv6anv2a7u5af0lkpxs80hhzh,3ql2ofsm9avjzu30c1gs3vpu7svncv,hcRRW6ud,2020-0188,2020-05-21,15:57:20,16:24:49,NA,incomplete,125,shape,1,left,Purple_Triangle_Dots_3.jpg,Blue_Triangle_Grid_2.jpg,Green_Circle_Stripes_3.jpg,right,1123.350000001723,false,low,NA,NA,NA,"NA",NA,NA,NA,false
hcRRW6ud,3ac6mfv6anv2a7u5af0lkpxs80hhzh,3ql2ofsm9avjzu30c1gs3vpu7svncv,hcRRW6ud,2020-0188,2020-05-21,15:57:20,16:24:49,NA,incomplete,126,shape,0,left,Green_Star_Stripes_3.jpg,Purple_Star_Chess_4.jpg,Red_Triangle_Grid_3.jpg,right,1232.6300000022165,false,low,NA,NA,NA,"NA",NA,NA,NA,false
hcRRW6ud,3ac6mfv6anv2a7u5af0lkpxs80hhzh,3ql2ofsm9avjzu30c1gs3vpu7svncv,hcRRW6ud,2020-0188,2020-05-21,15:57:20,16:24:49,NA,incomplete,127,shape,1,right,Green_Triangle_Dots_4.jpg,Blue_Star_Grid_4.jpg,Red_Triangle_Stripes_2.jpg,left,943.9099999980535,false,low,NA,NA,NA,"NA",NA,NA,NA,false
hcRRW6ud,3ac6mfv6anv2a7u5af0lkpxs80hhzh,3ql2ofsm9avjzu30c1gs3vpu7svncv,hcRRW6ud,2020-0188,2020-05-21,15:57:20,16:24:49,NA,incomplete,128,shape,1,left,Red_Star_Dots_3.jpg,Green_Star_Chess_4.jpg,Purple_Triangle_Grid_3.jpg,right,1147.9199999994598,false,low,NA,NA,NA,"NA",NA,NA,NA,false
hcRRW6ud,3ac6mfv6anv2a7u5af0lkpxs80hhzh,3ql2ofsm9avjzu30c1gs3vpu7svncv,hcRRW6ud,2020-0188,2020-05-21,15:57:20,16:24:49,NA,incomplete,129,shape,1,right,Green_Plus_Stripes_3.jpg,Blue_Triangle_Chess_3.jpg,Purple_Plus_Grid_2.jpg,right,1686.545000000624,true,low,NA,NA,NA,"NA",NA,NA,NA,false
hcRRW6ud,3ac6mfv6anv2a7u5af0lkpxs80hhzh,3ql2ofsm9avjzu30c1gs3vpu7svncv,hcRRW6ud,2020-0188,2020-05-21,15:57:20,16:24:49,NA,incomplete,130,shape,1,left,Red_Circle_Grid_3.jpg,Blue_Circle_Chess_1.jpg,Purple_Star_Dots_3.jpg,right,1148.3899999985006,false,low,NA,NA,NA,"NA",NA,NA,NA,false
hcRRW6ud,3ac6mfv6anv2a7u5af0lkpxs80hhzh,3ql2ofsm9avjzu30c1gs3vpu7svncv,hcRRW6ud,2020-0188,2020-05-21,15:57:20,16:24:49,NA,incomplete,131,shape,1,right,Red_Circle_Chess_1.jpg,Blue_Plus_Grid_1.jpg,Purple_Circle_Dots_3.jpg,right,1615.5099999995437,true,low,NA,NA,NA,"NA",NA,NA,NA,false
hcRRW6ud,3ac6mfv6anv2a7u5af0lkpxs80hhzh,3ql2ofsm9avjzu30c1gs3vpu7svncv,hcRRW6ud,2020-0188,2020-05-21,15:57:20,16:24:49,NA,incomplete,132,shape,0,left,Green_Triangle_Dots_3.jpg,Blue_Triangle_Stripes_1.jpg,Red_Circle_Chess_3.jpg,left,1152.3650000018533,true,low,NA,NA,NA,"NA",NA,NA,NA,false
hcRRW6ud,3ac6mfv6anv2a7u5af0lkpxs80hhzh,3ql2ofsm9avjzu30c1gs3vpu7svncv,hcRRW6ud,2020-0188,2020-05-21,15:57:20,16:24:49,NA,incomplete,133,shape,1,right,Purple_Circle_Dots_3.jpg,Green_Star_Stripes_3.jpg,Red_Circle_Chess_1.jpg,right,1162.629999998957,true,low,NA,NA,NA,"NA",NA,NA,NA,false
hcRRW6ud,3ac6mfv6anv2a7u5af0lkpxs80hhzh,3ql2ofsm9avjzu30c1gs3vpu7svncv,hcRRW6ud,2020-0188,2020-05-21,15:57:20,16:24:49,NA,incomplete,134,shape,1,left,Purple_Plus_Dots_2.jpg,Green_Plus_Chess_1.jpg,Blue_Circle_Grid_2.jpg,left,1752.6350000007078,true,low,NA,NA,NA,"NA",NA,NA,NA,false
hcRRW6ud,3ac6mfv6anv2a7u5af0lkpxs80hhzh,3ql2ofsm9avjzu30c1gs3vpu7svncv,hcRRW6ud,2020-0188,2020-05-21,15:57:20,16:24:49,NA,incomplete,135,shape,1,left,Blue_Triangle_Dots_1.jpg,Green_Triangle_Stripes_4.jpg,Red_Circle_Chess_1.jpg,right,1273.509999999078,false,low,NA,NA,NA,"NA",NA,NA,NA,false
hcRRW6ud,3ac6mfv6anv2a7u5af0lkpxs80hhzh,3ql2ofsm9avjzu30c1gs3vpu7svncv,hcRRW6ud,2020-0188,2020-05-21,15:57:20,16:24:49,NA,incomplete,136,shape,1,left,Red_Plus_Stripes_4.jpg,Purple_Plus_Grid_1.jpg,Blue_Triangle_Chess_4.jpg,right,1143.5099999981467,false,low,NA,NA,NA,"NA",NA,NA,NA,false
hcRRW6ud,3ac6mfv6anv2a7u5af0lkpxs80hhzh,3ql2ofsm9avjzu30c1gs3vpu7svncv,hcRRW6ud,2020-0188,2020-05-21,15:57:20,16:24:49,NA,incomplete,137,shape,1,left,Green_Star_Chess_2.jpg,Purple_Star_Dots_4.jpg,Red_Triangle_Grid_2.jpg,left,1595.260000001872,true,low,NA,NA,NA,"NA",NA,NA,NA,false
hcRRW6ud,3ac6mfv6anv2a7u5af0lkpxs80hhzh,3ql2ofsm9avjzu30c1gs3vpu7svncv,hcRRW6ud,2020-0188,2020-05-21,15:57:20,16:24:49,NA,incomplete,138,shape,1,right,Red_Star_Grid_4.jpg,Blue_Circle_Chess_4.jpg,Green_Star_Dots_3.jpg,left,1405.6000000019558,false,low,NA,NA,NA,"NA",NA,NA,NA,false
hcRRW6ud,3ac6mfv6anv2a7u5af0lkpxs80hhzh,3ql2ofsm9avjzu30c1gs3vpu7svncv,hcRRW6ud,2020-0188,2020-05-21,15:57:20,16:24:49,NA,incomplete,139,shape,1,left,Purple_Triangle_Stripes_4.jpg,Green_Triangle_Chess_2.jpg,Red_Star_Dots_4.jpg,left,1412.8300000010058,true,low,NA,NA,NA,"NA",NA,NA,NA,false
hcRRW6ud,3ac6mfv6anv2a7u5af0lkpxs80hhzh,3ql2ofsm9avjzu30c1gs3vpu7svncv,hcRRW6ud,2020-0188,2020-05-21,15:57:20,16:24:49,NA,incomplete,140,number,1,left,Blue_Circle_Dots_4.jpg,Purple_Plus_Stripes_4.jpg,Red_Circle_Grid_3.jpg,right,1102.6800000001676,false,low,NA,NA,NA,"NA",NA,NA,NA,false
hcRRW6ud,3ac6mfv6anv2a7u5af0lkpxs80hhzh,3ql2ofsm9avjzu30c1gs3vpu7svncv,hcRRW6ud,2020-0188,2020-05-21,15:57:20,16:24:49,NA,incomplete,141,number,0,left,Red_Triangle_Grid_4.jpg,Purple_Plus_Dots_4.jpg,Green_Triangle_Chess_3.jpg,right,1042.4000000020023,false,low,NA,NA,NA,"NA",NA,NA,NA,false
hcRRW6ud,3ac6mfv6anv2a7u5af0lkpxs80hhzh,3ql2ofsm9avjzu30c1gs3vpu7svncv,hcRRW6ud,2020-0188,2020-05-21,15:57:20,16:24:49,NA,incomplete,142,number,1,right,Red_Circle_Grid_2.jpg,Blue_Circle_Dots_1.jpg,Purple_Plus_Chess_2.jpg,left,1363.93500000122,false,low,NA,NA,NA,"NA",NA,NA,NA,false
hcRRW6ud,3ac6mfv6anv2a7u5af0lkpxs80hhzh,3ql2ofsm9avjzu30c1gs3vpu7svncv,hcRRW6ud,2020-0188,2020-05-21,15:57:20,16:24:49,NA,incomplete,143,number,0,left,Red_Triangle_Dots_1.jpg,Blue_Star_Chess_1.jpg,Purple_Triangle_Stripes_2.jpg,right,877.239999998128,false,low,NA,NA,NA,"NA",NA,NA,NA,false
hcRRW6ud,3ac6mfv6anv2a7u5af0lkpxs80hhzh,3ql2ofsm9avjzu30c1gs3vpu7svncv,hcRRW6ud,2020-0188,2020-05-21,15:57:20,16:24:49,NA,incomplete,144,number,1,left,Blue_Star_Dots_2.jpg,Red_Triangle_Grid_2.jpg,Purple_Star_Chess_3.jpg,left,1244.1800000015646,true,low,NA,NA,NA,"NA",NA,NA,NA,false
hcRRW6ud,3ac6mfv6anv2a7u5af0lkpxs80hhzh,3ql2ofsm9avjzu30c1gs3vpu7svncv,hcRRW6ud,2020-0188,2020-05-21,15:57:20,16:24:49,NA,incomplete,145,number,1,left,Green_Triangle_Dots_4.jpg,Purple_Plus_Chess_4.jpg,Red_Triangle_Stripes_1.jpg,left,979.7900000014342,true,low,NA,NA,NA,"NA",NA,NA,NA,false
hcRRW6ud,3ac6mfv6anv2a7u5af0lkpxs80hhzh,3ql2ofsm9avjzu30c1gs3vpu7svncv,hcRRW6ud,2020-0188,2020-05-21,15:57:20,16:24:49,NA,incomplete,146,number,1,right,Purple_Circle_Dots_2.jpg,Blue_Circle_Chess_1.jpg,Red_Plus_Grid_2.jpg,right,975.2599999993108,true,low,NA,NA,NA,"NA",NA,NA,NA,false
hcRRW6ud,3ac6mfv6anv2a7u5af0lkpxs80hhzh,3ql2ofsm9avjzu30c1gs3vpu7svncv,hcRRW6ud,2020-0188,2020-05-21,15:57:20,16:24:49,NA,incomplete,147,number,1,right,Green_Triangle_Chess_3.jpg,Blue_Triangle_Dots_2.jpg,Purple_Star_Grid_3.jpg,right,1240.505000001518,true,low,NA,NA,NA,"NA",NA,NA,NA,false
hcRRW6ud,3ac6mfv6anv2a7u5af0lkpxs80hhzh,3ql2ofsm9avjzu30c1gs3vpu7svncv,hcRRW6ud,2020-0188,2020-05-21,15:57:20,16:24:49,NA,incomplete,148,number,0,right,Purple_Star_Dots_2.jpg,Green_Star_Stripes_4.jpg,Blue_Plus_Grid_2.jpg,right,999.1950000005309,true,low,NA,NA,NA,"NA",NA,NA,NA,false
hcRRW6ud,3ac6mfv6anv2a7u5af0lkpxs80hhzh,3ql2ofsm9avjzu30c1gs3vpu7svncv,hcRRW6ud,2020-0188,2020-05-21,15:57:20,16:24:49,NA,incomplete,149,number,1,left,Blue_Circle_Grid_3.jpg,Green_Plus_Stripes_3.jpg,Red_Circle_Chess_4.jpg,left,1073.1950000009965,true,low,NA,NA,NA,"NA",NA,NA,NA,false
hcRRW6ud,3ac6mfv6anv2a7u5af0lkpxs80hhzh,3ql2ofsm9avjzu30c1gs3vpu7svncv,hcRRW6ud,2020-0188,2020-05-21,15:57:20,16:24:49,NA,incomplete,150,number,1,right,Purple_Triangle_Grid_4.jpg,Blue_Triangle_Dots_3.jpg,Red_Plus_Stripes_4.jpg,right,1233.5399999974761,true,low,NA,NA,NA,"NA",NA,NA,NA,false
hcRRW6ud,3ac6mfv6anv2a7u5af0lkpxs80hhzh,3ql2ofsm9avjzu30c1gs3vpu7svncv,hcRRW6ud,2020-0188,2020-05-21,15:57:20,16:24:49,NA,incomplete,151,number,1,left,Green_Triangle_Dots_1.jpg,Red_Plus_Chess_1.jpg,Purple_Triangle_Grid_4.jpg,left,855.7749999999069,true,low,NA,NA,NA,"NA",NA,NA,NA,false
hcRRW6ud,3ac6mfv6anv2a7u5af0lkpxs80hhzh,3ql2ofsm9avjzu30c1gs3vpu7svncv,hcRRW6ud,2020-0188,2020-05-21,15:57:20,16:24:49,NA,incomplete,152,number,1,right,Green_Plus_Dots_3.jpg,Purple_Plus_Chess_2.jpg,Red_Triangle_Stripes_3.jpg,right,894.4249999986496,true,low,NA,NA,NA,"NA",NA,NA,NA,false
hcRRW6ud,3ac6mfv6anv2a7u5af0lkpxs80hhzh,3ql2ofsm9avjzu30c1gs3vpu7svncv,hcRRW6ud,2020-0188,2020-05-21,15:57:20,16:24:49,NA,incomplete,153,number,1,right,Green_Plus_Stripes_1.jpg,Purple_Plus_Grid_3.jpg,Red_Star_Dots_1.jpg,right,996.2150000028778,true,low,NA,NA,NA,"NA",NA,NA,NA,false
hcRRW6ud,3ac6mfv6anv2a7u5af0lkpxs80hhzh,3ql2ofsm9avjzu30c1gs3vpu7svncv,hcRRW6ud,2020-0188,2020-05-21,15:57:20,16:24:49,NA,incomplete,154,number,1,left,Purple_Star_Chess_2.jpg,Blue_Circle_Dots_2.jpg,Green_Star_Grid_3.jpg,left,1222.369999999646,true,low,NA,NA,NA,"NA",NA,NA,NA,false
hcRRW6ud,3ac6mfv6anv2a7u5af0lkpxs80hhzh,3ql2ofsm9avjzu30c1gs3vpu7svncv,hcRRW6ud,2020-0188,2020-05-21,15:57:20,16:24:49,NA,incomplete,155,number,1,left,Green_Star_Chess_1.jpg,Purple_Triangle_Grid_1.jpg,Red_Star_Stripes_3.jpg,left,1295.7800000004936,true,low,NA,NA,NA,"NA",NA,NA,NA,false
hcRRW6ud,3ac6mfv6anv2a7u5af0lkpxs80hhzh,3ql2ofsm9avjzu30c1gs3vpu7svncv,hcRRW6ud,2020-0188,2020-05-21,15:57:20,16:24:49,NA,incomplete,156,number,1,left,Purple_Plus_Chess_4.jpg,Blue_Star_Stripes_4.jpg,Green_Plus_Grid_2.jpg,left,900.9899999983609,true,low,NA,NA,NA,"NA",NA,NA,NA,false
hcRRW6ud,3ac6mfv6anv2a7u5af0lkpxs80hhzh,3ql2ofsm9avjzu30c1gs3vpu7svncv,hcRRW6ud,2020-0188,2020-05-21,15:57:20,16:24:49,NA,incomplete,157,number,1,left,Red_Plus_Chess_1.jpg,Blue_Star_Dots_1.jpg,Green_Plus_Grid_4.jpg,left,818.0800000010058,true,low,NA,NA,NA,"NA",NA,NA,NA,false
hcRRW6ud,3ac6mfv6anv2a7u5af0lkpxs80hhzh,3ql2ofsm9avjzu30c1gs3vpu7svncv,hcRRW6ud,2020-0188,2020-05-21,15:57:20,16:24:49,NA,incomplete,158,number,1,right,Green_Circle_Chess_1.jpg,Blue_Circle_Dots_3.jpg,Red_Triangle_Grid_1.jpg,right,859.7399999999907,true,low,NA,NA,NA,"NA",NA,NA,NA,false
hcRRW6ud,3ac6mfv6anv2a7u5af0lkpxs80hhzh,3ql2ofsm9avjzu30c1gs3vpu7svncv,hcRRW6ud,2020-0188,2020-05-21,15:57:20,16:24:49,NA,incomplete,159,number,0,right,Blue_Triangle_Dots_1.jpg,Purple_Triangle_Stripes_2.jpg,Green_Star_Chess_1.jpg,right,971.3200000005309,true,low,NA,NA,NA,"NA",NA,NA,NA,false
hcRRW6ud,3ac6mfv6anv2a7u5af0lkpxs80hhzh,3ql2ofsm9avjzu30c1gs3vpu7svncv,hcRRW6ud,2020-0188,2020-05-21,15:57:20,16:24:49,NA,incomplete,160,shape,1,right,Red_Star_Dots_1.jpg,Blue_Circle_Grid_1.jpg,Green_Star_Stripes_4.jpg,left,806.7200000004377,false,low,NA,NA,NA,"NA",NA,NA,NA,false
hcRRW6ud,3ac6mfv6anv2a7u5af0lkpxs80hhzh,3ql2ofsm9avjzu30c1gs3vpu7svncv,hcRRW6ud,2020-0188,2020-05-21,15:57:20,16:24:49,NA,incomplete,161,shape,1,right,Green_Plus_Dots_3.jpg,Red_Circle_Grid_3.jpg,Purple_Plus_Stripes_2.jpg,left,1271.0399999995716,false,low,NA,NA,NA,"NA",NA,NA,NA,false
hcRRW6ud,3ac6mfv6anv2a7u5af0lkpxs80hhzh,3ql2ofsm9avjzu30c1gs3vpu7svncv,hcRRW6ud,2020-0188,2020-05-21,15:57:20,16:24:49,NA,incomplete,162,shape,1,right,Green_Triangle_Stripes_4.jpg,Purple_Circle_Dots_4.jpg,Blue_Triangle_Chess_3.jpg,right,980.7199999995064,true,low,NA,NA,NA,"NA",NA,NA,NA,false
hcRRW6ud,3ac6mfv6anv2a7u5af0lkpxs80hhzh,3ql2ofsm9avjzu30c1gs3vpu7svncv,hcRRW6ud,2020-0188,2020-05-21,15:57:20,16:24:49,NA,incomplete,163,shape,1,right,Green_Triangle_Chess_1.jpg,Blue_Star_Stripes_1.jpg,Red_Triangle_Grid_4.jpg,left,958.679999999702,false,low,NA,NA,NA,"NA",NA,NA,NA,false
hcRRW6ud,3ac6mfv6anv2a7u5af0lkpxs80hhzh,3ql2ofsm9avjzu30c1gs3vpu7svncv,hcRRW6ud,2020-0188,2020-05-21,15:57:20,16:24:49,NA,incomplete,164,shape,1,left,Green_Circle_Dots_2.jpg,Red_Circle_Grid_1.jpg,Blue_Triangle_Stripes_2.jpg,left,979.9450000028592,true,low,NA,NA,NA,"NA",NA,NA,NA,false
hcRRW6ud,3ac6mfv6anv2a7u5af0lkpxs80hhzh,3ql2ofsm9avjzu30c1gs3vpu7svncv,hcRRW6ud,2020-0188,2020-05-21,15:57:20,16:24:49,NA,incomplete,165,shape,1,right,Green_Star_Chess_2.jpg,Blue_Circle_Stripes_2.jpg,Purple_Star_Grid_3.jpg,right,1492.4700000011362,true,low,NA,NA,NA,"NA",NA,NA,NA,false
hcRRW6ud,3ac6mfv6anv2a7u5af0lkpxs80hhzh,3ql2ofsm9avjzu30c1gs3vpu7svncv,hcRRW6ud,2020-0188,2020-05-21,15:57:20,16:24:49,NA,incomplete,166,shape,1,right,Purple_Circle_Grid_1.jpg,Blue_Plus_Chess_1.jpg,Red_Circle_Dots_4.jpg,left,1130.280000001192,false,low,NA,NA,NA,"NA",NA,NA,NA,false
hcRRW6ud,3ac6mfv6anv2a7u5af0lkpxs80hhzh,3ql2ofsm9avjzu30c1gs3vpu7svncv,hcRRW6ud,2020-0188,2020-05-21,15:57:20,16:24:49,NA,incomplete,167,shape,1,left,Blue_Circle_Stripes_2.jpg,Purple_Circle_Dots_3.jpg,Red_Plus_Grid_2.jpg,left,1005.6599999989849,true,low,NA,NA,NA,"NA",NA,NA,NA,false
hcRRW6ud,3ac6mfv6anv2a7u5af0lkpxs80hhzh,3ql2ofsm9avjzu30c1gs3vpu7svncv,hcRRW6ud,2020-0188,2020-05-21,15:57:20,16:24:49,NA,incomplete,168,shape,1,right,Red_Circle_Dots_3.jpg,Blue_Star_Stripes_3.jpg,Green_Circle_Chess_1.jpg,right,1032.1050000020768,true,low,NA,NA,NA,"NA",NA,NA,NA,false
hcRRW6ud,3ac6mfv6anv2a7u5af0lkpxs80hhzh,3ql2ofsm9avjzu30c1gs3vpu7svncv,hcRRW6ud,2020-0188,2020-05-21,15:57:20,16:24:49,NA,incomplete,169,shape,1,right,Purple_Triangle_Dots_4.jpg,Green_Circle_Grid_4.jpg,Red_Triangle_Stripes_3.jpg,right,1551.6250000002328,true,low,NA,NA,NA,"NA",NA,NA,NA,false
hcRRW6ud,3ac6mfv6anv2a7u5af0lkpxs80hhzh,3ql2ofsm9avjzu30c1gs3vpu7svncv,hcRRW6ud,2020-0188,2020-05-21,15:57:20,16:24:49,NA,incomplete,170,shape,1,right,Red_Triangle_Dots_4.jpg,Blue_Star_Chess_4.jpg,Purple_Triangle_Grid_3.jpg,right,1290.5149999971036,true,low,NA,NA,NA,"NA",NA,NA,NA,false
hcRRW6ud,3ac6mfv6anv2a7u5af0lkpxs80hhzh,3ql2ofsm9avjzu30c1gs3vpu7svncv,hcRRW6ud,2020-0188,2020-05-21,15:57:20,16:24:49,NA,incomplete,171,shape,1,left,Purple_Star_Grid_1.jpg,Green_Star_Dots_4.jpg,Blue_Plus_Stripes_1.jpg,left,1176.4349999974947,true,low,NA,NA,NA,"NA",NA,NA,NA,false
hcRRW6ud,3ac6mfv6anv2a7u5af0lkpxs80hhzh,3ql2ofsm9avjzu30c1gs3vpu7svncv,hcRRW6ud,2020-0188,2020-05-21,15:57:20,16:24:49,NA,incomplete,172,shape,1,left,Green_Plus_Chess_4.jpg,Blue_Plus_Stripes_2.jpg,Purple_Circle_Grid_4.jpg,left,1123.5699999995995,true,low,NA,NA,NA,"NA",NA,NA,NA,false
hcRRW6ud,3ac6mfv6anv2a7u5af0lkpxs80hhzh,3ql2ofsm9avjzu30c1gs3vpu7svncv,hcRRW6ud,2020-0188,2020-05-21,15:57:20,16:24:49,NA,incomplete,173,shape,0,left,Blue_Circle_Dots_3.jpg,Red_Circle_Stripes_4.jpg,Green_Plus_Grid_3.jpg,left,1078.870000001276,true,low,NA,NA,NA,"NA",NA,NA,NA,false
hcRRW6ud,3ac6mfv6anv2a7u5af0lkpxs80hhzh,3ql2ofsm9avjzu30c1gs3vpu7svncv,hcRRW6ud,2020-0188,2020-05-21,15:57:20,16:24:49,NA,incomplete,174,shape,1,right,Red_Circle_Stripes_2.jpg,Blue_Plus_Dots_2.jpg,Green_Circle_Chess_4.jpg,left,1460.6500000008382,false,low,NA,NA,NA,"NA",NA,NA,NA,false
hcRRW6ud,3ac6mfv6anv2a7u5af0lkpxs80hhzh,3ql2ofsm9avjzu30c1gs3vpu7svncv,hcRRW6ud,2020-0188,2020-05-21,15:57:20,16:24:49,NA,incomplete,175,shape,0,left,Green_Circle_Chess_4.jpg,Blue_Circle_Dots_3.jpg,Red_Star_Grid_4.jpg,left,1371.015000000596,true,low,NA,NA,NA,"NA",NA,NA,NA,false
hcRRW6ud,3ac6mfv6anv2a7u5af0lkpxs80hhzh,3ql2ofsm9avjzu30c1gs3vpu7svncv,hcRRW6ud,2020-0188,2020-05-21,15:57:20,16:24:49,NA,incomplete,176,shape,1,right,Purple_Circle_Chess_2.jpg,Green_Star_Dots_2.jpg,Red_Circle_Grid_4.jpg,left,1287.0049999982584,false,low,NA,NA,NA,"NA",NA,NA,NA,false
hcRRW6ud,3ac6mfv6anv2a7u5af0lkpxs80hhzh,3ql2ofsm9avjzu30c1gs3vpu7svncv,hcRRW6ud,2020-0188,2020-05-21,15:57:20,16:24:49,NA,incomplete,177,shape,1,left,Red_Circle_Grid_4.jpg,Blue_Circle_Dots_3.jpg,Purple_Plus_Stripes_4.jpg,right,1418.8299999986775,false,low,NA,NA,NA,"NA",NA,NA,NA,false
hcRRW6ud,3ac6mfv6anv2a7u5af0lkpxs80hhzh,3ql2ofsm9avjzu30c1gs3vpu7svncv,hcRRW6ud,2020-0188,2020-05-21,15:57:20,16:24:49,NA,incomplete,178,shape,1,right,Purple_Triangle_Chess_4.jpg,Blue_Circle_Dots_4.jpg,Green_Triangle_Stripes_1.jpg,left,905.8450000011362,false,low,NA,NA,NA,"NA",NA,NA,NA,false
hcRRW6ud,3ac6mfv6anv2a7u5af0lkpxs80hhzh,3ql2ofsm9avjzu30c1gs3vpu7svncv,hcRRW6ud,2020-0188,2020-05-21,15:57:20,16:24:49,NA,incomplete,179,shape,1,left,Purple_Triangle_Dots_3.jpg,Green_Triangle_Stripes_1.jpg,Blue_Circle_Grid_3.jpg,right,975.1299999987241,false,low,NA,NA,NA,"NA",NA,NA,NA,false
hcRRW6ud,3ac6mfv6anv2a7u5af0lkpxs80hhzh,3ql2ofsm9avjzu30c1gs3vpu7svncv,hcRRW6ud,2020-0188,2020-05-21,15:57:20,16:24:49,NA,incomplete,180,number,1,right,Red_Star_Dots_1.jpg,Blue_Star_Grid_3.jpg,Green_Triangle_Chess_1.jpg,left,980.0350000006147,false,low,NA,NA,NA,"NA",NA,NA,NA,false
hcRRW6ud,3ac6mfv6anv2a7u5af0lkpxs80hhzh,3ql2ofsm9avjzu30c1gs3vpu7svncv,hcRRW6ud,2020-0188,2020-05-21,15:57:20,16:24:49,NA,incomplete,181,number,1,right,Purple_Circle_Stripes_4.jpg,Blue_Circle_Chess_1.jpg,Green_Plus_Grid_4.jpg,right,1173.3249999997206,true,low,NA,NA,NA,"NA",NA,NA,NA,false
hcRRW6ud,3ac6mfv6anv2a7u5af0lkpxs80hhzh,3ql2ofsm9avjzu30c1gs3vpu7svncv,hcRRW6ud,2020-0188,2020-05-21,15:57:20,16:24:49,NA,incomplete,182,number,1,right,Blue_Plus_Dots_3.jpg,Red_Plus_Stripes_4.jpg,Purple_Star_Chess_3.jpg,right,1175.0300000023562,true,low,NA,NA,NA,"NA",NA,NA,NA,false
hcRRW6ud,3ac6mfv6anv2a7u5af0lkpxs80hhzh,3ql2ofsm9avjzu30c1gs3vpu7svncv,hcRRW6ud,2020-0188,2020-05-21,15:57:20,16:24:49,NA,incomplete,183,number,0,left,Red_Circle_Dots_1.jpg,Blue_Plus_Grid_1.jpg,Purple_Circle_Chess_2.jpg,right,1584.9249999991152,false,low,NA,NA,NA,"NA",NA,NA,NA,false
hcRRW6ud,3ac6mfv6anv2a7u5af0lkpxs80hhzh,3ql2ofsm9avjzu30c1gs3vpu7svncv,hcRRW6ud,2020-0188,2020-05-21,15:57:20,16:24:49,NA,incomplete,184,number,1,right,Red_Plus_Stripes_1.jpg,Purple_Plus_Grid_2.jpg,Green_Circle_Dots_1.jpg,left,1140.154999997234,false,low,NA,NA,NA,"NA",NA,NA,NA,false
hcRRW6ud,3ac6mfv6anv2a7u5af0lkpxs80hhzh,3ql2ofsm9avjzu30c1gs3vpu7svncv,hcRRW6ud,2020-0188,2020-05-21,15:57:20,16:24:49,NA,incomplete,185,number,0,right,Blue_Circle_Dots_3.jpg,Green_Circle_Grid_1.jpg,Purple_Star_Chess_3.jpg,right,958.510000000475,true,low,NA,NA,NA,"NA",NA,NA,NA,false
hcRRW6ud,3ac6mfv6anv2a7u5af0lkpxs80hhzh,3ql2ofsm9avjzu30c1gs3vpu7svncv,hcRRW6ud,2020-0188,2020-05-21,15:57:20,16:24:49,NA,incomplete,186,number,1,right,Blue_Star_Chess_2.jpg,Red_Star_Grid_3.jpg,Green_Triangle_Stripes_2.jpg,right,1313.7800000002608,true,low,NA,NA,NA,"NA",NA,NA,NA,false
hcRRW6ud,3ac6mfv6anv2a7u5af0lkpxs80hhzh,3ql2ofsm9avjzu30c1gs3vpu7svncv,hcRRW6ud,2020-0188,2020-05-21,15:57:20,16:24:49,NA,incomplete,187,number,0,right,Purple_Star_Dots_1.jpg,Red_Star_Chess_2.jpg,Blue_Triangle_Grid_1.jpg,left,943.52000000095,false,low,NA,NA,NA,"NA",NA,NA,NA,false
hcRRW6ud,3ac6mfv6anv2a7u5af0lkpxs80hhzh,3ql2ofsm9avjzu30c1gs3vpu7svncv,hcRRW6ud,2020-0188,2020-05-21,15:57:20,16:24:49,NA,incomplete,188,number,1,left,Purple_Triangle_Stripes_2.jpg,Green_Circle_Chess_2.jpg,Red_Triangle_Grid_4.jpg,left,1211.7399999988265,true,low,NA,NA,NA,"NA",NA,NA,NA,false
hcRRW6ud,3ac6mfv6anv2a7u5af0lkpxs80hhzh,3ql2ofsm9avjzu30c1gs3vpu7svncv,hcRRW6ud,2020-0188,2020-05-21,15:57:20,16:24:49,NA,incomplete,189,number,1,left,Purple_Circle_Stripes_4.jpg,Blue_Star_Dots_4.jpg,Green_Circle_Grid_1.jpg,right,1154.7399999978952,false,low,NA,NA,NA,"NA",NA,NA,NA,false
hcRRW6ud,3ac6mfv6anv2a7u5af0lkpxs80hhzh,3ql2ofsm9avjzu30c1gs3vpu7svncv,hcRRW6ud,2020-0188,2020-05-21,15:57:20,16:24:49,NA,incomplete,190,number,1,left,Green_Star_Chess_1.jpg,Red_Triangle_Grid_1.jpg,Purple_Star_Dots_3.jpg,right,973.3650000018533,false,low,NA,NA,NA,"NA",NA,NA,NA,false
hcRRW6ud,3ac6mfv6anv2a7u5af0lkpxs80hhzh,3ql2ofsm9avjzu30c1gs3vpu7svncv,hcRRW6ud,2020-0188,2020-05-21,15:57:20,16:24:49,NA,incomplete,191,number,1,left,Green_Triangle_Stripes_1.jpg,Blue_Star_Chess_1.jpg,Purple_Triangle_Dots_4.jpg,left,896.5700000007637,true,low,NA,NA,NA,"NA",NA,NA,NA,false
hcRRW6ud,3ac6mfv6anv2a7u5af0lkpxs80hhzh,3ql2ofsm9avjzu30c1gs3vpu7svncv,hcRRW6ud,2020-0188,2020-05-21,15:57:20,16:24:49,NA,incomplete,192,number,1,right,Green_Star_Stripes_2.jpg,Purple_Star_Chess_4.jpg,Red_Triangle_Dots_2.jpg,right,1064.4800000009127,true,low,NA,NA,NA,"NA",NA,NA,NA,false
hcRRW6ud,3ac6mfv6anv2a7u5af0lkpxs80hhzh,3ql2ofsm9avjzu30c1gs3vpu7svncv,hcRRW6ud,2020-0188,2020-05-21,15:57:20,16:24:49,NA,incomplete,193,number,0,right,Green_Triangle_Dots_1.jpg,Purple_Triangle_Chess_3.jpg,Blue_Circle_Stripes_1.jpg,left,924.874999997206,false,low,NA,NA,NA,"NA",NA,NA,NA,false
hcRRW6ud,3ac6mfv6anv2a7u5af0lkpxs80hhzh,3ql2ofsm9avjzu30c1gs3vpu7svncv,hcRRW6ud,2020-0188,2020-05-21,15:57:20,16:24:49,NA,incomplete,194,number,1,right,Purple_Plus_Grid_2.jpg,Blue_Plus_Stripes_1.jpg,Red_Circle_Dots_2.jpg,right,954.0350000024773,true,low,NA,NA,NA,"NA",NA,NA,NA,false
hcRRW6ud,3ac6mfv6anv2a7u5af0lkpxs80hhzh,3ql2ofsm9avjzu30c1gs3vpu7svncv,hcRRW6ud,2020-0188,2020-05-21,15:57:20,16:24:49,NA,incomplete,195,number,1,left,Red_Plus_Grid_4.jpg,Purple_Triangle_Dots_4.jpg,Green_Plus_Stripes_2.jpg,left,980.9449999993667,true,low,NA,NA,NA,"NA",NA,NA,NA,false
hcRRW6ud,3ac6mfv6anv2a7u5af0lkpxs80hhzh,3ql2ofsm9avjzu30c1gs3vpu7svncv,hcRRW6ud,2020-0188,2020-05-21,15:57:20,16:24:49,NA,incomplete,196,number,1,left,Purple_Circle_Chess_2.jpg,Green_Triangle_Stripes_2.jpg,Red_Circle_Grid_4.jpg,left,1143.720000000205,true,low,NA,NA,NA,"NA",NA,NA,NA,false
hcRRW6ud,3ac6mfv6anv2a7u5af0lkpxs80hhzh,3ql2ofsm9avjzu30c1gs3vpu7svncv,hcRRW6ud,2020-0188,2020-05-21,15:57:20,16:24:49,NA,incomplete,197,number,1,right,Red_Triangle_Chess_3.jpg,Green_Triangle_Stripes_4.jpg,Purple_Circle_Dots_3.jpg,right,1172.1549999965355,true,low,NA,NA,NA,"NA",NA,NA,NA,false
hcRRW6ud,3ac6mfv6anv2a7u5af0lkpxs80hhzh,3ql2ofsm9avjzu30c1gs3vpu7svncv,hcRRW6ud,2020-0188,2020-05-21,15:57:20,16:24:49,NA,incomplete,198,number,1,right,Purple_Circle_Dots_4.jpg,Red_Circle_Grid_2.jpg,Green_Plus_Stripes_4.jpg,right,1501.3399999989197,true,low,NA,NA,NA,"NA",NA,NA,NA,false
hcRRW6ud,3ac6mfv6anv2a7u5af0lkpxs80hhzh,3ql2ofsm9avjzu30c1gs3vpu7svncv,hcRRW6ud,2020-0188,2020-05-21,15:57:20,16:24:49,NA,incomplete,199,number,1,left,Green_Star_Stripes_2.jpg,Red_Circle_Grid_2.jpg,Blue_Star_Chess_4.jpg,left,938.2800000021234,true,low,NA,NA,NA,"NA",NA,NA,NA,false
hcRRW6ud,3ac6mfv6anv2a7u5af0lkpxs80hhzh,3ql2ofsm9avjzu30c1gs3vpu7svncv,hcRRW6ud,2020-0188,2020-05-21,15:57:20,16:24:49,NA,incomplete,200,shape,0,left,Blue_Triangle_Dots_4.jpg,Purple_Triangle_Chess_1.jpg,Red_Plus_Stripes_4.jpg,right,829.3400000000838,false,low,NA,NA,NA,"NA",NA,NA,NA,false
hcRRW6ud,3ac6mfv6anv2a7u5af0lkpxs80hhzh,3ql2ofsm9avjzu30c1gs3vpu7svncv,hcRRW6ud,2020-0188,2020-05-21,15:57:20,16:24:49,NA,incomplete,201,shape,1,right,Red_Star_Chess_2.jpg,Green_Triangle_Dots_2.jpg,Purple_Star_Stripes_3.jpg,left,864.2250000012573,false,low,NA,NA,NA,"NA",NA,NA,NA,false
hcRRW6ud,3ac6mfv6anv2a7u5af0lkpxs80hhzh,3ql2ofsm9avjzu30c1gs3vpu7svncv,hcRRW6ud,2020-0188,2020-05-21,15:57:20,16:24:49,NA,incomplete,202,shape,1,left,Purple_Star_Dots_4.jpg,Red_Star_Chess_1.jpg,Blue_Circle_Stripes_4.jpg,right,901.7000000020489,false,low,NA,NA,NA,"NA",NA,NA,NA,false
hcRRW6ud,3ac6mfv6anv2a7u5af0lkpxs80hhzh,3ql2ofsm9avjzu30c1gs3vpu7svncv,hcRRW6ud,2020-0188,2020-05-21,15:57:20,16:24:49,NA,incomplete,203,shape,1,left,Purple_Plus_Grid_1.jpg,Blue_Plus_Dots_2.jpg,Green_Star_Stripes_1.jpg,left,923.3649999988265,true,low,NA,NA,NA,"NA",NA,NA,NA,false
hcRRW6ud,3ac6mfv6anv2a7u5af0lkpxs80hhzh,3ql2ofsm9avjzu30c1gs3vpu7svncv,hcRRW6ud,2020-0188,2020-05-21,15:57:20,16:24:49,NA,incomplete,204,shape,1,right,Purple_Triangle_Stripes_4.jpg,Blue_Circle_Grid_4.jpg,Red_Triangle_Dots_3.jpg,right,1032.5200000007171,true,low,NA,NA,NA,"NA",NA,NA,NA,false
hcRRW6ud,3ac6mfv6anv2a7u5af0lkpxs80hhzh,3ql2ofsm9avjzu30c1gs3vpu7svncv,hcRRW6ud,2020-0188,2020-05-21,15:57:20,16:24:49,NA,incomplete,205,shape,1,left,Blue_Circle_Chess_2.jpg,Purple_Circle_Dots_1.jpg,Green_Plus_Stripes_2.jpg,left,992.1099999991711,true,low,NA,NA,NA,"NA",NA,NA,NA,false
hcRRW6ud,3ac6mfv6anv2a7u5af0lkpxs80hhzh,3ql2ofsm9avjzu30c1gs3vpu7svncv,hcRRW6ud,2020-0188,2020-05-21,15:57:20,16:24:49,NA,incomplete,206,shape,1,right,Blue_Star_Dots_2.jpg,Green_Triangle_Chess_2.jpg,Purple_Star_Stripes_3.jpg,right,899.6699999987613,true,low,NA,NA,NA,"NA",NA,NA,NA,false
hcRRW6ud,3ac6mfv6anv2a7u5af0lkpxs80hhzh,3ql2ofsm9avjzu30c1gs3vpu7svncv,hcRRW6ud,2020-0188,2020-05-21,15:57:20,16:24:49,NA,incomplete,207,shape,1,right,Blue_Circle_Stripes_1.jpg,Purple_Plus_Grid_1.jpg,Red_Circle_Chess_3.jpg,right,831.8849999997765,true,low,NA,NA,NA,"NA",NA,NA,NA,false
hcRRW6ud,3ac6mfv6anv2a7u5af0lkpxs80hhzh,3ql2ofsm9avjzu30c1gs3vpu7svncv,hcRRW6ud,2020-0188,2020-05-21,15:57:20,16:24:49,NA,incomplete,208,shape,0,right,Blue_Plus_Stripes_1.jpg,Purple_Star_Grid_1.jpg,Red_Plus_Dots_4.jpg,right,872.8300000003073,true,low,NA,NA,NA,"NA",NA,NA,NA,false
hcRRW6ud,3ac6mfv6anv2a7u5af0lkpxs80hhzh,3ql2ofsm9avjzu30c1gs3vpu7svncv,hcRRW6ud,2020-0188,2020-05-21,15:57:20,16:24:49,NA,incomplete,209,shape,1,right,Purple_Circle_Chess_4.jpg,Green_Star_Grid_4.jpg,Red_Circle_Dots_1.jpg,right,1023.7200000011362,true,low,NA,NA,NA,"NA",NA,NA,NA,false
hcRRW6ud,3ac6mfv6anv2a7u5af0lkpxs80hhzh,3ql2ofsm9avjzu30c1gs3vpu7svncv,hcRRW6ud,2020-0188,2020-05-21,15:57:20,16:24:49,NA,incomplete,210,shape,0,right,Purple_Star_Grid_1.jpg,Red_Plus_Dots_1.jpg,Green_Star_Chess_2.jpg,right,1191.6799999999348,true,low,NA,NA,NA,"NA",NA,NA,NA,false
hcRRW6ud,3ac6mfv6anv2a7u5af0lkpxs80hhzh,3ql2ofsm9avjzu30c1gs3vpu7svncv,hcRRW6ud,2020-0188,2020-05-21,15:57:20,16:24:49,NA,incomplete,211,shape,1,right,Blue_Plus_Grid_4.jpg,Purple_Triangle_Dots_4.jpg,Green_Plus_Chess_2.jpg,left,962.0649999997113,false,low,NA,NA,NA,"NA",NA,NA,NA,false
hcRRW6ud,3ac6mfv6anv2a7u5af0lkpxs80hhzh,3ql2ofsm9avjzu30c1gs3vpu7svncv,hcRRW6ud,2020-0188,2020-05-21,15:57:20,16:24:49,NA,incomplete,212,shape,1,left,Green_Circle_Chess_2.jpg,Purple_Circle_Grid_3.jpg,Red_Triangle_Dots_2.jpg,left,916.1850000019185,true,low,NA,NA,NA,"NA",NA,NA,NA,false
hcRRW6ud,3ac6mfv6anv2a7u5af0lkpxs80hhzh,3ql2ofsm9avjzu30c1gs3vpu7svncv,hcRRW6ud,2020-0188,2020-05-21,15:57:20,16:24:49,NA,incomplete,213,shape,1,left,Red_Triangle_Stripes_1.jpg,Purple_Triangle_Grid_2.jpg,Green_Star_Chess_1.jpg,left,1003.6600000022445,true,low,NA,NA,NA,"NA",NA,NA,NA,false
hcRRW6ud,3ac6mfv6anv2a7u5af0lkpxs80hhzh,3ql2ofsm9avjzu30c1gs3vpu7svncv,hcRRW6ud,2020-0188,2020-05-21,15:57:20,16:24:49,NA,incomplete,214,shape,1,left,Red_Star_Dots_4.jpg,Green_Star_Stripes_3.jpg,Purple_Circle_Grid_4.jpg,left,1210.8350000015926,true,low,NA,NA,NA,"NA",NA,NA,NA,false
hcRRW6ud,3ac6mfv6anv2a7u5af0lkpxs80hhzh,3ql2ofsm9avjzu30c1gs3vpu7svncv,hcRRW6ud,2020-0188,2020-05-21,15:57:20,16:24:49,NA,incomplete,215,shape,0,right,Purple_Circle_Dots_4.jpg,Red_Star_Stripes_4.jpg,Blue_Circle_Chess_2.jpg,right,1164.8050000004005,true,low,NA,NA,NA,"NA",NA,NA,NA,false
hcRRW6ud,3ac6mfv6anv2a7u5af0lkpxs80hhzh,3ql2ofsm9avjzu30c1gs3vpu7svncv,hcRRW6ud,2020-0188,2020-05-21,15:57:20,16:24:49,NA,incomplete,216,shape,1,right,Blue_Plus_Chess_3.jpg,Green_Circle_Grid_3.jpg,Red_Plus_Stripes_2.jpg,right,974.474999998929,true,low,NA,NA,NA,"NA",NA,NA,NA,false
hcRRW6ud,3ac6mfv6anv2a7u5af0lkpxs80hhzh,3ql2ofsm9avjzu30c1gs3vpu7svncv,hcRRW6ud,2020-0188,2020-05-21,15:57:20,16:24:49,NA,incomplete,217,shape,0,right,Blue_Star_Dots_4.jpg,Green_Triangle_Grid_4.jpg,Purple_Star_Stripes_1.jpg,left,976.6899999994785,false,low,NA,NA,NA,"NA",NA,NA,NA,false
hcRRW6ud,3ac6mfv6anv2a7u5af0lkpxs80hhzh,3ql2ofsm9avjzu30c1gs3vpu7svncv,hcRRW6ud,2020-0188,2020-05-21,15:57:20,16:24:49,NA,incomplete,218,shape,1,right,Green_Plus_Grid_2.jpg,Blue_Triangle_Dots_2.jpg,Red_Plus_Chess_3.jpg,left,1029.7949999987613,false,low,NA,NA,NA,"NA",NA,NA,NA,false
hcRRW6ud,3ac6mfv6anv2a7u5af0lkpxs80hhzh,3ql2ofsm9avjzu30c1gs3vpu7svncv,hcRRW6ud,2020-0188,2020-05-21,15:57:20,16:24:49,NA,incomplete,219,shape,1,right,Red_Star_Dots_4.jpg,Green_Plus_Stripes_4.jpg,Blue_Star_Chess_2.jpg,right,1245.6650000021327,true,low,NA,NA,NA,"NA",NA,NA,NA,false
hcRRW6ud,3ac6mfv6anv2a7u5af0lkpxs80hhzh,3ql2ofsm9avjzu30c1gs3vpu7svncv,hcRRW6ud,2020-0188,2020-05-21,15:57:20,16:24:49,NA,incomplete,220,number,0,left,Red_Triangle_Chess_1.jpg,Blue_Plus_Grid_1.jpg,Green_Triangle_Stripes_3.jpg,right,948.0900000017136,false,low,NA,NA,NA,"NA",NA,NA,NA,false
hcRRW6ud,3ac6mfv6anv2a7u5af0lkpxs80hhzh,3ql2ofsm9avjzu30c1gs3vpu7svncv,hcRRW6ud,2020-0188,2020-05-21,15:57:20,16:24:49,NA,incomplete,221,number,1,right,Blue_Star_Chess_3.jpg,Red_Star_Grid_4.jpg,Green_Plus_Stripes_3.jpg,right,1462.625,true,low,NA,NA,NA,"NA",NA,NA,NA,false
hcRRW6ud,3ac6mfv6anv2a7u5af0lkpxs80hhzh,3ql2ofsm9avjzu30c1gs3vpu7svncv,hcRRW6ud,2020-0188,2020-05-21,15:57:20,16:24:49,NA,incomplete,222,number,1,right,Red_Star_Dots_2.jpg,Green_Star_Grid_4.jpg,Blue_Plus_Stripes_2.jpg,right,1045.5500000023749,true,low,NA,NA,NA,"NA",NA,NA,NA,false
hcRRW6ud,3ac6mfv6anv2a7u5af0lkpxs80hhzh,3ql2ofsm9avjzu30c1gs3vpu7svncv,hcRRW6ud,2020-0188,2020-05-21,15:57:20,16:24:49,NA,incomplete,223,number,1,left,Red_Star_Stripes_3.jpg,Green_Triangle_Dots_3.jpg,Blue_Star_Chess_1.jpg,left,886.849999998929,true,low,NA,NA,NA,"NA",NA,NA,NA,false
hcRRW6ud,3ac6mfv6anv2a7u5af0lkpxs80hhzh,3ql2ofsm9avjzu30c1gs3vpu7svncv,hcRRW6ud,2020-0188,2020-05-21,15:57:20,16:24:49,NA,incomplete,224,number,0,left,Blue_Circle_Stripes_2.jpg,Green_Star_Dots_2.jpg,Purple_Circle_Grid_1.jpg,left,1027.369999999879,true,low,NA,NA,NA,"NA",NA,NA,NA,false
hcRRW6ud,3ac6mfv6anv2a7u5af0lkpxs80hhzh,3ql2ofsm9avjzu30c1gs3vpu7svncv,hcRRW6ud,2020-0188,2020-05-21,15:57:20,16:24:49,NA,incomplete,225,number,1,right,Blue_Circle_Grid_2.jpg,Red_Circle_Chess_3.jpg,Green_Triangle_Dots_2.jpg,right,1347.3500000000931,true,low,NA,NA,NA,"NA",NA,NA,NA,false
hcRRW6ud,3ac6mfv6anv2a7u5af0lkpxs80hhzh,3ql2ofsm9avjzu30c1gs3vpu7svncv,hcRRW6ud,2020-0188,2020-05-21,15:57:20,16:24:49,NA,incomplete,226,number,1,right,Green_Circle_Grid_2.jpg,Red_Circle_Stripes_1.jpg,Blue_Plus_Dots_2.jpg,right,1095.5749999994878,true,low,NA,NA,NA,"NA",NA,NA,NA,false
hcRRW6ud,3ac6mfv6anv2a7u5af0lkpxs80hhzh,3ql2ofsm9avjzu30c1gs3vpu7svncv,hcRRW6ud,2020-0188,2020-05-21,15:57:20,16:24:49,NA,incomplete,227,number,1,right,Red_Triangle_Chess_4.jpg,Blue_Triangle_Dots_2.jpg,Green_Plus_Stripes_4.jpg,right,982.2950000015553,true,low,NA,NA,NA,"NA",NA,NA,NA,false
hcRRW6ud,3ac6mfv6anv2a7u5af0lkpxs80hhzh,3ql2ofsm9avjzu30c1gs3vpu7svncv,hcRRW6ud,2020-0188,2020-05-21,15:57:20,16:24:49,NA,incomplete,228,number,1,left,Blue_Star_Stripes_1.jpg,Red_Circle_Dots_1.jpg,Purple_Star_Chess_2.jpg,right,1166.0249999985099,false,low,NA,NA,NA,"NA",NA,NA,NA,false
hcRRW6ud,3ac6mfv6anv2a7u5af0lkpxs80hhzh,3ql2ofsm9avjzu30c1gs3vpu7svncv,hcRRW6ud,2020-0188,2020-05-21,15:57:20,16:24:49,NA,incomplete,229,number,0,right,Green_Star_Dots_2.jpg,Purple_Star_Stripes_3.jpg,Blue_Triangle_Grid_2.jpg,right,962.4050000021234,true,low,NA,NA,NA,"NA",NA,NA,NA,false
hcRRW6ud,3ac6mfv6anv2a7u5af0lkpxs80hhzh,3ql2ofsm9avjzu30c1gs3vpu7svncv,hcRRW6ud,2020-0188,2020-05-21,15:57:20,16:24:49,NA,incomplete,230,number,1,left,Blue_Triangle_Dots_1.jpg,Green_Star_Grid_1.jpg,Purple_Triangle_Stripes_3.jpg,right,1118.0200000016484,false,low,NA,NA,NA,"NA",NA,NA,NA,false
hcRRW6ud,3ac6mfv6anv2a7u5af0lkpxs80hhzh,3ql2ofsm9avjzu30c1gs3vpu7svncv,hcRRW6ud,2020-0188,2020-05-21,15:57:20,16:24:49,NA,incomplete,231,number,0,left,Green_Plus_Chess_2.jpg,Purple_Star_Dots_2.jpg,Red_Plus_Grid_3.jpg,left,970.5949999990407,true,low,NA,NA,NA,"NA",NA,NA,NA,false
hcRRW6ud,3ac6mfv6anv2a7u5af0lkpxs80hhzh,3ql2ofsm9avjzu30c1gs3vpu7svncv,hcRRW6ud,2020-0188,2020-05-21,15:57:20,16:24:49,NA,incomplete,232,number,1,right,Red_Star_Chess_3.jpg,Blue_Star_Grid_4.jpg,Green_Triangle_Dots_3.jpg,right,940.8149999980815,true,low,NA,NA,NA,"NA",NA,NA,NA,false
hcRRW6ud,3ac6mfv6anv2a7u5af0lkpxs80hhzh,3ql2ofsm9avjzu30c1gs3vpu7svncv,hcRRW6ud,2020-0188,2020-05-21,15:57:20,16:24:49,NA,incomplete,233,number,1,right,Red_Star_Chess_2.jpg,Purple_Star_Dots_3.jpg,Blue_Plus_Stripes_2.jpg,right,1104.6749999986496,true,low,NA,NA,NA,"NA",NA,NA,NA,false
hcRRW6ud,3ac6mfv6anv2a7u5af0lkpxs80hhzh,3ql2ofsm9avjzu30c1gs3vpu7svncv,hcRRW6ud,2020-0188,2020-05-21,15:57:20,16:24:49,NA,incomplete,234,number,1,right,Blue_Plus_Grid_2.jpg,Purple_Plus_Chess_1.jpg,Red_Circle_Dots_2.jpg,right,1006.0849999971688,true,low,NA,NA,NA,"NA",NA,NA,NA,false
hcRRW6ud,3ac6mfv6anv2a7u5af0lkpxs80hhzh,3ql2ofsm9avjzu30c1gs3vpu7svncv,hcRRW6ud,2020-0188,2020-05-21,15:57:20,16:24:49,NA,incomplete,235,number,1,right,Green_Triangle_Dots_4.jpg,Purple_Triangle_Grid_1.jpg,Blue_Plus_Chess_4.jpg,right,1039.9299999990035,true,low,NA,NA,NA,"NA",NA,NA,NA,false
hcRRW6ud,3ac6mfv6anv2a7u5af0lkpxs80hhzh,3ql2ofsm9avjzu30c1gs3vpu7svncv,hcRRW6ud,2020-0188,2020-05-21,15:57:20,16:24:49,NA,incomplete,236,number,0,left,Green_Star_Chess_2.jpg,Blue_Plus_Grid_2.jpg,Purple_Star_Stripes_3.jpg,left,950.0799999986775,true,low,NA,NA,NA,"NA",NA,NA,NA,false
hcRRW6ud,3ac6mfv6anv2a7u5af0lkpxs80hhzh,3ql2ofsm9avjzu30c1gs3vpu7svncv,hcRRW6ud,2020-0188,2020-05-21,15:57:20,16:24:49,NA,incomplete,237,number,1,left,Red_Star_Stripes_4.jpg,Green_Plus_Dots_4.jpg,Blue_Star_Chess_3.jpg,left,978.1650000002701,true,low,NA,NA,NA,"NA",NA,NA,NA,false
hcRRW6ud,3ac6mfv6anv2a7u5af0lkpxs80hhzh,3ql2ofsm9avjzu30c1gs3vpu7svncv,hcRRW6ud,2020-0188,2020-05-21,15:57:20,16:24:49,NA,incomplete,238,number,1,right,Red_Plus_Stripes_1.jpg,Blue_Plus_Dots_4.jpg,Green_Star_Grid_1.jpg,right,1012.8400000031106,true,low,NA,NA,NA,"NA",NA,NA,NA,false
hcRRW6ud,3ac6mfv6anv2a7u5af0lkpxs80hhzh,3ql2ofsm9avjzu30c1gs3vpu7svncv,hcRRW6ud,2020-0188,2020-05-21,15:57:20,16:24:49,NA,incomplete,239,number,1,left,Blue_Plus_Grid_3.jpg,Green_Star_Dots_3.jpg,Purple_Plus_Chess_1.jpg,left,933.7999999988824,true,low,NA,NA,NA,"NA",NA,NA,NA,false
hcRRW6ud,3ac6mfv6anv2a7u5af0lkpxs80hhzh,3ql2ofsm9avjzu30c1gs3vpu7svncv,hcRRW6ud,2020-0188,2020-05-21,15:57:20,16:24:49,NA,NA,instruction example,color,NA,NA,Purple_Circle_Dots_4.jpg,Purple_Star_Chess_1.jpg,Red_Triangle_Dots_2.jpg,NA,NA,NA,NA,NA,NA,NA,"NA",NA,NA,NA,undefined
hcRRW6ud,3ac6mfv6anv2a7u5af0lkpxs80hhzh,3ql2ofsm9avjzu30c1gs3vpu7svncv,hcRRW6ud,2020-0188,2020-05-21,15:57:20,16:24:49,NA,NA,instruction example,color,NA,NA,Red_Triangle_Dots_1.jpg,Green_Plus_Dots_4.jpg,Red_Circle_Chess_3.jpg,NA,NA,NA,NA,NA,NA,NA,"NA",NA,NA,NA,undefined
hcRRW6ud,3ac6mfv6anv2a7u5af0lkpxs80hhzh,3ql2ofsm9avjzu30c1gs3vpu7svncv,hcRRW6ud,2020-0188,2020-05-21,15:57:20,16:24:49,NA,NA,instruction example,color,NA,NA,Blue_Triangle_Chess_1.jpg,Green_Triangle_Dots_2.jpg,Red_Star_Stripes_1.jpg,NA,NA,NA,NA,NA,NA,NA,"NA",NA,NA,NA,undefined
hcRRW6ud,3ac6mfv6anv2a7u5af0lkpxs80hhzh,3ql2ofsm9avjzu30c1gs3vpu7svncv,hcRRW6ud,2020-0188,2020-05-21,15:57:20,16:24:49,NA,NA,instruction example,color,NA,NA,Purple_Plus_Chess_2.jpg,Blue_Circle_Grid_2.jpg,Green_Plus_Stripes_1.jpg,NA,NA,NA,NA,NA,NA,NA,"NA",NA,NA,NA,undefined
hcRRW6ud,3ac6mfv6anv2a7u5af0lkpxs80hhzh,3ql2ofsm9avjzu30c1gs3vpu7svncv,hcRRW6ud,2020-0188,2020-05-21,15:57:20,16:24:49,1605154.4500000018,1649425.5699999994,NA,NA,NA,NA,NA,NA,NA,NA,NA,NA,NA,70,White/Caucasian,Male,"German, Scots Irish",no,yes,no,undefined
