workerId,hitId,assignmentId,subject,studyid,exp_date,exp_start,exp_end,time_start,time_end,trial,type,reward_validity,answer,image_top,image_left,image_right,response,response_time,response_acc,volatility,age,race,gender,ethnicity,color,vision,neuro,practice
3Lt2Ff2i,3wa2xvdzfpuo2njsi9v42o7kc6t6eh,3r08vxyt7g83a7hidlz4jsa73otw7h,3Lt2Ff2i,2020-0188,2020-06-15,18:17:08,18:37:09,NA,incomplete,0,color,1,left,Purple_Triangle_Grid_4.jpg,Purple_Circle_Chess_2.jpg,Green_Star_Dots_4.jpg,right,1090.3699999907985,false,NA,NA,NA,NA,NA,NA,NA,NA,true
3Lt2Ff2i,3wa2xvdzfpuo2njsi9v42o7kc6t6eh,3r08vxyt7g83a7hidlz4jsa73otw7h,3Lt2Ff2i,2020-0188,2020-06-15,18:17:08,18:37:09,NA,incomplete,1,color,1,right,Purple_Plus_Grid_2.jpg,Green_Star_Stripes_2.jpg,Purple_Triangle_Dots_4.jpg,right,1346.3599999959115,true,NA,NA,NA,NA,NA,NA,NA,NA,true
3Lt2Ff2i,3wa2xvdzfpuo2njsi9v42o7kc6t6eh,3r08vxyt7g83a7hidlz4jsa73otw7h,3Lt2Ff2i,2020-0188,2020-06-15,18:17:08,18:37:09,NA,incomplete,2,color,1,left,Purple_Triangle_Stripes_1.jpg,Purple_Plus_Chess_4.jpg,Green_Star_Dots_1.jpg,left,1426.6500000085216,true,NA,NA,NA,NA,NA,NA,NA,NA,true
3Lt2Ff2i,3wa2xvdzfpuo2njsi9v42o7kc6t6eh,3r08vxyt7g83a7hidlz4jsa73otw7h,3Lt2Ff2i,2020-0188,2020-06-15,18:17:08,18:37:09,NA,incomplete,3,color,1,right,Blue_Star_Dots_2.jpg,Red_Plus_Chess_2.jpg,Blue_Triangle_Stripes_3.jpg,right,900.9599999990314,true,NA,NA,NA,NA,NA,NA,NA,NA,true
3Lt2Ff2i,3wa2xvdzfpuo2njsi9v42o7kc6t6eh,3r08vxyt7g83a7hidlz4jsa73otw7h,3Lt2Ff2i,2020-0188,2020-06-15,18:17:08,18:37:09,NA,incomplete,4,color,1,left,Purple_Circle_Dots_1.jpg,Purple_Triangle_Chess_2.jpg,Blue_Plus_Stripes_1.jpg,left,1150.5350000079488,true,NA,NA,NA,NA,NA,NA,NA,NA,true
3Lt2Ff2i,3wa2xvdzfpuo2njsi9v42o7kc6t6eh,3r08vxyt7g83a7hidlz4jsa73otw7h,3Lt2Ff2i,2020-0188,2020-06-15,18:17:08,18:37:09,NA,incomplete,5,color,1,right,Purple_Star_Grid_1.jpg,Red_Triangle_Chess_1.jpg,Purple_Circle_Stripes_2.jpg,right,812.8549999964889,true,NA,NA,NA,NA,NA,NA,NA,NA,true
3Lt2Ff2i,3wa2xvdzfpuo2njsi9v42o7kc6t6eh,3r08vxyt7g83a7hidlz4jsa73otw7h,3Lt2Ff2i,2020-0188,2020-06-15,18:17:08,18:37:09,NA,incomplete,6,color,1,right,Blue_Plus_Chess_4.jpg,Purple_Star_Grid_4.jpg,Blue_Circle_Dots_3.jpg,right,766.6650000028312,true,NA,NA,NA,NA,NA,NA,NA,NA,true
3Lt2Ff2i,3wa2xvdzfpuo2njsi9v42o7kc6t6eh,3r08vxyt7g83a7hidlz4jsa73otw7h,3Lt2Ff2i,2020-0188,2020-06-15,18:17:08,18:37:09,NA,incomplete,7,color,1,left,Green_Star_Dots_2.jpg,Green_Triangle_Grid_4.jpg,Blue_Plus_Chess_2.jpg,left,845.6250000017462,true,NA,NA,NA,NA,NA,NA,NA,NA,true
3Lt2Ff2i,3wa2xvdzfpuo2njsi9v42o7kc6t6eh,3r08vxyt7g83a7hidlz4jsa73otw7h,3Lt2Ff2i,2020-0188,2020-06-15,18:17:08,18:37:09,NA,incomplete,8,color,0,left,Blue_Plus_Stripes_1.jpg,Blue_Circle_Grid_4.jpg,Green_Triangle_Chess_1.jpg,left,880.2500000019791,true,NA,NA,NA,NA,NA,NA,NA,NA,true
3Lt2Ff2i,3wa2xvdzfpuo2njsi9v42o7kc6t6eh,3r08vxyt7g83a7hidlz4jsa73otw7h,3Lt2Ff2i,2020-0188,2020-06-15,18:17:08,18:37:09,NA,incomplete,9,color,0,left,Green_Triangle_Chess_1.jpg,Green_Plus_Dots_3.jpg,Red_Star_Stripes_1.jpg,left,831.7299999907846,true,NA,NA,NA,NA,NA,NA,NA,NA,true
3Lt2Ff2i,3wa2xvdzfpuo2njsi9v42o7kc6t6eh,3r08vxyt7g83a7hidlz4jsa73otw7h,3Lt2Ff2i,2020-0188,2020-06-15,18:17:08,18:37:09,NA,incomplete,10,color,1,left,Green_Plus_Grid_3.jpg,Green_Star_Stripes_4.jpg,Purple_Triangle_Chess_3.jpg,left,1338.8600000034785,true,NA,NA,NA,NA,NA,NA,NA,NA,true
3Lt2Ff2i,3wa2xvdzfpuo2njsi9v42o7kc6t6eh,3r08vxyt7g83a7hidlz4jsa73otw7h,3Lt2Ff2i,2020-0188,2020-06-15,18:17:08,18:37:09,NA,incomplete,11,color,0,right,Red_Plus_Dots_4.jpg,Blue_Star_Grid_4.jpg,Red_Circle_Chess_2.jpg,right,1095.3699999954551,true,NA,NA,NA,NA,NA,NA,NA,NA,true
3Lt2Ff2i,3wa2xvdzfpuo2njsi9v42o7kc6t6eh,3r08vxyt7g83a7hidlz4jsa73otw7h,3Lt2Ff2i,2020-0188,2020-06-15,18:17:08,18:37:09,NA,incomplete,12,color,1,right,Blue_Circle_Chess_2.jpg,Purple_Plus_Dots_2.jpg,Blue_Star_Grid_3.jpg,right,880.1349999994272,true,NA,NA,NA,NA,NA,NA,NA,NA,true
3Lt2Ff2i,3wa2xvdzfpuo2njsi9v42o7kc6t6eh,3r08vxyt7g83a7hidlz4jsa73otw7h,3Lt2Ff2i,2020-0188,2020-06-15,18:17:08,18:37:09,NA,incomplete,13,color,1,left,Blue_Triangle_Dots_2.jpg,Blue_Circle_Stripes_3.jpg,Red_Star_Grid_2.jpg,left,797.3149999888847,true,NA,NA,NA,NA,NA,NA,NA,NA,true
3Lt2Ff2i,3wa2xvdzfpuo2njsi9v42o7kc6t6eh,3r08vxyt7g83a7hidlz4jsa73otw7h,3Lt2Ff2i,2020-0188,2020-06-15,18:17:08,18:37:09,NA,incomplete,14,color,1,left,Green_Triangle_Stripes_1.jpg,Green_Star_Chess_4.jpg,Blue_Plus_Dots_1.jpg,left,891.4350000122795,true,NA,NA,NA,NA,NA,NA,NA,NA,true
3Lt2Ff2i,3wa2xvdzfpuo2njsi9v42o7kc6t6eh,3r08vxyt7g83a7hidlz4jsa73otw7h,3Lt2Ff2i,2020-0188,2020-06-15,18:17:08,18:37:09,NA,incomplete,15,color,1,left,Purple_Triangle_Grid_1.jpg,Purple_Star_Dots_2.jpg,Green_Plus_Chess_1.jpg,left,819.3800000008196,true,NA,NA,NA,NA,NA,NA,NA,NA,true
3Lt2Ff2i,3wa2xvdzfpuo2njsi9v42o7kc6t6eh,3r08vxyt7g83a7hidlz4jsa73otw7h,3Lt2Ff2i,2020-0188,2020-06-15,18:17:08,18:37:09,NA,incomplete,16,color,1,left,Blue_Triangle_Stripes_3.jpg,Blue_Star_Grid_4.jpg,Purple_Plus_Dots_3.jpg,left,845.6999999907566,true,NA,NA,NA,NA,NA,NA,NA,NA,true
3Lt2Ff2i,3wa2xvdzfpuo2njsi9v42o7kc6t6eh,3r08vxyt7g83a7hidlz4jsa73otw7h,3Lt2Ff2i,2020-0188,2020-06-15,18:17:08,18:37:09,NA,incomplete,17,color,1,left,Green_Circle_Dots_2.jpg,Green_Star_Chess_3.jpg,Red_Plus_Grid_2.jpg,left,754.9350000044797,true,NA,NA,NA,NA,NA,NA,NA,NA,true
3Lt2Ff2i,3wa2xvdzfpuo2njsi9v42o7kc6t6eh,3r08vxyt7g83a7hidlz4jsa73otw7h,3Lt2Ff2i,2020-0188,2020-06-15,18:17:08,18:37:09,NA,incomplete,18,color,0,right,Red_Plus_Grid_2.jpg,Blue_Circle_Dots_2.jpg,Red_Star_Chess_4.jpg,right,1031.4450000005309,true,NA,NA,NA,NA,NA,NA,NA,NA,true
3Lt2Ff2i,3wa2xvdzfpuo2njsi9v42o7kc6t6eh,3r08vxyt7g83a7hidlz4jsa73otw7h,3Lt2Ff2i,2020-0188,2020-06-15,18:17:08,18:37:09,NA,incomplete,19,color,0,right,Blue_Circle_Grid_2.jpg,Green_Star_Chess_2.jpg,Blue_Triangle_Stripes_3.jpg,right,731.8399999930989,true,NA,NA,NA,NA,NA,NA,NA,NA,true
3Lt2Ff2i,3wa2xvdzfpuo2njsi9v42o7kc6t6eh,3r08vxyt7g83a7hidlz4jsa73otw7h,3Lt2Ff2i,2020-0188,2020-06-15,18:17:08,18:37:09,NA,incomplete,20,number,1,right,Red_Triangle_Grid_1.jpg,Red_Circle_Dots_4.jpg,Purple_Plus_Stripes_1.jpg,right,1290.7649999979185,true,NA,NA,NA,NA,NA,NA,NA,NA,true
3Lt2Ff2i,3wa2xvdzfpuo2njsi9v42o7kc6t6eh,3r08vxyt7g83a7hidlz4jsa73otw7h,3Lt2Ff2i,2020-0188,2020-06-15,18:17:08,18:37:09,NA,incomplete,21,number,1,right,Red_Circle_Chess_3.jpg,Red_Plus_Grid_2.jpg,Blue_Triangle_Stripes_3.jpg,right,960.1249999977881,true,NA,NA,NA,NA,NA,NA,NA,NA,true
3Lt2Ff2i,3wa2xvdzfpuo2njsi9v42o7kc6t6eh,3r08vxyt7g83a7hidlz4jsa73otw7h,3Lt2Ff2i,2020-0188,2020-06-15,18:17:08,18:37:09,NA,incomplete,22,number,1,right,Blue_Plus_Chess_4.jpg,Blue_Triangle_Grid_2.jpg,Purple_Circle_Dots_4.jpg,right,940.3149999998277,true,NA,NA,NA,NA,NA,NA,NA,NA,true
3Lt2Ff2i,3wa2xvdzfpuo2njsi9v42o7kc6t6eh,3r08vxyt7g83a7hidlz4jsa73otw7h,3Lt2Ff2i,2020-0188,2020-06-15,18:17:08,18:37:09,NA,incomplete,23,number,1,right,Blue_Plus_Dots_2.jpg,Blue_Triangle_Grid_1.jpg,Purple_Star_Stripes_2.jpg,right,1010.6649999943329,true,NA,NA,NA,NA,NA,NA,NA,NA,true
3Lt2Ff2i,3wa2xvdzfpuo2njsi9v42o7kc6t6eh,3r08vxyt7g83a7hidlz4jsa73otw7h,3Lt2Ff2i,2020-0188,2020-06-15,18:17:08,18:37:09,NA,incomplete,24,number,1,left,Blue_Triangle_Stripes_4.jpg,Purple_Star_Grid_4.jpg,Blue_Circle_Dots_3.jpg,left,811.6399999998976,true,NA,NA,NA,NA,NA,NA,NA,NA,true
3Lt2Ff2i,3wa2xvdzfpuo2njsi9v42o7kc6t6eh,3r08vxyt7g83a7hidlz4jsa73otw7h,3Lt2Ff2i,2020-0188,2020-06-15,18:17:08,18:37:09,NA,incomplete,25,number,1,right,Red_Plus_Chess_3.jpg,Red_Circle_Dots_4.jpg,Purple_Triangle_Stripes_3.jpg,right,976.1800000123912,true,NA,NA,NA,NA,NA,NA,NA,NA,true
3Lt2Ff2i,3wa2xvdzfpuo2njsi9v42o7kc6t6eh,3r08vxyt7g83a7hidlz4jsa73otw7h,3Lt2Ff2i,2020-0188,2020-06-15,18:17:08,18:37:09,NA,incomplete,26,number,1,left,Purple_Circle_Chess_3.jpg,Green_Star_Dots_3.jpg,Purple_Plus_Grid_2.jpg,left,953.559999994468,true,NA,NA,NA,NA,NA,NA,NA,NA,true
3Lt2Ff2i,3wa2xvdzfpuo2njsi9v42o7kc6t6eh,3r08vxyt7g83a7hidlz4jsa73otw7h,3Lt2Ff2i,2020-0188,2020-06-15,18:17:08,18:37:09,NA,incomplete,27,number,1,right,Blue_Plus_Dots_3.jpg,Blue_Triangle_Grid_2.jpg,Purple_Star_Stripes_3.jpg,right,747.9350000066916,true,NA,NA,NA,NA,NA,NA,NA,NA,true
3Lt2Ff2i,3wa2xvdzfpuo2njsi9v42o7kc6t6eh,3r08vxyt7g83a7hidlz4jsa73otw7h,3Lt2Ff2i,2020-0188,2020-06-15,18:17:08,18:37:09,NA,incomplete,28,number,1,left,Blue_Triangle_Dots_4.jpg,Purple_Plus_Grid_4.jpg,Blue_Circle_Stripes_2.jpg,left,782.1200000034878,true,NA,NA,NA,NA,NA,NA,NA,NA,true
3Lt2Ff2i,3wa2xvdzfpuo2njsi9v42o7kc6t6eh,3r08vxyt7g83a7hidlz4jsa73otw7h,3Lt2Ff2i,2020-0188,2020-06-15,18:17:08,18:37:09,NA,incomplete,29,number,1,left,Red_Plus_Dots_1.jpg,Green_Star_Grid_1.jpg,Red_Triangle_Chess_3.jpg,left,898.9399999991292,true,NA,NA,NA,NA,NA,NA,NA,NA,true
3Lt2Ff2i,3wa2xvdzfpuo2njsi9v42o7kc6t6eh,3r08vxyt7g83a7hidlz4jsa73otw7h,3Lt2Ff2i,2020-0188,2020-06-15,18:17:08,18:37:09,NA,incomplete,30,number,1,left,Green_Plus_Chess_1.jpg,Purple_Triangle_Dots_1.jpg,Green_Circle_Stripes_3.jpg,left,946.219999997993,true,NA,NA,NA,NA,NA,NA,NA,NA,true
3Lt2Ff2i,3wa2xvdzfpuo2njsi9v42o7kc6t6eh,3r08vxyt7g83a7hidlz4jsa73otw7h,3Lt2Ff2i,2020-0188,2020-06-15,18:17:08,18:37:09,NA,incomplete,31,number,0,left,Purple_Star_Grid_4.jpg,Green_Triangle_Dots_4.jpg,Purple_Circle_Stripes_3.jpg,left,840.9350000001723,true,NA,NA,NA,NA,NA,NA,NA,NA,true
3Lt2Ff2i,3wa2xvdzfpuo2njsi9v42o7kc6t6eh,3r08vxyt7g83a7hidlz4jsa73otw7h,3Lt2Ff2i,2020-0188,2020-06-15,18:17:08,18:37:09,NA,incomplete,32,number,1,left,Blue_Star_Chess_3.jpg,Green_Plus_Dots_3.jpg,Blue_Circle_Stripes_4.jpg,left,858.0700000020443,true,NA,NA,NA,NA,NA,NA,NA,NA,true
3Lt2Ff2i,3wa2xvdzfpuo2njsi9v42o7kc6t6eh,3r08vxyt7g83a7hidlz4jsa73otw7h,3Lt2Ff2i,2020-0188,2020-06-15,18:17:08,18:37:09,NA,incomplete,33,number,0,right,Green_Triangle_Dots_1.jpg,Green_Circle_Grid_2.jpg,Red_Plus_Stripes_1.jpg,right,1051.1549999937415,true,NA,NA,NA,NA,NA,NA,NA,NA,true
3Lt2Ff2i,3wa2xvdzfpuo2njsi9v42o7kc6t6eh,3r08vxyt7g83a7hidlz4jsa73otw7h,3Lt2Ff2i,2020-0188,2020-06-15,18:17:08,18:37:09,NA,incomplete,34,number,1,right,Purple_Plus_Dots_2.jpg,Purple_Star_Stripes_4.jpg,Green_Triangle_Chess_2.jpg,right,871.4949999994133,true,NA,NA,NA,NA,NA,NA,NA,NA,true
3Lt2Ff2i,3wa2xvdzfpuo2njsi9v42o7kc6t6eh,3r08vxyt7g83a7hidlz4jsa73otw7h,3Lt2Ff2i,2020-0188,2020-06-15,18:17:08,18:37:09,NA,incomplete,35,number,1,left,Blue_Circle_Stripes_1.jpg,Red_Star_Grid_1.jpg,Blue_Plus_Dots_3.jpg,left,884.8699999944074,true,NA,NA,NA,NA,NA,NA,NA,NA,true
3Lt2Ff2i,3wa2xvdzfpuo2njsi9v42o7kc6t6eh,3r08vxyt7g83a7hidlz4jsa73otw7h,3Lt2Ff2i,2020-0188,2020-06-15,18:17:08,18:37:09,NA,incomplete,36,number,1,right,Green_Triangle_Grid_3.jpg,Green_Star_Dots_4.jpg,Blue_Plus_Stripes_3.jpg,right,1022.6799999945797,true,NA,NA,NA,NA,NA,NA,NA,NA,true
3Lt2Ff2i,3wa2xvdzfpuo2njsi9v42o7kc6t6eh,3r08vxyt7g83a7hidlz4jsa73otw7h,3Lt2Ff2i,2020-0188,2020-06-15,18:17:08,18:37:09,NA,incomplete,37,number,1,right,Green_Star_Grid_2.jpg,Green_Triangle_Chess_4.jpg,Blue_Plus_Stripes_2.jpg,right,865.9200000111014,true,NA,NA,NA,NA,NA,NA,NA,NA,true
3Lt2Ff2i,3wa2xvdzfpuo2njsi9v42o7kc6t6eh,3r08vxyt7g83a7hidlz4jsa73otw7h,3Lt2Ff2i,2020-0188,2020-06-15,18:17:08,18:37:09,NA,incomplete,38,number,1,left,Green_Star_Stripes_2.jpg,Red_Circle_Grid_2.jpg,Green_Triangle_Chess_4.jpg,left,841.3549999968382,true,NA,NA,NA,NA,NA,NA,NA,NA,true
3Lt2Ff2i,3wa2xvdzfpuo2njsi9v42o7kc6t6eh,3r08vxyt7g83a7hidlz4jsa73otw7h,3Lt2Ff2i,2020-0188,2020-06-15,18:17:08,18:37:09,NA,incomplete,39,number,0,right,Red_Circle_Stripes_4.jpg,Red_Triangle_Chess_3.jpg,Blue_Star_Grid_4.jpg,right,839.1900000133319,true,NA,NA,NA,NA,NA,NA,NA,NA,true
3Lt2Ff2i,3wa2xvdzfpuo2njsi9v42o7kc6t6eh,3r08vxyt7g83a7hidlz4jsa73otw7h,3Lt2Ff2i,2020-0188,2020-06-15,18:17:08,18:37:09,NA,incomplete,0,color,1,left,Red_Triangle_Chess_3.jpg,Red_Star_Grid_1.jpg,Blue_Plus_Dots_3.jpg,right,886.834999997518,false,high,NA,NA,NA,NA,NA,NA,NA,false
3Lt2Ff2i,3wa2xvdzfpuo2njsi9v42o7kc6t6eh,3r08vxyt7g83a7hidlz4jsa73otw7h,3Lt2Ff2i,2020-0188,2020-06-15,18:17:08,18:37:09,NA,incomplete,1,color,1,right,Green_Triangle_Dots_1.jpg,Blue_Plus_Chess_1.jpg,Green_Circle_Stripes_4.jpg,left,907.6100000092993,false,high,NA,NA,NA,NA,NA,NA,NA,false
3Lt2Ff2i,3wa2xvdzfpuo2njsi9v42o7kc6t6eh,3r08vxyt7g83a7hidlz4jsa73otw7h,3Lt2Ff2i,2020-0188,2020-06-15,18:17:08,18:37:09,NA,incomplete,2,color,1,left,Purple_Triangle_Dots_4.jpg,Purple_Star_Grid_2.jpg,Blue_Circle_Chess_4.jpg,left,798.0999999999767,true,high,NA,NA,NA,NA,NA,NA,NA,false
3Lt2Ff2i,3wa2xvdzfpuo2njsi9v42o7kc6t6eh,3r08vxyt7g83a7hidlz4jsa73otw7h,3Lt2Ff2i,2020-0188,2020-06-15,18:17:08,18:37:09,NA,incomplete,3,color,1,left,Blue_Circle_Dots_1.jpg,Blue_Triangle_Grid_2.jpg,Green_Star_Stripes_1.jpg,left,770.8050000073854,true,high,NA,NA,NA,NA,NA,NA,NA,false
3Lt2Ff2i,3wa2xvdzfpuo2njsi9v42o7kc6t6eh,3r08vxyt7g83a7hidlz4jsa73otw7h,3Lt2Ff2i,2020-0188,2020-06-15,18:17:08,18:37:09,NA,incomplete,4,color,1,left,Blue_Star_Grid_3.jpg,Blue_Triangle_Dots_1.jpg,Green_Circle_Stripes_3.jpg,left,680.3250000084518,true,high,NA,NA,NA,NA,NA,NA,NA,false
3Lt2Ff2i,3wa2xvdzfpuo2njsi9v42o7kc6t6eh,3r08vxyt7g83a7hidlz4jsa73otw7h,3Lt2Ff2i,2020-0188,2020-06-15,18:17:08,18:37:09,NA,incomplete,5,color,0,right,Green_Plus_Grid_1.jpg,Purple_Triangle_Stripes_1.jpg,Green_Circle_Dots_4.jpg,right,780.719999995199,true,high,NA,NA,NA,NA,NA,NA,NA,false
3Lt2Ff2i,3wa2xvdzfpuo2njsi9v42o7kc6t6eh,3r08vxyt7g83a7hidlz4jsa73otw7h,3Lt2Ff2i,2020-0188,2020-06-15,18:17:08,18:37:09,NA,incomplete,6,color,1,right,Red_Star_Chess_2.jpg,Blue_Circle_Grid_2.jpg,Red_Plus_Dots_1.jpg,right,706.4099999988684,true,high,NA,NA,NA,NA,NA,NA,NA,false
3Lt2Ff2i,3wa2xvdzfpuo2njsi9v42o7kc6t6eh,3r08vxyt7g83a7hidlz4jsa73otw7h,3Lt2Ff2i,2020-0188,2020-06-15,18:17:08,18:37:09,NA,incomplete,7,color,1,left,Red_Plus_Grid_1.jpg,Red_Triangle_Chess_4.jpg,Purple_Star_Dots_1.jpg,left,681.4449999947101,true,high,NA,NA,NA,NA,NA,NA,NA,false
3Lt2Ff2i,3wa2xvdzfpuo2njsi9v42o7kc6t6eh,3r08vxyt7g83a7hidlz4jsa73otw7h,3Lt2Ff2i,2020-0188,2020-06-15,18:17:08,18:37:09,NA,incomplete,8,color,1,right,Blue_Triangle_Stripes_2.jpg,Green_Star_Grid_2.jpg,Blue_Plus_Dots_3.jpg,right,648.2399999949848,true,high,NA,NA,NA,NA,NA,NA,NA,false
3Lt2Ff2i,3wa2xvdzfpuo2njsi9v42o7kc6t6eh,3r08vxyt7g83a7hidlz4jsa73otw7h,3Lt2Ff2i,2020-0188,2020-06-15,18:17:08,18:37:09,NA,incomplete,9,color,1,left,Purple_Triangle_Dots_4.jpg,Purple_Circle_Grid_3.jpg,Blue_Star_Stripes_4.jpg,left,633.7649999913992,true,high,NA,NA,NA,NA,NA,NA,NA,false
3Lt2Ff2i,3wa2xvdzfpuo2njsi9v42o7kc6t6eh,3r08vxyt7g83a7hidlz4jsa73otw7h,3Lt2Ff2i,2020-0188,2020-06-15,18:17:08,18:37:09,NA,incomplete,10,number,1,right,Green_Circle_Dots_2.jpg,Green_Star_Grid_4.jpg,Blue_Plus_Stripes_2.jpg,left,621.354999995674,false,high,NA,NA,NA,NA,NA,NA,NA,false
3Lt2Ff2i,3wa2xvdzfpuo2njsi9v42o7kc6t6eh,3r08vxyt7g83a7hidlz4jsa73otw7h,3Lt2Ff2i,2020-0188,2020-06-15,18:17:08,18:37:09,NA,incomplete,11,number,1,right,Red_Star_Dots_4.jpg,Red_Triangle_Stripes_1.jpg,Blue_Circle_Grid_4.jpg,left,644.9649999995017,false,high,NA,NA,NA,NA,NA,NA,NA,false
3Lt2Ff2i,3wa2xvdzfpuo2njsi9v42o7kc6t6eh,3r08vxyt7g83a7hidlz4jsa73otw7h,3Lt2Ff2i,2020-0188,2020-06-15,18:17:08,18:37:09,NA,incomplete,12,number,1,left,Green_Triangle_Dots_4.jpg,Red_Plus_Grid_4.jpg,Green_Star_Chess_1.jpg,right,729.2999999917811,false,high,NA,NA,NA,NA,NA,NA,NA,false
3Lt2Ff2i,3wa2xvdzfpuo2njsi9v42o7kc6t6eh,3r08vxyt7g83a7hidlz4jsa73otw7h,3Lt2Ff2i,2020-0188,2020-06-15,18:17:08,18:37:09,NA,incomplete,13,number,1,right,Purple_Star_Dots_2.jpg,Purple_Triangle_Chess_3.jpg,Blue_Circle_Stripes_2.jpg,right,830.5150000087451,true,high,NA,NA,NA,NA,NA,NA,NA,false
3Lt2Ff2i,3wa2xvdzfpuo2njsi9v42o7kc6t6eh,3r08vxyt7g83a7hidlz4jsa73otw7h,3Lt2Ff2i,2020-0188,2020-06-15,18:17:08,18:37:09,NA,incomplete,14,number,1,right,Purple_Star_Chess_4.jpg,Purple_Plus_Stripes_2.jpg,Green_Triangle_Dots_4.jpg,right,685.4850000090664,true,high,NA,NA,NA,NA,NA,NA,NA,false
3Lt2Ff2i,3wa2xvdzfpuo2njsi9v42o7kc6t6eh,3r08vxyt7g83a7hidlz4jsa73otw7h,3Lt2Ff2i,2020-0188,2020-06-15,18:17:08,18:37:09,NA,incomplete,15,number,1,left,Blue_Star_Grid_2.jpg,Green_Plus_Chess_2.jpg,Blue_Triangle_Stripes_3.jpg,left,845.6149999983609,true,high,NA,NA,NA,NA,NA,NA,NA,false
3Lt2Ff2i,3wa2xvdzfpuo2njsi9v42o7kc6t6eh,3r08vxyt7g83a7hidlz4jsa73otw7h,3Lt2Ff2i,2020-0188,2020-06-15,18:17:08,18:37:09,NA,incomplete,16,number,1,right,Purple_Star_Chess_3.jpg,Purple_Circle_Dots_2.jpg,Blue_Triangle_Stripes_3.jpg,right,663.4250000061002,true,high,NA,NA,NA,NA,NA,NA,NA,false
3Lt2Ff2i,3wa2xvdzfpuo2njsi9v42o7kc6t6eh,3r08vxyt7g83a7hidlz4jsa73otw7h,3Lt2Ff2i,2020-0188,2020-06-15,18:17:08,18:37:09,NA,incomplete,17,number,1,left,Blue_Plus_Stripes_3.jpg,Red_Circle_Dots_3.jpg,Blue_Triangle_Grid_4.jpg,left,763.8549999974202,true,high,NA,NA,NA,NA,NA,NA,NA,false
3Lt2Ff2i,3wa2xvdzfpuo2njsi9v42o7kc6t6eh,3r08vxyt7g83a7hidlz4jsa73otw7h,3Lt2Ff2i,2020-0188,2020-06-15,18:17:08,18:37:09,NA,incomplete,18,number,0,left,Purple_Circle_Dots_3.jpg,Red_Triangle_Chess_3.jpg,Purple_Plus_Grid_4.jpg,left,763.1650000112131,true,high,NA,NA,NA,NA,NA,NA,NA,false
3Lt2Ff2i,3wa2xvdzfpuo2njsi9v42o7kc6t6eh,3r08vxyt7g83a7hidlz4jsa73otw7h,3Lt2Ff2i,2020-0188,2020-06-15,18:17:08,18:37:09,NA,incomplete,19,number,1,left,Green_Triangle_Dots_3.jpg,Red_Plus_Grid_3.jpg,Green_Star_Chess_4.jpg,left,922.6750000088941,true,high,NA,NA,NA,NA,NA,NA,NA,false
3Lt2Ff2i,3wa2xvdzfpuo2njsi9v42o7kc6t6eh,3r08vxyt7g83a7hidlz4jsa73otw7h,3Lt2Ff2i,2020-0188,2020-06-15,18:17:08,18:37:09,NA,incomplete,20,color,1,right,Red_Triangle_Chess_1.jpg,Purple_Star_Stripes_1.jpg,Red_Plus_Grid_2.jpg,left,737.940000006347,false,high,NA,NA,NA,NA,NA,NA,NA,false
3Lt2Ff2i,3wa2xvdzfpuo2njsi9v42o7kc6t6eh,3r08vxyt7g83a7hidlz4jsa73otw7h,3Lt2Ff2i,2020-0188,2020-06-15,18:17:08,18:37:09,NA,incomplete,21,color,1,left,Purple_Triangle_Dots_2.jpg,Purple_Plus_Stripes_4.jpg,Green_Circle_Chess_2.jpg,right,863.0350000021281,false,high,NA,NA,NA,NA,NA,NA,NA,false
3Lt2Ff2i,3wa2xvdzfpuo2njsi9v42o7kc6t6eh,3r08vxyt7g83a7hidlz4jsa73otw7h,3Lt2Ff2i,2020-0188,2020-06-15,18:17:08,18:37:09,NA,incomplete,22,color,0,right,Purple_Star_Grid_1.jpg,Blue_Circle_Chess_1.jpg,Purple_Triangle_Stripes_3.jpg,left,886.7949999985285,false,high,NA,NA,NA,NA,NA,NA,NA,false
3Lt2Ff2i,3wa2xvdzfpuo2njsi9v42o7kc6t6eh,3r08vxyt7g83a7hidlz4jsa73otw7h,3Lt2Ff2i,2020-0188,2020-06-15,18:17:08,18:37:09,NA,incomplete,23,color,0,right,Purple_Circle_Stripes_2.jpg,Red_Plus_Dots_2.jpg,Purple_Star_Grid_1.jpg,left,744.4050000049174,false,high,NA,NA,NA,NA,NA,NA,NA,false
3Lt2Ff2i,3wa2xvdzfpuo2njsi9v42o7kc6t6eh,3r08vxyt7g83a7hidlz4jsa73otw7h,3Lt2Ff2i,2020-0188,2020-06-15,18:17:08,18:37:09,NA,incomplete,24,color,1,right,Purple_Circle_Dots_2.jpg,Red_Star_Grid_2.jpg,Purple_Triangle_Chess_1.jpg,left,638.1299999920884,false,high,NA,NA,NA,NA,NA,NA,NA,false
3Lt2Ff2i,3wa2xvdzfpuo2njsi9v42o7kc6t6eh,3r08vxyt7g83a7hidlz4jsa73otw7h,3Lt2Ff2i,2020-0188,2020-06-15,18:17:08,18:37:09,NA,incomplete,25,color,1,left,Green_Plus_Chess_4.jpg,Green_Star_Dots_2.jpg,Purple_Triangle_Stripes_4.jpg,right,1093.7949999934062,false,high,NA,NA,NA,NA,NA,NA,NA,false
3Lt2Ff2i,3wa2xvdzfpuo2njsi9v42o7kc6t6eh,3r08vxyt7g83a7hidlz4jsa73otw7h,3Lt2Ff2i,2020-0188,2020-06-15,18:17:08,18:37:09,NA,incomplete,26,color,1,left,Red_Circle_Stripes_4.jpg,Red_Triangle_Chess_1.jpg,Green_Plus_Grid_4.jpg,left,829.2749999964144,true,high,NA,NA,NA,NA,NA,NA,NA,false
3Lt2Ff2i,3wa2xvdzfpuo2njsi9v42o7kc6t6eh,3r08vxyt7g83a7hidlz4jsa73otw7h,3Lt2Ff2i,2020-0188,2020-06-15,18:17:08,18:37:09,NA,incomplete,27,color,1,right,Red_Star_Stripes_1.jpg,Green_Circle_Grid_1.jpg,Red_Triangle_Dots_3.jpg,right,703.2150000013644,true,high,NA,NA,NA,NA,NA,NA,NA,false
3Lt2Ff2i,3wa2xvdzfpuo2njsi9v42o7kc6t6eh,3r08vxyt7g83a7hidlz4jsa73otw7h,3Lt2Ff2i,2020-0188,2020-06-15,18:17:08,18:37:09,NA,incomplete,28,color,0,left,Purple_Star_Grid_1.jpg,Purple_Circle_Stripes_3.jpg,Blue_Triangle_Chess_1.jpg,left,857.6749999920139,true,high,NA,NA,NA,NA,NA,NA,NA,false
3Lt2Ff2i,3wa2xvdzfpuo2njsi9v42o7kc6t6eh,3r08vxyt7g83a7hidlz4jsa73otw7h,3Lt2Ff2i,2020-0188,2020-06-15,18:17:08,18:37:09,NA,incomplete,29,color,1,right,Red_Triangle_Stripes_2.jpg,Green_Circle_Chess_2.jpg,Red_Plus_Grid_1.jpg,right,787.9249999969034,true,high,NA,NA,NA,NA,NA,NA,NA,false
3Lt2Ff2i,3wa2xvdzfpuo2njsi9v42o7kc6t6eh,3r08vxyt7g83a7hidlz4jsa73otw7h,3Lt2Ff2i,2020-0188,2020-06-15,18:17:08,18:37:09,NA,incomplete,30,number,0,left,Purple_Circle_Chess_3.jpg,Green_Star_Dots_3.jpg,Purple_Plus_Stripes_1.jpg,right,705.8650000108173,false,high,NA,NA,NA,NA,NA,NA,NA,false
3Lt2Ff2i,3wa2xvdzfpuo2njsi9v42o7kc6t6eh,3r08vxyt7g83a7hidlz4jsa73otw7h,3Lt2Ff2i,2020-0188,2020-06-15,18:17:08,18:37:09,NA,incomplete,31,number,1,right,Purple_Circle_Grid_4.jpg,Purple_Plus_Dots_2.jpg,Blue_Triangle_Chess_4.jpg,left,648.2749999995576,false,high,NA,NA,NA,NA,NA,NA,NA,false
3Lt2Ff2i,3wa2xvdzfpuo2njsi9v42o7kc6t6eh,3r08vxyt7g83a7hidlz4jsa73otw7h,3Lt2Ff2i,2020-0188,2020-06-15,18:17:08,18:37:09,NA,incomplete,32,number,1,left,Green_Plus_Stripes_4.jpg,Purple_Circle_Dots_4.jpg,Green_Star_Grid_2.jpg,right,702.5099999882514,false,high,NA,NA,NA,NA,NA,NA,NA,false
3Lt2Ff2i,3wa2xvdzfpuo2njsi9v42o7kc6t6eh,3r08vxyt7g83a7hidlz4jsa73otw7h,3Lt2Ff2i,2020-0188,2020-06-15,18:17:08,18:37:09,NA,incomplete,33,number,1,right,Purple_Circle_Grid_1.jpg,Purple_Plus_Chess_2.jpg,Green_Triangle_Dots_1.jpg,left,673.8100000075065,false,high,NA,NA,NA,NA,NA,NA,NA,false
3Lt2Ff2i,3wa2xvdzfpuo2njsi9v42o7kc6t6eh,3r08vxyt7g83a7hidlz4jsa73otw7h,3Lt2Ff2i,2020-0188,2020-06-15,18:17:08,18:37:09,NA,incomplete,34,number,1,left,Green_Circle_Chess_1.jpg,Blue_Plus_Grid_1.jpg,Green_Triangle_Dots_2.jpg,left,817.7549999963958,true,high,NA,NA,NA,NA,NA,NA,NA,false
3Lt2Ff2i,3wa2xvdzfpuo2njsi9v42o7kc6t6eh,3r08vxyt7g83a7hidlz4jsa73otw7h,3Lt2Ff2i,2020-0188,2020-06-15,18:17:08,18:37:09,NA,incomplete,35,number,0,left,Blue_Triangle_Stripes_3.jpg,Purple_Star_Chess_3.jpg,Blue_Circle_Grid_1.jpg,left,836.2300000007963,true,high,NA,NA,NA,NA,NA,NA,NA,false
3Lt2Ff2i,3wa2xvdzfpuo2njsi9v42o7kc6t6eh,3r08vxyt7g83a7hidlz4jsa73otw7h,3Lt2Ff2i,2020-0188,2020-06-15,18:17:08,18:37:09,NA,incomplete,36,number,1,right,Blue_Triangle_Chess_1.jpg,Blue_Plus_Stripes_2.jpg,Purple_Star_Grid_1.jpg,right,1058.759999999893,true,high,NA,NA,NA,NA,NA,NA,NA,false
3Lt2Ff2i,3wa2xvdzfpuo2njsi9v42o7kc6t6eh,3r08vxyt7g83a7hidlz4jsa73otw7h,3Lt2Ff2i,2020-0188,2020-06-15,18:17:08,18:37:09,NA,incomplete,37,number,1,right,Blue_Plus_Chess_1.jpg,Blue_Triangle_Grid_2.jpg,Red_Circle_Dots_1.jpg,right,666.6499999992084,true,high,NA,NA,NA,NA,NA,NA,NA,false
3Lt2Ff2i,3wa2xvdzfpuo2njsi9v42o7kc6t6eh,3r08vxyt7g83a7hidlz4jsa73otw7h,3Lt2Ff2i,2020-0188,2020-06-15,18:17:08,18:37:09,NA,incomplete,38,number,1,right,Red_Circle_Chess_4.jpg,Red_Triangle_Grid_2.jpg,Blue_Star_Dots_4.jpg,right,741.21500000183,true,high,NA,NA,NA,NA,NA,NA,NA,false
3Lt2Ff2i,3wa2xvdzfpuo2njsi9v42o7kc6t6eh,3r08vxyt7g83a7hidlz4jsa73otw7h,3Lt2Ff2i,2020-0188,2020-06-15,18:17:08,18:37:09,NA,incomplete,39,number,0,left,Red_Triangle_Chess_4.jpg,Green_Circle_Dots_4.jpg,Red_Plus_Stripes_2.jpg,left,776.5100000106031,true,high,NA,NA,NA,NA,NA,NA,NA,false
3Lt2Ff2i,3wa2xvdzfpuo2njsi9v42o7kc6t6eh,3r08vxyt7g83a7hidlz4jsa73otw7h,3Lt2Ff2i,2020-0188,2020-06-15,18:17:08,18:37:09,NA,incomplete,40,color,0,right,Blue_Plus_Stripes_1.jpg,Purple_Star_Dots_1.jpg,Blue_Circle_Chess_3.jpg,left,883.2350000011502,false,high,NA,NA,NA,NA,NA,NA,NA,false
3Lt2Ff2i,3wa2xvdzfpuo2njsi9v42o7kc6t6eh,3r08vxyt7g83a7hidlz4jsa73otw7h,3Lt2Ff2i,2020-0188,2020-06-15,18:17:08,18:37:09,NA,incomplete,41,color,0,left,Green_Triangle_Grid_3.jpg,Green_Star_Chess_1.jpg,Purple_Plus_Dots_3.jpg,right,653.9150000025984,false,high,NA,NA,NA,NA,NA,NA,NA,false
3Lt2Ff2i,3wa2xvdzfpuo2njsi9v42o7kc6t6eh,3r08vxyt7g83a7hidlz4jsa73otw7h,3Lt2Ff2i,2020-0188,2020-06-15,18:17:08,18:37:09,NA,incomplete,42,color,1,left,Purple_Triangle_Stripes_3.jpg,Purple_Plus_Chess_2.jpg,Blue_Circle_Dots_3.jpg,right,643.4149999986403,false,high,NA,NA,NA,NA,NA,NA,NA,false
3Lt2Ff2i,3wa2xvdzfpuo2njsi9v42o7kc6t6eh,3r08vxyt7g83a7hidlz4jsa73otw7h,3Lt2Ff2i,2020-0188,2020-06-15,18:17:08,18:37:09,NA,incomplete,43,color,1,right,Green_Circle_Grid_4.jpg,Blue_Star_Chess_4.jpg,Green_Plus_Dots_1.jpg,right,729.8650000011548,true,high,NA,NA,NA,NA,NA,NA,NA,false
3Lt2Ff2i,3wa2xvdzfpuo2njsi9v42o7kc6t6eh,3r08vxyt7g83a7hidlz4jsa73otw7h,3Lt2Ff2i,2020-0188,2020-06-15,18:17:08,18:37:09,NA,incomplete,44,color,0,left,Blue_Circle_Chess_4.jpg,Blue_Star_Dots_2.jpg,Green_Triangle_Grid_4.jpg,left,670.0200000050245,true,high,NA,NA,NA,NA,NA,NA,NA,false
3Lt2Ff2i,3wa2xvdzfpuo2njsi9v42o7kc6t6eh,3r08vxyt7g83a7hidlz4jsa73otw7h,3Lt2Ff2i,2020-0188,2020-06-15,18:17:08,18:37:09,NA,incomplete,45,color,1,right,Purple_Circle_Dots_4.jpg,Green_Triangle_Chess_4.jpg,Purple_Plus_Grid_3.jpg,right,676.6900000075111,true,high,NA,NA,NA,NA,NA,NA,NA,false
3Lt2Ff2i,3wa2xvdzfpuo2njsi9v42o7kc6t6eh,3r08vxyt7g83a7hidlz4jsa73otw7h,3Lt2Ff2i,2020-0188,2020-06-15,18:17:08,18:37:09,NA,incomplete,46,color,1,left,Green_Star_Chess_1.jpg,Green_Circle_Dots_2.jpg,Purple_Plus_Stripes_1.jpg,left,741.5400000027148,true,high,NA,NA,NA,NA,NA,NA,NA,false
3Lt2Ff2i,3wa2xvdzfpuo2njsi9v42o7kc6t6eh,3r08vxyt7g83a7hidlz4jsa73otw7h,3Lt2Ff2i,2020-0188,2020-06-15,18:17:08,18:37:09,NA,incomplete,47,color,1,right,Purple_Triangle_Grid_4.jpg,Blue_Star_Chess_4.jpg,Purple_Circle_Dots_2.jpg,right,693.9949999941746,true,high,NA,NA,NA,NA,NA,NA,NA,false
3Lt2Ff2i,3wa2xvdzfpuo2njsi9v42o7kc6t6eh,3r08vxyt7g83a7hidlz4jsa73otw7h,3Lt2Ff2i,2020-0188,2020-06-15,18:17:08,18:37:09,NA,incomplete,48,color,1,left,Purple_Plus_Chess_4.jpg,Purple_Triangle_Dots_3.jpg,Green_Circle_Grid_4.jpg,left,608.6800000048243,true,high,NA,NA,NA,NA,NA,NA,NA,false
3Lt2Ff2i,3wa2xvdzfpuo2njsi9v42o7kc6t6eh,3r08vxyt7g83a7hidlz4jsa73otw7h,3Lt2Ff2i,2020-0188,2020-06-15,18:17:08,18:37:09,NA,incomplete,49,color,1,right,Purple_Star_Stripes_4.jpg,Green_Plus_Chess_4.jpg,Purple_Circle_Grid_2.jpg,right,583.1049999978859,true,high,NA,NA,NA,NA,NA,NA,NA,false
3Lt2Ff2i,3wa2xvdzfpuo2njsi9v42o7kc6t6eh,3r08vxyt7g83a7hidlz4jsa73otw7h,3Lt2Ff2i,2020-0188,2020-06-15,18:17:08,18:37:09,NA,incomplete,50,number,1,left,Green_Star_Grid_1.jpg,Blue_Plus_Chess_1.jpg,Green_Triangle_Stripes_3.jpg,right,631.165000013425,false,high,NA,NA,NA,NA,NA,NA,NA,false
3Lt2Ff2i,3wa2xvdzfpuo2njsi9v42o7kc6t6eh,3r08vxyt7g83a7hidlz4jsa73otw7h,3Lt2Ff2i,2020-0188,2020-06-15,18:17:08,18:37:09,NA,incomplete,51,number,1,left,Blue_Circle_Grid_1.jpg,Green_Star_Dots_1.jpg,Blue_Triangle_Chess_2.jpg,left,717.1450000023469,true,high,NA,NA,NA,NA,NA,NA,NA,false
3Lt2Ff2i,3wa2xvdzfpuo2njsi9v42o7kc6t6eh,3r08vxyt7g83a7hidlz4jsa73otw7h,3Lt2Ff2i,2020-0188,2020-06-15,18:17:08,18:37:09,NA,incomplete,52,number,1,right,Green_Plus_Stripes_4.jpg,Green_Circle_Chess_1.jpg,Purple_Triangle_Grid_4.jpg,right,693.8850000005914,true,high,NA,NA,NA,NA,NA,NA,NA,false
3Lt2Ff2i,3wa2xvdzfpuo2njsi9v42o7kc6t6eh,3r08vxyt7g83a7hidlz4jsa73otw7h,3Lt2Ff2i,2020-0188,2020-06-15,18:17:08,18:37:09,NA,incomplete,53,number,1,left,Red_Plus_Chess_1.jpg,Blue_Circle_Dots_1.jpg,Red_Triangle_Grid_3.jpg,left,847.8000000031898,true,high,NA,NA,NA,NA,NA,NA,NA,false
3Lt2Ff2i,3wa2xvdzfpuo2njsi9v42o7kc6t6eh,3r08vxyt7g83a7hidlz4jsa73otw7h,3Lt2Ff2i,2020-0188,2020-06-15,18:17:08,18:37:09,NA,incomplete,54,number,1,right,Red_Triangle_Grid_1.jpg,Red_Circle_Stripes_4.jpg,Blue_Plus_Chess_1.jpg,right,771.5699999971548,true,high,NA,NA,NA,NA,NA,NA,NA,false
3Lt2Ff2i,3wa2xvdzfpuo2njsi9v42o7kc6t6eh,3r08vxyt7g83a7hidlz4jsa73otw7h,3Lt2Ff2i,2020-0188,2020-06-15,18:17:08,18:37:09,NA,incomplete,55,number,0,right,Red_Triangle_Grid_3.jpg,Red_Star_Chess_4.jpg,Purple_Plus_Dots_3.jpg,right,816.8700000096578,true,high,NA,NA,NA,NA,NA,NA,NA,false
3Lt2Ff2i,3wa2xvdzfpuo2njsi9v42o7kc6t6eh,3r08vxyt7g83a7hidlz4jsa73otw7h,3Lt2Ff2i,2020-0188,2020-06-15,18:17:08,18:37:09,NA,incomplete,56,number,1,right,Red_Circle_Grid_4.jpg,Red_Triangle_Stripes_3.jpg,Green_Star_Dots_4.jpg,right,779.6550000057323,true,high,NA,NA,NA,NA,NA,NA,NA,false
3Lt2Ff2i,3wa2xvdzfpuo2njsi9v42o7kc6t6eh,3r08vxyt7g83a7hidlz4jsa73otw7h,3Lt2Ff2i,2020-0188,2020-06-15,18:17:08,18:37:09,NA,incomplete,57,number,1,left,Red_Triangle_Dots_4.jpg,Green_Star_Grid_4.jpg,Red_Circle_Chess_1.jpg,left,656.6600000078324,true,high,NA,NA,NA,NA,NA,NA,NA,false
3Lt2Ff2i,3wa2xvdzfpuo2njsi9v42o7kc6t6eh,3r08vxyt7g83a7hidlz4jsa73otw7h,3Lt2Ff2i,2020-0188,2020-06-15,18:17:08,18:37:09,NA,incomplete,58,number,1,left,Blue_Star_Dots_2.jpg,Green_Triangle_Stripes_2.jpg,Blue_Plus_Chess_3.jpg,left,910.3549999999814,true,high,NA,NA,NA,NA,NA,NA,NA,false
3Lt2Ff2i,3wa2xvdzfpuo2njsi9v42o7kc6t6eh,3r08vxyt7g83a7hidlz4jsa73otw7h,3Lt2Ff2i,2020-0188,2020-06-15,18:17:08,18:37:09,NA,incomplete,59,number,1,right,Purple_Plus_Dots_1.jpg,Purple_Star_Grid_4.jpg,Red_Triangle_Stripes_1.jpg,right,850.3950000012992,true,high,NA,NA,NA,NA,NA,NA,NA,false
3Lt2Ff2i,3wa2xvdzfpuo2njsi9v42o7kc6t6eh,3r08vxyt7g83a7hidlz4jsa73otw7h,3Lt2Ff2i,2020-0188,2020-06-15,18:17:08,18:37:09,NA,incomplete,60,color,1,right,Blue_Triangle_Dots_1.jpg,Green_Circle_Stripes_1.jpg,Blue_Plus_Chess_2.jpg,left,647.080000009737,false,high,NA,NA,NA,NA,NA,NA,NA,false
3Lt2Ff2i,3wa2xvdzfpuo2njsi9v42o7kc6t6eh,3r08vxyt7g83a7hidlz4jsa73otw7h,3Lt2Ff2i,2020-0188,2020-06-15,18:17:08,18:37:09,NA,incomplete,61,color,1,right,Red_Star_Dots_2.jpg,Purple_Triangle_Chess_2.jpg,Red_Plus_Grid_1.jpg,right,726.6400000080466,true,high,NA,NA,NA,NA,NA,NA,NA,false
3Lt2Ff2i,3wa2xvdzfpuo2njsi9v42o7kc6t6eh,3r08vxyt7g83a7hidlz4jsa73otw7h,3Lt2Ff2i,2020-0188,2020-06-15,18:17:08,18:37:09,NA,incomplete,62,color,0,left,Purple_Star_Chess_2.jpg,Purple_Triangle_Stripes_4.jpg,Red_Circle_Grid_2.jpg,left,630.2049999940209,true,high,NA,NA,NA,NA,NA,NA,NA,false
3Lt2Ff2i,3wa2xvdzfpuo2njsi9v42o7kc6t6eh,3r08vxyt7g83a7hidlz4jsa73otw7h,3Lt2Ff2i,2020-0188,2020-06-15,18:17:08,18:37:09,NA,incomplete,63,color,1,left,Purple_Triangle_Grid_4.jpg,Purple_Plus_Chess_2.jpg,Green_Circle_Stripes_4.jpg,left,612.089999995078,true,high,NA,NA,NA,NA,NA,NA,NA,false
3Lt2Ff2i,3wa2xvdzfpuo2njsi9v42o7kc6t6eh,3r08vxyt7g83a7hidlz4jsa73otw7h,3Lt2Ff2i,2020-0188,2020-06-15,18:17:08,18:37:09,NA,incomplete,64,color,1,right,Blue_Plus_Stripes_2.jpg,Green_Triangle_Grid_2.jpg,Blue_Circle_Chess_4.jpg,right,667.8799999936018,true,high,NA,NA,NA,NA,NA,NA,NA,false
3Lt2Ff2i,3wa2xvdzfpuo2njsi9v42o7kc6t6eh,3r08vxyt7g83a7hidlz4jsa73otw7h,3Lt2Ff2i,2020-0188,2020-06-15,18:17:08,18:37:09,NA,incomplete,65,color,1,left,Blue_Plus_Stripes_3.jpg,Blue_Triangle_Chess_4.jpg,Green_Star_Grid_3.jpg,left,653.2049999950686,true,high,NA,NA,NA,NA,NA,NA,NA,false
3Lt2Ff2i,3wa2xvdzfpuo2njsi9v42o7kc6t6eh,3r08vxyt7g83a7hidlz4jsa73otw7h,3Lt2Ff2i,2020-0188,2020-06-15,18:17:08,18:37:09,NA,incomplete,66,color,1,left,Green_Triangle_Stripes_3.jpg,Green_Plus_Chess_1.jpg,Purple_Circle_Dots_3.jpg,left,651.0050000069896,true,high,NA,NA,NA,NA,NA,NA,NA,false
3Lt2Ff2i,3wa2xvdzfpuo2njsi9v42o7kc6t6eh,3r08vxyt7g83a7hidlz4jsa73otw7h,3Lt2Ff2i,2020-0188,2020-06-15,18:17:08,18:37:09,NA,incomplete,67,color,1,left,Blue_Triangle_Chess_4.jpg,Blue_Circle_Stripes_1.jpg,Purple_Star_Dots_4.jpg,left,1070.5799999996088,true,high,NA,NA,NA,NA,NA,NA,NA,false
3Lt2Ff2i,3wa2xvdzfpuo2njsi9v42o7kc6t6eh,3r08vxyt7g83a7hidlz4jsa73otw7h,3Lt2Ff2i,2020-0188,2020-06-15,18:17:08,18:37:09,NA,incomplete,68,color,1,right,Purple_Triangle_Dots_2.jpg,Red_Circle_Stripes_2.jpg,Purple_Star_Grid_3.jpg,right,746.659999989788,true,high,NA,NA,NA,NA,NA,NA,NA,false
3Lt2Ff2i,3wa2xvdzfpuo2njsi9v42o7kc6t6eh,3r08vxyt7g83a7hidlz4jsa73otw7h,3Lt2Ff2i,2020-0188,2020-06-15,18:17:08,18:37:09,NA,incomplete,69,color,1,left,Red_Plus_Grid_3.jpg,Red_Star_Chess_2.jpg,Purple_Circle_Stripes_3.jpg,left,567.2749999939697,true,high,NA,NA,NA,NA,NA,NA,NA,false
3Lt2Ff2i,3wa2xvdzfpuo2njsi9v42o7kc6t6eh,3r08vxyt7g83a7hidlz4jsa73otw7h,3Lt2Ff2i,2020-0188,2020-06-15,18:17:08,18:37:09,NA,incomplete,70,number,1,left,Red_Circle_Grid_2.jpg,Purple_Triangle_Dots_2.jpg,Red_Plus_Chess_1.jpg,right,641.3250000041444,false,high,NA,NA,NA,NA,NA,NA,NA,false
3Lt2Ff2i,3wa2xvdzfpuo2njsi9v42o7kc6t6eh,3r08vxyt7g83a7hidlz4jsa73otw7h,3Lt2Ff2i,2020-0188,2020-06-15,18:17:08,18:37:09,NA,incomplete,71,number,1,left,Green_Plus_Dots_4.jpg,Purple_Circle_Grid_4.jpg,Green_Triangle_Stripes_2.jpg,right,688.1200000061654,false,high,NA,NA,NA,NA,NA,NA,NA,false
3Lt2Ff2i,3wa2xvdzfpuo2njsi9v42o7kc6t6eh,3r08vxyt7g83a7hidlz4jsa73otw7h,3Lt2Ff2i,2020-0188,2020-06-15,18:17:08,18:37:09,NA,incomplete,72,number,1,right,Blue_Plus_Stripes_2.jpg,Blue_Circle_Dots_3.jpg,Purple_Triangle_Grid_2.jpg,right,762.1749999962049,true,high,NA,NA,NA,NA,NA,NA,NA,false
3Lt2Ff2i,3wa2xvdzfpuo2njsi9v42o7kc6t6eh,3r08vxyt7g83a7hidlz4jsa73otw7h,3Lt2Ff2i,2020-0188,2020-06-15,18:17:08,18:37:09,NA,incomplete,73,number,1,left,Red_Circle_Chess_4.jpg,Purple_Triangle_Grid_4.jpg,Red_Star_Dots_1.jpg,left,606.3549999962561,true,high,NA,NA,NA,NA,NA,NA,NA,false
3Lt2Ff2i,3wa2xvdzfpuo2njsi9v42o7kc6t6eh,3r08vxyt7g83a7hidlz4jsa73otw7h,3Lt2Ff2i,2020-0188,2020-06-15,18:17:08,18:37:09,NA,incomplete,74,number,1,left,Purple_Circle_Dots_1.jpg,Red_Triangle_Stripes_1.jpg,Purple_Star_Grid_4.jpg,left,687.0149999886053,true,high,NA,NA,NA,NA,NA,NA,NA,false
3Lt2Ff2i,3wa2xvdzfpuo2njsi9v42o7kc6t6eh,3r08vxyt7g83a7hidlz4jsa73otw7h,3Lt2Ff2i,2020-0188,2020-06-15,18:17:08,18:37:09,NA,incomplete,75,number,1,left,Green_Plus_Dots_3.jpg,Red_Triangle_Grid_3.jpg,Green_Star_Stripes_4.jpg,left,1033.0899999971734,true,high,NA,NA,NA,NA,NA,NA,NA,false
3Lt2Ff2i,3wa2xvdzfpuo2njsi9v42o7kc6t6eh,3r08vxyt7g83a7hidlz4jsa73otw7h,3Lt2Ff2i,2020-0188,2020-06-15,18:17:08,18:37:09,NA,incomplete,76,number,1,left,Purple_Circle_Dots_3.jpg,Red_Star_Grid_3.jpg,Purple_Triangle_Stripes_4.jpg,left,663.7599999958184,true,high,NA,NA,NA,NA,NA,NA,NA,false
3Lt2Ff2i,3wa2xvdzfpuo2njsi9v42o7kc6t6eh,3r08vxyt7g83a7hidlz4jsa73otw7h,3Lt2Ff2i,2020-0188,2020-06-15,18:17:08,18:37:09,NA,incomplete,77,number,1,left,Purple_Star_Stripes_1.jpg,Green_Circle_Dots_1.jpg,Purple_Plus_Grid_2.jpg,left,642.0899999939138,true,high,NA,NA,NA,NA,NA,NA,NA,false
3Lt2Ff2i,3wa2xvdzfpuo2njsi9v42o7kc6t6eh,3r08vxyt7g83a7hidlz4jsa73otw7h,3Lt2Ff2i,2020-0188,2020-06-15,18:17:08,18:37:09,NA,incomplete,78,number,1,right,Green_Circle_Dots_4.jpg,Green_Triangle_Grid_3.jpg,Purple_Star_Stripes_4.jpg,right,757.3000000120373,true,high,NA,NA,NA,NA,NA,NA,NA,false
3Lt2Ff2i,3wa2xvdzfpuo2njsi9v42o7kc6t6eh,3r08vxyt7g83a7hidlz4jsa73otw7h,3Lt2Ff2i,2020-0188,2020-06-15,18:17:08,18:37:09,NA,incomplete,79,number,1,left,Blue_Circle_Grid_1.jpg,Purple_Star_Dots_1.jpg,Blue_Triangle_Stripes_4.jpg,left,563.5250000050291,true,high,NA,NA,NA,NA,NA,NA,NA,false
3Lt2Ff2i,3wa2xvdzfpuo2njsi9v42o7kc6t6eh,3r08vxyt7g83a7hidlz4jsa73otw7h,3Lt2Ff2i,2020-0188,2020-06-15,18:17:08,18:37:09,NA,incomplete,80,color,1,right,Purple_Triangle_Stripes_2.jpg,Green_Plus_Grid_2.jpg,Purple_Star_Chess_4.jpg,left,736.6699999984121,false,high,NA,NA,NA,NA,NA,NA,NA,false
3Lt2Ff2i,3wa2xvdzfpuo2njsi9v42o7kc6t6eh,3r08vxyt7g83a7hidlz4jsa73otw7h,3Lt2Ff2i,2020-0188,2020-06-15,18:17:08,18:37:09,NA,incomplete,81,color,1,right,Blue_Plus_Stripes_3.jpg,Purple_Circle_Chess_3.jpg,Blue_Triangle_Grid_4.jpg,right,854.8499999888008,true,high,NA,NA,NA,NA,NA,NA,NA,false
3Lt2Ff2i,3wa2xvdzfpuo2njsi9v42o7kc6t6eh,3r08vxyt7g83a7hidlz4jsa73otw7h,3Lt2Ff2i,2020-0188,2020-06-15,18:17:08,18:37:09,NA,incomplete,82,color,1,right,Blue_Triangle_Dots_2.jpg,Red_Star_Stripes_2.jpg,Blue_Circle_Grid_3.jpg,right,592.6750000071479,true,high,NA,NA,NA,NA,NA,NA,NA,false
3Lt2Ff2i,3wa2xvdzfpuo2njsi9v42o7kc6t6eh,3r08vxyt7g83a7hidlz4jsa73otw7h,3Lt2Ff2i,2020-0188,2020-06-15,18:17:08,18:37:09,NA,incomplete,83,color,1,right,Green_Circle_Chess_4.jpg,Red_Plus_Dots_4.jpg,Green_Triangle_Grid_3.jpg,right,728.4649999928661,true,high,NA,NA,NA,NA,NA,NA,NA,false
3Lt2Ff2i,3wa2xvdzfpuo2njsi9v42o7kc6t6eh,3r08vxyt7g83a7hidlz4jsa73otw7h,3Lt2Ff2i,2020-0188,2020-06-15,18:17:08,18:37:09,NA,incomplete,84,color,1,left,Green_Star_Dots_3.jpg,Green_Triangle_Chess_2.jpg,Purple_Plus_Grid_3.jpg,left,803.0449999932898,true,high,NA,NA,NA,NA,NA,NA,NA,false
3Lt2Ff2i,3wa2xvdzfpuo2njsi9v42o7kc6t6eh,3r08vxyt7g83a7hidlz4jsa73otw7h,3Lt2Ff2i,2020-0188,2020-06-15,18:17:08,18:37:09,NA,incomplete,85,color,1,right,Green_Triangle_Chess_4.jpg,Blue_Circle_Stripes_4.jpg,Green_Star_Dots_1.jpg,right,588.4249999944586,true,high,NA,NA,NA,NA,NA,NA,NA,false
3Lt2Ff2i,3wa2xvdzfpuo2njsi9v42o7kc6t6eh,3r08vxyt7g83a7hidlz4jsa73otw7h,3Lt2Ff2i,2020-0188,2020-06-15,18:17:08,18:37:09,NA,incomplete,86,color,0,right,Red_Circle_Stripes_4.jpg,Purple_Star_Grid_4.jpg,Red_Triangle_Chess_3.jpg,right,541.4650000020629,true,high,NA,NA,NA,NA,NA,NA,NA,false
3Lt2Ff2i,3wa2xvdzfpuo2njsi9v42o7kc6t6eh,3r08vxyt7g83a7hidlz4jsa73otw7h,3Lt2Ff2i,2020-0188,2020-06-15,18:17:08,18:37:09,NA,incomplete,87,color,1,right,Green_Triangle_Stripes_4.jpg,Red_Star_Dots_4.jpg,Green_Circle_Chess_1.jpg,right,653.9700000139419,true,high,NA,NA,NA,NA,NA,NA,NA,false
3Lt2Ff2i,3wa2xvdzfpuo2njsi9v42o7kc6t6eh,3r08vxyt7g83a7hidlz4jsa73otw7h,3Lt2Ff2i,2020-0188,2020-06-15,18:17:08,18:37:09,NA,incomplete,88,color,0,right,Red_Circle_Stripes_1.jpg,Purple_Star_Chess_1.jpg,Red_Triangle_Grid_4.jpg,right,651.9600000028731,true,high,NA,NA,NA,NA,NA,NA,NA,false
3Lt2Ff2i,3wa2xvdzfpuo2njsi9v42o7kc6t6eh,3r08vxyt7g83a7hidlz4jsa73otw7h,3Lt2Ff2i,2020-0188,2020-06-15,18:17:08,18:37:09,NA,incomplete,89,color,1,right,Green_Circle_Dots_2.jpg,Purple_Triangle_Chess_2.jpg,Green_Star_Stripes_4.jpg,left,677.9250000108732,false,high,NA,NA,NA,NA,NA,NA,NA,false
3Lt2Ff2i,3wa2xvdzfpuo2njsi9v42o7kc6t6eh,3r08vxyt7g83a7hidlz4jsa73otw7h,3Lt2Ff2i,2020-0188,2020-06-15,18:17:08,18:37:09,NA,incomplete,90,number,1,right,Purple_Triangle_Grid_4.jpg,Purple_Star_Dots_3.jpg,Red_Circle_Chess_4.jpg,left,816.5100000042003,false,high,NA,NA,NA,NA,NA,NA,NA,false
3Lt2Ff2i,3wa2xvdzfpuo2njsi9v42o7kc6t6eh,3r08vxyt7g83a7hidlz4jsa73otw7h,3Lt2Ff2i,2020-0188,2020-06-15,18:17:08,18:37:09,NA,incomplete,91,number,1,left,Purple_Plus_Chess_2.jpg,Red_Triangle_Dots_2.jpg,Purple_Circle_Grid_1.jpg,left,788.0549999972573,true,high,NA,NA,NA,NA,NA,NA,NA,false
3Lt2Ff2i,3wa2xvdzfpuo2njsi9v42o7kc6t6eh,3r08vxyt7g83a7hidlz4jsa73otw7h,3Lt2Ff2i,2020-0188,2020-06-15,18:17:08,18:37:09,NA,incomplete,92,number,0,left,Red_Circle_Dots_4.jpg,Purple_Star_Chess_4.jpg,Red_Plus_Stripes_2.jpg,left,706.3449999986915,true,high,NA,NA,NA,NA,NA,NA,NA,false
3Lt2Ff2i,3wa2xvdzfpuo2njsi9v42o7kc6t6eh,3r08vxyt7g83a7hidlz4jsa73otw7h,3Lt2Ff2i,2020-0188,2020-06-15,18:17:08,18:37:09,NA,incomplete,93,number,0,right,Blue_Plus_Dots_3.jpg,Blue_Triangle_Stripes_1.jpg,Purple_Circle_Chess_3.jpg,right,886.3199999905191,true,high,NA,NA,NA,NA,NA,NA,NA,false
3Lt2Ff2i,3wa2xvdzfpuo2njsi9v42o7kc6t6eh,3r08vxyt7g83a7hidlz4jsa73otw7h,3Lt2Ff2i,2020-0188,2020-06-15,18:17:08,18:37:09,NA,incomplete,94,number,0,right,Green_Triangle_Chess_4.jpg,Green_Star_Grid_1.jpg,Purple_Plus_Stripes_4.jpg,left,587.5649999943562,false,high,NA,NA,NA,NA,NA,NA,NA,false
3Lt2Ff2i,3wa2xvdzfpuo2njsi9v42o7kc6t6eh,3r08vxyt7g83a7hidlz4jsa73otw7h,3Lt2Ff2i,2020-0188,2020-06-15,18:17:08,18:37:09,NA,incomplete,95,number,1,left,Blue_Plus_Grid_4.jpg,Red_Triangle_Dots_4.jpg,Blue_Star_Chess_3.jpg,right,599.6350000059465,false,high,NA,NA,NA,NA,NA,NA,NA,false
3Lt2Ff2i,3wa2xvdzfpuo2njsi9v42o7kc6t6eh,3r08vxyt7g83a7hidlz4jsa73otw7h,3Lt2Ff2i,2020-0188,2020-06-15,18:17:08,18:37:09,NA,incomplete,96,number,0,right,Red_Circle_Dots_1.jpg,Red_Plus_Grid_2.jpg,Green_Triangle_Stripes_1.jpg,left,765.5899999954272,false,high,NA,NA,NA,NA,NA,NA,NA,false
3Lt2Ff2i,3wa2xvdzfpuo2njsi9v42o7kc6t6eh,3r08vxyt7g83a7hidlz4jsa73otw7h,3Lt2Ff2i,2020-0188,2020-06-15,18:17:08,18:37:09,NA,incomplete,97,number,1,right,Green_Star_Grid_1.jpg,Green_Circle_Chess_4.jpg,Purple_Triangle_Dots_1.jpg,left,525.3050000028452,false,high,NA,NA,NA,NA,NA,NA,NA,false
3Lt2Ff2i,3wa2xvdzfpuo2njsi9v42o7kc6t6eh,3r08vxyt7g83a7hidlz4jsa73otw7h,3Lt2Ff2i,2020-0188,2020-06-15,18:17:08,18:37:09,NA,incomplete,98,number,0,left,Green_Star_Chess_1.jpg,Blue_Plus_Dots_1.jpg,Green_Triangle_Grid_2.jpg,right,833.0500000010943,false,high,NA,NA,NA,NA,NA,NA,NA,false
3Lt2Ff2i,3wa2xvdzfpuo2njsi9v42o7kc6t6eh,3r08vxyt7g83a7hidlz4jsa73otw7h,3Lt2Ff2i,2020-0188,2020-06-15,18:17:08,18:37:09,NA,incomplete,99,number,1,left,Blue_Plus_Dots_1.jpg,Red_Triangle_Stripes_1.jpg,Blue_Circle_Chess_3.jpg,right,650.4700000077719,false,high,NA,NA,NA,NA,NA,NA,NA,false
3Lt2Ff2i,3wa2xvdzfpuo2njsi9v42o7kc6t6eh,3r08vxyt7g83a7hidlz4jsa73otw7h,3Lt2Ff2i,2020-0188,2020-06-15,18:17:08,18:37:09,NA,incomplete,100,color,1,left,Red_Plus_Stripes_2.jpg,Red_Star_Chess_3.jpg,Purple_Circle_Grid_2.jpg,right,1059.1000000131316,false,high,NA,NA,NA,NA,NA,NA,NA,false
3Lt2Ff2i,3wa2xvdzfpuo2njsi9v42o7kc6t6eh,3r08vxyt7g83a7hidlz4jsa73otw7h,3Lt2Ff2i,2020-0188,2020-06-15,18:17:08,18:37:09,NA,incomplete,101,color,1,right,Green_Plus_Dots_2.jpg,Red_Triangle_Grid_2.jpg,Green_Star_Stripes_3.jpg,right,768.2050000003073,true,high,NA,NA,NA,NA,NA,NA,NA,false
3Lt2Ff2i,3wa2xvdzfpuo2njsi9v42o7kc6t6eh,3r08vxyt7g83a7hidlz4jsa73otw7h,3Lt2Ff2i,2020-0188,2020-06-15,18:17:08,18:37:09,NA,incomplete,102,color,1,left,Green_Star_Grid_3.jpg,Green_Circle_Chess_4.jpg,Purple_Plus_Dots_3.jpg,left,618.5899999982212,true,high,NA,NA,NA,NA,NA,NA,NA,false
3Lt2Ff2i,3wa2xvdzfpuo2njsi9v42o7kc6t6eh,3r08vxyt7g83a7hidlz4jsa73otw7h,3Lt2Ff2i,2020-0188,2020-06-15,18:17:08,18:37:09,NA,incomplete,103,color,1,left,Purple_Plus_Dots_3.jpg,Purple_Star_Grid_2.jpg,Blue_Circle_Stripes_3.jpg,left,762.3599999933504,true,high,NA,NA,NA,NA,NA,NA,NA,false
3Lt2Ff2i,3wa2xvdzfpuo2njsi9v42o7kc6t6eh,3r08vxyt7g83a7hidlz4jsa73otw7h,3Lt2Ff2i,2020-0188,2020-06-15,18:17:08,18:37:09,NA,incomplete,104,color,1,right,Green_Triangle_Chess_4.jpg,Purple_Circle_Dots_4.jpg,Green_Star_Stripes_3.jpg,right,632.7149999997346,true,high,NA,NA,NA,NA,NA,NA,NA,false
3Lt2Ff2i,3wa2xvdzfpuo2njsi9v42o7kc6t6eh,3r08vxyt7g83a7hidlz4jsa73otw7h,3Lt2Ff2i,2020-0188,2020-06-15,18:17:08,18:37:09,NA,incomplete,105,color,0,left,Blue_Triangle_Stripes_1.jpg,Blue_Circle_Chess_4.jpg,Red_Plus_Grid_1.jpg,left,540.3500000102213,true,high,NA,NA,NA,NA,NA,NA,NA,false
3Lt2Ff2i,3wa2xvdzfpuo2njsi9v42o7kc6t6eh,3r08vxyt7g83a7hidlz4jsa73otw7h,3Lt2Ff2i,2020-0188,2020-06-15,18:17:08,18:37:09,NA,incomplete,106,color,1,right,Red_Plus_Chess_3.jpg,Blue_Star_Dots_3.jpg,Red_Circle_Stripes_2.jpg,left,685.8749999955762,false,high,NA,NA,NA,NA,NA,NA,NA,false
3Lt2Ff2i,3wa2xvdzfpuo2njsi9v42o7kc6t6eh,3r08vxyt7g83a7hidlz4jsa73otw7h,3Lt2Ff2i,2020-0188,2020-06-15,18:17:08,18:37:09,NA,incomplete,107,color,1,left,Red_Circle_Chess_3.jpg,Red_Plus_Grid_1.jpg,Blue_Star_Dots_3.jpg,left,797.2599999920931,true,high,NA,NA,NA,NA,NA,NA,NA,false
3Lt2Ff2i,3wa2xvdzfpuo2njsi9v42o7kc6t6eh,3r08vxyt7g83a7hidlz4jsa73otw7h,3Lt2Ff2i,2020-0188,2020-06-15,18:17:08,18:37:09,NA,incomplete,108,color,1,left,Green_Triangle_Grid_1.jpg,Green_Star_Stripes_2.jpg,Purple_Plus_Chess_1.jpg,left,646.3050000020303,true,high,NA,NA,NA,NA,NA,NA,NA,false
3Lt2Ff2i,3wa2xvdzfpuo2njsi9v42o7kc6t6eh,3r08vxyt7g83a7hidlz4jsa73otw7h,3Lt2Ff2i,2020-0188,2020-06-15,18:17:08,18:37:09,NA,incomplete,109,color,1,left,Blue_Star_Grid_1.jpg,Blue_Triangle_Dots_2.jpg,Purple_Circle_Chess_1.jpg,left,594.2300000024261,true,high,NA,NA,NA,NA,NA,NA,NA,false
3Lt2Ff2i,3wa2xvdzfpuo2njsi9v42o7kc6t6eh,3r08vxyt7g83a7hidlz4jsa73otw7h,3Lt2Ff2i,2020-0188,2020-06-15,18:17:08,18:37:09,NA,incomplete,110,number,1,right,Red_Star_Stripes_2.jpg,Red_Plus_Chess_1.jpg,Green_Circle_Grid_2.jpg,left,759.6150000026682,false,high,NA,NA,NA,NA,NA,NA,NA,false
3Lt2Ff2i,3wa2xvdzfpuo2njsi9v42o7kc6t6eh,3r08vxyt7g83a7hidlz4jsa73otw7h,3Lt2Ff2i,2020-0188,2020-06-15,18:17:08,18:37:09,NA,incomplete,111,number,1,right,Green_Star_Chess_4.jpg,Green_Triangle_Dots_3.jpg,Blue_Circle_Stripes_4.jpg,right,777.6950000115903,true,high,NA,NA,NA,NA,NA,NA,NA,false
3Lt2Ff2i,3wa2xvdzfpuo2njsi9v42o7kc6t6eh,3r08vxyt7g83a7hidlz4jsa73otw7h,3Lt2Ff2i,2020-0188,2020-06-15,18:17:08,18:37:09,NA,incomplete,112,number,0,right,Purple_Circle_Dots_1.jpg,Purple_Star_Chess_3.jpg,Blue_Plus_Stripes_1.jpg,right,1014.2649999907007,true,high,NA,NA,NA,NA,NA,NA,NA,false
3Lt2Ff2i,3wa2xvdzfpuo2njsi9v42o7kc6t6eh,3r08vxyt7g83a7hidlz4jsa73otw7h,3Lt2Ff2i,2020-0188,2020-06-15,18:17:08,18:37:09,NA,incomplete,113,number,1,left,Purple_Triangle_Chess_3.jpg,Green_Plus_Dots_3.jpg,Purple_Circle_Grid_2.jpg,right,946.364999996149,false,high,NA,NA,NA,NA,NA,NA,NA,false
3Lt2Ff2i,3wa2xvdzfpuo2njsi9v42o7kc6t6eh,3r08vxyt7g83a7hidlz4jsa73otw7h,3Lt2Ff2i,2020-0188,2020-06-15,18:17:08,18:37:09,NA,incomplete,114,number,0,left,Purple_Star_Chess_1.jpg,Blue_Plus_Grid_1.jpg,Purple_Circle_Stripes_3.jpg,left,736.8049999931827,true,high,NA,NA,NA,NA,NA,NA,NA,false
3Lt2Ff2i,3wa2xvdzfpuo2njsi9v42o7kc6t6eh,3r08vxyt7g83a7hidlz4jsa73otw7h,3Lt2Ff2i,2020-0188,2020-06-15,18:17:08,18:37:09,NA,incomplete,115,number,1,right,Red_Triangle_Stripes_4.jpg,Red_Circle_Dots_1.jpg,Green_Star_Grid_4.jpg,right,870.4900000011548,true,high,NA,NA,NA,NA,NA,NA,NA,false
3Lt2Ff2i,3wa2xvdzfpuo2njsi9v42o7kc6t6eh,3r08vxyt7g83a7hidlz4jsa73otw7h,3Lt2Ff2i,2020-0188,2020-06-15,18:17:08,18:37:09,NA,incomplete,116,number,0,left,Red_Circle_Dots_1.jpg,Purple_Plus_Chess_1.jpg,Red_Star_Grid_3.jpg,left,863.1099999911385,true,high,NA,NA,NA,NA,NA,NA,NA,false
3Lt2Ff2i,3wa2xvdzfpuo2njsi9v42o7kc6t6eh,3r08vxyt7g83a7hidlz4jsa73otw7h,3Lt2Ff2i,2020-0188,2020-06-15,18:17:08,18:37:09,NA,incomplete,117,number,1,right,Blue_Plus_Chess_2.jpg,Blue_Triangle_Dots_3.jpg,Green_Circle_Stripes_2.jpg,right,1049.9549999949522,true,high,NA,NA,NA,NA,NA,NA,NA,false
3Lt2Ff2i,3wa2xvdzfpuo2njsi9v42o7kc6t6eh,3r08vxyt7g83a7hidlz4jsa73otw7h,3Lt2Ff2i,2020-0188,2020-06-15,18:17:08,18:37:09,NA,incomplete,118,number,1,left,Red_Star_Stripes_4.jpg,Green_Triangle_Dots_4.jpg,Red_Plus_Grid_3.jpg,left,730.3699999902165,true,high,NA,NA,NA,NA,NA,NA,NA,false
3Lt2Ff2i,3wa2xvdzfpuo2njsi9v42o7kc6t6eh,3r08vxyt7g83a7hidlz4jsa73otw7h,3Lt2Ff2i,2020-0188,2020-06-15,18:17:08,18:37:09,NA,incomplete,119,number,1,right,Red_Triangle_Stripes_4.jpg,Red_Plus_Grid_3.jpg,Green_Star_Dots_4.jpg,right,755.525000000489,true,high,NA,NA,NA,NA,NA,NA,NA,false
3Lt2Ff2i,3wa2xvdzfpuo2njsi9v42o7kc6t6eh,3r08vxyt7g83a7hidlz4jsa73otw7h,3Lt2Ff2i,2020-0188,2020-06-15,18:17:08,18:37:09,NA,incomplete,120,shape,1,left,Green_Plus_Dots_3.jpg,Red_Plus_Chess_2.jpg,Purple_Circle_Dots_1.jpg,NA,NA,NA,high,NA,NA,NA,NA,NA,NA,NA,false
3Lt2Ff2i,3wa2xvdzfpuo2njsi9v42o7kc6t6eh,3r08vxyt7g83a7hidlz4jsa73otw7h,3Lt2Ff2i,2020-0188,2020-06-15,18:17:08,18:37:09,NA,incomplete,121,shape,0,right,Purple_Star_Stripes_1.jpg,Blue_Plus_Stripes_2.jpg,Red_Star_Chess_3.jpg,left,1396.469999992405,false,high,NA,NA,NA,NA,NA,NA,NA,false
3Lt2Ff2i,3wa2xvdzfpuo2njsi9v42o7kc6t6eh,3r08vxyt7g83a7hidlz4jsa73otw7h,3Lt2Ff2i,2020-0188,2020-06-15,18:17:08,18:37:09,NA,incomplete,122,shape,1,left,Purple_Star_Dots_2.jpg,Green_Star_Chess_4.jpg,Blue_Circle_Dots_1.jpg,left,867.2050000022864,true,high,NA,NA,NA,NA,NA,NA,NA,false
3Lt2Ff2i,3wa2xvdzfpuo2njsi9v42o7kc6t6eh,3r08vxyt7g83a7hidlz4jsa73otw7h,3Lt2Ff2i,2020-0188,2020-06-15,18:17:08,18:37:09,NA,incomplete,123,shape,1,right,Purple_Star_Stripes_2.jpg,Blue_Circle_Stripes_1.jpg,Red_Star_Chess_3.jpg,right,787.6649999961955,true,high,NA,NA,NA,NA,NA,NA,NA,false
3Lt2Ff2i,3wa2xvdzfpuo2njsi9v42o7kc6t6eh,3r08vxyt7g83a7hidlz4jsa73otw7h,3Lt2Ff2i,2020-0188,2020-06-15,18:17:08,18:37:09,NA,incomplete,124,shape,1,right,Red_Circle_Chess_1.jpg,Green_Triangle_Chess_4.jpg,Blue_Circle_Dots_3.jpg,right,908.754999996745,true,high,NA,NA,NA,NA,NA,NA,NA,false
3Lt2Ff2i,3wa2xvdzfpuo2njsi9v42o7kc6t6eh,3r08vxyt7g83a7hidlz4jsa73otw7h,3Lt2Ff2i,2020-0188,2020-06-15,18:17:08,18:37:09,NA,incomplete,125,shape,1,right,Blue_Circle_Stripes_3.jpg,Green_Triangle_Stripes_1.jpg,Red_Circle_Grid_2.jpg,right,616.4549999957671,true,high,NA,NA,NA,NA,NA,NA,NA,false
3Lt2Ff2i,3wa2xvdzfpuo2njsi9v42o7kc6t6eh,3r08vxyt7g83a7hidlz4jsa73otw7h,3Lt2Ff2i,2020-0188,2020-06-15,18:17:08,18:37:09,NA,incomplete,126,shape,1,left,Green_Plus_Grid_1.jpg,Purple_Plus_Chess_4.jpg,Blue_Triangle_Grid_3.jpg,left,655.9199999901466,true,high,NA,NA,NA,NA,NA,NA,NA,false
3Lt2Ff2i,3wa2xvdzfpuo2njsi9v42o7kc6t6eh,3r08vxyt7g83a7hidlz4jsa73otw7h,3Lt2Ff2i,2020-0188,2020-06-15,18:17:08,18:37:09,NA,incomplete,127,shape,1,right,Red_Triangle_Stripes_2.jpg,Blue_Plus_Stripes_3.jpg,Green_Triangle_Dots_4.jpg,right,736.720000000787,true,high,NA,NA,NA,NA,NA,NA,NA,false
3Lt2Ff2i,3wa2xvdzfpuo2njsi9v42o7kc6t6eh,3r08vxyt7g83a7hidlz4jsa73otw7h,3Lt2Ff2i,2020-0188,2020-06-15,18:17:08,18:37:09,NA,incomplete,128,shape,0,right,Purple_Star_Stripes_2.jpg,Green_Triangle_Stripes_1.jpg,Red_Star_Grid_4.jpg,right,760.6100000120932,true,high,NA,NA,NA,NA,NA,NA,NA,false
3Lt2Ff2i,3wa2xvdzfpuo2njsi9v42o7kc6t6eh,3r08vxyt7g83a7hidlz4jsa73otw7h,3Lt2Ff2i,2020-0188,2020-06-15,18:17:08,18:37:09,NA,incomplete,129,shape,1,left,Purple_Star_Grid_3.jpg,Blue_Star_Dots_1.jpg,Red_Plus_Grid_4.jpg,left,923.0949999910081,true,high,NA,NA,NA,NA,NA,NA,NA,false
3Lt2Ff2i,3wa2xvdzfpuo2njsi9v42o7kc6t6eh,3r08vxyt7g83a7hidlz4jsa73otw7h,3Lt2Ff2i,2020-0188,2020-06-15,18:17:08,18:37:09,NA,incomplete,130,shape,1,right,Red_Circle_Dots_1.jpg,Green_Plus_Dots_3.jpg,Purple_Circle_Grid_4.jpg,right,747.1749999967869,true,high,NA,NA,NA,NA,NA,NA,NA,false
3Lt2Ff2i,3wa2xvdzfpuo2njsi9v42o7kc6t6eh,3r08vxyt7g83a7hidlz4jsa73otw7h,3Lt2Ff2i,2020-0188,2020-06-15,18:17:08,18:37:09,NA,incomplete,131,shape,1,left,Purple_Circle_Stripes_2.jpg,Red_Circle_Grid_4.jpg,Green_Triangle_Stripes_1.jpg,left,622.8350000019418,true,high,NA,NA,NA,NA,NA,NA,NA,false
3Lt2Ff2i,3wa2xvdzfpuo2njsi9v42o7kc6t6eh,3r08vxyt7g83a7hidlz4jsa73otw7h,3Lt2Ff2i,2020-0188,2020-06-15,18:17:08,18:37:09,NA,incomplete,132,shape,1,right,Blue_Star_Dots_1.jpg,Red_Triangle_Dots_2.jpg,Green_Star_Chess_3.jpg,right,676.4399999956368,true,high,NA,NA,NA,NA,NA,NA,NA,false
3Lt2Ff2i,3wa2xvdzfpuo2njsi9v42o7kc6t6eh,3r08vxyt7g83a7hidlz4jsa73otw7h,3Lt2Ff2i,2020-0188,2020-06-15,18:17:08,18:37:09,NA,incomplete,133,shape,1,left,Green_Star_Chess_4.jpg,Red_Star_Stripes_2.jpg,Purple_Plus_Chess_1.jpg,left,659.8450000019511,true,high,NA,NA,NA,NA,NA,NA,NA,false
3Lt2Ff2i,3wa2xvdzfpuo2njsi9v42o7kc6t6eh,3r08vxyt7g83a7hidlz4jsa73otw7h,3Lt2Ff2i,2020-0188,2020-06-15,18:17:08,18:37:09,NA,incomplete,134,shape,1,right,Green_Star_Stripes_4.jpg,Blue_Circle_Stripes_3.jpg,Purple_Star_Chess_2.jpg,right,641.3200000097277,true,high,NA,NA,NA,NA,NA,NA,NA,false
3Lt2Ff2i,3wa2xvdzfpuo2njsi9v42o7kc6t6eh,3r08vxyt7g83a7hidlz4jsa73otw7h,3Lt2Ff2i,2020-0188,2020-06-15,18:17:08,18:37:09,NA,incomplete,135,shape,1,left,Red_Circle_Dots_4.jpg,Purple_Circle_Grid_2.jpg,Blue_Star_Dots_3.jpg,left,702.0699999993667,true,high,NA,NA,NA,NA,NA,NA,NA,false
3Lt2Ff2i,3wa2xvdzfpuo2njsi9v42o7kc6t6eh,3r08vxyt7g83a7hidlz4jsa73otw7h,3Lt2Ff2i,2020-0188,2020-06-15,18:17:08,18:37:09,NA,incomplete,136,shape,1,left,Blue_Triangle_Grid_1.jpg,Green_Triangle_Chess_4.jpg,Purple_Star_Grid_3.jpg,left,814.3349999882048,true,high,NA,NA,NA,NA,NA,NA,NA,false
3Lt2Ff2i,3wa2xvdzfpuo2njsi9v42o7kc6t6eh,3r08vxyt7g83a7hidlz4jsa73otw7h,3Lt2Ff2i,2020-0188,2020-06-15,18:17:08,18:37:09,NA,incomplete,137,shape,0,left,Red_Circle_Chess_2.jpg,Purple_Circle_Dots_3.jpg,Blue_Plus_Chess_1.jpg,left,733.4849999897415,true,high,NA,NA,NA,NA,NA,NA,NA,false
3Lt2Ff2i,3wa2xvdzfpuo2njsi9v42o7kc6t6eh,3r08vxyt7g83a7hidlz4jsa73otw7h,3Lt2Ff2i,2020-0188,2020-06-15,18:17:08,18:37:09,NA,incomplete,138,shape,1,right,Green_Circle_Chess_1.jpg,Purple_Plus_Chess_3.jpg,Blue_Circle_Grid_4.jpg,right,899.0199999971082,true,high,NA,NA,NA,NA,NA,NA,NA,false
3Lt2Ff2i,3wa2xvdzfpuo2njsi9v42o7kc6t6eh,3r08vxyt7g83a7hidlz4jsa73otw7h,3Lt2Ff2i,2020-0188,2020-06-15,18:17:08,18:37:09,NA,incomplete,139,shape,0,left,Green_Circle_Grid_4.jpg,Red_Circle_Dots_2.jpg,Purple_Triangle_Grid_3.jpg,left,727.1099999925354,true,high,NA,NA,NA,NA,NA,NA,NA,false
3Lt2Ff2i,3wa2xvdzfpuo2njsi9v42o7kc6t6eh,3r08vxyt7g83a7hidlz4jsa73otw7h,3Lt2Ff2i,2020-0188,2020-06-15,18:17:08,18:37:09,NA,incomplete,140,filling,1,right,Purple_Circle_Dots_4.jpg,Blue_Circle_Chess_2.jpg,Red_Star_Dots_3.jpg,left,704.8400000057882,false,high,NA,NA,NA,NA,NA,NA,NA,false
3Lt2Ff2i,3wa2xvdzfpuo2njsi9v42o7kc6t6eh,3r08vxyt7g83a7hidlz4jsa73otw7h,3Lt2Ff2i,2020-0188,2020-06-15,18:17:08,18:37:09,NA,incomplete,141,filling,0,right,Green_Circle_Grid_4.jpg,Red_Circle_Chess_1.jpg,Purple_Triangle_Grid_2.jpg,right,900.0549999909708,true,high,NA,NA,NA,NA,NA,NA,NA,false
3Lt2Ff2i,3wa2xvdzfpuo2njsi9v42o7kc6t6eh,3r08vxyt7g83a7hidlz4jsa73otw7h,3Lt2Ff2i,2020-0188,2020-06-15,18:17:08,18:37:09,NA,incomplete,142,filling,1,left,Blue_Circle_Chess_4.jpg,Purple_Plus_Chess_2.jpg,Red_Circle_Dots_3.jpg,left,913.70000000461,true,high,NA,NA,NA,NA,NA,NA,NA,false
3Lt2Ff2i,3wa2xvdzfpuo2njsi9v42o7kc6t6eh,3r08vxyt7g83a7hidlz4jsa73otw7h,3Lt2Ff2i,2020-0188,2020-06-15,18:17:08,18:37:09,NA,incomplete,143,filling,1,left,Red_Plus_Stripes_2.jpg,Blue_Triangle_Stripes_3.jpg,Green_Plus_Dots_4.jpg,left,1017.1800000098301,true,high,NA,NA,NA,NA,NA,NA,NA,false
3Lt2Ff2i,3wa2xvdzfpuo2njsi9v42o7kc6t6eh,3r08vxyt7g83a7hidlz4jsa73otw7h,3Lt2Ff2i,2020-0188,2020-06-15,18:17:08,18:37:09,NA,incomplete,144,filling,1,right,Blue_Circle_Grid_2.jpg,Red_Circle_Stripes_4.jpg,Green_Triangle_Grid_1.jpg,right,1018.4700000099838,true,high,NA,NA,NA,NA,NA,NA,NA,false
3Lt2Ff2i,3wa2xvdzfpuo2njsi9v42o7kc6t6eh,3r08vxyt7g83a7hidlz4jsa73otw7h,3Lt2Ff2i,2020-0188,2020-06-15,18:17:08,18:37:09,NA,incomplete,145,filling,1,right,Blue_Triangle_Dots_1.jpg,Green_Triangle_Grid_2.jpg,Red_Star_Dots_3.jpg,right,1000.3949999954784,true,high,NA,NA,NA,NA,NA,NA,NA,false
3Lt2Ff2i,3wa2xvdzfpuo2njsi9v42o7kc6t6eh,3r08vxyt7g83a7hidlz4jsa73otw7h,3Lt2Ff2i,2020-0188,2020-06-15,18:17:08,18:37:09,NA,incomplete,146,filling,0,right,Blue_Circle_Chess_2.jpg,Purple_Circle_Dots_3.jpg,Red_Plus_Chess_1.jpg,right,1041.4549999986775,true,high,NA,NA,NA,NA,NA,NA,NA,false
3Lt2Ff2i,3wa2xvdzfpuo2njsi9v42o7kc6t6eh,3r08vxyt7g83a7hidlz4jsa73otw7h,3Lt2Ff2i,2020-0188,2020-06-15,18:17:08,18:37:09,NA,incomplete,147,filling,1,right,Red_Plus_Chess_2.jpg,Purple_Plus_Grid_3.jpg,Green_Star_Chess_1.jpg,right,1046.4050000009593,true,high,NA,NA,NA,NA,NA,NA,NA,false
3Lt2Ff2i,3wa2xvdzfpuo2njsi9v42o7kc6t6eh,3r08vxyt7g83a7hidlz4jsa73otw7h,3Lt2Ff2i,2020-0188,2020-06-15,18:17:08,18:37:09,NA,incomplete,148,filling,1,left,Green_Plus_Stripes_2.jpg,Red_Triangle_Stripes_1.jpg,Purple_Plus_Dots_3.jpg,left,1041.1999999923864,true,high,NA,NA,NA,NA,NA,NA,NA,false
3Lt2Ff2i,3wa2xvdzfpuo2njsi9v42o7kc6t6eh,3r08vxyt7g83a7hidlz4jsa73otw7h,3Lt2Ff2i,2020-0188,2020-06-15,18:17:08,18:37:09,NA,incomplete,149,filling,1,left,Blue_Triangle_Grid_3.jpg,Red_Star_Grid_1.jpg,Purple_Triangle_Stripes_4.jpg,left,1016.5149999957066,true,high,NA,NA,NA,NA,NA,NA,NA,false
3Lt2Ff2i,3wa2xvdzfpuo2njsi9v42o7kc6t6eh,3r08vxyt7g83a7hidlz4jsa73otw7h,3Lt2Ff2i,2020-0188,2020-06-15,18:17:08,18:37:09,NA,incomplete,150,filling,1,left,Green_Star_Dots_1.jpg,Purple_Plus_Dots_4.jpg,Red_Star_Grid_3.jpg,left,1132.1050000115065,true,high,NA,NA,NA,NA,NA,NA,NA,false
3Lt2Ff2i,3wa2xvdzfpuo2njsi9v42o7kc6t6eh,3r08vxyt7g83a7hidlz4jsa73otw7h,3Lt2Ff2i,2020-0188,2020-06-15,18:17:08,18:37:09,NA,incomplete,151,filling,0,left,Red_Triangle_Dots_3.jpg,Green_Plus_Dots_4.jpg,Purple_Triangle_Chess_2.jpg,left,1010.5299999995623,true,high,NA,NA,NA,NA,NA,NA,NA,false
3Lt2Ff2i,3wa2xvdzfpuo2njsi9v42o7kc6t6eh,3r08vxyt7g83a7hidlz4jsa73otw7h,3Lt2Ff2i,2020-0188,2020-06-15,18:17:08,18:37:09,NA,incomplete,152,filling,1,left,Blue_Triangle_Dots_3.jpg,Purple_Plus_Dots_4.jpg,Red_Triangle_Grid_1.jpg,left,1116.2900000053924,true,high,NA,NA,NA,NA,NA,NA,NA,false
3Lt2Ff2i,3wa2xvdzfpuo2njsi9v42o7kc6t6eh,3r08vxyt7g83a7hidlz4jsa73otw7h,3Lt2Ff2i,2020-0188,2020-06-15,18:17:08,18:37:09,NA,incomplete,153,filling,0,right,Red_Circle_Chess_4.jpg,Green_Circle_Stripes_3.jpg,Blue_Star_Chess_2.jpg,right,1052.7600000059465,true,high,NA,NA,NA,NA,NA,NA,NA,false
3Lt2Ff2i,3wa2xvdzfpuo2njsi9v42o7kc6t6eh,3r08vxyt7g83a7hidlz4jsa73otw7h,3Lt2Ff2i,2020-0188,2020-06-15,18:17:08,18:37:09,NA,incomplete,154,filling,1,right,Green_Star_Stripes_1.jpg,Red_Star_Dots_2.jpg,Blue_Triangle_Stripes_3.jpg,right,1029.9099999974715,true,high,NA,NA,NA,NA,NA,NA,NA,false
3Lt2Ff2i,3wa2xvdzfpuo2njsi9v42o7kc6t6eh,3r08vxyt7g83a7hidlz4jsa73otw7h,3Lt2Ff2i,2020-0188,2020-06-15,18:17:08,18:37:09,NA,incomplete,155,filling,1,left,Red_Star_Grid_2.jpg,Blue_Triangle_Grid_3.jpg,Purple_Star_Stripes_1.jpg,left,1043.3049999992363,true,high,NA,NA,NA,NA,NA,NA,NA,false
3Lt2Ff2i,3wa2xvdzfpuo2njsi9v42o7kc6t6eh,3r08vxyt7g83a7hidlz4jsa73otw7h,3Lt2Ff2i,2020-0188,2020-06-15,18:17:08,18:37:09,NA,incomplete,156,filling,1,left,Red_Plus_Stripes_1.jpg,Blue_Star_Stripes_3.jpg,Green_Plus_Chess_4.jpg,left,917.6549999974668,true,high,NA,NA,NA,NA,NA,NA,NA,false
3Lt2Ff2i,3wa2xvdzfpuo2njsi9v42o7kc6t6eh,3r08vxyt7g83a7hidlz4jsa73otw7h,3Lt2Ff2i,2020-0188,2020-06-15,18:17:08,18:37:09,NA,incomplete,157,filling,1,right,Red_Plus_Stripes_3.jpg,Green_Plus_Dots_2.jpg,Blue_Star_Stripes_4.jpg,right,1003.9400000096066,true,high,NA,NA,NA,NA,NA,NA,NA,false
3Lt2Ff2i,3wa2xvdzfpuo2njsi9v42o7kc6t6eh,3r08vxyt7g83a7hidlz4jsa73otw7h,3Lt2Ff2i,2020-0188,2020-06-15,18:17:08,18:37:09,NA,incomplete,158,filling,1,left,Purple_Triangle_Chess_3.jpg,Red_Star_Chess_2.jpg,Blue_Triangle_Dots_1.jpg,left,854.349999994156,true,high,NA,NA,NA,NA,NA,NA,NA,false
3Lt2Ff2i,3wa2xvdzfpuo2njsi9v42o7kc6t6eh,3r08vxyt7g83a7hidlz4jsa73otw7h,3Lt2Ff2i,2020-0188,2020-06-15,18:17:08,18:37:09,NA,incomplete,159,filling,1,left,Red_Star_Dots_3.jpg,Purple_Plus_Dots_4.jpg,Green_Star_Stripes_2.jpg,left,1103.0699999973876,true,high,NA,NA,NA,NA,NA,NA,NA,false
3Lt2Ff2i,3wa2xvdzfpuo2njsi9v42o7kc6t6eh,3r08vxyt7g83a7hidlz4jsa73otw7h,3Lt2Ff2i,2020-0188,2020-06-15,18:17:08,18:37:09,NA,incomplete,160,shape,1,right,Blue_Triangle_Chess_1.jpg,Red_Plus_Chess_2.jpg,Purple_Triangle_Stripes_3.jpg,left,922.0099999947706,false,high,NA,NA,NA,NA,NA,NA,NA,false
3Lt2Ff2i,3wa2xvdzfpuo2njsi9v42o7kc6t6eh,3r08vxyt7g83a7hidlz4jsa73otw7h,3Lt2Ff2i,2020-0188,2020-06-15,18:17:08,18:37:09,NA,incomplete,161,shape,1,right,Green_Triangle_Chess_1.jpg,Blue_Star_Chess_3.jpg,Red_Triangle_Stripes_2.jpg,left,916.9099999999162,false,high,NA,NA,NA,NA,NA,NA,NA,false
3Lt2Ff2i,3wa2xvdzfpuo2njsi9v42o7kc6t6eh,3r08vxyt7g83a7hidlz4jsa73otw7h,3Lt2Ff2i,2020-0188,2020-06-15,18:17:08,18:37:09,NA,incomplete,162,shape,1,right,Blue_Triangle_Grid_3.jpg,Green_Star_Grid_4.jpg,Purple_Triangle_Chess_2.jpg,left,1303.2050000037998,false,high,NA,NA,NA,NA,NA,NA,NA,false
3Lt2Ff2i,3wa2xvdzfpuo2njsi9v42o7kc6t6eh,3r08vxyt7g83a7hidlz4jsa73otw7h,3Lt2Ff2i,2020-0188,2020-06-15,18:17:08,18:37:09,NA,incomplete,163,shape,0,right,Red_Circle_Stripes_2.jpg,Green_Triangle_Stripes_4.jpg,Purple_Circle_Grid_3.jpg,right,777.010000005248,true,high,NA,NA,NA,NA,NA,NA,NA,false
3Lt2Ff2i,3wa2xvdzfpuo2njsi9v42o7kc6t6eh,3r08vxyt7g83a7hidlz4jsa73otw7h,3Lt2Ff2i,2020-0188,2020-06-15,18:17:08,18:37:09,NA,incomplete,164,shape,1,right,Red_Plus_Stripes_4.jpg,Purple_Circle_Stripes_2.jpg,Blue_Plus_Dots_1.jpg,right,814.3550000095274,true,high,NA,NA,NA,NA,NA,NA,NA,false
3Lt2Ff2i,3wa2xvdzfpuo2njsi9v42o7kc6t6eh,3r08vxyt7g83a7hidlz4jsa73otw7h,3Lt2Ff2i,2020-0188,2020-06-15,18:17:08,18:37:09,NA,incomplete,165,shape,1,right,Purple_Plus_Chess_1.jpg,Red_Star_Chess_4.jpg,Green_Plus_Grid_3.jpg,right,754.8249999963446,true,high,NA,NA,NA,NA,NA,NA,NA,false
3Lt2Ff2i,3wa2xvdzfpuo2njsi9v42o7kc6t6eh,3r08vxyt7g83a7hidlz4jsa73otw7h,3Lt2Ff2i,2020-0188,2020-06-15,18:17:08,18:37:09,NA,incomplete,166,shape,1,left,Red_Star_Grid_3.jpg,Green_Star_Chess_2.jpg,Blue_Circle_Grid_1.jpg,left,727.8999999980442,true,high,NA,NA,NA,NA,NA,NA,NA,false
3Lt2Ff2i,3wa2xvdzfpuo2njsi9v42o7kc6t6eh,3r08vxyt7g83a7hidlz4jsa73otw7h,3Lt2Ff2i,2020-0188,2020-06-15,18:17:08,18:37:09,NA,incomplete,167,shape,0,right,Red_Star_Dots_1.jpg,Green_Triangle_Dots_4.jpg,Purple_Star_Grid_2.jpg,right,667.1199999982491,true,high,NA,NA,NA,NA,NA,NA,NA,false
3Lt2Ff2i,3wa2xvdzfpuo2njsi9v42o7kc6t6eh,3r08vxyt7g83a7hidlz4jsa73otw7h,3Lt2Ff2i,2020-0188,2020-06-15,18:17:08,18:37:09,NA,incomplete,168,shape,1,right,Blue_Triangle_Dots_3.jpg,Purple_Plus_Dots_1.jpg,Green_Triangle_Stripes_4.jpg,right,851.6899999958696,true,high,NA,NA,NA,NA,NA,NA,NA,false
3Lt2Ff2i,3wa2xvdzfpuo2njsi9v42o7kc6t6eh,3r08vxyt7g83a7hidlz4jsa73otw7h,3Lt2Ff2i,2020-0188,2020-06-15,18:17:08,18:37:09,NA,incomplete,169,shape,1,left,Blue_Circle_Chess_1.jpg,Red_Circle_Grid_4.jpg,Purple_Plus_Chess_2.jpg,left,988.7400000006892,true,high,NA,NA,NA,NA,NA,NA,NA,false
3Lt2Ff2i,3wa2xvdzfpuo2njsi9v42o7kc6t6eh,3r08vxyt7g83a7hidlz4jsa73otw7h,3Lt2Ff2i,2020-0188,2020-06-15,18:17:08,18:37:09,NA,incomplete,170,shape,1,right,Purple_Circle_Stripes_2.jpg,Green_Star_Stripes_1.jpg,Blue_Circle_Grid_4.jpg,right,610.6700000091223,true,high,NA,NA,NA,NA,NA,NA,NA,false
3Lt2Ff2i,3wa2xvdzfpuo2njsi9v42o7kc6t6eh,3r08vxyt7g83a7hidlz4jsa73otw7h,3Lt2Ff2i,2020-0188,2020-06-15,18:17:08,18:37:09,NA,incomplete,171,shape,1,left,Purple_Plus_Grid_3.jpg,Red_Plus_Dots_2.jpg,Green_Star_Grid_4.jpg,left,653.7649999954738,true,high,NA,NA,NA,NA,NA,NA,NA,false
3Lt2Ff2i,3wa2xvdzfpuo2njsi9v42o7kc6t6eh,3r08vxyt7g83a7hidlz4jsa73otw7h,3Lt2Ff2i,2020-0188,2020-06-15,18:17:08,18:37:09,NA,incomplete,172,shape,1,right,Red_Star_Chess_4.jpg,Green_Triangle_Chess_2.jpg,Purple_Star_Dots_3.jpg,right,614.8450000036974,true,high,NA,NA,NA,NA,NA,NA,NA,false
3Lt2Ff2i,3wa2xvdzfpuo2njsi9v42o7kc6t6eh,3r08vxyt7g83a7hidlz4jsa73otw7h,3Lt2Ff2i,2020-0188,2020-06-15,18:17:08,18:37:09,NA,incomplete,173,shape,0,right,Purple_Plus_Stripes_4.jpg,Red_Circle_Stripes_2.jpg,Blue_Plus_Grid_1.jpg,right,761.8899999943096,true,high,NA,NA,NA,NA,NA,NA,NA,false
3Lt2Ff2i,3wa2xvdzfpuo2njsi9v42o7kc6t6eh,3r08vxyt7g83a7hidlz4jsa73otw7h,3Lt2Ff2i,2020-0188,2020-06-15,18:17:08,18:37:09,NA,incomplete,174,shape,1,right,Red_Star_Stripes_2.jpg,Purple_Circle_Stripes_4.jpg,Green_Star_Chess_3.jpg,right,772.8900000074646,true,high,NA,NA,NA,NA,NA,NA,NA,false
3Lt2Ff2i,3wa2xvdzfpuo2njsi9v42o7kc6t6eh,3r08vxyt7g83a7hidlz4jsa73otw7h,3Lt2Ff2i,2020-0188,2020-06-15,18:17:08,18:37:09,NA,incomplete,175,shape,1,right,Red_Plus_Chess_3.jpg,Green_Triangle_Chess_4.jpg,Purple_Plus_Grid_1.jpg,right,742.7100000058999,true,high,NA,NA,NA,NA,NA,NA,NA,false
3Lt2Ff2i,3wa2xvdzfpuo2njsi9v42o7kc6t6eh,3r08vxyt7g83a7hidlz4jsa73otw7h,3Lt2Ff2i,2020-0188,2020-06-15,18:17:08,18:37:09,NA,incomplete,176,shape,1,left,Purple_Circle_Stripes_3.jpg,Blue_Circle_Grid_2.jpg,Red_Star_Stripes_4.jpg,left,708.9500000001863,true,high,NA,NA,NA,NA,NA,NA,NA,false
3Lt2Ff2i,3wa2xvdzfpuo2njsi9v42o7kc6t6eh,3r08vxyt7g83a7hidlz4jsa73otw7h,3Lt2Ff2i,2020-0188,2020-06-15,18:17:08,18:37:09,NA,incomplete,177,shape,1,right,Green_Star_Grid_1.jpg,Red_Plus_Grid_2.jpg,Purple_Star_Stripes_4.jpg,right,814.5600000134436,true,high,NA,NA,NA,NA,NA,NA,NA,false
3Lt2Ff2i,3wa2xvdzfpuo2njsi9v42o7kc6t6eh,3r08vxyt7g83a7hidlz4jsa73otw7h,3Lt2Ff2i,2020-0188,2020-06-15,18:17:08,18:37:09,NA,incomplete,178,shape,1,left,Blue_Circle_Grid_4.jpg,Green_Circle_Stripes_2.jpg,Purple_Triangle_Grid_3.jpg,left,842.1300000045449,true,high,NA,NA,NA,NA,NA,NA,NA,false
3Lt2Ff2i,3wa2xvdzfpuo2njsi9v42o7kc6t6eh,3r08vxyt7g83a7hidlz4jsa73otw7h,3Lt2Ff2i,2020-0188,2020-06-15,18:17:08,18:37:09,NA,incomplete,179,shape,1,right,Blue_Plus_Chess_3.jpg,Purple_Star_Chess_4.jpg,Green_Plus_Dots_1.jpg,right,724.0649999876041,true,high,NA,NA,NA,NA,NA,NA,NA,false
3Lt2Ff2i,3wa2xvdzfpuo2njsi9v42o7kc6t6eh,3r08vxyt7g83a7hidlz4jsa73otw7h,3Lt2Ff2i,2020-0188,2020-06-15,18:17:08,18:37:09,NA,incomplete,180,filling,1,right,Purple_Star_Chess_4.jpg,Blue_Star_Stripes_3.jpg,Red_Circle_Chess_2.jpg,left,719.9399999954039,false,high,NA,NA,NA,NA,NA,NA,NA,false
3Lt2Ff2i,3wa2xvdzfpuo2njsi9v42o7kc6t6eh,3r08vxyt7g83a7hidlz4jsa73otw7h,3Lt2Ff2i,2020-0188,2020-06-15,18:17:08,18:37:09,NA,incomplete,181,filling,0,right,Red_Circle_Stripes_3.jpg,Blue_Circle_Dots_4.jpg,Purple_Plus_Stripes_1.jpg,left,1091.0449999937555,false,high,NA,NA,NA,NA,NA,NA,NA,false
3Lt2Ff2i,3wa2xvdzfpuo2njsi9v42o7kc6t6eh,3r08vxyt7g83a7hidlz4jsa73otw7h,3Lt2Ff2i,2020-0188,2020-06-15,18:17:08,18:37:09,NA,incomplete,182,filling,1,left,Red_Circle_Stripes_2.jpg,Purple_Plus_Stripes_4.jpg,Green_Circle_Grid_3.jpg,left,730.2499999932479,true,high,NA,NA,NA,NA,NA,NA,NA,false
3Lt2Ff2i,3wa2xvdzfpuo2njsi9v42o7kc6t6eh,3r08vxyt7g83a7hidlz4jsa73otw7h,3Lt2Ff2i,2020-0188,2020-06-15,18:17:08,18:37:09,NA,incomplete,183,filling,1,right,Purple_Circle_Dots_1.jpg,Red_Circle_Grid_4.jpg,Blue_Star_Dots_3.jpg,right,1054.7550000046613,true,high,NA,NA,NA,NA,NA,NA,NA,false
3Lt2Ff2i,3wa2xvdzfpuo2njsi9v42o7kc6t6eh,3r08vxyt7g83a7hidlz4jsa73otw7h,3Lt2Ff2i,2020-0188,2020-06-15,18:17:08,18:37:09,NA,incomplete,184,filling,1,left,Blue_Triangle_Stripes_2.jpg,Green_Circle_Stripes_4.jpg,Purple_Triangle_Dots_3.jpg,left,852.4550000001909,true,high,NA,NA,NA,NA,NA,NA,NA,false
3Lt2Ff2i,3wa2xvdzfpuo2njsi9v42o7kc6t6eh,3r08vxyt7g83a7hidlz4jsa73otw7h,3Lt2Ff2i,2020-0188,2020-06-15,18:17:08,18:37:09,NA,incomplete,185,filling,1,right,Red_Circle_Dots_2.jpg,Blue_Circle_Chess_3.jpg,Purple_Star_Dots_4.jpg,right,947.8850000014063,true,high,NA,NA,NA,NA,NA,NA,NA,false
3Lt2Ff2i,3wa2xvdzfpuo2njsi9v42o7kc6t6eh,3r08vxyt7g83a7hidlz4jsa73otw7h,3Lt2Ff2i,2020-0188,2020-06-15,18:17:08,18:37:09,NA,incomplete,186,filling,0,right,Red_Star_Grid_4.jpg,Green_Star_Stripes_2.jpg,Purple_Triangle_Grid_3.jpg,right,1090.520000012475,true,high,NA,NA,NA,NA,NA,NA,NA,false
3Lt2Ff2i,3wa2xvdzfpuo2njsi9v42o7kc6t6eh,3r08vxyt7g83a7hidlz4jsa73otw7h,3Lt2Ff2i,2020-0188,2020-06-15,18:17:08,18:37:09,NA,incomplete,187,filling,1,right,Blue_Star_Grid_2.jpg,Red_Star_Chess_1.jpg,Green_Circle_Grid_4.jpg,right,1013.0849999986822,true,high,NA,NA,NA,NA,NA,NA,NA,false
3Lt2Ff2i,3wa2xvdzfpuo2njsi9v42o7kc6t6eh,3r08vxyt7g83a7hidlz4jsa73otw7h,3Lt2Ff2i,2020-0188,2020-06-15,18:17:08,18:37:09,NA,incomplete,188,filling,1,left,Green_Circle_Dots_3.jpg,Blue_Plus_Dots_4.jpg,Red_Circle_Stripes_2.jpg,left,1120.7200000062585,true,high,NA,NA,NA,NA,NA,NA,NA,false
3Lt2Ff2i,3wa2xvdzfpuo2njsi9v42o7kc6t6eh,3r08vxyt7g83a7hidlz4jsa73otw7h,3Lt2Ff2i,2020-0188,2020-06-15,18:17:08,18:37:09,NA,incomplete,189,filling,0,right,Red_Star_Chess_2.jpg,Blue_Star_Grid_3.jpg,Purple_Circle_Chess_1.jpg,right,985.3199999924982,true,high,NA,NA,NA,NA,NA,NA,NA,false
3Lt2Ff2i,3wa2xvdzfpuo2njsi9v42o7kc6t6eh,3r08vxyt7g83a7hidlz4jsa73otw7h,3Lt2Ff2i,2020-0188,2020-06-15,18:17:08,18:37:09,NA,incomplete,190,filling,1,left,Purple_Plus_Chess_2.jpg,Red_Triangle_Chess_1.jpg,Blue_Plus_Dots_4.jpg,left,1058.6599999951432,true,high,NA,NA,NA,NA,NA,NA,NA,false
3Lt2Ff2i,3wa2xvdzfpuo2njsi9v42o7kc6t6eh,3r08vxyt7g83a7hidlz4jsa73otw7h,3Lt2Ff2i,2020-0188,2020-06-15,18:17:08,18:37:09,NA,incomplete,191,filling,1,right,Purple_Triangle_Dots_1.jpg,Red_Triangle_Chess_4.jpg,Blue_Plus_Dots_3.jpg,right,964.6199999988312,true,high,NA,NA,NA,NA,NA,NA,NA,false
3Lt2Ff2i,3wa2xvdzfpuo2njsi9v42o7kc6t6eh,3r08vxyt7g83a7hidlz4jsa73otw7h,3Lt2Ff2i,2020-0188,2020-06-15,18:17:08,18:37:09,NA,incomplete,192,filling,0,right,Blue_Plus_Grid_1.jpg,Red_Plus_Chess_2.jpg,Green_Star_Grid_4.jpg,right,998.1249999982538,true,high,NA,NA,NA,NA,NA,NA,NA,false
3Lt2Ff2i,3wa2xvdzfpuo2njsi9v42o7kc6t6eh,3r08vxyt7g83a7hidlz4jsa73otw7h,3Lt2Ff2i,2020-0188,2020-06-15,18:17:08,18:37:09,NA,incomplete,193,filling,1,left,Green_Plus_Grid_4.jpg,Red_Triangle_Grid_2.jpg,Blue_Plus_Dots_3.jpg,left,1042.0000000012806,true,high,NA,NA,NA,NA,NA,NA,NA,false
3Lt2Ff2i,3wa2xvdzfpuo2njsi9v42o7kc6t6eh,3r08vxyt7g83a7hidlz4jsa73otw7h,3Lt2Ff2i,2020-0188,2020-06-15,18:17:08,18:37:09,NA,incomplete,194,filling,1,right,Blue_Triangle_Dots_4.jpg,Red_Triangle_Stripes_2.jpg,Green_Plus_Dots_3.jpg,right,997.6800000004005,true,high,NA,NA,NA,NA,NA,NA,NA,false
3Lt2Ff2i,3wa2xvdzfpuo2njsi9v42o7kc6t6eh,3r08vxyt7g83a7hidlz4jsa73otw7h,3Lt2Ff2i,2020-0188,2020-06-15,18:17:08,18:37:09,NA,incomplete,195,filling,1,right,Purple_Triangle_Grid_4.jpg,Green_Triangle_Stripes_1.jpg,Red_Circle_Grid_2.jpg,right,913.6100000032457,true,high,NA,NA,NA,NA,NA,NA,NA,false
3Lt2Ff2i,3wa2xvdzfpuo2njsi9v42o7kc6t6eh,3r08vxyt7g83a7hidlz4jsa73otw7h,3Lt2Ff2i,2020-0188,2020-06-15,18:17:08,18:37:09,NA,incomplete,196,filling,0,right,Purple_Star_Chess_3.jpg,Green_Star_Dots_1.jpg,Red_Circle_Chess_2.jpg,right,842.0449999975972,true,high,NA,NA,NA,NA,NA,NA,NA,false
3Lt2Ff2i,3wa2xvdzfpuo2njsi9v42o7kc6t6eh,3r08vxyt7g83a7hidlz4jsa73otw7h,3Lt2Ff2i,2020-0188,2020-06-15,18:17:08,18:37:09,NA,incomplete,197,filling,1,left,Green_Star_Stripes_4.jpg,Purple_Circle_Stripes_2.jpg,Blue_Star_Dots_3.jpg,right,803.4400000033202,false,high,NA,NA,NA,NA,NA,NA,NA,false
3Lt2Ff2i,3wa2xvdzfpuo2njsi9v42o7kc6t6eh,3r08vxyt7g83a7hidlz4jsa73otw7h,3Lt2Ff2i,2020-0188,2020-06-15,18:17:08,18:37:09,NA,incomplete,198,filling,0,left,Purple_Circle_Dots_2.jpg,Red_Star_Dots_3.jpg,Green_Circle_Stripes_1.jpg,right,815.3199999942444,false,high,NA,NA,NA,NA,NA,NA,NA,false
3Lt2Ff2i,3wa2xvdzfpuo2njsi9v42o7kc6t6eh,3r08vxyt7g83a7hidlz4jsa73otw7h,3Lt2Ff2i,2020-0188,2020-06-15,18:17:08,18:37:09,NA,incomplete,199,filling,1,right,Red_Circle_Chess_3.jpg,Purple_Circle_Grid_2.jpg,Green_Star_Chess_4.jpg,left,649.7749999980442,false,high,NA,NA,NA,NA,NA,NA,NA,false
3Lt2Ff2i,3wa2xvdzfpuo2njsi9v42o7kc6t6eh,3r08vxyt7g83a7hidlz4jsa73otw7h,3Lt2Ff2i,2020-0188,2020-06-15,18:17:08,18:37:09,NA,incomplete,200,shape,1,left,Green_Star_Chess_2.jpg,Red_Star_Dots_4.jpg,Blue_Plus_Chess_1.jpg,right,961.1900000018068,false,high,NA,NA,NA,NA,NA,NA,NA,false
3Lt2Ff2i,3wa2xvdzfpuo2njsi9v42o7kc6t6eh,3r08vxyt7g83a7hidlz4jsa73otw7h,3Lt2Ff2i,2020-0188,2020-06-15,18:17:08,18:37:09,NA,incomplete,201,shape,1,right,Red_Plus_Grid_1.jpg,Green_Star_Grid_3.jpg,Purple_Plus_Chess_4.jpg,left,980.5650000050664,false,high,NA,NA,NA,NA,NA,NA,NA,false
3Lt2Ff2i,3wa2xvdzfpuo2njsi9v42o7kc6t6eh,3r08vxyt7g83a7hidlz4jsa73otw7h,3Lt2Ff2i,2020-0188,2020-06-15,18:17:08,18:37:09,NA,incomplete,202,shape,1,left,Red_Circle_Dots_1.jpg,Purple_Circle_Stripes_2.jpg,Blue_Triangle_Dots_3.jpg,left,756.9150000053924,true,high,NA,NA,NA,NA,NA,NA,NA,false
3Lt2Ff2i,3wa2xvdzfpuo2njsi9v42o7kc6t6eh,3r08vxyt7g83a7hidlz4jsa73otw7h,3Lt2Ff2i,2020-0188,2020-06-15,18:17:08,18:37:09,NA,incomplete,203,shape,1,left,Blue_Star_Dots_1.jpg,Red_Star_Stripes_4.jpg,Green_Triangle_Dots_3.jpg,left,751.9850000101142,true,high,NA,NA,NA,NA,NA,NA,NA,false
3Lt2Ff2i,3wa2xvdzfpuo2njsi9v42o7kc6t6eh,3r08vxyt7g83a7hidlz4jsa73otw7h,3Lt2Ff2i,2020-0188,2020-06-15,18:17:08,18:37:09,NA,incomplete,204,shape,0,right,Green_Circle_Grid_3.jpg,Red_Star_Grid_1.jpg,Purple_Circle_Stripes_2.jpg,right,816.1600000022445,true,high,NA,NA,NA,NA,NA,NA,NA,false
3Lt2Ff2i,3wa2xvdzfpuo2njsi9v42o7kc6t6eh,3r08vxyt7g83a7hidlz4jsa73otw7h,3Lt2Ff2i,2020-0188,2020-06-15,18:17:08,18:37:09,NA,incomplete,205,shape,1,right,Purple_Circle_Chess_3.jpg,Blue_Triangle_Chess_1.jpg,Red_Circle_Stripes_4.jpg,right,687.0299999862909,true,high,NA,NA,NA,NA,NA,NA,NA,false
3Lt2Ff2i,3wa2xvdzfpuo2njsi9v42o7kc6t6eh,3r08vxyt7g83a7hidlz4jsa73otw7h,3Lt2Ff2i,2020-0188,2020-06-15,18:17:08,18:37:09,NA,incomplete,206,shape,0,left,Blue_Circle_Stripes_3.jpg,Purple_Circle_Chess_2.jpg,Green_Star_Stripes_1.jpg,left,627.8600000077859,true,high,NA,NA,NA,NA,NA,NA,NA,false
3Lt2Ff2i,3wa2xvdzfpuo2njsi9v42o7kc6t6eh,3r08vxyt7g83a7hidlz4jsa73otw7h,3Lt2Ff2i,2020-0188,2020-06-15,18:17:08,18:37:09,NA,incomplete,207,shape,1,left,Purple_Star_Grid_4.jpg,Red_Star_Dots_2.jpg,Blue_Triangle_Grid_1.jpg,left,856.5550000057556,true,high,NA,NA,NA,NA,NA,NA,NA,false
3Lt2Ff2i,3wa2xvdzfpuo2njsi9v42o7kc6t6eh,3r08vxyt7g83a7hidlz4jsa73otw7h,3Lt2Ff2i,2020-0188,2020-06-15,18:17:08,18:37:09,NA,incomplete,208,shape,1,right,Purple_Star_Dots_4.jpg,Red_Plus_Dots_3.jpg,Green_Star_Chess_2.jpg,right,962.3550000106916,true,high,NA,NA,NA,NA,NA,NA,NA,false
3Lt2Ff2i,3wa2xvdzfpuo2njsi9v42o7kc6t6eh,3r08vxyt7g83a7hidlz4jsa73otw7h,3Lt2Ff2i,2020-0188,2020-06-15,18:17:08,18:37:09,NA,incomplete,209,shape,0,right,Red_Triangle_Dots_3.jpg,Blue_Plus_Dots_4.jpg,Green_Triangle_Grid_2.jpg,right,794.8949999990873,true,high,NA,NA,NA,NA,NA,NA,NA,false
3Lt2Ff2i,3wa2xvdzfpuo2njsi9v42o7kc6t6eh,3r08vxyt7g83a7hidlz4jsa73otw7h,3Lt2Ff2i,2020-0188,2020-06-15,18:17:08,18:37:09,NA,incomplete,210,shape,1,left,Green_Triangle_Stripes_1.jpg,Red_Triangle_Dots_3.jpg,Blue_Plus_Stripes_4.jpg,left,956.2349999905564,true,high,NA,NA,NA,NA,NA,NA,NA,false
3Lt2Ff2i,3wa2xvdzfpuo2njsi9v42o7kc6t6eh,3r08vxyt7g83a7hidlz4jsa73otw7h,3Lt2Ff2i,2020-0188,2020-06-15,18:17:08,18:37:09,NA,incomplete,211,shape,1,left,Green_Circle_Chess_4.jpg,Purple_Circle_Grid_3.jpg,Blue_Star_Chess_1.jpg,left,827.9599999950733,true,high,NA,NA,NA,NA,NA,NA,NA,false
3Lt2Ff2i,3wa2xvdzfpuo2njsi9v42o7kc6t6eh,3r08vxyt7g83a7hidlz4jsa73otw7h,3Lt2Ff2i,2020-0188,2020-06-15,18:17:08,18:37:09,NA,incomplete,212,shape,1,left,Blue_Plus_Chess_1.jpg,Purple_Plus_Grid_4.jpg,Green_Circle_Chess_2.jpg,left,737.659999998752,true,high,NA,NA,NA,NA,NA,NA,NA,false
3Lt2Ff2i,3wa2xvdzfpuo2njsi9v42o7kc6t6eh,3r08vxyt7g83a7hidlz4jsa73otw7h,3Lt2Ff2i,2020-0188,2020-06-15,18:17:08,18:37:09,NA,incomplete,213,shape,1,left,Green_Circle_Chess_3.jpg,Blue_Circle_Dots_2.jpg,Purple_Triangle_Chess_1.jpg,left,694.1749999967869,true,high,NA,NA,NA,NA,NA,NA,NA,false
3Lt2Ff2i,3wa2xvdzfpuo2njsi9v42o7kc6t6eh,3r08vxyt7g83a7hidlz4jsa73otw7h,3Lt2Ff2i,2020-0188,2020-06-15,18:17:08,18:37:09,NA,incomplete,214,shape,1,right,Purple_Triangle_Dots_1.jpg,Green_Plus_Dots_4.jpg,Blue_Triangle_Chess_3.jpg,right,741.9649999937974,true,high,NA,NA,NA,NA,NA,NA,NA,false
3Lt2Ff2i,3wa2xvdzfpuo2njsi9v42o7kc6t6eh,3r08vxyt7g83a7hidlz4jsa73otw7h,3Lt2Ff2i,2020-0188,2020-06-15,18:17:08,18:37:09,NA,incomplete,215,shape,0,left,Purple_Star_Grid_3.jpg,Green_Star_Dots_1.jpg,Blue_Plus_Grid_4.jpg,left,728.1949999888893,true,high,NA,NA,NA,NA,NA,NA,NA,false
3Lt2Ff2i,3wa2xvdzfpuo2njsi9v42o7kc6t6eh,3r08vxyt7g83a7hidlz4jsa73otw7h,3Lt2Ff2i,2020-0188,2020-06-15,18:17:08,18:37:09,NA,incomplete,216,shape,1,right,Green_Circle_Dots_4.jpg,Red_Plus_Dots_1.jpg,Blue_Circle_Stripes_3.jpg,left,1140.505000002915,false,high,NA,NA,NA,NA,NA,NA,NA,false
3Lt2Ff2i,3wa2xvdzfpuo2njsi9v42o7kc6t6eh,3r08vxyt7g83a7hidlz4jsa73otw7h,3Lt2Ff2i,2020-0188,2020-06-15,18:17:08,18:37:09,NA,incomplete,217,shape,1,left,Purple_Triangle_Dots_4.jpg,Red_Triangle_Chess_3.jpg,Green_Star_Dots_2.jpg,right,1166.785000008531,false,high,NA,NA,NA,NA,NA,NA,NA,false
3Lt2Ff2i,3wa2xvdzfpuo2njsi9v42o7kc6t6eh,3r08vxyt7g83a7hidlz4jsa73otw7h,3Lt2Ff2i,2020-0188,2020-06-15,18:17:08,18:37:09,NA,incomplete,218,shape,1,left,Green_Star_Chess_4.jpg,Red_Star_Grid_3.jpg,Purple_Circle_Chess_1.jpg,left,798.215000002645,true,high,NA,NA,NA,NA,NA,NA,NA,false
3Lt2Ff2i,3wa2xvdzfpuo2njsi9v42o7kc6t6eh,3r08vxyt7g83a7hidlz4jsa73otw7h,3Lt2Ff2i,2020-0188,2020-06-15,18:17:08,18:37:09,NA,incomplete,219,shape,0,right,Purple_Triangle_Chess_2.jpg,Green_Plus_Chess_3.jpg,Red_Triangle_Stripes_1.jpg,right,949.8550000134856,true,high,NA,NA,NA,NA,NA,NA,NA,false
3Lt2Ff2i,3wa2xvdzfpuo2njsi9v42o7kc6t6eh,3r08vxyt7g83a7hidlz4jsa73otw7h,3Lt2Ff2i,2020-0188,2020-06-15,18:17:08,18:37:09,NA,incomplete,220,filling,1,left,Red_Plus_Grid_4.jpg,Purple_Triangle_Grid_3.jpg,Blue_Plus_Chess_1.jpg,right,866.7999999891035,false,high,NA,NA,NA,NA,NA,NA,NA,false
3Lt2Ff2i,3wa2xvdzfpuo2njsi9v42o7kc6t6eh,3r08vxyt7g83a7hidlz4jsa73otw7h,3Lt2Ff2i,2020-0188,2020-06-15,18:17:08,18:37:09,NA,incomplete,221,filling,1,left,Purple_Star_Stripes_1.jpg,Green_Circle_Stripes_3.jpg,Blue_Star_Grid_2.jpg,right,850.2799999988638,false,high,NA,NA,NA,NA,NA,NA,NA,false
3Lt2Ff2i,3wa2xvdzfpuo2njsi9v42o7kc6t6eh,3r08vxyt7g83a7hidlz4jsa73otw7h,3Lt2Ff2i,2020-0188,2020-06-15,18:17:08,18:37:09,NA,incomplete,222,filling,1,left,Blue_Circle_Chess_1.jpg,Red_Triangle_Chess_3.jpg,Green_Circle_Stripes_2.jpg,left,942.2749999938533,true,high,NA,NA,NA,NA,NA,NA,NA,false
3Lt2Ff2i,3wa2xvdzfpuo2njsi9v42o7kc6t6eh,3r08vxyt7g83a7hidlz4jsa73otw7h,3Lt2Ff2i,2020-0188,2020-06-15,18:17:08,18:37:09,NA,incomplete,223,filling,1,left,Green_Circle_Grid_2.jpg,Purple_Plus_Grid_4.jpg,Red_Circle_Stripes_3.jpg,left,1029.1199999919627,true,high,NA,NA,NA,NA,NA,NA,NA,false
3Lt2Ff2i,3wa2xvdzfpuo2njsi9v42o7kc6t6eh,3r08vxyt7g83a7hidlz4jsa73otw7h,3Lt2Ff2i,2020-0188,2020-06-15,18:17:08,18:37:09,NA,incomplete,224,filling,1,right,Purple_Triangle_Chess_3.jpg,Green_Triangle_Dots_4.jpg,Blue_Circle_Chess_2.jpg,right,991.2150000019465,true,high,NA,NA,NA,NA,NA,NA,NA,false
3Lt2Ff2i,3wa2xvdzfpuo2njsi9v42o7kc6t6eh,3r08vxyt7g83a7hidlz4jsa73otw7h,3Lt2Ff2i,2020-0188,2020-06-15,18:17:08,18:37:09,NA,incomplete,225,filling,1,right,Purple_Circle_Grid_4.jpg,Blue_Circle_Dots_3.jpg,Red_Star_Grid_2.jpg,right,916.1149999999907,true,high,NA,NA,NA,NA,NA,NA,NA,false
3Lt2Ff2i,3wa2xvdzfpuo2njsi9v42o7kc6t6eh,3r08vxyt7g83a7hidlz4jsa73otw7h,3Lt2Ff2i,2020-0188,2020-06-15,18:17:08,18:37:09,NA,incomplete,226,filling,1,right,Green_Triangle_Dots_3.jpg,Red_Triangle_Stripes_1.jpg,Purple_Circle_Dots_4.jpg,right,986.8249999999534,true,high,NA,NA,NA,NA,NA,NA,NA,false
3Lt2Ff2i,3wa2xvdzfpuo2njsi9v42o7kc6t6eh,3r08vxyt7g83a7hidlz4jsa73otw7h,3Lt2Ff2i,2020-0188,2020-06-15,18:17:08,18:37:09,NA,incomplete,227,filling,1,left,Blue_Plus_Grid_4.jpg,Red_Star_Grid_2.jpg,Green_Plus_Chess_1.jpg,left,956.5949999960139,true,high,NA,NA,NA,NA,NA,NA,NA,false
3Lt2Ff2i,3wa2xvdzfpuo2njsi9v42o7kc6t6eh,3r08vxyt7g83a7hidlz4jsa73otw7h,3Lt2Ff2i,2020-0188,2020-06-15,18:17:08,18:37:09,NA,incomplete,228,filling,0,right,Green_Circle_Grid_3.jpg,Purple_Circle_Stripes_4.jpg,Red_Triangle_Grid_1.jpg,right,900.2000000039116,true,high,NA,NA,NA,NA,NA,NA,NA,false
3Lt2Ff2i,3wa2xvdzfpuo2njsi9v42o7kc6t6eh,3r08vxyt7g83a7hidlz4jsa73otw7h,3Lt2Ff2i,2020-0188,2020-06-15,18:17:08,18:37:09,NA,incomplete,229,filling,1,left,Green_Star_Grid_3.jpg,Purple_Plus_Grid_1.jpg,Red_Star_Chess_2.jpg,left,1226.5400000032969,true,high,NA,NA,NA,NA,NA,NA,NA,false
3Lt2Ff2i,3wa2xvdzfpuo2njsi9v42o7kc6t6eh,3r08vxyt7g83a7hidlz4jsa73otw7h,3Lt2Ff2i,2020-0188,2020-06-15,18:17:08,18:37:09,NA,incomplete,230,filling,1,left,Purple_Triangle_Stripes_3.jpg,Red_Star_Stripes_1.jpg,Blue_Triangle_Dots_2.jpg,left,992.3100000014529,true,high,NA,NA,NA,NA,NA,NA,NA,false
3Lt2Ff2i,3wa2xvdzfpuo2njsi9v42o7kc6t6eh,3r08vxyt7g83a7hidlz4jsa73otw7h,3Lt2Ff2i,2020-0188,2020-06-15,18:17:08,18:37:09,NA,incomplete,231,filling,1,left,Red_Plus_Stripes_4.jpg,Green_Circle_Stripes_1.jpg,Blue_Plus_Grid_3.jpg,left,944.0700000124052,true,high,NA,NA,NA,NA,NA,NA,NA,false
3Lt2Ff2i,3wa2xvdzfpuo2njsi9v42o7kc6t6eh,3r08vxyt7g83a7hidlz4jsa73otw7h,3Lt2Ff2i,2020-0188,2020-06-15,18:17:08,18:37:09,NA,incomplete,232,filling,1,right,Purple_Circle_Grid_4.jpg,Red_Circle_Chess_2.jpg,Blue_Plus_Grid_3.jpg,right,859.3200000033248,true,high,NA,NA,NA,NA,NA,NA,NA,false
3Lt2Ff2i,3wa2xvdzfpuo2njsi9v42o7kc6t6eh,3r08vxyt7g83a7hidlz4jsa73otw7h,3Lt2Ff2i,2020-0188,2020-06-15,18:17:08,18:37:09,NA,incomplete,233,filling,1,right,Red_Plus_Chess_1.jpg,Blue_Plus_Grid_3.jpg,Green_Circle_Chess_2.jpg,right,934.6650000079535,true,high,NA,NA,NA,NA,NA,NA,NA,false
3Lt2Ff2i,3wa2xvdzfpuo2njsi9v42o7kc6t6eh,3r08vxyt7g83a7hidlz4jsa73otw7h,3Lt2Ff2i,2020-0188,2020-06-15,18:17:08,18:37:09,NA,incomplete,234,filling,1,right,Blue_Plus_Chess_2.jpg,Green_Plus_Dots_3.jpg,Red_Star_Chess_4.jpg,right,842.134999999078,true,high,NA,NA,NA,NA,NA,NA,NA,false
3Lt2Ff2i,3wa2xvdzfpuo2njsi9v42o7kc6t6eh,3r08vxyt7g83a7hidlz4jsa73otw7h,3Lt2Ff2i,2020-0188,2020-06-15,18:17:08,18:37:09,NA,incomplete,235,filling,1,left,Blue_Triangle_Stripes_4.jpg,Purple_Star_Stripes_1.jpg,Green_Triangle_Dots_2.jpg,left,919.3050000029616,true,high,NA,NA,NA,NA,NA,NA,NA,false
3Lt2Ff2i,3wa2xvdzfpuo2njsi9v42o7kc6t6eh,3r08vxyt7g83a7hidlz4jsa73otw7h,3Lt2Ff2i,2020-0188,2020-06-15,18:17:08,18:37:09,NA,incomplete,236,filling,1,right,Red_Triangle_Dots_1.jpg,Blue_Triangle_Stripes_2.jpg,Green_Plus_Dots_3.jpg,right,912.5599999972619,true,high,NA,NA,NA,NA,NA,NA,NA,false
3Lt2Ff2i,3wa2xvdzfpuo2njsi9v42o7kc6t6eh,3r08vxyt7g83a7hidlz4jsa73otw7h,3Lt2Ff2i,2020-0188,2020-06-15,18:17:08,18:37:09,NA,incomplete,237,filling,0,right,Purple_Triangle_Stripes_2.jpg,Blue_Triangle_Grid_1.jpg,Green_Plus_Stripes_4.jpg,right,950.1000000019558,true,high,NA,NA,NA,NA,NA,NA,NA,false
3Lt2Ff2i,3wa2xvdzfpuo2njsi9v42o7kc6t6eh,3r08vxyt7g83a7hidlz4jsa73otw7h,3Lt2Ff2i,2020-0188,2020-06-15,18:17:08,18:37:09,NA,incomplete,238,filling,1,left,Blue_Triangle_Grid_2.jpg,Purple_Star_Grid_4.jpg,Red_Triangle_Chess_1.jpg,left,1291.3149999950547,true,high,NA,NA,NA,NA,NA,NA,NA,false
3Lt2Ff2i,3wa2xvdzfpuo2njsi9v42o7kc6t6eh,3r08vxyt7g83a7hidlz4jsa73otw7h,3Lt2Ff2i,2020-0188,2020-06-15,18:17:08,18:37:09,NA,incomplete,239,filling,1,left,Blue_Circle_Stripes_3.jpg,Red_Triangle_Stripes_2.jpg,Green_Circle_Chess_4.jpg,left,935.6449999902397,true,high,NA,NA,NA,NA,NA,NA,NA,false
3Lt2Ff2i,3wa2xvdzfpuo2njsi9v42o7kc6t6eh,3r08vxyt7g83a7hidlz4jsa73otw7h,3Lt2Ff2i,2020-0188,2020-06-15,18:17:08,18:37:09,NA,NA,instruction example,color,NA,NA,Blue_Triangle_Dots_2.jpg,Blue_Star_Stripes_1.jpg,Purple_Circle_Grid_2.jpg,NA,NA,NA,NA,NA,NA,NA,NA,NA,NA,NA,undefined
3Lt2Ff2i,3wa2xvdzfpuo2njsi9v42o7kc6t6eh,3r08vxyt7g83a7hidlz4jsa73otw7h,3Lt2Ff2i,2020-0188,2020-06-15,18:17:08,18:37:09,NA,NA,instruction example,color,NA,NA,Green_Circle_Grid_4.jpg,Purple_Star_Dots_4.jpg,Green_Triangle_Chess_1.jpg,NA,NA,NA,NA,NA,NA,NA,NA,NA,NA,NA,undefined
3Lt2Ff2i,3wa2xvdzfpuo2njsi9v42o7kc6t6eh,3r08vxyt7g83a7hidlz4jsa73otw7h,3Lt2Ff2i,2020-0188,2020-06-15,18:17:08,18:37:09,NA,NA,instruction example,color,NA,NA,Purple_Plus_Stripes_2.jpg,Red_Plus_Grid_3.jpg,Green_Circle_Stripes_4.jpg,NA,NA,NA,NA,NA,NA,NA,NA,NA,NA,NA,undefined
3Lt2Ff2i,3wa2xvdzfpuo2njsi9v42o7kc6t6eh,3r08vxyt7g83a7hidlz4jsa73otw7h,3Lt2Ff2i,2020-0188,2020-06-15,18:17:08,18:37:09,NA,NA,instruction example,color,NA,NA,Red_Circle_Grid_4.jpg,Purple_Triangle_Grid_1.jpg,Blue_Circle_Chess_2.jpg,NA,NA,NA,NA,NA,NA,NA,NA,NA,NA,NA,undefined
3Lt2Ff2i,3wa2xvdzfpuo2njsi9v42o7kc6t6eh,3r08vxyt7g83a7hidlz4jsa73otw7h,3Lt2Ff2i,2020-0188,2020-06-15,18:17:08,18:37:09,1147174.435000008,1201629.3050000095,NA,NA,NA,NA,NA,NA,NA,NA,NA,NA,NA,38,White/Caucasian,Male,Do not wish to reply,no,yes,no,undefined
