workerId,hitId,assignmentId,subject,studyid,exp_date,exp_start,exp_end,time_start,time_end,trial,type,reward_validity,answer,image_top,image_left,image_right,response,response_time,response_acc,volatility,practice
KoXwfX4B,3ncn4n1h2juy25d07zfv3rnlauxnbw,3r3yrb5grjg815qbpownbvr1dlvau0,KoXwfX4B,2020-0188,2020-11-19,12:30:36,12:45:37,NA,incomplete,0,shape,1,right,Blue_Circle_Stripes_1.jpg,Purple_Plus_Stripes_3.jpg,Red_Circle_Dots_2.jpg,right,1353.1700000003038,true,NA,true
KoXwfX4B,3ncn4n1h2juy25d07zfv3rnlauxnbw,3r3yrb5grjg815qbpownbvr1dlvau0,KoXwfX4B,2020-0188,2020-11-19,12:30:36,12:45:37,NA,incomplete,1,shape,1,left,Blue_Star_Chess_2.jpg,Purple_Star_Stripes_3.jpg,Green_Plus_Chess_1.jpg,left,887.5600000001141,true,NA,true
KoXwfX4B,3ncn4n1h2juy25d07zfv3rnlauxnbw,3r3yrb5grjg815qbpownbvr1dlvau0,KoXwfX4B,2020-0188,2020-11-19,12:30:36,12:45:37,NA,incomplete,2,shape,1,right,Red_Circle_Chess_1.jpg,Green_Triangle_Chess_3.jpg,Purple_Circle_Grid_2.jpg,right,989.7199999995937,true,NA,true
KoXwfX4B,3ncn4n1h2juy25d07zfv3rnlauxnbw,3r3yrb5grjg815qbpownbvr1dlvau0,KoXwfX4B,2020-0188,2020-11-19,12:30:36,12:45:37,NA,incomplete,3,shape,1,right,Green_Circle_Dots_1.jpg,Blue_Triangle_Dots_4.jpg,Purple_Circle_Chess_2.jpg,right,700.4550000001618,true,NA,true
KoXwfX4B,3ncn4n1h2juy25d07zfv3rnlauxnbw,3r3yrb5grjg815qbpownbvr1dlvau0,KoXwfX4B,2020-0188,2020-11-19,12:30:36,12:45:37,NA,incomplete,4,shape,1,right,Red_Circle_Chess_4.jpg,Blue_Star_Chess_3.jpg,Purple_Circle_Dots_2.jpg,right,812.7500000000582,true,NA,true
KoXwfX4B,3ncn4n1h2juy25d07zfv3rnlauxnbw,3r3yrb5grjg815qbpownbvr1dlvau0,KoXwfX4B,2020-0188,2020-11-19,12:30:36,12:45:37,NA,incomplete,5,shape,0,left,Blue_Plus_Stripes_1.jpg,Green_Plus_Grid_2.jpg,Purple_Triangle_Stripes_4.jpg,left,872.204999999667,true,NA,true
KoXwfX4B,3ncn4n1h2juy25d07zfv3rnlauxnbw,3r3yrb5grjg815qbpownbvr1dlvau0,KoXwfX4B,2020-0188,2020-11-19,12:30:36,12:45:37,NA,incomplete,6,shape,0,left,Red_Circle_Stripes_4.jpg,Green_Circle_Grid_1.jpg,Purple_Plus_Stripes_3.jpg,left,757.9649999997928,true,NA,true
KoXwfX4B,3ncn4n1h2juy25d07zfv3rnlauxnbw,3r3yrb5grjg815qbpownbvr1dlvau0,KoXwfX4B,2020-0188,2020-11-19,12:30:36,12:45:37,NA,incomplete,7,shape,1,left,Red_Plus_Stripes_2.jpg,Green_Plus_Dots_4.jpg,Purple_Circle_Stripes_3.jpg,left,941.4649999998801,true,NA,true
KoXwfX4B,3ncn4n1h2juy25d07zfv3rnlauxnbw,3r3yrb5grjg815qbpownbvr1dlvau0,KoXwfX4B,2020-0188,2020-11-19,12:30:36,12:45:37,NA,incomplete,8,shape,1,left,Green_Plus_Chess_2.jpg,Purple_Plus_Stripes_4.jpg,Red_Circle_Chess_3.jpg,left,935.6149999994086,true,NA,true
KoXwfX4B,3ncn4n1h2juy25d07zfv3rnlauxnbw,3r3yrb5grjg815qbpownbvr1dlvau0,KoXwfX4B,2020-0188,2020-11-19,12:30:36,12:45:37,NA,incomplete,9,shape,1,left,Blue_Triangle_Grid_3.jpg,Purple_Triangle_Chess_4.jpg,Green_Star_Grid_1.jpg,left,857.3850000002712,true,NA,true
KoXwfX4B,3ncn4n1h2juy25d07zfv3rnlauxnbw,3r3yrb5grjg815qbpownbvr1dlvau0,KoXwfX4B,2020-0188,2020-11-19,12:30:36,12:45:37,NA,incomplete,10,shape,0,right,Green_Triangle_Stripes_2.jpg,Purple_Plus_Stripes_1.jpg,Red_Triangle_Dots_4.jpg,right,786.8199999993376,true,NA,true
KoXwfX4B,3ncn4n1h2juy25d07zfv3rnlauxnbw,3r3yrb5grjg815qbpownbvr1dlvau0,KoXwfX4B,2020-0188,2020-11-19,12:30:36,12:45:37,NA,incomplete,11,shape,1,right,Blue_Star_Grid_3.jpg,Purple_Circle_Grid_4.jpg,Red_Star_Dots_1.jpg,right,913.1149999993795,true,NA,true
KoXwfX4B,3ncn4n1h2juy25d07zfv3rnlauxnbw,3r3yrb5grjg815qbpownbvr1dlvau0,KoXwfX4B,2020-0188,2020-11-19,12:30:36,12:45:37,NA,incomplete,12,shape,1,right,Green_Triangle_Stripes_2.jpg,Purple_Circle_Stripes_4.jpg,Blue_Triangle_Grid_3.jpg,right,768.8200000002398,true,NA,true
KoXwfX4B,3ncn4n1h2juy25d07zfv3rnlauxnbw,3r3yrb5grjg815qbpownbvr1dlvau0,KoXwfX4B,2020-0188,2020-11-19,12:30:36,12:45:37,NA,incomplete,13,shape,1,left,Red_Circle_Chess_3.jpg,Purple_Circle_Stripes_1.jpg,Blue_Triangle_Chess_4.jpg,left,724.5399999992514,true,NA,true
KoXwfX4B,3ncn4n1h2juy25d07zfv3rnlauxnbw,3r3yrb5grjg815qbpownbvr1dlvau0,KoXwfX4B,2020-0188,2020-11-19,12:30:36,12:45:37,NA,incomplete,14,shape,1,left,Green_Plus_Stripes_3.jpg,Purple_Plus_Chess_4.jpg,Red_Star_Stripes_2.jpg,left,745.9650000000547,true,NA,true
KoXwfX4B,3ncn4n1h2juy25d07zfv3rnlauxnbw,3r3yrb5grjg815qbpownbvr1dlvau0,KoXwfX4B,2020-0188,2020-11-19,12:30:36,12:45:37,NA,incomplete,15,shape,0,right,Blue_Circle_Grid_2.jpg,Green_Plus_Grid_1.jpg,Purple_Circle_Chess_4.jpg,right,674.20000000039,true,NA,true
KoXwfX4B,3ncn4n1h2juy25d07zfv3rnlauxnbw,3r3yrb5grjg815qbpownbvr1dlvau0,KoXwfX4B,2020-0188,2020-11-19,12:30:36,12:45:37,NA,incomplete,16,shape,1,right,Blue_Plus_Chess_1.jpg,Red_Triangle_Chess_3.jpg,Green_Plus_Grid_4.jpg,right,763.7549999999464,true,NA,true
KoXwfX4B,3ncn4n1h2juy25d07zfv3rnlauxnbw,3r3yrb5grjg815qbpownbvr1dlvau0,KoXwfX4B,2020-0188,2020-11-19,12:30:36,12:45:37,NA,incomplete,17,shape,1,left,Red_Circle_Grid_2.jpg,Green_Circle_Stripes_1.jpg,Purple_Star_Grid_3.jpg,left,658.6950000000652,true,NA,true
KoXwfX4B,3ncn4n1h2juy25d07zfv3rnlauxnbw,3r3yrb5grjg815qbpownbvr1dlvau0,KoXwfX4B,2020-0188,2020-11-19,12:30:36,12:45:37,NA,incomplete,18,shape,1,left,Red_Circle_Dots_1.jpg,Green_Circle_Grid_2.jpg,Purple_Triangle_Dots_3.jpg,left,631.2749999997322,true,NA,true
KoXwfX4B,3ncn4n1h2juy25d07zfv3rnlauxnbw,3r3yrb5grjg815qbpownbvr1dlvau0,KoXwfX4B,2020-0188,2020-11-19,12:30:36,12:45:37,NA,incomplete,19,shape,0,left,Purple_Circle_Grid_2.jpg,Red_Circle_Chess_1.jpg,Blue_Plus_Grid_3.jpg,left,540.3599999999569,true,NA,true
KoXwfX4B,3ncn4n1h2juy25d07zfv3rnlauxnbw,3r3yrb5grjg815qbpownbvr1dlvau0,KoXwfX4B,2020-0188,2020-11-19,12:30:36,12:45:37,NA,incomplete,20,filling,1,left,Red_Circle_Dots_2.jpg,Blue_Star_Dots_4.jpg,Green_Circle_Grid_1.jpg,left,1361.3999999997613,true,NA,true
KoXwfX4B,3ncn4n1h2juy25d07zfv3rnlauxnbw,3r3yrb5grjg815qbpownbvr1dlvau0,KoXwfX4B,2020-0188,2020-11-19,12:30:36,12:45:37,NA,incomplete,21,filling,1,left,Green_Triangle_Dots_3.jpg,Red_Star_Dots_1.jpg,Purple_Triangle_Stripes_2.jpg,left,1050.725000000035,true,NA,true
KoXwfX4B,3ncn4n1h2juy25d07zfv3rnlauxnbw,3r3yrb5grjg815qbpownbvr1dlvau0,KoXwfX4B,2020-0188,2020-11-19,12:30:36,12:45:37,NA,incomplete,22,filling,1,left,Purple_Triangle_Chess_3.jpg,Red_Star_Chess_1.jpg,Blue_Triangle_Dots_2.jpg,left,897.2450000001118,true,NA,true
KoXwfX4B,3ncn4n1h2juy25d07zfv3rnlauxnbw,3r3yrb5grjg815qbpownbvr1dlvau0,KoXwfX4B,2020-0188,2020-11-19,12:30:36,12:45:37,NA,incomplete,23,filling,1,right,Blue_Triangle_Stripes_4.jpg,Red_Triangle_Chess_3.jpg,Purple_Circle_Stripes_1.jpg,right,1054.1800000000803,true,NA,true
KoXwfX4B,3ncn4n1h2juy25d07zfv3rnlauxnbw,3r3yrb5grjg815qbpownbvr1dlvau0,KoXwfX4B,2020-0188,2020-11-19,12:30:36,12:45:37,NA,incomplete,24,filling,1,right,Blue_Triangle_Grid_1.jpg,Purple_Triangle_Dots_3.jpg,Green_Plus_Grid_2.jpg,right,1069.419999999809,true,NA,true
KoXwfX4B,3ncn4n1h2juy25d07zfv3rnlauxnbw,3r3yrb5grjg815qbpownbvr1dlvau0,KoXwfX4B,2020-0188,2020-11-19,12:30:36,12:45:37,NA,incomplete,25,filling,1,right,Red_Plus_Stripes_1.jpg,Purple_Plus_Grid_2.jpg,Green_Star_Stripes_3.jpg,right,1202.900000000227,true,NA,true
KoXwfX4B,3ncn4n1h2juy25d07zfv3rnlauxnbw,3r3yrb5grjg815qbpownbvr1dlvau0,KoXwfX4B,2020-0188,2020-11-19,12:30:36,12:45:37,NA,incomplete,26,filling,1,right,Red_Triangle_Chess_3.jpg,Green_Triangle_Grid_4.jpg,Blue_Star_Chess_1.jpg,left,1238.5300000005518,false,NA,true
KoXwfX4B,3ncn4n1h2juy25d07zfv3rnlauxnbw,3r3yrb5grjg815qbpownbvr1dlvau0,KoXwfX4B,2020-0188,2020-11-19,12:30:36,12:45:37,NA,incomplete,27,filling,1,right,Blue_Star_Dots_2.jpg,Red_Star_Chess_1.jpg,Purple_Circle_Dots_3.jpg,right,894.1350000004459,true,NA,true
KoXwfX4B,3ncn4n1h2juy25d07zfv3rnlauxnbw,3r3yrb5grjg815qbpownbvr1dlvau0,KoXwfX4B,2020-0188,2020-11-19,12:30:36,12:45:37,NA,incomplete,28,filling,0,right,Red_Circle_Dots_1.jpg,Blue_Circle_Chess_4.jpg,Green_Triangle_Dots_2.jpg,right,793.854999999865,true,NA,true
KoXwfX4B,3ncn4n1h2juy25d07zfv3rnlauxnbw,3r3yrb5grjg815qbpownbvr1dlvau0,KoXwfX4B,2020-0188,2020-11-19,12:30:36,12:45:37,NA,incomplete,29,filling,0,right,Red_Star_Stripes_3.jpg,Purple_Star_Chess_2.jpg,Blue_Plus_Stripes_1.jpg,right,1100.5399999994552,true,NA,true
KoXwfX4B,3ncn4n1h2juy25d07zfv3rnlauxnbw,3r3yrb5grjg815qbpownbvr1dlvau0,KoXwfX4B,2020-0188,2020-11-19,12:30:36,12:45:37,NA,incomplete,30,filling,1,left,Purple_Circle_Stripes_3.jpg,Green_Plus_Stripes_2.jpg,Blue_Circle_Chess_4.jpg,left,1120.7599999998056,true,NA,true
KoXwfX4B,3ncn4n1h2juy25d07zfv3rnlauxnbw,3r3yrb5grjg815qbpownbvr1dlvau0,KoXwfX4B,2020-0188,2020-11-19,12:30:36,12:45:37,NA,incomplete,31,filling,1,left,Green_Circle_Chess_3.jpg,Red_Triangle_Chess_4.jpg,Blue_Circle_Stripes_2.jpg,left,1029.1649999999208,true,NA,true
KoXwfX4B,3ncn4n1h2juy25d07zfv3rnlauxnbw,3r3yrb5grjg815qbpownbvr1dlvau0,KoXwfX4B,2020-0188,2020-11-19,12:30:36,12:45:37,NA,incomplete,32,filling,1,right,Green_Star_Dots_2.jpg,Red_Star_Grid_1.jpg,Purple_Circle_Dots_4.jpg,right,939.5150000000722,true,NA,true
KoXwfX4B,3ncn4n1h2juy25d07zfv3rnlauxnbw,3r3yrb5grjg815qbpownbvr1dlvau0,KoXwfX4B,2020-0188,2020-11-19,12:30:36,12:45:37,NA,incomplete,33,filling,1,left,Purple_Star_Grid_3.jpg,Green_Triangle_Grid_4.jpg,Blue_Star_Dots_1.jpg,left,1081.8050000007497,true,NA,true
KoXwfX4B,3ncn4n1h2juy25d07zfv3rnlauxnbw,3r3yrb5grjg815qbpownbvr1dlvau0,KoXwfX4B,2020-0188,2020-11-19,12:30:36,12:45:37,NA,incomplete,34,filling,1,left,Red_Star_Stripes_1.jpg,Purple_Triangle_Stripes_4.jpg,Blue_Star_Dots_3.jpg,left,861.6249999995343,true,NA,true
KoXwfX4B,3ncn4n1h2juy25d07zfv3rnlauxnbw,3r3yrb5grjg815qbpownbvr1dlvau0,KoXwfX4B,2020-0188,2020-11-19,12:30:36,12:45:37,NA,incomplete,35,filling,1,left,Blue_Triangle_Dots_2.jpg,Red_Circle_Dots_1.jpg,Green_Triangle_Stripes_4.jpg,left,851.2000000000698,true,NA,true
KoXwfX4B,3ncn4n1h2juy25d07zfv3rnlauxnbw,3r3yrb5grjg815qbpownbvr1dlvau0,KoXwfX4B,2020-0188,2020-11-19,12:30:36,12:45:37,NA,incomplete,36,filling,0,right,Blue_Circle_Dots_1.jpg,Red_Circle_Chess_4.jpg,Green_Triangle_Dots_3.jpg,right,966.3049999999348,true,NA,true
KoXwfX4B,3ncn4n1h2juy25d07zfv3rnlauxnbw,3r3yrb5grjg815qbpownbvr1dlvau0,KoXwfX4B,2020-0188,2020-11-19,12:30:36,12:45:37,NA,incomplete,37,filling,1,left,Green_Plus_Grid_3.jpg,Purple_Star_Grid_2.jpg,Blue_Plus_Dots_4.jpg,left,1124.4450000003562,true,NA,true
KoXwfX4B,3ncn4n1h2juy25d07zfv3rnlauxnbw,3r3yrb5grjg815qbpownbvr1dlvau0,KoXwfX4B,2020-0188,2020-11-19,12:30:36,12:45:37,NA,incomplete,38,filling,1,right,Red_Triangle_Grid_4.jpg,Blue_Triangle_Dots_2.jpg,Purple_Circle_Grid_1.jpg,right,862.484999999695,true,NA,true
KoXwfX4B,3ncn4n1h2juy25d07zfv3rnlauxnbw,3r3yrb5grjg815qbpownbvr1dlvau0,KoXwfX4B,2020-0188,2020-11-19,12:30:36,12:45:37,NA,incomplete,39,filling,1,left,Green_Circle_Dots_4.jpg,Blue_Triangle_Dots_1.jpg,Purple_Circle_Grid_2.jpg,left,866.00499999983,true,NA,true
KoXwfX4B,3ncn4n1h2juy25d07zfv3rnlauxnbw,3r3yrb5grjg815qbpownbvr1dlvau0,KoXwfX4B,2020-0188,2020-11-19,12:30:36,12:45:37,NA,incomplete,0,shape,1,right,Purple_Plus_Stripes_2.jpg,Green_Star_Stripes_3.jpg,Red_Plus_Dots_4.jpg,right,830.1300000002375,true,high,false
KoXwfX4B,3ncn4n1h2juy25d07zfv3rnlauxnbw,3r3yrb5grjg815qbpownbvr1dlvau0,KoXwfX4B,2020-0188,2020-11-19,12:30:36,12:45:37,NA,incomplete,1,shape,0,left,Purple_Plus_Grid_3.jpg,Green_Plus_Dots_1.jpg,Red_Triangle_Grid_2.jpg,left,939.8950000004261,true,high,false
KoXwfX4B,3ncn4n1h2juy25d07zfv3rnlauxnbw,3r3yrb5grjg815qbpownbvr1dlvau0,KoXwfX4B,2020-0188,2020-11-19,12:30:36,12:45:37,NA,incomplete,2,shape,1,right,Red_Triangle_Grid_4.jpg,Green_Circle_Grid_3.jpg,Purple_Triangle_Dots_2.jpg,right,940.8200000007055,true,high,false
KoXwfX4B,3ncn4n1h2juy25d07zfv3rnlauxnbw,3r3yrb5grjg815qbpownbvr1dlvau0,KoXwfX4B,2020-0188,2020-11-19,12:30:36,12:45:37,NA,incomplete,3,shape,1,right,Green_Circle_Chess_3.jpg,Red_Star_Chess_4.jpg,Blue_Circle_Stripes_1.jpg,right,760.4049999999697,true,high,false
KoXwfX4B,3ncn4n1h2juy25d07zfv3rnlauxnbw,3r3yrb5grjg815qbpownbvr1dlvau0,KoXwfX4B,2020-0188,2020-11-19,12:30:36,12:45:37,NA,incomplete,4,shape,0,left,Red_Star_Dots_3.jpg,Green_Star_Chess_2.jpg,Blue_Circle_Dots_4.jpg,left,772.5799999998417,true,high,false
KoXwfX4B,3ncn4n1h2juy25d07zfv3rnlauxnbw,3r3yrb5grjg815qbpownbvr1dlvau0,KoXwfX4B,2020-0188,2020-11-19,12:30:36,12:45:37,NA,incomplete,5,shape,1,right,Purple_Plus_Stripes_4.jpg,Red_Triangle_Stripes_3.jpg,Green_Plus_Dots_2.jpg,right,852.2950000005658,true,high,false
KoXwfX4B,3ncn4n1h2juy25d07zfv3rnlauxnbw,3r3yrb5grjg815qbpownbvr1dlvau0,KoXwfX4B,2020-0188,2020-11-19,12:30:36,12:45:37,NA,incomplete,6,shape,0,right,Purple_Triangle_Dots_3.jpg,Green_Plus_Dots_1.jpg,Red_Triangle_Chess_4.jpg,right,706.4099999997998,true,high,false
KoXwfX4B,3ncn4n1h2juy25d07zfv3rnlauxnbw,3r3yrb5grjg815qbpownbvr1dlvau0,KoXwfX4B,2020-0188,2020-11-19,12:30:36,12:45:37,NA,incomplete,7,shape,1,left,Blue_Triangle_Chess_3.jpg,Purple_Triangle_Stripes_1.jpg,Green_Plus_Chess_2.jpg,left,796.7599999992526,true,high,false
KoXwfX4B,3ncn4n1h2juy25d07zfv3rnlauxnbw,3r3yrb5grjg815qbpownbvr1dlvau0,KoXwfX4B,2020-0188,2020-11-19,12:30:36,12:45:37,NA,incomplete,8,shape,1,left,Blue_Circle_Chess_1.jpg,Green_Circle_Grid_2.jpg,Purple_Star_Chess_3.jpg,left,618.4100000000326,true,high,false
KoXwfX4B,3ncn4n1h2juy25d07zfv3rnlauxnbw,3r3yrb5grjg815qbpownbvr1dlvau0,KoXwfX4B,2020-0188,2020-11-19,12:30:36,12:45:37,NA,incomplete,9,shape,0,left,Green_Plus_Dots_2.jpg,Blue_Plus_Grid_3.jpg,Red_Circle_Dots_1.jpg,left,672.569999999716,true,high,false
KoXwfX4B,3ncn4n1h2juy25d07zfv3rnlauxnbw,3r3yrb5grjg815qbpownbvr1dlvau0,KoXwfX4B,2020-0188,2020-11-19,12:30:36,12:45:37,NA,incomplete,10,filling,0,right,Blue_Circle_Chess_1.jpg,Green_Circle_Dots_4.jpg,Purple_Star_Chess_2.jpg,left,749.3299999996088,false,high,false
KoXwfX4B,3ncn4n1h2juy25d07zfv3rnlauxnbw,3r3yrb5grjg815qbpownbvr1dlvau0,KoXwfX4B,2020-0188,2020-11-19,12:30:36,12:45:37,NA,incomplete,11,filling,0,left,Red_Circle_Chess_1.jpg,Purple_Star_Chess_2.jpg,Blue_Circle_Stripes_4.jpg,right,669.6149999998161,false,high,false
KoXwfX4B,3ncn4n1h2juy25d07zfv3rnlauxnbw,3r3yrb5grjg815qbpownbvr1dlvau0,KoXwfX4B,2020-0188,2020-11-19,12:30:36,12:45:37,NA,incomplete,12,filling,1,right,Purple_Star_Stripes_3.jpg,Green_Star_Grid_2.jpg,Blue_Circle_Stripes_1.jpg,left,689.2599999991944,false,high,false
KoXwfX4B,3ncn4n1h2juy25d07zfv3rnlauxnbw,3r3yrb5grjg815qbpownbvr1dlvau0,KoXwfX4B,2020-0188,2020-11-19,12:30:36,12:45:37,NA,incomplete,13,filling,1,right,Purple_Circle_Dots_1.jpg,Green_Circle_Stripes_2.jpg,Red_Plus_Dots_3.jpg,left,601.8649999996414,false,high,false
KoXwfX4B,3ncn4n1h2juy25d07zfv3rnlauxnbw,3r3yrb5grjg815qbpownbvr1dlvau0,KoXwfX4B,2020-0188,2020-11-19,12:30:36,12:45:37,NA,incomplete,14,filling,1,right,Blue_Plus_Chess_4.jpg,Purple_Plus_Dots_3.jpg,Green_Circle_Chess_1.jpg,right,1012.2799999999115,true,high,false
KoXwfX4B,3ncn4n1h2juy25d07zfv3rnlauxnbw,3r3yrb5grjg815qbpownbvr1dlvau0,KoXwfX4B,2020-0188,2020-11-19,12:30:36,12:45:37,NA,incomplete,15,filling,1,left,Purple_Circle_Stripes_2.jpg,Blue_Triangle_Stripes_1.jpg,Green_Circle_Dots_3.jpg,left,691.5600000002305,true,high,false
KoXwfX4B,3ncn4n1h2juy25d07zfv3rnlauxnbw,3r3yrb5grjg815qbpownbvr1dlvau0,KoXwfX4B,2020-0188,2020-11-19,12:30:36,12:45:37,NA,incomplete,16,filling,1,left,Purple_Triangle_Dots_4.jpg,Green_Star_Dots_3.jpg,Red_Triangle_Stripes_2.jpg,left,898.6549999999697,true,high,false
KoXwfX4B,3ncn4n1h2juy25d07zfv3rnlauxnbw,3r3yrb5grjg815qbpownbvr1dlvau0,KoXwfX4B,2020-0188,2020-11-19,12:30:36,12:45:37,NA,incomplete,17,filling,1,right,Blue_Plus_Grid_2.jpg,Red_Plus_Stripes_3.jpg,Green_Circle_Grid_1.jpg,left,924.7800000002608,false,high,false
KoXwfX4B,3ncn4n1h2juy25d07zfv3rnlauxnbw,3r3yrb5grjg815qbpownbvr1dlvau0,KoXwfX4B,2020-0188,2020-11-19,12:30:36,12:45:37,NA,incomplete,18,filling,0,left,Red_Plus_Dots_1.jpg,Blue_Star_Dots_2.jpg,Purple_Plus_Stripes_4.jpg,left,785.9450000005309,true,high,false
KoXwfX4B,3ncn4n1h2juy25d07zfv3rnlauxnbw,3r3yrb5grjg815qbpownbvr1dlvau0,KoXwfX4B,2020-0188,2020-11-19,12:30:36,12:45:37,NA,incomplete,19,filling,1,left,Purple_Circle_Grid_4.jpg,Blue_Star_Grid_3.jpg,Red_Circle_Dots_2.jpg,right,649.375,false,high,false
KoXwfX4B,3ncn4n1h2juy25d07zfv3rnlauxnbw,3r3yrb5grjg815qbpownbvr1dlvau0,KoXwfX4B,2020-0188,2020-11-19,12:30:36,12:45:37,NA,incomplete,20,shape,1,left,Red_Circle_Dots_2.jpg,Blue_Circle_Grid_4.jpg,Green_Star_Dots_3.jpg,left,570.7149999997928,true,high,false
KoXwfX4B,3ncn4n1h2juy25d07zfv3rnlauxnbw,3r3yrb5grjg815qbpownbvr1dlvau0,KoXwfX4B,2020-0188,2020-11-19,12:30:36,12:45:37,NA,incomplete,21,shape,1,right,Blue_Circle_Chess_4.jpg,Red_Triangle_Chess_1.jpg,Purple_Circle_Grid_3.jpg,right,762.5699999998906,true,high,false
KoXwfX4B,3ncn4n1h2juy25d07zfv3rnlauxnbw,3r3yrb5grjg815qbpownbvr1dlvau0,KoXwfX4B,2020-0188,2020-11-19,12:30:36,12:45:37,NA,incomplete,22,shape,1,left,Red_Star_Grid_4.jpg,Green_Star_Stripes_2.jpg,Blue_Circle_Grid_1.jpg,left,748.009999999369,true,high,false
KoXwfX4B,3ncn4n1h2juy25d07zfv3rnlauxnbw,3r3yrb5grjg815qbpownbvr1dlvau0,KoXwfX4B,2020-0188,2020-11-19,12:30:36,12:45:37,NA,incomplete,23,shape,1,left,Blue_Triangle_Stripes_4.jpg,Red_Triangle_Dots_2.jpg,Green_Circle_Stripes_3.jpg,left,650.7499999998254,true,high,false
KoXwfX4B,3ncn4n1h2juy25d07zfv3rnlauxnbw,3r3yrb5grjg815qbpownbvr1dlvau0,KoXwfX4B,2020-0188,2020-11-19,12:30:36,12:45:37,NA,incomplete,24,shape,0,left,Purple_Star_Grid_3.jpg,Green_Star_Stripes_4.jpg,Red_Circle_Grid_1.jpg,left,653.3749999998254,true,high,false
KoXwfX4B,3ncn4n1h2juy25d07zfv3rnlauxnbw,3r3yrb5grjg815qbpownbvr1dlvau0,KoXwfX4B,2020-0188,2020-11-19,12:30:36,12:45:37,NA,incomplete,25,shape,1,right,Purple_Plus_Grid_1.jpg,Blue_Star_Grid_4.jpg,Green_Plus_Dots_2.jpg,right,632.9249999998719,true,high,false
KoXwfX4B,3ncn4n1h2juy25d07zfv3rnlauxnbw,3r3yrb5grjg815qbpownbvr1dlvau0,KoXwfX4B,2020-0188,2020-11-19,12:30:36,12:45:37,NA,incomplete,26,shape,1,left,Blue_Plus_Dots_1.jpg,Red_Plus_Stripes_4.jpg,Purple_Triangle_Dots_3.jpg,left,593.8300000007148,true,high,false
KoXwfX4B,3ncn4n1h2juy25d07zfv3rnlauxnbw,3r3yrb5grjg815qbpownbvr1dlvau0,KoXwfX4B,2020-0188,2020-11-19,12:30:36,12:45:37,NA,incomplete,27,shape,1,right,Blue_Circle_Dots_3.jpg,Green_Triangle_Dots_1.jpg,Red_Circle_Chess_2.jpg,right,600.5249999998487,true,high,false
KoXwfX4B,3ncn4n1h2juy25d07zfv3rnlauxnbw,3r3yrb5grjg815qbpownbvr1dlvau0,KoXwfX4B,2020-0188,2020-11-19,12:30:36,12:45:37,NA,incomplete,28,shape,1,left,Green_Plus_Chess_3.jpg,Blue_Plus_Grid_4.jpg,Purple_Triangle_Chess_1.jpg,left,538.3599999995786,true,high,false
KoXwfX4B,3ncn4n1h2juy25d07zfv3rnlauxnbw,3r3yrb5grjg815qbpownbvr1dlvau0,KoXwfX4B,2020-0188,2020-11-19,12:30:36,12:45:37,NA,incomplete,29,shape,1,left,Purple_Circle_Chess_2.jpg,Green_Circle_Stripes_3.jpg,Red_Plus_Chess_4.jpg,left,503.72499999956926,true,high,false
KoXwfX4B,3ncn4n1h2juy25d07zfv3rnlauxnbw,3r3yrb5grjg815qbpownbvr1dlvau0,KoXwfX4B,2020-0188,2020-11-19,12:30:36,12:45:37,NA,incomplete,30,filling,1,left,Green_Circle_Stripes_4.jpg,Blue_Plus_Stripes_2.jpg,Purple_Circle_Chess_1.jpg,right,672.6099999996368,false,high,false
KoXwfX4B,3ncn4n1h2juy25d07zfv3rnlauxnbw,3r3yrb5grjg815qbpownbvr1dlvau0,KoXwfX4B,2020-0188,2020-11-19,12:30:36,12:45:37,NA,incomplete,31,filling,1,left,Green_Triangle_Chess_1.jpg,Blue_Star_Chess_4.jpg,Red_Triangle_Dots_2.jpg,left,842.2200000004377,true,high,false
KoXwfX4B,3ncn4n1h2juy25d07zfv3rnlauxnbw,3r3yrb5grjg815qbpownbvr1dlvau0,KoXwfX4B,2020-0188,2020-11-19,12:30:36,12:45:37,NA,incomplete,32,filling,1,right,Purple_Triangle_Stripes_4.jpg,Green_Triangle_Chess_3.jpg,Blue_Plus_Stripes_1.jpg,right,904.0999999997439,true,high,false
KoXwfX4B,3ncn4n1h2juy25d07zfv3rnlauxnbw,3r3yrb5grjg815qbpownbvr1dlvau0,KoXwfX4B,2020-0188,2020-11-19,12:30:36,12:45:37,NA,incomplete,33,filling,0,left,Green_Plus_Chess_4.jpg,Red_Triangle_Chess_2.jpg,Purple_Plus_Grid_1.jpg,left,866.6749999992899,true,high,false
KoXwfX4B,3ncn4n1h2juy25d07zfv3rnlauxnbw,3r3yrb5grjg815qbpownbvr1dlvau0,KoXwfX4B,2020-0188,2020-11-19,12:30:36,12:45:37,NA,incomplete,34,filling,1,left,Red_Triangle_Grid_3.jpg,Blue_Circle_Grid_4.jpg,Green_Triangle_Dots_1.jpg,left,853.5000000001746,true,high,false
KoXwfX4B,3ncn4n1h2juy25d07zfv3rnlauxnbw,3r3yrb5grjg815qbpownbvr1dlvau0,KoXwfX4B,2020-0188,2020-11-19,12:30:36,12:45:37,NA,incomplete,35,filling,1,left,Green_Star_Dots_2.jpg,Blue_Triangle_Dots_3.jpg,Purple_Star_Grid_4.jpg,left,717.0949999999721,true,high,false
KoXwfX4B,3ncn4n1h2juy25d07zfv3rnlauxnbw,3r3yrb5grjg815qbpownbvr1dlvau0,KoXwfX4B,2020-0188,2020-11-19,12:30:36,12:45:37,NA,incomplete,36,filling,1,right,Green_Triangle_Stripes_4.jpg,Red_Triangle_Dots_2.jpg,Blue_Plus_Stripes_3.jpg,right,707.8649999994086,true,high,false
KoXwfX4B,3ncn4n1h2juy25d07zfv3rnlauxnbw,3r3yrb5grjg815qbpownbvr1dlvau0,KoXwfX4B,2020-0188,2020-11-19,12:30:36,12:45:37,NA,incomplete,37,filling,1,left,Green_Triangle_Dots_2.jpg,Purple_Circle_Dots_3.jpg,Blue_Triangle_Stripes_1.jpg,left,670.0149999997229,true,high,false
KoXwfX4B,3ncn4n1h2juy25d07zfv3rnlauxnbw,3r3yrb5grjg815qbpownbvr1dlvau0,KoXwfX4B,2020-0188,2020-11-19,12:30:36,12:45:37,NA,incomplete,38,filling,1,left,Green_Plus_Chess_2.jpg,Blue_Triangle_Chess_3.jpg,Red_Plus_Dots_4.jpg,left,699.1749999996973,true,high,false
KoXwfX4B,3ncn4n1h2juy25d07zfv3rnlauxnbw,3r3yrb5grjg815qbpownbvr1dlvau0,KoXwfX4B,2020-0188,2020-11-19,12:30:36,12:45:37,NA,incomplete,39,filling,0,right,Blue_Plus_Grid_4.jpg,Purple_Plus_Dots_3.jpg,Green_Triangle_Grid_2.jpg,right,878.4100000002654,true,high,false
KoXwfX4B,3ncn4n1h2juy25d07zfv3rnlauxnbw,3r3yrb5grjg815qbpownbvr1dlvau0,KoXwfX4B,2020-0188,2020-11-19,12:30:36,12:45:37,NA,incomplete,40,shape,0,right,Red_Plus_Grid_1.jpg,Purple_Star_Grid_3.jpg,Green_Plus_Chess_4.jpg,left,968.7700000003679,false,high,false
KoXwfX4B,3ncn4n1h2juy25d07zfv3rnlauxnbw,3r3yrb5grjg815qbpownbvr1dlvau0,KoXwfX4B,2020-0188,2020-11-19,12:30:36,12:45:37,NA,incomplete,41,shape,1,left,Purple_Star_Stripes_2.jpg,Green_Star_Grid_1.jpg,Red_Plus_Stripes_3.jpg,right,979.9950000006356,false,high,false
KoXwfX4B,3ncn4n1h2juy25d07zfv3rnlauxnbw,3r3yrb5grjg815qbpownbvr1dlvau0,KoXwfX4B,2020-0188,2020-11-19,12:30:36,12:45:37,NA,incomplete,42,shape,0,right,Red_Plus_Dots_3.jpg,Green_Triangle_Dots_2.jpg,Purple_Plus_Chess_4.jpg,left,739.3700000002282,false,high,false
KoXwfX4B,3ncn4n1h2juy25d07zfv3rnlauxnbw,3r3yrb5grjg815qbpownbvr1dlvau0,KoXwfX4B,2020-0188,2020-11-19,12:30:36,12:45:37,NA,incomplete,43,shape,1,right,Red_Triangle_Grid_2.jpg,Purple_Star_Grid_1.jpg,Green_Triangle_Dots_4.jpg,left,836.1299999997136,false,high,false
KoXwfX4B,3ncn4n1h2juy25d07zfv3rnlauxnbw,3r3yrb5grjg815qbpownbvr1dlvau0,KoXwfX4B,2020-0188,2020-11-19,12:30:36,12:45:37,NA,incomplete,44,shape,0,right,Blue_Triangle_Dots_3.jpg,Red_Plus_Dots_1.jpg,Purple_Triangle_Grid_4.jpg,right,823.4549999997253,true,high,false
KoXwfX4B,3ncn4n1h2juy25d07zfv3rnlauxnbw,3r3yrb5grjg815qbpownbvr1dlvau0,KoXwfX4B,2020-0188,2020-11-19,12:30:36,12:45:37,NA,incomplete,45,shape,1,right,Blue_Plus_Grid_3.jpg,Red_Triangle_Grid_4.jpg,Green_Plus_Chess_2.jpg,right,736.0699999998906,true,high,false
KoXwfX4B,3ncn4n1h2juy25d07zfv3rnlauxnbw,3r3yrb5grjg815qbpownbvr1dlvau0,KoXwfX4B,2020-0188,2020-11-19,12:30:36,12:45:37,NA,incomplete,46,shape,1,left,Blue_Circle_Grid_2.jpg,Purple_Circle_Chess_3.jpg,Green_Triangle_Grid_4.jpg,left,589.7999999997555,true,high,false
KoXwfX4B,3ncn4n1h2juy25d07zfv3rnlauxnbw,3r3yrb5grjg815qbpownbvr1dlvau0,KoXwfX4B,2020-0188,2020-11-19,12:30:36,12:45:37,NA,incomplete,47,shape,0,left,Green_Star_Stripes_1.jpg,Blue_Star_Chess_2.jpg,Red_Circle_Stripes_4.jpg,left,705.0799999997253,true,high,false
KoXwfX4B,3ncn4n1h2juy25d07zfv3rnlauxnbw,3r3yrb5grjg815qbpownbvr1dlvau0,KoXwfX4B,2020-0188,2020-11-19,12:30:36,12:45:37,NA,incomplete,48,shape,1,left,Red_Triangle_Grid_4.jpg,Blue_Triangle_Stripes_2.jpg,Purple_Plus_Grid_3.jpg,left,581.8500000005006,true,high,false
KoXwfX4B,3ncn4n1h2juy25d07zfv3rnlauxnbw,3r3yrb5grjg815qbpownbvr1dlvau0,KoXwfX4B,2020-0188,2020-11-19,12:30:36,12:45:37,NA,incomplete,49,shape,1,left,Green_Triangle_Grid_4.jpg,Red_Triangle_Dots_2.jpg,Purple_Plus_Grid_3.jpg,left,582.4999999995343,true,high,false
KoXwfX4B,3ncn4n1h2juy25d07zfv3rnlauxnbw,3r3yrb5grjg815qbpownbvr1dlvau0,KoXwfX4B,2020-0188,2020-11-19,12:30:36,12:45:37,NA,incomplete,50,filling,1,left,Red_Circle_Dots_2.jpg,Green_Star_Dots_3.jpg,Purple_Circle_Chess_1.jpg,right,519.5400000002119,false,high,false
KoXwfX4B,3ncn4n1h2juy25d07zfv3rnlauxnbw,3r3yrb5grjg815qbpownbvr1dlvau0,KoXwfX4B,2020-0188,2020-11-19,12:30:36,12:45:37,NA,incomplete,51,filling,1,right,Purple_Circle_Grid_2.jpg,Blue_Circle_Chess_4.jpg,Red_Star_Grid_3.jpg,left,676.8599999995786,false,high,false
KoXwfX4B,3ncn4n1h2juy25d07zfv3rnlauxnbw,3r3yrb5grjg815qbpownbvr1dlvau0,KoXwfX4B,2020-0188,2020-11-19,12:30:36,12:45:37,NA,incomplete,52,filling,1,right,Red_Circle_Chess_2.jpg,Purple_Circle_Stripes_3.jpg,Green_Star_Chess_1.jpg,right,766.0850000001956,true,high,false
KoXwfX4B,3ncn4n1h2juy25d07zfv3rnlauxnbw,3r3yrb5grjg815qbpownbvr1dlvau0,KoXwfX4B,2020-0188,2020-11-19,12:30:36,12:45:37,NA,incomplete,53,filling,1,right,Red_Circle_Grid_2.jpg,Purple_Circle_Dots_1.jpg,Blue_Triangle_Grid_3.jpg,right,751.7849999995087,true,high,false
KoXwfX4B,3ncn4n1h2juy25d07zfv3rnlauxnbw,3r3yrb5grjg815qbpownbvr1dlvau0,KoXwfX4B,2020-0188,2020-11-19,12:30:36,12:45:37,NA,incomplete,54,filling,1,left,Red_Triangle_Stripes_3.jpg,Purple_Star_Stripes_2.jpg,Green_Triangle_Dots_4.jpg,left,768.2900000000373,true,high,false
KoXwfX4B,3ncn4n1h2juy25d07zfv3rnlauxnbw,3r3yrb5grjg815qbpownbvr1dlvau0,KoXwfX4B,2020-0188,2020-11-19,12:30:36,12:45:37,NA,incomplete,55,filling,1,left,Blue_Star_Grid_2.jpg,Purple_Plus_Grid_3.jpg,Green_Star_Dots_4.jpg,left,807.1650000001537,true,high,false
KoXwfX4B,3ncn4n1h2juy25d07zfv3rnlauxnbw,3r3yrb5grjg815qbpownbvr1dlvau0,KoXwfX4B,2020-0188,2020-11-19,12:30:36,12:45:37,NA,incomplete,56,filling,1,left,Red_Star_Chess_3.jpg,Purple_Circle_Chess_4.jpg,Blue_Star_Stripes_1.jpg,right,901.4150000002701,false,high,false
KoXwfX4B,3ncn4n1h2juy25d07zfv3rnlauxnbw,3r3yrb5grjg815qbpownbvr1dlvau0,KoXwfX4B,2020-0188,2020-11-19,12:30:36,12:45:37,NA,incomplete,57,filling,1,right,Purple_Plus_Grid_1.jpg,Green_Plus_Dots_2.jpg,Blue_Circle_Grid_3.jpg,right,878.4599999999045,true,high,false
KoXwfX4B,3ncn4n1h2juy25d07zfv3rnlauxnbw,3r3yrb5grjg815qbpownbvr1dlvau0,KoXwfX4B,2020-0188,2020-11-19,12:30:36,12:45:37,NA,incomplete,58,filling,1,left,Red_Circle_Chess_4.jpg,Green_Star_Chess_2.jpg,Blue_Circle_Grid_1.jpg,left,738.0849999999627,true,high,false
KoXwfX4B,3ncn4n1h2juy25d07zfv3rnlauxnbw,3r3yrb5grjg815qbpownbvr1dlvau0,KoXwfX4B,2020-0188,2020-11-19,12:30:36,12:45:37,NA,incomplete,59,filling,1,right,Green_Circle_Stripes_3.jpg,Red_Circle_Chess_2.jpg,Purple_Plus_Stripes_4.jpg,right,839.7649999997229,true,high,false
KoXwfX4B,3ncn4n1h2juy25d07zfv3rnlauxnbw,3r3yrb5grjg815qbpownbvr1dlvau0,KoXwfX4B,2020-0188,2020-11-19,12:30:36,12:45:37,NA,incomplete,60,shape,0,right,Blue_Triangle_Stripes_3.jpg,Purple_Circle_Stripes_1.jpg,Red_Triangle_Grid_2.jpg,left,789.6350000000675,false,high,false
KoXwfX4B,3ncn4n1h2juy25d07zfv3rnlauxnbw,3r3yrb5grjg815qbpownbvr1dlvau0,KoXwfX4B,2020-0188,2020-11-19,12:30:36,12:45:37,NA,incomplete,61,shape,1,left,Blue_Plus_Chess_2.jpg,Purple_Plus_Stripes_1.jpg,Green_Star_Chess_3.jpg,right,826.0049999998882,false,high,false
KoXwfX4B,3ncn4n1h2juy25d07zfv3rnlauxnbw,3r3yrb5grjg815qbpownbvr1dlvau0,KoXwfX4B,2020-0188,2020-11-19,12:30:36,12:45:37,NA,incomplete,62,shape,1,left,Purple_Star_Stripes_1.jpg,Red_Star_Chess_2.jpg,Green_Circle_Stripes_3.jpg,left,727.2849999999744,true,high,false
KoXwfX4B,3ncn4n1h2juy25d07zfv3rnlauxnbw,3r3yrb5grjg815qbpownbvr1dlvau0,KoXwfX4B,2020-0188,2020-11-19,12:30:36,12:45:37,NA,incomplete,63,shape,1,right,Purple_Triangle_Dots_3.jpg,Red_Plus_Dots_2.jpg,Green_Triangle_Stripes_4.jpg,left,912.3799999997718,false,high,false
KoXwfX4B,3ncn4n1h2juy25d07zfv3rnlauxnbw,3r3yrb5grjg815qbpownbvr1dlvau0,KoXwfX4B,2020-0188,2020-11-19,12:30:36,12:45:37,NA,incomplete,64,shape,1,right,Blue_Circle_Dots_2.jpg,Green_Plus_Dots_1.jpg,Red_Circle_Chess_3.jpg,right,773.0900000006077,true,high,false
KoXwfX4B,3ncn4n1h2juy25d07zfv3rnlauxnbw,3r3yrb5grjg815qbpownbvr1dlvau0,KoXwfX4B,2020-0188,2020-11-19,12:30:36,12:45:37,NA,incomplete,65,shape,1,right,Purple_Plus_Stripes_1.jpg,Green_Circle_Stripes_2.jpg,Blue_Plus_Grid_4.jpg,right,820.020000000135,true,high,false
KoXwfX4B,3ncn4n1h2juy25d07zfv3rnlauxnbw,3r3yrb5grjg815qbpownbvr1dlvau0,KoXwfX4B,2020-0188,2020-11-19,12:30:36,12:45:37,NA,incomplete,66,shape,1,right,Blue_Circle_Stripes_3.jpg,Red_Plus_Stripes_4.jpg,Green_Circle_Chess_2.jpg,right,677.1950000001816,true,high,false
KoXwfX4B,3ncn4n1h2juy25d07zfv3rnlauxnbw,3r3yrb5grjg815qbpownbvr1dlvau0,KoXwfX4B,2020-0188,2020-11-19,12:30:36,12:45:37,NA,incomplete,67,shape,1,left,Red_Triangle_Chess_3.jpg,Green_Triangle_Grid_4.jpg,Blue_Plus_Chess_1.jpg,left,554.669999999518,true,high,false
KoXwfX4B,3ncn4n1h2juy25d07zfv3rnlauxnbw,3r3yrb5grjg815qbpownbvr1dlvau0,KoXwfX4B,2020-0188,2020-11-19,12:30:36,12:45:37,NA,incomplete,68,shape,0,right,Red_Triangle_Stripes_2.jpg,Green_Star_Stripes_3.jpg,Purple_Triangle_Dots_1.jpg,right,647.769999999553,true,high,false
KoXwfX4B,3ncn4n1h2juy25d07zfv3rnlauxnbw,3r3yrb5grjg815qbpownbvr1dlvau0,KoXwfX4B,2020-0188,2020-11-19,12:30:36,12:45:37,NA,incomplete,69,shape,1,right,Red_Star_Dots_1.jpg,Green_Triangle_Dots_3.jpg,Blue_Star_Grid_2.jpg,right,712.6049999996903,true,high,false
KoXwfX4B,3ncn4n1h2juy25d07zfv3rnlauxnbw,3r3yrb5grjg815qbpownbvr1dlvau0,KoXwfX4B,2020-0188,2020-11-19,12:30:36,12:45:37,NA,incomplete,70,filling,1,right,Blue_Circle_Dots_4.jpg,Purple_Circle_Grid_2.jpg,Green_Triangle_Dots_3.jpg,left,582.6699999997509,false,high,false
KoXwfX4B,3ncn4n1h2juy25d07zfv3rnlauxnbw,3r3yrb5grjg815qbpownbvr1dlvau0,KoXwfX4B,2020-0188,2020-11-19,12:30:36,12:45:37,NA,incomplete,71,filling,1,right,Red_Plus_Grid_3.jpg,Purple_Plus_Dots_1.jpg,Green_Circle_Grid_2.jpg,right,1043.3899999997811,true,high,false
KoXwfX4B,3ncn4n1h2juy25d07zfv3rnlauxnbw,3r3yrb5grjg815qbpownbvr1dlvau0,KoXwfX4B,2020-0188,2020-11-19,12:30:36,12:45:37,NA,incomplete,72,filling,1,left,Green_Plus_Chess_2.jpg,Blue_Star_Chess_1.jpg,Red_Plus_Grid_3.jpg,left,851.9349999997066,true,high,false
KoXwfX4B,3ncn4n1h2juy25d07zfv3rnlauxnbw,3r3yrb5grjg815qbpownbvr1dlvau0,KoXwfX4B,2020-0188,2020-11-19,12:30:36,12:45:37,NA,incomplete,73,filling,1,left,Blue_Triangle_Chess_4.jpg,Green_Circle_Chess_3.jpg,Red_Triangle_Grid_2.jpg,left,859.9549999998999,true,high,false
KoXwfX4B,3ncn4n1h2juy25d07zfv3rnlauxnbw,3r3yrb5grjg815qbpownbvr1dlvau0,KoXwfX4B,2020-0188,2020-11-19,12:30:36,12:45:37,NA,incomplete,74,filling,1,left,Red_Triangle_Dots_2.jpg,Blue_Plus_Dots_1.jpg,Purple_Triangle_Stripes_4.jpg,left,877.6050000005635,true,high,false
KoXwfX4B,3ncn4n1h2juy25d07zfv3rnlauxnbw,3r3yrb5grjg815qbpownbvr1dlvau0,KoXwfX4B,2020-0188,2020-11-19,12:30:36,12:45:37,NA,incomplete,75,filling,1,left,Purple_Circle_Dots_3.jpg,Red_Plus_Dots_2.jpg,Blue_Circle_Stripes_4.jpg,left,742.9750000001513,true,high,false
KoXwfX4B,3ncn4n1h2juy25d07zfv3rnlauxnbw,3r3yrb5grjg815qbpownbvr1dlvau0,KoXwfX4B,2020-0188,2020-11-19,12:30:36,12:45:37,NA,incomplete,76,filling,1,left,Purple_Triangle_Dots_2.jpg,Green_Circle_Dots_4.jpg,Blue_Triangle_Grid_3.jpg,left,885.3949999993783,true,high,false
KoXwfX4B,3ncn4n1h2juy25d07zfv3rnlauxnbw,3r3yrb5grjg815qbpownbvr1dlvau0,KoXwfX4B,2020-0188,2020-11-19,12:30:36,12:45:37,NA,incomplete,77,filling,1,left,Blue_Star_Grid_4.jpg,Purple_Triangle_Grid_1.jpg,Green_Star_Dots_3.jpg,left,828.3350000001374,true,high,false
KoXwfX4B,3ncn4n1h2juy25d07zfv3rnlauxnbw,3r3yrb5grjg815qbpownbvr1dlvau0,KoXwfX4B,2020-0188,2020-11-19,12:30:36,12:45:37,NA,incomplete,78,filling,1,left,Green_Plus_Dots_3.jpg,Blue_Star_Dots_1.jpg,Purple_Plus_Stripes_2.jpg,left,760.7449999995879,true,high,false
KoXwfX4B,3ncn4n1h2juy25d07zfv3rnlauxnbw,3r3yrb5grjg815qbpownbvr1dlvau0,KoXwfX4B,2020-0188,2020-11-19,12:30:36,12:45:37,NA,incomplete,79,filling,1,right,Green_Plus_Dots_1.jpg,Blue_Plus_Chess_4.jpg,Red_Circle_Dots_3.jpg,right,769.8150000005844,true,high,false
KoXwfX4B,3ncn4n1h2juy25d07zfv3rnlauxnbw,3r3yrb5grjg815qbpownbvr1dlvau0,KoXwfX4B,2020-0188,2020-11-19,12:30:36,12:45:37,NA,incomplete,80,shape,1,right,Green_Star_Dots_4.jpg,Red_Plus_Dots_3.jpg,Blue_Star_Chess_2.jpg,left,770.7399999999325,false,high,false
KoXwfX4B,3ncn4n1h2juy25d07zfv3rnlauxnbw,3r3yrb5grjg815qbpownbvr1dlvau0,KoXwfX4B,2020-0188,2020-11-19,12:30:36,12:45:37,NA,incomplete,81,shape,1,left,Blue_Star_Dots_3.jpg,Red_Star_Grid_2.jpg,Green_Circle_Dots_4.jpg,right,935.7600000003004,false,high,false
KoXwfX4B,3ncn4n1h2juy25d07zfv3rnlauxnbw,3r3yrb5grjg815qbpownbvr1dlvau0,KoXwfX4B,2020-0188,2020-11-19,12:30:36,12:45:37,NA,incomplete,82,shape,1,left,Purple_Star_Dots_4.jpg,Green_Star_Stripes_1.jpg,Red_Triangle_Dots_3.jpg,left,862.2400000003981,true,high,false
KoXwfX4B,3ncn4n1h2juy25d07zfv3rnlauxnbw,3r3yrb5grjg815qbpownbvr1dlvau0,KoXwfX4B,2020-0188,2020-11-19,12:30:36,12:45:37,NA,incomplete,83,shape,1,right,Purple_Triangle_Stripes_3.jpg,Blue_Circle_Stripes_4.jpg,Green_Triangle_Dots_2.jpg,right,744.4399999994785,true,high,false
KoXwfX4B,3ncn4n1h2juy25d07zfv3rnlauxnbw,3r3yrb5grjg815qbpownbvr1dlvau0,KoXwfX4B,2020-0188,2020-11-19,12:30:36,12:45:37,NA,incomplete,84,shape,1,right,Green_Plus_Stripes_4.jpg,Purple_Star_Stripes_3.jpg,Blue_Plus_Chess_1.jpg,right,823.7699999999604,true,high,false
KoXwfX4B,3ncn4n1h2juy25d07zfv3rnlauxnbw,3r3yrb5grjg815qbpownbvr1dlvau0,KoXwfX4B,2020-0188,2020-11-19,12:30:36,12:45:37,NA,incomplete,85,shape,0,right,Blue_Star_Chess_1.jpg,Green_Circle_Chess_3.jpg,Purple_Star_Stripes_2.jpg,right,750.2499999991851,true,high,false
KoXwfX4B,3ncn4n1h2juy25d07zfv3rnlauxnbw,3r3yrb5grjg815qbpownbvr1dlvau0,KoXwfX4B,2020-0188,2020-11-19,12:30:36,12:45:37,NA,incomplete,86,shape,1,left,Green_Triangle_Stripes_1.jpg,Red_Triangle_Dots_3.jpg,Purple_Circle_Stripes_2.jpg,left,756.2349999998114,true,high,false
KoXwfX4B,3ncn4n1h2juy25d07zfv3rnlauxnbw,3r3yrb5grjg815qbpownbvr1dlvau0,KoXwfX4B,2020-0188,2020-11-19,12:30:36,12:45:37,NA,incomplete,87,shape,0,right,Red_Plus_Grid_1.jpg,Purple_Star_Grid_4.jpg,Blue_Plus_Stripes_3.jpg,right,762.0299999998533,true,high,false
KoXwfX4B,3ncn4n1h2juy25d07zfv3rnlauxnbw,3r3yrb5grjg815qbpownbvr1dlvau0,KoXwfX4B,2020-0188,2020-11-19,12:30:36,12:45:37,NA,incomplete,88,shape,1,right,Red_Plus_Stripes_1.jpg,Purple_Star_Stripes_2.jpg,Green_Plus_Grid_4.jpg,right,672.12000000017,true,high,false
KoXwfX4B,3ncn4n1h2juy25d07zfv3rnlauxnbw,3r3yrb5grjg815qbpownbvr1dlvau0,KoXwfX4B,2020-0188,2020-11-19,12:30:36,12:45:37,NA,incomplete,89,shape,1,right,Red_Plus_Stripes_3.jpg,Green_Triangle_Stripes_2.jpg,Purple_Plus_Chess_1.jpg,right,891.5800000004238,true,high,false
KoXwfX4B,3ncn4n1h2juy25d07zfv3rnlauxnbw,3r3yrb5grjg815qbpownbvr1dlvau0,KoXwfX4B,2020-0188,2020-11-19,12:30:36,12:45:37,NA,incomplete,90,filling,0,left,Purple_Plus_Dots_1.jpg,Red_Triangle_Dots_3.jpg,Blue_Plus_Stripes_4.jpg,right,737.909999999858,false,high,false
KoXwfX4B,3ncn4n1h2juy25d07zfv3rnlauxnbw,3r3yrb5grjg815qbpownbvr1dlvau0,KoXwfX4B,2020-0188,2020-11-19,12:30:36,12:45:37,NA,incomplete,91,filling,0,right,Red_Star_Chess_1.jpg,Blue_Star_Stripes_2.jpg,Purple_Triangle_Chess_4.jpg,left,632.590000000142,false,high,false
KoXwfX4B,3ncn4n1h2juy25d07zfv3rnlauxnbw,3r3yrb5grjg815qbpownbvr1dlvau0,KoXwfX4B,2020-0188,2020-11-19,12:30:36,12:45:37,NA,incomplete,92,filling,1,right,Blue_Triangle_Grid_1.jpg,Purple_Triangle_Stripes_2.jpg,Red_Circle_Grid_3.jpg,left,657.7799999995623,false,high,false
KoXwfX4B,3ncn4n1h2juy25d07zfv3rnlauxnbw,3r3yrb5grjg815qbpownbvr1dlvau0,KoXwfX4B,2020-0188,2020-11-19,12:30:36,12:45:37,NA,incomplete,93,filling,0,right,Red_Plus_Dots_4.jpg,Blue_Plus_Stripes_2.jpg,Green_Circle_Dots_3.jpg,left,627.5999999998021,false,high,false
KoXwfX4B,3ncn4n1h2juy25d07zfv3rnlauxnbw,3r3yrb5grjg815qbpownbvr1dlvau0,KoXwfX4B,2020-0188,2020-11-19,12:30:36,12:45:37,NA,incomplete,94,filling,1,right,Red_Plus_Grid_2.jpg,Green_Plus_Chess_1.jpg,Blue_Circle_Grid_4.jpg,left,611.2800000000861,false,high,false
KoXwfX4B,3ncn4n1h2juy25d07zfv3rnlauxnbw,3r3yrb5grjg815qbpownbvr1dlvau0,KoXwfX4B,2020-0188,2020-11-19,12:30:36,12:45:37,NA,incomplete,95,filling,0,right,Purple_Triangle_Stripes_4.jpg,Green_Triangle_Grid_3.jpg,Red_Star_Stripes_2.jpg,right,866.2949999998091,true,high,false
KoXwfX4B,3ncn4n1h2juy25d07zfv3rnlauxnbw,3r3yrb5grjg815qbpownbvr1dlvau0,KoXwfX4B,2020-0188,2020-11-19,12:30:36,12:45:37,NA,incomplete,96,filling,1,right,Blue_Triangle_Grid_1.jpg,Red_Triangle_Stripes_2.jpg,Green_Circle_Grid_3.jpg,right,858.7649999998976,true,high,false
KoXwfX4B,3ncn4n1h2juy25d07zfv3rnlauxnbw,3r3yrb5grjg815qbpownbvr1dlvau0,KoXwfX4B,2020-0188,2020-11-19,12:30:36,12:45:37,NA,incomplete,97,filling,1,left,Purple_Circle_Stripes_4.jpg,Blue_Star_Stripes_3.jpg,Green_Circle_Dots_1.jpg,left,724.8600000002189,true,high,false
KoXwfX4B,3ncn4n1h2juy25d07zfv3rnlauxnbw,3r3yrb5grjg815qbpownbvr1dlvau0,KoXwfX4B,2020-0188,2020-11-19,12:30:36,12:45:37,NA,incomplete,98,filling,0,left,Blue_Plus_Dots_3.jpg,Purple_Circle_Dots_4.jpg,Green_Plus_Grid_1.jpg,left,813.8699999999953,true,high,false
KoXwfX4B,3ncn4n1h2juy25d07zfv3rnlauxnbw,3r3yrb5grjg815qbpownbvr1dlvau0,KoXwfX4B,2020-0188,2020-11-19,12:30:36,12:45:37,NA,incomplete,99,filling,1,left,Red_Triangle_Stripes_3.jpg,Blue_Plus_Stripes_1.jpg,Green_Triangle_Dots_2.jpg,left,820.3249999997206,true,high,false
KoXwfX4B,3ncn4n1h2juy25d07zfv3rnlauxnbw,3r3yrb5grjg815qbpownbvr1dlvau0,KoXwfX4B,2020-0188,2020-11-19,12:30:36,12:45:37,NA,incomplete,100,shape,1,right,Red_Triangle_Grid_4.jpg,Blue_Star_Grid_2.jpg,Green_Triangle_Dots_1.jpg,left,801.1299999998882,false,high,false
KoXwfX4B,3ncn4n1h2juy25d07zfv3rnlauxnbw,3r3yrb5grjg815qbpownbvr1dlvau0,KoXwfX4B,2020-0188,2020-11-19,12:30:36,12:45:37,NA,incomplete,101,shape,1,left,Purple_Triangle_Grid_3.jpg,Blue_Triangle_Dots_4.jpg,Green_Plus_Grid_2.jpg,left,652.7249999998603,true,high,false
KoXwfX4B,3ncn4n1h2juy25d07zfv3rnlauxnbw,3r3yrb5grjg815qbpownbvr1dlvau0,KoXwfX4B,2020-0188,2020-11-19,12:30:36,12:45:37,NA,incomplete,102,shape,1,left,Red_Star_Chess_1.jpg,Green_Star_Stripes_2.jpg,Purple_Circle_Chess_3.jpg,left,736.6049999999814,true,high,false
KoXwfX4B,3ncn4n1h2juy25d07zfv3rnlauxnbw,3r3yrb5grjg815qbpownbvr1dlvau0,KoXwfX4B,2020-0188,2020-11-19,12:30:36,12:45:37,NA,incomplete,103,shape,1,right,Purple_Star_Stripes_4.jpg,Red_Plus_Stripes_1.jpg,Green_Star_Chess_3.jpg,right,713.4599999999627,true,high,false
KoXwfX4B,3ncn4n1h2juy25d07zfv3rnlauxnbw,3r3yrb5grjg815qbpownbvr1dlvau0,KoXwfX4B,2020-0188,2020-11-19,12:30:36,12:45:37,NA,incomplete,104,shape,1,right,Blue_Plus_Chess_3.jpg,Red_Triangle_Chess_4.jpg,Purple_Plus_Grid_1.jpg,right,905.6600000002654,true,high,false
KoXwfX4B,3ncn4n1h2juy25d07zfv3rnlauxnbw,3r3yrb5grjg815qbpownbvr1dlvau0,KoXwfX4B,2020-0188,2020-11-19,12:30:36,12:45:37,NA,incomplete,105,shape,1,right,Purple_Triangle_Dots_4.jpg,Red_Circle_Dots_3.jpg,Blue_Triangle_Stripes_1.jpg,right,675.2550000000047,true,high,false
KoXwfX4B,3ncn4n1h2juy25d07zfv3rnlauxnbw,3r3yrb5grjg815qbpownbvr1dlvau0,KoXwfX4B,2020-0188,2020-11-19,12:30:36,12:45:37,NA,incomplete,106,shape,1,left,Purple_Plus_Dots_1.jpg,Blue_Plus_Chess_3.jpg,Green_Triangle_Dots_4.jpg,left,640.2449999996461,true,high,false
KoXwfX4B,3ncn4n1h2juy25d07zfv3rnlauxnbw,3r3yrb5grjg815qbpownbvr1dlvau0,KoXwfX4B,2020-0188,2020-11-19,12:30:36,12:45:37,NA,incomplete,107,shape,0,left,Blue_Circle_Grid_2.jpg,Red_Circle_Chess_4.jpg,Green_Triangle_Grid_3.jpg,left,529.1600000000326,true,high,false
KoXwfX4B,3ncn4n1h2juy25d07zfv3rnlauxnbw,3r3yrb5grjg815qbpownbvr1dlvau0,KoXwfX4B,2020-0188,2020-11-19,12:30:36,12:45:37,NA,incomplete,108,shape,1,left,Green_Plus_Chess_3.jpg,Red_Plus_Dots_4.jpg,Purple_Triangle_Chess_1.jpg,left,642.7800000000279,true,high,false
KoXwfX4B,3ncn4n1h2juy25d07zfv3rnlauxnbw,3r3yrb5grjg815qbpownbvr1dlvau0,KoXwfX4B,2020-0188,2020-11-19,12:30:36,12:45:37,NA,incomplete,109,shape,1,left,Purple_Plus_Chess_1.jpg,Blue_Plus_Grid_2.jpg,Red_Star_Chess_4.jpg,left,527.065000000177,true,high,false
KoXwfX4B,3ncn4n1h2juy25d07zfv3rnlauxnbw,3r3yrb5grjg815qbpownbvr1dlvau0,KoXwfX4B,2020-0188,2020-11-19,12:30:36,12:45:37,NA,incomplete,110,filling,1,left,Purple_Star_Chess_3.jpg,Green_Plus_Chess_4.jpg,Blue_Star_Dots_2.jpg,right,730.5099999994272,false,high,false
KoXwfX4B,3ncn4n1h2juy25d07zfv3rnlauxnbw,3r3yrb5grjg815qbpownbvr1dlvau0,KoXwfX4B,2020-0188,2020-11-19,12:30:36,12:45:37,NA,incomplete,111,filling,1,right,Blue_Plus_Grid_1.jpg,Purple_Plus_Dots_2.jpg,Red_Circle_Grid_4.jpg,left,591.4650000004331,false,high,false
KoXwfX4B,3ncn4n1h2juy25d07zfv3rnlauxnbw,3r3yrb5grjg815qbpownbvr1dlvau0,KoXwfX4B,2020-0188,2020-11-19,12:30:36,12:45:37,NA,incomplete,112,filling,1,right,Red_Star_Chess_4.jpg,Blue_Star_Dots_3.jpg,Purple_Circle_Chess_2.jpg,right,893.8799999996554,true,high,false
KoXwfX4B,3ncn4n1h2juy25d07zfv3rnlauxnbw,3r3yrb5grjg815qbpownbvr1dlvau0,KoXwfX4B,2020-0188,2020-11-19,12:30:36,12:45:37,NA,incomplete,113,filling,1,left,Green_Star_Chess_3.jpg,Red_Circle_Chess_1.jpg,Purple_Star_Dots_4.jpg,left,702.1999999997206,true,high,false
KoXwfX4B,3ncn4n1h2juy25d07zfv3rnlauxnbw,3r3yrb5grjg815qbpownbvr1dlvau0,KoXwfX4B,2020-0188,2020-11-19,12:30:36,12:45:37,NA,incomplete,114,filling,1,left,Red_Circle_Grid_3.jpg,Blue_Star_Grid_4.jpg,Green_Circle_Chess_1.jpg,right,699.2449999997625,false,high,false
KoXwfX4B,3ncn4n1h2juy25d07zfv3rnlauxnbw,3r3yrb5grjg815qbpownbvr1dlvau0,KoXwfX4B,2020-0188,2020-11-19,12:30:36,12:45:37,NA,incomplete,115,filling,1,right,Blue_Plus_Dots_3.jpg,Purple_Plus_Chess_4.jpg,Red_Circle_Dots_2.jpg,right,785.1749999999302,true,high,false
KoXwfX4B,3ncn4n1h2juy25d07zfv3rnlauxnbw,3r3yrb5grjg815qbpownbvr1dlvau0,KoXwfX4B,2020-0188,2020-11-19,12:30:36,12:45:37,NA,incomplete,116,filling,1,right,Red_Circle_Dots_3.jpg,Blue_Circle_Chess_2.jpg,Green_Triangle_Dots_4.jpg,right,755.934999999241,true,high,false
KoXwfX4B,3ncn4n1h2juy25d07zfv3rnlauxnbw,3r3yrb5grjg815qbpownbvr1dlvau0,KoXwfX4B,2020-0188,2020-11-19,12:30:36,12:45:37,NA,incomplete,117,filling,1,right,Green_Star_Dots_1.jpg,Blue_Star_Stripes_3.jpg,Purple_Circle_Dots_4.jpg,right,793.429999999702,true,high,false
KoXwfX4B,3ncn4n1h2juy25d07zfv3rnlauxnbw,3r3yrb5grjg815qbpownbvr1dlvau0,KoXwfX4B,2020-0188,2020-11-19,12:30:36,12:45:37,NA,incomplete,118,filling,1,right,Red_Triangle_Chess_4.jpg,Blue_Triangle_Dots_1.jpg,Green_Star_Chess_3.jpg,right,794.3450000002049,true,high,false
KoXwfX4B,3ncn4n1h2juy25d07zfv3rnlauxnbw,3r3yrb5grjg815qbpownbvr1dlvau0,KoXwfX4B,2020-0188,2020-11-19,12:30:36,12:45:37,NA,incomplete,119,filling,1,left,Green_Plus_Dots_3.jpg,Blue_Circle_Dots_4.jpg,Red_Plus_Grid_2.jpg,left,631.7649999990826,true,high,false
KoXwfX4B,3ncn4n1h2juy25d07zfv3rnlauxnbw,3r3yrb5grjg815qbpownbvr1dlvau0,KoXwfX4B,2020-0188,2020-11-19,12:30:36,12:45:37,NA,incomplete,120,number,1,left,Red_Triangle_Grid_2.jpg,Green_Star_Stripes_2.jpg,Red_Circle_Dots_1.jpg,right,723.7150000000838,false,high,false
KoXwfX4B,3ncn4n1h2juy25d07zfv3rnlauxnbw,3r3yrb5grjg815qbpownbvr1dlvau0,KoXwfX4B,2020-0188,2020-11-19,12:30:36,12:45:37,NA,incomplete,121,number,0,left,Red_Circle_Stripes_1.jpg,Blue_Star_Grid_1.jpg,Red_Triangle_Chess_4.jpg,left,604.9649999995017,true,high,false
KoXwfX4B,3ncn4n1h2juy25d07zfv3rnlauxnbw,3r3yrb5grjg815qbpownbvr1dlvau0,KoXwfX4B,2020-0188,2020-11-19,12:30:36,12:45:37,NA,incomplete,122,number,1,left,Green_Circle_Grid_1.jpg,Blue_Plus_Dots_1.jpg,Green_Star_Chess_4.jpg,left,597.6049999999814,true,high,false
KoXwfX4B,3ncn4n1h2juy25d07zfv3rnlauxnbw,3r3yrb5grjg815qbpownbvr1dlvau0,KoXwfX4B,2020-0188,2020-11-19,12:30:36,12:45:37,NA,incomplete,123,number,1,right,Purple_Star_Chess_4.jpg,Purple_Triangle_Stripes_1.jpg,Red_Circle_Dots_4.jpg,right,691.6300000002375,true,high,false
KoXwfX4B,3ncn4n1h2juy25d07zfv3rnlauxnbw,3r3yrb5grjg815qbpownbvr1dlvau0,KoXwfX4B,2020-0188,2020-11-19,12:30:36,12:45:37,NA,incomplete,124,number,0,left,Green_Triangle_Chess_4.jpg,Purple_Star_Dots_4.jpg,Green_Plus_Grid_3.jpg,left,684.7849999994505,true,high,false
KoXwfX4B,3ncn4n1h2juy25d07zfv3rnlauxnbw,3r3yrb5grjg815qbpownbvr1dlvau0,KoXwfX4B,2020-0188,2020-11-19,12:30:36,12:45:37,NA,incomplete,125,number,1,left,Green_Star_Stripes_4.jpg,Red_Circle_Chess_4.jpg,Green_Triangle_Dots_3.jpg,right,666.9050000000279,false,high,false
KoXwfX4B,3ncn4n1h2juy25d07zfv3rnlauxnbw,3r3yrb5grjg815qbpownbvr1dlvau0,KoXwfX4B,2020-0188,2020-11-19,12:30:36,12:45:37,NA,incomplete,126,number,1,right,Green_Star_Grid_3.jpg,Green_Triangle_Dots_1.jpg,Purple_Plus_Stripes_3.jpg,left,512.1050000006799,false,high,false
KoXwfX4B,3ncn4n1h2juy25d07zfv3rnlauxnbw,3r3yrb5grjg815qbpownbvr1dlvau0,KoXwfX4B,2020-0188,2020-11-19,12:30:36,12:45:37,NA,incomplete,127,number,0,left,Red_Circle_Chess_4.jpg,Blue_Plus_Dots_4.jpg,Red_Triangle_Stripes_2.jpg,left,698.4099999999162,true,high,false
KoXwfX4B,3ncn4n1h2juy25d07zfv3rnlauxnbw,3r3yrb5grjg815qbpownbvr1dlvau0,KoXwfX4B,2020-0188,2020-11-19,12:30:36,12:45:37,NA,incomplete,128,number,1,left,Green_Star_Stripes_3.jpg,Red_Triangle_Grid_3.jpg,Green_Plus_Dots_2.jpg,left,814.2899999993388,true,high,false
KoXwfX4B,3ncn4n1h2juy25d07zfv3rnlauxnbw,3r3yrb5grjg815qbpownbvr1dlvau0,KoXwfX4B,2020-0188,2020-11-19,12:30:36,12:45:37,NA,incomplete,129,number,1,right,Blue_Star_Stripes_2.jpg,Blue_Plus_Grid_3.jpg,Red_Triangle_Chess_2.jpg,right,667.0450000001583,true,high,false
KoXwfX4B,3ncn4n1h2juy25d07zfv3rnlauxnbw,3r3yrb5grjg815qbpownbvr1dlvau0,KoXwfX4B,2020-0188,2020-11-19,12:30:36,12:45:37,NA,incomplete,130,number,0,left,Blue_Triangle_Chess_2.jpg,Red_Circle_Grid_2.jpg,Blue_Star_Stripes_4.jpg,left,553.5249999993248,true,high,false
KoXwfX4B,3ncn4n1h2juy25d07zfv3rnlauxnbw,3r3yrb5grjg815qbpownbvr1dlvau0,KoXwfX4B,2020-0188,2020-11-19,12:30:36,12:45:37,NA,incomplete,131,number,1,left,Purple_Triangle_Grid_2.jpg,Blue_Star_Chess_2.jpg,Purple_Plus_Dots_1.jpg,left,655.6600000003818,true,high,false
KoXwfX4B,3ncn4n1h2juy25d07zfv3rnlauxnbw,3r3yrb5grjg815qbpownbvr1dlvau0,KoXwfX4B,2020-0188,2020-11-19,12:30:36,12:45:37,NA,incomplete,132,number,1,right,Blue_Plus_Chess_4.jpg,Blue_Star_Dots_3.jpg,Green_Circle_Grid_4.jpg,right,665.580000000773,true,high,false
KoXwfX4B,3ncn4n1h2juy25d07zfv3rnlauxnbw,3r3yrb5grjg815qbpownbvr1dlvau0,KoXwfX4B,2020-0188,2020-11-19,12:30:36,12:45:37,NA,incomplete,133,number,1,right,Blue_Circle_Stripes_4.jpg,Blue_Triangle_Dots_1.jpg,Purple_Star_Chess_4.jpg,right,575.5600000001723,true,high,false
KoXwfX4B,3ncn4n1h2juy25d07zfv3rnlauxnbw,3r3yrb5grjg815qbpownbvr1dlvau0,KoXwfX4B,2020-0188,2020-11-19,12:30:36,12:45:37,NA,incomplete,134,number,1,left,Red_Plus_Dots_2.jpg,Green_Triangle_Grid_2.jpg,Red_Circle_Chess_4.jpg,left,551.3700000001118,true,high,false
KoXwfX4B,3ncn4n1h2juy25d07zfv3rnlauxnbw,3r3yrb5grjg815qbpownbvr1dlvau0,KoXwfX4B,2020-0188,2020-11-19,12:30:36,12:45:37,NA,incomplete,135,number,1,right,Blue_Circle_Chess_1.jpg,Blue_Plus_Stripes_4.jpg,Green_Star_Dots_1.jpg,right,607.2000000004191,true,high,false
KoXwfX4B,3ncn4n1h2juy25d07zfv3rnlauxnbw,3r3yrb5grjg815qbpownbvr1dlvau0,KoXwfX4B,2020-0188,2020-11-19,12:30:36,12:45:37,NA,incomplete,136,number,0,left,Blue_Plus_Grid_3.jpg,Green_Triangle_Chess_3.jpg,Blue_Circle_Dots_1.jpg,left,536.8749999998836,true,high,false
KoXwfX4B,3ncn4n1h2juy25d07zfv3rnlauxnbw,3r3yrb5grjg815qbpownbvr1dlvau0,KoXwfX4B,2020-0188,2020-11-19,12:30:36,12:45:37,NA,incomplete,137,number,1,right,Green_Triangle_Dots_3.jpg,Green_Plus_Grid_4.jpg,Blue_Star_Chess_3.jpg,right,683.2599999997765,true,high,false
KoXwfX4B,3ncn4n1h2juy25d07zfv3rnlauxnbw,3r3yrb5grjg815qbpownbvr1dlvau0,KoXwfX4B,2020-0188,2020-11-19,12:30:36,12:45:37,NA,incomplete,138,number,0,right,Red_Circle_Stripes_2.jpg,Red_Triangle_Dots_1.jpg,Green_Plus_Chess_2.jpg,right,627.8650000004563,true,high,false
KoXwfX4B,3ncn4n1h2juy25d07zfv3rnlauxnbw,3r3yrb5grjg815qbpownbvr1dlvau0,KoXwfX4B,2020-0188,2020-11-19,12:30:36,12:45:37,NA,incomplete,139,number,1,left,Blue_Star_Grid_1.jpg,Green_Plus_Chess_1.jpg,Blue_Triangle_Dots_2.jpg,right,497.85999999952037,false,high,false
KoXwfX4B,3ncn4n1h2juy25d07zfv3rnlauxnbw,3r3yrb5grjg815qbpownbvr1dlvau0,KoXwfX4B,2020-0188,2020-11-19,12:30:36,12:45:37,NA,incomplete,140,color,1,right,Purple_Plus_Chess_3.jpg,Red_Star_Stripes_3.jpg,Purple_Circle_Grid_1.jpg,right,571.3200000000652,true,high,false
KoXwfX4B,3ncn4n1h2juy25d07zfv3rnlauxnbw,3r3yrb5grjg815qbpownbvr1dlvau0,KoXwfX4B,2020-0188,2020-11-19,12:30:36,12:45:37,NA,incomplete,141,color,1,left,Blue_Plus_Stripes_4.jpg,Blue_Triangle_Dots_2.jpg,Red_Circle_Grid_4.jpg,left,574.9299999998184,true,high,false
KoXwfX4B,3ncn4n1h2juy25d07zfv3rnlauxnbw,3r3yrb5grjg815qbpownbvr1dlvau0,KoXwfX4B,2020-0188,2020-11-19,12:30:36,12:45:37,NA,incomplete,142,color,1,right,Purple_Plus_Stripes_3.jpg,Blue_Circle_Chess_3.jpg,Purple_Triangle_Dots_2.jpg,right,536.3299999998417,true,high,false
KoXwfX4B,3ncn4n1h2juy25d07zfv3rnlauxnbw,3r3yrb5grjg815qbpownbvr1dlvau0,KoXwfX4B,2020-0188,2020-11-19,12:30:36,12:45:37,NA,incomplete,143,color,1,right,Blue_Circle_Grid_3.jpg,Green_Triangle_Stripes_3.jpg,Blue_Plus_Dots_1.jpg,right,495.28000000002794,true,high,false
KoXwfX4B,3ncn4n1h2juy25d07zfv3rnlauxnbw,3r3yrb5grjg815qbpownbvr1dlvau0,KoXwfX4B,2020-0188,2020-11-19,12:30:36,12:45:37,NA,incomplete,144,color,1,right,Purple_Star_Grid_2.jpg,Red_Circle_Chess_2.jpg,Purple_Plus_Dots_4.jpg,right,490.21999999973923,true,high,false
KoXwfX4B,3ncn4n1h2juy25d07zfv3rnlauxnbw,3r3yrb5grjg815qbpownbvr1dlvau0,KoXwfX4B,2020-0188,2020-11-19,12:30:36,12:45:37,NA,incomplete,145,color,1,right,Red_Plus_Dots_4.jpg,Blue_Star_Grid_4.jpg,Red_Circle_Chess_2.jpg,right,525.9750000004424,true,high,false
KoXwfX4B,3ncn4n1h2juy25d07zfv3rnlauxnbw,3r3yrb5grjg815qbpownbvr1dlvau0,KoXwfX4B,2020-0188,2020-11-19,12:30:36,12:45:37,NA,incomplete,146,color,1,right,Green_Triangle_Chess_4.jpg,Red_Star_Dots_4.jpg,Green_Circle_Grid_3.jpg,right,441.1249999994179,true,high,false
KoXwfX4B,3ncn4n1h2juy25d07zfv3rnlauxnbw,3r3yrb5grjg815qbpownbvr1dlvau0,KoXwfX4B,2020-0188,2020-11-19,12:30:36,12:45:37,NA,incomplete,147,color,0,left,Red_Plus_Grid_1.jpg,Red_Star_Stripes_2.jpg,Purple_Circle_Dots_1.jpg,left,367.27500000048894,true,high,false
KoXwfX4B,3ncn4n1h2juy25d07zfv3rnlauxnbw,3r3yrb5grjg815qbpownbvr1dlvau0,KoXwfX4B,2020-0188,2020-11-19,12:30:36,12:45:37,NA,incomplete,148,color,1,left,Green_Plus_Grid_1.jpg,Green_Triangle_Chess_4.jpg,Red_Star_Stripes_1.jpg,left,404.8249999996042,true,high,false
KoXwfX4B,3ncn4n1h2juy25d07zfv3rnlauxnbw,3r3yrb5grjg815qbpownbvr1dlvau0,KoXwfX4B,2020-0188,2020-11-19,12:30:36,12:45:37,NA,incomplete,149,color,0,left,Purple_Plus_Grid_1.jpg,Purple_Triangle_Dots_3.jpg,Green_Circle_Stripes_1.jpg,left,426.41499999992084,true,high,false
KoXwfX4B,3ncn4n1h2juy25d07zfv3rnlauxnbw,3r3yrb5grjg815qbpownbvr1dlvau0,KoXwfX4B,2020-0188,2020-11-19,12:30:36,12:45:37,NA,incomplete,150,color,1,right,Green_Star_Chess_3.jpg,Purple_Circle_Grid_3.jpg,Green_Triangle_Stripes_1.jpg,left,534.189999999362,false,high,false
KoXwfX4B,3ncn4n1h2juy25d07zfv3rnlauxnbw,3r3yrb5grjg815qbpownbvr1dlvau0,KoXwfX4B,2020-0188,2020-11-19,12:30:36,12:45:37,NA,incomplete,151,color,1,left,Red_Circle_Grid_1.jpg,Red_Star_Chess_2.jpg,Purple_Plus_Stripes_1.jpg,right,623.2349999990547,false,high,false
KoXwfX4B,3ncn4n1h2juy25d07zfv3rnlauxnbw,3r3yrb5grjg815qbpownbvr1dlvau0,KoXwfX4B,2020-0188,2020-11-19,12:30:36,12:45:37,NA,incomplete,152,color,1,left,Green_Star_Dots_1.jpg,Green_Plus_Chess_2.jpg,Purple_Circle_Grid_1.jpg,left,449.4700000004377,true,high,false
KoXwfX4B,3ncn4n1h2juy25d07zfv3rnlauxnbw,3r3yrb5grjg815qbpownbvr1dlvau0,KoXwfX4B,2020-0188,2020-11-19,12:30:36,12:45:37,NA,incomplete,153,color,1,left,Purple_Star_Chess_4.jpg,Purple_Triangle_Grid_2.jpg,Blue_Circle_Stripes_4.jpg,left,400.0050000003539,true,high,false
KoXwfX4B,3ncn4n1h2juy25d07zfv3rnlauxnbw,3r3yrb5grjg815qbpownbvr1dlvau0,KoXwfX4B,2020-0188,2020-11-19,12:30:36,12:45:37,NA,incomplete,154,color,1,left,Blue_Triangle_Chess_4.jpg,Blue_Star_Dots_2.jpg,Purple_Circle_Grid_4.jpg,left,409.65499999944586,true,high,false
KoXwfX4B,3ncn4n1h2juy25d07zfv3rnlauxnbw,3r3yrb5grjg815qbpownbvr1dlvau0,KoXwfX4B,2020-0188,2020-11-19,12:30:36,12:45:37,NA,incomplete,155,color,0,left,Purple_Triangle_Grid_1.jpg,Purple_Plus_Stripes_4.jpg,Red_Circle_Dots_1.jpg,left,380.10000000032596,true,high,false
KoXwfX4B,3ncn4n1h2juy25d07zfv3rnlauxnbw,3r3yrb5grjg815qbpownbvr1dlvau0,KoXwfX4B,2020-0188,2020-11-19,12:30:36,12:45:37,NA,incomplete,156,color,1,left,Green_Star_Grid_3.jpg,Green_Circle_Chess_1.jpg,Red_Plus_Dots_3.jpg,left,485.6700000000419,true,high,false
KoXwfX4B,3ncn4n1h2juy25d07zfv3rnlauxnbw,3r3yrb5grjg815qbpownbvr1dlvau0,KoXwfX4B,2020-0188,2020-11-19,12:30:36,12:45:37,NA,incomplete,157,color,1,right,Blue_Star_Dots_1.jpg,Purple_Plus_Chess_1.jpg,Blue_Triangle_Grid_3.jpg,right,459.85000000020955,true,high,false
KoXwfX4B,3ncn4n1h2juy25d07zfv3rnlauxnbw,3r3yrb5grjg815qbpownbvr1dlvau0,KoXwfX4B,2020-0188,2020-11-19,12:30:36,12:45:37,NA,incomplete,158,color,1,left,Green_Triangle_Dots_1.jpg,Green_Star_Stripes_4.jpg,Purple_Plus_Chess_1.jpg,left,388.25499999988824,true,high,false
KoXwfX4B,3ncn4n1h2juy25d07zfv3rnlauxnbw,3r3yrb5grjg815qbpownbvr1dlvau0,KoXwfX4B,2020-0188,2020-11-19,12:30:36,12:45:37,NA,incomplete,159,color,0,right,Red_Circle_Dots_3.jpg,Green_Triangle_Chess_3.jpg,Red_Star_Grid_1.jpg,right,424.4500000004191,true,high,false
KoXwfX4B,3ncn4n1h2juy25d07zfv3rnlauxnbw,3r3yrb5grjg815qbpownbvr1dlvau0,KoXwfX4B,2020-0188,2020-11-19,12:30:36,12:45:37,NA,incomplete,160,number,1,left,Purple_Plus_Grid_4.jpg,Green_Star_Stripes_4.jpg,Purple_Triangle_Chess_2.jpg,right,473.95499999949243,false,high,false
KoXwfX4B,3ncn4n1h2juy25d07zfv3rnlauxnbw,3r3yrb5grjg815qbpownbvr1dlvau0,KoXwfX4B,2020-0188,2020-11-19,12:30:36,12:45:37,NA,incomplete,161,number,0,right,Purple_Circle_Dots_2.jpg,Purple_Triangle_Grid_3.jpg,Red_Plus_Chess_2.jpg,left,448.8350000001956,false,high,false
KoXwfX4B,3ncn4n1h2juy25d07zfv3rnlauxnbw,3r3yrb5grjg815qbpownbvr1dlvau0,KoXwfX4B,2020-0188,2020-11-19,12:30:36,12:45:37,NA,incomplete,162,number,1,right,Blue_Star_Stripes_1.jpg,Blue_Plus_Dots_2.jpg,Red_Triangle_Chess_1.jpg,left,448.79500000027474,false,high,false
KoXwfX4B,3ncn4n1h2juy25d07zfv3rnlauxnbw,3r3yrb5grjg815qbpownbvr1dlvau0,KoXwfX4B,2020-0188,2020-11-19,12:30:36,12:45:37,NA,incomplete,163,number,1,right,Green_Plus_Grid_1.jpg,Green_Circle_Stripes_2.jpg,Purple_Star_Chess_1.jpg,left,636.3149999997113,false,high,false
KoXwfX4B,3ncn4n1h2juy25d07zfv3rnlauxnbw,3r3yrb5grjg815qbpownbvr1dlvau0,KoXwfX4B,2020-0188,2020-11-19,12:30:36,12:45:37,NA,incomplete,164,number,1,right,Green_Circle_Dots_1.jpg,Green_Plus_Chess_3.jpg,Blue_Star_Grid_1.jpg,left,404.6349999998929,false,high,false
KoXwfX4B,3ncn4n1h2juy25d07zfv3rnlauxnbw,3r3yrb5grjg815qbpownbvr1dlvau0,KoXwfX4B,2020-0188,2020-11-19,12:30:36,12:45:37,NA,incomplete,165,number,0,left,Blue_Plus_Chess_1.jpg,Green_Star_Stripes_1.jpg,Blue_Circle_Dots_2.jpg,left,760.7000000006519,true,high,false
KoXwfX4B,3ncn4n1h2juy25d07zfv3rnlauxnbw,3r3yrb5grjg815qbpownbvr1dlvau0,KoXwfX4B,2020-0188,2020-11-19,12:30:36,12:45:37,NA,incomplete,166,number,1,right,Purple_Triangle_Stripes_2.jpg,Purple_Circle_Grid_1.jpg,Blue_Plus_Chess_2.jpg,left,517.010000000475,false,high,false
KoXwfX4B,3ncn4n1h2juy25d07zfv3rnlauxnbw,3r3yrb5grjg815qbpownbvr1dlvau0,KoXwfX4B,2020-0188,2020-11-19,12:30:36,12:45:37,NA,incomplete,167,number,0,left,Purple_Plus_Grid_1.jpg,Blue_Star_Dots_1.jpg,Purple_Circle_Chess_3.jpg,right,664.445000000298,false,high,false
KoXwfX4B,3ncn4n1h2juy25d07zfv3rnlauxnbw,3r3yrb5grjg815qbpownbvr1dlvau0,KoXwfX4B,2020-0188,2020-11-19,12:30:36,12:45:37,NA,incomplete,168,number,1,right,Red_Plus_Stripes_4.jpg,Red_Star_Grid_2.jpg,Blue_Circle_Chess_4.jpg,left,460.0700000000652,false,high,false
KoXwfX4B,3ncn4n1h2juy25d07zfv3rnlauxnbw,3r3yrb5grjg815qbpownbvr1dlvau0,KoXwfX4B,2020-0188,2020-11-19,12:30:36,12:45:37,NA,incomplete,169,number,0,right,Green_Star_Chess_2.jpg,Green_Plus_Stripes_3.jpg,Purple_Triangle_Dots_2.jpg,right,637.9200000000419,true,high,false
KoXwfX4B,3ncn4n1h2juy25d07zfv3rnlauxnbw,3r3yrb5grjg815qbpownbvr1dlvau0,KoXwfX4B,2020-0188,2020-11-19,12:30:36,12:45:37,NA,incomplete,170,number,1,right,Blue_Circle_Grid_3.jpg,Blue_Triangle_Chess_4.jpg,Green_Plus_Stripes_3.jpg,left,686.5749999997206,false,high,false
KoXwfX4B,3ncn4n1h2juy25d07zfv3rnlauxnbw,3r3yrb5grjg815qbpownbvr1dlvau0,KoXwfX4B,2020-0188,2020-11-19,12:30:36,12:45:37,NA,incomplete,171,number,1,left,Purple_Star_Dots_3.jpg,Red_Triangle_Stripes_3.jpg,Purple_Plus_Chess_4.jpg,left,791.0699999993667,true,high,false
KoXwfX4B,3ncn4n1h2juy25d07zfv3rnlauxnbw,3r3yrb5grjg815qbpownbvr1dlvau0,KoXwfX4B,2020-0188,2020-11-19,12:30:36,12:45:37,NA,incomplete,172,number,0,left,Red_Circle_Chess_3.jpg,Purple_Plus_Dots_3.jpg,Red_Star_Stripes_2.jpg,left,693.9700000003213,true,high,false
KoXwfX4B,3ncn4n1h2juy25d07zfv3rnlauxnbw,3r3yrb5grjg815qbpownbvr1dlvau0,KoXwfX4B,2020-0188,2020-11-19,12:30:36,12:45:37,NA,incomplete,173,number,1,left,Red_Plus_Grid_2.jpg,Blue_Triangle_Stripes_2.jpg,Red_Star_Chess_4.jpg,left,618.7399999998743,true,high,false
KoXwfX4B,3ncn4n1h2juy25d07zfv3rnlauxnbw,3r3yrb5grjg815qbpownbvr1dlvau0,KoXwfX4B,2020-0188,2020-11-19,12:30:36,12:45:37,NA,incomplete,174,number,1,right,Blue_Star_Stripes_4.jpg,Blue_Circle_Chess_2.jpg,Green_Plus_Grid_4.jpg,right,791.4350000001723,true,high,false
KoXwfX4B,3ncn4n1h2juy25d07zfv3rnlauxnbw,3r3yrb5grjg815qbpownbvr1dlvau0,KoXwfX4B,2020-0188,2020-11-19,12:30:36,12:45:37,NA,incomplete,175,number,0,left,Green_Plus_Stripes_4.jpg,Blue_Star_Grid_4.jpg,Green_Triangle_Dots_1.jpg,left,549.8349999998463,true,high,false
KoXwfX4B,3ncn4n1h2juy25d07zfv3rnlauxnbw,3r3yrb5grjg815qbpownbvr1dlvau0,KoXwfX4B,2020-0188,2020-11-19,12:30:36,12:45:37,NA,incomplete,176,number,1,left,Blue_Triangle_Grid_4.jpg,Purple_Circle_Stripes_4.jpg,Blue_Star_Chess_3.jpg,left,734.3900000004796,true,high,false
KoXwfX4B,3ncn4n1h2juy25d07zfv3rnlauxnbw,3r3yrb5grjg815qbpownbvr1dlvau0,KoXwfX4B,2020-0188,2020-11-19,12:30:36,12:45:37,NA,incomplete,177,number,1,right,Green_Star_Stripes_1.jpg,Green_Circle_Dots_2.jpg,Purple_Triangle_Grid_1.jpg,right,734.9450000001816,true,high,false
KoXwfX4B,3ncn4n1h2juy25d07zfv3rnlauxnbw,3r3yrb5grjg815qbpownbvr1dlvau0,KoXwfX4B,2020-0188,2020-11-19,12:30:36,12:45:37,NA,incomplete,178,number,1,left,Purple_Plus_Chess_3.jpg,Red_Triangle_Dots_3.jpg,Purple_Star_Stripes_2.jpg,left,683.4949999992969,true,high,false
KoXwfX4B,3ncn4n1h2juy25d07zfv3rnlauxnbw,3r3yrb5grjg815qbpownbvr1dlvau0,KoXwfX4B,2020-0188,2020-11-19,12:30:36,12:45:37,NA,incomplete,179,number,1,left,Red_Star_Grid_3.jpg,Purple_Triangle_Chess_3.jpg,Red_Plus_Dots_1.jpg,left,563.7450000003446,true,high,false
KoXwfX4B,3ncn4n1h2juy25d07zfv3rnlauxnbw,3r3yrb5grjg815qbpownbvr1dlvau0,KoXwfX4B,2020-0188,2020-11-19,12:30:36,12:45:37,NA,incomplete,180,color,1,right,Purple_Triangle_Grid_1.jpg,Blue_Plus_Chess_1.jpg,Purple_Star_Stripes_3.jpg,left,531.8249999999534,false,high,false
KoXwfX4B,3ncn4n1h2juy25d07zfv3rnlauxnbw,3r3yrb5grjg815qbpownbvr1dlvau0,KoXwfX4B,2020-0188,2020-11-19,12:30:36,12:45:37,NA,incomplete,181,color,1,left,Green_Circle_Stripes_4.jpg,Green_Plus_Dots_1.jpg,Purple_Triangle_Chess_4.jpg,right,638.9600000001956,false,high,false
KoXwfX4B,3ncn4n1h2juy25d07zfv3rnlauxnbw,3r3yrb5grjg815qbpownbvr1dlvau0,KoXwfX4B,2020-0188,2020-11-19,12:30:36,12:45:37,NA,incomplete,182,color,1,left,Green_Triangle_Dots_3.jpg,Green_Plus_Stripes_4.jpg,Purple_Circle_Grid_3.jpg,left,518.0749999999534,true,high,false
KoXwfX4B,3ncn4n1h2juy25d07zfv3rnlauxnbw,3r3yrb5grjg815qbpownbvr1dlvau0,KoXwfX4B,2020-0188,2020-11-19,12:30:36,12:45:37,NA,incomplete,183,color,1,right,Purple_Circle_Chess_3.jpg,Green_Triangle_Grid_3.jpg,Purple_Star_Dots_1.jpg,right,512.6300000002375,true,high,false
KoXwfX4B,3ncn4n1h2juy25d07zfv3rnlauxnbw,3r3yrb5grjg815qbpownbvr1dlvau0,KoXwfX4B,2020-0188,2020-11-19,12:30:36,12:45:37,NA,incomplete,184,color,1,right,Green_Circle_Chess_3.jpg,Blue_Star_Dots_3.jpg,Green_Plus_Stripes_2.jpg,right,493.0800000001909,true,high,false
KoXwfX4B,3ncn4n1h2juy25d07zfv3rnlauxnbw,3r3yrb5grjg815qbpownbvr1dlvau0,KoXwfX4B,2020-0188,2020-11-19,12:30:36,12:45:37,NA,incomplete,185,color,1,left,Purple_Star_Chess_4.jpg,Purple_Triangle_Grid_1.jpg,Blue_Circle_Dots_4.jpg,left,457.3749999998836,true,high,false
KoXwfX4B,3ncn4n1h2juy25d07zfv3rnlauxnbw,3r3yrb5grjg815qbpownbvr1dlvau0,KoXwfX4B,2020-0188,2020-11-19,12:30:36,12:45:37,NA,incomplete,186,color,1,right,Green_Plus_Chess_2.jpg,Purple_Circle_Stripes_2.jpg,Green_Star_Dots_1.jpg,right,509.31500000017695,true,high,false
KoXwfX4B,3ncn4n1h2juy25d07zfv3rnlauxnbw,3r3yrb5grjg815qbpownbvr1dlvau0,KoXwfX4B,2020-0188,2020-11-19,12:30:36,12:45:37,NA,incomplete,187,color,1,left,Purple_Plus_Chess_4.jpg,Purple_Star_Dots_3.jpg,Green_Triangle_Grid_4.jpg,left,391.23999999987427,true,high,false
KoXwfX4B,3ncn4n1h2juy25d07zfv3rnlauxnbw,3r3yrb5grjg815qbpownbvr1dlvau0,KoXwfX4B,2020-0188,2020-11-19,12:30:36,12:45:37,NA,incomplete,188,color,1,right,Green_Star_Grid_3.jpg,Red_Plus_Stripes_3.jpg,Green_Triangle_Dots_2.jpg,right,438.31000000052154,true,high,false
KoXwfX4B,3ncn4n1h2juy25d07zfv3rnlauxnbw,3r3yrb5grjg815qbpownbvr1dlvau0,KoXwfX4B,2020-0188,2020-11-19,12:30:36,12:45:37,NA,incomplete,189,color,1,left,Red_Plus_Dots_4.jpg,Red_Star_Grid_3.jpg,Green_Triangle_Stripes_4.jpg,left,363.5099999993108,true,high,false
KoXwfX4B,3ncn4n1h2juy25d07zfv3rnlauxnbw,3r3yrb5grjg815qbpownbvr1dlvau0,KoXwfX4B,2020-0188,2020-11-19,12:30:36,12:45:37,NA,incomplete,190,color,1,left,Red_Triangle_Stripes_1.jpg,Red_Plus_Chess_4.jpg,Green_Circle_Dots_1.jpg,left,386.18000000040047,true,high,false
KoXwfX4B,3ncn4n1h2juy25d07zfv3rnlauxnbw,3r3yrb5grjg815qbpownbvr1dlvau0,KoXwfX4B,2020-0188,2020-11-19,12:30:36,12:45:37,NA,incomplete,191,color,1,left,Red_Circle_Chess_4.jpg,Red_Plus_Grid_1.jpg,Purple_Triangle_Dots_4.jpg,left,480.4350000004051,true,high,false
KoXwfX4B,3ncn4n1h2juy25d07zfv3rnlauxnbw,3r3yrb5grjg815qbpownbvr1dlvau0,KoXwfX4B,2020-0188,2020-11-19,12:30:36,12:45:37,NA,incomplete,192,color,1,left,Blue_Triangle_Dots_3.jpg,Blue_Plus_Stripes_1.jpg,Green_Circle_Grid_3.jpg,left,400.27499999990687,true,high,false
KoXwfX4B,3ncn4n1h2juy25d07zfv3rnlauxnbw,3r3yrb5grjg815qbpownbvr1dlvau0,KoXwfX4B,2020-0188,2020-11-19,12:30:36,12:45:37,NA,incomplete,193,color,1,left,Green_Star_Dots_2.jpg,Green_Circle_Grid_1.jpg,Purple_Plus_Stripes_2.jpg,left,507.97000000055414,true,high,false
KoXwfX4B,3ncn4n1h2juy25d07zfv3rnlauxnbw,3r3yrb5grjg815qbpownbvr1dlvau0,KoXwfX4B,2020-0188,2020-11-19,12:30:36,12:45:37,NA,incomplete,194,color,0,right,Blue_Circle_Dots_2.jpg,Green_Star_Chess_2.jpg,Blue_Plus_Grid_4.jpg,right,420.1899999998277,true,high,false
KoXwfX4B,3ncn4n1h2juy25d07zfv3rnlauxnbw,3r3yrb5grjg815qbpownbvr1dlvau0,KoXwfX4B,2020-0188,2020-11-19,12:30:36,12:45:37,NA,incomplete,195,color,1,left,Green_Star_Grid_3.jpg,Green_Circle_Stripes_4.jpg,Red_Triangle_Chess_3.jpg,left,439.20000000076834,true,high,false
KoXwfX4B,3ncn4n1h2juy25d07zfv3rnlauxnbw,3r3yrb5grjg815qbpownbvr1dlvau0,KoXwfX4B,2020-0188,2020-11-19,12:30:36,12:45:37,NA,incomplete,196,color,1,left,Green_Star_Chess_4.jpg,Green_Circle_Grid_2.jpg,Blue_Plus_Stripes_4.jpg,left,333.8800000001211,true,high,false
KoXwfX4B,3ncn4n1h2juy25d07zfv3rnlauxnbw,3r3yrb5grjg815qbpownbvr1dlvau0,KoXwfX4B,2020-0188,2020-11-19,12:30:36,12:45:37,NA,incomplete,197,color,1,left,Purple_Star_Chess_3.jpg,Purple_Triangle_Dots_1.jpg,Red_Plus_Grid_3.jpg,left,456.59500000055414,true,high,false
KoXwfX4B,3ncn4n1h2juy25d07zfv3rnlauxnbw,3r3yrb5grjg815qbpownbvr1dlvau0,KoXwfX4B,2020-0188,2020-11-19,12:30:36,12:45:37,NA,incomplete,198,color,1,right,Purple_Circle_Stripes_2.jpg,Red_Star_Chess_2.jpg,Purple_Plus_Dots_3.jpg,right,426.7899999995716,true,high,false
KoXwfX4B,3ncn4n1h2juy25d07zfv3rnlauxnbw,3r3yrb5grjg815qbpownbvr1dlvau0,KoXwfX4B,2020-0188,2020-11-19,12:30:36,12:45:37,NA,incomplete,199,color,1,right,Purple_Triangle_Grid_4.jpg,Green_Plus_Dots_4.jpg,Purple_Star_Stripes_1.jpg,right,427.8950000007171,true,high,false
KoXwfX4B,3ncn4n1h2juy25d07zfv3rnlauxnbw,3r3yrb5grjg815qbpownbvr1dlvau0,KoXwfX4B,2020-0188,2020-11-19,12:30:36,12:45:37,NA,incomplete,200,number,1,left,Green_Circle_Dots_1.jpg,Blue_Triangle_Stripes_1.jpg,Green_Star_Chess_3.jpg,right,399.00499999930616,false,high,false
KoXwfX4B,3ncn4n1h2juy25d07zfv3rnlauxnbw,3r3yrb5grjg815qbpownbvr1dlvau0,KoXwfX4B,2020-0188,2020-11-19,12:30:36,12:45:37,NA,incomplete,201,number,1,left,Blue_Circle_Grid_2.jpg,Purple_Star_Dots_2.jpg,Blue_Triangle_Chess_4.jpg,right,433.6199999998789,false,high,false
KoXwfX4B,3ncn4n1h2juy25d07zfv3rnlauxnbw,3r3yrb5grjg815qbpownbvr1dlvau0,KoXwfX4B,2020-0188,2020-11-19,12:30:36,12:45:37,NA,incomplete,202,number,1,right,Red_Plus_Chess_4.jpg,Red_Circle_Grid_1.jpg,Green_Star_Dots_4.jpg,left,588.6999999993714,false,high,false
KoXwfX4B,3ncn4n1h2juy25d07zfv3rnlauxnbw,3r3yrb5grjg815qbpownbvr1dlvau0,KoXwfX4B,2020-0188,2020-11-19,12:30:36,12:45:37,NA,incomplete,203,number,0,right,Blue_Plus_Dots_3.jpg,Blue_Star_Chess_4.jpg,Green_Circle_Stripes_3.jpg,right,740.8550000000978,true,high,false
KoXwfX4B,3ncn4n1h2juy25d07zfv3rnlauxnbw,3r3yrb5grjg815qbpownbvr1dlvau0,KoXwfX4B,2020-0188,2020-11-19,12:30:36,12:45:37,NA,incomplete,204,number,1,right,Red_Plus_Chess_3.jpg,Red_Star_Grid_2.jpg,Blue_Triangle_Stripes_3.jpg,left,785.6050000000978,false,high,false
KoXwfX4B,3ncn4n1h2juy25d07zfv3rnlauxnbw,3r3yrb5grjg815qbpownbvr1dlvau0,KoXwfX4B,2020-0188,2020-11-19,12:30:36,12:45:37,NA,incomplete,205,number,1,left,Red_Star_Dots_3.jpg,Green_Circle_Chess_3.jpg,Red_Plus_Grid_1.jpg,left,634.3100000004051,true,high,false
KoXwfX4B,3ncn4n1h2juy25d07zfv3rnlauxnbw,3r3yrb5grjg815qbpownbvr1dlvau0,KoXwfX4B,2020-0188,2020-11-19,12:30:36,12:45:37,NA,incomplete,206,number,0,left,Green_Star_Stripes_4.jpg,Purple_Triangle_Dots_4.jpg,Green_Plus_Chess_2.jpg,left,624.1149999996414,true,high,false
KoXwfX4B,3ncn4n1h2juy25d07zfv3rnlauxnbw,3r3yrb5grjg815qbpownbvr1dlvau0,KoXwfX4B,2020-0188,2020-11-19,12:30:36,12:45:37,NA,incomplete,207,number,1,right,Purple_Plus_Chess_3.jpg,Purple_Triangle_Dots_1.jpg,Red_Circle_Grid_3.jpg,right,637.4800000003306,true,high,false
KoXwfX4B,3ncn4n1h2juy25d07zfv3rnlauxnbw,3r3yrb5grjg815qbpownbvr1dlvau0,KoXwfX4B,2020-0188,2020-11-19,12:30:36,12:45:37,NA,incomplete,208,number,1,left,Green_Plus_Chess_2.jpg,Purple_Circle_Stripes_2.jpg,Green_Triangle_Dots_1.jpg,left,653.9000000002561,true,high,false
KoXwfX4B,3ncn4n1h2juy25d07zfv3rnlauxnbw,3r3yrb5grjg815qbpownbvr1dlvau0,KoXwfX4B,2020-0188,2020-11-19,12:30:36,12:45:37,NA,incomplete,209,number,0,left,Purple_Star_Chess_2.jpg,Blue_Triangle_Stripes_2.jpg,Purple_Plus_Grid_4.jpg,left,546.1450000002515,true,high,false
KoXwfX4B,3ncn4n1h2juy25d07zfv3rnlauxnbw,3r3yrb5grjg815qbpownbvr1dlvau0,KoXwfX4B,2020-0188,2020-11-19,12:30:36,12:45:37,NA,incomplete,210,number,1,left,Purple_Triangle_Dots_4.jpg,Green_Star_Grid_4.jpg,Purple_Plus_Chess_2.jpg,left,583.3700000003446,true,high,false
KoXwfX4B,3ncn4n1h2juy25d07zfv3rnlauxnbw,3r3yrb5grjg815qbpownbvr1dlvau0,KoXwfX4B,2020-0188,2020-11-19,12:30:36,12:45:37,NA,incomplete,211,number,1,right,Blue_Plus_Stripes_1.jpg,Blue_Star_Grid_4.jpg,Purple_Triangle_Chess_1.jpg,right,748.8650000004563,true,high,false
KoXwfX4B,3ncn4n1h2juy25d07zfv3rnlauxnbw,3r3yrb5grjg815qbpownbvr1dlvau0,KoXwfX4B,2020-0188,2020-11-19,12:30:36,12:45:37,NA,incomplete,212,number,1,left,Green_Circle_Dots_2.jpg,Purple_Star_Grid_2.jpg,Green_Plus_Chess_4.jpg,left,559.664999999688,true,high,false
KoXwfX4B,3ncn4n1h2juy25d07zfv3rnlauxnbw,3r3yrb5grjg815qbpownbvr1dlvau0,KoXwfX4B,2020-0188,2020-11-19,12:30:36,12:45:37,NA,incomplete,213,number,1,right,Blue_Star_Chess_2.jpg,Blue_Circle_Grid_1.jpg,Red_Triangle_Stripes_2.jpg,right,627.4599999997299,true,high,false
KoXwfX4B,3ncn4n1h2juy25d07zfv3rnlauxnbw,3r3yrb5grjg815qbpownbvr1dlvau0,KoXwfX4B,2020-0188,2020-11-19,12:30:36,12:45:37,NA,incomplete,214,number,1,right,Green_Star_Chess_3.jpg,Green_Triangle_Stripes_1.jpg,Red_Circle_Dots_3.jpg,right,636.9150000000373,true,high,false
KoXwfX4B,3ncn4n1h2juy25d07zfv3rnlauxnbw,3r3yrb5grjg815qbpownbvr1dlvau0,KoXwfX4B,2020-0188,2020-11-19,12:30:36,12:45:37,NA,incomplete,215,number,1,left,Red_Plus_Stripes_3.jpg,Purple_Triangle_Grid_3.jpg,Red_Circle_Chess_2.jpg,left,574.7049999999581,true,high,false
KoXwfX4B,3ncn4n1h2juy25d07zfv3rnlauxnbw,3r3yrb5grjg815qbpownbvr1dlvau0,KoXwfX4B,2020-0188,2020-11-19,12:30:36,12:45:37,NA,incomplete,216,number,1,right,Blue_Star_Dots_1.jpg,Blue_Circle_Chess_3.jpg,Red_Plus_Grid_1.jpg,right,623.1900000002934,true,high,false
KoXwfX4B,3ncn4n1h2juy25d07zfv3rnlauxnbw,3r3yrb5grjg815qbpownbvr1dlvau0,KoXwfX4B,2020-0188,2020-11-19,12:30:36,12:45:37,NA,incomplete,217,number,1,right,Red_Plus_Dots_2.jpg,Red_Triangle_Stripes_3.jpg,Green_Circle_Chess_2.jpg,right,612.2450000002282,true,high,false
KoXwfX4B,3ncn4n1h2juy25d07zfv3rnlauxnbw,3r3yrb5grjg815qbpownbvr1dlvau0,KoXwfX4B,2020-0188,2020-11-19,12:30:36,12:45:37,NA,incomplete,218,number,1,left,Purple_Star_Stripes_3.jpg,Red_Circle_Grid_3.jpg,Purple_Plus_Dots_2.jpg,left,548.2750000001397,true,high,false
KoXwfX4B,3ncn4n1h2juy25d07zfv3rnlauxnbw,3r3yrb5grjg815qbpownbvr1dlvau0,KoXwfX4B,2020-0188,2020-11-19,12:30:36,12:45:37,NA,incomplete,219,number,1,right,Purple_Star_Dots_2.jpg,Purple_Triangle_Stripes_3.jpg,Red_Circle_Chess_2.jpg,right,572.8600000002189,true,high,false
KoXwfX4B,3ncn4n1h2juy25d07zfv3rnlauxnbw,3r3yrb5grjg815qbpownbvr1dlvau0,KoXwfX4B,2020-0188,2020-11-19,12:30:36,12:45:37,NA,incomplete,220,color,1,left,Purple_Star_Stripes_3.jpg,Purple_Triangle_Dots_1.jpg,Red_Circle_Chess_3.jpg,right,542.7449999996461,false,high,false
KoXwfX4B,3ncn4n1h2juy25d07zfv3rnlauxnbw,3r3yrb5grjg815qbpownbvr1dlvau0,KoXwfX4B,2020-0188,2020-11-19,12:30:36,12:45:37,NA,incomplete,221,color,1,right,Purple_Star_Grid_4.jpg,Red_Circle_Stripes_4.jpg,Purple_Triangle_Dots_2.jpg,left,595.1449999993201,false,high,false
KoXwfX4B,3ncn4n1h2juy25d07zfv3rnlauxnbw,3r3yrb5grjg815qbpownbvr1dlvau0,KoXwfX4B,2020-0188,2020-11-19,12:30:36,12:45:37,NA,incomplete,222,color,1,left,Green_Plus_Dots_3.jpg,Green_Star_Grid_1.jpg,Purple_Triangle_Stripes_3.jpg,left,793.3700000002282,true,high,false
KoXwfX4B,3ncn4n1h2juy25d07zfv3rnlauxnbw,3r3yrb5grjg815qbpownbvr1dlvau0,KoXwfX4B,2020-0188,2020-11-19,12:30:36,12:45:37,NA,incomplete,223,color,1,left,Purple_Star_Stripes_4.jpg,Purple_Plus_Grid_2.jpg,Blue_Triangle_Dots_4.jpg,left,614.0850000001956,true,high,false
KoXwfX4B,3ncn4n1h2juy25d07zfv3rnlauxnbw,3r3yrb5grjg815qbpownbvr1dlvau0,KoXwfX4B,2020-0188,2020-11-19,12:30:36,12:45:37,NA,incomplete,224,color,1,left,Blue_Star_Grid_2.jpg,Blue_Circle_Chess_1.jpg,Purple_Triangle_Stripes_2.jpg,left,539.649999999674,true,high,false
KoXwfX4B,3ncn4n1h2juy25d07zfv3rnlauxnbw,3r3yrb5grjg815qbpownbvr1dlvau0,KoXwfX4B,2020-0188,2020-11-19,12:30:36,12:45:37,NA,incomplete,225,color,0,right,Green_Star_Chess_1.jpg,Red_Triangle_Grid_1.jpg,Green_Circle_Dots_3.jpg,right,606.6000000000931,true,high,false
KoXwfX4B,3ncn4n1h2juy25d07zfv3rnlauxnbw,3r3yrb5grjg815qbpownbvr1dlvau0,KoXwfX4B,2020-0188,2020-11-19,12:30:36,12:45:37,NA,incomplete,226,color,1,left,Red_Circle_Dots_3.jpg,Red_Star_Chess_1.jpg,Blue_Triangle_Grid_3.jpg,left,541.8300000000745,true,high,false
KoXwfX4B,3ncn4n1h2juy25d07zfv3rnlauxnbw,3r3yrb5grjg815qbpownbvr1dlvau0,KoXwfX4B,2020-0188,2020-11-19,12:30:36,12:45:37,NA,incomplete,227,color,1,left,Purple_Triangle_Chess_1.jpg,Purple_Plus_Stripes_3.jpg,Blue_Star_Dots_1.jpg,left,445.160000000149,true,high,false
KoXwfX4B,3ncn4n1h2juy25d07zfv3rnlauxnbw,3r3yrb5grjg815qbpownbvr1dlvau0,KoXwfX4B,2020-0188,2020-11-19,12:30:36,12:45:37,NA,incomplete,228,color,1,left,Green_Circle_Grid_2.jpg,Green_Triangle_Chess_3.jpg,Red_Plus_Dots_2.jpg,left,445.20000000018626,true,high,false
KoXwfX4B,3ncn4n1h2juy25d07zfv3rnlauxnbw,3r3yrb5grjg815qbpownbvr1dlvau0,KoXwfX4B,2020-0188,2020-11-19,12:30:36,12:45:37,NA,incomplete,229,color,1,left,Red_Star_Chess_3.jpg,Red_Plus_Grid_4.jpg,Green_Triangle_Dots_3.jpg,left,398.24499999941327,true,high,false
KoXwfX4B,3ncn4n1h2juy25d07zfv3rnlauxnbw,3r3yrb5grjg815qbpownbvr1dlvau0,KoXwfX4B,2020-0188,2020-11-19,12:30:36,12:45:37,NA,incomplete,230,color,0,right,Green_Circle_Stripes_3.jpg,Red_Triangle_Grid_3.jpg,Green_Plus_Chess_2.jpg,right,437.06500000006054,true,high,false
KoXwfX4B,3ncn4n1h2juy25d07zfv3rnlauxnbw,3r3yrb5grjg815qbpownbvr1dlvau0,KoXwfX4B,2020-0188,2020-11-19,12:30:36,12:45:37,NA,incomplete,231,color,1,right,Red_Circle_Grid_1.jpg,Blue_Plus_Dots_1.jpg,Red_Star_Chess_3.jpg,right,450.21999999973923,true,high,false
KoXwfX4B,3ncn4n1h2juy25d07zfv3rnlauxnbw,3r3yrb5grjg815qbpownbvr1dlvau0,KoXwfX4B,2020-0188,2020-11-19,12:30:36,12:45:37,NA,incomplete,232,color,0,left,Red_Triangle_Chess_3.jpg,Red_Star_Stripes_4.jpg,Green_Circle_Grid_3.jpg,left,495.3550000000978,true,high,false
KoXwfX4B,3ncn4n1h2juy25d07zfv3rnlauxnbw,3r3yrb5grjg815qbpownbvr1dlvau0,KoXwfX4B,2020-0188,2020-11-19,12:30:36,12:45:37,NA,incomplete,233,color,1,right,Purple_Plus_Dots_3.jpg,Red_Triangle_Grid_3.jpg,Purple_Circle_Chess_2.jpg,right,460.0849999997299,true,high,false
KoXwfX4B,3ncn4n1h2juy25d07zfv3rnlauxnbw,3r3yrb5grjg815qbpownbvr1dlvau0,KoXwfX4B,2020-0188,2020-11-19,12:30:36,12:45:37,NA,incomplete,234,color,1,left,Blue_Triangle_Grid_2.jpg,Blue_Circle_Stripes_1.jpg,Purple_Plus_Chess_2.jpg,left,510.21500000031665,true,high,false
KoXwfX4B,3ncn4n1h2juy25d07zfv3rnlauxnbw,3r3yrb5grjg815qbpownbvr1dlvau0,KoXwfX4B,2020-0188,2020-11-19,12:30:36,12:45:37,NA,incomplete,235,color,1,left,Blue_Star_Dots_3.jpg,Blue_Plus_Chess_1.jpg,Purple_Triangle_Grid_3.jpg,left,415.6800000000512,true,high,false
KoXwfX4B,3ncn4n1h2juy25d07zfv3rnlauxnbw,3r3yrb5grjg815qbpownbvr1dlvau0,KoXwfX4B,2020-0188,2020-11-19,12:30:36,12:45:37,NA,incomplete,236,color,1,left,Purple_Circle_Grid_1.jpg,Purple_Triangle_Dots_4.jpg,Blue_Plus_Chess_1.jpg,left,351.80500000016764,true,high,false
KoXwfX4B,3ncn4n1h2juy25d07zfv3rnlauxnbw,3r3yrb5grjg815qbpownbvr1dlvau0,KoXwfX4B,2020-0188,2020-11-19,12:30:36,12:45:37,NA,incomplete,237,color,1,left,Green_Triangle_Dots_1.jpg,Green_Circle_Grid_4.jpg,Purple_Star_Stripes_1.jpg,left,364.3750000001164,true,high,false
KoXwfX4B,3ncn4n1h2juy25d07zfv3rnlauxnbw,3r3yrb5grjg815qbpownbvr1dlvau0,KoXwfX4B,2020-0188,2020-11-19,12:30:36,12:45:37,NA,incomplete,238,color,0,left,Red_Plus_Chess_4.jpg,Red_Triangle_Grid_2.jpg,Blue_Circle_Stripes_4.jpg,left,401.7549999997718,true,high,false
KoXwfX4B,3ncn4n1h2juy25d07zfv3rnlauxnbw,3r3yrb5grjg815qbpownbvr1dlvau0,KoXwfX4B,2020-0188,2020-11-19,12:30:36,12:45:37,NA,incomplete,239,color,1,right,Blue_Circle_Grid_2.jpg,Red_Triangle_Dots_2.jpg,Blue_Star_Chess_4.jpg,right,498.8100000000559,true,high,false
KoXwfX4B,3ncn4n1h2juy25d07zfv3rnlauxnbw,3r3yrb5grjg815qbpownbvr1dlvau0,KoXwfX4B,2020-0188,2020-11-19,12:30:36,12:45:37,NA,NA,instruction example,shape,NA,NA,Purple_Plus_Grid_2.jpg,Red_Plus_Dots_4.jpg,Blue_Triangle_Grid_1.jpg,NA,NA,NA,NA,undefined
KoXwfX4B,3ncn4n1h2juy25d07zfv3rnlauxnbw,3r3yrb5grjg815qbpownbvr1dlvau0,KoXwfX4B,2020-0188,2020-11-19,12:30:36,12:45:37,NA,NA,instruction example,shape,NA,NA,Green_Circle_Stripes_2.jpg,Red_Star_Stripes_3.jpg,Purple_Circle_Chess_4.jpg,NA,NA,NA,NA,undefined
KoXwfX4B,3ncn4n1h2juy25d07zfv3rnlauxnbw,3r3yrb5grjg815qbpownbvr1dlvau0,KoXwfX4B,2020-0188,2020-11-19,12:30:36,12:45:37,NA,NA,instruction example,shape,NA,NA,Red_Plus_Grid_2.jpg,Green_Star_Stripes_2.jpg,Red_Circle_Chess_4.jpg,NA,NA,NA,NA,undefined
KoXwfX4B,3ncn4n1h2juy25d07zfv3rnlauxnbw,3r3yrb5grjg815qbpownbvr1dlvau0,KoXwfX4B,2020-0188,2020-11-19,12:30:36,12:45:37,NA,NA,instruction example,shape,NA,NA,Purple_Plus_Chess_4.jpg,Purple_Triangle_Stripes_3.jpg,Green_Star_Grid_4.jpg,NA,NA,NA,NA,undefined
KoXwfX4B,3ncn4n1h2juy25d07zfv3rnlauxnbw,3r3yrb5grjg815qbpownbvr1dlvau0,KoXwfX4B,2020-0188,2020-11-19,12:30:36,12:45:37,879799.6299999995,901691.0749999997,NA,NA,NA,NA,NA,NA,NA,NA,NA,NA,NA,undefined
