workerId,hitId,assignmentId,subject,studyid,exp_date,exp_start,exp_end,time_start,time_end,trial,type,reward_validity,answer,image_top,image_left,image_right,response,response_time,response_acc,volatility,age,race,gender,ethnicity,color,vision,neuro,practice
khjcs8rn,3lvtfb9df8vfwjy33dzq8w9nvhnqgc,3r8yzbnq9lvyqalw1c0yr3sm9m27q8,khjcs8rn,2020-0188,2020-11-18,13:33:21,13:56:05,NA,incomplete,0,filling,1,left,Red_Circle_Chess_2.jpg,Purple_Star_Chess_4.jpg,Blue_Plus_Stripes_2.jpg,none,0,false,NA,NA,NA,NA,NA,NA,NA,NA,true
khjcs8rn,3lvtfb9df8vfwjy33dzq8w9nvhnqgc,3r8yzbnq9lvyqalw1c0yr3sm9m27q8,khjcs8rn,2020-0188,2020-11-18,13:33:21,13:56:05,NA,incomplete,1,filling,1,right,Red_Triangle_Dots_1.jpg,Blue_Plus_Grid_1.jpg,Purple_Star_Dots_2.jpg,right,1341.999999996915,true,NA,NA,NA,NA,NA,NA,NA,NA,true
khjcs8rn,3lvtfb9df8vfwjy33dzq8w9nvhnqgc,3r8yzbnq9lvyqalw1c0yr3sm9m27q8,khjcs8rn,2020-0188,2020-11-18,13:33:21,13:56:05,NA,incomplete,2,filling,1,right,Blue_Star_Stripes_2.jpg,Red_Plus_Grid_2.jpg,Green_Circle_Stripes_3.jpg,right,1580.999999998312,true,NA,NA,NA,NA,NA,NA,NA,NA,true
khjcs8rn,3lvtfb9df8vfwjy33dzq8w9nvhnqgc,3r8yzbnq9lvyqalw1c0yr3sm9m27q8,khjcs8rn,2020-0188,2020-11-18,13:33:21,13:56:05,NA,incomplete,3,filling,1,right,Purple_Star_Stripes_2.jpg,Blue_Triangle_Dots_2.jpg,Green_Plus_Stripes_4.jpg,right,1331.000000005588,true,NA,NA,NA,NA,NA,NA,NA,NA,true
khjcs8rn,3lvtfb9df8vfwjy33dzq8w9nvhnqgc,3r8yzbnq9lvyqalw1c0yr3sm9m27q8,khjcs8rn,2020-0188,2020-11-18,13:33:21,13:56:05,NA,incomplete,4,filling,0,right,Green_Plus_Chess_4.jpg,Red_Triangle_Dots_4.jpg,Purple_Star_Chess_3.jpg,right,1811.9999999980791,true,NA,NA,NA,NA,NA,NA,NA,NA,true
khjcs8rn,3lvtfb9df8vfwjy33dzq8w9nvhnqgc,3r8yzbnq9lvyqalw1c0yr3sm9m27q8,khjcs8rn,2020-0188,2020-11-18,13:33:21,13:56:05,NA,incomplete,5,filling,1,left,Blue_Star_Grid_2.jpg,Green_Triangle_Grid_4.jpg,Red_Circle_Dots_2.jpg,left,1324.9999999970896,true,NA,NA,NA,NA,NA,NA,NA,NA,true
khjcs8rn,3lvtfb9df8vfwjy33dzq8w9nvhnqgc,3r8yzbnq9lvyqalw1c0yr3sm9m27q8,khjcs8rn,2020-0188,2020-11-18,13:33:21,13:56:05,NA,incomplete,6,filling,0,right,Red_Circle_Stripes_1.jpg,Purple_Star_Grid_1.jpg,Green_Triangle_Stripes_2.jpg,right,989.000000001397,true,NA,NA,NA,NA,NA,NA,NA,NA,true
khjcs8rn,3lvtfb9df8vfwjy33dzq8w9nvhnqgc,3r8yzbnq9lvyqalw1c0yr3sm9m27q8,khjcs8rn,2020-0188,2020-11-18,13:33:21,13:56:05,NA,incomplete,7,filling,1,right,Green_Plus_Stripes_4.jpg,Blue_Star_Grid_4.jpg,Red_Triangle_Stripes_3.jpg,right,1194.999999999709,true,NA,NA,NA,NA,NA,NA,NA,NA,true
khjcs8rn,3lvtfb9df8vfwjy33dzq8w9nvhnqgc,3r8yzbnq9lvyqalw1c0yr3sm9m27q8,khjcs8rn,2020-0188,2020-11-18,13:33:21,13:56:05,NA,incomplete,8,filling,0,right,Green_Triangle_Stripes_1.jpg,Blue_Circle_Chess_1.jpg,Purple_Star_Stripes_2.jpg,left,1010.0000000020373,false,NA,NA,NA,NA,NA,NA,NA,NA,true
khjcs8rn,3lvtfb9df8vfwjy33dzq8w9nvhnqgc,3r8yzbnq9lvyqalw1c0yr3sm9m27q8,khjcs8rn,2020-0188,2020-11-18,13:33:21,13:56:05,NA,incomplete,9,filling,1,left,Blue_Plus_Dots_1.jpg,Green_Circle_Dots_4.jpg,Purple_Triangle_Grid_1.jpg,left,1404.00000000227,true,NA,NA,NA,NA,NA,NA,NA,NA,true
khjcs8rn,3lvtfb9df8vfwjy33dzq8w9nvhnqgc,3r8yzbnq9lvyqalw1c0yr3sm9m27q8,khjcs8rn,2020-0188,2020-11-18,13:33:21,13:56:05,NA,incomplete,10,filling,0,right,Green_Triangle_Chess_3.jpg,Red_Star_Grid_3.jpg,Blue_Circle_Chess_2.jpg,right,1256.0000000012224,true,NA,NA,NA,NA,NA,NA,NA,NA,true
khjcs8rn,3lvtfb9df8vfwjy33dzq8w9nvhnqgc,3r8yzbnq9lvyqalw1c0yr3sm9m27q8,khjcs8rn,2020-0188,2020-11-18,13:33:21,13:56:05,NA,incomplete,11,filling,1,right,Green_Triangle_Chess_1.jpg,Purple_Star_Grid_1.jpg,Blue_Circle_Chess_3.jpg,right,1225.0000000058208,true,NA,NA,NA,NA,NA,NA,NA,NA,true
khjcs8rn,3lvtfb9df8vfwjy33dzq8w9nvhnqgc,3r8yzbnq9lvyqalw1c0yr3sm9m27q8,khjcs8rn,2020-0188,2020-11-18,13:33:21,13:56:05,NA,incomplete,12,filling,0,right,Purple_Triangle_Dots_1.jpg,Blue_Plus_Stripes_1.jpg,Green_Circle_Dots_3.jpg,right,1424.0000000063446,true,NA,NA,NA,NA,NA,NA,NA,NA,true
khjcs8rn,3lvtfb9df8vfwjy33dzq8w9nvhnqgc,3r8yzbnq9lvyqalw1c0yr3sm9m27q8,khjcs8rn,2020-0188,2020-11-18,13:33:21,13:56:05,NA,incomplete,13,filling,1,right,Green_Star_Chess_1.jpg,Blue_Triangle_Grid_1.jpg,Red_Circle_Chess_4.jpg,right,1449.9999999970896,true,NA,NA,NA,NA,NA,NA,NA,NA,true
khjcs8rn,3lvtfb9df8vfwjy33dzq8w9nvhnqgc,3r8yzbnq9lvyqalw1c0yr3sm9m27q8,khjcs8rn,2020-0188,2020-11-18,13:33:21,13:56:05,NA,incomplete,14,filling,1,right,Blue_Circle_Stripes_2.jpg,Green_Plus_Chess_2.jpg,Purple_Star_Stripes_1.jpg,right,1429.0000000037253,true,NA,NA,NA,NA,NA,NA,NA,NA,true
khjcs8rn,3lvtfb9df8vfwjy33dzq8w9nvhnqgc,3r8yzbnq9lvyqalw1c0yr3sm9m27q8,khjcs8rn,2020-0188,2020-11-18,13:33:21,13:56:05,NA,incomplete,15,filling,1,left,Red_Plus_Stripes_2.jpg,Purple_Triangle_Stripes_1.jpg,Green_Circle_Dots_2.jpg,left,1055.9999999968568,true,NA,NA,NA,NA,NA,NA,NA,NA,true
khjcs8rn,3lvtfb9df8vfwjy33dzq8w9nvhnqgc,3r8yzbnq9lvyqalw1c0yr3sm9m27q8,khjcs8rn,2020-0188,2020-11-18,13:33:21,13:56:05,NA,incomplete,16,filling,1,right,Red_Plus_Stripes_4.jpg,Purple_Star_Chess_4.jpg,Green_Circle_Stripes_3.jpg,right,1419.9999999982538,true,NA,NA,NA,NA,NA,NA,NA,NA,true
khjcs8rn,3lvtfb9df8vfwjy33dzq8w9nvhnqgc,3r8yzbnq9lvyqalw1c0yr3sm9m27q8,khjcs8rn,2020-0188,2020-11-18,13:33:21,13:56:05,NA,incomplete,17,filling,1,right,Red_Triangle_Grid_1.jpg,Blue_Plus_Stripes_1.jpg,Green_Star_Grid_4.jpg,left,1189.0000000057626,false,NA,NA,NA,NA,NA,NA,NA,NA,true
khjcs8rn,3lvtfb9df8vfwjy33dzq8w9nvhnqgc,3r8yzbnq9lvyqalw1c0yr3sm9m27q8,khjcs8rn,2020-0188,2020-11-18,13:33:21,13:56:05,NA,incomplete,18,filling,1,left,Red_Plus_Grid_3.jpg,Green_Triangle_Grid_2.jpg,Purple_Star_Dots_3.jpg,left,1337.9999999961,true,NA,NA,NA,NA,NA,NA,NA,NA,true
khjcs8rn,3lvtfb9df8vfwjy33dzq8w9nvhnqgc,3r8yzbnq9lvyqalw1c0yr3sm9m27q8,khjcs8rn,2020-0188,2020-11-18,13:33:21,13:56:05,NA,incomplete,19,filling,1,right,Red_Triangle_Stripes_4.jpg,Purple_Star_Dots_4.jpg,Blue_Circle_Stripes_2.jpg,right,1256.999999997788,true,NA,NA,NA,NA,NA,NA,NA,NA,true
khjcs8rn,3lvtfb9df8vfwjy33dzq8w9nvhnqgc,3r8yzbnq9lvyqalw1c0yr3sm9m27q8,khjcs8rn,2020-0188,2020-11-18,13:33:21,13:56:05,NA,incomplete,20,number,1,right,Green_Circle_Grid_3.jpg,Red_Star_Grid_4.jpg,Blue_Plus_Stripes_3.jpg,right,1356.999999996333,true,NA,NA,NA,NA,NA,NA,NA,NA,true
khjcs8rn,3lvtfb9df8vfwjy33dzq8w9nvhnqgc,3r8yzbnq9lvyqalw1c0yr3sm9m27q8,khjcs8rn,2020-0188,2020-11-18,13:33:21,13:56:05,NA,incomplete,21,number,1,left,Red_Circle_Stripes_3.jpg,Blue_Star_Dots_3.jpg,Green_Plus_Stripes_1.jpg,left,1385.0000000020373,true,NA,NA,NA,NA,NA,NA,NA,NA,true
khjcs8rn,3lvtfb9df8vfwjy33dzq8w9nvhnqgc,3r8yzbnq9lvyqalw1c0yr3sm9m27q8,khjcs8rn,2020-0188,2020-11-18,13:33:21,13:56:05,NA,incomplete,22,number,1,left,Green_Star_Dots_2.jpg,Purple_Triangle_Stripes_2.jpg,Red_Plus_Dots_4.jpg,left,934.9999999976717,true,NA,NA,NA,NA,NA,NA,NA,NA,true
khjcs8rn,3lvtfb9df8vfwjy33dzq8w9nvhnqgc,3r8yzbnq9lvyqalw1c0yr3sm9m27q8,khjcs8rn,2020-0188,2020-11-18,13:33:21,13:56:05,NA,incomplete,23,number,1,right,Purple_Star_Dots_4.jpg,Green_Circle_Dots_2.jpg,Red_Triangle_Chess_4.jpg,right,868.9999999987776,true,NA,NA,NA,NA,NA,NA,NA,NA,true
khjcs8rn,3lvtfb9df8vfwjy33dzq8w9nvhnqgc,3r8yzbnq9lvyqalw1c0yr3sm9m27q8,khjcs8rn,2020-0188,2020-11-18,13:33:21,13:56:05,NA,incomplete,24,number,1,right,Green_Star_Dots_1.jpg,Purple_Triangle_Dots_4.jpg,Blue_Plus_Grid_1.jpg,right,1095.0000000011642,true,NA,NA,NA,NA,NA,NA,NA,NA,true
khjcs8rn,3lvtfb9df8vfwjy33dzq8w9nvhnqgc,3r8yzbnq9lvyqalw1c0yr3sm9m27q8,khjcs8rn,2020-0188,2020-11-18,13:33:21,13:56:05,NA,incomplete,25,number,1,right,Green_Triangle_Dots_1.jpg,Red_Circle_Dots_4.jpg,Blue_Star_Chess_1.jpg,right,927.9999999998836,true,NA,NA,NA,NA,NA,NA,NA,NA,true
khjcs8rn,3lvtfb9df8vfwjy33dzq8w9nvhnqgc,3r8yzbnq9lvyqalw1c0yr3sm9m27q8,khjcs8rn,2020-0188,2020-11-18,13:33:21,13:56:05,NA,incomplete,26,number,1,left,Purple_Circle_Dots_2.jpg,Green_Star_Chess_2.jpg,Red_Triangle_Dots_4.jpg,left,847.9999999981374,true,NA,NA,NA,NA,NA,NA,NA,NA,true
khjcs8rn,3lvtfb9df8vfwjy33dzq8w9nvhnqgc,3r8yzbnq9lvyqalw1c0yr3sm9m27q8,khjcs8rn,2020-0188,2020-11-18,13:33:21,13:56:05,NA,incomplete,27,number,1,left,Red_Triangle_Chess_4.jpg,Purple_Star_Stripes_4.jpg,Green_Plus_Chess_3.jpg,left,1250,true,NA,NA,NA,NA,NA,NA,NA,NA,true
khjcs8rn,3lvtfb9df8vfwjy33dzq8w9nvhnqgc,3r8yzbnq9lvyqalw1c0yr3sm9m27q8,khjcs8rn,2020-0188,2020-11-18,13:33:21,13:56:05,NA,incomplete,28,number,1,right,Blue_Star_Chess_3.jpg,Purple_Plus_Chess_2.jpg,Green_Triangle_Dots_3.jpg,right,835.9999999956926,true,NA,NA,NA,NA,NA,NA,NA,NA,true
khjcs8rn,3lvtfb9df8vfwjy33dzq8w9nvhnqgc,3r8yzbnq9lvyqalw1c0yr3sm9m27q8,khjcs8rn,2020-0188,2020-11-18,13:33:21,13:56:05,NA,incomplete,29,number,1,right,Green_Plus_Grid_4.jpg,Red_Circle_Grid_3.jpg,Purple_Triangle_Chess_4.jpg,left,1225.9999999951106,false,NA,NA,NA,NA,NA,NA,NA,NA,true
khjcs8rn,3lvtfb9df8vfwjy33dzq8w9nvhnqgc,3r8yzbnq9lvyqalw1c0yr3sm9m27q8,khjcs8rn,2020-0188,2020-11-18,13:33:21,13:56:05,NA,incomplete,30,number,1,right,Purple_Triangle_Dots_3.jpg,Blue_Circle_Dots_4.jpg,Red_Star_Grid_3.jpg,right,953.9999999979045,true,NA,NA,NA,NA,NA,NA,NA,NA,true
khjcs8rn,3lvtfb9df8vfwjy33dzq8w9nvhnqgc,3r8yzbnq9lvyqalw1c0yr3sm9m27q8,khjcs8rn,2020-0188,2020-11-18,13:33:21,13:56:05,NA,incomplete,31,number,1,left,Purple_Star_Grid_1.jpg,Green_Plus_Stripes_1.jpg,Blue_Triangle_Grid_2.jpg,left,968.9999999973224,true,NA,NA,NA,NA,NA,NA,NA,NA,true
khjcs8rn,3lvtfb9df8vfwjy33dzq8w9nvhnqgc,3r8yzbnq9lvyqalw1c0yr3sm9m27q8,khjcs8rn,2020-0188,2020-11-18,13:33:21,13:56:05,NA,incomplete,32,number,1,left,Blue_Circle_Stripes_1.jpg,Purple_Plus_Chess_1.jpg,Green_Star_Stripes_4.jpg,left,902.9999999984284,true,NA,NA,NA,NA,NA,NA,NA,NA,true
khjcs8rn,3lvtfb9df8vfwjy33dzq8w9nvhnqgc,3r8yzbnq9lvyqalw1c0yr3sm9m27q8,khjcs8rn,2020-0188,2020-11-18,13:33:21,13:56:05,NA,incomplete,33,number,1,right,Purple_Triangle_Stripes_4.jpg,Blue_Star_Stripes_3.jpg,Green_Circle_Grid_4.jpg,right,871.000000006461,true,NA,NA,NA,NA,NA,NA,NA,NA,true
khjcs8rn,3lvtfb9df8vfwjy33dzq8w9nvhnqgc,3r8yzbnq9lvyqalw1c0yr3sm9m27q8,khjcs8rn,2020-0188,2020-11-18,13:33:21,13:56:05,NA,incomplete,34,number,0,right,Red_Plus_Chess_4.jpg,Green_Triangle_Chess_1.jpg,Purple_Star_Dots_4.jpg,right,841.999999996915,true,NA,NA,NA,NA,NA,NA,NA,NA,true
khjcs8rn,3lvtfb9df8vfwjy33dzq8w9nvhnqgc,3r8yzbnq9lvyqalw1c0yr3sm9m27q8,khjcs8rn,2020-0188,2020-11-18,13:33:21,13:56:05,NA,incomplete,35,number,0,right,Red_Plus_Chess_3.jpg,Purple_Triangle_Chess_1.jpg,Blue_Circle_Grid_3.jpg,right,1034.9999999962165,true,NA,NA,NA,NA,NA,NA,NA,NA,true
khjcs8rn,3lvtfb9df8vfwjy33dzq8w9nvhnqgc,3r8yzbnq9lvyqalw1c0yr3sm9m27q8,khjcs8rn,2020-0188,2020-11-18,13:33:21,13:56:05,NA,incomplete,36,number,0,right,Red_Circle_Chess_2.jpg,Green_Star_Chess_1.jpg,Blue_Triangle_Dots_2.jpg,right,1399.0000000048894,true,NA,NA,NA,NA,NA,NA,NA,NA,true
khjcs8rn,3lvtfb9df8vfwjy33dzq8w9nvhnqgc,3r8yzbnq9lvyqalw1c0yr3sm9m27q8,khjcs8rn,2020-0188,2020-11-18,13:33:21,13:56:05,NA,incomplete,37,number,1,right,Blue_Triangle_Grid_1.jpg,Green_Star_Grid_4.jpg,Purple_Circle_Chess_1.jpg,right,1555.000000000291,true,NA,NA,NA,NA,NA,NA,NA,NA,true
khjcs8rn,3lvtfb9df8vfwjy33dzq8w9nvhnqgc,3r8yzbnq9lvyqalw1c0yr3sm9m27q8,khjcs8rn,2020-0188,2020-11-18,13:33:21,13:56:05,NA,incomplete,38,number,1,left,Red_Plus_Grid_4.jpg,Purple_Triangle_Stripes_4.jpg,Blue_Circle_Grid_2.jpg,left,1226.9999999989523,true,NA,NA,NA,NA,NA,NA,NA,NA,true
khjcs8rn,3lvtfb9df8vfwjy33dzq8w9nvhnqgc,3r8yzbnq9lvyqalw1c0yr3sm9m27q8,khjcs8rn,2020-0188,2020-11-18,13:33:21,13:56:05,NA,incomplete,39,number,1,left,Blue_Star_Dots_2.jpg,Green_Triangle_Grid_2.jpg,Red_Circle_Dots_4.jpg,left,1197.0000000001164,true,NA,NA,NA,NA,NA,NA,NA,NA,true
khjcs8rn,3lvtfb9df8vfwjy33dzq8w9nvhnqgc,3r8yzbnq9lvyqalw1c0yr3sm9m27q8,khjcs8rn,2020-0188,2020-11-18,13:33:21,13:56:05,NA,incomplete,0,filling,0,left,Blue_Plus_Dots_4.jpg,Green_Triangle_Dots_1.jpg,Purple_Star_Chess_4.jpg,right,1259.9999999947613,false,low,NA,NA,NA,NA,NA,NA,NA,false
khjcs8rn,3lvtfb9df8vfwjy33dzq8w9nvhnqgc,3r8yzbnq9lvyqalw1c0yr3sm9m27q8,khjcs8rn,2020-0188,2020-11-18,13:33:21,13:56:05,NA,incomplete,1,filling,0,left,Green_Plus_Stripes_4.jpg,Blue_Circle_Stripes_3.jpg,Red_Triangle_Chess_4.jpg,right,1117.999999994936,false,low,NA,NA,NA,NA,NA,NA,NA,false
khjcs8rn,3lvtfb9df8vfwjy33dzq8w9nvhnqgc,3r8yzbnq9lvyqalw1c0yr3sm9m27q8,khjcs8rn,2020-0188,2020-11-18,13:33:21,13:56:05,NA,incomplete,2,filling,1,right,Red_Star_Dots_1.jpg,Blue_Triangle_Chess_1.jpg,Purple_Plus_Dots_3.jpg,left,707.9999999987194,false,low,NA,NA,NA,NA,NA,NA,NA,false
khjcs8rn,3lvtfb9df8vfwjy33dzq8w9nvhnqgc,3r8yzbnq9lvyqalw1c0yr3sm9m27q8,khjcs8rn,2020-0188,2020-11-18,13:33:21,13:56:05,NA,incomplete,3,filling,0,left,Green_Plus_Grid_4.jpg,Red_Star_Grid_3.jpg,Blue_Circle_Dots_4.jpg,left,1644.0000000002328,true,low,NA,NA,NA,NA,NA,NA,NA,false
khjcs8rn,3lvtfb9df8vfwjy33dzq8w9nvhnqgc,3r8yzbnq9lvyqalw1c0yr3sm9m27q8,khjcs8rn,2020-0188,2020-11-18,13:33:21,13:56:05,NA,incomplete,4,filling,1,left,Purple_Plus_Chess_4.jpg,Red_Triangle_Chess_1.jpg,Blue_Star_Stripes_4.jpg,right,718.0000000007567,false,low,NA,NA,NA,NA,NA,NA,NA,false
khjcs8rn,3lvtfb9df8vfwjy33dzq8w9nvhnqgc,3r8yzbnq9lvyqalw1c0yr3sm9m27q8,khjcs8rn,2020-0188,2020-11-18,13:33:21,13:56:05,NA,incomplete,5,filling,1,right,Green_Plus_Dots_3.jpg,Blue_Star_Stripes_3.jpg,Purple_Triangle_Dots_4.jpg,right,1816.9999999954598,true,low,NA,NA,NA,NA,NA,NA,NA,false
khjcs8rn,3lvtfb9df8vfwjy33dzq8w9nvhnqgc,3r8yzbnq9lvyqalw1c0yr3sm9m27q8,khjcs8rn,2020-0188,2020-11-18,13:33:21,13:56:05,NA,incomplete,6,filling,1,left,Blue_Star_Grid_2.jpg,Red_Plus_Grid_3.jpg,Green_Circle_Stripes_2.jpg,left,1411.0000000000582,true,low,NA,NA,NA,NA,NA,NA,NA,false
khjcs8rn,3lvtfb9df8vfwjy33dzq8w9nvhnqgc,3r8yzbnq9lvyqalw1c0yr3sm9m27q8,khjcs8rn,2020-0188,2020-11-18,13:33:21,13:56:05,NA,incomplete,7,filling,1,right,Blue_Plus_Grid_2.jpg,Green_Circle_Stripes_2.jpg,Red_Star_Grid_1.jpg,right,1440.0000000023283,true,low,NA,NA,NA,NA,NA,NA,NA,false
khjcs8rn,3lvtfb9df8vfwjy33dzq8w9nvhnqgc,3r8yzbnq9lvyqalw1c0yr3sm9m27q8,khjcs8rn,2020-0188,2020-11-18,13:33:21,13:56:05,NA,incomplete,8,filling,1,right,Green_Plus_Grid_4.jpg,Purple_Star_Dots_4.jpg,Blue_Triangle_Grid_3.jpg,right,1405.9999999954016,true,low,NA,NA,NA,NA,NA,NA,NA,false
khjcs8rn,3lvtfb9df8vfwjy33dzq8w9nvhnqgc,3r8yzbnq9lvyqalw1c0yr3sm9m27q8,khjcs8rn,2020-0188,2020-11-18,13:33:21,13:56:05,NA,incomplete,9,filling,0,left,Purple_Circle_Dots_1.jpg,Green_Triangle_Dots_3.jpg,Blue_Plus_Chess_1.jpg,left,1433.0000000045402,true,low,NA,NA,NA,NA,NA,NA,NA,false
khjcs8rn,3lvtfb9df8vfwjy33dzq8w9nvhnqgc,3r8yzbnq9lvyqalw1c0yr3sm9m27q8,khjcs8rn,2020-0188,2020-11-18,13:33:21,13:56:05,NA,incomplete,10,filling,1,left,Red_Plus_Chess_3.jpg,Green_Circle_Chess_4.jpg,Blue_Triangle_Dots_3.jpg,left,1778.9999999949941,true,low,NA,NA,NA,NA,NA,NA,NA,false
khjcs8rn,3lvtfb9df8vfwjy33dzq8w9nvhnqgc,3r8yzbnq9lvyqalw1c0yr3sm9m27q8,khjcs8rn,2020-0188,2020-11-18,13:33:21,13:56:05,NA,incomplete,11,filling,1,left,Purple_Circle_Grid_1.jpg,Green_Star_Grid_3.jpg,Blue_Triangle_Chess_1.jpg,left,1264.999999999418,true,low,NA,NA,NA,NA,NA,NA,NA,false
khjcs8rn,3lvtfb9df8vfwjy33dzq8w9nvhnqgc,3r8yzbnq9lvyqalw1c0yr3sm9m27q8,khjcs8rn,2020-0188,2020-11-18,13:33:21,13:56:05,NA,incomplete,12,filling,1,right,Green_Circle_Stripes_2.jpg,Purple_Plus_Grid_2.jpg,Red_Triangle_Stripes_1.jpg,none,0,false,low,NA,NA,NA,NA,NA,NA,NA,false
khjcs8rn,3lvtfb9df8vfwjy33dzq8w9nvhnqgc,3r8yzbnq9lvyqalw1c0yr3sm9m27q8,khjcs8rn,2020-0188,2020-11-18,13:33:21,13:56:05,NA,incomplete,13,filling,1,left,Purple_Circle_Grid_3.jpg,Green_Triangle_Grid_4.jpg,Blue_Star_Chess_3.jpg,left,1112.0000000009895,true,low,NA,NA,NA,NA,NA,NA,NA,false
khjcs8rn,3lvtfb9df8vfwjy33dzq8w9nvhnqgc,3r8yzbnq9lvyqalw1c0yr3sm9m27q8,khjcs8rn,2020-0188,2020-11-18,13:33:21,13:56:05,NA,incomplete,14,filling,1,left,Red_Plus_Stripes_2.jpg,Green_Star_Stripes_3.jpg,Purple_Circle_Chess_2.jpg,left,1294.9999999982538,true,low,NA,NA,NA,NA,NA,NA,NA,false
khjcs8rn,3lvtfb9df8vfwjy33dzq8w9nvhnqgc,3r8yzbnq9lvyqalw1c0yr3sm9m27q8,khjcs8rn,2020-0188,2020-11-18,13:33:21,13:56:05,NA,incomplete,15,filling,1,right,Red_Star_Chess_1.jpg,Purple_Triangle_Grid_1.jpg,Blue_Circle_Chess_4.jpg,right,1023.9999999976135,true,low,NA,NA,NA,NA,NA,NA,NA,false
khjcs8rn,3lvtfb9df8vfwjy33dzq8w9nvhnqgc,3r8yzbnq9lvyqalw1c0yr3sm9m27q8,khjcs8rn,2020-0188,2020-11-18,13:33:21,13:56:05,NA,incomplete,16,filling,1,right,Purple_Star_Stripes_3.jpg,Red_Triangle_Dots_3.jpg,Green_Circle_Stripes_1.jpg,right,1358.0000000002328,true,low,NA,NA,NA,NA,NA,NA,NA,false
khjcs8rn,3lvtfb9df8vfwjy33dzq8w9nvhnqgc,3r8yzbnq9lvyqalw1c0yr3sm9m27q8,khjcs8rn,2020-0188,2020-11-18,13:33:21,13:56:05,NA,incomplete,17,filling,0,right,Purple_Star_Grid_4.jpg,Green_Plus_Stripes_4.jpg,Blue_Circle_Grid_2.jpg,right,1675.000000002794,true,low,NA,NA,NA,NA,NA,NA,NA,false
khjcs8rn,3lvtfb9df8vfwjy33dzq8w9nvhnqgc,3r8yzbnq9lvyqalw1c0yr3sm9m27q8,khjcs8rn,2020-0188,2020-11-18,13:33:21,13:56:05,NA,incomplete,18,filling,1,left,Blue_Star_Chess_4.jpg,Green_Triangle_Chess_3.jpg,Purple_Plus_Stripes_4.jpg,left,1135.999999998603,true,low,NA,NA,NA,NA,NA,NA,NA,false
khjcs8rn,3lvtfb9df8vfwjy33dzq8w9nvhnqgc,3r8yzbnq9lvyqalw1c0yr3sm9m27q8,khjcs8rn,2020-0188,2020-11-18,13:33:21,13:56:05,NA,incomplete,19,filling,1,left,Red_Circle_Chess_2.jpg,Purple_Star_Chess_1.jpg,Green_Plus_Grid_2.jpg,right,1648.9999999976717,false,low,NA,NA,NA,NA,NA,NA,NA,false
khjcs8rn,3lvtfb9df8vfwjy33dzq8w9nvhnqgc,3r8yzbnq9lvyqalw1c0yr3sm9m27q8,khjcs8rn,2020-0188,2020-11-18,13:33:21,13:56:05,NA,incomplete,20,filling,1,right,Purple_Plus_Stripes_3.jpg,Red_Circle_Chess_3.jpg,Green_Triangle_Stripes_1.jpg,right,1430.0000000003492,true,low,NA,NA,NA,NA,NA,NA,NA,false
khjcs8rn,3lvtfb9df8vfwjy33dzq8w9nvhnqgc,3r8yzbnq9lvyqalw1c0yr3sm9m27q8,khjcs8rn,2020-0188,2020-11-18,13:33:21,13:56:05,NA,incomplete,21,filling,1,right,Red_Triangle_Chess_1.jpg,Purple_Circle_Dots_1.jpg,Green_Plus_Chess_2.jpg,right,1072,true,low,NA,NA,NA,NA,NA,NA,NA,false
khjcs8rn,3lvtfb9df8vfwjy33dzq8w9nvhnqgc,3r8yzbnq9lvyqalw1c0yr3sm9m27q8,khjcs8rn,2020-0188,2020-11-18,13:33:21,13:56:05,NA,incomplete,22,filling,1,right,Blue_Circle_Stripes_1.jpg,Red_Plus_Chess_1.jpg,Green_Triangle_Stripes_4.jpg,right,1177.9999999998836,true,low,NA,NA,NA,NA,NA,NA,NA,false
khjcs8rn,3lvtfb9df8vfwjy33dzq8w9nvhnqgc,3r8yzbnq9lvyqalw1c0yr3sm9m27q8,khjcs8rn,2020-0188,2020-11-18,13:33:21,13:56:05,NA,incomplete,23,filling,1,right,Purple_Star_Grid_3.jpg,Red_Triangle_Stripes_3.jpg,Blue_Plus_Grid_1.jpg,left,1486.9999999937136,false,low,NA,NA,NA,NA,NA,NA,NA,false
khjcs8rn,3lvtfb9df8vfwjy33dzq8w9nvhnqgc,3r8yzbnq9lvyqalw1c0yr3sm9m27q8,khjcs8rn,2020-0188,2020-11-18,13:33:21,13:56:05,NA,incomplete,24,filling,1,right,Blue_Plus_Chess_4.jpg,Purple_Triangle_Stripes_4.jpg,Green_Star_Chess_3.jpg,right,1096.999999994412,true,low,NA,NA,NA,NA,NA,NA,NA,false
khjcs8rn,3lvtfb9df8vfwjy33dzq8w9nvhnqgc,3r8yzbnq9lvyqalw1c0yr3sm9m27q8,khjcs8rn,2020-0188,2020-11-18,13:33:21,13:56:05,NA,incomplete,25,filling,0,right,Red_Plus_Stripes_3.jpg,Blue_Circle_Grid_3.jpg,Green_Star_Stripes_2.jpg,left,1521.999999997206,false,low,NA,NA,NA,NA,NA,NA,NA,false
khjcs8rn,3lvtfb9df8vfwjy33dzq8w9nvhnqgc,3r8yzbnq9lvyqalw1c0yr3sm9m27q8,khjcs8rn,2020-0188,2020-11-18,13:33:21,13:56:05,NA,incomplete,26,filling,1,left,Red_Triangle_Stripes_2.jpg,Purple_Circle_Stripes_1.jpg,Blue_Plus_Grid_2.jpg,left,968.9999999973224,true,low,NA,NA,NA,NA,NA,NA,NA,false
khjcs8rn,3lvtfb9df8vfwjy33dzq8w9nvhnqgc,3r8yzbnq9lvyqalw1c0yr3sm9m27q8,khjcs8rn,2020-0188,2020-11-18,13:33:21,13:56:05,NA,incomplete,27,filling,1,right,Purple_Circle_Dots_1.jpg,Green_Triangle_Grid_1.jpg,Blue_Plus_Dots_2.jpg,right,1110.0000000004657,true,low,NA,NA,NA,NA,NA,NA,NA,false
khjcs8rn,3lvtfb9df8vfwjy33dzq8w9nvhnqgc,3r8yzbnq9lvyqalw1c0yr3sm9m27q8,khjcs8rn,2020-0188,2020-11-18,13:33:21,13:56:05,NA,incomplete,28,filling,1,left,Red_Star_Chess_2.jpg,Purple_Plus_Chess_4.jpg,Green_Circle_Grid_2.jpg,left,1343.000000000815,true,low,NA,NA,NA,NA,NA,NA,NA,false
khjcs8rn,3lvtfb9df8vfwjy33dzq8w9nvhnqgc,3r8yzbnq9lvyqalw1c0yr3sm9m27q8,khjcs8rn,2020-0188,2020-11-18,13:33:21,13:56:05,NA,incomplete,29,filling,0,right,Red_Triangle_Chess_3.jpg,Green_Star_Dots_3.jpg,Blue_Plus_Chess_2.jpg,right,1069.9999999996508,true,low,NA,NA,NA,NA,NA,NA,NA,false
khjcs8rn,3lvtfb9df8vfwjy33dzq8w9nvhnqgc,3r8yzbnq9lvyqalw1c0yr3sm9m27q8,khjcs8rn,2020-0188,2020-11-18,13:33:21,13:56:05,NA,incomplete,30,number,1,right,Red_Plus_Chess_4.jpg,Green_Triangle_Chess_3.jpg,Blue_Star_Stripes_4.jpg,left,997.9999999996508,false,low,NA,NA,NA,NA,NA,NA,NA,false
khjcs8rn,3lvtfb9df8vfwjy33dzq8w9nvhnqgc,3r8yzbnq9lvyqalw1c0yr3sm9m27q8,khjcs8rn,2020-0188,2020-11-18,13:33:21,13:56:05,NA,incomplete,31,number,1,right,Purple_Plus_Grid_4.jpg,Red_Triangle_Grid_3.jpg,Green_Circle_Dots_4.jpg,right,1507.999999994412,true,low,NA,NA,NA,NA,NA,NA,NA,false
khjcs8rn,3lvtfb9df8vfwjy33dzq8w9nvhnqgc,3r8yzbnq9lvyqalw1c0yr3sm9m27q8,khjcs8rn,2020-0188,2020-11-18,13:33:21,13:56:05,NA,incomplete,32,number,1,right,Purple_Star_Chess_4.jpg,Green_Circle_Chess_1.jpg,Red_Triangle_Grid_4.jpg,right,1372.9999999996508,true,low,NA,NA,NA,NA,NA,NA,NA,false
khjcs8rn,3lvtfb9df8vfwjy33dzq8w9nvhnqgc,3r8yzbnq9lvyqalw1c0yr3sm9m27q8,khjcs8rn,2020-0188,2020-11-18,13:33:21,13:56:05,NA,incomplete,33,number,0,left,Red_Circle_Stripes_1.jpg,Purple_Plus_Chess_1.jpg,Green_Star_Stripes_3.jpg,left,1625.999999996624,true,low,NA,NA,NA,NA,NA,NA,NA,false
khjcs8rn,3lvtfb9df8vfwjy33dzq8w9nvhnqgc,3r8yzbnq9lvyqalw1c0yr3sm9m27q8,khjcs8rn,2020-0188,2020-11-18,13:33:21,13:56:05,NA,incomplete,34,number,1,left,Purple_Circle_Grid_3.jpg,Red_Star_Chess_3.jpg,Blue_Triangle_Grid_1.jpg,right,1148.0000000011642,false,low,NA,NA,NA,NA,NA,NA,NA,false
khjcs8rn,3lvtfb9df8vfwjy33dzq8w9nvhnqgc,3r8yzbnq9lvyqalw1c0yr3sm9m27q8,khjcs8rn,2020-0188,2020-11-18,13:33:21,13:56:05,NA,incomplete,35,number,0,left,Blue_Triangle_Grid_2.jpg,Purple_Circle_Dots_2.jpg,Red_Star_Grid_3.jpg,right,1765.0000000066357,false,low,NA,NA,NA,NA,NA,NA,NA,false
khjcs8rn,3lvtfb9df8vfwjy33dzq8w9nvhnqgc,3r8yzbnq9lvyqalw1c0yr3sm9m27q8,khjcs8rn,2020-0188,2020-11-18,13:33:21,13:56:05,NA,incomplete,36,number,1,left,Red_Triangle_Stripes_1.jpg,Green_Circle_Chess_1.jpg,Purple_Plus_Stripes_4.jpg,right,1716.0000000002328,false,low,NA,NA,NA,NA,NA,NA,NA,false
khjcs8rn,3lvtfb9df8vfwjy33dzq8w9nvhnqgc,3r8yzbnq9lvyqalw1c0yr3sm9m27q8,khjcs8rn,2020-0188,2020-11-18,13:33:21,13:56:05,NA,incomplete,37,number,1,left,Purple_Star_Dots_2.jpg,Blue_Triangle_Grid_2.jpg,Green_Plus_Dots_3.jpg,right,1203.0000000012806,false,low,NA,NA,NA,NA,NA,NA,NA,false
khjcs8rn,3lvtfb9df8vfwjy33dzq8w9nvhnqgc,3r8yzbnq9lvyqalw1c0yr3sm9m27q8,khjcs8rn,2020-0188,2020-11-18,13:33:21,13:56:05,NA,incomplete,38,number,1,left,Blue_Circle_Dots_2.jpg,Red_Plus_Stripes_2.jpg,Green_Triangle_Dots_3.jpg,right,1079.0000000051223,false,low,NA,NA,NA,NA,NA,NA,NA,false
khjcs8rn,3lvtfb9df8vfwjy33dzq8w9nvhnqgc,3r8yzbnq9lvyqalw1c0yr3sm9m27q8,khjcs8rn,2020-0188,2020-11-18,13:33:21,13:56:05,NA,incomplete,39,number,1,right,Purple_Plus_Dots_4.jpg,Red_Triangle_Dots_3.jpg,Blue_Star_Chess_4.jpg,left,1663.9999999969732,false,low,NA,NA,NA,NA,NA,NA,NA,false
khjcs8rn,3lvtfb9df8vfwjy33dzq8w9nvhnqgc,3r8yzbnq9lvyqalw1c0yr3sm9m27q8,khjcs8rn,2020-0188,2020-11-18,13:33:21,13:56:05,NA,incomplete,40,number,1,right,Green_Star_Chess_4.jpg,Blue_Plus_Chess_1.jpg,Purple_Circle_Grid_4.jpg,right,1619.9999999953434,true,low,NA,NA,NA,NA,NA,NA,NA,false
khjcs8rn,3lvtfb9df8vfwjy33dzq8w9nvhnqgc,3r8yzbnq9lvyqalw1c0yr3sm9m27q8,khjcs8rn,2020-0188,2020-11-18,13:33:21,13:56:05,NA,incomplete,41,number,1,right,Blue_Star_Dots_3.jpg,Red_Plus_Dots_2.jpg,Green_Triangle_Chess_3.jpg,right,1190.0000000023283,true,low,NA,NA,NA,NA,NA,NA,NA,false
khjcs8rn,3lvtfb9df8vfwjy33dzq8w9nvhnqgc,3r8yzbnq9lvyqalw1c0yr3sm9m27q8,khjcs8rn,2020-0188,2020-11-18,13:33:21,13:56:05,NA,incomplete,42,number,1,right,Red_Star_Chess_4.jpg,Purple_Plus_Chess_2.jpg,Blue_Circle_Dots_4.jpg,right,970.9999999976717,true,low,NA,NA,NA,NA,NA,NA,NA,false
khjcs8rn,3lvtfb9df8vfwjy33dzq8w9nvhnqgc,3r8yzbnq9lvyqalw1c0yr3sm9m27q8,khjcs8rn,2020-0188,2020-11-18,13:33:21,13:56:05,NA,incomplete,43,number,1,left,Green_Triangle_Chess_1.jpg,Purple_Star_Dots_1.jpg,Blue_Circle_Chess_4.jpg,left,984.0000000039581,true,low,NA,NA,NA,NA,NA,NA,NA,false
khjcs8rn,3lvtfb9df8vfwjy33dzq8w9nvhnqgc,3r8yzbnq9lvyqalw1c0yr3sm9m27q8,khjcs8rn,2020-0188,2020-11-18,13:33:21,13:56:05,NA,incomplete,44,number,1,left,Blue_Triangle_Chess_4.jpg,Purple_Circle_Grid_4.jpg,Red_Plus_Chess_1.jpg,left,709.0000000025611,true,low,NA,NA,NA,NA,NA,NA,NA,false
khjcs8rn,3lvtfb9df8vfwjy33dzq8w9nvhnqgc,3r8yzbnq9lvyqalw1c0yr3sm9m27q8,khjcs8rn,2020-0188,2020-11-18,13:33:21,13:56:05,NA,incomplete,45,number,1,right,Blue_Star_Dots_4.jpg,Purple_Plus_Dots_2.jpg,Red_Triangle_Grid_4.jpg,right,1021.999999997206,true,low,NA,NA,NA,NA,NA,NA,NA,false
khjcs8rn,3lvtfb9df8vfwjy33dzq8w9nvhnqgc,3r8yzbnq9lvyqalw1c0yr3sm9m27q8,khjcs8rn,2020-0188,2020-11-18,13:33:21,13:56:05,NA,incomplete,46,number,0,left,Purple_Star_Chess_2.jpg,Blue_Plus_Grid_2.jpg,Red_Triangle_Chess_3.jpg,left,775.9999999980209,true,low,NA,NA,NA,NA,NA,NA,NA,false
khjcs8rn,3lvtfb9df8vfwjy33dzq8w9nvhnqgc,3r8yzbnq9lvyqalw1c0yr3sm9m27q8,khjcs8rn,2020-0188,2020-11-18,13:33:21,13:56:05,NA,incomplete,47,number,1,right,Purple_Circle_Stripes_3.jpg,Blue_Plus_Stripes_2.jpg,Red_Star_Grid_3.jpg,right,1229.999999995809,true,low,NA,NA,NA,NA,NA,NA,NA,false
khjcs8rn,3lvtfb9df8vfwjy33dzq8w9nvhnqgc,3r8yzbnq9lvyqalw1c0yr3sm9m27q8,khjcs8rn,2020-0188,2020-11-18,13:33:21,13:56:05,NA,incomplete,48,number,1,left,Blue_Circle_Grid_2.jpg,Red_Star_Dots_2.jpg,Purple_Triangle_Grid_1.jpg,left,881.9999999976717,true,low,NA,NA,NA,NA,NA,NA,NA,false
khjcs8rn,3lvtfb9df8vfwjy33dzq8w9nvhnqgc,3r8yzbnq9lvyqalw1c0yr3sm9m27q8,khjcs8rn,2020-0188,2020-11-18,13:33:21,13:56:05,NA,incomplete,49,number,0,left,Blue_Plus_Dots_4.jpg,Green_Triangle_Chess_4.jpg,Purple_Circle_Dots_3.jpg,left,787.0000000038417,true,low,NA,NA,NA,NA,NA,NA,NA,false
khjcs8rn,3lvtfb9df8vfwjy33dzq8w9nvhnqgc,3r8yzbnq9lvyqalw1c0yr3sm9m27q8,khjcs8rn,2020-0188,2020-11-18,13:33:21,13:56:05,NA,incomplete,50,number,1,left,Red_Circle_Stripes_1.jpg,Green_Plus_Chess_1.jpg,Blue_Star_Stripes_4.jpg,right,938.0000000018626,false,low,NA,NA,NA,NA,NA,NA,NA,false
khjcs8rn,3lvtfb9df8vfwjy33dzq8w9nvhnqgc,3r8yzbnq9lvyqalw1c0yr3sm9m27q8,khjcs8rn,2020-0188,2020-11-18,13:33:21,13:56:05,NA,incomplete,51,number,1,left,Blue_Plus_Stripes_3.jpg,Purple_Triangle_Chess_3.jpg,Green_Star_Stripes_1.jpg,left,759.0000000055879,true,low,NA,NA,NA,NA,NA,NA,NA,false
khjcs8rn,3lvtfb9df8vfwjy33dzq8w9nvhnqgc,3r8yzbnq9lvyqalw1c0yr3sm9m27q8,khjcs8rn,2020-0188,2020-11-18,13:33:21,13:56:05,NA,incomplete,52,number,1,right,Green_Plus_Grid_1.jpg,Red_Circle_Grid_3.jpg,Purple_Triangle_Chess_1.jpg,left,957.9999999988358,false,low,NA,NA,NA,NA,NA,NA,NA,false
khjcs8rn,3lvtfb9df8vfwjy33dzq8w9nvhnqgc,3r8yzbnq9lvyqalw1c0yr3sm9m27q8,khjcs8rn,2020-0188,2020-11-18,13:33:21,13:56:05,NA,incomplete,53,number,0,right,Green_Star_Dots_2.jpg,Red_Plus_Dots_1.jpg,Blue_Triangle_Grid_2.jpg,right,730.9999999997672,true,low,NA,NA,NA,NA,NA,NA,NA,false
khjcs8rn,3lvtfb9df8vfwjy33dzq8w9nvhnqgc,3r8yzbnq9lvyqalw1c0yr3sm9m27q8,khjcs8rn,2020-0188,2020-11-18,13:33:21,13:56:05,NA,incomplete,54,number,1,right,Purple_Circle_Dots_1.jpg,Blue_Star_Dots_4.jpg,Green_Triangle_Grid_1.jpg,right,1250.999999996624,true,low,NA,NA,NA,NA,NA,NA,NA,false
khjcs8rn,3lvtfb9df8vfwjy33dzq8w9nvhnqgc,3r8yzbnq9lvyqalw1c0yr3sm9m27q8,khjcs8rn,2020-0188,2020-11-18,13:33:21,13:56:05,NA,incomplete,55,number,1,right,Purple_Plus_Chess_3.jpg,Blue_Star_Chess_4.jpg,Red_Triangle_Dots_3.jpg,right,1143.0000000036089,true,low,NA,NA,NA,NA,NA,NA,NA,false
khjcs8rn,3lvtfb9df8vfwjy33dzq8w9nvhnqgc,3r8yzbnq9lvyqalw1c0yr3sm9m27q8,khjcs8rn,2020-0188,2020-11-18,13:33:21,13:56:05,NA,incomplete,56,number,1,right,Red_Circle_Stripes_2.jpg,Green_Plus_Stripes_3.jpg,Purple_Star_Grid_2.jpg,right,1692.9999999993015,true,low,NA,NA,NA,NA,NA,NA,NA,false
khjcs8rn,3lvtfb9df8vfwjy33dzq8w9nvhnqgc,3r8yzbnq9lvyqalw1c0yr3sm9m27q8,khjcs8rn,2020-0188,2020-11-18,13:33:21,13:56:05,NA,incomplete,57,number,1,left,Purple_Circle_Stripes_2.jpg,Red_Triangle_Chess_2.jpg,Green_Plus_Stripes_4.jpg,left,893.0000000037253,true,low,NA,NA,NA,NA,NA,NA,NA,false
khjcs8rn,3lvtfb9df8vfwjy33dzq8w9nvhnqgc,3r8yzbnq9lvyqalw1c0yr3sm9m27q8,khjcs8rn,2020-0188,2020-11-18,13:33:21,13:56:05,NA,incomplete,58,number,1,right,Purple_Plus_Dots_3.jpg,Red_Circle_Dots_4.jpg,Blue_Star_Grid_3.jpg,right,701.9999999974389,true,low,NA,NA,NA,NA,NA,NA,NA,false
khjcs8rn,3lvtfb9df8vfwjy33dzq8w9nvhnqgc,3r8yzbnq9lvyqalw1c0yr3sm9m27q8,khjcs8rn,2020-0188,2020-11-18,13:33:21,13:56:05,NA,incomplete,59,number,1,right,Blue_Circle_Stripes_1.jpg,Red_Plus_Stripes_4.jpg,Purple_Triangle_Chess_1.jpg,right,1158.9999999996508,true,low,NA,NA,NA,NA,NA,NA,NA,false
khjcs8rn,3lvtfb9df8vfwjy33dzq8w9nvhnqgc,3r8yzbnq9lvyqalw1c0yr3sm9m27q8,khjcs8rn,2020-0188,2020-11-18,13:33:21,13:56:05,NA,incomplete,60,filling,1,left,Purple_Circle_Grid_1.jpg,Red_Triangle_Grid_2.jpg,Green_Plus_Stripes_1.jpg,left,1402.9999999984866,true,low,NA,NA,NA,NA,NA,NA,NA,false
khjcs8rn,3lvtfb9df8vfwjy33dzq8w9nvhnqgc,3r8yzbnq9lvyqalw1c0yr3sm9m27q8,khjcs8rn,2020-0188,2020-11-18,13:33:21,13:56:05,NA,incomplete,61,filling,0,right,Blue_Star_Dots_3.jpg,Green_Plus_Grid_3.jpg,Purple_Circle_Dots_4.jpg,left,1206.9999999948777,false,low,NA,NA,NA,NA,NA,NA,NA,false
khjcs8rn,3lvtfb9df8vfwjy33dzq8w9nvhnqgc,3r8yzbnq9lvyqalw1c0yr3sm9m27q8,khjcs8rn,2020-0188,2020-11-18,13:33:21,13:56:05,NA,incomplete,62,filling,0,left,Blue_Star_Stripes_3.jpg,Purple_Plus_Stripes_4.jpg,Red_Circle_Chess_3.jpg,right,877.0000000003492,false,low,NA,NA,NA,NA,NA,NA,NA,false
khjcs8rn,3lvtfb9df8vfwjy33dzq8w9nvhnqgc,3r8yzbnq9lvyqalw1c0yr3sm9m27q8,khjcs8rn,2020-0188,2020-11-18,13:33:21,13:56:05,NA,incomplete,63,filling,1,right,Red_Star_Chess_3.jpg,Blue_Circle_Stripes_3.jpg,Green_Triangle_Chess_2.jpg,left,1184.0000000010477,false,low,NA,NA,NA,NA,NA,NA,NA,false
khjcs8rn,3lvtfb9df8vfwjy33dzq8w9nvhnqgc,3r8yzbnq9lvyqalw1c0yr3sm9m27q8,khjcs8rn,2020-0188,2020-11-18,13:33:21,13:56:05,NA,incomplete,64,filling,1,left,Green_Circle_Chess_2.jpg,Red_Star_Chess_4.jpg,Blue_Triangle_Stripes_2.jpg,right,963.0000000032596,false,low,NA,NA,NA,NA,NA,NA,NA,false
khjcs8rn,3lvtfb9df8vfwjy33dzq8w9nvhnqgc,3r8yzbnq9lvyqalw1c0yr3sm9m27q8,khjcs8rn,2020-0188,2020-11-18,13:33:21,13:56:05,NA,incomplete,65,filling,1,right,Green_Circle_Stripes_1.jpg,Purple_Plus_Grid_1.jpg,Blue_Star_Stripes_2.jpg,left,1137.0000000025611,false,low,NA,NA,NA,NA,NA,NA,NA,false
khjcs8rn,3lvtfb9df8vfwjy33dzq8w9nvhnqgc,3r8yzbnq9lvyqalw1c0yr3sm9m27q8,khjcs8rn,2020-0188,2020-11-18,13:33:21,13:56:05,NA,incomplete,66,filling,1,left,Purple_Triangle_Stripes_4.jpg,Red_Star_Stripes_3.jpg,Green_Plus_Chess_4.jpg,left,1559.9999999976717,true,low,NA,NA,NA,NA,NA,NA,NA,false
khjcs8rn,3lvtfb9df8vfwjy33dzq8w9nvhnqgc,3r8yzbnq9lvyqalw1c0yr3sm9m27q8,khjcs8rn,2020-0188,2020-11-18,13:33:21,13:56:05,NA,incomplete,67,filling,1,left,Red_Plus_Chess_2.jpg,Blue_Star_Chess_4.jpg,Purple_Triangle_Stripes_2.jpg,right,1040.0000000009313,false,low,NA,NA,NA,NA,NA,NA,NA,false
khjcs8rn,3lvtfb9df8vfwjy33dzq8w9nvhnqgc,3r8yzbnq9lvyqalw1c0yr3sm9m27q8,khjcs8rn,2020-0188,2020-11-18,13:33:21,13:56:05,NA,incomplete,68,filling,1,left,Green_Circle_Grid_4.jpg,Red_Triangle_Grid_2.jpg,Purple_Plus_Stripes_4.jpg,right,922.0000000058208,false,low,NA,NA,NA,NA,NA,NA,NA,false
khjcs8rn,3lvtfb9df8vfwjy33dzq8w9nvhnqgc,3r8yzbnq9lvyqalw1c0yr3sm9m27q8,khjcs8rn,2020-0188,2020-11-18,13:33:21,13:56:05,NA,incomplete,69,filling,1,right,Blue_Circle_Chess_4.jpg,Green_Plus_Stripes_4.jpg,Red_Star_Chess_2.jpg,right,1321.0000000036089,true,low,NA,NA,NA,NA,NA,NA,NA,false
khjcs8rn,3lvtfb9df8vfwjy33dzq8w9nvhnqgc,3r8yzbnq9lvyqalw1c0yr3sm9m27q8,khjcs8rn,2020-0188,2020-11-18,13:33:21,13:56:05,NA,incomplete,70,filling,1,left,Purple_Circle_Chess_1.jpg,Red_Star_Chess_2.jpg,Green_Plus_Stripes_1.jpg,left,1271.999999997206,true,low,NA,NA,NA,NA,NA,NA,NA,false
khjcs8rn,3lvtfb9df8vfwjy33dzq8w9nvhnqgc,3r8yzbnq9lvyqalw1c0yr3sm9m27q8,khjcs8rn,2020-0188,2020-11-18,13:33:21,13:56:05,NA,incomplete,71,filling,0,left,Purple_Star_Stripes_4.jpg,Green_Triangle_Stripes_1.jpg,Red_Circle_Chess_4.jpg,left,1194.9999999996508,true,low,NA,NA,NA,NA,NA,NA,NA,false
khjcs8rn,3lvtfb9df8vfwjy33dzq8w9nvhnqgc,3r8yzbnq9lvyqalw1c0yr3sm9m27q8,khjcs8rn,2020-0188,2020-11-18,13:33:21,13:56:05,NA,incomplete,72,filling,0,right,Blue_Plus_Stripes_2.jpg,Purple_Star_Grid_2.jpg,Red_Triangle_Stripes_4.jpg,right,928.9999999965075,true,low,NA,NA,NA,NA,NA,NA,NA,false
khjcs8rn,3lvtfb9df8vfwjy33dzq8w9nvhnqgc,3r8yzbnq9lvyqalw1c0yr3sm9m27q8,khjcs8rn,2020-0188,2020-11-18,13:33:21,13:56:05,NA,incomplete,73,filling,0,left,Purple_Circle_Stripes_2.jpg,Green_Plus_Stripes_1.jpg,Red_Star_Dots_2.jpg,left,1773.9999999976717,true,low,NA,NA,NA,NA,NA,NA,NA,false
khjcs8rn,3lvtfb9df8vfwjy33dzq8w9nvhnqgc,3r8yzbnq9lvyqalw1c0yr3sm9m27q8,khjcs8rn,2020-0188,2020-11-18,13:33:21,13:56:05,NA,incomplete,74,filling,1,left,Green_Plus_Chess_1.jpg,Red_Circle_Chess_2.jpg,Purple_Star_Grid_1.jpg,right,1339.9999999965075,false,low,NA,NA,NA,NA,NA,NA,NA,false
khjcs8rn,3lvtfb9df8vfwjy33dzq8w9nvhnqgc,3r8yzbnq9lvyqalw1c0yr3sm9m27q8,khjcs8rn,2020-0188,2020-11-18,13:33:21,13:56:05,NA,incomplete,75,filling,1,right,Red_Circle_Chess_2.jpg,Green_Triangle_Dots_2.jpg,Purple_Plus_Chess_1.jpg,right,1275.999999998021,true,low,NA,NA,NA,NA,NA,NA,NA,false
khjcs8rn,3lvtfb9df8vfwjy33dzq8w9nvhnqgc,3r8yzbnq9lvyqalw1c0yr3sm9m27q8,khjcs8rn,2020-0188,2020-11-18,13:33:21,13:56:05,NA,incomplete,76,filling,1,right,Blue_Star_Grid_3.jpg,Red_Circle_Chess_3.jpg,Purple_Plus_Grid_2.jpg,right,1661.0000000001164,true,low,NA,NA,NA,NA,NA,NA,NA,false
khjcs8rn,3lvtfb9df8vfwjy33dzq8w9nvhnqgc,3r8yzbnq9lvyqalw1c0yr3sm9m27q8,khjcs8rn,2020-0188,2020-11-18,13:33:21,13:56:05,NA,incomplete,77,filling,1,right,Purple_Circle_Chess_1.jpg,Green_Star_Dots_1.jpg,Red_Plus_Chess_4.jpg,right,1165.9999999974389,true,low,NA,NA,NA,NA,NA,NA,NA,false
khjcs8rn,3lvtfb9df8vfwjy33dzq8w9nvhnqgc,3r8yzbnq9lvyqalw1c0yr3sm9m27q8,khjcs8rn,2020-0188,2020-11-18,13:33:21,13:56:05,NA,incomplete,78,filling,0,right,Green_Triangle_Chess_3.jpg,Red_Plus_Grid_3.jpg,Purple_Circle_Chess_2.jpg,right,1845.9999999976717,true,low,NA,NA,NA,NA,NA,NA,NA,false
khjcs8rn,3lvtfb9df8vfwjy33dzq8w9nvhnqgc,3r8yzbnq9lvyqalw1c0yr3sm9m27q8,khjcs8rn,2020-0188,2020-11-18,13:33:21,13:56:05,NA,incomplete,79,filling,1,right,Blue_Star_Chess_4.jpg,Red_Plus_Stripes_4.jpg,Green_Circle_Chess_2.jpg,left,1680.0000000002328,false,low,NA,NA,NA,NA,NA,NA,NA,false
khjcs8rn,3lvtfb9df8vfwjy33dzq8w9nvhnqgc,3r8yzbnq9lvyqalw1c0yr3sm9m27q8,khjcs8rn,2020-0188,2020-11-18,13:33:21,13:56:05,NA,incomplete,80,filling,1,right,Blue_Star_Dots_3.jpg,Purple_Circle_Stripes_3.jpg,Red_Triangle_Dots_4.jpg,left,1472.9999999981374,false,low,NA,NA,NA,NA,NA,NA,NA,false
khjcs8rn,3lvtfb9df8vfwjy33dzq8w9nvhnqgc,3r8yzbnq9lvyqalw1c0yr3sm9m27q8,khjcs8rn,2020-0188,2020-11-18,13:33:21,13:56:05,NA,incomplete,81,filling,0,right,Purple_Triangle_Chess_4.jpg,Green_Plus_Dots_4.jpg,Blue_Circle_Chess_3.jpg,none,0,false,low,NA,NA,NA,NA,NA,NA,NA,false
khjcs8rn,3lvtfb9df8vfwjy33dzq8w9nvhnqgc,3r8yzbnq9lvyqalw1c0yr3sm9m27q8,khjcs8rn,2020-0188,2020-11-18,13:33:21,13:56:05,NA,incomplete,82,filling,0,right,Green_Circle_Grid_1.jpg,Purple_Triangle_Chess_1.jpg,Red_Star_Grid_3.jpg,left,955.9999999983702,false,low,NA,NA,NA,NA,NA,NA,NA,false
khjcs8rn,3lvtfb9df8vfwjy33dzq8w9nvhnqgc,3r8yzbnq9lvyqalw1c0yr3sm9m27q8,khjcs8rn,2020-0188,2020-11-18,13:33:21,13:56:05,NA,incomplete,83,filling,1,left,Red_Plus_Stripes_1.jpg,Green_Triangle_Stripes_3.jpg,Purple_Circle_Chess_1.jpg,right,1580.0000000017462,false,low,NA,NA,NA,NA,NA,NA,NA,false
khjcs8rn,3lvtfb9df8vfwjy33dzq8w9nvhnqgc,3r8yzbnq9lvyqalw1c0yr3sm9m27q8,khjcs8rn,2020-0188,2020-11-18,13:33:21,13:56:05,NA,incomplete,84,filling,1,left,Blue_Triangle_Dots_3.jpg,Red_Plus_Dots_1.jpg,Purple_Star_Stripes_3.jpg,left,1328.000000001397,true,low,NA,NA,NA,NA,NA,NA,NA,false
khjcs8rn,3lvtfb9df8vfwjy33dzq8w9nvhnqgc,3r8yzbnq9lvyqalw1c0yr3sm9m27q8,khjcs8rn,2020-0188,2020-11-18,13:33:21,13:56:05,NA,incomplete,85,filling,1,right,Purple_Circle_Dots_4.jpg,Blue_Plus_Chess_4.jpg,Red_Star_Dots_1.jpg,right,1134.9999999947613,true,low,NA,NA,NA,NA,NA,NA,NA,false
khjcs8rn,3lvtfb9df8vfwjy33dzq8w9nvhnqgc,3r8yzbnq9lvyqalw1c0yr3sm9m27q8,khjcs8rn,2020-0188,2020-11-18,13:33:21,13:56:05,NA,incomplete,86,filling,1,right,Purple_Triangle_Grid_4.jpg,Green_Plus_Dots_4.jpg,Blue_Circle_Grid_2.jpg,right,1286,true,low,NA,NA,NA,NA,NA,NA,NA,false
khjcs8rn,3lvtfb9df8vfwjy33dzq8w9nvhnqgc,3r8yzbnq9lvyqalw1c0yr3sm9m27q8,khjcs8rn,2020-0188,2020-11-18,13:33:21,13:56:05,NA,incomplete,87,filling,0,right,Red_Circle_Dots_4.jpg,Blue_Plus_Grid_4.jpg,Purple_Star_Dots_3.jpg,right,1209.9999999990687,true,low,NA,NA,NA,NA,NA,NA,NA,false
khjcs8rn,3lvtfb9df8vfwjy33dzq8w9nvhnqgc,3r8yzbnq9lvyqalw1c0yr3sm9m27q8,khjcs8rn,2020-0188,2020-11-18,13:33:21,13:56:05,NA,incomplete,88,filling,1,left,Green_Triangle_Stripes_1.jpg,Red_Plus_Stripes_4.jpg,Purple_Circle_Dots_1.jpg,left,1276.000000005355,true,low,NA,NA,NA,NA,NA,NA,NA,false
khjcs8rn,3lvtfb9df8vfwjy33dzq8w9nvhnqgc,3r8yzbnq9lvyqalw1c0yr3sm9m27q8,khjcs8rn,2020-0188,2020-11-18,13:33:21,13:56:05,NA,incomplete,89,filling,1,left,Purple_Plus_Chess_2.jpg,Red_Circle_Chess_1.jpg,Blue_Triangle_Stripes_2.jpg,left,1101.0000000024447,true,low,NA,NA,NA,NA,NA,NA,NA,false
khjcs8rn,3lvtfb9df8vfwjy33dzq8w9nvhnqgc,3r8yzbnq9lvyqalw1c0yr3sm9m27q8,khjcs8rn,2020-0188,2020-11-18,13:33:21,13:56:05,NA,incomplete,90,number,1,right,Blue_Circle_Chess_4.jpg,Green_Plus_Chess_3.jpg,Red_Star_Stripes_4.jpg,left,1253.000000004191,false,low,NA,NA,NA,NA,NA,NA,NA,false
khjcs8rn,3lvtfb9df8vfwjy33dzq8w9nvhnqgc,3r8yzbnq9lvyqalw1c0yr3sm9m27q8,khjcs8rn,2020-0188,2020-11-18,13:33:21,13:56:05,NA,incomplete,91,number,1,right,Green_Plus_Dots_3.jpg,Blue_Triangle_Dots_2.jpg,Red_Circle_Stripes_3.jpg,left,1176.9999999960419,false,low,NA,NA,NA,NA,NA,NA,NA,false
khjcs8rn,3lvtfb9df8vfwjy33dzq8w9nvhnqgc,3r8yzbnq9lvyqalw1c0yr3sm9m27q8,khjcs8rn,2020-0188,2020-11-18,13:33:21,13:56:05,NA,incomplete,92,number,1,right,Purple_Plus_Chess_3.jpg,Green_Circle_Chess_1.jpg,Red_Triangle_Stripes_3.jpg,right,1166.000000004773,true,low,NA,NA,NA,NA,NA,NA,NA,false
khjcs8rn,3lvtfb9df8vfwjy33dzq8w9nvhnqgc,3r8yzbnq9lvyqalw1c0yr3sm9m27q8,khjcs8rn,2020-0188,2020-11-18,13:33:21,13:56:05,NA,incomplete,93,number,1,right,Green_Circle_Stripes_3.jpg,Red_Plus_Stripes_4.jpg,Purple_Star_Grid_3.jpg,right,835.9999999956926,true,low,NA,NA,NA,NA,NA,NA,NA,false
khjcs8rn,3lvtfb9df8vfwjy33dzq8w9nvhnqgc,3r8yzbnq9lvyqalw1c0yr3sm9m27q8,khjcs8rn,2020-0188,2020-11-18,13:33:21,13:56:05,NA,incomplete,94,number,1,right,Green_Circle_Dots_2.jpg,Red_Star_Dots_4.jpg,Purple_Plus_Grid_2.jpg,right,807.0000000006985,true,low,NA,NA,NA,NA,NA,NA,NA,false
khjcs8rn,3lvtfb9df8vfwjy33dzq8w9nvhnqgc,3r8yzbnq9lvyqalw1c0yr3sm9m27q8,khjcs8rn,2020-0188,2020-11-18,13:33:21,13:56:05,NA,incomplete,95,number,1,left,Red_Plus_Stripes_1.jpg,Blue_Triangle_Dots_1.jpg,Green_Circle_Stripes_3.jpg,left,827.0000000048894,true,low,NA,NA,NA,NA,NA,NA,NA,false
khjcs8rn,3lvtfb9df8vfwjy33dzq8w9nvhnqgc,3r8yzbnq9lvyqalw1c0yr3sm9m27q8,khjcs8rn,2020-0188,2020-11-18,13:33:21,13:56:05,NA,incomplete,96,number,0,left,Green_Plus_Grid_3.jpg,Blue_Triangle_Chess_3.jpg,Red_Circle_Grid_2.jpg,left,1008.0000000016298,true,low,NA,NA,NA,NA,NA,NA,NA,false
khjcs8rn,3lvtfb9df8vfwjy33dzq8w9nvhnqgc,3r8yzbnq9lvyqalw1c0yr3sm9m27q8,khjcs8rn,2020-0188,2020-11-18,13:33:21,13:56:05,NA,incomplete,97,number,1,left,Purple_Plus_Grid_1.jpg,Green_Circle_Chess_1.jpg,Blue_Star_Grid_4.jpg,right,1531.0000000026776,false,low,NA,NA,NA,NA,NA,NA,NA,false
khjcs8rn,3lvtfb9df8vfwjy33dzq8w9nvhnqgc,3r8yzbnq9lvyqalw1c0yr3sm9m27q8,khjcs8rn,2020-0188,2020-11-18,13:33:21,13:56:05,NA,incomplete,98,number,1,right,Green_Star_Grid_2.jpg,Purple_Plus_Grid_4.jpg,Red_Triangle_Dots_2.jpg,right,1201.9999999975553,true,low,NA,NA,NA,NA,NA,NA,NA,false
khjcs8rn,3lvtfb9df8vfwjy33dzq8w9nvhnqgc,3r8yzbnq9lvyqalw1c0yr3sm9m27q8,khjcs8rn,2020-0188,2020-11-18,13:33:21,13:56:05,NA,incomplete,99,number,1,right,Red_Circle_Chess_1.jpg,Blue_Plus_Chess_4.jpg,Purple_Star_Dots_1.jpg,right,1078.0000000012806,true,low,NA,NA,NA,NA,NA,NA,NA,false
khjcs8rn,3lvtfb9df8vfwjy33dzq8w9nvhnqgc,3r8yzbnq9lvyqalw1c0yr3sm9m27q8,khjcs8rn,2020-0188,2020-11-18,13:33:21,13:56:05,NA,incomplete,100,number,1,left,Blue_Triangle_Dots_4.jpg,Purple_Circle_Chess_4.jpg,Green_Star_Dots_2.jpg,left,848.9999999947613,true,low,NA,NA,NA,NA,NA,NA,NA,false
khjcs8rn,3lvtfb9df8vfwjy33dzq8w9nvhnqgc,3r8yzbnq9lvyqalw1c0yr3sm9m27q8,khjcs8rn,2020-0188,2020-11-18,13:33:21,13:56:05,NA,incomplete,101,number,1,left,Green_Triangle_Chess_1.jpg,Purple_Circle_Dots_1.jpg,Red_Plus_Chess_4.jpg,left,1170.9999999947613,true,low,NA,NA,NA,NA,NA,NA,NA,false
khjcs8rn,3lvtfb9df8vfwjy33dzq8w9nvhnqgc,3r8yzbnq9lvyqalw1c0yr3sm9m27q8,khjcs8rn,2020-0188,2020-11-18,13:33:21,13:56:05,NA,incomplete,102,number,1,left,Red_Star_Chess_3.jpg,Green_Circle_Grid_3.jpg,Purple_Plus_Chess_1.jpg,left,1495.9999999993015,true,low,NA,NA,NA,NA,NA,NA,NA,false
khjcs8rn,3lvtfb9df8vfwjy33dzq8w9nvhnqgc,3r8yzbnq9lvyqalw1c0yr3sm9m27q8,khjcs8rn,2020-0188,2020-11-18,13:33:21,13:56:05,NA,incomplete,103,number,1,left,Purple_Circle_Dots_1.jpg,Red_Triangle_Chess_1.jpg,Green_Plus_Dots_4.jpg,left,1407.999999995809,true,low,NA,NA,NA,NA,NA,NA,NA,false
khjcs8rn,3lvtfb9df8vfwjy33dzq8w9nvhnqgc,3r8yzbnq9lvyqalw1c0yr3sm9m27q8,khjcs8rn,2020-0188,2020-11-18,13:33:21,13:56:05,NA,incomplete,104,number,1,right,Green_Circle_Chess_4.jpg,Red_Plus_Chess_1.jpg,Blue_Star_Dots_4.jpg,right,750,true,low,NA,NA,NA,NA,NA,NA,NA,false
khjcs8rn,3lvtfb9df8vfwjy33dzq8w9nvhnqgc,3r8yzbnq9lvyqalw1c0yr3sm9m27q8,khjcs8rn,2020-0188,2020-11-18,13:33:21,13:56:05,NA,incomplete,105,number,1,right,Green_Triangle_Chess_1.jpg,Red_Plus_Chess_3.jpg,Purple_Circle_Grid_1.jpg,left,1315.9999999989523,false,low,NA,NA,NA,NA,NA,NA,NA,false
khjcs8rn,3lvtfb9df8vfwjy33dzq8w9nvhnqgc,3r8yzbnq9lvyqalw1c0yr3sm9m27q8,khjcs8rn,2020-0188,2020-11-18,13:33:21,13:56:05,NA,incomplete,106,number,1,right,Red_Circle_Dots_3.jpg,Blue_Plus_Dots_2.jpg,Purple_Triangle_Stripes_3.jpg,right,802.9999999998836,true,low,NA,NA,NA,NA,NA,NA,NA,false
khjcs8rn,3lvtfb9df8vfwjy33dzq8w9nvhnqgc,3r8yzbnq9lvyqalw1c0yr3sm9m27q8,khjcs8rn,2020-0188,2020-11-18,13:33:21,13:56:05,NA,incomplete,107,number,1,right,Purple_Star_Chess_4.jpg,Blue_Triangle_Chess_3.jpg,Green_Circle_Stripes_4.jpg,right,1000,true,low,NA,NA,NA,NA,NA,NA,NA,false
khjcs8rn,3lvtfb9df8vfwjy33dzq8w9nvhnqgc,3r8yzbnq9lvyqalw1c0yr3sm9m27q8,khjcs8rn,2020-0188,2020-11-18,13:33:21,13:56:05,NA,incomplete,108,number,1,right,Green_Star_Chess_2.jpg,Purple_Triangle_Chess_1.jpg,Blue_Plus_Grid_2.jpg,right,1223.0000000054715,true,low,NA,NA,NA,NA,NA,NA,NA,false
khjcs8rn,3lvtfb9df8vfwjy33dzq8w9nvhnqgc,3r8yzbnq9lvyqalw1c0yr3sm9m27q8,khjcs8rn,2020-0188,2020-11-18,13:33:21,13:56:05,NA,incomplete,109,number,1,right,Green_Triangle_Stripes_2.jpg,Purple_Star_Stripes_4.jpg,Blue_Plus_Grid_2.jpg,left,1576.9999999975553,false,low,NA,NA,NA,NA,NA,NA,NA,false
khjcs8rn,3lvtfb9df8vfwjy33dzq8w9nvhnqgc,3r8yzbnq9lvyqalw1c0yr3sm9m27q8,khjcs8rn,2020-0188,2020-11-18,13:33:21,13:56:05,NA,incomplete,110,number,1,right,Blue_Star_Stripes_1.jpg,Green_Triangle_Stripes_2.jpg,Purple_Plus_Grid_1.jpg,right,870.9999999991851,true,low,NA,NA,NA,NA,NA,NA,NA,false
khjcs8rn,3lvtfb9df8vfwjy33dzq8w9nvhnqgc,3r8yzbnq9lvyqalw1c0yr3sm9m27q8,khjcs8rn,2020-0188,2020-11-18,13:33:21,13:56:05,NA,incomplete,111,number,1,left,Blue_Plus_Grid_1.jpg,Red_Triangle_Stripes_1.jpg,Purple_Star_Grid_3.jpg,left,1216.9999999968568,true,low,NA,NA,NA,NA,NA,NA,NA,false
khjcs8rn,3lvtfb9df8vfwjy33dzq8w9nvhnqgc,3r8yzbnq9lvyqalw1c0yr3sm9m27q8,khjcs8rn,2020-0188,2020-11-18,13:33:21,13:56:05,NA,incomplete,112,number,1,left,Purple_Circle_Dots_3.jpg,Green_Star_Stripes_3.jpg,Blue_Triangle_Dots_4.jpg,left,1351.0000000023283,true,low,NA,NA,NA,NA,NA,NA,NA,false
khjcs8rn,3lvtfb9df8vfwjy33dzq8w9nvhnqgc,3r8yzbnq9lvyqalw1c0yr3sm9m27q8,khjcs8rn,2020-0188,2020-11-18,13:33:21,13:56:05,NA,incomplete,113,number,1,left,Red_Triangle_Grid_1.jpg,Purple_Plus_Dots_1.jpg,Green_Star_Grid_4.jpg,left,753.0000000043074,true,low,NA,NA,NA,NA,NA,NA,NA,false
khjcs8rn,3lvtfb9df8vfwjy33dzq8w9nvhnqgc,3r8yzbnq9lvyqalw1c0yr3sm9m27q8,khjcs8rn,2020-0188,2020-11-18,13:33:21,13:56:05,NA,incomplete,114,number,0,left,Green_Plus_Dots_3.jpg,Red_Star_Chess_3.jpg,Purple_Triangle_Dots_1.jpg,left,762.0000000024447,true,low,NA,NA,NA,NA,NA,NA,NA,false
khjcs8rn,3lvtfb9df8vfwjy33dzq8w9nvhnqgc,3r8yzbnq9lvyqalw1c0yr3sm9m27q8,khjcs8rn,2020-0188,2020-11-18,13:33:21,13:56:05,NA,incomplete,115,number,1,right,Red_Triangle_Stripes_1.jpg,Blue_Plus_Stripes_4.jpg,Green_Circle_Grid_1.jpg,left,1072.0000000001164,false,low,NA,NA,NA,NA,NA,NA,NA,false
khjcs8rn,3lvtfb9df8vfwjy33dzq8w9nvhnqgc,3r8yzbnq9lvyqalw1c0yr3sm9m27q8,khjcs8rn,2020-0188,2020-11-18,13:33:21,13:56:05,NA,incomplete,116,number,1,right,Green_Circle_Chess_4.jpg,Purple_Triangle_Chess_1.jpg,Red_Star_Dots_4.jpg,left,1467.000000004191,false,low,NA,NA,NA,NA,NA,NA,NA,false
khjcs8rn,3lvtfb9df8vfwjy33dzq8w9nvhnqgc,3r8yzbnq9lvyqalw1c0yr3sm9m27q8,khjcs8rn,2020-0188,2020-11-18,13:33:21,13:56:05,NA,incomplete,117,number,1,right,Purple_Star_Dots_3.jpg,Green_Circle_Dots_4.jpg,Red_Plus_Grid_3.jpg,right,930.9999999967404,true,low,NA,NA,NA,NA,NA,NA,NA,false
khjcs8rn,3lvtfb9df8vfwjy33dzq8w9nvhnqgc,3r8yzbnq9lvyqalw1c0yr3sm9m27q8,khjcs8rn,2020-0188,2020-11-18,13:33:21,13:56:05,NA,incomplete,118,number,0,right,Blue_Star_Grid_2.jpg,Red_Circle_Grid_4.jpg,Purple_Triangle_Chess_2.jpg,right,947.0000000002328,true,low,NA,NA,NA,NA,NA,NA,NA,false
khjcs8rn,3lvtfb9df8vfwjy33dzq8w9nvhnqgc,3r8yzbnq9lvyqalw1c0yr3sm9m27q8,khjcs8rn,2020-0188,2020-11-18,13:33:21,13:56:05,NA,incomplete,119,number,1,left,Blue_Plus_Grid_1.jpg,Red_Triangle_Dots_1.jpg,Green_Star_Grid_2.jpg,left,913.9999999970896,true,low,NA,NA,NA,NA,NA,NA,NA,false
khjcs8rn,3lvtfb9df8vfwjy33dzq8w9nvhnqgc,3r8yzbnq9lvyqalw1c0yr3sm9m27q8,khjcs8rn,2020-0188,2020-11-18,13:33:21,13:56:05,NA,incomplete,120,color,0,left,Purple_Star_Dots_4.jpg,Purple_Circle_Chess_2.jpg,Green_Star_Stripes_1.jpg,left,947.999999996624,true,low,NA,NA,NA,NA,NA,NA,NA,false
khjcs8rn,3lvtfb9df8vfwjy33dzq8w9nvhnqgc,3r8yzbnq9lvyqalw1c0yr3sm9m27q8,khjcs8rn,2020-0188,2020-11-18,13:33:21,13:56:05,NA,incomplete,121,color,1,right,Green_Triangle_Stripes_4.jpg,Blue_Triangle_Chess_2.jpg,Green_Star_Dots_3.jpg,left,962.9999999960419,false,low,NA,NA,NA,NA,NA,NA,NA,false
khjcs8rn,3lvtfb9df8vfwjy33dzq8w9nvhnqgc,3r8yzbnq9lvyqalw1c0yr3sm9m27q8,khjcs8rn,2020-0188,2020-11-18,13:33:21,13:56:05,NA,incomplete,122,color,0,right,Purple_Circle_Chess_4.jpg,Green_Circle_Grid_2.jpg,Purple_Star_Stripes_1.jpg,right,831.9999999948777,true,low,NA,NA,NA,NA,NA,NA,NA,false
khjcs8rn,3lvtfb9df8vfwjy33dzq8w9nvhnqgc,3r8yzbnq9lvyqalw1c0yr3sm9m27q8,khjcs8rn,2020-0188,2020-11-18,13:33:21,13:56:05,NA,incomplete,123,color,1,right,Green_Star_Grid_1.jpg,Blue_Star_Stripes_2.jpg,Green_Circle_Dots_3.jpg,right,1300.9999999995343,true,low,NA,NA,NA,NA,NA,NA,NA,false
khjcs8rn,3lvtfb9df8vfwjy33dzq8w9nvhnqgc,3r8yzbnq9lvyqalw1c0yr3sm9m27q8,khjcs8rn,2020-0188,2020-11-18,13:33:21,13:56:05,NA,incomplete,124,color,1,left,Red_Star_Stripes_2.jpg,Red_Plus_Dots_1.jpg,Green_Star_Chess_3.jpg,right,1620.0000000025611,false,low,NA,NA,NA,NA,NA,NA,NA,false
khjcs8rn,3lvtfb9df8vfwjy33dzq8w9nvhnqgc,3r8yzbnq9lvyqalw1c0yr3sm9m27q8,khjcs8rn,2020-0188,2020-11-18,13:33:21,13:56:05,NA,incomplete,125,color,1,right,Red_Circle_Chess_2.jpg,Blue_Circle_Grid_1.jpg,Red_Plus_Stripes_4.jpg,right,697,true,low,NA,NA,NA,NA,NA,NA,NA,false
khjcs8rn,3lvtfb9df8vfwjy33dzq8w9nvhnqgc,3r8yzbnq9lvyqalw1c0yr3sm9m27q8,khjcs8rn,2020-0188,2020-11-18,13:33:21,13:56:05,NA,incomplete,126,color,1,right,Red_Star_Chess_2.jpg,Green_Star_Stripes_4.jpg,Red_Triangle_Grid_1.jpg,right,672.0000000058208,true,low,NA,NA,NA,NA,NA,NA,NA,false
khjcs8rn,3lvtfb9df8vfwjy33dzq8w9nvhnqgc,3r8yzbnq9lvyqalw1c0yr3sm9m27q8,khjcs8rn,2020-0188,2020-11-18,13:33:21,13:56:05,NA,incomplete,127,color,1,right,Green_Star_Dots_3.jpg,Purple_Star_Grid_2.jpg,Green_Plus_Chess_1.jpg,right,905.9999999953434,true,low,NA,NA,NA,NA,NA,NA,NA,false
khjcs8rn,3lvtfb9df8vfwjy33dzq8w9nvhnqgc,3r8yzbnq9lvyqalw1c0yr3sm9m27q8,khjcs8rn,2020-0188,2020-11-18,13:33:21,13:56:05,NA,incomplete,128,color,0,left,Green_Star_Grid_3.jpg,Green_Plus_Chess_4.jpg,Blue_Star_Stripes_1.jpg,left,605.0000000031432,true,low,NA,NA,NA,NA,NA,NA,NA,false
khjcs8rn,3lvtfb9df8vfwjy33dzq8w9nvhnqgc,3r8yzbnq9lvyqalw1c0yr3sm9m27q8,khjcs8rn,2020-0188,2020-11-18,13:33:21,13:56:05,NA,incomplete,129,color,1,right,Blue_Plus_Stripes_3.jpg,Green_Plus_Chess_4.jpg,Blue_Triangle_Grid_2.jpg,left,968.0000000008149,false,low,NA,NA,NA,NA,NA,NA,NA,false
khjcs8rn,3lvtfb9df8vfwjy33dzq8w9nvhnqgc,3r8yzbnq9lvyqalw1c0yr3sm9m27q8,khjcs8rn,2020-0188,2020-11-18,13:33:21,13:56:05,NA,incomplete,130,color,0,left,Blue_Star_Stripes_3.jpg,Blue_Circle_Chess_4.jpg,Red_Star_Grid_2.jpg,left,820.9999999962747,true,low,NA,NA,NA,NA,NA,NA,NA,false
khjcs8rn,3lvtfb9df8vfwjy33dzq8w9nvhnqgc,3r8yzbnq9lvyqalw1c0yr3sm9m27q8,khjcs8rn,2020-0188,2020-11-18,13:33:21,13:56:05,NA,incomplete,131,color,1,left,Red_Plus_Grid_4.jpg,Red_Star_Stripes_3.jpg,Blue_Plus_Chess_1.jpg,right,1224.0000000018626,false,low,NA,NA,NA,NA,NA,NA,NA,false
khjcs8rn,3lvtfb9df8vfwjy33dzq8w9nvhnqgc,3r8yzbnq9lvyqalw1c0yr3sm9m27q8,khjcs8rn,2020-0188,2020-11-18,13:33:21,13:56:05,NA,incomplete,132,color,0,right,Red_Star_Dots_1.jpg,Purple_Star_Stripes_3.jpg,Red_Plus_Chess_2.jpg,left,1679.0000000037253,false,low,NA,NA,NA,NA,NA,NA,NA,false
khjcs8rn,3lvtfb9df8vfwjy33dzq8w9nvhnqgc,3r8yzbnq9lvyqalw1c0yr3sm9m27q8,khjcs8rn,2020-0188,2020-11-18,13:33:21,13:56:05,NA,incomplete,133,color,1,right,Blue_Circle_Grid_1.jpg,Green_Circle_Stripes_2.jpg,Blue_Star_Dots_4.jpg,left,956.9999999948777,false,low,NA,NA,NA,NA,NA,NA,NA,false
khjcs8rn,3lvtfb9df8vfwjy33dzq8w9nvhnqgc,3r8yzbnq9lvyqalw1c0yr3sm9m27q8,khjcs8rn,2020-0188,2020-11-18,13:33:21,13:56:05,NA,incomplete,134,color,1,right,Red_Star_Grid_4.jpg,Blue_Star_Chess_1.jpg,Red_Plus_Stripes_2.jpg,right,1163.0000000004657,true,low,NA,NA,NA,NA,NA,NA,NA,false
khjcs8rn,3lvtfb9df8vfwjy33dzq8w9nvhnqgc,3r8yzbnq9lvyqalw1c0yr3sm9m27q8,khjcs8rn,2020-0188,2020-11-18,13:33:21,13:56:05,NA,incomplete,135,color,1,right,Purple_Plus_Grid_1.jpg,Blue_Plus_Dots_2.jpg,Purple_Star_Chess_4.jpg,right,1235.0000000006985,true,low,NA,NA,NA,NA,NA,NA,NA,false
khjcs8rn,3lvtfb9df8vfwjy33dzq8w9nvhnqgc,3r8yzbnq9lvyqalw1c0yr3sm9m27q8,khjcs8rn,2020-0188,2020-11-18,13:33:21,13:56:05,NA,incomplete,136,color,1,right,Green_Plus_Chess_2.jpg,Blue_Plus_Dots_4.jpg,Green_Triangle_Stripes_1.jpg,right,1078.000000001397,true,low,NA,NA,NA,NA,NA,NA,NA,false
khjcs8rn,3lvtfb9df8vfwjy33dzq8w9nvhnqgc,3r8yzbnq9lvyqalw1c0yr3sm9m27q8,khjcs8rn,2020-0188,2020-11-18,13:33:21,13:56:05,NA,incomplete,137,color,1,left,Purple_Triangle_Grid_1.jpg,Purple_Plus_Stripes_3.jpg,Blue_Triangle_Dots_2.jpg,right,1471.0000000050059,false,low,NA,NA,NA,NA,NA,NA,NA,false
khjcs8rn,3lvtfb9df8vfwjy33dzq8w9nvhnqgc,3r8yzbnq9lvyqalw1c0yr3sm9m27q8,khjcs8rn,2020-0188,2020-11-18,13:33:21,13:56:05,NA,incomplete,138,color,1,left,Purple_Star_Stripes_2.jpg,Purple_Triangle_Chess_4.jpg,Green_Star_Grid_1.jpg,left,680.0000000003492,true,low,NA,NA,NA,NA,NA,NA,NA,false
khjcs8rn,3lvtfb9df8vfwjy33dzq8w9nvhnqgc,3r8yzbnq9lvyqalw1c0yr3sm9m27q8,khjcs8rn,2020-0188,2020-11-18,13:33:21,13:56:05,NA,incomplete,139,color,1,left,Purple_Circle_Chess_1.jpg,Purple_Triangle_Grid_2.jpg,Green_Circle_Stripes_4.jpg,left,626.0000000038417,true,low,NA,NA,NA,NA,NA,NA,NA,false
khjcs8rn,3lvtfb9df8vfwjy33dzq8w9nvhnqgc,3r8yzbnq9lvyqalw1c0yr3sm9m27q8,khjcs8rn,2020-0188,2020-11-18,13:33:21,13:56:05,NA,incomplete,140,shape,1,right,Red_Plus_Dots_4.jpg,Red_Triangle_Grid_1.jpg,Green_Plus_Chess_2.jpg,left,1069.0000000031432,false,low,NA,NA,NA,NA,NA,NA,NA,false
khjcs8rn,3lvtfb9df8vfwjy33dzq8w9nvhnqgc,3r8yzbnq9lvyqalw1c0yr3sm9m27q8,khjcs8rn,2020-0188,2020-11-18,13:33:21,13:56:05,NA,incomplete,141,shape,1,right,Green_Star_Grid_1.jpg,Green_Plus_Chess_3.jpg,Blue_Star_Stripes_2.jpg,left,839,false,low,NA,NA,NA,NA,NA,NA,NA,false
khjcs8rn,3lvtfb9df8vfwjy33dzq8w9nvhnqgc,3r8yzbnq9lvyqalw1c0yr3sm9m27q8,khjcs8rn,2020-0188,2020-11-18,13:33:21,13:56:05,NA,incomplete,142,shape,1,right,Red_Circle_Chess_3.jpg,Red_Plus_Dots_2.jpg,Blue_Circle_Grid_4.jpg,right,1065.9999999988358,true,low,NA,NA,NA,NA,NA,NA,NA,false
khjcs8rn,3lvtfb9df8vfwjy33dzq8w9nvhnqgc,3r8yzbnq9lvyqalw1c0yr3sm9m27q8,khjcs8rn,2020-0188,2020-11-18,13:33:21,13:56:05,NA,incomplete,143,shape,1,right,Green_Circle_Chess_2.jpg,Green_Star_Stripes_4.jpg,Purple_Circle_Dots_3.jpg,right,658.9999999997672,true,low,NA,NA,NA,NA,NA,NA,NA,false
khjcs8rn,3lvtfb9df8vfwjy33dzq8w9nvhnqgc,3r8yzbnq9lvyqalw1c0yr3sm9m27q8,khjcs8rn,2020-0188,2020-11-18,13:33:21,13:56:05,NA,incomplete,144,shape,1,left,Green_Circle_Dots_4.jpg,Blue_Circle_Chess_1.jpg,Green_Triangle_Stripes_2.jpg,right,1548.9999999990687,false,low,NA,NA,NA,NA,NA,NA,NA,false
khjcs8rn,3lvtfb9df8vfwjy33dzq8w9nvhnqgc,3r8yzbnq9lvyqalw1c0yr3sm9m27q8,khjcs8rn,2020-0188,2020-11-18,13:33:21,13:56:05,NA,incomplete,145,shape,1,right,Green_Plus_Chess_1.jpg,Green_Circle_Stripes_2.jpg,Red_Plus_Dots_3.jpg,left,740.0000000052387,false,low,NA,NA,NA,NA,NA,NA,NA,false
khjcs8rn,3lvtfb9df8vfwjy33dzq8w9nvhnqgc,3r8yzbnq9lvyqalw1c0yr3sm9m27q8,khjcs8rn,2020-0188,2020-11-18,13:33:21,13:56:05,NA,incomplete,146,shape,1,right,Red_Circle_Dots_3.jpg,Red_Plus_Stripes_2.jpg,Blue_Circle_Chess_4.jpg,right,781.000000002794,true,low,NA,NA,NA,NA,NA,NA,NA,false
khjcs8rn,3lvtfb9df8vfwjy33dzq8w9nvhnqgc,3r8yzbnq9lvyqalw1c0yr3sm9m27q8,khjcs8rn,2020-0188,2020-11-18,13:33:21,13:56:05,NA,incomplete,147,shape,1,right,Blue_Plus_Chess_3.jpg,Blue_Star_Dots_1.jpg,Green_Plus_Stripes_4.jpg,right,644.0000000002328,true,low,NA,NA,NA,NA,NA,NA,NA,false
khjcs8rn,3lvtfb9df8vfwjy33dzq8w9nvhnqgc,3r8yzbnq9lvyqalw1c0yr3sm9m27q8,khjcs8rn,2020-0188,2020-11-18,13:33:21,13:56:05,NA,incomplete,148,shape,0,left,Green_Triangle_Grid_2.jpg,Purple_Triangle_Chess_1.jpg,Green_Circle_Stripes_3.jpg,left,1002.9999999969732,true,low,NA,NA,NA,NA,NA,NA,NA,false
khjcs8rn,3lvtfb9df8vfwjy33dzq8w9nvhnqgc,3r8yzbnq9lvyqalw1c0yr3sm9m27q8,khjcs8rn,2020-0188,2020-11-18,13:33:21,13:56:05,NA,incomplete,149,shape,1,left,Green_Star_Chess_2.jpg,Red_Star_Grid_1.jpg,Green_Circle_Stripes_3.jpg,right,936.0000000015134,false,low,NA,NA,NA,NA,NA,NA,NA,false
khjcs8rn,3lvtfb9df8vfwjy33dzq8w9nvhnqgc,3r8yzbnq9lvyqalw1c0yr3sm9m27q8,khjcs8rn,2020-0188,2020-11-18,13:33:21,13:56:05,NA,incomplete,150,shape,0,right,Purple_Triangle_Dots_4.jpg,Purple_Plus_Chess_2.jpg,Blue_Triangle_Grid_1.jpg,left,647.0000000044238,false,low,NA,NA,NA,NA,NA,NA,NA,false
khjcs8rn,3lvtfb9df8vfwjy33dzq8w9nvhnqgc,3r8yzbnq9lvyqalw1c0yr3sm9m27q8,khjcs8rn,2020-0188,2020-11-18,13:33:21,13:56:05,NA,incomplete,151,shape,1,right,Blue_Plus_Grid_4.jpg,Blue_Circle_Chess_2.jpg,Purple_Plus_Stripes_3.jpg,left,787.0000000038417,false,low,NA,NA,NA,NA,NA,NA,NA,false
khjcs8rn,3lvtfb9df8vfwjy33dzq8w9nvhnqgc,3r8yzbnq9lvyqalw1c0yr3sm9m27q8,khjcs8rn,2020-0188,2020-11-18,13:33:21,13:56:05,NA,incomplete,152,shape,1,right,Green_Star_Dots_4.jpg,Green_Triangle_Chess_2.jpg,Red_Star_Grid_1.jpg,left,614.9999999979045,false,low,NA,NA,NA,NA,NA,NA,NA,false
khjcs8rn,3lvtfb9df8vfwjy33dzq8w9nvhnqgc,3r8yzbnq9lvyqalw1c0yr3sm9m27q8,khjcs8rn,2020-0188,2020-11-18,13:33:21,13:56:05,NA,incomplete,153,shape,0,left,Red_Triangle_Dots_1.jpg,Blue_Triangle_Grid_3.jpg,Red_Plus_Chess_4.jpg,left,995.0000000025611,true,low,NA,NA,NA,NA,NA,NA,NA,false
khjcs8rn,3lvtfb9df8vfwjy33dzq8w9nvhnqgc,3r8yzbnq9lvyqalw1c0yr3sm9m27q8,khjcs8rn,2020-0188,2020-11-18,13:33:21,13:56:05,NA,incomplete,154,shape,1,left,Red_Circle_Grid_3.jpg,Green_Circle_Stripes_4.jpg,Red_Plus_Chess_1.jpg,right,638.9999999955762,false,low,NA,NA,NA,NA,NA,NA,NA,false
khjcs8rn,3lvtfb9df8vfwjy33dzq8w9nvhnqgc,3r8yzbnq9lvyqalw1c0yr3sm9m27q8,khjcs8rn,2020-0188,2020-11-18,13:33:21,13:56:05,NA,incomplete,155,shape,1,right,Red_Circle_Grid_1.jpg,Red_Plus_Stripes_4.jpg,Blue_Circle_Dots_2.jpg,left,648.9999999976717,false,low,NA,NA,NA,NA,NA,NA,NA,false
khjcs8rn,3lvtfb9df8vfwjy33dzq8w9nvhnqgc,3r8yzbnq9lvyqalw1c0yr3sm9m27q8,khjcs8rn,2020-0188,2020-11-18,13:33:21,13:56:05,NA,incomplete,156,shape,1,left,Blue_Star_Chess_1.jpg,Green_Star_Stripes_2.jpg,Blue_Triangle_Dots_4.jpg,right,903.0000000057044,false,low,NA,NA,NA,NA,NA,NA,NA,false
khjcs8rn,3lvtfb9df8vfwjy33dzq8w9nvhnqgc,3r8yzbnq9lvyqalw1c0yr3sm9m27q8,khjcs8rn,2020-0188,2020-11-18,13:33:21,13:56:05,NA,incomplete,157,shape,0,right,Purple_Star_Chess_3.jpg,Purple_Plus_Grid_1.jpg,Blue_Star_Dots_2.jpg,left,1061.9999999981374,false,low,NA,NA,NA,NA,NA,NA,NA,false
khjcs8rn,3lvtfb9df8vfwjy33dzq8w9nvhnqgc,3r8yzbnq9lvyqalw1c0yr3sm9m27q8,khjcs8rn,2020-0188,2020-11-18,13:33:21,13:56:05,NA,incomplete,158,shape,1,right,Purple_Plus_Stripes_4.jpg,Purple_Circle_Grid_1.jpg,Blue_Plus_Chess_3.jpg,left,687.0000000053551,false,low,NA,NA,NA,NA,NA,NA,NA,false
khjcs8rn,3lvtfb9df8vfwjy33dzq8w9nvhnqgc,3r8yzbnq9lvyqalw1c0yr3sm9m27q8,khjcs8rn,2020-0188,2020-11-18,13:33:21,13:56:05,NA,incomplete,159,shape,0,left,Green_Plus_Grid_1.jpg,Blue_Plus_Stripes_2.jpg,Green_Star_Chess_3.jpg,left,1127.9999999969732,true,low,NA,NA,NA,NA,NA,NA,NA,false
khjcs8rn,3lvtfb9df8vfwjy33dzq8w9nvhnqgc,3r8yzbnq9lvyqalw1c0yr3sm9m27q8,khjcs8rn,2020-0188,2020-11-18,13:33:21,13:56:05,NA,incomplete,160,color,1,right,Red_Circle_Grid_4.jpg,Blue_Circle_Stripes_3.jpg,Red_Triangle_Chess_2.jpg,right,815.9999999988358,true,low,NA,NA,NA,NA,NA,NA,NA,false
khjcs8rn,3lvtfb9df8vfwjy33dzq8w9nvhnqgc,3r8yzbnq9lvyqalw1c0yr3sm9m27q8,khjcs8rn,2020-0188,2020-11-18,13:33:21,13:56:05,NA,incomplete,161,color,1,right,Red_Star_Stripes_3.jpg,Purple_Star_Grid_2.jpg,Red_Triangle_Chess_1.jpg,right,611.9999999937136,true,low,NA,NA,NA,NA,NA,NA,NA,false
khjcs8rn,3lvtfb9df8vfwjy33dzq8w9nvhnqgc,3r8yzbnq9lvyqalw1c0yr3sm9m27q8,khjcs8rn,2020-0188,2020-11-18,13:33:21,13:56:05,NA,incomplete,162,color,1,left,Blue_Star_Dots_2.jpg,Blue_Triangle_Stripes_1.jpg,Green_Star_Grid_3.jpg,left,766.9999999998836,true,low,NA,NA,NA,NA,NA,NA,NA,false
khjcs8rn,3lvtfb9df8vfwjy33dzq8w9nvhnqgc,3r8yzbnq9lvyqalw1c0yr3sm9m27q8,khjcs8rn,2020-0188,2020-11-18,13:33:21,13:56:05,NA,incomplete,163,color,0,right,Purple_Star_Grid_2.jpg,Red_Star_Stripes_1.jpg,Purple_Circle_Dots_3.jpg,right,564.9999999951106,true,low,NA,NA,NA,NA,NA,NA,NA,false
khjcs8rn,3lvtfb9df8vfwjy33dzq8w9nvhnqgc,3r8yzbnq9lvyqalw1c0yr3sm9m27q8,khjcs8rn,2020-0188,2020-11-18,13:33:21,13:56:05,NA,incomplete,164,color,1,left,Green_Triangle_Chess_2.jpg,Green_Plus_Grid_3.jpg,Purple_Triangle_Stripes_4.jpg,right,1651.0000000052387,false,low,NA,NA,NA,NA,NA,NA,NA,false
khjcs8rn,3lvtfb9df8vfwjy33dzq8w9nvhnqgc,3r8yzbnq9lvyqalw1c0yr3sm9m27q8,khjcs8rn,2020-0188,2020-11-18,13:33:21,13:56:05,NA,incomplete,165,color,1,right,Blue_Plus_Dots_4.jpg,Red_Plus_Grid_3.jpg,Blue_Circle_Chess_1.jpg,right,837.9999999961583,true,low,NA,NA,NA,NA,NA,NA,NA,false
khjcs8rn,3lvtfb9df8vfwjy33dzq8w9nvhnqgc,3r8yzbnq9lvyqalw1c0yr3sm9m27q8,khjcs8rn,2020-0188,2020-11-18,13:33:21,13:56:05,NA,incomplete,166,color,1,right,Red_Plus_Dots_1.jpg,Green_Plus_Grid_3.jpg,Red_Circle_Stripes_4.jpg,right,682.999999997206,true,low,NA,NA,NA,NA,NA,NA,NA,false
khjcs8rn,3lvtfb9df8vfwjy33dzq8w9nvhnqgc,3r8yzbnq9lvyqalw1c0yr3sm9m27q8,khjcs8rn,2020-0188,2020-11-18,13:33:21,13:56:05,NA,incomplete,167,color,1,right,Red_Star_Chess_4.jpg,Green_Star_Stripes_2.jpg,Red_Plus_Dots_1.jpg,right,641.9999999998836,true,low,NA,NA,NA,NA,NA,NA,NA,false
khjcs8rn,3lvtfb9df8vfwjy33dzq8w9nvhnqgc,3r8yzbnq9lvyqalw1c0yr3sm9m27q8,khjcs8rn,2020-0188,2020-11-18,13:33:21,13:56:05,NA,incomplete,168,color,1,left,Green_Circle_Dots_3.jpg,Green_Plus_Chess_2.jpg,Purple_Circle_Grid_4.jpg,left,1261.0000000059372,true,low,NA,NA,NA,NA,NA,NA,NA,false
khjcs8rn,3lvtfb9df8vfwjy33dzq8w9nvhnqgc,3r8yzbnq9lvyqalw1c0yr3sm9m27q8,khjcs8rn,2020-0188,2020-11-18,13:33:21,13:56:05,NA,incomplete,169,color,1,left,Green_Triangle_Dots_4.jpg,Green_Plus_Grid_3.jpg,Purple_Triangle_Chess_1.jpg,left,574.9999999969732,true,low,NA,NA,NA,NA,NA,NA,NA,false
khjcs8rn,3lvtfb9df8vfwjy33dzq8w9nvhnqgc,3r8yzbnq9lvyqalw1c0yr3sm9m27q8,khjcs8rn,2020-0188,2020-11-18,13:33:21,13:56:05,NA,incomplete,170,color,1,left,Red_Plus_Dots_4.jpg,Red_Circle_Grid_1.jpg,Blue_Plus_Stripes_3.jpg,left,957.0000000020955,true,low,NA,NA,NA,NA,NA,NA,NA,false
khjcs8rn,3lvtfb9df8vfwjy33dzq8w9nvhnqgc,3r8yzbnq9lvyqalw1c0yr3sm9m27q8,khjcs8rn,2020-0188,2020-11-18,13:33:21,13:56:05,NA,incomplete,171,color,1,left,Green_Star_Dots_4.jpg,Green_Triangle_Stripes_2.jpg,Blue_Star_Chess_1.jpg,left,747.9999999995343,true,low,NA,NA,NA,NA,NA,NA,NA,false
khjcs8rn,3lvtfb9df8vfwjy33dzq8w9nvhnqgc,3r8yzbnq9lvyqalw1c0yr3sm9m27q8,khjcs8rn,2020-0188,2020-11-18,13:33:21,13:56:05,NA,incomplete,172,color,1,left,Green_Triangle_Grid_2.jpg,Green_Circle_Chess_1.jpg,Purple_Triangle_Stripes_3.jpg,left,737.0000000010477,true,low,NA,NA,NA,NA,NA,NA,NA,false
khjcs8rn,3lvtfb9df8vfwjy33dzq8w9nvhnqgc,3r8yzbnq9lvyqalw1c0yr3sm9m27q8,khjcs8rn,2020-0188,2020-11-18,13:33:21,13:56:05,NA,incomplete,173,color,0,left,Purple_Triangle_Stripes_2.jpg,Purple_Star_Dots_4.jpg,Red_Triangle_Chess_3.jpg,left,760.0000000020955,true,low,NA,NA,NA,NA,NA,NA,NA,false
khjcs8rn,3lvtfb9df8vfwjy33dzq8w9nvhnqgc,3r8yzbnq9lvyqalw1c0yr3sm9m27q8,khjcs8rn,2020-0188,2020-11-18,13:33:21,13:56:05,NA,incomplete,174,color,1,left,Blue_Triangle_Stripes_3.jpg,Blue_Circle_Chess_4.jpg,Green_Triangle_Grid_2.jpg,right,912.0000000039581,false,low,NA,NA,NA,NA,NA,NA,NA,false
khjcs8rn,3lvtfb9df8vfwjy33dzq8w9nvhnqgc,3r8yzbnq9lvyqalw1c0yr3sm9m27q8,khjcs8rn,2020-0188,2020-11-18,13:33:21,13:56:05,NA,incomplete,175,color,0,right,Purple_Star_Stripes_3.jpg,Green_Star_Dots_1.jpg,Purple_Circle_Grid_2.jpg,right,622.0000000030268,true,low,NA,NA,NA,NA,NA,NA,NA,false
khjcs8rn,3lvtfb9df8vfwjy33dzq8w9nvhnqgc,3r8yzbnq9lvyqalw1c0yr3sm9m27q8,khjcs8rn,2020-0188,2020-11-18,13:33:21,13:56:05,NA,incomplete,176,color,1,right,Blue_Plus_Chess_3.jpg,Purple_Plus_Stripes_2.jpg,Blue_Circle_Grid_1.jpg,right,1180.0000000002328,true,low,NA,NA,NA,NA,NA,NA,NA,false
khjcs8rn,3lvtfb9df8vfwjy33dzq8w9nvhnqgc,3r8yzbnq9lvyqalw1c0yr3sm9m27q8,khjcs8rn,2020-0188,2020-11-18,13:33:21,13:56:05,NA,incomplete,177,color,1,left,Green_Circle_Grid_4.jpg,Green_Plus_Stripes_2.jpg,Red_Circle_Chess_1.jpg,left,607.0000000034925,true,low,NA,NA,NA,NA,NA,NA,NA,false
khjcs8rn,3lvtfb9df8vfwjy33dzq8w9nvhnqgc,3r8yzbnq9lvyqalw1c0yr3sm9m27q8,khjcs8rn,2020-0188,2020-11-18,13:33:21,13:56:05,NA,incomplete,178,color,1,right,Green_Star_Grid_2.jpg,Purple_Star_Chess_1.jpg,Green_Plus_Stripes_4.jpg,right,522.9999999937136,true,low,NA,NA,NA,NA,NA,NA,NA,false
khjcs8rn,3lvtfb9df8vfwjy33dzq8w9nvhnqgc,3r8yzbnq9lvyqalw1c0yr3sm9m27q8,khjcs8rn,2020-0188,2020-11-18,13:33:21,13:56:05,NA,incomplete,179,color,0,left,Green_Circle_Chess_4.jpg,Green_Plus_Stripes_2.jpg,Purple_Circle_Dots_3.jpg,left,635.0000000019791,true,low,NA,NA,NA,NA,NA,NA,NA,false
khjcs8rn,3lvtfb9df8vfwjy33dzq8w9nvhnqgc,3r8yzbnq9lvyqalw1c0yr3sm9m27q8,khjcs8rn,2020-0188,2020-11-18,13:33:21,13:56:05,NA,incomplete,180,shape,1,left,Blue_Star_Stripes_3.jpg,Purple_Star_Dots_1.jpg,Blue_Plus_Chess_2.jpg,right,567.9999999993015,false,low,NA,NA,NA,NA,NA,NA,NA,false
khjcs8rn,3lvtfb9df8vfwjy33dzq8w9nvhnqgc,3r8yzbnq9lvyqalw1c0yr3sm9m27q8,khjcs8rn,2020-0188,2020-11-18,13:33:21,13:56:05,NA,incomplete,181,shape,1,right,Green_Plus_Grid_4.jpg,Green_Circle_Dots_2.jpg,Purple_Plus_Stripes_1.jpg,right,997.9999999996508,true,low,NA,NA,NA,NA,NA,NA,NA,false
khjcs8rn,3lvtfb9df8vfwjy33dzq8w9nvhnqgc,3r8yzbnq9lvyqalw1c0yr3sm9m27q8,khjcs8rn,2020-0188,2020-11-18,13:33:21,13:56:05,NA,incomplete,182,shape,1,right,Blue_Plus_Stripes_3.jpg,Blue_Triangle_Dots_4.jpg,Green_Plus_Grid_2.jpg,right,721.0000000050059,true,low,NA,NA,NA,NA,NA,NA,NA,false
khjcs8rn,3lvtfb9df8vfwjy33dzq8w9nvhnqgc,3r8yzbnq9lvyqalw1c0yr3sm9m27q8,khjcs8rn,2020-0188,2020-11-18,13:33:21,13:56:05,NA,incomplete,183,shape,0,left,Blue_Star_Grid_3.jpg,Green_Star_Dots_1.jpg,Blue_Circle_Stripes_4.jpg,left,761.0000000058208,true,low,NA,NA,NA,NA,NA,NA,NA,false
khjcs8rn,3lvtfb9df8vfwjy33dzq8w9nvhnqgc,3r8yzbnq9lvyqalw1c0yr3sm9m27q8,khjcs8rn,2020-0188,2020-11-18,13:33:21,13:56:05,NA,incomplete,184,shape,1,left,Blue_Triangle_Stripes_3.jpg,Purple_Triangle_Grid_1.jpg,Blue_Star_Dots_2.jpg,right,655.0000000060536,false,low,NA,NA,NA,NA,NA,NA,NA,false
khjcs8rn,3lvtfb9df8vfwjy33dzq8w9nvhnqgc,3r8yzbnq9lvyqalw1c0yr3sm9m27q8,khjcs8rn,2020-0188,2020-11-18,13:33:21,13:56:05,NA,incomplete,185,shape,1,right,Purple_Circle_Grid_1.jpg,Purple_Triangle_Chess_4.jpg,Blue_Circle_Stripes_2.jpg,left,777.9999999983702,false,low,NA,NA,NA,NA,NA,NA,NA,false
khjcs8rn,3lvtfb9df8vfwjy33dzq8w9nvhnqgc,3r8yzbnq9lvyqalw1c0yr3sm9m27q8,khjcs8rn,2020-0188,2020-11-18,13:33:21,13:56:05,NA,incomplete,186,shape,1,left,Green_Circle_Dots_1.jpg,Purple_Circle_Chess_3.jpg,Green_Plus_Grid_2.jpg,left,927.9999999998836,true,low,NA,NA,NA,NA,NA,NA,NA,false
khjcs8rn,3lvtfb9df8vfwjy33dzq8w9nvhnqgc,3r8yzbnq9lvyqalw1c0yr3sm9m27q8,khjcs8rn,2020-0188,2020-11-18,13:33:21,13:56:05,NA,incomplete,187,shape,0,left,Green_Star_Chess_2.jpg,Purple_Star_Grid_3.jpg,Green_Circle_Stripes_4.jpg,left,862.9999999974389,true,low,NA,NA,NA,NA,NA,NA,NA,false
khjcs8rn,3lvtfb9df8vfwjy33dzq8w9nvhnqgc,3r8yzbnq9lvyqalw1c0yr3sm9m27q8,khjcs8rn,2020-0188,2020-11-18,13:33:21,13:56:05,NA,incomplete,188,shape,1,right,Purple_Triangle_Grid_1.jpg,Purple_Plus_Chess_2.jpg,Blue_Triangle_Stripes_3.jpg,right,975.9999999951106,true,low,NA,NA,NA,NA,NA,NA,NA,false
khjcs8rn,3lvtfb9df8vfwjy33dzq8w9nvhnqgc,3r8yzbnq9lvyqalw1c0yr3sm9m27q8,khjcs8rn,2020-0188,2020-11-18,13:33:21,13:56:05,NA,incomplete,189,shape,0,left,Purple_Circle_Chess_3.jpg,Blue_Circle_Stripes_2.jpg,Purple_Plus_Grid_4.jpg,left,878.0000000043074,true,low,NA,NA,NA,NA,NA,NA,NA,false
khjcs8rn,3lvtfb9df8vfwjy33dzq8w9nvhnqgc,3r8yzbnq9lvyqalw1c0yr3sm9m27q8,khjcs8rn,2020-0188,2020-11-18,13:33:21,13:56:05,NA,incomplete,190,shape,1,right,Red_Plus_Grid_4.jpg,Red_Circle_Stripes_3.jpg,Purple_Plus_Dots_1.jpg,left,720.0000000011642,false,low,NA,NA,NA,NA,NA,NA,NA,false
khjcs8rn,3lvtfb9df8vfwjy33dzq8w9nvhnqgc,3r8yzbnq9lvyqalw1c0yr3sm9m27q8,khjcs8rn,2020-0188,2020-11-18,13:33:21,13:56:05,NA,incomplete,191,shape,1,left,Red_Triangle_Grid_3.jpg,Green_Triangle_Dots_1.jpg,Red_Star_Stripes_4.jpg,right,776.0000000052387,false,low,NA,NA,NA,NA,NA,NA,NA,false
khjcs8rn,3lvtfb9df8vfwjy33dzq8w9nvhnqgc,3r8yzbnq9lvyqalw1c0yr3sm9m27q8,khjcs8rn,2020-0188,2020-11-18,13:33:21,13:56:05,NA,incomplete,192,shape,1,right,Blue_Plus_Stripes_4.jpg,Blue_Circle_Grid_3.jpg,Purple_Plus_Dots_1.jpg,left,556.000000004191,false,low,NA,NA,NA,NA,NA,NA,NA,false
khjcs8rn,3lvtfb9df8vfwjy33dzq8w9nvhnqgc,3r8yzbnq9lvyqalw1c0yr3sm9m27q8,khjcs8rn,2020-0188,2020-11-18,13:33:21,13:56:05,NA,incomplete,193,shape,1,left,Purple_Circle_Chess_4.jpg,Green_Circle_Dots_2.jpg,Purple_Plus_Stripes_3.jpg,left,1050.0000000029104,true,low,NA,NA,NA,NA,NA,NA,NA,false
khjcs8rn,3lvtfb9df8vfwjy33dzq8w9nvhnqgc,3r8yzbnq9lvyqalw1c0yr3sm9m27q8,khjcs8rn,2020-0188,2020-11-18,13:33:21,13:56:05,NA,incomplete,194,shape,1,left,Green_Circle_Grid_3.jpg,Red_Circle_Chess_2.jpg,Green_Triangle_Dots_4.jpg,left,821.0000000034925,true,low,NA,NA,NA,NA,NA,NA,NA,false
khjcs8rn,3lvtfb9df8vfwjy33dzq8w9nvhnqgc,3r8yzbnq9lvyqalw1c0yr3sm9m27q8,khjcs8rn,2020-0188,2020-11-18,13:33:21,13:56:05,NA,incomplete,195,shape,1,right,Purple_Circle_Stripes_1.jpg,Purple_Star_Grid_2.jpg,Red_Circle_Dots_3.jpg,left,1112.9999999975553,false,low,NA,NA,NA,NA,NA,NA,NA,false
khjcs8rn,3lvtfb9df8vfwjy33dzq8w9nvhnqgc,3r8yzbnq9lvyqalw1c0yr3sm9m27q8,khjcs8rn,2020-0188,2020-11-18,13:33:21,13:56:05,NA,incomplete,196,shape,1,right,Green_Triangle_Chess_4.jpg,Green_Star_Dots_2.jpg,Blue_Triangle_Grid_3.jpg,left,1139.000000002794,false,low,NA,NA,NA,NA,NA,NA,NA,false
khjcs8rn,3lvtfb9df8vfwjy33dzq8w9nvhnqgc,3r8yzbnq9lvyqalw1c0yr3sm9m27q8,khjcs8rn,2020-0188,2020-11-18,13:33:21,13:56:05,NA,incomplete,197,shape,1,right,Blue_Triangle_Chess_2.jpg,Blue_Plus_Stripes_1.jpg,Purple_Triangle_Grid_4.jpg,left,983.9999999967404,false,low,NA,NA,NA,NA,NA,NA,NA,false
khjcs8rn,3lvtfb9df8vfwjy33dzq8w9nvhnqgc,3r8yzbnq9lvyqalw1c0yr3sm9m27q8,khjcs8rn,2020-0188,2020-11-18,13:33:21,13:56:05,NA,incomplete,198,shape,1,left,Green_Circle_Chess_1.jpg,Purple_Circle_Dots_3.jpg,Green_Star_Stripes_4.jpg,left,1269,true,low,NA,NA,NA,NA,NA,NA,NA,false
khjcs8rn,3lvtfb9df8vfwjy33dzq8w9nvhnqgc,3r8yzbnq9lvyqalw1c0yr3sm9m27q8,khjcs8rn,2020-0188,2020-11-18,13:33:21,13:56:05,NA,incomplete,199,shape,0,left,Blue_Star_Grid_3.jpg,Purple_Star_Stripes_2.jpg,Blue_Plus_Chess_4.jpg,left,1014.9999999993015,true,low,NA,NA,NA,NA,NA,NA,NA,false
khjcs8rn,3lvtfb9df8vfwjy33dzq8w9nvhnqgc,3r8yzbnq9lvyqalw1c0yr3sm9m27q8,khjcs8rn,2020-0188,2020-11-18,13:33:21,13:56:05,NA,incomplete,200,color,1,left,Blue_Plus_Grid_4.jpg,Blue_Star_Stripes_2.jpg,Red_Plus_Chess_1.jpg,left,1078.0000000011642,true,low,NA,NA,NA,NA,NA,NA,NA,false
khjcs8rn,3lvtfb9df8vfwjy33dzq8w9nvhnqgc,3r8yzbnq9lvyqalw1c0yr3sm9m27q8,khjcs8rn,2020-0188,2020-11-18,13:33:21,13:56:05,NA,incomplete,201,color,1,right,Green_Circle_Grid_3.jpg,Red_Circle_Chess_2.jpg,Green_Star_Stripes_1.jpg,right,939.9999999951106,true,low,NA,NA,NA,NA,NA,NA,NA,false
khjcs8rn,3lvtfb9df8vfwjy33dzq8w9nvhnqgc,3r8yzbnq9lvyqalw1c0yr3sm9m27q8,khjcs8rn,2020-0188,2020-11-18,13:33:21,13:56:05,NA,incomplete,202,color,1,left,Blue_Triangle_Chess_2.jpg,Blue_Star_Dots_3.jpg,Purple_Triangle_Grid_1.jpg,right,1661,false,low,NA,NA,NA,NA,NA,NA,NA,false
khjcs8rn,3lvtfb9df8vfwjy33dzq8w9nvhnqgc,3r8yzbnq9lvyqalw1c0yr3sm9m27q8,khjcs8rn,2020-0188,2020-11-18,13:33:21,13:56:05,NA,incomplete,203,color,1,right,Blue_Circle_Dots_4.jpg,Red_Circle_Grid_1.jpg,Blue_Plus_Chess_3.jpg,right,1150.0000000016298,true,low,NA,NA,NA,NA,NA,NA,NA,false
khjcs8rn,3lvtfb9df8vfwjy33dzq8w9nvhnqgc,3r8yzbnq9lvyqalw1c0yr3sm9m27q8,khjcs8rn,2020-0188,2020-11-18,13:33:21,13:56:05,NA,incomplete,204,color,0,left,Purple_Circle_Dots_3.jpg,Purple_Triangle_Chess_1.jpg,Red_Circle_Stripes_2.jpg,left,1254.0000000006985,true,low,NA,NA,NA,NA,NA,NA,NA,false
khjcs8rn,3lvtfb9df8vfwjy33dzq8w9nvhnqgc,3r8yzbnq9lvyqalw1c0yr3sm9m27q8,khjcs8rn,2020-0188,2020-11-18,13:33:21,13:56:05,NA,incomplete,205,color,1,right,Blue_Star_Grid_3.jpg,Purple_Star_Dots_2.jpg,Blue_Triangle_Chess_4.jpg,right,1031.0000000025611,true,low,NA,NA,NA,NA,NA,NA,NA,false
khjcs8rn,3lvtfb9df8vfwjy33dzq8w9nvhnqgc,3r8yzbnq9lvyqalw1c0yr3sm9m27q8,khjcs8rn,2020-0188,2020-11-18,13:33:21,13:56:05,NA,incomplete,206,color,1,right,Blue_Triangle_Stripes_3.jpg,Purple_Triangle_Dots_4.jpg,Blue_Circle_Chess_1.jpg,right,816.9999999955762,true,low,NA,NA,NA,NA,NA,NA,NA,false
khjcs8rn,3lvtfb9df8vfwjy33dzq8w9nvhnqgc,3r8yzbnq9lvyqalw1c0yr3sm9m27q8,khjcs8rn,2020-0188,2020-11-18,13:33:21,13:56:05,NA,incomplete,207,color,1,right,Green_Plus_Stripes_1.jpg,Blue_Plus_Grid_4.jpg,Green_Circle_Chess_2.jpg,right,1063.0000000020955,true,low,NA,NA,NA,NA,NA,NA,NA,false
khjcs8rn,3lvtfb9df8vfwjy33dzq8w9nvhnqgc,3r8yzbnq9lvyqalw1c0yr3sm9m27q8,khjcs8rn,2020-0188,2020-11-18,13:33:21,13:56:05,NA,incomplete,208,color,1,right,Blue_Triangle_Grid_4.jpg,Red_Triangle_Chess_2.jpg,Blue_Plus_Dots_1.jpg,right,1040.0000000009313,true,low,NA,NA,NA,NA,NA,NA,NA,false
khjcs8rn,3lvtfb9df8vfwjy33dzq8w9nvhnqgc,3r8yzbnq9lvyqalw1c0yr3sm9m27q8,khjcs8rn,2020-0188,2020-11-18,13:33:21,13:56:05,NA,incomplete,209,color,1,left,Purple_Triangle_Grid_2.jpg,Purple_Plus_Chess_3.jpg,Red_Triangle_Stripes_4.jpg,right,1260.999999998603,false,low,NA,NA,NA,NA,NA,NA,NA,false
khjcs8rn,3lvtfb9df8vfwjy33dzq8w9nvhnqgc,3r8yzbnq9lvyqalw1c0yr3sm9m27q8,khjcs8rn,2020-0188,2020-11-18,13:33:21,13:56:05,NA,incomplete,210,color,1,right,Red_Circle_Chess_4.jpg,Green_Circle_Grid_3.jpg,Red_Plus_Dots_1.jpg,right,1708.9999999953434,true,low,NA,NA,NA,NA,NA,NA,NA,false
khjcs8rn,3lvtfb9df8vfwjy33dzq8w9nvhnqgc,3r8yzbnq9lvyqalw1c0yr3sm9m27q8,khjcs8rn,2020-0188,2020-11-18,13:33:21,13:56:05,NA,incomplete,211,color,1,right,Green_Star_Dots_1.jpg,Blue_Star_Stripes_2.jpg,Green_Circle_Grid_4.jpg,right,764.9999999995343,true,low,NA,NA,NA,NA,NA,NA,NA,false
khjcs8rn,3lvtfb9df8vfwjy33dzq8w9nvhnqgc,3r8yzbnq9lvyqalw1c0yr3sm9m27q8,khjcs8rn,2020-0188,2020-11-18,13:33:21,13:56:05,NA,incomplete,212,color,1,right,Purple_Circle_Stripes_4.jpg,Blue_Circle_Dots_2.jpg,Purple_Star_Chess_3.jpg,right,690.9999999988358,true,low,NA,NA,NA,NA,NA,NA,NA,false
khjcs8rn,3lvtfb9df8vfwjy33dzq8w9nvhnqgc,3r8yzbnq9lvyqalw1c0yr3sm9m27q8,khjcs8rn,2020-0188,2020-11-18,13:33:21,13:56:05,NA,incomplete,213,color,1,right,Green_Plus_Chess_4.jpg,Red_Plus_Grid_2.jpg,Green_Circle_Stripes_1.jpg,right,699.999999997206,true,low,NA,NA,NA,NA,NA,NA,NA,false
khjcs8rn,3lvtfb9df8vfwjy33dzq8w9nvhnqgc,3r8yzbnq9lvyqalw1c0yr3sm9m27q8,khjcs8rn,2020-0188,2020-11-18,13:33:21,13:56:05,NA,incomplete,214,color,1,left,Green_Plus_Chess_3.jpg,Green_Circle_Stripes_1.jpg,Purple_Plus_Grid_4.jpg,left,1413.9999999969732,true,low,NA,NA,NA,NA,NA,NA,NA,false
khjcs8rn,3lvtfb9df8vfwjy33dzq8w9nvhnqgc,3r8yzbnq9lvyqalw1c0yr3sm9m27q8,khjcs8rn,2020-0188,2020-11-18,13:33:21,13:56:05,NA,incomplete,215,color,1,right,Blue_Triangle_Grid_3.jpg,Purple_Triangle_Dots_4.jpg,Blue_Plus_Stripes_2.jpg,right,834.9999999993015,true,low,NA,NA,NA,NA,NA,NA,NA,false
khjcs8rn,3lvtfb9df8vfwjy33dzq8w9nvhnqgc,3r8yzbnq9lvyqalw1c0yr3sm9m27q8,khjcs8rn,2020-0188,2020-11-18,13:33:21,13:56:05,NA,incomplete,216,color,1,right,Purple_Circle_Stripes_4.jpg,Red_Circle_Chess_2.jpg,Purple_Triangle_Dots_1.jpg,right,788.0000000004657,true,low,NA,NA,NA,NA,NA,NA,NA,false
khjcs8rn,3lvtfb9df8vfwjy33dzq8w9nvhnqgc,3r8yzbnq9lvyqalw1c0yr3sm9m27q8,khjcs8rn,2020-0188,2020-11-18,13:33:21,13:56:05,NA,incomplete,217,color,1,left,Blue_Plus_Chess_4.jpg,Blue_Triangle_Dots_1.jpg,Green_Plus_Stripes_2.jpg,left,777.9999999983702,true,low,NA,NA,NA,NA,NA,NA,NA,false
khjcs8rn,3lvtfb9df8vfwjy33dzq8w9nvhnqgc,3r8yzbnq9lvyqalw1c0yr3sm9m27q8,khjcs8rn,2020-0188,2020-11-18,13:33:21,13:56:05,NA,incomplete,218,color,1,right,Green_Circle_Stripes_1.jpg,Red_Circle_Grid_3.jpg,Green_Triangle_Dots_2.jpg,right,608.0000000002328,true,low,NA,NA,NA,NA,NA,NA,NA,false
khjcs8rn,3lvtfb9df8vfwjy33dzq8w9nvhnqgc,3r8yzbnq9lvyqalw1c0yr3sm9m27q8,khjcs8rn,2020-0188,2020-11-18,13:33:21,13:56:05,NA,incomplete,219,color,1,right,Purple_Plus_Dots_4.jpg,Green_Plus_Chess_1.jpg,Purple_Triangle_Stripes_3.jpg,right,622.0000000030268,true,low,NA,NA,NA,NA,NA,NA,NA,false
khjcs8rn,3lvtfb9df8vfwjy33dzq8w9nvhnqgc,3r8yzbnq9lvyqalw1c0yr3sm9m27q8,khjcs8rn,2020-0188,2020-11-18,13:33:21,13:56:05,NA,incomplete,220,shape,0,left,Blue_Star_Chess_3.jpg,Purple_Star_Stripes_2.jpg,Blue_Circle_Grid_4.jpg,right,677.9999999997672,false,low,NA,NA,NA,NA,NA,NA,NA,false
khjcs8rn,3lvtfb9df8vfwjy33dzq8w9nvhnqgc,3r8yzbnq9lvyqalw1c0yr3sm9m27q8,khjcs8rn,2020-0188,2020-11-18,13:33:21,13:56:05,NA,incomplete,221,shape,1,left,Green_Circle_Grid_1.jpg,Purple_Circle_Dots_4.jpg,Green_Plus_Chess_2.jpg,right,815.9999999990687,false,low,NA,NA,NA,NA,NA,NA,NA,false
khjcs8rn,3lvtfb9df8vfwjy33dzq8w9nvhnqgc,3r8yzbnq9lvyqalw1c0yr3sm9m27q8,khjcs8rn,2020-0188,2020-11-18,13:33:21,13:56:05,NA,incomplete,222,shape,1,left,Red_Triangle_Stripes_1.jpg,Blue_Triangle_Grid_3.jpg,Red_Circle_Chess_2.jpg,left,1347.9999999981374,true,low,NA,NA,NA,NA,NA,NA,NA,false
khjcs8rn,3lvtfb9df8vfwjy33dzq8w9nvhnqgc,3r8yzbnq9lvyqalw1c0yr3sm9m27q8,khjcs8rn,2020-0188,2020-11-18,13:33:21,13:56:05,NA,incomplete,223,shape,1,left,Green_Star_Chess_2.jpg,Purple_Star_Grid_1.jpg,Green_Triangle_Dots_4.jpg,left,1092.000000004191,true,low,NA,NA,NA,NA,NA,NA,NA,false
khjcs8rn,3lvtfb9df8vfwjy33dzq8w9nvhnqgc,3r8yzbnq9lvyqalw1c0yr3sm9m27q8,khjcs8rn,2020-0188,2020-11-18,13:33:21,13:56:05,NA,incomplete,224,shape,1,right,Purple_Plus_Grid_4.jpg,Purple_Star_Dots_3.jpg,Green_Plus_Stripes_1.jpg,left,1517.000000006985,false,low,NA,NA,NA,NA,NA,NA,NA,false
khjcs8rn,3lvtfb9df8vfwjy33dzq8w9nvhnqgc,3r8yzbnq9lvyqalw1c0yr3sm9m27q8,khjcs8rn,2020-0188,2020-11-18,13:33:21,13:56:05,NA,incomplete,225,shape,0,right,Red_Star_Grid_2.jpg,Red_Plus_Chess_1.jpg,Purple_Star_Stripes_3.jpg,right,692.0000000025611,true,low,NA,NA,NA,NA,NA,NA,NA,false
khjcs8rn,3lvtfb9df8vfwjy33dzq8w9nvhnqgc,3r8yzbnq9lvyqalw1c0yr3sm9m27q8,khjcs8rn,2020-0188,2020-11-18,13:33:21,13:56:05,NA,incomplete,226,shape,1,left,Green_Plus_Dots_4.jpg,Purple_Plus_Grid_1.jpg,Green_Triangle_Chess_3.jpg,right,733.0000000002328,false,low,NA,NA,NA,NA,NA,NA,NA,false
khjcs8rn,3lvtfb9df8vfwjy33dzq8w9nvhnqgc,3r8yzbnq9lvyqalw1c0yr3sm9m27q8,khjcs8rn,2020-0188,2020-11-18,13:33:21,13:56:05,NA,incomplete,227,shape,1,left,Blue_Star_Stripes_4.jpg,Purple_Star_Grid_3.jpg,Blue_Circle_Chess_1.jpg,left,1188.9999999983702,true,low,NA,NA,NA,NA,NA,NA,NA,false
khjcs8rn,3lvtfb9df8vfwjy33dzq8w9nvhnqgc,3r8yzbnq9lvyqalw1c0yr3sm9m27q8,khjcs8rn,2020-0188,2020-11-18,13:33:21,13:56:05,NA,incomplete,228,shape,0,right,Blue_Star_Grid_1.jpg,Blue_Plus_Stripes_3.jpg,Green_Star_Chess_2.jpg,right,1033.0000000032596,true,low,NA,NA,NA,NA,NA,NA,NA,false
khjcs8rn,3lvtfb9df8vfwjy33dzq8w9nvhnqgc,3r8yzbnq9lvyqalw1c0yr3sm9m27q8,khjcs8rn,2020-0188,2020-11-18,13:33:21,13:56:05,NA,incomplete,229,shape,1,right,Purple_Plus_Grid_1.jpg,Purple_Star_Chess_3.jpg,Green_Plus_Dots_4.jpg,right,982.0000000034925,true,low,NA,NA,NA,NA,NA,NA,NA,false
khjcs8rn,3lvtfb9df8vfwjy33dzq8w9nvhnqgc,3r8yzbnq9lvyqalw1c0yr3sm9m27q8,khjcs8rn,2020-0188,2020-11-18,13:33:21,13:56:05,NA,incomplete,230,shape,1,right,Green_Triangle_Stripes_3.jpg,Green_Star_Dots_4.jpg,Blue_Triangle_Grid_2.jpg,right,1267.9999999962747,true,low,NA,NA,NA,NA,NA,NA,NA,false
khjcs8rn,3lvtfb9df8vfwjy33dzq8w9nvhnqgc,3r8yzbnq9lvyqalw1c0yr3sm9m27q8,khjcs8rn,2020-0188,2020-11-18,13:33:21,13:56:05,NA,incomplete,231,shape,1,right,Purple_Triangle_Dots_2.jpg,Purple_Star_Grid_1.jpg,Green_Triangle_Chess_3.jpg,right,692.9999999993015,true,low,NA,NA,NA,NA,NA,NA,NA,false
khjcs8rn,3lvtfb9df8vfwjy33dzq8w9nvhnqgc,3r8yzbnq9lvyqalw1c0yr3sm9m27q8,khjcs8rn,2020-0188,2020-11-18,13:33:21,13:56:05,NA,incomplete,232,shape,1,left,Red_Triangle_Stripes_2.jpg,Blue_Triangle_Chess_3.jpg,Red_Plus_Grid_4.jpg,left,1741.9999999983702,true,low,NA,NA,NA,NA,NA,NA,NA,false
khjcs8rn,3lvtfb9df8vfwjy33dzq8w9nvhnqgc,3r8yzbnq9lvyqalw1c0yr3sm9m27q8,khjcs8rn,2020-0188,2020-11-18,13:33:21,13:56:05,NA,incomplete,233,shape,0,right,Purple_Star_Grid_4.jpg,Purple_Plus_Dots_3.jpg,Blue_Star_Chess_1.jpg,right,878.000000004191,true,low,NA,NA,NA,NA,NA,NA,NA,false
khjcs8rn,3lvtfb9df8vfwjy33dzq8w9nvhnqgc,3r8yzbnq9lvyqalw1c0yr3sm9m27q8,khjcs8rn,2020-0188,2020-11-18,13:33:21,13:56:05,NA,incomplete,234,shape,1,left,Green_Triangle_Chess_4.jpg,Red_Triangle_Grid_2.jpg,Green_Plus_Dots_3.jpg,right,750,false,low,NA,NA,NA,NA,NA,NA,NA,false
khjcs8rn,3lvtfb9df8vfwjy33dzq8w9nvhnqgc,3r8yzbnq9lvyqalw1c0yr3sm9m27q8,khjcs8rn,2020-0188,2020-11-18,13:33:21,13:56:05,NA,incomplete,235,shape,0,right,Purple_Triangle_Dots_3.jpg,Purple_Circle_Grid_1.jpg,Red_Triangle_Chess_2.jpg,right,819.9999999997672,true,low,NA,NA,NA,NA,NA,NA,NA,false
khjcs8rn,3lvtfb9df8vfwjy33dzq8w9nvhnqgc,3r8yzbnq9lvyqalw1c0yr3sm9m27q8,khjcs8rn,2020-0188,2020-11-18,13:33:21,13:56:05,NA,incomplete,236,shape,1,left,Blue_Circle_Chess_2.jpg,Green_Circle_Stripes_1.jpg,Blue_Star_Grid_3.jpg,left,1864.000000001397,true,low,NA,NA,NA,NA,NA,NA,NA,false
khjcs8rn,3lvtfb9df8vfwjy33dzq8w9nvhnqgc,3r8yzbnq9lvyqalw1c0yr3sm9m27q8,khjcs8rn,2020-0188,2020-11-18,13:33:21,13:56:05,NA,incomplete,237,shape,1,right,Blue_Circle_Chess_2.jpg,Blue_Triangle_Stripes_1.jpg,Red_Circle_Dots_3.jpg,right,660.0000000034925,true,low,NA,NA,NA,NA,NA,NA,NA,false
khjcs8rn,3lvtfb9df8vfwjy33dzq8w9nvhnqgc,3r8yzbnq9lvyqalw1c0yr3sm9m27q8,khjcs8rn,2020-0188,2020-11-18,13:33:21,13:56:05,NA,incomplete,238,shape,1,right,Purple_Star_Chess_3.jpg,Purple_Plus_Stripes_4.jpg,Green_Star_Dots_1.jpg,right,750,true,low,NA,NA,NA,NA,NA,NA,NA,false
khjcs8rn,3lvtfb9df8vfwjy33dzq8w9nvhnqgc,3r8yzbnq9lvyqalw1c0yr3sm9m27q8,khjcs8rn,2020-0188,2020-11-18,13:33:21,13:56:05,NA,incomplete,239,shape,1,right,Blue_Plus_Stripes_3.jpg,Blue_Circle_Grid_4.jpg,Red_Plus_Chess_2.jpg,right,642.9999999965075,true,low,NA,NA,NA,NA,NA,NA,NA,false
khjcs8rn,3lvtfb9df8vfwjy33dzq8w9nvhnqgc,3r8yzbnq9lvyqalw1c0yr3sm9m27q8,khjcs8rn,2020-0188,2020-11-18,13:33:21,13:56:05,NA,NA,instruction example,filling,NA,NA,Purple_Circle_Chess_1.jpg,Blue_Triangle_Chess_2.jpg,Red_Plus_Grid_1.jpg,NA,NA,NA,NA,NA,NA,NA,NA,NA,NA,NA,undefined
khjcs8rn,3lvtfb9df8vfwjy33dzq8w9nvhnqgc,3r8yzbnq9lvyqalw1c0yr3sm9m27q8,khjcs8rn,2020-0188,2020-11-18,13:33:21,13:56:05,NA,NA,instruction example,filling,NA,NA,Purple_Star_Chess_4.jpg,Blue_Circle_Stripes_4.jpg,Green_Plus_Chess_2.jpg,NA,NA,NA,NA,NA,NA,NA,NA,NA,NA,NA,undefined
khjcs8rn,3lvtfb9df8vfwjy33dzq8w9nvhnqgc,3r8yzbnq9lvyqalw1c0yr3sm9m27q8,khjcs8rn,2020-0188,2020-11-18,13:33:21,13:56:05,NA,NA,instruction example,filling,NA,NA,Red_Plus_Stripes_2.jpg,Red_Circle_Chess_3.jpg,Blue_Plus_Dots_4.jpg,NA,NA,NA,NA,NA,NA,NA,NA,NA,NA,NA,undefined
khjcs8rn,3lvtfb9df8vfwjy33dzq8w9nvhnqgc,3r8yzbnq9lvyqalw1c0yr3sm9m27q8,khjcs8rn,2020-0188,2020-11-18,13:33:21,13:56:05,NA,NA,instruction example,filling,NA,NA,Blue_Star_Dots_1.jpg,Green_Star_Chess_4.jpg,Blue_Circle_Stripes_3.jpg,NA,NA,NA,NA,NA,NA,NA,NA,NA,NA,NA,undefined
khjcs8rn,3lvtfb9df8vfwjy33dzq8w9nvhnqgc,3r8yzbnq9lvyqalw1c0yr3sm9m27q8,khjcs8rn,2020-0188,2020-11-18,13:33:21,13:56:05,1162302.0000000033,1365908.000000003,NA,NA,NA,NA,NA,NA,NA,NA,NA,NA,NA,44,White/Caucasian,Female,non-hispanic,no,no,no,undefined
