workerId,hitId,assignmentId,subject,studyid,exp_date,exp_start,exp_end,time_start,time_end,trial,type,reward_validity,answer,image_top,image_left,image_right,response,response_time,response_acc,volatility,practice
JOWcq4l8,372ages0j7iqu68t52ou18jnn9hxrx,3s4aw7t80fvqgqn079uv759hamal4e,JOWcq4l8,2020-0188,2020-05-21,22:51:39,23:13:54,NA,incomplete,0,color,0,left,Blue_Plus_Grid_3.jpg,Blue_Circle_Stripes_2.jpg,Green_Star_Dots_3.jpg,right,1043.4100000420585,false,NA,true
JOWcq4l8,372ages0j7iqu68t52ou18jnn9hxrx,3s4aw7t80fvqgqn079uv759hamal4e,JOWcq4l8,2020-0188,2020-05-21,22:51:39,23:13:54,NA,incomplete,1,color,1,left,Purple_Triangle_Grid_2.jpg,Purple_Star_Dots_1.jpg,Green_Plus_Stripes_2.jpg,left,1915.099999983795,true,NA,true
JOWcq4l8,372ages0j7iqu68t52ou18jnn9hxrx,3s4aw7t80fvqgqn079uv759hamal4e,JOWcq4l8,2020-0188,2020-05-21,22:51:39,23:13:54,NA,incomplete,2,color,1,right,Red_Circle_Chess_2.jpg,Green_Plus_Grid_2.jpg,Red_Star_Stripes_4.jpg,right,1290.3800000203773,true,NA,true
JOWcq4l8,372ages0j7iqu68t52ou18jnn9hxrx,3s4aw7t80fvqgqn079uv759hamal4e,JOWcq4l8,2020-0188,2020-05-21,22:51:39,23:13:54,NA,incomplete,3,color,1,left,Red_Triangle_Grid_2.jpg,Red_Plus_Chess_4.jpg,Green_Star_Stripes_2.jpg,left,1144.7950000292622,true,NA,true
JOWcq4l8,372ages0j7iqu68t52ou18jnn9hxrx,3s4aw7t80fvqgqn079uv759hamal4e,JOWcq4l8,2020-0188,2020-05-21,22:51:39,23:13:54,NA,incomplete,4,color,1,left,Blue_Plus_Dots_3.jpg,Blue_Star_Grid_4.jpg,Red_Triangle_Stripes_3.jpg,left,934.9599999841303,true,NA,true
JOWcq4l8,372ages0j7iqu68t52ou18jnn9hxrx,3s4aw7t80fvqgqn079uv759hamal4e,JOWcq4l8,2020-0188,2020-05-21,22:51:39,23:13:54,NA,incomplete,5,color,1,left,Red_Plus_Dots_2.jpg,Red_Triangle_Chess_4.jpg,Green_Circle_Grid_2.jpg,left,802.9800000367686,true,NA,true
JOWcq4l8,372ages0j7iqu68t52ou18jnn9hxrx,3s4aw7t80fvqgqn079uv759hamal4e,JOWcq4l8,2020-0188,2020-05-21,22:51:39,23:13:54,NA,incomplete,6,color,0,right,Blue_Star_Dots_2.jpg,Green_Circle_Stripes_2.jpg,Blue_Triangle_Chess_1.jpg,right,726.555000001099,true,NA,true
JOWcq4l8,372ages0j7iqu68t52ou18jnn9hxrx,3s4aw7t80fvqgqn079uv759hamal4e,JOWcq4l8,2020-0188,2020-05-21,22:51:39,23:13:54,NA,incomplete,7,color,0,left,Green_Triangle_Grid_4.jpg,Green_Star_Chess_1.jpg,Blue_Plus_Dots_4.jpg,left,865.6100000371225,true,NA,true
JOWcq4l8,372ages0j7iqu68t52ou18jnn9hxrx,3s4aw7t80fvqgqn079uv759hamal4e,JOWcq4l8,2020-0188,2020-05-21,22:51:39,23:13:54,NA,incomplete,8,color,1,left,Green_Circle_Chess_4.jpg,Green_Triangle_Grid_3.jpg,Purple_Plus_Dots_4.jpg,left,1068.3500000159256,true,NA,true
JOWcq4l8,372ages0j7iqu68t52ou18jnn9hxrx,3s4aw7t80fvqgqn079uv759hamal4e,JOWcq4l8,2020-0188,2020-05-21,22:51:39,23:13:54,NA,incomplete,9,color,0,left,Purple_Triangle_Grid_3.jpg,Purple_Star_Dots_2.jpg,Red_Plus_Chess_3.jpg,left,819.0600000089034,true,NA,true
JOWcq4l8,372ages0j7iqu68t52ou18jnn9hxrx,3s4aw7t80fvqgqn079uv759hamal4e,JOWcq4l8,2020-0188,2020-05-21,22:51:39,23:13:54,NA,incomplete,10,color,1,right,Red_Triangle_Stripes_3.jpg,Blue_Circle_Dots_3.jpg,Red_Plus_Chess_1.jpg,right,1498.9249999634922,true,NA,true
JOWcq4l8,372ages0j7iqu68t52ou18jnn9hxrx,3s4aw7t80fvqgqn079uv759hamal4e,JOWcq4l8,2020-0188,2020-05-21,22:51:39,23:13:54,NA,incomplete,11,color,0,left,Purple_Circle_Dots_4.jpg,Purple_Plus_Grid_3.jpg,Red_Star_Stripes_4.jpg,left,997.5049999775365,true,NA,true
JOWcq4l8,372ages0j7iqu68t52ou18jnn9hxrx,3s4aw7t80fvqgqn079uv759hamal4e,JOWcq4l8,2020-0188,2020-05-21,22:51:39,23:13:54,NA,incomplete,12,color,1,right,Purple_Triangle_Grid_3.jpg,Green_Star_Stripes_3.jpg,Purple_Plus_Dots_2.jpg,left,1595.3300000401214,false,NA,true
JOWcq4l8,372ages0j7iqu68t52ou18jnn9hxrx,3s4aw7t80fvqgqn079uv759hamal4e,JOWcq4l8,2020-0188,2020-05-21,22:51:39,23:13:54,NA,incomplete,13,color,1,right,Green_Circle_Stripes_3.jpg,Red_Plus_Chess_3.jpg,Green_Triangle_Grid_2.jpg,right,860.4150000028312,true,NA,true
JOWcq4l8,372ages0j7iqu68t52ou18jnn9hxrx,3s4aw7t80fvqgqn079uv759hamal4e,JOWcq4l8,2020-0188,2020-05-21,22:51:39,23:13:54,NA,incomplete,14,color,1,right,Blue_Star_Dots_1.jpg,Red_Triangle_Stripes_1.jpg,Blue_Circle_Grid_4.jpg,right,1198.2250000000931,true,NA,true
JOWcq4l8,372ages0j7iqu68t52ou18jnn9hxrx,3s4aw7t80fvqgqn079uv759hamal4e,JOWcq4l8,2020-0188,2020-05-21,22:51:39,23:13:54,NA,incomplete,15,color,1,right,Purple_Star_Chess_1.jpg,Blue_Triangle_Stripes_1.jpg,Purple_Circle_Grid_2.jpg,right,1075.0049999915063,true,NA,true
JOWcq4l8,372ages0j7iqu68t52ou18jnn9hxrx,3s4aw7t80fvqgqn079uv759hamal4e,JOWcq4l8,2020-0188,2020-05-21,22:51:39,23:13:54,NA,incomplete,16,color,0,right,Purple_Triangle_Dots_4.jpg,Red_Plus_Grid_4.jpg,Purple_Circle_Stripes_2.jpg,right,992.7949999691918,true,NA,true
JOWcq4l8,372ages0j7iqu68t52ou18jnn9hxrx,3s4aw7t80fvqgqn079uv759hamal4e,JOWcq4l8,2020-0188,2020-05-21,22:51:39,23:13:54,NA,incomplete,17,color,1,left,Blue_Star_Grid_1.jpg,Blue_Plus_Chess_3.jpg,Red_Triangle_Stripes_1.jpg,left,1154.099999985192,true,NA,true
JOWcq4l8,372ages0j7iqu68t52ou18jnn9hxrx,3s4aw7t80fvqgqn079uv759hamal4e,JOWcq4l8,2020-0188,2020-05-21,22:51:39,23:13:54,NA,incomplete,18,color,0,left,Blue_Triangle_Dots_3.jpg,Blue_Plus_Chess_2.jpg,Green_Star_Stripes_3.jpg,left,1285.745000001043,true,NA,true
JOWcq4l8,372ages0j7iqu68t52ou18jnn9hxrx,3s4aw7t80fvqgqn079uv759hamal4e,JOWcq4l8,2020-0188,2020-05-21,22:51:39,23:13:54,NA,incomplete,19,color,1,left,Green_Circle_Dots_2.jpg,Green_Triangle_Chess_3.jpg,Blue_Plus_Grid_2.jpg,left,823.450000025332,true,NA,true
JOWcq4l8,372ages0j7iqu68t52ou18jnn9hxrx,3s4aw7t80fvqgqn079uv759hamal4e,JOWcq4l8,2020-0188,2020-05-21,22:51:39,23:13:54,NA,incomplete,20,number,1,left,Red_Plus_Stripes_1.jpg,Blue_Triangle_Dots_1.jpg,Red_Circle_Grid_2.jpg,left,1934.484999976121,true,NA,true
JOWcq4l8,372ages0j7iqu68t52ou18jnn9hxrx,3s4aw7t80fvqgqn079uv759hamal4e,JOWcq4l8,2020-0188,2020-05-21,22:51:39,23:13:54,NA,incomplete,21,number,1,right,Red_Circle_Stripes_4.jpg,Red_Star_Dots_2.jpg,Purple_Plus_Grid_4.jpg,right,1315.0900000473484,true,NA,true
JOWcq4l8,372ages0j7iqu68t52ou18jnn9hxrx,3s4aw7t80fvqgqn079uv759hamal4e,JOWcq4l8,2020-0188,2020-05-21,22:51:39,23:13:54,NA,incomplete,22,number,1,left,Red_Circle_Chess_4.jpg,Green_Triangle_Grid_4.jpg,Red_Star_Dots_3.jpg,left,1746.5249999659136,true,NA,true
JOWcq4l8,372ages0j7iqu68t52ou18jnn9hxrx,3s4aw7t80fvqgqn079uv759hamal4e,JOWcq4l8,2020-0188,2020-05-21,22:51:39,23:13:54,NA,incomplete,23,number,1,right,Blue_Circle_Grid_1.jpg,Blue_Star_Stripes_4.jpg,Red_Triangle_Dots_1.jpg,right,1052.6950000203215,true,NA,true
JOWcq4l8,372ages0j7iqu68t52ou18jnn9hxrx,3s4aw7t80fvqgqn079uv759hamal4e,JOWcq4l8,2020-0188,2020-05-21,22:51:39,23:13:54,NA,incomplete,24,number,1,right,Purple_Triangle_Dots_1.jpg,Purple_Star_Grid_3.jpg,Red_Plus_Stripes_1.jpg,right,1114.2300000065006,true,NA,true
JOWcq4l8,372ages0j7iqu68t52ou18jnn9hxrx,3s4aw7t80fvqgqn079uv759hamal4e,JOWcq4l8,2020-0188,2020-05-21,22:51:39,23:13:54,NA,incomplete,25,number,1,right,Purple_Circle_Chess_1.jpg,Purple_Star_Stripes_2.jpg,Green_Triangle_Grid_1.jpg,right,1163.3699999656528,true,NA,true
JOWcq4l8,372ages0j7iqu68t52ou18jnn9hxrx,3s4aw7t80fvqgqn079uv759hamal4e,JOWcq4l8,2020-0188,2020-05-21,22:51:39,23:13:54,NA,incomplete,26,number,1,left,Red_Circle_Grid_1.jpg,Purple_Plus_Chess_1.jpg,Red_Triangle_Stripes_2.jpg,left,1031.9449999951757,true,NA,true
JOWcq4l8,372ages0j7iqu68t52ou18jnn9hxrx,3s4aw7t80fvqgqn079uv759hamal4e,JOWcq4l8,2020-0188,2020-05-21,22:51:39,23:13:54,NA,incomplete,27,number,1,left,Red_Star_Chess_4.jpg,Green_Triangle_Stripes_4.jpg,Red_Circle_Grid_3.jpg,left,1307.0549999829382,true,NA,true
JOWcq4l8,372ages0j7iqu68t52ou18jnn9hxrx,3s4aw7t80fvqgqn079uv759hamal4e,JOWcq4l8,2020-0188,2020-05-21,22:51:39,23:13:54,NA,incomplete,28,number,1,right,Green_Circle_Stripes_4.jpg,Green_Triangle_Chess_3.jpg,Blue_Plus_Dots_4.jpg,right,1338.5699999635108,true,NA,true
JOWcq4l8,372ages0j7iqu68t52ou18jnn9hxrx,3s4aw7t80fvqgqn079uv759hamal4e,JOWcq4l8,2020-0188,2020-05-21,22:51:39,23:13:54,NA,incomplete,29,number,1,left,Blue_Circle_Stripes_2.jpg,Red_Star_Grid_2.jpg,Blue_Triangle_Chess_4.jpg,left,1438.8700000126846,true,NA,true
JOWcq4l8,372ages0j7iqu68t52ou18jnn9hxrx,3s4aw7t80fvqgqn079uv759hamal4e,JOWcq4l8,2020-0188,2020-05-21,22:51:39,23:13:54,NA,incomplete,30,number,1,right,Red_Plus_Chess_2.jpg,Red_Triangle_Stripes_4.jpg,Purple_Star_Grid_2.jpg,right,1242.8150000050664,true,NA,true
JOWcq4l8,372ages0j7iqu68t52ou18jnn9hxrx,3s4aw7t80fvqgqn079uv759hamal4e,JOWcq4l8,2020-0188,2020-05-21,22:51:39,23:13:54,NA,incomplete,31,number,1,left,Red_Plus_Chess_1.jpg,Blue_Circle_Grid_1.jpg,Red_Star_Dots_4.jpg,left,1198.595000023488,true,NA,true
JOWcq4l8,372ages0j7iqu68t52ou18jnn9hxrx,3s4aw7t80fvqgqn079uv759hamal4e,JOWcq4l8,2020-0188,2020-05-21,22:51:39,23:13:54,NA,incomplete,32,number,1,left,Red_Plus_Grid_3.jpg,Green_Triangle_Chess_3.jpg,Red_Star_Stripes_2.jpg,left,1268.549999978859,true,NA,true
JOWcq4l8,372ages0j7iqu68t52ou18jnn9hxrx,3s4aw7t80fvqgqn079uv759hamal4e,JOWcq4l8,2020-0188,2020-05-21,22:51:39,23:13:54,NA,incomplete,33,number,1,left,Purple_Star_Grid_4.jpg,Red_Triangle_Dots_4.jpg,Purple_Plus_Chess_3.jpg,left,1174.524999980349,true,NA,true
JOWcq4l8,372ages0j7iqu68t52ou18jnn9hxrx,3s4aw7t80fvqgqn079uv759hamal4e,JOWcq4l8,2020-0188,2020-05-21,22:51:39,23:13:54,NA,incomplete,34,number,0,right,Purple_Star_Dots_2.jpg,Purple_Triangle_Grid_3.jpg,Green_Plus_Chess_2.jpg,right,1007.5549999601208,true,NA,true
JOWcq4l8,372ages0j7iqu68t52ou18jnn9hxrx,3s4aw7t80fvqgqn079uv759hamal4e,JOWcq4l8,2020-0188,2020-05-21,22:51:39,23:13:54,NA,incomplete,35,number,1,left,Purple_Plus_Dots_4.jpg,Blue_Triangle_Grid_4.jpg,Purple_Star_Chess_1.jpg,none,0,false,NA,true
JOWcq4l8,372ages0j7iqu68t52ou18jnn9hxrx,3s4aw7t80fvqgqn079uv759hamal4e,JOWcq4l8,2020-0188,2020-05-21,22:51:39,23:13:54,NA,incomplete,36,number,1,right,Red_Circle_Chess_4.jpg,Red_Plus_Dots_3.jpg,Green_Star_Grid_4.jpg,right,1161.6350000258535,true,NA,true
JOWcq4l8,372ages0j7iqu68t52ou18jnn9hxrx,3s4aw7t80fvqgqn079uv759hamal4e,JOWcq4l8,2020-0188,2020-05-21,22:51:39,23:13:54,NA,incomplete,37,number,1,left,Blue_Circle_Dots_1.jpg,Red_Star_Stripes_1.jpg,Blue_Plus_Chess_3.jpg,left,849.3200000375509,true,NA,true
JOWcq4l8,372ages0j7iqu68t52ou18jnn9hxrx,3s4aw7t80fvqgqn079uv759hamal4e,JOWcq4l8,2020-0188,2020-05-21,22:51:39,23:13:54,NA,incomplete,38,number,1,left,Green_Plus_Chess_1.jpg,Purple_Star_Stripes_1.jpg,Green_Triangle_Dots_2.jpg,left,1274.5100000174716,true,NA,true
JOWcq4l8,372ages0j7iqu68t52ou18jnn9hxrx,3s4aw7t80fvqgqn079uv759hamal4e,JOWcq4l8,2020-0188,2020-05-21,22:51:39,23:13:54,NA,incomplete,39,number,1,left,Green_Circle_Grid_2.jpg,Blue_Star_Chess_2.jpg,Green_Plus_Stripes_3.jpg,left,1093.1449999916367,true,NA,true
JOWcq4l8,372ages0j7iqu68t52ou18jnn9hxrx,3s4aw7t80fvqgqn079uv759hamal4e,JOWcq4l8,2020-0188,2020-05-21,22:51:39,23:13:54,NA,incomplete,0,color,1,left,Blue_Circle_Grid_4.jpg,Blue_Triangle_Stripes_2.jpg,Green_Plus_Chess_4.jpg,left,1963.3650000323541,true,high,false
JOWcq4l8,372ages0j7iqu68t52ou18jnn9hxrx,3s4aw7t80fvqgqn079uv759hamal4e,JOWcq4l8,2020-0188,2020-05-21,22:51:39,23:13:54,NA,incomplete,1,color,1,left,Red_Star_Chess_4.jpg,Red_Plus_Stripes_1.jpg,Blue_Circle_Grid_4.jpg,right,974.9549999833107,false,high,false
JOWcq4l8,372ages0j7iqu68t52ou18jnn9hxrx,3s4aw7t80fvqgqn079uv759hamal4e,JOWcq4l8,2020-0188,2020-05-21,22:51:39,23:13:54,NA,incomplete,2,color,1,left,Purple_Circle_Grid_1.jpg,Purple_Plus_Chess_2.jpg,Green_Triangle_Dots_1.jpg,left,1048.705000022892,true,high,false
JOWcq4l8,372ages0j7iqu68t52ou18jnn9hxrx,3s4aw7t80fvqgqn079uv759hamal4e,JOWcq4l8,2020-0188,2020-05-21,22:51:39,23:13:54,NA,incomplete,3,color,1,right,Green_Plus_Grid_4.jpg,Red_Triangle_Chess_4.jpg,Green_Circle_Dots_3.jpg,left,1741.3850000011735,false,high,false
JOWcq4l8,372ages0j7iqu68t52ou18jnn9hxrx,3s4aw7t80fvqgqn079uv759hamal4e,JOWcq4l8,2020-0188,2020-05-21,22:51:39,23:13:54,NA,incomplete,4,color,1,right,Purple_Triangle_Dots_2.jpg,Blue_Plus_Stripes_2.jpg,Purple_Star_Grid_3.jpg,right,1313.0249999812804,true,high,false
JOWcq4l8,372ages0j7iqu68t52ou18jnn9hxrx,3s4aw7t80fvqgqn079uv759hamal4e,JOWcq4l8,2020-0188,2020-05-21,22:51:39,23:13:54,NA,incomplete,5,color,1,right,Green_Plus_Grid_2.jpg,Purple_Star_Stripes_2.jpg,Green_Triangle_Dots_4.jpg,left,1303.4899999620393,false,high,false
JOWcq4l8,372ages0j7iqu68t52ou18jnn9hxrx,3s4aw7t80fvqgqn079uv759hamal4e,JOWcq4l8,2020-0188,2020-05-21,22:51:39,23:13:54,NA,incomplete,6,color,1,right,Red_Star_Dots_4.jpg,Green_Circle_Grid_4.jpg,Red_Plus_Chess_3.jpg,left,1230.794999981299,false,high,false
JOWcq4l8,372ages0j7iqu68t52ou18jnn9hxrx,3s4aw7t80fvqgqn079uv759hamal4e,JOWcq4l8,2020-0188,2020-05-21,22:51:39,23:13:54,NA,incomplete,7,color,0,right,Green_Plus_Chess_1.jpg,Red_Triangle_Dots_1.jpg,Green_Circle_Stripes_2.jpg,right,1003.595000016503,true,high,false
JOWcq4l8,372ages0j7iqu68t52ou18jnn9hxrx,3s4aw7t80fvqgqn079uv759hamal4e,JOWcq4l8,2020-0188,2020-05-21,22:51:39,23:13:54,NA,incomplete,8,color,1,left,Red_Triangle_Dots_3.jpg,Red_Plus_Chess_4.jpg,Purple_Star_Stripes_3.jpg,left,1083.1299999845214,true,high,false
JOWcq4l8,372ages0j7iqu68t52ou18jnn9hxrx,3s4aw7t80fvqgqn079uv759hamal4e,JOWcq4l8,2020-0188,2020-05-21,22:51:39,23:13:54,NA,incomplete,9,color,1,left,Green_Plus_Chess_3.jpg,Green_Star_Grid_1.jpg,Blue_Triangle_Dots_3.jpg,left,1343.044999986887,true,high,false
JOWcq4l8,372ages0j7iqu68t52ou18jnn9hxrx,3s4aw7t80fvqgqn079uv759hamal4e,JOWcq4l8,2020-0188,2020-05-21,22:51:39,23:13:54,NA,incomplete,10,number,1,right,Blue_Star_Grid_4.jpg,Blue_Circle_Dots_1.jpg,Green_Plus_Chess_4.jpg,right,892.5699999672361,true,high,false
JOWcq4l8,372ages0j7iqu68t52ou18jnn9hxrx,3s4aw7t80fvqgqn079uv759hamal4e,JOWcq4l8,2020-0188,2020-05-21,22:51:39,23:13:54,NA,incomplete,11,number,1,left,Blue_Triangle_Dots_2.jpg,Green_Star_Chess_2.jpg,Blue_Plus_Grid_3.jpg,left,1267.8299999679439,true,high,false
JOWcq4l8,372ages0j7iqu68t52ou18jnn9hxrx,3s4aw7t80fvqgqn079uv759hamal4e,JOWcq4l8,2020-0188,2020-05-21,22:51:39,23:13:54,NA,incomplete,12,number,1,left,Red_Star_Chess_4.jpg,Blue_Triangle_Dots_4.jpg,Red_Circle_Grid_2.jpg,right,1553.2549999770708,false,high,false
JOWcq4l8,372ages0j7iqu68t52ou18jnn9hxrx,3s4aw7t80fvqgqn079uv759hamal4e,JOWcq4l8,2020-0188,2020-05-21,22:51:39,23:13:54,NA,incomplete,13,number,1,right,Purple_Triangle_Dots_2.jpg,Purple_Circle_Chess_3.jpg,Blue_Plus_Stripes_2.jpg,right,1049.3650000425987,true,high,false
JOWcq4l8,372ages0j7iqu68t52ou18jnn9hxrx,3s4aw7t80fvqgqn079uv759hamal4e,JOWcq4l8,2020-0188,2020-05-21,22:51:39,23:13:54,NA,incomplete,14,number,1,left,Blue_Star_Grid_1.jpg,Red_Triangle_Stripes_1.jpg,Blue_Plus_Chess_4.jpg,left,1297.8250000160187,true,high,false
JOWcq4l8,372ages0j7iqu68t52ou18jnn9hxrx,3s4aw7t80fvqgqn079uv759hamal4e,JOWcq4l8,2020-0188,2020-05-21,22:51:39,23:13:54,NA,incomplete,15,number,1,right,Red_Plus_Grid_3.jpg,Red_Circle_Dots_1.jpg,Purple_Star_Chess_3.jpg,right,892.8200000082143,true,high,false
JOWcq4l8,372ages0j7iqu68t52ou18jnn9hxrx,3s4aw7t80fvqgqn079uv759hamal4e,JOWcq4l8,2020-0188,2020-05-21,22:51:39,23:13:54,NA,incomplete,16,number,1,left,Red_Plus_Chess_1.jpg,Green_Circle_Dots_1.jpg,Red_Triangle_Stripes_2.jpg,right,1072.2200000309385,false,high,false
JOWcq4l8,372ages0j7iqu68t52ou18jnn9hxrx,3s4aw7t80fvqgqn079uv759hamal4e,JOWcq4l8,2020-0188,2020-05-21,22:51:39,23:13:54,NA,incomplete,17,number,0,right,Red_Plus_Grid_4.jpg,Red_Circle_Dots_1.jpg,Blue_Triangle_Chess_4.jpg,right,1111.0050000133924,true,high,false
JOWcq4l8,372ages0j7iqu68t52ou18jnn9hxrx,3s4aw7t80fvqgqn079uv759hamal4e,JOWcq4l8,2020-0188,2020-05-21,22:51:39,23:13:54,NA,incomplete,18,number,1,right,Blue_Circle_Dots_3.jpg,Blue_Triangle_Stripes_1.jpg,Purple_Star_Grid_3.jpg,left,1280.045000021346,false,high,false
JOWcq4l8,372ages0j7iqu68t52ou18jnn9hxrx,3s4aw7t80fvqgqn079uv759hamal4e,JOWcq4l8,2020-0188,2020-05-21,22:51:39,23:13:54,NA,incomplete,19,number,1,right,Blue_Triangle_Dots_2.jpg,Blue_Circle_Chess_3.jpg,Red_Plus_Stripes_2.jpg,right,1208.9400000404567,true,high,false
JOWcq4l8,372ages0j7iqu68t52ou18jnn9hxrx,3s4aw7t80fvqgqn079uv759hamal4e,JOWcq4l8,2020-0188,2020-05-21,22:51:39,23:13:54,NA,incomplete,20,color,1,right,Green_Circle_Stripes_2.jpg,Purple_Triangle_Chess_2.jpg,Green_Plus_Dots_4.jpg,right,939.3500000005588,true,high,false
JOWcq4l8,372ages0j7iqu68t52ou18jnn9hxrx,3s4aw7t80fvqgqn079uv759hamal4e,JOWcq4l8,2020-0188,2020-05-21,22:51:39,23:13:54,NA,incomplete,21,color,0,right,Red_Circle_Dots_3.jpg,Purple_Plus_Stripes_3.jpg,Red_Triangle_Grid_4.jpg,right,970.4700000002049,true,high,false
JOWcq4l8,372ages0j7iqu68t52ou18jnn9hxrx,3s4aw7t80fvqgqn079uv759hamal4e,JOWcq4l8,2020-0188,2020-05-21,22:51:39,23:13:54,NA,incomplete,22,color,1,right,Green_Star_Dots_4.jpg,Red_Circle_Grid_4.jpg,Green_Plus_Chess_2.jpg,left,1807.7899999916553,false,high,false
JOWcq4l8,372ages0j7iqu68t52ou18jnn9hxrx,3s4aw7t80fvqgqn079uv759hamal4e,JOWcq4l8,2020-0188,2020-05-21,22:51:39,23:13:54,NA,incomplete,23,color,1,left,Blue_Star_Dots_4.jpg,Blue_Triangle_Chess_1.jpg,Red_Circle_Stripes_4.jpg,right,894.4849999970756,false,high,false
JOWcq4l8,372ages0j7iqu68t52ou18jnn9hxrx,3s4aw7t80fvqgqn079uv759hamal4e,JOWcq4l8,2020-0188,2020-05-21,22:51:39,23:13:54,NA,incomplete,24,color,0,right,Blue_Circle_Chess_2.jpg,Purple_Triangle_Dots_2.jpg,Blue_Star_Stripes_1.jpg,right,1440.4250000370666,true,high,false
JOWcq4l8,372ages0j7iqu68t52ou18jnn9hxrx,3s4aw7t80fvqgqn079uv759hamal4e,JOWcq4l8,2020-0188,2020-05-21,22:51:39,23:13:54,NA,incomplete,25,color,0,left,Red_Plus_Chess_3.jpg,Red_Circle_Stripes_2.jpg,Green_Triangle_Dots_3.jpg,left,980.295000015758,true,high,false
JOWcq4l8,372ages0j7iqu68t52ou18jnn9hxrx,3s4aw7t80fvqgqn079uv759hamal4e,JOWcq4l8,2020-0188,2020-05-21,22:51:39,23:13:54,NA,incomplete,26,color,1,left,Purple_Triangle_Stripes_1.jpg,Purple_Circle_Dots_4.jpg,Red_Plus_Chess_1.jpg,left,1054.7500000102445,true,high,false
JOWcq4l8,372ages0j7iqu68t52ou18jnn9hxrx,3s4aw7t80fvqgqn079uv759hamal4e,JOWcq4l8,2020-0188,2020-05-21,22:51:39,23:13:54,NA,incomplete,27,color,1,right,Red_Triangle_Stripes_1.jpg,Purple_Star_Chess_1.jpg,Red_Plus_Grid_4.jpg,right,1302.190000016708,true,high,false
JOWcq4l8,372ages0j7iqu68t52ou18jnn9hxrx,3s4aw7t80fvqgqn079uv759hamal4e,JOWcq4l8,2020-0188,2020-05-21,22:51:39,23:13:54,NA,incomplete,28,color,1,left,Red_Triangle_Grid_1.jpg,Red_Plus_Chess_2.jpg,Green_Circle_Stripes_1.jpg,left,1015.1849999674596,true,high,false
JOWcq4l8,372ages0j7iqu68t52ou18jnn9hxrx,3s4aw7t80fvqgqn079uv759hamal4e,JOWcq4l8,2020-0188,2020-05-21,22:51:39,23:13:54,NA,incomplete,29,color,0,right,Blue_Star_Stripes_3.jpg,Purple_Triangle_Grid_3.jpg,Blue_Circle_Chess_1.jpg,left,1091.599999985192,false,high,false
JOWcq4l8,372ages0j7iqu68t52ou18jnn9hxrx,3s4aw7t80fvqgqn079uv759hamal4e,JOWcq4l8,2020-0188,2020-05-21,22:51:39,23:13:54,NA,incomplete,30,number,1,left,Red_Plus_Chess_1.jpg,Green_Star_Dots_1.jpg,Red_Triangle_Grid_2.jpg,right,926.3299999875017,false,high,false
JOWcq4l8,372ages0j7iqu68t52ou18jnn9hxrx,3s4aw7t80fvqgqn079uv759hamal4e,JOWcq4l8,2020-0188,2020-05-21,22:51:39,23:13:54,NA,incomplete,31,number,1,right,Red_Star_Grid_2.jpg,Red_Circle_Chess_4.jpg,Blue_Triangle_Stripes_2.jpg,left,1607.3549999855459,false,high,false
JOWcq4l8,372ages0j7iqu68t52ou18jnn9hxrx,3s4aw7t80fvqgqn079uv759hamal4e,JOWcq4l8,2020-0188,2020-05-21,22:51:39,23:13:54,NA,incomplete,32,number,1,right,Green_Circle_Grid_4.jpg,Green_Plus_Stripes_3.jpg,Blue_Triangle_Dots_4.jpg,right,1274.0099999937229,true,high,false
JOWcq4l8,372ages0j7iqu68t52ou18jnn9hxrx,3s4aw7t80fvqgqn079uv759hamal4e,JOWcq4l8,2020-0188,2020-05-21,22:51:39,23:13:54,NA,incomplete,33,number,0,left,Purple_Circle_Stripes_3.jpg,Red_Star_Grid_3.jpg,Purple_Triangle_Chess_1.jpg,right,1062.4100000131875,false,high,false
JOWcq4l8,372ages0j7iqu68t52ou18jnn9hxrx,3s4aw7t80fvqgqn079uv759hamal4e,JOWcq4l8,2020-0188,2020-05-21,22:51:39,23:13:54,NA,incomplete,34,number,1,left,Purple_Plus_Grid_3.jpg,Green_Triangle_Stripes_3.jpg,Purple_Circle_Chess_2.jpg,right,1083.73000001302,false,high,false
JOWcq4l8,372ages0j7iqu68t52ou18jnn9hxrx,3s4aw7t80fvqgqn079uv759hamal4e,JOWcq4l8,2020-0188,2020-05-21,22:51:39,23:13:54,NA,incomplete,35,number,0,right,Red_Triangle_Dots_2.jpg,Red_Plus_Stripes_4.jpg,Green_Star_Grid_2.jpg,right,1164.7549999761395,true,high,false
JOWcq4l8,372ages0j7iqu68t52ou18jnn9hxrx,3s4aw7t80fvqgqn079uv759hamal4e,JOWcq4l8,2020-0188,2020-05-21,22:51:39,23:13:54,NA,incomplete,36,number,1,left,Blue_Circle_Dots_1.jpg,Green_Triangle_Grid_1.jpg,Blue_Star_Chess_3.jpg,left,858.2049999968149,true,high,false
JOWcq4l8,372ages0j7iqu68t52ou18jnn9hxrx,3s4aw7t80fvqgqn079uv759hamal4e,JOWcq4l8,2020-0188,2020-05-21,22:51:39,23:13:54,NA,incomplete,37,number,1,left,Green_Circle_Stripes_3.jpg,Red_Star_Grid_3.jpg,Green_Plus_Chess_4.jpg,left,1302.2350000101142,true,high,false
JOWcq4l8,372ages0j7iqu68t52ou18jnn9hxrx,3s4aw7t80fvqgqn079uv759hamal4e,JOWcq4l8,2020-0188,2020-05-21,22:51:39,23:13:54,NA,incomplete,38,number,1,left,Blue_Triangle_Grid_2.jpg,Red_Plus_Dots_2.jpg,Blue_Circle_Chess_3.jpg,left,1437.5500000314787,true,high,false
JOWcq4l8,372ages0j7iqu68t52ou18jnn9hxrx,3s4aw7t80fvqgqn079uv759hamal4e,JOWcq4l8,2020-0188,2020-05-21,22:51:39,23:13:54,NA,incomplete,39,number,0,right,Blue_Star_Stripes_2.jpg,Blue_Plus_Chess_4.jpg,Purple_Circle_Grid_2.jpg,right,930.240000016056,true,high,false
JOWcq4l8,372ages0j7iqu68t52ou18jnn9hxrx,3s4aw7t80fvqgqn079uv759hamal4e,JOWcq4l8,2020-0188,2020-05-21,22:51:39,23:13:54,NA,incomplete,40,color,1,right,Green_Triangle_Stripes_1.jpg,Red_Plus_Chess_1.jpg,Green_Star_Dots_2.jpg,left,953.0399999930523,false,high,false
JOWcq4l8,372ages0j7iqu68t52ou18jnn9hxrx,3s4aw7t80fvqgqn079uv759hamal4e,JOWcq4l8,2020-0188,2020-05-21,22:51:39,23:13:54,NA,incomplete,41,color,1,left,Green_Circle_Chess_4.jpg,Green_Triangle_Stripes_2.jpg,Purple_Plus_Dots_4.jpg,right,701.6200000070967,false,high,false
JOWcq4l8,372ages0j7iqu68t52ou18jnn9hxrx,3s4aw7t80fvqgqn079uv759hamal4e,JOWcq4l8,2020-0188,2020-05-21,22:51:39,23:13:54,NA,incomplete,42,color,1,right,Purple_Triangle_Grid_4.jpg,Red_Circle_Chess_4.jpg,Purple_Star_Dots_1.jpg,left,669.4850000203587,false,high,false
JOWcq4l8,372ages0j7iqu68t52ou18jnn9hxrx,3s4aw7t80fvqgqn079uv759hamal4e,JOWcq4l8,2020-0188,2020-05-21,22:51:39,23:13:54,NA,incomplete,43,color,1,right,Blue_Triangle_Stripes_2.jpg,Red_Star_Grid_2.jpg,Blue_Plus_Dots_1.jpg,left,1026.0950000374578,false,high,false
JOWcq4l8,372ages0j7iqu68t52ou18jnn9hxrx,3s4aw7t80fvqgqn079uv759hamal4e,JOWcq4l8,2020-0188,2020-05-21,22:51:39,23:13:54,NA,incomplete,44,color,0,left,Blue_Star_Grid_2.jpg,Blue_Triangle_Stripes_4.jpg,Purple_Circle_Dots_2.jpg,right,1015.7050000270829,false,high,false
JOWcq4l8,372ages0j7iqu68t52ou18jnn9hxrx,3s4aw7t80fvqgqn079uv759hamal4e,JOWcq4l8,2020-0188,2020-05-21,22:51:39,23:13:54,NA,incomplete,45,color,1,left,Blue_Circle_Chess_4.jpg,Blue_Plus_Dots_3.jpg,Green_Triangle_Stripes_4.jpg,right,1206.6350000095554,false,high,false
JOWcq4l8,372ages0j7iqu68t52ou18jnn9hxrx,3s4aw7t80fvqgqn079uv759hamal4e,JOWcq4l8,2020-0188,2020-05-21,22:51:39,23:13:54,NA,incomplete,46,color,1,right,Blue_Circle_Grid_3.jpg,Red_Triangle_Chess_3.jpg,Blue_Star_Stripes_1.jpg,left,1079.135000007227,false,high,false
JOWcq4l8,372ages0j7iqu68t52ou18jnn9hxrx,3s4aw7t80fvqgqn079uv759hamal4e,JOWcq4l8,2020-0188,2020-05-21,22:51:39,23:13:54,NA,incomplete,47,color,1,left,Green_Star_Grid_1.jpg,Green_Circle_Chess_2.jpg,Red_Triangle_Dots_1.jpg,right,838.8500000000931,false,high,false
JOWcq4l8,372ages0j7iqu68t52ou18jnn9hxrx,3s4aw7t80fvqgqn079uv759hamal4e,JOWcq4l8,2020-0188,2020-05-21,22:51:39,23:13:54,NA,incomplete,48,color,0,right,Green_Star_Chess_1.jpg,Blue_Triangle_Stripes_1.jpg,Green_Circle_Grid_2.jpg,left,808.4650000091642,false,high,false
JOWcq4l8,372ages0j7iqu68t52ou18jnn9hxrx,3s4aw7t80fvqgqn079uv759hamal4e,JOWcq4l8,2020-0188,2020-05-21,22:51:39,23:13:54,NA,incomplete,49,color,1,left,Green_Circle_Grid_1.jpg,Green_Triangle_Stripes_3.jpg,Purple_Star_Dots_1.jpg,right,949.9550000182353,false,high,false
JOWcq4l8,372ages0j7iqu68t52ou18jnn9hxrx,3s4aw7t80fvqgqn079uv759hamal4e,JOWcq4l8,2020-0188,2020-05-21,22:51:39,23:13:54,NA,incomplete,50,number,1,right,Green_Star_Stripes_4.jpg,Green_Plus_Grid_1.jpg,Blue_Circle_Dots_4.jpg,left,1057.6000000000931,false,high,false
JOWcq4l8,372ages0j7iqu68t52ou18jnn9hxrx,3s4aw7t80fvqgqn079uv759hamal4e,JOWcq4l8,2020-0188,2020-05-21,22:51:39,23:13:54,NA,incomplete,51,number,1,left,Blue_Plus_Stripes_4.jpg,Red_Triangle_Dots_4.jpg,Blue_Circle_Chess_3.jpg,left,1092.0850000111386,true,high,false
JOWcq4l8,372ages0j7iqu68t52ou18jnn9hxrx,3s4aw7t80fvqgqn079uv759hamal4e,JOWcq4l8,2020-0188,2020-05-21,22:51:39,23:13:54,NA,incomplete,52,number,1,right,Red_Circle_Dots_2.jpg,Red_Plus_Stripes_3.jpg,Blue_Star_Chess_2.jpg,right,1366.100000042934,true,high,false
JOWcq4l8,372ages0j7iqu68t52ou18jnn9hxrx,3s4aw7t80fvqgqn079uv759hamal4e,JOWcq4l8,2020-0188,2020-05-21,22:51:39,23:13:54,NA,incomplete,53,number,1,right,Purple_Plus_Stripes_2.jpg,Purple_Triangle_Chess_1.jpg,Blue_Circle_Dots_2.jpg,right,908.7200000067241,true,high,false
JOWcq4l8,372ages0j7iqu68t52ou18jnn9hxrx,3s4aw7t80fvqgqn079uv759hamal4e,JOWcq4l8,2020-0188,2020-05-21,22:51:39,23:13:54,NA,incomplete,54,number,1,left,Blue_Circle_Grid_4.jpg,Red_Plus_Chess_4.jpg,Blue_Star_Dots_1.jpg,left,1052.28999996325,true,high,false
JOWcq4l8,372ages0j7iqu68t52ou18jnn9hxrx,3s4aw7t80fvqgqn079uv759hamal4e,JOWcq4l8,2020-0188,2020-05-21,22:51:39,23:13:54,NA,incomplete,55,number,1,left,Green_Plus_Chess_3.jpg,Blue_Circle_Grid_3.jpg,Green_Star_Stripes_1.jpg,left,965.6449999893084,true,high,false
JOWcq4l8,372ages0j7iqu68t52ou18jnn9hxrx,3s4aw7t80fvqgqn079uv759hamal4e,JOWcq4l8,2020-0188,2020-05-21,22:51:39,23:13:54,NA,incomplete,56,number,1,left,Purple_Plus_Grid_4.jpg,Green_Circle_Dots_4.jpg,Purple_Triangle_Chess_2.jpg,left,1147.4750000052154,true,high,false
JOWcq4l8,372ages0j7iqu68t52ou18jnn9hxrx,3s4aw7t80fvqgqn079uv759hamal4e,JOWcq4l8,2020-0188,2020-05-21,22:51:39,23:13:54,NA,incomplete,57,number,1,right,Blue_Plus_Stripes_3.jpg,Blue_Triangle_Grid_2.jpg,Green_Star_Chess_3.jpg,right,1117.50499997288,true,high,false
JOWcq4l8,372ages0j7iqu68t52ou18jnn9hxrx,3s4aw7t80fvqgqn079uv759hamal4e,JOWcq4l8,2020-0188,2020-05-21,22:51:39,23:13:54,NA,incomplete,58,number,1,right,Red_Star_Stripes_4.jpg,Red_Circle_Grid_1.jpg,Green_Triangle_Chess_4.jpg,right,999.9400000087917,true,high,false
JOWcq4l8,372ages0j7iqu68t52ou18jnn9hxrx,3s4aw7t80fvqgqn079uv759hamal4e,JOWcq4l8,2020-0188,2020-05-21,22:51:39,23:13:54,NA,incomplete,59,number,1,right,Blue_Plus_Dots_1.jpg,Blue_Circle_Chess_3.jpg,Green_Star_Stripes_1.jpg,right,936.7700000293553,true,high,false
JOWcq4l8,372ages0j7iqu68t52ou18jnn9hxrx,3s4aw7t80fvqgqn079uv759hamal4e,JOWcq4l8,2020-0188,2020-05-21,22:51:39,23:13:54,NA,incomplete,60,color,1,right,Red_Circle_Dots_1.jpg,Blue_Triangle_Stripes_1.jpg,Red_Plus_Chess_4.jpg,left,895.1649999944493,false,high,false
JOWcq4l8,372ages0j7iqu68t52ou18jnn9hxrx,3s4aw7t80fvqgqn079uv759hamal4e,JOWcq4l8,2020-0188,2020-05-21,22:51:39,23:13:54,NA,incomplete,61,color,0,right,Red_Plus_Chess_1.jpg,Green_Star_Dots_1.jpg,Red_Triangle_Stripes_2.jpg,left,1013.9150000177324,false,high,false
JOWcq4l8,372ages0j7iqu68t52ou18jnn9hxrx,3s4aw7t80fvqgqn079uv759hamal4e,JOWcq4l8,2020-0188,2020-05-21,22:51:39,23:13:54,NA,incomplete,62,color,1,left,Blue_Triangle_Stripes_1.jpg,Blue_Star_Dots_3.jpg,Purple_Circle_Chess_1.jpg,left,1924.1650000330992,true,high,false
JOWcq4l8,372ages0j7iqu68t52ou18jnn9hxrx,3s4aw7t80fvqgqn079uv759hamal4e,JOWcq4l8,2020-0188,2020-05-21,22:51:39,23:13:54,NA,incomplete,63,color,1,right,Red_Star_Chess_4.jpg,Green_Plus_Grid_4.jpg,Red_Circle_Stripes_2.jpg,none,0,false,high,false
JOWcq4l8,372ages0j7iqu68t52ou18jnn9hxrx,3s4aw7t80fvqgqn079uv759hamal4e,JOWcq4l8,2020-0188,2020-05-21,22:51:39,23:13:54,NA,incomplete,64,color,1,right,Green_Star_Grid_2.jpg,Purple_Triangle_Stripes_2.jpg,Green_Plus_Dots_4.jpg,right,1447.4950000294484,true,high,false
JOWcq4l8,372ages0j7iqu68t52ou18jnn9hxrx,3s4aw7t80fvqgqn079uv759hamal4e,JOWcq4l8,2020-0188,2020-05-21,22:51:39,23:13:54,NA,incomplete,65,color,0,right,Red_Star_Grid_1.jpg,Purple_Circle_Dots_1.jpg,Red_Plus_Chess_2.jpg,right,826.0599999921396,true,high,false
JOWcq4l8,372ages0j7iqu68t52ou18jnn9hxrx,3s4aw7t80fvqgqn079uv759hamal4e,JOWcq4l8,2020-0188,2020-05-21,22:51:39,23:13:54,NA,incomplete,66,color,1,left,Green_Circle_Stripes_2.jpg,Green_Triangle_Grid_1.jpg,Red_Plus_Chess_2.jpg,left,1514.339999994263,true,high,false
JOWcq4l8,372ages0j7iqu68t52ou18jnn9hxrx,3s4aw7t80fvqgqn079uv759hamal4e,JOWcq4l8,2020-0188,2020-05-21,22:51:39,23:13:54,NA,incomplete,67,color,1,left,Green_Plus_Dots_3.jpg,Green_Triangle_Stripes_4.jpg,Purple_Circle_Grid_3.jpg,left,1541.4849999942817,true,high,false
JOWcq4l8,372ages0j7iqu68t52ou18jnn9hxrx,3s4aw7t80fvqgqn079uv759hamal4e,JOWcq4l8,2020-0188,2020-05-21,22:51:39,23:13:54,NA,incomplete,68,color,1,left,Red_Star_Grid_1.jpg,Red_Plus_Dots_2.jpg,Blue_Circle_Chess_1.jpg,left,1225.2500000176951,true,high,false
JOWcq4l8,372ages0j7iqu68t52ou18jnn9hxrx,3s4aw7t80fvqgqn079uv759hamal4e,JOWcq4l8,2020-0188,2020-05-21,22:51:39,23:13:54,NA,incomplete,69,color,1,right,Red_Star_Grid_4.jpg,Purple_Triangle_Dots_4.jpg,Red_Plus_Chess_2.jpg,left,1080.1249999785796,false,high,false
JOWcq4l8,372ages0j7iqu68t52ou18jnn9hxrx,3s4aw7t80fvqgqn079uv759hamal4e,JOWcq4l8,2020-0188,2020-05-21,22:51:39,23:13:54,NA,incomplete,70,number,0,left,Red_Plus_Grid_1.jpg,Blue_Star_Chess_1.jpg,Red_Triangle_Stripes_3.jpg,right,1360.2099999552593,false,high,false
JOWcq4l8,372ages0j7iqu68t52ou18jnn9hxrx,3s4aw7t80fvqgqn079uv759hamal4e,JOWcq4l8,2020-0188,2020-05-21,22:51:39,23:13:54,NA,incomplete,71,number,1,right,Purple_Plus_Stripes_1.jpg,Purple_Circle_Chess_4.jpg,Red_Star_Grid_1.jpg,right,1127.2899999748915,true,high,false
JOWcq4l8,372ages0j7iqu68t52ou18jnn9hxrx,3s4aw7t80fvqgqn079uv759hamal4e,JOWcq4l8,2020-0188,2020-05-21,22:51:39,23:13:54,NA,incomplete,72,number,1,right,Blue_Circle_Grid_1.jpg,Blue_Triangle_Chess_2.jpg,Green_Plus_Stripes_1.jpg,right,1289.0349999652244,true,high,false
JOWcq4l8,372ages0j7iqu68t52ou18jnn9hxrx,3s4aw7t80fvqgqn079uv759hamal4e,JOWcq4l8,2020-0188,2020-05-21,22:51:39,23:13:54,NA,incomplete,73,number,0,right,Red_Circle_Stripes_1.jpg,Red_Plus_Chess_4.jpg,Blue_Star_Dots_1.jpg,right,1225.1450000330806,true,high,false
JOWcq4l8,372ages0j7iqu68t52ou18jnn9hxrx,3s4aw7t80fvqgqn079uv759hamal4e,JOWcq4l8,2020-0188,2020-05-21,22:51:39,23:13:54,NA,incomplete,74,number,1,right,Purple_Circle_Chess_1.jpg,Purple_Plus_Grid_2.jpg,Blue_Triangle_Dots_1.jpg,right,955.7050000294112,true,high,false
JOWcq4l8,372ages0j7iqu68t52ou18jnn9hxrx,3s4aw7t80fvqgqn079uv759hamal4e,JOWcq4l8,2020-0188,2020-05-21,22:51:39,23:13:54,NA,incomplete,75,number,0,right,Blue_Plus_Dots_2.jpg,Blue_Star_Stripes_3.jpg,Red_Circle_Grid_2.jpg,right,995.0950000202283,true,high,false
JOWcq4l8,372ages0j7iqu68t52ou18jnn9hxrx,3s4aw7t80fvqgqn079uv759hamal4e,JOWcq4l8,2020-0188,2020-05-21,22:51:39,23:13:54,NA,incomplete,76,number,1,left,Red_Triangle_Dots_1.jpg,Green_Circle_Stripes_1.jpg,Red_Plus_Chess_2.jpg,left,910.2549999952316,true,high,false
JOWcq4l8,372ages0j7iqu68t52ou18jnn9hxrx,3s4aw7t80fvqgqn079uv759hamal4e,JOWcq4l8,2020-0188,2020-05-21,22:51:39,23:13:54,NA,incomplete,77,number,1,right,Green_Plus_Chess_3.jpg,Green_Triangle_Stripes_4.jpg,Red_Circle_Dots_3.jpg,right,1049.3699999642558,true,high,false
JOWcq4l8,372ages0j7iqu68t52ou18jnn9hxrx,3s4aw7t80fvqgqn079uv759hamal4e,JOWcq4l8,2020-0188,2020-05-21,22:51:39,23:13:54,NA,incomplete,78,number,1,left,Red_Circle_Chess_2.jpg,Purple_Triangle_Grid_2.jpg,Red_Plus_Stripes_1.jpg,right,953.559999994468,false,high,false
JOWcq4l8,372ages0j7iqu68t52ou18jnn9hxrx,3s4aw7t80fvqgqn079uv759hamal4e,JOWcq4l8,2020-0188,2020-05-21,22:51:39,23:13:54,NA,incomplete,79,number,1,right,Red_Triangle_Grid_4.jpg,Red_Circle_Dots_2.jpg,Green_Star_Chess_4.jpg,right,972.5150000303984,true,high,false
JOWcq4l8,372ages0j7iqu68t52ou18jnn9hxrx,3s4aw7t80fvqgqn079uv759hamal4e,JOWcq4l8,2020-0188,2020-05-21,22:51:39,23:13:54,NA,incomplete,80,color,1,right,Blue_Triangle_Stripes_3.jpg,Green_Circle_Grid_3.jpg,Blue_Star_Chess_2.jpg,right,1226.5349999652244,true,high,false
JOWcq4l8,372ages0j7iqu68t52ou18jnn9hxrx,3s4aw7t80fvqgqn079uv759hamal4e,JOWcq4l8,2020-0188,2020-05-21,22:51:39,23:13:54,NA,incomplete,81,color,1,left,Red_Plus_Chess_4.jpg,Red_Triangle_Grid_1.jpg,Blue_Star_Stripes_4.jpg,right,1461.3450000179,false,high,false
JOWcq4l8,372ages0j7iqu68t52ou18jnn9hxrx,3s4aw7t80fvqgqn079uv759hamal4e,JOWcq4l8,2020-0188,2020-05-21,22:51:39,23:13:54,NA,incomplete,82,color,1,right,Blue_Triangle_Grid_2.jpg,Green_Circle_Chess_2.jpg,Blue_Star_Dots_4.jpg,left,1128.870000015013,false,high,false
JOWcq4l8,372ages0j7iqu68t52ou18jnn9hxrx,3s4aw7t80fvqgqn079uv759hamal4e,JOWcq4l8,2020-0188,2020-05-21,22:51:39,23:13:54,NA,incomplete,83,color,1,right,Red_Triangle_Chess_4.jpg,Green_Star_Grid_4.jpg,Red_Plus_Stripes_3.jpg,right,997.6499999756925,true,high,false
JOWcq4l8,372ages0j7iqu68t52ou18jnn9hxrx,3s4aw7t80fvqgqn079uv759hamal4e,JOWcq4l8,2020-0188,2020-05-21,22:51:39,23:13:54,NA,incomplete,84,color,1,left,Blue_Star_Stripes_3.jpg,Blue_Plus_Grid_1.jpg,Purple_Triangle_Dots_3.jpg,left,947.7900000056252,true,high,false
JOWcq4l8,372ages0j7iqu68t52ou18jnn9hxrx,3s4aw7t80fvqgqn079uv759hamal4e,JOWcq4l8,2020-0188,2020-05-21,22:51:39,23:13:54,NA,incomplete,85,color,1,left,Green_Triangle_Dots_2.jpg,Green_Plus_Stripes_4.jpg,Purple_Star_Chess_2.jpg,right,996.3449999922886,false,high,false
JOWcq4l8,372ages0j7iqu68t52ou18jnn9hxrx,3s4aw7t80fvqgqn079uv759hamal4e,JOWcq4l8,2020-0188,2020-05-21,22:51:39,23:13:54,NA,incomplete,86,color,1,right,Green_Circle_Dots_1.jpg,Red_Triangle_Stripes_1.jpg,Green_Star_Chess_3.jpg,left,897.2749999957159,false,high,false
JOWcq4l8,372ages0j7iqu68t52ou18jnn9hxrx,3s4aw7t80fvqgqn079uv759hamal4e,JOWcq4l8,2020-0188,2020-05-21,22:51:39,23:13:54,NA,incomplete,87,color,1,right,Purple_Plus_Dots_2.jpg,Green_Circle_Stripes_2.jpg,Purple_Triangle_Chess_3.jpg,left,852.5250000529923,false,high,false
JOWcq4l8,372ages0j7iqu68t52ou18jnn9hxrx,3s4aw7t80fvqgqn079uv759hamal4e,JOWcq4l8,2020-0188,2020-05-21,22:51:39,23:13:54,NA,incomplete,88,color,0,right,Blue_Circle_Dots_4.jpg,Purple_Plus_Stripes_4.jpg,Blue_Star_Grid_3.jpg,right,1371.1950000142679,true,high,false
JOWcq4l8,372ages0j7iqu68t52ou18jnn9hxrx,3s4aw7t80fvqgqn079uv759hamal4e,JOWcq4l8,2020-0188,2020-05-21,22:51:39,23:13:54,NA,incomplete,89,color,0,left,Purple_Plus_Chess_1.jpg,Purple_Circle_Dots_4.jpg,Blue_Triangle_Grid_1.jpg,right,1190.3199999942444,false,high,false
JOWcq4l8,372ages0j7iqu68t52ou18jnn9hxrx,3s4aw7t80fvqgqn079uv759hamal4e,JOWcq4l8,2020-0188,2020-05-21,22:51:39,23:13:54,NA,incomplete,90,number,1,right,Red_Circle_Stripes_1.jpg,Red_Star_Grid_2.jpg,Blue_Plus_Dots_1.jpg,left,1023.4500000369735,false,high,false
JOWcq4l8,372ages0j7iqu68t52ou18jnn9hxrx,3s4aw7t80fvqgqn079uv759hamal4e,JOWcq4l8,2020-0188,2020-05-21,22:51:39,23:13:54,NA,incomplete,91,number,0,left,Blue_Star_Grid_2.jpg,Purple_Triangle_Chess_2.jpg,Blue_Circle_Stripes_3.jpg,right,1454.8399999621324,false,high,false
JOWcq4l8,372ages0j7iqu68t52ou18jnn9hxrx,3s4aw7t80fvqgqn079uv759hamal4e,JOWcq4l8,2020-0188,2020-05-21,22:51:39,23:13:54,NA,incomplete,92,number,1,right,Purple_Triangle_Stripes_3.jpg,Purple_Star_Grid_4.jpg,Red_Plus_Chess_3.jpg,right,1714.2400000011548,true,high,false
JOWcq4l8,372ages0j7iqu68t52ou18jnn9hxrx,3s4aw7t80fvqgqn079uv759hamal4e,JOWcq4l8,2020-0188,2020-05-21,22:51:39,23:13:54,NA,incomplete,93,number,1,left,Green_Circle_Stripes_1.jpg,Red_Plus_Chess_1.jpg,Green_Star_Dots_4.jpg,right,1218.4850000194274,false,high,false
JOWcq4l8,372ages0j7iqu68t52ou18jnn9hxrx,3s4aw7t80fvqgqn079uv759hamal4e,JOWcq4l8,2020-0188,2020-05-21,22:51:39,23:13:54,NA,incomplete,94,number,0,right,Purple_Plus_Chess_4.jpg,Purple_Star_Grid_3.jpg,Green_Circle_Dots_4.jpg,left,954.6250000130385,false,high,false
JOWcq4l8,372ages0j7iqu68t52ou18jnn9hxrx,3s4aw7t80fvqgqn079uv759hamal4e,JOWcq4l8,2020-0188,2020-05-21,22:51:39,23:13:54,NA,incomplete,95,number,1,right,Purple_Circle_Stripes_4.jpg,Purple_Plus_Chess_2.jpg,Red_Triangle_Grid_4.jpg,left,1438.060000014957,false,high,false
JOWcq4l8,372ages0j7iqu68t52ou18jnn9hxrx,3s4aw7t80fvqgqn079uv759hamal4e,JOWcq4l8,2020-0188,2020-05-21,22:51:39,23:13:54,NA,incomplete,96,number,1,right,Green_Star_Chess_4.jpg,Green_Plus_Stripes_3.jpg,Purple_Circle_Grid_4.jpg,right,1474.9550000415184,true,high,false
JOWcq4l8,372ages0j7iqu68t52ou18jnn9hxrx,3s4aw7t80fvqgqn079uv759hamal4e,JOWcq4l8,2020-0188,2020-05-21,22:51:39,23:13:54,NA,incomplete,97,number,1,left,Red_Plus_Chess_3.jpg,Blue_Triangle_Stripes_3.jpg,Red_Circle_Dots_1.jpg,right,1426.7199999885634,false,high,false
JOWcq4l8,372ages0j7iqu68t52ou18jnn9hxrx,3s4aw7t80fvqgqn079uv759hamal4e,JOWcq4l8,2020-0188,2020-05-21,22:51:39,23:13:54,NA,incomplete,98,number,1,right,Red_Star_Stripes_3.jpg,Red_Triangle_Grid_4.jpg,Green_Plus_Dots_3.jpg,left,865.4899999964982,false,high,false
JOWcq4l8,372ages0j7iqu68t52ou18jnn9hxrx,3s4aw7t80fvqgqn079uv759hamal4e,JOWcq4l8,2020-0188,2020-05-21,22:51:39,23:13:54,NA,incomplete,99,number,1,right,Green_Plus_Chess_2.jpg,Green_Circle_Stripes_1.jpg,Purple_Triangle_Dots_2.jpg,right,1078.0749999685213,true,high,false
JOWcq4l8,372ages0j7iqu68t52ou18jnn9hxrx,3s4aw7t80fvqgqn079uv759hamal4e,JOWcq4l8,2020-0188,2020-05-21,22:51:39,23:13:54,NA,incomplete,100,color,0,left,Red_Circle_Dots_3.jpg,Red_Plus_Chess_1.jpg,Purple_Star_Stripes_3.jpg,right,1004.2099999845959,false,high,false
JOWcq4l8,372ages0j7iqu68t52ou18jnn9hxrx,3s4aw7t80fvqgqn079uv759hamal4e,JOWcq4l8,2020-0188,2020-05-21,22:51:39,23:13:54,NA,incomplete,101,color,1,right,Purple_Star_Grid_2.jpg,Green_Plus_Stripes_2.jpg,Purple_Triangle_Dots_3.jpg,right,975.9150000172667,true,high,false
JOWcq4l8,372ages0j7iqu68t52ou18jnn9hxrx,3s4aw7t80fvqgqn079uv759hamal4e,JOWcq4l8,2020-0188,2020-05-21,22:51:39,23:13:54,NA,incomplete,102,color,1,left,Blue_Circle_Stripes_2.jpg,Blue_Plus_Chess_4.jpg,Red_Star_Dots_2.jpg,right,1264.0750000136904,false,high,false
JOWcq4l8,372ages0j7iqu68t52ou18jnn9hxrx,3s4aw7t80fvqgqn079uv759hamal4e,JOWcq4l8,2020-0188,2020-05-21,22:51:39,23:13:54,NA,incomplete,103,color,1,right,Green_Plus_Dots_1.jpg,Red_Star_Chess_1.jpg,Green_Circle_Grid_3.jpg,left,1045.6600000034086,false,high,false
JOWcq4l8,372ages0j7iqu68t52ou18jnn9hxrx,3s4aw7t80fvqgqn079uv759hamal4e,JOWcq4l8,2020-0188,2020-05-21,22:51:39,23:13:54,NA,incomplete,104,color,1,right,Purple_Circle_Grid_3.jpg,Green_Triangle_Dots_3.jpg,Purple_Plus_Stripes_1.jpg,right,1261.0400000121444,true,high,false
JOWcq4l8,372ages0j7iqu68t52ou18jnn9hxrx,3s4aw7t80fvqgqn079uv759hamal4e,JOWcq4l8,2020-0188,2020-05-21,22:51:39,23:13:54,NA,incomplete,105,color,1,left,Blue_Circle_Chess_2.jpg,Blue_Triangle_Dots_4.jpg,Red_Plus_Grid_2.jpg,left,900.3399999928661,true,high,false
JOWcq4l8,372ages0j7iqu68t52ou18jnn9hxrx,3s4aw7t80fvqgqn079uv759hamal4e,JOWcq4l8,2020-0188,2020-05-21,22:51:39,23:13:54,NA,incomplete,106,color,1,right,Blue_Star_Grid_1.jpg,Red_Plus_Dots_1.jpg,Blue_Triangle_Stripes_4.jpg,right,800.5550000234507,true,high,false
JOWcq4l8,372ages0j7iqu68t52ou18jnn9hxrx,3s4aw7t80fvqgqn079uv759hamal4e,JOWcq4l8,2020-0188,2020-05-21,22:51:39,23:13:54,NA,incomplete,107,color,1,right,Green_Plus_Dots_2.jpg,Blue_Circle_Stripes_2.jpg,Green_Star_Grid_4.jpg,right,958.7199999950826,true,high,false
JOWcq4l8,372ages0j7iqu68t52ou18jnn9hxrx,3s4aw7t80fvqgqn079uv759hamal4e,JOWcq4l8,2020-0188,2020-05-21,22:51:39,23:13:54,NA,incomplete,108,color,1,left,Purple_Star_Stripes_2.jpg,Purple_Plus_Grid_1.jpg,Red_Circle_Dots_2.jpg,left,1159.2049999744631,true,high,false
JOWcq4l8,372ages0j7iqu68t52ou18jnn9hxrx,3s4aw7t80fvqgqn079uv759hamal4e,JOWcq4l8,2020-0188,2020-05-21,22:51:39,23:13:54,NA,incomplete,109,color,1,right,Red_Plus_Dots_3.jpg,Purple_Circle_Grid_3.jpg,Red_Triangle_Chess_4.jpg,none,0,false,high,false
JOWcq4l8,372ages0j7iqu68t52ou18jnn9hxrx,3s4aw7t80fvqgqn079uv759hamal4e,JOWcq4l8,2020-0188,2020-05-21,22:51:39,23:13:54,NA,incomplete,110,number,1,left,Blue_Triangle_Stripes_3.jpg,Green_Plus_Grid_3.jpg,Blue_Circle_Dots_4.jpg,right,792.5549999927171,false,high,false
JOWcq4l8,372ages0j7iqu68t52ou18jnn9hxrx,3s4aw7t80fvqgqn079uv759hamal4e,JOWcq4l8,2020-0188,2020-05-21,22:51:39,23:13:54,NA,incomplete,111,number,1,right,Purple_Plus_Stripes_3.jpg,Purple_Star_Grid_1.jpg,Red_Triangle_Dots_3.jpg,left,992.0799999963492,false,high,false
JOWcq4l8,372ages0j7iqu68t52ou18jnn9hxrx,3s4aw7t80fvqgqn079uv759hamal4e,JOWcq4l8,2020-0188,2020-05-21,22:51:39,23:13:54,NA,incomplete,112,number,1,left,Blue_Triangle_Chess_3.jpg,Green_Plus_Dots_3.jpg,Blue_Circle_Grid_4.jpg,right,778.4250000258908,false,high,false
JOWcq4l8,372ages0j7iqu68t52ou18jnn9hxrx,3s4aw7t80fvqgqn079uv759hamal4e,JOWcq4l8,2020-0188,2020-05-21,22:51:39,23:13:54,NA,incomplete,113,number,1,left,Red_Plus_Stripes_3.jpg,Purple_Circle_Chess_3.jpg,Red_Triangle_Grid_4.jpg,left,731.5599999856204,true,high,false
JOWcq4l8,372ages0j7iqu68t52ou18jnn9hxrx,3s4aw7t80fvqgqn079uv759hamal4e,JOWcq4l8,2020-0188,2020-05-21,22:51:39,23:13:54,NA,incomplete,114,number,0,right,Green_Plus_Grid_4.jpg,Green_Triangle_Chess_3.jpg,Blue_Star_Stripes_4.jpg,left,706.5200000070035,false,high,false
JOWcq4l8,372ages0j7iqu68t52ou18jnn9hxrx,3s4aw7t80fvqgqn079uv759hamal4e,JOWcq4l8,2020-0188,2020-05-21,22:51:39,23:13:54,NA,incomplete,115,number,1,right,Purple_Plus_Grid_3.jpg,Purple_Triangle_Stripes_1.jpg,Green_Circle_Dots_3.jpg,left,833.7199999950826,false,high,false
JOWcq4l8,372ages0j7iqu68t52ou18jnn9hxrx,3s4aw7t80fvqgqn079uv759hamal4e,JOWcq4l8,2020-0188,2020-05-21,22:51:39,23:13:54,NA,incomplete,116,number,0,left,Purple_Plus_Stripes_4.jpg,Green_Triangle_Dots_4.jpg,Purple_Star_Chess_3.jpg,right,754.6650000149384,false,high,false
JOWcq4l8,372ages0j7iqu68t52ou18jnn9hxrx,3s4aw7t80fvqgqn079uv759hamal4e,JOWcq4l8,2020-0188,2020-05-21,22:51:39,23:13:54,NA,incomplete,117,number,1,left,Green_Plus_Dots_2.jpg,Blue_Star_Grid_2.jpg,Green_Triangle_Stripes_4.jpg,right,907.2649999870919,false,high,false
JOWcq4l8,372ages0j7iqu68t52ou18jnn9hxrx,3s4aw7t80fvqgqn079uv759hamal4e,JOWcq4l8,2020-0188,2020-05-21,22:51:39,23:13:54,NA,incomplete,118,number,1,left,Blue_Star_Stripes_4.jpg,Red_Triangle_Dots_4.jpg,Blue_Plus_Chess_3.jpg,left,910.3899999754503,true,high,false
JOWcq4l8,372ages0j7iqu68t52ou18jnn9hxrx,3s4aw7t80fvqgqn079uv759hamal4e,JOWcq4l8,2020-0188,2020-05-21,22:51:39,23:13:54,NA,incomplete,119,number,0,left,Purple_Triangle_Grid_3.jpg,Red_Circle_Chess_3.jpg,Purple_Plus_Stripes_4.jpg,right,846.8050000374205,false,high,false
JOWcq4l8,372ages0j7iqu68t52ou18jnn9hxrx,3s4aw7t80fvqgqn079uv759hamal4e,JOWcq4l8,2020-0188,2020-05-21,22:51:39,23:13:54,NA,incomplete,120,filling,0,left,Red_Plus_Dots_2.jpg,Blue_Triangle_Dots_3.jpg,Purple_Plus_Chess_4.jpg,NA,NA,NA,high,false
JOWcq4l8,372ages0j7iqu68t52ou18jnn9hxrx,3s4aw7t80fvqgqn079uv759hamal4e,JOWcq4l8,2020-0188,2020-05-21,22:51:39,23:13:54,NA,incomplete,121,filling,1,right,Purple_Triangle_Dots_3.jpg,Green_Triangle_Stripes_4.jpg,Red_Plus_Dots_1.jpg,left,1308.3149999729358,false,high,false
JOWcq4l8,372ages0j7iqu68t52ou18jnn9hxrx,3s4aw7t80fvqgqn079uv759hamal4e,JOWcq4l8,2020-0188,2020-05-21,22:51:39,23:13:54,NA,incomplete,122,filling,1,right,Green_Plus_Stripes_3.jpg,Purple_Plus_Grid_1.jpg,Blue_Circle_Stripes_4.jpg,right,1139.3200000165962,true,high,false
JOWcq4l8,372ages0j7iqu68t52ou18jnn9hxrx,3s4aw7t80fvqgqn079uv759hamal4e,JOWcq4l8,2020-0188,2020-05-21,22:51:39,23:13:54,NA,incomplete,123,filling,1,left,Red_Circle_Grid_3.jpg,Purple_Star_Grid_2.jpg,Green_Circle_Chess_1.jpg,left,1332.6750000123866,true,high,false
JOWcq4l8,372ages0j7iqu68t52ou18jnn9hxrx,3s4aw7t80fvqgqn079uv759hamal4e,JOWcq4l8,2020-0188,2020-05-21,22:51:39,23:13:54,NA,incomplete,124,filling,1,left,Blue_Triangle_Grid_1.jpg,Purple_Circle_Grid_4.jpg,Green_Triangle_Stripes_3.jpg,left,1445.0550000183284,true,high,false
JOWcq4l8,372ages0j7iqu68t52ou18jnn9hxrx,3s4aw7t80fvqgqn079uv759hamal4e,JOWcq4l8,2020-0188,2020-05-21,22:51:39,23:13:54,NA,incomplete,125,filling,0,left,Blue_Plus_Dots_1.jpg,Purple_Star_Dots_2.jpg,Green_Plus_Grid_4.jpg,left,947.7700000279583,true,high,false
JOWcq4l8,372ages0j7iqu68t52ou18jnn9hxrx,3s4aw7t80fvqgqn079uv759hamal4e,JOWcq4l8,2020-0188,2020-05-21,22:51:39,23:13:54,NA,incomplete,126,filling,1,right,Red_Star_Chess_4.jpg,Blue_Star_Stripes_1.jpg,Green_Triangle_Chess_3.jpg,right,1004.7049999702722,true,high,false
JOWcq4l8,372ages0j7iqu68t52ou18jnn9hxrx,3s4aw7t80fvqgqn079uv759hamal4e,JOWcq4l8,2020-0188,2020-05-21,22:51:39,23:13:54,NA,incomplete,127,filling,1,right,Green_Circle_Dots_3.jpg,Blue_Circle_Grid_1.jpg,Purple_Star_Dots_4.jpg,right,1306.7150000133552,true,high,false
JOWcq4l8,372ages0j7iqu68t52ou18jnn9hxrx,3s4aw7t80fvqgqn079uv759hamal4e,JOWcq4l8,2020-0188,2020-05-21,22:51:39,23:13:54,NA,incomplete,128,filling,1,left,Purple_Triangle_Grid_2.jpg,Blue_Plus_Grid_1.jpg,Green_Triangle_Chess_3.jpg,left,1038.5150000220165,true,high,false
JOWcq4l8,372ages0j7iqu68t52ou18jnn9hxrx,3s4aw7t80fvqgqn079uv759hamal4e,JOWcq4l8,2020-0188,2020-05-21,22:51:39,23:13:54,NA,incomplete,129,filling,1,right,Red_Star_Dots_2.jpg,Blue_Star_Grid_3.jpg,Purple_Plus_Dots_1.jpg,right,1354.8049999517389,true,high,false
JOWcq4l8,372ages0j7iqu68t52ou18jnn9hxrx,3s4aw7t80fvqgqn079uv759hamal4e,JOWcq4l8,2020-0188,2020-05-21,22:51:39,23:13:54,NA,incomplete,130,filling,1,left,Blue_Star_Grid_1.jpg,Red_Triangle_Grid_2.jpg,Green_Star_Chess_4.jpg,right,1158.5399999748915,false,high,false
JOWcq4l8,372ages0j7iqu68t52ou18jnn9hxrx,3s4aw7t80fvqgqn079uv759hamal4e,JOWcq4l8,2020-0188,2020-05-21,22:51:39,23:13:54,NA,incomplete,131,filling,1,right,Purple_Plus_Stripes_1.jpg,Blue_Plus_Chess_4.jpg,Green_Star_Stripes_3.jpg,right,1065.5250000418164,true,high,false
JOWcq4l8,372ages0j7iqu68t52ou18jnn9hxrx,3s4aw7t80fvqgqn079uv759hamal4e,JOWcq4l8,2020-0188,2020-05-21,22:51:39,23:13:54,NA,incomplete,132,filling,0,left,Red_Plus_Grid_4.jpg,Green_Star_Grid_1.jpg,Purple_Plus_Chess_2.jpg,left,1100.4799999645911,true,high,false
JOWcq4l8,372ages0j7iqu68t52ou18jnn9hxrx,3s4aw7t80fvqgqn079uv759hamal4e,JOWcq4l8,2020-0188,2020-05-21,22:51:39,23:13:54,NA,incomplete,133,filling,1,right,Red_Plus_Dots_2.jpg,Green_Plus_Stripes_1.jpg,Purple_Triangle_Dots_3.jpg,left,1473.279999976512,false,high,false
JOWcq4l8,372ages0j7iqu68t52ou18jnn9hxrx,3s4aw7t80fvqgqn079uv759hamal4e,JOWcq4l8,2020-0188,2020-05-21,22:51:39,23:13:54,NA,incomplete,134,filling,0,right,Red_Triangle_Grid_3.jpg,Blue_Triangle_Chess_4.jpg,Purple_Circle_Grid_1.jpg,right,1020.4950000043027,true,high,false
JOWcq4l8,372ages0j7iqu68t52ou18jnn9hxrx,3s4aw7t80fvqgqn079uv759hamal4e,JOWcq4l8,2020-0188,2020-05-21,22:51:39,23:13:54,NA,incomplete,135,filling,1,left,Purple_Circle_Grid_2.jpg,Red_Star_Grid_3.jpg,Blue_Circle_Stripes_4.jpg,right,863.6150000384077,false,high,false
JOWcq4l8,372ages0j7iqu68t52ou18jnn9hxrx,3s4aw7t80fvqgqn079uv759hamal4e,JOWcq4l8,2020-0188,2020-05-21,22:51:39,23:13:54,NA,incomplete,136,filling,1,right,Red_Star_Chess_1.jpg,Blue_Star_Stripes_3.jpg,Green_Plus_Chess_2.jpg,left,1125.144999998156,false,high,false
JOWcq4l8,372ages0j7iqu68t52ou18jnn9hxrx,3s4aw7t80fvqgqn079uv759hamal4e,JOWcq4l8,2020-0188,2020-05-21,22:51:39,23:13:54,NA,incomplete,137,filling,1,left,Green_Circle_Dots_4.jpg,Red_Star_Dots_1.jpg,Purple_Circle_Grid_2.jpg,left,1086.4050000091083,true,high,false
JOWcq4l8,372ages0j7iqu68t52ou18jnn9hxrx,3s4aw7t80fvqgqn079uv759hamal4e,JOWcq4l8,2020-0188,2020-05-21,22:51:39,23:13:54,NA,incomplete,138,filling,1,right,Blue_Circle_Chess_2.jpg,Green_Circle_Stripes_4.jpg,Purple_Star_Chess_1.jpg,right,1013.5449999943376,true,high,false
JOWcq4l8,372ages0j7iqu68t52ou18jnn9hxrx,3s4aw7t80fvqgqn079uv759hamal4e,JOWcq4l8,2020-0188,2020-05-21,22:51:39,23:13:54,NA,incomplete,139,filling,0,right,Purple_Circle_Stripes_1.jpg,Blue_Circle_Dots_2.jpg,Red_Star_Stripes_4.jpg,right,1101.265000004787,true,high,false
JOWcq4l8,372ages0j7iqu68t52ou18jnn9hxrx,3s4aw7t80fvqgqn079uv759hamal4e,JOWcq4l8,2020-0188,2020-05-21,22:51:39,23:13:54,NA,incomplete,140,shape,1,left,Red_Plus_Stripes_2.jpg,Blue_Plus_Grid_1.jpg,Purple_Circle_Stripes_3.jpg,left,919.7999999742024,true,high,false
JOWcq4l8,372ages0j7iqu68t52ou18jnn9hxrx,3s4aw7t80fvqgqn079uv759hamal4e,JOWcq4l8,2020-0188,2020-05-21,22:51:39,23:13:54,NA,incomplete,141,shape,1,left,Purple_Star_Stripes_3.jpg,Blue_Star_Grid_4.jpg,Green_Plus_Stripes_2.jpg,right,1113.2499999948777,false,high,false
JOWcq4l8,372ages0j7iqu68t52ou18jnn9hxrx,3s4aw7t80fvqgqn079uv759hamal4e,JOWcq4l8,2020-0188,2020-05-21,22:51:39,23:13:54,NA,incomplete,142,shape,1,left,Purple_Star_Chess_2.jpg,Green_Star_Grid_3.jpg,Blue_Circle_Chess_1.jpg,right,1419.5349999936298,false,high,false
JOWcq4l8,372ages0j7iqu68t52ou18jnn9hxrx,3s4aw7t80fvqgqn079uv759hamal4e,JOWcq4l8,2020-0188,2020-05-21,22:51:39,23:13:54,NA,incomplete,143,shape,1,right,Purple_Plus_Chess_1.jpg,Red_Star_Chess_2.jpg,Green_Plus_Stripes_3.jpg,left,917.3399999854155,false,high,false
JOWcq4l8,372ages0j7iqu68t52ou18jnn9hxrx,3s4aw7t80fvqgqn079uv759hamal4e,JOWcq4l8,2020-0188,2020-05-21,22:51:39,23:13:54,NA,incomplete,144,shape,0,right,Blue_Circle_Chess_2.jpg,Red_Triangle_Chess_1.jpg,Green_Circle_Dots_4.jpg,left,1121.6799999820068,false,high,false
JOWcq4l8,372ages0j7iqu68t52ou18jnn9hxrx,3s4aw7t80fvqgqn079uv759hamal4e,JOWcq4l8,2020-0188,2020-05-21,22:51:39,23:13:54,NA,incomplete,145,shape,1,right,Purple_Triangle_Chess_3.jpg,Red_Star_Chess_4.jpg,Green_Triangle_Stripes_1.jpg,left,891.059999994468,false,high,false
JOWcq4l8,372ages0j7iqu68t52ou18jnn9hxrx,3s4aw7t80fvqgqn079uv759hamal4e,JOWcq4l8,2020-0188,2020-05-21,22:51:39,23:13:54,NA,incomplete,146,shape,1,left,Blue_Plus_Grid_4.jpg,Purple_Plus_Stripes_3.jpg,Red_Star_Grid_2.jpg,right,1045.7049999968149,false,high,false
JOWcq4l8,372ages0j7iqu68t52ou18jnn9hxrx,3s4aw7t80fvqgqn079uv759hamal4e,JOWcq4l8,2020-0188,2020-05-21,22:51:39,23:13:54,NA,incomplete,147,shape,1,right,Blue_Circle_Stripes_4.jpg,Purple_Plus_Stripes_1.jpg,Green_Circle_Grid_2.jpg,left,946.8750000232831,false,high,false
JOWcq4l8,372ages0j7iqu68t52ou18jnn9hxrx,3s4aw7t80fvqgqn079uv759hamal4e,JOWcq4l8,2020-0188,2020-05-21,22:51:39,23:13:54,NA,incomplete,148,shape,1,left,Green_Star_Chess_4.jpg,Purple_Star_Grid_3.jpg,Red_Triangle_Chess_1.jpg,left,1039.2800000263378,true,high,false
JOWcq4l8,372ages0j7iqu68t52ou18jnn9hxrx,3s4aw7t80fvqgqn079uv759hamal4e,JOWcq4l8,2020-0188,2020-05-21,22:51:39,23:13:54,NA,incomplete,149,shape,1,right,Red_Star_Dots_4.jpg,Green_Triangle_Dots_1.jpg,Blue_Star_Stripes_2.jpg,right,932.5549999484792,true,high,false
JOWcq4l8,372ages0j7iqu68t52ou18jnn9hxrx,3s4aw7t80fvqgqn079uv759hamal4e,JOWcq4l8,2020-0188,2020-05-21,22:51:39,23:13:54,NA,incomplete,150,shape,1,left,Green_Plus_Grid_4.jpg,Purple_Plus_Stripes_1.jpg,Blue_Circle_Grid_2.jpg,left,871.8250000383705,true,high,false
JOWcq4l8,372ages0j7iqu68t52ou18jnn9hxrx,3s4aw7t80fvqgqn079uv759hamal4e,JOWcq4l8,2020-0188,2020-05-21,22:51:39,23:13:54,NA,incomplete,151,shape,1,left,Green_Triangle_Chess_2.jpg,Blue_Triangle_Grid_4.jpg,Purple_Plus_Chess_3.jpg,left,1008.67000001017,true,high,false
JOWcq4l8,372ages0j7iqu68t52ou18jnn9hxrx,3s4aw7t80fvqgqn079uv759hamal4e,JOWcq4l8,2020-0188,2020-05-21,22:51:39,23:13:54,NA,incomplete,152,shape,1,right,Purple_Circle_Grid_2.jpg,Red_Plus_Grid_3.jpg,Blue_Circle_Chess_1.jpg,right,907.7099999994971,true,high,false
JOWcq4l8,372ages0j7iqu68t52ou18jnn9hxrx,3s4aw7t80fvqgqn079uv759hamal4e,JOWcq4l8,2020-0188,2020-05-21,22:51:39,23:13:54,NA,incomplete,153,shape,1,right,Blue_Triangle_Stripes_4.jpg,Red_Circle_Stripes_2.jpg,Green_Triangle_Dots_1.jpg,right,821.4049999951385,true,high,false
JOWcq4l8,372ages0j7iqu68t52ou18jnn9hxrx,3s4aw7t80fvqgqn079uv759hamal4e,JOWcq4l8,2020-0188,2020-05-21,22:51:39,23:13:54,NA,incomplete,154,shape,1,left,Blue_Triangle_Chess_2.jpg,Green_Triangle_Dots_1.jpg,Purple_Star_Chess_3.jpg,left,725.3149999887682,true,high,false
JOWcq4l8,372ages0j7iqu68t52ou18jnn9hxrx,3s4aw7t80fvqgqn079uv759hamal4e,JOWcq4l8,2020-0188,2020-05-21,22:51:39,23:13:54,NA,incomplete,155,shape,1,left,Red_Star_Chess_4.jpg,Purple_Star_Grid_3.jpg,Blue_Triangle_Chess_1.jpg,left,914.0749999787658,true,high,false
JOWcq4l8,372ages0j7iqu68t52ou18jnn9hxrx,3s4aw7t80fvqgqn079uv759hamal4e,JOWcq4l8,2020-0188,2020-05-21,22:51:39,23:13:54,NA,incomplete,156,shape,0,left,Red_Plus_Stripes_3.jpg,Green_Plus_Grid_2.jpg,Purple_Circle_Stripes_4.jpg,left,739.449999993667,true,high,false
JOWcq4l8,372ages0j7iqu68t52ou18jnn9hxrx,3s4aw7t80fvqgqn079uv759hamal4e,JOWcq4l8,2020-0188,2020-05-21,22:51:39,23:13:54,NA,incomplete,157,shape,1,left,Red_Triangle_Stripes_3.jpg,Purple_Triangle_Grid_4.jpg,Blue_Plus_Stripes_2.jpg,right,1237.8499999758787,false,high,false
JOWcq4l8,372ages0j7iqu68t52ou18jnn9hxrx,3s4aw7t80fvqgqn079uv759hamal4e,JOWcq4l8,2020-0188,2020-05-21,22:51:39,23:13:54,NA,incomplete,158,shape,1,left,Red_Star_Grid_3.jpg,Blue_Star_Dots_4.jpg,Purple_Plus_Grid_1.jpg,left,750.2500000409782,true,high,false
JOWcq4l8,372ages0j7iqu68t52ou18jnn9hxrx,3s4aw7t80fvqgqn079uv759hamal4e,JOWcq4l8,2020-0188,2020-05-21,22:51:39,23:13:54,NA,incomplete,159,shape,1,left,Purple_Circle_Grid_3.jpg,Red_Circle_Chess_2.jpg,Green_Triangle_Grid_1.jpg,left,1064.9300000513904,true,high,false
JOWcq4l8,372ages0j7iqu68t52ou18jnn9hxrx,3s4aw7t80fvqgqn079uv759hamal4e,JOWcq4l8,2020-0188,2020-05-21,22:51:39,23:13:54,NA,incomplete,160,filling,1,right,Red_Triangle_Dots_2.jpg,Purple_Triangle_Grid_3.jpg,Green_Circle_Dots_1.jpg,left,901.964999968186,false,high,false
JOWcq4l8,372ages0j7iqu68t52ou18jnn9hxrx,3s4aw7t80fvqgqn079uv759hamal4e,JOWcq4l8,2020-0188,2020-05-21,22:51:39,23:13:54,NA,incomplete,161,filling,1,left,Blue_Star_Grid_3.jpg,Purple_Plus_Grid_4.jpg,Green_Star_Chess_2.jpg,right,997.5299999932759,false,high,false
JOWcq4l8,372ages0j7iqu68t52ou18jnn9hxrx,3s4aw7t80fvqgqn079uv759hamal4e,JOWcq4l8,2020-0188,2020-05-21,22:51:39,23:13:54,NA,incomplete,162,filling,1,right,Green_Star_Stripes_3.jpg,Blue_Star_Chess_4.jpg,Red_Triangle_Stripes_1.jpg,right,1215.714999998454,true,high,false
JOWcq4l8,372ages0j7iqu68t52ou18jnn9hxrx,3s4aw7t80fvqgqn079uv759hamal4e,JOWcq4l8,2020-0188,2020-05-21,22:51:39,23:13:54,NA,incomplete,163,filling,1,right,Green_Triangle_Grid_4.jpg,Red_Triangle_Chess_1.jpg,Purple_Circle_Grid_2.jpg,right,1089.739999966696,true,high,false
JOWcq4l8,372ages0j7iqu68t52ou18jnn9hxrx,3s4aw7t80fvqgqn079uv759hamal4e,JOWcq4l8,2020-0188,2020-05-21,22:51:39,23:13:54,NA,incomplete,164,filling,1,left,Green_Star_Chess_4.jpg,Red_Triangle_Chess_3.jpg,Purple_Star_Grid_1.jpg,left,1150.9450000012293,true,high,false
JOWcq4l8,372ages0j7iqu68t52ou18jnn9hxrx,3s4aw7t80fvqgqn079uv759hamal4e,JOWcq4l8,2020-0188,2020-05-21,22:51:39,23:13:54,NA,incomplete,165,filling,0,left,Green_Circle_Stripes_1.jpg,Red_Plus_Stripes_2.jpg,Purple_Circle_Chess_3.jpg,right,1021.1750000016764,false,high,false
JOWcq4l8,372ages0j7iqu68t52ou18jnn9hxrx,3s4aw7t80fvqgqn079uv759hamal4e,JOWcq4l8,2020-0188,2020-05-21,22:51:39,23:13:54,NA,incomplete,166,filling,1,left,Red_Circle_Chess_1.jpg,Blue_Star_Chess_2.jpg,Purple_Circle_Grid_4.jpg,left,1111.414999992121,true,high,false
JOWcq4l8,372ages0j7iqu68t52ou18jnn9hxrx,3s4aw7t80fvqgqn079uv759hamal4e,JOWcq4l8,2020-0188,2020-05-21,22:51:39,23:13:54,NA,incomplete,167,filling,1,right,Purple_Triangle_Dots_3.jpg,Blue_Triangle_Chess_2.jpg,Green_Plus_Dots_4.jpg,right,1007.8750000102445,true,high,false
JOWcq4l8,372ages0j7iqu68t52ou18jnn9hxrx,3s4aw7t80fvqgqn079uv759hamal4e,JOWcq4l8,2020-0188,2020-05-21,22:51:39,23:13:54,NA,incomplete,168,filling,1,right,Green_Triangle_Grid_2.jpg,Purple_Triangle_Stripes_4.jpg,Blue_Circle_Grid_3.jpg,right,1142.859999963548,true,high,false
JOWcq4l8,372ages0j7iqu68t52ou18jnn9hxrx,3s4aw7t80fvqgqn079uv759hamal4e,JOWcq4l8,2020-0188,2020-05-21,22:51:39,23:13:54,NA,incomplete,169,filling,1,left,Blue_Plus_Grid_3.jpg,Green_Triangle_Grid_2.jpg,Purple_Plus_Chess_1.jpg,right,784.6099999733269,false,high,false
JOWcq4l8,372ages0j7iqu68t52ou18jnn9hxrx,3s4aw7t80fvqgqn079uv759hamal4e,JOWcq4l8,2020-0188,2020-05-21,22:51:39,23:13:54,NA,incomplete,170,filling,1,right,Purple_Star_Dots_3.jpg,Blue_Star_Grid_4.jpg,Green_Triangle_Dots_2.jpg,left,924.9849999905564,false,high,false
JOWcq4l8,372ages0j7iqu68t52ou18jnn9hxrx,3s4aw7t80fvqgqn079uv759hamal4e,JOWcq4l8,2020-0188,2020-05-21,22:51:39,23:13:54,NA,incomplete,171,filling,0,right,Red_Star_Dots_2.jpg,Purple_Star_Chess_4.jpg,Blue_Triangle_Dots_1.jpg,right,823.0099999927916,true,high,false
JOWcq4l8,372ages0j7iqu68t52ou18jnn9hxrx,3s4aw7t80fvqgqn079uv759hamal4e,JOWcq4l8,2020-0188,2020-05-21,22:51:39,23:13:54,NA,incomplete,172,filling,1,left,Blue_Triangle_Chess_1.jpg,Red_Star_Chess_2.jpg,Green_Triangle_Stripes_3.jpg,left,941.9350000098348,true,high,false
JOWcq4l8,372ages0j7iqu68t52ou18jnn9hxrx,3s4aw7t80fvqgqn079uv759hamal4e,JOWcq4l8,2020-0188,2020-05-21,22:51:39,23:13:54,NA,incomplete,173,filling,0,right,Green_Star_Dots_2.jpg,Red_Star_Grid_1.jpg,Blue_Circle_Dots_4.jpg,right,1171.3250000029802,true,high,false
JOWcq4l8,372ages0j7iqu68t52ou18jnn9hxrx,3s4aw7t80fvqgqn079uv759hamal4e,JOWcq4l8,2020-0188,2020-05-21,22:51:39,23:13:54,NA,incomplete,174,filling,1,left,Purple_Circle_Stripes_1.jpg,Blue_Triangle_Stripes_2.jpg,Red_Circle_Chess_4.jpg,left,828.4499999717809,true,high,false
JOWcq4l8,372ages0j7iqu68t52ou18jnn9hxrx,3s4aw7t80fvqgqn079uv759hamal4e,JOWcq4l8,2020-0188,2020-05-21,22:51:39,23:13:54,NA,incomplete,175,filling,0,right,Blue_Plus_Stripes_2.jpg,Red_Plus_Chess_1.jpg,Green_Circle_Stripes_3.jpg,right,1157.9200000269338,true,high,false
JOWcq4l8,372ages0j7iqu68t52ou18jnn9hxrx,3s4aw7t80fvqgqn079uv759hamal4e,JOWcq4l8,2020-0188,2020-05-21,22:51:39,23:13:54,NA,incomplete,176,filling,1,right,Green_Plus_Stripes_4.jpg,Red_Plus_Grid_1.jpg,Blue_Circle_Stripes_3.jpg,left,813.9749999972992,false,high,false
JOWcq4l8,372ages0j7iqu68t52ou18jnn9hxrx,3s4aw7t80fvqgqn079uv759hamal4e,JOWcq4l8,2020-0188,2020-05-21,22:51:39,23:13:54,NA,incomplete,177,filling,1,right,Purple_Triangle_Grid_4.jpg,Red_Triangle_Stripes_1.jpg,Green_Circle_Grid_2.jpg,right,859.485000022687,true,high,false
JOWcq4l8,372ages0j7iqu68t52ou18jnn9hxrx,3s4aw7t80fvqgqn079uv759hamal4e,JOWcq4l8,2020-0188,2020-05-21,22:51:39,23:13:54,NA,incomplete,178,filling,1,right,Red_Star_Chess_4.jpg,Blue_Star_Stripes_2.jpg,Purple_Plus_Chess_3.jpg,right,1156.829999992624,true,high,false
JOWcq4l8,372ages0j7iqu68t52ou18jnn9hxrx,3s4aw7t80fvqgqn079uv759hamal4e,JOWcq4l8,2020-0188,2020-05-21,22:51:39,23:13:54,NA,incomplete,179,filling,1,left,Green_Triangle_Stripes_1.jpg,Red_Star_Stripes_4.jpg,Blue_Triangle_Chess_3.jpg,left,872.1050000167452,true,high,false
JOWcq4l8,372ages0j7iqu68t52ou18jnn9hxrx,3s4aw7t80fvqgqn079uv759hamal4e,JOWcq4l8,2020-0188,2020-05-21,22:51:39,23:13:54,NA,incomplete,180,shape,1,left,Blue_Triangle_Dots_4.jpg,Red_Triangle_Grid_1.jpg,Green_Circle_Dots_2.jpg,right,902.074999990873,false,high,false
JOWcq4l8,372ages0j7iqu68t52ou18jnn9hxrx,3s4aw7t80fvqgqn079uv759hamal4e,JOWcq4l8,2020-0188,2020-05-21,22:51:39,23:13:54,NA,incomplete,181,shape,0,left,Green_Star_Stripes_3.jpg,Red_Star_Grid_2.jpg,Purple_Circle_Stripes_4.jpg,left,815.5499999993481,true,high,false
JOWcq4l8,372ages0j7iqu68t52ou18jnn9hxrx,3s4aw7t80fvqgqn079uv759hamal4e,JOWcq4l8,2020-0188,2020-05-21,22:51:39,23:13:54,NA,incomplete,182,shape,1,right,Blue_Circle_Stripes_3.jpg,Purple_Plus_Stripes_1.jpg,Red_Circle_Chess_2.jpg,left,938.6199999717064,false,high,false
JOWcq4l8,372ages0j7iqu68t52ou18jnn9hxrx,3s4aw7t80fvqgqn079uv759hamal4e,JOWcq4l8,2020-0188,2020-05-21,22:51:39,23:13:54,NA,incomplete,183,shape,1,right,Purple_Plus_Chess_4.jpg,Red_Star_Chess_2.jpg,Blue_Plus_Grid_3.jpg,right,638.0400000489317,true,high,false
JOWcq4l8,372ages0j7iqu68t52ou18jnn9hxrx,3s4aw7t80fvqgqn079uv759hamal4e,JOWcq4l8,2020-0188,2020-05-21,22:51:39,23:13:54,NA,incomplete,184,shape,1,right,Blue_Circle_Stripes_3.jpg,Purple_Triangle_Stripes_4.jpg,Red_Circle_Chess_2.jpg,left,1071.5949999867007,false,high,false
JOWcq4l8,372ages0j7iqu68t52ou18jnn9hxrx,3s4aw7t80fvqgqn079uv759hamal4e,JOWcq4l8,2020-0188,2020-05-21,22:51:39,23:13:54,NA,incomplete,185,shape,1,right,Blue_Circle_Stripes_4.jpg,Red_Triangle_Stripes_3.jpg,Purple_Circle_Chess_2.jpg,left,1091.6199999628589,false,high,false
JOWcq4l8,372ages0j7iqu68t52ou18jnn9hxrx,3s4aw7t80fvqgqn079uv759hamal4e,JOWcq4l8,2020-0188,2020-05-21,22:51:39,23:13:54,NA,incomplete,186,shape,1,left,Purple_Star_Dots_3.jpg,Red_Star_Grid_4.jpg,Blue_Circle_Dots_1.jpg,left,687.0449999696575,true,high,false
JOWcq4l8,372ages0j7iqu68t52ou18jnn9hxrx,3s4aw7t80fvqgqn079uv759hamal4e,JOWcq4l8,2020-0188,2020-05-21,22:51:39,23:13:54,NA,incomplete,187,shape,1,left,Red_Plus_Stripes_1.jpg,Green_Plus_Dots_4.jpg,Blue_Circle_Stripes_3.jpg,left,870.1949999667704,true,high,false
JOWcq4l8,372ages0j7iqu68t52ou18jnn9hxrx,3s4aw7t80fvqgqn079uv759hamal4e,JOWcq4l8,2020-0188,2020-05-21,22:51:39,23:13:54,NA,incomplete,188,shape,1,left,Red_Star_Dots_4.jpg,Blue_Star_Chess_3.jpg,Green_Triangle_Dots_2.jpg,left,766.1300000036135,true,high,false
JOWcq4l8,372ages0j7iqu68t52ou18jnn9hxrx,3s4aw7t80fvqgqn079uv759hamal4e,JOWcq4l8,2020-0188,2020-05-21,22:51:39,23:13:54,NA,incomplete,189,shape,1,right,Red_Triangle_Dots_1.jpg,Blue_Plus_Dots_2.jpg,Purple_Triangle_Stripes_3.jpg,right,812.1050000190735,true,high,false
JOWcq4l8,372ages0j7iqu68t52ou18jnn9hxrx,3s4aw7t80fvqgqn079uv759hamal4e,JOWcq4l8,2020-0188,2020-05-21,22:51:39,23:13:54,NA,incomplete,190,shape,0,right,Blue_Triangle_Stripes_4.jpg,Green_Plus_Stripes_3.jpg,Purple_Triangle_Dots_2.jpg,right,949.6200000285171,true,high,false
JOWcq4l8,372ages0j7iqu68t52ou18jnn9hxrx,3s4aw7t80fvqgqn079uv759hamal4e,JOWcq4l8,2020-0188,2020-05-21,22:51:39,23:13:54,NA,incomplete,191,shape,1,right,Green_Circle_Chess_4.jpg,Blue_Star_Chess_2.jpg,Purple_Circle_Grid_1.jpg,left,1188.3799999486655,false,high,false
JOWcq4l8,372ages0j7iqu68t52ou18jnn9hxrx,3s4aw7t80fvqgqn079uv759hamal4e,JOWcq4l8,2020-0188,2020-05-21,22:51:39,23:13:54,NA,incomplete,192,shape,0,left,Purple_Star_Grid_4.jpg,Red_Star_Stripes_3.jpg,Green_Plus_Grid_1.jpg,left,1175.969999982044,true,high,false
JOWcq4l8,372ages0j7iqu68t52ou18jnn9hxrx,3s4aw7t80fvqgqn079uv759hamal4e,JOWcq4l8,2020-0188,2020-05-21,22:51:39,23:13:54,NA,incomplete,193,shape,1,right,Green_Plus_Stripes_3.jpg,Purple_Circle_Stripes_1.jpg,Red_Plus_Grid_4.jpg,right,687.1200000168756,true,high,false
JOWcq4l8,372ages0j7iqu68t52ou18jnn9hxrx,3s4aw7t80fvqgqn079uv759hamal4e,JOWcq4l8,2020-0188,2020-05-21,22:51:39,23:13:54,NA,incomplete,194,shape,1,right,Green_Plus_Grid_2.jpg,Purple_Star_Grid_3.jpg,Red_Plus_Chess_4.jpg,right,823.8550000241958,true,high,false
JOWcq4l8,372ages0j7iqu68t52ou18jnn9hxrx,3s4aw7t80fvqgqn079uv759hamal4e,JOWcq4l8,2020-0188,2020-05-21,22:51:39,23:13:54,NA,incomplete,195,shape,0,right,Purple_Plus_Stripes_1.jpg,Red_Star_Stripes_2.jpg,Blue_Plus_Grid_4.jpg,right,896.999999997206,true,high,false
JOWcq4l8,372ages0j7iqu68t52ou18jnn9hxrx,3s4aw7t80fvqgqn079uv759hamal4e,JOWcq4l8,2020-0188,2020-05-21,22:51:39,23:13:54,NA,incomplete,196,shape,1,right,Blue_Plus_Dots_1.jpg,Green_Star_Dots_2.jpg,Purple_Plus_Stripes_3.jpg,right,1029.564999975264,true,high,false
JOWcq4l8,372ages0j7iqu68t52ou18jnn9hxrx,3s4aw7t80fvqgqn079uv759hamal4e,JOWcq4l8,2020-0188,2020-05-21,22:51:39,23:13:54,NA,incomplete,197,shape,0,right,Purple_Triangle_Dots_4.jpg,Red_Star_Dots_2.jpg,Green_Triangle_Grid_3.jpg,right,1046.2849999894388,true,high,false
JOWcq4l8,372ages0j7iqu68t52ou18jnn9hxrx,3s4aw7t80fvqgqn079uv759hamal4e,JOWcq4l8,2020-0188,2020-05-21,22:51:39,23:13:54,NA,incomplete,198,shape,1,right,Red_Triangle_Chess_1.jpg,Blue_Star_Chess_3.jpg,Purple_Triangle_Stripes_4.jpg,right,914.9249999900348,true,high,false
JOWcq4l8,372ages0j7iqu68t52ou18jnn9hxrx,3s4aw7t80fvqgqn079uv759hamal4e,JOWcq4l8,2020-0188,2020-05-21,22:51:39,23:13:54,NA,incomplete,199,shape,1,right,Green_Triangle_Stripes_3.jpg,Red_Star_Stripes_4.jpg,Purple_Triangle_Grid_1.jpg,left,1117.644999991171,false,high,false
JOWcq4l8,372ages0j7iqu68t52ou18jnn9hxrx,3s4aw7t80fvqgqn079uv759hamal4e,JOWcq4l8,2020-0188,2020-05-21,22:51:39,23:13:54,NA,incomplete,200,filling,1,right,Blue_Star_Stripes_2.jpg,Green_Star_Dots_3.jpg,Red_Triangle_Stripes_4.jpg,left,912.099999957718,false,high,false
JOWcq4l8,372ages0j7iqu68t52ou18jnn9hxrx,3s4aw7t80fvqgqn079uv759hamal4e,JOWcq4l8,2020-0188,2020-05-21,22:51:39,23:13:54,NA,incomplete,201,filling,1,left,Green_Plus_Stripes_3.jpg,Red_Star_Stripes_4.jpg,Blue_Plus_Chess_1.jpg,left,1162.1300000115298,true,high,false
JOWcq4l8,372ages0j7iqu68t52ou18jnn9hxrx,3s4aw7t80fvqgqn079uv759hamal4e,JOWcq4l8,2020-0188,2020-05-21,22:51:39,23:13:54,NA,incomplete,202,filling,0,right,Green_Triangle_Stripes_1.jpg,Purple_Triangle_Grid_3.jpg,Red_Circle_Stripes_4.jpg,right,1146.4150000247173,true,high,false
JOWcq4l8,372ages0j7iqu68t52ou18jnn9hxrx,3s4aw7t80fvqgqn079uv759hamal4e,JOWcq4l8,2020-0188,2020-05-21,22:51:39,23:13:54,NA,incomplete,203,filling,1,left,Red_Triangle_Chess_1.jpg,Purple_Circle_Chess_2.jpg,Blue_Triangle_Grid_4.jpg,left,1113.7800000142306,true,high,false
JOWcq4l8,372ages0j7iqu68t52ou18jnn9hxrx,3s4aw7t80fvqgqn079uv759hamal4e,JOWcq4l8,2020-0188,2020-05-21,22:51:39,23:13:54,NA,incomplete,204,filling,0,right,Red_Circle_Grid_3.jpg,Purple_Circle_Dots_1.jpg,Green_Star_Grid_2.jpg,right,971.3199999532662,true,high,false
JOWcq4l8,372ages0j7iqu68t52ou18jnn9hxrx,3s4aw7t80fvqgqn079uv759hamal4e,JOWcq4l8,2020-0188,2020-05-21,22:51:39,23:13:54,NA,incomplete,205,filling,1,left,Red_Triangle_Stripes_3.jpg,Purple_Plus_Stripes_2.jpg,Green_Triangle_Grid_1.jpg,left,1130.3899999475107,true,high,false
JOWcq4l8,372ages0j7iqu68t52ou18jnn9hxrx,3s4aw7t80fvqgqn079uv759hamal4e,JOWcq4l8,2020-0188,2020-05-21,22:51:39,23:13:54,NA,incomplete,206,filling,1,left,Green_Plus_Dots_1.jpg,Blue_Triangle_Dots_2.jpg,Red_Plus_Grid_4.jpg,right,1229.94499997003,false,high,false
JOWcq4l8,372ages0j7iqu68t52ou18jnn9hxrx,3s4aw7t80fvqgqn079uv759hamal4e,JOWcq4l8,2020-0188,2020-05-21,22:51:39,23:13:54,NA,incomplete,207,filling,1,right,Purple_Triangle_Stripes_4.jpg,Red_Triangle_Dots_2.jpg,Blue_Plus_Stripes_3.jpg,left,1008.3900000317954,false,high,false
JOWcq4l8,372ages0j7iqu68t52ou18jnn9hxrx,3s4aw7t80fvqgqn079uv759hamal4e,JOWcq4l8,2020-0188,2020-05-21,22:51:39,23:13:54,NA,incomplete,208,filling,1,right,Blue_Circle_Grid_3.jpg,Green_Circle_Stripes_2.jpg,Purple_Triangle_Grid_4.jpg,right,974.3649999727495,true,high,false
JOWcq4l8,372ages0j7iqu68t52ou18jnn9hxrx,3s4aw7t80fvqgqn079uv759hamal4e,JOWcq4l8,2020-0188,2020-05-21,22:51:39,23:13:54,NA,incomplete,209,filling,1,right,Purple_Circle_Stripes_4.jpg,Red_Circle_Chess_1.jpg,Blue_Star_Stripes_2.jpg,right,1013.8650000444613,true,high,false
JOWcq4l8,372ages0j7iqu68t52ou18jnn9hxrx,3s4aw7t80fvqgqn079uv759hamal4e,JOWcq4l8,2020-0188,2020-05-21,22:51:39,23:13:54,NA,incomplete,210,filling,0,right,Blue_Circle_Stripes_4.jpg,Red_Circle_Dots_1.jpg,Green_Plus_Stripes_2.jpg,right,834.5550000085495,true,high,false
JOWcq4l8,372ages0j7iqu68t52ou18jnn9hxrx,3s4aw7t80fvqgqn079uv759hamal4e,JOWcq4l8,2020-0188,2020-05-21,22:51:39,23:13:54,NA,incomplete,211,filling,1,right,Blue_Plus_Grid_1.jpg,Red_Plus_Dots_3.jpg,Purple_Circle_Grid_4.jpg,left,1092.8249999997206,false,high,false
JOWcq4l8,372ages0j7iqu68t52ou18jnn9hxrx,3s4aw7t80fvqgqn079uv759hamal4e,JOWcq4l8,2020-0188,2020-05-21,22:51:39,23:13:54,NA,incomplete,212,filling,1,right,Red_Triangle_Stripes_1.jpg,Purple_Triangle_Grid_3.jpg,Green_Plus_Stripes_2.jpg,right,1039.0800000168383,true,high,false
JOWcq4l8,372ages0j7iqu68t52ou18jnn9hxrx,3s4aw7t80fvqgqn079uv759hamal4e,JOWcq4l8,2020-0188,2020-05-21,22:51:39,23:13:54,NA,incomplete,213,filling,1,left,Purple_Triangle_Dots_1.jpg,Red_Circle_Dots_2.jpg,Green_Triangle_Chess_4.jpg,left,1206.9199999677949,true,high,false
JOWcq4l8,372ages0j7iqu68t52ou18jnn9hxrx,3s4aw7t80fvqgqn079uv759hamal4e,JOWcq4l8,2020-0188,2020-05-21,22:51:39,23:13:54,NA,incomplete,214,filling,1,right,Purple_Star_Grid_1.jpg,Green_Star_Chess_4.jpg,Red_Circle_Grid_2.jpg,right,946.8050000141375,true,high,false
JOWcq4l8,372ages0j7iqu68t52ou18jnn9hxrx,3s4aw7t80fvqgqn079uv759hamal4e,JOWcq4l8,2020-0188,2020-05-21,22:51:39,23:13:54,NA,incomplete,215,filling,1,right,Purple_Circle_Dots_3.jpg,Blue_Circle_Grid_4.jpg,Green_Plus_Dots_2.jpg,right,1086.5800000028685,true,high,false
JOWcq4l8,372ages0j7iqu68t52ou18jnn9hxrx,3s4aw7t80fvqgqn079uv759hamal4e,JOWcq4l8,2020-0188,2020-05-21,22:51:39,23:13:54,NA,incomplete,216,filling,1,right,Green_Triangle_Dots_4.jpg,Blue_Triangle_Stripes_1.jpg,Purple_Star_Dots_3.jpg,right,812.3149999883026,true,high,false
JOWcq4l8,372ages0j7iqu68t52ou18jnn9hxrx,3s4aw7t80fvqgqn079uv759hamal4e,JOWcq4l8,2020-0188,2020-05-21,22:51:39,23:13:54,NA,incomplete,217,filling,1,left,Blue_Circle_Grid_1.jpg,Red_Star_Grid_2.jpg,Green_Circle_Stripes_3.jpg,right,889.8750000516884,false,high,false
JOWcq4l8,372ages0j7iqu68t52ou18jnn9hxrx,3s4aw7t80fvqgqn079uv759hamal4e,JOWcq4l8,2020-0188,2020-05-21,22:51:39,23:13:54,NA,incomplete,218,filling,0,left,Blue_Plus_Chess_3.jpg,Green_Circle_Chess_2.jpg,Purple_Plus_Dots_1.jpg,left,1044.1600000485778,true,high,false
JOWcq4l8,372ages0j7iqu68t52ou18jnn9hxrx,3s4aw7t80fvqgqn079uv759hamal4e,JOWcq4l8,2020-0188,2020-05-21,22:51:39,23:13:54,NA,incomplete,219,filling,1,right,Green_Circle_Dots_1.jpg,Red_Circle_Grid_3.jpg,Blue_Star_Dots_4.jpg,right,1132.4850000091828,true,high,false
JOWcq4l8,372ages0j7iqu68t52ou18jnn9hxrx,3s4aw7t80fvqgqn079uv759hamal4e,JOWcq4l8,2020-0188,2020-05-21,22:51:39,23:13:54,NA,incomplete,220,shape,0,left,Purple_Plus_Grid_1.jpg,Green_Plus_Dots_2.jpg,Red_Triangle_Grid_4.jpg,right,1261.3899999996647,false,high,false
JOWcq4l8,372ages0j7iqu68t52ou18jnn9hxrx,3s4aw7t80fvqgqn079uv759hamal4e,JOWcq4l8,2020-0188,2020-05-21,22:51:39,23:13:54,NA,incomplete,221,shape,1,left,Green_Triangle_Dots_2.jpg,Red_Triangle_Chess_4.jpg,Purple_Circle_Dots_1.jpg,right,944.0450000111014,false,high,false
JOWcq4l8,372ages0j7iqu68t52ou18jnn9hxrx,3s4aw7t80fvqgqn079uv759hamal4e,JOWcq4l8,2020-0188,2020-05-21,22:51:39,23:13:54,NA,incomplete,222,shape,1,right,Green_Triangle_Stripes_2.jpg,Purple_Circle_Stripes_1.jpg,Blue_Triangle_Dots_3.jpg,left,890.6049999641255,false,high,false
JOWcq4l8,372ages0j7iqu68t52ou18jnn9hxrx,3s4aw7t80fvqgqn079uv759hamal4e,JOWcq4l8,2020-0188,2020-05-21,22:51:39,23:13:54,NA,incomplete,223,shape,1,right,Blue_Plus_Dots_2.jpg,Green_Star_Dots_4.jpg,Red_Plus_Grid_1.jpg,right,1080.6799999554642,true,high,false
JOWcq4l8,372ages0j7iqu68t52ou18jnn9hxrx,3s4aw7t80fvqgqn079uv759hamal4e,JOWcq4l8,2020-0188,2020-05-21,22:51:39,23:13:54,NA,incomplete,224,shape,1,left,Blue_Plus_Grid_2.jpg,Red_Plus_Dots_1.jpg,Purple_Star_Grid_4.jpg,right,937.2899999725632,false,high,false
JOWcq4l8,372ages0j7iqu68t52ou18jnn9hxrx,3s4aw7t80fvqgqn079uv759hamal4e,JOWcq4l8,2020-0188,2020-05-21,22:51:39,23:13:54,NA,incomplete,225,shape,1,left,Red_Triangle_Chess_2.jpg,Purple_Triangle_Stripes_1.jpg,Green_Plus_Chess_4.jpg,right,1326.6549999825656,false,high,false
JOWcq4l8,372ages0j7iqu68t52ou18jnn9hxrx,3s4aw7t80fvqgqn079uv759hamal4e,JOWcq4l8,2020-0188,2020-05-21,22:51:39,23:13:54,NA,incomplete,226,shape,0,right,Blue_Plus_Dots_4.jpg,Red_Circle_Dots_2.jpg,Purple_Plus_Grid_1.jpg,left,1126.6600000089966,false,high,false
JOWcq4l8,372ages0j7iqu68t52ou18jnn9hxrx,3s4aw7t80fvqgqn079uv759hamal4e,JOWcq4l8,2020-0188,2020-05-21,22:51:39,23:13:54,NA,incomplete,227,shape,1,right,Green_Plus_Dots_2.jpg,Red_Circle_Dots_3.jpg,Purple_Plus_Chess_1.jpg,left,818.2050000177696,false,high,false
JOWcq4l8,372ages0j7iqu68t52ou18jnn9hxrx,3s4aw7t80fvqgqn079uv759hamal4e,JOWcq4l8,2020-0188,2020-05-21,22:51:39,23:13:54,NA,incomplete,228,shape,0,left,Blue_Star_Dots_4.jpg,Purple_Star_Chess_3.jpg,Green_Triangle_Dots_1.jpg,left,1540.0200000149198,true,high,false
JOWcq4l8,372ages0j7iqu68t52ou18jnn9hxrx,3s4aw7t80fvqgqn079uv759hamal4e,JOWcq4l8,2020-0188,2020-05-21,22:51:39,23:13:54,NA,incomplete,229,shape,1,right,Purple_Triangle_Grid_2.jpg,Red_Plus_Grid_3.jpg,Blue_Triangle_Dots_1.jpg,right,1136.7149999714456,true,high,false
JOWcq4l8,372ages0j7iqu68t52ou18jnn9hxrx,3s4aw7t80fvqgqn079uv759hamal4e,JOWcq4l8,2020-0188,2020-05-21,22:51:39,23:13:54,NA,incomplete,230,shape,1,left,Blue_Triangle_Dots_1.jpg,Purple_Triangle_Grid_3.jpg,Green_Plus_Dots_4.jpg,left,997.8149999515153,true,high,false
JOWcq4l8,372ages0j7iqu68t52ou18jnn9hxrx,3s4aw7t80fvqgqn079uv759hamal4e,JOWcq4l8,2020-0188,2020-05-21,22:51:39,23:13:54,NA,incomplete,231,shape,1,left,Red_Triangle_Chess_2.jpg,Purple_Triangle_Grid_4.jpg,Blue_Circle_Chess_3.jpg,left,1187.4100000131875,true,high,false
JOWcq4l8,372ages0j7iqu68t52ou18jnn9hxrx,3s4aw7t80fvqgqn079uv759hamal4e,JOWcq4l8,2020-0188,2020-05-21,22:51:39,23:13:54,NA,incomplete,232,shape,1,right,Green_Circle_Chess_2.jpg,Blue_Star_Chess_1.jpg,Purple_Circle_Grid_3.jpg,right,1190.8699999912642,true,high,false
JOWcq4l8,372ages0j7iqu68t52ou18jnn9hxrx,3s4aw7t80fvqgqn079uv759hamal4e,JOWcq4l8,2020-0188,2020-05-21,22:51:39,23:13:54,NA,incomplete,233,shape,1,left,Green_Star_Stripes_1.jpg,Red_Star_Dots_3.jpg,Blue_Triangle_Stripes_4.jpg,left,1096.4000000385568,true,high,false
JOWcq4l8,372ages0j7iqu68t52ou18jnn9hxrx,3s4aw7t80fvqgqn079uv759hamal4e,JOWcq4l8,2020-0188,2020-05-21,22:51:39,23:13:54,NA,incomplete,234,shape,0,left,Green_Plus_Stripes_3.jpg,Purple_Plus_Dots_2.jpg,Red_Star_Stripes_1.jpg,left,904.5650000334717,true,high,false
JOWcq4l8,372ages0j7iqu68t52ou18jnn9hxrx,3s4aw7t80fvqgqn079uv759hamal4e,JOWcq4l8,2020-0188,2020-05-21,22:51:39,23:13:54,NA,incomplete,235,shape,1,left,Purple_Plus_Stripes_3.jpg,Red_Plus_Dots_4.jpg,Green_Triangle_Stripes_1.jpg,left,823.2149999821559,true,high,false
JOWcq4l8,372ages0j7iqu68t52ou18jnn9hxrx,3s4aw7t80fvqgqn079uv759hamal4e,JOWcq4l8,2020-0188,2020-05-21,22:51:39,23:13:54,NA,incomplete,236,shape,1,right,Purple_Triangle_Chess_1.jpg,Green_Circle_Chess_4.jpg,Red_Triangle_Dots_3.jpg,left,857.6999999932013,false,high,false
JOWcq4l8,372ages0j7iqu68t52ou18jnn9hxrx,3s4aw7t80fvqgqn079uv759hamal4e,JOWcq4l8,2020-0188,2020-05-21,22:51:39,23:13:54,NA,incomplete,237,shape,1,left,Blue_Plus_Chess_1.jpg,Green_Plus_Stripes_2.jpg,Red_Circle_Chess_4.jpg,left,840.5899999779649,true,high,false
JOWcq4l8,372ages0j7iqu68t52ou18jnn9hxrx,3s4aw7t80fvqgqn079uv759hamal4e,JOWcq4l8,2020-0188,2020-05-21,22:51:39,23:13:54,NA,incomplete,238,shape,1,left,Green_Plus_Dots_3.jpg,Purple_Plus_Stripes_2.jpg,Red_Star_Dots_1.jpg,left,642.7699999767356,true,high,false
JOWcq4l8,372ages0j7iqu68t52ou18jnn9hxrx,3s4aw7t80fvqgqn079uv759hamal4e,JOWcq4l8,2020-0188,2020-05-21,22:51:39,23:13:54,NA,incomplete,239,shape,1,right,Blue_Plus_Grid_4.jpg,Purple_Triangle_Grid_1.jpg,Red_Plus_Dots_3.jpg,right,692.3500000266358,true,high,false
JOWcq4l8,372ages0j7iqu68t52ou18jnn9hxrx,3s4aw7t80fvqgqn079uv759hamal4e,JOWcq4l8,2020-0188,2020-05-21,22:51:39,23:13:54,NA,NA,instruction example,color,NA,NA,Green_Plus_Grid_2.jpg,Green_Triangle_Chess_4.jpg,Red_Star_Dots_2.jpg,NA,NA,NA,NA,undefined
JOWcq4l8,372ages0j7iqu68t52ou18jnn9hxrx,3s4aw7t80fvqgqn079uv759hamal4e,JOWcq4l8,2020-0188,2020-05-21,22:51:39,23:13:54,NA,NA,instruction example,color,NA,NA,Purple_Plus_Dots_2.jpg,Red_Star_Grid_2.jpg,Purple_Triangle_Stripes_4.jpg,NA,NA,NA,NA,undefined
JOWcq4l8,372ages0j7iqu68t52ou18jnn9hxrx,3s4aw7t80fvqgqn079uv759hamal4e,JOWcq4l8,2020-0188,2020-05-21,22:51:39,23:13:54,NA,NA,instruction example,color,NA,NA,Purple_Plus_Grid_2.jpg,Green_Star_Grid_3.jpg,Blue_Plus_Dots_4.jpg,NA,NA,NA,NA,undefined
JOWcq4l8,372ages0j7iqu68t52ou18jnn9hxrx,3s4aw7t80fvqgqn079uv759hamal4e,JOWcq4l8,2020-0188,2020-05-21,22:51:39,23:13:54,NA,NA,instruction example,color,NA,NA,Green_Star_Grid_1.jpg,Purple_Star_Chess_4.jpg,Red_Triangle_Grid_3.jpg,NA,NA,NA,NA,undefined
JOWcq4l8,372ages0j7iqu68t52ou18jnn9hxrx,3s4aw7t80fvqgqn079uv759hamal4e,JOWcq4l8,2020-0188,2020-05-21,22:51:39,23:13:54,1290943.2199999574,1336709.7300000023,NA,NA,NA,NA,NA,NA,NA,NA,NA,NA,NA,undefined
