workerId,hitId,assignmentId,subject,studyid,exp_date,exp_start,exp_end,time_start,time_end,trial,type,reward_validity,answer,image_top,image_left,image_right,response,response_time,response_acc,volatility,practice
IZzEXVCb,3ncn4n1h2juy25d07zfv3rnlauxnbw,3snlul3wo80pxohfmfldk97c7xslur,IZzEXVCb,2020-0188,2020-11-19,11:50:59,12:06:10,NA,incomplete,0,filling,0,right,Blue_Triangle_Chess_2.jpg,Blue_Circle_Grid_1.jpg,Purple_Plus_Chess_3.jpg,none,0,false,NA,true
IZzEXVCb,3ncn4n1h2juy25d07zfv3rnlauxnbw,3snlul3wo80pxohfmfldk97c7xslur,IZzEXVCb,2020-0188,2020-11-19,11:50:59,12:06:10,NA,incomplete,1,filling,1,right,Blue_Circle_Stripes_3.jpg,Blue_Triangle_Dots_1.jpg,Purple_Star_Stripes_4.jpg,right,1149.184999987483,true,NA,true
IZzEXVCb,3ncn4n1h2juy25d07zfv3rnlauxnbw,3snlul3wo80pxohfmfldk97c7xslur,IZzEXVCb,2020-0188,2020-11-19,11:50:59,12:06:10,NA,incomplete,2,filling,0,right,Green_Triangle_Stripes_3.jpg,Green_Circle_Grid_4.jpg,Purple_Plus_Stripes_2.jpg,right,1104.2400002479553,true,NA,true
IZzEXVCb,3ncn4n1h2juy25d07zfv3rnlauxnbw,3snlul3wo80pxohfmfldk97c7xslur,IZzEXVCb,2020-0188,2020-11-19,11:50:59,12:06:10,NA,incomplete,3,filling,1,left,Green_Plus_Chess_4.jpg,Red_Circle_Chess_3.jpg,Green_Triangle_Grid_2.jpg,left,1234.6749999560416,true,NA,true
IZzEXVCb,3ncn4n1h2juy25d07zfv3rnlauxnbw,3snlul3wo80pxohfmfldk97c7xslur,IZzEXVCb,2020-0188,2020-11-19,11:50:59,12:06:10,NA,incomplete,4,filling,1,left,Purple_Circle_Dots_3.jpg,Red_Plus_Dots_1.jpg,Purple_Triangle_Chess_4.jpg,left,1261.9400001130998,true,NA,true
IZzEXVCb,3ncn4n1h2juy25d07zfv3rnlauxnbw,3snlul3wo80pxohfmfldk97c7xslur,IZzEXVCb,2020-0188,2020-11-19,11:50:59,12:06:10,NA,incomplete,5,filling,1,right,Green_Plus_Stripes_3.jpg,Green_Circle_Chess_1.jpg,Blue_Triangle_Stripes_2.jpg,right,875.5000000819564,true,NA,true
IZzEXVCb,3ncn4n1h2juy25d07zfv3rnlauxnbw,3snlul3wo80pxohfmfldk97c7xslur,IZzEXVCb,2020-0188,2020-11-19,11:50:59,12:06:10,NA,incomplete,6,filling,1,left,Blue_Star_Grid_1.jpg,Red_Circle_Grid_4.jpg,Blue_Plus_Stripes_3.jpg,left,1310.6350000016391,true,NA,true
IZzEXVCb,3ncn4n1h2juy25d07zfv3rnlauxnbw,3snlul3wo80pxohfmfldk97c7xslur,IZzEXVCb,2020-0188,2020-11-19,11:50:59,12:06:10,NA,incomplete,7,filling,1,left,Purple_Circle_Chess_4.jpg,Red_Star_Chess_3.jpg,Purple_Triangle_Dots_1.jpg,left,1152.9149999842048,true,NA,true
IZzEXVCb,3ncn4n1h2juy25d07zfv3rnlauxnbw,3snlul3wo80pxohfmfldk97c7xslur,IZzEXVCb,2020-0188,2020-11-19,11:50:59,12:06:10,NA,incomplete,8,filling,0,left,Blue_Star_Chess_3.jpg,Green_Triangle_Chess_1.jpg,Blue_Plus_Stripes_2.jpg,left,1045.0549996457994,true,NA,true
IZzEXVCb,3ncn4n1h2juy25d07zfv3rnlauxnbw,3snlul3wo80pxohfmfldk97c7xslur,IZzEXVCb,2020-0188,2020-11-19,11:50:59,12:06:10,NA,incomplete,9,filling,1,right,Purple_Plus_Grid_4.jpg,Purple_Triangle_Chess_1.jpg,Red_Star_Grid_3.jpg,right,1270.3350000083447,true,NA,true
IZzEXVCb,3ncn4n1h2juy25d07zfv3rnlauxnbw,3snlul3wo80pxohfmfldk97c7xslur,IZzEXVCb,2020-0188,2020-11-19,11:50:59,12:06:10,NA,incomplete,10,filling,0,right,Red_Circle_Chess_2.jpg,Red_Plus_Dots_3.jpg,Blue_Triangle_Chess_4.jpg,right,849.1499996744096,true,NA,true
IZzEXVCb,3ncn4n1h2juy25d07zfv3rnlauxnbw,3snlul3wo80pxohfmfldk97c7xslur,IZzEXVCb,2020-0188,2020-11-19,11:50:59,12:06:10,NA,incomplete,11,filling,1,right,Blue_Plus_Dots_4.jpg,Blue_Circle_Stripes_2.jpg,Purple_Triangle_Dots_1.jpg,right,909.0149998664856,true,NA,true
IZzEXVCb,3ncn4n1h2juy25d07zfv3rnlauxnbw,3snlul3wo80pxohfmfldk97c7xslur,IZzEXVCb,2020-0188,2020-11-19,11:50:59,12:06:10,NA,incomplete,12,filling,1,right,Green_Star_Dots_1.jpg,Green_Triangle_Grid_3.jpg,Purple_Circle_Dots_4.jpg,left,1267.459999769926,false,NA,true
IZzEXVCb,3ncn4n1h2juy25d07zfv3rnlauxnbw,3snlul3wo80pxohfmfldk97c7xslur,IZzEXVCb,2020-0188,2020-11-19,11:50:59,12:06:10,NA,incomplete,13,filling,1,right,Green_Triangle_Grid_4.jpg,Green_Circle_Chess_2.jpg,Purple_Plus_Grid_1.jpg,left,1153.595000039786,false,NA,true
IZzEXVCb,3ncn4n1h2juy25d07zfv3rnlauxnbw,3snlul3wo80pxohfmfldk97c7xslur,IZzEXVCb,2020-0188,2020-11-19,11:50:59,12:06:10,NA,incomplete,14,filling,1,right,Purple_Circle_Chess_3.jpg,Purple_Triangle_Stripes_2.jpg,Blue_Plus_Chess_1.jpg,right,1235.3099999018013,true,NA,true
IZzEXVCb,3ncn4n1h2juy25d07zfv3rnlauxnbw,3snlul3wo80pxohfmfldk97c7xslur,IZzEXVCb,2020-0188,2020-11-19,11:50:59,12:06:10,NA,incomplete,15,filling,1,left,Red_Star_Stripes_2.jpg,Purple_Triangle_Stripes_3.jpg,Red_Circle_Grid_4.jpg,left,1370.4349999316037,true,NA,true
IZzEXVCb,3ncn4n1h2juy25d07zfv3rnlauxnbw,3snlul3wo80pxohfmfldk97c7xslur,IZzEXVCb,2020-0188,2020-11-19,11:50:59,12:06:10,NA,incomplete,16,filling,1,right,Blue_Star_Chess_1.jpg,Blue_Plus_Stripes_3.jpg,Purple_Circle_Chess_4.jpg,right,903.7649999372661,true,NA,true
IZzEXVCb,3ncn4n1h2juy25d07zfv3rnlauxnbw,3snlul3wo80pxohfmfldk97c7xslur,IZzEXVCb,2020-0188,2020-11-19,11:50:59,12:06:10,NA,incomplete,17,filling,1,left,Red_Circle_Dots_4.jpg,Blue_Triangle_Dots_1.jpg,Red_Star_Chess_3.jpg,left,935.8850000426173,true,NA,true
IZzEXVCb,3ncn4n1h2juy25d07zfv3rnlauxnbw,3snlul3wo80pxohfmfldk97c7xslur,IZzEXVCb,2020-0188,2020-11-19,11:50:59,12:06:10,NA,incomplete,18,filling,0,left,Red_Star_Grid_4.jpg,Green_Circle_Grid_1.jpg,Red_Plus_Dots_2.jpg,left,1085.624999832362,true,NA,true
IZzEXVCb,3ncn4n1h2juy25d07zfv3rnlauxnbw,3snlul3wo80pxohfmfldk97c7xslur,IZzEXVCb,2020-0188,2020-11-19,11:50:59,12:06:10,NA,incomplete,19,filling,0,right,Purple_Plus_Chess_3.jpg,Purple_Circle_Dots_2.jpg,Green_Star_Chess_4.jpg,right,869.3800000473857,true,NA,true
IZzEXVCb,3ncn4n1h2juy25d07zfv3rnlauxnbw,3snlul3wo80pxohfmfldk97c7xslur,IZzEXVCb,2020-0188,2020-11-19,11:50:59,12:06:10,NA,incomplete,20,color,1,left,Green_Circle_Dots_4.jpg,Green_Triangle_Stripes_2.jpg,Purple_Plus_Dots_1.jpg,left,1405.9049999341369,true,NA,true
IZzEXVCb,3ncn4n1h2juy25d07zfv3rnlauxnbw,3snlul3wo80pxohfmfldk97c7xslur,IZzEXVCb,2020-0188,2020-11-19,11:50:59,12:06:10,NA,incomplete,21,color,1,left,Blue_Plus_Dots_3.jpg,Blue_Star_Grid_2.jpg,Green_Circle_Dots_4.jpg,left,688.910000026226,true,NA,true
IZzEXVCb,3ncn4n1h2juy25d07zfv3rnlauxnbw,3snlul3wo80pxohfmfldk97c7xslur,IZzEXVCb,2020-0188,2020-11-19,11:50:59,12:06:10,NA,incomplete,22,color,1,right,Green_Circle_Chess_4.jpg,Purple_Star_Chess_3.jpg,Green_Plus_Stripes_2.jpg,right,613.52499993518,true,NA,true
IZzEXVCb,3ncn4n1h2juy25d07zfv3rnlauxnbw,3snlul3wo80pxohfmfldk97c7xslur,IZzEXVCb,2020-0188,2020-11-19,11:50:59,12:06:10,NA,incomplete,23,color,1,right,Green_Plus_Stripes_2.jpg,Purple_Triangle_Stripes_1.jpg,Green_Circle_Chess_4.jpg,right,552.5299999862909,true,NA,true
IZzEXVCb,3ncn4n1h2juy25d07zfv3rnlauxnbw,3snlul3wo80pxohfmfldk97c7xslur,IZzEXVCb,2020-0188,2020-11-19,11:50:59,12:06:10,NA,incomplete,24,color,1,right,Red_Star_Dots_3.jpg,Purple_Plus_Dots_1.jpg,Red_Circle_Stripes_4.jpg,right,629.0299999527633,true,NA,true
IZzEXVCb,3ncn4n1h2juy25d07zfv3rnlauxnbw,3snlul3wo80pxohfmfldk97c7xslur,IZzEXVCb,2020-0188,2020-11-19,11:50:59,12:06:10,NA,incomplete,25,color,1,left,Blue_Triangle_Stripes_1.jpg,Blue_Plus_Chess_2.jpg,Purple_Circle_Stripes_4.jpg,left,594.0700001083314,true,NA,true
IZzEXVCb,3ncn4n1h2juy25d07zfv3rnlauxnbw,3snlul3wo80pxohfmfldk97c7xslur,IZzEXVCb,2020-0188,2020-11-19,11:50:59,12:06:10,NA,incomplete,26,color,1,left,Green_Circle_Chess_1.jpg,Green_Plus_Dots_3.jpg,Blue_Triangle_Chess_2.jpg,left,668.8250000588596,true,NA,true
IZzEXVCb,3ncn4n1h2juy25d07zfv3rnlauxnbw,3snlul3wo80pxohfmfldk97c7xslur,IZzEXVCb,2020-0188,2020-11-19,11:50:59,12:06:10,NA,incomplete,27,color,1,left,Blue_Triangle_Chess_1.jpg,Blue_Star_Stripes_2.jpg,Purple_Circle_Chess_4.jpg,left,587.0000002905726,true,NA,true
IZzEXVCb,3ncn4n1h2juy25d07zfv3rnlauxnbw,3snlul3wo80pxohfmfldk97c7xslur,IZzEXVCb,2020-0188,2020-11-19,11:50:59,12:06:10,NA,incomplete,28,color,1,left,Green_Circle_Grid_3.jpg,Green_Plus_Stripes_2.jpg,Purple_Triangle_Grid_1.jpg,left,536.4800002425909,true,NA,true
IZzEXVCb,3ncn4n1h2juy25d07zfv3rnlauxnbw,3snlul3wo80pxohfmfldk97c7xslur,IZzEXVCb,2020-0188,2020-11-19,11:50:59,12:06:10,NA,incomplete,29,color,1,right,Green_Triangle_Dots_3.jpg,Red_Circle_Dots_1.jpg,Green_Star_Chess_4.jpg,right,565.330000128597,true,NA,true
IZzEXVCb,3ncn4n1h2juy25d07zfv3rnlauxnbw,3snlul3wo80pxohfmfldk97c7xslur,IZzEXVCb,2020-0188,2020-11-19,11:50:59,12:06:10,NA,incomplete,30,color,1,right,Blue_Circle_Grid_2.jpg,Purple_Plus_Grid_3.jpg,Blue_Triangle_Stripes_4.jpg,right,530.8249997906387,true,NA,true
IZzEXVCb,3ncn4n1h2juy25d07zfv3rnlauxnbw,3snlul3wo80pxohfmfldk97c7xslur,IZzEXVCb,2020-0188,2020-11-19,11:50:59,12:06:10,NA,incomplete,31,color,1,right,Blue_Triangle_Dots_1.jpg,Red_Plus_Dots_3.jpg,Blue_Circle_Grid_2.jpg,right,485.1350001990795,true,NA,true
IZzEXVCb,3ncn4n1h2juy25d07zfv3rnlauxnbw,3snlul3wo80pxohfmfldk97c7xslur,IZzEXVCb,2020-0188,2020-11-19,11:50:59,12:06:10,NA,incomplete,32,color,1,left,Blue_Plus_Dots_2.jpg,Blue_Triangle_Stripes_4.jpg,Green_Circle_Dots_3.jpg,left,539.7950001060963,true,NA,true
IZzEXVCb,3ncn4n1h2juy25d07zfv3rnlauxnbw,3snlul3wo80pxohfmfldk97c7xslur,IZzEXVCb,2020-0188,2020-11-19,11:50:59,12:06:10,NA,incomplete,33,color,1,left,Purple_Star_Grid_1.jpg,Purple_Triangle_Chess_2.jpg,Green_Circle_Grid_4.jpg,left,609.8150000907481,true,NA,true
IZzEXVCb,3ncn4n1h2juy25d07zfv3rnlauxnbw,3snlul3wo80pxohfmfldk97c7xslur,IZzEXVCb,2020-0188,2020-11-19,11:50:59,12:06:10,NA,incomplete,34,color,1,right,Blue_Circle_Grid_4.jpg,Red_Star_Grid_3.jpg,Blue_Plus_Stripes_2.jpg,right,491.59500002861023,true,NA,true
IZzEXVCb,3ncn4n1h2juy25d07zfv3rnlauxnbw,3snlul3wo80pxohfmfldk97c7xslur,IZzEXVCb,2020-0188,2020-11-19,11:50:59,12:06:10,NA,incomplete,35,color,0,right,Green_Plus_Dots_1.jpg,Purple_Circle_Dots_4.jpg,Green_Triangle_Stripes_3.jpg,right,581.6899999044836,true,NA,true
IZzEXVCb,3ncn4n1h2juy25d07zfv3rnlauxnbw,3snlul3wo80pxohfmfldk97c7xslur,IZzEXVCb,2020-0188,2020-11-19,11:50:59,12:06:10,NA,incomplete,36,color,1,right,Red_Plus_Grid_4.jpg,Blue_Circle_Grid_3.jpg,Red_Triangle_Dots_2.jpg,right,585.1449999026954,true,NA,true
IZzEXVCb,3ncn4n1h2juy25d07zfv3rnlauxnbw,3snlul3wo80pxohfmfldk97c7xslur,IZzEXVCb,2020-0188,2020-11-19,11:50:59,12:06:10,NA,incomplete,37,color,1,right,Green_Star_Dots_1.jpg,Purple_Circle_Dots_4.jpg,Green_Plus_Stripes_2.jpg,right,590.0250002741814,true,NA,true
IZzEXVCb,3ncn4n1h2juy25d07zfv3rnlauxnbw,3snlul3wo80pxohfmfldk97c7xslur,IZzEXVCb,2020-0188,2020-11-19,11:50:59,12:06:10,NA,incomplete,38,color,1,left,Purple_Star_Grid_2.jpg,Purple_Circle_Stripes_1.jpg,Blue_Plus_Grid_4.jpg,left,552.0549998618662,true,NA,true
IZzEXVCb,3ncn4n1h2juy25d07zfv3rnlauxnbw,3snlul3wo80pxohfmfldk97c7xslur,IZzEXVCb,2020-0188,2020-11-19,11:50:59,12:06:10,NA,incomplete,39,color,0,left,Blue_Circle_Stripes_4.jpg,Blue_Plus_Chess_2.jpg,Green_Star_Stripes_3.jpg,left,689.3299999646842,true,NA,true
IZzEXVCb,3ncn4n1h2juy25d07zfv3rnlauxnbw,3snlul3wo80pxohfmfldk97c7xslur,IZzEXVCb,2020-0188,2020-11-19,11:50:59,12:06:10,NA,incomplete,0,filling,0,right,Green_Plus_Dots_3.jpg,Green_Triangle_Grid_1.jpg,Purple_Star_Dots_2.jpg,left,793.975000269711,false,high,false
IZzEXVCb,3ncn4n1h2juy25d07zfv3rnlauxnbw,3snlul3wo80pxohfmfldk97c7xslur,IZzEXVCb,2020-0188,2020-11-19,11:50:59,12:06:10,NA,incomplete,1,filling,1,right,Red_Star_Stripes_4.jpg,Red_Triangle_Chess_2.jpg,Purple_Plus_Stripes_1.jpg,left,485.8299996703863,false,high,false
IZzEXVCb,3ncn4n1h2juy25d07zfv3rnlauxnbw,3snlul3wo80pxohfmfldk97c7xslur,IZzEXVCb,2020-0188,2020-11-19,11:50:59,12:06:10,NA,incomplete,2,filling,1,right,Green_Plus_Grid_2.jpg,Green_Triangle_Dots_4.jpg,Blue_Circle_Grid_1.jpg,left,488.66500006988645,false,high,false
IZzEXVCb,3ncn4n1h2juy25d07zfv3rnlauxnbw,3snlul3wo80pxohfmfldk97c7xslur,IZzEXVCb,2020-0188,2020-11-19,11:50:59,12:06:10,NA,incomplete,3,filling,1,left,Red_Star_Grid_2.jpg,Blue_Circle_Grid_3.jpg,Red_Plus_Dots_4.jpg,left,1053.0649996362627,true,high,false
IZzEXVCb,3ncn4n1h2juy25d07zfv3rnlauxnbw,3snlul3wo80pxohfmfldk97c7xslur,IZzEXVCb,2020-0188,2020-11-19,11:50:59,12:06:10,NA,incomplete,4,filling,1,right,Red_Triangle_Chess_3.jpg,Red_Star_Stripes_2.jpg,Purple_Circle_Chess_4.jpg,right,800.564999692142,true,high,false
IZzEXVCb,3ncn4n1h2juy25d07zfv3rnlauxnbw,3snlul3wo80pxohfmfldk97c7xslur,IZzEXVCb,2020-0188,2020-11-19,11:50:59,12:06:10,NA,incomplete,5,filling,0,right,Purple_Circle_Dots_1.jpg,Purple_Plus_Stripes_4.jpg,Blue_Triangle_Dots_2.jpg,right,818.775000050664,true,high,false
IZzEXVCb,3ncn4n1h2juy25d07zfv3rnlauxnbw,3snlul3wo80pxohfmfldk97c7xslur,IZzEXVCb,2020-0188,2020-11-19,11:50:59,12:06:10,NA,incomplete,6,filling,1,right,Blue_Star_Chess_3.jpg,Blue_Plus_Grid_4.jpg,Green_Circle_Chess_2.jpg,right,991.4450002834201,true,high,false
IZzEXVCb,3ncn4n1h2juy25d07zfv3rnlauxnbw,3snlul3wo80pxohfmfldk97c7xslur,IZzEXVCb,2020-0188,2020-11-19,11:50:59,12:06:10,NA,incomplete,7,filling,1,left,Red_Star_Dots_3.jpg,Blue_Plus_Dots_1.jpg,Red_Circle_Grid_2.jpg,left,881.5550003200769,true,high,false
IZzEXVCb,3ncn4n1h2juy25d07zfv3rnlauxnbw,3snlul3wo80pxohfmfldk97c7xslur,IZzEXVCb,2020-0188,2020-11-19,11:50:59,12:06:10,NA,incomplete,8,filling,0,left,Red_Triangle_Grid_2.jpg,Purple_Star_Grid_1.jpg,Red_Plus_Chess_3.jpg,left,791.7749998159707,true,high,false
IZzEXVCb,3ncn4n1h2juy25d07zfv3rnlauxnbw,3snlul3wo80pxohfmfldk97c7xslur,IZzEXVCb,2020-0188,2020-11-19,11:50:59,12:06:10,NA,incomplete,9,filling,1,right,Red_Star_Stripes_2.jpg,Red_Triangle_Dots_4.jpg,Blue_Plus_Stripes_3.jpg,right,852.685000281781,true,high,false
IZzEXVCb,3ncn4n1h2juy25d07zfv3rnlauxnbw,3snlul3wo80pxohfmfldk97c7xslur,IZzEXVCb,2020-0188,2020-11-19,11:50:59,12:06:10,NA,incomplete,10,color,1,left,Blue_Triangle_Dots_4.jpg,Blue_Plus_Stripes_3.jpg,Purple_Circle_Dots_2.jpg,right,684.3900000676513,false,high,false
IZzEXVCb,3ncn4n1h2juy25d07zfv3rnlauxnbw,3snlul3wo80pxohfmfldk97c7xslur,IZzEXVCb,2020-0188,2020-11-19,11:50:59,12:06:10,NA,incomplete,11,color,1,left,Red_Plus_Chess_1.jpg,Red_Circle_Dots_2.jpg,Purple_Star_Chess_3.jpg,right,743.8400001265109,false,high,false
IZzEXVCb,3ncn4n1h2juy25d07zfv3rnlauxnbw,3snlul3wo80pxohfmfldk97c7xslur,IZzEXVCb,2020-0188,2020-11-19,11:50:59,12:06:10,NA,incomplete,12,color,1,left,Blue_Star_Chess_3.jpg,Blue_Triangle_Stripes_2.jpg,Green_Circle_Chess_1.jpg,left,611.4099998958409,true,high,false
IZzEXVCb,3ncn4n1h2juy25d07zfv3rnlauxnbw,3snlul3wo80pxohfmfldk97c7xslur,IZzEXVCb,2020-0188,2020-11-19,11:50:59,12:06:10,NA,incomplete,13,color,1,right,Green_Circle_Stripes_3.jpg,Purple_Star_Stripes_4.jpg,Green_Plus_Chess_2.jpg,right,434.7799997776747,true,high,false
IZzEXVCb,3ncn4n1h2juy25d07zfv3rnlauxnbw,3snlul3wo80pxohfmfldk97c7xslur,IZzEXVCb,2020-0188,2020-11-19,11:50:59,12:06:10,NA,incomplete,14,color,1,left,Purple_Star_Dots_2.jpg,Purple_Plus_Chess_4.jpg,Blue_Circle_Dots_1.jpg,left,496.57499976456165,true,high,false
IZzEXVCb,3ncn4n1h2juy25d07zfv3rnlauxnbw,3snlul3wo80pxohfmfldk97c7xslur,IZzEXVCb,2020-0188,2020-11-19,11:50:59,12:06:10,NA,incomplete,15,color,1,right,Blue_Star_Stripes_2.jpg,Green_Circle_Stripes_1.jpg,Blue_Plus_Dots_4.jpg,right,394.74500017240644,true,high,false
IZzEXVCb,3ncn4n1h2juy25d07zfv3rnlauxnbw,3snlul3wo80pxohfmfldk97c7xslur,IZzEXVCb,2020-0188,2020-11-19,11:50:59,12:06:10,NA,incomplete,16,color,1,right,Purple_Plus_Grid_4.jpg,Red_Star_Grid_1.jpg,Purple_Triangle_Stripes_2.jpg,right,419.38000032678246,true,high,false
IZzEXVCb,3ncn4n1h2juy25d07zfv3rnlauxnbw,3snlul3wo80pxohfmfldk97c7xslur,IZzEXVCb,2020-0188,2020-11-19,11:50:59,12:06:10,NA,incomplete,17,color,1,right,Red_Circle_Chess_4.jpg,Blue_Plus_Chess_1.jpg,Red_Triangle_Dots_2.jpg,right,547.9749999940395,true,high,false
IZzEXVCb,3ncn4n1h2juy25d07zfv3rnlauxnbw,3snlul3wo80pxohfmfldk97c7xslur,IZzEXVCb,2020-0188,2020-11-19,11:50:59,12:06:10,NA,incomplete,18,color,1,left,Green_Star_Grid_3.jpg,Green_Triangle_Chess_1.jpg,Red_Circle_Grid_2.jpg,left,491.06999998912215,true,high,false
IZzEXVCb,3ncn4n1h2juy25d07zfv3rnlauxnbw,3snlul3wo80pxohfmfldk97c7xslur,IZzEXVCb,2020-0188,2020-11-19,11:50:59,12:06:10,NA,incomplete,19,color,1,left,Green_Circle_Grid_3.jpg,Green_Star_Dots_2.jpg,Blue_Plus_Grid_1.jpg,left,404.36000004410744,true,high,false
IZzEXVCb,3ncn4n1h2juy25d07zfv3rnlauxnbw,3snlul3wo80pxohfmfldk97c7xslur,IZzEXVCb,2020-0188,2020-11-19,11:50:59,12:06:10,NA,incomplete,20,filling,1,right,Purple_Circle_Dots_1.jpg,Purple_Triangle_Chess_2.jpg,Blue_Plus_Dots_3.jpg,left,441.1849998869002,false,high,false
IZzEXVCb,3ncn4n1h2juy25d07zfv3rnlauxnbw,3snlul3wo80pxohfmfldk97c7xslur,IZzEXVCb,2020-0188,2020-11-19,11:50:59,12:06:10,NA,incomplete,21,filling,1,left,Blue_Circle_Chess_1.jpg,Purple_Plus_Chess_3.jpg,Blue_Star_Stripes_4.jpg,right,562.320000026375,false,high,false
IZzEXVCb,3ncn4n1h2juy25d07zfv3rnlauxnbw,3snlul3wo80pxohfmfldk97c7xslur,IZzEXVCb,2020-0188,2020-11-19,11:50:59,12:06:10,NA,incomplete,22,filling,1,right,Red_Circle_Dots_4.jpg,Red_Star_Stripes_2.jpg,Blue_Triangle_Dots_3.jpg,right,871.54999980703,true,high,false
IZzEXVCb,3ncn4n1h2juy25d07zfv3rnlauxnbw,3snlul3wo80pxohfmfldk97c7xslur,IZzEXVCb,2020-0188,2020-11-19,11:50:59,12:06:10,NA,incomplete,23,filling,1,left,Green_Triangle_Dots_2.jpg,Blue_Circle_Dots_3.jpg,Green_Plus_Grid_4.jpg,left,785.9000000171363,true,high,false
IZzEXVCb,3ncn4n1h2juy25d07zfv3rnlauxnbw,3snlul3wo80pxohfmfldk97c7xslur,IZzEXVCb,2020-0188,2020-11-19,11:50:59,12:06:10,NA,incomplete,24,filling,1,right,Red_Triangle_Chess_2.jpg,Red_Star_Stripes_4.jpg,Purple_Plus_Chess_1.jpg,right,646.6549998149276,true,high,false
IZzEXVCb,3ncn4n1h2juy25d07zfv3rnlauxnbw,3snlul3wo80pxohfmfldk97c7xslur,IZzEXVCb,2020-0188,2020-11-19,11:50:59,12:06:10,NA,incomplete,25,filling,1,right,Purple_Plus_Grid_2.jpg,Purple_Star_Chess_1.jpg,Green_Triangle_Grid_4.jpg,right,919.1999998874962,true,high,false
IZzEXVCb,3ncn4n1h2juy25d07zfv3rnlauxnbw,3snlul3wo80pxohfmfldk97c7xslur,IZzEXVCb,2020-0188,2020-11-19,11:50:59,12:06:10,NA,incomplete,26,filling,0,left,Blue_Star_Dots_4.jpg,Green_Plus_Dots_2.jpg,Blue_Triangle_Stripes_1.jpg,left,789.6849997341633,true,high,false
IZzEXVCb,3ncn4n1h2juy25d07zfv3rnlauxnbw,3snlul3wo80pxohfmfldk97c7xslur,IZzEXVCb,2020-0188,2020-11-19,11:50:59,12:06:10,NA,incomplete,27,filling,1,left,Red_Plus_Chess_1.jpg,Purple_Star_Chess_4.jpg,Red_Circle_Grid_3.jpg,left,1171.3649998418987,true,high,false
IZzEXVCb,3ncn4n1h2juy25d07zfv3rnlauxnbw,3snlul3wo80pxohfmfldk97c7xslur,IZzEXVCb,2020-0188,2020-11-19,11:50:59,12:06:10,NA,incomplete,28,filling,0,left,Blue_Star_Dots_1.jpg,Green_Plus_Dots_4.jpg,Blue_Circle_Stripes_2.jpg,left,805.6199997663498,true,high,false
IZzEXVCb,3ncn4n1h2juy25d07zfv3rnlauxnbw,3snlul3wo80pxohfmfldk97c7xslur,IZzEXVCb,2020-0188,2020-11-19,11:50:59,12:06:10,NA,incomplete,29,filling,0,right,Green_Star_Chess_2.jpg,Green_Triangle_Stripes_4.jpg,Blue_Plus_Chess_3.jpg,right,949.1300000809133,true,high,false
IZzEXVCb,3ncn4n1h2juy25d07zfv3rnlauxnbw,3snlul3wo80pxohfmfldk97c7xslur,IZzEXVCb,2020-0188,2020-11-19,11:50:59,12:06:10,NA,incomplete,30,color,1,left,Green_Circle_Dots_1.jpg,Green_Star_Chess_2.jpg,Red_Triangle_Dots_4.jpg,left,476.7999998293817,true,high,false
IZzEXVCb,3ncn4n1h2juy25d07zfv3rnlauxnbw,3snlul3wo80pxohfmfldk97c7xslur,IZzEXVCb,2020-0188,2020-11-19,11:50:59,12:06:10,NA,incomplete,31,color,1,left,Blue_Star_Stripes_2.jpg,Blue_Circle_Dots_3.jpg,Red_Triangle_Stripes_4.jpg,left,568.5199997387826,true,high,false
IZzEXVCb,3ncn4n1h2juy25d07zfv3rnlauxnbw,3snlul3wo80pxohfmfldk97c7xslur,IZzEXVCb,2020-0188,2020-11-19,11:50:59,12:06:10,NA,incomplete,32,color,1,left,Purple_Plus_Grid_1.jpg,Purple_Triangle_Dots_4.jpg,Red_Circle_Grid_3.jpg,left,535.1100000552833,true,high,false
IZzEXVCb,3ncn4n1h2juy25d07zfv3rnlauxnbw,3snlul3wo80pxohfmfldk97c7xslur,IZzEXVCb,2020-0188,2020-11-19,11:50:59,12:06:10,NA,incomplete,33,color,1,left,Red_Triangle_Stripes_2.jpg,Red_Circle_Grid_3.jpg,Blue_Star_Stripes_1.jpg,left,595.3799998387694,true,high,false
IZzEXVCb,3ncn4n1h2juy25d07zfv3rnlauxnbw,3snlul3wo80pxohfmfldk97c7xslur,IZzEXVCb,2020-0188,2020-11-19,11:50:59,12:06:10,NA,incomplete,34,color,1,left,Blue_Circle_Dots_3.jpg,Blue_Triangle_Grid_4.jpg,Red_Plus_Dots_2.jpg,left,543.5799998231232,true,high,false
IZzEXVCb,3ncn4n1h2juy25d07zfv3rnlauxnbw,3snlul3wo80pxohfmfldk97c7xslur,IZzEXVCb,2020-0188,2020-11-19,11:50:59,12:06:10,NA,incomplete,35,color,1,right,Purple_Triangle_Stripes_2.jpg,Blue_Circle_Stripes_1.jpg,Purple_Star_Chess_4.jpg,right,473.4399998560548,true,high,false
IZzEXVCb,3ncn4n1h2juy25d07zfv3rnlauxnbw,3snlul3wo80pxohfmfldk97c7xslur,IZzEXVCb,2020-0188,2020-11-19,11:50:59,12:06:10,NA,incomplete,36,color,1,left,Purple_Plus_Stripes_1.jpg,Purple_Star_Grid_4.jpg,Green_Circle_Stripes_3.jpg,left,485.47499999403954,true,high,false
IZzEXVCb,3ncn4n1h2juy25d07zfv3rnlauxnbw,3snlul3wo80pxohfmfldk97c7xslur,IZzEXVCb,2020-0188,2020-11-19,11:50:59,12:06:10,NA,incomplete,37,color,0,right,Red_Star_Stripes_2.jpg,Blue_Circle_Stripes_4.jpg,Red_Triangle_Grid_3.jpg,right,442.8349998779595,true,high,false
IZzEXVCb,3ncn4n1h2juy25d07zfv3rnlauxnbw,3snlul3wo80pxohfmfldk97c7xslur,IZzEXVCb,2020-0188,2020-11-19,11:50:59,12:06:10,NA,incomplete,38,color,1,right,Red_Star_Stripes_2.jpg,Blue_Circle_Stripes_1.jpg,Red_Plus_Grid_4.jpg,right,742.5200003199279,true,high,false
IZzEXVCb,3ncn4n1h2juy25d07zfv3rnlauxnbw,3snlul3wo80pxohfmfldk97c7xslur,IZzEXVCb,2020-0188,2020-11-19,11:50:59,12:06:10,NA,incomplete,39,color,1,right,Green_Triangle_Dots_1.jpg,Blue_Circle_Dots_3.jpg,Green_Plus_Chess_4.jpg,right,578.0699998140335,true,high,false
IZzEXVCb,3ncn4n1h2juy25d07zfv3rnlauxnbw,3snlul3wo80pxohfmfldk97c7xslur,IZzEXVCb,2020-0188,2020-11-19,11:50:59,12:06:10,NA,incomplete,40,filling,1,right,Blue_Plus_Chess_3.jpg,Blue_Triangle_Dots_1.jpg,Green_Circle_Chess_2.jpg,left,521.8650000169873,false,high,false
IZzEXVCb,3ncn4n1h2juy25d07zfv3rnlauxnbw,3snlul3wo80pxohfmfldk97c7xslur,IZzEXVCb,2020-0188,2020-11-19,11:50:59,12:06:10,NA,incomplete,41,filling,0,right,Blue_Circle_Chess_1.jpg,Blue_Plus_Dots_3.jpg,Green_Triangle_Chess_2.jpg,left,420.6700003705919,false,high,false
IZzEXVCb,3ncn4n1h2juy25d07zfv3rnlauxnbw,3snlul3wo80pxohfmfldk97c7xslur,IZzEXVCb,2020-0188,2020-11-19,11:50:59,12:06:10,NA,incomplete,42,filling,1,left,Red_Plus_Grid_2.jpg,Purple_Star_Grid_3.jpg,Red_Circle_Stripes_4.jpg,right,451.4000001363456,false,high,false
IZzEXVCb,3ncn4n1h2juy25d07zfv3rnlauxnbw,3snlul3wo80pxohfmfldk97c7xslur,IZzEXVCb,2020-0188,2020-11-19,11:50:59,12:06:10,NA,incomplete,43,filling,1,left,Green_Triangle_Stripes_3.jpg,Purple_Star_Stripes_4.jpg,Green_Circle_Dots_2.jpg,right,485.7999999076128,false,high,false
IZzEXVCb,3ncn4n1h2juy25d07zfv3rnlauxnbw,3snlul3wo80pxohfmfldk97c7xslur,IZzEXVCb,2020-0188,2020-11-19,11:50:59,12:06:10,NA,incomplete,44,filling,0,left,Red_Circle_Stripes_2.jpg,Green_Plus_Stripes_1.jpg,Red_Star_Dots_3.jpg,left,757.8199999406934,true,high,false
IZzEXVCb,3ncn4n1h2juy25d07zfv3rnlauxnbw,3snlul3wo80pxohfmfldk97c7xslur,IZzEXVCb,2020-0188,2020-11-19,11:50:59,12:06:10,NA,incomplete,45,filling,1,right,Green_Plus_Stripes_1.jpg,Green_Circle_Grid_4.jpg,Blue_Star_Stripes_2.jpg,right,894.8550000786781,true,high,false
IZzEXVCb,3ncn4n1h2juy25d07zfv3rnlauxnbw,3snlul3wo80pxohfmfldk97c7xslur,IZzEXVCb,2020-0188,2020-11-19,11:50:59,12:06:10,NA,incomplete,46,filling,1,right,Blue_Circle_Stripes_3.jpg,Blue_Triangle_Dots_2.jpg,Purple_Star_Stripes_4.jpg,right,843.5599999502301,true,high,false
IZzEXVCb,3ncn4n1h2juy25d07zfv3rnlauxnbw,3snlul3wo80pxohfmfldk97c7xslur,IZzEXVCb,2020-0188,2020-11-19,11:50:59,12:06:10,NA,incomplete,47,filling,1,right,Purple_Triangle_Grid_2.jpg,Purple_Plus_Dots_4.jpg,Green_Circle_Grid_3.jpg,right,760.4349995963275,true,high,false
IZzEXVCb,3ncn4n1h2juy25d07zfv3rnlauxnbw,3snlul3wo80pxohfmfldk97c7xslur,IZzEXVCb,2020-0188,2020-11-19,11:50:59,12:06:10,NA,incomplete,48,filling,0,right,Green_Triangle_Dots_4.jpg,Green_Plus_Stripes_1.jpg,Red_Circle_Dots_2.jpg,right,803.3000002615154,true,high,false
IZzEXVCb,3ncn4n1h2juy25d07zfv3rnlauxnbw,3snlul3wo80pxohfmfldk97c7xslur,IZzEXVCb,2020-0188,2020-11-19,11:50:59,12:06:10,NA,incomplete,49,filling,1,left,Green_Circle_Grid_3.jpg,Red_Star_Grid_2.jpg,Green_Plus_Stripes_4.jpg,left,948.7299998290837,true,high,false
IZzEXVCb,3ncn4n1h2juy25d07zfv3rnlauxnbw,3snlul3wo80pxohfmfldk97c7xslur,IZzEXVCb,2020-0188,2020-11-19,11:50:59,12:06:10,NA,incomplete,50,color,1,left,Green_Star_Grid_3.jpg,Green_Circle_Chess_2.jpg,Blue_Triangle_Grid_1.jpg,right,859.4149998389184,false,high,false
IZzEXVCb,3ncn4n1h2juy25d07zfv3rnlauxnbw,3snlul3wo80pxohfmfldk97c7xslur,IZzEXVCb,2020-0188,2020-11-19,11:50:59,12:06:10,NA,incomplete,51,color,1,left,Blue_Star_Grid_3.jpg,Blue_Circle_Dots_4.jpg,Red_Triangle_Grid_2.jpg,left,540.1600003242493,true,high,false
IZzEXVCb,3ncn4n1h2juy25d07zfv3rnlauxnbw,3snlul3wo80pxohfmfldk97c7xslur,IZzEXVCb,2020-0188,2020-11-19,11:50:59,12:06:10,NA,incomplete,52,color,1,left,Purple_Triangle_Grid_2.jpg,Purple_Plus_Dots_1.jpg,Red_Circle_Grid_3.jpg,left,499.31999994441867,true,high,false
IZzEXVCb,3ncn4n1h2juy25d07zfv3rnlauxnbw,3snlul3wo80pxohfmfldk97c7xslur,IZzEXVCb,2020-0188,2020-11-19,11:50:59,12:06:10,NA,incomplete,53,color,0,left,Red_Triangle_Chess_3.jpg,Red_Star_Dots_1.jpg,Purple_Circle_Chess_4.jpg,left,533.1500000320375,true,high,false
IZzEXVCb,3ncn4n1h2juy25d07zfv3rnlauxnbw,3snlul3wo80pxohfmfldk97c7xslur,IZzEXVCb,2020-0188,2020-11-19,11:50:59,12:06:10,NA,incomplete,54,color,1,left,Blue_Star_Dots_1.jpg,Blue_Circle_Stripes_3.jpg,Red_Triangle_Dots_4.jpg,right,1030.9899998828769,false,high,false
IZzEXVCb,3ncn4n1h2juy25d07zfv3rnlauxnbw,3snlul3wo80pxohfmfldk97c7xslur,IZzEXVCb,2020-0188,2020-11-19,11:50:59,12:06:10,NA,incomplete,55,color,1,right,Red_Star_Dots_1.jpg,Blue_Plus_Dots_3.jpg,Red_Triangle_Chess_2.jpg,left,876.6250000335276,false,high,false
IZzEXVCb,3ncn4n1h2juy25d07zfv3rnlauxnbw,3snlul3wo80pxohfmfldk97c7xslur,IZzEXVCb,2020-0188,2020-11-19,11:50:59,12:06:10,NA,incomplete,56,color,1,right,Red_Circle_Stripes_1.jpg,Blue_Star_Stripes_3.jpg,Red_Plus_Grid_2.jpg,right,448.6600002273917,true,high,false
IZzEXVCb,3ncn4n1h2juy25d07zfv3rnlauxnbw,3snlul3wo80pxohfmfldk97c7xslur,IZzEXVCb,2020-0188,2020-11-19,11:50:59,12:06:10,NA,incomplete,57,color,1,right,Blue_Star_Grid_4.jpg,Purple_Circle_Grid_2.jpg,Blue_Triangle_Dots_3.jpg,right,455.01499995589256,true,high,false
IZzEXVCb,3ncn4n1h2juy25d07zfv3rnlauxnbw,3snlul3wo80pxohfmfldk97c7xslur,IZzEXVCb,2020-0188,2020-11-19,11:50:59,12:06:10,NA,incomplete,58,color,0,left,Red_Circle_Chess_2.jpg,Red_Star_Dots_1.jpg,Blue_Triangle_Chess_3.jpg,left,469.10000033676624,true,high,false
IZzEXVCb,3ncn4n1h2juy25d07zfv3rnlauxnbw,3snlul3wo80pxohfmfldk97c7xslur,IZzEXVCb,2020-0188,2020-11-19,11:50:59,12:06:10,NA,incomplete,59,color,1,right,Green_Star_Stripes_2.jpg,Blue_Triangle_Stripes_4.jpg,Green_Circle_Grid_1.jpg,right,465.3449999168515,true,high,false
IZzEXVCb,3ncn4n1h2juy25d07zfv3rnlauxnbw,3snlul3wo80pxohfmfldk97c7xslur,IZzEXVCb,2020-0188,2020-11-19,11:50:59,12:06:10,NA,incomplete,60,filling,1,right,Blue_Triangle_Dots_3.jpg,Blue_Star_Grid_1.jpg,Green_Plus_Dots_2.jpg,left,403.5700000822544,false,high,false
IZzEXVCb,3ncn4n1h2juy25d07zfv3rnlauxnbw,3snlul3wo80pxohfmfldk97c7xslur,IZzEXVCb,2020-0188,2020-11-19,11:50:59,12:06:10,NA,incomplete,61,filling,1,right,Red_Plus_Grid_2.jpg,Red_Circle_Stripes_3.jpg,Purple_Star_Grid_4.jpg,left,695.3300000168383,false,high,false
IZzEXVCb,3ncn4n1h2juy25d07zfv3rnlauxnbw,3snlul3wo80pxohfmfldk97c7xslur,IZzEXVCb,2020-0188,2020-11-19,11:50:59,12:06:10,NA,incomplete,62,filling,0,right,Purple_Star_Chess_2.jpg,Purple_Plus_Grid_1.jpg,Green_Triangle_Chess_3.jpg,right,872.6800000295043,true,high,false
IZzEXVCb,3ncn4n1h2juy25d07zfv3rnlauxnbw,3snlul3wo80pxohfmfldk97c7xslur,IZzEXVCb,2020-0188,2020-11-19,11:50:59,12:06:10,NA,incomplete,63,filling,1,left,Red_Star_Grid_1.jpg,Blue_Plus_Grid_3.jpg,Red_Circle_Chess_4.jpg,left,819.6999998763204,true,high,false
IZzEXVCb,3ncn4n1h2juy25d07zfv3rnlauxnbw,3snlul3wo80pxohfmfldk97c7xslur,IZzEXVCb,2020-0188,2020-11-19,11:50:59,12:06:10,NA,incomplete,64,filling,1,left,Blue_Plus_Grid_4.jpg,Green_Star_Grid_3.jpg,Blue_Triangle_Stripes_2.jpg,left,794.4900002330542,true,high,false
IZzEXVCb,3ncn4n1h2juy25d07zfv3rnlauxnbw,3snlul3wo80pxohfmfldk97c7xslur,IZzEXVCb,2020-0188,2020-11-19,11:50:59,12:06:10,NA,incomplete,65,filling,1,left,Purple_Plus_Chess_4.jpg,Red_Star_Chess_3.jpg,Purple_Circle_Stripes_2.jpg,left,823.3799999579787,true,high,false
IZzEXVCb,3ncn4n1h2juy25d07zfv3rnlauxnbw,3snlul3wo80pxohfmfldk97c7xslur,IZzEXVCb,2020-0188,2020-11-19,11:50:59,12:06:10,NA,incomplete,66,filling,1,right,Purple_Circle_Chess_4.jpg,Purple_Star_Dots_2.jpg,Red_Triangle_Chess_3.jpg,right,788.840000052005,true,high,false
IZzEXVCb,3ncn4n1h2juy25d07zfv3rnlauxnbw,3snlul3wo80pxohfmfldk97c7xslur,IZzEXVCb,2020-0188,2020-11-19,11:50:59,12:06:10,NA,incomplete,67,filling,0,left,Red_Circle_Stripes_4.jpg,Purple_Triangle_Stripes_3.jpg,Red_Star_Grid_2.jpg,left,848.8949998281896,true,high,false
IZzEXVCb,3ncn4n1h2juy25d07zfv3rnlauxnbw,3snlul3wo80pxohfmfldk97c7xslur,IZzEXVCb,2020-0188,2020-11-19,11:50:59,12:06:10,NA,incomplete,68,filling,1,right,Purple_Triangle_Stripes_3.jpg,Purple_Star_Grid_1.jpg,Green_Circle_Stripes_2.jpg,right,1002.0200000144541,true,high,false
IZzEXVCb,3ncn4n1h2juy25d07zfv3rnlauxnbw,3snlul3wo80pxohfmfldk97c7xslur,IZzEXVCb,2020-0188,2020-11-19,11:50:59,12:06:10,NA,incomplete,69,filling,1,right,Purple_Triangle_Grid_1.jpg,Purple_Star_Chess_3.jpg,Blue_Circle_Grid_4.jpg,right,881.715000141412,true,high,false
IZzEXVCb,3ncn4n1h2juy25d07zfv3rnlauxnbw,3snlul3wo80pxohfmfldk97c7xslur,IZzEXVCb,2020-0188,2020-11-19,11:50:59,12:06:10,NA,incomplete,70,color,1,left,Green_Star_Dots_1.jpg,Green_Plus_Chess_3.jpg,Red_Circle_Dots_4.jpg,right,848.970000166446,false,high,false
IZzEXVCb,3ncn4n1h2juy25d07zfv3rnlauxnbw,3snlul3wo80pxohfmfldk97c7xslur,IZzEXVCb,2020-0188,2020-11-19,11:50:59,12:06:10,NA,incomplete,71,color,1,left,Green_Triangle_Stripes_2.jpg,Green_Star_Chess_3.jpg,Red_Plus_Stripes_4.jpg,right,841.5450002066791,false,high,false
IZzEXVCb,3ncn4n1h2juy25d07zfv3rnlauxnbw,3snlul3wo80pxohfmfldk97c7xslur,IZzEXVCb,2020-0188,2020-11-19,11:50:59,12:06:10,NA,incomplete,72,color,1,left,Purple_Triangle_Dots_2.jpg,Purple_Circle_Chess_4.jpg,Green_Star_Dots_1.jpg,left,439.5950003527105,true,high,false
IZzEXVCb,3ncn4n1h2juy25d07zfv3rnlauxnbw,3snlul3wo80pxohfmfldk97c7xslur,IZzEXVCb,2020-0188,2020-11-19,11:50:59,12:06:10,NA,incomplete,73,color,1,left,Purple_Circle_Grid_4.jpg,Purple_Triangle_Stripes_1.jpg,Green_Plus_Grid_3.jpg,left,467.33499970287085,true,high,false
IZzEXVCb,3ncn4n1h2juy25d07zfv3rnlauxnbw,3snlul3wo80pxohfmfldk97c7xslur,IZzEXVCb,2020-0188,2020-11-19,11:50:59,12:06:10,NA,incomplete,74,color,1,right,Green_Triangle_Dots_3.jpg,Blue_Circle_Dots_2.jpg,Green_Plus_Stripes_4.jpg,right,471.20000002905726,true,high,false
IZzEXVCb,3ncn4n1h2juy25d07zfv3rnlauxnbw,3snlul3wo80pxohfmfldk97c7xslur,IZzEXVCb,2020-0188,2020-11-19,11:50:59,12:06:10,NA,incomplete,75,color,1,right,Red_Triangle_Dots_4.jpg,Blue_Plus_Dots_2.jpg,Red_Star_Chess_3.jpg,right,423.1850001960993,true,high,false
IZzEXVCb,3ncn4n1h2juy25d07zfv3rnlauxnbw,3snlul3wo80pxohfmfldk97c7xslur,IZzEXVCb,2020-0188,2020-11-19,11:50:59,12:06:10,NA,incomplete,76,color,1,left,Blue_Circle_Chess_4.jpg,Blue_Star_Grid_2.jpg,Green_Plus_Chess_1.jpg,left,424.0250000730157,true,high,false
IZzEXVCb,3ncn4n1h2juy25d07zfv3rnlauxnbw,3snlul3wo80pxohfmfldk97c7xslur,IZzEXVCb,2020-0188,2020-11-19,11:50:59,12:06:10,NA,incomplete,77,color,1,left,Red_Triangle_Stripes_2.jpg,Red_Star_Chess_4.jpg,Green_Plus_Stripes_1.jpg,left,453.8549999706447,true,high,false
IZzEXVCb,3ncn4n1h2juy25d07zfv3rnlauxnbw,3snlul3wo80pxohfmfldk97c7xslur,IZzEXVCb,2020-0188,2020-11-19,11:50:59,12:06:10,NA,incomplete,78,color,1,left,Purple_Circle_Stripes_1.jpg,Purple_Triangle_Grid_2.jpg,Blue_Star_Stripes_4.jpg,left,400.6349998526275,true,high,false
IZzEXVCb,3ncn4n1h2juy25d07zfv3rnlauxnbw,3snlul3wo80pxohfmfldk97c7xslur,IZzEXVCb,2020-0188,2020-11-19,11:50:59,12:06:10,NA,incomplete,79,color,1,left,Purple_Star_Dots_2.jpg,Purple_Plus_Grid_4.jpg,Red_Triangle_Dots_1.jpg,left,554.0250004269183,true,high,false
IZzEXVCb,3ncn4n1h2juy25d07zfv3rnlauxnbw,3snlul3wo80pxohfmfldk97c7xslur,IZzEXVCb,2020-0188,2020-11-19,11:50:59,12:06:10,NA,incomplete,80,filling,1,right,Red_Triangle_Stripes_1.jpg,Red_Plus_Grid_4.jpg,Green_Star_Stripes_2.jpg,left,411.45999962463975,false,high,false
IZzEXVCb,3ncn4n1h2juy25d07zfv3rnlauxnbw,3snlul3wo80pxohfmfldk97c7xslur,IZzEXVCb,2020-0188,2020-11-19,11:50:59,12:06:10,NA,incomplete,81,filling,1,left,Green_Triangle_Dots_4.jpg,Red_Plus_Dots_3.jpg,Green_Star_Grid_2.jpg,right,474.4549999013543,false,high,false
IZzEXVCb,3ncn4n1h2juy25d07zfv3rnlauxnbw,3snlul3wo80pxohfmfldk97c7xslur,IZzEXVCb,2020-0188,2020-11-19,11:50:59,12:06:10,NA,incomplete,82,filling,1,right,Green_Star_Grid_2.jpg,Green_Plus_Stripes_1.jpg,Purple_Triangle_Grid_4.jpg,right,850.8850000798702,true,high,false
IZzEXVCb,3ncn4n1h2juy25d07zfv3rnlauxnbw,3snlul3wo80pxohfmfldk97c7xslur,IZzEXVCb,2020-0188,2020-11-19,11:50:59,12:06:10,NA,incomplete,83,filling,0,right,Blue_Plus_Grid_4.jpg,Blue_Circle_Chess_3.jpg,Red_Triangle_Grid_2.jpg,right,813.894999679178,true,high,false
IZzEXVCb,3ncn4n1h2juy25d07zfv3rnlauxnbw,3snlul3wo80pxohfmfldk97c7xslur,IZzEXVCb,2020-0188,2020-11-19,11:50:59,12:06:10,NA,incomplete,84,filling,1,right,Red_Triangle_Dots_1.jpg,Red_Star_Chess_2.jpg,Purple_Plus_Dots_3.jpg,right,772.7899998426437,true,high,false
IZzEXVCb,3ncn4n1h2juy25d07zfv3rnlauxnbw,3snlul3wo80pxohfmfldk97c7xslur,IZzEXVCb,2020-0188,2020-11-19,11:50:59,12:06:10,NA,incomplete,85,filling,1,left,Green_Triangle_Stripes_3.jpg,Blue_Star_Stripes_2.jpg,Green_Circle_Grid_4.jpg,left,890.6049998477101,true,high,false
IZzEXVCb,3ncn4n1h2juy25d07zfv3rnlauxnbw,3snlul3wo80pxohfmfldk97c7xslur,IZzEXVCb,2020-0188,2020-11-19,11:50:59,12:06:10,NA,incomplete,86,filling,1,left,Green_Circle_Grid_3.jpg,Purple_Star_Grid_1.jpg,Green_Plus_Stripes_2.jpg,left,831.4500004053116,true,high,false
IZzEXVCb,3ncn4n1h2juy25d07zfv3rnlauxnbw,3snlul3wo80pxohfmfldk97c7xslur,IZzEXVCb,2020-0188,2020-11-19,11:50:59,12:06:10,NA,incomplete,87,filling,1,right,Blue_Circle_Dots_1.jpg,Blue_Plus_Grid_3.jpg,Green_Triangle_Dots_2.jpg,right,859.9650003015995,true,high,false
IZzEXVCb,3ncn4n1h2juy25d07zfv3rnlauxnbw,3snlul3wo80pxohfmfldk97c7xslur,IZzEXVCb,2020-0188,2020-11-19,11:50:59,12:06:10,NA,incomplete,88,filling,1,right,Green_Triangle_Dots_1.jpg,Green_Plus_Stripes_3.jpg,Blue_Star_Dots_4.jpg,right,945.9649999625981,true,high,false
IZzEXVCb,3ncn4n1h2juy25d07zfv3rnlauxnbw,3snlul3wo80pxohfmfldk97c7xslur,IZzEXVCb,2020-0188,2020-11-19,11:50:59,12:06:10,NA,incomplete,89,filling,1,right,Green_Star_Grid_1.jpg,Green_Plus_Dots_4.jpg,Blue_Circle_Grid_2.jpg,right,778.5449996590614,true,high,false
IZzEXVCb,3ncn4n1h2juy25d07zfv3rnlauxnbw,3snlul3wo80pxohfmfldk97c7xslur,IZzEXVCb,2020-0188,2020-11-19,11:50:59,12:06:10,NA,incomplete,90,color,1,left,Blue_Triangle_Chess_1.jpg,Blue_Circle_Stripes_4.jpg,Red_Star_Chess_3.jpg,right,757.4799996800721,false,high,false
IZzEXVCb,3ncn4n1h2juy25d07zfv3rnlauxnbw,3snlul3wo80pxohfmfldk97c7xslur,IZzEXVCb,2020-0188,2020-11-19,11:50:59,12:06:10,NA,incomplete,91,color,1,left,Blue_Plus_Dots_2.jpg,Blue_Circle_Stripes_4.jpg,Green_Triangle_Dots_3.jpg,right,662.3700000345707,false,high,false
IZzEXVCb,3ncn4n1h2juy25d07zfv3rnlauxnbw,3snlul3wo80pxohfmfldk97c7xslur,IZzEXVCb,2020-0188,2020-11-19,11:50:59,12:06:10,NA,incomplete,92,color,1,left,Red_Star_Stripes_1.jpg,Red_Plus_Dots_3.jpg,Purple_Circle_Stripes_4.jpg,left,481.4450000412762,true,high,false
IZzEXVCb,3ncn4n1h2juy25d07zfv3rnlauxnbw,3snlul3wo80pxohfmfldk97c7xslur,IZzEXVCb,2020-0188,2020-11-19,11:50:59,12:06:10,NA,incomplete,93,color,1,right,Purple_Star_Chess_1.jpg,Green_Triangle_Chess_3.jpg,Purple_Circle_Stripes_2.jpg,right,458.8299999013543,true,high,false
IZzEXVCb,3ncn4n1h2juy25d07zfv3rnlauxnbw,3snlul3wo80pxohfmfldk97c7xslur,IZzEXVCb,2020-0188,2020-11-19,11:50:59,12:06:10,NA,incomplete,94,color,1,left,Red_Triangle_Chess_1.jpg,Red_Circle_Dots_2.jpg,Purple_Plus_Chess_4.jpg,left,455.2149996161461,true,high,false
IZzEXVCb,3ncn4n1h2juy25d07zfv3rnlauxnbw,3snlul3wo80pxohfmfldk97c7xslur,IZzEXVCb,2020-0188,2020-11-19,11:50:59,12:06:10,NA,incomplete,95,color,1,left,Purple_Star_Grid_4.jpg,Purple_Triangle_Chess_3.jpg,Blue_Plus_Grid_2.jpg,left,448.1250001117587,true,high,false
IZzEXVCb,3ncn4n1h2juy25d07zfv3rnlauxnbw,3snlul3wo80pxohfmfldk97c7xslur,IZzEXVCb,2020-0188,2020-11-19,11:50:59,12:06:10,NA,incomplete,96,color,0,left,Red_Triangle_Grid_1.jpg,Red_Plus_Stripes_3.jpg,Green_Star_Grid_4.jpg,left,391.03000005707145,true,high,false
IZzEXVCb,3ncn4n1h2juy25d07zfv3rnlauxnbw,3snlul3wo80pxohfmfldk97c7xslur,IZzEXVCb,2020-0188,2020-11-19,11:50:59,12:06:10,NA,incomplete,97,color,1,left,Green_Star_Grid_4.jpg,Green_Triangle_Dots_1.jpg,Purple_Plus_Grid_3.jpg,right,518.2799999602139,false,high,false
IZzEXVCb,3ncn4n1h2juy25d07zfv3rnlauxnbw,3snlul3wo80pxohfmfldk97c7xslur,IZzEXVCb,2020-0188,2020-11-19,11:50:59,12:06:10,NA,incomplete,98,color,0,right,Green_Star_Grid_3.jpg,Blue_Plus_Grid_4.jpg,Green_Circle_Stripes_2.jpg,right,525.5149998702109,true,high,false
IZzEXVCb,3ncn4n1h2juy25d07zfv3rnlauxnbw,3snlul3wo80pxohfmfldk97c7xslur,IZzEXVCb,2020-0188,2020-11-19,11:50:59,12:06:10,NA,incomplete,99,color,0,left,Purple_Triangle_Grid_3.jpg,Purple_Plus_Dots_4.jpg,Green_Circle_Grid_1.jpg,left,556.1100002378225,true,high,false
IZzEXVCb,3ncn4n1h2juy25d07zfv3rnlauxnbw,3snlul3wo80pxohfmfldk97c7xslur,IZzEXVCb,2020-0188,2020-11-19,11:50:59,12:06:10,NA,incomplete,100,filling,1,right,Red_Circle_Chess_2.jpg,Red_Star_Grid_4.jpg,Blue_Triangle_Chess_3.jpg,right,746.0750001482666,true,high,false
IZzEXVCb,3ncn4n1h2juy25d07zfv3rnlauxnbw,3snlul3wo80pxohfmfldk97c7xslur,IZzEXVCb,2020-0188,2020-11-19,11:50:59,12:06:10,NA,incomplete,101,filling,1,right,Purple_Circle_Grid_3.jpg,Purple_Triangle_Dots_4.jpg,Blue_Plus_Grid_2.jpg,right,984.4649997539818,true,high,false
IZzEXVCb,3ncn4n1h2juy25d07zfv3rnlauxnbw,3snlul3wo80pxohfmfldk97c7xslur,IZzEXVCb,2020-0188,2020-11-19,11:50:59,12:06:10,NA,incomplete,102,filling,1,left,Purple_Plus_Chess_3.jpg,Green_Star_Chess_1.jpg,Purple_Triangle_Dots_4.jpg,left,919.4750003516674,true,high,false
IZzEXVCb,3ncn4n1h2juy25d07zfv3rnlauxnbw,3snlul3wo80pxohfmfldk97c7xslur,IZzEXVCb,2020-0188,2020-11-19,11:50:59,12:06:10,NA,incomplete,103,filling,1,right,Green_Plus_Chess_1.jpg,Green_Circle_Grid_3.jpg,Blue_Triangle_Chess_2.jpg,right,811.0299999825656,true,high,false
IZzEXVCb,3ncn4n1h2juy25d07zfv3rnlauxnbw,3snlul3wo80pxohfmfldk97c7xslur,IZzEXVCb,2020-0188,2020-11-19,11:50:59,12:06:10,NA,incomplete,104,filling,1,left,Purple_Plus_Dots_3.jpg,Blue_Triangle_Dots_2.jpg,Purple_Star_Grid_4.jpg,left,611.4750001579523,true,high,false
IZzEXVCb,3ncn4n1h2juy25d07zfv3rnlauxnbw,3snlul3wo80pxohfmfldk97c7xslur,IZzEXVCb,2020-0188,2020-11-19,11:50:59,12:06:10,NA,incomplete,105,filling,0,right,Purple_Star_Chess_2.jpg,Purple_Plus_Stripes_4.jpg,Red_Triangle_Chess_3.jpg,right,685.8900003135204,true,high,false
IZzEXVCb,3ncn4n1h2juy25d07zfv3rnlauxnbw,3snlul3wo80pxohfmfldk97c7xslur,IZzEXVCb,2020-0188,2020-11-19,11:50:59,12:06:10,NA,incomplete,106,filling,1,left,Blue_Star_Dots_1.jpg,Purple_Plus_Dots_4.jpg,Blue_Triangle_Stripes_2.jpg,left,649.7450000606477,true,high,false
IZzEXVCb,3ncn4n1h2juy25d07zfv3rnlauxnbw,3snlul3wo80pxohfmfldk97c7xslur,IZzEXVCb,2020-0188,2020-11-19,11:50:59,12:06:10,NA,incomplete,107,filling,0,right,Red_Star_Chess_1.jpg,Red_Plus_Grid_4.jpg,Blue_Triangle_Chess_3.jpg,right,655.3199999034405,true,high,false
IZzEXVCb,3ncn4n1h2juy25d07zfv3rnlauxnbw,3snlul3wo80pxohfmfldk97c7xslur,IZzEXVCb,2020-0188,2020-11-19,11:50:59,12:06:10,NA,incomplete,108,filling,1,left,Green_Star_Chess_4.jpg,Purple_Circle_Chess_2.jpg,Green_Plus_Grid_3.jpg,right,500.73499977588654,false,high,false
IZzEXVCb,3ncn4n1h2juy25d07zfv3rnlauxnbw,3snlul3wo80pxohfmfldk97c7xslur,IZzEXVCb,2020-0188,2020-11-19,11:50:59,12:06:10,NA,incomplete,109,filling,1,right,Blue_Circle_Dots_2.jpg,Blue_Star_Grid_1.jpg,Green_Triangle_Dots_4.jpg,left,392.93000008910894,false,high,false
IZzEXVCb,3ncn4n1h2juy25d07zfv3rnlauxnbw,3snlul3wo80pxohfmfldk97c7xslur,IZzEXVCb,2020-0188,2020-11-19,11:50:59,12:06:10,NA,incomplete,110,color,0,left,Red_Triangle_Stripes_4.jpg,Red_Circle_Dots_3.jpg,Green_Plus_Stripes_1.jpg,right,830.080000218004,false,high,false
IZzEXVCb,3ncn4n1h2juy25d07zfv3rnlauxnbw,3snlul3wo80pxohfmfldk97c7xslur,IZzEXVCb,2020-0188,2020-11-19,11:50:59,12:06:10,NA,incomplete,111,color,0,right,Red_Plus_Chess_3.jpg,Purple_Circle_Chess_4.jpg,Red_Triangle_Stripes_1.jpg,left,709.3849997036159,false,high,false
IZzEXVCb,3ncn4n1h2juy25d07zfv3rnlauxnbw,3snlul3wo80pxohfmfldk97c7xslur,IZzEXVCb,2020-0188,2020-11-19,11:50:59,12:06:10,NA,incomplete,112,color,0,right,Red_Triangle_Chess_3.jpg,Blue_Circle_Chess_4.jpg,Red_Plus_Grid_1.jpg,left,649.3100002408028,false,high,false
IZzEXVCb,3ncn4n1h2juy25d07zfv3rnlauxnbw,3snlul3wo80pxohfmfldk97c7xslur,IZzEXVCb,2020-0188,2020-11-19,11:50:59,12:06:10,NA,incomplete,113,color,1,right,Blue_Plus_Dots_1.jpg,Green_Star_Dots_2.jpg,Blue_Triangle_Stripes_4.jpg,left,772.0899996347725,false,high,false
IZzEXVCb,3ncn4n1h2juy25d07zfv3rnlauxnbw,3snlul3wo80pxohfmfldk97c7xslur,IZzEXVCb,2020-0188,2020-11-19,11:50:59,12:06:10,NA,incomplete,114,color,1,right,Purple_Triangle_Chess_3.jpg,Red_Plus_Chess_2.jpg,Purple_Star_Stripes_4.jpg,left,757.2050001472235,false,high,false
IZzEXVCb,3ncn4n1h2juy25d07zfv3rnlauxnbw,3snlul3wo80pxohfmfldk97c7xslur,IZzEXVCb,2020-0188,2020-11-19,11:50:59,12:06:10,NA,incomplete,115,color,0,left,Red_Circle_Grid_3.jpg,Red_Plus_Stripes_1.jpg,Purple_Triangle_Grid_2.jpg,left,508.8100000284612,true,high,false
IZzEXVCb,3ncn4n1h2juy25d07zfv3rnlauxnbw,3snlul3wo80pxohfmfldk97c7xslur,IZzEXVCb,2020-0188,2020-11-19,11:50:59,12:06:10,NA,incomplete,116,color,1,left,Blue_Plus_Chess_4.jpg,Blue_Circle_Grid_1.jpg,Purple_Triangle_Chess_3.jpg,left,539.8050001822412,true,high,false
IZzEXVCb,3ncn4n1h2juy25d07zfv3rnlauxnbw,3snlul3wo80pxohfmfldk97c7xslur,IZzEXVCb,2020-0188,2020-11-19,11:50:59,12:06:10,NA,incomplete,117,color,1,left,Green_Circle_Dots_1.jpg,Green_Star_Stripes_2.jpg,Red_Plus_Dots_4.jpg,left,417.6000002771616,true,high,false
IZzEXVCb,3ncn4n1h2juy25d07zfv3rnlauxnbw,3snlul3wo80pxohfmfldk97c7xslur,IZzEXVCb,2020-0188,2020-11-19,11:50:59,12:06:10,NA,incomplete,118,color,1,right,Blue_Plus_Grid_2.jpg,Green_Star_Grid_1.jpg,Blue_Triangle_Stripes_4.jpg,right,502.814999781549,true,high,false
IZzEXVCb,3ncn4n1h2juy25d07zfv3rnlauxnbw,3snlul3wo80pxohfmfldk97c7xslur,IZzEXVCb,2020-0188,2020-11-19,11:50:59,12:06:10,NA,incomplete,119,color,1,right,Purple_Plus_Chess_1.jpg,Green_Star_Chess_4.jpg,Purple_Triangle_Dots_2.jpg,right,541.2099999375641,true,high,false
IZzEXVCb,3ncn4n1h2juy25d07zfv3rnlauxnbw,3snlul3wo80pxohfmfldk97c7xslur,IZzEXVCb,2020-0188,2020-11-19,11:50:59,12:06:10,NA,incomplete,120,shape,0,left,Red_Triangle_Dots_3.jpg,Purple_Triangle_Grid_1.jpg,Green_Star_Stripes_3.jpg,right,819.4300001487136,false,high,false
IZzEXVCb,3ncn4n1h2juy25d07zfv3rnlauxnbw,3snlul3wo80pxohfmfldk97c7xslur,IZzEXVCb,2020-0188,2020-11-19,11:50:59,12:06:10,NA,incomplete,121,shape,1,left,Green_Triangle_Grid_1.jpg,Red_Triangle_Chess_4.jpg,Purple_Circle_Stripes_1.jpg,right,692.3399996012449,false,high,false
IZzEXVCb,3ncn4n1h2juy25d07zfv3rnlauxnbw,3snlul3wo80pxohfmfldk97c7xslur,IZzEXVCb,2020-0188,2020-11-19,11:50:59,12:06:10,NA,incomplete,122,shape,1,left,Red_Star_Grid_4.jpg,Purple_Star_Dots_2.jpg,Blue_Triangle_Stripes_4.jpg,right,601.2949999421835,false,high,false
IZzEXVCb,3ncn4n1h2juy25d07zfv3rnlauxnbw,3snlul3wo80pxohfmfldk97c7xslur,IZzEXVCb,2020-0188,2020-11-19,11:50:59,12:06:10,NA,incomplete,123,shape,0,right,Blue_Star_Stripes_1.jpg,Green_Circle_Grid_1.jpg,Red_Star_Chess_4.jpg,right,749.1500000469387,true,high,false
IZzEXVCb,3ncn4n1h2juy25d07zfv3rnlauxnbw,3snlul3wo80pxohfmfldk97c7xslur,IZzEXVCb,2020-0188,2020-11-19,11:50:59,12:06:10,NA,incomplete,124,shape,1,left,Blue_Circle_Chess_2.jpg,Purple_Circle_Stripes_3.jpg,Red_Triangle_Grid_2.jpg,right,1009.9749998189509,false,high,false
IZzEXVCb,3ncn4n1h2juy25d07zfv3rnlauxnbw,3snlul3wo80pxohfmfldk97c7xslur,IZzEXVCb,2020-0188,2020-11-19,11:50:59,12:06:10,NA,incomplete,125,shape,1,right,Blue_Star_Grid_1.jpg,Red_Plus_Dots_1.jpg,Green_Star_Stripes_4.jpg,left,1991.6799999773502,false,high,false
IZzEXVCb,3ncn4n1h2juy25d07zfv3rnlauxnbw,3snlul3wo80pxohfmfldk97c7xslur,IZzEXVCb,2020-0188,2020-11-19,11:50:59,12:06:10,NA,incomplete,126,shape,1,left,Green_Plus_Dots_1.jpg,Red_Plus_Grid_3.jpg,Blue_Circle_Chess_1.jpg,left,701.8499998375773,true,high,false
IZzEXVCb,3ncn4n1h2juy25d07zfv3rnlauxnbw,3snlul3wo80pxohfmfldk97c7xslur,IZzEXVCb,2020-0188,2020-11-19,11:50:59,12:06:10,NA,incomplete,127,shape,1,right,Purple_Plus_Dots_2.jpg,Blue_Triangle_Grid_2.jpg,Green_Plus_Chess_3.jpg,right,701.7200002446771,true,high,false
IZzEXVCb,3ncn4n1h2juy25d07zfv3rnlauxnbw,3snlul3wo80pxohfmfldk97c7xslur,IZzEXVCb,2020-0188,2020-11-19,11:50:59,12:06:10,NA,incomplete,128,shape,0,right,Purple_Plus_Stripes_2.jpg,Blue_Circle_Grid_2.jpg,Green_Plus_Dots_4.jpg,right,617.4749997444451,true,high,false
IZzEXVCb,3ncn4n1h2juy25d07zfv3rnlauxnbw,3snlul3wo80pxohfmfldk97c7xslur,IZzEXVCb,2020-0188,2020-11-19,11:50:59,12:06:10,NA,incomplete,129,shape,1,left,Red_Circle_Grid_2.jpg,Green_Circle_Stripes_1.jpg,Purple_Triangle_Chess_2.jpg,right,1213.0299997515976,false,high,false
IZzEXVCb,3ncn4n1h2juy25d07zfv3rnlauxnbw,3snlul3wo80pxohfmfldk97c7xslur,IZzEXVCb,2020-0188,2020-11-19,11:50:59,12:06:10,NA,incomplete,130,shape,1,left,Purple_Star_Grid_4.jpg,Green_Star_Dots_3.jpg,Red_Plus_Chess_4.jpg,left,731.995000038296,true,high,false
IZzEXVCb,3ncn4n1h2juy25d07zfv3rnlauxnbw,3snlul3wo80pxohfmfldk97c7xslur,IZzEXVCb,2020-0188,2020-11-19,11:50:59,12:06:10,NA,incomplete,131,shape,0,right,Purple_Circle_Dots_1.jpg,Green_Triangle_Grid_1.jpg,Blue_Circle_Chess_2.jpg,right,736.6149998269975,true,high,false
IZzEXVCb,3ncn4n1h2juy25d07zfv3rnlauxnbw,3snlul3wo80pxohfmfldk97c7xslur,IZzEXVCb,2020-0188,2020-11-19,11:50:59,12:06:10,NA,incomplete,132,shape,1,right,Green_Plus_Stripes_3.jpg,Blue_Circle_Chess_3.jpg,Red_Plus_Grid_2.jpg,left,997.025000397116,false,high,false
IZzEXVCb,3ncn4n1h2juy25d07zfv3rnlauxnbw,3snlul3wo80pxohfmfldk97c7xslur,IZzEXVCb,2020-0188,2020-11-19,11:50:59,12:06:10,NA,incomplete,133,shape,1,left,Red_Plus_Dots_1.jpg,Purple_Plus_Stripes_2.jpg,Green_Star_Grid_1.jpg,right,843.7399999238551,false,high,false
IZzEXVCb,3ncn4n1h2juy25d07zfv3rnlauxnbw,3snlul3wo80pxohfmfldk97c7xslur,IZzEXVCb,2020-0188,2020-11-19,11:50:59,12:06:10,NA,incomplete,134,shape,1,right,Purple_Circle_Chess_1.jpg,Blue_Plus_Grid_1.jpg,Red_Circle_Stripes_3.jpg,right,1953.4950000233948,true,high,false
IZzEXVCb,3ncn4n1h2juy25d07zfv3rnlauxnbw,3snlul3wo80pxohfmfldk97c7xslur,IZzEXVCb,2020-0188,2020-11-19,11:50:59,12:06:10,NA,incomplete,135,shape,0,right,Green_Circle_Chess_1.jpg,Purple_Star_Stripes_1.jpg,Red_Circle_Dots_4.jpg,right,573.2499998994172,true,high,false
IZzEXVCb,3ncn4n1h2juy25d07zfv3rnlauxnbw,3snlul3wo80pxohfmfldk97c7xslur,IZzEXVCb,2020-0188,2020-11-19,11:50:59,12:06:10,NA,incomplete,136,shape,1,right,Green_Triangle_Grid_3.jpg,Blue_Circle_Chess_3.jpg,Purple_Triangle_Stripes_2.jpg,right,1222.2349997609854,true,high,false
IZzEXVCb,3ncn4n1h2juy25d07zfv3rnlauxnbw,3snlul3wo80pxohfmfldk97c7xslur,IZzEXVCb,2020-0188,2020-11-19,11:50:59,12:06:10,NA,incomplete,137,shape,1,right,Blue_Plus_Dots_1.jpg,Purple_Star_Chess_1.jpg,Red_Plus_Grid_2.jpg,right,578.474999871105,true,high,false
IZzEXVCb,3ncn4n1h2juy25d07zfv3rnlauxnbw,3snlul3wo80pxohfmfldk97c7xslur,IZzEXVCb,2020-0188,2020-11-19,11:50:59,12:06:10,NA,incomplete,138,shape,1,left,Blue_Circle_Stripes_3.jpg,Green_Circle_Grid_1.jpg,Purple_Star_Chess_3.jpg,left,722.9500003159046,true,high,false
IZzEXVCb,3ncn4n1h2juy25d07zfv3rnlauxnbw,3snlul3wo80pxohfmfldk97c7xslur,IZzEXVCb,2020-0188,2020-11-19,11:50:59,12:06:10,NA,incomplete,139,shape,0,right,Purple_Plus_Grid_3.jpg,Blue_Star_Dots_3.jpg,Green_Plus_Stripes_1.jpg,right,1352.2800002247095,true,high,false
IZzEXVCb,3ncn4n1h2juy25d07zfv3rnlauxnbw,3snlul3wo80pxohfmfldk97c7xslur,IZzEXVCb,2020-0188,2020-11-19,11:50:59,12:06:10,NA,incomplete,140,number,1,left,Green_Star_Chess_1.jpg,Blue_Plus_Grid_1.jpg,Red_Star_Dots_3.jpg,right,565.1100003160536,false,high,false
IZzEXVCb,3ncn4n1h2juy25d07zfv3rnlauxnbw,3snlul3wo80pxohfmfldk97c7xslur,IZzEXVCb,2020-0188,2020-11-19,11:50:59,12:06:10,NA,incomplete,141,number,1,left,Purple_Star_Stripes_2.jpg,Green_Plus_Dots_2.jpg,Red_Star_Grid_1.jpg,left,853.5799998790026,true,high,false
IZzEXVCb,3ncn4n1h2juy25d07zfv3rnlauxnbw,3snlul3wo80pxohfmfldk97c7xslur,IZzEXVCb,2020-0188,2020-11-19,11:50:59,12:06:10,NA,incomplete,142,number,1,right,Blue_Circle_Stripes_3.jpg,Purple_Circle_Grid_4.jpg,Green_Triangle_Dots_3.jpg,right,968.9000002108514,true,high,false
IZzEXVCb,3ncn4n1h2juy25d07zfv3rnlauxnbw,3snlul3wo80pxohfmfldk97c7xslur,IZzEXVCb,2020-0188,2020-11-19,11:50:59,12:06:10,NA,incomplete,143,number,0,left,Blue_Star_Stripes_3.jpg,Green_Triangle_Grid_3.jpg,Red_Star_Chess_4.jpg,left,782.0799998007715,true,high,false
IZzEXVCb,3ncn4n1h2juy25d07zfv3rnlauxnbw,3snlul3wo80pxohfmfldk97c7xslur,IZzEXVCb,2020-0188,2020-11-19,11:50:59,12:06:10,NA,incomplete,144,number,1,left,Red_Circle_Dots_2.jpg,Green_Star_Stripes_2.jpg,Blue_Circle_Grid_4.jpg,left,814.4949995912611,true,high,false
IZzEXVCb,3ncn4n1h2juy25d07zfv3rnlauxnbw,3snlul3wo80pxohfmfldk97c7xslur,IZzEXVCb,2020-0188,2020-11-19,11:50:59,12:06:10,NA,incomplete,145,number,1,right,Red_Circle_Dots_4.jpg,Blue_Circle_Grid_2.jpg,Purple_Triangle_Stripes_4.jpg,right,786.3300000317395,true,high,false
IZzEXVCb,3ncn4n1h2juy25d07zfv3rnlauxnbw,3snlul3wo80pxohfmfldk97c7xslur,IZzEXVCb,2020-0188,2020-11-19,11:50:59,12:06:10,NA,incomplete,146,number,0,left,Green_Triangle_Chess_4.jpg,Blue_Plus_Stripes_4.jpg,Purple_Triangle_Dots_2.jpg,left,694.7050001472235,true,high,false
IZzEXVCb,3ncn4n1h2juy25d07zfv3rnlauxnbw,3snlul3wo80pxohfmfldk97c7xslur,IZzEXVCb,2020-0188,2020-11-19,11:50:59,12:06:10,NA,incomplete,147,number,1,left,Green_Plus_Stripes_4.jpg,Purple_Triangle_Grid_4.jpg,Red_Plus_Chess_1.jpg,left,542.6099998876452,true,high,false
IZzEXVCb,3ncn4n1h2juy25d07zfv3rnlauxnbw,3snlul3wo80pxohfmfldk97c7xslur,IZzEXVCb,2020-0188,2020-11-19,11:50:59,12:06:10,NA,incomplete,148,number,1,right,Red_Circle_Dots_2.jpg,Blue_Circle_Stripes_3.jpg,Green_Triangle_Grid_2.jpg,right,715.1500000618398,true,high,false
IZzEXVCb,3ncn4n1h2juy25d07zfv3rnlauxnbw,3snlul3wo80pxohfmfldk97c7xslur,IZzEXVCb,2020-0188,2020-11-19,11:50:59,12:06:10,NA,incomplete,149,number,0,left,Red_Triangle_Dots_2.jpg,Green_Circle_Chess_2.jpg,Purple_Triangle_Grid_4.jpg,left,738.7649999000132,true,high,false
IZzEXVCb,3ncn4n1h2juy25d07zfv3rnlauxnbw,3snlul3wo80pxohfmfldk97c7xslur,IZzEXVCb,2020-0188,2020-11-19,11:50:59,12:06:10,NA,incomplete,150,number,1,right,Blue_Plus_Stripes_1.jpg,Purple_Plus_Dots_3.jpg,Red_Triangle_Chess_1.jpg,right,606.2199999578297,true,high,false
IZzEXVCb,3ncn4n1h2juy25d07zfv3rnlauxnbw,3snlul3wo80pxohfmfldk97c7xslur,IZzEXVCb,2020-0188,2020-11-19,11:50:59,12:06:10,NA,incomplete,151,number,1,right,Green_Circle_Grid_1.jpg,Red_Circle_Stripes_4.jpg,Purple_Triangle_Chess_1.jpg,right,799.4149997830391,true,high,false
IZzEXVCb,3ncn4n1h2juy25d07zfv3rnlauxnbw,3snlul3wo80pxohfmfldk97c7xslur,IZzEXVCb,2020-0188,2020-11-19,11:50:59,12:06:10,NA,incomplete,152,number,1,right,Green_Star_Chess_1.jpg,Red_Star_Stripes_4.jpg,Purple_Plus_Dots_1.jpg,right,658.3199999295175,true,high,false
IZzEXVCb,3ncn4n1h2juy25d07zfv3rnlauxnbw,3snlul3wo80pxohfmfldk97c7xslur,IZzEXVCb,2020-0188,2020-11-19,11:50:59,12:06:10,NA,incomplete,153,number,1,right,Green_Star_Stripes_2.jpg,Blue_Star_Dots_3.jpg,Purple_Triangle_Chess_2.jpg,right,732.8849998302758,true,high,false
IZzEXVCb,3ncn4n1h2juy25d07zfv3rnlauxnbw,3snlul3wo80pxohfmfldk97c7xslur,IZzEXVCb,2020-0188,2020-11-19,11:50:59,12:06:10,NA,incomplete,154,number,1,right,Green_Plus_Grid_4.jpg,Red_Plus_Chess_3.jpg,Purple_Triangle_Stripes_4.jpg,right,1075.999999884516,true,high,false
IZzEXVCb,3ncn4n1h2juy25d07zfv3rnlauxnbw,3snlul3wo80pxohfmfldk97c7xslur,IZzEXVCb,2020-0188,2020-11-19,11:50:59,12:06:10,NA,incomplete,155,number,0,right,Blue_Triangle_Dots_2.jpg,Red_Triangle_Stripes_1.jpg,Green_Star_Grid_2.jpg,right,998.240000102669,true,high,false
IZzEXVCb,3ncn4n1h2juy25d07zfv3rnlauxnbw,3snlul3wo80pxohfmfldk97c7xslur,IZzEXVCb,2020-0188,2020-11-19,11:50:59,12:06:10,NA,incomplete,156,number,1,right,Purple_Triangle_Stripes_4.jpg,Red_Triangle_Chess_1.jpg,Green_Star_Grid_4.jpg,right,1108.340000268072,true,high,false
IZzEXVCb,3ncn4n1h2juy25d07zfv3rnlauxnbw,3snlul3wo80pxohfmfldk97c7xslur,IZzEXVCb,2020-0188,2020-11-19,11:50:59,12:06:10,NA,incomplete,157,number,1,right,Green_Triangle_Dots_2.jpg,Blue_Triangle_Chess_4.jpg,Red_Plus_Stripes_2.jpg,right,715.04499996081,true,high,false
IZzEXVCb,3ncn4n1h2juy25d07zfv3rnlauxnbw,3snlul3wo80pxohfmfldk97c7xslur,IZzEXVCb,2020-0188,2020-11-19,11:50:59,12:06:10,NA,incomplete,158,number,0,left,Blue_Triangle_Stripes_1.jpg,Green_Plus_Chess_1.jpg,Purple_Triangle_Dots_2.jpg,left,654.1499998420477,true,high,false
IZzEXVCb,3ncn4n1h2juy25d07zfv3rnlauxnbw,3snlul3wo80pxohfmfldk97c7xslur,IZzEXVCb,2020-0188,2020-11-19,11:50:59,12:06:10,NA,incomplete,159,number,1,right,Red_Plus_Chess_4.jpg,Purple_Plus_Stripes_1.jpg,Green_Triangle_Grid_4.jpg,right,661.2200001254678,true,high,false
IZzEXVCb,3ncn4n1h2juy25d07zfv3rnlauxnbw,3snlul3wo80pxohfmfldk97c7xslur,IZzEXVCb,2020-0188,2020-11-19,11:50:59,12:06:10,NA,incomplete,160,shape,1,left,Green_Star_Dots_2.jpg,Purple_Star_Grid_1.jpg,Blue_Plus_Stripes_2.jpg,right,616.4950001984835,false,high,false
IZzEXVCb,3ncn4n1h2juy25d07zfv3rnlauxnbw,3snlul3wo80pxohfmfldk97c7xslur,IZzEXVCb,2020-0188,2020-11-19,11:50:59,12:06:10,NA,incomplete,161,shape,1,left,Green_Plus_Stripes_1.jpg,Blue_Plus_Grid_3.jpg,Purple_Star_Chess_1.jpg,right,682.9149997793138,false,high,false
IZzEXVCb,3ncn4n1h2juy25d07zfv3rnlauxnbw,3snlul3wo80pxohfmfldk97c7xslur,IZzEXVCb,2020-0188,2020-11-19,11:50:59,12:06:10,NA,incomplete,162,shape,1,right,Green_Plus_Dots_4.jpg,Blue_Star_Chess_4.jpg,Purple_Plus_Grid_3.jpg,right,690.8099995926023,true,high,false
IZzEXVCb,3ncn4n1h2juy25d07zfv3rnlauxnbw,3snlul3wo80pxohfmfldk97c7xslur,IZzEXVCb,2020-0188,2020-11-19,11:50:59,12:06:10,NA,incomplete,163,shape,1,left,Green_Star_Chess_4.jpg,Blue_Star_Stripes_2.jpg,Purple_Triangle_Dots_4.jpg,left,611.0200001858175,true,high,false
IZzEXVCb,3ncn4n1h2juy25d07zfv3rnlauxnbw,3snlul3wo80pxohfmfldk97c7xslur,IZzEXVCb,2020-0188,2020-11-19,11:50:59,12:06:10,NA,incomplete,164,shape,1,left,Purple_Circle_Chess_1.jpg,Green_Circle_Stripes_4.jpg,Red_Plus_Dots_1.jpg,left,664.0150002203882,true,high,false
IZzEXVCb,3ncn4n1h2juy25d07zfv3rnlauxnbw,3snlul3wo80pxohfmfldk97c7xslur,IZzEXVCb,2020-0188,2020-11-19,11:50:59,12:06:10,NA,incomplete,165,shape,1,left,Green_Plus_Dots_3.jpg,Purple_Plus_Stripes_1.jpg,Blue_Circle_Grid_3.jpg,left,875.3450000658631,true,high,false
IZzEXVCb,3ncn4n1h2juy25d07zfv3rnlauxnbw,3snlul3wo80pxohfmfldk97c7xslur,IZzEXVCb,2020-0188,2020-11-19,11:50:59,12:06:10,NA,incomplete,166,shape,1,left,Purple_Circle_Grid_1.jpg,Blue_Circle_Dots_4.jpg,Red_Plus_Chess_1.jpg,left,706.1299998313189,true,high,false
IZzEXVCb,3ncn4n1h2juy25d07zfv3rnlauxnbw,3snlul3wo80pxohfmfldk97c7xslur,IZzEXVCb,2020-0188,2020-11-19,11:50:59,12:06:10,NA,incomplete,167,shape,1,left,Blue_Triangle_Chess_2.jpg,Purple_Triangle_Stripes_1.jpg,Green_Circle_Grid_2.jpg,left,771.8650000169873,true,high,false
IZzEXVCb,3ncn4n1h2juy25d07zfv3rnlauxnbw,3snlul3wo80pxohfmfldk97c7xslur,IZzEXVCb,2020-0188,2020-11-19,11:50:59,12:06:10,NA,incomplete,168,shape,1,right,Red_Star_Grid_1.jpg,Green_Triangle_Chess_1.jpg,Purple_Star_Stripes_2.jpg,right,781.6600003279746,true,high,false
IZzEXVCb,3ncn4n1h2juy25d07zfv3rnlauxnbw,3snlul3wo80pxohfmfldk97c7xslur,IZzEXVCb,2020-0188,2020-11-19,11:50:59,12:06:10,NA,incomplete,169,shape,1,left,Purple_Star_Chess_2.jpg,Red_Star_Grid_4.jpg,Blue_Triangle_Dots_2.jpg,left,634.9100000225008,true,high,false
IZzEXVCb,3ncn4n1h2juy25d07zfv3rnlauxnbw,3snlul3wo80pxohfmfldk97c7xslur,IZzEXVCb,2020-0188,2020-11-19,11:50:59,12:06:10,NA,incomplete,170,shape,0,left,Blue_Plus_Grid_2.jpg,Purple_Plus_Dots_1.jpg,Red_Triangle_Chess_2.jpg,left,664.1199998557568,true,high,false
IZzEXVCb,3ncn4n1h2juy25d07zfv3rnlauxnbw,3snlul3wo80pxohfmfldk97c7xslur,IZzEXVCb,2020-0188,2020-11-19,11:50:59,12:06:10,NA,incomplete,171,shape,1,left,Green_Plus_Grid_2.jpg,Purple_Plus_Chess_3.jpg,Blue_Triangle_Dots_2.jpg,left,488.6149996891618,true,high,false
IZzEXVCb,3ncn4n1h2juy25d07zfv3rnlauxnbw,3snlul3wo80pxohfmfldk97c7xslur,IZzEXVCb,2020-0188,2020-11-19,11:50:59,12:06:10,NA,incomplete,172,shape,1,right,Green_Star_Chess_2.jpg,Purple_Circle_Stripes_2.jpg,Red_Star_Grid_1.jpg,right,738.9199999161065,true,high,false
IZzEXVCb,3ncn4n1h2juy25d07zfv3rnlauxnbw,3snlul3wo80pxohfmfldk97c7xslur,IZzEXVCb,2020-0188,2020-11-19,11:50:59,12:06:10,NA,incomplete,173,shape,0,right,Green_Star_Dots_1.jpg,Red_Triangle_Stripes_1.jpg,Purple_Star_Grid_2.jpg,right,733.2250000908971,true,high,false
IZzEXVCb,3ncn4n1h2juy25d07zfv3rnlauxnbw,3snlul3wo80pxohfmfldk97c7xslur,IZzEXVCb,2020-0188,2020-11-19,11:50:59,12:06:10,NA,incomplete,174,shape,1,right,Purple_Triangle_Chess_1.jpg,Green_Plus_Dots_1.jpg,Blue_Triangle_Grid_4.jpg,right,755.6200004182756,true,high,false
IZzEXVCb,3ncn4n1h2juy25d07zfv3rnlauxnbw,3snlul3wo80pxohfmfldk97c7xslur,IZzEXVCb,2020-0188,2020-11-19,11:50:59,12:06:10,NA,incomplete,175,shape,1,right,Green_Triangle_Dots_2.jpg,Purple_Plus_Grid_2.jpg,Red_Triangle_Chess_3.jpg,right,611.9450000114739,true,high,false
IZzEXVCb,3ncn4n1h2juy25d07zfv3rnlauxnbw,3snlul3wo80pxohfmfldk97c7xslur,IZzEXVCb,2020-0188,2020-11-19,11:50:59,12:06:10,NA,incomplete,176,shape,1,right,Green_Star_Dots_3.jpg,Red_Plus_Grid_3.jpg,Purple_Star_Chess_4.jpg,right,674.705000128597,true,high,false
IZzEXVCb,3ncn4n1h2juy25d07zfv3rnlauxnbw,3snlul3wo80pxohfmfldk97c7xslur,IZzEXVCb,2020-0188,2020-11-19,11:50:59,12:06:10,NA,incomplete,177,shape,1,right,Green_Star_Dots_2.jpg,Blue_Circle_Stripes_2.jpg,Purple_Star_Chess_4.jpg,right,616.100000217557,true,high,false
IZzEXVCb,3ncn4n1h2juy25d07zfv3rnlauxnbw,3snlul3wo80pxohfmfldk97c7xslur,IZzEXVCb,2020-0188,2020-11-19,11:50:59,12:06:10,NA,incomplete,178,shape,0,right,Green_Plus_Dots_4.jpg,Purple_Star_Chess_4.jpg,Red_Plus_Grid_3.jpg,right,561.599999666214,true,high,false
IZzEXVCb,3ncn4n1h2juy25d07zfv3rnlauxnbw,3snlul3wo80pxohfmfldk97c7xslur,IZzEXVCb,2020-0188,2020-11-19,11:50:59,12:06:10,NA,incomplete,179,shape,1,left,Green_Circle_Chess_2.jpg,Purple_Circle_Stripes_3.jpg,Blue_Plus_Grid_2.jpg,left,541.7199996300042,true,high,false
IZzEXVCb,3ncn4n1h2juy25d07zfv3rnlauxnbw,3snlul3wo80pxohfmfldk97c7xslur,IZzEXVCb,2020-0188,2020-11-19,11:50:59,12:06:10,NA,incomplete,180,number,1,right,Blue_Circle_Chess_3.jpg,Red_Circle_Stripes_1.jpg,Green_Plus_Grid_3.jpg,left,648.5749999992549,false,high,false
IZzEXVCb,3ncn4n1h2juy25d07zfv3rnlauxnbw,3snlul3wo80pxohfmfldk97c7xslur,IZzEXVCb,2020-0188,2020-11-19,11:50:59,12:06:10,NA,incomplete,181,number,0,right,Red_Star_Dots_4.jpg,Green_Star_Stripes_3.jpg,Purple_Triangle_Chess_4.jpg,left,660.2699998766184,false,high,false
IZzEXVCb,3ncn4n1h2juy25d07zfv3rnlauxnbw,3snlul3wo80pxohfmfldk97c7xslur,IZzEXVCb,2020-0188,2020-11-19,11:50:59,12:06:10,NA,incomplete,182,number,1,right,Blue_Star_Dots_2.jpg,Purple_Star_Chess_4.jpg,Green_Triangle_Grid_2.jpg,left,527.8350003063679,false,high,false
IZzEXVCb,3ncn4n1h2juy25d07zfv3rnlauxnbw,3snlul3wo80pxohfmfldk97c7xslur,IZzEXVCb,2020-0188,2020-11-19,11:50:59,12:06:10,NA,incomplete,183,number,1,right,Purple_Circle_Grid_3.jpg,Green_Circle_Stripes_1.jpg,Blue_Triangle_Chess_3.jpg,left,745.664999820292,false,high,false
IZzEXVCb,3ncn4n1h2juy25d07zfv3rnlauxnbw,3snlul3wo80pxohfmfldk97c7xslur,IZzEXVCb,2020-0188,2020-11-19,11:50:59,12:06:10,NA,incomplete,184,number,1,left,Blue_Plus_Chess_2.jpg,Green_Star_Grid_2.jpg,Purple_Plus_Stripes_1.jpg,left,784.6949999220669,true,high,false
IZzEXVCb,3ncn4n1h2juy25d07zfv3rnlauxnbw,3snlul3wo80pxohfmfldk97c7xslur,IZzEXVCb,2020-0188,2020-11-19,11:50:59,12:06:10,NA,incomplete,185,number,0,left,Green_Circle_Chess_1.jpg,Purple_Plus_Dots_1.jpg,Red_Circle_Grid_3.jpg,right,608.2399999722838,false,high,false
IZzEXVCb,3ncn4n1h2juy25d07zfv3rnlauxnbw,3snlul3wo80pxohfmfldk97c7xslur,IZzEXVCb,2020-0188,2020-11-19,11:50:59,12:06:10,NA,incomplete,186,number,1,left,Purple_Star_Grid_2.jpg,Red_Circle_Chess_2.jpg,Blue_Star_Stripes_1.jpg,left,1103.2099998556077,true,high,false
IZzEXVCb,3ncn4n1h2juy25d07zfv3rnlauxnbw,3snlul3wo80pxohfmfldk97c7xslur,IZzEXVCb,2020-0188,2020-11-19,11:50:59,12:06:10,NA,incomplete,187,number,1,left,Green_Plus_Dots_4.jpg,Purple_Circle_Grid_4.jpg,Red_Plus_Stripes_3.jpg,left,935.1249998435378,true,high,false
IZzEXVCb,3ncn4n1h2juy25d07zfv3rnlauxnbw,3snlul3wo80pxohfmfldk97c7xslur,IZzEXVCb,2020-0188,2020-11-19,11:50:59,12:06:10,NA,incomplete,188,number,1,left,Green_Plus_Stripes_4.jpg,Purple_Circle_Grid_4.jpg,Red_Plus_Chess_2.jpg,left,557.8899998217821,true,high,false
IZzEXVCb,3ncn4n1h2juy25d07zfv3rnlauxnbw,3snlul3wo80pxohfmfldk97c7xslur,IZzEXVCb,2020-0188,2020-11-19,11:50:59,12:06:10,NA,incomplete,189,number,1,left,Red_Plus_Dots_3.jpg,Blue_Circle_Stripes_3.jpg,Green_Plus_Chess_4.jpg,left,579.5700000599027,true,high,false
IZzEXVCb,3ncn4n1h2juy25d07zfv3rnlauxnbw,3snlul3wo80pxohfmfldk97c7xslur,IZzEXVCb,2020-0188,2020-11-19,11:50:59,12:06:10,NA,incomplete,190,number,1,left,Blue_Star_Chess_1.jpg,Green_Circle_Dots_1.jpg,Purple_Star_Grid_3.jpg,left,760.7599999755621,true,high,false
IZzEXVCb,3ncn4n1h2juy25d07zfv3rnlauxnbw,3snlul3wo80pxohfmfldk97c7xslur,IZzEXVCb,2020-0188,2020-11-19,11:50:59,12:06:10,NA,incomplete,191,number,1,right,Blue_Star_Stripes_3.jpg,Green_Star_Grid_2.jpg,Purple_Circle_Chess_3.jpg,right,770.8049998618662,true,high,false
IZzEXVCb,3ncn4n1h2juy25d07zfv3rnlauxnbw,3snlul3wo80pxohfmfldk97c7xslur,IZzEXVCb,2020-0188,2020-11-19,11:50:59,12:06:10,NA,incomplete,192,number,1,right,Red_Circle_Chess_4.jpg,Purple_Circle_Dots_2.jpg,Green_Plus_Grid_4.jpg,right,701.0249998420477,true,high,false
IZzEXVCb,3ncn4n1h2juy25d07zfv3rnlauxnbw,3snlul3wo80pxohfmfldk97c7xslur,IZzEXVCb,2020-0188,2020-11-19,11:50:59,12:06:10,NA,incomplete,193,number,1,left,Red_Plus_Chess_2.jpg,Purple_Triangle_Dots_2.jpg,Blue_Plus_Stripes_1.jpg,left,572.5799999199808,true,high,false
IZzEXVCb,3ncn4n1h2juy25d07zfv3rnlauxnbw,3snlul3wo80pxohfmfldk97c7xslur,IZzEXVCb,2020-0188,2020-11-19,11:50:59,12:06:10,NA,incomplete,194,number,1,left,Red_Star_Chess_2.jpg,Blue_Triangle_Dots_2.jpg,Purple_Star_Stripes_3.jpg,left,661.9199998676777,true,high,false
IZzEXVCb,3ncn4n1h2juy25d07zfv3rnlauxnbw,3snlul3wo80pxohfmfldk97c7xslur,IZzEXVCb,2020-0188,2020-11-19,11:50:59,12:06:10,NA,incomplete,195,number,1,left,Purple_Triangle_Chess_4.jpg,Blue_Star_Dots_4.jpg,Red_Triangle_Stripes_3.jpg,left,933.8099998421967,true,high,false
IZzEXVCb,3ncn4n1h2juy25d07zfv3rnlauxnbw,3snlul3wo80pxohfmfldk97c7xslur,IZzEXVCb,2020-0188,2020-11-19,11:50:59,12:06:10,NA,incomplete,196,number,1,left,Red_Star_Grid_3.jpg,Blue_Plus_Stripes_3.jpg,Purple_Star_Dots_1.jpg,left,706.0250001959503,true,high,false
IZzEXVCb,3ncn4n1h2juy25d07zfv3rnlauxnbw,3snlul3wo80pxohfmfldk97c7xslur,IZzEXVCb,2020-0188,2020-11-19,11:50:59,12:06:10,NA,incomplete,197,number,1,left,Red_Plus_Dots_1.jpg,Purple_Star_Grid_1.jpg,Blue_Plus_Stripes_3.jpg,left,620.9050002507865,true,high,false
IZzEXVCb,3ncn4n1h2juy25d07zfv3rnlauxnbw,3snlul3wo80pxohfmfldk97c7xslur,IZzEXVCb,2020-0188,2020-11-19,11:50:59,12:06:10,NA,incomplete,198,number,1,right,Red_Plus_Chess_4.jpg,Blue_Plus_Grid_2.jpg,Green_Star_Dots_4.jpg,right,706.3350002281368,true,high,false
IZzEXVCb,3ncn4n1h2juy25d07zfv3rnlauxnbw,3snlul3wo80pxohfmfldk97c7xslur,IZzEXVCb,2020-0188,2020-11-19,11:50:59,12:06:10,NA,incomplete,199,number,1,left,Red_Triangle_Chess_2.jpg,Green_Star_Dots_2.jpg,Purple_Triangle_Stripes_3.jpg,left,681.9450003094971,true,high,false
IZzEXVCb,3ncn4n1h2juy25d07zfv3rnlauxnbw,3snlul3wo80pxohfmfldk97c7xslur,IZzEXVCb,2020-0188,2020-11-19,11:50:59,12:06:10,NA,incomplete,200,shape,1,left,Blue_Triangle_Chess_2.jpg,Red_Triangle_Dots_3.jpg,Green_Plus_Stripes_2.jpg,right,716.6049997322261,false,high,false
IZzEXVCb,3ncn4n1h2juy25d07zfv3rnlauxnbw,3snlul3wo80pxohfmfldk97c7xslur,IZzEXVCb,2020-0188,2020-11-19,11:50:59,12:06:10,NA,incomplete,201,shape,1,left,Blue_Plus_Chess_1.jpg,Red_Plus_Stripes_3.jpg,Purple_Circle_Grid_1.jpg,right,614.8250000551343,false,high,false
IZzEXVCb,3ncn4n1h2juy25d07zfv3rnlauxnbw,3snlul3wo80pxohfmfldk97c7xslur,IZzEXVCb,2020-0188,2020-11-19,11:50:59,12:06:10,NA,incomplete,202,shape,0,left,Purple_Triangle_Chess_2.jpg,Red_Triangle_Stripes_4.jpg,Blue_Star_Dots_2.jpg,left,1018.6850000172853,true,high,false
IZzEXVCb,3ncn4n1h2juy25d07zfv3rnlauxnbw,3snlul3wo80pxohfmfldk97c7xslur,IZzEXVCb,2020-0188,2020-11-19,11:50:59,12:06:10,NA,incomplete,203,shape,1,right,Green_Triangle_Grid_3.jpg,Red_Circle_Chess_3.jpg,Blue_Triangle_Stripes_4.jpg,right,719.3749998696148,true,high,false
IZzEXVCb,3ncn4n1h2juy25d07zfv3rnlauxnbw,3snlul3wo80pxohfmfldk97c7xslur,IZzEXVCb,2020-0188,2020-11-19,11:50:59,12:06:10,NA,incomplete,204,shape,1,left,Blue_Triangle_Grid_1.jpg,Purple_Triangle_Stripes_2.jpg,Red_Star_Chess_1.jpg,left,646.5449999086559,true,high,false
IZzEXVCb,3ncn4n1h2juy25d07zfv3rnlauxnbw,3snlul3wo80pxohfmfldk97c7xslur,IZzEXVCb,2020-0188,2020-11-19,11:50:59,12:06:10,NA,incomplete,205,shape,1,left,Green_Plus_Stripes_2.jpg,Red_Plus_Grid_1.jpg,Blue_Triangle_Dots_2.jpg,left,984.3799998052418,true,high,false
IZzEXVCb,3ncn4n1h2juy25d07zfv3rnlauxnbw,3snlul3wo80pxohfmfldk97c7xslur,IZzEXVCb,2020-0188,2020-11-19,11:50:59,12:06:10,NA,incomplete,206,shape,1,right,Blue_Triangle_Chess_3.jpg,Green_Plus_Stripes_3.jpg,Purple_Triangle_Dots_4.jpg,right,658.9600001461804,true,high,false
IZzEXVCb,3ncn4n1h2juy25d07zfv3rnlauxnbw,3snlul3wo80pxohfmfldk97c7xslur,IZzEXVCb,2020-0188,2020-11-19,11:50:59,12:06:10,NA,incomplete,207,shape,1,left,Blue_Plus_Grid_4.jpg,Purple_Plus_Dots_2.jpg,Green_Circle_Stripes_4.jpg,left,597.4649996496737,true,high,false
IZzEXVCb,3ncn4n1h2juy25d07zfv3rnlauxnbw,3snlul3wo80pxohfmfldk97c7xslur,IZzEXVCb,2020-0188,2020-11-19,11:50:59,12:06:10,NA,incomplete,208,shape,0,left,Blue_Star_Dots_4.jpg,Green_Star_Grid_2.jpg,Red_Circle_Chess_4.jpg,left,743.0600002408028,true,high,false
IZzEXVCb,3ncn4n1h2juy25d07zfv3rnlauxnbw,3snlul3wo80pxohfmfldk97c7xslur,IZzEXVCb,2020-0188,2020-11-19,11:50:59,12:06:10,NA,incomplete,209,shape,1,right,Green_Circle_Chess_1.jpg,Blue_Star_Stripes_1.jpg,Purple_Circle_Dots_4.jpg,right,712.3250002041459,true,high,false
IZzEXVCb,3ncn4n1h2juy25d07zfv3rnlauxnbw,3snlul3wo80pxohfmfldk97c7xslur,IZzEXVCb,2020-0188,2020-11-19,11:50:59,12:06:10,NA,incomplete,210,shape,0,right,Blue_Triangle_Grid_2.jpg,Purple_Star_Stripes_2.jpg,Green_Triangle_Dots_3.jpg,right,729.1749999858439,true,high,false
IZzEXVCb,3ncn4n1h2juy25d07zfv3rnlauxnbw,3snlul3wo80pxohfmfldk97c7xslur,IZzEXVCb,2020-0188,2020-11-19,11:50:59,12:06:10,NA,incomplete,211,shape,1,right,Blue_Triangle_Dots_1.jpg,Red_Plus_Chess_1.jpg,Green_Triangle_Stripes_2.jpg,right,665.9249998629093,true,high,false
IZzEXVCb,3ncn4n1h2juy25d07zfv3rnlauxnbw,3snlul3wo80pxohfmfldk97c7xslur,IZzEXVCb,2020-0188,2020-11-19,11:50:59,12:06:10,NA,incomplete,212,shape,1,left,Green_Triangle_Stripes_1.jpg,Red_Triangle_Dots_4.jpg,Blue_Plus_Grid_1.jpg,left,633.2100001163781,true,high,false
IZzEXVCb,3ncn4n1h2juy25d07zfv3rnlauxnbw,3snlul3wo80pxohfmfldk97c7xslur,IZzEXVCb,2020-0188,2020-11-19,11:50:59,12:06:10,NA,incomplete,213,shape,0,left,Purple_Star_Chess_3.jpg,Blue_Star_Grid_1.jpg,Green_Circle_Stripes_3.jpg,left,653.9050000719726,true,high,false
IZzEXVCb,3ncn4n1h2juy25d07zfv3rnlauxnbw,3snlul3wo80pxohfmfldk97c7xslur,IZzEXVCb,2020-0188,2020-11-19,11:50:59,12:06:10,NA,incomplete,214,shape,1,left,Blue_Star_Chess_1.jpg,Purple_Star_Stripes_3.jpg,Red_Triangle_Grid_1.jpg,left,513.865000102669,true,high,false
IZzEXVCb,3ncn4n1h2juy25d07zfv3rnlauxnbw,3snlul3wo80pxohfmfldk97c7xslur,IZzEXVCb,2020-0188,2020-11-19,11:50:59,12:06:10,NA,incomplete,215,shape,1,right,Purple_Star_Chess_1.jpg,Red_Circle_Stripes_1.jpg,Blue_Star_Grid_2.jpg,right,535.9600000083447,true,high,false
IZzEXVCb,3ncn4n1h2juy25d07zfv3rnlauxnbw,3snlul3wo80pxohfmfldk97c7xslur,IZzEXVCb,2020-0188,2020-11-19,11:50:59,12:06:10,NA,incomplete,216,shape,1,left,Purple_Star_Grid_3.jpg,Red_Star_Dots_1.jpg,Green_Plus_Stripes_3.jpg,left,708.5500000976026,true,high,false
IZzEXVCb,3ncn4n1h2juy25d07zfv3rnlauxnbw,3snlul3wo80pxohfmfldk97c7xslur,IZzEXVCb,2020-0188,2020-11-19,11:50:59,12:06:10,NA,incomplete,217,shape,1,left,Green_Circle_Dots_1.jpg,Blue_Circle_Stripes_2.jpg,Purple_Star_Grid_1.jpg,left,560.9150002710521,true,high,false
IZzEXVCb,3ncn4n1h2juy25d07zfv3rnlauxnbw,3snlul3wo80pxohfmfldk97c7xslur,IZzEXVCb,2020-0188,2020-11-19,11:50:59,12:06:10,NA,incomplete,218,shape,0,left,Blue_Star_Chess_3.jpg,Green_Star_Grid_2.jpg,Purple_Triangle_Dots_3.jpg,left,917.4249996431172,true,high,false
IZzEXVCb,3ncn4n1h2juy25d07zfv3rnlauxnbw,3snlul3wo80pxohfmfldk97c7xslur,IZzEXVCb,2020-0188,2020-11-19,11:50:59,12:06:10,NA,incomplete,219,shape,1,left,Green_Circle_Dots_2.jpg,Purple_Circle_Chess_3.jpg,Red_Plus_Grid_2.jpg,left,596.8300001695752,true,high,false
IZzEXVCb,3ncn4n1h2juy25d07zfv3rnlauxnbw,3snlul3wo80pxohfmfldk97c7xslur,IZzEXVCb,2020-0188,2020-11-19,11:50:59,12:06:10,NA,incomplete,220,number,1,right,Blue_Star_Chess_1.jpg,Purple_Star_Stripes_2.jpg,Red_Triangle_Dots_1.jpg,left,488.96999983116984,false,high,false
IZzEXVCb,3ncn4n1h2juy25d07zfv3rnlauxnbw,3snlul3wo80pxohfmfldk97c7xslur,IZzEXVCb,2020-0188,2020-11-19,11:50:59,12:06:10,NA,incomplete,221,number,1,right,Purple_Triangle_Dots_1.jpg,Blue_Triangle_Grid_3.jpg,Green_Circle_Stripes_1.jpg,left,563.3100001141429,false,high,false
IZzEXVCb,3ncn4n1h2juy25d07zfv3rnlauxnbw,3snlul3wo80pxohfmfldk97c7xslur,IZzEXVCb,2020-0188,2020-11-19,11:50:59,12:06:10,NA,incomplete,222,number,1,right,Green_Triangle_Chess_3.jpg,Red_Triangle_Dots_2.jpg,Purple_Circle_Stripes_3.jpg,right,613.7749999761581,true,high,false
IZzEXVCb,3ncn4n1h2juy25d07zfv3rnlauxnbw,3snlul3wo80pxohfmfldk97c7xslur,IZzEXVCb,2020-0188,2020-11-19,11:50:59,12:06:10,NA,incomplete,223,number,1,right,Purple_Triangle_Grid_3.jpg,Blue_Triangle_Chess_1.jpg,Green_Star_Dots_3.jpg,right,1069.8449998162687,true,high,false
IZzEXVCb,3ncn4n1h2juy25d07zfv3rnlauxnbw,3snlul3wo80pxohfmfldk97c7xslur,IZzEXVCb,2020-0188,2020-11-19,11:50:59,12:06:10,NA,incomplete,224,number,1,left,Blue_Plus_Stripes_3.jpg,Green_Star_Grid_3.jpg,Red_Plus_Dots_2.jpg,left,970.3999999910593,true,high,false
IZzEXVCb,3ncn4n1h2juy25d07zfv3rnlauxnbw,3snlul3wo80pxohfmfldk97c7xslur,IZzEXVCb,2020-0188,2020-11-19,11:50:59,12:06:10,NA,incomplete,225,number,1,right,Red_Triangle_Stripes_4.jpg,Blue_Triangle_Dots_3.jpg,Green_Circle_Chess_4.jpg,right,622.3799996078014,true,high,false
IZzEXVCb,3ncn4n1h2juy25d07zfv3rnlauxnbw,3snlul3wo80pxohfmfldk97c7xslur,IZzEXVCb,2020-0188,2020-11-19,11:50:59,12:06:10,NA,incomplete,226,number,1,left,Red_Circle_Chess_4.jpg,Blue_Triangle_Dots_4.jpg,Green_Circle_Grid_1.jpg,left,515.6999998725951,true,high,false
IZzEXVCb,3ncn4n1h2juy25d07zfv3rnlauxnbw,3snlul3wo80pxohfmfldk97c7xslur,IZzEXVCb,2020-0188,2020-11-19,11:50:59,12:06:10,NA,incomplete,227,number,0,left,Blue_Plus_Dots_3.jpg,Purple_Circle_Chess_3.jpg,Green_Plus_Stripes_1.jpg,left,567.7600000053644,true,high,false
IZzEXVCb,3ncn4n1h2juy25d07zfv3rnlauxnbw,3snlul3wo80pxohfmfldk97c7xslur,IZzEXVCb,2020-0188,2020-11-19,11:50:59,12:06:10,NA,incomplete,228,number,1,right,Green_Plus_Chess_2.jpg,Blue_Plus_Stripes_3.jpg,Red_Star_Grid_2.jpg,right,1322.470000013709,true,high,false
IZzEXVCb,3ncn4n1h2juy25d07zfv3rnlauxnbw,3snlul3wo80pxohfmfldk97c7xslur,IZzEXVCb,2020-0188,2020-11-19,11:50:59,12:06:10,NA,incomplete,229,number,1,right,Purple_Triangle_Dots_4.jpg,Green_Triangle_Grid_2.jpg,Blue_Circle_Chess_4.jpg,right,675.6950002163649,true,high,false
IZzEXVCb,3ncn4n1h2juy25d07zfv3rnlauxnbw,3snlul3wo80pxohfmfldk97c7xslur,IZzEXVCb,2020-0188,2020-11-19,11:50:59,12:06:10,NA,incomplete,230,number,1,right,Red_Triangle_Dots_2.jpg,Purple_Triangle_Stripes_1.jpg,Green_Star_Grid_2.jpg,right,894.3799999542534,true,high,false
IZzEXVCb,3ncn4n1h2juy25d07zfv3rnlauxnbw,3snlul3wo80pxohfmfldk97c7xslur,IZzEXVCb,2020-0188,2020-11-19,11:50:59,12:06:10,NA,incomplete,231,number,1,right,Blue_Plus_Stripes_4.jpg,Green_Plus_Grid_3.jpg,Purple_Triangle_Dots_4.jpg,right,800.4299998283386,true,high,false
IZzEXVCb,3ncn4n1h2juy25d07zfv3rnlauxnbw,3snlul3wo80pxohfmfldk97c7xslur,IZzEXVCb,2020-0188,2020-11-19,11:50:59,12:06:10,NA,incomplete,232,number,1,right,Red_Star_Stripes_1.jpg,Green_Star_Chess_4.jpg,Purple_Plus_Grid_1.jpg,right,794.3699997849762,true,high,false
IZzEXVCb,3ncn4n1h2juy25d07zfv3rnlauxnbw,3snlul3wo80pxohfmfldk97c7xslur,IZzEXVCb,2020-0188,2020-11-19,11:50:59,12:06:10,NA,incomplete,233,number,1,left,Purple_Circle_Stripes_3.jpg,Blue_Plus_Dots_3.jpg,Red_Circle_Grid_2.jpg,left,835.9900000505149,true,high,false
IZzEXVCb,3ncn4n1h2juy25d07zfv3rnlauxnbw,3snlul3wo80pxohfmfldk97c7xslur,IZzEXVCb,2020-0188,2020-11-19,11:50:59,12:06:10,NA,incomplete,234,number,1,right,Green_Plus_Chess_1.jpg,Purple_Plus_Grid_3.jpg,Blue_Circle_Dots_1.jpg,right,642.9999996908009,true,high,false
IZzEXVCb,3ncn4n1h2juy25d07zfv3rnlauxnbw,3snlul3wo80pxohfmfldk97c7xslur,IZzEXVCb,2020-0188,2020-11-19,11:50:59,12:06:10,NA,incomplete,235,number,0,right,Red_Triangle_Dots_4.jpg,Blue_Triangle_Stripes_3.jpg,Purple_Circle_Chess_4.jpg,right,532.3850000277162,true,high,false
IZzEXVCb,3ncn4n1h2juy25d07zfv3rnlauxnbw,3snlul3wo80pxohfmfldk97c7xslur,IZzEXVCb,2020-0188,2020-11-19,11:50:59,12:06:10,NA,incomplete,236,number,1,right,Green_Star_Dots_4.jpg,Blue_Star_Grid_2.jpg,Purple_Triangle_Stripes_4.jpg,right,686.4300002343953,true,high,false
IZzEXVCb,3ncn4n1h2juy25d07zfv3rnlauxnbw,3snlul3wo80pxohfmfldk97c7xslur,IZzEXVCb,2020-0188,2020-11-19,11:50:59,12:06:10,NA,incomplete,237,number,0,left,Red_Plus_Chess_4.jpg,Purple_Star_Stripes_4.jpg,Blue_Plus_Grid_3.jpg,left,673.8400002941489,true,high,false
IZzEXVCb,3ncn4n1h2juy25d07zfv3rnlauxnbw,3snlul3wo80pxohfmfldk97c7xslur,IZzEXVCb,2020-0188,2020-11-19,11:50:59,12:06:10,NA,incomplete,238,number,1,left,Red_Star_Stripes_3.jpg,Purple_Circle_Chess_3.jpg,Blue_Star_Dots_2.jpg,left,786.0249998047948,true,high,false
IZzEXVCb,3ncn4n1h2juy25d07zfv3rnlauxnbw,3snlul3wo80pxohfmfldk97c7xslur,IZzEXVCb,2020-0188,2020-11-19,11:50:59,12:06:10,NA,incomplete,239,number,1,left,Purple_Circle_Stripes_4.jpg,Red_Plus_Chess_4.jpg,Blue_Circle_Grid_2.jpg,left,626.335000153631,true,high,false
IZzEXVCb,3ncn4n1h2juy25d07zfv3rnlauxnbw,3snlul3wo80pxohfmfldk97c7xslur,IZzEXVCb,2020-0188,2020-11-19,11:50:59,12:06:10,NA,NA,instruction example,filling,NA,NA,Red_Circle_Grid_1.jpg,Purple_Plus_Grid_3.jpg,Red_Triangle_Stripes_4.jpg,NA,NA,NA,NA,undefined
IZzEXVCb,3ncn4n1h2juy25d07zfv3rnlauxnbw,3snlul3wo80pxohfmfldk97c7xslur,IZzEXVCb,2020-0188,2020-11-19,11:50:59,12:06:10,NA,NA,instruction example,filling,NA,NA,Blue_Triangle_Grid_1.jpg,Blue_Circle_Dots_3.jpg,Purple_Star_Grid_4.jpg,NA,NA,NA,NA,undefined
IZzEXVCb,3ncn4n1h2juy25d07zfv3rnlauxnbw,3snlul3wo80pxohfmfldk97c7xslur,IZzEXVCb,2020-0188,2020-11-19,11:50:59,12:06:10,NA,NA,instruction example,filling,NA,NA,Blue_Plus_Stripes_4.jpg,Green_Plus_Grid_2.jpg,Red_Star_Dots_4.jpg,NA,NA,NA,NA,undefined
IZzEXVCb,3ncn4n1h2juy25d07zfv3rnlauxnbw,3snlul3wo80pxohfmfldk97c7xslur,IZzEXVCb,2020-0188,2020-11-19,11:50:59,12:06:10,NA,NA,instruction example,filling,NA,NA,Blue_Circle_Grid_1.jpg,Purple_Triangle_Chess_1.jpg,Red_Circle_Dots_3.jpg,NA,NA,NA,NA,undefined
IZzEXVCb,3ncn4n1h2juy25d07zfv3rnlauxnbw,3snlul3wo80pxohfmfldk97c7xslur,IZzEXVCb,2020-0188,2020-11-19,11:50:59,12:06:10,877602.229999844,911717.6299998537,NA,NA,NA,NA,NA,NA,NA,NA,NA,NA,NA,undefined
