workerId,hitId,assignmentId,subject,studyid,exp_date,exp_start,exp_end,time_start,time_end,trial,type,reward_validity,answer,image_top,image_left,image_right,response,response_time,response_acc,volatility,practice
SjTiH6Et,3jhb4bpsgnm0h9bvp7tggfn0kkoq96,3tmfv4nepcr7alm1nqraxs62abl8w4,SjTiH6Et,2020-0188,2020-05-21,15:01:38,15:21:11,NA,incomplete,0,filling,0,right,Green_Triangle_Grid_2.jpg,Green_Plus_Stripes_1.jpg,Purple_Circle_Grid_4.jpg,left,1764.9499999824911,false,NA,true
SjTiH6Et,3jhb4bpsgnm0h9bvp7tggfn0kkoq96,3tmfv4nepcr7alm1nqraxs62abl8w4,SjTiH6Et,2020-0188,2020-05-21,15:01:38,15:21:11,NA,incomplete,1,filling,1,left,Red_Triangle_Chess_3.jpg,Blue_Plus_Chess_4.jpg,Red_Circle_Grid_2.jpg,left,1202.7599998982623,true,NA,true
SjTiH6Et,3jhb4bpsgnm0h9bvp7tggfn0kkoq96,3tmfv4nepcr7alm1nqraxs62abl8w4,SjTiH6Et,2020-0188,2020-05-21,15:01:38,15:21:11,NA,incomplete,2,filling,0,right,Red_Circle_Stripes_2.jpg,Red_Plus_Chess_3.jpg,Purple_Star_Stripes_4.jpg,right,1454.524999950081,true,NA,true
SjTiH6Et,3jhb4bpsgnm0h9bvp7tggfn0kkoq96,3tmfv4nepcr7alm1nqraxs62abl8w4,SjTiH6Et,2020-0188,2020-05-21,15:01:38,15:21:11,NA,incomplete,3,filling,1,right,Purple_Star_Grid_4.jpg,Purple_Triangle_Dots_1.jpg,Blue_Plus_Grid_2.jpg,right,1113.385000033304,true,NA,true
SjTiH6Et,3jhb4bpsgnm0h9bvp7tggfn0kkoq96,3tmfv4nepcr7alm1nqraxs62abl8w4,SjTiH6Et,2020-0188,2020-05-21,15:01:38,15:21:11,NA,incomplete,4,filling,1,right,Blue_Triangle_Chess_1.jpg,Blue_Star_Grid_4.jpg,Purple_Plus_Chess_2.jpg,right,1224.7649999335408,true,NA,true
SjTiH6Et,3jhb4bpsgnm0h9bvp7tggfn0kkoq96,3tmfv4nepcr7alm1nqraxs62abl8w4,SjTiH6Et,2020-0188,2020-05-21,15:01:38,15:21:11,NA,incomplete,5,filling,1,right,Purple_Plus_Dots_3.jpg,Purple_Triangle_Stripes_1.jpg,Red_Star_Dots_4.jpg,right,1164.060000097379,true,NA,true
SjTiH6Et,3jhb4bpsgnm0h9bvp7tggfn0kkoq96,3tmfv4nepcr7alm1nqraxs62abl8w4,SjTiH6Et,2020-0188,2020-05-21,15:01:38,15:21:11,NA,incomplete,6,filling,1,left,Blue_Plus_Grid_2.jpg,Green_Star_Grid_4.jpg,Blue_Circle_Dots_1.jpg,left,1146.4700000360608,true,NA,true
SjTiH6Et,3jhb4bpsgnm0h9bvp7tggfn0kkoq96,3tmfv4nepcr7alm1nqraxs62abl8w4,SjTiH6Et,2020-0188,2020-05-21,15:01:38,15:21:11,NA,incomplete,7,filling,1,left,Red_Circle_Chess_1.jpg,Green_Plus_Chess_4.jpg,Red_Triangle_Dots_3.jpg,left,1105.5499999783933,true,NA,true
SjTiH6Et,3jhb4bpsgnm0h9bvp7tggfn0kkoq96,3tmfv4nepcr7alm1nqraxs62abl8w4,SjTiH6Et,2020-0188,2020-05-21,15:01:38,15:21:11,NA,incomplete,8,filling,1,right,Red_Circle_Dots_2.jpg,Red_Star_Chess_3.jpg,Purple_Plus_Dots_4.jpg,right,857.3349999496713,true,NA,true
SjTiH6Et,3jhb4bpsgnm0h9bvp7tggfn0kkoq96,3tmfv4nepcr7alm1nqraxs62abl8w4,SjTiH6Et,2020-0188,2020-05-21,15:01:38,15:21:11,NA,incomplete,9,filling,1,left,Red_Star_Chess_1.jpg,Blue_Circle_Chess_3.jpg,Red_Plus_Grid_2.jpg,left,1290.389999980107,true,NA,true
SjTiH6Et,3jhb4bpsgnm0h9bvp7tggfn0kkoq96,3tmfv4nepcr7alm1nqraxs62abl8w4,SjTiH6Et,2020-0188,2020-05-21,15:01:38,15:21:11,NA,incomplete,10,filling,1,right,Purple_Circle_Dots_1.jpg,Purple_Plus_Chess_2.jpg,Blue_Star_Dots_4.jpg,right,1131.459999945946,true,NA,true
SjTiH6Et,3jhb4bpsgnm0h9bvp7tggfn0kkoq96,3tmfv4nepcr7alm1nqraxs62abl8w4,SjTiH6Et,2020-0188,2020-05-21,15:01:38,15:21:11,NA,incomplete,11,filling,1,right,Green_Circle_Chess_3.jpg,Green_Star_Stripes_1.jpg,Red_Plus_Chess_2.jpg,right,955.8050000341609,true,NA,true
SjTiH6Et,3jhb4bpsgnm0h9bvp7tggfn0kkoq96,3tmfv4nepcr7alm1nqraxs62abl8w4,SjTiH6Et,2020-0188,2020-05-21,15:01:38,15:21:11,NA,incomplete,12,filling,0,right,Red_Circle_Chess_4.jpg,Red_Plus_Grid_1.jpg,Green_Triangle_Chess_2.jpg,right,1144.9300000676885,true,NA,true
SjTiH6Et,3jhb4bpsgnm0h9bvp7tggfn0kkoq96,3tmfv4nepcr7alm1nqraxs62abl8w4,SjTiH6Et,2020-0188,2020-05-21,15:01:38,15:21:11,NA,incomplete,13,filling,1,right,Blue_Triangle_Dots_1.jpg,Blue_Plus_Chess_2.jpg,Red_Circle_Dots_3.jpg,right,935.5050000594929,true,NA,true
SjTiH6Et,3jhb4bpsgnm0h9bvp7tggfn0kkoq96,3tmfv4nepcr7alm1nqraxs62abl8w4,SjTiH6Et,2020-0188,2020-05-21,15:01:38,15:21:11,NA,incomplete,14,filling,1,left,Purple_Triangle_Grid_4.jpg,Blue_Plus_Grid_3.jpg,Purple_Star_Chess_1.jpg,left,1062.2150000417605,true,NA,true
SjTiH6Et,3jhb4bpsgnm0h9bvp7tggfn0kkoq96,3tmfv4nepcr7alm1nqraxs62abl8w4,SjTiH6Et,2020-0188,2020-05-21,15:01:38,15:21:11,NA,incomplete,15,filling,1,right,Green_Circle_Dots_2.jpg,Green_Plus_Chess_3.jpg,Blue_Triangle_Dots_4.jpg,right,1080.9750000480562,true,NA,true
SjTiH6Et,3jhb4bpsgnm0h9bvp7tggfn0kkoq96,3tmfv4nepcr7alm1nqraxs62abl8w4,SjTiH6Et,2020-0188,2020-05-21,15:01:38,15:21:11,NA,incomplete,16,filling,1,left,Green_Star_Chess_1.jpg,Blue_Triangle_Chess_3.jpg,Green_Circle_Dots_4.jpg,left,882.2749999817461,true,NA,true
SjTiH6Et,3jhb4bpsgnm0h9bvp7tggfn0kkoq96,3tmfv4nepcr7alm1nqraxs62abl8w4,SjTiH6Et,2020-0188,2020-05-21,15:01:38,15:21:11,NA,incomplete,17,filling,1,right,Red_Plus_Dots_2.jpg,Red_Circle_Grid_4.jpg,Green_Star_Dots_1.jpg,right,1227.004999993369,true,NA,true
SjTiH6Et,3jhb4bpsgnm0h9bvp7tggfn0kkoq96,3tmfv4nepcr7alm1nqraxs62abl8w4,SjTiH6Et,2020-0188,2020-05-21,15:01:38,15:21:11,NA,incomplete,18,filling,1,right,Red_Plus_Dots_1.jpg,Red_Circle_Stripes_4.jpg,Green_Triangle_Dots_3.jpg,right,1094.760000007227,true,NA,true
SjTiH6Et,3jhb4bpsgnm0h9bvp7tggfn0kkoq96,3tmfv4nepcr7alm1nqraxs62abl8w4,SjTiH6Et,2020-0188,2020-05-21,15:01:38,15:21:11,NA,incomplete,19,filling,1,left,Blue_Star_Chess_3.jpg,Red_Triangle_Chess_1.jpg,Blue_Plus_Grid_2.jpg,left,991.7350000469014,true,NA,true
SjTiH6Et,3jhb4bpsgnm0h9bvp7tggfn0kkoq96,3tmfv4nepcr7alm1nqraxs62abl8w4,SjTiH6Et,2020-0188,2020-05-21,15:01:38,15:21:11,NA,incomplete,20,color,1,left,Red_Star_Dots_1.jpg,Red_Triangle_Chess_3.jpg,Blue_Circle_Dots_2.jpg,right,923.8599999807775,false,NA,true
SjTiH6Et,3jhb4bpsgnm0h9bvp7tggfn0kkoq96,3tmfv4nepcr7alm1nqraxs62abl8w4,SjTiH6Et,2020-0188,2020-05-21,15:01:38,15:21:11,NA,incomplete,21,color,1,left,Green_Star_Stripes_3.jpg,Green_Plus_Grid_4.jpg,Purple_Circle_Stripes_1.jpg,left,875.3649999853224,true,NA,true
SjTiH6Et,3jhb4bpsgnm0h9bvp7tggfn0kkoq96,3tmfv4nepcr7alm1nqraxs62abl8w4,SjTiH6Et,2020-0188,2020-05-21,15:01:38,15:21:11,NA,incomplete,22,color,1,left,Blue_Triangle_Stripes_2.jpg,Blue_Star_Chess_1.jpg,Red_Circle_Stripes_3.jpg,left,900.4249999998137,true,NA,true
SjTiH6Et,3jhb4bpsgnm0h9bvp7tggfn0kkoq96,3tmfv4nepcr7alm1nqraxs62abl8w4,SjTiH6Et,2020-0188,2020-05-21,15:01:38,15:21:11,NA,incomplete,23,color,0,right,Red_Star_Stripes_2.jpg,Blue_Circle_Stripes_1.jpg,Red_Triangle_Chess_3.jpg,right,748.8449999364093,true,NA,true
SjTiH6Et,3jhb4bpsgnm0h9bvp7tggfn0kkoq96,3tmfv4nepcr7alm1nqraxs62abl8w4,SjTiH6Et,2020-0188,2020-05-21,15:01:38,15:21:11,NA,incomplete,24,color,1,left,Green_Circle_Dots_4.jpg,Green_Plus_Chess_3.jpg,Blue_Star_Dots_1.jpg,left,868.1649999925867,true,NA,true
SjTiH6Et,3jhb4bpsgnm0h9bvp7tggfn0kkoq96,3tmfv4nepcr7alm1nqraxs62abl8w4,SjTiH6Et,2020-0188,2020-05-21,15:01:38,15:21:11,NA,incomplete,25,color,1,left,Purple_Plus_Chess_1.jpg,Purple_Triangle_Dots_3.jpg,Red_Circle_Chess_4.jpg,left,556.7899999441579,true,NA,true
SjTiH6Et,3jhb4bpsgnm0h9bvp7tggfn0kkoq96,3tmfv4nepcr7alm1nqraxs62abl8w4,SjTiH6Et,2020-0188,2020-05-21,15:01:38,15:21:11,NA,incomplete,26,color,1,right,Blue_Circle_Chess_1.jpg,Green_Plus_Chess_3.jpg,Blue_Star_Grid_4.jpg,right,554.8350000753999,true,NA,true
SjTiH6Et,3jhb4bpsgnm0h9bvp7tggfn0kkoq96,3tmfv4nepcr7alm1nqraxs62abl8w4,SjTiH6Et,2020-0188,2020-05-21,15:01:38,15:21:11,NA,incomplete,27,color,1,right,Purple_Circle_Chess_1.jpg,Red_Star_Chess_3.jpg,Purple_Triangle_Stripes_2.jpg,right,744.620000012219,true,NA,true
SjTiH6Et,3jhb4bpsgnm0h9bvp7tggfn0kkoq96,3tmfv4nepcr7alm1nqraxs62abl8w4,SjTiH6Et,2020-0188,2020-05-21,15:01:38,15:21:11,NA,incomplete,28,color,1,right,Purple_Plus_Dots_3.jpg,Green_Circle_Dots_2.jpg,Purple_Triangle_Stripes_4.jpg,right,735.4949999134988,true,NA,true
SjTiH6Et,3jhb4bpsgnm0h9bvp7tggfn0kkoq96,3tmfv4nepcr7alm1nqraxs62abl8w4,SjTiH6Et,2020-0188,2020-05-21,15:01:38,15:21:11,NA,incomplete,29,color,1,left,Purple_Plus_Dots_4.jpg,Purple_Triangle_Chess_3.jpg,Blue_Star_Dots_1.jpg,left,774.4249999523163,true,NA,true
SjTiH6Et,3jhb4bpsgnm0h9bvp7tggfn0kkoq96,3tmfv4nepcr7alm1nqraxs62abl8w4,SjTiH6Et,2020-0188,2020-05-21,15:01:38,15:21:11,NA,incomplete,30,color,1,left,Blue_Circle_Grid_2.jpg,Blue_Plus_Dots_3.jpg,Purple_Star_Grid_4.jpg,left,819.3100000498816,true,NA,true
SjTiH6Et,3jhb4bpsgnm0h9bvp7tggfn0kkoq96,3tmfv4nepcr7alm1nqraxs62abl8w4,SjTiH6Et,2020-0188,2020-05-21,15:01:38,15:21:11,NA,incomplete,31,color,0,right,Purple_Star_Dots_2.jpg,Blue_Triangle_Dots_4.jpg,Purple_Plus_Chess_3.jpg,right,615.4349999269471,true,NA,true
SjTiH6Et,3jhb4bpsgnm0h9bvp7tggfn0kkoq96,3tmfv4nepcr7alm1nqraxs62abl8w4,SjTiH6Et,2020-0188,2020-05-21,15:01:38,15:21:11,NA,incomplete,32,color,1,right,Green_Triangle_Grid_3.jpg,Blue_Star_Grid_2.jpg,Green_Plus_Chess_4.jpg,right,659.165000077337,true,NA,true
SjTiH6Et,3jhb4bpsgnm0h9bvp7tggfn0kkoq96,3tmfv4nepcr7alm1nqraxs62abl8w4,SjTiH6Et,2020-0188,2020-05-21,15:01:38,15:21:11,NA,incomplete,33,color,1,right,Blue_Star_Chess_1.jpg,Purple_Triangle_Chess_3.jpg,Blue_Plus_Dots_2.jpg,right,613.0450000055134,true,NA,true
SjTiH6Et,3jhb4bpsgnm0h9bvp7tggfn0kkoq96,3tmfv4nepcr7alm1nqraxs62abl8w4,SjTiH6Et,2020-0188,2020-05-21,15:01:38,15:21:11,NA,incomplete,34,color,0,right,Purple_Circle_Chess_2.jpg,Green_Plus_Chess_3.jpg,Purple_Triangle_Stripes_1.jpg,right,649.6849999530241,true,NA,true
SjTiH6Et,3jhb4bpsgnm0h9bvp7tggfn0kkoq96,3tmfv4nepcr7alm1nqraxs62abl8w4,SjTiH6Et,2020-0188,2020-05-21,15:01:38,15:21:11,NA,incomplete,35,color,0,right,Purple_Plus_Dots_3.jpg,Green_Circle_Dots_4.jpg,Purple_Triangle_Grid_2.jpg,right,611.3350000232458,true,NA,true
SjTiH6Et,3jhb4bpsgnm0h9bvp7tggfn0kkoq96,3tmfv4nepcr7alm1nqraxs62abl8w4,SjTiH6Et,2020-0188,2020-05-21,15:01:38,15:21:11,NA,incomplete,36,color,1,right,Red_Star_Chess_1.jpg,Purple_Circle_Chess_2.jpg,Red_Plus_Stripes_3.jpg,right,663.5000000242144,true,NA,true
SjTiH6Et,3jhb4bpsgnm0h9bvp7tggfn0kkoq96,3tmfv4nepcr7alm1nqraxs62abl8w4,SjTiH6Et,2020-0188,2020-05-21,15:01:38,15:21:11,NA,incomplete,37,color,1,right,Green_Plus_Stripes_1.jpg,Purple_Triangle_Stripes_3.jpg,Green_Star_Grid_2.jpg,right,617.2650000080466,true,NA,true
SjTiH6Et,3jhb4bpsgnm0h9bvp7tggfn0kkoq96,3tmfv4nepcr7alm1nqraxs62abl8w4,SjTiH6Et,2020-0188,2020-05-21,15:01:38,15:21:11,NA,incomplete,38,color,0,right,Red_Triangle_Stripes_4.jpg,Purple_Circle_Stripes_3.jpg,Red_Star_Dots_2.jpg,right,661.1350000603124,true,NA,true
SjTiH6Et,3jhb4bpsgnm0h9bvp7tggfn0kkoq96,3tmfv4nepcr7alm1nqraxs62abl8w4,SjTiH6Et,2020-0188,2020-05-21,15:01:38,15:21:11,NA,incomplete,39,color,1,left,Purple_Plus_Dots_4.jpg,Purple_Triangle_Chess_3.jpg,Blue_Circle_Dots_1.jpg,left,879.6149999834597,true,NA,true
SjTiH6Et,3jhb4bpsgnm0h9bvp7tggfn0kkoq96,3tmfv4nepcr7alm1nqraxs62abl8w4,SjTiH6Et,2020-0188,2020-05-21,15:01:38,15:21:11,NA,incomplete,0,filling,1,right,Red_Plus_Stripes_3.jpg,Red_Triangle_Dots_2.jpg,Green_Circle_Stripes_1.jpg,left,851.5649999026209,false,high,false
SjTiH6Et,3jhb4bpsgnm0h9bvp7tggfn0kkoq96,3tmfv4nepcr7alm1nqraxs62abl8w4,SjTiH6Et,2020-0188,2020-05-21,15:01:38,15:21:11,NA,incomplete,1,filling,1,left,Red_Plus_Chess_3.jpg,Purple_Triangle_Chess_2.jpg,Red_Star_Grid_1.jpg,right,749.1750000044703,false,high,false
SjTiH6Et,3jhb4bpsgnm0h9bvp7tggfn0kkoq96,3tmfv4nepcr7alm1nqraxs62abl8w4,SjTiH6Et,2020-0188,2020-05-21,15:01:38,15:21:11,NA,incomplete,2,filling,1,right,Blue_Circle_Grid_1.jpg,Blue_Plus_Stripes_4.jpg,Purple_Triangle_Grid_3.jpg,right,892.0950000174344,true,high,false
SjTiH6Et,3jhb4bpsgnm0h9bvp7tggfn0kkoq96,3tmfv4nepcr7alm1nqraxs62abl8w4,SjTiH6Et,2020-0188,2020-05-21,15:01:38,15:21:11,NA,incomplete,3,filling,0,right,Blue_Triangle_Stripes_1.jpg,Blue_Plus_Dots_3.jpg,Purple_Circle_Stripes_2.jpg,right,916.2449999712408,true,high,false
SjTiH6Et,3jhb4bpsgnm0h9bvp7tggfn0kkoq96,3tmfv4nepcr7alm1nqraxs62abl8w4,SjTiH6Et,2020-0188,2020-05-21,15:01:38,15:21:11,NA,incomplete,4,filling,1,left,Blue_Triangle_Dots_3.jpg,Purple_Plus_Dots_2.jpg,Blue_Circle_Stripes_1.jpg,left,901.1500000488013,true,high,false
SjTiH6Et,3jhb4bpsgnm0h9bvp7tggfn0kkoq96,3tmfv4nepcr7alm1nqraxs62abl8w4,SjTiH6Et,2020-0188,2020-05-21,15:01:38,15:21:11,NA,incomplete,5,filling,0,left,Purple_Triangle_Chess_3.jpg,Blue_Circle_Chess_1.jpg,Purple_Plus_Dots_2.jpg,left,892.725000041537,true,high,false
SjTiH6Et,3jhb4bpsgnm0h9bvp7tggfn0kkoq96,3tmfv4nepcr7alm1nqraxs62abl8w4,SjTiH6Et,2020-0188,2020-05-21,15:01:38,15:21:11,NA,incomplete,6,filling,0,left,Red_Circle_Chess_4.jpg,Green_Triangle_Chess_3.jpg,Red_Plus_Stripes_1.jpg,left,861.6150000598282,true,high,false
SjTiH6Et,3jhb4bpsgnm0h9bvp7tggfn0kkoq96,3tmfv4nepcr7alm1nqraxs62abl8w4,SjTiH6Et,2020-0188,2020-05-21,15:01:38,15:21:11,NA,incomplete,7,filling,1,left,Green_Star_Chess_3.jpg,Blue_Circle_Chess_4.jpg,Green_Plus_Stripes_2.jpg,left,847.3150000208989,true,high,false
SjTiH6Et,3jhb4bpsgnm0h9bvp7tggfn0kkoq96,3tmfv4nepcr7alm1nqraxs62abl8w4,SjTiH6Et,2020-0188,2020-05-21,15:01:38,15:21:11,NA,incomplete,8,filling,1,left,Blue_Star_Stripes_4.jpg,Red_Circle_Stripes_1.jpg,Blue_Plus_Dots_2.jpg,left,866.1850000498816,true,high,false
SjTiH6Et,3jhb4bpsgnm0h9bvp7tggfn0kkoq96,3tmfv4nepcr7alm1nqraxs62abl8w4,SjTiH6Et,2020-0188,2020-05-21,15:01:38,15:21:11,NA,incomplete,9,filling,1,left,Red_Triangle_Grid_2.jpg,Purple_Star_Grid_3.jpg,Red_Plus_Dots_4.jpg,left,845.1999999815598,true,high,false
SjTiH6Et,3jhb4bpsgnm0h9bvp7tggfn0kkoq96,3tmfv4nepcr7alm1nqraxs62abl8w4,SjTiH6Et,2020-0188,2020-05-21,15:01:38,15:21:11,NA,incomplete,10,color,1,right,Green_Circle_Grid_3.jpg,Blue_Plus_Grid_4.jpg,Green_Star_Chess_1.jpg,left,790.6850000144914,false,high,false
SjTiH6Et,3jhb4bpsgnm0h9bvp7tggfn0kkoq96,3tmfv4nepcr7alm1nqraxs62abl8w4,SjTiH6Et,2020-0188,2020-05-21,15:01:38,15:21:11,NA,incomplete,11,color,0,right,Red_Plus_Grid_1.jpg,Blue_Star_Grid_2.jpg,Red_Circle_Dots_4.jpg,left,779.3049999745563,false,high,false
SjTiH6Et,3jhb4bpsgnm0h9bvp7tggfn0kkoq96,3tmfv4nepcr7alm1nqraxs62abl8w4,SjTiH6Et,2020-0188,2020-05-21,15:01:38,15:21:11,NA,incomplete,12,color,0,left,Purple_Circle_Grid_3.jpg,Purple_Triangle_Chess_4.jpg,Red_Plus_Grid_1.jpg,right,1217.5999999744818,false,high,false
SjTiH6Et,3jhb4bpsgnm0h9bvp7tggfn0kkoq96,3tmfv4nepcr7alm1nqraxs62abl8w4,SjTiH6Et,2020-0188,2020-05-21,15:01:38,15:21:11,NA,incomplete,13,color,1,right,Purple_Star_Stripes_4.jpg,Red_Triangle_Stripes_3.jpg,Purple_Plus_Grid_2.jpg,left,893.2600000407547,false,high,false
SjTiH6Et,3jhb4bpsgnm0h9bvp7tggfn0kkoq96,3tmfv4nepcr7alm1nqraxs62abl8w4,SjTiH6Et,2020-0188,2020-05-21,15:01:38,15:21:11,NA,incomplete,14,color,0,right,Red_Circle_Grid_2.jpg,Blue_Plus_Grid_4.jpg,Red_Triangle_Dots_3.jpg,left,790.1749999728054,false,high,false
SjTiH6Et,3jhb4bpsgnm0h9bvp7tggfn0kkoq96,3tmfv4nepcr7alm1nqraxs62abl8w4,SjTiH6Et,2020-0188,2020-05-21,15:01:38,15:21:11,NA,incomplete,15,color,1,left,Purple_Plus_Dots_3.jpg,Purple_Triangle_Grid_4.jpg,Green_Circle_Dots_1.jpg,right,866.3599999854341,false,high,false
SjTiH6Et,3jhb4bpsgnm0h9bvp7tggfn0kkoq96,3tmfv4nepcr7alm1nqraxs62abl8w4,SjTiH6Et,2020-0188,2020-05-21,15:01:38,15:21:11,NA,incomplete,16,color,1,left,Blue_Circle_Stripes_1.jpg,Blue_Triangle_Grid_4.jpg,Red_Plus_Stripes_3.jpg,right,924.6150000253692,false,high,false
SjTiH6Et,3jhb4bpsgnm0h9bvp7tggfn0kkoq96,3tmfv4nepcr7alm1nqraxs62abl8w4,SjTiH6Et,2020-0188,2020-05-21,15:01:38,15:21:11,NA,incomplete,17,color,0,left,Green_Circle_Dots_3.jpg,Green_Plus_Chess_2.jpg,Blue_Star_Dots_1.jpg,right,1051.8900000024587,false,high,false
SjTiH6Et,3jhb4bpsgnm0h9bvp7tggfn0kkoq96,3tmfv4nepcr7alm1nqraxs62abl8w4,SjTiH6Et,2020-0188,2020-05-21,15:01:38,15:21:11,NA,incomplete,18,color,0,right,Purple_Star_Grid_4.jpg,Blue_Plus_Grid_1.jpg,Purple_Circle_Dots_2.jpg,left,877.7449999470264,false,high,false
SjTiH6Et,3jhb4bpsgnm0h9bvp7tggfn0kkoq96,3tmfv4nepcr7alm1nqraxs62abl8w4,SjTiH6Et,2020-0188,2020-05-21,15:01:38,15:21:11,NA,incomplete,19,color,1,right,Red_Plus_Stripes_4.jpg,Blue_Circle_Stripes_3.jpg,Red_Star_Grid_1.jpg,left,1151.9899999257177,false,high,false
SjTiH6Et,3jhb4bpsgnm0h9bvp7tggfn0kkoq96,3tmfv4nepcr7alm1nqraxs62abl8w4,SjTiH6Et,2020-0188,2020-05-21,15:01:38,15:21:11,NA,incomplete,20,filling,1,left,Purple_Plus_Chess_4.jpg,Blue_Circle_Chess_1.jpg,Purple_Star_Stripes_3.jpg,left,1173.339999979362,true,high,false
SjTiH6Et,3jhb4bpsgnm0h9bvp7tggfn0kkoq96,3tmfv4nepcr7alm1nqraxs62abl8w4,SjTiH6Et,2020-0188,2020-05-21,15:01:38,15:21:11,NA,incomplete,21,filling,1,left,Blue_Circle_Grid_4.jpg,Green_Plus_Grid_1.jpg,Blue_Star_Chess_3.jpg,left,1010.7849999330938,true,high,false
SjTiH6Et,3jhb4bpsgnm0h9bvp7tggfn0kkoq96,3tmfv4nepcr7alm1nqraxs62abl8w4,SjTiH6Et,2020-0188,2020-05-21,15:01:38,15:21:11,NA,incomplete,22,filling,1,right,Green_Circle_Grid_3.jpg,Green_Plus_Chess_2.jpg,Blue_Triangle_Grid_1.jpg,right,926.3150000479072,true,high,false
SjTiH6Et,3jhb4bpsgnm0h9bvp7tggfn0kkoq96,3tmfv4nepcr7alm1nqraxs62abl8w4,SjTiH6Et,2020-0188,2020-05-21,15:01:38,15:21:11,NA,incomplete,23,filling,1,right,Red_Triangle_Chess_2.jpg,Red_Star_Dots_3.jpg,Purple_Plus_Chess_4.jpg,right,885.9749999828637,true,high,false
SjTiH6Et,3jhb4bpsgnm0h9bvp7tggfn0kkoq96,3tmfv4nepcr7alm1nqraxs62abl8w4,SjTiH6Et,2020-0188,2020-05-21,15:01:38,15:21:11,NA,incomplete,24,filling,1,left,Red_Circle_Grid_3.jpg,Purple_Plus_Grid_2.jpg,Red_Triangle_Stripes_1.jpg,left,831.3449999550357,true,high,false
SjTiH6Et,3jhb4bpsgnm0h9bvp7tggfn0kkoq96,3tmfv4nepcr7alm1nqraxs62abl8w4,SjTiH6Et,2020-0188,2020-05-21,15:01:38,15:21:11,NA,incomplete,25,filling,1,right,Green_Circle_Grid_2.jpg,Green_Star_Chess_1.jpg,Purple_Plus_Grid_3.jpg,right,826.2949999189004,true,high,false
SjTiH6Et,3jhb4bpsgnm0h9bvp7tggfn0kkoq96,3tmfv4nepcr7alm1nqraxs62abl8w4,SjTiH6Et,2020-0188,2020-05-21,15:01:38,15:21:11,NA,incomplete,26,filling,0,left,Purple_Plus_Dots_3.jpg,Red_Circle_Dots_1.jpg,Purple_Triangle_Chess_4.jpg,left,901.2349999975413,true,high,false
SjTiH6Et,3jhb4bpsgnm0h9bvp7tggfn0kkoq96,3tmfv4nepcr7alm1nqraxs62abl8w4,SjTiH6Et,2020-0188,2020-05-21,15:01:38,15:21:11,NA,incomplete,27,filling,1,right,Blue_Plus_Dots_4.jpg,Blue_Circle_Grid_2.jpg,Purple_Star_Dots_1.jpg,right,765.3749999590218,true,high,false
SjTiH6Et,3jhb4bpsgnm0h9bvp7tggfn0kkoq96,3tmfv4nepcr7alm1nqraxs62abl8w4,SjTiH6Et,2020-0188,2020-05-21,15:01:38,15:21:11,NA,incomplete,28,filling,1,left,Purple_Star_Grid_3.jpg,Red_Plus_Grid_4.jpg,Purple_Triangle_Dots_2.jpg,left,867.1150000300258,true,high,false
SjTiH6Et,3jhb4bpsgnm0h9bvp7tggfn0kkoq96,3tmfv4nepcr7alm1nqraxs62abl8w4,SjTiH6Et,2020-0188,2020-05-21,15:01:38,15:21:11,NA,incomplete,29,filling,1,right,Red_Star_Grid_4.jpg,Red_Circle_Chess_3.jpg,Purple_Triangle_Grid_1.jpg,right,742.0649999985471,true,high,false
SjTiH6Et,3jhb4bpsgnm0h9bvp7tggfn0kkoq96,3tmfv4nepcr7alm1nqraxs62abl8w4,SjTiH6Et,2020-0188,2020-05-21,15:01:38,15:21:11,NA,incomplete,30,color,1,left,Red_Triangle_Stripes_2.jpg,Red_Star_Dots_3.jpg,Purple_Plus_Stripes_1.jpg,right,787.8649999620393,false,high,false
SjTiH6Et,3jhb4bpsgnm0h9bvp7tggfn0kkoq96,3tmfv4nepcr7alm1nqraxs62abl8w4,SjTiH6Et,2020-0188,2020-05-21,15:01:38,15:21:11,NA,incomplete,31,color,1,right,Blue_Circle_Chess_2.jpg,Red_Triangle_Chess_1.jpg,Blue_Plus_Grid_4.jpg,left,792.5599999725819,false,high,false
SjTiH6Et,3jhb4bpsgnm0h9bvp7tggfn0kkoq96,3tmfv4nepcr7alm1nqraxs62abl8w4,SjTiH6Et,2020-0188,2020-05-21,15:01:38,15:21:11,NA,incomplete,32,color,1,right,Red_Triangle_Dots_4.jpg,Blue_Star_Dots_2.jpg,Red_Circle_Stripes_1.jpg,left,829.1500000050291,false,high,false
SjTiH6Et,3jhb4bpsgnm0h9bvp7tggfn0kkoq96,3tmfv4nepcr7alm1nqraxs62abl8w4,SjTiH6Et,2020-0188,2020-05-21,15:01:38,15:21:11,NA,incomplete,33,color,1,left,Red_Circle_Grid_1.jpg,Red_Triangle_Dots_4.jpg,Green_Plus_Grid_3.jpg,right,920.6199999898672,false,high,false
SjTiH6Et,3jhb4bpsgnm0h9bvp7tggfn0kkoq96,3tmfv4nepcr7alm1nqraxs62abl8w4,SjTiH6Et,2020-0188,2020-05-21,15:01:38,15:21:11,NA,incomplete,34,color,1,right,Purple_Plus_Chess_1.jpg,Green_Circle_Chess_4.jpg,Purple_Star_Dots_2.jpg,right,656.4600000856444,true,high,false
SjTiH6Et,3jhb4bpsgnm0h9bvp7tggfn0kkoq96,3tmfv4nepcr7alm1nqraxs62abl8w4,SjTiH6Et,2020-0188,2020-05-21,15:01:38,15:21:11,NA,incomplete,35,color,0,left,Purple_Plus_Stripes_3.jpg,Purple_Triangle_Grid_4.jpg,Red_Star_Stripes_1.jpg,left,666.0850000334904,true,high,false
SjTiH6Et,3jhb4bpsgnm0h9bvp7tggfn0kkoq96,3tmfv4nepcr7alm1nqraxs62abl8w4,SjTiH6Et,2020-0188,2020-05-21,15:01:38,15:21:11,NA,incomplete,36,color,0,left,Green_Plus_Grid_4.jpg,Green_Triangle_Stripes_2.jpg,Blue_Star_Grid_3.jpg,right,1540.2349999640137,false,high,false
SjTiH6Et,3jhb4bpsgnm0h9bvp7tggfn0kkoq96,3tmfv4nepcr7alm1nqraxs62abl8w4,SjTiH6Et,2020-0188,2020-05-21,15:01:38,15:21:11,NA,incomplete,37,color,1,right,Green_Star_Stripes_4.jpg,Red_Circle_Stripes_3.jpg,Green_Triangle_Dots_1.jpg,left,1138.840000028722,false,high,false
SjTiH6Et,3jhb4bpsgnm0h9bvp7tggfn0kkoq96,3tmfv4nepcr7alm1nqraxs62abl8w4,SjTiH6Et,2020-0188,2020-05-21,15:01:38,15:21:11,NA,incomplete,38,color,1,left,Blue_Triangle_Stripes_1.jpg,Blue_Circle_Dots_3.jpg,Purple_Plus_Stripes_2.jpg,left,738.6300000362098,true,high,false
SjTiH6Et,3jhb4bpsgnm0h9bvp7tggfn0kkoq96,3tmfv4nepcr7alm1nqraxs62abl8w4,SjTiH6Et,2020-0188,2020-05-21,15:01:38,15:21:11,NA,incomplete,39,color,0,right,Green_Star_Dots_1.jpg,Red_Circle_Dots_2.jpg,Green_Triangle_Stripes_3.jpg,right,576.1149999452755,true,high,false
SjTiH6Et,3jhb4bpsgnm0h9bvp7tggfn0kkoq96,3tmfv4nepcr7alm1nqraxs62abl8w4,SjTiH6Et,2020-0188,2020-05-21,15:01:38,15:21:11,NA,incomplete,40,filling,1,left,Red_Plus_Stripes_2.jpg,Green_Circle_Stripes_1.jpg,Red_Triangle_Grid_4.jpg,right,485.42499996256083,false,high,false
SjTiH6Et,3jhb4bpsgnm0h9bvp7tggfn0kkoq96,3tmfv4nepcr7alm1nqraxs62abl8w4,SjTiH6Et,2020-0188,2020-05-21,15:01:38,15:21:11,NA,incomplete,41,filling,1,left,Purple_Plus_Grid_1.jpg,Red_Star_Grid_2.jpg,Purple_Triangle_Dots_4.jpg,right,678.6850000498816,false,high,false
SjTiH6Et,3jhb4bpsgnm0h9bvp7tggfn0kkoq96,3tmfv4nepcr7alm1nqraxs62abl8w4,SjTiH6Et,2020-0188,2020-05-21,15:01:38,15:21:11,NA,incomplete,42,filling,1,left,Green_Triangle_Dots_2.jpg,Purple_Circle_Dots_3.jpg,Green_Star_Grid_1.jpg,left,1527.4049999425188,true,high,false
SjTiH6Et,3jhb4bpsgnm0h9bvp7tggfn0kkoq96,3tmfv4nepcr7alm1nqraxs62abl8w4,SjTiH6Et,2020-0188,2020-05-21,15:01:38,15:21:11,NA,incomplete,43,filling,1,left,Purple_Plus_Chess_4.jpg,Red_Star_Chess_3.jpg,Purple_Circle_Stripes_2.jpg,left,999.4749999605119,true,high,false
SjTiH6Et,3jhb4bpsgnm0h9bvp7tggfn0kkoq96,3tmfv4nepcr7alm1nqraxs62abl8w4,SjTiH6Et,2020-0188,2020-05-21,15:01:38,15:21:11,NA,incomplete,44,filling,1,right,Red_Plus_Dots_4.jpg,Red_Circle_Grid_3.jpg,Green_Star_Dots_2.jpg,right,924.1099999053404,true,high,false
SjTiH6Et,3jhb4bpsgnm0h9bvp7tggfn0kkoq96,3tmfv4nepcr7alm1nqraxs62abl8w4,SjTiH6Et,2020-0188,2020-05-21,15:01:38,15:21:11,NA,incomplete,45,filling,1,left,Red_Triangle_Chess_2.jpg,Green_Star_Chess_4.jpg,Red_Circle_Grid_3.jpg,left,874.8549999436364,true,high,false
SjTiH6Et,3jhb4bpsgnm0h9bvp7tggfn0kkoq96,3tmfv4nepcr7alm1nqraxs62abl8w4,SjTiH6Et,2020-0188,2020-05-21,15:01:38,15:21:11,NA,incomplete,46,filling,1,left,Blue_Plus_Grid_4.jpg,Green_Triangle_Grid_2.jpg,Blue_Star_Stripes_3.jpg,left,1132.1650000754744,true,high,false
SjTiH6Et,3jhb4bpsgnm0h9bvp7tggfn0kkoq96,3tmfv4nepcr7alm1nqraxs62abl8w4,SjTiH6Et,2020-0188,2020-05-21,15:01:38,15:21:11,NA,incomplete,47,filling,1,right,Purple_Circle_Grid_4.jpg,Purple_Triangle_Stripes_2.jpg,Green_Star_Grid_3.jpg,right,891.8850000482053,true,high,false
SjTiH6Et,3jhb4bpsgnm0h9bvp7tggfn0kkoq96,3tmfv4nepcr7alm1nqraxs62abl8w4,SjTiH6Et,2020-0188,2020-05-21,15:01:38,15:21:11,NA,incomplete,48,filling,1,right,Green_Triangle_Chess_1.jpg,Green_Circle_Stripes_4.jpg,Red_Plus_Chess_2.jpg,right,805.0049999728799,true,high,false
SjTiH6Et,3jhb4bpsgnm0h9bvp7tggfn0kkoq96,3tmfv4nepcr7alm1nqraxs62abl8w4,SjTiH6Et,2020-0188,2020-05-21,15:01:38,15:21:11,NA,incomplete,49,filling,0,left,Red_Plus_Grid_4.jpg,Blue_Triangle_Grid_3.jpg,Red_Circle_Dots_1.jpg,left,960.3699999861419,true,high,false
SjTiH6Et,3jhb4bpsgnm0h9bvp7tggfn0kkoq96,3tmfv4nepcr7alm1nqraxs62abl8w4,SjTiH6Et,2020-0188,2020-05-21,15:01:38,15:21:11,NA,incomplete,50,color,0,left,Green_Triangle_Dots_2.jpg,Green_Star_Grid_4.jpg,Red_Plus_Dots_1.jpg,right,870.604999945499,false,high,false
SjTiH6Et,3jhb4bpsgnm0h9bvp7tggfn0kkoq96,3tmfv4nepcr7alm1nqraxs62abl8w4,SjTiH6Et,2020-0188,2020-05-21,15:01:38,15:21:11,NA,incomplete,51,color,1,left,Blue_Triangle_Grid_2.jpg,Blue_Plus_Dots_1.jpg,Purple_Star_Grid_3.jpg,right,775.7599999895319,false,high,false
SjTiH6Et,3jhb4bpsgnm0h9bvp7tggfn0kkoq96,3tmfv4nepcr7alm1nqraxs62abl8w4,SjTiH6Et,2020-0188,2020-05-21,15:01:38,15:21:11,NA,incomplete,52,color,1,left,Purple_Star_Stripes_2.jpg,Purple_Triangle_Grid_1.jpg,Red_Plus_Stripes_3.jpg,right,917.3250000458211,false,high,false
SjTiH6Et,3jhb4bpsgnm0h9bvp7tggfn0kkoq96,3tmfv4nepcr7alm1nqraxs62abl8w4,SjTiH6Et,2020-0188,2020-05-21,15:01:38,15:21:11,NA,incomplete,53,color,1,right,Blue_Triangle_Grid_4.jpg,Green_Star_Grid_3.jpg,Blue_Circle_Stripes_1.jpg,left,925.9750000201166,false,high,false
SjTiH6Et,3jhb4bpsgnm0h9bvp7tggfn0kkoq96,3tmfv4nepcr7alm1nqraxs62abl8w4,SjTiH6Et,2020-0188,2020-05-21,15:01:38,15:21:11,NA,incomplete,54,color,1,right,Purple_Plus_Chess_4.jpg,Green_Circle_Chess_2.jpg,Purple_Triangle_Dots_1.jpg,left,980.6350000435486,false,high,false
SjTiH6Et,3jhb4bpsgnm0h9bvp7tggfn0kkoq96,3tmfv4nepcr7alm1nqraxs62abl8w4,SjTiH6Et,2020-0188,2020-05-21,15:01:38,15:21:11,NA,incomplete,55,color,1,left,Green_Plus_Dots_4.jpg,Green_Triangle_Grid_2.jpg,Red_Circle_Dots_1.jpg,right,921.8550000805408,false,high,false
SjTiH6Et,3jhb4bpsgnm0h9bvp7tggfn0kkoq96,3tmfv4nepcr7alm1nqraxs62abl8w4,SjTiH6Et,2020-0188,2020-05-21,15:01:38,15:21:11,NA,incomplete,56,color,1,left,Red_Triangle_Chess_4.jpg,Red_Star_Stripes_3.jpg,Blue_Circle_Chess_2.jpg,left,1001.0400000028312,true,high,false
SjTiH6Et,3jhb4bpsgnm0h9bvp7tggfn0kkoq96,3tmfv4nepcr7alm1nqraxs62abl8w4,SjTiH6Et,2020-0188,2020-05-21,15:01:38,15:21:11,NA,incomplete,57,color,1,left,Green_Star_Chess_3.jpg,Green_Circle_Dots_2.jpg,Blue_Plus_Chess_4.jpg,left,669.4149998947978,true,high,false
SjTiH6Et,3jhb4bpsgnm0h9bvp7tggfn0kkoq96,3tmfv4nepcr7alm1nqraxs62abl8w4,SjTiH6Et,2020-0188,2020-05-21,15:01:38,15:21:11,NA,incomplete,58,color,1,left,Purple_Circle_Stripes_4.jpg,Purple_Triangle_Grid_1.jpg,Red_Plus_Stripes_2.jpg,left,647.5150000769645,true,high,false
SjTiH6Et,3jhb4bpsgnm0h9bvp7tggfn0kkoq96,3tmfv4nepcr7alm1nqraxs62abl8w4,SjTiH6Et,2020-0188,2020-05-21,15:01:38,15:21:11,NA,incomplete,59,color,1,right,Green_Plus_Chess_4.jpg,Red_Circle_Chess_1.jpg,Green_Star_Stripes_3.jpg,right,457.5450000120327,true,high,false
SjTiH6Et,3jhb4bpsgnm0h9bvp7tggfn0kkoq96,3tmfv4nepcr7alm1nqraxs62abl8w4,SjTiH6Et,2020-0188,2020-05-21,15:01:38,15:21:11,NA,incomplete,60,filling,1,left,Red_Plus_Stripes_3.jpg,Green_Star_Stripes_2.jpg,Red_Circle_Grid_1.jpg,right,595.4749999800697,false,high,false
SjTiH6Et,3jhb4bpsgnm0h9bvp7tggfn0kkoq96,3tmfv4nepcr7alm1nqraxs62abl8w4,SjTiH6Et,2020-0188,2020-05-21,15:01:38,15:21:11,NA,incomplete,61,filling,1,left,Red_Plus_Chess_3.jpg,Blue_Circle_Chess_4.jpg,Red_Star_Dots_1.jpg,right,439.9799999082461,false,high,false
SjTiH6Et,3jhb4bpsgnm0h9bvp7tggfn0kkoq96,3tmfv4nepcr7alm1nqraxs62abl8w4,SjTiH6Et,2020-0188,2020-05-21,15:01:38,15:21:11,NA,incomplete,62,filling,1,left,Green_Plus_Stripes_2.jpg,Red_Triangle_Stripes_3.jpg,Green_Circle_Chess_4.jpg,right,890.8599999267608,false,high,false
SjTiH6Et,3jhb4bpsgnm0h9bvp7tggfn0kkoq96,3tmfv4nepcr7alm1nqraxs62abl8w4,SjTiH6Et,2020-0188,2020-05-21,15:01:38,15:21:11,NA,incomplete,63,filling,1,left,Green_Star_Stripes_1.jpg,Purple_Circle_Stripes_2.jpg,Green_Triangle_Chess_4.jpg,left,844.2450000438839,true,high,false
SjTiH6Et,3jhb4bpsgnm0h9bvp7tggfn0kkoq96,3tmfv4nepcr7alm1nqraxs62abl8w4,SjTiH6Et,2020-0188,2020-05-21,15:01:38,15:21:11,NA,incomplete,64,filling,0,left,Red_Circle_Chess_3.jpg,Blue_Plus_Chess_4.jpg,Red_Star_Stripes_2.jpg,left,1102.309999987483,true,high,false
SjTiH6Et,3jhb4bpsgnm0h9bvp7tggfn0kkoq96,3tmfv4nepcr7alm1nqraxs62abl8w4,SjTiH6Et,2020-0188,2020-05-21,15:01:38,15:21:11,NA,incomplete,65,filling,1,right,Purple_Star_Dots_2.jpg,Purple_Circle_Chess_4.jpg,Red_Triangle_Dots_1.jpg,right,1158.2499999785796,true,high,false
SjTiH6Et,3jhb4bpsgnm0h9bvp7tggfn0kkoq96,3tmfv4nepcr7alm1nqraxs62abl8w4,SjTiH6Et,2020-0188,2020-05-21,15:01:38,15:21:11,NA,incomplete,66,filling,0,left,Green_Plus_Dots_2.jpg,Red_Triangle_Dots_1.jpg,Green_Star_Grid_4.jpg,left,1156.25,true,high,false
SjTiH6Et,3jhb4bpsgnm0h9bvp7tggfn0kkoq96,3tmfv4nepcr7alm1nqraxs62abl8w4,SjTiH6Et,2020-0188,2020-05-21,15:01:38,15:21:11,NA,incomplete,67,filling,1,left,Red_Triangle_Chess_2.jpg,Green_Circle_Chess_1.jpg,Red_Plus_Grid_4.jpg,left,914.9949999991804,true,high,false
SjTiH6Et,3jhb4bpsgnm0h9bvp7tggfn0kkoq96,3tmfv4nepcr7alm1nqraxs62abl8w4,SjTiH6Et,2020-0188,2020-05-21,15:01:38,15:21:11,NA,incomplete,68,filling,1,left,Purple_Star_Chess_2.jpg,Red_Circle_Chess_1.jpg,Purple_Triangle_Stripes_3.jpg,left,810.50999998115,true,high,false
SjTiH6Et,3jhb4bpsgnm0h9bvp7tggfn0kkoq96,3tmfv4nepcr7alm1nqraxs62abl8w4,SjTiH6Et,2020-0188,2020-05-21,15:01:38,15:21:11,NA,incomplete,69,filling,1,left,Red_Plus_Stripes_3.jpg,Blue_Circle_Stripes_1.jpg,Red_Star_Dots_2.jpg,left,854.2450000531971,true,high,false
SjTiH6Et,3jhb4bpsgnm0h9bvp7tggfn0kkoq96,3tmfv4nepcr7alm1nqraxs62abl8w4,SjTiH6Et,2020-0188,2020-05-21,15:01:38,15:21:11,NA,incomplete,70,color,1,left,Blue_Star_Chess_1.jpg,Blue_Plus_Dots_3.jpg,Red_Triangle_Chess_4.jpg,right,896.6749999672174,false,high,false
SjTiH6Et,3jhb4bpsgnm0h9bvp7tggfn0kkoq96,3tmfv4nepcr7alm1nqraxs62abl8w4,SjTiH6Et,2020-0188,2020-05-21,15:01:38,15:21:11,NA,incomplete,71,color,1,right,Purple_Plus_Grid_3.jpg,Red_Circle_Grid_4.jpg,Purple_Triangle_Stripes_2.jpg,left,1272.969999932684,false,high,false
SjTiH6Et,3jhb4bpsgnm0h9bvp7tggfn0kkoq96,3tmfv4nepcr7alm1nqraxs62abl8w4,SjTiH6Et,2020-0188,2020-05-21,15:01:38,15:21:11,NA,incomplete,72,color,1,left,Green_Triangle_Grid_2.jpg,Green_Star_Chess_4.jpg,Purple_Circle_Grid_3.jpg,right,1259.0149999596179,false,high,false
SjTiH6Et,3jhb4bpsgnm0h9bvp7tggfn0kkoq96,3tmfv4nepcr7alm1nqraxs62abl8w4,SjTiH6Et,2020-0188,2020-05-21,15:01:38,15:21:11,NA,incomplete,73,color,1,right,Red_Plus_Chess_3.jpg,Blue_Triangle_Chess_2.jpg,Red_Star_Stripes_1.jpg,right,1220.534999971278,true,high,false
SjTiH6Et,3jhb4bpsgnm0h9bvp7tggfn0kkoq96,3tmfv4nepcr7alm1nqraxs62abl8w4,SjTiH6Et,2020-0188,2020-05-21,15:01:38,15:21:11,NA,incomplete,74,color,1,right,Red_Circle_Grid_3.jpg,Purple_Star_Grid_4.jpg,Red_Triangle_Chess_1.jpg,right,799.9650000128895,true,high,false
SjTiH6Et,3jhb4bpsgnm0h9bvp7tggfn0kkoq96,3tmfv4nepcr7alm1nqraxs62abl8w4,SjTiH6Et,2020-0188,2020-05-21,15:01:38,15:21:11,NA,incomplete,75,color,1,right,Blue_Triangle_Chess_1.jpg,Red_Star_Chess_2.jpg,Blue_Plus_Stripes_4.jpg,right,859.5050000585616,true,high,false
SjTiH6Et,3jhb4bpsgnm0h9bvp7tggfn0kkoq96,3tmfv4nepcr7alm1nqraxs62abl8w4,SjTiH6Et,2020-0188,2020-05-21,15:01:38,15:21:11,NA,incomplete,76,color,1,left,Green_Star_Grid_4.jpg,Green_Plus_Dots_2.jpg,Blue_Circle_Grid_1.jpg,left,655.0199999473989,true,high,false
SjTiH6Et,3jhb4bpsgnm0h9bvp7tggfn0kkoq96,3tmfv4nepcr7alm1nqraxs62abl8w4,SjTiH6Et,2020-0188,2020-05-21,15:01:38,15:21:11,NA,incomplete,77,color,0,left,Purple_Star_Chess_4.jpg,Purple_Triangle_Stripes_2.jpg,Green_Plus_Chess_1.jpg,left,889.0399999218062,true,high,false
SjTiH6Et,3jhb4bpsgnm0h9bvp7tggfn0kkoq96,3tmfv4nepcr7alm1nqraxs62abl8w4,SjTiH6Et,2020-0188,2020-05-21,15:01:38,15:21:11,NA,incomplete,78,color,0,right,Purple_Star_Chess_3.jpg,Red_Plus_Chess_1.jpg,Purple_Triangle_Stripes_2.jpg,right,552.7899999869987,true,high,false
SjTiH6Et,3jhb4bpsgnm0h9bvp7tggfn0kkoq96,3tmfv4nepcr7alm1nqraxs62abl8w4,SjTiH6Et,2020-0188,2020-05-21,15:01:38,15:21:11,NA,incomplete,79,color,1,right,Red_Plus_Stripes_2.jpg,Green_Star_Stripes_4.jpg,Red_Circle_Chess_3.jpg,right,703.1349999597296,true,high,false
SjTiH6Et,3jhb4bpsgnm0h9bvp7tggfn0kkoq96,3tmfv4nepcr7alm1nqraxs62abl8w4,SjTiH6Et,2020-0188,2020-05-21,15:01:38,15:21:11,NA,incomplete,80,filling,0,right,Blue_Star_Dots_2.jpg,Blue_Triangle_Stripes_4.jpg,Green_Plus_Dots_3.jpg,left,623.2499999459833,false,high,false
SjTiH6Et,3jhb4bpsgnm0h9bvp7tggfn0kkoq96,3tmfv4nepcr7alm1nqraxs62abl8w4,SjTiH6Et,2020-0188,2020-05-21,15:01:38,15:21:11,NA,incomplete,81,filling,1,right,Blue_Circle_Dots_1.jpg,Blue_Star_Stripes_2.jpg,Red_Plus_Dots_4.jpg,left,627.15999991633,false,high,false
SjTiH6Et,3jhb4bpsgnm0h9bvp7tggfn0kkoq96,3tmfv4nepcr7alm1nqraxs62abl8w4,SjTiH6Et,2020-0188,2020-05-21,15:01:38,15:21:11,NA,incomplete,82,filling,1,right,Blue_Circle_Dots_3.jpg,Blue_Star_Grid_4.jpg,Purple_Plus_Dots_2.jpg,left,583.08999997098,false,high,false
SjTiH6Et,3jhb4bpsgnm0h9bvp7tggfn0kkoq96,3tmfv4nepcr7alm1nqraxs62abl8w4,SjTiH6Et,2020-0188,2020-05-21,15:01:38,15:21:11,NA,incomplete,83,filling,1,left,Red_Star_Grid_3.jpg,Purple_Plus_Grid_4.jpg,Red_Circle_Dots_1.jpg,left,1131.3800000352785,true,high,false
SjTiH6Et,3jhb4bpsgnm0h9bvp7tggfn0kkoq96,3tmfv4nepcr7alm1nqraxs62abl8w4,SjTiH6Et,2020-0188,2020-05-21,15:01:38,15:21:11,NA,incomplete,84,filling,1,right,Blue_Circle_Stripes_3.jpg,Blue_Plus_Chess_2.jpg,Red_Triangle_Stripes_4.jpg,right,834.6249999012798,true,high,false
SjTiH6Et,3jhb4bpsgnm0h9bvp7tggfn0kkoq96,3tmfv4nepcr7alm1nqraxs62abl8w4,SjTiH6Et,2020-0188,2020-05-21,15:01:38,15:21:11,NA,incomplete,85,filling,0,left,Green_Triangle_Chess_2.jpg,Red_Star_Chess_1.jpg,Green_Plus_Grid_3.jpg,left,1061.4100000821054,true,high,false
SjTiH6Et,3jhb4bpsgnm0h9bvp7tggfn0kkoq96,3tmfv4nepcr7alm1nqraxs62abl8w4,SjTiH6Et,2020-0188,2020-05-21,15:01:38,15:21:11,NA,incomplete,86,filling,1,left,Red_Plus_Chess_2.jpg,Green_Triangle_Chess_4.jpg,Red_Circle_Grid_1.jpg,left,871.0649999557063,true,high,false
SjTiH6Et,3jhb4bpsgnm0h9bvp7tggfn0kkoq96,3tmfv4nepcr7alm1nqraxs62abl8w4,SjTiH6Et,2020-0188,2020-05-21,15:01:38,15:21:11,NA,incomplete,87,filling,1,right,Green_Triangle_Stripes_2.jpg,Green_Plus_Grid_4.jpg,Blue_Star_Stripes_3.jpg,left,945.3799999319017,false,high,false
SjTiH6Et,3jhb4bpsgnm0h9bvp7tggfn0kkoq96,3tmfv4nepcr7alm1nqraxs62abl8w4,SjTiH6Et,2020-0188,2020-05-21,15:01:38,15:21:11,NA,incomplete,88,filling,1,right,Green_Triangle_Grid_3.jpg,Green_Plus_Dots_4.jpg,Blue_Star_Grid_1.jpg,right,1071.4399999706075,true,high,false
SjTiH6Et,3jhb4bpsgnm0h9bvp7tggfn0kkoq96,3tmfv4nepcr7alm1nqraxs62abl8w4,SjTiH6Et,2020-0188,2020-05-21,15:01:38,15:21:11,NA,incomplete,89,filling,1,right,Purple_Star_Stripes_1.jpg,Purple_Triangle_Grid_2.jpg,Red_Plus_Stripes_3.jpg,right,865.1799999643117,true,high,false
SjTiH6Et,3jhb4bpsgnm0h9bvp7tggfn0kkoq96,3tmfv4nepcr7alm1nqraxs62abl8w4,SjTiH6Et,2020-0188,2020-05-21,15:01:38,15:21:11,NA,incomplete,90,color,1,right,Green_Circle_Grid_4.jpg,Purple_Triangle_Grid_3.jpg,Green_Plus_Stripes_1.jpg,left,1130.86499995552,false,high,false
SjTiH6Et,3jhb4bpsgnm0h9bvp7tggfn0kkoq96,3tmfv4nepcr7alm1nqraxs62abl8w4,SjTiH6Et,2020-0188,2020-05-21,15:01:38,15:21:11,NA,incomplete,91,color,1,right,Green_Star_Dots_2.jpg,Purple_Circle_Dots_3.jpg,Green_Triangle_Chess_1.jpg,left,914.2249999567866,false,high,false
SjTiH6Et,3jhb4bpsgnm0h9bvp7tggfn0kkoq96,3tmfv4nepcr7alm1nqraxs62abl8w4,SjTiH6Et,2020-0188,2020-05-21,15:01:38,15:21:11,NA,incomplete,92,color,1,left,Red_Circle_Stripes_2.jpg,Red_Plus_Grid_1.jpg,Blue_Star_Stripes_4.jpg,left,698.755000019446,true,high,false
SjTiH6Et,3jhb4bpsgnm0h9bvp7tggfn0kkoq96,3tmfv4nepcr7alm1nqraxs62abl8w4,SjTiH6Et,2020-0188,2020-05-21,15:01:38,15:21:11,NA,incomplete,93,color,1,right,Green_Triangle_Stripes_3.jpg,Blue_Circle_Stripes_2.jpg,Green_Star_Chess_4.jpg,right,627.0249999361113,true,high,false
SjTiH6Et,3jhb4bpsgnm0h9bvp7tggfn0kkoq96,3tmfv4nepcr7alm1nqraxs62abl8w4,SjTiH6Et,2020-0188,2020-05-21,15:01:38,15:21:11,NA,incomplete,94,color,1,right,Blue_Star_Dots_4.jpg,Purple_Plus_Dots_1.jpg,Blue_Triangle_Stripes_2.jpg,right,878.2450000289828,true,high,false
SjTiH6Et,3jhb4bpsgnm0h9bvp7tggfn0kkoq96,3tmfv4nepcr7alm1nqraxs62abl8w4,SjTiH6Et,2020-0188,2020-05-21,15:01:38,15:21:11,NA,incomplete,95,color,1,left,Red_Triangle_Stripes_2.jpg,Red_Circle_Grid_4.jpg,Blue_Star_Stripes_1.jpg,right,919.9500000104308,false,high,false
SjTiH6Et,3jhb4bpsgnm0h9bvp7tggfn0kkoq96,3tmfv4nepcr7alm1nqraxs62abl8w4,SjTiH6Et,2020-0188,2020-05-21,15:01:38,15:21:11,NA,incomplete,96,color,1,right,Purple_Triangle_Chess_2.jpg,Blue_Star_Chess_3.jpg,Purple_Plus_Stripes_1.jpg,right,990.860000019893,true,high,false
SjTiH6Et,3jhb4bpsgnm0h9bvp7tggfn0kkoq96,3tmfv4nepcr7alm1nqraxs62abl8w4,SjTiH6Et,2020-0188,2020-05-21,15:01:38,15:21:11,NA,incomplete,97,color,1,right,Green_Plus_Stripes_1.jpg,Purple_Triangle_Stripes_2.jpg,Green_Star_Dots_4.jpg,left,988.3050000062212,false,high,false
SjTiH6Et,3jhb4bpsgnm0h9bvp7tggfn0kkoq96,3tmfv4nepcr7alm1nqraxs62abl8w4,SjTiH6Et,2020-0188,2020-05-21,15:01:38,15:21:11,NA,incomplete,98,color,1,left,Red_Triangle_Stripes_1.jpg,Red_Plus_Chess_4.jpg,Purple_Circle_Stripes_3.jpg,left,632.080000010319,true,high,false
SjTiH6Et,3jhb4bpsgnm0h9bvp7tggfn0kkoq96,3tmfv4nepcr7alm1nqraxs62abl8w4,SjTiH6Et,2020-0188,2020-05-21,15:01:38,15:21:11,NA,incomplete,99,color,0,left,Purple_Plus_Stripes_4.jpg,Purple_Circle_Dots_1.jpg,Red_Star_Stripes_3.jpg,left,875.5449999589473,true,high,false
SjTiH6Et,3jhb4bpsgnm0h9bvp7tggfn0kkoq96,3tmfv4nepcr7alm1nqraxs62abl8w4,SjTiH6Et,2020-0188,2020-05-21,15:01:38,15:21:11,NA,incomplete,100,filling,1,left,Green_Plus_Chess_4.jpg,Blue_Circle_Chess_2.jpg,Green_Star_Stripes_1.jpg,right,652.8000000398606,false,high,false
SjTiH6Et,3jhb4bpsgnm0h9bvp7tggfn0kkoq96,3tmfv4nepcr7alm1nqraxs62abl8w4,SjTiH6Et,2020-0188,2020-05-21,15:01:38,15:21:11,NA,incomplete,101,filling,1,right,Green_Circle_Grid_1.jpg,Green_Plus_Chess_3.jpg,Blue_Star_Grid_2.jpg,right,855.7299999520183,true,high,false
SjTiH6Et,3jhb4bpsgnm0h9bvp7tggfn0kkoq96,3tmfv4nepcr7alm1nqraxs62abl8w4,SjTiH6Et,2020-0188,2020-05-21,15:01:38,15:21:11,NA,incomplete,102,filling,1,left,Green_Triangle_Stripes_2.jpg,Blue_Plus_Stripes_4.jpg,Green_Star_Dots_3.jpg,left,1089.6399999037385,true,high,false
SjTiH6Et,3jhb4bpsgnm0h9bvp7tggfn0kkoq96,3tmfv4nepcr7alm1nqraxs62abl8w4,SjTiH6Et,2020-0188,2020-05-21,15:01:38,15:21:11,NA,incomplete,103,filling,1,left,Red_Star_Dots_2.jpg,Green_Plus_Dots_4.jpg,Red_Triangle_Grid_3.jpg,left,1001.700000022538,true,high,false
SjTiH6Et,3jhb4bpsgnm0h9bvp7tggfn0kkoq96,3tmfv4nepcr7alm1nqraxs62abl8w4,SjTiH6Et,2020-0188,2020-05-21,15:01:38,15:21:11,NA,incomplete,104,filling,1,left,Red_Plus_Chess_1.jpg,Green_Star_Chess_2.jpg,Red_Circle_Grid_4.jpg,left,1157.854999997653,true,high,false
SjTiH6Et,3jhb4bpsgnm0h9bvp7tggfn0kkoq96,3tmfv4nepcr7alm1nqraxs62abl8w4,SjTiH6Et,2020-0188,2020-05-21,15:01:38,15:21:11,NA,incomplete,105,filling,1,left,Green_Circle_Dots_1.jpg,Blue_Star_Dots_3.jpg,Green_Plus_Chess_4.jpg,left,811.9250000454485,true,high,false
SjTiH6Et,3jhb4bpsgnm0h9bvp7tggfn0kkoq96,3tmfv4nepcr7alm1nqraxs62abl8w4,SjTiH6Et,2020-0188,2020-05-21,15:01:38,15:21:11,NA,incomplete,106,filling,1,right,Blue_Circle_Chess_2.jpg,Blue_Star_Dots_3.jpg,Red_Plus_Chess_4.jpg,right,815.9100000048056,true,high,false
SjTiH6Et,3jhb4bpsgnm0h9bvp7tggfn0kkoq96,3tmfv4nepcr7alm1nqraxs62abl8w4,SjTiH6Et,2020-0188,2020-05-21,15:01:38,15:21:11,NA,incomplete,107,filling,1,left,Red_Plus_Chess_3.jpg,Blue_Triangle_Chess_1.jpg,Red_Star_Dots_4.jpg,left,908.5750000085682,true,high,false
SjTiH6Et,3jhb4bpsgnm0h9bvp7tggfn0kkoq96,3tmfv4nepcr7alm1nqraxs62abl8w4,SjTiH6Et,2020-0188,2020-05-21,15:01:38,15:21:11,NA,incomplete,108,filling,1,right,Purple_Plus_Grid_3.jpg,Purple_Circle_Chess_1.jpg,Red_Star_Grid_4.jpg,right,916.3449999177828,true,high,false
SjTiH6Et,3jhb4bpsgnm0h9bvp7tggfn0kkoq96,3tmfv4nepcr7alm1nqraxs62abl8w4,SjTiH6Et,2020-0188,2020-05-21,15:01:38,15:21:11,NA,incomplete,109,filling,1,left,Purple_Plus_Chess_3.jpg,Red_Circle_Chess_2.jpg,Purple_Star_Dots_4.jpg,left,900.0200000591576,true,high,false
SjTiH6Et,3jhb4bpsgnm0h9bvp7tggfn0kkoq96,3tmfv4nepcr7alm1nqraxs62abl8w4,SjTiH6Et,2020-0188,2020-05-21,15:01:38,15:21:11,NA,incomplete,110,color,1,right,Red_Star_Stripes_2.jpg,Green_Circle_Stripes_3.jpg,Red_Plus_Grid_1.jpg,left,1068.2749999687076,false,high,false
SjTiH6Et,3jhb4bpsgnm0h9bvp7tggfn0kkoq96,3tmfv4nepcr7alm1nqraxs62abl8w4,SjTiH6Et,2020-0188,2020-05-21,15:01:38,15:21:11,NA,incomplete,111,color,1,right,Purple_Circle_Grid_2.jpg,Green_Plus_Grid_3.jpg,Purple_Star_Stripes_4.jpg,left,1093.885000096634,false,high,false
SjTiH6Et,3jhb4bpsgnm0h9bvp7tggfn0kkoq96,3tmfv4nepcr7alm1nqraxs62abl8w4,SjTiH6Et,2020-0188,2020-05-21,15:01:38,15:21:11,NA,incomplete,112,color,1,right,Purple_Circle_Chess_1.jpg,Blue_Triangle_Chess_2.jpg,Purple_Star_Grid_3.jpg,right,719.5649999193847,true,high,false
SjTiH6Et,3jhb4bpsgnm0h9bvp7tggfn0kkoq96,3tmfv4nepcr7alm1nqraxs62abl8w4,SjTiH6Et,2020-0188,2020-05-21,15:01:38,15:21:11,NA,incomplete,113,color,1,left,Red_Star_Dots_2.jpg,Red_Circle_Chess_3.jpg,Blue_Triangle_Dots_4.jpg,left,941.9200000120327,true,high,false
SjTiH6Et,3jhb4bpsgnm0h9bvp7tggfn0kkoq96,3tmfv4nepcr7alm1nqraxs62abl8w4,SjTiH6Et,2020-0188,2020-05-21,15:01:38,15:21:11,NA,incomplete,114,color,1,left,Blue_Triangle_Dots_3.jpg,Blue_Star_Grid_1.jpg,Purple_Plus_Dots_4.jpg,left,540.779999922961,true,high,false
SjTiH6Et,3jhb4bpsgnm0h9bvp7tggfn0kkoq96,3tmfv4nepcr7alm1nqraxs62abl8w4,SjTiH6Et,2020-0188,2020-05-21,15:01:38,15:21:11,NA,incomplete,115,color,0,right,Red_Triangle_Dots_4.jpg,Green_Plus_Dots_2.jpg,Red_Circle_Grid_1.jpg,right,619.3850000854582,true,high,false
SjTiH6Et,3jhb4bpsgnm0h9bvp7tggfn0kkoq96,3tmfv4nepcr7alm1nqraxs62abl8w4,SjTiH6Et,2020-0188,2020-05-21,15:01:38,15:21:11,NA,incomplete,116,color,0,right,Blue_Circle_Chess_4.jpg,Purple_Triangle_Chess_3.jpg,Blue_Star_Stripes_2.jpg,right,710.5600000359118,true,high,false
SjTiH6Et,3jhb4bpsgnm0h9bvp7tggfn0kkoq96,3tmfv4nepcr7alm1nqraxs62abl8w4,SjTiH6Et,2020-0188,2020-05-21,15:01:38,15:21:11,NA,incomplete,117,color,0,left,Blue_Circle_Chess_3.jpg,Blue_Plus_Dots_1.jpg,Red_Triangle_Chess_2.jpg,right,863.2799999322742,false,high,false
SjTiH6Et,3jhb4bpsgnm0h9bvp7tggfn0kkoq96,3tmfv4nepcr7alm1nqraxs62abl8w4,SjTiH6Et,2020-0188,2020-05-21,15:01:38,15:21:11,NA,incomplete,118,color,1,right,Red_Circle_Grid_2.jpg,Purple_Star_Grid_4.jpg,Red_Plus_Chess_3.jpg,left,792.8299999330193,false,high,false
SjTiH6Et,3jhb4bpsgnm0h9bvp7tggfn0kkoq96,3tmfv4nepcr7alm1nqraxs62abl8w4,SjTiH6Et,2020-0188,2020-05-21,15:01:38,15:21:11,NA,incomplete,119,color,1,left,Red_Circle_Dots_2.jpg,Red_Star_Stripes_1.jpg,Purple_Plus_Dots_4.jpg,right,997.4349999101833,false,high,false
SjTiH6Et,3jhb4bpsgnm0h9bvp7tggfn0kkoq96,3tmfv4nepcr7alm1nqraxs62abl8w4,SjTiH6Et,2020-0188,2020-05-21,15:01:38,15:21:11,NA,incomplete,120,shape,1,right,Green_Circle_Grid_3.jpg,Blue_Plus_Chess_3.jpg,Red_Circle_Dots_4.jpg,NA,NA,NA,high,false
SjTiH6Et,3jhb4bpsgnm0h9bvp7tggfn0kkoq96,3tmfv4nepcr7alm1nqraxs62abl8w4,SjTiH6Et,2020-0188,2020-05-21,15:01:38,15:21:11,NA,incomplete,121,shape,1,right,Green_Star_Dots_4.jpg,Purple_Triangle_Stripes_4.jpg,Red_Star_Grid_3.jpg,right,772.6849999744445,true,high,false
SjTiH6Et,3jhb4bpsgnm0h9bvp7tggfn0kkoq96,3tmfv4nepcr7alm1nqraxs62abl8w4,SjTiH6Et,2020-0188,2020-05-21,15:01:38,15:21:11,NA,incomplete,122,shape,1,left,Blue_Circle_Stripes_1.jpg,Red_Circle_Dots_4.jpg,Green_Triangle_Grid_1.jpg,left,665.2950000716373,true,high,false
SjTiH6Et,3jhb4bpsgnm0h9bvp7tggfn0kkoq96,3tmfv4nepcr7alm1nqraxs62abl8w4,SjTiH6Et,2020-0188,2020-05-21,15:01:38,15:21:11,NA,incomplete,123,shape,0,right,Blue_Circle_Stripes_2.jpg,Green_Triangle_Grid_2.jpg,Red_Circle_Dots_1.jpg,right,515.2849999722093,true,high,false
SjTiH6Et,3jhb4bpsgnm0h9bvp7tggfn0kkoq96,3tmfv4nepcr7alm1nqraxs62abl8w4,SjTiH6Et,2020-0188,2020-05-21,15:01:38,15:21:11,NA,incomplete,124,shape,1,right,Purple_Triangle_Dots_1.jpg,Blue_Star_Chess_1.jpg,Green_Triangle_Grid_4.jpg,right,875.3199999919161,true,high,false
SjTiH6Et,3jhb4bpsgnm0h9bvp7tggfn0kkoq96,3tmfv4nepcr7alm1nqraxs62abl8w4,SjTiH6Et,2020-0188,2020-05-21,15:01:38,15:21:11,NA,incomplete,125,shape,1,right,Blue_Triangle_Stripes_4.jpg,Purple_Plus_Dots_4.jpg,Red_Triangle_Grid_1.jpg,right,556.4449999947101,true,high,false
SjTiH6Et,3jhb4bpsgnm0h9bvp7tggfn0kkoq96,3tmfv4nepcr7alm1nqraxs62abl8w4,SjTiH6Et,2020-0188,2020-05-21,15:01:38,15:21:11,NA,incomplete,126,shape,1,right,Green_Circle_Grid_3.jpg,Blue_Triangle_Chess_3.jpg,Red_Circle_Stripes_1.jpg,right,762.845000019297,true,high,false
SjTiH6Et,3jhb4bpsgnm0h9bvp7tggfn0kkoq96,3tmfv4nepcr7alm1nqraxs62abl8w4,SjTiH6Et,2020-0188,2020-05-21,15:01:38,15:21:11,NA,incomplete,127,shape,1,right,Blue_Triangle_Stripes_4.jpg,Green_Star_Grid_4.jpg,Purple_Triangle_Chess_2.jpg,right,720.3549999976531,true,high,false
SjTiH6Et,3jhb4bpsgnm0h9bvp7tggfn0kkoq96,3tmfv4nepcr7alm1nqraxs62abl8w4,SjTiH6Et,2020-0188,2020-05-21,15:01:38,15:21:11,NA,incomplete,128,shape,0,right,Green_Plus_Stripes_4.jpg,Red_Triangle_Chess_4.jpg,Purple_Plus_Grid_3.jpg,right,631.7549999803305,true,high,false
SjTiH6Et,3jhb4bpsgnm0h9bvp7tggfn0kkoq96,3tmfv4nepcr7alm1nqraxs62abl8w4,SjTiH6Et,2020-0188,2020-05-21,15:01:38,15:21:11,NA,incomplete,129,shape,1,right,Green_Circle_Grid_1.jpg,Red_Star_Stripes_1.jpg,Blue_Circle_Chess_4.jpg,right,595.3449999215081,true,high,false
SjTiH6Et,3jhb4bpsgnm0h9bvp7tggfn0kkoq96,3tmfv4nepcr7alm1nqraxs62abl8w4,SjTiH6Et,2020-0188,2020-05-21,15:01:38,15:21:11,NA,incomplete,130,shape,1,left,Green_Triangle_Stripes_4.jpg,Blue_Triangle_Grid_1.jpg,Red_Plus_Chess_4.jpg,left,695.9550000028685,true,high,false
SjTiH6Et,3jhb4bpsgnm0h9bvp7tggfn0kkoq96,3tmfv4nepcr7alm1nqraxs62abl8w4,SjTiH6Et,2020-0188,2020-05-21,15:01:38,15:21:11,NA,incomplete,131,shape,0,right,Green_Plus_Dots_2.jpg,Blue_Star_Stripes_2.jpg,Red_Plus_Chess_4.jpg,right,577.3850000696257,true,high,false
SjTiH6Et,3jhb4bpsgnm0h9bvp7tggfn0kkoq96,3tmfv4nepcr7alm1nqraxs62abl8w4,SjTiH6Et,2020-0188,2020-05-21,15:01:38,15:21:11,NA,incomplete,132,shape,1,left,Green_Circle_Dots_1.jpg,Purple_Circle_Stripes_2.jpg,Red_Triangle_Chess_1.jpg,left,653.5300000105053,true,high,false
SjTiH6Et,3jhb4bpsgnm0h9bvp7tggfn0kkoq96,3tmfv4nepcr7alm1nqraxs62abl8w4,SjTiH6Et,2020-0188,2020-05-21,15:01:38,15:21:11,NA,incomplete,133,shape,1,right,Blue_Star_Grid_4.jpg,Green_Circle_Stripes_4.jpg,Red_Star_Dots_3.jpg,right,631.9600000279024,true,high,false
SjTiH6Et,3jhb4bpsgnm0h9bvp7tggfn0kkoq96,3tmfv4nepcr7alm1nqraxs62abl8w4,SjTiH6Et,2020-0188,2020-05-21,15:01:38,15:21:11,NA,incomplete,134,shape,1,right,Purple_Star_Dots_4.jpg,Blue_Plus_Grid_4.jpg,Green_Star_Chess_2.jpg,right,603.3700000261888,true,high,false
SjTiH6Et,3jhb4bpsgnm0h9bvp7tggfn0kkoq96,3tmfv4nepcr7alm1nqraxs62abl8w4,SjTiH6Et,2020-0188,2020-05-21,15:01:38,15:21:11,NA,incomplete,135,shape,1,right,Green_Triangle_Dots_1.jpg,Blue_Star_Chess_1.jpg,Purple_Triangle_Grid_3.jpg,right,631.5600000089034,true,high,false
SjTiH6Et,3jhb4bpsgnm0h9bvp7tggfn0kkoq96,3tmfv4nepcr7alm1nqraxs62abl8w4,SjTiH6Et,2020-0188,2020-05-21,15:01:38,15:21:11,NA,incomplete,136,shape,1,left,Purple_Triangle_Stripes_4.jpg,Red_Triangle_Grid_1.jpg,Blue_Circle_Dots_4.jpg,right,659.734999993816,false,high,false
SjTiH6Et,3jhb4bpsgnm0h9bvp7tggfn0kkoq96,3tmfv4nepcr7alm1nqraxs62abl8w4,SjTiH6Et,2020-0188,2020-05-21,15:01:38,15:21:11,NA,incomplete,137,shape,1,left,Blue_Star_Chess_3.jpg,Red_Star_Stripes_4.jpg,Green_Circle_Dots_3.jpg,left,1020.6400000024587,true,high,false
SjTiH6Et,3jhb4bpsgnm0h9bvp7tggfn0kkoq96,3tmfv4nepcr7alm1nqraxs62abl8w4,SjTiH6Et,2020-0188,2020-05-21,15:01:38,15:21:11,NA,incomplete,138,shape,1,left,Blue_Triangle_Stripes_1.jpg,Red_Triangle_Dots_2.jpg,Green_Plus_Chess_1.jpg,left,624.0349999861792,true,high,false
SjTiH6Et,3jhb4bpsgnm0h9bvp7tggfn0kkoq96,3tmfv4nepcr7alm1nqraxs62abl8w4,SjTiH6Et,2020-0188,2020-05-21,15:01:38,15:21:11,NA,incomplete,139,shape,0,right,Red_Plus_Dots_4.jpg,Purple_Triangle_Stripes_4.jpg,Blue_Plus_Chess_1.jpg,right,715.5999999959022,true,high,false
SjTiH6Et,3jhb4bpsgnm0h9bvp7tggfn0kkoq96,3tmfv4nepcr7alm1nqraxs62abl8w4,SjTiH6Et,2020-0188,2020-05-21,15:01:38,15:21:11,NA,incomplete,140,number,1,right,Purple_Plus_Stripes_1.jpg,Red_Plus_Grid_3.jpg,Green_Circle_Chess_1.jpg,left,595.3849999932572,false,high,false
SjTiH6Et,3jhb4bpsgnm0h9bvp7tggfn0kkoq96,3tmfv4nepcr7alm1nqraxs62abl8w4,SjTiH6Et,2020-0188,2020-05-21,15:01:38,15:21:11,NA,incomplete,141,number,1,right,Purple_Triangle_Dots_3.jpg,Green_Triangle_Stripes_2.jpg,Red_Plus_Chess_3.jpg,right,1000.7500000065193,true,high,false
SjTiH6Et,3jhb4bpsgnm0h9bvp7tggfn0kkoq96,3tmfv4nepcr7alm1nqraxs62abl8w4,SjTiH6Et,2020-0188,2020-05-21,15:01:38,15:21:11,NA,incomplete,142,number,1,right,Green_Star_Chess_1.jpg,Red_Star_Grid_3.jpg,Purple_Plus_Dots_1.jpg,right,652.1250000223517,true,high,false
SjTiH6Et,3jhb4bpsgnm0h9bvp7tggfn0kkoq96,3tmfv4nepcr7alm1nqraxs62abl8w4,SjTiH6Et,2020-0188,2020-05-21,15:01:38,15:21:11,NA,incomplete,143,number,1,right,Red_Triangle_Grid_3.jpg,Blue_Triangle_Stripes_2.jpg,Green_Circle_Dots_3.jpg,right,662.3449999606237,true,high,false
SjTiH6Et,3jhb4bpsgnm0h9bvp7tggfn0kkoq96,3tmfv4nepcr7alm1nqraxs62abl8w4,SjTiH6Et,2020-0188,2020-05-21,15:01:38,15:21:11,NA,incomplete,144,number,1,right,Green_Circle_Stripes_1.jpg,Purple_Circle_Grid_2.jpg,Blue_Plus_Dots_1.jpg,right,784.3700000084937,true,high,false
SjTiH6Et,3jhb4bpsgnm0h9bvp7tggfn0kkoq96,3tmfv4nepcr7alm1nqraxs62abl8w4,SjTiH6Et,2020-0188,2020-05-21,15:01:38,15:21:11,NA,incomplete,145,number,1,right,Green_Circle_Chess_4.jpg,Red_Circle_Stripes_1.jpg,Purple_Triangle_Grid_4.jpg,right,796.9849999062717,true,high,false
SjTiH6Et,3jhb4bpsgnm0h9bvp7tggfn0kkoq96,3tmfv4nepcr7alm1nqraxs62abl8w4,SjTiH6Et,2020-0188,2020-05-21,15:01:38,15:21:11,NA,incomplete,146,number,0,left,Red_Triangle_Chess_1.jpg,Blue_Plus_Dots_1.jpg,Green_Triangle_Grid_4.jpg,left,650.5550000583753,true,high,false
SjTiH6Et,3jhb4bpsgnm0h9bvp7tggfn0kkoq96,3tmfv4nepcr7alm1nqraxs62abl8w4,SjTiH6Et,2020-0188,2020-05-21,15:01:38,15:21:11,NA,incomplete,147,number,1,right,Green_Star_Grid_4.jpg,Purple_Star_Dots_2.jpg,Blue_Plus_Stripes_4.jpg,right,779.6699999598786,true,high,false
SjTiH6Et,3jhb4bpsgnm0h9bvp7tggfn0kkoq96,3tmfv4nepcr7alm1nqraxs62abl8w4,SjTiH6Et,2020-0188,2020-05-21,15:01:38,15:21:11,NA,incomplete,148,number,1,left,Red_Triangle_Dots_2.jpg,Blue_Star_Chess_2.jpg,Green_Triangle_Stripes_4.jpg,left,633.0049999523908,true,high,false
SjTiH6Et,3jhb4bpsgnm0h9bvp7tggfn0kkoq96,3tmfv4nepcr7alm1nqraxs62abl8w4,SjTiH6Et,2020-0188,2020-05-21,15:01:38,15:21:11,NA,incomplete,149,number,1,left,Blue_Triangle_Grid_1.jpg,Green_Plus_Dots_1.jpg,Red_Triangle_Stripes_3.jpg,left,852.3299999069422,true,high,false
SjTiH6Et,3jhb4bpsgnm0h9bvp7tggfn0kkoq96,3tmfv4nepcr7alm1nqraxs62abl8w4,SjTiH6Et,2020-0188,2020-05-21,15:01:38,15:21:11,NA,incomplete,150,number,1,right,Green_Star_Chess_3.jpg,Red_Star_Stripes_4.jpg,Blue_Triangle_Grid_3.jpg,right,766.814999980852,true,high,false
SjTiH6Et,3jhb4bpsgnm0h9bvp7tggfn0kkoq96,3tmfv4nepcr7alm1nqraxs62abl8w4,SjTiH6Et,2020-0188,2020-05-21,15:01:38,15:21:11,NA,incomplete,151,number,1,left,Green_Plus_Grid_1.jpg,Blue_Circle_Chess_1.jpg,Purple_Plus_Dots_2.jpg,left,637.1000000508502,true,high,false
SjTiH6Et,3jhb4bpsgnm0h9bvp7tggfn0kkoq96,3tmfv4nepcr7alm1nqraxs62abl8w4,SjTiH6Et,2020-0188,2020-05-21,15:01:38,15:21:11,NA,incomplete,152,number,1,left,Green_Star_Grid_3.jpg,Blue_Triangle_Dots_3.jpg,Red_Star_Chess_4.jpg,left,758.9499999303371,true,high,false
SjTiH6Et,3jhb4bpsgnm0h9bvp7tggfn0kkoq96,3tmfv4nepcr7alm1nqraxs62abl8w4,SjTiH6Et,2020-0188,2020-05-21,15:01:38,15:21:11,NA,incomplete,153,number,0,left,Green_Star_Chess_1.jpg,Purple_Triangle_Grid_1.jpg,Blue_Star_Stripes_3.jpg,left,668.8700000522658,true,high,false
SjTiH6Et,3jhb4bpsgnm0h9bvp7tggfn0kkoq96,3tmfv4nepcr7alm1nqraxs62abl8w4,SjTiH6Et,2020-0188,2020-05-21,15:01:38,15:21:11,NA,incomplete,154,number,1,right,Blue_Triangle_Chess_2.jpg,Purple_Triangle_Dots_4.jpg,Red_Circle_Stripes_2.jpg,right,670.3700000653043,true,high,false
SjTiH6Et,3jhb4bpsgnm0h9bvp7tggfn0kkoq96,3tmfv4nepcr7alm1nqraxs62abl8w4,SjTiH6Et,2020-0188,2020-05-21,15:01:38,15:21:11,NA,incomplete,155,number,1,right,Blue_Star_Grid_4.jpg,Green_Star_Chess_2.jpg,Purple_Circle_Stripes_4.jpg,right,735.6800000416115,true,high,false
SjTiH6Et,3jhb4bpsgnm0h9bvp7tggfn0kkoq96,3tmfv4nepcr7alm1nqraxs62abl8w4,SjTiH6Et,2020-0188,2020-05-21,15:01:38,15:21:11,NA,incomplete,156,number,1,right,Green_Triangle_Dots_1.jpg,Blue_Triangle_Grid_2.jpg,Purple_Star_Chess_1.jpg,right,791.230000089854,true,high,false
SjTiH6Et,3jhb4bpsgnm0h9bvp7tggfn0kkoq96,3tmfv4nepcr7alm1nqraxs62abl8w4,SjTiH6Et,2020-0188,2020-05-21,15:01:38,15:21:11,NA,incomplete,157,number,1,right,Blue_Plus_Grid_4.jpg,Red_Plus_Dots_1.jpg,Green_Circle_Chess_4.jpg,right,659.2250000685453,true,high,false
SjTiH6Et,3jhb4bpsgnm0h9bvp7tggfn0kkoq96,3tmfv4nepcr7alm1nqraxs62abl8w4,SjTiH6Et,2020-0188,2020-05-21,15:01:38,15:21:11,NA,incomplete,158,number,1,right,Green_Star_Grid_2.jpg,Purple_Star_Stripes_1.jpg,Red_Circle_Dots_2.jpg,right,701.0099999606609,true,high,false
SjTiH6Et,3jhb4bpsgnm0h9bvp7tggfn0kkoq96,3tmfv4nepcr7alm1nqraxs62abl8w4,SjTiH6Et,2020-0188,2020-05-21,15:01:38,15:21:11,NA,incomplete,159,number,1,right,Red_Plus_Dots_3.jpg,Purple_Plus_Stripes_1.jpg,Green_Triangle_Grid_3.jpg,right,573.1950000626966,true,high,false
SjTiH6Et,3jhb4bpsgnm0h9bvp7tggfn0kkoq96,3tmfv4nepcr7alm1nqraxs62abl8w4,SjTiH6Et,2020-0188,2020-05-21,15:01:38,15:21:11,NA,incomplete,160,shape,0,right,Green_Circle_Grid_3.jpg,Purple_Plus_Stripes_3.jpg,Red_Circle_Chess_2.jpg,left,754.6050000237301,false,high,false
SjTiH6Et,3jhb4bpsgnm0h9bvp7tggfn0kkoq96,3tmfv4nepcr7alm1nqraxs62abl8w4,SjTiH6Et,2020-0188,2020-05-21,15:01:38,15:21:11,NA,incomplete,161,shape,1,left,Red_Star_Grid_2.jpg,Green_Star_Chess_4.jpg,Blue_Triangle_Dots_2.jpg,right,609.2949999729171,false,high,false
SjTiH6Et,3jhb4bpsgnm0h9bvp7tggfn0kkoq96,3tmfv4nepcr7alm1nqraxs62abl8w4,SjTiH6Et,2020-0188,2020-05-21,15:01:38,15:21:11,NA,incomplete,162,shape,1,left,Green_Star_Dots_3.jpg,Blue_Star_Grid_4.jpg,Red_Circle_Chess_3.jpg,right,772.5099999224767,false,high,false
SjTiH6Et,3jhb4bpsgnm0h9bvp7tggfn0kkoq96,3tmfv4nepcr7alm1nqraxs62abl8w4,SjTiH6Et,2020-0188,2020-05-21,15:01:38,15:21:11,NA,incomplete,163,shape,1,right,Blue_Circle_Stripes_3.jpg,Green_Plus_Chess_3.jpg,Purple_Circle_Grid_4.jpg,right,642.2599999932572,true,high,false
SjTiH6Et,3jhb4bpsgnm0h9bvp7tggfn0kkoq96,3tmfv4nepcr7alm1nqraxs62abl8w4,SjTiH6Et,2020-0188,2020-05-21,15:01:38,15:21:11,NA,incomplete,164,shape,1,right,Blue_Circle_Stripes_3.jpg,Green_Plus_Grid_3.jpg,Purple_Circle_Chess_4.jpg,right,660.5050000362098,true,high,false
SjTiH6Et,3jhb4bpsgnm0h9bvp7tggfn0kkoq96,3tmfv4nepcr7alm1nqraxs62abl8w4,SjTiH6Et,2020-0188,2020-05-21,15:01:38,15:21:11,NA,incomplete,165,shape,1,left,Purple_Circle_Grid_1.jpg,Red_Circle_Chess_3.jpg,Green_Plus_Stripes_1.jpg,left,518.6450000619516,true,high,false
SjTiH6Et,3jhb4bpsgnm0h9bvp7tggfn0kkoq96,3tmfv4nepcr7alm1nqraxs62abl8w4,SjTiH6Et,2020-0188,2020-05-21,15:01:38,15:21:11,NA,incomplete,166,shape,1,right,Red_Plus_Stripes_1.jpg,Blue_Star_Chess_1.jpg,Green_Plus_Grid_2.jpg,right,822.9449999053031,true,high,false
SjTiH6Et,3jhb4bpsgnm0h9bvp7tggfn0kkoq96,3tmfv4nepcr7alm1nqraxs62abl8w4,SjTiH6Et,2020-0188,2020-05-21,15:01:38,15:21:11,NA,incomplete,167,shape,1,right,Green_Circle_Stripes_2.jpg,Purple_Triangle_Grid_2.jpg,Red_Circle_Dots_4.jpg,right,681.9250000407919,true,high,false
SjTiH6Et,3jhb4bpsgnm0h9bvp7tggfn0kkoq96,3tmfv4nepcr7alm1nqraxs62abl8w4,SjTiH6Et,2020-0188,2020-05-21,15:01:38,15:21:11,NA,incomplete,168,shape,1,left,Red_Circle_Grid_2.jpg,Blue_Circle_Stripes_1.jpg,Purple_Triangle_Chess_2.jpg,left,520.7099999533966,true,high,false
SjTiH6Et,3jhb4bpsgnm0h9bvp7tggfn0kkoq96,3tmfv4nepcr7alm1nqraxs62abl8w4,SjTiH6Et,2020-0188,2020-05-21,15:01:38,15:21:11,NA,incomplete,169,shape,1,right,Purple_Plus_Stripes_3.jpg,Red_Triangle_Dots_3.jpg,Blue_Plus_Chess_1.jpg,right,513.4499999694526,true,high,false
SjTiH6Et,3jhb4bpsgnm0h9bvp7tggfn0kkoq96,3tmfv4nepcr7alm1nqraxs62abl8w4,SjTiH6Et,2020-0188,2020-05-21,15:01:38,15:21:11,NA,incomplete,170,shape,1,right,Green_Star_Grid_2.jpg,Red_Circle_Dots_2.jpg,Purple_Star_Chess_1.jpg,right,609.9800000665709,true,high,false
SjTiH6Et,3jhb4bpsgnm0h9bvp7tggfn0kkoq96,3tmfv4nepcr7alm1nqraxs62abl8w4,SjTiH6Et,2020-0188,2020-05-21,15:01:38,15:21:11,NA,incomplete,171,shape,1,right,Purple_Plus_Dots_4.jpg,Blue_Star_Chess_4.jpg,Green_Plus_Grid_1.jpg,right,782.950000022538,true,high,false
SjTiH6Et,3jhb4bpsgnm0h9bvp7tggfn0kkoq96,3tmfv4nepcr7alm1nqraxs62abl8w4,SjTiH6Et,2020-0188,2020-05-21,15:01:38,15:21:11,NA,incomplete,172,shape,1,right,Purple_Triangle_Grid_1.jpg,Red_Circle_Dots_1.jpg,Blue_Triangle_Stripes_2.jpg,right,867.5250000087544,true,high,false
SjTiH6Et,3jhb4bpsgnm0h9bvp7tggfn0kkoq96,3tmfv4nepcr7alm1nqraxs62abl8w4,SjTiH6Et,2020-0188,2020-05-21,15:01:38,15:21:11,NA,incomplete,173,shape,1,left,Red_Triangle_Dots_2.jpg,Blue_Triangle_Stripes_4.jpg,Green_Circle_Grid_2.jpg,left,748.7599999876693,true,high,false
SjTiH6Et,3jhb4bpsgnm0h9bvp7tggfn0kkoq96,3tmfv4nepcr7alm1nqraxs62abl8w4,SjTiH6Et,2020-0188,2020-05-21,15:01:38,15:21:11,NA,incomplete,174,shape,1,left,Blue_Plus_Grid_1.jpg,Red_Plus_Chess_3.jpg,Green_Circle_Dots_1.jpg,left,656.6749999765307,true,high,false
SjTiH6Et,3jhb4bpsgnm0h9bvp7tggfn0kkoq96,3tmfv4nepcr7alm1nqraxs62abl8w4,SjTiH6Et,2020-0188,2020-05-21,15:01:38,15:21:11,NA,incomplete,175,shape,0,left,Purple_Plus_Chess_2.jpg,Blue_Plus_Stripes_4.jpg,Green_Star_Grid_2.jpg,left,981.6299999365583,true,high,false
SjTiH6Et,3jhb4bpsgnm0h9bvp7tggfn0kkoq96,3tmfv4nepcr7alm1nqraxs62abl8w4,SjTiH6Et,2020-0188,2020-05-21,15:01:38,15:21:11,NA,incomplete,176,shape,1,left,Blue_Star_Stripes_4.jpg,Green_Star_Dots_2.jpg,Purple_Triangle_Chess_4.jpg,left,779.4400000711903,true,high,false
SjTiH6Et,3jhb4bpsgnm0h9bvp7tggfn0kkoq96,3tmfv4nepcr7alm1nqraxs62abl8w4,SjTiH6Et,2020-0188,2020-05-21,15:01:38,15:21:11,NA,incomplete,177,shape,1,left,Red_Circle_Dots_1.jpg,Purple_Circle_Chess_4.jpg,Blue_Star_Grid_1.jpg,left,552.2900000214577,true,high,false
SjTiH6Et,3jhb4bpsgnm0h9bvp7tggfn0kkoq96,3tmfv4nepcr7alm1nqraxs62abl8w4,SjTiH6Et,2020-0188,2020-05-21,15:01:38,15:21:11,NA,incomplete,178,shape,0,left,Blue_Circle_Chess_2.jpg,Purple_Circle_Dots_3.jpg,Green_Plus_Stripes_2.jpg,left,550.6199999945238,true,high,false
SjTiH6Et,3jhb4bpsgnm0h9bvp7tggfn0kkoq96,3tmfv4nepcr7alm1nqraxs62abl8w4,SjTiH6Et,2020-0188,2020-05-21,15:01:38,15:21:11,NA,incomplete,179,shape,1,right,Red_Triangle_Dots_3.jpg,Purple_Circle_Chess_3.jpg,Green_Triangle_Grid_4.jpg,right,651.9100000150502,true,high,false
SjTiH6Et,3jhb4bpsgnm0h9bvp7tggfn0kkoq96,3tmfv4nepcr7alm1nqraxs62abl8w4,SjTiH6Et,2020-0188,2020-05-21,15:01:38,15:21:11,NA,incomplete,180,number,1,right,Red_Triangle_Dots_2.jpg,Green_Triangle_Chess_3.jpg,Blue_Plus_Grid_2.jpg,left,638.2900000317022,false,high,false
SjTiH6Et,3jhb4bpsgnm0h9bvp7tggfn0kkoq96,3tmfv4nepcr7alm1nqraxs62abl8w4,SjTiH6Et,2020-0188,2020-05-21,15:01:38,15:21:11,NA,incomplete,181,number,1,left,Purple_Circle_Dots_1.jpg,Blue_Triangle_Chess_1.jpg,Green_Circle_Stripes_2.jpg,right,737.8399999579415,false,high,false
SjTiH6Et,3jhb4bpsgnm0h9bvp7tggfn0kkoq96,3tmfv4nepcr7alm1nqraxs62abl8w4,SjTiH6Et,2020-0188,2020-05-21,15:01:38,15:21:11,NA,incomplete,182,number,1,left,Purple_Plus_Grid_1.jpg,Blue_Triangle_Chess_1.jpg,Green_Plus_Stripes_3.jpg,right,791.8300000019372,false,high,false
SjTiH6Et,3jhb4bpsgnm0h9bvp7tggfn0kkoq96,3tmfv4nepcr7alm1nqraxs62abl8w4,SjTiH6Et,2020-0188,2020-05-21,15:01:38,15:21:11,NA,incomplete,183,number,1,left,Red_Star_Grid_3.jpg,Purple_Triangle_Dots_3.jpg,Blue_Star_Chess_4.jpg,left,884.044999955222,true,high,false
SjTiH6Et,3jhb4bpsgnm0h9bvp7tggfn0kkoq96,3tmfv4nepcr7alm1nqraxs62abl8w4,SjTiH6Et,2020-0188,2020-05-21,15:01:38,15:21:11,NA,incomplete,184,number,1,left,Green_Star_Stripes_1.jpg,Red_Circle_Grid_1.jpg,Purple_Star_Dots_3.jpg,left,1085.07999998983,true,high,false
SjTiH6Et,3jhb4bpsgnm0h9bvp7tggfn0kkoq96,3tmfv4nepcr7alm1nqraxs62abl8w4,SjTiH6Et,2020-0188,2020-05-21,15:01:38,15:21:11,NA,incomplete,185,number,1,left,Green_Circle_Dots_2.jpg,Red_Triangle_Chess_2.jpg,Purple_Circle_Stripes_3.jpg,left,685.8050000155345,true,high,false
SjTiH6Et,3jhb4bpsgnm0h9bvp7tggfn0kkoq96,3tmfv4nepcr7alm1nqraxs62abl8w4,SjTiH6Et,2020-0188,2020-05-21,15:01:38,15:21:11,NA,incomplete,186,number,0,right,Red_Star_Stripes_1.jpg,Blue_Star_Dots_2.jpg,Purple_Triangle_Chess_1.jpg,right,815.2049999916926,true,high,false
SjTiH6Et,3jhb4bpsgnm0h9bvp7tggfn0kkoq96,3tmfv4nepcr7alm1nqraxs62abl8w4,SjTiH6Et,2020-0188,2020-05-21,15:01:38,15:21:11,NA,incomplete,187,number,1,left,Purple_Star_Grid_4.jpg,Green_Plus_Chess_4.jpg,Blue_Star_Stripes_2.jpg,left,722.635000012815,true,high,false
SjTiH6Et,3jhb4bpsgnm0h9bvp7tggfn0kkoq96,3tmfv4nepcr7alm1nqraxs62abl8w4,SjTiH6Et,2020-0188,2020-05-21,15:01:38,15:21:11,NA,incomplete,188,number,0,right,Red_Star_Grid_2.jpg,Blue_Star_Dots_4.jpg,Purple_Triangle_Chess_2.jpg,right,666.0450000781566,true,high,false
SjTiH6Et,3jhb4bpsgnm0h9bvp7tggfn0kkoq96,3tmfv4nepcr7alm1nqraxs62abl8w4,SjTiH6Et,2020-0188,2020-05-21,15:01:38,15:21:11,NA,incomplete,189,number,1,right,Purple_Plus_Grid_1.jpg,Green_Plus_Dots_3.jpg,Red_Triangle_Chess_1.jpg,right,756.0799999628216,true,high,false
SjTiH6Et,3jhb4bpsgnm0h9bvp7tggfn0kkoq96,3tmfv4nepcr7alm1nqraxs62abl8w4,SjTiH6Et,2020-0188,2020-05-21,15:01:38,15:21:11,NA,incomplete,190,number,1,left,Purple_Circle_Grid_4.jpg,Blue_Star_Chess_4.jpg,Red_Circle_Dots_2.jpg,left,617.8749999962747,true,high,false
SjTiH6Et,3jhb4bpsgnm0h9bvp7tggfn0kkoq96,3tmfv4nepcr7alm1nqraxs62abl8w4,SjTiH6Et,2020-0188,2020-05-21,15:01:38,15:21:11,NA,incomplete,191,number,1,left,Green_Star_Dots_4.jpg,Blue_Circle_Chess_4.jpg,Purple_Star_Grid_2.jpg,left,758.1149999750778,true,high,false
SjTiH6Et,3jhb4bpsgnm0h9bvp7tggfn0kkoq96,3tmfv4nepcr7alm1nqraxs62abl8w4,SjTiH6Et,2020-0188,2020-05-21,15:01:38,15:21:11,NA,incomplete,192,number,0,right,Red_Plus_Dots_4.jpg,Blue_Plus_Grid_2.jpg,Green_Circle_Chess_4.jpg,right,827.3000000044703,true,high,false
SjTiH6Et,3jhb4bpsgnm0h9bvp7tggfn0kkoq96,3tmfv4nepcr7alm1nqraxs62abl8w4,SjTiH6Et,2020-0188,2020-05-21,15:01:38,15:21:11,NA,incomplete,193,number,1,right,Red_Star_Grid_2.jpg,Purple_Star_Dots_1.jpg,Green_Circle_Chess_2.jpg,right,694.6150000439957,true,high,false
SjTiH6Et,3jhb4bpsgnm0h9bvp7tggfn0kkoq96,3tmfv4nepcr7alm1nqraxs62abl8w4,SjTiH6Et,2020-0188,2020-05-21,15:01:38,15:21:11,NA,incomplete,194,number,0,right,Purple_Plus_Chess_4.jpg,Green_Plus_Grid_2.jpg,Red_Triangle_Dots_4.jpg,right,719.2450000438839,true,high,false
SjTiH6Et,3jhb4bpsgnm0h9bvp7tggfn0kkoq96,3tmfv4nepcr7alm1nqraxs62abl8w4,SjTiH6Et,2020-0188,2020-05-21,15:01:38,15:21:11,NA,incomplete,195,number,1,right,Green_Plus_Dots_3.jpg,Blue_Plus_Grid_2.jpg,Purple_Star_Chess_3.jpg,right,1054.2650000425056,true,high,false
SjTiH6Et,3jhb4bpsgnm0h9bvp7tggfn0kkoq96,3tmfv4nepcr7alm1nqraxs62abl8w4,SjTiH6Et,2020-0188,2020-05-21,15:01:38,15:21:11,NA,incomplete,196,number,1,left,Purple_Circle_Grid_1.jpg,Red_Star_Dots_1.jpg,Green_Circle_Chess_2.jpg,left,825.5350000690669,true,high,false
SjTiH6Et,3jhb4bpsgnm0h9bvp7tggfn0kkoq96,3tmfv4nepcr7alm1nqraxs62abl8w4,SjTiH6Et,2020-0188,2020-05-21,15:01:38,15:21:11,NA,incomplete,197,number,1,right,Green_Star_Dots_1.jpg,Blue_Star_Grid_2.jpg,Red_Plus_Chess_1.jpg,right,716.4699999848381,true,high,false
SjTiH6Et,3jhb4bpsgnm0h9bvp7tggfn0kkoq96,3tmfv4nepcr7alm1nqraxs62abl8w4,SjTiH6Et,2020-0188,2020-05-21,15:01:38,15:21:11,NA,incomplete,198,number,1,left,Blue_Star_Dots_4.jpg,Red_Plus_Chess_4.jpg,Purple_Star_Stripes_2.jpg,left,635.7699999352917,true,high,false
SjTiH6Et,3jhb4bpsgnm0h9bvp7tggfn0kkoq96,3tmfv4nepcr7alm1nqraxs62abl8w4,SjTiH6Et,2020-0188,2020-05-21,15:01:38,15:21:11,NA,incomplete,199,number,1,right,Blue_Circle_Stripes_2.jpg,Purple_Circle_Grid_1.jpg,Red_Triangle_Dots_2.jpg,right,670.4949999693781,true,high,false
SjTiH6Et,3jhb4bpsgnm0h9bvp7tggfn0kkoq96,3tmfv4nepcr7alm1nqraxs62abl8w4,SjTiH6Et,2020-0188,2020-05-21,15:01:38,15:21:11,NA,incomplete,200,shape,0,left,Red_Star_Grid_4.jpg,Green_Star_Chess_3.jpg,Purple_Circle_Dots_4.jpg,right,727.9349999735132,false,high,false
SjTiH6Et,3jhb4bpsgnm0h9bvp7tggfn0kkoq96,3tmfv4nepcr7alm1nqraxs62abl8w4,SjTiH6Et,2020-0188,2020-05-21,15:01:38,15:21:11,NA,incomplete,201,shape,1,right,Blue_Star_Stripes_1.jpg,Green_Circle_Dots_1.jpg,Red_Star_Chess_3.jpg,left,568.1249999906868,false,high,false
SjTiH6Et,3jhb4bpsgnm0h9bvp7tggfn0kkoq96,3tmfv4nepcr7alm1nqraxs62abl8w4,SjTiH6Et,2020-0188,2020-05-21,15:01:38,15:21:11,NA,incomplete,202,shape,1,left,Red_Star_Stripes_3.jpg,Blue_Star_Dots_2.jpg,Purple_Plus_Grid_3.jpg,right,628.859999938868,false,high,false
SjTiH6Et,3jhb4bpsgnm0h9bvp7tggfn0kkoq96,3tmfv4nepcr7alm1nqraxs62abl8w4,SjTiH6Et,2020-0188,2020-05-21,15:01:38,15:21:11,NA,incomplete,203,shape,0,left,Blue_Star_Chess_2.jpg,Purple_Star_Stripes_4.jpg,Red_Circle_Dots_2.jpg,left,1151.9049999769777,true,high,false
SjTiH6Et,3jhb4bpsgnm0h9bvp7tggfn0kkoq96,3tmfv4nepcr7alm1nqraxs62abl8w4,SjTiH6Et,2020-0188,2020-05-21,15:01:38,15:21:11,NA,incomplete,204,shape,1,right,Red_Circle_Chess_4.jpg,Purple_Plus_Dots_4.jpg,Blue_Circle_Grid_1.jpg,right,798.5149999149144,true,high,false
SjTiH6Et,3jhb4bpsgnm0h9bvp7tggfn0kkoq96,3tmfv4nepcr7alm1nqraxs62abl8w4,SjTiH6Et,2020-0188,2020-05-21,15:01:38,15:21:11,NA,incomplete,205,shape,1,left,Green_Star_Stripes_2.jpg,Blue_Star_Grid_1.jpg,Red_Circle_Dots_2.jpg,left,746.8149999622256,true,high,false
SjTiH6Et,3jhb4bpsgnm0h9bvp7tggfn0kkoq96,3tmfv4nepcr7alm1nqraxs62abl8w4,SjTiH6Et,2020-0188,2020-05-21,15:01:38,15:21:11,NA,incomplete,206,shape,1,left,Green_Star_Chess_2.jpg,Blue_Star_Dots_3.jpg,Purple_Circle_Grid_2.jpg,left,705.9199999785051,true,high,false
SjTiH6Et,3jhb4bpsgnm0h9bvp7tggfn0kkoq96,3tmfv4nepcr7alm1nqraxs62abl8w4,SjTiH6Et,2020-0188,2020-05-21,15:01:38,15:21:11,NA,incomplete,207,shape,1,right,Green_Triangle_Chess_2.jpg,Red_Circle_Dots_2.jpg,Blue_Triangle_Grid_3.jpg,right,601.299999980256,true,high,false
SjTiH6Et,3jhb4bpsgnm0h9bvp7tggfn0kkoq96,3tmfv4nepcr7alm1nqraxs62abl8w4,SjTiH6Et,2020-0188,2020-05-21,15:01:38,15:21:11,NA,incomplete,208,shape,1,left,Green_Circle_Grid_3.jpg,Blue_Circle_Chess_4.jpg,Red_Triangle_Dots_3.jpg,left,749.9549998901784,true,high,false
SjTiH6Et,3jhb4bpsgnm0h9bvp7tggfn0kkoq96,3tmfv4nepcr7alm1nqraxs62abl8w4,SjTiH6Et,2020-0188,2020-05-21,15:01:38,15:21:11,NA,incomplete,209,shape,0,right,Blue_Plus_Stripes_4.jpg,Green_Circle_Dots_4.jpg,Purple_Plus_Chess_1.jpg,right,564.1850000247359,true,high,false
SjTiH6Et,3jhb4bpsgnm0h9bvp7tggfn0kkoq96,3tmfv4nepcr7alm1nqraxs62abl8w4,SjTiH6Et,2020-0188,2020-05-21,15:01:38,15:21:11,NA,incomplete,210,shape,1,left,Blue_Triangle_Grid_2.jpg,Red_Triangle_Stripes_1.jpg,Green_Star_Chess_2.jpg,left,626.5300000086427,true,high,false
SjTiH6Et,3jhb4bpsgnm0h9bvp7tggfn0kkoq96,3tmfv4nepcr7alm1nqraxs62abl8w4,SjTiH6Et,2020-0188,2020-05-21,15:01:38,15:21:11,NA,incomplete,211,shape,0,left,Red_Star_Dots_4.jpg,Blue_Star_Grid_3.jpg,Purple_Circle_Chess_4.jpg,left,742.6200000336394,true,high,false
SjTiH6Et,3jhb4bpsgnm0h9bvp7tggfn0kkoq96,3tmfv4nepcr7alm1nqraxs62abl8w4,SjTiH6Et,2020-0188,2020-05-21,15:01:38,15:21:11,NA,incomplete,212,shape,1,right,Purple_Star_Chess_4.jpg,Blue_Triangle_Grid_4.jpg,Red_Star_Stripes_1.jpg,right,667.8750000428408,true,high,false
SjTiH6Et,3jhb4bpsgnm0h9bvp7tggfn0kkoq96,3tmfv4nepcr7alm1nqraxs62abl8w4,SjTiH6Et,2020-0188,2020-05-21,15:01:38,15:21:11,NA,incomplete,213,shape,1,left,Blue_Star_Dots_3.jpg,Purple_Star_Stripes_4.jpg,Red_Circle_Grid_3.jpg,left,621.7450000112876,true,high,false
SjTiH6Et,3jhb4bpsgnm0h9bvp7tggfn0kkoq96,3tmfv4nepcr7alm1nqraxs62abl8w4,SjTiH6Et,2020-0188,2020-05-21,15:01:38,15:21:11,NA,incomplete,214,shape,1,right,Red_Circle_Dots_4.jpg,Blue_Triangle_Grid_4.jpg,Green_Circle_Stripes_2.jpg,right,737.2350000077859,true,high,false
SjTiH6Et,3jhb4bpsgnm0h9bvp7tggfn0kkoq96,3tmfv4nepcr7alm1nqraxs62abl8w4,SjTiH6Et,2020-0188,2020-05-21,15:01:38,15:21:11,NA,incomplete,215,shape,0,right,Red_Circle_Stripes_2.jpg,Blue_Plus_Grid_2.jpg,Green_Circle_Dots_1.jpg,right,567.8249999182299,true,high,false
SjTiH6Et,3jhb4bpsgnm0h9bvp7tggfn0kkoq96,3tmfv4nepcr7alm1nqraxs62abl8w4,SjTiH6Et,2020-0188,2020-05-21,15:01:38,15:21:11,NA,incomplete,216,shape,1,left,Blue_Plus_Dots_4.jpg,Red_Plus_Grid_3.jpg,Purple_Star_Chess_4.jpg,left,645.8049999782816,true,high,false
SjTiH6Et,3jhb4bpsgnm0h9bvp7tggfn0kkoq96,3tmfv4nepcr7alm1nqraxs62abl8w4,SjTiH6Et,2020-0188,2020-05-21,15:01:38,15:21:11,NA,incomplete,217,shape,0,right,Green_Plus_Dots_2.jpg,Purple_Star_Chess_2.jpg,Red_Plus_Stripes_1.jpg,right,695.6749999662861,true,high,false
SjTiH6Et,3jhb4bpsgnm0h9bvp7tggfn0kkoq96,3tmfv4nepcr7alm1nqraxs62abl8w4,SjTiH6Et,2020-0188,2020-05-21,15:01:38,15:21:11,NA,incomplete,218,shape,1,right,Red_Circle_Dots_4.jpg,Purple_Star_Grid_4.jpg,Blue_Circle_Stripes_1.jpg,right,544.9700000463054,true,high,false
SjTiH6Et,3jhb4bpsgnm0h9bvp7tggfn0kkoq96,3tmfv4nepcr7alm1nqraxs62abl8w4,SjTiH6Et,2020-0188,2020-05-21,15:01:38,15:21:11,NA,incomplete,219,shape,1,right,Green_Triangle_Stripes_1.jpg,Purple_Plus_Grid_1.jpg,Red_Triangle_Dots_2.jpg,right,735.054999939166,true,high,false
SjTiH6Et,3jhb4bpsgnm0h9bvp7tggfn0kkoq96,3tmfv4nepcr7alm1nqraxs62abl8w4,SjTiH6Et,2020-0188,2020-05-21,15:01:38,15:21:11,NA,incomplete,220,number,0,right,Purple_Triangle_Stripes_3.jpg,Blue_Triangle_Grid_2.jpg,Green_Star_Chess_3.jpg,left,661.8449999950826,false,high,false
SjTiH6Et,3jhb4bpsgnm0h9bvp7tggfn0kkoq96,3tmfv4nepcr7alm1nqraxs62abl8w4,SjTiH6Et,2020-0188,2020-05-21,15:01:38,15:21:11,NA,incomplete,221,number,1,right,Green_Circle_Chess_4.jpg,Purple_Circle_Dots_2.jpg,Blue_Star_Stripes_4.jpg,left,641.2099999142811,false,high,false
SjTiH6Et,3jhb4bpsgnm0h9bvp7tggfn0kkoq96,3tmfv4nepcr7alm1nqraxs62abl8w4,SjTiH6Et,2020-0188,2020-05-21,15:01:38,15:21:11,NA,incomplete,222,number,1,left,Purple_Triangle_Stripes_4.jpg,Red_Circle_Chess_4.jpg,Blue_Triangle_Dots_2.jpg,right,618.5350000159815,false,high,false
SjTiH6Et,3jhb4bpsgnm0h9bvp7tggfn0kkoq96,3tmfv4nepcr7alm1nqraxs62abl8w4,SjTiH6Et,2020-0188,2020-05-21,15:01:38,15:21:11,NA,incomplete,223,number,1,right,Green_Plus_Chess_3.jpg,Purple_Plus_Grid_2.jpg,Red_Star_Stripes_3.jpg,right,981.6900000441819,true,high,false
SjTiH6Et,3jhb4bpsgnm0h9bvp7tggfn0kkoq96,3tmfv4nepcr7alm1nqraxs62abl8w4,SjTiH6Et,2020-0188,2020-05-21,15:01:38,15:21:11,NA,incomplete,224,number,0,right,Red_Circle_Chess_2.jpg,Blue_Circle_Dots_1.jpg,Purple_Triangle_Stripes_2.jpg,right,755.3049999987707,true,high,false
SjTiH6Et,3jhb4bpsgnm0h9bvp7tggfn0kkoq96,3tmfv4nepcr7alm1nqraxs62abl8w4,SjTiH6Et,2020-0188,2020-05-21,15:01:38,15:21:11,NA,incomplete,225,number,1,left,Green_Star_Grid_1.jpg,Red_Circle_Stripes_1.jpg,Purple_Star_Chess_3.jpg,left,889.5150000462309,true,high,false
SjTiH6Et,3jhb4bpsgnm0h9bvp7tggfn0kkoq96,3tmfv4nepcr7alm1nqraxs62abl8w4,SjTiH6Et,2020-0188,2020-05-21,15:01:38,15:21:11,NA,incomplete,226,number,1,left,Red_Circle_Grid_3.jpg,Blue_Star_Chess_3.jpg,Purple_Circle_Dots_1.jpg,left,562.7950000343844,true,high,false
SjTiH6Et,3jhb4bpsgnm0h9bvp7tggfn0kkoq96,3tmfv4nepcr7alm1nqraxs62abl8w4,SjTiH6Et,2020-0188,2020-05-21,15:01:38,15:21:11,NA,incomplete,227,number,1,left,Blue_Circle_Grid_4.jpg,Green_Plus_Chess_4.jpg,Red_Circle_Stripes_3.jpg,left,679.9149999860674,true,high,false
SjTiH6Et,3jhb4bpsgnm0h9bvp7tggfn0kkoq96,3tmfv4nepcr7alm1nqraxs62abl8w4,SjTiH6Et,2020-0188,2020-05-21,15:01:38,15:21:11,NA,incomplete,228,number,1,left,Blue_Circle_Dots_3.jpg,Red_Triangle_Chess_3.jpg,Green_Circle_Stripes_1.jpg,left,657.0449999999255,true,high,false
SjTiH6Et,3jhb4bpsgnm0h9bvp7tggfn0kkoq96,3tmfv4nepcr7alm1nqraxs62abl8w4,SjTiH6Et,2020-0188,2020-05-21,15:01:38,15:21:11,NA,incomplete,229,number,0,left,Purple_Star_Dots_1.jpg,Blue_Triangle_Grid_1.jpg,Green_Star_Stripes_3.jpg,left,611.3700000569224,true,high,false
SjTiH6Et,3jhb4bpsgnm0h9bvp7tggfn0kkoq96,3tmfv4nepcr7alm1nqraxs62abl8w4,SjTiH6Et,2020-0188,2020-05-21,15:01:38,15:21:11,NA,incomplete,230,number,1,left,Purple_Plus_Dots_1.jpg,Green_Circle_Chess_1.jpg,Blue_Plus_Grid_2.jpg,left,535.6150000588968,true,high,false
SjTiH6Et,3jhb4bpsgnm0h9bvp7tggfn0kkoq96,3tmfv4nepcr7alm1nqraxs62abl8w4,SjTiH6Et,2020-0188,2020-05-21,15:01:38,15:21:11,NA,incomplete,231,number,0,left,Purple_Triangle_Chess_3.jpg,Red_Plus_Grid_3.jpg,Blue_Triangle_Dots_2.jpg,left,742.7450000541285,true,high,false
SjTiH6Et,3jhb4bpsgnm0h9bvp7tggfn0kkoq96,3tmfv4nepcr7alm1nqraxs62abl8w4,SjTiH6Et,2020-0188,2020-05-21,15:01:38,15:21:11,NA,incomplete,232,number,1,right,Green_Plus_Chess_2.jpg,Blue_Plus_Grid_4.jpg,Purple_Star_Stripes_2.jpg,right,629.4450000859797,true,high,false
SjTiH6Et,3jhb4bpsgnm0h9bvp7tggfn0kkoq96,3tmfv4nepcr7alm1nqraxs62abl8w4,SjTiH6Et,2020-0188,2020-05-21,15:01:38,15:21:11,NA,incomplete,233,number,0,right,Red_Triangle_Stripes_4.jpg,Purple_Triangle_Grid_1.jpg,Green_Plus_Dots_4.jpg,right,632.2200000286102,true,high,false
SjTiH6Et,3jhb4bpsgnm0h9bvp7tggfn0kkoq96,3tmfv4nepcr7alm1nqraxs62abl8w4,SjTiH6Et,2020-0188,2020-05-21,15:01:38,15:21:11,NA,incomplete,234,number,1,left,Blue_Star_Chess_3.jpg,Red_Circle_Dots_3.jpg,Purple_Star_Stripes_1.jpg,left,643.1550000561401,true,high,false
SjTiH6Et,3jhb4bpsgnm0h9bvp7tggfn0kkoq96,3tmfv4nepcr7alm1nqraxs62abl8w4,SjTiH6Et,2020-0188,2020-05-21,15:01:38,15:21:11,NA,incomplete,235,number,1,left,Blue_Plus_Grid_3.jpg,Red_Circle_Dots_3.jpg,Green_Plus_Stripes_4.jpg,left,582.4249999132007,true,high,false
SjTiH6Et,3jhb4bpsgnm0h9bvp7tggfn0kkoq96,3tmfv4nepcr7alm1nqraxs62abl8w4,SjTiH6Et,2020-0188,2020-05-21,15:01:38,15:21:11,NA,incomplete,236,number,1,right,Purple_Circle_Dots_4.jpg,Green_Circle_Chess_1.jpg,Red_Plus_Grid_4.jpg,right,531.9850000087172,true,high,false
SjTiH6Et,3jhb4bpsgnm0h9bvp7tggfn0kkoq96,3tmfv4nepcr7alm1nqraxs62abl8w4,SjTiH6Et,2020-0188,2020-05-21,15:01:38,15:21:11,NA,incomplete,237,number,1,right,Purple_Star_Dots_2.jpg,Red_Star_Grid_1.jpg,Green_Triangle_Chess_2.jpg,right,634.9249999038875,true,high,false
SjTiH6Et,3jhb4bpsgnm0h9bvp7tggfn0kkoq96,3tmfv4nepcr7alm1nqraxs62abl8w4,SjTiH6Et,2020-0188,2020-05-21,15:01:38,15:21:11,NA,incomplete,238,number,1,right,Purple_Plus_Dots_1.jpg,Blue_Plus_Grid_4.jpg,Green_Star_Chess_1.jpg,right,709.3200000235811,true,high,false
SjTiH6Et,3jhb4bpsgnm0h9bvp7tggfn0kkoq96,3tmfv4nepcr7alm1nqraxs62abl8w4,SjTiH6Et,2020-0188,2020-05-21,15:01:38,15:21:11,NA,incomplete,239,number,1,right,Red_Triangle_Chess_1.jpg,Green_Triangle_Dots_3.jpg,Blue_Star_Grid_1.jpg,right,677.9800000367686,true,high,false
SjTiH6Et,3jhb4bpsgnm0h9bvp7tggfn0kkoq96,3tmfv4nepcr7alm1nqraxs62abl8w4,SjTiH6Et,2020-0188,2020-05-21,15:01:38,15:21:11,NA,NA,instruction example,filling,NA,NA,Blue_Plus_Dots_4.jpg,Red_Triangle_Dots_3.jpg,Blue_Circle_Chess_2.jpg,NA,NA,NA,NA,undefined
SjTiH6Et,3jhb4bpsgnm0h9bvp7tggfn0kkoq96,3tmfv4nepcr7alm1nqraxs62abl8w4,SjTiH6Et,2020-0188,2020-05-21,15:01:38,15:21:11,NA,NA,instruction example,filling,NA,NA,Red_Plus_Grid_2.jpg,Red_Circle_Chess_4.jpg,Green_Star_Grid_1.jpg,NA,NA,NA,NA,undefined
SjTiH6Et,3jhb4bpsgnm0h9bvp7tggfn0kkoq96,3tmfv4nepcr7alm1nqraxs62abl8w4,SjTiH6Et,2020-0188,2020-05-21,15:01:38,15:21:11,NA,NA,instruction example,filling,NA,NA,Purple_Star_Grid_1.jpg,Green_Star_Dots_4.jpg,Red_Triangle_Chess_1.jpg,NA,NA,NA,NA,undefined
SjTiH6Et,3jhb4bpsgnm0h9bvp7tggfn0kkoq96,3tmfv4nepcr7alm1nqraxs62abl8w4,SjTiH6Et,2020-0188,2020-05-21,15:01:38,15:21:11,NA,NA,instruction example,filling,NA,NA,Blue_Triangle_Stripes_3.jpg,Green_Plus_Dots_3.jpg,Red_Triangle_Grid_1.jpg,NA,NA,NA,NA,undefined
SjTiH6Et,3jhb4bpsgnm0h9bvp7tggfn0kkoq96,3tmfv4nepcr7alm1nqraxs62abl8w4,SjTiH6Et,2020-0188,2020-05-21,15:01:38,15:21:11,1124871.9399999827,1174631.3549999613,NA,NA,NA,NA,NA,NA,NA,NA,NA,NA,NA,undefined
