workerId,hitId,assignmentId,subject,studyid,exp_date,exp_start,exp_end,time_start,time_end,trial,type,reward_validity,answer,image_top,image_left,image_right,response,response_time,response_acc,volatility,practice
sW9D3NXE,3wa2xvdzfpuo2njsi9v42o7kc6t6eh,3tmfv4nepcr7alm1nqraxs62e8zw84,sW9D3NXE,2020-0188,2020-06-15,19:06:18,19:23:56,NA,incomplete,0,shape,0,right,Red_Circle_Chess_4.jpg,Red_Triangle_Dots_3.jpg,Purple_Circle_Stripes_1.jpg,right,1266.4850000292063,true,NA,true
sW9D3NXE,3wa2xvdzfpuo2njsi9v42o7kc6t6eh,3tmfv4nepcr7alm1nqraxs62e8zw84,sW9D3NXE,2020-0188,2020-06-15,19:06:18,19:23:56,NA,incomplete,1,shape,1,left,Purple_Plus_Stripes_4.jpg,Green_Plus_Chess_3.jpg,Purple_Star_Dots_1.jpg,left,879.4499998912215,true,NA,true
sW9D3NXE,3wa2xvdzfpuo2njsi9v42o7kc6t6eh,3tmfv4nepcr7alm1nqraxs62e8zw84,sW9D3NXE,2020-0188,2020-06-15,19:06:18,19:23:56,NA,incomplete,2,shape,1,right,Red_Circle_Dots_2.jpg,Red_Plus_Grid_3.jpg,Green_Circle_Chess_1.jpg,right,900.9949997998774,true,NA,true
sW9D3NXE,3wa2xvdzfpuo2njsi9v42o7kc6t6eh,3tmfv4nepcr7alm1nqraxs62e8zw84,sW9D3NXE,2020-0188,2020-06-15,19:06:18,19:23:56,NA,incomplete,3,shape,1,left,Blue_Star_Dots_4.jpg,Purple_Star_Chess_1.jpg,Blue_Triangle_Stripes_3.jpg,left,1148.3750001061708,true,NA,true
sW9D3NXE,3wa2xvdzfpuo2njsi9v42o7kc6t6eh,3tmfv4nepcr7alm1nqraxs62e8zw84,sW9D3NXE,2020-0188,2020-06-15,19:06:18,19:23:56,NA,incomplete,4,shape,1,left,Purple_Triangle_Grid_3.jpg,Red_Triangle_Stripes_1.jpg,Purple_Star_Dots_2.jpg,left,1052.8550001326948,true,NA,true
sW9D3NXE,3wa2xvdzfpuo2njsi9v42o7kc6t6eh,3tmfv4nepcr7alm1nqraxs62e8zw84,sW9D3NXE,2020-0188,2020-06-15,19:06:18,19:23:56,NA,incomplete,5,shape,1,right,Green_Plus_Grid_1.jpg,Green_Triangle_Dots_3.jpg,Blue_Plus_Stripes_4.jpg,right,947.0949999522418,true,NA,true
sW9D3NXE,3wa2xvdzfpuo2njsi9v42o7kc6t6eh,3tmfv4nepcr7alm1nqraxs62e8zw84,sW9D3NXE,2020-0188,2020-06-15,19:06:18,19:23:56,NA,incomplete,6,shape,0,left,Purple_Triangle_Chess_1.jpg,Green_Triangle_Grid_2.jpg,Purple_Circle_Stripes_3.jpg,left,932.6700000092387,true,NA,true
sW9D3NXE,3wa2xvdzfpuo2njsi9v42o7kc6t6eh,3tmfv4nepcr7alm1nqraxs62e8zw84,sW9D3NXE,2020-0188,2020-06-15,19:06:18,19:23:56,NA,incomplete,7,shape,1,left,Red_Triangle_Grid_4.jpg,Purple_Triangle_Dots_1.jpg,Red_Plus_Chess_2.jpg,left,962.5899998936802,true,NA,true
sW9D3NXE,3wa2xvdzfpuo2njsi9v42o7kc6t6eh,3tmfv4nepcr7alm1nqraxs62e8zw84,sW9D3NXE,2020-0188,2020-06-15,19:06:18,19:23:56,NA,incomplete,8,shape,1,right,Blue_Circle_Grid_3.jpg,Blue_Star_Chess_1.jpg,Purple_Circle_Dots_2.jpg,right,734.859999967739,true,NA,true
sW9D3NXE,3wa2xvdzfpuo2njsi9v42o7kc6t6eh,3tmfv4nepcr7alm1nqraxs62e8zw84,sW9D3NXE,2020-0188,2020-06-15,19:06:18,19:23:56,NA,incomplete,9,shape,1,left,Blue_Star_Grid_1.jpg,Purple_Star_Stripes_2.jpg,Blue_Circle_Dots_3.jpg,left,699.0950000472367,true,NA,true
sW9D3NXE,3wa2xvdzfpuo2njsi9v42o7kc6t6eh,3tmfv4nepcr7alm1nqraxs62e8zw84,sW9D3NXE,2020-0188,2020-06-15,19:06:18,19:23:56,NA,incomplete,10,shape,1,left,Purple_Star_Grid_3.jpg,Red_Star_Dots_4.jpg,Purple_Triangle_Stripes_2.jpg,left,1162.2049999423325,true,NA,true
sW9D3NXE,3wa2xvdzfpuo2njsi9v42o7kc6t6eh,3tmfv4nepcr7alm1nqraxs62e8zw84,sW9D3NXE,2020-0188,2020-06-15,19:06:18,19:23:56,NA,incomplete,11,shape,1,right,Green_Star_Dots_3.jpg,Green_Triangle_Stripes_4.jpg,Blue_Star_Grid_1.jpg,right,906.2550000380725,true,NA,true
sW9D3NXE,3wa2xvdzfpuo2njsi9v42o7kc6t6eh,3tmfv4nepcr7alm1nqraxs62e8zw84,sW9D3NXE,2020-0188,2020-06-15,19:06:18,19:23:56,NA,incomplete,12,shape,0,right,Green_Circle_Stripes_4.jpg,Green_Star_Chess_1.jpg,Purple_Circle_Grid_3.jpg,right,824.9949999153614,true,NA,true
sW9D3NXE,3wa2xvdzfpuo2njsi9v42o7kc6t6eh,3tmfv4nepcr7alm1nqraxs62e8zw84,sW9D3NXE,2020-0188,2020-06-15,19:06:18,19:23:56,NA,incomplete,13,shape,1,left,Green_Circle_Stripes_3.jpg,Red_Circle_Chess_2.jpg,Green_Star_Grid_1.jpg,left,840.034999884665,true,NA,true
sW9D3NXE,3wa2xvdzfpuo2njsi9v42o7kc6t6eh,3tmfv4nepcr7alm1nqraxs62e8zw84,sW9D3NXE,2020-0188,2020-06-15,19:06:18,19:23:56,NA,incomplete,14,shape,1,right,Red_Triangle_Stripes_1.jpg,Red_Plus_Chess_2.jpg,Blue_Triangle_Grid_4.jpg,right,1071.409999858588,true,NA,true
sW9D3NXE,3wa2xvdzfpuo2njsi9v42o7kc6t6eh,3tmfv4nepcr7alm1nqraxs62e8zw84,sW9D3NXE,2020-0188,2020-06-15,19:06:18,19:23:56,NA,incomplete,15,shape,1,right,Blue_Star_Dots_1.jpg,Blue_Plus_Chess_2.jpg,Green_Star_Stripes_4.jpg,right,1050.5600001197308,true,NA,true
sW9D3NXE,3wa2xvdzfpuo2njsi9v42o7kc6t6eh,3tmfv4nepcr7alm1nqraxs62e8zw84,sW9D3NXE,2020-0188,2020-06-15,19:06:18,19:23:56,NA,incomplete,16,shape,1,right,Blue_Star_Chess_2.jpg,Blue_Triangle_Dots_3.jpg,Green_Star_Stripes_1.jpg,right,891.2949999794364,true,NA,true
sW9D3NXE,3wa2xvdzfpuo2njsi9v42o7kc6t6eh,3tmfv4nepcr7alm1nqraxs62e8zw84,sW9D3NXE,2020-0188,2020-06-15,19:06:18,19:23:56,NA,incomplete,17,shape,1,left,Red_Star_Chess_3.jpg,Purple_Star_Stripes_4.jpg,Red_Circle_Dots_1.jpg,left,796.9150000717491,true,NA,true
sW9D3NXE,3wa2xvdzfpuo2njsi9v42o7kc6t6eh,3tmfv4nepcr7alm1nqraxs62e8zw84,sW9D3NXE,2020-0188,2020-06-15,19:06:18,19:23:56,NA,incomplete,18,shape,0,left,Purple_Star_Chess_1.jpg,Red_Star_Grid_4.jpg,Purple_Triangle_Stripes_3.jpg,left,1051.5850000083447,true,NA,true
sW9D3NXE,3wa2xvdzfpuo2njsi9v42o7kc6t6eh,3tmfv4nepcr7alm1nqraxs62e8zw84,sW9D3NXE,2020-0188,2020-06-15,19:06:18,19:23:56,NA,incomplete,19,shape,1,right,Green_Plus_Dots_3.jpg,Green_Triangle_Grid_2.jpg,Purple_Plus_Stripes_1.jpg,right,792.1100000385195,true,NA,true
sW9D3NXE,3wa2xvdzfpuo2njsi9v42o7kc6t6eh,3tmfv4nepcr7alm1nqraxs62e8zw84,sW9D3NXE,2020-0188,2020-06-15,19:06:18,19:23:56,NA,incomplete,20,color,1,left,Purple_Plus_Stripes_3.jpg,Purple_Circle_Chess_4.jpg,Red_Plus_Grid_2.jpg,left,1440.7250001095235,true,NA,true
sW9D3NXE,3wa2xvdzfpuo2njsi9v42o7kc6t6eh,3tmfv4nepcr7alm1nqraxs62e8zw84,sW9D3NXE,2020-0188,2020-06-15,19:06:18,19:23:56,NA,incomplete,21,color,1,left,Green_Star_Stripes_2.jpg,Green_Circle_Grid_1.jpg,Purple_Star_Dots_3.jpg,left,1272.025000071153,true,NA,true
sW9D3NXE,3wa2xvdzfpuo2njsi9v42o7kc6t6eh,3tmfv4nepcr7alm1nqraxs62e8zw84,sW9D3NXE,2020-0188,2020-06-15,19:06:18,19:23:56,NA,incomplete,22,color,1,right,Red_Star_Dots_2.jpg,Purple_Star_Stripes_4.jpg,Red_Triangle_Chess_1.jpg,right,1018.7849998474121,true,NA,true
sW9D3NXE,3wa2xvdzfpuo2njsi9v42o7kc6t6eh,3tmfv4nepcr7alm1nqraxs62e8zw84,sW9D3NXE,2020-0188,2020-06-15,19:06:18,19:23:56,NA,incomplete,23,color,1,right,Red_Triangle_Chess_3.jpg,Purple_Triangle_Grid_2.jpg,Red_Circle_Stripes_1.jpg,right,944.6349998470396,true,NA,true
sW9D3NXE,3wa2xvdzfpuo2njsi9v42o7kc6t6eh,3tmfv4nepcr7alm1nqraxs62e8zw84,sW9D3NXE,2020-0188,2020-06-15,19:06:18,19:23:56,NA,incomplete,24,color,1,left,Blue_Star_Grid_2.jpg,Blue_Circle_Dots_4.jpg,Green_Star_Stripes_3.jpg,left,1128.9349999278784,true,NA,true
sW9D3NXE,3wa2xvdzfpuo2njsi9v42o7kc6t6eh,3tmfv4nepcr7alm1nqraxs62e8zw84,sW9D3NXE,2020-0188,2020-06-15,19:06:18,19:23:56,NA,incomplete,25,color,1,left,Purple_Star_Dots_3.jpg,Purple_Triangle_Stripes_4.jpg,Green_Star_Chess_2.jpg,left,1004.5449999161065,true,NA,true
sW9D3NXE,3wa2xvdzfpuo2njsi9v42o7kc6t6eh,3tmfv4nepcr7alm1nqraxs62e8zw84,sW9D3NXE,2020-0188,2020-06-15,19:06:18,19:23:56,NA,incomplete,26,color,1,right,Green_Triangle_Dots_1.jpg,Blue_Triangle_Chess_3.jpg,Green_Plus_Grid_4.jpg,right,817.1350001357496,true,NA,true
sW9D3NXE,3wa2xvdzfpuo2njsi9v42o7kc6t6eh,3tmfv4nepcr7alm1nqraxs62e8zw84,sW9D3NXE,2020-0188,2020-06-15,19:06:18,19:23:56,NA,incomplete,27,color,1,left,Green_Circle_Chess_1.jpg,Green_Plus_Dots_4.jpg,Red_Circle_Stripes_3.jpg,right,911.4550000522286,false,NA,true
sW9D3NXE,3wa2xvdzfpuo2njsi9v42o7kc6t6eh,3tmfv4nepcr7alm1nqraxs62e8zw84,sW9D3NXE,2020-0188,2020-06-15,19:06:18,19:23:56,NA,incomplete,28,color,1,left,Blue_Circle_Dots_4.jpg,Blue_Plus_Stripes_1.jpg,Green_Circle_Grid_2.jpg,left,1287.0350000448525,true,NA,true
sW9D3NXE,3wa2xvdzfpuo2njsi9v42o7kc6t6eh,3tmfv4nepcr7alm1nqraxs62e8zw84,sW9D3NXE,2020-0188,2020-06-15,19:06:18,19:23:56,NA,incomplete,29,color,0,right,Blue_Star_Dots_2.jpg,Purple_Star_Grid_1.jpg,Blue_Triangle_Stripes_4.jpg,right,963.7100000400096,true,NA,true
sW9D3NXE,3wa2xvdzfpuo2njsi9v42o7kc6t6eh,3tmfv4nepcr7alm1nqraxs62e8zw84,sW9D3NXE,2020-0188,2020-06-15,19:06:18,19:23:56,NA,incomplete,30,color,0,left,Blue_Plus_Chess_3.jpg,Blue_Triangle_Stripes_2.jpg,Green_Plus_Dots_1.jpg,left,752.3350000847131,true,NA,true
sW9D3NXE,3wa2xvdzfpuo2njsi9v42o7kc6t6eh,3tmfv4nepcr7alm1nqraxs62e8zw84,sW9D3NXE,2020-0188,2020-06-15,19:06:18,19:23:56,NA,incomplete,31,color,1,left,Red_Plus_Dots_4.jpg,Red_Triangle_Stripes_1.jpg,Green_Plus_Grid_3.jpg,left,897.6700000930578,true,NA,true
sW9D3NXE,3wa2xvdzfpuo2njsi9v42o7kc6t6eh,3tmfv4nepcr7alm1nqraxs62e8zw84,sW9D3NXE,2020-0188,2020-06-15,19:06:18,19:23:56,NA,incomplete,32,color,0,left,Purple_Triangle_Chess_1.jpg,Purple_Star_Grid_4.jpg,Red_Triangle_Stripes_2.jpg,left,1209.4999998807907,true,NA,true
sW9D3NXE,3wa2xvdzfpuo2njsi9v42o7kc6t6eh,3tmfv4nepcr7alm1nqraxs62e8zw84,sW9D3NXE,2020-0188,2020-06-15,19:06:18,19:23:56,NA,incomplete,33,color,1,left,Green_Star_Stripes_3.jpg,Green_Triangle_Dots_2.jpg,Red_Star_Grid_4.jpg,left,1118.3050000108778,true,NA,true
sW9D3NXE,3wa2xvdzfpuo2njsi9v42o7kc6t6eh,3tmfv4nepcr7alm1nqraxs62e8zw84,sW9D3NXE,2020-0188,2020-06-15,19:06:18,19:23:56,NA,incomplete,34,color,1,left,Purple_Triangle_Stripes_2.jpg,Purple_Circle_Chess_3.jpg,Blue_Triangle_Grid_4.jpg,left,1036.1300001386553,true,NA,true
sW9D3NXE,3wa2xvdzfpuo2njsi9v42o7kc6t6eh,3tmfv4nepcr7alm1nqraxs62e8zw84,sW9D3NXE,2020-0188,2020-06-15,19:06:18,19:23:56,NA,incomplete,35,color,1,right,Green_Plus_Grid_1.jpg,Blue_Plus_Dots_4.jpg,Green_Triangle_Chess_2.jpg,right,966.2549998611212,true,NA,true
sW9D3NXE,3wa2xvdzfpuo2njsi9v42o7kc6t6eh,3tmfv4nepcr7alm1nqraxs62e8zw84,sW9D3NXE,2020-0188,2020-06-15,19:06:18,19:23:56,NA,incomplete,36,color,1,left,Blue_Circle_Stripes_3.jpg,Blue_Plus_Grid_1.jpg,Red_Circle_Dots_2.jpg,left,1162.525000050664,true,NA,true
sW9D3NXE,3wa2xvdzfpuo2njsi9v42o7kc6t6eh,3tmfv4nepcr7alm1nqraxs62e8zw84,sW9D3NXE,2020-0188,2020-06-15,19:06:18,19:23:56,NA,incomplete,37,color,0,left,Red_Circle_Dots_2.jpg,Red_Star_Chess_3.jpg,Purple_Circle_Stripes_4.jpg,left,1222.0399999059737,true,NA,true
sW9D3NXE,3wa2xvdzfpuo2njsi9v42o7kc6t6eh,3tmfv4nepcr7alm1nqraxs62e8zw84,sW9D3NXE,2020-0188,2020-06-15,19:06:18,19:23:56,NA,incomplete,38,color,1,left,Green_Plus_Grid_4.jpg,Green_Star_Dots_2.jpg,Red_Plus_Stripes_3.jpg,left,928.2800001092255,true,NA,true
sW9D3NXE,3wa2xvdzfpuo2njsi9v42o7kc6t6eh,3tmfv4nepcr7alm1nqraxs62e8zw84,sW9D3NXE,2020-0188,2020-06-15,19:06:18,19:23:56,NA,incomplete,39,color,1,left,Red_Triangle_Grid_3.jpg,Red_Star_Chess_4.jpg,Blue_Triangle_Dots_2.jpg,left,1553.9450000505894,true,NA,true
sW9D3NXE,3wa2xvdzfpuo2njsi9v42o7kc6t6eh,3tmfv4nepcr7alm1nqraxs62e8zw84,sW9D3NXE,2020-0188,2020-06-15,19:06:18,19:23:56,NA,incomplete,0,shape,0,right,Green_Circle_Dots_1.jpg,Green_Triangle_Chess_3.jpg,Blue_Circle_Grid_2.jpg,right,724.8400000389665,true,high,false
sW9D3NXE,3wa2xvdzfpuo2njsi9v42o7kc6t6eh,3tmfv4nepcr7alm1nqraxs62e8zw84,sW9D3NXE,2020-0188,2020-06-15,19:06:18,19:23:56,NA,incomplete,1,shape,0,left,Green_Plus_Dots_1.jpg,Purple_Plus_Chess_3.jpg,Green_Triangle_Stripes_2.jpg,right,887.6799999270588,false,high,false
sW9D3NXE,3wa2xvdzfpuo2njsi9v42o7kc6t6eh,3tmfv4nepcr7alm1nqraxs62e8zw84,sW9D3NXE,2020-0188,2020-06-15,19:06:18,19:23:56,NA,incomplete,2,shape,1,right,Purple_Triangle_Stripes_3.jpg,Purple_Circle_Chess_2.jpg,Green_Triangle_Grid_1.jpg,left,825.8899999782443,false,high,false
sW9D3NXE,3wa2xvdzfpuo2njsi9v42o7kc6t6eh,3tmfv4nepcr7alm1nqraxs62e8zw84,sW9D3NXE,2020-0188,2020-06-15,19:06:18,19:23:56,NA,incomplete,3,shape,1,left,Green_Circle_Dots_3.jpg,Red_Circle_Chess_4.jpg,Green_Plus_Grid_1.jpg,right,1054.1050001047552,false,high,false
sW9D3NXE,3wa2xvdzfpuo2njsi9v42o7kc6t6eh,3tmfv4nepcr7alm1nqraxs62e8zw84,sW9D3NXE,2020-0188,2020-06-15,19:06:18,19:23:56,NA,incomplete,4,shape,0,left,Red_Triangle_Stripes_1.jpg,Blue_Triangle_Dots_4.jpg,Red_Star_Chess_3.jpg,left,711.3350001163781,true,high,false
sW9D3NXE,3wa2xvdzfpuo2njsi9v42o7kc6t6eh,3tmfv4nepcr7alm1nqraxs62e8zw84,sW9D3NXE,2020-0188,2020-06-15,19:06:18,19:23:56,NA,incomplete,5,shape,1,left,Purple_Circle_Grid_1.jpg,Red_Circle_Stripes_4.jpg,Purple_Plus_Chess_2.jpg,left,640.8199998550117,true,high,false
sW9D3NXE,3wa2xvdzfpuo2njsi9v42o7kc6t6eh,3tmfv4nepcr7alm1nqraxs62e8zw84,sW9D3NXE,2020-0188,2020-06-15,19:06:18,19:23:56,NA,incomplete,6,shape,1,left,Green_Plus_Dots_3.jpg,Red_Plus_Stripes_2.jpg,Green_Triangle_Grid_4.jpg,left,691.2400000728667,true,high,false
sW9D3NXE,3wa2xvdzfpuo2njsi9v42o7kc6t6eh,3tmfv4nepcr7alm1nqraxs62e8zw84,sW9D3NXE,2020-0188,2020-06-15,19:06:18,19:23:56,NA,incomplete,7,shape,0,right,Red_Star_Dots_3.jpg,Red_Triangle_Stripes_1.jpg,Purple_Star_Grid_2.jpg,right,1036.0000000800937,true,high,false
sW9D3NXE,3wa2xvdzfpuo2njsi9v42o7kc6t6eh,3tmfv4nepcr7alm1nqraxs62e8zw84,sW9D3NXE,2020-0188,2020-06-15,19:06:18,19:23:56,NA,incomplete,8,shape,1,left,Red_Star_Chess_3.jpg,Green_Star_Stripes_2.jpg,Red_Triangle_Grid_4.jpg,left,758.254999993369,true,high,false
sW9D3NXE,3wa2xvdzfpuo2njsi9v42o7kc6t6eh,3tmfv4nepcr7alm1nqraxs62e8zw84,sW9D3NXE,2020-0188,2020-06-15,19:06:18,19:23:56,NA,incomplete,9,shape,1,left,Green_Circle_Stripes_4.jpg,Purple_Circle_Grid_3.jpg,Green_Triangle_Chess_2.jpg,left,677.73999995552,true,high,false
sW9D3NXE,3wa2xvdzfpuo2njsi9v42o7kc6t6eh,3tmfv4nepcr7alm1nqraxs62e8zw84,sW9D3NXE,2020-0188,2020-06-15,19:06:18,19:23:56,NA,incomplete,10,color,1,left,Green_Circle_Stripes_2.jpg,Green_Plus_Chess_1.jpg,Purple_Circle_Grid_4.jpg,right,663.6999999172986,false,high,false
sW9D3NXE,3wa2xvdzfpuo2njsi9v42o7kc6t6eh,3tmfv4nepcr7alm1nqraxs62e8zw84,sW9D3NXE,2020-0188,2020-06-15,19:06:18,19:23:56,NA,incomplete,11,color,0,right,Purple_Triangle_Grid_2.jpg,Blue_Triangle_Chess_1.jpg,Purple_Circle_Stripes_4.jpg,left,772.3999998997897,false,high,false
sW9D3NXE,3wa2xvdzfpuo2njsi9v42o7kc6t6eh,3tmfv4nepcr7alm1nqraxs62e8zw84,sW9D3NXE,2020-0188,2020-06-15,19:06:18,19:23:56,NA,incomplete,12,color,1,left,Purple_Circle_Dots_3.jpg,Purple_Plus_Stripes_1.jpg,Blue_Circle_Chess_2.jpg,right,854.0199999697506,false,high,false
sW9D3NXE,3wa2xvdzfpuo2njsi9v42o7kc6t6eh,3tmfv4nepcr7alm1nqraxs62e8zw84,sW9D3NXE,2020-0188,2020-06-15,19:06:18,19:23:56,NA,incomplete,13,color,1,right,Purple_Triangle_Chess_4.jpg,Green_Triangle_Grid_3.jpg,Purple_Star_Stripes_1.jpg,right,929.8449999187142,true,high,false
sW9D3NXE,3wa2xvdzfpuo2njsi9v42o7kc6t6eh,3tmfv4nepcr7alm1nqraxs62e8zw84,sW9D3NXE,2020-0188,2020-06-15,19:06:18,19:23:56,NA,incomplete,14,color,0,right,Purple_Triangle_Chess_4.jpg,Blue_Triangle_Stripes_2.jpg,Purple_Circle_Grid_1.jpg,right,868.599999928847,true,high,false
sW9D3NXE,3wa2xvdzfpuo2njsi9v42o7kc6t6eh,3tmfv4nepcr7alm1nqraxs62e8zw84,sW9D3NXE,2020-0188,2020-06-15,19:06:18,19:23:56,NA,incomplete,15,color,0,right,Green_Star_Dots_4.jpg,Blue_Star_Chess_1.jpg,Green_Triangle_Stripes_3.jpg,right,643.0699999909848,true,high,false
sW9D3NXE,3wa2xvdzfpuo2njsi9v42o7kc6t6eh,3tmfv4nepcr7alm1nqraxs62e8zw84,sW9D3NXE,2020-0188,2020-06-15,19:06:18,19:23:56,NA,incomplete,16,color,1,left,Purple_Star_Dots_3.jpg,Purple_Plus_Grid_2.jpg,Blue_Star_Stripes_4.jpg,left,972.404999891296,true,high,false
sW9D3NXE,3wa2xvdzfpuo2njsi9v42o7kc6t6eh,3tmfv4nepcr7alm1nqraxs62e8zw84,sW9D3NXE,2020-0188,2020-06-15,19:06:18,19:23:56,NA,incomplete,17,color,1,left,Red_Plus_Dots_3.jpg,Red_Triangle_Grid_4.jpg,Green_Plus_Stripes_2.jpg,left,718.129999935627,true,high,false
sW9D3NXE,3wa2xvdzfpuo2njsi9v42o7kc6t6eh,3tmfv4nepcr7alm1nqraxs62e8zw84,sW9D3NXE,2020-0188,2020-06-15,19:06:18,19:23:56,NA,incomplete,18,color,0,right,Blue_Star_Chess_2.jpg,Green_Star_Grid_1.jpg,Blue_Circle_Dots_4.jpg,right,973.7150000873953,true,high,false
sW9D3NXE,3wa2xvdzfpuo2njsi9v42o7kc6t6eh,3tmfv4nepcr7alm1nqraxs62e8zw84,sW9D3NXE,2020-0188,2020-06-15,19:06:18,19:23:56,NA,incomplete,19,color,1,left,Green_Star_Grid_1.jpg,Green_Plus_Stripes_4.jpg,Blue_Star_Dots_2.jpg,left,560.5550000909716,true,high,false
sW9D3NXE,3wa2xvdzfpuo2njsi9v42o7kc6t6eh,3tmfv4nepcr7alm1nqraxs62e8zw84,sW9D3NXE,2020-0188,2020-06-15,19:06:18,19:23:56,NA,incomplete,20,shape,0,left,Purple_Triangle_Dots_1.jpg,Green_Triangle_Stripes_4.jpg,Purple_Star_Grid_2.jpg,left,889.1050000675023,true,high,false
sW9D3NXE,3wa2xvdzfpuo2njsi9v42o7kc6t6eh,3tmfv4nepcr7alm1nqraxs62e8zw84,sW9D3NXE,2020-0188,2020-06-15,19:06:18,19:23:56,NA,incomplete,21,shape,1,right,Purple_Star_Chess_2.jpg,Purple_Plus_Stripes_1.jpg,Blue_Star_Dots_4.jpg,right,827.0150001626462,true,high,false
sW9D3NXE,3wa2xvdzfpuo2njsi9v42o7kc6t6eh,3tmfv4nepcr7alm1nqraxs62e8zw84,sW9D3NXE,2020-0188,2020-06-15,19:06:18,19:23:56,NA,incomplete,22,shape,1,left,Green_Triangle_Dots_1.jpg,Red_Triangle_Stripes_2.jpg,Green_Circle_Chess_3.jpg,right,1111.9399999734014,false,high,false
sW9D3NXE,3wa2xvdzfpuo2njsi9v42o7kc6t6eh,3tmfv4nepcr7alm1nqraxs62e8zw84,sW9D3NXE,2020-0188,2020-06-15,19:06:18,19:23:56,NA,incomplete,23,shape,0,left,Blue_Plus_Stripes_1.jpg,Purple_Plus_Grid_3.jpg,Blue_Circle_Dots_4.jpg,right,822.4449998233467,false,high,false
sW9D3NXE,3wa2xvdzfpuo2njsi9v42o7kc6t6eh,3tmfv4nepcr7alm1nqraxs62e8zw84,sW9D3NXE,2020-0188,2020-06-15,19:06:18,19:23:56,NA,incomplete,24,shape,1,right,Green_Plus_Dots_3.jpg,Green_Circle_Stripes_4.jpg,Purple_Plus_Chess_2.jpg,right,835.2000000886619,true,high,false
sW9D3NXE,3wa2xvdzfpuo2njsi9v42o7kc6t6eh,3tmfv4nepcr7alm1nqraxs62e8zw84,sW9D3NXE,2020-0188,2020-06-15,19:06:18,19:23:56,NA,incomplete,25,shape,1,right,Green_Star_Dots_1.jpg,Green_Circle_Chess_3.jpg,Red_Star_Stripes_4.jpg,left,1005.1750000566244,false,high,false
sW9D3NXE,3wa2xvdzfpuo2njsi9v42o7kc6t6eh,3tmfv4nepcr7alm1nqraxs62e8zw84,sW9D3NXE,2020-0188,2020-06-15,19:06:18,19:23:56,NA,incomplete,26,shape,1,right,Purple_Plus_Stripes_4.jpg,Purple_Star_Chess_2.jpg,Blue_Plus_Grid_1.jpg,left,1121.5450000017881,false,high,false
sW9D3NXE,3wa2xvdzfpuo2njsi9v42o7kc6t6eh,3tmfv4nepcr7alm1nqraxs62e8zw84,sW9D3NXE,2020-0188,2020-06-15,19:06:18,19:23:56,NA,incomplete,27,shape,1,left,Red_Circle_Chess_4.jpg,Blue_Circle_Dots_1.jpg,Red_Plus_Grid_3.jpg,left,781.2300000805408,true,high,false
sW9D3NXE,3wa2xvdzfpuo2njsi9v42o7kc6t6eh,3tmfv4nepcr7alm1nqraxs62e8zw84,sW9D3NXE,2020-0188,2020-06-15,19:06:18,19:23:56,NA,incomplete,28,shape,1,right,Green_Plus_Chess_4.jpg,Green_Circle_Stripes_2.jpg,Red_Plus_Dots_3.jpg,right,762.1649999637157,true,high,false
sW9D3NXE,3wa2xvdzfpuo2njsi9v42o7kc6t6eh,3tmfv4nepcr7alm1nqraxs62e8zw84,sW9D3NXE,2020-0188,2020-06-15,19:06:18,19:23:56,NA,incomplete,29,shape,1,right,Blue_Circle_Chess_4.jpg,Blue_Plus_Stripes_1.jpg,Green_Circle_Dots_3.jpg,right,1012.4000001233071,true,high,false
sW9D3NXE,3wa2xvdzfpuo2njsi9v42o7kc6t6eh,3tmfv4nepcr7alm1nqraxs62e8zw84,sW9D3NXE,2020-0188,2020-06-15,19:06:18,19:23:56,NA,incomplete,30,color,1,right,Purple_Circle_Dots_4.jpg,Green_Circle_Grid_3.jpg,Purple_Star_Chess_2.jpg,left,696.1300000548363,false,high,false
sW9D3NXE,3wa2xvdzfpuo2njsi9v42o7kc6t6eh,3tmfv4nepcr7alm1nqraxs62e8zw84,sW9D3NXE,2020-0188,2020-06-15,19:06:18,19:23:56,NA,incomplete,31,color,0,right,Green_Circle_Grid_2.jpg,Red_Circle_Stripes_3.jpg,Green_Triangle_Dots_1.jpg,left,619.7849998716265,false,high,false
sW9D3NXE,3wa2xvdzfpuo2njsi9v42o7kc6t6eh,3tmfv4nepcr7alm1nqraxs62e8zw84,sW9D3NXE,2020-0188,2020-06-15,19:06:18,19:23:56,NA,incomplete,32,color,1,left,Green_Triangle_Grid_4.jpg,Green_Star_Dots_1.jpg,Blue_Triangle_Chess_3.jpg,right,748.8700000103563,false,high,false
sW9D3NXE,3wa2xvdzfpuo2njsi9v42o7kc6t6eh,3tmfv4nepcr7alm1nqraxs62e8zw84,sW9D3NXE,2020-0188,2020-06-15,19:06:18,19:23:56,NA,incomplete,33,color,1,left,Blue_Star_Grid_3.jpg,Blue_Circle_Chess_1.jpg,Green_Star_Dots_4.jpg,right,938.8300001155585,false,high,false
sW9D3NXE,3wa2xvdzfpuo2njsi9v42o7kc6t6eh,3tmfv4nepcr7alm1nqraxs62e8zw84,sW9D3NXE,2020-0188,2020-06-15,19:06:18,19:23:56,NA,incomplete,34,color,1,left,Red_Star_Grid_1.jpg,Red_Circle_Chess_4.jpg,Blue_Star_Stripes_2.jpg,right,760.9000001102686,false,high,false
sW9D3NXE,3wa2xvdzfpuo2njsi9v42o7kc6t6eh,3tmfv4nepcr7alm1nqraxs62e8zw84,sW9D3NXE,2020-0188,2020-06-15,19:06:18,19:23:56,NA,incomplete,35,color,1,left,Blue_Circle_Grid_3.jpg,Blue_Triangle_Dots_2.jpg,Purple_Circle_Stripes_1.jpg,left,721.7550000641495,true,high,false
sW9D3NXE,3wa2xvdzfpuo2njsi9v42o7kc6t6eh,3tmfv4nepcr7alm1nqraxs62e8zw84,sW9D3NXE,2020-0188,2020-06-15,19:06:18,19:23:56,NA,incomplete,36,color,1,right,Red_Plus_Grid_4.jpg,Purple_Plus_Dots_1.jpg,Red_Circle_Chess_3.jpg,right,851.8549997825176,true,high,false
sW9D3NXE,3wa2xvdzfpuo2njsi9v42o7kc6t6eh,3tmfv4nepcr7alm1nqraxs62e8zw84,sW9D3NXE,2020-0188,2020-06-15,19:06:18,19:23:56,NA,incomplete,37,color,1,left,Purple_Plus_Dots_3.jpg,Purple_Circle_Stripes_4.jpg,Green_Plus_Grid_2.jpg,left,1143.3000001125038,true,high,false
sW9D3NXE,3wa2xvdzfpuo2njsi9v42o7kc6t6eh,3tmfv4nepcr7alm1nqraxs62e8zw84,sW9D3NXE,2020-0188,2020-06-15,19:06:18,19:23:56,NA,incomplete,38,color,1,right,Purple_Triangle_Chess_3.jpg,Green_Triangle_Stripes_4.jpg,Purple_Plus_Grid_1.jpg,right,1143.3900000993162,true,high,false
sW9D3NXE,3wa2xvdzfpuo2njsi9v42o7kc6t6eh,3tmfv4nepcr7alm1nqraxs62e8zw84,sW9D3NXE,2020-0188,2020-06-15,19:06:18,19:23:56,NA,incomplete,39,color,1,right,Green_Circle_Chess_3.jpg,Red_Circle_Grid_2.jpg,Green_Star_Dots_4.jpg,right,843.4500000439584,true,high,false
sW9D3NXE,3wa2xvdzfpuo2njsi9v42o7kc6t6eh,3tmfv4nepcr7alm1nqraxs62e8zw84,sW9D3NXE,2020-0188,2020-06-15,19:06:18,19:23:56,NA,incomplete,40,shape,1,left,Blue_Plus_Grid_3.jpg,Red_Plus_Dots_4.jpg,Blue_Triangle_Stripes_2.jpg,right,1373.0000001378357,false,high,false
sW9D3NXE,3wa2xvdzfpuo2njsi9v42o7kc6t6eh,3tmfv4nepcr7alm1nqraxs62e8zw84,sW9D3NXE,2020-0188,2020-06-15,19:06:18,19:23:56,NA,incomplete,41,shape,0,left,Green_Star_Grid_1.jpg,Blue_Star_Stripes_2.jpg,Green_Plus_Chess_3.jpg,right,1376.6399999149144,false,high,false
sW9D3NXE,3wa2xvdzfpuo2njsi9v42o7kc6t6eh,3tmfv4nepcr7alm1nqraxs62e8zw84,sW9D3NXE,2020-0188,2020-06-15,19:06:18,19:23:56,NA,incomplete,42,shape,1,right,Green_Star_Chess_2.jpg,Green_Circle_Grid_1.jpg,Blue_Star_Stripes_3.jpg,left,749.0950000938028,false,high,false
sW9D3NXE,3wa2xvdzfpuo2njsi9v42o7kc6t6eh,3tmfv4nepcr7alm1nqraxs62e8zw84,sW9D3NXE,2020-0188,2020-06-15,19:06:18,19:23:56,NA,incomplete,43,shape,1,right,Green_Star_Grid_1.jpg,Green_Plus_Stripes_4.jpg,Blue_Star_Chess_3.jpg,left,869.5050000678748,false,high,false
sW9D3NXE,3wa2xvdzfpuo2njsi9v42o7kc6t6eh,3tmfv4nepcr7alm1nqraxs62e8zw84,sW9D3NXE,2020-0188,2020-06-15,19:06:18,19:23:56,NA,incomplete,44,shape,0,left,Green_Circle_Chess_2.jpg,Purple_Circle_Dots_4.jpg,Green_Plus_Grid_3.jpg,right,924.0299998782575,false,high,false
sW9D3NXE,3wa2xvdzfpuo2njsi9v42o7kc6t6eh,3tmfv4nepcr7alm1nqraxs62e8zw84,sW9D3NXE,2020-0188,2020-06-15,19:06:18,19:23:56,NA,incomplete,45,shape,1,right,Purple_Triangle_Dots_2.jpg,Purple_Plus_Chess_4.jpg,Red_Triangle_Grid_1.jpg,left,1472.4050001241267,false,high,false
sW9D3NXE,3wa2xvdzfpuo2njsi9v42o7kc6t6eh,3tmfv4nepcr7alm1nqraxs62e8zw84,sW9D3NXE,2020-0188,2020-06-15,19:06:18,19:23:56,NA,incomplete,46,shape,1,left,Green_Star_Grid_3.jpg,Red_Star_Dots_2.jpg,Green_Plus_Stripes_4.jpg,left,1015.8400000073016,true,high,false
sW9D3NXE,3wa2xvdzfpuo2njsi9v42o7kc6t6eh,3tmfv4nepcr7alm1nqraxs62e8zw84,sW9D3NXE,2020-0188,2020-06-15,19:06:18,19:23:56,NA,incomplete,47,shape,1,left,Blue_Triangle_Grid_3.jpg,Green_Triangle_Dots_1.jpg,Blue_Star_Stripes_4.jpg,left,724.4299999438226,true,high,false
sW9D3NXE,3wa2xvdzfpuo2njsi9v42o7kc6t6eh,3tmfv4nepcr7alm1nqraxs62e8zw84,sW9D3NXE,2020-0188,2020-06-15,19:06:18,19:23:56,NA,incomplete,48,shape,1,left,Blue_Triangle_Chess_3.jpg,Green_Triangle_Grid_4.jpg,Blue_Star_Stripes_2.jpg,left,669.5400001481175,true,high,false
sW9D3NXE,3wa2xvdzfpuo2njsi9v42o7kc6t6eh,3tmfv4nepcr7alm1nqraxs62e8zw84,sW9D3NXE,2020-0188,2020-06-15,19:06:18,19:23:56,NA,incomplete,49,shape,1,left,Purple_Triangle_Chess_1.jpg,Green_Triangle_Stripes_3.jpg,Purple_Plus_Grid_2.jpg,left,1075.8249999489635,true,high,false
sW9D3NXE,3wa2xvdzfpuo2njsi9v42o7kc6t6eh,3tmfv4nepcr7alm1nqraxs62e8zw84,sW9D3NXE,2020-0188,2020-06-15,19:06:18,19:23:56,NA,incomplete,50,color,1,left,Purple_Plus_Chess_4.jpg,Purple_Star_Stripes_2.jpg,Green_Plus_Dots_1.jpg,right,829.6950000803918,false,high,false
sW9D3NXE,3wa2xvdzfpuo2njsi9v42o7kc6t6eh,3tmfv4nepcr7alm1nqraxs62e8zw84,sW9D3NXE,2020-0188,2020-06-15,19:06:18,19:23:56,NA,incomplete,51,color,1,right,Blue_Plus_Stripes_4.jpg,Green_Plus_Chess_1.jpg,Blue_Triangle_Dots_2.jpg,left,1166.2850000429899,false,high,false
sW9D3NXE,3wa2xvdzfpuo2njsi9v42o7kc6t6eh,3tmfv4nepcr7alm1nqraxs62e8zw84,sW9D3NXE,2020-0188,2020-06-15,19:06:18,19:23:56,NA,incomplete,52,color,1,left,Red_Circle_Stripes_4.jpg,Red_Plus_Dots_2.jpg,Green_Circle_Chess_1.jpg,right,1450.429999968037,false,high,false
sW9D3NXE,3wa2xvdzfpuo2njsi9v42o7kc6t6eh,3tmfv4nepcr7alm1nqraxs62e8zw84,sW9D3NXE,2020-0188,2020-06-15,19:06:18,19:23:56,NA,incomplete,53,color,1,left,Blue_Star_Stripes_1.jpg,Blue_Triangle_Chess_4.jpg,Red_Star_Grid_2.jpg,left,621.2449998129159,true,high,false
sW9D3NXE,3wa2xvdzfpuo2njsi9v42o7kc6t6eh,3tmfv4nepcr7alm1nqraxs62e8zw84,sW9D3NXE,2020-0188,2020-06-15,19:06:18,19:23:56,NA,incomplete,54,color,1,left,Red_Circle_Stripes_2.jpg,Red_Star_Dots_4.jpg,Blue_Circle_Grid_1.jpg,left,1435.1599998772144,true,high,false
sW9D3NXE,3wa2xvdzfpuo2njsi9v42o7kc6t6eh,3tmfv4nepcr7alm1nqraxs62e8zw84,sW9D3NXE,2020-0188,2020-06-15,19:06:18,19:23:56,NA,incomplete,55,color,0,left,Blue_Circle_Stripes_2.jpg,Blue_Triangle_Chess_4.jpg,Purple_Circle_Grid_1.jpg,left,777.2249998524785,true,high,false
sW9D3NXE,3wa2xvdzfpuo2njsi9v42o7kc6t6eh,3tmfv4nepcr7alm1nqraxs62e8zw84,sW9D3NXE,2020-0188,2020-06-15,19:06:18,19:23:56,NA,incomplete,56,color,1,left,Green_Triangle_Grid_1.jpg,Green_Circle_Stripes_3.jpg,Red_Triangle_Dots_4.jpg,left,1311.5299998316914,true,high,false
sW9D3NXE,3wa2xvdzfpuo2njsi9v42o7kc6t6eh,3tmfv4nepcr7alm1nqraxs62e8zw84,sW9D3NXE,2020-0188,2020-06-15,19:06:18,19:23:56,NA,incomplete,57,color,1,left,Purple_Plus_Dots_2.jpg,Purple_Triangle_Stripes_3.jpg,Blue_Plus_Chess_1.jpg,left,810.109999962151,true,high,false
sW9D3NXE,3wa2xvdzfpuo2njsi9v42o7kc6t6eh,3tmfv4nepcr7alm1nqraxs62e8zw84,sW9D3NXE,2020-0188,2020-06-15,19:06:18,19:23:56,NA,incomplete,58,color,0,left,Red_Triangle_Chess_1.jpg,Red_Plus_Stripes_3.jpg,Green_Triangle_Dots_4.jpg,left,932.024999987334,true,high,false
sW9D3NXE,3wa2xvdzfpuo2njsi9v42o7kc6t6eh,3tmfv4nepcr7alm1nqraxs62e8zw84,sW9D3NXE,2020-0188,2020-06-15,19:06:18,19:23:56,NA,incomplete,59,color,1,left,Red_Circle_Grid_3.jpg,Red_Plus_Stripes_2.jpg,Blue_Circle_Dots_1.jpg,left,606.0450000222772,true,high,false
sW9D3NXE,3wa2xvdzfpuo2njsi9v42o7kc6t6eh,3tmfv4nepcr7alm1nqraxs62e8zw84,sW9D3NXE,2020-0188,2020-06-15,19:06:18,19:23:56,NA,incomplete,60,shape,1,right,Blue_Plus_Dots_1.jpg,Blue_Circle_Chess_2.jpg,Green_Plus_Grid_3.jpg,left,735.954999923706,false,high,false
sW9D3NXE,3wa2xvdzfpuo2njsi9v42o7kc6t6eh,3tmfv4nepcr7alm1nqraxs62e8zw84,sW9D3NXE,2020-0188,2020-06-15,19:06:18,19:23:56,NA,incomplete,61,shape,1,right,Blue_Plus_Grid_1.jpg,Blue_Circle_Dots_3.jpg,Red_Plus_Chess_4.jpg,left,732.4949998874217,false,high,false
sW9D3NXE,3wa2xvdzfpuo2njsi9v42o7kc6t6eh,3tmfv4nepcr7alm1nqraxs62e8zw84,sW9D3NXE,2020-0188,2020-06-15,19:06:18,19:23:56,NA,incomplete,62,shape,1,left,Purple_Circle_Stripes_3.jpg,Red_Circle_Dots_4.jpg,Purple_Plus_Grid_2.jpg,left,1134.1999999713153,true,high,false
sW9D3NXE,3wa2xvdzfpuo2njsi9v42o7kc6t6eh,3tmfv4nepcr7alm1nqraxs62e8zw84,sW9D3NXE,2020-0188,2020-06-15,19:06:18,19:23:56,NA,incomplete,63,shape,1,left,Green_Triangle_Stripes_4.jpg,Red_Triangle_Grid_1.jpg,Green_Plus_Dots_2.jpg,left,718.8649999443442,true,high,false
sW9D3NXE,3wa2xvdzfpuo2njsi9v42o7kc6t6eh,3tmfv4nepcr7alm1nqraxs62e8zw84,sW9D3NXE,2020-0188,2020-06-15,19:06:18,19:23:56,NA,incomplete,64,shape,1,right,Blue_Star_Stripes_1.jpg,Blue_Triangle_Chess_2.jpg,Red_Star_Grid_3.jpg,right,838.4899999946356,true,high,false
sW9D3NXE,3wa2xvdzfpuo2njsi9v42o7kc6t6eh,3tmfv4nepcr7alm1nqraxs62e8zw84,sW9D3NXE,2020-0188,2020-06-15,19:06:18,19:23:56,NA,incomplete,65,shape,0,right,Purple_Triangle_Grid_3.jpg,Purple_Circle_Stripes_4.jpg,Green_Triangle_Chess_1.jpg,right,732.9650002066046,true,high,false
sW9D3NXE,3wa2xvdzfpuo2njsi9v42o7kc6t6eh,3tmfv4nepcr7alm1nqraxs62e8zw84,sW9D3NXE,2020-0188,2020-06-15,19:06:18,19:23:56,NA,incomplete,66,shape,1,right,Blue_Star_Chess_3.jpg,Blue_Circle_Grid_1.jpg,Purple_Star_Dots_2.jpg,right,831.6299999132752,true,high,false
sW9D3NXE,3wa2xvdzfpuo2njsi9v42o7kc6t6eh,3tmfv4nepcr7alm1nqraxs62e8zw84,sW9D3NXE,2020-0188,2020-06-15,19:06:18,19:23:56,NA,incomplete,67,shape,1,right,Purple_Plus_Stripes_1.jpg,Purple_Triangle_Dots_3.jpg,Red_Plus_Chess_2.jpg,right,974.7450000140816,true,high,false
sW9D3NXE,3wa2xvdzfpuo2njsi9v42o7kc6t6eh,3tmfv4nepcr7alm1nqraxs62e8zw84,sW9D3NXE,2020-0188,2020-06-15,19:06:18,19:23:56,NA,incomplete,68,shape,0,left,Blue_Star_Grid_1.jpg,Red_Star_Chess_4.jpg,Blue_Circle_Stripes_2.jpg,left,615.15500000678,true,high,false
sW9D3NXE,3wa2xvdzfpuo2njsi9v42o7kc6t6eh,3tmfv4nepcr7alm1nqraxs62e8zw84,sW9D3NXE,2020-0188,2020-06-15,19:06:18,19:23:56,NA,incomplete,69,shape,1,right,Red_Circle_Grid_4.jpg,Red_Plus_Dots_1.jpg,Green_Circle_Chess_3.jpg,right,636.3299998920411,true,high,false
sW9D3NXE,3wa2xvdzfpuo2njsi9v42o7kc6t6eh,3tmfv4nepcr7alm1nqraxs62e8zw84,sW9D3NXE,2020-0188,2020-06-15,19:06:18,19:23:56,NA,incomplete,70,color,1,right,Green_Star_Grid_3.jpg,Blue_Star_Chess_2.jpg,Green_Plus_Dots_4.jpg,left,748.3899998478591,false,high,false
sW9D3NXE,3wa2xvdzfpuo2njsi9v42o7kc6t6eh,3tmfv4nepcr7alm1nqraxs62e8zw84,sW9D3NXE,2020-0188,2020-06-15,19:06:18,19:23:56,NA,incomplete,71,color,1,left,Green_Triangle_Dots_1.jpg,Green_Star_Grid_3.jpg,Purple_Triangle_Stripes_2.jpg,right,844.9950001668185,false,high,false
sW9D3NXE,3wa2xvdzfpuo2njsi9v42o7kc6t6eh,3tmfv4nepcr7alm1nqraxs62e8zw84,sW9D3NXE,2020-0188,2020-06-15,19:06:18,19:23:56,NA,incomplete,72,color,0,left,Blue_Circle_Chess_3.jpg,Blue_Plus_Dots_1.jpg,Red_Circle_Stripes_4.jpg,left,684.5650000032037,true,high,false
sW9D3NXE,3wa2xvdzfpuo2njsi9v42o7kc6t6eh,3tmfv4nepcr7alm1nqraxs62e8zw84,sW9D3NXE,2020-0188,2020-06-15,19:06:18,19:23:56,NA,incomplete,73,color,1,left,Green_Triangle_Dots_4.jpg,Green_Circle_Chess_1.jpg,Blue_Triangle_Grid_2.jpg,left,750.0549999531358,true,high,false
sW9D3NXE,3wa2xvdzfpuo2njsi9v42o7kc6t6eh,3tmfv4nepcr7alm1nqraxs62e8zw84,sW9D3NXE,2020-0188,2020-06-15,19:06:18,19:23:56,NA,incomplete,74,color,1,left,Purple_Star_Stripes_4.jpg,Purple_Circle_Grid_1.jpg,Blue_Star_Chess_2.jpg,left,1032.2350000496954,true,high,false
sW9D3NXE,3wa2xvdzfpuo2njsi9v42o7kc6t6eh,3tmfv4nepcr7alm1nqraxs62e8zw84,sW9D3NXE,2020-0188,2020-06-15,19:06:18,19:23:56,NA,incomplete,75,color,1,right,Red_Star_Dots_4.jpg,Blue_Star_Grid_1.jpg,Red_Circle_Chess_3.jpg,right,1337.7099998760968,true,high,false
sW9D3NXE,3wa2xvdzfpuo2njsi9v42o7kc6t6eh,3tmfv4nepcr7alm1nqraxs62e8zw84,sW9D3NXE,2020-0188,2020-06-15,19:06:18,19:23:56,NA,incomplete,76,color,1,right,Red_Star_Grid_1.jpg,Blue_Star_Dots_4.jpg,Red_Plus_Stripes_2.jpg,right,945.8749999757856,true,high,false
sW9D3NXE,3wa2xvdzfpuo2njsi9v42o7kc6t6eh,3tmfv4nepcr7alm1nqraxs62e8zw84,sW9D3NXE,2020-0188,2020-06-15,19:06:18,19:23:56,NA,incomplete,77,color,1,right,Green_Plus_Chess_1.jpg,Blue_Plus_Dots_2.jpg,Green_Triangle_Grid_3.jpg,right,752.1949999500066,true,high,false
sW9D3NXE,3wa2xvdzfpuo2njsi9v42o7kc6t6eh,3tmfv4nepcr7alm1nqraxs62e8zw84,sW9D3NXE,2020-0188,2020-06-15,19:06:18,19:23:56,NA,incomplete,78,color,1,right,Purple_Star_Chess_3.jpg,Green_Star_Grid_2.jpg,Purple_Plus_Stripes_1.jpg,right,999.345000134781,true,high,false
sW9D3NXE,3wa2xvdzfpuo2njsi9v42o7kc6t6eh,3tmfv4nepcr7alm1nqraxs62e8zw84,sW9D3NXE,2020-0188,2020-06-15,19:06:18,19:23:56,NA,incomplete,79,color,1,left,Red_Triangle_Stripes_4.jpg,Red_Star_Dots_1.jpg,Green_Triangle_Chess_3.jpg,left,879.5899997930974,true,high,false
sW9D3NXE,3wa2xvdzfpuo2njsi9v42o7kc6t6eh,3tmfv4nepcr7alm1nqraxs62e8zw84,sW9D3NXE,2020-0188,2020-06-15,19:06:18,19:23:56,NA,incomplete,80,shape,1,right,Red_Circle_Chess_1.jpg,Red_Plus_Grid_2.jpg,Green_Circle_Dots_3.jpg,left,1006.580000044778,false,high,false
sW9D3NXE,3wa2xvdzfpuo2njsi9v42o7kc6t6eh,3tmfv4nepcr7alm1nqraxs62e8zw84,sW9D3NXE,2020-0188,2020-06-15,19:06:18,19:23:56,NA,incomplete,81,shape,1,right,Red_Plus_Stripes_1.jpg,Red_Triangle_Chess_3.jpg,Blue_Plus_Dots_2.jpg,left,695.9200000856072,false,high,false
sW9D3NXE,3wa2xvdzfpuo2njsi9v42o7kc6t6eh,3tmfv4nepcr7alm1nqraxs62e8zw84,sW9D3NXE,2020-0188,2020-06-15,19:06:18,19:23:56,NA,incomplete,82,shape,1,right,Green_Triangle_Chess_3.jpg,Green_Star_Stripes_1.jpg,Red_Triangle_Dots_4.jpg,right,644.3250000011176,true,high,false
sW9D3NXE,3wa2xvdzfpuo2njsi9v42o7kc6t6eh,3tmfv4nepcr7alm1nqraxs62e8zw84,sW9D3NXE,2020-0188,2020-06-15,19:06:18,19:23:56,NA,incomplete,83,shape,1,right,Green_Star_Dots_1.jpg,Green_Plus_Grid_4.jpg,Blue_Star_Chess_2.jpg,right,877.7099999133497,true,high,false
sW9D3NXE,3wa2xvdzfpuo2njsi9v42o7kc6t6eh,3tmfv4nepcr7alm1nqraxs62e8zw84,sW9D3NXE,2020-0188,2020-06-15,19:06:18,19:23:56,NA,incomplete,84,shape,0,right,Purple_Plus_Dots_3.jpg,Purple_Triangle_Chess_1.jpg,Red_Plus_Stripes_2.jpg,right,732.2100000455976,true,high,false
sW9D3NXE,3wa2xvdzfpuo2njsi9v42o7kc6t6eh,3tmfv4nepcr7alm1nqraxs62e8zw84,sW9D3NXE,2020-0188,2020-06-15,19:06:18,19:23:56,NA,incomplete,85,shape,1,right,Green_Plus_Chess_3.jpg,Green_Star_Stripes_4.jpg,Blue_Plus_Dots_2.jpg,right,879.0900001768023,true,high,false
sW9D3NXE,3wa2xvdzfpuo2njsi9v42o7kc6t6eh,3tmfv4nepcr7alm1nqraxs62e8zw84,sW9D3NXE,2020-0188,2020-06-15,19:06:18,19:23:56,NA,incomplete,86,shape,1,right,Blue_Circle_Stripes_3.jpg,Blue_Plus_Chess_4.jpg,Purple_Circle_Grid_2.jpg,right,1062.205000082031,true,high,false
sW9D3NXE,3wa2xvdzfpuo2njsi9v42o7kc6t6eh,3tmfv4nepcr7alm1nqraxs62e8zw84,sW9D3NXE,2020-0188,2020-06-15,19:06:18,19:23:56,NA,incomplete,87,shape,1,right,Purple_Triangle_Dots_2.jpg,Purple_Star_Chess_3.jpg,Green_Triangle_Stripes_4.jpg,right,988.7200000230223,true,high,false
sW9D3NXE,3wa2xvdzfpuo2njsi9v42o7kc6t6eh,3tmfv4nepcr7alm1nqraxs62e8zw84,sW9D3NXE,2020-0188,2020-06-15,19:06:18,19:23:56,NA,incomplete,88,shape,1,left,Red_Circle_Stripes_1.jpg,Purple_Circle_Dots_2.jpg,Red_Plus_Grid_3.jpg,left,827.4600000586361,true,high,false
sW9D3NXE,3wa2xvdzfpuo2njsi9v42o7kc6t6eh,3tmfv4nepcr7alm1nqraxs62e8zw84,sW9D3NXE,2020-0188,2020-06-15,19:06:18,19:23:56,NA,incomplete,89,shape,1,left,Blue_Triangle_Chess_4.jpg,Red_Triangle_Dots_3.jpg,Blue_Plus_Stripes_1.jpg,left,1259.3200001865625,true,high,false
sW9D3NXE,3wa2xvdzfpuo2njsi9v42o7kc6t6eh,3tmfv4nepcr7alm1nqraxs62e8zw84,sW9D3NXE,2020-0188,2020-06-15,19:06:18,19:23:56,NA,incomplete,90,color,1,right,Blue_Star_Chess_1.jpg,Green_Star_Dots_4.jpg,Blue_Plus_Stripes_2.jpg,left,1616.514999885112,false,high,false
sW9D3NXE,3wa2xvdzfpuo2njsi9v42o7kc6t6eh,3tmfv4nepcr7alm1nqraxs62e8zw84,sW9D3NXE,2020-0188,2020-06-15,19:06:18,19:23:56,NA,incomplete,91,color,1,right,Purple_Star_Dots_4.jpg,Blue_Star_Grid_2.jpg,Purple_Plus_Stripes_3.jpg,left,1242.7600000519305,false,high,false
sW9D3NXE,3wa2xvdzfpuo2njsi9v42o7kc6t6eh,3tmfv4nepcr7alm1nqraxs62e8zw84,sW9D3NXE,2020-0188,2020-06-15,19:06:18,19:23:56,NA,incomplete,92,color,0,left,Purple_Plus_Grid_1.jpg,Purple_Star_Chess_3.jpg,Blue_Plus_Dots_4.jpg,right,1272.3350001033396,false,high,false
sW9D3NXE,3wa2xvdzfpuo2njsi9v42o7kc6t6eh,3tmfv4nepcr7alm1nqraxs62e8zw84,sW9D3NXE,2020-0188,2020-06-15,19:06:18,19:23:56,NA,incomplete,93,color,1,right,Blue_Triangle_Dots_4.jpg,Purple_Triangle_Stripes_3.jpg,Blue_Circle_Chess_1.jpg,left,889.7249998990446,false,high,false
sW9D3NXE,3wa2xvdzfpuo2njsi9v42o7kc6t6eh,3tmfv4nepcr7alm1nqraxs62e8zw84,sW9D3NXE,2020-0188,2020-06-15,19:06:18,19:23:56,NA,incomplete,94,color,1,right,Purple_Triangle_Dots_3.jpg,Blue_Triangle_Chess_4.jpg,Purple_Star_Stripes_1.jpg,right,1014.0150000806898,true,high,false
sW9D3NXE,3wa2xvdzfpuo2njsi9v42o7kc6t6eh,3tmfv4nepcr7alm1nqraxs62e8zw84,sW9D3NXE,2020-0188,2020-06-15,19:06:18,19:23:56,NA,incomplete,95,color,0,right,Blue_Plus_Chess_3.jpg,Purple_Plus_Dots_2.jpg,Blue_Star_Grid_4.jpg,right,1226.0549999773502,true,high,false
sW9D3NXE,3wa2xvdzfpuo2njsi9v42o7kc6t6eh,3tmfv4nepcr7alm1nqraxs62e8zw84,sW9D3NXE,2020-0188,2020-06-15,19:06:18,19:23:56,NA,incomplete,96,color,1,right,Purple_Plus_Stripes_1.jpg,Blue_Plus_Chess_4.jpg,Purple_Star_Grid_3.jpg,right,1448.1499998364598,true,high,false
sW9D3NXE,3wa2xvdzfpuo2njsi9v42o7kc6t6eh,3tmfv4nepcr7alm1nqraxs62e8zw84,sW9D3NXE,2020-0188,2020-06-15,19:06:18,19:23:56,NA,incomplete,97,color,1,right,Purple_Star_Chess_2.jpg,Blue_Star_Grid_3.jpg,Purple_Circle_Stripes_4.jpg,right,1149.2099999450147,true,high,false
sW9D3NXE,3wa2xvdzfpuo2njsi9v42o7kc6t6eh,3tmfv4nepcr7alm1nqraxs62e8zw84,sW9D3NXE,2020-0188,2020-06-15,19:06:18,19:23:56,NA,incomplete,98,color,1,left,Purple_Plus_Chess_3.jpg,Purple_Star_Stripes_4.jpg,Blue_Plus_Grid_2.jpg,left,1264.3649999517947,true,high,false
sW9D3NXE,3wa2xvdzfpuo2njsi9v42o7kc6t6eh,3tmfv4nepcr7alm1nqraxs62e8zw84,sW9D3NXE,2020-0188,2020-06-15,19:06:18,19:23:56,NA,incomplete,99,color,0,left,Green_Star_Dots_2.jpg,Green_Plus_Stripes_4.jpg,Blue_Star_Grid_1.jpg,left,1258.6050000973046,true,high,false
sW9D3NXE,3wa2xvdzfpuo2njsi9v42o7kc6t6eh,3tmfv4nepcr7alm1nqraxs62e8zw84,sW9D3NXE,2020-0188,2020-06-15,19:06:18,19:23:56,NA,incomplete,100,shape,1,left,Blue_Star_Stripes_2.jpg,Purple_Star_Chess_1.jpg,Blue_Triangle_Grid_4.jpg,right,569.6699998807162,false,high,false
sW9D3NXE,3wa2xvdzfpuo2njsi9v42o7kc6t6eh,3tmfv4nepcr7alm1nqraxs62e8zw84,sW9D3NXE,2020-0188,2020-06-15,19:06:18,19:23:56,NA,incomplete,101,shape,1,right,Red_Circle_Stripes_2.jpg,Red_Triangle_Grid_3.jpg,Green_Circle_Chess_1.jpg,right,748.189999954775,true,high,false
sW9D3NXE,3wa2xvdzfpuo2njsi9v42o7kc6t6eh,3tmfv4nepcr7alm1nqraxs62e8zw84,sW9D3NXE,2020-0188,2020-06-15,19:06:18,19:23:56,NA,incomplete,102,shape,1,left,Red_Circle_Stripes_2.jpg,Purple_Circle_Grid_4.jpg,Red_Triangle_Dots_1.jpg,left,1526.754999998957,true,high,false
sW9D3NXE,3wa2xvdzfpuo2njsi9v42o7kc6t6eh,3tmfv4nepcr7alm1nqraxs62e8zw84,sW9D3NXE,2020-0188,2020-06-15,19:06:18,19:23:56,NA,incomplete,103,shape,1,right,Purple_Circle_Dots_3.jpg,Purple_Triangle_Grid_1.jpg,Red_Circle_Stripes_4.jpg,right,1009.1099999845028,true,high,false
sW9D3NXE,3wa2xvdzfpuo2njsi9v42o7kc6t6eh,3tmfv4nepcr7alm1nqraxs62e8zw84,sW9D3NXE,2020-0188,2020-06-15,19:06:18,19:23:56,NA,incomplete,104,shape,0,right,Red_Circle_Chess_3.jpg,Red_Star_Stripes_1.jpg,Blue_Circle_Dots_2.jpg,right,899.8000000137836,true,high,false
sW9D3NXE,3wa2xvdzfpuo2njsi9v42o7kc6t6eh,3tmfv4nepcr7alm1nqraxs62e8zw84,sW9D3NXE,2020-0188,2020-06-15,19:06:18,19:23:56,NA,incomplete,105,shape,1,right,Green_Circle_Stripes_3.jpg,Green_Plus_Chess_4.jpg,Purple_Circle_Dots_2.jpg,right,879.674999974668,true,high,false
sW9D3NXE,3wa2xvdzfpuo2njsi9v42o7kc6t6eh,3tmfv4nepcr7alm1nqraxs62e8zw84,sW9D3NXE,2020-0188,2020-06-15,19:06:18,19:23:56,NA,incomplete,106,shape,1,left,Red_Plus_Stripes_1.jpg,Green_Plus_Dots_4.jpg,Red_Circle_Chess_2.jpg,left,689.930000109598,true,high,false
sW9D3NXE,3wa2xvdzfpuo2njsi9v42o7kc6t6eh,3tmfv4nepcr7alm1nqraxs62e8zw84,sW9D3NXE,2020-0188,2020-06-15,19:06:18,19:23:56,NA,incomplete,107,shape,0,right,Red_Star_Stripes_2.jpg,Red_Triangle_Grid_1.jpg,Blue_Star_Dots_3.jpg,right,891.2100000306964,true,high,false
sW9D3NXE,3wa2xvdzfpuo2njsi9v42o7kc6t6eh,3tmfv4nepcr7alm1nqraxs62e8zw84,sW9D3NXE,2020-0188,2020-06-15,19:06:18,19:23:56,NA,incomplete,108,shape,1,left,Red_Circle_Dots_4.jpg,Purple_Circle_Grid_1.jpg,Red_Plus_Chess_3.jpg,left,1148.4800002072006,true,high,false
sW9D3NXE,3wa2xvdzfpuo2njsi9v42o7kc6t6eh,3tmfv4nepcr7alm1nqraxs62e8zw84,sW9D3NXE,2020-0188,2020-06-15,19:06:18,19:23:56,NA,incomplete,109,shape,1,left,Purple_Star_Chess_4.jpg,Green_Star_Grid_3.jpg,Purple_Circle_Dots_1.jpg,left,943.4899999760091,true,high,false
sW9D3NXE,3wa2xvdzfpuo2njsi9v42o7kc6t6eh,3tmfv4nepcr7alm1nqraxs62e8zw84,sW9D3NXE,2020-0188,2020-06-15,19:06:18,19:23:56,NA,incomplete,110,color,1,right,Blue_Star_Dots_2.jpg,Red_Star_Chess_3.jpg,Blue_Plus_Grid_4.jpg,left,845.4199999105185,false,high,false
sW9D3NXE,3wa2xvdzfpuo2njsi9v42o7kc6t6eh,3tmfv4nepcr7alm1nqraxs62e8zw84,sW9D3NXE,2020-0188,2020-06-15,19:06:18,19:23:56,NA,incomplete,111,color,1,right,Blue_Triangle_Dots_4.jpg,Purple_Triangle_Grid_2.jpg,Blue_Circle_Stripes_1.jpg,left,1121.504999930039,false,high,false
sW9D3NXE,3wa2xvdzfpuo2njsi9v42o7kc6t6eh,3tmfv4nepcr7alm1nqraxs62e8zw84,sW9D3NXE,2020-0188,2020-06-15,19:06:18,19:23:56,NA,incomplete,112,color,1,left,Red_Plus_Dots_4.jpg,Red_Triangle_Chess_1.jpg,Purple_Plus_Grid_3.jpg,left,1660.4200000874698,true,high,false
sW9D3NXE,3wa2xvdzfpuo2njsi9v42o7kc6t6eh,3tmfv4nepcr7alm1nqraxs62e8zw84,sW9D3NXE,2020-0188,2020-06-15,19:06:18,19:23:56,NA,incomplete,113,color,1,right,Red_Plus_Grid_1.jpg,Blue_Plus_Dots_4.jpg,Red_Circle_Stripes_3.jpg,right,1203.3400000073016,true,high,false
sW9D3NXE,3wa2xvdzfpuo2njsi9v42o7kc6t6eh,3tmfv4nepcr7alm1nqraxs62e8zw84,sW9D3NXE,2020-0188,2020-06-15,19:06:18,19:23:56,NA,incomplete,114,color,1,left,Purple_Triangle_Chess_4.jpg,Purple_Star_Dots_1.jpg,Green_Triangle_Grid_2.jpg,left,989.0400001313537,true,high,false
sW9D3NXE,3wa2xvdzfpuo2njsi9v42o7kc6t6eh,3tmfv4nepcr7alm1nqraxs62e8zw84,sW9D3NXE,2020-0188,2020-06-15,19:06:18,19:23:56,NA,incomplete,115,color,1,left,Red_Triangle_Dots_4.jpg,Red_Circle_Stripes_2.jpg,Green_Triangle_Chess_3.jpg,right,884.1049999464303,false,high,false
sW9D3NXE,3wa2xvdzfpuo2njsi9v42o7kc6t6eh,3tmfv4nepcr7alm1nqraxs62e8zw84,sW9D3NXE,2020-0188,2020-06-15,19:06:18,19:23:56,NA,incomplete,116,color,1,right,Blue_Triangle_Dots_4.jpg,Green_Triangle_Grid_2.jpg,Blue_Star_Chess_1.jpg,right,805.9150001499802,true,high,false
sW9D3NXE,3wa2xvdzfpuo2njsi9v42o7kc6t6eh,3tmfv4nepcr7alm1nqraxs62e8zw84,sW9D3NXE,2020-0188,2020-06-15,19:06:18,19:23:56,NA,incomplete,117,color,1,right,Blue_Star_Grid_4.jpg,Purple_Star_Chess_1.jpg,Blue_Circle_Dots_2.jpg,right,655.7499999180436,true,high,false
sW9D3NXE,3wa2xvdzfpuo2njsi9v42o7kc6t6eh,3tmfv4nepcr7alm1nqraxs62e8zw84,sW9D3NXE,2020-0188,2020-06-15,19:06:18,19:23:56,NA,incomplete,118,color,1,right,Blue_Plus_Dots_3.jpg,Purple_Plus_Grid_4.jpg,Blue_Circle_Stripes_2.jpg,right,1495.7399999257177,true,high,false
sW9D3NXE,3wa2xvdzfpuo2njsi9v42o7kc6t6eh,3tmfv4nepcr7alm1nqraxs62e8zw84,sW9D3NXE,2020-0188,2020-06-15,19:06:18,19:23:56,NA,incomplete,119,color,1,right,Blue_Triangle_Grid_1.jpg,Purple_Triangle_Dots_4.jpg,Blue_Star_Stripes_3.jpg,right,774.320000084117,true,high,false
sW9D3NXE,3wa2xvdzfpuo2njsi9v42o7kc6t6eh,3tmfv4nepcr7alm1nqraxs62e8zw84,sW9D3NXE,2020-0188,2020-06-15,19:06:18,19:23:56,NA,incomplete,120,filling,1,right,Purple_Star_Dots_4.jpg,Blue_Circle_Stripes_4.jpg,Green_Triangle_Dots_2.jpg,NA,NA,NA,high,false
sW9D3NXE,3wa2xvdzfpuo2njsi9v42o7kc6t6eh,3tmfv4nepcr7alm1nqraxs62e8zw84,sW9D3NXE,2020-0188,2020-06-15,19:06:18,19:23:56,NA,incomplete,121,filling,1,left,Blue_Triangle_Dots_1.jpg,Red_Plus_Dots_3.jpg,Purple_Circle_Grid_1.jpg,right,677.9499999247491,false,high,false
sW9D3NXE,3wa2xvdzfpuo2njsi9v42o7kc6t6eh,3tmfv4nepcr7alm1nqraxs62e8zw84,sW9D3NXE,2020-0188,2020-06-15,19:06:18,19:23:56,NA,incomplete,122,filling,1,left,Purple_Plus_Chess_4.jpg,Green_Triangle_Chess_1.jpg,Blue_Circle_Grid_4.jpg,right,1004.4199998956174,false,high,false
sW9D3NXE,3wa2xvdzfpuo2njsi9v42o7kc6t6eh,3tmfv4nepcr7alm1nqraxs62e8zw84,sW9D3NXE,2020-0188,2020-06-15,19:06:18,19:23:56,NA,incomplete,123,filling,1,right,Blue_Star_Stripes_4.jpg,Red_Plus_Chess_4.jpg,Green_Circle_Stripes_1.jpg,right,1933.5450001526624,true,high,false
sW9D3NXE,3wa2xvdzfpuo2njsi9v42o7kc6t6eh,3tmfv4nepcr7alm1nqraxs62e8zw84,sW9D3NXE,2020-0188,2020-06-15,19:06:18,19:23:56,NA,incomplete,124,filling,0,left,Green_Circle_Dots_1.jpg,Red_Plus_Dots_3.jpg,Blue_Triangle_Stripes_1.jpg,left,1346.4150000363588,true,high,false
sW9D3NXE,3wa2xvdzfpuo2njsi9v42o7kc6t6eh,3tmfv4nepcr7alm1nqraxs62e8zw84,sW9D3NXE,2020-0188,2020-06-15,19:06:18,19:23:56,NA,incomplete,125,filling,1,right,Green_Triangle_Chess_3.jpg,Blue_Star_Dots_3.jpg,Purple_Circle_Chess_1.jpg,right,1198.8750000018626,true,high,false
sW9D3NXE,3wa2xvdzfpuo2njsi9v42o7kc6t6eh,3tmfv4nepcr7alm1nqraxs62e8zw84,sW9D3NXE,2020-0188,2020-06-15,19:06:18,19:23:56,NA,incomplete,126,filling,1,left,Blue_Triangle_Grid_3.jpg,Green_Plus_Grid_2.jpg,Red_Star_Dots_3.jpg,right,1975.8199998177588,false,high,false
sW9D3NXE,3wa2xvdzfpuo2njsi9v42o7kc6t6eh,3tmfv4nepcr7alm1nqraxs62e8zw84,sW9D3NXE,2020-0188,2020-06-15,19:06:18,19:23:56,NA,incomplete,127,filling,1,left,Blue_Circle_Dots_2.jpg,Red_Plus_Dots_3.jpg,Purple_Star_Grid_2.jpg,left,1959.0900000184774,true,high,false
sW9D3NXE,3wa2xvdzfpuo2njsi9v42o7kc6t6eh,3tmfv4nepcr7alm1nqraxs62e8zw84,sW9D3NXE,2020-0188,2020-06-15,19:06:18,19:23:56,NA,incomplete,128,filling,1,left,Purple_Circle_Dots_4.jpg,Blue_Star_Dots_1.jpg,Green_Triangle_Grid_4.jpg,left,1300.359999993816,true,high,false
sW9D3NXE,3wa2xvdzfpuo2njsi9v42o7kc6t6eh,3tmfv4nepcr7alm1nqraxs62e8zw84,sW9D3NXE,2020-0188,2020-06-15,19:06:18,19:23:56,NA,incomplete,129,filling,1,left,Green_Triangle_Grid_1.jpg,Purple_Circle_Grid_2.jpg,Blue_Star_Dots_1.jpg,right,1275.4100000020117,false,high,false
sW9D3NXE,3wa2xvdzfpuo2njsi9v42o7kc6t6eh,3tmfv4nepcr7alm1nqraxs62e8zw84,sW9D3NXE,2020-0188,2020-06-15,19:06:18,19:23:56,NA,incomplete,130,filling,1,right,Blue_Triangle_Dots_4.jpg,Red_Plus_Grid_4.jpg,Purple_Circle_Dots_2.jpg,none,0,false,high,false
sW9D3NXE,3wa2xvdzfpuo2njsi9v42o7kc6t6eh,3tmfv4nepcr7alm1nqraxs62e8zw84,sW9D3NXE,2020-0188,2020-06-15,19:06:18,19:23:56,NA,incomplete,131,filling,1,left,Red_Plus_Grid_3.jpg,Green_Star_Grid_1.jpg,Blue_Triangle_Chess_3.jpg,right,1060.6199998874217,false,high,false
sW9D3NXE,3wa2xvdzfpuo2njsi9v42o7kc6t6eh,3tmfv4nepcr7alm1nqraxs62e8zw84,sW9D3NXE,2020-0188,2020-06-15,19:06:18,19:23:56,NA,incomplete,132,filling,1,left,Purple_Star_Grid_1.jpg,Green_Triangle_Grid_4.jpg,Red_Plus_Chess_1.jpg,right,751.3200000394136,false,high,false
sW9D3NXE,3wa2xvdzfpuo2njsi9v42o7kc6t6eh,3tmfv4nepcr7alm1nqraxs62e8zw84,sW9D3NXE,2020-0188,2020-06-15,19:06:18,19:23:56,NA,incomplete,133,filling,0,right,Red_Circle_Grid_2.jpg,Green_Plus_Dots_2.jpg,Purple_Triangle_Grid_3.jpg,right,1427.7350001502782,true,high,false
sW9D3NXE,3wa2xvdzfpuo2njsi9v42o7kc6t6eh,3tmfv4nepcr7alm1nqraxs62e8zw84,sW9D3NXE,2020-0188,2020-06-15,19:06:18,19:23:56,NA,incomplete,134,filling,1,left,Blue_Star_Chess_2.jpg,Purple_Triangle_Chess_4.jpg,Green_Plus_Stripes_2.jpg,left,1653.690000064671,true,high,false
sW9D3NXE,3wa2xvdzfpuo2njsi9v42o7kc6t6eh,3tmfv4nepcr7alm1nqraxs62e8zw84,sW9D3NXE,2020-0188,2020-06-15,19:06:18,19:23:56,NA,incomplete,135,filling,1,left,Purple_Plus_Chess_4.jpg,Blue_Triangle_Chess_1.jpg,Green_Circle_Grid_4.jpg,right,1436.835000058636,false,high,false
sW9D3NXE,3wa2xvdzfpuo2njsi9v42o7kc6t6eh,3tmfv4nepcr7alm1nqraxs62e8zw84,sW9D3NXE,2020-0188,2020-06-15,19:06:18,19:23:56,NA,incomplete,136,filling,1,left,Purple_Triangle_Stripes_2.jpg,Green_Plus_Stripes_3.jpg,Blue_Circle_Dots_2.jpg,left,1374.7300000395626,true,high,false
sW9D3NXE,3wa2xvdzfpuo2njsi9v42o7kc6t6eh,3tmfv4nepcr7alm1nqraxs62e8zw84,sW9D3NXE,2020-0188,2020-06-15,19:06:18,19:23:56,NA,incomplete,137,filling,1,right,Green_Triangle_Dots_2.jpg,Red_Circle_Stripes_2.jpg,Purple_Plus_Dots_1.jpg,right,1086.6300000343472,true,high,false
sW9D3NXE,3wa2xvdzfpuo2njsi9v42o7kc6t6eh,3tmfv4nepcr7alm1nqraxs62e8zw84,sW9D3NXE,2020-0188,2020-06-15,19:06:18,19:23:56,NA,incomplete,138,filling,1,left,Purple_Plus_Stripes_4.jpg,Blue_Star_Stripes_3.jpg,Green_Triangle_Dots_4.jpg,left,895.4349998384714,true,high,false
sW9D3NXE,3wa2xvdzfpuo2njsi9v42o7kc6t6eh,3tmfv4nepcr7alm1nqraxs62e8zw84,sW9D3NXE,2020-0188,2020-06-15,19:06:18,19:23:56,NA,incomplete,139,filling,1,left,Red_Triangle_Chess_3.jpg,Blue_Star_Chess_4.jpg,Green_Plus_Stripes_3.jpg,left,1146.9499999657273,true,high,false
sW9D3NXE,3wa2xvdzfpuo2njsi9v42o7kc6t6eh,3tmfv4nepcr7alm1nqraxs62e8zw84,sW9D3NXE,2020-0188,2020-06-15,19:06:18,19:23:56,NA,incomplete,140,number,1,right,Purple_Plus_Stripes_4.jpg,Blue_Triangle_Stripes_2.jpg,Red_Circle_Grid_4.jpg,left,1027.7350000105798,false,high,false
sW9D3NXE,3wa2xvdzfpuo2njsi9v42o7kc6t6eh,3tmfv4nepcr7alm1nqraxs62e8zw84,sW9D3NXE,2020-0188,2020-06-15,19:06:18,19:23:56,NA,incomplete,141,number,1,right,Green_Plus_Dots_4.jpg,Red_Triangle_Dots_3.jpg,Blue_Circle_Grid_4.jpg,left,1162.3499998822808,false,high,false
sW9D3NXE,3wa2xvdzfpuo2njsi9v42o7kc6t6eh,3tmfv4nepcr7alm1nqraxs62e8zw84,sW9D3NXE,2020-0188,2020-06-15,19:06:18,19:23:56,NA,incomplete,142,number,1,right,Purple_Star_Dots_2.jpg,Red_Triangle_Dots_1.jpg,Blue_Circle_Stripes_2.jpg,right,724.5899999979883,true,high,false
sW9D3NXE,3wa2xvdzfpuo2njsi9v42o7kc6t6eh,3tmfv4nepcr7alm1nqraxs62e8zw84,sW9D3NXE,2020-0188,2020-06-15,19:06:18,19:23:56,NA,incomplete,143,number,0,right,Purple_Star_Stripes_2.jpg,Red_Plus_Stripes_3.jpg,Blue_Triangle_Dots_2.jpg,right,927.4649999570101,true,high,false
sW9D3NXE,3wa2xvdzfpuo2njsi9v42o7kc6t6eh,3tmfv4nepcr7alm1nqraxs62e8zw84,sW9D3NXE,2020-0188,2020-06-15,19:06:18,19:23:56,NA,incomplete,144,number,1,left,Purple_Triangle_Grid_3.jpg,Red_Plus_Stripes_3.jpg,Green_Circle_Grid_1.jpg,left,705.7950000744313,true,high,false
sW9D3NXE,3wa2xvdzfpuo2njsi9v42o7kc6t6eh,3tmfv4nepcr7alm1nqraxs62e8zw84,sW9D3NXE,2020-0188,2020-06-15,19:06:18,19:23:56,NA,incomplete,145,number,0,left,Purple_Triangle_Grid_2.jpg,Green_Circle_Dots_2.jpg,Red_Plus_Grid_1.jpg,left,838.7649999931455,true,high,false
sW9D3NXE,3wa2xvdzfpuo2njsi9v42o7kc6t6eh,3tmfv4nepcr7alm1nqraxs62e8zw84,sW9D3NXE,2020-0188,2020-06-15,19:06:18,19:23:56,NA,incomplete,146,number,1,right,Purple_Star_Chess_3.jpg,Green_Plus_Chess_2.jpg,Blue_Triangle_Grid_3.jpg,right,869.4600001908839,true,high,false
sW9D3NXE,3wa2xvdzfpuo2njsi9v42o7kc6t6eh,3tmfv4nepcr7alm1nqraxs62e8zw84,sW9D3NXE,2020-0188,2020-06-15,19:06:18,19:23:56,NA,incomplete,147,number,1,right,Red_Plus_Chess_2.jpg,Purple_Circle_Chess_1.jpg,Blue_Star_Stripes_2.jpg,right,671.3400001171976,true,high,false
sW9D3NXE,3wa2xvdzfpuo2njsi9v42o7kc6t6eh,3tmfv4nepcr7alm1nqraxs62e8zw84,sW9D3NXE,2020-0188,2020-06-15,19:06:18,19:23:56,NA,incomplete,148,number,0,left,Green_Triangle_Grid_1.jpg,Blue_Circle_Stripes_1.jpg,Red_Plus_Grid_4.jpg,left,1127.1200000774115,true,high,false
sW9D3NXE,3wa2xvdzfpuo2njsi9v42o7kc6t6eh,3tmfv4nepcr7alm1nqraxs62e8zw84,sW9D3NXE,2020-0188,2020-06-15,19:06:18,19:23:56,NA,incomplete,149,number,1,right,Green_Star_Stripes_1.jpg,Red_Circle_Stripes_4.jpg,Purple_Triangle_Grid_1.jpg,right,808.96499985829,true,high,false
sW9D3NXE,3wa2xvdzfpuo2njsi9v42o7kc6t6eh,3tmfv4nepcr7alm1nqraxs62e8zw84,sW9D3NXE,2020-0188,2020-06-15,19:06:18,19:23:56,NA,incomplete,150,number,0,right,Blue_Circle_Dots_4.jpg,Purple_Star_Dots_2.jpg,Red_Plus_Grid_4.jpg,right,938.554999884218,true,high,false
sW9D3NXE,3wa2xvdzfpuo2njsi9v42o7kc6t6eh,3tmfv4nepcr7alm1nqraxs62e8zw84,sW9D3NXE,2020-0188,2020-06-15,19:06:18,19:23:56,NA,incomplete,151,number,1,left,Red_Triangle_Dots_2.jpg,Purple_Plus_Chess_2.jpg,Green_Star_Dots_3.jpg,left,815.2949998620898,true,high,false
sW9D3NXE,3wa2xvdzfpuo2njsi9v42o7kc6t6eh,3tmfv4nepcr7alm1nqraxs62e8zw84,sW9D3NXE,2020-0188,2020-06-15,19:06:18,19:23:56,NA,incomplete,152,number,1,left,Blue_Star_Dots_2.jpg,Purple_Plus_Grid_2.jpg,Green_Circle_Dots_4.jpg,left,835.8049998059869,true,high,false
sW9D3NXE,3wa2xvdzfpuo2njsi9v42o7kc6t6eh,3tmfv4nepcr7alm1nqraxs62e8zw84,sW9D3NXE,2020-0188,2020-06-15,19:06:18,19:23:56,NA,incomplete,153,number,1,right,Red_Star_Chess_1.jpg,Purple_Triangle_Chess_3.jpg,Blue_Circle_Grid_1.jpg,right,713.5250000283122,true,high,false
sW9D3NXE,3wa2xvdzfpuo2njsi9v42o7kc6t6eh,3tmfv4nepcr7alm1nqraxs62e8zw84,sW9D3NXE,2020-0188,2020-06-15,19:06:18,19:23:56,NA,incomplete,154,number,1,left,Red_Circle_Dots_2.jpg,Green_Star_Grid_2.jpg,Purple_Plus_Dots_1.jpg,left,800.9850000962615,true,high,false
sW9D3NXE,3wa2xvdzfpuo2njsi9v42o7kc6t6eh,3tmfv4nepcr7alm1nqraxs62e8zw84,sW9D3NXE,2020-0188,2020-06-15,19:06:18,19:23:56,NA,incomplete,155,number,0,right,Blue_Plus_Stripes_4.jpg,Green_Triangle_Stripes_1.jpg,Purple_Circle_Chess_4.jpg,right,731.5400000661612,true,high,false
sW9D3NXE,3wa2xvdzfpuo2njsi9v42o7kc6t6eh,3tmfv4nepcr7alm1nqraxs62e8zw84,sW9D3NXE,2020-0188,2020-06-15,19:06:18,19:23:56,NA,incomplete,156,number,1,left,Green_Plus_Dots_3.jpg,Purple_Circle_Chess_3.jpg,Red_Triangle_Dots_4.jpg,left,845.5350000876933,true,high,false
sW9D3NXE,3wa2xvdzfpuo2njsi9v42o7kc6t6eh,3tmfv4nepcr7alm1nqraxs62e8zw84,sW9D3NXE,2020-0188,2020-06-15,19:06:18,19:23:56,NA,incomplete,157,number,1,left,Red_Circle_Stripes_3.jpg,Purple_Triangle_Dots_3.jpg,Green_Plus_Stripes_4.jpg,left,879.190000006929,true,high,false
sW9D3NXE,3wa2xvdzfpuo2njsi9v42o7kc6t6eh,3tmfv4nepcr7alm1nqraxs62e8zw84,sW9D3NXE,2020-0188,2020-06-15,19:06:18,19:23:56,NA,incomplete,158,number,1,left,Purple_Triangle_Dots_4.jpg,Red_Star_Stripes_4.jpg,Blue_Circle_Dots_2.jpg,left,806.1100000049919,true,high,false
sW9D3NXE,3wa2xvdzfpuo2njsi9v42o7kc6t6eh,3tmfv4nepcr7alm1nqraxs62e8zw84,sW9D3NXE,2020-0188,2020-06-15,19:06:18,19:23:56,NA,incomplete,159,number,0,right,Blue_Star_Chess_1.jpg,Red_Plus_Chess_2.jpg,Purple_Circle_Stripes_1.jpg,right,619.1450001206249,true,high,false
sW9D3NXE,3wa2xvdzfpuo2njsi9v42o7kc6t6eh,3tmfv4nepcr7alm1nqraxs62e8zw84,sW9D3NXE,2020-0188,2020-06-15,19:06:18,19:23:56,NA,incomplete,160,filling,1,left,Red_Star_Stripes_1.jpg,Purple_Plus_Stripes_4.jpg,Blue_Circle_Chess_1.jpg,right,687.279999954626,false,high,false
sW9D3NXE,3wa2xvdzfpuo2njsi9v42o7kc6t6eh,3tmfv4nepcr7alm1nqraxs62e8zw84,sW9D3NXE,2020-0188,2020-06-15,19:06:18,19:23:56,NA,incomplete,161,filling,1,left,Purple_Plus_Dots_4.jpg,Green_Circle_Dots_1.jpg,Red_Triangle_Grid_4.jpg,left,1001.7699999734759,true,high,false
sW9D3NXE,3wa2xvdzfpuo2njsi9v42o7kc6t6eh,3tmfv4nepcr7alm1nqraxs62e8zw84,sW9D3NXE,2020-0188,2020-06-15,19:06:18,19:23:56,NA,incomplete,162,filling,1,right,Purple_Star_Dots_2.jpg,Blue_Circle_Stripes_2.jpg,Red_Triangle_Dots_4.jpg,right,802.045000018552,true,high,false
sW9D3NXE,3wa2xvdzfpuo2njsi9v42o7kc6t6eh,3tmfv4nepcr7alm1nqraxs62e8zw84,sW9D3NXE,2020-0188,2020-06-15,19:06:18,19:23:56,NA,incomplete,163,filling,0,right,Green_Circle_Grid_4.jpg,Red_Triangle_Chess_4.jpg,Purple_Star_Grid_3.jpg,right,1476.2800000607967,true,high,false
sW9D3NXE,3wa2xvdzfpuo2njsi9v42o7kc6t6eh,3tmfv4nepcr7alm1nqraxs62e8zw84,sW9D3NXE,2020-0188,2020-06-15,19:06:18,19:23:56,NA,incomplete,164,filling,1,left,Green_Plus_Stripes_3.jpg,Purple_Triangle_Stripes_1.jpg,Blue_Circle_Grid_3.jpg,left,790.4100001323968,true,high,false
sW9D3NXE,3wa2xvdzfpuo2njsi9v42o7kc6t6eh,3tmfv4nepcr7alm1nqraxs62e8zw84,sW9D3NXE,2020-0188,2020-06-15,19:06:18,19:23:56,NA,incomplete,165,filling,1,left,Purple_Plus_Chess_2.jpg,Green_Triangle_Chess_3.jpg,Blue_Star_Grid_2.jpg,left,863.6950000654906,true,high,false
sW9D3NXE,3wa2xvdzfpuo2njsi9v42o7kc6t6eh,3tmfv4nepcr7alm1nqraxs62e8zw84,sW9D3NXE,2020-0188,2020-06-15,19:06:18,19:23:56,NA,incomplete,166,filling,1,left,Purple_Plus_Chess_4.jpg,Red_Circle_Chess_1.jpg,Blue_Star_Dots_4.jpg,left,828.840000089258,true,high,false
sW9D3NXE,3wa2xvdzfpuo2njsi9v42o7kc6t6eh,3tmfv4nepcr7alm1nqraxs62e8zw84,sW9D3NXE,2020-0188,2020-06-15,19:06:18,19:23:56,NA,incomplete,167,filling,0,right,Red_Plus_Dots_3.jpg,Green_Star_Stripes_3.jpg,Blue_Triangle_Dots_4.jpg,right,1035.7649999205023,true,high,false
sW9D3NXE,3wa2xvdzfpuo2njsi9v42o7kc6t6eh,3tmfv4nepcr7alm1nqraxs62e8zw84,sW9D3NXE,2020-0188,2020-06-15,19:06:18,19:23:56,NA,incomplete,168,filling,1,right,Blue_Triangle_Dots_3.jpg,Red_Plus_Grid_3.jpg,Green_Circle_Dots_4.jpg,right,769.2849999293685,true,high,false
sW9D3NXE,3wa2xvdzfpuo2njsi9v42o7kc6t6eh,3tmfv4nepcr7alm1nqraxs62e8zw84,sW9D3NXE,2020-0188,2020-06-15,19:06:18,19:23:56,NA,incomplete,169,filling,0,right,Blue_Triangle_Stripes_2.jpg,Green_Plus_Dots_2.jpg,Purple_Circle_Stripes_4.jpg,right,956.2300001271069,true,high,false
sW9D3NXE,3wa2xvdzfpuo2njsi9v42o7kc6t6eh,3tmfv4nepcr7alm1nqraxs62e8zw84,sW9D3NXE,2020-0188,2020-06-15,19:06:18,19:23:56,NA,incomplete,170,filling,1,left,Green_Star_Dots_4.jpg,Red_Triangle_Dots_3.jpg,Blue_Circle_Stripes_4.jpg,left,899.269999936223,true,high,false
sW9D3NXE,3wa2xvdzfpuo2njsi9v42o7kc6t6eh,3tmfv4nepcr7alm1nqraxs62e8zw84,sW9D3NXE,2020-0188,2020-06-15,19:06:18,19:23:56,NA,incomplete,171,filling,1,left,Blue_Triangle_Stripes_1.jpg,Red_Circle_Stripes_2.jpg,Green_Star_Chess_1.jpg,left,1179.81499992311,true,high,false
sW9D3NXE,3wa2xvdzfpuo2njsi9v42o7kc6t6eh,3tmfv4nepcr7alm1nqraxs62e8zw84,sW9D3NXE,2020-0188,2020-06-15,19:06:18,19:23:56,NA,incomplete,172,filling,1,right,Purple_Triangle_Grid_4.jpg,Blue_Star_Chess_4.jpg,Red_Circle_Grid_2.jpg,right,1249.2299999576062,true,high,false
sW9D3NXE,3wa2xvdzfpuo2njsi9v42o7kc6t6eh,3tmfv4nepcr7alm1nqraxs62e8zw84,sW9D3NXE,2020-0188,2020-06-15,19:06:18,19:23:56,NA,incomplete,173,filling,0,left,Blue_Plus_Stripes_4.jpg,Red_Triangle_Stripes_1.jpg,Green_Star_Chess_4.jpg,left,1121.7999998480082,true,high,false
sW9D3NXE,3wa2xvdzfpuo2njsi9v42o7kc6t6eh,3tmfv4nepcr7alm1nqraxs62e8zw84,sW9D3NXE,2020-0188,2020-06-15,19:06:18,19:23:56,NA,incomplete,174,filling,1,right,Red_Plus_Stripes_1.jpg,Blue_Circle_Dots_1.jpg,Purple_Triangle_Stripes_3.jpg,right,1247.4599999841303,true,high,false
sW9D3NXE,3wa2xvdzfpuo2njsi9v42o7kc6t6eh,3tmfv4nepcr7alm1nqraxs62e8zw84,sW9D3NXE,2020-0188,2020-06-15,19:06:18,19:23:56,NA,incomplete,175,filling,0,left,Blue_Circle_Dots_2.jpg,Red_Star_Dots_3.jpg,Purple_Plus_Grid_2.jpg,left,1084.3749998603016,true,high,false
sW9D3NXE,3wa2xvdzfpuo2njsi9v42o7kc6t6eh,3tmfv4nepcr7alm1nqraxs62e8zw84,sW9D3NXE,2020-0188,2020-06-15,19:06:18,19:23:56,NA,incomplete,176,filling,1,right,Red_Circle_Grid_2.jpg,Blue_Star_Chess_2.jpg,Purple_Plus_Grid_1.jpg,right,1155.8699999004602,true,high,false
sW9D3NXE,3wa2xvdzfpuo2njsi9v42o7kc6t6eh,3tmfv4nepcr7alm1nqraxs62e8zw84,sW9D3NXE,2020-0188,2020-06-15,19:06:18,19:23:56,NA,incomplete,177,filling,1,left,Purple_Circle_Chess_1.jpg,Blue_Triangle_Chess_4.jpg,Red_Plus_Grid_1.jpg,left,1270.2450000215322,true,high,false
sW9D3NXE,3wa2xvdzfpuo2njsi9v42o7kc6t6eh,3tmfv4nepcr7alm1nqraxs62e8zw84,sW9D3NXE,2020-0188,2020-06-15,19:06:18,19:23:56,NA,incomplete,178,filling,1,left,Red_Triangle_Dots_2.jpg,Purple_Plus_Dots_1.jpg,Green_Circle_Stripes_2.jpg,left,816.64999993518,true,high,false
sW9D3NXE,3wa2xvdzfpuo2njsi9v42o7kc6t6eh,3tmfv4nepcr7alm1nqraxs62e8zw84,sW9D3NXE,2020-0188,2020-06-15,19:06:18,19:23:56,NA,incomplete,179,filling,1,right,Red_Star_Grid_4.jpg,Purple_Triangle_Stripes_4.jpg,Blue_Plus_Grid_1.jpg,right,873.3449999708682,true,high,false
sW9D3NXE,3wa2xvdzfpuo2njsi9v42o7kc6t6eh,3tmfv4nepcr7alm1nqraxs62e8zw84,sW9D3NXE,2020-0188,2020-06-15,19:06:18,19:23:56,NA,incomplete,180,number,1,right,Red_Triangle_Grid_1.jpg,Blue_Star_Grid_2.jpg,Purple_Circle_Dots_1.jpg,left,1142.5950000993907,false,high,false
sW9D3NXE,3wa2xvdzfpuo2njsi9v42o7kc6t6eh,3tmfv4nepcr7alm1nqraxs62e8zw84,sW9D3NXE,2020-0188,2020-06-15,19:06:18,19:23:56,NA,incomplete,181,number,1,left,Purple_Triangle_Stripes_2.jpg,Red_Circle_Dots_2.jpg,Blue_Plus_Stripes_1.jpg,right,897.774999961257,false,high,false
sW9D3NXE,3wa2xvdzfpuo2njsi9v42o7kc6t6eh,3tmfv4nepcr7alm1nqraxs62e8zw84,sW9D3NXE,2020-0188,2020-06-15,19:06:18,19:23:56,NA,incomplete,182,number,1,right,Purple_Triangle_Dots_2.jpg,Red_Circle_Dots_4.jpg,Green_Plus_Grid_2.jpg,right,775.8549998980016,true,high,false
sW9D3NXE,3wa2xvdzfpuo2njsi9v42o7kc6t6eh,3tmfv4nepcr7alm1nqraxs62e8zw84,sW9D3NXE,2020-0188,2020-06-15,19:06:18,19:23:56,NA,incomplete,183,number,1,right,Green_Circle_Stripes_3.jpg,Red_Plus_Stripes_2.jpg,Blue_Star_Grid_3.jpg,right,707.3600001167506,true,high,false
sW9D3NXE,3wa2xvdzfpuo2njsi9v42o7kc6t6eh,3tmfv4nepcr7alm1nqraxs62e8zw84,sW9D3NXE,2020-0188,2020-06-15,19:06:18,19:23:56,NA,incomplete,184,number,1,right,Blue_Plus_Dots_2.jpg,Red_Star_Dots_4.jpg,Green_Triangle_Grid_2.jpg,left,1022.554999915883,false,high,false
sW9D3NXE,3wa2xvdzfpuo2njsi9v42o7kc6t6eh,3tmfv4nepcr7alm1nqraxs62e8zw84,sW9D3NXE,2020-0188,2020-06-15,19:06:18,19:23:56,NA,incomplete,185,number,1,left,Purple_Plus_Stripes_2.jpg,Green_Triangle_Chess_2.jpg,Red_Star_Stripes_4.jpg,left,754.1650000493973,true,high,false
sW9D3NXE,3wa2xvdzfpuo2njsi9v42o7kc6t6eh,3tmfv4nepcr7alm1nqraxs62e8zw84,sW9D3NXE,2020-0188,2020-06-15,19:06:18,19:23:56,NA,incomplete,186,number,1,left,Purple_Star_Dots_4.jpg,Blue_Plus_Grid_4.jpg,Red_Triangle_Dots_2.jpg,left,713.5999999009073,true,high,false
sW9D3NXE,3wa2xvdzfpuo2njsi9v42o7kc6t6eh,3tmfv4nepcr7alm1nqraxs62e8zw84,sW9D3NXE,2020-0188,2020-06-15,19:06:18,19:23:56,NA,incomplete,187,number,1,left,Green_Plus_Chess_2.jpg,Purple_Triangle_Stripes_2.jpg,Blue_Circle_Chess_3.jpg,left,825.4700000397861,true,high,false
sW9D3NXE,3wa2xvdzfpuo2njsi9v42o7kc6t6eh,3tmfv4nepcr7alm1nqraxs62e8zw84,sW9D3NXE,2020-0188,2020-06-15,19:06:18,19:23:56,NA,incomplete,188,number,1,right,Purple_Circle_Stripes_1.jpg,Blue_Triangle_Stripes_4.jpg,Red_Star_Grid_1.jpg,right,829.0150000248104,true,high,false
sW9D3NXE,3wa2xvdzfpuo2njsi9v42o7kc6t6eh,3tmfv4nepcr7alm1nqraxs62e8zw84,sW9D3NXE,2020-0188,2020-06-15,19:06:18,19:23:56,NA,incomplete,189,number,0,left,Purple_Star_Chess_4.jpg,Blue_Triangle_Grid_4.jpg,Green_Plus_Chess_3.jpg,left,1053.2299999613315,true,high,false
sW9D3NXE,3wa2xvdzfpuo2njsi9v42o7kc6t6eh,3tmfv4nepcr7alm1nqraxs62e8zw84,sW9D3NXE,2020-0188,2020-06-15,19:06:18,19:23:56,NA,incomplete,190,number,1,right,Blue_Circle_Grid_1.jpg,Red_Star_Grid_2.jpg,Purple_Plus_Chess_1.jpg,right,848.3299999497831,true,high,false
sW9D3NXE,3wa2xvdzfpuo2njsi9v42o7kc6t6eh,3tmfv4nepcr7alm1nqraxs62e8zw84,sW9D3NXE,2020-0188,2020-06-15,19:06:18,19:23:56,NA,incomplete,191,number,1,right,Blue_Plus_Grid_2.jpg,Purple_Circle_Grid_4.jpg,Red_Star_Chess_2.jpg,right,945.7400001119822,true,high,false
sW9D3NXE,3wa2xvdzfpuo2njsi9v42o7kc6t6eh,3tmfv4nepcr7alm1nqraxs62e8zw84,sW9D3NXE,2020-0188,2020-06-15,19:06:18,19:23:56,NA,incomplete,192,number,1,right,Green_Circle_Grid_3.jpg,Red_Triangle_Grid_4.jpg,Blue_Star_Dots_3.jpg,right,1254.2200000025332,true,high,false
sW9D3NXE,3wa2xvdzfpuo2njsi9v42o7kc6t6eh,3tmfv4nepcr7alm1nqraxs62e8zw84,sW9D3NXE,2020-0188,2020-06-15,19:06:18,19:23:56,NA,incomplete,193,number,0,right,Purple_Triangle_Chess_3.jpg,Green_Plus_Chess_2.jpg,Blue_Star_Grid_3.jpg,right,1348.130000056699,true,high,false
sW9D3NXE,3wa2xvdzfpuo2njsi9v42o7kc6t6eh,3tmfv4nepcr7alm1nqraxs62e8zw84,sW9D3NXE,2020-0188,2020-06-15,19:06:18,19:23:56,NA,incomplete,194,number,1,left,Green_Triangle_Chess_2.jpg,Purple_Plus_Grid_2.jpg,Blue_Star_Chess_3.jpg,left,570.829999865964,true,high,false
sW9D3NXE,3wa2xvdzfpuo2njsi9v42o7kc6t6eh,3tmfv4nepcr7alm1nqraxs62e8zw84,sW9D3NXE,2020-0188,2020-06-15,19:06:18,19:23:56,NA,incomplete,195,number,1,right,Blue_Plus_Chess_3.jpg,Green_Circle_Chess_4.jpg,Purple_Triangle_Stripes_3.jpg,right,1052.0350001752377,true,high,false
sW9D3NXE,3wa2xvdzfpuo2njsi9v42o7kc6t6eh,3tmfv4nepcr7alm1nqraxs62e8zw84,sW9D3NXE,2020-0188,2020-06-15,19:06:18,19:23:56,NA,incomplete,196,number,0,right,Green_Circle_Stripes_2.jpg,Red_Triangle_Stripes_4.jpg,Blue_Star_Chess_2.jpg,right,837.5949999317527,true,high,false
sW9D3NXE,3wa2xvdzfpuo2njsi9v42o7kc6t6eh,3tmfv4nepcr7alm1nqraxs62e8zw84,sW9D3NXE,2020-0188,2020-06-15,19:06:18,19:23:56,NA,incomplete,197,number,1,right,Purple_Star_Stripes_2.jpg,Red_Plus_Stripes_1.jpg,Blue_Circle_Chess_2.jpg,right,862.0249999221414,true,high,false
sW9D3NXE,3wa2xvdzfpuo2njsi9v42o7kc6t6eh,3tmfv4nepcr7alm1nqraxs62e8zw84,sW9D3NXE,2020-0188,2020-06-15,19:06:18,19:23:56,NA,incomplete,198,number,0,right,Blue_Plus_Chess_4.jpg,Green_Circle_Chess_2.jpg,Purple_Star_Grid_4.jpg,right,660.4949999600649,true,high,false
sW9D3NXE,3wa2xvdzfpuo2njsi9v42o7kc6t6eh,3tmfv4nepcr7alm1nqraxs62e8zw84,sW9D3NXE,2020-0188,2020-06-15,19:06:18,19:23:56,NA,incomplete,199,number,1,right,Purple_Star_Dots_2.jpg,Blue_Plus_Dots_3.jpg,Green_Triangle_Chess_2.jpg,right,1082.1950000245124,true,high,false
sW9D3NXE,3wa2xvdzfpuo2njsi9v42o7kc6t6eh,3tmfv4nepcr7alm1nqraxs62e8zw84,sW9D3NXE,2020-0188,2020-06-15,19:06:18,19:23:56,NA,incomplete,200,filling,0,right,Blue_Circle_Stripes_2.jpg,Red_Plus_Chess_2.jpg,Purple_Triangle_Stripes_4.jpg,left,724.3550000712276,false,high,false
sW9D3NXE,3wa2xvdzfpuo2njsi9v42o7kc6t6eh,3tmfv4nepcr7alm1nqraxs62e8zw84,sW9D3NXE,2020-0188,2020-06-15,19:06:18,19:23:56,NA,incomplete,201,filling,1,right,Blue_Star_Grid_1.jpg,Red_Circle_Stripes_1.jpg,Green_Triangle_Grid_2.jpg,left,806.6450001206249,false,high,false
sW9D3NXE,3wa2xvdzfpuo2njsi9v42o7kc6t6eh,3tmfv4nepcr7alm1nqraxs62e8zw84,sW9D3NXE,2020-0188,2020-06-15,19:06:18,19:23:56,NA,incomplete,202,filling,1,right,Purple_Triangle_Grid_2.jpg,Blue_Star_Stripes_2.jpg,Red_Plus_Grid_3.jpg,left,815.7200000714511,false,high,false
sW9D3NXE,3wa2xvdzfpuo2njsi9v42o7kc6t6eh,3tmfv4nepcr7alm1nqraxs62e8zw84,sW9D3NXE,2020-0188,2020-06-15,19:06:18,19:23:56,NA,incomplete,203,filling,1,left,Green_Star_Grid_2.jpg,Red_Circle_Grid_4.jpg,Purple_Plus_Dots_2.jpg,left,824.7250001877546,true,high,false
sW9D3NXE,3wa2xvdzfpuo2njsi9v42o7kc6t6eh,3tmfv4nepcr7alm1nqraxs62e8zw84,sW9D3NXE,2020-0188,2020-06-15,19:06:18,19:23:56,NA,incomplete,204,filling,1,left,Red_Circle_Stripes_4.jpg,Blue_Plus_Stripes_3.jpg,Purple_Star_Grid_4.jpg,left,1188.6299999896437,true,high,false
sW9D3NXE,3wa2xvdzfpuo2njsi9v42o7kc6t6eh,3tmfv4nepcr7alm1nqraxs62e8zw84,sW9D3NXE,2020-0188,2020-06-15,19:06:18,19:23:56,NA,incomplete,205,filling,1,right,Red_Star_Stripes_2.jpg,Purple_Circle_Chess_2.jpg,Blue_Plus_Stripes_4.jpg,right,790.4499999713153,true,high,false
sW9D3NXE,3wa2xvdzfpuo2njsi9v42o7kc6t6eh,3tmfv4nepcr7alm1nqraxs62e8zw84,sW9D3NXE,2020-0188,2020-06-15,19:06:18,19:23:56,NA,incomplete,206,filling,1,right,Blue_Star_Stripes_1.jpg,Purple_Triangle_Grid_1.jpg,Red_Plus_Stripes_4.jpg,right,989.7799999453127,true,high,false
sW9D3NXE,3wa2xvdzfpuo2njsi9v42o7kc6t6eh,3tmfv4nepcr7alm1nqraxs62e8zw84,sW9D3NXE,2020-0188,2020-06-15,19:06:18,19:23:56,NA,incomplete,207,filling,1,left,Green_Star_Grid_1.jpg,Blue_Circle_Grid_4.jpg,Red_Triangle_Stripes_1.jpg,left,836.030000122264,true,high,false
sW9D3NXE,3wa2xvdzfpuo2njsi9v42o7kc6t6eh,3tmfv4nepcr7alm1nqraxs62e8zw84,sW9D3NXE,2020-0188,2020-06-15,19:06:18,19:23:56,NA,incomplete,208,filling,1,left,Green_Circle_Stripes_3.jpg,Red_Star_Stripes_4.jpg,Purple_Triangle_Dots_3.jpg,left,814.1199999954551,true,high,false
sW9D3NXE,3wa2xvdzfpuo2njsi9v42o7kc6t6eh,3tmfv4nepcr7alm1nqraxs62e8zw84,sW9D3NXE,2020-0188,2020-06-15,19:06:18,19:23:56,NA,incomplete,209,filling,0,right,Blue_Circle_Dots_3.jpg,Green_Star_Grid_3.jpg,Red_Triangle_Dots_1.jpg,right,702.5599998887628,true,high,false
sW9D3NXE,3wa2xvdzfpuo2njsi9v42o7kc6t6eh,3tmfv4nepcr7alm1nqraxs62e8zw84,sW9D3NXE,2020-0188,2020-06-15,19:06:18,19:23:56,NA,incomplete,210,filling,1,right,Blue_Triangle_Dots_3.jpg,Red_Circle_Grid_3.jpg,Green_Plus_Dots_4.jpg,right,836.5550001617521,true,high,false
sW9D3NXE,3wa2xvdzfpuo2njsi9v42o7kc6t6eh,3tmfv4nepcr7alm1nqraxs62e8zw84,sW9D3NXE,2020-0188,2020-06-15,19:06:18,19:23:56,NA,incomplete,211,filling,1,left,Purple_Star_Stripes_4.jpg,Red_Triangle_Stripes_1.jpg,Green_Circle_Grid_4.jpg,left,973.0949997901917,true,high,false
sW9D3NXE,3wa2xvdzfpuo2njsi9v42o7kc6t6eh,3tmfv4nepcr7alm1nqraxs62e8zw84,sW9D3NXE,2020-0188,2020-06-15,19:06:18,19:23:56,NA,incomplete,212,filling,0,right,Purple_Circle_Chess_4.jpg,Green_Star_Stripes_4.jpg,Red_Triangle_Chess_3.jpg,left,1281.4200001303107,false,high,false
sW9D3NXE,3wa2xvdzfpuo2njsi9v42o7kc6t6eh,3tmfv4nepcr7alm1nqraxs62e8zw84,sW9D3NXE,2020-0188,2020-06-15,19:06:18,19:23:56,NA,incomplete,213,filling,1,left,Blue_Star_Stripes_3.jpg,Purple_Plus_Stripes_2.jpg,Red_Circle_Grid_3.jpg,right,1308.0249999184161,false,high,false
sW9D3NXE,3wa2xvdzfpuo2njsi9v42o7kc6t6eh,3tmfv4nepcr7alm1nqraxs62e8zw84,sW9D3NXE,2020-0188,2020-06-15,19:06:18,19:23:56,NA,incomplete,214,filling,0,left,Green_Circle_Stripes_4.jpg,Purple_Triangle_Stripes_3.jpg,Blue_Plus_Dots_4.jpg,right,915.4950000811368,false,high,false
sW9D3NXE,3wa2xvdzfpuo2njsi9v42o7kc6t6eh,3tmfv4nepcr7alm1nqraxs62e8zw84,sW9D3NXE,2020-0188,2020-06-15,19:06:18,19:23:56,NA,incomplete,215,filling,1,left,Purple_Circle_Chess_3.jpg,Blue_Star_Chess_2.jpg,Red_Plus_Dots_3.jpg,right,801.644999999553,false,high,false
sW9D3NXE,3wa2xvdzfpuo2njsi9v42o7kc6t6eh,3tmfv4nepcr7alm1nqraxs62e8zw84,sW9D3NXE,2020-0188,2020-06-15,19:06:18,19:23:56,NA,incomplete,216,filling,1,left,Green_Triangle_Dots_1.jpg,Red_Plus_Dots_2.jpg,Blue_Circle_Chess_1.jpg,left,1458.3000000566244,true,high,false
sW9D3NXE,3wa2xvdzfpuo2njsi9v42o7kc6t6eh,3tmfv4nepcr7alm1nqraxs62e8zw84,sW9D3NXE,2020-0188,2020-06-15,19:06:18,19:23:56,NA,incomplete,217,filling,1,right,Red_Triangle_Dots_3.jpg,Purple_Plus_Stripes_3.jpg,Blue_Circle_Dots_2.jpg,right,1003.4350000787526,true,high,false
sW9D3NXE,3wa2xvdzfpuo2njsi9v42o7kc6t6eh,3tmfv4nepcr7alm1nqraxs62e8zw84,sW9D3NXE,2020-0188,2020-06-15,19:06:18,19:23:56,NA,incomplete,218,filling,1,left,Red_Circle_Grid_3.jpg,Green_Star_Grid_1.jpg,Purple_Triangle_Chess_3.jpg,left,988.8750000391155,true,high,false
sW9D3NXE,3wa2xvdzfpuo2njsi9v42o7kc6t6eh,3tmfv4nepcr7alm1nqraxs62e8zw84,sW9D3NXE,2020-0188,2020-06-15,19:06:18,19:23:56,NA,incomplete,219,filling,1,right,Green_Circle_Dots_2.jpg,Red_Triangle_Stripes_2.jpg,Purple_Star_Dots_4.jpg,right,854.2850001249462,true,high,false
sW9D3NXE,3wa2xvdzfpuo2njsi9v42o7kc6t6eh,3tmfv4nepcr7alm1nqraxs62e8zw84,sW9D3NXE,2020-0188,2020-06-15,19:06:18,19:23:56,NA,incomplete,220,number,1,left,Green_Plus_Grid_2.jpg,Blue_Circle_Chess_2.jpg,Purple_Triangle_Grid_3.jpg,right,1114.3400000873953,false,high,false
sW9D3NXE,3wa2xvdzfpuo2njsi9v42o7kc6t6eh,3tmfv4nepcr7alm1nqraxs62e8zw84,sW9D3NXE,2020-0188,2020-06-15,19:06:18,19:23:56,NA,incomplete,221,number,1,left,Green_Circle_Grid_3.jpg,Red_Triangle_Chess_3.jpg,Purple_Plus_Grid_1.jpg,left,528.6799999885261,true,high,false
sW9D3NXE,3wa2xvdzfpuo2njsi9v42o7kc6t6eh,3tmfv4nepcr7alm1nqraxs62e8zw84,sW9D3NXE,2020-0188,2020-06-15,19:06:18,19:23:56,NA,incomplete,222,number,1,right,Purple_Triangle_Grid_3.jpg,Red_Plus_Grid_2.jpg,Green_Circle_Chess_3.jpg,left,795.7949999254197,false,high,false
sW9D3NXE,3wa2xvdzfpuo2njsi9v42o7kc6t6eh,3tmfv4nepcr7alm1nqraxs62e8zw84,sW9D3NXE,2020-0188,2020-06-15,19:06:18,19:23:56,NA,incomplete,223,number,1,left,Purple_Triangle_Stripes_1.jpg,Blue_Circle_Dots_1.jpg,Red_Plus_Stripes_4.jpg,left,1101.4900000300258,true,high,false
sW9D3NXE,3wa2xvdzfpuo2njsi9v42o7kc6t6eh,3tmfv4nepcr7alm1nqraxs62e8zw84,sW9D3NXE,2020-0188,2020-06-15,19:06:18,19:23:56,NA,incomplete,224,number,1,left,Red_Triangle_Stripes_2.jpg,Blue_Plus_Dots_2.jpg,Green_Circle_Stripes_1.jpg,left,889.1849999781698,true,high,false
sW9D3NXE,3wa2xvdzfpuo2njsi9v42o7kc6t6eh,3tmfv4nepcr7alm1nqraxs62e8zw84,sW9D3NXE,2020-0188,2020-06-15,19:06:18,19:23:56,NA,incomplete,225,number,0,left,Green_Circle_Chess_2.jpg,Red_Star_Dots_2.jpg,Purple_Triangle_Chess_4.jpg,left,818.8799999188632,true,high,false
sW9D3NXE,3wa2xvdzfpuo2njsi9v42o7kc6t6eh,3tmfv4nepcr7alm1nqraxs62e8zw84,sW9D3NXE,2020-0188,2020-06-15,19:06:18,19:23:56,NA,incomplete,226,number,1,left,Red_Plus_Dots_4.jpg,Green_Triangle_Grid_4.jpg,Blue_Circle_Dots_2.jpg,left,672.1550000365824,true,high,false
sW9D3NXE,3wa2xvdzfpuo2njsi9v42o7kc6t6eh,3tmfv4nepcr7alm1nqraxs62e8zw84,sW9D3NXE,2020-0188,2020-06-15,19:06:18,19:23:56,NA,incomplete,227,number,1,left,Blue_Plus_Stripes_3.jpg,Purple_Triangle_Dots_3.jpg,Red_Star_Stripes_4.jpg,left,710.6549998279661,true,high,false
sW9D3NXE,3wa2xvdzfpuo2njsi9v42o7kc6t6eh,3tmfv4nepcr7alm1nqraxs62e8zw84,sW9D3NXE,2020-0188,2020-06-15,19:06:18,19:23:56,NA,incomplete,228,number,1,left,Green_Star_Dots_4.jpg,Purple_Triangle_Chess_4.jpg,Blue_Circle_Dots_3.jpg,left,749.7049998492002,true,high,false
sW9D3NXE,3wa2xvdzfpuo2njsi9v42o7kc6t6eh,3tmfv4nepcr7alm1nqraxs62e8zw84,sW9D3NXE,2020-0188,2020-06-15,19:06:18,19:23:56,NA,incomplete,229,number,0,left,Green_Star_Stripes_3.jpg,Red_Plus_Grid_3.jpg,Purple_Triangle_Stripes_1.jpg,left,695.3450001310557,true,high,false
sW9D3NXE,3wa2xvdzfpuo2njsi9v42o7kc6t6eh,3tmfv4nepcr7alm1nqraxs62e8zw84,sW9D3NXE,2020-0188,2020-06-15,19:06:18,19:23:56,NA,incomplete,230,number,1,right,Blue_Star_Chess_2.jpg,Red_Circle_Chess_3.jpg,Green_Triangle_Stripes_2.jpg,right,779.17500003241,true,high,false
sW9D3NXE,3wa2xvdzfpuo2njsi9v42o7kc6t6eh,3tmfv4nepcr7alm1nqraxs62e8zw84,sW9D3NXE,2020-0188,2020-06-15,19:06:18,19:23:56,NA,incomplete,231,number,1,right,Green_Triangle_Dots_3.jpg,Red_Circle_Dots_4.jpg,Purple_Star_Chess_3.jpg,right,768.140000058338,true,high,false
sW9D3NXE,3wa2xvdzfpuo2njsi9v42o7kc6t6eh,3tmfv4nepcr7alm1nqraxs62e8zw84,sW9D3NXE,2020-0188,2020-06-15,19:06:18,19:23:56,NA,incomplete,232,number,1,right,Green_Star_Dots_3.jpg,Purple_Triangle_Dots_2.jpg,Red_Plus_Chess_3.jpg,right,690.8199999015778,true,high,false
sW9D3NXE,3wa2xvdzfpuo2njsi9v42o7kc6t6eh,3tmfv4nepcr7alm1nqraxs62e8zw84,sW9D3NXE,2020-0188,2020-06-15,19:06:18,19:23:56,NA,incomplete,233,number,1,left,Red_Triangle_Stripes_3.jpg,Green_Circle_Chess_3.jpg,Purple_Star_Stripes_4.jpg,left,764.1600000206381,true,high,false
sW9D3NXE,3wa2xvdzfpuo2njsi9v42o7kc6t6eh,3tmfv4nepcr7alm1nqraxs62e8zw84,sW9D3NXE,2020-0188,2020-06-15,19:06:18,19:23:56,NA,incomplete,234,number,1,left,Purple_Plus_Grid_1.jpg,Green_Star_Dots_1.jpg,Red_Triangle_Grid_2.jpg,left,969.054999994114,true,high,false
sW9D3NXE,3wa2xvdzfpuo2njsi9v42o7kc6t6eh,3tmfv4nepcr7alm1nqraxs62e8zw84,sW9D3NXE,2020-0188,2020-06-15,19:06:18,19:23:56,NA,incomplete,235,number,1,left,Red_Circle_Dots_4.jpg,Purple_Star_Grid_4.jpg,Green_Triangle_Dots_2.jpg,left,805.2399998996407,true,high,false
sW9D3NXE,3wa2xvdzfpuo2njsi9v42o7kc6t6eh,3tmfv4nepcr7alm1nqraxs62e8zw84,sW9D3NXE,2020-0188,2020-06-15,19:06:18,19:23:56,NA,incomplete,236,number,1,left,Blue_Star_Stripes_4.jpg,Green_Plus_Dots_4.jpg,Purple_Triangle_Stripes_1.jpg,left,536.324999993667,true,high,false
sW9D3NXE,3wa2xvdzfpuo2njsi9v42o7kc6t6eh,3tmfv4nepcr7alm1nqraxs62e8zw84,sW9D3NXE,2020-0188,2020-06-15,19:06:18,19:23:56,NA,incomplete,237,number,0,right,Purple_Triangle_Grid_3.jpg,Green_Plus_Grid_1.jpg,Red_Star_Chess_3.jpg,right,646.3849998544902,true,high,false
sW9D3NXE,3wa2xvdzfpuo2njsi9v42o7kc6t6eh,3tmfv4nepcr7alm1nqraxs62e8zw84,sW9D3NXE,2020-0188,2020-06-15,19:06:18,19:23:56,NA,incomplete,238,number,1,right,Green_Circle_Chess_3.jpg,Red_Plus_Chess_4.jpg,Blue_Star_Dots_3.jpg,right,830.8349999133497,true,high,false
sW9D3NXE,3wa2xvdzfpuo2njsi9v42o7kc6t6eh,3tmfv4nepcr7alm1nqraxs62e8zw84,sW9D3NXE,2020-0188,2020-06-15,19:06:18,19:23:56,NA,incomplete,239,number,1,left,Purple_Circle_Dots_2.jpg,Green_Star_Chess_2.jpg,Blue_Plus_Dots_4.jpg,left,961.8500000797212,true,high,false
sW9D3NXE,3wa2xvdzfpuo2njsi9v42o7kc6t6eh,3tmfv4nepcr7alm1nqraxs62e8zw84,sW9D3NXE,2020-0188,2020-06-15,19:06:18,19:23:56,NA,NA,instruction example,shape,NA,NA,Red_Circle_Stripes_2.jpg,Blue_Circle_Dots_4.jpg,Red_Triangle_Grid_3.jpg,NA,NA,NA,NA,undefined
sW9D3NXE,3wa2xvdzfpuo2njsi9v42o7kc6t6eh,3tmfv4nepcr7alm1nqraxs62e8zw84,sW9D3NXE,2020-0188,2020-06-15,19:06:18,19:23:56,NA,NA,instruction example,shape,NA,NA,Red_Plus_Dots_1.jpg,Red_Star_Stripes_2.jpg,Purple_Plus_Chess_3.jpg,NA,NA,NA,NA,undefined
sW9D3NXE,3wa2xvdzfpuo2njsi9v42o7kc6t6eh,3tmfv4nepcr7alm1nqraxs62e8zw84,sW9D3NXE,2020-0188,2020-06-15,19:06:18,19:23:56,NA,NA,instruction example,shape,NA,NA,Green_Star_Dots_1.jpg,Red_Triangle_Dots_4.jpg,Blue_Plus_Chess_1.jpg,NA,NA,NA,NA,undefined
sW9D3NXE,3wa2xvdzfpuo2njsi9v42o7kc6t6eh,3tmfv4nepcr7alm1nqraxs62e8zw84,sW9D3NXE,2020-0188,2020-06-15,19:06:18,19:23:56,NA,NA,instruction example,shape,NA,NA,Purple_Star_Stripes_4.jpg,Green_Circle_Dots_4.jpg,Blue_Plus_Stripes_3.jpg,NA,NA,NA,NA,undefined
sW9D3NXE,3wa2xvdzfpuo2njsi9v42o7kc6t6eh,3tmfv4nepcr7alm1nqraxs62e8zw84,sW9D3NXE,2020-0188,2020-06-15,19:06:18,19:23:56,1025701.3100001495,1058220.1800001785,NA,NA,NA,NA,NA,NA,NA,NA,NA,NA,NA,undefined
