workerId,hitId,assignmentId,subject,studyid,exp_date,exp_start,exp_end,time_start,time_end,trial,type,reward_validity,answer,image_top,image_left,image_right,response,response_time,response_acc,volatility,age,race,gender,ethnicity,color,vision,neuro,practice
tpnkfj47,3ac6mfv6anv2a7u5af0lkpxs80hhzh,3tycr1gotgw6jnbps2kl11mqbeglzn,tpnkfj47,2020-0188,2020-05-21,12:25:56,12:49:15,NA,incomplete,0,shape,1,right,Green_Star_Dots_1.jpg,Purple_Triangle_Dots_2.jpg,Red_Star_Chess_3.jpg,right,1911.180000010063,true,NA,NA,NA,NA,NA,NA,NA,NA,true
tpnkfj47,3ac6mfv6anv2a7u5af0lkpxs80hhzh,3tycr1gotgw6jnbps2kl11mqbeglzn,tpnkfj47,2020-0188,2020-05-21,12:25:56,12:49:15,NA,incomplete,1,shape,1,right,Green_Triangle_Grid_1.jpg,Purple_Plus_Grid_3.jpg,Blue_Triangle_Stripes_4.jpg,right,1254.6999999904074,true,NA,NA,NA,NA,NA,NA,NA,NA,true
tpnkfj47,3ac6mfv6anv2a7u5af0lkpxs80hhzh,3tycr1gotgw6jnbps2kl11mqbeglzn,tpnkfj47,2020-0188,2020-05-21,12:25:56,12:49:15,NA,incomplete,2,shape,1,right,Green_Circle_Stripes_1.jpg,Blue_Star_Stripes_3.jpg,Purple_Circle_Grid_4.jpg,right,1121.7150000011316,true,NA,NA,NA,NA,NA,NA,NA,NA,true
tpnkfj47,3ac6mfv6anv2a7u5af0lkpxs80hhzh,3tycr1gotgw6jnbps2kl11mqbeglzn,tpnkfj47,2020-0188,2020-05-21,12:25:56,12:49:15,NA,incomplete,3,shape,0,right,Green_Plus_Chess_3.jpg,Red_Triangle_Chess_1.jpg,Purple_Plus_Grid_2.jpg,right,1408.7450000079116,true,NA,NA,NA,NA,NA,NA,NA,NA,true
tpnkfj47,3ac6mfv6anv2a7u5af0lkpxs80hhzh,3tycr1gotgw6jnbps2kl11mqbeglzn,tpnkfj47,2020-0188,2020-05-21,12:25:56,12:49:15,NA,incomplete,4,shape,1,right,Blue_Plus_Grid_2.jpg,Purple_Circle_Grid_3.jpg,Green_Plus_Stripes_1.jpg,right,1837.4200000107521,true,NA,NA,NA,NA,NA,NA,NA,NA,true
tpnkfj47,3ac6mfv6anv2a7u5af0lkpxs80hhzh,3tycr1gotgw6jnbps2kl11mqbeglzn,tpnkfj47,2020-0188,2020-05-21,12:25:56,12:49:15,NA,incomplete,5,shape,0,right,Red_Circle_Dots_4.jpg,Green_Star_Dots_3.jpg,Purple_Circle_Chess_1.jpg,right,1335.7799999939743,true,NA,NA,NA,NA,NA,NA,NA,NA,true
tpnkfj47,3ac6mfv6anv2a7u5af0lkpxs80hhzh,3tycr1gotgw6jnbps2kl11mqbeglzn,tpnkfj47,2020-0188,2020-05-21,12:25:56,12:49:15,NA,incomplete,6,shape,1,right,Red_Plus_Stripes_1.jpg,Green_Triangle_Stripes_3.jpg,Purple_Plus_Chess_2.jpg,none,0,false,NA,NA,NA,NA,NA,NA,NA,NA,true
tpnkfj47,3ac6mfv6anv2a7u5af0lkpxs80hhzh,3tycr1gotgw6jnbps2kl11mqbeglzn,tpnkfj47,2020-0188,2020-05-21,12:25:56,12:49:15,NA,incomplete,7,shape,1,right,Red_Plus_Grid_3.jpg,Purple_Triangle_Grid_4.jpg,Blue_Plus_Stripes_2.jpg,right,949.110000001383,true,NA,NA,NA,NA,NA,NA,NA,NA,true
tpnkfj47,3ac6mfv6anv2a7u5af0lkpxs80hhzh,3tycr1gotgw6jnbps2kl11mqbeglzn,tpnkfj47,2020-0188,2020-05-21,12:25:56,12:49:15,NA,incomplete,8,shape,1,left,Blue_Star_Chess_4.jpg,Red_Star_Dots_1.jpg,Purple_Circle_Chess_3.jpg,right,1372.479999990901,false,NA,NA,NA,NA,NA,NA,NA,NA,true
tpnkfj47,3ac6mfv6anv2a7u5af0lkpxs80hhzh,3tycr1gotgw6jnbps2kl11mqbeglzn,tpnkfj47,2020-0188,2020-05-21,12:25:56,12:49:15,NA,incomplete,9,shape,1,left,Red_Triangle_Chess_4.jpg,Purple_Triangle_Dots_3.jpg,Blue_Circle_Chess_1.jpg,left,1240.4050000041025,true,NA,NA,NA,NA,NA,NA,NA,NA,true
tpnkfj47,3ac6mfv6anv2a7u5af0lkpxs80hhzh,3tycr1gotgw6jnbps2kl11mqbeglzn,tpnkfj47,2020-0188,2020-05-21,12:25:56,12:49:15,NA,incomplete,10,shape,1,right,Red_Triangle_Stripes_2.jpg,Green_Circle_Stripes_1.jpg,Purple_Triangle_Grid_3.jpg,right,1059.2450000112876,true,NA,NA,NA,NA,NA,NA,NA,NA,true
tpnkfj47,3ac6mfv6anv2a7u5af0lkpxs80hhzh,3tycr1gotgw6jnbps2kl11mqbeglzn,tpnkfj47,2020-0188,2020-05-21,12:25:56,12:49:15,NA,incomplete,11,shape,0,left,Blue_Circle_Chess_4.jpg,Purple_Circle_Grid_1.jpg,Red_Star_Chess_2.jpg,left,859.6600000018952,true,NA,NA,NA,NA,NA,NA,NA,NA,true
tpnkfj47,3ac6mfv6anv2a7u5af0lkpxs80hhzh,3tycr1gotgw6jnbps2kl11mqbeglzn,tpnkfj47,2020-0188,2020-05-21,12:25:56,12:49:15,NA,incomplete,12,shape,1,right,Blue_Triangle_Stripes_1.jpg,Red_Circle_Stripes_3.jpg,Green_Triangle_Chess_4.jpg,right,1809.6049999876413,true,NA,NA,NA,NA,NA,NA,NA,NA,true
tpnkfj47,3ac6mfv6anv2a7u5af0lkpxs80hhzh,3tycr1gotgw6jnbps2kl11mqbeglzn,tpnkfj47,2020-0188,2020-05-21,12:25:56,12:49:15,NA,incomplete,13,shape,1,left,Blue_Star_Stripes_4.jpg,Red_Star_Dots_1.jpg,Purple_Plus_Stripes_2.jpg,left,1204.2700000019977,true,NA,NA,NA,NA,NA,NA,NA,NA,true
tpnkfj47,3ac6mfv6anv2a7u5af0lkpxs80hhzh,3tycr1gotgw6jnbps2kl11mqbeglzn,tpnkfj47,2020-0188,2020-05-21,12:25:56,12:49:15,NA,incomplete,14,shape,1,right,Green_Triangle_Dots_4.jpg,Red_Star_Dots_3.jpg,Purple_Triangle_Chess_2.jpg,right,1160.7100000110222,true,NA,NA,NA,NA,NA,NA,NA,NA,true
tpnkfj47,3ac6mfv6anv2a7u5af0lkpxs80hhzh,3tycr1gotgw6jnbps2kl11mqbeglzn,tpnkfj47,2020-0188,2020-05-21,12:25:56,12:49:15,NA,incomplete,15,shape,1,right,Green_Star_Dots_4.jpg,Blue_Circle_Dots_2.jpg,Purple_Star_Stripes_1.jpg,right,1103.4249999938766,true,NA,NA,NA,NA,NA,NA,NA,NA,true
tpnkfj47,3ac6mfv6anv2a7u5af0lkpxs80hhzh,3tycr1gotgw6jnbps2kl11mqbeglzn,tpnkfj47,2020-0188,2020-05-21,12:25:56,12:49:15,NA,incomplete,16,shape,1,right,Green_Plus_Grid_1.jpg,Red_Star_Grid_4.jpg,Purple_Plus_Chess_2.jpg,right,945.7300000067335,true,NA,NA,NA,NA,NA,NA,NA,NA,true
tpnkfj47,3ac6mfv6anv2a7u5af0lkpxs80hhzh,3tycr1gotgw6jnbps2kl11mqbeglzn,tpnkfj47,2020-0188,2020-05-21,12:25:56,12:49:15,NA,incomplete,17,shape,0,right,Green_Plus_Chess_4.jpg,Blue_Circle_Chess_2.jpg,Red_Plus_Grid_3.jpg,right,910.1100000116276,true,NA,NA,NA,NA,NA,NA,NA,NA,true
tpnkfj47,3ac6mfv6anv2a7u5af0lkpxs80hhzh,3tycr1gotgw6jnbps2kl11mqbeglzn,tpnkfj47,2020-0188,2020-05-21,12:25:56,12:49:15,NA,incomplete,18,shape,1,left,Red_Triangle_Chess_3.jpg,Purple_Triangle_Grid_4.jpg,Green_Plus_Chess_1.jpg,left,1318.1349999940721,true,NA,NA,NA,NA,NA,NA,NA,NA,true
tpnkfj47,3ac6mfv6anv2a7u5af0lkpxs80hhzh,3tycr1gotgw6jnbps2kl11mqbeglzn,tpnkfj47,2020-0188,2020-05-21,12:25:56,12:49:15,NA,incomplete,19,shape,1,left,Red_Triangle_Chess_4.jpg,Green_Triangle_Dots_3.jpg,Blue_Circle_Chess_2.jpg,left,1102.4299999990035,true,NA,NA,NA,NA,NA,NA,NA,NA,true
tpnkfj47,3ac6mfv6anv2a7u5af0lkpxs80hhzh,3tycr1gotgw6jnbps2kl11mqbeglzn,tpnkfj47,2020-0188,2020-05-21,12:25:56,12:49:15,NA,incomplete,20,filling,1,left,Red_Circle_Chess_1.jpg,Purple_Triangle_Chess_4.jpg,Green_Circle_Stripes_2.jpg,right,1351.2249999912456,false,NA,NA,NA,NA,NA,NA,NA,NA,true
tpnkfj47,3ac6mfv6anv2a7u5af0lkpxs80hhzh,3tycr1gotgw6jnbps2kl11mqbeglzn,tpnkfj47,2020-0188,2020-05-21,12:25:56,12:49:15,NA,incomplete,21,filling,1,left,Blue_Circle_Chess_3.jpg,Red_Triangle_Chess_4.jpg,Green_Circle_Dots_2.jpg,left,1108.330000002752,true,NA,NA,NA,NA,NA,NA,NA,NA,true
tpnkfj47,3ac6mfv6anv2a7u5af0lkpxs80hhzh,3tycr1gotgw6jnbps2kl11mqbeglzn,tpnkfj47,2020-0188,2020-05-21,12:25:56,12:49:15,NA,incomplete,22,filling,1,right,Blue_Triangle_Stripes_4.jpg,Green_Triangle_Chess_2.jpg,Purple_Star_Stripes_3.jpg,right,1285.6849999952829,true,NA,NA,NA,NA,NA,NA,NA,NA,true
tpnkfj47,3ac6mfv6anv2a7u5af0lkpxs80hhzh,3tycr1gotgw6jnbps2kl11mqbeglzn,tpnkfj47,2020-0188,2020-05-21,12:25:56,12:49:15,NA,incomplete,23,filling,1,left,Green_Star_Stripes_2.jpg,Red_Triangle_Stripes_4.jpg,Purple_Star_Chess_3.jpg,left,1184.0100000117673,true,NA,NA,NA,NA,NA,NA,NA,NA,true
tpnkfj47,3ac6mfv6anv2a7u5af0lkpxs80hhzh,3tycr1gotgw6jnbps2kl11mqbeglzn,tpnkfj47,2020-0188,2020-05-21,12:25:56,12:49:15,NA,incomplete,24,filling,1,left,Purple_Triangle_Stripes_4.jpg,Red_Circle_Stripes_3.jpg,Green_Triangle_Grid_2.jpg,left,1140.2200000011362,true,NA,NA,NA,NA,NA,NA,NA,NA,true
tpnkfj47,3ac6mfv6anv2a7u5af0lkpxs80hhzh,3tycr1gotgw6jnbps2kl11mqbeglzn,tpnkfj47,2020-0188,2020-05-21,12:25:56,12:49:15,NA,incomplete,25,filling,0,right,Purple_Plus_Dots_1.jpg,Green_Plus_Grid_4.jpg,Blue_Circle_Dots_2.jpg,right,1194.6800000005169,true,NA,NA,NA,NA,NA,NA,NA,NA,true
tpnkfj47,3ac6mfv6anv2a7u5af0lkpxs80hhzh,3tycr1gotgw6jnbps2kl11mqbeglzn,tpnkfj47,2020-0188,2020-05-21,12:25:56,12:49:15,NA,incomplete,26,filling,1,right,Purple_Circle_Grid_2.jpg,Red_Circle_Dots_3.jpg,Blue_Triangle_Grid_1.jpg,right,1680.3799999906914,true,NA,NA,NA,NA,NA,NA,NA,NA,true
tpnkfj47,3ac6mfv6anv2a7u5af0lkpxs80hhzh,3tycr1gotgw6jnbps2kl11mqbeglzn,tpnkfj47,2020-0188,2020-05-21,12:25:56,12:49:15,NA,incomplete,27,filling,1,right,Green_Star_Grid_3.jpg,Red_Star_Chess_4.jpg,Blue_Circle_Grid_1.jpg,right,1352.9550000093877,true,NA,NA,NA,NA,NA,NA,NA,NA,true
tpnkfj47,3ac6mfv6anv2a7u5af0lkpxs80hhzh,3tycr1gotgw6jnbps2kl11mqbeglzn,tpnkfj47,2020-0188,2020-05-21,12:25:56,12:49:15,NA,incomplete,28,filling,0,left,Green_Star_Chess_1.jpg,Blue_Plus_Chess_3.jpg,Purple_Star_Dots_4.jpg,left,1319.5100000011735,true,NA,NA,NA,NA,NA,NA,NA,NA,true
tpnkfj47,3ac6mfv6anv2a7u5af0lkpxs80hhzh,3tycr1gotgw6jnbps2kl11mqbeglzn,tpnkfj47,2020-0188,2020-05-21,12:25:56,12:49:15,NA,incomplete,29,filling,1,right,Purple_Triangle_Chess_3.jpg,Blue_Triangle_Dots_1.jpg,Red_Circle_Chess_2.jpg,right,1070.0899999937974,true,NA,NA,NA,NA,NA,NA,NA,NA,true
tpnkfj47,3ac6mfv6anv2a7u5af0lkpxs80hhzh,3tycr1gotgw6jnbps2kl11mqbeglzn,tpnkfj47,2020-0188,2020-05-21,12:25:56,12:49:15,NA,incomplete,30,filling,1,left,Red_Plus_Chess_2.jpg,Purple_Star_Chess_1.jpg,Blue_Plus_Dots_3.jpg,left,1047.4099999992177,true,NA,NA,NA,NA,NA,NA,NA,NA,true
tpnkfj47,3ac6mfv6anv2a7u5af0lkpxs80hhzh,3tycr1gotgw6jnbps2kl11mqbeglzn,tpnkfj47,2020-0188,2020-05-21,12:25:56,12:49:15,NA,incomplete,31,filling,1,right,Blue_Circle_Dots_2.jpg,Purple_Circle_Grid_3.jpg,Red_Plus_Dots_4.jpg,right,1003.3750000002328,true,NA,NA,NA,NA,NA,NA,NA,NA,true
tpnkfj47,3ac6mfv6anv2a7u5af0lkpxs80hhzh,3tycr1gotgw6jnbps2kl11mqbeglzn,tpnkfj47,2020-0188,2020-05-21,12:25:56,12:49:15,NA,incomplete,32,filling,0,right,Purple_Plus_Stripes_1.jpg,Green_Plus_Chess_2.jpg,Blue_Star_Stripes_3.jpg,right,1097.5900000048568,true,NA,NA,NA,NA,NA,NA,NA,NA,true
tpnkfj47,3ac6mfv6anv2a7u5af0lkpxs80hhzh,3tycr1gotgw6jnbps2kl11mqbeglzn,tpnkfj47,2020-0188,2020-05-21,12:25:56,12:49:15,NA,incomplete,33,filling,1,left,Blue_Triangle_Grid_1.jpg,Red_Plus_Grid_3.jpg,Green_Triangle_Chess_4.jpg,left,1288.70000000461,true,NA,NA,NA,NA,NA,NA,NA,NA,true
tpnkfj47,3ac6mfv6anv2a7u5af0lkpxs80hhzh,3tycr1gotgw6jnbps2kl11mqbeglzn,tpnkfj47,2020-0188,2020-05-21,12:25:56,12:49:15,NA,incomplete,34,filling,1,right,Blue_Star_Dots_3.jpg,Purple_Star_Grid_2.jpg,Red_Plus_Dots_4.jpg,right,1312.675000008312,true,NA,NA,NA,NA,NA,NA,NA,NA,true
tpnkfj47,3ac6mfv6anv2a7u5af0lkpxs80hhzh,3tycr1gotgw6jnbps2kl11mqbeglzn,tpnkfj47,2020-0188,2020-05-21,12:25:56,12:49:15,NA,incomplete,35,filling,1,right,Purple_Triangle_Grid_2.jpg,Blue_Triangle_Stripes_3.jpg,Green_Plus_Grid_1.jpg,right,1497.10999999661,true,NA,NA,NA,NA,NA,NA,NA,NA,true
tpnkfj47,3ac6mfv6anv2a7u5af0lkpxs80hhzh,3tycr1gotgw6jnbps2kl11mqbeglzn,tpnkfj47,2020-0188,2020-05-21,12:25:56,12:49:15,NA,incomplete,36,filling,1,right,Blue_Plus_Dots_4.jpg,Green_Plus_Chess_3.jpg,Purple_Star_Dots_2.jpg,right,1410.1799999916693,true,NA,NA,NA,NA,NA,NA,NA,NA,true
tpnkfj47,3ac6mfv6anv2a7u5af0lkpxs80hhzh,3tycr1gotgw6jnbps2kl11mqbeglzn,tpnkfj47,2020-0188,2020-05-21,12:25:56,12:49:15,NA,incomplete,37,filling,1,left,Blue_Triangle_Grid_4.jpg,Green_Star_Grid_2.jpg,Purple_Triangle_Dots_1.jpg,left,1118.3650000020862,true,NA,NA,NA,NA,NA,NA,NA,NA,true
tpnkfj47,3ac6mfv6anv2a7u5af0lkpxs80hhzh,3tycr1gotgw6jnbps2kl11mqbeglzn,tpnkfj47,2020-0188,2020-05-21,12:25:56,12:49:15,NA,incomplete,38,filling,0,right,Green_Star_Dots_3.jpg,Blue_Star_Chess_2.jpg,Purple_Triangle_Dots_1.jpg,right,1213.2999999885214,true,NA,NA,NA,NA,NA,NA,NA,NA,true
tpnkfj47,3ac6mfv6anv2a7u5af0lkpxs80hhzh,3tycr1gotgw6jnbps2kl11mqbeglzn,tpnkfj47,2020-0188,2020-05-21,12:25:56,12:49:15,NA,incomplete,39,filling,1,left,Purple_Star_Stripes_4.jpg,Blue_Plus_Stripes_2.jpg,Green_Star_Grid_1.jpg,left,1065.374999991036,true,NA,NA,NA,NA,NA,NA,NA,NA,true
tpnkfj47,3ac6mfv6anv2a7u5af0lkpxs80hhzh,3tycr1gotgw6jnbps2kl11mqbeglzn,tpnkfj47,2020-0188,2020-05-21,12:25:56,12:49:15,NA,incomplete,0,shape,0,left,Blue_Star_Grid_3.jpg,Purple_Star_Stripes_4.jpg,Red_Circle_Grid_1.jpg,right,1002.1249999990687,false,high,NA,NA,NA,NA,NA,NA,NA,false
tpnkfj47,3ac6mfv6anv2a7u5af0lkpxs80hhzh,3tycr1gotgw6jnbps2kl11mqbeglzn,tpnkfj47,2020-0188,2020-05-21,12:25:56,12:49:15,NA,incomplete,1,shape,0,right,Purple_Circle_Dots_4.jpg,Red_Star_Dots_1.jpg,Green_Circle_Grid_2.jpg,left,901.2300000031246,false,high,NA,NA,NA,NA,NA,NA,NA,false
tpnkfj47,3ac6mfv6anv2a7u5af0lkpxs80hhzh,3tycr1gotgw6jnbps2kl11mqbeglzn,tpnkfj47,2020-0188,2020-05-21,12:25:56,12:49:15,NA,incomplete,2,shape,1,left,Red_Triangle_Grid_4.jpg,Purple_Triangle_Stripes_1.jpg,Blue_Circle_Grid_2.jpg,right,829.6799999952782,false,high,NA,NA,NA,NA,NA,NA,NA,false
tpnkfj47,3ac6mfv6anv2a7u5af0lkpxs80hhzh,3tycr1gotgw6jnbps2kl11mqbeglzn,tpnkfj47,2020-0188,2020-05-21,12:25:56,12:49:15,NA,incomplete,3,shape,1,left,Red_Circle_Grid_1.jpg,Purple_Circle_Stripes_2.jpg,Green_Plus_Grid_3.jpg,right,929.3199999956414,false,high,NA,NA,NA,NA,NA,NA,NA,false
tpnkfj47,3ac6mfv6anv2a7u5af0lkpxs80hhzh,3tycr1gotgw6jnbps2kl11mqbeglzn,tpnkfj47,2020-0188,2020-05-21,12:25:56,12:49:15,NA,incomplete,4,shape,0,right,Purple_Circle_Chess_3.jpg,Blue_Triangle_Chess_2.jpg,Green_Circle_Stripes_4.jpg,left,929.5549999951618,false,high,NA,NA,NA,NA,NA,NA,NA,false
tpnkfj47,3ac6mfv6anv2a7u5af0lkpxs80hhzh,3tycr1gotgw6jnbps2kl11mqbeglzn,tpnkfj47,2020-0188,2020-05-21,12:25:56,12:49:15,NA,incomplete,5,shape,1,left,Blue_Star_Dots_4.jpg,Green_Star_Stripes_2.jpg,Purple_Triangle_Dots_3.jpg,right,1008.2299999921815,false,high,NA,NA,NA,NA,NA,NA,NA,false
tpnkfj47,3ac6mfv6anv2a7u5af0lkpxs80hhzh,3tycr1gotgw6jnbps2kl11mqbeglzn,tpnkfj47,2020-0188,2020-05-21,12:25:56,12:49:15,NA,incomplete,6,shape,1,left,Purple_Triangle_Grid_1.jpg,Green_Triangle_Dots_3.jpg,Red_Star_Grid_4.jpg,left,884.9550000013551,true,high,NA,NA,NA,NA,NA,NA,NA,false
tpnkfj47,3ac6mfv6anv2a7u5af0lkpxs80hhzh,3tycr1gotgw6jnbps2kl11mqbeglzn,tpnkfj47,2020-0188,2020-05-21,12:25:56,12:49:15,NA,incomplete,7,shape,1,right,Blue_Triangle_Dots_2.jpg,Red_Plus_Dots_4.jpg,Purple_Triangle_Grid_3.jpg,right,861.510000002454,true,high,NA,NA,NA,NA,NA,NA,NA,false
tpnkfj47,3ac6mfv6anv2a7u5af0lkpxs80hhzh,3tycr1gotgw6jnbps2kl11mqbeglzn,tpnkfj47,2020-0188,2020-05-21,12:25:56,12:49:15,NA,incomplete,8,shape,1,left,Green_Circle_Dots_1.jpg,Purple_Circle_Chess_4.jpg,Blue_Star_Dots_2.jpg,left,847.2049999982119,true,high,NA,NA,NA,NA,NA,NA,NA,false
tpnkfj47,3ac6mfv6anv2a7u5af0lkpxs80hhzh,3tycr1gotgw6jnbps2kl11mqbeglzn,tpnkfj47,2020-0188,2020-05-21,12:25:56,12:49:15,NA,incomplete,9,shape,1,left,Blue_Star_Chess_3.jpg,Green_Star_Grid_2.jpg,Purple_Circle_Chess_1.jpg,left,698.6849999957485,true,high,NA,NA,NA,NA,NA,NA,NA,false
tpnkfj47,3ac6mfv6anv2a7u5af0lkpxs80hhzh,3tycr1gotgw6jnbps2kl11mqbeglzn,tpnkfj47,2020-0188,2020-05-21,12:25:56,12:49:15,NA,incomplete,10,filling,1,left,Red_Plus_Grid_2.jpg,Purple_Star_Grid_4.jpg,Blue_Plus_Stripes_3.jpg,right,748.0350000114413,false,high,NA,NA,NA,NA,NA,NA,NA,false
tpnkfj47,3ac6mfv6anv2a7u5af0lkpxs80hhzh,3tycr1gotgw6jnbps2kl11mqbeglzn,tpnkfj47,2020-0188,2020-05-21,12:25:56,12:49:15,NA,incomplete,11,filling,0,right,Green_Circle_Grid_1.jpg,Blue_Circle_Stripes_2.jpg,Purple_Star_Grid_4.jpg,left,754.0650000009919,false,high,NA,NA,NA,NA,NA,NA,NA,false
tpnkfj47,3ac6mfv6anv2a7u5af0lkpxs80hhzh,3tycr1gotgw6jnbps2kl11mqbeglzn,tpnkfj47,2020-0188,2020-05-21,12:25:56,12:49:15,NA,incomplete,12,filling,1,right,Green_Circle_Stripes_1.jpg,Red_Circle_Dots_3.jpg,Purple_Star_Stripes_2.jpg,left,689.0200000052573,false,high,NA,NA,NA,NA,NA,NA,NA,false
tpnkfj47,3ac6mfv6anv2a7u5af0lkpxs80hhzh,3tycr1gotgw6jnbps2kl11mqbeglzn,tpnkfj47,2020-0188,2020-05-21,12:25:56,12:49:15,NA,incomplete,13,filling,1,right,Purple_Plus_Chess_4.jpg,Green_Plus_Grid_2.jpg,Blue_Triangle_Chess_1.jpg,left,841.1749999941094,false,high,NA,NA,NA,NA,NA,NA,NA,false
tpnkfj47,3ac6mfv6anv2a7u5af0lkpxs80hhzh,3tycr1gotgw6jnbps2kl11mqbeglzn,tpnkfj47,2020-0188,2020-05-21,12:25:56,12:49:15,NA,incomplete,14,filling,0,left,Green_Circle_Chess_3.jpg,Purple_Triangle_Chess_4.jpg,Red_Circle_Grid_2.jpg,right,700.7049999956507,false,high,NA,NA,NA,NA,NA,NA,NA,false
tpnkfj47,3ac6mfv6anv2a7u5af0lkpxs80hhzh,3tycr1gotgw6jnbps2kl11mqbeglzn,tpnkfj47,2020-0188,2020-05-21,12:25:56,12:49:15,NA,incomplete,15,filling,1,right,Red_Plus_Grid_3.jpg,Purple_Plus_Chess_2.jpg,Green_Circle_Grid_4.jpg,left,773.1449999992037,false,high,NA,NA,NA,NA,NA,NA,NA,false
tpnkfj47,3ac6mfv6anv2a7u5af0lkpxs80hhzh,3tycr1gotgw6jnbps2kl11mqbeglzn,tpnkfj47,2020-0188,2020-05-21,12:25:56,12:49:15,NA,incomplete,16,filling,1,right,Red_Circle_Stripes_4.jpg,Green_Circle_Chess_1.jpg,Blue_Triangle_Stripes_2.jpg,right,1161.7799999949057,true,high,NA,NA,NA,NA,NA,NA,NA,false
tpnkfj47,3ac6mfv6anv2a7u5af0lkpxs80hhzh,3tycr1gotgw6jnbps2kl11mqbeglzn,tpnkfj47,2020-0188,2020-05-21,12:25:56,12:49:15,NA,incomplete,17,filling,1,left,Purple_Plus_Chess_2.jpg,Green_Triangle_Chess_4.jpg,Blue_Plus_Grid_1.jpg,left,928.1450000125915,true,high,NA,NA,NA,NA,NA,NA,NA,false
tpnkfj47,3ac6mfv6anv2a7u5af0lkpxs80hhzh,3tycr1gotgw6jnbps2kl11mqbeglzn,tpnkfj47,2020-0188,2020-05-21,12:25:56,12:49:15,NA,incomplete,18,filling,1,right,Red_Star_Chess_2.jpg,Purple_Star_Stripes_3.jpg,Green_Circle_Chess_1.jpg,right,919.7350000031292,true,high,NA,NA,NA,NA,NA,NA,NA,false
tpnkfj47,3ac6mfv6anv2a7u5af0lkpxs80hhzh,3tycr1gotgw6jnbps2kl11mqbeglzn,tpnkfj47,2020-0188,2020-05-21,12:25:56,12:49:15,NA,incomplete,19,filling,1,right,Purple_Plus_Stripes_3.jpg,Blue_Plus_Dots_2.jpg,Red_Circle_Stripes_4.jpg,right,992.0949999941513,true,high,NA,NA,NA,NA,NA,NA,NA,false
tpnkfj47,3ac6mfv6anv2a7u5af0lkpxs80hhzh,3tycr1gotgw6jnbps2kl11mqbeglzn,tpnkfj47,2020-0188,2020-05-21,12:25:56,12:49:15,NA,incomplete,20,shape,1,right,Purple_Star_Chess_1.jpg,Red_Plus_Chess_3.jpg,Green_Star_Stripes_4.jpg,left,956.3999999954831,false,high,NA,NA,NA,NA,NA,NA,NA,false
tpnkfj47,3ac6mfv6anv2a7u5af0lkpxs80hhzh,3tycr1gotgw6jnbps2kl11mqbeglzn,tpnkfj47,2020-0188,2020-05-21,12:25:56,12:49:15,NA,incomplete,21,shape,1,left,Purple_Plus_Chess_4.jpg,Blue_Plus_Stripes_2.jpg,Red_Star_Chess_1.jpg,left,698.6200000101235,true,high,NA,NA,NA,NA,NA,NA,NA,false
tpnkfj47,3ac6mfv6anv2a7u5af0lkpxs80hhzh,3tycr1gotgw6jnbps2kl11mqbeglzn,tpnkfj47,2020-0188,2020-05-21,12:25:56,12:49:15,NA,incomplete,22,shape,1,left,Red_Circle_Grid_4.jpg,Green_Circle_Dots_3.jpg,Purple_Plus_Grid_1.jpg,left,659.3149999971502,true,high,NA,NA,NA,NA,NA,NA,NA,false
tpnkfj47,3ac6mfv6anv2a7u5af0lkpxs80hhzh,3tycr1gotgw6jnbps2kl11mqbeglzn,tpnkfj47,2020-0188,2020-05-21,12:25:56,12:49:15,NA,incomplete,23,shape,1,right,Purple_Circle_Chess_1.jpg,Blue_Star_Chess_2.jpg,Green_Circle_Dots_3.jpg,right,637.5600000028498,true,high,NA,NA,NA,NA,NA,NA,NA,false
tpnkfj47,3ac6mfv6anv2a7u5af0lkpxs80hhzh,3tycr1gotgw6jnbps2kl11mqbeglzn,tpnkfj47,2020-0188,2020-05-21,12:25:56,12:49:15,NA,incomplete,24,shape,1,right,Red_Star_Dots_4.jpg,Purple_Circle_Dots_3.jpg,Green_Star_Grid_1.jpg,right,921.3500000041677,true,high,NA,NA,NA,NA,NA,NA,NA,false
tpnkfj47,3ac6mfv6anv2a7u5af0lkpxs80hhzh,3tycr1gotgw6jnbps2kl11mqbeglzn,tpnkfj47,2020-0188,2020-05-21,12:25:56,12:49:15,NA,incomplete,25,shape,1,right,Purple_Circle_Dots_4.jpg,Blue_Plus_Dots_3.jpg,Red_Circle_Stripes_1.jpg,right,695.7299999921815,true,high,NA,NA,NA,NA,NA,NA,NA,false
tpnkfj47,3ac6mfv6anv2a7u5af0lkpxs80hhzh,3tycr1gotgw6jnbps2kl11mqbeglzn,tpnkfj47,2020-0188,2020-05-21,12:25:56,12:49:15,NA,incomplete,26,shape,1,left,Green_Plus_Chess_1.jpg,Blue_Plus_Dots_2.jpg,Red_Circle_Chess_3.jpg,left,553.0050000088522,true,high,NA,NA,NA,NA,NA,NA,NA,false
tpnkfj47,3ac6mfv6anv2a7u5af0lkpxs80hhzh,3tycr1gotgw6jnbps2kl11mqbeglzn,tpnkfj47,2020-0188,2020-05-21,12:25:56,12:49:15,NA,incomplete,27,shape,1,right,Blue_Star_Stripes_3.jpg,Purple_Triangle_Stripes_2.jpg,Green_Star_Chess_4.jpg,right,727.5099999969825,true,high,NA,NA,NA,NA,NA,NA,NA,false
tpnkfj47,3ac6mfv6anv2a7u5af0lkpxs80hhzh,3tycr1gotgw6jnbps2kl11mqbeglzn,tpnkfj47,2020-0188,2020-05-21,12:25:56,12:49:15,NA,incomplete,28,shape,1,left,Green_Triangle_Dots_2.jpg,Purple_Triangle_Stripes_1.jpg,Red_Star_Dots_3.jpg,left,663.2799999933923,true,high,NA,NA,NA,NA,NA,NA,NA,false
tpnkfj47,3ac6mfv6anv2a7u5af0lkpxs80hhzh,3tycr1gotgw6jnbps2kl11mqbeglzn,tpnkfj47,2020-0188,2020-05-21,12:25:56,12:49:15,NA,incomplete,29,shape,1,left,Purple_Star_Dots_3.jpg,Blue_Star_Stripes_1.jpg,Green_Triangle_Dots_4.jpg,left,657.2150000138208,true,high,NA,NA,NA,NA,NA,NA,NA,false
tpnkfj47,3ac6mfv6anv2a7u5af0lkpxs80hhzh,3tycr1gotgw6jnbps2kl11mqbeglzn,tpnkfj47,2020-0188,2020-05-21,12:25:56,12:49:15,NA,incomplete,30,filling,1,left,Blue_Triangle_Dots_1.jpg,Purple_Circle_Dots_4.jpg,Green_Triangle_Grid_3.jpg,right,546.5350000013132,false,high,NA,NA,NA,NA,NA,NA,NA,false
tpnkfj47,3ac6mfv6anv2a7u5af0lkpxs80hhzh,3tycr1gotgw6jnbps2kl11mqbeglzn,tpnkfj47,2020-0188,2020-05-21,12:25:56,12:49:15,NA,incomplete,31,filling,1,right,Red_Circle_Grid_4.jpg,Green_Circle_Chess_3.jpg,Blue_Triangle_Grid_1.jpg,right,865.5300000100397,true,high,NA,NA,NA,NA,NA,NA,NA,false
tpnkfj47,3ac6mfv6anv2a7u5af0lkpxs80hhzh,3tycr1gotgw6jnbps2kl11mqbeglzn,tpnkfj47,2020-0188,2020-05-21,12:25:56,12:49:15,NA,incomplete,32,filling,1,left,Blue_Triangle_Stripes_1.jpg,Purple_Star_Stripes_2.jpg,Green_Triangle_Grid_3.jpg,left,915.8900000038557,true,high,NA,NA,NA,NA,NA,NA,NA,false
tpnkfj47,3ac6mfv6anv2a7u5af0lkpxs80hhzh,3tycr1gotgw6jnbps2kl11mqbeglzn,tpnkfj47,2020-0188,2020-05-21,12:25:56,12:49:15,NA,incomplete,33,filling,1,left,Green_Plus_Stripes_4.jpg,Red_Triangle_Stripes_2.jpg,Blue_Plus_Dots_1.jpg,left,787.7650000009453,true,high,NA,NA,NA,NA,NA,NA,NA,false
tpnkfj47,3ac6mfv6anv2a7u5af0lkpxs80hhzh,3tycr1gotgw6jnbps2kl11mqbeglzn,tpnkfj47,2020-0188,2020-05-21,12:25:56,12:49:15,NA,incomplete,34,filling,1,left,Blue_Plus_Dots_1.jpg,Red_Triangle_Dots_4.jpg,Green_Plus_Chess_3.jpg,left,883.2400000101188,true,high,NA,NA,NA,NA,NA,NA,NA,false
tpnkfj47,3ac6mfv6anv2a7u5af0lkpxs80hhzh,3tycr1gotgw6jnbps2kl11mqbeglzn,tpnkfj47,2020-0188,2020-05-21,12:25:56,12:49:15,NA,incomplete,35,filling,1,right,Red_Plus_Stripes_3.jpg,Purple_Plus_Chess_4.jpg,Blue_Triangle_Stripes_1.jpg,right,850.285000007716,true,high,NA,NA,NA,NA,NA,NA,NA,false
tpnkfj47,3ac6mfv6anv2a7u5af0lkpxs80hhzh,3tycr1gotgw6jnbps2kl11mqbeglzn,tpnkfj47,2020-0188,2020-05-21,12:25:56,12:49:15,NA,incomplete,36,filling,1,left,Red_Circle_Chess_3.jpg,Green_Triangle_Chess_1.jpg,Blue_Circle_Grid_2.jpg,left,829.0049999923212,true,high,NA,NA,NA,NA,NA,NA,NA,false
tpnkfj47,3ac6mfv6anv2a7u5af0lkpxs80hhzh,3tycr1gotgw6jnbps2kl11mqbeglzn,tpnkfj47,2020-0188,2020-05-21,12:25:56,12:49:15,NA,incomplete,37,filling,1,right,Blue_Plus_Stripes_3.jpg,Green_Plus_Grid_4.jpg,Red_Star_Stripes_2.jpg,right,1249.5699999999488,true,high,NA,NA,NA,NA,NA,NA,NA,false
tpnkfj47,3ac6mfv6anv2a7u5af0lkpxs80hhzh,3tycr1gotgw6jnbps2kl11mqbeglzn,tpnkfj47,2020-0188,2020-05-21,12:25:56,12:49:15,NA,incomplete,38,filling,1,left,Red_Plus_Dots_3.jpg,Purple_Star_Dots_2.jpg,Blue_Plus_Stripes_1.jpg,left,972.5099999923259,true,high,NA,NA,NA,NA,NA,NA,NA,false
tpnkfj47,3ac6mfv6anv2a7u5af0lkpxs80hhzh,3tycr1gotgw6jnbps2kl11mqbeglzn,tpnkfj47,2020-0188,2020-05-21,12:25:56,12:49:15,NA,incomplete,39,filling,1,left,Blue_Circle_Grid_2.jpg,Red_Plus_Grid_4.jpg,Purple_Circle_Chess_1.jpg,left,802.0649999962188,true,high,NA,NA,NA,NA,NA,NA,NA,false
tpnkfj47,3ac6mfv6anv2a7u5af0lkpxs80hhzh,3tycr1gotgw6jnbps2kl11mqbeglzn,tpnkfj47,2020-0188,2020-05-21,12:25:56,12:49:15,NA,incomplete,40,shape,0,left,Blue_Circle_Chess_3.jpg,Purple_Circle_Grid_2.jpg,Green_Triangle_Chess_1.jpg,right,917.6399999996647,false,high,NA,NA,NA,NA,NA,NA,NA,false
tpnkfj47,3ac6mfv6anv2a7u5af0lkpxs80hhzh,3tycr1gotgw6jnbps2kl11mqbeglzn,tpnkfj47,2020-0188,2020-05-21,12:25:56,12:49:15,NA,incomplete,41,shape,1,left,Green_Triangle_Stripes_1.jpg,Blue_Triangle_Dots_2.jpg,Red_Star_Stripes_4.jpg,right,1020.0199999962933,false,high,NA,NA,NA,NA,NA,NA,NA,false
tpnkfj47,3ac6mfv6anv2a7u5af0lkpxs80hhzh,3tycr1gotgw6jnbps2kl11mqbeglzn,tpnkfj47,2020-0188,2020-05-21,12:25:56,12:49:15,NA,incomplete,42,shape,0,left,Red_Plus_Grid_3.jpg,Green_Plus_Chess_2.jpg,Blue_Triangle_Grid_1.jpg,left,680.7049999915762,true,high,NA,NA,NA,NA,NA,NA,NA,false
tpnkfj47,3ac6mfv6anv2a7u5af0lkpxs80hhzh,3tycr1gotgw6jnbps2kl11mqbeglzn,tpnkfj47,2020-0188,2020-05-21,12:25:56,12:49:15,NA,incomplete,43,shape,0,right,Green_Star_Grid_3.jpg,Purple_Plus_Grid_2.jpg,Red_Star_Chess_4.jpg,left,874.6550000068964,false,high,NA,NA,NA,NA,NA,NA,NA,false
tpnkfj47,3ac6mfv6anv2a7u5af0lkpxs80hhzh,3tycr1gotgw6jnbps2kl11mqbeglzn,tpnkfj47,2020-0188,2020-05-21,12:25:56,12:49:15,NA,incomplete,44,shape,0,left,Blue_Plus_Stripes_4.jpg,Red_Plus_Grid_2.jpg,Purple_Triangle_Stripes_3.jpg,right,836.8250000057742,false,high,NA,NA,NA,NA,NA,NA,NA,false
tpnkfj47,3ac6mfv6anv2a7u5af0lkpxs80hhzh,3tycr1gotgw6jnbps2kl11mqbeglzn,tpnkfj47,2020-0188,2020-05-21,12:25:56,12:49:15,NA,incomplete,45,shape,1,left,Purple_Plus_Grid_3.jpg,Red_Plus_Dots_2.jpg,Blue_Circle_Grid_1.jpg,right,823.3900000050198,false,high,NA,NA,NA,NA,NA,NA,NA,false
tpnkfj47,3ac6mfv6anv2a7u5af0lkpxs80hhzh,3tycr1gotgw6jnbps2kl11mqbeglzn,tpnkfj47,2020-0188,2020-05-21,12:25:56,12:49:15,NA,incomplete,46,shape,1,left,Blue_Circle_Grid_2.jpg,Purple_Circle_Chess_3.jpg,Red_Star_Grid_4.jpg,left,626.349999991362,true,high,NA,NA,NA,NA,NA,NA,NA,false
tpnkfj47,3ac6mfv6anv2a7u5af0lkpxs80hhzh,3tycr1gotgw6jnbps2kl11mqbeglzn,tpnkfj47,2020-0188,2020-05-21,12:25:56,12:49:15,NA,incomplete,47,shape,0,left,Blue_Triangle_Grid_1.jpg,Green_Triangle_Stripes_4.jpg,Red_Plus_Grid_2.jpg,left,646.1550000094576,true,high,NA,NA,NA,NA,NA,NA,NA,false
tpnkfj47,3ac6mfv6anv2a7u5af0lkpxs80hhzh,3tycr1gotgw6jnbps2kl11mqbeglzn,tpnkfj47,2020-0188,2020-05-21,12:25:56,12:49:15,NA,incomplete,48,shape,1,left,Purple_Triangle_Dots_1.jpg,Red_Triangle_Chess_4.jpg,Green_Plus_Dots_3.jpg,right,1297.6249999919673,false,high,NA,NA,NA,NA,NA,NA,NA,false
tpnkfj47,3ac6mfv6anv2a7u5af0lkpxs80hhzh,3tycr1gotgw6jnbps2kl11mqbeglzn,tpnkfj47,2020-0188,2020-05-21,12:25:56,12:49:15,NA,incomplete,49,shape,1,right,Blue_Star_Stripes_1.jpg,Red_Plus_Stripes_3.jpg,Green_Star_Chess_2.jpg,right,1097.154999995837,true,high,NA,NA,NA,NA,NA,NA,NA,false
tpnkfj47,3ac6mfv6anv2a7u5af0lkpxs80hhzh,3tycr1gotgw6jnbps2kl11mqbeglzn,tpnkfj47,2020-0188,2020-05-21,12:25:56,12:49:15,NA,incomplete,50,filling,0,right,Red_Triangle_Chess_4.jpg,Purple_Triangle_Grid_1.jpg,Blue_Circle_Chess_2.jpg,left,578.2650000037393,false,high,NA,NA,NA,NA,NA,NA,NA,false
tpnkfj47,3ac6mfv6anv2a7u5af0lkpxs80hhzh,3tycr1gotgw6jnbps2kl11mqbeglzn,tpnkfj47,2020-0188,2020-05-21,12:25:56,12:49:15,NA,incomplete,51,filling,1,right,Red_Triangle_Grid_3.jpg,Green_Triangle_Dots_1.jpg,Purple_Plus_Grid_2.jpg,left,696.5650000056485,false,high,NA,NA,NA,NA,NA,NA,NA,false
tpnkfj47,3ac6mfv6anv2a7u5af0lkpxs80hhzh,3tycr1gotgw6jnbps2kl11mqbeglzn,tpnkfj47,2020-0188,2020-05-21,12:25:56,12:49:15,NA,incomplete,52,filling,1,right,Blue_Plus_Dots_2.jpg,Purple_Plus_Chess_3.jpg,Green_Star_Dots_1.jpg,right,985.7600000104867,true,high,NA,NA,NA,NA,NA,NA,NA,false
tpnkfj47,3ac6mfv6anv2a7u5af0lkpxs80hhzh,3tycr1gotgw6jnbps2kl11mqbeglzn,tpnkfj47,2020-0188,2020-05-21,12:25:56,12:49:15,NA,incomplete,53,filling,1,right,Blue_Triangle_Chess_1.jpg,Purple_Triangle_Stripes_2.jpg,Red_Star_Chess_4.jpg,right,1030.0599999900442,true,high,NA,NA,NA,NA,NA,NA,NA,false
tpnkfj47,3ac6mfv6anv2a7u5af0lkpxs80hhzh,3tycr1gotgw6jnbps2kl11mqbeglzn,tpnkfj47,2020-0188,2020-05-21,12:25:56,12:49:15,NA,incomplete,54,filling,1,left,Blue_Circle_Stripes_3.jpg,Red_Triangle_Stripes_2.jpg,Purple_Circle_Chess_1.jpg,left,793.6599999957252,true,high,NA,NA,NA,NA,NA,NA,NA,false
tpnkfj47,3ac6mfv6anv2a7u5af0lkpxs80hhzh,3tycr1gotgw6jnbps2kl11mqbeglzn,tpnkfj47,2020-0188,2020-05-21,12:25:56,12:49:15,NA,incomplete,55,filling,1,left,Green_Plus_Dots_4.jpg,Purple_Triangle_Dots_2.jpg,Blue_Plus_Stripes_3.jpg,left,997.7800000051502,true,high,NA,NA,NA,NA,NA,NA,NA,false
tpnkfj47,3ac6mfv6anv2a7u5af0lkpxs80hhzh,3tycr1gotgw6jnbps2kl11mqbeglzn,tpnkfj47,2020-0188,2020-05-21,12:25:56,12:49:15,NA,incomplete,56,filling,1,right,Purple_Circle_Chess_1.jpg,Red_Circle_Grid_3.jpg,Green_Triangle_Chess_2.jpg,right,754.4049999996787,true,high,NA,NA,NA,NA,NA,NA,NA,false
tpnkfj47,3ac6mfv6anv2a7u5af0lkpxs80hhzh,3tycr1gotgw6jnbps2kl11mqbeglzn,tpnkfj47,2020-0188,2020-05-21,12:25:56,12:49:15,NA,incomplete,57,filling,1,left,Green_Circle_Chess_3.jpg,Blue_Plus_Chess_2.jpg,Purple_Circle_Stripes_4.jpg,left,896.7399999964982,true,high,NA,NA,NA,NA,NA,NA,NA,false
tpnkfj47,3ac6mfv6anv2a7u5af0lkpxs80hhzh,3tycr1gotgw6jnbps2kl11mqbeglzn,tpnkfj47,2020-0188,2020-05-21,12:25:56,12:49:15,NA,incomplete,58,filling,1,right,Blue_Star_Stripes_1.jpg,Red_Star_Chess_3.jpg,Purple_Triangle_Stripes_2.jpg,right,810.9550000081072,true,high,NA,NA,NA,NA,NA,NA,NA,false
tpnkfj47,3ac6mfv6anv2a7u5af0lkpxs80hhzh,3tycr1gotgw6jnbps2kl11mqbeglzn,tpnkfj47,2020-0188,2020-05-21,12:25:56,12:49:15,NA,incomplete,59,filling,1,left,Purple_Star_Chess_2.jpg,Green_Plus_Chess_1.jpg,Blue_Star_Stripes_4.jpg,left,1008.5299999918789,true,high,NA,NA,NA,NA,NA,NA,NA,false
tpnkfj47,3ac6mfv6anv2a7u5af0lkpxs80hhzh,3tycr1gotgw6jnbps2kl11mqbeglzn,tpnkfj47,2020-0188,2020-05-21,12:25:56,12:49:15,NA,incomplete,60,shape,1,left,Red_Triangle_Chess_1.jpg,Green_Triangle_Stripes_2.jpg,Blue_Plus_Chess_3.jpg,right,892.0400000060908,false,high,NA,NA,NA,NA,NA,NA,NA,false
tpnkfj47,3ac6mfv6anv2a7u5af0lkpxs80hhzh,3tycr1gotgw6jnbps2kl11mqbeglzn,tpnkfj47,2020-0188,2020-05-21,12:25:56,12:49:15,NA,incomplete,61,shape,1,left,Green_Circle_Chess_1.jpg,Purple_Circle_Dots_4.jpg,Blue_Plus_Chess_2.jpg,left,682.9449999931967,true,high,NA,NA,NA,NA,NA,NA,NA,false
tpnkfj47,3ac6mfv6anv2a7u5af0lkpxs80hhzh,3tycr1gotgw6jnbps2kl11mqbeglzn,tpnkfj47,2020-0188,2020-05-21,12:25:56,12:49:15,NA,incomplete,62,shape,1,left,Green_Circle_Grid_3.jpg,Red_Circle_Chess_4.jpg,Blue_Plus_Grid_2.jpg,left,668.8850000064122,true,high,NA,NA,NA,NA,NA,NA,NA,false
tpnkfj47,3ac6mfv6anv2a7u5af0lkpxs80hhzh,3tycr1gotgw6jnbps2kl11mqbeglzn,tpnkfj47,2020-0188,2020-05-21,12:25:56,12:49:15,NA,incomplete,63,shape,1,left,Green_Star_Dots_1.jpg,Red_Star_Grid_2.jpg,Blue_Circle_Dots_3.jpg,left,685.540000005858,true,high,NA,NA,NA,NA,NA,NA,NA,false
tpnkfj47,3ac6mfv6anv2a7u5af0lkpxs80hhzh,3tycr1gotgw6jnbps2kl11mqbeglzn,tpnkfj47,2020-0188,2020-05-21,12:25:56,12:49:15,NA,incomplete,64,shape,0,left,Green_Star_Dots_1.jpg,Red_Star_Stripes_4.jpg,Purple_Plus_Dots_2.jpg,left,784.2249999957858,true,high,NA,NA,NA,NA,NA,NA,NA,false
tpnkfj47,3ac6mfv6anv2a7u5af0lkpxs80hhzh,3tycr1gotgw6jnbps2kl11mqbeglzn,tpnkfj47,2020-0188,2020-05-21,12:25:56,12:49:15,NA,incomplete,65,shape,1,left,Red_Triangle_Grid_2.jpg,Blue_Triangle_Dots_3.jpg,Green_Plus_Grid_1.jpg,right,956.1650000105146,false,high,NA,NA,NA,NA,NA,NA,NA,false
tpnkfj47,3ac6mfv6anv2a7u5af0lkpxs80hhzh,3tycr1gotgw6jnbps2kl11mqbeglzn,tpnkfj47,2020-0188,2020-05-21,12:25:56,12:49:15,NA,incomplete,66,shape,0,left,Green_Circle_Dots_2.jpg,Red_Circle_Grid_1.jpg,Blue_Star_Dots_4.jpg,left,619.0000000060536,true,high,NA,NA,NA,NA,NA,NA,NA,false
tpnkfj47,3ac6mfv6anv2a7u5af0lkpxs80hhzh,3tycr1gotgw6jnbps2kl11mqbeglzn,tpnkfj47,2020-0188,2020-05-21,12:25:56,12:49:15,NA,incomplete,67,shape,1,left,Red_Star_Chess_3.jpg,Green_Star_Grid_4.jpg,Blue_Circle_Chess_2.jpg,right,1135.0950000050943,false,high,NA,NA,NA,NA,NA,NA,NA,false
tpnkfj47,3ac6mfv6anv2a7u5af0lkpxs80hhzh,3tycr1gotgw6jnbps2kl11mqbeglzn,tpnkfj47,2020-0188,2020-05-21,12:25:56,12:49:15,NA,incomplete,68,shape,1,right,Green_Plus_Chess_1.jpg,Purple_Star_Chess_2.jpg,Red_Plus_Stripes_3.jpg,left,1157.0899999933317,false,high,NA,NA,NA,NA,NA,NA,NA,false
tpnkfj47,3ac6mfv6anv2a7u5af0lkpxs80hhzh,3tycr1gotgw6jnbps2kl11mqbeglzn,tpnkfj47,2020-0188,2020-05-21,12:25:56,12:49:15,NA,incomplete,69,shape,0,left,Blue_Triangle_Stripes_2.jpg,Green_Triangle_Chess_4.jpg,Purple_Star_Stripes_3.jpg,left,587.7250000048662,true,high,NA,NA,NA,NA,NA,NA,NA,false
tpnkfj47,3ac6mfv6anv2a7u5af0lkpxs80hhzh,3tycr1gotgw6jnbps2kl11mqbeglzn,tpnkfj47,2020-0188,2020-05-21,12:25:56,12:49:15,NA,incomplete,70,filling,1,left,Blue_Star_Stripes_3.jpg,Green_Triangle_Stripes_1.jpg,Purple_Star_Dots_2.jpg,right,1135.840000002645,false,high,NA,NA,NA,NA,NA,NA,NA,false
tpnkfj47,3ac6mfv6anv2a7u5af0lkpxs80hhzh,3tycr1gotgw6jnbps2kl11mqbeglzn,tpnkfj47,2020-0188,2020-05-21,12:25:56,12:49:15,NA,incomplete,71,filling,0,left,Red_Star_Dots_2.jpg,Blue_Triangle_Dots_3.jpg,Green_Star_Chess_4.jpg,left,1038.509999998496,true,high,NA,NA,NA,NA,NA,NA,NA,false
tpnkfj47,3ac6mfv6anv2a7u5af0lkpxs80hhzh,3tycr1gotgw6jnbps2kl11mqbeglzn,tpnkfj47,2020-0188,2020-05-21,12:25:56,12:49:15,NA,incomplete,72,filling,1,right,Purple_Star_Grid_2.jpg,Red_Star_Chess_3.jpg,Blue_Plus_Grid_4.jpg,left,937.6499999925727,false,high,NA,NA,NA,NA,NA,NA,NA,false
tpnkfj47,3ac6mfv6anv2a7u5af0lkpxs80hhzh,3tycr1gotgw6jnbps2kl11mqbeglzn,tpnkfj47,2020-0188,2020-05-21,12:25:56,12:49:15,NA,incomplete,73,filling,1,right,Purple_Circle_Stripes_2.jpg,Red_Circle_Dots_3.jpg,Blue_Plus_Stripes_1.jpg,left,1162.0399999956135,false,high,NA,NA,NA,NA,NA,NA,NA,false
tpnkfj47,3ac6mfv6anv2a7u5af0lkpxs80hhzh,3tycr1gotgw6jnbps2kl11mqbeglzn,tpnkfj47,2020-0188,2020-05-21,12:25:56,12:49:15,NA,incomplete,74,filling,1,left,Red_Circle_Chess_3.jpg,Blue_Plus_Chess_2.jpg,Green_Circle_Stripes_1.jpg,right,1438.6450000019977,false,high,NA,NA,NA,NA,NA,NA,NA,false
tpnkfj47,3ac6mfv6anv2a7u5af0lkpxs80hhzh,3tycr1gotgw6jnbps2kl11mqbeglzn,tpnkfj47,2020-0188,2020-05-21,12:25:56,12:49:15,NA,incomplete,75,filling,1,right,Red_Triangle_Chess_1.jpg,Blue_Triangle_Dots_2.jpg,Purple_Star_Chess_4.jpg,right,1025.565000003553,true,high,NA,NA,NA,NA,NA,NA,NA,false
tpnkfj47,3ac6mfv6anv2a7u5af0lkpxs80hhzh,3tycr1gotgw6jnbps2kl11mqbeglzn,tpnkfj47,2020-0188,2020-05-21,12:25:56,12:49:15,NA,incomplete,76,filling,1,right,Purple_Plus_Chess_4.jpg,Green_Plus_Stripes_3.jpg,Blue_Triangle_Chess_1.jpg,right,1156.97499999078,true,high,NA,NA,NA,NA,NA,NA,NA,false
tpnkfj47,3ac6mfv6anv2a7u5af0lkpxs80hhzh,3tycr1gotgw6jnbps2kl11mqbeglzn,tpnkfj47,2020-0188,2020-05-21,12:25:56,12:49:15,NA,incomplete,77,filling,0,left,Red_Circle_Chess_3.jpg,Purple_Star_Chess_2.jpg,Blue_Circle_Dots_4.jpg,left,918.2200000068406,true,high,NA,NA,NA,NA,NA,NA,NA,false
tpnkfj47,3ac6mfv6anv2a7u5af0lkpxs80hhzh,3tycr1gotgw6jnbps2kl11mqbeglzn,tpnkfj47,2020-0188,2020-05-21,12:25:56,12:49:15,NA,incomplete,78,filling,0,right,Green_Plus_Grid_4.jpg,Blue_Plus_Dots_3.jpg,Red_Triangle_Grid_2.jpg,right,876.4149999915389,true,high,NA,NA,NA,NA,NA,NA,NA,false
tpnkfj47,3ac6mfv6anv2a7u5af0lkpxs80hhzh,3tycr1gotgw6jnbps2kl11mqbeglzn,tpnkfj47,2020-0188,2020-05-21,12:25:56,12:49:15,NA,incomplete,79,filling,1,left,Purple_Circle_Chess_1.jpg,Green_Star_Chess_4.jpg,Blue_Circle_Stripes_2.jpg,left,972.9499999957625,true,high,NA,NA,NA,NA,NA,NA,NA,false
tpnkfj47,3ac6mfv6anv2a7u5af0lkpxs80hhzh,3tycr1gotgw6jnbps2kl11mqbeglzn,tpnkfj47,2020-0188,2020-05-21,12:25:56,12:49:15,NA,incomplete,80,shape,0,right,Red_Star_Grid_1.jpg,Green_Triangle_Grid_4.jpg,Blue_Star_Stripes_3.jpg,left,1066.4099999994505,false,high,NA,NA,NA,NA,NA,NA,NA,false
tpnkfj47,3ac6mfv6anv2a7u5af0lkpxs80hhzh,3tycr1gotgw6jnbps2kl11mqbeglzn,tpnkfj47,2020-0188,2020-05-21,12:25:56,12:49:15,NA,incomplete,81,shape,1,right,Blue_Triangle_Chess_2.jpg,Green_Circle_Chess_4.jpg,Red_Triangle_Grid_1.jpg,left,828.5199999954784,false,high,NA,NA,NA,NA,NA,NA,NA,false
tpnkfj47,3ac6mfv6anv2a7u5af0lkpxs80hhzh,3tycr1gotgw6jnbps2kl11mqbeglzn,tpnkfj47,2020-0188,2020-05-21,12:25:56,12:49:15,NA,incomplete,82,shape,1,left,Red_Triangle_Stripes_1.jpg,Blue_Triangle_Chess_4.jpg,Purple_Plus_Stripes_2.jpg,right,944.6900000039022,false,high,NA,NA,NA,NA,NA,NA,NA,false
tpnkfj47,3ac6mfv6anv2a7u5af0lkpxs80hhzh,3tycr1gotgw6jnbps2kl11mqbeglzn,tpnkfj47,2020-0188,2020-05-21,12:25:56,12:49:15,NA,incomplete,83,shape,1,left,Green_Circle_Chess_1.jpg,Purple_Circle_Dots_2.jpg,Red_Triangle_Chess_3.jpg,right,830.549999998766,false,high,NA,NA,NA,NA,NA,NA,NA,false
tpnkfj47,3ac6mfv6anv2a7u5af0lkpxs80hhzh,3tycr1gotgw6jnbps2kl11mqbeglzn,tpnkfj47,2020-0188,2020-05-21,12:25:56,12:49:15,NA,incomplete,84,shape,1,left,Red_Star_Chess_3.jpg,Green_Star_Stripes_1.jpg,Blue_Circle_Chess_4.jpg,left,1731.2199999869335,true,high,NA,NA,NA,NA,NA,NA,NA,false
tpnkfj47,3ac6mfv6anv2a7u5af0lkpxs80hhzh,3tycr1gotgw6jnbps2kl11mqbeglzn,tpnkfj47,2020-0188,2020-05-21,12:25:56,12:49:15,NA,incomplete,85,shape,1,left,Green_Plus_Grid_4.jpg,Blue_Plus_Dots_2.jpg,Purple_Triangle_Grid_1.jpg,left,817.655000006198,true,high,NA,NA,NA,NA,NA,NA,NA,false
tpnkfj47,3ac6mfv6anv2a7u5af0lkpxs80hhzh,3tycr1gotgw6jnbps2kl11mqbeglzn,tpnkfj47,2020-0188,2020-05-21,12:25:56,12:49:15,NA,incomplete,86,shape,1,right,Green_Star_Stripes_2.jpg,Red_Plus_Stripes_1.jpg,Blue_Star_Chess_4.jpg,right,702.4999999994179,true,high,NA,NA,NA,NA,NA,NA,NA,false
tpnkfj47,3ac6mfv6anv2a7u5af0lkpxs80hhzh,3tycr1gotgw6jnbps2kl11mqbeglzn,tpnkfj47,2020-0188,2020-05-21,12:25:56,12:49:15,NA,incomplete,87,shape,1,left,Purple_Star_Dots_1.jpg,Blue_Star_Chess_2.jpg,Green_Triangle_Dots_4.jpg,left,845.6149999983609,true,high,NA,NA,NA,NA,NA,NA,NA,false
tpnkfj47,3ac6mfv6anv2a7u5af0lkpxs80hhzh,3tycr1gotgw6jnbps2kl11mqbeglzn,tpnkfj47,2020-0188,2020-05-21,12:25:56,12:49:15,NA,incomplete,88,shape,1,left,Purple_Triangle_Grid_3.jpg,Red_Triangle_Chess_4.jpg,Blue_Circle_Grid_2.jpg,left,672.5250000017695,true,high,NA,NA,NA,NA,NA,NA,NA,false
tpnkfj47,3ac6mfv6anv2a7u5af0lkpxs80hhzh,3tycr1gotgw6jnbps2kl11mqbeglzn,tpnkfj47,2020-0188,2020-05-21,12:25:56,12:49:15,NA,incomplete,89,shape,1,right,Blue_Plus_Stripes_1.jpg,Red_Circle_Stripes_2.jpg,Green_Plus_Chess_4.jpg,right,682.0049999951152,true,high,NA,NA,NA,NA,NA,NA,NA,false
tpnkfj47,3ac6mfv6anv2a7u5af0lkpxs80hhzh,3tycr1gotgw6jnbps2kl11mqbeglzn,tpnkfj47,2020-0188,2020-05-21,12:25:56,12:49:15,NA,incomplete,90,filling,1,right,Green_Circle_Chess_4.jpg,Red_Circle_Grid_1.jpg,Purple_Star_Chess_3.jpg,left,668.5699999943608,false,high,NA,NA,NA,NA,NA,NA,NA,false
tpnkfj47,3ac6mfv6anv2a7u5af0lkpxs80hhzh,3tycr1gotgw6jnbps2kl11mqbeglzn,tpnkfj47,2020-0188,2020-05-21,12:25:56,12:49:15,NA,incomplete,91,filling,1,left,Blue_Plus_Grid_3.jpg,Red_Circle_Grid_1.jpg,Green_Plus_Stripes_2.jpg,left,806.6300000064075,true,high,NA,NA,NA,NA,NA,NA,NA,false
tpnkfj47,3ac6mfv6anv2a7u5af0lkpxs80hhzh,3tycr1gotgw6jnbps2kl11mqbeglzn,tpnkfj47,2020-0188,2020-05-21,12:25:56,12:49:15,NA,incomplete,92,filling,1,right,Blue_Circle_Grid_4.jpg,Purple_Circle_Dots_1.jpg,Green_Star_Grid_3.jpg,right,914.055000001099,true,high,NA,NA,NA,NA,NA,NA,NA,false
tpnkfj47,3ac6mfv6anv2a7u5af0lkpxs80hhzh,3tycr1gotgw6jnbps2kl11mqbeglzn,tpnkfj47,2020-0188,2020-05-21,12:25:56,12:49:15,NA,incomplete,93,filling,0,right,Red_Circle_Grid_4.jpg,Blue_Circle_Dots_1.jpg,Green_Plus_Grid_3.jpg,right,962.6649999991059,true,high,NA,NA,NA,NA,NA,NA,NA,false
tpnkfj47,3ac6mfv6anv2a7u5af0lkpxs80hhzh,3tycr1gotgw6jnbps2kl11mqbeglzn,tpnkfj47,2020-0188,2020-05-21,12:25:56,12:49:15,NA,incomplete,94,filling,1,right,Green_Star_Stripes_3.jpg,Red_Star_Dots_2.jpg,Purple_Plus_Stripes_1.jpg,right,1072.4300000001676,true,high,NA,NA,NA,NA,NA,NA,NA,false
tpnkfj47,3ac6mfv6anv2a7u5af0lkpxs80hhzh,3tycr1gotgw6jnbps2kl11mqbeglzn,tpnkfj47,2020-0188,2020-05-21,12:25:56,12:49:15,NA,incomplete,95,filling,1,right,Red_Plus_Chess_4.jpg,Purple_Plus_Grid_3.jpg,Green_Circle_Chess_2.jpg,right,1108.009999996284,true,high,NA,NA,NA,NA,NA,NA,NA,false
tpnkfj47,3ac6mfv6anv2a7u5af0lkpxs80hhzh,3tycr1gotgw6jnbps2kl11mqbeglzn,tpnkfj47,2020-0188,2020-05-21,12:25:56,12:49:15,NA,incomplete,96,filling,1,left,Purple_Plus_Dots_3.jpg,Green_Triangle_Dots_4.jpg,Red_Plus_Stripes_2.jpg,left,1065.5799999949522,true,high,NA,NA,NA,NA,NA,NA,NA,false
tpnkfj47,3ac6mfv6anv2a7u5af0lkpxs80hhzh,3tycr1gotgw6jnbps2kl11mqbeglzn,tpnkfj47,2020-0188,2020-05-21,12:25:56,12:49:15,NA,incomplete,97,filling,1,left,Purple_Circle_Chess_3.jpg,Green_Star_Chess_4.jpg,Blue_Circle_Dots_2.jpg,left,964.4200000038836,true,high,NA,NA,NA,NA,NA,NA,NA,false
tpnkfj47,3ac6mfv6anv2a7u5af0lkpxs80hhzh,3tycr1gotgw6jnbps2kl11mqbeglzn,tpnkfj47,2020-0188,2020-05-21,12:25:56,12:49:15,NA,incomplete,98,filling,1,left,Red_Star_Stripes_2.jpg,Blue_Triangle_Stripes_3.jpg,Purple_Star_Grid_1.jpg,left,1186.6199999931268,true,high,NA,NA,NA,NA,NA,NA,NA,false
tpnkfj47,3ac6mfv6anv2a7u5af0lkpxs80hhzh,3tycr1gotgw6jnbps2kl11mqbeglzn,tpnkfj47,2020-0188,2020-05-21,12:25:56,12:49:15,NA,incomplete,99,filling,1,left,Red_Triangle_Grid_1.jpg,Purple_Circle_Grid_4.jpg,Blue_Triangle_Dots_3.jpg,left,935.9350000013364,true,high,NA,NA,NA,NA,NA,NA,NA,false
tpnkfj47,3ac6mfv6anv2a7u5af0lkpxs80hhzh,3tycr1gotgw6jnbps2kl11mqbeglzn,tpnkfj47,2020-0188,2020-05-21,12:25:56,12:49:15,NA,incomplete,100,shape,1,right,Purple_Triangle_Grid_3.jpg,Red_Star_Grid_2.jpg,Blue_Triangle_Dots_1.jpg,left,1150.5900000047404,false,high,NA,NA,NA,NA,NA,NA,NA,false
tpnkfj47,3ac6mfv6anv2a7u5af0lkpxs80hhzh,3tycr1gotgw6jnbps2kl11mqbeglzn,tpnkfj47,2020-0188,2020-05-21,12:25:56,12:49:15,NA,incomplete,101,shape,1,left,Green_Triangle_Chess_4.jpg,Purple_Triangle_Dots_1.jpg,Red_Circle_Chess_3.jpg,right,902.7599999972153,false,high,NA,NA,NA,NA,NA,NA,NA,false
tpnkfj47,3ac6mfv6anv2a7u5af0lkpxs80hhzh,3tycr1gotgw6jnbps2kl11mqbeglzn,tpnkfj47,2020-0188,2020-05-21,12:25:56,12:49:15,NA,incomplete,102,shape,0,right,Purple_Star_Dots_2.jpg,Blue_Plus_Dots_3.jpg,Green_Star_Grid_4.jpg,right,709.1400000063004,true,high,NA,NA,NA,NA,NA,NA,NA,false
tpnkfj47,3ac6mfv6anv2a7u5af0lkpxs80hhzh,3tycr1gotgw6jnbps2kl11mqbeglzn,tpnkfj47,2020-0188,2020-05-21,12:25:56,12:49:15,NA,incomplete,103,shape,0,right,Blue_Plus_Chess_1.jpg,Red_Star_Chess_3.jpg,Green_Plus_Stripes_2.jpg,left,1053.2200000016019,false,high,NA,NA,NA,NA,NA,NA,NA,false
tpnkfj47,3ac6mfv6anv2a7u5af0lkpxs80hhzh,3tycr1gotgw6jnbps2kl11mqbeglzn,tpnkfj47,2020-0188,2020-05-21,12:25:56,12:49:15,NA,incomplete,104,shape,1,left,Red_Triangle_Grid_4.jpg,Purple_Triangle_Chess_2.jpg,Blue_Star_Grid_3.jpg,right,826.0250000021188,false,high,NA,NA,NA,NA,NA,NA,NA,false
tpnkfj47,3ac6mfv6anv2a7u5af0lkpxs80hhzh,3tycr1gotgw6jnbps2kl11mqbeglzn,tpnkfj47,2020-0188,2020-05-21,12:25:56,12:49:15,NA,incomplete,105,shape,1,left,Blue_Circle_Chess_4.jpg,Red_Circle_Dots_1.jpg,Green_Triangle_Chess_3.jpg,right,834.8149999947054,false,high,NA,NA,NA,NA,NA,NA,NA,false
tpnkfj47,3ac6mfv6anv2a7u5af0lkpxs80hhzh,3tycr1gotgw6jnbps2kl11mqbeglzn,tpnkfj47,2020-0188,2020-05-21,12:25:56,12:49:15,NA,incomplete,106,shape,1,right,Red_Star_Dots_1.jpg,Purple_Circle_Dots_3.jpg,Green_Star_Chess_2.jpg,left,1110.8299999905284,false,high,NA,NA,NA,NA,NA,NA,NA,false
tpnkfj47,3ac6mfv6anv2a7u5af0lkpxs80hhzh,3tycr1gotgw6jnbps2kl11mqbeglzn,tpnkfj47,2020-0188,2020-05-21,12:25:56,12:49:15,NA,incomplete,107,shape,1,left,Blue_Plus_Chess_1.jpg,Red_Plus_Stripes_3.jpg,Purple_Triangle_Chess_4.jpg,right,1047.0550000027288,false,high,NA,NA,NA,NA,NA,NA,NA,false
tpnkfj47,3ac6mfv6anv2a7u5af0lkpxs80hhzh,3tycr1gotgw6jnbps2kl11mqbeglzn,tpnkfj47,2020-0188,2020-05-21,12:25:56,12:49:15,NA,incomplete,108,shape,1,left,Green_Triangle_Chess_1.jpg,Purple_Triangle_Dots_2.jpg,Blue_Circle_Chess_3.jpg,left,657.3800000041956,true,high,NA,NA,NA,NA,NA,NA,NA,false
tpnkfj47,3ac6mfv6anv2a7u5af0lkpxs80hhzh,3tycr1gotgw6jnbps2kl11mqbeglzn,tpnkfj47,2020-0188,2020-05-21,12:25:56,12:49:15,NA,incomplete,109,shape,1,left,Purple_Circle_Stripes_4.jpg,Red_Circle_Chess_1.jpg,Green_Triangle_Stripes_3.jpg,left,748.4649999969406,true,high,NA,NA,NA,NA,NA,NA,NA,false
tpnkfj47,3ac6mfv6anv2a7u5af0lkpxs80hhzh,3tycr1gotgw6jnbps2kl11mqbeglzn,tpnkfj47,2020-0188,2020-05-21,12:25:56,12:49:15,NA,incomplete,110,filling,0,right,Blue_Triangle_Dots_2.jpg,Green_Triangle_Chess_1.jpg,Purple_Plus_Dots_3.jpg,left,657.9499999934342,false,high,NA,NA,NA,NA,NA,NA,NA,false
tpnkfj47,3ac6mfv6anv2a7u5af0lkpxs80hhzh,3tycr1gotgw6jnbps2kl11mqbeglzn,tpnkfj47,2020-0188,2020-05-21,12:25:56,12:49:15,NA,incomplete,111,filling,1,left,Red_Triangle_Dots_4.jpg,Blue_Plus_Dots_2.jpg,Green_Triangle_Chess_3.jpg,right,1132.1400000015274,false,high,NA,NA,NA,NA,NA,NA,NA,false
tpnkfj47,3ac6mfv6anv2a7u5af0lkpxs80hhzh,3tycr1gotgw6jnbps2kl11mqbeglzn,tpnkfj47,2020-0188,2020-05-21,12:25:56,12:49:15,NA,incomplete,112,filling,1,left,Red_Star_Grid_3.jpg,Green_Circle_Grid_2.jpg,Blue_Star_Chess_4.jpg,left,884.5000000001164,true,high,NA,NA,NA,NA,NA,NA,NA,false
tpnkfj47,3ac6mfv6anv2a7u5af0lkpxs80hhzh,3tycr1gotgw6jnbps2kl11mqbeglzn,tpnkfj47,2020-0188,2020-05-21,12:25:56,12:49:15,NA,incomplete,113,filling,1,right,Blue_Star_Dots_3.jpg,Green_Star_Stripes_4.jpg,Purple_Triangle_Dots_2.jpg,right,877.3349999974016,true,high,NA,NA,NA,NA,NA,NA,NA,false
tpnkfj47,3ac6mfv6anv2a7u5af0lkpxs80hhzh,3tycr1gotgw6jnbps2kl11mqbeglzn,tpnkfj47,2020-0188,2020-05-21,12:25:56,12:49:15,NA,incomplete,114,filling,1,left,Red_Circle_Grid_4.jpg,Blue_Triangle_Grid_2.jpg,Green_Circle_Stripes_1.jpg,left,702.9550000006566,true,high,NA,NA,NA,NA,NA,NA,NA,false
tpnkfj47,3ac6mfv6anv2a7u5af0lkpxs80hhzh,3tycr1gotgw6jnbps2kl11mqbeglzn,tpnkfj47,2020-0188,2020-05-21,12:25:56,12:49:15,NA,incomplete,115,filling,0,left,Red_Triangle_Grid_1.jpg,Blue_Circle_Grid_2.jpg,Purple_Triangle_Chess_3.jpg,left,742.2349999978906,true,high,NA,NA,NA,NA,NA,NA,NA,false
tpnkfj47,3ac6mfv6anv2a7u5af0lkpxs80hhzh,3tycr1gotgw6jnbps2kl11mqbeglzn,tpnkfj47,2020-0188,2020-05-21,12:25:56,12:49:15,NA,incomplete,116,filling,1,left,Blue_Star_Chess_3.jpg,Green_Circle_Chess_1.jpg,Purple_Star_Grid_2.jpg,right,789.9949999991804,false,high,NA,NA,NA,NA,NA,NA,NA,false
tpnkfj47,3ac6mfv6anv2a7u5af0lkpxs80hhzh,3tycr1gotgw6jnbps2kl11mqbeglzn,tpnkfj47,2020-0188,2020-05-21,12:25:56,12:49:15,NA,incomplete,117,filling,1,right,Red_Plus_Grid_1.jpg,Green_Plus_Dots_4.jpg,Blue_Circle_Grid_3.jpg,right,1050.1699999877019,true,high,NA,NA,NA,NA,NA,NA,NA,false
tpnkfj47,3ac6mfv6anv2a7u5af0lkpxs80hhzh,3tycr1gotgw6jnbps2kl11mqbeglzn,tpnkfj47,2020-0188,2020-05-21,12:25:56,12:49:15,NA,incomplete,118,filling,1,right,Green_Circle_Stripes_3.jpg,Red_Circle_Grid_2.jpg,Purple_Triangle_Stripes_1.jpg,right,892.8349999914644,true,high,NA,NA,NA,NA,NA,NA,NA,false
tpnkfj47,3ac6mfv6anv2a7u5af0lkpxs80hhzh,3tycr1gotgw6jnbps2kl11mqbeglzn,tpnkfj47,2020-0188,2020-05-21,12:25:56,12:49:15,NA,incomplete,119,filling,0,left,Green_Circle_Grid_3.jpg,Blue_Triangle_Grid_4.jpg,Red_Circle_Dots_1.jpg,left,824.5849999948405,true,high,NA,NA,NA,NA,NA,NA,NA,false
tpnkfj47,3ac6mfv6anv2a7u5af0lkpxs80hhzh,3tycr1gotgw6jnbps2kl11mqbeglzn,tpnkfj47,2020-0188,2020-05-21,12:25:56,12:49:15,NA,incomplete,120,color,1,right,Purple_Star_Stripes_1.jpg,Red_Plus_Dots_1.jpg,Purple_Circle_Grid_4.jpg,NA,NA,NA,high,NA,NA,NA,NA,NA,NA,NA,false
tpnkfj47,3ac6mfv6anv2a7u5af0lkpxs80hhzh,3tycr1gotgw6jnbps2kl11mqbeglzn,tpnkfj47,2020-0188,2020-05-21,12:25:56,12:49:15,NA,incomplete,121,color,1,left,Red_Triangle_Dots_1.jpg,Red_Star_Stripes_4.jpg,Green_Plus_Chess_1.jpg,left,1242.9450000054203,true,high,NA,NA,NA,NA,NA,NA,NA,false
tpnkfj47,3ac6mfv6anv2a7u5af0lkpxs80hhzh,3tycr1gotgw6jnbps2kl11mqbeglzn,tpnkfj47,2020-0188,2020-05-21,12:25:56,12:49:15,NA,incomplete,122,color,1,left,Purple_Star_Chess_1.jpg,Purple_Circle_Grid_2.jpg,Blue_Triangle_Dots_1.jpg,left,1077.6699999987613,true,high,NA,NA,NA,NA,NA,NA,NA,false
tpnkfj47,3ac6mfv6anv2a7u5af0lkpxs80hhzh,3tycr1gotgw6jnbps2kl11mqbeglzn,tpnkfj47,2020-0188,2020-05-21,12:25:56,12:49:15,NA,incomplete,123,color,1,right,Blue_Circle_Chess_2.jpg,Purple_Triangle_Stripes_2.jpg,Blue_Plus_Dots_3.jpg,right,1279.7349999891594,true,high,NA,NA,NA,NA,NA,NA,NA,false
tpnkfj47,3ac6mfv6anv2a7u5af0lkpxs80hhzh,3tycr1gotgw6jnbps2kl11mqbeglzn,tpnkfj47,2020-0188,2020-05-21,12:25:56,12:49:15,NA,incomplete,124,color,1,left,Red_Plus_Dots_4.jpg,Red_Circle_Stripes_3.jpg,Green_Triangle_Chess_4.jpg,left,681.0399999958463,true,high,NA,NA,NA,NA,NA,NA,NA,false
tpnkfj47,3ac6mfv6anv2a7u5af0lkpxs80hhzh,3tycr1gotgw6jnbps2kl11mqbeglzn,tpnkfj47,2020-0188,2020-05-21,12:25:56,12:49:15,NA,incomplete,125,color,1,right,Red_Circle_Stripes_4.jpg,Blue_Star_Dots_4.jpg,Red_Plus_Grid_3.jpg,right,802.7049999947194,true,high,NA,NA,NA,NA,NA,NA,NA,false
tpnkfj47,3ac6mfv6anv2a7u5af0lkpxs80hhzh,3tycr1gotgw6jnbps2kl11mqbeglzn,tpnkfj47,2020-0188,2020-05-21,12:25:56,12:49:15,NA,incomplete,126,color,1,left,Green_Triangle_Grid_2.jpg,Green_Circle_Chess_1.jpg,Red_Plus_Dots_2.jpg,left,717.6400000024587,true,high,NA,NA,NA,NA,NA,NA,NA,false
tpnkfj47,3ac6mfv6anv2a7u5af0lkpxs80hhzh,3tycr1gotgw6jnbps2kl11mqbeglzn,tpnkfj47,2020-0188,2020-05-21,12:25:56,12:49:15,NA,incomplete,127,color,1,left,Purple_Star_Stripes_4.jpg,Purple_Triangle_Chess_1.jpg,Green_Plus_Dots_4.jpg,left,942.1999999904074,true,high,NA,NA,NA,NA,NA,NA,NA,false
tpnkfj47,3ac6mfv6anv2a7u5af0lkpxs80hhzh,3tycr1gotgw6jnbps2kl11mqbeglzn,tpnkfj47,2020-0188,2020-05-21,12:25:56,12:49:15,NA,incomplete,128,color,1,left,Purple_Triangle_Grid_4.jpg,Purple_Plus_Chess_3.jpg,Green_Star_Dots_4.jpg,left,1075.3800000092015,true,high,NA,NA,NA,NA,NA,NA,NA,false
tpnkfj47,3ac6mfv6anv2a7u5af0lkpxs80hhzh,3tycr1gotgw6jnbps2kl11mqbeglzn,tpnkfj47,2020-0188,2020-05-21,12:25:56,12:49:15,NA,incomplete,129,color,1,right,Green_Triangle_Stripes_2.jpg,Blue_Circle_Grid_2.jpg,Green_Star_Dots_3.jpg,right,1270.4850000010338,true,high,NA,NA,NA,NA,NA,NA,NA,false
tpnkfj47,3ac6mfv6anv2a7u5af0lkpxs80hhzh,3tycr1gotgw6jnbps2kl11mqbeglzn,tpnkfj47,2020-0188,2020-05-21,12:25:56,12:49:15,NA,incomplete,130,color,1,right,Green_Star_Stripes_2.jpg,Blue_Circle_Dots_2.jpg,Green_Triangle_Grid_1.jpg,right,1040.6950000033248,true,high,NA,NA,NA,NA,NA,NA,NA,false
tpnkfj47,3ac6mfv6anv2a7u5af0lkpxs80hhzh,3tycr1gotgw6jnbps2kl11mqbeglzn,tpnkfj47,2020-0188,2020-05-21,12:25:56,12:49:15,NA,incomplete,131,color,1,right,Blue_Triangle_Grid_3.jpg,Purple_Star_Stripes_3.jpg,Blue_Plus_Chess_2.jpg,right,994.8599999917205,true,high,NA,NA,NA,NA,NA,NA,NA,false
tpnkfj47,3ac6mfv6anv2a7u5af0lkpxs80hhzh,3tycr1gotgw6jnbps2kl11mqbeglzn,tpnkfj47,2020-0188,2020-05-21,12:25:56,12:49:15,NA,incomplete,132,color,1,right,Purple_Star_Dots_4.jpg,Green_Circle_Stripes_4.jpg,Purple_Plus_Chess_3.jpg,right,697.5199999869801,true,high,NA,NA,NA,NA,NA,NA,NA,false
tpnkfj47,3ac6mfv6anv2a7u5af0lkpxs80hhzh,3tycr1gotgw6jnbps2kl11mqbeglzn,tpnkfj47,2020-0188,2020-05-21,12:25:56,12:49:15,NA,incomplete,133,color,1,left,Blue_Triangle_Dots_1.jpg,Blue_Plus_Chess_4.jpg,Green_Circle_Stripes_1.jpg,left,824.0800000056624,true,high,NA,NA,NA,NA,NA,NA,NA,false
tpnkfj47,3ac6mfv6anv2a7u5af0lkpxs80hhzh,3tycr1gotgw6jnbps2kl11mqbeglzn,tpnkfj47,2020-0188,2020-05-21,12:25:56,12:49:15,NA,incomplete,134,color,1,right,Blue_Circle_Chess_2.jpg,Red_Triangle_Dots_2.jpg,Blue_Star_Stripes_4.jpg,right,699.7149999951944,true,high,NA,NA,NA,NA,NA,NA,NA,false
tpnkfj47,3ac6mfv6anv2a7u5af0lkpxs80hhzh,3tycr1gotgw6jnbps2kl11mqbeglzn,tpnkfj47,2020-0188,2020-05-21,12:25:56,12:49:15,NA,incomplete,135,color,1,right,Purple_Circle_Stripes_3.jpg,Blue_Plus_Chess_3.jpg,Purple_Triangle_Grid_1.jpg,right,909.769999998156,true,high,NA,NA,NA,NA,NA,NA,NA,false
tpnkfj47,3ac6mfv6anv2a7u5af0lkpxs80hhzh,3tycr1gotgw6jnbps2kl11mqbeglzn,tpnkfj47,2020-0188,2020-05-21,12:25:56,12:49:15,NA,incomplete,136,color,1,right,Blue_Triangle_Stripes_3.jpg,Purple_Circle_Dots_3.jpg,Blue_Star_Grid_2.jpg,right,781.9100000052713,true,high,NA,NA,NA,NA,NA,NA,NA,false
tpnkfj47,3ac6mfv6anv2a7u5af0lkpxs80hhzh,3tycr1gotgw6jnbps2kl11mqbeglzn,tpnkfj47,2020-0188,2020-05-21,12:25:56,12:49:15,NA,incomplete,137,color,1,left,Blue_Plus_Dots_3.jpg,Blue_Star_Grid_2.jpg,Green_Circle_Stripes_3.jpg,left,747.1050000023097,true,high,NA,NA,NA,NA,NA,NA,NA,false
tpnkfj47,3ac6mfv6anv2a7u5af0lkpxs80hhzh,3tycr1gotgw6jnbps2kl11mqbeglzn,tpnkfj47,2020-0188,2020-05-21,12:25:56,12:49:15,NA,incomplete,138,color,1,right,Green_Star_Grid_2.jpg,Purple_Triangle_Chess_2.jpg,Green_Circle_Stripes_1.jpg,right,753.9050000049174,true,high,NA,NA,NA,NA,NA,NA,NA,false
tpnkfj47,3ac6mfv6anv2a7u5af0lkpxs80hhzh,3tycr1gotgw6jnbps2kl11mqbeglzn,tpnkfj47,2020-0188,2020-05-21,12:25:56,12:49:15,NA,incomplete,139,color,1,right,Blue_Triangle_Dots_3.jpg,Green_Plus_Stripes_3.jpg,Blue_Star_Chess_2.jpg,left,975.4849999879953,false,high,NA,NA,NA,NA,NA,NA,NA,false
tpnkfj47,3ac6mfv6anv2a7u5af0lkpxs80hhzh,3tycr1gotgw6jnbps2kl11mqbeglzn,tpnkfj47,2020-0188,2020-05-21,12:25:56,12:49:15,NA,incomplete,140,number,1,right,Red_Circle_Grid_3.jpg,Red_Plus_Dots_1.jpg,Blue_Triangle_Stripes_3.jpg,left,797.980000003241,false,high,NA,NA,NA,NA,NA,NA,NA,false
tpnkfj47,3ac6mfv6anv2a7u5af0lkpxs80hhzh,3tycr1gotgw6jnbps2kl11mqbeglzn,tpnkfj47,2020-0188,2020-05-21,12:25:56,12:49:15,NA,incomplete,141,number,1,left,Purple_Star_Chess_4.jpg,Blue_Triangle_Dots_4.jpg,Purple_Circle_Grid_2.jpg,left,1081.4300000055227,true,high,NA,NA,NA,NA,NA,NA,NA,false
tpnkfj47,3ac6mfv6anv2a7u5af0lkpxs80hhzh,3tycr1gotgw6jnbps2kl11mqbeglzn,tpnkfj47,2020-0188,2020-05-21,12:25:56,12:49:15,NA,incomplete,142,number,0,left,Green_Triangle_Stripes_4.jpg,Purple_Plus_Chess_4.jpg,Green_Star_Dots_1.jpg,left,755.3650000046473,true,high,NA,NA,NA,NA,NA,NA,NA,false
tpnkfj47,3ac6mfv6anv2a7u5af0lkpxs80hhzh,3tycr1gotgw6jnbps2kl11mqbeglzn,tpnkfj47,2020-0188,2020-05-21,12:25:56,12:49:15,NA,incomplete,143,number,1,left,Red_Plus_Stripes_3.jpg,Green_Circle_Chess_3.jpg,Red_Triangle_Grid_4.jpg,left,1185.3100000007544,true,high,NA,NA,NA,NA,NA,NA,NA,false
tpnkfj47,3ac6mfv6anv2a7u5af0lkpxs80hhzh,3tycr1gotgw6jnbps2kl11mqbeglzn,tpnkfj47,2020-0188,2020-05-21,12:25:56,12:49:15,NA,incomplete,144,number,0,left,Purple_Star_Dots_4.jpg,Blue_Plus_Grid_4.jpg,Purple_Triangle_Stripes_3.jpg,left,790.1500000008382,true,high,NA,NA,NA,NA,NA,NA,NA,false
tpnkfj47,3ac6mfv6anv2a7u5af0lkpxs80hhzh,3tycr1gotgw6jnbps2kl11mqbeglzn,tpnkfj47,2020-0188,2020-05-21,12:25:56,12:49:15,NA,incomplete,145,number,1,left,Purple_Plus_Stripes_1.jpg,Blue_Triangle_Grid_1.jpg,Purple_Star_Chess_3.jpg,right,643.7150000128895,false,high,NA,NA,NA,NA,NA,NA,NA,false
tpnkfj47,3ac6mfv6anv2a7u5af0lkpxs80hhzh,3tycr1gotgw6jnbps2kl11mqbeglzn,tpnkfj47,2020-0188,2020-05-21,12:25:56,12:49:15,NA,incomplete,146,number,1,left,Blue_Circle_Stripes_2.jpg,Red_Triangle_Grid_2.jpg,Blue_Plus_Dots_3.jpg,left,701.8099999986589,true,high,NA,NA,NA,NA,NA,NA,NA,false
tpnkfj47,3ac6mfv6anv2a7u5af0lkpxs80hhzh,3tycr1gotgw6jnbps2kl11mqbeglzn,tpnkfj47,2020-0188,2020-05-21,12:25:56,12:49:15,NA,incomplete,147,number,0,right,Purple_Triangle_Stripes_4.jpg,Purple_Star_Chess_3.jpg,Blue_Circle_Dots_4.jpg,right,1111.2450000075623,true,high,NA,NA,NA,NA,NA,NA,NA,false
tpnkfj47,3ac6mfv6anv2a7u5af0lkpxs80hhzh,3tycr1gotgw6jnbps2kl11mqbeglzn,tpnkfj47,2020-0188,2020-05-21,12:25:56,12:49:15,NA,incomplete,148,number,1,left,Red_Triangle_Stripes_2.jpg,Blue_Star_Grid_2.jpg,Red_Circle_Dots_4.jpg,right,822.5400000084192,false,high,NA,NA,NA,NA,NA,NA,NA,false
tpnkfj47,3ac6mfv6anv2a7u5af0lkpxs80hhzh,3tycr1gotgw6jnbps2kl11mqbeglzn,tpnkfj47,2020-0188,2020-05-21,12:25:56,12:49:15,NA,incomplete,149,number,1,left,Red_Star_Chess_3.jpg,Purple_Plus_Stripes_3.jpg,Red_Circle_Grid_1.jpg,left,977.9249999991152,true,high,NA,NA,NA,NA,NA,NA,NA,false
tpnkfj47,3ac6mfv6anv2a7u5af0lkpxs80hhzh,3tycr1gotgw6jnbps2kl11mqbeglzn,tpnkfj47,2020-0188,2020-05-21,12:25:56,12:49:15,NA,incomplete,150,number,1,left,Purple_Circle_Chess_2.jpg,Red_Triangle_Grid_2.jpg,Purple_Star_Stripes_3.jpg,left,807.9250000007451,true,high,NA,NA,NA,NA,NA,NA,NA,false
tpnkfj47,3ac6mfv6anv2a7u5af0lkpxs80hhzh,3tycr1gotgw6jnbps2kl11mqbeglzn,tpnkfj47,2020-0188,2020-05-21,12:25:56,12:49:15,NA,incomplete,151,number,1,right,Green_Triangle_Chess_4.jpg,Green_Circle_Dots_1.jpg,Blue_Star_Grid_4.jpg,right,779.4799999974202,true,high,NA,NA,NA,NA,NA,NA,NA,false
tpnkfj47,3ac6mfv6anv2a7u5af0lkpxs80hhzh,3tycr1gotgw6jnbps2kl11mqbeglzn,tpnkfj47,2020-0188,2020-05-21,12:25:56,12:49:15,NA,incomplete,152,number,0,left,Green_Triangle_Grid_1.jpg,Purple_Star_Dots_1.jpg,Green_Circle_Stripes_2.jpg,left,761.5599999991246,true,high,NA,NA,NA,NA,NA,NA,NA,false
tpnkfj47,3ac6mfv6anv2a7u5af0lkpxs80hhzh,3tycr1gotgw6jnbps2kl11mqbeglzn,tpnkfj47,2020-0188,2020-05-21,12:25:56,12:49:15,NA,incomplete,153,number,1,right,Purple_Plus_Grid_2.jpg,Purple_Star_Stripes_4.jpg,Blue_Circle_Chess_2.jpg,left,823.2649999991991,false,high,NA,NA,NA,NA,NA,NA,NA,false
tpnkfj47,3ac6mfv6anv2a7u5af0lkpxs80hhzh,3tycr1gotgw6jnbps2kl11mqbeglzn,tpnkfj47,2020-0188,2020-05-21,12:25:56,12:49:15,NA,incomplete,154,number,1,right,Blue_Triangle_Stripes_4.jpg,Blue_Circle_Dots_3.jpg,Green_Plus_Chess_4.jpg,right,851.8449999974109,true,high,NA,NA,NA,NA,NA,NA,NA,false
tpnkfj47,3ac6mfv6anv2a7u5af0lkpxs80hhzh,3tycr1gotgw6jnbps2kl11mqbeglzn,tpnkfj47,2020-0188,2020-05-21,12:25:56,12:49:15,NA,incomplete,155,number,0,right,Green_Star_Dots_2.jpg,Green_Circle_Stripes_4.jpg,Purple_Plus_Grid_2.jpg,right,869.8500000026543,true,high,NA,NA,NA,NA,NA,NA,NA,false
tpnkfj47,3ac6mfv6anv2a7u5af0lkpxs80hhzh,3tycr1gotgw6jnbps2kl11mqbeglzn,tpnkfj47,2020-0188,2020-05-21,12:25:56,12:49:15,NA,incomplete,156,number,1,left,Blue_Plus_Grid_4.jpg,Red_Triangle_Stripes_4.jpg,Blue_Star_Dots_2.jpg,left,727.7499999909196,true,high,NA,NA,NA,NA,NA,NA,NA,false
tpnkfj47,3ac6mfv6anv2a7u5af0lkpxs80hhzh,3tycr1gotgw6jnbps2kl11mqbeglzn,tpnkfj47,2020-0188,2020-05-21,12:25:56,12:49:15,NA,incomplete,157,number,0,left,Red_Triangle_Stripes_2.jpg,Purple_Circle_Grid_2.jpg,Red_Plus_Dots_1.jpg,left,797.5650000006426,true,high,NA,NA,NA,NA,NA,NA,NA,false
tpnkfj47,3ac6mfv6anv2a7u5af0lkpxs80hhzh,3tycr1gotgw6jnbps2kl11mqbeglzn,tpnkfj47,2020-0188,2020-05-21,12:25:56,12:49:15,NA,incomplete,158,number,1,right,Blue_Circle_Grid_4.jpg,Blue_Star_Dots_3.jpg,Green_Triangle_Chess_4.jpg,right,939.5999999979977,true,high,NA,NA,NA,NA,NA,NA,NA,false
tpnkfj47,3ac6mfv6anv2a7u5af0lkpxs80hhzh,3tycr1gotgw6jnbps2kl11mqbeglzn,tpnkfj47,2020-0188,2020-05-21,12:25:56,12:49:15,NA,incomplete,159,number,1,right,Red_Circle_Stripes_4.jpg,Red_Plus_Chess_3.jpg,Purple_Triangle_Grid_4.jpg,right,841.8050000036601,true,high,NA,NA,NA,NA,NA,NA,NA,false
tpnkfj47,3ac6mfv6anv2a7u5af0lkpxs80hhzh,3tycr1gotgw6jnbps2kl11mqbeglzn,tpnkfj47,2020-0188,2020-05-21,12:25:56,12:49:15,NA,incomplete,160,color,1,right,Green_Triangle_Dots_2.jpg,Purple_Circle_Chess_2.jpg,Green_Plus_Stripes_1.jpg,left,813.5250000050291,false,high,NA,NA,NA,NA,NA,NA,NA,false
tpnkfj47,3ac6mfv6anv2a7u5af0lkpxs80hhzh,3tycr1gotgw6jnbps2kl11mqbeglzn,tpnkfj47,2020-0188,2020-05-21,12:25:56,12:49:15,NA,incomplete,161,color,1,right,Green_Plus_Chess_4.jpg,Blue_Triangle_Stripes_4.jpg,Green_Circle_Grid_3.jpg,right,985.6100000031292,true,high,NA,NA,NA,NA,NA,NA,NA,false
tpnkfj47,3ac6mfv6anv2a7u5af0lkpxs80hhzh,3tycr1gotgw6jnbps2kl11mqbeglzn,tpnkfj47,2020-0188,2020-05-21,12:25:56,12:49:15,NA,incomplete,162,color,1,left,Red_Triangle_Chess_1.jpg,Red_Circle_Dots_4.jpg,Purple_Star_Grid_1.jpg,left,789.5250000001397,true,high,NA,NA,NA,NA,NA,NA,NA,false
tpnkfj47,3ac6mfv6anv2a7u5af0lkpxs80hhzh,3tycr1gotgw6jnbps2kl11mqbeglzn,tpnkfj47,2020-0188,2020-05-21,12:25:56,12:49:15,NA,incomplete,163,color,1,left,Blue_Circle_Chess_2.jpg,Blue_Plus_Grid_4.jpg,Purple_Triangle_Stripes_2.jpg,left,610.004999994766,true,high,NA,NA,NA,NA,NA,NA,NA,false
tpnkfj47,3ac6mfv6anv2a7u5af0lkpxs80hhzh,3tycr1gotgw6jnbps2kl11mqbeglzn,tpnkfj47,2020-0188,2020-05-21,12:25:56,12:49:15,NA,incomplete,164,color,1,left,Blue_Triangle_Grid_2.jpg,Blue_Star_Stripes_3.jpg,Red_Plus_Dots_2.jpg,left,1216.4049999990966,true,high,NA,NA,NA,NA,NA,NA,NA,false
tpnkfj47,3ac6mfv6anv2a7u5af0lkpxs80hhzh,3tycr1gotgw6jnbps2kl11mqbeglzn,tpnkfj47,2020-0188,2020-05-21,12:25:56,12:49:15,NA,incomplete,165,color,1,left,Red_Circle_Dots_1.jpg,Red_Plus_Grid_3.jpg,Purple_Star_Stripes_1.jpg,left,659.48499999661,true,high,NA,NA,NA,NA,NA,NA,NA,false
tpnkfj47,3ac6mfv6anv2a7u5af0lkpxs80hhzh,3tycr1gotgw6jnbps2kl11mqbeglzn,tpnkfj47,2020-0188,2020-05-21,12:25:56,12:49:15,NA,incomplete,166,color,1,right,Blue_Plus_Stripes_3.jpg,Purple_Circle_Dots_3.jpg,Blue_Star_Grid_2.jpg,right,764.6150000072084,true,high,NA,NA,NA,NA,NA,NA,NA,false
tpnkfj47,3ac6mfv6anv2a7u5af0lkpxs80hhzh,3tycr1gotgw6jnbps2kl11mqbeglzn,tpnkfj47,2020-0188,2020-05-21,12:25:56,12:49:15,NA,incomplete,167,color,0,left,Purple_Circle_Chess_2.jpg,Purple_Triangle_Grid_3.jpg,Red_Star_Stripes_2.jpg,left,675.1349999979138,true,high,NA,NA,NA,NA,NA,NA,NA,false
tpnkfj47,3ac6mfv6anv2a7u5af0lkpxs80hhzh,3tycr1gotgw6jnbps2kl11mqbeglzn,tpnkfj47,2020-0188,2020-05-21,12:25:56,12:49:15,NA,incomplete,168,color,1,right,Blue_Circle_Dots_4.jpg,Purple_Plus_Grid_4.jpg,Blue_Star_Stripes_2.jpg,right,756.6700000024866,true,high,NA,NA,NA,NA,NA,NA,NA,false
tpnkfj47,3ac6mfv6anv2a7u5af0lkpxs80hhzh,3tycr1gotgw6jnbps2kl11mqbeglzn,tpnkfj47,2020-0188,2020-05-21,12:25:56,12:49:15,NA,incomplete,169,color,1,right,Blue_Plus_Chess_2.jpg,Purple_Circle_Grid_2.jpg,Blue_Star_Dots_3.jpg,right,562.8750000032596,true,high,NA,NA,NA,NA,NA,NA,NA,false
tpnkfj47,3ac6mfv6anv2a7u5af0lkpxs80hhzh,3tycr1gotgw6jnbps2kl11mqbeglzn,tpnkfj47,2020-0188,2020-05-21,12:25:56,12:49:15,NA,incomplete,170,color,0,right,Green_Circle_Dots_4.jpg,Red_Plus_Stripes_4.jpg,Green_Star_Grid_1.jpg,right,739.3699999954551,true,high,NA,NA,NA,NA,NA,NA,NA,false
tpnkfj47,3ac6mfv6anv2a7u5af0lkpxs80hhzh,3tycr1gotgw6jnbps2kl11mqbeglzn,tpnkfj47,2020-0188,2020-05-21,12:25:56,12:49:15,NA,incomplete,171,color,1,left,Green_Triangle_Stripes_4.jpg,Green_Plus_Chess_3.jpg,Blue_Star_Grid_4.jpg,left,575.4149999993388,true,high,NA,NA,NA,NA,NA,NA,NA,false
tpnkfj47,3ac6mfv6anv2a7u5af0lkpxs80hhzh,3tycr1gotgw6jnbps2kl11mqbeglzn,tpnkfj47,2020-0188,2020-05-21,12:25:56,12:49:15,NA,incomplete,172,color,1,right,Green_Triangle_Grid_4.jpg,Purple_Star_Dots_4.jpg,Green_Circle_Stripes_3.jpg,right,565.9699999960139,true,high,NA,NA,NA,NA,NA,NA,NA,false
tpnkfj47,3ac6mfv6anv2a7u5af0lkpxs80hhzh,3tycr1gotgw6jnbps2kl11mqbeglzn,tpnkfj47,2020-0188,2020-05-21,12:25:56,12:49:15,NA,incomplete,173,color,1,left,Red_Star_Stripes_3.jpg,Red_Circle_Chess_4.jpg,Blue_Triangle_Dots_3.jpg,left,619.690000006929,true,high,NA,NA,NA,NA,NA,NA,NA,false
tpnkfj47,3ac6mfv6anv2a7u5af0lkpxs80hhzh,3tycr1gotgw6jnbps2kl11mqbeglzn,tpnkfj47,2020-0188,2020-05-21,12:25:56,12:49:15,NA,incomplete,174,color,0,left,Blue_Circle_Grid_2.jpg,Blue_Triangle_Chess_3.jpg,Purple_Plus_Dots_2.jpg,left,623.305000001099,true,high,NA,NA,NA,NA,NA,NA,NA,false
tpnkfj47,3ac6mfv6anv2a7u5af0lkpxs80hhzh,3tycr1gotgw6jnbps2kl11mqbeglzn,tpnkfj47,2020-0188,2020-05-21,12:25:56,12:49:15,NA,incomplete,175,color,1,right,Purple_Circle_Grid_2.jpg,Blue_Triangle_Chess_2.jpg,Purple_Star_Stripes_1.jpg,right,661.3550000039395,true,high,NA,NA,NA,NA,NA,NA,NA,false
tpnkfj47,3ac6mfv6anv2a7u5af0lkpxs80hhzh,3tycr1gotgw6jnbps2kl11mqbeglzn,tpnkfj47,2020-0188,2020-05-21,12:25:56,12:49:15,NA,incomplete,176,color,1,left,Purple_Circle_Dots_1.jpg,Purple_Star_Chess_2.jpg,Green_Triangle_Stripes_1.jpg,left,604.9449999991339,true,high,NA,NA,NA,NA,NA,NA,NA,false
tpnkfj47,3ac6mfv6anv2a7u5af0lkpxs80hhzh,3tycr1gotgw6jnbps2kl11mqbeglzn,tpnkfj47,2020-0188,2020-05-21,12:25:56,12:49:15,NA,incomplete,177,color,1,left,Purple_Triangle_Grid_3.jpg,Purple_Circle_Dots_4.jpg,Green_Star_Stripes_3.jpg,left,641.1949999891222,true,high,NA,NA,NA,NA,NA,NA,NA,false
tpnkfj47,3ac6mfv6anv2a7u5af0lkpxs80hhzh,3tycr1gotgw6jnbps2kl11mqbeglzn,tpnkfj47,2020-0188,2020-05-21,12:25:56,12:49:15,NA,incomplete,178,color,1,left,Blue_Plus_Stripes_2.jpg,Blue_Star_Dots_1.jpg,Green_Triangle_Chess_2.jpg,left,620.1549999970011,true,high,NA,NA,NA,NA,NA,NA,NA,false
tpnkfj47,3ac6mfv6anv2a7u5af0lkpxs80hhzh,3tycr1gotgw6jnbps2kl11mqbeglzn,tpnkfj47,2020-0188,2020-05-21,12:25:56,12:49:15,NA,incomplete,179,color,0,left,Red_Star_Stripes_2.jpg,Red_Circle_Grid_3.jpg,Blue_Triangle_Dots_2.jpg,left,623.2250000028871,true,high,NA,NA,NA,NA,NA,NA,NA,false
tpnkfj47,3ac6mfv6anv2a7u5af0lkpxs80hhzh,3tycr1gotgw6jnbps2kl11mqbeglzn,tpnkfj47,2020-0188,2020-05-21,12:25:56,12:49:15,NA,incomplete,180,number,1,right,Red_Plus_Dots_3.jpg,Red_Triangle_Stripes_4.jpg,Blue_Star_Grid_3.jpg,right,1204.8049999866635,true,high,NA,NA,NA,NA,NA,NA,NA,false
tpnkfj47,3ac6mfv6anv2a7u5af0lkpxs80hhzh,3tycr1gotgw6jnbps2kl11mqbeglzn,tpnkfj47,2020-0188,2020-05-21,12:25:56,12:49:15,NA,incomplete,181,number,0,right,Red_Triangle_Chess_1.jpg,Red_Plus_Stripes_3.jpg,Green_Circle_Dots_1.jpg,right,862.5850000099745,true,high,NA,NA,NA,NA,NA,NA,NA,false
tpnkfj47,3ac6mfv6anv2a7u5af0lkpxs80hhzh,3tycr1gotgw6jnbps2kl11mqbeglzn,tpnkfj47,2020-0188,2020-05-21,12:25:56,12:49:15,NA,incomplete,182,number,1,left,Red_Plus_Grid_2.jpg,Purple_Star_Stripes_2.jpg,Red_Triangle_Chess_3.jpg,right,1007.8799999901094,false,high,NA,NA,NA,NA,NA,NA,NA,false
tpnkfj47,3ac6mfv6anv2a7u5af0lkpxs80hhzh,3tycr1gotgw6jnbps2kl11mqbeglzn,tpnkfj47,2020-0188,2020-05-21,12:25:56,12:49:15,NA,incomplete,183,number,1,left,Blue_Triangle_Dots_1.jpg,Red_Circle_Chess_1.jpg,Blue_Plus_Stripes_2.jpg,left,1285.3800000010524,true,high,NA,NA,NA,NA,NA,NA,NA,false
tpnkfj47,3ac6mfv6anv2a7u5af0lkpxs80hhzh,3tycr1gotgw6jnbps2kl11mqbeglzn,tpnkfj47,2020-0188,2020-05-21,12:25:56,12:49:15,NA,incomplete,184,number,1,left,Blue_Star_Chess_2.jpg,Green_Circle_Dots_2.jpg,Blue_Plus_Grid_3.jpg,left,758.0749999906402,true,high,NA,NA,NA,NA,NA,NA,NA,false
tpnkfj47,3ac6mfv6anv2a7u5af0lkpxs80hhzh,3tycr1gotgw6jnbps2kl11mqbeglzn,tpnkfj47,2020-0188,2020-05-21,12:25:56,12:49:15,NA,incomplete,185,number,1,left,Blue_Plus_Stripes_3.jpg,Green_Triangle_Grid_3.jpg,Blue_Star_Dots_1.jpg,right,1181.454999997979,false,high,NA,NA,NA,NA,NA,NA,NA,false
tpnkfj47,3ac6mfv6anv2a7u5af0lkpxs80hhzh,3tycr1gotgw6jnbps2kl11mqbeglzn,tpnkfj47,2020-0188,2020-05-21,12:25:56,12:49:15,NA,incomplete,186,number,0,left,Red_Circle_Stripes_3.jpg,Blue_Plus_Grid_3.jpg,Red_Star_Chess_2.jpg,left,777.700000006007,true,high,NA,NA,NA,NA,NA,NA,NA,false
tpnkfj47,3ac6mfv6anv2a7u5af0lkpxs80hhzh,3tycr1gotgw6jnbps2kl11mqbeglzn,tpnkfj47,2020-0188,2020-05-21,12:25:56,12:49:15,NA,incomplete,187,number,1,left,Blue_Plus_Stripes_4.jpg,Red_Circle_Chess_4.jpg,Blue_Star_Dots_3.jpg,right,653.7500000121072,false,high,NA,NA,NA,NA,NA,NA,NA,false
tpnkfj47,3ac6mfv6anv2a7u5af0lkpxs80hhzh,3tycr1gotgw6jnbps2kl11mqbeglzn,tpnkfj47,2020-0188,2020-05-21,12:25:56,12:49:15,NA,incomplete,188,number,0,left,Green_Triangle_Chess_1.jpg,Blue_Star_Grid_1.jpg,Green_Plus_Dots_2.jpg,right,1056.0100000002421,false,high,NA,NA,NA,NA,NA,NA,NA,false
tpnkfj47,3ac6mfv6anv2a7u5af0lkpxs80hhzh,3tycr1gotgw6jnbps2kl11mqbeglzn,tpnkfj47,2020-0188,2020-05-21,12:25:56,12:49:15,NA,incomplete,189,number,1,right,Purple_Triangle_Chess_4.jpg,Purple_Circle_Grid_2.jpg,Green_Plus_Dots_4.jpg,left,779.1450000074692,false,high,NA,NA,NA,NA,NA,NA,NA,false
tpnkfj47,3ac6mfv6anv2a7u5af0lkpxs80hhzh,3tycr1gotgw6jnbps2kl11mqbeglzn,tpnkfj47,2020-0188,2020-05-21,12:25:56,12:49:15,NA,incomplete,190,number,1,left,Green_Circle_Stripes_2.jpg,Purple_Star_Grid_2.jpg,Green_Triangle_Chess_3.jpg,left,769.054999996908,true,high,NA,NA,NA,NA,NA,NA,NA,false
tpnkfj47,3ac6mfv6anv2a7u5af0lkpxs80hhzh,3tycr1gotgw6jnbps2kl11mqbeglzn,tpnkfj47,2020-0188,2020-05-21,12:25:56,12:49:15,NA,incomplete,191,number,0,right,Purple_Star_Grid_4.jpg,Purple_Circle_Stripes_1.jpg,Red_Plus_Dots_4.jpg,right,766.8850000046659,true,high,NA,NA,NA,NA,NA,NA,NA,false
tpnkfj47,3ac6mfv6anv2a7u5af0lkpxs80hhzh,3tycr1gotgw6jnbps2kl11mqbeglzn,tpnkfj47,2020-0188,2020-05-21,12:25:56,12:49:15,NA,incomplete,192,number,1,left,Red_Triangle_Grid_2.jpg,Blue_Circle_Chess_2.jpg,Red_Star_Stripes_1.jpg,right,1052.7100000034552,false,high,NA,NA,NA,NA,NA,NA,NA,false
tpnkfj47,3ac6mfv6anv2a7u5af0lkpxs80hhzh,3tycr1gotgw6jnbps2kl11mqbeglzn,tpnkfj47,2020-0188,2020-05-21,12:25:56,12:49:15,NA,incomplete,193,number,1,left,Red_Circle_Chess_3.jpg,Purple_Triangle_Stripes_3.jpg,Red_Plus_Dots_2.jpg,left,975.9150000025984,true,high,NA,NA,NA,NA,NA,NA,NA,false
tpnkfj47,3ac6mfv6anv2a7u5af0lkpxs80hhzh,3tycr1gotgw6jnbps2kl11mqbeglzn,tpnkfj47,2020-0188,2020-05-21,12:25:56,12:49:15,NA,incomplete,194,number,1,right,Blue_Circle_Stripes_3.jpg,Blue_Star_Dots_1.jpg,Green_Plus_Grid_3.jpg,right,652.4300000017975,true,high,NA,NA,NA,NA,NA,NA,NA,false
tpnkfj47,3ac6mfv6anv2a7u5af0lkpxs80hhzh,3tycr1gotgw6jnbps2kl11mqbeglzn,tpnkfj47,2020-0188,2020-05-21,12:25:56,12:49:15,NA,incomplete,195,number,1,left,Purple_Circle_Stripes_3.jpg,Red_Triangle_Grid_3.jpg,Purple_Plus_Dots_4.jpg,left,879.0149999987334,true,high,NA,NA,NA,NA,NA,NA,NA,false
tpnkfj47,3ac6mfv6anv2a7u5af0lkpxs80hhzh,3tycr1gotgw6jnbps2kl11mqbeglzn,tpnkfj47,2020-0188,2020-05-21,12:25:56,12:49:15,NA,incomplete,196,number,1,left,Purple_Plus_Dots_3.jpg,Red_Circle_Chess_3.jpg,Purple_Star_Stripes_4.jpg,left,723.6300000075717,true,high,NA,NA,NA,NA,NA,NA,NA,false
tpnkfj47,3ac6mfv6anv2a7u5af0lkpxs80hhzh,3tycr1gotgw6jnbps2kl11mqbeglzn,tpnkfj47,2020-0188,2020-05-21,12:25:56,12:49:15,NA,incomplete,197,number,0,left,Green_Star_Grid_2.jpg,Red_Plus_Dots_2.jpg,Green_Triangle_Chess_1.jpg,left,783.3399999944959,true,high,NA,NA,NA,NA,NA,NA,NA,false
tpnkfj47,3ac6mfv6anv2a7u5af0lkpxs80hhzh,3tycr1gotgw6jnbps2kl11mqbeglzn,tpnkfj47,2020-0188,2020-05-21,12:25:56,12:49:15,NA,incomplete,198,number,1,left,Blue_Circle_Stripes_1.jpg,Purple_Plus_Grid_1.jpg,Blue_Triangle_Chess_3.jpg,left,637.0699999970384,true,high,NA,NA,NA,NA,NA,NA,NA,false
tpnkfj47,3ac6mfv6anv2a7u5af0lkpxs80hhzh,3tycr1gotgw6jnbps2kl11mqbeglzn,tpnkfj47,2020-0188,2020-05-21,12:25:56,12:49:15,NA,incomplete,199,number,1,right,Red_Star_Stripes_4.jpg,Red_Circle_Chess_3.jpg,Blue_Plus_Dots_4.jpg,right,824.8199999944773,true,high,NA,NA,NA,NA,NA,NA,NA,false
tpnkfj47,3ac6mfv6anv2a7u5af0lkpxs80hhzh,3tycr1gotgw6jnbps2kl11mqbeglzn,tpnkfj47,2020-0188,2020-05-21,12:25:56,12:49:15,NA,incomplete,200,color,0,right,Blue_Triangle_Chess_3.jpg,Purple_Star_Stripes_3.jpg,Blue_Plus_Dots_4.jpg,left,758.0499999895692,false,high,NA,NA,NA,NA,NA,NA,NA,false
tpnkfj47,3ac6mfv6anv2a7u5af0lkpxs80hhzh,3tycr1gotgw6jnbps2kl11mqbeglzn,tpnkfj47,2020-0188,2020-05-21,12:25:56,12:49:15,NA,incomplete,201,color,1,right,Red_Plus_Dots_4.jpg,Blue_Triangle_Stripes_4.jpg,Red_Star_Grid_1.jpg,left,762.0949999981094,false,high,NA,NA,NA,NA,NA,NA,NA,false
tpnkfj47,3ac6mfv6anv2a7u5af0lkpxs80hhzh,3tycr1gotgw6jnbps2kl11mqbeglzn,tpnkfj47,2020-0188,2020-05-21,12:25:56,12:49:15,NA,incomplete,202,color,1,right,Blue_Circle_Chess_2.jpg,Green_Star_Stripes_2.jpg,Blue_Triangle_Dots_4.jpg,left,688.6700000031851,false,high,NA,NA,NA,NA,NA,NA,NA,false
tpnkfj47,3ac6mfv6anv2a7u5af0lkpxs80hhzh,3tycr1gotgw6jnbps2kl11mqbeglzn,tpnkfj47,2020-0188,2020-05-21,12:25:56,12:49:15,NA,incomplete,203,color,1,right,Purple_Plus_Dots_2.jpg,Red_Star_Grid_2.jpg,Purple_Triangle_Stripes_4.jpg,right,553.260000000475,true,high,NA,NA,NA,NA,NA,NA,NA,false
tpnkfj47,3ac6mfv6anv2a7u5af0lkpxs80hhzh,3tycr1gotgw6jnbps2kl11mqbeglzn,tpnkfj47,2020-0188,2020-05-21,12:25:56,12:49:15,NA,incomplete,204,color,0,left,Blue_Plus_Stripes_2.jpg,Blue_Star_Grid_1.jpg,Red_Triangle_Chess_2.jpg,right,1302.8049999994691,false,high,NA,NA,NA,NA,NA,NA,NA,false
tpnkfj47,3ac6mfv6anv2a7u5af0lkpxs80hhzh,3tycr1gotgw6jnbps2kl11mqbeglzn,tpnkfj47,2020-0188,2020-05-21,12:25:56,12:49:15,NA,incomplete,205,color,1,left,Red_Triangle_Stripes_2.jpg,Red_Plus_Chess_4.jpg,Blue_Star_Grid_2.jpg,right,935.4800000002142,false,high,NA,NA,NA,NA,NA,NA,NA,false
tpnkfj47,3ac6mfv6anv2a7u5af0lkpxs80hhzh,3tycr1gotgw6jnbps2kl11mqbeglzn,tpnkfj47,2020-0188,2020-05-21,12:25:56,12:49:15,NA,incomplete,206,color,1,right,Green_Triangle_Stripes_2.jpg,Purple_Plus_Grid_2.jpg,Green_Circle_Dots_3.jpg,right,934.1200000054669,true,high,NA,NA,NA,NA,NA,NA,NA,false
tpnkfj47,3ac6mfv6anv2a7u5af0lkpxs80hhzh,3tycr1gotgw6jnbps2kl11mqbeglzn,tpnkfj47,2020-0188,2020-05-21,12:25:56,12:49:15,NA,incomplete,207,color,0,left,Red_Triangle_Chess_4.jpg,Red_Star_Grid_3.jpg,Green_Circle_Stripes_4.jpg,left,1014.4799999981187,true,high,NA,NA,NA,NA,NA,NA,NA,false
tpnkfj47,3ac6mfv6anv2a7u5af0lkpxs80hhzh,3tycr1gotgw6jnbps2kl11mqbeglzn,tpnkfj47,2020-0188,2020-05-21,12:25:56,12:49:15,NA,incomplete,208,color,1,left,Blue_Plus_Grid_4.jpg,Blue_Circle_Dots_1.jpg,Purple_Star_Chess_4.jpg,right,833.7649999884889,false,high,NA,NA,NA,NA,NA,NA,NA,false
tpnkfj47,3ac6mfv6anv2a7u5af0lkpxs80hhzh,3tycr1gotgw6jnbps2kl11mqbeglzn,tpnkfj47,2020-0188,2020-05-21,12:25:56,12:49:15,NA,incomplete,209,color,0,right,Blue_Circle_Grid_2.jpg,Purple_Star_Stripes_2.jpg,Blue_Triangle_Dots_3.jpg,right,605.6099999984726,true,high,NA,NA,NA,NA,NA,NA,NA,false
tpnkfj47,3ac6mfv6anv2a7u5af0lkpxs80hhzh,3tycr1gotgw6jnbps2kl11mqbeglzn,tpnkfj47,2020-0188,2020-05-21,12:25:56,12:49:15,NA,incomplete,210,color,1,left,Red_Triangle_Stripes_3.jpg,Red_Star_Grid_1.jpg,Blue_Circle_Dots_3.jpg,left,841.9399999985471,true,high,NA,NA,NA,NA,NA,NA,NA,false
tpnkfj47,3ac6mfv6anv2a7u5af0lkpxs80hhzh,3tycr1gotgw6jnbps2kl11mqbeglzn,tpnkfj47,2020-0188,2020-05-21,12:25:56,12:49:15,NA,incomplete,211,color,1,left,Blue_Plus_Chess_2.jpg,Blue_Triangle_Stripes_3.jpg,Red_Circle_Grid_2.jpg,left,684.4600000041537,true,high,NA,NA,NA,NA,NA,NA,NA,false
tpnkfj47,3ac6mfv6anv2a7u5af0lkpxs80hhzh,3tycr1gotgw6jnbps2kl11mqbeglzn,tpnkfj47,2020-0188,2020-05-21,12:25:56,12:49:15,NA,incomplete,212,color,0,left,Red_Circle_Dots_1.jpg,Red_Star_Grid_3.jpg,Blue_Plus_Stripes_1.jpg,left,701.8549999920651,true,high,NA,NA,NA,NA,NA,NA,NA,false
tpnkfj47,3ac6mfv6anv2a7u5af0lkpxs80hhzh,3tycr1gotgw6jnbps2kl11mqbeglzn,tpnkfj47,2020-0188,2020-05-21,12:25:56,12:49:15,NA,incomplete,213,color,1,left,Green_Circle_Dots_1.jpg,Green_Plus_Stripes_3.jpg,Red_Triangle_Grid_1.jpg,left,717.3200000105426,true,high,NA,NA,NA,NA,NA,NA,NA,false
tpnkfj47,3ac6mfv6anv2a7u5af0lkpxs80hhzh,3tycr1gotgw6jnbps2kl11mqbeglzn,tpnkfj47,2020-0188,2020-05-21,12:25:56,12:49:15,NA,incomplete,214,color,1,right,Blue_Plus_Chess_2.jpg,Purple_Triangle_Dots_2.jpg,Blue_Circle_Grid_4.jpg,right,582.1250000006985,true,high,NA,NA,NA,NA,NA,NA,NA,false
tpnkfj47,3ac6mfv6anv2a7u5af0lkpxs80hhzh,3tycr1gotgw6jnbps2kl11mqbeglzn,tpnkfj47,2020-0188,2020-05-21,12:25:56,12:49:15,NA,incomplete,215,color,1,left,Green_Triangle_Chess_4.jpg,Green_Star_Grid_3.jpg,Blue_Circle_Stripes_4.jpg,left,635.4550000105519,true,high,NA,NA,NA,NA,NA,NA,NA,false
tpnkfj47,3ac6mfv6anv2a7u5af0lkpxs80hhzh,3tycr1gotgw6jnbps2kl11mqbeglzn,tpnkfj47,2020-0188,2020-05-21,12:25:56,12:49:15,NA,incomplete,216,color,1,right,Blue_Triangle_Stripes_4.jpg,Purple_Star_Grid_4.jpg,Blue_Circle_Dots_2.jpg,right,669.4350000033155,true,high,NA,NA,NA,NA,NA,NA,NA,false
tpnkfj47,3ac6mfv6anv2a7u5af0lkpxs80hhzh,3tycr1gotgw6jnbps2kl11mqbeglzn,tpnkfj47,2020-0188,2020-05-21,12:25:56,12:49:15,NA,incomplete,217,color,1,right,Purple_Triangle_Dots_1.jpg,Blue_Circle_Stripes_1.jpg,Purple_Plus_Grid_2.jpg,right,670.8700000017416,true,high,NA,NA,NA,NA,NA,NA,NA,false
tpnkfj47,3ac6mfv6anv2a7u5af0lkpxs80hhzh,3tycr1gotgw6jnbps2kl11mqbeglzn,tpnkfj47,2020-0188,2020-05-21,12:25:56,12:49:15,NA,incomplete,218,color,0,left,Green_Star_Grid_4.jpg,Green_Circle_Dots_1.jpg,Red_Plus_Chess_4.jpg,left,656.4099999959581,true,high,NA,NA,NA,NA,NA,NA,NA,false
tpnkfj47,3ac6mfv6anv2a7u5af0lkpxs80hhzh,3tycr1gotgw6jnbps2kl11mqbeglzn,tpnkfj47,2020-0188,2020-05-21,12:25:56,12:49:15,NA,incomplete,219,color,1,left,Green_Plus_Grid_2.jpg,Green_Star_Chess_4.jpg,Purple_Circle_Dots_2.jpg,left,538.5100000132807,true,high,NA,NA,NA,NA,NA,NA,NA,false
tpnkfj47,3ac6mfv6anv2a7u5af0lkpxs80hhzh,3tycr1gotgw6jnbps2kl11mqbeglzn,tpnkfj47,2020-0188,2020-05-21,12:25:56,12:49:15,NA,incomplete,220,number,1,left,Green_Plus_Dots_3.jpg,Purple_Star_Stripes_3.jpg,Green_Circle_Grid_2.jpg,right,506.29000000469387,false,high,NA,NA,NA,NA,NA,NA,NA,false
tpnkfj47,3ac6mfv6anv2a7u5af0lkpxs80hhzh,3tycr1gotgw6jnbps2kl11mqbeglzn,tpnkfj47,2020-0188,2020-05-21,12:25:56,12:49:15,NA,incomplete,221,number,1,left,Blue_Star_Stripes_1.jpg,Red_Circle_Dots_1.jpg,Blue_Plus_Chess_2.jpg,left,673.7999999895692,true,high,NA,NA,NA,NA,NA,NA,NA,false
tpnkfj47,3ac6mfv6anv2a7u5af0lkpxs80hhzh,3tycr1gotgw6jnbps2kl11mqbeglzn,tpnkfj47,2020-0188,2020-05-21,12:25:56,12:49:15,NA,incomplete,222,number,1,left,Green_Plus_Grid_2.jpg,Red_Triangle_Dots_2.jpg,Green_Star_Chess_4.jpg,left,595.1350000104867,true,high,NA,NA,NA,NA,NA,NA,NA,false
tpnkfj47,3ac6mfv6anv2a7u5af0lkpxs80hhzh,3tycr1gotgw6jnbps2kl11mqbeglzn,tpnkfj47,2020-0188,2020-05-21,12:25:56,12:49:15,NA,incomplete,223,number,1,right,Red_Plus_Chess_3.jpg,Red_Triangle_Dots_2.jpg,Purple_Star_Grid_3.jpg,right,695.6349999965169,true,high,NA,NA,NA,NA,NA,NA,NA,false
tpnkfj47,3ac6mfv6anv2a7u5af0lkpxs80hhzh,3tycr1gotgw6jnbps2kl11mqbeglzn,tpnkfj47,2020-0188,2020-05-21,12:25:56,12:49:15,NA,incomplete,224,number,0,left,Purple_Plus_Grid_1.jpg,Blue_Star_Stripes_1.jpg,Purple_Circle_Dots_4.jpg,left,704.5650000073947,true,high,NA,NA,NA,NA,NA,NA,NA,false
tpnkfj47,3ac6mfv6anv2a7u5af0lkpxs80hhzh,3tycr1gotgw6jnbps2kl11mqbeglzn,tpnkfj47,2020-0188,2020-05-21,12:25:56,12:49:15,NA,incomplete,225,number,1,left,Purple_Triangle_Grid_3.jpg,Red_Circle_Chess_3.jpg,Purple_Plus_Dots_1.jpg,left,651.5199999993201,true,high,NA,NA,NA,NA,NA,NA,NA,false
tpnkfj47,3ac6mfv6anv2a7u5af0lkpxs80hhzh,3tycr1gotgw6jnbps2kl11mqbeglzn,tpnkfj47,2020-0188,2020-05-21,12:25:56,12:49:15,NA,incomplete,226,number,1,left,Green_Star_Chess_2.jpg,Blue_Circle_Dots_2.jpg,Green_Triangle_Grid_1.jpg,left,643.4599999920465,true,high,NA,NA,NA,NA,NA,NA,NA,false
tpnkfj47,3ac6mfv6anv2a7u5af0lkpxs80hhzh,3tycr1gotgw6jnbps2kl11mqbeglzn,tpnkfj47,2020-0188,2020-05-21,12:25:56,12:49:15,NA,incomplete,227,number,0,left,Blue_Star_Stripes_3.jpg,Purple_Circle_Grid_3.jpg,Blue_Plus_Chess_4.jpg,left,894.3900000012945,true,high,NA,NA,NA,NA,NA,NA,NA,false
tpnkfj47,3ac6mfv6anv2a7u5af0lkpxs80hhzh,3tycr1gotgw6jnbps2kl11mqbeglzn,tpnkfj47,2020-0188,2020-05-21,12:25:56,12:49:15,NA,incomplete,228,number,1,right,Blue_Triangle_Grid_3.jpg,Blue_Circle_Chess_2.jpg,Red_Plus_Stripes_3.jpg,right,815.0750000057742,true,high,NA,NA,NA,NA,NA,NA,NA,false
tpnkfj47,3ac6mfv6anv2a7u5af0lkpxs80hhzh,3tycr1gotgw6jnbps2kl11mqbeglzn,tpnkfj47,2020-0188,2020-05-21,12:25:56,12:49:15,NA,incomplete,229,number,0,right,Blue_Triangle_Chess_1.jpg,Blue_Circle_Grid_4.jpg,Purple_Star_Dots_1.jpg,right,570.9800000041723,true,high,NA,NA,NA,NA,NA,NA,NA,false
tpnkfj47,3ac6mfv6anv2a7u5af0lkpxs80hhzh,3tycr1gotgw6jnbps2kl11mqbeglzn,tpnkfj47,2020-0188,2020-05-21,12:25:56,12:49:15,NA,incomplete,230,number,1,right,Blue_Triangle_Grid_4.jpg,Blue_Circle_Dots_1.jpg,Purple_Star_Chess_4.jpg,left,642.5900000031106,false,high,NA,NA,NA,NA,NA,NA,NA,false
tpnkfj47,3ac6mfv6anv2a7u5af0lkpxs80hhzh,3tycr1gotgw6jnbps2kl11mqbeglzn,tpnkfj47,2020-0188,2020-05-21,12:25:56,12:49:15,NA,incomplete,231,number,1,right,Purple_Triangle_Dots_4.jpg,Purple_Plus_Stripes_2.jpg,Blue_Star_Grid_4.jpg,right,908.6200000019744,true,high,NA,NA,NA,NA,NA,NA,NA,false
tpnkfj47,3ac6mfv6anv2a7u5af0lkpxs80hhzh,3tycr1gotgw6jnbps2kl11mqbeglzn,tpnkfj47,2020-0188,2020-05-21,12:25:56,12:49:15,NA,incomplete,232,number,1,right,Green_Plus_Stripes_1.jpg,Green_Star_Chess_2.jpg,Red_Circle_Grid_1.jpg,right,636.3450000062585,true,high,NA,NA,NA,NA,NA,NA,NA,false
tpnkfj47,3ac6mfv6anv2a7u5af0lkpxs80hhzh,3tycr1gotgw6jnbps2kl11mqbeglzn,tpnkfj47,2020-0188,2020-05-21,12:25:56,12:49:15,NA,incomplete,233,number,1,left,Red_Plus_Chess_2.jpg,Green_Star_Stripes_2.jpg,Red_Circle_Grid_3.jpg,left,678.6700000085402,true,high,NA,NA,NA,NA,NA,NA,NA,false
tpnkfj47,3ac6mfv6anv2a7u5af0lkpxs80hhzh,3tycr1gotgw6jnbps2kl11mqbeglzn,tpnkfj47,2020-0188,2020-05-21,12:25:56,12:49:15,NA,incomplete,234,number,1,right,Blue_Star_Dots_4.jpg,Blue_Circle_Stripes_3.jpg,Green_Triangle_Grid_4.jpg,right,815.8750000002328,true,high,NA,NA,NA,NA,NA,NA,NA,false
tpnkfj47,3ac6mfv6anv2a7u5af0lkpxs80hhzh,3tycr1gotgw6jnbps2kl11mqbeglzn,tpnkfj47,2020-0188,2020-05-21,12:25:56,12:49:15,NA,incomplete,235,number,1,left,Green_Triangle_Grid_4.jpg,Red_Star_Chess_4.jpg,Green_Plus_Dots_3.jpg,left,820.1150000095367,true,high,NA,NA,NA,NA,NA,NA,NA,false
tpnkfj47,3ac6mfv6anv2a7u5af0lkpxs80hhzh,3tycr1gotgw6jnbps2kl11mqbeglzn,tpnkfj47,2020-0188,2020-05-21,12:25:56,12:49:15,NA,incomplete,236,number,1,right,Red_Star_Dots_2.jpg,Red_Circle_Grid_4.jpg,Purple_Plus_Chess_2.jpg,right,735.1500000075903,true,high,NA,NA,NA,NA,NA,NA,NA,false
tpnkfj47,3ac6mfv6anv2a7u5af0lkpxs80hhzh,3tycr1gotgw6jnbps2kl11mqbeglzn,tpnkfj47,2020-0188,2020-05-21,12:25:56,12:49:15,NA,incomplete,237,number,1,right,Green_Triangle_Grid_3.jpg,Green_Circle_Dots_2.jpg,Red_Plus_Stripes_3.jpg,right,638.3749999948777,true,high,NA,NA,NA,NA,NA,NA,NA,false
tpnkfj47,3ac6mfv6anv2a7u5af0lkpxs80hhzh,3tycr1gotgw6jnbps2kl11mqbeglzn,tpnkfj47,2020-0188,2020-05-21,12:25:56,12:49:15,NA,incomplete,238,number,1,right,Red_Triangle_Grid_4.jpg,Red_Star_Stripes_1.jpg,Purple_Plus_Dots_4.jpg,right,722.3000000084285,true,high,NA,NA,NA,NA,NA,NA,NA,false
tpnkfj47,3ac6mfv6anv2a7u5af0lkpxs80hhzh,3tycr1gotgw6jnbps2kl11mqbeglzn,tpnkfj47,2020-0188,2020-05-21,12:25:56,12:49:15,NA,incomplete,239,number,1,right,Purple_Triangle_Stripes_4.jpg,Purple_Plus_Dots_2.jpg,Red_Star_Grid_4.jpg,right,689.3550000097603,true,high,NA,NA,NA,NA,NA,NA,NA,false
tpnkfj47,3ac6mfv6anv2a7u5af0lkpxs80hhzh,3tycr1gotgw6jnbps2kl11mqbeglzn,tpnkfj47,2020-0188,2020-05-21,12:25:56,12:49:15,NA,NA,instruction example,shape,NA,NA,Purple_Plus_Grid_3.jpg,Green_Plus_Stripes_2.jpg,Red_Star_Grid_1.jpg,NA,NA,NA,NA,NA,NA,NA,NA,NA,NA,NA,undefined
tpnkfj47,3ac6mfv6anv2a7u5af0lkpxs80hhzh,3tycr1gotgw6jnbps2kl11mqbeglzn,tpnkfj47,2020-0188,2020-05-21,12:25:56,12:49:15,NA,NA,instruction example,shape,NA,NA,Green_Triangle_Dots_2.jpg,Purple_Circle_Dots_3.jpg,Red_Triangle_Chess_4.jpg,NA,NA,NA,NA,NA,NA,NA,NA,NA,NA,NA,undefined
tpnkfj47,3ac6mfv6anv2a7u5af0lkpxs80hhzh,3tycr1gotgw6jnbps2kl11mqbeglzn,tpnkfj47,2020-0188,2020-05-21,12:25:56,12:49:15,NA,NA,instruction example,shape,NA,NA,Red_Circle_Stripes_4.jpg,Red_Star_Chess_1.jpg,Purple_Triangle_Grid_4.jpg,NA,NA,NA,NA,NA,NA,NA,NA,NA,NA,NA,undefined
tpnkfj47,3ac6mfv6anv2a7u5af0lkpxs80hhzh,3tycr1gotgw6jnbps2kl11mqbeglzn,tpnkfj47,2020-0188,2020-05-21,12:25:56,12:49:15,NA,NA,instruction example,shape,NA,NA,Blue_Circle_Stripes_2.jpg,Red_Triangle_Dots_2.jpg,Blue_Plus_Chess_4.jpg,NA,NA,NA,NA,NA,NA,NA,NA,NA,NA,NA,undefined
tpnkfj47,3ac6mfv6anv2a7u5af0lkpxs80hhzh,3tycr1gotgw6jnbps2kl11mqbeglzn,tpnkfj47,2020-0188,2020-05-21,12:25:56,12:49:15,1369665.6050000018,1403669.815000001,NA,NA,NA,NA,NA,NA,NA,NA,NA,NA,NA,37,Asian,Male,Filipino,no,no,no,undefined
