workerId,hitId,assignmentId,subject,studyid,exp_date,exp_start,exp_end,time_start,time_end,trial,type,reward_validity,answer,image_top,image_left,image_right,response,response_time,response_acc,volatility,age,race,gender,ethnicity,color,vision,neuro,practice
8KJEc5yk,338glsui56olvzhlkxidlboc564sfp,3u8ycdagxttk8zlcgdfpcoiy3e70qo,8KJEc5yk,2020-0188,2020-05-21,14:14:11,14:31:23,NA,incomplete,0,filling,1,left,Red_Star_Chess_3.jpg,Blue_Triangle_Chess_2.jpg,Green_Star_Grid_4.jpg,left,1673,true,NA,NA,NA,NA,NA,NA,NA,NA,true
8KJEc5yk,338glsui56olvzhlkxidlboc564sfp,3u8ycdagxttk8zlcgdfpcoiy3e70qo,8KJEc5yk,2020-0188,2020-05-21,14:14:11,14:31:23,NA,incomplete,1,filling,1,right,Green_Star_Stripes_1.jpg,Red_Star_Dots_2.jpg,Purple_Circle_Stripes_4.jpg,right,1590,true,NA,NA,NA,NA,NA,NA,NA,NA,true
8KJEc5yk,338glsui56olvzhlkxidlboc564sfp,3u8ycdagxttk8zlcgdfpcoiy3e70qo,8KJEc5yk,2020-0188,2020-05-21,14:14:11,14:31:23,NA,incomplete,2,filling,1,left,Purple_Plus_Dots_3.jpg,Green_Circle_Dots_1.jpg,Blue_Plus_Stripes_2.jpg,left,1620,true,NA,NA,NA,NA,NA,NA,NA,NA,true
8KJEc5yk,338glsui56olvzhlkxidlboc564sfp,3u8ycdagxttk8zlcgdfpcoiy3e70qo,8KJEc5yk,2020-0188,2020-05-21,14:14:11,14:31:23,NA,incomplete,3,filling,1,right,Blue_Circle_Dots_3.jpg,Red_Circle_Chess_1.jpg,Purple_Star_Dots_4.jpg,left,1499,false,NA,NA,NA,NA,NA,NA,NA,NA,true
8KJEc5yk,338glsui56olvzhlkxidlboc564sfp,3u8ycdagxttk8zlcgdfpcoiy3e70qo,8KJEc5yk,2020-0188,2020-05-21,14:14:11,14:31:23,NA,incomplete,4,filling,0,right,Blue_Triangle_Stripes_2.jpg,Red_Triangle_Dots_4.jpg,Purple_Star_Stripes_3.jpg,right,1334,true,NA,NA,NA,NA,NA,NA,NA,NA,true
8KJEc5yk,338glsui56olvzhlkxidlboc564sfp,3u8ycdagxttk8zlcgdfpcoiy3e70qo,8KJEc5yk,2020-0188,2020-05-21,14:14:11,14:31:23,NA,incomplete,5,filling,1,left,Purple_Star_Chess_2.jpg,Blue_Triangle_Chess_3.jpg,Red_Star_Stripes_4.jpg,left,1611,true,NA,NA,NA,NA,NA,NA,NA,NA,true
8KJEc5yk,338glsui56olvzhlkxidlboc564sfp,3u8ycdagxttk8zlcgdfpcoiy3e70qo,8KJEc5yk,2020-0188,2020-05-21,14:14:11,14:31:23,NA,incomplete,6,filling,1,right,Green_Circle_Stripes_3.jpg,Blue_Circle_Chess_1.jpg,Purple_Star_Stripes_2.jpg,right,1229,true,NA,NA,NA,NA,NA,NA,NA,NA,true
8KJEc5yk,338glsui56olvzhlkxidlboc564sfp,3u8ycdagxttk8zlcgdfpcoiy3e70qo,8KJEc5yk,2020-0188,2020-05-21,14:14:11,14:31:23,NA,incomplete,7,filling,0,right,Red_Triangle_Grid_2.jpg,Green_Triangle_Dots_4.jpg,Blue_Circle_Grid_3.jpg,right,1339,true,NA,NA,NA,NA,NA,NA,NA,NA,true
8KJEc5yk,338glsui56olvzhlkxidlboc564sfp,3u8ycdagxttk8zlcgdfpcoiy3e70qo,8KJEc5yk,2020-0188,2020-05-21,14:14:11,14:31:23,NA,incomplete,8,filling,0,left,Purple_Plus_Grid_4.jpg,Green_Star_Grid_2.jpg,Red_Plus_Chess_3.jpg,left,1581,true,NA,NA,NA,NA,NA,NA,NA,NA,true
8KJEc5yk,338glsui56olvzhlkxidlboc564sfp,3u8ycdagxttk8zlcgdfpcoiy3e70qo,8KJEc5yk,2020-0188,2020-05-21,14:14:11,14:31:23,NA,incomplete,9,filling,1,right,Green_Triangle_Stripes_1.jpg,Blue_Triangle_Dots_4.jpg,Red_Circle_Stripes_2.jpg,right,1349,true,NA,NA,NA,NA,NA,NA,NA,NA,true
8KJEc5yk,338glsui56olvzhlkxidlboc564sfp,3u8ycdagxttk8zlcgdfpcoiy3e70qo,8KJEc5yk,2020-0188,2020-05-21,14:14:11,14:31:23,NA,incomplete,10,filling,1,right,Purple_Triangle_Stripes_2.jpg,Green_Triangle_Chess_3.jpg,Blue_Circle_Stripes_4.jpg,right,1386,true,NA,NA,NA,NA,NA,NA,NA,NA,true
8KJEc5yk,338glsui56olvzhlkxidlboc564sfp,3u8ycdagxttk8zlcgdfpcoiy3e70qo,8KJEc5yk,2020-0188,2020-05-21,14:14:11,14:31:23,NA,incomplete,11,filling,1,left,Green_Triangle_Chess_4.jpg,Purple_Plus_Chess_2.jpg,Red_Triangle_Stripes_3.jpg,left,1554,true,NA,NA,NA,NA,NA,NA,NA,NA,true
8KJEc5yk,338glsui56olvzhlkxidlboc564sfp,3u8ycdagxttk8zlcgdfpcoiy3e70qo,8KJEc5yk,2020-0188,2020-05-21,14:14:11,14:31:23,NA,incomplete,12,filling,0,right,Green_Triangle_Stripes_2.jpg,Purple_Triangle_Chess_1.jpg,Blue_Circle_Stripes_4.jpg,right,1267,true,NA,NA,NA,NA,NA,NA,NA,NA,true
8KJEc5yk,338glsui56olvzhlkxidlboc564sfp,3u8ycdagxttk8zlcgdfpcoiy3e70qo,8KJEc5yk,2020-0188,2020-05-21,14:14:11,14:31:23,NA,incomplete,13,filling,0,left,Green_Circle_Grid_4.jpg,Purple_Triangle_Grid_2.jpg,Blue_Circle_Stripes_3.jpg,left,1196,true,NA,NA,NA,NA,NA,NA,NA,NA,true
8KJEc5yk,338glsui56olvzhlkxidlboc564sfp,3u8ycdagxttk8zlcgdfpcoiy3e70qo,8KJEc5yk,2020-0188,2020-05-21,14:14:11,14:31:23,NA,incomplete,14,filling,1,right,Red_Circle_Dots_2.jpg,Purple_Circle_Chess_1.jpg,Green_Triangle_Dots_3.jpg,right,1516,true,NA,NA,NA,NA,NA,NA,NA,NA,true
8KJEc5yk,338glsui56olvzhlkxidlboc564sfp,3u8ycdagxttk8zlcgdfpcoiy3e70qo,8KJEc5yk,2020-0188,2020-05-21,14:14:11,14:31:23,NA,incomplete,15,filling,1,left,Purple_Circle_Stripes_1.jpg,Green_Triangle_Stripes_3.jpg,Blue_Circle_Chess_4.jpg,left,1126,true,NA,NA,NA,NA,NA,NA,NA,NA,true
8KJEc5yk,338glsui56olvzhlkxidlboc564sfp,3u8ycdagxttk8zlcgdfpcoiy3e70qo,8KJEc5yk,2020-0188,2020-05-21,14:14:11,14:31:23,NA,incomplete,16,filling,1,left,Blue_Plus_Chess_3.jpg,Purple_Star_Chess_2.jpg,Red_Plus_Grid_1.jpg,left,1245,true,NA,NA,NA,NA,NA,NA,NA,NA,true
8KJEc5yk,338glsui56olvzhlkxidlboc564sfp,3u8ycdagxttk8zlcgdfpcoiy3e70qo,8KJEc5yk,2020-0188,2020-05-21,14:14:11,14:31:23,NA,incomplete,17,filling,1,right,Blue_Plus_Grid_3.jpg,Purple_Plus_Dots_2.jpg,Red_Triangle_Grid_1.jpg,right,1306,true,NA,NA,NA,NA,NA,NA,NA,NA,true
8KJEc5yk,338glsui56olvzhlkxidlboc564sfp,3u8ycdagxttk8zlcgdfpcoiy3e70qo,8KJEc5yk,2020-0188,2020-05-21,14:14:11,14:31:23,NA,incomplete,18,filling,1,left,Purple_Circle_Chess_3.jpg,Blue_Triangle_Chess_1.jpg,Red_Circle_Stripes_2.jpg,left,948,true,NA,NA,NA,NA,NA,NA,NA,NA,true
8KJEc5yk,338glsui56olvzhlkxidlboc564sfp,3u8ycdagxttk8zlcgdfpcoiy3e70qo,8KJEc5yk,2020-0188,2020-05-21,14:14:11,14:31:23,NA,incomplete,19,filling,1,right,Green_Plus_Stripes_3.jpg,Red_Plus_Dots_4.jpg,Blue_Star_Stripes_1.jpg,right,1042,true,NA,NA,NA,NA,NA,NA,NA,NA,true
8KJEc5yk,338glsui56olvzhlkxidlboc564sfp,3u8ycdagxttk8zlcgdfpcoiy3e70qo,8KJEc5yk,2020-0188,2020-05-21,14:14:11,14:31:23,NA,incomplete,20,shape,1,left,Red_Star_Stripes_1.jpg,Green_Star_Grid_3.jpg,Purple_Plus_Stripes_4.jpg,right,1102,false,NA,NA,NA,NA,NA,NA,NA,NA,true
8KJEc5yk,338glsui56olvzhlkxidlboc564sfp,3u8ycdagxttk8zlcgdfpcoiy3e70qo,8KJEc5yk,2020-0188,2020-05-21,14:14:11,14:31:23,NA,incomplete,21,shape,1,right,Green_Plus_Stripes_2.jpg,Red_Triangle_Stripes_1.jpg,Purple_Plus_Chess_4.jpg,left,1365,false,NA,NA,NA,NA,NA,NA,NA,NA,true
8KJEc5yk,338glsui56olvzhlkxidlboc564sfp,3u8ycdagxttk8zlcgdfpcoiy3e70qo,8KJEc5yk,2020-0188,2020-05-21,14:14:11,14:31:23,NA,incomplete,22,shape,1,right,Red_Circle_Chess_4.jpg,Blue_Star_Chess_2.jpg,Purple_Circle_Grid_3.jpg,right,1413,true,NA,NA,NA,NA,NA,NA,NA,NA,true
8KJEc5yk,338glsui56olvzhlkxidlboc564sfp,3u8ycdagxttk8zlcgdfpcoiy3e70qo,8KJEc5yk,2020-0188,2020-05-21,14:14:11,14:31:23,NA,incomplete,23,shape,1,left,Blue_Plus_Stripes_2.jpg,Red_Plus_Grid_1.jpg,Green_Circle_Stripes_4.jpg,left,1284,true,NA,NA,NA,NA,NA,NA,NA,NA,true
8KJEc5yk,338glsui56olvzhlkxidlboc564sfp,3u8ycdagxttk8zlcgdfpcoiy3e70qo,8KJEc5yk,2020-0188,2020-05-21,14:14:11,14:31:23,NA,incomplete,24,shape,1,left,Red_Star_Grid_4.jpg,Purple_Star_Stripes_3.jpg,Blue_Triangle_Grid_2.jpg,left,956,true,NA,NA,NA,NA,NA,NA,NA,NA,true
8KJEc5yk,338glsui56olvzhlkxidlboc564sfp,3u8ycdagxttk8zlcgdfpcoiy3e70qo,8KJEc5yk,2020-0188,2020-05-21,14:14:11,14:31:23,NA,incomplete,25,shape,1,right,Red_Triangle_Chess_2.jpg,Blue_Circle_Chess_1.jpg,Green_Triangle_Stripes_3.jpg,right,826,true,NA,NA,NA,NA,NA,NA,NA,NA,true
8KJEc5yk,338glsui56olvzhlkxidlboc564sfp,3u8ycdagxttk8zlcgdfpcoiy3e70qo,8KJEc5yk,2020-0188,2020-05-21,14:14:11,14:31:23,NA,incomplete,26,shape,1,left,Purple_Circle_Chess_4.jpg,Red_Circle_Grid_1.jpg,Blue_Plus_Chess_3.jpg,left,1141,true,NA,NA,NA,NA,NA,NA,NA,NA,true
8KJEc5yk,338glsui56olvzhlkxidlboc564sfp,3u8ycdagxttk8zlcgdfpcoiy3e70qo,8KJEc5yk,2020-0188,2020-05-21,14:14:11,14:31:23,NA,incomplete,27,shape,1,right,Green_Plus_Grid_2.jpg,Blue_Star_Grid_1.jpg,Red_Plus_Stripes_4.jpg,right,778,true,NA,NA,NA,NA,NA,NA,NA,NA,true
8KJEc5yk,338glsui56olvzhlkxidlboc564sfp,3u8ycdagxttk8zlcgdfpcoiy3e70qo,8KJEc5yk,2020-0188,2020-05-21,14:14:11,14:31:23,NA,incomplete,28,shape,1,right,Purple_Circle_Stripes_2.jpg,Red_Star_Stripes_1.jpg,Blue_Circle_Grid_3.jpg,right,739,true,NA,NA,NA,NA,NA,NA,NA,NA,true
8KJEc5yk,338glsui56olvzhlkxidlboc564sfp,3u8ycdagxttk8zlcgdfpcoiy3e70qo,8KJEc5yk,2020-0188,2020-05-21,14:14:11,14:31:23,NA,incomplete,29,shape,1,left,Blue_Triangle_Chess_4.jpg,Purple_Triangle_Stripes_1.jpg,Red_Plus_Chess_2.jpg,left,946,true,NA,NA,NA,NA,NA,NA,NA,NA,true
8KJEc5yk,338glsui56olvzhlkxidlboc564sfp,3u8ycdagxttk8zlcgdfpcoiy3e70qo,8KJEc5yk,2020-0188,2020-05-21,14:14:11,14:31:23,NA,incomplete,30,shape,1,left,Purple_Circle_Dots_3.jpg,Red_Circle_Stripes_2.jpg,Green_Plus_Dots_1.jpg,left,646,true,NA,NA,NA,NA,NA,NA,NA,NA,true
8KJEc5yk,338glsui56olvzhlkxidlboc564sfp,3u8ycdagxttk8zlcgdfpcoiy3e70qo,8KJEc5yk,2020-0188,2020-05-21,14:14:11,14:31:23,NA,incomplete,31,shape,1,right,Blue_Triangle_Chess_2.jpg,Red_Circle_Chess_4.jpg,Green_Triangle_Stripes_1.jpg,right,892,true,NA,NA,NA,NA,NA,NA,NA,NA,true
8KJEc5yk,338glsui56olvzhlkxidlboc564sfp,3u8ycdagxttk8zlcgdfpcoiy3e70qo,8KJEc5yk,2020-0188,2020-05-21,14:14:11,14:31:23,NA,incomplete,32,shape,1,left,Purple_Triangle_Grid_1.jpg,Green_Triangle_Dots_4.jpg,Red_Star_Grid_2.jpg,left,860,true,NA,NA,NA,NA,NA,NA,NA,NA,true
8KJEc5yk,338glsui56olvzhlkxidlboc564sfp,3u8ycdagxttk8zlcgdfpcoiy3e70qo,8KJEc5yk,2020-0188,2020-05-21,14:14:11,14:31:23,NA,incomplete,33,shape,1,right,Blue_Triangle_Grid_3.jpg,Red_Plus_Grid_2.jpg,Green_Triangle_Dots_4.jpg,right,860,true,NA,NA,NA,NA,NA,NA,NA,NA,true
8KJEc5yk,338glsui56olvzhlkxidlboc564sfp,3u8ycdagxttk8zlcgdfpcoiy3e70qo,8KJEc5yk,2020-0188,2020-05-21,14:14:11,14:31:23,NA,incomplete,34,shape,1,left,Green_Star_Dots_4.jpg,Purple_Star_Grid_2.jpg,Blue_Triangle_Dots_1.jpg,left,667,true,NA,NA,NA,NA,NA,NA,NA,NA,true
8KJEc5yk,338glsui56olvzhlkxidlboc564sfp,3u8ycdagxttk8zlcgdfpcoiy3e70qo,8KJEc5yk,2020-0188,2020-05-21,14:14:11,14:31:23,NA,incomplete,35,shape,0,right,Purple_Star_Dots_4.jpg,Green_Plus_Dots_3.jpg,Blue_Star_Chess_1.jpg,right,884,true,NA,NA,NA,NA,NA,NA,NA,NA,true
8KJEc5yk,338glsui56olvzhlkxidlboc564sfp,3u8ycdagxttk8zlcgdfpcoiy3e70qo,8KJEc5yk,2020-0188,2020-05-21,14:14:11,14:31:23,NA,incomplete,36,shape,0,left,Red_Circle_Dots_3.jpg,Purple_Circle_Stripes_4.jpg,Blue_Star_Dots_2.jpg,left,757,true,NA,NA,NA,NA,NA,NA,NA,NA,true
8KJEc5yk,338glsui56olvzhlkxidlboc564sfp,3u8ycdagxttk8zlcgdfpcoiy3e70qo,8KJEc5yk,2020-0188,2020-05-21,14:14:11,14:31:23,NA,incomplete,37,shape,0,right,Red_Circle_Grid_2.jpg,Blue_Plus_Grid_4.jpg,Purple_Circle_Dots_3.jpg,right,803,true,NA,NA,NA,NA,NA,NA,NA,NA,true
8KJEc5yk,338glsui56olvzhlkxidlboc564sfp,3u8ycdagxttk8zlcgdfpcoiy3e70qo,8KJEc5yk,2020-0188,2020-05-21,14:14:11,14:31:23,NA,incomplete,38,shape,1,left,Green_Star_Stripes_3.jpg,Blue_Star_Dots_1.jpg,Red_Plus_Stripes_2.jpg,left,827,true,NA,NA,NA,NA,NA,NA,NA,NA,true
8KJEc5yk,338glsui56olvzhlkxidlboc564sfp,3u8ycdagxttk8zlcgdfpcoiy3e70qo,8KJEc5yk,2020-0188,2020-05-21,14:14:11,14:31:23,NA,incomplete,39,shape,1,right,Red_Circle_Chess_2.jpg,Blue_Plus_Chess_1.jpg,Green_Circle_Dots_3.jpg,right,697,true,NA,NA,NA,NA,NA,NA,NA,NA,true
8KJEc5yk,338glsui56olvzhlkxidlboc564sfp,3u8ycdagxttk8zlcgdfpcoiy3e70qo,8KJEc5yk,2020-0188,2020-05-21,14:14:11,14:31:23,NA,incomplete,0,filling,1,right,Purple_Triangle_Chess_4.jpg,Green_Triangle_Dots_3.jpg,Red_Star_Chess_2.jpg,left,845,false,high,NA,NA,NA,NA,NA,NA,NA,false
8KJEc5yk,338glsui56olvzhlkxidlboc564sfp,3u8ycdagxttk8zlcgdfpcoiy3e70qo,8KJEc5yk,2020-0188,2020-05-21,14:14:11,14:31:23,NA,incomplete,1,filling,1,left,Green_Star_Stripes_1.jpg,Purple_Triangle_Stripes_4.jpg,Blue_Star_Chess_2.jpg,left,980,true,high,NA,NA,NA,NA,NA,NA,NA,false
8KJEc5yk,338glsui56olvzhlkxidlboc564sfp,3u8ycdagxttk8zlcgdfpcoiy3e70qo,8KJEc5yk,2020-0188,2020-05-21,14:14:11,14:31:23,NA,incomplete,2,filling,1,right,Red_Plus_Dots_4.jpg,Green_Plus_Grid_1.jpg,Blue_Circle_Dots_2.jpg,right,1028,true,high,NA,NA,NA,NA,NA,NA,NA,false
8KJEc5yk,338glsui56olvzhlkxidlboc564sfp,3u8ycdagxttk8zlcgdfpcoiy3e70qo,8KJEc5yk,2020-0188,2020-05-21,14:14:11,14:31:23,NA,incomplete,3,filling,0,left,Green_Plus_Dots_2.jpg,Purple_Triangle_Dots_3.jpg,Blue_Plus_Stripes_4.jpg,left,1059,true,high,NA,NA,NA,NA,NA,NA,NA,false
8KJEc5yk,338glsui56olvzhlkxidlboc564sfp,3u8ycdagxttk8zlcgdfpcoiy3e70qo,8KJEc5yk,2020-0188,2020-05-21,14:14:11,14:31:23,NA,incomplete,4,filling,1,left,Red_Triangle_Chess_3.jpg,Green_Plus_Chess_4.jpg,Purple_Triangle_Grid_2.jpg,left,973,true,high,NA,NA,NA,NA,NA,NA,NA,false
8KJEc5yk,338glsui56olvzhlkxidlboc564sfp,3u8ycdagxttk8zlcgdfpcoiy3e70qo,8KJEc5yk,2020-0188,2020-05-21,14:14:11,14:31:23,NA,incomplete,5,filling,1,left,Green_Triangle_Grid_3.jpg,Blue_Star_Grid_4.jpg,Red_Triangle_Stripes_1.jpg,left,1278,true,high,NA,NA,NA,NA,NA,NA,NA,false
8KJEc5yk,338glsui56olvzhlkxidlboc564sfp,3u8ycdagxttk8zlcgdfpcoiy3e70qo,8KJEc5yk,2020-0188,2020-05-21,14:14:11,14:31:23,NA,incomplete,6,filling,1,right,Red_Star_Chess_3.jpg,Green_Star_Dots_1.jpg,Purple_Circle_Chess_4.jpg,right,994,true,high,NA,NA,NA,NA,NA,NA,NA,false
8KJEc5yk,338glsui56olvzhlkxidlboc564sfp,3u8ycdagxttk8zlcgdfpcoiy3e70qo,8KJEc5yk,2020-0188,2020-05-21,14:14:11,14:31:23,NA,incomplete,7,filling,1,right,Purple_Star_Stripes_3.jpg,Red_Star_Chess_1.jpg,Green_Circle_Stripes_4.jpg,right,897,true,high,NA,NA,NA,NA,NA,NA,NA,false
8KJEc5yk,338glsui56olvzhlkxidlboc564sfp,3u8ycdagxttk8zlcgdfpcoiy3e70qo,8KJEc5yk,2020-0188,2020-05-21,14:14:11,14:31:23,NA,incomplete,8,filling,0,left,Red_Plus_Dots_3.jpg,Blue_Star_Dots_2.jpg,Green_Plus_Grid_1.jpg,left,929,true,high,NA,NA,NA,NA,NA,NA,NA,false
8KJEc5yk,338glsui56olvzhlkxidlboc564sfp,3u8ycdagxttk8zlcgdfpcoiy3e70qo,8KJEc5yk,2020-0188,2020-05-21,14:14:11,14:31:23,NA,incomplete,9,filling,1,right,Blue_Circle_Dots_3.jpg,Green_Circle_Chess_2.jpg,Purple_Triangle_Dots_4.jpg,right,1013,true,high,NA,NA,NA,NA,NA,NA,NA,false
8KJEc5yk,338glsui56olvzhlkxidlboc564sfp,3u8ycdagxttk8zlcgdfpcoiy3e70qo,8KJEc5yk,2020-0188,2020-05-21,14:14:11,14:31:23,NA,incomplete,10,shape,1,right,Purple_Triangle_Grid_2.jpg,Blue_Circle_Grid_4.jpg,Green_Triangle_Stripes_3.jpg,left,1059,false,high,NA,NA,NA,NA,NA,NA,NA,false
8KJEc5yk,338glsui56olvzhlkxidlboc564sfp,3u8ycdagxttk8zlcgdfpcoiy3e70qo,8KJEc5yk,2020-0188,2020-05-21,14:14:11,14:31:23,NA,incomplete,11,shape,1,right,Purple_Star_Dots_2.jpg,Green_Triangle_Dots_3.jpg,Blue_Star_Chess_1.jpg,left,1092,false,high,NA,NA,NA,NA,NA,NA,NA,false
8KJEc5yk,338glsui56olvzhlkxidlboc564sfp,3u8ycdagxttk8zlcgdfpcoiy3e70qo,8KJEc5yk,2020-0188,2020-05-21,14:14:11,14:31:23,NA,incomplete,12,shape,1,left,Green_Star_Dots_3.jpg,Purple_Star_Stripes_2.jpg,Blue_Triangle_Dots_1.jpg,left,685,true,high,NA,NA,NA,NA,NA,NA,NA,false
8KJEc5yk,338glsui56olvzhlkxidlboc564sfp,3u8ycdagxttk8zlcgdfpcoiy3e70qo,8KJEc5yk,2020-0188,2020-05-21,14:14:11,14:31:23,NA,incomplete,13,shape,0,left,Red_Circle_Grid_3.jpg,Purple_Circle_Chess_2.jpg,Green_Star_Grid_1.jpg,left,833,true,high,NA,NA,NA,NA,NA,NA,NA,false
8KJEc5yk,338glsui56olvzhlkxidlboc564sfp,3u8ycdagxttk8zlcgdfpcoiy3e70qo,8KJEc5yk,2020-0188,2020-05-21,14:14:11,14:31:23,NA,incomplete,14,shape,0,right,Red_Star_Chess_1.jpg,Purple_Plus_Chess_4.jpg,Blue_Star_Dots_2.jpg,right,749,true,high,NA,NA,NA,NA,NA,NA,NA,false
8KJEc5yk,338glsui56olvzhlkxidlboc564sfp,3u8ycdagxttk8zlcgdfpcoiy3e70qo,8KJEc5yk,2020-0188,2020-05-21,14:14:11,14:31:23,NA,incomplete,15,shape,1,left,Purple_Plus_Grid_4.jpg,Green_Plus_Dots_3.jpg,Red_Triangle_Grid_2.jpg,right,1035,false,high,NA,NA,NA,NA,NA,NA,NA,false
8KJEc5yk,338glsui56olvzhlkxidlboc564sfp,3u8ycdagxttk8zlcgdfpcoiy3e70qo,8KJEc5yk,2020-0188,2020-05-21,14:14:11,14:31:23,NA,incomplete,16,shape,1,left,Blue_Star_Chess_4.jpg,Green_Star_Stripes_1.jpg,Red_Circle_Chess_2.jpg,right,1037,false,high,NA,NA,NA,NA,NA,NA,NA,false
8KJEc5yk,338glsui56olvzhlkxidlboc564sfp,3u8ycdagxttk8zlcgdfpcoiy3e70qo,8KJEc5yk,2020-0188,2020-05-21,14:14:11,14:31:23,NA,incomplete,17,shape,1,right,Green_Triangle_Grid_3.jpg,Purple_Circle_Grid_4.jpg,Red_Triangle_Chess_1.jpg,right,948,true,high,NA,NA,NA,NA,NA,NA,NA,false
8KJEc5yk,338glsui56olvzhlkxidlboc564sfp,3u8ycdagxttk8zlcgdfpcoiy3e70qo,8KJEc5yk,2020-0188,2020-05-21,14:14:11,14:31:23,NA,incomplete,18,shape,1,left,Red_Triangle_Chess_4.jpg,Green_Triangle_Dots_2.jpg,Purple_Plus_Chess_3.jpg,left,689,true,high,NA,NA,NA,NA,NA,NA,NA,false
8KJEc5yk,338glsui56olvzhlkxidlboc564sfp,3u8ycdagxttk8zlcgdfpcoiy3e70qo,8KJEc5yk,2020-0188,2020-05-21,14:14:11,14:31:23,NA,incomplete,19,shape,0,left,Green_Plus_Dots_2.jpg,Purple_Plus_Grid_3.jpg,Red_Triangle_Dots_1.jpg,left,619,true,high,NA,NA,NA,NA,NA,NA,NA,false
8KJEc5yk,338glsui56olvzhlkxidlboc564sfp,3u8ycdagxttk8zlcgdfpcoiy3e70qo,8KJEc5yk,2020-0188,2020-05-21,14:14:11,14:31:23,NA,incomplete,20,filling,0,right,Red_Triangle_Chess_1.jpg,Green_Triangle_Grid_4.jpg,Blue_Circle_Chess_3.jpg,left,722,false,high,NA,NA,NA,NA,NA,NA,NA,false
8KJEc5yk,338glsui56olvzhlkxidlboc564sfp,3u8ycdagxttk8zlcgdfpcoiy3e70qo,8KJEc5yk,2020-0188,2020-05-21,14:14:11,14:31:23,NA,incomplete,21,filling,1,left,Red_Plus_Grid_2.jpg,Green_Triangle_Grid_4.jpg,Purple_Plus_Dots_3.jpg,right,750,false,high,NA,NA,NA,NA,NA,NA,NA,false
8KJEc5yk,338glsui56olvzhlkxidlboc564sfp,3u8ycdagxttk8zlcgdfpcoiy3e70qo,8KJEc5yk,2020-0188,2020-05-21,14:14:11,14:31:23,NA,incomplete,22,filling,1,right,Blue_Circle_Chess_2.jpg,Purple_Circle_Stripes_4.jpg,Green_Triangle_Chess_1.jpg,left,660,false,high,NA,NA,NA,NA,NA,NA,NA,false
8KJEc5yk,338glsui56olvzhlkxidlboc564sfp,3u8ycdagxttk8zlcgdfpcoiy3e70qo,8KJEc5yk,2020-0188,2020-05-21,14:14:11,14:31:23,NA,incomplete,23,filling,0,right,Green_Star_Chess_1.jpg,Blue_Star_Grid_3.jpg,Purple_Triangle_Chess_2.jpg,right,1026,true,high,NA,NA,NA,NA,NA,NA,NA,false
8KJEc5yk,338glsui56olvzhlkxidlboc564sfp,3u8ycdagxttk8zlcgdfpcoiy3e70qo,8KJEc5yk,2020-0188,2020-05-21,14:14:11,14:31:23,NA,incomplete,24,filling,1,right,Red_Plus_Dots_3.jpg,Blue_Plus_Stripes_1.jpg,Green_Star_Dots_4.jpg,right,1012,true,high,NA,NA,NA,NA,NA,NA,NA,false
8KJEc5yk,338glsui56olvzhlkxidlboc564sfp,3u8ycdagxttk8zlcgdfpcoiy3e70qo,8KJEc5yk,2020-0188,2020-05-21,14:14:11,14:31:23,NA,incomplete,25,filling,1,left,Green_Star_Chess_1.jpg,Blue_Triangle_Chess_4.jpg,Purple_Star_Stripes_2.jpg,left,1043,true,high,NA,NA,NA,NA,NA,NA,NA,false
8KJEc5yk,338glsui56olvzhlkxidlboc564sfp,3u8ycdagxttk8zlcgdfpcoiy3e70qo,8KJEc5yk,2020-0188,2020-05-21,14:14:11,14:31:23,NA,incomplete,26,filling,1,right,Green_Circle_Chess_4.jpg,Purple_Circle_Dots_2.jpg,Blue_Star_Chess_1.jpg,right,962,true,high,NA,NA,NA,NA,NA,NA,NA,false
8KJEc5yk,338glsui56olvzhlkxidlboc564sfp,3u8ycdagxttk8zlcgdfpcoiy3e70qo,8KJEc5yk,2020-0188,2020-05-21,14:14:11,14:31:23,NA,incomplete,27,filling,1,left,Green_Star_Grid_1.jpg,Purple_Triangle_Grid_2.jpg,Blue_Star_Stripes_4.jpg,left,915,true,high,NA,NA,NA,NA,NA,NA,NA,false
8KJEc5yk,338glsui56olvzhlkxidlboc564sfp,3u8ycdagxttk8zlcgdfpcoiy3e70qo,8KJEc5yk,2020-0188,2020-05-21,14:14:11,14:31:23,NA,incomplete,28,filling,0,left,Green_Triangle_Chess_1.jpg,Blue_Plus_Chess_2.jpg,Purple_Triangle_Dots_4.jpg,left,938,true,high,NA,NA,NA,NA,NA,NA,NA,false
8KJEc5yk,338glsui56olvzhlkxidlboc564sfp,3u8ycdagxttk8zlcgdfpcoiy3e70qo,8KJEc5yk,2020-0188,2020-05-21,14:14:11,14:31:23,NA,incomplete,29,filling,1,left,Green_Plus_Grid_2.jpg,Purple_Circle_Grid_4.jpg,Red_Plus_Stripes_1.jpg,left,1021,true,high,NA,NA,NA,NA,NA,NA,NA,false
8KJEc5yk,338glsui56olvzhlkxidlboc564sfp,3u8ycdagxttk8zlcgdfpcoiy3e70qo,8KJEc5yk,2020-0188,2020-05-21,14:14:11,14:31:23,NA,incomplete,30,shape,0,right,Purple_Triangle_Dots_1.jpg,Green_Plus_Dots_4.jpg,Red_Triangle_Grid_2.jpg,left,932,false,high,NA,NA,NA,NA,NA,NA,NA,false
8KJEc5yk,338glsui56olvzhlkxidlboc564sfp,3u8ycdagxttk8zlcgdfpcoiy3e70qo,8KJEc5yk,2020-0188,2020-05-21,14:14:11,14:31:23,NA,incomplete,31,shape,1,left,Green_Star_Stripes_2.jpg,Red_Star_Dots_4.jpg,Blue_Triangle_Stripes_3.jpg,right,994,false,high,NA,NA,NA,NA,NA,NA,NA,false
8KJEc5yk,338glsui56olvzhlkxidlboc564sfp,3u8ycdagxttk8zlcgdfpcoiy3e70qo,8KJEc5yk,2020-0188,2020-05-21,14:14:11,14:31:23,NA,incomplete,32,shape,1,right,Blue_Plus_Chess_2.jpg,Green_Star_Chess_4.jpg,Red_Plus_Dots_1.jpg,left,1026,false,high,NA,NA,NA,NA,NA,NA,NA,false
8KJEc5yk,338glsui56olvzhlkxidlboc564sfp,3u8ycdagxttk8zlcgdfpcoiy3e70qo,8KJEc5yk,2020-0188,2020-05-21,14:14:11,14:31:23,NA,incomplete,33,shape,1,right,Blue_Star_Chess_3.jpg,Red_Plus_Chess_2.jpg,Purple_Star_Stripes_4.jpg,right,733,true,high,NA,NA,NA,NA,NA,NA,NA,false
8KJEc5yk,338glsui56olvzhlkxidlboc564sfp,3u8ycdagxttk8zlcgdfpcoiy3e70qo,8KJEc5yk,2020-0188,2020-05-21,14:14:11,14:31:23,NA,incomplete,34,shape,1,right,Green_Plus_Stripes_4.jpg,Red_Triangle_Stripes_3.jpg,Blue_Plus_Dots_2.jpg,right,660,true,high,NA,NA,NA,NA,NA,NA,NA,false
8KJEc5yk,338glsui56olvzhlkxidlboc564sfp,3u8ycdagxttk8zlcgdfpcoiy3e70qo,8KJEc5yk,2020-0188,2020-05-21,14:14:11,14:31:23,NA,incomplete,35,shape,1,left,Red_Star_Grid_4.jpg,Blue_Star_Dots_1.jpg,Green_Plus_Grid_3.jpg,left,730,true,high,NA,NA,NA,NA,NA,NA,NA,false
8KJEc5yk,338glsui56olvzhlkxidlboc564sfp,3u8ycdagxttk8zlcgdfpcoiy3e70qo,8KJEc5yk,2020-0188,2020-05-21,14:14:11,14:31:23,NA,incomplete,36,shape,1,right,Red_Circle_Dots_2.jpg,Blue_Triangle_Dots_1.jpg,Green_Circle_Grid_3.jpg,right,605,true,high,NA,NA,NA,NA,NA,NA,NA,false
8KJEc5yk,338glsui56olvzhlkxidlboc564sfp,3u8ycdagxttk8zlcgdfpcoiy3e70qo,8KJEc5yk,2020-0188,2020-05-21,14:14:11,14:31:23,NA,incomplete,37,shape,1,right,Green_Plus_Stripes_1.jpg,Red_Star_Stripes_4.jpg,Purple_Plus_Dots_2.jpg,right,829,true,high,NA,NA,NA,NA,NA,NA,NA,false
8KJEc5yk,338glsui56olvzhlkxidlboc564sfp,3u8ycdagxttk8zlcgdfpcoiy3e70qo,8KJEc5yk,2020-0188,2020-05-21,14:14:11,14:31:23,NA,incomplete,38,shape,1,left,Red_Circle_Dots_1.jpg,Purple_Circle_Chess_3.jpg,Blue_Star_Dots_4.jpg,left,580,true,high,NA,NA,NA,NA,NA,NA,NA,false
8KJEc5yk,338glsui56olvzhlkxidlboc564sfp,3u8ycdagxttk8zlcgdfpcoiy3e70qo,8KJEc5yk,2020-0188,2020-05-21,14:14:11,14:31:23,NA,incomplete,39,shape,1,left,Red_Circle_Stripes_2.jpg,Purple_Circle_Dots_1.jpg,Blue_Plus_Stripes_4.jpg,left,778,true,high,NA,NA,NA,NA,NA,NA,NA,false
8KJEc5yk,338glsui56olvzhlkxidlboc564sfp,3u8ycdagxttk8zlcgdfpcoiy3e70qo,8KJEc5yk,2020-0188,2020-05-21,14:14:11,14:31:23,NA,incomplete,40,filling,1,left,Purple_Star_Dots_3.jpg,Blue_Triangle_Dots_4.jpg,Red_Star_Stripes_1.jpg,right,690,false,high,NA,NA,NA,NA,NA,NA,NA,false
8KJEc5yk,338glsui56olvzhlkxidlboc564sfp,3u8ycdagxttk8zlcgdfpcoiy3e70qo,8KJEc5yk,2020-0188,2020-05-21,14:14:11,14:31:23,NA,incomplete,41,filling,1,left,Red_Star_Stripes_1.jpg,Purple_Plus_Stripes_4.jpg,Blue_Star_Dots_2.jpg,right,595,false,high,NA,NA,NA,NA,NA,NA,NA,false
8KJEc5yk,338glsui56olvzhlkxidlboc564sfp,3u8ycdagxttk8zlcgdfpcoiy3e70qo,8KJEc5yk,2020-0188,2020-05-21,14:14:11,14:31:23,NA,incomplete,42,filling,1,right,Purple_Circle_Dots_4.jpg,Blue_Circle_Chess_3.jpg,Green_Triangle_Dots_1.jpg,right,980,true,high,NA,NA,NA,NA,NA,NA,NA,false
8KJEc5yk,338glsui56olvzhlkxidlboc564sfp,3u8ycdagxttk8zlcgdfpcoiy3e70qo,8KJEc5yk,2020-0188,2020-05-21,14:14:11,14:31:23,NA,incomplete,43,filling,1,left,Blue_Circle_Dots_1.jpg,Red_Plus_Dots_2.jpg,Green_Circle_Stripes_4.jpg,left,885,true,high,NA,NA,NA,NA,NA,NA,NA,false
8KJEc5yk,338glsui56olvzhlkxidlboc564sfp,3u8ycdagxttk8zlcgdfpcoiy3e70qo,8KJEc5yk,2020-0188,2020-05-21,14:14:11,14:31:23,NA,incomplete,44,filling,0,right,Blue_Circle_Grid_2.jpg,Red_Circle_Chess_3.jpg,Purple_Plus_Grid_4.jpg,right,1070,true,high,NA,NA,NA,NA,NA,NA,NA,false
8KJEc5yk,338glsui56olvzhlkxidlboc564sfp,3u8ycdagxttk8zlcgdfpcoiy3e70qo,8KJEc5yk,2020-0188,2020-05-21,14:14:11,14:31:23,NA,incomplete,45,filling,1,right,Red_Triangle_Grid_4.jpg,Green_Triangle_Stripes_3.jpg,Purple_Plus_Grid_1.jpg,right,1147,true,high,NA,NA,NA,NA,NA,NA,NA,false
8KJEc5yk,338glsui56olvzhlkxidlboc564sfp,3u8ycdagxttk8zlcgdfpcoiy3e70qo,8KJEc5yk,2020-0188,2020-05-21,14:14:11,14:31:23,NA,incomplete,46,filling,1,left,Green_Star_Chess_3.jpg,Purple_Circle_Chess_4.jpg,Red_Star_Grid_1.jpg,left,972,true,high,NA,NA,NA,NA,NA,NA,NA,false
8KJEc5yk,338glsui56olvzhlkxidlboc564sfp,3u8ycdagxttk8zlcgdfpcoiy3e70qo,8KJEc5yk,2020-0188,2020-05-21,14:14:11,14:31:23,NA,incomplete,47,filling,0,left,Purple_Circle_Chess_3.jpg,Blue_Plus_Chess_2.jpg,Red_Circle_Dots_1.jpg,left,749,true,high,NA,NA,NA,NA,NA,NA,NA,false
8KJEc5yk,338glsui56olvzhlkxidlboc564sfp,3u8ycdagxttk8zlcgdfpcoiy3e70qo,8KJEc5yk,2020-0188,2020-05-21,14:14:11,14:31:23,NA,incomplete,48,filling,1,left,Green_Star_Stripes_2.jpg,Blue_Triangle_Stripes_4.jpg,Purple_Star_Grid_3.jpg,left,1091,true,high,NA,NA,NA,NA,NA,NA,NA,false
8KJEc5yk,338glsui56olvzhlkxidlboc564sfp,3u8ycdagxttk8zlcgdfpcoiy3e70qo,8KJEc5yk,2020-0188,2020-05-21,14:14:11,14:31:23,NA,incomplete,49,filling,1,left,Blue_Circle_Grid_4.jpg,Purple_Star_Grid_2.jpg,Green_Circle_Stripes_3.jpg,left,995,true,high,NA,NA,NA,NA,NA,NA,NA,false
8KJEc5yk,338glsui56olvzhlkxidlboc564sfp,3u8ycdagxttk8zlcgdfpcoiy3e70qo,8KJEc5yk,2020-0188,2020-05-21,14:14:11,14:31:23,NA,incomplete,50,shape,0,right,Green_Star_Stripes_1.jpg,Blue_Circle_Stripes_2.jpg,Red_Star_Dots_4.jpg,left,948,false,high,NA,NA,NA,NA,NA,NA,NA,false
8KJEc5yk,338glsui56olvzhlkxidlboc564sfp,3u8ycdagxttk8zlcgdfpcoiy3e70qo,8KJEc5yk,2020-0188,2020-05-21,14:14:11,14:31:23,NA,incomplete,51,shape,0,right,Red_Star_Chess_1.jpg,Purple_Triangle_Chess_2.jpg,Blue_Star_Grid_4.jpg,left,885,false,high,NA,NA,NA,NA,NA,NA,NA,false
8KJEc5yk,338glsui56olvzhlkxidlboc564sfp,3u8ycdagxttk8zlcgdfpcoiy3e70qo,8KJEc5yk,2020-0188,2020-05-21,14:14:11,14:31:23,NA,incomplete,52,shape,1,left,Blue_Star_Chess_2.jpg,Green_Star_Grid_4.jpg,Purple_Plus_Chess_1.jpg,right,994,false,high,NA,NA,NA,NA,NA,NA,NA,false
8KJEc5yk,338glsui56olvzhlkxidlboc564sfp,3u8ycdagxttk8zlcgdfpcoiy3e70qo,8KJEc5yk,2020-0188,2020-05-21,14:14:11,14:31:23,NA,incomplete,53,shape,1,right,Green_Plus_Grid_3.jpg,Red_Circle_Grid_2.jpg,Purple_Plus_Chess_4.jpg,left,1018,false,high,NA,NA,NA,NA,NA,NA,NA,false
8KJEc5yk,338glsui56olvzhlkxidlboc564sfp,3u8ycdagxttk8zlcgdfpcoiy3e70qo,8KJEc5yk,2020-0188,2020-05-21,14:14:11,14:31:23,NA,incomplete,54,shape,1,right,Purple_Circle_Dots_2.jpg,Red_Star_Dots_4.jpg,Blue_Circle_Stripes_3.jpg,right,669,true,high,NA,NA,NA,NA,NA,NA,NA,false
8KJEc5yk,338glsui56olvzhlkxidlboc564sfp,3u8ycdagxttk8zlcgdfpcoiy3e70qo,8KJEc5yk,2020-0188,2020-05-21,14:14:11,14:31:23,NA,incomplete,55,shape,1,right,Blue_Star_Stripes_3.jpg,Green_Circle_Stripes_1.jpg,Purple_Star_Grid_2.jpg,right,899,true,high,NA,NA,NA,NA,NA,NA,NA,false
8KJEc5yk,338glsui56olvzhlkxidlboc564sfp,3u8ycdagxttk8zlcgdfpcoiy3e70qo,8KJEc5yk,2020-0188,2020-05-21,14:14:11,14:31:23,NA,incomplete,56,shape,1,right,Purple_Circle_Grid_2.jpg,Blue_Triangle_Grid_4.jpg,Green_Circle_Chess_3.jpg,right,603,true,high,NA,NA,NA,NA,NA,NA,NA,false
8KJEc5yk,338glsui56olvzhlkxidlboc564sfp,3u8ycdagxttk8zlcgdfpcoiy3e70qo,8KJEc5yk,2020-0188,2020-05-21,14:14:11,14:31:23,NA,incomplete,57,shape,1,right,Blue_Triangle_Chess_3.jpg,Green_Plus_Chess_1.jpg,Purple_Triangle_Grid_4.jpg,right,891,true,high,NA,NA,NA,NA,NA,NA,NA,false
8KJEc5yk,338glsui56olvzhlkxidlboc564sfp,3u8ycdagxttk8zlcgdfpcoiy3e70qo,8KJEc5yk,2020-0188,2020-05-21,14:14:11,14:31:23,NA,incomplete,58,shape,1,left,Blue_Triangle_Grid_4.jpg,Red_Triangle_Chess_1.jpg,Green_Plus_Grid_3.jpg,left,699,true,high,NA,NA,NA,NA,NA,NA,NA,false
8KJEc5yk,338glsui56olvzhlkxidlboc564sfp,3u8ycdagxttk8zlcgdfpcoiy3e70qo,8KJEc5yk,2020-0188,2020-05-21,14:14:11,14:31:23,NA,incomplete,59,shape,1,left,Green_Circle_Chess_4.jpg,Purple_Circle_Stripes_2.jpg,Blue_Triangle_Chess_1.jpg,left,612,true,high,NA,NA,NA,NA,NA,NA,NA,false
8KJEc5yk,338glsui56olvzhlkxidlboc564sfp,3u8ycdagxttk8zlcgdfpcoiy3e70qo,8KJEc5yk,2020-0188,2020-05-21,14:14:11,14:31:23,NA,incomplete,60,filling,1,left,Green_Circle_Dots_1.jpg,Red_Plus_Dots_2.jpg,Purple_Circle_Chess_3.jpg,right,636,false,high,NA,NA,NA,NA,NA,NA,NA,false
8KJEc5yk,338glsui56olvzhlkxidlboc564sfp,3u8ycdagxttk8zlcgdfpcoiy3e70qo,8KJEc5yk,2020-0188,2020-05-21,14:14:11,14:31:23,NA,incomplete,61,filling,1,right,Green_Circle_Dots_3.jpg,Purple_Circle_Chess_4.jpg,Red_Plus_Dots_2.jpg,left,811,false,high,NA,NA,NA,NA,NA,NA,NA,false
8KJEc5yk,338glsui56olvzhlkxidlboc564sfp,3u8ycdagxttk8zlcgdfpcoiy3e70qo,8KJEc5yk,2020-0188,2020-05-21,14:14:11,14:31:23,NA,incomplete,62,filling,1,left,Red_Plus_Chess_1.jpg,Purple_Star_Chess_3.jpg,Blue_Plus_Dots_4.jpg,left,882,true,high,NA,NA,NA,NA,NA,NA,NA,false
8KJEc5yk,338glsui56olvzhlkxidlboc564sfp,3u8ycdagxttk8zlcgdfpcoiy3e70qo,8KJEc5yk,2020-0188,2020-05-21,14:14:11,14:31:23,NA,incomplete,63,filling,1,left,Green_Circle_Chess_4.jpg,Blue_Plus_Chess_1.jpg,Purple_Circle_Stripes_2.jpg,left,924,true,high,NA,NA,NA,NA,NA,NA,NA,false
8KJEc5yk,338glsui56olvzhlkxidlboc564sfp,3u8ycdagxttk8zlcgdfpcoiy3e70qo,8KJEc5yk,2020-0188,2020-05-21,14:14:11,14:31:23,NA,incomplete,64,filling,1,left,Blue_Star_Grid_4.jpg,Green_Plus_Grid_1.jpg,Red_Star_Chess_3.jpg,left,1002,true,high,NA,NA,NA,NA,NA,NA,NA,false
8KJEc5yk,338glsui56olvzhlkxidlboc564sfp,3u8ycdagxttk8zlcgdfpcoiy3e70qo,8KJEc5yk,2020-0188,2020-05-21,14:14:11,14:31:23,NA,incomplete,65,filling,1,right,Green_Star_Chess_2.jpg,Purple_Star_Grid_3.jpg,Blue_Triangle_Chess_1.jpg,right,938,true,high,NA,NA,NA,NA,NA,NA,NA,false
8KJEc5yk,338glsui56olvzhlkxidlboc564sfp,3u8ycdagxttk8zlcgdfpcoiy3e70qo,8KJEc5yk,2020-0188,2020-05-21,14:14:11,14:31:23,NA,incomplete,66,filling,1,right,Blue_Plus_Stripes_4.jpg,Green_Plus_Chess_3.jpg,Red_Star_Stripes_2.jpg,right,956,true,high,NA,NA,NA,NA,NA,NA,NA,false
8KJEc5yk,338glsui56olvzhlkxidlboc564sfp,3u8ycdagxttk8zlcgdfpcoiy3e70qo,8KJEc5yk,2020-0188,2020-05-21,14:14:11,14:31:23,NA,incomplete,67,filling,1,left,Green_Triangle_Dots_1.jpg,Red_Star_Dots_3.jpg,Purple_Triangle_Stripes_4.jpg,left,778,true,high,NA,NA,NA,NA,NA,NA,NA,false
8KJEc5yk,338glsui56olvzhlkxidlboc564sfp,3u8ycdagxttk8zlcgdfpcoiy3e70qo,8KJEc5yk,2020-0188,2020-05-21,14:14:11,14:31:23,NA,incomplete,68,filling,1,left,Blue_Plus_Stripes_1.jpg,Green_Triangle_Stripes_2.jpg,Purple_Plus_Chess_3.jpg,left,763,true,high,NA,NA,NA,NA,NA,NA,NA,false
8KJEc5yk,338glsui56olvzhlkxidlboc564sfp,3u8ycdagxttk8zlcgdfpcoiy3e70qo,8KJEc5yk,2020-0188,2020-05-21,14:14:11,14:31:23,NA,incomplete,69,filling,0,right,Green_Triangle_Grid_1.jpg,Blue_Triangle_Dots_2.jpg,Red_Star_Grid_4.jpg,right,869,true,high,NA,NA,NA,NA,NA,NA,NA,false
8KJEc5yk,338glsui56olvzhlkxidlboc564sfp,3u8ycdagxttk8zlcgdfpcoiy3e70qo,8KJEc5yk,2020-0188,2020-05-21,14:14:11,14:31:23,NA,incomplete,70,shape,0,left,Blue_Plus_Chess_2.jpg,Green_Plus_Stripes_3.jpg,Purple_Circle_Chess_1.jpg,left,690,true,high,NA,NA,NA,NA,NA,NA,NA,false
8KJEc5yk,338glsui56olvzhlkxidlboc564sfp,3u8ycdagxttk8zlcgdfpcoiy3e70qo,8KJEc5yk,2020-0188,2020-05-21,14:14:11,14:31:23,NA,incomplete,71,shape,0,left,Blue_Plus_Stripes_4.jpg,Purple_Plus_Grid_3.jpg,Green_Star_Stripes_1.jpg,right,1139,false,high,NA,NA,NA,NA,NA,NA,NA,false
8KJEc5yk,338glsui56olvzhlkxidlboc564sfp,3u8ycdagxttk8zlcgdfpcoiy3e70qo,8KJEc5yk,2020-0188,2020-05-21,14:14:11,14:31:23,NA,incomplete,72,shape,0,right,Green_Star_Grid_1.jpg,Red_Circle_Grid_3.jpg,Blue_Star_Stripes_2.jpg,left,965,false,high,NA,NA,NA,NA,NA,NA,NA,false
8KJEc5yk,338glsui56olvzhlkxidlboc564sfp,3u8ycdagxttk8zlcgdfpcoiy3e70qo,8KJEc5yk,2020-0188,2020-05-21,14:14:11,14:31:23,NA,incomplete,73,shape,1,right,Purple_Circle_Grid_2.jpg,Red_Star_Grid_4.jpg,Blue_Circle_Dots_3.jpg,left,874,false,high,NA,NA,NA,NA,NA,NA,NA,false
8KJEc5yk,338glsui56olvzhlkxidlboc564sfp,3u8ycdagxttk8zlcgdfpcoiy3e70qo,8KJEc5yk,2020-0188,2020-05-21,14:14:11,14:31:23,NA,incomplete,74,shape,1,right,Purple_Plus_Stripes_1.jpg,Green_Triangle_Stripes_4.jpg,Blue_Plus_Chess_3.jpg,right,759,true,high,NA,NA,NA,NA,NA,NA,NA,false
8KJEc5yk,338glsui56olvzhlkxidlboc564sfp,3u8ycdagxttk8zlcgdfpcoiy3e70qo,8KJEc5yk,2020-0188,2020-05-21,14:14:11,14:31:23,NA,incomplete,75,shape,1,right,Purple_Circle_Dots_3.jpg,Blue_Star_Dots_2.jpg,Red_Circle_Grid_4.jpg,right,781,true,high,NA,NA,NA,NA,NA,NA,NA,false
8KJEc5yk,338glsui56olvzhlkxidlboc564sfp,3u8ycdagxttk8zlcgdfpcoiy3e70qo,8KJEc5yk,2020-0188,2020-05-21,14:14:11,14:31:23,NA,incomplete,76,shape,1,left,Red_Star_Chess_4.jpg,Blue_Star_Stripes_2.jpg,Green_Circle_Chess_3.jpg,left,602,true,high,NA,NA,NA,NA,NA,NA,NA,false
8KJEc5yk,338glsui56olvzhlkxidlboc564sfp,3u8ycdagxttk8zlcgdfpcoiy3e70qo,8KJEc5yk,2020-0188,2020-05-21,14:14:11,14:31:23,NA,incomplete,77,shape,1,left,Blue_Star_Chess_2.jpg,Green_Star_Grid_1.jpg,Red_Circle_Chess_4.jpg,left,562,true,high,NA,NA,NA,NA,NA,NA,NA,false
8KJEc5yk,338glsui56olvzhlkxidlboc564sfp,3u8ycdagxttk8zlcgdfpcoiy3e70qo,8KJEc5yk,2020-0188,2020-05-21,14:14:11,14:31:23,NA,incomplete,78,shape,0,right,Blue_Star_Stripes_1.jpg,Green_Triangle_Stripes_3.jpg,Purple_Star_Dots_4.jpg,right,556,true,high,NA,NA,NA,NA,NA,NA,NA,false
8KJEc5yk,338glsui56olvzhlkxidlboc564sfp,3u8ycdagxttk8zlcgdfpcoiy3e70qo,8KJEc5yk,2020-0188,2020-05-21,14:14:11,14:31:23,NA,incomplete,79,shape,0,left,Green_Star_Chess_3.jpg,Purple_Star_Dots_2.jpg,Red_Plus_Chess_4.jpg,right,882,false,high,NA,NA,NA,NA,NA,NA,NA,false
8KJEc5yk,338glsui56olvzhlkxidlboc564sfp,3u8ycdagxttk8zlcgdfpcoiy3e70qo,8KJEc5yk,2020-0188,2020-05-21,14:14:11,14:31:23,NA,incomplete,80,filling,1,right,Red_Plus_Grid_2.jpg,Purple_Plus_Stripes_1.jpg,Blue_Circle_Grid_4.jpg,right,972,true,high,NA,NA,NA,NA,NA,NA,NA,false
8KJEc5yk,338glsui56olvzhlkxidlboc564sfp,3u8ycdagxttk8zlcgdfpcoiy3e70qo,8KJEc5yk,2020-0188,2020-05-21,14:14:11,14:31:23,NA,incomplete,81,filling,1,left,Blue_Star_Dots_2.jpg,Red_Plus_Dots_1.jpg,Purple_Star_Grid_4.jpg,left,980,true,high,NA,NA,NA,NA,NA,NA,NA,false
8KJEc5yk,338glsui56olvzhlkxidlboc564sfp,3u8ycdagxttk8zlcgdfpcoiy3e70qo,8KJEc5yk,2020-0188,2020-05-21,14:14:11,14:31:23,NA,incomplete,82,filling,1,left,Blue_Triangle_Grid_4.jpg,Red_Circle_Grid_1.jpg,Green_Triangle_Stripes_2.jpg,left,917,true,high,NA,NA,NA,NA,NA,NA,NA,false
8KJEc5yk,338glsui56olvzhlkxidlboc564sfp,3u8ycdagxttk8zlcgdfpcoiy3e70qo,8KJEc5yk,2020-0188,2020-05-21,14:14:11,14:31:23,NA,incomplete,83,filling,1,right,Blue_Star_Grid_2.jpg,Purple_Star_Stripes_4.jpg,Green_Plus_Grid_1.jpg,right,853,true,high,NA,NA,NA,NA,NA,NA,NA,false
8KJEc5yk,338glsui56olvzhlkxidlboc564sfp,3u8ycdagxttk8zlcgdfpcoiy3e70qo,8KJEc5yk,2020-0188,2020-05-21,14:14:11,14:31:23,NA,incomplete,84,filling,1,left,Purple_Triangle_Chess_2.jpg,Blue_Star_Chess_3.jpg,Red_Triangle_Dots_1.jpg,left,842,true,high,NA,NA,NA,NA,NA,NA,NA,false
8KJEc5yk,338glsui56olvzhlkxidlboc564sfp,3u8ycdagxttk8zlcgdfpcoiy3e70qo,8KJEc5yk,2020-0188,2020-05-21,14:14:11,14:31:23,NA,incomplete,85,filling,0,left,Green_Circle_Chess_2.jpg,Blue_Triangle_Chess_1.jpg,Red_Circle_Stripes_4.jpg,left,885,true,high,NA,NA,NA,NA,NA,NA,NA,false
8KJEc5yk,338glsui56olvzhlkxidlboc564sfp,3u8ycdagxttk8zlcgdfpcoiy3e70qo,8KJEc5yk,2020-0188,2020-05-21,14:14:11,14:31:23,NA,incomplete,86,filling,1,right,Purple_Plus_Dots_2.jpg,Green_Plus_Grid_3.jpg,Red_Circle_Dots_4.jpg,left,1013,false,high,NA,NA,NA,NA,NA,NA,NA,false
8KJEc5yk,338glsui56olvzhlkxidlboc564sfp,3u8ycdagxttk8zlcgdfpcoiy3e70qo,8KJEc5yk,2020-0188,2020-05-21,14:14:11,14:31:23,NA,incomplete,87,filling,1,left,Red_Triangle_Stripes_3.jpg,Blue_Circle_Stripes_4.jpg,Green_Triangle_Chess_1.jpg,left,1053,true,high,NA,NA,NA,NA,NA,NA,NA,false
8KJEc5yk,338glsui56olvzhlkxidlboc564sfp,3u8ycdagxttk8zlcgdfpcoiy3e70qo,8KJEc5yk,2020-0188,2020-05-21,14:14:11,14:31:23,NA,incomplete,88,filling,1,left,Green_Star_Stripes_1.jpg,Purple_Plus_Stripes_2.jpg,Blue_Star_Chess_3.jpg,left,954,true,high,NA,NA,NA,NA,NA,NA,NA,false
8KJEc5yk,338glsui56olvzhlkxidlboc564sfp,3u8ycdagxttk8zlcgdfpcoiy3e70qo,8KJEc5yk,2020-0188,2020-05-21,14:14:11,14:31:23,NA,incomplete,89,filling,1,right,Purple_Circle_Stripes_3.jpg,Green_Circle_Dots_1.jpg,Blue_Triangle_Stripes_2.jpg,right,868,true,high,NA,NA,NA,NA,NA,NA,NA,false
8KJEc5yk,338glsui56olvzhlkxidlboc564sfp,3u8ycdagxttk8zlcgdfpcoiy3e70qo,8KJEc5yk,2020-0188,2020-05-21,14:14:11,14:31:23,NA,incomplete,90,shape,0,left,Red_Circle_Grid_3.jpg,Purple_Circle_Dots_4.jpg,Blue_Star_Grid_1.jpg,right,997,false,high,NA,NA,NA,NA,NA,NA,NA,false
8KJEc5yk,338glsui56olvzhlkxidlboc564sfp,3u8ycdagxttk8zlcgdfpcoiy3e70qo,8KJEc5yk,2020-0188,2020-05-21,14:14:11,14:31:23,NA,incomplete,91,shape,1,left,Green_Plus_Stripes_3.jpg,Purple_Plus_Grid_2.jpg,Blue_Triangle_Stripes_1.jpg,right,933,false,high,NA,NA,NA,NA,NA,NA,NA,false
8KJEc5yk,338glsui56olvzhlkxidlboc564sfp,3u8ycdagxttk8zlcgdfpcoiy3e70qo,8KJEc5yk,2020-0188,2020-05-21,14:14:11,14:31:23,NA,incomplete,92,shape,1,right,Red_Star_Dots_2.jpg,Purple_Triangle_Dots_1.jpg,Blue_Star_Grid_4.jpg,right,700,true,high,NA,NA,NA,NA,NA,NA,NA,false
8KJEc5yk,338glsui56olvzhlkxidlboc564sfp,3u8ycdagxttk8zlcgdfpcoiy3e70qo,8KJEc5yk,2020-0188,2020-05-21,14:14:11,14:31:23,NA,incomplete,93,shape,1,left,Purple_Plus_Stripes_3.jpg,Blue_Plus_Dots_4.jpg,Red_Star_Stripes_2.jpg,left,724,true,high,NA,NA,NA,NA,NA,NA,NA,false
8KJEc5yk,338glsui56olvzhlkxidlboc564sfp,3u8ycdagxttk8zlcgdfpcoiy3e70qo,8KJEc5yk,2020-0188,2020-05-21,14:14:11,14:31:23,NA,incomplete,94,shape,1,right,Blue_Circle_Grid_3.jpg,Purple_Star_Grid_2.jpg,Red_Circle_Dots_4.jpg,right,611,true,high,NA,NA,NA,NA,NA,NA,NA,false
8KJEc5yk,338glsui56olvzhlkxidlboc564sfp,3u8ycdagxttk8zlcgdfpcoiy3e70qo,8KJEc5yk,2020-0188,2020-05-21,14:14:11,14:31:23,NA,incomplete,95,shape,1,right,Blue_Plus_Grid_2.jpg,Purple_Triangle_Grid_3.jpg,Red_Plus_Chess_4.jpg,right,796,true,high,NA,NA,NA,NA,NA,NA,NA,false
8KJEc5yk,338glsui56olvzhlkxidlboc564sfp,3u8ycdagxttk8zlcgdfpcoiy3e70qo,8KJEc5yk,2020-0188,2020-05-21,14:14:11,14:31:23,NA,incomplete,96,shape,1,left,Blue_Triangle_Grid_1.jpg,Red_Triangle_Dots_3.jpg,Green_Plus_Grid_2.jpg,left,620,true,high,NA,NA,NA,NA,NA,NA,NA,false
8KJEc5yk,338glsui56olvzhlkxidlboc564sfp,3u8ycdagxttk8zlcgdfpcoiy3e70qo,8KJEc5yk,2020-0188,2020-05-21,14:14:11,14:31:23,NA,incomplete,97,shape,1,right,Blue_Plus_Stripes_2.jpg,Green_Circle_Stripes_4.jpg,Red_Plus_Grid_1.jpg,right,652,true,high,NA,NA,NA,NA,NA,NA,NA,false
8KJEc5yk,338glsui56olvzhlkxidlboc564sfp,3u8ycdagxttk8zlcgdfpcoiy3e70qo,8KJEc5yk,2020-0188,2020-05-21,14:14:11,14:31:23,NA,incomplete,98,shape,1,right,Green_Circle_Grid_3.jpg,Red_Star_Grid_2.jpg,Blue_Circle_Dots_1.jpg,right,778,true,high,NA,NA,NA,NA,NA,NA,NA,false
8KJEc5yk,338glsui56olvzhlkxidlboc564sfp,3u8ycdagxttk8zlcgdfpcoiy3e70qo,8KJEc5yk,2020-0188,2020-05-21,14:14:11,14:31:23,NA,incomplete,99,shape,0,left,Green_Circle_Grid_3.jpg,Red_Circle_Dots_4.jpg,Purple_Star_Grid_2.jpg,left,563,true,high,NA,NA,NA,NA,NA,NA,NA,false
8KJEc5yk,338glsui56olvzhlkxidlboc564sfp,3u8ycdagxttk8zlcgdfpcoiy3e70qo,8KJEc5yk,2020-0188,2020-05-21,14:14:11,14:31:23,NA,incomplete,100,filling,1,right,Green_Star_Chess_3.jpg,Red_Star_Stripes_2.jpg,Blue_Circle_Chess_1.jpg,right,853,true,high,NA,NA,NA,NA,NA,NA,NA,false
8KJEc5yk,338glsui56olvzhlkxidlboc564sfp,3u8ycdagxttk8zlcgdfpcoiy3e70qo,8KJEc5yk,2020-0188,2020-05-21,14:14:11,14:31:23,NA,incomplete,101,filling,1,right,Red_Plus_Dots_1.jpg,Purple_Plus_Chess_2.jpg,Blue_Circle_Dots_4.jpg,right,891,true,high,NA,NA,NA,NA,NA,NA,NA,false
8KJEc5yk,338glsui56olvzhlkxidlboc564sfp,3u8ycdagxttk8zlcgdfpcoiy3e70qo,8KJEc5yk,2020-0188,2020-05-21,14:14:11,14:31:23,NA,incomplete,102,filling,1,right,Green_Circle_Stripes_4.jpg,Blue_Circle_Dots_2.jpg,Red_Star_Stripes_1.jpg,right,835,true,high,NA,NA,NA,NA,NA,NA,NA,false
8KJEc5yk,338glsui56olvzhlkxidlboc564sfp,3u8ycdagxttk8zlcgdfpcoiy3e70qo,8KJEc5yk,2020-0188,2020-05-21,14:14:11,14:31:23,NA,incomplete,103,filling,1,left,Red_Star_Stripes_4.jpg,Blue_Circle_Stripes_3.jpg,Green_Star_Dots_2.jpg,left,898,true,high,NA,NA,NA,NA,NA,NA,NA,false
8KJEc5yk,338glsui56olvzhlkxidlboc564sfp,3u8ycdagxttk8zlcgdfpcoiy3e70qo,8KJEc5yk,2020-0188,2020-05-21,14:14:11,14:31:23,NA,incomplete,104,filling,1,left,Blue_Plus_Stripes_2.jpg,Purple_Triangle_Stripes_3.jpg,Green_Plus_Grid_4.jpg,left,1066,true,high,NA,NA,NA,NA,NA,NA,NA,false
8KJEc5yk,338glsui56olvzhlkxidlboc564sfp,3u8ycdagxttk8zlcgdfpcoiy3e70qo,8KJEc5yk,2020-0188,2020-05-21,14:14:11,14:31:23,NA,incomplete,105,filling,0,left,Red_Plus_Dots_2.jpg,Purple_Star_Dots_1.jpg,Green_Plus_Chess_4.jpg,left,1059,true,high,NA,NA,NA,NA,NA,NA,NA,false
8KJEc5yk,338glsui56olvzhlkxidlboc564sfp,3u8ycdagxttk8zlcgdfpcoiy3e70qo,8KJEc5yk,2020-0188,2020-05-21,14:14:11,14:31:23,NA,incomplete,106,filling,1,right,Green_Triangle_Stripes_2.jpg,Red_Triangle_Grid_3.jpg,Purple_Star_Stripes_1.jpg,left,1333,false,high,NA,NA,NA,NA,NA,NA,NA,false
8KJEc5yk,338glsui56olvzhlkxidlboc564sfp,3u8ycdagxttk8zlcgdfpcoiy3e70qo,8KJEc5yk,2020-0188,2020-05-21,14:14:11,14:31:23,NA,incomplete,107,filling,1,right,Green_Triangle_Chess_2.jpg,Purple_Triangle_Dots_4.jpg,Red_Star_Chess_1.jpg,right,1034,true,high,NA,NA,NA,NA,NA,NA,NA,false
8KJEc5yk,338glsui56olvzhlkxidlboc564sfp,3u8ycdagxttk8zlcgdfpcoiy3e70qo,8KJEc5yk,2020-0188,2020-05-21,14:14:11,14:31:23,NA,incomplete,108,filling,1,right,Green_Star_Grid_2.jpg,Red_Star_Dots_3.jpg,Blue_Plus_Grid_1.jpg,right,1133,true,high,NA,NA,NA,NA,NA,NA,NA,false
8KJEc5yk,338glsui56olvzhlkxidlboc564sfp,3u8ycdagxttk8zlcgdfpcoiy3e70qo,8KJEc5yk,2020-0188,2020-05-21,14:14:11,14:31:23,NA,incomplete,109,filling,1,right,Purple_Circle_Grid_3.jpg,Red_Circle_Dots_4.jpg,Green_Triangle_Grid_1.jpg,right,995,true,high,NA,NA,NA,NA,NA,NA,NA,false
8KJEc5yk,338glsui56olvzhlkxidlboc564sfp,3u8ycdagxttk8zlcgdfpcoiy3e70qo,8KJEc5yk,2020-0188,2020-05-21,14:14:11,14:31:23,NA,incomplete,110,shape,0,left,Purple_Star_Chess_3.jpg,Blue_Star_Stripes_2.jpg,Green_Plus_Chess_4.jpg,right,891,false,high,NA,NA,NA,NA,NA,NA,NA,false
8KJEc5yk,338glsui56olvzhlkxidlboc564sfp,3u8ycdagxttk8zlcgdfpcoiy3e70qo,8KJEc5yk,2020-0188,2020-05-21,14:14:11,14:31:23,NA,incomplete,111,shape,1,left,Red_Plus_Chess_2.jpg,Blue_Plus_Stripes_1.jpg,Green_Triangle_Chess_4.jpg,right,875,false,high,NA,NA,NA,NA,NA,NA,NA,false
8KJEc5yk,338glsui56olvzhlkxidlboc564sfp,3u8ycdagxttk8zlcgdfpcoiy3e70qo,8KJEc5yk,2020-0188,2020-05-21,14:14:11,14:31:23,NA,incomplete,112,shape,1,right,Green_Plus_Grid_4.jpg,Purple_Circle_Grid_2.jpg,Red_Plus_Dots_3.jpg,right,949,true,high,NA,NA,NA,NA,NA,NA,NA,false
8KJEc5yk,338glsui56olvzhlkxidlboc564sfp,3u8ycdagxttk8zlcgdfpcoiy3e70qo,8KJEc5yk,2020-0188,2020-05-21,14:14:11,14:31:23,NA,incomplete,113,shape,1,right,Purple_Star_Chess_3.jpg,Green_Triangle_Chess_1.jpg,Red_Star_Grid_2.jpg,right,626,true,high,NA,NA,NA,NA,NA,NA,NA,false
8KJEc5yk,338glsui56olvzhlkxidlboc564sfp,3u8ycdagxttk8zlcgdfpcoiy3e70qo,8KJEc5yk,2020-0188,2020-05-21,14:14:11,14:31:23,NA,incomplete,114,shape,1,left,Purple_Plus_Chess_1.jpg,Green_Plus_Grid_3.jpg,Red_Star_Chess_2.jpg,left,750,true,high,NA,NA,NA,NA,NA,NA,NA,false
8KJEc5yk,338glsui56olvzhlkxidlboc564sfp,3u8ycdagxttk8zlcgdfpcoiy3e70qo,8KJEc5yk,2020-0188,2020-05-21,14:14:11,14:31:23,NA,incomplete,115,shape,1,right,Red_Triangle_Dots_3.jpg,Blue_Star_Dots_1.jpg,Green_Triangle_Stripes_4.jpg,right,612,true,high,NA,NA,NA,NA,NA,NA,NA,false
8KJEc5yk,338glsui56olvzhlkxidlboc564sfp,3u8ycdagxttk8zlcgdfpcoiy3e70qo,8KJEc5yk,2020-0188,2020-05-21,14:14:11,14:31:23,NA,incomplete,116,shape,1,left,Blue_Triangle_Dots_1.jpg,Purple_Triangle_Grid_2.jpg,Green_Circle_Dots_3.jpg,left,596,true,high,NA,NA,NA,NA,NA,NA,NA,false
8KJEc5yk,338glsui56olvzhlkxidlboc564sfp,3u8ycdagxttk8zlcgdfpcoiy3e70qo,8KJEc5yk,2020-0188,2020-05-21,14:14:11,14:31:23,NA,incomplete,117,shape,1,right,Blue_Star_Stripes_3.jpg,Purple_Triangle_Stripes_2.jpg,Red_Star_Chess_4.jpg,right,677,true,high,NA,NA,NA,NA,NA,NA,NA,false
8KJEc5yk,338glsui56olvzhlkxidlboc564sfp,3u8ycdagxttk8zlcgdfpcoiy3e70qo,8KJEc5yk,2020-0188,2020-05-21,14:14:11,14:31:23,NA,incomplete,118,shape,1,left,Purple_Circle_Dots_3.jpg,Green_Circle_Grid_4.jpg,Red_Triangle_Dots_2.jpg,left,650,true,high,NA,NA,NA,NA,NA,NA,NA,false
8KJEc5yk,338glsui56olvzhlkxidlboc564sfp,3u8ycdagxttk8zlcgdfpcoiy3e70qo,8KJEc5yk,2020-0188,2020-05-21,14:14:11,14:31:23,NA,incomplete,119,shape,1,left,Blue_Plus_Chess_2.jpg,Red_Plus_Stripes_1.jpg,Green_Star_Chess_4.jpg,left,797,true,high,NA,NA,NA,NA,NA,NA,NA,false
8KJEc5yk,338glsui56olvzhlkxidlboc564sfp,3u8ycdagxttk8zlcgdfpcoiy3e70qo,8KJEc5yk,2020-0188,2020-05-21,14:14:11,14:31:23,NA,incomplete,120,color,1,right,Purple_Star_Grid_2.jpg,Green_Triangle_Chess_2.jpg,Purple_Circle_Stripes_3.jpg,NA,NA,NA,high,NA,NA,NA,NA,NA,NA,NA,false
8KJEc5yk,338glsui56olvzhlkxidlboc564sfp,3u8ycdagxttk8zlcgdfpcoiy3e70qo,8KJEc5yk,2020-0188,2020-05-21,14:14:11,14:31:23,NA,incomplete,121,color,1,left,Blue_Circle_Grid_3.jpg,Blue_Star_Dots_1.jpg,Purple_Plus_Chess_3.jpg,left,723,true,high,NA,NA,NA,NA,NA,NA,NA,false
8KJEc5yk,338glsui56olvzhlkxidlboc564sfp,3u8ycdagxttk8zlcgdfpcoiy3e70qo,8KJEc5yk,2020-0188,2020-05-21,14:14:11,14:31:23,NA,incomplete,122,color,1,left,Red_Star_Grid_2.jpg,Red_Circle_Stripes_1.jpg,Purple_Plus_Chess_2.jpg,left,547,true,high,NA,NA,NA,NA,NA,NA,NA,false
8KJEc5yk,338glsui56olvzhlkxidlboc564sfp,3u8ycdagxttk8zlcgdfpcoiy3e70qo,8KJEc5yk,2020-0188,2020-05-21,14:14:11,14:31:23,NA,incomplete,123,color,1,left,Blue_Triangle_Chess_2.jpg,Blue_Star_Stripes_4.jpg,Purple_Plus_Dots_2.jpg,left,629,true,high,NA,NA,NA,NA,NA,NA,NA,false
8KJEc5yk,338glsui56olvzhlkxidlboc564sfp,3u8ycdagxttk8zlcgdfpcoiy3e70qo,8KJEc5yk,2020-0188,2020-05-21,14:14:11,14:31:23,NA,incomplete,124,color,0,right,Green_Star_Stripes_4.jpg,Red_Circle_Chess_4.jpg,Green_Triangle_Dots_2.jpg,right,541,true,high,NA,NA,NA,NA,NA,NA,NA,false
8KJEc5yk,338glsui56olvzhlkxidlboc564sfp,3u8ycdagxttk8zlcgdfpcoiy3e70qo,8KJEc5yk,2020-0188,2020-05-21,14:14:11,14:31:23,NA,incomplete,125,color,1,left,Purple_Circle_Dots_1.jpg,Purple_Triangle_Chess_2.jpg,Blue_Star_Grid_1.jpg,right,692,false,high,NA,NA,NA,NA,NA,NA,NA,false
8KJEc5yk,338glsui56olvzhlkxidlboc564sfp,3u8ycdagxttk8zlcgdfpcoiy3e70qo,8KJEc5yk,2020-0188,2020-05-21,14:14:11,14:31:23,NA,incomplete,126,color,1,right,Green_Circle_Stripes_4.jpg,Red_Triangle_Grid_4.jpg,Green_Plus_Dots_3.jpg,right,860,true,high,NA,NA,NA,NA,NA,NA,NA,false
8KJEc5yk,338glsui56olvzhlkxidlboc564sfp,3u8ycdagxttk8zlcgdfpcoiy3e70qo,8KJEc5yk,2020-0188,2020-05-21,14:14:11,14:31:23,NA,incomplete,127,color,1,left,Purple_Plus_Chess_1.jpg,Purple_Star_Grid_3.jpg,Blue_Circle_Dots_1.jpg,left,530,true,high,NA,NA,NA,NA,NA,NA,NA,false
8KJEc5yk,338glsui56olvzhlkxidlboc564sfp,3u8ycdagxttk8zlcgdfpcoiy3e70qo,8KJEc5yk,2020-0188,2020-05-21,14:14:11,14:31:23,NA,incomplete,128,color,1,right,Blue_Star_Stripes_2.jpg,Green_Plus_Dots_2.jpg,Blue_Triangle_Chess_1.jpg,right,565,true,high,NA,NA,NA,NA,NA,NA,NA,false
8KJEc5yk,338glsui56olvzhlkxidlboc564sfp,3u8ycdagxttk8zlcgdfpcoiy3e70qo,8KJEc5yk,2020-0188,2020-05-21,14:14:11,14:31:23,NA,incomplete,129,color,0,right,Blue_Circle_Dots_1.jpg,Green_Star_Stripes_1.jpg,Blue_Plus_Grid_3.jpg,right,491,true,high,NA,NA,NA,NA,NA,NA,NA,false
8KJEc5yk,338glsui56olvzhlkxidlboc564sfp,3u8ycdagxttk8zlcgdfpcoiy3e70qo,8KJEc5yk,2020-0188,2020-05-21,14:14:11,14:31:23,NA,incomplete,130,color,1,right,Blue_Circle_Grid_4.jpg,Green_Triangle_Dots_4.jpg,Blue_Star_Chess_3.jpg,left,828,false,high,NA,NA,NA,NA,NA,NA,NA,false
8KJEc5yk,338glsui56olvzhlkxidlboc564sfp,3u8ycdagxttk8zlcgdfpcoiy3e70qo,8KJEc5yk,2020-0188,2020-05-21,14:14:11,14:31:23,NA,incomplete,131,color,0,left,Blue_Circle_Dots_3.jpg,Blue_Triangle_Stripes_4.jpg,Green_Star_Grid_3.jpg,left,763,true,high,NA,NA,NA,NA,NA,NA,NA,false
8KJEc5yk,338glsui56olvzhlkxidlboc564sfp,3u8ycdagxttk8zlcgdfpcoiy3e70qo,8KJEc5yk,2020-0188,2020-05-21,14:14:11,14:31:23,NA,incomplete,132,color,1,left,Purple_Circle_Chess_2.jpg,Purple_Plus_Stripes_4.jpg,Blue_Star_Grid_2.jpg,left,725,true,high,NA,NA,NA,NA,NA,NA,NA,false
8KJEc5yk,338glsui56olvzhlkxidlboc564sfp,3u8ycdagxttk8zlcgdfpcoiy3e70qo,8KJEc5yk,2020-0188,2020-05-21,14:14:11,14:31:23,NA,incomplete,133,color,1,left,Red_Circle_Dots_2.jpg,Red_Triangle_Grid_3.jpg,Green_Plus_Stripes_2.jpg,left,821,true,high,NA,NA,NA,NA,NA,NA,NA,false
8KJEc5yk,338glsui56olvzhlkxidlboc564sfp,3u8ycdagxttk8zlcgdfpcoiy3e70qo,8KJEc5yk,2020-0188,2020-05-21,14:14:11,14:31:23,NA,incomplete,134,color,1,left,Blue_Circle_Grid_3.jpg,Blue_Triangle_Stripes_1.jpg,Purple_Star_Chess_3.jpg,left,563,true,high,NA,NA,NA,NA,NA,NA,NA,false
8KJEc5yk,338glsui56olvzhlkxidlboc564sfp,3u8ycdagxttk8zlcgdfpcoiy3e70qo,8KJEc5yk,2020-0188,2020-05-21,14:14:11,14:31:23,NA,incomplete,135,color,1,left,Red_Plus_Chess_3.jpg,Red_Circle_Stripes_1.jpg,Purple_Triangle_Grid_3.jpg,left,629,true,high,NA,NA,NA,NA,NA,NA,NA,false
8KJEc5yk,338glsui56olvzhlkxidlboc564sfp,3u8ycdagxttk8zlcgdfpcoiy3e70qo,8KJEc5yk,2020-0188,2020-05-21,14:14:11,14:31:23,NA,incomplete,136,color,1,left,Blue_Triangle_Chess_3.jpg,Blue_Circle_Stripes_1.jpg,Purple_Plus_Dots_3.jpg,left,533,true,high,NA,NA,NA,NA,NA,NA,NA,false
8KJEc5yk,338glsui56olvzhlkxidlboc564sfp,3u8ycdagxttk8zlcgdfpcoiy3e70qo,8KJEc5yk,2020-0188,2020-05-21,14:14:11,14:31:23,NA,incomplete,137,color,0,right,Green_Circle_Stripes_4.jpg,Purple_Star_Grid_4.jpg,Green_Plus_Dots_3.jpg,right,525,true,high,NA,NA,NA,NA,NA,NA,NA,false
8KJEc5yk,338glsui56olvzhlkxidlboc564sfp,3u8ycdagxttk8zlcgdfpcoiy3e70qo,8KJEc5yk,2020-0188,2020-05-21,14:14:11,14:31:23,NA,incomplete,138,color,1,right,Red_Star_Dots_1.jpg,Green_Triangle_Chess_1.jpg,Red_Plus_Grid_3.jpg,left,684,false,high,NA,NA,NA,NA,NA,NA,NA,false
8KJEc5yk,338glsui56olvzhlkxidlboc564sfp,3u8ycdagxttk8zlcgdfpcoiy3e70qo,8KJEc5yk,2020-0188,2020-05-21,14:14:11,14:31:23,NA,incomplete,139,color,1,right,Purple_Triangle_Dots_1.jpg,Red_Plus_Grid_1.jpg,Purple_Circle_Chess_3.jpg,right,797,true,high,NA,NA,NA,NA,NA,NA,NA,false
8KJEc5yk,338glsui56olvzhlkxidlboc564sfp,3u8ycdagxttk8zlcgdfpcoiy3e70qo,8KJEc5yk,2020-0188,2020-05-21,14:14:11,14:31:23,NA,incomplete,140,number,1,right,Green_Triangle_Stripes_2.jpg,Green_Circle_Chess_1.jpg,Purple_Plus_Dots_2.jpg,left,613,false,high,NA,NA,NA,NA,NA,NA,NA,false
8KJEc5yk,338glsui56olvzhlkxidlboc564sfp,3u8ycdagxttk8zlcgdfpcoiy3e70qo,8KJEc5yk,2020-0188,2020-05-21,14:14:11,14:31:23,NA,incomplete,141,number,1,right,Green_Plus_Chess_4.jpg,Green_Triangle_Grid_3.jpg,Blue_Star_Stripes_4.jpg,left,829,false,high,NA,NA,NA,NA,NA,NA,NA,false
8KJEc5yk,338glsui56olvzhlkxidlboc564sfp,3u8ycdagxttk8zlcgdfpcoiy3e70qo,8KJEc5yk,2020-0188,2020-05-21,14:14:11,14:31:23,NA,incomplete,142,number,1,right,Blue_Triangle_Stripes_3.jpg,Blue_Star_Chess_2.jpg,Green_Plus_Dots_3.jpg,right,909,true,high,NA,NA,NA,NA,NA,NA,NA,false
8KJEc5yk,338glsui56olvzhlkxidlboc564sfp,3u8ycdagxttk8zlcgdfpcoiy3e70qo,8KJEc5yk,2020-0188,2020-05-21,14:14:11,14:31:23,NA,incomplete,143,number,1,right,Red_Circle_Grid_3.jpg,Red_Triangle_Stripes_2.jpg,Green_Star_Chess_3.jpg,right,803,true,high,NA,NA,NA,NA,NA,NA,NA,false
8KJEc5yk,338glsui56olvzhlkxidlboc564sfp,3u8ycdagxttk8zlcgdfpcoiy3e70qo,8KJEc5yk,2020-0188,2020-05-21,14:14:11,14:31:23,NA,incomplete,144,number,1,right,Red_Circle_Chess_3.jpg,Red_Triangle_Dots_1.jpg,Green_Star_Stripes_3.jpg,right,604,true,high,NA,NA,NA,NA,NA,NA,NA,false
8KJEc5yk,338glsui56olvzhlkxidlboc564sfp,3u8ycdagxttk8zlcgdfpcoiy3e70qo,8KJEc5yk,2020-0188,2020-05-21,14:14:11,14:31:23,NA,incomplete,145,number,1,right,Green_Triangle_Stripes_1.jpg,Green_Circle_Dots_2.jpg,Red_Star_Chess_1.jpg,right,708,true,high,NA,NA,NA,NA,NA,NA,NA,false
8KJEc5yk,338glsui56olvzhlkxidlboc564sfp,3u8ycdagxttk8zlcgdfpcoiy3e70qo,8KJEc5yk,2020-0188,2020-05-21,14:14:11,14:31:23,NA,incomplete,146,number,1,left,Green_Star_Chess_3.jpg,Blue_Circle_Dots_3.jpg,Green_Plus_Grid_1.jpg,left,1068,true,high,NA,NA,NA,NA,NA,NA,NA,false
8KJEc5yk,338glsui56olvzhlkxidlboc564sfp,3u8ycdagxttk8zlcgdfpcoiy3e70qo,8KJEc5yk,2020-0188,2020-05-21,14:14:11,14:31:23,NA,incomplete,147,number,0,left,Purple_Triangle_Dots_1.jpg,Blue_Circle_Stripes_1.jpg,Purple_Star_Chess_2.jpg,left,542,true,high,NA,NA,NA,NA,NA,NA,NA,false
8KJEc5yk,338glsui56olvzhlkxidlboc564sfp,3u8ycdagxttk8zlcgdfpcoiy3e70qo,8KJEc5yk,2020-0188,2020-05-21,14:14:11,14:31:23,NA,incomplete,148,number,1,left,Red_Circle_Dots_3.jpg,Blue_Star_Stripes_3.jpg,Red_Triangle_Grid_2.jpg,right,509,false,high,NA,NA,NA,NA,NA,NA,NA,false
8KJEc5yk,338glsui56olvzhlkxidlboc564sfp,3u8ycdagxttk8zlcgdfpcoiy3e70qo,8KJEc5yk,2020-0188,2020-05-21,14:14:11,14:31:23,NA,incomplete,149,number,1,right,Red_Plus_Chess_4.jpg,Red_Star_Stripes_2.jpg,Purple_Circle_Grid_4.jpg,right,797,true,high,NA,NA,NA,NA,NA,NA,NA,false
8KJEc5yk,338glsui56olvzhlkxidlboc564sfp,3u8ycdagxttk8zlcgdfpcoiy3e70qo,8KJEc5yk,2020-0188,2020-05-21,14:14:11,14:31:23,NA,incomplete,150,number,0,right,Red_Plus_Dots_2.jpg,Red_Triangle_Stripes_1.jpg,Green_Star_Grid_2.jpg,right,789,true,high,NA,NA,NA,NA,NA,NA,NA,false
8KJEc5yk,338glsui56olvzhlkxidlboc564sfp,3u8ycdagxttk8zlcgdfpcoiy3e70qo,8KJEc5yk,2020-0188,2020-05-21,14:14:11,14:31:23,NA,incomplete,151,number,1,right,Green_Circle_Grid_4.jpg,Green_Star_Stripes_3.jpg,Red_Plus_Dots_4.jpg,left,753,false,high,NA,NA,NA,NA,NA,NA,NA,false
8KJEc5yk,338glsui56olvzhlkxidlboc564sfp,3u8ycdagxttk8zlcgdfpcoiy3e70qo,8KJEc5yk,2020-0188,2020-05-21,14:14:11,14:31:23,NA,incomplete,152,number,1,right,Purple_Triangle_Grid_2.jpg,Purple_Plus_Stripes_4.jpg,Red_Circle_Dots_2.jpg,right,1004,true,high,NA,NA,NA,NA,NA,NA,NA,false
8KJEc5yk,338glsui56olvzhlkxidlboc564sfp,3u8ycdagxttk8zlcgdfpcoiy3e70qo,8KJEc5yk,2020-0188,2020-05-21,14:14:11,14:31:23,NA,incomplete,153,number,0,left,Purple_Plus_Stripes_3.jpg,Green_Circle_Grid_3.jpg,Purple_Triangle_Dots_2.jpg,left,779,true,high,NA,NA,NA,NA,NA,NA,NA,false
8KJEc5yk,338glsui56olvzhlkxidlboc564sfp,3u8ycdagxttk8zlcgdfpcoiy3e70qo,8KJEc5yk,2020-0188,2020-05-21,14:14:11,14:31:23,NA,incomplete,154,number,1,right,Purple_Star_Dots_2.jpg,Purple_Triangle_Chess_3.jpg,Green_Plus_Grid_2.jpg,left,572,false,high,NA,NA,NA,NA,NA,NA,NA,false
8KJEc5yk,338glsui56olvzhlkxidlboc564sfp,3u8ycdagxttk8zlcgdfpcoiy3e70qo,8KJEc5yk,2020-0188,2020-05-21,14:14:11,14:31:23,NA,incomplete,155,number,1,left,Blue_Triangle_Chess_1.jpg,Green_Circle_Dots_1.jpg,Blue_Plus_Grid_2.jpg,left,1234,true,high,NA,NA,NA,NA,NA,NA,NA,false
8KJEc5yk,338glsui56olvzhlkxidlboc564sfp,3u8ycdagxttk8zlcgdfpcoiy3e70qo,8KJEc5yk,2020-0188,2020-05-21,14:14:11,14:31:23,NA,incomplete,156,number,1,left,Blue_Circle_Dots_2.jpg,Purple_Triangle_Grid_2.jpg,Blue_Plus_Chess_3.jpg,left,700,true,high,NA,NA,NA,NA,NA,NA,NA,false
8KJEc5yk,338glsui56olvzhlkxidlboc564sfp,3u8ycdagxttk8zlcgdfpcoiy3e70qo,8KJEc5yk,2020-0188,2020-05-21,14:14:11,14:31:23,NA,incomplete,157,number,1,right,Green_Circle_Stripes_1.jpg,Green_Star_Chess_4.jpg,Red_Plus_Grid_1.jpg,right,989,true,high,NA,NA,NA,NA,NA,NA,NA,false
8KJEc5yk,338glsui56olvzhlkxidlboc564sfp,3u8ycdagxttk8zlcgdfpcoiy3e70qo,8KJEc5yk,2020-0188,2020-05-21,14:14:11,14:31:23,NA,incomplete,158,number,1,right,Blue_Triangle_Grid_1.jpg,Blue_Star_Chess_3.jpg,Purple_Plus_Stripes_1.jpg,right,605,true,high,NA,NA,NA,NA,NA,NA,NA,false
8KJEc5yk,338glsui56olvzhlkxidlboc564sfp,3u8ycdagxttk8zlcgdfpcoiy3e70qo,8KJEc5yk,2020-0188,2020-05-21,14:14:11,14:31:23,NA,incomplete,159,number,0,left,Purple_Triangle_Chess_1.jpg,Blue_Star_Grid_1.jpg,Purple_Circle_Stripes_2.jpg,left,821,true,high,NA,NA,NA,NA,NA,NA,NA,false
8KJEc5yk,338glsui56olvzhlkxidlboc564sfp,3u8ycdagxttk8zlcgdfpcoiy3e70qo,8KJEc5yk,2020-0188,2020-05-21,14:14:11,14:31:23,NA,incomplete,160,color,1,left,Green_Star_Stripes_3.jpg,Green_Triangle_Grid_1.jpg,Purple_Plus_Chess_3.jpg,right,812,false,high,NA,NA,NA,NA,NA,NA,NA,false
8KJEc5yk,338glsui56olvzhlkxidlboc564sfp,3u8ycdagxttk8zlcgdfpcoiy3e70qo,8KJEc5yk,2020-0188,2020-05-21,14:14:11,14:31:23,NA,incomplete,161,color,1,left,Green_Plus_Dots_3.jpg,Green_Triangle_Grid_4.jpg,Purple_Star_Chess_3.jpg,left,492,true,high,NA,NA,NA,NA,NA,NA,NA,false
8KJEc5yk,338glsui56olvzhlkxidlboc564sfp,3u8ycdagxttk8zlcgdfpcoiy3e70qo,8KJEc5yk,2020-0188,2020-05-21,14:14:11,14:31:23,NA,incomplete,162,color,1,left,Blue_Plus_Stripes_2.jpg,Blue_Star_Dots_1.jpg,Green_Triangle_Chess_2.jpg,left,557,true,high,NA,NA,NA,NA,NA,NA,NA,false
8KJEc5yk,338glsui56olvzhlkxidlboc564sfp,3u8ycdagxttk8zlcgdfpcoiy3e70qo,8KJEc5yk,2020-0188,2020-05-21,14:14:11,14:31:23,NA,incomplete,163,color,1,left,Blue_Star_Dots_2.jpg,Blue_Plus_Stripes_4.jpg,Red_Circle_Chess_2.jpg,left,675,true,high,NA,NA,NA,NA,NA,NA,NA,false
8KJEc5yk,338glsui56olvzhlkxidlboc564sfp,3u8ycdagxttk8zlcgdfpcoiy3e70qo,8KJEc5yk,2020-0188,2020-05-21,14:14:11,14:31:23,NA,incomplete,164,color,1,left,Blue_Circle_Grid_2.jpg,Blue_Star_Dots_4.jpg,Green_Plus_Chess_2.jpg,left,429,true,high,NA,NA,NA,NA,NA,NA,NA,false
8KJEc5yk,338glsui56olvzhlkxidlboc564sfp,3u8ycdagxttk8zlcgdfpcoiy3e70qo,8KJEc5yk,2020-0188,2020-05-21,14:14:11,14:31:23,NA,incomplete,165,color,1,left,Red_Triangle_Stripes_3.jpg,Red_Circle_Chess_2.jpg,Purple_Star_Grid_3.jpg,left,533,true,high,NA,NA,NA,NA,NA,NA,NA,false
8KJEc5yk,338glsui56olvzhlkxidlboc564sfp,3u8ycdagxttk8zlcgdfpcoiy3e70qo,8KJEc5yk,2020-0188,2020-05-21,14:14:11,14:31:23,NA,incomplete,166,color,1,right,Blue_Star_Grid_3.jpg,Green_Circle_Dots_3.jpg,Blue_Triangle_Chess_1.jpg,right,596,true,high,NA,NA,NA,NA,NA,NA,NA,false
8KJEc5yk,338glsui56olvzhlkxidlboc564sfp,3u8ycdagxttk8zlcgdfpcoiy3e70qo,8KJEc5yk,2020-0188,2020-05-21,14:14:11,14:31:23,NA,incomplete,167,color,0,left,Green_Plus_Dots_2.jpg,Green_Triangle_Grid_4.jpg,Purple_Star_Chess_2.jpg,left,444,true,high,NA,NA,NA,NA,NA,NA,NA,false
8KJEc5yk,338glsui56olvzhlkxidlboc564sfp,3u8ycdagxttk8zlcgdfpcoiy3e70qo,8KJEc5yk,2020-0188,2020-05-21,14:14:11,14:31:23,NA,incomplete,168,color,1,right,Blue_Circle_Grid_2.jpg,Red_Star_Dots_2.jpg,Blue_Plus_Chess_4.jpg,right,523,true,high,NA,NA,NA,NA,NA,NA,NA,false
8KJEc5yk,338glsui56olvzhlkxidlboc564sfp,3u8ycdagxttk8zlcgdfpcoiy3e70qo,8KJEc5yk,2020-0188,2020-05-21,14:14:11,14:31:23,NA,incomplete,169,color,1,right,Purple_Triangle_Stripes_4.jpg,Green_Plus_Chess_4.jpg,Purple_Star_Dots_3.jpg,right,907,true,high,NA,NA,NA,NA,NA,NA,NA,false
8KJEc5yk,338glsui56olvzhlkxidlboc564sfp,3u8ycdagxttk8zlcgdfpcoiy3e70qo,8KJEc5yk,2020-0188,2020-05-21,14:14:11,14:31:23,NA,incomplete,170,color,1,right,Green_Circle_Chess_3.jpg,Blue_Plus_Dots_3.jpg,Green_Star_Grid_2.jpg,right,571,true,high,NA,NA,NA,NA,NA,NA,NA,false
8KJEc5yk,338glsui56olvzhlkxidlboc564sfp,3u8ycdagxttk8zlcgdfpcoiy3e70qo,8KJEc5yk,2020-0188,2020-05-21,14:14:11,14:31:23,NA,incomplete,171,color,1,left,Purple_Star_Dots_2.jpg,Purple_Plus_Grid_4.jpg,Green_Circle_Chess_2.jpg,left,500,true,high,NA,NA,NA,NA,NA,NA,NA,false
8KJEc5yk,338glsui56olvzhlkxidlboc564sfp,3u8ycdagxttk8zlcgdfpcoiy3e70qo,8KJEc5yk,2020-0188,2020-05-21,14:14:11,14:31:23,NA,incomplete,172,color,0,left,Blue_Triangle_Chess_1.jpg,Blue_Circle_Dots_4.jpg,Green_Star_Stripes_1.jpg,left,613,true,high,NA,NA,NA,NA,NA,NA,NA,false
8KJEc5yk,338glsui56olvzhlkxidlboc564sfp,3u8ycdagxttk8zlcgdfpcoiy3e70qo,8KJEc5yk,2020-0188,2020-05-21,14:14:11,14:31:23,NA,incomplete,173,color,1,left,Green_Plus_Grid_4.jpg,Green_Star_Stripes_2.jpg,Red_Triangle_Chess_4.jpg,left,637,true,high,NA,NA,NA,NA,NA,NA,NA,false
8KJEc5yk,338glsui56olvzhlkxidlboc564sfp,3u8ycdagxttk8zlcgdfpcoiy3e70qo,8KJEc5yk,2020-0188,2020-05-21,14:14:11,14:31:23,NA,incomplete,174,color,1,left,Purple_Star_Chess_4.jpg,Purple_Circle_Grid_1.jpg,Blue_Plus_Dots_4.jpg,left,596,true,high,NA,NA,NA,NA,NA,NA,NA,false
8KJEc5yk,338glsui56olvzhlkxidlboc564sfp,3u8ycdagxttk8zlcgdfpcoiy3e70qo,8KJEc5yk,2020-0188,2020-05-21,14:14:11,14:31:23,NA,incomplete,175,color,0,right,Green_Circle_Stripes_2.jpg,Purple_Triangle_Dots_2.jpg,Green_Plus_Chess_1.jpg,right,717,true,high,NA,NA,NA,NA,NA,NA,NA,false
8KJEc5yk,338glsui56olvzhlkxidlboc564sfp,3u8ycdagxttk8zlcgdfpcoiy3e70qo,8KJEc5yk,2020-0188,2020-05-21,14:14:11,14:31:23,NA,incomplete,176,color,1,right,Green_Circle_Chess_3.jpg,Purple_Plus_Stripes_3.jpg,Green_Star_Grid_4.jpg,right,555,true,high,NA,NA,NA,NA,NA,NA,NA,false
8KJEc5yk,338glsui56olvzhlkxidlboc564sfp,3u8ycdagxttk8zlcgdfpcoiy3e70qo,8KJEc5yk,2020-0188,2020-05-21,14:14:11,14:31:23,NA,incomplete,177,color,1,right,Blue_Star_Dots_1.jpg,Purple_Circle_Grid_1.jpg,Blue_Triangle_Chess_3.jpg,right,506,true,high,NA,NA,NA,NA,NA,NA,NA,false
8KJEc5yk,338glsui56olvzhlkxidlboc564sfp,3u8ycdagxttk8zlcgdfpcoiy3e70qo,8KJEc5yk,2020-0188,2020-05-21,14:14:11,14:31:23,NA,incomplete,178,color,0,left,Blue_Circle_Dots_4.jpg,Blue_Plus_Stripes_2.jpg,Purple_Star_Grid_4.jpg,left,442,true,high,NA,NA,NA,NA,NA,NA,NA,false
8KJEc5yk,338glsui56olvzhlkxidlboc564sfp,3u8ycdagxttk8zlcgdfpcoiy3e70qo,8KJEc5yk,2020-0188,2020-05-21,14:14:11,14:31:23,NA,incomplete,179,color,1,right,Blue_Plus_Chess_2.jpg,Purple_Star_Dots_2.jpg,Blue_Triangle_Stripes_1.jpg,right,561,true,high,NA,NA,NA,NA,NA,NA,NA,false
8KJEc5yk,338glsui56olvzhlkxidlboc564sfp,3u8ycdagxttk8zlcgdfpcoiy3e70qo,8KJEc5yk,2020-0188,2020-05-21,14:14:11,14:31:23,NA,incomplete,180,number,1,left,Green_Triangle_Grid_3.jpg,Purple_Circle_Chess_3.jpg,Green_Star_Stripes_4.jpg,right,605,false,high,NA,NA,NA,NA,NA,NA,NA,false
8KJEc5yk,338glsui56olvzhlkxidlboc564sfp,3u8ycdagxttk8zlcgdfpcoiy3e70qo,8KJEc5yk,2020-0188,2020-05-21,14:14:11,14:31:23,NA,incomplete,181,number,1,left,Purple_Star_Stripes_2.jpg,Blue_Plus_Chess_2.jpg,Purple_Circle_Grid_1.jpg,right,853,false,high,NA,NA,NA,NA,NA,NA,NA,false
8KJEc5yk,338glsui56olvzhlkxidlboc564sfp,3u8ycdagxttk8zlcgdfpcoiy3e70qo,8KJEc5yk,2020-0188,2020-05-21,14:14:11,14:31:23,NA,incomplete,182,number,0,right,Green_Star_Chess_4.jpg,Green_Circle_Stripes_2.jpg,Red_Plus_Grid_4.jpg,right,667,true,high,NA,NA,NA,NA,NA,NA,NA,false
8KJEc5yk,338glsui56olvzhlkxidlboc564sfp,3u8ycdagxttk8zlcgdfpcoiy3e70qo,8KJEc5yk,2020-0188,2020-05-21,14:14:11,14:31:23,NA,incomplete,183,number,1,left,Blue_Triangle_Grid_4.jpg,Green_Circle_Stripes_4.jpg,Blue_Plus_Dots_1.jpg,left,644,true,high,NA,NA,NA,NA,NA,NA,NA,false
8KJEc5yk,338glsui56olvzhlkxidlboc564sfp,3u8ycdagxttk8zlcgdfpcoiy3e70qo,8KJEc5yk,2020-0188,2020-05-21,14:14:11,14:31:23,NA,incomplete,184,number,0,left,Blue_Star_Grid_3.jpg,Red_Plus_Dots_3.jpg,Blue_Triangle_Stripes_2.jpg,left,723,true,high,NA,NA,NA,NA,NA,NA,NA,false
8KJEc5yk,338glsui56olvzhlkxidlboc564sfp,3u8ycdagxttk8zlcgdfpcoiy3e70qo,8KJEc5yk,2020-0188,2020-05-21,14:14:11,14:31:23,NA,incomplete,185,number,1,right,Blue_Star_Dots_3.jpg,Blue_Plus_Grid_1.jpg,Red_Triangle_Stripes_3.jpg,right,715,true,high,NA,NA,NA,NA,NA,NA,NA,false
8KJEc5yk,338glsui56olvzhlkxidlboc564sfp,3u8ycdagxttk8zlcgdfpcoiy3e70qo,8KJEc5yk,2020-0188,2020-05-21,14:14:11,14:31:23,NA,incomplete,186,number,1,left,Purple_Plus_Dots_4.jpg,Blue_Circle_Stripes_4.jpg,Purple_Triangle_Chess_1.jpg,left,665,true,high,NA,NA,NA,NA,NA,NA,NA,false
8KJEc5yk,338glsui56olvzhlkxidlboc564sfp,3u8ycdagxttk8zlcgdfpcoiy3e70qo,8KJEc5yk,2020-0188,2020-05-21,14:14:11,14:31:23,NA,incomplete,187,number,0,left,Green_Plus_Grid_2.jpg,Blue_Triangle_Dots_2.jpg,Green_Circle_Stripes_4.jpg,left,708,true,high,NA,NA,NA,NA,NA,NA,NA,false
8KJEc5yk,338glsui56olvzhlkxidlboc564sfp,3u8ycdagxttk8zlcgdfpcoiy3e70qo,8KJEc5yk,2020-0188,2020-05-21,14:14:11,14:31:23,NA,incomplete,188,number,1,left,Purple_Plus_Chess_3.jpg,Blue_Triangle_Grid_3.jpg,Purple_Star_Stripes_1.jpg,right,620,false,high,NA,NA,NA,NA,NA,NA,NA,false
8KJEc5yk,338glsui56olvzhlkxidlboc564sfp,3u8ycdagxttk8zlcgdfpcoiy3e70qo,8KJEc5yk,2020-0188,2020-05-21,14:14:11,14:31:23,NA,incomplete,189,number,1,left,Red_Plus_Grid_2.jpg,Blue_Triangle_Stripes_2.jpg,Red_Star_Dots_3.jpg,left,738,true,high,NA,NA,NA,NA,NA,NA,NA,false
8KJEc5yk,338glsui56olvzhlkxidlboc564sfp,3u8ycdagxttk8zlcgdfpcoiy3e70qo,8KJEc5yk,2020-0188,2020-05-21,14:14:11,14:31:23,NA,incomplete,190,number,1,right,Blue_Triangle_Grid_2.jpg,Blue_Star_Stripes_4.jpg,Green_Circle_Chess_2.jpg,right,642,true,high,NA,NA,NA,NA,NA,NA,NA,false
8KJEc5yk,338glsui56olvzhlkxidlboc564sfp,3u8ycdagxttk8zlcgdfpcoiy3e70qo,8KJEc5yk,2020-0188,2020-05-21,14:14:11,14:31:23,NA,incomplete,191,number,1,left,Blue_Plus_Grid_4.jpg,Green_Circle_Dots_4.jpg,Blue_Star_Chess_1.jpg,left,645,true,high,NA,NA,NA,NA,NA,NA,NA,false
8KJEc5yk,338glsui56olvzhlkxidlboc564sfp,3u8ycdagxttk8zlcgdfpcoiy3e70qo,8KJEc5yk,2020-0188,2020-05-21,14:14:11,14:31:23,NA,incomplete,192,number,0,left,Blue_Circle_Dots_2.jpg,Red_Triangle_Grid_2.jpg,Blue_Star_Stripes_4.jpg,left,675,true,high,NA,NA,NA,NA,NA,NA,NA,false
8KJEc5yk,338glsui56olvzhlkxidlboc564sfp,3u8ycdagxttk8zlcgdfpcoiy3e70qo,8KJEc5yk,2020-0188,2020-05-21,14:14:11,14:31:23,NA,incomplete,193,number,1,left,Purple_Triangle_Stripes_3.jpg,Red_Circle_Dots_3.jpg,Purple_Star_Chess_4.jpg,left,725,true,high,NA,NA,NA,NA,NA,NA,NA,false
8KJEc5yk,338glsui56olvzhlkxidlboc564sfp,3u8ycdagxttk8zlcgdfpcoiy3e70qo,8KJEc5yk,2020-0188,2020-05-21,14:14:11,14:31:23,NA,incomplete,194,number,1,left,Blue_Triangle_Chess_3.jpg,Green_Plus_Stripes_3.jpg,Blue_Circle_Grid_1.jpg,left,564,true,high,NA,NA,NA,NA,NA,NA,NA,false
8KJEc5yk,338glsui56olvzhlkxidlboc564sfp,3u8ycdagxttk8zlcgdfpcoiy3e70qo,8KJEc5yk,2020-0188,2020-05-21,14:14:11,14:31:23,NA,incomplete,195,number,1,right,Blue_Circle_Chess_1.jpg,Blue_Triangle_Grid_3.jpg,Green_Star_Dots_1.jpg,right,993,true,high,NA,NA,NA,NA,NA,NA,NA,false
8KJEc5yk,338glsui56olvzhlkxidlboc564sfp,3u8ycdagxttk8zlcgdfpcoiy3e70qo,8KJEc5yk,2020-0188,2020-05-21,14:14:11,14:31:23,NA,incomplete,196,number,1,left,Green_Star_Grid_4.jpg,Red_Triangle_Chess_4.jpg,Green_Plus_Dots_3.jpg,left,618,true,high,NA,NA,NA,NA,NA,NA,NA,false
8KJEc5yk,338glsui56olvzhlkxidlboc564sfp,3u8ycdagxttk8zlcgdfpcoiy3e70qo,8KJEc5yk,2020-0188,2020-05-21,14:14:11,14:31:23,NA,incomplete,197,number,1,left,Red_Star_Grid_4.jpg,Blue_Plus_Chess_4.jpg,Red_Triangle_Dots_2.jpg,left,525,true,high,NA,NA,NA,NA,NA,NA,NA,false
8KJEc5yk,338glsui56olvzhlkxidlboc564sfp,3u8ycdagxttk8zlcgdfpcoiy3e70qo,8KJEc5yk,2020-0188,2020-05-21,14:14:11,14:31:23,NA,incomplete,198,number,1,right,Red_Star_Chess_1.jpg,Red_Circle_Stripes_3.jpg,Purple_Plus_Dots_1.jpg,right,581,true,high,NA,NA,NA,NA,NA,NA,NA,false
8KJEc5yk,338glsui56olvzhlkxidlboc564sfp,3u8ycdagxttk8zlcgdfpcoiy3e70qo,8KJEc5yk,2020-0188,2020-05-21,14:14:11,14:31:23,NA,incomplete,199,number,1,right,Blue_Star_Stripes_4.jpg,Blue_Triangle_Grid_3.jpg,Green_Circle_Dots_4.jpg,right,603,true,high,NA,NA,NA,NA,NA,NA,NA,false
8KJEc5yk,338glsui56olvzhlkxidlboc564sfp,3u8ycdagxttk8zlcgdfpcoiy3e70qo,8KJEc5yk,2020-0188,2020-05-21,14:14:11,14:31:23,NA,incomplete,200,color,1,right,Green_Plus_Grid_4.jpg,Blue_Star_Dots_4.jpg,Green_Triangle_Stripes_3.jpg,left,595,false,high,NA,NA,NA,NA,NA,NA,NA,false
8KJEc5yk,338glsui56olvzhlkxidlboc564sfp,3u8ycdagxttk8zlcgdfpcoiy3e70qo,8KJEc5yk,2020-0188,2020-05-21,14:14:11,14:31:23,NA,incomplete,201,color,1,right,Purple_Circle_Grid_2.jpg,Green_Star_Chess_2.jpg,Purple_Triangle_Stripes_1.jpg,left,715,false,high,NA,NA,NA,NA,NA,NA,NA,false
8KJEc5yk,338glsui56olvzhlkxidlboc564sfp,3u8ycdagxttk8zlcgdfpcoiy3e70qo,8KJEc5yk,2020-0188,2020-05-21,14:14:11,14:31:23,NA,incomplete,202,color,1,left,Purple_Star_Dots_4.jpg,Purple_Circle_Grid_2.jpg,Red_Plus_Chess_4.jpg,left,546,true,high,NA,NA,NA,NA,NA,NA,NA,false
8KJEc5yk,338glsui56olvzhlkxidlboc564sfp,3u8ycdagxttk8zlcgdfpcoiy3e70qo,8KJEc5yk,2020-0188,2020-05-21,14:14:11,14:31:23,NA,incomplete,203,color,1,right,Green_Plus_Grid_4.jpg,Blue_Star_Stripes_4.jpg,Green_Circle_Dots_3.jpg,right,546,true,high,NA,NA,NA,NA,NA,NA,NA,false
8KJEc5yk,338glsui56olvzhlkxidlboc564sfp,3u8ycdagxttk8zlcgdfpcoiy3e70qo,8KJEc5yk,2020-0188,2020-05-21,14:14:11,14:31:23,NA,incomplete,204,color,1,left,Green_Star_Chess_1.jpg,Green_Circle_Grid_3.jpg,Purple_Triangle_Stripes_1.jpg,left,421,true,high,NA,NA,NA,NA,NA,NA,NA,false
8KJEc5yk,338glsui56olvzhlkxidlboc564sfp,3u8ycdagxttk8zlcgdfpcoiy3e70qo,8KJEc5yk,2020-0188,2020-05-21,14:14:11,14:31:23,NA,incomplete,205,color,1,left,Green_Circle_Dots_1.jpg,Green_Star_Chess_3.jpg,Blue_Triangle_Stripes_1.jpg,left,427,true,high,NA,NA,NA,NA,NA,NA,NA,false
8KJEc5yk,338glsui56olvzhlkxidlboc564sfp,3u8ycdagxttk8zlcgdfpcoiy3e70qo,8KJEc5yk,2020-0188,2020-05-21,14:14:11,14:31:23,NA,incomplete,206,color,0,right,Green_Star_Grid_1.jpg,Purple_Triangle_Stripes_1.jpg,Green_Plus_Chess_4.jpg,right,484,true,high,NA,NA,NA,NA,NA,NA,NA,false
8KJEc5yk,338glsui56olvzhlkxidlboc564sfp,3u8ycdagxttk8zlcgdfpcoiy3e70qo,8KJEc5yk,2020-0188,2020-05-21,14:14:11,14:31:23,NA,incomplete,207,color,1,left,Purple_Star_Chess_2.jpg,Purple_Plus_Grid_4.jpg,Blue_Triangle_Stripes_2.jpg,left,461,true,high,NA,NA,NA,NA,NA,NA,NA,false
8KJEc5yk,338glsui56olvzhlkxidlboc564sfp,3u8ycdagxttk8zlcgdfpcoiy3e70qo,8KJEc5yk,2020-0188,2020-05-21,14:14:11,14:31:23,NA,incomplete,208,color,1,right,Red_Plus_Dots_4.jpg,Blue_Circle_Grid_4.jpg,Red_Triangle_Stripes_1.jpg,right,484,true,high,NA,NA,NA,NA,NA,NA,NA,false
8KJEc5yk,338glsui56olvzhlkxidlboc564sfp,3u8ycdagxttk8zlcgdfpcoiy3e70qo,8KJEc5yk,2020-0188,2020-05-21,14:14:11,14:31:23,NA,incomplete,209,color,0,right,Green_Plus_Chess_4.jpg,Red_Circle_Grid_4.jpg,Green_Triangle_Stripes_2.jpg,right,661,true,high,NA,NA,NA,NA,NA,NA,NA,false
8KJEc5yk,338glsui56olvzhlkxidlboc564sfp,3u8ycdagxttk8zlcgdfpcoiy3e70qo,8KJEc5yk,2020-0188,2020-05-21,14:14:11,14:31:23,NA,incomplete,210,color,1,right,Purple_Plus_Grid_1.jpg,Green_Circle_Dots_1.jpg,Purple_Triangle_Stripes_4.jpg,right,451,true,high,NA,NA,NA,NA,NA,NA,NA,false
8KJEc5yk,338glsui56olvzhlkxidlboc564sfp,3u8ycdagxttk8zlcgdfpcoiy3e70qo,8KJEc5yk,2020-0188,2020-05-21,14:14:11,14:31:23,NA,incomplete,211,color,1,left,Red_Circle_Stripes_4.jpg,Red_Plus_Grid_3.jpg,Green_Star_Chess_4.jpg,left,441,true,high,NA,NA,NA,NA,NA,NA,NA,false
8KJEc5yk,338glsui56olvzhlkxidlboc564sfp,3u8ycdagxttk8zlcgdfpcoiy3e70qo,8KJEc5yk,2020-0188,2020-05-21,14:14:11,14:31:23,NA,incomplete,212,color,1,left,Purple_Star_Chess_2.jpg,Purple_Plus_Grid_3.jpg,Green_Circle_Dots_2.jpg,left,509,true,high,NA,NA,NA,NA,NA,NA,NA,false
8KJEc5yk,338glsui56olvzhlkxidlboc564sfp,3u8ycdagxttk8zlcgdfpcoiy3e70qo,8KJEc5yk,2020-0188,2020-05-21,14:14:11,14:31:23,NA,incomplete,213,color,1,left,Blue_Circle_Dots_1.jpg,Blue_Star_Stripes_4.jpg,Green_Triangle_Chess_1.jpg,left,509,true,high,NA,NA,NA,NA,NA,NA,NA,false
8KJEc5yk,338glsui56olvzhlkxidlboc564sfp,3u8ycdagxttk8zlcgdfpcoiy3e70qo,8KJEc5yk,2020-0188,2020-05-21,14:14:11,14:31:23,NA,incomplete,214,color,1,right,Green_Plus_Dots_3.jpg,Purple_Star_Grid_3.jpg,Green_Circle_Stripes_1.jpg,right,437,true,high,NA,NA,NA,NA,NA,NA,NA,false
8KJEc5yk,338glsui56olvzhlkxidlboc564sfp,3u8ycdagxttk8zlcgdfpcoiy3e70qo,8KJEc5yk,2020-0188,2020-05-21,14:14:11,14:31:23,NA,incomplete,215,color,1,right,Red_Circle_Chess_2.jpg,Green_Triangle_Dots_2.jpg,Red_Plus_Stripes_1.jpg,right,485,true,high,NA,NA,NA,NA,NA,NA,NA,false
8KJEc5yk,338glsui56olvzhlkxidlboc564sfp,3u8ycdagxttk8zlcgdfpcoiy3e70qo,8KJEc5yk,2020-0188,2020-05-21,14:14:11,14:31:23,NA,incomplete,216,color,1,right,Red_Star_Dots_3.jpg,Purple_Circle_Chess_3.jpg,Red_Triangle_Stripes_1.jpg,right,457,true,high,NA,NA,NA,NA,NA,NA,NA,false
8KJEc5yk,338glsui56olvzhlkxidlboc564sfp,3u8ycdagxttk8zlcgdfpcoiy3e70qo,8KJEc5yk,2020-0188,2020-05-21,14:14:11,14:31:23,NA,incomplete,217,color,1,right,Green_Plus_Dots_4.jpg,Red_Star_Grid_4.jpg,Green_Triangle_Stripes_1.jpg,right,531,true,high,NA,NA,NA,NA,NA,NA,NA,false
8KJEc5yk,338glsui56olvzhlkxidlboc564sfp,3u8ycdagxttk8zlcgdfpcoiy3e70qo,8KJEc5yk,2020-0188,2020-05-21,14:14:11,14:31:23,NA,incomplete,218,color,1,right,Red_Circle_Chess_3.jpg,Blue_Triangle_Grid_3.jpg,Red_Plus_Stripes_1.jpg,right,515,true,high,NA,NA,NA,NA,NA,NA,NA,false
8KJEc5yk,338glsui56olvzhlkxidlboc564sfp,3u8ycdagxttk8zlcgdfpcoiy3e70qo,8KJEc5yk,2020-0188,2020-05-21,14:14:11,14:31:23,NA,incomplete,219,color,0,left,Purple_Circle_Stripes_2.jpg,Purple_Triangle_Dots_4.jpg,Red_Star_Chess_2.jpg,left,468,true,high,NA,NA,NA,NA,NA,NA,NA,false
8KJEc5yk,338glsui56olvzhlkxidlboc564sfp,3u8ycdagxttk8zlcgdfpcoiy3e70qo,8KJEc5yk,2020-0188,2020-05-21,14:14:11,14:31:23,NA,incomplete,220,number,1,right,Purple_Plus_Chess_4.jpg,Purple_Circle_Stripes_3.jpg,Red_Star_Grid_4.jpg,left,482,false,high,NA,NA,NA,NA,NA,NA,NA,false
8KJEc5yk,338glsui56olvzhlkxidlboc564sfp,3u8ycdagxttk8zlcgdfpcoiy3e70qo,8KJEc5yk,2020-0188,2020-05-21,14:14:11,14:31:23,NA,incomplete,221,number,0,right,Green_Star_Stripes_1.jpg,Green_Circle_Chess_2.jpg,Blue_Plus_Dots_1.jpg,right,652,true,high,NA,NA,NA,NA,NA,NA,NA,false
8KJEc5yk,338glsui56olvzhlkxidlboc564sfp,3u8ycdagxttk8zlcgdfpcoiy3e70qo,8KJEc5yk,2020-0188,2020-05-21,14:14:11,14:31:23,NA,incomplete,222,number,1,right,Green_Circle_Stripes_3.jpg,Green_Plus_Dots_2.jpg,Red_Triangle_Chess_3.jpg,right,694,true,high,NA,NA,NA,NA,NA,NA,NA,false
8KJEc5yk,338glsui56olvzhlkxidlboc564sfp,3u8ycdagxttk8zlcgdfpcoiy3e70qo,8KJEc5yk,2020-0188,2020-05-21,14:14:11,14:31:23,NA,incomplete,223,number,0,right,Purple_Plus_Stripes_3.jpg,Purple_Star_Dots_2.jpg,Red_Triangle_Grid_3.jpg,right,641,true,high,NA,NA,NA,NA,NA,NA,NA,false
8KJEc5yk,338glsui56olvzhlkxidlboc564sfp,3u8ycdagxttk8zlcgdfpcoiy3e70qo,8KJEc5yk,2020-0188,2020-05-21,14:14:11,14:31:23,NA,incomplete,224,number,1,right,Red_Star_Dots_2.jpg,Red_Circle_Stripes_4.jpg,Purple_Triangle_Chess_2.jpg,right,637,true,high,NA,NA,NA,NA,NA,NA,NA,false
8KJEc5yk,338glsui56olvzhlkxidlboc564sfp,3u8ycdagxttk8zlcgdfpcoiy3e70qo,8KJEc5yk,2020-0188,2020-05-21,14:14:11,14:31:23,NA,incomplete,225,number,0,left,Red_Triangle_Dots_2.jpg,Green_Plus_Stripes_2.jpg,Red_Circle_Grid_1.jpg,left,604,true,high,NA,NA,NA,NA,NA,NA,NA,false
8KJEc5yk,338glsui56olvzhlkxidlboc564sfp,3u8ycdagxttk8zlcgdfpcoiy3e70qo,8KJEc5yk,2020-0188,2020-05-21,14:14:11,14:31:23,NA,incomplete,226,number,1,right,Purple_Star_Dots_1.jpg,Purple_Triangle_Grid_2.jpg,Blue_Plus_Chess_1.jpg,right,620,true,high,NA,NA,NA,NA,NA,NA,NA,false
8KJEc5yk,338glsui56olvzhlkxidlboc564sfp,3u8ycdagxttk8zlcgdfpcoiy3e70qo,8KJEc5yk,2020-0188,2020-05-21,14:14:11,14:31:23,NA,incomplete,227,number,0,right,Purple_Star_Chess_2.jpg,Purple_Triangle_Grid_4.jpg,Green_Plus_Stripes_2.jpg,right,748,true,high,NA,NA,NA,NA,NA,NA,NA,false
8KJEc5yk,338glsui56olvzhlkxidlboc564sfp,3u8ycdagxttk8zlcgdfpcoiy3e70qo,8KJEc5yk,2020-0188,2020-05-21,14:14:11,14:31:23,NA,incomplete,228,number,1,right,Red_Circle_Dots_3.jpg,Red_Triangle_Grid_1.jpg,Purple_Star_Chess_3.jpg,left,602,false,high,NA,NA,NA,NA,NA,NA,NA,false
8KJEc5yk,338glsui56olvzhlkxidlboc564sfp,3u8ycdagxttk8zlcgdfpcoiy3e70qo,8KJEc5yk,2020-0188,2020-05-21,14:14:11,14:31:23,NA,incomplete,229,number,0,right,Blue_Plus_Dots_3.jpg,Blue_Triangle_Chess_4.jpg,Purple_Star_Grid_3.jpg,left,595,false,high,NA,NA,NA,NA,NA,NA,NA,false
8KJEc5yk,338glsui56olvzhlkxidlboc564sfp,3u8ycdagxttk8zlcgdfpcoiy3e70qo,8KJEc5yk,2020-0188,2020-05-21,14:14:11,14:31:23,NA,incomplete,230,number,1,right,Red_Star_Stripes_3.jpg,Red_Triangle_Dots_2.jpg,Green_Circle_Chess_3.jpg,left,867,false,high,NA,NA,NA,NA,NA,NA,NA,false
8KJEc5yk,338glsui56olvzhlkxidlboc564sfp,3u8ycdagxttk8zlcgdfpcoiy3e70qo,8KJEc5yk,2020-0188,2020-05-21,14:14:11,14:31:23,NA,incomplete,231,number,1,right,Purple_Circle_Chess_3.jpg,Purple_Triangle_Stripes_1.jpg,Red_Star_Dots_3.jpg,left,556,false,high,NA,NA,NA,NA,NA,NA,NA,false
8KJEc5yk,338glsui56olvzhlkxidlboc564sfp,3u8ycdagxttk8zlcgdfpcoiy3e70qo,8KJEc5yk,2020-0188,2020-05-21,14:14:11,14:31:23,NA,incomplete,232,number,1,left,Red_Plus_Stripes_1.jpg,Green_Circle_Dots_1.jpg,Red_Triangle_Chess_2.jpg,left,627,true,high,NA,NA,NA,NA,NA,NA,NA,false
8KJEc5yk,338glsui56olvzhlkxidlboc564sfp,3u8ycdagxttk8zlcgdfpcoiy3e70qo,8KJEc5yk,2020-0188,2020-05-21,14:14:11,14:31:23,NA,incomplete,233,number,1,right,Green_Circle_Stripes_2.jpg,Green_Triangle_Chess_3.jpg,Purple_Plus_Grid_2.jpg,right,746,true,high,NA,NA,NA,NA,NA,NA,NA,false
8KJEc5yk,338glsui56olvzhlkxidlboc564sfp,3u8ycdagxttk8zlcgdfpcoiy3e70qo,8KJEc5yk,2020-0188,2020-05-21,14:14:11,14:31:23,NA,incomplete,234,number,1,left,Green_Triangle_Stripes_4.jpg,Red_Plus_Chess_4.jpg,Green_Circle_Dots_1.jpg,left,692,true,high,NA,NA,NA,NA,NA,NA,NA,false
8KJEc5yk,338glsui56olvzhlkxidlboc564sfp,3u8ycdagxttk8zlcgdfpcoiy3e70qo,8KJEc5yk,2020-0188,2020-05-21,14:14:11,14:31:23,NA,incomplete,235,number,1,left,Purple_Circle_Chess_3.jpg,Blue_Triangle_Stripes_3.jpg,Purple_Plus_Grid_1.jpg,left,557,true,high,NA,NA,NA,NA,NA,NA,NA,false
8KJEc5yk,338glsui56olvzhlkxidlboc564sfp,3u8ycdagxttk8zlcgdfpcoiy3e70qo,8KJEc5yk,2020-0188,2020-05-21,14:14:11,14:31:23,NA,incomplete,236,number,1,left,Blue_Triangle_Stripes_1.jpg,Purple_Star_Chess_1.jpg,Blue_Plus_Dots_4.jpg,left,508,true,high,NA,NA,NA,NA,NA,NA,NA,false
8KJEc5yk,338glsui56olvzhlkxidlboc564sfp,3u8ycdagxttk8zlcgdfpcoiy3e70qo,8KJEc5yk,2020-0188,2020-05-21,14:14:11,14:31:23,NA,incomplete,237,number,1,right,Blue_Star_Stripes_3.jpg,Blue_Plus_Chess_1.jpg,Red_Triangle_Dots_3.jpg,right,604,true,high,NA,NA,NA,NA,NA,NA,NA,false
8KJEc5yk,338glsui56olvzhlkxidlboc564sfp,3u8ycdagxttk8zlcgdfpcoiy3e70qo,8KJEc5yk,2020-0188,2020-05-21,14:14:11,14:31:23,NA,incomplete,238,number,1,right,Purple_Circle_Grid_1.jpg,Purple_Star_Dots_3.jpg,Red_Plus_Chess_1.jpg,right,596,true,high,NA,NA,NA,NA,NA,NA,NA,false
8KJEc5yk,338glsui56olvzhlkxidlboc564sfp,3u8ycdagxttk8zlcgdfpcoiy3e70qo,8KJEc5yk,2020-0188,2020-05-21,14:14:11,14:31:23,NA,incomplete,239,number,1,right,Green_Star_Dots_4.jpg,Green_Circle_Chess_1.jpg,Blue_Plus_Grid_4.jpg,right,685,true,high,NA,NA,NA,NA,NA,NA,NA,false
8KJEc5yk,338glsui56olvzhlkxidlboc564sfp,3u8ycdagxttk8zlcgdfpcoiy3e70qo,8KJEc5yk,2020-0188,2020-05-21,14:14:11,14:31:23,NA,NA,instruction example,filling,NA,NA,Green_Plus_Dots_3.jpg,Purple_Star_Dots_2.jpg,Red_Plus_Chess_1.jpg,NA,NA,NA,NA,NA,NA,NA,NA,NA,NA,NA,undefined
8KJEc5yk,338glsui56olvzhlkxidlboc564sfp,3u8ycdagxttk8zlcgdfpcoiy3e70qo,8KJEc5yk,2020-0188,2020-05-21,14:14:11,14:31:23,NA,NA,instruction example,filling,NA,NA,Red_Star_Dots_2.jpg,Green_Star_Stripes_3.jpg,Blue_Plus_Dots_4.jpg,NA,NA,NA,NA,NA,NA,NA,NA,NA,NA,NA,undefined
8KJEc5yk,338glsui56olvzhlkxidlboc564sfp,3u8ycdagxttk8zlcgdfpcoiy3e70qo,8KJEc5yk,2020-0188,2020-05-21,14:14:11,14:31:23,NA,NA,instruction example,filling,NA,NA,Red_Circle_Chess_4.jpg,Red_Star_Grid_2.jpg,Purple_Plus_Stripes_4.jpg,NA,NA,NA,NA,NA,NA,NA,NA,NA,NA,NA,undefined
8KJEc5yk,338glsui56olvzhlkxidlboc564sfp,3u8ycdagxttk8zlcgdfpcoiy3e70qo,8KJEc5yk,2020-0188,2020-05-21,14:14:11,14:31:23,NA,NA,instruction example,filling,NA,NA,Blue_Triangle_Dots_2.jpg,Green_Circle_Chess_2.jpg,Blue_Plus_Stripes_4.jpg,NA,NA,NA,NA,NA,NA,NA,NA,NA,NA,NA,undefined
8KJEc5yk,338glsui56olvzhlkxidlboc564sfp,3u8ycdagxttk8zlcgdfpcoiy3e70qo,8KJEc5yk,2020-0188,2020-05-21,14:14:11,14:31:23,1007209,1034580,NA,NA,NA,NA,NA,NA,NA,NA,NA,NA,NA,31,White/Caucasian,Male,White/American,no,yes,no,undefined
