workerId,hitId,assignmentId,subject,studyid,exp_date,exp_start,exp_end,time_start,time_end,trial,type,reward_validity,answer,image_top,image_left,image_right,response,response_time,response_acc,volatility,practice
D7whsHeY,3r15w654wg6vibc4e4w6loevry9lqd,3un61f00h02jf7mdqya1y9ove325rn,D7whsHeY,2020-0188,2020-11-18,16:46:58,17:05:22,NA,incomplete,0,color,1,left,Purple_Circle_Stripes_4.jpg,Purple_Star_Dots_3.jpg,Green_Plus_Stripes_1.jpg,left,1652.750000008382,true,NA,true
D7whsHeY,3r15w654wg6vibc4e4w6loevry9lqd,3un61f00h02jf7mdqya1y9ove325rn,D7whsHeY,2020-0188,2020-11-18,16:46:58,17:05:22,NA,incomplete,1,color,1,right,Red_Circle_Grid_2.jpg,Green_Star_Grid_3.jpg,Red_Triangle_Chess_1.jpg,right,555.7200000039302,true,NA,true
D7whsHeY,3r15w654wg6vibc4e4w6loevry9lqd,3un61f00h02jf7mdqya1y9ove325rn,D7whsHeY,2020-0188,2020-11-18,16:46:58,17:05:22,NA,incomplete,2,color,1,right,Green_Star_Dots_2.jpg,Red_Plus_Dots_3.jpg,Green_Triangle_Stripes_4.jpg,right,854.6000000205822,true,NA,true
D7whsHeY,3r15w654wg6vibc4e4w6loevry9lqd,3un61f00h02jf7mdqya1y9ove325rn,D7whsHeY,2020-0188,2020-11-18,16:46:58,17:05:22,NA,incomplete,3,color,1,left,Green_Star_Stripes_1.jpg,Green_Triangle_Chess_3.jpg,Purple_Circle_Stripes_4.jpg,left,662.2499999939464,true,NA,true
D7whsHeY,3r15w654wg6vibc4e4w6loevry9lqd,3un61f00h02jf7mdqya1y9ove325rn,D7whsHeY,2020-0188,2020-11-18,16:46:58,17:05:22,NA,incomplete,4,color,1,right,Blue_Plus_Stripes_1.jpg,Green_Triangle_Stripes_4.jpg,Blue_Star_Dots_3.jpg,right,558.4249999956228,true,NA,true
D7whsHeY,3r15w654wg6vibc4e4w6loevry9lqd,3un61f00h02jf7mdqya1y9ove325rn,D7whsHeY,2020-0188,2020-11-18,16:46:58,17:05:22,NA,incomplete,5,color,1,right,Blue_Circle_Stripes_2.jpg,Red_Triangle_Stripes_4.jpg,Blue_Plus_Chess_3.jpg,right,409.75500002969056,true,NA,true
D7whsHeY,3r15w654wg6vibc4e4w6loevry9lqd,3un61f00h02jf7mdqya1y9ove325rn,D7whsHeY,2020-0188,2020-11-18,16:46:58,17:05:22,NA,incomplete,6,color,0,right,Red_Plus_Stripes_4.jpg,Blue_Triangle_Stripes_3.jpg,Red_Circle_Chess_1.jpg,right,677.6299999910407,true,NA,true
D7whsHeY,3r15w654wg6vibc4e4w6loevry9lqd,3un61f00h02jf7mdqya1y9ove325rn,D7whsHeY,2020-0188,2020-11-18,16:46:58,17:05:22,NA,incomplete,7,color,0,right,Green_Circle_Dots_4.jpg,Purple_Triangle_Dots_3.jpg,Green_Plus_Chess_2.jpg,right,667.4099999945611,true,NA,true
D7whsHeY,3r15w654wg6vibc4e4w6loevry9lqd,3un61f00h02jf7mdqya1y9ove325rn,D7whsHeY,2020-0188,2020-11-18,16:46:58,17:05:22,NA,incomplete,8,color,0,left,Purple_Circle_Chess_4.jpg,Purple_Star_Grid_1.jpg,Blue_Plus_Chess_2.jpg,right,427.2999999811873,false,NA,true
D7whsHeY,3r15w654wg6vibc4e4w6loevry9lqd,3un61f00h02jf7mdqya1y9ove325rn,D7whsHeY,2020-0188,2020-11-18,16:46:58,17:05:22,NA,incomplete,9,color,1,left,Purple_Triangle_Dots_2.jpg,Purple_Circle_Grid_3.jpg,Green_Plus_Dots_1.jpg,left,693.8650000374764,true,NA,true
D7whsHeY,3r15w654wg6vibc4e4w6loevry9lqd,3un61f00h02jf7mdqya1y9ove325rn,D7whsHeY,2020-0188,2020-11-18,16:46:58,17:05:22,NA,incomplete,10,color,1,right,Blue_Plus_Dots_4.jpg,Purple_Triangle_Dots_3.jpg,Blue_Star_Stripes_2.jpg,right,547.5149999838322,true,NA,true
D7whsHeY,3r15w654wg6vibc4e4w6loevry9lqd,3un61f00h02jf7mdqya1y9ove325rn,D7whsHeY,2020-0188,2020-11-18,16:46:58,17:05:22,NA,incomplete,11,color,1,right,Green_Triangle_Stripes_2.jpg,Purple_Star_Stripes_1.jpg,Green_Plus_Chess_4.jpg,right,463.83999998215586,true,NA,true
D7whsHeY,3r15w654wg6vibc4e4w6loevry9lqd,3un61f00h02jf7mdqya1y9ove325rn,D7whsHeY,2020-0188,2020-11-18,16:46:58,17:05:22,NA,incomplete,12,color,1,left,Green_Star_Chess_4.jpg,Green_Plus_Dots_2.jpg,Blue_Circle_Chess_3.jpg,left,504.4950000010431,true,NA,true
D7whsHeY,3r15w654wg6vibc4e4w6loevry9lqd,3un61f00h02jf7mdqya1y9ove325rn,D7whsHeY,2020-0188,2020-11-18,16:46:58,17:05:22,NA,incomplete,13,color,1,right,Purple_Star_Grid_4.jpg,Red_Circle_Grid_1.jpg,Purple_Triangle_Chess_3.jpg,right,438.0549999768846,true,NA,true
D7whsHeY,3r15w654wg6vibc4e4w6loevry9lqd,3un61f00h02jf7mdqya1y9ove325rn,D7whsHeY,2020-0188,2020-11-18,16:46:58,17:05:22,NA,incomplete,14,color,1,left,Purple_Star_Grid_1.jpg,Purple_Triangle_Dots_2.jpg,Blue_Plus_Grid_3.jpg,left,421.3950000121258,true,NA,true
D7whsHeY,3r15w654wg6vibc4e4w6loevry9lqd,3un61f00h02jf7mdqya1y9ove325rn,D7whsHeY,2020-0188,2020-11-18,16:46:58,17:05:22,NA,incomplete,15,color,1,left,Green_Triangle_Dots_2.jpg,Green_Star_Grid_3.jpg,Purple_Plus_Dots_4.jpg,left,447.4900000495836,true,NA,true
D7whsHeY,3r15w654wg6vibc4e4w6loevry9lqd,3un61f00h02jf7mdqya1y9ove325rn,D7whsHeY,2020-0188,2020-11-18,16:46:58,17:05:22,NA,incomplete,16,color,1,left,Blue_Circle_Dots_3.jpg,Blue_Triangle_Stripes_1.jpg,Purple_Star_Dots_4.jpg,left,704.9850000184961,true,NA,true
D7whsHeY,3r15w654wg6vibc4e4w6loevry9lqd,3un61f00h02jf7mdqya1y9ove325rn,D7whsHeY,2020-0188,2020-11-18,16:46:58,17:05:22,NA,incomplete,17,color,1,right,Purple_Plus_Stripes_3.jpg,Blue_Star_Stripes_2.jpg,Purple_Circle_Grid_4.jpg,right,438.4999999892898,true,NA,true
D7whsHeY,3r15w654wg6vibc4e4w6loevry9lqd,3un61f00h02jf7mdqya1y9ove325rn,D7whsHeY,2020-0188,2020-11-18,16:46:58,17:05:22,NA,incomplete,18,color,1,left,Purple_Triangle_Grid_4.jpg,Purple_Star_Chess_1.jpg,Green_Circle_Grid_3.jpg,left,567.8749999497086,true,NA,true
D7whsHeY,3r15w654wg6vibc4e4w6loevry9lqd,3un61f00h02jf7mdqya1y9ove325rn,D7whsHeY,2020-0188,2020-11-18,16:46:58,17:05:22,NA,incomplete,19,color,1,right,Red_Star_Stripes_3.jpg,Blue_Plus_Stripes_4.jpg,Red_Circle_Grid_1.jpg,right,411.4450000342913,true,NA,true
D7whsHeY,3r15w654wg6vibc4e4w6loevry9lqd,3un61f00h02jf7mdqya1y9ove325rn,D7whsHeY,2020-0188,2020-11-18,16:46:58,17:05:22,NA,incomplete,20,filling,0,left,Red_Plus_Chess_1.jpg,Purple_Star_Chess_3.jpg,Red_Circle_Stripes_4.jpg,right,487.63500002678484,false,NA,true
D7whsHeY,3r15w654wg6vibc4e4w6loevry9lqd,3un61f00h02jf7mdqya1y9ove325rn,D7whsHeY,2020-0188,2020-11-18,16:46:58,17:05:22,NA,incomplete,21,filling,1,left,Green_Plus_Grid_3.jpg,Purple_Star_Grid_2.jpg,Green_Circle_Dots_4.jpg,right,518.3250000118278,false,NA,true
D7whsHeY,3r15w654wg6vibc4e4w6loevry9lqd,3un61f00h02jf7mdqya1y9ove325rn,D7whsHeY,2020-0188,2020-11-18,16:46:58,17:05:22,NA,incomplete,22,filling,1,left,Red_Triangle_Stripes_4.jpg,Green_Plus_Stripes_1.jpg,Red_Circle_Chess_2.jpg,left,1443.1299999705516,true,NA,true
D7whsHeY,3r15w654wg6vibc4e4w6loevry9lqd,3un61f00h02jf7mdqya1y9ove325rn,D7whsHeY,2020-0188,2020-11-18,16:46:58,17:05:22,NA,incomplete,23,filling,0,left,Purple_Triangle_Dots_4.jpg,Red_Star_Dots_1.jpg,Purple_Plus_Stripes_3.jpg,left,1778.9149999734946,true,NA,true
D7whsHeY,3r15w654wg6vibc4e4w6loevry9lqd,3un61f00h02jf7mdqya1y9ove325rn,D7whsHeY,2020-0188,2020-11-18,16:46:58,17:05:22,NA,incomplete,24,filling,0,left,Green_Circle_Stripes_3.jpg,Purple_Plus_Stripes_4.jpg,Green_Star_Chess_1.jpg,left,1926.2750000343658,true,NA,true
D7whsHeY,3r15w654wg6vibc4e4w6loevry9lqd,3un61f00h02jf7mdqya1y9ove325rn,D7whsHeY,2020-0188,2020-11-18,16:46:58,17:05:22,NA,incomplete,25,filling,1,left,Purple_Circle_Grid_4.jpg,Blue_Triangle_Grid_2.jpg,Purple_Star_Dots_3.jpg,left,1152.5300000212155,true,NA,true
D7whsHeY,3r15w654wg6vibc4e4w6loevry9lqd,3un61f00h02jf7mdqya1y9ove325rn,D7whsHeY,2020-0188,2020-11-18,16:46:58,17:05:22,NA,incomplete,26,filling,1,left,Blue_Circle_Stripes_4.jpg,Green_Triangle_Stripes_2.jpg,Blue_Plus_Dots_1.jpg,left,1699.4500000146218,true,NA,true
D7whsHeY,3r15w654wg6vibc4e4w6loevry9lqd,3un61f00h02jf7mdqya1y9ove325rn,D7whsHeY,2020-0188,2020-11-18,16:46:58,17:05:22,NA,incomplete,27,filling,0,left,Blue_Plus_Chess_4.jpg,Green_Circle_Chess_3.jpg,Blue_Star_Grid_1.jpg,left,671.764999977313,true,NA,true
D7whsHeY,3r15w654wg6vibc4e4w6loevry9lqd,3un61f00h02jf7mdqya1y9ove325rn,D7whsHeY,2020-0188,2020-11-18,16:46:58,17:05:22,NA,incomplete,28,filling,1,left,Blue_Star_Stripes_3.jpg,Red_Triangle_Stripes_2.jpg,Blue_Plus_Grid_1.jpg,left,1194.8499999707565,true,NA,true
D7whsHeY,3r15w654wg6vibc4e4w6loevry9lqd,3un61f00h02jf7mdqya1y9ove325rn,D7whsHeY,2020-0188,2020-11-18,16:46:58,17:05:22,NA,incomplete,29,filling,1,right,Red_Star_Grid_3.jpg,Red_Circle_Stripes_1.jpg,Green_Plus_Grid_4.jpg,right,1345.5850000027567,true,NA,true
D7whsHeY,3r15w654wg6vibc4e4w6loevry9lqd,3un61f00h02jf7mdqya1y9ove325rn,D7whsHeY,2020-0188,2020-11-18,16:46:58,17:05:22,NA,incomplete,30,filling,1,right,Green_Plus_Dots_1.jpg,Green_Triangle_Stripes_4.jpg,Blue_Circle_Dots_3.jpg,right,1671.0350000066683,true,NA,true
D7whsHeY,3r15w654wg6vibc4e4w6loevry9lqd,3un61f00h02jf7mdqya1y9ove325rn,D7whsHeY,2020-0188,2020-11-18,16:46:58,17:05:22,NA,incomplete,31,filling,1,right,Blue_Plus_Dots_1.jpg,Blue_Star_Grid_4.jpg,Purple_Circle_Dots_2.jpg,right,682.680000027176,true,NA,true
D7whsHeY,3r15w654wg6vibc4e4w6loevry9lqd,3un61f00h02jf7mdqya1y9ove325rn,D7whsHeY,2020-0188,2020-11-18,16:46:58,17:05:22,NA,incomplete,32,filling,0,left,Green_Plus_Stripes_4.jpg,Blue_Circle_Stripes_1.jpg,Green_Star_Grid_2.jpg,left,1030.0299999653362,true,NA,true
D7whsHeY,3r15w654wg6vibc4e4w6loevry9lqd,3un61f00h02jf7mdqya1y9ove325rn,D7whsHeY,2020-0188,2020-11-18,16:46:58,17:05:22,NA,incomplete,33,filling,1,right,Purple_Triangle_Grid_2.jpg,Purple_Plus_Stripes_3.jpg,Green_Star_Grid_1.jpg,right,1854.6099999803118,true,NA,true
D7whsHeY,3r15w654wg6vibc4e4w6loevry9lqd,3un61f00h02jf7mdqya1y9ove325rn,D7whsHeY,2020-0188,2020-11-18,16:46:58,17:05:22,NA,incomplete,34,filling,1,left,Green_Triangle_Stripes_3.jpg,Blue_Star_Stripes_4.jpg,Green_Plus_Chess_1.jpg,left,1332.349999982398,true,NA,true
D7whsHeY,3r15w654wg6vibc4e4w6loevry9lqd,3un61f00h02jf7mdqya1y9ove325rn,D7whsHeY,2020-0188,2020-11-18,16:46:58,17:05:22,NA,incomplete,35,filling,1,left,Blue_Star_Chess_3.jpg,Purple_Plus_Chess_2.jpg,Blue_Triangle_Stripes_4.jpg,left,1344.0950000076555,true,NA,true
D7whsHeY,3r15w654wg6vibc4e4w6loevry9lqd,3un61f00h02jf7mdqya1y9ove325rn,D7whsHeY,2020-0188,2020-11-18,16:46:58,17:05:22,NA,incomplete,36,filling,1,right,Blue_Triangle_Grid_3.jpg,Blue_Plus_Dots_1.jpg,Green_Star_Grid_2.jpg,right,1219.9049999471754,true,NA,true
D7whsHeY,3r15w654wg6vibc4e4w6loevry9lqd,3un61f00h02jf7mdqya1y9ove325rn,D7whsHeY,2020-0188,2020-11-18,16:46:58,17:05:22,NA,incomplete,37,filling,1,left,Red_Circle_Stripes_2.jpg,Blue_Triangle_Stripes_1.jpg,Red_Plus_Dots_3.jpg,left,973.2249999651685,true,NA,true
D7whsHeY,3r15w654wg6vibc4e4w6loevry9lqd,3un61f00h02jf7mdqya1y9ove325rn,D7whsHeY,2020-0188,2020-11-18,16:46:58,17:05:22,NA,incomplete,38,filling,1,left,Purple_Triangle_Stripes_1.jpg,Blue_Plus_Stripes_3.jpg,Purple_Circle_Grid_2.jpg,right,1664.714999962598,false,NA,true
D7whsHeY,3r15w654wg6vibc4e4w6loevry9lqd,3un61f00h02jf7mdqya1y9ove325rn,D7whsHeY,2020-0188,2020-11-18,16:46:58,17:05:22,NA,incomplete,39,filling,1,left,Green_Plus_Dots_2.jpg,Red_Triangle_Dots_3.jpg,Green_Star_Grid_1.jpg,left,933.870000008028,true,NA,true
D7whsHeY,3r15w654wg6vibc4e4w6loevry9lqd,3un61f00h02jf7mdqya1y9ove325rn,D7whsHeY,2020-0188,2020-11-18,16:46:58,17:05:22,NA,incomplete,0,color,0,left,Red_Circle_Grid_4.jpg,Red_Star_Dots_3.jpg,Purple_Triangle_Grid_2.jpg,left,1782.9950000159442,true,low,false
D7whsHeY,3r15w654wg6vibc4e4w6loevry9lqd,3un61f00h02jf7mdqya1y9ove325rn,D7whsHeY,2020-0188,2020-11-18,16:46:58,17:05:22,NA,incomplete,1,color,1,left,Blue_Star_Chess_3.jpg,Blue_Circle_Grid_1.jpg,Purple_Plus_Chess_2.jpg,left,609.1449999948964,true,low,false
D7whsHeY,3r15w654wg6vibc4e4w6loevry9lqd,3un61f00h02jf7mdqya1y9ove325rn,D7whsHeY,2020-0188,2020-11-18,16:46:58,17:05:22,NA,incomplete,2,color,1,right,Red_Star_Stripes_2.jpg,Purple_Circle_Stripes_4.jpg,Red_Triangle_Grid_3.jpg,right,666.8950000312179,true,low,false
D7whsHeY,3r15w654wg6vibc4e4w6loevry9lqd,3un61f00h02jf7mdqya1y9ove325rn,D7whsHeY,2020-0188,2020-11-18,16:46:58,17:05:22,NA,incomplete,3,color,1,left,Purple_Star_Dots_4.jpg,Purple_Plus_Grid_2.jpg,Blue_Circle_Dots_1.jpg,left,572.1550000016578,true,low,false
D7whsHeY,3r15w654wg6vibc4e4w6loevry9lqd,3un61f00h02jf7mdqya1y9ove325rn,D7whsHeY,2020-0188,2020-11-18,16:46:58,17:05:22,NA,incomplete,4,color,1,left,Red_Plus_Grid_2.jpg,Red_Circle_Chess_1.jpg,Green_Triangle_Grid_4.jpg,left,585.4849999886937,true,low,false
D7whsHeY,3r15w654wg6vibc4e4w6loevry9lqd,3un61f00h02jf7mdqya1y9ove325rn,D7whsHeY,2020-0188,2020-11-18,16:46:58,17:05:22,NA,incomplete,5,color,1,right,Purple_Triangle_Stripes_4.jpg,Blue_Circle_Stripes_3.jpg,Purple_Star_Chess_2.jpg,right,694.2050000070594,true,low,false
D7whsHeY,3r15w654wg6vibc4e4w6loevry9lqd,3un61f00h02jf7mdqya1y9ove325rn,D7whsHeY,2020-0188,2020-11-18,16:46:58,17:05:22,NA,incomplete,6,color,1,left,Green_Star_Dots_2.jpg,Green_Plus_Stripes_1.jpg,Purple_Circle_Dots_3.jpg,left,441.87500001862645,true,low,false
D7whsHeY,3r15w654wg6vibc4e4w6loevry9lqd,3un61f00h02jf7mdqya1y9ove325rn,D7whsHeY,2020-0188,2020-11-18,16:46:58,17:05:22,NA,incomplete,7,color,1,right,Green_Star_Chess_1.jpg,Purple_Plus_Chess_3.jpg,Green_Circle_Stripes_2.jpg,right,657.7050000196323,true,low,false
D7whsHeY,3r15w654wg6vibc4e4w6loevry9lqd,3un61f00h02jf7mdqya1y9ove325rn,D7whsHeY,2020-0188,2020-11-18,16:46:58,17:05:22,NA,incomplete,8,color,1,right,Red_Circle_Chess_2.jpg,Blue_Plus_Chess_3.jpg,Red_Triangle_Stripes_1.jpg,right,393.50000000558794,true,low,false
D7whsHeY,3r15w654wg6vibc4e4w6loevry9lqd,3un61f00h02jf7mdqya1y9ove325rn,D7whsHeY,2020-0188,2020-11-18,16:46:58,17:05:22,NA,incomplete,9,color,1,right,Red_Star_Grid_4.jpg,Purple_Circle_Grid_3.jpg,Red_Triangle_Dots_2.jpg,right,447.54999998258427,true,low,false
D7whsHeY,3r15w654wg6vibc4e4w6loevry9lqd,3un61f00h02jf7mdqya1y9ove325rn,D7whsHeY,2020-0188,2020-11-18,16:46:58,17:05:22,NA,incomplete,10,color,1,left,Purple_Circle_Dots_1.jpg,Purple_Plus_Stripes_3.jpg,Red_Triangle_Dots_2.jpg,left,509.19499999145046,true,low,false
D7whsHeY,3r15w654wg6vibc4e4w6loevry9lqd,3un61f00h02jf7mdqya1y9ove325rn,D7whsHeY,2020-0188,2020-11-18,16:46:58,17:05:22,NA,incomplete,11,color,1,right,Green_Star_Grid_4.jpg,Purple_Circle_Grid_1.jpg,Green_Triangle_Stripes_3.jpg,right,395.1200000010431,true,low,false
D7whsHeY,3r15w654wg6vibc4e4w6loevry9lqd,3un61f00h02jf7mdqya1y9ove325rn,D7whsHeY,2020-0188,2020-11-18,16:46:58,17:05:22,NA,incomplete,12,color,1,right,Red_Plus_Chess_1.jpg,Purple_Triangle_Chess_4.jpg,Red_Circle_Stripes_2.jpg,right,541.7250000173226,true,low,false
D7whsHeY,3r15w654wg6vibc4e4w6loevry9lqd,3un61f00h02jf7mdqya1y9ove325rn,D7whsHeY,2020-0188,2020-11-18,16:46:58,17:05:22,NA,incomplete,13,color,1,right,Green_Circle_Grid_1.jpg,Blue_Triangle_Grid_3.jpg,Green_Plus_Chess_4.jpg,right,537.7900000312366,true,low,false
D7whsHeY,3r15w654wg6vibc4e4w6loevry9lqd,3un61f00h02jf7mdqya1y9ove325rn,D7whsHeY,2020-0188,2020-11-18,16:46:58,17:05:22,NA,incomplete,14,color,1,right,Red_Star_Dots_2.jpg,Green_Triangle_Dots_4.jpg,Red_Circle_Chess_1.jpg,left,398.37499998975545,false,low,false
D7whsHeY,3r15w654wg6vibc4e4w6loevry9lqd,3un61f00h02jf7mdqya1y9ove325rn,D7whsHeY,2020-0188,2020-11-18,16:46:58,17:05:22,NA,incomplete,15,color,0,right,Blue_Star_Dots_2.jpg,Green_Circle_Dots_1.jpg,Blue_Triangle_Stripes_4.jpg,right,572.5999999558553,true,low,false
D7whsHeY,3r15w654wg6vibc4e4w6loevry9lqd,3un61f00h02jf7mdqya1y9ove325rn,D7whsHeY,2020-0188,2020-11-18,16:46:58,17:05:22,NA,incomplete,16,color,1,left,Purple_Star_Grid_4.jpg,Purple_Circle_Chess_2.jpg,Red_Plus_Grid_1.jpg,left,540.3700000024401,true,low,false
D7whsHeY,3r15w654wg6vibc4e4w6loevry9lqd,3un61f00h02jf7mdqya1y9ove325rn,D7whsHeY,2020-0188,2020-11-18,16:46:58,17:05:22,NA,incomplete,17,color,1,right,Blue_Circle_Stripes_4.jpg,Green_Plus_Stripes_3.jpg,Blue_Triangle_Chess_2.jpg,right,450.97499998519197,true,low,false
D7whsHeY,3r15w654wg6vibc4e4w6loevry9lqd,3un61f00h02jf7mdqya1y9ove325rn,D7whsHeY,2020-0188,2020-11-18,16:46:58,17:05:22,NA,incomplete,18,color,1,right,Purple_Plus_Chess_4.jpg,Blue_Star_Chess_2.jpg,Purple_Triangle_Grid_1.jpg,right,603.9149999851361,true,low,false
D7whsHeY,3r15w654wg6vibc4e4w6loevry9lqd,3un61f00h02jf7mdqya1y9ove325rn,D7whsHeY,2020-0188,2020-11-18,16:46:58,17:05:22,NA,incomplete,19,color,1,left,Green_Star_Dots_2.jpg,Green_Triangle_Stripes_1.jpg,Red_Circle_Dots_3.jpg,left,492.47999995714054,true,low,false
D7whsHeY,3r15w654wg6vibc4e4w6loevry9lqd,3un61f00h02jf7mdqya1y9ove325rn,D7whsHeY,2020-0188,2020-11-18,16:46:58,17:05:22,NA,incomplete,20,color,1,left,Blue_Circle_Dots_3.jpg,Blue_Plus_Stripes_1.jpg,Green_Triangle_Dots_4.jpg,left,434.0399999637157,true,low,false
D7whsHeY,3r15w654wg6vibc4e4w6loevry9lqd,3un61f00h02jf7mdqya1y9ove325rn,D7whsHeY,2020-0188,2020-11-18,16:46:58,17:05:22,NA,incomplete,21,color,0,right,Blue_Star_Chess_1.jpg,Purple_Plus_Chess_3.jpg,Blue_Circle_Stripes_4.jpg,right,429.34500001138076,true,low,false
D7whsHeY,3r15w654wg6vibc4e4w6loevry9lqd,3un61f00h02jf7mdqya1y9ove325rn,D7whsHeY,2020-0188,2020-11-18,16:46:58,17:05:22,NA,incomplete,22,color,1,left,Blue_Star_Grid_4.jpg,Blue_Plus_Chess_1.jpg,Green_Circle_Grid_2.jpg,left,445.17999998060986,true,low,false
D7whsHeY,3r15w654wg6vibc4e4w6loevry9lqd,3un61f00h02jf7mdqya1y9ove325rn,D7whsHeY,2020-0188,2020-11-18,16:46:58,17:05:22,NA,incomplete,23,color,1,left,Purple_Triangle_Dots_4.jpg,Purple_Star_Chess_2.jpg,Blue_Plus_Dots_3.jpg,left,470.5299999914132,true,low,false
D7whsHeY,3r15w654wg6vibc4e4w6loevry9lqd,3un61f00h02jf7mdqya1y9ove325rn,D7whsHeY,2020-0188,2020-11-18,16:46:58,17:05:22,NA,incomplete,24,color,1,right,Green_Plus_Dots_1.jpg,Red_Circle_Dots_2.jpg,Green_Triangle_Grid_4.jpg,right,493.2799999951385,true,low,false
D7whsHeY,3r15w654wg6vibc4e4w6loevry9lqd,3un61f00h02jf7mdqya1y9ove325rn,D7whsHeY,2020-0188,2020-11-18,16:46:58,17:05:22,NA,incomplete,25,color,1,right,Red_Circle_Grid_2.jpg,Green_Triangle_Grid_1.jpg,Red_Star_Dots_4.jpg,right,404.25999998115003,true,low,false
D7whsHeY,3r15w654wg6vibc4e4w6loevry9lqd,3un61f00h02jf7mdqya1y9ove325rn,D7whsHeY,2020-0188,2020-11-18,16:46:58,17:05:22,NA,incomplete,26,color,1,right,Purple_Star_Dots_2.jpg,Green_Circle_Dots_1.jpg,Purple_Plus_Chess_3.jpg,right,380.8500000159256,true,low,false
D7whsHeY,3r15w654wg6vibc4e4w6loevry9lqd,3un61f00h02jf7mdqya1y9ove325rn,D7whsHeY,2020-0188,2020-11-18,16:46:58,17:05:22,NA,incomplete,27,color,1,left,Blue_Triangle_Grid_1.jpg,Blue_Circle_Stripes_3.jpg,Red_Star_Grid_2.jpg,left,418.69999998016283,true,low,false
D7whsHeY,3r15w654wg6vibc4e4w6loevry9lqd,3un61f00h02jf7mdqya1y9ove325rn,D7whsHeY,2020-0188,2020-11-18,16:46:58,17:05:22,NA,incomplete,28,color,1,left,Red_Plus_Grid_4.jpg,Red_Triangle_Chess_3.jpg,Green_Star_Grid_2.jpg,left,449.47499997215346,true,low,false
D7whsHeY,3r15w654wg6vibc4e4w6loevry9lqd,3un61f00h02jf7mdqya1y9ove325rn,D7whsHeY,2020-0188,2020-11-18,16:46:58,17:05:22,NA,incomplete,29,color,1,right,Green_Star_Dots_2.jpg,Blue_Triangle_Dots_1.jpg,Green_Circle_Grid_3.jpg,right,386.3549999659881,true,low,false
D7whsHeY,3r15w654wg6vibc4e4w6loevry9lqd,3un61f00h02jf7mdqya1y9ove325rn,D7whsHeY,2020-0188,2020-11-18,16:46:58,17:05:22,NA,incomplete,30,filling,1,left,Purple_Plus_Dots_1.jpg,Blue_Star_Dots_2.jpg,Purple_Circle_Chess_4.jpg,right,429.5100000454113,false,low,false
D7whsHeY,3r15w654wg6vibc4e4w6loevry9lqd,3un61f00h02jf7mdqya1y9ove325rn,D7whsHeY,2020-0188,2020-11-18,16:46:58,17:05:22,NA,incomplete,31,filling,1,left,Green_Triangle_Stripes_1.jpg,Purple_Circle_Stripes_4.jpg,Green_Plus_Chess_2.jpg,right,424.570000031963,false,low,false
D7whsHeY,3r15w654wg6vibc4e4w6loevry9lqd,3un61f00h02jf7mdqya1y9ove325rn,D7whsHeY,2020-0188,2020-11-18,16:46:58,17:05:22,NA,incomplete,32,filling,1,left,Blue_Triangle_Grid_3.jpg,Red_Plus_Grid_2.jpg,Blue_Circle_Dots_4.jpg,right,625.0899999868125,false,low,false
D7whsHeY,3r15w654wg6vibc4e4w6loevry9lqd,3un61f00h02jf7mdqya1y9ove325rn,D7whsHeY,2020-0188,2020-11-18,16:46:58,17:05:22,NA,incomplete,33,filling,1,right,Blue_Circle_Dots_1.jpg,Blue_Triangle_Stripes_3.jpg,Purple_Plus_Dots_2.jpg,right,1098.085000005085,true,low,false
D7whsHeY,3r15w654wg6vibc4e4w6loevry9lqd,3un61f00h02jf7mdqya1y9ove325rn,D7whsHeY,2020-0188,2020-11-18,16:46:58,17:05:22,NA,incomplete,34,filling,1,right,Green_Circle_Dots_3.jpg,Green_Plus_Chess_1.jpg,Purple_Star_Dots_2.jpg,right,816.1100000143051,true,low,false
D7whsHeY,3r15w654wg6vibc4e4w6loevry9lqd,3un61f00h02jf7mdqya1y9ove325rn,D7whsHeY,2020-0188,2020-11-18,16:46:58,17:05:22,NA,incomplete,35,filling,1,right,Green_Star_Stripes_3.jpg,Green_Plus_Grid_4.jpg,Red_Circle_Stripes_1.jpg,right,808.7149999919347,true,low,false
D7whsHeY,3r15w654wg6vibc4e4w6loevry9lqd,3un61f00h02jf7mdqya1y9ove325rn,D7whsHeY,2020-0188,2020-11-18,16:46:58,17:05:22,NA,incomplete,36,filling,1,left,Red_Star_Dots_4.jpg,Green_Plus_Dots_3.jpg,Red_Circle_Grid_1.jpg,left,530.4050000268035,true,low,false
D7whsHeY,3r15w654wg6vibc4e4w6loevry9lqd,3un61f00h02jf7mdqya1y9ove325rn,D7whsHeY,2020-0188,2020-11-18,16:46:58,17:05:22,NA,incomplete,37,filling,0,right,Red_Circle_Chess_1.jpg,Red_Plus_Dots_3.jpg,Blue_Star_Chess_4.jpg,right,424.5000000228174,true,low,false
D7whsHeY,3r15w654wg6vibc4e4w6loevry9lqd,3un61f00h02jf7mdqya1y9ove325rn,D7whsHeY,2020-0188,2020-11-18,16:46:58,17:05:22,NA,incomplete,38,filling,1,left,Green_Plus_Chess_4.jpg,Purple_Triangle_Chess_3.jpg,Green_Circle_Grid_2.jpg,left,683.9349999791011,true,low,false
D7whsHeY,3r15w654wg6vibc4e4w6loevry9lqd,3un61f00h02jf7mdqya1y9ove325rn,D7whsHeY,2020-0188,2020-11-18,16:46:58,17:05:22,NA,incomplete,39,filling,1,left,Red_Circle_Grid_1.jpg,Green_Plus_Grid_3.jpg,Red_Star_Chess_4.jpg,left,448.00999999279156,true,low,false
D7whsHeY,3r15w654wg6vibc4e4w6loevry9lqd,3un61f00h02jf7mdqya1y9ove325rn,D7whsHeY,2020-0188,2020-11-18,16:46:58,17:05:22,NA,incomplete,40,filling,1,left,Blue_Triangle_Grid_1.jpg,Green_Circle_Grid_4.jpg,Blue_Plus_Stripes_2.jpg,left,963.1850000005215,true,low,false
D7whsHeY,3r15w654wg6vibc4e4w6loevry9lqd,3un61f00h02jf7mdqya1y9ove325rn,D7whsHeY,2020-0188,2020-11-18,16:46:58,17:05:22,NA,incomplete,41,filling,1,right,Blue_Circle_Grid_3.jpg,Blue_Plus_Chess_2.jpg,Purple_Star_Grid_1.jpg,right,497.26500001270324,true,low,false
D7whsHeY,3r15w654wg6vibc4e4w6loevry9lqd,3un61f00h02jf7mdqya1y9ove325rn,D7whsHeY,2020-0188,2020-11-18,16:46:58,17:05:22,NA,incomplete,42,filling,1,left,Green_Plus_Dots_4.jpg,Blue_Triangle_Dots_3.jpg,Green_Circle_Grid_2.jpg,left,512.7649999922141,true,low,false
D7whsHeY,3r15w654wg6vibc4e4w6loevry9lqd,3un61f00h02jf7mdqya1y9ove325rn,D7whsHeY,2020-0188,2020-11-18,16:46:58,17:05:22,NA,incomplete,43,filling,1,left,Purple_Star_Chess_2.jpg,Blue_Plus_Chess_3.jpg,Purple_Circle_Stripes_1.jpg,left,977.9299999936484,true,low,false
D7whsHeY,3r15w654wg6vibc4e4w6loevry9lqd,3un61f00h02jf7mdqya1y9ove325rn,D7whsHeY,2020-0188,2020-11-18,16:46:58,17:05:22,NA,incomplete,44,filling,1,left,Blue_Plus_Stripes_4.jpg,Green_Star_Stripes_2.jpg,Blue_Circle_Dots_1.jpg,left,853.3000000170432,true,low,false
D7whsHeY,3r15w654wg6vibc4e4w6loevry9lqd,3un61f00h02jf7mdqya1y9ove325rn,D7whsHeY,2020-0188,2020-11-18,16:46:58,17:05:22,NA,incomplete,45,filling,1,right,Blue_Plus_Grid_1.jpg,Blue_Star_Stripes_3.jpg,Purple_Circle_Grid_2.jpg,right,549.265000037849,true,low,false
D7whsHeY,3r15w654wg6vibc4e4w6loevry9lqd,3un61f00h02jf7mdqya1y9ove325rn,D7whsHeY,2020-0188,2020-11-18,16:46:58,17:05:22,NA,incomplete,46,filling,1,left,Green_Plus_Stripes_2.jpg,Purple_Triangle_Stripes_3.jpg,Green_Circle_Chess_4.jpg,left,400.43499995954335,true,low,false
D7whsHeY,3r15w654wg6vibc4e4w6loevry9lqd,3un61f00h02jf7mdqya1y9ove325rn,D7whsHeY,2020-0188,2020-11-18,16:46:58,17:05:22,NA,incomplete,47,filling,1,left,Red_Triangle_Dots_4.jpg,Green_Plus_Dots_1.jpg,Red_Circle_Grid_3.jpg,left,506.23999995877966,true,low,false
D7whsHeY,3r15w654wg6vibc4e4w6loevry9lqd,3un61f00h02jf7mdqya1y9ove325rn,D7whsHeY,2020-0188,2020-11-18,16:46:58,17:05:22,NA,incomplete,48,filling,1,right,Purple_Plus_Stripes_4.jpg,Purple_Triangle_Chess_3.jpg,Green_Star_Stripes_2.jpg,right,787.5050000147894,true,low,false
D7whsHeY,3r15w654wg6vibc4e4w6loevry9lqd,3un61f00h02jf7mdqya1y9ove325rn,D7whsHeY,2020-0188,2020-11-18,16:46:58,17:05:22,NA,incomplete,49,filling,1,left,Red_Plus_Grid_2.jpg,Blue_Circle_Grid_4.jpg,Red_Triangle_Stripes_1.jpg,left,453.7000000127591,true,low,false
D7whsHeY,3r15w654wg6vibc4e4w6loevry9lqd,3un61f00h02jf7mdqya1y9ove325rn,D7whsHeY,2020-0188,2020-11-18,16:46:58,17:05:22,NA,incomplete,50,filling,1,right,Purple_Star_Grid_1.jpg,Purple_Triangle_Stripes_4.jpg,Blue_Plus_Grid_2.jpg,right,443.73499997891486,true,low,false
D7whsHeY,3r15w654wg6vibc4e4w6loevry9lqd,3un61f00h02jf7mdqya1y9ove325rn,D7whsHeY,2020-0188,2020-11-18,16:46:58,17:05:22,NA,incomplete,51,filling,1,left,Red_Plus_Dots_2.jpg,Green_Circle_Dots_4.jpg,Red_Star_Grid_1.jpg,left,455.00499999616295,true,low,false
D7whsHeY,3r15w654wg6vibc4e4w6loevry9lqd,3un61f00h02jf7mdqya1y9ove325rn,D7whsHeY,2020-0188,2020-11-18,16:46:58,17:05:22,NA,incomplete,52,filling,0,left,Red_Circle_Stripes_4.jpg,Green_Star_Stripes_2.jpg,Red_Triangle_Chess_3.jpg,left,525.6400000071153,true,low,false
D7whsHeY,3r15w654wg6vibc4e4w6loevry9lqd,3un61f00h02jf7mdqya1y9ove325rn,D7whsHeY,2020-0188,2020-11-18,16:46:58,17:05:22,NA,incomplete,53,filling,0,left,Blue_Plus_Chess_1.jpg,Purple_Star_Chess_2.jpg,Blue_Circle_Grid_3.jpg,left,595.0300000258721,true,low,false
D7whsHeY,3r15w654wg6vibc4e4w6loevry9lqd,3un61f00h02jf7mdqya1y9ove325rn,D7whsHeY,2020-0188,2020-11-18,16:46:58,17:05:22,NA,incomplete,54,filling,0,right,Blue_Star_Chess_1.jpg,Blue_Plus_Grid_2.jpg,Purple_Triangle_Chess_3.jpg,right,552.1849999786355,true,low,false
D7whsHeY,3r15w654wg6vibc4e4w6loevry9lqd,3un61f00h02jf7mdqya1y9ove325rn,D7whsHeY,2020-0188,2020-11-18,16:46:58,17:05:22,NA,incomplete,55,filling,1,right,Green_Circle_Grid_4.jpg,Green_Triangle_Dots_3.jpg,Red_Star_Grid_1.jpg,left,626.7249999800697,false,low,false
D7whsHeY,3r15w654wg6vibc4e4w6loevry9lqd,3un61f00h02jf7mdqya1y9ove325rn,D7whsHeY,2020-0188,2020-11-18,16:46:58,17:05:22,NA,incomplete,56,filling,1,left,Purple_Circle_Chess_3.jpg,Green_Plus_Chess_1.jpg,Purple_Star_Dots_4.jpg,right,394.02499998686835,false,low,false
D7whsHeY,3r15w654wg6vibc4e4w6loevry9lqd,3un61f00h02jf7mdqya1y9ove325rn,D7whsHeY,2020-0188,2020-11-18,16:46:58,17:05:22,NA,incomplete,57,filling,1,left,Green_Circle_Stripes_4.jpg,Purple_Star_Stripes_1.jpg,Green_Triangle_Chess_2.jpg,right,454.55499994568527,false,low,false
D7whsHeY,3r15w654wg6vibc4e4w6loevry9lqd,3un61f00h02jf7mdqya1y9ove325rn,D7whsHeY,2020-0188,2020-11-18,16:46:58,17:05:22,NA,incomplete,58,filling,1,left,Red_Circle_Stripes_2.jpg,Green_Star_Stripes_4.jpg,Red_Triangle_Dots_3.jpg,left,861.2449999782257,true,low,false
D7whsHeY,3r15w654wg6vibc4e4w6loevry9lqd,3un61f00h02jf7mdqya1y9ove325rn,D7whsHeY,2020-0188,2020-11-18,16:46:58,17:05:22,NA,incomplete,59,filling,1,right,Red_Star_Grid_1.jpg,Red_Triangle_Stripes_2.jpg,Purple_Plus_Grid_3.jpg,right,537.5200000125915,true,low,false
D7whsHeY,3r15w654wg6vibc4e4w6loevry9lqd,3un61f00h02jf7mdqya1y9ove325rn,D7whsHeY,2020-0188,2020-11-18,16:46:58,17:05:22,NA,incomplete,60,color,1,right,Blue_Circle_Stripes_4.jpg,Red_Triangle_Stripes_3.jpg,Blue_Plus_Chess_2.jpg,left,856.5299999900162,false,low,false
D7whsHeY,3r15w654wg6vibc4e4w6loevry9lqd,3un61f00h02jf7mdqya1y9ove325rn,D7whsHeY,2020-0188,2020-11-18,16:46:58,17:05:22,NA,incomplete,61,color,1,right,Blue_Circle_Chess_1.jpg,Red_Triangle_Chess_3.jpg,Blue_Star_Grid_4.jpg,right,899.1400000522844,true,low,false
D7whsHeY,3r15w654wg6vibc4e4w6loevry9lqd,3un61f00h02jf7mdqya1y9ove325rn,D7whsHeY,2020-0188,2020-11-18,16:46:58,17:05:22,NA,incomplete,62,color,1,right,Green_Star_Grid_3.jpg,Blue_Plus_Grid_1.jpg,Green_Triangle_Chess_2.jpg,right,472.34999999636784,true,low,false
D7whsHeY,3r15w654wg6vibc4e4w6loevry9lqd,3un61f00h02jf7mdqya1y9ove325rn,D7whsHeY,2020-0188,2020-11-18,16:46:58,17:05:22,NA,incomplete,63,color,1,right,Purple_Plus_Dots_1.jpg,Green_Circle_Dots_2.jpg,Purple_Star_Grid_4.jpg,right,511.1900000483729,true,low,false
D7whsHeY,3r15w654wg6vibc4e4w6loevry9lqd,3un61f00h02jf7mdqya1y9ove325rn,D7whsHeY,2020-0188,2020-11-18,16:46:58,17:05:22,NA,incomplete,64,color,1,left,Blue_Plus_Chess_3.jpg,Blue_Star_Dots_1.jpg,Purple_Triangle_Chess_4.jpg,left,1659.7099999780767,true,low,false
D7whsHeY,3r15w654wg6vibc4e4w6loevry9lqd,3un61f00h02jf7mdqya1y9ove325rn,D7whsHeY,2020-0188,2020-11-18,16:46:58,17:05:22,NA,incomplete,65,color,1,right,Green_Star_Grid_1.jpg,Blue_Triangle_Grid_4.jpg,Green_Plus_Chess_3.jpg,right,485.2950000204146,true,low,false
D7whsHeY,3r15w654wg6vibc4e4w6loevry9lqd,3un61f00h02jf7mdqya1y9ove325rn,D7whsHeY,2020-0188,2020-11-18,16:46:58,17:05:22,NA,incomplete,66,color,1,left,Red_Plus_Chess_1.jpg,Red_Star_Stripes_3.jpg,Blue_Triangle_Chess_4.jpg,left,643.88000004692,true,low,false
D7whsHeY,3r15w654wg6vibc4e4w6loevry9lqd,3un61f00h02jf7mdqya1y9ove325rn,D7whsHeY,2020-0188,2020-11-18,16:46:58,17:05:22,NA,incomplete,67,color,1,left,Red_Star_Dots_2.jpg,Red_Plus_Grid_4.jpg,Blue_Circle_Dots_1.jpg,left,387.83500000135973,true,low,false
D7whsHeY,3r15w654wg6vibc4e4w6loevry9lqd,3un61f00h02jf7mdqya1y9ove325rn,D7whsHeY,2020-0188,2020-11-18,16:46:58,17:05:22,NA,incomplete,68,color,0,left,Blue_Plus_Dots_2.jpg,Blue_Triangle_Chess_1.jpg,Purple_Star_Dots_4.jpg,left,431.9649999961257,true,low,false
D7whsHeY,3r15w654wg6vibc4e4w6loevry9lqd,3un61f00h02jf7mdqya1y9ove325rn,D7whsHeY,2020-0188,2020-11-18,16:46:58,17:05:22,NA,incomplete,69,color,1,right,Blue_Star_Grid_1.jpg,Red_Plus_Grid_4.jpg,Blue_Circle_Stripes_2.jpg,right,480.0949999480508,true,low,false
D7whsHeY,3r15w654wg6vibc4e4w6loevry9lqd,3un61f00h02jf7mdqya1y9ove325rn,D7whsHeY,2020-0188,2020-11-18,16:46:58,17:05:22,NA,incomplete,70,color,1,left,Green_Plus_Stripes_1.jpg,Green_Circle_Dots_4.jpg,Purple_Triangle_Stripes_2.jpg,left,408.919999958016,true,low,false
D7whsHeY,3r15w654wg6vibc4e4w6loevry9lqd,3un61f00h02jf7mdqya1y9ove325rn,D7whsHeY,2020-0188,2020-11-18,16:46:58,17:05:22,NA,incomplete,71,color,0,left,Green_Star_Dots_2.jpg,Green_Plus_Grid_3.jpg,Purple_Circle_Dots_4.jpg,left,403.6249999771826,true,low,false
D7whsHeY,3r15w654wg6vibc4e4w6loevry9lqd,3un61f00h02jf7mdqya1y9ove325rn,D7whsHeY,2020-0188,2020-11-18,16:46:58,17:05:22,NA,incomplete,72,color,1,left,Green_Circle_Stripes_3.jpg,Green_Star_Chess_1.jpg,Blue_Triangle_Stripes_2.jpg,left,411.1750000156462,true,low,false
D7whsHeY,3r15w654wg6vibc4e4w6loevry9lqd,3un61f00h02jf7mdqya1y9ove325rn,D7whsHeY,2020-0188,2020-11-18,16:46:58,17:05:22,NA,incomplete,73,color,0,left,Red_Circle_Dots_3.jpg,Red_Plus_Stripes_2.jpg,Green_Star_Dots_4.jpg,left,404.0050000185147,true,low,false
D7whsHeY,3r15w654wg6vibc4e4w6loevry9lqd,3un61f00h02jf7mdqya1y9ove325rn,D7whsHeY,2020-0188,2020-11-18,16:46:58,17:05:22,NA,incomplete,74,color,1,left,Purple_Triangle_Grid_2.jpg,Purple_Plus_Dots_1.jpg,Blue_Star_Grid_4.jpg,left,440.0100000202656,true,low,false
D7whsHeY,3r15w654wg6vibc4e4w6loevry9lqd,3un61f00h02jf7mdqya1y9ove325rn,D7whsHeY,2020-0188,2020-11-18,16:46:58,17:05:22,NA,incomplete,75,color,0,left,Blue_Plus_Stripes_4.jpg,Blue_Triangle_Chess_1.jpg,Purple_Star_Stripes_2.jpg,left,479.9500000081025,true,low,false
D7whsHeY,3r15w654wg6vibc4e4w6loevry9lqd,3un61f00h02jf7mdqya1y9ove325rn,D7whsHeY,2020-0188,2020-11-18,16:46:58,17:05:22,NA,incomplete,76,color,1,right,Blue_Plus_Chess_3.jpg,Green_Triangle_Chess_1.jpg,Blue_Circle_Grid_4.jpg,right,418.06500003440306,true,low,false
D7whsHeY,3r15w654wg6vibc4e4w6loevry9lqd,3un61f00h02jf7mdqya1y9ove325rn,D7whsHeY,2020-0188,2020-11-18,16:46:58,17:05:22,NA,incomplete,77,color,1,right,Red_Plus_Stripes_4.jpg,Blue_Star_Stripes_1.jpg,Red_Circle_Grid_3.jpg,right,898.9350000047125,true,low,false
D7whsHeY,3r15w654wg6vibc4e4w6loevry9lqd,3un61f00h02jf7mdqya1y9ove325rn,D7whsHeY,2020-0188,2020-11-18,16:46:58,17:05:22,NA,incomplete,78,color,1,right,Green_Triangle_Stripes_3.jpg,Blue_Plus_Stripes_1.jpg,Green_Circle_Chess_4.jpg,right,408.0850000027567,true,low,false
D7whsHeY,3r15w654wg6vibc4e4w6loevry9lqd,3un61f00h02jf7mdqya1y9ove325rn,D7whsHeY,2020-0188,2020-11-18,16:46:58,17:05:22,NA,incomplete,79,color,1,right,Blue_Star_Dots_2.jpg,Green_Circle_Dots_4.jpg,Blue_Plus_Stripes_1.jpg,right,626.1200000299141,true,low,false
D7whsHeY,3r15w654wg6vibc4e4w6loevry9lqd,3un61f00h02jf7mdqya1y9ove325rn,D7whsHeY,2020-0188,2020-11-18,16:46:58,17:05:22,NA,incomplete,80,color,0,right,Green_Triangle_Dots_3.jpg,Red_Star_Dots_1.jpg,Green_Circle_Chess_4.jpg,right,404.5850000111386,true,low,false
D7whsHeY,3r15w654wg6vibc4e4w6loevry9lqd,3un61f00h02jf7mdqya1y9ove325rn,D7whsHeY,2020-0188,2020-11-18,16:46:58,17:05:22,NA,incomplete,81,color,1,right,Blue_Plus_Chess_3.jpg,Red_Star_Chess_4.jpg,Blue_Triangle_Grid_1.jpg,right,431.80500000016764,true,low,false
D7whsHeY,3r15w654wg6vibc4e4w6loevry9lqd,3un61f00h02jf7mdqya1y9ove325rn,D7whsHeY,2020-0188,2020-11-18,16:46:58,17:05:22,NA,incomplete,82,color,1,right,Green_Plus_Chess_1.jpg,Purple_Circle_Chess_2.jpg,Green_Triangle_Grid_3.jpg,right,454.1050000116229,true,low,false
D7whsHeY,3r15w654wg6vibc4e4w6loevry9lqd,3un61f00h02jf7mdqya1y9ove325rn,D7whsHeY,2020-0188,2020-11-18,16:46:58,17:05:22,NA,incomplete,83,color,1,right,Red_Circle_Chess_1.jpg,Green_Star_Chess_4.jpg,Red_Triangle_Grid_3.jpg,right,552.8049999848008,true,low,false
D7whsHeY,3r15w654wg6vibc4e4w6loevry9lqd,3un61f00h02jf7mdqya1y9ove325rn,D7whsHeY,2020-0188,2020-11-18,16:46:58,17:05:22,NA,incomplete,84,color,1,right,Green_Circle_Stripes_4.jpg,Purple_Plus_Stripes_3.jpg,Green_Triangle_Dots_2.jpg,right,386.39499997952953,true,low,false
D7whsHeY,3r15w654wg6vibc4e4w6loevry9lqd,3un61f00h02jf7mdqya1y9ove325rn,D7whsHeY,2020-0188,2020-11-18,16:46:58,17:05:22,NA,incomplete,85,color,1,right,Blue_Circle_Grid_4.jpg,Green_Triangle_Grid_3.jpg,Blue_Star_Dots_2.jpg,right,414.2899999860674,true,low,false
D7whsHeY,3r15w654wg6vibc4e4w6loevry9lqd,3un61f00h02jf7mdqya1y9ove325rn,D7whsHeY,2020-0188,2020-11-18,16:46:58,17:05:22,NA,incomplete,86,color,1,right,Red_Circle_Dots_4.jpg,Blue_Star_Dots_1.jpg,Red_Triangle_Stripes_2.jpg,right,431.12500000279397,true,low,false
D7whsHeY,3r15w654wg6vibc4e4w6loevry9lqd,3un61f00h02jf7mdqya1y9ove325rn,D7whsHeY,2020-0188,2020-11-18,16:46:58,17:05:22,NA,incomplete,87,color,0,left,Blue_Star_Grid_1.jpg,Blue_Circle_Stripes_4.jpg,Purple_Triangle_Grid_3.jpg,left,529.6300000045449,true,low,false
D7whsHeY,3r15w654wg6vibc4e4w6loevry9lqd,3un61f00h02jf7mdqya1y9ove325rn,D7whsHeY,2020-0188,2020-11-18,16:46:58,17:05:22,NA,incomplete,88,color,1,right,Blue_Triangle_Grid_4.jpg,Purple_Circle_Grid_2.jpg,Blue_Plus_Chess_1.jpg,right,607.1649999939837,true,low,false
D7whsHeY,3r15w654wg6vibc4e4w6loevry9lqd,3un61f00h02jf7mdqya1y9ove325rn,D7whsHeY,2020-0188,2020-11-18,16:46:58,17:05:22,NA,incomplete,89,color,0,right,Purple_Star_Dots_2.jpg,Red_Circle_Dots_1.jpg,Purple_Plus_Grid_4.jpg,right,439.12499997531995,true,low,false
D7whsHeY,3r15w654wg6vibc4e4w6loevry9lqd,3un61f00h02jf7mdqya1y9ove325rn,D7whsHeY,2020-0188,2020-11-18,16:46:58,17:05:22,NA,incomplete,90,filling,0,left,Green_Plus_Chess_1.jpg,Purple_Circle_Chess_2.jpg,Green_Star_Dots_4.jpg,right,414.0100000076927,false,low,false
D7whsHeY,3r15w654wg6vibc4e4w6loevry9lqd,3un61f00h02jf7mdqya1y9ove325rn,D7whsHeY,2020-0188,2020-11-18,16:46:58,17:05:22,NA,incomplete,91,filling,0,left,Purple_Circle_Chess_2.jpg,Green_Triangle_Chess_4.jpg,Purple_Plus_Stripes_3.jpg,right,396.8849999946542,false,low,false
D7whsHeY,3r15w654wg6vibc4e4w6loevry9lqd,3un61f00h02jf7mdqya1y9ove325rn,D7whsHeY,2020-0188,2020-11-18,16:46:58,17:05:22,NA,incomplete,92,filling,1,right,Blue_Plus_Dots_2.jpg,Blue_Triangle_Chess_3.jpg,Green_Circle_Dots_4.jpg,left,447.28999998187646,false,low,false
D7whsHeY,3r15w654wg6vibc4e4w6loevry9lqd,3un61f00h02jf7mdqya1y9ove325rn,D7whsHeY,2020-0188,2020-11-18,16:46:58,17:05:22,NA,incomplete,93,filling,1,left,Green_Circle_Chess_1.jpg,Blue_Plus_Chess_3.jpg,Green_Triangle_Stripes_2.jpg,right,502.7000000118278,false,low,false
D7whsHeY,3r15w654wg6vibc4e4w6loevry9lqd,3un61f00h02jf7mdqya1y9ove325rn,D7whsHeY,2020-0188,2020-11-18,16:46:58,17:05:22,NA,incomplete,94,filling,1,left,Blue_Circle_Dots_4.jpg,Red_Star_Dots_3.jpg,Blue_Plus_Stripes_2.jpg,right,471.0099999792874,false,low,false
D7whsHeY,3r15w654wg6vibc4e4w6loevry9lqd,3un61f00h02jf7mdqya1y9ove325rn,D7whsHeY,2020-0188,2020-11-18,16:46:58,17:05:22,NA,incomplete,95,filling,1,right,Purple_Plus_Stripes_4.jpg,Purple_Star_Grid_3.jpg,Blue_Circle_Stripes_2.jpg,right,724.419999984093,true,low,false
D7whsHeY,3r15w654wg6vibc4e4w6loevry9lqd,3un61f00h02jf7mdqya1y9ove325rn,D7whsHeY,2020-0188,2020-11-18,16:46:58,17:05:22,NA,incomplete,96,filling,1,left,Purple_Triangle_Grid_4.jpg,Red_Circle_Grid_3.jpg,Purple_Star_Dots_1.jpg,left,745.5750000081025,true,low,false
D7whsHeY,3r15w654wg6vibc4e4w6loevry9lqd,3un61f00h02jf7mdqya1y9ove325rn,D7whsHeY,2020-0188,2020-11-18,16:46:58,17:05:22,NA,incomplete,97,filling,1,left,Blue_Star_Chess_4.jpg,Purple_Circle_Chess_2.jpg,Blue_Plus_Grid_1.jpg,left,589.4949999637902,true,low,false
D7whsHeY,3r15w654wg6vibc4e4w6loevry9lqd,3un61f00h02jf7mdqya1y9ove325rn,D7whsHeY,2020-0188,2020-11-18,16:46:58,17:05:22,NA,incomplete,98,filling,1,right,Blue_Plus_Chess_3.jpg,Blue_Star_Grid_4.jpg,Green_Circle_Chess_1.jpg,right,475.4299999913201,true,low,false
D7whsHeY,3r15w654wg6vibc4e4w6loevry9lqd,3un61f00h02jf7mdqya1y9ove325rn,D7whsHeY,2020-0188,2020-11-18,16:46:58,17:05:22,NA,incomplete,99,filling,1,left,Red_Triangle_Grid_2.jpg,Green_Plus_Grid_4.jpg,Red_Star_Chess_1.jpg,left,534.5049999887124,true,low,false
D7whsHeY,3r15w654wg6vibc4e4w6loevry9lqd,3un61f00h02jf7mdqya1y9ove325rn,D7whsHeY,2020-0188,2020-11-18,16:46:58,17:05:22,NA,incomplete,100,filling,0,right,Purple_Triangle_Grid_2.jpg,Purple_Circle_Stripes_3.jpg,Green_Plus_Grid_1.jpg,right,507.5349999824539,true,low,false
D7whsHeY,3r15w654wg6vibc4e4w6loevry9lqd,3un61f00h02jf7mdqya1y9ove325rn,D7whsHeY,2020-0188,2020-11-18,16:46:58,17:05:22,NA,incomplete,101,filling,1,left,Purple_Triangle_Stripes_3.jpg,Red_Circle_Stripes_2.jpg,Purple_Star_Dots_1.jpg,left,507.54999998025596,true,low,false
D7whsHeY,3r15w654wg6vibc4e4w6loevry9lqd,3un61f00h02jf7mdqya1y9ove325rn,D7whsHeY,2020-0188,2020-11-18,16:46:58,17:05:22,NA,incomplete,102,filling,0,left,Blue_Circle_Stripes_3.jpg,Red_Plus_Stripes_4.jpg,Blue_Triangle_Dots_1.jpg,left,463.37999997194856,true,low,false
D7whsHeY,3r15w654wg6vibc4e4w6loevry9lqd,3un61f00h02jf7mdqya1y9ove325rn,D7whsHeY,2020-0188,2020-11-18,16:46:58,17:05:22,NA,incomplete,103,filling,1,left,Purple_Triangle_Dots_2.jpg,Red_Star_Dots_4.jpg,Purple_Plus_Chess_3.jpg,left,530.8850000146776,true,low,false
D7whsHeY,3r15w654wg6vibc4e4w6loevry9lqd,3un61f00h02jf7mdqya1y9ove325rn,D7whsHeY,2020-0188,2020-11-18,16:46:58,17:05:22,NA,incomplete,104,filling,0,left,Red_Plus_Grid_3.jpg,Purple_Star_Grid_1.jpg,Red_Triangle_Stripes_4.jpg,left,453.6599999992177,true,low,false
D7whsHeY,3r15w654wg6vibc4e4w6loevry9lqd,3un61f00h02jf7mdqya1y9ove325rn,D7whsHeY,2020-0188,2020-11-18,16:46:58,17:05:22,NA,incomplete,105,filling,0,left,Purple_Circle_Chess_2.jpg,Green_Plus_Chess_1.jpg,Purple_Star_Dots_4.jpg,left,469.13499996298924,true,low,false
D7whsHeY,3r15w654wg6vibc4e4w6loevry9lqd,3un61f00h02jf7mdqya1y9ove325rn,D7whsHeY,2020-0188,2020-11-18,16:46:58,17:05:22,NA,incomplete,106,filling,0,right,Green_Circle_Grid_4.jpg,Green_Star_Stripes_3.jpg,Blue_Triangle_Grid_1.jpg,left,477.0400000270456,false,low,false
D7whsHeY,3r15w654wg6vibc4e4w6loevry9lqd,3un61f00h02jf7mdqya1y9ove325rn,D7whsHeY,2020-0188,2020-11-18,16:46:58,17:05:22,NA,incomplete,107,filling,1,left,Green_Triangle_Chess_1.jpg,Red_Plus_Chess_4.jpg,Green_Star_Stripes_2.jpg,right,379.3450000230223,false,low,false
D7whsHeY,3r15w654wg6vibc4e4w6loevry9lqd,3un61f00h02jf7mdqya1y9ove325rn,D7whsHeY,2020-0188,2020-11-18,16:46:58,17:05:22,NA,incomplete,108,filling,1,right,Red_Circle_Chess_2.jpg,Red_Triangle_Dots_3.jpg,Blue_Star_Chess_1.jpg,left,447.29999999981374,false,low,false
D7whsHeY,3r15w654wg6vibc4e4w6loevry9lqd,3un61f00h02jf7mdqya1y9ove325rn,D7whsHeY,2020-0188,2020-11-18,16:46:58,17:05:22,NA,incomplete,109,filling,1,left,Purple_Star_Chess_4.jpg,Blue_Triangle_Chess_2.jpg,Purple_Circle_Dots_1.jpg,left,1156.734999967739,true,low,false
D7whsHeY,3r15w654wg6vibc4e4w6loevry9lqd,3un61f00h02jf7mdqya1y9ove325rn,D7whsHeY,2020-0188,2020-11-18,16:46:58,17:05:22,NA,incomplete,110,filling,1,right,Green_Triangle_Grid_3.jpg,Green_Circle_Dots_4.jpg,Purple_Star_Grid_2.jpg,right,614.1249999636784,true,low,false
D7whsHeY,3r15w654wg6vibc4e4w6loevry9lqd,3un61f00h02jf7mdqya1y9ove325rn,D7whsHeY,2020-0188,2020-11-18,16:46:58,17:05:22,NA,incomplete,111,filling,0,right,Purple_Triangle_Stripes_3.jpg,Purple_Star_Grid_2.jpg,Blue_Plus_Stripes_1.jpg,right,694.3849999806844,true,low,false
D7whsHeY,3r15w654wg6vibc4e4w6loevry9lqd,3un61f00h02jf7mdqya1y9ove325rn,D7whsHeY,2020-0188,2020-11-18,16:46:58,17:05:22,NA,incomplete,112,filling,1,left,Red_Triangle_Stripes_2.jpg,Purple_Plus_Stripes_1.jpg,Red_Circle_Dots_4.jpg,left,1003.0099999858066,true,low,false
D7whsHeY,3r15w654wg6vibc4e4w6loevry9lqd,3un61f00h02jf7mdqya1y9ove325rn,D7whsHeY,2020-0188,2020-11-18,16:46:58,17:05:22,NA,incomplete,113,filling,1,right,Blue_Circle_Chess_4.jpg,Blue_Star_Stripes_2.jpg,Purple_Plus_Chess_3.jpg,right,638.8150000129826,true,low,false
D7whsHeY,3r15w654wg6vibc4e4w6loevry9lqd,3un61f00h02jf7mdqya1y9ove325rn,D7whsHeY,2020-0188,2020-11-18,16:46:58,17:05:22,NA,incomplete,114,filling,1,right,Blue_Circle_Dots_2.jpg,Blue_Star_Stripes_3.jpg,Purple_Plus_Dots_1.jpg,right,513.6000000056811,true,low,false
D7whsHeY,3r15w654wg6vibc4e4w6loevry9lqd,3un61f00h02jf7mdqya1y9ove325rn,D7whsHeY,2020-0188,2020-11-18,16:46:58,17:05:22,NA,incomplete,115,filling,0,right,Blue_Star_Chess_1.jpg,Blue_Circle_Stripes_4.jpg,Purple_Plus_Chess_3.jpg,right,460.2350000059232,true,low,false
D7whsHeY,3r15w654wg6vibc4e4w6loevry9lqd,3un61f00h02jf7mdqya1y9ove325rn,D7whsHeY,2020-0188,2020-11-18,16:46:58,17:05:22,NA,incomplete,116,filling,0,right,Red_Triangle_Dots_4.jpg,Red_Plus_Chess_1.jpg,Purple_Star_Dots_3.jpg,none,0,false,low,false
D7whsHeY,3r15w654wg6vibc4e4w6loevry9lqd,3un61f00h02jf7mdqya1y9ove325rn,D7whsHeY,2020-0188,2020-11-18,16:46:58,17:05:22,NA,incomplete,117,filling,1,right,Purple_Triangle_Dots_4.jpg,Purple_Star_Chess_3.jpg,Red_Circle_Dots_2.jpg,right,509.3549999874085,true,low,false
D7whsHeY,3r15w654wg6vibc4e4w6loevry9lqd,3un61f00h02jf7mdqya1y9ove325rn,D7whsHeY,2020-0188,2020-11-18,16:46:58,17:05:22,NA,incomplete,118,filling,1,left,Red_Plus_Grid_1.jpg,Blue_Star_Grid_3.jpg,Red_Circle_Chess_4.jpg,left,685.5849999701604,true,low,false
D7whsHeY,3r15w654wg6vibc4e4w6loevry9lqd,3un61f00h02jf7mdqya1y9ove325rn,D7whsHeY,2020-0188,2020-11-18,16:46:58,17:05:22,NA,incomplete,119,filling,1,right,Green_Plus_Stripes_1.jpg,Green_Triangle_Dots_4.jpg,Purple_Star_Stripes_2.jpg,right,791.4999999920838,true,low,false
D7whsHeY,3r15w654wg6vibc4e4w6loevry9lqd,3un61f00h02jf7mdqya1y9ove325rn,D7whsHeY,2020-0188,2020-11-18,16:46:58,17:05:22,NA,incomplete,120,shape,1,right,Red_Star_Chess_4.jpg,Purple_Triangle_Dots_4.jpg,Blue_Star_Stripes_1.jpg,right,1182.8649999806657,true,low,false
D7whsHeY,3r15w654wg6vibc4e4w6loevry9lqd,3un61f00h02jf7mdqya1y9ove325rn,D7whsHeY,2020-0188,2020-11-18,16:46:58,17:05:22,NA,incomplete,121,shape,1,right,Blue_Star_Chess_2.jpg,Red_Plus_Dots_2.jpg,Purple_Star_Stripes_3.jpg,right,561.6250000311993,true,low,false
D7whsHeY,3r15w654wg6vibc4e4w6loevry9lqd,3un61f00h02jf7mdqya1y9ove325rn,D7whsHeY,2020-0188,2020-11-18,16:46:58,17:05:22,NA,incomplete,122,shape,0,left,Blue_Star_Stripes_3.jpg,Green_Star_Chess_1.jpg,Red_Triangle_Grid_3.jpg,left,707.8800000017509,true,low,false
D7whsHeY,3r15w654wg6vibc4e4w6loevry9lqd,3un61f00h02jf7mdqya1y9ove325rn,D7whsHeY,2020-0188,2020-11-18,16:46:58,17:05:22,NA,incomplete,123,shape,1,right,Red_Star_Dots_4.jpg,Blue_Plus_Grid_4.jpg,Green_Star_Chess_1.jpg,right,584.7949999733828,true,low,false
D7whsHeY,3r15w654wg6vibc4e4w6loevry9lqd,3un61f00h02jf7mdqya1y9ove325rn,D7whsHeY,2020-0188,2020-11-18,16:46:58,17:05:22,NA,incomplete,124,shape,1,right,Red_Star_Chess_1.jpg,Purple_Plus_Stripes_1.jpg,Green_Star_Grid_2.jpg,right,435.7600000221282,true,low,false
D7whsHeY,3r15w654wg6vibc4e4w6loevry9lqd,3un61f00h02jf7mdqya1y9ove325rn,D7whsHeY,2020-0188,2020-11-18,16:46:58,17:05:22,NA,incomplete,125,shape,0,right,Green_Triangle_Chess_2.jpg,Red_Plus_Dots_2.jpg,Purple_Triangle_Grid_1.jpg,right,933.2150000263937,true,low,false
D7whsHeY,3r15w654wg6vibc4e4w6loevry9lqd,3un61f00h02jf7mdqya1y9ove325rn,D7whsHeY,2020-0188,2020-11-18,16:46:58,17:05:22,NA,incomplete,126,shape,1,right,Purple_Circle_Chess_2.jpg,Blue_Plus_Stripes_2.jpg,Red_Circle_Dots_3.jpg,right,449.71000001532957,true,low,false
D7whsHeY,3r15w654wg6vibc4e4w6loevry9lqd,3un61f00h02jf7mdqya1y9ove325rn,D7whsHeY,2020-0188,2020-11-18,16:46:58,17:05:22,NA,incomplete,127,shape,1,left,Green_Star_Chess_3.jpg,Red_Star_Stripes_4.jpg,Purple_Circle_Dots_3.jpg,left,570.7449999754317,true,low,false
D7whsHeY,3r15w654wg6vibc4e4w6loevry9lqd,3un61f00h02jf7mdqya1y9ove325rn,D7whsHeY,2020-0188,2020-11-18,16:46:58,17:05:22,NA,incomplete,128,shape,1,left,Red_Triangle_Dots_1.jpg,Blue_Triangle_Grid_2.jpg,Purple_Circle_Stripes_1.jpg,left,846.8799999682233,true,low,false
D7whsHeY,3r15w654wg6vibc4e4w6loevry9lqd,3un61f00h02jf7mdqya1y9ove325rn,D7whsHeY,2020-0188,2020-11-18,16:46:58,17:05:22,NA,incomplete,129,shape,0,left,Green_Plus_Stripes_2.jpg,Blue_Plus_Grid_4.jpg,Red_Circle_Chess_2.jpg,left,760.3249999810942,true,low,false
D7whsHeY,3r15w654wg6vibc4e4w6loevry9lqd,3un61f00h02jf7mdqya1y9ove325rn,D7whsHeY,2020-0188,2020-11-18,16:46:58,17:05:22,NA,incomplete,130,shape,1,right,Blue_Circle_Grid_4.jpg,Red_Star_Chess_4.jpg,Purple_Circle_Stripes_3.jpg,right,544.4650000426918,true,low,false
D7whsHeY,3r15w654wg6vibc4e4w6loevry9lqd,3un61f00h02jf7mdqya1y9ove325rn,D7whsHeY,2020-0188,2020-11-18,16:46:58,17:05:22,NA,incomplete,131,shape,1,left,Red_Plus_Dots_3.jpg,Purple_Plus_Grid_2.jpg,Green_Star_Stripes_3.jpg,left,629.5500000123866,true,low,false
D7whsHeY,3r15w654wg6vibc4e4w6loevry9lqd,3un61f00h02jf7mdqya1y9ove325rn,D7whsHeY,2020-0188,2020-11-18,16:46:58,17:05:22,NA,incomplete,132,shape,0,left,Red_Star_Stripes_1.jpg,Green_Star_Dots_3.jpg,Blue_Triangle_Chess_1.jpg,left,711.7150000412948,true,low,false
D7whsHeY,3r15w654wg6vibc4e4w6loevry9lqd,3un61f00h02jf7mdqya1y9ove325rn,D7whsHeY,2020-0188,2020-11-18,16:46:58,17:05:22,NA,incomplete,133,shape,1,right,Green_Star_Chess_3.jpg,Purple_Circle_Stripes_3.jpg,Blue_Star_Dots_1.jpg,right,589.6499999798834,true,low,false
D7whsHeY,3r15w654wg6vibc4e4w6loevry9lqd,3un61f00h02jf7mdqya1y9ove325rn,D7whsHeY,2020-0188,2020-11-18,16:46:58,17:05:22,NA,incomplete,134,shape,0,left,Red_Plus_Grid_4.jpg,Purple_Plus_Dots_1.jpg,Blue_Triangle_Stripes_4.jpg,left,649.8650000430644,true,low,false
D7whsHeY,3r15w654wg6vibc4e4w6loevry9lqd,3un61f00h02jf7mdqya1y9ove325rn,D7whsHeY,2020-0188,2020-11-18,16:46:58,17:05:22,NA,incomplete,135,shape,1,left,Purple_Circle_Chess_1.jpg,Green_Circle_Dots_4.jpg,Blue_Triangle_Stripes_1.jpg,left,738.6500000138767,true,low,false
D7whsHeY,3r15w654wg6vibc4e4w6loevry9lqd,3un61f00h02jf7mdqya1y9ove325rn,D7whsHeY,2020-0188,2020-11-18,16:46:58,17:05:22,NA,incomplete,136,shape,1,right,Purple_Star_Dots_4.jpg,Red_Plus_Chess_4.jpg,Blue_Star_Stripes_2.jpg,right,710.5100000044331,true,low,false
D7whsHeY,3r15w654wg6vibc4e4w6loevry9lqd,3un61f00h02jf7mdqya1y9ove325rn,D7whsHeY,2020-0188,2020-11-18,16:46:58,17:05:22,NA,incomplete,137,shape,1,right,Green_Circle_Grid_1.jpg,Red_Triangle_Dots_1.jpg,Blue_Circle_Stripes_3.jpg,right,707.9150000354275,true,low,false
D7whsHeY,3r15w654wg6vibc4e4w6loevry9lqd,3un61f00h02jf7mdqya1y9ove325rn,D7whsHeY,2020-0188,2020-11-18,16:46:58,17:05:22,NA,incomplete,138,shape,1,right,Green_Plus_Dots_2.jpg,Blue_Circle_Chess_2.jpg,Red_Plus_Stripes_1.jpg,right,561.5600000019185,true,low,false
D7whsHeY,3r15w654wg6vibc4e4w6loevry9lqd,3un61f00h02jf7mdqya1y9ove325rn,D7whsHeY,2020-0188,2020-11-18,16:46:58,17:05:22,NA,incomplete,139,shape,1,right,Blue_Star_Grid_3.jpg,Purple_Circle_Chess_3.jpg,Green_Star_Dots_2.jpg,right,452.1250000107102,true,low,false
D7whsHeY,3r15w654wg6vibc4e4w6loevry9lqd,3un61f00h02jf7mdqya1y9ove325rn,D7whsHeY,2020-0188,2020-11-18,16:46:58,17:05:22,NA,incomplete,140,number,1,left,Green_Circle_Stripes_1.jpg,Blue_Triangle_Dots_1.jpg,Red_Circle_Grid_3.jpg,right,356.16000002482906,false,low,false
D7whsHeY,3r15w654wg6vibc4e4w6loevry9lqd,3un61f00h02jf7mdqya1y9ove325rn,D7whsHeY,2020-0188,2020-11-18,16:46:58,17:05:22,NA,incomplete,141,number,0,left,Green_Circle_Chess_2.jpg,Blue_Plus_Stripes_2.jpg,Purple_Circle_Dots_4.jpg,right,632.1699999971315,false,low,false
D7whsHeY,3r15w654wg6vibc4e4w6loevry9lqd,3un61f00h02jf7mdqya1y9ove325rn,D7whsHeY,2020-0188,2020-11-18,16:46:58,17:05:22,NA,incomplete,142,number,1,right,Purple_Plus_Stripes_1.jpg,Red_Plus_Grid_4.jpg,Green_Circle_Dots_1.jpg,left,594.0100000007078,false,low,false
D7whsHeY,3r15w654wg6vibc4e4w6loevry9lqd,3un61f00h02jf7mdqya1y9ove325rn,D7whsHeY,2020-0188,2020-11-18,16:46:58,17:05:22,NA,incomplete,143,number,1,right,Green_Star_Stripes_2.jpg,Purple_Star_Grid_4.jpg,Red_Plus_Dots_2.jpg,left,724.4049999862909,false,low,false
D7whsHeY,3r15w654wg6vibc4e4w6loevry9lqd,3un61f00h02jf7mdqya1y9ove325rn,D7whsHeY,2020-0188,2020-11-18,16:46:58,17:05:22,NA,incomplete,144,number,1,left,Purple_Plus_Grid_1.jpg,Green_Circle_Chess_1.jpg,Blue_Plus_Stripes_3.jpg,left,683.6449999827892,true,low,false
D7whsHeY,3r15w654wg6vibc4e4w6loevry9lqd,3un61f00h02jf7mdqya1y9ove325rn,D7whsHeY,2020-0188,2020-11-18,16:46:58,17:05:22,NA,incomplete,145,number,1,left,Blue_Plus_Grid_2.jpg,Purple_Triangle_Dots_2.jpg,Red_Plus_Chess_1.jpg,left,864.0900000464171,true,low,false
D7whsHeY,3r15w654wg6vibc4e4w6loevry9lqd,3un61f00h02jf7mdqya1y9ove325rn,D7whsHeY,2020-0188,2020-11-18,16:46:58,17:05:22,NA,incomplete,146,number,1,right,Red_Triangle_Dots_2.jpg,Green_Triangle_Chess_1.jpg,Purple_Star_Grid_2.jpg,right,824.3750000256114,true,low,false
D7whsHeY,3r15w654wg6vibc4e4w6loevry9lqd,3un61f00h02jf7mdqya1y9ove325rn,D7whsHeY,2020-0188,2020-11-18,16:46:58,17:05:22,NA,incomplete,147,number,1,right,Purple_Circle_Chess_4.jpg,Blue_Circle_Dots_2.jpg,Red_Star_Grid_4.jpg,left,546.7599999974482,false,low,false
D7whsHeY,3r15w654wg6vibc4e4w6loevry9lqd,3un61f00h02jf7mdqya1y9ove325rn,D7whsHeY,2020-0188,2020-11-18,16:46:58,17:05:22,NA,incomplete,148,number,1,left,Red_Plus_Stripes_3.jpg,Blue_Circle_Dots_3.jpg,Green_Plus_Grid_2.jpg,left,1488.2150000194088,true,low,false
D7whsHeY,3r15w654wg6vibc4e4w6loevry9lqd,3un61f00h02jf7mdqya1y9ove325rn,D7whsHeY,2020-0188,2020-11-18,16:46:58,17:05:22,NA,incomplete,149,number,1,left,Purple_Circle_Dots_1.jpg,Blue_Plus_Stripes_1.jpg,Green_Circle_Grid_4.jpg,left,918.5750000178814,true,low,false
D7whsHeY,3r15w654wg6vibc4e4w6loevry9lqd,3un61f00h02jf7mdqya1y9ove325rn,D7whsHeY,2020-0188,2020-11-18,16:46:58,17:05:22,NA,incomplete,150,number,0,left,Green_Star_Dots_2.jpg,Purple_Circle_Chess_2.jpg,Red_Star_Stripes_3.jpg,left,703.975000011269,true,low,false
D7whsHeY,3r15w654wg6vibc4e4w6loevry9lqd,3un61f00h02jf7mdqya1y9ove325rn,D7whsHeY,2020-0188,2020-11-18,16:46:58,17:05:22,NA,incomplete,151,number,1,left,Red_Triangle_Dots_3.jpg,Purple_Star_Grid_3.jpg,Blue_Triangle_Chess_2.jpg,left,942.5599999958649,true,low,false
D7whsHeY,3r15w654wg6vibc4e4w6loevry9lqd,3un61f00h02jf7mdqya1y9ove325rn,D7whsHeY,2020-0188,2020-11-18,16:46:58,17:05:22,NA,incomplete,152,number,1,left,Red_Circle_Stripes_1.jpg,Purple_Star_Grid_1.jpg,Blue_Circle_Dots_4.jpg,left,676.4149999944493,true,low,false
D7whsHeY,3r15w654wg6vibc4e4w6loevry9lqd,3un61f00h02jf7mdqya1y9ove325rn,D7whsHeY,2020-0188,2020-11-18,16:46:58,17:05:22,NA,incomplete,153,number,1,right,Blue_Triangle_Grid_4.jpg,Purple_Triangle_Dots_3.jpg,Red_Plus_Chess_4.jpg,right,857.3949999990873,true,low,false
D7whsHeY,3r15w654wg6vibc4e4w6loevry9lqd,3un61f00h02jf7mdqya1y9ove325rn,D7whsHeY,2020-0188,2020-11-18,16:46:58,17:05:22,NA,incomplete,154,number,0,right,Blue_Triangle_Chess_4.jpg,Green_Triangle_Grid_1.jpg,Purple_Star_Dots_4.jpg,right,971.5350000187755,true,low,false
D7whsHeY,3r15w654wg6vibc4e4w6loevry9lqd,3un61f00h02jf7mdqya1y9ove325rn,D7whsHeY,2020-0188,2020-11-18,16:46:58,17:05:22,NA,incomplete,155,number,1,right,Green_Plus_Grid_3.jpg,Purple_Plus_Stripes_2.jpg,Blue_Circle_Dots_3.jpg,right,996.1950000142679,true,low,false
D7whsHeY,3r15w654wg6vibc4e4w6loevry9lqd,3un61f00h02jf7mdqya1y9ove325rn,D7whsHeY,2020-0188,2020-11-18,16:46:58,17:05:22,NA,incomplete,156,number,1,left,Red_Star_Chess_2.jpg,Purple_Triangle_Stripes_2.jpg,Green_Star_Grid_1.jpg,right,809.5450000255369,false,low,false
D7whsHeY,3r15w654wg6vibc4e4w6loevry9lqd,3un61f00h02jf7mdqya1y9ove325rn,D7whsHeY,2020-0188,2020-11-18,16:46:58,17:05:22,NA,incomplete,157,number,1,left,Blue_Star_Dots_3.jpg,Green_Triangle_Grid_3.jpg,Purple_Star_Chess_1.jpg,left,832.5400000321679,true,low,false
D7whsHeY,3r15w654wg6vibc4e4w6loevry9lqd,3un61f00h02jf7mdqya1y9ove325rn,D7whsHeY,2020-0188,2020-11-18,16:46:58,17:05:22,NA,incomplete,158,number,1,left,Purple_Circle_Grid_1.jpg,Red_Triangle_Stripes_1.jpg,Blue_Circle_Chess_4.jpg,left,722.8800000157207,true,low,false
D7whsHeY,3r15w654wg6vibc4e4w6loevry9lqd,3un61f00h02jf7mdqya1y9ove325rn,D7whsHeY,2020-0188,2020-11-18,16:46:58,17:05:22,NA,incomplete,159,number,1,right,Green_Plus_Grid_2.jpg,Purple_Plus_Chess_3.jpg,Blue_Star_Stripes_2.jpg,right,710.6600000406615,true,low,false
D7whsHeY,3r15w654wg6vibc4e4w6loevry9lqd,3un61f00h02jf7mdqya1y9ove325rn,D7whsHeY,2020-0188,2020-11-18,16:46:58,17:05:22,NA,incomplete,160,shape,1,right,Red_Triangle_Grid_1.jpg,Purple_Plus_Chess_1.jpg,Blue_Triangle_Stripes_4.jpg,left,692.6349999848753,false,low,false
D7whsHeY,3r15w654wg6vibc4e4w6loevry9lqd,3un61f00h02jf7mdqya1y9ove325rn,D7whsHeY,2020-0188,2020-11-18,16:46:58,17:05:22,NA,incomplete,161,shape,1,left,Blue_Circle_Dots_4.jpg,Green_Circle_Grid_2.jpg,Red_Star_Stripes_4.jpg,right,858.8800000143237,false,low,false
D7whsHeY,3r15w654wg6vibc4e4w6loevry9lqd,3un61f00h02jf7mdqya1y9ove325rn,D7whsHeY,2020-0188,2020-11-18,16:46:58,17:05:22,NA,incomplete,162,shape,1,left,Green_Plus_Chess_4.jpg,Purple_Plus_Grid_3.jpg,Blue_Star_Stripes_4.jpg,left,969.4000000017695,true,low,false
D7whsHeY,3r15w654wg6vibc4e4w6loevry9lqd,3un61f00h02jf7mdqya1y9ove325rn,D7whsHeY,2020-0188,2020-11-18,16:46:58,17:05:22,NA,incomplete,163,shape,1,right,Red_Triangle_Stripes_3.jpg,Green_Circle_Grid_3.jpg,Purple_Triangle_Chess_4.jpg,right,919.0299999900162,true,low,false
D7whsHeY,3r15w654wg6vibc4e4w6loevry9lqd,3un61f00h02jf7mdqya1y9ove325rn,D7whsHeY,2020-0188,2020-11-18,16:46:58,17:05:22,NA,incomplete,164,shape,1,left,Purple_Circle_Dots_3.jpg,Blue_Circle_Stripes_4.jpg,Red_Triangle_Grid_3.jpg,left,1028.0500000226311,true,low,false
D7whsHeY,3r15w654wg6vibc4e4w6loevry9lqd,3un61f00h02jf7mdqya1y9ove325rn,D7whsHeY,2020-0188,2020-11-18,16:46:58,17:05:22,NA,incomplete,165,shape,1,left,Red_Triangle_Dots_1.jpg,Green_Triangle_Chess_2.jpg,Purple_Circle_Stripes_1.jpg,left,707.4300000094809,true,low,false
D7whsHeY,3r15w654wg6vibc4e4w6loevry9lqd,3un61f00h02jf7mdqya1y9ove325rn,D7whsHeY,2020-0188,2020-11-18,16:46:58,17:05:22,NA,incomplete,166,shape,1,right,Blue_Triangle_Grid_1.jpg,Purple_Circle_Chess_1.jpg,Green_Triangle_Stripes_4.jpg,right,794.88499998115,true,low,false
D7whsHeY,3r15w654wg6vibc4e4w6loevry9lqd,3un61f00h02jf7mdqya1y9ove325rn,D7whsHeY,2020-0188,2020-11-18,16:46:58,17:05:22,NA,incomplete,167,shape,1,left,Red_Circle_Grid_4.jpg,Green_Circle_Stripes_3.jpg,Blue_Star_Dots_4.jpg,left,563.860000052955,true,low,false
D7whsHeY,3r15w654wg6vibc4e4w6loevry9lqd,3un61f00h02jf7mdqya1y9ove325rn,D7whsHeY,2020-0188,2020-11-18,16:46:58,17:05:22,NA,incomplete,168,shape,1,right,Red_Plus_Stripes_2.jpg,Blue_Triangle_Chess_2.jpg,Green_Plus_Dots_1.jpg,right,728.8849999895319,true,low,false
D7whsHeY,3r15w654wg6vibc4e4w6loevry9lqd,3un61f00h02jf7mdqya1y9ove325rn,D7whsHeY,2020-0188,2020-11-18,16:46:58,17:05:22,NA,incomplete,169,shape,0,left,Blue_Triangle_Stripes_2.jpg,Red_Triangle_Chess_4.jpg,Green_Plus_Dots_2.jpg,left,639.179999998305,true,low,false
D7whsHeY,3r15w654wg6vibc4e4w6loevry9lqd,3un61f00h02jf7mdqya1y9ove325rn,D7whsHeY,2020-0188,2020-11-18,16:46:58,17:05:22,NA,incomplete,170,shape,1,right,Red_Star_Stripes_3.jpg,Blue_Plus_Dots_3.jpg,Green_Star_Grid_4.jpg,right,1030.9000000124797,true,low,false
D7whsHeY,3r15w654wg6vibc4e4w6loevry9lqd,3un61f00h02jf7mdqya1y9ove325rn,D7whsHeY,2020-0188,2020-11-18,16:46:58,17:05:22,NA,incomplete,171,shape,0,right,Blue_Plus_Grid_2.jpg,Red_Star_Dots_2.jpg,Purple_Plus_Stripes_1.jpg,right,750.5799999926239,true,low,false
D7whsHeY,3r15w654wg6vibc4e4w6loevry9lqd,3un61f00h02jf7mdqya1y9ove325rn,D7whsHeY,2020-0188,2020-11-18,16:46:58,17:05:22,NA,incomplete,172,shape,1,left,Red_Plus_Grid_4.jpg,Purple_Plus_Stripes_1.jpg,Blue_Triangle_Dots_4.jpg,left,714.2500000190921,true,low,false
D7whsHeY,3r15w654wg6vibc4e4w6loevry9lqd,3un61f00h02jf7mdqya1y9ove325rn,D7whsHeY,2020-0188,2020-11-18,16:46:58,17:05:22,NA,incomplete,173,shape,1,left,Red_Star_Chess_1.jpg,Blue_Star_Stripes_3.jpg,Green_Circle_Grid_1.jpg,left,703.975000011269,true,low,false
D7whsHeY,3r15w654wg6vibc4e4w6loevry9lqd,3un61f00h02jf7mdqya1y9ove325rn,D7whsHeY,2020-0188,2020-11-18,16:46:58,17:05:22,NA,incomplete,174,shape,0,right,Purple_Plus_Dots_2.jpg,Blue_Triangle_Grid_2.jpg,Red_Plus_Stripes_1.jpg,right,881.6449999576434,true,low,false
D7whsHeY,3r15w654wg6vibc4e4w6loevry9lqd,3un61f00h02jf7mdqya1y9ove325rn,D7whsHeY,2020-0188,2020-11-18,16:46:58,17:05:22,NA,incomplete,175,shape,1,left,Red_Plus_Grid_2.jpg,Purple_Plus_Chess_3.jpg,Green_Circle_Stripes_2.jpg,left,774.1500000120141,true,low,false
D7whsHeY,3r15w654wg6vibc4e4w6loevry9lqd,3un61f00h02jf7mdqya1y9ove325rn,D7whsHeY,2020-0188,2020-11-18,16:46:58,17:05:22,NA,incomplete,176,shape,1,left,Blue_Plus_Dots_4.jpg,Green_Plus_Chess_3.jpg,Red_Star_Stripes_4.jpg,left,935.4300000122748,true,low,false
D7whsHeY,3r15w654wg6vibc4e4w6loevry9lqd,3un61f00h02jf7mdqya1y9ove325rn,D7whsHeY,2020-0188,2020-11-18,16:46:58,17:05:22,NA,incomplete,177,shape,1,left,Red_Plus_Chess_1.jpg,Green_Plus_Grid_4.jpg,Purple_Star_Stripes_1.jpg,left,803.6750000319444,true,low,false
D7whsHeY,3r15w654wg6vibc4e4w6loevry9lqd,3un61f00h02jf7mdqya1y9ove325rn,D7whsHeY,2020-0188,2020-11-18,16:46:58,17:05:22,NA,incomplete,178,shape,0,right,Blue_Circle_Stripes_4.jpg,Purple_Star_Dots_4.jpg,Red_Circle_Grid_1.jpg,right,782.9899999778718,true,low,false
D7whsHeY,3r15w654wg6vibc4e4w6loevry9lqd,3un61f00h02jf7mdqya1y9ove325rn,D7whsHeY,2020-0188,2020-11-18,16:46:58,17:05:22,NA,incomplete,179,shape,1,left,Blue_Triangle_Grid_1.jpg,Green_Triangle_Dots_4.jpg,Red_Star_Chess_1.jpg,left,612.4299999792129,true,low,false
D7whsHeY,3r15w654wg6vibc4e4w6loevry9lqd,3un61f00h02jf7mdqya1y9ove325rn,D7whsHeY,2020-0188,2020-11-18,16:46:58,17:05:22,NA,incomplete,180,number,1,right,Purple_Circle_Stripes_3.jpg,Green_Circle_Grid_4.jpg,Red_Triangle_Chess_3.jpg,left,668.5700000380166,false,low,false
D7whsHeY,3r15w654wg6vibc4e4w6loevry9lqd,3un61f00h02jf7mdqya1y9ove325rn,D7whsHeY,2020-0188,2020-11-18,16:46:58,17:05:22,NA,incomplete,181,number,1,left,Green_Plus_Chess_1.jpg,Purple_Triangle_Grid_1.jpg,Blue_Plus_Dots_4.jpg,right,762.0999999926426,false,low,false
D7whsHeY,3r15w654wg6vibc4e4w6loevry9lqd,3un61f00h02jf7mdqya1y9ove325rn,D7whsHeY,2020-0188,2020-11-18,16:46:58,17:05:22,NA,incomplete,182,number,1,left,Green_Triangle_Dots_4.jpg,Red_Plus_Grid_4.jpg,Purple_Triangle_Stripes_3.jpg,right,719.1250000032596,false,low,false
D7whsHeY,3r15w654wg6vibc4e4w6loevry9lqd,3un61f00h02jf7mdqya1y9ove325rn,D7whsHeY,2020-0188,2020-11-18,16:46:58,17:05:22,NA,incomplete,183,number,1,left,Red_Star_Stripes_1.jpg,Blue_Circle_Chess_1.jpg,Purple_Star_Grid_2.jpg,left,1066.9400000479072,true,low,false
D7whsHeY,3r15w654wg6vibc4e4w6loevry9lqd,3un61f00h02jf7mdqya1y9ove325rn,D7whsHeY,2020-0188,2020-11-18,16:46:58,17:05:22,NA,incomplete,184,number,1,right,Purple_Plus_Dots_3.jpg,Red_Plus_Chess_1.jpg,Blue_Triangle_Grid_3.jpg,right,858.7950000073761,true,low,false
D7whsHeY,3r15w654wg6vibc4e4w6loevry9lqd,3un61f00h02jf7mdqya1y9ove325rn,D7whsHeY,2020-0188,2020-11-18,16:46:58,17:05:22,NA,incomplete,185,number,1,left,Red_Star_Grid_3.jpg,Purple_Plus_Chess_3.jpg,Blue_Star_Dots_4.jpg,right,1121.9249999849126,false,low,false
D7whsHeY,3r15w654wg6vibc4e4w6loevry9lqd,3un61f00h02jf7mdqya1y9ove325rn,D7whsHeY,2020-0188,2020-11-18,16:46:58,17:05:22,NA,incomplete,186,number,0,right,Purple_Plus_Dots_4.jpg,Green_Plus_Grid_1.jpg,Red_Circle_Chess_4.jpg,right,849.5899999979883,true,low,false
D7whsHeY,3r15w654wg6vibc4e4w6loevry9lqd,3un61f00h02jf7mdqya1y9ove325rn,D7whsHeY,2020-0188,2020-11-18,16:46:58,17:05:22,NA,incomplete,187,number,1,right,Red_Triangle_Grid_3.jpg,Green_Triangle_Stripes_1.jpg,Purple_Circle_Dots_3.jpg,right,968.8849999802187,true,low,false
D7whsHeY,3r15w654wg6vibc4e4w6loevry9lqd,3un61f00h02jf7mdqya1y9ove325rn,D7whsHeY,2020-0188,2020-11-18,16:46:58,17:05:22,NA,incomplete,188,number,1,right,Red_Plus_Grid_1.jpg,Purple_Plus_Stripes_3.jpg,Blue_Circle_Dots_1.jpg,right,1182.524999952875,true,low,false
D7whsHeY,3r15w654wg6vibc4e4w6loevry9lqd,3un61f00h02jf7mdqya1y9ove325rn,D7whsHeY,2020-0188,2020-11-18,16:46:58,17:05:22,NA,incomplete,189,number,0,left,Red_Circle_Dots_1.jpg,Green_Star_Stripes_1.jpg,Purple_Circle_Chess_2.jpg,left,821.9849999877624,true,low,false
D7whsHeY,3r15w654wg6vibc4e4w6loevry9lqd,3un61f00h02jf7mdqya1y9ove325rn,D7whsHeY,2020-0188,2020-11-18,16:46:58,17:05:22,NA,incomplete,190,number,1,right,Blue_Plus_Chess_1.jpg,Green_Plus_Dots_2.jpg,Purple_Star_Stripes_1.jpg,right,1093.7299999641255,true,low,false
D7whsHeY,3r15w654wg6vibc4e4w6loevry9lqd,3un61f00h02jf7mdqya1y9ove325rn,D7whsHeY,2020-0188,2020-11-18,16:46:58,17:05:22,NA,incomplete,191,number,0,left,Purple_Plus_Dots_3.jpg,Green_Circle_Stripes_3.jpg,Blue_Plus_Grid_1.jpg,left,717.5300000235438,true,low,false
D7whsHeY,3r15w654wg6vibc4e4w6loevry9lqd,3un61f00h02jf7mdqya1y9ove325rn,D7whsHeY,2020-0188,2020-11-18,16:46:58,17:05:22,NA,incomplete,192,number,1,left,Red_Triangle_Grid_1.jpg,Blue_Circle_Chess_1.jpg,Purple_Triangle_Stripes_3.jpg,left,985.5199999874458,true,low,false
D7whsHeY,3r15w654wg6vibc4e4w6loevry9lqd,3un61f00h02jf7mdqya1y9ove325rn,D7whsHeY,2020-0188,2020-11-18,16:46:58,17:05:22,NA,incomplete,193,number,1,right,Red_Plus_Grid_4.jpg,Blue_Plus_Stripes_3.jpg,Green_Star_Dots_4.jpg,right,774.3250000057742,true,low,false
D7whsHeY,3r15w654wg6vibc4e4w6loevry9lqd,3un61f00h02jf7mdqya1y9ove325rn,D7whsHeY,2020-0188,2020-11-18,16:46:58,17:05:22,NA,incomplete,194,number,0,right,Red_Triangle_Dots_1.jpg,Green_Triangle_Chess_4.jpg,Purple_Plus_Stripes_1.jpg,right,808.0450000124983,true,low,false
D7whsHeY,3r15w654wg6vibc4e4w6loevry9lqd,3un61f00h02jf7mdqya1y9ove325rn,D7whsHeY,2020-0188,2020-11-18,16:46:58,17:05:22,NA,incomplete,195,number,1,left,Green_Circle_Chess_1.jpg,Blue_Star_Stripes_1.jpg,Purple_Circle_Grid_2.jpg,left,816.4450000040233,true,low,false
D7whsHeY,3r15w654wg6vibc4e4w6loevry9lqd,3un61f00h02jf7mdqya1y9ove325rn,D7whsHeY,2020-0188,2020-11-18,16:46:58,17:05:22,NA,incomplete,196,number,1,left,Red_Plus_Chess_2.jpg,Green_Star_Stripes_2.jpg,Blue_Plus_Grid_1.jpg,left,763.0800000042655,true,low,false
D7whsHeY,3r15w654wg6vibc4e4w6loevry9lqd,3un61f00h02jf7mdqya1y9ove325rn,D7whsHeY,2020-0188,2020-11-18,16:46:58,17:05:22,NA,incomplete,197,number,1,left,Red_Circle_Chess_3.jpg,Purple_Star_Dots_3.jpg,Green_Circle_Stripes_2.jpg,left,816.7549999780022,true,low,false
D7whsHeY,3r15w654wg6vibc4e4w6loevry9lqd,3un61f00h02jf7mdqya1y9ove325rn,D7whsHeY,2020-0188,2020-11-18,16:46:58,17:05:22,NA,incomplete,198,number,1,left,Red_Circle_Grid_4.jpg,Green_Plus_Stripes_4.jpg,Blue_Circle_Dots_1.jpg,left,666.1600000225008,true,low,false
D7whsHeY,3r15w654wg6vibc4e4w6loevry9lqd,3un61f00h02jf7mdqya1y9ove325rn,D7whsHeY,2020-0188,2020-11-18,16:46:58,17:05:22,NA,incomplete,199,number,1,right,Purple_Circle_Grid_2.jpg,Green_Circle_Stripes_3.jpg,Blue_Plus_Chess_2.jpg,right,802.3350000148639,true,low,false
D7whsHeY,3r15w654wg6vibc4e4w6loevry9lqd,3un61f00h02jf7mdqya1y9ove325rn,D7whsHeY,2020-0188,2020-11-18,16:46:58,17:05:22,NA,incomplete,200,shape,0,left,Green_Triangle_Dots_2.jpg,Red_Triangle_Chess_1.jpg,Purple_Plus_Stripes_2.jpg,left,539.8999999742955,true,low,false
D7whsHeY,3r15w654wg6vibc4e4w6loevry9lqd,3un61f00h02jf7mdqya1y9ove325rn,D7whsHeY,2020-0188,2020-11-18,16:46:58,17:05:22,NA,incomplete,201,shape,1,left,Purple_Plus_Grid_4.jpg,Green_Plus_Dots_3.jpg,Blue_Star_Stripes_4.jpg,right,1322.6350000477396,false,low,false
D7whsHeY,3r15w654wg6vibc4e4w6loevry9lqd,3un61f00h02jf7mdqya1y9ove325rn,D7whsHeY,2020-0188,2020-11-18,16:46:58,17:05:22,NA,incomplete,202,shape,1,left,Green_Circle_Stripes_1.jpg,Purple_Circle_Grid_2.jpg,Blue_Star_Dots_1.jpg,right,1487.8349999780767,false,low,false
D7whsHeY,3r15w654wg6vibc4e4w6loevry9lqd,3un61f00h02jf7mdqya1y9ove325rn,D7whsHeY,2020-0188,2020-11-18,16:46:58,17:05:22,NA,incomplete,203,shape,1,right,Red_Circle_Dots_4.jpg,Blue_Star_Stripes_4.jpg,Purple_Circle_Chess_2.jpg,left,888.6149999452755,false,low,false
D7whsHeY,3r15w654wg6vibc4e4w6loevry9lqd,3un61f00h02jf7mdqya1y9ove325rn,D7whsHeY,2020-0188,2020-11-18,16:46:58,17:05:22,NA,incomplete,204,shape,1,left,Green_Triangle_Chess_4.jpg,Blue_Triangle_Dots_3.jpg,Purple_Star_Grid_4.jpg,left,1582.5600000098348,true,low,false
D7whsHeY,3r15w654wg6vibc4e4w6loevry9lqd,3un61f00h02jf7mdqya1y9ove325rn,D7whsHeY,2020-0188,2020-11-18,16:46:58,17:05:22,NA,incomplete,205,shape,1,left,Purple_Triangle_Stripes_4.jpg,Blue_Triangle_Chess_2.jpg,Green_Circle_Grid_4.jpg,left,681.2550000031479,true,low,false
D7whsHeY,3r15w654wg6vibc4e4w6loevry9lqd,3un61f00h02jf7mdqya1y9ove325rn,D7whsHeY,2020-0188,2020-11-18,16:46:58,17:05:22,NA,incomplete,206,shape,1,right,Purple_Plus_Chess_1.jpg,Red_Triangle_Dots_1.jpg,Blue_Plus_Grid_2.jpg,right,649.0150000317954,true,low,false
D7whsHeY,3r15w654wg6vibc4e4w6loevry9lqd,3un61f00h02jf7mdqya1y9ove325rn,D7whsHeY,2020-0188,2020-11-18,16:46:58,17:05:22,NA,incomplete,207,shape,1,left,Red_Triangle_Stripes_3.jpg,Blue_Triangle_Grid_1.jpg,Purple_Plus_Dots_3.jpg,left,1075.0700000207871,true,low,false
D7whsHeY,3r15w654wg6vibc4e4w6loevry9lqd,3un61f00h02jf7mdqya1y9ove325rn,D7whsHeY,2020-0188,2020-11-18,16:46:58,17:05:22,NA,incomplete,208,shape,0,right,Green_Circle_Grid_2.jpg,Blue_Plus_Stripes_2.jpg,Purple_Circle_Dots_1.jpg,right,551.3749999809079,true,low,false
D7whsHeY,3r15w654wg6vibc4e4w6loevry9lqd,3un61f00h02jf7mdqya1y9ove325rn,D7whsHeY,2020-0188,2020-11-18,16:46:58,17:05:22,NA,incomplete,209,shape,1,right,Red_Circle_Dots_1.jpg,Purple_Triangle_Grid_1.jpg,Green_Circle_Chess_3.jpg,right,900.7100000162609,true,low,false
D7whsHeY,3r15w654wg6vibc4e4w6loevry9lqd,3un61f00h02jf7mdqya1y9ove325rn,D7whsHeY,2020-0188,2020-11-18,16:46:58,17:05:22,NA,incomplete,210,shape,0,right,Green_Star_Grid_3.jpg,Purple_Circle_Stripes_3.jpg,Blue_Star_Dots_1.jpg,right,940.050000033807,true,low,false
D7whsHeY,3r15w654wg6vibc4e4w6loevry9lqd,3un61f00h02jf7mdqya1y9ove325rn,D7whsHeY,2020-0188,2020-11-18,16:46:58,17:05:22,NA,incomplete,211,shape,1,left,Blue_Triangle_Grid_4.jpg,Red_Triangle_Dots_3.jpg,Green_Plus_Chess_4.jpg,left,719.3250000127591,true,low,false
D7whsHeY,3r15w654wg6vibc4e4w6loevry9lqd,3un61f00h02jf7mdqya1y9ove325rn,D7whsHeY,2020-0188,2020-11-18,16:46:58,17:05:22,NA,incomplete,212,shape,0,left,Red_Plus_Stripes_1.jpg,Green_Plus_Grid_4.jpg,Purple_Star_Dots_1.jpg,left,734.3500000424683,true,low,false
D7whsHeY,3r15w654wg6vibc4e4w6loevry9lqd,3un61f00h02jf7mdqya1y9ove325rn,D7whsHeY,2020-0188,2020-11-18,16:46:58,17:05:22,NA,incomplete,213,shape,1,right,Green_Plus_Chess_2.jpg,Purple_Triangle_Stripes_2.jpg,Blue_Plus_Dots_4.jpg,right,736.8349999887869,true,low,false
D7whsHeY,3r15w654wg6vibc4e4w6loevry9lqd,3un61f00h02jf7mdqya1y9ove325rn,D7whsHeY,2020-0188,2020-11-18,16:46:58,17:05:22,NA,incomplete,214,shape,1,right,Green_Circle_Grid_4.jpg,Blue_Star_Dots_4.jpg,Red_Circle_Chess_2.jpg,right,567.6100000273436,true,low,false
D7whsHeY,3r15w654wg6vibc4e4w6loevry9lqd,3un61f00h02jf7mdqya1y9ove325rn,D7whsHeY,2020-0188,2020-11-18,16:46:58,17:05:22,NA,incomplete,215,shape,1,right,Red_Circle_Chess_3.jpg,Green_Triangle_Stripes_3.jpg,Purple_Circle_Grid_1.jpg,right,714.8099999758415,true,low,false
D7whsHeY,3r15w654wg6vibc4e4w6loevry9lqd,3un61f00h02jf7mdqya1y9ove325rn,D7whsHeY,2020-0188,2020-11-18,16:46:58,17:05:22,NA,incomplete,216,shape,1,right,Blue_Star_Stripes_1.jpg,Red_Plus_Chess_1.jpg,Green_Star_Dots_2.jpg,right,734.7099999897182,true,low,false
D7whsHeY,3r15w654wg6vibc4e4w6loevry9lqd,3un61f00h02jf7mdqya1y9ove325rn,D7whsHeY,2020-0188,2020-11-18,16:46:58,17:05:22,NA,incomplete,217,shape,1,left,Red_Triangle_Grid_4.jpg,Green_Triangle_Stripes_2.jpg,Blue_Circle_Dots_4.jpg,left,587.4300000141375,true,low,false
D7whsHeY,3r15w654wg6vibc4e4w6loevry9lqd,3un61f00h02jf7mdqya1y9ove325rn,D7whsHeY,2020-0188,2020-11-18,16:46:58,17:05:22,NA,incomplete,218,shape,1,right,Green_Triangle_Stripes_2.jpg,Red_Circle_Dots_2.jpg,Purple_Triangle_Grid_4.jpg,right,542.0249999733642,true,low,false
D7whsHeY,3r15w654wg6vibc4e4w6loevry9lqd,3un61f00h02jf7mdqya1y9ove325rn,D7whsHeY,2020-0188,2020-11-18,16:46:58,17:05:22,NA,incomplete,219,shape,0,right,Green_Triangle_Chess_3.jpg,Purple_Plus_Stripes_3.jpg,Blue_Triangle_Grid_2.jpg,right,744.5150000276044,true,low,false
D7whsHeY,3r15w654wg6vibc4e4w6loevry9lqd,3un61f00h02jf7mdqya1y9ove325rn,D7whsHeY,2020-0188,2020-11-18,16:46:58,17:05:22,NA,incomplete,220,number,1,right,Red_Plus_Stripes_3.jpg,Green_Plus_Chess_2.jpg,Purple_Triangle_Dots_3.jpg,left,791.5800000191666,false,low,false
D7whsHeY,3r15w654wg6vibc4e4w6loevry9lqd,3un61f00h02jf7mdqya1y9ove325rn,D7whsHeY,2020-0188,2020-11-18,16:46:58,17:05:22,NA,incomplete,221,number,0,left,Green_Triangle_Chess_4.jpg,Red_Star_Dots_4.jpg,Blue_Triangle_Grid_1.jpg,right,665.6150000053458,false,low,false
D7whsHeY,3r15w654wg6vibc4e4w6loevry9lqd,3un61f00h02jf7mdqya1y9ove325rn,D7whsHeY,2020-0188,2020-11-18,16:46:58,17:05:22,NA,incomplete,222,number,1,left,Purple_Triangle_Stripes_1.jpg,Green_Circle_Chess_1.jpg,Red_Triangle_Dots_4.jpg,left,795.33499997342,true,low,false
D7whsHeY,3r15w654wg6vibc4e4w6loevry9lqd,3un61f00h02jf7mdqya1y9ove325rn,D7whsHeY,2020-0188,2020-11-18,16:46:58,17:05:22,NA,incomplete,223,number,1,right,Green_Star_Stripes_1.jpg,Blue_Star_Grid_3.jpg,Purple_Circle_Chess_1.jpg,right,660.2749999728985,true,low,false
D7whsHeY,3r15w654wg6vibc4e4w6loevry9lqd,3un61f00h02jf7mdqya1y9ove325rn,D7whsHeY,2020-0188,2020-11-18,16:46:58,17:05:22,NA,incomplete,224,number,1,right,Blue_Circle_Dots_2.jpg,Purple_Circle_Grid_1.jpg,Green_Triangle_Stripes_2.jpg,right,884.0349999954924,true,low,false
D7whsHeY,3r15w654wg6vibc4e4w6loevry9lqd,3un61f00h02jf7mdqya1y9ove325rn,D7whsHeY,2020-0188,2020-11-18,16:46:58,17:05:22,NA,incomplete,225,number,1,right,Blue_Circle_Dots_1.jpg,Red_Circle_Chess_3.jpg,Purple_Star_Stripes_1.jpg,left,522.835000010673,false,low,false
D7whsHeY,3r15w654wg6vibc4e4w6loevry9lqd,3un61f00h02jf7mdqya1y9ove325rn,D7whsHeY,2020-0188,2020-11-18,16:46:58,17:05:22,NA,incomplete,226,number,1,left,Green_Star_Chess_2.jpg,Red_Plus_Dots_2.jpg,Purple_Star_Stripes_3.jpg,left,760.2249999763444,true,low,false
D7whsHeY,3r15w654wg6vibc4e4w6loevry9lqd,3un61f00h02jf7mdqya1y9ove325rn,D7whsHeY,2020-0188,2020-11-18,16:46:58,17:05:22,NA,incomplete,227,number,0,left,Purple_Triangle_Dots_4.jpg,Blue_Circle_Chess_4.jpg,Red_Triangle_Grid_1.jpg,left,691.1550000077114,true,low,false
D7whsHeY,3r15w654wg6vibc4e4w6loevry9lqd,3un61f00h02jf7mdqya1y9ove325rn,D7whsHeY,2020-0188,2020-11-18,16:46:58,17:05:22,NA,incomplete,228,number,1,left,Red_Triangle_Grid_4.jpg,Purple_Plus_Chess_4.jpg,Green_Triangle_Dots_3.jpg,left,1195.0850000139326,true,low,false
D7whsHeY,3r15w654wg6vibc4e4w6loevry9lqd,3un61f00h02jf7mdqya1y9ove325rn,D7whsHeY,2020-0188,2020-11-18,16:46:58,17:05:22,NA,incomplete,229,number,1,left,Red_Triangle_Chess_1.jpg,Green_Star_Stripes_1.jpg,Purple_Triangle_Grid_3.jpg,left,723.1899999896996,true,low,false
D7whsHeY,3r15w654wg6vibc4e4w6loevry9lqd,3un61f00h02jf7mdqya1y9ove325rn,D7whsHeY,2020-0188,2020-11-18,16:46:58,17:05:22,NA,incomplete,230,number,1,left,Purple_Circle_Dots_2.jpg,Blue_Star_Grid_2.jpg,Red_Circle_Chess_1.jpg,left,721.4650000096299,true,low,false
D7whsHeY,3r15w654wg6vibc4e4w6loevry9lqd,3un61f00h02jf7mdqya1y9ove325rn,D7whsHeY,2020-0188,2020-11-18,16:46:58,17:05:22,NA,incomplete,231,number,1,right,Red_Star_Chess_2.jpg,Green_Star_Grid_4.jpg,Purple_Circle_Dots_2.jpg,right,911.9449999998324,true,low,false
D7whsHeY,3r15w654wg6vibc4e4w6loevry9lqd,3un61f00h02jf7mdqya1y9ove325rn,D7whsHeY,2020-0188,2020-11-18,16:46:58,17:05:22,NA,incomplete,232,number,1,right,Green_Plus_Stripes_1.jpg,Red_Plus_Grid_4.jpg,Blue_Triangle_Dots_1.jpg,right,900.1800000551157,true,low,false
D7whsHeY,3r15w654wg6vibc4e4w6loevry9lqd,3un61f00h02jf7mdqya1y9ove325rn,D7whsHeY,2020-0188,2020-11-18,16:46:58,17:05:22,NA,incomplete,233,number,1,right,Blue_Circle_Stripes_4.jpg,Green_Circle_Grid_1.jpg,Purple_Triangle_Chess_4.jpg,right,808.6299999849871,true,low,false
D7whsHeY,3r15w654wg6vibc4e4w6loevry9lqd,3un61f00h02jf7mdqya1y9ove325rn,D7whsHeY,2020-0188,2020-11-18,16:46:58,17:05:22,NA,incomplete,234,number,1,left,Red_Circle_Stripes_4.jpg,Purple_Star_Chess_4.jpg,Blue_Circle_Grid_1.jpg,left,795.6300000078045,true,low,false
D7whsHeY,3r15w654wg6vibc4e4w6loevry9lqd,3un61f00h02jf7mdqya1y9ove325rn,D7whsHeY,2020-0188,2020-11-18,16:46:58,17:05:22,NA,incomplete,235,number,1,left,Green_Plus_Grid_3.jpg,Blue_Triangle_Dots_3.jpg,Red_Plus_Stripes_2.jpg,right,567.9150000214577,false,low,false
D7whsHeY,3r15w654wg6vibc4e4w6loevry9lqd,3un61f00h02jf7mdqya1y9ove325rn,D7whsHeY,2020-0188,2020-11-18,16:46:58,17:05:22,NA,incomplete,236,number,1,right,Red_Star_Stripes_3.jpg,Green_Star_Grid_1.jpg,Blue_Circle_Chess_3.jpg,right,937.2649999568239,true,low,false
D7whsHeY,3r15w654wg6vibc4e4w6loevry9lqd,3un61f00h02jf7mdqya1y9ove325rn,D7whsHeY,2020-0188,2020-11-18,16:46:58,17:05:22,NA,incomplete,237,number,0,right,Blue_Plus_Dots_2.jpg,Red_Plus_Chess_4.jpg,Green_Star_Stripes_2.jpg,right,936.4150000037625,true,low,false
D7whsHeY,3r15w654wg6vibc4e4w6loevry9lqd,3un61f00h02jf7mdqya1y9ove325rn,D7whsHeY,2020-0188,2020-11-18,16:46:58,17:05:22,NA,incomplete,238,number,1,right,Purple_Triangle_Stripes_2.jpg,Red_Triangle_Grid_1.jpg,Blue_Star_Chess_2.jpg,right,843.6450000153854,true,low,false
D7whsHeY,3r15w654wg6vibc4e4w6loevry9lqd,3un61f00h02jf7mdqya1y9ove325rn,D7whsHeY,2020-0188,2020-11-18,16:46:58,17:05:22,NA,incomplete,239,number,1,right,Blue_Plus_Chess_4.jpg,Purple_Plus_Stripes_3.jpg,Red_Triangle_Dots_4.jpg,right,953.4499999717809,true,low,false
D7whsHeY,3r15w654wg6vibc4e4w6loevry9lqd,3un61f00h02jf7mdqya1y9ove325rn,D7whsHeY,2020-0188,2020-11-18,16:46:58,17:05:22,NA,NA,instruction example,color,NA,NA,Green_Circle_Grid_3.jpg,Green_Star_Chess_4.jpg,Red_Plus_Grid_1.jpg,NA,NA,NA,NA,undefined
D7whsHeY,3r15w654wg6vibc4e4w6loevry9lqd,3un61f00h02jf7mdqya1y9ove325rn,D7whsHeY,2020-0188,2020-11-18,16:46:58,17:05:22,NA,NA,instruction example,color,NA,NA,Purple_Plus_Stripes_2.jpg,Red_Circle_Stripes_3.jpg,Purple_Triangle_Dots_1.jpg,NA,NA,NA,NA,undefined
D7whsHeY,3r15w654wg6vibc4e4w6loevry9lqd,3un61f00h02jf7mdqya1y9ove325rn,D7whsHeY,2020-0188,2020-11-18,16:46:58,17:05:22,NA,NA,instruction example,color,NA,NA,Purple_Star_Chess_2.jpg,Blue_Star_Grid_4.jpg,Green_Triangle_Stripes_2.jpg,NA,NA,NA,NA,undefined
D7whsHeY,3r15w654wg6vibc4e4w6loevry9lqd,3un61f00h02jf7mdqya1y9ove325rn,D7whsHeY,2020-0188,2020-11-18,16:46:58,17:05:22,NA,NA,instruction example,color,NA,NA,Purple_Star_Dots_3.jpg,Blue_Circle_Stripes_3.jpg,Red_Star_Chess_4.jpg,NA,NA,NA,NA,undefined
D7whsHeY,3r15w654wg6vibc4e4w6loevry9lqd,3un61f00h02jf7mdqya1y9ove325rn,D7whsHeY,2020-0188,2020-11-18,16:46:58,17:05:22,1058807.8600000008,1104236.9349999935,NA,NA,NA,NA,NA,NA,NA,NA,NA,NA,NA,undefined
