workerId,hitId,assignmentId,subject,studyid,exp_date,exp_start,exp_end,time_start,time_end,trial,type,reward_validity,answer,image_top,image_left,image_right,response,response_time,response_acc,volatility,age,race,gender,ethnicity,color,vision,neuro,practice
Tic18u6O,32xn26mty2w7ui75x62r6ind7a7l00,3uouji6mthrkxiy40yo1v32yg4auxq,Tic18u6O,2020-0188,2020-05-21,12:19:03,12:37:23,NA,incomplete,0,number,1,right,Blue_Circle_Grid_4.jpg,Purple_Circle_Stripes_3.jpg,Green_Triangle_Chess_4.jpg,right,1161.6250000079162,true,NA,NA,NA,NA,NA,NA,NA,NA,true
Tic18u6O,32xn26mty2w7ui75x62r6ind7a7l00,3uouji6mthrkxiy40yo1v32yg4auxq,Tic18u6O,2020-0188,2020-05-21,12:19:03,12:37:23,NA,incomplete,1,number,1,right,Red_Circle_Stripes_3.jpg,Green_Circle_Chess_1.jpg,Blue_Plus_Dots_3.jpg,right,1224.6849999937695,true,NA,NA,NA,NA,NA,NA,NA,NA,true
Tic18u6O,32xn26mty2w7ui75x62r6ind7a7l00,3uouji6mthrkxiy40yo1v32yg4auxq,Tic18u6O,2020-0188,2020-05-21,12:19:03,12:37:23,NA,incomplete,2,number,1,right,Red_Star_Dots_3.jpg,Green_Star_Chess_1.jpg,Blue_Circle_Grid_3.jpg,left,890.8050000027288,false,NA,NA,NA,NA,NA,NA,NA,NA,true
Tic18u6O,32xn26mty2w7ui75x62r6ind7a7l00,3uouji6mthrkxiy40yo1v32yg4auxq,Tic18u6O,2020-0188,2020-05-21,12:19:03,12:37:23,NA,incomplete,3,number,1,right,Blue_Triangle_Dots_2.jpg,Red_Triangle_Chess_4.jpg,Purple_Plus_Grid_2.jpg,right,979.8000000009779,true,NA,NA,NA,NA,NA,NA,NA,NA,true
Tic18u6O,32xn26mty2w7ui75x62r6ind7a7l00,3uouji6mthrkxiy40yo1v32yg4auxq,Tic18u6O,2020-0188,2020-05-21,12:19:03,12:37:23,NA,incomplete,4,number,1,right,Red_Triangle_Chess_2.jpg,Blue_Triangle_Stripes_1.jpg,Green_Circle_Dots_2.jpg,right,751.4500000106636,true,NA,NA,NA,NA,NA,NA,NA,NA,true
Tic18u6O,32xn26mty2w7ui75x62r6ind7a7l00,3uouji6mthrkxiy40yo1v32yg4auxq,Tic18u6O,2020-0188,2020-05-21,12:19:03,12:37:23,NA,incomplete,5,number,1,right,Green_Star_Chess_4.jpg,Purple_Star_Stripes_1.jpg,Blue_Circle_Dots_4.jpg,right,650.7200000050943,true,NA,NA,NA,NA,NA,NA,NA,NA,true
Tic18u6O,32xn26mty2w7ui75x62r6ind7a7l00,3uouji6mthrkxiy40yo1v32yg4auxq,Tic18u6O,2020-0188,2020-05-21,12:19:03,12:37:23,NA,incomplete,6,number,1,left,Red_Star_Chess_2.jpg,Blue_Circle_Grid_2.jpg,Green_Star_Stripes_1.jpg,left,725.9150000027148,true,NA,NA,NA,NA,NA,NA,NA,NA,true
Tic18u6O,32xn26mty2w7ui75x62r6ind7a7l00,3uouji6mthrkxiy40yo1v32yg4auxq,Tic18u6O,2020-0188,2020-05-21,12:19:03,12:37:23,NA,incomplete,7,number,1,left,Green_Plus_Dots_3.jpg,Blue_Star_Stripes_3.jpg,Purple_Plus_Chess_2.jpg,left,800.3549999993993,true,NA,NA,NA,NA,NA,NA,NA,NA,true
Tic18u6O,32xn26mty2w7ui75x62r6ind7a7l00,3uouji6mthrkxiy40yo1v32yg4auxq,Tic18u6O,2020-0188,2020-05-21,12:19:03,12:37:23,NA,incomplete,8,number,1,left,Green_Plus_Chess_2.jpg,Red_Triangle_Stripes_2.jpg,Blue_Plus_Dots_3.jpg,left,641.9000000023516,true,NA,NA,NA,NA,NA,NA,NA,NA,true
Tic18u6O,32xn26mty2w7ui75x62r6ind7a7l00,3uouji6mthrkxiy40yo1v32yg4auxq,Tic18u6O,2020-0188,2020-05-21,12:19:03,12:37:23,NA,incomplete,9,number,1,left,Purple_Plus_Chess_1.jpg,Green_Triangle_Grid_1.jpg,Blue_Plus_Dots_3.jpg,left,663.7150000024121,true,NA,NA,NA,NA,NA,NA,NA,NA,true
Tic18u6O,32xn26mty2w7ui75x62r6ind7a7l00,3uouji6mthrkxiy40yo1v32yg4auxq,Tic18u6O,2020-0188,2020-05-21,12:19:03,12:37:23,NA,incomplete,10,number,1,right,Blue_Triangle_Stripes_3.jpg,Purple_Triangle_Grid_4.jpg,Green_Plus_Chess_3.jpg,right,667.3699999955716,true,NA,NA,NA,NA,NA,NA,NA,NA,true
Tic18u6O,32xn26mty2w7ui75x62r6ind7a7l00,3uouji6mthrkxiy40yo1v32yg4auxq,Tic18u6O,2020-0188,2020-05-21,12:19:03,12:37:23,NA,incomplete,11,number,0,left,Green_Triangle_Dots_4.jpg,Blue_Plus_Grid_4.jpg,Red_Triangle_Stripes_1.jpg,left,484.27499999525025,true,NA,NA,NA,NA,NA,NA,NA,NA,true
Tic18u6O,32xn26mty2w7ui75x62r6ind7a7l00,3uouji6mthrkxiy40yo1v32yg4auxq,Tic18u6O,2020-0188,2020-05-21,12:19:03,12:37:23,NA,incomplete,12,number,1,right,Blue_Circle_Grid_4.jpg,Green_Circle_Stripes_3.jpg,Red_Plus_Chess_4.jpg,right,691.5399999998044,true,NA,NA,NA,NA,NA,NA,NA,NA,true
Tic18u6O,32xn26mty2w7ui75x62r6ind7a7l00,3uouji6mthrkxiy40yo1v32yg4auxq,Tic18u6O,2020-0188,2020-05-21,12:19:03,12:37:23,NA,incomplete,13,number,1,left,Red_Star_Dots_2.jpg,Purple_Circle_Chess_2.jpg,Green_Star_Stripes_3.jpg,left,729.4049999909475,true,NA,NA,NA,NA,NA,NA,NA,NA,true
Tic18u6O,32xn26mty2w7ui75x62r6ind7a7l00,3uouji6mthrkxiy40yo1v32yg4auxq,Tic18u6O,2020-0188,2020-05-21,12:19:03,12:37:23,NA,incomplete,14,number,0,left,Purple_Triangle_Chess_1.jpg,Green_Circle_Grid_1.jpg,Blue_Triangle_Dots_4.jpg,left,669.7899999999208,true,NA,NA,NA,NA,NA,NA,NA,NA,true
Tic18u6O,32xn26mty2w7ui75x62r6ind7a7l00,3uouji6mthrkxiy40yo1v32yg4auxq,Tic18u6O,2020-0188,2020-05-21,12:19:03,12:37:23,NA,incomplete,15,number,1,left,Green_Circle_Grid_4.jpg,Blue_Star_Dots_4.jpg,Red_Circle_Chess_2.jpg,right,549.8599999991711,false,NA,NA,NA,NA,NA,NA,NA,NA,true
Tic18u6O,32xn26mty2w7ui75x62r6ind7a7l00,3uouji6mthrkxiy40yo1v32yg4auxq,Tic18u6O,2020-0188,2020-05-21,12:19:03,12:37:23,NA,incomplete,16,number,1,left,Red_Star_Grid_4.jpg,Green_Triangle_Dots_4.jpg,Purple_Star_Chess_3.jpg,left,736.8249999999534,true,NA,NA,NA,NA,NA,NA,NA,NA,true
Tic18u6O,32xn26mty2w7ui75x62r6ind7a7l00,3uouji6mthrkxiy40yo1v32yg4auxq,Tic18u6O,2020-0188,2020-05-21,12:19:03,12:37:23,NA,incomplete,17,number,1,right,Red_Plus_Dots_1.jpg,Purple_Plus_Stripes_2.jpg,Green_Star_Grid_1.jpg,right,549.4950000138488,true,NA,NA,NA,NA,NA,NA,NA,NA,true
Tic18u6O,32xn26mty2w7ui75x62r6ind7a7l00,3uouji6mthrkxiy40yo1v32yg4auxq,Tic18u6O,2020-0188,2020-05-21,12:19:03,12:37:23,NA,incomplete,18,number,0,left,Red_Star_Grid_1.jpg,Purple_Triangle_Chess_1.jpg,Blue_Star_Stripes_3.jpg,left,622.430000003078,true,NA,NA,NA,NA,NA,NA,NA,NA,true
Tic18u6O,32xn26mty2w7ui75x62r6ind7a7l00,3uouji6mthrkxiy40yo1v32yg4auxq,Tic18u6O,2020-0188,2020-05-21,12:19:03,12:37:23,NA,incomplete,19,number,1,left,Purple_Star_Dots_2.jpg,Green_Plus_Grid_2.jpg,Red_Star_Chess_1.jpg,left,598.1299999984913,true,NA,NA,NA,NA,NA,NA,NA,NA,true
Tic18u6O,32xn26mty2w7ui75x62r6ind7a7l00,3uouji6mthrkxiy40yo1v32yg4auxq,Tic18u6O,2020-0188,2020-05-21,12:19:03,12:37:23,NA,incomplete,20,shape,1,right,Red_Plus_Stripes_2.jpg,Purple_Triangle_Chess_2.jpg,Blue_Plus_Grid_1.jpg,right,938.2449999975506,true,NA,NA,NA,NA,NA,NA,NA,NA,true
Tic18u6O,32xn26mty2w7ui75x62r6ind7a7l00,3uouji6mthrkxiy40yo1v32yg4auxq,Tic18u6O,2020-0188,2020-05-21,12:19:03,12:37:23,NA,incomplete,21,shape,1,left,Red_Circle_Dots_4.jpg,Green_Circle_Stripes_2.jpg,Purple_Triangle_Chess_4.jpg,left,940.4150000045775,true,NA,NA,NA,NA,NA,NA,NA,NA,true
Tic18u6O,32xn26mty2w7ui75x62r6ind7a7l00,3uouji6mthrkxiy40yo1v32yg4auxq,Tic18u6O,2020-0188,2020-05-21,12:19:03,12:37:23,NA,incomplete,22,shape,0,left,Red_Circle_Chess_1.jpg,Green_Circle_Stripes_3.jpg,Purple_Star_Grid_1.jpg,left,829.1600000084145,true,NA,NA,NA,NA,NA,NA,NA,NA,true
Tic18u6O,32xn26mty2w7ui75x62r6ind7a7l00,3uouji6mthrkxiy40yo1v32yg4auxq,Tic18u6O,2020-0188,2020-05-21,12:19:03,12:37:23,NA,incomplete,23,shape,1,right,Purple_Circle_Chess_4.jpg,Green_Star_Grid_4.jpg,Red_Circle_Dots_1.jpg,left,591.3449999934528,false,NA,NA,NA,NA,NA,NA,NA,NA,true
Tic18u6O,32xn26mty2w7ui75x62r6ind7a7l00,3uouji6mthrkxiy40yo1v32yg4auxq,Tic18u6O,2020-0188,2020-05-21,12:19:03,12:37:23,NA,incomplete,24,shape,1,right,Green_Star_Grid_2.jpg,Red_Plus_Dots_2.jpg,Purple_Star_Chess_3.jpg,right,1028.3400000043912,true,NA,NA,NA,NA,NA,NA,NA,NA,true
Tic18u6O,32xn26mty2w7ui75x62r6ind7a7l00,3uouji6mthrkxiy40yo1v32yg4auxq,Tic18u6O,2020-0188,2020-05-21,12:19:03,12:37:23,NA,incomplete,25,shape,1,right,Green_Star_Grid_3.jpg,Purple_Plus_Stripes_3.jpg,Red_Star_Chess_4.jpg,right,923.9450000022771,true,NA,NA,NA,NA,NA,NA,NA,NA,true
Tic18u6O,32xn26mty2w7ui75x62r6ind7a7l00,3uouji6mthrkxiy40yo1v32yg4auxq,Tic18u6O,2020-0188,2020-05-21,12:19:03,12:37:23,NA,incomplete,26,shape,0,right,Red_Circle_Chess_3.jpg,Green_Plus_Dots_3.jpg,Purple_Circle_Stripes_4.jpg,right,775.9650000080001,true,NA,NA,NA,NA,NA,NA,NA,NA,true
Tic18u6O,32xn26mty2w7ui75x62r6ind7a7l00,3uouji6mthrkxiy40yo1v32yg4auxq,Tic18u6O,2020-0188,2020-05-21,12:19:03,12:37:23,NA,incomplete,27,shape,1,right,Blue_Circle_Chess_3.jpg,Red_Plus_Grid_3.jpg,Purple_Circle_Dots_4.jpg,left,598.8950000028126,false,NA,NA,NA,NA,NA,NA,NA,NA,true
Tic18u6O,32xn26mty2w7ui75x62r6ind7a7l00,3uouji6mthrkxiy40yo1v32yg4auxq,Tic18u6O,2020-0188,2020-05-21,12:19:03,12:37:23,NA,incomplete,28,shape,1,left,Green_Star_Chess_3.jpg,Purple_Star_Stripes_4.jpg,Blue_Circle_Dots_3.jpg,left,847.1649999992223,true,NA,NA,NA,NA,NA,NA,NA,NA,true
Tic18u6O,32xn26mty2w7ui75x62r6ind7a7l00,3uouji6mthrkxiy40yo1v32yg4auxq,Tic18u6O,2020-0188,2020-05-21,12:19:03,12:37:23,NA,incomplete,29,shape,1,left,Red_Star_Chess_1.jpg,Green_Star_Stripes_4.jpg,Purple_Triangle_Grid_1.jpg,left,937.3199999972712,true,NA,NA,NA,NA,NA,NA,NA,NA,true
Tic18u6O,32xn26mty2w7ui75x62r6ind7a7l00,3uouji6mthrkxiy40yo1v32yg4auxq,Tic18u6O,2020-0188,2020-05-21,12:19:03,12:37:23,NA,incomplete,30,shape,1,right,Purple_Circle_Stripes_2.jpg,Green_Plus_Chess_2.jpg,Red_Circle_Grid_3.jpg,right,763.7849999882746,true,NA,NA,NA,NA,NA,NA,NA,NA,true
Tic18u6O,32xn26mty2w7ui75x62r6ind7a7l00,3uouji6mthrkxiy40yo1v32yg4auxq,Tic18u6O,2020-0188,2020-05-21,12:19:03,12:37:23,NA,incomplete,31,shape,0,left,Red_Triangle_Stripes_2.jpg,Purple_Triangle_Dots_3.jpg,Blue_Plus_Grid_2.jpg,left,684.4600000040373,true,NA,NA,NA,NA,NA,NA,NA,NA,true
Tic18u6O,32xn26mty2w7ui75x62r6ind7a7l00,3uouji6mthrkxiy40yo1v32yg4auxq,Tic18u6O,2020-0188,2020-05-21,12:19:03,12:37:23,NA,incomplete,32,shape,1,left,Red_Triangle_Chess_3.jpg,Green_Triangle_Stripes_1.jpg,Blue_Circle_Dots_3.jpg,left,611.5149999968708,true,NA,NA,NA,NA,NA,NA,NA,NA,true
Tic18u6O,32xn26mty2w7ui75x62r6ind7a7l00,3uouji6mthrkxiy40yo1v32yg4auxq,Tic18u6O,2020-0188,2020-05-21,12:19:03,12:37:23,NA,incomplete,33,shape,1,left,Purple_Triangle_Chess_4.jpg,Red_Triangle_Grid_3.jpg,Blue_Plus_Stripes_4.jpg,left,807.5099999987287,true,NA,NA,NA,NA,NA,NA,NA,NA,true
Tic18u6O,32xn26mty2w7ui75x62r6ind7a7l00,3uouji6mthrkxiy40yo1v32yg4auxq,Tic18u6O,2020-0188,2020-05-21,12:19:03,12:37:23,NA,incomplete,34,shape,1,right,Green_Circle_Chess_1.jpg,Purple_Plus_Grid_1.jpg,Red_Circle_Dots_3.jpg,right,731.8150000064634,true,NA,NA,NA,NA,NA,NA,NA,NA,true
Tic18u6O,32xn26mty2w7ui75x62r6ind7a7l00,3uouji6mthrkxiy40yo1v32yg4auxq,Tic18u6O,2020-0188,2020-05-21,12:19:03,12:37:23,NA,incomplete,35,shape,0,right,Red_Circle_Dots_4.jpg,Purple_Plus_Chess_4.jpg,Blue_Circle_Grid_2.jpg,right,767.45500000834,true,NA,NA,NA,NA,NA,NA,NA,NA,true
Tic18u6O,32xn26mty2w7ui75x62r6ind7a7l00,3uouji6mthrkxiy40yo1v32yg4auxq,Tic18u6O,2020-0188,2020-05-21,12:19:03,12:37:23,NA,incomplete,36,shape,1,left,Red_Star_Grid_1.jpg,Green_Star_Chess_3.jpg,Purple_Plus_Stripes_1.jpg,left,801.7549999931362,true,NA,NA,NA,NA,NA,NA,NA,NA,true
Tic18u6O,32xn26mty2w7ui75x62r6ind7a7l00,3uouji6mthrkxiy40yo1v32yg4auxq,Tic18u6O,2020-0188,2020-05-21,12:19:03,12:37:23,NA,incomplete,37,shape,1,left,Blue_Star_Grid_3.jpg,Purple_Star_Dots_4.jpg,Green_Circle_Chess_3.jpg,left,653.9749999938067,true,NA,NA,NA,NA,NA,NA,NA,NA,true
Tic18u6O,32xn26mty2w7ui75x62r6ind7a7l00,3uouji6mthrkxiy40yo1v32yg4auxq,Tic18u6O,2020-0188,2020-05-21,12:19:03,12:37:23,NA,incomplete,38,shape,1,left,Blue_Star_Chess_2.jpg,Green_Star_Grid_3.jpg,Purple_Circle_Dots_2.jpg,left,458.4000000031665,true,NA,NA,NA,NA,NA,NA,NA,NA,true
Tic18u6O,32xn26mty2w7ui75x62r6ind7a7l00,3uouji6mthrkxiy40yo1v32yg4auxq,Tic18u6O,2020-0188,2020-05-21,12:19:03,12:37:23,NA,incomplete,39,shape,0,right,Green_Circle_Dots_2.jpg,Red_Triangle_Chess_2.jpg,Purple_Circle_Stripes_3.jpg,right,478.44500000064727,true,NA,NA,NA,NA,NA,NA,NA,NA,true
Tic18u6O,32xn26mty2w7ui75x62r6ind7a7l00,3uouji6mthrkxiy40yo1v32yg4auxq,Tic18u6O,2020-0188,2020-05-21,12:19:03,12:37:23,NA,incomplete,0,number,0,left,Purple_Star_Chess_4.jpg,Green_Plus_Grid_4.jpg,Blue_Star_Dots_2.jpg,left,553.9299999945797,true,high,NA,NA,NA,NA,NA,NA,NA,false
Tic18u6O,32xn26mty2w7ui75x62r6ind7a7l00,3uouji6mthrkxiy40yo1v32yg4auxq,Tic18u6O,2020-0188,2020-05-21,12:19:03,12:37:23,NA,incomplete,1,number,1,right,Purple_Circle_Chess_2.jpg,Blue_Circle_Dots_4.jpg,Green_Star_Stripes_2.jpg,right,674.3049999931827,true,high,NA,NA,NA,NA,NA,NA,NA,false
Tic18u6O,32xn26mty2w7ui75x62r6ind7a7l00,3uouji6mthrkxiy40yo1v32yg4auxq,Tic18u6O,2020-0188,2020-05-21,12:19:03,12:37:23,NA,incomplete,2,number,1,left,Purple_Star_Stripes_3.jpg,Green_Triangle_Grid_3.jpg,Red_Star_Chess_4.jpg,left,592.1099999977741,true,high,NA,NA,NA,NA,NA,NA,NA,false
Tic18u6O,32xn26mty2w7ui75x62r6ind7a7l00,3uouji6mthrkxiy40yo1v32yg4auxq,Tic18u6O,2020-0188,2020-05-21,12:19:03,12:37:23,NA,incomplete,3,number,0,right,Purple_Triangle_Grid_4.jpg,Blue_Triangle_Chess_2.jpg,Green_Star_Dots_4.jpg,right,632.6499999995576,true,high,NA,NA,NA,NA,NA,NA,NA,false
Tic18u6O,32xn26mty2w7ui75x62r6ind7a7l00,3uouji6mthrkxiy40yo1v32yg4auxq,Tic18u6O,2020-0188,2020-05-21,12:19:03,12:37:23,NA,incomplete,4,number,1,left,Green_Circle_Grid_1.jpg,Blue_Plus_Dots_1.jpg,Purple_Circle_Stripes_4.jpg,left,605.3049999900395,true,high,NA,NA,NA,NA,NA,NA,NA,false
Tic18u6O,32xn26mty2w7ui75x62r6ind7a7l00,3uouji6mthrkxiy40yo1v32yg4auxq,Tic18u6O,2020-0188,2020-05-21,12:19:03,12:37:23,NA,incomplete,5,number,1,right,Blue_Triangle_Grid_1.jpg,Red_Triangle_Stripes_4.jpg,Green_Star_Dots_1.jpg,right,517.9599999974016,true,high,NA,NA,NA,NA,NA,NA,NA,false
Tic18u6O,32xn26mty2w7ui75x62r6ind7a7l00,3uouji6mthrkxiy40yo1v32yg4auxq,Tic18u6O,2020-0188,2020-05-21,12:19:03,12:37:23,NA,incomplete,6,number,1,left,Red_Plus_Stripes_3.jpg,Blue_Star_Chess_3.jpg,Purple_Plus_Grid_2.jpg,left,528.5149999981513,true,high,NA,NA,NA,NA,NA,NA,NA,false
Tic18u6O,32xn26mty2w7ui75x62r6ind7a7l00,3uouji6mthrkxiy40yo1v32yg4auxq,Tic18u6O,2020-0188,2020-05-21,12:19:03,12:37:23,NA,incomplete,7,number,1,right,Red_Plus_Grid_1.jpg,Green_Plus_Dots_2.jpg,Purple_Star_Chess_1.jpg,right,504.30999998934567,true,high,NA,NA,NA,NA,NA,NA,NA,false
Tic18u6O,32xn26mty2w7ui75x62r6ind7a7l00,3uouji6mthrkxiy40yo1v32yg4auxq,Tic18u6O,2020-0188,2020-05-21,12:19:03,12:37:23,NA,incomplete,8,number,1,left,Blue_Star_Chess_4.jpg,Green_Triangle_Grid_4.jpg,Red_Star_Stripes_2.jpg,left,517.2199999942677,true,high,NA,NA,NA,NA,NA,NA,NA,false
Tic18u6O,32xn26mty2w7ui75x62r6ind7a7l00,3uouji6mthrkxiy40yo1v32yg4auxq,Tic18u6O,2020-0188,2020-05-21,12:19:03,12:37:23,NA,incomplete,9,number,1,left,Purple_Triangle_Stripes_3.jpg,Blue_Star_Chess_3.jpg,Red_Triangle_Dots_2.jpg,left,439.9050000065472,true,high,NA,NA,NA,NA,NA,NA,NA,false
Tic18u6O,32xn26mty2w7ui75x62r6ind7a7l00,3uouji6mthrkxiy40yo1v32yg4auxq,Tic18u6O,2020-0188,2020-05-21,12:19:03,12:37:23,NA,incomplete,10,shape,1,left,Purple_Triangle_Dots_1.jpg,Green_Triangle_Grid_3.jpg,Red_Star_Stripes_1.jpg,right,536.2900000036461,false,high,NA,NA,NA,NA,NA,NA,NA,false
Tic18u6O,32xn26mty2w7ui75x62r6ind7a7l00,3uouji6mthrkxiy40yo1v32yg4auxq,Tic18u6O,2020-0188,2020-05-21,12:19:03,12:37:23,NA,incomplete,11,shape,1,right,Green_Plus_Stripes_4.jpg,Purple_Star_Chess_4.jpg,Blue_Plus_Dots_1.jpg,left,485.51500000758097,false,high,NA,NA,NA,NA,NA,NA,NA,false
Tic18u6O,32xn26mty2w7ui75x62r6ind7a7l00,3uouji6mthrkxiy40yo1v32yg4auxq,Tic18u6O,2020-0188,2020-05-21,12:19:03,12:37:23,NA,incomplete,12,shape,1,left,Green_Plus_Stripes_2.jpg,Blue_Plus_Grid_3.jpg,Red_Star_Chess_2.jpg,left,612.8800000005867,true,high,NA,NA,NA,NA,NA,NA,NA,false
Tic18u6O,32xn26mty2w7ui75x62r6ind7a7l00,3uouji6mthrkxiy40yo1v32yg4auxq,Tic18u6O,2020-0188,2020-05-21,12:19:03,12:37:23,NA,incomplete,13,shape,0,left,Purple_Plus_Stripes_1.jpg,Blue_Plus_Grid_3.jpg,Green_Star_Chess_1.jpg,left,457.06000000063796,true,high,NA,NA,NA,NA,NA,NA,NA,false
Tic18u6O,32xn26mty2w7ui75x62r6ind7a7l00,3uouji6mthrkxiy40yo1v32yg4auxq,Tic18u6O,2020-0188,2020-05-21,12:19:03,12:37:23,NA,incomplete,14,shape,1,left,Green_Plus_Grid_2.jpg,Purple_Plus_Chess_1.jpg,Red_Triangle_Dots_2.jpg,left,560.0099999865051,true,high,NA,NA,NA,NA,NA,NA,NA,false
Tic18u6O,32xn26mty2w7ui75x62r6ind7a7l00,3uouji6mthrkxiy40yo1v32yg4auxq,Tic18u6O,2020-0188,2020-05-21,12:19:03,12:37:23,NA,incomplete,15,shape,1,left,Green_Plus_Chess_3.jpg,Blue_Plus_Dots_1.jpg,Red_Circle_Grid_3.jpg,right,430.08499999996275,false,high,NA,NA,NA,NA,NA,NA,NA,false
Tic18u6O,32xn26mty2w7ui75x62r6ind7a7l00,3uouji6mthrkxiy40yo1v32yg4auxq,Tic18u6O,2020-0188,2020-05-21,12:19:03,12:37:23,NA,incomplete,16,shape,1,left,Blue_Star_Chess_3.jpg,Green_Star_Stripes_1.jpg,Red_Circle_Grid_3.jpg,right,784.8999999987427,false,high,NA,NA,NA,NA,NA,NA,NA,false
Tic18u6O,32xn26mty2w7ui75x62r6ind7a7l00,3uouji6mthrkxiy40yo1v32yg4auxq,Tic18u6O,2020-0188,2020-05-21,12:19:03,12:37:23,NA,incomplete,17,shape,1,left,Red_Star_Dots_2.jpg,Green_Star_Chess_4.jpg,Blue_Circle_Grid_2.jpg,left,544.4750000024214,true,high,NA,NA,NA,NA,NA,NA,NA,false
Tic18u6O,32xn26mty2w7ui75x62r6ind7a7l00,3uouji6mthrkxiy40yo1v32yg4auxq,Tic18u6O,2020-0188,2020-05-21,12:19:03,12:37:23,NA,incomplete,18,shape,1,right,Blue_Triangle_Chess_1.jpg,Green_Plus_Stripes_1.jpg,Red_Triangle_Grid_4.jpg,right,877.665000007255,true,high,NA,NA,NA,NA,NA,NA,NA,false
Tic18u6O,32xn26mty2w7ui75x62r6ind7a7l00,3uouji6mthrkxiy40yo1v32yg4auxq,Tic18u6O,2020-0188,2020-05-21,12:19:03,12:37:23,NA,incomplete,19,shape,1,left,Green_Circle_Dots_4.jpg,Purple_Circle_Stripes_2.jpg,Red_Triangle_Chess_4.jpg,left,566.8300000106683,true,high,NA,NA,NA,NA,NA,NA,NA,false
Tic18u6O,32xn26mty2w7ui75x62r6ind7a7l00,3uouji6mthrkxiy40yo1v32yg4auxq,Tic18u6O,2020-0188,2020-05-21,12:19:03,12:37:23,NA,incomplete,20,number,0,right,Purple_Star_Grid_1.jpg,Green_Star_Chess_4.jpg,Blue_Circle_Dots_1.jpg,right,481.0049999941839,true,high,NA,NA,NA,NA,NA,NA,NA,false
Tic18u6O,32xn26mty2w7ui75x62r6ind7a7l00,3uouji6mthrkxiy40yo1v32yg4auxq,Tic18u6O,2020-0188,2020-05-21,12:19:03,12:37:23,NA,incomplete,21,number,1,right,Purple_Triangle_Dots_1.jpg,Blue_Triangle_Chess_4.jpg,Green_Star_Stripes_1.jpg,left,575.5400000052759,false,high,NA,NA,NA,NA,NA,NA,NA,false
Tic18u6O,32xn26mty2w7ui75x62r6ind7a7l00,3uouji6mthrkxiy40yo1v32yg4auxq,Tic18u6O,2020-0188,2020-05-21,12:19:03,12:37:23,NA,incomplete,22,number,0,right,Blue_Circle_Dots_4.jpg,Green_Circle_Stripes_3.jpg,Purple_Plus_Chess_4.jpg,right,535.3450000111479,true,high,NA,NA,NA,NA,NA,NA,NA,false
Tic18u6O,32xn26mty2w7ui75x62r6ind7a7l00,3uouji6mthrkxiy40yo1v32yg4auxq,Tic18u6O,2020-0188,2020-05-21,12:19:03,12:37:23,NA,incomplete,23,number,0,left,Blue_Circle_Dots_3.jpg,Green_Star_Chess_3.jpg,Red_Circle_Grid_4.jpg,left,588.2799999963026,true,high,NA,NA,NA,NA,NA,NA,NA,false
Tic18u6O,32xn26mty2w7ui75x62r6ind7a7l00,3uouji6mthrkxiy40yo1v32yg4auxq,Tic18u6O,2020-0188,2020-05-21,12:19:03,12:37:23,NA,incomplete,24,number,1,right,Green_Plus_Dots_3.jpg,Purple_Plus_Stripes_2.jpg,Red_Triangle_Grid_3.jpg,left,497.60499999683816,false,high,NA,NA,NA,NA,NA,NA,NA,false
Tic18u6O,32xn26mty2w7ui75x62r6ind7a7l00,3uouji6mthrkxiy40yo1v32yg4auxq,Tic18u6O,2020-0188,2020-05-21,12:19:03,12:37:23,NA,incomplete,25,number,1,left,Green_Star_Stripes_3.jpg,Purple_Plus_Chess_3.jpg,Red_Star_Grid_2.jpg,left,517.9350000107661,true,high,NA,NA,NA,NA,NA,NA,NA,false
Tic18u6O,32xn26mty2w7ui75x62r6ind7a7l00,3uouji6mthrkxiy40yo1v32yg4auxq,Tic18u6O,2020-0188,2020-05-21,12:19:03,12:37:23,NA,incomplete,26,number,1,left,Blue_Triangle_Grid_1.jpg,Purple_Star_Stripes_1.jpg,Red_Triangle_Dots_4.jpg,left,481.9450000068173,true,high,NA,NA,NA,NA,NA,NA,NA,false
Tic18u6O,32xn26mty2w7ui75x62r6ind7a7l00,3uouji6mthrkxiy40yo1v32yg4auxq,Tic18u6O,2020-0188,2020-05-21,12:19:03,12:37:23,NA,incomplete,27,number,1,right,Purple_Circle_Stripes_1.jpg,Blue_Circle_Chess_4.jpg,Green_Plus_Dots_1.jpg,left,426.06500000692904,false,high,NA,NA,NA,NA,NA,NA,NA,false
Tic18u6O,32xn26mty2w7ui75x62r6ind7a7l00,3uouji6mthrkxiy40yo1v32yg4auxq,Tic18u6O,2020-0188,2020-05-21,12:19:03,12:37:23,NA,incomplete,28,number,1,left,Red_Star_Dots_1.jpg,Blue_Circle_Stripes_1.jpg,Purple_Star_Chess_2.jpg,left,546.7800000042189,true,high,NA,NA,NA,NA,NA,NA,NA,false
Tic18u6O,32xn26mty2w7ui75x62r6ind7a7l00,3uouji6mthrkxiy40yo1v32yg4auxq,Tic18u6O,2020-0188,2020-05-21,12:19:03,12:37:23,NA,incomplete,29,number,1,right,Purple_Triangle_Chess_2.jpg,Blue_Triangle_Dots_3.jpg,Green_Plus_Grid_2.jpg,left,476.5999999945052,false,high,NA,NA,NA,NA,NA,NA,NA,false
Tic18u6O,32xn26mty2w7ui75x62r6ind7a7l00,3uouji6mthrkxiy40yo1v32yg4auxq,Tic18u6O,2020-0188,2020-05-21,12:19:03,12:37:23,NA,incomplete,30,shape,1,right,Purple_Star_Grid_3.jpg,Green_Plus_Dots_3.jpg,Blue_Star_Stripes_1.jpg,left,428.1749999936437,false,high,NA,NA,NA,NA,NA,NA,NA,false
Tic18u6O,32xn26mty2w7ui75x62r6ind7a7l00,3uouji6mthrkxiy40yo1v32yg4auxq,Tic18u6O,2020-0188,2020-05-21,12:19:03,12:37:23,NA,incomplete,31,shape,1,right,Green_Star_Dots_1.jpg,Red_Triangle_Stripes_1.jpg,Blue_Star_Grid_2.jpg,right,595.5799999937881,true,high,NA,NA,NA,NA,NA,NA,NA,false
Tic18u6O,32xn26mty2w7ui75x62r6ind7a7l00,3uouji6mthrkxiy40yo1v32yg4auxq,Tic18u6O,2020-0188,2020-05-21,12:19:03,12:37:23,NA,incomplete,32,shape,1,right,Red_Star_Grid_1.jpg,Blue_Plus_Dots_1.jpg,Green_Star_Stripes_3.jpg,right,539.1299999901094,true,high,NA,NA,NA,NA,NA,NA,NA,false
Tic18u6O,32xn26mty2w7ui75x62r6ind7a7l00,3uouji6mthrkxiy40yo1v32yg4auxq,Tic18u6O,2020-0188,2020-05-21,12:19:03,12:37:23,NA,incomplete,33,shape,1,left,Purple_Star_Chess_3.jpg,Red_Star_Stripes_2.jpg,Green_Triangle_Grid_3.jpg,left,543.9550000010058,true,high,NA,NA,NA,NA,NA,NA,NA,false
Tic18u6O,32xn26mty2w7ui75x62r6ind7a7l00,3uouji6mthrkxiy40yo1v32yg4auxq,Tic18u6O,2020-0188,2020-05-21,12:19:03,12:37:23,NA,incomplete,34,shape,1,right,Green_Circle_Grid_3.jpg,Blue_Plus_Chess_3.jpg,Purple_Circle_Stripes_1.jpg,left,480.21500000322703,false,high,NA,NA,NA,NA,NA,NA,NA,false
Tic18u6O,32xn26mty2w7ui75x62r6ind7a7l00,3uouji6mthrkxiy40yo1v32yg4auxq,Tic18u6O,2020-0188,2020-05-21,12:19:03,12:37:23,NA,incomplete,35,shape,1,left,Purple_Star_Dots_3.jpg,Red_Star_Chess_4.jpg,Green_Circle_Grid_3.jpg,left,570.3999999968801,true,high,NA,NA,NA,NA,NA,NA,NA,false
Tic18u6O,32xn26mty2w7ui75x62r6ind7a7l00,3uouji6mthrkxiy40yo1v32yg4auxq,Tic18u6O,2020-0188,2020-05-21,12:19:03,12:37:23,NA,incomplete,36,shape,1,right,Red_Triangle_Grid_2.jpg,Blue_Circle_Stripes_2.jpg,Purple_Triangle_Dots_4.jpg,right,532.999999995809,true,high,NA,NA,NA,NA,NA,NA,NA,false
Tic18u6O,32xn26mty2w7ui75x62r6ind7a7l00,3uouji6mthrkxiy40yo1v32yg4auxq,Tic18u6O,2020-0188,2020-05-21,12:19:03,12:37:23,NA,incomplete,37,shape,1,left,Red_Plus_Stripes_2.jpg,Purple_Plus_Grid_1.jpg,Green_Star_Chess_2.jpg,left,504.1499999933876,true,high,NA,NA,NA,NA,NA,NA,NA,false
Tic18u6O,32xn26mty2w7ui75x62r6ind7a7l00,3uouji6mthrkxiy40yo1v32yg4auxq,Tic18u6O,2020-0188,2020-05-21,12:19:03,12:37:23,NA,incomplete,38,shape,1,left,Red_Triangle_Dots_1.jpg,Blue_Triangle_Chess_3.jpg,Purple_Star_Stripes_1.jpg,left,534.3049999937648,true,high,NA,NA,NA,NA,NA,NA,NA,false
Tic18u6O,32xn26mty2w7ui75x62r6ind7a7l00,3uouji6mthrkxiy40yo1v32yg4auxq,Tic18u6O,2020-0188,2020-05-21,12:19:03,12:37:23,NA,incomplete,39,shape,1,left,Green_Triangle_Grid_1.jpg,Purple_Triangle_Dots_4.jpg,Blue_Star_Chess_1.jpg,left,449.9900000082562,true,high,NA,NA,NA,NA,NA,NA,NA,false
Tic18u6O,32xn26mty2w7ui75x62r6ind7a7l00,3uouji6mthrkxiy40yo1v32yg4auxq,Tic18u6O,2020-0188,2020-05-21,12:19:03,12:37:23,NA,incomplete,40,number,0,right,Green_Circle_Stripes_3.jpg,Blue_Circle_Chess_4.jpg,Red_Star_Dots_3.jpg,left,523.6299999960465,false,high,NA,NA,NA,NA,NA,NA,NA,false
Tic18u6O,32xn26mty2w7ui75x62r6ind7a7l00,3uouji6mthrkxiy40yo1v32yg4auxq,Tic18u6O,2020-0188,2020-05-21,12:19:03,12:37:23,NA,incomplete,41,number,1,right,Purple_Triangle_Grid_2.jpg,Blue_Triangle_Stripes_3.jpg,Red_Plus_Chess_2.jpg,left,445.68999999319203,false,high,NA,NA,NA,NA,NA,NA,NA,false
Tic18u6O,32xn26mty2w7ui75x62r6ind7a7l00,3uouji6mthrkxiy40yo1v32yg4auxq,Tic18u6O,2020-0188,2020-05-21,12:19:03,12:37:23,NA,incomplete,42,number,1,left,Red_Star_Stripes_4.jpg,Purple_Triangle_Grid_4.jpg,Green_Star_Chess_3.jpg,left,521.8500000046333,true,high,NA,NA,NA,NA,NA,NA,NA,false
Tic18u6O,32xn26mty2w7ui75x62r6ind7a7l00,3uouji6mthrkxiy40yo1v32yg4auxq,Tic18u6O,2020-0188,2020-05-21,12:19:03,12:37:23,NA,incomplete,43,number,0,right,Green_Star_Grid_3.jpg,Red_Star_Chess_1.jpg,Purple_Triangle_Stripes_3.jpg,right,474.59000001254026,true,high,NA,NA,NA,NA,NA,NA,NA,false
Tic18u6O,32xn26mty2w7ui75x62r6ind7a7l00,3uouji6mthrkxiy40yo1v32yg4auxq,Tic18u6O,2020-0188,2020-05-21,12:19:03,12:37:23,NA,incomplete,44,number,1,left,Blue_Plus_Chess_3.jpg,Red_Triangle_Stripes_3.jpg,Purple_Plus_Dots_4.jpg,left,450.4250000027241,true,high,NA,NA,NA,NA,NA,NA,NA,false
Tic18u6O,32xn26mty2w7ui75x62r6ind7a7l00,3uouji6mthrkxiy40yo1v32yg4auxq,Tic18u6O,2020-0188,2020-05-21,12:19:03,12:37:23,NA,incomplete,45,number,1,left,Purple_Triangle_Dots_2.jpg,Green_Circle_Grid_2.jpg,Blue_Triangle_Stripes_1.jpg,right,548.7500000017462,false,high,NA,NA,NA,NA,NA,NA,NA,false
Tic18u6O,32xn26mty2w7ui75x62r6ind7a7l00,3uouji6mthrkxiy40yo1v32yg4auxq,Tic18u6O,2020-0188,2020-05-21,12:19:03,12:37:23,NA,incomplete,46,number,1,left,Red_Star_Dots_2.jpg,Blue_Plus_Chess_2.jpg,Green_Star_Stripes_1.jpg,left,468.6349999974482,true,high,NA,NA,NA,NA,NA,NA,NA,false
Tic18u6O,32xn26mty2w7ui75x62r6ind7a7l00,3uouji6mthrkxiy40yo1v32yg4auxq,Tic18u6O,2020-0188,2020-05-21,12:19:03,12:37:23,NA,incomplete,47,number,1,right,Red_Triangle_Grid_3.jpg,Purple_Triangle_Chess_2.jpg,Blue_Star_Dots_3.jpg,right,602.6049999927636,true,high,NA,NA,NA,NA,NA,NA,NA,false
Tic18u6O,32xn26mty2w7ui75x62r6ind7a7l00,3uouji6mthrkxiy40yo1v32yg4auxq,Tic18u6O,2020-0188,2020-05-21,12:19:03,12:37:23,NA,incomplete,48,number,1,right,Green_Triangle_Grid_3.jpg,Red_Triangle_Dots_4.jpg,Blue_Circle_Stripes_3.jpg,right,643.3749999996508,true,high,NA,NA,NA,NA,NA,NA,NA,false
Tic18u6O,32xn26mty2w7ui75x62r6ind7a7l00,3uouji6mthrkxiy40yo1v32yg4auxq,Tic18u6O,2020-0188,2020-05-21,12:19:03,12:37:23,NA,incomplete,49,number,1,left,Green_Star_Dots_3.jpg,Blue_Triangle_Grid_3.jpg,Red_Star_Chess_1.jpg,left,374.2000000056578,true,high,NA,NA,NA,NA,NA,NA,NA,false
Tic18u6O,32xn26mty2w7ui75x62r6ind7a7l00,3uouji6mthrkxiy40yo1v32yg4auxq,Tic18u6O,2020-0188,2020-05-21,12:19:03,12:37:23,NA,incomplete,50,shape,0,left,Red_Plus_Dots_3.jpg,Green_Plus_Stripes_4.jpg,Purple_Triangle_Chess_3.jpg,right,400.0450000021374,false,high,NA,NA,NA,NA,NA,NA,NA,false
Tic18u6O,32xn26mty2w7ui75x62r6ind7a7l00,3uouji6mthrkxiy40yo1v32yg4auxq,Tic18u6O,2020-0188,2020-05-21,12:19:03,12:37:23,NA,incomplete,51,shape,1,right,Green_Star_Stripes_4.jpg,Purple_Plus_Chess_4.jpg,Red_Star_Dots_3.jpg,left,388.57999999891035,false,high,NA,NA,NA,NA,NA,NA,NA,false
Tic18u6O,32xn26mty2w7ui75x62r6ind7a7l00,3uouji6mthrkxiy40yo1v32yg4auxq,Tic18u6O,2020-0188,2020-05-21,12:19:03,12:37:23,NA,incomplete,52,shape,1,left,Purple_Star_Grid_3.jpg,Red_Star_Dots_1.jpg,Blue_Circle_Chess_3.jpg,left,523.4900000068592,true,high,NA,NA,NA,NA,NA,NA,NA,false
Tic18u6O,32xn26mty2w7ui75x62r6ind7a7l00,3uouji6mthrkxiy40yo1v32yg4auxq,Tic18u6O,2020-0188,2020-05-21,12:19:03,12:37:23,NA,incomplete,53,shape,1,left,Purple_Circle_Stripes_2.jpg,Green_Circle_Chess_4.jpg,Blue_Plus_Grid_2.jpg,left,468.4549999947194,true,high,NA,NA,NA,NA,NA,NA,NA,false
Tic18u6O,32xn26mty2w7ui75x62r6ind7a7l00,3uouji6mthrkxiy40yo1v32yg4auxq,Tic18u6O,2020-0188,2020-05-21,12:19:03,12:37:23,NA,incomplete,54,shape,1,right,Red_Star_Stripes_3.jpg,Blue_Plus_Chess_3.jpg,Green_Star_Grid_4.jpg,left,496.98999999964144,false,high,NA,NA,NA,NA,NA,NA,NA,false
Tic18u6O,32xn26mty2w7ui75x62r6ind7a7l00,3uouji6mthrkxiy40yo1v32yg4auxq,Tic18u6O,2020-0188,2020-05-21,12:19:03,12:37:23,NA,incomplete,55,shape,1,left,Purple_Star_Stripes_4.jpg,Blue_Star_Grid_2.jpg,Green_Plus_Chess_4.jpg,right,481.01999999198597,false,high,NA,NA,NA,NA,NA,NA,NA,false
Tic18u6O,32xn26mty2w7ui75x62r6ind7a7l00,3uouji6mthrkxiy40yo1v32yg4auxq,Tic18u6O,2020-0188,2020-05-21,12:19:03,12:37:23,NA,incomplete,56,shape,1,left,Blue_Star_Grid_4.jpg,Red_Star_Chess_2.jpg,Green_Circle_Stripes_4.jpg,left,510.73000000906177,true,high,NA,NA,NA,NA,NA,NA,NA,false
Tic18u6O,32xn26mty2w7ui75x62r6ind7a7l00,3uouji6mthrkxiy40yo1v32yg4auxq,Tic18u6O,2020-0188,2020-05-21,12:19:03,12:37:23,NA,incomplete,57,shape,1,left,Blue_Star_Chess_3.jpg,Red_Star_Stripes_2.jpg,Green_Triangle_Dots_3.jpg,left,456.7349999997532,true,high,NA,NA,NA,NA,NA,NA,NA,false
Tic18u6O,32xn26mty2w7ui75x62r6ind7a7l00,3uouji6mthrkxiy40yo1v32yg4auxq,Tic18u6O,2020-0188,2020-05-21,12:19:03,12:37:23,NA,incomplete,58,shape,0,right,Red_Star_Stripes_4.jpg,Green_Circle_Dots_4.jpg,Blue_Star_Chess_1.jpg,right,516.5750000014668,true,high,NA,NA,NA,NA,NA,NA,NA,false
Tic18u6O,32xn26mty2w7ui75x62r6ind7a7l00,3uouji6mthrkxiy40yo1v32yg4auxq,Tic18u6O,2020-0188,2020-05-21,12:19:03,12:37:23,NA,incomplete,59,shape,1,right,Red_Plus_Grid_4.jpg,Green_Star_Dots_4.jpg,Purple_Plus_Stripes_1.jpg,left,427.9499999975087,false,high,NA,NA,NA,NA,NA,NA,NA,false
Tic18u6O,32xn26mty2w7ui75x62r6ind7a7l00,3uouji6mthrkxiy40yo1v32yg4auxq,Tic18u6O,2020-0188,2020-05-21,12:19:03,12:37:23,NA,incomplete,60,number,1,right,Red_Plus_Grid_4.jpg,Blue_Plus_Dots_2.jpg,Purple_Triangle_Stripes_4.jpg,left,696.0200000030454,false,high,NA,NA,NA,NA,NA,NA,NA,false
Tic18u6O,32xn26mty2w7ui75x62r6ind7a7l00,3uouji6mthrkxiy40yo1v32yg4auxq,Tic18u6O,2020-0188,2020-05-21,12:19:03,12:37:23,NA,incomplete,61,number,0,right,Red_Circle_Chess_1.jpg,Green_Circle_Dots_2.jpg,Purple_Triangle_Stripes_1.jpg,left,477.39000000001397,false,high,NA,NA,NA,NA,NA,NA,NA,false
Tic18u6O,32xn26mty2w7ui75x62r6ind7a7l00,3uouji6mthrkxiy40yo1v32yg4auxq,Tic18u6O,2020-0188,2020-05-21,12:19:03,12:37:23,NA,incomplete,62,number,0,left,Red_Star_Dots_3.jpg,Green_Circle_Stripes_3.jpg,Purple_Star_Grid_2.jpg,left,582.0399999938672,true,high,NA,NA,NA,NA,NA,NA,NA,false
Tic18u6O,32xn26mty2w7ui75x62r6ind7a7l00,3uouji6mthrkxiy40yo1v32yg4auxq,Tic18u6O,2020-0188,2020-05-21,12:19:03,12:37:23,NA,incomplete,63,number,1,right,Purple_Plus_Chess_1.jpg,Red_Plus_Grid_2.jpg,Blue_Triangle_Dots_1.jpg,left,487.7100000012433,false,high,NA,NA,NA,NA,NA,NA,NA,false
Tic18u6O,32xn26mty2w7ui75x62r6ind7a7l00,3uouji6mthrkxiy40yo1v32yg4auxq,Tic18u6O,2020-0188,2020-05-21,12:19:03,12:37:23,NA,incomplete,64,number,1,right,Red_Circle_Grid_3.jpg,Green_Circle_Dots_4.jpg,Blue_Star_Chess_3.jpg,left,439.35500000952743,false,high,NA,NA,NA,NA,NA,NA,NA,false
Tic18u6O,32xn26mty2w7ui75x62r6ind7a7l00,3uouji6mthrkxiy40yo1v32yg4auxq,Tic18u6O,2020-0188,2020-05-21,12:19:03,12:37:23,NA,incomplete,65,number,0,left,Purple_Circle_Dots_4.jpg,Blue_Plus_Stripes_4.jpg,Red_Circle_Grid_2.jpg,left,630.2699999941979,true,high,NA,NA,NA,NA,NA,NA,NA,false
Tic18u6O,32xn26mty2w7ui75x62r6ind7a7l00,3uouji6mthrkxiy40yo1v32yg4auxq,Tic18u6O,2020-0188,2020-05-21,12:19:03,12:37:23,NA,incomplete,66,number,1,left,Blue_Plus_Dots_1.jpg,Red_Star_Stripes_1.jpg,Purple_Plus_Grid_2.jpg,left,487.6150000054622,true,high,NA,NA,NA,NA,NA,NA,NA,false
Tic18u6O,32xn26mty2w7ui75x62r6ind7a7l00,3uouji6mthrkxiy40yo1v32yg4auxq,Tic18u6O,2020-0188,2020-05-21,12:19:03,12:37:23,NA,incomplete,67,number,1,left,Red_Circle_Stripes_3.jpg,Blue_Triangle_Grid_3.jpg,Purple_Circle_Dots_2.jpg,right,715.7450000086101,false,high,NA,NA,NA,NA,NA,NA,NA,false
Tic18u6O,32xn26mty2w7ui75x62r6ind7a7l00,3uouji6mthrkxiy40yo1v32yg4auxq,Tic18u6O,2020-0188,2020-05-21,12:19:03,12:37:23,NA,incomplete,68,number,1,left,Green_Circle_Stripes_4.jpg,Blue_Star_Grid_4.jpg,Red_Circle_Dots_2.jpg,left,552.9099999985192,true,high,NA,NA,NA,NA,NA,NA,NA,false
Tic18u6O,32xn26mty2w7ui75x62r6ind7a7l00,3uouji6mthrkxiy40yo1v32yg4auxq,Tic18u6O,2020-0188,2020-05-21,12:19:03,12:37:23,NA,incomplete,69,number,1,right,Green_Plus_Grid_3.jpg,Purple_Plus_Dots_4.jpg,Red_Triangle_Stripes_3.jpg,right,556.9549999927403,true,high,NA,NA,NA,NA,NA,NA,NA,false
Tic18u6O,32xn26mty2w7ui75x62r6ind7a7l00,3uouji6mthrkxiy40yo1v32yg4auxq,Tic18u6O,2020-0188,2020-05-21,12:19:03,12:37:23,NA,incomplete,70,shape,1,left,Purple_Triangle_Stripes_3.jpg,Blue_Triangle_Chess_4.jpg,Green_Plus_Grid_3.jpg,right,473.2099999964703,false,high,NA,NA,NA,NA,NA,NA,NA,false
Tic18u6O,32xn26mty2w7ui75x62r6ind7a7l00,3uouji6mthrkxiy40yo1v32yg4auxq,Tic18u6O,2020-0188,2020-05-21,12:19:03,12:37:23,NA,incomplete,71,shape,1,right,Red_Plus_Stripes_1.jpg,Green_Triangle_Grid_1.jpg,Purple_Plus_Dots_3.jpg,right,682.8249999962281,true,high,NA,NA,NA,NA,NA,NA,NA,false
Tic18u6O,32xn26mty2w7ui75x62r6ind7a7l00,3uouji6mthrkxiy40yo1v32yg4auxq,Tic18u6O,2020-0188,2020-05-21,12:19:03,12:37:23,NA,incomplete,72,shape,1,left,Blue_Triangle_Grid_1.jpg,Green_Triangle_Dots_4.jpg,Red_Plus_Stripes_1.jpg,left,690.3199999942444,true,high,NA,NA,NA,NA,NA,NA,NA,false
Tic18u6O,32xn26mty2w7ui75x62r6ind7a7l00,3uouji6mthrkxiy40yo1v32yg4auxq,Tic18u6O,2020-0188,2020-05-21,12:19:03,12:37:23,NA,incomplete,73,shape,1,right,Purple_Star_Stripes_3.jpg,Green_Plus_Chess_3.jpg,Red_Star_Dots_1.jpg,right,625.1350000093225,true,high,NA,NA,NA,NA,NA,NA,NA,false
Tic18u6O,32xn26mty2w7ui75x62r6ind7a7l00,3uouji6mthrkxiy40yo1v32yg4auxq,Tic18u6O,2020-0188,2020-05-21,12:19:03,12:37:23,NA,incomplete,74,shape,0,right,Green_Triangle_Stripes_3.jpg,Blue_Circle_Grid_3.jpg,Red_Triangle_Chess_1.jpg,right,781.3800000003539,true,high,NA,NA,NA,NA,NA,NA,NA,false
Tic18u6O,32xn26mty2w7ui75x62r6ind7a7l00,3uouji6mthrkxiy40yo1v32yg4auxq,Tic18u6O,2020-0188,2020-05-21,12:19:03,12:37:23,NA,incomplete,75,shape,1,left,Purple_Plus_Chess_4.jpg,Blue_Plus_Grid_1.jpg,Green_Triangle_Dots_4.jpg,right,593.8199999945937,false,high,NA,NA,NA,NA,NA,NA,NA,false
Tic18u6O,32xn26mty2w7ui75x62r6ind7a7l00,3uouji6mthrkxiy40yo1v32yg4auxq,Tic18u6O,2020-0188,2020-05-21,12:19:03,12:37:23,NA,incomplete,76,shape,0,left,Red_Plus_Stripes_2.jpg,Purple_Plus_Chess_4.jpg,Blue_Star_Grid_2.jpg,left,597.9300000035437,true,high,NA,NA,NA,NA,NA,NA,NA,false
Tic18u6O,32xn26mty2w7ui75x62r6ind7a7l00,3uouji6mthrkxiy40yo1v32yg4auxq,Tic18u6O,2020-0188,2020-05-21,12:19:03,12:37:23,NA,incomplete,77,shape,1,left,Purple_Plus_Dots_3.jpg,Green_Plus_Grid_4.jpg,Blue_Circle_Chess_3.jpg,right,525.0950000045123,false,high,NA,NA,NA,NA,NA,NA,NA,false
Tic18u6O,32xn26mty2w7ui75x62r6ind7a7l00,3uouji6mthrkxiy40yo1v32yg4auxq,Tic18u6O,2020-0188,2020-05-21,12:19:03,12:37:23,NA,incomplete,78,shape,1,left,Green_Triangle_Stripes_4.jpg,Purple_Triangle_Grid_2.jpg,Blue_Star_Dots_4.jpg,left,606.870000003255,true,high,NA,NA,NA,NA,NA,NA,NA,false
Tic18u6O,32xn26mty2w7ui75x62r6ind7a7l00,3uouji6mthrkxiy40yo1v32yg4auxq,Tic18u6O,2020-0188,2020-05-21,12:19:03,12:37:23,NA,incomplete,79,shape,1,left,Purple_Star_Grid_2.jpg,Red_Star_Dots_1.jpg,Green_Plus_Chess_2.jpg,left,884.6749999938766,true,high,NA,NA,NA,NA,NA,NA,NA,false
Tic18u6O,32xn26mty2w7ui75x62r6ind7a7l00,3uouji6mthrkxiy40yo1v32yg4auxq,Tic18u6O,2020-0188,2020-05-21,12:19:03,12:37:23,NA,incomplete,80,number,1,left,Purple_Plus_Chess_4.jpg,Red_Star_Dots_4.jpg,Green_Plus_Stripes_1.jpg,right,695.6700000009732,false,high,NA,NA,NA,NA,NA,NA,NA,false
Tic18u6O,32xn26mty2w7ui75x62r6ind7a7l00,3uouji6mthrkxiy40yo1v32yg4auxq,Tic18u6O,2020-0188,2020-05-21,12:19:03,12:37:23,NA,incomplete,81,number,1,right,Red_Star_Grid_1.jpg,Blue_Star_Chess_4.jpg,Purple_Plus_Stripes_1.jpg,right,643.6499999981606,true,high,NA,NA,NA,NA,NA,NA,NA,false
Tic18u6O,32xn26mty2w7ui75x62r6ind7a7l00,3uouji6mthrkxiy40yo1v32yg4auxq,Tic18u6O,2020-0188,2020-05-21,12:19:03,12:37:23,NA,incomplete,82,number,0,right,Green_Plus_Grid_2.jpg,Red_Plus_Dots_1.jpg,Blue_Triangle_Stripes_2.jpg,left,722.2049999982119,false,high,NA,NA,NA,NA,NA,NA,NA,false
Tic18u6O,32xn26mty2w7ui75x62r6ind7a7l00,3uouji6mthrkxiy40yo1v32yg4auxq,Tic18u6O,2020-0188,2020-05-21,12:19:03,12:37:23,NA,incomplete,83,number,0,right,Purple_Star_Chess_4.jpg,Green_Star_Dots_1.jpg,Red_Plus_Grid_4.jpg,left,591.1550000018906,false,high,NA,NA,NA,NA,NA,NA,NA,false
Tic18u6O,32xn26mty2w7ui75x62r6ind7a7l00,3uouji6mthrkxiy40yo1v32yg4auxq,Tic18u6O,2020-0188,2020-05-21,12:19:03,12:37:23,NA,incomplete,84,number,1,left,Purple_Circle_Grid_4.jpg,Green_Triangle_Chess_4.jpg,Red_Circle_Stripes_3.jpg,right,666.8400000053225,false,high,NA,NA,NA,NA,NA,NA,NA,false
Tic18u6O,32xn26mty2w7ui75x62r6ind7a7l00,3uouji6mthrkxiy40yo1v32yg4auxq,Tic18u6O,2020-0188,2020-05-21,12:19:03,12:37:23,NA,incomplete,85,number,1,right,Purple_Circle_Dots_1.jpg,Green_Circle_Chess_4.jpg,Red_Star_Grid_1.jpg,left,518.9050000044517,false,high,NA,NA,NA,NA,NA,NA,NA,false
Tic18u6O,32xn26mty2w7ui75x62r6ind7a7l00,3uouji6mthrkxiy40yo1v32yg4auxq,Tic18u6O,2020-0188,2020-05-21,12:19:03,12:37:23,NA,incomplete,86,number,1,left,Red_Circle_Grid_2.jpg,Green_Triangle_Chess_2.jpg,Blue_Circle_Dots_3.jpg,right,463.2349999883445,false,high,NA,NA,NA,NA,NA,NA,NA,false
Tic18u6O,32xn26mty2w7ui75x62r6ind7a7l00,3uouji6mthrkxiy40yo1v32yg4auxq,Tic18u6O,2020-0188,2020-05-21,12:19:03,12:37:23,NA,incomplete,87,number,1,left,Purple_Circle_Dots_4.jpg,Green_Star_Chess_4.jpg,Red_Circle_Grid_1.jpg,left,545.7550000137417,true,high,NA,NA,NA,NA,NA,NA,NA,false
Tic18u6O,32xn26mty2w7ui75x62r6ind7a7l00,3uouji6mthrkxiy40yo1v32yg4auxq,Tic18u6O,2020-0188,2020-05-21,12:19:03,12:37:23,NA,incomplete,88,number,0,left,Green_Circle_Dots_4.jpg,Blue_Triangle_Stripes_4.jpg,Red_Circle_Grid_2.jpg,left,488.1900000036694,true,high,NA,NA,NA,NA,NA,NA,NA,false
Tic18u6O,32xn26mty2w7ui75x62r6ind7a7l00,3uouji6mthrkxiy40yo1v32yg4auxq,Tic18u6O,2020-0188,2020-05-21,12:19:03,12:37:23,NA,incomplete,89,number,1,left,Purple_Star_Stripes_3.jpg,Blue_Triangle_Chess_3.jpg,Red_Star_Dots_1.jpg,left,462.39000000059605,true,high,NA,NA,NA,NA,NA,NA,NA,false
Tic18u6O,32xn26mty2w7ui75x62r6ind7a7l00,3uouji6mthrkxiy40yo1v32yg4auxq,Tic18u6O,2020-0188,2020-05-21,12:19:03,12:37:23,NA,incomplete,90,shape,1,right,Purple_Star_Grid_4.jpg,Green_Circle_Chess_4.jpg,Red_Star_Stripes_2.jpg,left,532.9799999890383,false,high,NA,NA,NA,NA,NA,NA,NA,false
Tic18u6O,32xn26mty2w7ui75x62r6ind7a7l00,3uouji6mthrkxiy40yo1v32yg4auxq,Tic18u6O,2020-0188,2020-05-21,12:19:03,12:37:23,NA,incomplete,91,shape,1,right,Red_Plus_Stripes_2.jpg,Blue_Triangle_Chess_2.jpg,Green_Plus_Dots_3.jpg,left,535.5799999961164,false,high,NA,NA,NA,NA,NA,NA,NA,false
Tic18u6O,32xn26mty2w7ui75x62r6ind7a7l00,3uouji6mthrkxiy40yo1v32yg4auxq,Tic18u6O,2020-0188,2020-05-21,12:19:03,12:37:23,NA,incomplete,92,shape,1,right,Red_Triangle_Dots_4.jpg,Purple_Plus_Stripes_4.jpg,Green_Triangle_Grid_1.jpg,right,599.8949999921024,true,high,NA,NA,NA,NA,NA,NA,NA,false
Tic18u6O,32xn26mty2w7ui75x62r6ind7a7l00,3uouji6mthrkxiy40yo1v32yg4auxq,Tic18u6O,2020-0188,2020-05-21,12:19:03,12:37:23,NA,incomplete,93,shape,1,right,Blue_Star_Stripes_3.jpg,Green_Circle_Chess_3.jpg,Purple_Star_Dots_1.jpg,right,635.4300000093644,true,high,NA,NA,NA,NA,NA,NA,NA,false
Tic18u6O,32xn26mty2w7ui75x62r6ind7a7l00,3uouji6mthrkxiy40yo1v32yg4auxq,Tic18u6O,2020-0188,2020-05-21,12:19:03,12:37:23,NA,incomplete,94,shape,0,left,Blue_Triangle_Chess_4.jpg,Purple_Triangle_Stripes_1.jpg,Red_Circle_Grid_4.jpg,left,532.9900000069756,true,high,NA,NA,NA,NA,NA,NA,NA,false
Tic18u6O,32xn26mty2w7ui75x62r6ind7a7l00,3uouji6mthrkxiy40yo1v32yg4auxq,Tic18u6O,2020-0188,2020-05-21,12:19:03,12:37:23,NA,incomplete,95,shape,1,left,Red_Circle_Stripes_4.jpg,Blue_Circle_Dots_2.jpg,Purple_Plus_Grid_4.jpg,right,697.0200000068871,false,high,NA,NA,NA,NA,NA,NA,NA,false
Tic18u6O,32xn26mty2w7ui75x62r6ind7a7l00,3uouji6mthrkxiy40yo1v32yg4auxq,Tic18u6O,2020-0188,2020-05-21,12:19:03,12:37:23,NA,incomplete,96,shape,1,right,Purple_Triangle_Dots_4.jpg,Red_Star_Grid_4.jpg,Blue_Triangle_Chess_1.jpg,right,568.6100000020815,true,high,NA,NA,NA,NA,NA,NA,NA,false
Tic18u6O,32xn26mty2w7ui75x62r6ind7a7l00,3uouji6mthrkxiy40yo1v32yg4auxq,Tic18u6O,2020-0188,2020-05-21,12:19:03,12:37:23,NA,incomplete,97,shape,0,left,Green_Triangle_Chess_4.jpg,Blue_Triangle_Dots_1.jpg,Purple_Circle_Stripes_4.jpg,left,513.7200000026496,true,high,NA,NA,NA,NA,NA,NA,NA,false
Tic18u6O,32xn26mty2w7ui75x62r6ind7a7l00,3uouji6mthrkxiy40yo1v32yg4auxq,Tic18u6O,2020-0188,2020-05-21,12:19:03,12:37:23,NA,incomplete,98,shape,1,left,Purple_Triangle_Grid_2.jpg,Red_Triangle_Stripes_3.jpg,Green_Star_Dots_2.jpg,left,772.1350000065286,true,high,NA,NA,NA,NA,NA,NA,NA,false
Tic18u6O,32xn26mty2w7ui75x62r6ind7a7l00,3uouji6mthrkxiy40yo1v32yg4auxq,Tic18u6O,2020-0188,2020-05-21,12:19:03,12:37:23,NA,incomplete,99,shape,1,left,Green_Circle_Grid_3.jpg,Blue_Circle_Stripes_2.jpg,Red_Star_Chess_3.jpg,left,661.2949999980628,true,high,NA,NA,NA,NA,NA,NA,NA,false
Tic18u6O,32xn26mty2w7ui75x62r6ind7a7l00,3uouji6mthrkxiy40yo1v32yg4auxq,Tic18u6O,2020-0188,2020-05-21,12:19:03,12:37:23,NA,incomplete,100,number,1,right,Red_Plus_Stripes_3.jpg,Green_Plus_Dots_1.jpg,Blue_Star_Grid_3.jpg,left,697.5649999949383,false,high,NA,NA,NA,NA,NA,NA,NA,false
Tic18u6O,32xn26mty2w7ui75x62r6ind7a7l00,3uouji6mthrkxiy40yo1v32yg4auxq,Tic18u6O,2020-0188,2020-05-21,12:19:03,12:37:23,NA,incomplete,101,number,0,left,Purple_Circle_Chess_2.jpg,Green_Plus_Dots_2.jpg,Red_Circle_Grid_3.jpg,left,537.7650000009453,true,high,NA,NA,NA,NA,NA,NA,NA,false
Tic18u6O,32xn26mty2w7ui75x62r6ind7a7l00,3uouji6mthrkxiy40yo1v32yg4auxq,Tic18u6O,2020-0188,2020-05-21,12:19:03,12:37:23,NA,incomplete,102,number,0,left,Blue_Plus_Chess_4.jpg,Red_Star_Dots_4.jpg,Green_Plus_Grid_2.jpg,left,734.6899999974994,true,high,NA,NA,NA,NA,NA,NA,NA,false
Tic18u6O,32xn26mty2w7ui75x62r6ind7a7l00,3uouji6mthrkxiy40yo1v32yg4auxq,Tic18u6O,2020-0188,2020-05-21,12:19:03,12:37:23,NA,incomplete,103,number,1,right,Purple_Star_Dots_2.jpg,Red_Star_Grid_1.jpg,Green_Triangle_Chess_2.jpg,left,742.4999999930151,false,high,NA,NA,NA,NA,NA,NA,NA,false
Tic18u6O,32xn26mty2w7ui75x62r6ind7a7l00,3uouji6mthrkxiy40yo1v32yg4auxq,Tic18u6O,2020-0188,2020-05-21,12:19:03,12:37:23,NA,incomplete,104,number,1,left,Green_Plus_Chess_3.jpg,Red_Star_Stripes_3.jpg,Purple_Plus_Dots_1.jpg,left,465.12999999686144,true,high,NA,NA,NA,NA,NA,NA,NA,false
Tic18u6O,32xn26mty2w7ui75x62r6ind7a7l00,3uouji6mthrkxiy40yo1v32yg4auxq,Tic18u6O,2020-0188,2020-05-21,12:19:03,12:37:23,NA,incomplete,105,number,1,left,Blue_Plus_Stripes_4.jpg,Green_Triangle_Chess_4.jpg,Purple_Plus_Grid_3.jpg,right,478.3800000004703,false,high,NA,NA,NA,NA,NA,NA,NA,false
Tic18u6O,32xn26mty2w7ui75x62r6ind7a7l00,3uouji6mthrkxiy40yo1v32yg4auxq,Tic18u6O,2020-0188,2020-05-21,12:19:03,12:37:23,NA,incomplete,106,number,1,right,Purple_Circle_Dots_4.jpg,Green_Circle_Chess_1.jpg,Red_Triangle_Grid_4.jpg,left,742.4699999974109,false,high,NA,NA,NA,NA,NA,NA,NA,false
Tic18u6O,32xn26mty2w7ui75x62r6ind7a7l00,3uouji6mthrkxiy40yo1v32yg4auxq,Tic18u6O,2020-0188,2020-05-21,12:19:03,12:37:23,NA,incomplete,107,number,1,right,Red_Star_Stripes_4.jpg,Purple_Star_Grid_3.jpg,Blue_Plus_Chess_4.jpg,left,521.6499999951338,false,high,NA,NA,NA,NA,NA,NA,NA,false
Tic18u6O,32xn26mty2w7ui75x62r6ind7a7l00,3uouji6mthrkxiy40yo1v32yg4auxq,Tic18u6O,2020-0188,2020-05-21,12:19:03,12:37:23,NA,incomplete,108,number,1,left,Blue_Plus_Dots_4.jpg,Purple_Star_Chess_4.jpg,Green_Plus_Stripes_2.jpg,left,480.5250000063097,true,high,NA,NA,NA,NA,NA,NA,NA,false
Tic18u6O,32xn26mty2w7ui75x62r6ind7a7l00,3uouji6mthrkxiy40yo1v32yg4auxq,Tic18u6O,2020-0188,2020-05-21,12:19:03,12:37:23,NA,incomplete,109,number,1,right,Green_Star_Stripes_2.jpg,Blue_Star_Dots_3.jpg,Red_Triangle_Chess_2.jpg,left,546.8050000054063,false,high,NA,NA,NA,NA,NA,NA,NA,false
Tic18u6O,32xn26mty2w7ui75x62r6ind7a7l00,3uouji6mthrkxiy40yo1v32yg4auxq,Tic18u6O,2020-0188,2020-05-21,12:19:03,12:37:23,NA,incomplete,110,shape,1,left,Blue_Triangle_Grid_1.jpg,Red_Triangle_Stripes_4.jpg,Purple_Circle_Chess_1.jpg,right,593.0000000080327,false,high,NA,NA,NA,NA,NA,NA,NA,false
Tic18u6O,32xn26mty2w7ui75x62r6ind7a7l00,3uouji6mthrkxiy40yo1v32yg4auxq,Tic18u6O,2020-0188,2020-05-21,12:19:03,12:37:23,NA,incomplete,111,shape,0,left,Blue_Circle_Dots_2.jpg,Purple_Circle_Stripes_4.jpg,Red_Triangle_Grid_2.jpg,left,569.1050000023097,true,high,NA,NA,NA,NA,NA,NA,NA,false
Tic18u6O,32xn26mty2w7ui75x62r6ind7a7l00,3uouji6mthrkxiy40yo1v32yg4auxq,Tic18u6O,2020-0188,2020-05-21,12:19:03,12:37:23,NA,incomplete,112,shape,1,left,Blue_Plus_Dots_2.jpg,Purple_Plus_Stripes_1.jpg,Red_Triangle_Grid_2.jpg,right,617.8250000084518,false,high,NA,NA,NA,NA,NA,NA,NA,false
Tic18u6O,32xn26mty2w7ui75x62r6ind7a7l00,3uouji6mthrkxiy40yo1v32yg4auxq,Tic18u6O,2020-0188,2020-05-21,12:19:03,12:37:23,NA,incomplete,113,shape,1,right,Red_Triangle_Stripes_4.jpg,Blue_Star_Chess_4.jpg,Green_Triangle_Grid_1.jpg,left,535.9749999915948,false,high,NA,NA,NA,NA,NA,NA,NA,false
Tic18u6O,32xn26mty2w7ui75x62r6ind7a7l00,3uouji6mthrkxiy40yo1v32yg4auxq,Tic18u6O,2020-0188,2020-05-21,12:19:03,12:37:23,NA,incomplete,114,shape,1,right,Blue_Star_Dots_3.jpg,Purple_Circle_Grid_3.jpg,Red_Star_Chess_1.jpg,left,526.6850000043632,false,high,NA,NA,NA,NA,NA,NA,NA,false
Tic18u6O,32xn26mty2w7ui75x62r6ind7a7l00,3uouji6mthrkxiy40yo1v32yg4auxq,Tic18u6O,2020-0188,2020-05-21,12:19:03,12:37:23,NA,incomplete,115,shape,0,right,Purple_Star_Dots_2.jpg,Blue_Circle_Chess_2.jpg,Green_Star_Grid_4.jpg,right,600.4200000024866,true,high,NA,NA,NA,NA,NA,NA,NA,false
Tic18u6O,32xn26mty2w7ui75x62r6ind7a7l00,3uouji6mthrkxiy40yo1v32yg4auxq,Tic18u6O,2020-0188,2020-05-21,12:19:03,12:37:23,NA,incomplete,116,shape,1,left,Red_Circle_Dots_4.jpg,Purple_Circle_Stripes_3.jpg,Green_Star_Chess_4.jpg,right,606.4949999999953,false,high,NA,NA,NA,NA,NA,NA,NA,false
Tic18u6O,32xn26mty2w7ui75x62r6ind7a7l00,3uouji6mthrkxiy40yo1v32yg4auxq,Tic18u6O,2020-0188,2020-05-21,12:19:03,12:37:23,NA,incomplete,117,shape,1,left,Green_Star_Stripes_1.jpg,Blue_Star_Dots_2.jpg,Red_Circle_Grid_1.jpg,left,953.6250000091968,true,high,NA,NA,NA,NA,NA,NA,NA,false
Tic18u6O,32xn26mty2w7ui75x62r6ind7a7l00,3uouji6mthrkxiy40yo1v32yg4auxq,Tic18u6O,2020-0188,2020-05-21,12:19:03,12:37:23,NA,incomplete,118,shape,1,right,Red_Circle_Grid_3.jpg,Blue_Plus_Dots_3.jpg,Purple_Circle_Chess_4.jpg,left,910.1749999972526,false,high,NA,NA,NA,NA,NA,NA,NA,false
Tic18u6O,32xn26mty2w7ui75x62r6ind7a7l00,3uouji6mthrkxiy40yo1v32yg4auxq,Tic18u6O,2020-0188,2020-05-21,12:19:03,12:37:23,NA,incomplete,119,shape,1,left,Green_Plus_Dots_3.jpg,Red_Plus_Stripes_1.jpg,Blue_Circle_Grid_3.jpg,left,636.5800000057789,true,high,NA,NA,NA,NA,NA,NA,NA,false
Tic18u6O,32xn26mty2w7ui75x62r6ind7a7l00,3uouji6mthrkxiy40yo1v32yg4auxq,Tic18u6O,2020-0188,2020-05-21,12:19:03,12:37:23,NA,incomplete,120,filling,1,right,Red_Triangle_Dots_2.jpg,Red_Plus_Grid_3.jpg,Purple_Circle_Dots_1.jpg,NA,NA,NA,high,NA,NA,NA,NA,NA,NA,NA,false
Tic18u6O,32xn26mty2w7ui75x62r6ind7a7l00,3uouji6mthrkxiy40yo1v32yg4auxq,Tic18u6O,2020-0188,2020-05-21,12:19:03,12:37:23,NA,incomplete,121,filling,1,left,Blue_Circle_Stripes_2.jpg,Purple_Triangle_Stripes_3.jpg,Blue_Plus_Grid_4.jpg,right,731.7550000007031,false,high,NA,NA,NA,NA,NA,NA,NA,false
Tic18u6O,32xn26mty2w7ui75x62r6ind7a7l00,3uouji6mthrkxiy40yo1v32yg4auxq,Tic18u6O,2020-0188,2020-05-21,12:19:03,12:37:23,NA,incomplete,122,filling,1,right,Red_Plus_Grid_2.jpg,Red_Triangle_Chess_1.jpg,Purple_Circle_Grid_4.jpg,left,553.7350000086008,false,high,NA,NA,NA,NA,NA,NA,NA,false
Tic18u6O,32xn26mty2w7ui75x62r6ind7a7l00,3uouji6mthrkxiy40yo1v32yg4auxq,Tic18u6O,2020-0188,2020-05-21,12:19:03,12:37:23,NA,incomplete,123,filling,1,right,Green_Star_Dots_1.jpg,Green_Plus_Grid_4.jpg,Red_Circle_Dots_3.jpg,right,854.5199999934994,true,high,NA,NA,NA,NA,NA,NA,NA,false
Tic18u6O,32xn26mty2w7ui75x62r6ind7a7l00,3uouji6mthrkxiy40yo1v32yg4auxq,Tic18u6O,2020-0188,2020-05-21,12:19:03,12:37:23,NA,incomplete,124,filling,1,left,Green_Circle_Chess_4.jpg,Purple_Plus_Chess_2.jpg,Green_Star_Grid_1.jpg,left,796.1550000036368,true,high,NA,NA,NA,NA,NA,NA,NA,false
Tic18u6O,32xn26mty2w7ui75x62r6ind7a7l00,3uouji6mthrkxiy40yo1v32yg4auxq,Tic18u6O,2020-0188,2020-05-21,12:19:03,12:37:23,NA,incomplete,125,filling,1,left,Green_Triangle_Dots_2.jpg,Purple_Plus_Dots_3.jpg,Green_Star_Stripes_1.jpg,left,815.8649999968475,true,high,NA,NA,NA,NA,NA,NA,NA,false
Tic18u6O,32xn26mty2w7ui75x62r6ind7a7l00,3uouji6mthrkxiy40yo1v32yg4auxq,Tic18u6O,2020-0188,2020-05-21,12:19:03,12:37:23,NA,incomplete,126,filling,1,right,Green_Plus_Chess_4.jpg,Green_Triangle_Grid_1.jpg,Blue_Star_Chess_3.jpg,right,772.6200000033714,true,high,NA,NA,NA,NA,NA,NA,NA,false
Tic18u6O,32xn26mty2w7ui75x62r6ind7a7l00,3uouji6mthrkxiy40yo1v32yg4auxq,Tic18u6O,2020-0188,2020-05-21,12:19:03,12:37:23,NA,incomplete,127,filling,0,left,Blue_Star_Dots_4.jpg,Purple_Circle_Dots_1.jpg,Blue_Triangle_Stripes_2.jpg,left,873.2299999974202,true,high,NA,NA,NA,NA,NA,NA,NA,false
Tic18u6O,32xn26mty2w7ui75x62r6ind7a7l00,3uouji6mthrkxiy40yo1v32yg4auxq,Tic18u6O,2020-0188,2020-05-21,12:19:03,12:37:23,NA,incomplete,128,filling,1,left,Purple_Circle_Stripes_1.jpg,Blue_Triangle_Stripes_3.jpg,Purple_Star_Chess_2.jpg,right,624.8800000030315,false,high,NA,NA,NA,NA,NA,NA,NA,false
Tic18u6O,32xn26mty2w7ui75x62r6ind7a7l00,3uouji6mthrkxiy40yo1v32yg4auxq,Tic18u6O,2020-0188,2020-05-21,12:19:03,12:37:23,NA,incomplete,129,filling,0,left,Blue_Star_Grid_4.jpg,Red_Circle_Grid_1.jpg,Blue_Plus_Chess_3.jpg,right,684.3000000080792,false,high,NA,NA,NA,NA,NA,NA,NA,false
Tic18u6O,32xn26mty2w7ui75x62r6ind7a7l00,3uouji6mthrkxiy40yo1v32yg4auxq,Tic18u6O,2020-0188,2020-05-21,12:19:03,12:37:23,NA,incomplete,130,filling,1,right,Blue_Triangle_Grid_2.jpg,Blue_Star_Stripes_1.jpg,Purple_Plus_Grid_4.jpg,left,752.6500000094529,false,high,NA,NA,NA,NA,NA,NA,NA,false
Tic18u6O,32xn26mty2w7ui75x62r6ind7a7l00,3uouji6mthrkxiy40yo1v32yg4auxq,Tic18u6O,2020-0188,2020-05-21,12:19:03,12:37:23,NA,incomplete,131,filling,1,left,Blue_Triangle_Chess_2.jpg,Red_Circle_Chess_4.jpg,Blue_Plus_Stripes_1.jpg,right,525.1350000035018,false,high,NA,NA,NA,NA,NA,NA,NA,false
Tic18u6O,32xn26mty2w7ui75x62r6ind7a7l00,3uouji6mthrkxiy40yo1v32yg4auxq,Tic18u6O,2020-0188,2020-05-21,12:19:03,12:37:23,NA,incomplete,132,filling,0,left,Green_Plus_Grid_3.jpg,Purple_Circle_Grid_4.jpg,Green_Triangle_Chess_1.jpg,right,616.5199999959441,false,high,NA,NA,NA,NA,NA,NA,NA,false
Tic18u6O,32xn26mty2w7ui75x62r6ind7a7l00,3uouji6mthrkxiy40yo1v32yg4auxq,Tic18u6O,2020-0188,2020-05-21,12:19:03,12:37:23,NA,incomplete,133,filling,1,left,Red_Plus_Stripes_1.jpg,Purple_Circle_Stripes_3.jpg,Red_Star_Dots_2.jpg,right,488.8700000010431,false,high,NA,NA,NA,NA,NA,NA,NA,false
Tic18u6O,32xn26mty2w7ui75x62r6ind7a7l00,3uouji6mthrkxiy40yo1v32yg4auxq,Tic18u6O,2020-0188,2020-05-21,12:19:03,12:37:23,NA,incomplete,134,filling,1,right,Red_Circle_Grid_1.jpg,Red_Triangle_Stripes_4.jpg,Green_Star_Grid_2.jpg,left,633.654999997816,false,high,NA,NA,NA,NA,NA,NA,NA,false
Tic18u6O,32xn26mty2w7ui75x62r6ind7a7l00,3uouji6mthrkxiy40yo1v32yg4auxq,Tic18u6O,2020-0188,2020-05-21,12:19:03,12:37:23,NA,incomplete,135,filling,1,left,Green_Plus_Stripes_2.jpg,Red_Star_Stripes_4.jpg,Green_Triangle_Dots_1.jpg,left,693.9350000029663,true,high,NA,NA,NA,NA,NA,NA,NA,false
Tic18u6O,32xn26mty2w7ui75x62r6ind7a7l00,3uouji6mthrkxiy40yo1v32yg4auxq,Tic18u6O,2020-0188,2020-05-21,12:19:03,12:37:23,NA,incomplete,136,filling,1,left,Green_Star_Dots_2.jpg,Red_Circle_Dots_3.jpg,Green_Triangle_Chess_4.jpg,left,642.3849999991944,true,high,NA,NA,NA,NA,NA,NA,NA,false
Tic18u6O,32xn26mty2w7ui75x62r6ind7a7l00,3uouji6mthrkxiy40yo1v32yg4auxq,Tic18u6O,2020-0188,2020-05-21,12:19:03,12:37:23,NA,incomplete,137,filling,1,left,Red_Circle_Dots_4.jpg,Green_Triangle_Dots_3.jpg,Red_Star_Grid_2.jpg,right,734.9149999936344,false,high,NA,NA,NA,NA,NA,NA,NA,false
Tic18u6O,32xn26mty2w7ui75x62r6ind7a7l00,3uouji6mthrkxiy40yo1v32yg4auxq,Tic18u6O,2020-0188,2020-05-21,12:19:03,12:37:23,NA,incomplete,138,filling,0,left,Green_Plus_Stripes_1.jpg,Purple_Triangle_Stripes_3.jpg,Green_Star_Chess_2.jpg,left,768.1049999955576,true,high,NA,NA,NA,NA,NA,NA,NA,false
Tic18u6O,32xn26mty2w7ui75x62r6ind7a7l00,3uouji6mthrkxiy40yo1v32yg4auxq,Tic18u6O,2020-0188,2020-05-21,12:19:03,12:37:23,NA,incomplete,139,filling,1,left,Blue_Star_Grid_1.jpg,Purple_Plus_Grid_2.jpg,Blue_Triangle_Dots_3.jpg,right,401.48000000044703,false,high,NA,NA,NA,NA,NA,NA,NA,false
Tic18u6O,32xn26mty2w7ui75x62r6ind7a7l00,3uouji6mthrkxiy40yo1v32yg4auxq,Tic18u6O,2020-0188,2020-05-21,12:19:03,12:37:23,NA,incomplete,140,color,1,right,Red_Plus_Dots_2.jpg,Blue_Triangle_Dots_3.jpg,Red_Circle_Grid_4.jpg,right,595.1700000005076,true,high,NA,NA,NA,NA,NA,NA,NA,false
Tic18u6O,32xn26mty2w7ui75x62r6ind7a7l00,3uouji6mthrkxiy40yo1v32yg4auxq,Tic18u6O,2020-0188,2020-05-21,12:19:03,12:37:23,NA,incomplete,141,color,0,right,Green_Star_Stripes_2.jpg,Blue_Circle_Stripes_3.jpg,Green_Triangle_Dots_1.jpg,right,479.5949999970617,true,high,NA,NA,NA,NA,NA,NA,NA,false
Tic18u6O,32xn26mty2w7ui75x62r6ind7a7l00,3uouji6mthrkxiy40yo1v32yg4auxq,Tic18u6O,2020-0188,2020-05-21,12:19:03,12:37:23,NA,incomplete,142,color,1,left,Purple_Star_Grid_2.jpg,Purple_Triangle_Chess_4.jpg,Green_Plus_Grid_1.jpg,right,904.7699999937322,false,high,NA,NA,NA,NA,NA,NA,NA,false
Tic18u6O,32xn26mty2w7ui75x62r6ind7a7l00,3uouji6mthrkxiy40yo1v32yg4auxq,Tic18u6O,2020-0188,2020-05-21,12:19:03,12:37:23,NA,incomplete,143,color,0,left,Red_Star_Chess_3.jpg,Red_Circle_Grid_4.jpg,Green_Plus_Chess_2.jpg,left,533.7900000013178,true,high,NA,NA,NA,NA,NA,NA,NA,false
Tic18u6O,32xn26mty2w7ui75x62r6ind7a7l00,3uouji6mthrkxiy40yo1v32yg4auxq,Tic18u6O,2020-0188,2020-05-21,12:19:03,12:37:23,NA,incomplete,144,color,1,right,Blue_Circle_Grid_4.jpg,Purple_Triangle_Grid_1.jpg,Blue_Star_Stripes_2.jpg,right,418.1899999966845,true,high,NA,NA,NA,NA,NA,NA,NA,false
Tic18u6O,32xn26mty2w7ui75x62r6ind7a7l00,3uouji6mthrkxiy40yo1v32yg4auxq,Tic18u6O,2020-0188,2020-05-21,12:19:03,12:37:23,NA,incomplete,145,color,0,right,Red_Triangle_Chess_3.jpg,Green_Circle_Chess_2.jpg,Red_Star_Stripes_1.jpg,right,644.5399999938672,true,high,NA,NA,NA,NA,NA,NA,NA,false
Tic18u6O,32xn26mty2w7ui75x62r6ind7a7l00,3uouji6mthrkxiy40yo1v32yg4auxq,Tic18u6O,2020-0188,2020-05-21,12:19:03,12:37:23,NA,incomplete,146,color,1,left,Red_Triangle_Stripes_2.jpg,Red_Plus_Chess_3.jpg,Blue_Circle_Stripes_1.jpg,left,613.2249999936903,true,high,NA,NA,NA,NA,NA,NA,NA,false
Tic18u6O,32xn26mty2w7ui75x62r6ind7a7l00,3uouji6mthrkxiy40yo1v32yg4auxq,Tic18u6O,2020-0188,2020-05-21,12:19:03,12:37:23,NA,incomplete,147,color,0,right,Green_Plus_Stripes_3.jpg,Purple_Circle_Stripes_2.jpg,Green_Star_Grid_4.jpg,right,390.7550000003539,true,high,NA,NA,NA,NA,NA,NA,NA,false
Tic18u6O,32xn26mty2w7ui75x62r6ind7a7l00,3uouji6mthrkxiy40yo1v32yg4auxq,Tic18u6O,2020-0188,2020-05-21,12:19:03,12:37:23,NA,incomplete,148,color,1,right,Green_Triangle_Chess_1.jpg,Purple_Star_Chess_2.jpg,Green_Circle_Stripes_3.jpg,left,799.3000000133179,false,high,NA,NA,NA,NA,NA,NA,NA,false
Tic18u6O,32xn26mty2w7ui75x62r6ind7a7l00,3uouji6mthrkxiy40yo1v32yg4auxq,Tic18u6O,2020-0188,2020-05-21,12:19:03,12:37:23,NA,incomplete,149,color,0,right,Blue_Triangle_Dots_4.jpg,Red_Star_Dots_2.jpg,Blue_Plus_Grid_1.jpg,right,575.1750000054017,true,high,NA,NA,NA,NA,NA,NA,NA,false
Tic18u6O,32xn26mty2w7ui75x62r6ind7a7l00,3uouji6mthrkxiy40yo1v32yg4auxq,Tic18u6O,2020-0188,2020-05-21,12:19:03,12:37:23,NA,incomplete,150,color,1,right,Red_Star_Grid_2.jpg,Purple_Plus_Grid_3.jpg,Red_Circle_Dots_1.jpg,right,580.8649999962654,true,high,NA,NA,NA,NA,NA,NA,NA,false
Tic18u6O,32xn26mty2w7ui75x62r6ind7a7l00,3uouji6mthrkxiy40yo1v32yg4auxq,Tic18u6O,2020-0188,2020-05-21,12:19:03,12:37:23,NA,incomplete,151,color,1,right,Green_Plus_Dots_3.jpg,Blue_Circle_Dots_4.jpg,Green_Star_Stripes_1.jpg,right,928.2600000005914,true,high,NA,NA,NA,NA,NA,NA,NA,false
Tic18u6O,32xn26mty2w7ui75x62r6ind7a7l00,3uouji6mthrkxiy40yo1v32yg4auxq,Tic18u6O,2020-0188,2020-05-21,12:19:03,12:37:23,NA,incomplete,152,color,1,left,Red_Triangle_Stripes_4.jpg,Red_Star_Grid_3.jpg,Green_Plus_Stripes_1.jpg,left,564.5400000066729,true,high,NA,NA,NA,NA,NA,NA,NA,false
Tic18u6O,32xn26mty2w7ui75x62r6ind7a7l00,3uouji6mthrkxiy40yo1v32yg4auxq,Tic18u6O,2020-0188,2020-05-21,12:19:03,12:37:23,NA,incomplete,153,color,1,right,Red_Triangle_Stripes_3.jpg,Purple_Star_Stripes_2.jpg,Red_Plus_Grid_4.jpg,right,495.0249999965308,true,high,NA,NA,NA,NA,NA,NA,NA,false
Tic18u6O,32xn26mty2w7ui75x62r6ind7a7l00,3uouji6mthrkxiy40yo1v32yg4auxq,Tic18u6O,2020-0188,2020-05-21,12:19:03,12:37:23,NA,incomplete,154,color,1,left,Green_Star_Grid_4.jpg,Green_Plus_Stripes_1.jpg,Blue_Triangle_Grid_2.jpg,left,461.9200000015553,true,high,NA,NA,NA,NA,NA,NA,NA,false
Tic18u6O,32xn26mty2w7ui75x62r6ind7a7l00,3uouji6mthrkxiy40yo1v32yg4auxq,Tic18u6O,2020-0188,2020-05-21,12:19:03,12:37:23,NA,incomplete,155,color,1,right,Blue_Circle_Chess_4.jpg,Purple_Plus_Chess_3.jpg,Blue_Star_Stripes_2.jpg,right,385.22500000544824,true,high,NA,NA,NA,NA,NA,NA,NA,false
Tic18u6O,32xn26mty2w7ui75x62r6ind7a7l00,3uouji6mthrkxiy40yo1v32yg4auxq,Tic18u6O,2020-0188,2020-05-21,12:19:03,12:37:23,NA,incomplete,156,color,1,left,Purple_Triangle_Stripes_4.jpg,Purple_Plus_Chess_1.jpg,Blue_Circle_Stripes_3.jpg,left,485.6900000013411,true,high,NA,NA,NA,NA,NA,NA,NA,false
Tic18u6O,32xn26mty2w7ui75x62r6ind7a7l00,3uouji6mthrkxiy40yo1v32yg4auxq,Tic18u6O,2020-0188,2020-05-21,12:19:03,12:37:23,NA,incomplete,157,color,1,right,Purple_Circle_Dots_3.jpg,Green_Star_Dots_1.jpg,Purple_Plus_Grid_4.jpg,right,382.4750000057975,true,high,NA,NA,NA,NA,NA,NA,NA,false
Tic18u6O,32xn26mty2w7ui75x62r6ind7a7l00,3uouji6mthrkxiy40yo1v32yg4auxq,Tic18u6O,2020-0188,2020-05-21,12:19:03,12:37:23,NA,incomplete,158,color,1,right,Red_Circle_Stripes_1.jpg,Green_Star_Stripes_4.jpg,Red_Plus_Dots_3.jpg,right,352.0950000092853,true,high,NA,NA,NA,NA,NA,NA,NA,false
Tic18u6O,32xn26mty2w7ui75x62r6ind7a7l00,3uouji6mthrkxiy40yo1v32yg4auxq,Tic18u6O,2020-0188,2020-05-21,12:19:03,12:37:23,NA,incomplete,159,color,1,right,Red_Plus_Grid_2.jpg,Green_Star_Grid_3.jpg,Red_Circle_Stripes_4.jpg,right,389.3099999986589,true,high,NA,NA,NA,NA,NA,NA,NA,false
Tic18u6O,32xn26mty2w7ui75x62r6ind7a7l00,3uouji6mthrkxiy40yo1v32yg4auxq,Tic18u6O,2020-0188,2020-05-21,12:19:03,12:37:23,NA,incomplete,160,filling,1,right,Purple_Triangle_Dots_2.jpg,Purple_Circle_Stripes_1.jpg,Blue_Plus_Dots_4.jpg,left,474.4199999986449,false,high,NA,NA,NA,NA,NA,NA,NA,false
Tic18u6O,32xn26mty2w7ui75x62r6ind7a7l00,3uouji6mthrkxiy40yo1v32yg4auxq,Tic18u6O,2020-0188,2020-05-21,12:19:03,12:37:23,NA,incomplete,161,filling,1,right,Red_Triangle_Chess_3.jpg,Red_Circle_Dots_4.jpg,Purple_Plus_Chess_1.jpg,left,561.8499999982305,false,high,NA,NA,NA,NA,NA,NA,NA,false
Tic18u6O,32xn26mty2w7ui75x62r6ind7a7l00,3uouji6mthrkxiy40yo1v32yg4auxq,Tic18u6O,2020-0188,2020-05-21,12:19:03,12:37:23,NA,incomplete,162,filling,1,left,Purple_Star_Chess_2.jpg,Red_Plus_Chess_3.jpg,Purple_Circle_Grid_4.jpg,right,842.9750000068452,false,high,NA,NA,NA,NA,NA,NA,NA,false
Tic18u6O,32xn26mty2w7ui75x62r6ind7a7l00,3uouji6mthrkxiy40yo1v32yg4auxq,Tic18u6O,2020-0188,2020-05-21,12:19:03,12:37:23,NA,incomplete,163,filling,1,left,Red_Star_Chess_3.jpg,Purple_Circle_Chess_1.jpg,Red_Triangle_Grid_2.jpg,left,628.6799999943469,true,high,NA,NA,NA,NA,NA,NA,NA,false
Tic18u6O,32xn26mty2w7ui75x62r6ind7a7l00,3uouji6mthrkxiy40yo1v32yg4auxq,Tic18u6O,2020-0188,2020-05-21,12:19:03,12:37:23,NA,incomplete,164,filling,1,left,Red_Circle_Grid_2.jpg,Purple_Plus_Grid_3.jpg,Red_Star_Stripes_4.jpg,left,825.4000000015367,true,high,NA,NA,NA,NA,NA,NA,NA,false
Tic18u6O,32xn26mty2w7ui75x62r6ind7a7l00,3uouji6mthrkxiy40yo1v32yg4auxq,Tic18u6O,2020-0188,2020-05-21,12:19:03,12:37:23,NA,incomplete,165,filling,1,left,Green_Circle_Grid_3.jpg,Blue_Triangle_Grid_1.jpg,Green_Plus_Chess_4.jpg,left,660.3049999976065,true,high,NA,NA,NA,NA,NA,NA,NA,false
Tic18u6O,32xn26mty2w7ui75x62r6ind7a7l00,3uouji6mthrkxiy40yo1v32yg4auxq,Tic18u6O,2020-0188,2020-05-21,12:19:03,12:37:23,NA,incomplete,166,filling,1,left,Red_Triangle_Stripes_2.jpg,Green_Circle_Stripes_1.jpg,Red_Plus_Chess_3.jpg,left,797.4099999992177,true,high,NA,NA,NA,NA,NA,NA,NA,false
Tic18u6O,32xn26mty2w7ui75x62r6ind7a7l00,3uouji6mthrkxiy40yo1v32yg4auxq,Tic18u6O,2020-0188,2020-05-21,12:19:03,12:37:23,NA,incomplete,167,filling,1,right,Blue_Star_Chess_2.jpg,Blue_Plus_Grid_4.jpg,Red_Circle_Chess_3.jpg,left,618.5250000125961,false,high,NA,NA,NA,NA,NA,NA,NA,false
Tic18u6O,32xn26mty2w7ui75x62r6ind7a7l00,3uouji6mthrkxiy40yo1v32yg4auxq,Tic18u6O,2020-0188,2020-05-21,12:19:03,12:37:23,NA,incomplete,168,filling,1,right,Purple_Star_Dots_3.jpg,Purple_Circle_Chess_1.jpg,Blue_Triangle_Dots_4.jpg,right,733.105000006617,true,high,NA,NA,NA,NA,NA,NA,NA,false
Tic18u6O,32xn26mty2w7ui75x62r6ind7a7l00,3uouji6mthrkxiy40yo1v32yg4auxq,Tic18u6O,2020-0188,2020-05-21,12:19:03,12:37:23,NA,incomplete,169,filling,1,left,Blue_Plus_Stripes_3.jpg,Purple_Triangle_Stripes_1.jpg,Blue_Circle_Dots_4.jpg,left,620.8749999932479,true,high,NA,NA,NA,NA,NA,NA,NA,false
Tic18u6O,32xn26mty2w7ui75x62r6ind7a7l00,3uouji6mthrkxiy40yo1v32yg4auxq,Tic18u6O,2020-0188,2020-05-21,12:19:03,12:37:23,NA,incomplete,170,filling,1,left,Red_Plus_Stripes_3.jpg,Purple_Star_Stripes_4.jpg,Red_Circle_Grid_2.jpg,left,674.1850000107661,true,high,NA,NA,NA,NA,NA,NA,NA,false
Tic18u6O,32xn26mty2w7ui75x62r6ind7a7l00,3uouji6mthrkxiy40yo1v32yg4auxq,Tic18u6O,2020-0188,2020-05-21,12:19:03,12:37:23,NA,incomplete,171,filling,0,right,Blue_Triangle_Chess_1.jpg,Blue_Plus_Dots_2.jpg,Red_Circle_Chess_4.jpg,right,648.7800000031712,true,high,NA,NA,NA,NA,NA,NA,NA,false
Tic18u6O,32xn26mty2w7ui75x62r6ind7a7l00,3uouji6mthrkxiy40yo1v32yg4auxq,Tic18u6O,2020-0188,2020-05-21,12:19:03,12:37:23,NA,incomplete,172,filling,1,left,Purple_Circle_Dots_4.jpg,Green_Star_Dots_2.jpg,Purple_Triangle_Chess_3.jpg,right,451.3050000095973,false,high,NA,NA,NA,NA,NA,NA,NA,false
Tic18u6O,32xn26mty2w7ui75x62r6ind7a7l00,3uouji6mthrkxiy40yo1v32yg4auxq,Tic18u6O,2020-0188,2020-05-21,12:19:03,12:37:23,NA,incomplete,173,filling,1,left,Red_Plus_Dots_3.jpg,Purple_Triangle_Dots_2.jpg,Red_Circle_Grid_1.jpg,left,785.0000000034925,true,high,NA,NA,NA,NA,NA,NA,NA,false
Tic18u6O,32xn26mty2w7ui75x62r6ind7a7l00,3uouji6mthrkxiy40yo1v32yg4auxq,Tic18u6O,2020-0188,2020-05-21,12:19:03,12:37:23,NA,incomplete,174,filling,1,left,Purple_Plus_Grid_4.jpg,Blue_Circle_Grid_1.jpg,Purple_Star_Chess_2.jpg,right,712.9299999942305,false,high,NA,NA,NA,NA,NA,NA,NA,false
Tic18u6O,32xn26mty2w7ui75x62r6ind7a7l00,3uouji6mthrkxiy40yo1v32yg4auxq,Tic18u6O,2020-0188,2020-05-21,12:19:03,12:37:23,NA,incomplete,175,filling,0,right,Blue_Plus_Dots_1.jpg,Blue_Triangle_Chess_3.jpg,Red_Circle_Dots_2.jpg,right,599.6050000103423,true,high,NA,NA,NA,NA,NA,NA,NA,false
Tic18u6O,32xn26mty2w7ui75x62r6ind7a7l00,3uouji6mthrkxiy40yo1v32yg4auxq,Tic18u6O,2020-0188,2020-05-21,12:19:03,12:37:23,NA,incomplete,176,filling,1,right,Red_Circle_Dots_3.jpg,Red_Star_Stripes_1.jpg,Purple_Triangle_Dots_4.jpg,left,479.40500000549946,false,high,NA,NA,NA,NA,NA,NA,NA,false
Tic18u6O,32xn26mty2w7ui75x62r6ind7a7l00,3uouji6mthrkxiy40yo1v32yg4auxq,Tic18u6O,2020-0188,2020-05-21,12:19:03,12:37:23,NA,incomplete,177,filling,1,right,Purple_Circle_Grid_2.jpg,Purple_Plus_Stripes_4.jpg,Red_Triangle_Grid_1.jpg,left,647.2499999945285,false,high,NA,NA,NA,NA,NA,NA,NA,false
Tic18u6O,32xn26mty2w7ui75x62r6ind7a7l00,3uouji6mthrkxiy40yo1v32yg4auxq,Tic18u6O,2020-0188,2020-05-21,12:19:03,12:37:23,NA,incomplete,178,filling,1,left,Red_Circle_Dots_2.jpg,Blue_Star_Dots_3.jpg,Red_Triangle_Stripes_4.jpg,right,943.6600000044564,false,high,NA,NA,NA,NA,NA,NA,NA,false
Tic18u6O,32xn26mty2w7ui75x62r6ind7a7l00,3uouji6mthrkxiy40yo1v32yg4auxq,Tic18u6O,2020-0188,2020-05-21,12:19:03,12:37:23,NA,incomplete,179,filling,0,right,Green_Plus_Chess_3.jpg,Green_Star_Grid_1.jpg,Blue_Triangle_Chess_4.jpg,right,767.359999998007,true,high,NA,NA,NA,NA,NA,NA,NA,false
Tic18u6O,32xn26mty2w7ui75x62r6ind7a7l00,3uouji6mthrkxiy40yo1v32yg4auxq,Tic18u6O,2020-0188,2020-05-21,12:19:03,12:37:23,NA,incomplete,180,color,1,right,Red_Circle_Dots_2.jpg,Blue_Plus_Dots_4.jpg,Red_Star_Chess_3.jpg,right,397.64999999897555,true,high,NA,NA,NA,NA,NA,NA,NA,false
Tic18u6O,32xn26mty2w7ui75x62r6ind7a7l00,3uouji6mthrkxiy40yo1v32yg4auxq,Tic18u6O,2020-0188,2020-05-21,12:19:03,12:37:23,NA,incomplete,181,color,1,left,Blue_Star_Grid_3.jpg,Blue_Triangle_Stripes_1.jpg,Green_Circle_Grid_4.jpg,left,371.76999999792315,true,high,NA,NA,NA,NA,NA,NA,NA,false
Tic18u6O,32xn26mty2w7ui75x62r6ind7a7l00,3uouji6mthrkxiy40yo1v32yg4auxq,Tic18u6O,2020-0188,2020-05-21,12:19:03,12:37:23,NA,incomplete,182,color,1,left,Blue_Plus_Dots_1.jpg,Blue_Star_Stripes_3.jpg,Purple_Triangle_Dots_2.jpg,left,365.56999999447726,true,high,NA,NA,NA,NA,NA,NA,NA,false
Tic18u6O,32xn26mty2w7ui75x62r6ind7a7l00,3uouji6mthrkxiy40yo1v32yg4auxq,Tic18u6O,2020-0188,2020-05-21,12:19:03,12:37:23,NA,incomplete,183,color,1,right,Purple_Triangle_Dots_3.jpg,Red_Circle_Dots_2.jpg,Purple_Plus_Stripes_4.jpg,right,513.5250000021188,true,high,NA,NA,NA,NA,NA,NA,NA,false
Tic18u6O,32xn26mty2w7ui75x62r6ind7a7l00,3uouji6mthrkxiy40yo1v32yg4auxq,Tic18u6O,2020-0188,2020-05-21,12:19:03,12:37:23,NA,incomplete,184,color,0,right,Red_Triangle_Dots_3.jpg,Green_Plus_Dots_4.jpg,Red_Circle_Chess_2.jpg,right,688.1699999939883,true,high,NA,NA,NA,NA,NA,NA,NA,false
Tic18u6O,32xn26mty2w7ui75x62r6ind7a7l00,3uouji6mthrkxiy40yo1v32yg4auxq,Tic18u6O,2020-0188,2020-05-21,12:19:03,12:37:23,NA,incomplete,185,color,1,left,Purple_Circle_Chess_4.jpg,Purple_Plus_Stripes_2.jpg,Green_Triangle_Chess_1.jpg,left,492.2950000036508,true,high,NA,NA,NA,NA,NA,NA,NA,false
Tic18u6O,32xn26mty2w7ui75x62r6ind7a7l00,3uouji6mthrkxiy40yo1v32yg4auxq,Tic18u6O,2020-0188,2020-05-21,12:19:03,12:37:23,NA,incomplete,186,color,0,right,Blue_Circle_Grid_4.jpg,Red_Star_Grid_1.jpg,Blue_Triangle_Chess_2.jpg,right,374.2050000000745,true,high,NA,NA,NA,NA,NA,NA,NA,false
Tic18u6O,32xn26mty2w7ui75x62r6ind7a7l00,3uouji6mthrkxiy40yo1v32yg4auxq,Tic18u6O,2020-0188,2020-05-21,12:19:03,12:37:23,NA,incomplete,187,color,1,left,Red_Plus_Chess_1.jpg,Red_Triangle_Grid_4.jpg,Purple_Circle_Chess_2.jpg,right,676.9800000038231,false,high,NA,NA,NA,NA,NA,NA,NA,false
Tic18u6O,32xn26mty2w7ui75x62r6ind7a7l00,3uouji6mthrkxiy40yo1v32yg4auxq,Tic18u6O,2020-0188,2020-05-21,12:19:03,12:37:23,NA,incomplete,188,color,1,left,Purple_Circle_Stripes_4.jpg,Purple_Triangle_Dots_1.jpg,Red_Star_Stripes_2.jpg,left,455.30499999586027,true,high,NA,NA,NA,NA,NA,NA,NA,false
Tic18u6O,32xn26mty2w7ui75x62r6ind7a7l00,3uouji6mthrkxiy40yo1v32yg4auxq,Tic18u6O,2020-0188,2020-05-21,12:19:03,12:37:23,NA,incomplete,189,color,1,right,Blue_Star_Grid_4.jpg,Red_Triangle_Grid_1.jpg,Blue_Circle_Stripes_3.jpg,right,396.0999999981141,true,high,NA,NA,NA,NA,NA,NA,NA,false
Tic18u6O,32xn26mty2w7ui75x62r6ind7a7l00,3uouji6mthrkxiy40yo1v32yg4auxq,Tic18u6O,2020-0188,2020-05-21,12:19:03,12:37:23,NA,incomplete,190,color,1,right,Blue_Triangle_Grid_4.jpg,Purple_Star_Grid_2.jpg,Blue_Plus_Dots_3.jpg,right,440.77000000106636,true,high,NA,NA,NA,NA,NA,NA,NA,false
Tic18u6O,32xn26mty2w7ui75x62r6ind7a7l00,3uouji6mthrkxiy40yo1v32yg4auxq,Tic18u6O,2020-0188,2020-05-21,12:19:03,12:37:23,NA,incomplete,191,color,0,left,Red_Circle_Chess_1.jpg,Red_Star_Dots_2.jpg,Purple_Plus_Chess_3.jpg,left,617.3750000016298,true,high,NA,NA,NA,NA,NA,NA,NA,false
Tic18u6O,32xn26mty2w7ui75x62r6ind7a7l00,3uouji6mthrkxiy40yo1v32yg4auxq,Tic18u6O,2020-0188,2020-05-21,12:19:03,12:37:23,NA,incomplete,192,color,1,right,Blue_Triangle_Dots_3.jpg,Purple_Plus_Dots_2.jpg,Blue_Star_Stripes_1.jpg,right,354.0450000000419,true,high,NA,NA,NA,NA,NA,NA,NA,false
Tic18u6O,32xn26mty2w7ui75x62r6ind7a7l00,3uouji6mthrkxiy40yo1v32yg4auxq,Tic18u6O,2020-0188,2020-05-21,12:19:03,12:37:23,NA,incomplete,193,color,0,left,Purple_Triangle_Chess_3.jpg,Purple_Star_Grid_2.jpg,Green_Plus_Chess_4.jpg,left,358.77500000060536,true,high,NA,NA,NA,NA,NA,NA,NA,false
Tic18u6O,32xn26mty2w7ui75x62r6ind7a7l00,3uouji6mthrkxiy40yo1v32yg4auxq,Tic18u6O,2020-0188,2020-05-21,12:19:03,12:37:23,NA,incomplete,194,color,1,right,Red_Plus_Grid_2.jpg,Blue_Triangle_Grid_3.jpg,Red_Circle_Chess_1.jpg,left,630.7200000010198,false,high,NA,NA,NA,NA,NA,NA,NA,false
Tic18u6O,32xn26mty2w7ui75x62r6ind7a7l00,3uouji6mthrkxiy40yo1v32yg4auxq,Tic18u6O,2020-0188,2020-05-21,12:19:03,12:37:23,NA,incomplete,195,color,1,right,Blue_Star_Dots_4.jpg,Green_Triangle_Dots_2.jpg,Blue_Plus_Chess_1.jpg,right,409.98000001127366,true,high,NA,NA,NA,NA,NA,NA,NA,false
Tic18u6O,32xn26mty2w7ui75x62r6ind7a7l00,3uouji6mthrkxiy40yo1v32yg4auxq,Tic18u6O,2020-0188,2020-05-21,12:19:03,12:37:23,NA,incomplete,196,color,1,right,Green_Triangle_Chess_1.jpg,Red_Plus_Chess_2.jpg,Green_Circle_Dots_3.jpg,right,438.15499999618623,true,high,NA,NA,NA,NA,NA,NA,NA,false
Tic18u6O,32xn26mty2w7ui75x62r6ind7a7l00,3uouji6mthrkxiy40yo1v32yg4auxq,Tic18u6O,2020-0188,2020-05-21,12:19:03,12:37:23,NA,incomplete,197,color,0,left,Red_Plus_Grid_3.jpg,Red_Circle_Stripes_4.jpg,Blue_Star_Grid_1.jpg,left,370.71000000287313,true,high,NA,NA,NA,NA,NA,NA,NA,false
Tic18u6O,32xn26mty2w7ui75x62r6ind7a7l00,3uouji6mthrkxiy40yo1v32yg4auxq,Tic18u6O,2020-0188,2020-05-21,12:19:03,12:37:23,NA,incomplete,198,color,1,right,Blue_Circle_Dots_2.jpg,Green_Triangle_Dots_3.jpg,Blue_Plus_Grid_1.jpg,right,396.63000000291504,true,high,NA,NA,NA,NA,NA,NA,NA,false
Tic18u6O,32xn26mty2w7ui75x62r6ind7a7l00,3uouji6mthrkxiy40yo1v32yg4auxq,Tic18u6O,2020-0188,2020-05-21,12:19:03,12:37:23,NA,incomplete,199,color,0,left,Purple_Circle_Dots_4.jpg,Purple_Star_Grid_3.jpg,Red_Triangle_Dots_2.jpg,left,387.65499999863096,true,high,NA,NA,NA,NA,NA,NA,NA,false
Tic18u6O,32xn26mty2w7ui75x62r6ind7a7l00,3uouji6mthrkxiy40yo1v32yg4auxq,Tic18u6O,2020-0188,2020-05-21,12:19:03,12:37:23,NA,incomplete,200,filling,1,right,Blue_Circle_Chess_4.jpg,Blue_Star_Stripes_3.jpg,Green_Triangle_Chess_2.jpg,left,355.2449999988312,false,high,NA,NA,NA,NA,NA,NA,NA,false
Tic18u6O,32xn26mty2w7ui75x62r6ind7a7l00,3uouji6mthrkxiy40yo1v32yg4auxq,Tic18u6O,2020-0188,2020-05-21,12:19:03,12:37:23,NA,incomplete,201,filling,1,right,Red_Plus_Grid_4.jpg,Red_Star_Stripes_1.jpg,Blue_Triangle_Grid_2.jpg,right,676.5149999991991,true,high,NA,NA,NA,NA,NA,NA,NA,false
Tic18u6O,32xn26mty2w7ui75x62r6ind7a7l00,3uouji6mthrkxiy40yo1v32yg4auxq,Tic18u6O,2020-0188,2020-05-21,12:19:03,12:37:23,NA,incomplete,202,filling,1,left,Red_Star_Dots_3.jpg,Blue_Triangle_Dots_2.jpg,Red_Plus_Grid_4.jpg,left,660.5450000060955,true,high,NA,NA,NA,NA,NA,NA,NA,false
Tic18u6O,32xn26mty2w7ui75x62r6ind7a7l00,3uouji6mthrkxiy40yo1v32yg4auxq,Tic18u6O,2020-0188,2020-05-21,12:19:03,12:37:23,NA,incomplete,203,filling,1,right,Blue_Plus_Stripes_1.jpg,Blue_Triangle_Chess_3.jpg,Red_Circle_Stripes_4.jpg,right,854.2949999973644,true,high,NA,NA,NA,NA,NA,NA,NA,false
Tic18u6O,32xn26mty2w7ui75x62r6ind7a7l00,3uouji6mthrkxiy40yo1v32yg4auxq,Tic18u6O,2020-0188,2020-05-21,12:19:03,12:37:23,NA,incomplete,204,filling,1,right,Purple_Star_Grid_3.jpg,Purple_Triangle_Stripes_2.jpg,Blue_Plus_Grid_4.jpg,right,807.3699999949895,true,high,NA,NA,NA,NA,NA,NA,NA,false
Tic18u6O,32xn26mty2w7ui75x62r6ind7a7l00,3uouji6mthrkxiy40yo1v32yg4auxq,Tic18u6O,2020-0188,2020-05-21,12:19:03,12:37:23,NA,incomplete,205,filling,0,left,Purple_Plus_Chess_3.jpg,Green_Circle_Chess_1.jpg,Purple_Triangle_Stripes_2.jpg,left,715.1250000024447,true,high,NA,NA,NA,NA,NA,NA,NA,false
Tic18u6O,32xn26mty2w7ui75x62r6ind7a7l00,3uouji6mthrkxiy40yo1v32yg4auxq,Tic18u6O,2020-0188,2020-05-21,12:19:03,12:37:23,NA,incomplete,206,filling,1,left,Green_Plus_Chess_4.jpg,Red_Triangle_Chess_2.jpg,Green_Circle_Stripes_3.jpg,left,548.2849999971222,true,high,NA,NA,NA,NA,NA,NA,NA,false
Tic18u6O,32xn26mty2w7ui75x62r6ind7a7l00,3uouji6mthrkxiy40yo1v32yg4auxq,Tic18u6O,2020-0188,2020-05-21,12:19:03,12:37:23,NA,incomplete,207,filling,1,right,Green_Triangle_Chess_4.jpg,Green_Circle_Stripes_2.jpg,Red_Star_Chess_1.jpg,right,592.0350000087637,true,high,NA,NA,NA,NA,NA,NA,NA,false
Tic18u6O,32xn26mty2w7ui75x62r6ind7a7l00,3uouji6mthrkxiy40yo1v32yg4auxq,Tic18u6O,2020-0188,2020-05-21,12:19:03,12:37:23,NA,incomplete,208,filling,1,right,Green_Star_Chess_1.jpg,Green_Plus_Stripes_2.jpg,Blue_Triangle_Chess_3.jpg,right,559.0650000085589,true,high,NA,NA,NA,NA,NA,NA,NA,false
Tic18u6O,32xn26mty2w7ui75x62r6ind7a7l00,3uouji6mthrkxiy40yo1v32yg4auxq,Tic18u6O,2020-0188,2020-05-21,12:19:03,12:37:23,NA,incomplete,209,filling,0,right,Purple_Star_Grid_4.jpg,Purple_Plus_Stripes_3.jpg,Green_Triangle_Grid_1.jpg,right,711.604999989504,true,high,NA,NA,NA,NA,NA,NA,NA,false
Tic18u6O,32xn26mty2w7ui75x62r6ind7a7l00,3uouji6mthrkxiy40yo1v32yg4auxq,Tic18u6O,2020-0188,2020-05-21,12:19:03,12:37:23,NA,incomplete,210,filling,1,left,Red_Star_Grid_3.jpg,Purple_Plus_Grid_4.jpg,Red_Triangle_Dots_2.jpg,right,693.4699999983422,false,high,NA,NA,NA,NA,NA,NA,NA,false
Tic18u6O,32xn26mty2w7ui75x62r6ind7a7l00,3uouji6mthrkxiy40yo1v32yg4auxq,Tic18u6O,2020-0188,2020-05-21,12:19:03,12:37:23,NA,incomplete,211,filling,1,right,Green_Triangle_Dots_2.jpg,Green_Circle_Chess_1.jpg,Purple_Plus_Dots_4.jpg,right,624.6350000001257,true,high,NA,NA,NA,NA,NA,NA,NA,false
Tic18u6O,32xn26mty2w7ui75x62r6ind7a7l00,3uouji6mthrkxiy40yo1v32yg4auxq,Tic18u6O,2020-0188,2020-05-21,12:19:03,12:37:23,NA,incomplete,212,filling,1,right,Purple_Star_Chess_3.jpg,Purple_Plus_Stripes_4.jpg,Green_Triangle_Chess_2.jpg,right,871.4599999948405,true,high,NA,NA,NA,NA,NA,NA,NA,false
Tic18u6O,32xn26mty2w7ui75x62r6ind7a7l00,3uouji6mthrkxiy40yo1v32yg4auxq,Tic18u6O,2020-0188,2020-05-21,12:19:03,12:37:23,NA,incomplete,213,filling,1,left,Red_Triangle_Stripes_4.jpg,Blue_Star_Stripes_2.jpg,Red_Plus_Grid_3.jpg,left,800.1950000034412,true,high,NA,NA,NA,NA,NA,NA,NA,false
Tic18u6O,32xn26mty2w7ui75x62r6ind7a7l00,3uouji6mthrkxiy40yo1v32yg4auxq,Tic18u6O,2020-0188,2020-05-21,12:19:03,12:37:23,NA,incomplete,214,filling,1,left,Green_Triangle_Grid_1.jpg,Purple_Circle_Grid_4.jpg,Green_Plus_Stripes_3.jpg,left,934.899999992922,true,high,NA,NA,NA,NA,NA,NA,NA,false
Tic18u6O,32xn26mty2w7ui75x62r6ind7a7l00,3uouji6mthrkxiy40yo1v32yg4auxq,Tic18u6O,2020-0188,2020-05-21,12:19:03,12:37:23,NA,incomplete,215,filling,1,left,Red_Star_Dots_3.jpg,Purple_Plus_Dots_2.jpg,Red_Circle_Stripes_1.jpg,right,721.6650000045775,false,high,NA,NA,NA,NA,NA,NA,NA,false
Tic18u6O,32xn26mty2w7ui75x62r6ind7a7l00,3uouji6mthrkxiy40yo1v32yg4auxq,Tic18u6O,2020-0188,2020-05-21,12:19:03,12:37:23,NA,incomplete,216,filling,1,right,Blue_Circle_Dots_2.jpg,Blue_Triangle_Grid_3.jpg,Green_Star_Dots_4.jpg,left,615.0049999996554,false,high,NA,NA,NA,NA,NA,NA,NA,false
Tic18u6O,32xn26mty2w7ui75x62r6ind7a7l00,3uouji6mthrkxiy40yo1v32yg4auxq,Tic18u6O,2020-0188,2020-05-21,12:19:03,12:37:23,NA,incomplete,217,filling,1,right,Purple_Star_Stripes_3.jpg,Purple_Circle_Chess_2.jpg,Red_Triangle_Stripes_1.jpg,right,774.3249999912223,true,high,NA,NA,NA,NA,NA,NA,NA,false
Tic18u6O,32xn26mty2w7ui75x62r6ind7a7l00,3uouji6mthrkxiy40yo1v32yg4auxq,Tic18u6O,2020-0188,2020-05-21,12:19:03,12:37:23,NA,incomplete,218,filling,0,left,Purple_Circle_Chess_3.jpg,Blue_Star_Chess_2.jpg,Purple_Plus_Stripes_1.jpg,left,860.885000001872,true,high,NA,NA,NA,NA,NA,NA,NA,false
Tic18u6O,32xn26mty2w7ui75x62r6ind7a7l00,3uouji6mthrkxiy40yo1v32yg4auxq,Tic18u6O,2020-0188,2020-05-21,12:19:03,12:37:23,NA,incomplete,219,filling,1,right,Green_Triangle_Chess_1.jpg,Green_Star_Grid_4.jpg,Purple_Plus_Chess_3.jpg,right,805.529999997816,true,high,NA,NA,NA,NA,NA,NA,NA,false
Tic18u6O,32xn26mty2w7ui75x62r6ind7a7l00,3uouji6mthrkxiy40yo1v32yg4auxq,Tic18u6O,2020-0188,2020-05-21,12:19:03,12:37:23,NA,incomplete,220,color,1,left,Red_Star_Grid_2.jpg,Red_Triangle_Dots_3.jpg,Green_Plus_Grid_4.jpg,right,720.6250000017462,false,high,NA,NA,NA,NA,NA,NA,NA,false
Tic18u6O,32xn26mty2w7ui75x62r6ind7a7l00,3uouji6mthrkxiy40yo1v32yg4auxq,Tic18u6O,2020-0188,2020-05-21,12:19:03,12:37:23,NA,incomplete,221,color,0,right,Green_Plus_Stripes_3.jpg,Purple_Star_Stripes_2.jpg,Green_Triangle_Grid_4.jpg,right,486.2099999882048,true,high,NA,NA,NA,NA,NA,NA,NA,false
Tic18u6O,32xn26mty2w7ui75x62r6ind7a7l00,3uouji6mthrkxiy40yo1v32yg4auxq,Tic18u6O,2020-0188,2020-05-21,12:19:03,12:37:23,NA,incomplete,222,color,1,right,Green_Star_Stripes_4.jpg,Red_Plus_Stripes_2.jpg,Green_Circle_Grid_1.jpg,left,643.5749999945983,false,high,NA,NA,NA,NA,NA,NA,NA,false
Tic18u6O,32xn26mty2w7ui75x62r6ind7a7l00,3uouji6mthrkxiy40yo1v32yg4auxq,Tic18u6O,2020-0188,2020-05-21,12:19:03,12:37:23,NA,incomplete,223,color,1,left,Green_Star_Dots_2.jpg,Green_Circle_Grid_4.jpg,Blue_Triangle_Dots_1.jpg,left,465.22500000719447,true,high,NA,NA,NA,NA,NA,NA,NA,false
Tic18u6O,32xn26mty2w7ui75x62r6ind7a7l00,3uouji6mthrkxiy40yo1v32yg4auxq,Tic18u6O,2020-0188,2020-05-21,12:19:03,12:37:23,NA,incomplete,224,color,1,left,Red_Plus_Stripes_4.jpg,Red_Circle_Dots_2.jpg,Purple_Triangle_Stripes_3.jpg,left,388.3649999916088,true,high,NA,NA,NA,NA,NA,NA,NA,false
Tic18u6O,32xn26mty2w7ui75x62r6ind7a7l00,3uouji6mthrkxiy40yo1v32yg4auxq,Tic18u6O,2020-0188,2020-05-21,12:19:03,12:37:23,NA,incomplete,225,color,0,left,Purple_Circle_Dots_4.jpg,Purple_Triangle_Chess_2.jpg,Green_Plus_Dots_3.jpg,left,375.1549999869894,true,high,NA,NA,NA,NA,NA,NA,NA,false
Tic18u6O,32xn26mty2w7ui75x62r6ind7a7l00,3uouji6mthrkxiy40yo1v32yg4auxq,Tic18u6O,2020-0188,2020-05-21,12:19:03,12:37:23,NA,incomplete,226,color,1,right,Green_Triangle_Chess_3.jpg,Purple_Circle_Chess_1.jpg,Green_Star_Stripes_2.jpg,right,317.7399999985937,true,high,NA,NA,NA,NA,NA,NA,NA,false
Tic18u6O,32xn26mty2w7ui75x62r6ind7a7l00,3uouji6mthrkxiy40yo1v32yg4auxq,Tic18u6O,2020-0188,2020-05-21,12:19:03,12:37:23,NA,incomplete,227,color,0,right,Purple_Star_Stripes_1.jpg,Red_Triangle_Stripes_3.jpg,Purple_Plus_Chess_2.jpg,right,382.63999999617226,true,high,NA,NA,NA,NA,NA,NA,NA,false
Tic18u6O,32xn26mty2w7ui75x62r6ind7a7l00,3uouji6mthrkxiy40yo1v32yg4auxq,Tic18u6O,2020-0188,2020-05-21,12:19:03,12:37:23,NA,incomplete,228,color,1,right,Purple_Circle_Grid_4.jpg,Green_Star_Grid_3.jpg,Purple_Triangle_Stripes_1.jpg,right,377.2999999928288,true,high,NA,NA,NA,NA,NA,NA,NA,false
Tic18u6O,32xn26mty2w7ui75x62r6ind7a7l00,3uouji6mthrkxiy40yo1v32yg4auxq,Tic18u6O,2020-0188,2020-05-21,12:19:03,12:37:23,NA,incomplete,229,color,1,right,Purple_Triangle_Dots_2.jpg,Blue_Star_Dots_3.jpg,Purple_Plus_Grid_1.jpg,right,349.3049999960931,true,high,NA,NA,NA,NA,NA,NA,NA,false
Tic18u6O,32xn26mty2w7ui75x62r6ind7a7l00,3uouji6mthrkxiy40yo1v32yg4auxq,Tic18u6O,2020-0188,2020-05-21,12:19:03,12:37:23,NA,incomplete,230,color,1,left,Purple_Plus_Dots_2.jpg,Purple_Star_Grid_3.jpg,Red_Triangle_Dots_4.jpg,left,390.4599999950733,true,high,NA,NA,NA,NA,NA,NA,NA,false
Tic18u6O,32xn26mty2w7ui75x62r6ind7a7l00,3uouji6mthrkxiy40yo1v32yg4auxq,Tic18u6O,2020-0188,2020-05-21,12:19:03,12:37:23,NA,incomplete,231,color,1,right,Blue_Triangle_Chess_4.jpg,Red_Plus_Chess_2.jpg,Blue_Star_Dots_3.jpg,right,369.7299999912502,true,high,NA,NA,NA,NA,NA,NA,NA,false
Tic18u6O,32xn26mty2w7ui75x62r6ind7a7l00,3uouji6mthrkxiy40yo1v32yg4auxq,Tic18u6O,2020-0188,2020-05-21,12:19:03,12:37:23,NA,incomplete,232,color,1,left,Blue_Plus_Chess_1.jpg,Blue_Star_Grid_2.jpg,Green_Circle_Chess_3.jpg,left,449.98999999370426,true,high,NA,NA,NA,NA,NA,NA,NA,false
Tic18u6O,32xn26mty2w7ui75x62r6ind7a7l00,3uouji6mthrkxiy40yo1v32yg4auxq,Tic18u6O,2020-0188,2020-05-21,12:19:03,12:37:23,NA,incomplete,233,color,1,right,Blue_Triangle_Dots_3.jpg,Red_Plus_Dots_2.jpg,Blue_Circle_Chess_1.jpg,right,423.14499999349937,true,high,NA,NA,NA,NA,NA,NA,NA,false
Tic18u6O,32xn26mty2w7ui75x62r6ind7a7l00,3uouji6mthrkxiy40yo1v32yg4auxq,Tic18u6O,2020-0188,2020-05-21,12:19:03,12:37:23,NA,incomplete,234,color,1,left,Blue_Star_Dots_3.jpg,Blue_Circle_Chess_2.jpg,Purple_Plus_Dots_1.jpg,left,399.63499999418855,true,high,NA,NA,NA,NA,NA,NA,NA,false
Tic18u6O,32xn26mty2w7ui75x62r6ind7a7l00,3uouji6mthrkxiy40yo1v32yg4auxq,Tic18u6O,2020-0188,2020-05-21,12:19:03,12:37:23,NA,incomplete,235,color,1,right,Purple_Star_Dots_1.jpg,Blue_Circle_Dots_4.jpg,Purple_Plus_Stripes_2.jpg,right,601.9200000010896,true,high,NA,NA,NA,NA,NA,NA,NA,false
Tic18u6O,32xn26mty2w7ui75x62r6ind7a7l00,3uouji6mthrkxiy40yo1v32yg4auxq,Tic18u6O,2020-0188,2020-05-21,12:19:03,12:37:23,NA,incomplete,236,color,1,left,Green_Plus_Stripes_3.jpg,Green_Star_Dots_4.jpg,Purple_Triangle_Stripes_2.jpg,left,386.684999990277,true,high,NA,NA,NA,NA,NA,NA,NA,false
Tic18u6O,32xn26mty2w7ui75x62r6ind7a7l00,3uouji6mthrkxiy40yo1v32yg4auxq,Tic18u6O,2020-0188,2020-05-21,12:19:03,12:37:23,NA,incomplete,237,color,1,right,Blue_Triangle_Dots_4.jpg,Purple_Plus_Dots_2.jpg,Blue_Circle_Chess_1.jpg,right,393.50000000558794,true,high,NA,NA,NA,NA,NA,NA,NA,false
Tic18u6O,32xn26mty2w7ui75x62r6ind7a7l00,3uouji6mthrkxiy40yo1v32yg4auxq,Tic18u6O,2020-0188,2020-05-21,12:19:03,12:37:23,NA,incomplete,238,color,1,right,Red_Star_Grid_1.jpg,Green_Plus_Grid_3.jpg,Red_Circle_Dots_4.jpg,right,545.7949999982957,true,high,NA,NA,NA,NA,NA,NA,NA,false
Tic18u6O,32xn26mty2w7ui75x62r6ind7a7l00,3uouji6mthrkxiy40yo1v32yg4auxq,Tic18u6O,2020-0188,2020-05-21,12:19:03,12:37:23,NA,incomplete,239,color,1,right,Red_Plus_Grid_3.jpg,Purple_Triangle_Grid_4.jpg,Red_Circle_Chess_1.jpg,right,348.5800000054296,true,high,NA,NA,NA,NA,NA,NA,NA,false
Tic18u6O,32xn26mty2w7ui75x62r6ind7a7l00,3uouji6mthrkxiy40yo1v32yg4auxq,Tic18u6O,2020-0188,2020-05-21,12:19:03,12:37:23,NA,NA,instruction example,number,NA,NA,Purple_Star_Grid_3.jpg,Red_Triangle_Chess_3.jpg,Green_Star_Stripes_2.jpg,NA,NA,NA,NA,NA,NA,NA,NA,NA,NA,NA,undefined
Tic18u6O,32xn26mty2w7ui75x62r6ind7a7l00,3uouji6mthrkxiy40yo1v32yg4auxq,Tic18u6O,2020-0188,2020-05-21,12:19:03,12:37:23,NA,NA,instruction example,number,NA,NA,Green_Circle_Grid_3.jpg,Blue_Circle_Stripes_1.jpg,Red_Triangle_Dots_3.jpg,NA,NA,NA,NA,NA,NA,NA,NA,NA,NA,NA,undefined
Tic18u6O,32xn26mty2w7ui75x62r6ind7a7l00,3uouji6mthrkxiy40yo1v32yg4auxq,Tic18u6O,2020-0188,2020-05-21,12:19:03,12:37:23,NA,NA,instruction example,number,NA,NA,Blue_Plus_Dots_3.jpg,Red_Circle_Dots_4.jpg,Blue_Triangle_Grid_1.jpg,NA,NA,NA,NA,NA,NA,NA,NA,NA,NA,NA,undefined
Tic18u6O,32xn26mty2w7ui75x62r6ind7a7l00,3uouji6mthrkxiy40yo1v32yg4auxq,Tic18u6O,2020-0188,2020-05-21,12:19:03,12:37:23,NA,NA,instruction example,number,NA,NA,Red_Plus_Dots_1.jpg,Red_Circle_Chess_2.jpg,Green_Triangle_Dots_4.jpg,NA,NA,NA,NA,NA,NA,NA,NA,NA,NA,NA,undefined
Tic18u6O,32xn26mty2w7ui75x62r6ind7a7l00,3uouji6mthrkxiy40yo1v32yg4auxq,Tic18u6O,2020-0188,2020-05-21,12:19:03,12:37:23,1074993.2750000008,1101128.4200000083,NA,NA,NA,NA,NA,NA,NA,NA,NA,NA,NA,24,White/Caucasian,Female,N/A,no,no,no,undefined
