workerId,hitId,assignmentId,subject,studyid,exp_date,exp_start,exp_end,time_start,time_end,trial,type,reward_validity,answer,image_top,image_left,image_right,response,response_time,response_acc,volatility,age,race,gender,ethnicity,color,vision,neuro,practice
g428lRzN,338glsui56olvzhlkxidlboc564sfp,3v0z7ywsi2dj9hk7hzdd1zalh4ov2f,g428lRzN,2020-0188,2020-05-21,17:30:33,17:44:57,NA,incomplete,0,number,1,left,Red_Plus_Chess_2.jpg,Blue_Circle_Dots_2.jpg,Red_Star_Stripes_3.jpg,left,1941.4049999904819,true,NA,NA,NA,NA,NA,NA,NA,NA,true
g428lRzN,338glsui56olvzhlkxidlboc564sfp,3v0z7ywsi2dj9hk7hzdd1zalh4ov2f,g428lRzN,2020-0188,2020-05-21,17:30:33,17:44:57,NA,incomplete,1,number,1,left,Red_Plus_Dots_3.jpg,Green_Triangle_Chess_3.jpg,Red_Star_Grid_1.jpg,left,1111.345000041183,true,NA,NA,NA,NA,NA,NA,NA,NA,true
g428lRzN,338glsui56olvzhlkxidlboc564sfp,3v0z7ywsi2dj9hk7hzdd1zalh4ov2f,g428lRzN,2020-0188,2020-05-21,17:30:33,17:44:57,NA,incomplete,2,number,0,right,Blue_Plus_Dots_3.jpg,Blue_Star_Stripes_1.jpg,Purple_Triangle_Grid_3.jpg,right,1069.530000037048,true,NA,NA,NA,NA,NA,NA,NA,NA,true
g428lRzN,338glsui56olvzhlkxidlboc564sfp,3v0z7ywsi2dj9hk7hzdd1zalh4ov2f,g428lRzN,2020-0188,2020-05-21,17:30:33,17:44:57,NA,incomplete,3,number,1,right,Red_Triangle_Stripes_4.jpg,Red_Star_Dots_3.jpg,Purple_Circle_Chess_4.jpg,none,0,false,NA,NA,NA,NA,NA,NA,NA,NA,true
g428lRzN,338glsui56olvzhlkxidlboc564sfp,3v0z7ywsi2dj9hk7hzdd1zalh4ov2f,g428lRzN,2020-0188,2020-05-21,17:30:33,17:44:57,NA,incomplete,4,number,0,left,Purple_Plus_Chess_2.jpg,Blue_Triangle_Grid_2.jpg,Purple_Star_Stripes_4.jpg,left,1029.5850000111386,true,NA,NA,NA,NA,NA,NA,NA,NA,true
g428lRzN,338glsui56olvzhlkxidlboc564sfp,3v0z7ywsi2dj9hk7hzdd1zalh4ov2f,g428lRzN,2020-0188,2020-05-21,17:30:33,17:44:57,NA,incomplete,5,number,1,left,Purple_Triangle_Grid_2.jpg,Green_Star_Stripes_2.jpg,Purple_Plus_Chess_1.jpg,left,1133.4899999783374,true,NA,NA,NA,NA,NA,NA,NA,NA,true
g428lRzN,338glsui56olvzhlkxidlboc564sfp,3v0z7ywsi2dj9hk7hzdd1zalh4ov2f,g428lRzN,2020-0188,2020-05-21,17:30:33,17:44:57,NA,incomplete,6,number,1,right,Blue_Plus_Chess_4.jpg,Blue_Star_Dots_3.jpg,Red_Circle_Grid_4.jpg,right,1184.3900000094436,true,NA,NA,NA,NA,NA,NA,NA,NA,true
g428lRzN,338glsui56olvzhlkxidlboc564sfp,3v0z7ywsi2dj9hk7hzdd1zalh4ov2f,g428lRzN,2020-0188,2020-05-21,17:30:33,17:44:57,NA,incomplete,7,number,1,left,Green_Plus_Chess_4.jpg,Purple_Triangle_Dots_4.jpg,Green_Circle_Stripes_2.jpg,left,841.4350000093691,true,NA,NA,NA,NA,NA,NA,NA,NA,true
g428lRzN,338glsui56olvzhlkxidlboc564sfp,3v0z7ywsi2dj9hk7hzdd1zalh4ov2f,g428lRzN,2020-0188,2020-05-21,17:30:33,17:44:57,NA,incomplete,8,number,1,right,Purple_Triangle_Stripes_2.jpg,Purple_Star_Chess_3.jpg,Blue_Plus_Grid_2.jpg,right,1270.5100000021048,true,NA,NA,NA,NA,NA,NA,NA,NA,true
g428lRzN,338glsui56olvzhlkxidlboc564sfp,3v0z7ywsi2dj9hk7hzdd1zalh4ov2f,g428lRzN,2020-0188,2020-05-21,17:30:33,17:44:57,NA,incomplete,9,number,1,left,Purple_Star_Stripes_3.jpg,Green_Plus_Grid_3.jpg,Purple_Triangle_Chess_4.jpg,left,988.8700000010431,true,NA,NA,NA,NA,NA,NA,NA,NA,true
g428lRzN,338glsui56olvzhlkxidlboc564sfp,3v0z7ywsi2dj9hk7hzdd1zalh4ov2f,g428lRzN,2020-0188,2020-05-21,17:30:33,17:44:57,NA,incomplete,10,number,1,left,Green_Circle_Chess_4.jpg,Purple_Star_Grid_4.jpg,Green_Triangle_Stripes_1.jpg,left,797.2949999966659,true,NA,NA,NA,NA,NA,NA,NA,NA,true
g428lRzN,338glsui56olvzhlkxidlboc564sfp,3v0z7ywsi2dj9hk7hzdd1zalh4ov2f,g428lRzN,2020-0188,2020-05-21,17:30:33,17:44:57,NA,incomplete,11,number,1,right,Purple_Circle_Grid_1.jpg,Purple_Star_Chess_3.jpg,Blue_Plus_Dots_1.jpg,right,1059.4399999827147,true,NA,NA,NA,NA,NA,NA,NA,NA,true
g428lRzN,338glsui56olvzhlkxidlboc564sfp,3v0z7ywsi2dj9hk7hzdd1zalh4ov2f,g428lRzN,2020-0188,2020-05-21,17:30:33,17:44:57,NA,incomplete,12,number,0,left,Red_Plus_Grid_1.jpg,Purple_Star_Stripes_1.jpg,Red_Triangle_Chess_3.jpg,left,805.5000000167638,true,NA,NA,NA,NA,NA,NA,NA,NA,true
g428lRzN,338glsui56olvzhlkxidlboc564sfp,3v0z7ywsi2dj9hk7hzdd1zalh4ov2f,g428lRzN,2020-0188,2020-05-21,17:30:33,17:44:57,NA,incomplete,13,number,1,right,Green_Circle_Grid_1.jpg,Green_Star_Chess_3.jpg,Blue_Triangle_Dots_1.jpg,right,1321.9699999899603,true,NA,NA,NA,NA,NA,NA,NA,NA,true
g428lRzN,338glsui56olvzhlkxidlboc564sfp,3v0z7ywsi2dj9hk7hzdd1zalh4ov2f,g428lRzN,2020-0188,2020-05-21,17:30:33,17:44:57,NA,incomplete,14,number,1,right,Red_Circle_Dots_2.jpg,Red_Triangle_Chess_4.jpg,Green_Star_Grid_2.jpg,right,1040.5299999983981,true,NA,NA,NA,NA,NA,NA,NA,NA,true
g428lRzN,338glsui56olvzhlkxidlboc564sfp,3v0z7ywsi2dj9hk7hzdd1zalh4ov2f,g428lRzN,2020-0188,2020-05-21,17:30:33,17:44:57,NA,incomplete,15,number,1,left,Blue_Plus_Dots_3.jpg,Purple_Circle_Chess_3.jpg,Blue_Star_Grid_1.jpg,left,714.4150000531226,true,NA,NA,NA,NA,NA,NA,NA,NA,true
g428lRzN,338glsui56olvzhlkxidlboc564sfp,3v0z7ywsi2dj9hk7hzdd1zalh4ov2f,g428lRzN,2020-0188,2020-05-21,17:30:33,17:44:57,NA,incomplete,16,number,1,left,Green_Star_Stripes_2.jpg,Red_Plus_Chess_2.jpg,Green_Triangle_Grid_1.jpg,left,789.1150000505149,true,NA,NA,NA,NA,NA,NA,NA,NA,true
g428lRzN,338glsui56olvzhlkxidlboc564sfp,3v0z7ywsi2dj9hk7hzdd1zalh4ov2f,g428lRzN,2020-0188,2020-05-21,17:30:33,17:44:57,NA,incomplete,17,number,1,left,Green_Circle_Chess_1.jpg,Purple_Plus_Grid_1.jpg,Green_Triangle_Dots_4.jpg,left,858.0550000187941,true,NA,NA,NA,NA,NA,NA,NA,NA,true
g428lRzN,338glsui56olvzhlkxidlboc564sfp,3v0z7ywsi2dj9hk7hzdd1zalh4ov2f,g428lRzN,2020-0188,2020-05-21,17:30:33,17:44:57,NA,incomplete,18,number,1,right,Red_Star_Grid_3.jpg,Red_Triangle_Chess_4.jpg,Blue_Plus_Dots_3.jpg,left,690.0400000158697,false,NA,NA,NA,NA,NA,NA,NA,NA,true
g428lRzN,338glsui56olvzhlkxidlboc564sfp,3v0z7ywsi2dj9hk7hzdd1zalh4ov2f,g428lRzN,2020-0188,2020-05-21,17:30:33,17:44:57,NA,incomplete,19,number,0,right,Red_Triangle_Chess_1.jpg,Red_Circle_Grid_3.jpg,Blue_Plus_Stripes_1.jpg,right,825.7149999844842,true,NA,NA,NA,NA,NA,NA,NA,NA,true
g428lRzN,338glsui56olvzhlkxidlboc564sfp,3v0z7ywsi2dj9hk7hzdd1zalh4ov2f,g428lRzN,2020-0188,2020-05-21,17:30:33,17:44:57,NA,incomplete,20,color,1,right,Purple_Circle_Dots_4.jpg,Red_Triangle_Chess_4.jpg,Purple_Plus_Grid_1.jpg,right,1249.2000000202097,true,NA,NA,NA,NA,NA,NA,NA,NA,true
g428lRzN,338glsui56olvzhlkxidlboc564sfp,3v0z7ywsi2dj9hk7hzdd1zalh4ov2f,g428lRzN,2020-0188,2020-05-21,17:30:33,17:44:57,NA,incomplete,21,color,1,left,Purple_Triangle_Grid_3.jpg,Purple_Circle_Stripes_2.jpg,Green_Plus_Chess_3.jpg,left,959.0750000206754,true,NA,NA,NA,NA,NA,NA,NA,NA,true
g428lRzN,338glsui56olvzhlkxidlboc564sfp,3v0z7ywsi2dj9hk7hzdd1zalh4ov2f,g428lRzN,2020-0188,2020-05-21,17:30:33,17:44:57,NA,incomplete,22,color,0,left,Purple_Triangle_Dots_2.jpg,Purple_Circle_Chess_1.jpg,Blue_Star_Grid_2.jpg,left,959.9600000074133,true,NA,NA,NA,NA,NA,NA,NA,NA,true
g428lRzN,338glsui56olvzhlkxidlboc564sfp,3v0z7ywsi2dj9hk7hzdd1zalh4ov2f,g428lRzN,2020-0188,2020-05-21,17:30:33,17:44:57,NA,incomplete,23,color,1,right,Red_Triangle_Dots_3.jpg,Green_Circle_Stripes_3.jpg,Red_Star_Grid_2.jpg,right,1154.439999954775,true,NA,NA,NA,NA,NA,NA,NA,NA,true
g428lRzN,338glsui56olvzhlkxidlboc564sfp,3v0z7ywsi2dj9hk7hzdd1zalh4ov2f,g428lRzN,2020-0188,2020-05-21,17:30:33,17:44:57,NA,incomplete,24,color,1,right,Purple_Plus_Dots_3.jpg,Green_Star_Stripes_3.jpg,Purple_Triangle_Grid_2.jpg,right,653.9000000339001,true,NA,NA,NA,NA,NA,NA,NA,NA,true
g428lRzN,338glsui56olvzhlkxidlboc564sfp,3v0z7ywsi2dj9hk7hzdd1zalh4ov2f,g428lRzN,2020-0188,2020-05-21,17:30:33,17:44:57,NA,incomplete,25,color,0,right,Blue_Triangle_Dots_2.jpg,Purple_Star_Grid_2.jpg,Blue_Plus_Chess_3.jpg,right,759.8400000133552,true,NA,NA,NA,NA,NA,NA,NA,NA,true
g428lRzN,338glsui56olvzhlkxidlboc564sfp,3v0z7ywsi2dj9hk7hzdd1zalh4ov2f,g428lRzN,2020-0188,2020-05-21,17:30:33,17:44:57,NA,incomplete,26,color,1,right,Red_Star_Dots_4.jpg,Purple_Triangle_Stripes_4.jpg,Red_Plus_Chess_3.jpg,right,679.5550000388175,true,NA,NA,NA,NA,NA,NA,NA,NA,true
g428lRzN,338glsui56olvzhlkxidlboc564sfp,3v0z7ywsi2dj9hk7hzdd1zalh4ov2f,g428lRzN,2020-0188,2020-05-21,17:30:33,17:44:57,NA,incomplete,27,color,0,right,Blue_Plus_Dots_3.jpg,Red_Circle_Grid_3.jpg,Blue_Star_Chess_4.jpg,left,1154.274999978952,false,NA,NA,NA,NA,NA,NA,NA,NA,true
g428lRzN,338glsui56olvzhlkxidlboc564sfp,3v0z7ywsi2dj9hk7hzdd1zalh4ov2f,g428lRzN,2020-0188,2020-05-21,17:30:33,17:44:57,NA,incomplete,28,color,1,right,Purple_Triangle_Dots_3.jpg,Green_Plus_Chess_3.jpg,Purple_Star_Grid_2.jpg,right,804.7150000347756,true,NA,NA,NA,NA,NA,NA,NA,NA,true
g428lRzN,338glsui56olvzhlkxidlboc564sfp,3v0z7ywsi2dj9hk7hzdd1zalh4ov2f,g428lRzN,2020-0188,2020-05-21,17:30:33,17:44:57,NA,incomplete,29,color,1,left,Green_Star_Stripes_1.jpg,Green_Triangle_Dots_3.jpg,Blue_Circle_Grid_1.jpg,left,825.6249999976717,true,NA,NA,NA,NA,NA,NA,NA,NA,true
g428lRzN,338glsui56olvzhlkxidlboc564sfp,3v0z7ywsi2dj9hk7hzdd1zalh4ov2f,g428lRzN,2020-0188,2020-05-21,17:30:33,17:44:57,NA,incomplete,30,color,1,right,Green_Plus_Dots_2.jpg,Red_Triangle_Chess_2.jpg,Green_Star_Grid_4.jpg,right,633.9850000222214,true,NA,NA,NA,NA,NA,NA,NA,NA,true
g428lRzN,338glsui56olvzhlkxidlboc564sfp,3v0z7ywsi2dj9hk7hzdd1zalh4ov2f,g428lRzN,2020-0188,2020-05-21,17:30:33,17:44:57,NA,incomplete,31,color,0,left,Green_Circle_Chess_1.jpg,Green_Triangle_Dots_2.jpg,Blue_Star_Grid_1.jpg,left,664.8649999988265,true,NA,NA,NA,NA,NA,NA,NA,NA,true
g428lRzN,338glsui56olvzhlkxidlboc564sfp,3v0z7ywsi2dj9hk7hzdd1zalh4ov2f,g428lRzN,2020-0188,2020-05-21,17:30:33,17:44:57,NA,incomplete,32,color,1,right,Green_Plus_Stripes_1.jpg,Red_Circle_Grid_1.jpg,Green_Star_Dots_3.jpg,right,718.2600000523962,true,NA,NA,NA,NA,NA,NA,NA,NA,true
g428lRzN,338glsui56olvzhlkxidlboc564sfp,3v0z7ywsi2dj9hk7hzdd1zalh4ov2f,g428lRzN,2020-0188,2020-05-21,17:30:33,17:44:57,NA,incomplete,33,color,1,left,Blue_Plus_Grid_2.jpg,Blue_Triangle_Chess_4.jpg,Red_Circle_Dots_2.jpg,left,773.3550000120886,true,NA,NA,NA,NA,NA,NA,NA,NA,true
g428lRzN,338glsui56olvzhlkxidlboc564sfp,3v0z7ywsi2dj9hk7hzdd1zalh4ov2f,g428lRzN,2020-0188,2020-05-21,17:30:33,17:44:57,NA,incomplete,34,color,1,left,Blue_Triangle_Chess_1.jpg,Blue_Plus_Dots_4.jpg,Purple_Star_Grid_1.jpg,left,759.3450000276789,true,NA,NA,NA,NA,NA,NA,NA,NA,true
g428lRzN,338glsui56olvzhlkxidlboc564sfp,3v0z7ywsi2dj9hk7hzdd1zalh4ov2f,g428lRzN,2020-0188,2020-05-21,17:30:33,17:44:57,NA,incomplete,35,color,1,right,Green_Plus_Grid_2.jpg,Blue_Triangle_Dots_2.jpg,Green_Star_Stripes_4.jpg,right,564.3249999848194,true,NA,NA,NA,NA,NA,NA,NA,NA,true
g428lRzN,338glsui56olvzhlkxidlboc564sfp,3v0z7ywsi2dj9hk7hzdd1zalh4ov2f,g428lRzN,2020-0188,2020-05-21,17:30:33,17:44:57,NA,incomplete,36,color,1,right,Red_Star_Stripes_1.jpg,Blue_Triangle_Grid_1.jpg,Red_Circle_Chess_4.jpg,right,611.8199999909848,true,NA,NA,NA,NA,NA,NA,NA,NA,true
g428lRzN,338glsui56olvzhlkxidlboc564sfp,3v0z7ywsi2dj9hk7hzdd1zalh4ov2f,g428lRzN,2020-0188,2020-05-21,17:30:33,17:44:57,NA,incomplete,37,color,1,left,Green_Plus_Grid_1.jpg,Green_Star_Chess_3.jpg,Blue_Circle_Dots_1.jpg,left,519.1050000139512,true,NA,NA,NA,NA,NA,NA,NA,NA,true
g428lRzN,338glsui56olvzhlkxidlboc564sfp,3v0z7ywsi2dj9hk7hzdd1zalh4ov2f,g428lRzN,2020-0188,2020-05-21,17:30:33,17:44:57,NA,incomplete,38,color,1,left,Blue_Triangle_Grid_2.jpg,Blue_Circle_Stripes_3.jpg,Purple_Plus_Dots_2.jpg,left,637.189999979455,true,NA,NA,NA,NA,NA,NA,NA,NA,true
g428lRzN,338glsui56olvzhlkxidlboc564sfp,3v0z7ywsi2dj9hk7hzdd1zalh4ov2f,g428lRzN,2020-0188,2020-05-21,17:30:33,17:44:57,NA,incomplete,39,color,1,left,Blue_Star_Grid_2.jpg,Blue_Circle_Dots_4.jpg,Red_Plus_Chess_2.jpg,left,652.1399999619462,true,NA,NA,NA,NA,NA,NA,NA,NA,true
g428lRzN,338glsui56olvzhlkxidlboc564sfp,3v0z7ywsi2dj9hk7hzdd1zalh4ov2f,g428lRzN,2020-0188,2020-05-21,17:30:33,17:44:57,NA,incomplete,0,number,1,left,Green_Plus_Chess_3.jpg,Purple_Triangle_Grid_3.jpg,Green_Star_Dots_2.jpg,right,889.130000025034,false,low,NA,NA,NA,NA,NA,NA,NA,false
g428lRzN,338glsui56olvzhlkxidlboc564sfp,3v0z7ywsi2dj9hk7hzdd1zalh4ov2f,g428lRzN,2020-0188,2020-05-21,17:30:33,17:44:57,NA,incomplete,1,number,1,left,Blue_Star_Stripes_3.jpg,Purple_Plus_Grid_3.jpg,Blue_Triangle_Chess_2.jpg,left,836.8400000035763,true,low,NA,NA,NA,NA,NA,NA,NA,false
g428lRzN,338glsui56olvzhlkxidlboc564sfp,3v0z7ywsi2dj9hk7hzdd1zalh4ov2f,g428lRzN,2020-0188,2020-05-21,17:30:33,17:44:57,NA,incomplete,2,number,1,right,Purple_Circle_Grid_1.jpg,Purple_Star_Dots_4.jpg,Blue_Triangle_Chess_1.jpg,right,762.769999972079,true,low,NA,NA,NA,NA,NA,NA,NA,false
g428lRzN,338glsui56olvzhlkxidlboc564sfp,3v0z7ywsi2dj9hk7hzdd1zalh4ov2f,g428lRzN,2020-0188,2020-05-21,17:30:33,17:44:57,NA,incomplete,3,number,1,left,Purple_Circle_Stripes_4.jpg,Green_Triangle_Dots_4.jpg,Purple_Star_Chess_3.jpg,left,1205.4249999928288,true,low,NA,NA,NA,NA,NA,NA,NA,false
g428lRzN,338glsui56olvzhlkxidlboc564sfp,3v0z7ywsi2dj9hk7hzdd1zalh4ov2f,g428lRzN,2020-0188,2020-05-21,17:30:33,17:44:57,NA,incomplete,4,number,1,right,Purple_Circle_Dots_1.jpg,Purple_Plus_Chess_4.jpg,Green_Star_Stripes_1.jpg,right,803.0150000122376,true,low,NA,NA,NA,NA,NA,NA,NA,false
g428lRzN,338glsui56olvzhlkxidlboc564sfp,3v0z7ywsi2dj9hk7hzdd1zalh4ov2f,g428lRzN,2020-0188,2020-05-21,17:30:33,17:44:57,NA,incomplete,5,number,1,right,Blue_Star_Chess_3.jpg,Blue_Plus_Dots_2.jpg,Green_Circle_Stripes_3.jpg,right,850.0099999946542,true,low,NA,NA,NA,NA,NA,NA,NA,false
g428lRzN,338glsui56olvzhlkxidlboc564sfp,3v0z7ywsi2dj9hk7hzdd1zalh4ov2f,g428lRzN,2020-0188,2020-05-21,17:30:33,17:44:57,NA,incomplete,6,number,1,right,Blue_Plus_Stripes_2.jpg,Blue_Star_Dots_3.jpg,Purple_Circle_Chess_2.jpg,right,857.2100000455976,true,low,NA,NA,NA,NA,NA,NA,NA,false
g428lRzN,338glsui56olvzhlkxidlboc564sfp,3v0z7ywsi2dj9hk7hzdd1zalh4ov2f,g428lRzN,2020-0188,2020-05-21,17:30:33,17:44:57,NA,incomplete,7,number,1,left,Red_Triangle_Stripes_3.jpg,Purple_Star_Grid_3.jpg,Red_Plus_Dots_2.jpg,left,751.0400000028312,true,low,NA,NA,NA,NA,NA,NA,NA,false
g428lRzN,338glsui56olvzhlkxidlboc564sfp,3v0z7ywsi2dj9hk7hzdd1zalh4ov2f,g428lRzN,2020-0188,2020-05-21,17:30:33,17:44:57,NA,incomplete,8,number,1,left,Green_Star_Chess_4.jpg,Red_Plus_Dots_4.jpg,Green_Triangle_Grid_1.jpg,left,704.2649999493733,true,low,NA,NA,NA,NA,NA,NA,NA,false
g428lRzN,338glsui56olvzhlkxidlboc564sfp,3v0z7ywsi2dj9hk7hzdd1zalh4ov2f,g428lRzN,2020-0188,2020-05-21,17:30:33,17:44:57,NA,incomplete,9,number,1,left,Purple_Circle_Chess_1.jpg,Blue_Star_Stripes_1.jpg,Purple_Plus_Dots_3.jpg,left,702.3700000136159,true,low,NA,NA,NA,NA,NA,NA,NA,false
g428lRzN,338glsui56olvzhlkxidlboc564sfp,3v0z7ywsi2dj9hk7hzdd1zalh4ov2f,g428lRzN,2020-0188,2020-05-21,17:30:33,17:44:57,NA,incomplete,10,number,1,left,Purple_Plus_Chess_4.jpg,Green_Triangle_Dots_4.jpg,Purple_Circle_Grid_3.jpg,left,1210.9349999809638,true,low,NA,NA,NA,NA,NA,NA,NA,false
g428lRzN,338glsui56olvzhlkxidlboc564sfp,3v0z7ywsi2dj9hk7hzdd1zalh4ov2f,g428lRzN,2020-0188,2020-05-21,17:30:33,17:44:57,NA,incomplete,11,number,0,right,Red_Circle_Grid_2.jpg,Red_Plus_Dots_4.jpg,Blue_Star_Chess_2.jpg,right,780.6199999758974,true,low,NA,NA,NA,NA,NA,NA,NA,false
g428lRzN,338glsui56olvzhlkxidlboc564sfp,3v0z7ywsi2dj9hk7hzdd1zalh4ov2f,g428lRzN,2020-0188,2020-05-21,17:30:33,17:44:57,NA,incomplete,12,number,1,right,Green_Circle_Grid_4.jpg,Green_Triangle_Stripes_1.jpg,Red_Plus_Dots_4.jpg,right,994.4649999961257,true,low,NA,NA,NA,NA,NA,NA,NA,false
g428lRzN,338glsui56olvzhlkxidlboc564sfp,3v0z7ywsi2dj9hk7hzdd1zalh4ov2f,g428lRzN,2020-0188,2020-05-21,17:30:33,17:44:57,NA,incomplete,13,number,0,right,Blue_Plus_Stripes_4.jpg,Blue_Star_Dots_2.jpg,Red_Circle_Grid_4.jpg,right,798.3600000152364,true,low,NA,NA,NA,NA,NA,NA,NA,false
g428lRzN,338glsui56olvzhlkxidlboc564sfp,3v0z7ywsi2dj9hk7hzdd1zalh4ov2f,g428lRzN,2020-0188,2020-05-21,17:30:33,17:44:57,NA,incomplete,14,number,0,left,Red_Star_Dots_3.jpg,Blue_Plus_Chess_3.jpg,Red_Triangle_Stripes_4.jpg,left,829.5800000196323,true,low,NA,NA,NA,NA,NA,NA,NA,false
g428lRzN,338glsui56olvzhlkxidlboc564sfp,3v0z7ywsi2dj9hk7hzdd1zalh4ov2f,g428lRzN,2020-0188,2020-05-21,17:30:33,17:44:57,NA,incomplete,15,number,0,left,Green_Star_Grid_4.jpg,Blue_Plus_Chess_4.jpg,Green_Circle_Dots_1.jpg,right,790.8649999881163,false,low,NA,NA,NA,NA,NA,NA,NA,false
g428lRzN,338glsui56olvzhlkxidlboc564sfp,3v0z7ywsi2dj9hk7hzdd1zalh4ov2f,g428lRzN,2020-0188,2020-05-21,17:30:33,17:44:57,NA,incomplete,16,number,1,left,Red_Star_Grid_4.jpg,Blue_Plus_Stripes_4.jpg,Red_Triangle_Chess_1.jpg,left,871.3650000281632,true,low,NA,NA,NA,NA,NA,NA,NA,false
g428lRzN,338glsui56olvzhlkxidlboc564sfp,3v0z7ywsi2dj9hk7hzdd1zalh4ov2f,g428lRzN,2020-0188,2020-05-21,17:30:33,17:44:57,NA,incomplete,17,number,1,left,Green_Star_Dots_3.jpg,Blue_Triangle_Stripes_3.jpg,Green_Plus_Chess_4.jpg,left,713.3299999986775,true,low,NA,NA,NA,NA,NA,NA,NA,false
g428lRzN,338glsui56olvzhlkxidlboc564sfp,3v0z7ywsi2dj9hk7hzdd1zalh4ov2f,g428lRzN,2020-0188,2020-05-21,17:30:33,17:44:57,NA,incomplete,18,number,1,right,Blue_Plus_Grid_4.jpg,Blue_Triangle_Stripes_3.jpg,Green_Star_Chess_4.jpg,right,850.0299999723211,true,low,NA,NA,NA,NA,NA,NA,NA,false
g428lRzN,338glsui56olvzhlkxidlboc564sfp,3v0z7ywsi2dj9hk7hzdd1zalh4ov2f,g428lRzN,2020-0188,2020-05-21,17:30:33,17:44:57,NA,incomplete,19,number,1,right,Purple_Circle_Stripes_3.jpg,Purple_Plus_Grid_2.jpg,Red_Star_Chess_3.jpg,right,707.6450000167824,true,low,NA,NA,NA,NA,NA,NA,NA,false
g428lRzN,338glsui56olvzhlkxidlboc564sfp,3v0z7ywsi2dj9hk7hzdd1zalh4ov2f,g428lRzN,2020-0188,2020-05-21,17:30:33,17:44:57,NA,incomplete,20,number,1,right,Purple_Triangle_Grid_4.jpg,Purple_Circle_Chess_1.jpg,Blue_Plus_Stripes_4.jpg,left,924.1449999972247,false,low,NA,NA,NA,NA,NA,NA,NA,false
g428lRzN,338glsui56olvzhlkxidlboc564sfp,3v0z7ywsi2dj9hk7hzdd1zalh4ov2f,g428lRzN,2020-0188,2020-05-21,17:30:33,17:44:57,NA,incomplete,21,number,1,right,Purple_Plus_Grid_1.jpg,Purple_Triangle_Stripes_3.jpg,Red_Star_Dots_1.jpg,right,854.1850000037812,true,low,NA,NA,NA,NA,NA,NA,NA,false
g428lRzN,338glsui56olvzhlkxidlboc564sfp,3v0z7ywsi2dj9hk7hzdd1zalh4ov2f,g428lRzN,2020-0188,2020-05-21,17:30:33,17:44:57,NA,incomplete,22,number,1,right,Purple_Plus_Dots_1.jpg,Purple_Triangle_Stripes_4.jpg,Blue_Star_Chess_1.jpg,right,608.6650000070222,true,low,NA,NA,NA,NA,NA,NA,NA,false
g428lRzN,338glsui56olvzhlkxidlboc564sfp,3v0z7ywsi2dj9hk7hzdd1zalh4ov2f,g428lRzN,2020-0188,2020-05-21,17:30:33,17:44:57,NA,incomplete,23,number,1,left,Green_Plus_Stripes_3.jpg,Red_Star_Grid_3.jpg,Green_Triangle_Chess_4.jpg,left,1271.390000008978,true,low,NA,NA,NA,NA,NA,NA,NA,false
g428lRzN,338glsui56olvzhlkxidlboc564sfp,3v0z7ywsi2dj9hk7hzdd1zalh4ov2f,g428lRzN,2020-0188,2020-05-21,17:30:33,17:44:57,NA,incomplete,24,number,1,left,Blue_Plus_Stripes_1.jpg,Purple_Star_Grid_1.jpg,Blue_Triangle_Dots_3.jpg,left,752.8200000524521,true,low,NA,NA,NA,NA,NA,NA,NA,false
g428lRzN,338glsui56olvzhlkxidlboc564sfp,3v0z7ywsi2dj9hk7hzdd1zalh4ov2f,g428lRzN,2020-0188,2020-05-21,17:30:33,17:44:57,NA,incomplete,25,number,1,right,Red_Plus_Chess_4.jpg,Red_Circle_Grid_3.jpg,Green_Star_Dots_4.jpg,right,836.9299999903888,true,low,NA,NA,NA,NA,NA,NA,NA,false
g428lRzN,338glsui56olvzhlkxidlboc564sfp,3v0z7ywsi2dj9hk7hzdd1zalh4ov2f,g428lRzN,2020-0188,2020-05-21,17:30:33,17:44:57,NA,incomplete,26,number,1,left,Blue_Triangle_Chess_1.jpg,Green_Plus_Stripes_1.jpg,Blue_Circle_Grid_3.jpg,left,719.6100000292063,true,low,NA,NA,NA,NA,NA,NA,NA,false
g428lRzN,338glsui56olvzhlkxidlboc564sfp,3v0z7ywsi2dj9hk7hzdd1zalh4ov2f,g428lRzN,2020-0188,2020-05-21,17:30:33,17:44:57,NA,incomplete,27,number,0,right,Red_Triangle_Grid_3.jpg,Red_Circle_Stripes_2.jpg,Purple_Star_Dots_3.jpg,right,750.9500000160187,true,low,NA,NA,NA,NA,NA,NA,NA,false
g428lRzN,338glsui56olvzhlkxidlboc564sfp,3v0z7ywsi2dj9hk7hzdd1zalh4ov2f,g428lRzN,2020-0188,2020-05-21,17:30:33,17:44:57,NA,incomplete,28,number,1,right,Purple_Plus_Grid_1.jpg,Purple_Circle_Stripes_2.jpg,Red_Star_Dots_1.jpg,right,688.5199999669567,true,low,NA,NA,NA,NA,NA,NA,NA,false
g428lRzN,338glsui56olvzhlkxidlboc564sfp,3v0z7ywsi2dj9hk7hzdd1zalh4ov2f,g428lRzN,2020-0188,2020-05-21,17:30:33,17:44:57,NA,incomplete,29,number,1,right,Blue_Plus_Stripes_1.jpg,Blue_Star_Grid_4.jpg,Red_Circle_Chess_1.jpg,right,595.4250000067987,true,low,NA,NA,NA,NA,NA,NA,NA,false
g428lRzN,338glsui56olvzhlkxidlboc564sfp,3v0z7ywsi2dj9hk7hzdd1zalh4ov2f,g428lRzN,2020-0188,2020-05-21,17:30:33,17:44:57,NA,incomplete,30,color,1,left,Red_Star_Stripes_2.jpg,Red_Circle_Chess_3.jpg,Green_Triangle_Grid_2.jpg,right,737.5149999861605,false,low,NA,NA,NA,NA,NA,NA,NA,false
g428lRzN,338glsui56olvzhlkxidlboc564sfp,3v0z7ywsi2dj9hk7hzdd1zalh4ov2f,g428lRzN,2020-0188,2020-05-21,17:30:33,17:44:57,NA,incomplete,31,color,1,left,Red_Triangle_Chess_3.jpg,Red_Star_Grid_4.jpg,Blue_Plus_Dots_3.jpg,left,762.300000002142,true,low,NA,NA,NA,NA,NA,NA,NA,false
g428lRzN,338glsui56olvzhlkxidlboc564sfp,3v0z7ywsi2dj9hk7hzdd1zalh4ov2f,g428lRzN,2020-0188,2020-05-21,17:30:33,17:44:57,NA,incomplete,32,color,0,left,Red_Triangle_Dots_1.jpg,Red_Circle_Stripes_2.jpg,Blue_Star_Chess_1.jpg,left,743.2149999658577,true,low,NA,NA,NA,NA,NA,NA,NA,false
g428lRzN,338glsui56olvzhlkxidlboc564sfp,3v0z7ywsi2dj9hk7hzdd1zalh4ov2f,g428lRzN,2020-0188,2020-05-21,17:30:33,17:44:57,NA,incomplete,33,color,1,left,Blue_Plus_Grid_3.jpg,Blue_Star_Chess_1.jpg,Red_Circle_Stripes_3.jpg,left,1111.4449999877252,true,low,NA,NA,NA,NA,NA,NA,NA,false
g428lRzN,338glsui56olvzhlkxidlboc564sfp,3v0z7ywsi2dj9hk7hzdd1zalh4ov2f,g428lRzN,2020-0188,2020-05-21,17:30:33,17:44:57,NA,incomplete,34,color,1,right,Red_Plus_Dots_4.jpg,Purple_Star_Chess_4.jpg,Red_Circle_Grid_1.jpg,right,826.3300000107847,true,low,NA,NA,NA,NA,NA,NA,NA,false
g428lRzN,338glsui56olvzhlkxidlboc564sfp,3v0z7ywsi2dj9hk7hzdd1zalh4ov2f,g428lRzN,2020-0188,2020-05-21,17:30:33,17:44:57,NA,incomplete,35,color,1,right,Purple_Triangle_Chess_4.jpg,Green_Star_Stripes_4.jpg,Purple_Circle_Dots_2.jpg,right,671.1399999912828,true,low,NA,NA,NA,NA,NA,NA,NA,false
g428lRzN,338glsui56olvzhlkxidlboc564sfp,3v0z7ywsi2dj9hk7hzdd1zalh4ov2f,g428lRzN,2020-0188,2020-05-21,17:30:33,17:44:57,NA,incomplete,36,color,1,left,Red_Triangle_Stripes_4.jpg,Red_Circle_Grid_1.jpg,Blue_Star_Chess_4.jpg,left,710.0150000187568,true,low,NA,NA,NA,NA,NA,NA,NA,false
g428lRzN,338glsui56olvzhlkxidlboc564sfp,3v0z7ywsi2dj9hk7hzdd1zalh4ov2f,g428lRzN,2020-0188,2020-05-21,17:30:33,17:44:57,NA,incomplete,37,color,1,right,Green_Plus_Chess_1.jpg,Purple_Circle_Stripes_1.jpg,Green_Triangle_Grid_2.jpg,right,568.0450000218116,true,low,NA,NA,NA,NA,NA,NA,NA,false
g428lRzN,338glsui56olvzhlkxidlboc564sfp,3v0z7ywsi2dj9hk7hzdd1zalh4ov2f,g428lRzN,2020-0188,2020-05-21,17:30:33,17:44:57,NA,incomplete,38,color,1,left,Green_Triangle_Grid_4.jpg,Green_Circle_Stripes_2.jpg,Purple_Plus_Chess_4.jpg,left,726.2200000113808,true,low,NA,NA,NA,NA,NA,NA,NA,false
g428lRzN,338glsui56olvzhlkxidlboc564sfp,3v0z7ywsi2dj9hk7hzdd1zalh4ov2f,g428lRzN,2020-0188,2020-05-21,17:30:33,17:44:57,NA,incomplete,39,color,1,right,Blue_Circle_Chess_4.jpg,Purple_Triangle_Dots_4.jpg,Blue_Plus_Stripes_1.jpg,right,737.0600000140257,true,low,NA,NA,NA,NA,NA,NA,NA,false
g428lRzN,338glsui56olvzhlkxidlboc564sfp,3v0z7ywsi2dj9hk7hzdd1zalh4ov2f,g428lRzN,2020-0188,2020-05-21,17:30:33,17:44:57,NA,incomplete,40,color,1,left,Purple_Circle_Stripes_1.jpg,Purple_Triangle_Chess_4.jpg,Blue_Star_Grid_1.jpg,left,665.6300000031479,true,low,NA,NA,NA,NA,NA,NA,NA,false
g428lRzN,338glsui56olvzhlkxidlboc564sfp,3v0z7ywsi2dj9hk7hzdd1zalh4ov2f,g428lRzN,2020-0188,2020-05-21,17:30:33,17:44:57,NA,incomplete,41,color,1,right,Purple_Star_Grid_2.jpg,Blue_Circle_Dots_2.jpg,Purple_Triangle_Chess_4.jpg,right,790.900000021793,true,low,NA,NA,NA,NA,NA,NA,NA,false
g428lRzN,338glsui56olvzhlkxidlboc564sfp,3v0z7ywsi2dj9hk7hzdd1zalh4ov2f,g428lRzN,2020-0188,2020-05-21,17:30:33,17:44:57,NA,incomplete,42,color,0,left,Blue_Circle_Stripes_2.jpg,Blue_Star_Grid_4.jpg,Purple_Triangle_Chess_2.jpg,left,524.4550000061281,true,low,NA,NA,NA,NA,NA,NA,NA,false
g428lRzN,338glsui56olvzhlkxidlboc564sfp,3v0z7ywsi2dj9hk7hzdd1zalh4ov2f,g428lRzN,2020-0188,2020-05-21,17:30:33,17:44:57,NA,incomplete,43,color,1,right,Blue_Triangle_Grid_3.jpg,Red_Plus_Dots_3.jpg,Blue_Circle_Chess_1.jpg,right,534.4850000110455,true,low,NA,NA,NA,NA,NA,NA,NA,false
g428lRzN,338glsui56olvzhlkxidlboc564sfp,3v0z7ywsi2dj9hk7hzdd1zalh4ov2f,g428lRzN,2020-0188,2020-05-21,17:30:33,17:44:57,NA,incomplete,44,color,1,left,Blue_Plus_Dots_4.jpg,Blue_Circle_Grid_2.jpg,Purple_Triangle_Chess_4.jpg,left,574.9700000160374,true,low,NA,NA,NA,NA,NA,NA,NA,false
g428lRzN,338glsui56olvzhlkxidlboc564sfp,3v0z7ywsi2dj9hk7hzdd1zalh4ov2f,g428lRzN,2020-0188,2020-05-21,17:30:33,17:44:57,NA,incomplete,45,color,0,right,Purple_Triangle_Chess_2.jpg,Green_Circle_Stripes_2.jpg,Purple_Plus_Dots_1.jpg,right,610.7799999881536,true,low,NA,NA,NA,NA,NA,NA,NA,false
g428lRzN,338glsui56olvzhlkxidlboc564sfp,3v0z7ywsi2dj9hk7hzdd1zalh4ov2f,g428lRzN,2020-0188,2020-05-21,17:30:33,17:44:57,NA,incomplete,46,color,1,left,Red_Plus_Dots_4.jpg,Red_Triangle_Stripes_2.jpg,Blue_Star_Grid_4.jpg,left,832.7549999812618,true,low,NA,NA,NA,NA,NA,NA,NA,false
g428lRzN,338glsui56olvzhlkxidlboc564sfp,3v0z7ywsi2dj9hk7hzdd1zalh4ov2f,g428lRzN,2020-0188,2020-05-21,17:30:33,17:44:57,NA,incomplete,47,color,1,right,Purple_Circle_Stripes_1.jpg,Green_Triangle_Chess_1.jpg,Purple_Star_Grid_4.jpg,right,529.2349999654107,true,low,NA,NA,NA,NA,NA,NA,NA,false
g428lRzN,338glsui56olvzhlkxidlboc564sfp,3v0z7ywsi2dj9hk7hzdd1zalh4ov2f,g428lRzN,2020-0188,2020-05-21,17:30:33,17:44:57,NA,incomplete,48,color,1,right,Green_Triangle_Chess_2.jpg,Purple_Star_Dots_2.jpg,Green_Circle_Stripes_4.jpg,right,480.31000001356006,true,low,NA,NA,NA,NA,NA,NA,NA,false
g428lRzN,338glsui56olvzhlkxidlboc564sfp,3v0z7ywsi2dj9hk7hzdd1zalh4ov2f,g428lRzN,2020-0188,2020-05-21,17:30:33,17:44:57,NA,incomplete,49,color,1,left,Green_Plus_Chess_1.jpg,Green_Circle_Grid_2.jpg,Blue_Star_Dots_1.jpg,left,508.74999997904524,true,low,NA,NA,NA,NA,NA,NA,NA,false
g428lRzN,338glsui56olvzhlkxidlboc564sfp,3v0z7ywsi2dj9hk7hzdd1zalh4ov2f,g428lRzN,2020-0188,2020-05-21,17:30:33,17:44:57,NA,incomplete,50,color,1,right,Purple_Plus_Stripes_3.jpg,Blue_Circle_Grid_3.jpg,Purple_Star_Chess_2.jpg,right,600.1449999748729,true,low,NA,NA,NA,NA,NA,NA,NA,false
g428lRzN,338glsui56olvzhlkxidlboc564sfp,3v0z7ywsi2dj9hk7hzdd1zalh4ov2f,g428lRzN,2020-0188,2020-05-21,17:30:33,17:44:57,NA,incomplete,51,color,1,right,Blue_Triangle_Chess_4.jpg,Red_Star_Grid_4.jpg,Blue_Plus_Dots_2.jpg,left,689.9800000246614,false,low,NA,NA,NA,NA,NA,NA,NA,false
g428lRzN,338glsui56olvzhlkxidlboc564sfp,3v0z7ywsi2dj9hk7hzdd1zalh4ov2f,g428lRzN,2020-0188,2020-05-21,17:30:33,17:44:57,NA,incomplete,52,color,0,right,Red_Circle_Dots_2.jpg,Blue_Triangle_Chess_2.jpg,Red_Star_Grid_1.jpg,right,796.2950000073761,true,low,NA,NA,NA,NA,NA,NA,NA,false
g428lRzN,338glsui56olvzhlkxidlboc564sfp,3v0z7ywsi2dj9hk7hzdd1zalh4ov2f,g428lRzN,2020-0188,2020-05-21,17:30:33,17:44:57,NA,incomplete,53,color,1,left,Red_Circle_Dots_3.jpg,Red_Plus_Grid_4.jpg,Blue_Triangle_Stripes_3.jpg,left,878.194999997504,true,low,NA,NA,NA,NA,NA,NA,NA,false
g428lRzN,338glsui56olvzhlkxidlboc564sfp,3v0z7ywsi2dj9hk7hzdd1zalh4ov2f,g428lRzN,2020-0188,2020-05-21,17:30:33,17:44:57,NA,incomplete,54,color,0,right,Blue_Star_Stripes_3.jpg,Red_Plus_Grid_3.jpg,Blue_Circle_Dots_4.jpg,right,906.8550000083633,true,low,NA,NA,NA,NA,NA,NA,NA,false
g428lRzN,338glsui56olvzhlkxidlboc564sfp,3v0z7ywsi2dj9hk7hzdd1zalh4ov2f,g428lRzN,2020-0188,2020-05-21,17:30:33,17:44:57,NA,incomplete,55,color,0,right,Purple_Triangle_Chess_2.jpg,Blue_Star_Dots_2.jpg,Purple_Plus_Stripes_4.jpg,right,584.934999991674,true,low,NA,NA,NA,NA,NA,NA,NA,false
g428lRzN,338glsui56olvzhlkxidlboc564sfp,3v0z7ywsi2dj9hk7hzdd1zalh4ov2f,g428lRzN,2020-0188,2020-05-21,17:30:33,17:44:57,NA,incomplete,56,color,1,left,Red_Plus_Chess_3.jpg,Red_Triangle_Stripes_4.jpg,Blue_Star_Dots_3.jpg,right,1003.7499999743886,false,low,NA,NA,NA,NA,NA,NA,NA,false
g428lRzN,338glsui56olvzhlkxidlboc564sfp,3v0z7ywsi2dj9hk7hzdd1zalh4ov2f,g428lRzN,2020-0188,2020-05-21,17:30:33,17:44:57,NA,incomplete,57,color,1,right,Red_Star_Chess_2.jpg,Blue_Circle_Stripes_2.jpg,Red_Plus_Grid_4.jpg,left,1136.7450000252575,false,low,NA,NA,NA,NA,NA,NA,NA,false
g428lRzN,338glsui56olvzhlkxidlboc564sfp,3v0z7ywsi2dj9hk7hzdd1zalh4ov2f,g428lRzN,2020-0188,2020-05-21,17:30:33,17:44:57,NA,incomplete,58,color,0,right,Red_Star_Grid_1.jpg,Blue_Circle_Dots_1.jpg,Red_Plus_Stripes_4.jpg,right,790.1699999929406,true,low,NA,NA,NA,NA,NA,NA,NA,false
g428lRzN,338glsui56olvzhlkxidlboc564sfp,3v0z7ywsi2dj9hk7hzdd1zalh4ov2f,g428lRzN,2020-0188,2020-05-21,17:30:33,17:44:57,NA,incomplete,59,color,1,right,Purple_Star_Dots_4.jpg,Red_Plus_Grid_4.jpg,Purple_Triangle_Stripes_2.jpg,left,736.7649999796413,false,low,NA,NA,NA,NA,NA,NA,NA,false
g428lRzN,338glsui56olvzhlkxidlboc564sfp,3v0z7ywsi2dj9hk7hzdd1zalh4ov2f,g428lRzN,2020-0188,2020-05-21,17:30:33,17:44:57,NA,incomplete,60,number,1,left,Green_Star_Stripes_1.jpg,Purple_Circle_Dots_1.jpg,Green_Plus_Grid_4.jpg,left,821.8149999738671,true,low,NA,NA,NA,NA,NA,NA,NA,false
g428lRzN,338glsui56olvzhlkxidlboc564sfp,3v0z7ywsi2dj9hk7hzdd1zalh4ov2f,g428lRzN,2020-0188,2020-05-21,17:30:33,17:44:57,NA,incomplete,61,number,1,left,Red_Plus_Stripes_3.jpg,Purple_Star_Grid_3.jpg,Red_Triangle_Chess_2.jpg,left,671.1449999711476,true,low,NA,NA,NA,NA,NA,NA,NA,false
g428lRzN,338glsui56olvzhlkxidlboc564sfp,3v0z7ywsi2dj9hk7hzdd1zalh4ov2f,g428lRzN,2020-0188,2020-05-21,17:30:33,17:44:57,NA,incomplete,62,number,1,right,Green_Circle_Grid_1.jpg,Green_Star_Chess_4.jpg,Red_Plus_Stripes_1.jpg,right,699.5100000058301,true,low,NA,NA,NA,NA,NA,NA,NA,false
g428lRzN,338glsui56olvzhlkxidlboc564sfp,3v0z7ywsi2dj9hk7hzdd1zalh4ov2f,g428lRzN,2020-0188,2020-05-21,17:30:33,17:44:57,NA,incomplete,63,number,1,left,Purple_Star_Stripes_4.jpg,Red_Plus_Grid_4.jpg,Purple_Triangle_Chess_2.jpg,left,522.1649999730289,true,low,NA,NA,NA,NA,NA,NA,NA,false
g428lRzN,338glsui56olvzhlkxidlboc564sfp,3v0z7ywsi2dj9hk7hzdd1zalh4ov2f,g428lRzN,2020-0188,2020-05-21,17:30:33,17:44:57,NA,incomplete,64,number,1,left,Red_Star_Chess_4.jpg,Purple_Triangle_Stripes_4.jpg,Red_Plus_Grid_1.jpg,left,965.299999981653,true,low,NA,NA,NA,NA,NA,NA,NA,false
g428lRzN,338glsui56olvzhlkxidlboc564sfp,3v0z7ywsi2dj9hk7hzdd1zalh4ov2f,g428lRzN,2020-0188,2020-05-21,17:30:33,17:44:57,NA,incomplete,65,number,0,right,Green_Star_Chess_4.jpg,Green_Triangle_Stripes_3.jpg,Purple_Circle_Grid_4.jpg,right,464.2599999788217,true,low,NA,NA,NA,NA,NA,NA,NA,false
g428lRzN,338glsui56olvzhlkxidlboc564sfp,3v0z7ywsi2dj9hk7hzdd1zalh4ov2f,g428lRzN,2020-0188,2020-05-21,17:30:33,17:44:57,NA,incomplete,66,number,0,left,Purple_Circle_Stripes_3.jpg,Blue_Plus_Chess_3.jpg,Purple_Triangle_Grid_2.jpg,left,855.600000009872,true,low,NA,NA,NA,NA,NA,NA,NA,false
g428lRzN,338glsui56olvzhlkxidlboc564sfp,3v0z7ywsi2dj9hk7hzdd1zalh4ov2f,g428lRzN,2020-0188,2020-05-21,17:30:33,17:44:57,NA,incomplete,67,number,1,right,Red_Plus_Grid_2.jpg,Red_Circle_Stripes_1.jpg,Purple_Star_Dots_2.jpg,left,785.9699999680743,false,low,NA,NA,NA,NA,NA,NA,NA,false
g428lRzN,338glsui56olvzhlkxidlboc564sfp,3v0z7ywsi2dj9hk7hzdd1zalh4ov2f,g428lRzN,2020-0188,2020-05-21,17:30:33,17:44:57,NA,incomplete,68,number,1,right,Blue_Star_Chess_2.jpg,Blue_Plus_Dots_1.jpg,Green_Circle_Grid_2.jpg,right,714.4100000150502,true,low,NA,NA,NA,NA,NA,NA,NA,false
g428lRzN,338glsui56olvzhlkxidlboc564sfp,3v0z7ywsi2dj9hk7hzdd1zalh4ov2f,g428lRzN,2020-0188,2020-05-21,17:30:33,17:44:57,NA,incomplete,69,number,1,right,Green_Circle_Grid_3.jpg,Green_Triangle_Chess_4.jpg,Purple_Star_Dots_3.jpg,right,762.1949999593198,true,low,NA,NA,NA,NA,NA,NA,NA,false
g428lRzN,338glsui56olvzhlkxidlboc564sfp,3v0z7ywsi2dj9hk7hzdd1zalh4ov2f,g428lRzN,2020-0188,2020-05-21,17:30:33,17:44:57,NA,incomplete,70,number,1,right,Blue_Triangle_Stripes_3.jpg,Blue_Plus_Chess_4.jpg,Red_Star_Grid_3.jpg,right,785.8649999834597,true,low,NA,NA,NA,NA,NA,NA,NA,false
g428lRzN,338glsui56olvzhlkxidlboc564sfp,3v0z7ywsi2dj9hk7hzdd1zalh4ov2f,g428lRzN,2020-0188,2020-05-21,17:30:33,17:44:57,NA,incomplete,71,number,1,right,Red_Circle_Stripes_1.jpg,Red_Plus_Grid_4.jpg,Green_Triangle_Dots_1.jpg,right,803.6650000140071,true,low,NA,NA,NA,NA,NA,NA,NA,false
g428lRzN,338glsui56olvzhlkxidlboc564sfp,3v0z7ywsi2dj9hk7hzdd1zalh4ov2f,g428lRzN,2020-0188,2020-05-21,17:30:33,17:44:57,NA,incomplete,72,number,0,left,Red_Star_Stripes_3.jpg,Green_Plus_Grid_3.jpg,Red_Triangle_Chess_2.jpg,left,669.7350000031292,true,low,NA,NA,NA,NA,NA,NA,NA,false
g428lRzN,338glsui56olvzhlkxidlboc564sfp,3v0z7ywsi2dj9hk7hzdd1zalh4ov2f,g428lRzN,2020-0188,2020-05-21,17:30:33,17:44:57,NA,incomplete,73,number,1,right,Green_Triangle_Chess_3.jpg,Green_Circle_Grid_1.jpg,Blue_Plus_Dots_3.jpg,right,694.6200000238605,true,low,NA,NA,NA,NA,NA,NA,NA,false
g428lRzN,338glsui56olvzhlkxidlboc564sfp,3v0z7ywsi2dj9hk7hzdd1zalh4ov2f,g428lRzN,2020-0188,2020-05-21,17:30:33,17:44:57,NA,incomplete,74,number,1,left,Blue_Plus_Grid_3.jpg,Red_Triangle_Chess_3.jpg,Blue_Circle_Dots_1.jpg,left,575.0199999893084,true,low,NA,NA,NA,NA,NA,NA,NA,false
g428lRzN,338glsui56olvzhlkxidlboc564sfp,3v0z7ywsi2dj9hk7hzdd1zalh4ov2f,g428lRzN,2020-0188,2020-05-21,17:30:33,17:44:57,NA,incomplete,75,number,1,right,Purple_Circle_Stripes_2.jpg,Purple_Triangle_Grid_4.jpg,Red_Plus_Chess_2.jpg,right,862.569999997504,true,low,NA,NA,NA,NA,NA,NA,NA,false
g428lRzN,338glsui56olvzhlkxidlboc564sfp,3v0z7ywsi2dj9hk7hzdd1zalh4ov2f,g428lRzN,2020-0188,2020-05-21,17:30:33,17:44:57,NA,incomplete,76,number,1,left,Purple_Plus_Chess_1.jpg,Blue_Circle_Grid_1.jpg,Purple_Star_Stripes_3.jpg,left,697.1400000038557,true,low,NA,NA,NA,NA,NA,NA,NA,false
g428lRzN,338glsui56olvzhlkxidlboc564sfp,3v0z7ywsi2dj9hk7hzdd1zalh4ov2f,g428lRzN,2020-0188,2020-05-21,17:30:33,17:44:57,NA,incomplete,77,number,1,left,Blue_Star_Chess_3.jpg,Green_Triangle_Grid_3.jpg,Blue_Circle_Dots_4.jpg,left,980.7300000102259,true,low,NA,NA,NA,NA,NA,NA,NA,false
g428lRzN,338glsui56olvzhlkxidlboc564sfp,3v0z7ywsi2dj9hk7hzdd1zalh4ov2f,g428lRzN,2020-0188,2020-05-21,17:30:33,17:44:57,NA,incomplete,78,number,1,right,Red_Circle_Grid_1.jpg,Red_Triangle_Stripes_4.jpg,Green_Star_Chess_1.jpg,right,610.8799999929033,true,low,NA,NA,NA,NA,NA,NA,NA,false
g428lRzN,338glsui56olvzhlkxidlboc564sfp,3v0z7ywsi2dj9hk7hzdd1zalh4ov2f,g428lRzN,2020-0188,2020-05-21,17:30:33,17:44:57,NA,incomplete,79,number,1,right,Purple_Triangle_Dots_4.jpg,Purple_Star_Stripes_2.jpg,Blue_Circle_Grid_4.jpg,right,717.6750000216998,true,low,NA,NA,NA,NA,NA,NA,NA,false
g428lRzN,338glsui56olvzhlkxidlboc564sfp,3v0z7ywsi2dj9hk7hzdd1zalh4ov2f,g428lRzN,2020-0188,2020-05-21,17:30:33,17:44:57,NA,incomplete,80,number,1,right,Green_Star_Grid_1.jpg,Green_Plus_Dots_4.jpg,Blue_Triangle_Chess_1.jpg,right,631.775000016205,true,low,NA,NA,NA,NA,NA,NA,NA,false
g428lRzN,338glsui56olvzhlkxidlboc564sfp,3v0z7ywsi2dj9hk7hzdd1zalh4ov2f,g428lRzN,2020-0188,2020-05-21,17:30:33,17:44:57,NA,incomplete,81,number,0,right,Red_Circle_Grid_2.jpg,Red_Star_Dots_1.jpg,Blue_Plus_Chess_2.jpg,right,699.689999979455,true,low,NA,NA,NA,NA,NA,NA,NA,false
g428lRzN,338glsui56olvzhlkxidlboc564sfp,3v0z7ywsi2dj9hk7hzdd1zalh4ov2f,g428lRzN,2020-0188,2020-05-21,17:30:33,17:44:57,NA,incomplete,82,number,1,right,Red_Triangle_Stripes_2.jpg,Red_Circle_Dots_3.jpg,Blue_Star_Grid_2.jpg,right,806.6600000020117,true,low,NA,NA,NA,NA,NA,NA,NA,false
g428lRzN,338glsui56olvzhlkxidlboc564sfp,3v0z7ywsi2dj9hk7hzdd1zalh4ov2f,g428lRzN,2020-0188,2020-05-21,17:30:33,17:44:57,NA,incomplete,83,number,0,right,Green_Plus_Dots_1.jpg,Green_Circle_Grid_3.jpg,Red_Star_Stripes_1.jpg,right,711.9099999545142,true,low,NA,NA,NA,NA,NA,NA,NA,false
g428lRzN,338glsui56olvzhlkxidlboc564sfp,3v0z7ywsi2dj9hk7hzdd1zalh4ov2f,g428lRzN,2020-0188,2020-05-21,17:30:33,17:44:57,NA,incomplete,84,number,1,right,Red_Star_Dots_1.jpg,Red_Circle_Stripes_3.jpg,Blue_Triangle_Grid_1.jpg,right,916.6149999946356,true,low,NA,NA,NA,NA,NA,NA,NA,false
g428lRzN,338glsui56olvzhlkxidlboc564sfp,3v0z7ywsi2dj9hk7hzdd1zalh4ov2f,g428lRzN,2020-0188,2020-05-21,17:30:33,17:44:57,NA,incomplete,85,number,1,left,Purple_Star_Grid_4.jpg,Green_Circle_Chess_4.jpg,Purple_Plus_Dots_1.jpg,left,820.6600000266917,true,low,NA,NA,NA,NA,NA,NA,NA,false
g428lRzN,338glsui56olvzhlkxidlboc564sfp,3v0z7ywsi2dj9hk7hzdd1zalh4ov2f,g428lRzN,2020-0188,2020-05-21,17:30:33,17:44:57,NA,incomplete,86,number,1,left,Blue_Triangle_Stripes_3.jpg,Green_Star_Dots_3.jpg,Blue_Circle_Chess_4.jpg,left,836.7250000010245,true,low,NA,NA,NA,NA,NA,NA,NA,false
g428lRzN,338glsui56olvzhlkxidlboc564sfp,3v0z7ywsi2dj9hk7hzdd1zalh4ov2f,g428lRzN,2020-0188,2020-05-21,17:30:33,17:44:57,NA,incomplete,87,number,1,right,Purple_Triangle_Chess_1.jpg,Purple_Circle_Dots_2.jpg,Blue_Star_Stripes_1.jpg,right,738.4849999798462,true,low,NA,NA,NA,NA,NA,NA,NA,false
g428lRzN,338glsui56olvzhlkxidlboc564sfp,3v0z7ywsi2dj9hk7hzdd1zalh4ov2f,g428lRzN,2020-0188,2020-05-21,17:30:33,17:44:57,NA,incomplete,88,number,0,left,Green_Triangle_Dots_1.jpg,Blue_Circle_Stripes_1.jpg,Green_Plus_Chess_4.jpg,left,690.439999976661,true,low,NA,NA,NA,NA,NA,NA,NA,false
g428lRzN,338glsui56olvzhlkxidlboc564sfp,3v0z7ywsi2dj9hk7hzdd1zalh4ov2f,g428lRzN,2020-0188,2020-05-21,17:30:33,17:44:57,NA,incomplete,89,number,1,right,Green_Plus_Dots_3.jpg,Green_Circle_Stripes_2.jpg,Red_Triangle_Grid_3.jpg,right,834.340000001248,true,low,NA,NA,NA,NA,NA,NA,NA,false
g428lRzN,338glsui56olvzhlkxidlboc564sfp,3v0z7ywsi2dj9hk7hzdd1zalh4ov2f,g428lRzN,2020-0188,2020-05-21,17:30:33,17:44:57,NA,incomplete,90,color,1,left,Red_Star_Chess_4.jpg,Red_Plus_Stripes_3.jpg,Green_Triangle_Dots_4.jpg,left,940.5600000172853,true,low,NA,NA,NA,NA,NA,NA,NA,false
g428lRzN,338glsui56olvzhlkxidlboc564sfp,3v0z7ywsi2dj9hk7hzdd1zalh4ov2f,g428lRzN,2020-0188,2020-05-21,17:30:33,17:44:57,NA,incomplete,91,color,0,left,Red_Triangle_Chess_4.jpg,Red_Plus_Grid_3.jpg,Green_Star_Dots_4.jpg,left,727.50499995891,true,low,NA,NA,NA,NA,NA,NA,NA,false
g428lRzN,338glsui56olvzhlkxidlboc564sfp,3v0z7ywsi2dj9hk7hzdd1zalh4ov2f,g428lRzN,2020-0188,2020-05-21,17:30:33,17:44:57,NA,incomplete,92,color,1,right,Blue_Circle_Dots_2.jpg,Red_Plus_Chess_2.jpg,Blue_Star_Stripes_4.jpg,left,913.025000016205,false,low,NA,NA,NA,NA,NA,NA,NA,false
g428lRzN,338glsui56olvzhlkxidlboc564sfp,3v0z7ywsi2dj9hk7hzdd1zalh4ov2f,g428lRzN,2020-0188,2020-05-21,17:30:33,17:44:57,NA,incomplete,93,color,0,left,Blue_Circle_Chess_4.jpg,Blue_Triangle_Dots_2.jpg,Red_Plus_Grid_4.jpg,left,894.2199999582954,true,low,NA,NA,NA,NA,NA,NA,NA,false
g428lRzN,338glsui56olvzhlkxidlboc564sfp,3v0z7ywsi2dj9hk7hzdd1zalh4ov2f,g428lRzN,2020-0188,2020-05-21,17:30:33,17:44:57,NA,incomplete,94,color,0,right,Blue_Circle_Stripes_2.jpg,Purple_Plus_Grid_2.jpg,Blue_Star_Chess_1.jpg,left,1158.2950000301935,false,low,NA,NA,NA,NA,NA,NA,NA,false
g428lRzN,338glsui56olvzhlkxidlboc564sfp,3v0z7ywsi2dj9hk7hzdd1zalh4ov2f,g428lRzN,2020-0188,2020-05-21,17:30:33,17:44:57,NA,incomplete,95,color,1,right,Green_Plus_Dots_2.jpg,Blue_Circle_Grid_2.jpg,Green_Star_Chess_1.jpg,left,1059.270000027027,false,low,NA,NA,NA,NA,NA,NA,NA,false
g428lRzN,338glsui56olvzhlkxidlboc564sfp,3v0z7ywsi2dj9hk7hzdd1zalh4ov2f,g428lRzN,2020-0188,2020-05-21,17:30:33,17:44:57,NA,incomplete,96,color,1,left,Green_Plus_Dots_3.jpg,Green_Triangle_Stripes_2.jpg,Purple_Star_Chess_3.jpg,right,1072.2749999840744,false,low,NA,NA,NA,NA,NA,NA,NA,false
g428lRzN,338glsui56olvzhlkxidlboc564sfp,3v0z7ywsi2dj9hk7hzdd1zalh4ov2f,g428lRzN,2020-0188,2020-05-21,17:30:33,17:44:57,NA,incomplete,97,color,1,right,Green_Triangle_Grid_4.jpg,Blue_Star_Stripes_4.jpg,Green_Plus_Dots_2.jpg,right,808.359999966342,true,low,NA,NA,NA,NA,NA,NA,NA,false
g428lRzN,338glsui56olvzhlkxidlboc564sfp,3v0z7ywsi2dj9hk7hzdd1zalh4ov2f,g428lRzN,2020-0188,2020-05-21,17:30:33,17:44:57,NA,incomplete,98,color,1,left,Purple_Circle_Stripes_3.jpg,Purple_Plus_Grid_2.jpg,Green_Triangle_Chess_3.jpg,left,591.2549999775365,true,low,NA,NA,NA,NA,NA,NA,NA,false
g428lRzN,338glsui56olvzhlkxidlboc564sfp,3v0z7ywsi2dj9hk7hzdd1zalh4ov2f,g428lRzN,2020-0188,2020-05-21,17:30:33,17:44:57,NA,incomplete,99,color,0,right,Green_Plus_Chess_3.jpg,Blue_Star_Grid_3.jpg,Green_Triangle_Dots_4.jpg,right,534.4100000220351,true,low,NA,NA,NA,NA,NA,NA,NA,false
g428lRzN,338glsui56olvzhlkxidlboc564sfp,3v0z7ywsi2dj9hk7hzdd1zalh4ov2f,g428lRzN,2020-0188,2020-05-21,17:30:33,17:44:57,NA,incomplete,100,color,1,right,Purple_Star_Chess_4.jpg,Blue_Triangle_Dots_4.jpg,Purple_Plus_Stripes_2.jpg,right,548.4750000177883,true,low,NA,NA,NA,NA,NA,NA,NA,false
g428lRzN,338glsui56olvzhlkxidlboc564sfp,3v0z7ywsi2dj9hk7hzdd1zalh4ov2f,g428lRzN,2020-0188,2020-05-21,17:30:33,17:44:57,NA,incomplete,101,color,1,left,Red_Star_Stripes_1.jpg,Red_Plus_Grid_4.jpg,Blue_Triangle_Chess_1.jpg,left,537.7500000176951,true,low,NA,NA,NA,NA,NA,NA,NA,false
g428lRzN,338glsui56olvzhlkxidlboc564sfp,3v0z7ywsi2dj9hk7hzdd1zalh4ov2f,g428lRzN,2020-0188,2020-05-21,17:30:33,17:44:57,NA,incomplete,102,color,1,right,Red_Plus_Dots_1.jpg,Green_Star_Grid_1.jpg,Red_Triangle_Stripes_2.jpg,right,601.4900000300258,true,low,NA,NA,NA,NA,NA,NA,NA,false
g428lRzN,338glsui56olvzhlkxidlboc564sfp,3v0z7ywsi2dj9hk7hzdd1zalh4ov2f,g428lRzN,2020-0188,2020-05-21,17:30:33,17:44:57,NA,incomplete,103,color,1,left,Red_Triangle_Grid_1.jpg,Red_Circle_Chess_4.jpg,Purple_Plus_Stripes_1.jpg,left,591.6150000412017,true,low,NA,NA,NA,NA,NA,NA,NA,false
g428lRzN,338glsui56olvzhlkxidlboc564sfp,3v0z7ywsi2dj9hk7hzdd1zalh4ov2f,g428lRzN,2020-0188,2020-05-21,17:30:33,17:44:57,NA,incomplete,104,color,0,right,Green_Plus_Dots_3.jpg,Blue_Triangle_Grid_3.jpg,Green_Circle_Chess_1.jpg,right,598.3499999856576,true,low,NA,NA,NA,NA,NA,NA,NA,false
g428lRzN,338glsui56olvzhlkxidlboc564sfp,3v0z7ywsi2dj9hk7hzdd1zalh4ov2f,g428lRzN,2020-0188,2020-05-21,17:30:33,17:44:57,NA,incomplete,105,color,1,left,Purple_Triangle_Chess_4.jpg,Purple_Plus_Stripes_2.jpg,Blue_Circle_Dots_4.jpg,left,560.0950000225566,true,low,NA,NA,NA,NA,NA,NA,NA,false
g428lRzN,338glsui56olvzhlkxidlboc564sfp,3v0z7ywsi2dj9hk7hzdd1zalh4ov2f,g428lRzN,2020-0188,2020-05-21,17:30:33,17:44:57,NA,incomplete,106,color,0,left,Green_Star_Stripes_1.jpg,Green_Plus_Grid_2.jpg,Blue_Triangle_Dots_1.jpg,left,480.5000000051223,true,low,NA,NA,NA,NA,NA,NA,NA,false
g428lRzN,338glsui56olvzhlkxidlboc564sfp,3v0z7ywsi2dj9hk7hzdd1zalh4ov2f,g428lRzN,2020-0188,2020-05-21,17:30:33,17:44:57,NA,incomplete,107,color,1,right,Blue_Plus_Chess_3.jpg,Green_Triangle_Grid_3.jpg,Blue_Circle_Stripes_2.jpg,left,852.7950000134297,false,low,NA,NA,NA,NA,NA,NA,NA,false
g428lRzN,338glsui56olvzhlkxidlboc564sfp,3v0z7ywsi2dj9hk7hzdd1zalh4ov2f,g428lRzN,2020-0188,2020-05-21,17:30:33,17:44:57,NA,incomplete,108,color,1,right,Red_Plus_Stripes_2.jpg,Purple_Triangle_Grid_2.jpg,Red_Circle_Chess_3.jpg,right,734.1449999948964,true,low,NA,NA,NA,NA,NA,NA,NA,false
g428lRzN,338glsui56olvzhlkxidlboc564sfp,3v0z7ywsi2dj9hk7hzdd1zalh4ov2f,g428lRzN,2020-0188,2020-05-21,17:30:33,17:44:57,NA,incomplete,109,color,1,left,Green_Circle_Grid_2.jpg,Green_Triangle_Stripes_1.jpg,Purple_Plus_Dots_2.jpg,left,534.8649999941699,true,low,NA,NA,NA,NA,NA,NA,NA,false
g428lRzN,338glsui56olvzhlkxidlboc564sfp,3v0z7ywsi2dj9hk7hzdd1zalh4ov2f,g428lRzN,2020-0188,2020-05-21,17:30:33,17:44:57,NA,incomplete,110,color,1,left,Purple_Circle_Chess_2.jpg,Purple_Star_Dots_4.jpg,Green_Plus_Stripes_2.jpg,left,811.4950000308454,true,low,NA,NA,NA,NA,NA,NA,NA,false
g428lRzN,338glsui56olvzhlkxidlboc564sfp,3v0z7ywsi2dj9hk7hzdd1zalh4ov2f,g428lRzN,2020-0188,2020-05-21,17:30:33,17:44:57,NA,incomplete,111,color,1,right,Red_Star_Stripes_2.jpg,Green_Plus_Dots_2.jpg,Red_Circle_Grid_1.jpg,right,520.4750000266358,true,low,NA,NA,NA,NA,NA,NA,NA,false
g428lRzN,338glsui56olvzhlkxidlboc564sfp,3v0z7ywsi2dj9hk7hzdd1zalh4ov2f,g428lRzN,2020-0188,2020-05-21,17:30:33,17:44:57,NA,incomplete,112,color,1,right,Purple_Circle_Chess_2.jpg,Blue_Plus_Dots_2.jpg,Purple_Star_Grid_4.jpg,right,501.15000002551824,true,low,NA,NA,NA,NA,NA,NA,NA,false
g428lRzN,338glsui56olvzhlkxidlboc564sfp,3v0z7ywsi2dj9hk7hzdd1zalh4ov2f,g428lRzN,2020-0188,2020-05-21,17:30:33,17:44:57,NA,incomplete,113,color,1,left,Red_Plus_Stripes_1.jpg,Red_Star_Grid_4.jpg,Green_Triangle_Chess_1.jpg,left,539.02000002563,true,low,NA,NA,NA,NA,NA,NA,NA,false
g428lRzN,338glsui56olvzhlkxidlboc564sfp,3v0z7ywsi2dj9hk7hzdd1zalh4ov2f,g428lRzN,2020-0188,2020-05-21,17:30:33,17:44:57,NA,incomplete,114,color,1,left,Blue_Star_Stripes_3.jpg,Blue_Plus_Grid_2.jpg,Purple_Circle_Dots_3.jpg,left,760.9800000209361,true,low,NA,NA,NA,NA,NA,NA,NA,false
g428lRzN,338glsui56olvzhlkxidlboc564sfp,3v0z7ywsi2dj9hk7hzdd1zalh4ov2f,g428lRzN,2020-0188,2020-05-21,17:30:33,17:44:57,NA,incomplete,115,color,1,right,Purple_Star_Chess_1.jpg,Green_Plus_Dots_1.jpg,Purple_Triangle_Grid_4.jpg,right,587.7500000060536,true,low,NA,NA,NA,NA,NA,NA,NA,false
g428lRzN,338glsui56olvzhlkxidlboc564sfp,3v0z7ywsi2dj9hk7hzdd1zalh4ov2f,g428lRzN,2020-0188,2020-05-21,17:30:33,17:44:57,NA,incomplete,116,color,1,left,Green_Star_Grid_3.jpg,Green_Triangle_Stripes_4.jpg,Blue_Plus_Chess_3.jpg,left,495.20500004291534,true,low,NA,NA,NA,NA,NA,NA,NA,false
g428lRzN,338glsui56olvzhlkxidlboc564sfp,3v0z7ywsi2dj9hk7hzdd1zalh4ov2f,g428lRzN,2020-0188,2020-05-21,17:30:33,17:44:57,NA,incomplete,117,color,1,left,Red_Triangle_Dots_4.jpg,Red_Plus_Grid_1.jpg,Blue_Star_Stripes_4.jpg,left,560.204999987036,true,low,NA,NA,NA,NA,NA,NA,NA,false
g428lRzN,338glsui56olvzhlkxidlboc564sfp,3v0z7ywsi2dj9hk7hzdd1zalh4ov2f,g428lRzN,2020-0188,2020-05-21,17:30:33,17:44:57,NA,incomplete,118,color,1,left,Purple_Plus_Chess_3.jpg,Purple_Circle_Stripes_2.jpg,Blue_Star_Dots_3.jpg,left,712.0449999929406,true,low,NA,NA,NA,NA,NA,NA,NA,false
g428lRzN,338glsui56olvzhlkxidlboc564sfp,3v0z7ywsi2dj9hk7hzdd1zalh4ov2f,g428lRzN,2020-0188,2020-05-21,17:30:33,17:44:57,NA,incomplete,119,color,1,left,Green_Circle_Stripes_4.jpg,Green_Star_Grid_3.jpg,Purple_Plus_Chess_4.jpg,left,736.5950000239536,true,low,NA,NA,NA,NA,NA,NA,NA,false
g428lRzN,338glsui56olvzhlkxidlboc564sfp,3v0z7ywsi2dj9hk7hzdd1zalh4ov2f,g428lRzN,2020-0188,2020-05-21,17:30:33,17:44:57,NA,incomplete,120,shape,1,left,Green_Circle_Grid_1.jpg,Purple_Circle_Chess_4.jpg,Red_Star_Grid_3.jpg,NA,NA,NA,low,NA,NA,NA,NA,NA,NA,NA,false
g428lRzN,338glsui56olvzhlkxidlboc564sfp,3v0z7ywsi2dj9hk7hzdd1zalh4ov2f,g428lRzN,2020-0188,2020-05-21,17:30:33,17:44:57,NA,incomplete,121,shape,1,left,Red_Circle_Grid_2.jpg,Purple_Circle_Chess_3.jpg,Green_Plus_Grid_1.jpg,left,874.5450000278652,true,low,NA,NA,NA,NA,NA,NA,NA,false
g428lRzN,338glsui56olvzhlkxidlboc564sfp,3v0z7ywsi2dj9hk7hzdd1zalh4ov2f,g428lRzN,2020-0188,2020-05-21,17:30:33,17:44:57,NA,incomplete,122,shape,1,right,Green_Star_Chess_2.jpg,Blue_Plus_Chess_4.jpg,Red_Star_Grid_1.jpg,right,824.2650000029244,true,low,NA,NA,NA,NA,NA,NA,NA,false
g428lRzN,338glsui56olvzhlkxidlboc564sfp,3v0z7ywsi2dj9hk7hzdd1zalh4ov2f,g428lRzN,2020-0188,2020-05-21,17:30:33,17:44:57,NA,incomplete,123,shape,0,right,Red_Circle_Chess_1.jpg,Blue_Triangle_Chess_2.jpg,Green_Circle_Dots_4.jpg,right,634.8349999752827,true,low,NA,NA,NA,NA,NA,NA,NA,false
g428lRzN,338glsui56olvzhlkxidlboc564sfp,3v0z7ywsi2dj9hk7hzdd1zalh4ov2f,g428lRzN,2020-0188,2020-05-21,17:30:33,17:44:57,NA,incomplete,124,shape,1,left,Green_Triangle_Stripes_1.jpg,Blue_Triangle_Chess_2.jpg,Red_Star_Stripes_4.jpg,left,674.3450000067241,true,low,NA,NA,NA,NA,NA,NA,NA,false
g428lRzN,338glsui56olvzhlkxidlboc564sfp,3v0z7ywsi2dj9hk7hzdd1zalh4ov2f,g428lRzN,2020-0188,2020-05-21,17:30:33,17:44:57,NA,incomplete,125,shape,1,right,Blue_Star_Stripes_3.jpg,Green_Plus_Stripes_4.jpg,Purple_Star_Grid_2.jpg,right,564.4700000411831,true,low,NA,NA,NA,NA,NA,NA,NA,false
g428lRzN,338glsui56olvzhlkxidlboc564sfp,3v0z7ywsi2dj9hk7hzdd1zalh4ov2f,g428lRzN,2020-0188,2020-05-21,17:30:33,17:44:57,NA,incomplete,126,shape,1,right,Green_Star_Chess_3.jpg,Red_Triangle_Chess_1.jpg,Blue_Star_Stripes_2.jpg,right,847.4699999787845,true,low,NA,NA,NA,NA,NA,NA,NA,false
g428lRzN,338glsui56olvzhlkxidlboc564sfp,3v0z7ywsi2dj9hk7hzdd1zalh4ov2f,g428lRzN,2020-0188,2020-05-21,17:30:33,17:44:57,NA,incomplete,127,shape,0,right,Purple_Circle_Stripes_2.jpg,Red_Star_Stripes_3.jpg,Green_Circle_Grid_4.jpg,right,753.035000001546,true,low,NA,NA,NA,NA,NA,NA,NA,false
g428lRzN,338glsui56olvzhlkxidlboc564sfp,3v0z7ywsi2dj9hk7hzdd1zalh4ov2f,g428lRzN,2020-0188,2020-05-21,17:30:33,17:44:57,NA,incomplete,128,shape,1,right,Purple_Triangle_Dots_4.jpg,Green_Circle_Dots_1.jpg,Red_Triangle_Grid_2.jpg,right,677.8300000005402,true,low,NA,NA,NA,NA,NA,NA,NA,false
g428lRzN,338glsui56olvzhlkxidlboc564sfp,3v0z7ywsi2dj9hk7hzdd1zalh4ov2f,g428lRzN,2020-0188,2020-05-21,17:30:33,17:44:57,NA,incomplete,129,shape,1,right,Red_Triangle_Grid_3.jpg,Blue_Star_Grid_2.jpg,Purple_Triangle_Dots_1.jpg,right,665.465000027325,true,low,NA,NA,NA,NA,NA,NA,NA,false
g428lRzN,338glsui56olvzhlkxidlboc564sfp,3v0z7ywsi2dj9hk7hzdd1zalh4ov2f,g428lRzN,2020-0188,2020-05-21,17:30:33,17:44:57,NA,incomplete,130,shape,1,left,Red_Plus_Grid_3.jpg,Purple_Plus_Dots_2.jpg,Green_Star_Grid_4.jpg,left,912.140000029467,true,low,NA,NA,NA,NA,NA,NA,NA,false
g428lRzN,338glsui56olvzhlkxidlboc564sfp,3v0z7ywsi2dj9hk7hzdd1zalh4ov2f,g428lRzN,2020-0188,2020-05-21,17:30:33,17:44:57,NA,incomplete,131,shape,1,left,Purple_Circle_Chess_3.jpg,Blue_Circle_Stripes_1.jpg,Green_Star_Chess_4.jpg,left,661.324999993667,true,low,NA,NA,NA,NA,NA,NA,NA,false
g428lRzN,338glsui56olvzhlkxidlboc564sfp,3v0z7ywsi2dj9hk7hzdd1zalh4ov2f,g428lRzN,2020-0188,2020-05-21,17:30:33,17:44:57,NA,incomplete,132,shape,1,right,Blue_Plus_Chess_4.jpg,Green_Star_Chess_3.jpg,Purple_Plus_Dots_1.jpg,right,829.5749999815598,true,low,NA,NA,NA,NA,NA,NA,NA,false
g428lRzN,338glsui56olvzhlkxidlboc564sfp,3v0z7ywsi2dj9hk7hzdd1zalh4ov2f,g428lRzN,2020-0188,2020-05-21,17:30:33,17:44:57,NA,incomplete,133,shape,0,right,Purple_Star_Dots_2.jpg,Red_Circle_Dots_4.jpg,Blue_Star_Chess_3.jpg,right,787.8400000045076,true,low,NA,NA,NA,NA,NA,NA,NA,false
g428lRzN,338glsui56olvzhlkxidlboc564sfp,3v0z7ywsi2dj9hk7hzdd1zalh4ov2f,g428lRzN,2020-0188,2020-05-21,17:30:33,17:44:57,NA,incomplete,134,shape,1,left,Red_Plus_Grid_3.jpg,Blue_Plus_Chess_4.jpg,Green_Circle_Grid_2.jpg,left,637.4199999845587,true,low,NA,NA,NA,NA,NA,NA,NA,false
g428lRzN,338glsui56olvzhlkxidlboc564sfp,3v0z7ywsi2dj9hk7hzdd1zalh4ov2f,g428lRzN,2020-0188,2020-05-21,17:30:33,17:44:57,NA,incomplete,135,shape,1,left,Purple_Star_Stripes_1.jpg,Green_Star_Chess_4.jpg,Red_Circle_Stripes_3.jpg,left,726.9749999977648,true,low,NA,NA,NA,NA,NA,NA,NA,false
g428lRzN,338glsui56olvzhlkxidlboc564sfp,3v0z7ywsi2dj9hk7hzdd1zalh4ov2f,g428lRzN,2020-0188,2020-05-21,17:30:33,17:44:57,NA,incomplete,136,shape,1,right,Purple_Circle_Grid_1.jpg,Red_Plus_Grid_2.jpg,Blue_Circle_Chess_3.jpg,right,616.7699999641627,true,low,NA,NA,NA,NA,NA,NA,NA,false
g428lRzN,338glsui56olvzhlkxidlboc564sfp,3v0z7ywsi2dj9hk7hzdd1zalh4ov2f,g428lRzN,2020-0188,2020-05-21,17:30:33,17:44:57,NA,incomplete,137,shape,0,right,Blue_Triangle_Dots_4.jpg,Purple_Star_Dots_1.jpg,Green_Triangle_Chess_3.jpg,right,599.3000000016764,true,low,NA,NA,NA,NA,NA,NA,NA,false
g428lRzN,338glsui56olvzhlkxidlboc564sfp,3v0z7ywsi2dj9hk7hzdd1zalh4ov2f,g428lRzN,2020-0188,2020-05-21,17:30:33,17:44:57,NA,incomplete,138,shape,1,left,Green_Star_Stripes_1.jpg,Purple_Star_Grid_3.jpg,Red_Plus_Stripes_2.jpg,left,695.1950000366196,true,low,NA,NA,NA,NA,NA,NA,NA,false
g428lRzN,338glsui56olvzhlkxidlboc564sfp,3v0z7ywsi2dj9hk7hzdd1zalh4ov2f,g428lRzN,2020-0188,2020-05-21,17:30:33,17:44:57,NA,incomplete,139,shape,1,right,Blue_Plus_Stripes_3.jpg,Red_Circle_Stripes_2.jpg,Purple_Plus_Chess_4.jpg,right,584.9600000074133,true,low,NA,NA,NA,NA,NA,NA,NA,false
g428lRzN,338glsui56olvzhlkxidlboc564sfp,3v0z7ywsi2dj9hk7hzdd1zalh4ov2f,g428lRzN,2020-0188,2020-05-21,17:30:33,17:44:57,NA,incomplete,140,filling,1,left,Green_Plus_Grid_2.jpg,Blue_Circle_Grid_1.jpg,Red_Plus_Dots_3.jpg,right,781.1750000109896,false,low,NA,NA,NA,NA,NA,NA,NA,false
g428lRzN,338glsui56olvzhlkxidlboc564sfp,3v0z7ywsi2dj9hk7hzdd1zalh4ov2f,g428lRzN,2020-0188,2020-05-21,17:30:33,17:44:57,NA,incomplete,141,filling,0,left,Blue_Circle_Grid_3.jpg,Green_Triangle_Grid_2.jpg,Purple_Circle_Chess_1.jpg,right,729.0149999898858,false,low,NA,NA,NA,NA,NA,NA,NA,false
g428lRzN,338glsui56olvzhlkxidlboc564sfp,3v0z7ywsi2dj9hk7hzdd1zalh4ov2f,g428lRzN,2020-0188,2020-05-21,17:30:33,17:44:57,NA,incomplete,142,filling,1,right,Purple_Circle_Grid_2.jpg,Green_Circle_Stripes_4.jpg,Blue_Star_Grid_3.jpg,left,1463.7750000110827,false,low,NA,NA,NA,NA,NA,NA,NA,false
g428lRzN,338glsui56olvzhlkxidlboc564sfp,3v0z7ywsi2dj9hk7hzdd1zalh4ov2f,g428lRzN,2020-0188,2020-05-21,17:30:33,17:44:57,NA,incomplete,143,filling,1,right,Red_Circle_Chess_3.jpg,Green_Circle_Dots_4.jpg,Blue_Triangle_Chess_1.jpg,right,942.2800000174902,true,low,NA,NA,NA,NA,NA,NA,NA,false
g428lRzN,338glsui56olvzhlkxidlboc564sfp,3v0z7ywsi2dj9hk7hzdd1zalh4ov2f,g428lRzN,2020-0188,2020-05-21,17:30:33,17:44:57,NA,incomplete,144,filling,1,right,Purple_Star_Grid_1.jpg,Green_Star_Dots_3.jpg,Blue_Triangle_Grid_2.jpg,right,1144.4799999590032,true,low,NA,NA,NA,NA,NA,NA,NA,false
g428lRzN,338glsui56olvzhlkxidlboc564sfp,3v0z7ywsi2dj9hk7hzdd1zalh4ov2f,g428lRzN,2020-0188,2020-05-21,17:30:33,17:44:57,NA,incomplete,145,filling,1,right,Purple_Star_Dots_1.jpg,Blue_Star_Grid_2.jpg,Red_Triangle_Dots_4.jpg,right,1150.5249999463558,true,low,NA,NA,NA,NA,NA,NA,NA,false
g428lRzN,338glsui56olvzhlkxidlboc564sfp,3v0z7ywsi2dj9hk7hzdd1zalh4ov2f,g428lRzN,2020-0188,2020-05-21,17:30:33,17:44:57,NA,incomplete,146,filling,1,right,Purple_Star_Stripes_4.jpg,Blue_Star_Grid_3.jpg,Green_Triangle_Stripes_2.jpg,right,1127.7800000389107,true,low,NA,NA,NA,NA,NA,NA,NA,false
g428lRzN,338glsui56olvzhlkxidlboc564sfp,3v0z7ywsi2dj9hk7hzdd1zalh4ov2f,g428lRzN,2020-0188,2020-05-21,17:30:33,17:44:57,NA,incomplete,147,filling,0,right,Green_Star_Dots_3.jpg,Red_Star_Grid_2.jpg,Blue_Triangle_Dots_1.jpg,right,1015.2499999967404,true,low,NA,NA,NA,NA,NA,NA,NA,false
g428lRzN,338glsui56olvzhlkxidlboc564sfp,3v0z7ywsi2dj9hk7hzdd1zalh4ov2f,g428lRzN,2020-0188,2020-05-21,17:30:33,17:44:57,NA,incomplete,148,filling,1,right,Green_Triangle_Dots_3.jpg,Blue_Triangle_Chess_4.jpg,Purple_Plus_Dots_1.jpg,right,946.7899999581277,true,low,NA,NA,NA,NA,NA,NA,NA,false
g428lRzN,338glsui56olvzhlkxidlboc564sfp,3v0z7ywsi2dj9hk7hzdd1zalh4ov2f,g428lRzN,2020-0188,2020-05-21,17:30:33,17:44:57,NA,incomplete,149,filling,0,left,Blue_Circle_Chess_1.jpg,Purple_Plus_Chess_4.jpg,Green_Circle_Dots_3.jpg,left,958.0200000200421,true,low,NA,NA,NA,NA,NA,NA,NA,false
g428lRzN,338glsui56olvzhlkxidlboc564sfp,3v0z7ywsi2dj9hk7hzdd1zalh4ov2f,g428lRzN,2020-0188,2020-05-21,17:30:33,17:44:57,NA,incomplete,150,filling,1,left,Green_Triangle_Stripes_2.jpg,Blue_Plus_Stripes_3.jpg,Purple_Triangle_Dots_1.jpg,left,989.6300000254996,true,low,NA,NA,NA,NA,NA,NA,NA,false
g428lRzN,338glsui56olvzhlkxidlboc564sfp,3v0z7ywsi2dj9hk7hzdd1zalh4ov2f,g428lRzN,2020-0188,2020-05-21,17:30:33,17:44:57,NA,incomplete,151,filling,1,left,Green_Star_Dots_1.jpg,Blue_Triangle_Dots_4.jpg,Red_Star_Grid_3.jpg,left,1052.9200000455603,true,low,NA,NA,NA,NA,NA,NA,NA,false
g428lRzN,338glsui56olvzhlkxidlboc564sfp,3v0z7ywsi2dj9hk7hzdd1zalh4ov2f,g428lRzN,2020-0188,2020-05-21,17:30:33,17:44:57,NA,incomplete,152,filling,1,right,Red_Star_Chess_1.jpg,Green_Star_Stripes_3.jpg,Purple_Plus_Chess_2.jpg,right,1257.2700000018813,true,low,NA,NA,NA,NA,NA,NA,NA,false
g428lRzN,338glsui56olvzhlkxidlboc564sfp,3v0z7ywsi2dj9hk7hzdd1zalh4ov2f,g428lRzN,2020-0188,2020-05-21,17:30:33,17:44:57,NA,incomplete,153,filling,0,right,Purple_Triangle_Chess_4.jpg,Blue_Triangle_Stripes_1.jpg,Green_Plus_Chess_3.jpg,right,934.720000019297,true,low,NA,NA,NA,NA,NA,NA,NA,false
g428lRzN,338glsui56olvzhlkxidlboc564sfp,3v0z7ywsi2dj9hk7hzdd1zalh4ov2f,g428lRzN,2020-0188,2020-05-21,17:30:33,17:44:57,NA,incomplete,154,filling,1,right,Purple_Triangle_Dots_3.jpg,Green_Triangle_Grid_2.jpg,Blue_Star_Dots_4.jpg,right,860.2649999666028,true,low,NA,NA,NA,NA,NA,NA,NA,false
g428lRzN,338glsui56olvzhlkxidlboc564sfp,3v0z7ywsi2dj9hk7hzdd1zalh4ov2f,g428lRzN,2020-0188,2020-05-21,17:30:33,17:44:57,NA,incomplete,155,filling,1,right,Green_Plus_Stripes_2.jpg,Red_Plus_Chess_3.jpg,Blue_Circle_Stripes_4.jpg,right,1044.8650000034831,true,low,NA,NA,NA,NA,NA,NA,NA,false
g428lRzN,338glsui56olvzhlkxidlboc564sfp,3v0z7ywsi2dj9hk7hzdd1zalh4ov2f,g428lRzN,2020-0188,2020-05-21,17:30:33,17:44:57,NA,incomplete,156,filling,1,left,Purple_Circle_Dots_3.jpg,Green_Plus_Dots_4.jpg,Blue_Circle_Grid_2.jpg,left,867.519999970682,true,low,NA,NA,NA,NA,NA,NA,NA,false
g428lRzN,338glsui56olvzhlkxidlboc564sfp,3v0z7ywsi2dj9hk7hzdd1zalh4ov2f,g428lRzN,2020-0188,2020-05-21,17:30:33,17:44:57,NA,incomplete,157,filling,1,left,Purple_Star_Chess_2.jpg,Green_Triangle_Chess_3.jpg,Blue_Star_Grid_4.jpg,left,931.1549999983981,true,low,NA,NA,NA,NA,NA,NA,NA,false
g428lRzN,338glsui56olvzhlkxidlboc564sfp,3v0z7ywsi2dj9hk7hzdd1zalh4ov2f,g428lRzN,2020-0188,2020-05-21,17:30:33,17:44:57,NA,incomplete,158,filling,1,left,Red_Circle_Grid_2.jpg,Green_Triangle_Grid_1.jpg,Blue_Circle_Stripes_3.jpg,left,832.059999986086,true,low,NA,NA,NA,NA,NA,NA,NA,false
g428lRzN,338glsui56olvzhlkxidlboc564sfp,3v0z7ywsi2dj9hk7hzdd1zalh4ov2f,g428lRzN,2020-0188,2020-05-21,17:30:33,17:44:57,NA,incomplete,159,filling,1,left,Red_Star_Grid_1.jpg,Blue_Circle_Grid_2.jpg,Purple_Star_Stripes_4.jpg,left,1120.2399999601766,true,low,NA,NA,NA,NA,NA,NA,NA,false
g428lRzN,338glsui56olvzhlkxidlboc564sfp,3v0z7ywsi2dj9hk7hzdd1zalh4ov2f,g428lRzN,2020-0188,2020-05-21,17:30:33,17:44:57,NA,incomplete,160,shape,1,right,Green_Plus_Dots_1.jpg,Purple_Triangle_Dots_3.jpg,Blue_Plus_Grid_4.jpg,left,799.4550000294112,false,low,NA,NA,NA,NA,NA,NA,NA,false
g428lRzN,338glsui56olvzhlkxidlboc564sfp,3v0z7ywsi2dj9hk7hzdd1zalh4ov2f,g428lRzN,2020-0188,2020-05-21,17:30:33,17:44:57,NA,incomplete,161,shape,1,left,Red_Plus_Grid_4.jpg,Blue_Plus_Dots_3.jpg,Green_Triangle_Grid_1.jpg,right,920.0200000195764,false,low,NA,NA,NA,NA,NA,NA,NA,false
g428lRzN,338glsui56olvzhlkxidlboc564sfp,3v0z7ywsi2dj9hk7hzdd1zalh4ov2f,g428lRzN,2020-0188,2020-05-21,17:30:33,17:44:57,NA,incomplete,162,shape,1,left,Red_Circle_Stripes_4.jpg,Blue_Circle_Grid_1.jpg,Purple_Plus_Stripes_3.jpg,left,741.1800000118092,true,low,NA,NA,NA,NA,NA,NA,NA,false
g428lRzN,338glsui56olvzhlkxidlboc564sfp,3v0z7ywsi2dj9hk7hzdd1zalh4ov2f,g428lRzN,2020-0188,2020-05-21,17:30:33,17:44:57,NA,incomplete,163,shape,1,left,Blue_Circle_Chess_1.jpg,Green_Circle_Grid_2.jpg,Purple_Triangle_Chess_3.jpg,left,537.6899999682792,true,low,NA,NA,NA,NA,NA,NA,NA,false
g428lRzN,338glsui56olvzhlkxidlboc564sfp,3v0z7ywsi2dj9hk7hzdd1zalh4ov2f,g428lRzN,2020-0188,2020-05-21,17:30:33,17:44:57,NA,incomplete,164,shape,1,right,Purple_Circle_Chess_3.jpg,Red_Triangle_Chess_1.jpg,Green_Circle_Stripes_2.jpg,right,1123.8299999968149,true,low,NA,NA,NA,NA,NA,NA,NA,false
g428lRzN,338glsui56olvzhlkxidlboc564sfp,3v0z7ywsi2dj9hk7hzdd1zalh4ov2f,g428lRzN,2020-0188,2020-05-21,17:30:33,17:44:57,NA,incomplete,165,shape,1,right,Purple_Triangle_Grid_2.jpg,Blue_Circle_Grid_3.jpg,Red_Triangle_Stripes_4.jpg,right,913.3250000304542,true,low,NA,NA,NA,NA,NA,NA,NA,false
g428lRzN,338glsui56olvzhlkxidlboc564sfp,3v0z7ywsi2dj9hk7hzdd1zalh4ov2f,g428lRzN,2020-0188,2020-05-21,17:30:33,17:44:57,NA,incomplete,166,shape,0,left,Blue_Star_Grid_4.jpg,Red_Star_Stripes_1.jpg,Purple_Plus_Grid_2.jpg,left,712.4250000342727,true,low,NA,NA,NA,NA,NA,NA,NA,false
g428lRzN,338glsui56olvzhlkxidlboc564sfp,3v0z7ywsi2dj9hk7hzdd1zalh4ov2f,g428lRzN,2020-0188,2020-05-21,17:30:33,17:44:57,NA,incomplete,167,shape,1,left,Green_Circle_Dots_2.jpg,Red_Circle_Grid_1.jpg,Blue_Triangle_Dots_4.jpg,left,734.630000020843,true,low,NA,NA,NA,NA,NA,NA,NA,false
g428lRzN,338glsui56olvzhlkxidlboc564sfp,3v0z7ywsi2dj9hk7hzdd1zalh4ov2f,g428lRzN,2020-0188,2020-05-21,17:30:33,17:44:57,NA,incomplete,168,shape,1,right,Blue_Triangle_Chess_3.jpg,Purple_Star_Chess_4.jpg,Red_Triangle_Grid_2.jpg,right,643.9449999597855,true,low,NA,NA,NA,NA,NA,NA,NA,false
g428lRzN,338glsui56olvzhlkxidlboc564sfp,3v0z7ywsi2dj9hk7hzdd1zalh4ov2f,g428lRzN,2020-0188,2020-05-21,17:30:33,17:44:57,NA,incomplete,169,shape,1,left,Red_Plus_Dots_2.jpg,Green_Plus_Chess_1.jpg,Blue_Star_Dots_4.jpg,left,667.1600000117905,true,low,NA,NA,NA,NA,NA,NA,NA,false
g428lRzN,338glsui56olvzhlkxidlboc564sfp,3v0z7ywsi2dj9hk7hzdd1zalh4ov2f,g428lRzN,2020-0188,2020-05-21,17:30:33,17:44:57,NA,incomplete,170,shape,1,right,Green_Circle_Grid_1.jpg,Red_Plus_Grid_4.jpg,Blue_Circle_Stripes_2.jpg,right,535.9549999702722,true,low,NA,NA,NA,NA,NA,NA,NA,false
g428lRzN,338glsui56olvzhlkxidlboc564sfp,3v0z7ywsi2dj9hk7hzdd1zalh4ov2f,g428lRzN,2020-0188,2020-05-21,17:30:33,17:44:57,NA,incomplete,171,shape,1,left,Green_Star_Dots_4.jpg,Purple_Star_Grid_1.jpg,Red_Triangle_Dots_2.jpg,left,653.7749999552034,true,low,NA,NA,NA,NA,NA,NA,NA,false
g428lRzN,338glsui56olvzhlkxidlboc564sfp,3v0z7ywsi2dj9hk7hzdd1zalh4ov2f,g428lRzN,2020-0188,2020-05-21,17:30:33,17:44:57,NA,incomplete,172,shape,1,left,Purple_Plus_Chess_2.jpg,Green_Plus_Stripes_4.jpg,Blue_Star_Chess_3.jpg,left,704.0200000046752,true,low,NA,NA,NA,NA,NA,NA,NA,false
g428lRzN,338glsui56olvzhlkxidlboc564sfp,3v0z7ywsi2dj9hk7hzdd1zalh4ov2f,g428lRzN,2020-0188,2020-05-21,17:30:33,17:44:57,NA,incomplete,173,shape,0,left,Red_Circle_Grid_1.jpg,Green_Circle_Chess_3.jpg,Blue_Triangle_Grid_4.jpg,left,611.4850000012666,true,low,NA,NA,NA,NA,NA,NA,NA,false
g428lRzN,338glsui56olvzhlkxidlboc564sfp,3v0z7ywsi2dj9hk7hzdd1zalh4ov2f,g428lRzN,2020-0188,2020-05-21,17:30:33,17:44:57,NA,incomplete,174,shape,1,right,Blue_Circle_Stripes_1.jpg,Purple_Triangle_Stripes_2.jpg,Red_Circle_Chess_3.jpg,right,496.65500002447516,true,low,NA,NA,NA,NA,NA,NA,NA,false
g428lRzN,338glsui56olvzhlkxidlboc564sfp,3v0z7ywsi2dj9hk7hzdd1zalh4ov2f,g428lRzN,2020-0188,2020-05-21,17:30:33,17:44:57,NA,incomplete,175,shape,1,left,Purple_Plus_Grid_3.jpg,Green_Plus_Dots_2.jpg,Blue_Star_Grid_4.jpg,left,678.4099999931641,true,low,NA,NA,NA,NA,NA,NA,NA,false
g428lRzN,338glsui56olvzhlkxidlboc564sfp,3v0z7ywsi2dj9hk7hzdd1zalh4ov2f,g428lRzN,2020-0188,2020-05-21,17:30:33,17:44:57,NA,incomplete,176,shape,1,right,Green_Star_Stripes_1.jpg,Red_Plus_Stripes_3.jpg,Purple_Star_Dots_2.jpg,right,631.7900000140071,true,low,NA,NA,NA,NA,NA,NA,NA,false
g428lRzN,338glsui56olvzhlkxidlboc564sfp,3v0z7ywsi2dj9hk7hzdd1zalh4ov2f,g428lRzN,2020-0188,2020-05-21,17:30:33,17:44:57,NA,incomplete,177,shape,1,left,Red_Plus_Chess_1.jpg,Purple_Plus_Grid_2.jpg,Blue_Circle_Chess_4.jpg,left,643.4000000008382,true,low,NA,NA,NA,NA,NA,NA,NA,false
g428lRzN,338glsui56olvzhlkxidlboc564sfp,3v0z7ywsi2dj9hk7hzdd1zalh4ov2f,g428lRzN,2020-0188,2020-05-21,17:30:33,17:44:57,NA,incomplete,178,shape,1,right,Red_Triangle_Dots_2.jpg,Green_Plus_Dots_3.jpg,Blue_Triangle_Chess_4.jpg,right,516.8399999965914,true,low,NA,NA,NA,NA,NA,NA,NA,false
g428lRzN,338glsui56olvzhlkxidlboc564sfp,3v0z7ywsi2dj9hk7hzdd1zalh4ov2f,g428lRzN,2020-0188,2020-05-21,17:30:33,17:44:57,NA,incomplete,179,shape,1,right,Green_Triangle_Stripes_3.jpg,Red_Star_Stripes_2.jpg,Purple_Triangle_Dots_4.jpg,right,627.3499999660999,true,low,NA,NA,NA,NA,NA,NA,NA,false
g428lRzN,338glsui56olvzhlkxidlboc564sfp,3v0z7ywsi2dj9hk7hzdd1zalh4ov2f,g428lRzN,2020-0188,2020-05-21,17:30:33,17:44:57,NA,incomplete,180,filling,1,left,Purple_Star_Dots_4.jpg,Green_Triangle_Dots_3.jpg,Red_Star_Stripes_2.jpg,right,596.3549999869429,false,low,NA,NA,NA,NA,NA,NA,NA,false
g428lRzN,338glsui56olvzhlkxidlboc564sfp,3v0z7ywsi2dj9hk7hzdd1zalh4ov2f,g428lRzN,2020-0188,2020-05-21,17:30:33,17:44:57,NA,incomplete,181,filling,1,right,Blue_Circle_Grid_2.jpg,Purple_Circle_Dots_4.jpg,Green_Star_Grid_3.jpg,left,572.3700000089593,false,low,NA,NA,NA,NA,NA,NA,NA,false
g428lRzN,338glsui56olvzhlkxidlboc564sfp,3v0z7ywsi2dj9hk7hzdd1zalh4ov2f,g428lRzN,2020-0188,2020-05-21,17:30:33,17:44:57,NA,incomplete,182,filling,0,right,Purple_Star_Stripes_4.jpg,Red_Star_Grid_1.jpg,Blue_Triangle_Stripes_2.jpg,right,845.035000005737,true,low,NA,NA,NA,NA,NA,NA,NA,false
g428lRzN,338glsui56olvzhlkxidlboc564sfp,3v0z7ywsi2dj9hk7hzdd1zalh4ov2f,g428lRzN,2020-0188,2020-05-21,17:30:33,17:44:57,NA,incomplete,183,filling,1,right,Red_Circle_Grid_4.jpg,Purple_Circle_Chess_2.jpg,Blue_Triangle_Grid_1.jpg,right,985.599999956321,true,low,NA,NA,NA,NA,NA,NA,NA,false
g428lRzN,338glsui56olvzhlkxidlboc564sfp,3v0z7ywsi2dj9hk7hzdd1zalh4ov2f,g428lRzN,2020-0188,2020-05-21,17:30:33,17:44:57,NA,incomplete,184,filling,0,left,Blue_Plus_Grid_3.jpg,Green_Star_Grid_1.jpg,Red_Plus_Dots_2.jpg,left,969.6899999980815,true,low,NA,NA,NA,NA,NA,NA,NA,false
g428lRzN,338glsui56olvzhlkxidlboc564sfp,3v0z7ywsi2dj9hk7hzdd1zalh4ov2f,g428lRzN,2020-0188,2020-05-21,17:30:33,17:44:57,NA,incomplete,185,filling,1,left,Purple_Star_Chess_3.jpg,Green_Triangle_Chess_2.jpg,Red_Star_Stripes_1.jpg,left,1194.8150000534952,true,low,NA,NA,NA,NA,NA,NA,NA,false
g428lRzN,338glsui56olvzhlkxidlboc564sfp,3v0z7ywsi2dj9hk7hzdd1zalh4ov2f,g428lRzN,2020-0188,2020-05-21,17:30:33,17:44:57,NA,incomplete,186,filling,1,left,Red_Plus_Dots_3.jpg,Purple_Star_Dots_1.jpg,Blue_Plus_Grid_2.jpg,right,653.35999999661,false,low,NA,NA,NA,NA,NA,NA,NA,false
g428lRzN,338glsui56olvzhlkxidlboc564sfp,3v0z7ywsi2dj9hk7hzdd1zalh4ov2f,g428lRzN,2020-0188,2020-05-21,17:30:33,17:44:57,NA,incomplete,187,filling,1,right,Red_Plus_Grid_4.jpg,Green_Plus_Stripes_2.jpg,Blue_Triangle_Grid_3.jpg,right,1010.6099999975413,true,low,NA,NA,NA,NA,NA,NA,NA,false
g428lRzN,338glsui56olvzhlkxidlboc564sfp,3v0z7ywsi2dj9hk7hzdd1zalh4ov2f,g428lRzN,2020-0188,2020-05-21,17:30:33,17:44:57,NA,incomplete,188,filling,1,right,Red_Star_Grid_4.jpg,Purple_Star_Stripes_1.jpg,Blue_Plus_Grid_3.jpg,right,960.1350000011735,true,low,NA,NA,NA,NA,NA,NA,NA,false
g428lRzN,338glsui56olvzhlkxidlboc564sfp,3v0z7ywsi2dj9hk7hzdd1zalh4ov2f,g428lRzN,2020-0188,2020-05-21,17:30:33,17:44:57,NA,incomplete,189,filling,1,right,Red_Star_Dots_2.jpg,Purple_Star_Grid_4.jpg,Blue_Circle_Dots_1.jpg,left,981.5250000101514,false,low,NA,NA,NA,NA,NA,NA,NA,false
g428lRzN,338glsui56olvzhlkxidlboc564sfp,3v0z7ywsi2dj9hk7hzdd1zalh4ov2f,g428lRzN,2020-0188,2020-05-21,17:30:33,17:44:57,NA,incomplete,190,filling,0,right,Blue_Star_Stripes_3.jpg,Green_Star_Dots_4.jpg,Red_Circle_Stripes_1.jpg,left,1053.4249999909662,false,low,NA,NA,NA,NA,NA,NA,NA,false
g428lRzN,338glsui56olvzhlkxidlboc564sfp,3v0z7ywsi2dj9hk7hzdd1zalh4ov2f,g428lRzN,2020-0188,2020-05-21,17:30:33,17:44:57,NA,incomplete,191,filling,1,right,Red_Plus_Chess_1.jpg,Green_Plus_Stripes_3.jpg,Blue_Circle_Chess_4.jpg,right,904.9949999898672,true,low,NA,NA,NA,NA,NA,NA,NA,false
g428lRzN,338glsui56olvzhlkxidlboc564sfp,3v0z7ywsi2dj9hk7hzdd1zalh4ov2f,g428lRzN,2020-0188,2020-05-21,17:30:33,17:44:57,NA,incomplete,192,filling,1,right,Red_Star_Stripes_4.jpg,Blue_Star_Grid_3.jpg,Purple_Plus_Stripes_1.jpg,right,1025.6700000027195,true,low,NA,NA,NA,NA,NA,NA,NA,false
g428lRzN,338glsui56olvzhlkxidlboc564sfp,3v0z7ywsi2dj9hk7hzdd1zalh4ov2f,g428lRzN,2020-0188,2020-05-21,17:30:33,17:44:57,NA,incomplete,193,filling,0,left,Green_Circle_Grid_2.jpg,Red_Triangle_Grid_4.jpg,Blue_Circle_Chess_3.jpg,left,900.3399999928661,true,low,NA,NA,NA,NA,NA,NA,NA,false
g428lRzN,338glsui56olvzhlkxidlboc564sfp,3v0z7ywsi2dj9hk7hzdd1zalh4ov2f,g428lRzN,2020-0188,2020-05-21,17:30:33,17:44:57,NA,incomplete,194,filling,1,right,Blue_Triangle_Dots_2.jpg,Green_Triangle_Stripes_4.jpg,Red_Circle_Dots_3.jpg,right,842.1549999620765,true,low,NA,NA,NA,NA,NA,NA,NA,false
g428lRzN,338glsui56olvzhlkxidlboc564sfp,3v0z7ywsi2dj9hk7hzdd1zalh4ov2f,g428lRzN,2020-0188,2020-05-21,17:30:33,17:44:57,NA,incomplete,195,filling,0,left,Purple_Star_Chess_1.jpg,Green_Triangle_Chess_2.jpg,Red_Star_Grid_3.jpg,left,933.1050000037067,true,low,NA,NA,NA,NA,NA,NA,NA,false
g428lRzN,338glsui56olvzhlkxidlboc564sfp,3v0z7ywsi2dj9hk7hzdd1zalh4ov2f,g428lRzN,2020-0188,2020-05-21,17:30:33,17:44:57,NA,incomplete,196,filling,1,right,Blue_Star_Grid_1.jpg,Red_Star_Chess_4.jpg,Purple_Triangle_Grid_2.jpg,right,1041.9899999978952,true,low,NA,NA,NA,NA,NA,NA,NA,false
g428lRzN,338glsui56olvzhlkxidlboc564sfp,3v0z7ywsi2dj9hk7hzdd1zalh4ov2f,g428lRzN,2020-0188,2020-05-21,17:30:33,17:44:57,NA,incomplete,197,filling,0,right,Green_Triangle_Dots_4.jpg,Blue_Triangle_Chess_1.jpg,Red_Circle_Dots_2.jpg,right,759.3050000141375,true,low,NA,NA,NA,NA,NA,NA,NA,false
g428lRzN,338glsui56olvzhlkxidlboc564sfp,3v0z7ywsi2dj9hk7hzdd1zalh4ov2f,g428lRzN,2020-0188,2020-05-21,17:30:33,17:44:57,NA,incomplete,198,filling,1,right,Purple_Triangle_Dots_1.jpg,Green_Triangle_Grid_3.jpg,Blue_Plus_Dots_4.jpg,left,693.265000008978,false,low,NA,NA,NA,NA,NA,NA,NA,false
g428lRzN,338glsui56olvzhlkxidlboc564sfp,3v0z7ywsi2dj9hk7hzdd1zalh4ov2f,g428lRzN,2020-0188,2020-05-21,17:30:33,17:44:57,NA,incomplete,199,filling,1,right,Purple_Circle_Stripes_1.jpg,Blue_Circle_Chess_4.jpg,Red_Triangle_Stripes_3.jpg,right,877.745000005234,true,low,NA,NA,NA,NA,NA,NA,NA,false
g428lRzN,338glsui56olvzhlkxidlboc564sfp,3v0z7ywsi2dj9hk7hzdd1zalh4ov2f,g428lRzN,2020-0188,2020-05-21,17:30:33,17:44:57,NA,incomplete,200,shape,1,right,Red_Triangle_Stripes_1.jpg,Blue_Circle_Stripes_3.jpg,Purple_Triangle_Grid_2.jpg,left,883.8599999435246,false,low,NA,NA,NA,NA,NA,NA,NA,false
g428lRzN,338glsui56olvzhlkxidlboc564sfp,3v0z7ywsi2dj9hk7hzdd1zalh4ov2f,g428lRzN,2020-0188,2020-05-21,17:30:33,17:44:57,NA,incomplete,201,shape,1,left,Purple_Star_Grid_1.jpg,Red_Star_Chess_2.jpg,Blue_Circle_Grid_4.jpg,right,798.9950000192039,false,low,NA,NA,NA,NA,NA,NA,NA,false
g428lRzN,338glsui56olvzhlkxidlboc564sfp,3v0z7ywsi2dj9hk7hzdd1zalh4ov2f,g428lRzN,2020-0188,2020-05-21,17:30:33,17:44:57,NA,incomplete,202,shape,0,left,Red_Star_Stripes_2.jpg,Blue_Star_Grid_1.jpg,Purple_Triangle_Stripes_4.jpg,left,732.5399999972433,true,low,NA,NA,NA,NA,NA,NA,NA,false
g428lRzN,338glsui56olvzhlkxidlboc564sfp,3v0z7ywsi2dj9hk7hzdd1zalh4ov2f,g428lRzN,2020-0188,2020-05-21,17:30:33,17:44:57,NA,incomplete,203,shape,1,left,Purple_Star_Chess_4.jpg,Blue_Star_Grid_1.jpg,Red_Plus_Chess_3.jpg,left,717.7249999949709,true,low,NA,NA,NA,NA,NA,NA,NA,false
g428lRzN,338glsui56olvzhlkxidlboc564sfp,3v0z7ywsi2dj9hk7hzdd1zalh4ov2f,g428lRzN,2020-0188,2020-05-21,17:30:33,17:44:57,NA,incomplete,204,shape,1,left,Purple_Circle_Dots_3.jpg,Green_Circle_Stripes_2.jpg,Blue_Plus_Dots_1.jpg,left,645.8399999537505,true,low,NA,NA,NA,NA,NA,NA,NA,false
g428lRzN,338glsui56olvzhlkxidlboc564sfp,3v0z7ywsi2dj9hk7hzdd1zalh4ov2f,g428lRzN,2020-0188,2020-05-21,17:30:33,17:44:57,NA,incomplete,205,shape,1,left,Purple_Triangle_Stripes_3.jpg,Blue_Triangle_Chess_1.jpg,Red_Star_Stripes_2.jpg,left,627.1050000214018,true,low,NA,NA,NA,NA,NA,NA,NA,false
g428lRzN,338glsui56olvzhlkxidlboc564sfp,3v0z7ywsi2dj9hk7hzdd1zalh4ov2f,g428lRzN,2020-0188,2020-05-21,17:30:33,17:44:57,NA,incomplete,206,shape,1,right,Green_Triangle_Dots_4.jpg,Red_Plus_Dots_1.jpg,Purple_Triangle_Grid_2.jpg,right,494.03000000165775,true,low,NA,NA,NA,NA,NA,NA,NA,false
g428lRzN,338glsui56olvzhlkxidlboc564sfp,3v0z7ywsi2dj9hk7hzdd1zalh4ov2f,g428lRzN,2020-0188,2020-05-21,17:30:33,17:44:57,NA,incomplete,207,shape,1,left,Blue_Star_Dots_1.jpg,Purple_Star_Grid_3.jpg,Green_Plus_Dots_2.jpg,left,558.725000009872,true,low,NA,NA,NA,NA,NA,NA,NA,false
g428lRzN,338glsui56olvzhlkxidlboc564sfp,3v0z7ywsi2dj9hk7hzdd1zalh4ov2f,g428lRzN,2020-0188,2020-05-21,17:30:33,17:44:57,NA,incomplete,208,shape,1,right,Red_Triangle_Dots_1.jpg,Green_Star_Dots_3.jpg,Blue_Triangle_Stripes_2.jpg,right,505.5949999950826,true,low,NA,NA,NA,NA,NA,NA,NA,false
g428lRzN,338glsui56olvzhlkxidlboc564sfp,3v0z7ywsi2dj9hk7hzdd1zalh4ov2f,g428lRzN,2020-0188,2020-05-21,17:30:33,17:44:57,NA,incomplete,209,shape,1,right,Purple_Star_Stripes_2.jpg,Red_Circle_Stripes_1.jpg,Blue_Star_Dots_3.jpg,right,711.4099999889731,true,low,NA,NA,NA,NA,NA,NA,NA,false
g428lRzN,338glsui56olvzhlkxidlboc564sfp,3v0z7ywsi2dj9hk7hzdd1zalh4ov2f,g428lRzN,2020-0188,2020-05-21,17:30:33,17:44:57,NA,incomplete,210,shape,0,right,Green_Plus_Chess_1.jpg,Blue_Triangle_Chess_4.jpg,Red_Plus_Stripes_3.jpg,right,706.4099999843165,true,low,NA,NA,NA,NA,NA,NA,NA,false
g428lRzN,338glsui56olvzhlkxidlboc564sfp,3v0z7ywsi2dj9hk7hzdd1zalh4ov2f,g428lRzN,2020-0188,2020-05-21,17:30:33,17:44:57,NA,incomplete,211,shape,1,right,Green_Triangle_Stripes_4.jpg,Blue_Plus_Stripes_1.jpg,Purple_Triangle_Grid_3.jpg,right,576.7399999895133,true,low,NA,NA,NA,NA,NA,NA,NA,false
g428lRzN,338glsui56olvzhlkxidlboc564sfp,3v0z7ywsi2dj9hk7hzdd1zalh4ov2f,g428lRzN,2020-0188,2020-05-21,17:30:33,17:44:57,NA,incomplete,212,shape,1,right,Red_Star_Grid_3.jpg,Green_Triangle_Grid_1.jpg,Purple_Star_Chess_4.jpg,right,639.6499999682419,true,low,NA,NA,NA,NA,NA,NA,NA,false
g428lRzN,338glsui56olvzhlkxidlboc564sfp,3v0z7ywsi2dj9hk7hzdd1zalh4ov2f,g428lRzN,2020-0188,2020-05-21,17:30:33,17:44:57,NA,incomplete,213,shape,0,right,Red_Triangle_Chess_4.jpg,Purple_Plus_Chess_2.jpg,Green_Triangle_Grid_3.jpg,right,524.8250000295229,true,low,NA,NA,NA,NA,NA,NA,NA,false
g428lRzN,338glsui56olvzhlkxidlboc564sfp,3v0z7ywsi2dj9hk7hzdd1zalh4ov2f,g428lRzN,2020-0188,2020-05-21,17:30:33,17:44:57,NA,incomplete,214,shape,1,right,Green_Plus_Dots_2.jpg,Purple_Star_Dots_4.jpg,Red_Plus_Chess_1.jpg,right,675.0449999817647,true,low,NA,NA,NA,NA,NA,NA,NA,false
g428lRzN,338glsui56olvzhlkxidlboc564sfp,3v0z7ywsi2dj9hk7hzdd1zalh4ov2f,g428lRzN,2020-0188,2020-05-21,17:30:33,17:44:57,NA,incomplete,215,shape,0,right,Purple_Star_Grid_2.jpg,Red_Circle_Grid_3.jpg,Green_Star_Chess_4.jpg,right,592.1450000023469,true,low,NA,NA,NA,NA,NA,NA,NA,false
g428lRzN,338glsui56olvzhlkxidlboc564sfp,3v0z7ywsi2dj9hk7hzdd1zalh4ov2f,g428lRzN,2020-0188,2020-05-21,17:30:33,17:44:57,NA,incomplete,216,shape,1,left,Blue_Star_Stripes_4.jpg,Purple_Star_Dots_1.jpg,Green_Circle_Stripes_2.jpg,right,983.1649999832734,false,low,NA,NA,NA,NA,NA,NA,NA,false
g428lRzN,338glsui56olvzhlkxidlboc564sfp,3v0z7ywsi2dj9hk7hzdd1zalh4ov2f,g428lRzN,2020-0188,2020-05-21,17:30:33,17:44:57,NA,incomplete,217,shape,1,left,Purple_Triangle_Dots_1.jpg,Red_Triangle_Grid_4.jpg,Green_Star_Dots_2.jpg,right,1026.9150000531226,false,low,NA,NA,NA,NA,NA,NA,NA,false
g428lRzN,338glsui56olvzhlkxidlboc564sfp,3v0z7ywsi2dj9hk7hzdd1zalh4ov2f,g428lRzN,2020-0188,2020-05-21,17:30:33,17:44:57,NA,incomplete,218,shape,1,right,Blue_Triangle_Chess_4.jpg,Purple_Plus_Chess_2.jpg,Red_Triangle_Dots_3.jpg,left,1027.0149999996647,false,low,NA,NA,NA,NA,NA,NA,NA,false
g428lRzN,338glsui56olvzhlkxidlboc564sfp,3v0z7ywsi2dj9hk7hzdd1zalh4ov2f,g428lRzN,2020-0188,2020-05-21,17:30:33,17:44:57,NA,incomplete,219,shape,1,right,Purple_Triangle_Grid_3.jpg,Red_Plus_Grid_1.jpg,Blue_Triangle_Stripes_2.jpg,right,835.2799999993294,true,low,NA,NA,NA,NA,NA,NA,NA,false
g428lRzN,338glsui56olvzhlkxidlboc564sfp,3v0z7ywsi2dj9hk7hzdd1zalh4ov2f,g428lRzN,2020-0188,2020-05-21,17:30:33,17:44:57,NA,incomplete,220,filling,1,right,Blue_Plus_Chess_1.jpg,Red_Plus_Grid_4.jpg,Green_Star_Chess_2.jpg,left,1185.7549999840558,false,low,NA,NA,NA,NA,NA,NA,NA,false
g428lRzN,338glsui56olvzhlkxidlboc564sfp,3v0z7ywsi2dj9hk7hzdd1zalh4ov2f,g428lRzN,2020-0188,2020-05-21,17:30:33,17:44:57,NA,incomplete,221,filling,1,right,Red_Circle_Dots_1.jpg,Blue_Circle_Chess_2.jpg,Purple_Triangle_Dots_4.jpg,left,607.1200000005774,false,low,NA,NA,NA,NA,NA,NA,NA,false
g428lRzN,338glsui56olvzhlkxidlboc564sfp,3v0z7ywsi2dj9hk7hzdd1zalh4ov2f,g428lRzN,2020-0188,2020-05-21,17:30:33,17:44:57,NA,incomplete,222,filling,0,right,Green_Star_Stripes_1.jpg,Blue_Star_Grid_2.jpg,Red_Triangle_Stripes_4.jpg,right,898.6849999637343,true,low,NA,NA,NA,NA,NA,NA,NA,false
g428lRzN,338glsui56olvzhlkxidlboc564sfp,3v0z7ywsi2dj9hk7hzdd1zalh4ov2f,g428lRzN,2020-0188,2020-05-21,17:30:33,17:44:57,NA,incomplete,223,filling,1,right,Purple_Plus_Stripes_3.jpg,Red_Plus_Chess_4.jpg,Green_Star_Stripes_2.jpg,right,1057.5650000246242,true,low,NA,NA,NA,NA,NA,NA,NA,false
g428lRzN,338glsui56olvzhlkxidlboc564sfp,3v0z7ywsi2dj9hk7hzdd1zalh4ov2f,g428lRzN,2020-0188,2020-05-21,17:30:33,17:44:57,NA,incomplete,224,filling,1,left,Purple_Circle_Grid_1.jpg,Blue_Star_Grid_2.jpg,Red_Circle_Stripes_3.jpg,left,963.6399999726564,true,low,NA,NA,NA,NA,NA,NA,NA,false
g428lRzN,338glsui56olvzhlkxidlboc564sfp,3v0z7ywsi2dj9hk7hzdd1zalh4ov2f,g428lRzN,2020-0188,2020-05-21,17:30:33,17:44:57,NA,incomplete,225,filling,1,right,Blue_Star_Stripes_4.jpg,Purple_Star_Dots_1.jpg,Red_Plus_Stripes_2.jpg,right,957.6349999988452,true,low,NA,NA,NA,NA,NA,NA,NA,false
g428lRzN,338glsui56olvzhlkxidlboc564sfp,3v0z7ywsi2dj9hk7hzdd1zalh4ov2f,g428lRzN,2020-0188,2020-05-21,17:30:33,17:44:57,NA,incomplete,226,filling,0,right,Blue_Star_Dots_1.jpg,Green_Star_Stripes_2.jpg,Red_Plus_Dots_3.jpg,right,955.6599999777973,true,low,NA,NA,NA,NA,NA,NA,NA,false
g428lRzN,338glsui56olvzhlkxidlboc564sfp,3v0z7ywsi2dj9hk7hzdd1zalh4ov2f,g428lRzN,2020-0188,2020-05-21,17:30:33,17:44:57,NA,incomplete,227,filling,1,left,Red_Circle_Chess_2.jpg,Purple_Plus_Chess_3.jpg,Blue_Circle_Dots_4.jpg,left,837.8299999749288,true,low,NA,NA,NA,NA,NA,NA,NA,false
g428lRzN,338glsui56olvzhlkxidlboc564sfp,3v0z7ywsi2dj9hk7hzdd1zalh4ov2f,g428lRzN,2020-0188,2020-05-21,17:30:33,17:44:57,NA,incomplete,228,filling,1,left,Purple_Triangle_Chess_1.jpg,Green_Star_Chess_2.jpg,Red_Triangle_Dots_4.jpg,left,940.439999976661,true,low,NA,NA,NA,NA,NA,NA,NA,false
g428lRzN,338glsui56olvzhlkxidlboc564sfp,3v0z7ywsi2dj9hk7hzdd1zalh4ov2f,g428lRzN,2020-0188,2020-05-21,17:30:33,17:44:57,NA,incomplete,229,filling,1,right,Purple_Triangle_Stripes_2.jpg,Blue_Triangle_Grid_3.jpg,Green_Plus_Stripes_1.jpg,right,874.004999990575,true,low,NA,NA,NA,NA,NA,NA,NA,false
g428lRzN,338glsui56olvzhlkxidlboc564sfp,3v0z7ywsi2dj9hk7hzdd1zalh4ov2f,g428lRzN,2020-0188,2020-05-21,17:30:33,17:44:57,NA,incomplete,230,filling,1,right,Purple_Star_Dots_1.jpg,Green_Star_Chess_3.jpg,Red_Plus_Dots_2.jpg,right,944.0750000067055,true,low,NA,NA,NA,NA,NA,NA,NA,false
g428lRzN,338glsui56olvzhlkxidlboc564sfp,3v0z7ywsi2dj9hk7hzdd1zalh4ov2f,g428lRzN,2020-0188,2020-05-21,17:30:33,17:44:57,NA,incomplete,231,filling,1,left,Purple_Plus_Grid_4.jpg,Green_Circle_Grid_1.jpg,Red_Plus_Dots_3.jpg,left,874.344999960158,true,low,NA,NA,NA,NA,NA,NA,NA,false
g428lRzN,338glsui56olvzhlkxidlboc564sfp,3v0z7ywsi2dj9hk7hzdd1zalh4ov2f,g428lRzN,2020-0188,2020-05-21,17:30:33,17:44:57,NA,incomplete,232,filling,1,right,Purple_Circle_Grid_4.jpg,Blue_Circle_Stripes_2.jpg,Green_Triangle_Grid_1.jpg,right,850.449999968987,true,low,NA,NA,NA,NA,NA,NA,NA,false
g428lRzN,338glsui56olvzhlkxidlboc564sfp,3v0z7ywsi2dj9hk7hzdd1zalh4ov2f,g428lRzN,2020-0188,2020-05-21,17:30:33,17:44:57,NA,incomplete,233,filling,0,right,Green_Plus_Grid_3.jpg,Purple_Plus_Stripes_4.jpg,Red_Triangle_Grid_2.jpg,right,812.9099999787286,true,low,NA,NA,NA,NA,NA,NA,NA,false
g428lRzN,338glsui56olvzhlkxidlboc564sfp,3v0z7ywsi2dj9hk7hzdd1zalh4ov2f,g428lRzN,2020-0188,2020-05-21,17:30:33,17:44:57,NA,incomplete,234,filling,1,right,Blue_Circle_Dots_2.jpg,Purple_Circle_Chess_3.jpg,Red_Star_Dots_1.jpg,right,822.9599999613129,true,low,NA,NA,NA,NA,NA,NA,NA,false
g428lRzN,338glsui56olvzhlkxidlboc564sfp,3v0z7ywsi2dj9hk7hzdd1zalh4ov2f,g428lRzN,2020-0188,2020-05-21,17:30:33,17:44:57,NA,incomplete,235,filling,1,right,Blue_Triangle_Dots_3.jpg,Green_Triangle_Grid_1.jpg,Purple_Plus_Dots_2.jpg,right,1034.1200000257231,true,low,NA,NA,NA,NA,NA,NA,NA,false
g428lRzN,338glsui56olvzhlkxidlboc564sfp,3v0z7ywsi2dj9hk7hzdd1zalh4ov2f,g428lRzN,2020-0188,2020-05-21,17:30:33,17:44:57,NA,incomplete,236,filling,1,right,Purple_Circle_Grid_3.jpg,Green_Circle_Stripes_1.jpg,Blue_Star_Grid_4.jpg,right,886.4449999528006,true,low,NA,NA,NA,NA,NA,NA,NA,false
g428lRzN,338glsui56olvzhlkxidlboc564sfp,3v0z7ywsi2dj9hk7hzdd1zalh4ov2f,g428lRzN,2020-0188,2020-05-21,17:30:33,17:44:57,NA,incomplete,237,filling,0,right,Red_Star_Stripes_2.jpg,Blue_Star_Dots_4.jpg,Green_Triangle_Stripes_1.jpg,right,906.0100000351667,true,low,NA,NA,NA,NA,NA,NA,NA,false
g428lRzN,338glsui56olvzhlkxidlboc564sfp,3v0z7ywsi2dj9hk7hzdd1zalh4ov2f,g428lRzN,2020-0188,2020-05-21,17:30:33,17:44:57,NA,incomplete,238,filling,1,right,Purple_Star_Stripes_3.jpg,Blue_Star_Dots_1.jpg,Red_Triangle_Stripes_4.jpg,right,699.895000027027,true,low,NA,NA,NA,NA,NA,NA,NA,false
g428lRzN,338glsui56olvzhlkxidlboc564sfp,3v0z7ywsi2dj9hk7hzdd1zalh4ov2f,g428lRzN,2020-0188,2020-05-21,17:30:33,17:44:57,NA,incomplete,239,filling,1,left,Blue_Star_Grid_4.jpg,Green_Circle_Grid_2.jpg,Red_Star_Chess_3.jpg,left,914.5999999600463,true,low,NA,NA,NA,NA,NA,NA,NA,false
g428lRzN,338glsui56olvzhlkxidlboc564sfp,3v0z7ywsi2dj9hk7hzdd1zalh4ov2f,g428lRzN,2020-0188,2020-05-21,17:30:33,17:44:57,NA,NA,instruction example,number,NA,NA,Blue_Star_Chess_4.jpg,Green_Triangle_Stripes_4.jpg,Blue_Circle_Dots_1.jpg,NA,NA,NA,NA,NA,NA,NA,NA,NA,NA,NA,undefined
g428lRzN,338glsui56olvzhlkxidlboc564sfp,3v0z7ywsi2dj9hk7hzdd1zalh4ov2f,g428lRzN,2020-0188,2020-05-21,17:30:33,17:44:57,NA,NA,instruction example,number,NA,NA,Purple_Plus_Chess_4.jpg,Purple_Circle_Grid_1.jpg,Blue_Triangle_Dots_4.jpg,NA,NA,NA,NA,NA,NA,NA,NA,NA,NA,NA,undefined
g428lRzN,338glsui56olvzhlkxidlboc564sfp,3v0z7ywsi2dj9hk7hzdd1zalh4ov2f,g428lRzN,2020-0188,2020-05-21,17:30:33,17:44:57,NA,NA,instruction example,number,NA,NA,Green_Star_Grid_2.jpg,Blue_Star_Dots_1.jpg,Red_Circle_Grid_3.jpg,NA,NA,NA,NA,NA,NA,NA,NA,NA,NA,NA,undefined
g428lRzN,338glsui56olvzhlkxidlboc564sfp,3v0z7ywsi2dj9hk7hzdd1zalh4ov2f,g428lRzN,2020-0188,2020-05-21,17:30:33,17:44:57,NA,NA,instruction example,number,NA,NA,Red_Star_Dots_3.jpg,Purple_Circle_Dots_4.jpg,Green_Star_Chess_2.jpg,NA,NA,NA,NA,NA,NA,NA,NA,NA,NA,NA,undefined
g428lRzN,338glsui56olvzhlkxidlboc564sfp,3v0z7ywsi2dj9hk7hzdd1zalh4ov2f,g428lRzN,2020-0188,2020-05-21,17:30:33,17:44:57,840769.9100000318,864346.9500000356,NA,NA,NA,NA,NA,NA,NA,NA,NA,NA,NA,50,White/Caucasian,Male,European,no,yes,no,undefined
