workerId,hitId,assignmentId,subject,studyid,exp_date,exp_start,exp_end,time_start,time_end,trial,type,reward_validity,answer,image_top,image_left,image_right,response,response_time,response_acc,volatility,age,race,gender,ethnicity,color,vision,neuro,practice
aLJQ5cqb,3o2y2uiudt7n7g4dfo9bupx2ocrfkv,3vp0c6efsk9o1v9zq9op4g8k6e36mb,aLJQ5cqb,2020-0188,2020-05-21,13:06:44,13:28:55,NA,incomplete,0,color,0,left,Blue_Triangle_Grid_3.jpg,Blue_Star_Chess_4.jpg,Red_Triangle_Stripes_1.jpg,left,1237.7850000048056,true,NA,NA,NA,NA,NA,NA,NA,NA,true
aLJQ5cqb,3o2y2uiudt7n7g4dfo9bupx2ocrfkv,3vp0c6efsk9o1v9zq9op4g8k6e36mb,aLJQ5cqb,2020-0188,2020-05-21,13:06:44,13:28:55,NA,incomplete,1,color,1,left,Red_Star_Stripes_3.jpg,Red_Plus_Chess_2.jpg,Green_Star_Dots_4.jpg,left,885.4300000239164,true,NA,NA,NA,NA,NA,NA,NA,NA,true
aLJQ5cqb,3o2y2uiudt7n7g4dfo9bupx2ocrfkv,3vp0c6efsk9o1v9zq9op4g8k6e36mb,aLJQ5cqb,2020-0188,2020-05-21,13:06:44,13:28:55,NA,incomplete,2,color,1,left,Blue_Star_Dots_4.jpg,Blue_Circle_Chess_2.jpg,Red_Star_Stripes_3.jpg,left,718.7400000402704,true,NA,NA,NA,NA,NA,NA,NA,NA,true
aLJQ5cqb,3o2y2uiudt7n7g4dfo9bupx2ocrfkv,3vp0c6efsk9o1v9zq9op4g8k6e36mb,aLJQ5cqb,2020-0188,2020-05-21,13:06:44,13:28:55,NA,incomplete,3,color,0,left,Green_Circle_Grid_4.jpg,Green_Plus_Chess_2.jpg,Purple_Circle_Dots_1.jpg,left,1334.80499999132,true,NA,NA,NA,NA,NA,NA,NA,NA,true
aLJQ5cqb,3o2y2uiudt7n7g4dfo9bupx2ocrfkv,3vp0c6efsk9o1v9zq9op4g8k6e36mb,aLJQ5cqb,2020-0188,2020-05-21,13:06:44,13:28:55,NA,incomplete,4,color,1,right,Red_Plus_Stripes_4.jpg,Green_Plus_Chess_1.jpg,Red_Circle_Dots_2.jpg,right,747.2400000551715,true,NA,NA,NA,NA,NA,NA,NA,NA,true
aLJQ5cqb,3o2y2uiudt7n7g4dfo9bupx2ocrfkv,3vp0c6efsk9o1v9zq9op4g8k6e36mb,aLJQ5cqb,2020-0188,2020-05-21,13:06:44,13:28:55,NA,incomplete,5,color,1,right,Red_Plus_Stripes_3.jpg,Blue_Plus_Dots_1.jpg,Red_Triangle_Grid_2.jpg,right,847.7049999637529,true,NA,NA,NA,NA,NA,NA,NA,NA,true
aLJQ5cqb,3o2y2uiudt7n7g4dfo9bupx2ocrfkv,3vp0c6efsk9o1v9zq9op4g8k6e36mb,aLJQ5cqb,2020-0188,2020-05-21,13:06:44,13:28:55,NA,incomplete,6,color,0,left,Green_Star_Grid_2.jpg,Green_Circle_Dots_4.jpg,Purple_Star_Chess_3.jpg,left,690.000000060536,true,NA,NA,NA,NA,NA,NA,NA,NA,true
aLJQ5cqb,3o2y2uiudt7n7g4dfo9bupx2ocrfkv,3vp0c6efsk9o1v9zq9op4g8k6e36mb,aLJQ5cqb,2020-0188,2020-05-21,13:06:44,13:28:55,NA,incomplete,7,color,0,left,Blue_Circle_Stripes_2.jpg,Blue_Star_Dots_3.jpg,Purple_Circle_Chess_1.jpg,left,1115.3399999020621,true,NA,NA,NA,NA,NA,NA,NA,NA,true
aLJQ5cqb,3o2y2uiudt7n7g4dfo9bupx2ocrfkv,3vp0c6efsk9o1v9zq9op4g8k6e36mb,aLJQ5cqb,2020-0188,2020-05-21,13:06:44,13:28:55,NA,incomplete,8,color,1,right,Red_Star_Dots_1.jpg,Green_Star_Stripes_3.jpg,Red_Circle_Chess_4.jpg,right,924.0200000349432,true,NA,NA,NA,NA,NA,NA,NA,NA,true
aLJQ5cqb,3o2y2uiudt7n7g4dfo9bupx2ocrfkv,3vp0c6efsk9o1v9zq9op4g8k6e36mb,aLJQ5cqb,2020-0188,2020-05-21,13:06:44,13:28:55,NA,incomplete,9,color,1,right,Red_Plus_Dots_2.jpg,Blue_Plus_Chess_4.jpg,Red_Circle_Stripes_3.jpg,right,774.2299999808893,true,NA,NA,NA,NA,NA,NA,NA,NA,true
aLJQ5cqb,3o2y2uiudt7n7g4dfo9bupx2ocrfkv,3vp0c6efsk9o1v9zq9op4g8k6e36mb,aLJQ5cqb,2020-0188,2020-05-21,13:06:44,13:28:55,NA,incomplete,10,color,1,right,Blue_Star_Dots_1.jpg,Red_Star_Chess_3.jpg,Blue_Circle_Grid_4.jpg,right,863.539999932982,true,NA,NA,NA,NA,NA,NA,NA,NA,true
aLJQ5cqb,3o2y2uiudt7n7g4dfo9bupx2ocrfkv,3vp0c6efsk9o1v9zq9op4g8k6e36mb,aLJQ5cqb,2020-0188,2020-05-21,13:06:44,13:28:55,NA,incomplete,11,color,1,right,Green_Circle_Chess_2.jpg,Purple_Circle_Dots_3.jpg,Green_Triangle_Stripes_1.jpg,right,860.4300000006333,true,NA,NA,NA,NA,NA,NA,NA,NA,true
aLJQ5cqb,3o2y2uiudt7n7g4dfo9bupx2ocrfkv,3vp0c6efsk9o1v9zq9op4g8k6e36mb,aLJQ5cqb,2020-0188,2020-05-21,13:06:44,13:28:55,NA,incomplete,12,color,1,right,Purple_Star_Stripes_2.jpg,Blue_Star_Dots_4.jpg,Purple_Triangle_Grid_3.jpg,right,753.0349999433383,true,NA,NA,NA,NA,NA,NA,NA,NA,true
aLJQ5cqb,3o2y2uiudt7n7g4dfo9bupx2ocrfkv,3vp0c6efsk9o1v9zq9op4g8k6e36mb,aLJQ5cqb,2020-0188,2020-05-21,13:06:44,13:28:55,NA,incomplete,13,color,1,right,Purple_Triangle_Grid_3.jpg,Blue_Triangle_Stripes_1.jpg,Purple_Star_Dots_2.jpg,right,593.0950000183657,true,NA,NA,NA,NA,NA,NA,NA,NA,true
aLJQ5cqb,3o2y2uiudt7n7g4dfo9bupx2ocrfkv,3vp0c6efsk9o1v9zq9op4g8k6e36mb,aLJQ5cqb,2020-0188,2020-05-21,13:06:44,13:28:55,NA,incomplete,14,color,1,left,Green_Circle_Dots_4.jpg,Green_Triangle_Stripes_3.jpg,Blue_Circle_Chess_1.jpg,left,856.4650000771508,true,NA,NA,NA,NA,NA,NA,NA,NA,true
aLJQ5cqb,3o2y2uiudt7n7g4dfo9bupx2ocrfkv,3vp0c6efsk9o1v9zq9op4g8k6e36mb,aLJQ5cqb,2020-0188,2020-05-21,13:06:44,13:28:55,NA,incomplete,15,color,1,right,Purple_Star_Chess_3.jpg,Blue_Star_Grid_1.jpg,Purple_Circle_Stripes_4.jpg,right,885.0300000049174,true,NA,NA,NA,NA,NA,NA,NA,NA,true
aLJQ5cqb,3o2y2uiudt7n7g4dfo9bupx2ocrfkv,3vp0c6efsk9o1v9zq9op4g8k6e36mb,aLJQ5cqb,2020-0188,2020-05-21,13:06:44,13:28:55,NA,incomplete,16,color,1,left,Blue_Triangle_Dots_4.jpg,Blue_Circle_Grid_1.jpg,Green_Triangle_Chess_2.jpg,left,670.6700000213459,true,NA,NA,NA,NA,NA,NA,NA,NA,true
aLJQ5cqb,3o2y2uiudt7n7g4dfo9bupx2ocrfkv,3vp0c6efsk9o1v9zq9op4g8k6e36mb,aLJQ5cqb,2020-0188,2020-05-21,13:06:44,13:28:55,NA,incomplete,17,color,0,right,Purple_Triangle_Stripes_2.jpg,Blue_Triangle_Dots_4.jpg,Purple_Circle_Grid_3.jpg,right,1038.8350000139326,true,NA,NA,NA,NA,NA,NA,NA,NA,true
aLJQ5cqb,3o2y2uiudt7n7g4dfo9bupx2ocrfkv,3vp0c6efsk9o1v9zq9op4g8k6e36mb,aLJQ5cqb,2020-0188,2020-05-21,13:06:44,13:28:55,NA,incomplete,18,color,1,left,Red_Circle_Stripes_3.jpg,Red_Star_Dots_2.jpg,Blue_Circle_Grid_1.jpg,none,0,false,NA,NA,NA,NA,NA,NA,NA,NA,true
aLJQ5cqb,3o2y2uiudt7n7g4dfo9bupx2ocrfkv,3vp0c6efsk9o1v9zq9op4g8k6e36mb,aLJQ5cqb,2020-0188,2020-05-21,13:06:44,13:28:55,NA,incomplete,19,color,1,right,Red_Plus_Dots_1.jpg,Purple_Plus_Chess_4.jpg,Red_Circle_Grid_3.jpg,right,833.7900000624359,true,NA,NA,NA,NA,NA,NA,NA,NA,true
aLJQ5cqb,3o2y2uiudt7n7g4dfo9bupx2ocrfkv,3vp0c6efsk9o1v9zq9op4g8k6e36mb,aLJQ5cqb,2020-0188,2020-05-21,13:06:44,13:28:55,NA,incomplete,20,shape,1,right,Red_Triangle_Dots_4.jpg,Red_Plus_Grid_3.jpg,Purple_Triangle_Chess_1.jpg,left,559.635000070557,false,NA,NA,NA,NA,NA,NA,NA,NA,true
aLJQ5cqb,3o2y2uiudt7n7g4dfo9bupx2ocrfkv,3vp0c6efsk9o1v9zq9op4g8k6e36mb,aLJQ5cqb,2020-0188,2020-05-21,13:06:44,13:28:55,NA,incomplete,21,shape,1,left,Purple_Plus_Grid_2.jpg,Blue_Plus_Stripes_1.jpg,Purple_Triangle_Chess_3.jpg,left,967.1649999218062,true,NA,NA,NA,NA,NA,NA,NA,NA,true
aLJQ5cqb,3o2y2uiudt7n7g4dfo9bupx2ocrfkv,3vp0c6efsk9o1v9zq9op4g8k6e36mb,aLJQ5cqb,2020-0188,2020-05-21,13:06:44,13:28:55,NA,incomplete,22,shape,1,right,Blue_Plus_Grid_3.jpg,Blue_Circle_Stripes_4.jpg,Purple_Plus_Chess_1.jpg,right,713.454999960959,true,NA,NA,NA,NA,NA,NA,NA,NA,true
aLJQ5cqb,3o2y2uiudt7n7g4dfo9bupx2ocrfkv,3vp0c6efsk9o1v9zq9op4g8k6e36mb,aLJQ5cqb,2020-0188,2020-05-21,13:06:44,13:28:55,NA,incomplete,23,shape,1,right,Blue_Circle_Dots_1.jpg,Blue_Plus_Chess_2.jpg,Red_Circle_Grid_4.jpg,right,688.9900000533089,true,NA,NA,NA,NA,NA,NA,NA,NA,true
aLJQ5cqb,3o2y2uiudt7n7g4dfo9bupx2ocrfkv,3vp0c6efsk9o1v9zq9op4g8k6e36mb,aLJQ5cqb,2020-0188,2020-05-21,13:06:44,13:28:55,NA,incomplete,24,shape,1,left,Green_Circle_Dots_3.jpg,Red_Circle_Stripes_1.jpg,Green_Triangle_Chess_4.jpg,left,659.0899999719113,true,NA,NA,NA,NA,NA,NA,NA,NA,true
aLJQ5cqb,3o2y2uiudt7n7g4dfo9bupx2ocrfkv,3vp0c6efsk9o1v9zq9op4g8k6e36mb,aLJQ5cqb,2020-0188,2020-05-21,13:06:44,13:28:55,NA,incomplete,25,shape,1,right,Green_Circle_Dots_3.jpg,Green_Triangle_Stripes_4.jpg,Purple_Circle_Grid_2.jpg,right,648.2049999758601,true,NA,NA,NA,NA,NA,NA,NA,NA,true
aLJQ5cqb,3o2y2uiudt7n7g4dfo9bupx2ocrfkv,3vp0c6efsk9o1v9zq9op4g8k6e36mb,aLJQ5cqb,2020-0188,2020-05-21,13:06:44,13:28:55,NA,incomplete,26,shape,0,left,Purple_Circle_Stripes_2.jpg,Green_Circle_Grid_4.jpg,Purple_Plus_Dots_1.jpg,right,714.2499999608845,false,NA,NA,NA,NA,NA,NA,NA,NA,true
aLJQ5cqb,3o2y2uiudt7n7g4dfo9bupx2ocrfkv,3vp0c6efsk9o1v9zq9op4g8k6e36mb,aLJQ5cqb,2020-0188,2020-05-21,13:06:44,13:28:55,NA,incomplete,27,shape,0,right,Green_Star_Chess_4.jpg,Green_Triangle_Stripes_1.jpg,Purple_Star_Grid_2.jpg,right,857.4899999657646,true,NA,NA,NA,NA,NA,NA,NA,NA,true
aLJQ5cqb,3o2y2uiudt7n7g4dfo9bupx2ocrfkv,3vp0c6efsk9o1v9zq9op4g8k6e36mb,aLJQ5cqb,2020-0188,2020-05-21,13:06:44,13:28:55,NA,incomplete,28,shape,1,left,Red_Plus_Grid_2.jpg,Green_Plus_Stripes_3.jpg,Red_Star_Dots_1.jpg,left,832.3399999644607,true,NA,NA,NA,NA,NA,NA,NA,NA,true
aLJQ5cqb,3o2y2uiudt7n7g4dfo9bupx2ocrfkv,3vp0c6efsk9o1v9zq9op4g8k6e36mb,aLJQ5cqb,2020-0188,2020-05-21,13:06:44,13:28:55,NA,incomplete,29,shape,1,left,Green_Circle_Grid_3.jpg,Purple_Circle_Chess_1.jpg,Green_Plus_Dots_4.jpg,left,717.949999962002,true,NA,NA,NA,NA,NA,NA,NA,NA,true
aLJQ5cqb,3o2y2uiudt7n7g4dfo9bupx2ocrfkv,3vp0c6efsk9o1v9zq9op4g8k6e36mb,aLJQ5cqb,2020-0188,2020-05-21,13:06:44,13:28:55,NA,incomplete,30,shape,1,left,Green_Plus_Stripes_3.jpg,Blue_Plus_Dots_1.jpg,Green_Triangle_Grid_2.jpg,left,852.7699999976903,true,NA,NA,NA,NA,NA,NA,NA,NA,true
aLJQ5cqb,3o2y2uiudt7n7g4dfo9bupx2ocrfkv,3vp0c6efsk9o1v9zq9op4g8k6e36mb,aLJQ5cqb,2020-0188,2020-05-21,13:06:44,13:28:55,NA,incomplete,31,shape,1,right,Red_Circle_Dots_3.jpg,Red_Triangle_Chess_1.jpg,Green_Circle_Grid_4.jpg,right,679.2050000512972,true,NA,NA,NA,NA,NA,NA,NA,NA,true
aLJQ5cqb,3o2y2uiudt7n7g4dfo9bupx2ocrfkv,3vp0c6efsk9o1v9zq9op4g8k6e36mb,aLJQ5cqb,2020-0188,2020-05-21,13:06:44,13:28:55,NA,incomplete,32,shape,1,right,Green_Plus_Chess_2.jpg,Green_Star_Dots_1.jpg,Red_Plus_Stripes_4.jpg,right,823.0800000019372,true,NA,NA,NA,NA,NA,NA,NA,NA,true
aLJQ5cqb,3o2y2uiudt7n7g4dfo9bupx2ocrfkv,3vp0c6efsk9o1v9zq9op4g8k6e36mb,aLJQ5cqb,2020-0188,2020-05-21,13:06:44,13:28:55,NA,incomplete,33,shape,1,left,Red_Plus_Dots_3.jpg,Blue_Plus_Grid_4.jpg,Red_Triangle_Chess_2.jpg,left,685.5249999789521,true,NA,NA,NA,NA,NA,NA,NA,NA,true
aLJQ5cqb,3o2y2uiudt7n7g4dfo9bupx2ocrfkv,3vp0c6efsk9o1v9zq9op4g8k6e36mb,aLJQ5cqb,2020-0188,2020-05-21,13:06:44,13:28:55,NA,incomplete,34,shape,1,right,Blue_Star_Grid_3.jpg,Blue_Circle_Dots_1.jpg,Red_Star_Stripes_4.jpg,right,822.0000000437722,true,NA,NA,NA,NA,NA,NA,NA,NA,true
aLJQ5cqb,3o2y2uiudt7n7g4dfo9bupx2ocrfkv,3vp0c6efsk9o1v9zq9op4g8k6e36mb,aLJQ5cqb,2020-0188,2020-05-21,13:06:44,13:28:55,NA,incomplete,35,shape,1,left,Red_Triangle_Dots_4.jpg,Green_Triangle_Grid_3.jpg,Red_Circle_Stripes_1.jpg,left,907.1299999486655,true,NA,NA,NA,NA,NA,NA,NA,NA,true
aLJQ5cqb,3o2y2uiudt7n7g4dfo9bupx2ocrfkv,3vp0c6efsk9o1v9zq9op4g8k6e36mb,aLJQ5cqb,2020-0188,2020-05-21,13:06:44,13:28:55,NA,incomplete,36,shape,1,left,Green_Star_Dots_3.jpg,Blue_Star_Chess_2.jpg,Green_Triangle_Stripes_4.jpg,left,920.1149999862537,true,NA,NA,NA,NA,NA,NA,NA,NA,true
aLJQ5cqb,3o2y2uiudt7n7g4dfo9bupx2ocrfkv,3vp0c6efsk9o1v9zq9op4g8k6e36mb,aLJQ5cqb,2020-0188,2020-05-21,13:06:44,13:28:55,NA,incomplete,37,shape,1,left,Red_Star_Grid_1.jpg,Purple_Star_Dots_3.jpg,Red_Plus_Stripes_4.jpg,left,678.8350000279024,true,NA,NA,NA,NA,NA,NA,NA,NA,true
aLJQ5cqb,3o2y2uiudt7n7g4dfo9bupx2ocrfkv,3vp0c6efsk9o1v9zq9op4g8k6e36mb,aLJQ5cqb,2020-0188,2020-05-21,13:06:44,13:28:55,NA,incomplete,38,shape,1,left,Purple_Triangle_Chess_1.jpg,Green_Triangle_Stripes_4.jpg,Purple_Plus_Dots_3.jpg,left,775.0049999449402,true,NA,NA,NA,NA,NA,NA,NA,NA,true
aLJQ5cqb,3o2y2uiudt7n7g4dfo9bupx2ocrfkv,3vp0c6efsk9o1v9zq9op4g8k6e36mb,aLJQ5cqb,2020-0188,2020-05-21,13:06:44,13:28:55,NA,incomplete,39,shape,0,left,Red_Plus_Stripes_1.jpg,Green_Plus_Chess_3.jpg,Red_Triangle_Grid_4.jpg,left,955.6950000114739,true,NA,NA,NA,NA,NA,NA,NA,NA,true
aLJQ5cqb,3o2y2uiudt7n7g4dfo9bupx2ocrfkv,3vp0c6efsk9o1v9zq9op4g8k6e36mb,aLJQ5cqb,2020-0188,2020-05-21,13:06:44,13:28:55,NA,incomplete,0,color,1,right,Red_Triangle_Chess_4.jpg,Purple_Triangle_Grid_1.jpg,Red_Star_Dots_2.jpg,right,910.6150000588968,true,high,NA,NA,NA,NA,NA,NA,NA,false
aLJQ5cqb,3o2y2uiudt7n7g4dfo9bupx2ocrfkv,3vp0c6efsk9o1v9zq9op4g8k6e36mb,aLJQ5cqb,2020-0188,2020-05-21,13:06:44,13:28:55,NA,incomplete,1,color,1,right,Red_Circle_Chess_1.jpg,Green_Circle_Stripes_4.jpg,Red_Plus_Dots_2.jpg,right,573.7850000150502,true,high,NA,NA,NA,NA,NA,NA,NA,false
aLJQ5cqb,3o2y2uiudt7n7g4dfo9bupx2ocrfkv,3vp0c6efsk9o1v9zq9op4g8k6e36mb,aLJQ5cqb,2020-0188,2020-05-21,13:06:44,13:28:55,NA,incomplete,2,color,1,right,Purple_Plus_Dots_4.jpg,Green_Plus_Grid_2.jpg,Purple_Circle_Chess_3.jpg,right,504.4950000010431,true,high,NA,NA,NA,NA,NA,NA,NA,false
aLJQ5cqb,3o2y2uiudt7n7g4dfo9bupx2ocrfkv,3vp0c6efsk9o1v9zq9op4g8k6e36mb,aLJQ5cqb,2020-0188,2020-05-21,13:06:44,13:28:55,NA,incomplete,3,color,1,right,Red_Circle_Stripes_3.jpg,Blue_Circle_Dots_1.jpg,Red_Triangle_Grid_2.jpg,right,421.26999993342906,true,high,NA,NA,NA,NA,NA,NA,NA,false
aLJQ5cqb,3o2y2uiudt7n7g4dfo9bupx2ocrfkv,3vp0c6efsk9o1v9zq9op4g8k6e36mb,aLJQ5cqb,2020-0188,2020-05-21,13:06:44,13:28:55,NA,incomplete,4,color,1,left,Purple_Star_Stripes_2.jpg,Purple_Triangle_Grid_3.jpg,Red_Star_Chess_1.jpg,left,401.30499994847924,true,high,NA,NA,NA,NA,NA,NA,NA,false
aLJQ5cqb,3o2y2uiudt7n7g4dfo9bupx2ocrfkv,3vp0c6efsk9o1v9zq9op4g8k6e36mb,aLJQ5cqb,2020-0188,2020-05-21,13:06:44,13:28:55,NA,incomplete,5,color,1,left,Purple_Star_Dots_2.jpg,Purple_Circle_Chess_4.jpg,Blue_Star_Grid_1.jpg,left,572.7000000188127,true,high,NA,NA,NA,NA,NA,NA,NA,false
aLJQ5cqb,3o2y2uiudt7n7g4dfo9bupx2ocrfkv,3vp0c6efsk9o1v9zq9op4g8k6e36mb,aLJQ5cqb,2020-0188,2020-05-21,13:06:44,13:28:55,NA,incomplete,6,color,1,left,Blue_Plus_Dots_1.jpg,Blue_Circle_Chess_2.jpg,Green_Plus_Grid_3.jpg,left,822.0049999654293,true,high,NA,NA,NA,NA,NA,NA,NA,false
aLJQ5cqb,3o2y2uiudt7n7g4dfo9bupx2ocrfkv,3vp0c6efsk9o1v9zq9op4g8k6e36mb,aLJQ5cqb,2020-0188,2020-05-21,13:06:44,13:28:55,NA,incomplete,7,color,0,right,Red_Triangle_Stripes_2.jpg,Purple_Triangle_Chess_1.jpg,Red_Plus_Grid_4.jpg,right,419.2200000397861,true,high,NA,NA,NA,NA,NA,NA,NA,false
aLJQ5cqb,3o2y2uiudt7n7g4dfo9bupx2ocrfkv,3vp0c6efsk9o1v9zq9op4g8k6e36mb,aLJQ5cqb,2020-0188,2020-05-21,13:06:44,13:28:55,NA,incomplete,8,color,1,left,Red_Circle_Stripes_2.jpg,Red_Star_Chess_3.jpg,Purple_Circle_Grid_1.jpg,left,393.4749999316409,true,high,NA,NA,NA,NA,NA,NA,NA,false
aLJQ5cqb,3o2y2uiudt7n7g4dfo9bupx2ocrfkv,3vp0c6efsk9o1v9zq9op4g8k6e36mb,aLJQ5cqb,2020-0188,2020-05-21,13:06:44,13:28:55,NA,incomplete,9,color,1,right,Purple_Triangle_Chess_3.jpg,Green_Triangle_Dots_2.jpg,Purple_Plus_Stripes_1.jpg,right,423.8749999785796,true,high,NA,NA,NA,NA,NA,NA,NA,false
aLJQ5cqb,3o2y2uiudt7n7g4dfo9bupx2ocrfkv,3vp0c6efsk9o1v9zq9op4g8k6e36mb,aLJQ5cqb,2020-0188,2020-05-21,13:06:44,13:28:55,NA,incomplete,10,shape,1,left,Purple_Triangle_Stripes_1.jpg,Red_Triangle_Chess_2.jpg,Purple_Circle_Grid_4.jpg,right,460.53000004030764,false,high,NA,NA,NA,NA,NA,NA,NA,false
aLJQ5cqb,3o2y2uiudt7n7g4dfo9bupx2ocrfkv,3vp0c6efsk9o1v9zq9op4g8k6e36mb,aLJQ5cqb,2020-0188,2020-05-21,13:06:44,13:28:55,NA,incomplete,11,shape,1,right,Blue_Plus_Chess_4.jpg,Blue_Star_Stripes_1.jpg,Purple_Plus_Grid_2.jpg,left,513.950000051409,false,high,NA,NA,NA,NA,NA,NA,NA,false
aLJQ5cqb,3o2y2uiudt7n7g4dfo9bupx2ocrfkv,3vp0c6efsk9o1v9zq9op4g8k6e36mb,aLJQ5cqb,2020-0188,2020-05-21,13:06:44,13:28:55,NA,incomplete,12,shape,1,right,Blue_Plus_Chess_1.jpg,Blue_Triangle_Dots_4.jpg,Red_Plus_Stripes_3.jpg,right,704.825000022538,true,high,NA,NA,NA,NA,NA,NA,NA,false
aLJQ5cqb,3o2y2uiudt7n7g4dfo9bupx2ocrfkv,3vp0c6efsk9o1v9zq9op4g8k6e36mb,aLJQ5cqb,2020-0188,2020-05-21,13:06:44,13:28:55,NA,incomplete,13,shape,1,left,Red_Triangle_Stripes_4.jpg,Purple_Triangle_Chess_1.jpg,Red_Star_Dots_3.jpg,right,781.7200000863522,false,high,NA,NA,NA,NA,NA,NA,NA,false
aLJQ5cqb,3o2y2uiudt7n7g4dfo9bupx2ocrfkv,3vp0c6efsk9o1v9zq9op4g8k6e36mb,aLJQ5cqb,2020-0188,2020-05-21,13:06:44,13:28:55,NA,incomplete,14,shape,0,right,Purple_Plus_Chess_2.jpg,Purple_Triangle_Dots_3.jpg,Green_Plus_Grid_1.jpg,right,890.3150000842288,true,high,NA,NA,NA,NA,NA,NA,NA,false
aLJQ5cqb,3o2y2uiudt7n7g4dfo9bupx2ocrfkv,3vp0c6efsk9o1v9zq9op4g8k6e36mb,aLJQ5cqb,2020-0188,2020-05-21,13:06:44,13:28:55,NA,incomplete,15,shape,1,right,Purple_Triangle_Chess_1.jpg,Purple_Plus_Stripes_2.jpg,Green_Triangle_Grid_3.jpg,right,573.5400000121444,true,high,NA,NA,NA,NA,NA,NA,NA,false
aLJQ5cqb,3o2y2uiudt7n7g4dfo9bupx2ocrfkv,3vp0c6efsk9o1v9zq9op4g8k6e36mb,aLJQ5cqb,2020-0188,2020-05-21,13:06:44,13:28:55,NA,incomplete,16,shape,1,right,Blue_Circle_Stripes_4.jpg,Blue_Plus_Grid_1.jpg,Green_Circle_Chess_2.jpg,left,767.9050000151619,false,high,NA,NA,NA,NA,NA,NA,NA,false
aLJQ5cqb,3o2y2uiudt7n7g4dfo9bupx2ocrfkv,3vp0c6efsk9o1v9zq9op4g8k6e36mb,aLJQ5cqb,2020-0188,2020-05-21,13:06:44,13:28:55,NA,incomplete,17,shape,0,right,Green_Star_Dots_2.jpg,Green_Circle_Chess_1.jpg,Red_Star_Stripes_3.jpg,right,689.2900000093505,true,high,NA,NA,NA,NA,NA,NA,NA,false
aLJQ5cqb,3o2y2uiudt7n7g4dfo9bupx2ocrfkv,3vp0c6efsk9o1v9zq9op4g8k6e36mb,aLJQ5cqb,2020-0188,2020-05-21,13:06:44,13:28:55,NA,incomplete,18,shape,1,left,Blue_Plus_Chess_3.jpg,Green_Plus_Dots_1.jpg,Blue_Star_Stripes_4.jpg,left,707.3300000047311,true,high,NA,NA,NA,NA,NA,NA,NA,false
aLJQ5cqb,3o2y2uiudt7n7g4dfo9bupx2ocrfkv,3vp0c6efsk9o1v9zq9op4g8k6e36mb,aLJQ5cqb,2020-0188,2020-05-21,13:06:44,13:28:55,NA,incomplete,19,shape,1,right,Purple_Star_Chess_4.jpg,Purple_Triangle_Grid_3.jpg,Red_Star_Stripes_2.jpg,right,752.7649999829009,true,high,NA,NA,NA,NA,NA,NA,NA,false
aLJQ5cqb,3o2y2uiudt7n7g4dfo9bupx2ocrfkv,3vp0c6efsk9o1v9zq9op4g8k6e36mb,aLJQ5cqb,2020-0188,2020-05-21,13:06:44,13:28:55,NA,incomplete,20,color,1,left,Green_Circle_Dots_3.jpg,Green_Star_Stripes_2.jpg,Red_Circle_Chess_1.jpg,right,679.6999999787658,false,high,NA,NA,NA,NA,NA,NA,NA,false
aLJQ5cqb,3o2y2uiudt7n7g4dfo9bupx2ocrfkv,3vp0c6efsk9o1v9zq9op4g8k6e36mb,aLJQ5cqb,2020-0188,2020-05-21,13:06:44,13:28:55,NA,incomplete,21,color,0,right,Green_Star_Stripes_4.jpg,Blue_Star_Chess_3.jpg,Green_Plus_Dots_2.jpg,left,663.509999983944,false,high,NA,NA,NA,NA,NA,NA,NA,false
aLJQ5cqb,3o2y2uiudt7n7g4dfo9bupx2ocrfkv,3vp0c6efsk9o1v9zq9op4g8k6e36mb,aLJQ5cqb,2020-0188,2020-05-21,13:06:44,13:28:55,NA,incomplete,22,color,0,left,Purple_Circle_Chess_2.jpg,Purple_Triangle_Dots_1.jpg,Red_Circle_Grid_3.jpg,right,684.7350000170991,false,high,NA,NA,NA,NA,NA,NA,NA,false
aLJQ5cqb,3o2y2uiudt7n7g4dfo9bupx2ocrfkv,3vp0c6efsk9o1v9zq9op4g8k6e36mb,aLJQ5cqb,2020-0188,2020-05-21,13:06:44,13:28:55,NA,incomplete,23,color,1,left,Purple_Plus_Dots_2.jpg,Purple_Triangle_Chess_4.jpg,Red_Plus_Stripes_1.jpg,right,758.1899999640882,false,high,NA,NA,NA,NA,NA,NA,NA,false
aLJQ5cqb,3o2y2uiudt7n7g4dfo9bupx2ocrfkv,3vp0c6efsk9o1v9zq9op4g8k6e36mb,aLJQ5cqb,2020-0188,2020-05-21,13:06:44,13:28:55,NA,incomplete,24,color,1,left,Blue_Star_Dots_2.jpg,Blue_Triangle_Chess_4.jpg,Purple_Star_Grid_3.jpg,right,614.0450000530109,false,high,NA,NA,NA,NA,NA,NA,NA,false
aLJQ5cqb,3o2y2uiudt7n7g4dfo9bupx2ocrfkv,3vp0c6efsk9o1v9zq9op4g8k6e36mb,aLJQ5cqb,2020-0188,2020-05-21,13:06:44,13:28:55,NA,incomplete,25,color,1,right,Blue_Plus_Grid_2.jpg,Red_Plus_Chess_1.jpg,Blue_Star_Dots_4.jpg,right,487.7599999308586,true,high,NA,NA,NA,NA,NA,NA,NA,false
aLJQ5cqb,3o2y2uiudt7n7g4dfo9bupx2ocrfkv,3vp0c6efsk9o1v9zq9op4g8k6e36mb,aLJQ5cqb,2020-0188,2020-05-21,13:06:44,13:28:55,NA,incomplete,26,color,0,right,Green_Circle_Dots_3.jpg,Red_Circle_Stripes_4.jpg,Green_Star_Chess_1.jpg,left,738.4499999461696,false,high,NA,NA,NA,NA,NA,NA,NA,false
aLJQ5cqb,3o2y2uiudt7n7g4dfo9bupx2ocrfkv,3vp0c6efsk9o1v9zq9op4g8k6e36mb,aLJQ5cqb,2020-0188,2020-05-21,13:06:44,13:28:55,NA,incomplete,27,color,1,left,Purple_Plus_Grid_3.jpg,Purple_Triangle_Chess_4.jpg,Green_Plus_Stripes_1.jpg,left,782.4400000972673,true,high,NA,NA,NA,NA,NA,NA,NA,false
aLJQ5cqb,3o2y2uiudt7n7g4dfo9bupx2ocrfkv,3vp0c6efsk9o1v9zq9op4g8k6e36mb,aLJQ5cqb,2020-0188,2020-05-21,13:06:44,13:28:55,NA,incomplete,28,color,0,left,Blue_Star_Dots_4.jpg,Blue_Circle_Stripes_3.jpg,Purple_Star_Grid_2.jpg,left,627.8300000121817,true,high,NA,NA,NA,NA,NA,NA,NA,false
aLJQ5cqb,3o2y2uiudt7n7g4dfo9bupx2ocrfkv,3vp0c6efsk9o1v9zq9op4g8k6e36mb,aLJQ5cqb,2020-0188,2020-05-21,13:06:44,13:28:55,NA,incomplete,29,color,0,right,Green_Circle_Chess_4.jpg,Red_Circle_Stripes_1.jpg,Green_Star_Grid_2.jpg,right,604.0849999990314,true,high,NA,NA,NA,NA,NA,NA,NA,false
aLJQ5cqb,3o2y2uiudt7n7g4dfo9bupx2ocrfkv,3vp0c6efsk9o1v9zq9op4g8k6e36mb,aLJQ5cqb,2020-0188,2020-05-21,13:06:44,13:28:55,NA,incomplete,30,shape,1,left,Purple_Triangle_Dots_4.jpg,Blue_Triangle_Stripes_3.jpg,Purple_Plus_Grid_2.jpg,right,693.6700000660494,false,high,NA,NA,NA,NA,NA,NA,NA,false
aLJQ5cqb,3o2y2uiudt7n7g4dfo9bupx2ocrfkv,3vp0c6efsk9o1v9zq9op4g8k6e36mb,aLJQ5cqb,2020-0188,2020-05-21,13:06:44,13:28:55,NA,incomplete,31,shape,0,left,Blue_Circle_Grid_3.jpg,Purple_Circle_Dots_1.jpg,Blue_Plus_Stripes_4.jpg,left,840.6899999827147,true,high,NA,NA,NA,NA,NA,NA,NA,false
aLJQ5cqb,3o2y2uiudt7n7g4dfo9bupx2ocrfkv,3vp0c6efsk9o1v9zq9op4g8k6e36mb,aLJQ5cqb,2020-0188,2020-05-21,13:06:44,13:28:55,NA,incomplete,32,shape,0,left,Red_Star_Stripes_2.jpg,Blue_Star_Chess_3.jpg,Red_Plus_Dots_1.jpg,left,687.2499999590218,true,high,NA,NA,NA,NA,NA,NA,NA,false
aLJQ5cqb,3o2y2uiudt7n7g4dfo9bupx2ocrfkv,3vp0c6efsk9o1v9zq9op4g8k6e36mb,aLJQ5cqb,2020-0188,2020-05-21,13:06:44,13:28:55,NA,incomplete,33,shape,1,right,Blue_Circle_Stripes_2.jpg,Blue_Plus_Dots_1.jpg,Purple_Circle_Grid_4.jpg,right,938.2999999215826,true,high,NA,NA,NA,NA,NA,NA,NA,false
aLJQ5cqb,3o2y2uiudt7n7g4dfo9bupx2ocrfkv,3vp0c6efsk9o1v9zq9op4g8k6e36mb,aLJQ5cqb,2020-0188,2020-05-21,13:06:44,13:28:55,NA,incomplete,34,shape,1,right,Green_Circle_Chess_1.jpg,Green_Star_Stripes_4.jpg,Purple_Circle_Dots_3.jpg,right,551.3250000076368,true,high,NA,NA,NA,NA,NA,NA,NA,false
aLJQ5cqb,3o2y2uiudt7n7g4dfo9bupx2ocrfkv,3vp0c6efsk9o1v9zq9op4g8k6e36mb,aLJQ5cqb,2020-0188,2020-05-21,13:06:44,13:28:55,NA,incomplete,35,shape,1,right,Red_Triangle_Stripes_1.jpg,Red_Plus_Dots_3.jpg,Green_Triangle_Chess_2.jpg,right,709.389999974519,true,high,NA,NA,NA,NA,NA,NA,NA,false
aLJQ5cqb,3o2y2uiudt7n7g4dfo9bupx2ocrfkv,3vp0c6efsk9o1v9zq9op4g8k6e36mb,aLJQ5cqb,2020-0188,2020-05-21,13:06:44,13:28:55,NA,incomplete,36,shape,1,right,Red_Plus_Stripes_1.jpg,Red_Circle_Dots_3.jpg,Purple_Plus_Chess_2.jpg,right,581.1050001066178,true,high,NA,NA,NA,NA,NA,NA,NA,false
aLJQ5cqb,3o2y2uiudt7n7g4dfo9bupx2ocrfkv,3vp0c6efsk9o1v9zq9op4g8k6e36mb,aLJQ5cqb,2020-0188,2020-05-21,13:06:44,13:28:55,NA,incomplete,37,shape,1,right,Red_Star_Dots_2.jpg,Red_Circle_Grid_4.jpg,Blue_Star_Stripes_1.jpg,right,569.9899999890476,true,high,NA,NA,NA,NA,NA,NA,NA,false
aLJQ5cqb,3o2y2uiudt7n7g4dfo9bupx2ocrfkv,3vp0c6efsk9o1v9zq9op4g8k6e36mb,aLJQ5cqb,2020-0188,2020-05-21,13:06:44,13:28:55,NA,incomplete,38,shape,1,left,Blue_Triangle_Grid_1.jpg,Red_Triangle_Dots_4.jpg,Blue_Circle_Chess_2.jpg,left,547.8150000562891,true,high,NA,NA,NA,NA,NA,NA,NA,false
aLJQ5cqb,3o2y2uiudt7n7g4dfo9bupx2ocrfkv,3vp0c6efsk9o1v9zq9op4g8k6e36mb,aLJQ5cqb,2020-0188,2020-05-21,13:06:44,13:28:55,NA,incomplete,39,shape,0,left,Red_Triangle_Grid_2.jpg,Blue_Triangle_Stripes_3.jpg,Red_Star_Chess_4.jpg,left,635.6950000626966,true,high,NA,NA,NA,NA,NA,NA,NA,false
aLJQ5cqb,3o2y2uiudt7n7g4dfo9bupx2ocrfkv,3vp0c6efsk9o1v9zq9op4g8k6e36mb,aLJQ5cqb,2020-0188,2020-05-21,13:06:44,13:28:55,NA,incomplete,40,color,0,right,Purple_Plus_Chess_1.jpg,Blue_Plus_Grid_3.jpg,Purple_Star_Stripes_4.jpg,left,643.3699999470264,false,high,NA,NA,NA,NA,NA,NA,NA,false
aLJQ5cqb,3o2y2uiudt7n7g4dfo9bupx2ocrfkv,3vp0c6efsk9o1v9zq9op4g8k6e36mb,aLJQ5cqb,2020-0188,2020-05-21,13:06:44,13:28:55,NA,incomplete,41,color,1,left,Green_Star_Chess_3.jpg,Green_Plus_Stripes_1.jpg,Purple_Star_Dots_2.jpg,right,662.1349999913946,false,high,NA,NA,NA,NA,NA,NA,NA,false
aLJQ5cqb,3o2y2uiudt7n7g4dfo9bupx2ocrfkv,3vp0c6efsk9o1v9zq9op4g8k6e36mb,aLJQ5cqb,2020-0188,2020-05-21,13:06:44,13:28:55,NA,incomplete,42,color,1,left,Red_Circle_Dots_2.jpg,Red_Star_Stripes_1.jpg,Blue_Circle_Chess_3.jpg,left,538.0099999019876,true,high,NA,NA,NA,NA,NA,NA,NA,false
aLJQ5cqb,3o2y2uiudt7n7g4dfo9bupx2ocrfkv,3vp0c6efsk9o1v9zq9op4g8k6e36mb,aLJQ5cqb,2020-0188,2020-05-21,13:06:44,13:28:55,NA,incomplete,43,color,1,left,Purple_Star_Grid_4.jpg,Purple_Plus_Stripes_3.jpg,Red_Star_Dots_2.jpg,left,503.70499992277473,true,high,NA,NA,NA,NA,NA,NA,NA,false
aLJQ5cqb,3o2y2uiudt7n7g4dfo9bupx2ocrfkv,3vp0c6efsk9o1v9zq9op4g8k6e36mb,aLJQ5cqb,2020-0188,2020-05-21,13:06:44,13:28:55,NA,incomplete,44,color,1,left,Blue_Plus_Grid_1.jpg,Blue_Star_Stripes_3.jpg,Purple_Plus_Chess_4.jpg,left,516.2649999838322,true,high,NA,NA,NA,NA,NA,NA,NA,false
aLJQ5cqb,3o2y2uiudt7n7g4dfo9bupx2ocrfkv,3vp0c6efsk9o1v9zq9op4g8k6e36mb,aLJQ5cqb,2020-0188,2020-05-21,13:06:44,13:28:55,NA,incomplete,45,color,1,left,Blue_Plus_Chess_2.jpg,Blue_Star_Stripes_3.jpg,Red_Plus_Grid_4.jpg,left,491.3899999810383,true,high,NA,NA,NA,NA,NA,NA,NA,false
aLJQ5cqb,3o2y2uiudt7n7g4dfo9bupx2ocrfkv,3vp0c6efsk9o1v9zq9op4g8k6e36mb,aLJQ5cqb,2020-0188,2020-05-21,13:06:44,13:28:55,NA,incomplete,46,color,0,left,Red_Triangle_Stripes_4.jpg,Red_Star_Chess_1.jpg,Purple_Triangle_Dots_3.jpg,right,517.7449999609962,false,high,NA,NA,NA,NA,NA,NA,NA,false
aLJQ5cqb,3o2y2uiudt7n7g4dfo9bupx2ocrfkv,3vp0c6efsk9o1v9zq9op4g8k6e36mb,aLJQ5cqb,2020-0188,2020-05-21,13:06:44,13:28:55,NA,incomplete,47,color,1,right,Purple_Plus_Dots_1.jpg,Green_Plus_Stripes_4.jpg,Purple_Triangle_Grid_3.jpg,left,774.4249999523163,false,high,NA,NA,NA,NA,NA,NA,NA,false
aLJQ5cqb,3o2y2uiudt7n7g4dfo9bupx2ocrfkv,3vp0c6efsk9o1v9zq9op4g8k6e36mb,aLJQ5cqb,2020-0188,2020-05-21,13:06:44,13:28:55,NA,incomplete,48,color,1,right,Green_Star_Stripes_1.jpg,Purple_Star_Grid_3.jpg,Green_Triangle_Dots_4.jpg,right,410.35000002011657,true,high,NA,NA,NA,NA,NA,NA,NA,false
aLJQ5cqb,3o2y2uiudt7n7g4dfo9bupx2ocrfkv,3vp0c6efsk9o1v9zq9op4g8k6e36mb,aLJQ5cqb,2020-0188,2020-05-21,13:06:44,13:28:55,NA,incomplete,49,color,1,right,Purple_Triangle_Grid_3.jpg,Red_Triangle_Stripes_1.jpg,Purple_Star_Chess_2.jpg,right,556.4449999947101,true,high,NA,NA,NA,NA,NA,NA,NA,false
aLJQ5cqb,3o2y2uiudt7n7g4dfo9bupx2ocrfkv,3vp0c6efsk9o1v9zq9op4g8k6e36mb,aLJQ5cqb,2020-0188,2020-05-21,13:06:44,13:28:55,NA,incomplete,50,shape,1,right,Purple_Triangle_Stripes_3.jpg,Purple_Plus_Dots_2.jpg,Blue_Triangle_Chess_4.jpg,left,715.8899999922141,false,high,NA,NA,NA,NA,NA,NA,NA,false
aLJQ5cqb,3o2y2uiudt7n7g4dfo9bupx2ocrfkv,3vp0c6efsk9o1v9zq9op4g8k6e36mb,aLJQ5cqb,2020-0188,2020-05-21,13:06:44,13:28:55,NA,incomplete,51,shape,1,left,Blue_Triangle_Grid_2.jpg,Red_Triangle_Stripes_4.jpg,Blue_Circle_Chess_1.jpg,right,555.5699999677017,false,high,NA,NA,NA,NA,NA,NA,NA,false
aLJQ5cqb,3o2y2uiudt7n7g4dfo9bupx2ocrfkv,3vp0c6efsk9o1v9zq9op4g8k6e36mb,aLJQ5cqb,2020-0188,2020-05-21,13:06:44,13:28:55,NA,incomplete,52,shape,1,right,Red_Triangle_Chess_3.jpg,Red_Circle_Grid_1.jpg,Blue_Triangle_Dots_4.jpg,right,699.5149999856949,true,high,NA,NA,NA,NA,NA,NA,NA,false
aLJQ5cqb,3o2y2uiudt7n7g4dfo9bupx2ocrfkv,3vp0c6efsk9o1v9zq9op4g8k6e36mb,aLJQ5cqb,2020-0188,2020-05-21,13:06:44,13:28:55,NA,incomplete,53,shape,0,left,Red_Plus_Grid_3.jpg,Green_Plus_Dots_2.jpg,Red_Triangle_Stripes_4.jpg,left,743.7450001016259,true,high,NA,NA,NA,NA,NA,NA,NA,false
aLJQ5cqb,3o2y2uiudt7n7g4dfo9bupx2ocrfkv,3vp0c6efsk9o1v9zq9op4g8k6e36mb,aLJQ5cqb,2020-0188,2020-05-21,13:06:44,13:28:55,NA,incomplete,54,shape,1,left,Blue_Triangle_Stripes_4.jpg,Purple_Triangle_Chess_2.jpg,Blue_Plus_Grid_3.jpg,left,628.5299999872223,true,high,NA,NA,NA,NA,NA,NA,NA,false
aLJQ5cqb,3o2y2uiudt7n7g4dfo9bupx2ocrfkv,3vp0c6efsk9o1v9zq9op4g8k6e36mb,aLJQ5cqb,2020-0188,2020-05-21,13:06:44,13:28:55,NA,incomplete,55,shape,1,right,Purple_Star_Dots_4.jpg,Purple_Triangle_Grid_1.jpg,Green_Star_Chess_2.jpg,right,684.3850000295788,true,high,NA,NA,NA,NA,NA,NA,NA,false
aLJQ5cqb,3o2y2uiudt7n7g4dfo9bupx2ocrfkv,3vp0c6efsk9o1v9zq9op4g8k6e36mb,aLJQ5cqb,2020-0188,2020-05-21,13:06:44,13:28:55,NA,incomplete,56,shape,1,right,Purple_Circle_Dots_2.jpg,Purple_Plus_Stripes_4.jpg,Red_Circle_Chess_1.jpg,right,710.3750000242144,true,high,NA,NA,NA,NA,NA,NA,NA,false
aLJQ5cqb,3o2y2uiudt7n7g4dfo9bupx2ocrfkv,3vp0c6efsk9o1v9zq9op4g8k6e36mb,aLJQ5cqb,2020-0188,2020-05-21,13:06:44,13:28:55,NA,incomplete,57,shape,1,left,Red_Star_Chess_2.jpg,Green_Star_Stripes_3.jpg,Red_Circle_Dots_4.jpg,left,678.4400000469759,true,high,NA,NA,NA,NA,NA,NA,NA,false
aLJQ5cqb,3o2y2uiudt7n7g4dfo9bupx2ocrfkv,3vp0c6efsk9o1v9zq9op4g8k6e36mb,aLJQ5cqb,2020-0188,2020-05-21,13:06:44,13:28:55,NA,incomplete,58,shape,1,left,Green_Triangle_Grid_1.jpg,Blue_Triangle_Stripes_3.jpg,Green_Circle_Chess_4.jpg,left,590.3699999907985,true,high,NA,NA,NA,NA,NA,NA,NA,false
aLJQ5cqb,3o2y2uiudt7n7g4dfo9bupx2ocrfkv,3vp0c6efsk9o1v9zq9op4g8k6e36mb,aLJQ5cqb,2020-0188,2020-05-21,13:06:44,13:28:55,NA,incomplete,59,shape,1,right,Blue_Triangle_Grid_4.jpg,Blue_Circle_Dots_1.jpg,Red_Triangle_Stripes_3.jpg,right,581.5200000070035,true,high,NA,NA,NA,NA,NA,NA,NA,false
aLJQ5cqb,3o2y2uiudt7n7g4dfo9bupx2ocrfkv,3vp0c6efsk9o1v9zq9op4g8k6e36mb,aLJQ5cqb,2020-0188,2020-05-21,13:06:44,13:28:55,NA,incomplete,60,color,1,left,Green_Triangle_Grid_3.jpg,Green_Plus_Stripes_4.jpg,Red_Triangle_Chess_1.jpg,right,770.1450000749901,false,high,NA,NA,NA,NA,NA,NA,NA,false
aLJQ5cqb,3o2y2uiudt7n7g4dfo9bupx2ocrfkv,3vp0c6efsk9o1v9zq9op4g8k6e36mb,aLJQ5cqb,2020-0188,2020-05-21,13:06:44,13:28:55,NA,incomplete,61,color,0,left,Red_Star_Grid_1.jpg,Red_Triangle_Stripes_2.jpg,Green_Star_Chess_3.jpg,right,740.5949999811128,false,high,NA,NA,NA,NA,NA,NA,NA,false
aLJQ5cqb,3o2y2uiudt7n7g4dfo9bupx2ocrfkv,3vp0c6efsk9o1v9zq9op4g8k6e36mb,aLJQ5cqb,2020-0188,2020-05-21,13:06:44,13:28:55,NA,incomplete,62,color,1,right,Blue_Triangle_Chess_3.jpg,Green_Triangle_Grid_2.jpg,Blue_Plus_Dots_4.jpg,left,643.0949999485165,false,high,NA,NA,NA,NA,NA,NA,NA,false
aLJQ5cqb,3o2y2uiudt7n7g4dfo9bupx2ocrfkv,3vp0c6efsk9o1v9zq9op4g8k6e36mb,aLJQ5cqb,2020-0188,2020-05-21,13:06:44,13:28:55,NA,incomplete,63,color,1,left,Purple_Plus_Grid_1.jpg,Purple_Circle_Stripes_4.jpg,Red_Plus_Dots_2.jpg,right,616.32999998983,false,high,NA,NA,NA,NA,NA,NA,NA,false
aLJQ5cqb,3o2y2uiudt7n7g4dfo9bupx2ocrfkv,3vp0c6efsk9o1v9zq9op4g8k6e36mb,aLJQ5cqb,2020-0188,2020-05-21,13:06:44,13:28:55,NA,incomplete,64,color,1,right,Green_Star_Dots_4.jpg,Red_Star_Grid_1.jpg,Green_Plus_Chess_3.jpg,right,469.03999999631196,true,high,NA,NA,NA,NA,NA,NA,NA,false
aLJQ5cqb,3o2y2uiudt7n7g4dfo9bupx2ocrfkv,3vp0c6efsk9o1v9zq9op4g8k6e36mb,aLJQ5cqb,2020-0188,2020-05-21,13:06:44,13:28:55,NA,incomplete,65,color,1,right,Green_Triangle_Stripes_2.jpg,Purple_Triangle_Dots_1.jpg,Green_Star_Grid_4.jpg,right,516.6700000409037,true,high,NA,NA,NA,NA,NA,NA,NA,false
aLJQ5cqb,3o2y2uiudt7n7g4dfo9bupx2ocrfkv,3vp0c6efsk9o1v9zq9op4g8k6e36mb,aLJQ5cqb,2020-0188,2020-05-21,13:06:44,13:28:55,NA,incomplete,66,color,1,left,Purple_Circle_Stripes_4.jpg,Purple_Star_Chess_3.jpg,Blue_Circle_Dots_2.jpg,left,532.3750000679865,true,high,NA,NA,NA,NA,NA,NA,NA,false
aLJQ5cqb,3o2y2uiudt7n7g4dfo9bupx2ocrfkv,3vp0c6efsk9o1v9zq9op4g8k6e36mb,aLJQ5cqb,2020-0188,2020-05-21,13:06:44,13:28:55,NA,incomplete,67,color,1,left,Red_Star_Dots_3.jpg,Red_Plus_Chess_1.jpg,Blue_Star_Stripes_4.jpg,left,638.8649999862537,true,high,NA,NA,NA,NA,NA,NA,NA,false
aLJQ5cqb,3o2y2uiudt7n7g4dfo9bupx2ocrfkv,3vp0c6efsk9o1v9zq9op4g8k6e36mb,aLJQ5cqb,2020-0188,2020-05-21,13:06:44,13:28:55,NA,incomplete,68,color,1,right,Purple_Circle_Dots_3.jpg,Green_Circle_Grid_1.jpg,Purple_Star_Chess_4.jpg,left,678.0749999452382,false,high,NA,NA,NA,NA,NA,NA,NA,false
aLJQ5cqb,3o2y2uiudt7n7g4dfo9bupx2ocrfkv,3vp0c6efsk9o1v9zq9op4g8k6e36mb,aLJQ5cqb,2020-0188,2020-05-21,13:06:44,13:28:55,NA,incomplete,69,color,1,right,Blue_Star_Stripes_1.jpg,Green_Star_Grid_2.jpg,Blue_Circle_Dots_3.jpg,right,413.85000001173466,true,high,NA,NA,NA,NA,NA,NA,NA,false
aLJQ5cqb,3o2y2uiudt7n7g4dfo9bupx2ocrfkv,3vp0c6efsk9o1v9zq9op4g8k6e36mb,aLJQ5cqb,2020-0188,2020-05-21,13:06:44,13:28:55,NA,incomplete,70,shape,0,left,Green_Star_Stripes_3.jpg,Purple_Star_Dots_2.jpg,Green_Triangle_Grid_1.jpg,right,528.0349999666214,false,high,NA,NA,NA,NA,NA,NA,NA,false
aLJQ5cqb,3o2y2uiudt7n7g4dfo9bupx2ocrfkv,3vp0c6efsk9o1v9zq9op4g8k6e36mb,aLJQ5cqb,2020-0188,2020-05-21,13:06:44,13:28:55,NA,incomplete,71,shape,1,left,Blue_Circle_Chess_4.jpg,Purple_Circle_Dots_2.jpg,Blue_Triangle_Stripes_1.jpg,right,474.6049999957904,false,high,NA,NA,NA,NA,NA,NA,NA,false
aLJQ5cqb,3o2y2uiudt7n7g4dfo9bupx2ocrfkv,3vp0c6efsk9o1v9zq9op4g8k6e36mb,aLJQ5cqb,2020-0188,2020-05-21,13:06:44,13:28:55,NA,incomplete,72,shape,1,left,Blue_Circle_Stripes_3.jpg,Green_Circle_Dots_1.jpg,Blue_Plus_Grid_4.jpg,right,409.8699999740347,false,high,NA,NA,NA,NA,NA,NA,NA,false
aLJQ5cqb,3o2y2uiudt7n7g4dfo9bupx2ocrfkv,3vp0c6efsk9o1v9zq9op4g8k6e36mb,aLJQ5cqb,2020-0188,2020-05-21,13:06:44,13:28:55,NA,incomplete,73,shape,1,left,Red_Triangle_Grid_3.jpg,Purple_Triangle_Dots_1.jpg,Red_Star_Chess_4.jpg,left,692.2299999278039,true,high,NA,NA,NA,NA,NA,NA,NA,false
aLJQ5cqb,3o2y2uiudt7n7g4dfo9bupx2ocrfkv,3vp0c6efsk9o1v9zq9op4g8k6e36mb,aLJQ5cqb,2020-0188,2020-05-21,13:06:44,13:28:55,NA,incomplete,74,shape,1,right,Red_Plus_Chess_3.jpg,Red_Star_Dots_1.jpg,Green_Plus_Grid_2.jpg,right,670.1449999818578,true,high,NA,NA,NA,NA,NA,NA,NA,false
aLJQ5cqb,3o2y2uiudt7n7g4dfo9bupx2ocrfkv,3vp0c6efsk9o1v9zq9op4g8k6e36mb,aLJQ5cqb,2020-0188,2020-05-21,13:06:44,13:28:55,NA,incomplete,75,shape,1,left,Blue_Circle_Grid_1.jpg,Green_Circle_Chess_2.jpg,Blue_Triangle_Dots_4.jpg,left,693.8999999547377,true,high,NA,NA,NA,NA,NA,NA,NA,false
aLJQ5cqb,3o2y2uiudt7n7g4dfo9bupx2ocrfkv,3vp0c6efsk9o1v9zq9op4g8k6e36mb,aLJQ5cqb,2020-0188,2020-05-21,13:06:44,13:28:55,NA,incomplete,76,shape,0,left,Red_Circle_Chess_4.jpg,Green_Circle_Grid_3.jpg,Red_Triangle_Stripes_2.jpg,left,527.9449999798089,true,high,NA,NA,NA,NA,NA,NA,NA,false
aLJQ5cqb,3o2y2uiudt7n7g4dfo9bupx2ocrfkv,3vp0c6efsk9o1v9zq9op4g8k6e36mb,aLJQ5cqb,2020-0188,2020-05-21,13:06:44,13:28:55,NA,incomplete,77,shape,1,left,Blue_Triangle_Dots_1.jpg,Red_Triangle_Grid_4.jpg,Blue_Plus_Chess_2.jpg,left,739.4250000361353,true,high,NA,NA,NA,NA,NA,NA,NA,false
aLJQ5cqb,3o2y2uiudt7n7g4dfo9bupx2ocrfkv,3vp0c6efsk9o1v9zq9op4g8k6e36mb,aLJQ5cqb,2020-0188,2020-05-21,13:06:44,13:28:55,NA,incomplete,78,shape,1,right,Purple_Star_Dots_1.jpg,Purple_Circle_Grid_2.jpg,Red_Star_Stripes_3.jpg,right,615.5100000323728,true,high,NA,NA,NA,NA,NA,NA,NA,false
aLJQ5cqb,3o2y2uiudt7n7g4dfo9bupx2ocrfkv,3vp0c6efsk9o1v9zq9op4g8k6e36mb,aLJQ5cqb,2020-0188,2020-05-21,13:06:44,13:28:55,NA,incomplete,79,shape,0,right,Blue_Circle_Grid_2.jpg,Blue_Triangle_Dots_4.jpg,Green_Circle_Stripes_3.jpg,right,635.7049999060109,true,high,NA,NA,NA,NA,NA,NA,NA,false
aLJQ5cqb,3o2y2uiudt7n7g4dfo9bupx2ocrfkv,3vp0c6efsk9o1v9zq9op4g8k6e36mb,aLJQ5cqb,2020-0188,2020-05-21,13:06:44,13:28:55,NA,incomplete,80,color,1,left,Green_Plus_Grid_3.jpg,Green_Triangle_Chess_2.jpg,Blue_Plus_Dots_4.jpg,right,603.0049999244511,false,high,NA,NA,NA,NA,NA,NA,NA,false
aLJQ5cqb,3o2y2uiudt7n7g4dfo9bupx2ocrfkv,3vp0c6efsk9o1v9zq9op4g8k6e36mb,aLJQ5cqb,2020-0188,2020-05-21,13:06:44,13:28:55,NA,incomplete,81,color,1,right,Purple_Circle_Chess_2.jpg,Blue_Circle_Dots_4.jpg,Purple_Triangle_Stripes_3.jpg,right,501.6250000335276,true,high,NA,NA,NA,NA,NA,NA,NA,false
aLJQ5cqb,3o2y2uiudt7n7g4dfo9bupx2ocrfkv,3vp0c6efsk9o1v9zq9op4g8k6e36mb,aLJQ5cqb,2020-0188,2020-05-21,13:06:44,13:28:55,NA,incomplete,82,color,0,left,Blue_Plus_Grid_3.jpg,Blue_Circle_Stripes_4.jpg,Purple_Plus_Chess_1.jpg,left,482.16999997384846,true,high,NA,NA,NA,NA,NA,NA,NA,false
aLJQ5cqb,3o2y2uiudt7n7g4dfo9bupx2ocrfkv,3vp0c6efsk9o1v9zq9op4g8k6e36mb,aLJQ5cqb,2020-0188,2020-05-21,13:06:44,13:28:55,NA,incomplete,83,color,1,right,Red_Star_Dots_1.jpg,Green_Star_Stripes_4.jpg,Red_Plus_Grid_3.jpg,left,597.2850000252947,false,high,NA,NA,NA,NA,NA,NA,NA,false
aLJQ5cqb,3o2y2uiudt7n7g4dfo9bupx2ocrfkv,3vp0c6efsk9o1v9zq9op4g8k6e36mb,aLJQ5cqb,2020-0188,2020-05-21,13:06:44,13:28:55,NA,incomplete,84,color,1,right,Red_Circle_Grid_1.jpg,Purple_Circle_Dots_2.jpg,Red_Star_Stripes_4.jpg,right,580.7199999690056,true,high,NA,NA,NA,NA,NA,NA,NA,false
aLJQ5cqb,3o2y2uiudt7n7g4dfo9bupx2ocrfkv,3vp0c6efsk9o1v9zq9op4g8k6e36mb,aLJQ5cqb,2020-0188,2020-05-21,13:06:44,13:28:55,NA,incomplete,85,color,1,left,Green_Plus_Stripes_1.jpg,Green_Star_Grid_4.jpg,Blue_Plus_Dots_2.jpg,right,745.0149999931455,false,high,NA,NA,NA,NA,NA,NA,NA,false
aLJQ5cqb,3o2y2uiudt7n7g4dfo9bupx2ocrfkv,3vp0c6efsk9o1v9zq9op4g8k6e36mb,aLJQ5cqb,2020-0188,2020-05-21,13:06:44,13:28:55,NA,incomplete,86,color,0,left,Blue_Plus_Dots_2.jpg,Blue_Triangle_Chess_1.jpg,Red_Plus_Grid_3.jpg,left,517.8750000195578,true,high,NA,NA,NA,NA,NA,NA,NA,false
aLJQ5cqb,3o2y2uiudt7n7g4dfo9bupx2ocrfkv,3vp0c6efsk9o1v9zq9op4g8k6e36mb,aLJQ5cqb,2020-0188,2020-05-21,13:06:44,13:28:55,NA,incomplete,87,color,1,left,Purple_Plus_Chess_1.jpg,Purple_Star_Dots_3.jpg,Blue_Plus_Grid_2.jpg,left,533.4749999456108,true,high,NA,NA,NA,NA,NA,NA,NA,false
aLJQ5cqb,3o2y2uiudt7n7g4dfo9bupx2ocrfkv,3vp0c6efsk9o1v9zq9op4g8k6e36mb,aLJQ5cqb,2020-0188,2020-05-21,13:06:44,13:28:55,NA,incomplete,88,color,1,left,Blue_Plus_Dots_3.jpg,Blue_Circle_Grid_2.jpg,Green_Plus_Stripes_1.jpg,left,480.61000008601695,true,high,NA,NA,NA,NA,NA,NA,NA,false
aLJQ5cqb,3o2y2uiudt7n7g4dfo9bupx2ocrfkv,3vp0c6efsk9o1v9zq9op4g8k6e36mb,aLJQ5cqb,2020-0188,2020-05-21,13:06:44,13:28:55,NA,incomplete,89,color,1,left,Purple_Plus_Chess_3.jpg,Purple_Triangle_Grid_1.jpg,Red_Plus_Dots_2.jpg,left,546.1199999554083,true,high,NA,NA,NA,NA,NA,NA,NA,false
aLJQ5cqb,3o2y2uiudt7n7g4dfo9bupx2ocrfkv,3vp0c6efsk9o1v9zq9op4g8k6e36mb,aLJQ5cqb,2020-0188,2020-05-21,13:06:44,13:28:55,NA,incomplete,90,shape,1,left,Green_Triangle_Stripes_4.jpg,Red_Triangle_Dots_3.jpg,Green_Star_Grid_2.jpg,right,406.9549998966977,false,high,NA,NA,NA,NA,NA,NA,NA,false
aLJQ5cqb,3o2y2uiudt7n7g4dfo9bupx2ocrfkv,3vp0c6efsk9o1v9zq9op4g8k6e36mb,aLJQ5cqb,2020-0188,2020-05-21,13:06:44,13:28:55,NA,incomplete,91,shape,1,right,Green_Plus_Grid_3.jpg,Green_Triangle_Stripes_1.jpg,Blue_Plus_Dots_4.jpg,left,537.4399999855086,false,high,NA,NA,NA,NA,NA,NA,NA,false
aLJQ5cqb,3o2y2uiudt7n7g4dfo9bupx2ocrfkv,3vp0c6efsk9o1v9zq9op4g8k6e36mb,aLJQ5cqb,2020-0188,2020-05-21,13:06:44,13:28:55,NA,incomplete,92,shape,1,right,Purple_Plus_Stripes_2.jpg,Purple_Circle_Chess_3.jpg,Green_Plus_Dots_4.jpg,right,613.8650000793859,true,high,NA,NA,NA,NA,NA,NA,NA,false
aLJQ5cqb,3o2y2uiudt7n7g4dfo9bupx2ocrfkv,3vp0c6efsk9o1v9zq9op4g8k6e36mb,aLJQ5cqb,2020-0188,2020-05-21,13:06:44,13:28:55,NA,incomplete,93,shape,1,left,Red_Plus_Dots_2.jpg,Purple_Plus_Stripes_3.jpg,Red_Triangle_Chess_4.jpg,right,433.6649999022484,false,high,NA,NA,NA,NA,NA,NA,NA,false
aLJQ5cqb,3o2y2uiudt7n7g4dfo9bupx2ocrfkv,3vp0c6efsk9o1v9zq9op4g8k6e36mb,aLJQ5cqb,2020-0188,2020-05-21,13:06:44,13:28:55,NA,incomplete,94,shape,1,right,Purple_Plus_Stripes_2.jpg,Purple_Triangle_Dots_1.jpg,Red_Plus_Chess_4.jpg,left,512.3949999688193,false,high,NA,NA,NA,NA,NA,NA,NA,false
aLJQ5cqb,3o2y2uiudt7n7g4dfo9bupx2ocrfkv,3vp0c6efsk9o1v9zq9op4g8k6e36mb,aLJQ5cqb,2020-0188,2020-05-21,13:06:44,13:28:55,NA,incomplete,95,shape,1,right,Red_Triangle_Stripes_4.jpg,Red_Circle_Grid_2.jpg,Blue_Triangle_Chess_1.jpg,right,647.7500000037253,true,high,NA,NA,NA,NA,NA,NA,NA,false
aLJQ5cqb,3o2y2uiudt7n7g4dfo9bupx2ocrfkv,3vp0c6efsk9o1v9zq9op4g8k6e36mb,aLJQ5cqb,2020-0188,2020-05-21,13:06:44,13:28:55,NA,incomplete,96,shape,1,left,Blue_Star_Dots_4.jpg,Purple_Star_Grid_2.jpg,Blue_Plus_Chess_3.jpg,left,905.6100000161678,true,high,NA,NA,NA,NA,NA,NA,NA,false
aLJQ5cqb,3o2y2uiudt7n7g4dfo9bupx2ocrfkv,3vp0c6efsk9o1v9zq9op4g8k6e36mb,aLJQ5cqb,2020-0188,2020-05-21,13:06:44,13:28:55,NA,incomplete,97,shape,1,left,Purple_Star_Stripes_2.jpg,Blue_Star_Grid_1.jpg,Purple_Triangle_Dots_4.jpg,left,550.8649999974295,true,high,NA,NA,NA,NA,NA,NA,NA,false
aLJQ5cqb,3o2y2uiudt7n7g4dfo9bupx2ocrfkv,3vp0c6efsk9o1v9zq9op4g8k6e36mb,aLJQ5cqb,2020-0188,2020-05-21,13:06:44,13:28:55,NA,incomplete,98,shape,0,left,Red_Star_Chess_4.jpg,Purple_Star_Grid_2.jpg,Red_Triangle_Dots_1.jpg,left,717.5449999049306,true,high,NA,NA,NA,NA,NA,NA,NA,false
aLJQ5cqb,3o2y2uiudt7n7g4dfo9bupx2ocrfkv,3vp0c6efsk9o1v9zq9op4g8k6e36mb,aLJQ5cqb,2020-0188,2020-05-21,13:06:44,13:28:55,NA,incomplete,99,shape,1,right,Red_Star_Chess_1.jpg,Red_Circle_Grid_4.jpg,Blue_Star_Stripes_3.jpg,right,567.0549999922514,true,high,NA,NA,NA,NA,NA,NA,NA,false
aLJQ5cqb,3o2y2uiudt7n7g4dfo9bupx2ocrfkv,3vp0c6efsk9o1v9zq9op4g8k6e36mb,aLJQ5cqb,2020-0188,2020-05-21,13:06:44,13:28:55,NA,incomplete,100,color,1,left,Blue_Star_Dots_1.jpg,Blue_Triangle_Stripes_3.jpg,Purple_Star_Grid_2.jpg,right,712.485000025481,false,high,NA,NA,NA,NA,NA,NA,NA,false
aLJQ5cqb,3o2y2uiudt7n7g4dfo9bupx2ocrfkv,3vp0c6efsk9o1v9zq9op4g8k6e36mb,aLJQ5cqb,2020-0188,2020-05-21,13:06:44,13:28:55,NA,incomplete,101,color,1,left,Red_Circle_Grid_2.jpg,Red_Plus_Dots_1.jpg,Blue_Circle_Chess_4.jpg,right,590.5450000427663,false,high,NA,NA,NA,NA,NA,NA,NA,false
aLJQ5cqb,3o2y2uiudt7n7g4dfo9bupx2ocrfkv,3vp0c6efsk9o1v9zq9op4g8k6e36mb,aLJQ5cqb,2020-0188,2020-05-21,13:06:44,13:28:55,NA,incomplete,102,color,1,right,Red_Plus_Grid_4.jpg,Blue_Plus_Stripes_2.jpg,Red_Circle_Chess_1.jpg,right,534.3000000575557,true,high,NA,NA,NA,NA,NA,NA,NA,false
aLJQ5cqb,3o2y2uiudt7n7g4dfo9bupx2ocrfkv,3vp0c6efsk9o1v9zq9op4g8k6e36mb,aLJQ5cqb,2020-0188,2020-05-21,13:06:44,13:28:55,NA,incomplete,103,color,0,right,Green_Triangle_Stripes_1.jpg,Purple_Triangle_Chess_2.jpg,Green_Star_Grid_4.jpg,right,491.12000002060086,true,high,NA,NA,NA,NA,NA,NA,NA,false
aLJQ5cqb,3o2y2uiudt7n7g4dfo9bupx2ocrfkv,3vp0c6efsk9o1v9zq9op4g8k6e36mb,aLJQ5cqb,2020-0188,2020-05-21,13:06:44,13:28:55,NA,incomplete,104,color,1,right,Purple_Star_Dots_3.jpg,Green_Star_Grid_2.jpg,Purple_Plus_Chess_1.jpg,right,598.3599999453872,true,high,NA,NA,NA,NA,NA,NA,NA,false
aLJQ5cqb,3o2y2uiudt7n7g4dfo9bupx2ocrfkv,3vp0c6efsk9o1v9zq9op4g8k6e36mb,aLJQ5cqb,2020-0188,2020-05-21,13:06:44,13:28:55,NA,incomplete,105,color,1,right,Red_Triangle_Chess_1.jpg,Purple_Triangle_Stripes_3.jpg,Red_Plus_Dots_4.jpg,right,813.7550000101328,true,high,NA,NA,NA,NA,NA,NA,NA,false
aLJQ5cqb,3o2y2uiudt7n7g4dfo9bupx2ocrfkv,3vp0c6efsk9o1v9zq9op4g8k6e36mb,aLJQ5cqb,2020-0188,2020-05-21,13:06:44,13:28:55,NA,incomplete,106,color,1,left,Purple_Circle_Grid_4.jpg,Purple_Plus_Dots_1.jpg,Red_Circle_Stripes_2.jpg,right,807.0000000298023,false,high,NA,NA,NA,NA,NA,NA,NA,false
aLJQ5cqb,3o2y2uiudt7n7g4dfo9bupx2ocrfkv,3vp0c6efsk9o1v9zq9op4g8k6e36mb,aLJQ5cqb,2020-0188,2020-05-21,13:06:44,13:28:55,NA,incomplete,107,color,1,left,Red_Plus_Dots_3.jpg,Red_Triangle_Chess_1.jpg,Blue_Plus_Grid_2.jpg,left,841.0850000800565,true,high,NA,NA,NA,NA,NA,NA,NA,false
aLJQ5cqb,3o2y2uiudt7n7g4dfo9bupx2ocrfkv,3vp0c6efsk9o1v9zq9op4g8k6e36mb,aLJQ5cqb,2020-0188,2020-05-21,13:06:44,13:28:55,NA,incomplete,108,color,1,left,Blue_Triangle_Grid_3.jpg,Blue_Star_Stripes_1.jpg,Red_Triangle_Dots_2.jpg,left,867.1900000190362,true,high,NA,NA,NA,NA,NA,NA,NA,false
aLJQ5cqb,3o2y2uiudt7n7g4dfo9bupx2ocrfkv,3vp0c6efsk9o1v9zq9op4g8k6e36mb,aLJQ5cqb,2020-0188,2020-05-21,13:06:44,13:28:55,NA,incomplete,109,color,1,left,Purple_Circle_Chess_3.jpg,Purple_Star_Grid_1.jpg,Green_Circle_Dots_4.jpg,left,456.9750000955537,true,high,NA,NA,NA,NA,NA,NA,NA,false
aLJQ5cqb,3o2y2uiudt7n7g4dfo9bupx2ocrfkv,3vp0c6efsk9o1v9zq9op4g8k6e36mb,aLJQ5cqb,2020-0188,2020-05-21,13:06:44,13:28:55,NA,incomplete,110,shape,0,left,Purple_Star_Grid_2.jpg,Blue_Star_Chess_3.jpg,Purple_Triangle_Stripes_4.jpg,right,533.2199999829754,false,high,NA,NA,NA,NA,NA,NA,NA,false
aLJQ5cqb,3o2y2uiudt7n7g4dfo9bupx2ocrfkv,3vp0c6efsk9o1v9zq9op4g8k6e36mb,aLJQ5cqb,2020-0188,2020-05-21,13:06:44,13:28:55,NA,incomplete,111,shape,1,right,Blue_Triangle_Stripes_1.jpg,Blue_Plus_Chess_2.jpg,Purple_Triangle_Grid_4.jpg,left,550.785000086762,false,high,NA,NA,NA,NA,NA,NA,NA,false
aLJQ5cqb,3o2y2uiudt7n7g4dfo9bupx2ocrfkv,3vp0c6efsk9o1v9zq9op4g8k6e36mb,aLJQ5cqb,2020-0188,2020-05-21,13:06:44,13:28:55,NA,incomplete,112,shape,1,left,Green_Star_Dots_1.jpg,Purple_Star_Grid_2.jpg,Green_Plus_Stripes_3.jpg,right,463.1499999668449,false,high,NA,NA,NA,NA,NA,NA,NA,false
aLJQ5cqb,3o2y2uiudt7n7g4dfo9bupx2ocrfkv,3vp0c6efsk9o1v9zq9op4g8k6e36mb,aLJQ5cqb,2020-0188,2020-05-21,13:06:44,13:28:55,NA,incomplete,113,shape,1,left,Red_Star_Grid_1.jpg,Purple_Star_Chess_2.jpg,Red_Triangle_Stripes_3.jpg,right,475.83999997004867,false,high,NA,NA,NA,NA,NA,NA,NA,false
aLJQ5cqb,3o2y2uiudt7n7g4dfo9bupx2ocrfkv,3vp0c6efsk9o1v9zq9op4g8k6e36mb,aLJQ5cqb,2020-0188,2020-05-21,13:06:44,13:28:55,NA,incomplete,114,shape,1,left,Green_Star_Grid_4.jpg,Purple_Star_Stripes_1.jpg,Green_Circle_Chess_2.jpg,right,931.7049999954179,false,high,NA,NA,NA,NA,NA,NA,NA,false
aLJQ5cqb,3o2y2uiudt7n7g4dfo9bupx2ocrfkv,3vp0c6efsk9o1v9zq9op4g8k6e36mb,aLJQ5cqb,2020-0188,2020-05-21,13:06:44,13:28:55,NA,incomplete,115,shape,1,left,Blue_Circle_Grid_1.jpg,Purple_Circle_Stripes_4.jpg,Blue_Star_Chess_2.jpg,left,694.0450000111014,true,high,NA,NA,NA,NA,NA,NA,NA,false
aLJQ5cqb,3o2y2uiudt7n7g4dfo9bupx2ocrfkv,3vp0c6efsk9o1v9zq9op4g8k6e36mb,aLJQ5cqb,2020-0188,2020-05-21,13:06:44,13:28:55,NA,incomplete,116,shape,1,right,Purple_Plus_Dots_3.jpg,Purple_Triangle_Grid_1.jpg,Green_Plus_Chess_2.jpg,right,624.3750000139698,true,high,NA,NA,NA,NA,NA,NA,NA,false
aLJQ5cqb,3o2y2uiudt7n7g4dfo9bupx2ocrfkv,3vp0c6efsk9o1v9zq9op4g8k6e36mb,aLJQ5cqb,2020-0188,2020-05-21,13:06:44,13:28:55,NA,incomplete,117,shape,1,left,Blue_Star_Dots_3.jpg,Purple_Star_Stripes_4.jpg,Blue_Plus_Chess_1.jpg,right,716.954999952577,false,high,NA,NA,NA,NA,NA,NA,NA,false
aLJQ5cqb,3o2y2uiudt7n7g4dfo9bupx2ocrfkv,3vp0c6efsk9o1v9zq9op4g8k6e36mb,aLJQ5cqb,2020-0188,2020-05-21,13:06:44,13:28:55,NA,incomplete,118,shape,1,right,Blue_Plus_Chess_2.jpg,Blue_Star_Grid_3.jpg,Purple_Plus_Stripes_1.jpg,right,900.5900000920519,true,high,NA,NA,NA,NA,NA,NA,NA,false
aLJQ5cqb,3o2y2uiudt7n7g4dfo9bupx2ocrfkv,3vp0c6efsk9o1v9zq9op4g8k6e36mb,aLJQ5cqb,2020-0188,2020-05-21,13:06:44,13:28:55,NA,incomplete,119,shape,0,left,Blue_Circle_Dots_1.jpg,Purple_Circle_Stripes_3.jpg,Blue_Star_Grid_4.jpg,left,609.1250000754371,true,high,NA,NA,NA,NA,NA,NA,NA,false
aLJQ5cqb,3o2y2uiudt7n7g4dfo9bupx2ocrfkv,3vp0c6efsk9o1v9zq9op4g8k6e36mb,aLJQ5cqb,2020-0188,2020-05-21,13:06:44,13:28:55,NA,incomplete,120,number,0,left,Green_Plus_Chess_1.jpg,Red_Circle_Grid_1.jpg,Purple_Triangle_Chess_3.jpg,NA,NA,NA,high,NA,NA,NA,NA,NA,NA,NA,false
aLJQ5cqb,3o2y2uiudt7n7g4dfo9bupx2ocrfkv,3vp0c6efsk9o1v9zq9op4g8k6e36mb,aLJQ5cqb,2020-0188,2020-05-21,13:06:44,13:28:55,NA,incomplete,121,number,1,right,Green_Star_Grid_2.jpg,Purple_Circle_Grid_1.jpg,Red_Plus_Stripes_2.jpg,right,1192.0000000391155,true,high,NA,NA,NA,NA,NA,NA,NA,false
aLJQ5cqb,3o2y2uiudt7n7g4dfo9bupx2ocrfkv,3vp0c6efsk9o1v9zq9op4g8k6e36mb,aLJQ5cqb,2020-0188,2020-05-21,13:06:44,13:28:55,NA,incomplete,122,number,1,right,Purple_Circle_Dots_3.jpg,Red_Star_Dots_2.jpg,Blue_Triangle_Chess_3.jpg,right,727.199999964796,true,high,NA,NA,NA,NA,NA,NA,NA,false
aLJQ5cqb,3o2y2uiudt7n7g4dfo9bupx2ocrfkv,3vp0c6efsk9o1v9zq9op4g8k6e36mb,aLJQ5cqb,2020-0188,2020-05-21,13:06:44,13:28:55,NA,incomplete,123,number,1,left,Purple_Star_Dots_2.jpg,Green_Circle_Stripes_2.jpg,Red_Plus_Dots_4.jpg,none,0,false,high,NA,NA,NA,NA,NA,NA,NA,false
aLJQ5cqb,3o2y2uiudt7n7g4dfo9bupx2ocrfkv,3vp0c6efsk9o1v9zq9op4g8k6e36mb,aLJQ5cqb,2020-0188,2020-05-21,13:06:44,13:28:55,NA,incomplete,124,number,1,left,Green_Plus_Chess_2.jpg,Blue_Circle_Grid_2.jpg,Red_Triangle_Chess_3.jpg,left,698.8999999593943,true,high,NA,NA,NA,NA,NA,NA,NA,false
aLJQ5cqb,3o2y2uiudt7n7g4dfo9bupx2ocrfkv,3vp0c6efsk9o1v9zq9op4g8k6e36mb,aLJQ5cqb,2020-0188,2020-05-21,13:06:44,13:28:55,NA,incomplete,125,number,0,right,Green_Triangle_Chess_3.jpg,Red_Star_Chess_4.jpg,Blue_Plus_Dots_3.jpg,right,783.3549999631941,true,high,NA,NA,NA,NA,NA,NA,NA,false
aLJQ5cqb,3o2y2uiudt7n7g4dfo9bupx2ocrfkv,3vp0c6efsk9o1v9zq9op4g8k6e36mb,aLJQ5cqb,2020-0188,2020-05-21,13:06:44,13:28:55,NA,incomplete,126,number,1,left,Purple_Circle_Grid_2.jpg,Red_Star_Stripes_2.jpg,Blue_Triangle_Grid_3.jpg,left,724.599999957718,true,high,NA,NA,NA,NA,NA,NA,NA,false
aLJQ5cqb,3o2y2uiudt7n7g4dfo9bupx2ocrfkv,3vp0c6efsk9o1v9zq9op4g8k6e36mb,aLJQ5cqb,2020-0188,2020-05-21,13:06:44,13:28:55,NA,incomplete,127,number,1,left,Red_Triangle_Chess_3.jpg,Purple_Plus_Grid_3.jpg,Green_Star_Chess_4.jpg,left,687.0099999941885,true,high,NA,NA,NA,NA,NA,NA,NA,false
aLJQ5cqb,3o2y2uiudt7n7g4dfo9bupx2ocrfkv,3vp0c6efsk9o1v9zq9op4g8k6e36mb,aLJQ5cqb,2020-0188,2020-05-21,13:06:44,13:28:55,NA,incomplete,128,number,1,left,Red_Plus_Chess_3.jpg,Purple_Circle_Stripes_3.jpg,Green_Triangle_Chess_4.jpg,left,786.019999999553,true,high,NA,NA,NA,NA,NA,NA,NA,false
aLJQ5cqb,3o2y2uiudt7n7g4dfo9bupx2ocrfkv,3vp0c6efsk9o1v9zq9op4g8k6e36mb,aLJQ5cqb,2020-0188,2020-05-21,13:06:44,13:28:55,NA,incomplete,129,number,1,right,Purple_Circle_Stripes_2.jpg,Blue_Triangle_Stripes_4.jpg,Green_Plus_Chess_2.jpg,left,909.9449999630451,false,high,NA,NA,NA,NA,NA,NA,NA,false
aLJQ5cqb,3o2y2uiudt7n7g4dfo9bupx2ocrfkv,3vp0c6efsk9o1v9zq9op4g8k6e36mb,aLJQ5cqb,2020-0188,2020-05-21,13:06:44,13:28:55,NA,incomplete,130,number,1,right,Purple_Triangle_Chess_3.jpg,Blue_Circle_Chess_2.jpg,Red_Plus_Stripes_3.jpg,right,613.5299999732524,true,high,NA,NA,NA,NA,NA,NA,NA,false
aLJQ5cqb,3o2y2uiudt7n7g4dfo9bupx2ocrfkv,3vp0c6efsk9o1v9zq9op4g8k6e36mb,aLJQ5cqb,2020-0188,2020-05-21,13:06:44,13:28:55,NA,incomplete,131,number,0,right,Green_Star_Chess_1.jpg,Purple_Circle_Chess_4.jpg,Blue_Plus_Stripes_1.jpg,right,663.6299999663606,true,high,NA,NA,NA,NA,NA,NA,NA,false
aLJQ5cqb,3o2y2uiudt7n7g4dfo9bupx2ocrfkv,3vp0c6efsk9o1v9zq9op4g8k6e36mb,aLJQ5cqb,2020-0188,2020-05-21,13:06:44,13:28:55,NA,incomplete,132,number,1,left,Purple_Star_Stripes_4.jpg,Blue_Circle_Dots_4.jpg,Red_Plus_Stripes_3.jpg,right,660.2150000398979,false,high,NA,NA,NA,NA,NA,NA,NA,false
aLJQ5cqb,3o2y2uiudt7n7g4dfo9bupx2ocrfkv,3vp0c6efsk9o1v9zq9op4g8k6e36mb,aLJQ5cqb,2020-0188,2020-05-21,13:06:44,13:28:55,NA,incomplete,133,number,1,right,Purple_Plus_Stripes_4.jpg,Blue_Star_Stripes_1.jpg,Green_Circle_Dots_4.jpg,right,617.6400000695139,true,high,NA,NA,NA,NA,NA,NA,NA,false
aLJQ5cqb,3o2y2uiudt7n7g4dfo9bupx2ocrfkv,3vp0c6efsk9o1v9zq9op4g8k6e36mb,aLJQ5cqb,2020-0188,2020-05-21,13:06:44,13:28:55,NA,incomplete,134,number,1,left,Blue_Star_Dots_3.jpg,Purple_Plus_Grid_3.jpg,Red_Triangle_Dots_4.jpg,left,709.8949999781325,true,high,NA,NA,NA,NA,NA,NA,NA,false
aLJQ5cqb,3o2y2uiudt7n7g4dfo9bupx2ocrfkv,3vp0c6efsk9o1v9zq9op4g8k6e36mb,aLJQ5cqb,2020-0188,2020-05-21,13:06:44,13:28:55,NA,incomplete,135,number,1,left,Red_Plus_Chess_2.jpg,Blue_Star_Dots_2.jpg,Green_Circle_Chess_1.jpg,left,829.2699999874458,true,high,NA,NA,NA,NA,NA,NA,NA,false
aLJQ5cqb,3o2y2uiudt7n7g4dfo9bupx2ocrfkv,3vp0c6efsk9o1v9zq9op4g8k6e36mb,aLJQ5cqb,2020-0188,2020-05-21,13:06:44,13:28:55,NA,incomplete,136,number,1,left,Purple_Circle_Stripes_4.jpg,Green_Triangle_Dots_4.jpg,Red_Star_Stripes_1.jpg,left,876.7450000159442,true,high,NA,NA,NA,NA,NA,NA,NA,false
aLJQ5cqb,3o2y2uiudt7n7g4dfo9bupx2ocrfkv,3vp0c6efsk9o1v9zq9op4g8k6e36mb,aLJQ5cqb,2020-0188,2020-05-21,13:06:44,13:28:55,NA,incomplete,137,number,0,left,Purple_Circle_Stripes_3.jpg,Red_Triangle_Grid_3.jpg,Blue_Star_Stripes_2.jpg,left,892.0299999881536,true,high,NA,NA,NA,NA,NA,NA,NA,false
aLJQ5cqb,3o2y2uiudt7n7g4dfo9bupx2ocrfkv,3vp0c6efsk9o1v9zq9op4g8k6e36mb,aLJQ5cqb,2020-0188,2020-05-21,13:06:44,13:28:55,NA,incomplete,138,number,1,right,Red_Circle_Dots_4.jpg,Green_Star_Dots_2.jpg,Purple_Triangle_Stripes_4.jpg,right,831.4249999821186,true,high,NA,NA,NA,NA,NA,NA,NA,false
aLJQ5cqb,3o2y2uiudt7n7g4dfo9bupx2ocrfkv,3vp0c6efsk9o1v9zq9op4g8k6e36mb,aLJQ5cqb,2020-0188,2020-05-21,13:06:44,13:28:55,NA,incomplete,139,number,1,right,Red_Circle_Stripes_1.jpg,Blue_Triangle_Stripes_3.jpg,Purple_Plus_Chess_1.jpg,left,1294.0500000258908,false,high,NA,NA,NA,NA,NA,NA,NA,false
aLJQ5cqb,3o2y2uiudt7n7g4dfo9bupx2ocrfkv,3vp0c6efsk9o1v9zq9op4g8k6e36mb,aLJQ5cqb,2020-0188,2020-05-21,13:06:44,13:28:55,NA,incomplete,140,filling,1,right,Purple_Star_Grid_2.jpg,Red_Triangle_Dots_2.jpg,Blue_Plus_Grid_3.jpg,left,850.6749999942258,false,high,NA,NA,NA,NA,NA,NA,NA,false
aLJQ5cqb,3o2y2uiudt7n7g4dfo9bupx2ocrfkv,3vp0c6efsk9o1v9zq9op4g8k6e36mb,aLJQ5cqb,2020-0188,2020-05-21,13:06:44,13:28:55,NA,incomplete,141,filling,1,left,Red_Plus_Dots_3.jpg,Purple_Star_Dots_1.jpg,Green_Circle_Stripes_3.jpg,right,740.7200000016019,false,high,NA,NA,NA,NA,NA,NA,NA,false
aLJQ5cqb,3o2y2uiudt7n7g4dfo9bupx2ocrfkv,3vp0c6efsk9o1v9zq9op4g8k6e36mb,aLJQ5cqb,2020-0188,2020-05-21,13:06:44,13:28:55,NA,incomplete,142,filling,0,right,Blue_Circle_Stripes_4.jpg,Red_Star_Chess_4.jpg,Green_Triangle_Stripes_1.jpg,right,1009.8299999954179,true,high,NA,NA,NA,NA,NA,NA,NA,false
aLJQ5cqb,3o2y2uiudt7n7g4dfo9bupx2ocrfkv,3vp0c6efsk9o1v9zq9op4g8k6e36mb,aLJQ5cqb,2020-0188,2020-05-21,13:06:44,13:28:55,NA,incomplete,143,filling,1,left,Green_Circle_Grid_3.jpg,Red_Plus_Grid_1.jpg,Purple_Star_Chess_3.jpg,left,1092.4849999137223,true,high,NA,NA,NA,NA,NA,NA,NA,false
aLJQ5cqb,3o2y2uiudt7n7g4dfo9bupx2ocrfkv,3vp0c6efsk9o1v9zq9op4g8k6e36mb,aLJQ5cqb,2020-0188,2020-05-21,13:06:44,13:28:55,NA,incomplete,144,filling,1,left,Blue_Plus_Chess_4.jpg,Purple_Star_Chess_1.jpg,Green_Circle_Stripes_4.jpg,left,1062.1700000483543,true,high,NA,NA,NA,NA,NA,NA,NA,false
aLJQ5cqb,3o2y2uiudt7n7g4dfo9bupx2ocrfkv,3vp0c6efsk9o1v9zq9op4g8k6e36mb,aLJQ5cqb,2020-0188,2020-05-21,13:06:44,13:28:55,NA,incomplete,145,filling,1,left,Purple_Triangle_Dots_1.jpg,Red_Plus_Dots_2.jpg,Blue_Star_Chess_1.jpg,left,1202.7600000146776,true,high,NA,NA,NA,NA,NA,NA,NA,false
aLJQ5cqb,3o2y2uiudt7n7g4dfo9bupx2ocrfkv,3vp0c6efsk9o1v9zq9op4g8k6e36mb,aLJQ5cqb,2020-0188,2020-05-21,13:06:44,13:28:55,NA,incomplete,146,filling,0,left,Red_Plus_Grid_3.jpg,Green_Star_Grid_1.jpg,Purple_Triangle_Dots_3.jpg,left,1301.175000029616,true,high,NA,NA,NA,NA,NA,NA,NA,false
aLJQ5cqb,3o2y2uiudt7n7g4dfo9bupx2ocrfkv,3vp0c6efsk9o1v9zq9op4g8k6e36mb,aLJQ5cqb,2020-0188,2020-05-21,13:06:44,13:28:55,NA,incomplete,147,filling,1,right,Purple_Triangle_Stripes_4.jpg,Green_Plus_Dots_4.jpg,Red_Circle_Stripes_1.jpg,right,905.8349999831989,true,high,NA,NA,NA,NA,NA,NA,NA,false
aLJQ5cqb,3o2y2uiudt7n7g4dfo9bupx2ocrfkv,3vp0c6efsk9o1v9zq9op4g8k6e36mb,aLJQ5cqb,2020-0188,2020-05-21,13:06:44,13:28:55,NA,incomplete,148,filling,1,left,Purple_Triangle_Stripes_1.jpg,Green_Plus_Stripes_4.jpg,Blue_Star_Grid_1.jpg,left,942.3799999058247,true,high,NA,NA,NA,NA,NA,NA,NA,false
aLJQ5cqb,3o2y2uiudt7n7g4dfo9bupx2ocrfkv,3vp0c6efsk9o1v9zq9op4g8k6e36mb,aLJQ5cqb,2020-0188,2020-05-21,13:06:44,13:28:55,NA,incomplete,149,filling,1,left,Purple_Plus_Dots_1.jpg,Red_Triangle_Dots_3.jpg,Blue_Star_Stripes_1.jpg,left,1123.2500000623986,true,high,NA,NA,NA,NA,NA,NA,NA,false
aLJQ5cqb,3o2y2uiudt7n7g4dfo9bupx2ocrfkv,3vp0c6efsk9o1v9zq9op4g8k6e36mb,aLJQ5cqb,2020-0188,2020-05-21,13:06:44,13:28:55,NA,incomplete,150,filling,1,left,Green_Circle_Stripes_3.jpg,Red_Triangle_Stripes_1.jpg,Purple_Plus_Dots_3.jpg,left,1068.9049999928102,true,high,NA,NA,NA,NA,NA,NA,NA,false
aLJQ5cqb,3o2y2uiudt7n7g4dfo9bupx2ocrfkv,3vp0c6efsk9o1v9zq9op4g8k6e36mb,aLJQ5cqb,2020-0188,2020-05-21,13:06:44,13:28:55,NA,incomplete,151,filling,0,left,Green_Triangle_Stripes_3.jpg,Purple_Star_Stripes_1.jpg,Blue_Plus_Grid_3.jpg,left,1181.0399999376386,true,high,NA,NA,NA,NA,NA,NA,NA,false
aLJQ5cqb,3o2y2uiudt7n7g4dfo9bupx2ocrfkv,3vp0c6efsk9o1v9zq9op4g8k6e36mb,aLJQ5cqb,2020-0188,2020-05-21,13:06:44,13:28:55,NA,incomplete,152,filling,1,right,Red_Plus_Grid_2.jpg,Blue_Circle_Dots_2.jpg,Purple_Triangle_Grid_4.jpg,right,898.0450000381097,true,high,NA,NA,NA,NA,NA,NA,NA,false
aLJQ5cqb,3o2y2uiudt7n7g4dfo9bupx2ocrfkv,3vp0c6efsk9o1v9zq9op4g8k6e36mb,aLJQ5cqb,2020-0188,2020-05-21,13:06:44,13:28:55,NA,incomplete,153,filling,0,left,Red_Star_Grid_1.jpg,Green_Circle_Grid_3.jpg,Blue_Triangle_Chess_1.jpg,left,1053.9399998961017,true,high,NA,NA,NA,NA,NA,NA,NA,false
aLJQ5cqb,3o2y2uiudt7n7g4dfo9bupx2ocrfkv,3vp0c6efsk9o1v9zq9op4g8k6e36mb,aLJQ5cqb,2020-0188,2020-05-21,13:06:44,13:28:55,NA,incomplete,154,filling,1,right,Red_Plus_Dots_2.jpg,Purple_Circle_Grid_2.jpg,Green_Triangle_Dots_4.jpg,right,1080.3299999097362,true,high,NA,NA,NA,NA,NA,NA,NA,false
aLJQ5cqb,3o2y2uiudt7n7g4dfo9bupx2ocrfkv,3vp0c6efsk9o1v9zq9op4g8k6e36mb,aLJQ5cqb,2020-0188,2020-05-21,13:06:44,13:28:55,NA,incomplete,155,filling,0,right,Green_Star_Grid_2.jpg,Purple_Triangle_Dots_2.jpg,Red_Circle_Grid_1.jpg,right,1041.0899999551475,true,high,NA,NA,NA,NA,NA,NA,NA,false
aLJQ5cqb,3o2y2uiudt7n7g4dfo9bupx2ocrfkv,3vp0c6efsk9o1v9zq9op4g8k6e36mb,aLJQ5cqb,2020-0188,2020-05-21,13:06:44,13:28:55,NA,incomplete,156,filling,1,left,Purple_Circle_Dots_4.jpg,Blue_Triangle_Dots_1.jpg,Green_Star_Chess_4.jpg,left,1169.5299999555573,true,high,NA,NA,NA,NA,NA,NA,NA,false
aLJQ5cqb,3o2y2uiudt7n7g4dfo9bupx2ocrfkv,3vp0c6efsk9o1v9zq9op4g8k6e36mb,aLJQ5cqb,2020-0188,2020-05-21,13:06:44,13:28:55,NA,incomplete,157,filling,1,right,Red_Circle_Grid_4.jpg,Green_Triangle_Dots_4.jpg,Purple_Plus_Grid_1.jpg,right,1851.9249999662861,true,high,NA,NA,NA,NA,NA,NA,NA,false
aLJQ5cqb,3o2y2uiudt7n7g4dfo9bupx2ocrfkv,3vp0c6efsk9o1v9zq9op4g8k6e36mb,aLJQ5cqb,2020-0188,2020-05-21,13:06:44,13:28:55,NA,incomplete,158,filling,1,right,Blue_Plus_Chess_4.jpg,Green_Triangle_Stripes_4.jpg,Purple_Star_Chess_1.jpg,right,1214.2250000033528,true,high,NA,NA,NA,NA,NA,NA,NA,false
aLJQ5cqb,3o2y2uiudt7n7g4dfo9bupx2ocrfkv,3vp0c6efsk9o1v9zq9op4g8k6e36mb,aLJQ5cqb,2020-0188,2020-05-21,13:06:44,13:28:55,NA,incomplete,159,filling,0,right,Green_Star_Chess_3.jpg,Red_Plus_Grid_3.jpg,Purple_Triangle_Chess_1.jpg,right,1002.4800000246614,true,high,NA,NA,NA,NA,NA,NA,NA,false
aLJQ5cqb,3o2y2uiudt7n7g4dfo9bupx2ocrfkv,3vp0c6efsk9o1v9zq9op4g8k6e36mb,aLJQ5cqb,2020-0188,2020-05-21,13:06:44,13:28:55,NA,incomplete,160,number,1,left,Blue_Star_Dots_3.jpg,Purple_Plus_Chess_3.jpg,Green_Circle_Dots_4.jpg,left,700.4899999592453,true,high,NA,NA,NA,NA,NA,NA,NA,false
aLJQ5cqb,3o2y2uiudt7n7g4dfo9bupx2ocrfkv,3vp0c6efsk9o1v9zq9op4g8k6e36mb,aLJQ5cqb,2020-0188,2020-05-21,13:06:44,13:28:55,NA,incomplete,161,number,0,left,Red_Circle_Dots_2.jpg,Blue_Plus_Grid_2.jpg,Green_Triangle_Dots_4.jpg,left,769.5400000084192,true,high,NA,NA,NA,NA,NA,NA,NA,false
aLJQ5cqb,3o2y2uiudt7n7g4dfo9bupx2ocrfkv,3vp0c6efsk9o1v9zq9op4g8k6e36mb,aLJQ5cqb,2020-0188,2020-05-21,13:06:44,13:28:55,NA,incomplete,162,number,1,right,Red_Plus_Grid_1.jpg,Purple_Star_Grid_3.jpg,Blue_Triangle_Stripes_1.jpg,right,555.5600000079721,true,high,NA,NA,NA,NA,NA,NA,NA,false
aLJQ5cqb,3o2y2uiudt7n7g4dfo9bupx2ocrfkv,3vp0c6efsk9o1v9zq9op4g8k6e36mb,aLJQ5cqb,2020-0188,2020-05-21,13:06:44,13:28:55,NA,incomplete,163,number,1,left,Blue_Plus_Chess_3.jpg,Purple_Circle_Grid_3.jpg,Red_Star_Chess_4.jpg,left,707.0450000464916,true,high,NA,NA,NA,NA,NA,NA,NA,false
aLJQ5cqb,3o2y2uiudt7n7g4dfo9bupx2ocrfkv,3vp0c6efsk9o1v9zq9op4g8k6e36mb,aLJQ5cqb,2020-0188,2020-05-21,13:06:44,13:28:55,NA,incomplete,164,number,1,right,Blue_Triangle_Stripes_2.jpg,Purple_Plus_Stripes_3.jpg,Red_Star_Chess_2.jpg,right,713.410000083968,true,high,NA,NA,NA,NA,NA,NA,NA,false
aLJQ5cqb,3o2y2uiudt7n7g4dfo9bupx2ocrfkv,3vp0c6efsk9o1v9zq9op4g8k6e36mb,aLJQ5cqb,2020-0188,2020-05-21,13:06:44,13:28:55,NA,incomplete,165,number,0,left,Red_Plus_Grid_1.jpg,Purple_Circle_Dots_1.jpg,Blue_Star_Grid_2.jpg,left,528.5900000017136,true,high,NA,NA,NA,NA,NA,NA,NA,false
aLJQ5cqb,3o2y2uiudt7n7g4dfo9bupx2ocrfkv,3vp0c6efsk9o1v9zq9op4g8k6e36mb,aLJQ5cqb,2020-0188,2020-05-21,13:06:44,13:28:55,NA,incomplete,166,number,1,right,Purple_Circle_Chess_1.jpg,Green_Star_Chess_2.jpg,Blue_Triangle_Stripes_1.jpg,right,594.4000000599772,true,high,NA,NA,NA,NA,NA,NA,NA,false
aLJQ5cqb,3o2y2uiudt7n7g4dfo9bupx2ocrfkv,3vp0c6efsk9o1v9zq9op4g8k6e36mb,aLJQ5cqb,2020-0188,2020-05-21,13:06:44,13:28:55,NA,incomplete,167,number,1,left,Red_Star_Dots_3.jpg,Blue_Circle_Stripes_3.jpg,Green_Plus_Dots_1.jpg,left,593.3449999429286,true,high,NA,NA,NA,NA,NA,NA,NA,false
aLJQ5cqb,3o2y2uiudt7n7g4dfo9bupx2ocrfkv,3vp0c6efsk9o1v9zq9op4g8k6e36mb,aLJQ5cqb,2020-0188,2020-05-21,13:06:44,13:28:55,NA,incomplete,168,number,1,left,Red_Plus_Stripes_1.jpg,Purple_Triangle_Grid_1.jpg,Green_Circle_Stripes_2.jpg,left,568.6149999964982,true,high,NA,NA,NA,NA,NA,NA,NA,false
aLJQ5cqb,3o2y2uiudt7n7g4dfo9bupx2ocrfkv,3vp0c6efsk9o1v9zq9op4g8k6e36mb,aLJQ5cqb,2020-0188,2020-05-21,13:06:44,13:28:55,NA,incomplete,169,number,1,right,Purple_Star_Stripes_1.jpg,Green_Circle_Stripes_2.jpg,Red_Plus_Chess_1.jpg,right,787.5350000103936,true,high,NA,NA,NA,NA,NA,NA,NA,false
aLJQ5cqb,3o2y2uiudt7n7g4dfo9bupx2ocrfkv,3vp0c6efsk9o1v9zq9op4g8k6e36mb,aLJQ5cqb,2020-0188,2020-05-21,13:06:44,13:28:55,NA,incomplete,170,number,1,right,Red_Plus_Chess_4.jpg,Purple_Star_Chess_3.jpg,Blue_Triangle_Stripes_4.jpg,right,778.6100000375882,true,high,NA,NA,NA,NA,NA,NA,NA,false
aLJQ5cqb,3o2y2uiudt7n7g4dfo9bupx2ocrfkv,3vp0c6efsk9o1v9zq9op4g8k6e36mb,aLJQ5cqb,2020-0188,2020-05-21,13:06:44,13:28:55,NA,incomplete,171,number,1,left,Purple_Triangle_Stripes_1.jpg,Blue_Circle_Dots_1.jpg,Green_Plus_Stripes_3.jpg,left,502.9899999499321,true,high,NA,NA,NA,NA,NA,NA,NA,false
aLJQ5cqb,3o2y2uiudt7n7g4dfo9bupx2ocrfkv,3vp0c6efsk9o1v9zq9op4g8k6e36mb,aLJQ5cqb,2020-0188,2020-05-21,13:06:44,13:28:55,NA,incomplete,172,number,1,right,Red_Star_Grid_3.jpg,Purple_Plus_Grid_4.jpg,Blue_Triangle_Chess_3.jpg,right,876.6799999866635,true,high,NA,NA,NA,NA,NA,NA,NA,false
aLJQ5cqb,3o2y2uiudt7n7g4dfo9bupx2ocrfkv,3vp0c6efsk9o1v9zq9op4g8k6e36mb,aLJQ5cqb,2020-0188,2020-05-21,13:06:44,13:28:55,NA,incomplete,173,number,1,right,Purple_Star_Stripes_4.jpg,Green_Circle_Stripes_1.jpg,Red_Triangle_Grid_4.jpg,right,627.3750000400469,true,high,NA,NA,NA,NA,NA,NA,NA,false
aLJQ5cqb,3o2y2uiudt7n7g4dfo9bupx2ocrfkv,3vp0c6efsk9o1v9zq9op4g8k6e36mb,aLJQ5cqb,2020-0188,2020-05-21,13:06:44,13:28:55,NA,incomplete,174,number,1,left,Red_Triangle_Chess_4.jpg,Green_Circle_Stripes_4.jpg,Purple_Star_Chess_2.jpg,left,620.3349999850616,true,high,NA,NA,NA,NA,NA,NA,NA,false
aLJQ5cqb,3o2y2uiudt7n7g4dfo9bupx2ocrfkv,3vp0c6efsk9o1v9zq9op4g8k6e36mb,aLJQ5cqb,2020-0188,2020-05-21,13:06:44,13:28:55,NA,incomplete,175,number,1,left,Purple_Plus_Stripes_1.jpg,Blue_Triangle_Chess_1.jpg,Red_Star_Stripes_4.jpg,left,528.3950000302866,true,high,NA,NA,NA,NA,NA,NA,NA,false
aLJQ5cqb,3o2y2uiudt7n7g4dfo9bupx2ocrfkv,3vp0c6efsk9o1v9zq9op4g8k6e36mb,aLJQ5cqb,2020-0188,2020-05-21,13:06:44,13:28:55,NA,incomplete,176,number,1,right,Purple_Triangle_Dots_3.jpg,Green_Star_Dots_2.jpg,Blue_Plus_Chess_3.jpg,right,625.8399999933317,true,high,NA,NA,NA,NA,NA,NA,NA,false
aLJQ5cqb,3o2y2uiudt7n7g4dfo9bupx2ocrfkv,3vp0c6efsk9o1v9zq9op4g8k6e36mb,aLJQ5cqb,2020-0188,2020-05-21,13:06:44,13:28:55,NA,incomplete,177,number,1,right,Green_Circle_Stripes_1.jpg,Blue_Triangle_Stripes_4.jpg,Purple_Plus_Chess_1.jpg,right,655.0899998983368,true,high,NA,NA,NA,NA,NA,NA,NA,false
aLJQ5cqb,3o2y2uiudt7n7g4dfo9bupx2ocrfkv,3vp0c6efsk9o1v9zq9op4g8k6e36mb,aLJQ5cqb,2020-0188,2020-05-21,13:06:44,13:28:55,NA,incomplete,178,number,0,right,Green_Triangle_Stripes_2.jpg,Purple_Plus_Stripes_1.jpg,Blue_Star_Chess_2.jpg,right,723.9050000207499,true,high,NA,NA,NA,NA,NA,NA,NA,false
aLJQ5cqb,3o2y2uiudt7n7g4dfo9bupx2ocrfkv,3vp0c6efsk9o1v9zq9op4g8k6e36mb,aLJQ5cqb,2020-0188,2020-05-21,13:06:44,13:28:55,NA,incomplete,179,number,1,left,Green_Triangle_Dots_2.jpg,Purple_Plus_Chess_2.jpg,Blue_Star_Dots_4.jpg,left,582.3349999263883,true,high,NA,NA,NA,NA,NA,NA,NA,false
aLJQ5cqb,3o2y2uiudt7n7g4dfo9bupx2ocrfkv,3vp0c6efsk9o1v9zq9op4g8k6e36mb,aLJQ5cqb,2020-0188,2020-05-21,13:06:44,13:28:55,NA,incomplete,180,filling,1,right,Green_Plus_Grid_3.jpg,Red_Circle_Stripes_3.jpg,Purple_Triangle_Grid_4.jpg,left,754.854999948293,false,high,NA,NA,NA,NA,NA,NA,NA,false
aLJQ5cqb,3o2y2uiudt7n7g4dfo9bupx2ocrfkv,3vp0c6efsk9o1v9zq9op4g8k6e36mb,aLJQ5cqb,2020-0188,2020-05-21,13:06:44,13:28:55,NA,incomplete,181,filling,1,left,Blue_Star_Stripes_2.jpg,Green_Triangle_Stripes_1.jpg,Purple_Plus_Grid_2.jpg,right,602.3650000570342,false,high,NA,NA,NA,NA,NA,NA,NA,false
aLJQ5cqb,3o2y2uiudt7n7g4dfo9bupx2ocrfkv,3vp0c6efsk9o1v9zq9op4g8k6e36mb,aLJQ5cqb,2020-0188,2020-05-21,13:06:44,13:28:55,NA,incomplete,182,filling,1,right,Blue_Plus_Dots_4.jpg,Red_Circle_Stripes_4.jpg,Green_Triangle_Dots_3.jpg,right,1012.6300000119954,true,high,NA,NA,NA,NA,NA,NA,NA,false
aLJQ5cqb,3o2y2uiudt7n7g4dfo9bupx2ocrfkv,3vp0c6efsk9o1v9zq9op4g8k6e36mb,aLJQ5cqb,2020-0188,2020-05-21,13:06:44,13:28:55,NA,incomplete,183,filling,0,left,Green_Plus_Stripes_4.jpg,Red_Triangle_Stripes_3.jpg,Blue_Star_Grid_4.jpg,left,807.0000000298023,true,high,NA,NA,NA,NA,NA,NA,NA,false
aLJQ5cqb,3o2y2uiudt7n7g4dfo9bupx2ocrfkv,3vp0c6efsk9o1v9zq9op4g8k6e36mb,aLJQ5cqb,2020-0188,2020-05-21,13:06:44,13:28:55,NA,incomplete,184,filling,1,right,Green_Plus_Stripes_1.jpg,Red_Circle_Dots_1.jpg,Blue_Triangle_Stripes_2.jpg,right,777.5499999988824,true,high,NA,NA,NA,NA,NA,NA,NA,false
aLJQ5cqb,3o2y2uiudt7n7g4dfo9bupx2ocrfkv,3vp0c6efsk9o1v9zq9op4g8k6e36mb,aLJQ5cqb,2020-0188,2020-05-21,13:06:44,13:28:55,NA,incomplete,185,filling,1,right,Purple_Star_Dots_2.jpg,Green_Circle_Chess_2.jpg,Blue_Plus_Dots_3.jpg,right,982.1600000141189,true,high,NA,NA,NA,NA,NA,NA,NA,false
aLJQ5cqb,3o2y2uiudt7n7g4dfo9bupx2ocrfkv,3vp0c6efsk9o1v9zq9op4g8k6e36mb,aLJQ5cqb,2020-0188,2020-05-21,13:06:44,13:28:55,NA,incomplete,186,filling,1,left,Purple_Triangle_Stripes_4.jpg,Blue_Plus_Stripes_1.jpg,Green_Star_Chess_4.jpg,left,882.8599998960271,true,high,NA,NA,NA,NA,NA,NA,NA,false
aLJQ5cqb,3o2y2uiudt7n7g4dfo9bupx2ocrfkv,3vp0c6efsk9o1v9zq9op4g8k6e36mb,aLJQ5cqb,2020-0188,2020-05-21,13:06:44,13:28:55,NA,incomplete,187,filling,1,left,Red_Triangle_Stripes_1.jpg,Purple_Plus_Stripes_2.jpg,Blue_Star_Grid_1.jpg,left,780.9150000102818,true,high,NA,NA,NA,NA,NA,NA,NA,false
aLJQ5cqb,3o2y2uiudt7n7g4dfo9bupx2ocrfkv,3vp0c6efsk9o1v9zq9op4g8k6e36mb,aLJQ5cqb,2020-0188,2020-05-21,13:06:44,13:28:55,NA,incomplete,188,filling,1,left,Green_Star_Chess_2.jpg,Red_Triangle_Chess_3.jpg,Blue_Plus_Grid_2.jpg,left,865.8249999862164,true,high,NA,NA,NA,NA,NA,NA,NA,false
aLJQ5cqb,3o2y2uiudt7n7g4dfo9bupx2ocrfkv,3vp0c6efsk9o1v9zq9op4g8k6e36mb,aLJQ5cqb,2020-0188,2020-05-21,13:06:44,13:28:55,NA,incomplete,189,filling,1,left,Red_Circle_Chess_3.jpg,Blue_Plus_Chess_4.jpg,Green_Star_Dots_3.jpg,left,814.6149999229237,true,high,NA,NA,NA,NA,NA,NA,NA,false
aLJQ5cqb,3o2y2uiudt7n7g4dfo9bupx2ocrfkv,3vp0c6efsk9o1v9zq9op4g8k6e36mb,aLJQ5cqb,2020-0188,2020-05-21,13:06:44,13:28:55,NA,incomplete,190,filling,1,right,Purple_Triangle_Grid_2.jpg,Green_Star_Chess_2.jpg,Red_Circle_Grid_4.jpg,right,795.6750000594184,true,high,NA,NA,NA,NA,NA,NA,NA,false
aLJQ5cqb,3o2y2uiudt7n7g4dfo9bupx2ocrfkv,3vp0c6efsk9o1v9zq9op4g8k6e36mb,aLJQ5cqb,2020-0188,2020-05-21,13:06:44,13:28:55,NA,incomplete,191,filling,1,left,Purple_Plus_Stripes_1.jpg,Green_Circle_Stripes_4.jpg,Red_Triangle_Dots_1.jpg,left,738.9649999095127,true,high,NA,NA,NA,NA,NA,NA,NA,false
aLJQ5cqb,3o2y2uiudt7n7g4dfo9bupx2ocrfkv,3vp0c6efsk9o1v9zq9op4g8k6e36mb,aLJQ5cqb,2020-0188,2020-05-21,13:06:44,13:28:55,NA,incomplete,192,filling,1,right,Purple_Star_Grid_1.jpg,Blue_Plus_Stripes_1.jpg,Red_Triangle_Grid_3.jpg,right,793.5500000603497,true,high,NA,NA,NA,NA,NA,NA,NA,false
aLJQ5cqb,3o2y2uiudt7n7g4dfo9bupx2ocrfkv,3vp0c6efsk9o1v9zq9op4g8k6e36mb,aLJQ5cqb,2020-0188,2020-05-21,13:06:44,13:28:55,NA,incomplete,193,filling,1,left,Red_Triangle_Dots_4.jpg,Blue_Circle_Dots_3.jpg,Purple_Star_Chess_4.jpg,left,967.9949999554083,true,high,NA,NA,NA,NA,NA,NA,NA,false
aLJQ5cqb,3o2y2uiudt7n7g4dfo9bupx2ocrfkv,3vp0c6efsk9o1v9zq9op4g8k6e36mb,aLJQ5cqb,2020-0188,2020-05-21,13:06:44,13:28:55,NA,incomplete,194,filling,1,right,Blue_Star_Chess_3.jpg,Purple_Triangle_Stripes_3.jpg,Red_Circle_Chess_1.jpg,right,946.4799999259412,true,high,NA,NA,NA,NA,NA,NA,NA,false
aLJQ5cqb,3o2y2uiudt7n7g4dfo9bupx2ocrfkv,3vp0c6efsk9o1v9zq9op4g8k6e36mb,aLJQ5cqb,2020-0188,2020-05-21,13:06:44,13:28:55,NA,incomplete,195,filling,0,right,Green_Circle_Chess_3.jpg,Purple_Star_Grid_3.jpg,Blue_Plus_Chess_2.jpg,right,1181.9949999917299,true,high,NA,NA,NA,NA,NA,NA,NA,false
aLJQ5cqb,3o2y2uiudt7n7g4dfo9bupx2ocrfkv,3vp0c6efsk9o1v9zq9op4g8k6e36mb,aLJQ5cqb,2020-0188,2020-05-21,13:06:44,13:28:55,NA,incomplete,196,filling,1,left,Green_Plus_Chess_2.jpg,Purple_Triangle_Chess_4.jpg,Red_Circle_Grid_2.jpg,left,747.3500000778586,true,high,NA,NA,NA,NA,NA,NA,NA,false
aLJQ5cqb,3o2y2uiudt7n7g4dfo9bupx2ocrfkv,3vp0c6efsk9o1v9zq9op4g8k6e36mb,aLJQ5cqb,2020-0188,2020-05-21,13:06:44,13:28:55,NA,incomplete,197,filling,1,right,Green_Circle_Chess_4.jpg,Red_Triangle_Dots_4.jpg,Purple_Plus_Chess_2.jpg,right,695.5449999077246,true,high,NA,NA,NA,NA,NA,NA,NA,false
aLJQ5cqb,3o2y2uiudt7n7g4dfo9bupx2ocrfkv,3vp0c6efsk9o1v9zq9op4g8k6e36mb,aLJQ5cqb,2020-0188,2020-05-21,13:06:44,13:28:55,NA,incomplete,198,filling,1,left,Purple_Circle_Stripes_3.jpg,Green_Plus_Stripes_2.jpg,Blue_Triangle_Chess_3.jpg,left,932.4999999953434,true,high,NA,NA,NA,NA,NA,NA,NA,false
aLJQ5cqb,3o2y2uiudt7n7g4dfo9bupx2ocrfkv,3vp0c6efsk9o1v9zq9op4g8k6e36mb,aLJQ5cqb,2020-0188,2020-05-21,13:06:44,13:28:55,NA,incomplete,199,filling,0,right,Red_Plus_Chess_1.jpg,Purple_Circle_Stripes_1.jpg,Green_Triangle_Chess_3.jpg,right,854.8799999989569,true,high,NA,NA,NA,NA,NA,NA,NA,false
aLJQ5cqb,3o2y2uiudt7n7g4dfo9bupx2ocrfkv,3vp0c6efsk9o1v9zq9op4g8k6e36mb,aLJQ5cqb,2020-0188,2020-05-21,13:06:44,13:28:55,NA,incomplete,200,number,1,right,Red_Plus_Grid_2.jpg,Blue_Triangle_Grid_3.jpg,Purple_Star_Dots_2.jpg,left,715.1599999051541,false,high,NA,NA,NA,NA,NA,NA,NA,false
aLJQ5cqb,3o2y2uiudt7n7g4dfo9bupx2ocrfkv,3vp0c6efsk9o1v9zq9op4g8k6e36mb,aLJQ5cqb,2020-0188,2020-05-21,13:06:44,13:28:55,NA,incomplete,201,number,1,right,Green_Plus_Chess_2.jpg,Blue_Star_Chess_3.jpg,Red_Circle_Stripes_2.jpg,right,762.8449999028817,true,high,NA,NA,NA,NA,NA,NA,NA,false
aLJQ5cqb,3o2y2uiudt7n7g4dfo9bupx2ocrfkv,3vp0c6efsk9o1v9zq9op4g8k6e36mb,aLJQ5cqb,2020-0188,2020-05-21,13:06:44,13:28:55,NA,incomplete,202,number,1,right,Blue_Triangle_Stripes_1.jpg,Red_Plus_Stripes_3.jpg,Purple_Circle_Chess_1.jpg,right,613.6150000384077,true,high,NA,NA,NA,NA,NA,NA,NA,false
aLJQ5cqb,3o2y2uiudt7n7g4dfo9bupx2ocrfkv,3vp0c6efsk9o1v9zq9op4g8k6e36mb,aLJQ5cqb,2020-0188,2020-05-21,13:06:44,13:28:55,NA,incomplete,203,number,1,right,Blue_Star_Dots_2.jpg,Green_Circle_Dots_1.jpg,Purple_Triangle_Stripes_2.jpg,right,687.4449999304488,true,high,NA,NA,NA,NA,NA,NA,NA,false
aLJQ5cqb,3o2y2uiudt7n7g4dfo9bupx2ocrfkv,3vp0c6efsk9o1v9zq9op4g8k6e36mb,aLJQ5cqb,2020-0188,2020-05-21,13:06:44,13:28:55,NA,incomplete,204,number,1,right,Blue_Triangle_Dots_4.jpg,Red_Star_Dots_1.jpg,Purple_Plus_Chess_4.jpg,right,585.8000000007451,true,high,NA,NA,NA,NA,NA,NA,NA,false
aLJQ5cqb,3o2y2uiudt7n7g4dfo9bupx2ocrfkv,3vp0c6efsk9o1v9zq9op4g8k6e36mb,aLJQ5cqb,2020-0188,2020-05-21,13:06:44,13:28:55,NA,incomplete,205,number,0,left,Blue_Star_Chess_1.jpg,Purple_Triangle_Dots_1.jpg,Green_Plus_Chess_3.jpg,left,662.4050000682473,true,high,NA,NA,NA,NA,NA,NA,NA,false
aLJQ5cqb,3o2y2uiudt7n7g4dfo9bupx2ocrfkv,3vp0c6efsk9o1v9zq9op4g8k6e36mb,aLJQ5cqb,2020-0188,2020-05-21,13:06:44,13:28:55,NA,incomplete,206,number,1,right,Purple_Circle_Chess_2.jpg,Green_Plus_Chess_1.jpg,Red_Star_Dots_2.jpg,right,667.2600000165403,true,high,NA,NA,NA,NA,NA,NA,NA,false
aLJQ5cqb,3o2y2uiudt7n7g4dfo9bupx2ocrfkv,3vp0c6efsk9o1v9zq9op4g8k6e36mb,aLJQ5cqb,2020-0188,2020-05-21,13:06:44,13:28:55,NA,incomplete,207,number,1,left,Red_Circle_Dots_2.jpg,Blue_Plus_Grid_2.jpg,Purple_Triangle_Dots_4.jpg,left,664.1100000124425,true,high,NA,NA,NA,NA,NA,NA,NA,false
aLJQ5cqb,3o2y2uiudt7n7g4dfo9bupx2ocrfkv,3vp0c6efsk9o1v9zq9op4g8k6e36mb,aLJQ5cqb,2020-0188,2020-05-21,13:06:44,13:28:55,NA,incomplete,208,number,0,left,Blue_Plus_Stripes_4.jpg,Purple_Star_Grid_4.jpg,Green_Triangle_Stripes_1.jpg,left,708.8650000514463,true,high,NA,NA,NA,NA,NA,NA,NA,false
aLJQ5cqb,3o2y2uiudt7n7g4dfo9bupx2ocrfkv,3vp0c6efsk9o1v9zq9op4g8k6e36mb,aLJQ5cqb,2020-0188,2020-05-21,13:06:44,13:28:55,NA,incomplete,209,number,1,right,Blue_Circle_Chess_1.jpg,Red_Star_Chess_4.jpg,Green_Plus_Stripes_1.jpg,right,653.385000070557,true,high,NA,NA,NA,NA,NA,NA,NA,false
aLJQ5cqb,3o2y2uiudt7n7g4dfo9bupx2ocrfkv,3vp0c6efsk9o1v9zq9op4g8k6e36mb,aLJQ5cqb,2020-0188,2020-05-21,13:06:44,13:28:55,NA,incomplete,210,number,1,left,Blue_Circle_Dots_2.jpg,Red_Triangle_Stripes_2.jpg,Green_Star_Dots_4.jpg,left,838.2549999514595,true,high,NA,NA,NA,NA,NA,NA,NA,false
aLJQ5cqb,3o2y2uiudt7n7g4dfo9bupx2ocrfkv,3vp0c6efsk9o1v9zq9op4g8k6e36mb,aLJQ5cqb,2020-0188,2020-05-21,13:06:44,13:28:55,NA,incomplete,211,number,1,right,Blue_Star_Stripes_4.jpg,Purple_Circle_Stripes_3.jpg,Red_Plus_Grid_4.jpg,right,821.654999977909,true,high,NA,NA,NA,NA,NA,NA,NA,false
aLJQ5cqb,3o2y2uiudt7n7g4dfo9bupx2ocrfkv,3vp0c6efsk9o1v9zq9op4g8k6e36mb,aLJQ5cqb,2020-0188,2020-05-21,13:06:44,13:28:55,NA,incomplete,212,number,1,right,Red_Circle_Dots_4.jpg,Green_Plus_Dots_1.jpg,Blue_Star_Chess_4.jpg,right,627.5750000495464,true,high,NA,NA,NA,NA,NA,NA,NA,false
aLJQ5cqb,3o2y2uiudt7n7g4dfo9bupx2ocrfkv,3vp0c6efsk9o1v9zq9op4g8k6e36mb,aLJQ5cqb,2020-0188,2020-05-21,13:06:44,13:28:55,NA,incomplete,213,number,0,left,Red_Circle_Stripes_3.jpg,Blue_Triangle_Dots_3.jpg,Purple_Plus_Stripes_1.jpg,left,575.3249999834225,true,high,NA,NA,NA,NA,NA,NA,NA,false
aLJQ5cqb,3o2y2uiudt7n7g4dfo9bupx2ocrfkv,3vp0c6efsk9o1v9zq9op4g8k6e36mb,aLJQ5cqb,2020-0188,2020-05-21,13:06:44,13:28:55,NA,incomplete,214,number,1,right,Red_Triangle_Stripes_4.jpg,Blue_Star_Stripes_3.jpg,Purple_Plus_Dots_4.jpg,right,517.7050000056624,true,high,NA,NA,NA,NA,NA,NA,NA,false
aLJQ5cqb,3o2y2uiudt7n7g4dfo9bupx2ocrfkv,3vp0c6efsk9o1v9zq9op4g8k6e36mb,aLJQ5cqb,2020-0188,2020-05-21,13:06:44,13:28:55,NA,incomplete,215,number,1,right,Red_Plus_Chess_2.jpg,Blue_Circle_Chess_3.jpg,Purple_Star_Stripes_2.jpg,left,524.169999989681,false,high,NA,NA,NA,NA,NA,NA,NA,false
aLJQ5cqb,3o2y2uiudt7n7g4dfo9bupx2ocrfkv,3vp0c6efsk9o1v9zq9op4g8k6e36mb,aLJQ5cqb,2020-0188,2020-05-21,13:06:44,13:28:55,NA,incomplete,216,number,1,left,Red_Star_Chess_3.jpg,Blue_Triangle_Stripes_3.jpg,Purple_Plus_Chess_4.jpg,left,685.7399999862537,true,high,NA,NA,NA,NA,NA,NA,NA,false
aLJQ5cqb,3o2y2uiudt7n7g4dfo9bupx2ocrfkv,3vp0c6efsk9o1v9zq9op4g8k6e36mb,aLJQ5cqb,2020-0188,2020-05-21,13:06:44,13:28:55,NA,incomplete,217,number,1,right,Green_Plus_Stripes_2.jpg,Red_Triangle_Stripes_3.jpg,Blue_Circle_Chess_2.jpg,right,552.2450000280514,true,high,NA,NA,NA,NA,NA,NA,NA,false
aLJQ5cqb,3o2y2uiudt7n7g4dfo9bupx2ocrfkv,3vp0c6efsk9o1v9zq9op4g8k6e36mb,aLJQ5cqb,2020-0188,2020-05-21,13:06:44,13:28:55,NA,incomplete,218,number,1,left,Green_Star_Stripes_2.jpg,Red_Triangle_Chess_2.jpg,Purple_Circle_Stripes_3.jpg,left,656.139999977313,true,high,NA,NA,NA,NA,NA,NA,NA,false
aLJQ5cqb,3o2y2uiudt7n7g4dfo9bupx2ocrfkv,3vp0c6efsk9o1v9zq9op4g8k6e36mb,aLJQ5cqb,2020-0188,2020-05-21,13:06:44,13:28:55,NA,incomplete,219,number,1,left,Purple_Circle_Chess_2.jpg,Green_Plus_Dots_2.jpg,Blue_Triangle_Chess_3.jpg,left,669.6000000229105,true,high,NA,NA,NA,NA,NA,NA,NA,false
aLJQ5cqb,3o2y2uiudt7n7g4dfo9bupx2ocrfkv,3vp0c6efsk9o1v9zq9op4g8k6e36mb,aLJQ5cqb,2020-0188,2020-05-21,13:06:44,13:28:55,NA,incomplete,220,filling,0,left,Green_Star_Stripes_2.jpg,Red_Circle_Stripes_3.jpg,Purple_Triangle_Dots_2.jpg,right,604.300000006333,false,high,NA,NA,NA,NA,NA,NA,NA,false
aLJQ5cqb,3o2y2uiudt7n7g4dfo9bupx2ocrfkv,3vp0c6efsk9o1v9zq9op4g8k6e36mb,aLJQ5cqb,2020-0188,2020-05-21,13:06:44,13:28:55,NA,incomplete,221,filling,1,left,Red_Plus_Chess_1.jpg,Green_Star_Chess_4.jpg,Blue_Triangle_Grid_1.jpg,right,766.3650000467896,false,high,NA,NA,NA,NA,NA,NA,NA,false
aLJQ5cqb,3o2y2uiudt7n7g4dfo9bupx2ocrfkv,3vp0c6efsk9o1v9zq9op4g8k6e36mb,aLJQ5cqb,2020-0188,2020-05-21,13:06:44,13:28:55,NA,incomplete,222,filling,1,right,Red_Plus_Dots_1.jpg,Blue_Triangle_Chess_1.jpg,Purple_Circle_Dots_4.jpg,left,465.63999995123595,false,high,NA,NA,NA,NA,NA,NA,NA,false
aLJQ5cqb,3o2y2uiudt7n7g4dfo9bupx2ocrfkv,3vp0c6efsk9o1v9zq9op4g8k6e36mb,aLJQ5cqb,2020-0188,2020-05-21,13:06:44,13:28:55,NA,incomplete,223,filling,0,right,Green_Star_Stripes_4.jpg,Purple_Plus_Dots_4.jpg,Red_Triangle_Stripes_1.jpg,left,645.2650000574067,false,high,NA,NA,NA,NA,NA,NA,NA,false
aLJQ5cqb,3o2y2uiudt7n7g4dfo9bupx2ocrfkv,3vp0c6efsk9o1v9zq9op4g8k6e36mb,aLJQ5cqb,2020-0188,2020-05-21,13:06:44,13:28:55,NA,incomplete,224,filling,1,left,Blue_Circle_Stripes_2.jpg,Green_Star_Stripes_3.jpg,Purple_Triangle_Grid_2.jpg,right,560.605000006035,false,high,NA,NA,NA,NA,NA,NA,NA,false
aLJQ5cqb,3o2y2uiudt7n7g4dfo9bupx2ocrfkv,3vp0c6efsk9o1v9zq9op4g8k6e36mb,aLJQ5cqb,2020-0188,2020-05-21,13:06:44,13:28:55,NA,incomplete,225,filling,1,left,Green_Triangle_Chess_3.jpg,Purple_Star_Chess_4.jpg,Blue_Plus_Stripes_3.jpg,left,761.9399999966845,true,high,NA,NA,NA,NA,NA,NA,NA,false
aLJQ5cqb,3o2y2uiudt7n7g4dfo9bupx2ocrfkv,3vp0c6efsk9o1v9zq9op4g8k6e36mb,aLJQ5cqb,2020-0188,2020-05-21,13:06:44,13:28:55,NA,incomplete,226,filling,0,left,Green_Star_Grid_1.jpg,Red_Circle_Grid_4.jpg,Purple_Triangle_Chess_1.jpg,left,964.8450000677258,true,high,NA,NA,NA,NA,NA,NA,NA,false
aLJQ5cqb,3o2y2uiudt7n7g4dfo9bupx2ocrfkv,3vp0c6efsk9o1v9zq9op4g8k6e36mb,aLJQ5cqb,2020-0188,2020-05-21,13:06:44,13:28:55,NA,incomplete,227,filling,1,left,Blue_Star_Chess_4.jpg,Green_Plus_Chess_1.jpg,Purple_Circle_Grid_4.jpg,left,814.1100000357255,true,high,NA,NA,NA,NA,NA,NA,NA,false
aLJQ5cqb,3o2y2uiudt7n7g4dfo9bupx2ocrfkv,3vp0c6efsk9o1v9zq9op4g8k6e36mb,aLJQ5cqb,2020-0188,2020-05-21,13:06:44,13:28:55,NA,incomplete,228,filling,1,right,Purple_Triangle_Dots_1.jpg,Red_Plus_Grid_1.jpg,Green_Circle_Dots_3.jpg,right,931.5750000532717,true,high,NA,NA,NA,NA,NA,NA,NA,false
aLJQ5cqb,3o2y2uiudt7n7g4dfo9bupx2ocrfkv,3vp0c6efsk9o1v9zq9op4g8k6e36mb,aLJQ5cqb,2020-0188,2020-05-21,13:06:44,13:28:55,NA,incomplete,229,filling,1,right,Blue_Triangle_Grid_4.jpg,Purple_Star_Dots_4.jpg,Red_Plus_Grid_3.jpg,right,933.7850000010803,true,high,NA,NA,NA,NA,NA,NA,NA,false
aLJQ5cqb,3o2y2uiudt7n7g4dfo9bupx2ocrfkv,3vp0c6efsk9o1v9zq9op4g8k6e36mb,aLJQ5cqb,2020-0188,2020-05-21,13:06:44,13:28:55,NA,incomplete,230,filling,0,right,Green_Star_Stripes_4.jpg,Purple_Triangle_Dots_4.jpg,Blue_Circle_Stripes_2.jpg,right,639.2850000411272,true,high,NA,NA,NA,NA,NA,NA,NA,false
aLJQ5cqb,3o2y2uiudt7n7g4dfo9bupx2ocrfkv,3vp0c6efsk9o1v9zq9op4g8k6e36mb,aLJQ5cqb,2020-0188,2020-05-21,13:06:44,13:28:55,NA,incomplete,231,filling,1,left,Purple_Plus_Dots_2.jpg,Red_Triangle_Dots_4.jpg,Green_Star_Chess_2.jpg,left,767.2099999617785,true,high,NA,NA,NA,NA,NA,NA,NA,false
aLJQ5cqb,3o2y2uiudt7n7g4dfo9bupx2ocrfkv,3vp0c6efsk9o1v9zq9op4g8k6e36mb,aLJQ5cqb,2020-0188,2020-05-21,13:06:44,13:28:55,NA,incomplete,232,filling,1,left,Blue_Circle_Dots_2.jpg,Purple_Plus_Dots_4.jpg,Red_Star_Chess_2.jpg,left,777.280000038445,true,high,NA,NA,NA,NA,NA,NA,NA,false
aLJQ5cqb,3o2y2uiudt7n7g4dfo9bupx2ocrfkv,3vp0c6efsk9o1v9zq9op4g8k6e36mb,aLJQ5cqb,2020-0188,2020-05-21,13:06:44,13:28:55,NA,incomplete,233,filling,1,right,Purple_Star_Chess_1.jpg,Green_Triangle_Stripes_1.jpg,Blue_Circle_Chess_2.jpg,right,790.0699999881908,true,high,NA,NA,NA,NA,NA,NA,NA,false
aLJQ5cqb,3o2y2uiudt7n7g4dfo9bupx2ocrfkv,3vp0c6efsk9o1v9zq9op4g8k6e36mb,aLJQ5cqb,2020-0188,2020-05-21,13:06:44,13:28:55,NA,incomplete,234,filling,1,right,Purple_Star_Dots_4.jpg,Red_Circle_Grid_4.jpg,Blue_Plus_Dots_3.jpg,right,950.4000000888482,true,high,NA,NA,NA,NA,NA,NA,NA,false
aLJQ5cqb,3o2y2uiudt7n7g4dfo9bupx2ocrfkv,3vp0c6efsk9o1v9zq9op4g8k6e36mb,aLJQ5cqb,2020-0188,2020-05-21,13:06:44,13:28:55,NA,incomplete,235,filling,1,left,Blue_Plus_Stripes_4.jpg,Purple_Circle_Stripes_2.jpg,Red_Triangle_Chess_4.jpg,left,748.7249999539927,true,high,NA,NA,NA,NA,NA,NA,NA,false
aLJQ5cqb,3o2y2uiudt7n7g4dfo9bupx2ocrfkv,3vp0c6efsk9o1v9zq9op4g8k6e36mb,aLJQ5cqb,2020-0188,2020-05-21,13:06:44,13:28:55,NA,incomplete,236,filling,1,left,Purple_Triangle_Chess_4.jpg,Green_Circle_Chess_3.jpg,Blue_Plus_Stripes_4.jpg,left,740.0650000199676,true,high,NA,NA,NA,NA,NA,NA,NA,false
aLJQ5cqb,3o2y2uiudt7n7g4dfo9bupx2ocrfkv,3vp0c6efsk9o1v9zq9op4g8k6e36mb,aLJQ5cqb,2020-0188,2020-05-21,13:06:44,13:28:55,NA,incomplete,237,filling,0,right,Red_Triangle_Stripes_3.jpg,Blue_Circle_Chess_3.jpg,Green_Star_Stripes_4.jpg,right,745.0700000626966,true,high,NA,NA,NA,NA,NA,NA,NA,false
aLJQ5cqb,3o2y2uiudt7n7g4dfo9bupx2ocrfkv,3vp0c6efsk9o1v9zq9op4g8k6e36mb,aLJQ5cqb,2020-0188,2020-05-21,13:06:44,13:28:55,NA,incomplete,238,filling,1,left,Green_Plus_Stripes_2.jpg,Blue_Circle_Stripes_4.jpg,Purple_Triangle_Chess_2.jpg,left,693.849999923259,true,high,NA,NA,NA,NA,NA,NA,NA,false
aLJQ5cqb,3o2y2uiudt7n7g4dfo9bupx2ocrfkv,3vp0c6efsk9o1v9zq9op4g8k6e36mb,aLJQ5cqb,2020-0188,2020-05-21,13:06:44,13:28:55,NA,incomplete,239,filling,1,left,Green_Plus_Chess_3.jpg,Red_Triangle_Chess_4.jpg,Blue_Circle_Dots_3.jpg,left,697.1299999859184,true,high,NA,NA,NA,NA,NA,NA,NA,false
aLJQ5cqb,3o2y2uiudt7n7g4dfo9bupx2ocrfkv,3vp0c6efsk9o1v9zq9op4g8k6e36mb,aLJQ5cqb,2020-0188,2020-05-21,13:06:44,13:28:55,NA,NA,instruction example,color,NA,NA,Red_Plus_Stripes_1.jpg,Red_Triangle_Grid_2.jpg,Green_Plus_Dots_4.jpg,NA,NA,NA,NA,NA,NA,NA,NA,NA,NA,NA,undefined
aLJQ5cqb,3o2y2uiudt7n7g4dfo9bupx2ocrfkv,3vp0c6efsk9o1v9zq9op4g8k6e36mb,aLJQ5cqb,2020-0188,2020-05-21,13:06:44,13:28:55,NA,NA,instruction example,color,NA,NA,Blue_Triangle_Grid_1.jpg,Green_Triangle_Chess_2.jpg,Blue_Star_Dots_3.jpg,NA,NA,NA,NA,NA,NA,NA,NA,NA,NA,NA,undefined
aLJQ5cqb,3o2y2uiudt7n7g4dfo9bupx2ocrfkv,3vp0c6efsk9o1v9zq9op4g8k6e36mb,aLJQ5cqb,2020-0188,2020-05-21,13:06:44,13:28:55,NA,NA,instruction example,color,NA,NA,Green_Circle_Chess_1.jpg,Purple_Plus_Stripes_1.jpg,Red_Star_Chess_2.jpg,NA,NA,NA,NA,NA,NA,NA,NA,NA,NA,NA,undefined
aLJQ5cqb,3o2y2uiudt7n7g4dfo9bupx2ocrfkv,3vp0c6efsk9o1v9zq9op4g8k6e36mb,aLJQ5cqb,2020-0188,2020-05-21,13:06:44,13:28:55,NA,NA,instruction example,color,NA,NA,Blue_Star_Grid_3.jpg,Green_Circle_Grid_4.jpg,Red_Triangle_Chess_3.jpg,NA,NA,NA,NA,NA,NA,NA,NA,NA,NA,NA,undefined
aLJQ5cqb,3o2y2uiudt7n7g4dfo9bupx2ocrfkv,3vp0c6efsk9o1v9zq9op4g8k6e36mb,aLJQ5cqb,2020-0188,2020-05-21,13:06:44,13:28:55,1303315.3549999697,1331686.2399999518,NA,NA,NA,NA,NA,NA,NA,NA,NA,NA,NA,25,White/Caucasian,Female,Caucasian,no,yes,no,undefined
