workerId,hitId,assignmentId,subject,studyid,exp_date,exp_start,exp_end,time_start,time_end,trial,type,reward_validity,answer,image_top,image_left,image_right,response,response_time,response_acc,volatility,practice
a1GqjMit,3eawoid6nwaaqnjzba4xtrlfy89v0t,3w8cv64qj6cpr0amxjbowlrqftch9o,a1GqjMit,2020-0188,2020-05-21,11:10:24,11:25:13,NA,incomplete,0,color,0,left,Blue_Plus_Grid_2.jpg,Blue_Star_Dots_3.jpg,Red_Triangle_Stripes_2.jpg,left,1495.725000044331,true,NA,true
a1GqjMit,3eawoid6nwaaqnjzba4xtrlfy89v0t,3w8cv64qj6cpr0amxjbowlrqftch9o,a1GqjMit,2020-0188,2020-05-21,11:10:24,11:25:13,NA,incomplete,1,color,1,right,Red_Plus_Dots_1.jpg,Blue_Circle_Chess_1.jpg,Red_Triangle_Stripes_2.jpg,right,841.6999999899417,true,NA,true
a1GqjMit,3eawoid6nwaaqnjzba4xtrlfy89v0t,3w8cv64qj6cpr0amxjbowlrqftch9o,a1GqjMit,2020-0188,2020-05-21,11:10:24,11:25:13,NA,incomplete,2,color,0,right,Red_Plus_Dots_3.jpg,Blue_Circle_Chess_3.jpg,Red_Triangle_Grid_2.jpg,right,915.4349999735132,true,NA,true
a1GqjMit,3eawoid6nwaaqnjzba4xtrlfy89v0t,3w8cv64qj6cpr0amxjbowlrqftch9o,a1GqjMit,2020-0188,2020-05-21,11:10:24,11:25:13,NA,incomplete,3,color,1,right,Red_Star_Stripes_2.jpg,Blue_Plus_Chess_2.jpg,Red_Circle_Dots_4.jpg,right,883.2999999867752,true,NA,true
a1GqjMit,3eawoid6nwaaqnjzba4xtrlfy89v0t,3w8cv64qj6cpr0amxjbowlrqftch9o,a1GqjMit,2020-0188,2020-05-21,11:10:24,11:25:13,NA,incomplete,4,color,1,right,Purple_Star_Dots_1.jpg,Green_Triangle_Grid_1.jpg,Purple_Circle_Chess_4.jpg,right,846.3549999869429,true,NA,true
a1GqjMit,3eawoid6nwaaqnjzba4xtrlfy89v0t,3w8cv64qj6cpr0amxjbowlrqftch9o,a1GqjMit,2020-0188,2020-05-21,11:10:24,11:25:13,NA,incomplete,5,color,1,right,Purple_Star_Dots_3.jpg,Red_Plus_Stripes_3.jpg,Purple_Triangle_Chess_2.jpg,right,719.5400000200607,true,NA,true
a1GqjMit,3eawoid6nwaaqnjzba4xtrlfy89v0t,3w8cv64qj6cpr0amxjbowlrqftch9o,a1GqjMit,2020-0188,2020-05-21,11:10:24,11:25:13,NA,incomplete,6,color,1,left,Purple_Triangle_Stripes_3.jpg,Purple_Circle_Grid_2.jpg,Red_Plus_Chess_3.jpg,left,734.9500000127591,true,NA,true
a1GqjMit,3eawoid6nwaaqnjzba4xtrlfy89v0t,3w8cv64qj6cpr0amxjbowlrqftch9o,a1GqjMit,2020-0188,2020-05-21,11:10:24,11:25:13,NA,incomplete,7,color,1,left,Red_Star_Chess_2.jpg,Red_Triangle_Stripes_4.jpg,Blue_Circle_Grid_2.jpg,left,519.6499999728985,true,NA,true
a1GqjMit,3eawoid6nwaaqnjzba4xtrlfy89v0t,3w8cv64qj6cpr0amxjbowlrqftch9o,a1GqjMit,2020-0188,2020-05-21,11:10:24,11:25:13,NA,incomplete,8,color,0,left,Purple_Triangle_Dots_3.jpg,Purple_Star_Stripes_1.jpg,Blue_Circle_Chess_3.jpg,left,540.999999968335,true,NA,true
a1GqjMit,3eawoid6nwaaqnjzba4xtrlfy89v0t,3w8cv64qj6cpr0amxjbowlrqftch9o,a1GqjMit,2020-0188,2020-05-21,11:10:24,11:25:13,NA,incomplete,9,color,0,left,Red_Triangle_Grid_1.jpg,Red_Plus_Stripes_2.jpg,Blue_Star_Chess_1.jpg,left,530.1849999814294,true,NA,true
a1GqjMit,3eawoid6nwaaqnjzba4xtrlfy89v0t,3w8cv64qj6cpr0amxjbowlrqftch9o,a1GqjMit,2020-0188,2020-05-21,11:10:24,11:25:13,NA,incomplete,10,color,1,right,Red_Star_Stripes_3.jpg,Blue_Plus_Grid_3.jpg,Red_Triangle_Chess_1.jpg,right,820.6800000043586,true,NA,true
a1GqjMit,3eawoid6nwaaqnjzba4xtrlfy89v0t,3w8cv64qj6cpr0amxjbowlrqftch9o,a1GqjMit,2020-0188,2020-05-21,11:10:24,11:25:13,NA,incomplete,11,color,1,right,Blue_Plus_Stripes_1.jpg,Green_Star_Dots_1.jpg,Blue_Triangle_Grid_2.jpg,right,687.9550000303425,true,NA,true
a1GqjMit,3eawoid6nwaaqnjzba4xtrlfy89v0t,3w8cv64qj6cpr0amxjbowlrqftch9o,a1GqjMit,2020-0188,2020-05-21,11:10:24,11:25:13,NA,incomplete,12,color,1,right,Green_Triangle_Dots_2.jpg,Blue_Star_Chess_2.jpg,Green_Circle_Grid_4.jpg,right,784.9399999831803,true,NA,true
a1GqjMit,3eawoid6nwaaqnjzba4xtrlfy89v0t,3w8cv64qj6cpr0amxjbowlrqftch9o,a1GqjMit,2020-0188,2020-05-21,11:10:24,11:25:13,NA,incomplete,13,color,1,left,Purple_Triangle_Chess_3.jpg,Purple_Star_Grid_2.jpg,Green_Plus_Stripes_3.jpg,left,605.5350000387989,true,NA,true
a1GqjMit,3eawoid6nwaaqnjzba4xtrlfy89v0t,3w8cv64qj6cpr0amxjbowlrqftch9o,a1GqjMit,2020-0188,2020-05-21,11:10:24,11:25:13,NA,incomplete,14,color,1,left,Red_Triangle_Chess_3.jpg,Red_Plus_Stripes_4.jpg,Blue_Star_Grid_3.jpg,left,412.6450000330806,true,NA,true
a1GqjMit,3eawoid6nwaaqnjzba4xtrlfy89v0t,3w8cv64qj6cpr0amxjbowlrqftch9o,a1GqjMit,2020-0188,2020-05-21,11:10:24,11:25:13,NA,incomplete,15,color,0,left,Red_Triangle_Stripes_4.jpg,Red_Plus_Chess_1.jpg,Blue_Star_Grid_4.jpg,left,614.4450000138022,true,NA,true
a1GqjMit,3eawoid6nwaaqnjzba4xtrlfy89v0t,3w8cv64qj6cpr0amxjbowlrqftch9o,a1GqjMit,2020-0188,2020-05-21,11:10:24,11:25:13,NA,incomplete,16,color,1,right,Purple_Star_Chess_3.jpg,Blue_Circle_Dots_3.jpg,Purple_Triangle_Grid_4.jpg,right,666.5350000257604,true,NA,true
a1GqjMit,3eawoid6nwaaqnjzba4xtrlfy89v0t,3w8cv64qj6cpr0amxjbowlrqftch9o,a1GqjMit,2020-0188,2020-05-21,11:10:24,11:25:13,NA,incomplete,17,color,1,right,Blue_Triangle_Stripes_4.jpg,Purple_Star_Chess_4.jpg,Blue_Circle_Dots_2.jpg,right,492.4800000153482,true,NA,true
a1GqjMit,3eawoid6nwaaqnjzba4xtrlfy89v0t,3w8cv64qj6cpr0amxjbowlrqftch9o,a1GqjMit,2020-0188,2020-05-21,11:10:24,11:25:13,NA,incomplete,18,color,1,right,Red_Triangle_Stripes_4.jpg,Blue_Circle_Dots_4.jpg,Red_Plus_Chess_1.jpg,right,508.9099999750033,true,NA,true
a1GqjMit,3eawoid6nwaaqnjzba4xtrlfy89v0t,3w8cv64qj6cpr0amxjbowlrqftch9o,a1GqjMit,2020-0188,2020-05-21,11:10:24,11:25:13,NA,incomplete,19,color,1,left,Blue_Triangle_Dots_1.jpg,Blue_Plus_Chess_4.jpg,Green_Star_Stripes_1.jpg,left,503.6100000143051,true,NA,true
a1GqjMit,3eawoid6nwaaqnjzba4xtrlfy89v0t,3w8cv64qj6cpr0amxjbowlrqftch9o,a1GqjMit,2020-0188,2020-05-21,11:10:24,11:25:13,NA,incomplete,20,number,1,left,Blue_Plus_Stripes_4.jpg,Green_Star_Dots_4.jpg,Blue_Circle_Chess_1.jpg,right,477.83499996876344,false,NA,true
a1GqjMit,3eawoid6nwaaqnjzba4xtrlfy89v0t,3w8cv64qj6cpr0amxjbowlrqftch9o,a1GqjMit,2020-0188,2020-05-21,11:10:24,11:25:13,NA,incomplete,21,number,1,right,Purple_Plus_Dots_3.jpg,Purple_Triangle_Grid_1.jpg,Red_Star_Chess_3.jpg,left,503.06999997701496,false,NA,true
a1GqjMit,3eawoid6nwaaqnjzba4xtrlfy89v0t,3w8cv64qj6cpr0amxjbowlrqftch9o,a1GqjMit,2020-0188,2020-05-21,11:10:24,11:25:13,NA,incomplete,22,number,1,right,Red_Star_Stripes_4.jpg,Red_Triangle_Chess_2.jpg,Purple_Circle_Dots_4.jpg,left,496.0950000095181,false,NA,true
a1GqjMit,3eawoid6nwaaqnjzba4xtrlfy89v0t,3w8cv64qj6cpr0amxjbowlrqftch9o,a1GqjMit,2020-0188,2020-05-21,11:10:24,11:25:13,NA,incomplete,23,number,1,right,Blue_Star_Chess_3.jpg,Blue_Circle_Grid_2.jpg,Green_Plus_Dots_3.jpg,right,1345.4499999643303,true,NA,true
a1GqjMit,3eawoid6nwaaqnjzba4xtrlfy89v0t,3w8cv64qj6cpr0amxjbowlrqftch9o,a1GqjMit,2020-0188,2020-05-21,11:10:24,11:25:13,NA,incomplete,24,number,1,right,Red_Circle_Chess_3.jpg,Red_Star_Stripes_2.jpg,Purple_Plus_Dots_3.jpg,right,1369.8100000037812,true,NA,true
a1GqjMit,3eawoid6nwaaqnjzba4xtrlfy89v0t,3w8cv64qj6cpr0amxjbowlrqftch9o,a1GqjMit,2020-0188,2020-05-21,11:10:24,11:25:13,NA,incomplete,25,number,1,right,Green_Plus_Grid_4.jpg,Green_Star_Chess_2.jpg,Purple_Circle_Dots_4.jpg,right,1121.1200000252575,true,NA,true
a1GqjMit,3eawoid6nwaaqnjzba4xtrlfy89v0t,3w8cv64qj6cpr0amxjbowlrqftch9o,a1GqjMit,2020-0188,2020-05-21,11:10:24,11:25:13,NA,incomplete,26,number,0,right,Purple_Plus_Chess_1.jpg,Purple_Circle_Stripes_4.jpg,Blue_Triangle_Dots_1.jpg,left,852.6199999614619,false,NA,true
a1GqjMit,3eawoid6nwaaqnjzba4xtrlfy89v0t,3w8cv64qj6cpr0amxjbowlrqftch9o,a1GqjMit,2020-0188,2020-05-21,11:10:24,11:25:13,NA,incomplete,27,number,1,left,Red_Triangle_Chess_4.jpg,Green_Plus_Dots_4.jpg,Red_Circle_Grid_3.jpg,left,1093.83499994874,true,NA,true
a1GqjMit,3eawoid6nwaaqnjzba4xtrlfy89v0t,3w8cv64qj6cpr0amxjbowlrqftch9o,a1GqjMit,2020-0188,2020-05-21,11:10:24,11:25:13,NA,incomplete,28,number,1,left,Blue_Star_Stripes_2.jpg,Purple_Circle_Dots_2.jpg,Blue_Plus_Chess_1.jpg,left,1234.1949999681674,true,NA,true
a1GqjMit,3eawoid6nwaaqnjzba4xtrlfy89v0t,3w8cv64qj6cpr0amxjbowlrqftch9o,a1GqjMit,2020-0188,2020-05-21,11:10:24,11:25:13,NA,incomplete,29,number,1,left,Red_Circle_Dots_2.jpg,Blue_Triangle_Grid_2.jpg,Red_Star_Chess_1.jpg,left,867.4549999996088,true,NA,true
a1GqjMit,3eawoid6nwaaqnjzba4xtrlfy89v0t,3w8cv64qj6cpr0amxjbowlrqftch9o,a1GqjMit,2020-0188,2020-05-21,11:10:24,11:25:13,NA,incomplete,30,number,1,right,Blue_Star_Stripes_2.jpg,Blue_Triangle_Chess_3.jpg,Green_Circle_Grid_2.jpg,right,1228.789999964647,true,NA,true
a1GqjMit,3eawoid6nwaaqnjzba4xtrlfy89v0t,3w8cv64qj6cpr0amxjbowlrqftch9o,a1GqjMit,2020-0188,2020-05-21,11:10:24,11:25:13,NA,incomplete,31,number,0,right,Blue_Circle_Grid_3.jpg,Blue_Star_Chess_1.jpg,Red_Plus_Stripes_3.jpg,right,959.5650000264868,true,NA,true
a1GqjMit,3eawoid6nwaaqnjzba4xtrlfy89v0t,3w8cv64qj6cpr0amxjbowlrqftch9o,a1GqjMit,2020-0188,2020-05-21,11:10:24,11:25:13,NA,incomplete,32,number,1,left,Blue_Plus_Grid_2.jpg,Purple_Triangle_Chess_2.jpg,Blue_Circle_Stripes_3.jpg,left,1244.2850000225008,true,NA,true
a1GqjMit,3eawoid6nwaaqnjzba4xtrlfy89v0t,3w8cv64qj6cpr0amxjbowlrqftch9o,a1GqjMit,2020-0188,2020-05-21,11:10:24,11:25:13,NA,incomplete,33,number,1,left,Purple_Triangle_Grid_3.jpg,Green_Plus_Chess_3.jpg,Purple_Star_Stripes_1.jpg,left,1010.0400000228547,true,NA,true
a1GqjMit,3eawoid6nwaaqnjzba4xtrlfy89v0t,3w8cv64qj6cpr0amxjbowlrqftch9o,a1GqjMit,2020-0188,2020-05-21,11:10:24,11:25:13,NA,incomplete,34,number,1,right,Green_Plus_Dots_1.jpg,Green_Triangle_Chess_4.jpg,Red_Star_Grid_1.jpg,right,1053.4249999909662,true,NA,true
a1GqjMit,3eawoid6nwaaqnjzba4xtrlfy89v0t,3w8cv64qj6cpr0amxjbowlrqftch9o,a1GqjMit,2020-0188,2020-05-21,11:10:24,11:25:13,NA,incomplete,35,number,1,left,Green_Circle_Stripes_1.jpg,Blue_Star_Dots_1.jpg,Green_Plus_Chess_4.jpg,left,735.5950000346638,true,NA,true
a1GqjMit,3eawoid6nwaaqnjzba4xtrlfy89v0t,3w8cv64qj6cpr0amxjbowlrqftch9o,a1GqjMit,2020-0188,2020-05-21,11:10:24,11:25:13,NA,incomplete,36,number,1,right,Blue_Star_Chess_4.jpg,Blue_Circle_Dots_1.jpg,Purple_Triangle_Grid_4.jpg,right,863.054999965243,true,NA,true
a1GqjMit,3eawoid6nwaaqnjzba4xtrlfy89v0t,3w8cv64qj6cpr0amxjbowlrqftch9o,a1GqjMit,2020-0188,2020-05-21,11:10:24,11:25:13,NA,incomplete,37,number,0,left,Red_Star_Grid_4.jpg,Green_Triangle_Stripes_4.jpg,Red_Plus_Chess_1.jpg,left,902.9699999955483,true,NA,true
a1GqjMit,3eawoid6nwaaqnjzba4xtrlfy89v0t,3w8cv64qj6cpr0amxjbowlrqftch9o,a1GqjMit,2020-0188,2020-05-21,11:10:24,11:25:13,NA,incomplete,38,number,1,right,Purple_Triangle_Grid_4.jpg,Purple_Star_Stripes_2.jpg,Red_Circle_Chess_4.jpg,right,865.3650000342168,true,NA,true
a1GqjMit,3eawoid6nwaaqnjzba4xtrlfy89v0t,3w8cv64qj6cpr0amxjbowlrqftch9o,a1GqjMit,2020-0188,2020-05-21,11:10:24,11:25:13,NA,incomplete,39,number,1,right,Red_Circle_Dots_2.jpg,Red_Triangle_Stripes_4.jpg,Purple_Plus_Chess_2.jpg,right,1107.9749999917112,true,NA,true
a1GqjMit,3eawoid6nwaaqnjzba4xtrlfy89v0t,3w8cv64qj6cpr0amxjbowlrqftch9o,a1GqjMit,2020-0188,2020-05-21,11:10:24,11:25:13,NA,incomplete,0,color,1,left,Red_Star_Grid_1.jpg,Red_Circle_Stripes_3.jpg,Purple_Plus_Chess_1.jpg,left,1095.9799999836832,true,low,false
a1GqjMit,3eawoid6nwaaqnjzba4xtrlfy89v0t,3w8cv64qj6cpr0amxjbowlrqftch9o,a1GqjMit,2020-0188,2020-05-21,11:10:24,11:25:13,NA,incomplete,1,color,1,left,Red_Plus_Chess_3.jpg,Red_Circle_Dots_1.jpg,Blue_Triangle_Grid_3.jpg,left,834.2099999426864,true,low,false
a1GqjMit,3eawoid6nwaaqnjzba4xtrlfy89v0t,3w8cv64qj6cpr0amxjbowlrqftch9o,a1GqjMit,2020-0188,2020-05-21,11:10:24,11:25:13,NA,incomplete,2,color,1,right,Red_Triangle_Dots_2.jpg,Purple_Plus_Stripes_2.jpg,Red_Star_Grid_4.jpg,right,636.995000008028,true,low,false
a1GqjMit,3eawoid6nwaaqnjzba4xtrlfy89v0t,3w8cv64qj6cpr0amxjbowlrqftch9o,a1GqjMit,2020-0188,2020-05-21,11:10:24,11:25:13,NA,incomplete,3,color,1,left,Green_Star_Chess_4.jpg,Green_Triangle_Grid_3.jpg,Purple_Plus_Dots_4.jpg,left,854.5349999913014,true,low,false
a1GqjMit,3eawoid6nwaaqnjzba4xtrlfy89v0t,3w8cv64qj6cpr0amxjbowlrqftch9o,a1GqjMit,2020-0188,2020-05-21,11:10:24,11:25:13,NA,incomplete,4,color,1,left,Red_Plus_Chess_1.jpg,Red_Star_Grid_2.jpg,Blue_Circle_Dots_1.jpg,left,523.5550000215881,true,low,false
a1GqjMit,3eawoid6nwaaqnjzba4xtrlfy89v0t,3w8cv64qj6cpr0amxjbowlrqftch9o,a1GqjMit,2020-0188,2020-05-21,11:10:24,11:25:13,NA,incomplete,5,color,1,right,Blue_Star_Dots_4.jpg,Red_Triangle_Stripes_4.jpg,Blue_Plus_Grid_2.jpg,right,655.4950000136159,true,low,false
a1GqjMit,3eawoid6nwaaqnjzba4xtrlfy89v0t,3w8cv64qj6cpr0amxjbowlrqftch9o,a1GqjMit,2020-0188,2020-05-21,11:10:24,11:25:13,NA,incomplete,6,color,1,left,Purple_Star_Dots_4.jpg,Purple_Plus_Grid_2.jpg,Green_Circle_Stripes_4.jpg,left,651.9799999659881,true,low,false
a1GqjMit,3eawoid6nwaaqnjzba4xtrlfy89v0t,3w8cv64qj6cpr0amxjbowlrqftch9o,a1GqjMit,2020-0188,2020-05-21,11:10:24,11:25:13,NA,incomplete,7,color,1,left,Purple_Star_Stripes_4.jpg,Purple_Circle_Chess_3.jpg,Red_Plus_Grid_4.jpg,left,726.3349999557249,true,low,false
a1GqjMit,3eawoid6nwaaqnjzba4xtrlfy89v0t,3w8cv64qj6cpr0amxjbowlrqftch9o,a1GqjMit,2020-0188,2020-05-21,11:10:24,11:25:13,NA,incomplete,8,color,1,right,Green_Triangle_Stripes_3.jpg,Blue_Plus_Dots_3.jpg,Green_Star_Chess_4.jpg,right,612.7899999846704,true,low,false
a1GqjMit,3eawoid6nwaaqnjzba4xtrlfy89v0t,3w8cv64qj6cpr0amxjbowlrqftch9o,a1GqjMit,2020-0188,2020-05-21,11:10:24,11:25:13,NA,incomplete,9,color,0,left,Green_Plus_Grid_3.jpg,Green_Triangle_Dots_1.jpg,Blue_Star_Chess_3.jpg,left,603.3250000327826,true,low,false
a1GqjMit,3eawoid6nwaaqnjzba4xtrlfy89v0t,3w8cv64qj6cpr0amxjbowlrqftch9o,a1GqjMit,2020-0188,2020-05-21,11:10:24,11:25:13,NA,incomplete,10,color,1,right,Purple_Star_Dots_4.jpg,Green_Circle_Chess_4.jpg,Purple_Triangle_Grid_3.jpg,right,541.0499999998137,true,low,false
a1GqjMit,3eawoid6nwaaqnjzba4xtrlfy89v0t,3w8cv64qj6cpr0amxjbowlrqftch9o,a1GqjMit,2020-0188,2020-05-21,11:10:24,11:25:13,NA,incomplete,11,color,1,right,Red_Circle_Chess_3.jpg,Blue_Plus_Grid_3.jpg,Red_Triangle_Stripes_2.jpg,right,469.35000002849847,true,low,false
a1GqjMit,3eawoid6nwaaqnjzba4xtrlfy89v0t,3w8cv64qj6cpr0amxjbowlrqftch9o,a1GqjMit,2020-0188,2020-05-21,11:10:24,11:25:13,NA,incomplete,12,color,1,right,Blue_Triangle_Chess_2.jpg,Green_Circle_Dots_2.jpg,Blue_Plus_Grid_4.jpg,right,501.4500000397675,true,low,false
a1GqjMit,3eawoid6nwaaqnjzba4xtrlfy89v0t,3w8cv64qj6cpr0amxjbowlrqftch9o,a1GqjMit,2020-0188,2020-05-21,11:10:24,11:25:13,NA,incomplete,13,color,0,right,Red_Circle_Stripes_4.jpg,Purple_Star_Grid_4.jpg,Red_Triangle_Chess_3.jpg,right,546.0599999642,true,low,false
a1GqjMit,3eawoid6nwaaqnjzba4xtrlfy89v0t,3w8cv64qj6cpr0amxjbowlrqftch9o,a1GqjMit,2020-0188,2020-05-21,11:10:24,11:25:13,NA,incomplete,14,color,1,left,Blue_Star_Chess_4.jpg,Blue_Triangle_Dots_3.jpg,Purple_Plus_Stripes_4.jpg,left,478.34999999031425,true,low,false
a1GqjMit,3eawoid6nwaaqnjzba4xtrlfy89v0t,3w8cv64qj6cpr0amxjbowlrqftch9o,a1GqjMit,2020-0188,2020-05-21,11:10:24,11:25:13,NA,incomplete,15,color,0,left,Purple_Triangle_Grid_3.jpg,Purple_Circle_Dots_4.jpg,Green_Star_Stripes_3.jpg,left,584.8199999891222,true,low,false
a1GqjMit,3eawoid6nwaaqnjzba4xtrlfy89v0t,3w8cv64qj6cpr0amxjbowlrqftch9o,a1GqjMit,2020-0188,2020-05-21,11:10:24,11:25:13,NA,incomplete,16,color,1,left,Purple_Triangle_Chess_1.jpg,Purple_Star_Dots_4.jpg,Blue_Circle_Grid_1.jpg,left,930.3549999604002,true,low,false
a1GqjMit,3eawoid6nwaaqnjzba4xtrlfy89v0t,3w8cv64qj6cpr0amxjbowlrqftch9o,a1GqjMit,2020-0188,2020-05-21,11:10:24,11:25:13,NA,incomplete,17,color,1,right,Purple_Triangle_Dots_3.jpg,Red_Circle_Stripes_3.jpg,Purple_Star_Grid_1.jpg,right,547.3399999900721,true,low,false
a1GqjMit,3eawoid6nwaaqnjzba4xtrlfy89v0t,3w8cv64qj6cpr0amxjbowlrqftch9o,a1GqjMit,2020-0188,2020-05-21,11:10:24,11:25:13,NA,incomplete,18,color,0,left,Purple_Plus_Chess_3.jpg,Purple_Star_Grid_2.jpg,Green_Circle_Stripes_3.jpg,left,459.1399999917485,true,low,false
a1GqjMit,3eawoid6nwaaqnjzba4xtrlfy89v0t,3w8cv64qj6cpr0amxjbowlrqftch9o,a1GqjMit,2020-0188,2020-05-21,11:10:24,11:25:13,NA,incomplete,19,color,1,right,Red_Star_Stripes_3.jpg,Green_Circle_Grid_3.jpg,Red_Triangle_Dots_4.jpg,right,479.05500000342727,true,low,false
a1GqjMit,3eawoid6nwaaqnjzba4xtrlfy89v0t,3w8cv64qj6cpr0amxjbowlrqftch9o,a1GqjMit,2020-0188,2020-05-21,11:10:24,11:25:13,NA,incomplete,20,color,1,left,Purple_Triangle_Chess_3.jpg,Purple_Plus_Dots_2.jpg,Blue_Star_Stripes_3.jpg,left,518.8499999931082,true,low,false
a1GqjMit,3eawoid6nwaaqnjzba4xtrlfy89v0t,3w8cv64qj6cpr0amxjbowlrqftch9o,a1GqjMit,2020-0188,2020-05-21,11:10:24,11:25:13,NA,incomplete,21,color,1,right,Green_Star_Dots_2.jpg,Red_Triangle_Stripes_2.jpg,Green_Circle_Chess_4.jpg,right,503.14499996602535,true,low,false
a1GqjMit,3eawoid6nwaaqnjzba4xtrlfy89v0t,3w8cv64qj6cpr0amxjbowlrqftch9o,a1GqjMit,2020-0188,2020-05-21,11:10:24,11:25:13,NA,incomplete,22,color,1,left,Blue_Star_Dots_4.jpg,Blue_Plus_Grid_1.jpg,Purple_Triangle_Stripes_4.jpg,left,508.559999987483,true,low,false
a1GqjMit,3eawoid6nwaaqnjzba4xtrlfy89v0t,3w8cv64qj6cpr0amxjbowlrqftch9o,a1GqjMit,2020-0188,2020-05-21,11:10:24,11:25:13,NA,incomplete,23,color,1,left,Red_Plus_Dots_3.jpg,Red_Triangle_Grid_4.jpg,Green_Star_Stripes_3.jpg,left,528.1850000028498,true,low,false
a1GqjMit,3eawoid6nwaaqnjzba4xtrlfy89v0t,3w8cv64qj6cpr0amxjbowlrqftch9o,a1GqjMit,2020-0188,2020-05-21,11:10:24,11:25:13,NA,incomplete,24,color,0,left,Green_Star_Chess_2.jpg,Green_Circle_Stripes_1.jpg,Blue_Plus_Dots_2.jpg,left,569.1050000023097,true,low,false
a1GqjMit,3eawoid6nwaaqnjzba4xtrlfy89v0t,3w8cv64qj6cpr0amxjbowlrqftch9o,a1GqjMit,2020-0188,2020-05-21,11:10:24,11:25:13,NA,incomplete,25,color,1,right,Purple_Circle_Grid_3.jpg,Green_Plus_Stripes_3.jpg,Purple_Triangle_Dots_2.jpg,right,531.7650000215508,true,low,false
a1GqjMit,3eawoid6nwaaqnjzba4xtrlfy89v0t,3w8cv64qj6cpr0amxjbowlrqftch9o,a1GqjMit,2020-0188,2020-05-21,11:10:24,11:25:13,NA,incomplete,26,color,1,left,Blue_Plus_Grid_2.jpg,Blue_Circle_Chess_3.jpg,Green_Triangle_Stripes_2.jpg,left,467.0899999910034,true,low,false
a1GqjMit,3eawoid6nwaaqnjzba4xtrlfy89v0t,3w8cv64qj6cpr0amxjbowlrqftch9o,a1GqjMit,2020-0188,2020-05-21,11:10:24,11:25:13,NA,incomplete,27,color,1,right,Red_Star_Stripes_1.jpg,Green_Plus_Chess_1.jpg,Red_Circle_Grid_4.jpg,right,501.5199999907054,true,low,false
a1GqjMit,3eawoid6nwaaqnjzba4xtrlfy89v0t,3w8cv64qj6cpr0amxjbowlrqftch9o,a1GqjMit,2020-0188,2020-05-21,11:10:24,11:25:13,NA,incomplete,28,color,1,left,Purple_Star_Stripes_3.jpg,Purple_Circle_Dots_4.jpg,Green_Triangle_Chess_3.jpg,left,548.5500000067987,true,low,false
a1GqjMit,3eawoid6nwaaqnjzba4xtrlfy89v0t,3w8cv64qj6cpr0amxjbowlrqftch9o,a1GqjMit,2020-0188,2020-05-21,11:10:24,11:25:13,NA,incomplete,29,color,1,right,Green_Circle_Chess_2.jpg,Red_Plus_Dots_2.jpg,Green_Triangle_Stripes_4.jpg,right,474.564999982249,true,low,false
a1GqjMit,3eawoid6nwaaqnjzba4xtrlfy89v0t,3w8cv64qj6cpr0amxjbowlrqftch9o,a1GqjMit,2020-0188,2020-05-21,11:10:24,11:25:13,NA,incomplete,30,number,1,left,Blue_Plus_Chess_2.jpg,Red_Triangle_Grid_2.jpg,Blue_Circle_Stripes_4.jpg,right,423.24499995447695,false,low,false
a1GqjMit,3eawoid6nwaaqnjzba4xtrlfy89v0t,3w8cv64qj6cpr0amxjbowlrqftch9o,a1GqjMit,2020-0188,2020-05-21,11:10:24,11:25:13,NA,incomplete,31,number,1,left,Blue_Star_Stripes_3.jpg,Green_Plus_Chess_3.jpg,Blue_Triangle_Dots_1.jpg,right,528.0199999688193,false,low,false
a1GqjMit,3eawoid6nwaaqnjzba4xtrlfy89v0t,3w8cv64qj6cpr0amxjbowlrqftch9o,a1GqjMit,2020-0188,2020-05-21,11:10:24,11:25:13,NA,incomplete,32,number,1,right,Green_Star_Grid_1.jpg,Green_Plus_Chess_4.jpg,Blue_Circle_Dots_1.jpg,left,568.8050000462681,false,low,false
a1GqjMit,3eawoid6nwaaqnjzba4xtrlfy89v0t,3w8cv64qj6cpr0amxjbowlrqftch9o,a1GqjMit,2020-0188,2020-05-21,11:10:24,11:25:13,NA,incomplete,33,number,1,right,Green_Triangle_Dots_2.jpg,Green_Plus_Stripes_1.jpg,Blue_Star_Grid_2.jpg,right,1205.530000035651,true,low,false
a1GqjMit,3eawoid6nwaaqnjzba4xtrlfy89v0t,3w8cv64qj6cpr0amxjbowlrqftch9o,a1GqjMit,2020-0188,2020-05-21,11:10:24,11:25:13,NA,incomplete,34,number,1,right,Green_Circle_Chess_1.jpg,Green_Plus_Stripes_2.jpg,Purple_Triangle_Grid_1.jpg,right,586.5449999691918,true,low,false
a1GqjMit,3eawoid6nwaaqnjzba4xtrlfy89v0t,3w8cv64qj6cpr0amxjbowlrqftch9o,a1GqjMit,2020-0188,2020-05-21,11:10:24,11:25:13,NA,incomplete,35,number,1,left,Green_Triangle_Stripes_4.jpg,Red_Circle_Grid_4.jpg,Green_Plus_Dots_2.jpg,left,802.239999989979,true,low,false
a1GqjMit,3eawoid6nwaaqnjzba4xtrlfy89v0t,3w8cv64qj6cpr0amxjbowlrqftch9o,a1GqjMit,2020-0188,2020-05-21,11:10:24,11:25:13,NA,incomplete,36,number,1,left,Red_Circle_Chess_3.jpg,Green_Plus_Grid_3.jpg,Red_Triangle_Dots_2.jpg,left,715.9199999878183,true,low,false
a1GqjMit,3eawoid6nwaaqnjzba4xtrlfy89v0t,3w8cv64qj6cpr0amxjbowlrqftch9o,a1GqjMit,2020-0188,2020-05-21,11:10:24,11:25:13,NA,incomplete,37,number,0,right,Blue_Triangle_Chess_3.jpg,Blue_Circle_Grid_4.jpg,Green_Star_Stripes_3.jpg,right,668.1850000168197,true,low,false
a1GqjMit,3eawoid6nwaaqnjzba4xtrlfy89v0t,3w8cv64qj6cpr0amxjbowlrqftch9o,a1GqjMit,2020-0188,2020-05-21,11:10:24,11:25:13,NA,incomplete,38,number,1,right,Blue_Plus_Dots_1.jpg,Blue_Star_Grid_3.jpg,Red_Triangle_Chess_1.jpg,right,621.7349999933504,true,low,false
a1GqjMit,3eawoid6nwaaqnjzba4xtrlfy89v0t,3w8cv64qj6cpr0amxjbowlrqftch9o,a1GqjMit,2020-0188,2020-05-21,11:10:24,11:25:13,NA,incomplete,39,number,1,left,Green_Circle_Chess_2.jpg,Blue_Triangle_Grid_2.jpg,Green_Plus_Dots_3.jpg,left,633.1650000065565,true,low,false
a1GqjMit,3eawoid6nwaaqnjzba4xtrlfy89v0t,3w8cv64qj6cpr0amxjbowlrqftch9o,a1GqjMit,2020-0188,2020-05-21,11:10:24,11:25:13,NA,incomplete,40,number,0,left,Green_Star_Dots_4.jpg,Purple_Triangle_Grid_4.jpg,Green_Circle_Chess_3.jpg,left,742.0649999985471,true,low,false
a1GqjMit,3eawoid6nwaaqnjzba4xtrlfy89v0t,3w8cv64qj6cpr0amxjbowlrqftch9o,a1GqjMit,2020-0188,2020-05-21,11:10:24,11:25:13,NA,incomplete,41,number,1,left,Blue_Star_Grid_4.jpg,Green_Circle_Chess_4.jpg,Blue_Triangle_Stripes_2.jpg,left,772.0299999928102,true,low,false
a1GqjMit,3eawoid6nwaaqnjzba4xtrlfy89v0t,3w8cv64qj6cpr0amxjbowlrqftch9o,a1GqjMit,2020-0188,2020-05-21,11:10:24,11:25:13,NA,incomplete,42,number,1,left,Blue_Star_Grid_1.jpg,Green_Triangle_Dots_1.jpg,Blue_Circle_Chess_2.jpg,left,570.3900000080466,true,low,false
a1GqjMit,3eawoid6nwaaqnjzba4xtrlfy89v0t,3w8cv64qj6cpr0amxjbowlrqftch9o,a1GqjMit,2020-0188,2020-05-21,11:10:24,11:25:13,NA,incomplete,43,number,1,left,Green_Plus_Grid_1.jpg,Blue_Circle_Stripes_1.jpg,Green_Triangle_Dots_4.jpg,left,631.1400000122376,true,low,false
a1GqjMit,3eawoid6nwaaqnjzba4xtrlfy89v0t,3w8cv64qj6cpr0amxjbowlrqftch9o,a1GqjMit,2020-0188,2020-05-21,11:10:24,11:25:13,NA,incomplete,44,number,0,left,Purple_Plus_Chess_4.jpg,Green_Star_Stripes_4.jpg,Purple_Circle_Grid_1.jpg,left,640.2799999923445,true,low,false
a1GqjMit,3eawoid6nwaaqnjzba4xtrlfy89v0t,3w8cv64qj6cpr0amxjbowlrqftch9o,a1GqjMit,2020-0188,2020-05-21,11:10:24,11:25:13,NA,incomplete,45,number,1,right,Green_Plus_Chess_4.jpg,Green_Triangle_Grid_2.jpg,Red_Star_Dots_4.jpg,right,704.6700000064448,true,low,false
a1GqjMit,3eawoid6nwaaqnjzba4xtrlfy89v0t,3w8cv64qj6cpr0amxjbowlrqftch9o,a1GqjMit,2020-0188,2020-05-21,11:10:24,11:25:13,NA,incomplete,46,number,1,right,Blue_Plus_Chess_4.jpg,Blue_Triangle_Stripes_3.jpg,Green_Star_Dots_4.jpg,right,655.0150000257418,true,low,false
a1GqjMit,3eawoid6nwaaqnjzba4xtrlfy89v0t,3w8cv64qj6cpr0amxjbowlrqftch9o,a1GqjMit,2020-0188,2020-05-21,11:10:24,11:25:13,NA,incomplete,47,number,1,left,Red_Star_Dots_1.jpg,Purple_Plus_Stripes_1.jpg,Red_Triangle_Grid_4.jpg,left,560.910000000149,true,low,false
a1GqjMit,3eawoid6nwaaqnjzba4xtrlfy89v0t,3w8cv64qj6cpr0amxjbowlrqftch9o,a1GqjMit,2020-0188,2020-05-21,11:10:24,11:25:13,NA,incomplete,48,number,1,right,Green_Circle_Chess_1.jpg,Green_Plus_Grid_4.jpg,Red_Triangle_Stripes_1.jpg,right,846.3249999913387,true,low,false
a1GqjMit,3eawoid6nwaaqnjzba4xtrlfy89v0t,3w8cv64qj6cpr0amxjbowlrqftch9o,a1GqjMit,2020-0188,2020-05-21,11:10:24,11:25:13,NA,incomplete,49,number,1,right,Blue_Plus_Chess_4.jpg,Blue_Circle_Dots_3.jpg,Red_Triangle_Grid_4.jpg,right,827.4700000183657,true,low,false
a1GqjMit,3eawoid6nwaaqnjzba4xtrlfy89v0t,3w8cv64qj6cpr0amxjbowlrqftch9o,a1GqjMit,2020-0188,2020-05-21,11:10:24,11:25:13,NA,incomplete,50,number,0,right,Red_Triangle_Chess_4.jpg,Red_Circle_Stripes_2.jpg,Purple_Plus_Dots_4.jpg,right,759.2849999782629,true,low,false
a1GqjMit,3eawoid6nwaaqnjzba4xtrlfy89v0t,3w8cv64qj6cpr0amxjbowlrqftch9o,a1GqjMit,2020-0188,2020-05-21,11:10:24,11:25:13,NA,incomplete,51,number,0,right,Purple_Plus_Chess_2.jpg,Purple_Circle_Dots_4.jpg,Green_Star_Stripes_2.jpg,right,708.4649999742396,true,low,false
a1GqjMit,3eawoid6nwaaqnjzba4xtrlfy89v0t,3w8cv64qj6cpr0amxjbowlrqftch9o,a1GqjMit,2020-0188,2020-05-21,11:10:24,11:25:13,NA,incomplete,52,number,1,left,Red_Triangle_Dots_2.jpg,Green_Star_Grid_2.jpg,Red_Circle_Stripes_3.jpg,left,701.6749999602325,true,low,false
a1GqjMit,3eawoid6nwaaqnjzba4xtrlfy89v0t,3w8cv64qj6cpr0amxjbowlrqftch9o,a1GqjMit,2020-0188,2020-05-21,11:10:24,11:25:13,NA,incomplete,53,number,1,left,Blue_Triangle_Stripes_1.jpg,Purple_Star_Grid_1.jpg,Blue_Plus_Chess_3.jpg,left,1429.2299999506213,true,low,false
a1GqjMit,3eawoid6nwaaqnjzba4xtrlfy89v0t,3w8cv64qj6cpr0amxjbowlrqftch9o,a1GqjMit,2020-0188,2020-05-21,11:10:24,11:25:13,NA,incomplete,54,number,1,right,Red_Plus_Dots_1.jpg,Red_Star_Grid_2.jpg,Purple_Triangle_Stripes_1.jpg,right,615.349999978207,true,low,false
a1GqjMit,3eawoid6nwaaqnjzba4xtrlfy89v0t,3w8cv64qj6cpr0amxjbowlrqftch9o,a1GqjMit,2020-0188,2020-05-21,11:10:24,11:25:13,NA,incomplete,55,number,1,left,Red_Circle_Dots_2.jpg,Green_Triangle_Grid_2.jpg,Red_Star_Stripes_4.jpg,left,634.8149999976158,true,low,false
a1GqjMit,3eawoid6nwaaqnjzba4xtrlfy89v0t,3w8cv64qj6cpr0amxjbowlrqftch9o,a1GqjMit,2020-0188,2020-05-21,11:10:24,11:25:13,NA,incomplete,56,number,1,right,Purple_Star_Grid_3.jpg,Purple_Plus_Stripes_2.jpg,Red_Circle_Dots_3.jpg,right,688.2450000266545,true,low,false
a1GqjMit,3eawoid6nwaaqnjzba4xtrlfy89v0t,3w8cv64qj6cpr0amxjbowlrqftch9o,a1GqjMit,2020-0188,2020-05-21,11:10:24,11:25:13,NA,incomplete,57,number,0,right,Green_Star_Dots_1.jpg,Green_Plus_Chess_3.jpg,Purple_Triangle_Grid_1.jpg,right,616.5299999993294,true,low,false
a1GqjMit,3eawoid6nwaaqnjzba4xtrlfy89v0t,3w8cv64qj6cpr0amxjbowlrqftch9o,a1GqjMit,2020-0188,2020-05-21,11:10:24,11:25:13,NA,incomplete,58,number,0,left,Purple_Triangle_Stripes_4.jpg,Blue_Star_Dots_4.jpg,Purple_Circle_Chess_3.jpg,left,903.9600000251085,true,low,false
a1GqjMit,3eawoid6nwaaqnjzba4xtrlfy89v0t,3w8cv64qj6cpr0amxjbowlrqftch9o,a1GqjMit,2020-0188,2020-05-21,11:10:24,11:25:13,NA,incomplete,59,number,0,left,Red_Plus_Dots_2.jpg,Purple_Star_Stripes_2.jpg,Red_Circle_Grid_4.jpg,left,1380.879999953322,true,low,false
a1GqjMit,3eawoid6nwaaqnjzba4xtrlfy89v0t,3w8cv64qj6cpr0amxjbowlrqftch9o,a1GqjMit,2020-0188,2020-05-21,11:10:24,11:25:13,NA,incomplete,60,color,1,left,Red_Star_Dots_2.jpg,Red_Plus_Chess_3.jpg,Blue_Triangle_Stripes_2.jpg,left,612.5950000132434,true,low,false
a1GqjMit,3eawoid6nwaaqnjzba4xtrlfy89v0t,3w8cv64qj6cpr0amxjbowlrqftch9o,a1GqjMit,2020-0188,2020-05-21,11:10:24,11:25:13,NA,incomplete,61,color,0,left,Red_Triangle_Dots_3.jpg,Red_Plus_Stripes_4.jpg,Blue_Circle_Chess_3.jpg,left,1218.875000020489,true,low,false
a1GqjMit,3eawoid6nwaaqnjzba4xtrlfy89v0t,3w8cv64qj6cpr0amxjbowlrqftch9o,a1GqjMit,2020-0188,2020-05-21,11:10:24,11:25:13,NA,incomplete,62,color,1,left,Green_Triangle_Grid_3.jpg,Green_Star_Chess_1.jpg,Purple_Circle_Stripes_3.jpg,left,1026.7300000414252,true,low,false
a1GqjMit,3eawoid6nwaaqnjzba4xtrlfy89v0t,3w8cv64qj6cpr0amxjbowlrqftch9o,a1GqjMit,2020-0188,2020-05-21,11:10:24,11:25:13,NA,incomplete,63,color,1,left,Purple_Triangle_Grid_1.jpg,Purple_Star_Stripes_3.jpg,Green_Circle_Dots_1.jpg,left,870.2549999579787,true,low,false
a1GqjMit,3eawoid6nwaaqnjzba4xtrlfy89v0t,3w8cv64qj6cpr0amxjbowlrqftch9o,a1GqjMit,2020-0188,2020-05-21,11:10:24,11:25:13,NA,incomplete,64,color,1,left,Red_Circle_Dots_2.jpg,Red_Plus_Chess_1.jpg,Green_Star_Grid_2.jpg,right,672.2099999897182,false,low,false
a1GqjMit,3eawoid6nwaaqnjzba4xtrlfy89v0t,3w8cv64qj6cpr0amxjbowlrqftch9o,a1GqjMit,2020-0188,2020-05-21,11:10:24,11:25:13,NA,incomplete,65,color,1,left,Red_Triangle_Stripes_1.jpg,Red_Star_Grid_2.jpg,Purple_Plus_Chess_1.jpg,left,747.0749999629334,true,low,false
a1GqjMit,3eawoid6nwaaqnjzba4xtrlfy89v0t,3w8cv64qj6cpr0amxjbowlrqftch9o,a1GqjMit,2020-0188,2020-05-21,11:10:24,11:25:13,NA,incomplete,66,color,1,left,Red_Plus_Chess_4.jpg,Red_Triangle_Stripes_3.jpg,Purple_Circle_Grid_4.jpg,left,689.7549999994226,true,low,false
a1GqjMit,3eawoid6nwaaqnjzba4xtrlfy89v0t,3w8cv64qj6cpr0amxjbowlrqftch9o,a1GqjMit,2020-0188,2020-05-21,11:10:24,11:25:13,NA,incomplete,67,color,1,right,Purple_Plus_Stripes_4.jpg,Green_Triangle_Chess_4.jpg,Purple_Circle_Dots_2.jpg,right,608.074999996461,true,low,false
a1GqjMit,3eawoid6nwaaqnjzba4xtrlfy89v0t,3w8cv64qj6cpr0amxjbowlrqftch9o,a1GqjMit,2020-0188,2020-05-21,11:10:24,11:25:13,NA,incomplete,68,color,1,left,Red_Circle_Grid_4.jpg,Red_Star_Dots_1.jpg,Purple_Plus_Chess_4.jpg,left,638.3499999647029,true,low,false
a1GqjMit,3eawoid6nwaaqnjzba4xtrlfy89v0t,3w8cv64qj6cpr0amxjbowlrqftch9o,a1GqjMit,2020-0188,2020-05-21,11:10:24,11:25:13,NA,incomplete,69,color,1,left,Red_Circle_Chess_2.jpg,Red_Plus_Stripes_3.jpg,Purple_Triangle_Grid_2.jpg,left,592.415000020992,true,low,false
a1GqjMit,3eawoid6nwaaqnjzba4xtrlfy89v0t,3w8cv64qj6cpr0amxjbowlrqftch9o,a1GqjMit,2020-0188,2020-05-21,11:10:24,11:25:13,NA,incomplete,70,color,0,right,Blue_Triangle_Grid_2.jpg,Red_Plus_Dots_2.jpg,Blue_Star_Stripes_4.jpg,right,498.60999995144084,true,low,false
a1GqjMit,3eawoid6nwaaqnjzba4xtrlfy89v0t,3w8cv64qj6cpr0amxjbowlrqftch9o,a1GqjMit,2020-0188,2020-05-21,11:10:24,11:25:13,NA,incomplete,71,color,0,right,Red_Circle_Grid_2.jpg,Blue_Plus_Dots_2.jpg,Red_Triangle_Stripes_1.jpg,right,974.0149999852292,true,low,false
a1GqjMit,3eawoid6nwaaqnjzba4xtrlfy89v0t,3w8cv64qj6cpr0amxjbowlrqftch9o,a1GqjMit,2020-0188,2020-05-21,11:10:24,11:25:13,NA,incomplete,72,color,1,right,Blue_Circle_Stripes_2.jpg,Purple_Star_Chess_2.jpg,Blue_Plus_Grid_4.jpg,right,596.9549999572337,true,low,false
a1GqjMit,3eawoid6nwaaqnjzba4xtrlfy89v0t,3w8cv64qj6cpr0amxjbowlrqftch9o,a1GqjMit,2020-0188,2020-05-21,11:10:24,11:25:13,NA,incomplete,73,color,1,left,Blue_Circle_Dots_3.jpg,Blue_Star_Grid_1.jpg,Green_Triangle_Stripes_3.jpg,left,963.3599999942817,true,low,false
a1GqjMit,3eawoid6nwaaqnjzba4xtrlfy89v0t,3w8cv64qj6cpr0amxjbowlrqftch9o,a1GqjMit,2020-0188,2020-05-21,11:10:24,11:25:13,NA,incomplete,74,color,0,left,Red_Circle_Stripes_1.jpg,Red_Triangle_Chess_4.jpg,Purple_Star_Dots_1.jpg,left,584.4750000396743,true,low,false
a1GqjMit,3eawoid6nwaaqnjzba4xtrlfy89v0t,3w8cv64qj6cpr0amxjbowlrqftch9o,a1GqjMit,2020-0188,2020-05-21,11:10:24,11:25:13,NA,incomplete,75,color,1,left,Purple_Circle_Grid_4.jpg,Purple_Star_Chess_1.jpg,Red_Plus_Stripes_4.jpg,left,686.2049999763258,true,low,false
a1GqjMit,3eawoid6nwaaqnjzba4xtrlfy89v0t,3w8cv64qj6cpr0amxjbowlrqftch9o,a1GqjMit,2020-0188,2020-05-21,11:10:24,11:25:13,NA,incomplete,76,color,1,right,Purple_Star_Dots_1.jpg,Blue_Plus_Chess_1.jpg,Purple_Triangle_Grid_4.jpg,right,517.4699999624863,true,low,false
a1GqjMit,3eawoid6nwaaqnjzba4xtrlfy89v0t,3w8cv64qj6cpr0amxjbowlrqftch9o,a1GqjMit,2020-0188,2020-05-21,11:10:24,11:25:13,NA,incomplete,77,color,1,left,Blue_Circle_Chess_4.jpg,Blue_Plus_Dots_1.jpg,Purple_Star_Grid_4.jpg,left,637.8549999790266,true,low,false
a1GqjMit,3eawoid6nwaaqnjzba4xtrlfy89v0t,3w8cv64qj6cpr0amxjbowlrqftch9o,a1GqjMit,2020-0188,2020-05-21,11:10:24,11:25:13,NA,incomplete,78,color,1,right,Blue_Circle_Stripes_4.jpg,Purple_Triangle_Grid_4.jpg,Blue_Plus_Chess_1.jpg,right,479.51500001363456,true,low,false
a1GqjMit,3eawoid6nwaaqnjzba4xtrlfy89v0t,3w8cv64qj6cpr0amxjbowlrqftch9o,a1GqjMit,2020-0188,2020-05-21,11:10:24,11:25:13,NA,incomplete,79,color,1,left,Purple_Plus_Grid_4.jpg,Purple_Triangle_Chess_1.jpg,Green_Circle_Dots_4.jpg,left,569.1099999821745,true,low,false
a1GqjMit,3eawoid6nwaaqnjzba4xtrlfy89v0t,3w8cv64qj6cpr0amxjbowlrqftch9o,a1GqjMit,2020-0188,2020-05-21,11:10:24,11:25:13,NA,incomplete,80,color,1,left,Red_Triangle_Stripes_2.jpg,Red_Circle_Dots_3.jpg,Purple_Plus_Grid_2.jpg,left,527.074999990873,true,low,false
a1GqjMit,3eawoid6nwaaqnjzba4xtrlfy89v0t,3w8cv64qj6cpr0amxjbowlrqftch9o,a1GqjMit,2020-0188,2020-05-21,11:10:24,11:25:13,NA,incomplete,81,color,1,left,Blue_Circle_Chess_1.jpg,Blue_Plus_Stripes_2.jpg,Red_Star_Dots_1.jpg,left,477.82999998889863,true,low,false
a1GqjMit,3eawoid6nwaaqnjzba4xtrlfy89v0t,3w8cv64qj6cpr0amxjbowlrqftch9o,a1GqjMit,2020-0188,2020-05-21,11:10:24,11:25:13,NA,incomplete,82,color,1,right,Purple_Circle_Dots_4.jpg,Red_Triangle_Stripes_4.jpg,Purple_Plus_Grid_3.jpg,right,607.625000004191,true,low,false
a1GqjMit,3eawoid6nwaaqnjzba4xtrlfy89v0t,3w8cv64qj6cpr0amxjbowlrqftch9o,a1GqjMit,2020-0188,2020-05-21,11:10:24,11:25:13,NA,incomplete,83,color,1,left,Green_Circle_Stripes_2.jpg,Green_Star_Dots_3.jpg,Purple_Triangle_Chess_2.jpg,left,460.61999996891245,true,low,false
a1GqjMit,3eawoid6nwaaqnjzba4xtrlfy89v0t,3w8cv64qj6cpr0amxjbowlrqftch9o,a1GqjMit,2020-0188,2020-05-21,11:10:24,11:25:13,NA,incomplete,84,color,1,right,Purple_Plus_Dots_1.jpg,Green_Star_Grid_1.jpg,Purple_Circle_Chess_4.jpg,right,523.5250000259839,true,low,false
a1GqjMit,3eawoid6nwaaqnjzba4xtrlfy89v0t,3w8cv64qj6cpr0amxjbowlrqftch9o,a1GqjMit,2020-0188,2020-05-21,11:10:24,11:25:13,NA,incomplete,85,color,1,left,Red_Star_Grid_3.jpg,Red_Triangle_Stripes_1.jpg,Green_Plus_Chess_3.jpg,left,446.1950000259094,true,low,false
a1GqjMit,3eawoid6nwaaqnjzba4xtrlfy89v0t,3w8cv64qj6cpr0amxjbowlrqftch9o,a1GqjMit,2020-0188,2020-05-21,11:10:24,11:25:13,NA,incomplete,86,color,1,right,Green_Circle_Dots_4.jpg,Red_Plus_Grid_4.jpg,Green_Triangle_Chess_2.jpg,right,610.2149999933317,true,low,false
a1GqjMit,3eawoid6nwaaqnjzba4xtrlfy89v0t,3w8cv64qj6cpr0amxjbowlrqftch9o,a1GqjMit,2020-0188,2020-05-21,11:10:24,11:25:13,NA,incomplete,87,color,1,right,Blue_Circle_Stripes_4.jpg,Green_Star_Chess_4.jpg,Blue_Triangle_Dots_3.jpg,right,653.3749999944121,true,low,false
a1GqjMit,3eawoid6nwaaqnjzba4xtrlfy89v0t,3w8cv64qj6cpr0amxjbowlrqftch9o,a1GqjMit,2020-0188,2020-05-21,11:10:24,11:25:13,NA,incomplete,88,color,1,right,Red_Star_Stripes_2.jpg,Purple_Plus_Chess_2.jpg,Red_Circle_Grid_1.jpg,right,513.4449999895878,true,low,false
a1GqjMit,3eawoid6nwaaqnjzba4xtrlfy89v0t,3w8cv64qj6cpr0amxjbowlrqftch9o,a1GqjMit,2020-0188,2020-05-21,11:10:24,11:25:13,NA,incomplete,89,color,1,left,Green_Star_Dots_1.jpg,Green_Circle_Stripes_2.jpg,Purple_Triangle_Grid_1.jpg,left,452.7150000212714,true,low,false
a1GqjMit,3eawoid6nwaaqnjzba4xtrlfy89v0t,3w8cv64qj6cpr0amxjbowlrqftch9o,a1GqjMit,2020-0188,2020-05-21,11:10:24,11:25:13,NA,incomplete,90,number,1,left,Blue_Plus_Stripes_1.jpg,Purple_Triangle_Chess_1.jpg,Blue_Star_Grid_4.jpg,right,452.37999997334555,false,low,false
a1GqjMit,3eawoid6nwaaqnjzba4xtrlfy89v0t,3w8cv64qj6cpr0amxjbowlrqftch9o,a1GqjMit,2020-0188,2020-05-21,11:10:24,11:25:13,NA,incomplete,91,number,1,left,Green_Star_Dots_2.jpg,Purple_Circle_Chess_2.jpg,Green_Triangle_Stripes_3.jpg,right,518.3800000231713,false,low,false
a1GqjMit,3eawoid6nwaaqnjzba4xtrlfy89v0t,3w8cv64qj6cpr0amxjbowlrqftch9o,a1GqjMit,2020-0188,2020-05-21,11:10:24,11:25:13,NA,incomplete,92,number,0,left,Purple_Plus_Dots_2.jpg,Red_Circle_Grid_2.jpg,Purple_Star_Stripes_3.jpg,right,612.9300000029616,false,low,false
a1GqjMit,3eawoid6nwaaqnjzba4xtrlfy89v0t,3w8cv64qj6cpr0amxjbowlrqftch9o,a1GqjMit,2020-0188,2020-05-21,11:10:24,11:25:13,NA,incomplete,93,number,0,left,Green_Plus_Stripes_2.jpg,Purple_Circle_Chess_2.jpg,Green_Star_Grid_1.jpg,right,641.7449999717064,false,low,false
a1GqjMit,3eawoid6nwaaqnjzba4xtrlfy89v0t,3w8cv64qj6cpr0amxjbowlrqftch9o,a1GqjMit,2020-0188,2020-05-21,11:10:24,11:25:13,NA,incomplete,94,number,1,left,Red_Triangle_Stripes_2.jpg,Green_Star_Grid_2.jpg,Red_Circle_Chess_3.jpg,right,644.6800000267103,false,low,false
a1GqjMit,3eawoid6nwaaqnjzba4xtrlfy89v0t,3w8cv64qj6cpr0amxjbowlrqftch9o,a1GqjMit,2020-0188,2020-05-21,11:10:24,11:25:13,NA,incomplete,95,number,1,right,Green_Circle_Chess_4.jpg,Green_Triangle_Stripes_2.jpg,Red_Plus_Grid_4.jpg,left,654.6050000470132,false,low,false
a1GqjMit,3eawoid6nwaaqnjzba4xtrlfy89v0t,3w8cv64qj6cpr0amxjbowlrqftch9o,a1GqjMit,2020-0188,2020-05-21,11:10:24,11:25:13,NA,incomplete,96,number,1,right,Purple_Circle_Chess_3.jpg,Purple_Plus_Stripes_1.jpg,Blue_Star_Dots_3.jpg,left,668.1850000168197,false,low,false
a1GqjMit,3eawoid6nwaaqnjzba4xtrlfy89v0t,3w8cv64qj6cpr0amxjbowlrqftch9o,a1GqjMit,2020-0188,2020-05-21,11:10:24,11:25:13,NA,incomplete,97,number,1,right,Red_Star_Stripes_3.jpg,Red_Triangle_Chess_4.jpg,Purple_Circle_Grid_3.jpg,right,796.5899999835528,true,low,false
a1GqjMit,3eawoid6nwaaqnjzba4xtrlfy89v0t,3w8cv64qj6cpr0amxjbowlrqftch9o,a1GqjMit,2020-0188,2020-05-21,11:10:24,11:25:13,NA,incomplete,98,number,0,right,Blue_Star_Chess_3.jpg,Blue_Circle_Dots_4.jpg,Green_Plus_Grid_3.jpg,right,790.9300000173971,true,low,false
a1GqjMit,3eawoid6nwaaqnjzba4xtrlfy89v0t,3w8cv64qj6cpr0amxjbowlrqftch9o,a1GqjMit,2020-0188,2020-05-21,11:10:24,11:25:13,NA,incomplete,99,number,0,left,Red_Circle_Stripes_4.jpg,Blue_Star_Chess_4.jpg,Red_Triangle_Dots_3.jpg,left,701.230000006035,true,low,false
a1GqjMit,3eawoid6nwaaqnjzba4xtrlfy89v0t,3w8cv64qj6cpr0amxjbowlrqftch9o,a1GqjMit,2020-0188,2020-05-21,11:10:24,11:25:13,NA,incomplete,100,number,0,left,Red_Circle_Grid_4.jpg,Purple_Star_Chess_4.jpg,Red_Plus_Dots_1.jpg,left,1398.7749999505468,true,low,false
a1GqjMit,3eawoid6nwaaqnjzba4xtrlfy89v0t,3w8cv64qj6cpr0amxjbowlrqftch9o,a1GqjMit,2020-0188,2020-05-21,11:10:24,11:25:13,NA,incomplete,101,number,0,left,Blue_Plus_Chess_3.jpg,Green_Star_Stripes_3.jpg,Blue_Circle_Dots_4.jpg,right,658.8599999668077,false,low,false
a1GqjMit,3eawoid6nwaaqnjzba4xtrlfy89v0t,3w8cv64qj6cpr0amxjbowlrqftch9o,a1GqjMit,2020-0188,2020-05-21,11:10:24,11:25:13,NA,incomplete,102,number,1,left,Purple_Plus_Grid_2.jpg,Green_Circle_Dots_2.jpg,Purple_Triangle_Chess_3.jpg,right,853.5000000265427,false,low,false
a1GqjMit,3eawoid6nwaaqnjzba4xtrlfy89v0t,3w8cv64qj6cpr0amxjbowlrqftch9o,a1GqjMit,2020-0188,2020-05-21,11:10:24,11:25:13,NA,incomplete,103,number,1,left,Blue_Plus_Chess_2.jpg,Purple_Star_Dots_2.jpg,Blue_Circle_Grid_1.jpg,right,685.5949999880977,false,low,false
a1GqjMit,3eawoid6nwaaqnjzba4xtrlfy89v0t,3w8cv64qj6cpr0amxjbowlrqftch9o,a1GqjMit,2020-0188,2020-05-21,11:10:24,11:25:13,NA,incomplete,104,number,1,left,Red_Plus_Dots_1.jpg,Blue_Circle_Grid_1.jpg,Red_Star_Stripes_4.jpg,left,1648.4250000212342,true,low,false
a1GqjMit,3eawoid6nwaaqnjzba4xtrlfy89v0t,3w8cv64qj6cpr0amxjbowlrqftch9o,a1GqjMit,2020-0188,2020-05-21,11:10:24,11:25:13,NA,incomplete,105,number,1,left,Purple_Triangle_Chess_2.jpg,Blue_Circle_Grid_2.jpg,Purple_Plus_Stripes_1.jpg,left,760.2499999920838,true,low,false
a1GqjMit,3eawoid6nwaaqnjzba4xtrlfy89v0t,3w8cv64qj6cpr0amxjbowlrqftch9o,a1GqjMit,2020-0188,2020-05-21,11:10:24,11:25:13,NA,incomplete,106,number,1,left,Blue_Star_Stripes_1.jpg,Purple_Circle_Chess_1.jpg,Blue_Plus_Dots_4.jpg,left,678.4399999887682,true,low,false
a1GqjMit,3eawoid6nwaaqnjzba4xtrlfy89v0t,3w8cv64qj6cpr0amxjbowlrqftch9o,a1GqjMit,2020-0188,2020-05-21,11:10:24,11:25:13,NA,incomplete,107,number,1,right,Blue_Triangle_Chess_4.jpg,Blue_Star_Dots_1.jpg,Green_Plus_Stripes_4.jpg,right,817.8600000101142,true,low,false
a1GqjMit,3eawoid6nwaaqnjzba4xtrlfy89v0t,3w8cv64qj6cpr0amxjbowlrqftch9o,a1GqjMit,2020-0188,2020-05-21,11:10:24,11:25:13,NA,incomplete,108,number,1,left,Red_Circle_Stripes_1.jpg,Green_Plus_Dots_1.jpg,Red_Star_Grid_3.jpg,left,521.6350000118837,true,low,false
a1GqjMit,3eawoid6nwaaqnjzba4xtrlfy89v0t,3w8cv64qj6cpr0amxjbowlrqftch9o,a1GqjMit,2020-0188,2020-05-21,11:10:24,11:25:13,NA,incomplete,109,number,0,left,Red_Plus_Chess_4.jpg,Green_Circle_Stripes_4.jpg,Red_Star_Dots_2.jpg,left,637.2649999684654,true,low,false
a1GqjMit,3eawoid6nwaaqnjzba4xtrlfy89v0t,3w8cv64qj6cpr0amxjbowlrqftch9o,a1GqjMit,2020-0188,2020-05-21,11:10:24,11:25:13,NA,incomplete,110,number,1,left,Red_Circle_Chess_4.jpg,Blue_Plus_Dots_4.jpg,Red_Star_Stripes_1.jpg,left,801.279999956023,true,low,false
a1GqjMit,3eawoid6nwaaqnjzba4xtrlfy89v0t,3w8cv64qj6cpr0amxjbowlrqftch9o,a1GqjMit,2020-0188,2020-05-21,11:10:24,11:25:13,NA,incomplete,111,number,1,right,Red_Triangle_Chess_3.jpg,Red_Plus_Dots_4.jpg,Purple_Circle_Grid_3.jpg,right,681.9899999536574,true,low,false
a1GqjMit,3eawoid6nwaaqnjzba4xtrlfy89v0t,3w8cv64qj6cpr0amxjbowlrqftch9o,a1GqjMit,2020-0188,2020-05-21,11:10:24,11:25:13,NA,incomplete,112,number,1,left,Red_Plus_Dots_4.jpg,Green_Circle_Stripes_4.jpg,Red_Triangle_Chess_3.jpg,left,709.6199999796227,true,low,false
a1GqjMit,3eawoid6nwaaqnjzba4xtrlfy89v0t,3w8cv64qj6cpr0amxjbowlrqftch9o,a1GqjMit,2020-0188,2020-05-21,11:10:24,11:25:13,NA,incomplete,113,number,1,left,Blue_Plus_Grid_1.jpg,Green_Star_Stripes_1.jpg,Blue_Triangle_Dots_4.jpg,left,974.7649999917485,true,low,false
a1GqjMit,3eawoid6nwaaqnjzba4xtrlfy89v0t,3w8cv64qj6cpr0amxjbowlrqftch9o,a1GqjMit,2020-0188,2020-05-21,11:10:24,11:25:13,NA,incomplete,114,number,1,left,Purple_Star_Stripes_1.jpg,Green_Triangle_Chess_1.jpg,Purple_Circle_Dots_2.jpg,left,596.300000033807,true,low,false
a1GqjMit,3eawoid6nwaaqnjzba4xtrlfy89v0t,3w8cv64qj6cpr0amxjbowlrqftch9o,a1GqjMit,2020-0188,2020-05-21,11:10:24,11:25:13,NA,incomplete,115,number,1,left,Green_Plus_Stripes_4.jpg,Blue_Triangle_Chess_4.jpg,Green_Star_Grid_1.jpg,left,635.3250000393018,true,low,false
a1GqjMit,3eawoid6nwaaqnjzba4xtrlfy89v0t,3w8cv64qj6cpr0amxjbowlrqftch9o,a1GqjMit,2020-0188,2020-05-21,11:10:24,11:25:13,NA,incomplete,116,number,1,right,Green_Plus_Dots_4.jpg,Green_Triangle_Stripes_2.jpg,Blue_Star_Grid_4.jpg,right,799.4549999712035,true,low,false
a1GqjMit,3eawoid6nwaaqnjzba4xtrlfy89v0t,3w8cv64qj6cpr0amxjbowlrqftch9o,a1GqjMit,2020-0188,2020-05-21,11:10:24,11:25:13,NA,incomplete,117,number,1,right,Green_Triangle_Dots_2.jpg,Green_Star_Grid_4.jpg,Purple_Plus_Stripes_2.jpg,right,705.6999999913387,true,low,false
a1GqjMit,3eawoid6nwaaqnjzba4xtrlfy89v0t,3w8cv64qj6cpr0amxjbowlrqftch9o,a1GqjMit,2020-0188,2020-05-21,11:10:24,11:25:13,NA,incomplete,118,number,1,right,Green_Star_Chess_3.jpg,Green_Circle_Grid_2.jpg,Red_Triangle_Stripes_3.jpg,right,650.7499999715947,true,low,false
a1GqjMit,3eawoid6nwaaqnjzba4xtrlfy89v0t,3w8cv64qj6cpr0amxjbowlrqftch9o,a1GqjMit,2020-0188,2020-05-21,11:10:24,11:25:13,NA,incomplete,119,number,1,right,Red_Triangle_Stripes_1.jpg,Red_Plus_Dots_4.jpg,Purple_Star_Grid_1.jpg,right,572.9949999949895,true,low,false
a1GqjMit,3eawoid6nwaaqnjzba4xtrlfy89v0t,3w8cv64qj6cpr0amxjbowlrqftch9o,a1GqjMit,2020-0188,2020-05-21,11:10:24,11:25:13,NA,incomplete,120,shape,1,right,Green_Circle_Grid_1.jpg,Purple_Plus_Grid_2.jpg,Blue_Circle_Dots_4.jpg,NA,NA,NA,low,false
a1GqjMit,3eawoid6nwaaqnjzba4xtrlfy89v0t,3w8cv64qj6cpr0amxjbowlrqftch9o,a1GqjMit,2020-0188,2020-05-21,11:10:24,11:25:13,NA,incomplete,121,shape,0,right,Blue_Star_Dots_4.jpg,Red_Circle_Dots_2.jpg,Green_Star_Chess_1.jpg,left,1341.744999983348,false,low,false
a1GqjMit,3eawoid6nwaaqnjzba4xtrlfy89v0t,3w8cv64qj6cpr0amxjbowlrqftch9o,a1GqjMit,2020-0188,2020-05-21,11:10:24,11:25:13,NA,incomplete,122,shape,1,left,Purple_Circle_Dots_2.jpg,Green_Circle_Stripes_4.jpg,Blue_Star_Dots_3.jpg,right,1003.8550000172108,false,low,false
a1GqjMit,3eawoid6nwaaqnjzba4xtrlfy89v0t,3w8cv64qj6cpr0amxjbowlrqftch9o,a1GqjMit,2020-0188,2020-05-21,11:10:24,11:25:13,NA,incomplete,123,shape,0,left,Green_Circle_Grid_3.jpg,Purple_Circle_Dots_1.jpg,Blue_Plus_Grid_2.jpg,left,928.4650000045076,true,low,false
a1GqjMit,3eawoid6nwaaqnjzba4xtrlfy89v0t,3w8cv64qj6cpr0amxjbowlrqftch9o,a1GqjMit,2020-0188,2020-05-21,11:10:24,11:25:13,NA,incomplete,124,shape,1,left,Green_Plus_Grid_2.jpg,Red_Plus_Dots_3.jpg,Blue_Star_Grid_4.jpg,right,1103.6199999507517,false,low,false
a1GqjMit,3eawoid6nwaaqnjzba4xtrlfy89v0t,3w8cv64qj6cpr0amxjbowlrqftch9o,a1GqjMit,2020-0188,2020-05-21,11:10:24,11:25:13,NA,incomplete,125,shape,1,left,Blue_Star_Grid_4.jpg,Purple_Star_Chess_1.jpg,Red_Triangle_Grid_2.jpg,right,1125.095000024885,false,low,false
a1GqjMit,3eawoid6nwaaqnjzba4xtrlfy89v0t,3w8cv64qj6cpr0amxjbowlrqftch9o,a1GqjMit,2020-0188,2020-05-21,11:10:24,11:25:13,NA,incomplete,126,shape,1,left,Red_Star_Grid_1.jpg,Blue_Star_Stripes_2.jpg,Green_Triangle_Grid_3.jpg,left,688.3850000449456,true,low,false
a1GqjMit,3eawoid6nwaaqnjzba4xtrlfy89v0t,3w8cv64qj6cpr0amxjbowlrqftch9o,a1GqjMit,2020-0188,2020-05-21,11:10:24,11:25:13,NA,incomplete,127,shape,1,left,Blue_Circle_Chess_3.jpg,Purple_Circle_Stripes_4.jpg,Red_Triangle_Chess_2.jpg,left,802.5900000357069,true,low,false
a1GqjMit,3eawoid6nwaaqnjzba4xtrlfy89v0t,3w8cv64qj6cpr0amxjbowlrqftch9o,a1GqjMit,2020-0188,2020-05-21,11:10:24,11:25:13,NA,incomplete,128,shape,1,left,Blue_Star_Grid_3.jpg,Red_Star_Dots_4.jpg,Purple_Circle_Grid_1.jpg,left,564.4949999987148,true,low,false
a1GqjMit,3eawoid6nwaaqnjzba4xtrlfy89v0t,3w8cv64qj6cpr0amxjbowlrqftch9o,a1GqjMit,2020-0188,2020-05-21,11:10:24,11:25:13,NA,incomplete,129,shape,1,left,Red_Triangle_Stripes_4.jpg,Purple_Triangle_Grid_3.jpg,Blue_Star_Stripes_2.jpg,left,602.805000031367,true,low,false
a1GqjMit,3eawoid6nwaaqnjzba4xtrlfy89v0t,3w8cv64qj6cpr0amxjbowlrqftch9o,a1GqjMit,2020-0188,2020-05-21,11:10:24,11:25:13,NA,incomplete,130,shape,1,right,Purple_Plus_Stripes_1.jpg,Red_Star_Stripes_4.jpg,Green_Plus_Dots_3.jpg,right,788.3849999634549,true,low,false
a1GqjMit,3eawoid6nwaaqnjzba4xtrlfy89v0t,3w8cv64qj6cpr0amxjbowlrqftch9o,a1GqjMit,2020-0188,2020-05-21,11:10:24,11:25:13,NA,incomplete,131,shape,1,left,Blue_Star_Chess_4.jpg,Purple_Star_Stripes_2.jpg,Green_Plus_Chess_1.jpg,left,653.9699999848381,true,low,false
a1GqjMit,3eawoid6nwaaqnjzba4xtrlfy89v0t,3w8cv64qj6cpr0amxjbowlrqftch9o,a1GqjMit,2020-0188,2020-05-21,11:10:24,11:25:13,NA,incomplete,132,shape,1,left,Red_Plus_Dots_4.jpg,Green_Plus_Grid_3.jpg,Blue_Star_Dots_2.jpg,left,726.5299999853596,true,low,false
a1GqjMit,3eawoid6nwaaqnjzba4xtrlfy89v0t,3w8cv64qj6cpr0amxjbowlrqftch9o,a1GqjMit,2020-0188,2020-05-21,11:10:24,11:25:13,NA,incomplete,133,shape,0,right,Red_Circle_Stripes_1.jpg,Purple_Triangle_Stripes_4.jpg,Blue_Circle_Dots_2.jpg,right,551.3749999809079,true,low,false
a1GqjMit,3eawoid6nwaaqnjzba4xtrlfy89v0t,3w8cv64qj6cpr0amxjbowlrqftch9o,a1GqjMit,2020-0188,2020-05-21,11:10:24,11:25:13,NA,incomplete,134,shape,1,left,Red_Star_Dots_4.jpg,Green_Star_Chess_1.jpg,Blue_Circle_Dots_2.jpg,left,604.4250000268221,true,low,false
a1GqjMit,3eawoid6nwaaqnjzba4xtrlfy89v0t,3w8cv64qj6cpr0amxjbowlrqftch9o,a1GqjMit,2020-0188,2020-05-21,11:10:24,11:25:13,NA,incomplete,135,shape,1,right,Green_Triangle_Chess_1.jpg,Red_Star_Chess_2.jpg,Blue_Triangle_Stripes_4.jpg,right,709.5599999884143,true,low,false
a1GqjMit,3eawoid6nwaaqnjzba4xtrlfy89v0t,3w8cv64qj6cpr0amxjbowlrqftch9o,a1GqjMit,2020-0188,2020-05-21,11:10:24,11:25:13,NA,incomplete,136,shape,1,left,Red_Plus_Dots_3.jpg,Purple_Plus_Stripes_2.jpg,Blue_Triangle_Dots_1.jpg,left,576.8299999763258,true,low,false
a1GqjMit,3eawoid6nwaaqnjzba4xtrlfy89v0t,3w8cv64qj6cpr0amxjbowlrqftch9o,a1GqjMit,2020-0188,2020-05-21,11:10:24,11:25:13,NA,incomplete,137,shape,1,left,Purple_Circle_Grid_4.jpg,Red_Circle_Stripes_3.jpg,Blue_Triangle_Grid_1.jpg,left,543.3399999747053,true,low,false
a1GqjMit,3eawoid6nwaaqnjzba4xtrlfy89v0t,3w8cv64qj6cpr0amxjbowlrqftch9o,a1GqjMit,2020-0188,2020-05-21,11:10:24,11:25:13,NA,incomplete,138,shape,1,left,Green_Circle_Grid_4.jpg,Purple_Circle_Dots_1.jpg,Red_Star_Grid_2.jpg,left,581.3150000176392,true,low,false
a1GqjMit,3eawoid6nwaaqnjzba4xtrlfy89v0t,3w8cv64qj6cpr0amxjbowlrqftch9o,a1GqjMit,2020-0188,2020-05-21,11:10:24,11:25:13,NA,incomplete,139,shape,1,left,Green_Triangle_Dots_2.jpg,Blue_Triangle_Chess_3.jpg,Purple_Plus_Dots_1.jpg,left,588.0100000067614,true,low,false
a1GqjMit,3eawoid6nwaaqnjzba4xtrlfy89v0t,3w8cv64qj6cpr0amxjbowlrqftch9o,a1GqjMit,2020-0188,2020-05-21,11:10:24,11:25:13,NA,incomplete,140,filling,1,right,Blue_Plus_Dots_1.jpg,Purple_Plus_Chess_2.jpg,Green_Star_Dots_4.jpg,left,557.6000000000931,false,low,false
a1GqjMit,3eawoid6nwaaqnjzba4xtrlfy89v0t,3w8cv64qj6cpr0amxjbowlrqftch9o,a1GqjMit,2020-0188,2020-05-21,11:10:24,11:25:13,NA,incomplete,141,filling,0,left,Green_Star_Stripes_1.jpg,Purple_Plus_Stripes_2.jpg,Red_Star_Grid_3.jpg,right,709.6299999975599,false,low,false
a1GqjMit,3eawoid6nwaaqnjzba4xtrlfy89v0t,3w8cv64qj6cpr0amxjbowlrqftch9o,a1GqjMit,2020-0188,2020-05-21,11:10:24,11:25:13,NA,incomplete,142,filling,1,left,Blue_Plus_Dots_4.jpg,Green_Star_Dots_2.jpg,Red_Plus_Grid_3.jpg,right,734.920000017155,false,low,false
a1GqjMit,3eawoid6nwaaqnjzba4xtrlfy89v0t,3w8cv64qj6cpr0amxjbowlrqftch9o,a1GqjMit,2020-0188,2020-05-21,11:10:24,11:25:13,NA,incomplete,143,filling,1,right,Blue_Star_Chess_1.jpg,Green_Star_Dots_3.jpg,Red_Plus_Chess_4.jpg,left,612.4249999993481,false,low,false
a1GqjMit,3eawoid6nwaaqnjzba4xtrlfy89v0t,3w8cv64qj6cpr0amxjbowlrqftch9o,a1GqjMit,2020-0188,2020-05-21,11:10:24,11:25:13,NA,incomplete,144,filling,0,left,Purple_Plus_Dots_2.jpg,Red_Star_Dots_4.jpg,Blue_Plus_Chess_3.jpg,right,737.8299999982119,false,low,false
a1GqjMit,3eawoid6nwaaqnjzba4xtrlfy89v0t,3w8cv64qj6cpr0amxjbowlrqftch9o,a1GqjMit,2020-0188,2020-05-21,11:10:24,11:25:13,NA,incomplete,145,filling,1,left,Green_Plus_Chess_4.jpg,Blue_Circle_Chess_2.jpg,Red_Plus_Dots_3.jpg,right,750.5499999970198,false,low,false
a1GqjMit,3eawoid6nwaaqnjzba4xtrlfy89v0t,3w8cv64qj6cpr0amxjbowlrqftch9o,a1GqjMit,2020-0188,2020-05-21,11:10:24,11:25:13,NA,incomplete,146,filling,1,right,Green_Triangle_Dots_2.jpg,Blue_Triangle_Stripes_4.jpg,Purple_Star_Dots_1.jpg,left,606.8499999819323,false,low,false
a1GqjMit,3eawoid6nwaaqnjzba4xtrlfy89v0t,3w8cv64qj6cpr0amxjbowlrqftch9o,a1GqjMit,2020-0188,2020-05-21,11:10:24,11:25:13,NA,incomplete,147,filling,1,right,Red_Star_Dots_4.jpg,Green_Star_Chess_2.jpg,Purple_Plus_Dots_1.jpg,left,732.0700000273064,false,low,false
a1GqjMit,3eawoid6nwaaqnjzba4xtrlfy89v0t,3w8cv64qj6cpr0amxjbowlrqftch9o,a1GqjMit,2020-0188,2020-05-21,11:10:24,11:25:13,NA,incomplete,148,filling,1,left,Purple_Star_Chess_1.jpg,Red_Circle_Chess_2.jpg,Blue_Star_Grid_4.jpg,left,1270.5249999999069,true,low,false
a1GqjMit,3eawoid6nwaaqnjzba4xtrlfy89v0t,3w8cv64qj6cpr0amxjbowlrqftch9o,a1GqjMit,2020-0188,2020-05-21,11:10:24,11:25:13,NA,incomplete,149,filling,0,right,Red_Triangle_Dots_4.jpg,Purple_Triangle_Grid_1.jpg,Green_Star_Dots_2.jpg,right,987.1399999829009,true,low,false
a1GqjMit,3eawoid6nwaaqnjzba4xtrlfy89v0t,3w8cv64qj6cpr0amxjbowlrqftch9o,a1GqjMit,2020-0188,2020-05-21,11:10:24,11:25:13,NA,incomplete,150,filling,1,right,Purple_Circle_Dots_2.jpg,Green_Circle_Chess_4.jpg,Blue_Plus_Dots_3.jpg,right,954.7749999910593,true,low,false
a1GqjMit,3eawoid6nwaaqnjzba4xtrlfy89v0t,3w8cv64qj6cpr0amxjbowlrqftch9o,a1GqjMit,2020-0188,2020-05-21,11:10:24,11:25:13,NA,incomplete,151,filling,1,right,Purple_Circle_Stripes_1.jpg,Red_Circle_Dots_3.jpg,Blue_Star_Stripes_2.jpg,right,944.0249999752268,true,low,false
a1GqjMit,3eawoid6nwaaqnjzba4xtrlfy89v0t,3w8cv64qj6cpr0amxjbowlrqftch9o,a1GqjMit,2020-0188,2020-05-21,11:10:24,11:25:13,NA,incomplete,152,filling,1,left,Blue_Plus_Stripes_3.jpg,Red_Star_Stripes_2.jpg,Purple_Plus_Chess_4.jpg,left,988.8500000233762,true,low,false
a1GqjMit,3eawoid6nwaaqnjzba4xtrlfy89v0t,3w8cv64qj6cpr0amxjbowlrqftch9o,a1GqjMit,2020-0188,2020-05-21,11:10:24,11:25:13,NA,incomplete,153,filling,0,left,Red_Plus_Chess_1.jpg,Green_Triangle_Chess_2.jpg,Blue_Plus_Dots_4.jpg,left,909.6799999824725,true,low,false
a1GqjMit,3eawoid6nwaaqnjzba4xtrlfy89v0t,3w8cv64qj6cpr0amxjbowlrqftch9o,a1GqjMit,2020-0188,2020-05-21,11:10:24,11:25:13,NA,incomplete,154,filling,1,left,Red_Circle_Grid_2.jpg,Blue_Triangle_Grid_3.jpg,Green_Circle_Chess_1.jpg,left,971.8599999905564,true,low,false
a1GqjMit,3eawoid6nwaaqnjzba4xtrlfy89v0t,3w8cv64qj6cpr0amxjbowlrqftch9o,a1GqjMit,2020-0188,2020-05-21,11:10:24,11:25:13,NA,incomplete,155,filling,1,right,Blue_Circle_Grid_4.jpg,Red_Circle_Chess_2.jpg,Purple_Plus_Grid_3.jpg,right,826.9300000392832,true,low,false
a1GqjMit,3eawoid6nwaaqnjzba4xtrlfy89v0t,3w8cv64qj6cpr0amxjbowlrqftch9o,a1GqjMit,2020-0188,2020-05-21,11:10:24,11:25:13,NA,incomplete,156,filling,1,right,Blue_Circle_Stripes_4.jpg,Green_Circle_Dots_1.jpg,Red_Star_Stripes_3.jpg,right,950.185000023339,true,low,false
a1GqjMit,3eawoid6nwaaqnjzba4xtrlfy89v0t,3w8cv64qj6cpr0amxjbowlrqftch9o,a1GqjMit,2020-0188,2020-05-21,11:10:24,11:25:13,NA,incomplete,157,filling,1,right,Blue_Circle_Stripes_4.jpg,Green_Circle_Chess_1.jpg,Red_Triangle_Stripes_2.jpg,right,780.0200000056066,true,low,false
a1GqjMit,3eawoid6nwaaqnjzba4xtrlfy89v0t,3w8cv64qj6cpr0amxjbowlrqftch9o,a1GqjMit,2020-0188,2020-05-21,11:10:24,11:25:13,NA,incomplete,158,filling,1,left,Purple_Plus_Chess_2.jpg,Red_Triangle_Chess_4.jpg,Blue_Plus_Stripes_3.jpg,left,826.0049999807961,true,low,false
a1GqjMit,3eawoid6nwaaqnjzba4xtrlfy89v0t,3w8cv64qj6cpr0amxjbowlrqftch9o,a1GqjMit,2020-0188,2020-05-21,11:10:24,11:25:13,NA,incomplete,159,filling,1,right,Red_Circle_Dots_2.jpg,Blue_Circle_Grid_3.jpg,Green_Plus_Dots_4.jpg,right,837.3799999826588,true,low,false
a1GqjMit,3eawoid6nwaaqnjzba4xtrlfy89v0t,3w8cv64qj6cpr0amxjbowlrqftch9o,a1GqjMit,2020-0188,2020-05-21,11:10:24,11:25:13,NA,incomplete,160,shape,1,right,Blue_Triangle_Grid_4.jpg,Red_Plus_Grid_3.jpg,Green_Triangle_Chess_1.jpg,left,881.8200000096112,false,low,false
a1GqjMit,3eawoid6nwaaqnjzba4xtrlfy89v0t,3w8cv64qj6cpr0amxjbowlrqftch9o,a1GqjMit,2020-0188,2020-05-21,11:10:24,11:25:13,NA,incomplete,161,shape,1,right,Blue_Plus_Dots_2.jpg,Red_Triangle_Dots_3.jpg,Green_Plus_Chess_1.jpg,left,778.9349999511614,false,low,false
a1GqjMit,3eawoid6nwaaqnjzba4xtrlfy89v0t,3w8cv64qj6cpr0amxjbowlrqftch9o,a1GqjMit,2020-0188,2020-05-21,11:10:24,11:25:13,NA,incomplete,162,shape,1,right,Purple_Triangle_Stripes_3.jpg,Red_Circle_Stripes_1.jpg,Green_Triangle_Chess_2.jpg,left,1194.9700000113808,false,low,false
a1GqjMit,3eawoid6nwaaqnjzba4xtrlfy89v0t,3w8cv64qj6cpr0amxjbowlrqftch9o,a1GqjMit,2020-0188,2020-05-21,11:10:24,11:25:13,NA,incomplete,163,shape,1,right,Green_Triangle_Grid_2.jpg,Purple_Plus_Grid_1.jpg,Blue_Triangle_Chess_3.jpg,right,995.6349999993108,true,low,false
a1GqjMit,3eawoid6nwaaqnjzba4xtrlfy89v0t,3w8cv64qj6cpr0amxjbowlrqftch9o,a1GqjMit,2020-0188,2020-05-21,11:10:24,11:25:13,NA,incomplete,164,shape,1,left,Red_Triangle_Chess_2.jpg,Green_Triangle_Stripes_4.jpg,Blue_Star_Chess_1.jpg,left,577.385000011418,true,low,false
a1GqjMit,3eawoid6nwaaqnjzba4xtrlfy89v0t,3w8cv64qj6cpr0amxjbowlrqftch9o,a1GqjMit,2020-0188,2020-05-21,11:10:24,11:25:13,NA,incomplete,165,shape,1,left,Blue_Plus_Stripes_4.jpg,Red_Plus_Chess_1.jpg,Purple_Circle_Stripes_3.jpg,left,617.180000001099,true,low,false
a1GqjMit,3eawoid6nwaaqnjzba4xtrlfy89v0t,3w8cv64qj6cpr0amxjbowlrqftch9o,a1GqjMit,2020-0188,2020-05-21,11:10:24,11:25:13,NA,incomplete,166,shape,0,left,Red_Plus_Stripes_4.jpg,Purple_Plus_Chess_1.jpg,Green_Circle_Stripes_3.jpg,left,1162.5399999902584,true,low,false
a1GqjMit,3eawoid6nwaaqnjzba4xtrlfy89v0t,3w8cv64qj6cpr0amxjbowlrqftch9o,a1GqjMit,2020-0188,2020-05-21,11:10:24,11:25:13,NA,incomplete,167,shape,1,left,Green_Plus_Stripes_3.jpg,Purple_Plus_Chess_4.jpg,Red_Triangle_Stripes_2.jpg,left,696.8399999896064,true,low,false
a1GqjMit,3eawoid6nwaaqnjzba4xtrlfy89v0t,3w8cv64qj6cpr0amxjbowlrqftch9o,a1GqjMit,2020-0188,2020-05-21,11:10:24,11:25:13,NA,incomplete,168,shape,1,left,Blue_Circle_Stripes_2.jpg,Red_Circle_Dots_3.jpg,Green_Triangle_Stripes_4.jpg,left,529.8750000074506,true,low,false
a1GqjMit,3eawoid6nwaaqnjzba4xtrlfy89v0t,3w8cv64qj6cpr0amxjbowlrqftch9o,a1GqjMit,2020-0188,2020-05-21,11:10:24,11:25:13,NA,incomplete,169,shape,1,left,Green_Star_Grid_1.jpg,Red_Star_Chess_3.jpg,Blue_Triangle_Grid_2.jpg,left,576.6650000005029,true,low,false
a1GqjMit,3eawoid6nwaaqnjzba4xtrlfy89v0t,3w8cv64qj6cpr0amxjbowlrqftch9o,a1GqjMit,2020-0188,2020-05-21,11:10:24,11:25:13,NA,incomplete,170,shape,1,left,Purple_Triangle_Grid_3.jpg,Green_Triangle_Stripes_1.jpg,Red_Circle_Grid_4.jpg,left,624.4000000297092,true,low,false
a1GqjMit,3eawoid6nwaaqnjzba4xtrlfy89v0t,3w8cv64qj6cpr0amxjbowlrqftch9o,a1GqjMit,2020-0188,2020-05-21,11:10:24,11:25:13,NA,incomplete,171,shape,1,right,Green_Circle_Dots_3.jpg,Purple_Triangle_Dots_1.jpg,Red_Circle_Grid_4.jpg,right,634.4650000100955,true,low,false
a1GqjMit,3eawoid6nwaaqnjzba4xtrlfy89v0t,3w8cv64qj6cpr0amxjbowlrqftch9o,a1GqjMit,2020-0188,2020-05-21,11:10:24,11:25:13,NA,incomplete,172,shape,1,left,Purple_Plus_Dots_2.jpg,Blue_Plus_Stripes_3.jpg,Red_Circle_Dots_4.jpg,left,504.8749999841675,true,low,false
a1GqjMit,3eawoid6nwaaqnjzba4xtrlfy89v0t,3w8cv64qj6cpr0amxjbowlrqftch9o,a1GqjMit,2020-0188,2020-05-21,11:10:24,11:25:13,NA,incomplete,173,shape,1,right,Blue_Circle_Chess_3.jpg,Green_Star_Chess_2.jpg,Purple_Circle_Grid_1.jpg,right,525.6550000049174,true,low,false
a1GqjMit,3eawoid6nwaaqnjzba4xtrlfy89v0t,3w8cv64qj6cpr0amxjbowlrqftch9o,a1GqjMit,2020-0188,2020-05-21,11:10:24,11:25:13,NA,incomplete,174,shape,1,right,Green_Triangle_Dots_3.jpg,Red_Star_Dots_4.jpg,Blue_Triangle_Grid_1.jpg,right,573.465000023134,true,low,false
a1GqjMit,3eawoid6nwaaqnjzba4xtrlfy89v0t,3w8cv64qj6cpr0amxjbowlrqftch9o,a1GqjMit,2020-0188,2020-05-21,11:10:24,11:25:13,NA,incomplete,175,shape,0,left,Green_Star_Chess_1.jpg,Red_Star_Dots_3.jpg,Blue_Plus_Chess_4.jpg,left,542.7050000289455,true,low,false
a1GqjMit,3eawoid6nwaaqnjzba4xtrlfy89v0t,3w8cv64qj6cpr0amxjbowlrqftch9o,a1GqjMit,2020-0188,2020-05-21,11:10:24,11:25:13,NA,incomplete,176,shape,1,left,Green_Star_Dots_1.jpg,Blue_Star_Stripes_3.jpg,Red_Circle_Dots_4.jpg,left,490.86999997962266,true,low,false
a1GqjMit,3eawoid6nwaaqnjzba4xtrlfy89v0t,3w8cv64qj6cpr0amxjbowlrqftch9o,a1GqjMit,2020-0188,2020-05-21,11:10:24,11:25:13,NA,incomplete,177,shape,1,left,Green_Star_Chess_1.jpg,Blue_Star_Dots_2.jpg,Red_Circle_Chess_4.jpg,left,600.5700000096112,true,low,false
a1GqjMit,3eawoid6nwaaqnjzba4xtrlfy89v0t,3w8cv64qj6cpr0amxjbowlrqftch9o,a1GqjMit,2020-0188,2020-05-21,11:10:24,11:25:13,NA,incomplete,178,shape,1,left,Green_Star_Chess_1.jpg,Blue_Star_Grid_4.jpg,Purple_Plus_Chess_3.jpg,left,432.0200000074692,true,low,false
a1GqjMit,3eawoid6nwaaqnjzba4xtrlfy89v0t,3w8cv64qj6cpr0amxjbowlrqftch9o,a1GqjMit,2020-0188,2020-05-21,11:10:24,11:25:13,NA,incomplete,179,shape,0,left,Blue_Star_Chess_4.jpg,Red_Star_Dots_3.jpg,Green_Circle_Chess_2.jpg,left,451.31999999284744,true,low,false
a1GqjMit,3eawoid6nwaaqnjzba4xtrlfy89v0t,3w8cv64qj6cpr0amxjbowlrqftch9o,a1GqjMit,2020-0188,2020-05-21,11:10:24,11:25:13,NA,incomplete,180,filling,1,left,Green_Triangle_Grid_2.jpg,Purple_Circle_Grid_3.jpg,Blue_Triangle_Dots_4.jpg,right,647.6249999832362,false,low,false
a1GqjMit,3eawoid6nwaaqnjzba4xtrlfy89v0t,3w8cv64qj6cpr0amxjbowlrqftch9o,a1GqjMit,2020-0188,2020-05-21,11:10:24,11:25:13,NA,incomplete,181,filling,1,left,Blue_Plus_Grid_1.jpg,Red_Circle_Grid_2.jpg,Purple_Plus_Chess_4.jpg,right,704.9899999983609,false,low,false
a1GqjMit,3eawoid6nwaaqnjzba4xtrlfy89v0t,3w8cv64qj6cpr0amxjbowlrqftch9o,a1GqjMit,2020-0188,2020-05-21,11:10:24,11:25:13,NA,incomplete,182,filling,1,right,Green_Circle_Dots_2.jpg,Red_Circle_Chess_3.jpg,Blue_Triangle_Dots_4.jpg,right,825.9349999716505,true,low,false
a1GqjMit,3eawoid6nwaaqnjzba4xtrlfy89v0t,3w8cv64qj6cpr0amxjbowlrqftch9o,a1GqjMit,2020-0188,2020-05-21,11:10:24,11:25:13,NA,incomplete,183,filling,0,left,Purple_Star_Grid_1.jpg,Green_Plus_Grid_2.jpg,Red_Star_Stripes_4.jpg,left,868.5950000071898,true,low,false
a1GqjMit,3eawoid6nwaaqnjzba4xtrlfy89v0t,3w8cv64qj6cpr0amxjbowlrqftch9o,a1GqjMit,2020-0188,2020-05-21,11:10:24,11:25:13,NA,incomplete,184,filling,1,right,Red_Star_Stripes_3.jpg,Purple_Star_Chess_4.jpg,Green_Circle_Stripes_2.jpg,right,1000.7000000332482,true,low,false
a1GqjMit,3eawoid6nwaaqnjzba4xtrlfy89v0t,3w8cv64qj6cpr0amxjbowlrqftch9o,a1GqjMit,2020-0188,2020-05-21,11:10:24,11:25:13,NA,incomplete,185,filling,1,left,Purple_Plus_Chess_1.jpg,Red_Star_Chess_2.jpg,Blue_Plus_Stripes_3.jpg,left,856.8749999976717,true,low,false
a1GqjMit,3eawoid6nwaaqnjzba4xtrlfy89v0t,3w8cv64qj6cpr0amxjbowlrqftch9o,a1GqjMit,2020-0188,2020-05-21,11:10:24,11:25:13,NA,incomplete,186,filling,1,right,Blue_Triangle_Dots_2.jpg,Purple_Triangle_Chess_3.jpg,Green_Circle_Dots_1.jpg,right,905.3249999997206,true,low,false
a1GqjMit,3eawoid6nwaaqnjzba4xtrlfy89v0t,3w8cv64qj6cpr0amxjbowlrqftch9o,a1GqjMit,2020-0188,2020-05-21,11:10:24,11:25:13,NA,incomplete,187,filling,1,left,Blue_Triangle_Chess_4.jpg,Red_Star_Chess_3.jpg,Green_Triangle_Grid_1.jpg,left,837.8999999840744,true,low,false
a1GqjMit,3eawoid6nwaaqnjzba4xtrlfy89v0t,3w8cv64qj6cpr0amxjbowlrqftch9o,a1GqjMit,2020-0188,2020-05-21,11:10:24,11:25:13,NA,incomplete,188,filling,1,right,Blue_Star_Stripes_3.jpg,Purple_Star_Chess_1.jpg,Red_Triangle_Stripes_4.jpg,right,1166.7649999726564,true,low,false
a1GqjMit,3eawoid6nwaaqnjzba4xtrlfy89v0t,3w8cv64qj6cpr0amxjbowlrqftch9o,a1GqjMit,2020-0188,2020-05-21,11:10:24,11:25:13,NA,incomplete,189,filling,0,left,Red_Star_Dots_1.jpg,Green_Triangle_Dots_4.jpg,Blue_Star_Chess_3.jpg,left,871.5049999882467,true,low,false
a1GqjMit,3eawoid6nwaaqnjzba4xtrlfy89v0t,3w8cv64qj6cpr0amxjbowlrqftch9o,a1GqjMit,2020-0188,2020-05-21,11:10:24,11:25:13,NA,incomplete,190,filling,1,right,Blue_Triangle_Chess_1.jpg,Red_Triangle_Stripes_2.jpg,Purple_Star_Chess_4.jpg,right,795.090000028722,true,low,false
a1GqjMit,3eawoid6nwaaqnjzba4xtrlfy89v0t,3w8cv64qj6cpr0amxjbowlrqftch9o,a1GqjMit,2020-0188,2020-05-21,11:10:24,11:25:13,NA,incomplete,191,filling,1,left,Blue_Triangle_Dots_3.jpg,Green_Plus_Dots_4.jpg,Purple_Triangle_Grid_2.jpg,left,773.2499999692664,true,low,false
a1GqjMit,3eawoid6nwaaqnjzba4xtrlfy89v0t,3w8cv64qj6cpr0amxjbowlrqftch9o,a1GqjMit,2020-0188,2020-05-21,11:10:24,11:25:13,NA,incomplete,192,filling,1,right,Red_Circle_Stripes_4.jpg,Purple_Circle_Chess_2.jpg,Green_Star_Stripes_3.jpg,right,818.6749999877065,true,low,false
a1GqjMit,3eawoid6nwaaqnjzba4xtrlfy89v0t,3w8cv64qj6cpr0amxjbowlrqftch9o,a1GqjMit,2020-0188,2020-05-21,11:10:24,11:25:13,NA,incomplete,193,filling,1,left,Green_Triangle_Grid_2.jpg,Blue_Circle_Grid_1.jpg,Red_Triangle_Stripes_3.jpg,left,975.7450000033714,true,low,false
a1GqjMit,3eawoid6nwaaqnjzba4xtrlfy89v0t,3w8cv64qj6cpr0amxjbowlrqftch9o,a1GqjMit,2020-0188,2020-05-21,11:10:24,11:25:13,NA,incomplete,194,filling,0,right,Purple_Circle_Grid_4.jpg,Blue_Circle_Chess_1.jpg,Green_Plus_Grid_2.jpg,right,782.5750000192784,true,low,false
a1GqjMit,3eawoid6nwaaqnjzba4xtrlfy89v0t,3w8cv64qj6cpr0amxjbowlrqftch9o,a1GqjMit,2020-0188,2020-05-21,11:10:24,11:25:13,NA,incomplete,195,filling,1,right,Red_Star_Dots_3.jpg,Blue_Star_Chess_4.jpg,Green_Triangle_Dots_1.jpg,right,950.734999962151,true,low,false
a1GqjMit,3eawoid6nwaaqnjzba4xtrlfy89v0t,3w8cv64qj6cpr0amxjbowlrqftch9o,a1GqjMit,2020-0188,2020-05-21,11:10:24,11:25:13,NA,incomplete,196,filling,1,right,Blue_Circle_Grid_1.jpg,Green_Circle_Chess_3.jpg,Purple_Plus_Grid_4.jpg,right,1554.535000002943,true,low,false
a1GqjMit,3eawoid6nwaaqnjzba4xtrlfy89v0t,3w8cv64qj6cpr0amxjbowlrqftch9o,a1GqjMit,2020-0188,2020-05-21,11:10:24,11:25:13,NA,incomplete,197,filling,1,left,Purple_Circle_Grid_3.jpg,Blue_Star_Grid_4.jpg,Green_Circle_Stripes_1.jpg,right,742.8599999984726,false,low,false
a1GqjMit,3eawoid6nwaaqnjzba4xtrlfy89v0t,3w8cv64qj6cpr0amxjbowlrqftch9o,a1GqjMit,2020-0188,2020-05-21,11:10:24,11:25:13,NA,incomplete,198,filling,1,left,Purple_Star_Stripes_2.jpg,Red_Plus_Stripes_3.jpg,Blue_Star_Grid_1.jpg,left,974.0749999764375,true,low,false
a1GqjMit,3eawoid6nwaaqnjzba4xtrlfy89v0t,3w8cv64qj6cpr0amxjbowlrqftch9o,a1GqjMit,2020-0188,2020-05-21,11:10:24,11:25:13,NA,incomplete,199,filling,1,right,Purple_Plus_Chess_3.jpg,Green_Plus_Grid_4.jpg,Red_Circle_Chess_2.jpg,right,883.4899999783374,true,low,false
a1GqjMit,3eawoid6nwaaqnjzba4xtrlfy89v0t,3w8cv64qj6cpr0amxjbowlrqftch9o,a1GqjMit,2020-0188,2020-05-21,11:10:24,11:25:13,NA,incomplete,200,shape,1,right,Blue_Triangle_Dots_3.jpg,Red_Plus_Dots_4.jpg,Green_Triangle_Stripes_1.jpg,left,804.8400000552647,false,low,false
a1GqjMit,3eawoid6nwaaqnjzba4xtrlfy89v0t,3w8cv64qj6cpr0amxjbowlrqftch9o,a1GqjMit,2020-0188,2020-05-21,11:10:24,11:25:13,NA,incomplete,201,shape,1,right,Purple_Circle_Dots_4.jpg,Red_Star_Dots_3.jpg,Green_Circle_Grid_1.jpg,left,888.024999992922,false,low,false
a1GqjMit,3eawoid6nwaaqnjzba4xtrlfy89v0t,3w8cv64qj6cpr0amxjbowlrqftch9o,a1GqjMit,2020-0188,2020-05-21,11:10:24,11:25:13,NA,incomplete,202,shape,0,left,Green_Circle_Stripes_1.jpg,Red_Circle_Chess_4.jpg,Blue_Plus_Stripes_3.jpg,left,993.6900000320747,true,low,false
a1GqjMit,3eawoid6nwaaqnjzba4xtrlfy89v0t,3w8cv64qj6cpr0amxjbowlrqftch9o,a1GqjMit,2020-0188,2020-05-21,11:10:24,11:25:13,NA,incomplete,203,shape,1,right,Green_Circle_Stripes_1.jpg,Blue_Triangle_Stripes_4.jpg,Red_Circle_Dots_3.jpg,left,990.0800000177696,false,low,false
a1GqjMit,3eawoid6nwaaqnjzba4xtrlfy89v0t,3w8cv64qj6cpr0amxjbowlrqftch9o,a1GqjMit,2020-0188,2020-05-21,11:10:24,11:25:13,NA,incomplete,204,shape,0,left,Blue_Triangle_Dots_2.jpg,Purple_Triangle_Stripes_4.jpg,Red_Circle_Dots_3.jpg,left,1109.1850000084378,true,low,false
a1GqjMit,3eawoid6nwaaqnjzba4xtrlfy89v0t,3w8cv64qj6cpr0amxjbowlrqftch9o,a1GqjMit,2020-0188,2020-05-21,11:10:24,11:25:13,NA,incomplete,205,shape,1,right,Blue_Star_Dots_1.jpg,Red_Circle_Dots_2.jpg,Purple_Star_Chess_4.jpg,left,1157.535000005737,false,low,false
a1GqjMit,3eawoid6nwaaqnjzba4xtrlfy89v0t,3w8cv64qj6cpr0amxjbowlrqftch9o,a1GqjMit,2020-0188,2020-05-21,11:10:24,11:25:13,NA,incomplete,206,shape,1,right,Green_Circle_Chess_2.jpg,Purple_Plus_Chess_3.jpg,Red_Circle_Dots_1.jpg,right,946.4599999482743,true,low,false
a1GqjMit,3eawoid6nwaaqnjzba4xtrlfy89v0t,3w8cv64qj6cpr0amxjbowlrqftch9o,a1GqjMit,2020-0188,2020-05-21,11:10:24,11:25:13,NA,incomplete,207,shape,0,left,Red_Star_Stripes_1.jpg,Purple_Star_Grid_3.jpg,Blue_Triangle_Stripes_4.jpg,left,784.0100000030361,true,low,false
a1GqjMit,3eawoid6nwaaqnjzba4xtrlfy89v0t,3w8cv64qj6cpr0amxjbowlrqftch9o,a1GqjMit,2020-0188,2020-05-21,11:10:24,11:25:13,NA,incomplete,208,shape,1,left,Blue_Triangle_Grid_3.jpg,Green_Triangle_Dots_4.jpg,Red_Circle_Grid_1.jpg,left,701.6650000005029,true,low,false
a1GqjMit,3eawoid6nwaaqnjzba4xtrlfy89v0t,3w8cv64qj6cpr0amxjbowlrqftch9o,a1GqjMit,2020-0188,2020-05-21,11:10:24,11:25:13,NA,incomplete,209,shape,1,right,Green_Circle_Stripes_4.jpg,Purple_Triangle_Stripes_2.jpg,Blue_Circle_Dots_3.jpg,right,593.9149999758229,true,low,false
a1GqjMit,3eawoid6nwaaqnjzba4xtrlfy89v0t,3w8cv64qj6cpr0amxjbowlrqftch9o,a1GqjMit,2020-0188,2020-05-21,11:10:24,11:25:13,NA,incomplete,210,shape,0,left,Blue_Triangle_Chess_4.jpg,Green_Triangle_Dots_1.jpg,Purple_Plus_Chess_2.jpg,left,508.44500004313886,true,low,false
a1GqjMit,3eawoid6nwaaqnjzba4xtrlfy89v0t,3w8cv64qj6cpr0amxjbowlrqftch9o,a1GqjMit,2020-0188,2020-05-21,11:10:24,11:25:13,NA,incomplete,211,shape,1,right,Red_Plus_Stripes_2.jpg,Purple_Circle_Stripes_4.jpg,Blue_Plus_Chess_1.jpg,right,749.1750000044703,true,low,false
a1GqjMit,3eawoid6nwaaqnjzba4xtrlfy89v0t,3w8cv64qj6cpr0amxjbowlrqftch9o,a1GqjMit,2020-0188,2020-05-21,11:10:24,11:25:13,NA,incomplete,212,shape,1,right,Green_Circle_Stripes_4.jpg,Purple_Triangle_Stripes_3.jpg,Blue_Circle_Chess_1.jpg,right,577.8099999879487,true,low,false
a1GqjMit,3eawoid6nwaaqnjzba4xtrlfy89v0t,3w8cv64qj6cpr0amxjbowlrqftch9o,a1GqjMit,2020-0188,2020-05-21,11:10:24,11:25:13,NA,incomplete,213,shape,1,right,Purple_Star_Stripes_2.jpg,Blue_Circle_Stripes_3.jpg,Red_Star_Grid_1.jpg,right,662.9000000539236,true,low,false
a1GqjMit,3eawoid6nwaaqnjzba4xtrlfy89v0t,3w8cv64qj6cpr0amxjbowlrqftch9o,a1GqjMit,2020-0188,2020-05-21,11:10:24,11:25:13,NA,incomplete,214,shape,1,right,Green_Circle_Grid_1.jpg,Purple_Triangle_Grid_3.jpg,Red_Circle_Chess_2.jpg,right,563.144999963697,true,low,false
a1GqjMit,3eawoid6nwaaqnjzba4xtrlfy89v0t,3w8cv64qj6cpr0amxjbowlrqftch9o,a1GqjMit,2020-0188,2020-05-21,11:10:24,11:25:13,NA,incomplete,215,shape,1,right,Blue_Plus_Stripes_1.jpg,Purple_Star_Stripes_3.jpg,Red_Plus_Grid_4.jpg,right,623.1699999771081,true,low,false
a1GqjMit,3eawoid6nwaaqnjzba4xtrlfy89v0t,3w8cv64qj6cpr0amxjbowlrqftch9o,a1GqjMit,2020-0188,2020-05-21,11:10:24,11:25:13,NA,incomplete,216,shape,1,left,Green_Triangle_Chess_4.jpg,Blue_Triangle_Dots_2.jpg,Red_Plus_Chess_1.jpg,left,506.16500002797693,true,low,false
a1GqjMit,3eawoid6nwaaqnjzba4xtrlfy89v0t,3w8cv64qj6cpr0amxjbowlrqftch9o,a1GqjMit,2020-0188,2020-05-21,11:10:24,11:25:13,NA,incomplete,217,shape,1,right,Green_Triangle_Grid_2.jpg,Purple_Star_Grid_3.jpg,Red_Triangle_Stripes_4.jpg,right,523.3299999963492,true,low,false
a1GqjMit,3eawoid6nwaaqnjzba4xtrlfy89v0t,3w8cv64qj6cpr0amxjbowlrqftch9o,a1GqjMit,2020-0188,2020-05-21,11:10:24,11:25:13,NA,incomplete,218,shape,1,left,Purple_Plus_Chess_4.jpg,Blue_Plus_Dots_3.jpg,Green_Triangle_Chess_1.jpg,left,755.3949999855831,true,low,false
a1GqjMit,3eawoid6nwaaqnjzba4xtrlfy89v0t,3w8cv64qj6cpr0amxjbowlrqftch9o,a1GqjMit,2020-0188,2020-05-21,11:10:24,11:25:13,NA,incomplete,219,shape,1,left,Red_Plus_Grid_4.jpg,Green_Plus_Stripes_1.jpg,Purple_Triangle_Grid_2.jpg,left,658.9899999671616,true,low,false
a1GqjMit,3eawoid6nwaaqnjzba4xtrlfy89v0t,3w8cv64qj6cpr0amxjbowlrqftch9o,a1GqjMit,2020-0188,2020-05-21,11:10:24,11:25:13,NA,incomplete,220,filling,0,right,Green_Plus_Stripes_4.jpg,Blue_Plus_Dots_2.jpg,Red_Circle_Stripes_1.jpg,left,435.37999998079613,false,low,false
a1GqjMit,3eawoid6nwaaqnjzba4xtrlfy89v0t,3w8cv64qj6cpr0amxjbowlrqftch9o,a1GqjMit,2020-0188,2020-05-21,11:10:24,11:25:13,NA,incomplete,221,filling,1,right,Green_Circle_Stripes_3.jpg,Blue_Circle_Chess_1.jpg,Purple_Triangle_Stripes_2.jpg,left,552.0300000207499,false,low,false
a1GqjMit,3eawoid6nwaaqnjzba4xtrlfy89v0t,3w8cv64qj6cpr0amxjbowlrqftch9o,a1GqjMit,2020-0188,2020-05-21,11:10:24,11:25:13,NA,incomplete,222,filling,1,left,Red_Star_Dots_3.jpg,Blue_Triangle_Dots_1.jpg,Green_Star_Stripes_2.jpg,right,581.1150000081398,false,low,false
a1GqjMit,3eawoid6nwaaqnjzba4xtrlfy89v0t,3w8cv64qj6cpr0amxjbowlrqftch9o,a1GqjMit,2020-0188,2020-05-21,11:10:24,11:25:13,NA,incomplete,223,filling,0,left,Blue_Triangle_Dots_4.jpg,Red_Circle_Dots_2.jpg,Green_Triangle_Chess_3.jpg,right,890.4399999883026,false,low,false
a1GqjMit,3eawoid6nwaaqnjzba4xtrlfy89v0t,3w8cv64qj6cpr0amxjbowlrqftch9o,a1GqjMit,2020-0188,2020-05-21,11:10:24,11:25:13,NA,incomplete,224,filling,1,left,Red_Plus_Dots_1.jpg,Purple_Star_Dots_4.jpg,Green_Plus_Grid_2.jpg,right,652.0700000110082,false,low,false
a1GqjMit,3eawoid6nwaaqnjzba4xtrlfy89v0t,3w8cv64qj6cpr0amxjbowlrqftch9o,a1GqjMit,2020-0188,2020-05-21,11:10:24,11:25:13,NA,incomplete,225,filling,1,left,Blue_Triangle_Grid_4.jpg,Red_Circle_Grid_1.jpg,Green_Triangle_Chess_3.jpg,left,894.1650000051595,true,low,false
a1GqjMit,3eawoid6nwaaqnjzba4xtrlfy89v0t,3w8cv64qj6cpr0amxjbowlrqftch9o,a1GqjMit,2020-0188,2020-05-21,11:10:24,11:25:13,NA,incomplete,226,filling,0,right,Green_Circle_Grid_3.jpg,Red_Circle_Chess_1.jpg,Purple_Plus_Grid_2.jpg,right,926.7800000379793,true,low,false
a1GqjMit,3eawoid6nwaaqnjzba4xtrlfy89v0t,3w8cv64qj6cpr0amxjbowlrqftch9o,a1GqjMit,2020-0188,2020-05-21,11:10:24,11:25:13,NA,incomplete,227,filling,1,left,Green_Triangle_Grid_2.jpg,Purple_Plus_Grid_4.jpg,Red_Triangle_Dots_1.jpg,left,1014.2450000275858,true,low,false
a1GqjMit,3eawoid6nwaaqnjzba4xtrlfy89v0t,3w8cv64qj6cpr0amxjbowlrqftch9o,a1GqjMit,2020-0188,2020-05-21,11:10:24,11:25:13,NA,incomplete,228,filling,1,left,Purple_Star_Chess_3.jpg,Red_Circle_Chess_4.jpg,Blue_Star_Grid_1.jpg,left,893.7000000150874,true,low,false
a1GqjMit,3eawoid6nwaaqnjzba4xtrlfy89v0t,3w8cv64qj6cpr0amxjbowlrqftch9o,a1GqjMit,2020-0188,2020-05-21,11:10:24,11:25:13,NA,incomplete,229,filling,0,left,Green_Circle_Stripes_2.jpg,Blue_Triangle_Stripes_3.jpg,Purple_Circle_Dots_1.jpg,left,837.9800000111572,true,low,false
a1GqjMit,3eawoid6nwaaqnjzba4xtrlfy89v0t,3w8cv64qj6cpr0amxjbowlrqftch9o,a1GqjMit,2020-0188,2020-05-21,11:10:24,11:25:13,NA,incomplete,230,filling,1,left,Green_Circle_Stripes_4.jpg,Blue_Star_Stripes_2.jpg,Purple_Circle_Chess_3.jpg,left,845.1299999724142,true,low,false
a1GqjMit,3eawoid6nwaaqnjzba4xtrlfy89v0t,3w8cv64qj6cpr0amxjbowlrqftch9o,a1GqjMit,2020-0188,2020-05-21,11:10:24,11:25:13,NA,incomplete,231,filling,1,left,Red_Circle_Dots_4.jpg,Blue_Star_Dots_1.jpg,Green_Circle_Grid_2.jpg,left,875.1400000182912,true,low,false
a1GqjMit,3eawoid6nwaaqnjzba4xtrlfy89v0t,3w8cv64qj6cpr0amxjbowlrqftch9o,a1GqjMit,2020-0188,2020-05-21,11:10:24,11:25:13,NA,incomplete,232,filling,1,right,Green_Star_Chess_1.jpg,Purple_Star_Stripes_3.jpg,Blue_Plus_Chess_4.jpg,right,890.5800000065938,true,low,false
a1GqjMit,3eawoid6nwaaqnjzba4xtrlfy89v0t,3w8cv64qj6cpr0amxjbowlrqftch9o,a1GqjMit,2020-0188,2020-05-21,11:10:24,11:25:13,NA,incomplete,233,filling,0,left,Red_Plus_Dots_3.jpg,Green_Circle_Dots_4.jpg,Blue_Plus_Stripes_2.jpg,left,708.0199999618344,true,low,false
a1GqjMit,3eawoid6nwaaqnjzba4xtrlfy89v0t,3w8cv64qj6cpr0amxjbowlrqftch9o,a1GqjMit,2020-0188,2020-05-21,11:10:24,11:25:13,NA,incomplete,234,filling,1,right,Blue_Plus_Grid_2.jpg,Purple_Plus_Stripes_3.jpg,Green_Star_Grid_4.jpg,left,766.5400000405498,false,low,false
a1GqjMit,3eawoid6nwaaqnjzba4xtrlfy89v0t,3w8cv64qj6cpr0amxjbowlrqftch9o,a1GqjMit,2020-0188,2020-05-21,11:10:24,11:25:13,NA,incomplete,235,filling,0,right,Blue_Plus_Grid_3.jpg,Purple_Plus_Chess_1.jpg,Green_Circle_Grid_4.jpg,right,955.3650000016205,true,low,false
a1GqjMit,3eawoid6nwaaqnjzba4xtrlfy89v0t,3w8cv64qj6cpr0amxjbowlrqftch9o,a1GqjMit,2020-0188,2020-05-21,11:10:24,11:25:13,NA,incomplete,236,filling,1,left,Purple_Star_Dots_4.jpg,Red_Triangle_Dots_2.jpg,Green_Star_Stripes_3.jpg,left,904.1800000122748,true,low,false
a1GqjMit,3eawoid6nwaaqnjzba4xtrlfy89v0t,3w8cv64qj6cpr0amxjbowlrqftch9o,a1GqjMit,2020-0188,2020-05-21,11:10:24,11:25:13,NA,incomplete,237,filling,1,right,Green_Triangle_Stripes_1.jpg,Red_Triangle_Chess_3.jpg,Blue_Circle_Stripes_4.jpg,right,907.100000011269,true,low,false
a1GqjMit,3eawoid6nwaaqnjzba4xtrlfy89v0t,3w8cv64qj6cpr0amxjbowlrqftch9o,a1GqjMit,2020-0188,2020-05-21,11:10:24,11:25:13,NA,incomplete,238,filling,0,left,Purple_Star_Dots_4.jpg,Red_Plus_Dots_3.jpg,Blue_Star_Chess_1.jpg,left,800.2449999912642,true,low,false
a1GqjMit,3eawoid6nwaaqnjzba4xtrlfy89v0t,3w8cv64qj6cpr0amxjbowlrqftch9o,a1GqjMit,2020-0188,2020-05-21,11:10:24,11:25:13,NA,incomplete,239,filling,1,left,Blue_Star_Dots_2.jpg,Green_Circle_Dots_4.jpg,Purple_Star_Stripes_1.jpg,left,760.7650000136346,true,low,false
a1GqjMit,3eawoid6nwaaqnjzba4xtrlfy89v0t,3w8cv64qj6cpr0amxjbowlrqftch9o,a1GqjMit,2020-0188,2020-05-21,11:10:24,11:25:13,NA,NA,instruction example,color,NA,NA,Red_Plus_Stripes_2.jpg,Red_Triangle_Dots_3.jpg,Blue_Star_Chess_2.jpg,NA,NA,NA,NA,undefined
a1GqjMit,3eawoid6nwaaqnjzba4xtrlfy89v0t,3w8cv64qj6cpr0amxjbowlrqftch9o,a1GqjMit,2020-0188,2020-05-21,11:10:24,11:25:13,NA,NA,instruction example,color,NA,NA,Red_Star_Stripes_2.jpg,Green_Circle_Grid_2.jpg,Red_Plus_Chess_3.jpg,NA,NA,NA,NA,undefined
a1GqjMit,3eawoid6nwaaqnjzba4xtrlfy89v0t,3w8cv64qj6cpr0amxjbowlrqftch9o,a1GqjMit,2020-0188,2020-05-21,11:10:24,11:25:13,NA,NA,instruction example,color,NA,NA,Blue_Circle_Dots_1.jpg,Green_Circle_Grid_4.jpg,Red_Triangle_Dots_3.jpg,NA,NA,NA,NA,undefined
a1GqjMit,3eawoid6nwaaqnjzba4xtrlfy89v0t,3w8cv64qj6cpr0amxjbowlrqftch9o,a1GqjMit,2020-0188,2020-05-21,11:10:24,11:25:13,NA,NA,instruction example,color,NA,NA,Purple_Plus_Stripes_3.jpg,Blue_Star_Stripes_4.jpg,Red_Plus_Chess_2.jpg,NA,NA,NA,NA,undefined
a1GqjMit,3eawoid6nwaaqnjzba4xtrlfy89v0t,3w8cv64qj6cpr0amxjbowlrqftch9o,a1GqjMit,2020-0188,2020-05-21,11:10:24,11:25:13,855437.184999988,890435.5949999881,NA,NA,NA,NA,NA,NA,NA,NA,NA,NA,NA,undefined
