workerId,hitId,assignmentId,subject,studyid,exp_date,exp_start,exp_end,time_start,time_end,trial,type,reward_validity,answer,image_top,image_left,image_right,response,response_time,response_acc,volatility,age,race,gender,ethnicity,color,vision,neuro,practice
WHs8P4tv,3lvtfb9df8vfwjy33dzq8w9nvhnqgc,3wmoan2srfafy3903ibxtndkqvkvn3,WHs8P4tv,2020-0188,2020-11-18,17:43:34,18:05:32,NA,incomplete,0,filling,1,right,Red_Star_Stripes_1.jpg,Green_Star_Grid_4.jpg,Blue_Circle_Stripes_2.jpg,none,0,false,NA,NA,NA,NA,NA,NA,NA,NA,true
WHs8P4tv,3lvtfb9df8vfwjy33dzq8w9nvhnqgc,3wmoan2srfafy3903ibxtndkqvkvn3,WHs8P4tv,2020-0188,2020-11-18,17:43:34,18:05:32,NA,incomplete,1,filling,1,left,Green_Circle_Dots_4.jpg,Red_Plus_Dots_3.jpg,Purple_Circle_Stripes_2.jpg,left,1230.2199999995064,true,NA,NA,NA,NA,NA,NA,NA,NA,true
WHs8P4tv,3lvtfb9df8vfwjy33dzq8w9nvhnqgc,3wmoan2srfafy3903ibxtndkqvkvn3,WHs8P4tv,2020-0188,2020-11-18,17:43:34,18:05:32,NA,incomplete,2,filling,1,right,Red_Triangle_Stripes_4.jpg,Green_Triangle_Dots_3.jpg,Blue_Circle_Stripes_2.jpg,right,1066.3200000017532,true,NA,NA,NA,NA,NA,NA,NA,NA,true
WHs8P4tv,3lvtfb9df8vfwjy33dzq8w9nvhnqgc,3wmoan2srfafy3903ibxtndkqvkvn3,WHs8P4tv,2020-0188,2020-11-18,17:43:34,18:05:32,NA,incomplete,3,filling,1,left,Green_Star_Stripes_4.jpg,Red_Triangle_Stripes_1.jpg,Purple_Star_Dots_3.jpg,left,1195.0149999993155,true,NA,NA,NA,NA,NA,NA,NA,NA,true
WHs8P4tv,3lvtfb9df8vfwjy33dzq8w9nvhnqgc,3wmoan2srfafy3903ibxtndkqvkvn3,WHs8P4tv,2020-0188,2020-11-18,17:43:34,18:05:32,NA,incomplete,4,filling,1,left,Purple_Plus_Chess_3.jpg,Red_Star_Chess_2.jpg,Blue_Plus_Stripes_1.jpg,left,1424.409999999567,true,NA,NA,NA,NA,NA,NA,NA,NA,true
WHs8P4tv,3lvtfb9df8vfwjy33dzq8w9nvhnqgc,3wmoan2srfafy3903ibxtndkqvkvn3,WHs8P4tv,2020-0188,2020-11-18,17:43:34,18:05:32,NA,incomplete,5,filling,1,right,Red_Circle_Stripes_1.jpg,Purple_Circle_Grid_4.jpg,Green_Plus_Stripes_2.jpg,right,1583.8449999991572,true,NA,NA,NA,NA,NA,NA,NA,NA,true
WHs8P4tv,3lvtfb9df8vfwjy33dzq8w9nvhnqgc,3wmoan2srfafy3903ibxtndkqvkvn3,WHs8P4tv,2020-0188,2020-11-18,17:43:34,18:05:32,NA,incomplete,6,filling,1,left,Red_Triangle_Dots_2.jpg,Green_Plus_Dots_1.jpg,Blue_Triangle_Chess_4.jpg,left,1266.7399999991176,true,NA,NA,NA,NA,NA,NA,NA,NA,true
WHs8P4tv,3lvtfb9df8vfwjy33dzq8w9nvhnqgc,3wmoan2srfafy3903ibxtndkqvkvn3,WHs8P4tv,2020-0188,2020-11-18,17:43:34,18:05:32,NA,incomplete,7,filling,1,left,Blue_Plus_Stripes_3.jpg,Green_Triangle_Stripes_2.jpg,Purple_Plus_Dots_1.jpg,left,1385.319999999425,true,NA,NA,NA,NA,NA,NA,NA,NA,true
WHs8P4tv,3lvtfb9df8vfwjy33dzq8w9nvhnqgc,3wmoan2srfafy3903ibxtndkqvkvn3,WHs8P4tv,2020-0188,2020-11-18,17:43:34,18:05:32,NA,incomplete,8,filling,1,right,Red_Plus_Stripes_4.jpg,Purple_Plus_Chess_3.jpg,Blue_Circle_Stripes_1.jpg,right,1128.0200000000768,true,NA,NA,NA,NA,NA,NA,NA,NA,true
WHs8P4tv,3lvtfb9df8vfwjy33dzq8w9nvhnqgc,3wmoan2srfafy3903ibxtndkqvkvn3,WHs8P4tv,2020-0188,2020-11-18,17:43:34,18:05:32,NA,incomplete,9,filling,1,right,Red_Circle_Dots_2.jpg,Green_Circle_Grid_1.jpg,Purple_Triangle_Dots_4.jpg,right,1128.7449999999953,true,NA,NA,NA,NA,NA,NA,NA,NA,true
WHs8P4tv,3lvtfb9df8vfwjy33dzq8w9nvhnqgc,3wmoan2srfafy3903ibxtndkqvkvn3,WHs8P4tv,2020-0188,2020-11-18,17:43:34,18:05:32,NA,incomplete,10,filling,0,right,Blue_Star_Chess_4.jpg,Green_Star_Grid_3.jpg,Red_Plus_Chess_1.jpg,right,1436.159999999334,true,NA,NA,NA,NA,NA,NA,NA,NA,true
WHs8P4tv,3lvtfb9df8vfwjy33dzq8w9nvhnqgc,3wmoan2srfafy3903ibxtndkqvkvn3,WHs8P4tv,2020-0188,2020-11-18,17:43:34,18:05:32,NA,incomplete,11,filling,1,left,Green_Plus_Grid_4.jpg,Blue_Triangle_Grid_2.jpg,Purple_Plus_Stripes_3.jpg,left,1468.7400000002235,true,NA,NA,NA,NA,NA,NA,NA,NA,true
WHs8P4tv,3lvtfb9df8vfwjy33dzq8w9nvhnqgc,3wmoan2srfafy3903ibxtndkqvkvn3,WHs8P4tv,2020-0188,2020-11-18,17:43:34,18:05:32,NA,incomplete,12,filling,1,right,Purple_Plus_Chess_2.jpg,Red_Plus_Stripes_1.jpg,Blue_Circle_Chess_4.jpg,right,1666.9249999995227,true,NA,NA,NA,NA,NA,NA,NA,NA,true
WHs8P4tv,3lvtfb9df8vfwjy33dzq8w9nvhnqgc,3wmoan2srfafy3903ibxtndkqvkvn3,WHs8P4tv,2020-0188,2020-11-18,17:43:34,18:05:32,NA,incomplete,13,filling,1,left,Green_Triangle_Dots_3.jpg,Purple_Plus_Dots_1.jpg,Red_Triangle_Stripes_4.jpg,left,1287.159999999858,true,NA,NA,NA,NA,NA,NA,NA,NA,true
WHs8P4tv,3lvtfb9df8vfwjy33dzq8w9nvhnqgc,3wmoan2srfafy3903ibxtndkqvkvn3,WHs8P4tv,2020-0188,2020-11-18,17:43:34,18:05:32,NA,incomplete,14,filling,1,right,Red_Circle_Dots_3.jpg,Purple_Circle_Chess_2.jpg,Blue_Triangle_Dots_4.jpg,right,1201.380000000412,true,NA,NA,NA,NA,NA,NA,NA,NA,true
WHs8P4tv,3lvtfb9df8vfwjy33dzq8w9nvhnqgc,3wmoan2srfafy3903ibxtndkqvkvn3,WHs8P4tv,2020-0188,2020-11-18,17:43:34,18:05:32,NA,incomplete,15,filling,1,right,Red_Plus_Stripes_1.jpg,Purple_Plus_Dots_4.jpg,Green_Triangle_Stripes_2.jpg,right,1190.5849999985076,true,NA,NA,NA,NA,NA,NA,NA,NA,true
WHs8P4tv,3lvtfb9df8vfwjy33dzq8w9nvhnqgc,3wmoan2srfafy3903ibxtndkqvkvn3,WHs8P4tv,2020-0188,2020-11-18,17:43:34,18:05:32,NA,incomplete,16,filling,1,right,Blue_Plus_Chess_4.jpg,Green_Plus_Dots_3.jpg,Purple_Circle_Chess_2.jpg,right,1327.2600000000093,true,NA,NA,NA,NA,NA,NA,NA,NA,true
WHs8P4tv,3lvtfb9df8vfwjy33dzq8w9nvhnqgc,3wmoan2srfafy3903ibxtndkqvkvn3,WHs8P4tv,2020-0188,2020-11-18,17:43:34,18:05:32,NA,incomplete,17,filling,1,left,Red_Plus_Grid_1.jpg,Blue_Triangle_Grid_4.jpg,Green_Plus_Dots_3.jpg,left,1390.9500000008848,true,NA,NA,NA,NA,NA,NA,NA,NA,true
WHs8P4tv,3lvtfb9df8vfwjy33dzq8w9nvhnqgc,3wmoan2srfafy3903ibxtndkqvkvn3,WHs8P4tv,2020-0188,2020-11-18,17:43:34,18:05:32,NA,incomplete,18,filling,1,left,Blue_Triangle_Grid_3.jpg,Red_Star_Grid_1.jpg,Green_Triangle_Stripes_4.jpg,left,1340.6850000010454,true,NA,NA,NA,NA,NA,NA,NA,NA,true
WHs8P4tv,3lvtfb9df8vfwjy33dzq8w9nvhnqgc,3wmoan2srfafy3903ibxtndkqvkvn3,WHs8P4tv,2020-0188,2020-11-18,17:43:34,18:05:32,NA,incomplete,19,filling,1,right,Blue_Triangle_Dots_3.jpg,Red_Triangle_Stripes_4.jpg,Purple_Star_Dots_2.jpg,right,1307.7250000005588,true,NA,NA,NA,NA,NA,NA,NA,NA,true
WHs8P4tv,3lvtfb9df8vfwjy33dzq8w9nvhnqgc,3wmoan2srfafy3903ibxtndkqvkvn3,WHs8P4tv,2020-0188,2020-11-18,17:43:34,18:05:32,NA,incomplete,20,shape,1,left,Green_Plus_Stripes_1.jpg,Red_Plus_Grid_2.jpg,Blue_Triangle_Stripes_4.jpg,left,1799.8499999993946,true,NA,NA,NA,NA,NA,NA,NA,NA,true
WHs8P4tv,3lvtfb9df8vfwjy33dzq8w9nvhnqgc,3wmoan2srfafy3903ibxtndkqvkvn3,WHs8P4tv,2020-0188,2020-11-18,17:43:34,18:05:32,NA,incomplete,21,shape,0,right,Purple_Plus_Grid_2.jpg,Blue_Circle_Grid_1.jpg,Red_Plus_Stripes_4.jpg,right,864.450000000943,true,NA,NA,NA,NA,NA,NA,NA,NA,true
WHs8P4tv,3lvtfb9df8vfwjy33dzq8w9nvhnqgc,3wmoan2srfafy3903ibxtndkqvkvn3,WHs8P4tv,2020-0188,2020-11-18,17:43:34,18:05:32,NA,incomplete,22,shape,0,left,Green_Circle_Dots_4.jpg,Blue_Circle_Stripes_1.jpg,Purple_Plus_Dots_3.jpg,left,1351.715000000666,true,NA,NA,NA,NA,NA,NA,NA,NA,true
WHs8P4tv,3lvtfb9df8vfwjy33dzq8w9nvhnqgc,3wmoan2srfafy3903ibxtndkqvkvn3,WHs8P4tv,2020-0188,2020-11-18,17:43:34,18:05:32,NA,incomplete,23,shape,0,right,Green_Star_Stripes_1.jpg,Blue_Triangle_Stripes_4.jpg,Red_Star_Grid_3.jpg,right,1865.7100000000792,true,NA,NA,NA,NA,NA,NA,NA,NA,true
WHs8P4tv,3lvtfb9df8vfwjy33dzq8w9nvhnqgc,3wmoan2srfafy3903ibxtndkqvkvn3,WHs8P4tv,2020-0188,2020-11-18,17:43:34,18:05:32,NA,incomplete,24,shape,1,right,Blue_Circle_Stripes_4.jpg,Purple_Plus_Stripes_2.jpg,Red_Circle_Dots_1.jpg,right,1363.6299999998882,true,NA,NA,NA,NA,NA,NA,NA,NA,true
WHs8P4tv,3lvtfb9df8vfwjy33dzq8w9nvhnqgc,3wmoan2srfafy3903ibxtndkqvkvn3,WHs8P4tv,2020-0188,2020-11-18,17:43:34,18:05:32,NA,incomplete,25,shape,0,left,Purple_Star_Grid_4.jpg,Blue_Star_Dots_3.jpg,Green_Plus_Grid_2.jpg,left,1123.9750000004424,true,NA,NA,NA,NA,NA,NA,NA,NA,true
WHs8P4tv,3lvtfb9df8vfwjy33dzq8w9nvhnqgc,3wmoan2srfafy3903ibxtndkqvkvn3,WHs8P4tv,2020-0188,2020-11-18,17:43:34,18:05:32,NA,incomplete,26,shape,1,left,Green_Triangle_Grid_2.jpg,Red_Triangle_Stripes_3.jpg,Blue_Star_Grid_4.jpg,none,0,false,NA,NA,NA,NA,NA,NA,NA,NA,true
WHs8P4tv,3lvtfb9df8vfwjy33dzq8w9nvhnqgc,3wmoan2srfafy3903ibxtndkqvkvn3,WHs8P4tv,2020-0188,2020-11-18,17:43:34,18:05:32,NA,incomplete,27,shape,1,left,Purple_Circle_Grid_2.jpg,Green_Circle_Chess_3.jpg,Blue_Triangle_Grid_4.jpg,left,1369.585000000312,true,NA,NA,NA,NA,NA,NA,NA,NA,true
WHs8P4tv,3lvtfb9df8vfwjy33dzq8w9nvhnqgc,3wmoan2srfafy3903ibxtndkqvkvn3,WHs8P4tv,2020-0188,2020-11-18,17:43:34,18:05:32,NA,incomplete,28,shape,1,left,Green_Triangle_Stripes_1.jpg,Red_Triangle_Dots_2.jpg,Purple_Star_Stripes_3.jpg,left,1299.0300000001444,true,NA,NA,NA,NA,NA,NA,NA,NA,true
WHs8P4tv,3lvtfb9df8vfwjy33dzq8w9nvhnqgc,3wmoan2srfafy3903ibxtndkqvkvn3,WHs8P4tv,2020-0188,2020-11-18,17:43:34,18:05:32,NA,incomplete,29,shape,1,left,Purple_Plus_Chess_1.jpg,Blue_Plus_Grid_2.jpg,Red_Star_Chess_3.jpg,left,1004.9049999997951,true,NA,NA,NA,NA,NA,NA,NA,NA,true
WHs8P4tv,3lvtfb9df8vfwjy33dzq8w9nvhnqgc,3wmoan2srfafy3903ibxtndkqvkvn3,WHs8P4tv,2020-0188,2020-11-18,17:43:34,18:05:32,NA,incomplete,30,shape,1,right,Green_Star_Stripes_2.jpg,Blue_Triangle_Stripes_4.jpg,Purple_Star_Grid_3.jpg,right,987.7899999992223,true,NA,NA,NA,NA,NA,NA,NA,NA,true
WHs8P4tv,3lvtfb9df8vfwjy33dzq8w9nvhnqgc,3wmoan2srfafy3903ibxtndkqvkvn3,WHs8P4tv,2020-0188,2020-11-18,17:43:34,18:05:32,NA,incomplete,31,shape,1,left,Red_Plus_Grid_1.jpg,Purple_Plus_Dots_3.jpg,Green_Circle_Grid_2.jpg,left,927.9850000002189,true,NA,NA,NA,NA,NA,NA,NA,NA,true
WHs8P4tv,3lvtfb9df8vfwjy33dzq8w9nvhnqgc,3wmoan2srfafy3903ibxtndkqvkvn3,WHs8P4tv,2020-0188,2020-11-18,17:43:34,18:05:32,NA,incomplete,32,shape,1,right,Purple_Circle_Dots_1.jpg,Red_Star_Dots_3.jpg,Green_Circle_Grid_4.jpg,right,855.1750000006286,true,NA,NA,NA,NA,NA,NA,NA,NA,true
WHs8P4tv,3lvtfb9df8vfwjy33dzq8w9nvhnqgc,3wmoan2srfafy3903ibxtndkqvkvn3,WHs8P4tv,2020-0188,2020-11-18,17:43:34,18:05:32,NA,incomplete,33,shape,0,right,Blue_Plus_Stripes_4.jpg,Green_Circle_Stripes_1.jpg,Red_Plus_Grid_2.jpg,right,940.6099999996368,true,NA,NA,NA,NA,NA,NA,NA,NA,true
WHs8P4tv,3lvtfb9df8vfwjy33dzq8w9nvhnqgc,3wmoan2srfafy3903ibxtndkqvkvn3,WHs8P4tv,2020-0188,2020-11-18,17:43:34,18:05:32,NA,incomplete,34,shape,1,left,Blue_Plus_Dots_3.jpg,Purple_Plus_Grid_1.jpg,Red_Star_Dots_2.jpg,left,1185.3549999996321,true,NA,NA,NA,NA,NA,NA,NA,NA,true
WHs8P4tv,3lvtfb9df8vfwjy33dzq8w9nvhnqgc,3wmoan2srfafy3903ibxtndkqvkvn3,WHs8P4tv,2020-0188,2020-11-18,17:43:34,18:05:32,NA,incomplete,35,shape,1,right,Red_Star_Chess_1.jpg,Blue_Plus_Chess_4.jpg,Green_Star_Dots_2.jpg,right,1507.5149999993155,true,NA,NA,NA,NA,NA,NA,NA,NA,true
WHs8P4tv,3lvtfb9df8vfwjy33dzq8w9nvhnqgc,3wmoan2srfafy3903ibxtndkqvkvn3,WHs8P4tv,2020-0188,2020-11-18,17:43:34,18:05:32,NA,incomplete,36,shape,1,right,Green_Triangle_Dots_1.jpg,Purple_Plus_Dots_4.jpg,Blue_Triangle_Chess_2.jpg,right,1009.5300000010757,true,NA,NA,NA,NA,NA,NA,NA,NA,true
WHs8P4tv,3lvtfb9df8vfwjy33dzq8w9nvhnqgc,3wmoan2srfafy3903ibxtndkqvkvn3,WHs8P4tv,2020-0188,2020-11-18,17:43:34,18:05:32,NA,incomplete,37,shape,1,right,Purple_Triangle_Stripes_1.jpg,Blue_Plus_Stripes_3.jpg,Red_Triangle_Dots_2.jpg,right,1124.2050000000745,true,NA,NA,NA,NA,NA,NA,NA,NA,true
WHs8P4tv,3lvtfb9df8vfwjy33dzq8w9nvhnqgc,3wmoan2srfafy3903ibxtndkqvkvn3,WHs8P4tv,2020-0188,2020-11-18,17:43:34,18:05:32,NA,incomplete,38,shape,0,left,Purple_Plus_Grid_2.jpg,Red_Plus_Chess_1.jpg,Blue_Triangle_Grid_3.jpg,left,1001.9900000006892,true,NA,NA,NA,NA,NA,NA,NA,NA,true
WHs8P4tv,3lvtfb9df8vfwjy33dzq8w9nvhnqgc,3wmoan2srfafy3903ibxtndkqvkvn3,WHs8P4tv,2020-0188,2020-11-18,17:43:34,18:05:32,NA,incomplete,39,shape,0,right,Blue_Circle_Chess_2.jpg,Red_Triangle_Chess_4.jpg,Green_Circle_Grid_1.jpg,right,1690.5249999999069,true,NA,NA,NA,NA,NA,NA,NA,NA,true
WHs8P4tv,3lvtfb9df8vfwjy33dzq8w9nvhnqgc,3wmoan2srfafy3903ibxtndkqvkvn3,WHs8P4tv,2020-0188,2020-11-18,17:43:34,18:05:32,NA,incomplete,0,filling,1,right,Blue_Plus_Stripes_4.jpg,Red_Plus_Grid_2.jpg,Purple_Triangle_Stripes_1.jpg,left,1252.28000000061,false,high,NA,NA,NA,NA,NA,NA,NA,false
WHs8P4tv,3lvtfb9df8vfwjy33dzq8w9nvhnqgc,3wmoan2srfafy3903ibxtndkqvkvn3,WHs8P4tv,2020-0188,2020-11-18,17:43:34,18:05:32,NA,incomplete,1,filling,1,left,Blue_Star_Dots_4.jpg,Purple_Circle_Dots_2.jpg,Green_Star_Stripes_3.jpg,left,1475.705000000773,true,high,NA,NA,NA,NA,NA,NA,NA,false
WHs8P4tv,3lvtfb9df8vfwjy33dzq8w9nvhnqgc,3wmoan2srfafy3903ibxtndkqvkvn3,WHs8P4tv,2020-0188,2020-11-18,17:43:34,18:05:32,NA,incomplete,2,filling,1,left,Purple_Plus_Dots_4.jpg,Red_Triangle_Dots_3.jpg,Green_Plus_Grid_1.jpg,left,1298.0950000000885,true,high,NA,NA,NA,NA,NA,NA,NA,false
WHs8P4tv,3lvtfb9df8vfwjy33dzq8w9nvhnqgc,3wmoan2srfafy3903ibxtndkqvkvn3,WHs8P4tv,2020-0188,2020-11-18,17:43:34,18:05:32,NA,incomplete,3,filling,0,left,Green_Circle_Grid_2.jpg,Blue_Star_Grid_1.jpg,Red_Circle_Stripes_3.jpg,left,1245.9650000000838,true,high,NA,NA,NA,NA,NA,NA,NA,false
WHs8P4tv,3lvtfb9df8vfwjy33dzq8w9nvhnqgc,3wmoan2srfafy3903ibxtndkqvkvn3,WHs8P4tv,2020-0188,2020-11-18,17:43:34,18:05:32,NA,incomplete,4,filling,1,left,Green_Star_Grid_2.jpg,Blue_Triangle_Grid_4.jpg,Purple_Star_Chess_1.jpg,right,1375.8850000012899,false,high,NA,NA,NA,NA,NA,NA,NA,false
WHs8P4tv,3lvtfb9df8vfwjy33dzq8w9nvhnqgc,3wmoan2srfafy3903ibxtndkqvkvn3,WHs8P4tv,2020-0188,2020-11-18,17:43:34,18:05:32,NA,incomplete,5,filling,1,right,Blue_Circle_Dots_4.jpg,Purple_Circle_Chess_1.jpg,Red_Star_Dots_2.jpg,right,1184.5600000015693,true,high,NA,NA,NA,NA,NA,NA,NA,false
WHs8P4tv,3lvtfb9df8vfwjy33dzq8w9nvhnqgc,3wmoan2srfafy3903ibxtndkqvkvn3,WHs8P4tv,2020-0188,2020-11-18,17:43:34,18:05:32,NA,incomplete,6,filling,1,right,Blue_Plus_Chess_4.jpg,Purple_Plus_Dots_3.jpg,Green_Triangle_Chess_1.jpg,right,1189.0399999993388,true,high,NA,NA,NA,NA,NA,NA,NA,false
WHs8P4tv,3lvtfb9df8vfwjy33dzq8w9nvhnqgc,3wmoan2srfafy3903ibxtndkqvkvn3,WHs8P4tv,2020-0188,2020-11-18,17:43:34,18:05:32,NA,incomplete,7,filling,1,left,Purple_Star_Chess_1.jpg,Blue_Circle_Chess_2.jpg,Red_Star_Stripes_4.jpg,left,1269.3350000007777,true,high,NA,NA,NA,NA,NA,NA,NA,false
WHs8P4tv,3lvtfb9df8vfwjy33dzq8w9nvhnqgc,3wmoan2srfafy3903ibxtndkqvkvn3,WHs8P4tv,2020-0188,2020-11-18,17:43:34,18:05:32,NA,incomplete,8,filling,1,left,Blue_Star_Grid_1.jpg,Red_Plus_Grid_3.jpg,Purple_Star_Chess_4.jpg,left,1282.1549999989802,true,high,NA,NA,NA,NA,NA,NA,NA,false
WHs8P4tv,3lvtfb9df8vfwjy33dzq8w9nvhnqgc,3wmoan2srfafy3903ibxtndkqvkvn3,WHs8P4tv,2020-0188,2020-11-18,17:43:34,18:05:32,NA,incomplete,9,filling,1,left,Purple_Star_Grid_4.jpg,Red_Plus_Grid_3.jpg,Blue_Star_Stripes_1.jpg,left,1335.600000000326,true,high,NA,NA,NA,NA,NA,NA,NA,false
WHs8P4tv,3lvtfb9df8vfwjy33dzq8w9nvhnqgc,3wmoan2srfafy3903ibxtndkqvkvn3,WHs8P4tv,2020-0188,2020-11-18,17:43:34,18:05:32,NA,incomplete,10,shape,1,right,Red_Star_Stripes_4.jpg,Blue_Triangle_Stripes_2.jpg,Purple_Star_Grid_3.jpg,left,1317.3449999995064,false,high,NA,NA,NA,NA,NA,NA,NA,false
WHs8P4tv,3lvtfb9df8vfwjy33dzq8w9nvhnqgc,3wmoan2srfafy3903ibxtndkqvkvn3,WHs8P4tv,2020-0188,2020-11-18,17:43:34,18:05:32,NA,incomplete,11,shape,1,right,Blue_Star_Grid_3.jpg,Green_Circle_Grid_4.jpg,Purple_Star_Stripes_2.jpg,left,1522.989999999525,false,high,NA,NA,NA,NA,NA,NA,NA,false
WHs8P4tv,3lvtfb9df8vfwjy33dzq8w9nvhnqgc,3wmoan2srfafy3903ibxtndkqvkvn3,WHs8P4tv,2020-0188,2020-11-18,17:43:34,18:05:32,NA,incomplete,12,shape,1,right,Purple_Triangle_Stripes_4.jpg,Green_Star_Stripes_2.jpg,Red_Triangle_Chess_1.jpg,right,923.8750000004657,true,high,NA,NA,NA,NA,NA,NA,NA,false
WHs8P4tv,3lvtfb9df8vfwjy33dzq8w9nvhnqgc,3wmoan2srfafy3903ibxtndkqvkvn3,WHs8P4tv,2020-0188,2020-11-18,17:43:34,18:05:32,NA,incomplete,13,shape,0,right,Red_Star_Grid_2.jpg,Blue_Triangle_Grid_3.jpg,Green_Star_Dots_1.jpg,right,993.8899999997811,true,high,NA,NA,NA,NA,NA,NA,NA,false
WHs8P4tv,3lvtfb9df8vfwjy33dzq8w9nvhnqgc,3wmoan2srfafy3903ibxtndkqvkvn3,WHs8P4tv,2020-0188,2020-11-18,17:43:34,18:05:32,NA,incomplete,14,shape,1,left,Red_Circle_Chess_3.jpg,Green_Circle_Stripes_1.jpg,Blue_Star_Chess_2.jpg,right,1362.1699999985285,false,high,NA,NA,NA,NA,NA,NA,NA,false
WHs8P4tv,3lvtfb9df8vfwjy33dzq8w9nvhnqgc,3wmoan2srfafy3903ibxtndkqvkvn3,WHs8P4tv,2020-0188,2020-11-18,17:43:34,18:05:32,NA,incomplete,15,shape,1,right,Purple_Plus_Grid_2.jpg,Green_Star_Grid_4.jpg,Red_Plus_Chess_1.jpg,right,1103.5350000002654,true,high,NA,NA,NA,NA,NA,NA,NA,false
WHs8P4tv,3lvtfb9df8vfwjy33dzq8w9nvhnqgc,3wmoan2srfafy3903ibxtndkqvkvn3,WHs8P4tv,2020-0188,2020-11-18,17:43:34,18:05:32,NA,incomplete,16,shape,1,left,Blue_Triangle_Grid_1.jpg,Purple_Triangle_Stripes_4.jpg,Red_Star_Grid_3.jpg,left,982.8450000004377,true,high,NA,NA,NA,NA,NA,NA,NA,false
WHs8P4tv,3lvtfb9df8vfwjy33dzq8w9nvhnqgc,3wmoan2srfafy3903ibxtndkqvkvn3,WHs8P4tv,2020-0188,2020-11-18,17:43:34,18:05:32,NA,incomplete,17,shape,1,right,Red_Star_Stripes_3.jpg,Green_Plus_Stripes_4.jpg,Blue_Star_Grid_2.jpg,right,1106.1199999985984,true,high,NA,NA,NA,NA,NA,NA,NA,false
WHs8P4tv,3lvtfb9df8vfwjy33dzq8w9nvhnqgc,3wmoan2srfafy3903ibxtndkqvkvn3,WHs8P4tv,2020-0188,2020-11-18,17:43:34,18:05:32,NA,incomplete,18,shape,1,left,Blue_Plus_Chess_4.jpg,Green_Plus_Grid_1.jpg,Purple_Triangle_Chess_3.jpg,left,915.1299999993062,true,high,NA,NA,NA,NA,NA,NA,NA,false
WHs8P4tv,3lvtfb9df8vfwjy33dzq8w9nvhnqgc,3wmoan2srfafy3903ibxtndkqvkvn3,WHs8P4tv,2020-0188,2020-11-18,17:43:34,18:05:32,NA,incomplete,19,shape,1,left,Red_Plus_Grid_4.jpg,Purple_Plus_Dots_1.jpg,Blue_Star_Grid_2.jpg,left,900.1450000014156,true,high,NA,NA,NA,NA,NA,NA,NA,false
WHs8P4tv,3lvtfb9df8vfwjy33dzq8w9nvhnqgc,3wmoan2srfafy3903ibxtndkqvkvn3,WHs8P4tv,2020-0188,2020-11-18,17:43:34,18:05:32,NA,incomplete,20,filling,1,right,Red_Star_Chess_1.jpg,Blue_Star_Dots_4.jpg,Green_Circle_Chess_3.jpg,left,965.1900000008754,false,high,NA,NA,NA,NA,NA,NA,NA,false
WHs8P4tv,3lvtfb9df8vfwjy33dzq8w9nvhnqgc,3wmoan2srfafy3903ibxtndkqvkvn3,WHs8P4tv,2020-0188,2020-11-18,17:43:34,18:05:32,NA,incomplete,21,filling,1,right,Red_Circle_Grid_3.jpg,Purple_Circle_Dots_4.jpg,Blue_Triangle_Grid_1.jpg,right,1363.4750000000931,true,high,NA,NA,NA,NA,NA,NA,NA,false
WHs8P4tv,3lvtfb9df8vfwjy33dzq8w9nvhnqgc,3wmoan2srfafy3903ibxtndkqvkvn3,WHs8P4tv,2020-0188,2020-11-18,17:43:34,18:05:32,NA,incomplete,22,filling,1,left,Red_Plus_Stripes_1.jpg,Green_Triangle_Stripes_4.jpg,Blue_Plus_Grid_2.jpg,left,1391.5250000009546,true,high,NA,NA,NA,NA,NA,NA,NA,false
WHs8P4tv,3lvtfb9df8vfwjy33dzq8w9nvhnqgc,3wmoan2srfafy3903ibxtndkqvkvn3,WHs8P4tv,2020-0188,2020-11-18,17:43:34,18:05:32,NA,incomplete,23,filling,1,left,Green_Plus_Grid_3.jpg,Blue_Star_Grid_4.jpg,Red_Plus_Stripes_2.jpg,left,1487.4449999987846,true,high,NA,NA,NA,NA,NA,NA,NA,false
WHs8P4tv,3lvtfb9df8vfwjy33dzq8w9nvhnqgc,3wmoan2srfafy3903ibxtndkqvkvn3,WHs8P4tv,2020-0188,2020-11-18,17:43:34,18:05:32,NA,incomplete,24,filling,0,right,Purple_Triangle_Stripes_2.jpg,Blue_Triangle_Dots_1.jpg,Red_Circle_Stripes_3.jpg,right,1100.7100000006612,true,high,NA,NA,NA,NA,NA,NA,NA,false
WHs8P4tv,3lvtfb9df8vfwjy33dzq8w9nvhnqgc,3wmoan2srfafy3903ibxtndkqvkvn3,WHs8P4tv,2020-0188,2020-11-18,17:43:34,18:05:32,NA,incomplete,25,filling,0,left,Red_Plus_Dots_1.jpg,Green_Star_Dots_4.jpg,Purple_Plus_Grid_2.jpg,right,1081.4050000007264,false,high,NA,NA,NA,NA,NA,NA,NA,false
WHs8P4tv,3lvtfb9df8vfwjy33dzq8w9nvhnqgc,3wmoan2srfafy3903ibxtndkqvkvn3,WHs8P4tv,2020-0188,2020-11-18,17:43:34,18:05:32,NA,incomplete,26,filling,0,right,Purple_Plus_Stripes_2.jpg,Red_Plus_Grid_1.jpg,Green_Triangle_Stripes_4.jpg,left,819.5300000007264,false,high,NA,NA,NA,NA,NA,NA,NA,false
WHs8P4tv,3lvtfb9df8vfwjy33dzq8w9nvhnqgc,3wmoan2srfafy3903ibxtndkqvkvn3,WHs8P4tv,2020-0188,2020-11-18,17:43:34,18:05:32,NA,incomplete,27,filling,0,right,Purple_Circle_Dots_4.jpg,Blue_Circle_Stripes_3.jpg,Red_Plus_Dots_2.jpg,left,1120.2150000008987,false,high,NA,NA,NA,NA,NA,NA,NA,false
WHs8P4tv,3lvtfb9df8vfwjy33dzq8w9nvhnqgc,3wmoan2srfafy3903ibxtndkqvkvn3,WHs8P4tv,2020-0188,2020-11-18,17:43:34,18:05:32,NA,incomplete,28,filling,0,right,Red_Circle_Stripes_1.jpg,Green_Circle_Dots_2.jpg,Purple_Plus_Stripes_3.jpg,left,1064.2150000003166,false,high,NA,NA,NA,NA,NA,NA,NA,false
WHs8P4tv,3lvtfb9df8vfwjy33dzq8w9nvhnqgc,3wmoan2srfafy3903ibxtndkqvkvn3,WHs8P4tv,2020-0188,2020-11-18,17:43:34,18:05:32,NA,incomplete,29,filling,0,right,Green_Plus_Chess_1.jpg,Blue_Plus_Stripes_3.jpg,Purple_Circle_Chess_4.jpg,left,1101.2649999993155,false,high,NA,NA,NA,NA,NA,NA,NA,false
WHs8P4tv,3lvtfb9df8vfwjy33dzq8w9nvhnqgc,3wmoan2srfafy3903ibxtndkqvkvn3,WHs8P4tv,2020-0188,2020-11-18,17:43:34,18:05:32,NA,incomplete,30,shape,0,right,Blue_Plus_Stripes_1.jpg,Purple_Triangle_Stripes_3.jpg,Red_Plus_Grid_2.jpg,right,933.2799999993294,true,high,NA,NA,NA,NA,NA,NA,NA,false
WHs8P4tv,3lvtfb9df8vfwjy33dzq8w9nvhnqgc,3wmoan2srfafy3903ibxtndkqvkvn3,WHs8P4tv,2020-0188,2020-11-18,17:43:34,18:05:32,NA,incomplete,31,shape,1,left,Red_Circle_Dots_3.jpg,Green_Circle_Grid_4.jpg,Purple_Star_Dots_2.jpg,right,1040.450000000419,false,high,NA,NA,NA,NA,NA,NA,NA,false
WHs8P4tv,3lvtfb9df8vfwjy33dzq8w9nvhnqgc,3wmoan2srfafy3903ibxtndkqvkvn3,WHs8P4tv,2020-0188,2020-11-18,17:43:34,18:05:32,NA,incomplete,32,shape,1,right,Green_Plus_Stripes_2.jpg,Blue_Star_Stripes_3.jpg,Red_Plus_Dots_1.jpg,right,1489.4299999995856,true,high,NA,NA,NA,NA,NA,NA,NA,false
WHs8P4tv,3lvtfb9df8vfwjy33dzq8w9nvhnqgc,3wmoan2srfafy3903ibxtndkqvkvn3,WHs8P4tv,2020-0188,2020-11-18,17:43:34,18:05:32,NA,incomplete,33,shape,1,left,Red_Plus_Grid_2.jpg,Blue_Plus_Stripes_1.jpg,Purple_Circle_Grid_3.jpg,left,909.9150000001537,true,high,NA,NA,NA,NA,NA,NA,NA,false
WHs8P4tv,3lvtfb9df8vfwjy33dzq8w9nvhnqgc,3wmoan2srfafy3903ibxtndkqvkvn3,WHs8P4tv,2020-0188,2020-11-18,17:43:34,18:05:32,NA,incomplete,34,shape,1,left,Green_Plus_Dots_1.jpg,Blue_Plus_Stripes_3.jpg,Red_Circle_Dots_4.jpg,left,833.0249999999069,true,high,NA,NA,NA,NA,NA,NA,NA,false
WHs8P4tv,3lvtfb9df8vfwjy33dzq8w9nvhnqgc,3wmoan2srfafy3903ibxtndkqvkvn3,WHs8P4tv,2020-0188,2020-11-18,17:43:34,18:05:32,NA,incomplete,35,shape,1,right,Red_Circle_Dots_1.jpg,Green_Plus_Dots_2.jpg,Blue_Circle_Chess_3.jpg,right,954.1900000004098,true,high,NA,NA,NA,NA,NA,NA,NA,false
WHs8P4tv,3lvtfb9df8vfwjy33dzq8w9nvhnqgc,3wmoan2srfafy3903ibxtndkqvkvn3,WHs8P4tv,2020-0188,2020-11-18,17:43:34,18:05:32,NA,incomplete,36,shape,1,right,Purple_Circle_Grid_2.jpg,Green_Triangle_Grid_1.jpg,Blue_Circle_Stripes_3.jpg,right,1103.849999999511,true,high,NA,NA,NA,NA,NA,NA,NA,false
WHs8P4tv,3lvtfb9df8vfwjy33dzq8w9nvhnqgc,3wmoan2srfafy3903ibxtndkqvkvn3,WHs8P4tv,2020-0188,2020-11-18,17:43:34,18:05:32,NA,incomplete,37,shape,1,left,Red_Circle_Grid_2.jpg,Blue_Circle_Chess_1.jpg,Green_Star_Grid_4.jpg,left,962.5150000010617,true,high,NA,NA,NA,NA,NA,NA,NA,false
WHs8P4tv,3lvtfb9df8vfwjy33dzq8w9nvhnqgc,3wmoan2srfafy3903ibxtndkqvkvn3,WHs8P4tv,2020-0188,2020-11-18,17:43:34,18:05:32,NA,incomplete,38,shape,1,left,Green_Star_Stripes_4.jpg,Red_Star_Grid_2.jpg,Purple_Triangle_Stripes_3.jpg,left,784.6250000002328,true,high,NA,NA,NA,NA,NA,NA,NA,false
WHs8P4tv,3lvtfb9df8vfwjy33dzq8w9nvhnqgc,3wmoan2srfafy3903ibxtndkqvkvn3,WHs8P4tv,2020-0188,2020-11-18,17:43:34,18:05:32,NA,incomplete,39,shape,1,left,Purple_Plus_Grid_1.jpg,Red_Plus_Dots_2.jpg,Blue_Triangle_Grid_3.jpg,left,865.4599999991478,true,high,NA,NA,NA,NA,NA,NA,NA,false
WHs8P4tv,3lvtfb9df8vfwjy33dzq8w9nvhnqgc,3wmoan2srfafy3903ibxtndkqvkvn3,WHs8P4tv,2020-0188,2020-11-18,17:43:34,18:05:32,NA,incomplete,40,filling,0,right,Red_Triangle_Chess_4.jpg,Purple_Triangle_Stripes_1.jpg,Green_Star_Chess_3.jpg,left,880.7500000002328,false,high,NA,NA,NA,NA,NA,NA,NA,false
WHs8P4tv,3lvtfb9df8vfwjy33dzq8w9nvhnqgc,3wmoan2srfafy3903ibxtndkqvkvn3,WHs8P4tv,2020-0188,2020-11-18,17:43:34,18:05:32,NA,incomplete,41,filling,1,right,Green_Star_Chess_4.jpg,Purple_Star_Dots_1.jpg,Blue_Plus_Chess_3.jpg,left,842.2649999993155,false,high,NA,NA,NA,NA,NA,NA,NA,false
WHs8P4tv,3lvtfb9df8vfwjy33dzq8w9nvhnqgc,3wmoan2srfafy3903ibxtndkqvkvn3,WHs8P4tv,2020-0188,2020-11-18,17:43:34,18:05:32,NA,incomplete,42,filling,1,left,Blue_Circle_Stripes_4.jpg,Green_Plus_Stripes_1.jpg,Red_Circle_Chess_3.jpg,right,1222.9299999999348,false,high,NA,NA,NA,NA,NA,NA,NA,false
WHs8P4tv,3lvtfb9df8vfwjy33dzq8w9nvhnqgc,3wmoan2srfafy3903ibxtndkqvkvn3,WHs8P4tv,2020-0188,2020-11-18,17:43:34,18:05:32,NA,incomplete,43,filling,1,right,Red_Star_Stripes_4.jpg,Purple_Star_Grid_3.jpg,Blue_Circle_Stripes_1.jpg,right,1107.4750000006752,true,high,NA,NA,NA,NA,NA,NA,NA,false
WHs8P4tv,3lvtfb9df8vfwjy33dzq8w9nvhnqgc,3wmoan2srfafy3903ibxtndkqvkvn3,WHs8P4tv,2020-0188,2020-11-18,17:43:34,18:05:32,NA,incomplete,44,filling,0,right,Blue_Plus_Dots_2.jpg,Purple_Plus_Chess_3.jpg,Red_Circle_Dots_1.jpg,right,1042.2799999996787,true,high,NA,NA,NA,NA,NA,NA,NA,false
WHs8P4tv,3lvtfb9df8vfwjy33dzq8w9nvhnqgc,3wmoan2srfafy3903ibxtndkqvkvn3,WHs8P4tv,2020-0188,2020-11-18,17:43:34,18:05:32,NA,incomplete,45,filling,1,left,Purple_Star_Grid_1.jpg,Green_Triangle_Grid_2.jpg,Red_Star_Chess_3.jpg,right,1465.2650000007125,false,high,NA,NA,NA,NA,NA,NA,NA,false
WHs8P4tv,3lvtfb9df8vfwjy33dzq8w9nvhnqgc,3wmoan2srfafy3903ibxtndkqvkvn3,WHs8P4tv,2020-0188,2020-11-18,17:43:34,18:05:32,NA,incomplete,46,filling,1,left,Blue_Circle_Dots_3.jpg,Purple_Triangle_Dots_1.jpg,Red_Circle_Stripes_4.jpg,left,1248.3899999988498,true,high,NA,NA,NA,NA,NA,NA,NA,false
WHs8P4tv,3lvtfb9df8vfwjy33dzq8w9nvhnqgc,3wmoan2srfafy3903ibxtndkqvkvn3,WHs8P4tv,2020-0188,2020-11-18,17:43:34,18:05:32,NA,incomplete,47,filling,1,right,Purple_Star_Stripes_1.jpg,Red_Star_Chess_2.jpg,Blue_Plus_Stripes_3.jpg,right,1153.229999999865,true,high,NA,NA,NA,NA,NA,NA,NA,false
WHs8P4tv,3lvtfb9df8vfwjy33dzq8w9nvhnqgc,3wmoan2srfafy3903ibxtndkqvkvn3,WHs8P4tv,2020-0188,2020-11-18,17:43:34,18:05:32,NA,incomplete,48,filling,0,left,Blue_Triangle_Dots_1.jpg,Green_Plus_Dots_4.jpg,Red_Triangle_Grid_3.jpg,left,1071.529999999213,true,high,NA,NA,NA,NA,NA,NA,NA,false
WHs8P4tv,3lvtfb9df8vfwjy33dzq8w9nvhnqgc,3wmoan2srfafy3903ibxtndkqvkvn3,WHs8P4tv,2020-0188,2020-11-18,17:43:34,18:05:32,NA,incomplete,49,filling,0,left,Red_Plus_Chess_3.jpg,Purple_Circle_Chess_4.jpg,Blue_Plus_Stripes_2.jpg,left,1374.0849999993807,true,high,NA,NA,NA,NA,NA,NA,NA,false
WHs8P4tv,3lvtfb9df8vfwjy33dzq8w9nvhnqgc,3wmoan2srfafy3903ibxtndkqvkvn3,WHs8P4tv,2020-0188,2020-11-18,17:43:34,18:05:32,NA,incomplete,50,shape,0,right,Blue_Plus_Grid_4.jpg,Red_Star_Grid_2.jpg,Green_Plus_Stripes_3.jpg,right,1127.4699999995064,true,high,NA,NA,NA,NA,NA,NA,NA,false
WHs8P4tv,3lvtfb9df8vfwjy33dzq8w9nvhnqgc,3wmoan2srfafy3903ibxtndkqvkvn3,WHs8P4tv,2020-0188,2020-11-18,17:43:34,18:05:32,NA,incomplete,51,shape,1,right,Blue_Triangle_Stripes_1.jpg,Green_Circle_Stripes_3.jpg,Red_Triangle_Chess_2.jpg,left,1248.2999999992317,false,high,NA,NA,NA,NA,NA,NA,NA,false
WHs8P4tv,3lvtfb9df8vfwjy33dzq8w9nvhnqgc,3wmoan2srfafy3903ibxtndkqvkvn3,WHs8P4tv,2020-0188,2020-11-18,17:43:34,18:05:32,NA,incomplete,52,shape,1,right,Blue_Circle_Grid_1.jpg,Red_Triangle_Grid_2.jpg,Purple_Circle_Chess_3.jpg,right,1359.7399999998743,true,high,NA,NA,NA,NA,NA,NA,NA,false
WHs8P4tv,3lvtfb9df8vfwjy33dzq8w9nvhnqgc,3wmoan2srfafy3903ibxtndkqvkvn3,WHs8P4tv,2020-0188,2020-11-18,17:43:34,18:05:32,NA,incomplete,53,shape,1,right,Green_Circle_Stripes_2.jpg,Purple_Triangle_Stripes_4.jpg,Blue_Circle_Dots_3.jpg,right,689.089999999851,true,high,NA,NA,NA,NA,NA,NA,NA,false
WHs8P4tv,3lvtfb9df8vfwjy33dzq8w9nvhnqgc,3wmoan2srfafy3903ibxtndkqvkvn3,WHs8P4tv,2020-0188,2020-11-18,17:43:34,18:05:32,NA,incomplete,54,shape,1,right,Green_Circle_Stripes_1.jpg,Blue_Triangle_Stripes_4.jpg,Red_Circle_Grid_2.jpg,right,780.2699999993201,true,high,NA,NA,NA,NA,NA,NA,NA,false
WHs8P4tv,3lvtfb9df8vfwjy33dzq8w9nvhnqgc,3wmoan2srfafy3903ibxtndkqvkvn3,WHs8P4tv,2020-0188,2020-11-18,17:43:34,18:05:32,NA,incomplete,55,shape,1,left,Purple_Circle_Grid_1.jpg,Red_Circle_Stripes_4.jpg,Green_Star_Grid_3.jpg,left,737.3250000000698,true,high,NA,NA,NA,NA,NA,NA,NA,false
WHs8P4tv,3lvtfb9df8vfwjy33dzq8w9nvhnqgc,3wmoan2srfafy3903ibxtndkqvkvn3,WHs8P4tv,2020-0188,2020-11-18,17:43:34,18:05:32,NA,incomplete,56,shape,0,left,Green_Triangle_Dots_3.jpg,Red_Triangle_Chess_1.jpg,Blue_Circle_Dots_4.jpg,left,740.0799999994924,true,high,NA,NA,NA,NA,NA,NA,NA,false
WHs8P4tv,3lvtfb9df8vfwjy33dzq8w9nvhnqgc,3wmoan2srfafy3903ibxtndkqvkvn3,WHs8P4tv,2020-0188,2020-11-18,17:43:34,18:05:32,NA,incomplete,57,shape,1,left,Green_Plus_Chess_2.jpg,Purple_Plus_Grid_4.jpg,Red_Circle_Chess_3.jpg,left,1817.2849999992177,true,high,NA,NA,NA,NA,NA,NA,NA,false
WHs8P4tv,3lvtfb9df8vfwjy33dzq8w9nvhnqgc,3wmoan2srfafy3903ibxtndkqvkvn3,WHs8P4tv,2020-0188,2020-11-18,17:43:34,18:05:32,NA,incomplete,58,shape,1,left,Red_Plus_Chess_3.jpg,Green_Plus_Stripes_4.jpg,Blue_Triangle_Chess_1.jpg,left,1043.685000000638,true,high,NA,NA,NA,NA,NA,NA,NA,false
WHs8P4tv,3lvtfb9df8vfwjy33dzq8w9nvhnqgc,3wmoan2srfafy3903ibxtndkqvkvn3,WHs8P4tv,2020-0188,2020-11-18,17:43:34,18:05:32,NA,incomplete,59,shape,1,right,Green_Circle_Dots_4.jpg,Purple_Star_Dots_2.jpg,Blue_Circle_Chess_3.jpg,right,1062.869999999646,true,high,NA,NA,NA,NA,NA,NA,NA,false
WHs8P4tv,3lvtfb9df8vfwjy33dzq8w9nvhnqgc,3wmoan2srfafy3903ibxtndkqvkvn3,WHs8P4tv,2020-0188,2020-11-18,17:43:34,18:05:32,NA,incomplete,60,filling,1,right,Purple_Circle_Dots_4.jpg,Green_Circle_Chess_2.jpg,Red_Triangle_Dots_3.jpg,left,811.6200000003446,false,high,NA,NA,NA,NA,NA,NA,NA,false
WHs8P4tv,3lvtfb9df8vfwjy33dzq8w9nvhnqgc,3wmoan2srfafy3903ibxtndkqvkvn3,WHs8P4tv,2020-0188,2020-11-18,17:43:34,18:05:32,NA,incomplete,61,filling,0,left,Purple_Plus_Stripes_2.jpg,Red_Circle_Stripes_3.jpg,Green_Plus_Grid_1.jpg,right,1944.8099999990081,false,high,NA,NA,NA,NA,NA,NA,NA,false
WHs8P4tv,3lvtfb9df8vfwjy33dzq8w9nvhnqgc,3wmoan2srfafy3903ibxtndkqvkvn3,WHs8P4tv,2020-0188,2020-11-18,17:43:34,18:05:32,NA,incomplete,62,filling,1,left,Purple_Circle_Stripes_3.jpg,Red_Plus_Stripes_1.jpg,Green_Circle_Dots_4.jpg,left,1374.7650000004796,true,high,NA,NA,NA,NA,NA,NA,NA,false
WHs8P4tv,3lvtfb9df8vfwjy33dzq8w9nvhnqgc,3wmoan2srfafy3903ibxtndkqvkvn3,WHs8P4tv,2020-0188,2020-11-18,17:43:34,18:05:32,NA,incomplete,63,filling,0,right,Blue_Triangle_Dots_1.jpg,Red_Triangle_Chess_3.jpg,Green_Plus_Dots_2.jpg,right,1023.2699999996694,true,high,NA,NA,NA,NA,NA,NA,NA,false
WHs8P4tv,3lvtfb9df8vfwjy33dzq8w9nvhnqgc,3wmoan2srfafy3903ibxtndkqvkvn3,WHs8P4tv,2020-0188,2020-11-18,17:43:34,18:05:32,NA,incomplete,64,filling,1,right,Purple_Star_Dots_3.jpg,Green_Star_Chess_2.jpg,Red_Circle_Dots_1.jpg,right,1650.9899999999907,true,high,NA,NA,NA,NA,NA,NA,NA,false
WHs8P4tv,3lvtfb9df8vfwjy33dzq8w9nvhnqgc,3wmoan2srfafy3903ibxtndkqvkvn3,WHs8P4tv,2020-0188,2020-11-18,17:43:34,18:05:32,NA,incomplete,65,filling,0,right,Green_Triangle_Chess_3.jpg,Blue_Triangle_Dots_1.jpg,Purple_Plus_Chess_2.jpg,right,1272.6650000003865,true,high,NA,NA,NA,NA,NA,NA,NA,false
WHs8P4tv,3lvtfb9df8vfwjy33dzq8w9nvhnqgc,3wmoan2srfafy3903ibxtndkqvkvn3,WHs8P4tv,2020-0188,2020-11-18,17:43:34,18:05:32,NA,incomplete,66,filling,1,left,Green_Circle_Dots_1.jpg,Purple_Triangle_Dots_4.jpg,Blue_Circle_Grid_2.jpg,right,1283.9249999998137,false,high,NA,NA,NA,NA,NA,NA,NA,false
WHs8P4tv,3lvtfb9df8vfwjy33dzq8w9nvhnqgc,3wmoan2srfafy3903ibxtndkqvkvn3,WHs8P4tv,2020-0188,2020-11-18,17:43:34,18:05:32,NA,incomplete,67,filling,1,right,Purple_Plus_Stripes_3.jpg,Red_Plus_Chess_2.jpg,Green_Triangle_Stripes_4.jpg,right,1458.6350000008242,true,high,NA,NA,NA,NA,NA,NA,NA,false
WHs8P4tv,3lvtfb9df8vfwjy33dzq8w9nvhnqgc,3wmoan2srfafy3903ibxtndkqvkvn3,WHs8P4tv,2020-0188,2020-11-18,17:43:34,18:05:32,NA,incomplete,68,filling,1,left,Green_Plus_Chess_2.jpg,Purple_Circle_Chess_3.jpg,Blue_Plus_Stripes_1.jpg,left,983.0249999995576,true,high,NA,NA,NA,NA,NA,NA,NA,false
WHs8P4tv,3lvtfb9df8vfwjy33dzq8w9nvhnqgc,3wmoan2srfafy3903ibxtndkqvkvn3,WHs8P4tv,2020-0188,2020-11-18,17:43:34,18:05:32,NA,incomplete,69,filling,1,left,Blue_Star_Stripes_3.jpg,Purple_Triangle_Stripes_2.jpg,Green_Star_Dots_4.jpg,left,947.0400000009686,true,high,NA,NA,NA,NA,NA,NA,NA,false
WHs8P4tv,3lvtfb9df8vfwjy33dzq8w9nvhnqgc,3wmoan2srfafy3903ibxtndkqvkvn3,WHs8P4tv,2020-0188,2020-11-18,17:43:34,18:05:32,NA,incomplete,70,shape,1,left,Green_Circle_Grid_4.jpg,Red_Circle_Stripes_1.jpg,Purple_Star_Grid_3.jpg,right,1206.749999999418,false,high,NA,NA,NA,NA,NA,NA,NA,false
WHs8P4tv,3lvtfb9df8vfwjy33dzq8w9nvhnqgc,3wmoan2srfafy3903ibxtndkqvkvn3,WHs8P4tv,2020-0188,2020-11-18,17:43:34,18:05:32,NA,incomplete,71,shape,1,left,Purple_Circle_Chess_2.jpg,Red_Circle_Stripes_4.jpg,Green_Plus_Chess_3.jpg,right,1404.0999999997439,false,high,NA,NA,NA,NA,NA,NA,NA,false
WHs8P4tv,3lvtfb9df8vfwjy33dzq8w9nvhnqgc,3wmoan2srfafy3903ibxtndkqvkvn3,WHs8P4tv,2020-0188,2020-11-18,17:43:34,18:05:32,NA,incomplete,72,shape,0,left,Purple_Plus_Chess_2.jpg,Green_Plus_Stripes_1.jpg,Red_Circle_Chess_3.jpg,left,757.7750000000233,true,high,NA,NA,NA,NA,NA,NA,NA,false
WHs8P4tv,3lvtfb9df8vfwjy33dzq8w9nvhnqgc,3wmoan2srfafy3903ibxtndkqvkvn3,WHs8P4tv,2020-0188,2020-11-18,17:43:34,18:05:32,NA,incomplete,73,shape,1,left,Purple_Triangle_Dots_1.jpg,Green_Triangle_Chess_2.jpg,Red_Star_Dots_4.jpg,right,1370.075000000652,false,high,NA,NA,NA,NA,NA,NA,NA,false
WHs8P4tv,3lvtfb9df8vfwjy33dzq8w9nvhnqgc,3wmoan2srfafy3903ibxtndkqvkvn3,WHs8P4tv,2020-0188,2020-11-18,17:43:34,18:05:32,NA,incomplete,74,shape,1,right,Green_Plus_Dots_2.jpg,Blue_Star_Dots_1.jpg,Red_Plus_Chess_3.jpg,right,781.3900000001304,true,high,NA,NA,NA,NA,NA,NA,NA,false
WHs8P4tv,3lvtfb9df8vfwjy33dzq8w9nvhnqgc,3wmoan2srfafy3903ibxtndkqvkvn3,WHs8P4tv,2020-0188,2020-11-18,17:43:34,18:05:32,NA,incomplete,75,shape,1,left,Blue_Circle_Chess_1.jpg,Green_Circle_Dots_2.jpg,Purple_Plus_Chess_4.jpg,left,698.4449999999488,true,high,NA,NA,NA,NA,NA,NA,NA,false
WHs8P4tv,3lvtfb9df8vfwjy33dzq8w9nvhnqgc,3wmoan2srfafy3903ibxtndkqvkvn3,WHs8P4tv,2020-0188,2020-11-18,17:43:34,18:05:32,NA,incomplete,76,shape,1,left,Blue_Circle_Stripes_1.jpg,Purple_Circle_Chess_2.jpg,Green_Star_Stripes_4.jpg,left,673.0750000005355,true,high,NA,NA,NA,NA,NA,NA,NA,false
WHs8P4tv,3lvtfb9df8vfwjy33dzq8w9nvhnqgc,3wmoan2srfafy3903ibxtndkqvkvn3,WHs8P4tv,2020-0188,2020-11-18,17:43:34,18:05:32,NA,incomplete,77,shape,1,left,Red_Star_Chess_4.jpg,Purple_Star_Stripes_2.jpg,Green_Triangle_Chess_1.jpg,left,657.0200000006007,true,high,NA,NA,NA,NA,NA,NA,NA,false
WHs8P4tv,3lvtfb9df8vfwjy33dzq8w9nvhnqgc,3wmoan2srfafy3903ibxtndkqvkvn3,WHs8P4tv,2020-0188,2020-11-18,17:43:34,18:05:32,NA,incomplete,78,shape,0,left,Green_Plus_Stripes_4.jpg,Red_Plus_Chess_1.jpg,Blue_Circle_Stripes_3.jpg,left,650.7700000002515,true,high,NA,NA,NA,NA,NA,NA,NA,false
WHs8P4tv,3lvtfb9df8vfwjy33dzq8w9nvhnqgc,3wmoan2srfafy3903ibxtndkqvkvn3,WHs8P4tv,2020-0188,2020-11-18,17:43:34,18:05:32,NA,incomplete,79,shape,1,left,Red_Circle_Dots_2.jpg,Purple_Circle_Grid_1.jpg,Green_Star_Dots_4.jpg,left,976.8399999993853,true,high,NA,NA,NA,NA,NA,NA,NA,false
WHs8P4tv,3lvtfb9df8vfwjy33dzq8w9nvhnqgc,3wmoan2srfafy3903ibxtndkqvkvn3,WHs8P4tv,2020-0188,2020-11-18,17:43:34,18:05:32,NA,incomplete,80,filling,1,right,Green_Circle_Stripes_4.jpg,Red_Circle_Dots_2.jpg,Purple_Triangle_Stripes_3.jpg,left,794.4050000004936,false,high,NA,NA,NA,NA,NA,NA,NA,false
WHs8P4tv,3lvtfb9df8vfwjy33dzq8w9nvhnqgc,3wmoan2srfafy3903ibxtndkqvkvn3,WHs8P4tv,2020-0188,2020-11-18,17:43:34,18:05:32,NA,incomplete,81,filling,1,right,Red_Plus_Dots_3.jpg,Green_Plus_Stripes_2.jpg,Purple_Triangle_Dots_1.jpg,left,1376.6800000012154,false,high,NA,NA,NA,NA,NA,NA,NA,false
WHs8P4tv,3lvtfb9df8vfwjy33dzq8w9nvhnqgc,3wmoan2srfafy3903ibxtndkqvkvn3,WHs8P4tv,2020-0188,2020-11-18,17:43:34,18:05:32,NA,incomplete,82,filling,1,left,Purple_Circle_Dots_4.jpg,Green_Triangle_Dots_2.jpg,Blue_Circle_Stripes_1.jpg,left,1118.294999998412,true,high,NA,NA,NA,NA,NA,NA,NA,false
WHs8P4tv,3lvtfb9df8vfwjy33dzq8w9nvhnqgc,3wmoan2srfafy3903ibxtndkqvkvn3,WHs8P4tv,2020-0188,2020-11-18,17:43:34,18:05:32,NA,incomplete,83,filling,1,right,Red_Plus_Grid_4.jpg,Purple_Plus_Stripes_3.jpg,Green_Circle_Grid_1.jpg,right,943.670000000624,true,high,NA,NA,NA,NA,NA,NA,NA,false
WHs8P4tv,3lvtfb9df8vfwjy33dzq8w9nvhnqgc,3wmoan2srfafy3903ibxtndkqvkvn3,WHs8P4tv,2020-0188,2020-11-18,17:43:34,18:05:32,NA,incomplete,84,filling,0,right,Red_Circle_Dots_2.jpg,Green_Circle_Grid_1.jpg,Blue_Triangle_Dots_3.jpg,right,1137.2049999991432,true,high,NA,NA,NA,NA,NA,NA,NA,false
WHs8P4tv,3lvtfb9df8vfwjy33dzq8w9nvhnqgc,3wmoan2srfafy3903ibxtndkqvkvn3,WHs8P4tv,2020-0188,2020-11-18,17:43:34,18:05:32,NA,incomplete,85,filling,0,left,Green_Star_Grid_3.jpg,Purple_Triangle_Grid_2.jpg,Blue_Star_Chess_1.jpg,right,1006.0049999991897,false,high,NA,NA,NA,NA,NA,NA,NA,false
WHs8P4tv,3lvtfb9df8vfwjy33dzq8w9nvhnqgc,3wmoan2srfafy3903ibxtndkqvkvn3,WHs8P4tv,2020-0188,2020-11-18,17:43:34,18:05:32,NA,incomplete,86,filling,1,left,Purple_Triangle_Stripes_2.jpg,Green_Circle_Stripes_3.jpg,Red_Triangle_Dots_1.jpg,right,1170.1649999994552,false,high,NA,NA,NA,NA,NA,NA,NA,false
WHs8P4tv,3lvtfb9df8vfwjy33dzq8w9nvhnqgc,3wmoan2srfafy3903ibxtndkqvkvn3,WHs8P4tv,2020-0188,2020-11-18,17:43:34,18:05:32,NA,incomplete,87,filling,1,left,Purple_Plus_Stripes_1.jpg,Red_Circle_Stripes_2.jpg,Green_Plus_Chess_4.jpg,left,1073.1850000011036,true,high,NA,NA,NA,NA,NA,NA,NA,false
WHs8P4tv,3lvtfb9df8vfwjy33dzq8w9nvhnqgc,3wmoan2srfafy3903ibxtndkqvkvn3,WHs8P4tv,2020-0188,2020-11-18,17:43:34,18:05:32,NA,incomplete,88,filling,1,left,Blue_Triangle_Chess_4.jpg,Purple_Plus_Chess_1.jpg,Green_Triangle_Stripes_2.jpg,left,1051.5450000002747,true,high,NA,NA,NA,NA,NA,NA,NA,false
WHs8P4tv,3lvtfb9df8vfwjy33dzq8w9nvhnqgc,3wmoan2srfafy3903ibxtndkqvkvn3,WHs8P4tv,2020-0188,2020-11-18,17:43:34,18:05:32,NA,incomplete,89,filling,1,left,Red_Circle_Dots_1.jpg,Purple_Star_Dots_2.jpg,Green_Circle_Chess_4.jpg,left,1088.3699999994133,true,high,NA,NA,NA,NA,NA,NA,NA,false
WHs8P4tv,3lvtfb9df8vfwjy33dzq8w9nvhnqgc,3wmoan2srfafy3903ibxtndkqvkvn3,WHs8P4tv,2020-0188,2020-11-18,17:43:34,18:05:32,NA,incomplete,90,shape,1,left,Red_Triangle_Dots_3.jpg,Purple_Triangle_Chess_2.jpg,Blue_Circle_Dots_1.jpg,right,1069.0350000003818,false,high,NA,NA,NA,NA,NA,NA,NA,false
WHs8P4tv,3lvtfb9df8vfwjy33dzq8w9nvhnqgc,3wmoan2srfafy3903ibxtndkqvkvn3,WHs8P4tv,2020-0188,2020-11-18,17:43:34,18:05:32,NA,incomplete,91,shape,1,left,Red_Triangle_Stripes_2.jpg,Green_Triangle_Grid_4.jpg,Purple_Circle_Stripes_3.jpg,right,1024.0049999993062,false,high,NA,NA,NA,NA,NA,NA,NA,false
WHs8P4tv,3lvtfb9df8vfwjy33dzq8w9nvhnqgc,3wmoan2srfafy3903ibxtndkqvkvn3,WHs8P4tv,2020-0188,2020-11-18,17:43:34,18:05:32,NA,incomplete,92,shape,1,left,Red_Star_Grid_4.jpg,Green_Star_Dots_2.jpg,Purple_Circle_Grid_1.jpg,left,764.9650000003166,true,high,NA,NA,NA,NA,NA,NA,NA,false
WHs8P4tv,3lvtfb9df8vfwjy33dzq8w9nvhnqgc,3wmoan2srfafy3903ibxtndkqvkvn3,WHs8P4tv,2020-0188,2020-11-18,17:43:34,18:05:32,NA,incomplete,93,shape,1,right,Red_Triangle_Chess_4.jpg,Green_Circle_Chess_3.jpg,Blue_Triangle_Dots_2.jpg,right,878.9800000012619,true,high,NA,NA,NA,NA,NA,NA,NA,false
WHs8P4tv,3lvtfb9df8vfwjy33dzq8w9nvhnqgc,3wmoan2srfafy3903ibxtndkqvkvn3,WHs8P4tv,2020-0188,2020-11-18,17:43:34,18:05:32,NA,incomplete,94,shape,1,left,Purple_Circle_Dots_4.jpg,Blue_Circle_Chess_1.jpg,Green_Plus_Dots_2.jpg,left,857.5350000009639,true,high,NA,NA,NA,NA,NA,NA,NA,false
WHs8P4tv,3lvtfb9df8vfwjy33dzq8w9nvhnqgc,3wmoan2srfafy3903ibxtndkqvkvn3,WHs8P4tv,2020-0188,2020-11-18,17:43:34,18:05:32,NA,incomplete,95,shape,0,left,Green_Plus_Dots_4.jpg,Blue_Plus_Stripes_1.jpg,Red_Triangle_Dots_2.jpg,left,814.5199999999022,true,high,NA,NA,NA,NA,NA,NA,NA,false
WHs8P4tv,3lvtfb9df8vfwjy33dzq8w9nvhnqgc,3wmoan2srfafy3903ibxtndkqvkvn3,WHs8P4tv,2020-0188,2020-11-18,17:43:34,18:05:32,NA,incomplete,96,shape,1,left,Red_Star_Grid_1.jpg,Purple_Star_Stripes_3.jpg,Blue_Plus_Grid_2.jpg,left,956.3550000002142,true,high,NA,NA,NA,NA,NA,NA,NA,false
WHs8P4tv,3lvtfb9df8vfwjy33dzq8w9nvhnqgc,3wmoan2srfafy3903ibxtndkqvkvn3,WHs8P4tv,2020-0188,2020-11-18,17:43:34,18:05:32,NA,incomplete,97,shape,1,left,Blue_Circle_Chess_4.jpg,Green_Circle_Dots_3.jpg,Red_Star_Chess_1.jpg,left,826.5599999994738,true,high,NA,NA,NA,NA,NA,NA,NA,false
WHs8P4tv,3lvtfb9df8vfwjy33dzq8w9nvhnqgc,3wmoan2srfafy3903ibxtndkqvkvn3,WHs8P4tv,2020-0188,2020-11-18,17:43:34,18:05:32,NA,incomplete,98,shape,1,left,Red_Triangle_Dots_1.jpg,Green_Triangle_Chess_3.jpg,Blue_Star_Dots_4.jpg,left,974.7900000001537,true,high,NA,NA,NA,NA,NA,NA,NA,false
WHs8P4tv,3lvtfb9df8vfwjy33dzq8w9nvhnqgc,3wmoan2srfafy3903ibxtndkqvkvn3,WHs8P4tv,2020-0188,2020-11-18,17:43:34,18:05:32,NA,incomplete,99,shape,1,right,Purple_Triangle_Chess_4.jpg,Red_Plus_Chess_2.jpg,Green_Triangle_Grid_3.jpg,right,746.6800000001676,true,high,NA,NA,NA,NA,NA,NA,NA,false
WHs8P4tv,3lvtfb9df8vfwjy33dzq8w9nvhnqgc,3wmoan2srfafy3903ibxtndkqvkvn3,WHs8P4tv,2020-0188,2020-11-18,17:43:34,18:05:32,NA,incomplete,100,filling,0,right,Red_Plus_Dots_1.jpg,Blue_Plus_Stripes_4.jpg,Purple_Circle_Dots_3.jpg,left,694.3299999984447,false,high,NA,NA,NA,NA,NA,NA,NA,false
WHs8P4tv,3lvtfb9df8vfwjy33dzq8w9nvhnqgc,3wmoan2srfafy3903ibxtndkqvkvn3,WHs8P4tv,2020-0188,2020-11-18,17:43:34,18:05:32,NA,incomplete,101,filling,1,right,Green_Plus_Chess_2.jpg,Red_Plus_Dots_1.jpg,Purple_Triangle_Chess_3.jpg,left,853.4900000012713,false,high,NA,NA,NA,NA,NA,NA,NA,false
WHs8P4tv,3lvtfb9df8vfwjy33dzq8w9nvhnqgc,3wmoan2srfafy3903ibxtndkqvkvn3,WHs8P4tv,2020-0188,2020-11-18,17:43:34,18:05:32,NA,incomplete,102,filling,1,right,Purple_Plus_Stripes_3.jpg,Green_Plus_Dots_1.jpg,Blue_Star_Stripes_2.jpg,left,615.8049999994691,false,high,NA,NA,NA,NA,NA,NA,NA,false
WHs8P4tv,3lvtfb9df8vfwjy33dzq8w9nvhnqgc,3wmoan2srfafy3903ibxtndkqvkvn3,WHs8P4tv,2020-0188,2020-11-18,17:43:34,18:05:32,NA,incomplete,103,filling,1,right,Green_Plus_Grid_4.jpg,Red_Plus_Stripes_3.jpg,Blue_Circle_Grid_2.jpg,right,1036.6900000008754,true,high,NA,NA,NA,NA,NA,NA,NA,false
WHs8P4tv,3lvtfb9df8vfwjy33dzq8w9nvhnqgc,3wmoan2srfafy3903ibxtndkqvkvn3,WHs8P4tv,2020-0188,2020-11-18,17:43:34,18:05:32,NA,incomplete,104,filling,1,left,Purple_Triangle_Grid_1.jpg,Red_Circle_Grid_4.jpg,Blue_Triangle_Stripes_2.jpg,left,971.6600000010803,true,high,NA,NA,NA,NA,NA,NA,NA,false
WHs8P4tv,3lvtfb9df8vfwjy33dzq8w9nvhnqgc,3wmoan2srfafy3903ibxtndkqvkvn3,WHs8P4tv,2020-0188,2020-11-18,17:43:34,18:05:32,NA,incomplete,105,filling,1,left,Green_Star_Stripes_3.jpg,Purple_Plus_Stripes_4.jpg,Blue_Star_Chess_2.jpg,left,1291.1400000011781,true,high,NA,NA,NA,NA,NA,NA,NA,false
WHs8P4tv,3lvtfb9df8vfwjy33dzq8w9nvhnqgc,3wmoan2srfafy3903ibxtndkqvkvn3,WHs8P4tv,2020-0188,2020-11-18,17:43:34,18:05:32,NA,incomplete,106,filling,1,left,Red_Triangle_Stripes_1.jpg,Green_Star_Stripes_4.jpg,Purple_Triangle_Chess_3.jpg,left,1231.469999998808,true,high,NA,NA,NA,NA,NA,NA,NA,false
WHs8P4tv,3lvtfb9df8vfwjy33dzq8w9nvhnqgc,3wmoan2srfafy3903ibxtndkqvkvn3,WHs8P4tv,2020-0188,2020-11-18,17:43:34,18:05:32,NA,incomplete,107,filling,1,right,Green_Star_Stripes_2.jpg,Purple_Star_Dots_1.jpg,Blue_Triangle_Stripes_4.jpg,right,1106.4400000014575,true,high,NA,NA,NA,NA,NA,NA,NA,false
WHs8P4tv,3lvtfb9df8vfwjy33dzq8w9nvhnqgc,3wmoan2srfafy3903ibxtndkqvkvn3,WHs8P4tv,2020-0188,2020-11-18,17:43:34,18:05:32,NA,incomplete,108,filling,1,left,Green_Plus_Dots_1.jpg,Blue_Triangle_Dots_3.jpg,Red_Plus_Grid_2.jpg,left,927.2199999996228,true,high,NA,NA,NA,NA,NA,NA,NA,false
WHs8P4tv,3lvtfb9df8vfwjy33dzq8w9nvhnqgc,3wmoan2srfafy3903ibxtndkqvkvn3,WHs8P4tv,2020-0188,2020-11-18,17:43:34,18:05:32,NA,incomplete,109,filling,1,left,Purple_Triangle_Grid_3.jpg,Red_Circle_Grid_1.jpg,Green_Triangle_Dots_2.jpg,left,1079.2250000012573,true,high,NA,NA,NA,NA,NA,NA,NA,false
WHs8P4tv,3lvtfb9df8vfwjy33dzq8w9nvhnqgc,3wmoan2srfafy3903ibxtndkqvkvn3,WHs8P4tv,2020-0188,2020-11-18,17:43:34,18:05:32,NA,incomplete,110,shape,1,left,Purple_Plus_Chess_4.jpg,Blue_Plus_Dots_2.jpg,Red_Star_Chess_3.jpg,right,900.1300000000047,false,high,NA,NA,NA,NA,NA,NA,NA,false
WHs8P4tv,3lvtfb9df8vfwjy33dzq8w9nvhnqgc,3wmoan2srfafy3903ibxtndkqvkvn3,WHs8P4tv,2020-0188,2020-11-18,17:43:34,18:05:32,NA,incomplete,111,shape,1,left,Blue_Plus_Chess_1.jpg,Purple_Plus_Grid_4.jpg,Green_Star_Chess_3.jpg,right,1072.1649999995716,false,high,NA,NA,NA,NA,NA,NA,NA,false
WHs8P4tv,3lvtfb9df8vfwjy33dzq8w9nvhnqgc,3wmoan2srfafy3903ibxtndkqvkvn3,WHs8P4tv,2020-0188,2020-11-18,17:43:34,18:05:32,NA,incomplete,112,shape,1,left,Green_Star_Dots_3.jpg,Blue_Star_Chess_2.jpg,Purple_Triangle_Dots_4.jpg,left,628.5200000002515,true,high,NA,NA,NA,NA,NA,NA,NA,false
WHs8P4tv,3lvtfb9df8vfwjy33dzq8w9nvhnqgc,3wmoan2srfafy3903ibxtndkqvkvn3,WHs8P4tv,2020-0188,2020-11-18,17:43:34,18:05:32,NA,incomplete,113,shape,1,left,Blue_Star_Chess_1.jpg,Purple_Star_Stripes_3.jpg,Green_Plus_Chess_4.jpg,left,967.1849999994738,true,high,NA,NA,NA,NA,NA,NA,NA,false
WHs8P4tv,3lvtfb9df8vfwjy33dzq8w9nvhnqgc,3wmoan2srfafy3903ibxtndkqvkvn3,WHs8P4tv,2020-0188,2020-11-18,17:43:34,18:05:32,NA,incomplete,114,shape,1,left,Purple_Star_Grid_3.jpg,Green_Star_Chess_4.jpg,Red_Triangle_Grid_1.jpg,left,1018.9950000003446,true,high,NA,NA,NA,NA,NA,NA,NA,false
WHs8P4tv,3lvtfb9df8vfwjy33dzq8w9nvhnqgc,3wmoan2srfafy3903ibxtndkqvkvn3,WHs8P4tv,2020-0188,2020-11-18,17:43:34,18:05:32,NA,incomplete,115,shape,1,right,Blue_Star_Grid_3.jpg,Green_Circle_Grid_1.jpg,Purple_Star_Stripes_4.jpg,right,950.0200000002515,true,high,NA,NA,NA,NA,NA,NA,NA,false
WHs8P4tv,3lvtfb9df8vfwjy33dzq8w9nvhnqgc,3wmoan2srfafy3903ibxtndkqvkvn3,WHs8P4tv,2020-0188,2020-11-18,17:43:34,18:05:32,NA,incomplete,116,shape,1,right,Blue_Star_Grid_3.jpg,Purple_Plus_Grid_1.jpg,Red_Star_Stripes_4.jpg,right,806.4850000009174,true,high,NA,NA,NA,NA,NA,NA,NA,false
WHs8P4tv,3lvtfb9df8vfwjy33dzq8w9nvhnqgc,3wmoan2srfafy3903ibxtndkqvkvn3,WHs8P4tv,2020-0188,2020-11-18,17:43:34,18:05:32,NA,incomplete,117,shape,1,left,Purple_Star_Grid_4.jpg,Blue_Star_Chess_1.jpg,Red_Circle_Grid_3.jpg,left,639.6150000001071,true,high,NA,NA,NA,NA,NA,NA,NA,false
WHs8P4tv,3lvtfb9df8vfwjy33dzq8w9nvhnqgc,3wmoan2srfafy3903ibxtndkqvkvn3,WHs8P4tv,2020-0188,2020-11-18,17:43:34,18:05:32,NA,incomplete,118,shape,1,left,Green_Plus_Grid_3.jpg,Purple_Plus_Chess_4.jpg,Blue_Star_Grid_2.jpg,left,923.7350000003353,true,high,NA,NA,NA,NA,NA,NA,NA,false
WHs8P4tv,3lvtfb9df8vfwjy33dzq8w9nvhnqgc,3wmoan2srfafy3903ibxtndkqvkvn3,WHs8P4tv,2020-0188,2020-11-18,17:43:34,18:05:32,NA,incomplete,119,shape,1,left,Purple_Triangle_Chess_2.jpg,Blue_Triangle_Grid_4.jpg,Red_Plus_Chess_3.jpg,left,596.3049999991199,true,high,NA,NA,NA,NA,NA,NA,NA,false
WHs8P4tv,3lvtfb9df8vfwjy33dzq8w9nvhnqgc,3wmoan2srfafy3903ibxtndkqvkvn3,WHs8P4tv,2020-0188,2020-11-18,17:43:34,18:05:32,NA,incomplete,120,number,1,left,Purple_Plus_Grid_3.jpg,Green_Circle_Dots_3.jpg,Purple_Star_Chess_2.jpg,right,1251.354999998468,false,high,NA,NA,NA,NA,NA,NA,NA,false
WHs8P4tv,3lvtfb9df8vfwjy33dzq8w9nvhnqgc,3wmoan2srfafy3903ibxtndkqvkvn3,WHs8P4tv,2020-0188,2020-11-18,17:43:34,18:05:32,NA,incomplete,121,number,1,left,Blue_Plus_Stripes_4.jpg,Red_Circle_Grid_4.jpg,Blue_Star_Chess_3.jpg,left,814.0050000002375,true,high,NA,NA,NA,NA,NA,NA,NA,false
WHs8P4tv,3lvtfb9df8vfwjy33dzq8w9nvhnqgc,3wmoan2srfafy3903ibxtndkqvkvn3,WHs8P4tv,2020-0188,2020-11-18,17:43:34,18:05:32,NA,incomplete,122,number,0,left,Green_Circle_Dots_4.jpg,Blue_Plus_Grid_4.jpg,Green_Triangle_Stripes_2.jpg,left,600.800000000163,true,high,NA,NA,NA,NA,NA,NA,NA,false
WHs8P4tv,3lvtfb9df8vfwjy33dzq8w9nvhnqgc,3wmoan2srfafy3903ibxtndkqvkvn3,WHs8P4tv,2020-0188,2020-11-18,17:43:34,18:05:32,NA,incomplete,123,number,1,left,Red_Star_Dots_4.jpg,Purple_Circle_Chess_4.jpg,Red_Plus_Grid_1.jpg,right,836.9000000002561,false,high,NA,NA,NA,NA,NA,NA,NA,false
WHs8P4tv,3lvtfb9df8vfwjy33dzq8w9nvhnqgc,3wmoan2srfafy3903ibxtndkqvkvn3,WHs8P4tv,2020-0188,2020-11-18,17:43:34,18:05:32,NA,incomplete,124,number,0,left,Blue_Triangle_Dots_4.jpg,Green_Circle_Chess_4.jpg,Blue_Plus_Grid_2.jpg,left,562.6000000010245,true,high,NA,NA,NA,NA,NA,NA,NA,false
WHs8P4tv,3lvtfb9df8vfwjy33dzq8w9nvhnqgc,3wmoan2srfafy3903ibxtndkqvkvn3,WHs8P4tv,2020-0188,2020-11-18,17:43:34,18:05:32,NA,incomplete,125,number,1,left,Purple_Triangle_Dots_1.jpg,Green_Star_Grid_1.jpg,Purple_Plus_Stripes_4.jpg,right,1567.2000000013504,false,high,NA,NA,NA,NA,NA,NA,NA,false
WHs8P4tv,3lvtfb9df8vfwjy33dzq8w9nvhnqgc,3wmoan2srfafy3903ibxtndkqvkvn3,WHs8P4tv,2020-0188,2020-11-18,17:43:34,18:05:32,NA,incomplete,126,number,1,left,Blue_Triangle_Chess_1.jpg,Purple_Star_Grid_1.jpg,Blue_Circle_Stripes_2.jpg,left,1312.294999999809,true,high,NA,NA,NA,NA,NA,NA,NA,false
WHs8P4tv,3lvtfb9df8vfwjy33dzq8w9nvhnqgc,3wmoan2srfafy3903ibxtndkqvkvn3,WHs8P4tv,2020-0188,2020-11-18,17:43:34,18:05:32,NA,incomplete,127,number,1,right,Purple_Circle_Dots_3.jpg,Purple_Plus_Stripes_2.jpg,Blue_Star_Grid_3.jpg,right,767.0150000012945,true,high,NA,NA,NA,NA,NA,NA,NA,false
WHs8P4tv,3lvtfb9df8vfwjy33dzq8w9nvhnqgc,3wmoan2srfafy3903ibxtndkqvkvn3,WHs8P4tv,2020-0188,2020-11-18,17:43:34,18:05:32,NA,incomplete,128,number,1,right,Blue_Plus_Stripes_2.jpg,Blue_Star_Dots_1.jpg,Red_Triangle_Chess_2.jpg,right,814.6299999989569,true,high,NA,NA,NA,NA,NA,NA,NA,false
WHs8P4tv,3lvtfb9df8vfwjy33dzq8w9nvhnqgc,3wmoan2srfafy3903ibxtndkqvkvn3,WHs8P4tv,2020-0188,2020-11-18,17:43:34,18:05:32,NA,incomplete,129,number,1,right,Red_Triangle_Dots_1.jpg,Red_Plus_Chess_4.jpg,Blue_Star_Stripes_1.jpg,right,796.6550000001444,true,high,NA,NA,NA,NA,NA,NA,NA,false
WHs8P4tv,3lvtfb9df8vfwjy33dzq8w9nvhnqgc,3wmoan2srfafy3903ibxtndkqvkvn3,WHs8P4tv,2020-0188,2020-11-18,17:43:34,18:05:32,NA,incomplete,130,number,0,right,Blue_Circle_Stripes_2.jpg,Blue_Plus_Dots_3.jpg,Green_Triangle_Grid_2.jpg,right,715.7249999999767,true,high,NA,NA,NA,NA,NA,NA,NA,false
WHs8P4tv,3lvtfb9df8vfwjy33dzq8w9nvhnqgc,3wmoan2srfafy3903ibxtndkqvkvn3,WHs8P4tv,2020-0188,2020-11-18,17:43:34,18:05:32,NA,incomplete,131,number,1,right,Blue_Circle_Dots_1.jpg,Blue_Star_Grid_3.jpg,Green_Triangle_Chess_1.jpg,right,693.4700000002049,true,high,NA,NA,NA,NA,NA,NA,NA,false
WHs8P4tv,3lvtfb9df8vfwjy33dzq8w9nvhnqgc,3wmoan2srfafy3903ibxtndkqvkvn3,WHs8P4tv,2020-0188,2020-11-18,17:43:34,18:05:32,NA,incomplete,132,number,1,left,Green_Plus_Chess_3.jpg,Purple_Star_Stripes_3.jpg,Green_Circle_Dots_2.jpg,left,804.9499999997206,true,high,NA,NA,NA,NA,NA,NA,NA,false
WHs8P4tv,3lvtfb9df8vfwjy33dzq8w9nvhnqgc,3wmoan2srfafy3903ibxtndkqvkvn3,WHs8P4tv,2020-0188,2020-11-18,17:43:34,18:05:32,NA,incomplete,133,number,1,left,Red_Star_Grid_4.jpg,Green_Triangle_Dots_4.jpg,Red_Plus_Chess_2.jpg,left,839.6799999991199,true,high,NA,NA,NA,NA,NA,NA,NA,false
WHs8P4tv,3lvtfb9df8vfwjy33dzq8w9nvhnqgc,3wmoan2srfafy3903ibxtndkqvkvn3,WHs8P4tv,2020-0188,2020-11-18,17:43:34,18:05:32,NA,incomplete,134,number,0,left,Green_Triangle_Stripes_4.jpg,Red_Plus_Dots_4.jpg,Green_Circle_Chess_3.jpg,left,879.2049999992596,true,high,NA,NA,NA,NA,NA,NA,NA,false
WHs8P4tv,3lvtfb9df8vfwjy33dzq8w9nvhnqgc,3wmoan2srfafy3903ibxtndkqvkvn3,WHs8P4tv,2020-0188,2020-11-18,17:43:34,18:05:32,NA,incomplete,135,number,1,left,Purple_Triangle_Grid_3.jpg,Blue_Star_Chess_3.jpg,Purple_Plus_Stripes_1.jpg,left,698.2950000001583,true,high,NA,NA,NA,NA,NA,NA,NA,false
WHs8P4tv,3lvtfb9df8vfwjy33dzq8w9nvhnqgc,3wmoan2srfafy3903ibxtndkqvkvn3,WHs8P4tv,2020-0188,2020-11-18,17:43:34,18:05:32,NA,incomplete,136,number,1,left,Blue_Circle_Stripes_1.jpg,Red_Triangle_Chess_1.jpg,Blue_Star_Grid_2.jpg,left,1205.794999999809,true,high,NA,NA,NA,NA,NA,NA,NA,false
WHs8P4tv,3lvtfb9df8vfwjy33dzq8w9nvhnqgc,3wmoan2srfafy3903ibxtndkqvkvn3,WHs8P4tv,2020-0188,2020-11-18,17:43:34,18:05:32,NA,incomplete,137,number,1,right,Blue_Circle_Chess_3.jpg,Blue_Triangle_Dots_2.jpg,Purple_Star_Grid_3.jpg,right,801.6349999997765,true,high,NA,NA,NA,NA,NA,NA,NA,false
WHs8P4tv,3lvtfb9df8vfwjy33dzq8w9nvhnqgc,3wmoan2srfafy3903ibxtndkqvkvn3,WHs8P4tv,2020-0188,2020-11-18,17:43:34,18:05:32,NA,incomplete,138,number,0,right,Blue_Star_Dots_1.jpg,Blue_Triangle_Grid_4.jpg,Purple_Circle_Chess_1.jpg,right,766.9550000010058,true,high,NA,NA,NA,NA,NA,NA,NA,false
WHs8P4tv,3lvtfb9df8vfwjy33dzq8w9nvhnqgc,3wmoan2srfafy3903ibxtndkqvkvn3,WHs8P4tv,2020-0188,2020-11-18,17:43:34,18:05:32,NA,incomplete,139,number,1,right,Green_Circle_Stripes_1.jpg,Green_Star_Chess_2.jpg,Blue_Triangle_Dots_1.jpg,right,892.8800000012852,true,high,NA,NA,NA,NA,NA,NA,NA,false
WHs8P4tv,3lvtfb9df8vfwjy33dzq8w9nvhnqgc,3wmoan2srfafy3903ibxtndkqvkvn3,WHs8P4tv,2020-0188,2020-11-18,17:43:34,18:05:32,NA,incomplete,140,color,1,left,Red_Circle_Stripes_4.jpg,Red_Star_Grid_2.jpg,Blue_Triangle_Dots_4.jpg,right,677.5849999993807,false,high,NA,NA,NA,NA,NA,NA,NA,false
WHs8P4tv,3lvtfb9df8vfwjy33dzq8w9nvhnqgc,3wmoan2srfafy3903ibxtndkqvkvn3,WHs8P4tv,2020-0188,2020-11-18,17:43:34,18:05:32,NA,incomplete,141,color,1,right,Red_Circle_Dots_2.jpg,Green_Triangle_Chess_2.jpg,Red_Plus_Grid_1.jpg,left,702.8649999992922,false,high,NA,NA,NA,NA,NA,NA,NA,false
WHs8P4tv,3lvtfb9df8vfwjy33dzq8w9nvhnqgc,3wmoan2srfafy3903ibxtndkqvkvn3,WHs8P4tv,2020-0188,2020-11-18,17:43:34,18:05:32,NA,incomplete,142,color,1,left,Red_Plus_Grid_1.jpg,Red_Circle_Dots_4.jpg,Purple_Triangle_Stripes_1.jpg,left,798.730000000447,true,high,NA,NA,NA,NA,NA,NA,NA,false
WHs8P4tv,3lvtfb9df8vfwjy33dzq8w9nvhnqgc,3wmoan2srfafy3903ibxtndkqvkvn3,WHs8P4tv,2020-0188,2020-11-18,17:43:34,18:05:32,NA,incomplete,143,color,0,left,Red_Star_Grid_3.jpg,Red_Plus_Chess_1.jpg,Green_Circle_Dots_3.jpg,left,707.3949999994365,true,high,NA,NA,NA,NA,NA,NA,NA,false
WHs8P4tv,3lvtfb9df8vfwjy33dzq8w9nvhnqgc,3wmoan2srfafy3903ibxtndkqvkvn3,WHs8P4tv,2020-0188,2020-11-18,17:43:34,18:05:32,NA,incomplete,144,color,1,right,Green_Plus_Grid_1.jpg,Purple_Circle_Dots_1.jpg,Green_Triangle_Stripes_4.jpg,right,931.5000000005821,true,high,NA,NA,NA,NA,NA,NA,NA,false
WHs8P4tv,3lvtfb9df8vfwjy33dzq8w9nvhnqgc,3wmoan2srfafy3903ibxtndkqvkvn3,WHs8P4tv,2020-0188,2020-11-18,17:43:34,18:05:32,NA,incomplete,145,color,1,left,Red_Circle_Chess_2.jpg,Red_Plus_Stripes_3.jpg,Blue_Star_Grid_2.jpg,left,644.1250000006985,true,high,NA,NA,NA,NA,NA,NA,NA,false
WHs8P4tv,3lvtfb9df8vfwjy33dzq8w9nvhnqgc,3wmoan2srfafy3903ibxtndkqvkvn3,WHs8P4tv,2020-0188,2020-11-18,17:43:34,18:05:32,NA,incomplete,146,color,1,left,Red_Circle_Chess_1.jpg,Red_Star_Grid_2.jpg,Purple_Plus_Stripes_1.jpg,left,555.0549999988871,true,high,NA,NA,NA,NA,NA,NA,NA,false
WHs8P4tv,3lvtfb9df8vfwjy33dzq8w9nvhnqgc,3wmoan2srfafy3903ibxtndkqvkvn3,WHs8P4tv,2020-0188,2020-11-18,17:43:34,18:05:32,NA,incomplete,147,color,1,right,Green_Triangle_Chess_2.jpg,Purple_Star_Dots_2.jpg,Green_Circle_Grid_1.jpg,right,543.8799999993062,true,high,NA,NA,NA,NA,NA,NA,NA,false
WHs8P4tv,3lvtfb9df8vfwjy33dzq8w9nvhnqgc,3wmoan2srfafy3903ibxtndkqvkvn3,WHs8P4tv,2020-0188,2020-11-18,17:43:34,18:05:32,NA,incomplete,148,color,1,left,Blue_Circle_Dots_2.jpg,Blue_Star_Grid_1.jpg,Red_Triangle_Chess_2.jpg,left,621.0400000000373,true,high,NA,NA,NA,NA,NA,NA,NA,false
WHs8P4tv,3lvtfb9df8vfwjy33dzq8w9nvhnqgc,3wmoan2srfafy3903ibxtndkqvkvn3,WHs8P4tv,2020-0188,2020-11-18,17:43:34,18:05:32,NA,incomplete,149,color,0,right,Green_Plus_Stripes_3.jpg,Red_Circle_Chess_3.jpg,Green_Triangle_Grid_2.jpg,right,479.33499999996275,true,high,NA,NA,NA,NA,NA,NA,NA,false
WHs8P4tv,3lvtfb9df8vfwjy33dzq8w9nvhnqgc,3wmoan2srfafy3903ibxtndkqvkvn3,WHs8P4tv,2020-0188,2020-11-18,17:43:34,18:05:32,NA,incomplete,150,color,1,left,Green_Circle_Chess_3.jpg,Green_Plus_Dots_1.jpg,Purple_Star_Grid_3.jpg,left,608.7649999991991,true,high,NA,NA,NA,NA,NA,NA,NA,false
WHs8P4tv,3lvtfb9df8vfwjy33dzq8w9nvhnqgc,3wmoan2srfafy3903ibxtndkqvkvn3,WHs8P4tv,2020-0188,2020-11-18,17:43:34,18:05:32,NA,incomplete,151,color,1,left,Purple_Star_Stripes_2.jpg,Purple_Triangle_Dots_4.jpg,Blue_Plus_Grid_2.jpg,left,740.9950000001118,true,high,NA,NA,NA,NA,NA,NA,NA,false
WHs8P4tv,3lvtfb9df8vfwjy33dzq8w9nvhnqgc,3wmoan2srfafy3903ibxtndkqvkvn3,WHs8P4tv,2020-0188,2020-11-18,17:43:34,18:05:32,NA,incomplete,152,color,0,left,Red_Circle_Dots_4.jpg,Red_Star_Stripes_3.jpg,Green_Triangle_Chess_4.jpg,left,939.5299999997951,true,high,NA,NA,NA,NA,NA,NA,NA,false
WHs8P4tv,3lvtfb9df8vfwjy33dzq8w9nvhnqgc,3wmoan2srfafy3903ibxtndkqvkvn3,WHs8P4tv,2020-0188,2020-11-18,17:43:34,18:05:32,NA,incomplete,153,color,1,left,Red_Circle_Stripes_3.jpg,Red_Plus_Grid_2.jpg,Blue_Star_Dots_3.jpg,left,733.8300000010058,true,high,NA,NA,NA,NA,NA,NA,NA,false
WHs8P4tv,3lvtfb9df8vfwjy33dzq8w9nvhnqgc,3wmoan2srfafy3903ibxtndkqvkvn3,WHs8P4tv,2020-0188,2020-11-18,17:43:34,18:05:32,NA,incomplete,154,color,0,left,Blue_Star_Stripes_1.jpg,Blue_Triangle_Grid_3.jpg,Purple_Plus_Dots_1.jpg,left,982.0799999998417,true,high,NA,NA,NA,NA,NA,NA,NA,false
WHs8P4tv,3lvtfb9df8vfwjy33dzq8w9nvhnqgc,3wmoan2srfafy3903ibxtndkqvkvn3,WHs8P4tv,2020-0188,2020-11-18,17:43:34,18:05:32,NA,incomplete,155,color,1,left,Green_Star_Dots_2.jpg,Green_Circle_Chess_1.jpg,Purple_Plus_Stripes_2.jpg,left,597.649999999674,true,high,NA,NA,NA,NA,NA,NA,NA,false
WHs8P4tv,3lvtfb9df8vfwjy33dzq8w9nvhnqgc,3wmoan2srfafy3903ibxtndkqvkvn3,WHs8P4tv,2020-0188,2020-11-18,17:43:34,18:05:32,NA,incomplete,156,color,0,left,Green_Star_Chess_4.jpg,Green_Circle_Grid_1.jpg,Purple_Triangle_Dots_4.jpg,left,791.5249999987427,true,high,NA,NA,NA,NA,NA,NA,NA,false
WHs8P4tv,3lvtfb9df8vfwjy33dzq8w9nvhnqgc,3wmoan2srfafy3903ibxtndkqvkvn3,WHs8P4tv,2020-0188,2020-11-18,17:43:34,18:05:32,NA,incomplete,157,color,1,right,Red_Star_Stripes_3.jpg,Purple_Plus_Grid_3.jpg,Red_Circle_Dots_4.jpg,right,619.2150000007823,true,high,NA,NA,NA,NA,NA,NA,NA,false
WHs8P4tv,3lvtfb9df8vfwjy33dzq8w9nvhnqgc,3wmoan2srfafy3903ibxtndkqvkvn3,WHs8P4tv,2020-0188,2020-11-18,17:43:34,18:05:32,NA,incomplete,158,color,0,right,Green_Circle_Stripes_4.jpg,Red_Triangle_Grid_4.jpg,Green_Plus_Chess_3.jpg,right,865.0049999996554,true,high,NA,NA,NA,NA,NA,NA,NA,false
WHs8P4tv,3lvtfb9df8vfwjy33dzq8w9nvhnqgc,3wmoan2srfafy3903ibxtndkqvkvn3,WHs8P4tv,2020-0188,2020-11-18,17:43:34,18:05:32,NA,incomplete,159,color,1,right,Blue_Star_Dots_4.jpg,Red_Triangle_Stripes_4.jpg,Blue_Circle_Chess_1.jpg,right,1410.89500000095,true,high,NA,NA,NA,NA,NA,NA,NA,false
WHs8P4tv,3lvtfb9df8vfwjy33dzq8w9nvhnqgc,3wmoan2srfafy3903ibxtndkqvkvn3,WHs8P4tv,2020-0188,2020-11-18,17:43:34,18:05:32,NA,incomplete,160,number,0,left,Blue_Star_Chess_2.jpg,Green_Plus_Dots_2.jpg,Blue_Triangle_Grid_1.jpg,right,898.6399999994319,false,high,NA,NA,NA,NA,NA,NA,NA,false
WHs8P4tv,3lvtfb9df8vfwjy33dzq8w9nvhnqgc,3wmoan2srfafy3903ibxtndkqvkvn3,WHs8P4tv,2020-0188,2020-11-18,17:43:34,18:05:32,NA,incomplete,161,number,1,right,Purple_Plus_Stripes_4.jpg,Purple_Circle_Chess_3.jpg,Red_Star_Grid_4.jpg,left,940.4599999999627,false,high,NA,NA,NA,NA,NA,NA,NA,false
WHs8P4tv,3lvtfb9df8vfwjy33dzq8w9nvhnqgc,3wmoan2srfafy3903ibxtndkqvkvn3,WHs8P4tv,2020-0188,2020-11-18,17:43:34,18:05:32,NA,incomplete,162,number,1,right,Blue_Star_Stripes_2.jpg,Blue_Triangle_Grid_1.jpg,Green_Plus_Chess_2.jpg,left,562.2949999996927,false,high,NA,NA,NA,NA,NA,NA,NA,false
WHs8P4tv,3lvtfb9df8vfwjy33dzq8w9nvhnqgc,3wmoan2srfafy3903ibxtndkqvkvn3,WHs8P4tv,2020-0188,2020-11-18,17:43:34,18:05:32,NA,incomplete,163,number,1,right,Purple_Circle_Stripes_3.jpg,Purple_Triangle_Chess_1.jpg,Red_Star_Grid_3.jpg,right,556.1300000008196,true,high,NA,NA,NA,NA,NA,NA,NA,false
WHs8P4tv,3lvtfb9df8vfwjy33dzq8w9nvhnqgc,3wmoan2srfafy3903ibxtndkqvkvn3,WHs8P4tv,2020-0188,2020-11-18,17:43:34,18:05:32,NA,incomplete,164,number,1,right,Green_Triangle_Chess_4.jpg,Green_Plus_Dots_1.jpg,Purple_Star_Grid_4.jpg,right,644.9350000000559,true,high,NA,NA,NA,NA,NA,NA,NA,false
WHs8P4tv,3lvtfb9df8vfwjy33dzq8w9nvhnqgc,3wmoan2srfafy3903ibxtndkqvkvn3,WHs8P4tv,2020-0188,2020-11-18,17:43:34,18:05:32,NA,incomplete,165,number,1,left,Green_Triangle_Chess_4.jpg,Purple_Circle_Grid_4.jpg,Green_Star_Stripes_1.jpg,left,541.430000001099,true,high,NA,NA,NA,NA,NA,NA,NA,false
WHs8P4tv,3lvtfb9df8vfwjy33dzq8w9nvhnqgc,3wmoan2srfafy3903ibxtndkqvkvn3,WHs8P4tv,2020-0188,2020-11-18,17:43:34,18:05:32,NA,incomplete,166,number,1,right,Red_Plus_Grid_3.jpg,Red_Triangle_Chess_1.jpg,Green_Star_Stripes_3.jpg,right,529.8249999994878,true,high,NA,NA,NA,NA,NA,NA,NA,false
WHs8P4tv,3lvtfb9df8vfwjy33dzq8w9nvhnqgc,3wmoan2srfafy3903ibxtndkqvkvn3,WHs8P4tv,2020-0188,2020-11-18,17:43:34,18:05:32,NA,incomplete,167,number,0,right,Green_Star_Dots_3.jpg,Green_Triangle_Grid_4.jpg,Red_Circle_Chess_3.jpg,right,623.6049999988172,true,high,NA,NA,NA,NA,NA,NA,NA,false
WHs8P4tv,3lvtfb9df8vfwjy33dzq8w9nvhnqgc,3wmoan2srfafy3903ibxtndkqvkvn3,WHs8P4tv,2020-0188,2020-11-18,17:43:34,18:05:32,NA,incomplete,168,number,1,left,Green_Circle_Grid_1.jpg,Red_Plus_Stripes_1.jpg,Green_Triangle_Chess_3.jpg,left,763.600000000326,true,high,NA,NA,NA,NA,NA,NA,NA,false
WHs8P4tv,3lvtfb9df8vfwjy33dzq8w9nvhnqgc,3wmoan2srfafy3903ibxtndkqvkvn3,WHs8P4tv,2020-0188,2020-11-18,17:43:34,18:05:32,NA,incomplete,169,number,1,right,Purple_Triangle_Dots_2.jpg,Purple_Circle_Stripes_1.jpg,Red_Star_Chess_2.jpg,right,725.1200000010431,true,high,NA,NA,NA,NA,NA,NA,NA,false
WHs8P4tv,3lvtfb9df8vfwjy33dzq8w9nvhnqgc,3wmoan2srfafy3903ibxtndkqvkvn3,WHs8P4tv,2020-0188,2020-11-18,17:43:34,18:05:32,NA,incomplete,170,number,1,right,Purple_Plus_Chess_3.jpg,Purple_Circle_Stripes_2.jpg,Blue_Triangle_Dots_3.jpg,right,610.4799999995157,true,high,NA,NA,NA,NA,NA,NA,NA,false
WHs8P4tv,3lvtfb9df8vfwjy33dzq8w9nvhnqgc,3wmoan2srfafy3903ibxtndkqvkvn3,WHs8P4tv,2020-0188,2020-11-18,17:43:34,18:05:32,NA,incomplete,171,number,1,left,Blue_Star_Chess_2.jpg,Red_Circle_Stripes_2.jpg,Blue_Triangle_Dots_4.jpg,left,681.2850000006147,true,high,NA,NA,NA,NA,NA,NA,NA,false
WHs8P4tv,3lvtfb9df8vfwjy33dzq8w9nvhnqgc,3wmoan2srfafy3903ibxtndkqvkvn3,WHs8P4tv,2020-0188,2020-11-18,17:43:34,18:05:32,NA,incomplete,172,number,1,right,Green_Star_Dots_1.jpg,Green_Plus_Grid_3.jpg,Blue_Triangle_Chess_1.jpg,right,668.3450000002049,true,high,NA,NA,NA,NA,NA,NA,NA,false
WHs8P4tv,3lvtfb9df8vfwjy33dzq8w9nvhnqgc,3wmoan2srfafy3903ibxtndkqvkvn3,WHs8P4tv,2020-0188,2020-11-18,17:43:34,18:05:32,NA,incomplete,173,number,1,right,Red_Plus_Stripes_1.jpg,Red_Triangle_Chess_3.jpg,Green_Star_Grid_1.jpg,right,684.7049999998417,true,high,NA,NA,NA,NA,NA,NA,NA,false
WHs8P4tv,3lvtfb9df8vfwjy33dzq8w9nvhnqgc,3wmoan2srfafy3903ibxtndkqvkvn3,WHs8P4tv,2020-0188,2020-11-18,17:43:34,18:05:32,NA,incomplete,174,number,1,right,Red_Triangle_Stripes_3.jpg,Red_Star_Grid_2.jpg,Green_Plus_Chess_3.jpg,right,723.6300000005867,true,high,NA,NA,NA,NA,NA,NA,NA,false
WHs8P4tv,3lvtfb9df8vfwjy33dzq8w9nvhnqgc,3wmoan2srfafy3903ibxtndkqvkvn3,WHs8P4tv,2020-0188,2020-11-18,17:43:34,18:05:32,NA,incomplete,175,number,1,left,Red_Star_Dots_3.jpg,Blue_Triangle_Stripes_3.jpg,Red_Circle_Grid_4.jpg,left,722.6100000008009,true,high,NA,NA,NA,NA,NA,NA,NA,false
WHs8P4tv,3lvtfb9df8vfwjy33dzq8w9nvhnqgc,3wmoan2srfafy3903ibxtndkqvkvn3,WHs8P4tv,2020-0188,2020-11-18,17:43:34,18:05:32,NA,incomplete,176,number,1,right,Blue_Plus_Dots_2.jpg,Blue_Star_Stripes_3.jpg,Purple_Circle_Grid_2.jpg,right,801.1800000001676,true,high,NA,NA,NA,NA,NA,NA,NA,false
WHs8P4tv,3lvtfb9df8vfwjy33dzq8w9nvhnqgc,3wmoan2srfafy3903ibxtndkqvkvn3,WHs8P4tv,2020-0188,2020-11-18,17:43:34,18:05:32,NA,incomplete,177,number,1,right,Purple_Plus_Dots_1.jpg,Purple_Triangle_Stripes_2.jpg,Blue_Star_Grid_1.jpg,right,765.8100000007544,true,high,NA,NA,NA,NA,NA,NA,NA,false
WHs8P4tv,3lvtfb9df8vfwjy33dzq8w9nvhnqgc,3wmoan2srfafy3903ibxtndkqvkvn3,WHs8P4tv,2020-0188,2020-11-18,17:43:34,18:05:32,NA,incomplete,178,number,1,left,Purple_Circle_Dots_3.jpg,Blue_Triangle_Chess_3.jpg,Purple_Star_Grid_1.jpg,left,651.8600000001024,true,high,NA,NA,NA,NA,NA,NA,NA,false
WHs8P4tv,3lvtfb9df8vfwjy33dzq8w9nvhnqgc,3wmoan2srfafy3903ibxtndkqvkvn3,WHs8P4tv,2020-0188,2020-11-18,17:43:34,18:05:32,NA,incomplete,179,number,1,right,Green_Circle_Stripes_2.jpg,Green_Triangle_Grid_1.jpg,Blue_Plus_Dots_2.jpg,right,646.3750000002328,true,high,NA,NA,NA,NA,NA,NA,NA,false
WHs8P4tv,3lvtfb9df8vfwjy33dzq8w9nvhnqgc,3wmoan2srfafy3903ibxtndkqvkvn3,WHs8P4tv,2020-0188,2020-11-18,17:43:34,18:05:32,NA,incomplete,180,color,0,right,Blue_Star_Stripes_4.jpg,Green_Triangle_Dots_4.jpg,Blue_Plus_Grid_2.jpg,left,707.7399999997579,false,high,NA,NA,NA,NA,NA,NA,NA,false
WHs8P4tv,3lvtfb9df8vfwjy33dzq8w9nvhnqgc,3wmoan2srfafy3903ibxtndkqvkvn3,WHs8P4tv,2020-0188,2020-11-18,17:43:34,18:05:32,NA,incomplete,181,color,1,right,Green_Circle_Chess_3.jpg,Red_Star_Grid_3.jpg,Green_Triangle_Dots_2.jpg,left,709.6900000015739,false,high,NA,NA,NA,NA,NA,NA,NA,false
WHs8P4tv,3lvtfb9df8vfwjy33dzq8w9nvhnqgc,3wmoan2srfafy3903ibxtndkqvkvn3,WHs8P4tv,2020-0188,2020-11-18,17:43:34,18:05:32,NA,incomplete,182,color,1,left,Red_Star_Stripes_2.jpg,Red_Plus_Grid_1.jpg,Purple_Triangle_Chess_2.jpg,right,661.7999999998137,false,high,NA,NA,NA,NA,NA,NA,NA,false
WHs8P4tv,3lvtfb9df8vfwjy33dzq8w9nvhnqgc,3wmoan2srfafy3903ibxtndkqvkvn3,WHs8P4tv,2020-0188,2020-11-18,17:43:34,18:05:32,NA,incomplete,183,color,1,right,Blue_Star_Chess_2.jpg,Green_Circle_Stripes_2.jpg,Blue_Plus_Grid_4.jpg,right,604.100000000326,true,high,NA,NA,NA,NA,NA,NA,NA,false
WHs8P4tv,3lvtfb9df8vfwjy33dzq8w9nvhnqgc,3wmoan2srfafy3903ibxtndkqvkvn3,WHs8P4tv,2020-0188,2020-11-18,17:43:34,18:05:32,NA,incomplete,184,color,1,right,Red_Plus_Chess_4.jpg,Blue_Circle_Stripes_4.jpg,Red_Triangle_Grid_3.jpg,left,649.7949999994598,false,high,NA,NA,NA,NA,NA,NA,NA,false
WHs8P4tv,3lvtfb9df8vfwjy33dzq8w9nvhnqgc,3wmoan2srfafy3903ibxtndkqvkvn3,WHs8P4tv,2020-0188,2020-11-18,17:43:34,18:05:32,NA,incomplete,185,color,1,left,Green_Circle_Stripes_1.jpg,Green_Triangle_Chess_3.jpg,Red_Star_Grid_1.jpg,left,1241.0999999991618,true,high,NA,NA,NA,NA,NA,NA,NA,false
WHs8P4tv,3lvtfb9df8vfwjy33dzq8w9nvhnqgc,3wmoan2srfafy3903ibxtndkqvkvn3,WHs8P4tv,2020-0188,2020-11-18,17:43:34,18:05:32,NA,incomplete,186,color,1,left,Red_Star_Grid_2.jpg,Red_Triangle_Stripes_3.jpg,Blue_Circle_Dots_2.jpg,left,646.3800000001211,true,high,NA,NA,NA,NA,NA,NA,NA,false
WHs8P4tv,3lvtfb9df8vfwjy33dzq8w9nvhnqgc,3wmoan2srfafy3903ibxtndkqvkvn3,WHs8P4tv,2020-0188,2020-11-18,17:43:34,18:05:32,NA,incomplete,187,color,0,right,Green_Star_Stripes_1.jpg,Purple_Triangle_Grid_1.jpg,Green_Circle_Dots_2.jpg,right,816.3750000002328,true,high,NA,NA,NA,NA,NA,NA,NA,false
WHs8P4tv,3lvtfb9df8vfwjy33dzq8w9nvhnqgc,3wmoan2srfafy3903ibxtndkqvkvn3,WHs8P4tv,2020-0188,2020-11-18,17:43:34,18:05:32,NA,incomplete,188,color,1,right,Green_Circle_Grid_4.jpg,Purple_Plus_Chess_4.jpg,Green_Star_Dots_2.jpg,right,776.5849999997299,true,high,NA,NA,NA,NA,NA,NA,NA,false
WHs8P4tv,3lvtfb9df8vfwjy33dzq8w9nvhnqgc,3wmoan2srfafy3903ibxtndkqvkvn3,WHs8P4tv,2020-0188,2020-11-18,17:43:34,18:05:32,NA,incomplete,189,color,0,right,Purple_Circle_Grid_4.jpg,Red_Triangle_Dots_4.jpg,Purple_Star_Stripes_2.jpg,left,732.9199999985285,false,high,NA,NA,NA,NA,NA,NA,NA,false
WHs8P4tv,3lvtfb9df8vfwjy33dzq8w9nvhnqgc,3wmoan2srfafy3903ibxtndkqvkvn3,WHs8P4tv,2020-0188,2020-11-18,17:43:34,18:05:32,NA,incomplete,190,color,1,right,Red_Triangle_Stripes_1.jpg,Green_Star_Grid_1.jpg,Red_Plus_Dots_3.jpg,left,926.929999999702,false,high,NA,NA,NA,NA,NA,NA,NA,false
WHs8P4tv,3lvtfb9df8vfwjy33dzq8w9nvhnqgc,3wmoan2srfafy3903ibxtndkqvkvn3,WHs8P4tv,2020-0188,2020-11-18,17:43:34,18:05:32,NA,incomplete,191,color,1,right,Purple_Star_Chess_4.jpg,Blue_Plus_Grid_4.jpg,Purple_Circle_Stripes_3.jpg,right,913.7750000008382,true,high,NA,NA,NA,NA,NA,NA,NA,false
WHs8P4tv,3lvtfb9df8vfwjy33dzq8w9nvhnqgc,3wmoan2srfafy3903ibxtndkqvkvn3,WHs8P4tv,2020-0188,2020-11-18,17:43:34,18:05:32,NA,incomplete,192,color,1,left,Purple_Star_Dots_3.jpg,Purple_Triangle_Stripes_2.jpg,Red_Plus_Grid_3.jpg,left,701.5750000008848,true,high,NA,NA,NA,NA,NA,NA,NA,false
WHs8P4tv,3lvtfb9df8vfwjy33dzq8w9nvhnqgc,3wmoan2srfafy3903ibxtndkqvkvn3,WHs8P4tv,2020-0188,2020-11-18,17:43:34,18:05:32,NA,incomplete,193,color,0,left,Blue_Circle_Chess_3.jpg,Blue_Triangle_Dots_2.jpg,Red_Star_Grid_3.jpg,left,744.0850000004284,true,high,NA,NA,NA,NA,NA,NA,NA,false
WHs8P4tv,3lvtfb9df8vfwjy33dzq8w9nvhnqgc,3wmoan2srfafy3903ibxtndkqvkvn3,WHs8P4tv,2020-0188,2020-11-18,17:43:34,18:05:32,NA,incomplete,194,color,1,left,Purple_Triangle_Grid_2.jpg,Purple_Circle_Chess_3.jpg,Green_Plus_Stripes_2.jpg,right,651.0199999993201,false,high,NA,NA,NA,NA,NA,NA,NA,false
WHs8P4tv,3lvtfb9df8vfwjy33dzq8w9nvhnqgc,3wmoan2srfafy3903ibxtndkqvkvn3,WHs8P4tv,2020-0188,2020-11-18,17:43:34,18:05:32,NA,incomplete,195,color,1,left,Purple_Star_Chess_4.jpg,Purple_Plus_Dots_3.jpg,Green_Triangle_Stripes_4.jpg,right,1066.5800000005402,false,high,NA,NA,NA,NA,NA,NA,NA,false
WHs8P4tv,3lvtfb9df8vfwjy33dzq8w9nvhnqgc,3wmoan2srfafy3903ibxtndkqvkvn3,WHs8P4tv,2020-0188,2020-11-18,17:43:34,18:05:32,NA,incomplete,196,color,1,left,Purple_Plus_Dots_1.jpg,Purple_Star_Chess_4.jpg,Green_Triangle_Grid_1.jpg,right,836.4600000004284,false,high,NA,NA,NA,NA,NA,NA,NA,false
WHs8P4tv,3lvtfb9df8vfwjy33dzq8w9nvhnqgc,3wmoan2srfafy3903ibxtndkqvkvn3,WHs8P4tv,2020-0188,2020-11-18,17:43:34,18:05:32,NA,incomplete,197,color,0,right,Blue_Star_Chess_4.jpg,Red_Plus_Stripes_4.jpg,Blue_Circle_Dots_1.jpg,right,937.7700000004843,true,high,NA,NA,NA,NA,NA,NA,NA,false
WHs8P4tv,3lvtfb9df8vfwjy33dzq8w9nvhnqgc,3wmoan2srfafy3903ibxtndkqvkvn3,WHs8P4tv,2020-0188,2020-11-18,17:43:34,18:05:32,NA,incomplete,198,color,1,right,Purple_Triangle_Stripes_1.jpg,Blue_Circle_Chess_1.jpg,Purple_Star_Grid_4.jpg,left,730.5049999996554,false,high,NA,NA,NA,NA,NA,NA,NA,false
WHs8P4tv,3lvtfb9df8vfwjy33dzq8w9nvhnqgc,3wmoan2srfafy3903ibxtndkqvkvn3,WHs8P4tv,2020-0188,2020-11-18,17:43:34,18:05:32,NA,incomplete,199,color,1,left,Blue_Circle_Chess_2.jpg,Blue_Triangle_Stripes_1.jpg,Red_Plus_Grid_2.jpg,left,778.4950000005774,true,high,NA,NA,NA,NA,NA,NA,NA,false
WHs8P4tv,3lvtfb9df8vfwjy33dzq8w9nvhnqgc,3wmoan2srfafy3903ibxtndkqvkvn3,WHs8P4tv,2020-0188,2020-11-18,17:43:34,18:05:32,NA,incomplete,200,number,0,right,Blue_Plus_Stripes_4.jpg,Blue_Circle_Chess_1.jpg,Green_Triangle_Dots_4.jpg,left,763.9799999997485,false,high,NA,NA,NA,NA,NA,NA,NA,false
WHs8P4tv,3lvtfb9df8vfwjy33dzq8w9nvhnqgc,3wmoan2srfafy3903ibxtndkqvkvn3,WHs8P4tv,2020-0188,2020-11-18,17:43:34,18:05:32,NA,incomplete,201,number,1,left,Red_Triangle_Dots_4.jpg,Blue_Plus_Chess_4.jpg,Red_Circle_Stripes_3.jpg,right,1106.960000000894,false,high,NA,NA,NA,NA,NA,NA,NA,false
WHs8P4tv,3lvtfb9df8vfwjy33dzq8w9nvhnqgc,3wmoan2srfafy3903ibxtndkqvkvn3,WHs8P4tv,2020-0188,2020-11-18,17:43:34,18:05:32,NA,incomplete,202,number,1,left,Green_Circle_Stripes_2.jpg,Blue_Star_Dots_2.jpg,Green_Triangle_Grid_3.jpg,right,774.785000001546,false,high,NA,NA,NA,NA,NA,NA,NA,false
WHs8P4tv,3lvtfb9df8vfwjy33dzq8w9nvhnqgc,3wmoan2srfafy3903ibxtndkqvkvn3,WHs8P4tv,2020-0188,2020-11-18,17:43:34,18:05:32,NA,incomplete,203,number,0,left,Blue_Star_Stripes_3.jpg,Red_Circle_Chess_3.jpg,Blue_Plus_Grid_4.jpg,left,1093.4450000005309,true,high,NA,NA,NA,NA,NA,NA,NA,false
WHs8P4tv,3lvtfb9df8vfwjy33dzq8w9nvhnqgc,3wmoan2srfafy3903ibxtndkqvkvn3,WHs8P4tv,2020-0188,2020-11-18,17:43:34,18:05:32,NA,incomplete,204,number,1,right,Green_Circle_Stripes_4.jpg,Green_Plus_Chess_2.jpg,Blue_Triangle_Dots_4.jpg,left,989.4249999995809,false,high,NA,NA,NA,NA,NA,NA,NA,false
WHs8P4tv,3lvtfb9df8vfwjy33dzq8w9nvhnqgc,3wmoan2srfafy3903ibxtndkqvkvn3,WHs8P4tv,2020-0188,2020-11-18,17:43:34,18:05:32,NA,incomplete,205,number,1,right,Green_Triangle_Stripes_2.jpg,Green_Plus_Dots_3.jpg,Red_Circle_Grid_2.jpg,left,1262.8949999997858,false,high,NA,NA,NA,NA,NA,NA,NA,false
WHs8P4tv,3lvtfb9df8vfwjy33dzq8w9nvhnqgc,3wmoan2srfafy3903ibxtndkqvkvn3,WHs8P4tv,2020-0188,2020-11-18,17:43:34,18:05:32,NA,incomplete,206,number,1,left,Purple_Plus_Stripes_3.jpg,Green_Star_Grid_3.jpg,Purple_Triangle_Chess_4.jpg,left,806.6699999999255,true,high,NA,NA,NA,NA,NA,NA,NA,false
WHs8P4tv,3lvtfb9df8vfwjy33dzq8w9nvhnqgc,3wmoan2srfafy3903ibxtndkqvkvn3,WHs8P4tv,2020-0188,2020-11-18,17:43:34,18:05:32,NA,incomplete,207,number,1,left,Red_Star_Grid_3.jpg,Purple_Circle_Stripes_3.jpg,Red_Plus_Dots_4.jpg,left,739.4600000006612,true,high,NA,NA,NA,NA,NA,NA,NA,false
WHs8P4tv,3lvtfb9df8vfwjy33dzq8w9nvhnqgc,3wmoan2srfafy3903ibxtndkqvkvn3,WHs8P4tv,2020-0188,2020-11-18,17:43:34,18:05:32,NA,incomplete,208,number,1,right,Green_Star_Dots_2.jpg,Green_Circle_Stripes_3.jpg,Blue_Triangle_Chess_2.jpg,right,689.5399999995716,true,high,NA,NA,NA,NA,NA,NA,NA,false
WHs8P4tv,3lvtfb9df8vfwjy33dzq8w9nvhnqgc,3wmoan2srfafy3903ibxtndkqvkvn3,WHs8P4tv,2020-0188,2020-11-18,17:43:34,18:05:32,NA,incomplete,209,number,1,right,Purple_Star_Dots_1.jpg,Purple_Plus_Chess_3.jpg,Blue_Triangle_Grid_1.jpg,right,723.0799999996088,true,high,NA,NA,NA,NA,NA,NA,NA,false
WHs8P4tv,3lvtfb9df8vfwjy33dzq8w9nvhnqgc,3wmoan2srfafy3903ibxtndkqvkvn3,WHs8P4tv,2020-0188,2020-11-18,17:43:34,18:05:32,NA,incomplete,210,number,0,left,Purple_Star_Grid_4.jpg,Blue_Plus_Stripes_4.jpg,Purple_Circle_Chess_1.jpg,left,706.615000000922,true,high,NA,NA,NA,NA,NA,NA,NA,false
WHs8P4tv,3lvtfb9df8vfwjy33dzq8w9nvhnqgc,3wmoan2srfafy3903ibxtndkqvkvn3,WHs8P4tv,2020-0188,2020-11-18,17:43:34,18:05:32,NA,incomplete,211,number,1,left,Green_Plus_Stripes_4.jpg,Purple_Circle_Chess_4.jpg,Green_Triangle_Dots_1.jpg,left,1311.3499999998603,true,high,NA,NA,NA,NA,NA,NA,NA,false
WHs8P4tv,3lvtfb9df8vfwjy33dzq8w9nvhnqgc,3wmoan2srfafy3903ibxtndkqvkvn3,WHs8P4tv,2020-0188,2020-11-18,17:43:34,18:05:32,NA,incomplete,212,number,1,left,Green_Plus_Stripes_2.jpg,Purple_Star_Grid_2.jpg,Green_Triangle_Chess_1.jpg,left,803.9699999990407,true,high,NA,NA,NA,NA,NA,NA,NA,false
WHs8P4tv,3lvtfb9df8vfwjy33dzq8w9nvhnqgc,3wmoan2srfafy3903ibxtndkqvkvn3,WHs8P4tv,2020-0188,2020-11-18,17:43:34,18:05:32,NA,incomplete,213,number,1,right,Green_Star_Chess_3.jpg,Green_Circle_Dots_4.jpg,Blue_Triangle_Stripes_3.jpg,right,693.7300000009127,true,high,NA,NA,NA,NA,NA,NA,NA,false
WHs8P4tv,3lvtfb9df8vfwjy33dzq8w9nvhnqgc,3wmoan2srfafy3903ibxtndkqvkvn3,WHs8P4tv,2020-0188,2020-11-18,17:43:34,18:05:32,NA,incomplete,214,number,1,right,Red_Triangle_Grid_1.jpg,Red_Plus_Chess_4.jpg,Green_Circle_Stripes_1.jpg,right,719.5599999995902,true,high,NA,NA,NA,NA,NA,NA,NA,false
WHs8P4tv,3lvtfb9df8vfwjy33dzq8w9nvhnqgc,3wmoan2srfafy3903ibxtndkqvkvn3,WHs8P4tv,2020-0188,2020-11-18,17:43:34,18:05:32,NA,incomplete,215,number,1,left,Blue_Circle_Chess_2.jpg,Purple_Plus_Stripes_2.jpg,Blue_Star_Dots_1.jpg,left,719.100000000326,true,high,NA,NA,NA,NA,NA,NA,NA,false
WHs8P4tv,3lvtfb9df8vfwjy33dzq8w9nvhnqgc,3wmoan2srfafy3903ibxtndkqvkvn3,WHs8P4tv,2020-0188,2020-11-18,17:43:34,18:05:32,NA,incomplete,216,number,1,right,Blue_Circle_Grid_2.jpg,Blue_Triangle_Chess_1.jpg,Purple_Plus_Stripes_2.jpg,right,807.3199999998324,true,high,NA,NA,NA,NA,NA,NA,NA,false
WHs8P4tv,3lvtfb9df8vfwjy33dzq8w9nvhnqgc,3wmoan2srfafy3903ibxtndkqvkvn3,WHs8P4tv,2020-0188,2020-11-18,17:43:34,18:05:32,NA,incomplete,217,number,1,right,Blue_Plus_Chess_3.jpg,Blue_Circle_Dots_1.jpg,Red_Star_Stripes_3.jpg,right,726.8899999998976,true,high,NA,NA,NA,NA,NA,NA,NA,false
WHs8P4tv,3lvtfb9df8vfwjy33dzq8w9nvhnqgc,3wmoan2srfafy3903ibxtndkqvkvn3,WHs8P4tv,2020-0188,2020-11-18,17:43:34,18:05:32,NA,incomplete,218,number,1,right,Blue_Star_Dots_3.jpg,Blue_Plus_Grid_2.jpg,Green_Triangle_Stripes_3.jpg,right,712.579999999376,true,high,NA,NA,NA,NA,NA,NA,NA,false
WHs8P4tv,3lvtfb9df8vfwjy33dzq8w9nvhnqgc,3wmoan2srfafy3903ibxtndkqvkvn3,WHs8P4tv,2020-0188,2020-11-18,17:43:34,18:05:32,NA,incomplete,219,number,1,right,Green_Triangle_Dots_1.jpg,Green_Plus_Chess_2.jpg,Blue_Circle_Grid_1.jpg,right,954.1350000000093,true,high,NA,NA,NA,NA,NA,NA,NA,false
WHs8P4tv,3lvtfb9df8vfwjy33dzq8w9nvhnqgc,3wmoan2srfafy3903ibxtndkqvkvn3,WHs8P4tv,2020-0188,2020-11-18,17:43:34,18:05:32,NA,incomplete,220,color,0,right,Purple_Triangle_Grid_1.jpg,Blue_Plus_Stripes_1.jpg,Purple_Circle_Dots_4.jpg,left,712.0850000011269,false,high,NA,NA,NA,NA,NA,NA,NA,false
WHs8P4tv,3lvtfb9df8vfwjy33dzq8w9nvhnqgc,3wmoan2srfafy3903ibxtndkqvkvn3,WHs8P4tv,2020-0188,2020-11-18,17:43:34,18:05:32,NA,incomplete,221,color,1,left,Blue_Plus_Stripes_4.jpg,Blue_Star_Dots_1.jpg,Purple_Triangle_Chess_4.jpg,left,701.4450000005309,true,high,NA,NA,NA,NA,NA,NA,NA,false
WHs8P4tv,3lvtfb9df8vfwjy33dzq8w9nvhnqgc,3wmoan2srfafy3903ibxtndkqvkvn3,WHs8P4tv,2020-0188,2020-11-18,17:43:34,18:05:32,NA,incomplete,222,color,1,right,Purple_Plus_Chess_3.jpg,Blue_Circle_Stripes_3.jpg,Purple_Triangle_Grid_1.jpg,right,961.910000000149,true,high,NA,NA,NA,NA,NA,NA,NA,false
WHs8P4tv,3lvtfb9df8vfwjy33dzq8w9nvhnqgc,3wmoan2srfafy3903ibxtndkqvkvn3,WHs8P4tv,2020-0188,2020-11-18,17:43:34,18:05:32,NA,incomplete,223,color,1,right,Purple_Plus_Stripes_1.jpg,Blue_Circle_Dots_1.jpg,Purple_Star_Chess_2.jpg,right,846.0099999993108,true,high,NA,NA,NA,NA,NA,NA,NA,false
WHs8P4tv,3lvtfb9df8vfwjy33dzq8w9nvhnqgc,3wmoan2srfafy3903ibxtndkqvkvn3,WHs8P4tv,2020-0188,2020-11-18,17:43:34,18:05:32,NA,incomplete,224,color,1,right,Blue_Circle_Dots_4.jpg,Green_Plus_Chess_4.jpg,Blue_Triangle_Grid_2.jpg,left,1166.5350000003818,false,high,NA,NA,NA,NA,NA,NA,NA,false
WHs8P4tv,3lvtfb9df8vfwjy33dzq8w9nvhnqgc,3wmoan2srfafy3903ibxtndkqvkvn3,WHs8P4tv,2020-0188,2020-11-18,17:43:34,18:05:32,NA,incomplete,225,color,0,left,Purple_Star_Chess_3.jpg,Purple_Circle_Grid_2.jpg,Green_Plus_Stripes_3.jpg,left,763.6099999998696,true,high,NA,NA,NA,NA,NA,NA,NA,false
WHs8P4tv,3lvtfb9df8vfwjy33dzq8w9nvhnqgc,3wmoan2srfafy3903ibxtndkqvkvn3,WHs8P4tv,2020-0188,2020-11-18,17:43:34,18:05:32,NA,incomplete,226,color,1,left,Green_Triangle_Dots_3.jpg,Green_Plus_Grid_4.jpg,Blue_Star_Chess_3.jpg,left,1041.665000000503,true,high,NA,NA,NA,NA,NA,NA,NA,false
WHs8P4tv,3lvtfb9df8vfwjy33dzq8w9nvhnqgc,3wmoan2srfafy3903ibxtndkqvkvn3,WHs8P4tv,2020-0188,2020-11-18,17:43:34,18:05:32,NA,incomplete,227,color,1,left,Purple_Circle_Grid_3.jpg,Purple_Plus_Stripes_4.jpg,Green_Star_Dots_3.jpg,left,722.7999999995809,true,high,NA,NA,NA,NA,NA,NA,NA,false
WHs8P4tv,3lvtfb9df8vfwjy33dzq8w9nvhnqgc,3wmoan2srfafy3903ibxtndkqvkvn3,WHs8P4tv,2020-0188,2020-11-18,17:43:34,18:05:32,NA,incomplete,228,color,1,right,Red_Triangle_Stripes_1.jpg,Green_Circle_Dots_1.jpg,Red_Star_Grid_3.jpg,right,701.5050000008196,true,high,NA,NA,NA,NA,NA,NA,NA,false
WHs8P4tv,3lvtfb9df8vfwjy33dzq8w9nvhnqgc,3wmoan2srfafy3903ibxtndkqvkvn3,WHs8P4tv,2020-0188,2020-11-18,17:43:34,18:05:32,NA,incomplete,229,color,1,left,Red_Star_Grid_4.jpg,Red_Circle_Chess_3.jpg,Blue_Triangle_Stripes_4.jpg,left,661.0150000015274,true,high,NA,NA,NA,NA,NA,NA,NA,false
WHs8P4tv,3lvtfb9df8vfwjy33dzq8w9nvhnqgc,3wmoan2srfafy3903ibxtndkqvkvn3,WHs8P4tv,2020-0188,2020-11-18,17:43:34,18:05:32,NA,incomplete,230,color,1,right,Green_Circle_Dots_4.jpg,Purple_Triangle_Chess_4.jpg,Green_Star_Stripes_3.jpg,right,668.8300000005402,true,high,NA,NA,NA,NA,NA,NA,NA,false
WHs8P4tv,3lvtfb9df8vfwjy33dzq8w9nvhnqgc,3wmoan2srfafy3903ibxtndkqvkvn3,WHs8P4tv,2020-0188,2020-11-18,17:43:34,18:05:32,NA,incomplete,231,color,1,left,Blue_Triangle_Dots_3.jpg,Blue_Star_Chess_2.jpg,Purple_Plus_Grid_3.jpg,left,594.989999999525,true,high,NA,NA,NA,NA,NA,NA,NA,false
WHs8P4tv,3lvtfb9df8vfwjy33dzq8w9nvhnqgc,3wmoan2srfafy3903ibxtndkqvkvn3,WHs8P4tv,2020-0188,2020-11-18,17:43:34,18:05:32,NA,incomplete,232,color,1,left,Blue_Triangle_Chess_3.jpg,Blue_Circle_Grid_2.jpg,Red_Star_Stripes_3.jpg,left,703.6150000002235,true,high,NA,NA,NA,NA,NA,NA,NA,false
WHs8P4tv,3lvtfb9df8vfwjy33dzq8w9nvhnqgc,3wmoan2srfafy3903ibxtndkqvkvn3,WHs8P4tv,2020-0188,2020-11-18,17:43:34,18:05:32,NA,incomplete,233,color,1,right,Green_Plus_Stripes_4.jpg,Purple_Triangle_Chess_4.jpg,Green_Star_Grid_3.jpg,right,792.8099999991246,true,high,NA,NA,NA,NA,NA,NA,NA,false
WHs8P4tv,3lvtfb9df8vfwjy33dzq8w9nvhnqgc,3wmoan2srfafy3903ibxtndkqvkvn3,WHs8P4tv,2020-0188,2020-11-18,17:43:34,18:05:32,NA,incomplete,234,color,1,left,Blue_Triangle_Dots_4.jpg,Blue_Circle_Chess_2.jpg,Purple_Plus_Stripes_4.jpg,left,617.635000000475,true,high,NA,NA,NA,NA,NA,NA,NA,false
WHs8P4tv,3lvtfb9df8vfwjy33dzq8w9nvhnqgc,3wmoan2srfafy3903ibxtndkqvkvn3,WHs8P4tv,2020-0188,2020-11-18,17:43:34,18:05:32,NA,incomplete,235,color,1,left,Red_Circle_Chess_4.jpg,Red_Plus_Stripes_2.jpg,Green_Star_Grid_4.jpg,left,725.8950000014156,true,high,NA,NA,NA,NA,NA,NA,NA,false
WHs8P4tv,3lvtfb9df8vfwjy33dzq8w9nvhnqgc,3wmoan2srfafy3903ibxtndkqvkvn3,WHs8P4tv,2020-0188,2020-11-18,17:43:34,18:05:32,NA,incomplete,236,color,0,left,Purple_Plus_Chess_2.jpg,Purple_Star_Stripes_4.jpg,Red_Circle_Dots_2.jpg,left,882.9499999992549,true,high,NA,NA,NA,NA,NA,NA,NA,false
WHs8P4tv,3lvtfb9df8vfwjy33dzq8w9nvhnqgc,3wmoan2srfafy3903ibxtndkqvkvn3,WHs8P4tv,2020-0188,2020-11-18,17:43:34,18:05:32,NA,incomplete,237,color,1,left,Purple_Star_Stripes_4.jpg,Purple_Triangle_Grid_3.jpg,Green_Plus_Dots_4.jpg,left,530.2749999992084,true,high,NA,NA,NA,NA,NA,NA,NA,false
WHs8P4tv,3lvtfb9df8vfwjy33dzq8w9nvhnqgc,3wmoan2srfafy3903ibxtndkqvkvn3,WHs8P4tv,2020-0188,2020-11-18,17:43:34,18:05:32,NA,incomplete,238,color,1,left,Purple_Triangle_Chess_4.jpg,Purple_Plus_Dots_3.jpg,Blue_Circle_Stripes_4.jpg,left,628.3700000003446,true,high,NA,NA,NA,NA,NA,NA,NA,false
WHs8P4tv,3lvtfb9df8vfwjy33dzq8w9nvhnqgc,3wmoan2srfafy3903ibxtndkqvkvn3,WHs8P4tv,2020-0188,2020-11-18,17:43:34,18:05:32,NA,incomplete,239,color,1,right,Red_Plus_Grid_1.jpg,Purple_Star_Stripes_1.jpg,Red_Circle_Chess_4.jpg,right,728.3449999995064,true,high,NA,NA,NA,NA,NA,NA,NA,false
WHs8P4tv,3lvtfb9df8vfwjy33dzq8w9nvhnqgc,3wmoan2srfafy3903ibxtndkqvkvn3,WHs8P4tv,2020-0188,2020-11-18,17:43:34,18:05:32,NA,NA,instruction example,filling,NA,NA,Green_Triangle_Chess_4.jpg,Blue_Plus_Chess_2.jpg,Red_Triangle_Grid_3.jpg,NA,NA,NA,NA,NA,NA,NA,NA,NA,NA,NA,undefined
WHs8P4tv,3lvtfb9df8vfwjy33dzq8w9nvhnqgc,3wmoan2srfafy3903ibxtndkqvkvn3,WHs8P4tv,2020-0188,2020-11-18,17:43:34,18:05:32,NA,NA,instruction example,filling,NA,NA,Purple_Triangle_Grid_1.jpg,Green_Triangle_Dots_4.jpg,Red_Plus_Grid_2.jpg,NA,NA,NA,NA,NA,NA,NA,NA,NA,NA,NA,undefined
WHs8P4tv,3lvtfb9df8vfwjy33dzq8w9nvhnqgc,3wmoan2srfafy3903ibxtndkqvkvn3,WHs8P4tv,2020-0188,2020-11-18,17:43:34,18:05:32,NA,NA,instruction example,filling,NA,NA,Purple_Circle_Grid_3.jpg,Green_Star_Dots_3.jpg,Purple_Plus_Stripes_4.jpg,NA,NA,NA,NA,NA,NA,NA,NA,NA,NA,NA,undefined
WHs8P4tv,3lvtfb9df8vfwjy33dzq8w9nvhnqgc,3wmoan2srfafy3903ibxtndkqvkvn3,WHs8P4tv,2020-0188,2020-11-18,17:43:34,18:05:32,NA,NA,instruction example,filling,NA,NA,Red_Circle_Dots_2.jpg,Red_Star_Stripes_1.jpg,Green_Triangle_Grid_2.jpg,NA,NA,NA,NA,NA,NA,NA,NA,NA,NA,NA,undefined
WHs8P4tv,3lvtfb9df8vfwjy33dzq8w9nvhnqgc,3wmoan2srfafy3903ibxtndkqvkvn3,WHs8P4tv,2020-0188,2020-11-18,17:43:34,18:05:32,1272064.0199999998,1318790.2999999986,NA,NA,NA,NA,NA,NA,NA,NA,NA,NA,NA,28,Multiracial,Female,black and white,no,no,no,undefined
