workerId,hitId,assignmentId,subject,studyid,exp_date,exp_start,exp_end,time_start,time_end,trial,type,reward_validity,answer,image_top,image_left,image_right,response,response_time,response_acc,volatility,practice
AmTmjrrq,3jhb4bpsgnm0h9bvp7tggfn0kkoq96,3x4jmasxcqmx4tjnxvizhznzhd6b0l,AmTmjrrq,2020-0188,2020-05-21,13:58:18,14:22:58,NA,incomplete,0,shape,1,left,Purple_Star_Dots_3.jpg,Green_Star_Grid_4.jpg,Purple_Circle_Chess_2.jpg,left,1125.7599999662489,true,NA,true
AmTmjrrq,3jhb4bpsgnm0h9bvp7tggfn0kkoq96,3x4jmasxcqmx4tjnxvizhznzhd6b0l,AmTmjrrq,2020-0188,2020-05-21,13:58:18,14:22:58,NA,incomplete,1,shape,1,left,Purple_Plus_Dots_2.jpg,Red_Plus_Grid_4.jpg,Purple_Triangle_Chess_3.jpg,left,738.4900000179186,true,NA,true
AmTmjrrq,3jhb4bpsgnm0h9bvp7tggfn0kkoq96,3x4jmasxcqmx4tjnxvizhznzhd6b0l,AmTmjrrq,2020-0188,2020-05-21,13:58:18,14:22:58,NA,incomplete,2,shape,1,left,Red_Circle_Stripes_4.jpg,Blue_Circle_Grid_1.jpg,Red_Triangle_Chess_3.jpg,right,544.3099999683909,false,NA,true
AmTmjrrq,3jhb4bpsgnm0h9bvp7tggfn0kkoq96,3x4jmasxcqmx4tjnxvizhznzhd6b0l,AmTmjrrq,2020-0188,2020-05-21,13:58:18,14:22:58,NA,incomplete,3,shape,1,left,Green_Circle_Dots_3.jpg,Purple_Circle_Grid_4.jpg,Green_Plus_Chess_1.jpg,left,702.4249999667518,true,NA,true
AmTmjrrq,3jhb4bpsgnm0h9bvp7tggfn0kkoq96,3x4jmasxcqmx4tjnxvizhznzhd6b0l,AmTmjrrq,2020-0188,2020-05-21,13:58:18,14:22:58,NA,incomplete,4,shape,0,right,Purple_Triangle_Chess_2.jpg,Purple_Circle_Stripes_4.jpg,Red_Triangle_Dots_3.jpg,right,730.1049999659881,true,NA,true
AmTmjrrq,3jhb4bpsgnm0h9bvp7tggfn0kkoq96,3x4jmasxcqmx4tjnxvizhznzhd6b0l,AmTmjrrq,2020-0188,2020-05-21,13:58:18,14:22:58,NA,incomplete,5,shape,0,right,Red_Star_Grid_2.jpg,Red_Triangle_Dots_4.jpg,Purple_Star_Chess_3.jpg,right,684.4600000185892,true,NA,true
AmTmjrrq,3jhb4bpsgnm0h9bvp7tggfn0kkoq96,3x4jmasxcqmx4tjnxvizhznzhd6b0l,AmTmjrrq,2020-0188,2020-05-21,13:58:18,14:22:58,NA,incomplete,6,shape,1,right,Red_Circle_Grid_2.jpg,Red_Triangle_Stripes_3.jpg,Purple_Circle_Dots_4.jpg,right,619.1450000042096,true,NA,true
AmTmjrrq,3jhb4bpsgnm0h9bvp7tggfn0kkoq96,3x4jmasxcqmx4tjnxvizhznzhd6b0l,AmTmjrrq,2020-0188,2020-05-21,13:58:18,14:22:58,NA,incomplete,7,shape,1,right,Purple_Star_Stripes_4.jpg,Purple_Plus_Chess_2.jpg,Red_Star_Grid_3.jpg,right,1029.1350000188686,true,NA,true
AmTmjrrq,3jhb4bpsgnm0h9bvp7tggfn0kkoq96,3x4jmasxcqmx4tjnxvizhznzhd6b0l,AmTmjrrq,2020-0188,2020-05-21,13:58:18,14:22:58,NA,incomplete,8,shape,1,right,Green_Triangle_Stripes_3.jpg,Green_Circle_Grid_4.jpg,Purple_Triangle_Dots_1.jpg,left,548.8199999672361,false,NA,true
AmTmjrrq,3jhb4bpsgnm0h9bvp7tggfn0kkoq96,3x4jmasxcqmx4tjnxvizhznzhd6b0l,AmTmjrrq,2020-0188,2020-05-21,13:58:18,14:22:58,NA,incomplete,9,shape,1,left,Green_Plus_Stripes_3.jpg,Purple_Plus_Chess_4.jpg,Green_Star_Grid_2.jpg,left,725.6849999539554,true,NA,true
AmTmjrrq,3jhb4bpsgnm0h9bvp7tggfn0kkoq96,3x4jmasxcqmx4tjnxvizhznzhd6b0l,AmTmjrrq,2020-0188,2020-05-21,13:58:18,14:22:58,NA,incomplete,10,shape,1,right,Blue_Circle_Stripes_2.jpg,Blue_Plus_Dots_4.jpg,Red_Circle_Grid_3.jpg,right,639.8649999755435,true,NA,true
AmTmjrrq,3jhb4bpsgnm0h9bvp7tggfn0kkoq96,3x4jmasxcqmx4tjnxvizhznzhd6b0l,AmTmjrrq,2020-0188,2020-05-21,13:58:18,14:22:58,NA,incomplete,11,shape,1,left,Green_Triangle_Dots_1.jpg,Purple_Triangle_Grid_2.jpg,Green_Circle_Stripes_4.jpg,left,644.4900000351481,true,NA,true
AmTmjrrq,3jhb4bpsgnm0h9bvp7tggfn0kkoq96,3x4jmasxcqmx4tjnxvizhznzhd6b0l,AmTmjrrq,2020-0188,2020-05-21,13:58:18,14:22:58,NA,incomplete,12,shape,0,left,Purple_Circle_Dots_2.jpg,Green_Circle_Chess_4.jpg,Purple_Star_Stripes_3.jpg,left,671.8449999461882,true,NA,true
AmTmjrrq,3jhb4bpsgnm0h9bvp7tggfn0kkoq96,3x4jmasxcqmx4tjnxvizhznzhd6b0l,AmTmjrrq,2020-0188,2020-05-21,13:58:18,14:22:58,NA,incomplete,13,shape,1,left,Purple_Triangle_Dots_3.jpg,Green_Triangle_Stripes_4.jpg,Purple_Circle_Chess_1.jpg,left,652.6000000303611,true,NA,true
AmTmjrrq,3jhb4bpsgnm0h9bvp7tggfn0kkoq96,3x4jmasxcqmx4tjnxvizhznzhd6b0l,AmTmjrrq,2020-0188,2020-05-21,13:58:18,14:22:58,NA,incomplete,14,shape,0,left,Purple_Star_Chess_2.jpg,Green_Star_Dots_1.jpg,Purple_Plus_Stripes_4.jpg,left,725.6550000165589,true,NA,true
AmTmjrrq,3jhb4bpsgnm0h9bvp7tggfn0kkoq96,3x4jmasxcqmx4tjnxvizhznzhd6b0l,AmTmjrrq,2020-0188,2020-05-21,13:58:18,14:22:58,NA,incomplete,15,shape,1,left,Green_Circle_Chess_1.jpg,Purple_Circle_Stripes_3.jpg,Green_Plus_Grid_2.jpg,left,689.4600000232458,true,NA,true
AmTmjrrq,3jhb4bpsgnm0h9bvp7tggfn0kkoq96,3x4jmasxcqmx4tjnxvizhznzhd6b0l,AmTmjrrq,2020-0188,2020-05-21,13:58:18,14:22:58,NA,incomplete,16,shape,1,right,Blue_Triangle_Stripes_3.jpg,Blue_Star_Grid_1.jpg,Green_Triangle_Chess_4.jpg,right,680.0299999886192,true,NA,true
AmTmjrrq,3jhb4bpsgnm0h9bvp7tggfn0kkoq96,3x4jmasxcqmx4tjnxvizhznzhd6b0l,AmTmjrrq,2020-0188,2020-05-21,13:58:18,14:22:58,NA,incomplete,17,shape,1,right,Green_Star_Grid_3.jpg,Green_Triangle_Stripes_1.jpg,Red_Star_Dots_2.jpg,right,862.9849999560975,true,NA,true
AmTmjrrq,3jhb4bpsgnm0h9bvp7tggfn0kkoq96,3x4jmasxcqmx4tjnxvizhznzhd6b0l,AmTmjrrq,2020-0188,2020-05-21,13:58:18,14:22:58,NA,incomplete,18,shape,1,left,Purple_Star_Chess_1.jpg,Green_Star_Grid_3.jpg,Purple_Plus_Dots_2.jpg,left,685.0350000313483,true,NA,true
AmTmjrrq,3jhb4bpsgnm0h9bvp7tggfn0kkoq96,3x4jmasxcqmx4tjnxvizhznzhd6b0l,AmTmjrrq,2020-0188,2020-05-21,13:58:18,14:22:58,NA,incomplete,19,shape,1,left,Red_Circle_Chess_3.jpg,Purple_Circle_Stripes_1.jpg,Red_Plus_Grid_4.jpg,left,648.4599999967031,true,NA,true
AmTmjrrq,3jhb4bpsgnm0h9bvp7tggfn0kkoq96,3x4jmasxcqmx4tjnxvizhznzhd6b0l,AmTmjrrq,2020-0188,2020-05-21,13:58:18,14:22:58,NA,incomplete,20,color,1,left,Red_Triangle_Grid_1.jpg,Red_Plus_Stripes_2.jpg,Blue_Triangle_Dots_3.jpg,right,654.5850000111386,false,NA,true
AmTmjrrq,3jhb4bpsgnm0h9bvp7tggfn0kkoq96,3x4jmasxcqmx4tjnxvizhznzhd6b0l,AmTmjrrq,2020-0188,2020-05-21,13:58:18,14:22:58,NA,incomplete,21,color,1,right,Red_Plus_Chess_1.jpg,Blue_Plus_Stripes_4.jpg,Red_Star_Dots_2.jpg,right,757.4550000135787,true,NA,true
AmTmjrrq,3jhb4bpsgnm0h9bvp7tggfn0kkoq96,3x4jmasxcqmx4tjnxvizhznzhd6b0l,AmTmjrrq,2020-0188,2020-05-21,13:58:18,14:22:58,NA,incomplete,22,color,1,right,Green_Triangle_Grid_4.jpg,Purple_Triangle_Dots_2.jpg,Green_Plus_Chess_3.jpg,right,650.3099999972619,true,NA,true
AmTmjrrq,3jhb4bpsgnm0h9bvp7tggfn0kkoq96,3x4jmasxcqmx4tjnxvizhznzhd6b0l,AmTmjrrq,2020-0188,2020-05-21,13:58:18,14:22:58,NA,incomplete,23,color,1,right,Blue_Plus_Grid_3.jpg,Green_Plus_Dots_2.jpg,Blue_Triangle_Chess_1.jpg,left,623.4049999620765,false,NA,true
AmTmjrrq,3jhb4bpsgnm0h9bvp7tggfn0kkoq96,3x4jmasxcqmx4tjnxvizhznzhd6b0l,AmTmjrrq,2020-0188,2020-05-21,13:58:18,14:22:58,NA,incomplete,24,color,1,left,Red_Star_Grid_2.jpg,Red_Circle_Dots_1.jpg,Blue_Star_Stripes_4.jpg,left,692.8149999585003,true,NA,true
AmTmjrrq,3jhb4bpsgnm0h9bvp7tggfn0kkoq96,3x4jmasxcqmx4tjnxvizhznzhd6b0l,AmTmjrrq,2020-0188,2020-05-21,13:58:18,14:22:58,NA,incomplete,25,color,0,right,Red_Plus_Dots_4.jpg,Purple_Plus_Chess_2.jpg,Red_Circle_Stripes_3.jpg,right,559.3850000295788,true,NA,true
AmTmjrrq,3jhb4bpsgnm0h9bvp7tggfn0kkoq96,3x4jmasxcqmx4tjnxvizhznzhd6b0l,AmTmjrrq,2020-0188,2020-05-21,13:58:18,14:22:58,NA,incomplete,26,color,1,right,Green_Plus_Dots_1.jpg,Purple_Plus_Chess_2.jpg,Green_Star_Grid_3.jpg,right,619.1649999818765,true,NA,true
AmTmjrrq,3jhb4bpsgnm0h9bvp7tggfn0kkoq96,3x4jmasxcqmx4tjnxvizhznzhd6b0l,AmTmjrrq,2020-0188,2020-05-21,13:58:18,14:22:58,NA,incomplete,27,color,0,left,Blue_Star_Dots_4.jpg,Blue_Circle_Chess_1.jpg,Red_Star_Stripes_3.jpg,left,493.7599999830127,true,NA,true
AmTmjrrq,3jhb4bpsgnm0h9bvp7tggfn0kkoq96,3x4jmasxcqmx4tjnxvizhznzhd6b0l,AmTmjrrq,2020-0188,2020-05-21,13:58:18,14:22:58,NA,incomplete,28,color,1,right,Green_Plus_Chess_2.jpg,Blue_Plus_Stripes_3.jpg,Green_Star_Grid_4.jpg,right,718.8350000069477,true,NA,true
AmTmjrrq,3jhb4bpsgnm0h9bvp7tggfn0kkoq96,3x4jmasxcqmx4tjnxvizhznzhd6b0l,AmTmjrrq,2020-0188,2020-05-21,13:58:18,14:22:58,NA,incomplete,29,color,1,left,Purple_Circle_Dots_1.jpg,Purple_Plus_Chess_2.jpg,Red_Circle_Grid_4.jpg,left,600.5349999759346,true,NA,true
AmTmjrrq,3jhb4bpsgnm0h9bvp7tggfn0kkoq96,3x4jmasxcqmx4tjnxvizhznzhd6b0l,AmTmjrrq,2020-0188,2020-05-21,13:58:18,14:22:58,NA,incomplete,30,color,0,right,Blue_Plus_Dots_3.jpg,Red_Plus_Grid_2.jpg,Blue_Circle_Stripes_4.jpg,right,710.8050000388175,true,NA,true
AmTmjrrq,3jhb4bpsgnm0h9bvp7tggfn0kkoq96,3x4jmasxcqmx4tjnxvizhznzhd6b0l,AmTmjrrq,2020-0188,2020-05-21,13:58:18,14:22:58,NA,incomplete,31,color,1,right,Red_Star_Chess_3.jpg,Purple_Star_Dots_1.jpg,Red_Circle_Stripes_2.jpg,right,636.1849999520928,true,NA,true
AmTmjrrq,3jhb4bpsgnm0h9bvp7tggfn0kkoq96,3x4jmasxcqmx4tjnxvizhznzhd6b0l,AmTmjrrq,2020-0188,2020-05-21,13:58:18,14:22:58,NA,incomplete,32,color,1,left,Blue_Circle_Chess_1.jpg,Blue_Star_Stripes_3.jpg,Purple_Circle_Grid_4.jpg,left,494.01000002399087,true,NA,true
AmTmjrrq,3jhb4bpsgnm0h9bvp7tggfn0kkoq96,3x4jmasxcqmx4tjnxvizhznzhd6b0l,AmTmjrrq,2020-0188,2020-05-21,13:58:18,14:22:58,NA,incomplete,33,color,1,right,Blue_Plus_Dots_2.jpg,Purple_Plus_Grid_4.jpg,Blue_Circle_Stripes_3.jpg,right,461.61499997833744,true,NA,true
AmTmjrrq,3jhb4bpsgnm0h9bvp7tggfn0kkoq96,3x4jmasxcqmx4tjnxvizhznzhd6b0l,AmTmjrrq,2020-0188,2020-05-21,13:58:18,14:22:58,NA,incomplete,34,color,0,right,Red_Plus_Grid_4.jpg,Blue_Plus_Dots_1.jpg,Red_Triangle_Stripes_2.jpg,right,622.3150000441819,true,NA,true
AmTmjrrq,3jhb4bpsgnm0h9bvp7tggfn0kkoq96,3x4jmasxcqmx4tjnxvizhznzhd6b0l,AmTmjrrq,2020-0188,2020-05-21,13:58:18,14:22:58,NA,incomplete,35,color,1,left,Red_Plus_Grid_4.jpg,Red_Triangle_Dots_3.jpg,Green_Plus_Stripes_1.jpg,left,587.9200000199489,true,NA,true
AmTmjrrq,3jhb4bpsgnm0h9bvp7tggfn0kkoq96,3x4jmasxcqmx4tjnxvizhznzhd6b0l,AmTmjrrq,2020-0188,2020-05-21,13:58:18,14:22:58,NA,incomplete,36,color,1,left,Blue_Triangle_Grid_3.jpg,Blue_Star_Chess_2.jpg,Red_Triangle_Stripes_4.jpg,left,523.7650000490248,true,NA,true
AmTmjrrq,3jhb4bpsgnm0h9bvp7tggfn0kkoq96,3x4jmasxcqmx4tjnxvizhznzhd6b0l,AmTmjrrq,2020-0188,2020-05-21,13:58:18,14:22:58,NA,incomplete,37,color,1,right,Red_Star_Chess_2.jpg,Green_Star_Grid_1.jpg,Red_Circle_Stripes_4.jpg,right,485.26500002481043,true,NA,true
AmTmjrrq,3jhb4bpsgnm0h9bvp7tggfn0kkoq96,3x4jmasxcqmx4tjnxvizhznzhd6b0l,AmTmjrrq,2020-0188,2020-05-21,13:58:18,14:22:58,NA,incomplete,38,color,1,left,Red_Triangle_Grid_4.jpg,Red_Plus_Dots_1.jpg,Purple_Triangle_Chess_2.jpg,left,494.50999998953193,true,NA,true
AmTmjrrq,3jhb4bpsgnm0h9bvp7tggfn0kkoq96,3x4jmasxcqmx4tjnxvizhznzhd6b0l,AmTmjrrq,2020-0188,2020-05-21,13:58:18,14:22:58,NA,incomplete,39,color,1,left,Purple_Triangle_Chess_1.jpg,Purple_Star_Grid_2.jpg,Red_Triangle_Stripes_3.jpg,left,496.3899999856949,true,NA,true
AmTmjrrq,3jhb4bpsgnm0h9bvp7tggfn0kkoq96,3x4jmasxcqmx4tjnxvizhznzhd6b0l,AmTmjrrq,2020-0188,2020-05-21,13:58:18,14:22:58,NA,incomplete,0,shape,0,left,Green_Plus_Dots_1.jpg,Blue_Plus_Stripes_4.jpg,Green_Circle_Chess_3.jpg,right,1229.1449999902397,false,low,false
AmTmjrrq,3jhb4bpsgnm0h9bvp7tggfn0kkoq96,3x4jmasxcqmx4tjnxvizhznzhd6b0l,AmTmjrrq,2020-0188,2020-05-21,13:58:18,14:22:58,NA,incomplete,1,shape,1,left,Purple_Circle_Dots_3.jpg,Green_Circle_Chess_2.jpg,Purple_Plus_Stripes_1.jpg,right,732.1399999782443,false,low,false
AmTmjrrq,3jhb4bpsgnm0h9bvp7tggfn0kkoq96,3x4jmasxcqmx4tjnxvizhznzhd6b0l,AmTmjrrq,2020-0188,2020-05-21,13:58:18,14:22:58,NA,incomplete,2,shape,1,right,Green_Circle_Dots_4.jpg,Green_Plus_Chess_3.jpg,Purple_Circle_Stripes_1.jpg,right,783.5400000330992,true,low,false
AmTmjrrq,3jhb4bpsgnm0h9bvp7tggfn0kkoq96,3x4jmasxcqmx4tjnxvizhznzhd6b0l,AmTmjrrq,2020-0188,2020-05-21,13:58:18,14:22:58,NA,incomplete,3,shape,0,left,Green_Triangle_Chess_3.jpg,Purple_Triangle_Dots_2.jpg,Green_Star_Grid_1.jpg,left,908.9650000096299,true,low,false
AmTmjrrq,3jhb4bpsgnm0h9bvp7tggfn0kkoq96,3x4jmasxcqmx4tjnxvizhznzhd6b0l,AmTmjrrq,2020-0188,2020-05-21,13:58:18,14:22:58,NA,incomplete,4,shape,0,left,Blue_Circle_Grid_3.jpg,Purple_Circle_Chess_4.jpg,Blue_Star_Dots_1.jpg,left,755.0599999958649,true,low,false
AmTmjrrq,3jhb4bpsgnm0h9bvp7tggfn0kkoq96,3x4jmasxcqmx4tjnxvizhznzhd6b0l,AmTmjrrq,2020-0188,2020-05-21,13:58:18,14:22:58,NA,incomplete,5,shape,1,right,Purple_Star_Dots_4.jpg,Purple_Circle_Stripes_1.jpg,Green_Star_Grid_2.jpg,right,993.7400000053458,true,low,false
AmTmjrrq,3jhb4bpsgnm0h9bvp7tggfn0kkoq96,3x4jmasxcqmx4tjnxvizhznzhd6b0l,AmTmjrrq,2020-0188,2020-05-21,13:58:18,14:22:58,NA,incomplete,6,shape,1,left,Blue_Circle_Grid_1.jpg,Green_Circle_Dots_4.jpg,Blue_Triangle_Stripes_2.jpg,left,621.1650000186637,true,low,false
AmTmjrrq,3jhb4bpsgnm0h9bvp7tggfn0kkoq96,3x4jmasxcqmx4tjnxvizhznzhd6b0l,AmTmjrrq,2020-0188,2020-05-21,13:58:18,14:22:58,NA,incomplete,7,shape,0,left,Purple_Triangle_Stripes_4.jpg,Green_Triangle_Dots_2.jpg,Purple_Plus_Grid_3.jpg,left,745.9999999846332,true,low,false
AmTmjrrq,3jhb4bpsgnm0h9bvp7tggfn0kkoq96,3x4jmasxcqmx4tjnxvizhznzhd6b0l,AmTmjrrq,2020-0188,2020-05-21,13:58:18,14:22:58,NA,incomplete,8,shape,1,right,Blue_Star_Stripes_4.jpg,Blue_Triangle_Chess_2.jpg,Green_Star_Dots_3.jpg,right,779.3850000016391,true,low,false
AmTmjrrq,3jhb4bpsgnm0h9bvp7tggfn0kkoq96,3x4jmasxcqmx4tjnxvizhznzhd6b0l,AmTmjrrq,2020-0188,2020-05-21,13:58:18,14:22:58,NA,incomplete,9,shape,0,left,Purple_Plus_Grid_3.jpg,Green_Plus_Chess_2.jpg,Purple_Star_Dots_4.jpg,left,793.8950000097975,true,low,false
AmTmjrrq,3jhb4bpsgnm0h9bvp7tggfn0kkoq96,3x4jmasxcqmx4tjnxvizhznzhd6b0l,AmTmjrrq,2020-0188,2020-05-21,13:58:18,14:22:58,NA,incomplete,10,shape,0,left,Green_Star_Dots_2.jpg,Blue_Star_Grid_1.jpg,Green_Circle_Chess_4.jpg,left,722.6800000062212,true,low,false
AmTmjrrq,3jhb4bpsgnm0h9bvp7tggfn0kkoq96,3x4jmasxcqmx4tjnxvizhznzhd6b0l,AmTmjrrq,2020-0188,2020-05-21,13:58:18,14:22:58,NA,incomplete,11,shape,1,right,Purple_Circle_Chess_1.jpg,Purple_Star_Stripes_3.jpg,Green_Circle_Dots_2.jpg,left,653.2200000365265,false,low,false
AmTmjrrq,3jhb4bpsgnm0h9bvp7tggfn0kkoq96,3x4jmasxcqmx4tjnxvizhznzhd6b0l,AmTmjrrq,2020-0188,2020-05-21,13:58:18,14:22:58,NA,incomplete,12,shape,1,right,Red_Plus_Dots_2.jpg,Red_Star_Chess_1.jpg,Green_Plus_Grid_4.jpg,left,701.5499999979511,false,low,false
AmTmjrrq,3jhb4bpsgnm0h9bvp7tggfn0kkoq96,3x4jmasxcqmx4tjnxvizhznzhd6b0l,AmTmjrrq,2020-0188,2020-05-21,13:58:18,14:22:58,NA,incomplete,13,shape,1,right,Red_Plus_Grid_2.jpg,Red_Triangle_Stripes_3.jpg,Blue_Plus_Chess_4.jpg,right,756.1899999855086,true,low,false
AmTmjrrq,3jhb4bpsgnm0h9bvp7tggfn0kkoq96,3x4jmasxcqmx4tjnxvizhznzhd6b0l,AmTmjrrq,2020-0188,2020-05-21,13:58:18,14:22:58,NA,incomplete,14,shape,1,right,Purple_Plus_Chess_2.jpg,Purple_Circle_Dots_3.jpg,Green_Plus_Grid_4.jpg,right,769.9649999849498,true,low,false
AmTmjrrq,3jhb4bpsgnm0h9bvp7tggfn0kkoq96,3x4jmasxcqmx4tjnxvizhznzhd6b0l,AmTmjrrq,2020-0188,2020-05-21,13:58:18,14:22:58,NA,incomplete,15,shape,1,left,Green_Plus_Grid_2.jpg,Red_Plus_Chess_1.jpg,Green_Star_Stripes_4.jpg,left,707.6600000145845,true,low,false
AmTmjrrq,3jhb4bpsgnm0h9bvp7tggfn0kkoq96,3x4jmasxcqmx4tjnxvizhznzhd6b0l,AmTmjrrq,2020-0188,2020-05-21,13:58:18,14:22:58,NA,incomplete,16,shape,1,left,Blue_Circle_Stripes_3.jpg,Purple_Circle_Dots_4.jpg,Blue_Star_Chess_2.jpg,left,670.5300000030547,true,low,false
AmTmjrrq,3jhb4bpsgnm0h9bvp7tggfn0kkoq96,3x4jmasxcqmx4tjnxvizhznzhd6b0l,AmTmjrrq,2020-0188,2020-05-21,13:58:18,14:22:58,NA,incomplete,17,shape,1,left,Blue_Triangle_Grid_4.jpg,Green_Triangle_Dots_1.jpg,Blue_Plus_Stripes_3.jpg,left,643.1999999913387,true,low,false
AmTmjrrq,3jhb4bpsgnm0h9bvp7tggfn0kkoq96,3x4jmasxcqmx4tjnxvizhznzhd6b0l,AmTmjrrq,2020-0188,2020-05-21,13:58:18,14:22:58,NA,incomplete,18,shape,1,right,Red_Plus_Stripes_4.jpg,Red_Triangle_Chess_2.jpg,Blue_Plus_Dots_3.jpg,right,736.8349999887869,true,low,false
AmTmjrrq,3jhb4bpsgnm0h9bvp7tggfn0kkoq96,3x4jmasxcqmx4tjnxvizhznzhd6b0l,AmTmjrrq,2020-0188,2020-05-21,13:58:18,14:22:58,NA,incomplete,19,shape,1,left,Green_Plus_Chess_1.jpg,Red_Plus_Grid_2.jpg,Green_Star_Stripes_4.jpg,left,657.8199999639764,true,low,false
AmTmjrrq,3jhb4bpsgnm0h9bvp7tggfn0kkoq96,3x4jmasxcqmx4tjnxvizhznzhd6b0l,AmTmjrrq,2020-0188,2020-05-21,13:58:18,14:22:58,NA,incomplete,20,shape,1,left,Blue_Triangle_Dots_4.jpg,Purple_Triangle_Stripes_3.jpg,Blue_Plus_Grid_2.jpg,left,612.0549999759533,true,low,false
AmTmjrrq,3jhb4bpsgnm0h9bvp7tggfn0kkoq96,3x4jmasxcqmx4tjnxvizhznzhd6b0l,AmTmjrrq,2020-0188,2020-05-21,13:58:18,14:22:58,NA,incomplete,21,shape,0,right,Green_Plus_Chess_3.jpg,Green_Star_Grid_4.jpg,Purple_Plus_Dots_1.jpg,right,715.0000000256114,true,low,false
AmTmjrrq,3jhb4bpsgnm0h9bvp7tggfn0kkoq96,3x4jmasxcqmx4tjnxvizhznzhd6b0l,AmTmjrrq,2020-0188,2020-05-21,13:58:18,14:22:58,NA,incomplete,22,shape,1,left,Purple_Triangle_Stripes_4.jpg,Blue_Triangle_Grid_3.jpg,Purple_Plus_Chess_2.jpg,left,625.6600000197068,true,low,false
AmTmjrrq,3jhb4bpsgnm0h9bvp7tggfn0kkoq96,3x4jmasxcqmx4tjnxvizhznzhd6b0l,AmTmjrrq,2020-0188,2020-05-21,13:58:18,14:22:58,NA,incomplete,23,shape,1,right,Purple_Circle_Dots_4.jpg,Purple_Star_Chess_2.jpg,Blue_Circle_Grid_1.jpg,right,859.6900000120513,true,low,false
AmTmjrrq,3jhb4bpsgnm0h9bvp7tggfn0kkoq96,3x4jmasxcqmx4tjnxvizhznzhd6b0l,AmTmjrrq,2020-0188,2020-05-21,13:58:18,14:22:58,NA,incomplete,24,shape,1,left,Red_Circle_Stripes_1.jpg,Green_Circle_Grid_4.jpg,Red_Star_Chess_2.jpg,left,625.5099999834783,true,low,false
AmTmjrrq,3jhb4bpsgnm0h9bvp7tggfn0kkoq96,3x4jmasxcqmx4tjnxvizhznzhd6b0l,AmTmjrrq,2020-0188,2020-05-21,13:58:18,14:22:58,NA,incomplete,25,shape,1,left,Blue_Plus_Grid_1.jpg,Purple_Plus_Dots_3.jpg,Blue_Triangle_Chess_4.jpg,left,606.85000004014,true,low,false
AmTmjrrq,3jhb4bpsgnm0h9bvp7tggfn0kkoq96,3x4jmasxcqmx4tjnxvizhznzhd6b0l,AmTmjrrq,2020-0188,2020-05-21,13:58:18,14:22:58,NA,incomplete,26,shape,1,right,Green_Plus_Chess_2.jpg,Green_Circle_Dots_1.jpg,Purple_Plus_Stripes_3.jpg,right,644.434999965597,true,low,false
AmTmjrrq,3jhb4bpsgnm0h9bvp7tggfn0kkoq96,3x4jmasxcqmx4tjnxvizhznzhd6b0l,AmTmjrrq,2020-0188,2020-05-21,13:58:18,14:22:58,NA,incomplete,27,shape,1,left,Green_Triangle_Stripes_1.jpg,Red_Triangle_Chess_2.jpg,Green_Star_Dots_4.jpg,left,588.6949999839999,true,low,false
AmTmjrrq,3jhb4bpsgnm0h9bvp7tggfn0kkoq96,3x4jmasxcqmx4tjnxvizhznzhd6b0l,AmTmjrrq,2020-0188,2020-05-21,13:58:18,14:22:58,NA,incomplete,28,shape,1,left,Green_Star_Dots_4.jpg,Blue_Star_Grid_2.jpg,Green_Circle_Stripes_1.jpg,left,703.3850000007078,true,low,false
AmTmjrrq,3jhb4bpsgnm0h9bvp7tggfn0kkoq96,3x4jmasxcqmx4tjnxvizhznzhd6b0l,AmTmjrrq,2020-0188,2020-05-21,13:58:18,14:22:58,NA,incomplete,29,shape,1,right,Green_Star_Grid_3.jpg,Green_Circle_Stripes_1.jpg,Purple_Star_Dots_4.jpg,right,642.0950000174344,true,low,false
AmTmjrrq,3jhb4bpsgnm0h9bvp7tggfn0kkoq96,3x4jmasxcqmx4tjnxvizhznzhd6b0l,AmTmjrrq,2020-0188,2020-05-21,13:58:18,14:22:58,NA,incomplete,30,color,0,left,Blue_Plus_Chess_1.jpg,Blue_Circle_Grid_3.jpg,Red_Plus_Stripes_2.jpg,left,478.32500003278255,true,low,false
AmTmjrrq,3jhb4bpsgnm0h9bvp7tggfn0kkoq96,3x4jmasxcqmx4tjnxvizhznzhd6b0l,AmTmjrrq,2020-0188,2020-05-21,13:58:18,14:22:58,NA,incomplete,31,color,1,left,Blue_Star_Dots_2.jpg,Blue_Plus_Chess_4.jpg,Green_Star_Stripes_1.jpg,right,711.2750000087544,false,low,false
AmTmjrrq,3jhb4bpsgnm0h9bvp7tggfn0kkoq96,3x4jmasxcqmx4tjnxvizhznzhd6b0l,AmTmjrrq,2020-0188,2020-05-21,13:58:18,14:22:58,NA,incomplete,32,color,1,right,Green_Circle_Stripes_1.jpg,Blue_Circle_Dots_3.jpg,Green_Triangle_Grid_2.jpg,left,818.7749999924563,false,low,false
AmTmjrrq,3jhb4bpsgnm0h9bvp7tggfn0kkoq96,3x4jmasxcqmx4tjnxvizhznzhd6b0l,AmTmjrrq,2020-0188,2020-05-21,13:58:18,14:22:58,NA,incomplete,33,color,1,right,Blue_Circle_Dots_2.jpg,Purple_Circle_Chess_3.jpg,Blue_Plus_Stripes_4.jpg,right,631.9199999561533,true,low,false
AmTmjrrq,3jhb4bpsgnm0h9bvp7tggfn0kkoq96,3x4jmasxcqmx4tjnxvizhznzhd6b0l,AmTmjrrq,2020-0188,2020-05-21,13:58:18,14:22:58,NA,incomplete,34,color,0,right,Red_Plus_Stripes_3.jpg,Green_Plus_Dots_2.jpg,Red_Star_Grid_1.jpg,right,651.7549999989569,true,low,false
AmTmjrrq,3jhb4bpsgnm0h9bvp7tggfn0kkoq96,3x4jmasxcqmx4tjnxvizhznzhd6b0l,AmTmjrrq,2020-0188,2020-05-21,13:58:18,14:22:58,NA,incomplete,35,color,1,right,Red_Plus_Dots_2.jpg,Purple_Plus_Grid_4.jpg,Red_Star_Stripes_1.jpg,right,784.3649999704212,true,low,false
AmTmjrrq,3jhb4bpsgnm0h9bvp7tggfn0kkoq96,3x4jmasxcqmx4tjnxvizhznzhd6b0l,AmTmjrrq,2020-0188,2020-05-21,13:58:18,14:22:58,NA,incomplete,36,color,1,right,Purple_Star_Dots_3.jpg,Red_Star_Chess_1.jpg,Purple_Circle_Stripes_2.jpg,right,967.4050000030547,true,low,false
AmTmjrrq,3jhb4bpsgnm0h9bvp7tggfn0kkoq96,3x4jmasxcqmx4tjnxvizhznzhd6b0l,AmTmjrrq,2020-0188,2020-05-21,13:58:18,14:22:58,NA,incomplete,37,color,1,left,Green_Star_Stripes_1.jpg,Green_Circle_Chess_2.jpg,Blue_Star_Grid_4.jpg,right,792.3149999696761,false,low,false
AmTmjrrq,3jhb4bpsgnm0h9bvp7tggfn0kkoq96,3x4jmasxcqmx4tjnxvizhznzhd6b0l,AmTmjrrq,2020-0188,2020-05-21,13:58:18,14:22:58,NA,incomplete,38,color,1,left,Red_Circle_Dots_1.jpg,Red_Plus_Chess_3.jpg,Blue_Circle_Grid_2.jpg,left,789.6349999937229,true,low,false
AmTmjrrq,3jhb4bpsgnm0h9bvp7tggfn0kkoq96,3x4jmasxcqmx4tjnxvizhznzhd6b0l,AmTmjrrq,2020-0188,2020-05-21,13:58:18,14:22:58,NA,incomplete,39,color,0,right,Purple_Circle_Grid_3.jpg,Green_Circle_Dots_1.jpg,Purple_Plus_Chess_2.jpg,right,674.7949999989942,true,low,false
AmTmjrrq,3jhb4bpsgnm0h9bvp7tggfn0kkoq96,3x4jmasxcqmx4tjnxvizhznzhd6b0l,AmTmjrrq,2020-0188,2020-05-21,13:58:18,14:22:58,NA,incomplete,40,color,1,right,Purple_Star_Stripes_3.jpg,Red_Star_Grid_4.jpg,Purple_Plus_Chess_1.jpg,right,663.6350000044331,true,low,false
AmTmjrrq,3jhb4bpsgnm0h9bvp7tggfn0kkoq96,3x4jmasxcqmx4tjnxvizhznzhd6b0l,AmTmjrrq,2020-0188,2020-05-21,13:58:18,14:22:58,NA,incomplete,41,color,0,right,Green_Plus_Grid_4.jpg,Purple_Plus_Dots_3.jpg,Green_Circle_Chess_2.jpg,right,739.3450000090525,true,low,false
AmTmjrrq,3jhb4bpsgnm0h9bvp7tggfn0kkoq96,3x4jmasxcqmx4tjnxvizhznzhd6b0l,AmTmjrrq,2020-0188,2020-05-21,13:58:18,14:22:58,NA,incomplete,42,color,1,right,Purple_Circle_Stripes_1.jpg,Blue_Circle_Dots_2.jpg,Purple_Star_Chess_4.jpg,right,849.3299999972805,true,low,false
AmTmjrrq,3jhb4bpsgnm0h9bvp7tggfn0kkoq96,3x4jmasxcqmx4tjnxvizhznzhd6b0l,AmTmjrrq,2020-0188,2020-05-21,13:58:18,14:22:58,NA,incomplete,43,color,1,left,Blue_Star_Stripes_2.jpg,Blue_Circle_Chess_1.jpg,Purple_Star_Grid_4.jpg,left,762.0800000149757,true,low,false
AmTmjrrq,3jhb4bpsgnm0h9bvp7tggfn0kkoq96,3x4jmasxcqmx4tjnxvizhznzhd6b0l,AmTmjrrq,2020-0188,2020-05-21,13:58:18,14:22:58,NA,incomplete,44,color,0,left,Green_Star_Stripes_1.jpg,Green_Circle_Chess_4.jpg,Red_Star_Grid_2.jpg,left,562.2049999656156,true,low,false
AmTmjrrq,3jhb4bpsgnm0h9bvp7tggfn0kkoq96,3x4jmasxcqmx4tjnxvizhznzhd6b0l,AmTmjrrq,2020-0188,2020-05-21,13:58:18,14:22:58,NA,incomplete,45,color,0,left,Green_Circle_Chess_3.jpg,Green_Star_Grid_4.jpg,Blue_Circle_Stripes_2.jpg,right,811.5200000465848,false,low,false
AmTmjrrq,3jhb4bpsgnm0h9bvp7tggfn0kkoq96,3x4jmasxcqmx4tjnxvizhznzhd6b0l,AmTmjrrq,2020-0188,2020-05-21,13:58:18,14:22:58,NA,incomplete,46,color,1,right,Green_Plus_Grid_2.jpg,Red_Plus_Stripes_3.jpg,Green_Circle_Chess_4.jpg,left,746.404999983497,false,low,false
AmTmjrrq,3jhb4bpsgnm0h9bvp7tggfn0kkoq96,3x4jmasxcqmx4tjnxvizhznzhd6b0l,AmTmjrrq,2020-0188,2020-05-21,13:58:18,14:22:58,NA,incomplete,47,color,1,right,Blue_Circle_Dots_2.jpg,Red_Circle_Grid_4.jpg,Blue_Plus_Chess_3.jpg,right,660.2100000018254,true,low,false
AmTmjrrq,3jhb4bpsgnm0h9bvp7tggfn0kkoq96,3x4jmasxcqmx4tjnxvizhznzhd6b0l,AmTmjrrq,2020-0188,2020-05-21,13:58:18,14:22:58,NA,incomplete,48,color,1,left,Red_Circle_Dots_3.jpg,Red_Plus_Stripes_4.jpg,Purple_Circle_Chess_2.jpg,left,615.734999999404,true,low,false
AmTmjrrq,3jhb4bpsgnm0h9bvp7tggfn0kkoq96,3x4jmasxcqmx4tjnxvizhznzhd6b0l,AmTmjrrq,2020-0188,2020-05-21,13:58:18,14:22:58,NA,incomplete,49,color,1,right,Purple_Plus_Chess_1.jpg,Blue_Plus_Grid_2.jpg,Purple_Star_Dots_4.jpg,right,612.18000005465,true,low,false
AmTmjrrq,3jhb4bpsgnm0h9bvp7tggfn0kkoq96,3x4jmasxcqmx4tjnxvizhznzhd6b0l,AmTmjrrq,2020-0188,2020-05-21,13:58:18,14:22:58,NA,incomplete,50,color,1,right,Green_Triangle_Grid_2.jpg,Blue_Triangle_Stripes_1.jpg,Green_Star_Chess_4.jpg,right,553.6599999759346,true,low,false
AmTmjrrq,3jhb4bpsgnm0h9bvp7tggfn0kkoq96,3x4jmasxcqmx4tjnxvizhznzhd6b0l,AmTmjrrq,2020-0188,2020-05-21,13:58:18,14:22:58,NA,incomplete,51,color,1,right,Blue_Star_Grid_2.jpg,Purple_Star_Chess_4.jpg,Blue_Plus_Stripes_1.jpg,right,566.6600000113249,true,low,false
AmTmjrrq,3jhb4bpsgnm0h9bvp7tggfn0kkoq96,3x4jmasxcqmx4tjnxvizhznzhd6b0l,AmTmjrrq,2020-0188,2020-05-21,13:58:18,14:22:58,NA,incomplete,52,color,1,left,Green_Triangle_Dots_2.jpg,Green_Plus_Stripes_1.jpg,Purple_Triangle_Chess_3.jpg,left,458.9999999734573,true,low,false
AmTmjrrq,3jhb4bpsgnm0h9bvp7tggfn0kkoq96,3x4jmasxcqmx4tjnxvizhznzhd6b0l,AmTmjrrq,2020-0188,2020-05-21,13:58:18,14:22:58,NA,incomplete,53,color,1,left,Purple_Plus_Stripes_4.jpg,Purple_Circle_Chess_1.jpg,Blue_Plus_Dots_3.jpg,left,610.7399999746121,true,low,false
AmTmjrrq,3jhb4bpsgnm0h9bvp7tggfn0kkoq96,3x4jmasxcqmx4tjnxvizhznzhd6b0l,AmTmjrrq,2020-0188,2020-05-21,13:58:18,14:22:58,NA,incomplete,54,color,1,left,Red_Circle_Stripes_2.jpg,Red_Triangle_Chess_4.jpg,Purple_Circle_Grid_3.jpg,left,584.0949999983422,true,low,false
AmTmjrrq,3jhb4bpsgnm0h9bvp7tggfn0kkoq96,3x4jmasxcqmx4tjnxvizhznzhd6b0l,AmTmjrrq,2020-0188,2020-05-21,13:58:18,14:22:58,NA,incomplete,55,color,1,left,Purple_Circle_Stripes_2.jpg,Purple_Triangle_Chess_3.jpg,Red_Circle_Dots_4.jpg,left,567.1299999812618,true,low,false
AmTmjrrq,3jhb4bpsgnm0h9bvp7tggfn0kkoq96,3x4jmasxcqmx4tjnxvizhznzhd6b0l,AmTmjrrq,2020-0188,2020-05-21,13:58:18,14:22:58,NA,incomplete,56,color,1,right,Blue_Circle_Stripes_4.jpg,Purple_Circle_Grid_3.jpg,Blue_Plus_Chess_2.jpg,right,543.1300000054762,true,low,false
AmTmjrrq,3jhb4bpsgnm0h9bvp7tggfn0kkoq96,3x4jmasxcqmx4tjnxvizhznzhd6b0l,AmTmjrrq,2020-0188,2020-05-21,13:58:18,14:22:58,NA,incomplete,57,color,1,left,Purple_Star_Dots_4.jpg,Purple_Triangle_Stripes_1.jpg,Green_Star_Chess_3.jpg,left,520.6699999980628,true,low,false
AmTmjrrq,3jhb4bpsgnm0h9bvp7tggfn0kkoq96,3x4jmasxcqmx4tjnxvizhznzhd6b0l,AmTmjrrq,2020-0188,2020-05-21,13:58:18,14:22:58,NA,incomplete,58,color,1,right,Purple_Star_Dots_3.jpg,Blue_Star_Stripes_4.jpg,Purple_Plus_Chess_2.jpg,right,549.9349999590777,true,low,false
AmTmjrrq,3jhb4bpsgnm0h9bvp7tggfn0kkoq96,3x4jmasxcqmx4tjnxvizhznzhd6b0l,AmTmjrrq,2020-0188,2020-05-21,13:58:18,14:22:58,NA,incomplete,59,color,1,left,Green_Star_Chess_4.jpg,Green_Triangle_Dots_1.jpg,Blue_Star_Stripes_3.jpg,left,501.1349999695085,true,low,false
AmTmjrrq,3jhb4bpsgnm0h9bvp7tggfn0kkoq96,3x4jmasxcqmx4tjnxvizhznzhd6b0l,AmTmjrrq,2020-0188,2020-05-21,13:58:18,14:22:58,NA,incomplete,60,shape,1,left,Blue_Star_Chess_2.jpg,Purple_Star_Grid_3.jpg,Blue_Circle_Stripes_1.jpg,right,543.9850000548176,false,low,false
AmTmjrrq,3jhb4bpsgnm0h9bvp7tggfn0kkoq96,3x4jmasxcqmx4tjnxvizhznzhd6b0l,AmTmjrrq,2020-0188,2020-05-21,13:58:18,14:22:58,NA,incomplete,61,shape,1,right,Blue_Star_Grid_1.jpg,Blue_Plus_Chess_2.jpg,Red_Star_Dots_4.jpg,left,511.43499999307096,false,low,false
AmTmjrrq,3jhb4bpsgnm0h9bvp7tggfn0kkoq96,3x4jmasxcqmx4tjnxvizhznzhd6b0l,AmTmjrrq,2020-0188,2020-05-21,13:58:18,14:22:58,NA,incomplete,62,shape,1,right,Red_Plus_Stripes_3.jpg,Red_Circle_Chess_1.jpg,Blue_Plus_Dots_2.jpg,right,1090.955000021495,true,low,false
AmTmjrrq,3jhb4bpsgnm0h9bvp7tggfn0kkoq96,3x4jmasxcqmx4tjnxvizhznzhd6b0l,AmTmjrrq,2020-0188,2020-05-21,13:58:18,14:22:58,NA,incomplete,63,shape,1,left,Purple_Triangle_Stripes_1.jpg,Blue_Triangle_Grid_3.jpg,Purple_Circle_Dots_2.jpg,left,893.7900000018999,true,low,false
AmTmjrrq,3jhb4bpsgnm0h9bvp7tggfn0kkoq96,3x4jmasxcqmx4tjnxvizhznzhd6b0l,AmTmjrrq,2020-0188,2020-05-21,13:58:18,14:22:58,NA,incomplete,64,shape,1,left,Red_Circle_Stripes_1.jpg,Green_Circle_Dots_4.jpg,Red_Plus_Chess_2.jpg,left,827.8649999992922,true,low,false
AmTmjrrq,3jhb4bpsgnm0h9bvp7tggfn0kkoq96,3x4jmasxcqmx4tjnxvizhznzhd6b0l,AmTmjrrq,2020-0188,2020-05-21,13:58:18,14:22:58,NA,incomplete,65,shape,1,left,Red_Circle_Grid_3.jpg,Green_Circle_Dots_4.jpg,Red_Plus_Chess_1.jpg,left,553.5299999755807,true,low,false
AmTmjrrq,3jhb4bpsgnm0h9bvp7tggfn0kkoq96,3x4jmasxcqmx4tjnxvizhznzhd6b0l,AmTmjrrq,2020-0188,2020-05-21,13:58:18,14:22:58,NA,incomplete,66,shape,1,left,Blue_Triangle_Chess_1.jpg,Red_Triangle_Stripes_4.jpg,Blue_Plus_Dots_2.jpg,left,529.1699999943376,true,low,false
AmTmjrrq,3jhb4bpsgnm0h9bvp7tggfn0kkoq96,3x4jmasxcqmx4tjnxvizhznzhd6b0l,AmTmjrrq,2020-0188,2020-05-21,13:58:18,14:22:58,NA,incomplete,67,shape,1,left,Green_Triangle_Stripes_1.jpg,Blue_Triangle_Grid_3.jpg,Green_Plus_Dots_2.jpg,left,484.88999996334314,true,low,false
AmTmjrrq,3jhb4bpsgnm0h9bvp7tggfn0kkoq96,3x4jmasxcqmx4tjnxvizhznzhd6b0l,AmTmjrrq,2020-0188,2020-05-21,13:58:18,14:22:58,NA,incomplete,68,shape,1,right,Red_Plus_Stripes_4.jpg,Red_Circle_Grid_2.jpg,Green_Plus_Chess_3.jpg,right,626.4899999951012,true,low,false
AmTmjrrq,3jhb4bpsgnm0h9bvp7tggfn0kkoq96,3x4jmasxcqmx4tjnxvizhznzhd6b0l,AmTmjrrq,2020-0188,2020-05-21,13:58:18,14:22:58,NA,incomplete,69,shape,1,left,Blue_Plus_Grid_3.jpg,Green_Plus_Stripes_4.jpg,Blue_Star_Dots_1.jpg,left,535.2549999952316,true,low,false
AmTmjrrq,3jhb4bpsgnm0h9bvp7tggfn0kkoq96,3x4jmasxcqmx4tjnxvizhznzhd6b0l,AmTmjrrq,2020-0188,2020-05-21,13:58:18,14:22:58,NA,incomplete,70,shape,0,right,Red_Circle_Stripes_3.jpg,Red_Star_Grid_4.jpg,Purple_Circle_Dots_1.jpg,right,743.2350000017323,true,low,false
AmTmjrrq,3jhb4bpsgnm0h9bvp7tggfn0kkoq96,3x4jmasxcqmx4tjnxvizhznzhd6b0l,AmTmjrrq,2020-0188,2020-05-21,13:58:18,14:22:58,NA,incomplete,71,shape,1,right,Green_Circle_Chess_4.jpg,Green_Star_Grid_1.jpg,Blue_Circle_Stripes_3.jpg,left,609.3049999908544,false,low,false
AmTmjrrq,3jhb4bpsgnm0h9bvp7tggfn0kkoq96,3x4jmasxcqmx4tjnxvizhznzhd6b0l,AmTmjrrq,2020-0188,2020-05-21,13:58:18,14:22:58,NA,incomplete,72,shape,1,left,Blue_Plus_Chess_2.jpg,Green_Plus_Stripes_3.jpg,Blue_Triangle_Dots_4.jpg,left,1241.089999966789,true,low,false
AmTmjrrq,3jhb4bpsgnm0h9bvp7tggfn0kkoq96,3x4jmasxcqmx4tjnxvizhznzhd6b0l,AmTmjrrq,2020-0188,2020-05-21,13:58:18,14:22:58,NA,incomplete,73,shape,1,left,Green_Triangle_Dots_3.jpg,Blue_Triangle_Stripes_2.jpg,Green_Circle_Grid_4.jpg,left,592.5699999788776,true,low,false
AmTmjrrq,3jhb4bpsgnm0h9bvp7tggfn0kkoq96,3x4jmasxcqmx4tjnxvizhznzhd6b0l,AmTmjrrq,2020-0188,2020-05-21,13:58:18,14:22:58,NA,incomplete,74,shape,1,left,Blue_Plus_Dots_4.jpg,Red_Plus_Grid_1.jpg,Blue_Star_Chess_3.jpg,left,637.4550000182353,true,low,false
AmTmjrrq,3jhb4bpsgnm0h9bvp7tggfn0kkoq96,3x4jmasxcqmx4tjnxvizhznzhd6b0l,AmTmjrrq,2020-0188,2020-05-21,13:58:18,14:22:58,NA,incomplete,75,shape,1,left,Green_Triangle_Grid_4.jpg,Blue_Triangle_Dots_2.jpg,Green_Star_Stripes_1.jpg,left,553.2750000129454,true,low,false
AmTmjrrq,3jhb4bpsgnm0h9bvp7tggfn0kkoq96,3x4jmasxcqmx4tjnxvizhznzhd6b0l,AmTmjrrq,2020-0188,2020-05-21,13:58:18,14:22:58,NA,incomplete,76,shape,0,left,Red_Circle_Stripes_1.jpg,Purple_Circle_Chess_4.jpg,Red_Star_Grid_3.jpg,left,577.1949999616481,true,low,false
AmTmjrrq,3jhb4bpsgnm0h9bvp7tggfn0kkoq96,3x4jmasxcqmx4tjnxvizhznzhd6b0l,AmTmjrrq,2020-0188,2020-05-21,13:58:18,14:22:58,NA,incomplete,77,shape,1,right,Red_Triangle_Grid_3.jpg,Red_Circle_Chess_1.jpg,Green_Triangle_Stripes_2.jpg,right,732.9199999803677,true,low,false
AmTmjrrq,3jhb4bpsgnm0h9bvp7tggfn0kkoq96,3x4jmasxcqmx4tjnxvizhznzhd6b0l,AmTmjrrq,2020-0188,2020-05-21,13:58:18,14:22:58,NA,incomplete,78,shape,1,left,Red_Triangle_Chess_1.jpg,Green_Triangle_Dots_2.jpg,Red_Plus_Stripes_4.jpg,left,658.545000012964,true,low,false
AmTmjrrq,3jhb4bpsgnm0h9bvp7tggfn0kkoq96,3x4jmasxcqmx4tjnxvizhznzhd6b0l,AmTmjrrq,2020-0188,2020-05-21,13:58:18,14:22:58,NA,incomplete,79,shape,1,left,Purple_Star_Stripes_1.jpg,Green_Star_Grid_2.jpg,Purple_Triangle_Chess_4.jpg,left,630.6500000064261,true,low,false
AmTmjrrq,3jhb4bpsgnm0h9bvp7tggfn0kkoq96,3x4jmasxcqmx4tjnxvizhznzhd6b0l,AmTmjrrq,2020-0188,2020-05-21,13:58:18,14:22:58,NA,incomplete,80,shape,1,right,Green_Plus_Dots_3.jpg,Green_Star_Chess_1.jpg,Red_Plus_Stripes_4.jpg,right,683.1050000037067,true,low,false
AmTmjrrq,3jhb4bpsgnm0h9bvp7tggfn0kkoq96,3x4jmasxcqmx4tjnxvizhznzhd6b0l,AmTmjrrq,2020-0188,2020-05-21,13:58:18,14:22:58,NA,incomplete,81,shape,0,left,Purple_Circle_Stripes_1.jpg,Blue_Circle_Grid_3.jpg,Purple_Triangle_Dots_2.jpg,left,655.3800000110641,true,low,false
AmTmjrrq,3jhb4bpsgnm0h9bvp7tggfn0kkoq96,3x4jmasxcqmx4tjnxvizhznzhd6b0l,AmTmjrrq,2020-0188,2020-05-21,13:58:18,14:22:58,NA,incomplete,82,shape,0,right,Green_Triangle_Dots_1.jpg,Green_Circle_Grid_3.jpg,Purple_Triangle_Chess_2.jpg,left,495.4649999854155,false,low,false
AmTmjrrq,3jhb4bpsgnm0h9bvp7tggfn0kkoq96,3x4jmasxcqmx4tjnxvizhznzhd6b0l,AmTmjrrq,2020-0188,2020-05-21,13:58:18,14:22:58,NA,incomplete,83,shape,1,left,Green_Plus_Stripes_2.jpg,Purple_Plus_Chess_3.jpg,Green_Star_Grid_1.jpg,right,500.5999999702908,false,low,false
AmTmjrrq,3jhb4bpsgnm0h9bvp7tggfn0kkoq96,3x4jmasxcqmx4tjnxvizhznzhd6b0l,AmTmjrrq,2020-0188,2020-05-21,13:58:18,14:22:58,NA,incomplete,84,shape,1,right,Green_Plus_Dots_1.jpg,Green_Triangle_Chess_4.jpg,Purple_Plus_Stripes_3.jpg,right,789.3000000040047,true,low,false
AmTmjrrq,3jhb4bpsgnm0h9bvp7tggfn0kkoq96,3x4jmasxcqmx4tjnxvizhznzhd6b0l,AmTmjrrq,2020-0188,2020-05-21,13:58:18,14:22:58,NA,incomplete,85,shape,1,left,Green_Circle_Chess_4.jpg,Purple_Circle_Grid_2.jpg,Green_Star_Dots_3.jpg,left,541.54499998549,true,low,false
AmTmjrrq,3jhb4bpsgnm0h9bvp7tggfn0kkoq96,3x4jmasxcqmx4tjnxvizhznzhd6b0l,AmTmjrrq,2020-0188,2020-05-21,13:58:18,14:22:58,NA,incomplete,86,shape,1,left,Purple_Plus_Chess_2.jpg,Red_Plus_Grid_3.jpg,Purple_Star_Stripes_4.jpg,left,684.2750000068918,true,low,false
AmTmjrrq,3jhb4bpsgnm0h9bvp7tggfn0kkoq96,3x4jmasxcqmx4tjnxvizhznzhd6b0l,AmTmjrrq,2020-0188,2020-05-21,13:58:18,14:22:58,NA,incomplete,87,shape,1,left,Green_Plus_Chess_2.jpg,Purple_Plus_Stripes_4.jpg,Green_Circle_Grid_1.jpg,left,589.8099999758415,true,low,false
AmTmjrrq,3jhb4bpsgnm0h9bvp7tggfn0kkoq96,3x4jmasxcqmx4tjnxvizhznzhd6b0l,AmTmjrrq,2020-0188,2020-05-21,13:58:18,14:22:58,NA,incomplete,88,shape,0,left,Red_Star_Chess_2.jpg,Green_Star_Grid_4.jpg,Red_Triangle_Stripes_1.jpg,left,614.9999999906868,true,low,false
AmTmjrrq,3jhb4bpsgnm0h9bvp7tggfn0kkoq96,3x4jmasxcqmx4tjnxvizhznzhd6b0l,AmTmjrrq,2020-0188,2020-05-21,13:58:18,14:22:58,NA,incomplete,89,shape,1,right,Blue_Triangle_Stripes_4.jpg,Blue_Plus_Chess_3.jpg,Green_Triangle_Grid_1.jpg,right,740.3250000206754,true,low,false
AmTmjrrq,3jhb4bpsgnm0h9bvp7tggfn0kkoq96,3x4jmasxcqmx4tjnxvizhznzhd6b0l,AmTmjrrq,2020-0188,2020-05-21,13:58:18,14:22:58,NA,incomplete,90,color,1,right,Blue_Star_Dots_2.jpg,Green_Star_Stripes_4.jpg,Blue_Circle_Grid_3.jpg,left,662.0899999979883,false,low,false
AmTmjrrq,3jhb4bpsgnm0h9bvp7tggfn0kkoq96,3x4jmasxcqmx4tjnxvizhznzhd6b0l,AmTmjrrq,2020-0188,2020-05-21,13:58:18,14:22:58,NA,incomplete,91,color,1,right,Green_Plus_Dots_1.jpg,Red_Plus_Chess_2.jpg,Green_Triangle_Stripes_4.jpg,right,720.9799999836832,true,low,false
AmTmjrrq,3jhb4bpsgnm0h9bvp7tggfn0kkoq96,3x4jmasxcqmx4tjnxvizhznzhd6b0l,AmTmjrrq,2020-0188,2020-05-21,13:58:18,14:22:58,NA,incomplete,92,color,1,right,Red_Triangle_Stripes_2.jpg,Purple_Triangle_Chess_1.jpg,Red_Plus_Grid_3.jpg,right,739.2499999841675,true,low,false
AmTmjrrq,3jhb4bpsgnm0h9bvp7tggfn0kkoq96,3x4jmasxcqmx4tjnxvizhznzhd6b0l,AmTmjrrq,2020-0188,2020-05-21,13:58:18,14:22:58,NA,incomplete,93,color,1,right,Blue_Circle_Chess_1.jpg,Red_Circle_Dots_4.jpg,Blue_Triangle_Grid_3.jpg,right,555.9599999687634,true,low,false
AmTmjrrq,3jhb4bpsgnm0h9bvp7tggfn0kkoq96,3x4jmasxcqmx4tjnxvizhznzhd6b0l,AmTmjrrq,2020-0188,2020-05-21,13:58:18,14:22:58,NA,incomplete,94,color,1,right,Blue_Plus_Chess_3.jpg,Red_Plus_Grid_4.jpg,Blue_Star_Dots_1.jpg,right,764.9349999846891,true,low,false
AmTmjrrq,3jhb4bpsgnm0h9bvp7tggfn0kkoq96,3x4jmasxcqmx4tjnxvizhznzhd6b0l,AmTmjrrq,2020-0188,2020-05-21,13:58:18,14:22:58,NA,incomplete,95,color,0,left,Blue_Star_Stripes_2.jpg,Blue_Plus_Dots_4.jpg,Red_Star_Grid_3.jpg,left,509.5699999947101,true,low,false
AmTmjrrq,3jhb4bpsgnm0h9bvp7tggfn0kkoq96,3x4jmasxcqmx4tjnxvizhznzhd6b0l,AmTmjrrq,2020-0188,2020-05-21,13:58:18,14:22:58,NA,incomplete,96,color,1,left,Purple_Star_Stripes_1.jpg,Purple_Triangle_Dots_3.jpg,Green_Star_Grid_2.jpg,left,550.554999965243,true,low,false
AmTmjrrq,3jhb4bpsgnm0h9bvp7tggfn0kkoq96,3x4jmasxcqmx4tjnxvizhznzhd6b0l,AmTmjrrq,2020-0188,2020-05-21,13:58:18,14:22:58,NA,incomplete,97,color,1,right,Green_Star_Dots_3.jpg,Purple_Star_Chess_1.jpg,Green_Circle_Grid_4.jpg,right,530.1750000216998,true,low,false
AmTmjrrq,3jhb4bpsgnm0h9bvp7tggfn0kkoq96,3x4jmasxcqmx4tjnxvizhznzhd6b0l,AmTmjrrq,2020-0188,2020-05-21,13:58:18,14:22:58,NA,incomplete,98,color,1,right,Blue_Circle_Grid_1.jpg,Red_Circle_Stripes_2.jpg,Blue_Plus_Chess_3.jpg,right,580.1949999877252,true,low,false
AmTmjrrq,3jhb4bpsgnm0h9bvp7tggfn0kkoq96,3x4jmasxcqmx4tjnxvizhznzhd6b0l,AmTmjrrq,2020-0188,2020-05-21,13:58:18,14:22:58,NA,incomplete,99,color,1,left,Purple_Plus_Stripes_2.jpg,Purple_Star_Chess_1.jpg,Red_Plus_Grid_3.jpg,left,507.75499996962026,true,low,false
AmTmjrrq,3jhb4bpsgnm0h9bvp7tggfn0kkoq96,3x4jmasxcqmx4tjnxvizhznzhd6b0l,AmTmjrrq,2020-0188,2020-05-21,13:58:18,14:22:58,NA,incomplete,100,color,1,right,Green_Triangle_Grid_4.jpg,Purple_Triangle_Chess_2.jpg,Green_Star_Stripes_1.jpg,right,619.3350000539795,true,low,false
AmTmjrrq,3jhb4bpsgnm0h9bvp7tggfn0kkoq96,3x4jmasxcqmx4tjnxvizhznzhd6b0l,AmTmjrrq,2020-0188,2020-05-21,13:58:18,14:22:58,NA,incomplete,101,color,0,left,Blue_Star_Stripes_4.jpg,Blue_Plus_Grid_1.jpg,Green_Star_Dots_3.jpg,left,618.7550000031479,true,low,false
AmTmjrrq,3jhb4bpsgnm0h9bvp7tggfn0kkoq96,3x4jmasxcqmx4tjnxvizhznzhd6b0l,AmTmjrrq,2020-0188,2020-05-21,13:58:18,14:22:58,NA,incomplete,102,color,1,right,Purple_Circle_Grid_3.jpg,Red_Circle_Stripes_1.jpg,Purple_Star_Chess_4.jpg,right,664.2349999747239,true,low,false
AmTmjrrq,3jhb4bpsgnm0h9bvp7tggfn0kkoq96,3x4jmasxcqmx4tjnxvizhznzhd6b0l,AmTmjrrq,2020-0188,2020-05-21,13:58:18,14:22:58,NA,incomplete,103,color,1,left,Purple_Triangle_Grid_1.jpg,Purple_Circle_Chess_3.jpg,Blue_Triangle_Stripes_4.jpg,left,514.4349999609403,true,low,false
AmTmjrrq,3jhb4bpsgnm0h9bvp7tggfn0kkoq96,3x4jmasxcqmx4tjnxvizhznzhd6b0l,AmTmjrrq,2020-0188,2020-05-21,13:58:18,14:22:58,NA,incomplete,104,color,1,right,Red_Circle_Chess_2.jpg,Green_Circle_Stripes_3.jpg,Red_Triangle_Grid_1.jpg,right,548.064999980852,true,low,false
AmTmjrrq,3jhb4bpsgnm0h9bvp7tggfn0kkoq96,3x4jmasxcqmx4tjnxvizhznzhd6b0l,AmTmjrrq,2020-0188,2020-05-21,13:58:18,14:22:58,NA,incomplete,105,color,0,left,Green_Star_Grid_3.jpg,Green_Triangle_Stripes_4.jpg,Red_Star_Chess_1.jpg,left,531.5749999717809,true,low,false
AmTmjrrq,3jhb4bpsgnm0h9bvp7tggfn0kkoq96,3x4jmasxcqmx4tjnxvizhznzhd6b0l,AmTmjrrq,2020-0188,2020-05-21,13:58:18,14:22:58,NA,incomplete,106,color,0,left,Blue_Triangle_Grid_2.jpg,Blue_Star_Chess_1.jpg,Green_Triangle_Stripes_4.jpg,left,593.8849999802187,true,low,false
AmTmjrrq,3jhb4bpsgnm0h9bvp7tggfn0kkoq96,3x4jmasxcqmx4tjnxvizhznzhd6b0l,AmTmjrrq,2020-0188,2020-05-21,13:58:18,14:22:58,NA,incomplete,107,color,1,right,Green_Star_Dots_4.jpg,Blue_Star_Chess_1.jpg,Green_Plus_Grid_2.jpg,left,688.8550000148825,false,low,false
AmTmjrrq,3jhb4bpsgnm0h9bvp7tggfn0kkoq96,3x4jmasxcqmx4tjnxvizhznzhd6b0l,AmTmjrrq,2020-0188,2020-05-21,13:58:18,14:22:58,NA,incomplete,108,color,1,left,Blue_Circle_Dots_3.jpg,Blue_Plus_Grid_4.jpg,Red_Circle_Chess_2.jpg,left,555.6749999523163,true,low,false
AmTmjrrq,3jhb4bpsgnm0h9bvp7tggfn0kkoq96,3x4jmasxcqmx4tjnxvizhznzhd6b0l,AmTmjrrq,2020-0188,2020-05-21,13:58:18,14:22:58,NA,incomplete,109,color,1,left,Red_Circle_Stripes_2.jpg,Red_Star_Dots_4.jpg,Purple_Circle_Chess_3.jpg,left,747.254999994766,true,low,false
AmTmjrrq,3jhb4bpsgnm0h9bvp7tggfn0kkoq96,3x4jmasxcqmx4tjnxvizhznzhd6b0l,AmTmjrrq,2020-0188,2020-05-21,13:58:18,14:22:58,NA,incomplete,110,color,0,left,Purple_Triangle_Stripes_4.jpg,Purple_Circle_Dots_2.jpg,Red_Triangle_Grid_1.jpg,left,590.9799999790266,true,low,false
AmTmjrrq,3jhb4bpsgnm0h9bvp7tggfn0kkoq96,3x4jmasxcqmx4tjnxvizhznzhd6b0l,AmTmjrrq,2020-0188,2020-05-21,13:58:18,14:22:58,NA,incomplete,111,color,1,right,Green_Triangle_Stripes_4.jpg,Blue_Triangle_Grid_1.jpg,Green_Star_Dots_2.jpg,right,491.64000002201647,true,low,false
AmTmjrrq,3jhb4bpsgnm0h9bvp7tggfn0kkoq96,3x4jmasxcqmx4tjnxvizhznzhd6b0l,AmTmjrrq,2020-0188,2020-05-21,13:58:18,14:22:58,NA,incomplete,112,color,1,right,Purple_Circle_Chess_3.jpg,Blue_Circle_Dots_2.jpg,Purple_Triangle_Grid_4.jpg,right,567.4899999867193,true,low,false
AmTmjrrq,3jhb4bpsgnm0h9bvp7tggfn0kkoq96,3x4jmasxcqmx4tjnxvizhznzhd6b0l,AmTmjrrq,2020-0188,2020-05-21,13:58:18,14:22:58,NA,incomplete,113,color,0,right,Blue_Star_Dots_1.jpg,Green_Star_Chess_4.jpg,Blue_Plus_Stripes_2.jpg,right,739.6549999830313,true,low,false
AmTmjrrq,3jhb4bpsgnm0h9bvp7tggfn0kkoq96,3x4jmasxcqmx4tjnxvizhznzhd6b0l,AmTmjrrq,2020-0188,2020-05-21,13:58:18,14:22:58,NA,incomplete,114,color,1,right,Blue_Plus_Dots_4.jpg,Green_Plus_Grid_3.jpg,Blue_Star_Chess_2.jpg,right,765.5200000153854,true,low,false
AmTmjrrq,3jhb4bpsgnm0h9bvp7tggfn0kkoq96,3x4jmasxcqmx4tjnxvizhznzhd6b0l,AmTmjrrq,2020-0188,2020-05-21,13:58:18,14:22:58,NA,incomplete,115,color,1,left,Blue_Plus_Chess_3.jpg,Blue_Circle_Grid_1.jpg,Green_Plus_Dots_4.jpg,left,509.8149999976158,true,low,false
AmTmjrrq,3jhb4bpsgnm0h9bvp7tggfn0kkoq96,3x4jmasxcqmx4tjnxvizhznzhd6b0l,AmTmjrrq,2020-0188,2020-05-21,13:58:18,14:22:58,NA,incomplete,116,color,1,right,Green_Star_Grid_3.jpg,Blue_Star_Dots_2.jpg,Green_Triangle_Stripes_1.jpg,right,605.440000013914,true,low,false
AmTmjrrq,3jhb4bpsgnm0h9bvp7tggfn0kkoq96,3x4jmasxcqmx4tjnxvizhznzhd6b0l,AmTmjrrq,2020-0188,2020-05-21,13:58:18,14:22:58,NA,incomplete,117,color,1,left,Red_Star_Chess_4.jpg,Red_Triangle_Grid_3.jpg,Green_Star_Stripes_1.jpg,left,540.610000025481,true,low,false
AmTmjrrq,3jhb4bpsgnm0h9bvp7tggfn0kkoq96,3x4jmasxcqmx4tjnxvizhznzhd6b0l,AmTmjrrq,2020-0188,2020-05-21,13:58:18,14:22:58,NA,incomplete,118,color,1,right,Purple_Triangle_Chess_2.jpg,Green_Triangle_Stripes_1.jpg,Purple_Circle_Dots_3.jpg,right,500.6649999995716,true,low,false
AmTmjrrq,3jhb4bpsgnm0h9bvp7tggfn0kkoq96,3x4jmasxcqmx4tjnxvizhznzhd6b0l,AmTmjrrq,2020-0188,2020-05-21,13:58:18,14:22:58,NA,incomplete,119,color,1,left,Purple_Star_Stripes_3.jpg,Purple_Circle_Grid_2.jpg,Red_Star_Chess_4.jpg,left,469.089999969583,true,low,false
AmTmjrrq,3jhb4bpsgnm0h9bvp7tggfn0kkoq96,3x4jmasxcqmx4tjnxvizhznzhd6b0l,AmTmjrrq,2020-0188,2020-05-21,13:58:18,14:22:58,NA,incomplete,120,filling,1,right,Red_Triangle_Grid_3.jpg,Purple_Circle_Chess_3.jpg,Green_Plus_Grid_2.jpg,NA,NA,NA,low,false
AmTmjrrq,3jhb4bpsgnm0h9bvp7tggfn0kkoq96,3x4jmasxcqmx4tjnxvizhznzhd6b0l,AmTmjrrq,2020-0188,2020-05-21,13:58:18,14:22:58,NA,incomplete,121,filling,1,left,Green_Triangle_Stripes_4.jpg,Red_Star_Stripes_2.jpg,Blue_Plus_Chess_4.jpg,left,1275.3500000108033,true,low,false
AmTmjrrq,3jhb4bpsgnm0h9bvp7tggfn0kkoq96,3x4jmasxcqmx4tjnxvizhznzhd6b0l,AmTmjrrq,2020-0188,2020-05-21,13:58:18,14:22:58,NA,incomplete,122,filling,1,right,Green_Circle_Dots_4.jpg,Purple_Star_Grid_4.jpg,Red_Plus_Dots_2.jpg,right,983.295000041835,true,low,false
AmTmjrrq,3jhb4bpsgnm0h9bvp7tggfn0kkoq96,3x4jmasxcqmx4tjnxvizhznzhd6b0l,AmTmjrrq,2020-0188,2020-05-21,13:58:18,14:22:58,NA,incomplete,123,filling,1,right,Red_Triangle_Chess_2.jpg,Blue_Plus_Stripes_2.jpg,Purple_Circle_Chess_3.jpg,right,943.509999953676,true,low,false
AmTmjrrq,3jhb4bpsgnm0h9bvp7tggfn0kkoq96,3x4jmasxcqmx4tjnxvizhznzhd6b0l,AmTmjrrq,2020-0188,2020-05-21,13:58:18,14:22:58,NA,incomplete,124,filling,1,right,Green_Star_Stripes_3.jpg,Blue_Triangle_Dots_3.jpg,Purple_Plus_Stripes_1.jpg,right,979.749999998603,true,low,false
AmTmjrrq,3jhb4bpsgnm0h9bvp7tggfn0kkoq96,3x4jmasxcqmx4tjnxvizhznzhd6b0l,AmTmjrrq,2020-0188,2020-05-21,13:58:18,14:22:58,NA,incomplete,125,filling,1,right,Green_Triangle_Stripes_2.jpg,Blue_Circle_Chess_2.jpg,Purple_Plus_Stripes_4.jpg,right,916.7349999770522,true,low,false
AmTmjrrq,3jhb4bpsgnm0h9bvp7tggfn0kkoq96,3x4jmasxcqmx4tjnxvizhznzhd6b0l,AmTmjrrq,2020-0188,2020-05-21,13:58:18,14:22:58,NA,incomplete,126,filling,1,right,Blue_Plus_Stripes_2.jpg,Green_Star_Grid_2.jpg,Purple_Circle_Stripes_1.jpg,right,745.1650000293739,true,low,false
AmTmjrrq,3jhb4bpsgnm0h9bvp7tggfn0kkoq96,3x4jmasxcqmx4tjnxvizhznzhd6b0l,AmTmjrrq,2020-0188,2020-05-21,13:58:18,14:22:58,NA,incomplete,127,filling,0,right,Red_Plus_Grid_3.jpg,Purple_Triangle_Dots_3.jpg,Blue_Star_Grid_2.jpg,right,1034.2400000081398,true,low,false
AmTmjrrq,3jhb4bpsgnm0h9bvp7tggfn0kkoq96,3x4jmasxcqmx4tjnxvizhznzhd6b0l,AmTmjrrq,2020-0188,2020-05-21,13:58:18,14:22:58,NA,incomplete,128,filling,1,right,Purple_Plus_Chess_3.jpg,Green_Circle_Dots_3.jpg,Red_Star_Chess_2.jpg,right,722.4500000011176,true,low,false
AmTmjrrq,3jhb4bpsgnm0h9bvp7tggfn0kkoq96,3x4jmasxcqmx4tjnxvizhznzhd6b0l,AmTmjrrq,2020-0188,2020-05-21,13:58:18,14:22:58,NA,incomplete,129,filling,0,left,Blue_Triangle_Chess_1.jpg,Green_Plus_Chess_3.jpg,Red_Star_Dots_1.jpg,left,771.5549999848008,true,low,false
AmTmjrrq,3jhb4bpsgnm0h9bvp7tggfn0kkoq96,3x4jmasxcqmx4tjnxvizhznzhd6b0l,AmTmjrrq,2020-0188,2020-05-21,13:58:18,14:22:58,NA,incomplete,130,filling,1,right,Blue_Circle_Stripes_3.jpg,Green_Triangle_Dots_3.jpg,Red_Star_Stripes_2.jpg,right,772.4900000030175,true,low,false
AmTmjrrq,3jhb4bpsgnm0h9bvp7tggfn0kkoq96,3x4jmasxcqmx4tjnxvizhznzhd6b0l,AmTmjrrq,2020-0188,2020-05-21,13:58:18,14:22:58,NA,incomplete,131,filling,0,left,Green_Circle_Grid_1.jpg,Red_Star_Grid_2.jpg,Blue_Triangle_Stripes_1.jpg,left,808.275000017602,true,low,false
AmTmjrrq,3jhb4bpsgnm0h9bvp7tggfn0kkoq96,3x4jmasxcqmx4tjnxvizhznzhd6b0l,AmTmjrrq,2020-0188,2020-05-21,13:58:18,14:22:58,NA,incomplete,132,filling,1,right,Green_Plus_Dots_4.jpg,Blue_Star_Stripes_4.jpg,Purple_Circle_Dots_3.jpg,left,965.8799999742769,false,low,false
AmTmjrrq,3jhb4bpsgnm0h9bvp7tggfn0kkoq96,3x4jmasxcqmx4tjnxvizhznzhd6b0l,AmTmjrrq,2020-0188,2020-05-21,13:58:18,14:22:58,NA,incomplete,133,filling,1,right,Blue_Triangle_Dots_3.jpg,Green_Plus_Chess_3.jpg,Red_Star_Dots_2.jpg,right,855.6700000190176,true,low,false
AmTmjrrq,3jhb4bpsgnm0h9bvp7tggfn0kkoq96,3x4jmasxcqmx4tjnxvizhznzhd6b0l,AmTmjrrq,2020-0188,2020-05-21,13:58:18,14:22:58,NA,incomplete,134,filling,1,right,Green_Triangle_Stripes_4.jpg,Blue_Plus_Dots_4.jpg,Purple_Star_Stripes_3.jpg,right,790.2600000379607,true,low,false
AmTmjrrq,3jhb4bpsgnm0h9bvp7tggfn0kkoq96,3x4jmasxcqmx4tjnxvizhznzhd6b0l,AmTmjrrq,2020-0188,2020-05-21,13:58:18,14:22:58,NA,incomplete,135,filling,1,right,Blue_Star_Chess_1.jpg,Green_Plus_Stripes_1.jpg,Red_Circle_Chess_2.jpg,right,812.3299999861047,true,low,false
AmTmjrrq,3jhb4bpsgnm0h9bvp7tggfn0kkoq96,3x4jmasxcqmx4tjnxvizhznzhd6b0l,AmTmjrrq,2020-0188,2020-05-21,13:58:18,14:22:58,NA,incomplete,136,filling,1,right,Purple_Star_Dots_3.jpg,Red_Circle_Chess_3.jpg,Green_Triangle_Dots_4.jpg,right,910.7599999988452,true,low,false
AmTmjrrq,3jhb4bpsgnm0h9bvp7tggfn0kkoq96,3x4jmasxcqmx4tjnxvizhznzhd6b0l,AmTmjrrq,2020-0188,2020-05-21,13:58:18,14:22:58,NA,incomplete,137,filling,1,left,Red_Plus_Chess_3.jpg,Purple_Triangle_Chess_4.jpg,Blue_Circle_Dots_3.jpg,left,800.809999986086,true,low,false
AmTmjrrq,3jhb4bpsgnm0h9bvp7tggfn0kkoq96,3x4jmasxcqmx4tjnxvizhznzhd6b0l,AmTmjrrq,2020-0188,2020-05-21,13:58:18,14:22:58,NA,incomplete,138,filling,1,right,Green_Triangle_Dots_3.jpg,Red_Circle_Stripes_3.jpg,Purple_Star_Dots_4.jpg,right,791.5050000301562,true,low,false
AmTmjrrq,3jhb4bpsgnm0h9bvp7tggfn0kkoq96,3x4jmasxcqmx4tjnxvizhznzhd6b0l,AmTmjrrq,2020-0188,2020-05-21,13:58:18,14:22:58,NA,incomplete,139,filling,1,left,Red_Circle_Stripes_2.jpg,Blue_Plus_Stripes_4.jpg,Green_Triangle_Grid_2.jpg,left,1672.199999971781,true,low,false
AmTmjrrq,3jhb4bpsgnm0h9bvp7tggfn0kkoq96,3x4jmasxcqmx4tjnxvizhznzhd6b0l,AmTmjrrq,2020-0188,2020-05-21,13:58:18,14:22:58,NA,incomplete,140,number,0,right,Red_Plus_Chess_1.jpg,Purple_Circle_Chess_3.jpg,Green_Triangle_Grid_1.jpg,left,746.8950000475161,false,low,false
AmTmjrrq,3jhb4bpsgnm0h9bvp7tggfn0kkoq96,3x4jmasxcqmx4tjnxvizhznzhd6b0l,AmTmjrrq,2020-0188,2020-05-21,13:58:18,14:22:58,NA,incomplete,141,number,1,left,Purple_Plus_Chess_1.jpg,Green_Triangle_Stripes_1.jpg,Blue_Circle_Chess_4.jpg,right,705.4050000151619,false,low,false
AmTmjrrq,3jhb4bpsgnm0h9bvp7tggfn0kkoq96,3x4jmasxcqmx4tjnxvizhznzhd6b0l,AmTmjrrq,2020-0188,2020-05-21,13:58:18,14:22:58,NA,incomplete,142,number,1,left,Red_Triangle_Grid_1.jpg,Green_Circle_Dots_1.jpg,Blue_Star_Grid_2.jpg,right,806.6899999976158,false,low,false
AmTmjrrq,3jhb4bpsgnm0h9bvp7tggfn0kkoq96,3x4jmasxcqmx4tjnxvizhznzhd6b0l,AmTmjrrq,2020-0188,2020-05-21,13:58:18,14:22:58,NA,incomplete,143,number,1,right,Green_Plus_Chess_3.jpg,Purple_Star_Chess_4.jpg,Blue_Circle_Grid_3.jpg,left,1750.6300000241026,false,low,false
AmTmjrrq,3jhb4bpsgnm0h9bvp7tggfn0kkoq96,3x4jmasxcqmx4tjnxvizhznzhd6b0l,AmTmjrrq,2020-0188,2020-05-21,13:58:18,14:22:58,NA,incomplete,144,number,0,left,Blue_Star_Stripes_1.jpg,Green_Triangle_Dots_1.jpg,Red_Plus_Stripes_4.jpg,left,648.5600000014529,true,low,false
AmTmjrrq,3jhb4bpsgnm0h9bvp7tggfn0kkoq96,3x4jmasxcqmx4tjnxvizhznzhd6b0l,AmTmjrrq,2020-0188,2020-05-21,13:58:18,14:22:58,NA,incomplete,145,number,1,left,Blue_Circle_Chess_4.jpg,Green_Star_Stripes_4.jpg,Red_Plus_Chess_3.jpg,left,722.9299999889918,true,low,false
AmTmjrrq,3jhb4bpsgnm0h9bvp7tggfn0kkoq96,3x4jmasxcqmx4tjnxvizhznzhd6b0l,AmTmjrrq,2020-0188,2020-05-21,13:58:18,14:22:58,NA,incomplete,146,number,1,right,Green_Plus_Grid_1.jpg,Blue_Star_Grid_2.jpg,Red_Circle_Chess_1.jpg,right,689.8500000243075,true,low,false
AmTmjrrq,3jhb4bpsgnm0h9bvp7tggfn0kkoq96,3x4jmasxcqmx4tjnxvizhznzhd6b0l,AmTmjrrq,2020-0188,2020-05-21,13:58:18,14:22:58,NA,incomplete,147,number,1,right,Green_Star_Stripes_3.jpg,Blue_Plus_Stripes_1.jpg,Purple_Circle_Grid_3.jpg,right,792.3599999630824,true,low,false
AmTmjrrq,3jhb4bpsgnm0h9bvp7tggfn0kkoq96,3x4jmasxcqmx4tjnxvizhznzhd6b0l,AmTmjrrq,2020-0188,2020-05-21,13:58:18,14:22:58,NA,incomplete,148,number,1,left,Red_Circle_Dots_4.jpg,Blue_Star_Grid_4.jpg,Green_Triangle_Dots_3.jpg,left,761.7500000051223,true,low,false
AmTmjrrq,3jhb4bpsgnm0h9bvp7tggfn0kkoq96,3x4jmasxcqmx4tjnxvizhznzhd6b0l,AmTmjrrq,2020-0188,2020-05-21,13:58:18,14:22:58,NA,incomplete,149,number,1,left,Blue_Triangle_Chess_4.jpg,Red_Star_Stripes_4.jpg,Green_Plus_Chess_2.jpg,left,652.5050000054762,true,low,false
AmTmjrrq,3jhb4bpsgnm0h9bvp7tggfn0kkoq96,3x4jmasxcqmx4tjnxvizhznzhd6b0l,AmTmjrrq,2020-0188,2020-05-21,13:58:18,14:22:58,NA,incomplete,150,number,1,left,Red_Star_Chess_3.jpg,Green_Triangle_Grid_3.jpg,Purple_Circle_Chess_4.jpg,left,678.7800000165589,true,low,false
AmTmjrrq,3jhb4bpsgnm0h9bvp7tggfn0kkoq96,3x4jmasxcqmx4tjnxvizhznzhd6b0l,AmTmjrrq,2020-0188,2020-05-21,13:58:18,14:22:58,NA,incomplete,151,number,1,right,Blue_Star_Chess_4.jpg,Red_Circle_Chess_3.jpg,Green_Triangle_Grid_4.jpg,right,700.8199999690987,true,low,false
AmTmjrrq,3jhb4bpsgnm0h9bvp7tggfn0kkoq96,3x4jmasxcqmx4tjnxvizhznzhd6b0l,AmTmjrrq,2020-0188,2020-05-21,13:58:18,14:22:58,NA,incomplete,152,number,1,right,Green_Circle_Stripes_3.jpg,Purple_Triangle_Stripes_1.jpg,Red_Star_Grid_3.jpg,right,652.9999999911524,true,low,false
AmTmjrrq,3jhb4bpsgnm0h9bvp7tggfn0kkoq96,3x4jmasxcqmx4tjnxvizhznzhd6b0l,AmTmjrrq,2020-0188,2020-05-21,13:58:18,14:22:58,NA,incomplete,153,number,1,left,Blue_Triangle_Dots_4.jpg,Red_Circle_Chess_4.jpg,Purple_Plus_Dots_2.jpg,left,631.5799999865703,true,low,false
AmTmjrrq,3jhb4bpsgnm0h9bvp7tggfn0kkoq96,3x4jmasxcqmx4tjnxvizhznzhd6b0l,AmTmjrrq,2020-0188,2020-05-21,13:58:18,14:22:58,NA,incomplete,154,number,0,right,Purple_Plus_Stripes_2.jpg,Red_Triangle_Stripes_1.jpg,Green_Star_Chess_2.jpg,right,638.1099999998696,true,low,false
AmTmjrrq,3jhb4bpsgnm0h9bvp7tggfn0kkoq96,3x4jmasxcqmx4tjnxvizhznzhd6b0l,AmTmjrrq,2020-0188,2020-05-21,13:58:18,14:22:58,NA,incomplete,155,number,1,left,Purple_Plus_Stripes_3.jpg,Green_Circle_Dots_3.jpg,Red_Triangle_Stripes_2.jpg,left,530.7299999985844,true,low,false
AmTmjrrq,3jhb4bpsgnm0h9bvp7tggfn0kkoq96,3x4jmasxcqmx4tjnxvizhznzhd6b0l,AmTmjrrq,2020-0188,2020-05-21,13:58:18,14:22:58,NA,incomplete,156,number,1,left,Green_Plus_Dots_4.jpg,Purple_Circle_Stripes_4.jpg,Blue_Triangle_Dots_1.jpg,left,670.6099999719299,true,low,false
AmTmjrrq,3jhb4bpsgnm0h9bvp7tggfn0kkoq96,3x4jmasxcqmx4tjnxvizhznzhd6b0l,AmTmjrrq,2020-0188,2020-05-21,13:58:18,14:22:58,NA,incomplete,157,number,1,left,Purple_Plus_Chess_3.jpg,Red_Triangle_Grid_3.jpg,Blue_Star_Chess_1.jpg,left,672.054999973625,true,low,false
AmTmjrrq,3jhb4bpsgnm0h9bvp7tggfn0kkoq96,3x4jmasxcqmx4tjnxvizhznzhd6b0l,AmTmjrrq,2020-0188,2020-05-21,13:58:18,14:22:58,NA,incomplete,158,number,1,right,Blue_Triangle_Dots_2.jpg,Purple_Plus_Dots_1.jpg,Red_Star_Stripes_2.jpg,right,513.0200000130571,true,low,false
AmTmjrrq,3jhb4bpsgnm0h9bvp7tggfn0kkoq96,3x4jmasxcqmx4tjnxvizhznzhd6b0l,AmTmjrrq,2020-0188,2020-05-21,13:58:18,14:22:58,NA,incomplete,159,number,1,left,Purple_Circle_Stripes_2.jpg,Red_Star_Dots_2.jpg,Green_Triangle_Stripes_3.jpg,left,667.3650000011548,true,low,false
AmTmjrrq,3jhb4bpsgnm0h9bvp7tggfn0kkoq96,3x4jmasxcqmx4tjnxvizhznzhd6b0l,AmTmjrrq,2020-0188,2020-05-21,13:58:18,14:22:58,NA,incomplete,160,filling,1,right,Red_Plus_Stripes_2.jpg,Purple_Triangle_Chess_2.jpg,Green_Circle_Stripes_3.jpg,left,765.4149999725632,false,low,false
AmTmjrrq,3jhb4bpsgnm0h9bvp7tggfn0kkoq96,3x4jmasxcqmx4tjnxvizhznzhd6b0l,AmTmjrrq,2020-0188,2020-05-21,13:58:18,14:22:58,NA,incomplete,161,filling,1,left,Purple_Plus_Dots_2.jpg,Red_Circle_Dots_1.jpg,Blue_Star_Chess_2.jpg,right,619.2000000155531,false,low,false
AmTmjrrq,3jhb4bpsgnm0h9bvp7tggfn0kkoq96,3x4jmasxcqmx4tjnxvizhznzhd6b0l,AmTmjrrq,2020-0188,2020-05-21,13:58:18,14:22:58,NA,incomplete,162,filling,1,right,Blue_Circle_Chess_3.jpg,Purple_Star_Stripes_3.jpg,Red_Triangle_Chess_2.jpg,right,916.8900000513531,true,low,false
AmTmjrrq,3jhb4bpsgnm0h9bvp7tggfn0kkoq96,3x4jmasxcqmx4tjnxvizhznzhd6b0l,AmTmjrrq,2020-0188,2020-05-21,13:58:18,14:22:58,NA,incomplete,163,filling,1,left,Red_Triangle_Dots_1.jpg,Purple_Star_Dots_4.jpg,Green_Circle_Stripes_1.jpg,left,896.4500000001863,true,low,false
AmTmjrrq,3jhb4bpsgnm0h9bvp7tggfn0kkoq96,3x4jmasxcqmx4tjnxvizhznzhd6b0l,AmTmjrrq,2020-0188,2020-05-21,13:58:18,14:22:58,NA,incomplete,164,filling,0,left,Blue_Circle_Dots_4.jpg,Red_Plus_Dots_2.jpg,Green_Triangle_Stripes_4.jpg,left,947.4349999800324,true,low,false
AmTmjrrq,3jhb4bpsgnm0h9bvp7tggfn0kkoq96,3x4jmasxcqmx4tjnxvizhznzhd6b0l,AmTmjrrq,2020-0188,2020-05-21,13:58:18,14:22:58,NA,incomplete,165,filling,1,left,Green_Star_Chess_2.jpg,Red_Triangle_Chess_4.jpg,Blue_Plus_Dots_2.jpg,right,935.4649999877438,false,low,false
AmTmjrrq,3jhb4bpsgnm0h9bvp7tggfn0kkoq96,3x4jmasxcqmx4tjnxvizhznzhd6b0l,AmTmjrrq,2020-0188,2020-05-21,13:58:18,14:22:58,NA,incomplete,166,filling,1,right,Green_Triangle_Stripes_1.jpg,Red_Star_Dots_1.jpg,Blue_Plus_Stripes_4.jpg,right,1042.264999996405,true,low,false
AmTmjrrq,3jhb4bpsgnm0h9bvp7tggfn0kkoq96,3x4jmasxcqmx4tjnxvizhznzhd6b0l,AmTmjrrq,2020-0188,2020-05-21,13:58:18,14:22:58,NA,incomplete,167,filling,0,right,Red_Circle_Stripes_4.jpg,Purple_Star_Chess_4.jpg,Blue_Plus_Stripes_2.jpg,right,986.0749999643303,true,low,false
AmTmjrrq,3jhb4bpsgnm0h9bvp7tggfn0kkoq96,3x4jmasxcqmx4tjnxvizhznzhd6b0l,AmTmjrrq,2020-0188,2020-05-21,13:58:18,14:22:58,NA,incomplete,168,filling,1,right,Green_Triangle_Dots_1.jpg,Purple_Circle_Chess_1.jpg,Blue_Star_Dots_3.jpg,right,845.534999971278,true,low,false
AmTmjrrq,3jhb4bpsgnm0h9bvp7tggfn0kkoq96,3x4jmasxcqmx4tjnxvizhznzhd6b0l,AmTmjrrq,2020-0188,2020-05-21,13:58:18,14:22:58,NA,incomplete,169,filling,1,left,Green_Star_Stripes_3.jpg,Red_Plus_Stripes_1.jpg,Blue_Triangle_Grid_3.jpg,left,851.1350000044331,true,low,false
AmTmjrrq,3jhb4bpsgnm0h9bvp7tggfn0kkoq96,3x4jmasxcqmx4tjnxvizhznzhd6b0l,AmTmjrrq,2020-0188,2020-05-21,13:58:18,14:22:58,NA,incomplete,170,filling,0,left,Red_Plus_Chess_3.jpg,Blue_Triangle_Chess_2.jpg,Purple_Star_Dots_3.jpg,left,792.1549999737181,true,low,false
AmTmjrrq,3jhb4bpsgnm0h9bvp7tggfn0kkoq96,3x4jmasxcqmx4tjnxvizhznzhd6b0l,AmTmjrrq,2020-0188,2020-05-21,13:58:18,14:22:58,NA,incomplete,171,filling,1,left,Blue_Circle_Grid_2.jpg,Purple_Plus_Grid_3.jpg,Green_Star_Chess_2.jpg,left,965.4300000402145,true,low,false
AmTmjrrq,3jhb4bpsgnm0h9bvp7tggfn0kkoq96,3x4jmasxcqmx4tjnxvizhznzhd6b0l,AmTmjrrq,2020-0188,2020-05-21,13:58:18,14:22:58,NA,incomplete,172,filling,1,right,Red_Circle_Grid_3.jpg,Blue_Plus_Dots_3.jpg,Green_Triangle_Grid_2.jpg,right,865.639999974519,true,low,false
AmTmjrrq,3jhb4bpsgnm0h9bvp7tggfn0kkoq96,3x4jmasxcqmx4tjnxvizhznzhd6b0l,AmTmjrrq,2020-0188,2020-05-21,13:58:18,14:22:58,NA,incomplete,173,filling,1,left,Blue_Star_Stripes_1.jpg,Purple_Circle_Stripes_2.jpg,Green_Triangle_Chess_1.jpg,left,809.899999992922,true,low,false
AmTmjrrq,3jhb4bpsgnm0h9bvp7tggfn0kkoq96,3x4jmasxcqmx4tjnxvizhznzhd6b0l,AmTmjrrq,2020-0188,2020-05-21,13:58:18,14:22:58,NA,incomplete,174,filling,0,left,Green_Plus_Dots_1.jpg,Red_Star_Dots_3.jpg,Purple_Triangle_Stripes_1.jpg,right,800.649999990128,false,low,false
AmTmjrrq,3jhb4bpsgnm0h9bvp7tggfn0kkoq96,3x4jmasxcqmx4tjnxvizhznzhd6b0l,AmTmjrrq,2020-0188,2020-05-21,13:58:18,14:22:58,NA,incomplete,175,filling,1,left,Blue_Circle_Stripes_3.jpg,Green_Plus_Stripes_2.jpg,Purple_Triangle_Dots_3.jpg,right,967.9050000268035,false,low,false
AmTmjrrq,3jhb4bpsgnm0h9bvp7tggfn0kkoq96,3x4jmasxcqmx4tjnxvizhznzhd6b0l,AmTmjrrq,2020-0188,2020-05-21,13:58:18,14:22:58,NA,incomplete,176,filling,1,right,Red_Star_Dots_4.jpg,Green_Plus_Grid_4.jpg,Blue_Circle_Dots_3.jpg,right,1030.1450000260957,true,low,false
AmTmjrrq,3jhb4bpsgnm0h9bvp7tggfn0kkoq96,3x4jmasxcqmx4tjnxvizhznzhd6b0l,AmTmjrrq,2020-0188,2020-05-21,13:58:18,14:22:58,NA,incomplete,177,filling,1,right,Purple_Triangle_Chess_2.jpg,Blue_Star_Stripes_2.jpg,Red_Plus_Chess_3.jpg,right,1331.7749999696389,true,low,false
AmTmjrrq,3jhb4bpsgnm0h9bvp7tggfn0kkoq96,3x4jmasxcqmx4tjnxvizhznzhd6b0l,AmTmjrrq,2020-0188,2020-05-21,13:58:18,14:22:58,NA,incomplete,178,filling,1,right,Green_Plus_Grid_2.jpg,Red_Star_Chess_2.jpg,Purple_Circle_Grid_4.jpg,right,881.070000003092,true,low,false
AmTmjrrq,3jhb4bpsgnm0h9bvp7tggfn0kkoq96,3x4jmasxcqmx4tjnxvizhznzhd6b0l,AmTmjrrq,2020-0188,2020-05-21,13:58:18,14:22:58,NA,incomplete,179,filling,1,right,Blue_Triangle_Chess_2.jpg,Green_Circle_Grid_2.jpg,Red_Star_Chess_1.jpg,right,1052.075000014156,true,low,false
AmTmjrrq,3jhb4bpsgnm0h9bvp7tggfn0kkoq96,3x4jmasxcqmx4tjnxvizhznzhd6b0l,AmTmjrrq,2020-0188,2020-05-21,13:58:18,14:22:58,NA,incomplete,180,number,1,right,Purple_Circle_Grid_3.jpg,Green_Plus_Grid_4.jpg,Blue_Star_Chess_3.jpg,left,917.8299999912269,false,low,false
AmTmjrrq,3jhb4bpsgnm0h9bvp7tggfn0kkoq96,3x4jmasxcqmx4tjnxvizhznzhd6b0l,AmTmjrrq,2020-0188,2020-05-21,13:58:18,14:22:58,NA,incomplete,181,number,1,right,Blue_Triangle_Dots_3.jpg,Purple_Circle_Dots_1.jpg,Green_Plus_Stripes_3.jpg,left,777.1849999553524,false,low,false
AmTmjrrq,3jhb4bpsgnm0h9bvp7tggfn0kkoq96,3x4jmasxcqmx4tjnxvizhznzhd6b0l,AmTmjrrq,2020-0188,2020-05-21,13:58:18,14:22:58,NA,incomplete,182,number,0,right,Blue_Triangle_Dots_3.jpg,Purple_Circle_Dots_1.jpg,Green_Plus_Stripes_3.jpg,right,746.1449999827892,true,low,false
AmTmjrrq,3jhb4bpsgnm0h9bvp7tggfn0kkoq96,3x4jmasxcqmx4tjnxvizhznzhd6b0l,AmTmjrrq,2020-0188,2020-05-21,13:58:18,14:22:58,NA,incomplete,183,number,1,left,Purple_Plus_Stripes_3.jpg,Red_Star_Grid_3.jpg,Blue_Triangle_Stripes_4.jpg,right,682.7399999601766,false,low,false
AmTmjrrq,3jhb4bpsgnm0h9bvp7tggfn0kkoq96,3x4jmasxcqmx4tjnxvizhznzhd6b0l,AmTmjrrq,2020-0188,2020-05-21,13:58:18,14:22:58,NA,incomplete,184,number,1,right,Purple_Circle_Dots_3.jpg,Red_Triangle_Dots_1.jpg,Green_Star_Stripes_3.jpg,right,670.3250000136904,true,low,false
AmTmjrrq,3jhb4bpsgnm0h9bvp7tggfn0kkoq96,3x4jmasxcqmx4tjnxvizhznzhd6b0l,AmTmjrrq,2020-0188,2020-05-21,13:58:18,14:22:58,NA,incomplete,185,number,1,left,Blue_Star_Grid_4.jpg,Green_Circle_Dots_4.jpg,Purple_Plus_Grid_3.jpg,left,701.2400000239722,true,low,false
AmTmjrrq,3jhb4bpsgnm0h9bvp7tggfn0kkoq96,3x4jmasxcqmx4tjnxvizhznzhd6b0l,AmTmjrrq,2020-0188,2020-05-21,13:58:18,14:22:58,NA,incomplete,186,number,0,left,Purple_Circle_Stripes_2.jpg,Red_Triangle_Dots_2.jpg,Blue_Star_Stripes_3.jpg,left,714.3150000483729,true,low,false
AmTmjrrq,3jhb4bpsgnm0h9bvp7tggfn0kkoq96,3x4jmasxcqmx4tjnxvizhznzhd6b0l,AmTmjrrq,2020-0188,2020-05-21,13:58:18,14:22:58,NA,incomplete,187,number,1,right,Green_Plus_Chess_1.jpg,Red_Triangle_Chess_2.jpg,Purple_Star_Stripes_1.jpg,right,791.7499999748543,true,low,false
AmTmjrrq,3jhb4bpsgnm0h9bvp7tggfn0kkoq96,3x4jmasxcqmx4tjnxvizhznzhd6b0l,AmTmjrrq,2020-0188,2020-05-21,13:58:18,14:22:58,NA,incomplete,188,number,0,left,Green_Plus_Dots_3.jpg,Blue_Circle_Chess_3.jpg,Purple_Triangle_Dots_2.jpg,left,1014.7449999931268,true,low,false
AmTmjrrq,3jhb4bpsgnm0h9bvp7tggfn0kkoq96,3x4jmasxcqmx4tjnxvizhznzhd6b0l,AmTmjrrq,2020-0188,2020-05-21,13:58:18,14:22:58,NA,incomplete,189,number,1,right,Blue_Circle_Grid_1.jpg,Green_Triangle_Grid_2.jpg,Red_Star_Stripes_1.jpg,right,710.6800000183284,true,low,false
AmTmjrrq,3jhb4bpsgnm0h9bvp7tggfn0kkoq96,3x4jmasxcqmx4tjnxvizhznzhd6b0l,AmTmjrrq,2020-0188,2020-05-21,13:58:18,14:22:58,NA,incomplete,190,number,1,right,Blue_Triangle_Chess_1.jpg,Purple_Circle_Chess_2.jpg,Red_Plus_Grid_1.jpg,right,965.8700000145473,true,low,false
AmTmjrrq,3jhb4bpsgnm0h9bvp7tggfn0kkoq96,3x4jmasxcqmx4tjnxvizhznzhd6b0l,AmTmjrrq,2020-0188,2020-05-21,13:58:18,14:22:58,NA,incomplete,191,number,0,left,Red_Plus_Dots_1.jpg,Purple_Star_Stripes_1.jpg,Blue_Circle_Dots_4.jpg,left,572.4700000137091,true,low,false
AmTmjrrq,3jhb4bpsgnm0h9bvp7tggfn0kkoq96,3x4jmasxcqmx4tjnxvizhznzhd6b0l,AmTmjrrq,2020-0188,2020-05-21,13:58:18,14:22:58,NA,incomplete,192,number,1,right,Purple_Circle_Chess_4.jpg,Red_Star_Chess_2.jpg,Blue_Plus_Stripes_4.jpg,right,706.560000020545,true,low,false
AmTmjrrq,3jhb4bpsgnm0h9bvp7tggfn0kkoq96,3x4jmasxcqmx4tjnxvizhznzhd6b0l,AmTmjrrq,2020-0188,2020-05-21,13:58:18,14:22:58,NA,incomplete,193,number,1,left,Green_Plus_Grid_2.jpg,Red_Triangle_Stripes_2.jpg,Purple_Circle_Grid_3.jpg,left,565.4150000191294,true,low,false
AmTmjrrq,3jhb4bpsgnm0h9bvp7tggfn0kkoq96,3x4jmasxcqmx4tjnxvizhznzhd6b0l,AmTmjrrq,2020-0188,2020-05-21,13:58:18,14:22:58,NA,incomplete,194,number,1,left,Red_Circle_Grid_4.jpg,Purple_Triangle_Chess_4.jpg,Green_Star_Grid_2.jpg,left,620.180000027176,true,low,false
AmTmjrrq,3jhb4bpsgnm0h9bvp7tggfn0kkoq96,3x4jmasxcqmx4tjnxvizhznzhd6b0l,AmTmjrrq,2020-0188,2020-05-21,13:58:18,14:22:58,NA,incomplete,195,number,1,left,Red_Triangle_Dots_1.jpg,Blue_Circle_Stripes_1.jpg,Green_Plus_Dots_3.jpg,left,587.1000000042841,true,low,false
AmTmjrrq,3jhb4bpsgnm0h9bvp7tggfn0kkoq96,3x4jmasxcqmx4tjnxvizhznzhd6b0l,AmTmjrrq,2020-0188,2020-05-21,13:58:18,14:22:58,NA,incomplete,196,number,1,right,Green_Circle_Grid_3.jpg,Red_Star_Grid_4.jpg,Blue_Plus_Dots_3.jpg,right,617.0799999963492,true,low,false
AmTmjrrq,3jhb4bpsgnm0h9bvp7tggfn0kkoq96,3x4jmasxcqmx4tjnxvizhznzhd6b0l,AmTmjrrq,2020-0188,2020-05-21,13:58:18,14:22:58,NA,incomplete,197,number,0,left,Blue_Plus_Grid_2.jpg,Green_Circle_Stripes_2.jpg,Red_Triangle_Grid_1.jpg,left,574.8149999999441,true,low,false
AmTmjrrq,3jhb4bpsgnm0h9bvp7tggfn0kkoq96,3x4jmasxcqmx4tjnxvizhznzhd6b0l,AmTmjrrq,2020-0188,2020-05-21,13:58:18,14:22:58,NA,incomplete,198,number,1,right,Blue_Circle_Dots_3.jpg,Purple_Plus_Dots_1.jpg,Green_Triangle_Chess_3.jpg,right,996.0900000296533,true,low,false
AmTmjrrq,3jhb4bpsgnm0h9bvp7tggfn0kkoq96,3x4jmasxcqmx4tjnxvizhznzhd6b0l,AmTmjrrq,2020-0188,2020-05-21,13:58:18,14:22:58,NA,incomplete,199,number,1,left,Purple_Star_Dots_3.jpg,Blue_Triangle_Stripes_3.jpg,Red_Circle_Dots_1.jpg,left,580.3949999972247,true,low,false
AmTmjrrq,3jhb4bpsgnm0h9bvp7tggfn0kkoq96,3x4jmasxcqmx4tjnxvizhznzhd6b0l,AmTmjrrq,2020-0188,2020-05-21,13:58:18,14:22:58,NA,incomplete,200,filling,1,right,Red_Plus_Dots_1.jpg,Purple_Circle_Stripes_1.jpg,Blue_Star_Dots_3.jpg,left,669.0250000101514,false,low,false
AmTmjrrq,3jhb4bpsgnm0h9bvp7tggfn0kkoq96,3x4jmasxcqmx4tjnxvizhznzhd6b0l,AmTmjrrq,2020-0188,2020-05-21,13:58:18,14:22:58,NA,incomplete,201,filling,0,left,Purple_Circle_Stripes_1.jpg,Red_Plus_Stripes_3.jpg,Blue_Star_Grid_1.jpg,right,776.1249999748543,false,low,false
AmTmjrrq,3jhb4bpsgnm0h9bvp7tggfn0kkoq96,3x4jmasxcqmx4tjnxvizhznzhd6b0l,AmTmjrrq,2020-0188,2020-05-21,13:58:18,14:22:58,NA,incomplete,202,filling,1,left,Blue_Star_Chess_4.jpg,Green_Triangle_Chess_2.jpg,Purple_Plus_Stripes_4.jpg,right,648.8699999754317,false,low,false
AmTmjrrq,3jhb4bpsgnm0h9bvp7tggfn0kkoq96,3x4jmasxcqmx4tjnxvizhznzhd6b0l,AmTmjrrq,2020-0188,2020-05-21,13:58:18,14:22:58,NA,incomplete,203,filling,1,left,Green_Circle_Stripes_1.jpg,Purple_Plus_Stripes_4.jpg,Blue_Star_Grid_1.jpg,right,607.8799999668263,false,low,false
AmTmjrrq,3jhb4bpsgnm0h9bvp7tggfn0kkoq96,3x4jmasxcqmx4tjnxvizhznzhd6b0l,AmTmjrrq,2020-0188,2020-05-21,13:58:18,14:22:58,NA,incomplete,204,filling,0,right,Red_Triangle_Chess_3.jpg,Green_Star_Dots_3.jpg,Blue_Circle_Chess_2.jpg,right,898.0899999733083,true,low,false
AmTmjrrq,3jhb4bpsgnm0h9bvp7tggfn0kkoq96,3x4jmasxcqmx4tjnxvizhznzhd6b0l,AmTmjrrq,2020-0188,2020-05-21,13:58:18,14:22:58,NA,incomplete,205,filling,1,left,Purple_Plus_Chess_1.jpg,Green_Star_Chess_3.jpg,Red_Triangle_Dots_1.jpg,left,987.470000050962,true,low,false
AmTmjrrq,3jhb4bpsgnm0h9bvp7tggfn0kkoq96,3x4jmasxcqmx4tjnxvizhznzhd6b0l,AmTmjrrq,2020-0188,2020-05-21,13:58:18,14:22:58,NA,incomplete,206,filling,1,right,Blue_Triangle_Stripes_4.jpg,Red_Plus_Chess_4.jpg,Green_Circle_Stripes_1.jpg,right,792.2100000432692,true,low,false
AmTmjrrq,3jhb4bpsgnm0h9bvp7tggfn0kkoq96,3x4jmasxcqmx4tjnxvizhznzhd6b0l,AmTmjrrq,2020-0188,2020-05-21,13:58:18,14:22:58,NA,incomplete,207,filling,1,right,Green_Circle_Chess_2.jpg,Red_Triangle_Dots_2.jpg,Purple_Star_Chess_4.jpg,right,888.5299999965355,true,low,false
AmTmjrrq,3jhb4bpsgnm0h9bvp7tggfn0kkoq96,3x4jmasxcqmx4tjnxvizhznzhd6b0l,AmTmjrrq,2020-0188,2020-05-21,13:58:18,14:22:58,NA,incomplete,208,filling,1,left,Purple_Plus_Dots_4.jpg,Red_Circle_Dots_3.jpg,Green_Triangle_Stripes_4.jpg,left,749.0899999975227,true,low,false
AmTmjrrq,3jhb4bpsgnm0h9bvp7tggfn0kkoq96,3x4jmasxcqmx4tjnxvizhznzhd6b0l,AmTmjrrq,2020-0188,2020-05-21,13:58:18,14:22:58,NA,incomplete,209,filling,1,left,Green_Circle_Grid_2.jpg,Purple_Plus_Grid_3.jpg,Red_Star_Chess_2.jpg,left,797.3899999633431,true,low,false
AmTmjrrq,3jhb4bpsgnm0h9bvp7tggfn0kkoq96,3x4jmasxcqmx4tjnxvizhznzhd6b0l,AmTmjrrq,2020-0188,2020-05-21,13:58:18,14:22:58,NA,incomplete,210,filling,1,right,Blue_Star_Stripes_3.jpg,Green_Triangle_Grid_3.jpg,Red_Circle_Stripes_2.jpg,right,610.3899999870919,true,low,false
AmTmjrrq,3jhb4bpsgnm0h9bvp7tggfn0kkoq96,3x4jmasxcqmx4tjnxvizhznzhd6b0l,AmTmjrrq,2020-0188,2020-05-21,13:58:18,14:22:58,NA,incomplete,211,filling,1,left,Red_Circle_Grid_4.jpg,Blue_Star_Grid_2.jpg,Purple_Triangle_Dots_4.jpg,left,996.3199999765493,true,low,false
AmTmjrrq,3jhb4bpsgnm0h9bvp7tggfn0kkoq96,3x4jmasxcqmx4tjnxvizhznzhd6b0l,AmTmjrrq,2020-0188,2020-05-21,13:58:18,14:22:58,NA,incomplete,212,filling,1,left,Red_Plus_Grid_4.jpg,Purple_Circle_Grid_3.jpg,Blue_Triangle_Chess_4.jpg,left,797.0850000274368,true,low,false
AmTmjrrq,3jhb4bpsgnm0h9bvp7tggfn0kkoq96,3x4jmasxcqmx4tjnxvizhznzhd6b0l,AmTmjrrq,2020-0188,2020-05-21,13:58:18,14:22:58,NA,incomplete,213,filling,1,left,Red_Triangle_Chess_1.jpg,Blue_Circle_Chess_4.jpg,Purple_Plus_Stripes_1.jpg,left,812.644999998156,true,low,false
AmTmjrrq,3jhb4bpsgnm0h9bvp7tggfn0kkoq96,3x4jmasxcqmx4tjnxvizhznzhd6b0l,AmTmjrrq,2020-0188,2020-05-21,13:58:18,14:22:58,NA,incomplete,214,filling,1,right,Purple_Plus_Grid_1.jpg,Blue_Circle_Stripes_1.jpg,Green_Star_Grid_3.jpg,right,677.0199999446049,true,low,false
AmTmjrrq,3jhb4bpsgnm0h9bvp7tggfn0kkoq96,3x4jmasxcqmx4tjnxvizhznzhd6b0l,AmTmjrrq,2020-0188,2020-05-21,13:58:18,14:22:58,NA,incomplete,215,filling,1,left,Purple_Triangle_Stripes_3.jpg,Blue_Star_Stripes_2.jpg,Green_Plus_Grid_3.jpg,left,908.7550000404008,true,low,false
AmTmjrrq,3jhb4bpsgnm0h9bvp7tggfn0kkoq96,3x4jmasxcqmx4tjnxvizhznzhd6b0l,AmTmjrrq,2020-0188,2020-05-21,13:58:18,14:22:58,NA,incomplete,216,filling,0,right,Purple_Star_Stripes_1.jpg,Green_Circle_Chess_1.jpg,Red_Plus_Stripes_3.jpg,right,877.7350000455044,true,low,false
AmTmjrrq,3jhb4bpsgnm0h9bvp7tggfn0kkoq96,3x4jmasxcqmx4tjnxvizhznzhd6b0l,AmTmjrrq,2020-0188,2020-05-21,13:58:18,14:22:58,NA,incomplete,217,filling,1,right,Red_Plus_Dots_3.jpg,Green_Triangle_Stripes_3.jpg,Purple_Star_Dots_1.jpg,right,907.1800000383519,true,low,false
AmTmjrrq,3jhb4bpsgnm0h9bvp7tggfn0kkoq96,3x4jmasxcqmx4tjnxvizhznzhd6b0l,AmTmjrrq,2020-0188,2020-05-21,13:58:18,14:22:58,NA,incomplete,218,filling,0,right,Red_Triangle_Stripes_1.jpg,Purple_Circle_Grid_1.jpg,Green_Plus_Stripes_3.jpg,right,932.8450000029989,true,low,false
AmTmjrrq,3jhb4bpsgnm0h9bvp7tggfn0kkoq96,3x4jmasxcqmx4tjnxvizhznzhd6b0l,AmTmjrrq,2020-0188,2020-05-21,13:58:18,14:22:58,NA,incomplete,219,filling,1,right,Green_Star_Dots_4.jpg,Purple_Triangle_Chess_4.jpg,Red_Circle_Dots_3.jpg,right,738.2850000285544,true,low,false
AmTmjrrq,3jhb4bpsgnm0h9bvp7tggfn0kkoq96,3x4jmasxcqmx4tjnxvizhznzhd6b0l,AmTmjrrq,2020-0188,2020-05-21,13:58:18,14:22:58,NA,incomplete,220,number,1,left,Red_Triangle_Stripes_1.jpg,Purple_Star_Grid_1.jpg,Blue_Plus_Stripes_4.jpg,right,954.8300000024028,false,low,false
AmTmjrrq,3jhb4bpsgnm0h9bvp7tggfn0kkoq96,3x4jmasxcqmx4tjnxvizhznzhd6b0l,AmTmjrrq,2020-0188,2020-05-21,13:58:18,14:22:58,NA,incomplete,221,number,0,left,Green_Circle_Chess_2.jpg,Blue_Star_Grid_2.jpg,Purple_Triangle_Chess_4.jpg,left,726.314999978058,true,low,false
AmTmjrrq,3jhb4bpsgnm0h9bvp7tggfn0kkoq96,3x4jmasxcqmx4tjnxvizhznzhd6b0l,AmTmjrrq,2020-0188,2020-05-21,13:58:18,14:22:58,NA,incomplete,222,number,1,left,Purple_Plus_Chess_3.jpg,Red_Star_Dots_3.jpg,Green_Circle_Chess_1.jpg,right,752.0099999965169,false,low,false
AmTmjrrq,3jhb4bpsgnm0h9bvp7tggfn0kkoq96,3x4jmasxcqmx4tjnxvizhznzhd6b0l,AmTmjrrq,2020-0188,2020-05-21,13:58:18,14:22:58,NA,incomplete,223,number,1,right,Red_Circle_Dots_2.jpg,Purple_Plus_Dots_4.jpg,Blue_Triangle_Grid_2.jpg,right,585.1999999722466,true,low,false
AmTmjrrq,3jhb4bpsgnm0h9bvp7tggfn0kkoq96,3x4jmasxcqmx4tjnxvizhznzhd6b0l,AmTmjrrq,2020-0188,2020-05-21,13:58:18,14:22:58,NA,incomplete,224,number,0,left,Purple_Triangle_Grid_1.jpg,Blue_Plus_Dots_1.jpg,Red_Star_Grid_4.jpg,left,630.9499999624677,true,low,false
AmTmjrrq,3jhb4bpsgnm0h9bvp7tggfn0kkoq96,3x4jmasxcqmx4tjnxvizhznzhd6b0l,AmTmjrrq,2020-0188,2020-05-21,13:58:18,14:22:58,NA,incomplete,225,number,1,right,Green_Triangle_Grid_3.jpg,Red_Circle_Grid_2.jpg,Purple_Plus_Stripes_3.jpg,right,965.5800000182353,true,low,false
AmTmjrrq,3jhb4bpsgnm0h9bvp7tggfn0kkoq96,3x4jmasxcqmx4tjnxvizhznzhd6b0l,AmTmjrrq,2020-0188,2020-05-21,13:58:18,14:22:58,NA,incomplete,226,number,1,right,Green_Plus_Stripes_2.jpg,Purple_Star_Stripes_4.jpg,Blue_Triangle_Grid_2.jpg,right,672.1750000142492,true,low,false
AmTmjrrq,3jhb4bpsgnm0h9bvp7tggfn0kkoq96,3x4jmasxcqmx4tjnxvizhznzhd6b0l,AmTmjrrq,2020-0188,2020-05-21,13:58:18,14:22:58,NA,incomplete,227,number,1,right,Purple_Plus_Chess_1.jpg,Blue_Star_Chess_4.jpg,Red_Circle_Stripes_1.jpg,right,627.2300000418909,true,low,false
AmTmjrrq,3jhb4bpsgnm0h9bvp7tggfn0kkoq96,3x4jmasxcqmx4tjnxvizhznzhd6b0l,AmTmjrrq,2020-0188,2020-05-21,13:58:18,14:22:58,NA,incomplete,228,number,0,left,Green_Circle_Grid_1.jpg,Blue_Star_Chess_1.jpg,Red_Triangle_Grid_2.jpg,left,609.2449999996461,true,low,false
AmTmjrrq,3jhb4bpsgnm0h9bvp7tggfn0kkoq96,3x4jmasxcqmx4tjnxvizhznzhd6b0l,AmTmjrrq,2020-0188,2020-05-21,13:58:18,14:22:58,NA,incomplete,229,number,1,left,Blue_Plus_Stripes_3.jpg,Red_Circle_Chess_3.jpg,Purple_Star_Stripes_1.jpg,left,660.4149999911897,true,low,false
AmTmjrrq,3jhb4bpsgnm0h9bvp7tggfn0kkoq96,3x4jmasxcqmx4tjnxvizhznzhd6b0l,AmTmjrrq,2020-0188,2020-05-21,13:58:18,14:22:58,NA,incomplete,230,number,1,left,Green_Star_Stripes_4.jpg,Red_Circle_Dots_4.jpg,Purple_Triangle_Stripes_2.jpg,left,673.9349999697879,true,low,false
AmTmjrrq,3jhb4bpsgnm0h9bvp7tggfn0kkoq96,3x4jmasxcqmx4tjnxvizhznzhd6b0l,AmTmjrrq,2020-0188,2020-05-21,13:58:18,14:22:58,NA,incomplete,231,number,0,left,Green_Circle_Chess_4.jpg,Red_Star_Grid_4.jpg,Blue_Plus_Chess_2.jpg,left,718.0599999846891,true,low,false
AmTmjrrq,3jhb4bpsgnm0h9bvp7tggfn0kkoq96,3x4jmasxcqmx4tjnxvizhznzhd6b0l,AmTmjrrq,2020-0188,2020-05-21,13:58:18,14:22:58,NA,incomplete,232,number,1,right,Green_Circle_Dots_3.jpg,Blue_Triangle_Dots_1.jpg,Purple_Plus_Chess_3.jpg,right,719.4049999816343,true,low,false
AmTmjrrq,3jhb4bpsgnm0h9bvp7tggfn0kkoq96,3x4jmasxcqmx4tjnxvizhznzhd6b0l,AmTmjrrq,2020-0188,2020-05-21,13:58:18,14:22:58,NA,incomplete,233,number,1,right,Green_Plus_Chess_4.jpg,Blue_Star_Chess_1.jpg,Red_Circle_Grid_4.jpg,right,713.9999999781139,true,low,false
AmTmjrrq,3jhb4bpsgnm0h9bvp7tggfn0kkoq96,3x4jmasxcqmx4tjnxvizhznzhd6b0l,AmTmjrrq,2020-0188,2020-05-21,13:58:18,14:22:58,NA,incomplete,234,number,0,right,Purple_Triangle_Stripes_1.jpg,Red_Plus_Stripes_2.jpg,Blue_Star_Chess_1.jpg,right,683.6899999761954,true,low,false
AmTmjrrq,3jhb4bpsgnm0h9bvp7tggfn0kkoq96,3x4jmasxcqmx4tjnxvizhznzhd6b0l,AmTmjrrq,2020-0188,2020-05-21,13:58:18,14:22:58,NA,incomplete,235,number,1,right,Blue_Plus_Dots_3.jpg,Green_Circle_Dots_4.jpg,Purple_Triangle_Stripes_3.jpg,right,665.5500000342727,true,low,false
AmTmjrrq,3jhb4bpsgnm0h9bvp7tggfn0kkoq96,3x4jmasxcqmx4tjnxvizhznzhd6b0l,AmTmjrrq,2020-0188,2020-05-21,13:58:18,14:22:58,NA,incomplete,236,number,1,right,Blue_Star_Dots_4.jpg,Green_Circle_Dots_1.jpg,Red_Triangle_Chess_4.jpg,right,601.5950000146404,true,low,false
AmTmjrrq,3jhb4bpsgnm0h9bvp7tggfn0kkoq96,3x4jmasxcqmx4tjnxvizhznzhd6b0l,AmTmjrrq,2020-0188,2020-05-21,13:58:18,14:22:58,NA,incomplete,237,number,1,right,Purple_Triangle_Dots_1.jpg,Green_Plus_Dots_3.jpg,Blue_Circle_Grid_1.jpg,right,625.4999999655411,true,low,false
AmTmjrrq,3jhb4bpsgnm0h9bvp7tggfn0kkoq96,3x4jmasxcqmx4tjnxvizhznzhd6b0l,AmTmjrrq,2020-0188,2020-05-21,13:58:18,14:22:58,NA,incomplete,238,number,1,left,Blue_Plus_Dots_3.jpg,Green_Triangle_Chess_3.jpg,Purple_Star_Dots_1.jpg,left,502.2200000239536,true,low,false
AmTmjrrq,3jhb4bpsgnm0h9bvp7tggfn0kkoq96,3x4jmasxcqmx4tjnxvizhznzhd6b0l,AmTmjrrq,2020-0188,2020-05-21,13:58:18,14:22:58,NA,incomplete,239,number,1,right,Purple_Triangle_Stripes_4.jpg,Blue_Star_Stripes_2.jpg,Green_Circle_Dots_4.jpg,right,567.2950000152923,true,low,false
AmTmjrrq,3jhb4bpsgnm0h9bvp7tggfn0kkoq96,3x4jmasxcqmx4tjnxvizhznzhd6b0l,AmTmjrrq,2020-0188,2020-05-21,13:58:18,14:22:58,NA,NA,instruction example,shape,NA,NA,Green_Star_Grid_2.jpg,Purple_Star_Stripes_3.jpg,Green_Plus_Chess_1.jpg,NA,NA,NA,NA,undefined
AmTmjrrq,3jhb4bpsgnm0h9bvp7tggfn0kkoq96,3x4jmasxcqmx4tjnxvizhznzhd6b0l,AmTmjrrq,2020-0188,2020-05-21,13:58:18,14:22:58,NA,NA,instruction example,shape,NA,NA,Blue_Star_Dots_4.jpg,Blue_Circle_Stripes_3.jpg,Red_Star_Grid_1.jpg,NA,NA,NA,NA,undefined
AmTmjrrq,3jhb4bpsgnm0h9bvp7tggfn0kkoq96,3x4jmasxcqmx4tjnxvizhznzhd6b0l,AmTmjrrq,2020-0188,2020-05-21,13:58:18,14:22:58,NA,NA,instruction example,shape,NA,NA,Green_Circle_Grid_1.jpg,Purple_Star_Grid_2.jpg,Red_Plus_Chess_1.jpg,NA,NA,NA,NA,undefined
AmTmjrrq,3jhb4bpsgnm0h9bvp7tggfn0kkoq96,3x4jmasxcqmx4tjnxvizhznzhd6b0l,AmTmjrrq,2020-0188,2020-05-21,13:58:18,14:22:58,NA,NA,instruction example,shape,NA,NA,Red_Triangle_Chess_1.jpg,Blue_Plus_Dots_1.jpg,Purple_Star_Chess_4.jpg,NA,NA,NA,NA,undefined
AmTmjrrq,3jhb4bpsgnm0h9bvp7tggfn0kkoq96,3x4jmasxcqmx4tjnxvizhznzhd6b0l,AmTmjrrq,2020-0188,2020-05-21,13:58:18,14:22:58,1463648.1800000183,1480534.1150000459,NA,NA,NA,NA,NA,NA,NA,NA,NA,NA,NA,undefined
