workerId,hitId,assignmentId,subject,studyid,exp_date,exp_start,exp_end,time_start,time_end,trial,type,reward_validity,answer,image_top,image_left,image_right,response,response_time,response_acc,volatility,practice
BDYnZPXY,3j6bhnx0vc5zv8hudcso2u6bq3dnka,3xm0hyn6nocyzdzro7zfx8ussh3ep1,BDYnZPXY,2020-0188,2020-05-21,13:27:16,13:46:21,NA,incomplete,0,shape,1,left,Green_Triangle_Chess_4.jpg,Purple_Triangle_Grid_2.jpg,Red_Star_Stripes_4.jpg,left,1059.194999979809,true,NA,true
BDYnZPXY,3j6bhnx0vc5zv8hudcso2u6bq3dnka,3xm0hyn6nocyzdzro7zfx8ussh3ep1,BDYnZPXY,2020-0188,2020-05-21,13:27:16,13:46:21,NA,incomplete,1,shape,1,left,Green_Star_Grid_2.jpg,Red_Star_Chess_3.jpg,Purple_Triangle_Stripes_2.jpg,left,773.0599999194965,true,NA,true
BDYnZPXY,3j6bhnx0vc5zv8hudcso2u6bq3dnka,3xm0hyn6nocyzdzro7zfx8ussh3ep1,BDYnZPXY,2020-0188,2020-05-21,13:27:16,13:46:21,NA,incomplete,2,shape,1,left,Green_Circle_Chess_1.jpg,Blue_Circle_Stripes_2.jpg,Red_Star_Dots_1.jpg,left,873.7449999898672,true,NA,true
BDYnZPXY,3j6bhnx0vc5zv8hudcso2u6bq3dnka,3xm0hyn6nocyzdzro7zfx8ussh3ep1,BDYnZPXY,2020-0188,2020-05-21,13:27:16,13:46:21,NA,incomplete,3,shape,1,left,Purple_Star_Stripes_3.jpg,Blue_Star_Grid_4.jpg,Red_Triangle_Chess_3.jpg,left,945.6100000534207,true,NA,true
BDYnZPXY,3j6bhnx0vc5zv8hudcso2u6bq3dnka,3xm0hyn6nocyzdzro7zfx8ussh3ep1,BDYnZPXY,2020-0188,2020-05-21,13:27:16,13:46:21,NA,incomplete,4,shape,1,right,Red_Triangle_Dots_3.jpg,Purple_Circle_Grid_3.jpg,Green_Triangle_Stripes_2.jpg,right,745.6999999703839,true,NA,true
BDYnZPXY,3j6bhnx0vc5zv8hudcso2u6bq3dnka,3xm0hyn6nocyzdzro7zfx8ussh3ep1,BDYnZPXY,2020-0188,2020-05-21,13:27:16,13:46:21,NA,incomplete,5,shape,1,left,Green_Star_Stripes_4.jpg,Purple_Star_Grid_3.jpg,Red_Plus_Chess_4.jpg,left,759.1900000115857,true,NA,true
BDYnZPXY,3j6bhnx0vc5zv8hudcso2u6bq3dnka,3xm0hyn6nocyzdzro7zfx8ussh3ep1,BDYnZPXY,2020-0188,2020-05-21,13:27:16,13:46:21,NA,incomplete,6,shape,1,left,Blue_Star_Stripes_4.jpg,Green_Star_Grid_2.jpg,Red_Plus_Chess_4.jpg,left,701.4150000177324,true,NA,true
BDYnZPXY,3j6bhnx0vc5zv8hudcso2u6bq3dnka,3xm0hyn6nocyzdzro7zfx8ussh3ep1,BDYnZPXY,2020-0188,2020-05-21,13:27:16,13:46:21,NA,incomplete,7,shape,1,left,Purple_Circle_Chess_1.jpg,Blue_Circle_Grid_4.jpg,Green_Triangle_Stripes_1.jpg,left,534.5200001029298,true,NA,true
BDYnZPXY,3j6bhnx0vc5zv8hudcso2u6bq3dnka,3xm0hyn6nocyzdzro7zfx8ussh3ep1,BDYnZPXY,2020-0188,2020-05-21,13:27:16,13:46:21,NA,incomplete,8,shape,1,left,Green_Circle_Dots_4.jpg,Purple_Circle_Stripes_3.jpg,Red_Star_Grid_4.jpg,left,579.3450000928715,true,NA,true
BDYnZPXY,3j6bhnx0vc5zv8hudcso2u6bq3dnka,3xm0hyn6nocyzdzro7zfx8ussh3ep1,BDYnZPXY,2020-0188,2020-05-21,13:27:16,13:46:21,NA,incomplete,9,shape,0,right,Purple_Star_Stripes_4.jpg,Green_Plus_Chess_4.jpg,Blue_Star_Dots_2.jpg,right,681.9699999177828,true,NA,true
BDYnZPXY,3j6bhnx0vc5zv8hudcso2u6bq3dnka,3xm0hyn6nocyzdzro7zfx8ussh3ep1,BDYnZPXY,2020-0188,2020-05-21,13:27:16,13:46:21,NA,incomplete,10,shape,0,left,Blue_Circle_Stripes_2.jpg,Green_Circle_Grid_1.jpg,Purple_Triangle_Dots_2.jpg,left,659.5049999887124,true,NA,true
BDYnZPXY,3j6bhnx0vc5zv8hudcso2u6bq3dnka,3xm0hyn6nocyzdzro7zfx8ussh3ep1,BDYnZPXY,2020-0188,2020-05-21,13:27:16,13:46:21,NA,incomplete,11,shape,1,right,Red_Circle_Grid_3.jpg,Purple_Triangle_Dots_3.jpg,Blue_Circle_Chess_2.jpg,right,1061.379999970086,true,NA,true
BDYnZPXY,3j6bhnx0vc5zv8hudcso2u6bq3dnka,3xm0hyn6nocyzdzro7zfx8ussh3ep1,BDYnZPXY,2020-0188,2020-05-21,13:27:16,13:46:21,NA,incomplete,12,shape,1,right,Purple_Circle_Stripes_3.jpg,Blue_Plus_Grid_3.jpg,Green_Circle_Chess_1.jpg,right,711.4150000270456,true,NA,true
BDYnZPXY,3j6bhnx0vc5zv8hudcso2u6bq3dnka,3xm0hyn6nocyzdzro7zfx8ussh3ep1,BDYnZPXY,2020-0188,2020-05-21,13:27:16,13:46:21,NA,incomplete,13,shape,1,right,Red_Circle_Dots_1.jpg,Purple_Triangle_Chess_1.jpg,Green_Circle_Grid_4.jpg,right,559.3850000295788,true,NA,true
BDYnZPXY,3j6bhnx0vc5zv8hudcso2u6bq3dnka,3xm0hyn6nocyzdzro7zfx8ussh3ep1,BDYnZPXY,2020-0188,2020-05-21,13:27:16,13:46:21,NA,incomplete,14,shape,1,right,Purple_Circle_Stripes_2.jpg,Green_Triangle_Chess_2.jpg,Blue_Circle_Grid_3.jpg,right,581.2900000018999,true,NA,true
BDYnZPXY,3j6bhnx0vc5zv8hudcso2u6bq3dnka,3xm0hyn6nocyzdzro7zfx8ussh3ep1,BDYnZPXY,2020-0188,2020-05-21,13:27:16,13:46:21,NA,incomplete,15,shape,1,left,Blue_Circle_Chess_4.jpg,Red_Circle_Grid_3.jpg,Green_Star_Dots_4.jpg,left,554.7050000168383,true,NA,true
BDYnZPXY,3j6bhnx0vc5zv8hudcso2u6bq3dnka,3xm0hyn6nocyzdzro7zfx8ussh3ep1,BDYnZPXY,2020-0188,2020-05-21,13:27:16,13:46:21,NA,incomplete,16,shape,1,right,Blue_Plus_Chess_4.jpg,Red_Star_Dots_4.jpg,Green_Plus_Grid_2.jpg,right,776.7750000348315,true,NA,true
BDYnZPXY,3j6bhnx0vc5zv8hudcso2u6bq3dnka,3xm0hyn6nocyzdzro7zfx8ussh3ep1,BDYnZPXY,2020-0188,2020-05-21,13:27:16,13:46:21,NA,incomplete,17,shape,1,right,Purple_Triangle_Stripes_1.jpg,Red_Star_Grid_1.jpg,Blue_Triangle_Chess_3.jpg,right,557.3249999433756,true,NA,true
BDYnZPXY,3j6bhnx0vc5zv8hudcso2u6bq3dnka,3xm0hyn6nocyzdzro7zfx8ussh3ep1,BDYnZPXY,2020-0188,2020-05-21,13:27:16,13:46:21,NA,incomplete,18,shape,1,left,Blue_Triangle_Dots_4.jpg,Green_Triangle_Chess_3.jpg,Red_Circle_Stripes_4.jpg,left,716.5099999401718,true,NA,true
BDYnZPXY,3j6bhnx0vc5zv8hudcso2u6bq3dnka,3xm0hyn6nocyzdzro7zfx8ussh3ep1,BDYnZPXY,2020-0188,2020-05-21,13:27:16,13:46:21,NA,incomplete,19,shape,1,right,Green_Triangle_Dots_4.jpg,Purple_Plus_Chess_4.jpg,Blue_Triangle_Grid_3.jpg,right,523.6600000644103,true,NA,true
BDYnZPXY,3j6bhnx0vc5zv8hudcso2u6bq3dnka,3xm0hyn6nocyzdzro7zfx8ussh3ep1,BDYnZPXY,2020-0188,2020-05-21,13:27:16,13:46:21,NA,incomplete,20,number,1,left,Green_Star_Dots_4.jpg,Blue_Circle_Stripes_4.jpg,Purple_Star_Grid_2.jpg,right,571.0650000255555,false,NA,true
BDYnZPXY,3j6bhnx0vc5zv8hudcso2u6bq3dnka,3xm0hyn6nocyzdzro7zfx8ussh3ep1,BDYnZPXY,2020-0188,2020-05-21,13:27:16,13:46:21,NA,incomplete,21,number,0,right,Green_Star_Stripes_2.jpg,Red_Star_Grid_4.jpg,Purple_Circle_Dots_2.jpg,right,735.3250000160187,true,NA,true
BDYnZPXY,3j6bhnx0vc5zv8hudcso2u6bq3dnka,3xm0hyn6nocyzdzro7zfx8ussh3ep1,BDYnZPXY,2020-0188,2020-05-21,13:27:16,13:46:21,NA,incomplete,22,number,1,left,Purple_Star_Stripes_2.jpg,Red_Circle_Grid_2.jpg,Green_Star_Dots_1.jpg,left,807.4349999660626,true,NA,true
BDYnZPXY,3j6bhnx0vc5zv8hudcso2u6bq3dnka,3xm0hyn6nocyzdzro7zfx8ussh3ep1,BDYnZPXY,2020-0188,2020-05-21,13:27:16,13:46:21,NA,incomplete,23,number,0,left,Purple_Circle_Stripes_3.jpg,Green_Star_Grid_3.jpg,Blue_Circle_Chess_2.jpg,left,963.2500000298023,true,NA,true
BDYnZPXY,3j6bhnx0vc5zv8hudcso2u6bq3dnka,3xm0hyn6nocyzdzro7zfx8ussh3ep1,BDYnZPXY,2020-0188,2020-05-21,13:27:16,13:46:21,NA,incomplete,24,number,1,left,Red_Star_Chess_3.jpg,Blue_Triangle_Grid_3.jpg,Green_Star_Dots_2.jpg,left,864.560000016354,true,NA,true
BDYnZPXY,3j6bhnx0vc5zv8hudcso2u6bq3dnka,3xm0hyn6nocyzdzro7zfx8ussh3ep1,BDYnZPXY,2020-0188,2020-05-21,13:27:16,13:46:21,NA,incomplete,25,number,1,left,Green_Plus_Stripes_3.jpg,Blue_Circle_Grid_3.jpg,Purple_Plus_Chess_2.jpg,left,954.8000000650063,true,NA,true
BDYnZPXY,3j6bhnx0vc5zv8hudcso2u6bq3dnka,3xm0hyn6nocyzdzro7zfx8ussh3ep1,BDYnZPXY,2020-0188,2020-05-21,13:27:16,13:46:21,NA,incomplete,26,number,0,left,Green_Star_Grid_2.jpg,Purple_Plus_Chess_2.jpg,Blue_Star_Stripes_4.jpg,left,777.3149999557063,true,NA,true
BDYnZPXY,3j6bhnx0vc5zv8hudcso2u6bq3dnka,3xm0hyn6nocyzdzro7zfx8ussh3ep1,BDYnZPXY,2020-0188,2020-05-21,13:27:16,13:46:21,NA,incomplete,27,number,0,left,Red_Circle_Dots_4.jpg,Blue_Plus_Stripes_4.jpg,Green_Circle_Chess_1.jpg,left,590.7599999336526,true,NA,true
BDYnZPXY,3j6bhnx0vc5zv8hudcso2u6bq3dnka,3xm0hyn6nocyzdzro7zfx8ussh3ep1,BDYnZPXY,2020-0188,2020-05-21,13:27:16,13:46:21,NA,incomplete,28,number,1,left,Blue_Star_Dots_4.jpg,Green_Circle_Grid_4.jpg,Purple_Star_Chess_1.jpg,left,619.0499999793246,true,NA,true
BDYnZPXY,3j6bhnx0vc5zv8hudcso2u6bq3dnka,3xm0hyn6nocyzdzro7zfx8ussh3ep1,BDYnZPXY,2020-0188,2020-05-21,13:27:16,13:46:21,NA,incomplete,29,number,1,right,Red_Circle_Stripes_1.jpg,Purple_Circle_Dots_3.jpg,Green_Star_Chess_1.jpg,right,1022.7599999634549,true,NA,true
BDYnZPXY,3j6bhnx0vc5zv8hudcso2u6bq3dnka,3xm0hyn6nocyzdzro7zfx8ussh3ep1,BDYnZPXY,2020-0188,2020-05-21,13:27:16,13:46:21,NA,incomplete,30,number,0,left,Green_Star_Stripes_4.jpg,Blue_Circle_Dots_4.jpg,Purple_Star_Grid_1.jpg,left,608.1950000952929,true,NA,true
BDYnZPXY,3j6bhnx0vc5zv8hudcso2u6bq3dnka,3xm0hyn6nocyzdzro7zfx8ussh3ep1,BDYnZPXY,2020-0188,2020-05-21,13:27:16,13:46:21,NA,incomplete,31,number,1,right,Purple_Circle_Grid_1.jpg,Blue_Circle_Chess_2.jpg,Red_Star_Stripes_1.jpg,right,773.2550000073388,true,NA,true
BDYnZPXY,3j6bhnx0vc5zv8hudcso2u6bq3dnka,3xm0hyn6nocyzdzro7zfx8ussh3ep1,BDYnZPXY,2020-0188,2020-05-21,13:27:16,13:46:21,NA,incomplete,32,number,0,left,Red_Triangle_Dots_3.jpg,Purple_Star_Chess_3.jpg,Green_Triangle_Grid_2.jpg,left,697.844999958761,true,NA,true
BDYnZPXY,3j6bhnx0vc5zv8hudcso2u6bq3dnka,3xm0hyn6nocyzdzro7zfx8ussh3ep1,BDYnZPXY,2020-0188,2020-05-21,13:27:16,13:46:21,NA,incomplete,33,number,1,left,Green_Triangle_Grid_1.jpg,Purple_Star_Stripes_1.jpg,Blue_Triangle_Dots_4.jpg,left,579.4450000394136,true,NA,true
BDYnZPXY,3j6bhnx0vc5zv8hudcso2u6bq3dnka,3xm0hyn6nocyzdzro7zfx8ussh3ep1,BDYnZPXY,2020-0188,2020-05-21,13:27:16,13:46:21,NA,incomplete,34,number,1,right,Purple_Plus_Dots_2.jpg,Blue_Plus_Grid_3.jpg,Red_Star_Chess_2.jpg,right,872.8649999247864,true,NA,true
BDYnZPXY,3j6bhnx0vc5zv8hudcso2u6bq3dnka,3xm0hyn6nocyzdzro7zfx8ussh3ep1,BDYnZPXY,2020-0188,2020-05-21,13:27:16,13:46:21,NA,incomplete,35,number,1,left,Green_Star_Chess_3.jpg,Red_Plus_Grid_3.jpg,Blue_Star_Stripes_4.jpg,left,658.3549999631941,true,NA,true
BDYnZPXY,3j6bhnx0vc5zv8hudcso2u6bq3dnka,3xm0hyn6nocyzdzro7zfx8ussh3ep1,BDYnZPXY,2020-0188,2020-05-21,13:27:16,13:46:21,NA,incomplete,36,number,1,left,Green_Triangle_Chess_2.jpg,Purple_Star_Grid_2.jpg,Red_Triangle_Stripes_3.jpg,left,770.7800000207499,true,NA,true
BDYnZPXY,3j6bhnx0vc5zv8hudcso2u6bq3dnka,3xm0hyn6nocyzdzro7zfx8ussh3ep1,BDYnZPXY,2020-0188,2020-05-21,13:27:16,13:46:21,NA,incomplete,37,number,1,right,Purple_Triangle_Dots_4.jpg,Blue_Triangle_Chess_3.jpg,Green_Plus_Grid_4.jpg,right,729.5600000070408,true,NA,true
BDYnZPXY,3j6bhnx0vc5zv8hudcso2u6bq3dnka,3xm0hyn6nocyzdzro7zfx8ussh3ep1,BDYnZPXY,2020-0188,2020-05-21,13:27:16,13:46:21,NA,incomplete,38,number,1,right,Red_Circle_Dots_4.jpg,Green_Circle_Grid_3.jpg,Purple_Triangle_Chess_4.jpg,right,688.3249999955297,true,NA,true
BDYnZPXY,3j6bhnx0vc5zv8hudcso2u6bq3dnka,3xm0hyn6nocyzdzro7zfx8ussh3ep1,BDYnZPXY,2020-0188,2020-05-21,13:27:16,13:46:21,NA,incomplete,39,number,1,left,Purple_Star_Dots_4.jpg,Blue_Circle_Stripes_4.jpg,Red_Star_Grid_1.jpg,left,569.6449999231845,true,NA,true
BDYnZPXY,3j6bhnx0vc5zv8hudcso2u6bq3dnka,3xm0hyn6nocyzdzro7zfx8ussh3ep1,BDYnZPXY,2020-0188,2020-05-21,13:27:16,13:46:21,NA,incomplete,0,shape,1,left,Red_Star_Grid_4.jpg,Blue_Star_Stripes_2.jpg,Purple_Circle_Dots_4.jpg,left,1012.1350000845268,true,high,false
BDYnZPXY,3j6bhnx0vc5zv8hudcso2u6bq3dnka,3xm0hyn6nocyzdzro7zfx8ussh3ep1,BDYnZPXY,2020-0188,2020-05-21,13:27:16,13:46:21,NA,incomplete,1,shape,1,right,Blue_Triangle_Stripes_4.jpg,Green_Circle_Dots_4.jpg,Red_Triangle_Chess_2.jpg,right,815.9049999667332,true,high,false
BDYnZPXY,3j6bhnx0vc5zv8hudcso2u6bq3dnka,3xm0hyn6nocyzdzro7zfx8ussh3ep1,BDYnZPXY,2020-0188,2020-05-21,13:27:16,13:46:21,NA,incomplete,2,shape,1,left,Green_Circle_Grid_4.jpg,Purple_Circle_Dots_2.jpg,Blue_Triangle_Stripes_4.jpg,left,692.0249999966472,true,high,false
BDYnZPXY,3j6bhnx0vc5zv8hudcso2u6bq3dnka,3xm0hyn6nocyzdzro7zfx8ussh3ep1,BDYnZPXY,2020-0188,2020-05-21,13:27:16,13:46:21,NA,incomplete,3,shape,1,left,Red_Circle_Grid_1.jpg,Blue_Circle_Dots_2.jpg,Purple_Star_Stripes_1.jpg,left,531.0450000688434,true,high,false
BDYnZPXY,3j6bhnx0vc5zv8hudcso2u6bq3dnka,3xm0hyn6nocyzdzro7zfx8ussh3ep1,BDYnZPXY,2020-0188,2020-05-21,13:27:16,13:46:21,NA,incomplete,4,shape,0,left,Green_Circle_Stripes_2.jpg,Purple_Circle_Dots_4.jpg,Blue_Triangle_Chess_2.jpg,left,532.2300000116229,true,high,false
BDYnZPXY,3j6bhnx0vc5zv8hudcso2u6bq3dnka,3xm0hyn6nocyzdzro7zfx8ussh3ep1,BDYnZPXY,2020-0188,2020-05-21,13:27:16,13:46:21,NA,incomplete,5,shape,1,left,Green_Plus_Chess_1.jpg,Purple_Plus_Stripes_4.jpg,Blue_Circle_Grid_1.jpg,left,779.2149999877438,true,high,false
BDYnZPXY,3j6bhnx0vc5zv8hudcso2u6bq3dnka,3xm0hyn6nocyzdzro7zfx8ussh3ep1,BDYnZPXY,2020-0188,2020-05-21,13:27:16,13:46:21,NA,incomplete,6,shape,1,right,Purple_Plus_Grid_3.jpg,Blue_Star_Dots_3.jpg,Green_Plus_Chess_4.jpg,right,664.6099999779835,true,high,false
BDYnZPXY,3j6bhnx0vc5zv8hudcso2u6bq3dnka,3xm0hyn6nocyzdzro7zfx8ussh3ep1,BDYnZPXY,2020-0188,2020-05-21,13:27:16,13:46:21,NA,incomplete,7,shape,1,left,Blue_Plus_Grid_3.jpg,Green_Plus_Dots_4.jpg,Red_Star_Chess_3.jpg,left,704.935000045225,true,high,false
BDYnZPXY,3j6bhnx0vc5zv8hudcso2u6bq3dnka,3xm0hyn6nocyzdzro7zfx8ussh3ep1,BDYnZPXY,2020-0188,2020-05-21,13:27:16,13:46:21,NA,incomplete,8,shape,1,right,Red_Circle_Chess_3.jpg,Purple_Plus_Stripes_3.jpg,Green_Circle_Grid_2.jpg,right,658.1149999983609,true,high,false
BDYnZPXY,3j6bhnx0vc5zv8hudcso2u6bq3dnka,3xm0hyn6nocyzdzro7zfx8ussh3ep1,BDYnZPXY,2020-0188,2020-05-21,13:27:16,13:46:21,NA,incomplete,9,shape,1,left,Blue_Triangle_Grid_3.jpg,Purple_Triangle_Stripes_2.jpg,Red_Circle_Chess_3.jpg,left,575.1950000412762,true,high,false
BDYnZPXY,3j6bhnx0vc5zv8hudcso2u6bq3dnka,3xm0hyn6nocyzdzro7zfx8ussh3ep1,BDYnZPXY,2020-0188,2020-05-21,13:27:16,13:46:21,NA,incomplete,10,number,0,left,Green_Star_Dots_2.jpg,Purple_Triangle_Chess_2.jpg,Red_Star_Stripes_1.jpg,right,690.1349999243394,false,high,false
BDYnZPXY,3j6bhnx0vc5zv8hudcso2u6bq3dnka,3xm0hyn6nocyzdzro7zfx8ussh3ep1,BDYnZPXY,2020-0188,2020-05-21,13:27:16,13:46:21,NA,incomplete,11,number,1,left,Green_Triangle_Stripes_3.jpg,Blue_Star_Chess_3.jpg,Red_Triangle_Grid_4.jpg,right,642.1949999639764,false,high,false
BDYnZPXY,3j6bhnx0vc5zv8hudcso2u6bq3dnka,3xm0hyn6nocyzdzro7zfx8ussh3ep1,BDYnZPXY,2020-0188,2020-05-21,13:27:16,13:46:21,NA,incomplete,12,number,1,right,Purple_Triangle_Grid_4.jpg,Blue_Triangle_Stripes_1.jpg,Red_Star_Dots_4.jpg,left,757.0550000527874,false,high,false
BDYnZPXY,3j6bhnx0vc5zv8hudcso2u6bq3dnka,3xm0hyn6nocyzdzro7zfx8ussh3ep1,BDYnZPXY,2020-0188,2020-05-21,13:27:16,13:46:21,NA,incomplete,13,number,1,right,Purple_Star_Chess_1.jpg,Blue_Star_Stripes_4.jpg,Red_Plus_Dots_1.jpg,right,642.519999993965,true,high,false
BDYnZPXY,3j6bhnx0vc5zv8hudcso2u6bq3dnka,3xm0hyn6nocyzdzro7zfx8ussh3ep1,BDYnZPXY,2020-0188,2020-05-21,13:27:16,13:46:21,NA,incomplete,14,number,1,left,Green_Plus_Stripes_4.jpg,Purple_Star_Chess_4.jpg,Red_Plus_Grid_2.jpg,left,836.405000067316,true,high,false
BDYnZPXY,3j6bhnx0vc5zv8hudcso2u6bq3dnka,3xm0hyn6nocyzdzro7zfx8ussh3ep1,BDYnZPXY,2020-0188,2020-05-21,13:27:16,13:46:21,NA,incomplete,15,number,1,left,Blue_Star_Stripes_4.jpg,Green_Circle_Dots_4.jpg,Red_Star_Chess_2.jpg,left,624.2799999890849,true,high,false
BDYnZPXY,3j6bhnx0vc5zv8hudcso2u6bq3dnka,3xm0hyn6nocyzdzro7zfx8ussh3ep1,BDYnZPXY,2020-0188,2020-05-21,13:27:16,13:46:21,NA,incomplete,16,number,1,right,Blue_Star_Dots_3.jpg,Purple_Star_Chess_1.jpg,Red_Circle_Grid_3.jpg,right,601.8550000153482,true,high,false
BDYnZPXY,3j6bhnx0vc5zv8hudcso2u6bq3dnka,3xm0hyn6nocyzdzro7zfx8ussh3ep1,BDYnZPXY,2020-0188,2020-05-21,13:27:16,13:46:21,NA,incomplete,17,number,1,left,Purple_Plus_Stripes_4.jpg,Red_Triangle_Chess_4.jpg,Green_Plus_Grid_1.jpg,left,647.1700000111014,true,high,false
BDYnZPXY,3j6bhnx0vc5zv8hudcso2u6bq3dnka,3xm0hyn6nocyzdzro7zfx8ussh3ep1,BDYnZPXY,2020-0188,2020-05-21,13:27:16,13:46:21,NA,incomplete,18,number,1,left,Green_Circle_Chess_2.jpg,Blue_Star_Stripes_2.jpg,Purple_Circle_Grid_1.jpg,left,752.3300000466406,true,high,false
BDYnZPXY,3j6bhnx0vc5zv8hudcso2u6bq3dnka,3xm0hyn6nocyzdzro7zfx8ussh3ep1,BDYnZPXY,2020-0188,2020-05-21,13:27:16,13:46:21,NA,incomplete,19,number,1,right,Blue_Triangle_Chess_4.jpg,Purple_Triangle_Grid_2.jpg,Green_Plus_Dots_4.jpg,right,564.4099999917671,true,high,false
BDYnZPXY,3j6bhnx0vc5zv8hudcso2u6bq3dnka,3xm0hyn6nocyzdzro7zfx8ussh3ep1,BDYnZPXY,2020-0188,2020-05-21,13:27:16,13:46:21,NA,incomplete,20,shape,1,left,Red_Circle_Dots_4.jpg,Purple_Circle_Grid_1.jpg,Blue_Star_Chess_4.jpg,right,508.20999999996275,false,high,false
BDYnZPXY,3j6bhnx0vc5zv8hudcso2u6bq3dnka,3xm0hyn6nocyzdzro7zfx8ussh3ep1,BDYnZPXY,2020-0188,2020-05-21,13:27:16,13:46:21,NA,incomplete,21,shape,1,left,Red_Star_Dots_1.jpg,Green_Star_Chess_2.jpg,Blue_Triangle_Grid_1.jpg,left,733.5399999283254,true,high,false
BDYnZPXY,3j6bhnx0vc5zv8hudcso2u6bq3dnka,3xm0hyn6nocyzdzro7zfx8ussh3ep1,BDYnZPXY,2020-0188,2020-05-21,13:27:16,13:46:21,NA,incomplete,22,shape,1,right,Purple_Star_Chess_1.jpg,Green_Triangle_Dots_1.jpg,Red_Star_Stripes_3.jpg,right,540.1350000174716,true,high,false
BDYnZPXY,3j6bhnx0vc5zv8hudcso2u6bq3dnka,3xm0hyn6nocyzdzro7zfx8ussh3ep1,BDYnZPXY,2020-0188,2020-05-21,13:27:16,13:46:21,NA,incomplete,23,shape,0,right,Blue_Circle_Grid_1.jpg,Red_Star_Chess_1.jpg,Purple_Circle_Dots_3.jpg,right,507.57499993778765,true,high,false
BDYnZPXY,3j6bhnx0vc5zv8hudcso2u6bq3dnka,3xm0hyn6nocyzdzro7zfx8ussh3ep1,BDYnZPXY,2020-0188,2020-05-21,13:27:16,13:46:21,NA,incomplete,24,shape,0,left,Purple_Triangle_Dots_4.jpg,Blue_Triangle_Chess_2.jpg,Green_Star_Grid_4.jpg,right,691.2149999989197,false,high,false
BDYnZPXY,3j6bhnx0vc5zv8hudcso2u6bq3dnka,3xm0hyn6nocyzdzro7zfx8ussh3ep1,BDYnZPXY,2020-0188,2020-05-21,13:27:16,13:46:21,NA,incomplete,25,shape,0,left,Red_Plus_Chess_4.jpg,Purple_Plus_Dots_1.jpg,Green_Star_Stripes_4.jpg,right,499.1950000403449,false,high,false
BDYnZPXY,3j6bhnx0vc5zv8hudcso2u6bq3dnka,3xm0hyn6nocyzdzro7zfx8ussh3ep1,BDYnZPXY,2020-0188,2020-05-21,13:27:16,13:46:21,NA,incomplete,26,shape,1,right,Purple_Star_Grid_1.jpg,Red_Triangle_Dots_1.jpg,Blue_Star_Stripes_4.jpg,left,515.2699999744073,false,high,false
BDYnZPXY,3j6bhnx0vc5zv8hudcso2u6bq3dnka,3xm0hyn6nocyzdzro7zfx8ussh3ep1,BDYnZPXY,2020-0188,2020-05-21,13:27:16,13:46:21,NA,incomplete,27,shape,1,right,Purple_Plus_Grid_2.jpg,Red_Circle_Dots_2.jpg,Blue_Plus_Chess_1.jpg,right,643.7150000128895,true,high,false
BDYnZPXY,3j6bhnx0vc5zv8hudcso2u6bq3dnka,3xm0hyn6nocyzdzro7zfx8ussh3ep1,BDYnZPXY,2020-0188,2020-05-21,13:27:16,13:46:21,NA,incomplete,28,shape,1,right,Blue_Plus_Stripes_2.jpg,Purple_Triangle_Dots_2.jpg,Red_Plus_Grid_4.jpg,right,583.4500000346452,true,high,false
BDYnZPXY,3j6bhnx0vc5zv8hudcso2u6bq3dnka,3xm0hyn6nocyzdzro7zfx8ussh3ep1,BDYnZPXY,2020-0188,2020-05-21,13:27:16,13:46:21,NA,incomplete,29,shape,1,left,Red_Circle_Chess_4.jpg,Purple_Circle_Dots_3.jpg,Blue_Star_Grid_4.jpg,left,820.6100000534207,true,high,false
BDYnZPXY,3j6bhnx0vc5zv8hudcso2u6bq3dnka,3xm0hyn6nocyzdzro7zfx8ussh3ep1,BDYnZPXY,2020-0188,2020-05-21,13:27:16,13:46:21,NA,incomplete,30,number,1,right,Green_Triangle_Stripes_1.jpg,Red_Triangle_Grid_4.jpg,Purple_Plus_Chess_1.jpg,left,752.3649999639019,false,high,false
BDYnZPXY,3j6bhnx0vc5zv8hudcso2u6bq3dnka,3xm0hyn6nocyzdzro7zfx8ussh3ep1,BDYnZPXY,2020-0188,2020-05-21,13:27:16,13:46:21,NA,incomplete,31,number,0,left,Green_Triangle_Stripes_1.jpg,Blue_Star_Dots_1.jpg,Red_Triangle_Grid_2.jpg,left,565.900000045076,true,high,false
BDYnZPXY,3j6bhnx0vc5zv8hudcso2u6bq3dnka,3xm0hyn6nocyzdzro7zfx8ussh3ep1,BDYnZPXY,2020-0188,2020-05-21,13:27:16,13:46:21,NA,incomplete,32,number,1,left,Blue_Circle_Stripes_2.jpg,Green_Star_Grid_2.jpg,Red_Circle_Chess_3.jpg,left,844.634999986738,true,high,false
BDYnZPXY,3j6bhnx0vc5zv8hudcso2u6bq3dnka,3xm0hyn6nocyzdzro7zfx8ussh3ep1,BDYnZPXY,2020-0188,2020-05-21,13:27:16,13:46:21,NA,incomplete,33,number,1,right,Red_Circle_Stripes_1.jpg,Green_Circle_Grid_2.jpg,Blue_Triangle_Chess_1.jpg,right,629.2849999153987,true,high,false
BDYnZPXY,3j6bhnx0vc5zv8hudcso2u6bq3dnka,3xm0hyn6nocyzdzro7zfx8ussh3ep1,BDYnZPXY,2020-0188,2020-05-21,13:27:16,13:46:21,NA,incomplete,34,number,1,right,Green_Star_Stripes_1.jpg,Purple_Star_Chess_2.jpg,Red_Circle_Grid_1.jpg,right,561.6949999239296,true,high,false
BDYnZPXY,3j6bhnx0vc5zv8hudcso2u6bq3dnka,3xm0hyn6nocyzdzro7zfx8ussh3ep1,BDYnZPXY,2020-0188,2020-05-21,13:27:16,13:46:21,NA,incomplete,35,number,1,left,Purple_Triangle_Dots_2.jpg,Red_Star_Stripes_2.jpg,Blue_Triangle_Grid_4.jpg,left,654.6300000045449,true,high,false
BDYnZPXY,3j6bhnx0vc5zv8hudcso2u6bq3dnka,3xm0hyn6nocyzdzro7zfx8ussh3ep1,BDYnZPXY,2020-0188,2020-05-21,13:27:16,13:46:21,NA,incomplete,36,number,0,right,Green_Plus_Chess_2.jpg,Blue_Plus_Stripes_1.jpg,Purple_Star_Grid_2.jpg,right,626.0100000072271,true,high,false
BDYnZPXY,3j6bhnx0vc5zv8hudcso2u6bq3dnka,3xm0hyn6nocyzdzro7zfx8ussh3ep1,BDYnZPXY,2020-0188,2020-05-21,13:27:16,13:46:21,NA,incomplete,37,number,1,right,Blue_Plus_Chess_1.jpg,Red_Plus_Dots_4.jpg,Purple_Triangle_Stripes_1.jpg,right,611.4999999990687,true,high,false
BDYnZPXY,3j6bhnx0vc5zv8hudcso2u6bq3dnka,3xm0hyn6nocyzdzro7zfx8ussh3ep1,BDYnZPXY,2020-0188,2020-05-21,13:27:16,13:46:21,NA,incomplete,38,number,1,right,Red_Triangle_Stripes_2.jpg,Green_Triangle_Chess_4.jpg,Purple_Plus_Dots_2.jpg,right,657.9599999822676,true,high,false
BDYnZPXY,3j6bhnx0vc5zv8hudcso2u6bq3dnka,3xm0hyn6nocyzdzro7zfx8ussh3ep1,BDYnZPXY,2020-0188,2020-05-21,13:27:16,13:46:21,NA,incomplete,39,number,1,left,Blue_Circle_Dots_2.jpg,Purple_Star_Grid_2.jpg,Red_Circle_Chess_4.jpg,left,644.1549999872223,true,high,false
BDYnZPXY,3j6bhnx0vc5zv8hudcso2u6bq3dnka,3xm0hyn6nocyzdzro7zfx8ussh3ep1,BDYnZPXY,2020-0188,2020-05-21,13:27:16,13:46:21,NA,incomplete,40,shape,0,right,Blue_Star_Chess_1.jpg,Purple_Plus_Stripes_1.jpg,Red_Star_Grid_2.jpg,left,749.1099999751896,false,high,false
BDYnZPXY,3j6bhnx0vc5zv8hudcso2u6bq3dnka,3xm0hyn6nocyzdzro7zfx8ussh3ep1,BDYnZPXY,2020-0188,2020-05-21,13:27:16,13:46:21,NA,incomplete,41,shape,1,left,Purple_Circle_Stripes_2.jpg,Green_Circle_Dots_4.jpg,Red_Plus_Grid_2.jpg,right,804.2250000871718,false,high,false
BDYnZPXY,3j6bhnx0vc5zv8hudcso2u6bq3dnka,3xm0hyn6nocyzdzro7zfx8ussh3ep1,BDYnZPXY,2020-0188,2020-05-21,13:27:16,13:46:21,NA,incomplete,42,shape,1,left,Red_Circle_Stripes_2.jpg,Purple_Circle_Chess_1.jpg,Green_Star_Grid_2.jpg,left,640.5950000043958,true,high,false
BDYnZPXY,3j6bhnx0vc5zv8hudcso2u6bq3dnka,3xm0hyn6nocyzdzro7zfx8ussh3ep1,BDYnZPXY,2020-0188,2020-05-21,13:27:16,13:46:21,NA,incomplete,43,shape,1,right,Purple_Star_Grid_2.jpg,Blue_Plus_Dots_2.jpg,Red_Star_Chess_4.jpg,right,881.8800000008196,true,high,false
BDYnZPXY,3j6bhnx0vc5zv8hudcso2u6bq3dnka,3xm0hyn6nocyzdzro7zfx8ussh3ep1,BDYnZPXY,2020-0188,2020-05-21,13:27:16,13:46:21,NA,incomplete,44,shape,1,right,Blue_Plus_Chess_1.jpg,Red_Star_Grid_1.jpg,Purple_Plus_Stripes_3.jpg,right,644.8800000362098,true,high,false
BDYnZPXY,3j6bhnx0vc5zv8hudcso2u6bq3dnka,3xm0hyn6nocyzdzro7zfx8ussh3ep1,BDYnZPXY,2020-0188,2020-05-21,13:27:16,13:46:21,NA,incomplete,45,shape,1,left,Blue_Star_Dots_1.jpg,Green_Star_Chess_3.jpg,Purple_Triangle_Grid_1.jpg,left,750.3449999494478,true,high,false
BDYnZPXY,3j6bhnx0vc5zv8hudcso2u6bq3dnka,3xm0hyn6nocyzdzro7zfx8ussh3ep1,BDYnZPXY,2020-0188,2020-05-21,13:27:16,13:46:21,NA,incomplete,46,shape,1,right,Red_Triangle_Dots_2.jpg,Blue_Circle_Chess_2.jpg,Purple_Triangle_Grid_4.jpg,right,516.4900000672787,true,high,false
BDYnZPXY,3j6bhnx0vc5zv8hudcso2u6bq3dnka,3xm0hyn6nocyzdzro7zfx8ussh3ep1,BDYnZPXY,2020-0188,2020-05-21,13:27:16,13:46:21,NA,incomplete,47,shape,1,left,Purple_Plus_Stripes_2.jpg,Red_Plus_Dots_1.jpg,Green_Triangle_Grid_2.jpg,left,637.0200000237674,true,high,false
BDYnZPXY,3j6bhnx0vc5zv8hudcso2u6bq3dnka,3xm0hyn6nocyzdzro7zfx8ussh3ep1,BDYnZPXY,2020-0188,2020-05-21,13:27:16,13:46:21,NA,incomplete,48,shape,1,right,Green_Triangle_Grid_3.jpg,Blue_Circle_Chess_3.jpg,Red_Triangle_Stripes_1.jpg,right,632.065000012517,true,high,false
BDYnZPXY,3j6bhnx0vc5zv8hudcso2u6bq3dnka,3xm0hyn6nocyzdzro7zfx8ussh3ep1,BDYnZPXY,2020-0188,2020-05-21,13:27:16,13:46:21,NA,incomplete,49,shape,1,right,Green_Star_Dots_2.jpg,Blue_Circle_Stripes_2.jpg,Red_Star_Grid_4.jpg,right,594.6449999464676,true,high,false
BDYnZPXY,3j6bhnx0vc5zv8hudcso2u6bq3dnka,3xm0hyn6nocyzdzro7zfx8ussh3ep1,BDYnZPXY,2020-0188,2020-05-21,13:27:16,13:46:21,NA,incomplete,50,number,1,left,Purple_Triangle_Grid_3.jpg,Green_Circle_Chess_3.jpg,Red_Triangle_Stripes_1.jpg,right,575.5949999438599,false,high,false
BDYnZPXY,3j6bhnx0vc5zv8hudcso2u6bq3dnka,3xm0hyn6nocyzdzro7zfx8ussh3ep1,BDYnZPXY,2020-0188,2020-05-21,13:27:16,13:46:21,NA,incomplete,51,number,1,right,Purple_Triangle_Chess_2.jpg,Blue_Triangle_Grid_3.jpg,Red_Plus_Stripes_2.jpg,right,803.9000000571832,true,high,false
BDYnZPXY,3j6bhnx0vc5zv8hudcso2u6bq3dnka,3xm0hyn6nocyzdzro7zfx8ussh3ep1,BDYnZPXY,2020-0188,2020-05-21,13:27:16,13:46:21,NA,incomplete,52,number,1,left,Blue_Circle_Stripes_3.jpg,Purple_Triangle_Chess_3.jpg,Red_Circle_Grid_4.jpg,left,688.7200000928715,true,high,false
BDYnZPXY,3j6bhnx0vc5zv8hudcso2u6bq3dnka,3xm0hyn6nocyzdzro7zfx8ussh3ep1,BDYnZPXY,2020-0188,2020-05-21,13:27:16,13:46:21,NA,incomplete,53,number,1,right,Blue_Triangle_Chess_2.jpg,Purple_Triangle_Stripes_3.jpg,Green_Circle_Grid_2.jpg,left,593.2250000769272,false,high,false
BDYnZPXY,3j6bhnx0vc5zv8hudcso2u6bq3dnka,3xm0hyn6nocyzdzro7zfx8ussh3ep1,BDYnZPXY,2020-0188,2020-05-21,13:27:16,13:46:21,NA,incomplete,54,number,1,left,Blue_Circle_Stripes_2.jpg,Green_Star_Chess_2.jpg,Red_Circle_Grid_3.jpg,left,830.3400001022965,true,high,false
BDYnZPXY,3j6bhnx0vc5zv8hudcso2u6bq3dnka,3xm0hyn6nocyzdzro7zfx8ussh3ep1,BDYnZPXY,2020-0188,2020-05-21,13:27:16,13:46:21,NA,incomplete,55,number,0,left,Green_Triangle_Grid_3.jpg,Blue_Star_Dots_3.jpg,Red_Triangle_Chess_4.jpg,left,673.1999999610707,true,high,false
BDYnZPXY,3j6bhnx0vc5zv8hudcso2u6bq3dnka,3xm0hyn6nocyzdzro7zfx8ussh3ep1,BDYnZPXY,2020-0188,2020-05-21,13:27:16,13:46:21,NA,incomplete,56,number,1,right,Green_Circle_Grid_2.jpg,Red_Circle_Stripes_3.jpg,Blue_Star_Chess_2.jpg,left,593.0850000586361,false,high,false
BDYnZPXY,3j6bhnx0vc5zv8hudcso2u6bq3dnka,3xm0hyn6nocyzdzro7zfx8ussh3ep1,BDYnZPXY,2020-0188,2020-05-21,13:27:16,13:46:21,NA,incomplete,57,number,1,right,Green_Triangle_Chess_3.jpg,Blue_Triangle_Stripes_1.jpg,Purple_Star_Grid_3.jpg,left,671.1099999956787,false,high,false
BDYnZPXY,3j6bhnx0vc5zv8hudcso2u6bq3dnka,3xm0hyn6nocyzdzro7zfx8ussh3ep1,BDYnZPXY,2020-0188,2020-05-21,13:27:16,13:46:21,NA,incomplete,58,number,1,left,Green_Triangle_Chess_3.jpg,Purple_Plus_Stripes_3.jpg,Red_Triangle_Dots_4.jpg,left,719.6850000182167,true,high,false
BDYnZPXY,3j6bhnx0vc5zv8hudcso2u6bq3dnka,3xm0hyn6nocyzdzro7zfx8ussh3ep1,BDYnZPXY,2020-0188,2020-05-21,13:27:16,13:46:21,NA,incomplete,59,number,0,right,Blue_Plus_Dots_2.jpg,Purple_Plus_Chess_3.jpg,Red_Star_Grid_2.jpg,right,625.8099999977276,true,high,false
BDYnZPXY,3j6bhnx0vc5zv8hudcso2u6bq3dnka,3xm0hyn6nocyzdzro7zfx8ussh3ep1,BDYnZPXY,2020-0188,2020-05-21,13:27:16,13:46:21,NA,incomplete,60,shape,1,left,Blue_Plus_Stripes_1.jpg,Green_Plus_Dots_3.jpg,Red_Triangle_Chess_1.jpg,right,682.3700000531971,false,high,false
BDYnZPXY,3j6bhnx0vc5zv8hudcso2u6bq3dnka,3xm0hyn6nocyzdzro7zfx8ussh3ep1,BDYnZPXY,2020-0188,2020-05-21,13:27:16,13:46:21,NA,incomplete,61,shape,1,right,Blue_Star_Chess_3.jpg,Green_Circle_Grid_3.jpg,Purple_Star_Stripes_4.jpg,right,706.9149999879301,true,high,false
BDYnZPXY,3j6bhnx0vc5zv8hudcso2u6bq3dnka,3xm0hyn6nocyzdzro7zfx8ussh3ep1,BDYnZPXY,2020-0188,2020-05-21,13:27:16,13:46:21,NA,incomplete,62,shape,1,left,Blue_Circle_Grid_2.jpg,Green_Circle_Stripes_3.jpg,Purple_Star_Dots_2.jpg,left,556.63500004448,true,high,false
BDYnZPXY,3j6bhnx0vc5zv8hudcso2u6bq3dnka,3xm0hyn6nocyzdzro7zfx8ussh3ep1,BDYnZPXY,2020-0188,2020-05-21,13:27:16,13:46:21,NA,incomplete,63,shape,0,left,Green_Triangle_Stripes_4.jpg,Blue_Triangle_Chess_1.jpg,Red_Plus_Grid_4.jpg,left,617.1200000680983,true,high,false
BDYnZPXY,3j6bhnx0vc5zv8hudcso2u6bq3dnka,3xm0hyn6nocyzdzro7zfx8ussh3ep1,BDYnZPXY,2020-0188,2020-05-21,13:27:16,13:46:21,NA,incomplete,64,shape,1,right,Purple_Triangle_Chess_2.jpg,Red_Star_Stripes_2.jpg,Green_Triangle_Grid_1.jpg,left,706.3649999909103,false,high,false
BDYnZPXY,3j6bhnx0vc5zv8hudcso2u6bq3dnka,3xm0hyn6nocyzdzro7zfx8ussh3ep1,BDYnZPXY,2020-0188,2020-05-21,13:27:16,13:46:21,NA,incomplete,65,shape,1,right,Red_Plus_Grid_1.jpg,Green_Star_Dots_1.jpg,Purple_Plus_Chess_2.jpg,right,782.0549999596551,true,high,false
BDYnZPXY,3j6bhnx0vc5zv8hudcso2u6bq3dnka,3xm0hyn6nocyzdzro7zfx8ussh3ep1,BDYnZPXY,2020-0188,2020-05-21,13:27:16,13:46:21,NA,incomplete,66,shape,0,left,Green_Circle_Stripes_1.jpg,Blue_Circle_Grid_2.jpg,Red_Triangle_Chess_1.jpg,left,546.4549999451265,true,high,false
BDYnZPXY,3j6bhnx0vc5zv8hudcso2u6bq3dnka,3xm0hyn6nocyzdzro7zfx8ussh3ep1,BDYnZPXY,2020-0188,2020-05-21,13:27:16,13:46:21,NA,incomplete,67,shape,1,right,Red_Circle_Stripes_4.jpg,Green_Triangle_Chess_4.jpg,Purple_Circle_Dots_3.jpg,right,569.6000000461936,true,high,false
BDYnZPXY,3j6bhnx0vc5zv8hudcso2u6bq3dnka,3xm0hyn6nocyzdzro7zfx8ussh3ep1,BDYnZPXY,2020-0188,2020-05-21,13:27:16,13:46:21,NA,incomplete,68,shape,0,right,Purple_Star_Dots_2.jpg,Blue_Triangle_Stripes_2.jpg,Green_Star_Grid_4.jpg,right,573.4850000590086,true,high,false
BDYnZPXY,3j6bhnx0vc5zv8hudcso2u6bq3dnka,3xm0hyn6nocyzdzro7zfx8ussh3ep1,BDYnZPXY,2020-0188,2020-05-21,13:27:16,13:46:21,NA,incomplete,69,shape,1,left,Blue_Circle_Dots_4.jpg,Green_Circle_Chess_1.jpg,Red_Star_Stripes_4.jpg,right,802.7000000001863,false,high,false
BDYnZPXY,3j6bhnx0vc5zv8hudcso2u6bq3dnka,3xm0hyn6nocyzdzro7zfx8ussh3ep1,BDYnZPXY,2020-0188,2020-05-21,13:27:16,13:46:21,NA,incomplete,70,number,1,left,Green_Circle_Grid_3.jpg,Blue_Triangle_Chess_3.jpg,Red_Circle_Dots_1.jpg,left,687.7450000029057,true,high,false
BDYnZPXY,3j6bhnx0vc5zv8hudcso2u6bq3dnka,3xm0hyn6nocyzdzro7zfx8ussh3ep1,BDYnZPXY,2020-0188,2020-05-21,13:27:16,13:46:21,NA,incomplete,71,number,0,left,Blue_Circle_Stripes_4.jpg,Green_Star_Chess_4.jpg,Red_Circle_Grid_3.jpg,left,728.9700000546873,true,high,false
BDYnZPXY,3j6bhnx0vc5zv8hudcso2u6bq3dnka,3xm0hyn6nocyzdzro7zfx8ussh3ep1,BDYnZPXY,2020-0188,2020-05-21,13:27:16,13:46:21,NA,incomplete,72,number,1,left,Green_Triangle_Chess_1.jpg,Purple_Circle_Stripes_1.jpg,Blue_Triangle_Dots_4.jpg,left,584.2049999628216,true,high,false
BDYnZPXY,3j6bhnx0vc5zv8hudcso2u6bq3dnka,3xm0hyn6nocyzdzro7zfx8ussh3ep1,BDYnZPXY,2020-0188,2020-05-21,13:27:16,13:46:21,NA,incomplete,73,number,1,right,Green_Star_Stripes_3.jpg,Purple_Star_Dots_1.jpg,Blue_Circle_Chess_3.jpg,right,660.7099999673665,true,high,false
BDYnZPXY,3j6bhnx0vc5zv8hudcso2u6bq3dnka,3xm0hyn6nocyzdzro7zfx8ussh3ep1,BDYnZPXY,2020-0188,2020-05-21,13:27:16,13:46:21,NA,incomplete,74,number,1,right,Red_Plus_Dots_2.jpg,Blue_Plus_Stripes_3.jpg,Green_Triangle_Chess_2.jpg,right,734.4799999846146,true,high,false
BDYnZPXY,3j6bhnx0vc5zv8hudcso2u6bq3dnka,3xm0hyn6nocyzdzro7zfx8ussh3ep1,BDYnZPXY,2020-0188,2020-05-21,13:27:16,13:46:21,NA,incomplete,75,number,1,left,Red_Triangle_Stripes_4.jpg,Blue_Plus_Chess_4.jpg,Purple_Triangle_Dots_2.jpg,left,604.1850000619888,true,high,false
BDYnZPXY,3j6bhnx0vc5zv8hudcso2u6bq3dnka,3xm0hyn6nocyzdzro7zfx8ussh3ep1,BDYnZPXY,2020-0188,2020-05-21,13:27:16,13:46:21,NA,incomplete,76,number,1,left,Blue_Plus_Chess_2.jpg,Green_Triangle_Dots_2.jpg,Red_Plus_Stripes_4.jpg,left,560.8600000850856,true,high,false
BDYnZPXY,3j6bhnx0vc5zv8hudcso2u6bq3dnka,3xm0hyn6nocyzdzro7zfx8ussh3ep1,BDYnZPXY,2020-0188,2020-05-21,13:27:16,13:46:21,NA,incomplete,77,number,1,left,Blue_Plus_Dots_3.jpg,Red_Circle_Grid_3.jpg,Green_Plus_Chess_4.jpg,right,717.0049999840558,false,high,false
BDYnZPXY,3j6bhnx0vc5zv8hudcso2u6bq3dnka,3xm0hyn6nocyzdzro7zfx8ussh3ep1,BDYnZPXY,2020-0188,2020-05-21,13:27:16,13:46:21,NA,incomplete,78,number,1,right,Blue_Plus_Dots_4.jpg,Purple_Plus_Chess_2.jpg,Red_Triangle_Grid_4.jpg,right,654.3349999701604,true,high,false
BDYnZPXY,3j6bhnx0vc5zv8hudcso2u6bq3dnka,3xm0hyn6nocyzdzro7zfx8ussh3ep1,BDYnZPXY,2020-0188,2020-05-21,13:27:16,13:46:21,NA,incomplete,79,number,1,right,Red_Triangle_Chess_2.jpg,Green_Triangle_Grid_1.jpg,Purple_Plus_Stripes_2.jpg,right,689.3700000364333,true,high,false
BDYnZPXY,3j6bhnx0vc5zv8hudcso2u6bq3dnka,3xm0hyn6nocyzdzro7zfx8ussh3ep1,BDYnZPXY,2020-0188,2020-05-21,13:27:16,13:46:21,NA,incomplete,80,shape,1,left,Blue_Triangle_Grid_4.jpg,Red_Triangle_Dots_1.jpg,Green_Star_Stripes_4.jpg,right,553.5249999957159,false,high,false
BDYnZPXY,3j6bhnx0vc5zv8hudcso2u6bq3dnka,3xm0hyn6nocyzdzro7zfx8ussh3ep1,BDYnZPXY,2020-0188,2020-05-21,13:27:16,13:46:21,NA,incomplete,81,shape,1,right,Purple_Plus_Chess_2.jpg,Green_Star_Grid_2.jpg,Blue_Plus_Stripes_1.jpg,right,678.2850000308827,true,high,false
BDYnZPXY,3j6bhnx0vc5zv8hudcso2u6bq3dnka,3xm0hyn6nocyzdzro7zfx8ussh3ep1,BDYnZPXY,2020-0188,2020-05-21,13:27:16,13:46:21,NA,incomplete,82,shape,1,right,Red_Triangle_Stripes_2.jpg,Blue_Circle_Dots_2.jpg,Purple_Triangle_Chess_1.jpg,right,752.7049999916926,true,high,false
BDYnZPXY,3j6bhnx0vc5zv8hudcso2u6bq3dnka,3xm0hyn6nocyzdzro7zfx8ussh3ep1,BDYnZPXY,2020-0188,2020-05-21,13:27:16,13:46:21,NA,incomplete,83,shape,0,left,Blue_Plus_Stripes_3.jpg,Green_Plus_Chess_1.jpg,Purple_Star_Dots_3.jpg,left,670.2450000448152,true,high,false
BDYnZPXY,3j6bhnx0vc5zv8hudcso2u6bq3dnka,3xm0hyn6nocyzdzro7zfx8ussh3ep1,BDYnZPXY,2020-0188,2020-05-21,13:27:16,13:46:21,NA,incomplete,84,shape,1,left,Purple_Triangle_Grid_4.jpg,Blue_Triangle_Stripes_2.jpg,Green_Circle_Chess_4.jpg,right,688.2800000021234,false,high,false
BDYnZPXY,3j6bhnx0vc5zv8hudcso2u6bq3dnka,3xm0hyn6nocyzdzro7zfx8ussh3ep1,BDYnZPXY,2020-0188,2020-05-21,13:27:16,13:46:21,NA,incomplete,85,shape,0,left,Red_Plus_Stripes_3.jpg,Purple_Plus_Dots_1.jpg,Blue_Circle_Grid_3.jpg,left,680.4649999830872,true,high,false
BDYnZPXY,3j6bhnx0vc5zv8hudcso2u6bq3dnka,3xm0hyn6nocyzdzro7zfx8ussh3ep1,BDYnZPXY,2020-0188,2020-05-21,13:27:16,13:46:21,NA,incomplete,86,shape,0,left,Blue_Star_Chess_1.jpg,Purple_Star_Stripes_2.jpg,Red_Plus_Dots_1.jpg,right,681.3550000078976,false,high,false
BDYnZPXY,3j6bhnx0vc5zv8hudcso2u6bq3dnka,3xm0hyn6nocyzdzro7zfx8ussh3ep1,BDYnZPXY,2020-0188,2020-05-21,13:27:16,13:46:21,NA,incomplete,87,shape,1,left,Blue_Plus_Grid_2.jpg,Red_Plus_Stripes_3.jpg,Purple_Star_Chess_2.jpg,right,713.2650000276044,false,high,false
BDYnZPXY,3j6bhnx0vc5zv8hudcso2u6bq3dnka,3xm0hyn6nocyzdzro7zfx8ussh3ep1,BDYnZPXY,2020-0188,2020-05-21,13:27:16,13:46:21,NA,incomplete,88,shape,1,right,Green_Plus_Chess_3.jpg,Purple_Triangle_Stripes_3.jpg,Blue_Plus_Dots_1.jpg,right,682.9050000524148,true,high,false
BDYnZPXY,3j6bhnx0vc5zv8hudcso2u6bq3dnka,3xm0hyn6nocyzdzro7zfx8ussh3ep1,BDYnZPXY,2020-0188,2020-05-21,13:27:16,13:46:21,NA,incomplete,89,shape,1,left,Red_Star_Grid_2.jpg,Green_Star_Dots_4.jpg,Purple_Triangle_Stripes_2.jpg,left,668.5200000647455,true,high,false
BDYnZPXY,3j6bhnx0vc5zv8hudcso2u6bq3dnka,3xm0hyn6nocyzdzro7zfx8ussh3ep1,BDYnZPXY,2020-0188,2020-05-21,13:27:16,13:46:21,NA,incomplete,90,number,1,right,Purple_Circle_Dots_1.jpg,Red_Circle_Chess_4.jpg,Green_Plus_Stripes_1.jpg,left,957.1550000691786,false,high,false
BDYnZPXY,3j6bhnx0vc5zv8hudcso2u6bq3dnka,3xm0hyn6nocyzdzro7zfx8ussh3ep1,BDYnZPXY,2020-0188,2020-05-21,13:27:16,13:46:21,NA,incomplete,91,number,1,left,Green_Circle_Grid_4.jpg,Blue_Star_Dots_4.jpg,Red_Circle_Stripes_3.jpg,right,555.6349999969825,false,high,false
BDYnZPXY,3j6bhnx0vc5zv8hudcso2u6bq3dnka,3xm0hyn6nocyzdzro7zfx8ussh3ep1,BDYnZPXY,2020-0188,2020-05-21,13:27:16,13:46:21,NA,incomplete,92,number,1,left,Purple_Triangle_Chess_4.jpg,Green_Plus_Grid_4.jpg,Blue_Triangle_Dots_3.jpg,right,656.9850000087172,false,high,false
BDYnZPXY,3j6bhnx0vc5zv8hudcso2u6bq3dnka,3xm0hyn6nocyzdzro7zfx8ussh3ep1,BDYnZPXY,2020-0188,2020-05-21,13:27:16,13:46:21,NA,incomplete,93,number,1,left,Blue_Triangle_Dots_4.jpg,Red_Circle_Chess_4.jpg,Green_Triangle_Stripes_3.jpg,left,659.0650000143796,true,high,false
BDYnZPXY,3j6bhnx0vc5zv8hudcso2u6bq3dnka,3xm0hyn6nocyzdzro7zfx8ussh3ep1,BDYnZPXY,2020-0188,2020-05-21,13:27:16,13:46:21,NA,incomplete,94,number,1,left,Blue_Circle_Grid_3.jpg,Purple_Star_Stripes_3.jpg,Red_Circle_Dots_4.jpg,left,677.1949999965727,true,high,false
BDYnZPXY,3j6bhnx0vc5zv8hudcso2u6bq3dnka,3xm0hyn6nocyzdzro7zfx8ussh3ep1,BDYnZPXY,2020-0188,2020-05-21,13:27:16,13:46:21,NA,incomplete,95,number,0,left,Green_Star_Chess_1.jpg,Red_Plus_Dots_1.jpg,Blue_Star_Grid_2.jpg,left,663.1199999246746,true,high,false
BDYnZPXY,3j6bhnx0vc5zv8hudcso2u6bq3dnka,3xm0hyn6nocyzdzro7zfx8ussh3ep1,BDYnZPXY,2020-0188,2020-05-21,13:27:16,13:46:21,NA,incomplete,96,number,1,right,Green_Plus_Chess_2.jpg,Blue_Plus_Grid_1.jpg,Purple_Triangle_Dots_2.jpg,left,768.5650000348687,false,high,false
BDYnZPXY,3j6bhnx0vc5zv8hudcso2u6bq3dnka,3xm0hyn6nocyzdzro7zfx8ussh3ep1,BDYnZPXY,2020-0188,2020-05-21,13:27:16,13:46:21,NA,incomplete,97,number,1,right,Purple_Triangle_Dots_3.jpg,Green_Triangle_Stripes_2.jpg,Red_Star_Chess_3.jpg,right,758.5299999918789,true,high,false
BDYnZPXY,3j6bhnx0vc5zv8hudcso2u6bq3dnka,3xm0hyn6nocyzdzro7zfx8ussh3ep1,BDYnZPXY,2020-0188,2020-05-21,13:27:16,13:46:21,NA,incomplete,98,number,1,left,Blue_Circle_Chess_4.jpg,Purple_Triangle_Grid_4.jpg,Green_Circle_Dots_3.jpg,left,675.1549999462441,true,high,false
BDYnZPXY,3j6bhnx0vc5zv8hudcso2u6bq3dnka,3xm0hyn6nocyzdzro7zfx8ussh3ep1,BDYnZPXY,2020-0188,2020-05-21,13:27:16,13:46:21,NA,incomplete,99,number,1,right,Green_Circle_Dots_3.jpg,Blue_Circle_Grid_2.jpg,Purple_Triangle_Stripes_3.jpg,right,820.865000016056,true,high,false
BDYnZPXY,3j6bhnx0vc5zv8hudcso2u6bq3dnka,3xm0hyn6nocyzdzro7zfx8ussh3ep1,BDYnZPXY,2020-0188,2020-05-21,13:27:16,13:46:21,NA,incomplete,100,shape,1,right,Green_Star_Dots_3.jpg,Purple_Triangle_Grid_3.jpg,Blue_Star_Chess_4.jpg,left,615.3450000565499,false,high,false
BDYnZPXY,3j6bhnx0vc5zv8hudcso2u6bq3dnka,3xm0hyn6nocyzdzro7zfx8ussh3ep1,BDYnZPXY,2020-0188,2020-05-21,13:27:16,13:46:21,NA,incomplete,101,shape,1,right,Blue_Circle_Chess_1.jpg,Red_Star_Dots_1.jpg,Green_Circle_Stripes_3.jpg,right,644.4099999498576,true,high,false
BDYnZPXY,3j6bhnx0vc5zv8hudcso2u6bq3dnka,3xm0hyn6nocyzdzro7zfx8ussh3ep1,BDYnZPXY,2020-0188,2020-05-21,13:27:16,13:46:21,NA,incomplete,102,shape,1,left,Blue_Circle_Stripes_1.jpg,Red_Circle_Chess_3.jpg,Green_Triangle_Grid_1.jpg,left,687.0450000278652,true,high,false
BDYnZPXY,3j6bhnx0vc5zv8hudcso2u6bq3dnka,3xm0hyn6nocyzdzro7zfx8ussh3ep1,BDYnZPXY,2020-0188,2020-05-21,13:27:16,13:46:21,NA,incomplete,103,shape,1,right,Purple_Plus_Chess_2.jpg,Blue_Triangle_Grid_2.jpg,Green_Plus_Dots_1.jpg,right,663.5300000198185,true,high,false
BDYnZPXY,3j6bhnx0vc5zv8hudcso2u6bq3dnka,3xm0hyn6nocyzdzro7zfx8ussh3ep1,BDYnZPXY,2020-0188,2020-05-21,13:27:16,13:46:21,NA,incomplete,104,shape,1,right,Blue_Circle_Dots_1.jpg,Green_Star_Chess_1.jpg,Red_Circle_Grid_2.jpg,right,553.2599999569356,true,high,false
BDYnZPXY,3j6bhnx0vc5zv8hudcso2u6bq3dnka,3xm0hyn6nocyzdzro7zfx8ussh3ep1,BDYnZPXY,2020-0188,2020-05-21,13:27:16,13:46:21,NA,incomplete,105,shape,1,right,Red_Plus_Chess_4.jpg,Purple_Circle_Dots_4.jpg,Blue_Plus_Stripes_1.jpg,right,670.0300000375137,true,high,false
BDYnZPXY,3j6bhnx0vc5zv8hudcso2u6bq3dnka,3xm0hyn6nocyzdzro7zfx8ussh3ep1,BDYnZPXY,2020-0188,2020-05-21,13:27:16,13:46:21,NA,incomplete,106,shape,1,right,Purple_Triangle_Stripes_4.jpg,Green_Plus_Chess_4.jpg,Red_Triangle_Dots_2.jpg,right,569.0300000132993,true,high,false
BDYnZPXY,3j6bhnx0vc5zv8hudcso2u6bq3dnka,3xm0hyn6nocyzdzro7zfx8ussh3ep1,BDYnZPXY,2020-0188,2020-05-21,13:27:16,13:46:21,NA,incomplete,107,shape,1,left,Red_Star_Chess_1.jpg,Blue_Star_Stripes_3.jpg,Purple_Circle_Dots_1.jpg,left,590.2800000039861,true,high,false
BDYnZPXY,3j6bhnx0vc5zv8hudcso2u6bq3dnka,3xm0hyn6nocyzdzro7zfx8ussh3ep1,BDYnZPXY,2020-0188,2020-05-21,13:27:16,13:46:21,NA,incomplete,108,shape,1,right,Red_Triangle_Chess_2.jpg,Purple_Circle_Grid_2.jpg,Green_Triangle_Dots_1.jpg,right,594.9950000504032,true,high,false
BDYnZPXY,3j6bhnx0vc5zv8hudcso2u6bq3dnka,3xm0hyn6nocyzdzro7zfx8ussh3ep1,BDYnZPXY,2020-0188,2020-05-21,13:27:16,13:46:21,NA,incomplete,109,shape,1,left,Green_Plus_Stripes_4.jpg,Red_Plus_Dots_3.jpg,Blue_Circle_Chess_4.jpg,left,632.370000006631,true,high,false
BDYnZPXY,3j6bhnx0vc5zv8hudcso2u6bq3dnka,3xm0hyn6nocyzdzro7zfx8ussh3ep1,BDYnZPXY,2020-0188,2020-05-21,13:27:16,13:46:21,NA,incomplete,110,number,1,right,Blue_Circle_Grid_2.jpg,Green_Circle_Dots_3.jpg,Purple_Plus_Stripes_2.jpg,left,563.2700000423938,false,high,false
BDYnZPXY,3j6bhnx0vc5zv8hudcso2u6bq3dnka,3xm0hyn6nocyzdzro7zfx8ussh3ep1,BDYnZPXY,2020-0188,2020-05-21,13:27:16,13:46:21,NA,incomplete,111,number,0,right,Purple_Plus_Dots_3.jpg,Blue_Plus_Grid_2.jpg,Green_Circle_Chess_3.jpg,right,704.714999999851,true,high,false
BDYnZPXY,3j6bhnx0vc5zv8hudcso2u6bq3dnka,3xm0hyn6nocyzdzro7zfx8ussh3ep1,BDYnZPXY,2020-0188,2020-05-21,13:27:16,13:46:21,NA,incomplete,112,number,0,right,Red_Circle_Grid_4.jpg,Blue_Circle_Dots_1.jpg,Purple_Triangle_Chess_4.jpg,left,601.0500000556931,false,high,false
BDYnZPXY,3j6bhnx0vc5zv8hudcso2u6bq3dnka,3xm0hyn6nocyzdzro7zfx8ussh3ep1,BDYnZPXY,2020-0188,2020-05-21,13:27:16,13:46:21,NA,incomplete,113,number,1,left,Purple_Circle_Dots_2.jpg,Green_Triangle_Stripes_2.jpg,Blue_Circle_Chess_4.jpg,right,635.4199999477714,false,high,false
BDYnZPXY,3j6bhnx0vc5zv8hudcso2u6bq3dnka,3xm0hyn6nocyzdzro7zfx8ussh3ep1,BDYnZPXY,2020-0188,2020-05-21,13:27:16,13:46:21,NA,incomplete,114,number,0,left,Red_Star_Grid_3.jpg,Blue_Plus_Chess_3.jpg,Purple_Star_Dots_4.jpg,left,719.9250000994653,true,high,false
BDYnZPXY,3j6bhnx0vc5zv8hudcso2u6bq3dnka,3xm0hyn6nocyzdzro7zfx8ussh3ep1,BDYnZPXY,2020-0188,2020-05-21,13:27:16,13:46:21,NA,incomplete,115,number,0,left,Red_Star_Chess_1.jpg,Blue_Triangle_Grid_1.jpg,Green_Star_Stripes_4.jpg,right,711.310000042431,false,high,false
BDYnZPXY,3j6bhnx0vc5zv8hudcso2u6bq3dnka,3xm0hyn6nocyzdzro7zfx8ussh3ep1,BDYnZPXY,2020-0188,2020-05-21,13:27:16,13:46:21,NA,incomplete,116,number,0,left,Purple_Plus_Stripes_4.jpg,Green_Circle_Dots_4.jpg,Blue_Plus_Chess_1.jpg,right,574.9950000317767,false,high,false
BDYnZPXY,3j6bhnx0vc5zv8hudcso2u6bq3dnka,3xm0hyn6nocyzdzro7zfx8ussh3ep1,BDYnZPXY,2020-0188,2020-05-21,13:27:16,13:46:21,NA,incomplete,117,number,1,left,Green_Circle_Stripes_4.jpg,Red_Star_Grid_4.jpg,Purple_Circle_Dots_3.jpg,right,548.1950000394136,false,high,false
BDYnZPXY,3j6bhnx0vc5zv8hudcso2u6bq3dnka,3xm0hyn6nocyzdzro7zfx8ussh3ep1,BDYnZPXY,2020-0188,2020-05-21,13:27:16,13:46:21,NA,incomplete,118,number,1,right,Green_Triangle_Dots_3.jpg,Blue_Triangle_Grid_4.jpg,Purple_Star_Stripes_3.jpg,right,681.0250000562519,true,high,false
BDYnZPXY,3j6bhnx0vc5zv8hudcso2u6bq3dnka,3xm0hyn6nocyzdzro7zfx8ussh3ep1,BDYnZPXY,2020-0188,2020-05-21,13:27:16,13:46:21,NA,incomplete,119,number,0,left,Purple_Circle_Dots_4.jpg,Blue_Triangle_Grid_4.jpg,Red_Circle_Stripes_3.jpg,left,752.515000058338,true,high,false
BDYnZPXY,3j6bhnx0vc5zv8hudcso2u6bq3dnka,3xm0hyn6nocyzdzro7zfx8ussh3ep1,BDYnZPXY,2020-0188,2020-05-21,13:27:16,13:46:21,NA,incomplete,120,filling,1,left,Green_Star_Stripes_1.jpg,Red_Plus_Stripes_4.jpg,Green_Circle_Chess_3.jpg,NA,NA,NA,high,false
BDYnZPXY,3j6bhnx0vc5zv8hudcso2u6bq3dnka,3xm0hyn6nocyzdzro7zfx8ussh3ep1,BDYnZPXY,2020-0188,2020-05-21,13:27:16,13:46:21,NA,incomplete,121,filling,0,left,Green_Plus_Stripes_1.jpg,Purple_Star_Stripes_3.jpg,Green_Triangle_Chess_2.jpg,right,841.2099999841303,false,high,false
BDYnZPXY,3j6bhnx0vc5zv8hudcso2u6bq3dnka,3xm0hyn6nocyzdzro7zfx8ussh3ep1,BDYnZPXY,2020-0188,2020-05-21,13:27:16,13:46:21,NA,incomplete,122,filling,1,right,Green_Plus_Chess_4.jpg,Green_Star_Dots_3.jpg,Purple_Triangle_Chess_2.jpg,left,531.2250000424683,false,high,false
BDYnZPXY,3j6bhnx0vc5zv8hudcso2u6bq3dnka,3xm0hyn6nocyzdzro7zfx8ussh3ep1,BDYnZPXY,2020-0188,2020-05-21,13:27:16,13:46:21,NA,incomplete,123,filling,1,left,Green_Star_Dots_4.jpg,Blue_Circle_Dots_1.jpg,Green_Plus_Stripes_3.jpg,right,458.93999992404133,false,high,false
BDYnZPXY,3j6bhnx0vc5zv8hudcso2u6bq3dnka,3xm0hyn6nocyzdzro7zfx8ussh3ep1,BDYnZPXY,2020-0188,2020-05-21,13:27:16,13:46:21,NA,incomplete,124,filling,0,right,Purple_Circle_Dots_1.jpg,Purple_Plus_Chess_3.jpg,Blue_Triangle_Dots_2.jpg,right,821.144999936223,true,high,false
BDYnZPXY,3j6bhnx0vc5zv8hudcso2u6bq3dnka,3xm0hyn6nocyzdzro7zfx8ussh3ep1,BDYnZPXY,2020-0188,2020-05-21,13:27:16,13:46:21,NA,incomplete,125,filling,1,right,Blue_Plus_Chess_4.jpg,Blue_Circle_Stripes_3.jpg,Red_Triangle_Chess_2.jpg,right,887.2200000332668,true,high,false
BDYnZPXY,3j6bhnx0vc5zv8hudcso2u6bq3dnka,3xm0hyn6nocyzdzro7zfx8ussh3ep1,BDYnZPXY,2020-0188,2020-05-21,13:27:16,13:46:21,NA,incomplete,126,filling,1,left,Red_Star_Chess_1.jpg,Green_Circle_Chess_3.jpg,Red_Triangle_Dots_4.jpg,left,801.1300000362098,true,high,false
BDYnZPXY,3j6bhnx0vc5zv8hudcso2u6bq3dnka,3xm0hyn6nocyzdzro7zfx8ussh3ep1,BDYnZPXY,2020-0188,2020-05-21,13:27:16,13:46:21,NA,incomplete,127,filling,1,left,Green_Triangle_Stripes_4.jpg,Purple_Circle_Stripes_2.jpg,Green_Plus_Grid_1.jpg,left,699.9050000449643,true,high,false
BDYnZPXY,3j6bhnx0vc5zv8hudcso2u6bq3dnka,3xm0hyn6nocyzdzro7zfx8ussh3ep1,BDYnZPXY,2020-0188,2020-05-21,13:27:16,13:46:21,NA,incomplete,128,filling,0,left,Green_Star_Dots_1.jpg,Purple_Triangle_Dots_3.jpg,Green_Plus_Grid_4.jpg,left,725.719999987632,true,high,false
BDYnZPXY,3j6bhnx0vc5zv8hudcso2u6bq3dnka,3xm0hyn6nocyzdzro7zfx8ussh3ep1,BDYnZPXY,2020-0188,2020-05-21,13:27:16,13:46:21,NA,incomplete,129,filling,1,right,Green_Star_Stripes_3.jpg,Green_Circle_Dots_4.jpg,Red_Plus_Stripes_2.jpg,right,940.0349999777973,true,high,false
BDYnZPXY,3j6bhnx0vc5zv8hudcso2u6bq3dnka,3xm0hyn6nocyzdzro7zfx8ussh3ep1,BDYnZPXY,2020-0188,2020-05-21,13:27:16,13:46:21,NA,incomplete,130,filling,0,right,Purple_Circle_Dots_3.jpg,Purple_Triangle_Stripes_2.jpg,Red_Plus_Dots_1.jpg,right,723.0850000632927,true,high,false
BDYnZPXY,3j6bhnx0vc5zv8hudcso2u6bq3dnka,3xm0hyn6nocyzdzro7zfx8ussh3ep1,BDYnZPXY,2020-0188,2020-05-21,13:27:16,13:46:21,NA,incomplete,131,filling,1,left,Red_Star_Chess_2.jpg,Blue_Circle_Chess_3.jpg,Red_Triangle_Stripes_4.jpg,left,785.8550000237301,true,high,false
BDYnZPXY,3j6bhnx0vc5zv8hudcso2u6bq3dnka,3xm0hyn6nocyzdzro7zfx8ussh3ep1,BDYnZPXY,2020-0188,2020-05-21,13:27:16,13:46:21,NA,incomplete,132,filling,1,right,Blue_Triangle_Chess_3.jpg,Blue_Plus_Stripes_2.jpg,Purple_Star_Chess_4.jpg,right,735.1450000423938,true,high,false
BDYnZPXY,3j6bhnx0vc5zv8hudcso2u6bq3dnka,3xm0hyn6nocyzdzro7zfx8ussh3ep1,BDYnZPXY,2020-0188,2020-05-21,13:27:16,13:46:21,NA,incomplete,133,filling,0,left,Purple_Star_Grid_2.jpg,Green_Plus_Grid_1.jpg,Purple_Circle_Stripes_3.jpg,left,682.8899999381974,true,high,false
BDYnZPXY,3j6bhnx0vc5zv8hudcso2u6bq3dnka,3xm0hyn6nocyzdzro7zfx8ussh3ep1,BDYnZPXY,2020-0188,2020-05-21,13:27:16,13:46:21,NA,incomplete,134,filling,1,right,Red_Star_Stripes_4.jpg,Red_Triangle_Grid_1.jpg,Green_Plus_Stripes_3.jpg,right,854.4850000180304,true,high,false
BDYnZPXY,3j6bhnx0vc5zv8hudcso2u6bq3dnka,3xm0hyn6nocyzdzro7zfx8ussh3ep1,BDYnZPXY,2020-0188,2020-05-21,13:27:16,13:46:21,NA,incomplete,135,filling,1,left,Blue_Star_Dots_3.jpg,Red_Circle_Dots_2.jpg,Blue_Triangle_Stripes_1.jpg,left,688.0250000394881,true,high,false
BDYnZPXY,3j6bhnx0vc5zv8hudcso2u6bq3dnka,3xm0hyn6nocyzdzro7zfx8ussh3ep1,BDYnZPXY,2020-0188,2020-05-21,13:27:16,13:46:21,NA,incomplete,136,filling,1,left,Purple_Circle_Stripes_1.jpg,Red_Star_Stripes_2.jpg,Purple_Triangle_Chess_3.jpg,left,738.0499999271706,true,high,false
BDYnZPXY,3j6bhnx0vc5zv8hudcso2u6bq3dnka,3xm0hyn6nocyzdzro7zfx8ussh3ep1,BDYnZPXY,2020-0188,2020-05-21,13:27:16,13:46:21,NA,incomplete,137,filling,1,left,Green_Circle_Stripes_4.jpg,Blue_Star_Stripes_2.jpg,Green_Plus_Chess_3.jpg,left,551.5800000866875,true,high,false
BDYnZPXY,3j6bhnx0vc5zv8hudcso2u6bq3dnka,3xm0hyn6nocyzdzro7zfx8ussh3ep1,BDYnZPXY,2020-0188,2020-05-21,13:27:16,13:46:21,NA,incomplete,138,filling,1,left,Blue_Star_Dots_2.jpg,Red_Triangle_Dots_4.jpg,Blue_Plus_Chess_3.jpg,left,649.4350000284612,true,high,false
BDYnZPXY,3j6bhnx0vc5zv8hudcso2u6bq3dnka,3xm0hyn6nocyzdzro7zfx8ussh3ep1,BDYnZPXY,2020-0188,2020-05-21,13:27:16,13:46:21,NA,incomplete,139,filling,0,right,Red_Circle_Grid_4.jpg,Red_Star_Stripes_2.jpg,Green_Plus_Grid_1.jpg,left,737.4650000128895,false,high,false
BDYnZPXY,3j6bhnx0vc5zv8hudcso2u6bq3dnka,3xm0hyn6nocyzdzro7zfx8ussh3ep1,BDYnZPXY,2020-0188,2020-05-21,13:27:16,13:46:21,NA,incomplete,140,color,1,left,Blue_Circle_Grid_2.jpg,Blue_Star_Stripes_3.jpg,Green_Triangle_Grid_4.jpg,right,800.0849999953061,false,high,false
BDYnZPXY,3j6bhnx0vc5zv8hudcso2u6bq3dnka,3xm0hyn6nocyzdzro7zfx8ussh3ep1,BDYnZPXY,2020-0188,2020-05-21,13:27:16,13:46:21,NA,incomplete,141,color,0,right,Purple_Plus_Stripes_2.jpg,Red_Star_Stripes_3.jpg,Purple_Triangle_Chess_4.jpg,right,532.8699999954551,true,high,false
BDYnZPXY,3j6bhnx0vc5zv8hudcso2u6bq3dnka,3xm0hyn6nocyzdzro7zfx8ussh3ep1,BDYnZPXY,2020-0188,2020-05-21,13:27:16,13:46:21,NA,incomplete,142,color,1,right,Blue_Triangle_Dots_3.jpg,Purple_Star_Dots_2.jpg,Blue_Plus_Chess_1.jpg,left,603.9399999426678,false,high,false
BDYnZPXY,3j6bhnx0vc5zv8hudcso2u6bq3dnka,3xm0hyn6nocyzdzro7zfx8ussh3ep1,BDYnZPXY,2020-0188,2020-05-21,13:27:16,13:46:21,NA,incomplete,143,color,1,left,Blue_Plus_Grid_2.jpg,Blue_Triangle_Dots_4.jpg,Red_Star_Grid_3.jpg,right,743.599999928847,false,high,false
BDYnZPXY,3j6bhnx0vc5zv8hudcso2u6bq3dnka,3xm0hyn6nocyzdzro7zfx8ussh3ep1,BDYnZPXY,2020-0188,2020-05-21,13:27:16,13:46:21,NA,incomplete,144,color,1,right,Blue_Triangle_Stripes_1.jpg,Purple_Star_Stripes_2.jpg,Blue_Circle_Chess_3.jpg,right,478.9050000254065,true,high,false
BDYnZPXY,3j6bhnx0vc5zv8hudcso2u6bq3dnka,3xm0hyn6nocyzdzro7zfx8ussh3ep1,BDYnZPXY,2020-0188,2020-05-21,13:27:16,13:46:21,NA,incomplete,145,color,0,right,Blue_Plus_Chess_3.jpg,Green_Circle_Chess_4.jpg,Blue_Star_Dots_2.jpg,right,512.2599999886006,true,high,false
BDYnZPXY,3j6bhnx0vc5zv8hudcso2u6bq3dnka,3xm0hyn6nocyzdzro7zfx8ussh3ep1,BDYnZPXY,2020-0188,2020-05-21,13:27:16,13:46:21,NA,incomplete,146,color,1,right,Green_Triangle_Stripes_1.jpg,Red_Plus_Stripes_2.jpg,Green_Star_Grid_3.jpg,right,487.8749999916181,true,high,false
BDYnZPXY,3j6bhnx0vc5zv8hudcso2u6bq3dnka,3xm0hyn6nocyzdzro7zfx8ussh3ep1,BDYnZPXY,2020-0188,2020-05-21,13:27:16,13:46:21,NA,incomplete,147,color,0,right,Red_Triangle_Dots_4.jpg,Purple_Circle_Dots_1.jpg,Red_Plus_Stripes_3.jpg,right,456.75500005017966,true,high,false
BDYnZPXY,3j6bhnx0vc5zv8hudcso2u6bq3dnka,3xm0hyn6nocyzdzro7zfx8ussh3ep1,BDYnZPXY,2020-0188,2020-05-21,13:27:16,13:46:21,NA,incomplete,148,color,1,left,Blue_Star_Dots_2.jpg,Blue_Triangle_Chess_4.jpg,Green_Circle_Dots_1.jpg,left,458.81500001996756,true,high,false
BDYnZPXY,3j6bhnx0vc5zv8hudcso2u6bq3dnka,3xm0hyn6nocyzdzro7zfx8ussh3ep1,BDYnZPXY,2020-0188,2020-05-21,13:27:16,13:46:21,NA,incomplete,149,color,1,right,Purple_Plus_Stripes_1.jpg,Blue_Star_Stripes_2.jpg,Purple_Triangle_Dots_3.jpg,right,604.189999983646,true,high,false
BDYnZPXY,3j6bhnx0vc5zv8hudcso2u6bq3dnka,3xm0hyn6nocyzdzro7zfx8ussh3ep1,BDYnZPXY,2020-0188,2020-05-21,13:27:16,13:46:21,NA,incomplete,150,color,0,right,Purple_Circle_Stripes_3.jpg,Blue_Plus_Stripes_4.jpg,Purple_Triangle_Chess_1.jpg,right,511.9849999900907,true,high,false
BDYnZPXY,3j6bhnx0vc5zv8hudcso2u6bq3dnka,3xm0hyn6nocyzdzro7zfx8ussh3ep1,BDYnZPXY,2020-0188,2020-05-21,13:27:16,13:46:21,NA,incomplete,151,color,1,right,Green_Plus_Stripes_2.jpg,Purple_Circle_Stripes_3.jpg,Green_Star_Chess_1.jpg,right,431.3699998892844,true,high,false
BDYnZPXY,3j6bhnx0vc5zv8hudcso2u6bq3dnka,3xm0hyn6nocyzdzro7zfx8ussh3ep1,BDYnZPXY,2020-0188,2020-05-21,13:27:16,13:46:21,NA,incomplete,152,color,1,left,Blue_Star_Grid_4.jpg,Blue_Plus_Chess_3.jpg,Green_Circle_Grid_1.jpg,left,507.5550000183284,true,high,false
BDYnZPXY,3j6bhnx0vc5zv8hudcso2u6bq3dnka,3xm0hyn6nocyzdzro7zfx8ussh3ep1,BDYnZPXY,2020-0188,2020-05-21,13:27:16,13:46:21,NA,incomplete,153,color,1,right,Green_Plus_Dots_3.jpg,Purple_Star_Dots_1.jpg,Green_Circle_Grid_2.jpg,right,531.5950000658631,true,high,false
BDYnZPXY,3j6bhnx0vc5zv8hudcso2u6bq3dnka,3xm0hyn6nocyzdzro7zfx8ussh3ep1,BDYnZPXY,2020-0188,2020-05-21,13:27:16,13:46:21,NA,incomplete,154,color,1,left,Green_Triangle_Grid_2.jpg,Green_Plus_Stripes_4.jpg,Purple_Star_Grid_3.jpg,left,602.8250000672415,true,high,false
BDYnZPXY,3j6bhnx0vc5zv8hudcso2u6bq3dnka,3xm0hyn6nocyzdzro7zfx8ussh3ep1,BDYnZPXY,2020-0188,2020-05-21,13:27:16,13:46:21,NA,incomplete,155,color,1,left,Green_Star_Grid_3.jpg,Green_Triangle_Dots_1.jpg,Red_Plus_Grid_4.jpg,left,542.699999990873,true,high,false
BDYnZPXY,3j6bhnx0vc5zv8hudcso2u6bq3dnka,3xm0hyn6nocyzdzro7zfx8ussh3ep1,BDYnZPXY,2020-0188,2020-05-21,13:27:16,13:46:21,NA,incomplete,156,color,1,left,Purple_Star_Chess_1.jpg,Purple_Circle_Dots_2.jpg,Red_Triangle_Chess_3.jpg,left,533.7950000539422,true,high,false
BDYnZPXY,3j6bhnx0vc5zv8hudcso2u6bq3dnka,3xm0hyn6nocyzdzro7zfx8ussh3ep1,BDYnZPXY,2020-0188,2020-05-21,13:27:16,13:46:21,NA,incomplete,157,color,1,left,Purple_Plus_Grid_2.jpg,Purple_Circle_Dots_4.jpg,Blue_Star_Grid_1.jpg,left,484.56499993335456,true,high,false
BDYnZPXY,3j6bhnx0vc5zv8hudcso2u6bq3dnka,3xm0hyn6nocyzdzro7zfx8ussh3ep1,BDYnZPXY,2020-0188,2020-05-21,13:27:16,13:46:21,NA,incomplete,158,color,1,right,Purple_Star_Grid_4.jpg,Blue_Circle_Grid_3.jpg,Purple_Triangle_Chess_2.jpg,right,501.4749999390915,true,high,false
BDYnZPXY,3j6bhnx0vc5zv8hudcso2u6bq3dnka,3xm0hyn6nocyzdzro7zfx8ussh3ep1,BDYnZPXY,2020-0188,2020-05-21,13:27:16,13:46:21,NA,incomplete,159,color,1,right,Blue_Circle_Dots_2.jpg,Green_Plus_Dots_4.jpg,Blue_Star_Chess_1.jpg,right,493.8800000818446,true,high,false
BDYnZPXY,3j6bhnx0vc5zv8hudcso2u6bq3dnka,3xm0hyn6nocyzdzro7zfx8ussh3ep1,BDYnZPXY,2020-0188,2020-05-21,13:27:16,13:46:21,NA,incomplete,160,filling,1,left,Purple_Star_Chess_3.jpg,Blue_Circle_Chess_4.jpg,Purple_Triangle_Stripes_1.jpg,right,644.7499999776483,false,high,false
BDYnZPXY,3j6bhnx0vc5zv8hudcso2u6bq3dnka,3xm0hyn6nocyzdzro7zfx8ussh3ep1,BDYnZPXY,2020-0188,2020-05-21,13:27:16,13:46:21,NA,incomplete,161,filling,1,left,Blue_Triangle_Dots_2.jpg,Purple_Plus_Dots_4.jpg,Blue_Star_Grid_3.jpg,left,624.3549999780953,true,high,false
BDYnZPXY,3j6bhnx0vc5zv8hudcso2u6bq3dnka,3xm0hyn6nocyzdzro7zfx8ussh3ep1,BDYnZPXY,2020-0188,2020-05-21,13:27:16,13:46:21,NA,incomplete,162,filling,1,left,Purple_Triangle_Stripes_1.jpg,Green_Circle_Stripes_3.jpg,Purple_Star_Chess_4.jpg,left,946.3600000599399,true,high,false
BDYnZPXY,3j6bhnx0vc5zv8hudcso2u6bq3dnka,3xm0hyn6nocyzdzro7zfx8ussh3ep1,BDYnZPXY,2020-0188,2020-05-21,13:27:16,13:46:21,NA,incomplete,163,filling,1,right,Green_Star_Stripes_3.jpg,Green_Plus_Dots_1.jpg,Red_Circle_Stripes_2.jpg,right,619.2750000627711,true,high,false
BDYnZPXY,3j6bhnx0vc5zv8hudcso2u6bq3dnka,3xm0hyn6nocyzdzro7zfx8ussh3ep1,BDYnZPXY,2020-0188,2020-05-21,13:27:16,13:46:21,NA,incomplete,164,filling,0,right,Red_Star_Chess_1.jpg,Red_Plus_Dots_3.jpg,Purple_Circle_Chess_4.jpg,right,683.4899999666959,true,high,false
BDYnZPXY,3j6bhnx0vc5zv8hudcso2u6bq3dnka,3xm0hyn6nocyzdzro7zfx8ussh3ep1,BDYnZPXY,2020-0188,2020-05-21,13:27:16,13:46:21,NA,incomplete,165,filling,1,right,Green_Plus_Chess_2.jpg,Green_Triangle_Grid_1.jpg,Purple_Star_Chess_3.jpg,right,871.0750000318512,true,high,false
BDYnZPXY,3j6bhnx0vc5zv8hudcso2u6bq3dnka,3xm0hyn6nocyzdzro7zfx8ussh3ep1,BDYnZPXY,2020-0188,2020-05-21,13:27:16,13:46:21,NA,incomplete,166,filling,1,left,Blue_Star_Chess_3.jpg,Red_Circle_Chess_2.jpg,Blue_Triangle_Grid_1.jpg,right,672.5650000153109,false,high,false
BDYnZPXY,3j6bhnx0vc5zv8hudcso2u6bq3dnka,3xm0hyn6nocyzdzro7zfx8ussh3ep1,BDYnZPXY,2020-0188,2020-05-21,13:27:16,13:46:21,NA,incomplete,167,filling,1,left,Purple_Star_Grid_2.jpg,Red_Triangle_Grid_4.jpg,Purple_Plus_Chess_1.jpg,left,738.2049999432638,true,high,false
BDYnZPXY,3j6bhnx0vc5zv8hudcso2u6bq3dnka,3xm0hyn6nocyzdzro7zfx8ussh3ep1,BDYnZPXY,2020-0188,2020-05-21,13:27:16,13:46:21,NA,incomplete,168,filling,1,left,Blue_Triangle_Stripes_3.jpg,Red_Plus_Stripes_2.jpg,Blue_Star_Chess_1.jpg,left,736.4749999251217,true,high,false
BDYnZPXY,3j6bhnx0vc5zv8hudcso2u6bq3dnka,3xm0hyn6nocyzdzro7zfx8ussh3ep1,BDYnZPXY,2020-0188,2020-05-21,13:27:16,13:46:21,NA,incomplete,169,filling,1,right,Red_Triangle_Dots_1.jpg,Red_Circle_Stripes_2.jpg,Blue_Plus_Dots_3.jpg,right,631.569999968633,true,high,false
BDYnZPXY,3j6bhnx0vc5zv8hudcso2u6bq3dnka,3xm0hyn6nocyzdzro7zfx8ussh3ep1,BDYnZPXY,2020-0188,2020-05-21,13:27:16,13:46:21,NA,incomplete,170,filling,0,left,Green_Circle_Stripes_3.jpg,Blue_Plus_Stripes_4.jpg,Green_Triangle_Grid_2.jpg,left,665.6250000232831,true,high,false
BDYnZPXY,3j6bhnx0vc5zv8hudcso2u6bq3dnka,3xm0hyn6nocyzdzro7zfx8ussh3ep1,BDYnZPXY,2020-0188,2020-05-21,13:27:16,13:46:21,NA,incomplete,171,filling,1,left,Blue_Triangle_Stripes_2.jpg,Green_Circle_Stripes_1.jpg,Blue_Plus_Chess_4.jpg,right,508.1249999348074,false,high,false
BDYnZPXY,3j6bhnx0vc5zv8hudcso2u6bq3dnka,3xm0hyn6nocyzdzro7zfx8ussh3ep1,BDYnZPXY,2020-0188,2020-05-21,13:27:16,13:46:21,NA,incomplete,172,filling,0,left,Purple_Star_Dots_2.jpg,Blue_Circle_Dots_3.jpg,Purple_Plus_Grid_1.jpg,left,596.504999906756,true,high,false
BDYnZPXY,3j6bhnx0vc5zv8hudcso2u6bq3dnka,3xm0hyn6nocyzdzro7zfx8ussh3ep1,BDYnZPXY,2020-0188,2020-05-21,13:27:16,13:46:21,NA,incomplete,173,filling,1,left,Blue_Triangle_Stripes_4.jpg,Green_Circle_Stripes_2.jpg,Blue_Star_Dots_1.jpg,right,537.1450000675395,false,high,false
BDYnZPXY,3j6bhnx0vc5zv8hudcso2u6bq3dnka,3xm0hyn6nocyzdzro7zfx8ussh3ep1,BDYnZPXY,2020-0188,2020-05-21,13:27:16,13:46:21,NA,incomplete,174,filling,0,left,Blue_Circle_Chess_3.jpg,Red_Plus_Chess_1.jpg,Blue_Star_Grid_2.jpg,left,640.5699999304488,true,high,false
BDYnZPXY,3j6bhnx0vc5zv8hudcso2u6bq3dnka,3xm0hyn6nocyzdzro7zfx8ussh3ep1,BDYnZPXY,2020-0188,2020-05-21,13:27:16,13:46:21,NA,incomplete,175,filling,1,right,Red_Star_Stripes_4.jpg,Red_Triangle_Chess_1.jpg,Green_Circle_Stripes_3.jpg,right,672.6699999999255,true,high,false
BDYnZPXY,3j6bhnx0vc5zv8hudcso2u6bq3dnka,3xm0hyn6nocyzdzro7zfx8ussh3ep1,BDYnZPXY,2020-0188,2020-05-21,13:27:16,13:46:21,NA,incomplete,176,filling,1,right,Green_Star_Dots_4.jpg,Green_Plus_Chess_1.jpg,Red_Circle_Dots_2.jpg,right,586.3299999618903,true,high,false
BDYnZPXY,3j6bhnx0vc5zv8hudcso2u6bq3dnka,3xm0hyn6nocyzdzro7zfx8ussh3ep1,BDYnZPXY,2020-0188,2020-05-21,13:27:16,13:46:21,NA,incomplete,177,filling,1,left,Green_Triangle_Grid_2.jpg,Blue_Plus_Grid_1.jpg,Green_Circle_Chess_4.jpg,left,663.245000061579,true,high,false
BDYnZPXY,3j6bhnx0vc5zv8hudcso2u6bq3dnka,3xm0hyn6nocyzdzro7zfx8ussh3ep1,BDYnZPXY,2020-0188,2020-05-21,13:27:16,13:46:21,NA,incomplete,178,filling,1,left,Green_Triangle_Dots_3.jpg,Red_Plus_Dots_2.jpg,Green_Circle_Stripes_1.jpg,left,665.999999968335,true,high,false
BDYnZPXY,3j6bhnx0vc5zv8hudcso2u6bq3dnka,3xm0hyn6nocyzdzro7zfx8ussh3ep1,BDYnZPXY,2020-0188,2020-05-21,13:27:16,13:46:21,NA,incomplete,179,filling,0,right,Green_Triangle_Dots_1.jpg,Green_Plus_Grid_2.jpg,Purple_Circle_Dots_3.jpg,right,580.7450000429526,true,high,false
BDYnZPXY,3j6bhnx0vc5zv8hudcso2u6bq3dnka,3xm0hyn6nocyzdzro7zfx8ussh3ep1,BDYnZPXY,2020-0188,2020-05-21,13:27:16,13:46:21,NA,incomplete,180,color,1,right,Red_Star_Grid_2.jpg,Purple_Circle_Grid_1.jpg,Red_Triangle_Stripes_3.jpg,left,705.6549999397248,false,high,false
BDYnZPXY,3j6bhnx0vc5zv8hudcso2u6bq3dnka,3xm0hyn6nocyzdzro7zfx8ussh3ep1,BDYnZPXY,2020-0188,2020-05-21,13:27:16,13:46:21,NA,incomplete,181,color,0,left,Green_Circle_Dots_3.jpg,Green_Triangle_Chess_1.jpg,Red_Plus_Dots_4.jpg,left,433.35999990813434,true,high,false
BDYnZPXY,3j6bhnx0vc5zv8hudcso2u6bq3dnka,3xm0hyn6nocyzdzro7zfx8ussh3ep1,BDYnZPXY,2020-0188,2020-05-21,13:27:16,13:46:21,NA,incomplete,182,color,1,left,Green_Triangle_Dots_2.jpg,Green_Star_Grid_3.jpg,Blue_Circle_Dots_4.jpg,left,428.04999998770654,true,high,false
BDYnZPXY,3j6bhnx0vc5zv8hudcso2u6bq3dnka,3xm0hyn6nocyzdzro7zfx8ussh3ep1,BDYnZPXY,2020-0188,2020-05-21,13:27:16,13:46:21,NA,incomplete,183,color,1,right,Purple_Star_Dots_4.jpg,Red_Plus_Dots_3.jpg,Purple_Triangle_Chess_1.jpg,right,510.9599999850616,true,high,false
BDYnZPXY,3j6bhnx0vc5zv8hudcso2u6bq3dnka,3xm0hyn6nocyzdzro7zfx8ussh3ep1,BDYnZPXY,2020-0188,2020-05-21,13:27:16,13:46:21,NA,incomplete,184,color,1,right,Blue_Triangle_Grid_4.jpg,Purple_Star_Grid_1.jpg,Blue_Circle_Stripes_3.jpg,right,462.41500007454306,true,high,false
BDYnZPXY,3j6bhnx0vc5zv8hudcso2u6bq3dnka,3xm0hyn6nocyzdzro7zfx8ussh3ep1,BDYnZPXY,2020-0188,2020-05-21,13:27:16,13:46:21,NA,incomplete,185,color,1,left,Green_Plus_Dots_2.jpg,Green_Triangle_Stripes_3.jpg,Blue_Star_Dots_4.jpg,left,408.7800000561401,true,high,false
BDYnZPXY,3j6bhnx0vc5zv8hudcso2u6bq3dnka,3xm0hyn6nocyzdzro7zfx8ussh3ep1,BDYnZPXY,2020-0188,2020-05-21,13:27:16,13:46:21,NA,incomplete,186,color,1,right,Red_Circle_Stripes_3.jpg,Purple_Triangle_Stripes_4.jpg,Red_Star_Chess_1.jpg,right,477.6500000152737,true,high,false
BDYnZPXY,3j6bhnx0vc5zv8hudcso2u6bq3dnka,3xm0hyn6nocyzdzro7zfx8ussh3ep1,BDYnZPXY,2020-0188,2020-05-21,13:27:16,13:46:21,NA,incomplete,187,color,1,right,Red_Plus_Grid_1.jpg,Blue_Circle_Grid_4.jpg,Red_Triangle_Chess_2.jpg,right,525.9500000393018,true,high,false
BDYnZPXY,3j6bhnx0vc5zv8hudcso2u6bq3dnka,3xm0hyn6nocyzdzro7zfx8ussh3ep1,BDYnZPXY,2020-0188,2020-05-21,13:27:16,13:46:21,NA,incomplete,188,color,1,left,Red_Triangle_Chess_1.jpg,Red_Plus_Grid_3.jpg,Purple_Circle_Chess_4.jpg,left,422.51499998383224,true,high,false
BDYnZPXY,3j6bhnx0vc5zv8hudcso2u6bq3dnka,3xm0hyn6nocyzdzro7zfx8ussh3ep1,BDYnZPXY,2020-0188,2020-05-21,13:27:16,13:46:21,NA,incomplete,189,color,1,right,Purple_Plus_Dots_3.jpg,Green_Circle_Dots_1.jpg,Purple_Triangle_Grid_4.jpg,right,458.21999991312623,true,high,false
BDYnZPXY,3j6bhnx0vc5zv8hudcso2u6bq3dnka,3xm0hyn6nocyzdzro7zfx8ussh3ep1,BDYnZPXY,2020-0188,2020-05-21,13:27:16,13:46:21,NA,incomplete,190,color,0,right,Red_Triangle_Chess_2.jpg,Green_Circle_Chess_1.jpg,Red_Plus_Grid_4.jpg,right,443.05500003974885,true,high,false
BDYnZPXY,3j6bhnx0vc5zv8hudcso2u6bq3dnka,3xm0hyn6nocyzdzro7zfx8ussh3ep1,BDYnZPXY,2020-0188,2020-05-21,13:27:16,13:46:21,NA,incomplete,191,color,1,right,Green_Star_Grid_4.jpg,Red_Triangle_Grid_3.jpg,Green_Plus_Dots_2.jpg,right,550.1800000201911,true,high,false
BDYnZPXY,3j6bhnx0vc5zv8hudcso2u6bq3dnka,3xm0hyn6nocyzdzro7zfx8ussh3ep1,BDYnZPXY,2020-0188,2020-05-21,13:27:16,13:46:21,NA,incomplete,192,color,1,left,Green_Triangle_Stripes_3.jpg,Green_Circle_Grid_4.jpg,Purple_Star_Stripes_1.jpg,left,435.7900000177324,true,high,false
BDYnZPXY,3j6bhnx0vc5zv8hudcso2u6bq3dnka,3xm0hyn6nocyzdzro7zfx8ussh3ep1,BDYnZPXY,2020-0188,2020-05-21,13:27:16,13:46:21,NA,incomplete,193,color,1,right,Blue_Plus_Stripes_1.jpg,Green_Star_Stripes_3.jpg,Blue_Circle_Dots_4.jpg,right,502.6899999938905,true,high,false
BDYnZPXY,3j6bhnx0vc5zv8hudcso2u6bq3dnka,3xm0hyn6nocyzdzro7zfx8ussh3ep1,BDYnZPXY,2020-0188,2020-05-21,13:27:16,13:46:21,NA,incomplete,194,color,0,left,Green_Star_Dots_4.jpg,Green_Plus_Grid_2.jpg,Red_Circle_Dots_1.jpg,left,438.2700000423938,true,high,false
BDYnZPXY,3j6bhnx0vc5zv8hudcso2u6bq3dnka,3xm0hyn6nocyzdzro7zfx8ussh3ep1,BDYnZPXY,2020-0188,2020-05-21,13:27:16,13:46:21,NA,incomplete,195,color,1,right,Blue_Circle_Stripes_3.jpg,Red_Plus_Stripes_4.jpg,Blue_Star_Grid_1.jpg,right,520.1250000391155,true,high,false
BDYnZPXY,3j6bhnx0vc5zv8hudcso2u6bq3dnka,3xm0hyn6nocyzdzro7zfx8ussh3ep1,BDYnZPXY,2020-0188,2020-05-21,13:27:16,13:46:21,NA,incomplete,196,color,0,left,Red_Plus_Grid_1.jpg,Red_Circle_Stripes_4.jpg,Blue_Triangle_Grid_2.jpg,left,415.8449999522418,true,high,false
BDYnZPXY,3j6bhnx0vc5zv8hudcso2u6bq3dnka,3xm0hyn6nocyzdzro7zfx8ussh3ep1,BDYnZPXY,2020-0188,2020-05-21,13:27:16,13:46:21,NA,incomplete,197,color,1,left,Blue_Plus_Chess_1.jpg,Blue_Star_Stripes_2.jpg,Green_Triangle_Chess_4.jpg,left,541.5499999653548,true,high,false
BDYnZPXY,3j6bhnx0vc5zv8hudcso2u6bq3dnka,3xm0hyn6nocyzdzro7zfx8ussh3ep1,BDYnZPXY,2020-0188,2020-05-21,13:27:16,13:46:21,NA,incomplete,198,color,1,left,Red_Plus_Dots_2.jpg,Red_Circle_Chess_1.jpg,Blue_Star_Dots_3.jpg,left,524.7650000965223,true,high,false
BDYnZPXY,3j6bhnx0vc5zv8hudcso2u6bq3dnka,3xm0hyn6nocyzdzro7zfx8ussh3ep1,BDYnZPXY,2020-0188,2020-05-21,13:27:16,13:46:21,NA,incomplete,199,color,1,left,Red_Plus_Stripes_3.jpg,Red_Triangle_Grid_2.jpg,Green_Circle_Stripes_4.jpg,left,452.45999994222075,true,high,false
BDYnZPXY,3j6bhnx0vc5zv8hudcso2u6bq3dnka,3xm0hyn6nocyzdzro7zfx8ussh3ep1,BDYnZPXY,2020-0188,2020-05-21,13:27:16,13:46:21,NA,incomplete,200,filling,1,left,Blue_Star_Stripes_4.jpg,Purple_Circle_Stripes_1.jpg,Blue_Triangle_Chess_2.jpg,right,437.66499997582287,false,high,false
BDYnZPXY,3j6bhnx0vc5zv8hudcso2u6bq3dnka,3xm0hyn6nocyzdzro7zfx8ussh3ep1,BDYnZPXY,2020-0188,2020-05-21,13:27:16,13:46:21,NA,incomplete,201,filling,1,left,Red_Star_Chess_4.jpg,Blue_Circle_Chess_2.jpg,Red_Plus_Stripes_1.jpg,right,480.1350000780076,false,high,false
BDYnZPXY,3j6bhnx0vc5zv8hudcso2u6bq3dnka,3xm0hyn6nocyzdzro7zfx8ussh3ep1,BDYnZPXY,2020-0188,2020-05-21,13:27:16,13:46:21,NA,incomplete,202,filling,1,right,Red_Plus_Stripes_3.jpg,Red_Star_Chess_4.jpg,Green_Circle_Stripes_1.jpg,right,729.8350000055507,true,high,false
BDYnZPXY,3j6bhnx0vc5zv8hudcso2u6bq3dnka,3xm0hyn6nocyzdzro7zfx8ussh3ep1,BDYnZPXY,2020-0188,2020-05-21,13:27:16,13:46:21,NA,incomplete,203,filling,1,right,Red_Plus_Stripes_2.jpg,Red_Triangle_Chess_3.jpg,Purple_Circle_Stripes_1.jpg,right,791.6700000641868,true,high,false
BDYnZPXY,3j6bhnx0vc5zv8hudcso2u6bq3dnka,3xm0hyn6nocyzdzro7zfx8ussh3ep1,BDYnZPXY,2020-0188,2020-05-21,13:27:16,13:46:21,NA,incomplete,204,filling,1,left,Purple_Circle_Stripes_2.jpg,Red_Star_Stripes_3.jpg,Purple_Triangle_Grid_4.jpg,left,707.4149999534711,true,high,false
BDYnZPXY,3j6bhnx0vc5zv8hudcso2u6bq3dnka,3xm0hyn6nocyzdzro7zfx8ussh3ep1,BDYnZPXY,2020-0188,2020-05-21,13:27:16,13:46:21,NA,incomplete,205,filling,1,left,Purple_Star_Grid_2.jpg,Red_Circle_Grid_4.jpg,Purple_Triangle_Stripes_3.jpg,left,524.585000006482,true,high,false
BDYnZPXY,3j6bhnx0vc5zv8hudcso2u6bq3dnka,3xm0hyn6nocyzdzro7zfx8ussh3ep1,BDYnZPXY,2020-0188,2020-05-21,13:27:16,13:46:21,NA,incomplete,206,filling,1,right,Blue_Circle_Dots_4.jpg,Blue_Triangle_Chess_2.jpg,Red_Plus_Dots_1.jpg,right,525.6000000517815,true,high,false
BDYnZPXY,3j6bhnx0vc5zv8hudcso2u6bq3dnka,3xm0hyn6nocyzdzro7zfx8ussh3ep1,BDYnZPXY,2020-0188,2020-05-21,13:27:16,13:46:21,NA,incomplete,207,filling,1,right,Green_Triangle_Chess_4.jpg,Green_Plus_Dots_2.jpg,Blue_Star_Chess_3.jpg,right,620.1799999689683,true,high,false
BDYnZPXY,3j6bhnx0vc5zv8hudcso2u6bq3dnka,3xm0hyn6nocyzdzro7zfx8ussh3ep1,BDYnZPXY,2020-0188,2020-05-21,13:27:16,13:46:21,NA,incomplete,208,filling,1,right,Blue_Triangle_Dots_3.jpg,Blue_Star_Grid_1.jpg,Red_Circle_Dots_4.jpg,right,519.1349999513477,true,high,false
BDYnZPXY,3j6bhnx0vc5zv8hudcso2u6bq3dnka,3xm0hyn6nocyzdzro7zfx8ussh3ep1,BDYnZPXY,2020-0188,2020-05-21,13:27:16,13:46:21,NA,incomplete,209,filling,1,right,Red_Triangle_Dots_2.jpg,Red_Plus_Stripes_3.jpg,Purple_Star_Dots_1.jpg,right,542.9200000362471,true,high,false
BDYnZPXY,3j6bhnx0vc5zv8hudcso2u6bq3dnka,3xm0hyn6nocyzdzro7zfx8ussh3ep1,BDYnZPXY,2020-0188,2020-05-21,13:27:16,13:46:21,NA,incomplete,210,filling,1,right,Blue_Circle_Chess_4.jpg,Blue_Plus_Dots_2.jpg,Green_Triangle_Chess_1.jpg,right,749.3949999334291,true,high,false
BDYnZPXY,3j6bhnx0vc5zv8hudcso2u6bq3dnka,3xm0hyn6nocyzdzro7zfx8ussh3ep1,BDYnZPXY,2020-0188,2020-05-21,13:27:16,13:46:21,NA,incomplete,211,filling,1,left,Purple_Star_Stripes_2.jpg,Green_Triangle_Stripes_4.jpg,Purple_Circle_Dots_1.jpg,left,642.5749999471009,true,high,false
BDYnZPXY,3j6bhnx0vc5zv8hudcso2u6bq3dnka,3xm0hyn6nocyzdzro7zfx8ussh3ep1,BDYnZPXY,2020-0188,2020-05-21,13:27:16,13:46:21,NA,incomplete,212,filling,1,right,Red_Star_Stripes_1.jpg,Red_Circle_Grid_2.jpg,Green_Triangle_Stripes_4.jpg,right,603.6950000561774,true,high,false
BDYnZPXY,3j6bhnx0vc5zv8hudcso2u6bq3dnka,3xm0hyn6nocyzdzro7zfx8ussh3ep1,BDYnZPXY,2020-0188,2020-05-21,13:27:16,13:46:21,NA,incomplete,213,filling,1,right,Purple_Triangle_Grid_4.jpg,Purple_Plus_Dots_2.jpg,Green_Star_Grid_1.jpg,right,602.3849999764934,true,high,false
BDYnZPXY,3j6bhnx0vc5zv8hudcso2u6bq3dnka,3xm0hyn6nocyzdzro7zfx8ussh3ep1,BDYnZPXY,2020-0188,2020-05-21,13:27:16,13:46:21,NA,incomplete,214,filling,0,left,Green_Circle_Grid_2.jpg,Purple_Plus_Grid_4.jpg,Green_Star_Chess_1.jpg,left,542.3150000860915,true,high,false
BDYnZPXY,3j6bhnx0vc5zv8hudcso2u6bq3dnka,3xm0hyn6nocyzdzro7zfx8ussh3ep1,BDYnZPXY,2020-0188,2020-05-21,13:27:16,13:46:21,NA,incomplete,215,filling,1,left,Purple_Circle_Stripes_2.jpg,Blue_Plus_Stripes_1.jpg,Purple_Triangle_Grid_3.jpg,left,635.8599999221042,true,high,false
BDYnZPXY,3j6bhnx0vc5zv8hudcso2u6bq3dnka,3xm0hyn6nocyzdzro7zfx8ussh3ep1,BDYnZPXY,2020-0188,2020-05-21,13:27:16,13:46:21,NA,incomplete,216,filling,1,right,Green_Triangle_Grid_1.jpg,Green_Star_Stripes_4.jpg,Red_Circle_Grid_3.jpg,right,575.8050000295043,true,high,false
BDYnZPXY,3j6bhnx0vc5zv8hudcso2u6bq3dnka,3xm0hyn6nocyzdzro7zfx8ussh3ep1,BDYnZPXY,2020-0188,2020-05-21,13:27:16,13:46:21,NA,incomplete,217,filling,1,right,Purple_Star_Stripes_2.jpg,Purple_Circle_Chess_3.jpg,Blue_Plus_Stripes_1.jpg,right,508.9000000152737,true,high,false
BDYnZPXY,3j6bhnx0vc5zv8hudcso2u6bq3dnka,3xm0hyn6nocyzdzro7zfx8ussh3ep1,BDYnZPXY,2020-0188,2020-05-21,13:27:16,13:46:21,NA,incomplete,218,filling,0,left,Red_Plus_Chess_3.jpg,Blue_Circle_Chess_1.jpg,Red_Triangle_Stripes_2.jpg,left,611.53499991633,true,high,false
BDYnZPXY,3j6bhnx0vc5zv8hudcso2u6bq3dnka,3xm0hyn6nocyzdzro7zfx8ussh3ep1,BDYnZPXY,2020-0188,2020-05-21,13:27:16,13:46:21,NA,incomplete,219,filling,1,right,Blue_Triangle_Grid_2.jpg,Blue_Circle_Chess_3.jpg,Purple_Plus_Grid_4.jpg,right,569.1050000023097,true,high,false
BDYnZPXY,3j6bhnx0vc5zv8hudcso2u6bq3dnka,3xm0hyn6nocyzdzro7zfx8ussh3ep1,BDYnZPXY,2020-0188,2020-05-21,13:27:16,13:46:21,NA,incomplete,220,color,0,left,Green_Circle_Stripes_1.jpg,Green_Star_Chess_2.jpg,Red_Triangle_Stripes_3.jpg,right,574.2800000589341,false,high,false
BDYnZPXY,3j6bhnx0vc5zv8hudcso2u6bq3dnka,3xm0hyn6nocyzdzro7zfx8ussh3ep1,BDYnZPXY,2020-0188,2020-05-21,13:27:16,13:46:21,NA,incomplete,221,color,1,right,Green_Plus_Chess_4.jpg,Purple_Star_Chess_1.jpg,Green_Triangle_Grid_3.jpg,left,475.8250000886619,false,high,false
BDYnZPXY,3j6bhnx0vc5zv8hudcso2u6bq3dnka,3xm0hyn6nocyzdzro7zfx8ussh3ep1,BDYnZPXY,2020-0188,2020-05-21,13:27:16,13:46:21,NA,incomplete,222,color,1,right,Red_Star_Chess_3.jpg,Purple_Plus_Chess_2.jpg,Red_Circle_Stripes_1.jpg,left,665.7150000100955,false,high,false
BDYnZPXY,3j6bhnx0vc5zv8hudcso2u6bq3dnka,3xm0hyn6nocyzdzro7zfx8ussh3ep1,BDYnZPXY,2020-0188,2020-05-21,13:27:16,13:46:21,NA,incomplete,223,color,1,right,Red_Plus_Stripes_4.jpg,Purple_Triangle_Stripes_3.jpg,Red_Star_Dots_2.jpg,right,510.6199999572709,true,high,false
BDYnZPXY,3j6bhnx0vc5zv8hudcso2u6bq3dnka,3xm0hyn6nocyzdzro7zfx8ussh3ep1,BDYnZPXY,2020-0188,2020-05-21,13:27:16,13:46:21,NA,incomplete,224,color,1,right,Purple_Circle_Chess_4.jpg,Red_Star_Chess_3.jpg,Purple_Triangle_Grid_1.jpg,right,614.1749999951571,true,high,false
BDYnZPXY,3j6bhnx0vc5zv8hudcso2u6bq3dnka,3xm0hyn6nocyzdzro7zfx8ussh3ep1,BDYnZPXY,2020-0188,2020-05-21,13:27:16,13:46:21,NA,incomplete,225,color,1,right,Red_Plus_Chess_3.jpg,Green_Star_Chess_1.jpg,Red_Triangle_Dots_4.jpg,right,577.555000083521,true,high,false
BDYnZPXY,3j6bhnx0vc5zv8hudcso2u6bq3dnka,3xm0hyn6nocyzdzro7zfx8ussh3ep1,BDYnZPXY,2020-0188,2020-05-21,13:27:16,13:46:21,NA,incomplete,226,color,1,left,Red_Plus_Chess_2.jpg,Red_Triangle_Dots_4.jpg,Blue_Circle_Chess_3.jpg,left,646.4850000338629,true,high,false
BDYnZPXY,3j6bhnx0vc5zv8hudcso2u6bq3dnka,3xm0hyn6nocyzdzro7zfx8ussh3ep1,BDYnZPXY,2020-0188,2020-05-21,13:27:16,13:46:21,NA,incomplete,227,color,1,left,Purple_Star_Stripes_4.jpg,Purple_Triangle_Grid_2.jpg,Blue_Plus_Stripes_3.jpg,left,616.0849999869242,true,high,false
BDYnZPXY,3j6bhnx0vc5zv8hudcso2u6bq3dnka,3xm0hyn6nocyzdzro7zfx8ussh3ep1,BDYnZPXY,2020-0188,2020-05-21,13:27:16,13:46:21,NA,incomplete,228,color,1,left,Purple_Plus_Grid_4.jpg,Purple_Triangle_Chess_3.jpg,Red_Circle_Grid_2.jpg,left,445.1350000454113,true,high,false
BDYnZPXY,3j6bhnx0vc5zv8hudcso2u6bq3dnka,3xm0hyn6nocyzdzro7zfx8ussh3ep1,BDYnZPXY,2020-0188,2020-05-21,13:27:16,13:46:21,NA,incomplete,229,color,0,left,Red_Star_Grid_3.jpg,Red_Circle_Stripes_4.jpg,Purple_Triangle_Grid_2.jpg,left,503.9450000040233,true,high,false
BDYnZPXY,3j6bhnx0vc5zv8hudcso2u6bq3dnka,3xm0hyn6nocyzdzro7zfx8ussh3ep1,BDYnZPXY,2020-0188,2020-05-21,13:27:16,13:46:21,NA,incomplete,230,color,1,right,Red_Circle_Dots_4.jpg,Green_Star_Dots_1.jpg,Red_Triangle_Chess_2.jpg,right,457.3950000340119,true,high,false
BDYnZPXY,3j6bhnx0vc5zv8hudcso2u6bq3dnka,3xm0hyn6nocyzdzro7zfx8ussh3ep1,BDYnZPXY,2020-0188,2020-05-21,13:27:16,13:46:21,NA,incomplete,231,color,1,right,Green_Triangle_Chess_3.jpg,Blue_Plus_Chess_2.jpg,Green_Circle_Grid_4.jpg,right,467.30500005651265,true,high,false
BDYnZPXY,3j6bhnx0vc5zv8hudcso2u6bq3dnka,3xm0hyn6nocyzdzro7zfx8ussh3ep1,BDYnZPXY,2020-0188,2020-05-21,13:27:16,13:46:21,NA,incomplete,232,color,0,left,Green_Circle_Stripes_4.jpg,Green_Plus_Dots_1.jpg,Purple_Triangle_Stripes_2.jpg,left,444.0999999642372,true,high,false
BDYnZPXY,3j6bhnx0vc5zv8hudcso2u6bq3dnka,3xm0hyn6nocyzdzro7zfx8ussh3ep1,BDYnZPXY,2020-0188,2020-05-21,13:27:16,13:46:21,NA,incomplete,233,color,1,right,Purple_Plus_Stripes_2.jpg,Blue_Triangle_Stripes_4.jpg,Purple_Circle_Chess_3.jpg,right,480.4399999557063,true,high,false
BDYnZPXY,3j6bhnx0vc5zv8hudcso2u6bq3dnka,3xm0hyn6nocyzdzro7zfx8ussh3ep1,BDYnZPXY,2020-0188,2020-05-21,13:27:16,13:46:21,NA,incomplete,234,color,1,right,Red_Triangle_Dots_1.jpg,Blue_Plus_Dots_4.jpg,Red_Star_Stripes_3.jpg,right,455.7799999602139,true,high,false
BDYnZPXY,3j6bhnx0vc5zv8hudcso2u6bq3dnka,3xm0hyn6nocyzdzro7zfx8ussh3ep1,BDYnZPXY,2020-0188,2020-05-21,13:27:16,13:46:21,NA,incomplete,235,color,1,right,Blue_Plus_Stripes_4.jpg,Purple_Triangle_Stripes_3.jpg,Blue_Star_Chess_2.jpg,right,499.6500000124797,true,high,false
BDYnZPXY,3j6bhnx0vc5zv8hudcso2u6bq3dnka,3xm0hyn6nocyzdzro7zfx8ussh3ep1,BDYnZPXY,2020-0188,2020-05-21,13:27:16,13:46:21,NA,incomplete,236,color,1,right,Purple_Triangle_Stripes_1.jpg,Red_Star_Stripes_3.jpg,Purple_Plus_Chess_2.jpg,right,508.1650000065565,true,high,false
BDYnZPXY,3j6bhnx0vc5zv8hudcso2u6bq3dnka,3xm0hyn6nocyzdzro7zfx8ussh3ep1,BDYnZPXY,2020-0188,2020-05-21,13:27:16,13:46:21,NA,incomplete,237,color,1,right,Blue_Plus_Stripes_2.jpg,Green_Star_Stripes_4.jpg,Blue_Triangle_Grid_1.jpg,right,492.22499993629754,true,high,false
BDYnZPXY,3j6bhnx0vc5zv8hudcso2u6bq3dnka,3xm0hyn6nocyzdzro7zfx8ussh3ep1,BDYnZPXY,2020-0188,2020-05-21,13:27:16,13:46:21,NA,incomplete,238,color,1,left,Green_Circle_Grid_3.jpg,Green_Triangle_Chess_2.jpg,Red_Plus_Grid_1.jpg,left,566.4300000062212,true,high,false
BDYnZPXY,3j6bhnx0vc5zv8hudcso2u6bq3dnka,3xm0hyn6nocyzdzro7zfx8ussh3ep1,BDYnZPXY,2020-0188,2020-05-21,13:27:16,13:46:21,NA,incomplete,239,color,1,right,Blue_Circle_Stripes_1.jpg,Green_Triangle_Stripes_4.jpg,Blue_Plus_Grid_2.jpg,right,437.47999996412545,true,high,false
BDYnZPXY,3j6bhnx0vc5zv8hudcso2u6bq3dnka,3xm0hyn6nocyzdzro7zfx8ussh3ep1,BDYnZPXY,2020-0188,2020-05-21,13:27:16,13:46:21,NA,NA,instruction example,shape,NA,NA,Green_Star_Stripes_4.jpg,Purple_Star_Chess_3.jpg,Blue_Circle_Grid_4.jpg,NA,NA,NA,NA,undefined
BDYnZPXY,3j6bhnx0vc5zv8hudcso2u6bq3dnka,3xm0hyn6nocyzdzro7zfx8ussh3ep1,BDYnZPXY,2020-0188,2020-05-21,13:27:16,13:46:21,NA,NA,instruction example,shape,NA,NA,Red_Plus_Grid_1.jpg,Green_Circle_Dots_1.jpg,Purple_Plus_Chess_4.jpg,NA,NA,NA,NA,undefined
BDYnZPXY,3j6bhnx0vc5zv8hudcso2u6bq3dnka,3xm0hyn6nocyzdzro7zfx8ussh3ep1,BDYnZPXY,2020-0188,2020-05-21,13:27:16,13:46:21,NA,NA,instruction example,shape,NA,NA,Green_Circle_Stripes_1.jpg,Red_Plus_Stripes_3.jpg,Green_Star_Chess_2.jpg,NA,NA,NA,NA,undefined
BDYnZPXY,3j6bhnx0vc5zv8hudcso2u6bq3dnka,3xm0hyn6nocyzdzro7zfx8ussh3ep1,BDYnZPXY,2020-0188,2020-05-21,13:27:16,13:46:21,NA,NA,instruction example,shape,NA,NA,Purple_Star_Chess_1.jpg,Purple_Circle_Stripes_2.jpg,Green_Triangle_Chess_3.jpg,NA,NA,NA,NA,undefined
BDYnZPXY,3j6bhnx0vc5zv8hudcso2u6bq3dnka,3xm0hyn6nocyzdzro7zfx8ussh3ep1,BDYnZPXY,2020-0188,2020-05-21,13:27:16,13:46:21,1062575.979999965,1145659.815000021,NA,NA,NA,NA,NA,NA,NA,NA,NA,NA,NA,undefined
