workerId,hitId,assignmentId,subject,studyid,exp_date,exp_start,exp_end,time_start,time_end,trial,type,reward_validity,answer,image_top,image_left,image_right,response,response_time,response_acc,volatility,age,race,gender,ethnicity,color,vision,neuro,practice
UBNqDsU3,3axfspqoztbswwyvx39ztaxp9nrfjw,3y9n9ss8l2om0ig4ueroen96nazd3m,UBNqDsU3,2020-0188,2020-05-21,12:28:13,12:53:47,NA,incomplete,0,shape,1,left,Red_Plus_Chess_1.jpg,Blue_Plus_Stripes_3.jpg,Red_Star_Grid_4.jpg,right,789.7999999986496,false,NA,NA,NA,NA,NA,NA,NA,NA,true
UBNqDsU3,3axfspqoztbswwyvx39ztaxp9nrfjw,3y9n9ss8l2om0ig4ueroen96nazd3m,UBNqDsU3,2020-0188,2020-05-21,12:28:13,12:53:47,NA,incomplete,1,shape,0,right,Blue_Triangle_Stripes_2.jpg,Blue_Plus_Grid_1.jpg,Purple_Triangle_Dots_4.jpg,left,1546.234999994398,false,NA,NA,NA,NA,NA,NA,NA,NA,true
UBNqDsU3,3axfspqoztbswwyvx39ztaxp9nrfjw,3y9n9ss8l2om0ig4ueroen96nazd3m,UBNqDsU3,2020-0188,2020-05-21,12:28:13,12:53:47,NA,incomplete,2,shape,1,left,Purple_Star_Grid_2.jpg,Blue_Star_Stripes_3.jpg,Purple_Plus_Dots_4.jpg,left,502.5000000023283,true,NA,NA,NA,NA,NA,NA,NA,NA,true
UBNqDsU3,3axfspqoztbswwyvx39ztaxp9nrfjw,3y9n9ss8l2om0ig4ueroen96nazd3m,UBNqDsU3,2020-0188,2020-05-21,12:28:13,12:53:47,NA,incomplete,3,shape,0,left,Purple_Circle_Chess_2.jpg,Red_Circle_Grid_3.jpg,Purple_Star_Stripes_1.jpg,right,336.1800000057556,false,NA,NA,NA,NA,NA,NA,NA,NA,true
UBNqDsU3,3axfspqoztbswwyvx39ztaxp9nrfjw,3y9n9ss8l2om0ig4ueroen96nazd3m,UBNqDsU3,2020-0188,2020-05-21,12:28:13,12:53:47,NA,incomplete,4,shape,1,right,Purple_Plus_Chess_4.jpg,Purple_Star_Stripes_2.jpg,Blue_Plus_Dots_1.jpg,left,368.32000000134576,false,NA,NA,NA,NA,NA,NA,NA,NA,true
UBNqDsU3,3axfspqoztbswwyvx39ztaxp9nrfjw,3y9n9ss8l2om0ig4ueroen96nazd3m,UBNqDsU3,2020-0188,2020-05-21,12:28:13,12:53:47,NA,incomplete,5,shape,1,left,Red_Triangle_Chess_3.jpg,Blue_Triangle_Stripes_2.jpg,Red_Circle_Grid_1.jpg,right,319.21000000135973,false,NA,NA,NA,NA,NA,NA,NA,NA,true
UBNqDsU3,3axfspqoztbswwyvx39ztaxp9nrfjw,3y9n9ss8l2om0ig4ueroen96nazd3m,UBNqDsU3,2020-0188,2020-05-21,12:28:13,12:53:47,NA,incomplete,6,shape,1,left,Red_Star_Grid_3.jpg,Purple_Star_Stripes_4.jpg,Red_Triangle_Dots_2.jpg,left,272.42500000284053,true,NA,NA,NA,NA,NA,NA,NA,NA,true
UBNqDsU3,3axfspqoztbswwyvx39ztaxp9nrfjw,3y9n9ss8l2om0ig4ueroen96nazd3m,UBNqDsU3,2020-0188,2020-05-21,12:28:13,12:53:47,NA,incomplete,7,shape,0,left,Green_Plus_Dots_4.jpg,Red_Plus_Grid_1.jpg,Green_Triangle_Stripes_3.jpg,left,610.7449999981327,true,NA,NA,NA,NA,NA,NA,NA,NA,true
UBNqDsU3,3axfspqoztbswwyvx39ztaxp9nrfjw,3y9n9ss8l2om0ig4ueroen96nazd3m,UBNqDsU3,2020-0188,2020-05-21,12:28:13,12:53:47,NA,incomplete,8,shape,1,right,Green_Plus_Stripes_1.jpg,Green_Triangle_Chess_4.jpg,Red_Plus_Dots_2.jpg,left,1095.6800000057556,false,NA,NA,NA,NA,NA,NA,NA,NA,true
UBNqDsU3,3axfspqoztbswwyvx39ztaxp9nrfjw,3y9n9ss8l2om0ig4ueroen96nazd3m,UBNqDsU3,2020-0188,2020-05-21,12:28:13,12:53:47,NA,incomplete,9,shape,1,left,Green_Triangle_Chess_1.jpg,Red_Triangle_Dots_4.jpg,Green_Circle_Grid_3.jpg,left,1079.2050000018207,true,NA,NA,NA,NA,NA,NA,NA,NA,true
UBNqDsU3,3axfspqoztbswwyvx39ztaxp9nrfjw,3y9n9ss8l2om0ig4ueroen96nazd3m,UBNqDsU3,2020-0188,2020-05-21,12:28:13,12:53:47,NA,incomplete,10,shape,0,left,Blue_Triangle_Dots_3.jpg,Green_Triangle_Grid_4.jpg,Blue_Star_Chess_1.jpg,right,1080.294999999809,false,NA,NA,NA,NA,NA,NA,NA,NA,true
UBNqDsU3,3axfspqoztbswwyvx39ztaxp9nrfjw,3y9n9ss8l2om0ig4ueroen96nazd3m,UBNqDsU3,2020-0188,2020-05-21,12:28:13,12:53:47,NA,incomplete,11,shape,1,left,Red_Star_Dots_3.jpg,Purple_Star_Chess_2.jpg,Red_Plus_Grid_4.jpg,left,1081.115000000922,true,NA,NA,NA,NA,NA,NA,NA,NA,true
UBNqDsU3,3axfspqoztbswwyvx39ztaxp9nrfjw,3y9n9ss8l2om0ig4ueroen96nazd3m,UBNqDsU3,2020-0188,2020-05-21,12:28:13,12:53:47,NA,incomplete,12,shape,1,left,Red_Circle_Stripes_1.jpg,Blue_Circle_Chess_2.jpg,Red_Star_Dots_4.jpg,right,984.4299999967916,false,NA,NA,NA,NA,NA,NA,NA,NA,true
UBNqDsU3,3axfspqoztbswwyvx39ztaxp9nrfjw,3y9n9ss8l2om0ig4ueroen96nazd3m,UBNqDsU3,2020-0188,2020-05-21,12:28:13,12:53:47,NA,incomplete,13,shape,1,left,Green_Triangle_Stripes_1.jpg,Red_Triangle_Dots_3.jpg,Green_Star_Grid_2.jpg,left,797.2650000010617,true,NA,NA,NA,NA,NA,NA,NA,NA,true
UBNqDsU3,3axfspqoztbswwyvx39ztaxp9nrfjw,3y9n9ss8l2om0ig4ueroen96nazd3m,UBNqDsU3,2020-0188,2020-05-21,12:28:13,12:53:47,NA,incomplete,14,shape,1,right,Purple_Star_Chess_1.jpg,Purple_Plus_Grid_4.jpg,Blue_Star_Stripes_3.jpg,right,1257.5799999976298,true,NA,NA,NA,NA,NA,NA,NA,NA,true
UBNqDsU3,3axfspqoztbswwyvx39ztaxp9nrfjw,3y9n9ss8l2om0ig4ueroen96nazd3m,UBNqDsU3,2020-0188,2020-05-21,12:28:13,12:53:47,NA,incomplete,15,shape,1,right,Green_Star_Grid_1.jpg,Green_Triangle_Stripes_3.jpg,Purple_Star_Dots_4.jpg,right,1122.5350000022445,true,NA,NA,NA,NA,NA,NA,NA,NA,true
UBNqDsU3,3axfspqoztbswwyvx39ztaxp9nrfjw,3y9n9ss8l2om0ig4ueroen96nazd3m,UBNqDsU3,2020-0188,2020-05-21,12:28:13,12:53:47,NA,incomplete,16,shape,1,right,Blue_Plus_Chess_3.jpg,Blue_Triangle_Stripes_1.jpg,Green_Plus_Grid_4.jpg,right,1119.059999997262,true,NA,NA,NA,NA,NA,NA,NA,NA,true
UBNqDsU3,3axfspqoztbswwyvx39ztaxp9nrfjw,3y9n9ss8l2om0ig4ueroen96nazd3m,UBNqDsU3,2020-0188,2020-05-21,12:28:13,12:53:47,NA,incomplete,17,shape,1,left,Purple_Circle_Dots_4.jpg,Red_Circle_Chess_3.jpg,Purple_Star_Stripes_1.jpg,left,958.0299999943236,true,NA,NA,NA,NA,NA,NA,NA,NA,true
UBNqDsU3,3axfspqoztbswwyvx39ztaxp9nrfjw,3y9n9ss8l2om0ig4ueroen96nazd3m,UBNqDsU3,2020-0188,2020-05-21,12:28:13,12:53:47,NA,incomplete,18,shape,1,right,Green_Triangle_Grid_3.jpg,Green_Circle_Dots_4.jpg,Blue_Triangle_Stripes_1.jpg,right,1168.505000001518,true,NA,NA,NA,NA,NA,NA,NA,NA,true
UBNqDsU3,3axfspqoztbswwyvx39ztaxp9nrfjw,3y9n9ss8l2om0ig4ueroen96nazd3m,UBNqDsU3,2020-0188,2020-05-21,12:28:13,12:53:47,NA,incomplete,19,shape,1,left,Red_Triangle_Grid_4.jpg,Green_Triangle_Chess_1.jpg,Red_Circle_Stripes_3.jpg,left,1376.1749999976018,true,NA,NA,NA,NA,NA,NA,NA,NA,true
UBNqDsU3,3axfspqoztbswwyvx39ztaxp9nrfjw,3y9n9ss8l2om0ig4ueroen96nazd3m,UBNqDsU3,2020-0188,2020-05-21,12:28:13,12:53:47,NA,incomplete,20,color,0,right,Purple_Triangle_Grid_3.jpg,Green_Triangle_Dots_1.jpg,Purple_Circle_Chess_2.jpg,left,884.2199999998556,false,NA,NA,NA,NA,NA,NA,NA,NA,true
UBNqDsU3,3axfspqoztbswwyvx39ztaxp9nrfjw,3y9n9ss8l2om0ig4ueroen96nazd3m,UBNqDsU3,2020-0188,2020-05-21,12:28:13,12:53:47,NA,incomplete,21,color,1,left,Red_Triangle_Chess_2.jpg,Red_Star_Grid_1.jpg,Blue_Triangle_Dots_4.jpg,right,1293.0449999985285,false,NA,NA,NA,NA,NA,NA,NA,NA,true
UBNqDsU3,3axfspqoztbswwyvx39ztaxp9nrfjw,3y9n9ss8l2om0ig4ueroen96nazd3m,UBNqDsU3,2020-0188,2020-05-21,12:28:13,12:53:47,NA,incomplete,22,color,1,left,Blue_Circle_Dots_1.jpg,Blue_Triangle_Stripes_4.jpg,Green_Circle_Chess_3.jpg,right,1604.8050000026124,false,NA,NA,NA,NA,NA,NA,NA,NA,true
UBNqDsU3,3axfspqoztbswwyvx39ztaxp9nrfjw,3y9n9ss8l2om0ig4ueroen96nazd3m,UBNqDsU3,2020-0188,2020-05-21,12:28:13,12:53:47,NA,incomplete,23,color,0,right,Blue_Triangle_Chess_4.jpg,Purple_Triangle_Dots_3.jpg,Blue_Star_Grid_1.jpg,left,606.5099999977974,false,NA,NA,NA,NA,NA,NA,NA,NA,true
UBNqDsU3,3axfspqoztbswwyvx39ztaxp9nrfjw,3y9n9ss8l2om0ig4ueroen96nazd3m,UBNqDsU3,2020-0188,2020-05-21,12:28:13,12:53:47,NA,incomplete,24,color,1,left,Green_Plus_Grid_2.jpg,Green_Star_Chess_3.jpg,Purple_Plus_Dots_4.jpg,left,770.6399999951245,true,NA,NA,NA,NA,NA,NA,NA,NA,true
UBNqDsU3,3axfspqoztbswwyvx39ztaxp9nrfjw,3y9n9ss8l2om0ig4ueroen96nazd3m,UBNqDsU3,2020-0188,2020-05-21,12:28:13,12:53:47,NA,incomplete,25,color,1,right,Purple_Plus_Stripes_1.jpg,Red_Plus_Chess_4.jpg,Purple_Circle_Grid_2.jpg,left,1007.3399999965914,false,NA,NA,NA,NA,NA,NA,NA,NA,true
UBNqDsU3,3axfspqoztbswwyvx39ztaxp9nrfjw,3y9n9ss8l2om0ig4ueroen96nazd3m,UBNqDsU3,2020-0188,2020-05-21,12:28:13,12:53:47,NA,incomplete,26,color,1,right,Purple_Circle_Grid_2.jpg,Blue_Circle_Chess_1.jpg,Purple_Plus_Dots_3.jpg,left,371.2999999988824,false,NA,NA,NA,NA,NA,NA,NA,NA,true
UBNqDsU3,3axfspqoztbswwyvx39ztaxp9nrfjw,3y9n9ss8l2om0ig4ueroen96nazd3m,UBNqDsU3,2020-0188,2020-05-21,12:28:13,12:53:47,NA,incomplete,27,color,1,right,Red_Circle_Stripes_2.jpg,Purple_Circle_Chess_3.jpg,Red_Triangle_Grid_1.jpg,right,18.700000000651926,true,NA,NA,NA,NA,NA,NA,NA,NA,true
UBNqDsU3,3axfspqoztbswwyvx39ztaxp9nrfjw,3y9n9ss8l2om0ig4ueroen96nazd3m,UBNqDsU3,2020-0188,2020-05-21,12:28:13,12:53:47,NA,incomplete,28,color,1,right,Blue_Triangle_Dots_3.jpg,Purple_Triangle_Chess_1.jpg,Blue_Circle_Stripes_2.jpg,left,160.6099999990547,false,NA,NA,NA,NA,NA,NA,NA,NA,true
UBNqDsU3,3axfspqoztbswwyvx39ztaxp9nrfjw,3y9n9ss8l2om0ig4ueroen96nazd3m,UBNqDsU3,2020-0188,2020-05-21,12:28:13,12:53:47,NA,incomplete,29,color,1,left,Blue_Triangle_Grid_2.jpg,Blue_Plus_Stripes_4.jpg,Green_Triangle_Chess_1.jpg,right,135.88999999780208,false,NA,NA,NA,NA,NA,NA,NA,NA,true
UBNqDsU3,3axfspqoztbswwyvx39ztaxp9nrfjw,3y9n9ss8l2om0ig4ueroen96nazd3m,UBNqDsU3,2020-0188,2020-05-21,12:28:13,12:53:47,NA,incomplete,30,color,1,right,Red_Plus_Chess_4.jpg,Green_Plus_Stripes_3.jpg,Red_Star_Grid_1.jpg,left,17.21499999985099,false,NA,NA,NA,NA,NA,NA,NA,NA,true
UBNqDsU3,3axfspqoztbswwyvx39ztaxp9nrfjw,3y9n9ss8l2om0ig4ueroen96nazd3m,UBNqDsU3,2020-0188,2020-05-21,12:28:13,12:53:47,NA,incomplete,31,color,0,right,Red_Triangle_Chess_3.jpg,Green_Triangle_Grid_4.jpg,Red_Star_Stripes_1.jpg,right,334.8550000010291,true,NA,NA,NA,NA,NA,NA,NA,NA,true
UBNqDsU3,3axfspqoztbswwyvx39ztaxp9nrfjw,3y9n9ss8l2om0ig4ueroen96nazd3m,UBNqDsU3,2020-0188,2020-05-21,12:28:13,12:53:47,NA,incomplete,32,color,1,left,Blue_Plus_Stripes_2.jpg,Blue_Triangle_Chess_4.jpg,Red_Plus_Dots_1.jpg,right,688.2550000008196,false,NA,NA,NA,NA,NA,NA,NA,NA,true
UBNqDsU3,3axfspqoztbswwyvx39ztaxp9nrfjw,3y9n9ss8l2om0ig4ueroen96nazd3m,UBNqDsU3,2020-0188,2020-05-21,12:28:13,12:53:47,NA,incomplete,33,color,1,right,Blue_Triangle_Grid_1.jpg,Purple_Triangle_Chess_2.jpg,Blue_Plus_Stripes_4.jpg,left,705.2450000047684,false,NA,NA,NA,NA,NA,NA,NA,NA,true
UBNqDsU3,3axfspqoztbswwyvx39ztaxp9nrfjw,3y9n9ss8l2om0ig4ueroen96nazd3m,UBNqDsU3,2020-0188,2020-05-21,12:28:13,12:53:47,NA,incomplete,34,color,1,left,Purple_Plus_Grid_4.jpg,Purple_Star_Dots_1.jpg,Green_Plus_Chess_3.jpg,left,1138.2700000031618,true,NA,NA,NA,NA,NA,NA,NA,NA,true
UBNqDsU3,3axfspqoztbswwyvx39ztaxp9nrfjw,3y9n9ss8l2om0ig4ueroen96nazd3m,UBNqDsU3,2020-0188,2020-05-21,12:28:13,12:53:47,NA,incomplete,35,color,1,left,Green_Triangle_Chess_2.jpg,Green_Star_Stripes_1.jpg,Red_Triangle_Grid_3.jpg,left,1071.055000000284,true,NA,NA,NA,NA,NA,NA,NA,NA,true
UBNqDsU3,3axfspqoztbswwyvx39ztaxp9nrfjw,3y9n9ss8l2om0ig4ueroen96nazd3m,UBNqDsU3,2020-0188,2020-05-21,12:28:13,12:53:47,NA,incomplete,36,color,0,left,Red_Star_Dots_4.jpg,Red_Plus_Stripes_1.jpg,Blue_Star_Chess_3.jpg,left,1280.4049999976996,true,NA,NA,NA,NA,NA,NA,NA,NA,true
UBNqDsU3,3axfspqoztbswwyvx39ztaxp9nrfjw,3y9n9ss8l2om0ig4ueroen96nazd3m,UBNqDsU3,2020-0188,2020-05-21,12:28:13,12:53:47,NA,incomplete,37,color,1,right,Green_Circle_Dots_3.jpg,Blue_Circle_Stripes_1.jpg,Green_Star_Grid_4.jpg,left,600.0750000020489,false,NA,NA,NA,NA,NA,NA,NA,NA,true
UBNqDsU3,3axfspqoztbswwyvx39ztaxp9nrfjw,3y9n9ss8l2om0ig4ueroen96nazd3m,UBNqDsU3,2020-0188,2020-05-21,12:28:13,12:53:47,NA,incomplete,38,color,1,left,Purple_Triangle_Stripes_4.jpg,Purple_Circle_Grid_2.jpg,Red_Triangle_Dots_3.jpg,left,749.3049999976065,true,NA,NA,NA,NA,NA,NA,NA,NA,true
UBNqDsU3,3axfspqoztbswwyvx39ztaxp9nrfjw,3y9n9ss8l2om0ig4ueroen96nazd3m,UBNqDsU3,2020-0188,2020-05-21,12:28:13,12:53:47,NA,incomplete,39,color,1,right,Green_Plus_Chess_4.jpg,Blue_Plus_Grid_1.jpg,Green_Triangle_Dots_3.jpg,none,0,false,NA,NA,NA,NA,NA,NA,NA,NA,true
UBNqDsU3,3axfspqoztbswwyvx39ztaxp9nrfjw,3y9n9ss8l2om0ig4ueroen96nazd3m,UBNqDsU3,2020-0188,2020-05-21,12:28:13,12:53:47,NA,incomplete,0,shape,0,left,Red_Circle_Stripes_3.jpg,Purple_Circle_Grid_2.jpg,Red_Triangle_Chess_4.jpg,left,1291.1349999995437,true,high,NA,NA,NA,NA,NA,NA,NA,false
UBNqDsU3,3axfspqoztbswwyvx39ztaxp9nrfjw,3y9n9ss8l2om0ig4ueroen96nazd3m,UBNqDsU3,2020-0188,2020-05-21,12:28:13,12:53:47,NA,incomplete,1,shape,0,right,Purple_Star_Grid_1.jpg,Purple_Triangle_Chess_2.jpg,Red_Star_Stripes_4.jpg,left,1489.000000001397,false,high,NA,NA,NA,NA,NA,NA,NA,false
UBNqDsU3,3axfspqoztbswwyvx39ztaxp9nrfjw,3y9n9ss8l2om0ig4ueroen96nazd3m,UBNqDsU3,2020-0188,2020-05-21,12:28:13,12:53:47,NA,incomplete,2,shape,0,left,Purple_Plus_Stripes_3.jpg,Red_Plus_Chess_4.jpg,Purple_Circle_Dots_2.jpg,left,1199.9250000008615,true,high,NA,NA,NA,NA,NA,NA,NA,false
UBNqDsU3,3axfspqoztbswwyvx39ztaxp9nrfjw,3y9n9ss8l2om0ig4ueroen96nazd3m,UBNqDsU3,2020-0188,2020-05-21,12:28:13,12:53:47,NA,incomplete,3,shape,0,right,Green_Triangle_Grid_4.jpg,Green_Circle_Stripes_3.jpg,Purple_Triangle_Chess_2.jpg,left,1531.6400000010617,false,high,NA,NA,NA,NA,NA,NA,NA,false
UBNqDsU3,3axfspqoztbswwyvx39ztaxp9nrfjw,3y9n9ss8l2om0ig4ueroen96nazd3m,UBNqDsU3,2020-0188,2020-05-21,12:28:13,12:53:47,NA,incomplete,4,shape,1,right,Purple_Triangle_Dots_1.jpg,Purple_Star_Grid_2.jpg,Blue_Triangle_Stripes_3.jpg,right,1080.2299999995157,true,high,NA,NA,NA,NA,NA,NA,NA,false
UBNqDsU3,3axfspqoztbswwyvx39ztaxp9nrfjw,3y9n9ss8l2om0ig4ueroen96nazd3m,UBNqDsU3,2020-0188,2020-05-21,12:28:13,12:53:47,NA,incomplete,5,shape,0,right,Green_Triangle_Dots_3.jpg,Green_Star_Stripes_4.jpg,Purple_Triangle_Chess_1.jpg,left,1208.9699999997392,false,high,NA,NA,NA,NA,NA,NA,NA,false
UBNqDsU3,3axfspqoztbswwyvx39ztaxp9nrfjw,3y9n9ss8l2om0ig4ueroen96nazd3m,UBNqDsU3,2020-0188,2020-05-21,12:28:13,12:53:47,NA,incomplete,6,shape,1,right,Red_Star_Grid_2.jpg,Red_Plus_Dots_1.jpg,Green_Star_Stripes_4.jpg,left,1265.5550000055227,false,high,NA,NA,NA,NA,NA,NA,NA,false
UBNqDsU3,3axfspqoztbswwyvx39ztaxp9nrfjw,3y9n9ss8l2om0ig4ueroen96nazd3m,UBNqDsU3,2020-0188,2020-05-21,12:28:13,12:53:47,NA,incomplete,7,shape,1,right,Green_Plus_Stripes_4.jpg,Green_Star_Dots_2.jpg,Red_Plus_Grid_3.jpg,right,1147.4900000030175,true,high,NA,NA,NA,NA,NA,NA,NA,false
UBNqDsU3,3axfspqoztbswwyvx39ztaxp9nrfjw,3y9n9ss8l2om0ig4ueroen96nazd3m,UBNqDsU3,2020-0188,2020-05-21,12:28:13,12:53:47,NA,incomplete,8,shape,1,right,Green_Plus_Grid_4.jpg,Green_Triangle_Stripes_1.jpg,Red_Plus_Dots_3.jpg,right,984.0249999979278,true,high,NA,NA,NA,NA,NA,NA,NA,false
UBNqDsU3,3axfspqoztbswwyvx39ztaxp9nrfjw,3y9n9ss8l2om0ig4ueroen96nazd3m,UBNqDsU3,2020-0188,2020-05-21,12:28:13,12:53:47,NA,incomplete,9,shape,1,right,Green_Triangle_Dots_1.jpg,Green_Circle_Grid_4.jpg,Red_Triangle_Stripes_2.jpg,right,781.0950000056764,true,high,NA,NA,NA,NA,NA,NA,NA,false
UBNqDsU3,3axfspqoztbswwyvx39ztaxp9nrfjw,3y9n9ss8l2om0ig4ueroen96nazd3m,UBNqDsU3,2020-0188,2020-05-21,12:28:13,12:53:47,NA,incomplete,10,color,1,left,Blue_Plus_Grid_3.jpg,Blue_Circle_Dots_4.jpg,Red_Plus_Stripes_2.jpg,left,650.3850000007078,true,high,NA,NA,NA,NA,NA,NA,NA,false
UBNqDsU3,3axfspqoztbswwyvx39ztaxp9nrfjw,3y9n9ss8l2om0ig4ueroen96nazd3m,UBNqDsU3,2020-0188,2020-05-21,12:28:13,12:53:47,NA,incomplete,11,color,1,left,Blue_Star_Chess_4.jpg,Blue_Circle_Dots_1.jpg,Red_Star_Grid_2.jpg,left,701.1100000018487,true,high,NA,NA,NA,NA,NA,NA,NA,false
UBNqDsU3,3axfspqoztbswwyvx39ztaxp9nrfjw,3y9n9ss8l2om0ig4ueroen96nazd3m,UBNqDsU3,2020-0188,2020-05-21,12:28:13,12:53:47,NA,incomplete,12,color,1,right,Red_Circle_Dots_3.jpg,Blue_Circle_Chess_2.jpg,Red_Triangle_Stripes_4.jpg,right,766.0700000051875,true,high,NA,NA,NA,NA,NA,NA,NA,false
UBNqDsU3,3axfspqoztbswwyvx39ztaxp9nrfjw,3y9n9ss8l2om0ig4ueroen96nazd3m,UBNqDsU3,2020-0188,2020-05-21,12:28:13,12:53:47,NA,incomplete,13,color,0,left,Purple_Plus_Grid_4.jpg,Purple_Circle_Chess_1.jpg,Blue_Plus_Dots_2.jpg,left,748.9449999993667,true,high,NA,NA,NA,NA,NA,NA,NA,false
UBNqDsU3,3axfspqoztbswwyvx39ztaxp9nrfjw,3y9n9ss8l2om0ig4ueroen96nazd3m,UBNqDsU3,2020-0188,2020-05-21,12:28:13,12:53:47,NA,incomplete,14,color,0,left,Red_Star_Grid_3.jpg,Red_Circle_Dots_4.jpg,Blue_Star_Stripes_2.jpg,left,587.9199999980628,true,high,NA,NA,NA,NA,NA,NA,NA,false
UBNqDsU3,3axfspqoztbswwyvx39ztaxp9nrfjw,3y9n9ss8l2om0ig4ueroen96nazd3m,UBNqDsU3,2020-0188,2020-05-21,12:28:13,12:53:47,NA,incomplete,15,color,1,right,Purple_Circle_Dots_2.jpg,Red_Circle_Grid_1.jpg,Purple_Plus_Stripes_4.jpg,left,255.90999999979977,false,high,NA,NA,NA,NA,NA,NA,NA,false
UBNqDsU3,3axfspqoztbswwyvx39ztaxp9nrfjw,3y9n9ss8l2om0ig4ueroen96nazd3m,UBNqDsU3,2020-0188,2020-05-21,12:28:13,12:53:47,NA,incomplete,16,color,1,right,Purple_Circle_Chess_1.jpg,Green_Circle_Dots_2.jpg,Purple_Triangle_Grid_4.jpg,right,148.67000000237022,true,high,NA,NA,NA,NA,NA,NA,NA,false
UBNqDsU3,3axfspqoztbswwyvx39ztaxp9nrfjw,3y9n9ss8l2om0ig4ueroen96nazd3m,UBNqDsU3,2020-0188,2020-05-21,12:28:13,12:53:47,NA,incomplete,17,color,1,left,Blue_Triangle_Chess_4.jpg,Blue_Circle_Dots_1.jpg,Purple_Triangle_Stripes_3.jpg,right,541.8950000021141,false,high,NA,NA,NA,NA,NA,NA,NA,false
UBNqDsU3,3axfspqoztbswwyvx39ztaxp9nrfjw,3y9n9ss8l2om0ig4ueroen96nazd3m,UBNqDsU3,2020-0188,2020-05-21,12:28:13,12:53:47,NA,incomplete,18,color,0,left,Red_Star_Grid_2.jpg,Red_Plus_Chess_1.jpg,Purple_Star_Dots_4.jpg,right,486.04499999783,false,high,NA,NA,NA,NA,NA,NA,NA,false
UBNqDsU3,3axfspqoztbswwyvx39ztaxp9nrfjw,3y9n9ss8l2om0ig4ueroen96nazd3m,UBNqDsU3,2020-0188,2020-05-21,12:28:13,12:53:47,NA,incomplete,19,color,1,left,Blue_Triangle_Chess_1.jpg,Blue_Plus_Grid_3.jpg,Red_Triangle_Dots_2.jpg,left,735.544999995851,true,high,NA,NA,NA,NA,NA,NA,NA,false
UBNqDsU3,3axfspqoztbswwyvx39ztaxp9nrfjw,3y9n9ss8l2om0ig4ueroen96nazd3m,UBNqDsU3,2020-0188,2020-05-21,12:28:13,12:53:47,NA,incomplete,20,shape,1,right,Purple_Triangle_Chess_4.jpg,Purple_Plus_Stripes_2.jpg,Blue_Triangle_Dots_1.jpg,left,959.8499999991618,false,high,NA,NA,NA,NA,NA,NA,NA,false
UBNqDsU3,3axfspqoztbswwyvx39ztaxp9nrfjw,3y9n9ss8l2om0ig4ueroen96nazd3m,UBNqDsU3,2020-0188,2020-05-21,12:28:13,12:53:47,NA,incomplete,21,shape,1,left,Blue_Plus_Dots_1.jpg,Red_Plus_Grid_3.jpg,Blue_Triangle_Chess_4.jpg,right,995.5650000046007,false,high,NA,NA,NA,NA,NA,NA,NA,false
UBNqDsU3,3axfspqoztbswwyvx39ztaxp9nrfjw,3y9n9ss8l2om0ig4ueroen96nazd3m,UBNqDsU3,2020-0188,2020-05-21,12:28:13,12:53:47,NA,incomplete,22,shape,1,left,Red_Circle_Grid_3.jpg,Purple_Circle_Stripes_1.jpg,Red_Plus_Chess_4.jpg,left,712.0150000045542,true,high,NA,NA,NA,NA,NA,NA,NA,false
UBNqDsU3,3axfspqoztbswwyvx39ztaxp9nrfjw,3y9n9ss8l2om0ig4ueroen96nazd3m,UBNqDsU3,2020-0188,2020-05-21,12:28:13,12:53:47,NA,incomplete,23,shape,1,right,Red_Plus_Stripes_2.jpg,Red_Circle_Dots_4.jpg,Green_Plus_Grid_3.jpg,left,376.73499999800697,false,high,NA,NA,NA,NA,NA,NA,NA,false
UBNqDsU3,3axfspqoztbswwyvx39ztaxp9nrfjw,3y9n9ss8l2om0ig4ueroen96nazd3m,UBNqDsU3,2020-0188,2020-05-21,12:28:13,12:53:47,NA,incomplete,24,shape,1,right,Purple_Triangle_Chess_3.jpg,Purple_Star_Grid_4.jpg,Green_Triangle_Stripes_1.jpg,left,343.46999999973923,false,high,NA,NA,NA,NA,NA,NA,NA,false
UBNqDsU3,3axfspqoztbswwyvx39ztaxp9nrfjw,3y9n9ss8l2om0ig4ueroen96nazd3m,UBNqDsU3,2020-0188,2020-05-21,12:28:13,12:53:47,NA,incomplete,25,shape,1,right,Purple_Triangle_Grid_1.jpg,Purple_Plus_Dots_4.jpg,Blue_Triangle_Stripes_2.jpg,right,598.8149999974994,true,high,NA,NA,NA,NA,NA,NA,NA,false
UBNqDsU3,3axfspqoztbswwyvx39ztaxp9nrfjw,3y9n9ss8l2om0ig4ueroen96nazd3m,UBNqDsU3,2020-0188,2020-05-21,12:28:13,12:53:47,NA,incomplete,26,shape,1,left,Green_Star_Dots_3.jpg,Purple_Star_Stripes_1.jpg,Green_Plus_Chess_2.jpg,left,330.5800000015879,true,high,NA,NA,NA,NA,NA,NA,NA,false
UBNqDsU3,3axfspqoztbswwyvx39ztaxp9nrfjw,3y9n9ss8l2om0ig4ueroen96nazd3m,UBNqDsU3,2020-0188,2020-05-21,12:28:13,12:53:47,NA,incomplete,27,shape,1,left,Blue_Star_Grid_4.jpg,Red_Star_Dots_2.jpg,Blue_Circle_Stripes_3.jpg,left,707.0399999939837,true,high,NA,NA,NA,NA,NA,NA,NA,false
UBNqDsU3,3axfspqoztbswwyvx39ztaxp9nrfjw,3y9n9ss8l2om0ig4ueroen96nazd3m,UBNqDsU3,2020-0188,2020-05-21,12:28:13,12:53:47,NA,incomplete,28,shape,1,left,Purple_Plus_Dots_1.jpg,Red_Plus_Grid_4.jpg,Purple_Circle_Chess_2.jpg,right,893.2600000044331,false,high,NA,NA,NA,NA,NA,NA,NA,false
UBNqDsU3,3axfspqoztbswwyvx39ztaxp9nrfjw,3y9n9ss8l2om0ig4ueroen96nazd3m,UBNqDsU3,2020-0188,2020-05-21,12:28:13,12:53:47,NA,incomplete,29,shape,1,left,Purple_Triangle_Stripes_1.jpg,Red_Triangle_Grid_4.jpg,Purple_Circle_Dots_2.jpg,left,470.17500000214204,true,high,NA,NA,NA,NA,NA,NA,NA,false
UBNqDsU3,3axfspqoztbswwyvx39ztaxp9nrfjw,3y9n9ss8l2om0ig4ueroen96nazd3m,UBNqDsU3,2020-0188,2020-05-21,12:28:13,12:53:47,NA,incomplete,30,color,0,left,Green_Triangle_Grid_2.jpg,Green_Circle_Chess_4.jpg,Blue_Triangle_Dots_1.jpg,right,347.844999996596,false,high,NA,NA,NA,NA,NA,NA,NA,false
UBNqDsU3,3axfspqoztbswwyvx39ztaxp9nrfjw,3y9n9ss8l2om0ig4ueroen96nazd3m,UBNqDsU3,2020-0188,2020-05-21,12:28:13,12:53:47,NA,incomplete,31,color,0,left,Red_Circle_Chess_1.jpg,Red_Triangle_Stripes_3.jpg,Blue_Circle_Dots_4.jpg,left,656.8200000037905,true,high,NA,NA,NA,NA,NA,NA,NA,false
UBNqDsU3,3axfspqoztbswwyvx39ztaxp9nrfjw,3y9n9ss8l2om0ig4ueroen96nazd3m,UBNqDsU3,2020-0188,2020-05-21,12:28:13,12:53:47,NA,incomplete,32,color,1,right,Purple_Circle_Dots_4.jpg,Green_Circle_Grid_2.jpg,Purple_Plus_Chess_1.jpg,right,563.7149999965914,true,high,NA,NA,NA,NA,NA,NA,NA,false
UBNqDsU3,3axfspqoztbswwyvx39ztaxp9nrfjw,3y9n9ss8l2om0ig4ueroen96nazd3m,UBNqDsU3,2020-0188,2020-05-21,12:28:13,12:53:47,NA,incomplete,33,color,1,left,Blue_Circle_Chess_3.jpg,Blue_Triangle_Dots_2.jpg,Purple_Circle_Grid_4.jpg,right,730.504999999539,false,high,NA,NA,NA,NA,NA,NA,NA,false
UBNqDsU3,3axfspqoztbswwyvx39ztaxp9nrfjw,3y9n9ss8l2om0ig4ueroen96nazd3m,UBNqDsU3,2020-0188,2020-05-21,12:28:13,12:53:47,NA,incomplete,34,color,1,left,Blue_Plus_Grid_4.jpg,Blue_Star_Dots_3.jpg,Red_Plus_Stripes_2.jpg,left,1049.6449999990873,true,high,NA,NA,NA,NA,NA,NA,NA,false
UBNqDsU3,3axfspqoztbswwyvx39ztaxp9nrfjw,3y9n9ss8l2om0ig4ueroen96nazd3m,UBNqDsU3,2020-0188,2020-05-21,12:28:13,12:53:47,NA,incomplete,35,color,1,left,Red_Star_Stripes_4.jpg,Red_Plus_Grid_2.jpg,Green_Star_Dots_3.jpg,left,1497.8350000020582,true,high,NA,NA,NA,NA,NA,NA,NA,false
UBNqDsU3,3axfspqoztbswwyvx39ztaxp9nrfjw,3y9n9ss8l2om0ig4ueroen96nazd3m,UBNqDsU3,2020-0188,2020-05-21,12:28:13,12:53:47,NA,incomplete,36,color,1,left,Green_Plus_Dots_2.jpg,Green_Triangle_Chess_4.jpg,Red_Plus_Stripes_3.jpg,right,1129.7600000033854,false,high,NA,NA,NA,NA,NA,NA,NA,false
UBNqDsU3,3axfspqoztbswwyvx39ztaxp9nrfjw,3y9n9ss8l2om0ig4ueroen96nazd3m,UBNqDsU3,2020-0188,2020-05-21,12:28:13,12:53:47,NA,incomplete,37,color,1,right,Purple_Circle_Stripes_2.jpg,Blue_Circle_Chess_1.jpg,Purple_Triangle_Dots_4.jpg,left,199.48999999905936,false,high,NA,NA,NA,NA,NA,NA,NA,false
UBNqDsU3,3axfspqoztbswwyvx39ztaxp9nrfjw,3y9n9ss8l2om0ig4ueroen96nazd3m,UBNqDsU3,2020-0188,2020-05-21,12:28:13,12:53:47,NA,incomplete,38,color,1,left,Purple_Triangle_Stripes_2.jpg,Purple_Circle_Dots_1.jpg,Green_Triangle_Grid_4.jpg,right,926.5850000011269,false,high,NA,NA,NA,NA,NA,NA,NA,false
UBNqDsU3,3axfspqoztbswwyvx39ztaxp9nrfjw,3y9n9ss8l2om0ig4ueroen96nazd3m,UBNqDsU3,2020-0188,2020-05-21,12:28:13,12:53:47,NA,incomplete,39,color,1,left,Purple_Circle_Dots_2.jpg,Purple_Triangle_Chess_4.jpg,Red_Circle_Stripes_1.jpg,left,1429.6749999994645,true,high,NA,NA,NA,NA,NA,NA,NA,false
UBNqDsU3,3axfspqoztbswwyvx39ztaxp9nrfjw,3y9n9ss8l2om0ig4ueroen96nazd3m,UBNqDsU3,2020-0188,2020-05-21,12:28:13,12:53:47,NA,incomplete,40,shape,1,right,Purple_Triangle_Chess_3.jpg,Purple_Circle_Dots_1.jpg,Green_Triangle_Stripes_2.jpg,left,1126.4200000005076,false,high,NA,NA,NA,NA,NA,NA,NA,false
UBNqDsU3,3axfspqoztbswwyvx39ztaxp9nrfjw,3y9n9ss8l2om0ig4ueroen96nazd3m,UBNqDsU3,2020-0188,2020-05-21,12:28:13,12:53:47,NA,incomplete,41,shape,1,left,Red_Circle_Stripes_1.jpg,Blue_Circle_Grid_2.jpg,Red_Star_Dots_3.jpg,right,788.8400000010151,false,high,NA,NA,NA,NA,NA,NA,NA,false
UBNqDsU3,3axfspqoztbswwyvx39ztaxp9nrfjw,3y9n9ss8l2om0ig4ueroen96nazd3m,UBNqDsU3,2020-0188,2020-05-21,12:28:13,12:53:47,NA,incomplete,42,shape,1,left,Green_Plus_Stripes_2.jpg,Purple_Plus_Dots_3.jpg,Green_Circle_Grid_4.jpg,left,945.5799999996088,true,high,NA,NA,NA,NA,NA,NA,NA,false
UBNqDsU3,3axfspqoztbswwyvx39ztaxp9nrfjw,3y9n9ss8l2om0ig4ueroen96nazd3m,UBNqDsU3,2020-0188,2020-05-21,12:28:13,12:53:47,NA,incomplete,43,shape,1,left,Green_Circle_Grid_3.jpg,Red_Circle_Dots_1.jpg,Green_Triangle_Stripes_2.jpg,right,820.9100000022445,false,high,NA,NA,NA,NA,NA,NA,NA,false
UBNqDsU3,3axfspqoztbswwyvx39ztaxp9nrfjw,3y9n9ss8l2om0ig4ueroen96nazd3m,UBNqDsU3,2020-0188,2020-05-21,12:28:13,12:53:47,NA,incomplete,44,shape,1,left,Red_Plus_Dots_1.jpg,Green_Plus_Stripes_4.jpg,Red_Circle_Grid_3.jpg,left,1089.9800000041723,true,high,NA,NA,NA,NA,NA,NA,NA,false
UBNqDsU3,3axfspqoztbswwyvx39ztaxp9nrfjw,3y9n9ss8l2om0ig4ueroen96nazd3m,UBNqDsU3,2020-0188,2020-05-21,12:28:13,12:53:47,NA,incomplete,45,shape,1,right,Blue_Triangle_Chess_1.jpg,Blue_Circle_Stripes_2.jpg,Red_Triangle_Grid_4.jpg,left,978.2099999939092,false,high,NA,NA,NA,NA,NA,NA,NA,false
UBNqDsU3,3axfspqoztbswwyvx39ztaxp9nrfjw,3y9n9ss8l2om0ig4ueroen96nazd3m,UBNqDsU3,2020-0188,2020-05-21,12:28:13,12:53:47,NA,incomplete,46,shape,1,left,Purple_Plus_Dots_1.jpg,Red_Plus_Stripes_2.jpg,Purple_Circle_Grid_4.jpg,left,1015.2799999995623,true,high,NA,NA,NA,NA,NA,NA,NA,false
UBNqDsU3,3axfspqoztbswwyvx39ztaxp9nrfjw,3y9n9ss8l2om0ig4ueroen96nazd3m,UBNqDsU3,2020-0188,2020-05-21,12:28:13,12:53:47,NA,incomplete,47,shape,1,left,Red_Circle_Grid_1.jpg,Green_Circle_Dots_3.jpg,Red_Star_Stripes_2.jpg,left,1050.5600000033155,true,high,NA,NA,NA,NA,NA,NA,NA,false
UBNqDsU3,3axfspqoztbswwyvx39ztaxp9nrfjw,3y9n9ss8l2om0ig4ueroen96nazd3m,UBNqDsU3,2020-0188,2020-05-21,12:28:13,12:53:47,NA,incomplete,48,shape,1,left,Blue_Plus_Dots_1.jpg,Red_Plus_Chess_4.jpg,Blue_Triangle_Stripes_2.jpg,left,1083.2950000041164,true,high,NA,NA,NA,NA,NA,NA,NA,false
UBNqDsU3,3axfspqoztbswwyvx39ztaxp9nrfjw,3y9n9ss8l2om0ig4ueroen96nazd3m,UBNqDsU3,2020-0188,2020-05-21,12:28:13,12:53:47,NA,incomplete,49,shape,1,right,Green_Plus_Grid_2.jpg,Green_Triangle_Dots_4.jpg,Blue_Plus_Chess_3.jpg,left,1099.72000000556,false,high,NA,NA,NA,NA,NA,NA,NA,false
UBNqDsU3,3axfspqoztbswwyvx39ztaxp9nrfjw,3y9n9ss8l2om0ig4ueroen96nazd3m,UBNqDsU3,2020-0188,2020-05-21,12:28:13,12:53:47,NA,incomplete,50,color,1,right,Red_Star_Chess_2.jpg,Purple_Star_Dots_1.jpg,Red_Circle_Grid_3.jpg,left,955.7249999997439,false,high,NA,NA,NA,NA,NA,NA,NA,false
UBNqDsU3,3axfspqoztbswwyvx39ztaxp9nrfjw,3y9n9ss8l2om0ig4ueroen96nazd3m,UBNqDsU3,2020-0188,2020-05-21,12:28:13,12:53:47,NA,incomplete,51,color,1,left,Red_Circle_Stripes_1.jpg,Red_Triangle_Grid_2.jpg,Purple_Circle_Chess_4.jpg,right,800.585000004503,false,high,NA,NA,NA,NA,NA,NA,NA,false
UBNqDsU3,3axfspqoztbswwyvx39ztaxp9nrfjw,3y9n9ss8l2om0ig4ueroen96nazd3m,UBNqDsU3,2020-0188,2020-05-21,12:28:13,12:53:47,NA,incomplete,52,color,1,left,Red_Circle_Grid_1.jpg,Red_Triangle_Stripes_2.jpg,Green_Circle_Chess_4.jpg,right,782.0150000043213,false,high,NA,NA,NA,NA,NA,NA,NA,false
UBNqDsU3,3axfspqoztbswwyvx39ztaxp9nrfjw,3y9n9ss8l2om0ig4ueroen96nazd3m,UBNqDsU3,2020-0188,2020-05-21,12:28:13,12:53:47,NA,incomplete,53,color,1,left,Green_Star_Stripes_4.jpg,Green_Plus_Dots_1.jpg,Blue_Star_Grid_2.jpg,left,1130.4349999991246,true,high,NA,NA,NA,NA,NA,NA,NA,false
UBNqDsU3,3axfspqoztbswwyvx39ztaxp9nrfjw,3y9n9ss8l2om0ig4ueroen96nazd3m,UBNqDsU3,2020-0188,2020-05-21,12:28:13,12:53:47,NA,incomplete,54,color,1,right,Red_Circle_Dots_1.jpg,Blue_Circle_Stripes_2.jpg,Red_Star_Chess_4.jpg,left,920.8450000005541,false,high,NA,NA,NA,NA,NA,NA,NA,false
UBNqDsU3,3axfspqoztbswwyvx39ztaxp9nrfjw,3y9n9ss8l2om0ig4ueroen96nazd3m,UBNqDsU3,2020-0188,2020-05-21,12:28:13,12:53:47,NA,incomplete,55,color,1,right,Red_Circle_Grid_4.jpg,Blue_Circle_Stripes_1.jpg,Red_Triangle_Dots_3.jpg,left,719.8649999991758,false,high,NA,NA,NA,NA,NA,NA,NA,false
UBNqDsU3,3axfspqoztbswwyvx39ztaxp9nrfjw,3y9n9ss8l2om0ig4ueroen96nazd3m,UBNqDsU3,2020-0188,2020-05-21,12:28:13,12:53:47,NA,incomplete,56,color,1,left,Blue_Triangle_Stripes_1.jpg,Blue_Plus_Dots_3.jpg,Purple_Triangle_Chess_2.jpg,right,864.0550000055227,false,high,NA,NA,NA,NA,NA,NA,NA,false
UBNqDsU3,3axfspqoztbswwyvx39ztaxp9nrfjw,3y9n9ss8l2om0ig4ueroen96nazd3m,UBNqDsU3,2020-0188,2020-05-21,12:28:13,12:53:47,NA,incomplete,57,color,1,right,Red_Star_Stripes_1.jpg,Purple_Star_Dots_3.jpg,Red_Plus_Grid_2.jpg,left,984.1450000022305,false,high,NA,NA,NA,NA,NA,NA,NA,false
UBNqDsU3,3axfspqoztbswwyvx39ztaxp9nrfjw,3y9n9ss8l2om0ig4ueroen96nazd3m,UBNqDsU3,2020-0188,2020-05-21,12:28:13,12:53:47,NA,incomplete,58,color,1,right,Red_Circle_Grid_3.jpg,Purple_Circle_Stripes_2.jpg,Red_Star_Chess_4.jpg,none,0,false,high,NA,NA,NA,NA,NA,NA,NA,false
UBNqDsU3,3axfspqoztbswwyvx39ztaxp9nrfjw,3y9n9ss8l2om0ig4ueroen96nazd3m,UBNqDsU3,2020-0188,2020-05-21,12:28:13,12:53:47,NA,incomplete,59,color,1,left,Blue_Plus_Chess_1.jpg,Blue_Circle_Dots_4.jpg,Purple_Plus_Grid_3.jpg,right,720.6499999957159,false,high,NA,NA,NA,NA,NA,NA,NA,false
UBNqDsU3,3axfspqoztbswwyvx39ztaxp9nrfjw,3y9n9ss8l2om0ig4ueroen96nazd3m,UBNqDsU3,2020-0188,2020-05-21,12:28:13,12:53:47,NA,incomplete,60,shape,1,right,Blue_Star_Grid_3.jpg,Blue_Plus_Stripes_4.jpg,Purple_Star_Dots_1.jpg,right,448.0299999995623,true,high,NA,NA,NA,NA,NA,NA,NA,false
UBNqDsU3,3axfspqoztbswwyvx39ztaxp9nrfjw,3y9n9ss8l2om0ig4ueroen96nazd3m,UBNqDsU3,2020-0188,2020-05-21,12:28:13,12:53:47,NA,incomplete,61,shape,1,right,Purple_Triangle_Stripes_3.jpg,Purple_Star_Chess_4.jpg,Red_Triangle_Dots_1.jpg,left,650.9949999963865,false,high,NA,NA,NA,NA,NA,NA,NA,false
UBNqDsU3,3axfspqoztbswwyvx39ztaxp9nrfjw,3y9n9ss8l2om0ig4ueroen96nazd3m,UBNqDsU3,2020-0188,2020-05-21,12:28:13,12:53:47,NA,incomplete,62,shape,1,right,Red_Circle_Grid_1.jpg,Red_Triangle_Stripes_4.jpg,Blue_Circle_Chess_3.jpg,right,510.8200000032084,true,high,NA,NA,NA,NA,NA,NA,NA,false
UBNqDsU3,3axfspqoztbswwyvx39ztaxp9nrfjw,3y9n9ss8l2om0ig4ueroen96nazd3m,UBNqDsU3,2020-0188,2020-05-21,12:28:13,12:53:47,NA,incomplete,63,shape,0,left,Blue_Star_Chess_2.jpg,Red_Star_Dots_3.jpg,Blue_Triangle_Grid_1.jpg,right,232.44499999424443,false,high,NA,NA,NA,NA,NA,NA,NA,false
UBNqDsU3,3axfspqoztbswwyvx39ztaxp9nrfjw,3y9n9ss8l2om0ig4ueroen96nazd3m,UBNqDsU3,2020-0188,2020-05-21,12:28:13,12:53:47,NA,incomplete,64,shape,1,right,Red_Circle_Stripes_3.jpg,Red_Plus_Dots_2.jpg,Purple_Circle_Grid_4.jpg,right,44.82499999727588,true,high,NA,NA,NA,NA,NA,NA,NA,false
UBNqDsU3,3axfspqoztbswwyvx39ztaxp9nrfjw,3y9n9ss8l2om0ig4ueroen96nazd3m,UBNqDsU3,2020-0188,2020-05-21,12:28:13,12:53:47,NA,incomplete,65,shape,0,right,Purple_Plus_Chess_1.jpg,Purple_Circle_Dots_2.jpg,Blue_Plus_Grid_3.jpg,right,42.94999999552965,true,high,NA,NA,NA,NA,NA,NA,NA,false
UBNqDsU3,3axfspqoztbswwyvx39ztaxp9nrfjw,3y9n9ss8l2om0ig4ueroen96nazd3m,UBNqDsU3,2020-0188,2020-05-21,12:28:13,12:53:47,NA,incomplete,66,shape,0,left,Red_Plus_Stripes_3.jpg,Purple_Plus_Dots_1.jpg,Red_Circle_Grid_2.jpg,left,519.5099999983795,true,high,NA,NA,NA,NA,NA,NA,NA,false
UBNqDsU3,3axfspqoztbswwyvx39ztaxp9nrfjw,3y9n9ss8l2om0ig4ueroen96nazd3m,UBNqDsU3,2020-0188,2020-05-21,12:28:13,12:53:47,NA,incomplete,67,shape,1,right,Red_Circle_Stripes_4.jpg,Red_Triangle_Grid_2.jpg,Blue_Circle_Chess_3.jpg,right,80.19000000064261,true,high,NA,NA,NA,NA,NA,NA,NA,false
UBNqDsU3,3axfspqoztbswwyvx39ztaxp9nrfjw,3y9n9ss8l2om0ig4ueroen96nazd3m,UBNqDsU3,2020-0188,2020-05-21,12:28:13,12:53:47,NA,incomplete,68,shape,0,right,Purple_Plus_Stripes_1.jpg,Purple_Circle_Dots_4.jpg,Blue_Plus_Grid_2.jpg,right,60.440000001108274,true,high,NA,NA,NA,NA,NA,NA,NA,false
UBNqDsU3,3axfspqoztbswwyvx39ztaxp9nrfjw,3y9n9ss8l2om0ig4ueroen96nazd3m,UBNqDsU3,2020-0188,2020-05-21,12:28:13,12:53:47,NA,incomplete,69,shape,1,left,Blue_Star_Grid_1.jpg,Purple_Star_Dots_2.jpg,Blue_Triangle_Chess_4.jpg,right,504.51999999501277,false,high,NA,NA,NA,NA,NA,NA,NA,false
UBNqDsU3,3axfspqoztbswwyvx39ztaxp9nrfjw,3y9n9ss8l2om0ig4ueroen96nazd3m,UBNqDsU3,2020-0188,2020-05-21,12:28:13,12:53:47,NA,incomplete,70,color,1,left,Green_Circle_Dots_1.jpg,Green_Triangle_Grid_3.jpg,Purple_Circle_Chess_2.jpg,right,642.4849999967264,false,high,NA,NA,NA,NA,NA,NA,NA,false
UBNqDsU3,3axfspqoztbswwyvx39ztaxp9nrfjw,3y9n9ss8l2om0ig4ueroen96nazd3m,UBNqDsU3,2020-0188,2020-05-21,12:28:13,12:53:47,NA,incomplete,71,color,1,left,Blue_Circle_Grid_2.jpg,Blue_Star_Stripes_3.jpg,Red_Circle_Chess_4.jpg,right,373.1550000010757,false,high,NA,NA,NA,NA,NA,NA,NA,false
UBNqDsU3,3axfspqoztbswwyvx39ztaxp9nrfjw,3y9n9ss8l2om0ig4ueroen96nazd3m,UBNqDsU3,2020-0188,2020-05-21,12:28:13,12:53:47,NA,incomplete,72,color,1,left,Blue_Triangle_Grid_4.jpg,Blue_Circle_Dots_3.jpg,Red_Triangle_Stripes_2.jpg,left,402.9149999988731,true,high,NA,NA,NA,NA,NA,NA,NA,false
UBNqDsU3,3axfspqoztbswwyvx39ztaxp9nrfjw,3y9n9ss8l2om0ig4ueroen96nazd3m,UBNqDsU3,2020-0188,2020-05-21,12:28:13,12:53:47,NA,incomplete,73,color,0,left,Red_Triangle_Stripes_3.jpg,Red_Plus_Chess_1.jpg,Green_Triangle_Grid_4.jpg,left,129.19500000122935,true,high,NA,NA,NA,NA,NA,NA,NA,false
UBNqDsU3,3axfspqoztbswwyvx39ztaxp9nrfjw,3y9n9ss8l2om0ig4ueroen96nazd3m,UBNqDsU3,2020-0188,2020-05-21,12:28:13,12:53:47,NA,incomplete,74,color,1,left,Blue_Star_Chess_3.jpg,Blue_Plus_Grid_2.jpg,Red_Star_Stripes_1.jpg,left,186.32000000076368,true,high,NA,NA,NA,NA,NA,NA,NA,false
UBNqDsU3,3axfspqoztbswwyvx39ztaxp9nrfjw,3y9n9ss8l2om0ig4ueroen96nazd3m,UBNqDsU3,2020-0188,2020-05-21,12:28:13,12:53:47,NA,incomplete,75,color,1,left,Purple_Plus_Stripes_1.jpg,Purple_Circle_Chess_2.jpg,Green_Plus_Grid_4.jpg,left,209.78000000468455,true,high,NA,NA,NA,NA,NA,NA,NA,false
UBNqDsU3,3axfspqoztbswwyvx39ztaxp9nrfjw,3y9n9ss8l2om0ig4ueroen96nazd3m,UBNqDsU3,2020-0188,2020-05-21,12:28:13,12:53:47,NA,incomplete,76,color,1,right,Blue_Plus_Dots_3.jpg,Purple_Plus_Chess_2.jpg,Blue_Triangle_Grid_1.jpg,left,231.269999996759,false,high,NA,NA,NA,NA,NA,NA,NA,false
UBNqDsU3,3axfspqoztbswwyvx39ztaxp9nrfjw,3y9n9ss8l2om0ig4ueroen96nazd3m,UBNqDsU3,2020-0188,2020-05-21,12:28:13,12:53:47,NA,incomplete,77,color,1,right,Green_Triangle_Stripes_3.jpg,Purple_Triangle_Chess_4.jpg,Green_Plus_Grid_2.jpg,right,588.6450000035111,true,high,NA,NA,NA,NA,NA,NA,NA,false
UBNqDsU3,3axfspqoztbswwyvx39ztaxp9nrfjw,3y9n9ss8l2om0ig4ueroen96nazd3m,UBNqDsU3,2020-0188,2020-05-21,12:28:13,12:53:47,NA,incomplete,78,color,1,right,Red_Circle_Stripes_1.jpg,Blue_Circle_Chess_2.jpg,Red_Triangle_Dots_3.jpg,right,978.4500000022817,true,high,NA,NA,NA,NA,NA,NA,NA,false
UBNqDsU3,3axfspqoztbswwyvx39ztaxp9nrfjw,3y9n9ss8l2om0ig4ueroen96nazd3m,UBNqDsU3,2020-0188,2020-05-21,12:28:13,12:53:47,NA,incomplete,79,color,0,right,Blue_Circle_Stripes_1.jpg,Green_Circle_Grid_4.jpg,Blue_Triangle_Dots_2.jpg,left,710.2999999986496,false,high,NA,NA,NA,NA,NA,NA,NA,false
UBNqDsU3,3axfspqoztbswwyvx39ztaxp9nrfjw,3y9n9ss8l2om0ig4ueroen96nazd3m,UBNqDsU3,2020-0188,2020-05-21,12:28:13,12:53:47,NA,incomplete,80,shape,1,left,Red_Plus_Dots_4.jpg,Purple_Plus_Stripes_1.jpg,Red_Circle_Grid_2.jpg,left,918.1999999999534,true,high,NA,NA,NA,NA,NA,NA,NA,false
UBNqDsU3,3axfspqoztbswwyvx39ztaxp9nrfjw,3y9n9ss8l2om0ig4ueroen96nazd3m,UBNqDsU3,2020-0188,2020-05-21,12:28:13,12:53:47,NA,incomplete,81,shape,1,left,Blue_Star_Chess_2.jpg,Purple_Star_Dots_1.jpg,Blue_Plus_Grid_3.jpg,left,1198.7549999977928,true,high,NA,NA,NA,NA,NA,NA,NA,false
UBNqDsU3,3axfspqoztbswwyvx39ztaxp9nrfjw,3y9n9ss8l2om0ig4ueroen96nazd3m,UBNqDsU3,2020-0188,2020-05-21,12:28:13,12:53:47,NA,incomplete,82,shape,0,left,Green_Plus_Chess_1.jpg,Purple_Plus_Stripes_2.jpg,Green_Circle_Grid_4.jpg,right,1466.2450000031386,false,high,NA,NA,NA,NA,NA,NA,NA,false
UBNqDsU3,3axfspqoztbswwyvx39ztaxp9nrfjw,3y9n9ss8l2om0ig4ueroen96nazd3m,UBNqDsU3,2020-0188,2020-05-21,12:28:13,12:53:47,NA,incomplete,83,shape,1,left,Red_Circle_Dots_1.jpg,Blue_Circle_Stripes_4.jpg,Red_Star_Chess_2.jpg,left,1065.2199999969453,true,high,NA,NA,NA,NA,NA,NA,NA,false
UBNqDsU3,3axfspqoztbswwyvx39ztaxp9nrfjw,3y9n9ss8l2om0ig4ueroen96nazd3m,UBNqDsU3,2020-0188,2020-05-21,12:28:13,12:53:47,NA,incomplete,84,shape,1,left,Green_Triangle_Dots_4.jpg,Purple_Triangle_Grid_3.jpg,Green_Plus_Chess_1.jpg,left,1258.0799999996088,true,high,NA,NA,NA,NA,NA,NA,NA,false
UBNqDsU3,3axfspqoztbswwyvx39ztaxp9nrfjw,3y9n9ss8l2om0ig4ueroen96nazd3m,UBNqDsU3,2020-0188,2020-05-21,12:28:13,12:53:47,NA,incomplete,85,shape,1,left,Purple_Triangle_Grid_1.jpg,Green_Triangle_Chess_2.jpg,Purple_Star_Stripes_4.jpg,right,1250.7750000003725,false,high,NA,NA,NA,NA,NA,NA,NA,false
UBNqDsU3,3axfspqoztbswwyvx39ztaxp9nrfjw,3y9n9ss8l2om0ig4ueroen96nazd3m,UBNqDsU3,2020-0188,2020-05-21,12:28:13,12:53:47,NA,incomplete,86,shape,1,left,Blue_Star_Grid_2.jpg,Green_Star_Dots_1.jpg,Blue_Triangle_Chess_4.jpg,left,1147.1250000032596,true,high,NA,NA,NA,NA,NA,NA,NA,false
UBNqDsU3,3axfspqoztbswwyvx39ztaxp9nrfjw,3y9n9ss8l2om0ig4ueroen96nazd3m,UBNqDsU3,2020-0188,2020-05-21,12:28:13,12:53:47,NA,incomplete,87,shape,1,right,Blue_Circle_Grid_4.jpg,Blue_Triangle_Dots_2.jpg,Purple_Circle_Chess_3.jpg,left,953.5000000032596,false,high,NA,NA,NA,NA,NA,NA,NA,false
UBNqDsU3,3axfspqoztbswwyvx39ztaxp9nrfjw,3y9n9ss8l2om0ig4ueroen96nazd3m,UBNqDsU3,2020-0188,2020-05-21,12:28:13,12:53:47,NA,incomplete,88,shape,1,right,Green_Triangle_Dots_3.jpg,Green_Star_Stripes_2.jpg,Purple_Triangle_Chess_4.jpg,right,1167.864999995567,true,high,NA,NA,NA,NA,NA,NA,NA,false
UBNqDsU3,3axfspqoztbswwyvx39ztaxp9nrfjw,3y9n9ss8l2om0ig4ueroen96nazd3m,UBNqDsU3,2020-0188,2020-05-21,12:28:13,12:53:47,NA,incomplete,89,shape,1,left,Blue_Star_Chess_4.jpg,Green_Star_Grid_1.jpg,Blue_Circle_Stripes_3.jpg,left,1100.4749999991618,true,high,NA,NA,NA,NA,NA,NA,NA,false
UBNqDsU3,3axfspqoztbswwyvx39ztaxp9nrfjw,3y9n9ss8l2om0ig4ueroen96nazd3m,UBNqDsU3,2020-0188,2020-05-21,12:28:13,12:53:47,NA,incomplete,90,color,1,left,Purple_Star_Grid_3.jpg,Purple_Plus_Chess_2.jpg,Green_Star_Stripes_1.jpg,right,1018.465000001248,false,high,NA,NA,NA,NA,NA,NA,NA,false
UBNqDsU3,3axfspqoztbswwyvx39ztaxp9nrfjw,3y9n9ss8l2om0ig4ueroen96nazd3m,UBNqDsU3,2020-0188,2020-05-21,12:28:13,12:53:47,NA,incomplete,91,color,1,left,Red_Triangle_Chess_1.jpg,Red_Star_Dots_3.jpg,Blue_Triangle_Grid_4.jpg,left,1294.6300000038464,true,high,NA,NA,NA,NA,NA,NA,NA,false
UBNqDsU3,3axfspqoztbswwyvx39ztaxp9nrfjw,3y9n9ss8l2om0ig4ueroen96nazd3m,UBNqDsU3,2020-0188,2020-05-21,12:28:13,12:53:47,NA,incomplete,92,color,1,left,Blue_Plus_Stripes_2.jpg,Blue_Star_Grid_4.jpg,Green_Plus_Chess_3.jpg,left,901.8250000006519,true,high,NA,NA,NA,NA,NA,NA,NA,false
UBNqDsU3,3axfspqoztbswwyvx39ztaxp9nrfjw,3y9n9ss8l2om0ig4ueroen96nazd3m,UBNqDsU3,2020-0188,2020-05-21,12:28:13,12:53:47,NA,incomplete,93,color,1,right,Green_Star_Grid_1.jpg,Red_Star_Chess_3.jpg,Green_Plus_Stripes_2.jpg,left,1133.3000000014435,false,high,NA,NA,NA,NA,NA,NA,NA,false
UBNqDsU3,3axfspqoztbswwyvx39ztaxp9nrfjw,3y9n9ss8l2om0ig4ueroen96nazd3m,UBNqDsU3,2020-0188,2020-05-21,12:28:13,12:53:47,NA,incomplete,94,color,1,right,Green_Star_Stripes_3.jpg,Purple_Star_Chess_2.jpg,Green_Circle_Dots_1.jpg,right,1035.855000001844,true,high,NA,NA,NA,NA,NA,NA,NA,false
UBNqDsU3,3axfspqoztbswwyvx39ztaxp9nrfjw,3y9n9ss8l2om0ig4ueroen96nazd3m,UBNqDsU3,2020-0188,2020-05-21,12:28:13,12:53:47,NA,incomplete,95,color,1,left,Red_Plus_Chess_2.jpg,Red_Triangle_Grid_4.jpg,Purple_Plus_Dots_3.jpg,left,1374.0899999975227,true,high,NA,NA,NA,NA,NA,NA,NA,false
UBNqDsU3,3axfspqoztbswwyvx39ztaxp9nrfjw,3y9n9ss8l2om0ig4ueroen96nazd3m,UBNqDsU3,2020-0188,2020-05-21,12:28:13,12:53:47,NA,incomplete,96,color,1,left,Purple_Star_Stripes_1.jpg,Purple_Circle_Grid_3.jpg,Blue_Star_Dots_4.jpg,right,1409.9150000037625,false,high,NA,NA,NA,NA,NA,NA,NA,false
UBNqDsU3,3axfspqoztbswwyvx39ztaxp9nrfjw,3y9n9ss8l2om0ig4ueroen96nazd3m,UBNqDsU3,2020-0188,2020-05-21,12:28:13,12:53:47,NA,incomplete,97,color,1,left,Red_Circle_Stripes_3.jpg,Red_Plus_Grid_1.jpg,Green_Circle_Dots_4.jpg,left,1235.3900000015274,true,high,NA,NA,NA,NA,NA,NA,NA,false
UBNqDsU3,3axfspqoztbswwyvx39ztaxp9nrfjw,3y9n9ss8l2om0ig4ueroen96nazd3m,UBNqDsU3,2020-0188,2020-05-21,12:28:13,12:53:47,NA,incomplete,98,color,0,right,Green_Plus_Dots_1.jpg,Blue_Plus_Grid_2.jpg,Green_Circle_Chess_4.jpg,right,1116.9399999999441,true,high,NA,NA,NA,NA,NA,NA,NA,false
UBNqDsU3,3axfspqoztbswwyvx39ztaxp9nrfjw,3y9n9ss8l2om0ig4ueroen96nazd3m,UBNqDsU3,2020-0188,2020-05-21,12:28:13,12:53:47,NA,incomplete,99,color,0,left,Purple_Triangle_Grid_1.jpg,Purple_Plus_Stripes_2.jpg,Blue_Triangle_Chess_4.jpg,right,1484.3550000006799,false,high,NA,NA,NA,NA,NA,NA,NA,false
UBNqDsU3,3axfspqoztbswwyvx39ztaxp9nrfjw,3y9n9ss8l2om0ig4ueroen96nazd3m,UBNqDsU3,2020-0188,2020-05-21,12:28:13,12:53:47,NA,incomplete,100,shape,0,left,Purple_Star_Dots_3.jpg,Blue_Star_Stripes_4.jpg,Purple_Triangle_Chess_2.jpg,right,1370.155000003986,false,high,NA,NA,NA,NA,NA,NA,NA,false
UBNqDsU3,3axfspqoztbswwyvx39ztaxp9nrfjw,3y9n9ss8l2om0ig4ueroen96nazd3m,UBNqDsU3,2020-0188,2020-05-21,12:28:13,12:53:47,NA,incomplete,101,shape,1,right,Green_Star_Grid_4.jpg,Green_Plus_Stripes_1.jpg,Purple_Star_Chess_2.jpg,right,1229.800000000978,true,high,NA,NA,NA,NA,NA,NA,NA,false
UBNqDsU3,3axfspqoztbswwyvx39ztaxp9nrfjw,3y9n9ss8l2om0ig4ueroen96nazd3m,UBNqDsU3,2020-0188,2020-05-21,12:28:13,12:53:47,NA,incomplete,102,shape,1,right,Green_Star_Dots_1.jpg,Green_Plus_Stripes_3.jpg,Red_Star_Chess_4.jpg,right,1240.445000003092,true,high,NA,NA,NA,NA,NA,NA,NA,false
UBNqDsU3,3axfspqoztbswwyvx39ztaxp9nrfjw,3y9n9ss8l2om0ig4ueroen96nazd3m,UBNqDsU3,2020-0188,2020-05-21,12:28:13,12:53:47,NA,incomplete,103,shape,1,left,Purple_Star_Grid_1.jpg,Blue_Star_Stripes_4.jpg,Purple_Circle_Chess_3.jpg,left,1121.975000001723,true,high,NA,NA,NA,NA,NA,NA,NA,false
UBNqDsU3,3axfspqoztbswwyvx39ztaxp9nrfjw,3y9n9ss8l2om0ig4ueroen96nazd3m,UBNqDsU3,2020-0188,2020-05-21,12:28:13,12:53:47,NA,incomplete,104,shape,1,right,Red_Circle_Chess_2.jpg,Red_Star_Stripes_4.jpg,Blue_Circle_Grid_3.jpg,left,1217.0100000002421,false,high,NA,NA,NA,NA,NA,NA,NA,false
UBNqDsU3,3axfspqoztbswwyvx39ztaxp9nrfjw,3y9n9ss8l2om0ig4ueroen96nazd3m,UBNqDsU3,2020-0188,2020-05-21,12:28:13,12:53:47,NA,incomplete,105,shape,1,right,Red_Triangle_Dots_1.jpg,Red_Plus_Grid_2.jpg,Blue_Triangle_Chess_3.jpg,left,1211.019999995362,false,high,NA,NA,NA,NA,NA,NA,NA,false
UBNqDsU3,3axfspqoztbswwyvx39ztaxp9nrfjw,3y9n9ss8l2om0ig4ueroen96nazd3m,UBNqDsU3,2020-0188,2020-05-21,12:28:13,12:53:47,NA,incomplete,106,shape,1,right,Purple_Circle_Stripes_2.jpg,Purple_Star_Chess_4.jpg,Green_Circle_Grid_1.jpg,right,1156.62999999756,true,high,NA,NA,NA,NA,NA,NA,NA,false
UBNqDsU3,3axfspqoztbswwyvx39ztaxp9nrfjw,3y9n9ss8l2om0ig4ueroen96nazd3m,UBNqDsU3,2020-0188,2020-05-21,12:28:13,12:53:47,NA,incomplete,107,shape,1,left,Green_Plus_Chess_4.jpg,Purple_Plus_Stripes_2.jpg,Green_Circle_Grid_3.jpg,right,1088.6549999995623,false,high,NA,NA,NA,NA,NA,NA,NA,false
UBNqDsU3,3axfspqoztbswwyvx39ztaxp9nrfjw,3y9n9ss8l2om0ig4ueroen96nazd3m,UBNqDsU3,2020-0188,2020-05-21,12:28:13,12:53:47,NA,incomplete,108,shape,0,left,Green_Star_Stripes_3.jpg,Blue_Star_Grid_2.jpg,Green_Plus_Dots_1.jpg,none,0,false,high,NA,NA,NA,NA,NA,NA,NA,false
UBNqDsU3,3axfspqoztbswwyvx39ztaxp9nrfjw,3y9n9ss8l2om0ig4ueroen96nazd3m,UBNqDsU3,2020-0188,2020-05-21,12:28:13,12:53:47,NA,incomplete,109,shape,1,right,Red_Plus_Stripes_2.jpg,Red_Star_Chess_4.jpg,Blue_Plus_Grid_1.jpg,right,1086.3349999999627,true,high,NA,NA,NA,NA,NA,NA,NA,false
UBNqDsU3,3axfspqoztbswwyvx39ztaxp9nrfjw,3y9n9ss8l2om0ig4ueroen96nazd3m,UBNqDsU3,2020-0188,2020-05-21,12:28:13,12:53:47,NA,incomplete,110,color,1,left,Purple_Triangle_Dots_2.jpg,Purple_Plus_Grid_3.jpg,Green_Triangle_Stripes_1.jpg,right,1037.799999998184,false,high,NA,NA,NA,NA,NA,NA,NA,false
UBNqDsU3,3axfspqoztbswwyvx39ztaxp9nrfjw,3y9n9ss8l2om0ig4ueroen96nazd3m,UBNqDsU3,2020-0188,2020-05-21,12:28:13,12:53:47,NA,incomplete,111,color,1,left,Red_Plus_Grid_3.jpg,Red_Circle_Chess_4.jpg,Green_Plus_Dots_2.jpg,left,1008.1050000009127,true,high,NA,NA,NA,NA,NA,NA,NA,false
UBNqDsU3,3axfspqoztbswwyvx39ztaxp9nrfjw,3y9n9ss8l2om0ig4ueroen96nazd3m,UBNqDsU3,2020-0188,2020-05-21,12:28:13,12:53:47,NA,incomplete,112,color,1,right,Purple_Star_Chess_2.jpg,Green_Star_Grid_3.jpg,Purple_Plus_Stripes_1.jpg,left,1139.8599999956787,false,high,NA,NA,NA,NA,NA,NA,NA,false
UBNqDsU3,3axfspqoztbswwyvx39ztaxp9nrfjw,3y9n9ss8l2om0ig4ueroen96nazd3m,UBNqDsU3,2020-0188,2020-05-21,12:28:13,12:53:47,NA,incomplete,113,color,1,left,Green_Plus_Grid_4.jpg,Green_Circle_Chess_3.jpg,Blue_Plus_Dots_2.jpg,right,1199.4899999992922,false,high,NA,NA,NA,NA,NA,NA,NA,false
UBNqDsU3,3axfspqoztbswwyvx39ztaxp9nrfjw,3y9n9ss8l2om0ig4ueroen96nazd3m,UBNqDsU3,2020-0188,2020-05-21,12:28:13,12:53:47,NA,incomplete,114,color,1,right,Blue_Plus_Dots_3.jpg,Purple_Plus_Chess_2.jpg,Blue_Triangle_Stripes_1.jpg,right,1340.3499999984633,true,high,NA,NA,NA,NA,NA,NA,NA,false
UBNqDsU3,3axfspqoztbswwyvx39ztaxp9nrfjw,3y9n9ss8l2om0ig4ueroen96nazd3m,UBNqDsU3,2020-0188,2020-05-21,12:28:13,12:53:47,NA,incomplete,115,color,0,right,Green_Circle_Stripes_1.jpg,Purple_Circle_Chess_3.jpg,Green_Triangle_Dots_2.jpg,left,1152.2499999993015,false,high,NA,NA,NA,NA,NA,NA,NA,false
UBNqDsU3,3axfspqoztbswwyvx39ztaxp9nrfjw,3y9n9ss8l2om0ig4ueroen96nazd3m,UBNqDsU3,2020-0188,2020-05-21,12:28:13,12:53:47,NA,incomplete,116,color,1,right,Red_Star_Grid_1.jpg,Purple_Star_Chess_2.jpg,Red_Circle_Stripes_3.jpg,left,1139.2200000046287,false,high,NA,NA,NA,NA,NA,NA,NA,false
UBNqDsU3,3axfspqoztbswwyvx39ztaxp9nrfjw,3y9n9ss8l2om0ig4ueroen96nazd3m,UBNqDsU3,2020-0188,2020-05-21,12:28:13,12:53:47,NA,incomplete,117,color,0,right,Blue_Star_Stripes_2.jpg,Purple_Star_Grid_1.jpg,Blue_Circle_Dots_3.jpg,left,1131.6399999996647,false,high,NA,NA,NA,NA,NA,NA,NA,false
UBNqDsU3,3axfspqoztbswwyvx39ztaxp9nrfjw,3y9n9ss8l2om0ig4ueroen96nazd3m,UBNqDsU3,2020-0188,2020-05-21,12:28:13,12:53:47,NA,incomplete,118,color,1,right,Green_Star_Grid_4.jpg,Red_Star_Dots_3.jpg,Green_Plus_Stripes_1.jpg,right,1080.9200000001583,true,high,NA,NA,NA,NA,NA,NA,NA,false
UBNqDsU3,3axfspqoztbswwyvx39ztaxp9nrfjw,3y9n9ss8l2om0ig4ueroen96nazd3m,UBNqDsU3,2020-0188,2020-05-21,12:28:13,12:53:47,NA,incomplete,119,color,0,left,Green_Circle_Chess_3.jpg,Green_Plus_Dots_1.jpg,Purple_Circle_Stripes_2.jpg,left,1640.5000000011642,true,high,NA,NA,NA,NA,NA,NA,NA,false
UBNqDsU3,3axfspqoztbswwyvx39ztaxp9nrfjw,3y9n9ss8l2om0ig4ueroen96nazd3m,UBNqDsU3,2020-0188,2020-05-21,12:28:13,12:53:47,NA,incomplete,120,filling,1,left,Purple_Circle_Stripes_4.jpg,Red_Triangle_Stripes_1.jpg,Green_Plus_Chess_4.jpg,NA,NA,NA,high,NA,NA,NA,NA,NA,NA,NA,false
UBNqDsU3,3axfspqoztbswwyvx39ztaxp9nrfjw,3y9n9ss8l2om0ig4ueroen96nazd3m,UBNqDsU3,2020-0188,2020-05-21,12:28:13,12:53:47,NA,incomplete,121,filling,1,right,Red_Triangle_Stripes_2.jpg,Purple_Plus_Dots_2.jpg,Blue_Star_Stripes_3.jpg,left,735.9100000031758,false,high,NA,NA,NA,NA,NA,NA,NA,false
UBNqDsU3,3axfspqoztbswwyvx39ztaxp9nrfjw,3y9n9ss8l2om0ig4ueroen96nazd3m,UBNqDsU3,2020-0188,2020-05-21,12:28:13,12:53:47,NA,incomplete,122,filling,1,left,Blue_Triangle_Grid_2.jpg,Green_Star_Grid_3.jpg,Purple_Circle_Stripes_2.jpg,right,1200.0550000013318,false,high,NA,NA,NA,NA,NA,NA,NA,false
UBNqDsU3,3axfspqoztbswwyvx39ztaxp9nrfjw,3y9n9ss8l2om0ig4ueroen96nazd3m,UBNqDsU3,2020-0188,2020-05-21,12:28:13,12:53:47,NA,incomplete,123,filling,1,left,Red_Circle_Dots_1.jpg,Purple_Triangle_Dots_3.jpg,Blue_Plus_Chess_1.jpg,right,1050.4100000034086,false,high,NA,NA,NA,NA,NA,NA,NA,false
UBNqDsU3,3axfspqoztbswwyvx39ztaxp9nrfjw,3y9n9ss8l2om0ig4ueroen96nazd3m,UBNqDsU3,2020-0188,2020-05-21,12:28:13,12:53:47,NA,incomplete,124,filling,0,left,Green_Triangle_Grid_3.jpg,Red_Star_Grid_1.jpg,Blue_Circle_Stripes_3.jpg,left,444.0099999993108,true,high,NA,NA,NA,NA,NA,NA,NA,false
UBNqDsU3,3axfspqoztbswwyvx39ztaxp9nrfjw,3y9n9ss8l2om0ig4ueroen96nazd3m,UBNqDsU3,2020-0188,2020-05-21,12:28:13,12:53:47,NA,incomplete,125,filling,1,left,Blue_Star_Grid_1.jpg,Red_Circle_Grid_2.jpg,Purple_Plus_Chess_1.jpg,right,153.31999999750406,false,high,NA,NA,NA,NA,NA,NA,NA,false
UBNqDsU3,3axfspqoztbswwyvx39ztaxp9nrfjw,3y9n9ss8l2om0ig4ueroen96nazd3m,UBNqDsU3,2020-0188,2020-05-21,12:28:13,12:53:47,NA,incomplete,126,filling,1,right,Blue_Circle_Dots_2.jpg,Purple_Triangle_Grid_2.jpg,Green_Star_Dots_4.jpg,left,640.3999999966472,false,high,NA,NA,NA,NA,NA,NA,NA,false
UBNqDsU3,3axfspqoztbswwyvx39ztaxp9nrfjw,3y9n9ss8l2om0ig4ueroen96nazd3m,UBNqDsU3,2020-0188,2020-05-21,12:28:13,12:53:47,NA,incomplete,127,filling,0,right,Purple_Plus_Grid_2.jpg,Red_Star_Dots_2.jpg,Green_Circle_Grid_3.jpg,left,802.3149999936577,false,high,NA,NA,NA,NA,NA,NA,NA,false
UBNqDsU3,3axfspqoztbswwyvx39ztaxp9nrfjw,3y9n9ss8l2om0ig4ueroen96nazd3m,UBNqDsU3,2020-0188,2020-05-21,12:28:13,12:53:47,NA,incomplete,128,filling,1,left,Blue_Triangle_Dots_1.jpg,Green_Circle_Dots_3.jpg,Purple_Plus_Grid_1.jpg,right,1040.1100000017323,false,high,NA,NA,NA,NA,NA,NA,NA,false
UBNqDsU3,3axfspqoztbswwyvx39ztaxp9nrfjw,3y9n9ss8l2om0ig4ueroen96nazd3m,UBNqDsU3,2020-0188,2020-05-21,12:28:13,12:53:47,NA,incomplete,129,filling,1,left,Purple_Plus_Dots_1.jpg,Blue_Circle_Dots_4.jpg,Red_Triangle_Chess_1.jpg,right,1169.4550000028685,false,high,NA,NA,NA,NA,NA,NA,NA,false
UBNqDsU3,3axfspqoztbswwyvx39ztaxp9nrfjw,3y9n9ss8l2om0ig4ueroen96nazd3m,UBNqDsU3,2020-0188,2020-05-21,12:28:13,12:53:47,NA,incomplete,130,filling,0,left,Purple_Triangle_Chess_3.jpg,Blue_Plus_Chess_1.jpg,Green_Circle_Grid_3.jpg,left,943.2799999995623,true,high,NA,NA,NA,NA,NA,NA,NA,false
UBNqDsU3,3axfspqoztbswwyvx39ztaxp9nrfjw,3y9n9ss8l2om0ig4ueroen96nazd3m,UBNqDsU3,2020-0188,2020-05-21,12:28:13,12:53:47,NA,incomplete,131,filling,1,left,Red_Circle_Stripes_3.jpg,Green_Star_Stripes_2.jpg,Purple_Triangle_Grid_3.jpg,right,853.5049999989569,false,high,NA,NA,NA,NA,NA,NA,NA,false
UBNqDsU3,3axfspqoztbswwyvx39ztaxp9nrfjw,3y9n9ss8l2om0ig4ueroen96nazd3m,UBNqDsU3,2020-0188,2020-05-21,12:28:13,12:53:47,NA,incomplete,132,filling,1,right,Green_Star_Grid_3.jpg,Blue_Plus_Stripes_3.jpg,Purple_Triangle_Grid_1.jpg,right,127.41499999538064,true,high,NA,NA,NA,NA,NA,NA,NA,false
UBNqDsU3,3axfspqoztbswwyvx39ztaxp9nrfjw,3y9n9ss8l2om0ig4ueroen96nazd3m,UBNqDsU3,2020-0188,2020-05-21,12:28:13,12:53:47,NA,incomplete,133,filling,1,left,Green_Star_Stripes_2.jpg,Purple_Triangle_Stripes_4.jpg,Blue_Plus_Dots_2.jpg,left,216.980000004638,true,high,NA,NA,NA,NA,NA,NA,NA,false
UBNqDsU3,3axfspqoztbswwyvx39ztaxp9nrfjw,3y9n9ss8l2om0ig4ueroen96nazd3m,UBNqDsU3,2020-0188,2020-05-21,12:28:13,12:53:47,NA,incomplete,134,filling,1,right,Blue_Triangle_Grid_3.jpg,Green_Plus_Dots_3.jpg,Red_Star_Grid_4.jpg,right,46.78499999875203,true,high,NA,NA,NA,NA,NA,NA,NA,false
UBNqDsU3,3axfspqoztbswwyvx39ztaxp9nrfjw,3y9n9ss8l2om0ig4ueroen96nazd3m,UBNqDsU3,2020-0188,2020-05-21,12:28:13,12:53:47,NA,incomplete,135,filling,1,right,Purple_Star_Grid_1.jpg,Blue_Circle_Dots_1.jpg,Red_Plus_Grid_2.jpg,left,219.04499999806285,false,high,NA,NA,NA,NA,NA,NA,NA,false
UBNqDsU3,3axfspqoztbswwyvx39ztaxp9nrfjw,3y9n9ss8l2om0ig4ueroen96nazd3m,UBNqDsU3,2020-0188,2020-05-21,12:28:13,12:53:47,NA,incomplete,136,filling,0,right,Blue_Star_Grid_2.jpg,Purple_Plus_Dots_2.jpg,Red_Triangle_Grid_4.jpg,left,81.98000000277534,false,high,NA,NA,NA,NA,NA,NA,NA,false
UBNqDsU3,3axfspqoztbswwyvx39ztaxp9nrfjw,3y9n9ss8l2om0ig4ueroen96nazd3m,UBNqDsU3,2020-0188,2020-05-21,12:28:13,12:53:47,NA,incomplete,137,filling,1,right,Blue_Triangle_Dots_1.jpg,Purple_Circle_Stripes_1.jpg,Red_Plus_Dots_4.jpg,right,237.4900000069756,true,high,NA,NA,NA,NA,NA,NA,NA,false
UBNqDsU3,3axfspqoztbswwyvx39ztaxp9nrfjw,3y9n9ss8l2om0ig4ueroen96nazd3m,UBNqDsU3,2020-0188,2020-05-21,12:28:13,12:53:47,NA,incomplete,138,filling,1,left,Red_Star_Grid_4.jpg,Green_Triangle_Grid_3.jpg,Blue_Circle_Stripes_4.jpg,left,209.97499999799766,true,high,NA,NA,NA,NA,NA,NA,NA,false
UBNqDsU3,3axfspqoztbswwyvx39ztaxp9nrfjw,3y9n9ss8l2om0ig4ueroen96nazd3m,UBNqDsU3,2020-0188,2020-05-21,12:28:13,12:53:47,NA,incomplete,139,filling,1,left,Red_Star_Stripes_3.jpg,Purple_Circle_Stripes_2.jpg,Blue_Triangle_Grid_3.jpg,left,87.1899999983143,true,high,NA,NA,NA,NA,NA,NA,NA,false
UBNqDsU3,3axfspqoztbswwyvx39ztaxp9nrfjw,3y9n9ss8l2om0ig4ueroen96nazd3m,UBNqDsU3,2020-0188,2020-05-21,12:28:13,12:53:47,NA,incomplete,140,number,0,left,Blue_Triangle_Chess_4.jpg,Red_Circle_Dots_4.jpg,Purple_Star_Chess_2.jpg,right,20.375,false,high,NA,NA,NA,NA,NA,NA,NA,false
UBNqDsU3,3axfspqoztbswwyvx39ztaxp9nrfjw,3y9n9ss8l2om0ig4ueroen96nazd3m,UBNqDsU3,2020-0188,2020-05-21,12:28:13,12:53:47,NA,incomplete,141,number,1,right,Green_Circle_Grid_1.jpg,Blue_Triangle_Grid_2.jpg,Purple_Star_Dots_1.jpg,right,161.83499999903142,true,high,NA,NA,NA,NA,NA,NA,NA,false
UBNqDsU3,3axfspqoztbswwyvx39ztaxp9nrfjw,3y9n9ss8l2om0ig4ueroen96nazd3m,UBNqDsU3,2020-0188,2020-05-21,12:28:13,12:53:47,NA,incomplete,142,number,1,right,Red_Star_Chess_2.jpg,Purple_Plus_Chess_4.jpg,Blue_Circle_Dots_2.jpg,right,90.34999999846332,true,high,NA,NA,NA,NA,NA,NA,NA,false
UBNqDsU3,3axfspqoztbswwyvx39ztaxp9nrfjw,3y9n9ss8l2om0ig4ueroen96nazd3m,UBNqDsU3,2020-0188,2020-05-21,12:28:13,12:53:47,NA,incomplete,143,number,0,left,Purple_Circle_Grid_1.jpg,Green_Triangle_Chess_1.jpg,Blue_Star_Grid_2.jpg,right,198.2549999956973,false,high,NA,NA,NA,NA,NA,NA,NA,false
UBNqDsU3,3axfspqoztbswwyvx39ztaxp9nrfjw,3y9n9ss8l2om0ig4ueroen96nazd3m,UBNqDsU3,2020-0188,2020-05-21,12:28:13,12:53:47,NA,incomplete,144,number,1,right,Red_Circle_Chess_3.jpg,Green_Star_Chess_4.jpg,Blue_Plus_Dots_3.jpg,right,10.904999995604157,true,high,NA,NA,NA,NA,NA,NA,NA,false
UBNqDsU3,3axfspqoztbswwyvx39ztaxp9nrfjw,3y9n9ss8l2om0ig4ueroen96nazd3m,UBNqDsU3,2020-0188,2020-05-21,12:28:13,12:53:47,NA,incomplete,145,number,1,right,Blue_Circle_Grid_2.jpg,Red_Plus_Grid_3.jpg,Purple_Triangle_Chess_2.jpg,left,10.044999995268881,false,high,NA,NA,NA,NA,NA,NA,NA,false
UBNqDsU3,3axfspqoztbswwyvx39ztaxp9nrfjw,3y9n9ss8l2om0ig4ueroen96nazd3m,UBNqDsU3,2020-0188,2020-05-21,12:28:13,12:53:47,NA,incomplete,146,number,1,right,Red_Star_Grid_2.jpg,Green_Plus_Grid_1.jpg,Purple_Circle_Chess_2.jpg,left,9.51500000525266,false,high,NA,NA,NA,NA,NA,NA,NA,false
UBNqDsU3,3axfspqoztbswwyvx39ztaxp9nrfjw,3y9n9ss8l2om0ig4ueroen96nazd3m,UBNqDsU3,2020-0188,2020-05-21,12:28:13,12:53:47,NA,incomplete,147,number,1,right,Purple_Triangle_Grid_1.jpg,Blue_Star_Grid_3.jpg,Red_Plus_Dots_1.jpg,left,567.0200000023469,false,high,NA,NA,NA,NA,NA,NA,NA,false
UBNqDsU3,3axfspqoztbswwyvx39ztaxp9nrfjw,3y9n9ss8l2om0ig4ueroen96nazd3m,UBNqDsU3,2020-0188,2020-05-21,12:28:13,12:53:47,NA,incomplete,148,number,1,right,Blue_Circle_Chess_3.jpg,Red_Plus_Chess_4.jpg,Green_Star_Grid_3.jpg,left,125.69499999517575,false,high,NA,NA,NA,NA,NA,NA,NA,false
UBNqDsU3,3axfspqoztbswwyvx39ztaxp9nrfjw,3y9n9ss8l2om0ig4ueroen96nazd3m,UBNqDsU3,2020-0188,2020-05-21,12:28:13,12:53:47,NA,incomplete,149,number,1,right,Green_Star_Grid_4.jpg,Purple_Circle_Grid_1.jpg,Blue_Triangle_Chess_4.jpg,left,7.914999994682148,false,high,NA,NA,NA,NA,NA,NA,NA,false
UBNqDsU3,3axfspqoztbswwyvx39ztaxp9nrfjw,3y9n9ss8l2om0ig4ueroen96nazd3m,UBNqDsU3,2020-0188,2020-05-21,12:28:13,12:53:47,NA,incomplete,150,number,0,right,Purple_Triangle_Stripes_4.jpg,Blue_Circle_Stripes_3.jpg,Green_Star_Chess_4.jpg,left,8.045000002486631,false,high,NA,NA,NA,NA,NA,NA,NA,false
UBNqDsU3,3axfspqoztbswwyvx39ztaxp9nrfjw,3y9n9ss8l2om0ig4ueroen96nazd3m,UBNqDsU3,2020-0188,2020-05-21,12:28:13,12:53:47,NA,incomplete,151,number,1,right,Blue_Star_Stripes_4.jpg,Red_Triangle_Stripes_3.jpg,Green_Circle_Chess_4.jpg,right,5.1299999977927655,true,high,NA,NA,NA,NA,NA,NA,NA,false
UBNqDsU3,3axfspqoztbswwyvx39ztaxp9nrfjw,3y9n9ss8l2om0ig4ueroen96nazd3m,UBNqDsU3,2020-0188,2020-05-21,12:28:13,12:53:47,NA,incomplete,152,number,1,left,Blue_Circle_Grid_2.jpg,Purple_Triangle_Chess_2.jpg,Red_Plus_Grid_3.jpg,right,36.95999999763444,false,high,NA,NA,NA,NA,NA,NA,NA,false
UBNqDsU3,3axfspqoztbswwyvx39ztaxp9nrfjw,3y9n9ss8l2om0ig4ueroen96nazd3m,UBNqDsU3,2020-0188,2020-05-21,12:28:13,12:53:47,NA,incomplete,153,number,1,left,Green_Triangle_Dots_1.jpg,Blue_Plus_Chess_1.jpg,Red_Star_Dots_3.jpg,right,4.200000002980232,false,high,NA,NA,NA,NA,NA,NA,NA,false
UBNqDsU3,3axfspqoztbswwyvx39ztaxp9nrfjw,3y9n9ss8l2om0ig4ueroen96nazd3m,UBNqDsU3,2020-0188,2020-05-21,12:28:13,12:53:47,NA,incomplete,154,number,0,left,Red_Triangle_Grid_2.jpg,Green_Circle_Chess_2.jpg,Blue_Star_Grid_3.jpg,left,560.2650000001304,true,high,NA,NA,NA,NA,NA,NA,NA,false
UBNqDsU3,3axfspqoztbswwyvx39ztaxp9nrfjw,3y9n9ss8l2om0ig4ueroen96nazd3m,UBNqDsU3,2020-0188,2020-05-21,12:28:13,12:53:47,NA,incomplete,155,number,1,right,Blue_Star_Dots_1.jpg,Red_Triangle_Dots_2.jpg,Green_Plus_Chess_1.jpg,left,101.94000000040978,false,high,NA,NA,NA,NA,NA,NA,NA,false
UBNqDsU3,3axfspqoztbswwyvx39ztaxp9nrfjw,3y9n9ss8l2om0ig4ueroen96nazd3m,UBNqDsU3,2020-0188,2020-05-21,12:28:13,12:53:47,NA,incomplete,156,number,1,left,Red_Triangle_Grid_4.jpg,Green_Star_Chess_4.jpg,Blue_Circle_Grid_1.jpg,right,81.3200000047218,false,high,NA,NA,NA,NA,NA,NA,NA,false
UBNqDsU3,3axfspqoztbswwyvx39ztaxp9nrfjw,3y9n9ss8l2om0ig4ueroen96nazd3m,UBNqDsU3,2020-0188,2020-05-21,12:28:13,12:53:47,NA,incomplete,157,number,1,right,Blue_Triangle_Chess_4.jpg,Green_Plus_Chess_1.jpg,Purple_Circle_Grid_4.jpg,left,157.78499999572523,false,high,NA,NA,NA,NA,NA,NA,NA,false
UBNqDsU3,3axfspqoztbswwyvx39ztaxp9nrfjw,3y9n9ss8l2om0ig4ueroen96nazd3m,UBNqDsU3,2020-0188,2020-05-21,12:28:13,12:53:47,NA,incomplete,158,number,0,right,Green_Circle_Stripes_2.jpg,Red_Star_Stripes_4.jpg,Blue_Triangle_Grid_2.jpg,left,4.479999996023253,false,high,NA,NA,NA,NA,NA,NA,NA,false
UBNqDsU3,3axfspqoztbswwyvx39ztaxp9nrfjw,3y9n9ss8l2om0ig4ueroen96nazd3m,UBNqDsU3,2020-0188,2020-05-21,12:28:13,12:53:47,NA,incomplete,159,number,1,right,Green_Circle_Chess_1.jpg,Purple_Star_Chess_2.jpg,Blue_Plus_Stripes_1.jpg,left,84.14000000618398,false,high,NA,NA,NA,NA,NA,NA,NA,false
UBNqDsU3,3axfspqoztbswwyvx39ztaxp9nrfjw,3y9n9ss8l2om0ig4ueroen96nazd3m,UBNqDsU3,2020-0188,2020-05-21,12:28:13,12:53:47,NA,incomplete,160,filling,1,right,Green_Plus_Grid_1.jpg,Red_Triangle_Dots_1.jpg,Blue_Star_Grid_4.jpg,left,95.6000000005588,false,high,NA,NA,NA,NA,NA,NA,NA,false
UBNqDsU3,3axfspqoztbswwyvx39ztaxp9nrfjw,3y9n9ss8l2om0ig4ueroen96nazd3m,UBNqDsU3,2020-0188,2020-05-21,12:28:13,12:53:47,NA,incomplete,161,filling,1,left,Red_Triangle_Grid_4.jpg,Green_Plus_Grid_3.jpg,Purple_Star_Dots_4.jpg,right,186.64000000013039,false,high,NA,NA,NA,NA,NA,NA,NA,false
UBNqDsU3,3axfspqoztbswwyvx39ztaxp9nrfjw,3y9n9ss8l2om0ig4ueroen96nazd3m,UBNqDsU3,2020-0188,2020-05-21,12:28:13,12:53:47,NA,incomplete,162,filling,1,right,Red_Star_Grid_2.jpg,Blue_Plus_Chess_2.jpg,Green_Circle_Grid_3.jpg,left,32.58500000089407,false,high,NA,NA,NA,NA,NA,NA,NA,false
UBNqDsU3,3axfspqoztbswwyvx39ztaxp9nrfjw,3y9n9ss8l2om0ig4ueroen96nazd3m,UBNqDsU3,2020-0188,2020-05-21,12:28:13,12:53:47,NA,incomplete,163,filling,0,right,Red_Triangle_Grid_4.jpg,Purple_Plus_Chess_4.jpg,Blue_Circle_Grid_3.jpg,right,47.070000000530854,true,high,NA,NA,NA,NA,NA,NA,NA,false
UBNqDsU3,3axfspqoztbswwyvx39ztaxp9nrfjw,3y9n9ss8l2om0ig4ueroen96nazd3m,UBNqDsU3,2020-0188,2020-05-21,12:28:13,12:53:47,NA,incomplete,164,filling,1,left,Blue_Star_Grid_1.jpg,Green_Triangle_Grid_4.jpg,Purple_Circle_Stripes_1.jpg,left,189.2050000024028,true,high,NA,NA,NA,NA,NA,NA,NA,false
UBNqDsU3,3axfspqoztbswwyvx39ztaxp9nrfjw,3y9n9ss8l2om0ig4ueroen96nazd3m,UBNqDsU3,2020-0188,2020-05-21,12:28:13,12:53:47,NA,incomplete,165,filling,1,right,Blue_Circle_Stripes_3.jpg,Red_Star_Dots_3.jpg,Green_Triangle_Stripes_2.jpg,right,243.10500000137836,true,high,NA,NA,NA,NA,NA,NA,NA,false
UBNqDsU3,3axfspqoztbswwyvx39ztaxp9nrfjw,3y9n9ss8l2om0ig4ueroen96nazd3m,UBNqDsU3,2020-0188,2020-05-21,12:28:13,12:53:47,NA,incomplete,166,filling,1,left,Blue_Star_Dots_4.jpg,Green_Plus_Dots_1.jpg,Purple_Circle_Grid_4.jpg,left,150.36500000138767,true,high,NA,NA,NA,NA,NA,NA,NA,false
UBNqDsU3,3axfspqoztbswwyvx39ztaxp9nrfjw,3y9n9ss8l2om0ig4ueroen96nazd3m,UBNqDsU3,2020-0188,2020-05-21,12:28:13,12:53:47,NA,incomplete,167,filling,1,right,Green_Triangle_Stripes_1.jpg,Blue_Star_Grid_1.jpg,Red_Plus_Stripes_3.jpg,right,111.77499999757856,true,high,NA,NA,NA,NA,NA,NA,NA,false
UBNqDsU3,3axfspqoztbswwyvx39ztaxp9nrfjw,3y9n9ss8l2om0ig4ueroen96nazd3m,UBNqDsU3,2020-0188,2020-05-21,12:28:13,12:53:47,NA,incomplete,168,filling,1,left,Purple_Star_Grid_3.jpg,Red_Triangle_Grid_4.jpg,Green_Circle_Stripes_3.jpg,left,74.52999999793246,true,high,NA,NA,NA,NA,NA,NA,NA,false
UBNqDsU3,3axfspqoztbswwyvx39ztaxp9nrfjw,3y9n9ss8l2om0ig4ueroen96nazd3m,UBNqDsU3,2020-0188,2020-05-21,12:28:13,12:53:47,NA,incomplete,169,filling,1,right,Blue_Circle_Stripes_4.jpg,Red_Plus_Grid_4.jpg,Purple_Triangle_Stripes_3.jpg,right,86.2699999997858,true,high,NA,NA,NA,NA,NA,NA,NA,false
UBNqDsU3,3axfspqoztbswwyvx39ztaxp9nrfjw,3y9n9ss8l2om0ig4ueroen96nazd3m,UBNqDsU3,2020-0188,2020-05-21,12:28:13,12:53:47,NA,incomplete,170,filling,1,right,Purple_Plus_Grid_2.jpg,Red_Star_Chess_2.jpg,Blue_Triangle_Grid_4.jpg,left,113.63500000163913,false,high,NA,NA,NA,NA,NA,NA,NA,false
UBNqDsU3,3axfspqoztbswwyvx39ztaxp9nrfjw,3y9n9ss8l2om0ig4ueroen96nazd3m,UBNqDsU3,2020-0188,2020-05-21,12:28:13,12:53:47,NA,incomplete,171,filling,1,right,Green_Circle_Chess_3.jpg,Red_Star_Grid_3.jpg,Purple_Triangle_Chess_1.jpg,left,44.64999999618158,false,high,NA,NA,NA,NA,NA,NA,NA,false
UBNqDsU3,3axfspqoztbswwyvx39ztaxp9nrfjw,3y9n9ss8l2om0ig4ueroen96nazd3m,UBNqDsU3,2020-0188,2020-05-21,12:28:13,12:53:47,NA,incomplete,172,filling,1,left,Blue_Star_Dots_3.jpg,Green_Triangle_Dots_4.jpg,Red_Plus_Stripes_3.jpg,left,105.03500000061467,true,high,NA,NA,NA,NA,NA,NA,NA,false
UBNqDsU3,3axfspqoztbswwyvx39ztaxp9nrfjw,3y9n9ss8l2om0ig4ueroen96nazd3m,UBNqDsU3,2020-0188,2020-05-21,12:28:13,12:53:47,NA,incomplete,173,filling,1,right,Blue_Star_Chess_4.jpg,Purple_Plus_Stripes_4.jpg,Green_Triangle_Chess_1.jpg,right,84.18999999435619,true,high,NA,NA,NA,NA,NA,NA,NA,false
UBNqDsU3,3axfspqoztbswwyvx39ztaxp9nrfjw,3y9n9ss8l2om0ig4ueroen96nazd3m,UBNqDsU3,2020-0188,2020-05-21,12:28:13,12:53:47,NA,incomplete,174,filling,1,left,Blue_Star_Stripes_3.jpg,Green_Circle_Stripes_4.jpg,Purple_Plus_Chess_3.jpg,left,110.25499999965541,true,high,NA,NA,NA,NA,NA,NA,NA,false
UBNqDsU3,3axfspqoztbswwyvx39ztaxp9nrfjw,3y9n9ss8l2om0ig4ueroen96nazd3m,UBNqDsU3,2020-0188,2020-05-21,12:28:13,12:53:47,NA,incomplete,175,filling,0,right,Blue_Plus_Chess_2.jpg,Red_Circle_Dots_2.jpg,Green_Star_Chess_3.jpg,right,89.61499999696389,true,high,NA,NA,NA,NA,NA,NA,NA,false
UBNqDsU3,3axfspqoztbswwyvx39ztaxp9nrfjw,3y9n9ss8l2om0ig4ueroen96nazd3m,UBNqDsU3,2020-0188,2020-05-21,12:28:13,12:53:47,NA,incomplete,176,filling,1,right,Red_Star_Stripes_1.jpg,Purple_Triangle_Chess_1.jpg,Green_Plus_Stripes_2.jpg,right,644.5949999978766,true,high,NA,NA,NA,NA,NA,NA,NA,false
UBNqDsU3,3axfspqoztbswwyvx39ztaxp9nrfjw,3y9n9ss8l2om0ig4ueroen96nazd3m,UBNqDsU3,2020-0188,2020-05-21,12:28:13,12:53:47,NA,incomplete,177,filling,0,left,Blue_Star_Grid_1.jpg,Purple_Circle_Grid_3.jpg,Green_Plus_Dots_1.jpg,left,55.84499999531545,true,high,NA,NA,NA,NA,NA,NA,NA,false
UBNqDsU3,3axfspqoztbswwyvx39ztaxp9nrfjw,3y9n9ss8l2om0ig4ueroen96nazd3m,UBNqDsU3,2020-0188,2020-05-21,12:28:13,12:53:47,NA,incomplete,178,filling,1,left,Blue_Plus_Grid_1.jpg,Green_Circle_Grid_4.jpg,Purple_Triangle_Stripes_1.jpg,left,21.339999999385327,true,high,NA,NA,NA,NA,NA,NA,NA,false
UBNqDsU3,3axfspqoztbswwyvx39ztaxp9nrfjw,3y9n9ss8l2om0ig4ueroen96nazd3m,UBNqDsU3,2020-0188,2020-05-21,12:28:13,12:53:47,NA,incomplete,179,filling,1,right,Green_Triangle_Dots_1.jpg,Red_Plus_Chess_1.jpg,Purple_Circle_Dots_4.jpg,right,66.17000000551343,true,high,NA,NA,NA,NA,NA,NA,NA,false
UBNqDsU3,3axfspqoztbswwyvx39ztaxp9nrfjw,3y9n9ss8l2om0ig4ueroen96nazd3m,UBNqDsU3,2020-0188,2020-05-21,12:28:13,12:53:47,NA,incomplete,180,number,1,right,Red_Triangle_Dots_2.jpg,Green_Circle_Dots_4.jpg,Purple_Star_Grid_2.jpg,right,126.51999999792315,true,high,NA,NA,NA,NA,NA,NA,NA,false
UBNqDsU3,3axfspqoztbswwyvx39ztaxp9nrfjw,3y9n9ss8l2om0ig4ueroen96nazd3m,UBNqDsU3,2020-0188,2020-05-21,12:28:13,12:53:47,NA,incomplete,181,number,1,right,Blue_Triangle_Stripes_2.jpg,Purple_Plus_Stripes_4.jpg,Red_Circle_Grid_2.jpg,left,56.635000000940636,false,high,NA,NA,NA,NA,NA,NA,NA,false
UBNqDsU3,3axfspqoztbswwyvx39ztaxp9nrfjw,3y9n9ss8l2om0ig4ueroen96nazd3m,UBNqDsU3,2020-0188,2020-05-21,12:28:13,12:53:47,NA,incomplete,182,number,1,left,Purple_Triangle_Dots_2.jpg,Red_Circle_Grid_2.jpg,Green_Star_Dots_4.jpg,right,676.4449999972712,false,high,NA,NA,NA,NA,NA,NA,NA,false
UBNqDsU3,3axfspqoztbswwyvx39ztaxp9nrfjw,3y9n9ss8l2om0ig4ueroen96nazd3m,UBNqDsU3,2020-0188,2020-05-21,12:28:13,12:53:47,NA,incomplete,183,number,0,left,Red_Triangle_Chess_2.jpg,Green_Circle_Dots_2.jpg,Blue_Plus_Chess_3.jpg,right,470.91500000539236,false,high,NA,NA,NA,NA,NA,NA,NA,false
UBNqDsU3,3axfspqoztbswwyvx39ztaxp9nrfjw,3y9n9ss8l2om0ig4ueroen96nazd3m,UBNqDsU3,2020-0188,2020-05-21,12:28:13,12:53:47,NA,incomplete,184,number,1,left,Blue_Star_Stripes_3.jpg,Red_Plus_Grid_3.jpg,Purple_Triangle_Stripes_2.jpg,right,81.15499999979511,false,high,NA,NA,NA,NA,NA,NA,NA,false
UBNqDsU3,3axfspqoztbswwyvx39ztaxp9nrfjw,3y9n9ss8l2om0ig4ueroen96nazd3m,UBNqDsU3,2020-0188,2020-05-21,12:28:13,12:53:47,NA,incomplete,185,number,1,right,Purple_Triangle_Dots_4.jpg,Red_Star_Dots_3.jpg,Blue_Plus_Stripes_4.jpg,left,108.63000000268221,false,high,NA,NA,NA,NA,NA,NA,NA,false
UBNqDsU3,3axfspqoztbswwyvx39ztaxp9nrfjw,3y9n9ss8l2om0ig4ueroen96nazd3m,UBNqDsU3,2020-0188,2020-05-21,12:28:13,12:53:47,NA,incomplete,186,number,0,left,Blue_Triangle_Dots_1.jpg,Green_Star_Stripes_1.jpg,Red_Plus_Dots_4.jpg,right,855.4599999990314,false,high,NA,NA,NA,NA,NA,NA,NA,false
UBNqDsU3,3axfspqoztbswwyvx39ztaxp9nrfjw,3y9n9ss8l2om0ig4ueroen96nazd3m,UBNqDsU3,2020-0188,2020-05-21,12:28:13,12:53:47,NA,incomplete,187,number,1,right,Purple_Circle_Grid_1.jpg,Green_Star_Grid_3.jpg,Red_Plus_Stripes_1.jpg,right,48.83499999414198,true,high,NA,NA,NA,NA,NA,NA,NA,false
UBNqDsU3,3axfspqoztbswwyvx39ztaxp9nrfjw,3y9n9ss8l2om0ig4ueroen96nazd3m,UBNqDsU3,2020-0188,2020-05-21,12:28:13,12:53:47,NA,incomplete,188,number,1,right,Green_Circle_Grid_1.jpg,Blue_Plus_Grid_3.jpg,Purple_Star_Dots_1.jpg,right,29.11499999742955,true,high,NA,NA,NA,NA,NA,NA,NA,false
UBNqDsU3,3axfspqoztbswwyvx39ztaxp9nrfjw,3y9n9ss8l2om0ig4ueroen96nazd3m,UBNqDsU3,2020-0188,2020-05-21,12:28:13,12:53:47,NA,incomplete,189,number,1,left,Red_Circle_Dots_2.jpg,Blue_Star_Chess_2.jpg,Purple_Triangle_Dots_3.jpg,right,43.9799999948591,false,high,NA,NA,NA,NA,NA,NA,NA,false
UBNqDsU3,3axfspqoztbswwyvx39ztaxp9nrfjw,3y9n9ss8l2om0ig4ueroen96nazd3m,UBNqDsU3,2020-0188,2020-05-21,12:28:13,12:53:47,NA,incomplete,190,number,1,left,Purple_Star_Stripes_2.jpg,Red_Plus_Dots_2.jpg,Green_Triangle_Stripes_1.jpg,right,57.83499999972992,false,high,NA,NA,NA,NA,NA,NA,NA,false
UBNqDsU3,3axfspqoztbswwyvx39ztaxp9nrfjw,3y9n9ss8l2om0ig4ueroen96nazd3m,UBNqDsU3,2020-0188,2020-05-21,12:28:13,12:53:47,NA,incomplete,191,number,0,left,Purple_Plus_Stripes_1.jpg,Blue_Circle_Grid_1.jpg,Green_Star_Stripes_2.jpg,right,596.9550000010058,false,high,NA,NA,NA,NA,NA,NA,NA,false
UBNqDsU3,3axfspqoztbswwyvx39ztaxp9nrfjw,3y9n9ss8l2om0ig4ueroen96nazd3m,UBNqDsU3,2020-0188,2020-05-21,12:28:13,12:53:47,NA,incomplete,192,number,1,left,Blue_Circle_Dots_2.jpg,Green_Star_Stripes_2.jpg,Purple_Plus_Dots_3.jpg,right,11.344999999040738,false,high,NA,NA,NA,NA,NA,NA,NA,false
UBNqDsU3,3axfspqoztbswwyvx39ztaxp9nrfjw,3y9n9ss8l2om0ig4ueroen96nazd3m,UBNqDsU3,2020-0188,2020-05-21,12:28:13,12:53:47,NA,incomplete,193,number,1,left,Blue_Star_Stripes_1.jpg,Red_Plus_Dots_1.jpg,Green_Circle_Stripes_4.jpg,right,9.935000001918525,false,high,NA,NA,NA,NA,NA,NA,NA,false
UBNqDsU3,3axfspqoztbswwyvx39ztaxp9nrfjw,3y9n9ss8l2om0ig4ueroen96nazd3m,UBNqDsU3,2020-0188,2020-05-21,12:28:13,12:53:47,NA,incomplete,194,number,1,right,Red_Triangle_Grid_3.jpg,Green_Circle_Grid_2.jpg,Purple_Plus_Stripes_3.jpg,right,217.35500000067987,true,high,NA,NA,NA,NA,NA,NA,NA,false
UBNqDsU3,3axfspqoztbswwyvx39ztaxp9nrfjw,3y9n9ss8l2om0ig4ueroen96nazd3m,UBNqDsU3,2020-0188,2020-05-21,12:28:13,12:53:47,NA,incomplete,195,number,1,right,Green_Star_Dots_1.jpg,Purple_Triangle_Dots_2.jpg,Blue_Plus_Stripes_1.jpg,right,62.919999996665865,true,high,NA,NA,NA,NA,NA,NA,NA,false
UBNqDsU3,3axfspqoztbswwyvx39ztaxp9nrfjw,3y9n9ss8l2om0ig4ueroen96nazd3m,UBNqDsU3,2020-0188,2020-05-21,12:28:13,12:53:47,NA,incomplete,196,number,1,left,Purple_Plus_Grid_3.jpg,Blue_Star_Dots_3.jpg,Red_Circle_Grid_1.jpg,right,44.28500000340864,false,high,NA,NA,NA,NA,NA,NA,NA,false
UBNqDsU3,3axfspqoztbswwyvx39ztaxp9nrfjw,3y9n9ss8l2om0ig4ueroen96nazd3m,UBNqDsU3,2020-0188,2020-05-21,12:28:13,12:53:47,NA,incomplete,197,number,0,left,Red_Star_Grid_1.jpg,Blue_Triangle_Stripes_1.jpg,Purple_Circle_Grid_4.jpg,right,56.84499999927357,false,high,NA,NA,NA,NA,NA,NA,NA,false
UBNqDsU3,3axfspqoztbswwyvx39ztaxp9nrfjw,3y9n9ss8l2om0ig4ueroen96nazd3m,UBNqDsU3,2020-0188,2020-05-21,12:28:13,12:53:47,NA,incomplete,198,number,1,right,Purple_Circle_Chess_3.jpg,Red_Triangle_Chess_2.jpg,Green_Star_Grid_3.jpg,right,21.904999994207174,true,high,NA,NA,NA,NA,NA,NA,NA,false
UBNqDsU3,3axfspqoztbswwyvx39ztaxp9nrfjw,3y9n9ss8l2om0ig4ueroen96nazd3m,UBNqDsU3,2020-0188,2020-05-21,12:28:13,12:53:47,NA,incomplete,199,number,1,right,Green_Triangle_Grid_1.jpg,Red_Plus_Grid_3.jpg,Purple_Star_Chess_1.jpg,right,35.365000003250316,true,high,NA,NA,NA,NA,NA,NA,NA,false
UBNqDsU3,3axfspqoztbswwyvx39ztaxp9nrfjw,3y9n9ss8l2om0ig4ueroen96nazd3m,UBNqDsU3,2020-0188,2020-05-21,12:28:13,12:53:47,NA,incomplete,200,filling,1,right,Green_Star_Grid_3.jpg,Red_Circle_Chess_3.jpg,Blue_Plus_Grid_1.jpg,right,48.389999996405095,true,high,NA,NA,NA,NA,NA,NA,NA,false
UBNqDsU3,3axfspqoztbswwyvx39ztaxp9nrfjw,3y9n9ss8l2om0ig4ueroen96nazd3m,UBNqDsU3,2020-0188,2020-05-21,12:28:13,12:53:47,NA,incomplete,201,filling,0,right,Blue_Star_Chess_3.jpg,Red_Circle_Grid_3.jpg,Green_Triangle_Chess_1.jpg,right,45.5249999940861,true,high,NA,NA,NA,NA,NA,NA,NA,false
UBNqDsU3,3axfspqoztbswwyvx39ztaxp9nrfjw,3y9n9ss8l2om0ig4ueroen96nazd3m,UBNqDsU3,2020-0188,2020-05-21,12:28:13,12:53:47,NA,incomplete,202,filling,1,left,Red_Triangle_Chess_3.jpg,Green_Plus_Chess_1.jpg,Purple_Circle_Dots_3.jpg,left,58.969999998109415,true,high,NA,NA,NA,NA,NA,NA,NA,false
UBNqDsU3,3axfspqoztbswwyvx39ztaxp9nrfjw,3y9n9ss8l2om0ig4ueroen96nazd3m,UBNqDsU3,2020-0188,2020-05-21,12:28:13,12:53:47,NA,incomplete,203,filling,0,right,Green_Circle_Grid_3.jpg,Blue_Star_Dots_3.jpg,Purple_Triangle_Grid_2.jpg,left,615.874999995809,false,high,NA,NA,NA,NA,NA,NA,NA,false
UBNqDsU3,3axfspqoztbswwyvx39ztaxp9nrfjw,3y9n9ss8l2om0ig4ueroen96nazd3m,UBNqDsU3,2020-0188,2020-05-21,12:28:13,12:53:47,NA,incomplete,204,filling,1,left,Green_Circle_Chess_4.jpg,Red_Plus_Chess_3.jpg,Blue_Star_Dots_4.jpg,left,44.09500000462867,true,high,NA,NA,NA,NA,NA,NA,NA,false
UBNqDsU3,3axfspqoztbswwyvx39ztaxp9nrfjw,3y9n9ss8l2om0ig4ueroen96nazd3m,UBNqDsU3,2020-0188,2020-05-21,12:28:13,12:53:47,NA,incomplete,205,filling,1,right,Red_Star_Grid_1.jpg,Purple_Plus_Stripes_1.jpg,Blue_Triangle_Grid_2.jpg,right,25.929999995976686,true,high,NA,NA,NA,NA,NA,NA,NA,false
UBNqDsU3,3axfspqoztbswwyvx39ztaxp9nrfjw,3y9n9ss8l2om0ig4ueroen96nazd3m,UBNqDsU3,2020-0188,2020-05-21,12:28:13,12:53:47,NA,incomplete,206,filling,0,left,Blue_Triangle_Chess_4.jpg,Purple_Circle_Chess_1.jpg,Red_Star_Dots_4.jpg,right,7.914999994682148,false,high,NA,NA,NA,NA,NA,NA,NA,false
UBNqDsU3,3axfspqoztbswwyvx39ztaxp9nrfjw,3y9n9ss8l2om0ig4ueroen96nazd3m,UBNqDsU3,2020-0188,2020-05-21,12:28:13,12:53:47,NA,incomplete,207,filling,1,right,Green_Circle_Grid_1.jpg,Blue_Star_Dots_1.jpg,Red_Triangle_Grid_2.jpg,right,101.18499999935739,true,high,NA,NA,NA,NA,NA,NA,NA,false
UBNqDsU3,3axfspqoztbswwyvx39ztaxp9nrfjw,3y9n9ss8l2om0ig4ueroen96nazd3m,UBNqDsU3,2020-0188,2020-05-21,12:28:13,12:53:47,NA,incomplete,208,filling,1,right,Red_Triangle_Chess_4.jpg,Purple_Plus_Stripes_4.jpg,Blue_Star_Chess_1.jpg,right,31.839999996125698,true,high,NA,NA,NA,NA,NA,NA,NA,false
UBNqDsU3,3axfspqoztbswwyvx39ztaxp9nrfjw,3y9n9ss8l2om0ig4ueroen96nazd3m,UBNqDsU3,2020-0188,2020-05-21,12:28:13,12:53:47,NA,incomplete,209,filling,1,left,Green_Star_Chess_1.jpg,Red_Circle_Chess_2.jpg,Blue_Triangle_Stripes_1.jpg,right,13.670000000158325,false,high,NA,NA,NA,NA,NA,NA,NA,false
UBNqDsU3,3axfspqoztbswwyvx39ztaxp9nrfjw,3y9n9ss8l2om0ig4ueroen96nazd3m,UBNqDsU3,2020-0188,2020-05-21,12:28:13,12:53:47,NA,incomplete,210,filling,1,right,Purple_Triangle_Dots_4.jpg,Green_Plus_Grid_4.jpg,Red_Star_Dots_1.jpg,left,508.11999999848194,false,high,NA,NA,NA,NA,NA,NA,NA,false
UBNqDsU3,3axfspqoztbswwyvx39ztaxp9nrfjw,3y9n9ss8l2om0ig4ueroen96nazd3m,UBNqDsU3,2020-0188,2020-05-21,12:28:13,12:53:47,NA,incomplete,211,filling,1,left,Blue_Star_Stripes_4.jpg,Red_Plus_Stripes_2.jpg,Purple_Triangle_Grid_4.jpg,left,358.3700000017416,true,high,NA,NA,NA,NA,NA,NA,NA,false
UBNqDsU3,3axfspqoztbswwyvx39ztaxp9nrfjw,3y9n9ss8l2om0ig4ueroen96nazd3m,UBNqDsU3,2020-0188,2020-05-21,12:28:13,12:53:47,NA,incomplete,212,filling,1,right,Green_Star_Grid_2.jpg,Red_Circle_Dots_2.jpg,Purple_Plus_Grid_1.jpg,left,117.84500000067055,false,high,NA,NA,NA,NA,NA,NA,NA,false
UBNqDsU3,3axfspqoztbswwyvx39ztaxp9nrfjw,3y9n9ss8l2om0ig4ueroen96nazd3m,UBNqDsU3,2020-0188,2020-05-21,12:28:13,12:53:47,NA,incomplete,213,filling,1,left,Purple_Plus_Chess_4.jpg,Green_Circle_Chess_2.jpg,Red_Triangle_Grid_4.jpg,right,30.405000004917383,false,high,NA,NA,NA,NA,NA,NA,NA,false
UBNqDsU3,3axfspqoztbswwyvx39ztaxp9nrfjw,3y9n9ss8l2om0ig4ueroen96nazd3m,UBNqDsU3,2020-0188,2020-05-21,12:28:13,12:53:47,NA,incomplete,214,filling,1,left,Purple_Triangle_Stripes_1.jpg,Red_Star_Stripes_3.jpg,Green_Circle_Dots_1.jpg,left,61.45000000111759,true,high,NA,NA,NA,NA,NA,NA,NA,false
UBNqDsU3,3axfspqoztbswwyvx39ztaxp9nrfjw,3y9n9ss8l2om0ig4ueroen96nazd3m,UBNqDsU3,2020-0188,2020-05-21,12:28:13,12:53:47,NA,incomplete,215,filling,1,right,Red_Triangle_Chess_2.jpg,Blue_Star_Grid_2.jpg,Purple_Plus_Chess_4.jpg,right,41.64499999769032,true,high,NA,NA,NA,NA,NA,NA,NA,false
UBNqDsU3,3axfspqoztbswwyvx39ztaxp9nrfjw,3y9n9ss8l2om0ig4ueroen96nazd3m,UBNqDsU3,2020-0188,2020-05-21,12:28:13,12:53:47,NA,incomplete,216,filling,1,left,Purple_Circle_Grid_3.jpg,Blue_Triangle_Grid_4.jpg,Green_Star_Stripes_3.jpg,left,486.9849999959115,true,high,NA,NA,NA,NA,NA,NA,NA,false
UBNqDsU3,3axfspqoztbswwyvx39ztaxp9nrfjw,3y9n9ss8l2om0ig4ueroen96nazd3m,UBNqDsU3,2020-0188,2020-05-21,12:28:13,12:53:47,NA,incomplete,217,filling,1,right,Red_Plus_Grid_2.jpg,Blue_Circle_Dots_2.jpg,Purple_Star_Grid_3.jpg,right,447.4750000007916,true,high,NA,NA,NA,NA,NA,NA,NA,false
UBNqDsU3,3axfspqoztbswwyvx39ztaxp9nrfjw,3y9n9ss8l2om0ig4ueroen96nazd3m,UBNqDsU3,2020-0188,2020-05-21,12:28:13,12:53:47,NA,incomplete,218,filling,1,right,Purple_Plus_Stripes_4.jpg,Blue_Star_Dots_4.jpg,Green_Circle_Stripes_3.jpg,right,508.5299999990966,true,high,NA,NA,NA,NA,NA,NA,NA,false
UBNqDsU3,3axfspqoztbswwyvx39ztaxp9nrfjw,3y9n9ss8l2om0ig4ueroen96nazd3m,UBNqDsU3,2020-0188,2020-05-21,12:28:13,12:53:47,NA,incomplete,219,filling,1,left,Red_Plus_Dots_2.jpg,Blue_Triangle_Dots_1.jpg,Green_Circle_Grid_2.jpg,left,7.744999995222315,true,high,NA,NA,NA,NA,NA,NA,NA,false
UBNqDsU3,3axfspqoztbswwyvx39ztaxp9nrfjw,3y9n9ss8l2om0ig4ueroen96nazd3m,UBNqDsU3,2020-0188,2020-05-21,12:28:13,12:53:47,NA,incomplete,220,number,1,left,Green_Star_Dots_1.jpg,Red_Circle_Chess_1.jpg,Blue_Plus_Dots_2.jpg,right,83.74999999790452,false,high,NA,NA,NA,NA,NA,NA,NA,false
UBNqDsU3,3axfspqoztbswwyvx39ztaxp9nrfjw,3y9n9ss8l2om0ig4ueroen96nazd3m,UBNqDsU3,2020-0188,2020-05-21,12:28:13,12:53:47,NA,incomplete,221,number,1,left,Purple_Circle_Chess_1.jpg,Green_Plus_Stripes_1.jpg,Blue_Star_Chess_3.jpg,left,79.02499999920838,true,high,NA,NA,NA,NA,NA,NA,NA,false
UBNqDsU3,3axfspqoztbswwyvx39ztaxp9nrfjw,3y9n9ss8l2om0ig4ueroen96nazd3m,UBNqDsU3,2020-0188,2020-05-21,12:28:13,12:53:47,NA,incomplete,222,number,0,right,Purple_Plus_Chess_3.jpg,Green_Triangle_Chess_4.jpg,Red_Circle_Stripes_3.jpg,right,74.78000000282191,true,high,NA,NA,NA,NA,NA,NA,NA,false
UBNqDsU3,3axfspqoztbswwyvx39ztaxp9nrfjw,3y9n9ss8l2om0ig4ueroen96nazd3m,UBNqDsU3,2020-0188,2020-05-21,12:28:13,12:53:47,NA,incomplete,223,number,1,right,Purple_Circle_Chess_3.jpg,Blue_Star_Chess_2.jpg,Red_Plus_Dots_3.jpg,right,534.6250000002328,true,high,NA,NA,NA,NA,NA,NA,NA,false
UBNqDsU3,3axfspqoztbswwyvx39ztaxp9nrfjw,3y9n9ss8l2om0ig4ueroen96nazd3m,UBNqDsU3,2020-0188,2020-05-21,12:28:13,12:53:47,NA,incomplete,224,number,1,left,Green_Plus_Stripes_3.jpg,Red_Star_Chess_3.jpg,Blue_Triangle_Stripes_1.jpg,left,45.815000004833564,true,high,NA,NA,NA,NA,NA,NA,NA,false
UBNqDsU3,3axfspqoztbswwyvx39ztaxp9nrfjw,3y9n9ss8l2om0ig4ueroen96nazd3m,UBNqDsU3,2020-0188,2020-05-21,12:28:13,12:53:47,NA,incomplete,225,number,1,left,Purple_Star_Stripes_2.jpg,Blue_Circle_Chess_2.jpg,Red_Triangle_Stripes_1.jpg,right,93.09999999823049,false,high,NA,NA,NA,NA,NA,NA,NA,false
UBNqDsU3,3axfspqoztbswwyvx39ztaxp9nrfjw,3y9n9ss8l2om0ig4ueroen96nazd3m,UBNqDsU3,2020-0188,2020-05-21,12:28:13,12:53:47,NA,incomplete,226,number,1,right,Purple_Plus_Dots_3.jpg,Blue_Circle_Dots_1.jpg,Green_Star_Stripes_3.jpg,right,119.63500000257045,true,high,NA,NA,NA,NA,NA,NA,NA,false
UBNqDsU3,3axfspqoztbswwyvx39ztaxp9nrfjw,3y9n9ss8l2om0ig4ueroen96nazd3m,UBNqDsU3,2020-0188,2020-05-21,12:28:13,12:53:47,NA,incomplete,227,number,0,right,Green_Star_Chess_3.jpg,Red_Plus_Chess_4.jpg,Purple_Circle_Dots_3.jpg,right,49.870000002440065,true,high,NA,NA,NA,NA,NA,NA,NA,false
UBNqDsU3,3axfspqoztbswwyvx39ztaxp9nrfjw,3y9n9ss8l2om0ig4ueroen96nazd3m,UBNqDsU3,2020-0188,2020-05-21,12:28:13,12:53:47,NA,incomplete,228,number,1,right,Red_Plus_Stripes_2.jpg,Purple_Triangle_Stripes_4.jpg,Green_Star_Chess_2.jpg,right,14.255000001750886,true,high,NA,NA,NA,NA,NA,NA,NA,false
UBNqDsU3,3axfspqoztbswwyvx39ztaxp9nrfjw,3y9n9ss8l2om0ig4ueroen96nazd3m,UBNqDsU3,2020-0188,2020-05-21,12:28:13,12:53:47,NA,incomplete,229,number,0,left,Green_Plus_Stripes_1.jpg,Red_Star_Grid_1.jpg,Blue_Triangle_Stripes_3.jpg,right,142.22999999765307,false,high,NA,NA,NA,NA,NA,NA,NA,false
UBNqDsU3,3axfspqoztbswwyvx39ztaxp9nrfjw,3y9n9ss8l2om0ig4ueroen96nazd3m,UBNqDsU3,2020-0188,2020-05-21,12:28:13,12:53:47,NA,incomplete,230,number,1,left,Red_Plus_Chess_1.jpg,Green_Triangle_Dots_1.jpg,Blue_Star_Chess_2.jpg,left,150.02000000094995,true,high,NA,NA,NA,NA,NA,NA,NA,false
UBNqDsU3,3axfspqoztbswwyvx39ztaxp9nrfjw,3y9n9ss8l2om0ig4ueroen96nazd3m,UBNqDsU3,2020-0188,2020-05-21,12:28:13,12:53:47,NA,incomplete,231,number,0,left,Red_Triangle_Dots_4.jpg,Blue_Star_Stripes_4.jpg,Purple_Circle_Dots_1.jpg,left,63.00499999616295,true,high,NA,NA,NA,NA,NA,NA,NA,false
UBNqDsU3,3axfspqoztbswwyvx39ztaxp9nrfjw,3y9n9ss8l2om0ig4ueroen96nazd3m,UBNqDsU3,2020-0188,2020-05-21,12:28:13,12:53:47,NA,incomplete,232,number,1,right,Green_Circle_Stripes_3.jpg,Purple_Plus_Stripes_1.jpg,Red_Star_Dots_3.jpg,right,74.27500000642613,true,high,NA,NA,NA,NA,NA,NA,NA,false
UBNqDsU3,3axfspqoztbswwyvx39ztaxp9nrfjw,3y9n9ss8l2om0ig4ueroen96nazd3m,UBNqDsU3,2020-0188,2020-05-21,12:28:13,12:53:47,NA,incomplete,233,number,1,left,Purple_Plus_Stripes_4.jpg,Blue_Circle_Dots_4.jpg,Green_Star_Stripes_1.jpg,right,167.78999999933876,false,high,NA,NA,NA,NA,NA,NA,NA,false
UBNqDsU3,3axfspqoztbswwyvx39ztaxp9nrfjw,3y9n9ss8l2om0ig4ueroen96nazd3m,UBNqDsU3,2020-0188,2020-05-21,12:28:13,12:53:47,NA,incomplete,234,number,1,left,Red_Circle_Stripes_1.jpg,Green_Plus_Grid_1.jpg,Blue_Triangle_Stripes_3.jpg,right,78.50499999755993,false,high,NA,NA,NA,NA,NA,NA,NA,false
UBNqDsU3,3axfspqoztbswwyvx39ztaxp9nrfjw,3y9n9ss8l2om0ig4ueroen96nazd3m,UBNqDsU3,2020-0188,2020-05-21,12:28:13,12:53:47,NA,incomplete,235,number,0,right,Purple_Star_Chess_1.jpg,Green_Circle_Chess_2.jpg,Blue_Triangle_Dots_1.jpg,right,107.34499999671243,true,high,NA,NA,NA,NA,NA,NA,NA,false
UBNqDsU3,3axfspqoztbswwyvx39ztaxp9nrfjw,3y9n9ss8l2om0ig4ueroen96nazd3m,UBNqDsU3,2020-0188,2020-05-21,12:28:13,12:53:47,NA,incomplete,236,number,1,left,Red_Circle_Dots_1.jpg,Green_Star_Chess_1.jpg,Blue_Plus_Dots_3.jpg,left,133.91499999864027,true,high,NA,NA,NA,NA,NA,NA,NA,false
UBNqDsU3,3axfspqoztbswwyvx39ztaxp9nrfjw,3y9n9ss8l2om0ig4ueroen96nazd3m,UBNqDsU3,2020-0188,2020-05-21,12:28:13,12:53:47,NA,incomplete,237,number,1,left,Purple_Plus_Stripes_4.jpg,Blue_Star_Grid_4.jpg,Red_Triangle_Stripes_1.jpg,right,141.5449999985285,false,high,NA,NA,NA,NA,NA,NA,NA,false
UBNqDsU3,3axfspqoztbswwyvx39ztaxp9nrfjw,3y9n9ss8l2om0ig4ueroen96nazd3m,UBNqDsU3,2020-0188,2020-05-21,12:28:13,12:53:47,NA,incomplete,238,number,1,left,Green_Circle_Grid_3.jpg,Red_Star_Dots_3.jpg,Purple_Triangle_Grid_2.jpg,left,119.55999999935739,true,high,NA,NA,NA,NA,NA,NA,NA,false
UBNqDsU3,3axfspqoztbswwyvx39ztaxp9nrfjw,3y9n9ss8l2om0ig4ueroen96nazd3m,UBNqDsU3,2020-0188,2020-05-21,12:28:13,12:53:47,NA,incomplete,239,number,1,left,Blue_Star_Dots_2.jpg,Green_Triangle_Stripes_2.jpg,Red_Plus_Dots_3.jpg,left,97.15000000153668,true,high,NA,NA,NA,NA,NA,NA,NA,false
UBNqDsU3,3axfspqoztbswwyvx39ztaxp9nrfjw,3y9n9ss8l2om0ig4ueroen96nazd3m,UBNqDsU3,2020-0188,2020-05-21,12:28:13,12:53:47,NA,NA,instruction example,shape,NA,NA,Red_Star_Grid_2.jpg,Green_Star_Chess_3.jpg,Red_Plus_Stripes_1.jpg,NA,NA,NA,NA,NA,NA,NA,NA,NA,NA,NA,undefined
UBNqDsU3,3axfspqoztbswwyvx39ztaxp9nrfjw,3y9n9ss8l2om0ig4ueroen96nazd3m,UBNqDsU3,2020-0188,2020-05-21,12:28:13,12:53:47,NA,NA,instruction example,shape,NA,NA,Purple_Triangle_Chess_2.jpg,Purple_Star_Stripes_4.jpg,Blue_Triangle_Grid_3.jpg,NA,NA,NA,NA,NA,NA,NA,NA,NA,NA,NA,undefined
UBNqDsU3,3axfspqoztbswwyvx39ztaxp9nrfjw,3y9n9ss8l2om0ig4ueroen96nazd3m,UBNqDsU3,2020-0188,2020-05-21,12:28:13,12:53:47,NA,NA,instruction example,shape,NA,NA,Purple_Plus_Grid_1.jpg,Green_Star_Grid_3.jpg,Red_Circle_Chess_1.jpg,NA,NA,NA,NA,NA,NA,NA,NA,NA,NA,NA,undefined
UBNqDsU3,3axfspqoztbswwyvx39ztaxp9nrfjw,3y9n9ss8l2om0ig4ueroen96nazd3m,UBNqDsU3,2020-0188,2020-05-21,12:28:13,12:53:47,NA,NA,instruction example,shape,NA,NA,Blue_Plus_Dots_3.jpg,Red_Triangle_Stripes_3.jpg,Purple_Circle_Dots_1.jpg,NA,NA,NA,NA,NA,NA,NA,NA,NA,NA,NA,undefined
UBNqDsU3,3axfspqoztbswwyvx39ztaxp9nrfjw,3y9n9ss8l2om0ig4ueroen96nazd3m,UBNqDsU3,2020-0188,2020-05-21,12:28:13,12:53:47,1422008.1699999936,1535165.359999999,NA,NA,NA,NA,NA,NA,NA,NA,NA,NA,NA,32,Black/African American,Male,ABlaclk,no,Do not wish to reply,no,undefined
