workerId,hitId,assignmentId,subject,studyid,exp_date,exp_start,exp_end,time_start,time_end,trial,type,reward_validity,answer,image_top,image_left,image_right,response,response_time,response_acc,volatility,age,race,gender,ethnicity,color,vision,neuro,practice
IYrfrDmJ,3dzkabx20liukfefnqxhosng7x6cv3,3yz8upk3vxzwukn992sehqhofm4uc6,IYrfrDmJ,2020-0188,2020-05-21,14:43:58,15:00:48,NA,incomplete,0,filling,1,right,Purple_Plus_Dots_1.jpg,Purple_Triangle_Grid_2.jpg,Blue_Circle_Dots_4.jpg,none,0,false,NA,NA,NA,NA,NA,NA,NA,NA,true
IYrfrDmJ,3dzkabx20liukfefnqxhosng7x6cv3,3yz8upk3vxzwukn992sehqhofm4uc6,IYrfrDmJ,2020-0188,2020-05-21,14:43:58,15:00:48,NA,incomplete,1,filling,1,left,Red_Plus_Stripes_3.jpg,Purple_Triangle_Stripes_4.jpg,Red_Star_Dots_1.jpg,left,1493.804999976419,true,NA,NA,NA,NA,NA,NA,NA,NA,true
IYrfrDmJ,3dzkabx20liukfefnqxhosng7x6cv3,3yz8upk3vxzwukn992sehqhofm4uc6,IYrfrDmJ,2020-0188,2020-05-21,14:43:58,15:00:48,NA,incomplete,2,filling,1,left,Green_Circle_Stripes_2.jpg,Red_Star_Stripes_4.jpg,Green_Triangle_Dots_3.jpg,left,1369.5750000188127,true,NA,NA,NA,NA,NA,NA,NA,NA,true
IYrfrDmJ,3dzkabx20liukfefnqxhosng7x6cv3,3yz8upk3vxzwukn992sehqhofm4uc6,IYrfrDmJ,2020-0188,2020-05-21,14:43:58,15:00:48,NA,incomplete,3,filling,1,right,Blue_Star_Chess_2.jpg,Blue_Plus_Dots_3.jpg,Green_Triangle_Chess_1.jpg,right,1275.9499999810942,true,NA,NA,NA,NA,NA,NA,NA,NA,true
IYrfrDmJ,3dzkabx20liukfefnqxhosng7x6cv3,3yz8upk3vxzwukn992sehqhofm4uc6,IYrfrDmJ,2020-0188,2020-05-21,14:43:58,15:00:48,NA,incomplete,4,filling,0,right,Purple_Triangle_Grid_3.jpg,Purple_Star_Dots_2.jpg,Red_Circle_Grid_1.jpg,right,1101.1949999956414,true,NA,NA,NA,NA,NA,NA,NA,NA,true
IYrfrDmJ,3dzkabx20liukfefnqxhosng7x6cv3,3yz8upk3vxzwukn992sehqhofm4uc6,IYrfrDmJ,2020-0188,2020-05-21,14:43:58,15:00:48,NA,incomplete,5,filling,1,left,Blue_Triangle_Dots_3.jpg,Green_Circle_Dots_1.jpg,Blue_Star_Stripes_4.jpg,left,1765.2450000168756,true,NA,NA,NA,NA,NA,NA,NA,NA,true
IYrfrDmJ,3dzkabx20liukfefnqxhosng7x6cv3,3yz8upk3vxzwukn992sehqhofm4uc6,IYrfrDmJ,2020-0188,2020-05-21,14:43:58,15:00:48,NA,incomplete,6,filling,1,left,Red_Circle_Stripes_2.jpg,Purple_Triangle_Stripes_4.jpg,Red_Plus_Chess_3.jpg,left,1276.4899999601766,true,NA,NA,NA,NA,NA,NA,NA,NA,true
IYrfrDmJ,3dzkabx20liukfefnqxhosng7x6cv3,3yz8upk3vxzwukn992sehqhofm4uc6,IYrfrDmJ,2020-0188,2020-05-21,14:43:58,15:00:48,NA,incomplete,7,filling,1,left,Red_Circle_Grid_1.jpg,Green_Plus_Grid_4.jpg,Red_Triangle_Chess_2.jpg,left,957.3049999889918,true,NA,NA,NA,NA,NA,NA,NA,NA,true
IYrfrDmJ,3dzkabx20liukfefnqxhosng7x6cv3,3yz8upk3vxzwukn992sehqhofm4uc6,IYrfrDmJ,2020-0188,2020-05-21,14:43:58,15:00:48,NA,incomplete,8,filling,1,right,Red_Triangle_Grid_4.jpg,Red_Circle_Chess_3.jpg,Blue_Star_Grid_1.jpg,right,1043.7099999981,true,NA,NA,NA,NA,NA,NA,NA,NA,true
IYrfrDmJ,3dzkabx20liukfefnqxhosng7x6cv3,3yz8upk3vxzwukn992sehqhofm4uc6,IYrfrDmJ,2020-0188,2020-05-21,14:43:58,15:00:48,NA,incomplete,9,filling,1,right,Red_Circle_Stripes_4.jpg,Red_Star_Grid_3.jpg,Green_Triangle_Stripes_2.jpg,right,1069.2649999982677,true,NA,NA,NA,NA,NA,NA,NA,NA,true
IYrfrDmJ,3dzkabx20liukfefnqxhosng7x6cv3,3yz8upk3vxzwukn992sehqhofm4uc6,IYrfrDmJ,2020-0188,2020-05-21,14:43:58,15:00:48,NA,incomplete,10,filling,1,left,Red_Circle_Grid_2.jpg,Purple_Triangle_Grid_4.jpg,Red_Star_Chess_1.jpg,left,1056.174999976065,true,NA,NA,NA,NA,NA,NA,NA,NA,true
IYrfrDmJ,3dzkabx20liukfefnqxhosng7x6cv3,3yz8upk3vxzwukn992sehqhofm4uc6,IYrfrDmJ,2020-0188,2020-05-21,14:43:58,15:00:48,NA,incomplete,11,filling,1,left,Purple_Triangle_Grid_3.jpg,Red_Circle_Grid_4.jpg,Purple_Plus_Stripes_2.jpg,left,921.3999999919906,true,NA,NA,NA,NA,NA,NA,NA,NA,true
IYrfrDmJ,3dzkabx20liukfefnqxhosng7x6cv3,3yz8upk3vxzwukn992sehqhofm4uc6,IYrfrDmJ,2020-0188,2020-05-21,14:43:58,15:00:48,NA,incomplete,12,filling,1,right,Blue_Star_Grid_3.jpg,Blue_Circle_Dots_4.jpg,Purple_Plus_Grid_2.jpg,right,1240.6299999565817,true,NA,NA,NA,NA,NA,NA,NA,NA,true
IYrfrDmJ,3dzkabx20liukfefnqxhosng7x6cv3,3yz8upk3vxzwukn992sehqhofm4uc6,IYrfrDmJ,2020-0188,2020-05-21,14:43:58,15:00:48,NA,incomplete,13,filling,1,right,Blue_Star_Stripes_1.jpg,Blue_Plus_Chess_2.jpg,Purple_Circle_Stripes_4.jpg,right,1123.540000000503,true,NA,NA,NA,NA,NA,NA,NA,NA,true
IYrfrDmJ,3dzkabx20liukfefnqxhosng7x6cv3,3yz8upk3vxzwukn992sehqhofm4uc6,IYrfrDmJ,2020-0188,2020-05-21,14:43:58,15:00:48,NA,incomplete,14,filling,1,left,Green_Triangle_Dots_4.jpg,Blue_Circle_Dots_2.jpg,Green_Star_Chess_3.jpg,left,1025.9649999788962,true,NA,NA,NA,NA,NA,NA,NA,NA,true
IYrfrDmJ,3dzkabx20liukfefnqxhosng7x6cv3,3yz8upk3vxzwukn992sehqhofm4uc6,IYrfrDmJ,2020-0188,2020-05-21,14:43:58,15:00:48,NA,incomplete,15,filling,1,right,Blue_Circle_Dots_4.jpg,Blue_Triangle_Chess_3.jpg,Green_Star_Dots_1.jpg,right,1190.984999993816,true,NA,NA,NA,NA,NA,NA,NA,NA,true
IYrfrDmJ,3dzkabx20liukfefnqxhosng7x6cv3,3yz8upk3vxzwukn992sehqhofm4uc6,IYrfrDmJ,2020-0188,2020-05-21,14:43:58,15:00:48,NA,incomplete,16,filling,0,left,Red_Star_Stripes_4.jpg,Blue_Triangle_Stripes_2.jpg,Red_Circle_Grid_3.jpg,left,1171.0300000268035,true,NA,NA,NA,NA,NA,NA,NA,NA,true
IYrfrDmJ,3dzkabx20liukfefnqxhosng7x6cv3,3yz8upk3vxzwukn992sehqhofm4uc6,IYrfrDmJ,2020-0188,2020-05-21,14:43:58,15:00:48,NA,incomplete,17,filling,1,right,Blue_Star_Grid_3.jpg,Blue_Triangle_Dots_2.jpg,Red_Circle_Grid_1.jpg,right,1433.5950000095181,true,NA,NA,NA,NA,NA,NA,NA,NA,true
IYrfrDmJ,3dzkabx20liukfefnqxhosng7x6cv3,3yz8upk3vxzwukn992sehqhofm4uc6,IYrfrDmJ,2020-0188,2020-05-21,14:43:58,15:00:48,NA,incomplete,18,filling,0,left,Blue_Circle_Stripes_3.jpg,Green_Triangle_Stripes_4.jpg,Blue_Plus_Chess_1.jpg,left,1149.0450000273995,true,NA,NA,NA,NA,NA,NA,NA,NA,true
IYrfrDmJ,3dzkabx20liukfefnqxhosng7x6cv3,3yz8upk3vxzwukn992sehqhofm4uc6,IYrfrDmJ,2020-0188,2020-05-21,14:43:58,15:00:48,NA,incomplete,19,filling,1,left,Blue_Plus_Grid_2.jpg,Purple_Circle_Grid_1.jpg,Blue_Triangle_Stripes_4.jpg,left,1354.2100000195205,true,NA,NA,NA,NA,NA,NA,NA,NA,true
IYrfrDmJ,3dzkabx20liukfefnqxhosng7x6cv3,3yz8upk3vxzwukn992sehqhofm4uc6,IYrfrDmJ,2020-0188,2020-05-21,14:43:58,15:00:48,NA,incomplete,20,color,1,right,Blue_Star_Stripes_2.jpg,Purple_Plus_Stripes_3.jpg,Blue_Triangle_Grid_1.jpg,right,1568.295000004582,true,NA,NA,NA,NA,NA,NA,NA,NA,true
IYrfrDmJ,3dzkabx20liukfefnqxhosng7x6cv3,3yz8upk3vxzwukn992sehqhofm4uc6,IYrfrDmJ,2020-0188,2020-05-21,14:43:58,15:00:48,NA,incomplete,21,color,0,right,Purple_Plus_Stripes_3.jpg,Green_Circle_Stripes_1.jpg,Purple_Star_Grid_2.jpg,right,881.3950000330806,true,NA,NA,NA,NA,NA,NA,NA,NA,true
IYrfrDmJ,3dzkabx20liukfefnqxhosng7x6cv3,3yz8upk3vxzwukn992sehqhofm4uc6,IYrfrDmJ,2020-0188,2020-05-21,14:43:58,15:00:48,NA,incomplete,22,color,0,right,Blue_Circle_Dots_2.jpg,Purple_Star_Dots_4.jpg,Blue_Triangle_Stripes_1.jpg,right,952.3150000022724,true,NA,NA,NA,NA,NA,NA,NA,NA,true
IYrfrDmJ,3dzkabx20liukfefnqxhosng7x6cv3,3yz8upk3vxzwukn992sehqhofm4uc6,IYrfrDmJ,2020-0188,2020-05-21,14:43:58,15:00:48,NA,incomplete,23,color,1,left,Red_Triangle_Grid_1.jpg,Red_Plus_Dots_4.jpg,Blue_Circle_Grid_3.jpg,left,892.6750000100583,true,NA,NA,NA,NA,NA,NA,NA,NA,true
IYrfrDmJ,3dzkabx20liukfefnqxhosng7x6cv3,3yz8upk3vxzwukn992sehqhofm4uc6,IYrfrDmJ,2020-0188,2020-05-21,14:43:58,15:00:48,NA,incomplete,24,color,1,left,Purple_Triangle_Dots_4.jpg,Purple_Plus_Grid_1.jpg,Red_Circle_Dots_3.jpg,left,925.7850000285544,true,NA,NA,NA,NA,NA,NA,NA,NA,true
IYrfrDmJ,3dzkabx20liukfefnqxhosng7x6cv3,3yz8upk3vxzwukn992sehqhofm4uc6,IYrfrDmJ,2020-0188,2020-05-21,14:43:58,15:00:48,NA,incomplete,25,color,1,left,Green_Triangle_Grid_2.jpg,Green_Star_Stripes_3.jpg,Purple_Plus_Grid_1.jpg,left,773.7399999750778,true,NA,NA,NA,NA,NA,NA,NA,NA,true
IYrfrDmJ,3dzkabx20liukfefnqxhosng7x6cv3,3yz8upk3vxzwukn992sehqhofm4uc6,IYrfrDmJ,2020-0188,2020-05-21,14:43:58,15:00:48,NA,incomplete,26,color,1,left,Blue_Circle_Chess_1.jpg,Blue_Triangle_Grid_4.jpg,Green_Plus_Chess_2.jpg,left,730.4949999670498,true,NA,NA,NA,NA,NA,NA,NA,NA,true
IYrfrDmJ,3dzkabx20liukfefnqxhosng7x6cv3,3yz8upk3vxzwukn992sehqhofm4uc6,IYrfrDmJ,2020-0188,2020-05-21,14:43:58,15:00:48,NA,incomplete,27,color,1,left,Red_Triangle_Stripes_2.jpg,Red_Circle_Dots_1.jpg,Purple_Plus_Stripes_3.jpg,left,746.4349999791011,true,NA,NA,NA,NA,NA,NA,NA,NA,true
IYrfrDmJ,3dzkabx20liukfefnqxhosng7x6cv3,3yz8upk3vxzwukn992sehqhofm4uc6,IYrfrDmJ,2020-0188,2020-05-21,14:43:58,15:00:48,NA,incomplete,28,color,1,right,Green_Plus_Chess_1.jpg,Purple_Circle_Chess_2.jpg,Green_Triangle_Grid_4.jpg,right,624.0800000377931,true,NA,NA,NA,NA,NA,NA,NA,NA,true
IYrfrDmJ,3dzkabx20liukfefnqxhosng7x6cv3,3yz8upk3vxzwukn992sehqhofm4uc6,IYrfrDmJ,2020-0188,2020-05-21,14:43:58,15:00:48,NA,incomplete,29,color,1,right,Green_Plus_Chess_2.jpg,Blue_Star_Chess_1.jpg,Green_Triangle_Stripes_4.jpg,right,628.179999999702,true,NA,NA,NA,NA,NA,NA,NA,NA,true
IYrfrDmJ,3dzkabx20liukfefnqxhosng7x6cv3,3yz8upk3vxzwukn992sehqhofm4uc6,IYrfrDmJ,2020-0188,2020-05-21,14:43:58,15:00:48,NA,incomplete,30,color,1,right,Purple_Circle_Dots_1.jpg,Red_Plus_Dots_4.jpg,Purple_Star_Stripes_2.jpg,right,646.4450000203215,true,NA,NA,NA,NA,NA,NA,NA,NA,true
IYrfrDmJ,3dzkabx20liukfefnqxhosng7x6cv3,3yz8upk3vxzwukn992sehqhofm4uc6,IYrfrDmJ,2020-0188,2020-05-21,14:43:58,15:00:48,NA,incomplete,31,color,0,right,Blue_Triangle_Chess_1.jpg,Red_Circle_Chess_2.jpg,Blue_Plus_Stripes_4.jpg,right,553.2149999635294,true,NA,NA,NA,NA,NA,NA,NA,NA,true
IYrfrDmJ,3dzkabx20liukfefnqxhosng7x6cv3,3yz8upk3vxzwukn992sehqhofm4uc6,IYrfrDmJ,2020-0188,2020-05-21,14:43:58,15:00:48,NA,incomplete,32,color,1,left,Purple_Triangle_Stripes_2.jpg,Purple_Circle_Grid_1.jpg,Blue_Star_Stripes_4.jpg,left,680.3749999962747,true,NA,NA,NA,NA,NA,NA,NA,NA,true
IYrfrDmJ,3dzkabx20liukfefnqxhosng7x6cv3,3yz8upk3vxzwukn992sehqhofm4uc6,IYrfrDmJ,2020-0188,2020-05-21,14:43:58,15:00:48,NA,incomplete,33,color,0,right,Green_Triangle_Dots_4.jpg,Purple_Circle_Dots_1.jpg,Green_Star_Stripes_2.jpg,right,489.40000002039596,true,NA,NA,NA,NA,NA,NA,NA,NA,true
IYrfrDmJ,3dzkabx20liukfefnqxhosng7x6cv3,3yz8upk3vxzwukn992sehqhofm4uc6,IYrfrDmJ,2020-0188,2020-05-21,14:43:58,15:00:48,NA,incomplete,34,color,0,left,Green_Star_Stripes_2.jpg,Green_Plus_Grid_4.jpg,Purple_Triangle_Stripes_1.jpg,left,592.8849999909289,true,NA,NA,NA,NA,NA,NA,NA,NA,true
IYrfrDmJ,3dzkabx20liukfefnqxhosng7x6cv3,3yz8upk3vxzwukn992sehqhofm4uc6,IYrfrDmJ,2020-0188,2020-05-21,14:43:58,15:00:48,NA,incomplete,35,color,1,right,Green_Triangle_Chess_3.jpg,Red_Plus_Chess_2.jpg,Green_Star_Grid_1.jpg,right,614.6200000075623,true,NA,NA,NA,NA,NA,NA,NA,NA,true
IYrfrDmJ,3dzkabx20liukfefnqxhosng7x6cv3,3yz8upk3vxzwukn992sehqhofm4uc6,IYrfrDmJ,2020-0188,2020-05-21,14:43:58,15:00:48,NA,incomplete,36,color,1,left,Red_Triangle_Chess_3.jpg,Red_Plus_Dots_4.jpg,Green_Star_Chess_1.jpg,left,627.3200000287034,true,NA,NA,NA,NA,NA,NA,NA,NA,true
IYrfrDmJ,3dzkabx20liukfefnqxhosng7x6cv3,3yz8upk3vxzwukn992sehqhofm4uc6,IYrfrDmJ,2020-0188,2020-05-21,14:43:58,15:00:48,NA,incomplete,37,color,1,right,Red_Circle_Dots_2.jpg,Blue_Star_Dots_3.jpg,Red_Triangle_Stripes_1.jpg,right,605.6749999988824,true,NA,NA,NA,NA,NA,NA,NA,NA,true
IYrfrDmJ,3dzkabx20liukfefnqxhosng7x6cv3,3yz8upk3vxzwukn992sehqhofm4uc6,IYrfrDmJ,2020-0188,2020-05-21,14:43:58,15:00:48,NA,incomplete,38,color,1,right,Blue_Plus_Stripes_4.jpg,Red_Circle_Stripes_3.jpg,Blue_Star_Dots_2.jpg,right,587.2049999888986,true,NA,NA,NA,NA,NA,NA,NA,NA,true
IYrfrDmJ,3dzkabx20liukfefnqxhosng7x6cv3,3yz8upk3vxzwukn992sehqhofm4uc6,IYrfrDmJ,2020-0188,2020-05-21,14:43:58,15:00:48,NA,incomplete,39,color,1,right,Green_Star_Dots_1.jpg,Purple_Circle_Dots_3.jpg,Green_Triangle_Chess_2.jpg,right,654.8700000275858,true,NA,NA,NA,NA,NA,NA,NA,NA,true
IYrfrDmJ,3dzkabx20liukfefnqxhosng7x6cv3,3yz8upk3vxzwukn992sehqhofm4uc6,IYrfrDmJ,2020-0188,2020-05-21,14:43:58,15:00:48,NA,incomplete,0,filling,0,right,Purple_Star_Chess_1.jpg,Purple_Triangle_Grid_3.jpg,Blue_Circle_Chess_2.jpg,left,730.039999994915,false,low,NA,NA,NA,NA,NA,NA,NA,false
IYrfrDmJ,3dzkabx20liukfefnqxhosng7x6cv3,3yz8upk3vxzwukn992sehqhofm4uc6,IYrfrDmJ,2020-0188,2020-05-21,14:43:58,15:00:48,NA,incomplete,1,filling,1,right,Green_Plus_Grid_4.jpg,Green_Star_Stripes_3.jpg,Blue_Triangle_Grid_2.jpg,left,745.0200000312179,false,low,NA,NA,NA,NA,NA,NA,NA,false
IYrfrDmJ,3dzkabx20liukfefnqxhosng7x6cv3,3yz8upk3vxzwukn992sehqhofm4uc6,IYrfrDmJ,2020-0188,2020-05-21,14:43:58,15:00:48,NA,incomplete,2,filling,1,left,Purple_Circle_Chess_4.jpg,Green_Plus_Chess_2.jpg,Purple_Triangle_Dots_3.jpg,right,591.9099999591708,false,low,NA,NA,NA,NA,NA,NA,NA,false
IYrfrDmJ,3dzkabx20liukfefnqxhosng7x6cv3,3yz8upk3vxzwukn992sehqhofm4uc6,IYrfrDmJ,2020-0188,2020-05-21,14:43:58,15:00:48,NA,incomplete,3,filling,1,left,Purple_Triangle_Chess_2.jpg,Red_Plus_Chess_3.jpg,Purple_Star_Grid_1.jpg,left,988.3749999571592,true,low,NA,NA,NA,NA,NA,NA,NA,false
IYrfrDmJ,3dzkabx20liukfefnqxhosng7x6cv3,3yz8upk3vxzwukn992sehqhofm4uc6,IYrfrDmJ,2020-0188,2020-05-21,14:43:58,15:00:48,NA,incomplete,4,filling,1,left,Red_Triangle_Stripes_1.jpg,Green_Star_Stripes_3.jpg,Red_Circle_Chess_2.jpg,left,1089.6649999776855,true,low,NA,NA,NA,NA,NA,NA,NA,false
IYrfrDmJ,3dzkabx20liukfefnqxhosng7x6cv3,3yz8upk3vxzwukn992sehqhofm4uc6,IYrfrDmJ,2020-0188,2020-05-21,14:43:58,15:00:48,NA,incomplete,5,filling,1,right,Red_Circle_Stripes_1.jpg,Red_Triangle_Dots_4.jpg,Blue_Plus_Stripes_3.jpg,right,921.9949999824166,true,low,NA,NA,NA,NA,NA,NA,NA,false
IYrfrDmJ,3dzkabx20liukfefnqxhosng7x6cv3,3yz8upk3vxzwukn992sehqhofm4uc6,IYrfrDmJ,2020-0188,2020-05-21,14:43:58,15:00:48,NA,incomplete,6,filling,0,right,Red_Star_Grid_4.jpg,Red_Plus_Dots_3.jpg,Blue_Triangle_Grid_1.jpg,right,1001.0699999984354,true,low,NA,NA,NA,NA,NA,NA,NA,false
IYrfrDmJ,3dzkabx20liukfefnqxhosng7x6cv3,3yz8upk3vxzwukn992sehqhofm4uc6,IYrfrDmJ,2020-0188,2020-05-21,14:43:58,15:00:48,NA,incomplete,7,filling,1,left,Green_Star_Dots_3.jpg,Purple_Circle_Dots_2.jpg,Green_Plus_Chess_1.jpg,left,980.3649999666959,true,low,NA,NA,NA,NA,NA,NA,NA,false
IYrfrDmJ,3dzkabx20liukfefnqxhosng7x6cv3,3yz8upk3vxzwukn992sehqhofm4uc6,IYrfrDmJ,2020-0188,2020-05-21,14:43:58,15:00:48,NA,incomplete,8,filling,1,left,Green_Plus_Grid_4.jpg,Red_Circle_Grid_1.jpg,Green_Triangle_Stripes_3.jpg,left,1010.3399999788962,true,low,NA,NA,NA,NA,NA,NA,NA,false
IYrfrDmJ,3dzkabx20liukfefnqxhosng7x6cv3,3yz8upk3vxzwukn992sehqhofm4uc6,IYrfrDmJ,2020-0188,2020-05-21,14:43:58,15:00:48,NA,incomplete,9,filling,1,right,Red_Triangle_Dots_4.jpg,Red_Star_Chess_3.jpg,Blue_Plus_Dots_2.jpg,right,1007.0299999788404,true,low,NA,NA,NA,NA,NA,NA,NA,false
IYrfrDmJ,3dzkabx20liukfefnqxhosng7x6cv3,3yz8upk3vxzwukn992sehqhofm4uc6,IYrfrDmJ,2020-0188,2020-05-21,14:43:58,15:00:48,NA,incomplete,10,filling,1,right,Blue_Triangle_Stripes_1.jpg,Blue_Plus_Chess_4.jpg,Green_Circle_Stripes_3.jpg,right,850.3849999979138,true,low,NA,NA,NA,NA,NA,NA,NA,false
IYrfrDmJ,3dzkabx20liukfefnqxhosng7x6cv3,3yz8upk3vxzwukn992sehqhofm4uc6,IYrfrDmJ,2020-0188,2020-05-21,14:43:58,15:00:48,NA,incomplete,11,filling,1,right,Red_Plus_Chess_4.jpg,Red_Star_Dots_2.jpg,Green_Triangle_Chess_3.jpg,right,844.8649999918416,true,low,NA,NA,NA,NA,NA,NA,NA,false
IYrfrDmJ,3dzkabx20liukfefnqxhosng7x6cv3,3yz8upk3vxzwukn992sehqhofm4uc6,IYrfrDmJ,2020-0188,2020-05-21,14:43:58,15:00:48,NA,incomplete,12,filling,1,right,Blue_Star_Dots_2.jpg,Blue_Plus_Stripes_1.jpg,Red_Circle_Dots_3.jpg,right,992.4599999794737,true,low,NA,NA,NA,NA,NA,NA,NA,false
IYrfrDmJ,3dzkabx20liukfefnqxhosng7x6cv3,3yz8upk3vxzwukn992sehqhofm4uc6,IYrfrDmJ,2020-0188,2020-05-21,14:43:58,15:00:48,NA,incomplete,13,filling,1,left,Red_Plus_Grid_4.jpg,Purple_Star_Grid_2.jpg,Red_Triangle_Dots_1.jpg,left,920.97500001546,true,low,NA,NA,NA,NA,NA,NA,NA,false
IYrfrDmJ,3dzkabx20liukfefnqxhosng7x6cv3,3yz8upk3vxzwukn992sehqhofm4uc6,IYrfrDmJ,2020-0188,2020-05-21,14:43:58,15:00:48,NA,incomplete,14,filling,1,right,Purple_Plus_Stripes_4.jpg,Purple_Triangle_Grid_2.jpg,Red_Circle_Stripes_1.jpg,right,1124.2850000271574,true,low,NA,NA,NA,NA,NA,NA,NA,false
IYrfrDmJ,3dzkabx20liukfefnqxhosng7x6cv3,3yz8upk3vxzwukn992sehqhofm4uc6,IYrfrDmJ,2020-0188,2020-05-21,14:43:58,15:00:48,NA,incomplete,15,filling,0,left,Red_Star_Stripes_2.jpg,Purple_Circle_Stripes_3.jpg,Red_Plus_Dots_4.jpg,left,915.6499999808148,true,low,NA,NA,NA,NA,NA,NA,NA,false
IYrfrDmJ,3dzkabx20liukfefnqxhosng7x6cv3,3yz8upk3vxzwukn992sehqhofm4uc6,IYrfrDmJ,2020-0188,2020-05-21,14:43:58,15:00:48,NA,incomplete,16,filling,1,left,Purple_Star_Dots_1.jpg,Green_Circle_Dots_2.jpg,Purple_Triangle_Stripes_3.jpg,left,1154.6549999620765,true,low,NA,NA,NA,NA,NA,NA,NA,false
IYrfrDmJ,3dzkabx20liukfefnqxhosng7x6cv3,3yz8upk3vxzwukn992sehqhofm4uc6,IYrfrDmJ,2020-0188,2020-05-21,14:43:58,15:00:48,NA,incomplete,17,filling,1,right,Green_Circle_Stripes_2.jpg,Green_Star_Chess_1.jpg,Blue_Plus_Stripes_3.jpg,right,953.7850000197068,true,low,NA,NA,NA,NA,NA,NA,NA,false
IYrfrDmJ,3dzkabx20liukfefnqxhosng7x6cv3,3yz8upk3vxzwukn992sehqhofm4uc6,IYrfrDmJ,2020-0188,2020-05-21,14:43:58,15:00:48,NA,incomplete,18,filling,0,left,Blue_Circle_Dots_1.jpg,Purple_Triangle_Dots_4.jpg,Blue_Plus_Grid_3.jpg,left,958.9999999734573,true,low,NA,NA,NA,NA,NA,NA,NA,false
IYrfrDmJ,3dzkabx20liukfefnqxhosng7x6cv3,3yz8upk3vxzwukn992sehqhofm4uc6,IYrfrDmJ,2020-0188,2020-05-21,14:43:58,15:00:48,NA,incomplete,19,filling,0,left,Blue_Star_Chess_3.jpg,Purple_Circle_Chess_1.jpg,Blue_Plus_Grid_4.jpg,left,1015.3099999879487,true,low,NA,NA,NA,NA,NA,NA,NA,false
IYrfrDmJ,3dzkabx20liukfefnqxhosng7x6cv3,3yz8upk3vxzwukn992sehqhofm4uc6,IYrfrDmJ,2020-0188,2020-05-21,14:43:58,15:00:48,NA,incomplete,20,filling,1,left,Green_Star_Grid_2.jpg,Blue_Circle_Grid_4.jpg,Green_Plus_Chess_3.jpg,right,878.2849999843165,false,low,NA,NA,NA,NA,NA,NA,NA,false
IYrfrDmJ,3dzkabx20liukfefnqxhosng7x6cv3,3yz8upk3vxzwukn992sehqhofm4uc6,IYrfrDmJ,2020-0188,2020-05-21,14:43:58,15:00:48,NA,incomplete,21,filling,1,left,Red_Star_Chess_1.jpg,Green_Triangle_Chess_4.jpg,Red_Circle_Stripes_3.jpg,left,995.5449999542907,true,low,NA,NA,NA,NA,NA,NA,NA,false
IYrfrDmJ,3dzkabx20liukfefnqxhosng7x6cv3,3yz8upk3vxzwukn992sehqhofm4uc6,IYrfrDmJ,2020-0188,2020-05-21,14:43:58,15:00:48,NA,incomplete,22,filling,1,right,Blue_Star_Chess_3.jpg,Blue_Triangle_Dots_1.jpg,Red_Circle_Chess_4.jpg,right,920.140000001993,true,low,NA,NA,NA,NA,NA,NA,NA,false
IYrfrDmJ,3dzkabx20liukfefnqxhosng7x6cv3,3yz8upk3vxzwukn992sehqhofm4uc6,IYrfrDmJ,2020-0188,2020-05-21,14:43:58,15:00:48,NA,incomplete,23,filling,1,right,Blue_Plus_Dots_1.jpg,Blue_Star_Chess_2.jpg,Green_Triangle_Dots_3.jpg,right,927.2099999943748,true,low,NA,NA,NA,NA,NA,NA,NA,false
IYrfrDmJ,3dzkabx20liukfefnqxhosng7x6cv3,3yz8upk3vxzwukn992sehqhofm4uc6,IYrfrDmJ,2020-0188,2020-05-21,14:43:58,15:00:48,NA,incomplete,24,filling,1,right,Green_Triangle_Chess_3.jpg,Green_Plus_Stripes_1.jpg,Purple_Star_Chess_2.jpg,right,982.0750000071712,true,low,NA,NA,NA,NA,NA,NA,NA,false
IYrfrDmJ,3dzkabx20liukfefnqxhosng7x6cv3,3yz8upk3vxzwukn992sehqhofm4uc6,IYrfrDmJ,2020-0188,2020-05-21,14:43:58,15:00:48,NA,incomplete,25,filling,0,left,Blue_Triangle_Grid_4.jpg,Red_Star_Grid_3.jpg,Blue_Plus_Stripes_2.jpg,left,1155.7050000410527,true,low,NA,NA,NA,NA,NA,NA,NA,false
IYrfrDmJ,3dzkabx20liukfefnqxhosng7x6cv3,3yz8upk3vxzwukn992sehqhofm4uc6,IYrfrDmJ,2020-0188,2020-05-21,14:43:58,15:00:48,NA,incomplete,26,filling,1,left,Red_Star_Dots_2.jpg,Purple_Plus_Dots_4.jpg,Red_Circle_Chess_3.jpg,left,1028.2399999559857,true,low,NA,NA,NA,NA,NA,NA,NA,false
IYrfrDmJ,3dzkabx20liukfefnqxhosng7x6cv3,3yz8upk3vxzwukn992sehqhofm4uc6,IYrfrDmJ,2020-0188,2020-05-21,14:43:58,15:00:48,NA,incomplete,27,filling,1,left,Red_Triangle_Dots_2.jpg,Purple_Star_Dots_3.jpg,Red_Plus_Grid_4.jpg,left,981.0200000065379,true,low,NA,NA,NA,NA,NA,NA,NA,false
IYrfrDmJ,3dzkabx20liukfefnqxhosng7x6cv3,3yz8upk3vxzwukn992sehqhofm4uc6,IYrfrDmJ,2020-0188,2020-05-21,14:43:58,15:00:48,NA,incomplete,28,filling,1,right,Green_Star_Dots_4.jpg,Green_Triangle_Stripes_3.jpg,Blue_Circle_Dots_2.jpg,right,947.7049999986775,true,low,NA,NA,NA,NA,NA,NA,NA,false
IYrfrDmJ,3dzkabx20liukfefnqxhosng7x6cv3,3yz8upk3vxzwukn992sehqhofm4uc6,IYrfrDmJ,2020-0188,2020-05-21,14:43:58,15:00:48,NA,incomplete,29,filling,1,right,Blue_Plus_Chess_1.jpg,Blue_Triangle_Stripes_3.jpg,Red_Circle_Chess_4.jpg,right,1112.859999993816,true,low,NA,NA,NA,NA,NA,NA,NA,false
IYrfrDmJ,3dzkabx20liukfefnqxhosng7x6cv3,3yz8upk3vxzwukn992sehqhofm4uc6,IYrfrDmJ,2020-0188,2020-05-21,14:43:58,15:00:48,NA,incomplete,30,color,1,left,Purple_Triangle_Stripes_3.jpg,Purple_Circle_Chess_2.jpg,Green_Plus_Stripes_1.jpg,right,1088.4999999543652,false,low,NA,NA,NA,NA,NA,NA,NA,false
IYrfrDmJ,3dzkabx20liukfefnqxhosng7x6cv3,3yz8upk3vxzwukn992sehqhofm4uc6,IYrfrDmJ,2020-0188,2020-05-21,14:43:58,15:00:48,NA,incomplete,31,color,1,right,Purple_Plus_Chess_4.jpg,Red_Circle_Chess_3.jpg,Purple_Star_Stripes_2.jpg,left,1138.2100000046194,false,low,NA,NA,NA,NA,NA,NA,NA,false
IYrfrDmJ,3dzkabx20liukfefnqxhosng7x6cv3,3yz8upk3vxzwukn992sehqhofm4uc6,IYrfrDmJ,2020-0188,2020-05-21,14:43:58,15:00:48,NA,incomplete,32,color,1,right,Blue_Triangle_Chess_3.jpg,Purple_Circle_Chess_1.jpg,Blue_Star_Dots_2.jpg,right,1297.0149999600835,true,low,NA,NA,NA,NA,NA,NA,NA,false
IYrfrDmJ,3dzkabx20liukfefnqxhosng7x6cv3,3yz8upk3vxzwukn992sehqhofm4uc6,IYrfrDmJ,2020-0188,2020-05-21,14:43:58,15:00:48,NA,incomplete,33,color,1,right,Red_Star_Dots_4.jpg,Purple_Plus_Dots_2.jpg,Red_Triangle_Chess_3.jpg,right,1040.500000002794,true,low,NA,NA,NA,NA,NA,NA,NA,false
IYrfrDmJ,3dzkabx20liukfefnqxhosng7x6cv3,3yz8upk3vxzwukn992sehqhofm4uc6,IYrfrDmJ,2020-0188,2020-05-21,14:43:58,15:00:48,NA,incomplete,34,color,1,right,Red_Star_Chess_1.jpg,Purple_Circle_Chess_2.jpg,Red_Triangle_Grid_3.jpg,right,803.2200000016019,true,low,NA,NA,NA,NA,NA,NA,NA,false
IYrfrDmJ,3dzkabx20liukfefnqxhosng7x6cv3,3yz8upk3vxzwukn992sehqhofm4uc6,IYrfrDmJ,2020-0188,2020-05-21,14:43:58,15:00:48,NA,incomplete,35,color,1,right,Blue_Triangle_Chess_2.jpg,Purple_Plus_Chess_1.jpg,Blue_Star_Grid_4.jpg,left,1104.0749999810942,false,low,NA,NA,NA,NA,NA,NA,NA,false
IYrfrDmJ,3dzkabx20liukfefnqxhosng7x6cv3,3yz8upk3vxzwukn992sehqhofm4uc6,IYrfrDmJ,2020-0188,2020-05-21,14:43:58,15:00:48,NA,incomplete,36,color,1,right,Purple_Circle_Chess_3.jpg,Red_Star_Chess_4.jpg,Purple_Plus_Grid_2.jpg,right,663.9999999897555,true,low,NA,NA,NA,NA,NA,NA,NA,false
IYrfrDmJ,3dzkabx20liukfefnqxhosng7x6cv3,3yz8upk3vxzwukn992sehqhofm4uc6,IYrfrDmJ,2020-0188,2020-05-21,14:43:58,15:00:48,NA,incomplete,37,color,1,left,Green_Star_Chess_4.jpg,Green_Circle_Stripes_3.jpg,Red_Plus_Chess_1.jpg,left,1203.2950000138953,true,low,NA,NA,NA,NA,NA,NA,NA,false
IYrfrDmJ,3dzkabx20liukfefnqxhosng7x6cv3,3yz8upk3vxzwukn992sehqhofm4uc6,IYrfrDmJ,2020-0188,2020-05-21,14:43:58,15:00:48,NA,incomplete,38,color,1,right,Green_Circle_Dots_2.jpg,Red_Plus_Dots_3.jpg,Green_Star_Chess_4.jpg,right,757.1250000037253,true,low,NA,NA,NA,NA,NA,NA,NA,false
IYrfrDmJ,3dzkabx20liukfefnqxhosng7x6cv3,3yz8upk3vxzwukn992sehqhofm4uc6,IYrfrDmJ,2020-0188,2020-05-21,14:43:58,15:00:48,NA,incomplete,39,color,1,right,Green_Star_Stripes_3.jpg,Red_Triangle_Stripes_1.jpg,Green_Circle_Grid_4.jpg,right,563.6649999651127,true,low,NA,NA,NA,NA,NA,NA,NA,false
IYrfrDmJ,3dzkabx20liukfefnqxhosng7x6cv3,3yz8upk3vxzwukn992sehqhofm4uc6,IYrfrDmJ,2020-0188,2020-05-21,14:43:58,15:00:48,NA,incomplete,40,color,1,right,Blue_Star_Stripes_2.jpg,Purple_Circle_Stripes_3.jpg,Blue_Plus_Grid_4.jpg,right,448.8800000399351,true,low,NA,NA,NA,NA,NA,NA,NA,false
IYrfrDmJ,3dzkabx20liukfefnqxhosng7x6cv3,3yz8upk3vxzwukn992sehqhofm4uc6,IYrfrDmJ,2020-0188,2020-05-21,14:43:58,15:00:48,NA,incomplete,41,color,0,left,Blue_Plus_Dots_1.jpg,Blue_Triangle_Stripes_3.jpg,Purple_Circle_Dots_2.jpg,left,460.67499998025596,true,low,NA,NA,NA,NA,NA,NA,NA,false
IYrfrDmJ,3dzkabx20liukfefnqxhosng7x6cv3,3yz8upk3vxzwukn992sehqhofm4uc6,IYrfrDmJ,2020-0188,2020-05-21,14:43:58,15:00:48,NA,incomplete,42,color,0,left,Green_Circle_Dots_3.jpg,Green_Triangle_Chess_2.jpg,Blue_Star_Dots_4.jpg,left,494.11499995039776,true,low,NA,NA,NA,NA,NA,NA,NA,false
IYrfrDmJ,3dzkabx20liukfefnqxhosng7x6cv3,3yz8upk3vxzwukn992sehqhofm4uc6,IYrfrDmJ,2020-0188,2020-05-21,14:43:58,15:00:48,NA,incomplete,43,color,1,left,Blue_Circle_Stripes_1.jpg,Blue_Triangle_Chess_4.jpg,Purple_Star_Stripes_3.jpg,left,934.1550000244752,true,low,NA,NA,NA,NA,NA,NA,NA,false
IYrfrDmJ,3dzkabx20liukfefnqxhosng7x6cv3,3yz8upk3vxzwukn992sehqhofm4uc6,IYrfrDmJ,2020-0188,2020-05-21,14:43:58,15:00:48,NA,incomplete,44,color,1,left,Blue_Circle_Stripes_2.jpg,Blue_Star_Grid_1.jpg,Red_Plus_Stripes_3.jpg,left,621.805000002496,true,low,NA,NA,NA,NA,NA,NA,NA,false
IYrfrDmJ,3dzkabx20liukfefnqxhosng7x6cv3,3yz8upk3vxzwukn992sehqhofm4uc6,IYrfrDmJ,2020-0188,2020-05-21,14:43:58,15:00:48,NA,incomplete,45,color,1,left,Red_Triangle_Chess_1.jpg,Red_Circle_Stripes_4.jpg,Purple_Star_Chess_2.jpg,left,432.3549999971874,true,low,NA,NA,NA,NA,NA,NA,NA,false
IYrfrDmJ,3dzkabx20liukfefnqxhosng7x6cv3,3yz8upk3vxzwukn992sehqhofm4uc6,IYrfrDmJ,2020-0188,2020-05-21,14:43:58,15:00:48,NA,incomplete,46,color,1,right,Blue_Circle_Grid_2.jpg,Red_Plus_Grid_4.jpg,Blue_Triangle_Dots_1.jpg,right,492.38000001059845,true,low,NA,NA,NA,NA,NA,NA,NA,false
IYrfrDmJ,3dzkabx20liukfefnqxhosng7x6cv3,3yz8upk3vxzwukn992sehqhofm4uc6,IYrfrDmJ,2020-0188,2020-05-21,14:43:58,15:00:48,NA,incomplete,47,color,1,right,Purple_Triangle_Chess_2.jpg,Red_Circle_Chess_1.jpg,Purple_Plus_Grid_4.jpg,right,500.6400000420399,true,low,NA,NA,NA,NA,NA,NA,NA,false
IYrfrDmJ,3dzkabx20liukfefnqxhosng7x6cv3,3yz8upk3vxzwukn992sehqhofm4uc6,IYrfrDmJ,2020-0188,2020-05-21,14:43:58,15:00:48,NA,incomplete,48,color,1,left,Blue_Circle_Chess_3.jpg,Blue_Plus_Grid_2.jpg,Purple_Star_Chess_1.jpg,left,460.6599999824539,true,low,NA,NA,NA,NA,NA,NA,NA,false
IYrfrDmJ,3dzkabx20liukfefnqxhosng7x6cv3,3yz8upk3vxzwukn992sehqhofm4uc6,IYrfrDmJ,2020-0188,2020-05-21,14:43:58,15:00:48,NA,incomplete,49,color,1,right,Purple_Star_Dots_3.jpg,Green_Triangle_Dots_2.jpg,Purple_Plus_Stripes_4.jpg,right,438.495000009425,true,low,NA,NA,NA,NA,NA,NA,NA,false
IYrfrDmJ,3dzkabx20liukfefnqxhosng7x6cv3,3yz8upk3vxzwukn992sehqhofm4uc6,IYrfrDmJ,2020-0188,2020-05-21,14:43:58,15:00:48,NA,incomplete,50,color,1,left,Blue_Circle_Grid_1.jpg,Blue_Plus_Chess_4.jpg,Purple_Triangle_Grid_3.jpg,left,481.68000002624467,true,low,NA,NA,NA,NA,NA,NA,NA,false
IYrfrDmJ,3dzkabx20liukfefnqxhosng7x6cv3,3yz8upk3vxzwukn992sehqhofm4uc6,IYrfrDmJ,2020-0188,2020-05-21,14:43:58,15:00:48,NA,incomplete,51,color,1,right,Green_Triangle_Stripes_3.jpg,Red_Circle_Stripes_1.jpg,Green_Plus_Dots_4.jpg,right,371.7249999754131,true,low,NA,NA,NA,NA,NA,NA,NA,false
IYrfrDmJ,3dzkabx20liukfefnqxhosng7x6cv3,3yz8upk3vxzwukn992sehqhofm4uc6,IYrfrDmJ,2020-0188,2020-05-21,14:43:58,15:00:48,NA,incomplete,52,color,1,left,Red_Plus_Dots_4.jpg,Red_Circle_Stripes_2.jpg,Green_Triangle_Dots_1.jpg,left,392.4000000115484,true,low,NA,NA,NA,NA,NA,NA,NA,false
IYrfrDmJ,3dzkabx20liukfefnqxhosng7x6cv3,3yz8upk3vxzwukn992sehqhofm4uc6,IYrfrDmJ,2020-0188,2020-05-21,14:43:58,15:00:48,NA,incomplete,53,color,1,left,Red_Plus_Grid_3.jpg,Red_Star_Stripes_1.jpg,Green_Circle_Grid_2.jpg,left,451.4149999595247,true,low,NA,NA,NA,NA,NA,NA,NA,false
IYrfrDmJ,3dzkabx20liukfefnqxhosng7x6cv3,3yz8upk3vxzwukn992sehqhofm4uc6,IYrfrDmJ,2020-0188,2020-05-21,14:43:58,15:00:48,NA,incomplete,54,color,1,left,Red_Triangle_Stripes_3.jpg,Red_Plus_Grid_2.jpg,Green_Circle_Stripes_4.jpg,left,488.10000001685694,true,low,NA,NA,NA,NA,NA,NA,NA,false
IYrfrDmJ,3dzkabx20liukfefnqxhosng7x6cv3,3yz8upk3vxzwukn992sehqhofm4uc6,IYrfrDmJ,2020-0188,2020-05-21,14:43:58,15:00:48,NA,incomplete,55,color,1,right,Red_Star_Chess_4.jpg,Blue_Triangle_Chess_2.jpg,Red_Circle_Stripes_1.jpg,right,425.0400000018999,true,low,NA,NA,NA,NA,NA,NA,NA,false
IYrfrDmJ,3dzkabx20liukfefnqxhosng7x6cv3,3yz8upk3vxzwukn992sehqhofm4uc6,IYrfrDmJ,2020-0188,2020-05-21,14:43:58,15:00:48,NA,incomplete,56,color,1,left,Blue_Star_Grid_3.jpg,Blue_Circle_Chess_4.jpg,Red_Plus_Grid_1.jpg,left,404.01500003645197,true,low,NA,NA,NA,NA,NA,NA,NA,false
IYrfrDmJ,3dzkabx20liukfefnqxhosng7x6cv3,3yz8upk3vxzwukn992sehqhofm4uc6,IYrfrDmJ,2020-0188,2020-05-21,14:43:58,15:00:48,NA,incomplete,57,color,0,right,Blue_Triangle_Chess_2.jpg,Green_Circle_Chess_1.jpg,Blue_Plus_Dots_4.jpg,right,440.0550000136718,true,low,NA,NA,NA,NA,NA,NA,NA,false
IYrfrDmJ,3dzkabx20liukfefnqxhosng7x6cv3,3yz8upk3vxzwukn992sehqhofm4uc6,IYrfrDmJ,2020-0188,2020-05-21,14:43:58,15:00:48,NA,incomplete,58,color,1,right,Red_Triangle_Dots_2.jpg,Green_Circle_Dots_4.jpg,Red_Plus_Chess_3.jpg,right,634.5849999925122,true,low,NA,NA,NA,NA,NA,NA,NA,false
IYrfrDmJ,3dzkabx20liukfefnqxhosng7x6cv3,3yz8upk3vxzwukn992sehqhofm4uc6,IYrfrDmJ,2020-0188,2020-05-21,14:43:58,15:00:48,NA,incomplete,59,color,1,left,Green_Star_Stripes_2.jpg,Green_Plus_Chess_3.jpg,Red_Circle_Stripes_4.jpg,left,500.7850000401959,true,low,NA,NA,NA,NA,NA,NA,NA,false
IYrfrDmJ,3dzkabx20liukfefnqxhosng7x6cv3,3yz8upk3vxzwukn992sehqhofm4uc6,IYrfrDmJ,2020-0188,2020-05-21,14:43:58,15:00:48,NA,incomplete,60,filling,1,right,Red_Star_Stripes_1.jpg,Red_Circle_Dots_3.jpg,Blue_Plus_Stripes_2.jpg,left,461.3499999977648,false,low,NA,NA,NA,NA,NA,NA,NA,false
IYrfrDmJ,3dzkabx20liukfefnqxhosng7x6cv3,3yz8upk3vxzwukn992sehqhofm4uc6,IYrfrDmJ,2020-0188,2020-05-21,14:43:58,15:00:48,NA,incomplete,61,filling,1,right,Green_Star_Chess_4.jpg,Green_Plus_Stripes_3.jpg,Purple_Circle_Chess_1.jpg,left,439.3049999489449,false,low,NA,NA,NA,NA,NA,NA,NA,false
IYrfrDmJ,3dzkabx20liukfefnqxhosng7x6cv3,3yz8upk3vxzwukn992sehqhofm4uc6,IYrfrDmJ,2020-0188,2020-05-21,14:43:58,15:00:48,NA,incomplete,62,filling,0,left,Blue_Circle_Dots_4.jpg,Red_Plus_Dots_2.jpg,Blue_Star_Chess_1.jpg,left,938.2699999841861,true,low,NA,NA,NA,NA,NA,NA,NA,false
IYrfrDmJ,3dzkabx20liukfefnqxhosng7x6cv3,3yz8upk3vxzwukn992sehqhofm4uc6,IYrfrDmJ,2020-0188,2020-05-21,14:43:58,15:00:48,NA,incomplete,63,filling,1,left,Green_Triangle_Dots_1.jpg,Purple_Star_Dots_2.jpg,Green_Circle_Grid_3.jpg,right,560.7749999617226,false,low,NA,NA,NA,NA,NA,NA,NA,false
IYrfrDmJ,3dzkabx20liukfefnqxhosng7x6cv3,3yz8upk3vxzwukn992sehqhofm4uc6,IYrfrDmJ,2020-0188,2020-05-21,14:43:58,15:00:48,NA,incomplete,64,filling,1,right,Blue_Star_Stripes_2.jpg,Blue_Triangle_Chess_3.jpg,Purple_Circle_Stripes_4.jpg,right,1103.1899999943562,true,low,NA,NA,NA,NA,NA,NA,NA,false
IYrfrDmJ,3dzkabx20liukfefnqxhosng7x6cv3,3yz8upk3vxzwukn992sehqhofm4uc6,IYrfrDmJ,2020-0188,2020-05-21,14:43:58,15:00:48,NA,incomplete,65,filling,0,right,Blue_Triangle_Chess_1.jpg,Blue_Star_Dots_4.jpg,Green_Plus_Chess_3.jpg,right,943.2050000177696,true,low,NA,NA,NA,NA,NA,NA,NA,false
IYrfrDmJ,3dzkabx20liukfefnqxhosng7x6cv3,3yz8upk3vxzwukn992sehqhofm4uc6,IYrfrDmJ,2020-0188,2020-05-21,14:43:58,15:00:48,NA,incomplete,66,filling,0,left,Green_Plus_Chess_3.jpg,Blue_Circle_Chess_2.jpg,Green_Star_Dots_1.jpg,left,829.0999999735504,true,low,NA,NA,NA,NA,NA,NA,NA,false
IYrfrDmJ,3dzkabx20liukfefnqxhosng7x6cv3,3yz8upk3vxzwukn992sehqhofm4uc6,IYrfrDmJ,2020-0188,2020-05-21,14:43:58,15:00:48,NA,incomplete,67,filling,0,left,Blue_Star_Stripes_4.jpg,Purple_Plus_Stripes_2.jpg,Blue_Circle_Dots_1.jpg,left,1136.91999996081,true,low,NA,NA,NA,NA,NA,NA,NA,false
IYrfrDmJ,3dzkabx20liukfefnqxhosng7x6cv3,3yz8upk3vxzwukn992sehqhofm4uc6,IYrfrDmJ,2020-0188,2020-05-21,14:43:58,15:00:48,NA,incomplete,68,filling,0,left,Purple_Triangle_Grid_3.jpg,Blue_Star_Grid_4.jpg,Purple_Circle_Stripes_2.jpg,right,599.8099999851547,false,low,NA,NA,NA,NA,NA,NA,NA,false
IYrfrDmJ,3dzkabx20liukfefnqxhosng7x6cv3,3yz8upk3vxzwukn992sehqhofm4uc6,IYrfrDmJ,2020-0188,2020-05-21,14:43:58,15:00:48,NA,incomplete,69,filling,1,right,Purple_Circle_Grid_1.jpg,Purple_Plus_Stripes_3.jpg,Red_Triangle_Grid_2.jpg,left,643.5799999744631,false,low,NA,NA,NA,NA,NA,NA,NA,false
IYrfrDmJ,3dzkabx20liukfefnqxhosng7x6cv3,3yz8upk3vxzwukn992sehqhofm4uc6,IYrfrDmJ,2020-0188,2020-05-21,14:43:58,15:00:48,NA,incomplete,70,filling,1,left,Green_Triangle_Stripes_1.jpg,Blue_Star_Stripes_4.jpg,Green_Circle_Chess_3.jpg,right,1094.8349999962375,false,low,NA,NA,NA,NA,NA,NA,NA,false
IYrfrDmJ,3dzkabx20liukfefnqxhosng7x6cv3,3yz8upk3vxzwukn992sehqhofm4uc6,IYrfrDmJ,2020-0188,2020-05-21,14:43:58,15:00:48,NA,incomplete,71,filling,1,left,Purple_Circle_Grid_2.jpg,Blue_Star_Grid_1.jpg,Purple_Triangle_Dots_4.jpg,left,1119.1149999503978,true,low,NA,NA,NA,NA,NA,NA,NA,false
IYrfrDmJ,3dzkabx20liukfefnqxhosng7x6cv3,3yz8upk3vxzwukn992sehqhofm4uc6,IYrfrDmJ,2020-0188,2020-05-21,14:43:58,15:00:48,NA,incomplete,72,filling,1,left,Green_Plus_Chess_3.jpg,Blue_Triangle_Chess_1.jpg,Green_Circle_Grid_2.jpg,left,998.4649999532849,true,low,NA,NA,NA,NA,NA,NA,NA,false
IYrfrDmJ,3dzkabx20liukfefnqxhosng7x6cv3,3yz8upk3vxzwukn992sehqhofm4uc6,IYrfrDmJ,2020-0188,2020-05-21,14:43:58,15:00:48,NA,incomplete,73,filling,1,right,Red_Triangle_Chess_3.jpg,Red_Circle_Dots_4.jpg,Green_Star_Chess_1.jpg,right,786.5250000031665,true,low,NA,NA,NA,NA,NA,NA,NA,false
IYrfrDmJ,3dzkabx20liukfefnqxhosng7x6cv3,3yz8upk3vxzwukn992sehqhofm4uc6,IYrfrDmJ,2020-0188,2020-05-21,14:43:58,15:00:48,NA,incomplete,74,filling,1,right,Purple_Plus_Grid_3.jpg,Purple_Triangle_Stripes_4.jpg,Red_Circle_Grid_1.jpg,right,1096.5999999898486,true,low,NA,NA,NA,NA,NA,NA,NA,false
IYrfrDmJ,3dzkabx20liukfefnqxhosng7x6cv3,3yz8upk3vxzwukn992sehqhofm4uc6,IYrfrDmJ,2020-0188,2020-05-21,14:43:58,15:00:48,NA,incomplete,75,filling,0,left,Purple_Star_Stripes_1.jpg,Green_Triangle_Stripes_4.jpg,Purple_Circle_Chess_3.jpg,left,864.6900000167079,true,low,NA,NA,NA,NA,NA,NA,NA,false
IYrfrDmJ,3dzkabx20liukfefnqxhosng7x6cv3,3yz8upk3vxzwukn992sehqhofm4uc6,IYrfrDmJ,2020-0188,2020-05-21,14:43:58,15:00:48,NA,incomplete,76,filling,1,left,Green_Plus_Stripes_1.jpg,Red_Triangle_Stripes_4.jpg,Green_Star_Dots_2.jpg,left,867.2050000168383,true,low,NA,NA,NA,NA,NA,NA,NA,false
IYrfrDmJ,3dzkabx20liukfefnqxhosng7x6cv3,3yz8upk3vxzwukn992sehqhofm4uc6,IYrfrDmJ,2020-0188,2020-05-21,14:43:58,15:00:48,NA,incomplete,77,filling,1,right,Blue_Plus_Stripes_4.jpg,Blue_Circle_Chess_3.jpg,Red_Triangle_Stripes_2.jpg,right,964.4499999703839,true,low,NA,NA,NA,NA,NA,NA,NA,false
IYrfrDmJ,3dzkabx20liukfefnqxhosng7x6cv3,3yz8upk3vxzwukn992sehqhofm4uc6,IYrfrDmJ,2020-0188,2020-05-21,14:43:58,15:00:48,NA,incomplete,78,filling,1,right,Red_Plus_Dots_1.jpg,Red_Circle_Stripes_4.jpg,Green_Star_Dots_3.jpg,right,930.4800000390969,true,low,NA,NA,NA,NA,NA,NA,NA,false
IYrfrDmJ,3dzkabx20liukfefnqxhosng7x6cv3,3yz8upk3vxzwukn992sehqhofm4uc6,IYrfrDmJ,2020-0188,2020-05-21,14:43:58,15:00:48,NA,incomplete,79,filling,1,right,Green_Circle_Stripes_2.jpg,Green_Triangle_Grid_3.jpg,Purple_Star_Stripes_1.jpg,right,930.3150000050664,true,low,NA,NA,NA,NA,NA,NA,NA,false
IYrfrDmJ,3dzkabx20liukfefnqxhosng7x6cv3,3yz8upk3vxzwukn992sehqhofm4uc6,IYrfrDmJ,2020-0188,2020-05-21,14:43:58,15:00:48,NA,incomplete,80,filling,0,right,Purple_Plus_Stripes_4.jpg,Purple_Triangle_Dots_1.jpg,Red_Circle_Stripes_3.jpg,right,857.5549999950454,true,low,NA,NA,NA,NA,NA,NA,NA,false
IYrfrDmJ,3dzkabx20liukfefnqxhosng7x6cv3,3yz8upk3vxzwukn992sehqhofm4uc6,IYrfrDmJ,2020-0188,2020-05-21,14:43:58,15:00:48,NA,incomplete,81,filling,1,left,Purple_Plus_Stripes_1.jpg,Green_Circle_Stripes_4.jpg,Purple_Triangle_Dots_3.jpg,left,1723.299999954179,true,low,NA,NA,NA,NA,NA,NA,NA,false
IYrfrDmJ,3dzkabx20liukfefnqxhosng7x6cv3,3yz8upk3vxzwukn992sehqhofm4uc6,IYrfrDmJ,2020-0188,2020-05-21,14:43:58,15:00:48,NA,incomplete,82,filling,1,left,Purple_Circle_Stripes_1.jpg,Red_Star_Stripes_2.jpg,Purple_Triangle_Grid_3.jpg,left,1075.2100000390783,true,low,NA,NA,NA,NA,NA,NA,NA,false
IYrfrDmJ,3dzkabx20liukfefnqxhosng7x6cv3,3yz8upk3vxzwukn992sehqhofm4uc6,IYrfrDmJ,2020-0188,2020-05-21,14:43:58,15:00:48,NA,incomplete,83,filling,1,right,Blue_Circle_Grid_3.jpg,Blue_Triangle_Chess_2.jpg,Purple_Plus_Grid_1.jpg,right,955.7450000429526,true,low,NA,NA,NA,NA,NA,NA,NA,false
IYrfrDmJ,3dzkabx20liukfefnqxhosng7x6cv3,3yz8upk3vxzwukn992sehqhofm4uc6,IYrfrDmJ,2020-0188,2020-05-21,14:43:58,15:00:48,NA,incomplete,84,filling,1,left,Red_Triangle_Chess_2.jpg,Blue_Circle_Chess_4.jpg,Red_Star_Grid_3.jpg,left,865.8849999774247,true,low,NA,NA,NA,NA,NA,NA,NA,false
IYrfrDmJ,3dzkabx20liukfefnqxhosng7x6cv3,3yz8upk3vxzwukn992sehqhofm4uc6,IYrfrDmJ,2020-0188,2020-05-21,14:43:58,15:00:48,NA,incomplete,85,filling,1,right,Red_Star_Grid_1.jpg,Red_Circle_Stripes_4.jpg,Green_Plus_Grid_2.jpg,right,1268.0149999796413,true,low,NA,NA,NA,NA,NA,NA,NA,false
IYrfrDmJ,3dzkabx20liukfefnqxhosng7x6cv3,3yz8upk3vxzwukn992sehqhofm4uc6,IYrfrDmJ,2020-0188,2020-05-21,14:43:58,15:00:48,NA,incomplete,86,filling,1,right,Green_Plus_Grid_4.jpg,Green_Star_Dots_3.jpg,Red_Triangle_Grid_2.jpg,right,821.6649999958463,true,low,NA,NA,NA,NA,NA,NA,NA,false
IYrfrDmJ,3dzkabx20liukfefnqxhosng7x6cv3,3yz8upk3vxzwukn992sehqhofm4uc6,IYrfrDmJ,2020-0188,2020-05-21,14:43:58,15:00:48,NA,incomplete,87,filling,0,left,Purple_Plus_Chess_4.jpg,Blue_Circle_Chess_1.jpg,Purple_Triangle_Stripes_2.jpg,left,904.5250000199303,true,low,NA,NA,NA,NA,NA,NA,NA,false
IYrfrDmJ,3dzkabx20liukfefnqxhosng7x6cv3,3yz8upk3vxzwukn992sehqhofm4uc6,IYrfrDmJ,2020-0188,2020-05-21,14:43:58,15:00:48,NA,incomplete,88,filling,1,right,Green_Star_Chess_2.jpg,Green_Plus_Dots_3.jpg,Blue_Triangle_Chess_1.jpg,right,1040.2350000222214,true,low,NA,NA,NA,NA,NA,NA,NA,false
IYrfrDmJ,3dzkabx20liukfefnqxhosng7x6cv3,3yz8upk3vxzwukn992sehqhofm4uc6,IYrfrDmJ,2020-0188,2020-05-21,14:43:58,15:00:48,NA,incomplete,89,filling,1,left,Blue_Plus_Stripes_2.jpg,Red_Star_Stripes_3.jpg,Blue_Circle_Dots_4.jpg,left,896.5350000071339,true,low,NA,NA,NA,NA,NA,NA,NA,false
IYrfrDmJ,3dzkabx20liukfefnqxhosng7x6cv3,3yz8upk3vxzwukn992sehqhofm4uc6,IYrfrDmJ,2020-0188,2020-05-21,14:43:58,15:00:48,NA,incomplete,90,color,1,right,Blue_Star_Grid_3.jpg,Red_Plus_Grid_2.jpg,Blue_Circle_Chess_1.jpg,left,996.3550000102259,false,low,NA,NA,NA,NA,NA,NA,NA,false
IYrfrDmJ,3dzkabx20liukfefnqxhosng7x6cv3,3yz8upk3vxzwukn992sehqhofm4uc6,IYrfrDmJ,2020-0188,2020-05-21,14:43:58,15:00:48,NA,incomplete,91,color,1,left,Blue_Triangle_Chess_1.jpg,Blue_Circle_Dots_3.jpg,Green_Star_Chess_4.jpg,right,920.8299999590963,false,low,NA,NA,NA,NA,NA,NA,NA,false
IYrfrDmJ,3dzkabx20liukfefnqxhosng7x6cv3,3yz8upk3vxzwukn992sehqhofm4uc6,IYrfrDmJ,2020-0188,2020-05-21,14:43:58,15:00:48,NA,incomplete,92,color,1,left,Blue_Plus_Stripes_3.jpg,Blue_Circle_Chess_1.jpg,Purple_Triangle_Stripes_4.jpg,right,1552.6149999932386,false,low,NA,NA,NA,NA,NA,NA,NA,false
IYrfrDmJ,3dzkabx20liukfefnqxhosng7x6cv3,3yz8upk3vxzwukn992sehqhofm4uc6,IYrfrDmJ,2020-0188,2020-05-21,14:43:58,15:00:48,NA,incomplete,93,color,1,right,Blue_Triangle_Dots_3.jpg,Purple_Plus_Dots_1.jpg,Blue_Circle_Stripes_2.jpg,right,613.3649999974295,true,low,NA,NA,NA,NA,NA,NA,NA,false
IYrfrDmJ,3dzkabx20liukfefnqxhosng7x6cv3,3yz8upk3vxzwukn992sehqhofm4uc6,IYrfrDmJ,2020-0188,2020-05-21,14:43:58,15:00:48,NA,incomplete,94,color,0,left,Blue_Star_Dots_2.jpg,Blue_Plus_Stripes_4.jpg,Green_Circle_Dots_3.jpg,left,650.0450000166893,true,low,NA,NA,NA,NA,NA,NA,NA,false
IYrfrDmJ,3dzkabx20liukfefnqxhosng7x6cv3,3yz8upk3vxzwukn992sehqhofm4uc6,IYrfrDmJ,2020-0188,2020-05-21,14:43:58,15:00:48,NA,incomplete,95,color,1,left,Purple_Star_Stripes_4.jpg,Purple_Plus_Grid_3.jpg,Blue_Circle_Stripes_2.jpg,left,813.0849999724887,true,low,NA,NA,NA,NA,NA,NA,NA,false
IYrfrDmJ,3dzkabx20liukfefnqxhosng7x6cv3,3yz8upk3vxzwukn992sehqhofm4uc6,IYrfrDmJ,2020-0188,2020-05-21,14:43:58,15:00:48,NA,incomplete,96,color,1,left,Blue_Triangle_Grid_3.jpg,Blue_Circle_Chess_2.jpg,Green_Plus_Grid_1.jpg,left,656.7999999970198,true,low,NA,NA,NA,NA,NA,NA,NA,false
IYrfrDmJ,3dzkabx20liukfefnqxhosng7x6cv3,3yz8upk3vxzwukn992sehqhofm4uc6,IYrfrDmJ,2020-0188,2020-05-21,14:43:58,15:00:48,NA,incomplete,97,color,1,left,Blue_Circle_Stripes_4.jpg,Blue_Star_Chess_2.jpg,Red_Plus_Stripes_3.jpg,left,651.9650000263937,true,low,NA,NA,NA,NA,NA,NA,NA,false
IYrfrDmJ,3dzkabx20liukfefnqxhosng7x6cv3,3yz8upk3vxzwukn992sehqhofm4uc6,IYrfrDmJ,2020-0188,2020-05-21,14:43:58,15:00:48,NA,incomplete,98,color,1,left,Red_Triangle_Dots_4.jpg,Red_Plus_Chess_2.jpg,Blue_Star_Dots_3.jpg,left,524.3849999969825,true,low,NA,NA,NA,NA,NA,NA,NA,false
IYrfrDmJ,3dzkabx20liukfefnqxhosng7x6cv3,3yz8upk3vxzwukn992sehqhofm4uc6,IYrfrDmJ,2020-0188,2020-05-21,14:43:58,15:00:48,NA,incomplete,99,color,1,left,Green_Star_Stripes_3.jpg,Green_Circle_Dots_2.jpg,Red_Triangle_Stripes_4.jpg,left,411.03499999735504,true,low,NA,NA,NA,NA,NA,NA,NA,false
IYrfrDmJ,3dzkabx20liukfefnqxhosng7x6cv3,3yz8upk3vxzwukn992sehqhofm4uc6,IYrfrDmJ,2020-0188,2020-05-21,14:43:58,15:00:48,NA,incomplete,100,color,1,left,Purple_Circle_Stripes_2.jpg,Purple_Plus_Chess_1.jpg,Green_Star_Stripes_3.jpg,left,552.28999996325,true,low,NA,NA,NA,NA,NA,NA,NA,false
IYrfrDmJ,3dzkabx20liukfefnqxhosng7x6cv3,3yz8upk3vxzwukn992sehqhofm4uc6,IYrfrDmJ,2020-0188,2020-05-21,14:43:58,15:00:48,NA,incomplete,101,color,1,left,Green_Circle_Stripes_3.jpg,Green_Triangle_Chess_2.jpg,Blue_Plus_Stripes_4.jpg,left,414.0349999652244,true,low,NA,NA,NA,NA,NA,NA,NA,false
IYrfrDmJ,3dzkabx20liukfefnqxhosng7x6cv3,3yz8upk3vxzwukn992sehqhofm4uc6,IYrfrDmJ,2020-0188,2020-05-21,14:43:58,15:00:48,NA,incomplete,102,color,1,right,Purple_Circle_Grid_2.jpg,Blue_Plus_Grid_4.jpg,Purple_Star_Dots_1.jpg,right,450.4150000284426,true,low,NA,NA,NA,NA,NA,NA,NA,false
IYrfrDmJ,3dzkabx20liukfefnqxhosng7x6cv3,3yz8upk3vxzwukn992sehqhofm4uc6,IYrfrDmJ,2020-0188,2020-05-21,14:43:58,15:00:48,NA,incomplete,103,color,1,right,Purple_Star_Grid_1.jpg,Green_Plus_Grid_3.jpg,Purple_Circle_Stripes_2.jpg,right,437.6349999802187,true,low,NA,NA,NA,NA,NA,NA,NA,false
IYrfrDmJ,3dzkabx20liukfefnqxhosng7x6cv3,3yz8upk3vxzwukn992sehqhofm4uc6,IYrfrDmJ,2020-0188,2020-05-21,14:43:58,15:00:48,NA,incomplete,104,color,0,left,Green_Plus_Stripes_2.jpg,Green_Star_Dots_3.jpg,Purple_Triangle_Stripes_1.jpg,left,439.05499996617436,true,low,NA,NA,NA,NA,NA,NA,NA,false
IYrfrDmJ,3dzkabx20liukfefnqxhosng7x6cv3,3yz8upk3vxzwukn992sehqhofm4uc6,IYrfrDmJ,2020-0188,2020-05-21,14:43:58,15:00:48,NA,incomplete,105,color,0,left,Blue_Star_Chess_3.jpg,Blue_Circle_Dots_1.jpg,Purple_Plus_Chess_4.jpg,left,858.3199999993667,true,low,NA,NA,NA,NA,NA,NA,NA,false
IYrfrDmJ,3dzkabx20liukfefnqxhosng7x6cv3,3yz8upk3vxzwukn992sehqhofm4uc6,IYrfrDmJ,2020-0188,2020-05-21,14:43:58,15:00:48,NA,incomplete,106,color,1,right,Green_Plus_Stripes_2.jpg,Purple_Star_Stripes_1.jpg,Green_Circle_Chess_3.jpg,right,830.5299999774434,true,low,NA,NA,NA,NA,NA,NA,NA,false
IYrfrDmJ,3dzkabx20liukfefnqxhosng7x6cv3,3yz8upk3vxzwukn992sehqhofm4uc6,IYrfrDmJ,2020-0188,2020-05-21,14:43:58,15:00:48,NA,incomplete,107,color,0,right,Purple_Triangle_Dots_4.jpg,Red_Star_Dots_1.jpg,Purple_Circle_Chess_3.jpg,right,887.5000000116415,true,low,NA,NA,NA,NA,NA,NA,NA,false
IYrfrDmJ,3dzkabx20liukfefnqxhosng7x6cv3,3yz8upk3vxzwukn992sehqhofm4uc6,IYrfrDmJ,2020-0188,2020-05-21,14:43:58,15:00:48,NA,incomplete,108,color,1,left,Red_Star_Stripes_3.jpg,Red_Plus_Dots_4.jpg,Purple_Circle_Stripes_1.jpg,right,1240.6649999902584,false,low,NA,NA,NA,NA,NA,NA,NA,false
IYrfrDmJ,3dzkabx20liukfefnqxhosng7x6cv3,3yz8upk3vxzwukn992sehqhofm4uc6,IYrfrDmJ,2020-0188,2020-05-21,14:43:58,15:00:48,NA,incomplete,109,color,1,right,Blue_Plus_Chess_3.jpg,Green_Star_Chess_2.jpg,Blue_Circle_Dots_1.jpg,right,667.1849999693222,true,low,NA,NA,NA,NA,NA,NA,NA,false
IYrfrDmJ,3dzkabx20liukfefnqxhosng7x6cv3,3yz8upk3vxzwukn992sehqhofm4uc6,IYrfrDmJ,2020-0188,2020-05-21,14:43:58,15:00:48,NA,incomplete,110,color,1,right,Green_Plus_Grid_4.jpg,Blue_Triangle_Grid_1.jpg,Green_Star_Dots_3.jpg,right,484.7050000098534,true,low,NA,NA,NA,NA,NA,NA,NA,false
IYrfrDmJ,3dzkabx20liukfefnqxhosng7x6cv3,3yz8upk3vxzwukn992sehqhofm4uc6,IYrfrDmJ,2020-0188,2020-05-21,14:43:58,15:00:48,NA,incomplete,111,color,1,left,Purple_Plus_Stripes_2.jpg,Purple_Circle_Dots_4.jpg,Red_Star_Stripes_3.jpg,left,557.059999962803,true,low,NA,NA,NA,NA,NA,NA,NA,false
IYrfrDmJ,3dzkabx20liukfefnqxhosng7x6cv3,3yz8upk3vxzwukn992sehqhofm4uc6,IYrfrDmJ,2020-0188,2020-05-21,14:43:58,15:00:48,NA,incomplete,112,color,0,left,Blue_Triangle_Dots_4.jpg,Blue_Plus_Chess_2.jpg,Green_Star_Dots_3.jpg,left,450.7699999958277,true,low,NA,NA,NA,NA,NA,NA,NA,false
IYrfrDmJ,3dzkabx20liukfefnqxhosng7x6cv3,3yz8upk3vxzwukn992sehqhofm4uc6,IYrfrDmJ,2020-0188,2020-05-21,14:43:58,15:00:48,NA,incomplete,113,color,1,left,Red_Star_Stripes_1.jpg,Red_Circle_Dots_3.jpg,Blue_Triangle_Stripes_4.jpg,left,550.3899999894202,true,low,NA,NA,NA,NA,NA,NA,NA,false
IYrfrDmJ,3dzkabx20liukfefnqxhosng7x6cv3,3yz8upk3vxzwukn992sehqhofm4uc6,IYrfrDmJ,2020-0188,2020-05-21,14:43:58,15:00:48,NA,incomplete,114,color,1,left,Green_Triangle_Stripes_1.jpg,Green_Circle_Chess_2.jpg,Red_Plus_Stripes_3.jpg,left,435.5900000082329,true,low,NA,NA,NA,NA,NA,NA,NA,false
IYrfrDmJ,3dzkabx20liukfefnqxhosng7x6cv3,3yz8upk3vxzwukn992sehqhofm4uc6,IYrfrDmJ,2020-0188,2020-05-21,14:43:58,15:00:48,NA,incomplete,115,color,0,right,Green_Circle_Grid_4.jpg,Purple_Star_Grid_1.jpg,Green_Plus_Chess_3.jpg,right,486.25000001629815,true,low,NA,NA,NA,NA,NA,NA,NA,false
IYrfrDmJ,3dzkabx20liukfefnqxhosng7x6cv3,3yz8upk3vxzwukn992sehqhofm4uc6,IYrfrDmJ,2020-0188,2020-05-21,14:43:58,15:00:48,NA,incomplete,116,color,1,right,Green_Triangle_Dots_2.jpg,Purple_Star_Dots_3.jpg,Green_Circle_Grid_1.jpg,right,711.5650000050664,true,low,NA,NA,NA,NA,NA,NA,NA,false
IYrfrDmJ,3dzkabx20liukfefnqxhosng7x6cv3,3yz8upk3vxzwukn992sehqhofm4uc6,IYrfrDmJ,2020-0188,2020-05-21,14:43:58,15:00:48,NA,incomplete,117,color,0,right,Purple_Plus_Grid_4.jpg,Green_Circle_Grid_2.jpg,Purple_Triangle_Chess_3.jpg,right,519.559999986086,true,low,NA,NA,NA,NA,NA,NA,NA,false
IYrfrDmJ,3dzkabx20liukfefnqxhosng7x6cv3,3yz8upk3vxzwukn992sehqhofm4uc6,IYrfrDmJ,2020-0188,2020-05-21,14:43:58,15:00:48,NA,incomplete,118,color,1,right,Green_Triangle_Dots_4.jpg,Purple_Circle_Dots_1.jpg,Green_Plus_Stripes_2.jpg,right,712.6700000371784,true,low,NA,NA,NA,NA,NA,NA,NA,false
IYrfrDmJ,3dzkabx20liukfefnqxhosng7x6cv3,3yz8upk3vxzwukn992sehqhofm4uc6,IYrfrDmJ,2020-0188,2020-05-21,14:43:58,15:00:48,NA,incomplete,119,color,1,right,Blue_Circle_Grid_3.jpg,Purple_Plus_Grid_2.jpg,Blue_Triangle_Chess_1.jpg,right,653.7299999617971,true,low,NA,NA,NA,NA,NA,NA,NA,false
IYrfrDmJ,3dzkabx20liukfefnqxhosng7x6cv3,3yz8upk3vxzwukn992sehqhofm4uc6,IYrfrDmJ,2020-0188,2020-05-21,14:43:58,15:00:48,NA,incomplete,120,number,1,right,Purple_Plus_Chess_2.jpg,Green_Plus_Dots_3.jpg,Blue_Circle_Stripes_2.jpg,NA,NA,NA,low,NA,NA,NA,NA,NA,NA,NA,false
IYrfrDmJ,3dzkabx20liukfefnqxhosng7x6cv3,3yz8upk3vxzwukn992sehqhofm4uc6,IYrfrDmJ,2020-0188,2020-05-21,14:43:58,15:00:48,NA,incomplete,121,number,1,right,Purple_Circle_Grid_1.jpg,Blue_Circle_Chess_4.jpg,Green_Plus_Stripes_1.jpg,right,868.5300000361167,true,low,NA,NA,NA,NA,NA,NA,NA,false
IYrfrDmJ,3dzkabx20liukfefnqxhosng7x6cv3,3yz8upk3vxzwukn992sehqhofm4uc6,IYrfrDmJ,2020-0188,2020-05-21,14:43:58,15:00:48,NA,incomplete,122,number,0,left,Purple_Triangle_Stripes_4.jpg,Red_Star_Chess_4.jpg,Blue_Triangle_Grid_3.jpg,left,997.2849999903701,true,low,NA,NA,NA,NA,NA,NA,NA,false
IYrfrDmJ,3dzkabx20liukfefnqxhosng7x6cv3,3yz8upk3vxzwukn992sehqhofm4uc6,IYrfrDmJ,2020-0188,2020-05-21,14:43:58,15:00:48,NA,incomplete,123,number,1,right,Red_Triangle_Chess_1.jpg,Purple_Triangle_Grid_3.jpg,Blue_Circle_Dots_1.jpg,left,1521.4649999979883,false,low,NA,NA,NA,NA,NA,NA,NA,false
IYrfrDmJ,3dzkabx20liukfefnqxhosng7x6cv3,3yz8upk3vxzwukn992sehqhofm4uc6,IYrfrDmJ,2020-0188,2020-05-21,14:43:58,15:00:48,NA,incomplete,124,number,1,left,Blue_Star_Chess_1.jpg,Green_Triangle_Grid_1.jpg,Purple_Star_Stripes_2.jpg,left,824.5049999677576,true,low,NA,NA,NA,NA,NA,NA,NA,false
IYrfrDmJ,3dzkabx20liukfefnqxhosng7x6cv3,3yz8upk3vxzwukn992sehqhofm4uc6,IYrfrDmJ,2020-0188,2020-05-21,14:43:58,15:00:48,NA,incomplete,125,number,1,left,Green_Star_Stripes_2.jpg,Purple_Triangle_Dots_2.jpg,Blue_Star_Chess_4.jpg,left,789.7300000186078,true,low,NA,NA,NA,NA,NA,NA,NA,false
IYrfrDmJ,3dzkabx20liukfefnqxhosng7x6cv3,3yz8upk3vxzwukn992sehqhofm4uc6,IYrfrDmJ,2020-0188,2020-05-21,14:43:58,15:00:48,NA,incomplete,126,number,0,right,Blue_Plus_Dots_3.jpg,Purple_Plus_Grid_1.jpg,Red_Triangle_Stripes_3.jpg,right,793.4900000109337,true,low,NA,NA,NA,NA,NA,NA,NA,false
IYrfrDmJ,3dzkabx20liukfefnqxhosng7x6cv3,3yz8upk3vxzwukn992sehqhofm4uc6,IYrfrDmJ,2020-0188,2020-05-21,14:43:58,15:00:48,NA,incomplete,127,number,1,right,Green_Plus_Chess_1.jpg,Purple_Plus_Dots_3.jpg,Red_Circle_Grid_1.jpg,right,893.7349999905564,true,low,NA,NA,NA,NA,NA,NA,NA,false
IYrfrDmJ,3dzkabx20liukfefnqxhosng7x6cv3,3yz8upk3vxzwukn992sehqhofm4uc6,IYrfrDmJ,2020-0188,2020-05-21,14:43:58,15:00:48,NA,incomplete,128,number,1,left,Green_Circle_Grid_1.jpg,Blue_Plus_Stripes_1.jpg,Purple_Circle_Dots_2.jpg,left,710.4399999952875,true,low,NA,NA,NA,NA,NA,NA,NA,false
IYrfrDmJ,3dzkabx20liukfefnqxhosng7x6cv3,3yz8upk3vxzwukn992sehqhofm4uc6,IYrfrDmJ,2020-0188,2020-05-21,14:43:58,15:00:48,NA,incomplete,129,number,1,left,Green_Plus_Grid_3.jpg,Blue_Triangle_Stripes_3.jpg,Red_Plus_Dots_1.jpg,left,774.9649999896064,true,low,NA,NA,NA,NA,NA,NA,NA,false
IYrfrDmJ,3dzkabx20liukfefnqxhosng7x6cv3,3yz8upk3vxzwukn992sehqhofm4uc6,IYrfrDmJ,2020-0188,2020-05-21,14:43:58,15:00:48,NA,incomplete,130,number,1,right,Red_Star_Grid_1.jpg,Blue_Star_Stripes_3.jpg,Purple_Circle_Dots_1.jpg,left,996.7849999666214,false,low,NA,NA,NA,NA,NA,NA,NA,false
IYrfrDmJ,3dzkabx20liukfefnqxhosng7x6cv3,3yz8upk3vxzwukn992sehqhofm4uc6,IYrfrDmJ,2020-0188,2020-05-21,14:43:58,15:00:48,NA,incomplete,131,number,1,right,Red_Circle_Dots_4.jpg,Blue_Circle_Grid_1.jpg,Purple_Triangle_Stripes_4.jpg,right,832.4349999893457,true,low,NA,NA,NA,NA,NA,NA,NA,false
IYrfrDmJ,3dzkabx20liukfefnqxhosng7x6cv3,3yz8upk3vxzwukn992sehqhofm4uc6,IYrfrDmJ,2020-0188,2020-05-21,14:43:58,15:00:48,NA,incomplete,132,number,1,left,Green_Plus_Grid_3.jpg,Blue_Star_Stripes_3.jpg,Red_Plus_Chess_2.jpg,left,891.7299999739043,true,low,NA,NA,NA,NA,NA,NA,NA,false
IYrfrDmJ,3dzkabx20liukfefnqxhosng7x6cv3,3yz8upk3vxzwukn992sehqhofm4uc6,IYrfrDmJ,2020-0188,2020-05-21,14:43:58,15:00:48,NA,incomplete,133,number,1,right,Blue_Plus_Stripes_1.jpg,Purple_Plus_Dots_2.jpg,Green_Triangle_Chess_1.jpg,right,732.6350000221282,true,low,NA,NA,NA,NA,NA,NA,NA,false
IYrfrDmJ,3dzkabx20liukfefnqxhosng7x6cv3,3yz8upk3vxzwukn992sehqhofm4uc6,IYrfrDmJ,2020-0188,2020-05-21,14:43:58,15:00:48,NA,incomplete,134,number,1,right,Blue_Plus_Dots_2.jpg,Purple_Plus_Stripes_4.jpg,Green_Star_Grid_2.jpg,right,884.6149999881163,true,low,NA,NA,NA,NA,NA,NA,NA,false
IYrfrDmJ,3dzkabx20liukfefnqxhosng7x6cv3,3yz8upk3vxzwukn992sehqhofm4uc6,IYrfrDmJ,2020-0188,2020-05-21,14:43:58,15:00:48,NA,incomplete,135,number,1,left,Purple_Circle_Grid_2.jpg,Red_Triangle_Dots_2.jpg,Green_Circle_Stripes_4.jpg,left,773.6799999838695,true,low,NA,NA,NA,NA,NA,NA,NA,false
IYrfrDmJ,3dzkabx20liukfefnqxhosng7x6cv3,3yz8upk3vxzwukn992sehqhofm4uc6,IYrfrDmJ,2020-0188,2020-05-21,14:43:58,15:00:48,NA,incomplete,136,number,1,left,Purple_Triangle_Stripes_2.jpg,Green_Plus_Grid_2.jpg,Blue_Triangle_Chess_4.jpg,left,842.5699999788776,true,low,NA,NA,NA,NA,NA,NA,NA,false
IYrfrDmJ,3dzkabx20liukfefnqxhosng7x6cv3,3yz8upk3vxzwukn992sehqhofm4uc6,IYrfrDmJ,2020-0188,2020-05-21,14:43:58,15:00:48,NA,incomplete,137,number,1,left,Blue_Star_Stripes_1.jpg,Red_Triangle_Grid_1.jpg,Purple_Star_Chess_4.jpg,left,1461.559999966994,true,low,NA,NA,NA,NA,NA,NA,NA,false
IYrfrDmJ,3dzkabx20liukfefnqxhosng7x6cv3,3yz8upk3vxzwukn992sehqhofm4uc6,IYrfrDmJ,2020-0188,2020-05-21,14:43:58,15:00:48,NA,incomplete,138,number,1,right,Red_Star_Grid_4.jpg,Green_Star_Dots_1.jpg,Purple_Circle_Chess_4.jpg,right,694.8550000088289,true,low,NA,NA,NA,NA,NA,NA,NA,false
IYrfrDmJ,3dzkabx20liukfefnqxhosng7x6cv3,3yz8upk3vxzwukn992sehqhofm4uc6,IYrfrDmJ,2020-0188,2020-05-21,14:43:58,15:00:48,NA,incomplete,139,number,0,right,Red_Star_Chess_2.jpg,Green_Star_Stripes_4.jpg,Purple_Plus_Grid_2.jpg,left,839.5299999974668,false,low,NA,NA,NA,NA,NA,NA,NA,false
IYrfrDmJ,3dzkabx20liukfefnqxhosng7x6cv3,3yz8upk3vxzwukn992sehqhofm4uc6,IYrfrDmJ,2020-0188,2020-05-21,14:43:58,15:00:48,NA,incomplete,140,shape,1,right,Blue_Plus_Dots_3.jpg,Green_Triangle_Chess_3.jpg,Purple_Plus_Grid_4.jpg,left,1291.510000010021,false,low,NA,NA,NA,NA,NA,NA,NA,false
IYrfrDmJ,3dzkabx20liukfefnqxhosng7x6cv3,3yz8upk3vxzwukn992sehqhofm4uc6,IYrfrDmJ,2020-0188,2020-05-21,14:43:58,15:00:48,NA,incomplete,141,shape,0,left,Purple_Plus_Dots_1.jpg,Red_Plus_Grid_2.jpg,Blue_Circle_Chess_1.jpg,left,765.1649999897927,true,low,NA,NA,NA,NA,NA,NA,NA,false
IYrfrDmJ,3dzkabx20liukfefnqxhosng7x6cv3,3yz8upk3vxzwukn992sehqhofm4uc6,IYrfrDmJ,2020-0188,2020-05-21,14:43:58,15:00:48,NA,incomplete,142,shape,1,left,Red_Circle_Dots_4.jpg,Purple_Circle_Chess_2.jpg,Green_Triangle_Grid_4.jpg,left,1200.4300000262447,true,low,NA,NA,NA,NA,NA,NA,NA,false
IYrfrDmJ,3dzkabx20liukfefnqxhosng7x6cv3,3yz8upk3vxzwukn992sehqhofm4uc6,IYrfrDmJ,2020-0188,2020-05-21,14:43:58,15:00:48,NA,incomplete,143,shape,0,left,Purple_Star_Grid_2.jpg,Blue_Star_Dots_4.jpg,Red_Triangle_Chess_2.jpg,left,806.6499999840744,true,low,NA,NA,NA,NA,NA,NA,NA,false
IYrfrDmJ,3dzkabx20liukfefnqxhosng7x6cv3,3yz8upk3vxzwukn992sehqhofm4uc6,IYrfrDmJ,2020-0188,2020-05-21,14:43:58,15:00:48,NA,incomplete,144,shape,1,right,Red_Star_Dots_2.jpg,Blue_Triangle_Grid_2.jpg,Green_Star_Stripes_1.jpg,right,1073.4250000095926,true,low,NA,NA,NA,NA,NA,NA,NA,false
IYrfrDmJ,3dzkabx20liukfefnqxhosng7x6cv3,3yz8upk3vxzwukn992sehqhofm4uc6,IYrfrDmJ,2020-0188,2020-05-21,14:43:58,15:00:48,NA,incomplete,145,shape,1,left,Purple_Circle_Chess_4.jpg,Green_Circle_Grid_3.jpg,Blue_Star_Stripes_4.jpg,left,986.8199999909848,true,low,NA,NA,NA,NA,NA,NA,NA,false
IYrfrDmJ,3dzkabx20liukfefnqxhosng7x6cv3,3yz8upk3vxzwukn992sehqhofm4uc6,IYrfrDmJ,2020-0188,2020-05-21,14:43:58,15:00:48,NA,incomplete,146,shape,1,left,Green_Star_Chess_1.jpg,Red_Star_Grid_3.jpg,Purple_Plus_Stripes_1.jpg,left,751.1449999874458,true,low,NA,NA,NA,NA,NA,NA,NA,false
IYrfrDmJ,3dzkabx20liukfefnqxhosng7x6cv3,3yz8upk3vxzwukn992sehqhofm4uc6,IYrfrDmJ,2020-0188,2020-05-21,14:43:58,15:00:48,NA,incomplete,147,shape,1,right,Blue_Star_Grid_4.jpg,Purple_Triangle_Stripes_4.jpg,Green_Star_Dots_2.jpg,left,1228.7350000115111,false,low,NA,NA,NA,NA,NA,NA,NA,false
IYrfrDmJ,3dzkabx20liukfefnqxhosng7x6cv3,3yz8upk3vxzwukn992sehqhofm4uc6,IYrfrDmJ,2020-0188,2020-05-21,14:43:58,15:00:48,NA,incomplete,148,shape,1,left,Blue_Circle_Chess_2.jpg,Red_Circle_Dots_3.jpg,Green_Star_Stripes_2.jpg,right,929.0949999704026,false,low,NA,NA,NA,NA,NA,NA,NA,false
IYrfrDmJ,3dzkabx20liukfefnqxhosng7x6cv3,3yz8upk3vxzwukn992sehqhofm4uc6,IYrfrDmJ,2020-0188,2020-05-21,14:43:58,15:00:48,NA,incomplete,149,shape,1,right,Red_Circle_Dots_2.jpg,Green_Plus_Stripes_2.jpg,Purple_Circle_Chess_4.jpg,right,1552.4250000016764,true,low,NA,NA,NA,NA,NA,NA,NA,false
IYrfrDmJ,3dzkabx20liukfefnqxhosng7x6cv3,3yz8upk3vxzwukn992sehqhofm4uc6,IYrfrDmJ,2020-0188,2020-05-21,14:43:58,15:00:48,NA,incomplete,150,shape,1,left,Green_Plus_Chess_1.jpg,Purple_Plus_Dots_3.jpg,Red_Star_Stripes_1.jpg,left,1190.2400000253692,true,low,NA,NA,NA,NA,NA,NA,NA,false
IYrfrDmJ,3dzkabx20liukfefnqxhosng7x6cv3,3yz8upk3vxzwukn992sehqhofm4uc6,IYrfrDmJ,2020-0188,2020-05-21,14:43:58,15:00:48,NA,incomplete,151,shape,1,right,Blue_Triangle_Stripes_1.jpg,Green_Circle_Grid_1.jpg,Red_Triangle_Dots_3.jpg,right,682.680000027176,true,low,NA,NA,NA,NA,NA,NA,NA,false
IYrfrDmJ,3dzkabx20liukfefnqxhosng7x6cv3,3yz8upk3vxzwukn992sehqhofm4uc6,IYrfrDmJ,2020-0188,2020-05-21,14:43:58,15:00:48,NA,incomplete,152,shape,1,left,Green_Star_Chess_4.jpg,Blue_Star_Stripes_3.jpg,Red_Plus_Dots_4.jpg,left,931.8750000093132,true,low,NA,NA,NA,NA,NA,NA,NA,false
IYrfrDmJ,3dzkabx20liukfefnqxhosng7x6cv3,3yz8upk3vxzwukn992sehqhofm4uc6,IYrfrDmJ,2020-0188,2020-05-21,14:43:58,15:00:48,NA,incomplete,153,shape,1,left,Blue_Star_Grid_3.jpg,Purple_Star_Stripes_1.jpg,Green_Triangle_Dots_3.jpg,right,772.7149999700487,false,low,NA,NA,NA,NA,NA,NA,NA,false
IYrfrDmJ,3dzkabx20liukfefnqxhosng7x6cv3,3yz8upk3vxzwukn992sehqhofm4uc6,IYrfrDmJ,2020-0188,2020-05-21,14:43:58,15:00:48,NA,incomplete,154,shape,1,right,Blue_Circle_Grid_2.jpg,Green_Star_Chess_2.jpg,Purple_Circle_Dots_3.jpg,right,1200.8899999782443,true,low,NA,NA,NA,NA,NA,NA,NA,false
IYrfrDmJ,3dzkabx20liukfefnqxhosng7x6cv3,3yz8upk3vxzwukn992sehqhofm4uc6,IYrfrDmJ,2020-0188,2020-05-21,14:43:58,15:00:48,NA,incomplete,155,shape,1,right,Blue_Plus_Stripes_2.jpg,Red_Circle_Grid_2.jpg,Green_Plus_Chess_3.jpg,right,957.0400000084192,true,low,NA,NA,NA,NA,NA,NA,NA,false
IYrfrDmJ,3dzkabx20liukfefnqxhosng7x6cv3,3yz8upk3vxzwukn992sehqhofm4uc6,IYrfrDmJ,2020-0188,2020-05-21,14:43:58,15:00:48,NA,incomplete,156,shape,1,left,Purple_Triangle_Grid_1.jpg,Blue_Triangle_Stripes_3.jpg,Green_Circle_Dots_1.jpg,left,813.6600000434555,true,low,NA,NA,NA,NA,NA,NA,NA,false
IYrfrDmJ,3dzkabx20liukfefnqxhosng7x6cv3,3yz8upk3vxzwukn992sehqhofm4uc6,IYrfrDmJ,2020-0188,2020-05-21,14:43:58,15:00:48,NA,incomplete,157,shape,1,right,Purple_Star_Chess_2.jpg,Red_Triangle_Dots_2.jpg,Green_Star_Stripes_4.jpg,right,821.8249999918044,true,low,NA,NA,NA,NA,NA,NA,NA,false
IYrfrDmJ,3dzkabx20liukfefnqxhosng7x6cv3,3yz8upk3vxzwukn992sehqhofm4uc6,IYrfrDmJ,2020-0188,2020-05-21,14:43:58,15:00:48,NA,incomplete,158,shape,0,right,Green_Triangle_Dots_1.jpg,Red_Circle_Grid_1.jpg,Purple_Triangle_Stripes_2.jpg,right,753.5400000051595,true,low,NA,NA,NA,NA,NA,NA,NA,false
IYrfrDmJ,3dzkabx20liukfefnqxhosng7x6cv3,3yz8upk3vxzwukn992sehqhofm4uc6,IYrfrDmJ,2020-0188,2020-05-21,14:43:58,15:00:48,NA,incomplete,159,shape,1,left,Blue_Star_Chess_2.jpg,Green_Star_Grid_1.jpg,Red_Triangle_Dots_2.jpg,left,830.8400000096299,true,low,NA,NA,NA,NA,NA,NA,NA,false
IYrfrDmJ,3dzkabx20liukfefnqxhosng7x6cv3,3yz8upk3vxzwukn992sehqhofm4uc6,IYrfrDmJ,2020-0188,2020-05-21,14:43:58,15:00:48,NA,incomplete,160,number,0,left,Red_Star_Stripes_4.jpg,Green_Plus_Chess_4.jpg,Purple_Star_Dots_3.jpg,right,842.4249999807216,false,low,NA,NA,NA,NA,NA,NA,NA,false
IYrfrDmJ,3dzkabx20liukfefnqxhosng7x6cv3,3yz8upk3vxzwukn992sehqhofm4uc6,IYrfrDmJ,2020-0188,2020-05-21,14:43:58,15:00:48,NA,incomplete,161,number,1,right,Green_Circle_Dots_3.jpg,Purple_Circle_Stripes_2.jpg,Blue_Plus_Grid_3.jpg,left,741.5749999927357,false,low,NA,NA,NA,NA,NA,NA,NA,false
IYrfrDmJ,3dzkabx20liukfefnqxhosng7x6cv3,3yz8upk3vxzwukn992sehqhofm4uc6,IYrfrDmJ,2020-0188,2020-05-21,14:43:58,15:00:48,NA,incomplete,162,number,1,left,Purple_Star_Grid_1.jpg,Red_Plus_Chess_1.jpg,Blue_Star_Stripes_4.jpg,right,914.9749999633059,false,low,NA,NA,NA,NA,NA,NA,NA,false
IYrfrDmJ,3dzkabx20liukfefnqxhosng7x6cv3,3yz8upk3vxzwukn992sehqhofm4uc6,IYrfrDmJ,2020-0188,2020-05-21,14:43:58,15:00:48,NA,incomplete,163,number,0,left,Purple_Circle_Dots_4.jpg,Red_Plus_Stripes_4.jpg,Green_Circle_Grid_2.jpg,left,1483.295000041835,true,low,NA,NA,NA,NA,NA,NA,NA,false
IYrfrDmJ,3dzkabx20liukfefnqxhosng7x6cv3,3yz8upk3vxzwukn992sehqhofm4uc6,IYrfrDmJ,2020-0188,2020-05-21,14:43:58,15:00:48,NA,incomplete,164,number,1,left,Purple_Star_Grid_2.jpg,Green_Triangle_Stripes_2.jpg,Red_Star_Dots_1.jpg,right,900.6800000206567,false,low,NA,NA,NA,NA,NA,NA,NA,false
IYrfrDmJ,3dzkabx20liukfefnqxhosng7x6cv3,3yz8upk3vxzwukn992sehqhofm4uc6,IYrfrDmJ,2020-0188,2020-05-21,14:43:58,15:00:48,NA,incomplete,165,number,1,right,Blue_Triangle_Chess_1.jpg,Green_Triangle_Grid_3.jpg,Purple_Star_Dots_1.jpg,left,981.7449999973178,false,low,NA,NA,NA,NA,NA,NA,NA,false
IYrfrDmJ,3dzkabx20liukfefnqxhosng7x6cv3,3yz8upk3vxzwukn992sehqhofm4uc6,IYrfrDmJ,2020-0188,2020-05-21,14:43:58,15:00:48,NA,incomplete,166,number,1,right,Purple_Plus_Dots_3.jpg,Red_Plus_Grid_4.jpg,Blue_Circle_Stripes_3.jpg,right,1115.0400000042282,true,low,NA,NA,NA,NA,NA,NA,NA,false
IYrfrDmJ,3dzkabx20liukfefnqxhosng7x6cv3,3yz8upk3vxzwukn992sehqhofm4uc6,IYrfrDmJ,2020-0188,2020-05-21,14:43:58,15:00:48,NA,incomplete,167,number,0,right,Purple_Star_Stripes_3.jpg,Blue_Star_Chess_2.jpg,Green_Plus_Grid_3.jpg,right,803.0349999899045,true,low,NA,NA,NA,NA,NA,NA,NA,false
IYrfrDmJ,3dzkabx20liukfefnqxhosng7x6cv3,3yz8upk3vxzwukn992sehqhofm4uc6,IYrfrDmJ,2020-0188,2020-05-21,14:43:58,15:00:48,NA,incomplete,168,number,1,left,Red_Star_Grid_1.jpg,Green_Triangle_Chess_1.jpg,Blue_Star_Stripes_2.jpg,left,694.5200000191107,true,low,NA,NA,NA,NA,NA,NA,NA,false
IYrfrDmJ,3dzkabx20liukfefnqxhosng7x6cv3,3yz8upk3vxzwukn992sehqhofm4uc6,IYrfrDmJ,2020-0188,2020-05-21,14:43:58,15:00:48,NA,incomplete,169,number,0,right,Red_Circle_Stripes_1.jpg,Purple_Circle_Dots_2.jpg,Green_Star_Grid_1.jpg,right,895.0349999940954,true,low,NA,NA,NA,NA,NA,NA,NA,false
IYrfrDmJ,3dzkabx20liukfefnqxhosng7x6cv3,3yz8upk3vxzwukn992sehqhofm4uc6,IYrfrDmJ,2020-0188,2020-05-21,14:43:58,15:00:48,NA,incomplete,170,number,1,right,Blue_Triangle_Dots_1.jpg,Purple_Triangle_Stripes_3.jpg,Green_Plus_Chess_1.jpg,right,808.309999993071,true,low,NA,NA,NA,NA,NA,NA,NA,false
IYrfrDmJ,3dzkabx20liukfefnqxhosng7x6cv3,3yz8upk3vxzwukn992sehqhofm4uc6,IYrfrDmJ,2020-0188,2020-05-21,14:43:58,15:00:48,NA,incomplete,171,number,1,left,Green_Triangle_Dots_4.jpg,Purple_Plus_Chess_4.jpg,Blue_Triangle_Grid_3.jpg,left,859.7550000413321,true,low,NA,NA,NA,NA,NA,NA,NA,false
IYrfrDmJ,3dzkabx20liukfefnqxhosng7x6cv3,3yz8upk3vxzwukn992sehqhofm4uc6,IYrfrDmJ,2020-0188,2020-05-21,14:43:58,15:00:48,NA,incomplete,172,number,0,right,Blue_Star_Stripes_1.jpg,Red_Star_Dots_4.jpg,Green_Circle_Chess_1.jpg,right,718.5000000172295,true,low,NA,NA,NA,NA,NA,NA,NA,false
IYrfrDmJ,3dzkabx20liukfefnqxhosng7x6cv3,3yz8upk3vxzwukn992sehqhofm4uc6,IYrfrDmJ,2020-0188,2020-05-21,14:43:58,15:00:48,NA,incomplete,173,number,1,right,Blue_Circle_Dots_1.jpg,Red_Circle_Stripes_2.jpg,Green_Star_Chess_1.jpg,right,789.7200000006706,true,low,NA,NA,NA,NA,NA,NA,NA,false
IYrfrDmJ,3dzkabx20liukfefnqxhosng7x6cv3,3yz8upk3vxzwukn992sehqhofm4uc6,IYrfrDmJ,2020-0188,2020-05-21,14:43:58,15:00:48,NA,incomplete,174,number,1,left,Red_Plus_Grid_2.jpg,Blue_Star_Stripes_2.jpg,Purple_Plus_Chess_4.jpg,left,715.4649999574758,true,low,NA,NA,NA,NA,NA,NA,NA,false
IYrfrDmJ,3dzkabx20liukfefnqxhosng7x6cv3,3yz8upk3vxzwukn992sehqhofm4uc6,IYrfrDmJ,2020-0188,2020-05-21,14:43:58,15:00:48,NA,incomplete,175,number,1,left,Green_Plus_Dots_4.jpg,Purple_Star_Stripes_4.jpg,Blue_Plus_Chess_1.jpg,left,770.4300000332296,true,low,NA,NA,NA,NA,NA,NA,NA,false
IYrfrDmJ,3dzkabx20liukfefnqxhosng7x6cv3,3yz8upk3vxzwukn992sehqhofm4uc6,IYrfrDmJ,2020-0188,2020-05-21,14:43:58,15:00:48,NA,incomplete,176,number,0,left,Purple_Star_Grid_1.jpg,Green_Triangle_Dots_1.jpg,Red_Star_Stripes_3.jpg,left,832.4049999937415,true,low,NA,NA,NA,NA,NA,NA,NA,false
IYrfrDmJ,3dzkabx20liukfefnqxhosng7x6cv3,3yz8upk3vxzwukn992sehqhofm4uc6,IYrfrDmJ,2020-0188,2020-05-21,14:43:58,15:00:48,NA,incomplete,177,number,1,right,Purple_Circle_Chess_3.jpg,Green_Circle_Stripes_2.jpg,Blue_Triangle_Grid_3.jpg,right,954.5050000306219,true,low,NA,NA,NA,NA,NA,NA,NA,false
IYrfrDmJ,3dzkabx20liukfefnqxhosng7x6cv3,3yz8upk3vxzwukn992sehqhofm4uc6,IYrfrDmJ,2020-0188,2020-05-21,14:43:58,15:00:48,NA,incomplete,178,number,1,right,Red_Circle_Stripes_4.jpg,Purple_Circle_Chess_1.jpg,Green_Triangle_Grid_4.jpg,right,880.2450000075623,true,low,NA,NA,NA,NA,NA,NA,NA,false
IYrfrDmJ,3dzkabx20liukfefnqxhosng7x6cv3,3yz8upk3vxzwukn992sehqhofm4uc6,IYrfrDmJ,2020-0188,2020-05-21,14:43:58,15:00:48,NA,incomplete,179,number,1,left,Blue_Star_Stripes_3.jpg,Green_Circle_Dots_3.jpg,Purple_Star_Grid_2.jpg,left,804.3300000135787,true,low,NA,NA,NA,NA,NA,NA,NA,false
IYrfrDmJ,3dzkabx20liukfefnqxhosng7x6cv3,3yz8upk3vxzwukn992sehqhofm4uc6,IYrfrDmJ,2020-0188,2020-05-21,14:43:58,15:00:48,NA,incomplete,180,shape,1,right,Blue_Plus_Grid_2.jpg,Green_Triangle_Stripes_2.jpg,Red_Plus_Chess_4.jpg,left,726.3200000161305,false,low,NA,NA,NA,NA,NA,NA,NA,false
IYrfrDmJ,3dzkabx20liukfefnqxhosng7x6cv3,3yz8upk3vxzwukn992sehqhofm4uc6,IYrfrDmJ,2020-0188,2020-05-21,14:43:58,15:00:48,NA,incomplete,181,shape,1,right,Green_Star_Chess_4.jpg,Red_Triangle_Stripes_4.jpg,Purple_Star_Grid_1.jpg,left,1038.0199999781325,false,low,NA,NA,NA,NA,NA,NA,NA,false
IYrfrDmJ,3dzkabx20liukfefnqxhosng7x6cv3,3yz8upk3vxzwukn992sehqhofm4uc6,IYrfrDmJ,2020-0188,2020-05-21,14:43:58,15:00:48,NA,incomplete,182,shape,1,left,Blue_Triangle_Chess_4.jpg,Red_Triangle_Stripes_1.jpg,Purple_Star_Dots_4.jpg,left,1431.9949999917299,true,low,NA,NA,NA,NA,NA,NA,NA,false
IYrfrDmJ,3dzkabx20liukfefnqxhosng7x6cv3,3yz8upk3vxzwukn992sehqhofm4uc6,IYrfrDmJ,2020-0188,2020-05-21,14:43:58,15:00:48,NA,incomplete,183,shape,1,right,Blue_Circle_Chess_2.jpg,Red_Star_Grid_2.jpg,Purple_Circle_Stripes_1.jpg,right,700.0950000365265,true,low,NA,NA,NA,NA,NA,NA,NA,false
IYrfrDmJ,3dzkabx20liukfefnqxhosng7x6cv3,3yz8upk3vxzwukn992sehqhofm4uc6,IYrfrDmJ,2020-0188,2020-05-21,14:43:58,15:00:48,NA,incomplete,184,shape,1,right,Purple_Triangle_Dots_2.jpg,Red_Circle_Stripes_2.jpg,Green_Triangle_Chess_1.jpg,right,828.8549999706447,true,low,NA,NA,NA,NA,NA,NA,NA,false
IYrfrDmJ,3dzkabx20liukfefnqxhosng7x6cv3,3yz8upk3vxzwukn992sehqhofm4uc6,IYrfrDmJ,2020-0188,2020-05-21,14:43:58,15:00:48,NA,incomplete,185,shape,1,left,Purple_Plus_Grid_2.jpg,Blue_Plus_Stripes_3.jpg,Green_Triangle_Chess_2.jpg,left,895.8899999852292,true,low,NA,NA,NA,NA,NA,NA,NA,false
IYrfrDmJ,3dzkabx20liukfefnqxhosng7x6cv3,3yz8upk3vxzwukn992sehqhofm4uc6,IYrfrDmJ,2020-0188,2020-05-21,14:43:58,15:00:48,NA,incomplete,186,shape,1,right,Blue_Circle_Chess_3.jpg,Red_Plus_Dots_3.jpg,Green_Circle_Grid_1.jpg,right,833.039999997709,true,low,NA,NA,NA,NA,NA,NA,NA,false
IYrfrDmJ,3dzkabx20liukfefnqxhosng7x6cv3,3yz8upk3vxzwukn992sehqhofm4uc6,IYrfrDmJ,2020-0188,2020-05-21,14:43:58,15:00:48,NA,incomplete,187,shape,0,left,Blue_Triangle_Dots_2.jpg,Red_Triangle_Stripes_1.jpg,Purple_Plus_Chess_2.jpg,left,779.2450000415556,true,low,NA,NA,NA,NA,NA,NA,NA,false
IYrfrDmJ,3dzkabx20liukfefnqxhosng7x6cv3,3yz8upk3vxzwukn992sehqhofm4uc6,IYrfrDmJ,2020-0188,2020-05-21,14:43:58,15:00:48,NA,incomplete,188,shape,1,right,Red_Circle_Chess_1.jpg,Green_Triangle_Stripes_1.jpg,Purple_Circle_Grid_2.jpg,right,1736.6749999928288,true,low,NA,NA,NA,NA,NA,NA,NA,false
IYrfrDmJ,3dzkabx20liukfefnqxhosng7x6cv3,3yz8upk3vxzwukn992sehqhofm4uc6,IYrfrDmJ,2020-0188,2020-05-21,14:43:58,15:00:48,NA,incomplete,189,shape,1,right,Red_Plus_Stripes_4.jpg,Green_Triangle_Dots_4.jpg,Purple_Plus_Grid_1.jpg,right,1024.2250000010245,true,low,NA,NA,NA,NA,NA,NA,NA,false
IYrfrDmJ,3dzkabx20liukfefnqxhosng7x6cv3,3yz8upk3vxzwukn992sehqhofm4uc6,IYrfrDmJ,2020-0188,2020-05-21,14:43:58,15:00:48,NA,incomplete,190,shape,0,left,Green_Plus_Chess_2.jpg,Blue_Plus_Dots_3.jpg,Red_Circle_Stripes_2.jpg,left,827.5400000275113,true,low,NA,NA,NA,NA,NA,NA,NA,false
IYrfrDmJ,3dzkabx20liukfefnqxhosng7x6cv3,3yz8upk3vxzwukn992sehqhofm4uc6,IYrfrDmJ,2020-0188,2020-05-21,14:43:58,15:00:48,NA,incomplete,191,shape,1,left,Purple_Triangle_Grid_2.jpg,Green_Triangle_Stripes_1.jpg,Blue_Plus_Chess_2.jpg,left,1333.9449999621138,true,low,NA,NA,NA,NA,NA,NA,NA,false
IYrfrDmJ,3dzkabx20liukfefnqxhosng7x6cv3,3yz8upk3vxzwukn992sehqhofm4uc6,IYrfrDmJ,2020-0188,2020-05-21,14:43:58,15:00:48,NA,incomplete,192,shape,0,left,Red_Triangle_Chess_4.jpg,Blue_Triangle_Grid_1.jpg,Purple_Circle_Stripes_4.jpg,left,818.1800000020303,true,low,NA,NA,NA,NA,NA,NA,NA,false
IYrfrDmJ,3dzkabx20liukfefnqxhosng7x6cv3,3yz8upk3vxzwukn992sehqhofm4uc6,IYrfrDmJ,2020-0188,2020-05-21,14:43:58,15:00:48,NA,incomplete,193,shape,1,right,Green_Star_Stripes_1.jpg,Red_Plus_Dots_1.jpg,Purple_Star_Grid_3.jpg,left,936.7749999510124,false,low,NA,NA,NA,NA,NA,NA,NA,false
IYrfrDmJ,3dzkabx20liukfefnqxhosng7x6cv3,3yz8upk3vxzwukn992sehqhofm4uc6,IYrfrDmJ,2020-0188,2020-05-21,14:43:58,15:00:48,NA,incomplete,194,shape,1,left,Red_Triangle_Grid_3.jpg,Blue_Triangle_Dots_4.jpg,Purple_Plus_Chess_3.jpg,right,879.6849999926053,false,low,NA,NA,NA,NA,NA,NA,NA,false
IYrfrDmJ,3dzkabx20liukfefnqxhosng7x6cv3,3yz8upk3vxzwukn992sehqhofm4uc6,IYrfrDmJ,2020-0188,2020-05-21,14:43:58,15:00:48,NA,incomplete,195,shape,1,left,Purple_Plus_Grid_3.jpg,Green_Plus_Chess_2.jpg,Red_Star_Dots_3.jpg,right,1208.5950000328012,false,low,NA,NA,NA,NA,NA,NA,NA,false
IYrfrDmJ,3dzkabx20liukfefnqxhosng7x6cv3,3yz8upk3vxzwukn992sehqhofm4uc6,IYrfrDmJ,2020-0188,2020-05-21,14:43:58,15:00:48,NA,incomplete,196,shape,1,right,Red_Plus_Grid_1.jpg,Blue_Triangle_Dots_1.jpg,Purple_Plus_Stripes_3.jpg,left,1015.0699999649078,false,low,NA,NA,NA,NA,NA,NA,NA,false
IYrfrDmJ,3dzkabx20liukfefnqxhosng7x6cv3,3yz8upk3vxzwukn992sehqhofm4uc6,IYrfrDmJ,2020-0188,2020-05-21,14:43:58,15:00:48,NA,incomplete,197,shape,1,left,Green_Plus_Grid_4.jpg,Red_Plus_Stripes_1.jpg,Purple_Star_Dots_4.jpg,left,1050.3499999758787,true,low,NA,NA,NA,NA,NA,NA,NA,false
IYrfrDmJ,3dzkabx20liukfefnqxhosng7x6cv3,3yz8upk3vxzwukn992sehqhofm4uc6,IYrfrDmJ,2020-0188,2020-05-21,14:43:58,15:00:48,NA,incomplete,198,shape,1,right,Red_Plus_Chess_3.jpg,Blue_Triangle_Stripes_3.jpg,Purple_Plus_Grid_4.jpg,right,788.4900000062771,true,low,NA,NA,NA,NA,NA,NA,NA,false
IYrfrDmJ,3dzkabx20liukfefnqxhosng7x6cv3,3yz8upk3vxzwukn992sehqhofm4uc6,IYrfrDmJ,2020-0188,2020-05-21,14:43:58,15:00:48,NA,incomplete,199,shape,1,right,Red_Circle_Dots_2.jpg,Blue_Plus_Chess_2.jpg,Purple_Circle_Grid_1.jpg,right,648.4749999945052,true,low,NA,NA,NA,NA,NA,NA,NA,false
IYrfrDmJ,3dzkabx20liukfefnqxhosng7x6cv3,3yz8upk3vxzwukn992sehqhofm4uc6,IYrfrDmJ,2020-0188,2020-05-21,14:43:58,15:00:48,NA,incomplete,200,number,1,left,Red_Star_Dots_4.jpg,Purple_Circle_Chess_4.jpg,Green_Star_Grid_3.jpg,right,891.7999999830499,false,low,NA,NA,NA,NA,NA,NA,NA,false
IYrfrDmJ,3dzkabx20liukfefnqxhosng7x6cv3,3yz8upk3vxzwukn992sehqhofm4uc6,IYrfrDmJ,2020-0188,2020-05-21,14:43:58,15:00:48,NA,incomplete,201,number,1,right,Purple_Star_Stripes_4.jpg,Red_Star_Chess_3.jpg,Green_Triangle_Dots_4.jpg,left,899.7400000225753,false,low,NA,NA,NA,NA,NA,NA,NA,false
IYrfrDmJ,3dzkabx20liukfefnqxhosng7x6cv3,3yz8upk3vxzwukn992sehqhofm4uc6,IYrfrDmJ,2020-0188,2020-05-21,14:43:58,15:00:48,NA,incomplete,202,number,0,right,Red_Plus_Chess_3.jpg,Purple_Plus_Dots_1.jpg,Green_Circle_Grid_3.jpg,right,853.3299999544397,true,low,NA,NA,NA,NA,NA,NA,NA,false
IYrfrDmJ,3dzkabx20liukfefnqxhosng7x6cv3,3yz8upk3vxzwukn992sehqhofm4uc6,IYrfrDmJ,2020-0188,2020-05-21,14:43:58,15:00:48,NA,incomplete,203,number,1,right,Purple_Star_Dots_2.jpg,Blue_Star_Grid_4.jpg,Green_Plus_Chess_2.jpg,right,950.4099999903701,true,low,NA,NA,NA,NA,NA,NA,NA,false
IYrfrDmJ,3dzkabx20liukfefnqxhosng7x6cv3,3yz8upk3vxzwukn992sehqhofm4uc6,IYrfrDmJ,2020-0188,2020-05-21,14:43:58,15:00:48,NA,incomplete,204,number,1,left,Red_Plus_Grid_4.jpg,Purple_Star_Stripes_4.jpg,Green_Plus_Dots_3.jpg,left,949.3299999739975,true,low,NA,NA,NA,NA,NA,NA,NA,false
IYrfrDmJ,3dzkabx20liukfefnqxhosng7x6cv3,3yz8upk3vxzwukn992sehqhofm4uc6,IYrfrDmJ,2020-0188,2020-05-21,14:43:58,15:00:48,NA,incomplete,205,number,1,right,Red_Plus_Stripes_1.jpg,Purple_Plus_Chess_2.jpg,Blue_Circle_Grid_1.jpg,right,707.8500000061467,true,low,NA,NA,NA,NA,NA,NA,NA,false
IYrfrDmJ,3dzkabx20liukfefnqxhosng7x6cv3,3yz8upk3vxzwukn992sehqhofm4uc6,IYrfrDmJ,2020-0188,2020-05-21,14:43:58,15:00:48,NA,incomplete,206,number,0,right,Green_Plus_Chess_4.jpg,Blue_Plus_Grid_2.jpg,Red_Triangle_Dots_4.jpg,right,836.1750000040047,true,low,NA,NA,NA,NA,NA,NA,NA,false
IYrfrDmJ,3dzkabx20liukfefnqxhosng7x6cv3,3yz8upk3vxzwukn992sehqhofm4uc6,IYrfrDmJ,2020-0188,2020-05-21,14:43:58,15:00:48,NA,incomplete,207,number,1,right,Green_Circle_Grid_4.jpg,Purple_Circle_Stripes_3.jpg,Red_Star_Dots_4.jpg,right,825.4399999859743,true,low,NA,NA,NA,NA,NA,NA,NA,false
IYrfrDmJ,3dzkabx20liukfefnqxhosng7x6cv3,3yz8upk3vxzwukn992sehqhofm4uc6,IYrfrDmJ,2020-0188,2020-05-21,14:43:58,15:00:48,NA,incomplete,208,number,0,right,Blue_Circle_Grid_2.jpg,Purple_Circle_Stripes_3.jpg,Red_Plus_Dots_2.jpg,right,922.3050000146031,true,low,NA,NA,NA,NA,NA,NA,NA,false
IYrfrDmJ,3dzkabx20liukfefnqxhosng7x6cv3,3yz8upk3vxzwukn992sehqhofm4uc6,IYrfrDmJ,2020-0188,2020-05-21,14:43:58,15:00:48,NA,incomplete,209,number,1,right,Green_Circle_Dots_3.jpg,Blue_Circle_Stripes_4.jpg,Red_Star_Grid_3.jpg,right,929.7650000080466,true,low,NA,NA,NA,NA,NA,NA,NA,false
IYrfrDmJ,3dzkabx20liukfefnqxhosng7x6cv3,3yz8upk3vxzwukn992sehqhofm4uc6,IYrfrDmJ,2020-0188,2020-05-21,14:43:58,15:00:48,NA,incomplete,210,number,0,right,Green_Triangle_Stripes_2.jpg,Blue_Triangle_Dots_1.jpg,Purple_Star_Chess_2.jpg,right,712.3600000049919,true,low,NA,NA,NA,NA,NA,NA,NA,false
IYrfrDmJ,3dzkabx20liukfefnqxhosng7x6cv3,3yz8upk3vxzwukn992sehqhofm4uc6,IYrfrDmJ,2020-0188,2020-05-21,14:43:58,15:00:48,NA,incomplete,211,number,1,left,Purple_Circle_Stripes_2.jpg,Red_Star_Grid_2.jpg,Green_Circle_Chess_3.jpg,left,975.8600000059232,true,low,NA,NA,NA,NA,NA,NA,NA,false
IYrfrDmJ,3dzkabx20liukfefnqxhosng7x6cv3,3yz8upk3vxzwukn992sehqhofm4uc6,IYrfrDmJ,2020-0188,2020-05-21,14:43:58,15:00:48,NA,incomplete,212,number,0,left,Blue_Star_Dots_4.jpg,Purple_Circle_Stripes_4.jpg,Red_Star_Grid_1.jpg,left,798.3649999951012,true,low,NA,NA,NA,NA,NA,NA,NA,false
IYrfrDmJ,3dzkabx20liukfefnqxhosng7x6cv3,3yz8upk3vxzwukn992sehqhofm4uc6,IYrfrDmJ,2020-0188,2020-05-21,14:43:58,15:00:48,NA,incomplete,213,number,1,left,Purple_Plus_Chess_1.jpg,Red_Star_Dots_1.jpg,Blue_Plus_Stripes_4.jpg,left,835.4849999886937,true,low,NA,NA,NA,NA,NA,NA,NA,false
IYrfrDmJ,3dzkabx20liukfefnqxhosng7x6cv3,3yz8upk3vxzwukn992sehqhofm4uc6,IYrfrDmJ,2020-0188,2020-05-21,14:43:58,15:00:48,NA,incomplete,214,number,1,right,Green_Plus_Stripes_4.jpg,Blue_Plus_Grid_2.jpg,Purple_Circle_Dots_4.jpg,right,789.8050000076182,true,low,NA,NA,NA,NA,NA,NA,NA,false
IYrfrDmJ,3dzkabx20liukfefnqxhosng7x6cv3,3yz8upk3vxzwukn992sehqhofm4uc6,IYrfrDmJ,2020-0188,2020-05-21,14:43:58,15:00:48,NA,incomplete,215,number,0,right,Blue_Triangle_Stripes_1.jpg,Red_Triangle_Grid_4.jpg,Purple_Star_Dots_1.jpg,right,738.4299999685027,true,low,NA,NA,NA,NA,NA,NA,NA,false
IYrfrDmJ,3dzkabx20liukfefnqxhosng7x6cv3,3yz8upk3vxzwukn992sehqhofm4uc6,IYrfrDmJ,2020-0188,2020-05-21,14:43:58,15:00:48,NA,incomplete,216,number,1,right,Blue_Circle_Stripes_1.jpg,Green_Circle_Chess_3.jpg,Purple_Plus_Dots_1.jpg,right,920.1849999953993,true,low,NA,NA,NA,NA,NA,NA,NA,false
IYrfrDmJ,3dzkabx20liukfefnqxhosng7x6cv3,3yz8upk3vxzwukn992sehqhofm4uc6,IYrfrDmJ,2020-0188,2020-05-21,14:43:58,15:00:48,NA,incomplete,217,number,1,right,Blue_Circle_Grid_4.jpg,Red_Circle_Stripes_3.jpg,Green_Star_Chess_4.jpg,right,936.5899999975227,true,low,NA,NA,NA,NA,NA,NA,NA,false
IYrfrDmJ,3dzkabx20liukfefnqxhosng7x6cv3,3yz8upk3vxzwukn992sehqhofm4uc6,IYrfrDmJ,2020-0188,2020-05-21,14:43:58,15:00:48,NA,incomplete,218,number,1,right,Purple_Star_Chess_1.jpg,Red_Star_Grid_3.jpg,Blue_Plus_Stripes_1.jpg,right,717.6350000081584,true,low,NA,NA,NA,NA,NA,NA,NA,false
IYrfrDmJ,3dzkabx20liukfefnqxhosng7x6cv3,3yz8upk3vxzwukn992sehqhofm4uc6,IYrfrDmJ,2020-0188,2020-05-21,14:43:58,15:00:48,NA,incomplete,219,number,0,left,Green_Circle_Chess_2.jpg,Purple_Star_Grid_2.jpg,Blue_Circle_Stripes_4.jpg,left,805.640000035055,true,low,NA,NA,NA,NA,NA,NA,NA,false
IYrfrDmJ,3dzkabx20liukfefnqxhosng7x6cv3,3yz8upk3vxzwukn992sehqhofm4uc6,IYrfrDmJ,2020-0188,2020-05-21,14:43:58,15:00:48,NA,incomplete,220,shape,1,left,Red_Star_Chess_1.jpg,Purple_Star_Dots_4.jpg,Green_Triangle_Stripes_1.jpg,right,770.0649999896996,false,low,NA,NA,NA,NA,NA,NA,NA,false
IYrfrDmJ,3dzkabx20liukfefnqxhosng7x6cv3,3yz8upk3vxzwukn992sehqhofm4uc6,IYrfrDmJ,2020-0188,2020-05-21,14:43:58,15:00:48,NA,incomplete,221,shape,1,left,Green_Circle_Grid_3.jpg,Red_Circle_Dots_1.jpg,Purple_Plus_Stripes_3.jpg,left,935.1350000360981,true,low,NA,NA,NA,NA,NA,NA,NA,false
IYrfrDmJ,3dzkabx20liukfefnqxhosng7x6cv3,3yz8upk3vxzwukn992sehqhofm4uc6,IYrfrDmJ,2020-0188,2020-05-21,14:43:58,15:00:48,NA,incomplete,222,shape,1,right,Red_Plus_Grid_4.jpg,Green_Circle_Chess_4.jpg,Purple_Plus_Stripes_3.jpg,right,790.3149999910966,true,low,NA,NA,NA,NA,NA,NA,NA,false
IYrfrDmJ,3dzkabx20liukfefnqxhosng7x6cv3,3yz8upk3vxzwukn992sehqhofm4uc6,IYrfrDmJ,2020-0188,2020-05-21,14:43:58,15:00:48,NA,incomplete,223,shape,1,left,Green_Star_Chess_3.jpg,Blue_Star_Grid_2.jpg,Red_Plus_Dots_3.jpg,right,898.4850000124425,false,low,NA,NA,NA,NA,NA,NA,NA,false
IYrfrDmJ,3dzkabx20liukfefnqxhosng7x6cv3,3yz8upk3vxzwukn992sehqhofm4uc6,IYrfrDmJ,2020-0188,2020-05-21,14:43:58,15:00:48,NA,incomplete,224,shape,1,right,Green_Plus_Chess_1.jpg,Red_Triangle_Dots_1.jpg,Blue_Plus_Grid_4.jpg,right,882.2700000018813,true,low,NA,NA,NA,NA,NA,NA,NA,false
IYrfrDmJ,3dzkabx20liukfefnqxhosng7x6cv3,3yz8upk3vxzwukn992sehqhofm4uc6,IYrfrDmJ,2020-0188,2020-05-21,14:43:58,15:00:48,NA,incomplete,225,shape,1,left,Green_Plus_Stripes_3.jpg,Red_Plus_Chess_2.jpg,Purple_Circle_Grid_3.jpg,left,968.4750000014901,true,low,NA,NA,NA,NA,NA,NA,NA,false
IYrfrDmJ,3dzkabx20liukfefnqxhosng7x6cv3,3yz8upk3vxzwukn992sehqhofm4uc6,IYrfrDmJ,2020-0188,2020-05-21,14:43:58,15:00:48,NA,incomplete,226,shape,0,left,Purple_Triangle_Chess_3.jpg,Green_Triangle_Stripes_1.jpg,Blue_Circle_Grid_3.jpg,left,882.2900000377558,true,low,NA,NA,NA,NA,NA,NA,NA,false
IYrfrDmJ,3dzkabx20liukfefnqxhosng7x6cv3,3yz8upk3vxzwukn992sehqhofm4uc6,IYrfrDmJ,2020-0188,2020-05-21,14:43:58,15:00:48,NA,incomplete,227,shape,1,right,Green_Circle_Grid_1.jpg,Purple_Triangle_Dots_1.jpg,Red_Circle_Stripes_4.jpg,right,843.8199999509379,true,low,NA,NA,NA,NA,NA,NA,NA,false
IYrfrDmJ,3dzkabx20liukfefnqxhosng7x6cv3,3yz8upk3vxzwukn992sehqhofm4uc6,IYrfrDmJ,2020-0188,2020-05-21,14:43:58,15:00:48,NA,incomplete,228,shape,0,right,Green_Plus_Stripes_1.jpg,Blue_Triangle_Chess_1.jpg,Red_Plus_Grid_2.jpg,right,831.5000000293367,true,low,NA,NA,NA,NA,NA,NA,NA,false
IYrfrDmJ,3dzkabx20liukfefnqxhosng7x6cv3,3yz8upk3vxzwukn992sehqhofm4uc6,IYrfrDmJ,2020-0188,2020-05-21,14:43:58,15:00:48,NA,incomplete,229,shape,1,right,Red_Circle_Stripes_1.jpg,Blue_Plus_Chess_1.jpg,Green_Circle_Dots_4.jpg,right,792.8950000205077,true,low,NA,NA,NA,NA,NA,NA,NA,false
IYrfrDmJ,3dzkabx20liukfefnqxhosng7x6cv3,3yz8upk3vxzwukn992sehqhofm4uc6,IYrfrDmJ,2020-0188,2020-05-21,14:43:58,15:00:48,NA,incomplete,230,shape,1,right,Purple_Plus_Dots_3.jpg,Red_Circle_Grid_3.jpg,Green_Plus_Chess_1.jpg,right,877.2549999994226,true,low,NA,NA,NA,NA,NA,NA,NA,false
IYrfrDmJ,3dzkabx20liukfefnqxhosng7x6cv3,3yz8upk3vxzwukn992sehqhofm4uc6,IYrfrDmJ,2020-0188,2020-05-21,14:43:58,15:00:48,NA,incomplete,231,shape,1,right,Green_Plus_Grid_1.jpg,Blue_Triangle_Stripes_1.jpg,Red_Plus_Dots_2.jpg,right,911.66499996325,true,low,NA,NA,NA,NA,NA,NA,NA,false
IYrfrDmJ,3dzkabx20liukfefnqxhosng7x6cv3,3yz8upk3vxzwukn992sehqhofm4uc6,IYrfrDmJ,2020-0188,2020-05-21,14:43:58,15:00:48,NA,incomplete,232,shape,1,right,Blue_Star_Grid_2.jpg,Green_Triangle_Stripes_2.jpg,Red_Star_Dots_3.jpg,right,808.2449999637902,true,low,NA,NA,NA,NA,NA,NA,NA,false
IYrfrDmJ,3dzkabx20liukfefnqxhosng7x6cv3,3yz8upk3vxzwukn992sehqhofm4uc6,IYrfrDmJ,2020-0188,2020-05-21,14:43:58,15:00:48,NA,incomplete,233,shape,1,left,Purple_Plus_Stripes_2.jpg,Red_Plus_Chess_1.jpg,Blue_Star_Dots_2.jpg,left,1322.6300000096671,true,low,NA,NA,NA,NA,NA,NA,NA,false
IYrfrDmJ,3dzkabx20liukfefnqxhosng7x6cv3,3yz8upk3vxzwukn992sehqhofm4uc6,IYrfrDmJ,2020-0188,2020-05-21,14:43:58,15:00:48,NA,incomplete,234,shape,1,right,Green_Triangle_Chess_1.jpg,Blue_Plus_Dots_1.jpg,Red_Triangle_Grid_2.jpg,right,1362.9699999582954,true,low,NA,NA,NA,NA,NA,NA,NA,false
IYrfrDmJ,3dzkabx20liukfefnqxhosng7x6cv3,3yz8upk3vxzwukn992sehqhofm4uc6,IYrfrDmJ,2020-0188,2020-05-21,14:43:58,15:00:48,NA,incomplete,235,shape,1,right,Green_Star_Chess_4.jpg,Purple_Circle_Stripes_4.jpg,Red_Star_Grid_1.jpg,right,785.425000009127,true,low,NA,NA,NA,NA,NA,NA,NA,false
IYrfrDmJ,3dzkabx20liukfefnqxhosng7x6cv3,3yz8upk3vxzwukn992sehqhofm4uc6,IYrfrDmJ,2020-0188,2020-05-21,14:43:58,15:00:48,NA,incomplete,236,shape,1,right,Red_Plus_Chess_2.jpg,Green_Triangle_Dots_2.jpg,Purple_Plus_Grid_4.jpg,right,950.0300000072457,true,low,NA,NA,NA,NA,NA,NA,NA,false
IYrfrDmJ,3dzkabx20liukfefnqxhosng7x6cv3,3yz8upk3vxzwukn992sehqhofm4uc6,IYrfrDmJ,2020-0188,2020-05-21,14:43:58,15:00:48,NA,incomplete,237,shape,1,left,Red_Circle_Chess_3.jpg,Blue_Circle_Stripes_1.jpg,Green_Triangle_Dots_3.jpg,left,781.5149999805726,true,low,NA,NA,NA,NA,NA,NA,NA,false
IYrfrDmJ,3dzkabx20liukfefnqxhosng7x6cv3,3yz8upk3vxzwukn992sehqhofm4uc6,IYrfrDmJ,2020-0188,2020-05-21,14:43:58,15:00:48,NA,incomplete,238,shape,1,right,Green_Star_Chess_3.jpg,Purple_Circle_Grid_3.jpg,Red_Star_Stripes_4.jpg,right,752.8499999898486,true,low,NA,NA,NA,NA,NA,NA,NA,false
IYrfrDmJ,3dzkabx20liukfefnqxhosng7x6cv3,3yz8upk3vxzwukn992sehqhofm4uc6,IYrfrDmJ,2020-0188,2020-05-21,14:43:58,15:00:48,NA,incomplete,239,shape,1,left,Red_Triangle_Stripes_2.jpg,Green_Triangle_Dots_4.jpg,Purple_Star_Chess_2.jpg,left,839.7700000205077,true,low,NA,NA,NA,NA,NA,NA,NA,false
IYrfrDmJ,3dzkabx20liukfefnqxhosng7x6cv3,3yz8upk3vxzwukn992sehqhofm4uc6,IYrfrDmJ,2020-0188,2020-05-21,14:43:58,15:00:48,NA,NA,instruction example,filling,NA,NA,Purple_Circle_Chess_3.jpg,Blue_Triangle_Chess_2.jpg,Purple_Star_Dots_4.jpg,NA,NA,NA,NA,NA,NA,NA,NA,NA,NA,NA,undefined
IYrfrDmJ,3dzkabx20liukfefnqxhosng7x6cv3,3yz8upk3vxzwukn992sehqhofm4uc6,IYrfrDmJ,2020-0188,2020-05-21,14:43:58,15:00:48,NA,NA,instruction example,filling,NA,NA,Purple_Star_Stripes_2.jpg,Purple_Circle_Grid_4.jpg,Red_Plus_Stripes_1.jpg,NA,NA,NA,NA,NA,NA,NA,NA,NA,NA,NA,undefined
IYrfrDmJ,3dzkabx20liukfefnqxhosng7x6cv3,3yz8upk3vxzwukn992sehqhofm4uc6,IYrfrDmJ,2020-0188,2020-05-21,14:43:58,15:00:48,NA,NA,instruction example,filling,NA,NA,Purple_Plus_Grid_1.jpg,Blue_Circle_Dots_1.jpg,Green_Plus_Chess_4.jpg,NA,NA,NA,NA,NA,NA,NA,NA,NA,NA,NA,undefined
IYrfrDmJ,3dzkabx20liukfefnqxhosng7x6cv3,3yz8upk3vxzwukn992sehqhofm4uc6,IYrfrDmJ,2020-0188,2020-05-21,14:43:58,15:00:48,NA,NA,instruction example,filling,NA,NA,Red_Circle_Chess_3.jpg,Purple_Circle_Grid_1.jpg,Blue_Plus_Stripes_3.jpg,NA,NA,NA,NA,NA,NA,NA,NA,NA,NA,NA,undefined
IYrfrDmJ,3dzkabx20liukfefnqxhosng7x6cv3,3yz8upk3vxzwukn992sehqhofm4uc6,IYrfrDmJ,2020-0188,2020-05-21,14:43:58,15:00:48,970558.6800000165,1010974.3899999885,NA,NA,NA,NA,NA,NA,NA,NA,NA,NA,NA,61,White/Caucasian,Female,Caucasian American,no,yes,no,undefined
