workerId,hitId,assignmentId,subject,studyid,exp_date,exp_start,exp_end,time_start,time_end,trial,type,reward_validity,answer,image_top,image_left,image_right,response,response_time,response_acc,volatility,age,race,gender,ethnicity,color,vision,neuro,practice
F7nVja3z,3jhb4bpsgnm0h9bvp7tggfn0kkoq96,3z3zlgnnsm7gprk9z0x8emg56oe3q5,F7nVja3z,2020-0188,2020-05-21,13:18:24,13:33:24,NA,incomplete,0,filling,0,right,Blue_Circle_Chess_2.jpg,Purple_Triangle_Grid_2.jpg,Green_Star_Chess_1.jpg,left,1666.8899999931455,false,NA,NA,NA,NA,NA,NA,NA,NA,true
F7nVja3z,3jhb4bpsgnm0h9bvp7tggfn0kkoq96,3z3zlgnnsm7gprk9z0x8emg56oe3q5,F7nVja3z,2020-0188,2020-05-21,13:18:24,13:33:24,NA,incomplete,1,filling,0,right,Red_Star_Grid_3.jpg,Blue_Circle_Dots_3.jpg,Green_Triangle_Grid_4.jpg,right,1979.795000050217,true,NA,NA,NA,NA,NA,NA,NA,NA,true
F7nVja3z,3jhb4bpsgnm0h9bvp7tggfn0kkoq96,3z3zlgnnsm7gprk9z0x8emg56oe3q5,F7nVja3z,2020-0188,2020-05-21,13:18:24,13:33:24,NA,incomplete,2,filling,1,right,Blue_Plus_Chess_1.jpg,Purple_Triangle_Stripes_1.jpg,Green_Circle_Chess_3.jpg,right,993.9599999925122,true,NA,NA,NA,NA,NA,NA,NA,NA,true
F7nVja3z,3jhb4bpsgnm0h9bvp7tggfn0kkoq96,3z3zlgnnsm7gprk9z0x8emg56oe3q5,F7nVja3z,2020-0188,2020-05-21,13:18:24,13:33:24,NA,incomplete,3,filling,1,right,Red_Circle_Grid_3.jpg,Green_Plus_Stripes_3.jpg,Purple_Triangle_Grid_1.jpg,right,1246.640000026673,true,NA,NA,NA,NA,NA,NA,NA,NA,true
F7nVja3z,3jhb4bpsgnm0h9bvp7tggfn0kkoq96,3z3zlgnnsm7gprk9z0x8emg56oe3q5,F7nVja3z,2020-0188,2020-05-21,13:18:24,13:33:24,NA,incomplete,4,filling,1,left,Purple_Triangle_Chess_3.jpg,Green_Star_Chess_4.jpg,Blue_Circle_Stripes_3.jpg,left,953.389999922365,true,NA,NA,NA,NA,NA,NA,NA,NA,true
F7nVja3z,3jhb4bpsgnm0h9bvp7tggfn0kkoq96,3z3zlgnnsm7gprk9z0x8emg56oe3q5,F7nVja3z,2020-0188,2020-05-21,13:18:24,13:33:24,NA,incomplete,5,filling,1,right,Green_Triangle_Stripes_1.jpg,Blue_Star_Grid_1.jpg,Red_Circle_Stripes_4.jpg,right,902.7450000867248,true,NA,NA,NA,NA,NA,NA,NA,NA,true
F7nVja3z,3jhb4bpsgnm0h9bvp7tggfn0kkoq96,3z3zlgnnsm7gprk9z0x8emg56oe3q5,F7nVja3z,2020-0188,2020-05-21,13:18:24,13:33:24,NA,incomplete,6,filling,1,right,Blue_Star_Dots_3.jpg,Green_Circle_Grid_3.jpg,Purple_Plus_Dots_1.jpg,right,1207.73000002373,true,NA,NA,NA,NA,NA,NA,NA,NA,true
F7nVja3z,3jhb4bpsgnm0h9bvp7tggfn0kkoq96,3z3zlgnnsm7gprk9z0x8emg56oe3q5,F7nVja3z,2020-0188,2020-05-21,13:18:24,13:33:24,NA,incomplete,7,filling,1,left,Purple_Triangle_Dots_4.jpg,Blue_Star_Dots_1.jpg,Red_Circle_Stripes_4.jpg,left,980.8000000193715,true,NA,NA,NA,NA,NA,NA,NA,NA,true
F7nVja3z,3jhb4bpsgnm0h9bvp7tggfn0kkoq96,3z3zlgnnsm7gprk9z0x8emg56oe3q5,F7nVja3z,2020-0188,2020-05-21,13:18:24,13:33:24,NA,incomplete,8,filling,1,right,Purple_Triangle_Dots_1.jpg,Green_Star_Grid_1.jpg,Red_Circle_Dots_3.jpg,right,1033.0150000518188,true,NA,NA,NA,NA,NA,NA,NA,NA,true
F7nVja3z,3jhb4bpsgnm0h9bvp7tggfn0kkoq96,3z3zlgnnsm7gprk9z0x8emg56oe3q5,F7nVja3z,2020-0188,2020-05-21,13:18:24,13:33:24,NA,incomplete,9,filling,1,left,Blue_Star_Stripes_4.jpg,Green_Triangle_Stripes_1.jpg,Purple_Circle_Grid_4.jpg,left,867.2700000461191,true,NA,NA,NA,NA,NA,NA,NA,NA,true
F7nVja3z,3jhb4bpsgnm0h9bvp7tggfn0kkoq96,3z3zlgnnsm7gprk9z0x8emg56oe3q5,F7nVja3z,2020-0188,2020-05-21,13:18:24,13:33:24,NA,incomplete,10,filling,1,left,Red_Star_Grid_3.jpg,Purple_Circle_Grid_4.jpg,Green_Triangle_Dots_3.jpg,left,1189.4150000298396,true,NA,NA,NA,NA,NA,NA,NA,NA,true
F7nVja3z,3jhb4bpsgnm0h9bvp7tggfn0kkoq96,3z3zlgnnsm7gprk9z0x8emg56oe3q5,F7nVja3z,2020-0188,2020-05-21,13:18:24,13:33:24,NA,incomplete,11,filling,1,right,Green_Triangle_Grid_2.jpg,Purple_Star_Stripes_2.jpg,Blue_Circle_Grid_3.jpg,right,1083.420000039041,true,NA,NA,NA,NA,NA,NA,NA,NA,true
F7nVja3z,3jhb4bpsgnm0h9bvp7tggfn0kkoq96,3z3zlgnnsm7gprk9z0x8emg56oe3q5,F7nVja3z,2020-0188,2020-05-21,13:18:24,13:33:24,NA,incomplete,12,filling,1,right,Red_Triangle_Grid_3.jpg,Green_Star_Chess_3.jpg,Blue_Plus_Grid_1.jpg,right,1107.6099999481812,true,NA,NA,NA,NA,NA,NA,NA,NA,true
F7nVja3z,3jhb4bpsgnm0h9bvp7tggfn0kkoq96,3z3zlgnnsm7gprk9z0x8emg56oe3q5,F7nVja3z,2020-0188,2020-05-21,13:18:24,13:33:24,NA,incomplete,13,filling,1,left,Blue_Triangle_Stripes_4.jpg,Purple_Plus_Stripes_1.jpg,Green_Circle_Grid_4.jpg,left,907.7850000467151,true,NA,NA,NA,NA,NA,NA,NA,NA,true
F7nVja3z,3jhb4bpsgnm0h9bvp7tggfn0kkoq96,3z3zlgnnsm7gprk9z0x8emg56oe3q5,F7nVja3z,2020-0188,2020-05-21,13:18:24,13:33:24,NA,incomplete,14,filling,1,right,Red_Star_Grid_2.jpg,Blue_Circle_Dots_2.jpg,Purple_Plus_Grid_1.jpg,right,843.9749999670312,true,NA,NA,NA,NA,NA,NA,NA,NA,true
F7nVja3z,3jhb4bpsgnm0h9bvp7tggfn0kkoq96,3z3zlgnnsm7gprk9z0x8emg56oe3q5,F7nVja3z,2020-0188,2020-05-21,13:18:24,13:33:24,NA,incomplete,15,filling,1,right,Red_Triangle_Stripes_1.jpg,Blue_Plus_Dots_1.jpg,Purple_Star_Stripes_2.jpg,right,1078.899999964051,true,NA,NA,NA,NA,NA,NA,NA,NA,true
F7nVja3z,3jhb4bpsgnm0h9bvp7tggfn0kkoq96,3z3zlgnnsm7gprk9z0x8emg56oe3q5,F7nVja3z,2020-0188,2020-05-21,13:18:24,13:33:24,NA,incomplete,16,filling,0,left,Green_Circle_Stripes_2.jpg,Blue_Star_Stripes_1.jpg,Red_Triangle_Dots_2.jpg,left,977.1099999779835,true,NA,NA,NA,NA,NA,NA,NA,NA,true
F7nVja3z,3jhb4bpsgnm0h9bvp7tggfn0kkoq96,3z3zlgnnsm7gprk9z0x8emg56oe3q5,F7nVja3z,2020-0188,2020-05-21,13:18:24,13:33:24,NA,incomplete,17,filling,1,left,Purple_Plus_Dots_3.jpg,Red_Triangle_Dots_1.jpg,Green_Star_Grid_3.jpg,left,1148.905000067316,true,NA,NA,NA,NA,NA,NA,NA,NA,true
F7nVja3z,3jhb4bpsgnm0h9bvp7tggfn0kkoq96,3z3zlgnnsm7gprk9z0x8emg56oe3q5,F7nVja3z,2020-0188,2020-05-21,13:18:24,13:33:24,NA,incomplete,18,filling,0,left,Purple_Triangle_Chess_1.jpg,Green_Circle_Chess_4.jpg,Red_Star_Stripes_1.jpg,left,851.9300000043586,true,NA,NA,NA,NA,NA,NA,NA,NA,true
F7nVja3z,3jhb4bpsgnm0h9bvp7tggfn0kkoq96,3z3zlgnnsm7gprk9z0x8emg56oe3q5,F7nVja3z,2020-0188,2020-05-21,13:18:24,13:33:24,NA,incomplete,19,filling,1,right,Purple_Star_Dots_2.jpg,Red_Plus_Stripes_2.jpg,Blue_Triangle_Dots_1.jpg,right,1525.8750000502914,true,NA,NA,NA,NA,NA,NA,NA,NA,true
F7nVja3z,3jhb4bpsgnm0h9bvp7tggfn0kkoq96,3z3zlgnnsm7gprk9z0x8emg56oe3q5,F7nVja3z,2020-0188,2020-05-21,13:18:24,13:33:24,NA,incomplete,20,number,1,left,Purple_Star_Chess_3.jpg,Green_Plus_Grid_3.jpg,Blue_Triangle_Chess_4.jpg,right,974.3249999592081,false,NA,NA,NA,NA,NA,NA,NA,NA,true
F7nVja3z,3jhb4bpsgnm0h9bvp7tggfn0kkoq96,3z3zlgnnsm7gprk9z0x8emg56oe3q5,F7nVja3z,2020-0188,2020-05-21,13:18:24,13:33:24,NA,incomplete,21,number,1,right,Blue_Triangle_Grid_4.jpg,Red_Circle_Grid_3.jpg,Purple_Plus_Dots_4.jpg,left,1026.3199999462813,false,NA,NA,NA,NA,NA,NA,NA,NA,true
F7nVja3z,3jhb4bpsgnm0h9bvp7tggfn0kkoq96,3z3zlgnnsm7gprk9z0x8emg56oe3q5,F7nVja3z,2020-0188,2020-05-21,13:18:24,13:33:24,NA,incomplete,22,number,1,right,Green_Circle_Grid_4.jpg,Red_Star_Grid_3.jpg,Blue_Triangle_Chess_4.jpg,right,1637.7550000324845,true,NA,NA,NA,NA,NA,NA,NA,NA,true
F7nVja3z,3jhb4bpsgnm0h9bvp7tggfn0kkoq96,3z3zlgnnsm7gprk9z0x8emg56oe3q5,F7nVja3z,2020-0188,2020-05-21,13:18:24,13:33:24,NA,incomplete,23,number,0,right,Red_Plus_Grid_2.jpg,Blue_Star_Grid_4.jpg,Purple_Circle_Chess_2.jpg,right,1176.8049999373034,true,NA,NA,NA,NA,NA,NA,NA,NA,true
F7nVja3z,3jhb4bpsgnm0h9bvp7tggfn0kkoq96,3z3zlgnnsm7gprk9z0x8emg56oe3q5,F7nVja3z,2020-0188,2020-05-21,13:18:24,13:33:24,NA,incomplete,24,number,1,right,Blue_Circle_Dots_3.jpg,Red_Plus_Dots_4.jpg,Green_Triangle_Grid_3.jpg,right,774.9799999874085,true,NA,NA,NA,NA,NA,NA,NA,NA,true
F7nVja3z,3jhb4bpsgnm0h9bvp7tggfn0kkoq96,3z3zlgnnsm7gprk9z0x8emg56oe3q5,F7nVja3z,2020-0188,2020-05-21,13:18:24,13:33:24,NA,incomplete,25,number,0,right,Purple_Star_Stripes_4.jpg,Red_Plus_Stripes_3.jpg,Green_Circle_Chess_4.jpg,right,827.0749999210238,true,NA,NA,NA,NA,NA,NA,NA,NA,true
F7nVja3z,3jhb4bpsgnm0h9bvp7tggfn0kkoq96,3z3zlgnnsm7gprk9z0x8emg56oe3q5,F7nVja3z,2020-0188,2020-05-21,13:18:24,13:33:24,NA,incomplete,26,number,1,right,Red_Star_Stripes_3.jpg,Purple_Triangle_Stripes_4.jpg,Green_Plus_Chess_3.jpg,right,1014.4149999832734,true,NA,NA,NA,NA,NA,NA,NA,NA,true
F7nVja3z,3jhb4bpsgnm0h9bvp7tggfn0kkoq96,3z3zlgnnsm7gprk9z0x8emg56oe3q5,F7nVja3z,2020-0188,2020-05-21,13:18:24,13:33:24,NA,incomplete,27,number,1,left,Green_Plus_Dots_4.jpg,Blue_Circle_Chess_4.jpg,Red_Star_Dots_3.jpg,left,786.5849999943748,true,NA,NA,NA,NA,NA,NA,NA,NA,true
F7nVja3z,3jhb4bpsgnm0h9bvp7tggfn0kkoq96,3z3zlgnnsm7gprk9z0x8emg56oe3q5,F7nVja3z,2020-0188,2020-05-21,13:18:24,13:33:24,NA,incomplete,28,number,1,left,Red_Plus_Chess_4.jpg,Purple_Triangle_Stripes_4.jpg,Blue_Circle_Chess_1.jpg,left,863.2099999813363,true,NA,NA,NA,NA,NA,NA,NA,NA,true
F7nVja3z,3jhb4bpsgnm0h9bvp7tggfn0kkoq96,3z3zlgnnsm7gprk9z0x8emg56oe3q5,F7nVja3z,2020-0188,2020-05-21,13:18:24,13:33:24,NA,incomplete,29,number,1,left,Red_Triangle_Chess_2.jpg,Green_Star_Stripes_2.jpg,Purple_Plus_Chess_1.jpg,left,834.6300000557676,true,NA,NA,NA,NA,NA,NA,NA,NA,true
F7nVja3z,3jhb4bpsgnm0h9bvp7tggfn0kkoq96,3z3zlgnnsm7gprk9z0x8emg56oe3q5,F7nVja3z,2020-0188,2020-05-21,13:18:24,13:33:24,NA,incomplete,30,number,1,right,Green_Circle_Dots_1.jpg,Red_Triangle_Dots_3.jpg,Blue_Star_Stripes_1.jpg,right,1035.884999902919,true,NA,NA,NA,NA,NA,NA,NA,NA,true
F7nVja3z,3jhb4bpsgnm0h9bvp7tggfn0kkoq96,3z3zlgnnsm7gprk9z0x8emg56oe3q5,F7nVja3z,2020-0188,2020-05-21,13:18:24,13:33:24,NA,incomplete,31,number,1,right,Blue_Plus_Dots_1.jpg,Green_Circle_Dots_2.jpg,Purple_Star_Stripes_1.jpg,right,686.4950000308454,true,NA,NA,NA,NA,NA,NA,NA,NA,true
F7nVja3z,3jhb4bpsgnm0h9bvp7tggfn0kkoq96,3z3zlgnnsm7gprk9z0x8emg56oe3q5,F7nVja3z,2020-0188,2020-05-21,13:18:24,13:33:24,NA,incomplete,32,number,0,left,Green_Star_Chess_4.jpg,Purple_Plus_Dots_4.jpg,Red_Triangle_Chess_3.jpg,left,999.5900000212714,true,NA,NA,NA,NA,NA,NA,NA,NA,true
F7nVja3z,3jhb4bpsgnm0h9bvp7tggfn0kkoq96,3z3zlgnnsm7gprk9z0x8emg56oe3q5,F7nVja3z,2020-0188,2020-05-21,13:18:24,13:33:24,NA,incomplete,33,number,1,left,Red_Triangle_Dots_4.jpg,Blue_Star_Chess_4.jpg,Green_Circle_Dots_2.jpg,left,860.2149999933317,true,NA,NA,NA,NA,NA,NA,NA,NA,true
F7nVja3z,3jhb4bpsgnm0h9bvp7tggfn0kkoq96,3z3zlgnnsm7gprk9z0x8emg56oe3q5,F7nVja3z,2020-0188,2020-05-21,13:18:24,13:33:24,NA,incomplete,34,number,1,left,Purple_Star_Dots_3.jpg,Red_Circle_Grid_3.jpg,Blue_Plus_Dots_2.jpg,left,807.1150000905618,true,NA,NA,NA,NA,NA,NA,NA,NA,true
F7nVja3z,3jhb4bpsgnm0h9bvp7tggfn0kkoq96,3z3zlgnnsm7gprk9z0x8emg56oe3q5,F7nVja3z,2020-0188,2020-05-21,13:18:24,13:33:24,NA,incomplete,35,number,1,right,Purple_Circle_Dots_1.jpg,Blue_Plus_Dots_4.jpg,Red_Triangle_Chess_1.jpg,right,625.4399999743327,true,NA,NA,NA,NA,NA,NA,NA,NA,true
F7nVja3z,3jhb4bpsgnm0h9bvp7tggfn0kkoq96,3z3zlgnnsm7gprk9z0x8emg56oe3q5,F7nVja3z,2020-0188,2020-05-21,13:18:24,13:33:24,NA,incomplete,36,number,1,left,Purple_Star_Chess_1.jpg,Red_Circle_Grid_1.jpg,Green_Triangle_Chess_4.jpg,left,637.6900000032037,true,NA,NA,NA,NA,NA,NA,NA,NA,true
F7nVja3z,3jhb4bpsgnm0h9bvp7tggfn0kkoq96,3z3zlgnnsm7gprk9z0x8emg56oe3q5,F7nVja3z,2020-0188,2020-05-21,13:18:24,13:33:24,NA,incomplete,37,number,1,left,Red_Circle_Stripes_4.jpg,Green_Triangle_Dots_4.jpg,Blue_Star_Stripes_3.jpg,left,799.1199999814853,true,NA,NA,NA,NA,NA,NA,NA,NA,true
F7nVja3z,3jhb4bpsgnm0h9bvp7tggfn0kkoq96,3z3zlgnnsm7gprk9z0x8emg56oe3q5,F7nVja3z,2020-0188,2020-05-21,13:18:24,13:33:24,NA,incomplete,38,number,1,left,Blue_Star_Grid_2.jpg,Red_Triangle_Dots_2.jpg,Purple_Circle_Grid_4.jpg,left,684.6300000324845,true,NA,NA,NA,NA,NA,NA,NA,NA,true
F7nVja3z,3jhb4bpsgnm0h9bvp7tggfn0kkoq96,3z3zlgnnsm7gprk9z0x8emg56oe3q5,F7nVja3z,2020-0188,2020-05-21,13:18:24,13:33:24,NA,incomplete,39,number,0,left,Blue_Star_Dots_4.jpg,Red_Plus_Grid_4.jpg,Purple_Triangle_Dots_2.jpg,left,742.5400000065565,true,NA,NA,NA,NA,NA,NA,NA,NA,true
F7nVja3z,3jhb4bpsgnm0h9bvp7tggfn0kkoq96,3z3zlgnnsm7gprk9z0x8emg56oe3q5,F7nVja3z,2020-0188,2020-05-21,13:18:24,13:33:24,NA,incomplete,0,filling,1,left,Purple_Triangle_Stripes_1.jpg,Red_Circle_Stripes_2.jpg,Green_Plus_Chess_1.jpg,right,1142.3249999061227,false,low,NA,NA,NA,NA,NA,NA,NA,false
F7nVja3z,3jhb4bpsgnm0h9bvp7tggfn0kkoq96,3z3zlgnnsm7gprk9z0x8emg56oe3q5,F7nVja3z,2020-0188,2020-05-21,13:18:24,13:33:24,NA,incomplete,1,filling,1,right,Blue_Triangle_Stripes_3.jpg,Green_Plus_Dots_3.jpg,Purple_Star_Stripes_4.jpg,left,1117.9250000277534,false,low,NA,NA,NA,NA,NA,NA,NA,false
F7nVja3z,3jhb4bpsgnm0h9bvp7tggfn0kkoq96,3z3zlgnnsm7gprk9z0x8emg56oe3q5,F7nVja3z,2020-0188,2020-05-21,13:18:24,13:33:24,NA,incomplete,2,filling,1,right,Red_Circle_Dots_1.jpg,Purple_Plus_Stripes_1.jpg,Blue_Triangle_Dots_2.jpg,right,1092.1350000426173,true,low,NA,NA,NA,NA,NA,NA,NA,false
F7nVja3z,3jhb4bpsgnm0h9bvp7tggfn0kkoq96,3z3zlgnnsm7gprk9z0x8emg56oe3q5,F7nVja3z,2020-0188,2020-05-21,13:18:24,13:33:24,NA,incomplete,3,filling,1,right,Blue_Triangle_Grid_4.jpg,Green_Star_Stripes_4.jpg,Red_Circle_Grid_3.jpg,right,1036.629999987781,true,low,NA,NA,NA,NA,NA,NA,NA,false
F7nVja3z,3jhb4bpsgnm0h9bvp7tggfn0kkoq96,3z3zlgnnsm7gprk9z0x8emg56oe3q5,F7nVja3z,2020-0188,2020-05-21,13:18:24,13:33:24,NA,incomplete,4,filling,1,left,Green_Star_Dots_4.jpg,Blue_Plus_Dots_2.jpg,Red_Circle_Stripes_4.jpg,left,1055.6399999186397,true,low,NA,NA,NA,NA,NA,NA,NA,false
F7nVja3z,3jhb4bpsgnm0h9bvp7tggfn0kkoq96,3z3zlgnnsm7gprk9z0x8emg56oe3q5,F7nVja3z,2020-0188,2020-05-21,13:18:24,13:33:24,NA,incomplete,5,filling,0,left,Purple_Plus_Dots_2.jpg,Blue_Circle_Dots_3.jpg,Red_Star_Grid_2.jpg,left,1234.8950000014156,true,low,NA,NA,NA,NA,NA,NA,NA,false
F7nVja3z,3jhb4bpsgnm0h9bvp7tggfn0kkoq96,3z3zlgnnsm7gprk9z0x8emg56oe3q5,F7nVja3z,2020-0188,2020-05-21,13:18:24,13:33:24,NA,incomplete,6,filling,1,left,Purple_Plus_Stripes_2.jpg,Blue_Star_Stripes_3.jpg,Green_Triangle_Chess_2.jpg,left,891.2649999838322,true,low,NA,NA,NA,NA,NA,NA,NA,false
F7nVja3z,3jhb4bpsgnm0h9bvp7tggfn0kkoq96,3z3zlgnnsm7gprk9z0x8emg56oe3q5,F7nVja3z,2020-0188,2020-05-21,13:18:24,13:33:24,NA,incomplete,7,filling,0,left,Red_Star_Dots_4.jpg,Purple_Plus_Dots_2.jpg,Green_Circle_Stripes_4.jpg,left,932.7749999938533,true,low,NA,NA,NA,NA,NA,NA,NA,false
F7nVja3z,3jhb4bpsgnm0h9bvp7tggfn0kkoq96,3z3zlgnnsm7gprk9z0x8emg56oe3q5,F7nVja3z,2020-0188,2020-05-21,13:18:24,13:33:24,NA,incomplete,8,filling,1,right,Blue_Triangle_Chess_4.jpg,Purple_Plus_Grid_4.jpg,Red_Circle_Chess_3.jpg,right,844.2849999992177,true,low,NA,NA,NA,NA,NA,NA,NA,false
F7nVja3z,3jhb4bpsgnm0h9bvp7tggfn0kkoq96,3z3zlgnnsm7gprk9z0x8emg56oe3q5,F7nVja3z,2020-0188,2020-05-21,13:18:24,13:33:24,NA,incomplete,9,filling,1,right,Green_Triangle_Chess_4.jpg,Purple_Star_Stripes_4.jpg,Blue_Plus_Chess_3.jpg,right,973.5900000669062,true,low,NA,NA,NA,NA,NA,NA,NA,false
F7nVja3z,3jhb4bpsgnm0h9bvp7tggfn0kkoq96,3z3zlgnnsm7gprk9z0x8emg56oe3q5,F7nVja3z,2020-0188,2020-05-21,13:18:24,13:33:24,NA,incomplete,10,filling,1,right,Purple_Star_Chess_2.jpg,Blue_Plus_Grid_2.jpg,Green_Circle_Chess_4.jpg,right,867.655000067316,true,low,NA,NA,NA,NA,NA,NA,NA,false
F7nVja3z,3jhb4bpsgnm0h9bvp7tggfn0kkoq96,3z3zlgnnsm7gprk9z0x8emg56oe3q5,F7nVja3z,2020-0188,2020-05-21,13:18:24,13:33:24,NA,incomplete,11,filling,1,right,Purple_Plus_Grid_4.jpg,Green_Triangle_Dots_4.jpg,Red_Star_Grid_2.jpg,right,780.6799999671057,true,low,NA,NA,NA,NA,NA,NA,NA,false
F7nVja3z,3jhb4bpsgnm0h9bvp7tggfn0kkoq96,3z3zlgnnsm7gprk9z0x8emg56oe3q5,F7nVja3z,2020-0188,2020-05-21,13:18:24,13:33:24,NA,incomplete,12,filling,1,right,Blue_Star_Chess_1.jpg,Red_Circle_Grid_1.jpg,Green_Triangle_Chess_2.jpg,right,826.850000070408,true,low,NA,NA,NA,NA,NA,NA,NA,false
F7nVja3z,3jhb4bpsgnm0h9bvp7tggfn0kkoq96,3z3zlgnnsm7gprk9z0x8emg56oe3q5,F7nVja3z,2020-0188,2020-05-21,13:18:24,13:33:24,NA,incomplete,13,filling,1,left,Blue_Star_Stripes_2.jpg,Purple_Plus_Stripes_1.jpg,Green_Triangle_Dots_2.jpg,left,957.1800000267103,true,low,NA,NA,NA,NA,NA,NA,NA,false
F7nVja3z,3jhb4bpsgnm0h9bvp7tggfn0kkoq96,3z3zlgnnsm7gprk9z0x8emg56oe3q5,F7nVja3z,2020-0188,2020-05-21,13:18:24,13:33:24,NA,incomplete,14,filling,1,right,Red_Plus_Grid_1.jpg,Purple_Circle_Chess_1.jpg,Blue_Triangle_Grid_4.jpg,right,876.3749999925494,true,low,NA,NA,NA,NA,NA,NA,NA,false
F7nVja3z,3jhb4bpsgnm0h9bvp7tggfn0kkoq96,3z3zlgnnsm7gprk9z0x8emg56oe3q5,F7nVja3z,2020-0188,2020-05-21,13:18:24,13:33:24,NA,incomplete,15,filling,0,right,Green_Star_Chess_4.jpg,Blue_Circle_Dots_4.jpg,Red_Triangle_Chess_3.jpg,right,854.7699999762699,true,low,NA,NA,NA,NA,NA,NA,NA,false
F7nVja3z,3jhb4bpsgnm0h9bvp7tggfn0kkoq96,3z3zlgnnsm7gprk9z0x8emg56oe3q5,F7nVja3z,2020-0188,2020-05-21,13:18:24,13:33:24,NA,incomplete,16,filling,1,right,Green_Star_Chess_4.jpg,Blue_Circle_Dots_4.jpg,Red_Triangle_Chess_2.jpg,right,847.5599999073893,true,low,NA,NA,NA,NA,NA,NA,NA,false
F7nVja3z,3jhb4bpsgnm0h9bvp7tggfn0kkoq96,3z3zlgnnsm7gprk9z0x8emg56oe3q5,F7nVja3z,2020-0188,2020-05-21,13:18:24,13:33:24,NA,incomplete,17,filling,0,right,Blue_Circle_Grid_3.jpg,Purple_Plus_Dots_3.jpg,Red_Star_Grid_1.jpg,right,866.2350000813603,true,low,NA,NA,NA,NA,NA,NA,NA,false
F7nVja3z,3jhb4bpsgnm0h9bvp7tggfn0kkoq96,3z3zlgnnsm7gprk9z0x8emg56oe3q5,F7nVja3z,2020-0188,2020-05-21,13:18:24,13:33:24,NA,incomplete,18,filling,1,right,Green_Triangle_Stripes_1.jpg,Blue_Circle_Grid_1.jpg,Purple_Star_Stripes_2.jpg,right,843.5499999905005,true,low,NA,NA,NA,NA,NA,NA,NA,false
F7nVja3z,3jhb4bpsgnm0h9bvp7tggfn0kkoq96,3z3zlgnnsm7gprk9z0x8emg56oe3q5,F7nVja3z,2020-0188,2020-05-21,13:18:24,13:33:24,NA,incomplete,19,filling,1,right,Red_Circle_Grid_4.jpg,Blue_Star_Chess_4.jpg,Purple_Triangle_Grid_3.jpg,right,775.2199999522418,true,low,NA,NA,NA,NA,NA,NA,NA,false
F7nVja3z,3jhb4bpsgnm0h9bvp7tggfn0kkoq96,3z3zlgnnsm7gprk9z0x8emg56oe3q5,F7nVja3z,2020-0188,2020-05-21,13:18:24,13:33:24,NA,incomplete,20,filling,1,right,Purple_Triangle_Dots_2.jpg,Green_Star_Grid_2.jpg,Blue_Circle_Dots_1.jpg,right,844.2750000394881,true,low,NA,NA,NA,NA,NA,NA,NA,false
F7nVja3z,3jhb4bpsgnm0h9bvp7tggfn0kkoq96,3z3zlgnnsm7gprk9z0x8emg56oe3q5,F7nVja3z,2020-0188,2020-05-21,13:18:24,13:33:24,NA,incomplete,21,filling,1,left,Red_Triangle_Dots_3.jpg,Green_Plus_Dots_1.jpg,Blue_Circle_Grid_3.jpg,left,863.2800000486895,true,low,NA,NA,NA,NA,NA,NA,NA,false
F7nVja3z,3jhb4bpsgnm0h9bvp7tggfn0kkoq96,3z3zlgnnsm7gprk9z0x8emg56oe3q5,F7nVja3z,2020-0188,2020-05-21,13:18:24,13:33:24,NA,incomplete,22,filling,0,left,Blue_Triangle_Dots_3.jpg,Green_Circle_Dots_2.jpg,Purple_Star_Stripes_3.jpg,left,825.0799999805167,true,low,NA,NA,NA,NA,NA,NA,NA,false
F7nVja3z,3jhb4bpsgnm0h9bvp7tggfn0kkoq96,3z3zlgnnsm7gprk9z0x8emg56oe3q5,F7nVja3z,2020-0188,2020-05-21,13:18:24,13:33:24,NA,incomplete,23,filling,0,right,Green_Circle_Chess_1.jpg,Purple_Star_Dots_1.jpg,Red_Plus_Chess_4.jpg,right,764.6449999883771,true,low,NA,NA,NA,NA,NA,NA,NA,false
F7nVja3z,3jhb4bpsgnm0h9bvp7tggfn0kkoq96,3z3zlgnnsm7gprk9z0x8emg56oe3q5,F7nVja3z,2020-0188,2020-05-21,13:18:24,13:33:24,NA,incomplete,24,filling,1,left,Purple_Circle_Stripes_2.jpg,Green_Plus_Stripes_4.jpg,Blue_Triangle_Grid_2.jpg,left,906.2649999978021,true,low,NA,NA,NA,NA,NA,NA,NA,false
F7nVja3z,3jhb4bpsgnm0h9bvp7tggfn0kkoq96,3z3zlgnnsm7gprk9z0x8emg56oe3q5,F7nVja3z,2020-0188,2020-05-21,13:18:24,13:33:24,NA,incomplete,25,filling,0,left,Blue_Triangle_Chess_2.jpg,Red_Star_Chess_1.jpg,Green_Plus_Dots_2.jpg,left,819.7549999458715,true,low,NA,NA,NA,NA,NA,NA,NA,false
F7nVja3z,3jhb4bpsgnm0h9bvp7tggfn0kkoq96,3z3zlgnnsm7gprk9z0x8emg56oe3q5,F7nVja3z,2020-0188,2020-05-21,13:18:24,13:33:24,NA,incomplete,26,filling,1,left,Red_Triangle_Chess_2.jpg,Purple_Circle_Chess_3.jpg,Green_Plus_Grid_2.jpg,left,766.2250000284985,true,low,NA,NA,NA,NA,NA,NA,NA,false
F7nVja3z,3jhb4bpsgnm0h9bvp7tggfn0kkoq96,3z3zlgnnsm7gprk9z0x8emg56oe3q5,F7nVja3z,2020-0188,2020-05-21,13:18:24,13:33:24,NA,incomplete,27,filling,0,right,Red_Star_Stripes_3.jpg,Blue_Plus_Chess_3.jpg,Purple_Circle_Stripes_4.jpg,right,907.8050000825897,true,low,NA,NA,NA,NA,NA,NA,NA,false
F7nVja3z,3jhb4bpsgnm0h9bvp7tggfn0kkoq96,3z3zlgnnsm7gprk9z0x8emg56oe3q5,F7nVja3z,2020-0188,2020-05-21,13:18:24,13:33:24,NA,incomplete,28,filling,1,right,Red_Plus_Grid_4.jpg,Blue_Circle_Chess_4.jpg,Green_Star_Grid_1.jpg,right,1195.8950000116602,true,low,NA,NA,NA,NA,NA,NA,NA,false
F7nVja3z,3jhb4bpsgnm0h9bvp7tggfn0kkoq96,3z3zlgnnsm7gprk9z0x8emg56oe3q5,F7nVja3z,2020-0188,2020-05-21,13:18:24,13:33:24,NA,incomplete,29,filling,1,right,Blue_Star_Stripes_3.jpg,Purple_Circle_Dots_3.jpg,Green_Triangle_Stripes_2.jpg,right,1104.6799999894574,true,low,NA,NA,NA,NA,NA,NA,NA,false
F7nVja3z,3jhb4bpsgnm0h9bvp7tggfn0kkoq96,3z3zlgnnsm7gprk9z0x8emg56oe3q5,F7nVja3z,2020-0188,2020-05-21,13:18:24,13:33:24,NA,incomplete,30,number,1,right,Green_Triangle_Grid_3.jpg,Purple_Circle_Grid_2.jpg,Red_Plus_Chess_3.jpg,left,960.1800000527874,false,low,NA,NA,NA,NA,NA,NA,NA,false
F7nVja3z,3jhb4bpsgnm0h9bvp7tggfn0kkoq96,3z3zlgnnsm7gprk9z0x8emg56oe3q5,F7nVja3z,2020-0188,2020-05-21,13:18:24,13:33:24,NA,incomplete,31,number,0,right,Purple_Circle_Stripes_4.jpg,Red_Star_Stripes_3.jpg,Green_Plus_Dots_4.jpg,left,926.7900000559166,false,low,NA,NA,NA,NA,NA,NA,NA,false
F7nVja3z,3jhb4bpsgnm0h9bvp7tggfn0kkoq96,3z3zlgnnsm7gprk9z0x8emg56oe3q5,F7nVja3z,2020-0188,2020-05-21,13:18:24,13:33:24,NA,incomplete,32,number,1,right,Green_Circle_Stripes_2.jpg,Red_Plus_Stripes_1.jpg,Blue_Triangle_Grid_2.jpg,left,813.5400000028312,false,low,NA,NA,NA,NA,NA,NA,NA,false
F7nVja3z,3jhb4bpsgnm0h9bvp7tggfn0kkoq96,3z3zlgnnsm7gprk9z0x8emg56oe3q5,F7nVja3z,2020-0188,2020-05-21,13:18:24,13:33:24,NA,incomplete,33,number,1,left,Purple_Plus_Chess_1.jpg,Red_Star_Stripes_1.jpg,Blue_Triangle_Chess_3.jpg,right,841.0600000061095,false,low,NA,NA,NA,NA,NA,NA,NA,false
F7nVja3z,3jhb4bpsgnm0h9bvp7tggfn0kkoq96,3z3zlgnnsm7gprk9z0x8emg56oe3q5,F7nVja3z,2020-0188,2020-05-21,13:18:24,13:33:24,NA,incomplete,34,number,0,right,Red_Circle_Grid_2.jpg,Purple_Star_Grid_4.jpg,Blue_Plus_Dots_2.jpg,left,996.5450000017881,false,low,NA,NA,NA,NA,NA,NA,NA,false
F7nVja3z,3jhb4bpsgnm0h9bvp7tggfn0kkoq96,3z3zlgnnsm7gprk9z0x8emg56oe3q5,F7nVja3z,2020-0188,2020-05-21,13:18:24,13:33:24,NA,incomplete,35,number,1,left,Green_Star_Chess_2.jpg,Red_Circle_Dots_2.jpg,Blue_Triangle_Chess_4.jpg,right,786.4250000566244,false,low,NA,NA,NA,NA,NA,NA,NA,false
F7nVja3z,3jhb4bpsgnm0h9bvp7tggfn0kkoq96,3z3zlgnnsm7gprk9z0x8emg56oe3q5,F7nVja3z,2020-0188,2020-05-21,13:18:24,13:33:24,NA,incomplete,36,number,1,left,Red_Triangle_Chess_2.jpg,Green_Circle_Dots_2.jpg,Purple_Star_Chess_4.jpg,left,716.9050000375137,true,low,NA,NA,NA,NA,NA,NA,NA,false
F7nVja3z,3jhb4bpsgnm0h9bvp7tggfn0kkoq96,3z3zlgnnsm7gprk9z0x8emg56oe3q5,F7nVja3z,2020-0188,2020-05-21,13:18:24,13:33:24,NA,incomplete,37,number,1,left,Blue_Triangle_Dots_1.jpg,Purple_Circle_Grid_1.jpg,Green_Plus_Dots_3.jpg,left,701.3100000331178,true,low,NA,NA,NA,NA,NA,NA,NA,false
F7nVja3z,3jhb4bpsgnm0h9bvp7tggfn0kkoq96,3z3zlgnnsm7gprk9z0x8emg56oe3q5,F7nVja3z,2020-0188,2020-05-21,13:18:24,13:33:24,NA,incomplete,38,number,1,right,Green_Star_Stripes_4.jpg,Blue_Triangle_Stripes_3.jpg,Red_Plus_Chess_4.jpg,right,733.6150000337511,true,low,NA,NA,NA,NA,NA,NA,NA,false
F7nVja3z,3jhb4bpsgnm0h9bvp7tggfn0kkoq96,3z3zlgnnsm7gprk9z0x8emg56oe3q5,F7nVja3z,2020-0188,2020-05-21,13:18:24,13:33:24,NA,incomplete,39,number,1,left,Red_Triangle_Grid_2.jpg,Green_Star_Chess_2.jpg,Purple_Plus_Grid_4.jpg,left,676.949999993667,true,low,NA,NA,NA,NA,NA,NA,NA,false
F7nVja3z,3jhb4bpsgnm0h9bvp7tggfn0kkoq96,3z3zlgnnsm7gprk9z0x8emg56oe3q5,F7nVja3z,2020-0188,2020-05-21,13:18:24,13:33:24,NA,incomplete,40,number,0,right,Green_Triangle_Dots_4.jpg,Purple_Plus_Dots_3.jpg,Red_Star_Chess_4.jpg,right,678.7699999986216,true,low,NA,NA,NA,NA,NA,NA,NA,false
F7nVja3z,3jhb4bpsgnm0h9bvp7tggfn0kkoq96,3z3zlgnnsm7gprk9z0x8emg56oe3q5,F7nVja3z,2020-0188,2020-05-21,13:18:24,13:33:24,NA,incomplete,41,number,1,right,Blue_Star_Chess_1.jpg,Green_Circle_Chess_4.jpg,Purple_Triangle_Stripes_1.jpg,right,639.6000001113862,true,low,NA,NA,NA,NA,NA,NA,NA,false
F7nVja3z,3jhb4bpsgnm0h9bvp7tggfn0kkoq96,3z3zlgnnsm7gprk9z0x8emg56oe3q5,F7nVja3z,2020-0188,2020-05-21,13:18:24,13:33:24,NA,incomplete,42,number,1,right,Blue_Triangle_Grid_4.jpg,Purple_Circle_Grid_1.jpg,Red_Plus_Dots_4.jpg,right,705.7049999712035,true,low,NA,NA,NA,NA,NA,NA,NA,false
F7nVja3z,3jhb4bpsgnm0h9bvp7tggfn0kkoq96,3z3zlgnnsm7gprk9z0x8emg56oe3q5,F7nVja3z,2020-0188,2020-05-21,13:18:24,13:33:24,NA,incomplete,43,number,1,right,Purple_Triangle_Stripes_1.jpg,Green_Star_Stripes_4.jpg,Blue_Circle_Dots_1.jpg,right,585.9149999450892,true,low,NA,NA,NA,NA,NA,NA,NA,false
F7nVja3z,3jhb4bpsgnm0h9bvp7tggfn0kkoq96,3z3zlgnnsm7gprk9z0x8emg56oe3q5,F7nVja3z,2020-0188,2020-05-21,13:18:24,13:33:24,NA,incomplete,44,number,1,right,Purple_Circle_Grid_3.jpg,Red_Plus_Grid_2.jpg,Blue_Star_Stripes_3.jpg,right,701.5599999576807,true,low,NA,NA,NA,NA,NA,NA,NA,false
F7nVja3z,3jhb4bpsgnm0h9bvp7tggfn0kkoq96,3z3zlgnnsm7gprk9z0x8emg56oe3q5,F7nVja3z,2020-0188,2020-05-21,13:18:24,13:33:24,NA,incomplete,45,number,1,left,Green_Triangle_Stripes_1.jpg,Purple_Plus_Chess_1.jpg,Red_Star_Stripes_4.jpg,left,605.8950000442564,true,low,NA,NA,NA,NA,NA,NA,NA,false
F7nVja3z,3jhb4bpsgnm0h9bvp7tggfn0kkoq96,3z3zlgnnsm7gprk9z0x8emg56oe3q5,F7nVja3z,2020-0188,2020-05-21,13:18:24,13:33:24,NA,incomplete,46,number,1,left,Red_Circle_Stripes_4.jpg,Blue_Star_Dots_4.jpg,Purple_Triangle_Stripes_1.jpg,left,554.6399999875575,true,low,NA,NA,NA,NA,NA,NA,NA,false
F7nVja3z,3jhb4bpsgnm0h9bvp7tggfn0kkoq96,3z3zlgnnsm7gprk9z0x8emg56oe3q5,F7nVja3z,2020-0188,2020-05-21,13:18:24,13:33:24,NA,incomplete,47,number,1,left,Blue_Star_Stripes_1.jpg,Purple_Triangle_Chess_1.jpg,Red_Circle_Stripes_4.jpg,left,688.9700000174344,true,low,NA,NA,NA,NA,NA,NA,NA,false
F7nVja3z,3jhb4bpsgnm0h9bvp7tggfn0kkoq96,3z3zlgnnsm7gprk9z0x8emg56oe3q5,F7nVja3z,2020-0188,2020-05-21,13:18:24,13:33:24,NA,incomplete,48,number,1,right,Red_Star_Stripes_1.jpg,Purple_Circle_Stripes_4.jpg,Blue_Triangle_Grid_1.jpg,right,632.7550000278279,true,low,NA,NA,NA,NA,NA,NA,NA,false
F7nVja3z,3jhb4bpsgnm0h9bvp7tggfn0kkoq96,3z3zlgnnsm7gprk9z0x8emg56oe3q5,F7nVja3z,2020-0188,2020-05-21,13:18:24,13:33:24,NA,incomplete,49,number,0,right,Green_Plus_Chess_2.jpg,Red_Star_Chess_4.jpg,Purple_Circle_Dots_2.jpg,right,980.9200000017881,true,low,NA,NA,NA,NA,NA,NA,NA,false
F7nVja3z,3jhb4bpsgnm0h9bvp7tggfn0kkoq96,3z3zlgnnsm7gprk9z0x8emg56oe3q5,F7nVja3z,2020-0188,2020-05-21,13:18:24,13:33:24,NA,incomplete,50,number,1,right,Green_Star_Stripes_3.jpg,Red_Plus_Stripes_2.jpg,Purple_Circle_Grid_3.jpg,right,1003.5050000296906,true,low,NA,NA,NA,NA,NA,NA,NA,false
F7nVja3z,3jhb4bpsgnm0h9bvp7tggfn0kkoq96,3z3zlgnnsm7gprk9z0x8emg56oe3q5,F7nVja3z,2020-0188,2020-05-21,13:18:24,13:33:24,NA,incomplete,51,number,1,left,Blue_Star_Grid_4.jpg,Green_Circle_Chess_4.jpg,Red_Plus_Grid_1.jpg,left,654.2150001041591,true,low,NA,NA,NA,NA,NA,NA,NA,false
F7nVja3z,3jhb4bpsgnm0h9bvp7tggfn0kkoq96,3z3zlgnnsm7gprk9z0x8emg56oe3q5,F7nVja3z,2020-0188,2020-05-21,13:18:24,13:33:24,NA,incomplete,52,number,1,right,Blue_Plus_Chess_3.jpg,Red_Circle_Chess_4.jpg,Purple_Star_Grid_3.jpg,right,911.6099999519065,true,low,NA,NA,NA,NA,NA,NA,NA,false
F7nVja3z,3jhb4bpsgnm0h9bvp7tggfn0kkoq96,3z3zlgnnsm7gprk9z0x8emg56oe3q5,F7nVja3z,2020-0188,2020-05-21,13:18:24,13:33:24,NA,incomplete,53,number,0,left,Purple_Star_Grid_2.jpg,Red_Triangle_Dots_2.jpg,Blue_Circle_Grid_4.jpg,left,680.0550000043586,true,low,NA,NA,NA,NA,NA,NA,NA,false
F7nVja3z,3jhb4bpsgnm0h9bvp7tggfn0kkoq96,3z3zlgnnsm7gprk9z0x8emg56oe3q5,F7nVja3z,2020-0188,2020-05-21,13:18:24,13:33:24,NA,incomplete,54,number,0,left,Green_Plus_Dots_3.jpg,Red_Star_Chess_3.jpg,Purple_Circle_Dots_4.jpg,left,689.2750000115484,true,low,NA,NA,NA,NA,NA,NA,NA,false
F7nVja3z,3jhb4bpsgnm0h9bvp7tggfn0kkoq96,3z3zlgnnsm7gprk9z0x8emg56oe3q5,F7nVja3z,2020-0188,2020-05-21,13:18:24,13:33:24,NA,incomplete,55,number,1,right,Purple_Circle_Grid_1.jpg,Blue_Triangle_Grid_2.jpg,Red_Star_Chess_1.jpg,right,609.6849999157712,true,low,NA,NA,NA,NA,NA,NA,NA,false
F7nVja3z,3jhb4bpsgnm0h9bvp7tggfn0kkoq96,3z3zlgnnsm7gprk9z0x8emg56oe3q5,F7nVja3z,2020-0188,2020-05-21,13:18:24,13:33:24,NA,incomplete,56,number,1,right,Red_Plus_Stripes_4.jpg,Green_Star_Stripes_3.jpg,Blue_Triangle_Grid_4.jpg,right,606.1449999688193,true,low,NA,NA,NA,NA,NA,NA,NA,false
F7nVja3z,3jhb4bpsgnm0h9bvp7tggfn0kkoq96,3z3zlgnnsm7gprk9z0x8emg56oe3q5,F7nVja3z,2020-0188,2020-05-21,13:18:24,13:33:24,NA,incomplete,57,number,1,left,Purple_Plus_Dots_3.jpg,Blue_Star_Stripes_3.jpg,Red_Circle_Dots_4.jpg,left,633.4999999962747,true,low,NA,NA,NA,NA,NA,NA,NA,false
F7nVja3z,3jhb4bpsgnm0h9bvp7tggfn0kkoq96,3z3zlgnnsm7gprk9z0x8emg56oe3q5,F7nVja3z,2020-0188,2020-05-21,13:18:24,13:33:24,NA,incomplete,58,number,1,right,Blue_Circle_Stripes_1.jpg,Purple_Triangle_Stripes_4.jpg,Green_Star_Chess_1.jpg,right,629.8199999146163,true,low,NA,NA,NA,NA,NA,NA,NA,false
F7nVja3z,3jhb4bpsgnm0h9bvp7tggfn0kkoq96,3z3zlgnnsm7gprk9z0x8emg56oe3q5,F7nVja3z,2020-0188,2020-05-21,13:18:24,13:33:24,NA,incomplete,59,number,0,left,Red_Circle_Grid_4.jpg,Blue_Triangle_Dots_4.jpg,Purple_Star_Grid_2.jpg,left,704.604999977164,true,low,NA,NA,NA,NA,NA,NA,NA,false
F7nVja3z,3jhb4bpsgnm0h9bvp7tggfn0kkoq96,3z3zlgnnsm7gprk9z0x8emg56oe3q5,F7nVja3z,2020-0188,2020-05-21,13:18:24,13:33:24,NA,incomplete,60,filling,1,left,Purple_Star_Stripes_4.jpg,Blue_Plus_Stripes_3.jpg,Green_Triangle_Chess_4.jpg,left,930.1099999574944,true,low,NA,NA,NA,NA,NA,NA,NA,false
F7nVja3z,3jhb4bpsgnm0h9bvp7tggfn0kkoq96,3z3zlgnnsm7gprk9z0x8emg56oe3q5,F7nVja3z,2020-0188,2020-05-21,13:18:24,13:33:24,NA,incomplete,61,filling,0,left,Red_Star_Stripes_3.jpg,Blue_Plus_Stripes_4.jpg,Purple_Circle_Chess_3.jpg,left,831.925000064075,true,low,NA,NA,NA,NA,NA,NA,NA,false
F7nVja3z,3jhb4bpsgnm0h9bvp7tggfn0kkoq96,3z3zlgnnsm7gprk9z0x8emg56oe3q5,F7nVja3z,2020-0188,2020-05-21,13:18:24,13:33:24,NA,incomplete,62,filling,1,right,Red_Star_Stripes_2.jpg,Blue_Triangle_Dots_2.jpg,Green_Circle_Stripes_4.jpg,right,858.5650000022724,true,low,NA,NA,NA,NA,NA,NA,NA,false
F7nVja3z,3jhb4bpsgnm0h9bvp7tggfn0kkoq96,3z3zlgnnsm7gprk9z0x8emg56oe3q5,F7nVja3z,2020-0188,2020-05-21,13:18:24,13:33:24,NA,incomplete,63,filling,0,left,Blue_Circle_Grid_2.jpg,Purple_Plus_Grid_1.jpg,Green_Triangle_Stripes_2.jpg,left,749.7750000329688,true,low,NA,NA,NA,NA,NA,NA,NA,false
F7nVja3z,3jhb4bpsgnm0h9bvp7tggfn0kkoq96,3z3zlgnnsm7gprk9z0x8emg56oe3q5,F7nVja3z,2020-0188,2020-05-21,13:18:24,13:33:24,NA,incomplete,64,filling,1,right,Purple_Plus_Chess_1.jpg,Red_Circle_Dots_1.jpg,Green_Triangle_Chess_2.jpg,right,820.4350000014529,true,low,NA,NA,NA,NA,NA,NA,NA,false
F7nVja3z,3jhb4bpsgnm0h9bvp7tggfn0kkoq96,3z3zlgnnsm7gprk9z0x8emg56oe3q5,F7nVja3z,2020-0188,2020-05-21,13:18:24,13:33:24,NA,incomplete,65,filling,1,left,Purple_Plus_Dots_2.jpg,Blue_Circle_Dots_4.jpg,Green_Star_Grid_2.jpg,left,824.5100000640377,true,low,NA,NA,NA,NA,NA,NA,NA,false
F7nVja3z,3jhb4bpsgnm0h9bvp7tggfn0kkoq96,3z3zlgnnsm7gprk9z0x8emg56oe3q5,F7nVja3z,2020-0188,2020-05-21,13:18:24,13:33:24,NA,incomplete,66,filling,0,right,Purple_Plus_Grid_3.jpg,Red_Triangle_Stripes_3.jpg,Blue_Star_Grid_4.jpg,right,866.9950000476092,true,low,NA,NA,NA,NA,NA,NA,NA,false
F7nVja3z,3jhb4bpsgnm0h9bvp7tggfn0kkoq96,3z3zlgnnsm7gprk9z0x8emg56oe3q5,F7nVja3z,2020-0188,2020-05-21,13:18:24,13:33:24,NA,incomplete,67,filling,0,right,Green_Triangle_Grid_3.jpg,Red_Star_Dots_3.jpg,Purple_Circle_Grid_2.jpg,right,789.3850000109524,true,low,NA,NA,NA,NA,NA,NA,NA,false
F7nVja3z,3jhb4bpsgnm0h9bvp7tggfn0kkoq96,3z3zlgnnsm7gprk9z0x8emg56oe3q5,F7nVja3z,2020-0188,2020-05-21,13:18:24,13:33:24,NA,incomplete,68,filling,1,right,Green_Plus_Stripes_3.jpg,Blue_Circle_Chess_3.jpg,Red_Star_Stripes_1.jpg,left,577.8999999165535,false,low,NA,NA,NA,NA,NA,NA,NA,false
F7nVja3z,3jhb4bpsgnm0h9bvp7tggfn0kkoq96,3z3zlgnnsm7gprk9z0x8emg56oe3q5,F7nVja3z,2020-0188,2020-05-21,13:18:24,13:33:24,NA,incomplete,69,filling,1,left,Green_Plus_Grid_4.jpg,Blue_Star_Grid_3.jpg,Red_Circle_Chess_4.jpg,right,599.0400000009686,false,low,NA,NA,NA,NA,NA,NA,NA,false
F7nVja3z,3jhb4bpsgnm0h9bvp7tggfn0kkoq96,3z3zlgnnsm7gprk9z0x8emg56oe3q5,F7nVja3z,2020-0188,2020-05-21,13:18:24,13:33:24,NA,incomplete,70,filling,1,right,Red_Star_Stripes_2.jpg,Purple_Triangle_Chess_2.jpg,Blue_Plus_Stripes_4.jpg,left,643.0900000268593,false,low,NA,NA,NA,NA,NA,NA,NA,false
F7nVja3z,3jhb4bpsgnm0h9bvp7tggfn0kkoq96,3z3zlgnnsm7gprk9z0x8emg56oe3q5,F7nVja3z,2020-0188,2020-05-21,13:18:24,13:33:24,NA,incomplete,71,filling,1,right,Red_Star_Dots_3.jpg,Green_Circle_Chess_3.jpg,Blue_Triangle_Dots_4.jpg,right,909.6049999352545,true,low,NA,NA,NA,NA,NA,NA,NA,false
F7nVja3z,3jhb4bpsgnm0h9bvp7tggfn0kkoq96,3z3zlgnnsm7gprk9z0x8emg56oe3q5,F7nVja3z,2020-0188,2020-05-21,13:18:24,13:33:24,NA,incomplete,72,filling,1,left,Purple_Star_Stripes_3.jpg,Blue_Circle_Stripes_4.jpg,Red_Plus_Grid_3.jpg,left,838.3250000188127,true,low,NA,NA,NA,NA,NA,NA,NA,false
F7nVja3z,3jhb4bpsgnm0h9bvp7tggfn0kkoq96,3z3zlgnnsm7gprk9z0x8emg56oe3q5,F7nVja3z,2020-0188,2020-05-21,13:18:24,13:33:24,NA,incomplete,73,filling,1,right,Purple_Triangle_Chess_3.jpg,Green_Plus_Stripes_3.jpg,Red_Star_Chess_1.jpg,right,873.1549999210984,true,low,NA,NA,NA,NA,NA,NA,NA,false
F7nVja3z,3jhb4bpsgnm0h9bvp7tggfn0kkoq96,3z3zlgnnsm7gprk9z0x8emg56oe3q5,F7nVja3z,2020-0188,2020-05-21,13:18:24,13:33:24,NA,incomplete,74,filling,1,right,Purple_Plus_Grid_2.jpg,Blue_Triangle_Dots_2.jpg,Red_Circle_Grid_1.jpg,right,730.4199999198318,true,low,NA,NA,NA,NA,NA,NA,NA,false
F7nVja3z,3jhb4bpsgnm0h9bvp7tggfn0kkoq96,3z3zlgnnsm7gprk9z0x8emg56oe3q5,F7nVja3z,2020-0188,2020-05-21,13:18:24,13:33:24,NA,incomplete,75,filling,1,right,Blue_Plus_Dots_3.jpg,Green_Circle_Grid_3.jpg,Purple_Triangle_Dots_4.jpg,right,866.8799999868497,true,low,NA,NA,NA,NA,NA,NA,NA,false
F7nVja3z,3jhb4bpsgnm0h9bvp7tggfn0kkoq96,3z3zlgnnsm7gprk9z0x8emg56oe3q5,F7nVja3z,2020-0188,2020-05-21,13:18:24,13:33:24,NA,incomplete,76,filling,1,right,Red_Triangle_Grid_2.jpg,Purple_Circle_Dots_2.jpg,Blue_Star_Grid_4.jpg,right,938.8599999947473,true,low,NA,NA,NA,NA,NA,NA,NA,false
F7nVja3z,3jhb4bpsgnm0h9bvp7tggfn0kkoq96,3z3zlgnnsm7gprk9z0x8emg56oe3q5,F7nVja3z,2020-0188,2020-05-21,13:18:24,13:33:24,NA,incomplete,77,filling,1,right,Blue_Plus_Grid_1.jpg,Green_Star_Chess_1.jpg,Red_Circle_Grid_3.jpg,right,794.4050000514835,true,low,NA,NA,NA,NA,NA,NA,NA,false
F7nVja3z,3jhb4bpsgnm0h9bvp7tggfn0kkoq96,3z3zlgnnsm7gprk9z0x8emg56oe3q5,F7nVja3z,2020-0188,2020-05-21,13:18:24,13:33:24,NA,incomplete,78,filling,1,right,Green_Plus_Dots_3.jpg,Red_Star_Grid_3.jpg,Purple_Triangle_Dots_2.jpg,right,838.0049999104813,true,low,NA,NA,NA,NA,NA,NA,NA,false
F7nVja3z,3jhb4bpsgnm0h9bvp7tggfn0kkoq96,3z3zlgnnsm7gprk9z0x8emg56oe3q5,F7nVja3z,2020-0188,2020-05-21,13:18:24,13:33:24,NA,incomplete,79,filling,1,left,Purple_Star_Stripes_1.jpg,Blue_Circle_Stripes_3.jpg,Green_Plus_Grid_1.jpg,left,809.6750000258908,true,low,NA,NA,NA,NA,NA,NA,NA,false
F7nVja3z,3jhb4bpsgnm0h9bvp7tggfn0kkoq96,3z3zlgnnsm7gprk9z0x8emg56oe3q5,F7nVja3z,2020-0188,2020-05-21,13:18:24,13:33:24,NA,incomplete,80,filling,1,left,Purple_Triangle_Stripes_2.jpg,Green_Circle_Stripes_1.jpg,Red_Plus_Dots_2.jpg,left,743.419999955222,true,low,NA,NA,NA,NA,NA,NA,NA,false
F7nVja3z,3jhb4bpsgnm0h9bvp7tggfn0kkoq96,3z3zlgnnsm7gprk9z0x8emg56oe3q5,F7nVja3z,2020-0188,2020-05-21,13:18:24,13:33:24,NA,incomplete,81,filling,1,left,Purple_Triangle_Stripes_4.jpg,Red_Circle_Stripes_1.jpg,Blue_Star_Dots_4.jpg,left,708.5100000258535,true,low,NA,NA,NA,NA,NA,NA,NA,false
F7nVja3z,3jhb4bpsgnm0h9bvp7tggfn0kkoq96,3z3zlgnnsm7gprk9z0x8emg56oe3q5,F7nVja3z,2020-0188,2020-05-21,13:18:24,13:33:24,NA,incomplete,82,filling,0,right,Purple_Plus_Chess_3.jpg,Green_Circle_Grid_3.jpg,Blue_Star_Chess_1.jpg,right,724.5849999599159,true,low,NA,NA,NA,NA,NA,NA,NA,false
F7nVja3z,3jhb4bpsgnm0h9bvp7tggfn0kkoq96,3z3zlgnnsm7gprk9z0x8emg56oe3q5,F7nVja3z,2020-0188,2020-05-21,13:18:24,13:33:24,NA,incomplete,83,filling,0,left,Green_Circle_Grid_2.jpg,Red_Star_Grid_3.jpg,Purple_Triangle_Chess_2.jpg,left,851.5449999831617,true,low,NA,NA,NA,NA,NA,NA,NA,false
F7nVja3z,3jhb4bpsgnm0h9bvp7tggfn0kkoq96,3z3zlgnnsm7gprk9z0x8emg56oe3q5,F7nVja3z,2020-0188,2020-05-21,13:18:24,13:33:24,NA,incomplete,84,filling,1,right,Red_Triangle_Chess_1.jpg,Blue_Circle_Dots_1.jpg,Green_Star_Chess_2.jpg,left,582.0649999659508,false,low,NA,NA,NA,NA,NA,NA,NA,false
F7nVja3z,3jhb4bpsgnm0h9bvp7tggfn0kkoq96,3z3zlgnnsm7gprk9z0x8emg56oe3q5,F7nVja3z,2020-0188,2020-05-21,13:18:24,13:33:24,NA,incomplete,85,filling,1,right,Purple_Triangle_Dots_3.jpg,Blue_Plus_Grid_3.jpg,Red_Star_Dots_2.jpg,left,675.7300000172108,false,low,NA,NA,NA,NA,NA,NA,NA,false
F7nVja3z,3jhb4bpsgnm0h9bvp7tggfn0kkoq96,3z3zlgnnsm7gprk9z0x8emg56oe3q5,F7nVja3z,2020-0188,2020-05-21,13:18:24,13:33:24,NA,incomplete,86,filling,1,left,Green_Plus_Stripes_3.jpg,Purple_Triangle_Stripes_4.jpg,Blue_Circle_Grid_3.jpg,left,852.4250000482425,true,low,NA,NA,NA,NA,NA,NA,NA,false
F7nVja3z,3jhb4bpsgnm0h9bvp7tggfn0kkoq96,3z3zlgnnsm7gprk9z0x8emg56oe3q5,F7nVja3z,2020-0188,2020-05-21,13:18:24,13:33:24,NA,incomplete,87,filling,1,right,Green_Plus_Dots_4.jpg,Purple_Star_Grid_4.jpg,Red_Triangle_Dots_2.jpg,right,1190.004999982193,true,low,NA,NA,NA,NA,NA,NA,NA,false
F7nVja3z,3jhb4bpsgnm0h9bvp7tggfn0kkoq96,3z3zlgnnsm7gprk9z0x8emg56oe3q5,F7nVja3z,2020-0188,2020-05-21,13:18:24,13:33:24,NA,incomplete,88,filling,1,right,Blue_Triangle_Grid_4.jpg,Purple_Circle_Chess_4.jpg,Red_Plus_Grid_1.jpg,left,747.1799999475479,false,low,NA,NA,NA,NA,NA,NA,NA,false
F7nVja3z,3jhb4bpsgnm0h9bvp7tggfn0kkoq96,3z3zlgnnsm7gprk9z0x8emg56oe3q5,F7nVja3z,2020-0188,2020-05-21,13:18:24,13:33:24,NA,incomplete,89,filling,1,right,Red_Triangle_Grid_1.jpg,Blue_Circle_Chess_1.jpg,Green_Plus_Grid_4.jpg,right,889.8800000315532,true,low,NA,NA,NA,NA,NA,NA,NA,false
F7nVja3z,3jhb4bpsgnm0h9bvp7tggfn0kkoq96,3z3zlgnnsm7gprk9z0x8emg56oe3q5,F7nVja3z,2020-0188,2020-05-21,13:18:24,13:33:24,NA,incomplete,90,number,0,left,Red_Triangle_Chess_3.jpg,Purple_Star_Grid_3.jpg,Blue_Plus_Chess_2.jpg,right,1044.0899999812245,false,low,NA,NA,NA,NA,NA,NA,NA,false
F7nVja3z,3jhb4bpsgnm0h9bvp7tggfn0kkoq96,3z3zlgnnsm7gprk9z0x8emg56oe3q5,F7nVja3z,2020-0188,2020-05-21,13:18:24,13:33:24,NA,incomplete,91,number,1,right,Red_Star_Grid_1.jpg,Green_Triangle_Grid_3.jpg,Blue_Plus_Chess_1.jpg,left,949.1700000362471,false,low,NA,NA,NA,NA,NA,NA,NA,false
F7nVja3z,3jhb4bpsgnm0h9bvp7tggfn0kkoq96,3z3zlgnnsm7gprk9z0x8emg56oe3q5,F7nVja3z,2020-0188,2020-05-21,13:18:24,13:33:24,NA,incomplete,92,number,1,right,Purple_Plus_Chess_3.jpg,Blue_Star_Chess_1.jpg,Red_Circle_Dots_3.jpg,left,978.9399999426678,false,low,NA,NA,NA,NA,NA,NA,NA,false
F7nVja3z,3jhb4bpsgnm0h9bvp7tggfn0kkoq96,3z3zlgnnsm7gprk9z0x8emg56oe3q5,F7nVja3z,2020-0188,2020-05-21,13:18:24,13:33:24,NA,incomplete,93,number,1,right,Red_Star_Dots_1.jpg,Green_Triangle_Dots_3.jpg,Purple_Plus_Chess_1.jpg,left,913.2250000257045,false,low,NA,NA,NA,NA,NA,NA,NA,false
F7nVja3z,3jhb4bpsgnm0h9bvp7tggfn0kkoq96,3z3zlgnnsm7gprk9z0x8emg56oe3q5,F7nVja3z,2020-0188,2020-05-21,13:18:24,13:33:24,NA,incomplete,94,number,1,right,Purple_Plus_Grid_4.jpg,Blue_Star_Grid_3.jpg,Red_Circle_Stripes_4.jpg,right,729.2199999792501,true,low,NA,NA,NA,NA,NA,NA,NA,false
F7nVja3z,3jhb4bpsgnm0h9bvp7tggfn0kkoq96,3z3zlgnnsm7gprk9z0x8emg56oe3q5,F7nVja3z,2020-0188,2020-05-21,13:18:24,13:33:24,NA,incomplete,95,number,1,left,Blue_Triangle_Chess_4.jpg,Purple_Star_Stripes_4.jpg,Red_Circle_Chess_3.jpg,left,737.8800000296906,true,low,NA,NA,NA,NA,NA,NA,NA,false
F7nVja3z,3jhb4bpsgnm0h9bvp7tggfn0kkoq96,3z3zlgnnsm7gprk9z0x8emg56oe3q5,F7nVja3z,2020-0188,2020-05-21,13:18:24,13:33:24,NA,incomplete,96,number,1,right,Green_Plus_Dots_1.jpg,Blue_Triangle_Dots_2.jpg,Red_Circle_Chess_1.jpg,right,663.4750000666827,true,low,NA,NA,NA,NA,NA,NA,NA,false
F7nVja3z,3jhb4bpsgnm0h9bvp7tggfn0kkoq96,3z3zlgnnsm7gprk9z0x8emg56oe3q5,F7nVja3z,2020-0188,2020-05-21,13:18:24,13:33:24,NA,incomplete,97,number,1,left,Purple_Triangle_Chess_4.jpg,Blue_Star_Stripes_4.jpg,Green_Plus_Chess_1.jpg,left,689.7399999434128,true,low,NA,NA,NA,NA,NA,NA,NA,false
F7nVja3z,3jhb4bpsgnm0h9bvp7tggfn0kkoq96,3z3zlgnnsm7gprk9z0x8emg56oe3q5,F7nVja3z,2020-0188,2020-05-21,13:18:24,13:33:24,NA,incomplete,98,number,1,right,Blue_Circle_Stripes_3.jpg,Purple_Plus_Stripes_4.jpg,Green_Star_Chess_3.jpg,right,858.1450000638142,true,low,NA,NA,NA,NA,NA,NA,NA,false
F7nVja3z,3jhb4bpsgnm0h9bvp7tggfn0kkoq96,3z3zlgnnsm7gprk9z0x8emg56oe3q5,F7nVja3z,2020-0188,2020-05-21,13:18:24,13:33:24,NA,incomplete,99,number,1,right,Purple_Triangle_Chess_4.jpg,Green_Star_Chess_2.jpg,Red_Circle_Stripes_4.jpg,right,660.0900000194088,true,low,NA,NA,NA,NA,NA,NA,NA,false
F7nVja3z,3jhb4bpsgnm0h9bvp7tggfn0kkoq96,3z3zlgnnsm7gprk9z0x8emg56oe3q5,F7nVja3z,2020-0188,2020-05-21,13:18:24,13:33:24,NA,incomplete,100,number,1,left,Red_Triangle_Grid_1.jpg,Green_Circle_Chess_1.jpg,Purple_Star_Grid_4.jpg,left,615.4850000748411,true,low,NA,NA,NA,NA,NA,NA,NA,false
F7nVja3z,3jhb4bpsgnm0h9bvp7tggfn0kkoq96,3z3zlgnnsm7gprk9z0x8emg56oe3q5,F7nVja3z,2020-0188,2020-05-21,13:18:24,13:33:24,NA,incomplete,101,number,1,right,Blue_Star_Stripes_2.jpg,Purple_Circle_Stripes_3.jpg,Green_Triangle_Chess_2.jpg,right,706.0449999989942,true,low,NA,NA,NA,NA,NA,NA,NA,false
F7nVja3z,3jhb4bpsgnm0h9bvp7tggfn0kkoq96,3z3zlgnnsm7gprk9z0x8emg56oe3q5,F7nVja3z,2020-0188,2020-05-21,13:18:24,13:33:24,NA,incomplete,102,number,1,right,Red_Plus_Grid_2.jpg,Purple_Triangle_Grid_4.jpg,Blue_Circle_Stripes_2.jpg,right,682.3250000597909,true,low,NA,NA,NA,NA,NA,NA,NA,false
F7nVja3z,3jhb4bpsgnm0h9bvp7tggfn0kkoq96,3z3zlgnnsm7gprk9z0x8emg56oe3q5,F7nVja3z,2020-0188,2020-05-21,13:18:24,13:33:24,NA,incomplete,103,number,1,left,Purple_Plus_Chess_1.jpg,Green_Triangle_Grid_1.jpg,Red_Circle_Chess_3.jpg,left,619.0350000979379,true,low,NA,NA,NA,NA,NA,NA,NA,false
F7nVja3z,3jhb4bpsgnm0h9bvp7tggfn0kkoq96,3z3zlgnnsm7gprk9z0x8emg56oe3q5,F7nVja3z,2020-0188,2020-05-21,13:18:24,13:33:24,NA,incomplete,104,number,1,left,Purple_Plus_Dots_1.jpg,Red_Star_Stripes_1.jpg,Green_Circle_Dots_2.jpg,left,829.8649999778718,true,low,NA,NA,NA,NA,NA,NA,NA,false
F7nVja3z,3jhb4bpsgnm0h9bvp7tggfn0kkoq96,3z3zlgnnsm7gprk9z0x8emg56oe3q5,F7nVja3z,2020-0188,2020-05-21,13:18:24,13:33:24,NA,incomplete,105,number,1,right,Red_Triangle_Dots_3.jpg,Purple_Circle_Dots_1.jpg,Blue_Star_Grid_3.jpg,right,627.3550000041723,true,low,NA,NA,NA,NA,NA,NA,NA,false
F7nVja3z,3jhb4bpsgnm0h9bvp7tggfn0kkoq96,3z3zlgnnsm7gprk9z0x8emg56oe3q5,F7nVja3z,2020-0188,2020-05-21,13:18:24,13:33:24,NA,incomplete,106,number,1,left,Purple_Star_Dots_2.jpg,Red_Circle_Stripes_2.jpg,Blue_Plus_Dots_1.jpg,left,677.339999936521,true,low,NA,NA,NA,NA,NA,NA,NA,false
F7nVja3z,3jhb4bpsgnm0h9bvp7tggfn0kkoq96,3z3zlgnnsm7gprk9z0x8emg56oe3q5,F7nVja3z,2020-0188,2020-05-21,13:18:24,13:33:24,NA,incomplete,107,number,0,right,Red_Plus_Dots_1.jpg,Green_Circle_Dots_3.jpg,Purple_Star_Grid_1.jpg,right,574.7800000244752,true,low,NA,NA,NA,NA,NA,NA,NA,false
F7nVja3z,3jhb4bpsgnm0h9bvp7tggfn0kkoq96,3z3zlgnnsm7gprk9z0x8emg56oe3q5,F7nVja3z,2020-0188,2020-05-21,13:18:24,13:33:24,NA,incomplete,108,number,1,left,Purple_Plus_Stripes_2.jpg,Blue_Triangle_Dots_2.jpg,Green_Circle_Stripes_4.jpg,left,652.1649999776855,true,low,NA,NA,NA,NA,NA,NA,NA,false
F7nVja3z,3jhb4bpsgnm0h9bvp7tggfn0kkoq96,3z3zlgnnsm7gprk9z0x8emg56oe3q5,F7nVja3z,2020-0188,2020-05-21,13:18:24,13:33:24,NA,incomplete,109,number,1,left,Purple_Star_Chess_2.jpg,Green_Circle_Stripes_2.jpg,Blue_Triangle_Chess_4.jpg,left,637.845000019297,true,low,NA,NA,NA,NA,NA,NA,NA,false
F7nVja3z,3jhb4bpsgnm0h9bvp7tggfn0kkoq96,3z3zlgnnsm7gprk9z0x8emg56oe3q5,F7nVja3z,2020-0188,2020-05-21,13:18:24,13:33:24,NA,incomplete,110,number,1,right,Blue_Triangle_Stripes_3.jpg,Red_Circle_Stripes_4.jpg,Purple_Star_Grid_3.jpg,right,682.1449999697506,true,low,NA,NA,NA,NA,NA,NA,NA,false
F7nVja3z,3jhb4bpsgnm0h9bvp7tggfn0kkoq96,3z3zlgnnsm7gprk9z0x8emg56oe3q5,F7nVja3z,2020-0188,2020-05-21,13:18:24,13:33:24,NA,incomplete,111,number,1,right,Purple_Triangle_Stripes_3.jpg,Red_Star_Stripes_2.jpg,Blue_Plus_Chess_3.jpg,right,810.0550000090152,true,low,NA,NA,NA,NA,NA,NA,NA,false
F7nVja3z,3jhb4bpsgnm0h9bvp7tggfn0kkoq96,3z3zlgnnsm7gprk9z0x8emg56oe3q5,F7nVja3z,2020-0188,2020-05-21,13:18:24,13:33:24,NA,incomplete,112,number,1,right,Purple_Circle_Dots_2.jpg,Green_Star_Dots_1.jpg,Red_Plus_Grid_2.jpg,right,790.099999983795,true,low,NA,NA,NA,NA,NA,NA,NA,false
F7nVja3z,3jhb4bpsgnm0h9bvp7tggfn0kkoq96,3z3zlgnnsm7gprk9z0x8emg56oe3q5,F7nVja3z,2020-0188,2020-05-21,13:18:24,13:33:24,NA,incomplete,113,number,1,left,Green_Triangle_Grid_2.jpg,Purple_Circle_Chess_2.jpg,Red_Star_Grid_1.jpg,left,737.8749999916181,true,low,NA,NA,NA,NA,NA,NA,NA,false
F7nVja3z,3jhb4bpsgnm0h9bvp7tggfn0kkoq96,3z3zlgnnsm7gprk9z0x8emg56oe3q5,F7nVja3z,2020-0188,2020-05-21,13:18:24,13:33:24,NA,incomplete,114,number,1,right,Green_Star_Chess_4.jpg,Red_Plus_Chess_2.jpg,Purple_Triangle_Grid_4.jpg,right,953.5749999340624,true,low,NA,NA,NA,NA,NA,NA,NA,false
F7nVja3z,3jhb4bpsgnm0h9bvp7tggfn0kkoq96,3z3zlgnnsm7gprk9z0x8emg56oe3q5,F7nVja3z,2020-0188,2020-05-21,13:18:24,13:33:24,NA,incomplete,115,number,0,left,Green_Circle_Grid_1.jpg,Purple_Star_Dots_1.jpg,Red_Plus_Grid_2.jpg,left,657.1899999398738,true,low,NA,NA,NA,NA,NA,NA,NA,false
F7nVja3z,3jhb4bpsgnm0h9bvp7tggfn0kkoq96,3z3zlgnnsm7gprk9z0x8emg56oe3q5,F7nVja3z,2020-0188,2020-05-21,13:18:24,13:33:24,NA,incomplete,116,number,1,left,Green_Circle_Grid_3.jpg,Blue_Triangle_Dots_3.jpg,Red_Star_Grid_1.jpg,right,1096.3400000473484,false,low,NA,NA,NA,NA,NA,NA,NA,false
F7nVja3z,3jhb4bpsgnm0h9bvp7tggfn0kkoq96,3z3zlgnnsm7gprk9z0x8emg56oe3q5,F7nVja3z,2020-0188,2020-05-21,13:18:24,13:33:24,NA,incomplete,117,number,1,left,Blue_Plus_Grid_1.jpg,Purple_Star_Chess_1.jpg,Green_Triangle_Grid_4.jpg,left,635.0899999961257,true,low,NA,NA,NA,NA,NA,NA,NA,false
F7nVja3z,3jhb4bpsgnm0h9bvp7tggfn0kkoq96,3z3zlgnnsm7gprk9z0x8emg56oe3q5,F7nVja3z,2020-0188,2020-05-21,13:18:24,13:33:24,NA,incomplete,118,number,1,left,Red_Star_Grid_3.jpg,Green_Circle_Stripes_3.jpg,Purple_Plus_Grid_2.jpg,left,677.0249999826774,true,low,NA,NA,NA,NA,NA,NA,NA,false
F7nVja3z,3jhb4bpsgnm0h9bvp7tggfn0kkoq96,3z3zlgnnsm7gprk9z0x8emg56oe3q5,F7nVja3z,2020-0188,2020-05-21,13:18:24,13:33:24,NA,incomplete,119,number,1,right,Green_Star_Dots_2.jpg,Purple_Plus_Dots_3.jpg,Red_Circle_Grid_2.jpg,right,750.3100000321865,true,low,NA,NA,NA,NA,NA,NA,NA,false
F7nVja3z,3jhb4bpsgnm0h9bvp7tggfn0kkoq96,3z3zlgnnsm7gprk9z0x8emg56oe3q5,F7nVja3z,2020-0188,2020-05-21,13:18:24,13:33:24,NA,incomplete,120,color,1,right,Blue_Plus_Grid_1.jpg,Red_Plus_Dots_4.jpg,Blue_Star_Stripes_3.jpg,NA,NA,NA,low,NA,NA,NA,NA,NA,NA,NA,false
F7nVja3z,3jhb4bpsgnm0h9bvp7tggfn0kkoq96,3z3zlgnnsm7gprk9z0x8emg56oe3q5,F7nVja3z,2020-0188,2020-05-21,13:18:24,13:33:24,NA,incomplete,121,color,1,right,Green_Circle_Grid_2.jpg,Blue_Circle_Dots_3.jpg,Green_Triangle_Chess_4.jpg,right,651.0700000217184,true,low,NA,NA,NA,NA,NA,NA,NA,false
F7nVja3z,3jhb4bpsgnm0h9bvp7tggfn0kkoq96,3z3zlgnnsm7gprk9z0x8emg56oe3q5,F7nVja3z,2020-0188,2020-05-21,13:18:24,13:33:24,NA,incomplete,122,color,1,left,Red_Circle_Dots_4.jpg,Red_Triangle_Chess_1.jpg,Purple_Circle_Grid_2.jpg,left,533.4949999814853,true,low,NA,NA,NA,NA,NA,NA,NA,false
F7nVja3z,3jhb4bpsgnm0h9bvp7tggfn0kkoq96,3z3zlgnnsm7gprk9z0x8emg56oe3q5,F7nVja3z,2020-0188,2020-05-21,13:18:24,13:33:24,NA,incomplete,123,color,1,left,Red_Star_Grid_3.jpg,Red_Circle_Stripes_2.jpg,Blue_Star_Chess_1.jpg,left,540.4600000474602,true,low,NA,NA,NA,NA,NA,NA,NA,false
F7nVja3z,3jhb4bpsgnm0h9bvp7tggfn0kkoq96,3z3zlgnnsm7gprk9z0x8emg56oe3q5,F7nVja3z,2020-0188,2020-05-21,13:18:24,13:33:24,NA,incomplete,124,color,0,left,Purple_Triangle_Dots_4.jpg,Purple_Star_Grid_3.jpg,Blue_Triangle_Stripes_2.jpg,left,587.6500000013039,true,low,NA,NA,NA,NA,NA,NA,NA,false
F7nVja3z,3jhb4bpsgnm0h9bvp7tggfn0kkoq96,3z3zlgnnsm7gprk9z0x8emg56oe3q5,F7nVja3z,2020-0188,2020-05-21,13:18:24,13:33:24,NA,incomplete,125,color,1,left,Green_Triangle_Grid_4.jpg,Green_Plus_Chess_1.jpg,Purple_Triangle_Dots_3.jpg,left,558.9500000933185,true,low,NA,NA,NA,NA,NA,NA,NA,false
F7nVja3z,3jhb4bpsgnm0h9bvp7tggfn0kkoq96,3z3zlgnnsm7gprk9z0x8emg56oe3q5,F7nVja3z,2020-0188,2020-05-21,13:18:24,13:33:24,NA,incomplete,126,color,1,left,Blue_Star_Chess_4.jpg,Blue_Circle_Dots_2.jpg,Red_Star_Grid_1.jpg,left,527.1349999820814,true,low,NA,NA,NA,NA,NA,NA,NA,false
F7nVja3z,3jhb4bpsgnm0h9bvp7tggfn0kkoq96,3z3zlgnnsm7gprk9z0x8emg56oe3q5,F7nVja3z,2020-0188,2020-05-21,13:18:24,13:33:24,NA,incomplete,127,color,0,right,Blue_Plus_Stripes_4.jpg,Green_Plus_Grid_3.jpg,Blue_Triangle_Chess_1.jpg,right,533.2799999741837,true,low,NA,NA,NA,NA,NA,NA,NA,false
F7nVja3z,3jhb4bpsgnm0h9bvp7tggfn0kkoq96,3z3zlgnnsm7gprk9z0x8emg56oe3q5,F7nVja3z,2020-0188,2020-05-21,13:18:24,13:33:24,NA,incomplete,128,color,1,left,Red_Star_Grid_3.jpg,Red_Triangle_Stripes_1.jpg,Purple_Star_Chess_2.jpg,left,555.7649999391288,true,low,NA,NA,NA,NA,NA,NA,NA,false
F7nVja3z,3jhb4bpsgnm0h9bvp7tggfn0kkoq96,3z3zlgnnsm7gprk9z0x8emg56oe3q5,F7nVja3z,2020-0188,2020-05-21,13:18:24,13:33:24,NA,incomplete,129,color,1,right,Blue_Circle_Dots_2.jpg,Purple_Circle_Chess_4.jpg,Blue_Star_Grid_1.jpg,right,666.4649999001995,true,low,NA,NA,NA,NA,NA,NA,NA,false
F7nVja3z,3jhb4bpsgnm0h9bvp7tggfn0kkoq96,3z3zlgnnsm7gprk9z0x8emg56oe3q5,F7nVja3z,2020-0188,2020-05-21,13:18:24,13:33:24,NA,incomplete,130,color,1,right,Green_Star_Chess_4.jpg,Purple_Star_Stripes_3.jpg,Green_Triangle_Grid_2.jpg,right,556.6200000466779,true,low,NA,NA,NA,NA,NA,NA,NA,false
F7nVja3z,3jhb4bpsgnm0h9bvp7tggfn0kkoq96,3z3zlgnnsm7gprk9z0x8emg56oe3q5,F7nVja3z,2020-0188,2020-05-21,13:18:24,13:33:24,NA,incomplete,131,color,1,left,Purple_Star_Stripes_2.jpg,Purple_Triangle_Dots_3.jpg,Blue_Star_Chess_1.jpg,left,491.6500000981614,true,low,NA,NA,NA,NA,NA,NA,NA,false
F7nVja3z,3jhb4bpsgnm0h9bvp7tggfn0kkoq96,3z3zlgnnsm7gprk9z0x8emg56oe3q5,F7nVja3z,2020-0188,2020-05-21,13:18:24,13:33:24,NA,incomplete,132,color,1,right,Purple_Plus_Chess_3.jpg,Green_Plus_Dots_1.jpg,Purple_Circle_Stripes_2.jpg,right,603.2500000437722,true,low,NA,NA,NA,NA,NA,NA,NA,false
F7nVja3z,3jhb4bpsgnm0h9bvp7tggfn0kkoq96,3z3zlgnnsm7gprk9z0x8emg56oe3q5,F7nVja3z,2020-0188,2020-05-21,13:18:24,13:33:24,NA,incomplete,133,color,1,left,Red_Plus_Chess_2.jpg,Red_Circle_Stripes_3.jpg,Purple_Plus_Dots_4.jpg,left,535.2350000757724,true,low,NA,NA,NA,NA,NA,NA,NA,false
F7nVja3z,3jhb4bpsgnm0h9bvp7tggfn0kkoq96,3z3zlgnnsm7gprk9z0x8emg56oe3q5,F7nVja3z,2020-0188,2020-05-21,13:18:24,13:33:24,NA,incomplete,134,color,0,right,Green_Star_Grid_4.jpg,Blue_Star_Stripes_3.jpg,Green_Circle_Chess_2.jpg,right,477.9700000071898,true,low,NA,NA,NA,NA,NA,NA,NA,false
F7nVja3z,3jhb4bpsgnm0h9bvp7tggfn0kkoq96,3z3zlgnnsm7gprk9z0x8emg56oe3q5,F7nVja3z,2020-0188,2020-05-21,13:18:24,13:33:24,NA,incomplete,135,color,1,left,Purple_Circle_Chess_4.jpg,Purple_Star_Grid_1.jpg,Red_Circle_Dots_3.jpg,left,503.1400000443682,true,low,NA,NA,NA,NA,NA,NA,NA,false
F7nVja3z,3jhb4bpsgnm0h9bvp7tggfn0kkoq96,3z3zlgnnsm7gprk9z0x8emg56oe3q5,F7nVja3z,2020-0188,2020-05-21,13:18:24,13:33:24,NA,incomplete,136,color,1,left,Green_Star_Chess_2.jpg,Green_Plus_Dots_3.jpg,Red_Star_Stripes_4.jpg,left,560.2000000653788,true,low,NA,NA,NA,NA,NA,NA,NA,false
F7nVja3z,3jhb4bpsgnm0h9bvp7tggfn0kkoq96,3z3zlgnnsm7gprk9z0x8emg56oe3q5,F7nVja3z,2020-0188,2020-05-21,13:18:24,13:33:24,NA,incomplete,137,color,1,right,Blue_Plus_Dots_1.jpg,Purple_Plus_Stripes_4.jpg,Blue_Triangle_Grid_2.jpg,right,541.374999913387,true,low,NA,NA,NA,NA,NA,NA,NA,false
F7nVja3z,3jhb4bpsgnm0h9bvp7tggfn0kkoq96,3z3zlgnnsm7gprk9z0x8emg56oe3q5,F7nVja3z,2020-0188,2020-05-21,13:18:24,13:33:24,NA,incomplete,138,color,1,right,Red_Triangle_Dots_4.jpg,Green_Triangle_Stripes_2.jpg,Red_Star_Grid_3.jpg,right,531.9599999347702,true,low,NA,NA,NA,NA,NA,NA,NA,false
F7nVja3z,3jhb4bpsgnm0h9bvp7tggfn0kkoq96,3z3zlgnnsm7gprk9z0x8emg56oe3q5,F7nVja3z,2020-0188,2020-05-21,13:18:24,13:33:24,NA,incomplete,139,color,1,right,Red_Plus_Grid_4.jpg,Green_Plus_Chess_3.jpg,Red_Circle_Dots_2.jpg,right,514.6950000198558,true,low,NA,NA,NA,NA,NA,NA,NA,false
F7nVja3z,3jhb4bpsgnm0h9bvp7tggfn0kkoq96,3z3zlgnnsm7gprk9z0x8emg56oe3q5,F7nVja3z,2020-0188,2020-05-21,13:18:24,13:33:24,NA,incomplete,140,shape,1,right,Red_Circle_Chess_3.jpg,Red_Plus_Dots_1.jpg,Purple_Circle_Stripes_4.jpg,left,506.5550000872463,false,low,NA,NA,NA,NA,NA,NA,NA,false
F7nVja3z,3jhb4bpsgnm0h9bvp7tggfn0kkoq96,3z3zlgnnsm7gprk9z0x8emg56oe3q5,F7nVja3z,2020-0188,2020-05-21,13:18:24,13:33:24,NA,incomplete,141,shape,0,right,Red_Plus_Grid_1.jpg,Red_Triangle_Stripes_2.jpg,Green_Plus_Dots_4.jpg,left,530.7199999224395,false,low,NA,NA,NA,NA,NA,NA,NA,false
F7nVja3z,3jhb4bpsgnm0h9bvp7tggfn0kkoq96,3z3zlgnnsm7gprk9z0x8emg56oe3q5,F7nVja3z,2020-0188,2020-05-21,13:18:24,13:33:24,NA,incomplete,142,shape,1,left,Red_Triangle_Dots_2.jpg,Purple_Triangle_Chess_1.jpg,Red_Star_Grid_4.jpg,right,522.5849999114871,false,low,NA,NA,NA,NA,NA,NA,NA,false
F7nVja3z,3jhb4bpsgnm0h9bvp7tggfn0kkoq96,3z3zlgnnsm7gprk9z0x8emg56oe3q5,F7nVja3z,2020-0188,2020-05-21,13:18:24,13:33:24,NA,incomplete,143,shape,1,left,Blue_Plus_Grid_3.jpg,Green_Plus_Stripes_1.jpg,Blue_Circle_Chess_2.jpg,right,577.1249999525025,false,low,NA,NA,NA,NA,NA,NA,NA,false
F7nVja3z,3jhb4bpsgnm0h9bvp7tggfn0kkoq96,3z3zlgnnsm7gprk9z0x8emg56oe3q5,F7nVja3z,2020-0188,2020-05-21,13:18:24,13:33:24,NA,incomplete,144,shape,1,left,Red_Circle_Dots_2.jpg,Blue_Circle_Stripes_4.jpg,Red_Triangle_Grid_1.jpg,left,566.3349999813363,true,low,NA,NA,NA,NA,NA,NA,NA,false
F7nVja3z,3jhb4bpsgnm0h9bvp7tggfn0kkoq96,3z3zlgnnsm7gprk9z0x8emg56oe3q5,F7nVja3z,2020-0188,2020-05-21,13:18:24,13:33:24,NA,incomplete,145,shape,0,right,Green_Star_Chess_3.jpg,Green_Circle_Stripes_1.jpg,Purple_Star_Grid_2.jpg,right,669.5000000763685,true,low,NA,NA,NA,NA,NA,NA,NA,false
F7nVja3z,3jhb4bpsgnm0h9bvp7tggfn0kkoq96,3z3zlgnnsm7gprk9z0x8emg56oe3q5,F7nVja3z,2020-0188,2020-05-21,13:18:24,13:33:24,NA,incomplete,146,shape,1,right,Blue_Plus_Stripes_3.jpg,Blue_Star_Dots_4.jpg,Purple_Plus_Chess_2.jpg,right,719.8149999603629,true,low,NA,NA,NA,NA,NA,NA,NA,false
F7nVja3z,3jhb4bpsgnm0h9bvp7tggfn0kkoq96,3z3zlgnnsm7gprk9z0x8emg56oe3q5,F7nVja3z,2020-0188,2020-05-21,13:18:24,13:33:24,NA,incomplete,147,shape,1,left,Purple_Star_Chess_4.jpg,Red_Star_Grid_1.jpg,Purple_Circle_Stripes_2.jpg,left,702.0400000037625,true,low,NA,NA,NA,NA,NA,NA,NA,false
F7nVja3z,3jhb4bpsgnm0h9bvp7tggfn0kkoq96,3z3zlgnnsm7gprk9z0x8emg56oe3q5,F7nVja3z,2020-0188,2020-05-21,13:18:24,13:33:24,NA,incomplete,148,shape,1,left,Purple_Plus_Chess_3.jpg,Blue_Plus_Dots_2.jpg,Purple_Circle_Grid_1.jpg,left,670.2800000784919,true,low,NA,NA,NA,NA,NA,NA,NA,false
F7nVja3z,3jhb4bpsgnm0h9bvp7tggfn0kkoq96,3z3zlgnnsm7gprk9z0x8emg56oe3q5,F7nVja3z,2020-0188,2020-05-21,13:18:24,13:33:24,NA,incomplete,149,shape,1,left,Green_Plus_Stripes_4.jpg,Red_Plus_Chess_2.jpg,Green_Triangle_Dots_3.jpg,left,623.3349998947233,true,low,NA,NA,NA,NA,NA,NA,NA,false
F7nVja3z,3jhb4bpsgnm0h9bvp7tggfn0kkoq96,3z3zlgnnsm7gprk9z0x8emg56oe3q5,F7nVja3z,2020-0188,2020-05-21,13:18:24,13:33:24,NA,incomplete,150,shape,1,right,Red_Circle_Stripes_3.jpg,Red_Star_Grid_2.jpg,Green_Circle_Chess_4.jpg,right,651.3099999865517,true,low,NA,NA,NA,NA,NA,NA,NA,false
F7nVja3z,3jhb4bpsgnm0h9bvp7tggfn0kkoq96,3z3zlgnnsm7gprk9z0x8emg56oe3q5,F7nVja3z,2020-0188,2020-05-21,13:18:24,13:33:24,NA,incomplete,151,shape,1,left,Blue_Plus_Chess_1.jpg,Red_Plus_Dots_3.jpg,Blue_Star_Stripes_4.jpg,left,590.154999983497,true,low,NA,NA,NA,NA,NA,NA,NA,false
F7nVja3z,3jhb4bpsgnm0h9bvp7tggfn0kkoq96,3z3zlgnnsm7gprk9z0x8emg56oe3q5,F7nVja3z,2020-0188,2020-05-21,13:18:24,13:33:24,NA,incomplete,152,shape,1,left,Green_Plus_Grid_2.jpg,Red_Plus_Dots_3.jpg,Green_Triangle_Chess_4.jpg,left,745.5700000282377,true,low,NA,NA,NA,NA,NA,NA,NA,false
F7nVja3z,3jhb4bpsgnm0h9bvp7tggfn0kkoq96,3z3zlgnnsm7gprk9z0x8emg56oe3q5,F7nVja3z,2020-0188,2020-05-21,13:18:24,13:33:24,NA,incomplete,153,shape,1,left,Blue_Plus_Dots_3.jpg,Red_Plus_Grid_1.jpg,Blue_Triangle_Chess_2.jpg,left,639.3449999159202,true,low,NA,NA,NA,NA,NA,NA,NA,false
F7nVja3z,3jhb4bpsgnm0h9bvp7tggfn0kkoq96,3z3zlgnnsm7gprk9z0x8emg56oe3q5,F7nVja3z,2020-0188,2020-05-21,13:18:24,13:33:24,NA,incomplete,154,shape,0,left,Red_Plus_Dots_1.jpg,Purple_Plus_Grid_2.jpg,Red_Star_Chess_4.jpg,left,626.7999999690801,true,low,NA,NA,NA,NA,NA,NA,NA,false
F7nVja3z,3jhb4bpsgnm0h9bvp7tggfn0kkoq96,3z3zlgnnsm7gprk9z0x8emg56oe3q5,F7nVja3z,2020-0188,2020-05-21,13:18:24,13:33:24,NA,incomplete,155,shape,1,right,Red_Triangle_Stripes_4.jpg,Red_Star_Chess_1.jpg,Purple_Triangle_Grid_3.jpg,right,678.1849999679253,true,low,NA,NA,NA,NA,NA,NA,NA,false
F7nVja3z,3jhb4bpsgnm0h9bvp7tggfn0kkoq96,3z3zlgnnsm7gprk9z0x8emg56oe3q5,F7nVja3z,2020-0188,2020-05-21,13:18:24,13:33:24,NA,incomplete,156,shape,1,right,Green_Circle_Dots_3.jpg,Green_Triangle_Stripes_4.jpg,Blue_Circle_Chess_1.jpg,right,606.9649999262765,true,low,NA,NA,NA,NA,NA,NA,NA,false
F7nVja3z,3jhb4bpsgnm0h9bvp7tggfn0kkoq96,3z3zlgnnsm7gprk9z0x8emg56oe3q5,F7nVja3z,2020-0188,2020-05-21,13:18:24,13:33:24,NA,incomplete,157,shape,1,left,Red_Plus_Dots_2.jpg,Green_Plus_Stripes_3.jpg,Red_Circle_Grid_1.jpg,left,547.1050000051036,true,low,NA,NA,NA,NA,NA,NA,NA,false
F7nVja3z,3jhb4bpsgnm0h9bvp7tggfn0kkoq96,3z3zlgnnsm7gprk9z0x8emg56oe3q5,F7nVja3z,2020-0188,2020-05-21,13:18:24,13:33:24,NA,incomplete,158,shape,1,left,Blue_Plus_Chess_4.jpg,Purple_Plus_Dots_1.jpg,Blue_Circle_Grid_3.jpg,left,578.4800000255927,true,low,NA,NA,NA,NA,NA,NA,NA,false
F7nVja3z,3jhb4bpsgnm0h9bvp7tggfn0kkoq96,3z3zlgnnsm7gprk9z0x8emg56oe3q5,F7nVja3z,2020-0188,2020-05-21,13:18:24,13:33:24,NA,incomplete,159,shape,1,right,Purple_Circle_Grid_1.jpg,Purple_Star_Chess_2.jpg,Red_Circle_Dots_4.jpg,right,534.7850000252947,true,low,NA,NA,NA,NA,NA,NA,NA,false
F7nVja3z,3jhb4bpsgnm0h9bvp7tggfn0kkoq96,3z3zlgnnsm7gprk9z0x8emg56oe3q5,F7nVja3z,2020-0188,2020-05-21,13:18:24,13:33:24,NA,incomplete,160,color,0,right,Green_Triangle_Stripes_4.jpg,Blue_Triangle_Dots_2.jpg,Green_Circle_Grid_1.jpg,left,590.1750000193715,false,low,NA,NA,NA,NA,NA,NA,NA,false
F7nVja3z,3jhb4bpsgnm0h9bvp7tggfn0kkoq96,3z3zlgnnsm7gprk9z0x8emg56oe3q5,F7nVja3z,2020-0188,2020-05-21,13:18:24,13:33:24,NA,incomplete,161,color,1,left,Green_Triangle_Grid_4.jpg,Green_Star_Chess_1.jpg,Blue_Triangle_Dots_2.jpg,right,652.5200000032783,false,low,NA,NA,NA,NA,NA,NA,NA,false
F7nVja3z,3jhb4bpsgnm0h9bvp7tggfn0kkoq96,3z3zlgnnsm7gprk9z0x8emg56oe3q5,F7nVja3z,2020-0188,2020-05-21,13:18:24,13:33:24,NA,incomplete,162,color,0,left,Blue_Plus_Grid_2.jpg,Blue_Star_Stripes_1.jpg,Red_Plus_Chess_3.jpg,right,565.0550000136718,false,low,NA,NA,NA,NA,NA,NA,NA,false
F7nVja3z,3jhb4bpsgnm0h9bvp7tggfn0kkoq96,3z3zlgnnsm7gprk9z0x8emg56oe3q5,F7nVja3z,2020-0188,2020-05-21,13:18:24,13:33:24,NA,incomplete,163,color,1,right,Blue_Star_Stripes_4.jpg,Purple_Star_Grid_1.jpg,Blue_Plus_Chess_2.jpg,left,610.8950000489131,false,low,NA,NA,NA,NA,NA,NA,NA,false
F7nVja3z,3jhb4bpsgnm0h9bvp7tggfn0kkoq96,3z3zlgnnsm7gprk9z0x8emg56oe3q5,F7nVja3z,2020-0188,2020-05-21,13:18:24,13:33:24,NA,incomplete,164,color,1,left,Green_Plus_Grid_4.jpg,Green_Circle_Stripes_3.jpg,Blue_Plus_Dots_1.jpg,left,486.4700000034645,true,low,NA,NA,NA,NA,NA,NA,NA,false
F7nVja3z,3jhb4bpsgnm0h9bvp7tggfn0kkoq96,3z3zlgnnsm7gprk9z0x8emg56oe3q5,F7nVja3z,2020-0188,2020-05-21,13:18:24,13:33:24,NA,incomplete,165,color,1,left,Red_Star_Dots_4.jpg,Red_Plus_Grid_2.jpg,Green_Star_Chess_3.jpg,left,495.5850000260398,true,low,NA,NA,NA,NA,NA,NA,NA,false
F7nVja3z,3jhb4bpsgnm0h9bvp7tggfn0kkoq96,3z3zlgnnsm7gprk9z0x8emg56oe3q5,F7nVja3z,2020-0188,2020-05-21,13:18:24,13:33:24,NA,incomplete,166,color,1,left,Blue_Circle_Stripes_3.jpg,Blue_Plus_Chess_2.jpg,Red_Circle_Dots_4.jpg,left,913.4799999883398,true,low,NA,NA,NA,NA,NA,NA,NA,false
F7nVja3z,3jhb4bpsgnm0h9bvp7tggfn0kkoq96,3z3zlgnnsm7gprk9z0x8emg56oe3q5,F7nVja3z,2020-0188,2020-05-21,13:18:24,13:33:24,NA,incomplete,167,color,1,right,Red_Star_Grid_2.jpg,Blue_Star_Dots_4.jpg,Red_Plus_Chess_1.jpg,right,712.3450000071898,true,low,NA,NA,NA,NA,NA,NA,NA,false
F7nVja3z,3jhb4bpsgnm0h9bvp7tggfn0kkoq96,3z3zlgnnsm7gprk9z0x8emg56oe3q5,F7nVja3z,2020-0188,2020-05-21,13:18:24,13:33:24,NA,incomplete,168,color,0,left,Purple_Circle_Grid_3.jpg,Purple_Plus_Stripes_4.jpg,Red_Circle_Chess_1.jpg,left,704.8150000628084,true,low,NA,NA,NA,NA,NA,NA,NA,false
F7nVja3z,3jhb4bpsgnm0h9bvp7tggfn0kkoq96,3z3zlgnnsm7gprk9z0x8emg56oe3q5,F7nVja3z,2020-0188,2020-05-21,13:18:24,13:33:24,NA,incomplete,169,color,1,right,Green_Star_Stripes_2.jpg,Red_Star_Grid_1.jpg,Green_Triangle_Dots_3.jpg,left,728.525000042282,false,low,NA,NA,NA,NA,NA,NA,NA,false
F7nVja3z,3jhb4bpsgnm0h9bvp7tggfn0kkoq96,3z3zlgnnsm7gprk9z0x8emg56oe3q5,F7nVja3z,2020-0188,2020-05-21,13:18:24,13:33:24,NA,incomplete,170,color,1,right,Purple_Star_Stripes_2.jpg,Blue_Star_Grid_3.jpg,Purple_Plus_Chess_4.jpg,right,528.0600000405684,true,low,NA,NA,NA,NA,NA,NA,NA,false
F7nVja3z,3jhb4bpsgnm0h9bvp7tggfn0kkoq96,3z3zlgnnsm7gprk9z0x8emg56oe3q5,F7nVja3z,2020-0188,2020-05-21,13:18:24,13:33:24,NA,incomplete,171,color,1,left,Red_Star_Stripes_4.jpg,Red_Circle_Grid_1.jpg,Blue_Star_Dots_3.jpg,left,518.9650000538677,true,low,NA,NA,NA,NA,NA,NA,NA,false
F7nVja3z,3jhb4bpsgnm0h9bvp7tggfn0kkoq96,3z3zlgnnsm7gprk9z0x8emg56oe3q5,F7nVja3z,2020-0188,2020-05-21,13:18:24,13:33:24,NA,incomplete,172,color,1,right,Red_Star_Chess_3.jpg,Green_Star_Grid_1.jpg,Red_Circle_Dots_4.jpg,right,534.2850000597537,true,low,NA,NA,NA,NA,NA,NA,NA,false
F7nVja3z,3jhb4bpsgnm0h9bvp7tggfn0kkoq96,3z3zlgnnsm7gprk9z0x8emg56oe3q5,F7nVja3z,2020-0188,2020-05-21,13:18:24,13:33:24,NA,incomplete,173,color,1,right,Red_Circle_Grid_1.jpg,Blue_Circle_Dots_4.jpg,Red_Star_Stripes_2.jpg,right,476.99500003363937,true,low,NA,NA,NA,NA,NA,NA,NA,false
F7nVja3z,3jhb4bpsgnm0h9bvp7tggfn0kkoq96,3z3zlgnnsm7gprk9z0x8emg56oe3q5,F7nVja3z,2020-0188,2020-05-21,13:18:24,13:33:24,NA,incomplete,174,color,1,left,Red_Circle_Chess_1.jpg,Red_Triangle_Dots_4.jpg,Blue_Circle_Stripes_2.jpg,left,509.4950000056997,true,low,NA,NA,NA,NA,NA,NA,NA,false
F7nVja3z,3jhb4bpsgnm0h9bvp7tggfn0kkoq96,3z3zlgnnsm7gprk9z0x8emg56oe3q5,F7nVja3z,2020-0188,2020-05-21,13:18:24,13:33:24,NA,incomplete,175,color,1,right,Purple_Circle_Chess_3.jpg,Blue_Circle_Stripes_4.jpg,Purple_Plus_Grid_2.jpg,right,526.4850000385195,true,low,NA,NA,NA,NA,NA,NA,NA,false
F7nVja3z,3jhb4bpsgnm0h9bvp7tggfn0kkoq96,3z3zlgnnsm7gprk9z0x8emg56oe3q5,F7nVja3z,2020-0188,2020-05-21,13:18:24,13:33:24,NA,incomplete,176,color,1,left,Red_Triangle_Stripes_3.jpg,Red_Star_Grid_1.jpg,Green_Triangle_Dots_4.jpg,left,535.219999961555,true,low,NA,NA,NA,NA,NA,NA,NA,false
F7nVja3z,3jhb4bpsgnm0h9bvp7tggfn0kkoq96,3z3zlgnnsm7gprk9z0x8emg56oe3q5,F7nVja3z,2020-0188,2020-05-21,13:18:24,13:33:24,NA,incomplete,177,color,1,left,Blue_Star_Chess_4.jpg,Blue_Circle_Grid_3.jpg,Purple_Star_Stripes_2.jpg,left,476.32499993778765,true,low,NA,NA,NA,NA,NA,NA,NA,false
F7nVja3z,3jhb4bpsgnm0h9bvp7tggfn0kkoq96,3z3zlgnnsm7gprk9z0x8emg56oe3q5,F7nVja3z,2020-0188,2020-05-21,13:18:24,13:33:24,NA,incomplete,178,color,1,left,Purple_Triangle_Stripes_4.jpg,Purple_Star_Grid_2.jpg,Green_Triangle_Chess_3.jpg,left,461.94499998819083,true,low,NA,NA,NA,NA,NA,NA,NA,false
F7nVja3z,3jhb4bpsgnm0h9bvp7tggfn0kkoq96,3z3zlgnnsm7gprk9z0x8emg56oe3q5,F7nVja3z,2020-0188,2020-05-21,13:18:24,13:33:24,NA,incomplete,179,color,0,left,Green_Plus_Chess_3.jpg,Green_Triangle_Grid_1.jpg,Blue_Plus_Stripes_4.jpg,left,527.4450000142679,true,low,NA,NA,NA,NA,NA,NA,NA,false
F7nVja3z,3jhb4bpsgnm0h9bvp7tggfn0kkoq96,3z3zlgnnsm7gprk9z0x8emg56oe3q5,F7nVja3z,2020-0188,2020-05-21,13:18:24,13:33:24,NA,incomplete,180,shape,1,left,Purple_Triangle_Chess_1.jpg,Blue_Triangle_Dots_4.jpg,Purple_Plus_Stripes_3.jpg,left,639.2249999335036,true,low,NA,NA,NA,NA,NA,NA,NA,false
F7nVja3z,3jhb4bpsgnm0h9bvp7tggfn0kkoq96,3z3zlgnnsm7gprk9z0x8emg56oe3q5,F7nVja3z,2020-0188,2020-05-21,13:18:24,13:33:24,NA,incomplete,181,shape,1,right,Blue_Triangle_Stripes_1.jpg,Blue_Star_Grid_4.jpg,Purple_Triangle_Dots_3.jpg,right,665.2049999684095,true,low,NA,NA,NA,NA,NA,NA,NA,false
F7nVja3z,3jhb4bpsgnm0h9bvp7tggfn0kkoq96,3z3zlgnnsm7gprk9z0x8emg56oe3q5,F7nVja3z,2020-0188,2020-05-21,13:18:24,13:33:24,NA,incomplete,182,shape,0,left,Green_Star_Grid_2.jpg,Purple_Star_Stripes_1.jpg,Green_Plus_Dots_3.jpg,left,587.9500000737607,true,low,NA,NA,NA,NA,NA,NA,NA,false
F7nVja3z,3jhb4bpsgnm0h9bvp7tggfn0kkoq96,3z3zlgnnsm7gprk9z0x8emg56oe3q5,F7nVja3z,2020-0188,2020-05-21,13:18:24,13:33:24,NA,incomplete,183,shape,1,right,Purple_Star_Dots_1.jpg,Purple_Plus_Chess_3.jpg,Red_Star_Grid_2.jpg,right,624.4549999246374,true,low,NA,NA,NA,NA,NA,NA,NA,false
F7nVja3z,3jhb4bpsgnm0h9bvp7tggfn0kkoq96,3z3zlgnnsm7gprk9z0x8emg56oe3q5,F7nVja3z,2020-0188,2020-05-21,13:18:24,13:33:24,NA,incomplete,184,shape,0,right,Purple_Star_Chess_3.jpg,Purple_Triangle_Dots_2.jpg,Red_Star_Stripes_1.jpg,right,603.2150000100955,true,low,NA,NA,NA,NA,NA,NA,NA,false
F7nVja3z,3jhb4bpsgnm0h9bvp7tggfn0kkoq96,3z3zlgnnsm7gprk9z0x8emg56oe3q5,F7nVja3z,2020-0188,2020-05-21,13:18:24,13:33:24,NA,incomplete,185,shape,1,right,Green_Circle_Chess_4.jpg,Green_Plus_Stripes_1.jpg,Red_Circle_Dots_2.jpg,right,592.1000000089407,true,low,NA,NA,NA,NA,NA,NA,NA,false
F7nVja3z,3jhb4bpsgnm0h9bvp7tggfn0kkoq96,3z3zlgnnsm7gprk9z0x8emg56oe3q5,F7nVja3z,2020-0188,2020-05-21,13:18:24,13:33:24,NA,incomplete,186,shape,1,right,Red_Star_Dots_4.jpg,Red_Plus_Chess_3.jpg,Green_Star_Stripes_2.jpg,right,580.3450000239536,true,low,NA,NA,NA,NA,NA,NA,NA,false
F7nVja3z,3jhb4bpsgnm0h9bvp7tggfn0kkoq96,3z3zlgnnsm7gprk9z0x8emg56oe3q5,F7nVja3z,2020-0188,2020-05-21,13:18:24,13:33:24,NA,incomplete,187,shape,0,right,Red_Circle_Stripes_4.jpg,Red_Plus_Grid_2.jpg,Blue_Circle_Chess_3.jpg,right,609.8800000036135,true,low,NA,NA,NA,NA,NA,NA,NA,false
F7nVja3z,3jhb4bpsgnm0h9bvp7tggfn0kkoq96,3z3zlgnnsm7gprk9z0x8emg56oe3q5,F7nVja3z,2020-0188,2020-05-21,13:18:24,13:33:24,NA,incomplete,188,shape,1,right,Purple_Star_Stripes_3.jpg,Purple_Plus_Chess_1.jpg,Red_Star_Dots_4.jpg,right,541.9900000561029,true,low,NA,NA,NA,NA,NA,NA,NA,false
F7nVja3z,3jhb4bpsgnm0h9bvp7tggfn0kkoq96,3z3zlgnnsm7gprk9z0x8emg56oe3q5,F7nVja3z,2020-0188,2020-05-21,13:18:24,13:33:24,NA,incomplete,189,shape,1,right,Red_Star_Grid_4.jpg,Red_Triangle_Stripes_3.jpg,Purple_Star_Chess_1.jpg,right,563.630000106059,true,low,NA,NA,NA,NA,NA,NA,NA,false
F7nVja3z,3jhb4bpsgnm0h9bvp7tggfn0kkoq96,3z3zlgnnsm7gprk9z0x8emg56oe3q5,F7nVja3z,2020-0188,2020-05-21,13:18:24,13:33:24,NA,incomplete,190,shape,0,right,Green_Circle_Dots_2.jpg,Green_Triangle_Stripes_1.jpg,Blue_Circle_Grid_3.jpg,right,554.4950000476092,true,low,NA,NA,NA,NA,NA,NA,NA,false
F7nVja3z,3jhb4bpsgnm0h9bvp7tggfn0kkoq96,3z3zlgnnsm7gprk9z0x8emg56oe3q5,F7nVja3z,2020-0188,2020-05-21,13:18:24,13:33:24,NA,incomplete,191,shape,1,left,Blue_Plus_Stripes_2.jpg,Green_Plus_Chess_3.jpg,Blue_Star_Dots_1.jpg,right,793.7800000654534,false,low,NA,NA,NA,NA,NA,NA,NA,false
F7nVja3z,3jhb4bpsgnm0h9bvp7tggfn0kkoq96,3z3zlgnnsm7gprk9z0x8emg56oe3q5,F7nVja3z,2020-0188,2020-05-21,13:18:24,13:33:24,NA,incomplete,192,shape,1,left,Purple_Triangle_Stripes_2.jpg,Green_Triangle_Dots_1.jpg,Purple_Circle_Grid_4.jpg,left,661.5299999248236,true,low,NA,NA,NA,NA,NA,NA,NA,false
F7nVja3z,3jhb4bpsgnm0h9bvp7tggfn0kkoq96,3z3zlgnnsm7gprk9z0x8emg56oe3q5,F7nVja3z,2020-0188,2020-05-21,13:18:24,13:33:24,NA,incomplete,193,shape,1,left,Red_Triangle_Chess_1.jpg,Green_Triangle_Grid_3.jpg,Red_Star_Stripes_4.jpg,left,567.4550000112504,true,low,NA,NA,NA,NA,NA,NA,NA,false
F7nVja3z,3jhb4bpsgnm0h9bvp7tggfn0kkoq96,3z3zlgnnsm7gprk9z0x8emg56oe3q5,F7nVja3z,2020-0188,2020-05-21,13:18:24,13:33:24,NA,incomplete,194,shape,0,right,Red_Circle_Chess_2.jpg,Red_Plus_Grid_3.jpg,Blue_Circle_Dots_4.jpg,right,524.9300000723451,true,low,NA,NA,NA,NA,NA,NA,NA,false
F7nVja3z,3jhb4bpsgnm0h9bvp7tggfn0kkoq96,3z3zlgnnsm7gprk9z0x8emg56oe3q5,F7nVja3z,2020-0188,2020-05-21,13:18:24,13:33:24,NA,incomplete,195,shape,1,right,Red_Circle_Stripes_2.jpg,Red_Star_Dots_1.jpg,Purple_Circle_Chess_3.jpg,right,684.0399999637157,true,low,NA,NA,NA,NA,NA,NA,NA,false
F7nVja3z,3jhb4bpsgnm0h9bvp7tggfn0kkoq96,3z3zlgnnsm7gprk9z0x8emg56oe3q5,F7nVja3z,2020-0188,2020-05-21,13:18:24,13:33:24,NA,incomplete,196,shape,0,right,Purple_Plus_Stripes_2.jpg,Purple_Star_Dots_4.jpg,Blue_Plus_Chess_1.jpg,left,732.5199999613687,false,low,NA,NA,NA,NA,NA,NA,NA,false
F7nVja3z,3jhb4bpsgnm0h9bvp7tggfn0kkoq96,3z3zlgnnsm7gprk9z0x8emg56oe3q5,F7nVja3z,2020-0188,2020-05-21,13:18:24,13:33:24,NA,incomplete,197,shape,1,right,Red_Triangle_Grid_4.jpg,Red_Star_Chess_2.jpg,Blue_Triangle_Stripes_1.jpg,left,563.9850000152364,false,low,NA,NA,NA,NA,NA,NA,NA,false
F7nVja3z,3jhb4bpsgnm0h9bvp7tggfn0kkoq96,3z3zlgnnsm7gprk9z0x8emg56oe3q5,F7nVja3z,2020-0188,2020-05-21,13:18:24,13:33:24,NA,incomplete,198,shape,1,right,Purple_Plus_Grid_1.jpg,Purple_Star_Chess_3.jpg,Green_Plus_Dots_2.jpg,right,682.2799999499694,true,low,NA,NA,NA,NA,NA,NA,NA,false
F7nVja3z,3jhb4bpsgnm0h9bvp7tggfn0kkoq96,3z3zlgnnsm7gprk9z0x8emg56oe3q5,F7nVja3z,2020-0188,2020-05-21,13:18:24,13:33:24,NA,incomplete,199,shape,0,left,Green_Circle_Stripes_3.jpg,Blue_Circle_Chess_1.jpg,Green_Triangle_Dots_2.jpg,left,706.4300000201911,true,low,NA,NA,NA,NA,NA,NA,NA,false
F7nVja3z,3jhb4bpsgnm0h9bvp7tggfn0kkoq96,3z3zlgnnsm7gprk9z0x8emg56oe3q5,F7nVja3z,2020-0188,2020-05-21,13:18:24,13:33:24,NA,incomplete,200,color,1,left,Purple_Triangle_Dots_1.jpg,Purple_Circle_Chess_3.jpg,Red_Triangle_Grid_4.jpg,right,586.5200000116602,false,low,NA,NA,NA,NA,NA,NA,NA,false
F7nVja3z,3jhb4bpsgnm0h9bvp7tggfn0kkoq96,3z3zlgnnsm7gprk9z0x8emg56oe3q5,F7nVja3z,2020-0188,2020-05-21,13:18:24,13:33:24,NA,incomplete,201,color,1,left,Purple_Triangle_Stripes_4.jpg,Purple_Plus_Chess_3.jpg,Blue_Triangle_Grid_2.jpg,left,543.8299999805167,true,low,NA,NA,NA,NA,NA,NA,NA,false
F7nVja3z,3jhb4bpsgnm0h9bvp7tggfn0kkoq96,3z3zlgnnsm7gprk9z0x8emg56oe3q5,F7nVja3z,2020-0188,2020-05-21,13:18:24,13:33:24,NA,incomplete,202,color,1,left,Green_Triangle_Grid_3.jpg,Green_Star_Chess_1.jpg,Blue_Triangle_Stripes_4.jpg,left,565.8399999374524,true,low,NA,NA,NA,NA,NA,NA,NA,false
F7nVja3z,3jhb4bpsgnm0h9bvp7tggfn0kkoq96,3z3zlgnnsm7gprk9z0x8emg56oe3q5,F7nVja3z,2020-0188,2020-05-21,13:18:24,13:33:24,NA,incomplete,203,color,1,left,Blue_Plus_Chess_1.jpg,Blue_Star_Grid_2.jpg,Red_Plus_Stripes_3.jpg,left,484.859999967739,true,low,NA,NA,NA,NA,NA,NA,NA,false
F7nVja3z,3jhb4bpsgnm0h9bvp7tggfn0kkoq96,3z3zlgnnsm7gprk9z0x8emg56oe3q5,F7nVja3z,2020-0188,2020-05-21,13:18:24,13:33:24,NA,incomplete,204,color,1,right,Purple_Triangle_Chess_1.jpg,Red_Triangle_Dots_2.jpg,Purple_Plus_Stripes_4.jpg,right,580.5599999148399,true,low,NA,NA,NA,NA,NA,NA,NA,false
F7nVja3z,3jhb4bpsgnm0h9bvp7tggfn0kkoq96,3z3zlgnnsm7gprk9z0x8emg56oe3q5,F7nVja3z,2020-0188,2020-05-21,13:18:24,13:33:24,NA,incomplete,205,color,1,left,Purple_Star_Chess_3.jpg,Purple_Plus_Grid_1.jpg,Blue_Star_Dots_2.jpg,left,537.9749999847263,true,low,NA,NA,NA,NA,NA,NA,NA,false
F7nVja3z,3jhb4bpsgnm0h9bvp7tggfn0kkoq96,3z3zlgnnsm7gprk9z0x8emg56oe3q5,F7nVja3z,2020-0188,2020-05-21,13:18:24,13:33:24,NA,incomplete,206,color,1,right,Red_Plus_Grid_3.jpg,Purple_Plus_Stripes_4.jpg,Red_Circle_Chess_2.jpg,right,514.6500000264496,true,low,NA,NA,NA,NA,NA,NA,NA,false
F7nVja3z,3jhb4bpsgnm0h9bvp7tggfn0kkoq96,3z3zlgnnsm7gprk9z0x8emg56oe3q5,F7nVja3z,2020-0188,2020-05-21,13:18:24,13:33:24,NA,incomplete,207,color,1,left,Red_Circle_Chess_4.jpg,Red_Triangle_Dots_2.jpg,Purple_Circle_Grid_3.jpg,left,577.6849999092519,true,low,NA,NA,NA,NA,NA,NA,NA,false
F7nVja3z,3jhb4bpsgnm0h9bvp7tggfn0kkoq96,3z3zlgnnsm7gprk9z0x8emg56oe3q5,F7nVja3z,2020-0188,2020-05-21,13:18:24,13:33:24,NA,incomplete,208,color,0,left,Red_Plus_Dots_4.jpg,Red_Circle_Chess_1.jpg,Purple_Plus_Stripes_3.jpg,left,469.81000003870577,true,low,NA,NA,NA,NA,NA,NA,NA,false
F7nVja3z,3jhb4bpsgnm0h9bvp7tggfn0kkoq96,3z3zlgnnsm7gprk9z0x8emg56oe3q5,F7nVja3z,2020-0188,2020-05-21,13:18:24,13:33:24,NA,incomplete,209,color,1,right,Green_Plus_Stripes_2.jpg,Red_Plus_Dots_4.jpg,Green_Circle_Chess_3.jpg,right,576.3700000243261,true,low,NA,NA,NA,NA,NA,NA,NA,false
F7nVja3z,3jhb4bpsgnm0h9bvp7tggfn0kkoq96,3z3zlgnnsm7gprk9z0x8emg56oe3q5,F7nVja3z,2020-0188,2020-05-21,13:18:24,13:33:24,NA,incomplete,210,color,1,left,Purple_Star_Dots_1.jpg,Purple_Circle_Grid_4.jpg,Green_Star_Chess_2.jpg,left,533.0100000137463,true,low,NA,NA,NA,NA,NA,NA,NA,false
F7nVja3z,3jhb4bpsgnm0h9bvp7tggfn0kkoq96,3z3zlgnnsm7gprk9z0x8emg56oe3q5,F7nVja3z,2020-0188,2020-05-21,13:18:24,13:33:24,NA,incomplete,211,color,1,left,Green_Circle_Chess_2.jpg,Green_Star_Dots_4.jpg,Red_Circle_Grid_3.jpg,left,542.394999996759,true,low,NA,NA,NA,NA,NA,NA,NA,false
F7nVja3z,3jhb4bpsgnm0h9bvp7tggfn0kkoq96,3z3zlgnnsm7gprk9z0x8emg56oe3q5,F7nVja3z,2020-0188,2020-05-21,13:18:24,13:33:24,NA,incomplete,212,color,1,left,Red_Circle_Chess_1.jpg,Red_Plus_Stripes_2.jpg,Purple_Circle_Dots_3.jpg,left,827.5050000520423,true,low,NA,NA,NA,NA,NA,NA,NA,false
F7nVja3z,3jhb4bpsgnm0h9bvp7tggfn0kkoq96,3z3zlgnnsm7gprk9z0x8emg56oe3q5,F7nVja3z,2020-0188,2020-05-21,13:18:24,13:33:24,NA,incomplete,213,color,1,left,Green_Plus_Grid_2.jpg,Green_Circle_Dots_4.jpg,Blue_Plus_Stripes_3.jpg,left,510.0899999961257,true,low,NA,NA,NA,NA,NA,NA,NA,false
F7nVja3z,3jhb4bpsgnm0h9bvp7tggfn0kkoq96,3z3zlgnnsm7gprk9z0x8emg56oe3q5,F7nVja3z,2020-0188,2020-05-21,13:18:24,13:33:24,NA,incomplete,214,color,1,left,Blue_Star_Dots_4.jpg,Blue_Triangle_Grid_3.jpg,Purple_Star_Chess_1.jpg,left,501.8649999983609,true,low,NA,NA,NA,NA,NA,NA,NA,false
F7nVja3z,3jhb4bpsgnm0h9bvp7tggfn0kkoq96,3z3zlgnnsm7gprk9z0x8emg56oe3q5,F7nVja3z,2020-0188,2020-05-21,13:18:24,13:33:24,NA,incomplete,215,color,1,left,Green_Plus_Chess_1.jpg,Green_Triangle_Stripes_3.jpg,Red_Plus_Dots_4.jpg,left,542.064999928698,true,low,NA,NA,NA,NA,NA,NA,NA,false
F7nVja3z,3jhb4bpsgnm0h9bvp7tggfn0kkoq96,3z3zlgnnsm7gprk9z0x8emg56oe3q5,F7nVja3z,2020-0188,2020-05-21,13:18:24,13:33:24,NA,incomplete,216,color,1,right,Blue_Triangle_Grid_2.jpg,Red_Triangle_Dots_1.jpg,Blue_Star_Chess_4.jpg,right,550.3749999916181,true,low,NA,NA,NA,NA,NA,NA,NA,false
F7nVja3z,3jhb4bpsgnm0h9bvp7tggfn0kkoq96,3z3zlgnnsm7gprk9z0x8emg56oe3q5,F7nVja3z,2020-0188,2020-05-21,13:18:24,13:33:24,NA,incomplete,217,color,1,left,Blue_Plus_Dots_4.jpg,Blue_Circle_Stripes_3.jpg,Red_Plus_Grid_1.jpg,left,467.92500000447035,true,low,NA,NA,NA,NA,NA,NA,NA,false
F7nVja3z,3jhb4bpsgnm0h9bvp7tggfn0kkoq96,3z3zlgnnsm7gprk9z0x8emg56oe3q5,F7nVja3z,2020-0188,2020-05-21,13:18:24,13:33:24,NA,incomplete,218,color,1,left,Red_Triangle_Grid_3.jpg,Red_Star_Stripes_1.jpg,Green_Triangle_Dots_4.jpg,left,740.8950000535697,true,low,NA,NA,NA,NA,NA,NA,NA,false
F7nVja3z,3jhb4bpsgnm0h9bvp7tggfn0kkoq96,3z3zlgnnsm7gprk9z0x8emg56oe3q5,F7nVja3z,2020-0188,2020-05-21,13:18:24,13:33:24,NA,incomplete,219,color,1,right,Purple_Plus_Dots_2.jpg,Red_Plus_Stripes_3.jpg,Purple_Star_Chess_1.jpg,right,571.7149999691173,true,low,NA,NA,NA,NA,NA,NA,NA,false
F7nVja3z,3jhb4bpsgnm0h9bvp7tggfn0kkoq96,3z3zlgnnsm7gprk9z0x8emg56oe3q5,F7nVja3z,2020-0188,2020-05-21,13:18:24,13:33:24,NA,incomplete,220,shape,1,left,Green_Circle_Dots_4.jpg,Red_Circle_Chess_1.jpg,Green_Star_Stripes_3.jpg,right,488.17999998573214,false,low,NA,NA,NA,NA,NA,NA,NA,false
F7nVja3z,3jhb4bpsgnm0h9bvp7tggfn0kkoq96,3z3zlgnnsm7gprk9z0x8emg56oe3q5,F7nVja3z,2020-0188,2020-05-21,13:18:24,13:33:24,NA,incomplete,221,shape,1,left,Purple_Star_Chess_2.jpg,Blue_Star_Grid_3.jpg,Purple_Circle_Dots_4.jpg,left,563.4450000943616,true,low,NA,NA,NA,NA,NA,NA,NA,false
F7nVja3z,3jhb4bpsgnm0h9bvp7tggfn0kkoq96,3z3zlgnnsm7gprk9z0x8emg56oe3q5,F7nVja3z,2020-0188,2020-05-21,13:18:24,13:33:24,NA,incomplete,222,shape,0,right,Red_Plus_Stripes_2.jpg,Red_Star_Grid_3.jpg,Green_Plus_Dots_4.jpg,right,599.7649999335408,true,low,NA,NA,NA,NA,NA,NA,NA,false
F7nVja3z,3jhb4bpsgnm0h9bvp7tggfn0kkoq96,3z3zlgnnsm7gprk9z0x8emg56oe3q5,F7nVja3z,2020-0188,2020-05-21,13:18:24,13:33:24,NA,incomplete,223,shape,1,right,Red_Star_Stripes_3.jpg,Red_Plus_Dots_2.jpg,Blue_Star_Chess_4.jpg,right,644.5850000018254,true,low,NA,NA,NA,NA,NA,NA,NA,false
F7nVja3z,3jhb4bpsgnm0h9bvp7tggfn0kkoq96,3z3zlgnnsm7gprk9z0x8emg56oe3q5,F7nVja3z,2020-0188,2020-05-21,13:18:24,13:33:24,NA,incomplete,224,shape,0,right,Green_Circle_Chess_4.jpg,Green_Plus_Grid_1.jpg,Purple_Circle_Stripes_2.jpg,right,551.6799999168143,true,low,NA,NA,NA,NA,NA,NA,NA,false
F7nVja3z,3jhb4bpsgnm0h9bvp7tggfn0kkoq96,3z3zlgnnsm7gprk9z0x8emg56oe3q5,F7nVja3z,2020-0188,2020-05-21,13:18:24,13:33:24,NA,incomplete,225,shape,1,right,Blue_Circle_Grid_4.jpg,Blue_Triangle_Chess_1.jpg,Purple_Circle_Stripes_3.jpg,right,717.1549999620765,true,low,NA,NA,NA,NA,NA,NA,NA,false
F7nVja3z,3jhb4bpsgnm0h9bvp7tggfn0kkoq96,3z3zlgnnsm7gprk9z0x8emg56oe3q5,F7nVja3z,2020-0188,2020-05-21,13:18:24,13:33:24,NA,incomplete,226,shape,1,left,Blue_Plus_Stripes_2.jpg,Red_Plus_Grid_1.jpg,Blue_Circle_Dots_4.jpg,left,526.5399999916553,true,low,NA,NA,NA,NA,NA,NA,NA,false
F7nVja3z,3jhb4bpsgnm0h9bvp7tggfn0kkoq96,3z3zlgnnsm7gprk9z0x8emg56oe3q5,F7nVja3z,2020-0188,2020-05-21,13:18:24,13:33:24,NA,incomplete,227,shape,1,left,Green_Star_Stripes_4.jpg,Blue_Star_Dots_1.jpg,Green_Triangle_Chess_3.jpg,left,652.4500000523403,true,low,NA,NA,NA,NA,NA,NA,NA,false
F7nVja3z,3jhb4bpsgnm0h9bvp7tggfn0kkoq96,3z3zlgnnsm7gprk9z0x8emg56oe3q5,F7nVja3z,2020-0188,2020-05-21,13:18:24,13:33:24,NA,incomplete,228,shape,1,left,Green_Circle_Chess_2.jpg,Red_Circle_Dots_4.jpg,Green_Triangle_Grid_1.jpg,left,558.2450000802055,true,low,NA,NA,NA,NA,NA,NA,NA,false
F7nVja3z,3jhb4bpsgnm0h9bvp7tggfn0kkoq96,3z3zlgnnsm7gprk9z0x8emg56oe3q5,F7nVja3z,2020-0188,2020-05-21,13:18:24,13:33:24,NA,incomplete,229,shape,0,left,Blue_Star_Grid_1.jpg,Green_Star_Dots_3.jpg,Blue_Circle_Stripes_2.jpg,left,580.3450000239536,true,low,NA,NA,NA,NA,NA,NA,NA,false
F7nVja3z,3jhb4bpsgnm0h9bvp7tggfn0kkoq96,3z3zlgnnsm7gprk9z0x8emg56oe3q5,F7nVja3z,2020-0188,2020-05-21,13:18:24,13:33:24,NA,incomplete,230,shape,1,left,Blue_Triangle_Chess_3.jpg,Red_Triangle_Dots_1.jpg,Blue_Star_Grid_4.jpg,left,609.6300000790507,true,low,NA,NA,NA,NA,NA,NA,NA,false
F7nVja3z,3jhb4bpsgnm0h9bvp7tggfn0kkoq96,3z3zlgnnsm7gprk9z0x8emg56oe3q5,F7nVja3z,2020-0188,2020-05-21,13:18:24,13:33:24,NA,incomplete,231,shape,1,right,Purple_Star_Chess_1.jpg,Purple_Circle_Stripes_3.jpg,Blue_Star_Dots_4.jpg,right,599.0549999987707,true,low,NA,NA,NA,NA,NA,NA,NA,false
F7nVja3z,3jhb4bpsgnm0h9bvp7tggfn0kkoq96,3z3zlgnnsm7gprk9z0x8emg56oe3q5,F7nVja3z,2020-0188,2020-05-21,13:18:24,13:33:24,NA,incomplete,232,shape,0,right,Red_Triangle_Chess_4.jpg,Red_Circle_Grid_1.jpg,Blue_Triangle_Dots_2.jpg,right,594.4250000175089,true,low,NA,NA,NA,NA,NA,NA,NA,false
F7nVja3z,3jhb4bpsgnm0h9bvp7tggfn0kkoq96,3z3zlgnnsm7gprk9z0x8emg56oe3q5,F7nVja3z,2020-0188,2020-05-21,13:18:24,13:33:24,NA,incomplete,233,shape,1,left,Red_Circle_Dots_1.jpg,Blue_Circle_Chess_4.jpg,Red_Star_Stripes_2.jpg,left,519.3399999989197,true,low,NA,NA,NA,NA,NA,NA,NA,false
F7nVja3z,3jhb4bpsgnm0h9bvp7tggfn0kkoq96,3z3zlgnnsm7gprk9z0x8emg56oe3q5,F7nVja3z,2020-0188,2020-05-21,13:18:24,13:33:24,NA,incomplete,234,shape,0,right,Red_Plus_Stripes_2.jpg,Red_Triangle_Grid_1.jpg,Green_Plus_Chess_4.jpg,right,646.3549999753013,true,low,NA,NA,NA,NA,NA,NA,NA,false
F7nVja3z,3jhb4bpsgnm0h9bvp7tggfn0kkoq96,3z3zlgnnsm7gprk9z0x8emg56oe3q5,F7nVja3z,2020-0188,2020-05-21,13:18:24,13:33:24,NA,incomplete,235,shape,1,right,Purple_Circle_Stripes_2.jpg,Purple_Plus_Chess_1.jpg,Blue_Circle_Grid_4.jpg,right,584.569999948144,true,low,NA,NA,NA,NA,NA,NA,NA,false
F7nVja3z,3jhb4bpsgnm0h9bvp7tggfn0kkoq96,3z3zlgnnsm7gprk9z0x8emg56oe3q5,F7nVja3z,2020-0188,2020-05-21,13:18:24,13:33:24,NA,incomplete,236,shape,1,right,Purple_Star_Grid_3.jpg,Purple_Plus_Stripes_4.jpg,Green_Star_Chess_2.jpg,right,663.1650000344962,true,low,NA,NA,NA,NA,NA,NA,NA,false
F7nVja3z,3jhb4bpsgnm0h9bvp7tggfn0kkoq96,3z3zlgnnsm7gprk9z0x8emg56oe3q5,F7nVja3z,2020-0188,2020-05-21,13:18:24,13:33:24,NA,incomplete,237,shape,1,left,Red_Plus_Chess_4.jpg,Purple_Plus_Stripes_3.jpg,Red_Star_Dots_2.jpg,left,846.9899999909103,true,low,NA,NA,NA,NA,NA,NA,NA,false
F7nVja3z,3jhb4bpsgnm0h9bvp7tggfn0kkoq96,3z3zlgnnsm7gprk9z0x8emg56oe3q5,F7nVja3z,2020-0188,2020-05-21,13:18:24,13:33:24,NA,incomplete,238,shape,0,right,Green_Plus_Chess_1.jpg,Green_Circle_Dots_2.jpg,Blue_Plus_Grid_3.jpg,right,737.9649999784306,true,low,NA,NA,NA,NA,NA,NA,NA,false
F7nVja3z,3jhb4bpsgnm0h9bvp7tggfn0kkoq96,3z3zlgnnsm7gprk9z0x8emg56oe3q5,F7nVja3z,2020-0188,2020-05-21,13:18:24,13:33:24,NA,incomplete,239,shape,1,left,Red_Star_Dots_4.jpg,Blue_Star_Chess_1.jpg,Red_Circle_Grid_3.jpg,left,713.1449999287724,true,low,NA,NA,NA,NA,NA,NA,NA,false
F7nVja3z,3jhb4bpsgnm0h9bvp7tggfn0kkoq96,3z3zlgnnsm7gprk9z0x8emg56oe3q5,F7nVja3z,2020-0188,2020-05-21,13:18:24,13:33:24,NA,NA,instruction example,filling,NA,NA,Green_Circle_Grid_2.jpg,Blue_Star_Grid_1.jpg,Red_Plus_Stripes_2.jpg,NA,NA,NA,NA,NA,NA,NA,NA,NA,NA,NA,undefined
F7nVja3z,3jhb4bpsgnm0h9bvp7tggfn0kkoq96,3z3zlgnnsm7gprk9z0x8emg56oe3q5,F7nVja3z,2020-0188,2020-05-21,13:18:24,13:33:24,NA,NA,instruction example,filling,NA,NA,Blue_Plus_Chess_3.jpg,Red_Circle_Stripes_3.jpg,Green_Triangle_Chess_2.jpg,NA,NA,NA,NA,NA,NA,NA,NA,NA,NA,NA,undefined
F7nVja3z,3jhb4bpsgnm0h9bvp7tggfn0kkoq96,3z3zlgnnsm7gprk9z0x8emg56oe3q5,F7nVja3z,2020-0188,2020-05-21,13:18:24,13:33:24,NA,NA,instruction example,filling,NA,NA,Purple_Circle_Stripes_3.jpg,Purple_Star_Grid_2.jpg,Blue_Circle_Dots_4.jpg,NA,NA,NA,NA,NA,NA,NA,NA,NA,NA,NA,undefined
F7nVja3z,3jhb4bpsgnm0h9bvp7tggfn0kkoq96,3z3zlgnnsm7gprk9z0x8emg56oe3q5,F7nVja3z,2020-0188,2020-05-21,13:18:24,13:33:24,NA,NA,instruction example,filling,NA,NA,Green_Star_Grid_3.jpg,Red_Star_Stripes_2.jpg,Green_Plus_Chess_4.jpg,NA,NA,NA,NA,NA,NA,NA,NA,NA,NA,NA,undefined
F7nVja3z,3jhb4bpsgnm0h9bvp7tggfn0kkoq96,3z3zlgnnsm7gprk9z0x8emg56oe3q5,F7nVja3z,2020-0188,2020-05-21,13:18:24,13:33:24,855135.5500000063,900247.699999949,NA,NA,NA,NA,NA,NA,NA,NA,NA,NA,NA,30,White/Caucasian,Male,Irish,no,no,no,undefined
