workerId,hitId,assignmentId,subject,studyid,exp_date,exp_start,exp_end,time_start,time_end,trial,type,reward_validity,answer,image_top,image_left,image_right,response,response_time,response_acc,volatility,practice
D01N8wqX,3o2y2uiudt7n7g4dfo9bupx2ocrfkv,3zv9h2yqqhkl9ogvb9we6byrutiw3x,D01N8wqX,2020-0188,2020-05-21,22:46:44,23:06:43,NA,incomplete,0,color,1,left,Purple_Circle_Grid_4.jpg,Purple_Star_Dots_2.jpg,Red_Circle_Chess_1.jpg,none,0,false,NA,true
D01N8wqX,3o2y2uiudt7n7g4dfo9bupx2ocrfkv,3zv9h2yqqhkl9ogvb9we6byrutiw3x,D01N8wqX,2020-0188,2020-05-21,22:46:44,23:06:43,NA,incomplete,1,color,1,right,Blue_Circle_Grid_1.jpg,Red_Circle_Stripes_2.jpg,Blue_Star_Dots_3.jpg,right,679.3449999531731,true,NA,true
D01N8wqX,3o2y2uiudt7n7g4dfo9bupx2ocrfkv,3zv9h2yqqhkl9ogvb9we6byrutiw3x,D01N8wqX,2020-0188,2020-05-21,22:46:44,23:06:43,NA,incomplete,2,color,0,right,Blue_Circle_Dots_4.jpg,Green_Circle_Grid_3.jpg,Blue_Plus_Chess_2.jpg,right,457.34000008087605,true,NA,true
D01N8wqX,3o2y2uiudt7n7g4dfo9bupx2ocrfkv,3zv9h2yqqhkl9ogvb9we6byrutiw3x,D01N8wqX,2020-0188,2020-05-21,22:46:44,23:06:43,NA,incomplete,3,color,1,left,Red_Circle_Dots_1.jpg,Red_Star_Stripes_3.jpg,Purple_Circle_Chess_2.jpg,right,517.920000012964,false,NA,true
D01N8wqX,3o2y2uiudt7n7g4dfo9bupx2ocrfkv,3zv9h2yqqhkl9ogvb9we6byrutiw3x,D01N8wqX,2020-0188,2020-05-21,22:46:44,23:06:43,NA,incomplete,4,color,0,right,Blue_Plus_Grid_2.jpg,Red_Plus_Chess_3.jpg,Blue_Triangle_Stripes_4.jpg,right,659.5199999865144,true,NA,true
D01N8wqX,3o2y2uiudt7n7g4dfo9bupx2ocrfkv,3zv9h2yqqhkl9ogvb9we6byrutiw3x,D01N8wqX,2020-0188,2020-05-21,22:46:44,23:06:43,NA,incomplete,5,color,0,left,Purple_Triangle_Dots_2.jpg,Purple_Circle_Chess_4.jpg,Green_Triangle_Grid_1.jpg,left,616.2049999693409,true,NA,true
D01N8wqX,3o2y2uiudt7n7g4dfo9bupx2ocrfkv,3zv9h2yqqhkl9ogvb9we6byrutiw3x,D01N8wqX,2020-0188,2020-05-21,22:46:44,23:06:43,NA,incomplete,6,color,1,right,Green_Plus_Dots_3.jpg,Blue_Plus_Grid_1.jpg,Green_Star_Chess_4.jpg,right,581.9249999476597,true,NA,true
D01N8wqX,3o2y2uiudt7n7g4dfo9bupx2ocrfkv,3zv9h2yqqhkl9ogvb9we6byrutiw3x,D01N8wqX,2020-0188,2020-05-21,22:46:44,23:06:43,NA,incomplete,7,color,1,left,Green_Circle_Dots_3.jpg,Green_Triangle_Stripes_4.jpg,Blue_Circle_Chess_2.jpg,left,486.8550000246614,true,NA,true
D01N8wqX,3o2y2uiudt7n7g4dfo9bupx2ocrfkv,3zv9h2yqqhkl9ogvb9we6byrutiw3x,D01N8wqX,2020-0188,2020-05-21,22:46:44,23:06:43,NA,incomplete,8,color,1,left,Green_Plus_Dots_3.jpg,Green_Triangle_Stripes_2.jpg,Purple_Plus_Chess_4.jpg,left,617.2800000058487,true,NA,true
D01N8wqX,3o2y2uiudt7n7g4dfo9bupx2ocrfkv,3zv9h2yqqhkl9ogvb9we6byrutiw3x,D01N8wqX,2020-0188,2020-05-21,22:46:44,23:06:43,NA,incomplete,9,color,1,right,Purple_Star_Chess_1.jpg,Green_Star_Stripes_4.jpg,Purple_Triangle_Grid_3.jpg,right,623.7350000301376,true,NA,true
D01N8wqX,3o2y2uiudt7n7g4dfo9bupx2ocrfkv,3zv9h2yqqhkl9ogvb9we6byrutiw3x,D01N8wqX,2020-0188,2020-05-21,22:46:44,23:06:43,NA,incomplete,10,color,1,left,Red_Star_Dots_3.jpg,Red_Plus_Chess_2.jpg,Purple_Star_Stripes_1.jpg,left,525.785000063479,true,NA,true
D01N8wqX,3o2y2uiudt7n7g4dfo9bupx2ocrfkv,3zv9h2yqqhkl9ogvb9we6byrutiw3x,D01N8wqX,2020-0188,2020-05-21,22:46:44,23:06:43,NA,incomplete,11,color,1,right,Blue_Triangle_Grid_3.jpg,Red_Triangle_Dots_4.jpg,Blue_Plus_Chess_2.jpg,right,573.3500000787899,true,NA,true
D01N8wqX,3o2y2uiudt7n7g4dfo9bupx2ocrfkv,3zv9h2yqqhkl9ogvb9we6byrutiw3x,D01N8wqX,2020-0188,2020-05-21,22:46:44,23:06:43,NA,incomplete,12,color,0,left,Blue_Plus_Stripes_3.jpg,Blue_Star_Dots_1.jpg,Purple_Plus_Chess_2.jpg,left,555.2000000607222,true,NA,true
D01N8wqX,3o2y2uiudt7n7g4dfo9bupx2ocrfkv,3zv9h2yqqhkl9ogvb9we6byrutiw3x,D01N8wqX,2020-0188,2020-05-21,22:46:44,23:06:43,NA,incomplete,13,color,1,left,Purple_Star_Stripes_2.jpg,Purple_Triangle_Chess_3.jpg,Green_Star_Dots_1.jpg,left,578.7299999501556,true,NA,true
D01N8wqX,3o2y2uiudt7n7g4dfo9bupx2ocrfkv,3zv9h2yqqhkl9ogvb9we6byrutiw3x,D01N8wqX,2020-0188,2020-05-21,22:46:44,23:06:43,NA,incomplete,14,color,1,right,Purple_Triangle_Stripes_1.jpg,Green_Triangle_Grid_4.jpg,Purple_Circle_Dots_3.jpg,right,613.5000000940636,true,NA,true
D01N8wqX,3o2y2uiudt7n7g4dfo9bupx2ocrfkv,3zv9h2yqqhkl9ogvb9we6byrutiw3x,D01N8wqX,2020-0188,2020-05-21,22:46:44,23:06:43,NA,incomplete,15,color,1,left,Red_Star_Grid_4.jpg,Red_Circle_Stripes_1.jpg,Purple_Star_Chess_2.jpg,left,721.2899998994544,true,NA,true
D01N8wqX,3o2y2uiudt7n7g4dfo9bupx2ocrfkv,3zv9h2yqqhkl9ogvb9we6byrutiw3x,D01N8wqX,2020-0188,2020-05-21,22:46:44,23:06:43,NA,incomplete,16,color,0,right,Purple_Plus_Dots_3.jpg,Green_Plus_Grid_2.jpg,Purple_Star_Chess_1.jpg,right,805.555000086315,true,NA,true
D01N8wqX,3o2y2uiudt7n7g4dfo9bupx2ocrfkv,3zv9h2yqqhkl9ogvb9we6byrutiw3x,D01N8wqX,2020-0188,2020-05-21,22:46:44,23:06:43,NA,incomplete,17,color,1,right,Red_Star_Grid_3.jpg,Purple_Star_Dots_1.jpg,Red_Plus_Chess_4.jpg,right,719.6800000965595,true,NA,true
D01N8wqX,3o2y2uiudt7n7g4dfo9bupx2ocrfkv,3zv9h2yqqhkl9ogvb9we6byrutiw3x,D01N8wqX,2020-0188,2020-05-21,22:46:44,23:06:43,NA,incomplete,18,color,1,left,Purple_Plus_Dots_4.jpg,Purple_Star_Chess_1.jpg,Red_Plus_Stripes_3.jpg,left,596.2349999463186,true,NA,true
D01N8wqX,3o2y2uiudt7n7g4dfo9bupx2ocrfkv,3zv9h2yqqhkl9ogvb9we6byrutiw3x,D01N8wqX,2020-0188,2020-05-21,22:46:44,23:06:43,NA,incomplete,19,color,1,right,Blue_Circle_Chess_1.jpg,Purple_Circle_Dots_2.jpg,Blue_Triangle_Grid_3.jpg,right,650.2300000283867,true,NA,true
D01N8wqX,3o2y2uiudt7n7g4dfo9bupx2ocrfkv,3zv9h2yqqhkl9ogvb9we6byrutiw3x,D01N8wqX,2020-0188,2020-05-21,22:46:44,23:06:43,NA,incomplete,20,shape,1,right,Green_Plus_Stripes_3.jpg,Green_Star_Grid_1.jpg,Blue_Plus_Chess_2.jpg,right,1418.2199999922886,true,NA,true
D01N8wqX,3o2y2uiudt7n7g4dfo9bupx2ocrfkv,3zv9h2yqqhkl9ogvb9we6byrutiw3x,D01N8wqX,2020-0188,2020-05-21,22:46:44,23:06:43,NA,incomplete,21,shape,1,left,Purple_Plus_Dots_3.jpg,Green_Plus_Chess_4.jpg,Purple_Triangle_Stripes_1.jpg,left,720.4449999844655,true,NA,true
D01N8wqX,3o2y2uiudt7n7g4dfo9bupx2ocrfkv,3zv9h2yqqhkl9ogvb9we6byrutiw3x,D01N8wqX,2020-0188,2020-05-21,22:46:44,23:06:43,NA,incomplete,22,shape,1,left,Green_Star_Dots_1.jpg,Blue_Star_Stripes_4.jpg,Green_Circle_Grid_3.jpg,left,970.2400000533089,true,NA,true
D01N8wqX,3o2y2uiudt7n7g4dfo9bupx2ocrfkv,3zv9h2yqqhkl9ogvb9we6byrutiw3x,D01N8wqX,2020-0188,2020-05-21,22:46:44,23:06:43,NA,incomplete,23,shape,1,left,Purple_Plus_Stripes_2.jpg,Blue_Plus_Chess_4.jpg,Purple_Star_Dots_3.jpg,left,1068.3500000741333,true,NA,true
D01N8wqX,3o2y2uiudt7n7g4dfo9bupx2ocrfkv,3zv9h2yqqhkl9ogvb9we6byrutiw3x,D01N8wqX,2020-0188,2020-05-21,22:46:44,23:06:43,NA,incomplete,24,shape,1,right,Red_Triangle_Grid_4.jpg,Red_Circle_Chess_3.jpg,Blue_Triangle_Dots_2.jpg,right,717.3300000140443,true,NA,true
D01N8wqX,3o2y2uiudt7n7g4dfo9bupx2ocrfkv,3zv9h2yqqhkl9ogvb9we6byrutiw3x,D01N8wqX,2020-0188,2020-05-21,22:46:44,23:06:43,NA,incomplete,25,shape,1,left,Purple_Circle_Stripes_4.jpg,Red_Circle_Chess_2.jpg,Purple_Triangle_Grid_1.jpg,left,598.6600000178441,true,NA,true
D01N8wqX,3o2y2uiudt7n7g4dfo9bupx2ocrfkv,3zv9h2yqqhkl9ogvb9we6byrutiw3x,D01N8wqX,2020-0188,2020-05-21,22:46:44,23:06:43,NA,incomplete,26,shape,1,right,Blue_Circle_Dots_4.jpg,Blue_Triangle_Grid_3.jpg,Red_Circle_Chess_1.jpg,right,640.6049999641255,true,NA,true
D01N8wqX,3o2y2uiudt7n7g4dfo9bupx2ocrfkv,3zv9h2yqqhkl9ogvb9we6byrutiw3x,D01N8wqX,2020-0188,2020-05-21,22:46:44,23:06:43,NA,incomplete,27,shape,0,right,Green_Plus_Chess_3.jpg,Green_Triangle_Dots_4.jpg,Red_Plus_Stripes_2.jpg,right,746.9849999761209,true,NA,true
D01N8wqX,3o2y2uiudt7n7g4dfo9bupx2ocrfkv,3zv9h2yqqhkl9ogvb9we6byrutiw3x,D01N8wqX,2020-0188,2020-05-21,22:46:44,23:06:43,NA,incomplete,28,shape,1,left,Purple_Triangle_Grid_3.jpg,Green_Triangle_Stripes_2.jpg,Purple_Circle_Chess_4.jpg,left,472.86500001791865,true,NA,true
D01N8wqX,3o2y2uiudt7n7g4dfo9bupx2ocrfkv,3zv9h2yqqhkl9ogvb9we6byrutiw3x,D01N8wqX,2020-0188,2020-05-21,22:46:44,23:06:43,NA,incomplete,29,shape,0,left,Blue_Triangle_Grid_4.jpg,Red_Triangle_Dots_2.jpg,Blue_Star_Stripes_3.jpg,left,592.6599999656901,true,NA,true
D01N8wqX,3o2y2uiudt7n7g4dfo9bupx2ocrfkv,3zv9h2yqqhkl9ogvb9we6byrutiw3x,D01N8wqX,2020-0188,2020-05-21,22:46:44,23:06:43,NA,incomplete,30,shape,1,left,Green_Plus_Dots_2.jpg,Blue_Plus_Stripes_4.jpg,Green_Star_Grid_3.jpg,left,584.7450000001118,true,NA,true
D01N8wqX,3o2y2uiudt7n7g4dfo9bupx2ocrfkv,3zv9h2yqqhkl9ogvb9we6byrutiw3x,D01N8wqX,2020-0188,2020-05-21,22:46:44,23:06:43,NA,incomplete,31,shape,1,left,Blue_Star_Grid_1.jpg,Green_Star_Stripes_2.jpg,Blue_Circle_Chess_4.jpg,left,794.2950000287965,true,NA,true
D01N8wqX,3o2y2uiudt7n7g4dfo9bupx2ocrfkv,3zv9h2yqqhkl9ogvb9we6byrutiw3x,D01N8wqX,2020-0188,2020-05-21,22:46:44,23:06:43,NA,incomplete,32,shape,0,right,Green_Triangle_Grid_1.jpg,Green_Circle_Dots_4.jpg,Blue_Triangle_Chess_3.jpg,right,769.7249999037012,true,NA,true
D01N8wqX,3o2y2uiudt7n7g4dfo9bupx2ocrfkv,3zv9h2yqqhkl9ogvb9we6byrutiw3x,D01N8wqX,2020-0188,2020-05-21,22:46:44,23:06:43,NA,incomplete,33,shape,1,left,Purple_Star_Stripes_3.jpg,Green_Star_Grid_2.jpg,Purple_Circle_Chess_1.jpg,left,511.7899999022484,true,NA,true
D01N8wqX,3o2y2uiudt7n7g4dfo9bupx2ocrfkv,3zv9h2yqqhkl9ogvb9we6byrutiw3x,D01N8wqX,2020-0188,2020-05-21,22:46:44,23:06:43,NA,incomplete,34,shape,1,left,Blue_Plus_Grid_1.jpg,Green_Plus_Chess_2.jpg,Blue_Triangle_Stripes_4.jpg,left,535.0650000618771,true,NA,true
D01N8wqX,3o2y2uiudt7n7g4dfo9bupx2ocrfkv,3zv9h2yqqhkl9ogvb9we6byrutiw3x,D01N8wqX,2020-0188,2020-05-21,22:46:44,23:06:43,NA,incomplete,35,shape,1,right,Green_Plus_Stripes_3.jpg,Green_Circle_Dots_2.jpg,Purple_Plus_Chess_4.jpg,right,615.1349999709055,true,NA,true
D01N8wqX,3o2y2uiudt7n7g4dfo9bupx2ocrfkv,3zv9h2yqqhkl9ogvb9we6byrutiw3x,D01N8wqX,2020-0188,2020-05-21,22:46:44,23:06:43,NA,incomplete,36,shape,1,right,Purple_Circle_Dots_3.jpg,Purple_Plus_Stripes_1.jpg,Green_Circle_Chess_2.jpg,right,758.3950000116602,true,NA,true
D01N8wqX,3o2y2uiudt7n7g4dfo9bupx2ocrfkv,3zv9h2yqqhkl9ogvb9we6byrutiw3x,D01N8wqX,2020-0188,2020-05-21,22:46:44,23:06:43,NA,incomplete,37,shape,1,left,Blue_Circle_Stripes_1.jpg,Purple_Circle_Grid_3.jpg,Blue_Plus_Dots_4.jpg,left,695.8300000987947,true,NA,true
D01N8wqX,3o2y2uiudt7n7g4dfo9bupx2ocrfkv,3zv9h2yqqhkl9ogvb9we6byrutiw3x,D01N8wqX,2020-0188,2020-05-21,22:46:44,23:06:43,NA,incomplete,38,shape,1,left,Purple_Plus_Grid_1.jpg,Green_Plus_Stripes_3.jpg,Purple_Circle_Dots_2.jpg,left,823.3450000407174,true,NA,true
D01N8wqX,3o2y2uiudt7n7g4dfo9bupx2ocrfkv,3zv9h2yqqhkl9ogvb9we6byrutiw3x,D01N8wqX,2020-0188,2020-05-21,22:46:44,23:06:43,NA,incomplete,39,shape,1,left,Purple_Plus_Chess_4.jpg,Green_Plus_Stripes_2.jpg,Purple_Star_Dots_1.jpg,left,818.4399999445304,true,NA,true
D01N8wqX,3o2y2uiudt7n7g4dfo9bupx2ocrfkv,3zv9h2yqqhkl9ogvb9we6byrutiw3x,D01N8wqX,2020-0188,2020-05-21,22:46:44,23:06:43,NA,incomplete,0,color,1,right,Red_Star_Dots_3.jpg,Purple_Star_Stripes_4.jpg,Red_Triangle_Chess_2.jpg,right,1039.435000042431,true,low,false
D01N8wqX,3o2y2uiudt7n7g4dfo9bupx2ocrfkv,3zv9h2yqqhkl9ogvb9we6byrutiw3x,D01N8wqX,2020-0188,2020-05-21,22:46:44,23:06:43,NA,incomplete,1,color,1,left,Green_Star_Grid_3.jpg,Green_Plus_Dots_4.jpg,Blue_Star_Stripes_1.jpg,left,865.7200000016019,true,low,false
D01N8wqX,3o2y2uiudt7n7g4dfo9bupx2ocrfkv,3zv9h2yqqhkl9ogvb9we6byrutiw3x,D01N8wqX,2020-0188,2020-05-21,22:46:44,23:06:43,NA,incomplete,2,color,1,right,Red_Star_Stripes_4.jpg,Blue_Star_Chess_3.jpg,Red_Triangle_Dots_2.jpg,right,795.8050000015646,true,low,false
D01N8wqX,3o2y2uiudt7n7g4dfo9bupx2ocrfkv,3zv9h2yqqhkl9ogvb9we6byrutiw3x,D01N8wqX,2020-0188,2020-05-21,22:46:44,23:06:43,NA,incomplete,3,color,1,right,Red_Triangle_Grid_4.jpg,Blue_Triangle_Chess_3.jpg,Red_Star_Stripes_2.jpg,right,533.1099999602884,true,low,false
D01N8wqX,3o2y2uiudt7n7g4dfo9bupx2ocrfkv,3zv9h2yqqhkl9ogvb9we6byrutiw3x,D01N8wqX,2020-0188,2020-05-21,22:46:44,23:06:43,NA,incomplete,4,color,1,right,Blue_Star_Dots_3.jpg,Red_Star_Stripes_4.jpg,Blue_Plus_Grid_1.jpg,right,719.2550000036135,true,low,false
D01N8wqX,3o2y2uiudt7n7g4dfo9bupx2ocrfkv,3zv9h2yqqhkl9ogvb9we6byrutiw3x,D01N8wqX,2020-0188,2020-05-21,22:46:44,23:06:43,NA,incomplete,5,color,1,right,Red_Plus_Stripes_4.jpg,Blue_Plus_Dots_2.jpg,Red_Star_Grid_1.jpg,right,1242.9400000255555,true,low,false
D01N8wqX,3o2y2uiudt7n7g4dfo9bupx2ocrfkv,3zv9h2yqqhkl9ogvb9we6byrutiw3x,D01N8wqX,2020-0188,2020-05-21,22:46:44,23:06:43,NA,incomplete,6,color,1,right,Blue_Plus_Stripes_1.jpg,Red_Plus_Grid_4.jpg,Blue_Triangle_Dots_3.jpg,right,628.264999948442,true,low,false
D01N8wqX,3o2y2uiudt7n7g4dfo9bupx2ocrfkv,3zv9h2yqqhkl9ogvb9we6byrutiw3x,D01N8wqX,2020-0188,2020-05-21,22:46:44,23:06:43,NA,incomplete,7,color,0,right,Red_Circle_Chess_4.jpg,Green_Circle_Grid_1.jpg,Red_Plus_Stripes_3.jpg,right,528.3150000032037,true,low,false
D01N8wqX,3o2y2uiudt7n7g4dfo9bupx2ocrfkv,3zv9h2yqqhkl9ogvb9we6byrutiw3x,D01N8wqX,2020-0188,2020-05-21,22:46:44,23:06:43,NA,incomplete,8,color,1,right,Green_Star_Chess_2.jpg,Purple_Star_Dots_3.jpg,Green_Plus_Grid_4.jpg,right,581.3799999887124,true,low,false
D01N8wqX,3o2y2uiudt7n7g4dfo9bupx2ocrfkv,3zv9h2yqqhkl9ogvb9we6byrutiw3x,D01N8wqX,2020-0188,2020-05-21,22:46:44,23:06:43,NA,incomplete,9,color,1,right,Purple_Triangle_Chess_3.jpg,Red_Triangle_Stripes_2.jpg,Purple_Plus_Grid_1.jpg,right,774.0299999713898,true,low,false
D01N8wqX,3o2y2uiudt7n7g4dfo9bupx2ocrfkv,3zv9h2yqqhkl9ogvb9we6byrutiw3x,D01N8wqX,2020-0188,2020-05-21,22:46:44,23:06:43,NA,incomplete,10,color,1,left,Blue_Plus_Grid_4.jpg,Blue_Triangle_Dots_2.jpg,Purple_Plus_Stripes_1.jpg,left,543.0000000633299,true,low,false
D01N8wqX,3o2y2uiudt7n7g4dfo9bupx2ocrfkv,3zv9h2yqqhkl9ogvb9we6byrutiw3x,D01N8wqX,2020-0188,2020-05-21,22:46:44,23:06:43,NA,incomplete,11,color,1,right,Blue_Star_Chess_4.jpg,Purple_Star_Dots_3.jpg,Blue_Plus_Grid_2.jpg,right,567.6649999804795,true,low,false
D01N8wqX,3o2y2uiudt7n7g4dfo9bupx2ocrfkv,3zv9h2yqqhkl9ogvb9we6byrutiw3x,D01N8wqX,2020-0188,2020-05-21,22:46:44,23:06:43,NA,incomplete,12,color,1,left,Purple_Plus_Chess_3.jpg,Purple_Triangle_Stripes_1.jpg,Green_Plus_Grid_2.jpg,left,924.0250000730157,true,low,false
D01N8wqX,3o2y2uiudt7n7g4dfo9bupx2ocrfkv,3zv9h2yqqhkl9ogvb9we6byrutiw3x,D01N8wqX,2020-0188,2020-05-21,22:46:44,23:06:43,NA,incomplete,13,color,1,left,Red_Triangle_Chess_1.jpg,Red_Star_Dots_2.jpg,Blue_Triangle_Grid_3.jpg,right,680.1999999443069,false,low,false
D01N8wqX,3o2y2uiudt7n7g4dfo9bupx2ocrfkv,3zv9h2yqqhkl9ogvb9we6byrutiw3x,D01N8wqX,2020-0188,2020-05-21,22:46:44,23:06:43,NA,incomplete,14,color,1,right,Purple_Plus_Chess_2.jpg,Red_Plus_Dots_3.jpg,Purple_Star_Grid_1.jpg,right,557.6799999689683,true,low,false
D01N8wqX,3o2y2uiudt7n7g4dfo9bupx2ocrfkv,3zv9h2yqqhkl9ogvb9we6byrutiw3x,D01N8wqX,2020-0188,2020-05-21,22:46:44,23:06:43,NA,incomplete,15,color,1,left,Purple_Circle_Chess_3.jpg,Purple_Plus_Dots_1.jpg,Green_Circle_Grid_4.jpg,left,658.8100000517443,true,low,false
D01N8wqX,3o2y2uiudt7n7g4dfo9bupx2ocrfkv,3zv9h2yqqhkl9ogvb9we6byrutiw3x,D01N8wqX,2020-0188,2020-05-21,22:46:44,23:06:43,NA,incomplete,16,color,1,left,Purple_Star_Chess_2.jpg,Purple_Triangle_Dots_1.jpg,Blue_Star_Grid_4.jpg,left,831.3699999125674,true,low,false
D01N8wqX,3o2y2uiudt7n7g4dfo9bupx2ocrfkv,3zv9h2yqqhkl9ogvb9we6byrutiw3x,D01N8wqX,2020-0188,2020-05-21,22:46:44,23:06:43,NA,incomplete,17,color,0,left,Purple_Circle_Chess_1.jpg,Purple_Triangle_Grid_4.jpg,Blue_Circle_Dots_3.jpg,left,572.190000093542,true,low,false
D01N8wqX,3o2y2uiudt7n7g4dfo9bupx2ocrfkv,3zv9h2yqqhkl9ogvb9we6byrutiw3x,D01N8wqX,2020-0188,2020-05-21,22:46:44,23:06:43,NA,incomplete,18,color,1,left,Blue_Plus_Stripes_4.jpg,Blue_Circle_Grid_2.jpg,Purple_Plus_Chess_3.jpg,left,947.3650000290945,true,low,false
D01N8wqX,3o2y2uiudt7n7g4dfo9bupx2ocrfkv,3zv9h2yqqhkl9ogvb9we6byrutiw3x,D01N8wqX,2020-0188,2020-05-21,22:46:44,23:06:43,NA,incomplete,19,color,1,left,Green_Star_Grid_2.jpg,Green_Plus_Dots_3.jpg,Red_Star_Chess_1.jpg,left,528.8299999665469,true,low,false
D01N8wqX,3o2y2uiudt7n7g4dfo9bupx2ocrfkv,3zv9h2yqqhkl9ogvb9we6byrutiw3x,D01N8wqX,2020-0188,2020-05-21,22:46:44,23:06:43,NA,incomplete,20,color,1,left,Green_Star_Stripes_4.jpg,Green_Plus_Dots_2.jpg,Red_Star_Chess_1.jpg,left,523.8349999999627,true,low,false
D01N8wqX,3o2y2uiudt7n7g4dfo9bupx2ocrfkv,3zv9h2yqqhkl9ogvb9we6byrutiw3x,D01N8wqX,2020-0188,2020-05-21,22:46:44,23:06:43,NA,incomplete,21,color,1,left,Purple_Triangle_Stripes_2.jpg,Purple_Star_Grid_3.jpg,Red_Triangle_Dots_1.jpg,left,528.580000041984,true,low,false
D01N8wqX,3o2y2uiudt7n7g4dfo9bupx2ocrfkv,3zv9h2yqqhkl9ogvb9we6byrutiw3x,D01N8wqX,2020-0188,2020-05-21,22:46:44,23:06:43,NA,incomplete,22,color,1,right,Green_Plus_Stripes_1.jpg,Purple_Plus_Dots_2.jpg,Green_Triangle_Chess_3.jpg,right,524.2899999720976,true,low,false
D01N8wqX,3o2y2uiudt7n7g4dfo9bupx2ocrfkv,3zv9h2yqqhkl9ogvb9we6byrutiw3x,D01N8wqX,2020-0188,2020-05-21,22:46:44,23:06:43,NA,incomplete,23,color,1,right,Green_Plus_Dots_1.jpg,Red_Plus_Grid_4.jpg,Green_Star_Stripes_3.jpg,right,573.0050000129268,true,low,false
D01N8wqX,3o2y2uiudt7n7g4dfo9bupx2ocrfkv,3zv9h2yqqhkl9ogvb9we6byrutiw3x,D01N8wqX,2020-0188,2020-05-21,22:46:44,23:06:43,NA,incomplete,24,color,1,right,Red_Star_Dots_3.jpg,Purple_Star_Chess_2.jpg,Red_Circle_Grid_4.jpg,right,594.7099999757484,true,low,false
D01N8wqX,3o2y2uiudt7n7g4dfo9bupx2ocrfkv,3zv9h2yqqhkl9ogvb9we6byrutiw3x,D01N8wqX,2020-0188,2020-05-21,22:46:44,23:06:43,NA,incomplete,25,color,0,right,Blue_Plus_Chess_1.jpg,Green_Plus_Grid_2.jpg,Blue_Star_Dots_3.jpg,right,689.5399999339134,true,low,false
D01N8wqX,3o2y2uiudt7n7g4dfo9bupx2ocrfkv,3zv9h2yqqhkl9ogvb9we6byrutiw3x,D01N8wqX,2020-0188,2020-05-21,22:46:44,23:06:43,NA,incomplete,26,color,1,right,Red_Star_Grid_2.jpg,Green_Star_Chess_3.jpg,Red_Circle_Dots_4.jpg,right,665.3299999888986,true,low,false
D01N8wqX,3o2y2uiudt7n7g4dfo9bupx2ocrfkv,3zv9h2yqqhkl9ogvb9we6byrutiw3x,D01N8wqX,2020-0188,2020-05-21,22:46:44,23:06:43,NA,incomplete,27,color,1,right,Green_Circle_Stripes_4.jpg,Purple_Circle_Chess_1.jpg,Green_Plus_Dots_3.jpg,right,481.53999994974583,true,low,false
D01N8wqX,3o2y2uiudt7n7g4dfo9bupx2ocrfkv,3zv9h2yqqhkl9ogvb9we6byrutiw3x,D01N8wqX,2020-0188,2020-05-21,22:46:44,23:06:43,NA,incomplete,28,color,1,right,Red_Plus_Stripes_3.jpg,Purple_Plus_Dots_4.jpg,Red_Star_Grid_1.jpg,right,550.6749999476597,true,low,false
D01N8wqX,3o2y2uiudt7n7g4dfo9bupx2ocrfkv,3zv9h2yqqhkl9ogvb9we6byrutiw3x,D01N8wqX,2020-0188,2020-05-21,22:46:44,23:06:43,NA,incomplete,29,color,1,right,Purple_Star_Stripes_3.jpg,Blue_Star_Dots_2.jpg,Purple_Plus_Chess_1.jpg,right,388.1200000178069,true,low,false
D01N8wqX,3o2y2uiudt7n7g4dfo9bupx2ocrfkv,3zv9h2yqqhkl9ogvb9we6byrutiw3x,D01N8wqX,2020-0188,2020-05-21,22:46:44,23:06:43,NA,incomplete,30,shape,1,right,Purple_Plus_Grid_3.jpg,Purple_Circle_Stripes_2.jpg,Green_Plus_Dots_4.jpg,left,510.47999993897974,false,low,false
D01N8wqX,3o2y2uiudt7n7g4dfo9bupx2ocrfkv,3zv9h2yqqhkl9ogvb9we6byrutiw3x,D01N8wqX,2020-0188,2020-05-21,22:46:44,23:06:43,NA,incomplete,31,shape,1,right,Red_Plus_Grid_2.jpg,Red_Triangle_Stripes_3.jpg,Green_Plus_Dots_4.jpg,left,527.1499999798834,false,low,false
D01N8wqX,3o2y2uiudt7n7g4dfo9bupx2ocrfkv,3zv9h2yqqhkl9ogvb9we6byrutiw3x,D01N8wqX,2020-0188,2020-05-21,22:46:44,23:06:43,NA,incomplete,32,shape,1,left,Purple_Star_Dots_1.jpg,Blue_Star_Stripes_3.jpg,Purple_Plus_Chess_2.jpg,right,614.2600000603124,false,low,false
D01N8wqX,3o2y2uiudt7n7g4dfo9bupx2ocrfkv,3zv9h2yqqhkl9ogvb9we6byrutiw3x,D01N8wqX,2020-0188,2020-05-21,22:46:44,23:06:43,NA,incomplete,33,shape,1,left,Blue_Triangle_Stripes_4.jpg,Red_Triangle_Grid_3.jpg,Blue_Circle_Chess_2.jpg,right,511.91000000108033,false,low,false
D01N8wqX,3o2y2uiudt7n7g4dfo9bupx2ocrfkv,3zv9h2yqqhkl9ogvb9we6byrutiw3x,D01N8wqX,2020-0188,2020-05-21,22:46:44,23:06:43,NA,incomplete,34,shape,1,right,Blue_Circle_Dots_3.jpg,Blue_Plus_Chess_1.jpg,Green_Circle_Grid_4.jpg,left,755.9199999086559,false,low,false
D01N8wqX,3o2y2uiudt7n7g4dfo9bupx2ocrfkv,3zv9h2yqqhkl9ogvb9we6byrutiw3x,D01N8wqX,2020-0188,2020-05-21,22:46:44,23:06:43,NA,incomplete,35,shape,1,right,Green_Circle_Chess_3.jpg,Green_Star_Dots_2.jpg,Red_Circle_Stripes_1.jpg,right,716.565000009723,true,low,false
D01N8wqX,3o2y2uiudt7n7g4dfo9bupx2ocrfkv,3zv9h2yqqhkl9ogvb9we6byrutiw3x,D01N8wqX,2020-0188,2020-05-21,22:46:44,23:06:43,NA,incomplete,36,shape,0,left,Green_Triangle_Chess_2.jpg,Red_Triangle_Dots_1.jpg,Green_Star_Stripes_4.jpg,left,847.1050000516698,true,low,false
D01N8wqX,3o2y2uiudt7n7g4dfo9bupx2ocrfkv,3zv9h2yqqhkl9ogvb9we6byrutiw3x,D01N8wqX,2020-0188,2020-05-21,22:46:44,23:06:43,NA,incomplete,37,shape,0,left,Red_Triangle_Grid_3.jpg,Green_Triangle_Dots_2.jpg,Red_Circle_Stripes_4.jpg,left,1322.9099999880418,true,low,false
D01N8wqX,3o2y2uiudt7n7g4dfo9bupx2ocrfkv,3zv9h2yqqhkl9ogvb9we6byrutiw3x,D01N8wqX,2020-0188,2020-05-21,22:46:44,23:06:43,NA,incomplete,38,shape,1,right,Green_Star_Stripes_4.jpg,Green_Circle_Dots_2.jpg,Purple_Star_Chess_3.jpg,right,1219.2100000102073,true,low,false
D01N8wqX,3o2y2uiudt7n7g4dfo9bupx2ocrfkv,3zv9h2yqqhkl9ogvb9we6byrutiw3x,D01N8wqX,2020-0188,2020-05-21,22:46:44,23:06:43,NA,incomplete,39,shape,1,left,Red_Circle_Dots_4.jpg,Purple_Circle_Stripes_3.jpg,Red_Plus_Grid_2.jpg,left,724.4550000177696,true,low,false
D01N8wqX,3o2y2uiudt7n7g4dfo9bupx2ocrfkv,3zv9h2yqqhkl9ogvb9we6byrutiw3x,D01N8wqX,2020-0188,2020-05-21,22:46:44,23:06:43,NA,incomplete,40,shape,1,right,Purple_Triangle_Chess_1.jpg,Purple_Star_Stripes_2.jpg,Green_Triangle_Grid_3.jpg,right,800.1099999528378,true,low,false
D01N8wqX,3o2y2uiudt7n7g4dfo9bupx2ocrfkv,3zv9h2yqqhkl9ogvb9we6byrutiw3x,D01N8wqX,2020-0188,2020-05-21,22:46:44,23:06:43,NA,incomplete,41,shape,1,right,Green_Triangle_Chess_1.jpg,Green_Circle_Stripes_3.jpg,Blue_Triangle_Dots_2.jpg,right,1178.524999995716,true,low,false
D01N8wqX,3o2y2uiudt7n7g4dfo9bupx2ocrfkv,3zv9h2yqqhkl9ogvb9we6byrutiw3x,D01N8wqX,2020-0188,2020-05-21,22:46:44,23:06:43,NA,incomplete,42,shape,1,right,Red_Triangle_Dots_3.jpg,Red_Circle_Grid_2.jpg,Blue_Triangle_Stripes_4.jpg,right,826.6150000272319,true,low,false
D01N8wqX,3o2y2uiudt7n7g4dfo9bupx2ocrfkv,3zv9h2yqqhkl9ogvb9we6byrutiw3x,D01N8wqX,2020-0188,2020-05-21,22:46:44,23:06:43,NA,incomplete,43,shape,1,right,Purple_Plus_Stripes_4.jpg,Purple_Star_Chess_2.jpg,Blue_Plus_Dots_3.jpg,right,961.6049999604002,true,low,false
D01N8wqX,3o2y2uiudt7n7g4dfo9bupx2ocrfkv,3zv9h2yqqhkl9ogvb9we6byrutiw3x,D01N8wqX,2020-0188,2020-05-21,22:46:44,23:06:43,NA,incomplete,44,shape,1,right,Purple_Plus_Grid_1.jpg,Purple_Triangle_Dots_3.jpg,Blue_Plus_Stripes_4.jpg,right,632.4899999890476,true,low,false
D01N8wqX,3o2y2uiudt7n7g4dfo9bupx2ocrfkv,3zv9h2yqqhkl9ogvb9we6byrutiw3x,D01N8wqX,2020-0188,2020-05-21,22:46:44,23:06:43,NA,incomplete,45,shape,0,right,Purple_Triangle_Dots_3.jpg,Purple_Plus_Stripes_4.jpg,Blue_Triangle_Grid_2.jpg,right,622.5600000470877,true,low,false
D01N8wqX,3o2y2uiudt7n7g4dfo9bupx2ocrfkv,3zv9h2yqqhkl9ogvb9we6byrutiw3x,D01N8wqX,2020-0188,2020-05-21,22:46:44,23:06:43,NA,incomplete,46,shape,1,right,Green_Plus_Grid_4.jpg,Green_Circle_Dots_3.jpg,Blue_Plus_Stripes_2.jpg,right,740.3299999423325,true,low,false
D01N8wqX,3o2y2uiudt7n7g4dfo9bupx2ocrfkv,3zv9h2yqqhkl9ogvb9we6byrutiw3x,D01N8wqX,2020-0188,2020-05-21,22:46:44,23:06:43,NA,incomplete,47,shape,1,left,Red_Plus_Stripes_3.jpg,Green_Plus_Chess_2.jpg,Red_Star_Grid_1.jpg,left,721.055000089109,true,low,false
D01N8wqX,3o2y2uiudt7n7g4dfo9bupx2ocrfkv,3zv9h2yqqhkl9ogvb9we6byrutiw3x,D01N8wqX,2020-0188,2020-05-21,22:46:44,23:06:43,NA,incomplete,48,shape,1,right,Purple_Plus_Grid_4.jpg,Purple_Triangle_Dots_3.jpg,Blue_Plus_Stripes_1.jpg,right,673.6500000115484,true,low,false
D01N8wqX,3o2y2uiudt7n7g4dfo9bupx2ocrfkv,3zv9h2yqqhkl9ogvb9we6byrutiw3x,D01N8wqX,2020-0188,2020-05-21,22:46:44,23:06:43,NA,incomplete,49,shape,0,left,Green_Plus_Chess_3.jpg,Red_Plus_Grid_1.jpg,Green_Triangle_Dots_2.jpg,left,571.4499999303371,true,low,false
D01N8wqX,3o2y2uiudt7n7g4dfo9bupx2ocrfkv,3zv9h2yqqhkl9ogvb9we6byrutiw3x,D01N8wqX,2020-0188,2020-05-21,22:46:44,23:06:43,NA,incomplete,50,shape,1,left,Red_Circle_Chess_3.jpg,Green_Circle_Dots_2.jpg,Red_Triangle_Stripes_4.jpg,left,569.7650000220165,true,low,false
D01N8wqX,3o2y2uiudt7n7g4dfo9bupx2ocrfkv,3zv9h2yqqhkl9ogvb9we6byrutiw3x,D01N8wqX,2020-0188,2020-05-21,22:46:44,23:06:43,NA,incomplete,51,shape,0,left,Blue_Triangle_Grid_3.jpg,Green_Triangle_Chess_4.jpg,Blue_Plus_Stripes_1.jpg,right,618.4900000225753,false,low,false
D01N8wqX,3o2y2uiudt7n7g4dfo9bupx2ocrfkv,3zv9h2yqqhkl9ogvb9we6byrutiw3x,D01N8wqX,2020-0188,2020-05-21,22:46:44,23:06:43,NA,incomplete,52,shape,1,right,Green_Triangle_Grid_2.jpg,Green_Star_Chess_1.jpg,Purple_Triangle_Dots_4.jpg,right,1033.350000041537,true,low,false
D01N8wqX,3o2y2uiudt7n7g4dfo9bupx2ocrfkv,3zv9h2yqqhkl9ogvb9we6byrutiw3x,D01N8wqX,2020-0188,2020-05-21,22:46:44,23:06:43,NA,incomplete,53,shape,1,left,Green_Circle_Grid_1.jpg,Purple_Circle_Stripes_2.jpg,Green_Plus_Dots_3.jpg,left,608.7599999736995,true,low,false
D01N8wqX,3o2y2uiudt7n7g4dfo9bupx2ocrfkv,3zv9h2yqqhkl9ogvb9we6byrutiw3x,D01N8wqX,2020-0188,2020-05-21,22:46:44,23:06:43,NA,incomplete,54,shape,0,right,Blue_Circle_Grid_4.jpg,Blue_Triangle_Stripes_2.jpg,Green_Circle_Dots_3.jpg,right,832.7000000281259,true,low,false
D01N8wqX,3o2y2uiudt7n7g4dfo9bupx2ocrfkv,3zv9h2yqqhkl9ogvb9we6byrutiw3x,D01N8wqX,2020-0188,2020-05-21,22:46:44,23:06:43,NA,incomplete,55,shape,1,left,Green_Circle_Stripes_4.jpg,Blue_Circle_Grid_3.jpg,Green_Plus_Chess_1.jpg,left,704.2499999515712,true,low,false
D01N8wqX,3o2y2uiudt7n7g4dfo9bupx2ocrfkv,3zv9h2yqqhkl9ogvb9we6byrutiw3x,D01N8wqX,2020-0188,2020-05-21,22:46:44,23:06:43,NA,incomplete,56,shape,1,right,Blue_Triangle_Chess_2.jpg,Blue_Star_Dots_3.jpg,Purple_Triangle_Grid_1.jpg,right,590.9899999387562,true,low,false
D01N8wqX,3o2y2uiudt7n7g4dfo9bupx2ocrfkv,3zv9h2yqqhkl9ogvb9we6byrutiw3x,D01N8wqX,2020-0188,2020-05-21,22:46:44,23:06:43,NA,incomplete,57,shape,0,right,Green_Plus_Stripes_3.jpg,Green_Circle_Chess_1.jpg,Red_Plus_Dots_2.jpg,right,794.1049999790266,true,low,false
D01N8wqX,3o2y2uiudt7n7g4dfo9bupx2ocrfkv,3zv9h2yqqhkl9ogvb9we6byrutiw3x,D01N8wqX,2020-0188,2020-05-21,22:46:44,23:06:43,NA,incomplete,58,shape,1,left,Red_Star_Chess_1.jpg,Blue_Star_Grid_4.jpg,Red_Plus_Dots_2.jpg,left,932.8299999469891,true,low,false
D01N8wqX,3o2y2uiudt7n7g4dfo9bupx2ocrfkv,3zv9h2yqqhkl9ogvb9we6byrutiw3x,D01N8wqX,2020-0188,2020-05-21,22:46:44,23:06:43,NA,incomplete,59,shape,0,right,Purple_Triangle_Grid_4.jpg,Purple_Star_Chess_2.jpg,Blue_Triangle_Dots_1.jpg,right,1313.5500000789762,true,low,false
D01N8wqX,3o2y2uiudt7n7g4dfo9bupx2ocrfkv,3zv9h2yqqhkl9ogvb9we6byrutiw3x,D01N8wqX,2020-0188,2020-05-21,22:46:44,23:06:43,NA,incomplete,60,color,1,right,Green_Star_Stripes_4.jpg,Blue_Star_Dots_3.jpg,Green_Triangle_Grid_1.jpg,left,896.5399999869987,false,low,false
D01N8wqX,3o2y2uiudt7n7g4dfo9bupx2ocrfkv,3zv9h2yqqhkl9ogvb9we6byrutiw3x,D01N8wqX,2020-0188,2020-05-21,22:46:44,23:06:43,NA,incomplete,61,color,1,right,Blue_Star_Stripes_2.jpg,Green_Star_Chess_1.jpg,Blue_Plus_Dots_3.jpg,left,810.6250000419095,false,low,false
D01N8wqX,3o2y2uiudt7n7g4dfo9bupx2ocrfkv,3zv9h2yqqhkl9ogvb9we6byrutiw3x,D01N8wqX,2020-0188,2020-05-21,22:46:44,23:06:43,NA,incomplete,62,color,1,left,Blue_Star_Chess_2.jpg,Blue_Circle_Grid_1.jpg,Red_Star_Stripes_3.jpg,left,787.819999968633,true,low,false
D01N8wqX,3o2y2uiudt7n7g4dfo9bupx2ocrfkv,3zv9h2yqqhkl9ogvb9we6byrutiw3x,D01N8wqX,2020-0188,2020-05-21,22:46:44,23:06:43,NA,incomplete,63,color,1,right,Purple_Star_Dots_1.jpg,Green_Star_Grid_2.jpg,Purple_Circle_Chess_3.jpg,right,513.5149999987334,true,low,false
D01N8wqX,3o2y2uiudt7n7g4dfo9bupx2ocrfkv,3zv9h2yqqhkl9ogvb9we6byrutiw3x,D01N8wqX,2020-0188,2020-05-21,22:46:44,23:06:43,NA,incomplete,64,color,1,left,Purple_Triangle_Chess_4.jpg,Purple_Plus_Dots_3.jpg,Blue_Triangle_Grid_1.jpg,left,477.0900000585243,true,low,false
D01N8wqX,3o2y2uiudt7n7g4dfo9bupx2ocrfkv,3zv9h2yqqhkl9ogvb9we6byrutiw3x,D01N8wqX,2020-0188,2020-05-21,22:46:44,23:06:43,NA,incomplete,65,color,1,left,Blue_Plus_Stripes_1.jpg,Blue_Star_Grid_4.jpg,Purple_Plus_Chess_2.jpg,left,1040.1549999369308,true,low,false
D01N8wqX,3o2y2uiudt7n7g4dfo9bupx2ocrfkv,3zv9h2yqqhkl9ogvb9we6byrutiw3x,D01N8wqX,2020-0188,2020-05-21,22:46:44,23:06:43,NA,incomplete,66,color,1,right,Red_Star_Stripes_1.jpg,Blue_Star_Dots_2.jpg,Red_Circle_Grid_4.jpg,right,919.095000019297,true,low,false
D01N8wqX,3o2y2uiudt7n7g4dfo9bupx2ocrfkv,3zv9h2yqqhkl9ogvb9we6byrutiw3x,D01N8wqX,2020-0188,2020-05-21,22:46:44,23:06:43,NA,incomplete,67,color,0,right,Purple_Circle_Dots_2.jpg,Red_Circle_Stripes_4.jpg,Purple_Star_Grid_1.jpg,right,783.3600000012666,true,low,false
D01N8wqX,3o2y2uiudt7n7g4dfo9bupx2ocrfkv,3zv9h2yqqhkl9ogvb9we6byrutiw3x,D01N8wqX,2020-0188,2020-05-21,22:46:44,23:06:43,NA,incomplete,68,color,0,right,Purple_Circle_Grid_1.jpg,Red_Circle_Stripes_2.jpg,Purple_Plus_Dots_4.jpg,right,503.78999998793006,true,low,false
D01N8wqX,3o2y2uiudt7n7g4dfo9bupx2ocrfkv,3zv9h2yqqhkl9ogvb9we6byrutiw3x,D01N8wqX,2020-0188,2020-05-21,22:46:44,23:06:43,NA,incomplete,69,color,1,right,Red_Circle_Grid_3.jpg,Blue_Circle_Dots_1.jpg,Red_Plus_Stripes_2.jpg,right,598.4600000083447,true,low,false
D01N8wqX,3o2y2uiudt7n7g4dfo9bupx2ocrfkv,3zv9h2yqqhkl9ogvb9we6byrutiw3x,D01N8wqX,2020-0188,2020-05-21,22:46:44,23:06:43,NA,incomplete,70,color,1,right,Red_Star_Dots_3.jpg,Purple_Star_Stripes_2.jpg,Red_Circle_Grid_1.jpg,right,482.3900000192225,true,low,false
D01N8wqX,3o2y2uiudt7n7g4dfo9bupx2ocrfkv,3zv9h2yqqhkl9ogvb9we6byrutiw3x,D01N8wqX,2020-0188,2020-05-21,22:46:44,23:06:43,NA,incomplete,71,color,1,left,Purple_Plus_Chess_1.jpg,Purple_Star_Stripes_3.jpg,Blue_Plus_Dots_2.jpg,left,609.0499999700114,true,low,false
D01N8wqX,3o2y2uiudt7n7g4dfo9bupx2ocrfkv,3zv9h2yqqhkl9ogvb9we6byrutiw3x,D01N8wqX,2020-0188,2020-05-21,22:46:44,23:06:43,NA,incomplete,72,color,1,left,Blue_Triangle_Chess_1.jpg,Blue_Circle_Stripes_4.jpg,Purple_Triangle_Dots_2.jpg,left,658.2150000613183,true,low,false
D01N8wqX,3o2y2uiudt7n7g4dfo9bupx2ocrfkv,3zv9h2yqqhkl9ogvb9we6byrutiw3x,D01N8wqX,2020-0188,2020-05-21,22:46:44,23:06:43,NA,incomplete,73,color,1,left,Red_Plus_Grid_4.jpg,Red_Circle_Stripes_1.jpg,Blue_Plus_Dots_2.jpg,left,586.3600000739098,true,low,false
D01N8wqX,3o2y2uiudt7n7g4dfo9bupx2ocrfkv,3zv9h2yqqhkl9ogvb9we6byrutiw3x,D01N8wqX,2020-0188,2020-05-21,22:46:44,23:06:43,NA,incomplete,74,color,1,right,Blue_Circle_Dots_3.jpg,Red_Circle_Chess_4.jpg,Blue_Triangle_Grid_1.jpg,right,907.7850000467151,true,low,false
D01N8wqX,3o2y2uiudt7n7g4dfo9bupx2ocrfkv,3zv9h2yqqhkl9ogvb9we6byrutiw3x,D01N8wqX,2020-0188,2020-05-21,22:46:44,23:06:43,NA,incomplete,75,color,1,left,Blue_Star_Stripes_2.jpg,Blue_Plus_Dots_3.jpg,Red_Star_Chess_4.jpg,left,537.4349999474362,true,low,false
D01N8wqX,3o2y2uiudt7n7g4dfo9bupx2ocrfkv,3zv9h2yqqhkl9ogvb9we6byrutiw3x,D01N8wqX,2020-0188,2020-05-21,22:46:44,23:06:43,NA,incomplete,76,color,0,right,Purple_Plus_Dots_2.jpg,Red_Plus_Stripes_1.jpg,Purple_Circle_Grid_4.jpg,right,491.9099999824539,true,low,false
D01N8wqX,3o2y2uiudt7n7g4dfo9bupx2ocrfkv,3zv9h2yqqhkl9ogvb9we6byrutiw3x,D01N8wqX,2020-0188,2020-05-21,22:46:44,23:06:43,NA,incomplete,77,color,0,left,Green_Plus_Grid_2.jpg,Green_Triangle_Dots_4.jpg,Red_Plus_Chess_3.jpg,left,639.0949999913573,true,low,false
D01N8wqX,3o2y2uiudt7n7g4dfo9bupx2ocrfkv,3zv9h2yqqhkl9ogvb9we6byrutiw3x,D01N8wqX,2020-0188,2020-05-21,22:46:44,23:06:43,NA,incomplete,78,color,1,left,Red_Circle_Grid_1.jpg,Red_Triangle_Stripes_2.jpg,Blue_Circle_Chess_4.jpg,left,572.8599999565631,true,low,false
D01N8wqX,3o2y2uiudt7n7g4dfo9bupx2ocrfkv,3zv9h2yqqhkl9ogvb9we6byrutiw3x,D01N8wqX,2020-0188,2020-05-21,22:46:44,23:06:43,NA,incomplete,79,color,1,right,Purple_Plus_Dots_3.jpg,Green_Plus_Stripes_4.jpg,Purple_Star_Grid_2.jpg,right,539.394999970682,true,low,false
D01N8wqX,3o2y2uiudt7n7g4dfo9bupx2ocrfkv,3zv9h2yqqhkl9ogvb9we6byrutiw3x,D01N8wqX,2020-0188,2020-05-21,22:46:44,23:06:43,NA,incomplete,80,color,1,right,Red_Plus_Grid_2.jpg,Purple_Plus_Dots_3.jpg,Red_Triangle_Chess_1.jpg,right,614.8850000463426,true,low,false
D01N8wqX,3o2y2uiudt7n7g4dfo9bupx2ocrfkv,3zv9h2yqqhkl9ogvb9we6byrutiw3x,D01N8wqX,2020-0188,2020-05-21,22:46:44,23:06:43,NA,incomplete,81,color,0,left,Blue_Circle_Chess_3.jpg,Blue_Triangle_Grid_1.jpg,Green_Circle_Stripes_4.jpg,left,835.4850000469014,true,low,false
D01N8wqX,3o2y2uiudt7n7g4dfo9bupx2ocrfkv,3zv9h2yqqhkl9ogvb9we6byrutiw3x,D01N8wqX,2020-0188,2020-05-21,22:46:44,23:06:43,NA,incomplete,82,color,1,right,Purple_Star_Stripes_3.jpg,Red_Star_Grid_1.jpg,Purple_Circle_Chess_4.jpg,right,462.5149999046698,true,low,false
D01N8wqX,3o2y2uiudt7n7g4dfo9bupx2ocrfkv,3zv9h2yqqhkl9ogvb9we6byrutiw3x,D01N8wqX,2020-0188,2020-05-21,22:46:44,23:06:43,NA,incomplete,83,color,1,left,Green_Star_Stripes_3.jpg,Green_Triangle_Dots_1.jpg,Red_Star_Grid_2.jpg,left,550.58000003919,true,low,false
D01N8wqX,3o2y2uiudt7n7g4dfo9bupx2ocrfkv,3zv9h2yqqhkl9ogvb9we6byrutiw3x,D01N8wqX,2020-0188,2020-05-21,22:46:44,23:06:43,NA,incomplete,84,color,0,left,Purple_Circle_Stripes_4.jpg,Purple_Plus_Dots_2.jpg,Green_Circle_Chess_3.jpg,left,657.7149999793619,true,low,false
D01N8wqX,3o2y2uiudt7n7g4dfo9bupx2ocrfkv,3zv9h2yqqhkl9ogvb9we6byrutiw3x,D01N8wqX,2020-0188,2020-05-21,22:46:44,23:06:43,NA,incomplete,85,color,1,right,Blue_Plus_Stripes_3.jpg,Green_Plus_Grid_2.jpg,Blue_Star_Dots_4.jpg,right,423.3150000218302,true,low,false
D01N8wqX,3o2y2uiudt7n7g4dfo9bupx2ocrfkv,3zv9h2yqqhkl9ogvb9we6byrutiw3x,D01N8wqX,2020-0188,2020-05-21,22:46:44,23:06:43,NA,incomplete,86,color,0,left,Red_Triangle_Chess_2.jpg,Red_Plus_Dots_4.jpg,Blue_Triangle_Stripes_3.jpg,left,559.099999954924,true,low,false
D01N8wqX,3o2y2uiudt7n7g4dfo9bupx2ocrfkv,3zv9h2yqqhkl9ogvb9we6byrutiw3x,D01N8wqX,2020-0188,2020-05-21,22:46:44,23:06:43,NA,incomplete,87,color,1,right,Purple_Star_Stripes_2.jpg,Green_Star_Grid_1.jpg,Purple_Circle_Dots_4.jpg,right,581.5599999623373,true,low,false
D01N8wqX,3o2y2uiudt7n7g4dfo9bupx2ocrfkv,3zv9h2yqqhkl9ogvb9we6byrutiw3x,D01N8wqX,2020-0188,2020-05-21,22:46:44,23:06:43,NA,incomplete,88,color,0,right,Green_Circle_Grid_3.jpg,Purple_Circle_Chess_1.jpg,Green_Star_Dots_2.jpg,right,589.2599999206141,true,low,false
D01N8wqX,3o2y2uiudt7n7g4dfo9bupx2ocrfkv,3zv9h2yqqhkl9ogvb9we6byrutiw3x,D01N8wqX,2020-0188,2020-05-21,22:46:44,23:06:43,NA,incomplete,89,color,0,left,Green_Circle_Grid_2.jpg,Green_Triangle_Stripes_1.jpg,Blue_Circle_Chess_3.jpg,left,455.5450000334531,true,low,false
D01N8wqX,3o2y2uiudt7n7g4dfo9bupx2ocrfkv,3zv9h2yqqhkl9ogvb9we6byrutiw3x,D01N8wqX,2020-0188,2020-05-21,22:46:44,23:06:43,NA,incomplete,90,shape,0,left,Blue_Triangle_Dots_4.jpg,Green_Triangle_Chess_1.jpg,Blue_Star_Stripes_3.jpg,right,554.5250000432134,false,low,false
D01N8wqX,3o2y2uiudt7n7g4dfo9bupx2ocrfkv,3zv9h2yqqhkl9ogvb9we6byrutiw3x,D01N8wqX,2020-0188,2020-05-21,22:46:44,23:06:43,NA,incomplete,91,shape,1,left,Red_Triangle_Chess_1.jpg,Purple_Triangle_Grid_3.jpg,Red_Plus_Stripes_2.jpg,right,767.9599999682978,false,low,false
D01N8wqX,3o2y2uiudt7n7g4dfo9bupx2ocrfkv,3zv9h2yqqhkl9ogvb9we6byrutiw3x,D01N8wqX,2020-0188,2020-05-21,22:46:44,23:06:43,NA,incomplete,92,shape,1,left,Blue_Triangle_Chess_4.jpg,Green_Triangle_Grid_3.jpg,Blue_Plus_Dots_2.jpg,right,490.32500002067536,false,low,false
D01N8wqX,3o2y2uiudt7n7g4dfo9bupx2ocrfkv,3zv9h2yqqhkl9ogvb9we6byrutiw3x,D01N8wqX,2020-0188,2020-05-21,22:46:44,23:06:43,NA,incomplete,93,shape,1,left,Red_Triangle_Dots_3.jpg,Purple_Triangle_Chess_4.jpg,Red_Plus_Stripes_1.jpg,right,431.83500005397946,false,low,false
D01N8wqX,3o2y2uiudt7n7g4dfo9bupx2ocrfkv,3zv9h2yqqhkl9ogvb9we6byrutiw3x,D01N8wqX,2020-0188,2020-05-21,22:46:44,23:06:43,NA,incomplete,94,shape,1,left,Red_Triangle_Grid_4.jpg,Blue_Triangle_Dots_3.jpg,Red_Plus_Stripes_2.jpg,left,549.1000000620261,true,low,false
D01N8wqX,3o2y2uiudt7n7g4dfo9bupx2ocrfkv,3zv9h2yqqhkl9ogvb9we6byrutiw3x,D01N8wqX,2020-0188,2020-05-21,22:46:44,23:06:43,NA,incomplete,95,shape,1,right,Purple_Plus_Grid_4.jpg,Purple_Circle_Stripes_1.jpg,Blue_Plus_Dots_2.jpg,right,609.2450000578538,true,low,false
D01N8wqX,3o2y2uiudt7n7g4dfo9bupx2ocrfkv,3zv9h2yqqhkl9ogvb9we6byrutiw3x,D01N8wqX,2020-0188,2020-05-21,22:46:44,23:06:43,NA,incomplete,96,shape,1,left,Green_Circle_Grid_2.jpg,Red_Circle_Dots_3.jpg,Green_Plus_Stripes_4.jpg,left,580.4999999236315,true,low,false
D01N8wqX,3o2y2uiudt7n7g4dfo9bupx2ocrfkv,3zv9h2yqqhkl9ogvb9we6byrutiw3x,D01N8wqX,2020-0188,2020-05-21,22:46:44,23:06:43,NA,incomplete,97,shape,1,left,Purple_Plus_Grid_2.jpg,Green_Plus_Stripes_1.jpg,Purple_Star_Chess_4.jpg,left,965.0849999161437,true,low,false
D01N8wqX,3o2y2uiudt7n7g4dfo9bupx2ocrfkv,3zv9h2yqqhkl9ogvb9we6byrutiw3x,D01N8wqX,2020-0188,2020-05-21,22:46:44,23:06:43,NA,incomplete,98,shape,1,left,Green_Star_Stripes_4.jpg,Blue_Star_Chess_2.jpg,Green_Triangle_Grid_1.jpg,left,856.0899998992682,true,low,false
D01N8wqX,3o2y2uiudt7n7g4dfo9bupx2ocrfkv,3zv9h2yqqhkl9ogvb9we6byrutiw3x,D01N8wqX,2020-0188,2020-05-21,22:46:44,23:06:43,NA,incomplete,99,shape,0,right,Blue_Circle_Dots_2.jpg,Blue_Triangle_Chess_4.jpg,Green_Circle_Grid_3.jpg,right,1238.429999910295,true,low,false
D01N8wqX,3o2y2uiudt7n7g4dfo9bupx2ocrfkv,3zv9h2yqqhkl9ogvb9we6byrutiw3x,D01N8wqX,2020-0188,2020-05-21,22:46:44,23:06:43,NA,incomplete,100,shape,1,right,Green_Star_Stripes_1.jpg,Green_Circle_Grid_4.jpg,Blue_Star_Dots_3.jpg,right,610.3750000474975,true,low,false
D01N8wqX,3o2y2uiudt7n7g4dfo9bupx2ocrfkv,3zv9h2yqqhkl9ogvb9we6byrutiw3x,D01N8wqX,2020-0188,2020-05-21,22:46:44,23:06:43,NA,incomplete,101,shape,0,left,Purple_Plus_Grid_3.jpg,Blue_Plus_Chess_4.jpg,Purple_Circle_Stripes_1.jpg,left,650.1250000437722,true,low,false
D01N8wqX,3o2y2uiudt7n7g4dfo9bupx2ocrfkv,3zv9h2yqqhkl9ogvb9we6byrutiw3x,D01N8wqX,2020-0188,2020-05-21,22:46:44,23:06:43,NA,incomplete,102,shape,0,right,Red_Triangle_Grid_3.jpg,Red_Star_Chess_2.jpg,Blue_Triangle_Dots_1.jpg,right,683.5050000809133,true,low,false
D01N8wqX,3o2y2uiudt7n7g4dfo9bupx2ocrfkv,3zv9h2yqqhkl9ogvb9we6byrutiw3x,D01N8wqX,2020-0188,2020-05-21,22:46:44,23:06:43,NA,incomplete,103,shape,1,right,Red_Circle_Grid_4.jpg,Red_Star_Chess_3.jpg,Green_Circle_Stripes_2.jpg,right,653.5900000017136,true,low,false
D01N8wqX,3o2y2uiudt7n7g4dfo9bupx2ocrfkv,3zv9h2yqqhkl9ogvb9we6byrutiw3x,D01N8wqX,2020-0188,2020-05-21,22:46:44,23:06:43,NA,incomplete,104,shape,1,left,Blue_Triangle_Stripes_4.jpg,Green_Triangle_Chess_1.jpg,Blue_Star_Grid_3.jpg,left,616.7799999238923,true,low,false
D01N8wqX,3o2y2uiudt7n7g4dfo9bupx2ocrfkv,3zv9h2yqqhkl9ogvb9we6byrutiw3x,D01N8wqX,2020-0188,2020-05-21,22:46:44,23:06:43,NA,incomplete,105,shape,1,left,Blue_Star_Stripes_1.jpg,Red_Star_Chess_4.jpg,Blue_Triangle_Dots_3.jpg,left,656.0150000732392,true,low,false
D01N8wqX,3o2y2uiudt7n7g4dfo9bupx2ocrfkv,3zv9h2yqqhkl9ogvb9we6byrutiw3x,D01N8wqX,2020-0188,2020-05-21,22:46:44,23:06:43,NA,incomplete,106,shape,1,right,Blue_Star_Stripes_2.jpg,Blue_Plus_Grid_4.jpg,Purple_Star_Chess_3.jpg,right,927.9349999269471,true,low,false
D01N8wqX,3o2y2uiudt7n7g4dfo9bupx2ocrfkv,3zv9h2yqqhkl9ogvb9we6byrutiw3x,D01N8wqX,2020-0188,2020-05-21,22:46:44,23:06:43,NA,incomplete,107,shape,1,left,Red_Plus_Stripes_3.jpg,Purple_Plus_Grid_2.jpg,Red_Circle_Chess_4.jpg,left,497.9599999496713,true,low,false
D01N8wqX,3o2y2uiudt7n7g4dfo9bupx2ocrfkv,3zv9h2yqqhkl9ogvb9we6byrutiw3x,D01N8wqX,2020-0188,2020-05-21,22:46:44,23:06:43,NA,incomplete,108,shape,1,left,Red_Triangle_Grid_3.jpg,Purple_Triangle_Stripes_2.jpg,Red_Plus_Chess_4.jpg,left,778.8699999218807,true,low,false
D01N8wqX,3o2y2uiudt7n7g4dfo9bupx2ocrfkv,3zv9h2yqqhkl9ogvb9we6byrutiw3x,D01N8wqX,2020-0188,2020-05-21,22:46:44,23:06:43,NA,incomplete,109,shape,1,left,Green_Plus_Dots_1.jpg,Blue_Plus_Grid_3.jpg,Green_Circle_Stripes_4.jpg,left,537.7150001004338,true,low,false
D01N8wqX,3o2y2uiudt7n7g4dfo9bupx2ocrfkv,3zv9h2yqqhkl9ogvb9we6byrutiw3x,D01N8wqX,2020-0188,2020-05-21,22:46:44,23:06:43,NA,incomplete,110,shape,1,right,Blue_Circle_Stripes_2.jpg,Blue_Star_Grid_3.jpg,Green_Circle_Chess_1.jpg,right,800.2000000560656,true,low,false
D01N8wqX,3o2y2uiudt7n7g4dfo9bupx2ocrfkv,3zv9h2yqqhkl9ogvb9we6byrutiw3x,D01N8wqX,2020-0188,2020-05-21,22:46:44,23:06:43,NA,incomplete,111,shape,1,left,Red_Star_Grid_2.jpg,Purple_Star_Chess_3.jpg,Red_Circle_Stripes_4.jpg,left,657.0749999955297,true,low,false
D01N8wqX,3o2y2uiudt7n7g4dfo9bupx2ocrfkv,3zv9h2yqqhkl9ogvb9we6byrutiw3x,D01N8wqX,2020-0188,2020-05-21,22:46:44,23:06:43,NA,incomplete,112,shape,1,left,Red_Plus_Grid_1.jpg,Purple_Plus_Chess_4.jpg,Red_Circle_Dots_2.jpg,left,799.3400000268593,true,low,false
D01N8wqX,3o2y2uiudt7n7g4dfo9bupx2ocrfkv,3zv9h2yqqhkl9ogvb9we6byrutiw3x,D01N8wqX,2020-0188,2020-05-21,22:46:44,23:06:43,NA,incomplete,113,shape,1,left,Purple_Plus_Dots_4.jpg,Red_Plus_Chess_1.jpg,Purple_Star_Stripes_3.jpg,left,623.5800000140443,true,low,false
D01N8wqX,3o2y2uiudt7n7g4dfo9bupx2ocrfkv,3zv9h2yqqhkl9ogvb9we6byrutiw3x,D01N8wqX,2020-0188,2020-05-21,22:46:44,23:06:43,NA,incomplete,114,shape,1,right,Purple_Plus_Stripes_4.jpg,Purple_Star_Chess_1.jpg,Blue_Plus_Dots_2.jpg,right,611.475000041537,true,low,false
D01N8wqX,3o2y2uiudt7n7g4dfo9bupx2ocrfkv,3zv9h2yqqhkl9ogvb9we6byrutiw3x,D01N8wqX,2020-0188,2020-05-21,22:46:44,23:06:43,NA,incomplete,115,shape,1,right,Red_Star_Grid_3.jpg,Red_Plus_Stripes_2.jpg,Purple_Star_Chess_1.jpg,right,516.5649999398738,true,low,false
D01N8wqX,3o2y2uiudt7n7g4dfo9bupx2ocrfkv,3zv9h2yqqhkl9ogvb9we6byrutiw3x,D01N8wqX,2020-0188,2020-05-21,22:46:44,23:06:43,NA,incomplete,116,shape,1,left,Purple_Circle_Stripes_1.jpg,Blue_Circle_Chess_3.jpg,Purple_Star_Dots_4.jpg,left,668.0399999022484,true,low,false
D01N8wqX,3o2y2uiudt7n7g4dfo9bupx2ocrfkv,3zv9h2yqqhkl9ogvb9we6byrutiw3x,D01N8wqX,2020-0188,2020-05-21,22:46:44,23:06:43,NA,incomplete,117,shape,1,right,Red_Star_Grid_3.jpg,Red_Triangle_Chess_4.jpg,Purple_Star_Stripes_2.jpg,right,696.4750000042841,true,low,false
D01N8wqX,3o2y2uiudt7n7g4dfo9bupx2ocrfkv,3zv9h2yqqhkl9ogvb9we6byrutiw3x,D01N8wqX,2020-0188,2020-05-21,22:46:44,23:06:43,NA,incomplete,118,shape,1,left,Purple_Circle_Dots_4.jpg,Blue_Circle_Chess_1.jpg,Purple_Star_Grid_3.jpg,left,525.4100000020117,true,low,false
D01N8wqX,3o2y2uiudt7n7g4dfo9bupx2ocrfkv,3zv9h2yqqhkl9ogvb9we6byrutiw3x,D01N8wqX,2020-0188,2020-05-21,22:46:44,23:06:43,NA,incomplete,119,shape,1,right,Green_Triangle_Grid_2.jpg,Green_Plus_Dots_1.jpg,Red_Triangle_Chess_4.jpg,right,727.4699999252334,true,low,false
D01N8wqX,3o2y2uiudt7n7g4dfo9bupx2ocrfkv,3zv9h2yqqhkl9ogvb9we6byrutiw3x,D01N8wqX,2020-0188,2020-05-21,22:46:44,23:06:43,NA,incomplete,120,filling,1,left,Green_Plus_Stripes_2.jpg,Red_Star_Stripes_1.jpg,Purple_Triangle_Dots_2.jpg,NA,NA,NA,low,false
D01N8wqX,3o2y2uiudt7n7g4dfo9bupx2ocrfkv,3zv9h2yqqhkl9ogvb9we6byrutiw3x,D01N8wqX,2020-0188,2020-05-21,22:46:44,23:06:43,NA,incomplete,121,filling,1,left,Blue_Star_Stripes_3.jpg,Red_Circle_Stripes_4.jpg,Green_Triangle_Grid_3.jpg,right,1581.400000024587,false,low,false
D01N8wqX,3o2y2uiudt7n7g4dfo9bupx2ocrfkv,3zv9h2yqqhkl9ogvb9we6byrutiw3x,D01N8wqX,2020-0188,2020-05-21,22:46:44,23:06:43,NA,incomplete,122,filling,0,left,Blue_Circle_Chess_2.jpg,Purple_Star_Chess_3.jpg,Red_Triangle_Dots_2.jpg,right,1887.5799999805167,false,low,false
D01N8wqX,3o2y2uiudt7n7g4dfo9bupx2ocrfkv,3zv9h2yqqhkl9ogvb9we6byrutiw3x,D01N8wqX,2020-0188,2020-05-21,22:46:44,23:06:43,NA,incomplete,123,filling,1,right,Green_Circle_Dots_3.jpg,Purple_Plus_Stripes_3.jpg,Red_Star_Dots_4.jpg,left,1360.1299999281764,false,low,false
D01N8wqX,3o2y2uiudt7n7g4dfo9bupx2ocrfkv,3zv9h2yqqhkl9ogvb9we6byrutiw3x,D01N8wqX,2020-0188,2020-05-21,22:46:44,23:06:43,NA,incomplete,124,filling,1,right,Purple_Star_Dots_2.jpg,Red_Circle_Grid_2.jpg,Green_Triangle_Dots_3.jpg,right,1250.0500000314787,true,low,false
D01N8wqX,3o2y2uiudt7n7g4dfo9bupx2ocrfkv,3zv9h2yqqhkl9ogvb9we6byrutiw3x,D01N8wqX,2020-0188,2020-05-21,22:46:44,23:06:43,NA,incomplete,125,filling,1,right,Green_Star_Dots_3.jpg,Purple_Triangle_Grid_3.jpg,Blue_Circle_Dots_2.jpg,right,1120.640000095591,true,low,false
D01N8wqX,3o2y2uiudt7n7g4dfo9bupx2ocrfkv,3zv9h2yqqhkl9ogvb9we6byrutiw3x,D01N8wqX,2020-0188,2020-05-21,22:46:44,23:06:43,NA,incomplete,126,filling,0,right,Blue_Circle_Dots_1.jpg,Green_Triangle_Stripes_1.jpg,Purple_Star_Dots_3.jpg,right,1161.2050000112504,true,low,false
D01N8wqX,3o2y2uiudt7n7g4dfo9bupx2ocrfkv,3zv9h2yqqhkl9ogvb9we6byrutiw3x,D01N8wqX,2020-0188,2020-05-21,22:46:44,23:06:43,NA,incomplete,127,filling,1,right,Blue_Plus_Stripes_1.jpg,Red_Triangle_Dots_1.jpg,Green_Circle_Stripes_4.jpg,right,936.4449999993667,true,low,false
D01N8wqX,3o2y2uiudt7n7g4dfo9bupx2ocrfkv,3zv9h2yqqhkl9ogvb9we6byrutiw3x,D01N8wqX,2020-0188,2020-05-21,22:46:44,23:06:43,NA,incomplete,128,filling,1,right,Red_Star_Chess_3.jpg,Green_Plus_Stripes_3.jpg,Purple_Triangle_Chess_2.jpg,right,1163.1399999605492,true,low,false
D01N8wqX,3o2y2uiudt7n7g4dfo9bupx2ocrfkv,3zv9h2yqqhkl9ogvb9we6byrutiw3x,D01N8wqX,2020-0188,2020-05-21,22:46:44,23:06:43,NA,incomplete,129,filling,0,right,Blue_Plus_Grid_1.jpg,Red_Circle_Chess_1.jpg,Purple_Star_Grid_3.jpg,right,988.4649999439716,true,low,false
D01N8wqX,3o2y2uiudt7n7g4dfo9bupx2ocrfkv,3zv9h2yqqhkl9ogvb9we6byrutiw3x,D01N8wqX,2020-0188,2020-05-21,22:46:44,23:06:43,NA,incomplete,130,filling,1,left,Red_Plus_Stripes_4.jpg,Purple_Star_Stripes_1.jpg,Green_Triangle_Dots_4.jpg,left,1377.169999992475,true,low,false
D01N8wqX,3o2y2uiudt7n7g4dfo9bupx2ocrfkv,3zv9h2yqqhkl9ogvb9we6byrutiw3x,D01N8wqX,2020-0188,2020-05-21,22:46:44,23:06:43,NA,incomplete,131,filling,0,left,Red_Triangle_Chess_2.jpg,Green_Plus_Chess_1.jpg,Blue_Star_Dots_2.jpg,left,953.5900000482798,true,low,false
D01N8wqX,3o2y2uiudt7n7g4dfo9bupx2ocrfkv,3zv9h2yqqhkl9ogvb9we6byrutiw3x,D01N8wqX,2020-0188,2020-05-21,22:46:44,23:06:43,NA,incomplete,132,filling,1,right,Green_Circle_Stripes_1.jpg,Blue_Triangle_Grid_1.jpg,Red_Plus_Stripes_2.jpg,right,801.3700000010431,true,low,false
D01N8wqX,3o2y2uiudt7n7g4dfo9bupx2ocrfkv,3zv9h2yqqhkl9ogvb9we6byrutiw3x,D01N8wqX,2020-0188,2020-05-21,22:46:44,23:06:43,NA,incomplete,133,filling,1,left,Green_Star_Stripes_1.jpg,Purple_Triangle_Stripes_3.jpg,Blue_Circle_Chess_1.jpg,left,1081.000000005588,true,low,false
D01N8wqX,3o2y2uiudt7n7g4dfo9bupx2ocrfkv,3zv9h2yqqhkl9ogvb9we6byrutiw3x,D01N8wqX,2020-0188,2020-05-21,22:46:44,23:06:43,NA,incomplete,134,filling,0,left,Purple_Circle_Chess_2.jpg,Green_Star_Chess_1.jpg,Blue_Plus_Grid_2.jpg,left,1439.9650000268593,true,low,false
D01N8wqX,3o2y2uiudt7n7g4dfo9bupx2ocrfkv,3zv9h2yqqhkl9ogvb9we6byrutiw3x,D01N8wqX,2020-0188,2020-05-21,22:46:44,23:06:43,NA,incomplete,135,filling,1,left,Blue_Circle_Grid_2.jpg,Purple_Plus_Grid_3.jpg,Green_Star_Chess_2.jpg,left,1426.6099999658763,true,low,false
D01N8wqX,3o2y2uiudt7n7g4dfo9bupx2ocrfkv,3zv9h2yqqhkl9ogvb9we6byrutiw3x,D01N8wqX,2020-0188,2020-05-21,22:46:44,23:06:43,NA,incomplete,136,filling,1,right,Green_Plus_Grid_4.jpg,Blue_Star_Chess_4.jpg,Red_Circle_Grid_3.jpg,right,1125.209999969229,true,low,false
D01N8wqX,3o2y2uiudt7n7g4dfo9bupx2ocrfkv,3zv9h2yqqhkl9ogvb9we6byrutiw3x,D01N8wqX,2020-0188,2020-05-21,22:46:44,23:06:43,NA,incomplete,137,filling,1,right,Purple_Circle_Stripes_4.jpg,Green_Plus_Grid_4.jpg,Blue_Triangle_Stripes_3.jpg,right,1335.8049999224022,true,low,false
D01N8wqX,3o2y2uiudt7n7g4dfo9bupx2ocrfkv,3zv9h2yqqhkl9ogvb9we6byrutiw3x,D01N8wqX,2020-0188,2020-05-21,22:46:44,23:06:43,NA,incomplete,138,filling,1,left,Blue_Plus_Stripes_4.jpg,Green_Circle_Stripes_3.jpg,Red_Star_Chess_4.jpg,left,1068.6049999203533,true,low,false
D01N8wqX,3o2y2uiudt7n7g4dfo9bupx2ocrfkv,3zv9h2yqqhkl9ogvb9we6byrutiw3x,D01N8wqX,2020-0188,2020-05-21,22:46:44,23:06:43,NA,incomplete,139,filling,1,left,Purple_Plus_Stripes_4.jpg,Green_Triangle_Stripes_3.jpg,Blue_Star_Grid_4.jpg,right,879.9499999731779,false,low,false
D01N8wqX,3o2y2uiudt7n7g4dfo9bupx2ocrfkv,3zv9h2yqqhkl9ogvb9we6byrutiw3x,D01N8wqX,2020-0188,2020-05-21,22:46:44,23:06:43,NA,incomplete,140,number,1,right,Blue_Plus_Grid_2.jpg,Green_Star_Grid_1.jpg,Purple_Triangle_Stripes_2.jpg,left,954.5599999837577,false,low,false
D01N8wqX,3o2y2uiudt7n7g4dfo9bupx2ocrfkv,3zv9h2yqqhkl9ogvb9we6byrutiw3x,D01N8wqX,2020-0188,2020-05-21,22:46:44,23:06:43,NA,incomplete,141,number,1,left,Purple_Plus_Grid_3.jpg,Green_Star_Stripes_3.jpg,Blue_Circle_Grid_1.jpg,right,1079.2000000365078,false,low,false
D01N8wqX,3o2y2uiudt7n7g4dfo9bupx2ocrfkv,3zv9h2yqqhkl9ogvb9we6byrutiw3x,D01N8wqX,2020-0188,2020-05-21,22:46:44,23:06:43,NA,incomplete,142,number,1,left,Blue_Circle_Chess_1.jpg,Red_Triangle_Stripes_1.jpg,Green_Star_Chess_3.jpg,right,848.4450000105426,false,low,false
D01N8wqX,3o2y2uiudt7n7g4dfo9bupx2ocrfkv,3zv9h2yqqhkl9ogvb9we6byrutiw3x,D01N8wqX,2020-0188,2020-05-21,22:46:44,23:06:43,NA,incomplete,143,number,1,left,Green_Triangle_Chess_3.jpg,Red_Circle_Grid_3.jpg,Blue_Star_Chess_1.jpg,left,970.7949999719858,true,low,false
D01N8wqX,3o2y2uiudt7n7g4dfo9bupx2ocrfkv,3zv9h2yqqhkl9ogvb9we6byrutiw3x,D01N8wqX,2020-0188,2020-05-21,22:46:44,23:06:43,NA,incomplete,144,number,1,right,Blue_Circle_Grid_1.jpg,Purple_Triangle_Grid_2.jpg,Green_Star_Stripes_1.jpg,right,905.6450000498444,true,low,false
D01N8wqX,3o2y2uiudt7n7g4dfo9bupx2ocrfkv,3zv9h2yqqhkl9ogvb9we6byrutiw3x,D01N8wqX,2020-0188,2020-05-21,22:46:44,23:06:43,NA,incomplete,145,number,0,left,Green_Star_Stripes_4.jpg,Red_Circle_Dots_4.jpg,Blue_Triangle_Stripes_2.jpg,left,1042.0800000429153,true,low,false
D01N8wqX,3o2y2uiudt7n7g4dfo9bupx2ocrfkv,3zv9h2yqqhkl9ogvb9we6byrutiw3x,D01N8wqX,2020-0188,2020-05-21,22:46:44,23:06:43,NA,incomplete,146,number,1,left,Green_Circle_Chess_2.jpg,Purple_Triangle_Grid_2.jpg,Red_Star_Chess_4.jpg,left,877.6749999960884,true,low,false
D01N8wqX,3o2y2uiudt7n7g4dfo9bupx2ocrfkv,3zv9h2yqqhkl9ogvb9we6byrutiw3x,D01N8wqX,2020-0188,2020-05-21,22:46:44,23:06:43,NA,incomplete,147,number,1,right,Blue_Circle_Stripes_1.jpg,Green_Triangle_Stripes_3.jpg,Purple_Star_Chess_1.jpg,right,1126.274999929592,true,low,false
D01N8wqX,3o2y2uiudt7n7g4dfo9bupx2ocrfkv,3zv9h2yqqhkl9ogvb9we6byrutiw3x,D01N8wqX,2020-0188,2020-05-21,22:46:44,23:06:43,NA,incomplete,148,number,1,left,Blue_Plus_Grid_1.jpg,Green_Star_Chess_1.jpg,Purple_Circle_Grid_2.jpg,left,678.8699999451637,true,low,false
D01N8wqX,3o2y2uiudt7n7g4dfo9bupx2ocrfkv,3zv9h2yqqhkl9ogvb9we6byrutiw3x,D01N8wqX,2020-0188,2020-05-21,22:46:44,23:06:43,NA,incomplete,149,number,1,left,Purple_Circle_Chess_2.jpg,Green_Triangle_Stripes_2.jpg,Blue_Star_Chess_1.jpg,left,718.8849999802187,true,low,false
D01N8wqX,3o2y2uiudt7n7g4dfo9bupx2ocrfkv,3zv9h2yqqhkl9ogvb9we6byrutiw3x,D01N8wqX,2020-0188,2020-05-21,22:46:44,23:06:43,NA,incomplete,150,number,1,left,Purple_Triangle_Grid_2.jpg,Blue_Plus_Stripes_2.jpg,Green_Circle_Grid_3.jpg,left,728.5149999661371,true,low,false
D01N8wqX,3o2y2uiudt7n7g4dfo9bupx2ocrfkv,3zv9h2yqqhkl9ogvb9we6byrutiw3x,D01N8wqX,2020-0188,2020-05-21,22:46:44,23:06:43,NA,incomplete,151,number,1,left,Red_Star_Grid_2.jpg,Blue_Triangle_Dots_2.jpg,Purple_Circle_Grid_4.jpg,left,690.1599999982864,true,low,false
D01N8wqX,3o2y2uiudt7n7g4dfo9bupx2ocrfkv,3zv9h2yqqhkl9ogvb9we6byrutiw3x,D01N8wqX,2020-0188,2020-05-21,22:46:44,23:06:43,NA,incomplete,152,number,1,left,Purple_Plus_Chess_3.jpg,Blue_Triangle_Stripes_3.jpg,Green_Star_Chess_4.jpg,left,796.0949999978766,true,low,false
D01N8wqX,3o2y2uiudt7n7g4dfo9bupx2ocrfkv,3zv9h2yqqhkl9ogvb9we6byrutiw3x,D01N8wqX,2020-0188,2020-05-21,22:46:44,23:06:43,NA,incomplete,153,number,1,left,Red_Plus_Stripes_2.jpg,Green_Circle_Chess_2.jpg,Purple_Triangle_Stripes_1.jpg,left,739.5949999336153,true,low,false
D01N8wqX,3o2y2uiudt7n7g4dfo9bupx2ocrfkv,3zv9h2yqqhkl9ogvb9we6byrutiw3x,D01N8wqX,2020-0188,2020-05-21,22:46:44,23:06:43,NA,incomplete,154,number,1,right,Red_Star_Chess_2.jpg,Purple_Triangle_Chess_1.jpg,Blue_Plus_Dots_2.jpg,right,732.5750000309199,true,low,false
D01N8wqX,3o2y2uiudt7n7g4dfo9bupx2ocrfkv,3zv9h2yqqhkl9ogvb9we6byrutiw3x,D01N8wqX,2020-0188,2020-05-21,22:46:44,23:06:43,NA,incomplete,155,number,1,left,Purple_Triangle_Grid_3.jpg,Green_Circle_Stripes_3.jpg,Blue_Plus_Grid_2.jpg,left,731.9999999599531,true,low,false
D01N8wqX,3o2y2uiudt7n7g4dfo9bupx2ocrfkv,3zv9h2yqqhkl9ogvb9we6byrutiw3x,D01N8wqX,2020-0188,2020-05-21,22:46:44,23:06:43,NA,incomplete,156,number,1,right,Blue_Circle_Grid_4.jpg,Purple_Star_Grid_2.jpg,Green_Triangle_Dots_4.jpg,right,896.8250000616536,true,low,false
D01N8wqX,3o2y2uiudt7n7g4dfo9bupx2ocrfkv,3zv9h2yqqhkl9ogvb9we6byrutiw3x,D01N8wqX,2020-0188,2020-05-21,22:46:44,23:06:43,NA,incomplete,157,number,1,right,Green_Circle_Dots_1.jpg,Purple_Plus_Dots_4.jpg,Blue_Star_Chess_1.jpg,right,869.1150000086054,true,low,false
D01N8wqX,3o2y2uiudt7n7g4dfo9bupx2ocrfkv,3zv9h2yqqhkl9ogvb9we6byrutiw3x,D01N8wqX,2020-0188,2020-05-21,22:46:44,23:06:43,NA,incomplete,158,number,0,left,Green_Star_Stripes_3.jpg,Purple_Triangle_Grid_3.jpg,Blue_Circle_Stripes_2.jpg,left,1040.114999981597,true,low,false
D01N8wqX,3o2y2uiudt7n7g4dfo9bupx2ocrfkv,3zv9h2yqqhkl9ogvb9we6byrutiw3x,D01N8wqX,2020-0188,2020-05-21,22:46:44,23:06:43,NA,incomplete,159,number,1,right,Red_Plus_Dots_2.jpg,Purple_Star_Dots_1.jpg,Blue_Circle_Grid_2.jpg,right,799.0749999880791,true,low,false
D01N8wqX,3o2y2uiudt7n7g4dfo9bupx2ocrfkv,3zv9h2yqqhkl9ogvb9we6byrutiw3x,D01N8wqX,2020-0188,2020-05-21,22:46:44,23:06:43,NA,incomplete,160,filling,0,left,Red_Triangle_Grid_3.jpg,Blue_Plus_Grid_2.jpg,Purple_Circle_Chess_3.jpg,right,854.4700000202283,false,low,false
D01N8wqX,3o2y2uiudt7n7g4dfo9bupx2ocrfkv,3zv9h2yqqhkl9ogvb9we6byrutiw3x,D01N8wqX,2020-0188,2020-05-21,22:46:44,23:06:43,NA,incomplete,161,filling,1,left,Green_Plus_Stripes_3.jpg,Blue_Triangle_Stripes_4.jpg,Red_Circle_Dots_3.jpg,right,823.8300000084564,false,low,false
D01N8wqX,3o2y2uiudt7n7g4dfo9bupx2ocrfkv,3zv9h2yqqhkl9ogvb9we6byrutiw3x,D01N8wqX,2020-0188,2020-05-21,22:46:44,23:06:43,NA,incomplete,162,filling,1,left,Green_Triangle_Dots_3.jpg,Red_Circle_Dots_4.jpg,Purple_Star_Chess_3.jpg,right,1025.620000087656,false,low,false
D01N8wqX,3o2y2uiudt7n7g4dfo9bupx2ocrfkv,3zv9h2yqqhkl9ogvb9we6byrutiw3x,D01N8wqX,2020-0188,2020-05-21,22:46:44,23:06:43,NA,incomplete,163,filling,1,right,Purple_Star_Grid_2.jpg,Blue_Plus_Dots_2.jpg,Red_Triangle_Grid_4.jpg,left,760.7100000604987,false,low,false
D01N8wqX,3o2y2uiudt7n7g4dfo9bupx2ocrfkv,3zv9h2yqqhkl9ogvb9we6byrutiw3x,D01N8wqX,2020-0188,2020-05-21,22:46:44,23:06:43,NA,incomplete,164,filling,1,left,Blue_Plus_Chess_2.jpg,Purple_Triangle_Chess_1.jpg,Green_Circle_Grid_2.jpg,left,934.9549999460578,true,low,false
D01N8wqX,3o2y2uiudt7n7g4dfo9bupx2ocrfkv,3zv9h2yqqhkl9ogvb9we6byrutiw3x,D01N8wqX,2020-0188,2020-05-21,22:46:44,23:06:43,NA,incomplete,165,filling,1,left,Red_Triangle_Grid_3.jpg,Purple_Circle_Grid_2.jpg,Blue_Plus_Chess_3.jpg,left,843.360000057146,true,low,false
D01N8wqX,3o2y2uiudt7n7g4dfo9bupx2ocrfkv,3zv9h2yqqhkl9ogvb9we6byrutiw3x,D01N8wqX,2020-0188,2020-05-21,22:46:44,23:06:43,NA,incomplete,166,filling,1,right,Purple_Triangle_Chess_4.jpg,Red_Circle_Dots_4.jpg,Blue_Plus_Chess_2.jpg,right,1612.7149999374524,true,low,false
D01N8wqX,3o2y2uiudt7n7g4dfo9bupx2ocrfkv,3zv9h2yqqhkl9ogvb9we6byrutiw3x,D01N8wqX,2020-0188,2020-05-21,22:46:44,23:06:43,NA,incomplete,167,filling,1,right,Purple_Triangle_Grid_3.jpg,Blue_Star_Chess_3.jpg,Red_Circle_Grid_1.jpg,right,1023.589999997057,true,low,false
D01N8wqX,3o2y2uiudt7n7g4dfo9bupx2ocrfkv,3zv9h2yqqhkl9ogvb9we6byrutiw3x,D01N8wqX,2020-0188,2020-05-21,22:46:44,23:06:43,NA,incomplete,168,filling,1,left,Purple_Triangle_Chess_4.jpg,Red_Plus_Chess_2.jpg,Blue_Star_Dots_4.jpg,left,1261.5800000494346,true,low,false
D01N8wqX,3o2y2uiudt7n7g4dfo9bupx2ocrfkv,3zv9h2yqqhkl9ogvb9we6byrutiw3x,D01N8wqX,2020-0188,2020-05-21,22:46:44,23:06:43,NA,incomplete,169,filling,1,right,Blue_Star_Grid_1.jpg,Purple_Plus_Stripes_1.jpg,Red_Circle_Grid_4.jpg,right,722.4799999967217,true,low,false
D01N8wqX,3o2y2uiudt7n7g4dfo9bupx2ocrfkv,3zv9h2yqqhkl9ogvb9we6byrutiw3x,D01N8wqX,2020-0188,2020-05-21,22:46:44,23:06:43,NA,incomplete,170,filling,1,right,Red_Triangle_Grid_4.jpg,Blue_Plus_Stripes_4.jpg,Purple_Circle_Grid_3.jpg,right,1131.8600000813603,true,low,false
D01N8wqX,3o2y2uiudt7n7g4dfo9bupx2ocrfkv,3zv9h2yqqhkl9ogvb9we6byrutiw3x,D01N8wqX,2020-0188,2020-05-21,22:46:44,23:06:43,NA,incomplete,171,filling,1,left,Green_Circle_Dots_3.jpg,Purple_Plus_Dots_1.jpg,Red_Star_Grid_3.jpg,left,1040.8800001023337,true,low,false
D01N8wqX,3o2y2uiudt7n7g4dfo9bupx2ocrfkv,3zv9h2yqqhkl9ogvb9we6byrutiw3x,D01N8wqX,2020-0188,2020-05-21,22:46:44,23:06:43,NA,incomplete,172,filling,0,left,Red_Triangle_Grid_3.jpg,Green_Plus_Grid_1.jpg,Blue_Star_Dots_3.jpg,left,612.044999958016,true,low,false
D01N8wqX,3o2y2uiudt7n7g4dfo9bupx2ocrfkv,3zv9h2yqqhkl9ogvb9we6byrutiw3x,D01N8wqX,2020-0188,2020-05-21,22:46:44,23:06:43,NA,incomplete,173,filling,1,right,Purple_Star_Dots_1.jpg,Green_Triangle_Chess_1.jpg,Red_Plus_Dots_3.jpg,right,894.484999938868,true,low,false
D01N8wqX,3o2y2uiudt7n7g4dfo9bupx2ocrfkv,3zv9h2yqqhkl9ogvb9we6byrutiw3x,D01N8wqX,2020-0188,2020-05-21,22:46:44,23:06:43,NA,incomplete,174,filling,1,left,Blue_Triangle_Chess_3.jpg,Red_Plus_Chess_2.jpg,Green_Star_Dots_3.jpg,left,797.9350000387058,true,low,false
D01N8wqX,3o2y2uiudt7n7g4dfo9bupx2ocrfkv,3zv9h2yqqhkl9ogvb9we6byrutiw3x,D01N8wqX,2020-0188,2020-05-21,22:46:44,23:06:43,NA,incomplete,175,filling,0,left,Blue_Plus_Chess_3.jpg,Green_Triangle_Chess_4.jpg,Red_Circle_Dots_3.jpg,right,1325.6299999775365,false,low,false
D01N8wqX,3o2y2uiudt7n7g4dfo9bupx2ocrfkv,3zv9h2yqqhkl9ogvb9we6byrutiw3x,D01N8wqX,2020-0188,2020-05-21,22:46:44,23:06:43,NA,incomplete,176,filling,1,right,Green_Circle_Stripes_3.jpg,Red_Triangle_Dots_3.jpg,Blue_Star_Stripes_4.jpg,right,1135.6299999170005,true,low,false
D01N8wqX,3o2y2uiudt7n7g4dfo9bupx2ocrfkv,3zv9h2yqqhkl9ogvb9we6byrutiw3x,D01N8wqX,2020-0188,2020-05-21,22:46:44,23:06:43,NA,incomplete,177,filling,1,left,Blue_Star_Grid_1.jpg,Red_Plus_Grid_3.jpg,Purple_Circle_Chess_1.jpg,left,886.4700000267476,true,low,false
D01N8wqX,3o2y2uiudt7n7g4dfo9bupx2ocrfkv,3zv9h2yqqhkl9ogvb9we6byrutiw3x,D01N8wqX,2020-0188,2020-05-21,22:46:44,23:06:43,NA,incomplete,178,filling,1,left,Red_Circle_Chess_4.jpg,Purple_Plus_Chess_2.jpg,Green_Triangle_Stripes_4.jpg,left,865.334999980405,true,low,false
D01N8wqX,3o2y2uiudt7n7g4dfo9bupx2ocrfkv,3zv9h2yqqhkl9ogvb9we6byrutiw3x,D01N8wqX,2020-0188,2020-05-21,22:46:44,23:06:43,NA,incomplete,179,filling,1,left,Green_Plus_Grid_3.jpg,Purple_Star_Grid_4.jpg,Red_Triangle_Stripes_3.jpg,left,1074.9150000046939,true,low,false
D01N8wqX,3o2y2uiudt7n7g4dfo9bupx2ocrfkv,3zv9h2yqqhkl9ogvb9we6byrutiw3x,D01N8wqX,2020-0188,2020-05-21,22:46:44,23:06:43,NA,incomplete,180,number,1,right,Blue_Star_Dots_4.jpg,Red_Plus_Dots_1.jpg,Green_Triangle_Grid_4.jpg,left,1021.8350000213832,false,low,false
D01N8wqX,3o2y2uiudt7n7g4dfo9bupx2ocrfkv,3zv9h2yqqhkl9ogvb9we6byrutiw3x,D01N8wqX,2020-0188,2020-05-21,22:46:44,23:06:43,NA,incomplete,181,number,1,right,Purple_Plus_Chess_3.jpg,Green_Circle_Chess_4.jpg,Blue_Star_Dots_3.jpg,right,1091.8799999635667,true,low,false
D01N8wqX,3o2y2uiudt7n7g4dfo9bupx2ocrfkv,3zv9h2yqqhkl9ogvb9we6byrutiw3x,D01N8wqX,2020-0188,2020-05-21,22:46:44,23:06:43,NA,incomplete,182,number,1,right,Green_Circle_Stripes_2.jpg,Purple_Star_Stripes_1.jpg,Blue_Triangle_Grid_2.jpg,left,897.2249999642372,false,low,false
D01N8wqX,3o2y2uiudt7n7g4dfo9bupx2ocrfkv,3zv9h2yqqhkl9ogvb9we6byrutiw3x,D01N8wqX,2020-0188,2020-05-21,22:46:44,23:06:43,NA,incomplete,183,number,0,right,Blue_Circle_Grid_4.jpg,Green_Triangle_Grid_3.jpg,Purple_Plus_Chess_4.jpg,right,1051.5949999680743,true,low,false
D01N8wqX,3o2y2uiudt7n7g4dfo9bupx2ocrfkv,3zv9h2yqqhkl9ogvb9we6byrutiw3x,D01N8wqX,2020-0188,2020-05-21,22:46:44,23:06:43,NA,incomplete,184,number,1,right,Green_Plus_Stripes_3.jpg,Purple_Triangle_Stripes_1.jpg,Blue_Star_Dots_3.jpg,left,1149.184999987483,false,low,false
D01N8wqX,3o2y2uiudt7n7g4dfo9bupx2ocrfkv,3zv9h2yqqhkl9ogvb9we6byrutiw3x,D01N8wqX,2020-0188,2020-05-21,22:46:44,23:06:43,NA,incomplete,185,number,1,right,Green_Circle_Chess_1.jpg,Purple_Triangle_Chess_3.jpg,Red_Plus_Grid_1.jpg,right,1047.675000037998,true,low,false
D01N8wqX,3o2y2uiudt7n7g4dfo9bupx2ocrfkv,3zv9h2yqqhkl9ogvb9we6byrutiw3x,D01N8wqX,2020-0188,2020-05-21,22:46:44,23:06:43,NA,incomplete,186,number,1,right,Green_Triangle_Dots_3.jpg,Blue_Plus_Dots_2.jpg,Purple_Circle_Stripes_3.jpg,right,1088.4949999162927,true,low,false
D01N8wqX,3o2y2uiudt7n7g4dfo9bupx2ocrfkv,3zv9h2yqqhkl9ogvb9we6byrutiw3x,D01N8wqX,2020-0188,2020-05-21,22:46:44,23:06:43,NA,incomplete,187,number,0,right,Green_Star_Chess_1.jpg,Purple_Triangle_Chess_4.jpg,Blue_Circle_Stripes_1.jpg,right,712.7349999500439,true,low,false
D01N8wqX,3o2y2uiudt7n7g4dfo9bupx2ocrfkv,3zv9h2yqqhkl9ogvb9we6byrutiw3x,D01N8wqX,2020-0188,2020-05-21,22:46:44,23:06:43,NA,incomplete,188,number,1,left,Red_Star_Dots_4.jpg,Green_Plus_Grid_4.jpg,Blue_Triangle_Dots_3.jpg,left,1443.0799999972805,true,low,false
D01N8wqX,3o2y2uiudt7n7g4dfo9bupx2ocrfkv,3zv9h2yqqhkl9ogvb9we6byrutiw3x,D01N8wqX,2020-0188,2020-05-21,22:46:44,23:06:43,NA,incomplete,189,number,1,left,Purple_Circle_Grid_4.jpg,Green_Triangle_Dots_4.jpg,Blue_Plus_Grid_1.jpg,left,787.5950000016019,true,low,false
D01N8wqX,3o2y2uiudt7n7g4dfo9bupx2ocrfkv,3zv9h2yqqhkl9ogvb9we6byrutiw3x,D01N8wqX,2020-0188,2020-05-21,22:46:44,23:06:43,NA,incomplete,190,number,1,right,Red_Plus_Dots_2.jpg,Green_Star_Dots_4.jpg,Purple_Circle_Grid_2.jpg,right,815.6899999594316,true,low,false
D01N8wqX,3o2y2uiudt7n7g4dfo9bupx2ocrfkv,3zv9h2yqqhkl9ogvb9we6byrutiw3x,D01N8wqX,2020-0188,2020-05-21,22:46:44,23:06:43,NA,incomplete,191,number,1,left,Green_Triangle_Grid_1.jpg,Red_Plus_Dots_1.jpg,Purple_Circle_Grid_4.jpg,left,726.0900000110269,true,low,false
D01N8wqX,3o2y2uiudt7n7g4dfo9bupx2ocrfkv,3zv9h2yqqhkl9ogvb9we6byrutiw3x,D01N8wqX,2020-0188,2020-05-21,22:46:44,23:06:43,NA,incomplete,192,number,1,right,Red_Triangle_Stripes_3.jpg,Purple_Circle_Stripes_2.jpg,Green_Star_Grid_3.jpg,right,659.1649999609217,true,low,false
D01N8wqX,3o2y2uiudt7n7g4dfo9bupx2ocrfkv,3zv9h2yqqhkl9ogvb9we6byrutiw3x,D01N8wqX,2020-0188,2020-05-21,22:46:44,23:06:43,NA,incomplete,193,number,0,right,Green_Triangle_Grid_4.jpg,Red_Circle_Grid_1.jpg,Purple_Star_Dots_4.jpg,right,831.5200000070035,true,low,false
D01N8wqX,3o2y2uiudt7n7g4dfo9bupx2ocrfkv,3zv9h2yqqhkl9ogvb9we6byrutiw3x,D01N8wqX,2020-0188,2020-05-21,22:46:44,23:06:43,NA,incomplete,194,number,1,left,Green_Star_Dots_2.jpg,Purple_Triangle_Chess_2.jpg,Red_Plus_Dots_3.jpg,left,795.9949999349192,true,low,false
D01N8wqX,3o2y2uiudt7n7g4dfo9bupx2ocrfkv,3zv9h2yqqhkl9ogvb9we6byrutiw3x,D01N8wqX,2020-0188,2020-05-21,22:46:44,23:06:43,NA,incomplete,195,number,1,left,Green_Triangle_Chess_3.jpg,Blue_Plus_Stripes_3.jpg,Red_Circle_Chess_4.jpg,left,954.3250000569969,true,low,false
D01N8wqX,3o2y2uiudt7n7g4dfo9bupx2ocrfkv,3zv9h2yqqhkl9ogvb9we6byrutiw3x,D01N8wqX,2020-0188,2020-05-21,22:46:44,23:06:43,NA,incomplete,196,number,0,right,Green_Circle_Grid_4.jpg,Purple_Triangle_Grid_1.jpg,Blue_Star_Chess_4.jpg,right,641.6049998952076,true,low,false
D01N8wqX,3o2y2uiudt7n7g4dfo9bupx2ocrfkv,3zv9h2yqqhkl9ogvb9we6byrutiw3x,D01N8wqX,2020-0188,2020-05-21,22:46:44,23:06:43,NA,incomplete,197,number,1,right,Blue_Plus_Dots_1.jpg,Red_Star_Dots_3.jpg,Green_Circle_Stripes_1.jpg,right,756.485000019893,true,low,false
D01N8wqX,3o2y2uiudt7n7g4dfo9bupx2ocrfkv,3zv9h2yqqhkl9ogvb9we6byrutiw3x,D01N8wqX,2020-0188,2020-05-21,22:46:44,23:06:43,NA,incomplete,198,number,1,right,Green_Star_Dots_2.jpg,Purple_Circle_Dots_1.jpg,Red_Plus_Grid_2.jpg,right,612.0649999938905,true,low,false
D01N8wqX,3o2y2uiudt7n7g4dfo9bupx2ocrfkv,3zv9h2yqqhkl9ogvb9we6byrutiw3x,D01N8wqX,2020-0188,2020-05-21,22:46:44,23:06:43,NA,incomplete,199,number,0,left,Blue_Triangle_Stripes_1.jpg,Green_Circle_Chess_1.jpg,Red_Plus_Stripes_2.jpg,left,822.1800000173971,true,low,false
D01N8wqX,3o2y2uiudt7n7g4dfo9bupx2ocrfkv,3zv9h2yqqhkl9ogvb9we6byrutiw3x,D01N8wqX,2020-0188,2020-05-21,22:46:44,23:06:43,NA,incomplete,200,filling,1,left,Purple_Plus_Dots_4.jpg,Blue_Star_Dots_3.jpg,Green_Triangle_Stripes_4.jpg,right,663.230000063777,false,low,false
D01N8wqX,3o2y2uiudt7n7g4dfo9bupx2ocrfkv,3zv9h2yqqhkl9ogvb9we6byrutiw3x,D01N8wqX,2020-0188,2020-05-21,22:46:44,23:06:43,NA,incomplete,201,filling,0,left,Red_Star_Chess_1.jpg,Blue_Plus_Chess_3.jpg,Green_Triangle_Grid_1.jpg,right,649.1150000365451,false,low,false
D01N8wqX,3o2y2uiudt7n7g4dfo9bupx2ocrfkv,3zv9h2yqqhkl9ogvb9we6byrutiw3x,D01N8wqX,2020-0188,2020-05-21,22:46:44,23:06:43,NA,incomplete,202,filling,1,right,Red_Triangle_Grid_4.jpg,Green_Plus_Dots_4.jpg,Purple_Circle_Grid_3.jpg,left,1152.475000009872,false,low,false
D01N8wqX,3o2y2uiudt7n7g4dfo9bupx2ocrfkv,3zv9h2yqqhkl9ogvb9we6byrutiw3x,D01N8wqX,2020-0188,2020-05-21,22:46:44,23:06:43,NA,incomplete,203,filling,1,left,Blue_Circle_Chess_4.jpg,Red_Triangle_Chess_3.jpg,Purple_Plus_Stripes_4.jpg,right,608.4100001025945,false,low,false
D01N8wqX,3o2y2uiudt7n7g4dfo9bupx2ocrfkv,3zv9h2yqqhkl9ogvb9we6byrutiw3x,D01N8wqX,2020-0188,2020-05-21,22:46:44,23:06:43,NA,incomplete,204,filling,1,right,Blue_Circle_Grid_4.jpg,Red_Triangle_Dots_4.jpg,Green_Plus_Grid_3.jpg,left,1062.8600000636652,false,low,false
D01N8wqX,3o2y2uiudt7n7g4dfo9bupx2ocrfkv,3zv9h2yqqhkl9ogvb9we6byrutiw3x,D01N8wqX,2020-0188,2020-05-21,22:46:44,23:06:43,NA,incomplete,205,filling,0,right,Red_Plus_Grid_4.jpg,Green_Star_Chess_4.jpg,Purple_Circle_Grid_3.jpg,right,1079.160000081174,true,low,false
D01N8wqX,3o2y2uiudt7n7g4dfo9bupx2ocrfkv,3zv9h2yqqhkl9ogvb9we6byrutiw3x,D01N8wqX,2020-0188,2020-05-21,22:46:44,23:06:43,NA,incomplete,206,filling,1,right,Purple_Plus_Stripes_1.jpg,Blue_Triangle_Dots_1.jpg,Red_Star_Stripes_4.jpg,right,980.3450000472367,true,low,false
D01N8wqX,3o2y2uiudt7n7g4dfo9bupx2ocrfkv,3zv9h2yqqhkl9ogvb9we6byrutiw3x,D01N8wqX,2020-0188,2020-05-21,22:46:44,23:06:43,NA,incomplete,207,filling,1,right,Blue_Triangle_Chess_2.jpg,Purple_Circle_Stripes_2.jpg,Red_Star_Chess_3.jpg,right,994.925000006333,true,low,false
D01N8wqX,3o2y2uiudt7n7g4dfo9bupx2ocrfkv,3zv9h2yqqhkl9ogvb9we6byrutiw3x,D01N8wqX,2020-0188,2020-05-21,22:46:44,23:06:43,NA,incomplete,208,filling,1,right,Blue_Circle_Chess_4.jpg,Purple_Star_Dots_4.jpg,Red_Triangle_Chess_3.jpg,right,1058.6100000655279,true,low,false
D01N8wqX,3o2y2uiudt7n7g4dfo9bupx2ocrfkv,3zv9h2yqqhkl9ogvb9we6byrutiw3x,D01N8wqX,2020-0188,2020-05-21,22:46:44,23:06:43,NA,incomplete,209,filling,1,left,Red_Circle_Stripes_2.jpg,Purple_Triangle_Stripes_1.jpg,Green_Star_Grid_2.jpg,left,813.6049999156967,true,low,false
D01N8wqX,3o2y2uiudt7n7g4dfo9bupx2ocrfkv,3zv9h2yqqhkl9ogvb9we6byrutiw3x,D01N8wqX,2020-0188,2020-05-21,22:46:44,23:06:43,NA,incomplete,210,filling,0,right,Purple_Star_Grid_3.jpg,Green_Triangle_Stripes_3.jpg,Blue_Plus_Grid_2.jpg,right,876.369999954477,true,low,false
D01N8wqX,3o2y2uiudt7n7g4dfo9bupx2ocrfkv,3zv9h2yqqhkl9ogvb9we6byrutiw3x,D01N8wqX,2020-0188,2020-05-21,22:46:44,23:06:43,NA,incomplete,211,filling,1,right,Purple_Triangle_Grid_3.jpg,Green_Star_Chess_3.jpg,Red_Circle_Grid_1.jpg,right,755.5100000463426,true,low,false
D01N8wqX,3o2y2uiudt7n7g4dfo9bupx2ocrfkv,3zv9h2yqqhkl9ogvb9we6byrutiw3x,D01N8wqX,2020-0188,2020-05-21,22:46:44,23:06:43,NA,incomplete,212,filling,1,left,Blue_Triangle_Chess_1.jpg,Red_Star_Chess_3.jpg,Green_Circle_Dots_1.jpg,left,663.5450000176206,true,low,false
D01N8wqX,3o2y2uiudt7n7g4dfo9bupx2ocrfkv,3zv9h2yqqhkl9ogvb9we6byrutiw3x,D01N8wqX,2020-0188,2020-05-21,22:46:44,23:06:43,NA,incomplete,213,filling,1,left,Blue_Star_Grid_1.jpg,Green_Triangle_Grid_2.jpg,Red_Plus_Dots_1.jpg,left,979.1399999521673,true,low,false
D01N8wqX,3o2y2uiudt7n7g4dfo9bupx2ocrfkv,3zv9h2yqqhkl9ogvb9we6byrutiw3x,D01N8wqX,2020-0188,2020-05-21,22:46:44,23:06:43,NA,incomplete,214,filling,1,left,Green_Plus_Stripes_2.jpg,Red_Star_Stripes_3.jpg,Purple_Circle_Chess_2.jpg,left,907.2849999647588,true,low,false
D01N8wqX,3o2y2uiudt7n7g4dfo9bupx2ocrfkv,3zv9h2yqqhkl9ogvb9we6byrutiw3x,D01N8wqX,2020-0188,2020-05-21,22:46:44,23:06:43,NA,incomplete,215,filling,1,right,Green_Plus_Stripes_2.jpg,Blue_Triangle_Chess_2.jpg,Purple_Circle_Stripes_3.jpg,right,769.2700000479817,true,low,false
D01N8wqX,3o2y2uiudt7n7g4dfo9bupx2ocrfkv,3zv9h2yqqhkl9ogvb9we6byrutiw3x,D01N8wqX,2020-0188,2020-05-21,22:46:44,23:06:43,NA,incomplete,216,filling,1,left,Red_Plus_Grid_3.jpg,Purple_Star_Grid_4.jpg,Blue_Triangle_Dots_3.jpg,left,772.3250000271946,true,low,false
D01N8wqX,3o2y2uiudt7n7g4dfo9bupx2ocrfkv,3zv9h2yqqhkl9ogvb9we6byrutiw3x,D01N8wqX,2020-0188,2020-05-21,22:46:44,23:06:43,NA,incomplete,217,filling,1,left,Purple_Circle_Stripes_1.jpg,Green_Triangle_Stripes_4.jpg,Red_Star_Chess_1.jpg,left,650.5950000137091,true,low,false
D01N8wqX,3o2y2uiudt7n7g4dfo9bupx2ocrfkv,3zv9h2yqqhkl9ogvb9we6byrutiw3x,D01N8wqX,2020-0188,2020-05-21,22:46:44,23:06:43,NA,incomplete,218,filling,0,left,Red_Circle_Stripes_1.jpg,Purple_Star_Stripes_3.jpg,Blue_Plus_Dots_1.jpg,left,688.520000083372,true,low,false
D01N8wqX,3o2y2uiudt7n7g4dfo9bupx2ocrfkv,3zv9h2yqqhkl9ogvb9we6byrutiw3x,D01N8wqX,2020-0188,2020-05-21,22:46:44,23:06:43,NA,incomplete,219,filling,1,right,Red_Circle_Chess_3.jpg,Purple_Triangle_Stripes_3.jpg,Green_Star_Chess_2.jpg,right,800.3000000026077,true,low,false
D01N8wqX,3o2y2uiudt7n7g4dfo9bupx2ocrfkv,3zv9h2yqqhkl9ogvb9we6byrutiw3x,D01N8wqX,2020-0188,2020-05-21,22:46:44,23:06:43,NA,incomplete,220,number,1,right,Blue_Plus_Stripes_1.jpg,Green_Circle_Stripes_3.jpg,Red_Star_Grid_1.jpg,left,725.4899999825284,false,low,false
D01N8wqX,3o2y2uiudt7n7g4dfo9bupx2ocrfkv,3zv9h2yqqhkl9ogvb9we6byrutiw3x,D01N8wqX,2020-0188,2020-05-21,22:46:44,23:06:43,NA,incomplete,221,number,1,right,Blue_Triangle_Chess_4.jpg,Red_Star_Chess_1.jpg,Purple_Circle_Dots_4.jpg,left,861.934999935329,false,low,false
D01N8wqX,3o2y2uiudt7n7g4dfo9bupx2ocrfkv,3zv9h2yqqhkl9ogvb9we6byrutiw3x,D01N8wqX,2020-0188,2020-05-21,22:46:44,23:06:43,NA,incomplete,222,number,1,right,Purple_Plus_Grid_2.jpg,Blue_Triangle_Grid_4.jpg,Green_Star_Dots_2.jpg,left,893.4950000839308,false,low,false
D01N8wqX,3o2y2uiudt7n7g4dfo9bupx2ocrfkv,3zv9h2yqqhkl9ogvb9we6byrutiw3x,D01N8wqX,2020-0188,2020-05-21,22:46:44,23:06:43,NA,incomplete,223,number,1,right,Green_Star_Chess_4.jpg,Red_Circle_Chess_1.jpg,Blue_Triangle_Stripes_4.jpg,left,738.4350000647828,false,low,false
D01N8wqX,3o2y2uiudt7n7g4dfo9bupx2ocrfkv,3zv9h2yqqhkl9ogvb9we6byrutiw3x,D01N8wqX,2020-0188,2020-05-21,22:46:44,23:06:43,NA,incomplete,224,number,0,left,Purple_Circle_Grid_4.jpg,Red_Star_Stripes_4.jpg,Blue_Triangle_Grid_2.jpg,right,930.7999999728054,false,low,false
D01N8wqX,3o2y2uiudt7n7g4dfo9bupx2ocrfkv,3zv9h2yqqhkl9ogvb9we6byrutiw3x,D01N8wqX,2020-0188,2020-05-21,22:46:44,23:06:43,NA,incomplete,225,number,1,left,Red_Circle_Chess_4.jpg,Green_Star_Stripes_4.jpg,Blue_Triangle_Chess_1.jpg,right,1205.904999980703,false,low,false
D01N8wqX,3o2y2uiudt7n7g4dfo9bupx2ocrfkv,3zv9h2yqqhkl9ogvb9we6byrutiw3x,D01N8wqX,2020-0188,2020-05-21,22:46:44,23:06:43,NA,incomplete,226,number,1,left,Green_Star_Chess_3.jpg,Red_Triangle_Stripes_3.jpg,Purple_Circle_Chess_4.jpg,right,1348.9050000207499,false,low,false
D01N8wqX,3o2y2uiudt7n7g4dfo9bupx2ocrfkv,3zv9h2yqqhkl9ogvb9we6byrutiw3x,D01N8wqX,2020-0188,2020-05-21,22:46:44,23:06:43,NA,incomplete,227,number,0,left,Purple_Star_Dots_4.jpg,Blue_Triangle_Chess_4.jpg,Red_Circle_Dots_3.jpg,right,1328.8750000065193,false,low,false
D01N8wqX,3o2y2uiudt7n7g4dfo9bupx2ocrfkv,3zv9h2yqqhkl9ogvb9we6byrutiw3x,D01N8wqX,2020-0188,2020-05-21,22:46:44,23:06:43,NA,incomplete,228,number,1,right,Red_Plus_Dots_3.jpg,Purple_Star_Dots_2.jpg,Blue_Circle_Grid_3.jpg,left,987.3249999945983,false,low,false
D01N8wqX,3o2y2uiudt7n7g4dfo9bupx2ocrfkv,3zv9h2yqqhkl9ogvb9we6byrutiw3x,D01N8wqX,2020-0188,2020-05-21,22:46:44,23:06:43,NA,incomplete,229,number,0,right,Purple_Plus_Dots_4.jpg,Green_Circle_Dots_1.jpg,Blue_Triangle_Chess_4.jpg,left,1006.6550000337884,false,low,false
D01N8wqX,3o2y2uiudt7n7g4dfo9bupx2ocrfkv,3zv9h2yqqhkl9ogvb9we6byrutiw3x,D01N8wqX,2020-0188,2020-05-21,22:46:44,23:06:43,NA,incomplete,230,number,1,right,Red_Star_Dots_2.jpg,Green_Triangle_Dots_3.jpg,Purple_Circle_Chess_2.jpg,left,1343.1450000498444,false,low,false
D01N8wqX,3o2y2uiudt7n7g4dfo9bupx2ocrfkv,3zv9h2yqqhkl9ogvb9we6byrutiw3x,D01N8wqX,2020-0188,2020-05-21,22:46:44,23:06:43,NA,incomplete,231,number,1,right,Purple_Triangle_Stripes_2.jpg,Blue_Plus_Stripes_4.jpg,Green_Circle_Grid_2.jpg,left,1668.62500004936,false,low,false
D01N8wqX,3o2y2uiudt7n7g4dfo9bupx2ocrfkv,3zv9h2yqqhkl9ogvb9we6byrutiw3x,D01N8wqX,2020-0188,2020-05-21,22:46:44,23:06:43,NA,incomplete,232,number,1,left,Blue_Circle_Dots_1.jpg,Purple_Star_Stripes_1.jpg,Green_Triangle_Dots_4.jpg,right,942.54999991972,false,low,false
D01N8wqX,3o2y2uiudt7n7g4dfo9bupx2ocrfkv,3zv9h2yqqhkl9ogvb9we6byrutiw3x,D01N8wqX,2020-0188,2020-05-21,22:46:44,23:06:43,NA,incomplete,233,number,0,right,Purple_Triangle_Chess_1.jpg,Red_Plus_Chess_2.jpg,Blue_Circle_Dots_1.jpg,right,919.7050000075251,true,low,false
D01N8wqX,3o2y2uiudt7n7g4dfo9bupx2ocrfkv,3zv9h2yqqhkl9ogvb9we6byrutiw3x,D01N8wqX,2020-0188,2020-05-21,22:46:44,23:06:43,NA,incomplete,234,number,1,left,Red_Plus_Chess_1.jpg,Green_Triangle_Grid_1.jpg,Purple_Star_Chess_2.jpg,left,941.5600000647828,true,low,false
D01N8wqX,3o2y2uiudt7n7g4dfo9bupx2ocrfkv,3zv9h2yqqhkl9ogvb9we6byrutiw3x,D01N8wqX,2020-0188,2020-05-21,22:46:44,23:06:43,NA,incomplete,235,number,1,left,Green_Circle_Stripes_4.jpg,Purple_Star_Dots_4.jpg,Blue_Triangle_Stripes_1.jpg,left,997.0249999314547,true,low,false
D01N8wqX,3o2y2uiudt7n7g4dfo9bupx2ocrfkv,3zv9h2yqqhkl9ogvb9we6byrutiw3x,D01N8wqX,2020-0188,2020-05-21,22:46:44,23:06:43,NA,incomplete,236,number,1,right,Purple_Triangle_Chess_3.jpg,Blue_Plus_Chess_2.jpg,Green_Circle_Stripes_3.jpg,right,888.5049999225885,true,low,false
D01N8wqX,3o2y2uiudt7n7g4dfo9bupx2ocrfkv,3zv9h2yqqhkl9ogvb9we6byrutiw3x,D01N8wqX,2020-0188,2020-05-21,22:46:44,23:06:43,NA,incomplete,237,number,0,left,Purple_Circle_Grid_3.jpg,Blue_Star_Chess_3.jpg,Green_Triangle_Grid_1.jpg,left,734.8699999274686,true,low,false
D01N8wqX,3o2y2uiudt7n7g4dfo9bupx2ocrfkv,3zv9h2yqqhkl9ogvb9we6byrutiw3x,D01N8wqX,2020-0188,2020-05-21,22:46:44,23:06:43,NA,incomplete,238,number,1,left,Purple_Plus_Grid_4.jpg,Red_Triangle_Chess_4.jpg,Blue_Circle_Grid_1.jpg,left,776.7250000033528,true,low,false
D01N8wqX,3o2y2uiudt7n7g4dfo9bupx2ocrfkv,3zv9h2yqqhkl9ogvb9we6byrutiw3x,D01N8wqX,2020-0188,2020-05-21,22:46:44,23:06:43,NA,incomplete,239,number,1,right,Blue_Star_Stripes_3.jpg,Green_Circle_Stripes_4.jpg,Purple_Plus_Grid_3.jpg,right,772.6600000169128,true,low,false
D01N8wqX,3o2y2uiudt7n7g4dfo9bupx2ocrfkv,3zv9h2yqqhkl9ogvb9we6byrutiw3x,D01N8wqX,2020-0188,2020-05-21,22:46:44,23:06:43,NA,NA,instruction example,color,NA,NA,Red_Circle_Chess_1.jpg,Red_Plus_Stripes_2.jpg,Purple_Circle_Dots_3.jpg,NA,NA,NA,NA,undefined
D01N8wqX,3o2y2uiudt7n7g4dfo9bupx2ocrfkv,3zv9h2yqqhkl9ogvb9we6byrutiw3x,D01N8wqX,2020-0188,2020-05-21,22:46:44,23:06:43,NA,NA,instruction example,color,NA,NA,Green_Circle_Chess_3.jpg,Blue_Circle_Dots_2.jpg,Green_Star_Grid_4.jpg,NA,NA,NA,NA,undefined
D01N8wqX,3o2y2uiudt7n7g4dfo9bupx2ocrfkv,3zv9h2yqqhkl9ogvb9we6byrutiw3x,D01N8wqX,2020-0188,2020-05-21,22:46:44,23:06:43,NA,NA,instruction example,color,NA,NA,Purple_Star_Dots_2.jpg,Blue_Plus_Dots_4.jpg,Green_Triangle_Grid_2.jpg,NA,NA,NA,NA,undefined
D01N8wqX,3o2y2uiudt7n7g4dfo9bupx2ocrfkv,3zv9h2yqqhkl9ogvb9we6byrutiw3x,D01N8wqX,2020-0188,2020-05-21,22:46:44,23:06:43,NA,NA,instruction example,color,NA,NA,Blue_Circle_Grid_2.jpg,Purple_Triangle_Stripes_2.jpg,Red_Plus_Grid_1.jpg,NA,NA,NA,NA,undefined
D01N8wqX,3o2y2uiudt7n7g4dfo9bupx2ocrfkv,3zv9h2yqqhkl9ogvb9we6byrutiw3x,D01N8wqX,2020-0188,2020-05-21,22:46:44,23:06:43,1174284.3150000554,1199052.7749999892,NA,NA,NA,NA,NA,NA,NA,NA,NA,NA,NA,undefined
