workerId,hitId,assignmentId,subject,studyid,exp_date,exp_start,exp_end,time_start,time_end,trial,type,sequence,reward_validity,answer,image_top,image_left,image_right,response,response_time,response_acc,volatility,practice
VAaVt1TL,3y3czjszan6hsnojzw5z9ps3vnar5b,30iqtzxkaoj4hwmo2rah6wer2no0xt,VAaVt1TL,2020-0188,2020-06-04,08:41:28,08:59:17,NA,incomplete,0,color,0,1,left,Purple_Triangle_Chess_2.jpg,Purple_Star_Dots_4.jpg,Blue_Circle_Grid_2.jpg,left,1428.249999997206,true,NA,true
VAaVt1TL,3y3czjszan6hsnojzw5z9ps3vnar5b,30iqtzxkaoj4hwmo2rah6wer2no0xt,VAaVt1TL,2020-0188,2020-06-04,08:41:28,08:59:17,NA,incomplete,1,color,0,0,right,Red_Triangle_Dots_3.jpg,Purple_Plus_Chess_3.jpg,Red_Star_Grid_2.jpg,right,975.3450000425801,true,NA,true
VAaVt1TL,3y3czjszan6hsnojzw5z9ps3vnar5b,30iqtzxkaoj4hwmo2rah6wer2no0xt,VAaVt1TL,2020-0188,2020-06-04,08:41:28,08:59:17,NA,incomplete,2,color,0,0,right,Purple_Star_Chess_2.jpg,Green_Triangle_Dots_2.jpg,Purple_Plus_Grid_4.jpg,right,1122.5000000558794,true,NA,true
VAaVt1TL,3y3czjszan6hsnojzw5z9ps3vnar5b,30iqtzxkaoj4hwmo2rah6wer2no0xt,VAaVt1TL,2020-0188,2020-06-04,08:41:28,08:59:17,NA,incomplete,3,color,0,1,right,Green_Star_Stripes_2.jpg,Red_Circle_Grid_2.jpg,Green_Triangle_Dots_1.jpg,right,1127.4550000671297,true,NA,true
VAaVt1TL,3y3czjszan6hsnojzw5z9ps3vnar5b,30iqtzxkaoj4hwmo2rah6wer2no0xt,VAaVt1TL,2020-0188,2020-06-04,08:41:28,08:59:17,NA,incomplete,4,color,0,1,right,Red_Star_Dots_4.jpg,Blue_Triangle_Grid_4.jpg,Red_Plus_Chess_3.jpg,right,772.7899999590591,true,NA,true
VAaVt1TL,3y3czjszan6hsnojzw5z9ps3vnar5b,30iqtzxkaoj4hwmo2rah6wer2no0xt,VAaVt1TL,2020-0188,2020-06-04,08:41:28,08:59:17,NA,incomplete,5,color,0,1,right,Blue_Triangle_Stripes_4.jpg,Red_Star_Grid_4.jpg,Blue_Plus_Chess_2.jpg,right,847.5199999520555,true,NA,true
VAaVt1TL,3y3czjszan6hsnojzw5z9ps3vnar5b,30iqtzxkaoj4hwmo2rah6wer2no0xt,VAaVt1TL,2020-0188,2020-06-04,08:41:28,08:59:17,NA,incomplete,6,color,0,1,left,Green_Circle_Chess_4.jpg,Green_Plus_Stripes_3.jpg,Blue_Star_Grid_4.jpg,left,1032.7549999346957,true,NA,true
VAaVt1TL,3y3czjszan6hsnojzw5z9ps3vnar5b,30iqtzxkaoj4hwmo2rah6wer2no0xt,VAaVt1TL,2020-0188,2020-06-04,08:41:28,08:59:17,NA,incomplete,7,color,0,1,left,Purple_Circle_Chess_3.jpg,Purple_Triangle_Stripes_2.jpg,Green_Star_Dots_3.jpg,left,1113.770000054501,true,NA,true
VAaVt1TL,3y3czjszan6hsnojzw5z9ps3vnar5b,30iqtzxkaoj4hwmo2rah6wer2no0xt,VAaVt1TL,2020-0188,2020-06-04,08:41:28,08:59:17,NA,incomplete,8,color,0,1,left,Red_Circle_Stripes_2.jpg,Red_Plus_Chess_1.jpg,Purple_Star_Grid_2.jpg,left,742.5750000402331,true,NA,true
VAaVt1TL,3y3czjszan6hsnojzw5z9ps3vnar5b,30iqtzxkaoj4hwmo2rah6wer2no0xt,VAaVt1TL,2020-0188,2020-06-04,08:41:28,08:59:17,NA,incomplete,9,color,0,0,right,Red_Plus_Stripes_3.jpg,Blue_Circle_Dots_3.jpg,Red_Star_Chess_2.jpg,right,788.6850000359118,true,NA,true
VAaVt1TL,3y3czjszan6hsnojzw5z9ps3vnar5b,30iqtzxkaoj4hwmo2rah6wer2no0xt,VAaVt1TL,2020-0188,2020-06-04,08:41:28,08:59:17,NA,incomplete,10,color,0,1,right,Red_Triangle_Stripes_1.jpg,Blue_Plus_Chess_1.jpg,Red_Star_Dots_4.jpg,right,614.2649999819696,true,NA,true
VAaVt1TL,3y3czjszan6hsnojzw5z9ps3vnar5b,30iqtzxkaoj4hwmo2rah6wer2no0xt,VAaVt1TL,2020-0188,2020-06-04,08:41:28,08:59:17,NA,incomplete,11,color,0,0,right,Green_Circle_Chess_4.jpg,Red_Star_Stripes_4.jpg,Green_Plus_Grid_3.jpg,right,1096.655000001192,true,NA,true
VAaVt1TL,3y3czjszan6hsnojzw5z9ps3vnar5b,30iqtzxkaoj4hwmo2rah6wer2no0xt,VAaVt1TL,2020-0188,2020-06-04,08:41:28,08:59:17,NA,incomplete,12,color,0,1,left,Purple_Circle_Chess_3.jpg,Purple_Star_Dots_1.jpg,Red_Plus_Grid_3.jpg,left,959.595000022091,true,NA,true
VAaVt1TL,3y3czjszan6hsnojzw5z9ps3vnar5b,30iqtzxkaoj4hwmo2rah6wer2no0xt,VAaVt1TL,2020-0188,2020-06-04,08:41:28,08:59:17,NA,incomplete,13,color,0,1,right,Red_Star_Grid_1.jpg,Blue_Triangle_Dots_1.jpg,Red_Plus_Chess_4.jpg,right,698.9250000333413,true,NA,true
VAaVt1TL,3y3czjszan6hsnojzw5z9ps3vnar5b,30iqtzxkaoj4hwmo2rah6wer2no0xt,VAaVt1TL,2020-0188,2020-06-04,08:41:28,08:59:17,NA,incomplete,14,color,0,1,left,Red_Circle_Chess_4.jpg,Red_Star_Dots_3.jpg,Blue_Plus_Stripes_4.jpg,left,578.099999926053,true,NA,true
VAaVt1TL,3y3czjszan6hsnojzw5z9ps3vnar5b,30iqtzxkaoj4hwmo2rah6wer2no0xt,VAaVt1TL,2020-0188,2020-06-04,08:41:28,08:59:17,NA,incomplete,15,color,0,0,right,Purple_Plus_Grid_1.jpg,Blue_Star_Stripes_1.jpg,Purple_Triangle_Chess_2.jpg,right,701.329999952577,true,NA,true
VAaVt1TL,3y3czjszan6hsnojzw5z9ps3vnar5b,30iqtzxkaoj4hwmo2rah6wer2no0xt,VAaVt1TL,2020-0188,2020-06-04,08:41:28,08:59:17,NA,incomplete,16,color,0,1,left,Purple_Circle_Stripes_4.jpg,Purple_Triangle_Chess_3.jpg,Red_Plus_Grid_4.jpg,left,627.4950000224635,true,NA,true
VAaVt1TL,3y3czjszan6hsnojzw5z9ps3vnar5b,30iqtzxkaoj4hwmo2rah6wer2no0xt,VAaVt1TL,2020-0188,2020-06-04,08:41:28,08:59:17,NA,incomplete,17,color,0,1,right,Purple_Plus_Grid_4.jpg,Green_Star_Chess_4.jpg,Purple_Triangle_Stripes_3.jpg,right,596.8299999367446,true,NA,true
VAaVt1TL,3y3czjszan6hsnojzw5z9ps3vnar5b,30iqtzxkaoj4hwmo2rah6wer2no0xt,VAaVt1TL,2020-0188,2020-06-04,08:41:28,08:59:17,NA,incomplete,18,color,0,1,right,Green_Circle_Stripes_1.jpg,Blue_Plus_Dots_1.jpg,Green_Star_Chess_3.jpg,right,607.3300000280142,true,NA,true
VAaVt1TL,3y3czjszan6hsnojzw5z9ps3vnar5b,30iqtzxkaoj4hwmo2rah6wer2no0xt,VAaVt1TL,2020-0188,2020-06-04,08:41:28,08:59:17,NA,incomplete,19,color,0,1,right,Green_Triangle_Dots_3.jpg,Red_Circle_Chess_3.jpg,Green_Plus_Grid_1.jpg,right,609.7849999787286,true,NA,true
VAaVt1TL,3y3czjszan6hsnojzw5z9ps3vnar5b,30iqtzxkaoj4hwmo2rah6wer2no0xt,VAaVt1TL,2020-0188,2020-06-04,08:41:28,08:59:17,NA,incomplete,20,number,1,1,left,Green_Triangle_Chess_3.jpg,Red_Circle_Dots_3.jpg,Green_Star_Grid_4.jpg,left,1539.9299999698997,true,NA,true
VAaVt1TL,3y3czjszan6hsnojzw5z9ps3vnar5b,30iqtzxkaoj4hwmo2rah6wer2no0xt,VAaVt1TL,2020-0188,2020-06-04,08:41:28,08:59:17,NA,incomplete,21,number,1,1,left,Blue_Star_Dots_4.jpg,Purple_Circle_Chess_4.jpg,Blue_Plus_Stripes_1.jpg,left,1679.9400000600144,true,NA,true
VAaVt1TL,3y3czjszan6hsnojzw5z9ps3vnar5b,30iqtzxkaoj4hwmo2rah6wer2no0xt,VAaVt1TL,2020-0188,2020-06-04,08:41:28,08:59:17,NA,incomplete,22,number,1,1,right,Purple_Star_Chess_1.jpg,Purple_Triangle_Dots_2.jpg,Red_Plus_Grid_1.jpg,right,1198.1549999909475,true,NA,true
VAaVt1TL,3y3czjszan6hsnojzw5z9ps3vnar5b,30iqtzxkaoj4hwmo2rah6wer2no0xt,VAaVt1TL,2020-0188,2020-06-04,08:41:28,08:59:17,NA,incomplete,23,number,1,1,right,Green_Triangle_Grid_3.jpg,Green_Star_Stripes_4.jpg,Purple_Plus_Dots_3.jpg,right,1424.2450000019744,true,NA,true
VAaVt1TL,3y3czjszan6hsnojzw5z9ps3vnar5b,30iqtzxkaoj4hwmo2rah6wer2no0xt,VAaVt1TL,2020-0188,2020-06-04,08:41:28,08:59:17,NA,incomplete,24,number,1,1,left,Blue_Plus_Grid_3.jpg,Green_Star_Stripes_3.jpg,Blue_Triangle_Chess_1.jpg,left,1176.9700000295416,true,NA,true
VAaVt1TL,3y3czjszan6hsnojzw5z9ps3vnar5b,30iqtzxkaoj4hwmo2rah6wer2no0xt,VAaVt1TL,2020-0188,2020-06-04,08:41:28,08:59:17,NA,incomplete,25,number,1,1,right,Red_Star_Stripes_4.jpg,Red_Plus_Chess_1.jpg,Green_Triangle_Dots_4.jpg,right,1028.5999999614432,true,NA,true
VAaVt1TL,3y3czjszan6hsnojzw5z9ps3vnar5b,30iqtzxkaoj4hwmo2rah6wer2no0xt,VAaVt1TL,2020-0188,2020-06-04,08:41:28,08:59:17,NA,incomplete,26,number,1,0,left,Green_Plus_Grid_1.jpg,Red_Circle_Dots_1.jpg,Green_Triangle_Stripes_3.jpg,left,1037.4600000213832,true,NA,true
VAaVt1TL,3y3czjszan6hsnojzw5z9ps3vnar5b,30iqtzxkaoj4hwmo2rah6wer2no0xt,VAaVt1TL,2020-0188,2020-06-04,08:41:28,08:59:17,NA,incomplete,27,number,1,1,right,Red_Plus_Grid_2.jpg,Red_Circle_Stripes_1.jpg,Blue_Triangle_Chess_2.jpg,right,982.2200000053272,true,NA,true
VAaVt1TL,3y3czjszan6hsnojzw5z9ps3vnar5b,30iqtzxkaoj4hwmo2rah6wer2no0xt,VAaVt1TL,2020-0188,2020-06-04,08:41:28,08:59:17,NA,incomplete,28,number,1,1,right,Green_Circle_Stripes_1.jpg,Green_Plus_Chess_2.jpg,Purple_Star_Dots_1.jpg,left,632.564999978058,false,NA,true
VAaVt1TL,3y3czjszan6hsnojzw5z9ps3vnar5b,30iqtzxkaoj4hwmo2rah6wer2no0xt,VAaVt1TL,2020-0188,2020-06-04,08:41:28,08:59:17,NA,incomplete,29,number,1,0,right,Green_Star_Grid_1.jpg,Green_Triangle_Chess_4.jpg,Blue_Circle_Dots_1.jpg,right,985.8700000913814,true,NA,true
VAaVt1TL,3y3czjszan6hsnojzw5z9ps3vnar5b,30iqtzxkaoj4hwmo2rah6wer2no0xt,VAaVt1TL,2020-0188,2020-06-04,08:41:28,08:59:17,NA,incomplete,30,number,1,0,left,Blue_Circle_Chess_1.jpg,Purple_Star_Stripes_1.jpg,Blue_Triangle_Dots_4.jpg,left,1340.9749999409541,true,NA,true
VAaVt1TL,3y3czjszan6hsnojzw5z9ps3vnar5b,30iqtzxkaoj4hwmo2rah6wer2no0xt,VAaVt1TL,2020-0188,2020-06-04,08:41:28,08:59:17,NA,incomplete,31,number,1,1,right,Blue_Circle_Grid_2.jpg,Blue_Plus_Chess_4.jpg,Purple_Star_Dots_2.jpg,right,1097.2699999110773,true,NA,true
VAaVt1TL,3y3czjszan6hsnojzw5z9ps3vnar5b,30iqtzxkaoj4hwmo2rah6wer2no0xt,VAaVt1TL,2020-0188,2020-06-04,08:41:28,08:59:17,NA,incomplete,32,number,1,1,right,Blue_Star_Grid_3.jpg,Blue_Plus_Dots_2.jpg,Purple_Circle_Chess_3.jpg,right,1046.665000030771,true,NA,true
VAaVt1TL,3y3czjszan6hsnojzw5z9ps3vnar5b,30iqtzxkaoj4hwmo2rah6wer2no0xt,VAaVt1TL,2020-0188,2020-06-04,08:41:28,08:59:17,NA,incomplete,33,number,1,1,left,Purple_Circle_Dots_4.jpg,Blue_Plus_Grid_4.jpg,Purple_Triangle_Stripes_2.jpg,left,1039.6450000116602,true,NA,true
VAaVt1TL,3y3czjszan6hsnojzw5z9ps3vnar5b,30iqtzxkaoj4hwmo2rah6wer2no0xt,VAaVt1TL,2020-0188,2020-06-04,08:41:28,08:59:17,NA,incomplete,34,number,1,1,left,Green_Circle_Grid_4.jpg,Blue_Triangle_Stripes_4.jpg,Green_Star_Dots_1.jpg,left,1087.5399999786168,true,NA,true
VAaVt1TL,3y3czjszan6hsnojzw5z9ps3vnar5b,30iqtzxkaoj4hwmo2rah6wer2no0xt,VAaVt1TL,2020-0188,2020-06-04,08:41:28,08:59:17,NA,incomplete,35,number,1,1,left,Green_Star_Grid_4.jpg,Red_Circle_Dots_4.jpg,Green_Triangle_Chess_1.jpg,left,975.235000019893,true,NA,true
VAaVt1TL,3y3czjszan6hsnojzw5z9ps3vnar5b,30iqtzxkaoj4hwmo2rah6wer2no0xt,VAaVt1TL,2020-0188,2020-06-04,08:41:28,08:59:17,NA,incomplete,36,number,1,1,left,Blue_Star_Dots_2.jpg,Red_Triangle_Grid_2.jpg,Blue_Circle_Stripes_3.jpg,left,1498.0300000170246,true,NA,true
VAaVt1TL,3y3czjszan6hsnojzw5z9ps3vnar5b,30iqtzxkaoj4hwmo2rah6wer2no0xt,VAaVt1TL,2020-0188,2020-06-04,08:41:28,08:59:17,NA,incomplete,37,number,1,1,left,Purple_Plus_Stripes_4.jpg,Red_Star_Grid_4.jpg,Purple_Circle_Dots_1.jpg,left,911.4849999314174,true,NA,true
VAaVt1TL,3y3czjszan6hsnojzw5z9ps3vnar5b,30iqtzxkaoj4hwmo2rah6wer2no0xt,VAaVt1TL,2020-0188,2020-06-04,08:41:28,08:59:17,NA,incomplete,38,number,1,1,left,Green_Circle_Grid_1.jpg,Red_Plus_Dots_1.jpg,Green_Star_Stripes_2.jpg,left,1381.8249999312684,true,NA,true
VAaVt1TL,3y3czjszan6hsnojzw5z9ps3vnar5b,30iqtzxkaoj4hwmo2rah6wer2no0xt,VAaVt1TL,2020-0188,2020-06-04,08:41:28,08:59:17,NA,incomplete,39,number,1,1,left,Green_Triangle_Grid_1.jpg,Blue_Star_Dots_1.jpg,Green_Plus_Chess_2.jpg,left,720.4599999822676,true,NA,true
VAaVt1TL,3y3czjszan6hsnojzw5z9ps3vnar5b,30iqtzxkaoj4hwmo2rah6wer2no0xt,VAaVt1TL,2020-0188,2020-06-04,08:41:28,08:59:17,NA,incomplete,0,color,0,0,left,Green_Star_Dots_2.jpg,Green_Plus_Chess_1.jpg,Red_Triangle_Grid_2.jpg,right,1134.3650000635535,false,high,false
VAaVt1TL,3y3czjszan6hsnojzw5z9ps3vnar5b,30iqtzxkaoj4hwmo2rah6wer2no0xt,VAaVt1TL,2020-0188,2020-06-04,08:41:28,08:59:17,NA,incomplete,1,color,0,1,left,Red_Triangle_Stripes_3.jpg,Red_Circle_Dots_1.jpg,Green_Star_Grid_3.jpg,right,738.9299999922514,false,high,false
VAaVt1TL,3y3czjszan6hsnojzw5z9ps3vnar5b,30iqtzxkaoj4hwmo2rah6wer2no0xt,VAaVt1TL,2020-0188,2020-06-04,08:41:28,08:59:17,NA,incomplete,2,color,0,1,right,Green_Star_Stripes_4.jpg,Purple_Triangle_Chess_4.jpg,Green_Circle_Dots_2.jpg,left,736.100000096485,false,high,false
VAaVt1TL,3y3czjszan6hsnojzw5z9ps3vnar5b,30iqtzxkaoj4hwmo2rah6wer2no0xt,VAaVt1TL,2020-0188,2020-06-04,08:41:28,08:59:17,NA,incomplete,3,color,0,1,right,Purple_Star_Dots_3.jpg,Red_Triangle_Grid_3.jpg,Purple_Circle_Chess_2.jpg,left,876.4749999390915,false,high,false
VAaVt1TL,3y3czjszan6hsnojzw5z9ps3vnar5b,30iqtzxkaoj4hwmo2rah6wer2no0xt,VAaVt1TL,2020-0188,2020-06-04,08:41:28,08:59:17,NA,incomplete,4,color,0,1,right,Blue_Star_Dots_3.jpg,Red_Plus_Chess_3.jpg,Blue_Triangle_Grid_4.jpg,right,900.0200000591576,true,high,false
VAaVt1TL,3y3czjszan6hsnojzw5z9ps3vnar5b,30iqtzxkaoj4hwmo2rah6wer2no0xt,VAaVt1TL,2020-0188,2020-06-04,08:41:28,08:59:17,NA,incomplete,5,color,0,1,left,Purple_Circle_Grid_1.jpg,Purple_Plus_Stripes_2.jpg,Red_Triangle_Chess_1.jpg,left,730.1799999549985,true,high,false
VAaVt1TL,3y3czjszan6hsnojzw5z9ps3vnar5b,30iqtzxkaoj4hwmo2rah6wer2no0xt,VAaVt1TL,2020-0188,2020-06-04,08:41:28,08:59:17,NA,incomplete,6,color,0,1,left,Blue_Star_Dots_2.jpg,Blue_Plus_Grid_1.jpg,Green_Triangle_Stripes_2.jpg,left,647.9050000198185,true,high,false
VAaVt1TL,3y3czjszan6hsnojzw5z9ps3vnar5b,30iqtzxkaoj4hwmo2rah6wer2no0xt,VAaVt1TL,2020-0188,2020-06-04,08:41:28,08:59:17,NA,incomplete,7,color,0,1,left,Green_Star_Grid_2.jpg,Green_Plus_Dots_1.jpg,Red_Triangle_Stripes_2.jpg,left,600.3800000762567,true,high,false
VAaVt1TL,3y3czjszan6hsnojzw5z9ps3vnar5b,30iqtzxkaoj4hwmo2rah6wer2no0xt,VAaVt1TL,2020-0188,2020-06-04,08:41:28,08:59:17,NA,incomplete,8,color,0,1,right,Purple_Triangle_Stripes_1.jpg,Blue_Circle_Grid_1.jpg,Purple_Plus_Dots_4.jpg,right,858.9350000256673,true,high,false
VAaVt1TL,3y3czjszan6hsnojzw5z9ps3vnar5b,30iqtzxkaoj4hwmo2rah6wer2no0xt,VAaVt1TL,2020-0188,2020-06-04,08:41:28,08:59:17,NA,incomplete,9,color,0,1,right,Green_Triangle_Dots_1.jpg,Red_Star_Chess_1.jpg,Green_Circle_Grid_4.jpg,right,587.0300000533462,true,high,false
VAaVt1TL,3y3czjszan6hsnojzw5z9ps3vnar5b,30iqtzxkaoj4hwmo2rah6wer2no0xt,VAaVt1TL,2020-0188,2020-06-04,08:41:28,08:59:17,NA,incomplete,10,number,1,1,right,Red_Plus_Stripes_1.jpg,Red_Star_Dots_4.jpg,Purple_Circle_Grid_1.jpg,left,606.1099999351427,false,high,false
VAaVt1TL,3y3czjszan6hsnojzw5z9ps3vnar5b,30iqtzxkaoj4hwmo2rah6wer2no0xt,VAaVt1TL,2020-0188,2020-06-04,08:41:28,08:59:17,NA,incomplete,11,number,1,1,left,Red_Star_Stripes_2.jpg,Purple_Triangle_Chess_2.jpg,Red_Circle_Dots_4.jpg,right,903.5150000127032,false,high,false
VAaVt1TL,3y3czjszan6hsnojzw5z9ps3vnar5b,30iqtzxkaoj4hwmo2rah6wer2no0xt,VAaVt1TL,2020-0188,2020-06-04,08:41:28,08:59:17,NA,incomplete,12,number,1,1,left,Green_Triangle_Grid_2.jpg,Red_Circle_Chess_2.jpg,Green_Plus_Stripes_1.jpg,left,845.6749999895692,true,high,false
VAaVt1TL,3y3czjszan6hsnojzw5z9ps3vnar5b,30iqtzxkaoj4hwmo2rah6wer2no0xt,VAaVt1TL,2020-0188,2020-06-04,08:41:28,08:59:17,NA,incomplete,13,number,1,1,right,Purple_Circle_Grid_4.jpg,Purple_Star_Dots_3.jpg,Green_Triangle_Chess_4.jpg,left,846.4600000297651,false,high,false
VAaVt1TL,3y3czjszan6hsnojzw5z9ps3vnar5b,30iqtzxkaoj4hwmo2rah6wer2no0xt,VAaVt1TL,2020-0188,2020-06-04,08:41:28,08:59:17,NA,incomplete,14,number,1,0,left,Green_Star_Grid_4.jpg,Purple_Circle_Chess_4.jpg,Green_Plus_Stripes_1.jpg,left,1007.2500000242144,true,high,false
VAaVt1TL,3y3czjszan6hsnojzw5z9ps3vnar5b,30iqtzxkaoj4hwmo2rah6wer2no0xt,VAaVt1TL,2020-0188,2020-06-04,08:41:28,08:59:17,NA,incomplete,15,number,1,1,right,Purple_Star_Stripes_1.jpg,Purple_Circle_Grid_4.jpg,Green_Plus_Chess_1.jpg,right,1065.3099999763072,true,high,false
VAaVt1TL,3y3czjszan6hsnojzw5z9ps3vnar5b,30iqtzxkaoj4hwmo2rah6wer2no0xt,VAaVt1TL,2020-0188,2020-06-04,08:41:28,08:59:17,NA,incomplete,16,number,1,1,right,Blue_Plus_Grid_2.jpg,Blue_Star_Chess_3.jpg,Green_Circle_Dots_2.jpg,right,936.0800000140443,true,high,false
VAaVt1TL,3y3czjszan6hsnojzw5z9ps3vnar5b,30iqtzxkaoj4hwmo2rah6wer2no0xt,VAaVt1TL,2020-0188,2020-06-04,08:41:28,08:59:17,NA,incomplete,17,number,1,1,left,Purple_Plus_Dots_3.jpg,Red_Triangle_Stripes_3.jpg,Purple_Star_Chess_2.jpg,left,1053.4749999642372,true,high,false
VAaVt1TL,3y3czjszan6hsnojzw5z9ps3vnar5b,30iqtzxkaoj4hwmo2rah6wer2no0xt,VAaVt1TL,2020-0188,2020-06-04,08:41:28,08:59:17,NA,incomplete,18,number,1,1,left,Blue_Triangle_Grid_1.jpg,Red_Circle_Stripes_1.jpg,Blue_Star_Chess_3.jpg,left,1013.2549999980256,true,high,false
VAaVt1TL,3y3czjszan6hsnojzw5z9ps3vnar5b,30iqtzxkaoj4hwmo2rah6wer2no0xt,VAaVt1TL,2020-0188,2020-06-04,08:41:28,08:59:17,NA,incomplete,19,number,1,0,left,Green_Triangle_Grid_3.jpg,Red_Star_Chess_3.jpg,Green_Plus_Stripes_4.jpg,left,878.2699999865144,true,high,false
VAaVt1TL,3y3czjszan6hsnojzw5z9ps3vnar5b,30iqtzxkaoj4hwmo2rah6wer2no0xt,VAaVt1TL,2020-0188,2020-06-04,08:41:28,08:59:17,NA,incomplete,20,color,0,0,right,Red_Star_Dots_1.jpg,Purple_Circle_Chess_1.jpg,Red_Triangle_Grid_2.jpg,left,885.1250000298023,false,high,false
VAaVt1TL,3y3czjszan6hsnojzw5z9ps3vnar5b,30iqtzxkaoj4hwmo2rah6wer2no0xt,VAaVt1TL,2020-0188,2020-06-04,08:41:28,08:59:17,NA,incomplete,21,color,0,1,right,Blue_Plus_Chess_2.jpg,Green_Star_Stripes_2.jpg,Blue_Circle_Dots_1.jpg,left,708.3449999336153,false,high,false
VAaVt1TL,3y3czjszan6hsnojzw5z9ps3vnar5b,30iqtzxkaoj4hwmo2rah6wer2no0xt,VAaVt1TL,2020-0188,2020-06-04,08:41:28,08:59:17,NA,incomplete,22,color,0,0,left,Blue_Plus_Stripes_1.jpg,Blue_Circle_Chess_4.jpg,Green_Star_Grid_1.jpg,right,1026.5950000612065,false,high,false
VAaVt1TL,3y3czjszan6hsnojzw5z9ps3vnar5b,30iqtzxkaoj4hwmo2rah6wer2no0xt,VAaVt1TL,2020-0188,2020-06-04,08:41:28,08:59:17,NA,incomplete,23,color,0,1,right,Purple_Star_Stripes_2.jpg,Blue_Circle_Chess_2.jpg,Purple_Plus_Grid_3.jpg,left,803.9100000169128,false,high,false
VAaVt1TL,3y3czjszan6hsnojzw5z9ps3vnar5b,30iqtzxkaoj4hwmo2rah6wer2no0xt,VAaVt1TL,2020-0188,2020-06-04,08:41:28,08:59:17,NA,incomplete,24,color,0,0,left,Purple_Triangle_Dots_4.jpg,Purple_Star_Stripes_1.jpg,Blue_Circle_Chess_4.jpg,right,732.7649999642745,false,high,false
VAaVt1TL,3y3czjszan6hsnojzw5z9ps3vnar5b,30iqtzxkaoj4hwmo2rah6wer2no0xt,VAaVt1TL,2020-0188,2020-06-04,08:41:28,08:59:17,NA,incomplete,25,color,0,1,right,Green_Star_Dots_1.jpg,Blue_Plus_Chess_1.jpg,Green_Circle_Stripes_2.jpg,left,1027.3700000252575,false,high,false
VAaVt1TL,3y3czjszan6hsnojzw5z9ps3vnar5b,30iqtzxkaoj4hwmo2rah6wer2no0xt,VAaVt1TL,2020-0188,2020-06-04,08:41:28,08:59:17,NA,incomplete,26,color,0,1,right,Blue_Plus_Chess_3.jpg,Red_Star_Dots_3.jpg,Blue_Triangle_Grid_1.jpg,right,1220.1949999434873,true,high,false
VAaVt1TL,3y3czjszan6hsnojzw5z9ps3vnar5b,30iqtzxkaoj4hwmo2rah6wer2no0xt,VAaVt1TL,2020-0188,2020-06-04,08:41:28,08:59:17,NA,incomplete,27,color,0,1,right,Purple_Triangle_Chess_4.jpg,Green_Plus_Stripes_4.jpg,Purple_Star_Grid_3.jpg,right,1069.0649999305606,true,high,false
VAaVt1TL,3y3czjszan6hsnojzw5z9ps3vnar5b,30iqtzxkaoj4hwmo2rah6wer2no0xt,VAaVt1TL,2020-0188,2020-06-04,08:41:28,08:59:17,NA,incomplete,28,color,0,1,right,Green_Plus_Grid_2.jpg,Purple_Circle_Stripes_2.jpg,Green_Triangle_Dots_4.jpg,right,1044.0899999812245,true,high,false
VAaVt1TL,3y3czjszan6hsnojzw5z9ps3vnar5b,30iqtzxkaoj4hwmo2rah6wer2no0xt,VAaVt1TL,2020-0188,2020-06-04,08:41:28,08:59:17,NA,incomplete,29,color,0,1,left,Purple_Star_Stripes_3.jpg,Purple_Triangle_Chess_4.jpg,Red_Circle_Grid_3.jpg,left,643.9900000113994,true,high,false
VAaVt1TL,3y3czjszan6hsnojzw5z9ps3vnar5b,30iqtzxkaoj4hwmo2rah6wer2no0xt,VAaVt1TL,2020-0188,2020-06-04,08:41:28,08:59:17,NA,incomplete,30,number,1,1,left,Red_Plus_Dots_3.jpg,Green_Star_Chess_3.jpg,Red_Triangle_Stripes_4.jpg,right,1261.4049999974668,false,high,false
VAaVt1TL,3y3czjszan6hsnojzw5z9ps3vnar5b,30iqtzxkaoj4hwmo2rah6wer2no0xt,VAaVt1TL,2020-0188,2020-06-04,08:41:28,08:59:17,NA,incomplete,31,number,1,1,left,Red_Plus_Dots_4.jpg,Purple_Circle_Chess_4.jpg,Red_Triangle_Grid_3.jpg,right,644.1000000340864,false,high,false
VAaVt1TL,3y3czjszan6hsnojzw5z9ps3vnar5b,30iqtzxkaoj4hwmo2rah6wer2no0xt,VAaVt1TL,2020-0188,2020-06-04,08:41:28,08:59:17,NA,incomplete,32,number,1,1,right,Red_Circle_Dots_4.jpg,Red_Triangle_Chess_2.jpg,Purple_Star_Stripes_4.jpg,right,901.8849999411032,true,high,false
VAaVt1TL,3y3czjszan6hsnojzw5z9ps3vnar5b,30iqtzxkaoj4hwmo2rah6wer2no0xt,VAaVt1TL,2020-0188,2020-06-04,08:41:28,08:59:17,NA,incomplete,33,number,1,1,left,Red_Circle_Dots_4.jpg,Blue_Triangle_Chess_4.jpg,Red_Plus_Grid_1.jpg,left,602.8249999508262,true,high,false
VAaVt1TL,3y3czjszan6hsnojzw5z9ps3vnar5b,30iqtzxkaoj4hwmo2rah6wer2no0xt,VAaVt1TL,2020-0188,2020-06-04,08:41:28,08:59:17,NA,incomplete,34,number,1,0,right,Green_Triangle_Dots_4.jpg,Green_Star_Stripes_3.jpg,Purple_Plus_Chess_4.jpg,right,861.0849999822676,true,high,false
VAaVt1TL,3y3czjszan6hsnojzw5z9ps3vnar5b,30iqtzxkaoj4hwmo2rah6wer2no0xt,VAaVt1TL,2020-0188,2020-06-04,08:41:28,08:59:17,NA,incomplete,35,number,1,1,right,Green_Circle_Grid_3.jpg,Green_Star_Chess_2.jpg,Blue_Triangle_Dots_3.jpg,right,829.0599999018013,true,high,false
VAaVt1TL,3y3czjszan6hsnojzw5z9ps3vnar5b,30iqtzxkaoj4hwmo2rah6wer2no0xt,VAaVt1TL,2020-0188,2020-06-04,08:41:28,08:59:17,NA,incomplete,36,number,1,1,left,Green_Circle_Dots_1.jpg,Purple_Star_Grid_1.jpg,Green_Triangle_Stripes_4.jpg,left,750.1700000138953,true,high,false
VAaVt1TL,3y3czjszan6hsnojzw5z9ps3vnar5b,30iqtzxkaoj4hwmo2rah6wer2no0xt,VAaVt1TL,2020-0188,2020-06-04,08:41:28,08:59:17,NA,incomplete,37,number,1,0,right,Purple_Triangle_Grid_4.jpg,Purple_Circle_Chess_3.jpg,Green_Star_Dots_4.jpg,left,1259.7200000891462,false,high,false
VAaVt1TL,3y3czjszan6hsnojzw5z9ps3vnar5b,30iqtzxkaoj4hwmo2rah6wer2no0xt,VAaVt1TL,2020-0188,2020-06-04,08:41:28,08:59:17,NA,incomplete,38,number,1,0,left,Blue_Triangle_Chess_3.jpg,Red_Star_Grid_3.jpg,Blue_Circle_Dots_2.jpg,right,746.1350000230595,false,high,false
VAaVt1TL,3y3czjszan6hsnojzw5z9ps3vnar5b,30iqtzxkaoj4hwmo2rah6wer2no0xt,VAaVt1TL,2020-0188,2020-06-04,08:41:28,08:59:17,NA,incomplete,39,number,1,0,left,Purple_Triangle_Dots_1.jpg,Green_Plus_Grid_1.jpg,Purple_Star_Stripes_2.jpg,right,831.4849999733269,false,high,false
VAaVt1TL,3y3czjszan6hsnojzw5z9ps3vnar5b,30iqtzxkaoj4hwmo2rah6wer2no0xt,VAaVt1TL,2020-0188,2020-06-04,08:41:28,08:59:17,NA,incomplete,40,color,0,1,right,Red_Plus_Grid_1.jpg,Green_Triangle_Stripes_1.jpg,Red_Circle_Dots_3.jpg,right,673.0600000591949,true,high,false
VAaVt1TL,3y3czjszan6hsnojzw5z9ps3vnar5b,30iqtzxkaoj4hwmo2rah6wer2no0xt,VAaVt1TL,2020-0188,2020-06-04,08:41:28,08:59:17,NA,incomplete,41,color,0,1,right,Green_Star_Dots_3.jpg,Blue_Circle_Stripes_3.jpg,Green_Triangle_Grid_1.jpg,right,696.1100000189617,true,high,false
VAaVt1TL,3y3czjszan6hsnojzw5z9ps3vnar5b,30iqtzxkaoj4hwmo2rah6wer2no0xt,VAaVt1TL,2020-0188,2020-06-04,08:41:28,08:59:17,NA,incomplete,42,color,0,1,left,Purple_Triangle_Stripes_3.jpg,Purple_Plus_Grid_2.jpg,Green_Circle_Chess_3.jpg,left,1422.6400000043213,true,high,false
VAaVt1TL,3y3czjszan6hsnojzw5z9ps3vnar5b,30iqtzxkaoj4hwmo2rah6wer2no0xt,VAaVt1TL,2020-0188,2020-06-04,08:41:28,08:59:17,NA,incomplete,43,color,0,1,left,Purple_Circle_Chess_1.jpg,Purple_Plus_Dots_4.jpg,Green_Triangle_Stripes_1.jpg,right,862.9049999872223,false,high,false
VAaVt1TL,3y3czjszan6hsnojzw5z9ps3vnar5b,30iqtzxkaoj4hwmo2rah6wer2no0xt,VAaVt1TL,2020-0188,2020-06-04,08:41:28,08:59:17,NA,incomplete,44,color,0,1,right,Red_Star_Grid_4.jpg,Green_Circle_Chess_4.jpg,Red_Triangle_Dots_3.jpg,right,639.1849999781698,true,high,false
VAaVt1TL,3y3czjszan6hsnojzw5z9ps3vnar5b,30iqtzxkaoj4hwmo2rah6wer2no0xt,VAaVt1TL,2020-0188,2020-06-04,08:41:28,08:59:17,NA,incomplete,45,color,0,1,right,Green_Triangle_Stripes_3.jpg,Purple_Plus_Chess_3.jpg,Green_Star_Dots_4.jpg,right,712.7450000261888,true,high,false
VAaVt1TL,3y3czjszan6hsnojzw5z9ps3vnar5b,30iqtzxkaoj4hwmo2rah6wer2no0xt,VAaVt1TL,2020-0188,2020-06-04,08:41:28,08:59:17,NA,incomplete,46,color,0,1,right,Red_Star_Chess_2.jpg,Green_Triangle_Dots_2.jpg,Red_Plus_Stripes_1.jpg,right,734.0349999722093,true,high,false
VAaVt1TL,3y3czjszan6hsnojzw5z9ps3vnar5b,30iqtzxkaoj4hwmo2rah6wer2no0xt,VAaVt1TL,2020-0188,2020-06-04,08:41:28,08:59:17,NA,incomplete,47,color,0,1,left,Red_Triangle_Grid_3.jpg,Red_Circle_Stripes_2.jpg,Green_Star_Dots_3.jpg,left,827.2799999685958,true,high,false
VAaVt1TL,3y3czjszan6hsnojzw5z9ps3vnar5b,30iqtzxkaoj4hwmo2rah6wer2no0xt,VAaVt1TL,2020-0188,2020-06-04,08:41:28,08:59:17,NA,incomplete,48,color,0,1,left,Blue_Triangle_Chess_3.jpg,Blue_Plus_Dots_4.jpg,Green_Circle_Grid_3.jpg,left,635.9350000275299,true,high,false
VAaVt1TL,3y3czjszan6hsnojzw5z9ps3vnar5b,30iqtzxkaoj4hwmo2rah6wer2no0xt,VAaVt1TL,2020-0188,2020-06-04,08:41:28,08:59:17,NA,incomplete,49,color,0,1,left,Red_Circle_Stripes_4.jpg,Red_Triangle_Chess_1.jpg,Blue_Star_Grid_4.jpg,left,765.4150000307709,true,high,false
VAaVt1TL,3y3czjszan6hsnojzw5z9ps3vnar5b,30iqtzxkaoj4hwmo2rah6wer2no0xt,VAaVt1TL,2020-0188,2020-06-04,08:41:28,08:59:17,NA,incomplete,50,number,1,1,right,Purple_Triangle_Chess_4.jpg,Purple_Star_Dots_3.jpg,Green_Plus_Grid_4.jpg,left,817.5099999643862,false,high,false
VAaVt1TL,3y3czjszan6hsnojzw5z9ps3vnar5b,30iqtzxkaoj4hwmo2rah6wer2no0xt,VAaVt1TL,2020-0188,2020-06-04,08:41:28,08:59:17,NA,incomplete,51,number,1,1,left,Blue_Plus_Dots_4.jpg,Purple_Triangle_Stripes_4.jpg,Blue_Circle_Grid_1.jpg,right,642.945000086911,false,high,false
VAaVt1TL,3y3czjszan6hsnojzw5z9ps3vnar5b,30iqtzxkaoj4hwmo2rah6wer2no0xt,VAaVt1TL,2020-0188,2020-06-04,08:41:28,08:59:17,NA,incomplete,52,number,1,0,right,Green_Circle_Chess_1.jpg,Green_Triangle_Grid_2.jpg,Red_Plus_Stripes_1.jpg,right,908.4049999946728,true,high,false
VAaVt1TL,3y3czjszan6hsnojzw5z9ps3vnar5b,30iqtzxkaoj4hwmo2rah6wer2no0xt,VAaVt1TL,2020-0188,2020-06-04,08:41:28,08:59:17,NA,incomplete,53,number,1,1,left,Blue_Plus_Stripes_2.jpg,Red_Circle_Dots_2.jpg,Blue_Triangle_Grid_4.jpg,left,818.3450000360608,true,high,false
VAaVt1TL,3y3czjszan6hsnojzw5z9ps3vnar5b,30iqtzxkaoj4hwmo2rah6wer2no0xt,VAaVt1TL,2020-0188,2020-06-04,08:41:28,08:59:17,NA,incomplete,54,number,1,1,left,Green_Plus_Dots_1.jpg,Purple_Triangle_Chess_1.jpg,Green_Circle_Stripes_3.jpg,left,899.5799999684095,true,high,false
VAaVt1TL,3y3czjszan6hsnojzw5z9ps3vnar5b,30iqtzxkaoj4hwmo2rah6wer2no0xt,VAaVt1TL,2020-0188,2020-06-04,08:41:28,08:59:17,NA,incomplete,55,number,1,1,left,Purple_Star_Dots_4.jpg,Blue_Triangle_Chess_4.jpg,Purple_Plus_Stripes_3.jpg,left,1313.5400000028312,true,high,false
VAaVt1TL,3y3czjszan6hsnojzw5z9ps3vnar5b,30iqtzxkaoj4hwmo2rah6wer2no0xt,VAaVt1TL,2020-0188,2020-06-04,08:41:28,08:59:17,NA,incomplete,56,number,1,1,right,Red_Circle_Chess_2.jpg,Red_Star_Grid_3.jpg,Green_Plus_Dots_2.jpg,right,783.3300000056624,true,high,false
VAaVt1TL,3y3czjszan6hsnojzw5z9ps3vnar5b,30iqtzxkaoj4hwmo2rah6wer2no0xt,VAaVt1TL,2020-0188,2020-06-04,08:41:28,08:59:17,NA,incomplete,57,number,1,1,right,Green_Plus_Chess_3.jpg,Green_Circle_Grid_4.jpg,Purple_Star_Stripes_3.jpg,right,818.9799999818206,true,high,false
VAaVt1TL,3y3czjszan6hsnojzw5z9ps3vnar5b,30iqtzxkaoj4hwmo2rah6wer2no0xt,VAaVt1TL,2020-0188,2020-06-04,08:41:28,08:59:17,NA,incomplete,58,number,1,1,right,Green_Triangle_Grid_3.jpg,Green_Star_Dots_1.jpg,Red_Plus_Chess_3.jpg,right,707.7099999878556,true,high,false
VAaVt1TL,3y3czjszan6hsnojzw5z9ps3vnar5b,30iqtzxkaoj4hwmo2rah6wer2no0xt,VAaVt1TL,2020-0188,2020-06-04,08:41:28,08:59:17,NA,incomplete,59,number,1,1,left,Red_Star_Stripes_2.jpg,Green_Triangle_Grid_2.jpg,Red_Circle_Chess_1.jpg,left,690.0949999690056,true,high,false
VAaVt1TL,3y3czjszan6hsnojzw5z9ps3vnar5b,30iqtzxkaoj4hwmo2rah6wer2no0xt,VAaVt1TL,2020-0188,2020-06-04,08:41:28,08:59:17,NA,incomplete,60,color,0,1,left,Red_Circle_Chess_4.jpg,Red_Plus_Stripes_3.jpg,Green_Triangle_Grid_4.jpg,right,864.4199999980628,false,high,false
VAaVt1TL,3y3czjszan6hsnojzw5z9ps3vnar5b,30iqtzxkaoj4hwmo2rah6wer2no0xt,VAaVt1TL,2020-0188,2020-06-04,08:41:28,08:59:17,NA,incomplete,61,color,0,1,left,Blue_Star_Chess_1.jpg,Blue_Circle_Dots_4.jpg,Purple_Plus_Stripes_1.jpg,right,784.6099999733269,false,high,false
VAaVt1TL,3y3czjszan6hsnojzw5z9ps3vnar5b,30iqtzxkaoj4hwmo2rah6wer2no0xt,VAaVt1TL,2020-0188,2020-06-04,08:41:28,08:59:17,NA,incomplete,62,color,0,0,left,Green_Triangle_Stripes_3.jpg,Green_Star_Grid_4.jpg,Red_Plus_Chess_3.jpg,left,667.0150000136346,true,high,false
VAaVt1TL,3y3czjszan6hsnojzw5z9ps3vnar5b,30iqtzxkaoj4hwmo2rah6wer2no0xt,VAaVt1TL,2020-0188,2020-06-04,08:41:28,08:59:17,NA,incomplete,63,color,0,0,left,Red_Star_Stripes_4.jpg,Red_Circle_Grid_2.jpg,Blue_Plus_Chess_4.jpg,left,754.9350000917912,true,high,false
VAaVt1TL,3y3czjszan6hsnojzw5z9ps3vnar5b,30iqtzxkaoj4hwmo2rah6wer2no0xt,VAaVt1TL,2020-0188,2020-06-04,08:41:28,08:59:17,NA,incomplete,64,color,0,1,left,Blue_Star_Dots_1.jpg,Blue_Triangle_Grid_4.jpg,Green_Plus_Stripes_1.jpg,right,695.1650000410154,false,high,false
VAaVt1TL,3y3czjszan6hsnojzw5z9ps3vnar5b,30iqtzxkaoj4hwmo2rah6wer2no0xt,VAaVt1TL,2020-0188,2020-06-04,08:41:28,08:59:17,NA,incomplete,65,color,0,1,right,Green_Star_Grid_1.jpg,Red_Circle_Dots_1.jpg,Green_Plus_Stripes_3.jpg,left,749.3800000520423,false,high,false
VAaVt1TL,3y3czjszan6hsnojzw5z9ps3vnar5b,30iqtzxkaoj4hwmo2rah6wer2no0xt,VAaVt1TL,2020-0188,2020-06-04,08:41:28,08:59:17,NA,incomplete,66,color,0,0,left,Purple_Star_Stripes_2.jpg,Purple_Triangle_Chess_4.jpg,Green_Plus_Dots_2.jpg,left,1010.8349999645725,true,high,false
VAaVt1TL,3y3czjszan6hsnojzw5z9ps3vnar5b,30iqtzxkaoj4hwmo2rah6wer2no0xt,VAaVt1TL,2020-0188,2020-06-04,08:41:28,08:59:17,NA,incomplete,67,color,0,1,left,Purple_Star_Stripes_2.jpg,Purple_Plus_Dots_4.jpg,Green_Circle_Grid_2.jpg,left,956.18499990087,true,high,false
VAaVt1TL,3y3czjszan6hsnojzw5z9ps3vnar5b,30iqtzxkaoj4hwmo2rah6wer2no0xt,VAaVt1TL,2020-0188,2020-06-04,08:41:28,08:59:17,NA,incomplete,68,color,0,0,right,Purple_Circle_Grid_3.jpg,Red_Triangle_Dots_3.jpg,Purple_Plus_Stripes_4.jpg,right,935.910000000149,true,high,false
VAaVt1TL,3y3czjszan6hsnojzw5z9ps3vnar5b,30iqtzxkaoj4hwmo2rah6wer2no0xt,VAaVt1TL,2020-0188,2020-06-04,08:41:28,08:59:17,NA,incomplete,69,color,0,1,left,Red_Circle_Dots_2.jpg,Red_Star_Grid_4.jpg,Purple_Triangle_Stripes_2.jpg,left,1060.9000000404194,true,high,false
VAaVt1TL,3y3czjszan6hsnojzw5z9ps3vnar5b,30iqtzxkaoj4hwmo2rah6wer2no0xt,VAaVt1TL,2020-0188,2020-06-04,08:41:28,08:59:17,NA,incomplete,70,number,1,1,right,Green_Star_Grid_1.jpg,Green_Plus_Chess_4.jpg,Red_Circle_Stripes_1.jpg,left,683.8650000281632,false,high,false
VAaVt1TL,3y3czjszan6hsnojzw5z9ps3vnar5b,30iqtzxkaoj4hwmo2rah6wer2no0xt,VAaVt1TL,2020-0188,2020-06-04,08:41:28,08:59:17,NA,incomplete,71,number,1,1,left,Green_Triangle_Grid_3.jpg,Blue_Circle_Stripes_3.jpg,Green_Plus_Chess_4.jpg,left,924.6350000612438,true,high,false
VAaVt1TL,3y3czjszan6hsnojzw5z9ps3vnar5b,30iqtzxkaoj4hwmo2rah6wer2no0xt,VAaVt1TL,2020-0188,2020-06-04,08:41:28,08:59:17,NA,incomplete,72,number,1,1,right,Purple_Star_Chess_2.jpg,Purple_Circle_Stripes_3.jpg,Red_Triangle_Grid_2.jpg,right,793.8400000566617,true,high,false
VAaVt1TL,3y3czjszan6hsnojzw5z9ps3vnar5b,30iqtzxkaoj4hwmo2rah6wer2no0xt,VAaVt1TL,2020-0188,2020-06-04,08:41:28,08:59:17,NA,incomplete,73,number,1,1,left,Red_Star_Grid_1.jpg,Purple_Plus_Chess_1.jpg,Red_Triangle_Dots_2.jpg,left,611.4550000056624,true,high,false
VAaVt1TL,3y3czjszan6hsnojzw5z9ps3vnar5b,30iqtzxkaoj4hwmo2rah6wer2no0xt,VAaVt1TL,2020-0188,2020-06-04,08:41:28,08:59:17,NA,incomplete,74,number,1,1,right,Purple_Triangle_Grid_4.jpg,Purple_Star_Chess_2.jpg,Blue_Plus_Stripes_4.jpg,left,1246.2049999739975,false,high,false
VAaVt1TL,3y3czjszan6hsnojzw5z9ps3vnar5b,30iqtzxkaoj4hwmo2rah6wer2no0xt,VAaVt1TL,2020-0188,2020-06-04,08:41:28,08:59:17,NA,incomplete,75,number,1,1,left,Red_Plus_Stripes_4.jpg,Green_Circle_Grid_4.jpg,Red_Triangle_Dots_1.jpg,left,1133.6799999698997,true,high,false
VAaVt1TL,3y3czjszan6hsnojzw5z9ps3vnar5b,30iqtzxkaoj4hwmo2rah6wer2no0xt,VAaVt1TL,2020-0188,2020-06-04,08:41:28,08:59:17,NA,incomplete,76,number,1,1,left,Red_Plus_Stripes_2.jpg,Blue_Triangle_Chess_2.jpg,Red_Circle_Grid_3.jpg,left,1283.1149999983609,true,high,false
VAaVt1TL,3y3czjszan6hsnojzw5z9ps3vnar5b,30iqtzxkaoj4hwmo2rah6wer2no0xt,VAaVt1TL,2020-0188,2020-06-04,08:41:28,08:59:17,NA,incomplete,77,number,1,0,left,Red_Circle_Stripes_4.jpg,Green_Triangle_Grid_4.jpg,Red_Star_Chess_3.jpg,left,697.3949999082834,true,high,false
VAaVt1TL,3y3czjszan6hsnojzw5z9ps3vnar5b,30iqtzxkaoj4hwmo2rah6wer2no0xt,VAaVt1TL,2020-0188,2020-06-04,08:41:28,08:59:17,NA,incomplete,78,number,1,1,right,Blue_Plus_Stripes_1.jpg,Blue_Triangle_Dots_4.jpg,Red_Circle_Grid_1.jpg,right,776.890000095591,true,high,false
VAaVt1TL,3y3czjszan6hsnojzw5z9ps3vnar5b,30iqtzxkaoj4hwmo2rah6wer2no0xt,VAaVt1TL,2020-0188,2020-06-04,08:41:28,08:59:17,NA,incomplete,79,number,1,1,left,Red_Plus_Dots_2.jpg,Green_Star_Stripes_2.jpg,Red_Triangle_Grid_1.jpg,left,1035.994999925606,true,high,false
VAaVt1TL,3y3czjszan6hsnojzw5z9ps3vnar5b,30iqtzxkaoj4hwmo2rah6wer2no0xt,VAaVt1TL,2020-0188,2020-06-04,08:41:28,08:59:17,NA,incomplete,80,color,0,0,right,Green_Plus_Grid_4.jpg,Blue_Circle_Dots_4.jpg,Green_Triangle_Stripes_3.jpg,left,1100.994999986142,false,high,false
VAaVt1TL,3y3czjszan6hsnojzw5z9ps3vnar5b,30iqtzxkaoj4hwmo2rah6wer2no0xt,VAaVt1TL,2020-0188,2020-06-04,08:41:28,08:59:17,NA,incomplete,81,color,0,1,left,Purple_Circle_Stripes_4.jpg,Purple_Plus_Chess_1.jpg,Green_Triangle_Grid_4.jpg,right,803.3849999774247,false,high,false
VAaVt1TL,3y3czjszan6hsnojzw5z9ps3vnar5b,30iqtzxkaoj4hwmo2rah6wer2no0xt,VAaVt1TL,2020-0188,2020-06-04,08:41:28,08:59:17,NA,incomplete,82,color,0,1,right,Green_Star_Stripes_2.jpg,Purple_Circle_Chess_2.jpg,Green_Triangle_Dots_1.jpg,left,716.0550000844523,false,high,false
VAaVt1TL,3y3czjszan6hsnojzw5z9ps3vnar5b,30iqtzxkaoj4hwmo2rah6wer2no0xt,VAaVt1TL,2020-0188,2020-06-04,08:41:28,08:59:17,NA,incomplete,83,color,0,0,right,Green_Star_Chess_4.jpg,Purple_Circle_Dots_4.jpg,Green_Triangle_Grid_2.jpg,right,562.4299999326468,true,high,false
VAaVt1TL,3y3czjszan6hsnojzw5z9ps3vnar5b,30iqtzxkaoj4hwmo2rah6wer2no0xt,VAaVt1TL,2020-0188,2020-06-04,08:41:28,08:59:17,NA,incomplete,84,color,0,1,left,Red_Triangle_Stripes_2.jpg,Red_Circle_Dots_3.jpg,Blue_Star_Chess_2.jpg,left,846.7200000304729,true,high,false
VAaVt1TL,3y3czjszan6hsnojzw5z9ps3vnar5b,30iqtzxkaoj4hwmo2rah6wer2no0xt,VAaVt1TL,2020-0188,2020-06-04,08:41:28,08:59:17,NA,incomplete,85,color,0,1,right,Blue_Circle_Stripes_2.jpg,Red_Plus_Chess_2.jpg,Blue_Star_Grid_3.jpg,right,726.9450000021607,true,high,false
VAaVt1TL,3y3czjszan6hsnojzw5z9ps3vnar5b,30iqtzxkaoj4hwmo2rah6wer2no0xt,VAaVt1TL,2020-0188,2020-06-04,08:41:28,08:59:17,NA,incomplete,86,color,0,1,left,Purple_Triangle_Stripes_3.jpg,Purple_Circle_Grid_1.jpg,Blue_Star_Dots_3.jpg,left,1524.7499999823049,true,high,false
VAaVt1TL,3y3czjszan6hsnojzw5z9ps3vnar5b,30iqtzxkaoj4hwmo2rah6wer2no0xt,VAaVt1TL,2020-0188,2020-06-04,08:41:28,08:59:17,NA,incomplete,87,color,0,1,left,Purple_Circle_Stripes_4.jpg,Purple_Plus_Dots_3.jpg,Green_Triangle_Grid_4.jpg,left,696.8249999918044,true,high,false
VAaVt1TL,3y3czjszan6hsnojzw5z9ps3vnar5b,30iqtzxkaoj4hwmo2rah6wer2no0xt,VAaVt1TL,2020-0188,2020-06-04,08:41:28,08:59:17,NA,incomplete,88,color,0,1,right,Blue_Plus_Chess_3.jpg,Red_Star_Stripes_3.jpg,Blue_Triangle_Dots_4.jpg,right,576.0799999115989,true,high,false
VAaVt1TL,3y3czjszan6hsnojzw5z9ps3vnar5b,30iqtzxkaoj4hwmo2rah6wer2no0xt,VAaVt1TL,2020-0188,2020-06-04,08:41:28,08:59:17,NA,incomplete,89,color,0,1,right,Green_Star_Stripes_2.jpg,Blue_Triangle_Chess_2.jpg,Green_Circle_Grid_3.jpg,right,739.5799999358132,true,high,false
VAaVt1TL,3y3czjszan6hsnojzw5z9ps3vnar5b,30iqtzxkaoj4hwmo2rah6wer2no0xt,VAaVt1TL,2020-0188,2020-06-04,08:41:28,08:59:17,NA,incomplete,90,number,1,0,left,Purple_Plus_Stripes_2.jpg,Blue_Star_Grid_2.jpg,Purple_Circle_Chess_3.jpg,right,727.8850000584498,false,high,false
VAaVt1TL,3y3czjszan6hsnojzw5z9ps3vnar5b,30iqtzxkaoj4hwmo2rah6wer2no0xt,VAaVt1TL,2020-0188,2020-06-04,08:41:28,08:59:17,NA,incomplete,91,number,1,1,right,Purple_Star_Stripes_1.jpg,Purple_Circle_Chess_2.jpg,Blue_Triangle_Grid_1.jpg,left,1038.1800000322983,false,high,false
VAaVt1TL,3y3czjszan6hsnojzw5z9ps3vnar5b,30iqtzxkaoj4hwmo2rah6wer2no0xt,VAaVt1TL,2020-0188,2020-06-04,08:41:28,08:59:17,NA,incomplete,92,number,1,1,right,Purple_Star_Chess_3.jpg,Purple_Triangle_Stripes_1.jpg,Blue_Plus_Grid_3.jpg,left,637.8549999790266,false,high,false
VAaVt1TL,3y3czjszan6hsnojzw5z9ps3vnar5b,30iqtzxkaoj4hwmo2rah6wer2no0xt,VAaVt1TL,2020-0188,2020-06-04,08:41:28,08:59:17,NA,incomplete,93,number,1,0,left,Blue_Star_Chess_3.jpg,Green_Triangle_Grid_3.jpg,Blue_Plus_Dots_4.jpg,left,854.3500000378117,true,high,false
VAaVt1TL,3y3czjszan6hsnojzw5z9ps3vnar5b,30iqtzxkaoj4hwmo2rah6wer2no0xt,VAaVt1TL,2020-0188,2020-06-04,08:41:28,08:59:17,NA,incomplete,94,number,1,1,right,Purple_Star_Chess_3.jpg,Purple_Circle_Stripes_2.jpg,Blue_Plus_Dots_3.jpg,right,822.5200000451878,true,high,false
VAaVt1TL,3y3czjszan6hsnojzw5z9ps3vnar5b,30iqtzxkaoj4hwmo2rah6wer2no0xt,VAaVt1TL,2020-0188,2020-06-04,08:41:28,08:59:17,NA,incomplete,95,number,1,1,right,Blue_Circle_Dots_4.jpg,Blue_Plus_Chess_2.jpg,Green_Triangle_Stripes_4.jpg,right,807.5749999843538,true,high,false
VAaVt1TL,3y3czjszan6hsnojzw5z9ps3vnar5b,30iqtzxkaoj4hwmo2rah6wer2no0xt,VAaVt1TL,2020-0188,2020-06-04,08:41:28,08:59:17,NA,incomplete,96,number,1,1,right,Red_Circle_Stripes_1.jpg,Red_Plus_Dots_4.jpg,Green_Star_Grid_1.jpg,right,649.9649999896064,true,high,false
VAaVt1TL,3y3czjszan6hsnojzw5z9ps3vnar5b,30iqtzxkaoj4hwmo2rah6wer2no0xt,VAaVt1TL,2020-0188,2020-06-04,08:41:28,08:59:17,NA,incomplete,97,number,1,1,left,Blue_Circle_Grid_3.jpg,Red_Plus_Chess_3.jpg,Blue_Star_Dots_2.jpg,left,938.094999990426,true,high,false
VAaVt1TL,3y3czjszan6hsnojzw5z9ps3vnar5b,30iqtzxkaoj4hwmo2rah6wer2no0xt,VAaVt1TL,2020-0188,2020-06-04,08:41:28,08:59:17,NA,incomplete,98,number,1,1,left,Blue_Triangle_Dots_2.jpg,Green_Star_Chess_2.jpg,Blue_Plus_Grid_1.jpg,left,790.7099999720231,true,high,false
VAaVt1TL,3y3czjszan6hsnojzw5z9ps3vnar5b,30iqtzxkaoj4hwmo2rah6wer2no0xt,VAaVt1TL,2020-0188,2020-06-04,08:41:28,08:59:17,NA,incomplete,99,number,1,1,left,Red_Plus_Dots_4.jpg,Purple_Star_Chess_4.jpg,Red_Triangle_Stripes_2.jpg,left,865.7649999950081,true,high,false
VAaVt1TL,3y3czjszan6hsnojzw5z9ps3vnar5b,30iqtzxkaoj4hwmo2rah6wer2no0xt,VAaVt1TL,2020-0188,2020-06-04,08:41:28,08:59:17,NA,incomplete,100,color,0,1,right,Purple_Circle_Stripes_3.jpg,Red_Triangle_Dots_3.jpg,Purple_Plus_Grid_2.jpg,left,818.1249999906868,false,high,false
VAaVt1TL,3y3czjszan6hsnojzw5z9ps3vnar5b,30iqtzxkaoj4hwmo2rah6wer2no0xt,VAaVt1TL,2020-0188,2020-06-04,08:41:28,08:59:17,NA,incomplete,101,color,0,1,right,Red_Circle_Chess_2.jpg,Blue_Star_Stripes_2.jpg,Red_Triangle_Dots_1.jpg,left,731.8499999819323,false,high,false
VAaVt1TL,3y3czjszan6hsnojzw5z9ps3vnar5b,30iqtzxkaoj4hwmo2rah6wer2no0xt,VAaVt1TL,2020-0188,2020-06-04,08:41:28,08:59:17,NA,incomplete,102,color,0,0,right,Blue_Star_Chess_1.jpg,Purple_Circle_Dots_1.jpg,Blue_Plus_Grid_4.jpg,right,545.0100000016391,true,high,false
VAaVt1TL,3y3czjszan6hsnojzw5z9ps3vnar5b,30iqtzxkaoj4hwmo2rah6wer2no0xt,VAaVt1TL,2020-0188,2020-06-04,08:41:28,08:59:17,NA,incomplete,103,color,0,0,right,Purple_Triangle_Stripes_2.jpg,Red_Circle_Chess_2.jpg,Purple_Star_Grid_1.jpg,right,797.3800000036135,true,high,false
VAaVt1TL,3y3czjszan6hsnojzw5z9ps3vnar5b,30iqtzxkaoj4hwmo2rah6wer2no0xt,VAaVt1TL,2020-0188,2020-06-04,08:41:28,08:59:17,NA,incomplete,104,color,0,1,left,Green_Triangle_Stripes_1.jpg,Green_Star_Dots_2.jpg,Red_Plus_Chess_1.jpg,left,976.7500000307336,true,high,false
VAaVt1TL,3y3czjszan6hsnojzw5z9ps3vnar5b,30iqtzxkaoj4hwmo2rah6wer2no0xt,VAaVt1TL,2020-0188,2020-06-04,08:41:28,08:59:17,NA,incomplete,105,color,0,1,left,Green_Plus_Stripes_1.jpg,Green_Circle_Dots_2.jpg,Blue_Triangle_Chess_1.jpg,left,507.68499996047467,true,high,false
VAaVt1TL,3y3czjszan6hsnojzw5z9ps3vnar5b,30iqtzxkaoj4hwmo2rah6wer2no0xt,VAaVt1TL,2020-0188,2020-06-04,08:41:28,08:59:17,NA,incomplete,106,color,0,1,right,Purple_Circle_Stripes_3.jpg,Blue_Plus_Dots_3.jpg,Purple_Triangle_Chess_4.jpg,right,770.1750000705943,true,high,false
VAaVt1TL,3y3czjszan6hsnojzw5z9ps3vnar5b,30iqtzxkaoj4hwmo2rah6wer2no0xt,VAaVt1TL,2020-0188,2020-06-04,08:41:28,08:59:17,NA,incomplete,107,color,0,1,right,Green_Plus_Dots_3.jpg,Blue_Star_Grid_3.jpg,Green_Triangle_Stripes_1.jpg,right,677.5699999416247,true,high,false
VAaVt1TL,3y3czjszan6hsnojzw5z9ps3vnar5b,30iqtzxkaoj4hwmo2rah6wer2no0xt,VAaVt1TL,2020-0188,2020-06-04,08:41:28,08:59:17,NA,incomplete,108,color,0,1,right,Purple_Star_Chess_4.jpg,Red_Triangle_Stripes_4.jpg,Purple_Circle_Dots_3.jpg,right,692.5999999511987,true,high,false
VAaVt1TL,3y3czjszan6hsnojzw5z9ps3vnar5b,30iqtzxkaoj4hwmo2rah6wer2no0xt,VAaVt1TL,2020-0188,2020-06-04,08:41:28,08:59:17,NA,incomplete,109,color,0,1,right,Red_Plus_Stripes_1.jpg,Blue_Circle_Chess_1.jpg,Red_Triangle_Grid_2.jpg,right,706.804999965243,true,high,false
VAaVt1TL,3y3czjszan6hsnojzw5z9ps3vnar5b,30iqtzxkaoj4hwmo2rah6wer2no0xt,VAaVt1TL,2020-0188,2020-06-04,08:41:28,08:59:17,NA,incomplete,110,number,1,1,left,Green_Plus_Grid_1.jpg,Red_Circle_Stripes_1.jpg,Green_Triangle_Chess_4.jpg,right,721.2199999485165,false,high,false
VAaVt1TL,3y3czjszan6hsnojzw5z9ps3vnar5b,30iqtzxkaoj4hwmo2rah6wer2no0xt,VAaVt1TL,2020-0188,2020-06-04,08:41:28,08:59:17,NA,incomplete,111,number,1,1,right,Green_Plus_Chess_3.jpg,Green_Triangle_Grid_1.jpg,Purple_Circle_Dots_3.jpg,left,1334.874999942258,false,high,false
VAaVt1TL,3y3czjszan6hsnojzw5z9ps3vnar5b,30iqtzxkaoj4hwmo2rah6wer2no0xt,VAaVt1TL,2020-0188,2020-06-04,08:41:28,08:59:17,NA,incomplete,112,number,1,0,left,Blue_Plus_Grid_1.jpg,Green_Triangle_Chess_1.jpg,Blue_Star_Stripes_2.jpg,left,930.0849999999627,true,high,false
VAaVt1TL,3y3czjszan6hsnojzw5z9ps3vnar5b,30iqtzxkaoj4hwmo2rah6wer2no0xt,VAaVt1TL,2020-0188,2020-06-04,08:41:28,08:59:17,NA,incomplete,113,number,1,0,left,Red_Triangle_Dots_3.jpg,Blue_Circle_Stripes_3.jpg,Red_Star_Grid_4.jpg,left,1279.4949999079108,true,high,false
VAaVt1TL,3y3czjszan6hsnojzw5z9ps3vnar5b,30iqtzxkaoj4hwmo2rah6wer2no0xt,VAaVt1TL,2020-0188,2020-06-04,08:41:28,08:59:17,NA,incomplete,114,number,1,1,right,Red_Plus_Stripes_4.jpg,Red_Star_Chess_3.jpg,Purple_Circle_Dots_4.jpg,left,759.0749999508262,false,high,false
VAaVt1TL,3y3czjszan6hsnojzw5z9ps3vnar5b,30iqtzxkaoj4hwmo2rah6wer2no0xt,VAaVt1TL,2020-0188,2020-06-04,08:41:28,08:59:17,NA,incomplete,115,number,1,1,right,Purple_Circle_Stripes_4.jpg,Purple_Plus_Grid_1.jpg,Green_Triangle_Dots_4.jpg,right,1826.714999973774,true,high,false
VAaVt1TL,3y3czjszan6hsnojzw5z9ps3vnar5b,30iqtzxkaoj4hwmo2rah6wer2no0xt,VAaVt1TL,2020-0188,2020-06-04,08:41:28,08:59:17,NA,incomplete,116,number,1,1,right,Purple_Plus_Stripes_4.jpg,Purple_Circle_Grid_3.jpg,Red_Star_Chess_4.jpg,right,962.9649999551475,true,high,false
VAaVt1TL,3y3czjszan6hsnojzw5z9ps3vnar5b,30iqtzxkaoj4hwmo2rah6wer2no0xt,VAaVt1TL,2020-0188,2020-06-04,08:41:28,08:59:17,NA,incomplete,117,number,1,1,left,Purple_Circle_Stripes_3.jpg,Green_Star_Grid_3.jpg,Purple_Triangle_Dots_1.jpg,left,677.5899999774992,true,high,false
VAaVt1TL,3y3czjszan6hsnojzw5z9ps3vnar5b,30iqtzxkaoj4hwmo2rah6wer2no0xt,VAaVt1TL,2020-0188,2020-06-04,08:41:28,08:59:17,NA,incomplete,118,number,1,1,right,Purple_Circle_Grid_2.jpg,Purple_Star_Chess_4.jpg,Green_Triangle_Dots_2.jpg,right,862.0599999558181,true,high,false
VAaVt1TL,3y3czjszan6hsnojzw5z9ps3vnar5b,30iqtzxkaoj4hwmo2rah6wer2no0xt,VAaVt1TL,2020-0188,2020-06-04,08:41:28,08:59:17,NA,incomplete,119,number,1,1,right,Blue_Plus_Grid_1.jpg,Blue_Circle_Chess_3.jpg,Red_Triangle_Dots_1.jpg,right,1470.439999946393,true,high,false
VAaVt1TL,3y3czjszan6hsnojzw5z9ps3vnar5b,30iqtzxkaoj4hwmo2rah6wer2no0xt,VAaVt1TL,2020-0188,2020-06-04,08:41:28,08:59:17,NA,incomplete,120,gender,2,1,right,A_F_09.jpg,A_M_06.jpg,C_F_13.jpg,NA,NA,NA,high,false
VAaVt1TL,3y3czjszan6hsnojzw5z9ps3vnar5b,30iqtzxkaoj4hwmo2rah6wer2no0xt,VAaVt1TL,2020-0188,2020-06-04,08:41:28,08:59:17,NA,incomplete,121,gender,2,0,left,C_F_07.jpg,A_F_10.jpg,C_M_05.jpg,left,1007.7499999897555,true,high,false
VAaVt1TL,3y3czjszan6hsnojzw5z9ps3vnar5b,30iqtzxkaoj4hwmo2rah6wer2no0xt,VAaVt1TL,2020-0188,2020-06-04,08:41:28,08:59:17,NA,incomplete,122,gender,2,1,right,A_M_13.jpg,A_F_01.jpg,C_M_15.jpg,right,1136.2250000238419,true,high,false
VAaVt1TL,3y3czjszan6hsnojzw5z9ps3vnar5b,30iqtzxkaoj4hwmo2rah6wer2no0xt,VAaVt1TL,2020-0188,2020-06-04,08:41:28,08:59:17,NA,incomplete,123,gender,2,1,right,C_F_13.jpg,C_M_06.jpg,A_F_16.jpg,right,973.3099999139085,true,high,false
VAaVt1TL,3y3czjszan6hsnojzw5z9ps3vnar5b,30iqtzxkaoj4hwmo2rah6wer2no0xt,VAaVt1TL,2020-0188,2020-06-04,08:41:28,08:59:17,NA,incomplete,124,gender,2,1,left,C_F_08.jpg,A_F_13.jpg,C_M_12.jpg,left,896.2700000265613,true,high,false
VAaVt1TL,3y3czjszan6hsnojzw5z9ps3vnar5b,30iqtzxkaoj4hwmo2rah6wer2no0xt,VAaVt1TL,2020-0188,2020-06-04,08:41:28,08:59:17,NA,incomplete,125,gender,2,1,right,A_F_10.jpg,A_M_03.jpg,C_F_08.jpg,right,854.2950000846758,true,high,false
VAaVt1TL,3y3czjszan6hsnojzw5z9ps3vnar5b,30iqtzxkaoj4hwmo2rah6wer2no0xt,VAaVt1TL,2020-0188,2020-06-04,08:41:28,08:59:17,NA,incomplete,126,gender,2,1,left,A_M_13.jpg,C_M_12.jpg,A_F_16.jpg,left,1014.9700000183657,true,high,false
VAaVt1TL,3y3czjszan6hsnojzw5z9ps3vnar5b,30iqtzxkaoj4hwmo2rah6wer2no0xt,VAaVt1TL,2020-0188,2020-06-04,08:41:28,08:59:17,NA,incomplete,127,gender,2,0,right,C_M_04.jpg,C_F_03.jpg,A_M_16.jpg,right,1088.4749999968335,true,high,false
VAaVt1TL,3y3czjszan6hsnojzw5z9ps3vnar5b,30iqtzxkaoj4hwmo2rah6wer2no0xt,VAaVt1TL,2020-0188,2020-06-04,08:41:28,08:59:17,NA,incomplete,128,gender,2,1,right,C_F_13.jpg,C_M_01.jpg,A_F_12.jpg,left,1286.5499999606982,false,high,false
VAaVt1TL,3y3czjszan6hsnojzw5z9ps3vnar5b,30iqtzxkaoj4hwmo2rah6wer2no0xt,VAaVt1TL,2020-0188,2020-06-04,08:41:28,08:59:17,NA,incomplete,129,gender,2,0,right,A_M_07.jpg,A_F_06.jpg,C_M_03.jpg,left,1053.7400000030175,false,high,false
VAaVt1TL,3y3czjszan6hsnojzw5z9ps3vnar5b,30iqtzxkaoj4hwmo2rah6wer2no0xt,VAaVt1TL,2020-0188,2020-06-04,08:41:28,08:59:17,NA,incomplete,130,gender,2,1,left,A_F_10.jpg,C_F_16.jpg,A_M_05.jpg,right,1164.0149999875575,false,high,false
VAaVt1TL,3y3czjszan6hsnojzw5z9ps3vnar5b,30iqtzxkaoj4hwmo2rah6wer2no0xt,VAaVt1TL,2020-0188,2020-06-04,08:41:28,08:59:17,NA,incomplete,131,gender,2,1,left,C_M_15.jpg,A_M_07.jpg,C_F_06.jpg,left,1080.1450000144541,true,high,false
VAaVt1TL,3y3czjszan6hsnojzw5z9ps3vnar5b,30iqtzxkaoj4hwmo2rah6wer2no0xt,VAaVt1TL,2020-0188,2020-06-04,08:41:28,08:59:17,NA,incomplete,132,gender,2,1,left,C_F_12.jpg,A_F_04.jpg,C_M_07.jpg,left,1238.9599999878556,true,high,false
VAaVt1TL,3y3czjszan6hsnojzw5z9ps3vnar5b,30iqtzxkaoj4hwmo2rah6wer2no0xt,VAaVt1TL,2020-0188,2020-06-04,08:41:28,08:59:17,NA,incomplete,133,gender,2,0,left,C_M_13.jpg,A_M_12.jpg,C_F_15.jpg,left,790.9199999412522,true,high,false
VAaVt1TL,3y3czjszan6hsnojzw5z9ps3vnar5b,30iqtzxkaoj4hwmo2rah6wer2no0xt,VAaVt1TL,2020-0188,2020-06-04,08:41:28,08:59:17,NA,incomplete,134,gender,2,1,right,C_F_12.jpg,C_M_01.jpg,A_F_10.jpg,right,826.1899999342859,true,high,false
VAaVt1TL,3y3czjszan6hsnojzw5z9ps3vnar5b,30iqtzxkaoj4hwmo2rah6wer2no0xt,VAaVt1TL,2020-0188,2020-06-04,08:41:28,08:59:17,NA,incomplete,135,gender,2,1,right,A_F_06.jpg,A_M_05.jpg,C_F_14.jpg,right,803.650000016205,true,high,false
VAaVt1TL,3y3czjszan6hsnojzw5z9ps3vnar5b,30iqtzxkaoj4hwmo2rah6wer2no0xt,VAaVt1TL,2020-0188,2020-06-04,08:41:28,08:59:17,NA,incomplete,136,gender,2,1,right,C_M_05.jpg,C_F_16.jpg,A_M_11.jpg,right,1349.8449999606237,true,high,false
VAaVt1TL,3y3czjszan6hsnojzw5z9ps3vnar5b,30iqtzxkaoj4hwmo2rah6wer2no0xt,VAaVt1TL,2020-0188,2020-06-04,08:41:28,08:59:17,NA,incomplete,137,gender,2,1,right,A_M_01.jpg,A_F_14.jpg,C_M_08.jpg,right,1129.7100000083447,true,high,false
VAaVt1TL,3y3czjszan6hsnojzw5z9ps3vnar5b,30iqtzxkaoj4hwmo2rah6wer2no0xt,VAaVt1TL,2020-0188,2020-06-04,08:41:28,08:59:17,NA,incomplete,138,gender,2,1,right,A_M_11.jpg,A_F_02.jpg,C_M_15.jpg,right,974.430000060238,true,high,false
VAaVt1TL,3y3czjszan6hsnojzw5z9ps3vnar5b,30iqtzxkaoj4hwmo2rah6wer2no0xt,VAaVt1TL,2020-0188,2020-06-04,08:41:28,08:59:17,NA,incomplete,139,gender,2,1,right,C_F_10.jpg,C_M_11.jpg,A_F_04.jpg,right,1025.4600000334904,true,high,false
VAaVt1TL,3y3czjszan6hsnojzw5z9ps3vnar5b,30iqtzxkaoj4hwmo2rah6wer2no0xt,VAaVt1TL,2020-0188,2020-06-04,08:41:28,08:59:17,NA,incomplete,140,race,3,1,left,A_F_05.jpg,A_M_02.jpg,C_F_14.jpg,right,1250.6999999750406,false,high,false
VAaVt1TL,3y3czjszan6hsnojzw5z9ps3vnar5b,30iqtzxkaoj4hwmo2rah6wer2no0xt,VAaVt1TL,2020-0188,2020-06-04,08:41:28,08:59:17,NA,incomplete,141,race,3,1,left,C_M_11.jpg,C_F_07.jpg,A_M_10.jpg,left,1571.2950000306591,true,high,false
VAaVt1TL,3y3czjszan6hsnojzw5z9ps3vnar5b,30iqtzxkaoj4hwmo2rah6wer2no0xt,VAaVt1TL,2020-0188,2020-06-04,08:41:28,08:59:17,NA,incomplete,142,race,3,0,left,C_M_11.jpg,C_F_10.jpg,A_M_15.jpg,left,1342.0550000155345,true,high,false
VAaVt1TL,3y3czjszan6hsnojzw5z9ps3vnar5b,30iqtzxkaoj4hwmo2rah6wer2no0xt,VAaVt1TL,2020-0188,2020-06-04,08:41:28,08:59:17,NA,incomplete,143,race,3,1,right,C_M_06.jpg,A_M_07.jpg,C_F_01.jpg,right,1017.9350000107661,true,high,false
VAaVt1TL,3y3czjszan6hsnojzw5z9ps3vnar5b,30iqtzxkaoj4hwmo2rah6wer2no0xt,VAaVt1TL,2020-0188,2020-06-04,08:41:28,08:59:17,NA,incomplete,144,race,3,1,left,C_F_08.jpg,C_M_13.jpg,A_F_15.jpg,left,1331.620000069961,true,high,false
VAaVt1TL,3y3czjszan6hsnojzw5z9ps3vnar5b,30iqtzxkaoj4hwmo2rah6wer2no0xt,VAaVt1TL,2020-0188,2020-06-04,08:41:28,08:59:17,NA,incomplete,145,race,3,0,right,C_M_13.jpg,A_M_05.jpg,C_F_06.jpg,left,840.6599999871105,false,high,false
VAaVt1TL,3y3czjszan6hsnojzw5z9ps3vnar5b,30iqtzxkaoj4hwmo2rah6wer2no0xt,VAaVt1TL,2020-0188,2020-06-04,08:41:28,08:59:17,NA,incomplete,146,race,3,1,right,A_F_04.jpg,C_F_02.jpg,A_M_15.jpg,right,1048.7500000745058,true,high,false
VAaVt1TL,3y3czjszan6hsnojzw5z9ps3vnar5b,30iqtzxkaoj4hwmo2rah6wer2no0xt,VAaVt1TL,2020-0188,2020-06-04,08:41:28,08:59:17,NA,incomplete,147,race,3,1,left,A_F_16.jpg,A_M_14.jpg,C_F_09.jpg,left,1186.089999973774,true,high,false
VAaVt1TL,3y3czjszan6hsnojzw5z9ps3vnar5b,30iqtzxkaoj4hwmo2rah6wer2no0xt,VAaVt1TL,2020-0188,2020-06-04,08:41:28,08:59:17,NA,incomplete,148,race,3,1,left,C_M_12.jpg,C_F_01.jpg,A_M_05.jpg,left,1331.7149999784306,true,high,false
VAaVt1TL,3y3czjszan6hsnojzw5z9ps3vnar5b,30iqtzxkaoj4hwmo2rah6wer2no0xt,VAaVt1TL,2020-0188,2020-06-04,08:41:28,08:59:17,NA,incomplete,149,race,3,1,right,A_F_04.jpg,C_F_12.jpg,A_M_01.jpg,right,1032.8750000335276,true,high,false
VAaVt1TL,3y3czjszan6hsnojzw5z9ps3vnar5b,30iqtzxkaoj4hwmo2rah6wer2no0xt,VAaVt1TL,2020-0188,2020-06-04,08:41:28,08:59:17,NA,incomplete,150,race,3,1,left,C_F_13.jpg,C_M_01.jpg,A_F_08.jpg,left,937.320000026375,true,high,false
VAaVt1TL,3y3czjszan6hsnojzw5z9ps3vnar5b,30iqtzxkaoj4hwmo2rah6wer2no0xt,VAaVt1TL,2020-0188,2020-06-04,08:41:28,08:59:17,NA,incomplete,151,race,3,0,left,C_M_08.jpg,C_F_16.jpg,A_M_12.jpg,left,1374.6200000168756,true,high,false
VAaVt1TL,3y3czjszan6hsnojzw5z9ps3vnar5b,30iqtzxkaoj4hwmo2rah6wer2no0xt,VAaVt1TL,2020-0188,2020-06-04,08:41:28,08:59:17,NA,incomplete,152,race,3,1,left,A_M_01.jpg,A_F_03.jpg,C_M_13.jpg,left,1041.3549999939278,true,high,false
VAaVt1TL,3y3czjszan6hsnojzw5z9ps3vnar5b,30iqtzxkaoj4hwmo2rah6wer2no0xt,VAaVt1TL,2020-0188,2020-06-04,08:41:28,08:59:17,NA,incomplete,153,race,3,1,right,A_M_15.jpg,C_M_10.jpg,A_F_05.jpg,right,1041.1199999507517,true,high,false
VAaVt1TL,3y3czjszan6hsnojzw5z9ps3vnar5b,30iqtzxkaoj4hwmo2rah6wer2no0xt,VAaVt1TL,2020-0188,2020-06-04,08:41:28,08:59:17,NA,incomplete,154,race,3,0,left,C_M_16.jpg,C_F_04.jpg,A_M_13.jpg,left,1425.154999946244,true,high,false
VAaVt1TL,3y3czjszan6hsnojzw5z9ps3vnar5b,30iqtzxkaoj4hwmo2rah6wer2no0xt,VAaVt1TL,2020-0188,2020-06-04,08:41:28,08:59:17,NA,incomplete,155,race,3,1,right,C_F_16.jpg,A_F_04.jpg,C_M_07.jpg,right,1074.339999933727,true,high,false
VAaVt1TL,3y3czjszan6hsnojzw5z9ps3vnar5b,30iqtzxkaoj4hwmo2rah6wer2no0xt,VAaVt1TL,2020-0188,2020-06-04,08:41:28,08:59:17,NA,incomplete,156,race,3,1,left,C_M_06.jpg,C_F_01.jpg,A_M_05.jpg,left,1464.8149999557063,true,high,false
VAaVt1TL,3y3czjszan6hsnojzw5z9ps3vnar5b,30iqtzxkaoj4hwmo2rah6wer2no0xt,VAaVt1TL,2020-0188,2020-06-04,08:41:28,08:59:17,NA,incomplete,157,race,3,0,right,A_M_07.jpg,C_M_05.jpg,A_F_03.jpg,right,1136.4000000758097,true,high,false
VAaVt1TL,3y3czjszan6hsnojzw5z9ps3vnar5b,30iqtzxkaoj4hwmo2rah6wer2no0xt,VAaVt1TL,2020-0188,2020-06-04,08:41:28,08:59:17,NA,incomplete,158,race,3,1,left,C_M_04.jpg,C_F_10.jpg,A_M_14.jpg,right,1165.595000027679,false,high,false
VAaVt1TL,3y3czjszan6hsnojzw5z9ps3vnar5b,30iqtzxkaoj4hwmo2rah6wer2no0xt,VAaVt1TL,2020-0188,2020-06-04,08:41:28,08:59:17,NA,incomplete,159,race,3,1,left,C_F_10.jpg,C_M_05.jpg,A_F_06.jpg,right,904.4849999481812,false,high,false
VAaVt1TL,3y3czjszan6hsnojzw5z9ps3vnar5b,30iqtzxkaoj4hwmo2rah6wer2no0xt,VAaVt1TL,2020-0188,2020-06-04,08:41:28,08:59:17,NA,incomplete,160,gender,2,1,right,A_F_07.jpg,A_M_10.jpg,C_F_14.jpg,left,1286.5649999585003,false,high,false
VAaVt1TL,3y3czjszan6hsnojzw5z9ps3vnar5b,30iqtzxkaoj4hwmo2rah6wer2no0xt,VAaVt1TL,2020-0188,2020-06-04,08:41:28,08:59:17,NA,incomplete,161,gender,2,1,right,A_F_10.jpg,A_M_08.jpg,C_F_04.jpg,left,1116.5649999165908,false,high,false
VAaVt1TL,3y3czjszan6hsnojzw5z9ps3vnar5b,30iqtzxkaoj4hwmo2rah6wer2no0xt,VAaVt1TL,2020-0188,2020-06-04,08:41:28,08:59:17,NA,incomplete,162,gender,2,1,left,C_M_15.jpg,A_M_11.jpg,C_F_02.jpg,left,1202.3400000762194,true,high,false
VAaVt1TL,3y3czjszan6hsnojzw5z9ps3vnar5b,30iqtzxkaoj4hwmo2rah6wer2no0xt,VAaVt1TL,2020-0188,2020-06-04,08:41:28,08:59:17,NA,incomplete,163,gender,2,1,left,A_F_12.jpg,C_F_15.jpg,A_M_16.jpg,left,972.3200000589713,true,high,false
VAaVt1TL,3y3czjszan6hsnojzw5z9ps3vnar5b,30iqtzxkaoj4hwmo2rah6wer2no0xt,VAaVt1TL,2020-0188,2020-06-04,08:41:28,08:59:17,NA,incomplete,164,gender,2,1,left,A_F_13.jpg,C_F_03.jpg,A_M_06.jpg,left,847.1099999733269,true,high,false
VAaVt1TL,3y3czjszan6hsnojzw5z9ps3vnar5b,30iqtzxkaoj4hwmo2rah6wer2no0xt,VAaVt1TL,2020-0188,2020-06-04,08:41:28,08:59:17,NA,incomplete,165,gender,2,1,right,A_M_12.jpg,A_F_04.jpg,C_M_13.jpg,right,1015.5050000175834,true,high,false
VAaVt1TL,3y3czjszan6hsnojzw5z9ps3vnar5b,30iqtzxkaoj4hwmo2rah6wer2no0xt,VAaVt1TL,2020-0188,2020-06-04,08:41:28,08:59:17,NA,incomplete,166,gender,2,0,left,C_M_01.jpg,A_M_04.jpg,C_F_15.jpg,left,809.2000000178814,true,high,false
VAaVt1TL,3y3czjszan6hsnojzw5z9ps3vnar5b,30iqtzxkaoj4hwmo2rah6wer2no0xt,VAaVt1TL,2020-0188,2020-06-04,08:41:28,08:59:17,NA,incomplete,167,gender,2,1,right,A_F_06.jpg,A_M_10.jpg,C_F_16.jpg,right,939.4049999536946,true,high,false
VAaVt1TL,3y3czjszan6hsnojzw5z9ps3vnar5b,30iqtzxkaoj4hwmo2rah6wer2no0xt,VAaVt1TL,2020-0188,2020-06-04,08:41:28,08:59:17,NA,incomplete,168,gender,2,1,left,A_M_04.jpg,C_M_13.jpg,A_F_07.jpg,left,1624.0250000264496,true,high,false
VAaVt1TL,3y3czjszan6hsnojzw5z9ps3vnar5b,30iqtzxkaoj4hwmo2rah6wer2no0xt,VAaVt1TL,2020-0188,2020-06-04,08:41:28,08:59:17,NA,incomplete,169,gender,2,1,left,C_F_12.jpg,A_F_13.jpg,C_M_05.jpg,left,1056.0549999354407,true,high,false
VAaVt1TL,3y3czjszan6hsnojzw5z9ps3vnar5b,30iqtzxkaoj4hwmo2rah6wer2no0xt,VAaVt1TL,2020-0188,2020-06-04,08:41:28,08:59:17,NA,incomplete,170,gender,2,1,right,C_F_15.jpg,C_M_12.jpg,A_F_04.jpg,right,1448.4149999916553,true,high,false
VAaVt1TL,3y3czjszan6hsnojzw5z9ps3vnar5b,30iqtzxkaoj4hwmo2rah6wer2no0xt,VAaVt1TL,2020-0188,2020-06-04,08:41:28,08:59:17,NA,incomplete,171,gender,2,0,left,A_M_11.jpg,C_M_16.jpg,A_F_03.jpg,left,1031.8899999838322,true,high,false
VAaVt1TL,3y3czjszan6hsnojzw5z9ps3vnar5b,30iqtzxkaoj4hwmo2rah6wer2no0xt,VAaVt1TL,2020-0188,2020-06-04,08:41:28,08:59:17,NA,incomplete,172,gender,2,1,left,A_F_04.jpg,C_F_03.jpg,A_M_11.jpg,left,689.2900000093505,true,high,false
VAaVt1TL,3y3czjszan6hsnojzw5z9ps3vnar5b,30iqtzxkaoj4hwmo2rah6wer2no0xt,VAaVt1TL,2020-0188,2020-06-04,08:41:28,08:59:17,NA,incomplete,173,gender,2,1,right,A_M_05.jpg,A_F_10.jpg,C_M_06.jpg,right,1056.1000000452623,true,high,false
VAaVt1TL,3y3czjszan6hsnojzw5z9ps3vnar5b,30iqtzxkaoj4hwmo2rah6wer2no0xt,VAaVt1TL,2020-0188,2020-06-04,08:41:28,08:59:17,NA,incomplete,174,gender,2,1,right,C_M_10.jpg,C_F_14.jpg,A_M_11.jpg,right,1343.9800000051036,true,high,false
VAaVt1TL,3y3czjszan6hsnojzw5z9ps3vnar5b,30iqtzxkaoj4hwmo2rah6wer2no0xt,VAaVt1TL,2020-0188,2020-06-04,08:41:28,08:59:17,NA,incomplete,175,gender,2,1,left,C_M_03.jpg,A_M_15.jpg,C_F_01.jpg,left,652.0449999952689,true,high,false
VAaVt1TL,3y3czjszan6hsnojzw5z9ps3vnar5b,30iqtzxkaoj4hwmo2rah6wer2no0xt,VAaVt1TL,2020-0188,2020-06-04,08:41:28,08:59:17,NA,incomplete,176,gender,2,1,left,C_F_12.jpg,A_F_09.jpg,C_M_08.jpg,left,844.4450000533834,true,high,false
VAaVt1TL,3y3czjszan6hsnojzw5z9ps3vnar5b,30iqtzxkaoj4hwmo2rah6wer2no0xt,VAaVt1TL,2020-0188,2020-06-04,08:41:28,08:59:17,NA,incomplete,177,gender,2,1,left,A_M_10.jpg,C_M_13.jpg,A_F_11.jpg,left,1428.7200000835583,true,high,false
VAaVt1TL,3y3czjszan6hsnojzw5z9ps3vnar5b,30iqtzxkaoj4hwmo2rah6wer2no0xt,VAaVt1TL,2020-0188,2020-06-04,08:41:28,08:59:17,NA,incomplete,178,gender,2,1,right,A_M_14.jpg,A_F_01.jpg,C_M_08.jpg,right,1013.1400000536814,true,high,false
VAaVt1TL,3y3czjszan6hsnojzw5z9ps3vnar5b,30iqtzxkaoj4hwmo2rah6wer2no0xt,VAaVt1TL,2020-0188,2020-06-04,08:41:28,08:59:17,NA,incomplete,179,gender,2,1,left,C_F_10.jpg,A_F_07.jpg,C_M_05.jpg,left,1215.2749999659136,true,high,false
VAaVt1TL,3y3czjszan6hsnojzw5z9ps3vnar5b,30iqtzxkaoj4hwmo2rah6wer2no0xt,VAaVt1TL,2020-0188,2020-06-04,08:41:28,08:59:17,NA,incomplete,180,race,3,0,right,A_F_08.jpg,C_F_09.jpg,A_M_10.jpg,left,784.929999965243,false,high,false
VAaVt1TL,3y3czjszan6hsnojzw5z9ps3vnar5b,30iqtzxkaoj4hwmo2rah6wer2no0xt,VAaVt1TL,2020-0188,2020-06-04,08:41:28,08:59:17,NA,incomplete,181,race,3,1,right,A_M_01.jpg,C_M_13.jpg,A_F_11.jpg,left,1036.3000000361353,false,high,false
VAaVt1TL,3y3czjszan6hsnojzw5z9ps3vnar5b,30iqtzxkaoj4hwmo2rah6wer2no0xt,VAaVt1TL,2020-0188,2020-06-04,08:41:28,08:59:17,NA,incomplete,182,race,3,1,left,C_M_11.jpg,C_F_13.jpg,A_M_16.jpg,right,1108.2150000147521,false,high,false
VAaVt1TL,3y3czjszan6hsnojzw5z9ps3vnar5b,30iqtzxkaoj4hwmo2rah6wer2no0xt,VAaVt1TL,2020-0188,2020-06-04,08:41:28,08:59:17,NA,incomplete,183,race,3,0,right,A_F_04.jpg,C_F_01.jpg,A_M_02.jpg,right,1058.2850000355393,true,high,false
VAaVt1TL,3y3czjszan6hsnojzw5z9ps3vnar5b,30iqtzxkaoj4hwmo2rah6wer2no0xt,VAaVt1TL,2020-0188,2020-06-04,08:41:28,08:59:17,NA,incomplete,184,race,3,1,right,A_F_13.jpg,C_F_10.jpg,A_M_06.jpg,left,866.0099999979138,false,high,false
VAaVt1TL,3y3czjszan6hsnojzw5z9ps3vnar5b,30iqtzxkaoj4hwmo2rah6wer2no0xt,VAaVt1TL,2020-0188,2020-06-04,08:41:28,08:59:17,NA,incomplete,185,race,3,1,right,C_M_03.jpg,A_M_15.jpg,C_F_04.jpg,right,1697.5849999580532,true,high,false
VAaVt1TL,3y3czjszan6hsnojzw5z9ps3vnar5b,30iqtzxkaoj4hwmo2rah6wer2no0xt,VAaVt1TL,2020-0188,2020-06-04,08:41:28,08:59:17,NA,incomplete,186,race,3,0,right,C_M_08.jpg,A_M_10.jpg,C_F_16.jpg,right,1048.0299999471754,true,high,false
VAaVt1TL,3y3czjszan6hsnojzw5z9ps3vnar5b,30iqtzxkaoj4hwmo2rah6wer2no0xt,VAaVt1TL,2020-0188,2020-06-04,08:41:28,08:59:17,NA,incomplete,187,race,3,1,left,A_F_01.jpg,A_M_10.jpg,C_F_11.jpg,left,1183.699999935925,true,high,false
VAaVt1TL,3y3czjszan6hsnojzw5z9ps3vnar5b,30iqtzxkaoj4hwmo2rah6wer2no0xt,VAaVt1TL,2020-0188,2020-06-04,08:41:28,08:59:17,NA,incomplete,188,race,3,1,right,C_F_04.jpg,A_F_07.jpg,C_M_16.jpg,right,1042.6900000311434,true,high,false
VAaVt1TL,3y3czjszan6hsnojzw5z9ps3vnar5b,30iqtzxkaoj4hwmo2rah6wer2no0xt,VAaVt1TL,2020-0188,2020-06-04,08:41:28,08:59:17,NA,incomplete,189,race,3,1,left,A_M_07.jpg,A_F_06.jpg,C_M_08.jpg,left,1179.2800000403076,true,high,false
VAaVt1TL,3y3czjszan6hsnojzw5z9ps3vnar5b,30iqtzxkaoj4hwmo2rah6wer2no0xt,VAaVt1TL,2020-0188,2020-06-04,08:41:28,08:59:17,NA,incomplete,190,race,3,1,left,A_M_04.jpg,A_F_15.jpg,C_M_01.jpg,left,830.5350000737235,true,high,false
VAaVt1TL,3y3czjszan6hsnojzw5z9ps3vnar5b,30iqtzxkaoj4hwmo2rah6wer2no0xt,VAaVt1TL,2020-0188,2020-06-04,08:41:28,08:59:17,NA,incomplete,191,race,3,1,left,C_M_08.jpg,C_F_07.jpg,A_M_09.jpg,left,919.6450000163168,true,high,false
VAaVt1TL,3y3czjszan6hsnojzw5z9ps3vnar5b,30iqtzxkaoj4hwmo2rah6wer2no0xt,VAaVt1TL,2020-0188,2020-06-04,08:41:28,08:59:17,NA,incomplete,192,race,3,0,left,C_M_04.jpg,C_F_07.jpg,A_M_05.jpg,left,1180.845000082627,true,high,false
VAaVt1TL,3y3czjszan6hsnojzw5z9ps3vnar5b,30iqtzxkaoj4hwmo2rah6wer2no0xt,VAaVt1TL,2020-0188,2020-06-04,08:41:28,08:59:17,NA,incomplete,193,race,3,1,left,A_F_14.jpg,A_M_15.jpg,C_F_02.jpg,left,1208.2899999804795,true,high,false
VAaVt1TL,3y3czjszan6hsnojzw5z9ps3vnar5b,30iqtzxkaoj4hwmo2rah6wer2no0xt,VAaVt1TL,2020-0188,2020-06-04,08:41:28,08:59:17,NA,incomplete,194,race,3,1,left,C_M_11.jpg,C_F_08.jpg,A_M_14.jpg,left,1304.4449998997152,true,high,false
VAaVt1TL,3y3czjszan6hsnojzw5z9ps3vnar5b,30iqtzxkaoj4hwmo2rah6wer2no0xt,VAaVt1TL,2020-0188,2020-06-04,08:41:28,08:59:17,NA,incomplete,195,race,3,0,left,C_F_08.jpg,C_M_01.jpg,A_F_03.jpg,left,1022.3300000652671,true,high,false
VAaVt1TL,3y3czjszan6hsnojzw5z9ps3vnar5b,30iqtzxkaoj4hwmo2rah6wer2no0xt,VAaVt1TL,2020-0188,2020-06-04,08:41:28,08:59:17,NA,incomplete,196,race,3,1,right,C_F_03.jpg,A_F_06.jpg,C_M_04.jpg,right,879.590000025928,true,high,false
VAaVt1TL,3y3czjszan6hsnojzw5z9ps3vnar5b,30iqtzxkaoj4hwmo2rah6wer2no0xt,VAaVt1TL,2020-0188,2020-06-04,08:41:28,08:59:17,NA,incomplete,197,race,3,1,right,A_M_11.jpg,C_M_06.jpg,A_F_01.jpg,right,1118.8749999273568,true,high,false
VAaVt1TL,3y3czjszan6hsnojzw5z9ps3vnar5b,30iqtzxkaoj4hwmo2rah6wer2no0xt,VAaVt1TL,2020-0188,2020-06-04,08:41:28,08:59:17,NA,incomplete,198,race,3,0,left,C_F_09.jpg,C_M_05.jpg,A_F_02.jpg,left,843.445000005886,true,high,false
VAaVt1TL,3y3czjszan6hsnojzw5z9ps3vnar5b,30iqtzxkaoj4hwmo2rah6wer2no0xt,VAaVt1TL,2020-0188,2020-06-04,08:41:28,08:59:17,NA,incomplete,199,race,3,1,right,C_M_02.jpg,A_M_12.jpg,C_F_14.jpg,right,1068.6400000704452,true,high,false
VAaVt1TL,3y3czjszan6hsnojzw5z9ps3vnar5b,30iqtzxkaoj4hwmo2rah6wer2no0xt,VAaVt1TL,2020-0188,2020-06-04,08:41:28,08:59:17,NA,incomplete,200,gender,2,0,right,C_M_01.jpg,C_F_15.jpg,A_M_04.jpg,left,1475.9450000710785,false,high,false
VAaVt1TL,3y3czjszan6hsnojzw5z9ps3vnar5b,30iqtzxkaoj4hwmo2rah6wer2no0xt,VAaVt1TL,2020-0188,2020-06-04,08:41:28,08:59:17,NA,incomplete,201,gender,2,1,left,A_M_15.jpg,C_M_01.jpg,A_F_05.jpg,right,874.489999958314,false,high,false
VAaVt1TL,3y3czjszan6hsnojzw5z9ps3vnar5b,30iqtzxkaoj4hwmo2rah6wer2no0xt,VAaVt1TL,2020-0188,2020-06-04,08:41:28,08:59:17,NA,incomplete,202,gender,2,1,left,A_M_09.jpg,C_M_16.jpg,A_F_03.jpg,right,1169.9250000528991,false,high,false
VAaVt1TL,3y3czjszan6hsnojzw5z9ps3vnar5b,30iqtzxkaoj4hwmo2rah6wer2no0xt,VAaVt1TL,2020-0188,2020-06-04,08:41:28,08:59:17,NA,incomplete,203,gender,2,1,right,A_M_13.jpg,A_F_06.jpg,C_M_08.jpg,right,844.344999990426,true,high,false
VAaVt1TL,3y3czjszan6hsnojzw5z9ps3vnar5b,30iqtzxkaoj4hwmo2rah6wer2no0xt,VAaVt1TL,2020-0188,2020-06-04,08:41:28,08:59:17,NA,incomplete,204,gender,2,0,left,C_M_04.jpg,A_M_09.jpg,C_F_10.jpg,left,724.7150000184774,true,high,false
VAaVt1TL,3y3czjszan6hsnojzw5z9ps3vnar5b,30iqtzxkaoj4hwmo2rah6wer2no0xt,VAaVt1TL,2020-0188,2020-06-04,08:41:28,08:59:17,NA,incomplete,205,gender,2,1,left,A_F_01.jpg,C_F_12.jpg,A_M_04.jpg,left,1041.7449999367818,true,high,false
VAaVt1TL,3y3czjszan6hsnojzw5z9ps3vnar5b,30iqtzxkaoj4hwmo2rah6wer2no0xt,VAaVt1TL,2020-0188,2020-06-04,08:41:28,08:59:17,NA,incomplete,206,gender,2,1,right,C_M_04.jpg,C_F_02.jpg,A_M_07.jpg,right,1146.8599999789149,true,high,false
VAaVt1TL,3y3czjszan6hsnojzw5z9ps3vnar5b,30iqtzxkaoj4hwmo2rah6wer2no0xt,VAaVt1TL,2020-0188,2020-06-04,08:41:28,08:59:17,NA,incomplete,207,gender,2,1,right,A_M_13.jpg,A_F_03.jpg,C_M_12.jpg,right,918.6700000427663,true,high,false
VAaVt1TL,3y3czjszan6hsnojzw5z9ps3vnar5b,30iqtzxkaoj4hwmo2rah6wer2no0xt,VAaVt1TL,2020-0188,2020-06-04,08:41:28,08:59:17,NA,incomplete,208,gender,2,1,right,C_F_02.jpg,C_M_14.jpg,A_F_11.jpg,right,1139.945000060834,true,high,false
VAaVt1TL,3y3czjszan6hsnojzw5z9ps3vnar5b,30iqtzxkaoj4hwmo2rah6wer2no0xt,VAaVt1TL,2020-0188,2020-06-04,08:41:28,08:59:17,NA,incomplete,209,gender,2,1,right,C_M_02.jpg,C_F_10.jpg,A_M_11.jpg,right,1904.7399999108166,true,high,false
VAaVt1TL,3y3czjszan6hsnojzw5z9ps3vnar5b,30iqtzxkaoj4hwmo2rah6wer2no0xt,VAaVt1TL,2020-0188,2020-06-04,08:41:28,08:59:17,NA,incomplete,210,gender,2,0,right,C_M_07.jpg,C_F_01.jpg,A_M_04.jpg,right,973.4600000083447,true,high,false
VAaVt1TL,3y3czjszan6hsnojzw5z9ps3vnar5b,30iqtzxkaoj4hwmo2rah6wer2no0xt,VAaVt1TL,2020-0188,2020-06-04,08:41:28,08:59:17,NA,incomplete,211,gender,2,1,right,C_F_02.jpg,C_M_15.jpg,A_F_12.jpg,right,776.9850000040606,true,high,false
VAaVt1TL,3y3czjszan6hsnojzw5z9ps3vnar5b,30iqtzxkaoj4hwmo2rah6wer2no0xt,VAaVt1TL,2020-0188,2020-06-04,08:41:28,08:59:17,NA,incomplete,212,gender,2,1,left,A_M_09.jpg,C_M_03.jpg,A_F_14.jpg,left,1108.2999999634922,true,high,false
VAaVt1TL,3y3czjszan6hsnojzw5z9ps3vnar5b,30iqtzxkaoj4hwmo2rah6wer2no0xt,VAaVt1TL,2020-0188,2020-06-04,08:41:28,08:59:17,NA,incomplete,213,gender,2,1,right,A_F_02.jpg,A_M_11.jpg,C_F_05.jpg,right,1417.2399999806657,true,high,false
VAaVt1TL,3y3czjszan6hsnojzw5z9ps3vnar5b,30iqtzxkaoj4hwmo2rah6wer2no0xt,VAaVt1TL,2020-0188,2020-06-04,08:41:28,08:59:17,NA,incomplete,214,gender,2,1,left,A_M_11.jpg,C_M_07.jpg,A_F_05.jpg,left,803.4950000001118,true,high,false
VAaVt1TL,3y3czjszan6hsnojzw5z9ps3vnar5b,30iqtzxkaoj4hwmo2rah6wer2no0xt,VAaVt1TL,2020-0188,2020-06-04,08:41:28,08:59:17,NA,incomplete,215,gender,2,1,left,C_F_03.jpg,A_F_06.jpg,C_M_14.jpg,left,1285.2300000377,true,high,false
VAaVt1TL,3y3czjszan6hsnojzw5z9ps3vnar5b,30iqtzxkaoj4hwmo2rah6wer2no0xt,VAaVt1TL,2020-0188,2020-06-04,08:41:28,08:59:17,NA,incomplete,216,gender,2,1,left,A_F_11.jpg,C_F_13.jpg,A_M_12.jpg,left,843.7700000358745,true,high,false
VAaVt1TL,3y3czjszan6hsnojzw5z9ps3vnar5b,30iqtzxkaoj4hwmo2rah6wer2no0xt,VAaVt1TL,2020-0188,2020-06-04,08:41:28,08:59:17,NA,incomplete,217,gender,2,1,right,A_F_08.jpg,A_M_01.jpg,C_F_09.jpg,right,724.2200000910088,true,high,false
VAaVt1TL,3y3czjszan6hsnojzw5z9ps3vnar5b,30iqtzxkaoj4hwmo2rah6wer2no0xt,VAaVt1TL,2020-0188,2020-06-04,08:41:28,08:59:17,NA,incomplete,218,gender,2,1,left,C_M_12.jpg,A_M_08.jpg,C_F_11.jpg,left,833.2899999804795,true,high,false
VAaVt1TL,3y3czjszan6hsnojzw5z9ps3vnar5b,30iqtzxkaoj4hwmo2rah6wer2no0xt,VAaVt1TL,2020-0188,2020-06-04,08:41:28,08:59:17,NA,incomplete,219,gender,2,1,right,A_M_14.jpg,A_F_13.jpg,C_M_16.jpg,right,875.0950000248849,true,high,false
VAaVt1TL,3y3czjszan6hsnojzw5z9ps3vnar5b,30iqtzxkaoj4hwmo2rah6wer2no0xt,VAaVt1TL,2020-0188,2020-06-04,08:41:28,08:59:17,NA,incomplete,220,race,3,1,left,A_M_06.jpg,A_F_10.jpg,C_M_02.jpg,right,849.6349999913946,false,high,false
VAaVt1TL,3y3czjszan6hsnojzw5z9ps3vnar5b,30iqtzxkaoj4hwmo2rah6wer2no0xt,VAaVt1TL,2020-0188,2020-06-04,08:41:28,08:59:17,NA,incomplete,221,race,3,1,left,C_F_11.jpg,C_M_07.jpg,A_F_05.jpg,left,1267.0699999434873,true,high,false
VAaVt1TL,3y3czjszan6hsnojzw5z9ps3vnar5b,30iqtzxkaoj4hwmo2rah6wer2no0xt,VAaVt1TL,2020-0188,2020-06-04,08:41:28,08:59:17,NA,incomplete,222,race,3,1,left,A_M_05.jpg,A_F_13.jpg,C_M_11.jpg,left,930.4100000299513,true,high,false
VAaVt1TL,3y3czjszan6hsnojzw5z9ps3vnar5b,30iqtzxkaoj4hwmo2rah6wer2no0xt,VAaVt1TL,2020-0188,2020-06-04,08:41:28,08:59:17,NA,incomplete,223,race,3,0,left,C_M_11.jpg,C_F_05.jpg,A_M_15.jpg,right,1576.5299999620765,false,high,false
VAaVt1TL,3y3czjszan6hsnojzw5z9ps3vnar5b,30iqtzxkaoj4hwmo2rah6wer2no0xt,VAaVt1TL,2020-0188,2020-06-04,08:41:28,08:59:17,NA,incomplete,224,race,3,1,left,C_F_11.jpg,C_M_05.jpg,A_F_03.jpg,none,0,false,high,false
VAaVt1TL,3y3czjszan6hsnojzw5z9ps3vnar5b,30iqtzxkaoj4hwmo2rah6wer2no0xt,VAaVt1TL,2020-0188,2020-06-04,08:41:28,08:59:17,NA,incomplete,225,race,3,1,left,C_F_11.jpg,C_M_04.jpg,A_F_05.jpg,right,508.1050000153482,false,high,false
VAaVt1TL,3y3czjszan6hsnojzw5z9ps3vnar5b,30iqtzxkaoj4hwmo2rah6wer2no0xt,VAaVt1TL,2020-0188,2020-06-04,08:41:28,08:59:17,NA,incomplete,226,race,3,1,right,C_M_16.jpg,A_M_02.jpg,C_F_05.jpg,right,994.6250000502914,true,high,false
VAaVt1TL,3y3czjszan6hsnojzw5z9ps3vnar5b,30iqtzxkaoj4hwmo2rah6wer2no0xt,VAaVt1TL,2020-0188,2020-06-04,08:41:28,08:59:17,NA,incomplete,227,race,3,0,right,A_F_15.jpg,C_F_09.jpg,A_M_12.jpg,left,1069.0099999774247,false,high,false
VAaVt1TL,3y3czjszan6hsnojzw5z9ps3vnar5b,30iqtzxkaoj4hwmo2rah6wer2no0xt,VAaVt1TL,2020-0188,2020-06-04,08:41:28,08:59:17,NA,incomplete,228,race,3,1,left,A_F_01.jpg,A_M_06.jpg,C_F_05.jpg,left,988.9200000325218,true,high,false
VAaVt1TL,3y3czjszan6hsnojzw5z9ps3vnar5b,30iqtzxkaoj4hwmo2rah6wer2no0xt,VAaVt1TL,2020-0188,2020-06-04,08:41:28,08:59:17,NA,incomplete,229,race,3,1,right,A_F_11.jpg,C_F_14.jpg,A_M_09.jpg,right,982.674999977462,true,high,false
VAaVt1TL,3y3czjszan6hsnojzw5z9ps3vnar5b,30iqtzxkaoj4hwmo2rah6wer2no0xt,VAaVt1TL,2020-0188,2020-06-04,08:41:28,08:59:17,NA,incomplete,230,race,3,0,left,A_M_03.jpg,A_F_02.jpg,C_M_13.jpg,left,657.6300000306219,true,high,false
VAaVt1TL,3y3czjszan6hsnojzw5z9ps3vnar5b,30iqtzxkaoj4hwmo2rah6wer2no0xt,VAaVt1TL,2020-0188,2020-06-04,08:41:28,08:59:17,NA,incomplete,231,race,3,1,right,C_F_12.jpg,A_F_04.jpg,C_M_08.jpg,right,826.0899999877438,true,high,false
VAaVt1TL,3y3czjszan6hsnojzw5z9ps3vnar5b,30iqtzxkaoj4hwmo2rah6wer2no0xt,VAaVt1TL,2020-0188,2020-06-04,08:41:28,08:59:17,NA,incomplete,232,race,3,0,left,A_F_01.jpg,A_M_08.jpg,C_F_07.jpg,left,1059.4399999827147,true,high,false
VAaVt1TL,3y3czjszan6hsnojzw5z9ps3vnar5b,30iqtzxkaoj4hwmo2rah6wer2no0xt,VAaVt1TL,2020-0188,2020-06-04,08:41:28,08:59:17,NA,incomplete,233,race,3,1,right,C_M_13.jpg,A_M_09.jpg,C_F_11.jpg,right,1099.350000033155,true,high,false
VAaVt1TL,3y3czjszan6hsnojzw5z9ps3vnar5b,30iqtzxkaoj4hwmo2rah6wer2no0xt,VAaVt1TL,2020-0188,2020-06-04,08:41:28,08:59:17,NA,incomplete,234,race,3,1,right,A_F_14.jpg,C_F_03.jpg,A_M_04.jpg,right,1337.1949999127537,true,high,false
VAaVt1TL,3y3czjszan6hsnojzw5z9ps3vnar5b,30iqtzxkaoj4hwmo2rah6wer2no0xt,VAaVt1TL,2020-0188,2020-06-04,08:41:28,08:59:17,NA,incomplete,235,race,3,1,left,A_M_06.jpg,A_F_04.jpg,C_M_05.jpg,left,748.8199999788776,true,high,false
VAaVt1TL,3y3czjszan6hsnojzw5z9ps3vnar5b,30iqtzxkaoj4hwmo2rah6wer2no0xt,VAaVt1TL,2020-0188,2020-06-04,08:41:28,08:59:17,NA,incomplete,236,race,3,1,left,C_F_13.jpg,C_M_02.jpg,A_F_03.jpg,left,1130.7750000851229,true,high,false
VAaVt1TL,3y3czjszan6hsnojzw5z9ps3vnar5b,30iqtzxkaoj4hwmo2rah6wer2no0xt,VAaVt1TL,2020-0188,2020-06-04,08:41:28,08:59:17,NA,incomplete,237,race,3,1,left,C_F_08.jpg,C_M_04.jpg,A_F_11.jpg,left,846.9200000399724,true,high,false
VAaVt1TL,3y3czjszan6hsnojzw5z9ps3vnar5b,30iqtzxkaoj4hwmo2rah6wer2no0xt,VAaVt1TL,2020-0188,2020-06-04,08:41:28,08:59:17,NA,incomplete,238,race,3,1,right,A_M_14.jpg,C_M_16.jpg,A_F_01.jpg,right,823.2650000136346,true,high,false
VAaVt1TL,3y3czjszan6hsnojzw5z9ps3vnar5b,30iqtzxkaoj4hwmo2rah6wer2no0xt,VAaVt1TL,2020-0188,2020-06-04,08:41:28,08:59:17,NA,incomplete,239,race,3,1,right,C_F_01.jpg,A_F_12.jpg,C_M_09.jpg,right,872.425000066869,true,high,false
VAaVt1TL,3y3czjszan6hsnojzw5z9ps3vnar5b,30iqtzxkaoj4hwmo2rah6wer2no0xt,VAaVt1TL,2020-0188,2020-06-04,08:41:28,08:59:17,NA,NA,instruction example,color,NA,NA,NA,Red_Star_Chess_1.jpg,Red_Plus_Grid_4.jpg,Blue_Circle_Dots_1.jpg,NA,NA,NA,NA,undefined
VAaVt1TL,3y3czjszan6hsnojzw5z9ps3vnar5b,30iqtzxkaoj4hwmo2rah6wer2no0xt,VAaVt1TL,2020-0188,2020-06-04,08:41:28,08:59:17,NA,NA,instruction example,color,NA,NA,NA,Purple_Plus_Grid_1.jpg,Green_Star_Dots_1.jpg,Purple_Triangle_Stripes_4.jpg,NA,NA,NA,NA,undefined
VAaVt1TL,3y3czjszan6hsnojzw5z9ps3vnar5b,30iqtzxkaoj4hwmo2rah6wer2no0xt,VAaVt1TL,2020-0188,2020-06-04,08:41:28,08:59:17,NA,NA,instruction example,color,NA,NA,NA,A_F_02.jpg,C_F_12.jpg,A_M_16.jpg,NA,NA,NA,NA,undefined
VAaVt1TL,3y3czjszan6hsnojzw5z9ps3vnar5b,30iqtzxkaoj4hwmo2rah6wer2no0xt,VAaVt1TL,2020-0188,2020-06-04,08:41:28,08:59:17,NA,NA,instruction example,color,NA,NA,NA,C_F_07.jpg,C_M_08.jpg,A_F_02.jpg,NA,NA,NA,NA,undefined
VAaVt1TL,3y3czjszan6hsnojzw5z9ps3vnar5b,30iqtzxkaoj4hwmo2rah6wer2no0xt,VAaVt1TL,2020-0188,2020-06-04,08:41:28,08:59:17,1037229.1999999434,1069768.9000000246,NA,NA,NA,NA,NA,NA,NA,NA,NA,NA,NA,NA,undefined
