workerId,hitId,assignmentId,subject,studyid,exp_date,exp_start,exp_end,time_start,time_end,trial,type,sequence,reward_validity,answer,image_top,image_left,image_right,response,response_time,response_acc,volatility,practice
gQPeBk1w,39tx062qy41yb4nrucnyjag7oeq3xx,30lsnf239y8enb07iseumaks7q7i2w,gQPeBk1w,2020-0188,2020-11-17,18:40:02,18:54:34,NA,incomplete,0,color,0,1,right,Green_Star_Dots_4.jpg,Blue_Star_Grid_3.jpg,Green_Circle_Chess_1.jpg,right,1452.7700000908226,true,NA,true
gQPeBk1w,39tx062qy41yb4nrucnyjag7oeq3xx,30lsnf239y8enb07iseumaks7q7i2w,gQPeBk1w,2020-0188,2020-11-17,18:40:02,18:54:34,NA,incomplete,1,color,0,0,right,Red_Circle_Chess_1.jpg,Blue_Circle_Grid_4.jpg,Red_Star_Dots_2.jpg,right,727.8549999464303,true,NA,true
gQPeBk1w,39tx062qy41yb4nrucnyjag7oeq3xx,30lsnf239y8enb07iseumaks7q7i2w,gQPeBk1w,2020-0188,2020-11-17,18:40:02,18:54:34,NA,incomplete,2,color,0,1,left,Red_Circle_Chess_1.jpg,Red_Star_Grid_3.jpg,Blue_Circle_Dots_4.jpg,left,525.8200000971556,true,NA,true
gQPeBk1w,39tx062qy41yb4nrucnyjag7oeq3xx,30lsnf239y8enb07iseumaks7q7i2w,gQPeBk1w,2020-0188,2020-11-17,18:40:02,18:54:34,NA,incomplete,3,color,0,0,right,Purple_Triangle_Dots_1.jpg,Red_Triangle_Grid_2.jpg,Purple_Circle_Stripes_4.jpg,right,732.5949999503791,true,NA,true
gQPeBk1w,39tx062qy41yb4nrucnyjag7oeq3xx,30lsnf239y8enb07iseumaks7q7i2w,gQPeBk1w,2020-0188,2020-11-17,18:40:02,18:54:34,NA,incomplete,4,color,0,0,right,Purple_Plus_Dots_3.jpg,Red_Plus_Chess_2.jpg,Purple_Star_Stripes_4.jpg,right,1010.1700001396239,true,NA,true
gQPeBk1w,39tx062qy41yb4nrucnyjag7oeq3xx,30lsnf239y8enb07iseumaks7q7i2w,gQPeBk1w,2020-0188,2020-11-17,18:40:02,18:54:34,NA,incomplete,5,color,0,1,right,Red_Plus_Grid_1.jpg,Blue_Plus_Chess_2.jpg,Red_Circle_Dots_3.jpg,right,613.405000185594,true,NA,true
gQPeBk1w,39tx062qy41yb4nrucnyjag7oeq3xx,30lsnf239y8enb07iseumaks7q7i2w,gQPeBk1w,2020-0188,2020-11-17,18:40:02,18:54:34,NA,incomplete,6,color,0,1,right,Green_Circle_Dots_2.jpg,Purple_Circle_Stripes_4.jpg,Green_Plus_Chess_1.jpg,right,513.8249997980893,true,NA,true
gQPeBk1w,39tx062qy41yb4nrucnyjag7oeq3xx,30lsnf239y8enb07iseumaks7q7i2w,gQPeBk1w,2020-0188,2020-11-17,18:40:02,18:54:34,NA,incomplete,7,color,0,1,left,Red_Star_Dots_3.jpg,Red_Circle_Chess_2.jpg,Green_Star_Grid_4.jpg,left,1046.1899999063462,true,NA,true
gQPeBk1w,39tx062qy41yb4nrucnyjag7oeq3xx,30lsnf239y8enb07iseumaks7q7i2w,gQPeBk1w,2020-0188,2020-11-17,18:40:02,18:54:34,NA,incomplete,8,color,0,1,right,Purple_Circle_Dots_4.jpg,Red_Circle_Grid_1.jpg,Purple_Star_Chess_3.jpg,right,741.3200000301003,true,NA,true
gQPeBk1w,39tx062qy41yb4nrucnyjag7oeq3xx,30lsnf239y8enb07iseumaks7q7i2w,gQPeBk1w,2020-0188,2020-11-17,18:40:02,18:54:34,NA,incomplete,9,color,0,1,right,Purple_Star_Grid_4.jpg,Green_Star_Chess_1.jpg,Purple_Circle_Stripes_2.jpg,right,626.7199998255819,true,NA,true
gQPeBk1w,39tx062qy41yb4nrucnyjag7oeq3xx,30lsnf239y8enb07iseumaks7q7i2w,gQPeBk1w,2020-0188,2020-11-17,18:40:02,18:54:34,NA,incomplete,10,color,0,1,right,Green_Circle_Stripes_1.jpg,Purple_Circle_Dots_4.jpg,Green_Star_Chess_3.jpg,right,642.299999948591,true,NA,true
gQPeBk1w,39tx062qy41yb4nrucnyjag7oeq3xx,30lsnf239y8enb07iseumaks7q7i2w,gQPeBk1w,2020-0188,2020-11-17,18:40:02,18:54:34,NA,incomplete,11,color,0,1,right,Purple_Plus_Stripes_3.jpg,Blue_Plus_Chess_1.jpg,Purple_Triangle_Dots_4.jpg,right,714.3850000575185,true,NA,true
gQPeBk1w,39tx062qy41yb4nrucnyjag7oeq3xx,30lsnf239y8enb07iseumaks7q7i2w,gQPeBk1w,2020-0188,2020-11-17,18:40:02,18:54:34,NA,incomplete,12,color,0,1,left,Green_Star_Dots_4.jpg,Green_Triangle_Chess_3.jpg,Red_Star_Grid_1.jpg,left,763.3400000631809,true,NA,true
gQPeBk1w,39tx062qy41yb4nrucnyjag7oeq3xx,30lsnf239y8enb07iseumaks7q7i2w,gQPeBk1w,2020-0188,2020-11-17,18:40:02,18:54:34,NA,incomplete,13,color,0,1,right,Red_Triangle_Grid_1.jpg,Purple_Triangle_Chess_4.jpg,Red_Plus_Dots_2.jpg,right,649.5550000108778,true,NA,true
gQPeBk1w,39tx062qy41yb4nrucnyjag7oeq3xx,30lsnf239y8enb07iseumaks7q7i2w,gQPeBk1w,2020-0188,2020-11-17,18:40:02,18:54:34,NA,incomplete,14,color,0,1,left,Red_Circle_Grid_3.jpg,Red_Plus_Chess_4.jpg,Green_Circle_Stripes_1.jpg,left,550.9450000245124,true,NA,true
gQPeBk1w,39tx062qy41yb4nrucnyjag7oeq3xx,30lsnf239y8enb07iseumaks7q7i2w,gQPeBk1w,2020-0188,2020-11-17,18:40:02,18:54:34,NA,incomplete,15,color,0,1,right,Red_Star_Chess_3.jpg,Blue_Star_Stripes_4.jpg,Red_Plus_Grid_2.jpg,right,532.6249999925494,true,NA,true
gQPeBk1w,39tx062qy41yb4nrucnyjag7oeq3xx,30lsnf239y8enb07iseumaks7q7i2w,gQPeBk1w,2020-0188,2020-11-17,18:40:02,18:54:34,NA,incomplete,16,color,0,1,right,Blue_Triangle_Chess_2.jpg,Red_Triangle_Stripes_1.jpg,Blue_Plus_Grid_4.jpg,right,606.3100001774728,true,NA,true
gQPeBk1w,39tx062qy41yb4nrucnyjag7oeq3xx,30lsnf239y8enb07iseumaks7q7i2w,gQPeBk1w,2020-0188,2020-11-17,18:40:02,18:54:34,NA,incomplete,17,color,0,0,right,Purple_Triangle_Stripes_2.jpg,Green_Triangle_Chess_1.jpg,Purple_Circle_Grid_3.jpg,right,653.3749999944121,true,NA,true
gQPeBk1w,39tx062qy41yb4nrucnyjag7oeq3xx,30lsnf239y8enb07iseumaks7q7i2w,gQPeBk1w,2020-0188,2020-11-17,18:40:02,18:54:34,NA,incomplete,18,color,0,1,right,Purple_Triangle_Chess_3.jpg,Blue_Triangle_Dots_2.jpg,Purple_Star_Stripes_1.jpg,right,612.4250001739711,true,NA,true
gQPeBk1w,39tx062qy41yb4nrucnyjag7oeq3xx,30lsnf239y8enb07iseumaks7q7i2w,gQPeBk1w,2020-0188,2020-11-17,18:40:02,18:54:34,NA,incomplete,19,color,0,0,right,Purple_Circle_Stripes_1.jpg,Green_Circle_Grid_2.jpg,Purple_Triangle_Dots_4.jpg,right,552.8550001326948,true,NA,true
gQPeBk1w,39tx062qy41yb4nrucnyjag7oeq3xx,30lsnf239y8enb07iseumaks7q7i2w,gQPeBk1w,2020-0188,2020-11-17,18:40:02,18:54:34,NA,incomplete,20,shape,1,1,left,Blue_Triangle_Dots_2.jpg,Purple_Triangle_Grid_4.jpg,Blue_Circle_Chess_1.jpg,left,854.6299999579787,true,NA,true
gQPeBk1w,39tx062qy41yb4nrucnyjag7oeq3xx,30lsnf239y8enb07iseumaks7q7i2w,gQPeBk1w,2020-0188,2020-11-17,18:40:02,18:54:34,NA,incomplete,21,shape,1,1,left,Blue_Plus_Chess_2.jpg,Green_Plus_Grid_3.jpg,Blue_Circle_Stripes_1.jpg,left,585.6599998660386,true,NA,true
gQPeBk1w,39tx062qy41yb4nrucnyjag7oeq3xx,30lsnf239y8enb07iseumaks7q7i2w,gQPeBk1w,2020-0188,2020-11-17,18:40:02,18:54:34,NA,incomplete,22,shape,1,1,left,Purple_Circle_Dots_1.jpg,Red_Circle_Stripes_3.jpg,Purple_Star_Grid_4.jpg,left,603.6300000268966,true,NA,true
gQPeBk1w,39tx062qy41yb4nrucnyjag7oeq3xx,30lsnf239y8enb07iseumaks7q7i2w,gQPeBk1w,2020-0188,2020-11-17,18:40:02,18:54:34,NA,incomplete,23,shape,1,1,left,Red_Plus_Dots_4.jpg,Purple_Plus_Grid_2.jpg,Red_Circle_Chess_1.jpg,left,854.0299998130649,true,NA,true
gQPeBk1w,39tx062qy41yb4nrucnyjag7oeq3xx,30lsnf239y8enb07iseumaks7q7i2w,gQPeBk1w,2020-0188,2020-11-17,18:40:02,18:54:34,NA,incomplete,24,shape,1,0,right,Purple_Triangle_Grid_3.jpg,Purple_Star_Chess_2.jpg,Blue_Triangle_Stripes_1.jpg,right,692.0949998311698,true,NA,true
gQPeBk1w,39tx062qy41yb4nrucnyjag7oeq3xx,30lsnf239y8enb07iseumaks7q7i2w,gQPeBk1w,2020-0188,2020-11-17,18:40:02,18:54:34,NA,incomplete,25,shape,1,1,right,Blue_Plus_Grid_2.jpg,Blue_Circle_Dots_3.jpg,Purple_Plus_Chess_1.jpg,right,677.4200000800192,true,NA,true
gQPeBk1w,39tx062qy41yb4nrucnyjag7oeq3xx,30lsnf239y8enb07iseumaks7q7i2w,gQPeBk1w,2020-0188,2020-11-17,18:40:02,18:54:34,NA,incomplete,26,shape,1,1,right,Red_Star_Stripes_3.jpg,Red_Plus_Grid_4.jpg,Blue_Star_Chess_2.jpg,right,765.8750000409782,true,NA,true
gQPeBk1w,39tx062qy41yb4nrucnyjag7oeq3xx,30lsnf239y8enb07iseumaks7q7i2w,gQPeBk1w,2020-0188,2020-11-17,18:40:02,18:54:34,NA,incomplete,27,shape,1,1,left,Green_Circle_Stripes_2.jpg,Purple_Circle_Grid_3.jpg,Green_Triangle_Chess_4.jpg,left,782.9549999441952,true,NA,true
gQPeBk1w,39tx062qy41yb4nrucnyjag7oeq3xx,30lsnf239y8enb07iseumaks7q7i2w,gQPeBk1w,2020-0188,2020-11-17,18:40:02,18:54:34,NA,incomplete,28,shape,1,1,right,Purple_Circle_Stripes_3.jpg,Purple_Star_Grid_2.jpg,Red_Circle_Dots_4.jpg,right,518.8700000289828,true,NA,true
gQPeBk1w,39tx062qy41yb4nrucnyjag7oeq3xx,30lsnf239y8enb07iseumaks7q7i2w,gQPeBk1w,2020-0188,2020-11-17,18:40:02,18:54:34,NA,incomplete,29,shape,1,1,left,Green_Star_Stripes_1.jpg,Red_Star_Dots_3.jpg,Green_Triangle_Chess_2.jpg,left,552.0900001283735,true,NA,true
gQPeBk1w,39tx062qy41yb4nrucnyjag7oeq3xx,30lsnf239y8enb07iseumaks7q7i2w,gQPeBk1w,2020-0188,2020-11-17,18:40:02,18:54:34,NA,incomplete,30,shape,1,1,right,Blue_Triangle_Chess_4.jpg,Blue_Star_Dots_1.jpg,Green_Triangle_Grid_2.jpg,right,590.2100000530481,true,NA,true
gQPeBk1w,39tx062qy41yb4nrucnyjag7oeq3xx,30lsnf239y8enb07iseumaks7q7i2w,gQPeBk1w,2020-0188,2020-11-17,18:40:02,18:54:34,NA,incomplete,31,shape,1,1,right,Purple_Plus_Grid_4.jpg,Purple_Circle_Chess_1.jpg,Red_Plus_Stripes_2.jpg,right,560.59499992989,true,NA,true
gQPeBk1w,39tx062qy41yb4nrucnyjag7oeq3xx,30lsnf239y8enb07iseumaks7q7i2w,gQPeBk1w,2020-0188,2020-11-17,18:40:02,18:54:34,NA,incomplete,32,shape,1,0,right,Purple_Plus_Chess_3.jpg,Purple_Triangle_Grid_4.jpg,Blue_Plus_Dots_1.jpg,right,544.2899998743087,true,NA,true
gQPeBk1w,39tx062qy41yb4nrucnyjag7oeq3xx,30lsnf239y8enb07iseumaks7q7i2w,gQPeBk1w,2020-0188,2020-11-17,18:40:02,18:54:34,NA,incomplete,33,shape,1,1,right,Purple_Triangle_Stripes_4.jpg,Purple_Star_Grid_2.jpg,Red_Triangle_Dots_3.jpg,right,524.3949999567121,true,NA,true
gQPeBk1w,39tx062qy41yb4nrucnyjag7oeq3xx,30lsnf239y8enb07iseumaks7q7i2w,gQPeBk1w,2020-0188,2020-11-17,18:40:02,18:54:34,NA,incomplete,34,shape,1,0,right,Blue_Triangle_Dots_1.jpg,Blue_Star_Grid_3.jpg,Green_Triangle_Chess_2.jpg,right,512.4649999197572,true,NA,true
gQPeBk1w,39tx062qy41yb4nrucnyjag7oeq3xx,30lsnf239y8enb07iseumaks7q7i2w,gQPeBk1w,2020-0188,2020-11-17,18:40:02,18:54:34,NA,incomplete,35,shape,1,1,left,Purple_Triangle_Stripes_4.jpg,Green_Triangle_Chess_3.jpg,Purple_Star_Dots_1.jpg,left,580.7199999690056,true,NA,true
gQPeBk1w,39tx062qy41yb4nrucnyjag7oeq3xx,30lsnf239y8enb07iseumaks7q7i2w,gQPeBk1w,2020-0188,2020-11-17,18:40:02,18:54:34,NA,incomplete,36,shape,1,1,left,Red_Star_Stripes_1.jpg,Purple_Star_Grid_2.jpg,Red_Plus_Chess_3.jpg,left,922.3899999633431,true,NA,true
gQPeBk1w,39tx062qy41yb4nrucnyjag7oeq3xx,30lsnf239y8enb07iseumaks7q7i2w,gQPeBk1w,2020-0188,2020-11-17,18:40:02,18:54:34,NA,incomplete,37,shape,1,1,right,Green_Triangle_Dots_4.jpg,Green_Circle_Stripes_3.jpg,Purple_Triangle_Chess_2.jpg,right,605.1750001497567,true,NA,true
gQPeBk1w,39tx062qy41yb4nrucnyjag7oeq3xx,30lsnf239y8enb07iseumaks7q7i2w,gQPeBk1w,2020-0188,2020-11-17,18:40:02,18:54:34,NA,incomplete,38,shape,1,1,left,Red_Triangle_Stripes_1.jpg,Green_Triangle_Grid_2.jpg,Red_Star_Dots_4.jpg,left,579.2349998373538,true,NA,true
gQPeBk1w,39tx062qy41yb4nrucnyjag7oeq3xx,30lsnf239y8enb07iseumaks7q7i2w,gQPeBk1w,2020-0188,2020-11-17,18:40:02,18:54:34,NA,incomplete,39,shape,1,1,right,Red_Circle_Grid_3.jpg,Red_Plus_Stripes_2.jpg,Blue_Circle_Dots_1.jpg,right,527.9149999842048,true,NA,true
gQPeBk1w,39tx062qy41yb4nrucnyjag7oeq3xx,30lsnf239y8enb07iseumaks7q7i2w,gQPeBk1w,2020-0188,2020-11-17,18:40:02,18:54:34,NA,incomplete,0,color,0,1,right,Purple_Plus_Stripes_2.jpg,Green_Plus_Chess_4.jpg,Purple_Star_Dots_1.jpg,left,1105.9499999973923,false,low,false
gQPeBk1w,39tx062qy41yb4nrucnyjag7oeq3xx,30lsnf239y8enb07iseumaks7q7i2w,gQPeBk1w,2020-0188,2020-11-17,18:40:02,18:54:34,NA,incomplete,1,color,0,1,left,Green_Star_Stripes_1.jpg,Green_Circle_Chess_4.jpg,Blue_Star_Grid_2.jpg,left,928.6150000989437,true,low,false
gQPeBk1w,39tx062qy41yb4nrucnyjag7oeq3xx,30lsnf239y8enb07iseumaks7q7i2w,gQPeBk1w,2020-0188,2020-11-17,18:40:02,18:54:34,NA,incomplete,2,color,0,1,left,Blue_Triangle_Grid_4.jpg,Blue_Star_Dots_2.jpg,Purple_Triangle_Stripes_3.jpg,left,762.1100000105798,true,low,false
gQPeBk1w,39tx062qy41yb4nrucnyjag7oeq3xx,30lsnf239y8enb07iseumaks7q7i2w,gQPeBk1w,2020-0188,2020-11-17,18:40:02,18:54:34,NA,incomplete,3,color,0,1,right,Blue_Plus_Grid_1.jpg,Red_Plus_Dots_4.jpg,Blue_Triangle_Chess_3.jpg,right,657.2300000116229,true,low,false
gQPeBk1w,39tx062qy41yb4nrucnyjag7oeq3xx,30lsnf239y8enb07iseumaks7q7i2w,gQPeBk1w,2020-0188,2020-11-17,18:40:02,18:54:34,NA,incomplete,4,color,0,0,right,Green_Plus_Stripes_1.jpg,Purple_Plus_Chess_2.jpg,Green_Triangle_Grid_3.jpg,right,669.7949999943376,true,low,false
gQPeBk1w,39tx062qy41yb4nrucnyjag7oeq3xx,30lsnf239y8enb07iseumaks7q7i2w,gQPeBk1w,2020-0188,2020-11-17,18:40:02,18:54:34,NA,incomplete,5,color,0,1,right,Blue_Star_Stripes_4.jpg,Red_Star_Chess_2.jpg,Blue_Triangle_Grid_3.jpg,right,605.5650000926107,true,low,false
gQPeBk1w,39tx062qy41yb4nrucnyjag7oeq3xx,30lsnf239y8enb07iseumaks7q7i2w,gQPeBk1w,2020-0188,2020-11-17,18:40:02,18:54:34,NA,incomplete,6,color,0,1,left,Green_Triangle_Grid_2.jpg,Green_Plus_Stripes_3.jpg,Blue_Triangle_Chess_1.jpg,left,707.8149998560548,true,low,false
gQPeBk1w,39tx062qy41yb4nrucnyjag7oeq3xx,30lsnf239y8enb07iseumaks7q7i2w,gQPeBk1w,2020-0188,2020-11-17,18:40:02,18:54:34,NA,incomplete,7,color,0,1,right,Blue_Circle_Stripes_4.jpg,Purple_Circle_Chess_3.jpg,Blue_Triangle_Dots_1.jpg,right,705.2450000774115,true,low,false
gQPeBk1w,39tx062qy41yb4nrucnyjag7oeq3xx,30lsnf239y8enb07iseumaks7q7i2w,gQPeBk1w,2020-0188,2020-11-17,18:40:02,18:54:34,NA,incomplete,8,color,0,1,right,Blue_Star_Stripes_2.jpg,Purple_Star_Dots_3.jpg,Blue_Plus_Chess_1.jpg,right,564.0300000086427,true,low,false
gQPeBk1w,39tx062qy41yb4nrucnyjag7oeq3xx,30lsnf239y8enb07iseumaks7q7i2w,gQPeBk1w,2020-0188,2020-11-17,18:40:02,18:54:34,NA,incomplete,9,color,0,1,left,Purple_Plus_Chess_4.jpg,Purple_Triangle_Dots_1.jpg,Green_Plus_Stripes_3.jpg,left,651.4699999243021,true,low,false
gQPeBk1w,39tx062qy41yb4nrucnyjag7oeq3xx,30lsnf239y8enb07iseumaks7q7i2w,gQPeBk1w,2020-0188,2020-11-17,18:40:02,18:54:34,NA,incomplete,10,shape,1,1,left,Purple_Star_Chess_1.jpg,Blue_Star_Grid_3.jpg,Purple_Plus_Stripes_2.jpg,right,611.0249999910593,false,low,false
gQPeBk1w,39tx062qy41yb4nrucnyjag7oeq3xx,30lsnf239y8enb07iseumaks7q7i2w,gQPeBk1w,2020-0188,2020-11-17,18:40:02,18:54:34,NA,incomplete,11,shape,1,1,right,Blue_Plus_Dots_3.jpg,Blue_Triangle_Grid_1.jpg,Purple_Plus_Stripes_4.jpg,left,621.2049999739975,false,low,false
gQPeBk1w,39tx062qy41yb4nrucnyjag7oeq3xx,30lsnf239y8enb07iseumaks7q7i2w,gQPeBk1w,2020-0188,2020-11-17,18:40:02,18:54:34,NA,incomplete,12,shape,1,1,right,Red_Plus_Stripes_2.jpg,Red_Star_Dots_1.jpg,Blue_Plus_Chess_3.jpg,left,633.4450000431389,false,low,false
gQPeBk1w,39tx062qy41yb4nrucnyjag7oeq3xx,30lsnf239y8enb07iseumaks7q7i2w,gQPeBk1w,2020-0188,2020-11-17,18:40:02,18:54:34,NA,incomplete,13,shape,1,1,left,Purple_Triangle_Grid_2.jpg,Blue_Triangle_Stripes_4.jpg,Purple_Circle_Dots_1.jpg,left,1216.020000167191,true,low,false
gQPeBk1w,39tx062qy41yb4nrucnyjag7oeq3xx,30lsnf239y8enb07iseumaks7q7i2w,gQPeBk1w,2020-0188,2020-11-17,18:40:02,18:54:34,NA,incomplete,14,shape,1,0,right,Green_Circle_Chess_4.jpg,Green_Star_Stripes_2.jpg,Blue_Circle_Grid_1.jpg,right,928.6499998997897,true,low,false
gQPeBk1w,39tx062qy41yb4nrucnyjag7oeq3xx,30lsnf239y8enb07iseumaks7q7i2w,gQPeBk1w,2020-0188,2020-11-17,18:40:02,18:54:34,NA,incomplete,15,shape,1,0,right,Green_Star_Dots_4.jpg,Green_Triangle_Grid_3.jpg,Red_Star_Chess_1.jpg,right,746.6249999124557,true,low,false
gQPeBk1w,39tx062qy41yb4nrucnyjag7oeq3xx,30lsnf239y8enb07iseumaks7q7i2w,gQPeBk1w,2020-0188,2020-11-17,18:40:02,18:54:34,NA,incomplete,16,shape,1,1,left,Blue_Circle_Grid_2.jpg,Purple_Circle_Stripes_4.jpg,Blue_Plus_Chess_3.jpg,right,1012.4599998816848,false,low,false
gQPeBk1w,39tx062qy41yb4nrucnyjag7oeq3xx,30lsnf239y8enb07iseumaks7q7i2w,gQPeBk1w,2020-0188,2020-11-17,18:40:02,18:54:34,NA,incomplete,17,shape,1,1,right,Red_Star_Chess_4.jpg,Red_Plus_Grid_2.jpg,Green_Star_Dots_1.jpg,right,1186.7899999488145,true,low,false
gQPeBk1w,39tx062qy41yb4nrucnyjag7oeq3xx,30lsnf239y8enb07iseumaks7q7i2w,gQPeBk1w,2020-0188,2020-11-17,18:40:02,18:54:34,NA,incomplete,18,shape,1,1,left,Red_Star_Grid_3.jpg,Green_Star_Stripes_4.jpg,Red_Plus_Dots_1.jpg,left,766.1500000394881,true,low,false
gQPeBk1w,39tx062qy41yb4nrucnyjag7oeq3xx,30lsnf239y8enb07iseumaks7q7i2w,gQPeBk1w,2020-0188,2020-11-17,18:40:02,18:54:34,NA,incomplete,19,shape,1,1,right,Red_Triangle_Stripes_4.jpg,Red_Star_Grid_3.jpg,Purple_Triangle_Dots_2.jpg,right,796.0099999327213,true,low,false
gQPeBk1w,39tx062qy41yb4nrucnyjag7oeq3xx,30lsnf239y8enb07iseumaks7q7i2w,gQPeBk1w,2020-0188,2020-11-17,18:40:02,18:54:34,NA,incomplete,20,color,0,1,right,Red_Circle_Grid_4.jpg,Blue_Circle_Dots_3.jpg,Red_Triangle_Chess_2.jpg,left,917.9549999535084,false,low,false
gQPeBk1w,39tx062qy41yb4nrucnyjag7oeq3xx,30lsnf239y8enb07iseumaks7q7i2w,gQPeBk1w,2020-0188,2020-11-17,18:40:02,18:54:34,NA,incomplete,21,color,0,1,left,Purple_Plus_Grid_2.jpg,Purple_Triangle_Stripes_1.jpg,Red_Plus_Chess_3.jpg,right,593.9650000073016,false,low,false
gQPeBk1w,39tx062qy41yb4nrucnyjag7oeq3xx,30lsnf239y8enb07iseumaks7q7i2w,gQPeBk1w,2020-0188,2020-11-17,18:40:02,18:54:34,NA,incomplete,22,color,0,1,right,Blue_Triangle_Grid_2.jpg,Red_Triangle_Dots_1.jpg,Blue_Circle_Chess_3.jpg,right,1348.7549999263138,true,low,false
gQPeBk1w,39tx062qy41yb4nrucnyjag7oeq3xx,30lsnf239y8enb07iseumaks7q7i2w,gQPeBk1w,2020-0188,2020-11-17,18:40:02,18:54:34,NA,incomplete,23,color,0,0,left,Red_Triangle_Grid_2.jpg,Red_Star_Chess_3.jpg,Green_Triangle_Stripes_1.jpg,left,927.1450000815094,true,low,false
gQPeBk1w,39tx062qy41yb4nrucnyjag7oeq3xx,30lsnf239y8enb07iseumaks7q7i2w,gQPeBk1w,2020-0188,2020-11-17,18:40:02,18:54:34,NA,incomplete,24,color,0,1,left,Red_Triangle_Dots_4.jpg,Red_Circle_Grid_3.jpg,Blue_Triangle_Chess_2.jpg,left,819.3249998148531,true,low,false
gQPeBk1w,39tx062qy41yb4nrucnyjag7oeq3xx,30lsnf239y8enb07iseumaks7q7i2w,gQPeBk1w,2020-0188,2020-11-17,18:40:02,18:54:34,NA,incomplete,25,color,0,1,left,Blue_Plus_Stripes_2.jpg,Blue_Star_Grid_3.jpg,Green_Plus_Dots_4.jpg,right,765.3300000820309,false,low,false
gQPeBk1w,39tx062qy41yb4nrucnyjag7oeq3xx,30lsnf239y8enb07iseumaks7q7i2w,gQPeBk1w,2020-0188,2020-11-17,18:40:02,18:54:34,NA,incomplete,26,color,0,1,left,Purple_Plus_Stripes_3.jpg,Purple_Star_Chess_1.jpg,Red_Plus_Dots_2.jpg,left,753.2750000245869,true,low,false
gQPeBk1w,39tx062qy41yb4nrucnyjag7oeq3xx,30lsnf239y8enb07iseumaks7q7i2w,gQPeBk1w,2020-0188,2020-11-17,18:40:02,18:54:34,NA,incomplete,27,color,0,1,left,Red_Plus_Dots_1.jpg,Red_Circle_Chess_2.jpg,Blue_Plus_Grid_4.jpg,left,1009.4299998600036,true,low,false
gQPeBk1w,39tx062qy41yb4nrucnyjag7oeq3xx,30lsnf239y8enb07iseumaks7q7i2w,gQPeBk1w,2020-0188,2020-11-17,18:40:02,18:54:34,NA,incomplete,28,color,0,1,left,Blue_Star_Stripes_2.jpg,Blue_Triangle_Grid_3.jpg,Purple_Star_Dots_4.jpg,left,676.5449999365956,true,low,false
gQPeBk1w,39tx062qy41yb4nrucnyjag7oeq3xx,30lsnf239y8enb07iseumaks7q7i2w,gQPeBk1w,2020-0188,2020-11-17,18:40:02,18:54:34,NA,incomplete,29,color,0,1,right,Purple_Triangle_Chess_2.jpg,Blue_Triangle_Grid_1.jpg,Purple_Plus_Dots_3.jpg,right,563.0149999633431,true,low,false
gQPeBk1w,39tx062qy41yb4nrucnyjag7oeq3xx,30lsnf239y8enb07iseumaks7q7i2w,gQPeBk1w,2020-0188,2020-11-17,18:40:02,18:54:34,NA,incomplete,30,shape,1,1,left,Blue_Plus_Stripes_4.jpg,Green_Plus_Grid_3.jpg,Blue_Star_Dots_1.jpg,right,542.105000000447,false,low,false
gQPeBk1w,39tx062qy41yb4nrucnyjag7oeq3xx,30lsnf239y8enb07iseumaks7q7i2w,gQPeBk1w,2020-0188,2020-11-17,18:40:02,18:54:34,NA,incomplete,31,shape,1,1,right,Red_Plus_Grid_1.jpg,Red_Triangle_Stripes_3.jpg,Blue_Plus_Dots_2.jpg,left,498.21000010706484,false,low,false
gQPeBk1w,39tx062qy41yb4nrucnyjag7oeq3xx,30lsnf239y8enb07iseumaks7q7i2w,gQPeBk1w,2020-0188,2020-11-17,18:40:02,18:54:34,NA,incomplete,32,shape,1,0,right,Red_Star_Chess_1.jpg,Red_Circle_Dots_4.jpg,Blue_Star_Stripes_2.jpg,right,980.3800000809133,true,low,false
gQPeBk1w,39tx062qy41yb4nrucnyjag7oeq3xx,30lsnf239y8enb07iseumaks7q7i2w,gQPeBk1w,2020-0188,2020-11-17,18:40:02,18:54:34,NA,incomplete,33,shape,1,1,right,Purple_Triangle_Stripes_3.jpg,Purple_Plus_Grid_4.jpg,Green_Triangle_Dots_2.jpg,right,1370.8150000311434,true,low,false
gQPeBk1w,39tx062qy41yb4nrucnyjag7oeq3xx,30lsnf239y8enb07iseumaks7q7i2w,gQPeBk1w,2020-0188,2020-11-17,18:40:02,18:54:34,NA,incomplete,34,shape,1,1,right,Green_Plus_Grid_2.jpg,Green_Circle_Stripes_3.jpg,Blue_Plus_Chess_1.jpg,right,730.9699999168515,true,low,false
gQPeBk1w,39tx062qy41yb4nrucnyjag7oeq3xx,30lsnf239y8enb07iseumaks7q7i2w,gQPeBk1w,2020-0188,2020-11-17,18:40:02,18:54:34,NA,incomplete,35,shape,1,1,right,Red_Triangle_Dots_3.jpg,Red_Plus_Chess_2.jpg,Green_Triangle_Grid_1.jpg,left,724.7750000096858,false,low,false
gQPeBk1w,39tx062qy41yb4nrucnyjag7oeq3xx,30lsnf239y8enb07iseumaks7q7i2w,gQPeBk1w,2020-0188,2020-11-17,18:40:02,18:54:34,NA,incomplete,36,shape,1,1,left,Red_Star_Chess_1.jpg,Purple_Star_Stripes_4.jpg,Red_Triangle_Grid_2.jpg,left,680.8949999976903,true,low,false
gQPeBk1w,39tx062qy41yb4nrucnyjag7oeq3xx,30lsnf239y8enb07iseumaks7q7i2w,gQPeBk1w,2020-0188,2020-11-17,18:40:02,18:54:34,NA,incomplete,37,shape,1,1,left,Blue_Plus_Stripes_3.jpg,Green_Plus_Chess_1.jpg,Blue_Triangle_Grid_4.jpg,left,714.9149999022484,true,low,false
gQPeBk1w,39tx062qy41yb4nrucnyjag7oeq3xx,30lsnf239y8enb07iseumaks7q7i2w,gQPeBk1w,2020-0188,2020-11-17,18:40:02,18:54:34,NA,incomplete,38,shape,1,0,right,Green_Plus_Dots_4.jpg,Green_Triangle_Chess_3.jpg,Purple_Plus_Grid_2.jpg,right,626.7399999778718,true,low,false
gQPeBk1w,39tx062qy41yb4nrucnyjag7oeq3xx,30lsnf239y8enb07iseumaks7q7i2w,gQPeBk1w,2020-0188,2020-11-17,18:40:02,18:54:34,NA,incomplete,39,shape,1,1,left,Purple_Triangle_Chess_1.jpg,Red_Triangle_Grid_4.jpg,Purple_Star_Stripes_2.jpg,left,706.3349999953061,true,low,false
gQPeBk1w,39tx062qy41yb4nrucnyjag7oeq3xx,30lsnf239y8enb07iseumaks7q7i2w,gQPeBk1w,2020-0188,2020-11-17,18:40:02,18:54:34,NA,incomplete,40,color,0,1,left,Purple_Triangle_Stripes_4.jpg,Purple_Star_Dots_1.jpg,Red_Triangle_Grid_3.jpg,right,529.7250000294298,false,low,false
gQPeBk1w,39tx062qy41yb4nrucnyjag7oeq3xx,30lsnf239y8enb07iseumaks7q7i2w,gQPeBk1w,2020-0188,2020-11-17,18:40:02,18:54:34,NA,incomplete,41,color,0,0,left,Green_Star_Stripes_3.jpg,Green_Circle_Dots_4.jpg,Red_Star_Grid_2.jpg,right,690.9050000831485,false,low,false
gQPeBk1w,39tx062qy41yb4nrucnyjag7oeq3xx,30lsnf239y8enb07iseumaks7q7i2w,gQPeBk1w,2020-0188,2020-11-17,18:40:02,18:54:34,NA,incomplete,42,color,0,1,right,Red_Plus_Stripes_3.jpg,Blue_Plus_Grid_2.jpg,Red_Triangle_Chess_1.jpg,left,682.5550000648946,false,low,false
gQPeBk1w,39tx062qy41yb4nrucnyjag7oeq3xx,30lsnf239y8enb07iseumaks7q7i2w,gQPeBk1w,2020-0188,2020-11-17,18:40:02,18:54:34,NA,incomplete,43,color,0,0,left,Blue_Triangle_Stripes_4.jpg,Blue_Circle_Chess_1.jpg,Purple_Triangle_Dots_3.jpg,right,586.295000044629,false,low,false
gQPeBk1w,39tx062qy41yb4nrucnyjag7oeq3xx,30lsnf239y8enb07iseumaks7q7i2w,gQPeBk1w,2020-0188,2020-11-17,18:40:02,18:54:34,NA,incomplete,44,color,0,1,right,Purple_Triangle_Stripes_4.jpg,Green_Triangle_Dots_1.jpg,Purple_Plus_Chess_2.jpg,left,722.3799999337643,false,low,false
gQPeBk1w,39tx062qy41yb4nrucnyjag7oeq3xx,30lsnf239y8enb07iseumaks7q7i2w,gQPeBk1w,2020-0188,2020-11-17,18:40:02,18:54:34,NA,incomplete,45,color,0,1,left,Green_Circle_Chess_3.jpg,Green_Star_Dots_1.jpg,Blue_Circle_Stripes_4.jpg,right,532.0550000760704,false,low,false
gQPeBk1w,39tx062qy41yb4nrucnyjag7oeq3xx,30lsnf239y8enb07iseumaks7q7i2w,gQPeBk1w,2020-0188,2020-11-17,18:40:02,18:54:34,NA,incomplete,46,color,0,0,right,Red_Triangle_Stripes_4.jpg,Purple_Triangle_Chess_3.jpg,Red_Star_Grid_1.jpg,right,1141.8100001756102,true,low,false
gQPeBk1w,39tx062qy41yb4nrucnyjag7oeq3xx,30lsnf239y8enb07iseumaks7q7i2w,gQPeBk1w,2020-0188,2020-11-17,18:40:02,18:54:34,NA,incomplete,47,color,0,1,right,Red_Plus_Grid_3.jpg,Blue_Plus_Stripes_4.jpg,Red_Circle_Dots_2.jpg,left,765.2900000102818,false,low,false
gQPeBk1w,39tx062qy41yb4nrucnyjag7oeq3xx,30lsnf239y8enb07iseumaks7q7i2w,gQPeBk1w,2020-0188,2020-11-17,18:40:02,18:54:34,NA,incomplete,48,color,0,1,left,Purple_Triangle_Dots_3.jpg,Purple_Star_Chess_1.jpg,Green_Triangle_Stripes_4.jpg,right,643.8349999953061,false,low,false
gQPeBk1w,39tx062qy41yb4nrucnyjag7oeq3xx,30lsnf239y8enb07iseumaks7q7i2w,gQPeBk1w,2020-0188,2020-11-17,18:40:02,18:54:34,NA,incomplete,49,color,0,1,left,Blue_Circle_Dots_4.jpg,Blue_Plus_Grid_2.jpg,Red_Circle_Chess_1.jpg,left,625.7199998944998,true,low,false
gQPeBk1w,39tx062qy41yb4nrucnyjag7oeq3xx,30lsnf239y8enb07iseumaks7q7i2w,gQPeBk1w,2020-0188,2020-11-17,18:40:02,18:54:34,NA,incomplete,50,shape,1,1,left,Purple_Star_Dots_3.jpg,Green_Star_Chess_2.jpg,Purple_Circle_Stripes_4.jpg,right,924.6350000612438,false,low,false
gQPeBk1w,39tx062qy41yb4nrucnyjag7oeq3xx,30lsnf239y8enb07iseumaks7q7i2w,gQPeBk1w,2020-0188,2020-11-17,18:40:02,18:54:34,NA,incomplete,51,shape,1,1,right,Blue_Star_Grid_2.jpg,Blue_Triangle_Chess_1.jpg,Red_Star_Stripes_4.jpg,left,551.9850000273436,false,low,false
gQPeBk1w,39tx062qy41yb4nrucnyjag7oeq3xx,30lsnf239y8enb07iseumaks7q7i2w,gQPeBk1w,2020-0188,2020-11-17,18:40:02,18:54:34,NA,incomplete,52,shape,1,1,right,Green_Circle_Dots_1.jpg,Green_Triangle_Stripes_3.jpg,Blue_Circle_Chess_2.jpg,right,1106.950000161305,true,low,false
gQPeBk1w,39tx062qy41yb4nrucnyjag7oeq3xx,30lsnf239y8enb07iseumaks7q7i2w,gQPeBk1w,2020-0188,2020-11-17,18:40:02,18:54:34,NA,incomplete,53,shape,1,1,left,Red_Star_Grid_3.jpg,Purple_Star_Stripes_4.jpg,Red_Triangle_Dots_2.jpg,left,735.3799999691546,true,low,false
gQPeBk1w,39tx062qy41yb4nrucnyjag7oeq3xx,30lsnf239y8enb07iseumaks7q7i2w,gQPeBk1w,2020-0188,2020-11-17,18:40:02,18:54:34,NA,incomplete,54,shape,1,0,left,Blue_Plus_Dots_4.jpg,Green_Plus_Chess_1.jpg,Blue_Triangle_Grid_2.jpg,right,1131.0350000858307,false,low,false
gQPeBk1w,39tx062qy41yb4nrucnyjag7oeq3xx,30lsnf239y8enb07iseumaks7q7i2w,gQPeBk1w,2020-0188,2020-11-17,18:40:02,18:54:34,NA,incomplete,55,shape,1,1,left,Red_Circle_Stripes_1.jpg,Blue_Circle_Grid_3.jpg,Red_Star_Dots_4.jpg,right,803.974999813363,false,low,false
gQPeBk1w,39tx062qy41yb4nrucnyjag7oeq3xx,30lsnf239y8enb07iseumaks7q7i2w,gQPeBk1w,2020-0188,2020-11-17,18:40:02,18:54:34,NA,incomplete,56,shape,1,1,right,Green_Circle_Chess_4.jpg,Green_Triangle_Grid_2.jpg,Blue_Circle_Stripes_3.jpg,right,1033.985000103712,true,low,false
gQPeBk1w,39tx062qy41yb4nrucnyjag7oeq3xx,30lsnf239y8enb07iseumaks7q7i2w,gQPeBk1w,2020-0188,2020-11-17,18:40:02,18:54:34,NA,incomplete,57,shape,1,0,left,Red_Triangle_Grid_3.jpg,Purple_Triangle_Dots_4.jpg,Red_Circle_Chess_2.jpg,left,1011.8800001218915,true,low,false
gQPeBk1w,39tx062qy41yb4nrucnyjag7oeq3xx,30lsnf239y8enb07iseumaks7q7i2w,gQPeBk1w,2020-0188,2020-11-17,18:40:02,18:54:34,NA,incomplete,58,shape,1,1,right,Red_Star_Dots_1.jpg,Red_Plus_Stripes_2.jpg,Blue_Star_Grid_4.jpg,right,805.0299999304116,true,low,false
gQPeBk1w,39tx062qy41yb4nrucnyjag7oeq3xx,30lsnf239y8enb07iseumaks7q7i2w,gQPeBk1w,2020-0188,2020-11-17,18:40:02,18:54:34,NA,incomplete,59,shape,1,1,left,Red_Plus_Grid_1.jpg,Green_Plus_Chess_4.jpg,Red_Triangle_Dots_3.jpg,left,675.6100000347942,true,low,false
gQPeBk1w,39tx062qy41yb4nrucnyjag7oeq3xx,30lsnf239y8enb07iseumaks7q7i2w,gQPeBk1w,2020-0188,2020-11-17,18:40:02,18:54:34,NA,incomplete,60,color,0,0,left,Green_Triangle_Chess_2.jpg,Green_Star_Stripes_4.jpg,Blue_Triangle_Dots_1.jpg,right,810.5300001334399,false,low,false
gQPeBk1w,39tx062qy41yb4nrucnyjag7oeq3xx,30lsnf239y8enb07iseumaks7q7i2w,gQPeBk1w,2020-0188,2020-11-17,18:40:02,18:54:34,NA,incomplete,61,color,0,1,right,Purple_Triangle_Dots_3.jpg,Blue_Triangle_Stripes_2.jpg,Purple_Star_Grid_1.jpg,left,755.9999998193234,false,low,false
gQPeBk1w,39tx062qy41yb4nrucnyjag7oeq3xx,30lsnf239y8enb07iseumaks7q7i2w,gQPeBk1w,2020-0188,2020-11-17,18:40:02,18:54:34,NA,incomplete,62,color,0,0,left,Red_Triangle_Stripes_4.jpg,Red_Plus_Chess_2.jpg,Purple_Triangle_Grid_3.jpg,right,568.2300000917166,false,low,false
gQPeBk1w,39tx062qy41yb4nrucnyjag7oeq3xx,30lsnf239y8enb07iseumaks7q7i2w,gQPeBk1w,2020-0188,2020-11-17,18:40:02,18:54:34,NA,incomplete,63,color,0,1,right,Purple_Circle_Grid_4.jpg,Blue_Circle_Chess_2.jpg,Purple_Star_Dots_3.jpg,left,568.4449998661876,false,low,false
gQPeBk1w,39tx062qy41yb4nrucnyjag7oeq3xx,30lsnf239y8enb07iseumaks7q7i2w,gQPeBk1w,2020-0188,2020-11-17,18:40:02,18:54:34,NA,incomplete,64,color,0,1,right,Green_Circle_Grid_1.jpg,Blue_Circle_Dots_3.jpg,Green_Plus_Stripes_4.jpg,left,556.4850000664592,false,low,false
gQPeBk1w,39tx062qy41yb4nrucnyjag7oeq3xx,30lsnf239y8enb07iseumaks7q7i2w,gQPeBk1w,2020-0188,2020-11-17,18:40:02,18:54:34,NA,incomplete,65,color,0,1,right,Green_Circle_Dots_2.jpg,Red_Circle_Grid_4.jpg,Green_Plus_Chess_3.jpg,left,630.8349999599159,false,low,false
gQPeBk1w,39tx062qy41yb4nrucnyjag7oeq3xx,30lsnf239y8enb07iseumaks7q7i2w,gQPeBk1w,2020-0188,2020-11-17,18:40:02,18:54:34,NA,incomplete,66,color,0,1,left,Green_Star_Stripes_2.jpg,Green_Circle_Chess_1.jpg,Red_Star_Grid_4.jpg,right,705.2400000393391,false,low,false
gQPeBk1w,39tx062qy41yb4nrucnyjag7oeq3xx,30lsnf239y8enb07iseumaks7q7i2w,gQPeBk1w,2020-0188,2020-11-17,18:40:02,18:54:34,NA,incomplete,67,color,0,0,left,Green_Plus_Dots_3.jpg,Green_Star_Grid_1.jpg,Purple_Plus_Stripes_2.jpg,left,605.1499999593943,true,low,false
gQPeBk1w,39tx062qy41yb4nrucnyjag7oeq3xx,30lsnf239y8enb07iseumaks7q7i2w,gQPeBk1w,2020-0188,2020-11-17,18:40:02,18:54:34,NA,incomplete,68,color,0,1,right,Red_Plus_Grid_1.jpg,Blue_Plus_Chess_2.jpg,Red_Circle_Stripes_3.jpg,left,782.9050000291318,false,low,false
gQPeBk1w,39tx062qy41yb4nrucnyjag7oeq3xx,30lsnf239y8enb07iseumaks7q7i2w,gQPeBk1w,2020-0188,2020-11-17,18:40:02,18:54:34,NA,incomplete,69,color,0,1,left,Red_Star_Grid_3.jpg,Red_Triangle_Dots_4.jpg,Blue_Star_Stripes_2.jpg,right,811.5149999503046,false,low,false
gQPeBk1w,39tx062qy41yb4nrucnyjag7oeq3xx,30lsnf239y8enb07iseumaks7q7i2w,gQPeBk1w,2020-0188,2020-11-17,18:40:02,18:54:34,NA,incomplete,70,shape,1,1,left,Red_Star_Stripes_4.jpg,Purple_Star_Dots_3.jpg,Red_Plus_Chess_2.jpg,left,682.9200000502169,true,low,false
gQPeBk1w,39tx062qy41yb4nrucnyjag7oeq3xx,30lsnf239y8enb07iseumaks7q7i2w,gQPeBk1w,2020-0188,2020-11-17,18:40:02,18:54:34,NA,incomplete,71,shape,1,1,right,Red_Plus_Chess_4.jpg,Red_Triangle_Stripes_2.jpg,Green_Plus_Dots_3.jpg,right,644.1999999806285,true,low,false
gQPeBk1w,39tx062qy41yb4nrucnyjag7oeq3xx,30lsnf239y8enb07iseumaks7q7i2w,gQPeBk1w,2020-0188,2020-11-17,18:40:02,18:54:34,NA,incomplete,72,shape,1,1,right,Green_Circle_Stripes_4.jpg,Green_Triangle_Chess_2.jpg,Red_Circle_Dots_3.jpg,right,786.7199999745935,true,low,false
gQPeBk1w,39tx062qy41yb4nrucnyjag7oeq3xx,30lsnf239y8enb07iseumaks7q7i2w,gQPeBk1w,2020-0188,2020-11-17,18:40:02,18:54:34,NA,incomplete,73,shape,1,1,left,Green_Star_Dots_1.jpg,Red_Star_Grid_2.jpg,Green_Circle_Chess_4.jpg,left,687.8349999897182,true,low,false
gQPeBk1w,39tx062qy41yb4nrucnyjag7oeq3xx,30lsnf239y8enb07iseumaks7q7i2w,gQPeBk1w,2020-0188,2020-11-17,18:40:02,18:54:34,NA,incomplete,74,shape,1,1,left,Red_Plus_Grid_3.jpg,Purple_Plus_Dots_2.jpg,Red_Circle_Stripes_1.jpg,left,873.2149999123067,true,low,false
gQPeBk1w,39tx062qy41yb4nrucnyjag7oeq3xx,30lsnf239y8enb07iseumaks7q7i2w,gQPeBk1w,2020-0188,2020-11-17,18:40:02,18:54:34,NA,incomplete,75,shape,1,1,right,Purple_Star_Dots_3.jpg,Purple_Plus_Chess_2.jpg,Green_Star_Grid_1.jpg,right,680.5950000416487,true,low,false
gQPeBk1w,39tx062qy41yb4nrucnyjag7oeq3xx,30lsnf239y8enb07iseumaks7q7i2w,gQPeBk1w,2020-0188,2020-11-17,18:40:02,18:54:34,NA,incomplete,76,shape,1,1,right,Blue_Triangle_Grid_4.jpg,Blue_Star_Dots_1.jpg,Purple_Triangle_Stripes_2.jpg,right,588.7050000019372,true,low,false
gQPeBk1w,39tx062qy41yb4nrucnyjag7oeq3xx,30lsnf239y8enb07iseumaks7q7i2w,gQPeBk1w,2020-0188,2020-11-17,18:40:02,18:54:34,NA,incomplete,77,shape,1,1,right,Blue_Triangle_Stripes_3.jpg,Blue_Plus_Dots_1.jpg,Red_Triangle_Chess_4.jpg,right,535.1249999366701,true,low,false
gQPeBk1w,39tx062qy41yb4nrucnyjag7oeq3xx,30lsnf239y8enb07iseumaks7q7i2w,gQPeBk1w,2020-0188,2020-11-17,18:40:02,18:54:34,NA,incomplete,78,shape,1,1,right,Blue_Plus_Chess_2.jpg,Blue_Triangle_Stripes_3.jpg,Green_Plus_Dots_1.jpg,right,635.1699999067932,true,low,false
gQPeBk1w,39tx062qy41yb4nrucnyjag7oeq3xx,30lsnf239y8enb07iseumaks7q7i2w,gQPeBk1w,2020-0188,2020-11-17,18:40:02,18:54:34,NA,incomplete,79,shape,1,1,right,Blue_Plus_Dots_2.jpg,Blue_Star_Grid_3.jpg,Purple_Plus_Chess_4.jpg,right,932.1500000078231,true,low,false
gQPeBk1w,39tx062qy41yb4nrucnyjag7oeq3xx,30lsnf239y8enb07iseumaks7q7i2w,gQPeBk1w,2020-0188,2020-11-17,18:40:02,18:54:34,NA,incomplete,80,color,0,1,right,Purple_Triangle_Grid_3.jpg,Blue_Triangle_Stripes_4.jpg,Purple_Plus_Chess_2.jpg,left,614.3199999351054,false,low,false
gQPeBk1w,39tx062qy41yb4nrucnyjag7oeq3xx,30lsnf239y8enb07iseumaks7q7i2w,gQPeBk1w,2020-0188,2020-11-17,18:40:02,18:54:34,NA,incomplete,81,color,0,1,right,Green_Plus_Stripes_4.jpg,Red_Plus_Chess_2.jpg,Green_Star_Grid_3.jpg,left,718.8700002152473,false,low,false
gQPeBk1w,39tx062qy41yb4nrucnyjag7oeq3xx,30lsnf239y8enb07iseumaks7q7i2w,gQPeBk1w,2020-0188,2020-11-17,18:40:02,18:54:34,NA,incomplete,82,color,0,0,right,Green_Plus_Stripes_2.jpg,Blue_Plus_Grid_1.jpg,Green_Circle_Dots_4.jpg,left,537.9000001121312,false,low,false
gQPeBk1w,39tx062qy41yb4nrucnyjag7oeq3xx,30lsnf239y8enb07iseumaks7q7i2w,gQPeBk1w,2020-0188,2020-11-17,18:40:02,18:54:34,NA,incomplete,83,color,0,1,left,Green_Triangle_Dots_4.jpg,Green_Circle_Stripes_1.jpg,Red_Triangle_Chess_2.jpg,right,530.6649999693036,false,low,false
gQPeBk1w,39tx062qy41yb4nrucnyjag7oeq3xx,30lsnf239y8enb07iseumaks7q7i2w,gQPeBk1w,2020-0188,2020-11-17,18:40:02,18:54:34,NA,incomplete,84,color,0,0,right,Blue_Star_Stripes_1.jpg,Green_Star_Dots_3.jpg,Blue_Plus_Grid_4.jpg,left,670.820000115782,false,low,false
gQPeBk1w,39tx062qy41yb4nrucnyjag7oeq3xx,30lsnf239y8enb07iseumaks7q7i2w,gQPeBk1w,2020-0188,2020-11-17,18:40:02,18:54:34,NA,incomplete,85,color,0,0,right,Red_Triangle_Grid_4.jpg,Blue_Triangle_Stripes_1.jpg,Red_Circle_Chess_2.jpg,left,607.2200001217425,false,low,false
gQPeBk1w,39tx062qy41yb4nrucnyjag7oeq3xx,30lsnf239y8enb07iseumaks7q7i2w,gQPeBk1w,2020-0188,2020-11-17,18:40:02,18:54:34,NA,incomplete,86,color,0,1,left,Blue_Triangle_Stripes_2.jpg,Blue_Star_Grid_1.jpg,Purple_Triangle_Chess_3.jpg,right,562.7500000409782,false,low,false
gQPeBk1w,39tx062qy41yb4nrucnyjag7oeq3xx,30lsnf239y8enb07iseumaks7q7i2w,gQPeBk1w,2020-0188,2020-11-17,18:40:02,18:54:34,NA,incomplete,87,color,0,1,left,Red_Circle_Chess_3.jpg,Red_Triangle_Stripes_1.jpg,Green_Circle_Grid_2.jpg,right,633.7850000709295,false,low,false
gQPeBk1w,39tx062qy41yb4nrucnyjag7oeq3xx,30lsnf239y8enb07iseumaks7q7i2w,gQPeBk1w,2020-0188,2020-11-17,18:40:02,18:54:34,NA,incomplete,88,color,0,1,right,Purple_Plus_Dots_3.jpg,Blue_Plus_Grid_1.jpg,Purple_Circle_Chess_2.jpg,left,635.6699999887496,false,low,false
gQPeBk1w,39tx062qy41yb4nrucnyjag7oeq3xx,30lsnf239y8enb07iseumaks7q7i2w,gQPeBk1w,2020-0188,2020-11-17,18:40:02,18:54:34,NA,incomplete,89,color,0,1,left,Red_Star_Chess_1.jpg,Red_Triangle_Grid_3.jpg,Purple_Star_Stripes_4.jpg,right,869.4849999155849,false,low,false
gQPeBk1w,39tx062qy41yb4nrucnyjag7oeq3xx,30lsnf239y8enb07iseumaks7q7i2w,gQPeBk1w,2020-0188,2020-11-17,18:40:02,18:54:34,NA,incomplete,90,shape,1,1,left,Red_Plus_Stripes_3.jpg,Green_Plus_Dots_2.jpg,Red_Triangle_Chess_1.jpg,left,759.7049998585135,true,low,false
gQPeBk1w,39tx062qy41yb4nrucnyjag7oeq3xx,30lsnf239y8enb07iseumaks7q7i2w,gQPeBk1w,2020-0188,2020-11-17,18:40:02,18:54:34,NA,incomplete,91,shape,1,0,right,Purple_Star_Dots_4.jpg,Purple_Plus_Chess_2.jpg,Green_Star_Grid_3.jpg,right,683.6699999403208,true,low,false
gQPeBk1w,39tx062qy41yb4nrucnyjag7oeq3xx,30lsnf239y8enb07iseumaks7q7i2w,gQPeBk1w,2020-0188,2020-11-17,18:40:02,18:54:34,NA,incomplete,92,shape,1,0,right,Green_Circle_Dots_1.jpg,Green_Plus_Grid_3.jpg,Blue_Circle_Chess_4.jpg,left,721.8850001227111,false,low,false
gQPeBk1w,39tx062qy41yb4nrucnyjag7oeq3xx,30lsnf239y8enb07iseumaks7q7i2w,gQPeBk1w,2020-0188,2020-11-17,18:40:02,18:54:34,NA,incomplete,93,shape,1,1,left,Red_Plus_Grid_2.jpg,Blue_Plus_Dots_3.jpg,Red_Star_Stripes_1.jpg,right,571.6649999376386,false,low,false
gQPeBk1w,39tx062qy41yb4nrucnyjag7oeq3xx,30lsnf239y8enb07iseumaks7q7i2w,gQPeBk1w,2020-0188,2020-11-17,18:40:02,18:54:34,NA,incomplete,94,shape,1,1,left,Purple_Plus_Stripes_3.jpg,Blue_Plus_Dots_2.jpg,Purple_Circle_Chess_1.jpg,right,530.1399999298155,false,low,false
gQPeBk1w,39tx062qy41yb4nrucnyjag7oeq3xx,30lsnf239y8enb07iseumaks7q7i2w,gQPeBk1w,2020-0188,2020-11-17,18:40:02,18:54:34,NA,incomplete,95,shape,1,1,right,Green_Plus_Grid_1.jpg,Green_Triangle_Dots_4.jpg,Red_Plus_Chess_2.jpg,right,625.8600000292063,true,low,false
gQPeBk1w,39tx062qy41yb4nrucnyjag7oeq3xx,30lsnf239y8enb07iseumaks7q7i2w,gQPeBk1w,2020-0188,2020-11-17,18:40:02,18:54:34,NA,incomplete,96,shape,1,1,right,Blue_Plus_Stripes_3.jpg,Blue_Circle_Grid_1.jpg,Purple_Plus_Chess_2.jpg,right,548.2150001917034,true,low,false
gQPeBk1w,39tx062qy41yb4nrucnyjag7oeq3xx,30lsnf239y8enb07iseumaks7q7i2w,gQPeBk1w,2020-0188,2020-11-17,18:40:02,18:54:34,NA,incomplete,97,shape,1,1,right,Red_Circle_Grid_4.jpg,Red_Plus_Stripes_1.jpg,Blue_Circle_Chess_3.jpg,right,532.2400000877678,true,low,false
gQPeBk1w,39tx062qy41yb4nrucnyjag7oeq3xx,30lsnf239y8enb07iseumaks7q7i2w,gQPeBk1w,2020-0188,2020-11-17,18:40:02,18:54:34,NA,incomplete,98,shape,1,1,right,Blue_Triangle_Grid_2.jpg,Blue_Circle_Chess_1.jpg,Purple_Triangle_Dots_3.jpg,right,644.6599999908358,true,low,false
gQPeBk1w,39tx062qy41yb4nrucnyjag7oeq3xx,30lsnf239y8enb07iseumaks7q7i2w,gQPeBk1w,2020-0188,2020-11-17,18:40:02,18:54:34,NA,incomplete,99,shape,1,1,right,Purple_Plus_Chess_4.jpg,Purple_Circle_Grid_2.jpg,Green_Plus_Dots_1.jpg,right,566.1400000099093,true,low,false
gQPeBk1w,39tx062qy41yb4nrucnyjag7oeq3xx,30lsnf239y8enb07iseumaks7q7i2w,gQPeBk1w,2020-0188,2020-11-17,18:40:02,18:54:34,NA,incomplete,100,color,0,1,right,Purple_Triangle_Grid_4.jpg,Blue_Triangle_Stripes_3.jpg,Purple_Star_Chess_2.jpg,left,585.5750001501292,false,low,false
gQPeBk1w,39tx062qy41yb4nrucnyjag7oeq3xx,30lsnf239y8enb07iseumaks7q7i2w,gQPeBk1w,2020-0188,2020-11-17,18:40:02,18:54:34,NA,incomplete,101,color,0,1,right,Green_Star_Chess_4.jpg,Red_Star_Stripes_2.jpg,Green_Plus_Grid_1.jpg,left,599.9950000550598,false,low,false
gQPeBk1w,39tx062qy41yb4nrucnyjag7oeq3xx,30lsnf239y8enb07iseumaks7q7i2w,gQPeBk1w,2020-0188,2020-11-17,18:40:02,18:54:34,NA,incomplete,102,color,0,1,left,Green_Circle_Grid_1.jpg,Green_Plus_Stripes_2.jpg,Red_Circle_Chess_4.jpg,right,591.3450000807643,false,low,false
gQPeBk1w,39tx062qy41yb4nrucnyjag7oeq3xx,30lsnf239y8enb07iseumaks7q7i2w,gQPeBk1w,2020-0188,2020-11-17,18:40:02,18:54:34,NA,incomplete,103,color,0,1,right,Red_Star_Stripes_4.jpg,Green_Star_Grid_3.jpg,Red_Circle_Chess_2.jpg,left,576.8999999854714,false,low,false
gQPeBk1w,39tx062qy41yb4nrucnyjag7oeq3xx,30lsnf239y8enb07iseumaks7q7i2w,gQPeBk1w,2020-0188,2020-11-17,18:40:02,18:54:34,NA,incomplete,104,color,0,1,left,Purple_Plus_Grid_3.jpg,Purple_Star_Dots_2.jpg,Blue_Plus_Chess_1.jpg,left,616.4100000169128,true,low,false
gQPeBk1w,39tx062qy41yb4nrucnyjag7oeq3xx,30lsnf239y8enb07iseumaks7q7i2w,gQPeBk1w,2020-0188,2020-11-17,18:40:02,18:54:34,NA,incomplete,105,color,0,1,right,Green_Circle_Stripes_2.jpg,Purple_Circle_Chess_3.jpg,Green_Plus_Grid_1.jpg,right,564.5149999763817,true,low,false
gQPeBk1w,39tx062qy41yb4nrucnyjag7oeq3xx,30lsnf239y8enb07iseumaks7q7i2w,gQPeBk1w,2020-0188,2020-11-17,18:40:02,18:54:34,NA,incomplete,106,color,0,1,right,Purple_Plus_Stripes_4.jpg,Blue_Plus_Chess_2.jpg,Purple_Circle_Grid_3.jpg,right,595.1100001111627,true,low,false
gQPeBk1w,39tx062qy41yb4nrucnyjag7oeq3xx,30lsnf239y8enb07iseumaks7q7i2w,gQPeBk1w,2020-0188,2020-11-17,18:40:02,18:54:34,NA,incomplete,107,color,0,1,right,Blue_Star_Stripes_2.jpg,Green_Star_Grid_4.jpg,Blue_Circle_Chess_1.jpg,right,618.0149998981506,true,low,false
gQPeBk1w,39tx062qy41yb4nrucnyjag7oeq3xx,30lsnf239y8enb07iseumaks7q7i2w,gQPeBk1w,2020-0188,2020-11-17,18:40:02,18:54:34,NA,incomplete,108,color,0,0,right,Green_Circle_Stripes_1.jpg,Blue_Circle_Grid_4.jpg,Green_Triangle_Dots_2.jpg,right,546.3000000454485,true,low,false
gQPeBk1w,39tx062qy41yb4nrucnyjag7oeq3xx,30lsnf239y8enb07iseumaks7q7i2w,gQPeBk1w,2020-0188,2020-11-17,18:40:02,18:54:34,NA,incomplete,109,color,0,1,right,Green_Triangle_Grid_1.jpg,Blue_Triangle_Dots_2.jpg,Green_Star_Stripes_3.jpg,right,467.46499999426305,true,low,false
gQPeBk1w,39tx062qy41yb4nrucnyjag7oeq3xx,30lsnf239y8enb07iseumaks7q7i2w,gQPeBk1w,2020-0188,2020-11-17,18:40:02,18:54:34,NA,incomplete,110,shape,1,0,right,Purple_Triangle_Chess_3.jpg,Purple_Plus_Dots_4.jpg,Green_Triangle_Grid_1.jpg,left,609.4150000717491,false,low,false
gQPeBk1w,39tx062qy41yb4nrucnyjag7oeq3xx,30lsnf239y8enb07iseumaks7q7i2w,gQPeBk1w,2020-0188,2020-11-17,18:40:02,18:54:34,NA,incomplete,111,shape,1,1,left,Purple_Triangle_Dots_2.jpg,Blue_Triangle_Chess_3.jpg,Purple_Circle_Stripes_4.jpg,right,538.135000038892,false,low,false
gQPeBk1w,39tx062qy41yb4nrucnyjag7oeq3xx,30lsnf239y8enb07iseumaks7q7i2w,gQPeBk1w,2020-0188,2020-11-17,18:40:02,18:54:34,NA,incomplete,112,shape,1,1,left,Red_Triangle_Dots_4.jpg,Purple_Triangle_Chess_1.jpg,Red_Circle_Grid_2.jpg,right,593.6499999370426,false,low,false
gQPeBk1w,39tx062qy41yb4nrucnyjag7oeq3xx,30lsnf239y8enb07iseumaks7q7i2w,gQPeBk1w,2020-0188,2020-11-17,18:40:02,18:54:34,NA,incomplete,113,shape,1,0,left,Green_Plus_Dots_2.jpg,Purple_Plus_Stripes_1.jpg,Green_Circle_Chess_4.jpg,right,648.4699998982251,false,low,false
gQPeBk1w,39tx062qy41yb4nrucnyjag7oeq3xx,30lsnf239y8enb07iseumaks7q7i2w,gQPeBk1w,2020-0188,2020-11-17,18:40:02,18:54:34,NA,incomplete,114,shape,1,1,right,Red_Star_Stripes_1.jpg,Red_Circle_Chess_3.jpg,Green_Star_Dots_4.jpg,left,677.1849999204278,false,low,false
gQPeBk1w,39tx062qy41yb4nrucnyjag7oeq3xx,30lsnf239y8enb07iseumaks7q7i2w,gQPeBk1w,2020-0188,2020-11-17,18:40:02,18:54:34,NA,incomplete,115,shape,1,0,left,Red_Circle_Dots_2.jpg,Blue_Circle_Grid_1.jpg,Red_Triangle_Stripes_3.jpg,right,671.3650000747293,false,low,false
gQPeBk1w,39tx062qy41yb4nrucnyjag7oeq3xx,30lsnf239y8enb07iseumaks7q7i2w,gQPeBk1w,2020-0188,2020-11-17,18:40:02,18:54:34,NA,incomplete,116,shape,1,0,right,Blue_Circle_Dots_3.jpg,Blue_Triangle_Chess_4.jpg,Purple_Circle_Grid_1.jpg,left,835.9850000124425,false,low,false
gQPeBk1w,39tx062qy41yb4nrucnyjag7oeq3xx,30lsnf239y8enb07iseumaks7q7i2w,gQPeBk1w,2020-0188,2020-11-17,18:40:02,18:54:34,NA,incomplete,117,shape,1,1,left,Green_Triangle_Chess_2.jpg,Red_Triangle_Stripes_4.jpg,Green_Circle_Dots_3.jpg,right,446.4400000870228,false,low,false
gQPeBk1w,39tx062qy41yb4nrucnyjag7oeq3xx,30lsnf239y8enb07iseumaks7q7i2w,gQPeBk1w,2020-0188,2020-11-17,18:40:02,18:54:34,NA,incomplete,118,shape,1,1,left,Green_Star_Grid_3.jpg,Purple_Star_Dots_4.jpg,Green_Triangle_Stripes_1.jpg,right,518.9849999733269,false,low,false
gQPeBk1w,39tx062qy41yb4nrucnyjag7oeq3xx,30lsnf239y8enb07iseumaks7q7i2w,gQPeBk1w,2020-0188,2020-11-17,18:40:02,18:54:34,NA,incomplete,119,shape,1,1,right,Red_Star_Grid_4.jpg,Red_Triangle_Stripes_2.jpg,Blue_Star_Chess_3.jpg,left,524.5050000958145,false,low,false
gQPeBk1w,39tx062qy41yb4nrucnyjag7oeq3xx,30lsnf239y8enb07iseumaks7q7i2w,gQPeBk1w,2020-0188,2020-11-17,18:40:02,18:54:34,NA,incomplete,120,gender,2,1,left,C_M_04.jpg,A_M_11.jpg,C_F_08.jpg,NA,NA,NA,low,false
gQPeBk1w,39tx062qy41yb4nrucnyjag7oeq3xx,30lsnf239y8enb07iseumaks7q7i2w,gQPeBk1w,2020-0188,2020-11-17,18:40:02,18:54:34,NA,incomplete,121,gender,2,1,left,C_F_12.jpg,A_F_04.jpg,C_M_15.jpg,left,868.0950000416487,true,low,false
gQPeBk1w,39tx062qy41yb4nrucnyjag7oeq3xx,30lsnf239y8enb07iseumaks7q7i2w,gQPeBk1w,2020-0188,2020-11-17,18:40:02,18:54:34,NA,incomplete,122,gender,2,0,right,C_M_15.jpg,C_F_02.jpg,A_M_14.jpg,right,835.7249998953193,true,low,false
gQPeBk1w,39tx062qy41yb4nrucnyjag7oeq3xx,30lsnf239y8enb07iseumaks7q7i2w,gQPeBk1w,2020-0188,2020-11-17,18:40:02,18:54:34,NA,incomplete,123,gender,2,1,left,A_M_14.jpg,C_M_05.jpg,A_F_07.jpg,left,899.5799999684095,true,low,false
gQPeBk1w,39tx062qy41yb4nrucnyjag7oeq3xx,30lsnf239y8enb07iseumaks7q7i2w,gQPeBk1w,2020-0188,2020-11-17,18:40:02,18:54:34,NA,incomplete,124,gender,2,0,right,C_M_09.jpg,C_F_12.jpg,A_M_13.jpg,right,876.9000000320375,true,low,false
gQPeBk1w,39tx062qy41yb4nrucnyjag7oeq3xx,30lsnf239y8enb07iseumaks7q7i2w,gQPeBk1w,2020-0188,2020-11-17,18:40:02,18:54:34,NA,incomplete,125,gender,2,1,right,C_M_06.jpg,C_F_10.jpg,A_M_04.jpg,right,695.7000000402331,true,low,false
gQPeBk1w,39tx062qy41yb4nrucnyjag7oeq3xx,30lsnf239y8enb07iseumaks7q7i2w,gQPeBk1w,2020-0188,2020-11-17,18:40:02,18:54:34,NA,incomplete,126,gender,2,1,left,C_M_03.jpg,A_M_06.jpg,C_F_14.jpg,left,710.4350000154227,true,low,false
gQPeBk1w,39tx062qy41yb4nrucnyjag7oeq3xx,30lsnf239y8enb07iseumaks7q7i2w,gQPeBk1w,2020-0188,2020-11-17,18:40:02,18:54:34,NA,incomplete,127,gender,2,0,right,A_F_06.jpg,A_M_08.jpg,C_F_04.jpg,right,852.1050000563264,true,low,false
gQPeBk1w,39tx062qy41yb4nrucnyjag7oeq3xx,30lsnf239y8enb07iseumaks7q7i2w,gQPeBk1w,2020-0188,2020-11-17,18:40:02,18:54:34,NA,incomplete,128,gender,2,1,left,C_M_12.jpg,A_M_15.jpg,C_F_10.jpg,left,838.3049999829382,true,low,false
gQPeBk1w,39tx062qy41yb4nrucnyjag7oeq3xx,30lsnf239y8enb07iseumaks7q7i2w,gQPeBk1w,2020-0188,2020-11-17,18:40:02,18:54:34,NA,incomplete,129,gender,2,0,left,A_F_10.jpg,C_F_06.jpg,A_M_13.jpg,left,714.3599998671561,true,low,false
gQPeBk1w,39tx062qy41yb4nrucnyjag7oeq3xx,30lsnf239y8enb07iseumaks7q7i2w,gQPeBk1w,2020-0188,2020-11-17,18:40:02,18:54:34,NA,incomplete,130,gender,2,1,left,A_M_05.jpg,C_M_08.jpg,A_F_07.jpg,left,717.6999999210238,true,low,false
gQPeBk1w,39tx062qy41yb4nrucnyjag7oeq3xx,30lsnf239y8enb07iseumaks7q7i2w,gQPeBk1w,2020-0188,2020-11-17,18:40:02,18:54:34,NA,incomplete,131,gender,2,0,left,C_F_14.jpg,A_F_13.jpg,C_M_04.jpg,left,787.5349998939782,true,low,false
gQPeBk1w,39tx062qy41yb4nrucnyjag7oeq3xx,30lsnf239y8enb07iseumaks7q7i2w,gQPeBk1w,2020-0188,2020-11-17,18:40:02,18:54:34,NA,incomplete,132,gender,2,1,left,C_M_04.jpg,A_M_06.jpg,C_F_01.jpg,left,758.475000038743,true,low,false
gQPeBk1w,39tx062qy41yb4nrucnyjag7oeq3xx,30lsnf239y8enb07iseumaks7q7i2w,gQPeBk1w,2020-0188,2020-11-17,18:40:02,18:54:34,NA,incomplete,133,gender,2,1,right,A_F_10.jpg,A_M_04.jpg,C_F_01.jpg,right,1128.7100000772625,true,low,false
gQPeBk1w,39tx062qy41yb4nrucnyjag7oeq3xx,30lsnf239y8enb07iseumaks7q7i2w,gQPeBk1w,2020-0188,2020-11-17,18:40:02,18:54:34,NA,incomplete,134,gender,2,1,right,C_F_07.jpg,C_M_02.jpg,A_F_12.jpg,right,877.1049999631941,true,low,false
gQPeBk1w,39tx062qy41yb4nrucnyjag7oeq3xx,30lsnf239y8enb07iseumaks7q7i2w,gQPeBk1w,2020-0188,2020-11-17,18:40:02,18:54:34,NA,incomplete,135,gender,2,1,left,C_F_15.jpg,A_F_07.jpg,C_M_16.jpg,left,750.840000109747,true,low,false
gQPeBk1w,39tx062qy41yb4nrucnyjag7oeq3xx,30lsnf239y8enb07iseumaks7q7i2w,gQPeBk1w,2020-0188,2020-11-17,18:40:02,18:54:34,NA,incomplete,136,gender,2,1,left,C_F_13.jpg,A_F_04.jpg,C_M_10.jpg,left,627.2249999456108,true,low,false
gQPeBk1w,39tx062qy41yb4nrucnyjag7oeq3xx,30lsnf239y8enb07iseumaks7q7i2w,gQPeBk1w,2020-0188,2020-11-17,18:40:02,18:54:34,NA,incomplete,137,gender,2,1,left,A_F_01.jpg,C_F_06.jpg,A_M_10.jpg,left,547.1250000409782,true,low,false
gQPeBk1w,39tx062qy41yb4nrucnyjag7oeq3xx,30lsnf239y8enb07iseumaks7q7i2w,gQPeBk1w,2020-0188,2020-11-17,18:40:02,18:54:34,NA,incomplete,138,gender,2,1,right,A_M_14.jpg,A_F_10.jpg,C_M_12.jpg,right,639.2350001260638,true,low,false
gQPeBk1w,39tx062qy41yb4nrucnyjag7oeq3xx,30lsnf239y8enb07iseumaks7q7i2w,gQPeBk1w,2020-0188,2020-11-17,18:40:02,18:54:34,NA,incomplete,139,gender,2,1,left,A_M_05.jpg,C_M_16.jpg,A_F_14.jpg,left,1168.6650000046939,true,low,false
gQPeBk1w,39tx062qy41yb4nrucnyjag7oeq3xx,30lsnf239y8enb07iseumaks7q7i2w,gQPeBk1w,2020-0188,2020-11-17,18:40:02,18:54:34,NA,incomplete,140,race,3,0,left,A_F_15.jpg,A_M_07.jpg,C_F_01.jpg,right,663.4799998719245,false,low,false
gQPeBk1w,39tx062qy41yb4nrucnyjag7oeq3xx,30lsnf239y8enb07iseumaks7q7i2w,gQPeBk1w,2020-0188,2020-11-17,18:40:02,18:54:34,NA,incomplete,141,race,3,1,left,C_M_13.jpg,C_F_07.jpg,A_M_01.jpg,right,1021.9199999701232,false,low,false
gQPeBk1w,39tx062qy41yb4nrucnyjag7oeq3xx,30lsnf239y8enb07iseumaks7q7i2w,gQPeBk1w,2020-0188,2020-11-17,18:40:02,18:54:34,NA,incomplete,142,race,3,1,right,C_F_03.jpg,A_F_14.jpg,C_M_13.jpg,left,740.7599999569356,false,low,false
gQPeBk1w,39tx062qy41yb4nrucnyjag7oeq3xx,30lsnf239y8enb07iseumaks7q7i2w,gQPeBk1w,2020-0188,2020-11-17,18:40:02,18:54:34,NA,incomplete,143,race,3,1,left,C_M_03.jpg,C_F_14.jpg,A_M_08.jpg,right,783.8749999646097,false,low,false
gQPeBk1w,39tx062qy41yb4nrucnyjag7oeq3xx,30lsnf239y8enb07iseumaks7q7i2w,gQPeBk1w,2020-0188,2020-11-17,18:40:02,18:54:34,NA,incomplete,144,race,3,1,right,A_M_06.jpg,C_M_14.jpg,A_F_15.jpg,right,828.2400001771748,true,low,false
gQPeBk1w,39tx062qy41yb4nrucnyjag7oeq3xx,30lsnf239y8enb07iseumaks7q7i2w,gQPeBk1w,2020-0188,2020-11-17,18:40:02,18:54:34,NA,incomplete,145,race,3,0,left,C_M_06.jpg,C_F_08.jpg,A_M_07.jpg,left,1114.4950001034886,true,low,false
gQPeBk1w,39tx062qy41yb4nrucnyjag7oeq3xx,30lsnf239y8enb07iseumaks7q7i2w,gQPeBk1w,2020-0188,2020-11-17,18:40:02,18:54:34,NA,incomplete,146,race,3,1,left,C_M_15.jpg,C_F_06.jpg,A_M_07.jpg,left,647.2049998119473,true,low,false
gQPeBk1w,39tx062qy41yb4nrucnyjag7oeq3xx,30lsnf239y8enb07iseumaks7q7i2w,gQPeBk1w,2020-0188,2020-11-17,18:40:02,18:54:34,NA,incomplete,147,race,3,1,left,A_M_16.jpg,A_F_13.jpg,C_M_14.jpg,left,926.6849998384714,true,low,false
gQPeBk1w,39tx062qy41yb4nrucnyjag7oeq3xx,30lsnf239y8enb07iseumaks7q7i2w,gQPeBk1w,2020-0188,2020-11-17,18:40:02,18:54:34,NA,incomplete,148,race,3,1,right,C_F_04.jpg,A_F_11.jpg,C_M_01.jpg,right,1055.6649998761714,true,low,false
gQPeBk1w,39tx062qy41yb4nrucnyjag7oeq3xx,30lsnf239y8enb07iseumaks7q7i2w,gQPeBk1w,2020-0188,2020-11-17,18:40:02,18:54:34,NA,incomplete,149,race,3,1,left,A_F_15.jpg,A_M_14.jpg,C_F_07.jpg,left,764.2500000074506,true,low,false
gQPeBk1w,39tx062qy41yb4nrucnyjag7oeq3xx,30lsnf239y8enb07iseumaks7q7i2w,gQPeBk1w,2020-0188,2020-11-17,18:40:02,18:54:34,NA,incomplete,150,race,3,1,left,C_M_09.jpg,C_F_08.jpg,A_M_01.jpg,right,845.0949999969453,false,low,false
gQPeBk1w,39tx062qy41yb4nrucnyjag7oeq3xx,30lsnf239y8enb07iseumaks7q7i2w,gQPeBk1w,2020-0188,2020-11-17,18:40:02,18:54:34,NA,incomplete,151,race,3,1,right,C_M_12.jpg,A_M_01.jpg,C_F_06.jpg,right,1043.8250000588596,true,low,false
gQPeBk1w,39tx062qy41yb4nrucnyjag7oeq3xx,30lsnf239y8enb07iseumaks7q7i2w,gQPeBk1w,2020-0188,2020-11-17,18:40:02,18:54:34,NA,incomplete,152,race,3,0,right,C_M_02.jpg,A_M_13.jpg,C_F_07.jpg,right,1228.6649998277426,true,low,false
gQPeBk1w,39tx062qy41yb4nrucnyjag7oeq3xx,30lsnf239y8enb07iseumaks7q7i2w,gQPeBk1w,2020-0188,2020-11-17,18:40:02,18:54:34,NA,incomplete,153,race,3,1,right,A_F_02.jpg,C_F_07.jpg,A_M_14.jpg,right,913.5099998675287,true,low,false
gQPeBk1w,39tx062qy41yb4nrucnyjag7oeq3xx,30lsnf239y8enb07iseumaks7q7i2w,gQPeBk1w,2020-0188,2020-11-17,18:40:02,18:54:34,NA,incomplete,154,race,3,0,left,C_F_11.jpg,C_M_14.jpg,A_F_08.jpg,right,972.669999813661,false,low,false
gQPeBk1w,39tx062qy41yb4nrucnyjag7oeq3xx,30lsnf239y8enb07iseumaks7q7i2w,gQPeBk1w,2020-0188,2020-11-17,18:40:02,18:54:34,NA,incomplete,155,race,3,1,left,A_M_16.jpg,A_F_08.jpg,C_M_11.jpg,left,818.1949998252094,true,low,false
gQPeBk1w,39tx062qy41yb4nrucnyjag7oeq3xx,30lsnf239y8enb07iseumaks7q7i2w,gQPeBk1w,2020-0188,2020-11-17,18:40:02,18:54:34,NA,incomplete,156,race,3,1,right,A_M_11.jpg,C_M_10.jpg,A_F_13.jpg,right,781.639999942854,true,low,false
gQPeBk1w,39tx062qy41yb4nrucnyjag7oeq3xx,30lsnf239y8enb07iseumaks7q7i2w,gQPeBk1w,2020-0188,2020-11-17,18:40:02,18:54:34,NA,incomplete,157,race,3,1,left,A_F_01.jpg,A_M_02.jpg,C_F_14.jpg,left,612.4200001358986,true,low,false
gQPeBk1w,39tx062qy41yb4nrucnyjag7oeq3xx,30lsnf239y8enb07iseumaks7q7i2w,gQPeBk1w,2020-0188,2020-11-17,18:40:02,18:54:34,NA,incomplete,158,race,3,1,left,A_F_03.jpg,A_M_14.jpg,C_F_12.jpg,left,869.789999909699,true,low,false
gQPeBk1w,39tx062qy41yb4nrucnyjag7oeq3xx,30lsnf239y8enb07iseumaks7q7i2w,gQPeBk1w,2020-0188,2020-11-17,18:40:02,18:54:34,NA,incomplete,159,race,3,1,left,A_F_15.jpg,A_M_11.jpg,C_F_13.jpg,left,616.6550000198185,true,low,false
gQPeBk1w,39tx062qy41yb4nrucnyjag7oeq3xx,30lsnf239y8enb07iseumaks7q7i2w,gQPeBk1w,2020-0188,2020-11-17,18:40:02,18:54:34,NA,incomplete,160,gender,2,0,left,A_M_11.jpg,C_M_14.jpg,A_F_16.jpg,right,688.8749999925494,false,low,false
gQPeBk1w,39tx062qy41yb4nrucnyjag7oeq3xx,30lsnf239y8enb07iseumaks7q7i2w,gQPeBk1w,2020-0188,2020-11-17,18:40:02,18:54:34,NA,incomplete,161,gender,2,1,left,A_M_13.jpg,C_M_14.jpg,A_F_11.jpg,right,760.6450000312179,false,low,false
gQPeBk1w,39tx062qy41yb4nrucnyjag7oeq3xx,30lsnf239y8enb07iseumaks7q7i2w,gQPeBk1w,2020-0188,2020-11-17,18:40:02,18:54:34,NA,incomplete,162,gender,2,1,right,A_F_03.jpg,A_M_08.jpg,C_F_12.jpg,left,756.9150000344962,false,low,false
gQPeBk1w,39tx062qy41yb4nrucnyjag7oeq3xx,30lsnf239y8enb07iseumaks7q7i2w,gQPeBk1w,2020-0188,2020-11-17,18:40:02,18:54:34,NA,incomplete,163,gender,2,1,right,A_F_08.jpg,A_M_10.jpg,C_F_05.jpg,right,892.3899999354035,true,low,false
gQPeBk1w,39tx062qy41yb4nrucnyjag7oeq3xx,30lsnf239y8enb07iseumaks7q7i2w,gQPeBk1w,2020-0188,2020-11-17,18:40:02,18:54:34,NA,incomplete,164,gender,2,1,right,A_M_01.jpg,A_F_05.jpg,C_M_14.jpg,right,759.044999955222,true,low,false
gQPeBk1w,39tx062qy41yb4nrucnyjag7oeq3xx,30lsnf239y8enb07iseumaks7q7i2w,gQPeBk1w,2020-0188,2020-11-17,18:40:02,18:54:34,NA,incomplete,165,gender,2,1,left,C_F_12.jpg,A_F_01.jpg,C_M_07.jpg,left,669.1300000529736,true,low,false
gQPeBk1w,39tx062qy41yb4nrucnyjag7oeq3xx,30lsnf239y8enb07iseumaks7q7i2w,gQPeBk1w,2020-0188,2020-11-17,18:40:02,18:54:34,NA,incomplete,166,gender,2,1,right,C_F_16.jpg,C_M_10.jpg,A_F_04.jpg,right,773.7549999728799,true,low,false
gQPeBk1w,39tx062qy41yb4nrucnyjag7oeq3xx,30lsnf239y8enb07iseumaks7q7i2w,gQPeBk1w,2020-0188,2020-11-17,18:40:02,18:54:34,NA,incomplete,167,gender,2,0,right,C_M_04.jpg,C_F_12.jpg,A_M_15.jpg,right,761.6350001189858,true,low,false
gQPeBk1w,39tx062qy41yb4nrucnyjag7oeq3xx,30lsnf239y8enb07iseumaks7q7i2w,gQPeBk1w,2020-0188,2020-11-17,18:40:02,18:54:34,NA,incomplete,168,gender,2,1,right,C_F_05.jpg,C_M_08.jpg,A_F_14.jpg,right,680.4149998351932,true,low,false
gQPeBk1w,39tx062qy41yb4nrucnyjag7oeq3xx,30lsnf239y8enb07iseumaks7q7i2w,gQPeBk1w,2020-0188,2020-11-17,18:40:02,18:54:34,NA,incomplete,169,gender,2,1,left,A_F_03.jpg,C_F_05.jpg,A_M_01.jpg,left,737.1999998576939,true,low,false
gQPeBk1w,39tx062qy41yb4nrucnyjag7oeq3xx,30lsnf239y8enb07iseumaks7q7i2w,gQPeBk1w,2020-0188,2020-11-17,18:40:02,18:54:34,NA,incomplete,170,gender,2,1,right,A_F_13.jpg,A_M_14.jpg,C_F_02.jpg,right,908.1650001462549,true,low,false
gQPeBk1w,39tx062qy41yb4nrucnyjag7oeq3xx,30lsnf239y8enb07iseumaks7q7i2w,gQPeBk1w,2020-0188,2020-11-17,18:40:02,18:54:34,NA,incomplete,171,gender,2,1,left,C_M_05.jpg,A_M_15.jpg,C_F_04.jpg,left,735.9600001946092,true,low,false
gQPeBk1w,39tx062qy41yb4nrucnyjag7oeq3xx,30lsnf239y8enb07iseumaks7q7i2w,gQPeBk1w,2020-0188,2020-11-17,18:40:02,18:54:34,NA,incomplete,172,gender,2,1,left,C_F_05.jpg,A_F_09.jpg,C_M_16.jpg,left,750.9449999779463,true,low,false
gQPeBk1w,39tx062qy41yb4nrucnyjag7oeq3xx,30lsnf239y8enb07iseumaks7q7i2w,gQPeBk1w,2020-0188,2020-11-17,18:40:02,18:54:34,NA,incomplete,173,gender,2,1,left,A_F_11.jpg,C_F_16.jpg,A_M_01.jpg,left,658.9599999133497,true,low,false
gQPeBk1w,39tx062qy41yb4nrucnyjag7oeq3xx,30lsnf239y8enb07iseumaks7q7i2w,gQPeBk1w,2020-0188,2020-11-17,18:40:02,18:54:34,NA,incomplete,174,gender,2,1,left,A_M_12.jpg,C_M_10.jpg,A_F_09.jpg,left,745.5400000326335,true,low,false
gQPeBk1w,39tx062qy41yb4nrucnyjag7oeq3xx,30lsnf239y8enb07iseumaks7q7i2w,gQPeBk1w,2020-0188,2020-11-17,18:40:02,18:54:34,NA,incomplete,175,gender,2,1,left,A_M_06.jpg,C_M_01.jpg,A_F_02.jpg,left,629.5499999541789,true,low,false
gQPeBk1w,39tx062qy41yb4nrucnyjag7oeq3xx,30lsnf239y8enb07iseumaks7q7i2w,gQPeBk1w,2020-0188,2020-11-17,18:40:02,18:54:34,NA,incomplete,176,gender,2,1,right,A_F_07.jpg,A_M_06.jpg,C_F_03.jpg,right,742.860000114888,true,low,false
gQPeBk1w,39tx062qy41yb4nrucnyjag7oeq3xx,30lsnf239y8enb07iseumaks7q7i2w,gQPeBk1w,2020-0188,2020-11-17,18:40:02,18:54:34,NA,incomplete,177,gender,2,1,left,C_M_06.jpg,A_M_09.jpg,C_F_15.jpg,left,619.5050000678748,true,low,false
gQPeBk1w,39tx062qy41yb4nrucnyjag7oeq3xx,30lsnf239y8enb07iseumaks7q7i2w,gQPeBk1w,2020-0188,2020-11-17,18:40:02,18:54:34,NA,incomplete,178,gender,2,0,left,C_F_12.jpg,A_F_02.jpg,C_M_06.jpg,left,636.1200001556426,true,low,false
gQPeBk1w,39tx062qy41yb4nrucnyjag7oeq3xx,30lsnf239y8enb07iseumaks7q7i2w,gQPeBk1w,2020-0188,2020-11-17,18:40:02,18:54:34,NA,incomplete,179,gender,2,1,left,C_M_03.jpg,A_M_04.jpg,C_F_01.jpg,left,679.4549999758601,true,low,false
gQPeBk1w,39tx062qy41yb4nrucnyjag7oeq3xx,30lsnf239y8enb07iseumaks7q7i2w,gQPeBk1w,2020-0188,2020-11-17,18:40:02,18:54:34,NA,incomplete,180,race,3,1,right,A_M_07.jpg,C_M_14.jpg,A_F_12.jpg,left,568.3249998837709,false,low,false
gQPeBk1w,39tx062qy41yb4nrucnyjag7oeq3xx,30lsnf239y8enb07iseumaks7q7i2w,gQPeBk1w,2020-0188,2020-11-17,18:40:02,18:54:34,NA,incomplete,181,race,3,1,right,C_M_13.jpg,A_M_04.jpg,C_F_14.jpg,left,803.4699999261647,false,low,false
gQPeBk1w,39tx062qy41yb4nrucnyjag7oeq3xx,30lsnf239y8enb07iseumaks7q7i2w,gQPeBk1w,2020-0188,2020-11-17,18:40:02,18:54:34,NA,incomplete,182,race,3,1,left,C_M_13.jpg,C_F_12.jpg,A_M_03.jpg,left,665.1249998249114,true,low,false
gQPeBk1w,39tx062qy41yb4nrucnyjag7oeq3xx,30lsnf239y8enb07iseumaks7q7i2w,gQPeBk1w,2020-0188,2020-11-17,18:40:02,18:54:34,NA,incomplete,183,race,3,1,left,C_F_11.jpg,C_M_06.jpg,A_F_13.jpg,right,770.1349998824298,false,low,false
gQPeBk1w,39tx062qy41yb4nrucnyjag7oeq3xx,30lsnf239y8enb07iseumaks7q7i2w,gQPeBk1w,2020-0188,2020-11-17,18:40:02,18:54:34,NA,incomplete,184,race,3,0,right,C_F_16.jpg,A_F_08.jpg,C_M_15.jpg,right,787.2649999335408,true,low,false
gQPeBk1w,39tx062qy41yb4nrucnyjag7oeq3xx,30lsnf239y8enb07iseumaks7q7i2w,gQPeBk1w,2020-0188,2020-11-17,18:40:02,18:54:34,NA,incomplete,185,race,3,1,right,A_M_04.jpg,C_M_13.jpg,A_F_16.jpg,right,902.1750001702458,true,low,false
gQPeBk1w,39tx062qy41yb4nrucnyjag7oeq3xx,30lsnf239y8enb07iseumaks7q7i2w,gQPeBk1w,2020-0188,2020-11-17,18:40:02,18:54:34,NA,incomplete,186,race,3,0,right,C_M_02.jpg,A_M_14.jpg,C_F_05.jpg,right,1380.2799999248236,true,low,false
gQPeBk1w,39tx062qy41yb4nrucnyjag7oeq3xx,30lsnf239y8enb07iseumaks7q7i2w,gQPeBk1w,2020-0188,2020-11-17,18:40:02,18:54:34,NA,incomplete,187,race,3,1,left,C_F_13.jpg,C_M_02.jpg,A_F_07.jpg,left,961.735000135377,true,low,false
gQPeBk1w,39tx062qy41yb4nrucnyjag7oeq3xx,30lsnf239y8enb07iseumaks7q7i2w,gQPeBk1w,2020-0188,2020-11-17,18:40:02,18:54:34,NA,incomplete,188,race,3,1,left,C_M_07.jpg,C_F_03.jpg,A_M_01.jpg,right,805.0900001544505,false,low,false
gQPeBk1w,39tx062qy41yb4nrucnyjag7oeq3xx,30lsnf239y8enb07iseumaks7q7i2w,gQPeBk1w,2020-0188,2020-11-17,18:40:02,18:54:34,NA,incomplete,189,race,3,0,right,C_F_07.jpg,A_F_05.jpg,C_M_11.jpg,right,970.6850000657141,true,low,false
gQPeBk1w,39tx062qy41yb4nrucnyjag7oeq3xx,30lsnf239y8enb07iseumaks7q7i2w,gQPeBk1w,2020-0188,2020-11-17,18:40:02,18:54:34,NA,incomplete,190,race,3,1,right,C_M_08.jpg,A_M_15.jpg,C_F_01.jpg,right,1044.8200001847,true,low,false
gQPeBk1w,39tx062qy41yb4nrucnyjag7oeq3xx,30lsnf239y8enb07iseumaks7q7i2w,gQPeBk1w,2020-0188,2020-11-17,18:40:02,18:54:34,NA,incomplete,191,race,3,1,left,C_F_04.jpg,C_M_06.jpg,A_F_01.jpg,right,733.9699999429286,false,low,false
gQPeBk1w,39tx062qy41yb4nrucnyjag7oeq3xx,30lsnf239y8enb07iseumaks7q7i2w,gQPeBk1w,2020-0188,2020-11-17,18:40:02,18:54:34,NA,incomplete,192,race,3,1,left,A_M_01.jpg,A_F_03.jpg,C_M_16.jpg,left,1023.710000095889,true,low,false
gQPeBk1w,39tx062qy41yb4nrucnyjag7oeq3xx,30lsnf239y8enb07iseumaks7q7i2w,gQPeBk1w,2020-0188,2020-11-17,18:40:02,18:54:34,NA,incomplete,193,race,3,0,left,A_M_09.jpg,A_F_06.jpg,C_M_01.jpg,left,710.240000160411,true,low,false
gQPeBk1w,39tx062qy41yb4nrucnyjag7oeq3xx,30lsnf239y8enb07iseumaks7q7i2w,gQPeBk1w,2020-0188,2020-11-17,18:40:02,18:54:34,NA,incomplete,194,race,3,1,right,C_F_15.jpg,A_F_05.jpg,C_M_02.jpg,right,1137.1350002009422,true,low,false
gQPeBk1w,39tx062qy41yb4nrucnyjag7oeq3xx,30lsnf239y8enb07iseumaks7q7i2w,gQPeBk1w,2020-0188,2020-11-17,18:40:02,18:54:34,NA,incomplete,195,race,3,1,right,C_F_10.jpg,A_F_15.jpg,C_M_01.jpg,right,809.9649997893721,true,low,false
gQPeBk1w,39tx062qy41yb4nrucnyjag7oeq3xx,30lsnf239y8enb07iseumaks7q7i2w,gQPeBk1w,2020-0188,2020-11-17,18:40:02,18:54:34,NA,incomplete,196,race,3,1,right,A_M_01.jpg,C_M_07.jpg,A_F_14.jpg,right,918.0850000120699,true,low,false
gQPeBk1w,39tx062qy41yb4nrucnyjag7oeq3xx,30lsnf239y8enb07iseumaks7q7i2w,gQPeBk1w,2020-0188,2020-11-17,18:40:02,18:54:34,NA,incomplete,197,race,3,1,right,A_M_16.jpg,C_M_05.jpg,A_F_15.jpg,right,731.6149999387562,true,low,false
gQPeBk1w,39tx062qy41yb4nrucnyjag7oeq3xx,30lsnf239y8enb07iseumaks7q7i2w,gQPeBk1w,2020-0188,2020-11-17,18:40:02,18:54:34,NA,incomplete,198,race,3,1,left,C_F_01.jpg,C_M_04.jpg,A_F_07.jpg,left,915.0199999567121,true,low,false
gQPeBk1w,39tx062qy41yb4nrucnyjag7oeq3xx,30lsnf239y8enb07iseumaks7q7i2w,gQPeBk1w,2020-0188,2020-11-17,18:40:02,18:54:34,NA,incomplete,199,race,3,1,left,A_M_10.jpg,A_F_06.jpg,C_M_14.jpg,left,695.8749999757856,true,low,false
gQPeBk1w,39tx062qy41yb4nrucnyjag7oeq3xx,30lsnf239y8enb07iseumaks7q7i2w,gQPeBk1w,2020-0188,2020-11-17,18:40:02,18:54:34,NA,incomplete,200,gender,2,0,left,A_M_04.jpg,C_M_07.jpg,A_F_14.jpg,right,668.8049999065697,false,low,false
gQPeBk1w,39tx062qy41yb4nrucnyjag7oeq3xx,30lsnf239y8enb07iseumaks7q7i2w,gQPeBk1w,2020-0188,2020-11-17,18:40:02,18:54:34,NA,incomplete,201,gender,2,1,right,A_M_10.jpg,A_F_08.jpg,C_M_14.jpg,left,649.2650001309812,false,low,false
gQPeBk1w,39tx062qy41yb4nrucnyjag7oeq3xx,30lsnf239y8enb07iseumaks7q7i2w,gQPeBk1w,2020-0188,2020-11-17,18:40:02,18:54:34,NA,incomplete,202,gender,2,1,left,A_M_04.jpg,C_M_16.jpg,A_F_08.jpg,right,582.4049999937415,false,low,false
gQPeBk1w,39tx062qy41yb4nrucnyjag7oeq3xx,30lsnf239y8enb07iseumaks7q7i2w,gQPeBk1w,2020-0188,2020-11-17,18:40:02,18:54:34,NA,incomplete,203,gender,2,1,right,A_M_08.jpg,A_F_02.jpg,C_M_05.jpg,right,691.164999967441,true,low,false
gQPeBk1w,39tx062qy41yb4nrucnyjag7oeq3xx,30lsnf239y8enb07iseumaks7q7i2w,gQPeBk1w,2020-0188,2020-11-17,18:40:02,18:54:34,NA,incomplete,204,gender,2,1,left,A_F_08.jpg,C_F_09.jpg,A_M_07.jpg,left,746.4749999344349,true,low,false
gQPeBk1w,39tx062qy41yb4nrucnyjag7oeq3xx,30lsnf239y8enb07iseumaks7q7i2w,gQPeBk1w,2020-0188,2020-11-17,18:40:02,18:54:34,NA,incomplete,205,gender,2,1,left,A_F_08.jpg,C_F_05.jpg,A_M_09.jpg,left,730.7500001043081,true,low,false
gQPeBk1w,39tx062qy41yb4nrucnyjag7oeq3xx,30lsnf239y8enb07iseumaks7q7i2w,gQPeBk1w,2020-0188,2020-11-17,18:40:02,18:54:34,NA,incomplete,206,gender,2,1,right,C_M_03.jpg,C_F_04.jpg,A_M_09.jpg,right,664.5450000651181,true,low,false
gQPeBk1w,39tx062qy41yb4nrucnyjag7oeq3xx,30lsnf239y8enb07iseumaks7q7i2w,gQPeBk1w,2020-0188,2020-11-17,18:40:02,18:54:34,NA,incomplete,207,gender,2,1,right,A_M_02.jpg,A_F_11.jpg,C_M_08.jpg,right,566.7100001592189,true,low,false
gQPeBk1w,39tx062qy41yb4nrucnyjag7oeq3xx,30lsnf239y8enb07iseumaks7q7i2w,gQPeBk1w,2020-0188,2020-11-17,18:40:02,18:54:34,NA,incomplete,208,gender,2,1,left,C_F_01.jpg,A_F_07.jpg,C_M_05.jpg,left,781.395000172779,true,low,false
gQPeBk1w,39tx062qy41yb4nrucnyjag7oeq3xx,30lsnf239y8enb07iseumaks7q7i2w,gQPeBk1w,2020-0188,2020-11-17,18:40:02,18:54:34,NA,incomplete,209,gender,2,1,right,A_M_01.jpg,A_F_15.jpg,C_M_03.jpg,right,631.5000001341105,true,low,false
gQPeBk1w,39tx062qy41yb4nrucnyjag7oeq3xx,30lsnf239y8enb07iseumaks7q7i2w,gQPeBk1w,2020-0188,2020-11-17,18:40:02,18:54:34,NA,incomplete,210,gender,2,1,right,C_M_11.jpg,C_F_01.jpg,A_M_12.jpg,right,586.5400000475347,true,low,false
gQPeBk1w,39tx062qy41yb4nrucnyjag7oeq3xx,30lsnf239y8enb07iseumaks7q7i2w,gQPeBk1w,2020-0188,2020-11-17,18:40:02,18:54:34,NA,incomplete,211,gender,2,1,left,A_F_16.jpg,C_F_01.jpg,A_M_04.jpg,left,641.0049998667091,true,low,false
gQPeBk1w,39tx062qy41yb4nrucnyjag7oeq3xx,30lsnf239y8enb07iseumaks7q7i2w,gQPeBk1w,2020-0188,2020-11-17,18:40:02,18:54:34,NA,incomplete,212,gender,2,1,right,C_F_08.jpg,C_M_15.jpg,A_F_16.jpg,right,628.4250000026077,true,low,false
gQPeBk1w,39tx062qy41yb4nrucnyjag7oeq3xx,30lsnf239y8enb07iseumaks7q7i2w,gQPeBk1w,2020-0188,2020-11-17,18:40:02,18:54:34,NA,incomplete,213,gender,2,1,left,A_M_16.jpg,C_M_12.jpg,A_F_06.jpg,left,599.0299999248236,true,low,false
gQPeBk1w,39tx062qy41yb4nrucnyjag7oeq3xx,30lsnf239y8enb07iseumaks7q7i2w,gQPeBk1w,2020-0188,2020-11-17,18:40:02,18:54:34,NA,incomplete,214,gender,2,1,left,A_F_08.jpg,C_F_03.jpg,A_M_14.jpg,left,712.0749999303371,true,low,false
gQPeBk1w,39tx062qy41yb4nrucnyjag7oeq3xx,30lsnf239y8enb07iseumaks7q7i2w,gQPeBk1w,2020-0188,2020-11-17,18:40:02,18:54:34,NA,incomplete,215,gender,2,1,right,C_F_15.jpg,C_M_13.jpg,A_F_09.jpg,right,731.364999897778,true,low,false
gQPeBk1w,39tx062qy41yb4nrucnyjag7oeq3xx,30lsnf239y8enb07iseumaks7q7i2w,gQPeBk1w,2020-0188,2020-11-17,18:40:02,18:54:34,NA,incomplete,216,gender,2,1,left,C_F_12.jpg,A_F_10.jpg,C_M_09.jpg,left,630.5499998852611,true,low,false
gQPeBk1w,39tx062qy41yb4nrucnyjag7oeq3xx,30lsnf239y8enb07iseumaks7q7i2w,gQPeBk1w,2020-0188,2020-11-17,18:40:02,18:54:34,NA,incomplete,217,gender,2,1,right,A_F_06.jpg,A_M_13.jpg,C_F_01.jpg,right,652.9200000222772,true,low,false
gQPeBk1w,39tx062qy41yb4nrucnyjag7oeq3xx,30lsnf239y8enb07iseumaks7q7i2w,gQPeBk1w,2020-0188,2020-11-17,18:40:02,18:54:34,NA,incomplete,218,gender,2,0,left,A_F_13.jpg,C_F_09.jpg,A_M_05.jpg,left,613.1899999454618,true,low,false
gQPeBk1w,39tx062qy41yb4nrucnyjag7oeq3xx,30lsnf239y8enb07iseumaks7q7i2w,gQPeBk1w,2020-0188,2020-11-17,18:40:02,18:54:34,NA,incomplete,219,gender,2,1,right,A_M_06.jpg,A_F_14.jpg,C_M_16.jpg,right,977.1650000475347,true,low,false
gQPeBk1w,39tx062qy41yb4nrucnyjag7oeq3xx,30lsnf239y8enb07iseumaks7q7i2w,gQPeBk1w,2020-0188,2020-11-17,18:40:02,18:54:34,NA,incomplete,220,race,3,1,right,A_F_05.jpg,C_F_06.jpg,A_M_15.jpg,left,682.2250001132488,false,low,false
gQPeBk1w,39tx062qy41yb4nrucnyjag7oeq3xx,30lsnf239y8enb07iseumaks7q7i2w,gQPeBk1w,2020-0188,2020-11-17,18:40:02,18:54:34,NA,incomplete,221,race,3,1,right,A_F_10.jpg,C_F_02.jpg,A_M_07.jpg,right,625.5300000775605,true,low,false
gQPeBk1w,39tx062qy41yb4nrucnyjag7oeq3xx,30lsnf239y8enb07iseumaks7q7i2w,gQPeBk1w,2020-0188,2020-11-17,18:40:02,18:54:34,NA,incomplete,222,race,3,0,right,A_M_14.jpg,C_M_11.jpg,A_F_01.jpg,right,855.14000011608,true,low,false
gQPeBk1w,39tx062qy41yb4nrucnyjag7oeq3xx,30lsnf239y8enb07iseumaks7q7i2w,gQPeBk1w,2020-0188,2020-11-17,18:40:02,18:54:34,NA,incomplete,223,race,3,1,left,A_M_12.jpg,A_F_08.jpg,C_M_14.jpg,left,572.480000089854,true,low,false
gQPeBk1w,39tx062qy41yb4nrucnyjag7oeq3xx,30lsnf239y8enb07iseumaks7q7i2w,gQPeBk1w,2020-0188,2020-11-17,18:40:02,18:54:34,NA,incomplete,224,race,3,1,right,C_F_06.jpg,A_F_04.jpg,C_M_01.jpg,right,908.9849998708814,true,low,false
gQPeBk1w,39tx062qy41yb4nrucnyjag7oeq3xx,30lsnf239y8enb07iseumaks7q7i2w,gQPeBk1w,2020-0188,2020-11-17,18:40:02,18:54:34,NA,incomplete,225,race,3,0,right,A_M_03.jpg,C_M_02.jpg,A_F_08.jpg,left,602.3349999450147,false,low,false
gQPeBk1w,39tx062qy41yb4nrucnyjag7oeq3xx,30lsnf239y8enb07iseumaks7q7i2w,gQPeBk1w,2020-0188,2020-11-17,18:40:02,18:54:34,NA,incomplete,226,race,3,1,right,A_F_02.jpg,C_F_14.jpg,A_M_08.jpg,right,742.39999987185,true,low,false
gQPeBk1w,39tx062qy41yb4nrucnyjag7oeq3xx,30lsnf239y8enb07iseumaks7q7i2w,gQPeBk1w,2020-0188,2020-11-17,18:40:02,18:54:34,NA,incomplete,227,race,3,1,right,A_F_07.jpg,C_F_03.jpg,A_M_04.jpg,right,573.3699998818338,true,low,false
gQPeBk1w,39tx062qy41yb4nrucnyjag7oeq3xx,30lsnf239y8enb07iseumaks7q7i2w,gQPeBk1w,2020-0188,2020-11-17,18:40:02,18:54:34,NA,incomplete,228,race,3,1,right,C_M_15.jpg,A_M_03.jpg,C_F_10.jpg,left,581.5749999601394,false,low,false
gQPeBk1w,39tx062qy41yb4nrucnyjag7oeq3xx,30lsnf239y8enb07iseumaks7q7i2w,gQPeBk1w,2020-0188,2020-11-17,18:40:02,18:54:34,NA,incomplete,229,race,3,0,left,A_F_05.jpg,A_M_07.jpg,C_F_12.jpg,left,695.2450000680983,true,low,false
gQPeBk1w,39tx062qy41yb4nrucnyjag7oeq3xx,30lsnf239y8enb07iseumaks7q7i2w,gQPeBk1w,2020-0188,2020-11-17,18:40:02,18:54:34,NA,incomplete,230,race,3,1,right,A_M_14.jpg,C_M_16.jpg,A_F_11.jpg,right,622.0150000881404,true,low,false
gQPeBk1w,39tx062qy41yb4nrucnyjag7oeq3xx,30lsnf239y8enb07iseumaks7q7i2w,gQPeBk1w,2020-0188,2020-11-17,18:40:02,18:54:34,NA,incomplete,231,race,3,0,right,C_M_11.jpg,A_M_04.jpg,C_F_02.jpg,right,846.0149997845292,true,low,false
gQPeBk1w,39tx062qy41yb4nrucnyjag7oeq3xx,30lsnf239y8enb07iseumaks7q7i2w,gQPeBk1w,2020-0188,2020-11-17,18:40:02,18:54:34,NA,incomplete,232,race,3,1,left,A_M_14.jpg,A_F_08.jpg,C_M_03.jpg,left,833.8049999438226,true,low,false
gQPeBk1w,39tx062qy41yb4nrucnyjag7oeq3xx,30lsnf239y8enb07iseumaks7q7i2w,gQPeBk1w,2020-0188,2020-11-17,18:40:02,18:54:34,NA,incomplete,233,race,3,1,right,A_M_16.jpg,C_M_02.jpg,A_F_11.jpg,left,662.2700002044439,false,low,false
gQPeBk1w,39tx062qy41yb4nrucnyjag7oeq3xx,30lsnf239y8enb07iseumaks7q7i2w,gQPeBk1w,2020-0188,2020-11-17,18:40:02,18:54:34,NA,incomplete,234,race,3,1,right,C_M_01.jpg,A_M_14.jpg,C_F_04.jpg,right,882.8300000168383,true,low,false
gQPeBk1w,39tx062qy41yb4nrucnyjag7oeq3xx,30lsnf239y8enb07iseumaks7q7i2w,gQPeBk1w,2020-0188,2020-11-17,18:40:02,18:54:34,NA,incomplete,235,race,3,0,right,A_M_07.jpg,C_M_01.jpg,A_F_10.jpg,right,848.7899999599904,true,low,false
gQPeBk1w,39tx062qy41yb4nrucnyjag7oeq3xx,30lsnf239y8enb07iseumaks7q7i2w,gQPeBk1w,2020-0188,2020-11-17,18:40:02,18:54:34,NA,incomplete,236,race,3,1,right,C_F_05.jpg,A_F_16.jpg,C_M_07.jpg,right,768.7500000465661,true,low,false
gQPeBk1w,39tx062qy41yb4nrucnyjag7oeq3xx,30lsnf239y8enb07iseumaks7q7i2w,gQPeBk1w,2020-0188,2020-11-17,18:40:02,18:54:34,NA,incomplete,237,race,3,1,left,A_M_08.jpg,A_F_10.jpg,C_M_03.jpg,left,632.1199999656528,true,low,false
gQPeBk1w,39tx062qy41yb4nrucnyjag7oeq3xx,30lsnf239y8enb07iseumaks7q7i2w,gQPeBk1w,2020-0188,2020-11-17,18:40:02,18:54:34,NA,incomplete,238,race,3,0,left,A_F_12.jpg,A_M_13.jpg,C_F_14.jpg,left,874.3900000117719,true,low,false
gQPeBk1w,39tx062qy41yb4nrucnyjag7oeq3xx,30lsnf239y8enb07iseumaks7q7i2w,gQPeBk1w,2020-0188,2020-11-17,18:40:02,18:54:34,NA,incomplete,239,race,3,1,left,A_F_03.jpg,A_M_09.jpg,C_F_06.jpg,left,755.3049998823553,true,low,false
gQPeBk1w,39tx062qy41yb4nrucnyjag7oeq3xx,30lsnf239y8enb07iseumaks7q7i2w,gQPeBk1w,2020-0188,2020-11-17,18:40:02,18:54:34,NA,NA,instruction example,color,NA,NA,NA,Purple_Plus_Grid_1.jpg,Purple_Star_Dots_4.jpg,Green_Plus_Chess_2.jpg,NA,NA,NA,NA,undefined
gQPeBk1w,39tx062qy41yb4nrucnyjag7oeq3xx,30lsnf239y8enb07iseumaks7q7i2w,gQPeBk1w,2020-0188,2020-11-17,18:40:02,18:54:34,NA,NA,instruction example,color,NA,NA,NA,Purple_Plus_Grid_1.jpg,Red_Plus_Chess_2.jpg,Purple_Triangle_Dots_3.jpg,NA,NA,NA,NA,undefined
gQPeBk1w,39tx062qy41yb4nrucnyjag7oeq3xx,30lsnf239y8enb07iseumaks7q7i2w,gQPeBk1w,2020-0188,2020-11-17,18:40:02,18:54:34,NA,NA,instruction example,color,NA,NA,NA,A_M_13.jpg,C_M_11.jpg,A_F_10.jpg,NA,NA,NA,NA,undefined
gQPeBk1w,39tx062qy41yb4nrucnyjag7oeq3xx,30lsnf239y8enb07iseumaks7q7i2w,gQPeBk1w,2020-0188,2020-11-17,18:40:02,18:54:34,NA,NA,instruction example,color,NA,NA,NA,A_F_14.jpg,A_M_16.jpg,C_F_15.jpg,NA,NA,NA,NA,undefined
gQPeBk1w,39tx062qy41yb4nrucnyjag7oeq3xx,30lsnf239y8enb07iseumaks7q7i2w,gQPeBk1w,2020-0188,2020-11-17,18:40:02,18:54:34,852556.3349998556,872008.7199998088,NA,NA,NA,NA,NA,NA,NA,NA,NA,NA,NA,NA,undefined
