workerId,hitId,assignmentId,subject,studyid,exp_date,exp_start,exp_end,time_start,time_end,trial,type,sequence,reward_validity,answer,image_top,image_left,image_right,response,response_time,response_acc,volatility,age,race,gender,ethnicity,color,vision,neuro,practice
2045iKQj,3kqc8jmjhf51pencp85cgosduim3h1,30mvjzjnhqqli65clje98y75uw29jv,2045iKQj,2020-0188,2020-06-04,17:45:20,18:06:26,NA,incomplete,0,color,0,1,right,Red_Star_Chess_2.jpg,Purple_Star_Dots_3.jpg,Red_Plus_Grid_1.jpg,right,1237.740000000049,true,NA,NA,NA,NA,NA,NA,NA,NA,true
2045iKQj,3kqc8jmjhf51pencp85cgosduim3h1,30mvjzjnhqqli65clje98y75uw29jv,2045iKQj,2020-0188,2020-06-04,17:45:20,18:06:26,NA,incomplete,1,color,0,1,left,Green_Circle_Chess_4.jpg,Green_Star_Stripes_2.jpg,Purple_Circle_Dots_3.jpg,left,1278.1449999999604,true,NA,NA,NA,NA,NA,NA,NA,NA,true
2045iKQj,3kqc8jmjhf51pencp85cgosduim3h1,30mvjzjnhqqli65clje98y75uw29jv,2045iKQj,2020-0188,2020-06-04,17:45:20,18:06:26,NA,incomplete,2,color,0,1,right,Green_Circle_Stripes_2.jpg,Purple_Circle_Grid_3.jpg,Green_Star_Chess_4.jpg,none,0,false,NA,NA,NA,NA,NA,NA,NA,NA,true
2045iKQj,3kqc8jmjhf51pencp85cgosduim3h1,30mvjzjnhqqli65clje98y75uw29jv,2045iKQj,2020-0188,2020-06-04,17:45:20,18:06:26,NA,incomplete,3,color,0,1,left,Purple_Plus_Dots_3.jpg,Purple_Star_Grid_2.jpg,Blue_Plus_Chess_1.jpg,left,902.0249999998487,true,NA,NA,NA,NA,NA,NA,NA,NA,true
2045iKQj,3kqc8jmjhf51pencp85cgosduim3h1,30mvjzjnhqqli65clje98y75uw29jv,2045iKQj,2020-0188,2020-06-04,17:45:20,18:06:26,NA,incomplete,4,color,0,1,left,Green_Circle_Stripes_4.jpg,Green_Triangle_Dots_3.jpg,Purple_Circle_Grid_2.jpg,left,876.4150000001537,true,NA,NA,NA,NA,NA,NA,NA,NA,true
2045iKQj,3kqc8jmjhf51pencp85cgosduim3h1,30mvjzjnhqqli65clje98y75uw29jv,2045iKQj,2020-0188,2020-06-04,17:45:20,18:06:26,NA,incomplete,5,color,0,1,left,Green_Triangle_Chess_1.jpg,Green_Circle_Stripes_2.jpg,Blue_Triangle_Dots_4.jpg,left,675.7749999999651,true,NA,NA,NA,NA,NA,NA,NA,NA,true
2045iKQj,3kqc8jmjhf51pencp85cgosduim3h1,30mvjzjnhqqli65clje98y75uw29jv,2045iKQj,2020-0188,2020-06-04,17:45:20,18:06:26,NA,incomplete,6,color,0,0,left,Red_Circle_Chess_3.jpg,Red_Plus_Grid_1.jpg,Blue_Circle_Stripes_4.jpg,left,817.7899999998044,true,NA,NA,NA,NA,NA,NA,NA,NA,true
2045iKQj,3kqc8jmjhf51pencp85cgosduim3h1,30mvjzjnhqqli65clje98y75uw29jv,2045iKQj,2020-0188,2020-06-04,17:45:20,18:06:26,NA,incomplete,7,color,0,1,right,Green_Circle_Chess_3.jpg,Blue_Circle_Stripes_4.jpg,Green_Triangle_Dots_1.jpg,right,1187.914999999979,true,NA,NA,NA,NA,NA,NA,NA,NA,true
2045iKQj,3kqc8jmjhf51pencp85cgosduim3h1,30mvjzjnhqqli65clje98y75uw29jv,2045iKQj,2020-0188,2020-06-04,17:45:20,18:06:26,NA,incomplete,8,color,0,1,left,Green_Plus_Chess_3.jpg,Green_Triangle_Stripes_4.jpg,Purple_Plus_Dots_1.jpg,left,1757.0000000000582,true,NA,NA,NA,NA,NA,NA,NA,NA,true
2045iKQj,3kqc8jmjhf51pencp85cgosduim3h1,30mvjzjnhqqli65clje98y75uw29jv,2045iKQj,2020-0188,2020-06-04,17:45:20,18:06:26,NA,incomplete,9,color,0,1,left,Red_Star_Chess_1.jpg,Red_Circle_Stripes_2.jpg,Blue_Star_Grid_4.jpg,left,992.9100000002072,true,NA,NA,NA,NA,NA,NA,NA,NA,true
2045iKQj,3kqc8jmjhf51pencp85cgosduim3h1,30mvjzjnhqqli65clje98y75uw29jv,2045iKQj,2020-0188,2020-06-04,17:45:20,18:06:26,NA,incomplete,10,color,0,1,right,Green_Plus_Dots_3.jpg,Red_Plus_Chess_4.jpg,Green_Star_Stripes_2.jpg,right,883.0500000001048,true,NA,NA,NA,NA,NA,NA,NA,NA,true
2045iKQj,3kqc8jmjhf51pencp85cgosduim3h1,30mvjzjnhqqli65clje98y75uw29jv,2045iKQj,2020-0188,2020-06-04,17:45:20,18:06:26,NA,incomplete,11,color,0,1,right,Purple_Triangle_Dots_2.jpg,Blue_Triangle_Stripes_4.jpg,Purple_Circle_Grid_1.jpg,right,1025.7550000000629,true,NA,NA,NA,NA,NA,NA,NA,NA,true
2045iKQj,3kqc8jmjhf51pencp85cgosduim3h1,30mvjzjnhqqli65clje98y75uw29jv,2045iKQj,2020-0188,2020-06-04,17:45:20,18:06:26,NA,incomplete,12,color,0,1,right,Green_Triangle_Grid_3.jpg,Blue_Triangle_Stripes_4.jpg,Green_Circle_Dots_1.jpg,right,874.6650000000373,true,NA,NA,NA,NA,NA,NA,NA,NA,true
2045iKQj,3kqc8jmjhf51pencp85cgosduim3h1,30mvjzjnhqqli65clje98y75uw29jv,2045iKQj,2020-0188,2020-06-04,17:45:20,18:06:26,NA,incomplete,13,color,0,1,right,Purple_Plus_Stripes_3.jpg,Green_Plus_Chess_1.jpg,Purple_Triangle_Dots_2.jpg,right,1089.7350000000442,true,NA,NA,NA,NA,NA,NA,NA,NA,true
2045iKQj,3kqc8jmjhf51pencp85cgosduim3h1,30mvjzjnhqqli65clje98y75uw29jv,2045iKQj,2020-0188,2020-06-04,17:45:20,18:06:26,NA,incomplete,14,color,0,1,right,Purple_Triangle_Chess_1.jpg,Green_Triangle_Stripes_3.jpg,Purple_Star_Dots_4.jpg,right,576.1999999999534,true,NA,NA,NA,NA,NA,NA,NA,NA,true
2045iKQj,3kqc8jmjhf51pencp85cgosduim3h1,30mvjzjnhqqli65clje98y75uw29jv,2045iKQj,2020-0188,2020-06-04,17:45:20,18:06:26,NA,incomplete,15,color,0,1,left,Red_Star_Stripes_4.jpg,Red_Circle_Chess_3.jpg,Green_Star_Grid_1.jpg,left,707.1450000000768,true,NA,NA,NA,NA,NA,NA,NA,NA,true
2045iKQj,3kqc8jmjhf51pencp85cgosduim3h1,30mvjzjnhqqli65clje98y75uw29jv,2045iKQj,2020-0188,2020-06-04,17:45:20,18:06:26,NA,incomplete,16,color,0,1,right,Purple_Plus_Chess_1.jpg,Green_Plus_Stripes_4.jpg,Purple_Triangle_Dots_2.jpg,right,816.515000000014,true,NA,NA,NA,NA,NA,NA,NA,NA,true
2045iKQj,3kqc8jmjhf51pencp85cgosduim3h1,30mvjzjnhqqli65clje98y75uw29jv,2045iKQj,2020-0188,2020-06-04,17:45:20,18:06:26,NA,incomplete,17,color,0,0,left,Red_Triangle_Stripes_3.jpg,Red_Circle_Chess_1.jpg,Purple_Triangle_Grid_2.jpg,left,618.8799999999464,true,NA,NA,NA,NA,NA,NA,NA,NA,true
2045iKQj,3kqc8jmjhf51pencp85cgosduim3h1,30mvjzjnhqqli65clje98y75uw29jv,2045iKQj,2020-0188,2020-06-04,17:45:20,18:06:26,NA,incomplete,18,color,0,1,right,Green_Star_Dots_4.jpg,Red_Star_Stripes_1.jpg,Green_Plus_Chess_2.jpg,right,596.0850000001374,true,NA,NA,NA,NA,NA,NA,NA,NA,true
2045iKQj,3kqc8jmjhf51pencp85cgosduim3h1,30mvjzjnhqqli65clje98y75uw29jv,2045iKQj,2020-0188,2020-06-04,17:45:20,18:06:26,NA,incomplete,19,color,0,0,right,Red_Triangle_Chess_3.jpg,Green_Triangle_Stripes_2.jpg,Red_Plus_Grid_4.jpg,right,694.8299999999581,true,NA,NA,NA,NA,NA,NA,NA,NA,true
2045iKQj,3kqc8jmjhf51pencp85cgosduim3h1,30mvjzjnhqqli65clje98y75uw29jv,2045iKQj,2020-0188,2020-06-04,17:45:20,18:06:26,NA,incomplete,20,shape,1,1,right,Red_Triangle_Grid_4.jpg,Red_Circle_Chess_1.jpg,Blue_Triangle_Dots_3.jpg,right,941.2149999997928,true,NA,NA,NA,NA,NA,NA,NA,NA,true
2045iKQj,3kqc8jmjhf51pencp85cgosduim3h1,30mvjzjnhqqli65clje98y75uw29jv,2045iKQj,2020-0188,2020-06-04,17:45:20,18:06:26,NA,incomplete,21,shape,1,0,right,Purple_Plus_Stripes_2.jpg,Purple_Triangle_Grid_1.jpg,Blue_Plus_Dots_3.jpg,right,921.5050000000047,true,NA,NA,NA,NA,NA,NA,NA,NA,true
2045iKQj,3kqc8jmjhf51pencp85cgosduim3h1,30mvjzjnhqqli65clje98y75uw29jv,2045iKQj,2020-0188,2020-06-04,17:45:20,18:06:26,NA,incomplete,22,shape,1,1,left,Purple_Triangle_Dots_3.jpg,Red_Triangle_Grid_1.jpg,Purple_Plus_Chess_4.jpg,left,1119.015000000014,true,NA,NA,NA,NA,NA,NA,NA,NA,true
2045iKQj,3kqc8jmjhf51pencp85cgosduim3h1,30mvjzjnhqqli65clje98y75uw29jv,2045iKQj,2020-0188,2020-06-04,17:45:20,18:06:26,NA,incomplete,23,shape,1,1,left,Blue_Star_Stripes_2.jpg,Red_Star_Grid_3.jpg,Blue_Plus_Dots_1.jpg,right,827.1600000000326,false,NA,NA,NA,NA,NA,NA,NA,NA,true
2045iKQj,3kqc8jmjhf51pencp85cgosduim3h1,30mvjzjnhqqli65clje98y75uw29jv,2045iKQj,2020-0188,2020-06-04,17:45:20,18:06:26,NA,incomplete,24,shape,1,1,left,Purple_Star_Chess_4.jpg,Red_Star_Grid_1.jpg,Purple_Plus_Dots_2.jpg,left,1172.8700000000536,true,NA,NA,NA,NA,NA,NA,NA,NA,true
2045iKQj,3kqc8jmjhf51pencp85cgosduim3h1,30mvjzjnhqqli65clje98y75uw29jv,2045iKQj,2020-0188,2020-06-04,17:45:20,18:06:26,NA,incomplete,25,shape,1,1,right,Green_Circle_Chess_3.jpg,Green_Plus_Dots_4.jpg,Red_Circle_Grid_2.jpg,right,1038.6200000000536,true,NA,NA,NA,NA,NA,NA,NA,NA,true
2045iKQj,3kqc8jmjhf51pencp85cgosduim3h1,30mvjzjnhqqli65clje98y75uw29jv,2045iKQj,2020-0188,2020-06-04,17:45:20,18:06:26,NA,incomplete,26,shape,1,1,right,Green_Triangle_Chess_2.jpg,Green_Plus_Grid_1.jpg,Purple_Triangle_Stripes_4.jpg,right,847.5900000000838,true,NA,NA,NA,NA,NA,NA,NA,NA,true
2045iKQj,3kqc8jmjhf51pencp85cgosduim3h1,30mvjzjnhqqli65clje98y75uw29jv,2045iKQj,2020-0188,2020-06-04,17:45:20,18:06:26,NA,incomplete,27,shape,1,0,left,Blue_Star_Chess_3.jpg,Purple_Star_Stripes_1.jpg,Blue_Circle_Grid_4.jpg,left,895.785000000149,true,NA,NA,NA,NA,NA,NA,NA,NA,true
2045iKQj,3kqc8jmjhf51pencp85cgosduim3h1,30mvjzjnhqqli65clje98y75uw29jv,2045iKQj,2020-0188,2020-06-04,17:45:20,18:06:26,NA,incomplete,28,shape,1,0,left,Purple_Star_Stripes_2.jpg,Green_Star_Dots_3.jpg,Purple_Triangle_Grid_1.jpg,left,766.0799999998417,true,NA,NA,NA,NA,NA,NA,NA,NA,true
2045iKQj,3kqc8jmjhf51pencp85cgosduim3h1,30mvjzjnhqqli65clje98y75uw29jv,2045iKQj,2020-0188,2020-06-04,17:45:20,18:06:26,NA,incomplete,29,shape,1,1,right,Green_Triangle_Chess_2.jpg,Green_Circle_Dots_3.jpg,Purple_Triangle_Stripes_1.jpg,right,1233.420000000042,true,NA,NA,NA,NA,NA,NA,NA,NA,true
2045iKQj,3kqc8jmjhf51pencp85cgosduim3h1,30mvjzjnhqqli65clje98y75uw29jv,2045iKQj,2020-0188,2020-06-04,17:45:20,18:06:26,NA,incomplete,30,shape,1,1,left,Red_Plus_Grid_2.jpg,Green_Plus_Stripes_1.jpg,Red_Triangle_Dots_4.jpg,left,962.5550000000512,true,NA,NA,NA,NA,NA,NA,NA,NA,true
2045iKQj,3kqc8jmjhf51pencp85cgosduim3h1,30mvjzjnhqqli65clje98y75uw29jv,2045iKQj,2020-0188,2020-06-04,17:45:20,18:06:26,NA,incomplete,31,shape,1,1,left,Red_Plus_Chess_2.jpg,Blue_Plus_Grid_1.jpg,Red_Circle_Dots_3.jpg,left,885.7349999998696,true,NA,NA,NA,NA,NA,NA,NA,NA,true
2045iKQj,3kqc8jmjhf51pencp85cgosduim3h1,30mvjzjnhqqli65clje98y75uw29jv,2045iKQj,2020-0188,2020-06-04,17:45:20,18:06:26,NA,incomplete,32,shape,1,1,right,Blue_Star_Stripes_3.jpg,Blue_Circle_Grid_4.jpg,Purple_Star_Chess_2.jpg,right,780.5500000000466,true,NA,NA,NA,NA,NA,NA,NA,NA,true
2045iKQj,3kqc8jmjhf51pencp85cgosduim3h1,30mvjzjnhqqli65clje98y75uw29jv,2045iKQj,2020-0188,2020-06-04,17:45:20,18:06:26,NA,incomplete,33,shape,1,1,left,Blue_Triangle_Dots_2.jpg,Purple_Triangle_Stripes_4.jpg,Blue_Circle_Grid_1.jpg,left,855.3649999998743,true,NA,NA,NA,NA,NA,NA,NA,NA,true
2045iKQj,3kqc8jmjhf51pencp85cgosduim3h1,30mvjzjnhqqli65clje98y75uw29jv,2045iKQj,2020-0188,2020-06-04,17:45:20,18:06:26,NA,incomplete,34,shape,1,0,right,Red_Triangle_Dots_3.jpg,Red_Star_Chess_4.jpg,Purple_Triangle_Grid_2.jpg,right,999.6049999999814,true,NA,NA,NA,NA,NA,NA,NA,NA,true
2045iKQj,3kqc8jmjhf51pencp85cgosduim3h1,30mvjzjnhqqli65clje98y75uw29jv,2045iKQj,2020-0188,2020-06-04,17:45:20,18:06:26,NA,incomplete,35,shape,1,1,left,Purple_Circle_Stripes_1.jpg,Green_Circle_Dots_2.jpg,Purple_Plus_Chess_3.jpg,left,913.8999999999069,true,NA,NA,NA,NA,NA,NA,NA,NA,true
2045iKQj,3kqc8jmjhf51pencp85cgosduim3h1,30mvjzjnhqqli65clje98y75uw29jv,2045iKQj,2020-0188,2020-06-04,17:45:20,18:06:26,NA,incomplete,36,shape,1,0,left,Purple_Plus_Dots_1.jpg,Blue_Plus_Stripes_2.jpg,Purple_Circle_Chess_3.jpg,left,647.0849999998463,true,NA,NA,NA,NA,NA,NA,NA,NA,true
2045iKQj,3kqc8jmjhf51pencp85cgosduim3h1,30mvjzjnhqqli65clje98y75uw29jv,2045iKQj,2020-0188,2020-06-04,17:45:20,18:06:26,NA,incomplete,37,shape,1,1,right,Purple_Circle_Dots_2.jpg,Purple_Star_Grid_1.jpg,Red_Circle_Chess_3.jpg,right,823.6999999999534,true,NA,NA,NA,NA,NA,NA,NA,NA,true
2045iKQj,3kqc8jmjhf51pencp85cgosduim3h1,30mvjzjnhqqli65clje98y75uw29jv,2045iKQj,2020-0188,2020-06-04,17:45:20,18:06:26,NA,incomplete,38,shape,1,1,left,Red_Plus_Chess_2.jpg,Blue_Plus_Dots_4.jpg,Red_Circle_Grid_3.jpg,left,744.5350000000326,true,NA,NA,NA,NA,NA,NA,NA,NA,true
2045iKQj,3kqc8jmjhf51pencp85cgosduim3h1,30mvjzjnhqqli65clje98y75uw29jv,2045iKQj,2020-0188,2020-06-04,17:45:20,18:06:26,NA,incomplete,39,shape,1,1,right,Purple_Circle_Dots_1.jpg,Purple_Triangle_Stripes_3.jpg,Blue_Circle_Grid_2.jpg,right,781.7050000001909,true,NA,NA,NA,NA,NA,NA,NA,NA,true
2045iKQj,3kqc8jmjhf51pencp85cgosduim3h1,30mvjzjnhqqli65clje98y75uw29jv,2045iKQj,2020-0188,2020-06-04,17:45:20,18:06:26,NA,incomplete,0,color,0,1,right,Purple_Star_Dots_3.jpg,Blue_Star_Chess_4.jpg,Purple_Triangle_Grid_1.jpg,left,1089.9949999997625,false,high,NA,NA,NA,NA,NA,NA,NA,false
2045iKQj,3kqc8jmjhf51pencp85cgosduim3h1,30mvjzjnhqqli65clje98y75uw29jv,2045iKQj,2020-0188,2020-06-04,17:45:20,18:06:26,NA,incomplete,1,color,0,1,right,Green_Triangle_Dots_3.jpg,Blue_Triangle_Chess_2.jpg,Green_Star_Stripes_4.jpg,left,879.9050000000279,false,high,NA,NA,NA,NA,NA,NA,NA,false
2045iKQj,3kqc8jmjhf51pencp85cgosduim3h1,30mvjzjnhqqli65clje98y75uw29jv,2045iKQj,2020-0188,2020-06-04,17:45:20,18:06:26,NA,incomplete,2,color,0,0,left,Red_Plus_Dots_1.jpg,Red_Triangle_Grid_3.jpg,Purple_Plus_Chess_4.jpg,right,982.5149999998976,false,high,NA,NA,NA,NA,NA,NA,NA,false
2045iKQj,3kqc8jmjhf51pencp85cgosduim3h1,30mvjzjnhqqli65clje98y75uw29jv,2045iKQj,2020-0188,2020-06-04,17:45:20,18:06:26,NA,incomplete,3,color,0,1,left,Red_Triangle_Stripes_3.jpg,Red_Circle_Grid_4.jpg,Green_Triangle_Chess_1.jpg,right,1025.5649999999441,false,high,NA,NA,NA,NA,NA,NA,NA,false
2045iKQj,3kqc8jmjhf51pencp85cgosduim3h1,30mvjzjnhqqli65clje98y75uw29jv,2045iKQj,2020-0188,2020-06-04,17:45:20,18:06:26,NA,incomplete,4,color,0,0,right,Purple_Plus_Grid_3.jpg,Blue_Plus_Stripes_1.jpg,Purple_Star_Chess_2.jpg,right,674.9299999998184,true,high,NA,NA,NA,NA,NA,NA,NA,false
2045iKQj,3kqc8jmjhf51pencp85cgosduim3h1,30mvjzjnhqqli65clje98y75uw29jv,2045iKQj,2020-0188,2020-06-04,17:45:20,18:06:26,NA,incomplete,5,color,0,1,left,Green_Triangle_Stripes_3.jpg,Green_Plus_Chess_1.jpg,Purple_Triangle_Grid_2.jpg,left,825.5849999999627,true,high,NA,NA,NA,NA,NA,NA,NA,false
2045iKQj,3kqc8jmjhf51pencp85cgosduim3h1,30mvjzjnhqqli65clje98y75uw29jv,2045iKQj,2020-0188,2020-06-04,17:45:20,18:06:26,NA,incomplete,6,color,0,1,right,Blue_Triangle_Stripes_4.jpg,Red_Triangle_Chess_2.jpg,Blue_Circle_Grid_3.jpg,left,1291.134999999893,false,high,NA,NA,NA,NA,NA,NA,NA,false
2045iKQj,3kqc8jmjhf51pencp85cgosduim3h1,30mvjzjnhqqli65clje98y75uw29jv,2045iKQj,2020-0188,2020-06-04,17:45:20,18:06:26,NA,incomplete,7,color,0,1,left,Blue_Triangle_Chess_2.jpg,Blue_Circle_Stripes_1.jpg,Purple_Triangle_Grid_4.jpg,left,944.3049999999348,true,high,NA,NA,NA,NA,NA,NA,NA,false
2045iKQj,3kqc8jmjhf51pencp85cgosduim3h1,30mvjzjnhqqli65clje98y75uw29jv,2045iKQj,2020-0188,2020-06-04,17:45:20,18:06:26,NA,incomplete,8,color,0,1,left,Green_Triangle_Dots_1.jpg,Green_Circle_Grid_4.jpg,Blue_Triangle_Stripes_2.jpg,left,661.2700000000186,true,high,NA,NA,NA,NA,NA,NA,NA,false
2045iKQj,3kqc8jmjhf51pencp85cgosduim3h1,30mvjzjnhqqli65clje98y75uw29jv,2045iKQj,2020-0188,2020-06-04,17:45:20,18:06:26,NA,incomplete,9,color,0,1,left,Blue_Circle_Stripes_1.jpg,Blue_Star_Dots_3.jpg,Green_Circle_Chess_2.jpg,right,820.5300000000279,false,high,NA,NA,NA,NA,NA,NA,NA,false
2045iKQj,3kqc8jmjhf51pencp85cgosduim3h1,30mvjzjnhqqli65clje98y75uw29jv,2045iKQj,2020-0188,2020-06-04,17:45:20,18:06:26,NA,incomplete,10,shape,1,0,left,Purple_Plus_Stripes_1.jpg,Red_Plus_Chess_3.jpg,Purple_Triangle_Dots_4.jpg,right,1158.4150000001537,false,high,NA,NA,NA,NA,NA,NA,NA,false
2045iKQj,3kqc8jmjhf51pencp85cgosduim3h1,30mvjzjnhqqli65clje98y75uw29jv,2045iKQj,2020-0188,2020-06-04,17:45:20,18:06:26,NA,incomplete,11,shape,1,1,right,Red_Plus_Dots_4.jpg,Red_Triangle_Stripes_1.jpg,Purple_Plus_Chess_3.jpg,left,1185.740000000107,false,high,NA,NA,NA,NA,NA,NA,NA,false
2045iKQj,3kqc8jmjhf51pencp85cgosduim3h1,30mvjzjnhqqli65clje98y75uw29jv,2045iKQj,2020-0188,2020-06-04,17:45:20,18:06:26,NA,incomplete,12,shape,1,1,left,Purple_Star_Grid_1.jpg,Blue_Star_Chess_4.jpg,Purple_Triangle_Stripes_3.jpg,left,803.609999999986,true,high,NA,NA,NA,NA,NA,NA,NA,false
2045iKQj,3kqc8jmjhf51pencp85cgosduim3h1,30mvjzjnhqqli65clje98y75uw29jv,2045iKQj,2020-0188,2020-06-04,17:45:20,18:06:26,NA,incomplete,13,shape,1,1,left,Green_Circle_Chess_2.jpg,Blue_Circle_Dots_1.jpg,Green_Triangle_Grid_4.jpg,left,981.7550000000047,true,high,NA,NA,NA,NA,NA,NA,NA,false
2045iKQj,3kqc8jmjhf51pencp85cgosduim3h1,30mvjzjnhqqli65clje98y75uw29jv,2045iKQj,2020-0188,2020-06-04,17:45:20,18:06:26,NA,incomplete,14,shape,1,0,right,Green_Circle_Dots_1.jpg,Green_Triangle_Chess_2.jpg,Purple_Circle_Stripes_3.jpg,right,848.8600000001024,true,high,NA,NA,NA,NA,NA,NA,NA,false
2045iKQj,3kqc8jmjhf51pencp85cgosduim3h1,30mvjzjnhqqli65clje98y75uw29jv,2045iKQj,2020-0188,2020-06-04,17:45:20,18:06:26,NA,incomplete,15,shape,1,1,left,Green_Plus_Stripes_3.jpg,Purple_Plus_Dots_4.jpg,Green_Star_Chess_2.jpg,left,1120.5800000000745,true,high,NA,NA,NA,NA,NA,NA,NA,false
2045iKQj,3kqc8jmjhf51pencp85cgosduim3h1,30mvjzjnhqqli65clje98y75uw29jv,2045iKQj,2020-0188,2020-06-04,17:45:20,18:06:26,NA,incomplete,16,shape,1,0,left,Blue_Triangle_Grid_4.jpg,Purple_Triangle_Chess_3.jpg,Blue_Plus_Stripes_1.jpg,left,613.4299999999348,true,high,NA,NA,NA,NA,NA,NA,NA,false
2045iKQj,3kqc8jmjhf51pencp85cgosduim3h1,30mvjzjnhqqli65clje98y75uw29jv,2045iKQj,2020-0188,2020-06-04,17:45:20,18:06:26,NA,incomplete,17,shape,1,0,right,Green_Circle_Chess_4.jpg,Green_Plus_Grid_2.jpg,Red_Circle_Dots_1.jpg,left,935.5000000001164,false,high,NA,NA,NA,NA,NA,NA,NA,false
2045iKQj,3kqc8jmjhf51pencp85cgosduim3h1,30mvjzjnhqqli65clje98y75uw29jv,2045iKQj,2020-0188,2020-06-04,17:45:20,18:06:26,NA,incomplete,18,shape,1,1,right,Blue_Plus_Chess_1.jpg,Blue_Circle_Stripes_3.jpg,Green_Plus_Grid_2.jpg,left,988.0099999998929,false,high,NA,NA,NA,NA,NA,NA,NA,false
2045iKQj,3kqc8jmjhf51pencp85cgosduim3h1,30mvjzjnhqqli65clje98y75uw29jv,2045iKQj,2020-0188,2020-06-04,17:45:20,18:06:26,NA,incomplete,19,shape,1,1,left,Blue_Circle_Dots_4.jpg,Green_Circle_Stripes_2.jpg,Blue_Plus_Grid_1.jpg,left,1045.7650000001304,true,high,NA,NA,NA,NA,NA,NA,NA,false
2045iKQj,3kqc8jmjhf51pencp85cgosduim3h1,30mvjzjnhqqli65clje98y75uw29jv,2045iKQj,2020-0188,2020-06-04,17:45:20,18:06:26,NA,incomplete,20,color,0,1,right,Red_Triangle_Stripes_3.jpg,Purple_Triangle_Grid_4.jpg,Red_Plus_Dots_2.jpg,left,1046.1349999997765,false,high,NA,NA,NA,NA,NA,NA,NA,false
2045iKQj,3kqc8jmjhf51pencp85cgosduim3h1,30mvjzjnhqqli65clje98y75uw29jv,2045iKQj,2020-0188,2020-06-04,17:45:20,18:06:26,NA,incomplete,21,color,0,1,left,Purple_Triangle_Stripes_1.jpg,Purple_Star_Chess_2.jpg,Blue_Triangle_Grid_4.jpg,left,910.2899999998044,true,high,NA,NA,NA,NA,NA,NA,NA,false
2045iKQj,3kqc8jmjhf51pencp85cgosduim3h1,30mvjzjnhqqli65clje98y75uw29jv,2045iKQj,2020-0188,2020-06-04,17:45:20,18:06:26,NA,incomplete,22,color,0,1,right,Blue_Plus_Stripes_4.jpg,Red_Plus_Grid_2.jpg,Blue_Triangle_Chess_1.jpg,right,891.7650000001304,true,high,NA,NA,NA,NA,NA,NA,NA,false
2045iKQj,3kqc8jmjhf51pencp85cgosduim3h1,30mvjzjnhqqli65clje98y75uw29jv,2045iKQj,2020-0188,2020-06-04,17:45:20,18:06:26,NA,incomplete,23,color,0,0,left,Red_Circle_Chess_1.jpg,Red_Plus_Dots_3.jpg,Blue_Circle_Stripes_4.jpg,left,634.234999999986,true,high,NA,NA,NA,NA,NA,NA,NA,false
2045iKQj,3kqc8jmjhf51pencp85cgosduim3h1,30mvjzjnhqqli65clje98y75uw29jv,2045iKQj,2020-0188,2020-06-04,17:45:20,18:06:26,NA,incomplete,24,color,0,0,left,Green_Circle_Grid_4.jpg,Green_Star_Chess_1.jpg,Purple_Circle_Dots_2.jpg,right,915.5499999999302,false,high,NA,NA,NA,NA,NA,NA,NA,false
2045iKQj,3kqc8jmjhf51pencp85cgosduim3h1,30mvjzjnhqqli65clje98y75uw29jv,2045iKQj,2020-0188,2020-06-04,17:45:20,18:06:26,NA,incomplete,25,color,0,0,right,Blue_Triangle_Dots_2.jpg,Red_Triangle_Stripes_4.jpg,Blue_Circle_Grid_3.jpg,left,746.109999999986,false,high,NA,NA,NA,NA,NA,NA,NA,false
2045iKQj,3kqc8jmjhf51pencp85cgosduim3h1,30mvjzjnhqqli65clje98y75uw29jv,2045iKQj,2020-0188,2020-06-04,17:45:20,18:06:26,NA,incomplete,26,color,0,1,left,Purple_Circle_Chess_4.jpg,Purple_Plus_Dots_1.jpg,Blue_Circle_Stripes_2.jpg,right,701.6949999999488,false,high,NA,NA,NA,NA,NA,NA,NA,false
2045iKQj,3kqc8jmjhf51pencp85cgosduim3h1,30mvjzjnhqqli65clje98y75uw29jv,2045iKQj,2020-0188,2020-06-04,17:45:20,18:06:26,NA,incomplete,27,color,0,0,right,Blue_Star_Chess_4.jpg,Green_Star_Grid_3.jpg,Blue_Plus_Dots_1.jpg,right,795.4849999998696,true,high,NA,NA,NA,NA,NA,NA,NA,false
2045iKQj,3kqc8jmjhf51pencp85cgosduim3h1,30mvjzjnhqqli65clje98y75uw29jv,2045iKQj,2020-0188,2020-06-04,17:45:20,18:06:26,NA,incomplete,28,color,0,1,left,Blue_Plus_Stripes_3.jpg,Blue_Triangle_Dots_2.jpg,Purple_Plus_Chess_4.jpg,left,910.2449999999953,true,high,NA,NA,NA,NA,NA,NA,NA,false
2045iKQj,3kqc8jmjhf51pencp85cgosduim3h1,30mvjzjnhqqli65clje98y75uw29jv,2045iKQj,2020-0188,2020-06-04,17:45:20,18:06:26,NA,incomplete,29,color,0,1,left,Green_Plus_Stripes_2.jpg,Green_Star_Chess_3.jpg,Blue_Plus_Grid_1.jpg,left,738.6700000001583,true,high,NA,NA,NA,NA,NA,NA,NA,false
2045iKQj,3kqc8jmjhf51pencp85cgosduim3h1,30mvjzjnhqqli65clje98y75uw29jv,2045iKQj,2020-0188,2020-06-04,17:45:20,18:06:26,NA,incomplete,30,shape,1,1,right,Red_Plus_Stripes_1.jpg,Red_Circle_Chess_4.jpg,Purple_Plus_Grid_2.jpg,left,912.2400000001071,false,high,NA,NA,NA,NA,NA,NA,NA,false
2045iKQj,3kqc8jmjhf51pencp85cgosduim3h1,30mvjzjnhqqli65clje98y75uw29jv,2045iKQj,2020-0188,2020-06-04,17:45:20,18:06:26,NA,incomplete,31,shape,1,1,left,Green_Star_Chess_3.jpg,Red_Star_Dots_1.jpg,Green_Triangle_Stripes_4.jpg,left,1005.9249999999302,true,high,NA,NA,NA,NA,NA,NA,NA,false
2045iKQj,3kqc8jmjhf51pencp85cgosduim3h1,30mvjzjnhqqli65clje98y75uw29jv,2045iKQj,2020-0188,2020-06-04,17:45:20,18:06:26,NA,incomplete,32,shape,1,0,right,Green_Circle_Stripes_1.jpg,Green_Plus_Dots_4.jpg,Blue_Circle_Grid_2.jpg,right,911.3199999998324,true,high,NA,NA,NA,NA,NA,NA,NA,false
2045iKQj,3kqc8jmjhf51pencp85cgosduim3h1,30mvjzjnhqqli65clje98y75uw29jv,2045iKQj,2020-0188,2020-06-04,17:45:20,18:06:26,NA,incomplete,33,shape,1,1,left,Blue_Plus_Chess_1.jpg,Green_Plus_Dots_2.jpg,Blue_Star_Grid_3.jpg,right,965.3349999998463,false,high,NA,NA,NA,NA,NA,NA,NA,false
2045iKQj,3kqc8jmjhf51pencp85cgosduim3h1,30mvjzjnhqqli65clje98y75uw29jv,2045iKQj,2020-0188,2020-06-04,17:45:20,18:06:26,NA,incomplete,34,shape,1,1,right,Blue_Plus_Chess_4.jpg,Blue_Triangle_Dots_3.jpg,Purple_Plus_Grid_1.jpg,left,888.425000000163,false,high,NA,NA,NA,NA,NA,NA,NA,false
2045iKQj,3kqc8jmjhf51pencp85cgosduim3h1,30mvjzjnhqqli65clje98y75uw29jv,2045iKQj,2020-0188,2020-06-04,17:45:20,18:06:26,NA,incomplete,35,shape,1,1,left,Green_Plus_Dots_3.jpg,Purple_Plus_Grid_2.jpg,Green_Triangle_Chess_4.jpg,right,974.9749999998603,false,high,NA,NA,NA,NA,NA,NA,NA,false
2045iKQj,3kqc8jmjhf51pencp85cgosduim3h1,30mvjzjnhqqli65clje98y75uw29jv,2045iKQj,2020-0188,2020-06-04,17:45:20,18:06:26,NA,incomplete,36,shape,1,1,left,Green_Triangle_Chess_4.jpg,Red_Triangle_Dots_1.jpg,Green_Circle_Stripes_3.jpg,left,849.5850000000792,true,high,NA,NA,NA,NA,NA,NA,NA,false
2045iKQj,3kqc8jmjhf51pencp85cgosduim3h1,30mvjzjnhqqli65clje98y75uw29jv,2045iKQj,2020-0188,2020-06-04,17:45:20,18:06:26,NA,incomplete,37,shape,1,0,left,Red_Triangle_Dots_2.jpg,Purple_Triangle_Stripes_4.jpg,Red_Plus_Grid_1.jpg,left,938.0349999999162,true,high,NA,NA,NA,NA,NA,NA,NA,false
2045iKQj,3kqc8jmjhf51pencp85cgosduim3h1,30mvjzjnhqqli65clje98y75uw29jv,2045iKQj,2020-0188,2020-06-04,17:45:20,18:06:26,NA,incomplete,38,shape,1,1,right,Green_Triangle_Stripes_3.jpg,Green_Star_Chess_2.jpg,Red_Triangle_Dots_4.jpg,left,830.895000000135,false,high,NA,NA,NA,NA,NA,NA,NA,false
2045iKQj,3kqc8jmjhf51pencp85cgosduim3h1,30mvjzjnhqqli65clje98y75uw29jv,2045iKQj,2020-0188,2020-06-04,17:45:20,18:06:26,NA,incomplete,39,shape,1,1,left,Green_Triangle_Grid_3.jpg,Red_Triangle_Chess_2.jpg,Green_Circle_Stripes_4.jpg,left,627.1199999998789,true,high,NA,NA,NA,NA,NA,NA,NA,false
2045iKQj,3kqc8jmjhf51pencp85cgosduim3h1,30mvjzjnhqqli65clje98y75uw29jv,2045iKQj,2020-0188,2020-06-04,17:45:20,18:06:26,NA,incomplete,40,color,0,1,left,Blue_Star_Grid_2.jpg,Blue_Circle_Chess_4.jpg,Green_Star_Stripes_1.jpg,right,696.1500000000233,false,high,NA,NA,NA,NA,NA,NA,NA,false
2045iKQj,3kqc8jmjhf51pencp85cgosduim3h1,30mvjzjnhqqli65clje98y75uw29jv,2045iKQj,2020-0188,2020-06-04,17:45:20,18:06:26,NA,incomplete,41,color,0,1,left,Red_Plus_Dots_1.jpg,Red_Triangle_Chess_4.jpg,Green_Plus_Stripes_2.jpg,right,767.3900000002468,false,high,NA,NA,NA,NA,NA,NA,NA,false
2045iKQj,3kqc8jmjhf51pencp85cgosduim3h1,30mvjzjnhqqli65clje98y75uw29jv,2045iKQj,2020-0188,2020-06-04,17:45:20,18:06:26,NA,incomplete,42,color,0,1,right,Purple_Plus_Dots_3.jpg,Green_Plus_Stripes_1.jpg,Purple_Triangle_Grid_4.jpg,right,939.4150000000373,true,high,NA,NA,NA,NA,NA,NA,NA,false
2045iKQj,3kqc8jmjhf51pencp85cgosduim3h1,30mvjzjnhqqli65clje98y75uw29jv,2045iKQj,2020-0188,2020-06-04,17:45:20,18:06:26,NA,incomplete,43,color,0,1,right,Green_Circle_Stripes_2.jpg,Blue_Circle_Grid_4.jpg,Green_Plus_Dots_3.jpg,left,631.7699999999022,false,high,NA,NA,NA,NA,NA,NA,NA,false
2045iKQj,3kqc8jmjhf51pencp85cgosduim3h1,30mvjzjnhqqli65clje98y75uw29jv,2045iKQj,2020-0188,2020-06-04,17:45:20,18:06:26,NA,incomplete,44,color,0,1,left,Red_Triangle_Chess_4.jpg,Red_Star_Stripes_1.jpg,Purple_Triangle_Grid_3.jpg,right,1016.7650000001304,false,high,NA,NA,NA,NA,NA,NA,NA,false
2045iKQj,3kqc8jmjhf51pencp85cgosduim3h1,30mvjzjnhqqli65clje98y75uw29jv,2045iKQj,2020-0188,2020-06-04,17:45:20,18:06:26,NA,incomplete,45,color,0,1,right,Blue_Star_Stripes_1.jpg,Purple_Star_Chess_4.jpg,Blue_Triangle_Dots_2.jpg,right,906.2149999999674,true,high,NA,NA,NA,NA,NA,NA,NA,false
2045iKQj,3kqc8jmjhf51pencp85cgosduim3h1,30mvjzjnhqqli65clje98y75uw29jv,2045iKQj,2020-0188,2020-06-04,17:45:20,18:06:26,NA,incomplete,46,color,0,1,right,Purple_Circle_Stripes_2.jpg,Green_Circle_Grid_1.jpg,Purple_Star_Chess_4.jpg,right,703.9750000000931,true,high,NA,NA,NA,NA,NA,NA,NA,false
2045iKQj,3kqc8jmjhf51pencp85cgosduim3h1,30mvjzjnhqqli65clje98y75uw29jv,2045iKQj,2020-0188,2020-06-04,17:45:20,18:06:26,NA,incomplete,47,color,0,1,right,Purple_Star_Stripes_2.jpg,Green_Star_Chess_3.jpg,Purple_Triangle_Grid_1.jpg,right,645.8349999999627,true,high,NA,NA,NA,NA,NA,NA,NA,false
2045iKQj,3kqc8jmjhf51pencp85cgosduim3h1,30mvjzjnhqqli65clje98y75uw29jv,2045iKQj,2020-0188,2020-06-04,17:45:20,18:06:26,NA,incomplete,48,color,0,1,left,Purple_Plus_Dots_1.jpg,Purple_Triangle_Grid_4.jpg,Green_Plus_Stripes_3.jpg,left,606.7600000001257,true,high,NA,NA,NA,NA,NA,NA,NA,false
2045iKQj,3kqc8jmjhf51pencp85cgosduim3h1,30mvjzjnhqqli65clje98y75uw29jv,2045iKQj,2020-0188,2020-06-04,17:45:20,18:06:26,NA,incomplete,49,color,0,1,right,Purple_Plus_Stripes_4.jpg,Red_Plus_Dots_1.jpg,Purple_Circle_Chess_2.jpg,right,624.2700000000186,true,high,NA,NA,NA,NA,NA,NA,NA,false
2045iKQj,3kqc8jmjhf51pencp85cgosduim3h1,30mvjzjnhqqli65clje98y75uw29jv,2045iKQj,2020-0188,2020-06-04,17:45:20,18:06:26,NA,incomplete,50,shape,1,1,right,Green_Star_Grid_4.jpg,Green_Plus_Dots_3.jpg,Purple_Star_Stripes_1.jpg,left,617.6300000000047,false,high,NA,NA,NA,NA,NA,NA,NA,false
2045iKQj,3kqc8jmjhf51pencp85cgosduim3h1,30mvjzjnhqqli65clje98y75uw29jv,2045iKQj,2020-0188,2020-06-04,17:45:20,18:06:26,NA,incomplete,51,shape,1,1,right,Red_Triangle_Grid_3.jpg,Red_Star_Stripes_2.jpg,Blue_Triangle_Chess_4.jpg,left,970.9099999999162,false,high,NA,NA,NA,NA,NA,NA,NA,false
2045iKQj,3kqc8jmjhf51pencp85cgosduim3h1,30mvjzjnhqqli65clje98y75uw29jv,2045iKQj,2020-0188,2020-06-04,17:45:20,18:06:26,NA,incomplete,52,shape,1,1,left,Blue_Plus_Chess_2.jpg,Purple_Plus_Grid_4.jpg,Blue_Triangle_Dots_3.jpg,left,1334.6099999998696,true,high,NA,NA,NA,NA,NA,NA,NA,false
2045iKQj,3kqc8jmjhf51pencp85cgosduim3h1,30mvjzjnhqqli65clje98y75uw29jv,2045iKQj,2020-0188,2020-06-04,17:45:20,18:06:26,NA,incomplete,53,shape,1,0,right,Purple_Plus_Chess_4.jpg,Purple_Triangle_Dots_1.jpg,Green_Plus_Grid_2.jpg,right,755.559999999823,true,high,NA,NA,NA,NA,NA,NA,NA,false
2045iKQj,3kqc8jmjhf51pencp85cgosduim3h1,30mvjzjnhqqli65clje98y75uw29jv,2045iKQj,2020-0188,2020-06-04,17:45:20,18:06:26,NA,incomplete,54,shape,1,1,right,Blue_Star_Stripes_3.jpg,Blue_Plus_Chess_2.jpg,Red_Star_Grid_4.jpg,right,1158.5350000000326,true,high,NA,NA,NA,NA,NA,NA,NA,false
2045iKQj,3kqc8jmjhf51pencp85cgosduim3h1,30mvjzjnhqqli65clje98y75uw29jv,2045iKQj,2020-0188,2020-06-04,17:45:20,18:06:26,NA,incomplete,55,shape,1,0,left,Red_Circle_Stripes_2.jpg,Purple_Circle_Dots_1.jpg,Red_Triangle_Grid_4.jpg,left,1202.1350000000093,true,high,NA,NA,NA,NA,NA,NA,NA,false
2045iKQj,3kqc8jmjhf51pencp85cgosduim3h1,30mvjzjnhqqli65clje98y75uw29jv,2045iKQj,2020-0188,2020-06-04,17:45:20,18:06:26,NA,incomplete,56,shape,1,1,right,Purple_Star_Dots_3.jpg,Purple_Triangle_Stripes_2.jpg,Green_Star_Chess_4.jpg,left,1252.1449999999022,false,high,NA,NA,NA,NA,NA,NA,NA,false
2045iKQj,3kqc8jmjhf51pencp85cgosduim3h1,30mvjzjnhqqli65clje98y75uw29jv,2045iKQj,2020-0188,2020-06-04,17:45:20,18:06:26,NA,incomplete,57,shape,1,0,right,Green_Circle_Chess_3.jpg,Green_Plus_Grid_4.jpg,Blue_Circle_Dots_2.jpg,left,1107.5600000001723,false,high,NA,NA,NA,NA,NA,NA,NA,false
2045iKQj,3kqc8jmjhf51pencp85cgosduim3h1,30mvjzjnhqqli65clje98y75uw29jv,2045iKQj,2020-0188,2020-06-04,17:45:20,18:06:26,NA,incomplete,58,shape,1,0,left,Red_Circle_Stripes_3.jpg,Blue_Circle_Chess_2.jpg,Red_Star_Dots_1.jpg,right,929.5,false,high,NA,NA,NA,NA,NA,NA,NA,false
2045iKQj,3kqc8jmjhf51pencp85cgosduim3h1,30mvjzjnhqqli65clje98y75uw29jv,2045iKQj,2020-0188,2020-06-04,17:45:20,18:06:26,NA,incomplete,59,shape,1,0,left,Blue_Plus_Grid_1.jpg,Green_Plus_Chess_3.jpg,Blue_Circle_Stripes_4.jpg,right,606.0649999999441,false,high,NA,NA,NA,NA,NA,NA,NA,false
2045iKQj,3kqc8jmjhf51pencp85cgosduim3h1,30mvjzjnhqqli65clje98y75uw29jv,2045iKQj,2020-0188,2020-06-04,17:45:20,18:06:26,NA,incomplete,60,color,0,1,left,Purple_Circle_Dots_1.jpg,Purple_Triangle_Chess_4.jpg,Red_Circle_Stripes_2.jpg,left,664.125,true,high,NA,NA,NA,NA,NA,NA,NA,false
2045iKQj,3kqc8jmjhf51pencp85cgosduim3h1,30mvjzjnhqqli65clje98y75uw29jv,2045iKQj,2020-0188,2020-06-04,17:45:20,18:06:26,NA,incomplete,61,color,0,1,right,Green_Circle_Dots_4.jpg,Blue_Circle_Grid_1.jpg,Green_Triangle_Stripes_2.jpg,right,647.9699999999721,true,high,NA,NA,NA,NA,NA,NA,NA,false
2045iKQj,3kqc8jmjhf51pencp85cgosduim3h1,30mvjzjnhqqli65clje98y75uw29jv,2045iKQj,2020-0188,2020-06-04,17:45:20,18:06:26,NA,incomplete,62,color,0,1,right,Red_Circle_Chess_1.jpg,Purple_Circle_Dots_4.jpg,Red_Star_Grid_2.jpg,right,1696.2850000000326,true,high,NA,NA,NA,NA,NA,NA,NA,false
2045iKQj,3kqc8jmjhf51pencp85cgosduim3h1,30mvjzjnhqqli65clje98y75uw29jv,2045iKQj,2020-0188,2020-06-04,17:45:20,18:06:26,NA,incomplete,63,color,0,1,left,Blue_Triangle_Dots_1.jpg,Blue_Star_Chess_4.jpg,Green_Triangle_Grid_3.jpg,right,1357.8199999999488,false,high,NA,NA,NA,NA,NA,NA,NA,false
2045iKQj,3kqc8jmjhf51pencp85cgosduim3h1,30mvjzjnhqqli65clje98y75uw29jv,2045iKQj,2020-0188,2020-06-04,17:45:20,18:06:26,NA,incomplete,64,color,0,0,left,Red_Triangle_Stripes_1.jpg,Red_Plus_Grid_4.jpg,Purple_Triangle_Dots_3.jpg,left,601.3549999999814,true,high,NA,NA,NA,NA,NA,NA,NA,false
2045iKQj,3kqc8jmjhf51pencp85cgosduim3h1,30mvjzjnhqqli65clje98y75uw29jv,2045iKQj,2020-0188,2020-06-04,17:45:20,18:06:26,NA,incomplete,65,color,0,1,left,Green_Triangle_Chess_4.jpg,Green_Plus_Dots_3.jpg,Blue_Triangle_Stripes_2.jpg,right,1139.2499999998836,false,high,NA,NA,NA,NA,NA,NA,NA,false
2045iKQj,3kqc8jmjhf51pencp85cgosduim3h1,30mvjzjnhqqli65clje98y75uw29jv,2045iKQj,2020-0188,2020-06-04,17:45:20,18:06:26,NA,incomplete,66,color,0,0,right,Purple_Plus_Stripes_2.jpg,Red_Plus_Dots_3.jpg,Purple_Circle_Chess_4.jpg,right,1239.9100000000326,true,high,NA,NA,NA,NA,NA,NA,NA,false
2045iKQj,3kqc8jmjhf51pencp85cgosduim3h1,30mvjzjnhqqli65clje98y75uw29jv,2045iKQj,2020-0188,2020-06-04,17:45:20,18:06:26,NA,incomplete,67,color,0,1,left,Green_Plus_Dots_3.jpg,Green_Triangle_Chess_1.jpg,Red_Plus_Grid_4.jpg,left,1359.204999999958,true,high,NA,NA,NA,NA,NA,NA,NA,false
2045iKQj,3kqc8jmjhf51pencp85cgosduim3h1,30mvjzjnhqqli65clje98y75uw29jv,2045iKQj,2020-0188,2020-06-04,17:45:20,18:06:26,NA,incomplete,68,color,0,1,left,Blue_Triangle_Grid_3.jpg,Blue_Circle_Dots_4.jpg,Purple_Triangle_Chess_1.jpg,left,578.5599999999395,true,high,NA,NA,NA,NA,NA,NA,NA,false
2045iKQj,3kqc8jmjhf51pencp85cgosduim3h1,30mvjzjnhqqli65clje98y75uw29jv,2045iKQj,2020-0188,2020-06-04,17:45:20,18:06:26,NA,incomplete,69,color,0,1,right,Purple_Circle_Dots_3.jpg,Green_Circle_Grid_1.jpg,Purple_Star_Chess_2.jpg,left,1173.4550000000745,false,high,NA,NA,NA,NA,NA,NA,NA,false
2045iKQj,3kqc8jmjhf51pencp85cgosduim3h1,30mvjzjnhqqli65clje98y75uw29jv,2045iKQj,2020-0188,2020-06-04,17:45:20,18:06:26,NA,incomplete,70,shape,1,1,right,Green_Star_Chess_4.jpg,Green_Plus_Grid_2.jpg,Purple_Star_Stripes_3.jpg,left,631.7600000000093,false,high,NA,NA,NA,NA,NA,NA,NA,false
2045iKQj,3kqc8jmjhf51pencp85cgosduim3h1,30mvjzjnhqqli65clje98y75uw29jv,2045iKQj,2020-0188,2020-06-04,17:45:20,18:06:26,NA,incomplete,71,shape,1,1,left,Red_Plus_Grid_1.jpg,Blue_Plus_Dots_4.jpg,Red_Star_Chess_3.jpg,left,810.4299999999348,true,high,NA,NA,NA,NA,NA,NA,NA,false
2045iKQj,3kqc8jmjhf51pencp85cgosduim3h1,30mvjzjnhqqli65clje98y75uw29jv,2045iKQj,2020-0188,2020-06-04,17:45:20,18:06:26,NA,incomplete,72,shape,1,1,left,Purple_Triangle_Chess_4.jpg,Green_Triangle_Dots_2.jpg,Purple_Circle_Grid_1.jpg,left,859.5250000001397,true,high,NA,NA,NA,NA,NA,NA,NA,false
2045iKQj,3kqc8jmjhf51pencp85cgosduim3h1,30mvjzjnhqqli65clje98y75uw29jv,2045iKQj,2020-0188,2020-06-04,17:45:20,18:06:26,NA,incomplete,73,shape,1,1,right,Purple_Triangle_Stripes_1.jpg,Purple_Circle_Dots_2.jpg,Blue_Triangle_Grid_4.jpg,right,651.1349999997765,true,high,NA,NA,NA,NA,NA,NA,NA,false
2045iKQj,3kqc8jmjhf51pencp85cgosduim3h1,30mvjzjnhqqli65clje98y75uw29jv,2045iKQj,2020-0188,2020-06-04,17:45:20,18:06:26,NA,incomplete,74,shape,1,1,right,Blue_Circle_Dots_1.jpg,Blue_Star_Grid_3.jpg,Red_Circle_Stripes_2.jpg,right,706.3199999999488,true,high,NA,NA,NA,NA,NA,NA,NA,false
2045iKQj,3kqc8jmjhf51pencp85cgosduim3h1,30mvjzjnhqqli65clje98y75uw29jv,2045iKQj,2020-0188,2020-06-04,17:45:20,18:06:26,NA,incomplete,75,shape,1,1,left,Green_Star_Grid_3.jpg,Purple_Star_Chess_1.jpg,Green_Plus_Dots_4.jpg,left,592.9699999998556,true,high,NA,NA,NA,NA,NA,NA,NA,false
2045iKQj,3kqc8jmjhf51pencp85cgosduim3h1,30mvjzjnhqqli65clje98y75uw29jv,2045iKQj,2020-0188,2020-06-04,17:45:20,18:06:26,NA,incomplete,76,shape,1,1,left,Purple_Circle_Dots_3.jpg,Green_Circle_Grid_1.jpg,Purple_Triangle_Stripes_2.jpg,left,547.9300000000512,true,high,NA,NA,NA,NA,NA,NA,NA,false
2045iKQj,3kqc8jmjhf51pencp85cgosduim3h1,30mvjzjnhqqli65clje98y75uw29jv,2045iKQj,2020-0188,2020-06-04,17:45:20,18:06:26,NA,incomplete,77,shape,1,1,right,Purple_Star_Chess_3.jpg,Purple_Triangle_Dots_1.jpg,Red_Star_Stripes_2.jpg,right,768.2199999999721,true,high,NA,NA,NA,NA,NA,NA,NA,false
2045iKQj,3kqc8jmjhf51pencp85cgosduim3h1,30mvjzjnhqqli65clje98y75uw29jv,2045iKQj,2020-0188,2020-06-04,17:45:20,18:06:26,NA,incomplete,78,shape,1,1,left,Red_Plus_Dots_2.jpg,Purple_Plus_Chess_4.jpg,Red_Triangle_Stripes_1.jpg,left,747.4050000000279,true,high,NA,NA,NA,NA,NA,NA,NA,false
2045iKQj,3kqc8jmjhf51pencp85cgosduim3h1,30mvjzjnhqqli65clje98y75uw29jv,2045iKQj,2020-0188,2020-06-04,17:45:20,18:06:26,NA,incomplete,79,shape,1,1,right,Purple_Circle_Dots_2.jpg,Purple_Star_Grid_3.jpg,Blue_Circle_Chess_1.jpg,right,1024.1850000000559,true,high,NA,NA,NA,NA,NA,NA,NA,false
2045iKQj,3kqc8jmjhf51pencp85cgosduim3h1,30mvjzjnhqqli65clje98y75uw29jv,2045iKQj,2020-0188,2020-06-04,17:45:20,18:06:26,NA,incomplete,80,color,0,0,left,Purple_Plus_Chess_2.jpg,Purple_Circle_Dots_1.jpg,Red_Plus_Stripes_4.jpg,left,632.9399999999441,true,high,NA,NA,NA,NA,NA,NA,NA,false
2045iKQj,3kqc8jmjhf51pencp85cgosduim3h1,30mvjzjnhqqli65clje98y75uw29jv,2045iKQj,2020-0188,2020-06-04,17:45:20,18:06:26,NA,incomplete,81,color,0,1,left,Blue_Circle_Stripes_2.jpg,Blue_Plus_Dots_1.jpg,Red_Circle_Chess_3.jpg,right,1090.794999999809,false,high,NA,NA,NA,NA,NA,NA,NA,false
2045iKQj,3kqc8jmjhf51pencp85cgosduim3h1,30mvjzjnhqqli65clje98y75uw29jv,2045iKQj,2020-0188,2020-06-04,17:45:20,18:06:26,NA,incomplete,82,color,0,1,right,Blue_Triangle_Grid_1.jpg,Purple_Triangle_Stripes_3.jpg,Blue_Star_Dots_2.jpg,right,1080.3149999999441,true,high,NA,NA,NA,NA,NA,NA,NA,false
2045iKQj,3kqc8jmjhf51pencp85cgosduim3h1,30mvjzjnhqqli65clje98y75uw29jv,2045iKQj,2020-0188,2020-06-04,17:45:20,18:06:26,NA,incomplete,83,color,0,0,left,Green_Triangle_Dots_2.jpg,Green_Star_Chess_3.jpg,Red_Triangle_Stripes_4.jpg,left,982.8349999999627,true,high,NA,NA,NA,NA,NA,NA,NA,false
2045iKQj,3kqc8jmjhf51pencp85cgosduim3h1,30mvjzjnhqqli65clje98y75uw29jv,2045iKQj,2020-0188,2020-06-04,17:45:20,18:06:26,NA,incomplete,84,color,0,0,right,Purple_Circle_Stripes_1.jpg,Red_Circle_Dots_3.jpg,Purple_Triangle_Chess_2.jpg,left,858.1099999998696,false,high,NA,NA,NA,NA,NA,NA,NA,false
2045iKQj,3kqc8jmjhf51pencp85cgosduim3h1,30mvjzjnhqqli65clje98y75uw29jv,2045iKQj,2020-0188,2020-06-04,17:45:20,18:06:26,NA,incomplete,85,color,0,1,right,Blue_Plus_Stripes_3.jpg,Green_Plus_Chess_1.jpg,Blue_Triangle_Grid_4.jpg,left,897.6050000000978,false,high,NA,NA,NA,NA,NA,NA,NA,false
2045iKQj,3kqc8jmjhf51pencp85cgosduim3h1,30mvjzjnhqqli65clje98y75uw29jv,2045iKQj,2020-0188,2020-06-04,17:45:20,18:06:26,NA,incomplete,86,color,0,1,left,Green_Triangle_Stripes_3.jpg,Green_Star_Chess_2.jpg,Red_Triangle_Grid_4.jpg,right,976.5900000000838,false,high,NA,NA,NA,NA,NA,NA,NA,false
2045iKQj,3kqc8jmjhf51pencp85cgosduim3h1,30mvjzjnhqqli65clje98y75uw29jv,2045iKQj,2020-0188,2020-06-04,17:45:20,18:06:26,NA,incomplete,87,color,0,1,right,Red_Plus_Chess_2.jpg,Green_Plus_Dots_4.jpg,Red_Star_Grid_3.jpg,left,1266.8299999998417,false,high,NA,NA,NA,NA,NA,NA,NA,false
2045iKQj,3kqc8jmjhf51pencp85cgosduim3h1,30mvjzjnhqqli65clje98y75uw29jv,2045iKQj,2020-0188,2020-06-04,17:45:20,18:06:26,NA,incomplete,88,color,0,1,left,Blue_Triangle_Stripes_1.jpg,Blue_Star_Grid_3.jpg,Red_Triangle_Chess_2.jpg,left,962.479999999865,true,high,NA,NA,NA,NA,NA,NA,NA,false
2045iKQj,3kqc8jmjhf51pencp85cgosduim3h1,30mvjzjnhqqli65clje98y75uw29jv,2045iKQj,2020-0188,2020-06-04,17:45:20,18:06:26,NA,incomplete,89,color,0,1,left,Blue_Star_Stripes_3.jpg,Blue_Triangle_Chess_4.jpg,Purple_Star_Dots_1.jpg,left,973.3149999999441,true,high,NA,NA,NA,NA,NA,NA,NA,false
2045iKQj,3kqc8jmjhf51pencp85cgosduim3h1,30mvjzjnhqqli65clje98y75uw29jv,2045iKQj,2020-0188,2020-06-04,17:45:20,18:06:26,NA,incomplete,90,shape,1,1,left,Red_Star_Grid_1.jpg,Blue_Star_Stripes_3.jpg,Red_Triangle_Chess_4.jpg,right,664.7500000001164,false,high,NA,NA,NA,NA,NA,NA,NA,false
2045iKQj,3kqc8jmjhf51pencp85cgosduim3h1,30mvjzjnhqqli65clje98y75uw29jv,2045iKQj,2020-0188,2020-06-04,17:45:20,18:06:26,NA,incomplete,91,shape,1,1,left,Blue_Triangle_Grid_2.jpg,Purple_Triangle_Stripes_3.jpg,Blue_Plus_Chess_1.jpg,right,713.2950000000419,false,high,NA,NA,NA,NA,NA,NA,NA,false
2045iKQj,3kqc8jmjhf51pencp85cgosduim3h1,30mvjzjnhqqli65clje98y75uw29jv,2045iKQj,2020-0188,2020-06-04,17:45:20,18:06:26,NA,incomplete,92,shape,1,1,left,Green_Star_Grid_4.jpg,Red_Star_Chess_1.jpg,Green_Circle_Stripes_2.jpg,left,1094.5500000000466,true,high,NA,NA,NA,NA,NA,NA,NA,false
2045iKQj,3kqc8jmjhf51pencp85cgosduim3h1,30mvjzjnhqqli65clje98y75uw29jv,2045iKQj,2020-0188,2020-06-04,17:45:20,18:06:26,NA,incomplete,93,shape,1,1,right,Green_Circle_Grid_3.jpg,Green_Plus_Chess_2.jpg,Red_Circle_Stripes_4.jpg,left,1629.1449999999022,false,high,NA,NA,NA,NA,NA,NA,NA,false
2045iKQj,3kqc8jmjhf51pencp85cgosduim3h1,30mvjzjnhqqli65clje98y75uw29jv,2045iKQj,2020-0188,2020-06-04,17:45:20,18:06:26,NA,incomplete,94,shape,1,1,left,Blue_Circle_Chess_1.jpg,Red_Circle_Dots_3.jpg,Blue_Triangle_Grid_2.jpg,left,692.7749999999069,true,high,NA,NA,NA,NA,NA,NA,NA,false
2045iKQj,3kqc8jmjhf51pencp85cgosduim3h1,30mvjzjnhqqli65clje98y75uw29jv,2045iKQj,2020-0188,2020-06-04,17:45:20,18:06:26,NA,incomplete,95,shape,1,1,right,Green_Triangle_Stripes_2.jpg,Green_Circle_Grid_3.jpg,Purple_Triangle_Dots_1.jpg,right,1035.859999999986,true,high,NA,NA,NA,NA,NA,NA,NA,false
2045iKQj,3kqc8jmjhf51pencp85cgosduim3h1,30mvjzjnhqqli65clje98y75uw29jv,2045iKQj,2020-0188,2020-06-04,17:45:20,18:06:26,NA,incomplete,96,shape,1,1,right,Red_Circle_Chess_4.jpg,Red_Plus_Grid_1.jpg,Blue_Circle_Dots_3.jpg,right,987.6549999999115,true,high,NA,NA,NA,NA,NA,NA,NA,false
2045iKQj,3kqc8jmjhf51pencp85cgosduim3h1,30mvjzjnhqqli65clje98y75uw29jv,2045iKQj,2020-0188,2020-06-04,17:45:20,18:06:26,NA,incomplete,97,shape,1,0,left,Blue_Star_Chess_3.jpg,Red_Star_Dots_1.jpg,Blue_Triangle_Grid_2.jpg,left,982.2100000000792,true,high,NA,NA,NA,NA,NA,NA,NA,false
2045iKQj,3kqc8jmjhf51pencp85cgosduim3h1,30mvjzjnhqqli65clje98y75uw29jv,2045iKQj,2020-0188,2020-06-04,17:45:20,18:06:26,NA,incomplete,98,shape,1,1,left,Blue_Triangle_Stripes_3.jpg,Purple_Triangle_Grid_1.jpg,Blue_Plus_Dots_2.jpg,left,880.6950000000652,true,high,NA,NA,NA,NA,NA,NA,NA,false
2045iKQj,3kqc8jmjhf51pencp85cgosduim3h1,30mvjzjnhqqli65clje98y75uw29jv,2045iKQj,2020-0188,2020-06-04,17:45:20,18:06:26,NA,incomplete,99,shape,1,0,right,Red_Triangle_Grid_2.jpg,Red_Star_Chess_1.jpg,Green_Triangle_Stripes_3.jpg,right,743.8699999999953,true,high,NA,NA,NA,NA,NA,NA,NA,false
2045iKQj,3kqc8jmjhf51pencp85cgosduim3h1,30mvjzjnhqqli65clje98y75uw29jv,2045iKQj,2020-0188,2020-06-04,17:45:20,18:06:26,NA,incomplete,100,color,0,1,right,Purple_Circle_Chess_1.jpg,Red_Circle_Grid_4.jpg,Purple_Plus_Stripes_2.jpg,right,747.9000000001397,true,high,NA,NA,NA,NA,NA,NA,NA,false
2045iKQj,3kqc8jmjhf51pencp85cgosduim3h1,30mvjzjnhqqli65clje98y75uw29jv,2045iKQj,2020-0188,2020-06-04,17:45:20,18:06:26,NA,incomplete,101,color,0,1,right,Purple_Star_Grid_2.jpg,Green_Star_Chess_1.jpg,Purple_Circle_Stripes_3.jpg,right,608.7850000000326,true,high,NA,NA,NA,NA,NA,NA,NA,false
2045iKQj,3kqc8jmjhf51pencp85cgosduim3h1,30mvjzjnhqqli65clje98y75uw29jv,2045iKQj,2020-0188,2020-06-04,17:45:20,18:06:26,NA,incomplete,102,color,0,1,right,Green_Circle_Chess_2.jpg,Purple_Circle_Grid_1.jpg,Green_Plus_Stripes_3.jpg,right,586.8849999998929,true,high,NA,NA,NA,NA,NA,NA,NA,false
2045iKQj,3kqc8jmjhf51pencp85cgosduim3h1,30mvjzjnhqqli65clje98y75uw29jv,2045iKQj,2020-0188,2020-06-04,17:45:20,18:06:26,NA,incomplete,103,color,0,1,left,Blue_Triangle_Dots_2.jpg,Blue_Star_Grid_4.jpg,Red_Triangle_Stripes_1.jpg,left,516.9399999999441,true,high,NA,NA,NA,NA,NA,NA,NA,false
2045iKQj,3kqc8jmjhf51pencp85cgosduim3h1,30mvjzjnhqqli65clje98y75uw29jv,2045iKQj,2020-0188,2020-06-04,17:45:20,18:06:26,NA,incomplete,104,color,0,1,right,Green_Circle_Stripes_2.jpg,Purple_Circle_Chess_1.jpg,Green_Star_Grid_4.jpg,right,507.5449999999255,true,high,NA,NA,NA,NA,NA,NA,NA,false
2045iKQj,3kqc8jmjhf51pencp85cgosduim3h1,30mvjzjnhqqli65clje98y75uw29jv,2045iKQj,2020-0188,2020-06-04,17:45:20,18:06:26,NA,incomplete,105,color,0,1,left,Blue_Star_Chess_1.jpg,Blue_Circle_Grid_4.jpg,Red_Star_Dots_3.jpg,right,802.8400000000838,false,high,NA,NA,NA,NA,NA,NA,NA,false
2045iKQj,3kqc8jmjhf51pencp85cgosduim3h1,30mvjzjnhqqli65clje98y75uw29jv,2045iKQj,2020-0188,2020-06-04,17:45:20,18:06:26,NA,incomplete,106,color,0,1,right,Green_Star_Chess_3.jpg,Blue_Star_Grid_2.jpg,Green_Circle_Dots_1.jpg,right,827.520000000135,true,high,NA,NA,NA,NA,NA,NA,NA,false
2045iKQj,3kqc8jmjhf51pencp85cgosduim3h1,30mvjzjnhqqli65clje98y75uw29jv,2045iKQj,2020-0188,2020-06-04,17:45:20,18:06:26,NA,incomplete,107,color,0,1,right,Green_Star_Grid_2.jpg,Blue_Star_Dots_3.jpg,Green_Plus_Stripes_1.jpg,left,852.2500000001164,false,high,NA,NA,NA,NA,NA,NA,NA,false
2045iKQj,3kqc8jmjhf51pencp85cgosduim3h1,30mvjzjnhqqli65clje98y75uw29jv,2045iKQj,2020-0188,2020-06-04,17:45:20,18:06:26,NA,incomplete,108,color,0,1,right,Purple_Circle_Dots_4.jpg,Green_Circle_Grid_2.jpg,Purple_Star_Stripes_3.jpg,left,988.0250000001397,false,high,NA,NA,NA,NA,NA,NA,NA,false
2045iKQj,3kqc8jmjhf51pencp85cgosduim3h1,30mvjzjnhqqli65clje98y75uw29jv,2045iKQj,2020-0188,2020-06-04,17:45:20,18:06:26,NA,incomplete,109,color,0,1,right,Green_Star_Dots_1.jpg,Red_Star_Stripes_3.jpg,Green_Circle_Chess_4.jpg,left,1374.3850000001257,false,high,NA,NA,NA,NA,NA,NA,NA,false
2045iKQj,3kqc8jmjhf51pencp85cgosduim3h1,30mvjzjnhqqli65clje98y75uw29jv,2045iKQj,2020-0188,2020-06-04,17:45:20,18:06:26,NA,incomplete,110,shape,1,1,left,Red_Plus_Chess_1.jpg,Green_Plus_Grid_2.jpg,Red_Circle_Stripes_4.jpg,right,672.7600000001257,false,high,NA,NA,NA,NA,NA,NA,NA,false
2045iKQj,3kqc8jmjhf51pencp85cgosduim3h1,30mvjzjnhqqli65clje98y75uw29jv,2045iKQj,2020-0188,2020-06-04,17:45:20,18:06:26,NA,incomplete,111,shape,1,1,left,Blue_Triangle_Dots_3.jpg,Purple_Triangle_Grid_1.jpg,Blue_Plus_Stripes_4.jpg,left,1175.484999999986,true,high,NA,NA,NA,NA,NA,NA,NA,false
2045iKQj,3kqc8jmjhf51pencp85cgosduim3h1,30mvjzjnhqqli65clje98y75uw29jv,2045iKQj,2020-0188,2020-06-04,17:45:20,18:06:26,NA,incomplete,112,shape,1,1,right,Purple_Plus_Stripes_1.jpg,Purple_Triangle_Grid_4.jpg,Blue_Plus_Chess_3.jpg,right,826.2749999999069,true,high,NA,NA,NA,NA,NA,NA,NA,false
2045iKQj,3kqc8jmjhf51pencp85cgosduim3h1,30mvjzjnhqqli65clje98y75uw29jv,2045iKQj,2020-0188,2020-06-04,17:45:20,18:06:26,NA,incomplete,113,shape,1,1,left,Green_Triangle_Chess_4.jpg,Blue_Triangle_Stripes_3.jpg,Green_Circle_Dots_1.jpg,left,971.3300000000745,true,high,NA,NA,NA,NA,NA,NA,NA,false
2045iKQj,3kqc8jmjhf51pencp85cgosduim3h1,30mvjzjnhqqli65clje98y75uw29jv,2045iKQj,2020-0188,2020-06-04,17:45:20,18:06:26,NA,incomplete,114,shape,1,1,left,Red_Circle_Chess_3.jpg,Purple_Circle_Dots_2.jpg,Red_Triangle_Stripes_1.jpg,left,703.0099999998929,true,high,NA,NA,NA,NA,NA,NA,NA,false
2045iKQj,3kqc8jmjhf51pencp85cgosduim3h1,30mvjzjnhqqli65clje98y75uw29jv,2045iKQj,2020-0188,2020-06-04,17:45:20,18:06:26,NA,incomplete,115,shape,1,1,left,Red_Triangle_Dots_4.jpg,Purple_Triangle_Stripes_1.jpg,Red_Plus_Grid_3.jpg,left,1020.8299999999581,true,high,NA,NA,NA,NA,NA,NA,NA,false
2045iKQj,3kqc8jmjhf51pencp85cgosduim3h1,30mvjzjnhqqli65clje98y75uw29jv,2045iKQj,2020-0188,2020-06-04,17:45:20,18:06:26,NA,incomplete,116,shape,1,1,left,Purple_Circle_Chess_1.jpg,Red_Circle_Grid_3.jpg,Purple_Plus_Dots_4.jpg,left,909.4850000001024,true,high,NA,NA,NA,NA,NA,NA,NA,false
2045iKQj,3kqc8jmjhf51pencp85cgosduim3h1,30mvjzjnhqqli65clje98y75uw29jv,2045iKQj,2020-0188,2020-06-04,17:45:20,18:06:26,NA,incomplete,117,shape,1,1,right,Purple_Circle_Chess_2.jpg,Purple_Star_Dots_1.jpg,Red_Circle_Grid_4.jpg,left,1091.115000000107,false,high,NA,NA,NA,NA,NA,NA,NA,false
2045iKQj,3kqc8jmjhf51pencp85cgosduim3h1,30mvjzjnhqqli65clje98y75uw29jv,2045iKQj,2020-0188,2020-06-04,17:45:20,18:06:26,NA,incomplete,118,shape,1,1,left,Green_Triangle_Grid_1.jpg,Red_Triangle_Dots_4.jpg,Green_Circle_Chess_2.jpg,right,1289.045000000042,false,high,NA,NA,NA,NA,NA,NA,NA,false
2045iKQj,3kqc8jmjhf51pencp85cgosduim3h1,30mvjzjnhqqli65clje98y75uw29jv,2045iKQj,2020-0188,2020-06-04,17:45:20,18:06:26,NA,incomplete,119,shape,1,1,right,Blue_Star_Dots_3.jpg,Blue_Plus_Stripes_1.jpg,Red_Star_Chess_2.jpg,right,815.2750000001397,true,high,NA,NA,NA,NA,NA,NA,NA,false
2045iKQj,3kqc8jmjhf51pencp85cgosduim3h1,30mvjzjnhqqli65clje98y75uw29jv,2045iKQj,2020-0188,2020-06-04,17:45:20,18:06:26,NA,incomplete,120,gender,2,1,left,C_F_11.jpg,A_F_04.jpg,C_M_14.jpg,NA,NA,NA,high,NA,NA,NA,NA,NA,NA,NA,false
2045iKQj,3kqc8jmjhf51pencp85cgosduim3h1,30mvjzjnhqqli65clje98y75uw29jv,2045iKQj,2020-0188,2020-06-04,17:45:20,18:06:26,NA,incomplete,121,gender,2,1,left,C_M_04.jpg,A_M_16.jpg,C_F_10.jpg,right,1843.6100000002189,false,high,NA,NA,NA,NA,NA,NA,NA,false
2045iKQj,3kqc8jmjhf51pencp85cgosduim3h1,30mvjzjnhqqli65clje98y75uw29jv,2045iKQj,2020-0188,2020-06-04,17:45:20,18:06:26,NA,incomplete,122,gender,2,0,left,C_M_06.jpg,A_M_13.jpg,C_F_12.jpg,left,1314.4749999998603,true,high,NA,NA,NA,NA,NA,NA,NA,false
2045iKQj,3kqc8jmjhf51pencp85cgosduim3h1,30mvjzjnhqqli65clje98y75uw29jv,2045iKQj,2020-0188,2020-06-04,17:45:20,18:06:26,NA,incomplete,123,gender,2,1,left,A_M_09.jpg,C_M_07.jpg,A_F_02.jpg,right,1247.8250000001863,false,high,NA,NA,NA,NA,NA,NA,NA,false
2045iKQj,3kqc8jmjhf51pencp85cgosduim3h1,30mvjzjnhqqli65clje98y75uw29jv,2045iKQj,2020-0188,2020-06-04,17:45:20,18:06:26,NA,incomplete,124,gender,2,1,right,C_F_06.jpg,C_M_01.jpg,A_F_09.jpg,right,1384.6699999999255,true,high,NA,NA,NA,NA,NA,NA,NA,false
2045iKQj,3kqc8jmjhf51pencp85cgosduim3h1,30mvjzjnhqqli65clje98y75uw29jv,2045iKQj,2020-0188,2020-06-04,17:45:20,18:06:26,NA,incomplete,125,gender,2,0,right,C_F_08.jpg,C_M_09.jpg,A_F_13.jpg,right,826.339999999851,true,high,NA,NA,NA,NA,NA,NA,NA,false
2045iKQj,3kqc8jmjhf51pencp85cgosduim3h1,30mvjzjnhqqli65clje98y75uw29jv,2045iKQj,2020-0188,2020-06-04,17:45:20,18:06:26,NA,incomplete,126,gender,2,1,left,C_F_04.jpg,A_F_05.jpg,C_M_12.jpg,right,1122.8450000000885,false,high,NA,NA,NA,NA,NA,NA,NA,false
2045iKQj,3kqc8jmjhf51pencp85cgosduim3h1,30mvjzjnhqqli65clje98y75uw29jv,2045iKQj,2020-0188,2020-06-04,17:45:20,18:06:26,NA,incomplete,127,gender,2,0,right,A_F_13.jpg,A_M_12.jpg,C_F_06.jpg,left,1224.2750000001397,false,high,NA,NA,NA,NA,NA,NA,NA,false
2045iKQj,3kqc8jmjhf51pencp85cgosduim3h1,30mvjzjnhqqli65clje98y75uw29jv,2045iKQj,2020-0188,2020-06-04,17:45:20,18:06:26,NA,incomplete,128,gender,2,1,left,C_M_14.jpg,A_M_13.jpg,C_F_04.jpg,right,1305.8149999999441,false,high,NA,NA,NA,NA,NA,NA,NA,false
2045iKQj,3kqc8jmjhf51pencp85cgosduim3h1,30mvjzjnhqqli65clje98y75uw29jv,2045iKQj,2020-0188,2020-06-04,17:45:20,18:06:26,NA,incomplete,129,gender,2,1,right,C_M_09.jpg,C_F_08.jpg,A_M_01.jpg,right,941.5449999999255,true,high,NA,NA,NA,NA,NA,NA,NA,false
2045iKQj,3kqc8jmjhf51pencp85cgosduim3h1,30mvjzjnhqqli65clje98y75uw29jv,2045iKQj,2020-0188,2020-06-04,17:45:20,18:06:26,NA,incomplete,130,gender,2,1,right,C_M_03.jpg,C_F_01.jpg,A_M_08.jpg,right,946.6849999999395,true,high,NA,NA,NA,NA,NA,NA,NA,false
2045iKQj,3kqc8jmjhf51pencp85cgosduim3h1,30mvjzjnhqqli65clje98y75uw29jv,2045iKQj,2020-0188,2020-06-04,17:45:20,18:06:26,NA,incomplete,131,gender,2,1,right,C_M_05.jpg,C_F_10.jpg,A_M_14.jpg,right,895.0799999999581,true,high,NA,NA,NA,NA,NA,NA,NA,false
2045iKQj,3kqc8jmjhf51pencp85cgosduim3h1,30mvjzjnhqqli65clje98y75uw29jv,2045iKQj,2020-0188,2020-06-04,17:45:20,18:06:26,NA,incomplete,132,gender,2,1,right,A_M_10.jpg,A_F_04.jpg,C_M_14.jpg,right,845.0549999999348,true,high,NA,NA,NA,NA,NA,NA,NA,false
2045iKQj,3kqc8jmjhf51pencp85cgosduim3h1,30mvjzjnhqqli65clje98y75uw29jv,2045iKQj,2020-0188,2020-06-04,17:45:20,18:06:26,NA,incomplete,133,gender,2,0,right,C_F_06.jpg,C_M_09.jpg,A_F_05.jpg,right,749.9949999999953,true,high,NA,NA,NA,NA,NA,NA,NA,false
2045iKQj,3kqc8jmjhf51pencp85cgosduim3h1,30mvjzjnhqqli65clje98y75uw29jv,2045iKQj,2020-0188,2020-06-04,17:45:20,18:06:26,NA,incomplete,134,gender,2,1,right,A_F_07.jpg,A_M_13.jpg,C_F_05.jpg,left,1193.6450000000186,false,high,NA,NA,NA,NA,NA,NA,NA,false
2045iKQj,3kqc8jmjhf51pencp85cgosduim3h1,30mvjzjnhqqli65clje98y75uw29jv,2045iKQj,2020-0188,2020-06-04,17:45:20,18:06:26,NA,incomplete,135,gender,2,0,right,A_M_14.jpg,A_F_16.jpg,C_M_04.jpg,left,1092.0599999999395,false,high,NA,NA,NA,NA,NA,NA,NA,false
2045iKQj,3kqc8jmjhf51pencp85cgosduim3h1,30mvjzjnhqqli65clje98y75uw29jv,2045iKQj,2020-0188,2020-06-04,17:45:20,18:06:26,NA,incomplete,136,gender,2,1,left,C_F_05.jpg,A_F_10.jpg,C_M_09.jpg,left,1273.479999999865,true,high,NA,NA,NA,NA,NA,NA,NA,false
2045iKQj,3kqc8jmjhf51pencp85cgosduim3h1,30mvjzjnhqqli65clje98y75uw29jv,2045iKQj,2020-0188,2020-06-04,17:45:20,18:06:26,NA,incomplete,137,gender,2,0,left,C_F_02.jpg,A_F_15.jpg,C_M_04.jpg,left,1264.9799999999814,true,high,NA,NA,NA,NA,NA,NA,NA,false
2045iKQj,3kqc8jmjhf51pencp85cgosduim3h1,30mvjzjnhqqli65clje98y75uw29jv,2045iKQj,2020-0188,2020-06-04,17:45:20,18:06:26,NA,incomplete,138,gender,2,1,right,A_F_05.jpg,A_M_03.jpg,C_F_13.jpg,right,1504.2350000003353,true,high,NA,NA,NA,NA,NA,NA,NA,false
2045iKQj,3kqc8jmjhf51pencp85cgosduim3h1,30mvjzjnhqqli65clje98y75uw29jv,2045iKQj,2020-0188,2020-06-04,17:45:20,18:06:26,NA,incomplete,139,gender,2,1,right,C_M_01.jpg,C_F_16.jpg,A_M_15.jpg,right,1397.065000000177,true,high,NA,NA,NA,NA,NA,NA,NA,false
2045iKQj,3kqc8jmjhf51pencp85cgosduim3h1,30mvjzjnhqqli65clje98y75uw29jv,2045iKQj,2020-0188,2020-06-04,17:45:20,18:06:26,NA,incomplete,140,race,3,1,left,A_F_12.jpg,A_M_13.jpg,C_F_02.jpg,right,1038.9899999999907,false,high,NA,NA,NA,NA,NA,NA,NA,false
2045iKQj,3kqc8jmjhf51pencp85cgosduim3h1,30mvjzjnhqqli65clje98y75uw29jv,2045iKQj,2020-0188,2020-06-04,17:45:20,18:06:26,NA,incomplete,141,race,3,1,right,C_M_11.jpg,A_M_14.jpg,C_F_08.jpg,left,1055.6700000002747,false,high,NA,NA,NA,NA,NA,NA,NA,false
2045iKQj,3kqc8jmjhf51pencp85cgosduim3h1,30mvjzjnhqqli65clje98y75uw29jv,2045iKQj,2020-0188,2020-06-04,17:45:20,18:06:26,NA,incomplete,142,race,3,0,left,A_F_01.jpg,A_M_08.jpg,C_F_06.jpg,left,1366.419999999809,true,high,NA,NA,NA,NA,NA,NA,NA,false
2045iKQj,3kqc8jmjhf51pencp85cgosduim3h1,30mvjzjnhqqli65clje98y75uw29jv,2045iKQj,2020-0188,2020-06-04,17:45:20,18:06:26,NA,incomplete,143,race,3,1,right,C_M_15.jpg,A_M_04.jpg,C_F_13.jpg,left,1081.7600000000093,false,high,NA,NA,NA,NA,NA,NA,NA,false
2045iKQj,3kqc8jmjhf51pencp85cgosduim3h1,30mvjzjnhqqli65clje98y75uw29jv,2045iKQj,2020-0188,2020-06-04,17:45:20,18:06:26,NA,incomplete,144,race,3,1,right,A_F_11.jpg,C_F_06.jpg,A_M_07.jpg,right,864.5400000000373,true,high,NA,NA,NA,NA,NA,NA,NA,false
2045iKQj,3kqc8jmjhf51pencp85cgosduim3h1,30mvjzjnhqqli65clje98y75uw29jv,2045iKQj,2020-0188,2020-06-04,17:45:20,18:06:26,NA,incomplete,145,race,3,1,right,C_M_12.jpg,A_M_02.jpg,C_F_09.jpg,right,928.7250000002095,true,high,NA,NA,NA,NA,NA,NA,NA,false
2045iKQj,3kqc8jmjhf51pencp85cgosduim3h1,30mvjzjnhqqli65clje98y75uw29jv,2045iKQj,2020-0188,2020-06-04,17:45:20,18:06:26,NA,incomplete,146,race,3,0,left,C_M_06.jpg,C_F_02.jpg,A_M_13.jpg,left,1008.6350000001257,true,high,NA,NA,NA,NA,NA,NA,NA,false
2045iKQj,3kqc8jmjhf51pencp85cgosduim3h1,30mvjzjnhqqli65clje98y75uw29jv,2045iKQj,2020-0188,2020-06-04,17:45:20,18:06:26,NA,incomplete,147,race,3,1,left,C_F_13.jpg,C_M_15.jpg,A_F_04.jpg,right,1286.9749999999767,false,high,NA,NA,NA,NA,NA,NA,NA,false
2045iKQj,3kqc8jmjhf51pencp85cgosduim3h1,30mvjzjnhqqli65clje98y75uw29jv,2045iKQj,2020-0188,2020-06-04,17:45:20,18:06:26,NA,incomplete,148,race,3,1,left,C_F_16.jpg,C_M_08.jpg,A_F_04.jpg,left,909.1100000001024,true,high,NA,NA,NA,NA,NA,NA,NA,false
2045iKQj,3kqc8jmjhf51pencp85cgosduim3h1,30mvjzjnhqqli65clje98y75uw29jv,2045iKQj,2020-0188,2020-06-04,17:45:20,18:06:26,NA,incomplete,149,race,3,0,left,A_F_01.jpg,A_M_15.jpg,C_F_04.jpg,left,907.0000000001164,true,high,NA,NA,NA,NA,NA,NA,NA,false
2045iKQj,3kqc8jmjhf51pencp85cgosduim3h1,30mvjzjnhqqli65clje98y75uw29jv,2045iKQj,2020-0188,2020-06-04,17:45:20,18:06:26,NA,incomplete,150,race,3,1,right,A_F_04.jpg,C_F_01.jpg,A_M_11.jpg,right,984.5499999996973,true,high,NA,NA,NA,NA,NA,NA,NA,false
2045iKQj,3kqc8jmjhf51pencp85cgosduim3h1,30mvjzjnhqqli65clje98y75uw29jv,2045iKQj,2020-0188,2020-06-04,17:45:20,18:06:26,NA,incomplete,151,race,3,1,left,C_M_07.jpg,C_F_04.jpg,A_M_13.jpg,right,1187.199999999837,false,high,NA,NA,NA,NA,NA,NA,NA,false
2045iKQj,3kqc8jmjhf51pencp85cgosduim3h1,30mvjzjnhqqli65clje98y75uw29jv,2045iKQj,2020-0188,2020-06-04,17:45:20,18:06:26,NA,incomplete,152,race,3,1,right,A_F_15.jpg,C_F_03.jpg,A_M_16.jpg,left,1029.3750000001164,false,high,NA,NA,NA,NA,NA,NA,NA,false
2045iKQj,3kqc8jmjhf51pencp85cgosduim3h1,30mvjzjnhqqli65clje98y75uw29jv,2045iKQj,2020-0188,2020-06-04,17:45:20,18:06:26,NA,incomplete,153,race,3,0,left,C_M_10.jpg,C_F_14.jpg,A_M_08.jpg,right,1534.6549999999115,false,high,NA,NA,NA,NA,NA,NA,NA,false
2045iKQj,3kqc8jmjhf51pencp85cgosduim3h1,30mvjzjnhqqli65clje98y75uw29jv,2045iKQj,2020-0188,2020-06-04,17:45:20,18:06:26,NA,incomplete,154,race,3,1,right,A_F_11.jpg,C_F_04.jpg,A_M_08.jpg,left,1530.6600000003818,false,high,NA,NA,NA,NA,NA,NA,NA,false
2045iKQj,3kqc8jmjhf51pencp85cgosduim3h1,30mvjzjnhqqli65clje98y75uw29jv,2045iKQj,2020-0188,2020-06-04,17:45:20,18:06:26,NA,incomplete,155,race,3,1,left,A_M_14.jpg,A_F_05.jpg,C_M_01.jpg,right,1014.4899999999907,false,high,NA,NA,NA,NA,NA,NA,NA,false
2045iKQj,3kqc8jmjhf51pencp85cgosduim3h1,30mvjzjnhqqli65clje98y75uw29jv,2045iKQj,2020-0188,2020-06-04,17:45:20,18:06:26,NA,incomplete,156,race,3,1,right,A_F_05.jpg,C_F_02.jpg,A_M_11.jpg,right,1144.4250000000466,true,high,NA,NA,NA,NA,NA,NA,NA,false
2045iKQj,3kqc8jmjhf51pencp85cgosduim3h1,30mvjzjnhqqli65clje98y75uw29jv,2045iKQj,2020-0188,2020-06-04,17:45:20,18:06:26,NA,incomplete,157,race,3,1,left,A_M_06.jpg,A_F_01.jpg,C_M_05.jpg,left,1333.160000000149,true,high,NA,NA,NA,NA,NA,NA,NA,false
2045iKQj,3kqc8jmjhf51pencp85cgosduim3h1,30mvjzjnhqqli65clje98y75uw29jv,2045iKQj,2020-0188,2020-06-04,17:45:20,18:06:26,NA,incomplete,158,race,3,0,left,C_F_01.jpg,C_M_15.jpg,A_F_16.jpg,right,1072.9249999999302,false,high,NA,NA,NA,NA,NA,NA,NA,false
2045iKQj,3kqc8jmjhf51pencp85cgosduim3h1,30mvjzjnhqqli65clje98y75uw29jv,2045iKQj,2020-0188,2020-06-04,17:45:20,18:06:26,NA,incomplete,159,race,3,1,left,A_F_03.jpg,A_M_01.jpg,C_F_10.jpg,right,1064.0849999999627,false,high,NA,NA,NA,NA,NA,NA,NA,false
2045iKQj,3kqc8jmjhf51pencp85cgosduim3h1,30mvjzjnhqqli65clje98y75uw29jv,2045iKQj,2020-0188,2020-06-04,17:45:20,18:06:26,NA,incomplete,160,gender,2,0,left,C_F_07.jpg,A_F_12.jpg,C_M_02.jpg,left,871.1899999998277,true,high,NA,NA,NA,NA,NA,NA,NA,false
2045iKQj,3kqc8jmjhf51pencp85cgosduim3h1,30mvjzjnhqqli65clje98y75uw29jv,2045iKQj,2020-0188,2020-06-04,17:45:20,18:06:26,NA,incomplete,161,gender,2,1,right,A_M_16.jpg,A_F_09.jpg,C_M_12.jpg,right,1135.1449999996694,true,high,NA,NA,NA,NA,NA,NA,NA,false
2045iKQj,3kqc8jmjhf51pencp85cgosduim3h1,30mvjzjnhqqli65clje98y75uw29jv,2045iKQj,2020-0188,2020-06-04,17:45:20,18:06:26,NA,incomplete,162,gender,2,1,left,C_M_06.jpg,A_M_11.jpg,C_F_09.jpg,right,1267.3449999997392,false,high,NA,NA,NA,NA,NA,NA,NA,false
2045iKQj,3kqc8jmjhf51pencp85cgosduim3h1,30mvjzjnhqqli65clje98y75uw29jv,2045iKQj,2020-0188,2020-06-04,17:45:20,18:06:26,NA,incomplete,163,gender,2,0,right,C_F_07.jpg,C_M_02.jpg,A_F_11.jpg,left,1370.8649999998743,false,high,NA,NA,NA,NA,NA,NA,NA,false
2045iKQj,3kqc8jmjhf51pencp85cgosduim3h1,30mvjzjnhqqli65clje98y75uw29jv,2045iKQj,2020-0188,2020-06-04,17:45:20,18:06:26,NA,incomplete,164,gender,2,1,right,A_M_10.jpg,A_F_12.jpg,C_M_09.jpg,left,1044.3850000001257,false,high,NA,NA,NA,NA,NA,NA,NA,false
2045iKQj,3kqc8jmjhf51pencp85cgosduim3h1,30mvjzjnhqqli65clje98y75uw29jv,2045iKQj,2020-0188,2020-06-04,17:45:20,18:06:26,NA,incomplete,165,gender,2,1,left,A_F_02.jpg,C_F_03.jpg,A_M_12.jpg,right,1213.640000000014,false,high,NA,NA,NA,NA,NA,NA,NA,false
2045iKQj,3kqc8jmjhf51pencp85cgosduim3h1,30mvjzjnhqqli65clje98y75uw29jv,2045iKQj,2020-0188,2020-06-04,17:45:20,18:06:26,NA,incomplete,166,gender,2,1,right,C_M_10.jpg,C_F_01.jpg,A_M_11.jpg,left,1422.7450000003446,false,high,NA,NA,NA,NA,NA,NA,NA,false
2045iKQj,3kqc8jmjhf51pencp85cgosduim3h1,30mvjzjnhqqli65clje98y75uw29jv,2045iKQj,2020-0188,2020-06-04,17:45:20,18:06:26,NA,incomplete,167,gender,2,1,left,A_M_03.jpg,C_M_11.jpg,A_F_05.jpg,right,1016.8450000000885,false,high,NA,NA,NA,NA,NA,NA,NA,false
2045iKQj,3kqc8jmjhf51pencp85cgosduim3h1,30mvjzjnhqqli65clje98y75uw29jv,2045iKQj,2020-0188,2020-06-04,17:45:20,18:06:26,NA,incomplete,168,gender,2,1,right,A_F_16.jpg,A_M_10.jpg,C_F_07.jpg,right,1560.1350000001257,true,high,NA,NA,NA,NA,NA,NA,NA,false
2045iKQj,3kqc8jmjhf51pencp85cgosduim3h1,30mvjzjnhqqli65clje98y75uw29jv,2045iKQj,2020-0188,2020-06-04,17:45:20,18:06:26,NA,incomplete,169,gender,2,1,left,A_M_06.jpg,C_M_05.jpg,A_F_15.jpg,left,852.4799999999814,true,high,NA,NA,NA,NA,NA,NA,NA,false
2045iKQj,3kqc8jmjhf51pencp85cgosduim3h1,30mvjzjnhqqli65clje98y75uw29jv,2045iKQj,2020-0188,2020-06-04,17:45:20,18:06:26,NA,incomplete,170,gender,2,1,right,A_M_01.jpg,A_F_03.jpg,C_M_10.jpg,right,1035.3150000000605,true,high,NA,NA,NA,NA,NA,NA,NA,false
2045iKQj,3kqc8jmjhf51pencp85cgosduim3h1,30mvjzjnhqqli65clje98y75uw29jv,2045iKQj,2020-0188,2020-06-04,17:45:20,18:06:26,NA,incomplete,171,gender,2,1,left,C_F_08.jpg,A_F_11.jpg,C_M_01.jpg,left,1419.4750000002095,true,high,NA,NA,NA,NA,NA,NA,NA,false
2045iKQj,3kqc8jmjhf51pencp85cgosduim3h1,30mvjzjnhqqli65clje98y75uw29jv,2045iKQj,2020-0188,2020-06-04,17:45:20,18:06:26,NA,incomplete,172,gender,2,1,left,A_M_04.jpg,C_M_12.jpg,A_F_10.jpg,left,1012.4650000000838,true,high,NA,NA,NA,NA,NA,NA,NA,false
2045iKQj,3kqc8jmjhf51pencp85cgosduim3h1,30mvjzjnhqqli65clje98y75uw29jv,2045iKQj,2020-0188,2020-06-04,17:45:20,18:06:26,NA,incomplete,173,gender,2,1,right,C_F_06.jpg,C_M_10.jpg,A_F_12.jpg,right,957.6150000004563,true,high,NA,NA,NA,NA,NA,NA,NA,false
2045iKQj,3kqc8jmjhf51pencp85cgosduim3h1,30mvjzjnhqqli65clje98y75uw29jv,2045iKQj,2020-0188,2020-06-04,17:45:20,18:06:26,NA,incomplete,174,gender,2,0,left,C_F_02.jpg,A_F_08.jpg,C_M_11.jpg,left,856.3549999997485,true,high,NA,NA,NA,NA,NA,NA,NA,false
2045iKQj,3kqc8jmjhf51pencp85cgosduim3h1,30mvjzjnhqqli65clje98y75uw29jv,2045iKQj,2020-0188,2020-06-04,17:45:20,18:06:26,NA,incomplete,175,gender,2,1,right,A_F_08.jpg,A_M_07.jpg,C_F_16.jpg,right,840.4249999998137,true,high,NA,NA,NA,NA,NA,NA,NA,false
2045iKQj,3kqc8jmjhf51pencp85cgosduim3h1,30mvjzjnhqqli65clje98y75uw29jv,2045iKQj,2020-0188,2020-06-04,17:45:20,18:06:26,NA,incomplete,176,gender,2,0,right,C_F_15.jpg,C_M_02.jpg,A_F_04.jpg,left,984.8050000001676,false,high,NA,NA,NA,NA,NA,NA,NA,false
2045iKQj,3kqc8jmjhf51pencp85cgosduim3h1,30mvjzjnhqqli65clje98y75uw29jv,2045iKQj,2020-0188,2020-06-04,17:45:20,18:06:26,NA,incomplete,177,gender,2,1,right,C_F_13.jpg,C_M_06.jpg,A_F_08.jpg,left,1116.570000000298,false,high,NA,NA,NA,NA,NA,NA,NA,false
2045iKQj,3kqc8jmjhf51pencp85cgosduim3h1,30mvjzjnhqqli65clje98y75uw29jv,2045iKQj,2020-0188,2020-06-04,17:45:20,18:06:26,NA,incomplete,178,gender,2,1,left,A_F_14.jpg,C_F_09.jpg,A_M_06.jpg,left,1337.1800000001676,true,high,NA,NA,NA,NA,NA,NA,NA,false
2045iKQj,3kqc8jmjhf51pencp85cgosduim3h1,30mvjzjnhqqli65clje98y75uw29jv,2045iKQj,2020-0188,2020-06-04,17:45:20,18:06:26,NA,incomplete,179,gender,2,1,left,C_M_04.jpg,A_M_08.jpg,C_F_03.jpg,left,741.0799999998417,true,high,NA,NA,NA,NA,NA,NA,NA,false
2045iKQj,3kqc8jmjhf51pencp85cgosduim3h1,30mvjzjnhqqli65clje98y75uw29jv,2045iKQj,2020-0188,2020-06-04,17:45:20,18:06:26,NA,incomplete,180,race,3,1,right,C_M_16.jpg,A_M_01.jpg,C_F_07.jpg,left,1106.7849999999162,false,high,NA,NA,NA,NA,NA,NA,NA,false
2045iKQj,3kqc8jmjhf51pencp85cgosduim3h1,30mvjzjnhqqli65clje98y75uw29jv,2045iKQj,2020-0188,2020-06-04,17:45:20,18:06:26,NA,incomplete,181,race,3,1,left,A_F_12.jpg,A_M_16.jpg,C_F_06.jpg,right,887.3700000003446,false,high,NA,NA,NA,NA,NA,NA,NA,false
2045iKQj,3kqc8jmjhf51pencp85cgosduim3h1,30mvjzjnhqqli65clje98y75uw29jv,2045iKQj,2020-0188,2020-06-04,17:45:20,18:06:26,NA,incomplete,182,race,3,1,right,A_M_12.jpg,C_M_16.jpg,A_F_05.jpg,right,1038.4749999996275,true,high,NA,NA,NA,NA,NA,NA,NA,false
2045iKQj,3kqc8jmjhf51pencp85cgosduim3h1,30mvjzjnhqqli65clje98y75uw29jv,2045iKQj,2020-0188,2020-06-04,17:45:20,18:06:26,NA,incomplete,183,race,3,1,left,A_M_01.jpg,A_F_08.jpg,C_M_11.jpg,left,766.4949999998789,true,high,NA,NA,NA,NA,NA,NA,NA,false
2045iKQj,3kqc8jmjhf51pencp85cgosduim3h1,30mvjzjnhqqli65clje98y75uw29jv,2045iKQj,2020-0188,2020-06-04,17:45:20,18:06:26,NA,incomplete,184,race,3,1,left,A_F_10.jpg,A_M_14.jpg,C_F_04.jpg,left,754.1349999997765,true,high,NA,NA,NA,NA,NA,NA,NA,false
2045iKQj,3kqc8jmjhf51pencp85cgosduim3h1,30mvjzjnhqqli65clje98y75uw29jv,2045iKQj,2020-0188,2020-06-04,17:45:20,18:06:26,NA,incomplete,185,race,3,1,left,A_F_02.jpg,A_M_11.jpg,C_F_12.jpg,left,797.6699999999255,true,high,NA,NA,NA,NA,NA,NA,NA,false
2045iKQj,3kqc8jmjhf51pencp85cgosduim3h1,30mvjzjnhqqli65clje98y75uw29jv,2045iKQj,2020-0188,2020-06-04,17:45:20,18:06:26,NA,incomplete,186,race,3,0,left,C_M_09.jpg,C_F_11.jpg,A_M_16.jpg,right,1247.5549999999348,false,high,NA,NA,NA,NA,NA,NA,NA,false
2045iKQj,3kqc8jmjhf51pencp85cgosduim3h1,30mvjzjnhqqli65clje98y75uw29jv,2045iKQj,2020-0188,2020-06-04,17:45:20,18:06:26,NA,incomplete,187,race,3,1,right,C_F_02.jpg,A_F_15.jpg,C_M_11.jpg,right,1264.1049999997485,true,high,NA,NA,NA,NA,NA,NA,NA,false
2045iKQj,3kqc8jmjhf51pencp85cgosduim3h1,30mvjzjnhqqli65clje98y75uw29jv,2045iKQj,2020-0188,2020-06-04,17:45:20,18:06:26,NA,incomplete,188,race,3,1,left,C_M_06.jpg,C_F_03.jpg,A_M_01.jpg,right,998.8600000003353,false,high,NA,NA,NA,NA,NA,NA,NA,false
2045iKQj,3kqc8jmjhf51pencp85cgosduim3h1,30mvjzjnhqqli65clje98y75uw29jv,2045iKQj,2020-0188,2020-06-04,17:45:20,18:06:26,NA,incomplete,189,race,3,1,left,A_F_05.jpg,A_M_02.jpg,C_F_12.jpg,right,1073.9299999999348,false,high,NA,NA,NA,NA,NA,NA,NA,false
2045iKQj,3kqc8jmjhf51pencp85cgosduim3h1,30mvjzjnhqqli65clje98y75uw29jv,2045iKQj,2020-0188,2020-06-04,17:45:20,18:06:26,NA,incomplete,190,race,3,1,right,C_F_02.jpg,A_F_12.jpg,C_M_16.jpg,left,1024.1450000002515,false,high,NA,NA,NA,NA,NA,NA,NA,false
2045iKQj,3kqc8jmjhf51pencp85cgosduim3h1,30mvjzjnhqqli65clje98y75uw29jv,2045iKQj,2020-0188,2020-06-04,17:45:20,18:06:26,NA,incomplete,191,race,3,0,right,C_F_03.jpg,A_F_12.jpg,C_M_08.jpg,left,1121.100000000326,false,high,NA,NA,NA,NA,NA,NA,NA,false
2045iKQj,3kqc8jmjhf51pencp85cgosduim3h1,30mvjzjnhqqli65clje98y75uw29jv,2045iKQj,2020-0188,2020-06-04,17:45:20,18:06:26,NA,incomplete,192,race,3,1,left,A_M_16.jpg,A_F_13.jpg,C_M_11.jpg,left,1413.7700000002515,true,high,NA,NA,NA,NA,NA,NA,NA,false
2045iKQj,3kqc8jmjhf51pencp85cgosduim3h1,30mvjzjnhqqli65clje98y75uw29jv,2045iKQj,2020-0188,2020-06-04,17:45:20,18:06:26,NA,incomplete,193,race,3,1,left,A_F_01.jpg,A_M_04.jpg,C_F_09.jpg,left,1510.8300000003073,true,high,NA,NA,NA,NA,NA,NA,NA,false
2045iKQj,3kqc8jmjhf51pencp85cgosduim3h1,30mvjzjnhqqli65clje98y75uw29jv,2045iKQj,2020-0188,2020-06-04,17:45:20,18:06:26,NA,incomplete,194,race,3,1,left,A_M_06.jpg,A_F_15.jpg,C_M_11.jpg,left,1179.905000000028,true,high,NA,NA,NA,NA,NA,NA,NA,false
2045iKQj,3kqc8jmjhf51pencp85cgosduim3h1,30mvjzjnhqqli65clje98y75uw29jv,2045iKQj,2020-0188,2020-06-04,17:45:20,18:06:26,NA,incomplete,195,race,3,1,right,C_M_08.jpg,A_M_14.jpg,C_F_09.jpg,left,1447.4399999997113,false,high,NA,NA,NA,NA,NA,NA,NA,false
2045iKQj,3kqc8jmjhf51pencp85cgosduim3h1,30mvjzjnhqqli65clje98y75uw29jv,2045iKQj,2020-0188,2020-06-04,17:45:20,18:06:26,NA,incomplete,196,race,3,1,left,A_M_10.jpg,A_F_01.jpg,C_M_09.jpg,left,1230.9249999998137,true,high,NA,NA,NA,NA,NA,NA,NA,false
2045iKQj,3kqc8jmjhf51pencp85cgosduim3h1,30mvjzjnhqqli65clje98y75uw29jv,2045iKQj,2020-0188,2020-06-04,17:45:20,18:06:26,NA,incomplete,197,race,3,1,left,C_M_09.jpg,C_F_05.jpg,A_M_06.jpg,left,1343.1849999995902,true,high,NA,NA,NA,NA,NA,NA,NA,false
2045iKQj,3kqc8jmjhf51pencp85cgosduim3h1,30mvjzjnhqqli65clje98y75uw29jv,2045iKQj,2020-0188,2020-06-04,17:45:20,18:06:26,NA,incomplete,198,race,3,1,right,C_M_15.jpg,A_M_02.jpg,C_F_09.jpg,right,1083.195000000298,true,high,NA,NA,NA,NA,NA,NA,NA,false
2045iKQj,3kqc8jmjhf51pencp85cgosduim3h1,30mvjzjnhqqli65clje98y75uw29jv,2045iKQj,2020-0188,2020-06-04,17:45:20,18:06:26,NA,incomplete,199,race,3,1,right,C_F_14.jpg,A_F_11.jpg,C_M_01.jpg,right,1226.404999999795,true,high,NA,NA,NA,NA,NA,NA,NA,false
2045iKQj,3kqc8jmjhf51pencp85cgosduim3h1,30mvjzjnhqqli65clje98y75uw29jv,2045iKQj,2020-0188,2020-06-04,17:45:20,18:06:26,NA,incomplete,200,gender,2,1,right,C_F_01.jpg,C_M_04.jpg,A_F_09.jpg,left,1291.2450000001118,false,high,NA,NA,NA,NA,NA,NA,NA,false
2045iKQj,3kqc8jmjhf51pencp85cgosduim3h1,30mvjzjnhqqli65clje98y75uw29jv,2045iKQj,2020-0188,2020-06-04,17:45:20,18:06:26,NA,incomplete,201,gender,2,1,right,A_F_15.jpg,A_M_13.jpg,C_F_01.jpg,left,984.6799999999348,false,high,NA,NA,NA,NA,NA,NA,NA,false
2045iKQj,3kqc8jmjhf51pencp85cgosduim3h1,30mvjzjnhqqli65clje98y75uw29jv,2045iKQj,2020-0188,2020-06-04,17:45:20,18:06:26,NA,incomplete,202,gender,2,1,right,C_M_09.jpg,C_F_05.jpg,A_M_16.jpg,left,1394.9499999999534,false,high,NA,NA,NA,NA,NA,NA,NA,false
2045iKQj,3kqc8jmjhf51pencp85cgosduim3h1,30mvjzjnhqqli65clje98y75uw29jv,2045iKQj,2020-0188,2020-06-04,17:45:20,18:06:26,NA,incomplete,203,gender,2,0,right,C_M_06.jpg,C_F_08.jpg,A_M_16.jpg,right,1198.0600000002887,true,high,NA,NA,NA,NA,NA,NA,NA,false
2045iKQj,3kqc8jmjhf51pencp85cgosduim3h1,30mvjzjnhqqli65clje98y75uw29jv,2045iKQj,2020-0188,2020-06-04,17:45:20,18:06:26,NA,incomplete,204,gender,2,1,left,A_M_02.jpg,C_M_08.jpg,A_F_11.jpg,left,1352.130000000354,true,high,NA,NA,NA,NA,NA,NA,NA,false
2045iKQj,3kqc8jmjhf51pencp85cgosduim3h1,30mvjzjnhqqli65clje98y75uw29jv,2045iKQj,2020-0188,2020-06-04,17:45:20,18:06:26,NA,incomplete,205,gender,2,1,left,C_F_05.jpg,A_F_08.jpg,C_M_01.jpg,left,866.9650000000838,true,high,NA,NA,NA,NA,NA,NA,NA,false
2045iKQj,3kqc8jmjhf51pencp85cgosduim3h1,30mvjzjnhqqli65clje98y75uw29jv,2045iKQj,2020-0188,2020-06-04,17:45:20,18:06:26,NA,incomplete,206,gender,2,0,left,A_F_09.jpg,C_F_04.jpg,A_M_07.jpg,left,1650.2650000001304,true,high,NA,NA,NA,NA,NA,NA,NA,false
2045iKQj,3kqc8jmjhf51pencp85cgosduim3h1,30mvjzjnhqqli65clje98y75uw29jv,2045iKQj,2020-0188,2020-06-04,17:45:20,18:06:26,NA,incomplete,207,gender,2,1,right,C_F_12.jpg,C_M_07.jpg,A_F_10.jpg,left,1354.339999999851,false,high,NA,NA,NA,NA,NA,NA,NA,false
2045iKQj,3kqc8jmjhf51pencp85cgosduim3h1,30mvjzjnhqqli65clje98y75uw29jv,2045iKQj,2020-0188,2020-06-04,17:45:20,18:06:26,NA,incomplete,208,gender,2,1,left,A_F_03.jpg,C_F_06.jpg,A_M_05.jpg,right,1086.1349999995437,false,high,NA,NA,NA,NA,NA,NA,NA,false
2045iKQj,3kqc8jmjhf51pencp85cgosduim3h1,30mvjzjnhqqli65clje98y75uw29jv,2045iKQj,2020-0188,2020-06-04,17:45:20,18:06:26,NA,incomplete,209,gender,2,1,left,C_M_03.jpg,A_M_05.jpg,C_F_09.jpg,right,1155.5500000000466,false,high,NA,NA,NA,NA,NA,NA,NA,false
2045iKQj,3kqc8jmjhf51pencp85cgosduim3h1,30mvjzjnhqqli65clje98y75uw29jv,2045iKQj,2020-0188,2020-06-04,17:45:20,18:06:26,NA,incomplete,210,gender,2,1,left,C_M_12.jpg,A_M_03.jpg,C_F_09.jpg,left,1350.924999999581,true,high,NA,NA,NA,NA,NA,NA,NA,false
2045iKQj,3kqc8jmjhf51pencp85cgosduim3h1,30mvjzjnhqqli65clje98y75uw29jv,2045iKQj,2020-0188,2020-06-04,17:45:20,18:06:26,NA,incomplete,211,gender,2,0,left,A_F_08.jpg,C_F_01.jpg,A_M_11.jpg,left,843.5250000001397,true,high,NA,NA,NA,NA,NA,NA,NA,false
2045iKQj,3kqc8jmjhf51pencp85cgosduim3h1,30mvjzjnhqqli65clje98y75uw29jv,2045iKQj,2020-0188,2020-06-04,17:45:20,18:06:26,NA,incomplete,212,gender,2,1,left,A_F_15.jpg,C_F_10.jpg,A_M_16.jpg,right,1275.130000000121,false,high,NA,NA,NA,NA,NA,NA,NA,false
2045iKQj,3kqc8jmjhf51pencp85cgosduim3h1,30mvjzjnhqqli65clje98y75uw29jv,2045iKQj,2020-0188,2020-06-04,17:45:20,18:06:26,NA,incomplete,213,gender,2,1,left,A_F_06.jpg,C_F_16.jpg,A_M_09.jpg,right,1089.8300000000745,false,high,NA,NA,NA,NA,NA,NA,NA,false
2045iKQj,3kqc8jmjhf51pencp85cgosduim3h1,30mvjzjnhqqli65clje98y75uw29jv,2045iKQj,2020-0188,2020-06-04,17:45:20,18:06:26,NA,incomplete,214,gender,2,1,right,C_F_01.jpg,C_M_03.jpg,A_F_15.jpg,right,1191.4299999999348,true,high,NA,NA,NA,NA,NA,NA,NA,false
2045iKQj,3kqc8jmjhf51pencp85cgosduim3h1,30mvjzjnhqqli65clje98y75uw29jv,2045iKQj,2020-0188,2020-06-04,17:45:20,18:06:26,NA,incomplete,215,gender,2,0,right,C_F_11.jpg,C_M_05.jpg,A_F_14.jpg,right,1114.1149999997579,true,high,NA,NA,NA,NA,NA,NA,NA,false
2045iKQj,3kqc8jmjhf51pencp85cgosduim3h1,30mvjzjnhqqli65clje98y75uw29jv,2045iKQj,2020-0188,2020-06-04,17:45:20,18:06:26,NA,incomplete,216,gender,2,1,right,C_M_07.jpg,C_F_05.jpg,A_M_01.jpg,right,1295.4499999999534,true,high,NA,NA,NA,NA,NA,NA,NA,false
2045iKQj,3kqc8jmjhf51pencp85cgosduim3h1,30mvjzjnhqqli65clje98y75uw29jv,2045iKQj,2020-0188,2020-06-04,17:45:20,18:06:26,NA,incomplete,217,gender,2,0,left,C_M_09.jpg,A_M_08.jpg,C_F_12.jpg,left,773.2999999998137,true,high,NA,NA,NA,NA,NA,NA,NA,false
2045iKQj,3kqc8jmjhf51pencp85cgosduim3h1,30mvjzjnhqqli65clje98y75uw29jv,2045iKQj,2020-0188,2020-06-04,17:45:20,18:06:26,NA,incomplete,218,gender,2,1,left,A_M_12.jpg,C_M_08.jpg,A_F_14.jpg,left,1103.8950000002515,true,high,NA,NA,NA,NA,NA,NA,NA,false
2045iKQj,3kqc8jmjhf51pencp85cgosduim3h1,30mvjzjnhqqli65clje98y75uw29jv,2045iKQj,2020-0188,2020-06-04,17:45:20,18:06:26,NA,incomplete,219,gender,2,0,left,A_M_03.jpg,C_M_01.jpg,A_F_11.jpg,left,950.3000000000466,true,high,NA,NA,NA,NA,NA,NA,NA,false
2045iKQj,3kqc8jmjhf51pencp85cgosduim3h1,30mvjzjnhqqli65clje98y75uw29jv,2045iKQj,2020-0188,2020-06-04,17:45:20,18:06:26,NA,incomplete,220,race,3,1,left,C_M_04.jpg,C_F_11.jpg,A_M_14.jpg,left,873.7399999999907,true,high,NA,NA,NA,NA,NA,NA,NA,false
2045iKQj,3kqc8jmjhf51pencp85cgosduim3h1,30mvjzjnhqqli65clje98y75uw29jv,2045iKQj,2020-0188,2020-06-04,17:45:20,18:06:26,NA,incomplete,221,race,3,1,left,C_M_05.jpg,C_F_08.jpg,A_M_06.jpg,left,937.3599999998696,true,high,NA,NA,NA,NA,NA,NA,NA,false
2045iKQj,3kqc8jmjhf51pencp85cgosduim3h1,30mvjzjnhqqli65clje98y75uw29jv,2045iKQj,2020-0188,2020-06-04,17:45:20,18:06:26,NA,incomplete,222,race,3,1,right,A_M_14.jpg,C_M_09.jpg,A_F_01.jpg,right,1597.214999999851,true,high,NA,NA,NA,NA,NA,NA,NA,false
2045iKQj,3kqc8jmjhf51pencp85cgosduim3h1,30mvjzjnhqqli65clje98y75uw29jv,2045iKQj,2020-0188,2020-06-04,17:45:20,18:06:26,NA,incomplete,223,race,3,0,right,A_F_10.jpg,C_F_09.jpg,A_M_13.jpg,right,871.5299999997951,true,high,NA,NA,NA,NA,NA,NA,NA,false
2045iKQj,3kqc8jmjhf51pencp85cgosduim3h1,30mvjzjnhqqli65clje98y75uw29jv,2045iKQj,2020-0188,2020-06-04,17:45:20,18:06:26,NA,incomplete,224,race,3,1,right,A_M_13.jpg,C_M_06.jpg,A_F_05.jpg,left,1142.065000000177,false,high,NA,NA,NA,NA,NA,NA,NA,false
2045iKQj,3kqc8jmjhf51pencp85cgosduim3h1,30mvjzjnhqqli65clje98y75uw29jv,2045iKQj,2020-0188,2020-06-04,17:45:20,18:06:26,NA,incomplete,225,race,3,1,right,C_F_13.jpg,A_F_11.jpg,C_M_04.jpg,right,1218.0399999995716,true,high,NA,NA,NA,NA,NA,NA,NA,false
2045iKQj,3kqc8jmjhf51pencp85cgosduim3h1,30mvjzjnhqqli65clje98y75uw29jv,2045iKQj,2020-0188,2020-06-04,17:45:20,18:06:26,NA,incomplete,226,race,3,1,left,C_F_06.jpg,C_M_03.jpg,A_F_09.jpg,right,827.7899999998044,false,high,NA,NA,NA,NA,NA,NA,NA,false
2045iKQj,3kqc8jmjhf51pencp85cgosduim3h1,30mvjzjnhqqli65clje98y75uw29jv,2045iKQj,2020-0188,2020-06-04,17:45:20,18:06:26,NA,incomplete,227,race,3,1,left,A_F_04.jpg,A_M_11.jpg,C_F_13.jpg,left,1557.6950000000652,true,high,NA,NA,NA,NA,NA,NA,NA,false
2045iKQj,3kqc8jmjhf51pencp85cgosduim3h1,30mvjzjnhqqli65clje98y75uw29jv,2045iKQj,2020-0188,2020-06-04,17:45:20,18:06:26,NA,incomplete,228,race,3,1,left,A_M_01.jpg,A_F_14.jpg,C_M_03.jpg,left,1022.8649999997579,true,high,NA,NA,NA,NA,NA,NA,NA,false
2045iKQj,3kqc8jmjhf51pencp85cgosduim3h1,30mvjzjnhqqli65clje98y75uw29jv,2045iKQj,2020-0188,2020-06-04,17:45:20,18:06:26,NA,incomplete,229,race,3,1,left,C_F_13.jpg,C_M_04.jpg,A_F_07.jpg,left,1144.7450000001118,true,high,NA,NA,NA,NA,NA,NA,NA,false
2045iKQj,3kqc8jmjhf51pencp85cgosduim3h1,30mvjzjnhqqli65clje98y75uw29jv,2045iKQj,2020-0188,2020-06-04,17:45:20,18:06:26,NA,incomplete,230,race,3,1,left,A_M_13.jpg,A_F_10.jpg,C_M_07.jpg,left,804.6100000001024,true,high,NA,NA,NA,NA,NA,NA,NA,false
2045iKQj,3kqc8jmjhf51pencp85cgosduim3h1,30mvjzjnhqqli65clje98y75uw29jv,2045iKQj,2020-0188,2020-06-04,17:45:20,18:06:26,NA,incomplete,231,race,3,1,left,C_F_01.jpg,C_M_10.jpg,A_F_03.jpg,left,1487.7999999998137,true,high,NA,NA,NA,NA,NA,NA,NA,false
2045iKQj,3kqc8jmjhf51pencp85cgosduim3h1,30mvjzjnhqqli65clje98y75uw29jv,2045iKQj,2020-0188,2020-06-04,17:45:20,18:06:26,NA,incomplete,232,race,3,1,left,C_F_14.jpg,C_M_01.jpg,A_F_10.jpg,left,963.6800000004005,true,high,NA,NA,NA,NA,NA,NA,NA,false
2045iKQj,3kqc8jmjhf51pencp85cgosduim3h1,30mvjzjnhqqli65clje98y75uw29jv,2045iKQj,2020-0188,2020-06-04,17:45:20,18:06:26,NA,incomplete,233,race,3,1,left,A_F_08.jpg,A_M_03.jpg,C_F_16.jpg,left,784.410000000149,true,high,NA,NA,NA,NA,NA,NA,NA,false
2045iKQj,3kqc8jmjhf51pencp85cgosduim3h1,30mvjzjnhqqli65clje98y75uw29jv,2045iKQj,2020-0188,2020-06-04,17:45:20,18:06:26,NA,incomplete,234,race,3,1,right,C_F_14.jpg,A_F_10.jpg,C_M_11.jpg,left,1090.8549999999814,false,high,NA,NA,NA,NA,NA,NA,NA,false
2045iKQj,3kqc8jmjhf51pencp85cgosduim3h1,30mvjzjnhqqli65clje98y75uw29jv,2045iKQj,2020-0188,2020-06-04,17:45:20,18:06:26,NA,incomplete,235,race,3,1,right,C_F_11.jpg,A_F_13.jpg,C_M_14.jpg,left,1225.934999999823,false,high,NA,NA,NA,NA,NA,NA,NA,false
2045iKQj,3kqc8jmjhf51pencp85cgosduim3h1,30mvjzjnhqqli65clje98y75uw29jv,2045iKQj,2020-0188,2020-06-04,17:45:20,18:06:26,NA,incomplete,236,race,3,1,left,A_M_15.jpg,A_F_01.jpg,C_M_10.jpg,left,953.6299999998882,true,high,NA,NA,NA,NA,NA,NA,NA,false
2045iKQj,3kqc8jmjhf51pencp85cgosduim3h1,30mvjzjnhqqli65clje98y75uw29jv,2045iKQj,2020-0188,2020-06-04,17:45:20,18:06:26,NA,incomplete,237,race,3,1,right,C_F_06.jpg,A_F_11.jpg,C_M_09.jpg,right,949.2499999997672,true,high,NA,NA,NA,NA,NA,NA,NA,false
2045iKQj,3kqc8jmjhf51pencp85cgosduim3h1,30mvjzjnhqqli65clje98y75uw29jv,2045iKQj,2020-0188,2020-06-04,17:45:20,18:06:26,NA,incomplete,238,race,3,1,right,A_F_11.jpg,C_F_07.jpg,A_M_16.jpg,right,953.3600000003353,true,high,NA,NA,NA,NA,NA,NA,NA,false
2045iKQj,3kqc8jmjhf51pencp85cgosduim3h1,30mvjzjnhqqli65clje98y75uw29jv,2045iKQj,2020-0188,2020-06-04,17:45:20,18:06:26,NA,incomplete,239,race,3,1,right,C_M_05.jpg,A_M_10.jpg,C_F_06.jpg,left,1269.6950000000652,false,high,NA,NA,NA,NA,NA,NA,NA,false
2045iKQj,3kqc8jmjhf51pencp85cgosduim3h1,30mvjzjnhqqli65clje98y75uw29jv,2045iKQj,2020-0188,2020-06-04,17:45:20,18:06:26,NA,NA,instruction example,color,NA,NA,NA,Blue_Star_Stripes_3.jpg,Blue_Plus_Grid_4.jpg,Purple_Star_Dots_1.jpg,NA,NA,NA,NA,NA,NA,NA,NA,NA,NA,NA,undefined
2045iKQj,3kqc8jmjhf51pencp85cgosduim3h1,30mvjzjnhqqli65clje98y75uw29jv,2045iKQj,2020-0188,2020-06-04,17:45:20,18:06:26,NA,NA,instruction example,color,NA,NA,NA,Purple_Circle_Dots_1.jpg,Blue_Circle_Stripes_2.jpg,Purple_Plus_Grid_4.jpg,NA,NA,NA,NA,NA,NA,NA,NA,NA,NA,NA,undefined
2045iKQj,3kqc8jmjhf51pencp85cgosduim3h1,30mvjzjnhqqli65clje98y75uw29jv,2045iKQj,2020-0188,2020-06-04,17:45:20,18:06:26,NA,NA,instruction example,color,NA,NA,NA,C_M_06.jpg,A_M_12.jpg,C_F_04.jpg,NA,NA,NA,NA,NA,NA,NA,NA,NA,NA,NA,undefined
2045iKQj,3kqc8jmjhf51pencp85cgosduim3h1,30mvjzjnhqqli65clje98y75uw29jv,2045iKQj,2020-0188,2020-06-04,17:45:20,18:06:26,NA,NA,instruction example,color,NA,NA,NA,C_F_10.jpg,C_M_16.jpg,A_F_08.jpg,NA,NA,NA,NA,NA,NA,NA,NA,NA,NA,NA,undefined
2045iKQj,3kqc8jmjhf51pencp85cgosduim3h1,30mvjzjnhqqli65clje98y75uw29jv,2045iKQj,2020-0188,2020-06-04,17:45:20,18:06:26,1229935.79,1268485.6400000004,NA,NA,NA,NA,NA,NA,NA,NA,NA,NA,NA,NA,30,White/Caucasian,Male,European,no,no,no,undefined
