workerId,hitId,assignmentId,subject,studyid,exp_date,exp_start,exp_end,time_start,time_end,trial,type,sequence,reward_validity,answer,image_top,image_left,image_right,response,response_time,response_acc,volatility,practice
CggCTwZT,31mcue39cnznpis152nuvogcfi93g2,317hq483ib5acxp04bceeynpm3vinm,CggCTwZT,2020-0188,2020-06-04,10:39:28,11:15:30,NA,incomplete,0,color,0,1,right,Blue_Triangle_Dots_3.jpg,Red_Triangle_Grid_1.jpg,Blue_Star_Stripes_2.jpg,right,981.389999971725,true,NA,true
CggCTwZT,31mcue39cnznpis152nuvogcfi93g2,317hq483ib5acxp04bceeynpm3vinm,CggCTwZT,2020-0188,2020-06-04,10:39:28,11:15:30,NA,incomplete,1,color,0,0,right,Green_Plus_Grid_4.jpg,Purple_Plus_Dots_3.jpg,Green_Star_Chess_2.jpg,right,713.3400000166148,true,NA,true
CggCTwZT,31mcue39cnznpis152nuvogcfi93g2,317hq483ib5acxp04bceeynpm3vinm,CggCTwZT,2020-0188,2020-06-04,10:39:28,11:15:30,NA,incomplete,2,color,0,1,left,Green_Plus_Grid_3.jpg,Green_Star_Stripes_1.jpg,Purple_Plus_Dots_4.jpg,left,801.7650000401773,true,NA,true
CggCTwZT,31mcue39cnznpis152nuvogcfi93g2,317hq483ib5acxp04bceeynpm3vinm,CggCTwZT,2020-0188,2020-06-04,10:39:28,11:15:30,NA,incomplete,3,color,0,1,left,Red_Plus_Stripes_2.jpg,Red_Star_Dots_3.jpg,Purple_Plus_Grid_1.jpg,left,1862.395000003744,true,NA,true
CggCTwZT,31mcue39cnznpis152nuvogcfi93g2,317hq483ib5acxp04bceeynpm3vinm,CggCTwZT,2020-0188,2020-06-04,10:39:28,11:15:30,NA,incomplete,4,color,0,1,left,Purple_Triangle_Stripes_3.jpg,Purple_Plus_Grid_2.jpg,Red_Triangle_Dots_4.jpg,left,1596.5599999763072,true,NA,true
CggCTwZT,31mcue39cnznpis152nuvogcfi93g2,317hq483ib5acxp04bceeynpm3vinm,CggCTwZT,2020-0188,2020-06-04,10:39:28,11:15:30,NA,incomplete,5,color,0,1,left,Blue_Triangle_Grid_1.jpg,Blue_Plus_Dots_3.jpg,Purple_Triangle_Stripes_2.jpg,left,1150.3500000108033,true,NA,true
CggCTwZT,31mcue39cnznpis152nuvogcfi93g2,317hq483ib5acxp04bceeynpm3vinm,CggCTwZT,2020-0188,2020-06-04,10:39:28,11:15:30,NA,incomplete,6,color,0,1,left,Blue_Triangle_Dots_3.jpg,Blue_Plus_Stripes_2.jpg,Green_Triangle_Chess_4.jpg,left,851.5349999652244,true,NA,true
CggCTwZT,31mcue39cnznpis152nuvogcfi93g2,317hq483ib5acxp04bceeynpm3vinm,CggCTwZT,2020-0188,2020-06-04,10:39:28,11:15:30,NA,incomplete,7,color,0,1,right,Purple_Plus_Chess_3.jpg,Red_Plus_Stripes_2.jpg,Purple_Triangle_Dots_4.jpg,right,990.1299999910407,true,NA,true
CggCTwZT,31mcue39cnznpis152nuvogcfi93g2,317hq483ib5acxp04bceeynpm3vinm,CggCTwZT,2020-0188,2020-06-04,10:39:28,11:15:30,NA,incomplete,8,color,0,1,left,Purple_Circle_Dots_4.jpg,Purple_Plus_Grid_1.jpg,Red_Circle_Stripes_3.jpg,left,1154.7150000114925,true,NA,true
CggCTwZT,31mcue39cnznpis152nuvogcfi93g2,317hq483ib5acxp04bceeynpm3vinm,CggCTwZT,2020-0188,2020-06-04,10:39:28,11:15:30,NA,incomplete,9,color,0,0,right,Red_Plus_Stripes_4.jpg,Purple_Plus_Grid_1.jpg,Red_Circle_Chess_2.jpg,right,1278.6899999482557,true,NA,true
CggCTwZT,31mcue39cnznpis152nuvogcfi93g2,317hq483ib5acxp04bceeynpm3vinm,CggCTwZT,2020-0188,2020-06-04,10:39:28,11:15:30,NA,incomplete,10,color,0,1,right,Blue_Triangle_Dots_1.jpg,Red_Triangle_Chess_4.jpg,Blue_Star_Grid_2.jpg,right,1150.794999965001,true,NA,true
CggCTwZT,31mcue39cnznpis152nuvogcfi93g2,317hq483ib5acxp04bceeynpm3vinm,CggCTwZT,2020-0188,2020-06-04,10:39:28,11:15:30,NA,incomplete,11,color,0,1,left,Green_Circle_Chess_3.jpg,Green_Plus_Dots_4.jpg,Purple_Circle_Stripes_2.jpg,left,875.6750000175089,true,NA,true
CggCTwZT,31mcue39cnznpis152nuvogcfi93g2,317hq483ib5acxp04bceeynpm3vinm,CggCTwZT,2020-0188,2020-06-04,10:39:28,11:15:30,NA,incomplete,12,color,0,1,left,Blue_Triangle_Stripes_1.jpg,Blue_Circle_Grid_4.jpg,Green_Triangle_Dots_3.jpg,left,972.7149999816902,true,NA,true
CggCTwZT,31mcue39cnznpis152nuvogcfi93g2,317hq483ib5acxp04bceeynpm3vinm,CggCTwZT,2020-0188,2020-06-04,10:39:28,11:15:30,NA,incomplete,13,color,0,0,left,Green_Triangle_Chess_2.jpg,Green_Circle_Stripes_3.jpg,Blue_Triangle_Dots_1.jpg,left,1073.0750000220723,true,NA,true
CggCTwZT,31mcue39cnznpis152nuvogcfi93g2,317hq483ib5acxp04bceeynpm3vinm,CggCTwZT,2020-0188,2020-06-04,10:39:28,11:15:30,NA,incomplete,14,color,0,1,left,Red_Star_Grid_2.jpg,Red_Plus_Chess_4.jpg,Blue_Star_Dots_3.jpg,left,1130.2600000053644,true,NA,true
CggCTwZT,31mcue39cnznpis152nuvogcfi93g2,317hq483ib5acxp04bceeynpm3vinm,CggCTwZT,2020-0188,2020-06-04,10:39:28,11:15:30,NA,incomplete,15,color,0,1,right,Purple_Star_Grid_2.jpg,Green_Star_Stripes_3.jpg,Purple_Triangle_Dots_1.jpg,right,1183.7299999897368,true,NA,true
CggCTwZT,31mcue39cnznpis152nuvogcfi93g2,317hq483ib5acxp04bceeynpm3vinm,CggCTwZT,2020-0188,2020-06-04,10:39:28,11:15:30,NA,incomplete,16,color,0,1,right,Purple_Circle_Dots_4.jpg,Green_Circle_Grid_3.jpg,Purple_Plus_Stripes_1.jpg,right,1548.6000000382774,true,NA,true
CggCTwZT,31mcue39cnznpis152nuvogcfi93g2,317hq483ib5acxp04bceeynpm3vinm,CggCTwZT,2020-0188,2020-06-04,10:39:28,11:15:30,NA,incomplete,17,color,0,1,right,Green_Triangle_Stripes_1.jpg,Red_Triangle_Dots_2.jpg,Green_Star_Chess_3.jpg,right,935.8650000067428,true,NA,true
CggCTwZT,31mcue39cnznpis152nuvogcfi93g2,317hq483ib5acxp04bceeynpm3vinm,CggCTwZT,2020-0188,2020-06-04,10:39:28,11:15:30,NA,incomplete,18,color,0,1,right,Red_Circle_Grid_3.jpg,Blue_Circle_Chess_2.jpg,Red_Star_Dots_1.jpg,right,966.8999999994412,true,NA,true
CggCTwZT,31mcue39cnznpis152nuvogcfi93g2,317hq483ib5acxp04bceeynpm3vinm,CggCTwZT,2020-0188,2020-06-04,10:39:28,11:15:30,NA,incomplete,19,color,0,1,right,Purple_Circle_Chess_4.jpg,Red_Circle_Stripes_2.jpg,Purple_Star_Dots_1.jpg,right,1283.9249999960884,true,NA,true
CggCTwZT,31mcue39cnznpis152nuvogcfi93g2,317hq483ib5acxp04bceeynpm3vinm,CggCTwZT,2020-0188,2020-06-04,10:39:28,11:15:30,NA,incomplete,20,shape,1,1,left,Red_Circle_Chess_1.jpg,Blue_Circle_Grid_2.jpg,Red_Plus_Dots_3.jpg,left,1459.9900000030175,true,NA,true
CggCTwZT,31mcue39cnznpis152nuvogcfi93g2,317hq483ib5acxp04bceeynpm3vinm,CggCTwZT,2020-0188,2020-06-04,10:39:28,11:15:30,NA,incomplete,21,shape,1,1,right,Green_Star_Chess_2.jpg,Green_Triangle_Grid_4.jpg,Red_Star_Dots_3.jpg,right,1090.9300000057556,true,NA,true
CggCTwZT,31mcue39cnznpis152nuvogcfi93g2,317hq483ib5acxp04bceeynpm3vinm,CggCTwZT,2020-0188,2020-06-04,10:39:28,11:15:30,NA,incomplete,22,shape,1,1,left,Blue_Triangle_Chess_1.jpg,Red_Triangle_Grid_3.jpg,Blue_Star_Dots_2.jpg,left,906.8800000241026,true,NA,true
CggCTwZT,31mcue39cnznpis152nuvogcfi93g2,317hq483ib5acxp04bceeynpm3vinm,CggCTwZT,2020-0188,2020-06-04,10:39:28,11:15:30,NA,incomplete,23,shape,1,1,right,Red_Triangle_Chess_1.jpg,Red_Star_Grid_4.jpg,Blue_Triangle_Stripes_3.jpg,right,1074.41999996081,true,NA,true
CggCTwZT,31mcue39cnznpis152nuvogcfi93g2,317hq483ib5acxp04bceeynpm3vinm,CggCTwZT,2020-0188,2020-06-04,10:39:28,11:15:30,NA,incomplete,24,shape,1,1,left,Green_Circle_Dots_1.jpg,Purple_Circle_Stripes_4.jpg,Green_Star_Chess_2.jpg,left,1258.7100000237115,true,NA,true
CggCTwZT,31mcue39cnznpis152nuvogcfi93g2,317hq483ib5acxp04bceeynpm3vinm,CggCTwZT,2020-0188,2020-06-04,10:39:28,11:15:30,NA,incomplete,25,shape,1,1,left,Purple_Triangle_Chess_3.jpg,Blue_Triangle_Dots_2.jpg,Purple_Star_Stripes_4.jpg,left,1258.7099999655038,true,NA,true
CggCTwZT,31mcue39cnznpis152nuvogcfi93g2,317hq483ib5acxp04bceeynpm3vinm,CggCTwZT,2020-0188,2020-06-04,10:39:28,11:15:30,NA,incomplete,26,shape,1,0,right,Purple_Circle_Chess_4.jpg,Purple_Star_Grid_3.jpg,Green_Circle_Dots_2.jpg,right,1043.1649999809451,true,NA,true
CggCTwZT,31mcue39cnznpis152nuvogcfi93g2,317hq483ib5acxp04bceeynpm3vinm,CggCTwZT,2020-0188,2020-06-04,10:39:28,11:15:30,NA,incomplete,27,shape,1,1,right,Blue_Plus_Dots_2.jpg,Blue_Circle_Chess_4.jpg,Red_Plus_Grid_1.jpg,right,1004.6899999724701,true,NA,true
CggCTwZT,31mcue39cnznpis152nuvogcfi93g2,317hq483ib5acxp04bceeynpm3vinm,CggCTwZT,2020-0188,2020-06-04,10:39:28,11:15:30,NA,incomplete,28,shape,1,0,right,Red_Plus_Grid_4.jpg,Red_Triangle_Chess_1.jpg,Purple_Plus_Stripes_3.jpg,left,960.239999985788,false,NA,true
CggCTwZT,31mcue39cnznpis152nuvogcfi93g2,317hq483ib5acxp04bceeynpm3vinm,CggCTwZT,2020-0188,2020-06-04,10:39:28,11:15:30,NA,incomplete,29,shape,1,1,left,Purple_Circle_Chess_3.jpg,Green_Circle_Grid_1.jpg,Purple_Plus_Dots_2.jpg,left,933.4399999934249,true,NA,true
CggCTwZT,31mcue39cnznpis152nuvogcfi93g2,317hq483ib5acxp04bceeynpm3vinm,CggCTwZT,2020-0188,2020-06-04,10:39:28,11:15:30,NA,incomplete,30,shape,1,0,right,Purple_Star_Dots_3.jpg,Purple_Circle_Chess_2.jpg,Red_Star_Grid_1.jpg,right,836.5250000497326,true,NA,true
CggCTwZT,31mcue39cnznpis152nuvogcfi93g2,317hq483ib5acxp04bceeynpm3vinm,CggCTwZT,2020-0188,2020-06-04,10:39:28,11:15:30,NA,incomplete,31,shape,1,1,right,Red_Triangle_Chess_1.jpg,Red_Star_Stripes_2.jpg,Green_Triangle_Grid_3.jpg,right,1159.189999976661,true,NA,true
CggCTwZT,31mcue39cnznpis152nuvogcfi93g2,317hq483ib5acxp04bceeynpm3vinm,CggCTwZT,2020-0188,2020-06-04,10:39:28,11:15:30,NA,incomplete,32,shape,1,1,right,Purple_Plus_Dots_1.jpg,Purple_Star_Chess_2.jpg,Red_Plus_Stripes_4.jpg,right,1171.909999975469,true,NA,true
CggCTwZT,31mcue39cnznpis152nuvogcfi93g2,317hq483ib5acxp04bceeynpm3vinm,CggCTwZT,2020-0188,2020-06-04,10:39:28,11:15:30,NA,incomplete,33,shape,1,1,left,Blue_Circle_Chess_3.jpg,Green_Circle_Stripes_2.jpg,Blue_Star_Grid_1.jpg,left,1048.075000056997,true,NA,true
CggCTwZT,31mcue39cnznpis152nuvogcfi93g2,317hq483ib5acxp04bceeynpm3vinm,CggCTwZT,2020-0188,2020-06-04,10:39:28,11:15:30,NA,incomplete,34,shape,1,1,right,Green_Circle_Dots_3.jpg,Green_Star_Grid_1.jpg,Purple_Circle_Chess_4.jpg,right,801.8600000068545,true,NA,true
CggCTwZT,31mcue39cnznpis152nuvogcfi93g2,317hq483ib5acxp04bceeynpm3vinm,CggCTwZT,2020-0188,2020-06-04,10:39:28,11:15:30,NA,incomplete,35,shape,1,1,left,Purple_Circle_Grid_2.jpg,Red_Circle_Dots_3.jpg,Purple_Star_Stripes_4.jpg,left,942.3749999841675,true,NA,true
CggCTwZT,31mcue39cnznpis152nuvogcfi93g2,317hq483ib5acxp04bceeynpm3vinm,CggCTwZT,2020-0188,2020-06-04,10:39:28,11:15:30,NA,incomplete,36,shape,1,0,right,Red_Triangle_Dots_4.jpg,Red_Circle_Chess_3.jpg,Green_Triangle_Stripes_1.jpg,right,828.4850000054576,true,NA,true
CggCTwZT,31mcue39cnznpis152nuvogcfi93g2,317hq483ib5acxp04bceeynpm3vinm,CggCTwZT,2020-0188,2020-06-04,10:39:28,11:15:30,NA,incomplete,37,shape,1,0,right,Green_Triangle_Grid_1.jpg,Green_Circle_Stripes_4.jpg,Blue_Triangle_Dots_3.jpg,right,991.9099999824539,true,NA,true
CggCTwZT,31mcue39cnznpis152nuvogcfi93g2,317hq483ib5acxp04bceeynpm3vinm,CggCTwZT,2020-0188,2020-06-04,10:39:28,11:15:30,NA,incomplete,38,shape,1,1,left,Blue_Triangle_Grid_3.jpg,Red_Triangle_Dots_2.jpg,Blue_Star_Chess_4.jpg,left,1251.5150000108406,true,NA,true
CggCTwZT,31mcue39cnznpis152nuvogcfi93g2,317hq483ib5acxp04bceeynpm3vinm,CggCTwZT,2020-0188,2020-06-04,10:39:28,11:15:30,NA,incomplete,39,shape,1,1,left,Green_Star_Dots_4.jpg,Blue_Star_Stripes_3.jpg,Green_Circle_Grid_2.jpg,left,1220.5449999892153,true,NA,true
CggCTwZT,31mcue39cnznpis152nuvogcfi93g2,317hq483ib5acxp04bceeynpm3vinm,CggCTwZT,2020-0188,2020-06-04,10:39:28,11:15:30,NA,incomplete,0,color,0,1,left,Green_Triangle_Stripes_1.jpg,Green_Star_Chess_3.jpg,Purple_Triangle_Dots_4.jpg,left,1763.3999999961816,true,low,false
CggCTwZT,31mcue39cnznpis152nuvogcfi93g2,317hq483ib5acxp04bceeynpm3vinm,CggCTwZT,2020-0188,2020-06-04,10:39:28,11:15:30,NA,incomplete,1,color,0,1,right,Purple_Plus_Stripes_3.jpg,Red_Plus_Chess_1.jpg,Purple_Triangle_Grid_2.jpg,right,1134.1099999845028,true,low,false
CggCTwZT,31mcue39cnznpis152nuvogcfi93g2,317hq483ib5acxp04bceeynpm3vinm,CggCTwZT,2020-0188,2020-06-04,10:39:28,11:15:30,NA,incomplete,2,color,0,1,left,Blue_Star_Chess_3.jpg,Blue_Circle_Dots_1.jpg,Green_Star_Stripes_2.jpg,left,716.0699999658391,true,low,false
CggCTwZT,31mcue39cnznpis152nuvogcfi93g2,317hq483ib5acxp04bceeynpm3vinm,CggCTwZT,2020-0188,2020-06-04,10:39:28,11:15:30,NA,incomplete,3,color,0,1,left,Purple_Star_Dots_3.jpg,Purple_Circle_Stripes_2.jpg,Blue_Star_Chess_1.jpg,left,1100.3749999799766,true,low,false
CggCTwZT,31mcue39cnznpis152nuvogcfi93g2,317hq483ib5acxp04bceeynpm3vinm,CggCTwZT,2020-0188,2020-06-04,10:39:28,11:15:30,NA,incomplete,4,color,0,1,left,Green_Star_Dots_1.jpg,Green_Circle_Grid_4.jpg,Purple_Star_Stripes_2.jpg,left,1259.5450000371784,true,low,false
CggCTwZT,31mcue39cnznpis152nuvogcfi93g2,317hq483ib5acxp04bceeynpm3vinm,CggCTwZT,2020-0188,2020-06-04,10:39:28,11:15:30,NA,incomplete,5,color,0,0,right,Purple_Plus_Dots_4.jpg,Blue_Plus_Stripes_2.jpg,Purple_Circle_Chess_3.jpg,right,1069.275000016205,true,low,false
CggCTwZT,31mcue39cnznpis152nuvogcfi93g2,317hq483ib5acxp04bceeynpm3vinm,CggCTwZT,2020-0188,2020-06-04,10:39:28,11:15:30,NA,incomplete,6,color,0,0,left,Red_Triangle_Stripes_3.jpg,Red_Plus_Chess_4.jpg,Purple_Triangle_Dots_1.jpg,left,780.88499995647,true,low,false
CggCTwZT,31mcue39cnznpis152nuvogcfi93g2,317hq483ib5acxp04bceeynpm3vinm,CggCTwZT,2020-0188,2020-06-04,10:39:28,11:15:30,NA,incomplete,7,color,0,1,right,Blue_Circle_Grid_3.jpg,Purple_Circle_Chess_2.jpg,Blue_Triangle_Dots_4.jpg,left,922.2350000054576,false,low,false
CggCTwZT,31mcue39cnznpis152nuvogcfi93g2,317hq483ib5acxp04bceeynpm3vinm,CggCTwZT,2020-0188,2020-06-04,10:39:28,11:15:30,NA,incomplete,8,color,0,1,left,Purple_Circle_Dots_3.jpg,Purple_Triangle_Grid_4.jpg,Red_Circle_Chess_2.jpg,left,1361.6000000038184,true,low,false
CggCTwZT,31mcue39cnznpis152nuvogcfi93g2,317hq483ib5acxp04bceeynpm3vinm,CggCTwZT,2020-0188,2020-06-04,10:39:28,11:15:30,NA,incomplete,9,color,0,1,right,Green_Circle_Grid_1.jpg,Red_Circle_Chess_2.jpg,Green_Star_Stripes_3.jpg,right,716.6549999965355,true,low,false
CggCTwZT,31mcue39cnznpis152nuvogcfi93g2,317hq483ib5acxp04bceeynpm3vinm,CggCTwZT,2020-0188,2020-06-04,10:39:28,11:15:30,NA,incomplete,10,color,0,1,right,Green_Star_Stripes_3.jpg,Purple_Star_Dots_2.jpg,Green_Circle_Chess_1.jpg,right,805.6399999768473,true,low,false
CggCTwZT,31mcue39cnznpis152nuvogcfi93g2,317hq483ib5acxp04bceeynpm3vinm,CggCTwZT,2020-0188,2020-06-04,10:39:28,11:15:30,NA,incomplete,11,color,0,1,right,Purple_Plus_Dots_2.jpg,Blue_Plus_Chess_3.jpg,Purple_Circle_Stripes_4.jpg,right,1201.0100000188686,true,low,false
CggCTwZT,31mcue39cnznpis152nuvogcfi93g2,317hq483ib5acxp04bceeynpm3vinm,CggCTwZT,2020-0188,2020-06-04,10:39:28,11:15:30,NA,incomplete,12,color,0,1,left,Red_Triangle_Chess_1.jpg,Red_Circle_Stripes_3.jpg,Blue_Triangle_Grid_4.jpg,left,980.8649999904446,true,low,false
CggCTwZT,31mcue39cnznpis152nuvogcfi93g2,317hq483ib5acxp04bceeynpm3vinm,CggCTwZT,2020-0188,2020-06-04,10:39:28,11:15:30,NA,incomplete,13,color,0,0,right,Blue_Triangle_Dots_1.jpg,Green_Triangle_Grid_3.jpg,Blue_Circle_Stripes_2.jpg,right,945.9050000295974,true,low,false
CggCTwZT,31mcue39cnznpis152nuvogcfi93g2,317hq483ib5acxp04bceeynpm3vinm,CggCTwZT,2020-0188,2020-06-04,10:39:28,11:15:30,NA,incomplete,14,color,0,1,left,Red_Plus_Grid_1.jpg,Red_Triangle_Dots_3.jpg,Blue_Plus_Stripes_2.jpg,left,1031.5100000007078,true,low,false
CggCTwZT,31mcue39cnznpis152nuvogcfi93g2,317hq483ib5acxp04bceeynpm3vinm,CggCTwZT,2020-0188,2020-06-04,10:39:28,11:15:30,NA,incomplete,15,color,0,0,left,Red_Circle_Dots_1.jpg,Red_Triangle_Grid_4.jpg,Blue_Circle_Chess_2.jpg,left,849.6600000071339,true,low,false
CggCTwZT,31mcue39cnznpis152nuvogcfi93g2,317hq483ib5acxp04bceeynpm3vinm,CggCTwZT,2020-0188,2020-06-04,10:39:28,11:15:30,NA,incomplete,16,color,0,1,right,Blue_Circle_Chess_1.jpg,Green_Circle_Grid_3.jpg,Blue_Star_Stripes_4.jpg,right,756.3150000059977,true,low,false
CggCTwZT,31mcue39cnznpis152nuvogcfi93g2,317hq483ib5acxp04bceeynpm3vinm,CggCTwZT,2020-0188,2020-06-04,10:39:28,11:15:30,NA,incomplete,17,color,0,0,left,Blue_Plus_Stripes_2.jpg,Blue_Circle_Grid_4.jpg,Purple_Plus_Chess_1.jpg,left,1266.3250000332482,true,low,false
CggCTwZT,31mcue39cnznpis152nuvogcfi93g2,317hq483ib5acxp04bceeynpm3vinm,CggCTwZT,2020-0188,2020-06-04,10:39:28,11:15:30,NA,incomplete,18,color,0,0,left,Blue_Plus_Chess_1.jpg,Blue_Star_Grid_4.jpg,Red_Plus_Dots_3.jpg,right,1611.0850000404753,false,low,false
CggCTwZT,31mcue39cnznpis152nuvogcfi93g2,317hq483ib5acxp04bceeynpm3vinm,CggCTwZT,2020-0188,2020-06-04,10:39:28,11:15:30,NA,incomplete,19,color,0,1,left,Green_Circle_Dots_3.jpg,Green_Triangle_Chess_4.jpg,Red_Circle_Grid_1.jpg,left,955.8449999894947,true,low,false
CggCTwZT,31mcue39cnznpis152nuvogcfi93g2,317hq483ib5acxp04bceeynpm3vinm,CggCTwZT,2020-0188,2020-06-04,10:39:28,11:15:30,NA,incomplete,20,color,0,0,right,Purple_Triangle_Stripes_4.jpg,Blue_Triangle_Grid_3.jpg,Purple_Star_Chess_1.jpg,right,1128.8000000058673,true,low,false
CggCTwZT,31mcue39cnznpis152nuvogcfi93g2,317hq483ib5acxp04bceeynpm3vinm,CggCTwZT,2020-0188,2020-06-04,10:39:28,11:15:30,NA,incomplete,21,color,0,0,right,Red_Star_Chess_1.jpg,Purple_Star_Stripes_4.jpg,Red_Plus_Grid_3.jpg,right,862.9400000208989,true,low,false
CggCTwZT,31mcue39cnznpis152nuvogcfi93g2,317hq483ib5acxp04bceeynpm3vinm,CggCTwZT,2020-0188,2020-06-04,10:39:28,11:15:30,NA,incomplete,22,color,0,0,left,Green_Plus_Grid_3.jpg,Green_Triangle_Dots_4.jpg,Blue_Plus_Chess_1.jpg,left,1016.5949999936856,true,low,false
CggCTwZT,31mcue39cnznpis152nuvogcfi93g2,317hq483ib5acxp04bceeynpm3vinm,CggCTwZT,2020-0188,2020-06-04,10:39:28,11:15:30,NA,incomplete,23,color,0,1,right,Red_Triangle_Grid_1.jpg,Purple_Triangle_Chess_3.jpg,Red_Plus_Stripes_2.jpg,right,1757.114999985788,true,low,false
CggCTwZT,31mcue39cnznpis152nuvogcfi93g2,317hq483ib5acxp04bceeynpm3vinm,CggCTwZT,2020-0188,2020-06-04,10:39:28,11:15:30,NA,incomplete,24,color,0,1,right,Red_Plus_Grid_2.jpg,Blue_Plus_Chess_4.jpg,Red_Circle_Stripes_1.jpg,right,1382.709999976214,true,low,false
CggCTwZT,31mcue39cnznpis152nuvogcfi93g2,317hq483ib5acxp04bceeynpm3vinm,CggCTwZT,2020-0188,2020-06-04,10:39:28,11:15:30,NA,incomplete,25,color,0,1,left,Purple_Triangle_Grid_2.jpg,Purple_Star_Dots_3.jpg,Green_Triangle_Chess_1.jpg,left,810.3349999873899,true,low,false
CggCTwZT,31mcue39cnznpis152nuvogcfi93g2,317hq483ib5acxp04bceeynpm3vinm,CggCTwZT,2020-0188,2020-06-04,10:39:28,11:15:30,NA,incomplete,26,color,0,1,right,Red_Circle_Grid_2.jpg,Blue_Circle_Chess_4.jpg,Red_Plus_Dots_3.jpg,right,901.720000023488,true,low,false
CggCTwZT,31mcue39cnznpis152nuvogcfi93g2,317hq483ib5acxp04bceeynpm3vinm,CggCTwZT,2020-0188,2020-06-04,10:39:28,11:15:30,NA,incomplete,27,color,0,1,left,Red_Star_Chess_2.jpg,Red_Circle_Stripes_1.jpg,Blue_Star_Dots_4.jpg,left,1006.8149999715388,true,low,false
CggCTwZT,31mcue39cnznpis152nuvogcfi93g2,317hq483ib5acxp04bceeynpm3vinm,CggCTwZT,2020-0188,2020-06-04,10:39:28,11:15:30,NA,incomplete,28,color,0,1,right,Blue_Plus_Dots_2.jpg,Green_Plus_Grid_1.jpg,Blue_Circle_Stripes_3.jpg,right,825.5549999885261,true,low,false
CggCTwZT,31mcue39cnznpis152nuvogcfi93g2,317hq483ib5acxp04bceeynpm3vinm,CggCTwZT,2020-0188,2020-06-04,10:39:28,11:15:30,NA,incomplete,29,color,0,1,left,Blue_Plus_Grid_2.jpg,Blue_Triangle_Chess_4.jpg,Red_Plus_Dots_1.jpg,left,700.4399999859743,true,low,false
CggCTwZT,31mcue39cnznpis152nuvogcfi93g2,317hq483ib5acxp04bceeynpm3vinm,CggCTwZT,2020-0188,2020-06-04,10:39:28,11:15:30,NA,incomplete,30,shape,1,1,left,Green_Triangle_Grid_1.jpg,Purple_Triangle_Stripes_2.jpg,Green_Plus_Dots_3.jpg,right,701.3199999928474,false,low,false
CggCTwZT,31mcue39cnznpis152nuvogcfi93g2,317hq483ib5acxp04bceeynpm3vinm,CggCTwZT,2020-0188,2020-06-04,10:39:28,11:15:30,NA,incomplete,31,shape,1,1,right,Green_Plus_Chess_2.jpg,Green_Triangle_Dots_4.jpg,Blue_Plus_Grid_1.jpg,left,822.0950000104494,false,low,false
CggCTwZT,31mcue39cnznpis152nuvogcfi93g2,317hq483ib5acxp04bceeynpm3vinm,CggCTwZT,2020-0188,2020-06-04,10:39:28,11:15:30,NA,incomplete,32,shape,1,1,left,Red_Circle_Dots_4.jpg,Blue_Circle_Stripes_1.jpg,Red_Star_Grid_3.jpg,right,1481.9300000090152,false,low,false
CggCTwZT,31mcue39cnznpis152nuvogcfi93g2,317hq483ib5acxp04bceeynpm3vinm,CggCTwZT,2020-0188,2020-06-04,10:39:28,11:15:30,NA,incomplete,33,shape,1,0,left,Blue_Star_Grid_1.jpg,Red_Star_Stripes_3.jpg,Blue_Plus_Chess_4.jpg,left,1488.3699999772944,true,low,false
CggCTwZT,31mcue39cnznpis152nuvogcfi93g2,317hq483ib5acxp04bceeynpm3vinm,CggCTwZT,2020-0188,2020-06-04,10:39:28,11:15:30,NA,incomplete,34,shape,1,1,right,Green_Star_Grid_1.jpg,Green_Plus_Stripes_3.jpg,Red_Star_Chess_2.jpg,left,1151.1850000242703,false,low,false
CggCTwZT,31mcue39cnznpis152nuvogcfi93g2,317hq483ib5acxp04bceeynpm3vinm,CggCTwZT,2020-0188,2020-06-04,10:39:28,11:15:30,NA,incomplete,35,shape,1,1,left,Green_Triangle_Dots_1.jpg,Blue_Triangle_Chess_4.jpg,Green_Plus_Stripes_2.jpg,right,1596.6449999832548,false,low,false
CggCTwZT,31mcue39cnznpis152nuvogcfi93g2,317hq483ib5acxp04bceeynpm3vinm,CggCTwZT,2020-0188,2020-06-04,10:39:28,11:15:30,NA,incomplete,36,shape,1,0,left,Green_Circle_Grid_2.jpg,Purple_Circle_Stripes_3.jpg,Green_Star_Dots_1.jpg,right,1190.7099999953061,false,low,false
CggCTwZT,31mcue39cnznpis152nuvogcfi93g2,317hq483ib5acxp04bceeynpm3vinm,CggCTwZT,2020-0188,2020-06-04,10:39:28,11:15:30,NA,incomplete,37,shape,1,1,left,Red_Star_Dots_1.jpg,Blue_Star_Grid_2.jpg,Red_Circle_Stripes_3.jpg,right,1313.4350000182167,false,low,false
CggCTwZT,31mcue39cnznpis152nuvogcfi93g2,317hq483ib5acxp04bceeynpm3vinm,CggCTwZT,2020-0188,2020-06-04,10:39:28,11:15:30,NA,incomplete,38,shape,1,1,left,Blue_Star_Grid_1.jpg,Red_Star_Chess_4.jpg,Blue_Plus_Stripes_2.jpg,left,831.4149999641813,true,low,false
CggCTwZT,31mcue39cnznpis152nuvogcfi93g2,317hq483ib5acxp04bceeynpm3vinm,CggCTwZT,2020-0188,2020-06-04,10:39:28,11:15:30,NA,incomplete,39,shape,1,1,left,Green_Plus_Dots_3.jpg,Red_Plus_Stripes_2.jpg,Green_Star_Chess_1.jpg,left,1619.074999995064,true,low,false
CggCTwZT,31mcue39cnznpis152nuvogcfi93g2,317hq483ib5acxp04bceeynpm3vinm,CggCTwZT,2020-0188,2020-06-04,10:39:28,11:15:30,NA,incomplete,40,shape,1,1,right,Blue_Star_Chess_4.jpg,Blue_Circle_Grid_3.jpg,Red_Star_Dots_2.jpg,right,925.9600000223145,true,low,false
CggCTwZT,31mcue39cnznpis152nuvogcfi93g2,317hq483ib5acxp04bceeynpm3vinm,CggCTwZT,2020-0188,2020-06-04,10:39:28,11:15:30,NA,incomplete,41,shape,1,1,left,Purple_Triangle_Grid_3.jpg,Blue_Triangle_Chess_1.jpg,Purple_Circle_Dots_2.jpg,left,954.7799999709241,true,low,false
CggCTwZT,31mcue39cnznpis152nuvogcfi93g2,317hq483ib5acxp04bceeynpm3vinm,CggCTwZT,2020-0188,2020-06-04,10:39:28,11:15:30,NA,incomplete,42,shape,1,1,right,Purple_Star_Grid_1.jpg,Purple_Plus_Stripes_2.jpg,Red_Star_Dots_3.jpg,left,975.9350000531413,false,low,false
CggCTwZT,31mcue39cnznpis152nuvogcfi93g2,317hq483ib5acxp04bceeynpm3vinm,CggCTwZT,2020-0188,2020-06-04,10:39:28,11:15:30,NA,incomplete,43,shape,1,1,right,Red_Star_Dots_2.jpg,Red_Circle_Stripes_3.jpg,Purple_Star_Grid_4.jpg,right,1093.059999984689,true,low,false
CggCTwZT,31mcue39cnznpis152nuvogcfi93g2,317hq483ib5acxp04bceeynpm3vinm,CggCTwZT,2020-0188,2020-06-04,10:39:28,11:15:30,NA,incomplete,44,shape,1,1,right,Purple_Triangle_Grid_3.jpg,Purple_Plus_Chess_4.jpg,Red_Triangle_Stripes_1.jpg,right,1069.0949999843724,true,low,false
CggCTwZT,31mcue39cnznpis152nuvogcfi93g2,317hq483ib5acxp04bceeynpm3vinm,CggCTwZT,2020-0188,2020-06-04,10:39:28,11:15:30,NA,incomplete,45,shape,1,1,right,Red_Circle_Grid_2.jpg,Red_Star_Chess_1.jpg,Green_Circle_Stripes_3.jpg,right,1517.6100000389852,true,low,false
CggCTwZT,31mcue39cnznpis152nuvogcfi93g2,317hq483ib5acxp04bceeynpm3vinm,CggCTwZT,2020-0188,2020-06-04,10:39:28,11:15:30,NA,incomplete,46,shape,1,1,right,Blue_Triangle_Grid_3.jpg,Blue_Plus_Stripes_2.jpg,Green_Triangle_Chess_4.jpg,right,1171.390000032261,true,low,false
CggCTwZT,31mcue39cnznpis152nuvogcfi93g2,317hq483ib5acxp04bceeynpm3vinm,CggCTwZT,2020-0188,2020-06-04,10:39:28,11:15:30,NA,incomplete,47,shape,1,1,right,Blue_Triangle_Dots_1.jpg,Blue_Plus_Stripes_3.jpg,Red_Triangle_Grid_4.jpg,right,943.5199999716133,true,low,false
CggCTwZT,31mcue39cnznpis152nuvogcfi93g2,317hq483ib5acxp04bceeynpm3vinm,CggCTwZT,2020-0188,2020-06-04,10:39:28,11:15:30,NA,incomplete,48,shape,1,1,right,Blue_Circle_Dots_3.jpg,Blue_Plus_Grid_2.jpg,Red_Circle_Chess_4.jpg,right,821.6999999713153,true,low,false
CggCTwZT,31mcue39cnznpis152nuvogcfi93g2,317hq483ib5acxp04bceeynpm3vinm,CggCTwZT,2020-0188,2020-06-04,10:39:28,11:15:30,NA,incomplete,49,shape,1,1,left,Red_Triangle_Grid_4.jpg,Purple_Triangle_Stripes_3.jpg,Red_Star_Dots_1.jpg,left,1040.5550000141375,true,low,false
CggCTwZT,31mcue39cnznpis152nuvogcfi93g2,317hq483ib5acxp04bceeynpm3vinm,CggCTwZT,2020-0188,2020-06-04,10:39:28,11:15:30,NA,incomplete,50,shape,1,0,right,Purple_Plus_Chess_3.jpg,Purple_Circle_Grid_4.jpg,Red_Plus_Stripes_2.jpg,right,1098.7100000493228,true,low,false
CggCTwZT,31mcue39cnznpis152nuvogcfi93g2,317hq483ib5acxp04bceeynpm3vinm,CggCTwZT,2020-0188,2020-06-04,10:39:28,11:15:30,NA,incomplete,51,shape,1,1,right,Blue_Triangle_Chess_2.jpg,Blue_Plus_Stripes_1.jpg,Green_Triangle_Dots_4.jpg,right,1145.9399999585003,true,low,false
CggCTwZT,31mcue39cnznpis152nuvogcfi93g2,317hq483ib5acxp04bceeynpm3vinm,CggCTwZT,2020-0188,2020-06-04,10:39:28,11:15:30,NA,incomplete,52,shape,1,1,left,Red_Circle_Dots_1.jpg,Purple_Circle_Grid_3.jpg,Red_Triangle_Chess_2.jpg,left,1191.7849999736063,true,low,false
CggCTwZT,31mcue39cnznpis152nuvogcfi93g2,317hq483ib5acxp04bceeynpm3vinm,CggCTwZT,2020-0188,2020-06-04,10:39:28,11:15:30,NA,incomplete,53,shape,1,1,left,Purple_Triangle_Grid_1.jpg,Blue_Triangle_Dots_3.jpg,Purple_Star_Chess_4.jpg,left,1114.6699999808334,true,low,false
CggCTwZT,31mcue39cnznpis152nuvogcfi93g2,317hq483ib5acxp04bceeynpm3vinm,CggCTwZT,2020-0188,2020-06-04,10:39:28,11:15:30,NA,incomplete,54,shape,1,0,right,Red_Star_Chess_3.jpg,Red_Plus_Stripes_1.jpg,Blue_Star_Grid_2.jpg,right,1201.4250000356697,true,low,false
CggCTwZT,31mcue39cnznpis152nuvogcfi93g2,317hq483ib5acxp04bceeynpm3vinm,CggCTwZT,2020-0188,2020-06-04,10:39:28,11:15:30,NA,incomplete,55,shape,1,1,left,Purple_Circle_Grid_1.jpg,Red_Circle_Chess_4.jpg,Purple_Plus_Dots_3.jpg,left,1253.33999999566,true,low,false
CggCTwZT,31mcue39cnznpis152nuvogcfi93g2,317hq483ib5acxp04bceeynpm3vinm,CggCTwZT,2020-0188,2020-06-04,10:39:28,11:15:30,NA,incomplete,56,shape,1,0,right,Blue_Triangle_Grid_1.jpg,Blue_Star_Stripes_3.jpg,Green_Triangle_Dots_2.jpg,right,1103.049999976065,true,low,false
CggCTwZT,31mcue39cnznpis152nuvogcfi93g2,317hq483ib5acxp04bceeynpm3vinm,CggCTwZT,2020-0188,2020-06-04,10:39:28,11:15:30,NA,incomplete,57,shape,1,1,left,Green_Star_Grid_3.jpg,Blue_Star_Dots_1.jpg,Green_Plus_Stripes_4.jpg,none,0,false,low,false
CggCTwZT,31mcue39cnznpis152nuvogcfi93g2,317hq483ib5acxp04bceeynpm3vinm,CggCTwZT,2020-0188,2020-06-04,10:39:28,11:15:30,NA,incomplete,58,shape,1,1,left,Green_Plus_Grid_1.jpg,Purple_Plus_Dots_3.jpg,Green_Circle_Stripes_2.jpg,left,877.3950000177138,true,low,false
CggCTwZT,31mcue39cnznpis152nuvogcfi93g2,317hq483ib5acxp04bceeynpm3vinm,CggCTwZT,2020-0188,2020-06-04,10:39:28,11:15:30,NA,incomplete,59,shape,1,0,left,Green_Star_Dots_2.jpg,Red_Star_Chess_1.jpg,Green_Circle_Stripes_3.jpg,right,742.7349999779835,false,low,false
CggCTwZT,31mcue39cnznpis152nuvogcfi93g2,317hq483ib5acxp04bceeynpm3vinm,CggCTwZT,2020-0188,2020-06-04,10:39:28,11:15:30,NA,incomplete,60,color,0,0,left,Blue_Circle_Grid_1.jpg,Blue_Star_Chess_2.jpg,Green_Circle_Stripes_4.jpg,right,837.1550000156276,false,low,false
CggCTwZT,31mcue39cnznpis152nuvogcfi93g2,317hq483ib5acxp04bceeynpm3vinm,CggCTwZT,2020-0188,2020-06-04,10:39:28,11:15:30,NA,incomplete,61,color,0,1,right,Red_Circle_Grid_2.jpg,Green_Circle_Stripes_1.jpg,Red_Star_Dots_4.jpg,left,863.7999999918975,false,low,false
CggCTwZT,31mcue39cnznpis152nuvogcfi93g2,317hq483ib5acxp04bceeynpm3vinm,CggCTwZT,2020-0188,2020-06-04,10:39:28,11:15:30,NA,incomplete,62,color,0,1,left,Purple_Plus_Stripes_2.jpg,Purple_Triangle_Chess_1.jpg,Blue_Plus_Grid_4.jpg,right,1057.585000002291,false,low,false
CggCTwZT,31mcue39cnznpis152nuvogcfi93g2,317hq483ib5acxp04bceeynpm3vinm,CggCTwZT,2020-0188,2020-06-04,10:39:28,11:15:30,NA,incomplete,63,color,0,1,left,Blue_Circle_Stripes_2.jpg,Blue_Star_Chess_4.jpg,Purple_Circle_Grid_1.jpg,left,1074.7649999684654,true,low,false
CggCTwZT,31mcue39cnznpis152nuvogcfi93g2,317hq483ib5acxp04bceeynpm3vinm,CggCTwZT,2020-0188,2020-06-04,10:39:28,11:15:30,NA,incomplete,64,color,0,1,right,Red_Plus_Chess_1.jpg,Purple_Plus_Stripes_4.jpg,Red_Triangle_Grid_3.jpg,right,1171.3699999963865,true,low,false
CggCTwZT,31mcue39cnznpis152nuvogcfi93g2,317hq483ib5acxp04bceeynpm3vinm,CggCTwZT,2020-0188,2020-06-04,10:39:28,11:15:30,NA,incomplete,65,color,0,1,right,Red_Star_Chess_4.jpg,Blue_Star_Stripes_3.jpg,Red_Circle_Dots_2.jpg,right,1591.3200000068173,true,low,false
CggCTwZT,31mcue39cnznpis152nuvogcfi93g2,317hq483ib5acxp04bceeynpm3vinm,CggCTwZT,2020-0188,2020-06-04,10:39:28,11:15:30,NA,incomplete,66,color,0,1,right,Purple_Plus_Dots_3.jpg,Blue_Plus_Stripes_1.jpg,Purple_Star_Grid_2.jpg,left,1241.3300000480376,false,low,false
CggCTwZT,31mcue39cnznpis152nuvogcfi93g2,317hq483ib5acxp04bceeynpm3vinm,CggCTwZT,2020-0188,2020-06-04,10:39:28,11:15:30,NA,incomplete,67,color,0,1,left,Red_Triangle_Dots_1.jpg,Red_Circle_Stripes_4.jpg,Green_Triangle_Chess_2.jpg,right,1762.140000006184,false,low,false
CggCTwZT,31mcue39cnznpis152nuvogcfi93g2,317hq483ib5acxp04bceeynpm3vinm,CggCTwZT,2020-0188,2020-06-04,10:39:28,11:15:30,NA,incomplete,68,color,0,0,left,Blue_Plus_Stripes_4.jpg,Blue_Star_Grid_3.jpg,Green_Plus_Chess_2.jpg,right,1357.1349999983795,false,low,false
CggCTwZT,31mcue39cnznpis152nuvogcfi93g2,317hq483ib5acxp04bceeynpm3vinm,CggCTwZT,2020-0188,2020-06-04,10:39:28,11:15:30,NA,incomplete,69,color,0,1,left,Green_Circle_Grid_4.jpg,Green_Plus_Dots_2.jpg,Blue_Circle_Stripes_1.jpg,right,976.7200000351295,false,low,false
CggCTwZT,31mcue39cnznpis152nuvogcfi93g2,317hq483ib5acxp04bceeynpm3vinm,CggCTwZT,2020-0188,2020-06-04,10:39:28,11:15:30,NA,incomplete,70,color,0,0,left,Purple_Plus_Stripes_4.jpg,Purple_Triangle_Grid_2.jpg,Green_Plus_Chess_3.jpg,left,1005.3350000525825,true,low,false
CggCTwZT,31mcue39cnznpis152nuvogcfi93g2,317hq483ib5acxp04bceeynpm3vinm,CggCTwZT,2020-0188,2020-06-04,10:39:28,11:15:30,NA,incomplete,71,color,0,1,right,Purple_Star_Stripes_1.jpg,Green_Star_Dots_4.jpg,Purple_Triangle_Grid_2.jpg,left,1208.2400000072084,false,low,false
CggCTwZT,31mcue39cnznpis152nuvogcfi93g2,317hq483ib5acxp04bceeynpm3vinm,CggCTwZT,2020-0188,2020-06-04,10:39:28,11:15:30,NA,incomplete,72,color,0,1,left,Red_Plus_Stripes_1.jpg,Red_Triangle_Dots_2.jpg,Blue_Plus_Grid_3.jpg,left,1059.2450000112876,true,low,false
CggCTwZT,31mcue39cnznpis152nuvogcfi93g2,317hq483ib5acxp04bceeynpm3vinm,CggCTwZT,2020-0188,2020-06-04,10:39:28,11:15:30,NA,incomplete,73,color,0,1,right,Purple_Triangle_Dots_1.jpg,Blue_Triangle_Stripes_4.jpg,Purple_Circle_Grid_3.jpg,right,940.0449999957345,true,low,false
CggCTwZT,31mcue39cnznpis152nuvogcfi93g2,317hq483ib5acxp04bceeynpm3vinm,CggCTwZT,2020-0188,2020-06-04,10:39:28,11:15:30,NA,incomplete,74,color,0,1,right,Blue_Circle_Chess_4.jpg,Red_Circle_Stripes_3.jpg,Blue_Star_Dots_1.jpg,left,1034.010000003036,false,low,false
CggCTwZT,31mcue39cnznpis152nuvogcfi93g2,317hq483ib5acxp04bceeynpm3vinm,CggCTwZT,2020-0188,2020-06-04,10:39:28,11:15:30,NA,incomplete,75,color,0,1,left,Green_Circle_Grid_1.jpg,Green_Triangle_Dots_2.jpg,Blue_Circle_Chess_4.jpg,left,956.5650000004098,true,low,false
CggCTwZT,31mcue39cnznpis152nuvogcfi93g2,317hq483ib5acxp04bceeynpm3vinm,CggCTwZT,2020-0188,2020-06-04,10:39:28,11:15:30,NA,incomplete,76,color,0,0,right,Blue_Plus_Chess_4.jpg,Green_Plus_Grid_1.jpg,Blue_Triangle_Dots_2.jpg,right,1170.4099999624304,true,low,false
CggCTwZT,31mcue39cnznpis152nuvogcfi93g2,317hq483ib5acxp04bceeynpm3vinm,CggCTwZT,2020-0188,2020-06-04,10:39:28,11:15:30,NA,incomplete,77,color,0,1,right,Blue_Triangle_Grid_3.jpg,Green_Triangle_Chess_2.jpg,Blue_Star_Stripes_4.jpg,right,1598.6099999863654,true,low,false
CggCTwZT,31mcue39cnznpis152nuvogcfi93g2,317hq483ib5acxp04bceeynpm3vinm,CggCTwZT,2020-0188,2020-06-04,10:39:28,11:15:30,NA,incomplete,78,color,0,1,right,Green_Star_Dots_3.jpg,Purple_Star_Grid_2.jpg,Green_Circle_Stripes_4.jpg,right,1616.959999955725,true,low,false
CggCTwZT,31mcue39cnznpis152nuvogcfi93g2,317hq483ib5acxp04bceeynpm3vinm,CggCTwZT,2020-0188,2020-06-04,10:39:28,11:15:30,NA,incomplete,79,color,0,1,left,Green_Circle_Dots_2.jpg,Green_Star_Chess_1.jpg,Blue_Circle_Stripes_4.jpg,left,1801.4199999743141,true,low,false
CggCTwZT,31mcue39cnznpis152nuvogcfi93g2,317hq483ib5acxp04bceeynpm3vinm,CggCTwZT,2020-0188,2020-06-04,10:39:28,11:15:30,NA,incomplete,80,color,0,1,left,Green_Star_Grid_3.jpg,Green_Plus_Chess_1.jpg,Blue_Star_Stripes_2.jpg,left,906.7449999856763,true,low,false
CggCTwZT,31mcue39cnznpis152nuvogcfi93g2,317hq483ib5acxp04bceeynpm3vinm,CggCTwZT,2020-0188,2020-06-04,10:39:28,11:15:30,NA,incomplete,81,color,0,0,right,Red_Circle_Stripes_1.jpg,Blue_Circle_Chess_3.jpg,Red_Triangle_Dots_4.jpg,right,1066.034999967087,true,low,false
CggCTwZT,31mcue39cnznpis152nuvogcfi93g2,317hq483ib5acxp04bceeynpm3vinm,CggCTwZT,2020-0188,2020-06-04,10:39:28,11:15:30,NA,incomplete,82,color,0,1,left,Green_Star_Dots_2.jpg,Green_Circle_Stripes_4.jpg,Blue_Star_Chess_3.jpg,left,1867.1649999450892,true,low,false
CggCTwZT,31mcue39cnznpis152nuvogcfi93g2,317hq483ib5acxp04bceeynpm3vinm,CggCTwZT,2020-0188,2020-06-04,10:39:28,11:15:30,NA,incomplete,83,color,0,1,left,Red_Triangle_Stripes_3.jpg,Red_Star_Chess_2.jpg,Blue_Triangle_Dots_1.jpg,left,1225.2949999528937,true,low,false
CggCTwZT,31mcue39cnznpis152nuvogcfi93g2,317hq483ib5acxp04bceeynpm3vinm,CggCTwZT,2020-0188,2020-06-04,10:39:28,11:15:30,NA,incomplete,84,color,0,1,left,Blue_Circle_Stripes_3.jpg,Blue_Triangle_Grid_2.jpg,Purple_Circle_Chess_4.jpg,right,1587.7399999881163,false,low,false
CggCTwZT,31mcue39cnznpis152nuvogcfi93g2,317hq483ib5acxp04bceeynpm3vinm,CggCTwZT,2020-0188,2020-06-04,10:39:28,11:15:30,NA,incomplete,85,color,0,1,left,Red_Triangle_Stripes_1.jpg,Red_Circle_Grid_4.jpg,Green_Triangle_Dots_2.jpg,left,837.2699999599718,true,low,false
CggCTwZT,31mcue39cnznpis152nuvogcfi93g2,317hq483ib5acxp04bceeynpm3vinm,CggCTwZT,2020-0188,2020-06-04,10:39:28,11:15:30,NA,incomplete,86,color,0,1,right,Purple_Plus_Dots_4.jpg,Green_Plus_Stripes_3.jpg,Purple_Circle_Grid_1.jpg,left,1384.2399999848567,false,low,false
CggCTwZT,31mcue39cnznpis152nuvogcfi93g2,317hq483ib5acxp04bceeynpm3vinm,CggCTwZT,2020-0188,2020-06-04,10:39:28,11:15:30,NA,incomplete,87,color,0,1,right,Blue_Circle_Grid_3.jpg,Green_Circle_Stripes_1.jpg,Blue_Star_Dots_4.jpg,left,1611.3849999965169,false,low,false
CggCTwZT,31mcue39cnznpis152nuvogcfi93g2,317hq483ib5acxp04bceeynpm3vinm,CggCTwZT,2020-0188,2020-06-04,10:39:28,11:15:30,NA,incomplete,88,color,0,0,right,Purple_Plus_Chess_1.jpg,Red_Plus_Stripes_4.jpg,Purple_Circle_Grid_2.jpg,right,676.9050000002608,true,low,false
CggCTwZT,31mcue39cnznpis152nuvogcfi93g2,317hq483ib5acxp04bceeynpm3vinm,CggCTwZT,2020-0188,2020-06-04,10:39:28,11:15:30,NA,incomplete,89,color,0,1,left,Green_Plus_Grid_4.jpg,Green_Star_Dots_2.jpg,Blue_Plus_Stripes_1.jpg,left,845.9600000060163,true,low,false
CggCTwZT,31mcue39cnznpis152nuvogcfi93g2,317hq483ib5acxp04bceeynpm3vinm,CggCTwZT,2020-0188,2020-06-04,10:39:28,11:15:30,NA,incomplete,90,shape,1,1,left,Red_Circle_Stripes_2.jpg,Blue_Circle_Chess_3.jpg,Red_Triangle_Dots_4.jpg,none,0,false,low,false
CggCTwZT,31mcue39cnznpis152nuvogcfi93g2,317hq483ib5acxp04bceeynpm3vinm,CggCTwZT,2020-0188,2020-06-04,10:39:28,11:15:30,NA,incomplete,91,shape,1,1,left,Green_Circle_Dots_1.jpg,Purple_Circle_Chess_2.jpg,Green_Triangle_Grid_4.jpg,none,0,false,low,false
CggCTwZT,31mcue39cnznpis152nuvogcfi93g2,317hq483ib5acxp04bceeynpm3vinm,CggCTwZT,2020-0188,2020-06-04,10:39:28,11:15:30,NA,incomplete,92,shape,1,1,right,Purple_Triangle_Grid_4.jpg,Purple_Star_Chess_1.jpg,Red_Triangle_Stripes_2.jpg,left,850.8600000059232,false,low,false
CggCTwZT,31mcue39cnznpis152nuvogcfi93g2,317hq483ib5acxp04bceeynpm3vinm,CggCTwZT,2020-0188,2020-06-04,10:39:28,11:15:30,NA,incomplete,93,shape,1,1,right,Purple_Star_Dots_3.jpg,Purple_Plus_Chess_2.jpg,Green_Star_Stripes_4.jpg,left,1261.2800000351854,false,low,false
CggCTwZT,31mcue39cnznpis152nuvogcfi93g2,317hq483ib5acxp04bceeynpm3vinm,CggCTwZT,2020-0188,2020-06-04,10:39:28,11:15:30,NA,incomplete,94,shape,1,1,right,Purple_Triangle_Chess_2.jpg,Purple_Plus_Dots_3.jpg,Blue_Triangle_Grid_1.jpg,right,789.5600000047125,true,low,false
CggCTwZT,31mcue39cnznpis152nuvogcfi93g2,317hq483ib5acxp04bceeynpm3vinm,CggCTwZT,2020-0188,2020-06-04,10:39:28,11:15:30,NA,incomplete,95,shape,1,0,right,Purple_Triangle_Dots_4.jpg,Purple_Star_Stripes_1.jpg,Green_Triangle_Chess_3.jpg,right,1306.6149999503978,true,low,false
CggCTwZT,31mcue39cnznpis152nuvogcfi93g2,317hq483ib5acxp04bceeynpm3vinm,CggCTwZT,2020-0188,2020-06-04,10:39:28,11:15:30,NA,incomplete,96,shape,1,1,right,Blue_Plus_Dots_3.jpg,Blue_Triangle_Stripes_4.jpg,Red_Plus_Grid_1.jpg,left,1152.425000036601,false,low,false
CggCTwZT,31mcue39cnznpis152nuvogcfi93g2,317hq483ib5acxp04bceeynpm3vinm,CggCTwZT,2020-0188,2020-06-04,10:39:28,11:15:30,NA,incomplete,97,shape,1,1,left,Green_Plus_Stripes_3.jpg,Red_Plus_Chess_1.jpg,Green_Circle_Dots_2.jpg,left,1589.9299999582581,true,low,false
CggCTwZT,31mcue39cnznpis152nuvogcfi93g2,317hq483ib5acxp04bceeynpm3vinm,CggCTwZT,2020-0188,2020-06-04,10:39:28,11:15:30,NA,incomplete,98,shape,1,0,right,Green_Triangle_Chess_1.jpg,Green_Plus_Dots_4.jpg,Purple_Triangle_Stripes_2.jpg,right,1215.3549999929965,true,low,false
CggCTwZT,31mcue39cnznpis152nuvogcfi93g2,317hq483ib5acxp04bceeynpm3vinm,CggCTwZT,2020-0188,2020-06-04,10:39:28,11:15:30,NA,incomplete,99,shape,1,1,left,Green_Triangle_Grid_1.jpg,Blue_Triangle_Chess_3.jpg,Green_Star_Dots_4.jpg,right,746.1449999827892,false,low,false
CggCTwZT,31mcue39cnznpis152nuvogcfi93g2,317hq483ib5acxp04bceeynpm3vinm,CggCTwZT,2020-0188,2020-06-04,10:39:28,11:15:30,NA,incomplete,100,shape,1,1,right,Purple_Triangle_Stripes_4.jpg,Purple_Star_Dots_2.jpg,Red_Triangle_Grid_3.jpg,left,1728.4799999906681,false,low,false
CggCTwZT,31mcue39cnznpis152nuvogcfi93g2,317hq483ib5acxp04bceeynpm3vinm,CggCTwZT,2020-0188,2020-06-04,10:39:28,11:15:30,NA,incomplete,101,shape,1,1,left,Blue_Plus_Chess_4.jpg,Green_Plus_Grid_2.jpg,Blue_Circle_Dots_1.jpg,right,1204.7100000199862,false,low,false
CggCTwZT,31mcue39cnznpis152nuvogcfi93g2,317hq483ib5acxp04bceeynpm3vinm,CggCTwZT,2020-0188,2020-06-04,10:39:28,11:15:30,NA,incomplete,102,shape,1,1,right,Red_Plus_Stripes_3.jpg,Red_Triangle_Dots_4.jpg,Green_Plus_Chess_1.jpg,left,1311.214999994263,false,low,false
CggCTwZT,31mcue39cnznpis152nuvogcfi93g2,317hq483ib5acxp04bceeynpm3vinm,CggCTwZT,2020-0188,2020-06-04,10:39:28,11:15:30,NA,incomplete,103,shape,1,1,left,Green_Plus_Chess_2.jpg,Blue_Plus_Dots_4.jpg,Green_Triangle_Stripes_1.jpg,right,909.6750000026077,false,low,false
CggCTwZT,31mcue39cnznpis152nuvogcfi93g2,317hq483ib5acxp04bceeynpm3vinm,CggCTwZT,2020-0188,2020-06-04,10:39:28,11:15:30,NA,incomplete,104,shape,1,1,left,Red_Triangle_Grid_1.jpg,Purple_Triangle_Chess_3.jpg,Red_Star_Dots_4.jpg,left,1261.0399999539368,true,low,false
CggCTwZT,31mcue39cnznpis152nuvogcfi93g2,317hq483ib5acxp04bceeynpm3vinm,CggCTwZT,2020-0188,2020-06-04,10:39:28,11:15:30,NA,incomplete,105,shape,1,1,right,Purple_Star_Dots_4.jpg,Purple_Plus_Grid_2.jpg,Green_Star_Chess_1.jpg,right,1485.4700000141747,true,low,false
CggCTwZT,31mcue39cnznpis152nuvogcfi93g2,317hq483ib5acxp04bceeynpm3vinm,CggCTwZT,2020-0188,2020-06-04,10:39:28,11:15:30,NA,incomplete,106,shape,1,0,left,Purple_Triangle_Dots_4.jpg,Green_Triangle_Grid_3.jpg,Purple_Circle_Stripes_2.jpg,left,1516.5549999801442,true,low,false
CggCTwZT,31mcue39cnznpis152nuvogcfi93g2,317hq483ib5acxp04bceeynpm3vinm,CggCTwZT,2020-0188,2020-06-04,10:39:28,11:15:30,NA,incomplete,107,shape,1,1,right,Red_Star_Grid_2.jpg,Red_Plus_Stripes_3.jpg,Blue_Star_Dots_1.jpg,right,1378.7500000325963,true,low,false
CggCTwZT,31mcue39cnznpis152nuvogcfi93g2,317hq483ib5acxp04bceeynpm3vinm,CggCTwZT,2020-0188,2020-06-04,10:39:28,11:15:30,NA,incomplete,108,shape,1,1,right,Purple_Plus_Chess_1.jpg,Purple_Circle_Stripes_2.jpg,Red_Plus_Grid_4.jpg,right,1700.8899999782443,true,low,false
CggCTwZT,31mcue39cnznpis152nuvogcfi93g2,317hq483ib5acxp04bceeynpm3vinm,CggCTwZT,2020-0188,2020-06-04,10:39:28,11:15:30,NA,incomplete,109,shape,1,1,left,Red_Triangle_Dots_2.jpg,Blue_Triangle_Stripes_4.jpg,Red_Circle_Grid_3.jpg,left,1706.91499998793,true,low,false
CggCTwZT,31mcue39cnznpis152nuvogcfi93g2,317hq483ib5acxp04bceeynpm3vinm,CggCTwZT,2020-0188,2020-06-04,10:39:28,11:15:30,NA,incomplete,110,shape,1,1,left,Purple_Circle_Grid_1.jpg,Green_Circle_Chess_3.jpg,Purple_Plus_Stripes_2.jpg,left,1014.8100000224076,true,low,false
CggCTwZT,31mcue39cnznpis152nuvogcfi93g2,317hq483ib5acxp04bceeynpm3vinm,CggCTwZT,2020-0188,2020-06-04,10:39:28,11:15:30,NA,incomplete,111,shape,1,1,right,Purple_Plus_Stripes_4.jpg,Purple_Triangle_Chess_1.jpg,Red_Plus_Dots_3.jpg,right,1266.3199999951757,true,low,false
CggCTwZT,31mcue39cnznpis152nuvogcfi93g2,317hq483ib5acxp04bceeynpm3vinm,CggCTwZT,2020-0188,2020-06-04,10:39:28,11:15:30,NA,incomplete,112,shape,1,1,left,Green_Circle_Chess_2.jpg,Purple_Circle_Grid_1.jpg,Green_Triangle_Stripes_4.jpg,left,874.3549999780953,true,low,false
CggCTwZT,31mcue39cnznpis152nuvogcfi93g2,317hq483ib5acxp04bceeynpm3vinm,CggCTwZT,2020-0188,2020-06-04,10:39:28,11:15:30,NA,incomplete,113,shape,1,1,right,Blue_Star_Stripes_1.jpg,Blue_Plus_Grid_2.jpg,Green_Star_Dots_3.jpg,right,1395.5950000090525,true,low,false
CggCTwZT,31mcue39cnznpis152nuvogcfi93g2,317hq483ib5acxp04bceeynpm3vinm,CggCTwZT,2020-0188,2020-06-04,10:39:28,11:15:30,NA,incomplete,114,shape,1,1,right,Red_Circle_Dots_4.jpg,Red_Plus_Grid_1.jpg,Green_Circle_Chess_2.jpg,right,1022.0550000085495,true,low,false
CggCTwZT,31mcue39cnznpis152nuvogcfi93g2,317hq483ib5acxp04bceeynpm3vinm,CggCTwZT,2020-0188,2020-06-04,10:39:28,11:15:30,NA,incomplete,115,shape,1,1,left,Green_Triangle_Dots_3.jpg,Blue_Triangle_Grid_4.jpg,Green_Plus_Stripes_2.jpg,left,864.5000000251457,true,low,false
CggCTwZT,31mcue39cnznpis152nuvogcfi93g2,317hq483ib5acxp04bceeynpm3vinm,CggCTwZT,2020-0188,2020-06-04,10:39:28,11:15:30,NA,incomplete,116,shape,1,1,left,Purple_Circle_Dots_1.jpg,Green_Circle_Stripes_3.jpg,Purple_Plus_Grid_2.jpg,left,994.3450000137091,true,low,false
CggCTwZT,31mcue39cnznpis152nuvogcfi93g2,317hq483ib5acxp04bceeynpm3vinm,CggCTwZT,2020-0188,2020-06-04,10:39:28,11:15:30,NA,incomplete,117,shape,1,1,right,Red_Circle_Stripes_2.jpg,Red_Plus_Dots_1.jpg,Purple_Circle_Grid_3.jpg,right,854.1500000283122,true,low,false
CggCTwZT,31mcue39cnznpis152nuvogcfi93g2,317hq483ib5acxp04bceeynpm3vinm,CggCTwZT,2020-0188,2020-06-04,10:39:28,11:15:30,NA,incomplete,118,shape,1,1,left,Red_Triangle_Chess_3.jpg,Blue_Triangle_Stripes_1.jpg,Red_Plus_Dots_4.jpg,left,847.6099999970756,true,low,false
CggCTwZT,31mcue39cnznpis152nuvogcfi93g2,317hq483ib5acxp04bceeynpm3vinm,CggCTwZT,2020-0188,2020-06-04,10:39:28,11:15:30,NA,incomplete,119,shape,1,1,right,Purple_Circle_Dots_3.jpg,Purple_Star_Chess_4.jpg,Green_Circle_Grid_2.jpg,right,1145.9199999808334,true,low,false
CggCTwZT,31mcue39cnznpis152nuvogcfi93g2,317hq483ib5acxp04bceeynpm3vinm,CggCTwZT,2020-0188,2020-06-04,10:39:28,11:15:30,NA,incomplete,120,race,2,1,right,C_F_09.jpg,A_F_03.jpg,C_M_15.jpg,NA,NA,NA,low,false
CggCTwZT,31mcue39cnznpis152nuvogcfi93g2,317hq483ib5acxp04bceeynpm3vinm,CggCTwZT,2020-0188,2020-06-04,10:39:28,11:15:30,NA,incomplete,121,race,2,0,left,C_F_07.jpg,C_M_05.jpg,A_F_02.jpg,none,0,false,low,false
CggCTwZT,31mcue39cnznpis152nuvogcfi93g2,317hq483ib5acxp04bceeynpm3vinm,CggCTwZT,2020-0188,2020-06-04,10:39:28,11:15:30,NA,incomplete,122,race,2,1,left,A_F_16.jpg,A_M_10.jpg,C_F_05.jpg,right,1256.1499999719672,false,low,false
CggCTwZT,31mcue39cnznpis152nuvogcfi93g2,317hq483ib5acxp04bceeynpm3vinm,CggCTwZT,2020-0188,2020-06-04,10:39:28,11:15:30,NA,incomplete,123,race,2,1,right,A_M_15.jpg,C_M_09.jpg,A_F_16.jpg,right,1232.6699999975972,true,low,false
CggCTwZT,31mcue39cnznpis152nuvogcfi93g2,317hq483ib5acxp04bceeynpm3vinm,CggCTwZT,2020-0188,2020-06-04,10:39:28,11:15:30,NA,incomplete,124,race,2,1,left,C_F_11.jpg,C_M_06.jpg,A_F_05.jpg,right,1426.5199999790639,false,low,false
CggCTwZT,31mcue39cnznpis152nuvogcfi93g2,317hq483ib5acxp04bceeynpm3vinm,CggCTwZT,2020-0188,2020-06-04,10:39:28,11:15:30,NA,incomplete,125,race,2,0,left,A_M_05.jpg,A_F_04.jpg,C_M_01.jpg,left,1259.6449999837205,true,low,false
CggCTwZT,31mcue39cnznpis152nuvogcfi93g2,317hq483ib5acxp04bceeynpm3vinm,CggCTwZT,2020-0188,2020-06-04,10:39:28,11:15:30,NA,incomplete,126,race,2,1,left,C_F_15.jpg,C_M_12.jpg,A_F_10.jpg,left,1467.8149999817833,true,low,false
CggCTwZT,31mcue39cnznpis152nuvogcfi93g2,317hq483ib5acxp04bceeynpm3vinm,CggCTwZT,2020-0188,2020-06-04,10:39:28,11:15:30,NA,incomplete,127,race,2,1,left,A_M_14.jpg,A_F_15.jpg,C_M_13.jpg,right,1571.4650000445545,false,low,false
CggCTwZT,31mcue39cnznpis152nuvogcfi93g2,317hq483ib5acxp04bceeynpm3vinm,CggCTwZT,2020-0188,2020-06-04,10:39:28,11:15:30,NA,incomplete,128,race,2,0,left,C_F_05.jpg,C_M_06.jpg,A_F_08.jpg,left,1566.8799999984913,true,low,false
CggCTwZT,31mcue39cnznpis152nuvogcfi93g2,317hq483ib5acxp04bceeynpm3vinm,CggCTwZT,2020-0188,2020-06-04,10:39:28,11:15:30,NA,incomplete,129,race,2,1,right,A_F_11.jpg,C_F_03.jpg,A_M_07.jpg,left,1745.775000017602,false,low,false
CggCTwZT,31mcue39cnznpis152nuvogcfi93g2,317hq483ib5acxp04bceeynpm3vinm,CggCTwZT,2020-0188,2020-06-04,10:39:28,11:15:30,NA,incomplete,130,race,2,1,left,C_F_06.jpg,C_M_02.jpg,A_F_01.jpg,right,892.9999999818392,false,low,false
CggCTwZT,31mcue39cnznpis152nuvogcfi93g2,317hq483ib5acxp04bceeynpm3vinm,CggCTwZT,2020-0188,2020-06-04,10:39:28,11:15:30,NA,incomplete,131,race,2,1,right,C_F_02.jpg,A_F_13.jpg,C_M_05.jpg,left,1101.8650000332855,false,low,false
CggCTwZT,31mcue39cnznpis152nuvogcfi93g2,317hq483ib5acxp04bceeynpm3vinm,CggCTwZT,2020-0188,2020-06-04,10:39:28,11:15:30,NA,incomplete,132,race,2,0,left,C_F_15.jpg,C_M_02.jpg,A_F_11.jpg,right,1453.235000022687,false,low,false
CggCTwZT,31mcue39cnznpis152nuvogcfi93g2,317hq483ib5acxp04bceeynpm3vinm,CggCTwZT,2020-0188,2020-06-04,10:39:28,11:15:30,NA,incomplete,133,race,2,1,left,A_F_09.jpg,A_M_12.jpg,C_F_13.jpg,left,1518.7250000308268,true,low,false
CggCTwZT,31mcue39cnznpis152nuvogcfi93g2,317hq483ib5acxp04bceeynpm3vinm,CggCTwZT,2020-0188,2020-06-04,10:39:28,11:15:30,NA,incomplete,134,race,2,1,right,A_M_02.jpg,C_M_03.jpg,A_F_07.jpg,left,1003.0099999858066,false,low,false
CggCTwZT,31mcue39cnznpis152nuvogcfi93g2,317hq483ib5acxp04bceeynpm3vinm,CggCTwZT,2020-0188,2020-06-04,10:39:28,11:15:30,NA,incomplete,135,race,2,1,left,A_F_09.jpg,A_M_13.jpg,C_F_11.jpg,right,1542.5599999725819,false,low,false
CggCTwZT,31mcue39cnznpis152nuvogcfi93g2,317hq483ib5acxp04bceeynpm3vinm,CggCTwZT,2020-0188,2020-06-04,10:39:28,11:15:30,NA,incomplete,136,race,2,0,right,C_F_02.jpg,A_F_01.jpg,C_M_08.jpg,left,1218.5600000084378,false,low,false
CggCTwZT,31mcue39cnznpis152nuvogcfi93g2,317hq483ib5acxp04bceeynpm3vinm,CggCTwZT,2020-0188,2020-06-04,10:39:28,11:15:30,NA,incomplete,137,race,2,1,left,C_F_04.jpg,C_M_16.jpg,A_F_02.jpg,left,1685.5799999902956,true,low,false
CggCTwZT,31mcue39cnznpis152nuvogcfi93g2,317hq483ib5acxp04bceeynpm3vinm,CggCTwZT,2020-0188,2020-06-04,10:39:28,11:15:30,NA,incomplete,138,race,2,1,left,C_F_04.jpg,C_M_08.jpg,A_F_05.jpg,left,1659.6799999824725,true,low,false
CggCTwZT,31mcue39cnznpis152nuvogcfi93g2,317hq483ib5acxp04bceeynpm3vinm,CggCTwZT,2020-0188,2020-06-04,10:39:28,11:15:30,NA,incomplete,139,race,2,1,right,C_M_12.jpg,A_M_08.jpg,C_F_05.jpg,left,1417.829999991227,false,low,false
CggCTwZT,31mcue39cnznpis152nuvogcfi93g2,317hq483ib5acxp04bceeynpm3vinm,CggCTwZT,2020-0188,2020-06-04,10:39:28,11:15:30,NA,incomplete,140,gender,3,1,left,A_F_06.jpg,C_F_08.jpg,A_M_01.jpg,right,1276.335000002291,false,low,false
CggCTwZT,31mcue39cnznpis152nuvogcfi93g2,317hq483ib5acxp04bceeynpm3vinm,CggCTwZT,2020-0188,2020-06-04,10:39:28,11:15:30,NA,incomplete,141,gender,3,1,right,C_M_12.jpg,C_F_13.jpg,A_M_14.jpg,right,1067.9450000170618,true,low,false
CggCTwZT,31mcue39cnznpis152nuvogcfi93g2,317hq483ib5acxp04bceeynpm3vinm,CggCTwZT,2020-0188,2020-06-04,10:39:28,11:15:30,NA,incomplete,142,gender,3,1,left,C_M_06.jpg,A_M_15.jpg,C_F_03.jpg,right,1588.7800000491552,false,low,false
CggCTwZT,31mcue39cnznpis152nuvogcfi93g2,317hq483ib5acxp04bceeynpm3vinm,CggCTwZT,2020-0188,2020-06-04,10:39:28,11:15:30,NA,incomplete,143,gender,3,1,right,A_F_06.jpg,A_M_03.jpg,C_F_04.jpg,left,1118.9099999610335,false,low,false
CggCTwZT,31mcue39cnznpis152nuvogcfi93g2,317hq483ib5acxp04bceeynpm3vinm,CggCTwZT,2020-0188,2020-06-04,10:39:28,11:15:30,NA,incomplete,144,gender,3,1,right,A_M_04.jpg,A_F_15.jpg,C_M_10.jpg,left,1142.1949999639764,false,low,false
CggCTwZT,31mcue39cnznpis152nuvogcfi93g2,317hq483ib5acxp04bceeynpm3vinm,CggCTwZT,2020-0188,2020-06-04,10:39:28,11:15:30,NA,incomplete,145,gender,3,0,right,A_M_06.jpg,A_F_14.jpg,C_M_13.jpg,right,1419.965000008233,true,low,false
CggCTwZT,31mcue39cnznpis152nuvogcfi93g2,317hq483ib5acxp04bceeynpm3vinm,CggCTwZT,2020-0188,2020-06-04,10:39:28,11:15:30,NA,incomplete,146,gender,3,1,left,C_M_07.jpg,A_M_03.jpg,C_F_01.jpg,left,765.4299999703653,true,low,false
CggCTwZT,31mcue39cnznpis152nuvogcfi93g2,317hq483ib5acxp04bceeynpm3vinm,CggCTwZT,2020-0188,2020-06-04,10:39:28,11:15:30,NA,incomplete,147,gender,3,0,left,A_F_08.jpg,C_F_06.jpg,A_M_04.jpg,left,1356.0549999820068,true,low,false
CggCTwZT,31mcue39cnznpis152nuvogcfi93g2,317hq483ib5acxp04bceeynpm3vinm,CggCTwZT,2020-0188,2020-06-04,10:39:28,11:15:30,NA,incomplete,148,gender,3,1,left,C_F_06.jpg,A_F_07.jpg,C_M_15.jpg,right,1311.4699999568984,false,low,false
CggCTwZT,31mcue39cnznpis152nuvogcfi93g2,317hq483ib5acxp04bceeynpm3vinm,CggCTwZT,2020-0188,2020-06-04,10:39:28,11:15:30,NA,incomplete,149,gender,3,1,left,C_F_09.jpg,A_F_05.jpg,C_M_14.jpg,left,1117.6550000091083,true,low,false
CggCTwZT,31mcue39cnznpis152nuvogcfi93g2,317hq483ib5acxp04bceeynpm3vinm,CggCTwZT,2020-0188,2020-06-04,10:39:28,11:15:30,NA,incomplete,150,gender,3,0,right,A_M_03.jpg,A_F_12.jpg,C_M_07.jpg,left,1035.7899999944493,false,low,false
CggCTwZT,31mcue39cnznpis152nuvogcfi93g2,317hq483ib5acxp04bceeynpm3vinm,CggCTwZT,2020-0188,2020-06-04,10:39:28,11:15:30,NA,incomplete,151,gender,3,1,left,A_F_14.jpg,C_F_02.jpg,A_M_16.jpg,right,982.5699999928474,false,low,false
CggCTwZT,31mcue39cnznpis152nuvogcfi93g2,317hq483ib5acxp04bceeynpm3vinm,CggCTwZT,2020-0188,2020-06-04,10:39:28,11:15:30,NA,incomplete,152,gender,3,1,left,C_M_02.jpg,A_M_04.jpg,C_F_11.jpg,left,1267.42499996908,true,low,false
CggCTwZT,31mcue39cnznpis152nuvogcfi93g2,317hq483ib5acxp04bceeynpm3vinm,CggCTwZT,2020-0188,2020-06-04,10:39:28,11:15:30,NA,incomplete,153,gender,3,1,left,A_M_05.jpg,C_M_07.jpg,A_F_02.jpg,left,1283.899999980349,true,low,false
CggCTwZT,31mcue39cnznpis152nuvogcfi93g2,317hq483ib5acxp04bceeynpm3vinm,CggCTwZT,2020-0188,2020-06-04,10:39:28,11:15:30,NA,incomplete,154,gender,3,1,left,C_F_05.jpg,A_F_08.jpg,C_M_02.jpg,right,1067.3449999885634,false,low,false
CggCTwZT,31mcue39cnznpis152nuvogcfi93g2,317hq483ib5acxp04bceeynpm3vinm,CggCTwZT,2020-0188,2020-06-04,10:39:28,11:15:30,NA,incomplete,155,gender,3,1,left,C_M_03.jpg,A_M_07.jpg,C_F_01.jpg,left,852.2999999695458,true,low,false
CggCTwZT,31mcue39cnznpis152nuvogcfi93g2,317hq483ib5acxp04bceeynpm3vinm,CggCTwZT,2020-0188,2020-06-04,10:39:28,11:15:30,NA,incomplete,156,gender,3,1,left,C_M_11.jpg,A_M_01.jpg,C_F_10.jpg,left,1278.4500000416301,true,low,false
CggCTwZT,31mcue39cnznpis152nuvogcfi93g2,317hq483ib5acxp04bceeynpm3vinm,CggCTwZT,2020-0188,2020-06-04,10:39:28,11:15:30,NA,incomplete,157,gender,3,1,right,A_M_13.jpg,A_F_11.jpg,C_M_12.jpg,left,1110.6450000079349,false,low,false
CggCTwZT,31mcue39cnznpis152nuvogcfi93g2,317hq483ib5acxp04bceeynpm3vinm,CggCTwZT,2020-0188,2020-06-04,10:39:28,11:15:30,NA,incomplete,158,gender,3,1,left,C_M_05.jpg,A_M_03.jpg,C_F_15.jpg,left,1261.0299999942072,true,low,false
CggCTwZT,31mcue39cnznpis152nuvogcfi93g2,317hq483ib5acxp04bceeynpm3vinm,CggCTwZT,2020-0188,2020-06-04,10:39:28,11:15:30,NA,incomplete,159,gender,3,1,right,A_F_14.jpg,A_M_15.jpg,C_F_12.jpg,left,845.7000000053085,false,low,false
CggCTwZT,31mcue39cnznpis152nuvogcfi93g2,317hq483ib5acxp04bceeynpm3vinm,CggCTwZT,2020-0188,2020-06-04,10:39:28,11:15:30,NA,incomplete,160,race,2,0,right,A_M_05.jpg,C_M_11.jpg,A_F_08.jpg,right,1063.9549999614246,true,low,false
CggCTwZT,31mcue39cnznpis152nuvogcfi93g2,317hq483ib5acxp04bceeynpm3vinm,CggCTwZT,2020-0188,2020-06-04,10:39:28,11:15:30,NA,incomplete,161,race,2,1,right,A_F_10.jpg,C_F_08.jpg,A_M_16.jpg,left,1257.5400000205263,false,low,false
CggCTwZT,31mcue39cnznpis152nuvogcfi93g2,317hq483ib5acxp04bceeynpm3vinm,CggCTwZT,2020-0188,2020-06-04,10:39:28,11:15:30,NA,incomplete,162,race,2,1,left,C_F_06.jpg,C_M_05.jpg,A_F_02.jpg,right,1136.7750000208616,false,low,false
CggCTwZT,31mcue39cnznpis152nuvogcfi93g2,317hq483ib5acxp04bceeynpm3vinm,CggCTwZT,2020-0188,2020-06-04,10:39:28,11:15:30,NA,incomplete,163,race,2,1,right,A_F_14.jpg,C_F_15.jpg,A_M_02.jpg,left,631.4949999796227,false,low,false
CggCTwZT,31mcue39cnznpis152nuvogcfi93g2,317hq483ib5acxp04bceeynpm3vinm,CggCTwZT,2020-0188,2020-06-04,10:39:28,11:15:30,NA,incomplete,164,race,2,1,left,C_M_11.jpg,C_F_04.jpg,A_M_03.jpg,right,963.1800000206567,false,low,false
CggCTwZT,31mcue39cnznpis152nuvogcfi93g2,317hq483ib5acxp04bceeynpm3vinm,CggCTwZT,2020-0188,2020-06-04,10:39:28,11:15:30,NA,incomplete,165,race,2,0,left,C_M_10.jpg,C_F_11.jpg,A_M_15.jpg,left,656.6650000168011,true,low,false
CggCTwZT,31mcue39cnznpis152nuvogcfi93g2,317hq483ib5acxp04bceeynpm3vinm,CggCTwZT,2020-0188,2020-06-04,10:39:28,11:15:30,NA,incomplete,166,race,2,1,right,C_M_01.jpg,A_M_03.jpg,C_F_12.jpg,left,1035.8150000101887,false,low,false
CggCTwZT,31mcue39cnznpis152nuvogcfi93g2,317hq483ib5acxp04bceeynpm3vinm,CggCTwZT,2020-0188,2020-06-04,10:39:28,11:15:30,NA,incomplete,167,race,2,0,left,A_M_11.jpg,A_F_10.jpg,C_M_05.jpg,right,629.395000054501,false,low,false
CggCTwZT,31mcue39cnznpis152nuvogcfi93g2,317hq483ib5acxp04bceeynpm3vinm,CggCTwZT,2020-0188,2020-06-04,10:39:28,11:15:30,NA,incomplete,168,race,2,1,right,A_M_10.jpg,C_M_13.jpg,A_F_01.jpg,right,1481.8250000244007,true,low,false
CggCTwZT,31mcue39cnznpis152nuvogcfi93g2,317hq483ib5acxp04bceeynpm3vinm,CggCTwZT,2020-0188,2020-06-04,10:39:28,11:15:30,NA,incomplete,169,race,2,0,left,C_F_06.jpg,C_M_09.jpg,A_F_08.jpg,right,1416.739999956917,false,low,false
CggCTwZT,31mcue39cnznpis152nuvogcfi93g2,317hq483ib5acxp04bceeynpm3vinm,CggCTwZT,2020-0188,2020-06-04,10:39:28,11:15:30,NA,incomplete,170,race,2,1,left,A_M_02.jpg,A_F_05.jpg,C_M_16.jpg,left,858.0850000143982,true,low,false
CggCTwZT,31mcue39cnznpis152nuvogcfi93g2,317hq483ib5acxp04bceeynpm3vinm,CggCTwZT,2020-0188,2020-06-04,10:39:28,11:15:30,NA,incomplete,171,race,2,1,left,A_M_11.jpg,A_F_04.jpg,C_M_14.jpg,right,1251.9350000075065,false,low,false
CggCTwZT,31mcue39cnznpis152nuvogcfi93g2,317hq483ib5acxp04bceeynpm3vinm,CggCTwZT,2020-0188,2020-06-04,10:39:28,11:15:30,NA,incomplete,172,race,2,1,left,A_F_12.jpg,A_M_03.jpg,C_F_08.jpg,left,764.6250000107102,true,low,false
CggCTwZT,31mcue39cnznpis152nuvogcfi93g2,317hq483ib5acxp04bceeynpm3vinm,CggCTwZT,2020-0188,2020-06-04,10:39:28,11:15:30,NA,incomplete,173,race,2,0,left,C_F_08.jpg,C_M_06.jpg,A_F_11.jpg,none,0,false,low,false
CggCTwZT,31mcue39cnznpis152nuvogcfi93g2,317hq483ib5acxp04bceeynpm3vinm,CggCTwZT,2020-0188,2020-06-04,10:39:28,11:15:30,NA,incomplete,174,race,2,1,left,C_M_03.jpg,C_F_05.jpg,A_M_01.jpg,right,1145.7550000050105,false,low,false
CggCTwZT,31mcue39cnznpis152nuvogcfi93g2,317hq483ib5acxp04bceeynpm3vinm,CggCTwZT,2020-0188,2020-06-04,10:39:28,11:15:30,NA,incomplete,175,race,2,1,right,A_M_08.jpg,C_M_06.jpg,A_F_04.jpg,left,1351.2449999689125,false,low,false
CggCTwZT,31mcue39cnznpis152nuvogcfi93g2,317hq483ib5acxp04bceeynpm3vinm,CggCTwZT,2020-0188,2020-06-04,10:39:28,11:15:30,NA,incomplete,176,race,2,1,left,A_M_01.jpg,A_F_13.jpg,C_M_04.jpg,right,1139.7149999975227,false,low,false
CggCTwZT,31mcue39cnznpis152nuvogcfi93g2,317hq483ib5acxp04bceeynpm3vinm,CggCTwZT,2020-0188,2020-06-04,10:39:28,11:15:30,NA,incomplete,177,race,2,0,left,C_F_14.jpg,C_M_15.jpg,A_F_12.jpg,left,1377.779999980703,true,low,false
CggCTwZT,31mcue39cnznpis152nuvogcfi93g2,317hq483ib5acxp04bceeynpm3vinm,CggCTwZT,2020-0188,2020-06-04,10:39:28,11:15:30,NA,incomplete,178,race,2,1,right,C_F_04.jpg,A_F_14.jpg,C_M_11.jpg,left,1204.714999999851,false,low,false
CggCTwZT,31mcue39cnznpis152nuvogcfi93g2,317hq483ib5acxp04bceeynpm3vinm,CggCTwZT,2020-0188,2020-06-04,10:39:28,11:15:30,NA,incomplete,179,race,2,1,right,C_M_02.jpg,A_M_05.jpg,C_F_06.jpg,right,694.9899999890476,true,low,false
CggCTwZT,31mcue39cnznpis152nuvogcfi93g2,317hq483ib5acxp04bceeynpm3vinm,CggCTwZT,2020-0188,2020-06-04,10:39:28,11:15:30,NA,incomplete,180,gender,3,1,left,C_M_15.jpg,A_M_12.jpg,C_F_01.jpg,right,1231.7599999951199,false,low,false
CggCTwZT,31mcue39cnznpis152nuvogcfi93g2,317hq483ib5acxp04bceeynpm3vinm,CggCTwZT,2020-0188,2020-06-04,10:39:28,11:15:30,NA,incomplete,181,gender,3,0,left,C_M_06.jpg,A_M_11.jpg,C_F_08.jpg,left,818.0799999972805,true,low,false
CggCTwZT,31mcue39cnznpis152nuvogcfi93g2,317hq483ib5acxp04bceeynpm3vinm,CggCTwZT,2020-0188,2020-06-04,10:39:28,11:15:30,NA,incomplete,182,gender,3,1,right,C_M_11.jpg,C_F_07.jpg,A_M_03.jpg,left,1461.8749999790452,false,low,false
CggCTwZT,31mcue39cnznpis152nuvogcfi93g2,317hq483ib5acxp04bceeynpm3vinm,CggCTwZT,2020-0188,2020-06-04,10:39:28,11:15:30,NA,incomplete,183,gender,3,1,right,C_F_04.jpg,C_M_02.jpg,A_F_11.jpg,right,1021.4649999979883,true,low,false
CggCTwZT,31mcue39cnznpis152nuvogcfi93g2,317hq483ib5acxp04bceeynpm3vinm,CggCTwZT,2020-0188,2020-06-04,10:39:28,11:15:30,NA,incomplete,184,gender,3,1,right,C_M_10.jpg,C_F_08.jpg,A_M_12.jpg,right,1391.780000005383,true,low,false
CggCTwZT,31mcue39cnznpis152nuvogcfi93g2,317hq483ib5acxp04bceeynpm3vinm,CggCTwZT,2020-0188,2020-06-04,10:39:28,11:15:30,NA,incomplete,185,gender,3,1,left,A_M_01.jpg,C_M_07.jpg,A_F_15.jpg,left,1386.240000021644,true,low,false
CggCTwZT,31mcue39cnznpis152nuvogcfi93g2,317hq483ib5acxp04bceeynpm3vinm,CggCTwZT,2020-0188,2020-06-04,10:39:28,11:15:30,NA,incomplete,186,gender,3,0,right,C_M_15.jpg,C_F_12.jpg,A_M_10.jpg,right,1253.8800000329502,true,low,false
CggCTwZT,31mcue39cnznpis152nuvogcfi93g2,317hq483ib5acxp04bceeynpm3vinm,CggCTwZT,2020-0188,2020-06-04,10:39:28,11:15:30,NA,incomplete,187,gender,3,1,right,A_M_06.jpg,A_F_15.jpg,C_M_01.jpg,left,846.4150000363588,false,low,false
CggCTwZT,31mcue39cnznpis152nuvogcfi93g2,317hq483ib5acxp04bceeynpm3vinm,CggCTwZT,2020-0188,2020-06-04,10:39:28,11:15:30,NA,incomplete,188,gender,3,1,left,C_M_08.jpg,A_M_12.jpg,C_F_10.jpg,right,720.9799999836832,false,low,false
CggCTwZT,31mcue39cnznpis152nuvogcfi93g2,317hq483ib5acxp04bceeynpm3vinm,CggCTwZT,2020-0188,2020-06-04,10:39:28,11:15:30,NA,incomplete,189,gender,3,1,right,C_F_10.jpg,C_M_15.jpg,A_F_08.jpg,right,616.4800000260584,true,low,false
CggCTwZT,31mcue39cnznpis152nuvogcfi93g2,317hq483ib5acxp04bceeynpm3vinm,CggCTwZT,2020-0188,2020-06-04,10:39:28,11:15:30,NA,incomplete,190,gender,3,1,right,C_M_02.jpg,C_F_16.jpg,A_M_08.jpg,left,973.035000031814,false,low,false
CggCTwZT,31mcue39cnznpis152nuvogcfi93g2,317hq483ib5acxp04bceeynpm3vinm,CggCTwZT,2020-0188,2020-06-04,10:39:28,11:15:30,NA,incomplete,191,gender,3,0,right,A_M_15.jpg,A_F_12.jpg,C_M_07.jpg,right,794.0300000482239,true,low,false
CggCTwZT,31mcue39cnznpis152nuvogcfi93g2,317hq483ib5acxp04bceeynpm3vinm,CggCTwZT,2020-0188,2020-06-04,10:39:28,11:15:30,NA,incomplete,192,gender,3,1,left,A_F_14.jpg,C_F_01.jpg,A_M_16.jpg,left,822.3700000089593,true,low,false
CggCTwZT,31mcue39cnznpis152nuvogcfi93g2,317hq483ib5acxp04bceeynpm3vinm,CggCTwZT,2020-0188,2020-06-04,10:39:28,11:15:30,NA,incomplete,193,gender,3,1,right,C_M_14.jpg,C_F_03.jpg,A_M_09.jpg,left,1129.5350000145845,false,low,false
CggCTwZT,31mcue39cnznpis152nuvogcfi93g2,317hq483ib5acxp04bceeynpm3vinm,CggCTwZT,2020-0188,2020-06-04,10:39:28,11:15:30,NA,incomplete,194,gender,3,1,right,A_M_08.jpg,A_F_06.jpg,C_M_04.jpg,left,1263.6749999946915,false,low,false
CggCTwZT,31mcue39cnznpis152nuvogcfi93g2,317hq483ib5acxp04bceeynpm3vinm,CggCTwZT,2020-0188,2020-06-04,10:39:28,11:15:30,NA,incomplete,195,gender,3,1,left,C_M_08.jpg,A_M_05.jpg,C_F_16.jpg,right,519.9700000230223,false,low,false
CggCTwZT,31mcue39cnznpis152nuvogcfi93g2,317hq483ib5acxp04bceeynpm3vinm,CggCTwZT,2020-0188,2020-06-04,10:39:28,11:15:30,NA,incomplete,196,gender,3,1,right,A_M_11.jpg,A_F_14.jpg,C_M_13.jpg,right,689.4500000053085,true,low,false
CggCTwZT,31mcue39cnznpis152nuvogcfi93g2,317hq483ib5acxp04bceeynpm3vinm,CggCTwZT,2020-0188,2020-06-04,10:39:28,11:15:30,NA,incomplete,197,gender,3,1,left,C_M_11.jpg,A_M_07.jpg,C_F_15.jpg,right,1121.0699999937788,false,low,false
CggCTwZT,31mcue39cnznpis152nuvogcfi93g2,317hq483ib5acxp04bceeynpm3vinm,CggCTwZT,2020-0188,2020-06-04,10:39:28,11:15:30,NA,incomplete,198,gender,3,0,right,C_M_12.jpg,C_F_03.jpg,A_M_08.jpg,left,1343.079999962356,false,low,false
CggCTwZT,31mcue39cnznpis152nuvogcfi93g2,317hq483ib5acxp04bceeynpm3vinm,CggCTwZT,2020-0188,2020-06-04,10:39:28,11:15:30,NA,incomplete,199,gender,3,1,left,A_F_07.jpg,C_F_16.jpg,A_M_14.jpg,left,1299.8650000081398,true,low,false
CggCTwZT,31mcue39cnznpis152nuvogcfi93g2,317hq483ib5acxp04bceeynpm3vinm,CggCTwZT,2020-0188,2020-06-04,10:39:28,11:15:30,NA,incomplete,200,race,2,1,right,A_F_13.jpg,C_F_06.jpg,A_M_11.jpg,right,1091.0499999881722,true,low,false
CggCTwZT,31mcue39cnznpis152nuvogcfi93g2,317hq483ib5acxp04bceeynpm3vinm,CggCTwZT,2020-0188,2020-06-04,10:39:28,11:15:30,NA,incomplete,201,race,2,1,right,C_F_06.jpg,A_F_05.jpg,C_M_16.jpg,right,1226.1900000157766,true,low,false
CggCTwZT,31mcue39cnznpis152nuvogcfi93g2,317hq483ib5acxp04bceeynpm3vinm,CggCTwZT,2020-0188,2020-06-04,10:39:28,11:15:30,NA,incomplete,202,race,2,1,right,A_F_11.jpg,C_F_05.jpg,A_M_09.jpg,left,1331.9450000417419,false,low,false
CggCTwZT,31mcue39cnznpis152nuvogcfi93g2,317hq483ib5acxp04bceeynpm3vinm,CggCTwZT,2020-0188,2020-06-04,10:39:28,11:15:30,NA,incomplete,203,race,2,1,left,C_F_12.jpg,C_M_09.jpg,A_F_06.jpg,right,1065.535000001546,false,low,false
CggCTwZT,31mcue39cnznpis152nuvogcfi93g2,317hq483ib5acxp04bceeynpm3vinm,CggCTwZT,2020-0188,2020-06-04,10:39:28,11:15:30,NA,incomplete,204,race,2,1,right,C_M_09.jpg,A_M_01.jpg,C_F_07.jpg,right,1554.8950000084005,true,low,false
CggCTwZT,31mcue39cnznpis152nuvogcfi93g2,317hq483ib5acxp04bceeynpm3vinm,CggCTwZT,2020-0188,2020-06-04,10:39:28,11:15:30,NA,incomplete,205,race,2,0,left,C_M_08.jpg,C_F_14.jpg,A_M_05.jpg,right,1334.4899999792688,false,low,false
CggCTwZT,31mcue39cnznpis152nuvogcfi93g2,317hq483ib5acxp04bceeynpm3vinm,CggCTwZT,2020-0188,2020-06-04,10:39:28,11:15:30,NA,incomplete,206,race,2,1,left,A_F_14.jpg,A_M_08.jpg,C_F_02.jpg,left,724.0149999852292,true,low,false
CggCTwZT,31mcue39cnznpis152nuvogcfi93g2,317hq483ib5acxp04bceeynpm3vinm,CggCTwZT,2020-0188,2020-06-04,10:39:28,11:15:30,NA,incomplete,207,race,2,1,right,A_F_14.jpg,C_F_01.jpg,A_M_12.jpg,left,1147.6800000527874,false,low,false
CggCTwZT,31mcue39cnznpis152nuvogcfi93g2,317hq483ib5acxp04bceeynpm3vinm,CggCTwZT,2020-0188,2020-06-04,10:39:28,11:15:30,NA,incomplete,208,race,2,1,left,C_F_15.jpg,C_M_13.jpg,A_F_14.jpg,left,1073.3849999960512,true,low,false
CggCTwZT,31mcue39cnznpis152nuvogcfi93g2,317hq483ib5acxp04bceeynpm3vinm,CggCTwZT,2020-0188,2020-06-04,10:39:28,11:15:30,NA,incomplete,209,race,2,0,right,C_F_03.jpg,A_F_05.jpg,C_M_10.jpg,right,1088.709999981802,true,low,false
CggCTwZT,31mcue39cnznpis152nuvogcfi93g2,317hq483ib5acxp04bceeynpm3vinm,CggCTwZT,2020-0188,2020-06-04,10:39:28,11:15:30,NA,incomplete,210,race,2,1,right,C_F_02.jpg,A_F_16.jpg,C_M_12.jpg,right,984.5149999600835,true,low,false
CggCTwZT,31mcue39cnznpis152nuvogcfi93g2,317hq483ib5acxp04bceeynpm3vinm,CggCTwZT,2020-0188,2020-06-04,10:39:28,11:15:30,NA,incomplete,211,race,2,1,right,A_F_10.jpg,C_F_03.jpg,A_M_13.jpg,left,1253.5550000029616,false,low,false
CggCTwZT,31mcue39cnznpis152nuvogcfi93g2,317hq483ib5acxp04bceeynpm3vinm,CggCTwZT,2020-0188,2020-06-04,10:39:28,11:15:30,NA,incomplete,212,race,2,0,right,C_F_07.jpg,A_F_13.jpg,C_M_09.jpg,left,1214.8600000073202,false,low,false
CggCTwZT,31mcue39cnznpis152nuvogcfi93g2,317hq483ib5acxp04bceeynpm3vinm,CggCTwZT,2020-0188,2020-06-04,10:39:28,11:15:30,NA,incomplete,213,race,2,1,right,C_M_01.jpg,A_M_05.jpg,C_F_14.jpg,left,1840.9749999991618,false,low,false
CggCTwZT,31mcue39cnznpis152nuvogcfi93g2,317hq483ib5acxp04bceeynpm3vinm,CggCTwZT,2020-0188,2020-06-04,10:39:28,11:15:30,NA,incomplete,214,race,2,1,right,C_F_15.jpg,A_F_14.jpg,C_M_03.jpg,left,1279.5650000334717,false,low,false
CggCTwZT,31mcue39cnznpis152nuvogcfi93g2,317hq483ib5acxp04bceeynpm3vinm,CggCTwZT,2020-0188,2020-06-04,10:39:28,11:15:30,NA,incomplete,215,race,2,1,right,A_F_13.jpg,C_F_04.jpg,A_M_05.jpg,right,983.5800000000745,true,low,false
CggCTwZT,31mcue39cnznpis152nuvogcfi93g2,317hq483ib5acxp04bceeynpm3vinm,CggCTwZT,2020-0188,2020-06-04,10:39:28,11:15:30,NA,incomplete,216,race,2,1,right,A_M_16.jpg,C_M_08.jpg,A_F_04.jpg,left,1172.1299999626353,false,low,false
CggCTwZT,31mcue39cnznpis152nuvogcfi93g2,317hq483ib5acxp04bceeynpm3vinm,CggCTwZT,2020-0188,2020-06-04,10:39:28,11:15:30,NA,incomplete,217,race,2,1,left,A_M_11.jpg,A_F_04.jpg,C_M_03.jpg,right,984.6450000186451,false,low,false
CggCTwZT,31mcue39cnznpis152nuvogcfi93g2,317hq483ib5acxp04bceeynpm3vinm,CggCTwZT,2020-0188,2020-06-04,10:39:28,11:15:30,NA,incomplete,218,race,2,1,left,C_F_16.jpg,C_M_04.jpg,A_F_11.jpg,left,1124.279999989085,true,low,false
CggCTwZT,31mcue39cnznpis152nuvogcfi93g2,317hq483ib5acxp04bceeynpm3vinm,CggCTwZT,2020-0188,2020-06-04,10:39:28,11:15:30,NA,incomplete,219,race,2,1,left,A_M_05.jpg,A_F_02.jpg,C_M_04.jpg,left,1451.0000000009313,true,low,false
CggCTwZT,31mcue39cnznpis152nuvogcfi93g2,317hq483ib5acxp04bceeynpm3vinm,CggCTwZT,2020-0188,2020-06-04,10:39:28,11:15:30,NA,incomplete,220,gender,3,1,right,A_F_03.jpg,A_M_06.jpg,C_F_12.jpg,left,1228.2049999921583,false,low,false
CggCTwZT,31mcue39cnznpis152nuvogcfi93g2,317hq483ib5acxp04bceeynpm3vinm,CggCTwZT,2020-0188,2020-06-04,10:39:28,11:15:30,NA,incomplete,221,gender,3,1,right,A_F_15.jpg,A_M_09.jpg,C_F_07.jpg,right,1244.8749999748543,true,low,false
CggCTwZT,31mcue39cnznpis152nuvogcfi93g2,317hq483ib5acxp04bceeynpm3vinm,CggCTwZT,2020-0188,2020-06-04,10:39:28,11:15:30,NA,incomplete,222,gender,3,1,right,C_F_12.jpg,C_M_02.jpg,A_F_14.jpg,left,1262.1199999703094,false,low,false
CggCTwZT,31mcue39cnznpis152nuvogcfi93g2,317hq483ib5acxp04bceeynpm3vinm,CggCTwZT,2020-0188,2020-06-04,10:39:28,11:15:30,NA,incomplete,223,gender,3,1,left,C_M_02.jpg,A_M_12.jpg,C_F_10.jpg,right,742.0599999604747,false,low,false
CggCTwZT,31mcue39cnznpis152nuvogcfi93g2,317hq483ib5acxp04bceeynpm3vinm,CggCTwZT,2020-0188,2020-06-04,10:39:28,11:15:30,NA,incomplete,224,gender,3,0,right,C_M_14.jpg,C_F_10.jpg,A_M_13.jpg,left,1173.0450000031851,false,low,false
CggCTwZT,31mcue39cnznpis152nuvogcfi93g2,317hq483ib5acxp04bceeynpm3vinm,CggCTwZT,2020-0188,2020-06-04,10:39:28,11:15:30,NA,incomplete,225,gender,3,1,right,C_F_13.jpg,C_M_01.jpg,A_F_08.jpg,left,1288.9750000322238,false,low,false
CggCTwZT,31mcue39cnznpis152nuvogcfi93g2,317hq483ib5acxp04bceeynpm3vinm,CggCTwZT,2020-0188,2020-06-04,10:39:28,11:15:30,NA,incomplete,226,gender,3,1,left,A_F_06.jpg,C_F_09.jpg,A_M_14.jpg,right,663.5900000110269,false,low,false
CggCTwZT,31mcue39cnznpis152nuvogcfi93g2,317hq483ib5acxp04bceeynpm3vinm,CggCTwZT,2020-0188,2020-06-04,10:39:28,11:15:30,NA,incomplete,227,gender,3,1,right,A_F_03.jpg,A_M_14.jpg,C_F_10.jpg,left,531.3249999890104,false,low,false
CggCTwZT,31mcue39cnznpis152nuvogcfi93g2,317hq483ib5acxp04bceeynpm3vinm,CggCTwZT,2020-0188,2020-06-04,10:39:28,11:15:30,NA,incomplete,228,gender,3,1,right,A_M_02.jpg,A_F_07.jpg,C_M_09.jpg,right,698.3699999982491,true,low,false
CggCTwZT,31mcue39cnznpis152nuvogcfi93g2,317hq483ib5acxp04bceeynpm3vinm,CggCTwZT,2020-0188,2020-06-04,10:39:28,11:15:30,NA,incomplete,229,gender,3,1,right,A_F_15.jpg,A_M_12.jpg,C_F_09.jpg,right,651.8350000260398,true,low,false
CggCTwZT,31mcue39cnznpis152nuvogcfi93g2,317hq483ib5acxp04bceeynpm3vinm,CggCTwZT,2020-0188,2020-06-04,10:39:28,11:15:30,NA,incomplete,230,gender,3,1,left,C_M_01.jpg,A_M_05.jpg,C_F_10.jpg,right,766.3399999728426,false,low,false
CggCTwZT,31mcue39cnznpis152nuvogcfi93g2,317hq483ib5acxp04bceeynpm3vinm,CggCTwZT,2020-0188,2020-06-04,10:39:28,11:15:30,NA,incomplete,231,gender,3,1,left,C_M_13.jpg,A_M_12.jpg,C_F_07.jpg,left,500.77499996405095,true,low,false
CggCTwZT,31mcue39cnznpis152nuvogcfi93g2,317hq483ib5acxp04bceeynpm3vinm,CggCTwZT,2020-0188,2020-06-04,10:39:28,11:15:30,NA,incomplete,232,gender,3,1,right,C_F_12.jpg,C_M_05.jpg,A_F_02.jpg,left,1430.3349999827333,false,low,false
CggCTwZT,31mcue39cnznpis152nuvogcfi93g2,317hq483ib5acxp04bceeynpm3vinm,CggCTwZT,2020-0188,2020-06-04,10:39:28,11:15:30,NA,incomplete,233,gender,3,0,left,C_F_13.jpg,A_F_01.jpg,C_M_05.jpg,right,1639.9300000048243,false,low,false
CggCTwZT,31mcue39cnznpis152nuvogcfi93g2,317hq483ib5acxp04bceeynpm3vinm,CggCTwZT,2020-0188,2020-06-04,10:39:28,11:15:30,NA,incomplete,234,gender,3,1,left,A_M_03.jpg,C_M_04.jpg,A_F_06.jpg,left,967.0449999975972,true,low,false
CggCTwZT,31mcue39cnznpis152nuvogcfi93g2,317hq483ib5acxp04bceeynpm3vinm,CggCTwZT,2020-0188,2020-06-04,10:39:28,11:15:30,NA,incomplete,235,gender,3,1,right,A_M_02.jpg,A_F_16.jpg,C_M_13.jpg,right,1636.5500000538304,true,low,false
CggCTwZT,31mcue39cnznpis152nuvogcfi93g2,317hq483ib5acxp04bceeynpm3vinm,CggCTwZT,2020-0188,2020-06-04,10:39:28,11:15:30,NA,incomplete,236,gender,3,0,right,C_F_09.jpg,C_M_15.jpg,A_F_03.jpg,right,1228.4199999994598,true,low,false
CggCTwZT,31mcue39cnznpis152nuvogcfi93g2,317hq483ib5acxp04bceeynpm3vinm,CggCTwZT,2020-0188,2020-06-04,10:39:28,11:15:30,NA,incomplete,237,gender,3,1,right,A_M_05.jpg,A_F_10.jpg,C_M_15.jpg,left,1366.6149999480695,false,low,false
CggCTwZT,31mcue39cnznpis152nuvogcfi93g2,317hq483ib5acxp04bceeynpm3vinm,CggCTwZT,2020-0188,2020-06-04,10:39:28,11:15:30,NA,incomplete,238,gender,3,1,right,A_M_11.jpg,A_F_03.jpg,C_M_05.jpg,right,1162.6200000173412,true,low,false
CggCTwZT,31mcue39cnznpis152nuvogcfi93g2,317hq483ib5acxp04bceeynpm3vinm,CggCTwZT,2020-0188,2020-06-04,10:39:28,11:15:30,NA,incomplete,239,gender,3,1,left,A_M_13.jpg,C_M_11.jpg,A_F_03.jpg,right,1119.0449999994598,false,low,false
CggCTwZT,31mcue39cnznpis152nuvogcfi93g2,317hq483ib5acxp04bceeynpm3vinm,CggCTwZT,2020-0188,2020-06-04,10:39:28,11:15:30,NA,NA,instruction example,color,NA,NA,NA,Red_Star_Dots_3.jpg,Red_Plus_Grid_1.jpg,Green_Star_Chess_2.jpg,NA,NA,NA,NA,undefined
CggCTwZT,31mcue39cnznpis152nuvogcfi93g2,317hq483ib5acxp04bceeynpm3vinm,CggCTwZT,2020-0188,2020-06-04,10:39:28,11:15:30,NA,NA,instruction example,color,NA,NA,NA,Green_Plus_Stripes_3.jpg,Red_Plus_Chess_1.jpg,Green_Triangle_Dots_2.jpg,NA,NA,NA,NA,undefined
CggCTwZT,31mcue39cnznpis152nuvogcfi93g2,317hq483ib5acxp04bceeynpm3vinm,CggCTwZT,2020-0188,2020-06-04,10:39:28,11:15:30,NA,NA,instruction example,color,NA,NA,NA,A_M_04.jpg,A_F_14.jpg,C_M_05.jpg,NA,NA,NA,NA,undefined
CggCTwZT,31mcue39cnznpis152nuvogcfi93g2,317hq483ib5acxp04bceeynpm3vinm,CggCTwZT,2020-0188,2020-06-04,10:39:28,11:15:30,NA,NA,instruction example,color,NA,NA,NA,A_M_02.jpg,C_M_15.jpg,A_F_12.jpg,NA,NA,NA,NA,undefined
CggCTwZT,31mcue39cnznpis152nuvogcfi93g2,317hq483ib5acxp04bceeynpm3vinm,CggCTwZT,2020-0188,2020-06-04,10:39:28,11:15:30,2098822.0300000394,2168487.6400000066,NA,NA,NA,NA,NA,NA,NA,NA,NA,NA,NA,NA,undefined
