workerId,hitId,assignmentId,subject,studyid,exp_date,exp_start,exp_end,time_start,time_end,trial,type,sequence,reward_validity,answer,image_top,image_left,image_right,response,response_time,response_acc,volatility,age,race,gender,ethnicity,color,vision,neuro,practice
hRCa6JHY,3pgqrazx15xrvqygpna1awvsi04ysb,3180jw2ot8p2hj30it1swi2449mj5x,hRCa6JHY,2020-0188,2020-11-16,21:56:03,22:18:29,NA,incomplete,0,number,0,1,left,Red_Plus_Stripes_3.jpg,Purple_Star_Dots_3.jpg,Green_Plus_Chess_4.jpg,right,1615.9199999965494,false,NA,NA,NA,NA,NA,NA,NA,NA,true
hRCa6JHY,3pgqrazx15xrvqygpna1awvsi04ysb,3180jw2ot8p2hj30it1swi2449mj5x,hRCa6JHY,2020-0188,2020-11-16,21:56:03,22:18:29,NA,incomplete,1,number,0,1,left,Purple_Plus_Stripes_1.jpg,Green_Star_Dots_1.jpg,Red_Plus_Chess_3.jpg,left,886.175000003248,true,NA,NA,NA,NA,NA,NA,NA,NA,true
hRCa6JHY,3pgqrazx15xrvqygpna1awvsi04ysb,3180jw2ot8p2hj30it1swi2449mj5x,hRCa6JHY,2020-0188,2020-11-16,21:56:03,22:18:29,NA,incomplete,2,number,0,1,right,Green_Plus_Dots_2.jpg,Purple_Plus_Grid_1.jpg,Red_Circle_Chess_2.jpg,right,887.0499999975436,true,NA,NA,NA,NA,NA,NA,NA,NA,true
hRCa6JHY,3pgqrazx15xrvqygpna1awvsi04ysb,3180jw2ot8p2hj30it1swi2449mj5x,hRCa6JHY,2020-0188,2020-11-16,21:56:03,22:18:29,NA,incomplete,3,number,0,1,right,Red_Star_Chess_2.jpg,Green_Star_Stripes_1.jpg,Blue_Circle_Dots_2.jpg,right,911.7800000022398,true,NA,NA,NA,NA,NA,NA,NA,NA,true
hRCa6JHY,3pgqrazx15xrvqygpna1awvsi04ysb,3180jw2ot8p2hj30it1swi2449mj5x,hRCa6JHY,2020-0188,2020-11-16,21:56:03,22:18:29,NA,incomplete,4,number,0,1,left,Green_Triangle_Grid_4.jpg,Purple_Plus_Dots_4.jpg,Blue_Triangle_Chess_2.jpg,left,808.5399999981746,true,NA,NA,NA,NA,NA,NA,NA,NA,true
hRCa6JHY,3pgqrazx15xrvqygpna1awvsi04ysb,3180jw2ot8p2hj30it1swi2449mj5x,hRCa6JHY,2020-0188,2020-11-16,21:56:03,22:18:29,NA,incomplete,5,number,0,1,left,Blue_Circle_Stripes_1.jpg,Purple_Plus_Chess_1.jpg,Green_Circle_Dots_4.jpg,left,827.9299999994691,true,NA,NA,NA,NA,NA,NA,NA,NA,true
hRCa6JHY,3pgqrazx15xrvqygpna1awvsi04ysb,3180jw2ot8p2hj30it1swi2449mj5x,hRCa6JHY,2020-0188,2020-11-16,21:56:03,22:18:29,NA,incomplete,6,number,0,1,right,Purple_Plus_Stripes_1.jpg,Blue_Plus_Chess_3.jpg,Red_Star_Dots_1.jpg,right,831.1250000006403,true,NA,NA,NA,NA,NA,NA,NA,NA,true
hRCa6JHY,3pgqrazx15xrvqygpna1awvsi04ysb,3180jw2ot8p2hj30it1swi2449mj5x,hRCa6JHY,2020-0188,2020-11-16,21:56:03,22:18:29,NA,incomplete,7,number,0,0,right,Red_Star_Stripes_2.jpg,Purple_Star_Dots_3.jpg,Green_Plus_Grid_2.jpg,right,968.9450000005309,true,NA,NA,NA,NA,NA,NA,NA,NA,true
hRCa6JHY,3pgqrazx15xrvqygpna1awvsi04ysb,3180jw2ot8p2hj30it1swi2449mj5x,hRCa6JHY,2020-0188,2020-11-16,21:56:03,22:18:29,NA,incomplete,8,number,0,1,right,Purple_Triangle_Grid_1.jpg,Blue_Triangle_Dots_3.jpg,Red_Circle_Stripes_1.jpg,right,774.8099999990081,true,NA,NA,NA,NA,NA,NA,NA,NA,true
hRCa6JHY,3pgqrazx15xrvqygpna1awvsi04ysb,3180jw2ot8p2hj30it1swi2449mj5x,hRCa6JHY,2020-0188,2020-11-16,21:56:03,22:18:29,NA,incomplete,9,number,0,1,right,Green_Triangle_Chess_1.jpg,Red_Triangle_Stripes_2.jpg,Purple_Plus_Dots_1.jpg,right,844.7100000011851,true,NA,NA,NA,NA,NA,NA,NA,NA,true
hRCa6JHY,3pgqrazx15xrvqygpna1awvsi04ysb,3180jw2ot8p2hj30it1swi2449mj5x,hRCa6JHY,2020-0188,2020-11-16,21:56:03,22:18:29,NA,incomplete,10,number,0,1,right,Purple_Circle_Chess_2.jpg,Red_Circle_Grid_1.jpg,Blue_Triangle_Stripes_2.jpg,right,766.5850000011851,true,NA,NA,NA,NA,NA,NA,NA,NA,true
hRCa6JHY,3pgqrazx15xrvqygpna1awvsi04ysb,3180jw2ot8p2hj30it1swi2449mj5x,hRCa6JHY,2020-0188,2020-11-16,21:56:03,22:18:29,NA,incomplete,11,number,0,1,left,Red_Star_Dots_3.jpg,Blue_Triangle_Stripes_3.jpg,Purple_Star_Grid_2.jpg,left,859.970000001369,true,NA,NA,NA,NA,NA,NA,NA,NA,true
hRCa6JHY,3pgqrazx15xrvqygpna1awvsi04ysb,3180jw2ot8p2hj30it1swi2449mj5x,hRCa6JHY,2020-0188,2020-11-16,21:56:03,22:18:29,NA,incomplete,12,number,0,0,right,Blue_Plus_Stripes_1.jpg,Green_Plus_Chess_3.jpg,Red_Circle_Dots_1.jpg,right,830.0449999988195,true,NA,NA,NA,NA,NA,NA,NA,NA,true
hRCa6JHY,3pgqrazx15xrvqygpna1awvsi04ysb,3180jw2ot8p2hj30it1swi2449mj5x,hRCa6JHY,2020-0188,2020-11-16,21:56:03,22:18:29,NA,incomplete,13,number,0,0,left,Blue_Circle_Dots_2.jpg,Purple_Plus_Grid_2.jpg,Red_Circle_Stripes_4.jpg,left,792.3950000003679,true,NA,NA,NA,NA,NA,NA,NA,NA,true
hRCa6JHY,3pgqrazx15xrvqygpna1awvsi04ysb,3180jw2ot8p2hj30it1swi2449mj5x,hRCa6JHY,2020-0188,2020-11-16,21:56:03,22:18:29,NA,incomplete,14,number,0,1,right,Blue_Plus_Dots_3.jpg,Purple_Plus_Chess_1.jpg,Red_Star_Grid_3.jpg,right,892.7399999993504,true,NA,NA,NA,NA,NA,NA,NA,NA,true
hRCa6JHY,3pgqrazx15xrvqygpna1awvsi04ysb,3180jw2ot8p2hj30it1swi2449mj5x,hRCa6JHY,2020-0188,2020-11-16,21:56:03,22:18:29,NA,incomplete,15,number,0,1,left,Purple_Circle_Dots_2.jpg,Red_Plus_Stripes_2.jpg,Green_Circle_Chess_4.jpg,left,670.4250000002212,true,NA,NA,NA,NA,NA,NA,NA,NA,true
hRCa6JHY,3pgqrazx15xrvqygpna1awvsi04ysb,3180jw2ot8p2hj30it1swi2449mj5x,hRCa6JHY,2020-0188,2020-11-16,21:56:03,22:18:29,NA,incomplete,16,number,0,1,left,Purple_Plus_Chess_4.jpg,Green_Triangle_Stripes_4.jpg,Red_Plus_Dots_3.jpg,left,663.3650000003399,true,NA,NA,NA,NA,NA,NA,NA,NA,true
hRCa6JHY,3pgqrazx15xrvqygpna1awvsi04ysb,3180jw2ot8p2hj30it1swi2449mj5x,hRCa6JHY,2020-0188,2020-11-16,21:56:03,22:18:29,NA,incomplete,17,number,0,0,left,Purple_Circle_Grid_4.jpg,Blue_Triangle_Dots_4.jpg,Red_Circle_Chess_2.jpg,left,744.7900000006193,true,NA,NA,NA,NA,NA,NA,NA,NA,true
hRCa6JHY,3pgqrazx15xrvqygpna1awvsi04ysb,3180jw2ot8p2hj30it1swi2449mj5x,hRCa6JHY,2020-0188,2020-11-16,21:56:03,22:18:29,NA,incomplete,18,number,0,0,left,Blue_Triangle_Stripes_1.jpg,Red_Plus_Grid_1.jpg,Purple_Triangle_Chess_2.jpg,left,941.6300000011688,true,NA,NA,NA,NA,NA,NA,NA,NA,true
hRCa6JHY,3pgqrazx15xrvqygpna1awvsi04ysb,3180jw2ot8p2hj30it1swi2449mj5x,hRCa6JHY,2020-0188,2020-11-16,21:56:03,22:18:29,NA,incomplete,19,number,0,1,right,Green_Star_Stripes_3.jpg,Purple_Star_Dots_1.jpg,Red_Triangle_Grid_3.jpg,right,869.2300000002724,true,NA,NA,NA,NA,NA,NA,NA,NA,true
hRCa6JHY,3pgqrazx15xrvqygpna1awvsi04ysb,3180jw2ot8p2hj30it1swi2449mj5x,hRCa6JHY,2020-0188,2020-11-16,21:56:03,22:18:29,NA,incomplete,20,shape,1,1,left,Purple_Triangle_Chess_3.jpg,Green_Triangle_Grid_2.jpg,Blue_Plus_Dots_3.jpg,left,1133.705000000191,true,NA,NA,NA,NA,NA,NA,NA,NA,true
hRCa6JHY,3pgqrazx15xrvqygpna1awvsi04ysb,3180jw2ot8p2hj30it1swi2449mj5x,hRCa6JHY,2020-0188,2020-11-16,21:56:03,22:18:29,NA,incomplete,21,shape,1,1,right,Red_Plus_Chess_1.jpg,Green_Triangle_Dots_1.jpg,Purple_Plus_Grid_4.jpg,right,884.5050000017509,true,NA,NA,NA,NA,NA,NA,NA,NA,true
hRCa6JHY,3pgqrazx15xrvqygpna1awvsi04ysb,3180jw2ot8p2hj30it1swi2449mj5x,hRCa6JHY,2020-0188,2020-11-16,21:56:03,22:18:29,NA,incomplete,22,shape,1,1,left,Purple_Triangle_Stripes_1.jpg,Blue_Triangle_Dots_3.jpg,Green_Star_Grid_1.jpg,left,933.1199999978417,true,NA,NA,NA,NA,NA,NA,NA,NA,true
hRCa6JHY,3pgqrazx15xrvqygpna1awvsi04ysb,3180jw2ot8p2hj30it1swi2449mj5x,hRCa6JHY,2020-0188,2020-11-16,21:56:03,22:18:29,NA,incomplete,23,shape,1,1,right,Blue_Triangle_Stripes_3.jpg,Purple_Plus_Dots_3.jpg,Red_Triangle_Grid_2.jpg,right,772.8399999978719,true,NA,NA,NA,NA,NA,NA,NA,NA,true
hRCa6JHY,3pgqrazx15xrvqygpna1awvsi04ysb,3180jw2ot8p2hj30it1swi2449mj5x,hRCa6JHY,2020-0188,2020-11-16,21:56:03,22:18:29,NA,incomplete,24,shape,1,1,left,Blue_Triangle_Stripes_4.jpg,Red_Triangle_Chess_2.jpg,Green_Circle_Dots_4.jpg,left,801.8800000026822,true,NA,NA,NA,NA,NA,NA,NA,NA,true
hRCa6JHY,3pgqrazx15xrvqygpna1awvsi04ysb,3180jw2ot8p2hj30it1swi2449mj5x,hRCa6JHY,2020-0188,2020-11-16,21:56:03,22:18:29,NA,incomplete,25,shape,1,1,right,Blue_Circle_Grid_4.jpg,Red_Plus_Dots_4.jpg,Purple_Circle_Stripes_1.jpg,right,773.8850000023376,true,NA,NA,NA,NA,NA,NA,NA,NA,true
hRCa6JHY,3pgqrazx15xrvqygpna1awvsi04ysb,3180jw2ot8p2hj30it1swi2449mj5x,hRCa6JHY,2020-0188,2020-11-16,21:56:03,22:18:29,NA,incomplete,26,shape,1,1,right,Green_Plus_Grid_1.jpg,Red_Star_Chess_1.jpg,Blue_Plus_Dots_4.jpg,right,827.1449999993201,true,NA,NA,NA,NA,NA,NA,NA,NA,true
hRCa6JHY,3pgqrazx15xrvqygpna1awvsi04ysb,3180jw2ot8p2hj30it1swi2449mj5x,hRCa6JHY,2020-0188,2020-11-16,21:56:03,22:18:29,NA,incomplete,27,shape,1,0,right,Purple_Star_Chess_1.jpg,Green_Triangle_Grid_1.jpg,Red_Star_Dots_4.jpg,left,957.3249999993714,false,NA,NA,NA,NA,NA,NA,NA,NA,true
hRCa6JHY,3pgqrazx15xrvqygpna1awvsi04ysb,3180jw2ot8p2hj30it1swi2449mj5x,hRCa6JHY,2020-0188,2020-11-16,21:56:03,22:18:29,NA,incomplete,28,shape,1,1,right,Blue_Triangle_Stripes_4.jpg,Purple_Circle_Grid_4.jpg,Red_Triangle_Chess_3.jpg,right,891.5400000005029,true,NA,NA,NA,NA,NA,NA,NA,NA,true
hRCa6JHY,3pgqrazx15xrvqygpna1awvsi04ysb,3180jw2ot8p2hj30it1swi2449mj5x,hRCa6JHY,2020-0188,2020-11-16,21:56:03,22:18:29,NA,incomplete,29,shape,1,0,right,Purple_Plus_Grid_4.jpg,Green_Circle_Stripes_4.jpg,Blue_Plus_Chess_3.jpg,right,765.384999998787,true,NA,NA,NA,NA,NA,NA,NA,NA,true
hRCa6JHY,3pgqrazx15xrvqygpna1awvsi04ysb,3180jw2ot8p2hj30it1swi2449mj5x,hRCa6JHY,2020-0188,2020-11-16,21:56:03,22:18:29,NA,incomplete,30,shape,1,1,right,Blue_Plus_Grid_2.jpg,Purple_Circle_Chess_2.jpg,Green_Plus_Dots_3.jpg,right,809.7350000025472,true,NA,NA,NA,NA,NA,NA,NA,NA,true
hRCa6JHY,3pgqrazx15xrvqygpna1awvsi04ysb,3180jw2ot8p2hj30it1swi2449mj5x,hRCa6JHY,2020-0188,2020-11-16,21:56:03,22:18:29,NA,incomplete,31,shape,1,1,left,Blue_Star_Grid_4.jpg,Red_Star_Dots_1.jpg,Green_Plus_Stripes_4.jpg,left,1124.2649999985588,true,NA,NA,NA,NA,NA,NA,NA,NA,true
hRCa6JHY,3pgqrazx15xrvqygpna1awvsi04ysb,3180jw2ot8p2hj30it1swi2449mj5x,hRCa6JHY,2020-0188,2020-11-16,21:56:03,22:18:29,NA,incomplete,32,shape,1,1,left,Blue_Triangle_Dots_3.jpg,Purple_Triangle_Stripes_1.jpg,Green_Circle_Grid_3.jpg,left,709.9550000021118,true,NA,NA,NA,NA,NA,NA,NA,NA,true
hRCa6JHY,3pgqrazx15xrvqygpna1awvsi04ysb,3180jw2ot8p2hj30it1swi2449mj5x,hRCa6JHY,2020-0188,2020-11-16,21:56:03,22:18:29,NA,incomplete,33,shape,1,1,right,Purple_Triangle_Dots_2.jpg,Red_Star_Chess_2.jpg,Blue_Triangle_Grid_4.jpg,right,868.9849999973667,true,NA,NA,NA,NA,NA,NA,NA,NA,true
hRCa6JHY,3pgqrazx15xrvqygpna1awvsi04ysb,3180jw2ot8p2hj30it1swi2449mj5x,hRCa6JHY,2020-0188,2020-11-16,21:56:03,22:18:29,NA,incomplete,34,shape,1,0,left,Blue_Star_Grid_2.jpg,Red_Star_Dots_4.jpg,Purple_Plus_Stripes_2.jpg,left,1037.3150000013993,true,NA,NA,NA,NA,NA,NA,NA,NA,true
hRCa6JHY,3pgqrazx15xrvqygpna1awvsi04ysb,3180jw2ot8p2hj30it1swi2449mj5x,hRCa6JHY,2020-0188,2020-11-16,21:56:03,22:18:29,NA,incomplete,35,shape,1,1,left,Green_Circle_Dots_1.jpg,Red_Circle_Grid_4.jpg,Blue_Plus_Stripes_1.jpg,left,673.7450000001118,true,NA,NA,NA,NA,NA,NA,NA,NA,true
hRCa6JHY,3pgqrazx15xrvqygpna1awvsi04ysb,3180jw2ot8p2hj30it1swi2449mj5x,hRCa6JHY,2020-0188,2020-11-16,21:56:03,22:18:29,NA,incomplete,36,shape,1,1,left,Green_Star_Grid_4.jpg,Purple_Star_Stripes_3.jpg,Red_Circle_Dots_4.jpg,left,738.260000001872,true,NA,NA,NA,NA,NA,NA,NA,NA,true
hRCa6JHY,3pgqrazx15xrvqygpna1awvsi04ysb,3180jw2ot8p2hj30it1swi2449mj5x,hRCa6JHY,2020-0188,2020-11-16,21:56:03,22:18:29,NA,incomplete,37,shape,1,1,left,Green_Triangle_Dots_2.jpg,Purple_Triangle_Grid_4.jpg,Blue_Star_Chess_2.jpg,left,817.0649999992456,true,NA,NA,NA,NA,NA,NA,NA,NA,true
hRCa6JHY,3pgqrazx15xrvqygpna1awvsi04ysb,3180jw2ot8p2hj30it1swi2449mj5x,hRCa6JHY,2020-0188,2020-11-16,21:56:03,22:18:29,NA,incomplete,38,shape,1,1,left,Blue_Star_Dots_3.jpg,Green_Star_Grid_2.jpg,Purple_Circle_Stripes_3.jpg,left,796.7100000023493,true,NA,NA,NA,NA,NA,NA,NA,NA,true
hRCa6JHY,3pgqrazx15xrvqygpna1awvsi04ysb,3180jw2ot8p2hj30it1swi2449mj5x,hRCa6JHY,2020-0188,2020-11-16,21:56:03,22:18:29,NA,incomplete,39,shape,1,1,right,Blue_Star_Dots_1.jpg,Red_Circle_Grid_1.jpg,Green_Star_Stripes_3.jpg,right,705.4600000010105,true,NA,NA,NA,NA,NA,NA,NA,NA,true
hRCa6JHY,3pgqrazx15xrvqygpna1awvsi04ysb,3180jw2ot8p2hj30it1swi2449mj5x,hRCa6JHY,2020-0188,2020-11-16,21:56:03,22:18:29,NA,incomplete,0,number,0,0,right,Green_Star_Stripes_4.jpg,Blue_Star_Chess_1.jpg,Red_Triangle_Dots_4.jpg,left,1181.4249999988824,false,high,NA,NA,NA,NA,NA,NA,NA,false
hRCa6JHY,3pgqrazx15xrvqygpna1awvsi04ysb,3180jw2ot8p2hj30it1swi2449mj5x,hRCa6JHY,2020-0188,2020-11-16,21:56:03,22:18:29,NA,incomplete,1,number,0,1,left,Red_Triangle_Grid_4.jpg,Blue_Circle_Stripes_4.jpg,Green_Triangle_Chess_1.jpg,right,883.4449999994831,false,high,NA,NA,NA,NA,NA,NA,NA,false
hRCa6JHY,3pgqrazx15xrvqygpna1awvsi04ysb,3180jw2ot8p2hj30it1swi2449mj5x,hRCa6JHY,2020-0188,2020-11-16,21:56:03,22:18:29,NA,incomplete,2,number,0,1,left,Green_Star_Dots_2.jpg,Red_Plus_Chess_2.jpg,Blue_Star_Stripes_3.jpg,left,1401.574999999837,true,high,NA,NA,NA,NA,NA,NA,NA,false
hRCa6JHY,3pgqrazx15xrvqygpna1awvsi04ysb,3180jw2ot8p2hj30it1swi2449mj5x,hRCa6JHY,2020-0188,2020-11-16,21:56:03,22:18:29,NA,incomplete,3,number,0,1,right,Green_Circle_Dots_1.jpg,Blue_Circle_Grid_2.jpg,Purple_Star_Stripes_1.jpg,right,816.4949999991804,true,high,NA,NA,NA,NA,NA,NA,NA,false
hRCa6JHY,3pgqrazx15xrvqygpna1awvsi04ysb,3180jw2ot8p2hj30it1swi2449mj5x,hRCa6JHY,2020-0188,2020-11-16,21:56:03,22:18:29,NA,incomplete,4,number,0,0,left,Green_Star_Dots_2.jpg,Blue_Circle_Chess_2.jpg,Red_Star_Grid_3.jpg,left,883.3549999981187,true,high,NA,NA,NA,NA,NA,NA,NA,false
hRCa6JHY,3pgqrazx15xrvqygpna1awvsi04ysb,3180jw2ot8p2hj30it1swi2449mj5x,hRCa6JHY,2020-0188,2020-11-16,21:56:03,22:18:29,NA,incomplete,5,number,0,1,right,Red_Star_Grid_3.jpg,Green_Star_Chess_2.jpg,Purple_Triangle_Stripes_3.jpg,right,820.5400000005029,true,high,NA,NA,NA,NA,NA,NA,NA,false
hRCa6JHY,3pgqrazx15xrvqygpna1awvsi04ysb,3180jw2ot8p2hj30it1swi2449mj5x,hRCa6JHY,2020-0188,2020-11-16,21:56:03,22:18:29,NA,incomplete,6,number,0,1,left,Blue_Star_Stripes_3.jpg,Purple_Circle_Dots_3.jpg,Green_Star_Grid_2.jpg,left,824.060000002617,true,high,NA,NA,NA,NA,NA,NA,NA,false
hRCa6JHY,3pgqrazx15xrvqygpna1awvsi04ysb,3180jw2ot8p2hj30it1swi2449mj5x,hRCa6JHY,2020-0188,2020-11-16,21:56:03,22:18:29,NA,incomplete,7,number,0,1,left,Red_Star_Stripes_3.jpg,Green_Circle_Dots_3.jpg,Purple_Star_Chess_4.jpg,left,938.3500000004424,true,high,NA,NA,NA,NA,NA,NA,NA,false
hRCa6JHY,3pgqrazx15xrvqygpna1awvsi04ysb,3180jw2ot8p2hj30it1swi2449mj5x,hRCa6JHY,2020-0188,2020-11-16,21:56:03,22:18:29,NA,incomplete,8,number,0,1,right,Purple_Triangle_Dots_3.jpg,Blue_Triangle_Grid_4.jpg,Red_Circle_Stripes_3.jpg,right,778.070000000298,true,high,NA,NA,NA,NA,NA,NA,NA,false
hRCa6JHY,3pgqrazx15xrvqygpna1awvsi04ysb,3180jw2ot8p2hj30it1swi2449mj5x,hRCa6JHY,2020-0188,2020-11-16,21:56:03,22:18:29,NA,incomplete,9,number,0,1,right,Purple_Plus_Dots_1.jpg,Blue_Plus_Chess_3.jpg,Green_Circle_Stripes_1.jpg,right,1228.825000002049,true,high,NA,NA,NA,NA,NA,NA,NA,false
hRCa6JHY,3pgqrazx15xrvqygpna1awvsi04ysb,3180jw2ot8p2hj30it1swi2449mj5x,hRCa6JHY,2020-0188,2020-11-16,21:56:03,22:18:29,NA,incomplete,10,shape,1,1,left,Green_Plus_Stripes_2.jpg,Red_Plus_Chess_3.jpg,Purple_Star_Grid_2.jpg,right,746.2500000001164,false,high,NA,NA,NA,NA,NA,NA,NA,false
hRCa6JHY,3pgqrazx15xrvqygpna1awvsi04ysb,3180jw2ot8p2hj30it1swi2449mj5x,hRCa6JHY,2020-0188,2020-11-16,21:56:03,22:18:29,NA,incomplete,11,shape,1,1,left,Green_Circle_Dots_3.jpg,Blue_Circle_Grid_4.jpg,Purple_Star_Chess_3.jpg,right,872.1299999997718,false,high,NA,NA,NA,NA,NA,NA,NA,false
hRCa6JHY,3pgqrazx15xrvqygpna1awvsi04ysb,3180jw2ot8p2hj30it1swi2449mj5x,hRCa6JHY,2020-0188,2020-11-16,21:56:03,22:18:29,NA,incomplete,12,shape,1,1,right,Purple_Circle_Stripes_3.jpg,Red_Star_Grid_3.jpg,Green_Circle_Dots_4.jpg,left,824.2400000017369,false,high,NA,NA,NA,NA,NA,NA,NA,false
hRCa6JHY,3pgqrazx15xrvqygpna1awvsi04ysb,3180jw2ot8p2hj30it1swi2449mj5x,hRCa6JHY,2020-0188,2020-11-16,21:56:03,22:18:29,NA,incomplete,13,shape,1,1,right,Red_Plus_Stripes_1.jpg,Purple_Circle_Chess_1.jpg,Green_Plus_Dots_3.jpg,right,1138.4649999999674,true,high,NA,NA,NA,NA,NA,NA,NA,false
hRCa6JHY,3pgqrazx15xrvqygpna1awvsi04ysb,3180jw2ot8p2hj30it1swi2449mj5x,hRCa6JHY,2020-0188,2020-11-16,21:56:03,22:18:29,NA,incomplete,14,shape,1,1,left,Red_Triangle_Stripes_4.jpg,Purple_Triangle_Dots_1.jpg,Blue_Circle_Grid_4.jpg,left,890.9449999992503,true,high,NA,NA,NA,NA,NA,NA,NA,false
hRCa6JHY,3pgqrazx15xrvqygpna1awvsi04ysb,3180jw2ot8p2hj30it1swi2449mj5x,hRCa6JHY,2020-0188,2020-11-16,21:56:03,22:18:29,NA,incomplete,15,shape,1,1,left,Green_Star_Stripes_4.jpg,Blue_Star_Dots_1.jpg,Purple_Triangle_Grid_4.jpg,left,1297.6650000017835,true,high,NA,NA,NA,NA,NA,NA,NA,false
hRCa6JHY,3pgqrazx15xrvqygpna1awvsi04ysb,3180jw2ot8p2hj30it1swi2449mj5x,hRCa6JHY,2020-0188,2020-11-16,21:56:03,22:18:29,NA,incomplete,16,shape,1,1,left,Green_Star_Chess_2.jpg,Red_Star_Stripes_3.jpg,Purple_Triangle_Grid_2.jpg,left,1090.2500000011642,true,high,NA,NA,NA,NA,NA,NA,NA,false
hRCa6JHY,3pgqrazx15xrvqygpna1awvsi04ysb,3180jw2ot8p2hj30it1swi2449mj5x,hRCa6JHY,2020-0188,2020-11-16,21:56:03,22:18:29,NA,incomplete,17,shape,1,1,right,Blue_Plus_Grid_1.jpg,Green_Triangle_Chess_1.jpg,Red_Plus_Stripes_2.jpg,right,756.8600000012666,true,high,NA,NA,NA,NA,NA,NA,NA,false
hRCa6JHY,3pgqrazx15xrvqygpna1awvsi04ysb,3180jw2ot8p2hj30it1swi2449mj5x,hRCa6JHY,2020-0188,2020-11-16,21:56:03,22:18:29,NA,incomplete,18,shape,1,1,left,Red_Circle_Chess_4.jpg,Blue_Circle_Grid_1.jpg,Purple_Triangle_Stripes_4.jpg,left,866.1800000009825,true,high,NA,NA,NA,NA,NA,NA,NA,false
hRCa6JHY,3pgqrazx15xrvqygpna1awvsi04ysb,3180jw2ot8p2hj30it1swi2449mj5x,hRCa6JHY,2020-0188,2020-11-16,21:56:03,22:18:29,NA,incomplete,19,shape,1,1,right,Blue_Star_Grid_3.jpg,Green_Circle_Dots_3.jpg,Red_Star_Chess_4.jpg,left,1010.949999999837,false,high,NA,NA,NA,NA,NA,NA,NA,false
hRCa6JHY,3pgqrazx15xrvqygpna1awvsi04ysb,3180jw2ot8p2hj30it1swi2449mj5x,hRCa6JHY,2020-0188,2020-11-16,21:56:03,22:18:29,NA,incomplete,20,number,0,1,right,Purple_Plus_Chess_1.jpg,Red_Plus_Dots_4.jpg,Green_Circle_Stripes_1.jpg,left,791.2799999975832,false,high,NA,NA,NA,NA,NA,NA,NA,false
hRCa6JHY,3pgqrazx15xrvqygpna1awvsi04ysb,3180jw2ot8p2hj30it1swi2449mj5x,hRCa6JHY,2020-0188,2020-11-16,21:56:03,22:18:29,NA,incomplete,21,number,0,1,left,Green_Star_Grid_1.jpg,Blue_Circle_Dots_1.jpg,Purple_Star_Chess_4.jpg,left,987.1349999994272,true,high,NA,NA,NA,NA,NA,NA,NA,false
hRCa6JHY,3pgqrazx15xrvqygpna1awvsi04ysb,3180jw2ot8p2hj30it1swi2449mj5x,hRCa6JHY,2020-0188,2020-11-16,21:56:03,22:18:29,NA,incomplete,22,number,0,1,left,Blue_Triangle_Chess_4.jpg,Red_Star_Grid_4.jpg,Purple_Triangle_Dots_1.jpg,right,840.6349999967497,false,high,NA,NA,NA,NA,NA,NA,NA,false
hRCa6JHY,3pgqrazx15xrvqygpna1awvsi04ysb,3180jw2ot8p2hj30it1swi2449mj5x,hRCa6JHY,2020-0188,2020-11-16,21:56:03,22:18:29,NA,incomplete,23,number,0,1,left,Green_Triangle_Stripes_2.jpg,Red_Plus_Grid_2.jpg,Purple_Triangle_Chess_4.jpg,left,843.6149999980116,true,high,NA,NA,NA,NA,NA,NA,NA,false
hRCa6JHY,3pgqrazx15xrvqygpna1awvsi04ysb,3180jw2ot8p2hj30it1swi2449mj5x,hRCa6JHY,2020-0188,2020-11-16,21:56:03,22:18:29,NA,incomplete,24,number,0,0,left,Green_Triangle_Grid_4.jpg,Blue_Star_Stripes_4.jpg,Red_Triangle_Dots_1.jpg,right,941.7450000001118,false,high,NA,NA,NA,NA,NA,NA,NA,false
hRCa6JHY,3pgqrazx15xrvqygpna1awvsi04ysb,3180jw2ot8p2hj30it1swi2449mj5x,hRCa6JHY,2020-0188,2020-11-16,21:56:03,22:18:29,NA,incomplete,25,number,0,0,left,Purple_Plus_Chess_3.jpg,Green_Circle_Stripes_3.jpg,Red_Plus_Grid_4.jpg,left,963.7000000001863,true,high,NA,NA,NA,NA,NA,NA,NA,false
hRCa6JHY,3pgqrazx15xrvqygpna1awvsi04ysb,3180jw2ot8p2hj30it1swi2449mj5x,hRCa6JHY,2020-0188,2020-11-16,21:56:03,22:18:29,NA,incomplete,26,number,0,1,right,Blue_Plus_Grid_4.jpg,Purple_Plus_Stripes_2.jpg,Red_Star_Chess_4.jpg,left,928.7499999990687,false,high,NA,NA,NA,NA,NA,NA,NA,false
hRCa6JHY,3pgqrazx15xrvqygpna1awvsi04ysb,3180jw2ot8p2hj30it1swi2449mj5x,hRCa6JHY,2020-0188,2020-11-16,21:56:03,22:18:29,NA,incomplete,27,number,0,0,right,Red_Circle_Chess_1.jpg,Purple_Circle_Dots_3.jpg,Green_Plus_Grid_1.jpg,right,895.7850000006147,true,high,NA,NA,NA,NA,NA,NA,NA,false
hRCa6JHY,3pgqrazx15xrvqygpna1awvsi04ysb,3180jw2ot8p2hj30it1swi2449mj5x,hRCa6JHY,2020-0188,2020-11-16,21:56:03,22:18:29,NA,incomplete,28,number,0,1,right,Purple_Star_Chess_4.jpg,Blue_Star_Grid_2.jpg,Red_Triangle_Stripes_4.jpg,left,1022.9650000000838,false,high,NA,NA,NA,NA,NA,NA,NA,false
hRCa6JHY,3pgqrazx15xrvqygpna1awvsi04ysb,3180jw2ot8p2hj30it1swi2449mj5x,hRCa6JHY,2020-0188,2020-11-16,21:56:03,22:18:29,NA,incomplete,29,number,0,1,right,Blue_Star_Chess_2.jpg,Red_Star_Grid_4.jpg,Purple_Triangle_Stripes_2.jpg,right,1313.8900000011781,true,high,NA,NA,NA,NA,NA,NA,NA,false
hRCa6JHY,3pgqrazx15xrvqygpna1awvsi04ysb,3180jw2ot8p2hj30it1swi2449mj5x,hRCa6JHY,2020-0188,2020-11-16,21:56:03,22:18:29,NA,incomplete,30,shape,1,1,left,Red_Plus_Grid_1.jpg,Blue_Plus_Stripes_2.jpg,Purple_Triangle_Dots_1.jpg,right,794.8750000032596,false,high,NA,NA,NA,NA,NA,NA,NA,false
hRCa6JHY,3pgqrazx15xrvqygpna1awvsi04ysb,3180jw2ot8p2hj30it1swi2449mj5x,hRCa6JHY,2020-0188,2020-11-16,21:56:03,22:18:29,NA,incomplete,31,shape,1,1,right,Red_Plus_Dots_2.jpg,Purple_Circle_Stripes_2.jpg,Green_Plus_Grid_3.jpg,left,712.1750000006286,false,high,NA,NA,NA,NA,NA,NA,NA,false
hRCa6JHY,3pgqrazx15xrvqygpna1awvsi04ysb,3180jw2ot8p2hj30it1swi2449mj5x,hRCa6JHY,2020-0188,2020-11-16,21:56:03,22:18:29,NA,incomplete,32,shape,1,0,right,Purple_Star_Stripes_2.jpg,Blue_Circle_Chess_2.jpg,Green_Star_Grid_1.jpg,left,918.9499999992549,false,high,NA,NA,NA,NA,NA,NA,NA,false
hRCa6JHY,3pgqrazx15xrvqygpna1awvsi04ysb,3180jw2ot8p2hj30it1swi2449mj5x,hRCa6JHY,2020-0188,2020-11-16,21:56:03,22:18:29,NA,incomplete,33,shape,1,1,left,Green_Triangle_Grid_4.jpg,Purple_Triangle_Stripes_1.jpg,Blue_Star_Dots_4.jpg,right,846.2050000015879,false,high,NA,NA,NA,NA,NA,NA,NA,false
hRCa6JHY,3pgqrazx15xrvqygpna1awvsi04ysb,3180jw2ot8p2hj30it1swi2449mj5x,hRCa6JHY,2020-0188,2020-11-16,21:56:03,22:18:29,NA,incomplete,34,shape,1,1,left,Purple_Circle_Grid_3.jpg,Green_Circle_Chess_1.jpg,Red_Triangle_Dots_3.jpg,right,793.0500000002794,false,high,NA,NA,NA,NA,NA,NA,NA,false
hRCa6JHY,3pgqrazx15xrvqygpna1awvsi04ysb,3180jw2ot8p2hj30it1swi2449mj5x,hRCa6JHY,2020-0188,2020-11-16,21:56:03,22:18:29,NA,incomplete,35,shape,1,0,left,Red_Circle_Stripes_3.jpg,Green_Circle_Chess_2.jpg,Blue_Plus_Dots_3.jpg,right,781.2900000025984,false,high,NA,NA,NA,NA,NA,NA,NA,false
hRCa6JHY,3pgqrazx15xrvqygpna1awvsi04ysb,3180jw2ot8p2hj30it1swi2449mj5x,hRCa6JHY,2020-0188,2020-11-16,21:56:03,22:18:29,NA,incomplete,36,shape,1,0,right,Purple_Triangle_Dots_1.jpg,Red_Circle_Stripes_1.jpg,Blue_Triangle_Grid_3.jpg,left,634.9249999984168,false,high,NA,NA,NA,NA,NA,NA,NA,false
hRCa6JHY,3pgqrazx15xrvqygpna1awvsi04ysb,3180jw2ot8p2hj30it1swi2449mj5x,hRCa6JHY,2020-0188,2020-11-16,21:56:03,22:18:29,NA,incomplete,37,shape,1,0,right,Red_Circle_Stripes_4.jpg,Green_Star_Dots_4.jpg,Purple_Circle_Grid_3.jpg,left,661.6699999975972,false,high,NA,NA,NA,NA,NA,NA,NA,false
hRCa6JHY,3pgqrazx15xrvqygpna1awvsi04ysb,3180jw2ot8p2hj30it1swi2449mj5x,hRCa6JHY,2020-0188,2020-11-16,21:56:03,22:18:29,NA,incomplete,38,shape,1,1,right,Blue_Circle_Chess_2.jpg,Green_Triangle_Stripes_2.jpg,Purple_Circle_Grid_3.jpg,left,830.6499999999069,false,high,NA,NA,NA,NA,NA,NA,NA,false
hRCa6JHY,3pgqrazx15xrvqygpna1awvsi04ysb,3180jw2ot8p2hj30it1swi2449mj5x,hRCa6JHY,2020-0188,2020-11-16,21:56:03,22:18:29,NA,incomplete,39,shape,1,1,left,Red_Triangle_Dots_2.jpg,Blue_Triangle_Chess_1.jpg,Green_Circle_Grid_2.jpg,right,721.4299999978393,false,high,NA,NA,NA,NA,NA,NA,NA,false
hRCa6JHY,3pgqrazx15xrvqygpna1awvsi04ysb,3180jw2ot8p2hj30it1swi2449mj5x,hRCa6JHY,2020-0188,2020-11-16,21:56:03,22:18:29,NA,incomplete,40,number,0,1,right,Blue_Plus_Dots_2.jpg,Red_Plus_Chess_3.jpg,Green_Circle_Stripes_2.jpg,right,1007.4349999995902,true,high,NA,NA,NA,NA,NA,NA,NA,false
hRCa6JHY,3pgqrazx15xrvqygpna1awvsi04ysb,3180jw2ot8p2hj30it1swi2449mj5x,hRCa6JHY,2020-0188,2020-11-16,21:56:03,22:18:29,NA,incomplete,41,number,0,1,left,Blue_Circle_Grid_1.jpg,Red_Triangle_Chess_1.jpg,Green_Circle_Stripes_4.jpg,left,756.6349999979138,true,high,NA,NA,NA,NA,NA,NA,NA,false
hRCa6JHY,3pgqrazx15xrvqygpna1awvsi04ysb,3180jw2ot8p2hj30it1swi2449mj5x,hRCa6JHY,2020-0188,2020-11-16,21:56:03,22:18:29,NA,incomplete,42,number,0,1,left,Green_Circle_Chess_2.jpg,Purple_Triangle_Dots_2.jpg,Red_Circle_Grid_1.jpg,left,866.2450000011595,true,high,NA,NA,NA,NA,NA,NA,NA,false
hRCa6JHY,3pgqrazx15xrvqygpna1awvsi04ysb,3180jw2ot8p2hj30it1swi2449mj5x,hRCa6JHY,2020-0188,2020-11-16,21:56:03,22:18:29,NA,incomplete,43,number,0,1,left,Red_Plus_Grid_1.jpg,Purple_Circle_Dots_1.jpg,Blue_Plus_Stripes_2.jpg,left,723.5500000024913,true,high,NA,NA,NA,NA,NA,NA,NA,false
hRCa6JHY,3pgqrazx15xrvqygpna1awvsi04ysb,3180jw2ot8p2hj30it1swi2449mj5x,hRCa6JHY,2020-0188,2020-11-16,21:56:03,22:18:29,NA,incomplete,44,number,0,0,right,Red_Triangle_Grid_1.jpg,Green_Triangle_Stripes_4.jpg,Blue_Star_Dots_1.jpg,right,668.084999997518,true,high,NA,NA,NA,NA,NA,NA,NA,false
hRCa6JHY,3pgqrazx15xrvqygpna1awvsi04ysb,3180jw2ot8p2hj30it1swi2449mj5x,hRCa6JHY,2020-0188,2020-11-16,21:56:03,22:18:29,NA,incomplete,45,number,0,1,right,Green_Circle_Chess_3.jpg,Red_Circle_Dots_2.jpg,Purple_Triangle_Grid_3.jpg,right,819.7849999996834,true,high,NA,NA,NA,NA,NA,NA,NA,false
hRCa6JHY,3pgqrazx15xrvqygpna1awvsi04ysb,3180jw2ot8p2hj30it1swi2449mj5x,hRCa6JHY,2020-0188,2020-11-16,21:56:03,22:18:29,NA,incomplete,46,number,0,1,right,Red_Triangle_Stripes_2.jpg,Green_Triangle_Chess_3.jpg,Purple_Plus_Grid_2.jpg,right,973.8350000006612,true,high,NA,NA,NA,NA,NA,NA,NA,false
hRCa6JHY,3pgqrazx15xrvqygpna1awvsi04ysb,3180jw2ot8p2hj30it1swi2449mj5x,hRCa6JHY,2020-0188,2020-11-16,21:56:03,22:18:29,NA,incomplete,47,number,0,1,left,Red_Circle_Chess_4.jpg,Blue_Triangle_Dots_4.jpg,Purple_Circle_Stripes_2.jpg,left,669.3049999993527,true,high,NA,NA,NA,NA,NA,NA,NA,false
hRCa6JHY,3pgqrazx15xrvqygpna1awvsi04ysb,3180jw2ot8p2hj30it1swi2449mj5x,hRCa6JHY,2020-0188,2020-11-16,21:56:03,22:18:29,NA,incomplete,48,number,0,1,right,Purple_Triangle_Chess_2.jpg,Red_Triangle_Grid_3.jpg,Blue_Circle_Stripes_2.jpg,right,1155.9400000005262,true,high,NA,NA,NA,NA,NA,NA,NA,false
hRCa6JHY,3pgqrazx15xrvqygpna1awvsi04ysb,3180jw2ot8p2hj30it1swi2449mj5x,hRCa6JHY,2020-0188,2020-11-16,21:56:03,22:18:29,NA,incomplete,49,number,0,0,left,Purple_Plus_Grid_4.jpg,Green_Circle_Stripes_4.jpg,Blue_Plus_Chess_2.jpg,left,740.0400000005029,true,high,NA,NA,NA,NA,NA,NA,NA,false
hRCa6JHY,3pgqrazx15xrvqygpna1awvsi04ysb,3180jw2ot8p2hj30it1swi2449mj5x,hRCa6JHY,2020-0188,2020-11-16,21:56:03,22:18:29,NA,incomplete,50,shape,1,1,right,Purple_Plus_Grid_4.jpg,Blue_Triangle_Dots_4.jpg,Green_Plus_Stripes_1.jpg,left,778.3149999995949,false,high,NA,NA,NA,NA,NA,NA,NA,false
hRCa6JHY,3pgqrazx15xrvqygpna1awvsi04ysb,3180jw2ot8p2hj30it1swi2449mj5x,hRCa6JHY,2020-0188,2020-11-16,21:56:03,22:18:29,NA,incomplete,51,shape,1,1,left,Blue_Circle_Grid_3.jpg,Purple_Circle_Stripes_2.jpg,Red_Triangle_Chess_3.jpg,right,695.6449999997858,false,high,NA,NA,NA,NA,NA,NA,NA,false
hRCa6JHY,3pgqrazx15xrvqygpna1awvsi04ysb,3180jw2ot8p2hj30it1swi2449mj5x,hRCa6JHY,2020-0188,2020-11-16,21:56:03,22:18:29,NA,incomplete,52,shape,1,1,left,Green_Star_Grid_1.jpg,Purple_Star_Stripes_4.jpg,Red_Circle_Dots_1.jpg,right,688.5550000006333,false,high,NA,NA,NA,NA,NA,NA,NA,false
hRCa6JHY,3pgqrazx15xrvqygpna1awvsi04ysb,3180jw2ot8p2hj30it1swi2449mj5x,hRCa6JHY,2020-0188,2020-11-16,21:56:03,22:18:29,NA,incomplete,53,shape,1,1,right,Blue_Triangle_Grid_2.jpg,Purple_Plus_Chess_2.jpg,Green_Triangle_Stripes_4.jpg,right,1230.5500000002794,true,high,NA,NA,NA,NA,NA,NA,NA,false
hRCa6JHY,3pgqrazx15xrvqygpna1awvsi04ysb,3180jw2ot8p2hj30it1swi2449mj5x,hRCa6JHY,2020-0188,2020-11-16,21:56:03,22:18:29,NA,incomplete,54,shape,1,1,left,Blue_Circle_Dots_1.jpg,Purple_Circle_Stripes_4.jpg,Red_Star_Chess_1.jpg,left,772.1650000021327,true,high,NA,NA,NA,NA,NA,NA,NA,false
hRCa6JHY,3pgqrazx15xrvqygpna1awvsi04ysb,3180jw2ot8p2hj30it1swi2449mj5x,hRCa6JHY,2020-0188,2020-11-16,21:56:03,22:18:29,NA,incomplete,55,shape,1,1,left,Red_Circle_Grid_4.jpg,Green_Circle_Stripes_2.jpg,Purple_Plus_Chess_4.jpg,left,705.3749999977881,true,high,NA,NA,NA,NA,NA,NA,NA,false
hRCa6JHY,3pgqrazx15xrvqygpna1awvsi04ysb,3180jw2ot8p2hj30it1swi2449mj5x,hRCa6JHY,2020-0188,2020-11-16,21:56:03,22:18:29,NA,incomplete,56,shape,1,1,left,Red_Plus_Stripes_3.jpg,Green_Plus_Chess_4.jpg,Purple_Circle_Dots_3.jpg,left,848.1749999992317,true,high,NA,NA,NA,NA,NA,NA,NA,false
hRCa6JHY,3pgqrazx15xrvqygpna1awvsi04ysb,3180jw2ot8p2hj30it1swi2449mj5x,hRCa6JHY,2020-0188,2020-11-16,21:56:03,22:18:29,NA,incomplete,57,shape,1,0,right,Purple_Star_Grid_1.jpg,Blue_Circle_Chess_1.jpg,Red_Star_Dots_3.jpg,right,817.204999999376,true,high,NA,NA,NA,NA,NA,NA,NA,false
hRCa6JHY,3pgqrazx15xrvqygpna1awvsi04ysb,3180jw2ot8p2hj30it1swi2449mj5x,hRCa6JHY,2020-0188,2020-11-16,21:56:03,22:18:29,NA,incomplete,58,shape,1,1,left,Red_Plus_Dots_3.jpg,Blue_Plus_Chess_4.jpg,Purple_Circle_Stripes_3.jpg,left,790.2300000023097,true,high,NA,NA,NA,NA,NA,NA,NA,false
hRCa6JHY,3pgqrazx15xrvqygpna1awvsi04ysb,3180jw2ot8p2hj30it1swi2449mj5x,hRCa6JHY,2020-0188,2020-11-16,21:56:03,22:18:29,NA,incomplete,59,shape,1,1,left,Purple_Triangle_Chess_2.jpg,Green_Triangle_Stripes_4.jpg,Blue_Star_Grid_2.jpg,left,802.3499999981141,true,high,NA,NA,NA,NA,NA,NA,NA,false
hRCa6JHY,3pgqrazx15xrvqygpna1awvsi04ysb,3180jw2ot8p2hj30it1swi2449mj5x,hRCa6JHY,2020-0188,2020-11-16,21:56:03,22:18:29,NA,incomplete,60,number,0,1,left,Purple_Star_Dots_4.jpg,Green_Plus_Grid_4.jpg,Red_Star_Chess_3.jpg,right,821.7850000000326,false,high,NA,NA,NA,NA,NA,NA,NA,false
hRCa6JHY,3pgqrazx15xrvqygpna1awvsi04ysb,3180jw2ot8p2hj30it1swi2449mj5x,hRCa6JHY,2020-0188,2020-11-16,21:56:03,22:18:29,NA,incomplete,61,number,0,1,right,Blue_Circle_Stripes_2.jpg,Purple_Circle_Grid_1.jpg,Green_Star_Dots_2.jpg,left,801.7599999984959,false,high,NA,NA,NA,NA,NA,NA,NA,false
hRCa6JHY,3pgqrazx15xrvqygpna1awvsi04ysb,3180jw2ot8p2hj30it1swi2449mj5x,hRCa6JHY,2020-0188,2020-11-16,21:56:03,22:18:29,NA,incomplete,62,number,0,1,left,Purple_Star_Chess_1.jpg,Blue_Plus_Dots_1.jpg,Red_Star_Stripes_2.jpg,left,837.7550000004703,true,high,NA,NA,NA,NA,NA,NA,NA,false
hRCa6JHY,3pgqrazx15xrvqygpna1awvsi04ysb,3180jw2ot8p2hj30it1swi2449mj5x,hRCa6JHY,2020-0188,2020-11-16,21:56:03,22:18:29,NA,incomplete,63,number,0,1,right,Blue_Star_Stripes_2.jpg,Red_Star_Dots_3.jpg,Purple_Plus_Chess_2.jpg,right,760.7300000017276,true,high,NA,NA,NA,NA,NA,NA,NA,false
hRCa6JHY,3pgqrazx15xrvqygpna1awvsi04ysb,3180jw2ot8p2hj30it1swi2449mj5x,hRCa6JHY,2020-0188,2020-11-16,21:56:03,22:18:29,NA,incomplete,64,number,0,1,right,Purple_Circle_Grid_4.jpg,Red_Circle_Dots_2.jpg,Blue_Star_Chess_4.jpg,right,711.1850000000559,true,high,NA,NA,NA,NA,NA,NA,NA,false
hRCa6JHY,3pgqrazx15xrvqygpna1awvsi04ysb,3180jw2ot8p2hj30it1swi2449mj5x,hRCa6JHY,2020-0188,2020-11-16,21:56:03,22:18:29,NA,incomplete,65,number,0,1,left,Green_Triangle_Stripes_1.jpg,Purple_Plus_Chess_1.jpg,Blue_Triangle_Dots_2.jpg,left,830.0850000014761,true,high,NA,NA,NA,NA,NA,NA,NA,false
hRCa6JHY,3pgqrazx15xrvqygpna1awvsi04ysb,3180jw2ot8p2hj30it1swi2449mj5x,hRCa6JHY,2020-0188,2020-11-16,21:56:03,22:18:29,NA,incomplete,66,number,0,0,right,Green_Circle_Dots_3.jpg,Blue_Circle_Grid_2.jpg,Red_Triangle_Chess_3.jpg,right,831.9399999999441,true,high,NA,NA,NA,NA,NA,NA,NA,false
hRCa6JHY,3pgqrazx15xrvqygpna1awvsi04ysb,3180jw2ot8p2hj30it1swi2449mj5x,hRCa6JHY,2020-0188,2020-11-16,21:56:03,22:18:29,NA,incomplete,67,number,0,1,right,Blue_Plus_Chess_1.jpg,Green_Plus_Grid_3.jpg,Purple_Triangle_Dots_1.jpg,right,1113.3200000004144,true,high,NA,NA,NA,NA,NA,NA,NA,false
hRCa6JHY,3pgqrazx15xrvqygpna1awvsi04ysb,3180jw2ot8p2hj30it1swi2449mj5x,hRCa6JHY,2020-0188,2020-11-16,21:56:03,22:18:29,NA,incomplete,68,number,0,0,left,Red_Star_Stripes_3.jpg,Green_Plus_Dots_3.jpg,Blue_Star_Grid_4.jpg,left,723.5599999985425,true,high,NA,NA,NA,NA,NA,NA,NA,false
hRCa6JHY,3pgqrazx15xrvqygpna1awvsi04ysb,3180jw2ot8p2hj30it1swi2449mj5x,hRCa6JHY,2020-0188,2020-11-16,21:56:03,22:18:29,NA,incomplete,69,number,0,1,right,Green_Triangle_Stripes_4.jpg,Purple_Triangle_Dots_1.jpg,Red_Star_Grid_4.jpg,right,642.875000001397,true,high,NA,NA,NA,NA,NA,NA,NA,false
hRCa6JHY,3pgqrazx15xrvqygpna1awvsi04ysb,3180jw2ot8p2hj30it1swi2449mj5x,hRCa6JHY,2020-0188,2020-11-16,21:56:03,22:18:29,NA,incomplete,70,shape,1,0,right,Red_Star_Stripes_2.jpg,Purple_Triangle_Chess_2.jpg,Blue_Star_Dots_3.jpg,left,629.4600000001956,false,high,NA,NA,NA,NA,NA,NA,NA,false
hRCa6JHY,3pgqrazx15xrvqygpna1awvsi04ysb,3180jw2ot8p2hj30it1swi2449mj5x,hRCa6JHY,2020-0188,2020-11-16,21:56:03,22:18:29,NA,incomplete,71,shape,1,1,right,Purple_Star_Grid_3.jpg,Blue_Plus_Stripes_3.jpg,Red_Star_Chess_4.jpg,left,847.2049999982119,false,high,NA,NA,NA,NA,NA,NA,NA,false
hRCa6JHY,3pgqrazx15xrvqygpna1awvsi04ysb,3180jw2ot8p2hj30it1swi2449mj5x,hRCa6JHY,2020-0188,2020-11-16,21:56:03,22:18:29,NA,incomplete,72,shape,1,1,right,Blue_Triangle_Stripes_1.jpg,Red_Star_Dots_1.jpg,Purple_Triangle_Grid_4.jpg,left,729.6950000019278,false,high,NA,NA,NA,NA,NA,NA,NA,false
hRCa6JHY,3pgqrazx15xrvqygpna1awvsi04ysb,3180jw2ot8p2hj30it1swi2449mj5x,hRCa6JHY,2020-0188,2020-11-16,21:56:03,22:18:29,NA,incomplete,73,shape,1,0,left,Blue_Plus_Stripes_3.jpg,Red_Plus_Chess_2.jpg,Green_Triangle_Grid_3.jpg,right,1054.8350000026403,false,high,NA,NA,NA,NA,NA,NA,NA,false
hRCa6JHY,3pgqrazx15xrvqygpna1awvsi04ysb,3180jw2ot8p2hj30it1swi2449mj5x,hRCa6JHY,2020-0188,2020-11-16,21:56:03,22:18:29,NA,incomplete,74,shape,1,1,right,Purple_Plus_Stripes_4.jpg,Green_Circle_Chess_4.jpg,Blue_Plus_Dots_1.jpg,left,1096.8199999987846,false,high,NA,NA,NA,NA,NA,NA,NA,false
hRCa6JHY,3pgqrazx15xrvqygpna1awvsi04ysb,3180jw2ot8p2hj30it1swi2449mj5x,hRCa6JHY,2020-0188,2020-11-16,21:56:03,22:18:29,NA,incomplete,75,shape,1,1,left,Purple_Star_Stripes_2.jpg,Green_Star_Grid_1.jpg,Blue_Plus_Dots_2.jpg,left,1303.5849999978673,true,high,NA,NA,NA,NA,NA,NA,NA,false
hRCa6JHY,3pgqrazx15xrvqygpna1awvsi04ysb,3180jw2ot8p2hj30it1swi2449mj5x,hRCa6JHY,2020-0188,2020-11-16,21:56:03,22:18:29,NA,incomplete,76,shape,1,1,right,Red_Circle_Dots_2.jpg,Green_Plus_Stripes_2.jpg,Blue_Circle_Grid_1.jpg,right,984.7699999992037,true,high,NA,NA,NA,NA,NA,NA,NA,false
hRCa6JHY,3pgqrazx15xrvqygpna1awvsi04ysb,3180jw2ot8p2hj30it1swi2449mj5x,hRCa6JHY,2020-0188,2020-11-16,21:56:03,22:18:29,NA,incomplete,77,shape,1,1,left,Red_Star_Chess_2.jpg,Green_Star_Grid_1.jpg,Purple_Circle_Stripes_2.jpg,left,679.2349999996368,true,high,NA,NA,NA,NA,NA,NA,NA,false
hRCa6JHY,3pgqrazx15xrvqygpna1awvsi04ysb,3180jw2ot8p2hj30it1swi2449mj5x,hRCa6JHY,2020-0188,2020-11-16,21:56:03,22:18:29,NA,incomplete,78,shape,1,0,right,Blue_Triangle_Chess_3.jpg,Red_Plus_Stripes_3.jpg,Green_Triangle_Dots_2.jpg,right,1054.1250000024447,true,high,NA,NA,NA,NA,NA,NA,NA,false
hRCa6JHY,3pgqrazx15xrvqygpna1awvsi04ysb,3180jw2ot8p2hj30it1swi2449mj5x,hRCa6JHY,2020-0188,2020-11-16,21:56:03,22:18:29,NA,incomplete,79,shape,1,1,left,Green_Plus_Chess_2.jpg,Purple_Plus_Dots_3.jpg,Blue_Circle_Grid_2.jpg,right,929.3600000019651,false,high,NA,NA,NA,NA,NA,NA,NA,false
hRCa6JHY,3pgqrazx15xrvqygpna1awvsi04ysb,3180jw2ot8p2hj30it1swi2449mj5x,hRCa6JHY,2020-0188,2020-11-16,21:56:03,22:18:29,NA,incomplete,80,number,0,1,left,Green_Triangle_Grid_1.jpg,Red_Star_Stripes_1.jpg,Blue_Triangle_Chess_2.jpg,right,983.2300000016112,false,high,NA,NA,NA,NA,NA,NA,NA,false
hRCa6JHY,3pgqrazx15xrvqygpna1awvsi04ysb,3180jw2ot8p2hj30it1swi2449mj5x,hRCa6JHY,2020-0188,2020-11-16,21:56:03,22:18:29,NA,incomplete,81,number,0,1,left,Green_Plus_Grid_1.jpg,Red_Star_Dots_1.jpg,Blue_Plus_Stripes_4.jpg,right,1234.7499999996508,false,high,NA,NA,NA,NA,NA,NA,NA,false
hRCa6JHY,3pgqrazx15xrvqygpna1awvsi04ysb,3180jw2ot8p2hj30it1swi2449mj5x,hRCa6JHY,2020-0188,2020-11-16,21:56:03,22:18:29,NA,incomplete,82,number,0,1,left,Green_Triangle_Dots_1.jpg,Red_Star_Grid_1.jpg,Blue_Triangle_Stripes_4.jpg,right,1428.925000000163,false,high,NA,NA,NA,NA,NA,NA,NA,false
hRCa6JHY,3pgqrazx15xrvqygpna1awvsi04ysb,3180jw2ot8p2hj30it1swi2449mj5x,hRCa6JHY,2020-0188,2020-11-16,21:56:03,22:18:29,NA,incomplete,83,number,0,1,left,Red_Circle_Chess_1.jpg,Purple_Triangle_Dots_1.jpg,Blue_Circle_Grid_4.jpg,left,770.250000001397,true,high,NA,NA,NA,NA,NA,NA,NA,false
hRCa6JHY,3pgqrazx15xrvqygpna1awvsi04ysb,3180jw2ot8p2hj30it1swi2449mj5x,hRCa6JHY,2020-0188,2020-11-16,21:56:03,22:18:29,NA,incomplete,84,number,0,1,right,Purple_Star_Chess_4.jpg,Blue_Star_Stripes_1.jpg,Red_Circle_Dots_4.jpg,right,799.6000000020722,true,high,NA,NA,NA,NA,NA,NA,NA,false
hRCa6JHY,3pgqrazx15xrvqygpna1awvsi04ysb,3180jw2ot8p2hj30it1swi2449mj5x,hRCa6JHY,2020-0188,2020-11-16,21:56:03,22:18:29,NA,incomplete,85,number,0,1,right,Purple_Triangle_Stripes_2.jpg,Green_Triangle_Grid_3.jpg,Blue_Plus_Chess_2.jpg,left,1241.1150000006892,false,high,NA,NA,NA,NA,NA,NA,NA,false
hRCa6JHY,3pgqrazx15xrvqygpna1awvsi04ysb,3180jw2ot8p2hj30it1swi2449mj5x,hRCa6JHY,2020-0188,2020-11-16,21:56:03,22:18:29,NA,incomplete,86,number,0,0,right,Blue_Star_Dots_3.jpg,Green_Star_Grid_4.jpg,Purple_Plus_Chess_3.jpg,right,878.2350000001024,true,high,NA,NA,NA,NA,NA,NA,NA,false
hRCa6JHY,3pgqrazx15xrvqygpna1awvsi04ysb,3180jw2ot8p2hj30it1swi2449mj5x,hRCa6JHY,2020-0188,2020-11-16,21:56:03,22:18:29,NA,incomplete,87,number,0,1,left,Blue_Star_Stripes_1.jpg,Green_Plus_Chess_1.jpg,Red_Star_Grid_4.jpg,left,687.7850000018952,true,high,NA,NA,NA,NA,NA,NA,NA,false
hRCa6JHY,3pgqrazx15xrvqygpna1awvsi04ysb,3180jw2ot8p2hj30it1swi2449mj5x,hRCa6JHY,2020-0188,2020-11-16,21:56:03,22:18:29,NA,incomplete,88,number,0,1,left,Red_Triangle_Stripes_3.jpg,Purple_Circle_Chess_3.jpg,Blue_Triangle_Grid_1.jpg,right,888.0250000002561,false,high,NA,NA,NA,NA,NA,NA,NA,false
hRCa6JHY,3pgqrazx15xrvqygpna1awvsi04ysb,3180jw2ot8p2hj30it1swi2449mj5x,hRCa6JHY,2020-0188,2020-11-16,21:56:03,22:18:29,NA,incomplete,89,number,0,0,right,Green_Plus_Dots_3.jpg,Red_Plus_Stripes_1.jpg,Purple_Triangle_Grid_3.jpg,right,911.3199999993667,true,high,NA,NA,NA,NA,NA,NA,NA,false
hRCa6JHY,3pgqrazx15xrvqygpna1awvsi04ysb,3180jw2ot8p2hj30it1swi2449mj5x,hRCa6JHY,2020-0188,2020-11-16,21:56:03,22:18:29,NA,incomplete,90,shape,1,1,left,Red_Triangle_Dots_1.jpg,Blue_Triangle_Stripes_4.jpg,Green_Star_Chess_1.jpg,left,944.0050000011688,true,high,NA,NA,NA,NA,NA,NA,NA,false
hRCa6JHY,3pgqrazx15xrvqygpna1awvsi04ysb,3180jw2ot8p2hj30it1swi2449mj5x,hRCa6JHY,2020-0188,2020-11-16,21:56:03,22:18:29,NA,incomplete,91,shape,1,0,left,Green_Triangle_Stripes_3.jpg,Red_Triangle_Grid_4.jpg,Blue_Star_Dots_3.jpg,left,894.1400000002468,true,high,NA,NA,NA,NA,NA,NA,NA,false
hRCa6JHY,3pgqrazx15xrvqygpna1awvsi04ysb,3180jw2ot8p2hj30it1swi2449mj5x,hRCa6JHY,2020-0188,2020-11-16,21:56:03,22:18:29,NA,incomplete,92,shape,1,1,left,Blue_Triangle_Stripes_1.jpg,Red_Triangle_Chess_3.jpg,Purple_Plus_Grid_1.jpg,left,783.9300000013318,true,high,NA,NA,NA,NA,NA,NA,NA,false
hRCa6JHY,3pgqrazx15xrvqygpna1awvsi04ysb,3180jw2ot8p2hj30it1swi2449mj5x,hRCa6JHY,2020-0188,2020-11-16,21:56:03,22:18:29,NA,incomplete,93,shape,1,0,left,Blue_Circle_Grid_2.jpg,Green_Circle_Chess_1.jpg,Red_Triangle_Dots_2.jpg,left,709.1949999993667,true,high,NA,NA,NA,NA,NA,NA,NA,false
hRCa6JHY,3pgqrazx15xrvqygpna1awvsi04ysb,3180jw2ot8p2hj30it1swi2449mj5x,hRCa6JHY,2020-0188,2020-11-16,21:56:03,22:18:29,NA,incomplete,94,shape,1,0,left,Purple_Triangle_Chess_4.jpg,Red_Triangle_Dots_3.jpg,Green_Circle_Grid_4.jpg,right,844.0149999988498,false,high,NA,NA,NA,NA,NA,NA,NA,false
hRCa6JHY,3pgqrazx15xrvqygpna1awvsi04ysb,3180jw2ot8p2hj30it1swi2449mj5x,hRCa6JHY,2020-0188,2020-11-16,21:56:03,22:18:29,NA,incomplete,95,shape,1,1,right,Green_Plus_Chess_4.jpg,Blue_Star_Stripes_4.jpg,Red_Plus_Dots_2.jpg,left,878.6900000013411,false,high,NA,NA,NA,NA,NA,NA,NA,false
hRCa6JHY,3pgqrazx15xrvqygpna1awvsi04ysb,3180jw2ot8p2hj30it1swi2449mj5x,hRCa6JHY,2020-0188,2020-11-16,21:56:03,22:18:29,NA,incomplete,96,shape,1,1,left,Blue_Triangle_Dots_3.jpg,Red_Triangle_Grid_4.jpg,Purple_Plus_Chess_3.jpg,left,1030.7549999998882,true,high,NA,NA,NA,NA,NA,NA,NA,false
hRCa6JHY,3pgqrazx15xrvqygpna1awvsi04ysb,3180jw2ot8p2hj30it1swi2449mj5x,hRCa6JHY,2020-0188,2020-11-16,21:56:03,22:18:29,NA,incomplete,97,shape,1,1,right,Green_Star_Dots_2.jpg,Blue_Plus_Stripes_2.jpg,Purple_Star_Grid_3.jpg,right,794.8399999985704,true,high,NA,NA,NA,NA,NA,NA,NA,false
hRCa6JHY,3pgqrazx15xrvqygpna1awvsi04ysb,3180jw2ot8p2hj30it1swi2449mj5x,hRCa6JHY,2020-0188,2020-11-16,21:56:03,22:18:29,NA,incomplete,98,shape,1,1,left,Blue_Plus_Dots_3.jpg,Green_Plus_Grid_1.jpg,Purple_Triangle_Stripes_3.jpg,right,847.1400000016438,false,high,NA,NA,NA,NA,NA,NA,NA,false
hRCa6JHY,3pgqrazx15xrvqygpna1awvsi04ysb,3180jw2ot8p2hj30it1swi2449mj5x,hRCa6JHY,2020-0188,2020-11-16,21:56:03,22:18:29,NA,incomplete,99,shape,1,1,left,Green_Plus_Stripes_3.jpg,Blue_Plus_Grid_4.jpg,Purple_Triangle_Chess_3.jpg,left,1191.4749999996275,true,high,NA,NA,NA,NA,NA,NA,NA,false
hRCa6JHY,3pgqrazx15xrvqygpna1awvsi04ysb,3180jw2ot8p2hj30it1swi2449mj5x,hRCa6JHY,2020-0188,2020-11-16,21:56:03,22:18:29,NA,incomplete,100,number,0,1,right,Blue_Plus_Chess_2.jpg,Purple_Plus_Dots_4.jpg,Green_Star_Grid_2.jpg,left,924.7450000002282,false,high,NA,NA,NA,NA,NA,NA,NA,false
hRCa6JHY,3pgqrazx15xrvqygpna1awvsi04ysb,3180jw2ot8p2hj30it1swi2449mj5x,hRCa6JHY,2020-0188,2020-11-16,21:56:03,22:18:29,NA,incomplete,101,number,0,1,right,Purple_Triangle_Grid_3.jpg,Green_Triangle_Chess_1.jpg,Red_Circle_Stripes_3.jpg,right,932.5650000027381,true,high,NA,NA,NA,NA,NA,NA,NA,false
hRCa6JHY,3pgqrazx15xrvqygpna1awvsi04ysb,3180jw2ot8p2hj30it1swi2449mj5x,hRCa6JHY,2020-0188,2020-11-16,21:56:03,22:18:29,NA,incomplete,102,number,0,1,left,Red_Star_Dots_1.jpg,Green_Triangle_Chess_1.jpg,Blue_Star_Grid_4.jpg,right,954.3200000007637,false,high,NA,NA,NA,NA,NA,NA,NA,false
hRCa6JHY,3pgqrazx15xrvqygpna1awvsi04ysb,3180jw2ot8p2hj30it1swi2449mj5x,hRCa6JHY,2020-0188,2020-11-16,21:56:03,22:18:29,NA,incomplete,103,number,0,1,left,Blue_Plus_Chess_2.jpg,Purple_Star_Stripes_2.jpg,Red_Plus_Grid_1.jpg,left,817.6349999994272,true,high,NA,NA,NA,NA,NA,NA,NA,false
hRCa6JHY,3pgqrazx15xrvqygpna1awvsi04ysb,3180jw2ot8p2hj30it1swi2449mj5x,hRCa6JHY,2020-0188,2020-11-16,21:56:03,22:18:29,NA,incomplete,104,number,0,1,right,Red_Star_Grid_1.jpg,Blue_Star_Stripes_3.jpg,Green_Plus_Chess_1.jpg,right,773.0049999990733,true,high,NA,NA,NA,NA,NA,NA,NA,false
hRCa6JHY,3pgqrazx15xrvqygpna1awvsi04ysb,3180jw2ot8p2hj30it1swi2449mj5x,hRCa6JHY,2020-0188,2020-11-16,21:56:03,22:18:29,NA,incomplete,105,number,0,1,right,Purple_Triangle_Grid_4.jpg,Red_Triangle_Chess_1.jpg,Blue_Star_Stripes_4.jpg,right,738.0600000033155,true,high,NA,NA,NA,NA,NA,NA,NA,false
hRCa6JHY,3pgqrazx15xrvqygpna1awvsi04ysb,3180jw2ot8p2hj30it1swi2449mj5x,hRCa6JHY,2020-0188,2020-11-16,21:56:03,22:18:29,NA,incomplete,106,number,0,1,right,Red_Circle_Stripes_2.jpg,Purple_Circle_Grid_4.jpg,Blue_Star_Dots_2.jpg,right,912.0200000033947,true,high,NA,NA,NA,NA,NA,NA,NA,false
hRCa6JHY,3pgqrazx15xrvqygpna1awvsi04ysb,3180jw2ot8p2hj30it1swi2449mj5x,hRCa6JHY,2020-0188,2020-11-16,21:56:03,22:18:29,NA,incomplete,107,number,0,1,right,Red_Circle_Chess_3.jpg,Purple_Circle_Stripes_1.jpg,Blue_Star_Dots_3.jpg,right,879.0500000030734,true,high,NA,NA,NA,NA,NA,NA,NA,false
hRCa6JHY,3pgqrazx15xrvqygpna1awvsi04ysb,3180jw2ot8p2hj30it1swi2449mj5x,hRCa6JHY,2020-0188,2020-11-16,21:56:03,22:18:29,NA,incomplete,108,number,0,1,left,Purple_Circle_Chess_3.jpg,Red_Star_Dots_3.jpg,Green_Circle_Grid_2.jpg,left,744.9899999992922,true,high,NA,NA,NA,NA,NA,NA,NA,false
hRCa6JHY,3pgqrazx15xrvqygpna1awvsi04ysb,3180jw2ot8p2hj30it1swi2449mj5x,hRCa6JHY,2020-0188,2020-11-16,21:56:03,22:18:29,NA,incomplete,109,number,0,1,left,Purple_Plus_Dots_1.jpg,Blue_Circle_Stripes_1.jpg,Green_Plus_Grid_4.jpg,left,695.7499999989523,true,high,NA,NA,NA,NA,NA,NA,NA,false
hRCa6JHY,3pgqrazx15xrvqygpna1awvsi04ysb,3180jw2ot8p2hj30it1swi2449mj5x,hRCa6JHY,2020-0188,2020-11-16,21:56:03,22:18:29,NA,incomplete,110,shape,1,1,left,Green_Circle_Dots_3.jpg,Purple_Circle_Grid_2.jpg,Blue_Star_Chess_3.jpg,right,808.3499999992782,false,high,NA,NA,NA,NA,NA,NA,NA,false
hRCa6JHY,3pgqrazx15xrvqygpna1awvsi04ysb,3180jw2ot8p2hj30it1swi2449mj5x,hRCa6JHY,2020-0188,2020-11-16,21:56:03,22:18:29,NA,incomplete,111,shape,1,0,right,Green_Star_Dots_1.jpg,Purple_Circle_Stripes_1.jpg,Blue_Star_Grid_2.jpg,right,978.9850000014994,true,high,NA,NA,NA,NA,NA,NA,NA,false
hRCa6JHY,3pgqrazx15xrvqygpna1awvsi04ysb,3180jw2ot8p2hj30it1swi2449mj5x,hRCa6JHY,2020-0188,2020-11-16,21:56:03,22:18:29,NA,incomplete,112,shape,1,1,left,Green_Star_Grid_2.jpg,Blue_Star_Chess_3.jpg,Red_Plus_Dots_2.jpg,right,944.0400000021327,false,high,NA,NA,NA,NA,NA,NA,NA,false
hRCa6JHY,3pgqrazx15xrvqygpna1awvsi04ysb,3180jw2ot8p2hj30it1swi2449mj5x,hRCa6JHY,2020-0188,2020-11-16,21:56:03,22:18:29,NA,incomplete,113,shape,1,1,right,Red_Triangle_Dots_1.jpg,Green_Plus_Chess_1.jpg,Blue_Triangle_Stripes_4.jpg,left,784.0850000029895,false,high,NA,NA,NA,NA,NA,NA,NA,false
hRCa6JHY,3pgqrazx15xrvqygpna1awvsi04ysb,3180jw2ot8p2hj30it1swi2449mj5x,hRCa6JHY,2020-0188,2020-11-16,21:56:03,22:18:29,NA,incomplete,114,shape,1,1,right,Blue_Triangle_Chess_1.jpg,Red_Plus_Dots_1.jpg,Purple_Triangle_Grid_4.jpg,right,748.7999999976018,true,high,NA,NA,NA,NA,NA,NA,NA,false
hRCa6JHY,3pgqrazx15xrvqygpna1awvsi04ysb,3180jw2ot8p2hj30it1swi2449mj5x,hRCa6JHY,2020-0188,2020-11-16,21:56:03,22:18:29,NA,incomplete,115,shape,1,0,left,Red_Plus_Chess_1.jpg,Blue_Plus_Grid_3.jpg,Purple_Star_Dots_1.jpg,left,866.0449999987613,true,high,NA,NA,NA,NA,NA,NA,NA,false
hRCa6JHY,3pgqrazx15xrvqygpna1awvsi04ysb,3180jw2ot8p2hj30it1swi2449mj5x,hRCa6JHY,2020-0188,2020-11-16,21:56:03,22:18:29,NA,incomplete,116,shape,1,1,left,Blue_Plus_Stripes_3.jpg,Green_Plus_Dots_2.jpg,Red_Star_Chess_3.jpg,left,1010.4950000022072,true,high,NA,NA,NA,NA,NA,NA,NA,false
hRCa6JHY,3pgqrazx15xrvqygpna1awvsi04ysb,3180jw2ot8p2hj30it1swi2449mj5x,hRCa6JHY,2020-0188,2020-11-16,21:56:03,22:18:29,NA,incomplete,117,shape,1,1,left,Green_Triangle_Chess_4.jpg,Blue_Triangle_Dots_1.jpg,Red_Star_Grid_4.jpg,left,830.9550000012387,true,high,NA,NA,NA,NA,NA,NA,NA,false
hRCa6JHY,3pgqrazx15xrvqygpna1awvsi04ysb,3180jw2ot8p2hj30it1swi2449mj5x,hRCa6JHY,2020-0188,2020-11-16,21:56:03,22:18:29,NA,incomplete,118,shape,1,1,left,Green_Circle_Dots_2.jpg,Blue_Circle_Grid_1.jpg,Red_Plus_Chess_2.jpg,left,818.1500000028173,true,high,NA,NA,NA,NA,NA,NA,NA,false
hRCa6JHY,3pgqrazx15xrvqygpna1awvsi04ysb,3180jw2ot8p2hj30it1swi2449mj5x,hRCa6JHY,2020-0188,2020-11-16,21:56:03,22:18:29,NA,incomplete,119,shape,1,1,left,Blue_Plus_Stripes_1.jpg,Purple_Plus_Chess_3.jpg,Green_Circle_Dots_1.jpg,left,773.0100000008242,true,high,NA,NA,NA,NA,NA,NA,NA,false
hRCa6JHY,3pgqrazx15xrvqygpna1awvsi04ysb,3180jw2ot8p2hj30it1swi2449mj5x,hRCa6JHY,2020-0188,2020-11-16,21:56:03,22:18:29,NA,incomplete,120,race,2,1,right,A_M_02.jpg,C_M_09.jpg,A_F_11.jpg,NA,NA,NA,high,NA,NA,NA,NA,NA,NA,NA,false
hRCa6JHY,3pgqrazx15xrvqygpna1awvsi04ysb,3180jw2ot8p2hj30it1swi2449mj5x,hRCa6JHY,2020-0188,2020-11-16,21:56:03,22:18:29,NA,incomplete,121,race,2,1,left,A_F_13.jpg,A_M_09.jpg,C_F_04.jpg,right,889.5149999989662,false,high,NA,NA,NA,NA,NA,NA,NA,false
hRCa6JHY,3pgqrazx15xrvqygpna1awvsi04ysb,3180jw2ot8p2hj30it1swi2449mj5x,hRCa6JHY,2020-0188,2020-11-16,21:56:03,22:18:29,NA,incomplete,122,race,2,1,right,C_M_13.jpg,A_M_03.jpg,C_F_09.jpg,right,1199.3149999980815,true,high,NA,NA,NA,NA,NA,NA,NA,false
hRCa6JHY,3pgqrazx15xrvqygpna1awvsi04ysb,3180jw2ot8p2hj30it1swi2449mj5x,hRCa6JHY,2020-0188,2020-11-16,21:56:03,22:18:29,NA,incomplete,123,race,2,1,right,C_M_02.jpg,A_M_15.jpg,C_F_09.jpg,right,1092.7549999979092,true,high,NA,NA,NA,NA,NA,NA,NA,false
hRCa6JHY,3pgqrazx15xrvqygpna1awvsi04ysb,3180jw2ot8p2hj30it1swi2449mj5x,hRCa6JHY,2020-0188,2020-11-16,21:56:03,22:18:29,NA,incomplete,124,race,2,1,right,A_M_08.jpg,C_M_13.jpg,A_F_01.jpg,right,1211.9550000024028,true,high,NA,NA,NA,NA,NA,NA,NA,false
hRCa6JHY,3pgqrazx15xrvqygpna1awvsi04ysb,3180jw2ot8p2hj30it1swi2449mj5x,hRCa6JHY,2020-0188,2020-11-16,21:56:03,22:18:29,NA,incomplete,125,race,2,1,left,A_M_16.jpg,A_F_02.jpg,C_M_06.jpg,left,1192.5450000016717,true,high,NA,NA,NA,NA,NA,NA,NA,false
hRCa6JHY,3pgqrazx15xrvqygpna1awvsi04ysb,3180jw2ot8p2hj30it1swi2449mj5x,hRCa6JHY,2020-0188,2020-11-16,21:56:03,22:18:29,NA,incomplete,126,race,2,1,right,C_F_08.jpg,A_F_13.jpg,C_M_04.jpg,right,1203.6950000001816,true,high,NA,NA,NA,NA,NA,NA,NA,false
hRCa6JHY,3pgqrazx15xrvqygpna1awvsi04ysb,3180jw2ot8p2hj30it1swi2449mj5x,hRCa6JHY,2020-0188,2020-11-16,21:56:03,22:18:29,NA,incomplete,127,race,2,0,left,C_M_03.jpg,C_F_06.jpg,A_M_04.jpg,left,1207.5099999965169,true,high,NA,NA,NA,NA,NA,NA,NA,false
hRCa6JHY,3pgqrazx15xrvqygpna1awvsi04ysb,3180jw2ot8p2hj30it1swi2449mj5x,hRCa6JHY,2020-0188,2020-11-16,21:56:03,22:18:29,NA,incomplete,128,race,2,1,left,A_F_13.jpg,A_M_02.jpg,C_F_06.jpg,left,1204.745000002673,true,high,NA,NA,NA,NA,NA,NA,NA,false
hRCa6JHY,3pgqrazx15xrvqygpna1awvsi04ysb,3180jw2ot8p2hj30it1swi2449mj5x,hRCa6JHY,2020-0188,2020-11-16,21:56:03,22:18:29,NA,incomplete,129,race,2,1,left,A_F_15.jpg,A_M_03.jpg,C_F_01.jpg,left,1208.550000002957,true,high,NA,NA,NA,NA,NA,NA,NA,false
hRCa6JHY,3pgqrazx15xrvqygpna1awvsi04ysb,3180jw2ot8p2hj30it1swi2449mj5x,hRCa6JHY,2020-0188,2020-11-16,21:56:03,22:18:29,NA,incomplete,130,race,2,0,right,C_F_04.jpg,A_F_05.jpg,C_M_07.jpg,right,1204.4649999988033,true,high,NA,NA,NA,NA,NA,NA,NA,false
hRCa6JHY,3pgqrazx15xrvqygpna1awvsi04ysb,3180jw2ot8p2hj30it1swi2449mj5x,hRCa6JHY,2020-0188,2020-11-16,21:56:03,22:18:29,NA,incomplete,131,race,2,1,left,A_M_14.jpg,A_F_06.jpg,C_M_11.jpg,left,1319.3149999969173,true,high,NA,NA,NA,NA,NA,NA,NA,false
hRCa6JHY,3pgqrazx15xrvqygpna1awvsi04ysb,3180jw2ot8p2hj30it1swi2449mj5x,hRCa6JHY,2020-0188,2020-11-16,21:56:03,22:18:29,NA,incomplete,132,race,2,1,right,C_M_11.jpg,A_M_13.jpg,C_F_02.jpg,right,1206.7449999995297,true,high,NA,NA,NA,NA,NA,NA,NA,false
hRCa6JHY,3pgqrazx15xrvqygpna1awvsi04ysb,3180jw2ot8p2hj30it1swi2449mj5x,hRCa6JHY,2020-0188,2020-11-16,21:56:03,22:18:29,NA,incomplete,133,race,2,1,left,C_M_14.jpg,C_F_11.jpg,A_M_15.jpg,right,1426.1249999981374,false,high,NA,NA,NA,NA,NA,NA,NA,false
hRCa6JHY,3pgqrazx15xrvqygpna1awvsi04ysb,3180jw2ot8p2hj30it1swi2449mj5x,hRCa6JHY,2020-0188,2020-11-16,21:56:03,22:18:29,NA,incomplete,134,race,2,1,right,C_F_07.jpg,A_F_15.jpg,C_M_16.jpg,left,983.6150000010384,false,high,NA,NA,NA,NA,NA,NA,NA,false
hRCa6JHY,3pgqrazx15xrvqygpna1awvsi04ysb,3180jw2ot8p2hj30it1swi2449mj5x,hRCa6JHY,2020-0188,2020-11-16,21:56:03,22:18:29,NA,incomplete,135,race,2,1,left,A_M_03.jpg,A_F_04.jpg,C_M_06.jpg,right,843.2150000007823,false,high,NA,NA,NA,NA,NA,NA,NA,false
hRCa6JHY,3pgqrazx15xrvqygpna1awvsi04ysb,3180jw2ot8p2hj30it1swi2449mj5x,hRCa6JHY,2020-0188,2020-11-16,21:56:03,22:18:29,NA,incomplete,136,race,2,0,right,A_M_10.jpg,C_M_06.jpg,A_F_14.jpg,right,1006.2099999996135,true,high,NA,NA,NA,NA,NA,NA,NA,false
hRCa6JHY,3pgqrazx15xrvqygpna1awvsi04ysb,3180jw2ot8p2hj30it1swi2449mj5x,hRCa6JHY,2020-0188,2020-11-16,21:56:03,22:18:29,NA,incomplete,137,race,2,1,left,A_M_08.jpg,A_F_15.jpg,C_M_10.jpg,left,1321.0650000000605,true,high,NA,NA,NA,NA,NA,NA,NA,false
hRCa6JHY,3pgqrazx15xrvqygpna1awvsi04ysb,3180jw2ot8p2hj30it1swi2449mj5x,hRCa6JHY,2020-0188,2020-11-16,21:56:03,22:18:29,NA,incomplete,138,race,2,1,right,A_F_06.jpg,C_F_01.jpg,A_M_03.jpg,right,1200.8700000005774,true,high,NA,NA,NA,NA,NA,NA,NA,false
hRCa6JHY,3pgqrazx15xrvqygpna1awvsi04ysb,3180jw2ot8p2hj30it1swi2449mj5x,hRCa6JHY,2020-0188,2020-11-16,21:56:03,22:18:29,NA,incomplete,139,race,2,1,left,C_F_05.jpg,C_M_04.jpg,A_F_09.jpg,left,1204.7300000013784,true,high,NA,NA,NA,NA,NA,NA,NA,false
hRCa6JHY,3pgqrazx15xrvqygpna1awvsi04ysb,3180jw2ot8p2hj30it1swi2449mj5x,hRCa6JHY,2020-0188,2020-11-16,21:56:03,22:18:29,NA,incomplete,140,gender,3,1,left,C_F_11.jpg,A_F_13.jpg,C_M_08.jpg,right,1200.9150000013178,false,high,NA,NA,NA,NA,NA,NA,NA,false
hRCa6JHY,3pgqrazx15xrvqygpna1awvsi04ysb,3180jw2ot8p2hj30it1swi2449mj5x,hRCa6JHY,2020-0188,2020-11-16,21:56:03,22:18:29,NA,incomplete,141,gender,3,0,left,A_M_08.jpg,C_M_15.jpg,A_F_10.jpg,right,1093.3000000003958,false,high,NA,NA,NA,NA,NA,NA,NA,false
hRCa6JHY,3pgqrazx15xrvqygpna1awvsi04ysb,3180jw2ot8p2hj30it1swi2449mj5x,hRCa6JHY,2020-0188,2020-11-16,21:56:03,22:18:29,NA,incomplete,142,gender,3,1,right,C_F_03.jpg,C_M_01.jpg,A_F_15.jpg,right,1093.8400000013644,true,high,NA,NA,NA,NA,NA,NA,NA,false
hRCa6JHY,3pgqrazx15xrvqygpna1awvsi04ysb,3180jw2ot8p2hj30it1swi2449mj5x,hRCa6JHY,2020-0188,2020-11-16,21:56:03,22:18:29,NA,incomplete,143,gender,3,1,right,A_M_07.jpg,A_F_10.jpg,C_M_06.jpg,right,759.4549999994924,true,high,NA,NA,NA,NA,NA,NA,NA,false
hRCa6JHY,3pgqrazx15xrvqygpna1awvsi04ysb,3180jw2ot8p2hj30it1swi2449mj5x,hRCa6JHY,2020-0188,2020-11-16,21:56:03,22:18:29,NA,incomplete,144,gender,3,0,left,A_M_16.jpg,C_M_01.jpg,A_F_09.jpg,left,1099.8950000030454,true,high,NA,NA,NA,NA,NA,NA,NA,false
hRCa6JHY,3pgqrazx15xrvqygpna1awvsi04ysb,3180jw2ot8p2hj30it1swi2449mj5x,hRCa6JHY,2020-0188,2020-11-16,21:56:03,22:18:29,NA,incomplete,145,gender,3,1,right,A_F_12.jpg,A_M_14.jpg,C_F_15.jpg,right,1196.1149999988265,true,high,NA,NA,NA,NA,NA,NA,NA,false
hRCa6JHY,3pgqrazx15xrvqygpna1awvsi04ysb,3180jw2ot8p2hj30it1swi2449mj5x,hRCa6JHY,2020-0188,2020-11-16,21:56:03,22:18:29,NA,incomplete,146,gender,3,0,right,A_F_13.jpg,A_M_02.jpg,C_F_10.jpg,right,730.1799999985378,true,high,NA,NA,NA,NA,NA,NA,NA,false
hRCa6JHY,3pgqrazx15xrvqygpna1awvsi04ysb,3180jw2ot8p2hj30it1swi2449mj5x,hRCa6JHY,2020-0188,2020-11-16,21:56:03,22:18:29,NA,incomplete,147,gender,3,1,right,A_F_15.jpg,A_M_14.jpg,C_F_04.jpg,right,1230.7350000010338,true,high,NA,NA,NA,NA,NA,NA,NA,false
hRCa6JHY,3pgqrazx15xrvqygpna1awvsi04ysb,3180jw2ot8p2hj30it1swi2449mj5x,hRCa6JHY,2020-0188,2020-11-16,21:56:03,22:18:29,NA,incomplete,148,gender,3,0,right,C_F_15.jpg,C_M_16.jpg,A_F_06.jpg,left,700.0550000012154,false,high,NA,NA,NA,NA,NA,NA,NA,false
hRCa6JHY,3pgqrazx15xrvqygpna1awvsi04ysb,3180jw2ot8p2hj30it1swi2449mj5x,hRCa6JHY,2020-0188,2020-11-16,21:56:03,22:18:29,NA,incomplete,149,gender,3,1,right,C_M_02.jpg,C_F_01.jpg,A_M_07.jpg,left,1249.035000000731,false,high,NA,NA,NA,NA,NA,NA,NA,false
hRCa6JHY,3pgqrazx15xrvqygpna1awvsi04ysb,3180jw2ot8p2hj30it1swi2449mj5x,hRCa6JHY,2020-0188,2020-11-16,21:56:03,22:18:29,NA,incomplete,150,gender,3,1,left,A_F_01.jpg,C_F_10.jpg,A_M_05.jpg,left,972.6850000007544,true,high,NA,NA,NA,NA,NA,NA,NA,false
hRCa6JHY,3pgqrazx15xrvqygpna1awvsi04ysb,3180jw2ot8p2hj30it1swi2449mj5x,hRCa6JHY,2020-0188,2020-11-16,21:56:03,22:18:29,NA,incomplete,151,gender,3,1,right,C_F_09.jpg,C_M_07.jpg,A_F_02.jpg,right,841.8950000014156,true,high,NA,NA,NA,NA,NA,NA,NA,false
hRCa6JHY,3pgqrazx15xrvqygpna1awvsi04ysb,3180jw2ot8p2hj30it1swi2449mj5x,hRCa6JHY,2020-0188,2020-11-16,21:56:03,22:18:29,NA,incomplete,152,gender,3,1,right,A_M_04.jpg,A_F_03.jpg,C_M_02.jpg,right,916.7000000015832,true,high,NA,NA,NA,NA,NA,NA,NA,false
hRCa6JHY,3pgqrazx15xrvqygpna1awvsi04ysb,3180jw2ot8p2hj30it1swi2449mj5x,hRCa6JHY,2020-0188,2020-11-16,21:56:03,22:18:29,NA,incomplete,153,gender,3,1,left,A_M_05.jpg,C_M_06.jpg,A_F_01.jpg,left,819.7349999973085,true,high,NA,NA,NA,NA,NA,NA,NA,false
hRCa6JHY,3pgqrazx15xrvqygpna1awvsi04ysb,3180jw2ot8p2hj30it1swi2449mj5x,hRCa6JHY,2020-0188,2020-11-16,21:56:03,22:18:29,NA,incomplete,154,gender,3,0,left,A_M_03.jpg,C_M_12.jpg,A_F_07.jpg,left,1110.0499999992317,true,high,NA,NA,NA,NA,NA,NA,NA,false
hRCa6JHY,3pgqrazx15xrvqygpna1awvsi04ysb,3180jw2ot8p2hj30it1swi2449mj5x,hRCa6JHY,2020-0188,2020-11-16,21:56:03,22:18:29,NA,incomplete,155,gender,3,1,right,A_M_13.jpg,A_F_04.jpg,C_M_05.jpg,right,879.4799999996321,true,high,NA,NA,NA,NA,NA,NA,NA,false
hRCa6JHY,3pgqrazx15xrvqygpna1awvsi04ysb,3180jw2ot8p2hj30it1swi2449mj5x,hRCa6JHY,2020-0188,2020-11-16,21:56:03,22:18:29,NA,incomplete,156,gender,3,1,right,C_M_07.jpg,C_F_14.jpg,A_M_03.jpg,right,991.4050000007264,true,high,NA,NA,NA,NA,NA,NA,NA,false
hRCa6JHY,3pgqrazx15xrvqygpna1awvsi04ysb,3180jw2ot8p2hj30it1swi2449mj5x,hRCa6JHY,2020-0188,2020-11-16,21:56:03,22:18:29,NA,incomplete,157,gender,3,1,right,A_F_11.jpg,A_M_13.jpg,C_F_06.jpg,right,756.8449999999721,true,high,NA,NA,NA,NA,NA,NA,NA,false
hRCa6JHY,3pgqrazx15xrvqygpna1awvsi04ysb,3180jw2ot8p2hj30it1swi2449mj5x,hRCa6JHY,2020-0188,2020-11-16,21:56:03,22:18:29,NA,incomplete,158,gender,3,1,right,C_F_12.jpg,C_M_06.jpg,A_F_07.jpg,right,731.5100000014063,true,high,NA,NA,NA,NA,NA,NA,NA,false
hRCa6JHY,3pgqrazx15xrvqygpna1awvsi04ysb,3180jw2ot8p2hj30it1swi2449mj5x,hRCa6JHY,2020-0188,2020-11-16,21:56:03,22:18:29,NA,incomplete,159,gender,3,1,right,A_F_14.jpg,A_M_11.jpg,C_F_07.jpg,right,1087.490000001737,true,high,NA,NA,NA,NA,NA,NA,NA,false
hRCa6JHY,3pgqrazx15xrvqygpna1awvsi04ysb,3180jw2ot8p2hj30it1swi2449mj5x,hRCa6JHY,2020-0188,2020-11-16,21:56:03,22:18:29,NA,incomplete,160,race,2,1,right,A_F_12.jpg,C_F_11.jpg,A_M_06.jpg,left,842.0100000002421,false,high,NA,NA,NA,NA,NA,NA,NA,false
hRCa6JHY,3pgqrazx15xrvqygpna1awvsi04ysb,3180jw2ot8p2hj30it1swi2449mj5x,hRCa6JHY,2020-0188,2020-11-16,21:56:03,22:18:29,NA,incomplete,161,race,2,1,right,C_M_11.jpg,A_M_16.jpg,C_F_07.jpg,left,828.5949999990407,false,high,NA,NA,NA,NA,NA,NA,NA,false
hRCa6JHY,3pgqrazx15xrvqygpna1awvsi04ysb,3180jw2ot8p2hj30it1swi2449mj5x,hRCa6JHY,2020-0188,2020-11-16,21:56:03,22:18:29,NA,incomplete,162,race,2,0,left,A_F_08.jpg,A_M_03.jpg,C_F_12.jpg,left,943.2000000015832,true,high,NA,NA,NA,NA,NA,NA,NA,false
hRCa6JHY,3pgqrazx15xrvqygpna1awvsi04ysb,3180jw2ot8p2hj30it1swi2449mj5x,hRCa6JHY,2020-0188,2020-11-16,21:56:03,22:18:29,NA,incomplete,163,race,2,1,right,C_F_05.jpg,A_F_04.jpg,C_M_10.jpg,left,957.6149999992922,false,high,NA,NA,NA,NA,NA,NA,NA,false
hRCa6JHY,3pgqrazx15xrvqygpna1awvsi04ysb,3180jw2ot8p2hj30it1swi2449mj5x,hRCa6JHY,2020-0188,2020-11-16,21:56:03,22:18:29,NA,incomplete,164,race,2,1,left,C_F_02.jpg,C_M_03.jpg,A_F_10.jpg,left,987.345000001369,true,high,NA,NA,NA,NA,NA,NA,NA,false
hRCa6JHY,3pgqrazx15xrvqygpna1awvsi04ysb,3180jw2ot8p2hj30it1swi2449mj5x,hRCa6JHY,2020-0188,2020-11-16,21:56:03,22:18:29,NA,incomplete,165,race,2,1,right,A_M_10.jpg,C_M_11.jpg,A_F_14.jpg,right,1008.4250000000466,true,high,NA,NA,NA,NA,NA,NA,NA,false
hRCa6JHY,3pgqrazx15xrvqygpna1awvsi04ysb,3180jw2ot8p2hj30it1swi2449mj5x,hRCa6JHY,2020-0188,2020-11-16,21:56:03,22:18:29,NA,incomplete,166,race,2,1,right,C_M_15.jpg,A_M_13.jpg,C_F_07.jpg,left,980.1100000004517,false,high,NA,NA,NA,NA,NA,NA,NA,false
hRCa6JHY,3pgqrazx15xrvqygpna1awvsi04ysb,3180jw2ot8p2hj30it1swi2449mj5x,hRCa6JHY,2020-0188,2020-11-16,21:56:03,22:18:29,NA,incomplete,167,race,2,1,left,C_M_13.jpg,C_F_08.jpg,A_M_07.jpg,left,968.3850000001257,true,high,NA,NA,NA,NA,NA,NA,NA,false
hRCa6JHY,3pgqrazx15xrvqygpna1awvsi04ysb,3180jw2ot8p2hj30it1swi2449mj5x,hRCa6JHY,2020-0188,2020-11-16,21:56:03,22:18:29,NA,incomplete,168,race,2,1,left,C_M_12.jpg,C_F_05.jpg,A_M_11.jpg,left,926.0949999989243,true,high,NA,NA,NA,NA,NA,NA,NA,false
hRCa6JHY,3pgqrazx15xrvqygpna1awvsi04ysb,3180jw2ot8p2hj30it1swi2449mj5x,hRCa6JHY,2020-0188,2020-11-16,21:56:03,22:18:29,NA,incomplete,169,race,2,0,right,C_F_09.jpg,A_F_12.jpg,C_M_14.jpg,right,1036.3699999980163,true,high,NA,NA,NA,NA,NA,NA,NA,false
hRCa6JHY,3pgqrazx15xrvqygpna1awvsi04ysb,3180jw2ot8p2hj30it1swi2449mj5x,hRCa6JHY,2020-0188,2020-11-16,21:56:03,22:18:29,NA,incomplete,170,race,2,1,left,A_M_10.jpg,A_F_06.jpg,C_M_05.jpg,left,1310.4750000020722,true,high,NA,NA,NA,NA,NA,NA,NA,false
hRCa6JHY,3pgqrazx15xrvqygpna1awvsi04ysb,3180jw2ot8p2hj30it1swi2449mj5x,hRCa6JHY,2020-0188,2020-11-16,21:56:03,22:18:29,NA,incomplete,171,race,2,1,right,C_M_13.jpg,A_M_11.jpg,C_F_10.jpg,right,1085.800000000745,true,high,NA,NA,NA,NA,NA,NA,NA,false
hRCa6JHY,3pgqrazx15xrvqygpna1awvsi04ysb,3180jw2ot8p2hj30it1swi2449mj5x,hRCa6JHY,2020-0188,2020-11-16,21:56:03,22:18:29,NA,incomplete,172,race,2,1,right,A_F_13.jpg,C_F_04.jpg,A_M_08.jpg,right,1086.6549999990966,true,high,NA,NA,NA,NA,NA,NA,NA,false
hRCa6JHY,3pgqrazx15xrvqygpna1awvsi04ysb,3180jw2ot8p2hj30it1swi2449mj5x,hRCa6JHY,2020-0188,2020-11-16,21:56:03,22:18:29,NA,incomplete,173,race,2,1,right,A_M_09.jpg,C_M_02.jpg,A_F_10.jpg,right,1095.4600000004284,true,high,NA,NA,NA,NA,NA,NA,NA,false
hRCa6JHY,3pgqrazx15xrvqygpna1awvsi04ysb,3180jw2ot8p2hj30it1swi2449mj5x,hRCa6JHY,2020-0188,2020-11-16,21:56:03,22:18:29,NA,incomplete,174,race,2,1,left,C_F_11.jpg,C_M_08.jpg,A_F_02.jpg,left,1191.6649999985239,true,high,NA,NA,NA,NA,NA,NA,NA,false
hRCa6JHY,3pgqrazx15xrvqygpna1awvsi04ysb,3180jw2ot8p2hj30it1swi2449mj5x,hRCa6JHY,2020-0188,2020-11-16,21:56:03,22:18:29,NA,incomplete,175,race,2,1,right,A_M_14.jpg,C_M_07.jpg,A_F_01.jpg,right,980.7750000001397,true,high,NA,NA,NA,NA,NA,NA,NA,false
hRCa6JHY,3pgqrazx15xrvqygpna1awvsi04ysb,3180jw2ot8p2hj30it1swi2449mj5x,hRCa6JHY,2020-0188,2020-11-16,21:56:03,22:18:29,NA,incomplete,176,race,2,1,right,C_F_15.jpg,A_F_08.jpg,C_M_16.jpg,right,1088.0550000001676,true,high,NA,NA,NA,NA,NA,NA,NA,false
hRCa6JHY,3pgqrazx15xrvqygpna1awvsi04ysb,3180jw2ot8p2hj30it1swi2449mj5x,hRCa6JHY,2020-0188,2020-11-16,21:56:03,22:18:29,NA,incomplete,177,race,2,1,left,C_F_06.jpg,C_M_15.jpg,A_F_07.jpg,left,1200.630000002915,true,high,NA,NA,NA,NA,NA,NA,NA,false
hRCa6JHY,3pgqrazx15xrvqygpna1awvsi04ysb,3180jw2ot8p2hj30it1swi2449mj5x,hRCa6JHY,2020-0188,2020-11-16,21:56:03,22:18:29,NA,incomplete,178,race,2,1,right,A_F_02.jpg,C_F_08.jpg,A_M_04.jpg,right,1204.4950000017416,true,high,NA,NA,NA,NA,NA,NA,NA,false
hRCa6JHY,3pgqrazx15xrvqygpna1awvsi04ysb,3180jw2ot8p2hj30it1swi2449mj5x,hRCa6JHY,2020-0188,2020-11-16,21:56:03,22:18:29,NA,incomplete,179,race,2,1,right,A_F_15.jpg,C_F_08.jpg,A_M_10.jpg,right,1088.5899999993853,true,high,NA,NA,NA,NA,NA,NA,NA,false
hRCa6JHY,3pgqrazx15xrvqygpna1awvsi04ysb,3180jw2ot8p2hj30it1swi2449mj5x,hRCa6JHY,2020-0188,2020-11-16,21:56:03,22:18:29,NA,incomplete,180,gender,3,0,left,C_M_07.jpg,A_M_06.jpg,C_F_12.jpg,right,1209.1350000009406,false,high,NA,NA,NA,NA,NA,NA,NA,false
hRCa6JHY,3pgqrazx15xrvqygpna1awvsi04ysb,3180jw2ot8p2hj30it1swi2449mj5x,hRCa6JHY,2020-0188,2020-11-16,21:56:03,22:18:29,NA,incomplete,181,gender,3,1,right,A_F_08.jpg,A_M_02.jpg,C_F_10.jpg,left,981.855000001844,false,high,NA,NA,NA,NA,NA,NA,NA,false
hRCa6JHY,3pgqrazx15xrvqygpna1awvsi04ysb,3180jw2ot8p2hj30it1swi2449mj5x,hRCa6JHY,2020-0188,2020-11-16,21:56:03,22:18:29,NA,incomplete,182,gender,3,1,left,A_F_09.jpg,C_F_02.jpg,A_M_07.jpg,right,931.3299999996088,false,high,NA,NA,NA,NA,NA,NA,NA,false
hRCa6JHY,3pgqrazx15xrvqygpna1awvsi04ysb,3180jw2ot8p2hj30it1swi2449mj5x,hRCa6JHY,2020-0188,2020-11-16,21:56:03,22:18:29,NA,incomplete,183,gender,3,0,left,A_M_01.jpg,C_M_06.jpg,A_F_11.jpg,left,1240.1900000004098,true,high,NA,NA,NA,NA,NA,NA,NA,false
hRCa6JHY,3pgqrazx15xrvqygpna1awvsi04ysb,3180jw2ot8p2hj30it1swi2449mj5x,hRCa6JHY,2020-0188,2020-11-16,21:56:03,22:18:29,NA,incomplete,184,gender,3,1,left,C_F_08.jpg,A_F_06.jpg,C_M_04.jpg,left,1091.1950000007637,true,high,NA,NA,NA,NA,NA,NA,NA,false
hRCa6JHY,3pgqrazx15xrvqygpna1awvsi04ysb,3180jw2ot8p2hj30it1swi2449mj5x,hRCa6JHY,2020-0188,2020-11-16,21:56:03,22:18:29,NA,incomplete,185,gender,3,1,right,A_M_08.jpg,A_F_01.jpg,C_M_03.jpg,right,805.2150000003166,true,high,NA,NA,NA,NA,NA,NA,NA,false
hRCa6JHY,3pgqrazx15xrvqygpna1awvsi04ysb,3180jw2ot8p2hj30it1swi2449mj5x,hRCa6JHY,2020-0188,2020-11-16,21:56:03,22:18:29,NA,incomplete,186,gender,3,1,right,C_M_10.jpg,C_F_12.jpg,A_M_16.jpg,right,737.4350000028498,true,high,NA,NA,NA,NA,NA,NA,NA,false
hRCa6JHY,3pgqrazx15xrvqygpna1awvsi04ysb,3180jw2ot8p2hj30it1swi2449mj5x,hRCa6JHY,2020-0188,2020-11-16,21:56:03,22:18:29,NA,incomplete,187,gender,3,1,right,C_M_02.jpg,C_F_07.jpg,A_M_14.jpg,right,1023.0400000000373,true,high,NA,NA,NA,NA,NA,NA,NA,false
hRCa6JHY,3pgqrazx15xrvqygpna1awvsi04ysb,3180jw2ot8p2hj30it1swi2449mj5x,hRCa6JHY,2020-0188,2020-11-16,21:56:03,22:18:29,NA,incomplete,188,gender,3,1,left,A_F_04.jpg,C_F_11.jpg,A_M_14.jpg,left,842.6099999996368,true,high,NA,NA,NA,NA,NA,NA,NA,false
hRCa6JHY,3pgqrazx15xrvqygpna1awvsi04ysb,3180jw2ot8p2hj30it1swi2449mj5x,hRCa6JHY,2020-0188,2020-11-16,21:56:03,22:18:29,NA,incomplete,189,gender,3,1,left,A_F_14.jpg,C_F_07.jpg,A_M_13.jpg,left,1275.5099999995437,true,high,NA,NA,NA,NA,NA,NA,NA,false
hRCa6JHY,3pgqrazx15xrvqygpna1awvsi04ysb,3180jw2ot8p2hj30it1swi2449mj5x,hRCa6JHY,2020-0188,2020-11-16,21:56:03,22:18:29,NA,incomplete,190,gender,3,1,left,C_F_14.jpg,A_F_06.jpg,C_M_04.jpg,left,910.934999999823,true,high,NA,NA,NA,NA,NA,NA,NA,false
hRCa6JHY,3pgqrazx15xrvqygpna1awvsi04ysb,3180jw2ot8p2hj30it1swi2449mj5x,hRCa6JHY,2020-0188,2020-11-16,21:56:03,22:18:29,NA,incomplete,191,gender,3,1,right,A_F_09.jpg,A_M_14.jpg,C_F_02.jpg,right,1285.1449999979232,true,high,NA,NA,NA,NA,NA,NA,NA,false
hRCa6JHY,3pgqrazx15xrvqygpna1awvsi04ysb,3180jw2ot8p2hj30it1swi2449mj5x,hRCa6JHY,2020-0188,2020-11-16,21:56:03,22:18:29,NA,incomplete,192,gender,3,1,right,C_M_14.jpg,C_F_10.jpg,A_M_12.jpg,left,1197.4649999975227,false,high,NA,NA,NA,NA,NA,NA,NA,false
hRCa6JHY,3pgqrazx15xrvqygpna1awvsi04ysb,3180jw2ot8p2hj30it1swi2449mj5x,hRCa6JHY,2020-0188,2020-11-16,21:56:03,22:18:29,NA,incomplete,193,gender,3,1,right,C_F_07.jpg,C_M_15.jpg,A_F_16.jpg,right,914.4849999975413,true,high,NA,NA,NA,NA,NA,NA,NA,false
hRCa6JHY,3pgqrazx15xrvqygpna1awvsi04ysb,3180jw2ot8p2hj30it1swi2449mj5x,hRCa6JHY,2020-0188,2020-11-16,21:56:03,22:18:29,NA,incomplete,194,gender,3,1,right,C_F_15.jpg,C_M_05.jpg,A_F_08.jpg,right,763.150000002468,true,high,NA,NA,NA,NA,NA,NA,NA,false
hRCa6JHY,3pgqrazx15xrvqygpna1awvsi04ysb,3180jw2ot8p2hj30it1swi2449mj5x,hRCa6JHY,2020-0188,2020-11-16,21:56:03,22:18:29,NA,incomplete,195,gender,3,1,left,C_M_16.jpg,A_M_09.jpg,C_F_11.jpg,right,967.9349999970291,false,high,NA,NA,NA,NA,NA,NA,NA,false
hRCa6JHY,3pgqrazx15xrvqygpna1awvsi04ysb,3180jw2ot8p2hj30it1swi2449mj5x,hRCa6JHY,2020-0188,2020-11-16,21:56:03,22:18:29,NA,incomplete,196,gender,3,1,left,A_M_02.jpg,C_M_04.jpg,A_F_15.jpg,left,1156.1350000011735,true,high,NA,NA,NA,NA,NA,NA,NA,false
hRCa6JHY,3pgqrazx15xrvqygpna1awvsi04ysb,3180jw2ot8p2hj30it1swi2449mj5x,hRCa6JHY,2020-0188,2020-11-16,21:56:03,22:18:29,NA,incomplete,197,gender,3,1,right,A_M_13.jpg,A_F_16.jpg,C_M_12.jpg,right,756.0849999974016,true,high,NA,NA,NA,NA,NA,NA,NA,false
hRCa6JHY,3pgqrazx15xrvqygpna1awvsi04ysb,3180jw2ot8p2hj30it1swi2449mj5x,hRCa6JHY,2020-0188,2020-11-16,21:56:03,22:18:29,NA,incomplete,198,gender,3,1,left,A_F_13.jpg,C_F_09.jpg,A_M_03.jpg,left,889.91999999783,true,high,NA,NA,NA,NA,NA,NA,NA,false
hRCa6JHY,3pgqrazx15xrvqygpna1awvsi04ysb,3180jw2ot8p2hj30it1swi2449mj5x,hRCa6JHY,2020-0188,2020-11-16,21:56:03,22:18:29,NA,incomplete,199,gender,3,1,right,C_F_10.jpg,C_M_07.jpg,A_F_13.jpg,right,826.1050000002142,true,high,NA,NA,NA,NA,NA,NA,NA,false
hRCa6JHY,3pgqrazx15xrvqygpna1awvsi04ysb,3180jw2ot8p2hj30it1swi2449mj5x,hRCa6JHY,2020-0188,2020-11-16,21:56:03,22:18:29,NA,incomplete,200,race,2,1,left,A_F_01.jpg,A_M_14.jpg,C_F_03.jpg,right,822.0000000002328,false,high,NA,NA,NA,NA,NA,NA,NA,false
hRCa6JHY,3pgqrazx15xrvqygpna1awvsi04ysb,3180jw2ot8p2hj30it1swi2449mj5x,hRCa6JHY,2020-0188,2020-11-16,21:56:03,22:18:29,NA,incomplete,201,race,2,0,right,A_F_09.jpg,C_F_06.jpg,A_M_13.jpg,left,689.9349999984261,false,high,NA,NA,NA,NA,NA,NA,NA,false
hRCa6JHY,3pgqrazx15xrvqygpna1awvsi04ysb,3180jw2ot8p2hj30it1swi2449mj5x,hRCa6JHY,2020-0188,2020-11-16,21:56:03,22:18:29,NA,incomplete,202,race,2,1,right,C_F_13.jpg,A_F_03.jpg,C_M_01.jpg,left,777.9950000003446,false,high,NA,NA,NA,NA,NA,NA,NA,false
hRCa6JHY,3pgqrazx15xrvqygpna1awvsi04ysb,3180jw2ot8p2hj30it1swi2449mj5x,hRCa6JHY,2020-0188,2020-11-16,21:56:03,22:18:29,NA,incomplete,203,race,2,1,right,A_F_02.jpg,C_F_13.jpg,A_M_11.jpg,left,743.0300000016578,false,high,NA,NA,NA,NA,NA,NA,NA,false
hRCa6JHY,3pgqrazx15xrvqygpna1awvsi04ysb,3180jw2ot8p2hj30it1swi2449mj5x,hRCa6JHY,2020-0188,2020-11-16,21:56:03,22:18:29,NA,incomplete,204,race,2,1,left,A_M_11.jpg,A_F_12.jpg,C_M_04.jpg,left,1116.270000002347,true,high,NA,NA,NA,NA,NA,NA,NA,false
hRCa6JHY,3pgqrazx15xrvqygpna1awvsi04ysb,3180jw2ot8p2hj30it1swi2449mj5x,hRCa6JHY,2020-0188,2020-11-16,21:56:03,22:18:29,NA,incomplete,205,race,2,1,left,A_F_10.jpg,A_M_05.jpg,C_F_11.jpg,left,971.5500000019092,true,high,NA,NA,NA,NA,NA,NA,NA,false
hRCa6JHY,3pgqrazx15xrvqygpna1awvsi04ysb,3180jw2ot8p2hj30it1swi2449mj5x,hRCa6JHY,2020-0188,2020-11-16,21:56:03,22:18:29,NA,incomplete,206,race,2,1,left,A_F_07.jpg,A_M_16.jpg,C_F_08.jpg,left,945.6800000006333,true,high,NA,NA,NA,NA,NA,NA,NA,false
hRCa6JHY,3pgqrazx15xrvqygpna1awvsi04ysb,3180jw2ot8p2hj30it1swi2449mj5x,hRCa6JHY,2020-0188,2020-11-16,21:56:03,22:18:29,NA,incomplete,207,race,2,0,right,C_M_16.jpg,A_M_08.jpg,C_F_14.jpg,right,1007.0850000011269,true,high,NA,NA,NA,NA,NA,NA,NA,false
hRCa6JHY,3pgqrazx15xrvqygpna1awvsi04ysb,3180jw2ot8p2hj30it1swi2449mj5x,hRCa6JHY,2020-0188,2020-11-16,21:56:03,22:18:29,NA,incomplete,208,race,2,1,right,C_M_07.jpg,A_M_13.jpg,C_F_10.jpg,right,1098.7900000000373,true,high,NA,NA,NA,NA,NA,NA,NA,false
hRCa6JHY,3pgqrazx15xrvqygpna1awvsi04ysb,3180jw2ot8p2hj30it1swi2449mj5x,hRCa6JHY,2020-0188,2020-11-16,21:56:03,22:18:29,NA,incomplete,209,race,2,0,left,A_M_10.jpg,A_F_03.jpg,C_M_13.jpg,left,970.9849999998696,true,high,NA,NA,NA,NA,NA,NA,NA,false
hRCa6JHY,3pgqrazx15xrvqygpna1awvsi04ysb,3180jw2ot8p2hj30it1swi2449mj5x,hRCa6JHY,2020-0188,2020-11-16,21:56:03,22:18:29,NA,incomplete,210,race,2,1,right,C_M_01.jpg,A_M_08.jpg,C_F_12.jpg,left,840.5449999989942,false,high,NA,NA,NA,NA,NA,NA,NA,false
hRCa6JHY,3pgqrazx15xrvqygpna1awvsi04ysb,3180jw2ot8p2hj30it1swi2449mj5x,hRCa6JHY,2020-0188,2020-11-16,21:56:03,22:18:29,NA,incomplete,211,race,2,1,left,A_F_10.jpg,A_M_04.jpg,C_F_16.jpg,left,963.1100000005681,true,high,NA,NA,NA,NA,NA,NA,NA,false
hRCa6JHY,3pgqrazx15xrvqygpna1awvsi04ysb,3180jw2ot8p2hj30it1swi2449mj5x,hRCa6JHY,2020-0188,2020-11-16,21:56:03,22:18:29,NA,incomplete,212,race,2,1,left,A_F_07.jpg,A_M_05.jpg,C_F_06.jpg,left,928.1450000016484,true,high,NA,NA,NA,NA,NA,NA,NA,false
hRCa6JHY,3pgqrazx15xrvqygpna1awvsi04ysb,3180jw2ot8p2hj30it1swi2449mj5x,hRCa6JHY,2020-0188,2020-11-16,21:56:03,22:18:29,NA,incomplete,213,race,2,0,left,C_M_08.jpg,C_F_11.jpg,A_M_12.jpg,left,1078.9150000019,true,high,NA,NA,NA,NA,NA,NA,NA,false
hRCa6JHY,3pgqrazx15xrvqygpna1awvsi04ysb,3180jw2ot8p2hj30it1swi2449mj5x,hRCa6JHY,2020-0188,2020-11-16,21:56:03,22:18:29,NA,incomplete,214,race,2,1,right,A_F_12.jpg,C_F_03.jpg,A_M_16.jpg,left,1079.7099999981,false,high,NA,NA,NA,NA,NA,NA,NA,false
hRCa6JHY,3pgqrazx15xrvqygpna1awvsi04ysb,3180jw2ot8p2hj30it1swi2449mj5x,hRCa6JHY,2020-0188,2020-11-16,21:56:03,22:18:29,NA,incomplete,215,race,2,1,right,C_M_16.jpg,A_M_04.jpg,C_F_07.jpg,left,1191.3649999988265,false,high,NA,NA,NA,NA,NA,NA,NA,false
hRCa6JHY,3pgqrazx15xrvqygpna1awvsi04ysb,3180jw2ot8p2hj30it1swi2449mj5x,hRCa6JHY,2020-0188,2020-11-16,21:56:03,22:18:29,NA,incomplete,216,race,2,1,right,C_M_10.jpg,A_M_01.jpg,C_F_14.jpg,right,893.7499999993015,true,high,NA,NA,NA,NA,NA,NA,NA,false
hRCa6JHY,3pgqrazx15xrvqygpna1awvsi04ysb,3180jw2ot8p2hj30it1swi2449mj5x,hRCa6JHY,2020-0188,2020-11-16,21:56:03,22:18:29,NA,incomplete,217,race,2,0,right,C_M_04.jpg,A_M_13.jpg,C_F_15.jpg,right,918.1399999980349,true,high,NA,NA,NA,NA,NA,NA,NA,false
hRCa6JHY,3pgqrazx15xrvqygpna1awvsi04ysb,3180jw2ot8p2hj30it1swi2449mj5x,hRCa6JHY,2020-0188,2020-11-16,21:56:03,22:18:29,NA,incomplete,218,race,2,1,right,A_M_10.jpg,C_M_02.jpg,A_F_06.jpg,right,956.7950000017881,true,high,NA,NA,NA,NA,NA,NA,NA,false
hRCa6JHY,3pgqrazx15xrvqygpna1awvsi04ysb,3180jw2ot8p2hj30it1swi2449mj5x,hRCa6JHY,2020-0188,2020-11-16,21:56:03,22:18:29,NA,incomplete,219,race,2,1,left,A_F_10.jpg,A_M_06.jpg,C_F_15.jpg,left,978.5400000000373,true,high,NA,NA,NA,NA,NA,NA,NA,false
hRCa6JHY,3pgqrazx15xrvqygpna1awvsi04ysb,3180jw2ot8p2hj30it1swi2449mj5x,hRCa6JHY,2020-0188,2020-11-16,21:56:03,22:18:29,NA,incomplete,220,gender,3,0,right,A_M_04.jpg,A_F_11.jpg,C_M_10.jpg,left,864.3499999998603,false,high,NA,NA,NA,NA,NA,NA,NA,false
hRCa6JHY,3pgqrazx15xrvqygpna1awvsi04ysb,3180jw2ot8p2hj30it1swi2449mj5x,hRCa6JHY,2020-0188,2020-11-16,21:56:03,22:18:29,NA,incomplete,221,gender,3,1,right,A_F_15.jpg,A_M_14.jpg,C_F_03.jpg,left,920.8849999995437,false,high,NA,NA,NA,NA,NA,NA,NA,false
hRCa6JHY,3pgqrazx15xrvqygpna1awvsi04ysb,3180jw2ot8p2hj30it1swi2449mj5x,hRCa6JHY,2020-0188,2020-11-16,21:56:03,22:18:29,NA,incomplete,222,gender,3,0,right,A_F_04.jpg,A_M_02.jpg,C_F_06.jpg,left,1023.8850000023376,false,high,NA,NA,NA,NA,NA,NA,NA,false
hRCa6JHY,3pgqrazx15xrvqygpna1awvsi04ysb,3180jw2ot8p2hj30it1swi2449mj5x,hRCa6JHY,2020-0188,2020-11-16,21:56:03,22:18:29,NA,incomplete,223,gender,3,1,right,A_M_01.jpg,A_F_11.jpg,C_M_05.jpg,left,891.4499999992549,false,high,NA,NA,NA,NA,NA,NA,NA,false
hRCa6JHY,3pgqrazx15xrvqygpna1awvsi04ysb,3180jw2ot8p2hj30it1swi2449mj5x,hRCa6JHY,2020-0188,2020-11-16,21:56:03,22:18:29,NA,incomplete,224,gender,3,0,left,C_F_14.jpg,A_F_04.jpg,C_M_15.jpg,left,764.9750000019558,true,high,NA,NA,NA,NA,NA,NA,NA,false
hRCa6JHY,3pgqrazx15xrvqygpna1awvsi04ysb,3180jw2ot8p2hj30it1swi2449mj5x,hRCa6JHY,2020-0188,2020-11-16,21:56:03,22:18:29,NA,incomplete,225,gender,3,1,left,C_M_15.jpg,A_M_01.jpg,C_F_06.jpg,left,905.445000000298,true,high,NA,NA,NA,NA,NA,NA,NA,false
hRCa6JHY,3pgqrazx15xrvqygpna1awvsi04ysb,3180jw2ot8p2hj30it1swi2449mj5x,hRCa6JHY,2020-0188,2020-11-16,21:56:03,22:18:29,NA,incomplete,226,gender,3,1,right,A_M_09.jpg,A_F_07.jpg,C_M_08.jpg,right,842.6299999991897,true,high,NA,NA,NA,NA,NA,NA,NA,false
hRCa6JHY,3pgqrazx15xrvqygpna1awvsi04ysb,3180jw2ot8p2hj30it1swi2449mj5x,hRCa6JHY,2020-0188,2020-11-16,21:56:03,22:18:29,NA,incomplete,227,gender,3,0,right,A_F_15.jpg,A_M_07.jpg,C_F_04.jpg,right,891.9100000020117,true,high,NA,NA,NA,NA,NA,NA,NA,false
hRCa6JHY,3pgqrazx15xrvqygpna1awvsi04ysb,3180jw2ot8p2hj30it1swi2449mj5x,hRCa6JHY,2020-0188,2020-11-16,21:56:03,22:18:29,NA,incomplete,228,gender,3,1,left,C_M_04.jpg,A_M_06.jpg,C_F_03.jpg,left,1099.6599999999162,true,high,NA,NA,NA,NA,NA,NA,NA,false
hRCa6JHY,3pgqrazx15xrvqygpna1awvsi04ysb,3180jw2ot8p2hj30it1swi2449mj5x,hRCa6JHY,2020-0188,2020-11-16,21:56:03,22:18:29,NA,incomplete,229,gender,3,0,left,A_F_03.jpg,C_F_02.jpg,A_M_12.jpg,left,701.6299999994226,true,high,NA,NA,NA,NA,NA,NA,NA,false
hRCa6JHY,3pgqrazx15xrvqygpna1awvsi04ysb,3180jw2ot8p2hj30it1swi2449mj5x,hRCa6JHY,2020-0188,2020-11-16,21:56:03,22:18:29,NA,incomplete,230,gender,3,1,right,A_M_05.jpg,A_F_11.jpg,C_M_12.jpg,left,1139.4599999985658,false,high,NA,NA,NA,NA,NA,NA,NA,false
hRCa6JHY,3pgqrazx15xrvqygpna1awvsi04ysb,3180jw2ot8p2hj30it1swi2449mj5x,hRCa6JHY,2020-0188,2020-11-16,21:56:03,22:18:29,NA,incomplete,231,gender,3,0,right,C_M_06.jpg,C_F_16.jpg,A_M_07.jpg,left,1202.0249999987427,false,high,NA,NA,NA,NA,NA,NA,NA,false
hRCa6JHY,3pgqrazx15xrvqygpna1awvsi04ysb,3180jw2ot8p2hj30it1swi2449mj5x,hRCa6JHY,2020-0188,2020-11-16,21:56:03,22:18:29,NA,incomplete,232,gender,3,1,right,A_F_04.jpg,A_M_13.jpg,C_F_05.jpg,left,1308.9599999985658,false,high,NA,NA,NA,NA,NA,NA,NA,false
hRCa6JHY,3pgqrazx15xrvqygpna1awvsi04ysb,3180jw2ot8p2hj30it1swi2449mj5x,hRCa6JHY,2020-0188,2020-11-16,21:56:03,22:18:29,NA,incomplete,233,gender,3,1,left,A_M_05.jpg,C_M_16.jpg,A_F_08.jpg,left,1213.6749999991152,true,high,NA,NA,NA,NA,NA,NA,NA,false
hRCa6JHY,3pgqrazx15xrvqygpna1awvsi04ysb,3180jw2ot8p2hj30it1swi2449mj5x,hRCa6JHY,2020-0188,2020-11-16,21:56:03,22:18:29,NA,incomplete,234,gender,3,0,left,C_M_15.jpg,A_M_04.jpg,C_F_07.jpg,right,1192.6149999999907,false,high,NA,NA,NA,NA,NA,NA,NA,false
hRCa6JHY,3pgqrazx15xrvqygpna1awvsi04ysb,3180jw2ot8p2hj30it1swi2449mj5x,hRCa6JHY,2020-0188,2020-11-16,21:56:03,22:18:29,NA,incomplete,235,gender,3,1,left,C_F_11.jpg,A_F_07.jpg,C_M_09.jpg,right,1213.0150000010617,false,high,NA,NA,NA,NA,NA,NA,NA,false
hRCa6JHY,3pgqrazx15xrvqygpna1awvsi04ysb,3180jw2ot8p2hj30it1swi2449mj5x,hRCa6JHY,2020-0188,2020-11-16,21:56:03,22:18:29,NA,incomplete,236,gender,3,1,right,A_M_04.jpg,A_F_07.jpg,C_M_06.jpg,left,970.1600000006147,false,high,NA,NA,NA,NA,NA,NA,NA,false
hRCa6JHY,3pgqrazx15xrvqygpna1awvsi04ysb,3180jw2ot8p2hj30it1swi2449mj5x,hRCa6JHY,2020-0188,2020-11-16,21:56:03,22:18:29,NA,incomplete,237,gender,3,1,left,A_M_14.jpg,C_M_11.jpg,A_F_15.jpg,right,1094.665000000503,false,high,NA,NA,NA,NA,NA,NA,NA,false
hRCa6JHY,3pgqrazx15xrvqygpna1awvsi04ysb,3180jw2ot8p2hj30it1swi2449mj5x,hRCa6JHY,2020-0188,2020-11-16,21:56:03,22:18:29,NA,incomplete,238,gender,3,1,right,A_M_06.jpg,A_F_15.jpg,C_M_13.jpg,left,984.1049999997485,false,high,NA,NA,NA,NA,NA,NA,NA,false
hRCa6JHY,3pgqrazx15xrvqygpna1awvsi04ysb,3180jw2ot8p2hj30it1swi2449mj5x,hRCa6JHY,2020-0188,2020-11-16,21:56:03,22:18:29,NA,incomplete,239,gender,3,1,right,A_F_01.jpg,A_M_14.jpg,C_F_07.jpg,right,820.5049999996554,true,high,NA,NA,NA,NA,NA,NA,NA,false
hRCa6JHY,3pgqrazx15xrvqygpna1awvsi04ysb,3180jw2ot8p2hj30it1swi2449mj5x,hRCa6JHY,2020-0188,2020-11-16,21:56:03,22:18:29,NA,NA,instruction example,number,NA,NA,NA,Green_Plus_Chess_4.jpg,Blue_Triangle_Dots_4.jpg,Red_Plus_Stripes_1.jpg,NA,NA,NA,NA,NA,NA,NA,NA,NA,NA,NA,undefined
hRCa6JHY,3pgqrazx15xrvqygpna1awvsi04ysb,3180jw2ot8p2hj30it1swi2449mj5x,hRCa6JHY,2020-0188,2020-11-16,21:56:03,22:18:29,NA,NA,instruction example,number,NA,NA,NA,Blue_Circle_Chess_1.jpg,Purple_Circle_Stripes_2.jpg,Green_Plus_Grid_1.jpg,NA,NA,NA,NA,NA,NA,NA,NA,NA,NA,NA,undefined
hRCa6JHY,3pgqrazx15xrvqygpna1awvsi04ysb,3180jw2ot8p2hj30it1swi2449mj5x,hRCa6JHY,2020-0188,2020-11-16,21:56:03,22:18:29,NA,NA,instruction example,number,NA,NA,NA,C_M_11.jpg,C_F_07.jpg,A_M_06.jpg,NA,NA,NA,NA,NA,NA,NA,NA,NA,NA,NA,undefined
hRCa6JHY,3pgqrazx15xrvqygpna1awvsi04ysb,3180jw2ot8p2hj30it1swi2449mj5x,hRCa6JHY,2020-0188,2020-11-16,21:56:03,22:18:29,NA,NA,instruction example,number,NA,NA,NA,A_M_06.jpg,C_M_02.jpg,A_F_10.jpg,NA,NA,NA,NA,NA,NA,NA,NA,NA,NA,NA,undefined
hRCa6JHY,3pgqrazx15xrvqygpna1awvsi04ysb,3180jw2ot8p2hj30it1swi2449mj5x,hRCa6JHY,2020-0188,2020-11-16,21:56:03,22:18:29,1241168.9999999981,1339600.9599999997,NA,NA,NA,NA,NA,NA,NA,NA,NA,NA,NA,NA,29,White/Caucasian,Male,Caucasian,no,yes,Do not wish to reply,undefined
