workerId,hitId,assignmentId,subject,studyid,exp_date,exp_start,exp_end,time_start,time_end,trial,type,sequence,reward_validity,answer,image_top,image_left,image_right,response,response_time,response_acc,volatility,age,race,gender,ethnicity,color,vision,neuro,practice
pv2xPYPf,3pgqrazx15xrvqygpna1awvsi04ysb,31hq4x3t3wn9ibpbxaqd58pomjdslq,pv2xPYPf,2020-0188,2020-11-16,23:22:08,23:45:06,NA,incomplete,0,number,0,1,left,Purple_Circle_Dots_1.jpg,Blue_Triangle_Chess_1.jpg,Red_Plus_Dots_3.jpg,none,0,false,NA,NA,NA,NA,NA,NA,NA,NA,true
pv2xPYPf,3pgqrazx15xrvqygpna1awvsi04ysb,31hq4x3t3wn9ibpbxaqd58pomjdslq,pv2xPYPf,2020-0188,2020-11-16,23:22:08,23:45:06,NA,incomplete,1,number,0,1,left,Green_Triangle_Grid_4.jpg,Red_Star_Stripes_4.jpg,Purple_Plus_Grid_2.jpg,left,1214.2400000011548,true,NA,NA,NA,NA,NA,NA,NA,NA,true
pv2xPYPf,3pgqrazx15xrvqygpna1awvsi04ysb,31hq4x3t3wn9ibpbxaqd58pomjdslq,pv2xPYPf,2020-0188,2020-11-16,23:22:08,23:45:06,NA,incomplete,2,number,0,1,left,Green_Plus_Stripes_1.jpg,Red_Triangle_Chess_1.jpg,Purple_Star_Stripes_2.jpg,left,1258.5649999964517,true,NA,NA,NA,NA,NA,NA,NA,NA,true
pv2xPYPf,3pgqrazx15xrvqygpna1awvsi04ysb,31hq4x3t3wn9ibpbxaqd58pomjdslq,pv2xPYPf,2020-0188,2020-11-16,23:22:08,23:45:06,NA,incomplete,3,number,0,1,right,Red_Plus_Dots_4.jpg,Green_Circle_Dots_2.jpg,Blue_Triangle_Grid_4.jpg,right,1103.240000004007,true,NA,NA,NA,NA,NA,NA,NA,NA,true
pv2xPYPf,3pgqrazx15xrvqygpna1awvsi04ysb,31hq4x3t3wn9ibpbxaqd58pomjdslq,pv2xPYPf,2020-0188,2020-11-16,23:22:08,23:45:06,NA,incomplete,4,number,0,0,left,Green_Plus_Stripes_4.jpg,Red_Star_Dots_4.jpg,Blue_Circle_Stripes_1.jpg,left,861.189999995986,true,NA,NA,NA,NA,NA,NA,NA,NA,true
pv2xPYPf,3pgqrazx15xrvqygpna1awvsi04ysb,31hq4x3t3wn9ibpbxaqd58pomjdslq,pv2xPYPf,2020-0188,2020-11-16,23:22:08,23:45:06,NA,incomplete,5,number,0,0,left,Red_Star_Stripes_3.jpg,Green_Plus_Grid_3.jpg,Purple_Circle_Stripes_1.jpg,left,1267.1049999989918,true,NA,NA,NA,NA,NA,NA,NA,NA,true
pv2xPYPf,3pgqrazx15xrvqygpna1awvsi04ysb,31hq4x3t3wn9ibpbxaqd58pomjdslq,pv2xPYPf,2020-0188,2020-11-16,23:22:08,23:45:06,NA,incomplete,6,number,0,1,right,Red_Triangle_Dots_3.jpg,Green_Plus_Dots_4.jpg,Blue_Star_Stripes_3.jpg,right,1634.0449999988778,true,NA,NA,NA,NA,NA,NA,NA,NA,true
pv2xPYPf,3pgqrazx15xrvqygpna1awvsi04ysb,31hq4x3t3wn9ibpbxaqd58pomjdslq,pv2xPYPf,2020-0188,2020-11-16,23:22:08,23:45:06,NA,incomplete,7,number,0,1,right,Purple_Triangle_Dots_1.jpg,Red_Circle_Dots_2.jpg,Blue_Plus_Chess_1.jpg,right,1389.389999996638,true,NA,NA,NA,NA,NA,NA,NA,NA,true
pv2xPYPf,3pgqrazx15xrvqygpna1awvsi04ysb,31hq4x3t3wn9ibpbxaqd58pomjdslq,pv2xPYPf,2020-0188,2020-11-16,23:22:08,23:45:06,NA,incomplete,8,number,0,0,left,Purple_Triangle_Chess_1.jpg,Green_Star_Stripes_1.jpg,Blue_Circle_Chess_4.jpg,left,1127.9299999951036,true,NA,NA,NA,NA,NA,NA,NA,NA,true
pv2xPYPf,3pgqrazx15xrvqygpna1awvsi04ysb,31hq4x3t3wn9ibpbxaqd58pomjdslq,pv2xPYPf,2020-0188,2020-11-16,23:22:08,23:45:06,NA,incomplete,9,number,0,1,right,Blue_Circle_Dots_3.jpg,Purple_Triangle_Dots_2.jpg,Red_Plus_Stripes_3.jpg,right,1696.1900000023888,true,NA,NA,NA,NA,NA,NA,NA,NA,true
pv2xPYPf,3pgqrazx15xrvqygpna1awvsi04ysb,31hq4x3t3wn9ibpbxaqd58pomjdslq,pv2xPYPf,2020-0188,2020-11-16,23:22:08,23:45:06,NA,incomplete,10,number,0,1,right,Blue_Star_Stripes_2.jpg,Purple_Circle_Stripes_1.jpg,Red_Triangle_Dots_2.jpg,right,1259.3350000024657,true,NA,NA,NA,NA,NA,NA,NA,NA,true
pv2xPYPf,3pgqrazx15xrvqygpna1awvsi04ysb,31hq4x3t3wn9ibpbxaqd58pomjdslq,pv2xPYPf,2020-0188,2020-11-16,23:22:08,23:45:06,NA,incomplete,11,number,0,1,left,Red_Circle_Chess_3.jpg,Blue_Triangle_Dots_3.jpg,Purple_Star_Chess_4.jpg,left,1193.039999998291,true,NA,NA,NA,NA,NA,NA,NA,NA,true
pv2xPYPf,3pgqrazx15xrvqygpna1awvsi04ysb,31hq4x3t3wn9ibpbxaqd58pomjdslq,pv2xPYPf,2020-0188,2020-11-16,23:22:08,23:45:06,NA,incomplete,12,number,0,1,right,Green_Triangle_Chess_1.jpg,Red_Circle_Chess_2.jpg,Blue_Plus_Stripes_1.jpg,right,1083.9149999956135,true,NA,NA,NA,NA,NA,NA,NA,NA,true
pv2xPYPf,3pgqrazx15xrvqygpna1awvsi04ysb,31hq4x3t3wn9ibpbxaqd58pomjdslq,pv2xPYPf,2020-0188,2020-11-16,23:22:08,23:45:06,NA,incomplete,13,number,0,1,right,Blue_Plus_Chess_1.jpg,Green_Circle_Chess_2.jpg,Purple_Star_Grid_1.jpg,right,768.6850000027334,true,NA,NA,NA,NA,NA,NA,NA,NA,true
pv2xPYPf,3pgqrazx15xrvqygpna1awvsi04ysb,31hq4x3t3wn9ibpbxaqd58pomjdslq,pv2xPYPf,2020-0188,2020-11-16,23:22:08,23:45:06,NA,incomplete,14,number,0,1,left,Blue_Plus_Grid_4.jpg,Green_Star_Chess_4.jpg,Purple_Triangle_Grid_1.jpg,left,984.5050000003539,true,NA,NA,NA,NA,NA,NA,NA,NA,true
pv2xPYPf,3pgqrazx15xrvqygpna1awvsi04ysb,31hq4x3t3wn9ibpbxaqd58pomjdslq,pv2xPYPf,2020-0188,2020-11-16,23:22:08,23:45:06,NA,incomplete,15,number,0,1,left,Red_Plus_Chess_2.jpg,Blue_Star_Dots_2.jpg,Green_Triangle_Chess_1.jpg,left,1053.3900000009453,true,NA,NA,NA,NA,NA,NA,NA,NA,true
pv2xPYPf,3pgqrazx15xrvqygpna1awvsi04ysb,31hq4x3t3wn9ibpbxaqd58pomjdslq,pv2xPYPf,2020-0188,2020-11-16,23:22:08,23:45:06,NA,incomplete,16,number,0,1,right,Red_Plus_Dots_4.jpg,Purple_Star_Dots_2.jpg,Blue_Triangle_Stripes_4.jpg,right,1158.3499999978812,true,NA,NA,NA,NA,NA,NA,NA,NA,true
pv2xPYPf,3pgqrazx15xrvqygpna1awvsi04ysb,31hq4x3t3wn9ibpbxaqd58pomjdslq,pv2xPYPf,2020-0188,2020-11-16,23:22:08,23:45:06,NA,incomplete,17,number,0,1,right,Green_Circle_Stripes_4.jpg,Purple_Plus_Stripes_3.jpg,Blue_Star_Chess_4.jpg,right,959.3100000056438,true,NA,NA,NA,NA,NA,NA,NA,NA,true
pv2xPYPf,3pgqrazx15xrvqygpna1awvsi04ysb,31hq4x3t3wn9ibpbxaqd58pomjdslq,pv2xPYPf,2020-0188,2020-11-16,23:22:08,23:45:06,NA,incomplete,18,number,0,0,right,Purple_Plus_Grid_3.jpg,Red_Triangle_Grid_1.jpg,Blue_Star_Stripes_3.jpg,right,1123.2400000008056,true,NA,NA,NA,NA,NA,NA,NA,NA,true
pv2xPYPf,3pgqrazx15xrvqygpna1awvsi04ysb,31hq4x3t3wn9ibpbxaqd58pomjdslq,pv2xPYPf,2020-0188,2020-11-16,23:22:08,23:45:06,NA,incomplete,19,number,0,0,left,Purple_Triangle_Grid_3.jpg,Blue_Plus_Stripes_3.jpg,Red_Star_Grid_4.jpg,left,1059.3250000019907,true,NA,NA,NA,NA,NA,NA,NA,NA,true
pv2xPYPf,3pgqrazx15xrvqygpna1awvsi04ysb,31hq4x3t3wn9ibpbxaqd58pomjdslq,pv2xPYPf,2020-0188,2020-11-16,23:22:08,23:45:06,NA,incomplete,20,filling,1,1,left,Red_Triangle_Stripes_2.jpg,Blue_Circle_Stripes_3.jpg,Purple_Plus_Chess_2.jpg,none,0,false,NA,NA,NA,NA,NA,NA,NA,NA,true
pv2xPYPf,3pgqrazx15xrvqygpna1awvsi04ysb,31hq4x3t3wn9ibpbxaqd58pomjdslq,pv2xPYPf,2020-0188,2020-11-16,23:22:08,23:45:06,NA,incomplete,21,filling,1,1,right,Blue_Circle_Chess_4.jpg,Purple_Star_Grid_4.jpg,Red_Plus_Chess_1.jpg,right,1550.2699999997276,true,NA,NA,NA,NA,NA,NA,NA,NA,true
pv2xPYPf,3pgqrazx15xrvqygpna1awvsi04ysb,31hq4x3t3wn9ibpbxaqd58pomjdslq,pv2xPYPf,2020-0188,2020-11-16,23:22:08,23:45:06,NA,incomplete,22,filling,1,1,right,Blue_Plus_Dots_2.jpg,Green_Star_Stripes_2.jpg,Purple_Triangle_Dots_1.jpg,right,1844.985000003362,true,NA,NA,NA,NA,NA,NA,NA,NA,true
pv2xPYPf,3pgqrazx15xrvqygpna1awvsi04ysb,31hq4x3t3wn9ibpbxaqd58pomjdslq,pv2xPYPf,2020-0188,2020-11-16,23:22:08,23:45:06,NA,incomplete,23,filling,1,1,left,Blue_Circle_Stripes_1.jpg,Green_Triangle_Stripes_2.jpg,Purple_Star_Chess_1.jpg,left,1000.5750000054832,true,NA,NA,NA,NA,NA,NA,NA,NA,true
pv2xPYPf,3pgqrazx15xrvqygpna1awvsi04ysb,31hq4x3t3wn9ibpbxaqd58pomjdslq,pv2xPYPf,2020-0188,2020-11-16,23:22:08,23:45:06,NA,incomplete,24,filling,1,0,right,Blue_Circle_Chess_4.jpg,Green_Plus_Dots_4.jpg,Purple_Triangle_Chess_1.jpg,right,1248.6800000042422,true,NA,NA,NA,NA,NA,NA,NA,NA,true
pv2xPYPf,3pgqrazx15xrvqygpna1awvsi04ysb,31hq4x3t3wn9ibpbxaqd58pomjdslq,pv2xPYPf,2020-0188,2020-11-16,23:22:08,23:45:06,NA,incomplete,25,filling,1,0,left,Red_Triangle_Chess_1.jpg,Purple_Star_Chess_4.jpg,Blue_Plus_Grid_1.jpg,left,1248.7999999939348,true,NA,NA,NA,NA,NA,NA,NA,NA,true
pv2xPYPf,3pgqrazx15xrvqygpna1awvsi04ysb,31hq4x3t3wn9ibpbxaqd58pomjdslq,pv2xPYPf,2020-0188,2020-11-16,23:22:08,23:45:06,NA,incomplete,26,filling,1,1,right,Purple_Plus_Chess_2.jpg,Green_Triangle_Stripes_2.jpg,Blue_Circle_Chess_4.jpg,right,1436.954999997397,true,NA,NA,NA,NA,NA,NA,NA,NA,true
pv2xPYPf,3pgqrazx15xrvqygpna1awvsi04ysb,31hq4x3t3wn9ibpbxaqd58pomjdslq,pv2xPYPf,2020-0188,2020-11-16,23:22:08,23:45:06,NA,incomplete,27,filling,1,1,left,Red_Triangle_Dots_4.jpg,Blue_Star_Dots_3.jpg,Purple_Circle_Grid_4.jpg,left,1198.4400000000605,true,NA,NA,NA,NA,NA,NA,NA,NA,true
pv2xPYPf,3pgqrazx15xrvqygpna1awvsi04ysb,31hq4x3t3wn9ibpbxaqd58pomjdslq,pv2xPYPf,2020-0188,2020-11-16,23:22:08,23:45:06,NA,incomplete,28,filling,1,1,left,Purple_Star_Grid_2.jpg,Green_Plus_Grid_3.jpg,Red_Triangle_Dots_2.jpg,left,1200.134999999078,true,NA,NA,NA,NA,NA,NA,NA,NA,true
pv2xPYPf,3pgqrazx15xrvqygpna1awvsi04ysb,31hq4x3t3wn9ibpbxaqd58pomjdslq,pv2xPYPf,2020-0188,2020-11-16,23:22:08,23:45:06,NA,incomplete,29,filling,1,1,left,Green_Plus_Stripes_1.jpg,Purple_Star_Stripes_2.jpg,Blue_Triangle_Grid_1.jpg,left,1454.2549999969779,true,NA,NA,NA,NA,NA,NA,NA,NA,true
pv2xPYPf,3pgqrazx15xrvqygpna1awvsi04ysb,31hq4x3t3wn9ibpbxaqd58pomjdslq,pv2xPYPf,2020-0188,2020-11-16,23:22:08,23:45:06,NA,incomplete,30,filling,1,1,right,Red_Plus_Dots_1.jpg,Blue_Star_Grid_1.jpg,Purple_Circle_Dots_4.jpg,right,1626.849999993341,true,NA,NA,NA,NA,NA,NA,NA,NA,true
pv2xPYPf,3pgqrazx15xrvqygpna1awvsi04ysb,31hq4x3t3wn9ibpbxaqd58pomjdslq,pv2xPYPf,2020-0188,2020-11-16,23:22:08,23:45:06,NA,incomplete,31,filling,1,1,left,Purple_Star_Grid_2.jpg,Red_Circle_Grid_1.jpg,Blue_Plus_Chess_2.jpg,left,1673.7099999954225,true,NA,NA,NA,NA,NA,NA,NA,NA,true
pv2xPYPf,3pgqrazx15xrvqygpna1awvsi04ysb,31hq4x3t3wn9ibpbxaqd58pomjdslq,pv2xPYPf,2020-0188,2020-11-16,23:22:08,23:45:06,NA,incomplete,32,filling,1,1,left,Purple_Plus_Dots_3.jpg,Blue_Triangle_Dots_2.jpg,Green_Star_Stripes_3.jpg,none,0,false,NA,NA,NA,NA,NA,NA,NA,NA,true
pv2xPYPf,3pgqrazx15xrvqygpna1awvsi04ysb,31hq4x3t3wn9ibpbxaqd58pomjdslq,pv2xPYPf,2020-0188,2020-11-16,23:22:08,23:45:06,NA,incomplete,33,filling,1,1,right,Green_Circle_Dots_1.jpg,Blue_Triangle_Grid_1.jpg,Red_Star_Dots_3.jpg,right,1209.999999999185,true,NA,NA,NA,NA,NA,NA,NA,NA,true
pv2xPYPf,3pgqrazx15xrvqygpna1awvsi04ysb,31hq4x3t3wn9ibpbxaqd58pomjdslq,pv2xPYPf,2020-0188,2020-11-16,23:22:08,23:45:06,NA,incomplete,34,filling,1,1,left,Purple_Plus_Chess_4.jpg,Red_Star_Chess_3.jpg,Green_Triangle_Grid_4.jpg,left,1326.6450000010664,true,NA,NA,NA,NA,NA,NA,NA,NA,true
pv2xPYPf,3pgqrazx15xrvqygpna1awvsi04ysb,31hq4x3t3wn9ibpbxaqd58pomjdslq,pv2xPYPf,2020-0188,2020-11-16,23:22:08,23:45:06,NA,incomplete,35,filling,1,1,right,Red_Circle_Grid_4.jpg,Green_Star_Chess_4.jpg,Purple_Plus_Grid_2.jpg,right,1125.3500000020722,true,NA,NA,NA,NA,NA,NA,NA,NA,true
pv2xPYPf,3pgqrazx15xrvqygpna1awvsi04ysb,31hq4x3t3wn9ibpbxaqd58pomjdslq,pv2xPYPf,2020-0188,2020-11-16,23:22:08,23:45:06,NA,incomplete,36,filling,1,0,left,Purple_Triangle_Chess_3.jpg,Red_Plus_Chess_2.jpg,Blue_Circle_Dots_3.jpg,left,1007.8700000012759,true,NA,NA,NA,NA,NA,NA,NA,NA,true
pv2xPYPf,3pgqrazx15xrvqygpna1awvsi04ysb,31hq4x3t3wn9ibpbxaqd58pomjdslq,pv2xPYPf,2020-0188,2020-11-16,23:22:08,23:45:06,NA,incomplete,37,filling,1,1,left,Purple_Plus_Stripes_3.jpg,Red_Triangle_Stripes_1.jpg,Green_Star_Dots_3.jpg,left,1091.8049999964423,true,NA,NA,NA,NA,NA,NA,NA,NA,true
pv2xPYPf,3pgqrazx15xrvqygpna1awvsi04ysb,31hq4x3t3wn9ibpbxaqd58pomjdslq,pv2xPYPf,2020-0188,2020-11-16,23:22:08,23:45:06,NA,incomplete,38,filling,1,1,right,Red_Star_Stripes_1.jpg,Green_Triangle_Dots_1.jpg,Blue_Circle_Stripes_4.jpg,right,1040.7699999996694,true,NA,NA,NA,NA,NA,NA,NA,NA,true
pv2xPYPf,3pgqrazx15xrvqygpna1awvsi04ysb,31hq4x3t3wn9ibpbxaqd58pomjdslq,pv2xPYPf,2020-0188,2020-11-16,23:22:08,23:45:06,NA,incomplete,39,filling,1,1,left,Red_Plus_Dots_3.jpg,Blue_Triangle_Dots_4.jpg,Purple_Star_Chess_3.jpg,left,1322.3700000016252,true,NA,NA,NA,NA,NA,NA,NA,NA,true
pv2xPYPf,3pgqrazx15xrvqygpna1awvsi04ysb,31hq4x3t3wn9ibpbxaqd58pomjdslq,pv2xPYPf,2020-0188,2020-11-16,23:22:08,23:45:06,NA,incomplete,0,number,0,1,left,Red_Plus_Chess_4.jpg,Blue_Circle_Dots_4.jpg,Purple_Triangle_Chess_1.jpg,left,1260.940000000177,true,high,NA,NA,NA,NA,NA,NA,NA,false
pv2xPYPf,3pgqrazx15xrvqygpna1awvsi04ysb,31hq4x3t3wn9ibpbxaqd58pomjdslq,pv2xPYPf,2020-0188,2020-11-16,23:22:08,23:45:06,NA,incomplete,1,number,0,1,left,Blue_Star_Dots_1.jpg,Red_Circle_Chess_1.jpg,Green_Triangle_Dots_4.jpg,left,890.4649999968242,true,high,NA,NA,NA,NA,NA,NA,NA,false
pv2xPYPf,3pgqrazx15xrvqygpna1awvsi04ysb,31hq4x3t3wn9ibpbxaqd58pomjdslq,pv2xPYPf,2020-0188,2020-11-16,23:22:08,23:45:06,NA,incomplete,2,number,0,1,left,Blue_Star_Stripes_1.jpg,Green_Triangle_Dots_1.jpg,Red_Plus_Stripes_2.jpg,left,756.1650000060908,true,high,NA,NA,NA,NA,NA,NA,NA,false
pv2xPYPf,3pgqrazx15xrvqygpna1awvsi04ysb,31hq4x3t3wn9ibpbxaqd58pomjdslq,pv2xPYPf,2020-0188,2020-11-16,23:22:08,23:45:06,NA,incomplete,3,number,0,1,left,Blue_Star_Dots_1.jpg,Red_Triangle_Grid_1.jpg,Green_Circle_Dots_4.jpg,left,659.9250000000466,true,high,NA,NA,NA,NA,NA,NA,NA,false
pv2xPYPf,3pgqrazx15xrvqygpna1awvsi04ysb,31hq4x3t3wn9ibpbxaqd58pomjdslq,pv2xPYPf,2020-0188,2020-11-16,23:22:08,23:45:06,NA,incomplete,4,number,0,1,left,Green_Circle_Stripes_4.jpg,Purple_Plus_Chess_4.jpg,Red_Triangle_Stripes_1.jpg,left,1156.119999999646,true,high,NA,NA,NA,NA,NA,NA,NA,false
pv2xPYPf,3pgqrazx15xrvqygpna1awvsi04ysb,31hq4x3t3wn9ibpbxaqd58pomjdslq,pv2xPYPf,2020-0188,2020-11-16,23:22:08,23:45:06,NA,incomplete,5,number,0,1,right,Blue_Triangle_Dots_4.jpg,Green_Circle_Dots_2.jpg,Purple_Star_Chess_4.jpg,right,1108.670000001439,true,high,NA,NA,NA,NA,NA,NA,NA,false
pv2xPYPf,3pgqrazx15xrvqygpna1awvsi04ysb,31hq4x3t3wn9ibpbxaqd58pomjdslq,pv2xPYPf,2020-0188,2020-11-16,23:22:08,23:45:06,NA,incomplete,6,number,0,1,left,Green_Triangle_Chess_1.jpg,Blue_Plus_Grid_1.jpg,Red_Circle_Chess_3.jpg,left,1041.0449999981793,true,high,NA,NA,NA,NA,NA,NA,NA,false
pv2xPYPf,3pgqrazx15xrvqygpna1awvsi04ysb,31hq4x3t3wn9ibpbxaqd58pomjdslq,pv2xPYPf,2020-0188,2020-11-16,23:22:08,23:45:06,NA,incomplete,7,number,0,1,left,Blue_Plus_Grid_4.jpg,Red_Triangle_Stripes_4.jpg,Green_Star_Grid_3.jpg,left,730.8799999954645,true,high,NA,NA,NA,NA,NA,NA,NA,false
pv2xPYPf,3pgqrazx15xrvqygpna1awvsi04ysb,31hq4x3t3wn9ibpbxaqd58pomjdslq,pv2xPYPf,2020-0188,2020-11-16,23:22:08,23:45:06,NA,incomplete,8,number,0,1,left,Red_Plus_Dots_2.jpg,Blue_Triangle_Grid_2.jpg,Purple_Star_Dots_3.jpg,left,647.8099999949336,true,high,NA,NA,NA,NA,NA,NA,NA,false
pv2xPYPf,3pgqrazx15xrvqygpna1awvsi04ysb,31hq4x3t3wn9ibpbxaqd58pomjdslq,pv2xPYPf,2020-0188,2020-11-16,23:22:08,23:45:06,NA,incomplete,9,number,0,1,left,Red_Circle_Grid_1.jpg,Blue_Star_Dots_1.jpg,Purple_Plus_Grid_4.jpg,left,619.6950000012293,true,high,NA,NA,NA,NA,NA,NA,NA,false
pv2xPYPf,3pgqrazx15xrvqygpna1awvsi04ysb,31hq4x3t3wn9ibpbxaqd58pomjdslq,pv2xPYPf,2020-0188,2020-11-16,23:22:08,23:45:06,NA,incomplete,10,filling,1,0,right,Red_Triangle_Chess_3.jpg,Green_Circle_Grid_3.jpg,Purple_Star_Chess_2.jpg,left,982.6599999940954,false,high,NA,NA,NA,NA,NA,NA,NA,false
pv2xPYPf,3pgqrazx15xrvqygpna1awvsi04ysb,31hq4x3t3wn9ibpbxaqd58pomjdslq,pv2xPYPf,2020-0188,2020-11-16,23:22:08,23:45:06,NA,incomplete,11,filling,1,1,left,Red_Plus_Stripes_2.jpg,Blue_Star_Stripes_4.jpg,Purple_Triangle_Chess_2.jpg,right,750.2800000001444,false,high,NA,NA,NA,NA,NA,NA,NA,false
pv2xPYPf,3pgqrazx15xrvqygpna1awvsi04ysb,31hq4x3t3wn9ibpbxaqd58pomjdslq,pv2xPYPf,2020-0188,2020-11-16,23:22:08,23:45:06,NA,incomplete,12,filling,1,1,right,Red_Plus_Stripes_1.jpg,Purple_Star_Dots_1.jpg,Blue_Circle_Stripes_3.jpg,left,560.4000000020023,false,high,NA,NA,NA,NA,NA,NA,NA,false
pv2xPYPf,3pgqrazx15xrvqygpna1awvsi04ysb,31hq4x3t3wn9ibpbxaqd58pomjdslq,pv2xPYPf,2020-0188,2020-11-16,23:22:08,23:45:06,NA,incomplete,13,filling,1,0,right,Green_Circle_Dots_1.jpg,Purple_Plus_Chess_1.jpg,Red_Triangle_Dots_4.jpg,left,795.744999995688,false,high,NA,NA,NA,NA,NA,NA,NA,false
pv2xPYPf,3pgqrazx15xrvqygpna1awvsi04ysb,31hq4x3t3wn9ibpbxaqd58pomjdslq,pv2xPYPf,2020-0188,2020-11-16,23:22:08,23:45:06,NA,incomplete,14,filling,1,1,left,Red_Triangle_Dots_4.jpg,Green_Circle_Dots_1.jpg,Purple_Plus_Stripes_4.jpg,right,777.1850000063423,false,high,NA,NA,NA,NA,NA,NA,NA,false
pv2xPYPf,3pgqrazx15xrvqygpna1awvsi04ysb,31hq4x3t3wn9ibpbxaqd58pomjdslq,pv2xPYPf,2020-0188,2020-11-16,23:22:08,23:45:06,NA,incomplete,15,filling,1,1,left,Purple_Circle_Chess_2.jpg,Red_Plus_Chess_4.jpg,Green_Triangle_Grid_2.jpg,right,829.1499999978114,false,high,NA,NA,NA,NA,NA,NA,NA,false
pv2xPYPf,3pgqrazx15xrvqygpna1awvsi04ysb,31hq4x3t3wn9ibpbxaqd58pomjdslq,pv2xPYPf,2020-0188,2020-11-16,23:22:08,23:45:06,NA,incomplete,16,filling,1,1,left,Green_Plus_Stripes_2.jpg,Purple_Circle_Stripes_4.jpg,Blue_Triangle_Dots_2.jpg,right,1094.7050000032177,false,high,NA,NA,NA,NA,NA,NA,NA,false
pv2xPYPf,3pgqrazx15xrvqygpna1awvsi04ysb,31hq4x3t3wn9ibpbxaqd58pomjdslq,pv2xPYPf,2020-0188,2020-11-16,23:22:08,23:45:06,NA,incomplete,17,filling,1,1,left,Blue_Star_Chess_2.jpg,Purple_Triangle_Chess_4.jpg,Green_Circle_Grid_2.jpg,left,1471.5250000008382,true,high,NA,NA,NA,NA,NA,NA,NA,false
pv2xPYPf,3pgqrazx15xrvqygpna1awvsi04ysb,31hq4x3t3wn9ibpbxaqd58pomjdslq,pv2xPYPf,2020-0188,2020-11-16,23:22:08,23:45:06,NA,incomplete,18,filling,1,1,right,Purple_Plus_Grid_1.jpg,Green_Triangle_Dots_1.jpg,Red_Star_Grid_3.jpg,right,1067.9650000020629,true,high,NA,NA,NA,NA,NA,NA,NA,false
pv2xPYPf,3pgqrazx15xrvqygpna1awvsi04ysb,31hq4x3t3wn9ibpbxaqd58pomjdslq,pv2xPYPf,2020-0188,2020-11-16,23:22:08,23:45:06,NA,incomplete,19,filling,1,1,left,Green_Plus_Chess_4.jpg,Purple_Triangle_Chess_3.jpg,Red_Circle_Stripes_4.jpg,left,952.4699999964796,true,high,NA,NA,NA,NA,NA,NA,NA,false
pv2xPYPf,3pgqrazx15xrvqygpna1awvsi04ysb,31hq4x3t3wn9ibpbxaqd58pomjdslq,pv2xPYPf,2020-0188,2020-11-16,23:22:08,23:45:06,NA,incomplete,20,number,0,0,right,Purple_Star_Stripes_1.jpg,Red_Circle_Stripes_4.jpg,Green_Triangle_Grid_1.jpg,left,861.0200000038603,false,high,NA,NA,NA,NA,NA,NA,NA,false
pv2xPYPf,3pgqrazx15xrvqygpna1awvsi04ysb,31hq4x3t3wn9ibpbxaqd58pomjdslq,pv2xPYPf,2020-0188,2020-11-16,23:22:08,23:45:06,NA,incomplete,21,number,0,1,right,Red_Star_Dots_2.jpg,Purple_Circle_Dots_3.jpg,Blue_Plus_Stripes_2.jpg,left,1175.6200000017416,false,high,NA,NA,NA,NA,NA,NA,NA,false
pv2xPYPf,3pgqrazx15xrvqygpna1awvsi04ysb,31hq4x3t3wn9ibpbxaqd58pomjdslq,pv2xPYPf,2020-0188,2020-11-16,23:22:08,23:45:06,NA,incomplete,22,number,0,1,right,Green_Plus_Chess_1.jpg,Blue_Star_Chess_4.jpg,Purple_Circle_Grid_1.jpg,left,1001.1099999975413,false,high,NA,NA,NA,NA,NA,NA,NA,false
pv2xPYPf,3pgqrazx15xrvqygpna1awvsi04ysb,31hq4x3t3wn9ibpbxaqd58pomjdslq,pv2xPYPf,2020-0188,2020-11-16,23:22:08,23:45:06,NA,incomplete,23,number,0,1,right,Blue_Plus_Grid_4.jpg,Red_Circle_Grid_3.jpg,Purple_Star_Chess_4.jpg,right,1308.609999999986,true,high,NA,NA,NA,NA,NA,NA,NA,false
pv2xPYPf,3pgqrazx15xrvqygpna1awvsi04ysb,31hq4x3t3wn9ibpbxaqd58pomjdslq,pv2xPYPf,2020-0188,2020-11-16,23:22:08,23:45:06,NA,incomplete,24,number,0,1,right,Green_Star_Stripes_1.jpg,Purple_Triangle_Stripes_2.jpg,Red_Plus_Chess_1.jpg,right,1110.0049999949988,true,high,NA,NA,NA,NA,NA,NA,NA,false
pv2xPYPf,3pgqrazx15xrvqygpna1awvsi04ysb,31hq4x3t3wn9ibpbxaqd58pomjdslq,pv2xPYPf,2020-0188,2020-11-16,23:22:08,23:45:06,NA,incomplete,25,number,0,0,left,Green_Plus_Stripes_1.jpg,Red_Circle_Chess_1.jpg,Purple_Triangle_Stripes_4.jpg,left,1410.3399999948451,true,high,NA,NA,NA,NA,NA,NA,NA,false
pv2xPYPf,3pgqrazx15xrvqygpna1awvsi04ysb,31hq4x3t3wn9ibpbxaqd58pomjdslq,pv2xPYPf,2020-0188,2020-11-16,23:22:08,23:45:06,NA,incomplete,26,number,0,1,right,Green_Star_Stripes_1.jpg,Red_Triangle_Stripes_4.jpg,Purple_Circle_Chess_1.jpg,right,754.8899999964051,true,high,NA,NA,NA,NA,NA,NA,NA,false
pv2xPYPf,3pgqrazx15xrvqygpna1awvsi04ysb,31hq4x3t3wn9ibpbxaqd58pomjdslq,pv2xPYPf,2020-0188,2020-11-16,23:22:08,23:45:06,NA,incomplete,27,number,0,1,right,Purple_Star_Chess_2.jpg,Green_Triangle_Chess_4.jpg,Blue_Circle_Stripes_2.jpg,right,916.0849999971688,true,high,NA,NA,NA,NA,NA,NA,NA,false
pv2xPYPf,3pgqrazx15xrvqygpna1awvsi04ysb,31hq4x3t3wn9ibpbxaqd58pomjdslq,pv2xPYPf,2020-0188,2020-11-16,23:22:08,23:45:06,NA,incomplete,28,number,0,1,right,Blue_Plus_Stripes_3.jpg,Red_Circle_Stripes_2.jpg,Green_Triangle_Chess_3.jpg,right,1046.715000004042,true,high,NA,NA,NA,NA,NA,NA,NA,false
pv2xPYPf,3pgqrazx15xrvqygpna1awvsi04ysb,31hq4x3t3wn9ibpbxaqd58pomjdslq,pv2xPYPf,2020-0188,2020-11-16,23:22:08,23:45:06,NA,incomplete,29,number,0,1,right,Blue_Circle_Dots_1.jpg,Red_Star_Dots_2.jpg,Purple_Triangle_Stripes_1.jpg,right,1106.6399999981513,true,high,NA,NA,NA,NA,NA,NA,NA,false
pv2xPYPf,3pgqrazx15xrvqygpna1awvsi04ysb,31hq4x3t3wn9ibpbxaqd58pomjdslq,pv2xPYPf,2020-0188,2020-11-16,23:22:08,23:45:06,NA,incomplete,30,filling,1,1,right,Green_Plus_Grid_3.jpg,Purple_Triangle_Stripes_3.jpg,Red_Circle_Grid_4.jpg,left,1060.3450000053272,false,high,NA,NA,NA,NA,NA,NA,NA,false
pv2xPYPf,3pgqrazx15xrvqygpna1awvsi04ysb,31hq4x3t3wn9ibpbxaqd58pomjdslq,pv2xPYPf,2020-0188,2020-11-16,23:22:08,23:45:06,NA,incomplete,31,filling,1,1,right,Blue_Circle_Dots_2.jpg,Purple_Plus_Stripes_2.jpg,Red_Star_Dots_1.jpg,left,876.9800000009127,false,high,NA,NA,NA,NA,NA,NA,NA,false
pv2xPYPf,3pgqrazx15xrvqygpna1awvsi04ysb,31hq4x3t3wn9ibpbxaqd58pomjdslq,pv2xPYPf,2020-0188,2020-11-16,23:22:08,23:45:06,NA,incomplete,32,filling,1,1,right,Green_Circle_Stripes_2.jpg,Purple_Plus_Dots_2.jpg,Blue_Triangle_Stripes_3.jpg,left,1399.4400000009919,false,high,NA,NA,NA,NA,NA,NA,NA,false
pv2xPYPf,3pgqrazx15xrvqygpna1awvsi04ysb,31hq4x3t3wn9ibpbxaqd58pomjdslq,pv2xPYPf,2020-0188,2020-11-16,23:22:08,23:45:06,NA,incomplete,33,filling,1,1,right,Red_Triangle_Dots_1.jpg,Blue_Star_Stripes_1.jpg,Green_Plus_Dots_3.jpg,right,1097.3749999975553,true,high,NA,NA,NA,NA,NA,NA,NA,false
pv2xPYPf,3pgqrazx15xrvqygpna1awvsi04ysb,31hq4x3t3wn9ibpbxaqd58pomjdslq,pv2xPYPf,2020-0188,2020-11-16,23:22:08,23:45:06,NA,incomplete,34,filling,1,1,right,Purple_Triangle_Dots_3.jpg,Green_Circle_Grid_3.jpg,Blue_Plus_Dots_4.jpg,right,1095.9349999976112,true,high,NA,NA,NA,NA,NA,NA,NA,false
pv2xPYPf,3pgqrazx15xrvqygpna1awvsi04ysb,31hq4x3t3wn9ibpbxaqd58pomjdslq,pv2xPYPf,2020-0188,2020-11-16,23:22:08,23:45:06,NA,incomplete,35,filling,1,1,left,Purple_Plus_Grid_2.jpg,Red_Circle_Grid_3.jpg,Blue_Star_Chess_2.jpg,left,934.0900000024121,true,high,NA,NA,NA,NA,NA,NA,NA,false
pv2xPYPf,3pgqrazx15xrvqygpna1awvsi04ysb,31hq4x3t3wn9ibpbxaqd58pomjdslq,pv2xPYPf,2020-0188,2020-11-16,23:22:08,23:45:06,NA,incomplete,36,filling,1,1,left,Purple_Triangle_Chess_1.jpg,Red_Circle_Chess_4.jpg,Blue_Star_Grid_1.jpg,left,1001.0699999984354,true,high,NA,NA,NA,NA,NA,NA,NA,false
pv2xPYPf,3pgqrazx15xrvqygpna1awvsi04ysb,31hq4x3t3wn9ibpbxaqd58pomjdslq,pv2xPYPf,2020-0188,2020-11-16,23:22:08,23:45:06,NA,incomplete,37,filling,1,1,right,Red_Circle_Stripes_3.jpg,Purple_Star_Chess_3.jpg,Blue_Triangle_Stripes_4.jpg,right,1062.914999994915,true,high,NA,NA,NA,NA,NA,NA,NA,false
pv2xPYPf,3pgqrazx15xrvqygpna1awvsi04ysb,31hq4x3t3wn9ibpbxaqd58pomjdslq,pv2xPYPf,2020-0188,2020-11-16,23:22:08,23:45:06,NA,incomplete,38,filling,1,1,right,Red_Plus_Chess_3.jpg,Purple_Star_Dots_3.jpg,Green_Triangle_Chess_4.jpg,right,973.5299999956042,true,high,NA,NA,NA,NA,NA,NA,NA,false
pv2xPYPf,3pgqrazx15xrvqygpna1awvsi04ysb,31hq4x3t3wn9ibpbxaqd58pomjdslq,pv2xPYPf,2020-0188,2020-11-16,23:22:08,23:45:06,NA,incomplete,39,filling,1,0,left,Purple_Circle_Chess_1.jpg,Green_Star_Chess_3.jpg,Red_Plus_Stripes_1.jpg,left,1130.7300000044052,true,high,NA,NA,NA,NA,NA,NA,NA,false
pv2xPYPf,3pgqrazx15xrvqygpna1awvsi04ysb,31hq4x3t3wn9ibpbxaqd58pomjdslq,pv2xPYPf,2020-0188,2020-11-16,23:22:08,23:45:06,NA,incomplete,40,number,0,1,right,Red_Circle_Stripes_3.jpg,Green_Plus_Stripes_4.jpg,Purple_Triangle_Chess_3.jpg,right,924.2750000049127,true,high,NA,NA,NA,NA,NA,NA,NA,false
pv2xPYPf,3pgqrazx15xrvqygpna1awvsi04ysb,31hq4x3t3wn9ibpbxaqd58pomjdslq,pv2xPYPf,2020-0188,2020-11-16,23:22:08,23:45:06,NA,incomplete,41,number,0,1,left,Blue_Plus_Grid_3.jpg,Green_Circle_Chess_3.jpg,Red_Triangle_Grid_2.jpg,left,1049.0549999957439,true,high,NA,NA,NA,NA,NA,NA,NA,false
pv2xPYPf,3pgqrazx15xrvqygpna1awvsi04ysb,31hq4x3t3wn9ibpbxaqd58pomjdslq,pv2xPYPf,2020-0188,2020-11-16,23:22:08,23:45:06,NA,incomplete,42,number,0,1,left,Red_Circle_Grid_1.jpg,Green_Star_Stripes_1.jpg,Blue_Triangle_Grid_3.jpg,left,761.0200000053737,true,high,NA,NA,NA,NA,NA,NA,NA,false
pv2xPYPf,3pgqrazx15xrvqygpna1awvsi04ysb,31hq4x3t3wn9ibpbxaqd58pomjdslq,pv2xPYPf,2020-0188,2020-11-16,23:22:08,23:45:06,NA,incomplete,43,number,0,1,left,Green_Circle_Chess_3.jpg,Blue_Star_Stripes_3.jpg,Purple_Plus_Chess_4.jpg,left,815.4950000025565,true,high,NA,NA,NA,NA,NA,NA,NA,false
pv2xPYPf,3pgqrazx15xrvqygpna1awvsi04ysb,31hq4x3t3wn9ibpbxaqd58pomjdslq,pv2xPYPf,2020-0188,2020-11-16,23:22:08,23:45:06,NA,incomplete,44,number,0,1,left,Blue_Star_Dots_4.jpg,Red_Circle_Chess_4.jpg,Green_Plus_Dots_1.jpg,left,977.4599999946076,true,high,NA,NA,NA,NA,NA,NA,NA,false
pv2xPYPf,3pgqrazx15xrvqygpna1awvsi04ysb,31hq4x3t3wn9ibpbxaqd58pomjdslq,pv2xPYPf,2020-0188,2020-11-16,23:22:08,23:45:06,NA,incomplete,45,number,0,1,right,Blue_Plus_Stripes_4.jpg,Green_Circle_Stripes_3.jpg,Red_Star_Dots_4.jpg,right,939.6399999968708,true,high,NA,NA,NA,NA,NA,NA,NA,false
pv2xPYPf,3pgqrazx15xrvqygpna1awvsi04ysb,31hq4x3t3wn9ibpbxaqd58pomjdslq,pv2xPYPf,2020-0188,2020-11-16,23:22:08,23:45:06,NA,incomplete,46,number,0,1,left,Red_Triangle_Grid_2.jpg,Purple_Circle_Chess_2.jpg,Blue_Plus_Grid_4.jpg,left,1202.855000003241,true,high,NA,NA,NA,NA,NA,NA,NA,false
pv2xPYPf,3pgqrazx15xrvqygpna1awvsi04ysb,31hq4x3t3wn9ibpbxaqd58pomjdslq,pv2xPYPf,2020-0188,2020-11-16,23:22:08,23:45:06,NA,incomplete,47,number,0,0,left,Purple_Triangle_Grid_4.jpg,Red_Star_Stripes_4.jpg,Green_Plus_Grid_1.jpg,left,728.9650000020629,true,high,NA,NA,NA,NA,NA,NA,NA,false
pv2xPYPf,3pgqrazx15xrvqygpna1awvsi04ysb,31hq4x3t3wn9ibpbxaqd58pomjdslq,pv2xPYPf,2020-0188,2020-11-16,23:22:08,23:45:06,NA,incomplete,48,number,0,0,right,Red_Circle_Dots_1.jpg,Green_Plus_Dots_4.jpg,Blue_Triangle_Stripes_1.jpg,right,1534.6999999965774,true,high,NA,NA,NA,NA,NA,NA,NA,false
pv2xPYPf,3pgqrazx15xrvqygpna1awvsi04ysb,31hq4x3t3wn9ibpbxaqd58pomjdslq,pv2xPYPf,2020-0188,2020-11-16,23:22:08,23:45:06,NA,incomplete,49,number,0,1,right,Green_Triangle_Stripes_1.jpg,Blue_Plus_Stripes_3.jpg,Red_Circle_Grid_1.jpg,left,901.0150000031572,false,high,NA,NA,NA,NA,NA,NA,NA,false
pv2xPYPf,3pgqrazx15xrvqygpna1awvsi04ysb,31hq4x3t3wn9ibpbxaqd58pomjdslq,pv2xPYPf,2020-0188,2020-11-16,23:22:08,23:45:06,NA,incomplete,50,filling,1,1,left,Green_Star_Chess_2.jpg,Purple_Plus_Chess_4.jpg,Red_Triangle_Stripes_2.jpg,left,1275.4399999976158,true,high,NA,NA,NA,NA,NA,NA,NA,false
pv2xPYPf,3pgqrazx15xrvqygpna1awvsi04ysb,31hq4x3t3wn9ibpbxaqd58pomjdslq,pv2xPYPf,2020-0188,2020-11-16,23:22:08,23:45:06,NA,incomplete,51,filling,1,1,left,Purple_Triangle_Stripes_1.jpg,Green_Circle_Stripes_2.jpg,Red_Star_Grid_1.jpg,left,825.8550000027753,true,high,NA,NA,NA,NA,NA,NA,NA,false
pv2xPYPf,3pgqrazx15xrvqygpna1awvsi04ysb,31hq4x3t3wn9ibpbxaqd58pomjdslq,pv2xPYPf,2020-0188,2020-11-16,23:22:08,23:45:06,NA,incomplete,52,filling,1,1,right,Red_Star_Dots_1.jpg,Green_Plus_Chess_1.jpg,Blue_Circle_Dots_2.jpg,right,957.9900000026682,true,high,NA,NA,NA,NA,NA,NA,NA,false
pv2xPYPf,3pgqrazx15xrvqygpna1awvsi04ysb,31hq4x3t3wn9ibpbxaqd58pomjdslq,pv2xPYPf,2020-0188,2020-11-16,23:22:08,23:45:06,NA,incomplete,53,filling,1,1,left,Green_Plus_Dots_1.jpg,Blue_Star_Dots_4.jpg,Purple_Triangle_Grid_1.jpg,left,845.9000000002561,true,high,NA,NA,NA,NA,NA,NA,NA,false
pv2xPYPf,3pgqrazx15xrvqygpna1awvsi04ysb,31hq4x3t3wn9ibpbxaqd58pomjdslq,pv2xPYPf,2020-0188,2020-11-16,23:22:08,23:45:06,NA,incomplete,54,filling,1,1,right,Blue_Triangle_Stripes_2.jpg,Red_Star_Grid_2.jpg,Purple_Circle_Stripes_1.jpg,right,809.2949999991106,true,high,NA,NA,NA,NA,NA,NA,NA,false
pv2xPYPf,3pgqrazx15xrvqygpna1awvsi04ysb,31hq4x3t3wn9ibpbxaqd58pomjdslq,pv2xPYPf,2020-0188,2020-11-16,23:22:08,23:45:06,NA,incomplete,55,filling,1,0,left,Red_Plus_Dots_4.jpg,Green_Star_Dots_1.jpg,Blue_Triangle_Stripes_4.jpg,left,1009.5350000046892,true,high,NA,NA,NA,NA,NA,NA,NA,false
pv2xPYPf,3pgqrazx15xrvqygpna1awvsi04ysb,31hq4x3t3wn9ibpbxaqd58pomjdslq,pv2xPYPf,2020-0188,2020-11-16,23:22:08,23:45:06,NA,incomplete,56,filling,1,1,left,Blue_Triangle_Stripes_2.jpg,Red_Star_Stripes_3.jpg,Purple_Plus_Grid_2.jpg,right,1031.7300000025425,false,high,NA,NA,NA,NA,NA,NA,NA,false
pv2xPYPf,3pgqrazx15xrvqygpna1awvsi04ysb,31hq4x3t3wn9ibpbxaqd58pomjdslq,pv2xPYPf,2020-0188,2020-11-16,23:22:08,23:45:06,NA,incomplete,57,filling,1,1,right,Blue_Plus_Dots_2.jpg,Green_Star_Grid_2.jpg,Red_Circle_Dots_4.jpg,right,1047.2700000026962,true,high,NA,NA,NA,NA,NA,NA,NA,false
pv2xPYPf,3pgqrazx15xrvqygpna1awvsi04ysb,31hq4x3t3wn9ibpbxaqd58pomjdslq,pv2xPYPf,2020-0188,2020-11-16,23:22:08,23:45:06,NA,incomplete,58,filling,1,1,left,Green_Star_Stripes_4.jpg,Purple_Plus_Stripes_3.jpg,Blue_Circle_Grid_4.jpg,left,850.5850000001956,true,high,NA,NA,NA,NA,NA,NA,NA,false
pv2xPYPf,3pgqrazx15xrvqygpna1awvsi04ysb,31hq4x3t3wn9ibpbxaqd58pomjdslq,pv2xPYPf,2020-0188,2020-11-16,23:22:08,23:45:06,NA,incomplete,59,filling,1,1,left,Red_Triangle_Grid_3.jpg,Purple_Plus_Grid_1.jpg,Green_Circle_Stripes_3.jpg,left,979.1049999985844,true,high,NA,NA,NA,NA,NA,NA,NA,false
pv2xPYPf,3pgqrazx15xrvqygpna1awvsi04ysb,31hq4x3t3wn9ibpbxaqd58pomjdslq,pv2xPYPf,2020-0188,2020-11-16,23:22:08,23:45:06,NA,incomplete,60,number,0,1,right,Blue_Triangle_Grid_4.jpg,Red_Star_Grid_2.jpg,Green_Plus_Dots_4.jpg,left,952.4850000016158,false,high,NA,NA,NA,NA,NA,NA,NA,false
pv2xPYPf,3pgqrazx15xrvqygpna1awvsi04ysb,31hq4x3t3wn9ibpbxaqd58pomjdslq,pv2xPYPf,2020-0188,2020-11-16,23:22:08,23:45:06,NA,incomplete,61,number,0,1,left,Blue_Star_Grid_3.jpg,Red_Triangle_Chess_3.jpg,Purple_Circle_Grid_2.jpg,right,1289.805000000284,false,high,NA,NA,NA,NA,NA,NA,NA,false
pv2xPYPf,3pgqrazx15xrvqygpna1awvsi04ysb,31hq4x3t3wn9ibpbxaqd58pomjdslq,pv2xPYPf,2020-0188,2020-11-16,23:22:08,23:45:06,NA,incomplete,62,number,0,1,right,Purple_Circle_Grid_2.jpg,Red_Plus_Grid_4.jpg,Green_Star_Chess_2.jpg,left,977.0400000051595,false,high,NA,NA,NA,NA,NA,NA,NA,false
pv2xPYPf,3pgqrazx15xrvqygpna1awvsi04ysb,31hq4x3t3wn9ibpbxaqd58pomjdslq,pv2xPYPf,2020-0188,2020-11-16,23:22:08,23:45:06,NA,incomplete,63,number,0,0,left,Purple_Triangle_Chess_2.jpg,Blue_Plus_Stripes_2.jpg,Green_Star_Chess_1.jpg,left,819.1350000051316,true,high,NA,NA,NA,NA,NA,NA,NA,false
pv2xPYPf,3pgqrazx15xrvqygpna1awvsi04ysb,31hq4x3t3wn9ibpbxaqd58pomjdslq,pv2xPYPf,2020-0188,2020-11-16,23:22:08,23:45:06,NA,incomplete,64,number,0,1,left,Purple_Star_Chess_1.jpg,Green_Circle_Stripes_1.jpg,Red_Plus_Chess_3.jpg,left,1301.1249999981374,true,high,NA,NA,NA,NA,NA,NA,NA,false
pv2xPYPf,3pgqrazx15xrvqygpna1awvsi04ysb,31hq4x3t3wn9ibpbxaqd58pomjdslq,pv2xPYPf,2020-0188,2020-11-16,23:22:08,23:45:06,NA,incomplete,65,number,0,0,left,Green_Star_Dots_1.jpg,Purple_Triangle_Stripes_1.jpg,Red_Plus_Dots_3.jpg,left,889.7349999969592,true,high,NA,NA,NA,NA,NA,NA,NA,false
pv2xPYPf,3pgqrazx15xrvqygpna1awvsi04ysb,31hq4x3t3wn9ibpbxaqd58pomjdslq,pv2xPYPf,2020-0188,2020-11-16,23:22:08,23:45:06,NA,incomplete,66,number,0,1,left,Purple_Star_Chess_4.jpg,Blue_Plus_Grid_4.jpg,Red_Triangle_Chess_2.jpg,right,1334.434999997029,false,high,NA,NA,NA,NA,NA,NA,NA,false
pv2xPYPf,3pgqrazx15xrvqygpna1awvsi04ysb,31hq4x3t3wn9ibpbxaqd58pomjdslq,pv2xPYPf,2020-0188,2020-11-16,23:22:08,23:45:06,NA,incomplete,67,number,0,0,right,Red_Triangle_Chess_3.jpg,Blue_Circle_Chess_2.jpg,Green_Star_Grid_3.jpg,right,1267.6599999978207,true,high,NA,NA,NA,NA,NA,NA,NA,false
pv2xPYPf,3pgqrazx15xrvqygpna1awvsi04ysb,31hq4x3t3wn9ibpbxaqd58pomjdslq,pv2xPYPf,2020-0188,2020-11-16,23:22:08,23:45:06,NA,incomplete,68,number,0,1,right,Red_Plus_Chess_3.jpg,Blue_Star_Chess_1.jpg,Green_Triangle_Stripes_3.jpg,right,1481.7049999983283,true,high,NA,NA,NA,NA,NA,NA,NA,false
pv2xPYPf,3pgqrazx15xrvqygpna1awvsi04ysb,31hq4x3t3wn9ibpbxaqd58pomjdslq,pv2xPYPf,2020-0188,2020-11-16,23:22:08,23:45:06,NA,incomplete,69,number,0,1,left,Blue_Star_Stripes_2.jpg,Red_Triangle_Dots_2.jpg,Purple_Plus_Stripes_3.jpg,left,1007.4600000006612,true,high,NA,NA,NA,NA,NA,NA,NA,false
pv2xPYPf,3pgqrazx15xrvqygpna1awvsi04ysb,31hq4x3t3wn9ibpbxaqd58pomjdslq,pv2xPYPf,2020-0188,2020-11-16,23:22:08,23:45:06,NA,incomplete,70,filling,1,1,left,Blue_Star_Stripes_2.jpg,Red_Triangle_Stripes_3.jpg,Purple_Circle_Dots_2.jpg,right,1324.9899999937043,false,high,NA,NA,NA,NA,NA,NA,NA,false
pv2xPYPf,3pgqrazx15xrvqygpna1awvsi04ysb,31hq4x3t3wn9ibpbxaqd58pomjdslq,pv2xPYPf,2020-0188,2020-11-16,23:22:08,23:45:06,NA,incomplete,71,filling,1,0,left,Blue_Plus_Grid_4.jpg,Red_Star_Grid_1.jpg,Purple_Circle_Chess_4.jpg,right,906.8049999987707,false,high,NA,NA,NA,NA,NA,NA,NA,false
pv2xPYPf,3pgqrazx15xrvqygpna1awvsi04ysb,31hq4x3t3wn9ibpbxaqd58pomjdslq,pv2xPYPf,2020-0188,2020-11-16,23:22:08,23:45:06,NA,incomplete,72,filling,1,0,left,Red_Star_Stripes_3.jpg,Green_Triangle_Stripes_2.jpg,Blue_Circle_Grid_3.jpg,right,1070.4900000055786,false,high,NA,NA,NA,NA,NA,NA,NA,false
pv2xPYPf,3pgqrazx15xrvqygpna1awvsi04ysb,31hq4x3t3wn9ibpbxaqd58pomjdslq,pv2xPYPf,2020-0188,2020-11-16,23:22:08,23:45:06,NA,incomplete,73,filling,1,0,right,Blue_Circle_Grid_1.jpg,Purple_Triangle_Stripes_1.jpg,Green_Plus_Grid_2.jpg,left,861.1000000019558,false,high,NA,NA,NA,NA,NA,NA,NA,false
pv2xPYPf,3pgqrazx15xrvqygpna1awvsi04ysb,31hq4x3t3wn9ibpbxaqd58pomjdslq,pv2xPYPf,2020-0188,2020-11-16,23:22:08,23:45:06,NA,incomplete,74,filling,1,1,right,Green_Plus_Chess_1.jpg,Blue_Circle_Dots_1.jpg,Red_Star_Chess_2.jpg,left,716.6149999974295,false,high,NA,NA,NA,NA,NA,NA,NA,false
pv2xPYPf,3pgqrazx15xrvqygpna1awvsi04ysb,31hq4x3t3wn9ibpbxaqd58pomjdslq,pv2xPYPf,2020-0188,2020-11-16,23:22:08,23:45:06,NA,incomplete,75,filling,1,0,left,Red_Star_Chess_4.jpg,Green_Plus_Chess_1.jpg,Purple_Triangle_Dots_4.jpg,right,642.18999999878,false,high,NA,NA,NA,NA,NA,NA,NA,false
pv2xPYPf,3pgqrazx15xrvqygpna1awvsi04ysb,31hq4x3t3wn9ibpbxaqd58pomjdslq,pv2xPYPf,2020-0188,2020-11-16,23:22:08,23:45:06,NA,incomplete,76,filling,1,1,left,Blue_Triangle_Dots_3.jpg,Red_Circle_Dots_1.jpg,Purple_Plus_Stripes_3.jpg,right,847.9149999984074,false,high,NA,NA,NA,NA,NA,NA,NA,false
pv2xPYPf,3pgqrazx15xrvqygpna1awvsi04ysb,31hq4x3t3wn9ibpbxaqd58pomjdslq,pv2xPYPf,2020-0188,2020-11-16,23:22:08,23:45:06,NA,incomplete,77,filling,1,1,left,Blue_Triangle_Chess_3.jpg,Purple_Circle_Chess_2.jpg,Red_Plus_Stripes_3.jpg,left,1516.5150000029244,true,high,NA,NA,NA,NA,NA,NA,NA,false
pv2xPYPf,3pgqrazx15xrvqygpna1awvsi04ysb,31hq4x3t3wn9ibpbxaqd58pomjdslq,pv2xPYPf,2020-0188,2020-11-16,23:22:08,23:45:06,NA,incomplete,78,filling,1,1,right,Red_Plus_Dots_1.jpg,Purple_Star_Chess_1.jpg,Blue_Triangle_Dots_3.jpg,right,1068.5599999995902,true,high,NA,NA,NA,NA,NA,NA,NA,false
pv2xPYPf,3pgqrazx15xrvqygpna1awvsi04ysb,31hq4x3t3wn9ibpbxaqd58pomjdslq,pv2xPYPf,2020-0188,2020-11-16,23:22:08,23:45:06,NA,incomplete,79,filling,1,1,left,Green_Circle_Dots_1.jpg,Blue_Triangle_Dots_3.jpg,Purple_Star_Stripes_1.jpg,left,1043.7050000036834,true,high,NA,NA,NA,NA,NA,NA,NA,false
pv2xPYPf,3pgqrazx15xrvqygpna1awvsi04ysb,31hq4x3t3wn9ibpbxaqd58pomjdslq,pv2xPYPf,2020-0188,2020-11-16,23:22:08,23:45:06,NA,incomplete,80,number,0,1,right,Blue_Circle_Dots_1.jpg,Purple_Triangle_Dots_3.jpg,Green_Plus_Stripes_1.jpg,left,816.415000001085,false,high,NA,NA,NA,NA,NA,NA,NA,false
pv2xPYPf,3pgqrazx15xrvqygpna1awvsi04ysb,31hq4x3t3wn9ibpbxaqd58pomjdslq,pv2xPYPf,2020-0188,2020-11-16,23:22:08,23:45:06,NA,incomplete,81,number,0,1,right,Green_Triangle_Chess_3.jpg,Red_Circle_Chess_1.jpg,Blue_Star_Dots_3.jpg,right,1424.0799999970477,true,high,NA,NA,NA,NA,NA,NA,NA,false
pv2xPYPf,3pgqrazx15xrvqygpna1awvsi04ysb,31hq4x3t3wn9ibpbxaqd58pomjdslq,pv2xPYPf,2020-0188,2020-11-16,23:22:08,23:45:06,NA,incomplete,82,number,0,1,left,Purple_Plus_Dots_3.jpg,Blue_Triangle_Grid_3.jpg,Red_Circle_Dots_2.jpg,right,1303.5600000002887,false,high,NA,NA,NA,NA,NA,NA,NA,false
pv2xPYPf,3pgqrazx15xrvqygpna1awvsi04ysb,31hq4x3t3wn9ibpbxaqd58pomjdslq,pv2xPYPf,2020-0188,2020-11-16,23:22:08,23:45:06,NA,incomplete,83,number,0,1,left,Blue_Plus_Stripes_1.jpg,Red_Star_Chess_1.jpg,Green_Triangle_Stripes_3.jpg,left,597.6999999985565,true,high,NA,NA,NA,NA,NA,NA,NA,false
pv2xPYPf,3pgqrazx15xrvqygpna1awvsi04ysb,31hq4x3t3wn9ibpbxaqd58pomjdslq,pv2xPYPf,2020-0188,2020-11-16,23:22:08,23:45:06,NA,incomplete,84,number,0,0,right,Purple_Circle_Grid_2.jpg,Blue_Triangle_Grid_3.jpg,Green_Star_Dots_2.jpg,right,884.0399999972433,true,high,NA,NA,NA,NA,NA,NA,NA,false
pv2xPYPf,3pgqrazx15xrvqygpna1awvsi04ysb,31hq4x3t3wn9ibpbxaqd58pomjdslq,pv2xPYPf,2020-0188,2020-11-16,23:22:08,23:45:06,NA,incomplete,85,number,0,0,right,Purple_Circle_Stripes_1.jpg,Red_Triangle_Stripes_2.jpg,Blue_Star_Dots_1.jpg,right,1431.8300000014715,true,high,NA,NA,NA,NA,NA,NA,NA,false
pv2xPYPf,3pgqrazx15xrvqygpna1awvsi04ysb,31hq4x3t3wn9ibpbxaqd58pomjdslq,pv2xPYPf,2020-0188,2020-11-16,23:22:08,23:45:06,NA,incomplete,86,number,0,1,left,Blue_Star_Chess_1.jpg,Purple_Circle_Stripes_1.jpg,Red_Plus_Chess_2.jpg,right,872.1150000055786,false,high,NA,NA,NA,NA,NA,NA,NA,false
pv2xPYPf,3pgqrazx15xrvqygpna1awvsi04ysb,31hq4x3t3wn9ibpbxaqd58pomjdslq,pv2xPYPf,2020-0188,2020-11-16,23:22:08,23:45:06,NA,incomplete,87,number,0,0,right,Red_Triangle_Dots_1.jpg,Green_Plus_Dots_3.jpg,Blue_Circle_Grid_1.jpg,left,1425.7400000060443,false,high,NA,NA,NA,NA,NA,NA,NA,false
pv2xPYPf,3pgqrazx15xrvqygpna1awvsi04ysb,31hq4x3t3wn9ibpbxaqd58pomjdslq,pv2xPYPf,2020-0188,2020-11-16,23:22:08,23:45:06,NA,incomplete,88,number,0,0,left,Blue_Plus_Stripes_4.jpg,Green_Triangle_Grid_4.jpg,Purple_Star_Stripes_1.jpg,right,1048.4749999959022,false,high,NA,NA,NA,NA,NA,NA,NA,false
pv2xPYPf,3pgqrazx15xrvqygpna1awvsi04ysb,31hq4x3t3wn9ibpbxaqd58pomjdslq,pv2xPYPf,2020-0188,2020-11-16,23:22:08,23:45:06,NA,incomplete,89,number,0,1,right,Red_Star_Chess_3.jpg,Purple_Circle_Chess_1.jpg,Green_Triangle_Grid_3.jpg,left,1076.330000003567,false,high,NA,NA,NA,NA,NA,NA,NA,false
pv2xPYPf,3pgqrazx15xrvqygpna1awvsi04ysb,31hq4x3t3wn9ibpbxaqd58pomjdslq,pv2xPYPf,2020-0188,2020-11-16,23:22:08,23:45:06,NA,incomplete,90,filling,1,1,left,Green_Plus_Stripes_2.jpg,Purple_Star_Stripes_1.jpg,Blue_Circle_Dots_2.jpg,left,818.5699999957578,true,high,NA,NA,NA,NA,NA,NA,NA,false
pv2xPYPf,3pgqrazx15xrvqygpna1awvsi04ysb,31hq4x3t3wn9ibpbxaqd58pomjdslq,pv2xPYPf,2020-0188,2020-11-16,23:22:08,23:45:06,NA,incomplete,91,filling,1,0,right,Purple_Star_Grid_2.jpg,Red_Plus_Chess_2.jpg,Green_Triangle_Grid_3.jpg,right,869.0900000000838,true,high,NA,NA,NA,NA,NA,NA,NA,false
pv2xPYPf,3pgqrazx15xrvqygpna1awvsi04ysb,31hq4x3t3wn9ibpbxaqd58pomjdslq,pv2xPYPf,2020-0188,2020-11-16,23:22:08,23:45:06,NA,incomplete,92,filling,1,0,right,Green_Circle_Grid_3.jpg,Purple_Star_Chess_3.jpg,Red_Plus_Grid_4.jpg,right,932.1849999977276,true,high,NA,NA,NA,NA,NA,NA,NA,false
pv2xPYPf,3pgqrazx15xrvqygpna1awvsi04ysb,31hq4x3t3wn9ibpbxaqd58pomjdslq,pv2xPYPf,2020-0188,2020-11-16,23:22:08,23:45:06,NA,incomplete,93,filling,1,1,right,Purple_Plus_Stripes_1.jpg,Red_Star_Chess_1.jpg,Blue_Triangle_Stripes_2.jpg,left,679.7099999967031,false,high,NA,NA,NA,NA,NA,NA,NA,false
pv2xPYPf,3pgqrazx15xrvqygpna1awvsi04ysb,31hq4x3t3wn9ibpbxaqd58pomjdslq,pv2xPYPf,2020-0188,2020-11-16,23:22:08,23:45:06,NA,incomplete,94,filling,1,1,right,Red_Star_Grid_1.jpg,Blue_Circle_Dots_1.jpg,Green_Plus_Grid_3.jpg,left,771.0999999981141,false,high,NA,NA,NA,NA,NA,NA,NA,false
pv2xPYPf,3pgqrazx15xrvqygpna1awvsi04ysb,31hq4x3t3wn9ibpbxaqd58pomjdslq,pv2xPYPf,2020-0188,2020-11-16,23:22:08,23:45:06,NA,incomplete,95,filling,1,1,left,Purple_Star_Chess_4.jpg,Blue_Plus_Chess_1.jpg,Red_Triangle_Stripes_4.jpg,left,1514.559999995865,true,high,NA,NA,NA,NA,NA,NA,NA,false
pv2xPYPf,3pgqrazx15xrvqygpna1awvsi04ysb,31hq4x3t3wn9ibpbxaqd58pomjdslq,pv2xPYPf,2020-0188,2020-11-16,23:22:08,23:45:06,NA,incomplete,96,filling,1,1,left,Blue_Star_Dots_3.jpg,Red_Triangle_Dots_1.jpg,Purple_Circle_Stripes_3.jpg,left,965.624999997206,true,high,NA,NA,NA,NA,NA,NA,NA,false
pv2xPYPf,3pgqrazx15xrvqygpna1awvsi04ysb,31hq4x3t3wn9ibpbxaqd58pomjdslq,pv2xPYPf,2020-0188,2020-11-16,23:22:08,23:45:06,NA,incomplete,97,filling,1,1,right,Red_Plus_Dots_3.jpg,Blue_Triangle_Chess_3.jpg,Purple_Star_Dots_4.jpg,right,947.2050000040326,true,high,NA,NA,NA,NA,NA,NA,NA,false
pv2xPYPf,3pgqrazx15xrvqygpna1awvsi04ysb,31hq4x3t3wn9ibpbxaqd58pomjdslq,pv2xPYPf,2020-0188,2020-11-16,23:22:08,23:45:06,NA,incomplete,98,filling,1,1,left,Blue_Plus_Chess_2.jpg,Green_Triangle_Chess_1.jpg,Purple_Star_Dots_2.jpg,left,912.4850000006845,true,high,NA,NA,NA,NA,NA,NA,NA,false
pv2xPYPf,3pgqrazx15xrvqygpna1awvsi04ysb,31hq4x3t3wn9ibpbxaqd58pomjdslq,pv2xPYPf,2020-0188,2020-11-16,23:22:08,23:45:06,NA,incomplete,99,filling,1,1,right,Blue_Triangle_Dots_1.jpg,Red_Circle_Chess_1.jpg,Purple_Star_Dots_3.jpg,right,872.8950000004843,true,high,NA,NA,NA,NA,NA,NA,NA,false
pv2xPYPf,3pgqrazx15xrvqygpna1awvsi04ysb,31hq4x3t3wn9ibpbxaqd58pomjdslq,pv2xPYPf,2020-0188,2020-11-16,23:22:08,23:45:06,NA,incomplete,100,number,0,1,right,Red_Circle_Grid_4.jpg,Green_Triangle_Grid_3.jpg,Blue_Plus_Stripes_4.jpg,left,874.3700000050012,false,high,NA,NA,NA,NA,NA,NA,NA,false
pv2xPYPf,3pgqrazx15xrvqygpna1awvsi04ysb,31hq4x3t3wn9ibpbxaqd58pomjdslq,pv2xPYPf,2020-0188,2020-11-16,23:22:08,23:45:06,NA,incomplete,101,number,0,1,left,Red_Triangle_Stripes_3.jpg,Green_Plus_Chess_3.jpg,Blue_Star_Stripes_4.jpg,right,978.7100000029895,false,high,NA,NA,NA,NA,NA,NA,NA,false
pv2xPYPf,3pgqrazx15xrvqygpna1awvsi04ysb,31hq4x3t3wn9ibpbxaqd58pomjdslq,pv2xPYPf,2020-0188,2020-11-16,23:22:08,23:45:06,NA,incomplete,102,number,0,1,left,Green_Star_Chess_2.jpg,Purple_Plus_Dots_2.jpg,Red_Triangle_Chess_1.jpg,left,1053.5749999980908,true,high,NA,NA,NA,NA,NA,NA,NA,false
pv2xPYPf,3pgqrazx15xrvqygpna1awvsi04ysb,31hq4x3t3wn9ibpbxaqd58pomjdslq,pv2xPYPf,2020-0188,2020-11-16,23:22:08,23:45:06,NA,incomplete,103,number,0,1,left,Red_Triangle_Chess_2.jpg,Purple_Plus_Grid_2.jpg,Green_Star_Chess_1.jpg,left,1128.4250000026077,true,high,NA,NA,NA,NA,NA,NA,NA,false
pv2xPYPf,3pgqrazx15xrvqygpna1awvsi04ysb,31hq4x3t3wn9ibpbxaqd58pomjdslq,pv2xPYPf,2020-0188,2020-11-16,23:22:08,23:45:06,NA,incomplete,104,number,0,1,left,Blue_Triangle_Dots_3.jpg,Red_Plus_Grid_3.jpg,Green_Circle_Dots_4.jpg,left,1084.425000000978,true,high,NA,NA,NA,NA,NA,NA,NA,false
pv2xPYPf,3pgqrazx15xrvqygpna1awvsi04ysb,31hq4x3t3wn9ibpbxaqd58pomjdslq,pv2xPYPf,2020-0188,2020-11-16,23:22:08,23:45:06,NA,incomplete,105,number,0,1,right,Purple_Plus_Stripes_2.jpg,Green_Star_Stripes_3.jpg,Blue_Triangle_Dots_2.jpg,right,697.520000001532,true,high,NA,NA,NA,NA,NA,NA,NA,false
pv2xPYPf,3pgqrazx15xrvqygpna1awvsi04ysb,31hq4x3t3wn9ibpbxaqd58pomjdslq,pv2xPYPf,2020-0188,2020-11-16,23:22:08,23:45:06,NA,incomplete,106,number,0,1,right,Blue_Plus_Stripes_4.jpg,Purple_Star_Stripes_1.jpg,Red_Triangle_Grid_4.jpg,right,1096.2949999957345,true,high,NA,NA,NA,NA,NA,NA,NA,false
pv2xPYPf,3pgqrazx15xrvqygpna1awvsi04ysb,31hq4x3t3wn9ibpbxaqd58pomjdslq,pv2xPYPf,2020-0188,2020-11-16,23:22:08,23:45:06,NA,incomplete,107,number,0,0,left,Green_Star_Chess_1.jpg,Purple_Circle_Stripes_1.jpg,Blue_Plus_Chess_4.jpg,left,799.910000001546,true,high,NA,NA,NA,NA,NA,NA,NA,false
pv2xPYPf,3pgqrazx15xrvqygpna1awvsi04ysb,31hq4x3t3wn9ibpbxaqd58pomjdslq,pv2xPYPf,2020-0188,2020-11-16,23:22:08,23:45:06,NA,incomplete,108,number,0,1,right,Green_Star_Grid_3.jpg,Blue_Triangle_Grid_4.jpg,Purple_Plus_Dots_3.jpg,right,824.6849999995902,true,high,NA,NA,NA,NA,NA,NA,NA,false
pv2xPYPf,3pgqrazx15xrvqygpna1awvsi04ysb,31hq4x3t3wn9ibpbxaqd58pomjdslq,pv2xPYPf,2020-0188,2020-11-16,23:22:08,23:45:06,NA,incomplete,109,number,0,1,right,Purple_Circle_Dots_2.jpg,Blue_Plus_Dots_3.jpg,Green_Star_Stripes_2.jpg,right,714.9100000023609,true,high,NA,NA,NA,NA,NA,NA,NA,false
pv2xPYPf,3pgqrazx15xrvqygpna1awvsi04ysb,31hq4x3t3wn9ibpbxaqd58pomjdslq,pv2xPYPf,2020-0188,2020-11-16,23:22:08,23:45:06,NA,incomplete,110,filling,1,1,right,Purple_Star_Stripes_4.jpg,Blue_Plus_Chess_4.jpg,Green_Triangle_Stripes_3.jpg,left,649.4900000033667,false,high,NA,NA,NA,NA,NA,NA,NA,false
pv2xPYPf,3pgqrazx15xrvqygpna1awvsi04ysb,31hq4x3t3wn9ibpbxaqd58pomjdslq,pv2xPYPf,2020-0188,2020-11-16,23:22:08,23:45:06,NA,incomplete,111,filling,1,0,left,Blue_Triangle_Stripes_2.jpg,Purple_Circle_Stripes_4.jpg,Green_Star_Chess_2.jpg,right,815.6650000018999,false,high,NA,NA,NA,NA,NA,NA,NA,false
pv2xPYPf,3pgqrazx15xrvqygpna1awvsi04ysb,31hq4x3t3wn9ibpbxaqd58pomjdslq,pv2xPYPf,2020-0188,2020-11-16,23:22:08,23:45:06,NA,incomplete,112,filling,1,1,right,Red_Circle_Chess_1.jpg,Green_Triangle_Grid_1.jpg,Blue_Plus_Chess_3.jpg,left,730.2149999960093,false,high,NA,NA,NA,NA,NA,NA,NA,false
pv2xPYPf,3pgqrazx15xrvqygpna1awvsi04ysb,31hq4x3t3wn9ibpbxaqd58pomjdslq,pv2xPYPf,2020-0188,2020-11-16,23:22:08,23:45:06,NA,incomplete,113,filling,1,1,left,Blue_Star_Grid_3.jpg,Red_Triangle_Grid_4.jpg,Green_Plus_Stripes_3.jpg,right,882.3600000033621,false,high,NA,NA,NA,NA,NA,NA,NA,false
pv2xPYPf,3pgqrazx15xrvqygpna1awvsi04ysb,31hq4x3t3wn9ibpbxaqd58pomjdslq,pv2xPYPf,2020-0188,2020-11-16,23:22:08,23:45:06,NA,incomplete,114,filling,1,1,left,Purple_Triangle_Grid_4.jpg,Red_Circle_Grid_3.jpg,Green_Plus_Chess_4.jpg,left,915.9600000057835,true,high,NA,NA,NA,NA,NA,NA,NA,false
pv2xPYPf,3pgqrazx15xrvqygpna1awvsi04ysb,31hq4x3t3wn9ibpbxaqd58pomjdslq,pv2xPYPf,2020-0188,2020-11-16,23:22:08,23:45:06,NA,incomplete,115,filling,1,1,right,Red_Plus_Dots_4.jpg,Blue_Circle_Chess_4.jpg,Green_Triangle_Dots_2.jpg,left,1149.3650000047637,false,high,NA,NA,NA,NA,NA,NA,NA,false
pv2xPYPf,3pgqrazx15xrvqygpna1awvsi04ysb,31hq4x3t3wn9ibpbxaqd58pomjdslq,pv2xPYPf,2020-0188,2020-11-16,23:22:08,23:45:06,NA,incomplete,116,filling,1,1,right,Green_Circle_Grid_3.jpg,Red_Plus_Stripes_3.jpg,Purple_Star_Grid_2.jpg,right,1110.1949999937788,true,high,NA,NA,NA,NA,NA,NA,NA,false
pv2xPYPf,3pgqrazx15xrvqygpna1awvsi04ysb,31hq4x3t3wn9ibpbxaqd58pomjdslq,pv2xPYPf,2020-0188,2020-11-16,23:22:08,23:45:06,NA,incomplete,117,filling,1,1,right,Green_Triangle_Stripes_4.jpg,Purple_Plus_Grid_4.jpg,Red_Star_Stripes_2.jpg,right,900.0749999976251,true,high,NA,NA,NA,NA,NA,NA,NA,false
pv2xPYPf,3pgqrazx15xrvqygpna1awvsi04ysb,31hq4x3t3wn9ibpbxaqd58pomjdslq,pv2xPYPf,2020-0188,2020-11-16,23:22:08,23:45:06,NA,incomplete,118,filling,1,0,left,Purple_Triangle_Grid_1.jpg,Red_Plus_Grid_3.jpg,Blue_Star_Dots_1.jpg,left,885.454999996,true,high,NA,NA,NA,NA,NA,NA,NA,false
pv2xPYPf,3pgqrazx15xrvqygpna1awvsi04ysb,31hq4x3t3wn9ibpbxaqd58pomjdslq,pv2xPYPf,2020-0188,2020-11-16,23:22:08,23:45:06,NA,incomplete,119,filling,1,1,left,Purple_Triangle_Stripes_4.jpg,Blue_Plus_Stripes_1.jpg,Green_Star_Chess_4.jpg,left,849.3850000012899,true,high,NA,NA,NA,NA,NA,NA,NA,false
pv2xPYPf,3pgqrazx15xrvqygpna1awvsi04ysb,31hq4x3t3wn9ibpbxaqd58pomjdslq,pv2xPYPf,2020-0188,2020-11-16,23:22:08,23:45:06,NA,incomplete,120,race,2,1,left,C_F_12.jpg,C_M_13.jpg,A_F_14.jpg,NA,NA,NA,high,NA,NA,NA,NA,NA,NA,NA,false
pv2xPYPf,3pgqrazx15xrvqygpna1awvsi04ysb,31hq4x3t3wn9ibpbxaqd58pomjdslq,pv2xPYPf,2020-0188,2020-11-16,23:22:08,23:45:06,NA,incomplete,121,race,2,1,left,A_M_01.jpg,A_F_06.jpg,C_M_09.jpg,right,1707.134999996866,false,high,NA,NA,NA,NA,NA,NA,NA,false
pv2xPYPf,3pgqrazx15xrvqygpna1awvsi04ysb,31hq4x3t3wn9ibpbxaqd58pomjdslq,pv2xPYPf,2020-0188,2020-11-16,23:22:08,23:45:06,NA,incomplete,122,race,2,1,left,A_F_01.jpg,A_M_12.jpg,C_F_02.jpg,left,1209.7900000008522,true,high,NA,NA,NA,NA,NA,NA,NA,false
pv2xPYPf,3pgqrazx15xrvqygpna1awvsi04ysb,31hq4x3t3wn9ibpbxaqd58pomjdslq,pv2xPYPf,2020-0188,2020-11-16,23:22:08,23:45:06,NA,incomplete,123,race,2,0,right,A_M_10.jpg,C_M_15.jpg,A_F_03.jpg,right,988.6550000009593,true,high,NA,NA,NA,NA,NA,NA,NA,false
pv2xPYPf,3pgqrazx15xrvqygpna1awvsi04ysb,31hq4x3t3wn9ibpbxaqd58pomjdslq,pv2xPYPf,2020-0188,2020-11-16,23:22:08,23:45:06,NA,incomplete,124,race,2,1,left,A_M_13.jpg,A_F_11.jpg,C_M_05.jpg,left,1210.0300000021234,true,high,NA,NA,NA,NA,NA,NA,NA,false
pv2xPYPf,3pgqrazx15xrvqygpna1awvsi04ysb,31hq4x3t3wn9ibpbxaqd58pomjdslq,pv2xPYPf,2020-0188,2020-11-16,23:22:08,23:45:06,NA,incomplete,125,race,2,1,left,C_M_16.jpg,C_F_12.jpg,A_M_04.jpg,left,1869.7000000028638,true,high,NA,NA,NA,NA,NA,NA,NA,false
pv2xPYPf,3pgqrazx15xrvqygpna1awvsi04ysb,31hq4x3t3wn9ibpbxaqd58pomjdslq,pv2xPYPf,2020-0188,2020-11-16,23:22:08,23:45:06,NA,incomplete,126,race,2,1,left,C_F_08.jpg,C_M_03.jpg,A_F_11.jpg,left,1188.5100000000093,true,high,NA,NA,NA,NA,NA,NA,NA,false
pv2xPYPf,3pgqrazx15xrvqygpna1awvsi04ysb,31hq4x3t3wn9ibpbxaqd58pomjdslq,pv2xPYPf,2020-0188,2020-11-16,23:22:08,23:45:06,NA,incomplete,127,race,2,1,left,A_F_14.jpg,A_M_11.jpg,C_F_05.jpg,left,1178.879999999539,true,high,NA,NA,NA,NA,NA,NA,NA,false
pv2xPYPf,3pgqrazx15xrvqygpna1awvsi04ysb,31hq4x3t3wn9ibpbxaqd58pomjdslq,pv2xPYPf,2020-0188,2020-11-16,23:22:08,23:45:06,NA,incomplete,128,race,2,1,left,A_M_02.jpg,A_F_05.jpg,C_M_11.jpg,left,1145.9699999977602,true,high,NA,NA,NA,NA,NA,NA,NA,false
pv2xPYPf,3pgqrazx15xrvqygpna1awvsi04ysb,31hq4x3t3wn9ibpbxaqd58pomjdslq,pv2xPYPf,2020-0188,2020-11-16,23:22:08,23:45:06,NA,incomplete,129,race,2,1,left,A_F_13.jpg,A_M_02.jpg,C_F_06.jpg,left,859.9150000009686,true,high,NA,NA,NA,NA,NA,NA,NA,false
pv2xPYPf,3pgqrazx15xrvqygpna1awvsi04ysb,31hq4x3t3wn9ibpbxaqd58pomjdslq,pv2xPYPf,2020-0188,2020-11-16,23:22:08,23:45:06,NA,incomplete,130,race,2,1,right,C_F_09.jpg,A_F_04.jpg,C_M_01.jpg,right,1339.2499999973224,true,high,NA,NA,NA,NA,NA,NA,NA,false
pv2xPYPf,3pgqrazx15xrvqygpna1awvsi04ysb,31hq4x3t3wn9ibpbxaqd58pomjdslq,pv2xPYPf,2020-0188,2020-11-16,23:22:08,23:45:06,NA,incomplete,131,race,2,1,left,A_F_05.jpg,A_M_03.jpg,C_F_08.jpg,left,1059.005000002915,true,high,NA,NA,NA,NA,NA,NA,NA,false
pv2xPYPf,3pgqrazx15xrvqygpna1awvsi04ysb,31hq4x3t3wn9ibpbxaqd58pomjdslq,pv2xPYPf,2020-0188,2020-11-16,23:22:08,23:45:06,NA,incomplete,132,race,2,1,left,A_M_11.jpg,A_F_04.jpg,C_M_06.jpg,left,834.7500000016298,true,high,NA,NA,NA,NA,NA,NA,NA,false
pv2xPYPf,3pgqrazx15xrvqygpna1awvsi04ysb,31hq4x3t3wn9ibpbxaqd58pomjdslq,pv2xPYPf,2020-0188,2020-11-16,23:22:08,23:45:06,NA,incomplete,133,race,2,0,right,C_F_06.jpg,A_F_13.jpg,C_M_10.jpg,right,983.5599999933038,true,high,NA,NA,NA,NA,NA,NA,NA,false
pv2xPYPf,3pgqrazx15xrvqygpna1awvsi04ysb,31hq4x3t3wn9ibpbxaqd58pomjdslq,pv2xPYPf,2020-0188,2020-11-16,23:22:08,23:45:06,NA,incomplete,134,race,2,1,right,C_F_09.jpg,A_F_12.jpg,C_M_08.jpg,left,1893.4349999981932,false,high,NA,NA,NA,NA,NA,NA,NA,false
pv2xPYPf,3pgqrazx15xrvqygpna1awvsi04ysb,31hq4x3t3wn9ibpbxaqd58pomjdslq,pv2xPYPf,2020-0188,2020-11-16,23:22:08,23:45:06,NA,incomplete,135,race,2,1,right,A_M_07.jpg,C_M_14.jpg,A_F_13.jpg,right,1091.89000000339,true,high,NA,NA,NA,NA,NA,NA,NA,false
pv2xPYPf,3pgqrazx15xrvqygpna1awvsi04ysb,31hq4x3t3wn9ibpbxaqd58pomjdslq,pv2xPYPf,2020-0188,2020-11-16,23:22:08,23:45:06,NA,incomplete,136,race,2,1,left,A_F_03.jpg,A_M_02.jpg,C_F_08.jpg,left,805.7049999989104,true,high,NA,NA,NA,NA,NA,NA,NA,false
pv2xPYPf,3pgqrazx15xrvqygpna1awvsi04ysb,31hq4x3t3wn9ibpbxaqd58pomjdslq,pv2xPYPf,2020-0188,2020-11-16,23:22:08,23:45:06,NA,incomplete,137,race,2,1,right,A_M_01.jpg,C_M_09.jpg,A_F_06.jpg,right,1079.4349999995902,true,high,NA,NA,NA,NA,NA,NA,NA,false
pv2xPYPf,3pgqrazx15xrvqygpna1awvsi04ysb,31hq4x3t3wn9ibpbxaqd58pomjdslq,pv2xPYPf,2020-0188,2020-11-16,23:22:08,23:45:06,NA,incomplete,138,race,2,1,left,C_M_13.jpg,C_F_12.jpg,A_M_07.jpg,left,1074.70000000461,true,high,NA,NA,NA,NA,NA,NA,NA,false
pv2xPYPf,3pgqrazx15xrvqygpna1awvsi04ysb,31hq4x3t3wn9ibpbxaqd58pomjdslq,pv2xPYPf,2020-0188,2020-11-16,23:22:08,23:45:06,NA,incomplete,139,race,2,0,right,A_M_02.jpg,C_M_13.jpg,A_F_11.jpg,right,1051.0950000025332,true,high,NA,NA,NA,NA,NA,NA,NA,false
pv2xPYPf,3pgqrazx15xrvqygpna1awvsi04ysb,31hq4x3t3wn9ibpbxaqd58pomjdslq,pv2xPYPf,2020-0188,2020-11-16,23:22:08,23:45:06,NA,incomplete,140,gender,3,1,right,A_M_05.jpg,A_F_04.jpg,C_M_08.jpg,left,759.1200000024401,false,high,NA,NA,NA,NA,NA,NA,NA,false
pv2xPYPf,3pgqrazx15xrvqygpna1awvsi04ysb,31hq4x3t3wn9ibpbxaqd58pomjdslq,pv2xPYPf,2020-0188,2020-11-16,23:22:08,23:45:06,NA,incomplete,141,gender,3,0,left,A_M_15.jpg,C_M_02.jpg,A_F_16.jpg,left,899.9699999985751,true,high,NA,NA,NA,NA,NA,NA,NA,false
pv2xPYPf,3pgqrazx15xrvqygpna1awvsi04ysb,31hq4x3t3wn9ibpbxaqd58pomjdslq,pv2xPYPf,2020-0188,2020-11-16,23:22:08,23:45:06,NA,incomplete,142,gender,3,1,right,A_F_06.jpg,A_M_04.jpg,C_F_09.jpg,left,1005.5950000023004,false,high,NA,NA,NA,NA,NA,NA,NA,false
pv2xPYPf,3pgqrazx15xrvqygpna1awvsi04ysb,31hq4x3t3wn9ibpbxaqd58pomjdslq,pv2xPYPf,2020-0188,2020-11-16,23:22:08,23:45:06,NA,incomplete,143,gender,3,1,left,A_M_16.jpg,C_M_09.jpg,A_F_05.jpg,left,1281.5550000013318,true,high,NA,NA,NA,NA,NA,NA,NA,false
pv2xPYPf,3pgqrazx15xrvqygpna1awvsi04ysb,31hq4x3t3wn9ibpbxaqd58pomjdslq,pv2xPYPf,2020-0188,2020-11-16,23:22:08,23:45:06,NA,incomplete,144,gender,3,1,left,A_F_05.jpg,C_F_12.jpg,A_M_15.jpg,left,781.7750000031665,true,high,NA,NA,NA,NA,NA,NA,NA,false
pv2xPYPf,3pgqrazx15xrvqygpna1awvsi04ysb,31hq4x3t3wn9ibpbxaqd58pomjdslq,pv2xPYPf,2020-0188,2020-11-16,23:22:08,23:45:06,NA,incomplete,145,gender,3,1,right,A_F_05.jpg,A_M_02.jpg,C_F_12.jpg,right,1169.1150000041816,true,high,NA,NA,NA,NA,NA,NA,NA,false
pv2xPYPf,3pgqrazx15xrvqygpna1awvsi04ysb,31hq4x3t3wn9ibpbxaqd58pomjdslq,pv2xPYPf,2020-0188,2020-11-16,23:22:08,23:45:06,NA,incomplete,146,gender,3,0,left,A_F_01.jpg,C_F_08.jpg,A_M_09.jpg,left,1257.8949999951292,true,high,NA,NA,NA,NA,NA,NA,NA,false
pv2xPYPf,3pgqrazx15xrvqygpna1awvsi04ysb,31hq4x3t3wn9ibpbxaqd58pomjdslq,pv2xPYPf,2020-0188,2020-11-16,23:22:08,23:45:06,NA,incomplete,147,gender,3,1,left,A_M_10.jpg,C_M_03.jpg,A_F_06.jpg,left,772.2750000029337,true,high,NA,NA,NA,NA,NA,NA,NA,false
pv2xPYPf,3pgqrazx15xrvqygpna1awvsi04ysb,31hq4x3t3wn9ibpbxaqd58pomjdslq,pv2xPYPf,2020-0188,2020-11-16,23:22:08,23:45:06,NA,incomplete,148,gender,3,1,right,A_M_16.jpg,A_F_10.jpg,C_M_11.jpg,right,1120.719999998808,true,high,NA,NA,NA,NA,NA,NA,NA,false
pv2xPYPf,3pgqrazx15xrvqygpna1awvsi04ysb,31hq4x3t3wn9ibpbxaqd58pomjdslq,pv2xPYPf,2020-0188,2020-11-16,23:22:08,23:45:06,NA,incomplete,149,gender,3,1,left,A_F_09.jpg,C_F_13.jpg,A_M_06.jpg,left,1289.7799999990966,true,high,NA,NA,NA,NA,NA,NA,NA,false
pv2xPYPf,3pgqrazx15xrvqygpna1awvsi04ysb,31hq4x3t3wn9ibpbxaqd58pomjdslq,pv2xPYPf,2020-0188,2020-11-16,23:22:08,23:45:06,NA,incomplete,150,gender,3,1,left,C_M_11.jpg,A_M_06.jpg,C_F_03.jpg,left,1078.7349999954458,true,high,NA,NA,NA,NA,NA,NA,NA,false
pv2xPYPf,3pgqrazx15xrvqygpna1awvsi04ysb,31hq4x3t3wn9ibpbxaqd58pomjdslq,pv2xPYPf,2020-0188,2020-11-16,23:22:08,23:45:06,NA,incomplete,151,gender,3,0,left,C_M_15.jpg,A_M_01.jpg,C_F_14.jpg,left,868.4099999954924,true,high,NA,NA,NA,NA,NA,NA,NA,false
pv2xPYPf,3pgqrazx15xrvqygpna1awvsi04ysb,31hq4x3t3wn9ibpbxaqd58pomjdslq,pv2xPYPf,2020-0188,2020-11-16,23:22:08,23:45:06,NA,incomplete,152,gender,3,1,right,C_M_16.jpg,C_F_09.jpg,A_M_05.jpg,right,1337.7899999979418,true,high,NA,NA,NA,NA,NA,NA,NA,false
pv2xPYPf,3pgqrazx15xrvqygpna1awvsi04ysb,31hq4x3t3wn9ibpbxaqd58pomjdslq,pv2xPYPf,2020-0188,2020-11-16,23:22:08,23:45:06,NA,incomplete,153,gender,3,1,right,A_M_15.jpg,A_F_04.jpg,C_M_08.jpg,right,1516.1449999941979,true,high,NA,NA,NA,NA,NA,NA,NA,false
pv2xPYPf,3pgqrazx15xrvqygpna1awvsi04ysb,31hq4x3t3wn9ibpbxaqd58pomjdslq,pv2xPYPf,2020-0188,2020-11-16,23:22:08,23:45:06,NA,incomplete,154,gender,3,1,left,A_M_15.jpg,C_M_09.jpg,A_F_04.jpg,left,842.7200000006706,true,high,NA,NA,NA,NA,NA,NA,NA,false
pv2xPYPf,3pgqrazx15xrvqygpna1awvsi04ysb,31hq4x3t3wn9ibpbxaqd58pomjdslq,pv2xPYPf,2020-0188,2020-11-16,23:22:08,23:45:06,NA,incomplete,155,gender,3,1,right,C_M_02.jpg,C_F_13.jpg,A_M_10.jpg,right,622.8350000018254,true,high,NA,NA,NA,NA,NA,NA,NA,false
pv2xPYPf,3pgqrazx15xrvqygpna1awvsi04ysb,31hq4x3t3wn9ibpbxaqd58pomjdslq,pv2xPYPf,2020-0188,2020-11-16,23:22:08,23:45:06,NA,incomplete,156,gender,3,1,left,A_M_05.jpg,C_M_06.jpg,A_F_07.jpg,left,566.8349999978673,true,high,NA,NA,NA,NA,NA,NA,NA,false
pv2xPYPf,3pgqrazx15xrvqygpna1awvsi04ysb,31hq4x3t3wn9ibpbxaqd58pomjdslq,pv2xPYPf,2020-0188,2020-11-16,23:22:08,23:45:06,NA,incomplete,157,gender,3,1,left,C_F_12.jpg,A_F_01.jpg,C_M_08.jpg,left,588.945000003092,true,high,NA,NA,NA,NA,NA,NA,NA,false
pv2xPYPf,3pgqrazx15xrvqygpna1awvsi04ysb,31hq4x3t3wn9ibpbxaqd58pomjdslq,pv2xPYPf,2020-0188,2020-11-16,23:22:08,23:45:06,NA,incomplete,158,gender,3,1,left,C_M_05.jpg,A_M_08.jpg,C_F_12.jpg,left,710.3900000001304,true,high,NA,NA,NA,NA,NA,NA,NA,false
pv2xPYPf,3pgqrazx15xrvqygpna1awvsi04ysb,31hq4x3t3wn9ibpbxaqd58pomjdslq,pv2xPYPf,2020-0188,2020-11-16,23:22:08,23:45:06,NA,incomplete,159,gender,3,1,right,A_F_07.jpg,A_M_06.jpg,C_F_05.jpg,right,664.1999999992549,true,high,NA,NA,NA,NA,NA,NA,NA,false
pv2xPYPf,3pgqrazx15xrvqygpna1awvsi04ysb,31hq4x3t3wn9ibpbxaqd58pomjdslq,pv2xPYPf,2020-0188,2020-11-16,23:22:08,23:45:06,NA,incomplete,160,race,2,1,right,C_M_09.jpg,A_M_03.jpg,C_F_05.jpg,left,665.7799999956042,false,high,NA,NA,NA,NA,NA,NA,NA,false
pv2xPYPf,3pgqrazx15xrvqygpna1awvsi04ysb,31hq4x3t3wn9ibpbxaqd58pomjdslq,pv2xPYPf,2020-0188,2020-11-16,23:22:08,23:45:06,NA,incomplete,161,race,2,1,left,C_M_01.jpg,C_F_12.jpg,A_M_11.jpg,right,668.3550000016112,false,high,NA,NA,NA,NA,NA,NA,NA,false
pv2xPYPf,3pgqrazx15xrvqygpna1awvsi04ysb,31hq4x3t3wn9ibpbxaqd58pomjdslq,pv2xPYPf,2020-0188,2020-11-16,23:22:08,23:45:06,NA,incomplete,162,race,2,1,right,C_F_05.jpg,A_F_16.jpg,C_M_15.jpg,right,1136.5050000022165,true,high,NA,NA,NA,NA,NA,NA,NA,false
pv2xPYPf,3pgqrazx15xrvqygpna1awvsi04ysb,31hq4x3t3wn9ibpbxaqd58pomjdslq,pv2xPYPf,2020-0188,2020-11-16,23:22:08,23:45:06,NA,incomplete,163,race,2,1,right,C_M_03.jpg,A_M_06.jpg,C_F_11.jpg,right,881.9749999966007,true,high,NA,NA,NA,NA,NA,NA,NA,false
pv2xPYPf,3pgqrazx15xrvqygpna1awvsi04ysb,31hq4x3t3wn9ibpbxaqd58pomjdslq,pv2xPYPf,2020-0188,2020-11-16,23:22:08,23:45:06,NA,incomplete,164,race,2,0,right,A_F_04.jpg,C_F_06.jpg,A_M_02.jpg,right,1555.99500000244,true,high,NA,NA,NA,NA,NA,NA,NA,false
pv2xPYPf,3pgqrazx15xrvqygpna1awvsi04ysb,31hq4x3t3wn9ibpbxaqd58pomjdslq,pv2xPYPf,2020-0188,2020-11-16,23:22:08,23:45:06,NA,incomplete,165,race,2,1,right,A_F_09.jpg,C_F_12.jpg,A_M_13.jpg,right,924.1100000001024,true,high,NA,NA,NA,NA,NA,NA,NA,false
pv2xPYPf,3pgqrazx15xrvqygpna1awvsi04ysb,31hq4x3t3wn9ibpbxaqd58pomjdslq,pv2xPYPf,2020-0188,2020-11-16,23:22:08,23:45:06,NA,incomplete,166,race,2,1,left,C_F_11.jpg,C_M_08.jpg,A_F_14.jpg,left,864.3199999933131,true,high,NA,NA,NA,NA,NA,NA,NA,false
pv2xPYPf,3pgqrazx15xrvqygpna1awvsi04ysb,31hq4x3t3wn9ibpbxaqd58pomjdslq,pv2xPYPf,2020-0188,2020-11-16,23:22:08,23:45:06,NA,incomplete,167,race,2,0,right,C_F_14.jpg,A_F_13.jpg,C_M_01.jpg,left,1054.0850000034552,false,high,NA,NA,NA,NA,NA,NA,NA,false
pv2xPYPf,3pgqrazx15xrvqygpna1awvsi04ysb,31hq4x3t3wn9ibpbxaqd58pomjdslq,pv2xPYPf,2020-0188,2020-11-16,23:22:08,23:45:06,NA,incomplete,168,race,2,1,left,C_F_04.jpg,C_M_07.jpg,A_F_14.jpg,right,1401.1450000032783,false,high,NA,NA,NA,NA,NA,NA,NA,false
pv2xPYPf,3pgqrazx15xrvqygpna1awvsi04ysb,31hq4x3t3wn9ibpbxaqd58pomjdslq,pv2xPYPf,2020-0188,2020-11-16,23:22:08,23:45:06,NA,incomplete,169,race,2,0,right,A_M_01.jpg,C_M_11.jpg,A_F_06.jpg,right,1267.2900000032969,true,high,NA,NA,NA,NA,NA,NA,NA,false
pv2xPYPf,3pgqrazx15xrvqygpna1awvsi04ysb,31hq4x3t3wn9ibpbxaqd58pomjdslq,pv2xPYPf,2020-0188,2020-11-16,23:22:08,23:45:06,NA,incomplete,170,race,2,1,right,C_M_05.jpg,A_M_03.jpg,C_F_11.jpg,left,1003.6350000009406,false,high,NA,NA,NA,NA,NA,NA,NA,false
pv2xPYPf,3pgqrazx15xrvqygpna1awvsi04ysb,31hq4x3t3wn9ibpbxaqd58pomjdslq,pv2xPYPf,2020-0188,2020-11-16,23:22:08,23:45:06,NA,incomplete,171,race,2,1,left,C_M_02.jpg,C_F_06.jpg,A_M_08.jpg,right,728.4500000025146,false,high,NA,NA,NA,NA,NA,NA,NA,false
pv2xPYPf,3pgqrazx15xrvqygpna1awvsi04ysb,31hq4x3t3wn9ibpbxaqd58pomjdslq,pv2xPYPf,2020-0188,2020-11-16,23:22:08,23:45:06,NA,incomplete,172,race,2,1,right,A_M_14.jpg,C_M_06.jpg,A_F_03.jpg,right,1317.7799999974668,true,high,NA,NA,NA,NA,NA,NA,NA,false
pv2xPYPf,3pgqrazx15xrvqygpna1awvsi04ysb,31hq4x3t3wn9ibpbxaqd58pomjdslq,pv2xPYPf,2020-0188,2020-11-16,23:22:08,23:45:06,NA,incomplete,173,race,2,0,right,A_F_03.jpg,C_F_07.jpg,A_M_02.jpg,right,1084.6000000019558,true,high,NA,NA,NA,NA,NA,NA,NA,false
pv2xPYPf,3pgqrazx15xrvqygpna1awvsi04ysb,31hq4x3t3wn9ibpbxaqd58pomjdslq,pv2xPYPf,2020-0188,2020-11-16,23:22:08,23:45:06,NA,incomplete,174,race,2,1,right,A_M_14.jpg,C_M_11.jpg,A_F_04.jpg,right,1204.98499999661,true,high,NA,NA,NA,NA,NA,NA,NA,false
pv2xPYPf,3pgqrazx15xrvqygpna1awvsi04ysb,31hq4x3t3wn9ibpbxaqd58pomjdslq,pv2xPYPf,2020-0188,2020-11-16,23:22:08,23:45:06,NA,incomplete,175,race,2,1,right,C_M_04.jpg,A_M_06.jpg,C_F_16.jpg,right,1495.7649999996647,true,high,NA,NA,NA,NA,NA,NA,NA,false
pv2xPYPf,3pgqrazx15xrvqygpna1awvsi04ysb,31hq4x3t3wn9ibpbxaqd58pomjdslq,pv2xPYPf,2020-0188,2020-11-16,23:22:08,23:45:06,NA,incomplete,176,race,2,0,right,C_M_05.jpg,A_M_15.jpg,C_F_13.jpg,right,768.4399999999441,true,high,NA,NA,NA,NA,NA,NA,NA,false
pv2xPYPf,3pgqrazx15xrvqygpna1awvsi04ysb,31hq4x3t3wn9ibpbxaqd58pomjdslq,pv2xPYPf,2020-0188,2020-11-16,23:22:08,23:45:06,NA,incomplete,177,race,2,1,left,C_F_01.jpg,C_M_07.jpg,A_F_10.jpg,left,1074.8400000010151,true,high,NA,NA,NA,NA,NA,NA,NA,false
pv2xPYPf,3pgqrazx15xrvqygpna1awvsi04ysb,31hq4x3t3wn9ibpbxaqd58pomjdslq,pv2xPYPf,2020-0188,2020-11-16,23:22:08,23:45:06,NA,incomplete,178,race,2,1,left,C_F_08.jpg,C_M_13.jpg,A_F_09.jpg,left,1030.1199999959208,true,high,NA,NA,NA,NA,NA,NA,NA,false
pv2xPYPf,3pgqrazx15xrvqygpna1awvsi04ysb,31hq4x3t3wn9ibpbxaqd58pomjdslq,pv2xPYPf,2020-0188,2020-11-16,23:22:08,23:45:06,NA,incomplete,179,race,2,0,left,A_M_15.jpg,A_F_13.jpg,C_M_04.jpg,right,1179.8400000045076,false,high,NA,NA,NA,NA,NA,NA,NA,false
pv2xPYPf,3pgqrazx15xrvqygpna1awvsi04ysb,31hq4x3t3wn9ibpbxaqd58pomjdslq,pv2xPYPf,2020-0188,2020-11-16,23:22:08,23:45:06,NA,incomplete,180,gender,3,1,left,C_M_08.jpg,A_M_09.jpg,C_F_14.jpg,left,1136.7800000007264,true,high,NA,NA,NA,NA,NA,NA,NA,false
pv2xPYPf,3pgqrazx15xrvqygpna1awvsi04ysb,31hq4x3t3wn9ibpbxaqd58pomjdslq,pv2xPYPf,2020-0188,2020-11-16,23:22:08,23:45:06,NA,incomplete,181,gender,3,1,left,C_F_03.jpg,A_F_11.jpg,C_M_06.jpg,left,1046.7399999978952,true,high,NA,NA,NA,NA,NA,NA,NA,false
pv2xPYPf,3pgqrazx15xrvqygpna1awvsi04ysb,31hq4x3t3wn9ibpbxaqd58pomjdslq,pv2xPYPf,2020-0188,2020-11-16,23:22:08,23:45:06,NA,incomplete,182,gender,3,0,right,C_F_03.jpg,C_M_15.jpg,A_F_01.jpg,right,994.9950000008103,true,high,NA,NA,NA,NA,NA,NA,NA,false
pv2xPYPf,3pgqrazx15xrvqygpna1awvsi04ysb,31hq4x3t3wn9ibpbxaqd58pomjdslq,pv2xPYPf,2020-0188,2020-11-16,23:22:08,23:45:06,NA,incomplete,183,gender,3,1,left,A_F_10.jpg,C_F_04.jpg,A_M_05.jpg,left,808.0400000035297,true,high,NA,NA,NA,NA,NA,NA,NA,false
pv2xPYPf,3pgqrazx15xrvqygpna1awvsi04ysb,31hq4x3t3wn9ibpbxaqd58pomjdslq,pv2xPYPf,2020-0188,2020-11-16,23:22:08,23:45:06,NA,incomplete,184,gender,3,0,right,C_M_11.jpg,C_F_14.jpg,A_M_16.jpg,right,1009.0400000042282,true,high,NA,NA,NA,NA,NA,NA,NA,false
pv2xPYPf,3pgqrazx15xrvqygpna1awvsi04ysb,31hq4x3t3wn9ibpbxaqd58pomjdslq,pv2xPYPf,2020-0188,2020-11-16,23:22:08,23:45:06,NA,incomplete,185,gender,3,1,right,A_M_16.jpg,A_F_15.jpg,C_M_10.jpg,right,1121.735000000568,true,high,NA,NA,NA,NA,NA,NA,NA,false
pv2xPYPf,3pgqrazx15xrvqygpna1awvsi04ysb,31hq4x3t3wn9ibpbxaqd58pomjdslq,pv2xPYPf,2020-0188,2020-11-16,23:22:08,23:45:06,NA,incomplete,186,gender,3,1,right,A_F_08.jpg,A_M_12.jpg,C_F_10.jpg,right,976.0349999996834,true,high,NA,NA,NA,NA,NA,NA,NA,false
pv2xPYPf,3pgqrazx15xrvqygpna1awvsi04ysb,31hq4x3t3wn9ibpbxaqd58pomjdslq,pv2xPYPf,2020-0188,2020-11-16,23:22:08,23:45:06,NA,incomplete,187,gender,3,0,left,A_M_04.jpg,C_M_13.jpg,A_F_02.jpg,left,896.999999997206,true,high,NA,NA,NA,NA,NA,NA,NA,false
pv2xPYPf,3pgqrazx15xrvqygpna1awvsi04ysb,31hq4x3t3wn9ibpbxaqd58pomjdslq,pv2xPYPf,2020-0188,2020-11-16,23:22:08,23:45:06,NA,incomplete,188,gender,3,1,right,C_F_10.jpg,C_M_11.jpg,A_F_04.jpg,right,934.365000000922,true,high,NA,NA,NA,NA,NA,NA,NA,false
pv2xPYPf,3pgqrazx15xrvqygpna1awvsi04ysb,31hq4x3t3wn9ibpbxaqd58pomjdslq,pv2xPYPf,2020-0188,2020-11-16,23:22:08,23:45:06,NA,incomplete,189,gender,3,1,left,A_M_15.jpg,C_M_08.jpg,A_F_06.jpg,left,1144.910000002943,true,high,NA,NA,NA,NA,NA,NA,NA,false
pv2xPYPf,3pgqrazx15xrvqygpna1awvsi04ysb,31hq4x3t3wn9ibpbxaqd58pomjdslq,pv2xPYPf,2020-0188,2020-11-16,23:22:08,23:45:06,NA,incomplete,190,gender,3,1,left,A_M_08.jpg,C_M_14.jpg,A_F_06.jpg,left,787.7900000021327,true,high,NA,NA,NA,NA,NA,NA,NA,false
pv2xPYPf,3pgqrazx15xrvqygpna1awvsi04ysb,31hq4x3t3wn9ibpbxaqd58pomjdslq,pv2xPYPf,2020-0188,2020-11-16,23:22:08,23:45:06,NA,incomplete,191,gender,3,1,left,A_F_06.jpg,C_F_12.jpg,A_M_05.jpg,left,965.1699999959674,true,high,NA,NA,NA,NA,NA,NA,NA,false
pv2xPYPf,3pgqrazx15xrvqygpna1awvsi04ysb,31hq4x3t3wn9ibpbxaqd58pomjdslq,pv2xPYPf,2020-0188,2020-11-16,23:22:08,23:45:06,NA,incomplete,192,gender,3,0,right,A_M_01.jpg,A_F_02.jpg,C_M_03.jpg,right,771.6349999972153,true,high,NA,NA,NA,NA,NA,NA,NA,false
pv2xPYPf,3pgqrazx15xrvqygpna1awvsi04ysb,31hq4x3t3wn9ibpbxaqd58pomjdslq,pv2xPYPf,2020-0188,2020-11-16,23:22:08,23:45:06,NA,incomplete,193,gender,3,1,left,C_M_01.jpg,A_M_15.jpg,C_F_08.jpg,left,771.4500000001863,true,high,NA,NA,NA,NA,NA,NA,NA,false
pv2xPYPf,3pgqrazx15xrvqygpna1awvsi04ysb,31hq4x3t3wn9ibpbxaqd58pomjdslq,pv2xPYPf,2020-0188,2020-11-16,23:22:08,23:45:06,NA,incomplete,194,gender,3,1,right,C_M_15.jpg,C_F_04.jpg,A_M_06.jpg,right,1168.3199999970384,true,high,NA,NA,NA,NA,NA,NA,NA,false
pv2xPYPf,3pgqrazx15xrvqygpna1awvsi04ysb,31hq4x3t3wn9ibpbxaqd58pomjdslq,pv2xPYPf,2020-0188,2020-11-16,23:22:08,23:45:06,NA,incomplete,195,gender,3,1,right,A_M_15.jpg,A_F_09.jpg,C_M_04.jpg,right,858.1350000023376,true,high,NA,NA,NA,NA,NA,NA,NA,false
pv2xPYPf,3pgqrazx15xrvqygpna1awvsi04ysb,31hq4x3t3wn9ibpbxaqd58pomjdslq,pv2xPYPf,2020-0188,2020-11-16,23:22:08,23:45:06,NA,incomplete,196,gender,3,0,right,A_F_12.jpg,A_M_10.jpg,C_F_07.jpg,right,744.0050000005867,true,high,NA,NA,NA,NA,NA,NA,NA,false
pv2xPYPf,3pgqrazx15xrvqygpna1awvsi04ysb,31hq4x3t3wn9ibpbxaqd58pomjdslq,pv2xPYPf,2020-0188,2020-11-16,23:22:08,23:45:06,NA,incomplete,197,gender,3,1,right,A_M_16.jpg,A_F_14.jpg,C_M_09.jpg,right,736.9450000042561,true,high,NA,NA,NA,NA,NA,NA,NA,false
pv2xPYPf,3pgqrazx15xrvqygpna1awvsi04ysb,31hq4x3t3wn9ibpbxaqd58pomjdslq,pv2xPYPf,2020-0188,2020-11-16,23:22:08,23:45:06,NA,incomplete,198,gender,3,1,right,C_M_14.jpg,C_F_06.jpg,A_M_01.jpg,right,740.7300000048708,true,high,NA,NA,NA,NA,NA,NA,NA,false
pv2xPYPf,3pgqrazx15xrvqygpna1awvsi04ysb,31hq4x3t3wn9ibpbxaqd58pomjdslq,pv2xPYPf,2020-0188,2020-11-16,23:22:08,23:45:06,NA,incomplete,199,gender,3,1,left,A_M_07.jpg,C_M_05.jpg,A_F_15.jpg,left,774.1499999975786,true,high,NA,NA,NA,NA,NA,NA,NA,false
pv2xPYPf,3pgqrazx15xrvqygpna1awvsi04ysb,31hq4x3t3wn9ibpbxaqd58pomjdslq,pv2xPYPf,2020-0188,2020-11-16,23:22:08,23:45:06,NA,incomplete,200,race,2,1,left,A_F_05.jpg,A_M_08.jpg,C_F_04.jpg,right,1234.0400000028312,false,high,NA,NA,NA,NA,NA,NA,NA,false
pv2xPYPf,3pgqrazx15xrvqygpna1awvsi04ysb,31hq4x3t3wn9ibpbxaqd58pomjdslq,pv2xPYPf,2020-0188,2020-11-16,23:22:08,23:45:06,NA,incomplete,201,race,2,0,left,A_F_04.jpg,A_M_15.jpg,C_F_11.jpg,right,641.880000002915,false,high,NA,NA,NA,NA,NA,NA,NA,false
pv2xPYPf,3pgqrazx15xrvqygpna1awvsi04ysb,31hq4x3t3wn9ibpbxaqd58pomjdslq,pv2xPYPf,2020-0188,2020-11-16,23:22:08,23:45:06,NA,incomplete,202,race,2,1,left,C_F_16.jpg,C_M_08.jpg,A_F_04.jpg,right,529.5599999953993,false,high,NA,NA,NA,NA,NA,NA,NA,false
pv2xPYPf,3pgqrazx15xrvqygpna1awvsi04ysb,31hq4x3t3wn9ibpbxaqd58pomjdslq,pv2xPYPf,2020-0188,2020-11-16,23:22:08,23:45:06,NA,incomplete,203,race,2,1,left,A_F_13.jpg,A_M_14.jpg,C_F_08.jpg,right,728.8600000028964,false,high,NA,NA,NA,NA,NA,NA,NA,false
pv2xPYPf,3pgqrazx15xrvqygpna1awvsi04ysb,31hq4x3t3wn9ibpbxaqd58pomjdslq,pv2xPYPf,2020-0188,2020-11-16,23:22:08,23:45:06,NA,incomplete,204,race,2,1,left,C_M_06.jpg,C_F_05.jpg,A_M_11.jpg,left,1297.6599999966566,true,high,NA,NA,NA,NA,NA,NA,NA,false
pv2xPYPf,3pgqrazx15xrvqygpna1awvsi04ysb,31hq4x3t3wn9ibpbxaqd58pomjdslq,pv2xPYPf,2020-0188,2020-11-16,23:22:08,23:45:06,NA,incomplete,205,race,2,1,right,A_F_08.jpg,C_F_06.jpg,A_M_10.jpg,right,973.0899999996182,true,high,NA,NA,NA,NA,NA,NA,NA,false
pv2xPYPf,3pgqrazx15xrvqygpna1awvsi04ysb,31hq4x3t3wn9ibpbxaqd58pomjdslq,pv2xPYPf,2020-0188,2020-11-16,23:22:08,23:45:06,NA,incomplete,206,race,2,1,left,C_F_13.jpg,C_M_02.jpg,A_F_05.jpg,left,824.2150000005495,true,high,NA,NA,NA,NA,NA,NA,NA,false
pv2xPYPf,3pgqrazx15xrvqygpna1awvsi04ysb,31hq4x3t3wn9ibpbxaqd58pomjdslq,pv2xPYPf,2020-0188,2020-11-16,23:22:08,23:45:06,NA,incomplete,207,race,2,1,left,C_F_03.jpg,C_M_01.jpg,A_F_14.jpg,right,1058.3049999985378,false,high,NA,NA,NA,NA,NA,NA,NA,false
pv2xPYPf,3pgqrazx15xrvqygpna1awvsi04ysb,31hq4x3t3wn9ibpbxaqd58pomjdslq,pv2xPYPf,2020-0188,2020-11-16,23:22:08,23:45:06,NA,incomplete,208,race,2,1,left,C_M_02.jpg,C_F_11.jpg,A_M_06.jpg,right,937.7150000000838,false,high,NA,NA,NA,NA,NA,NA,NA,false
pv2xPYPf,3pgqrazx15xrvqygpna1awvsi04ysb,31hq4x3t3wn9ibpbxaqd58pomjdslq,pv2xPYPf,2020-0188,2020-11-16,23:22:08,23:45:06,NA,incomplete,209,race,2,0,right,C_F_03.jpg,A_F_11.jpg,C_M_14.jpg,right,822.6199999989476,true,high,NA,NA,NA,NA,NA,NA,NA,false
pv2xPYPf,3pgqrazx15xrvqygpna1awvsi04ysb,31hq4x3t3wn9ibpbxaqd58pomjdslq,pv2xPYPf,2020-0188,2020-11-16,23:22:08,23:45:06,NA,incomplete,210,race,2,1,left,A_F_12.jpg,A_M_06.jpg,C_F_16.jpg,right,1139.6450000030454,false,high,NA,NA,NA,NA,NA,NA,NA,false
pv2xPYPf,3pgqrazx15xrvqygpna1awvsi04ysb,31hq4x3t3wn9ibpbxaqd58pomjdslq,pv2xPYPf,2020-0188,2020-11-16,23:22:08,23:45:06,NA,incomplete,211,race,2,0,right,A_F_16.jpg,C_F_08.jpg,A_M_15.jpg,right,1282.9899999997579,true,high,NA,NA,NA,NA,NA,NA,NA,false
pv2xPYPf,3pgqrazx15xrvqygpna1awvsi04ysb,31hq4x3t3wn9ibpbxaqd58pomjdslq,pv2xPYPf,2020-0188,2020-11-16,23:22:08,23:45:06,NA,incomplete,212,race,2,1,right,C_F_16.jpg,A_F_10.jpg,C_M_13.jpg,right,1202.700000001816,true,high,NA,NA,NA,NA,NA,NA,NA,false
pv2xPYPf,3pgqrazx15xrvqygpna1awvsi04ysb,31hq4x3t3wn9ibpbxaqd58pomjdslq,pv2xPYPf,2020-0188,2020-11-16,23:22:08,23:45:06,NA,incomplete,213,race,2,1,right,C_M_07.jpg,A_M_09.jpg,C_F_04.jpg,right,994.7800000007264,true,high,NA,NA,NA,NA,NA,NA,NA,false
pv2xPYPf,3pgqrazx15xrvqygpna1awvsi04ysb,31hq4x3t3wn9ibpbxaqd58pomjdslq,pv2xPYPf,2020-0188,2020-11-16,23:22:08,23:45:06,NA,incomplete,214,race,2,0,right,C_M_05.jpg,A_M_10.jpg,C_F_07.jpg,right,1164.2900000007357,true,high,NA,NA,NA,NA,NA,NA,NA,false
pv2xPYPf,3pgqrazx15xrvqygpna1awvsi04ysb,31hq4x3t3wn9ibpbxaqd58pomjdslq,pv2xPYPf,2020-0188,2020-11-16,23:22:08,23:45:06,NA,incomplete,215,race,2,1,right,A_M_09.jpg,C_M_03.jpg,A_F_07.jpg,right,1270.2399999978952,true,high,NA,NA,NA,NA,NA,NA,NA,false
pv2xPYPf,3pgqrazx15xrvqygpna1awvsi04ysb,31hq4x3t3wn9ibpbxaqd58pomjdslq,pv2xPYPf,2020-0188,2020-11-16,23:22:08,23:45:06,NA,incomplete,216,race,2,1,right,C_F_14.jpg,A_F_05.jpg,C_M_16.jpg,right,1005.0100000009406,true,high,NA,NA,NA,NA,NA,NA,NA,false
pv2xPYPf,3pgqrazx15xrvqygpna1awvsi04ysb,31hq4x3t3wn9ibpbxaqd58pomjdslq,pv2xPYPf,2020-0188,2020-11-16,23:22:08,23:45:06,NA,incomplete,217,race,2,1,right,A_F_03.jpg,C_F_04.jpg,A_M_06.jpg,right,984.709999996936,true,high,NA,NA,NA,NA,NA,NA,NA,false
pv2xPYPf,3pgqrazx15xrvqygpna1awvsi04ysb,31hq4x3t3wn9ibpbxaqd58pomjdslq,pv2xPYPf,2020-0188,2020-11-16,23:22:08,23:45:06,NA,incomplete,218,race,2,1,right,A_F_06.jpg,C_F_10.jpg,A_M_13.jpg,right,1317.9450000023935,true,high,NA,NA,NA,NA,NA,NA,NA,false
pv2xPYPf,3pgqrazx15xrvqygpna1awvsi04ysb,31hq4x3t3wn9ibpbxaqd58pomjdslq,pv2xPYPf,2020-0188,2020-11-16,23:22:08,23:45:06,NA,incomplete,219,race,2,1,left,C_F_04.jpg,C_M_10.jpg,A_F_01.jpg,left,799.4149999939837,true,high,NA,NA,NA,NA,NA,NA,NA,false
pv2xPYPf,3pgqrazx15xrvqygpna1awvsi04ysb,31hq4x3t3wn9ibpbxaqd58pomjdslq,pv2xPYPf,2020-0188,2020-11-16,23:22:08,23:45:06,NA,incomplete,220,gender,3,1,left,A_F_05.jpg,C_F_09.jpg,A_M_12.jpg,left,792.4549999951851,true,high,NA,NA,NA,NA,NA,NA,NA,false
pv2xPYPf,3pgqrazx15xrvqygpna1awvsi04ysb,31hq4x3t3wn9ibpbxaqd58pomjdslq,pv2xPYPf,2020-0188,2020-11-16,23:22:08,23:45:06,NA,incomplete,221,gender,3,1,right,C_F_09.jpg,C_M_02.jpg,A_F_14.jpg,right,725.6349999953527,true,high,NA,NA,NA,NA,NA,NA,NA,false
pv2xPYPf,3pgqrazx15xrvqygpna1awvsi04ysb,31hq4x3t3wn9ibpbxaqd58pomjdslq,pv2xPYPf,2020-0188,2020-11-16,23:22:08,23:45:06,NA,incomplete,222,gender,3,1,right,C_F_08.jpg,C_M_07.jpg,A_F_02.jpg,right,777.2049999986775,true,high,NA,NA,NA,NA,NA,NA,NA,false
pv2xPYPf,3pgqrazx15xrvqygpna1awvsi04ysb,31hq4x3t3wn9ibpbxaqd58pomjdslq,pv2xPYPf,2020-0188,2020-11-16,23:22:08,23:45:06,NA,incomplete,223,gender,3,1,left,C_M_07.jpg,A_M_13.jpg,C_F_12.jpg,left,703.5499999981839,true,high,NA,NA,NA,NA,NA,NA,NA,false
pv2xPYPf,3pgqrazx15xrvqygpna1awvsi04ysb,31hq4x3t3wn9ibpbxaqd58pomjdslq,pv2xPYPf,2020-0188,2020-11-16,23:22:08,23:45:06,NA,incomplete,224,gender,3,1,right,A_M_06.jpg,A_F_12.jpg,C_M_09.jpg,right,873.8300000040326,true,high,NA,NA,NA,NA,NA,NA,NA,false
pv2xPYPf,3pgqrazx15xrvqygpna1awvsi04ysb,31hq4x3t3wn9ibpbxaqd58pomjdslq,pv2xPYPf,2020-0188,2020-11-16,23:22:08,23:45:06,NA,incomplete,225,gender,3,1,left,C_F_05.jpg,A_F_09.jpg,C_M_07.jpg,left,734.3150000015739,true,high,NA,NA,NA,NA,NA,NA,NA,false
pv2xPYPf,3pgqrazx15xrvqygpna1awvsi04ysb,31hq4x3t3wn9ibpbxaqd58pomjdslq,pv2xPYPf,2020-0188,2020-11-16,23:22:08,23:45:06,NA,incomplete,226,gender,3,1,right,C_F_07.jpg,C_M_16.jpg,A_F_02.jpg,right,778.0500000009779,true,high,NA,NA,NA,NA,NA,NA,NA,false
pv2xPYPf,3pgqrazx15xrvqygpna1awvsi04ysb,31hq4x3t3wn9ibpbxaqd58pomjdslq,pv2xPYPf,2020-0188,2020-11-16,23:22:08,23:45:06,NA,incomplete,227,gender,3,1,right,C_F_13.jpg,C_M_09.jpg,A_F_02.jpg,right,655.970000006957,true,high,NA,NA,NA,NA,NA,NA,NA,false
pv2xPYPf,3pgqrazx15xrvqygpna1awvsi04ysb,31hq4x3t3wn9ibpbxaqd58pomjdslq,pv2xPYPf,2020-0188,2020-11-16,23:22:08,23:45:06,NA,incomplete,228,gender,3,1,right,C_M_09.jpg,C_F_01.jpg,A_M_15.jpg,right,689.9049999993294,true,high,NA,NA,NA,NA,NA,NA,NA,false
pv2xPYPf,3pgqrazx15xrvqygpna1awvsi04ysb,31hq4x3t3wn9ibpbxaqd58pomjdslq,pv2xPYPf,2020-0188,2020-11-16,23:22:08,23:45:06,NA,incomplete,229,gender,3,1,right,A_M_15.jpg,A_F_05.jpg,C_M_09.jpg,right,701.5200000023469,true,high,NA,NA,NA,NA,NA,NA,NA,false
pv2xPYPf,3pgqrazx15xrvqygpna1awvsi04ysb,31hq4x3t3wn9ibpbxaqd58pomjdslq,pv2xPYPf,2020-0188,2020-11-16,23:22:08,23:45:06,NA,incomplete,230,gender,3,0,left,C_M_02.jpg,A_M_13.jpg,C_F_01.jpg,left,798.365000002319,true,high,NA,NA,NA,NA,NA,NA,NA,false
pv2xPYPf,3pgqrazx15xrvqygpna1awvsi04ysb,31hq4x3t3wn9ibpbxaqd58pomjdslq,pv2xPYPf,2020-0188,2020-11-16,23:22:08,23:45:06,NA,incomplete,231,gender,3,1,right,C_F_15.jpg,C_M_12.jpg,A_F_03.jpg,right,1086.9600000004284,true,high,NA,NA,NA,NA,NA,NA,NA,false
pv2xPYPf,3pgqrazx15xrvqygpna1awvsi04ysb,31hq4x3t3wn9ibpbxaqd58pomjdslq,pv2xPYPf,2020-0188,2020-11-16,23:22:08,23:45:06,NA,incomplete,232,gender,3,0,right,C_M_15.jpg,C_F_04.jpg,A_M_05.jpg,right,699.4199999973644,true,high,NA,NA,NA,NA,NA,NA,NA,false
pv2xPYPf,3pgqrazx15xrvqygpna1awvsi04ysb,31hq4x3t3wn9ibpbxaqd58pomjdslq,pv2xPYPf,2020-0188,2020-11-16,23:22:08,23:45:06,NA,incomplete,233,gender,3,1,left,C_M_01.jpg,A_M_14.jpg,C_F_05.jpg,left,1100.2850000003818,true,high,NA,NA,NA,NA,NA,NA,NA,false
pv2xPYPf,3pgqrazx15xrvqygpna1awvsi04ysb,31hq4x3t3wn9ibpbxaqd58pomjdslq,pv2xPYPf,2020-0188,2020-11-16,23:22:08,23:45:06,NA,incomplete,234,gender,3,1,right,A_M_08.jpg,A_F_06.jpg,C_M_04.jpg,right,1081.3099999940023,true,high,NA,NA,NA,NA,NA,NA,NA,false
pv2xPYPf,3pgqrazx15xrvqygpna1awvsi04ysb,31hq4x3t3wn9ibpbxaqd58pomjdslq,pv2xPYPf,2020-0188,2020-11-16,23:22:08,23:45:06,NA,incomplete,235,gender,3,1,right,C_M_08.jpg,C_F_07.jpg,A_M_04.jpg,right,640.1700000059791,true,high,NA,NA,NA,NA,NA,NA,NA,false
pv2xPYPf,3pgqrazx15xrvqygpna1awvsi04ysb,31hq4x3t3wn9ibpbxaqd58pomjdslq,pv2xPYPf,2020-0188,2020-11-16,23:22:08,23:45:06,NA,incomplete,236,gender,3,1,left,C_F_15.jpg,A_F_07.jpg,C_M_12.jpg,left,662.8450000062585,true,high,NA,NA,NA,NA,NA,NA,NA,false
pv2xPYPf,3pgqrazx15xrvqygpna1awvsi04ysb,31hq4x3t3wn9ibpbxaqd58pomjdslq,pv2xPYPf,2020-0188,2020-11-16,23:22:08,23:45:06,NA,incomplete,237,gender,3,0,right,C_M_15.jpg,C_F_03.jpg,A_M_02.jpg,right,627.8499999970663,true,high,NA,NA,NA,NA,NA,NA,NA,false
pv2xPYPf,3pgqrazx15xrvqygpna1awvsi04ysb,31hq4x3t3wn9ibpbxaqd58pomjdslq,pv2xPYPf,2020-0188,2020-11-16,23:22:08,23:45:06,NA,incomplete,238,gender,3,1,left,A_F_08.jpg,C_F_11.jpg,A_M_07.jpg,left,747.8349999948405,true,high,NA,NA,NA,NA,NA,NA,NA,false
pv2xPYPf,3pgqrazx15xrvqygpna1awvsi04ysb,31hq4x3t3wn9ibpbxaqd58pomjdslq,pv2xPYPf,2020-0188,2020-11-16,23:22:08,23:45:06,NA,incomplete,239,gender,3,1,right,A_M_05.jpg,A_F_02.jpg,C_M_07.jpg,right,810.9149999946821,true,high,NA,NA,NA,NA,NA,NA,NA,false
pv2xPYPf,3pgqrazx15xrvqygpna1awvsi04ysb,31hq4x3t3wn9ibpbxaqd58pomjdslq,pv2xPYPf,2020-0188,2020-11-16,23:22:08,23:45:06,NA,NA,instruction example,number,NA,NA,NA,Red_Circle_Chess_1.jpg,Blue_Triangle_Grid_1.jpg,Green_Star_Chess_4.jpg,NA,NA,NA,NA,NA,NA,NA,NA,NA,NA,NA,undefined
pv2xPYPf,3pgqrazx15xrvqygpna1awvsi04ysb,31hq4x3t3wn9ibpbxaqd58pomjdslq,pv2xPYPf,2020-0188,2020-11-16,23:22:08,23:45:06,NA,NA,instruction example,number,NA,NA,NA,Blue_Triangle_Chess_4.jpg,Green_Star_Chess_2.jpg,Red_Circle_Stripes_4.jpg,NA,NA,NA,NA,NA,NA,NA,NA,NA,NA,NA,undefined
pv2xPYPf,3pgqrazx15xrvqygpna1awvsi04ysb,31hq4x3t3wn9ibpbxaqd58pomjdslq,pv2xPYPf,2020-0188,2020-11-16,23:22:08,23:45:06,NA,NA,instruction example,number,NA,NA,NA,C_M_05.jpg,C_F_03.jpg,A_M_06.jpg,NA,NA,NA,NA,NA,NA,NA,NA,NA,NA,NA,undefined
pv2xPYPf,3pgqrazx15xrvqygpna1awvsi04ysb,31hq4x3t3wn9ibpbxaqd58pomjdslq,pv2xPYPf,2020-0188,2020-11-16,23:22:08,23:45:06,NA,NA,instruction example,number,NA,NA,NA,C_M_15.jpg,A_M_02.jpg,C_F_07.jpg,NA,NA,NA,NA,NA,NA,NA,NA,NA,NA,NA,undefined
pv2xPYPf,3pgqrazx15xrvqygpna1awvsi04ysb,31hq4x3t3wn9ibpbxaqd58pomjdslq,pv2xPYPf,2020-0188,2020-11-16,23:22:08,23:45:06,1326992.809999996,1380182.8800000004,NA,NA,NA,NA,NA,NA,NA,NA,NA,NA,NA,NA,36,Multiracial,Male,Multiple Ethnicities,no,yes,no,undefined
