workerId,hitId,assignmentId,subject,studyid,exp_date,exp_start,exp_end,time_start,time_end,trial,type,sequence,reward_validity,answer,image_top,image_left,image_right,response,response_time,response_acc,volatility,practice
xSGxNlfR,3y3czjszan6hsnojzw5z9ps3vnar5b,31lm9edvop567896mtxeqz2pzkdnj0,xSGxNlfR,2020-0188,2020-06-04,15:05:03,15:19:10,NA,incomplete,0,shape,0,1,left,Green_Triangle_Chess_1.jpg,Red_Triangle_Stripes_3.jpg,Purple_Circle_Chess_4.jpg,left,1049.5649999938905,true,NA,true
xSGxNlfR,3y3czjszan6hsnojzw5z9ps3vnar5b,31lm9edvop567896mtxeqz2pzkdnj0,xSGxNlfR,2020-0188,2020-06-04,15:05:03,15:19:10,NA,incomplete,1,shape,0,1,right,Red_Circle_Stripes_3.jpg,Purple_Star_Stripes_2.jpg,Blue_Circle_Grid_4.jpg,right,671.3100000051782,true,NA,true
xSGxNlfR,3y3czjszan6hsnojzw5z9ps3vnar5b,31lm9edvop567896mtxeqz2pzkdnj0,xSGxNlfR,2020-0188,2020-06-04,15:05:03,15:19:10,NA,incomplete,2,shape,0,0,right,Red_Triangle_Stripes_2.jpg,Purple_Plus_Stripes_3.jpg,Green_Triangle_Dots_1.jpg,right,639.195000010659,true,NA,true
xSGxNlfR,3y3czjszan6hsnojzw5z9ps3vnar5b,31lm9edvop567896mtxeqz2pzkdnj0,xSGxNlfR,2020-0188,2020-06-04,15:05:03,15:19:10,NA,incomplete,3,shape,0,1,right,Red_Plus_Stripes_4.jpg,Green_Triangle_Stripes_1.jpg,Blue_Plus_Dots_3.jpg,right,662.3099999997066,true,NA,true
xSGxNlfR,3y3czjszan6hsnojzw5z9ps3vnar5b,31lm9edvop567896mtxeqz2pzkdnj0,xSGxNlfR,2020-0188,2020-06-04,15:05:03,15:19:10,NA,incomplete,4,shape,0,1,left,Red_Circle_Dots_3.jpg,Blue_Circle_Chess_4.jpg,Purple_Star_Dots_1.jpg,left,614.0850000083447,true,NA,true
xSGxNlfR,3y3czjszan6hsnojzw5z9ps3vnar5b,31lm9edvop567896mtxeqz2pzkdnj0,xSGxNlfR,2020-0188,2020-06-04,15:05:03,15:19:10,NA,incomplete,5,shape,0,1,right,Blue_Circle_Grid_4.jpg,Green_Triangle_Grid_2.jpg,Purple_Circle_Stripes_3.jpg,right,534.444999997504,true,NA,true
xSGxNlfR,3y3czjszan6hsnojzw5z9ps3vnar5b,31lm9edvop567896mtxeqz2pzkdnj0,xSGxNlfR,2020-0188,2020-06-04,15:05:03,15:19:10,NA,incomplete,6,shape,0,1,left,Purple_Plus_Stripes_2.jpg,Blue_Plus_Grid_1.jpg,Red_Star_Stripes_3.jpg,left,642.0749999961117,true,NA,true
xSGxNlfR,3y3czjszan6hsnojzw5z9ps3vnar5b,31lm9edvop567896mtxeqz2pzkdnj0,xSGxNlfR,2020-0188,2020-06-04,15:05:03,15:19:10,NA,incomplete,7,shape,0,1,left,Green_Plus_Chess_1.jpg,Red_Plus_Grid_4.jpg,Purple_Triangle_Chess_2.jpg,left,680.7600000029197,true,NA,true
xSGxNlfR,3y3czjszan6hsnojzw5z9ps3vnar5b,31lm9edvop567896mtxeqz2pzkdnj0,xSGxNlfR,2020-0188,2020-06-04,15:05:03,15:19:10,NA,incomplete,8,shape,0,1,left,Blue_Circle_Grid_3.jpg,Green_Circle_Chess_2.jpg,Purple_Triangle_Grid_1.jpg,left,603.1849999999395,true,NA,true
xSGxNlfR,3y3czjszan6hsnojzw5z9ps3vnar5b,31lm9edvop567896mtxeqz2pzkdnj0,xSGxNlfR,2020-0188,2020-06-04,15:05:03,15:19:10,NA,incomplete,9,shape,0,1,right,Green_Triangle_Stripes_2.jpg,Red_Plus_Stripes_4.jpg,Purple_Triangle_Grid_3.jpg,right,524.5649999997113,true,NA,true
xSGxNlfR,3y3czjszan6hsnojzw5z9ps3vnar5b,31lm9edvop567896mtxeqz2pzkdnj0,xSGxNlfR,2020-0188,2020-06-04,15:05:03,15:19:10,NA,incomplete,10,shape,0,0,left,Red_Triangle_Grid_1.jpg,Green_Triangle_Dots_2.jpg,Blue_Star_Grid_3.jpg,left,571.4049999951385,true,NA,true
xSGxNlfR,3y3czjszan6hsnojzw5z9ps3vnar5b,31lm9edvop567896mtxeqz2pzkdnj0,xSGxNlfR,2020-0188,2020-06-04,15:05:03,15:19:10,NA,incomplete,11,shape,0,0,left,Blue_Star_Stripes_3.jpg,Green_Star_Dots_2.jpg,Purple_Plus_Stripes_1.jpg,left,610.9500000020489,true,NA,true
xSGxNlfR,3y3czjszan6hsnojzw5z9ps3vnar5b,31lm9edvop567896mtxeqz2pzkdnj0,xSGxNlfR,2020-0188,2020-06-04,15:05:03,15:19:10,NA,incomplete,12,shape,0,1,right,Red_Circle_Chess_4.jpg,Blue_Triangle_Chess_3.jpg,Green_Circle_Grid_2.jpg,right,772.5449999998091,true,NA,true
xSGxNlfR,3y3czjszan6hsnojzw5z9ps3vnar5b,31lm9edvop567896mtxeqz2pzkdnj0,xSGxNlfR,2020-0188,2020-06-04,15:05:03,15:19:10,NA,incomplete,13,shape,0,0,right,Purple_Circle_Chess_4.jpg,Blue_Plus_Chess_3.jpg,Red_Circle_Stripes_2.jpg,right,580.1449999999022,true,NA,true
xSGxNlfR,3y3czjszan6hsnojzw5z9ps3vnar5b,31lm9edvop567896mtxeqz2pzkdnj0,xSGxNlfR,2020-0188,2020-06-04,15:05:03,15:19:10,NA,incomplete,14,shape,0,1,left,Purple_Circle_Stripes_2.jpg,Blue_Circle_Dots_3.jpg,Green_Star_Stripes_4.jpg,left,545.9649999975227,true,NA,true
xSGxNlfR,3y3czjszan6hsnojzw5z9ps3vnar5b,31lm9edvop567896mtxeqz2pzkdnj0,xSGxNlfR,2020-0188,2020-06-04,15:05:03,15:19:10,NA,incomplete,15,shape,0,1,left,Red_Triangle_Chess_3.jpg,Blue_Triangle_Dots_1.jpg,Purple_Plus_Chess_2.jpg,left,702.9849999962607,true,NA,true
xSGxNlfR,3y3czjszan6hsnojzw5z9ps3vnar5b,31lm9edvop567896mtxeqz2pzkdnj0,xSGxNlfR,2020-0188,2020-06-04,15:05:03,15:19:10,NA,incomplete,16,shape,0,1,right,Green_Plus_Stripes_4.jpg,Red_Circle_Stripes_2.jpg,Purple_Plus_Chess_3.jpg,right,525.5750000069384,true,NA,true
xSGxNlfR,3y3czjszan6hsnojzw5z9ps3vnar5b,31lm9edvop567896mtxeqz2pzkdnj0,xSGxNlfR,2020-0188,2020-06-04,15:05:03,15:19:10,NA,incomplete,17,shape,0,1,left,Blue_Circle_Chess_3.jpg,Purple_Circle_Grid_2.jpg,Red_Star_Chess_4.jpg,left,538.685000006808,true,NA,true
xSGxNlfR,3y3czjszan6hsnojzw5z9ps3vnar5b,31lm9edvop567896mtxeqz2pzkdnj0,xSGxNlfR,2020-0188,2020-06-04,15:05:03,15:19:10,NA,incomplete,18,shape,0,1,right,Green_Star_Chess_1.jpg,Blue_Triangle_Chess_4.jpg,Red_Star_Grid_2.jpg,right,509.3449999985751,true,NA,true
xSGxNlfR,3y3czjszan6hsnojzw5z9ps3vnar5b,31lm9edvop567896mtxeqz2pzkdnj0,xSGxNlfR,2020-0188,2020-06-04,15:05:03,15:19:10,NA,incomplete,19,shape,0,1,right,Blue_Circle_Grid_3.jpg,Green_Star_Grid_2.jpg,Purple_Circle_Chess_1.jpg,right,527.3349999915808,true,NA,true
xSGxNlfR,3y3czjszan6hsnojzw5z9ps3vnar5b,31lm9edvop567896mtxeqz2pzkdnj0,xSGxNlfR,2020-0188,2020-06-04,15:05:03,15:19:10,NA,incomplete,20,filling,1,1,left,Blue_Triangle_Dots_4.jpg,Green_Circle_Dots_2.jpg,Red_Triangle_Grid_3.jpg,right,501.19500000437256,false,NA,true
xSGxNlfR,3y3czjszan6hsnojzw5z9ps3vnar5b,31lm9edvop567896mtxeqz2pzkdnj0,xSGxNlfR,2020-0188,2020-06-04,15:05:03,15:19:10,NA,incomplete,21,filling,1,1,right,Green_Triangle_Chess_2.jpg,Purple_Triangle_Grid_3.jpg,Blue_Plus_Chess_4.jpg,left,494.2450000089593,false,NA,true
xSGxNlfR,3y3czjszan6hsnojzw5z9ps3vnar5b,31lm9edvop567896mtxeqz2pzkdnj0,xSGxNlfR,2020-0188,2020-06-04,15:05:03,15:19:10,NA,incomplete,22,filling,1,1,left,Blue_Plus_Dots_3.jpg,Green_Circle_Dots_2.jpg,Red_Plus_Chess_4.jpg,right,559.7449999913806,false,NA,true
xSGxNlfR,3y3czjszan6hsnojzw5z9ps3vnar5b,31lm9edvop567896mtxeqz2pzkdnj0,xSGxNlfR,2020-0188,2020-06-04,15:05:03,15:19:10,NA,incomplete,23,filling,1,1,left,Blue_Circle_Chess_2.jpg,Purple_Triangle_Chess_4.jpg,Red_Circle_Dots_1.jpg,left,1680.0249999942025,true,NA,true
xSGxNlfR,3y3czjszan6hsnojzw5z9ps3vnar5b,31lm9edvop567896mtxeqz2pzkdnj0,xSGxNlfR,2020-0188,2020-06-04,15:05:03,15:19:10,NA,incomplete,24,filling,1,1,right,Green_Circle_Grid_1.jpg,Purple_Circle_Dots_2.jpg,Red_Triangle_Grid_3.jpg,right,825.5099999951199,true,NA,true
xSGxNlfR,3y3czjszan6hsnojzw5z9ps3vnar5b,31lm9edvop567896mtxeqz2pzkdnj0,xSGxNlfR,2020-0188,2020-06-04,15:05:03,15:19:10,NA,incomplete,25,filling,1,0,right,Purple_Plus_Chess_1.jpg,Green_Plus_Dots_2.jpg,Red_Star_Chess_4.jpg,right,1429.9450000107754,true,NA,true
xSGxNlfR,3y3czjszan6hsnojzw5z9ps3vnar5b,31lm9edvop567896mtxeqz2pzkdnj0,xSGxNlfR,2020-0188,2020-06-04,15:05:03,15:19:10,NA,incomplete,26,filling,1,1,right,Blue_Circle_Chess_1.jpg,Green_Circle_Stripes_2.jpg,Purple_Plus_Chess_3.jpg,right,825.1599999930477,true,NA,true
xSGxNlfR,3y3czjszan6hsnojzw5z9ps3vnar5b,31lm9edvop567896mtxeqz2pzkdnj0,xSGxNlfR,2020-0188,2020-06-04,15:05:03,15:19:10,NA,incomplete,27,filling,1,1,left,Blue_Plus_Stripes_4.jpg,Purple_Circle_Stripes_3.jpg,Green_Plus_Dots_1.jpg,left,965.9499999979744,true,NA,true
xSGxNlfR,3y3czjszan6hsnojzw5z9ps3vnar5b,31lm9edvop567896mtxeqz2pzkdnj0,xSGxNlfR,2020-0188,2020-06-04,15:05:03,15:19:10,NA,incomplete,28,filling,1,1,right,Blue_Star_Dots_3.jpg,Green_Star_Grid_2.jpg,Purple_Triangle_Dots_1.jpg,right,871.2299999897368,true,NA,true
xSGxNlfR,3y3czjszan6hsnojzw5z9ps3vnar5b,31lm9edvop567896mtxeqz2pzkdnj0,xSGxNlfR,2020-0188,2020-06-04,15:05:03,15:19:10,NA,incomplete,29,filling,1,0,right,Green_Star_Dots_3.jpg,Purple_Star_Grid_4.jpg,Blue_Plus_Dots_1.jpg,right,1135.3450000024168,true,NA,true
xSGxNlfR,3y3czjszan6hsnojzw5z9ps3vnar5b,31lm9edvop567896mtxeqz2pzkdnj0,xSGxNlfR,2020-0188,2020-06-04,15:05:03,15:19:10,NA,incomplete,30,filling,1,1,left,Blue_Star_Chess_2.jpg,Red_Plus_Chess_1.jpg,Green_Star_Grid_4.jpg,left,934.5900000043912,true,NA,true
xSGxNlfR,3y3czjszan6hsnojzw5z9ps3vnar5b,31lm9edvop567896mtxeqz2pzkdnj0,xSGxNlfR,2020-0188,2020-06-04,15:05:03,15:19:10,NA,incomplete,31,filling,1,0,right,Blue_Star_Stripes_2.jpg,Purple_Star_Grid_4.jpg,Green_Circle_Stripes_3.jpg,right,933.7200000009034,true,NA,true
xSGxNlfR,3y3czjszan6hsnojzw5z9ps3vnar5b,31lm9edvop567896mtxeqz2pzkdnj0,xSGxNlfR,2020-0188,2020-06-04,15:05:03,15:19:10,NA,incomplete,32,filling,1,1,left,Blue_Star_Dots_2.jpg,Red_Circle_Dots_4.jpg,Purple_Star_Stripes_1.jpg,left,750.9199999913108,true,NA,true
xSGxNlfR,3y3czjszan6hsnojzw5z9ps3vnar5b,31lm9edvop567896mtxeqz2pzkdnj0,xSGxNlfR,2020-0188,2020-06-04,15:05:03,15:19:10,NA,incomplete,33,filling,1,1,right,Red_Triangle_Stripes_1.jpg,Purple_Triangle_Dots_3.jpg,Blue_Circle_Stripes_2.jpg,right,753.1600000074832,true,NA,true
xSGxNlfR,3y3czjszan6hsnojzw5z9ps3vnar5b,31lm9edvop567896mtxeqz2pzkdnj0,xSGxNlfR,2020-0188,2020-06-04,15:05:03,15:19:10,NA,incomplete,34,filling,1,1,left,Purple_Star_Stripes_2.jpg,Blue_Plus_Stripes_1.jpg,Red_Star_Dots_3.jpg,left,746.4299999992363,true,NA,true
xSGxNlfR,3y3czjszan6hsnojzw5z9ps3vnar5b,31lm9edvop567896mtxeqz2pzkdnj0,xSGxNlfR,2020-0188,2020-06-04,15:05:03,15:19:10,NA,incomplete,35,filling,1,1,right,Purple_Star_Chess_4.jpg,Blue_Star_Stripes_3.jpg,Red_Circle_Chess_2.jpg,right,890.9550000098534,true,NA,true
xSGxNlfR,3y3czjszan6hsnojzw5z9ps3vnar5b,31lm9edvop567896mtxeqz2pzkdnj0,xSGxNlfR,2020-0188,2020-06-04,15:05:03,15:19:10,NA,incomplete,36,filling,1,0,right,Green_Triangle_Chess_2.jpg,Red_Triangle_Dots_4.jpg,Purple_Circle_Chess_1.jpg,right,722.7350000030128,true,NA,true
xSGxNlfR,3y3czjszan6hsnojzw5z9ps3vnar5b,31lm9edvop567896mtxeqz2pzkdnj0,xSGxNlfR,2020-0188,2020-06-04,15:05:03,15:19:10,NA,incomplete,37,filling,1,1,right,Red_Plus_Dots_3.jpg,Purple_Plus_Chess_4.jpg,Green_Star_Dots_1.jpg,right,817.7849999919999,true,NA,true
xSGxNlfR,3y3czjszan6hsnojzw5z9ps3vnar5b,31lm9edvop567896mtxeqz2pzkdnj0,xSGxNlfR,2020-0188,2020-06-04,15:05:03,15:19:10,NA,incomplete,38,filling,1,1,right,Purple_Triangle_Grid_2.jpg,Blue_Triangle_Dots_1.jpg,Green_Plus_Grid_3.jpg,right,724.4300000020303,true,NA,true
xSGxNlfR,3y3czjszan6hsnojzw5z9ps3vnar5b,31lm9edvop567896mtxeqz2pzkdnj0,xSGxNlfR,2020-0188,2020-06-04,15:05:03,15:19:10,NA,incomplete,39,filling,1,1,left,Purple_Circle_Grid_2.jpg,Red_Star_Grid_1.jpg,Blue_Circle_Stripes_3.jpg,left,771.1449999915203,true,NA,true
xSGxNlfR,3y3czjszan6hsnojzw5z9ps3vnar5b,31lm9edvop567896mtxeqz2pzkdnj0,xSGxNlfR,2020-0188,2020-06-04,15:05:03,15:19:10,NA,incomplete,0,shape,0,1,left,Purple_Circle_Chess_3.jpg,Red_Circle_Grid_2.jpg,Blue_Triangle_Chess_1.jpg,left,1643.5899999924004,true,high,false
xSGxNlfR,3y3czjszan6hsnojzw5z9ps3vnar5b,31lm9edvop567896mtxeqz2pzkdnj0,xSGxNlfR,2020-0188,2020-06-04,15:05:03,15:19:10,NA,incomplete,1,shape,0,1,right,Green_Circle_Dots_2.jpg,Red_Star_Dots_4.jpg,Purple_Circle_Chess_3.jpg,right,549.1949999995995,true,high,false
xSGxNlfR,3y3czjszan6hsnojzw5z9ps3vnar5b,31lm9edvop567896mtxeqz2pzkdnj0,xSGxNlfR,2020-0188,2020-06-04,15:05:03,15:19:10,NA,incomplete,2,shape,0,0,right,Green_Triangle_Stripes_1.jpg,Blue_Plus_Stripes_3.jpg,Purple_Triangle_Dots_2.jpg,right,535.6749999918975,true,high,false
xSGxNlfR,3y3czjszan6hsnojzw5z9ps3vnar5b,31lm9edvop567896mtxeqz2pzkdnj0,xSGxNlfR,2020-0188,2020-06-04,15:05:03,15:19:10,NA,incomplete,3,shape,0,1,right,Purple_Triangle_Dots_4.jpg,Blue_Plus_Dots_1.jpg,Green_Triangle_Stripes_3.jpg,right,529.2049999989104,true,high,false
xSGxNlfR,3y3czjszan6hsnojzw5z9ps3vnar5b,31lm9edvop567896mtxeqz2pzkdnj0,xSGxNlfR,2020-0188,2020-06-04,15:05:03,15:19:10,NA,incomplete,4,shape,0,0,right,Blue_Circle_Dots_2.jpg,Green_Star_Dots_3.jpg,Purple_Circle_Stripes_4.jpg,right,593.7100000010105,true,high,false
xSGxNlfR,3y3czjszan6hsnojzw5z9ps3vnar5b,31lm9edvop567896mtxeqz2pzkdnj0,xSGxNlfR,2020-0188,2020-06-04,15:05:03,15:19:10,NA,incomplete,5,shape,0,1,right,Red_Triangle_Chess_3.jpg,Green_Circle_Chess_1.jpg,Purple_Triangle_Dots_2.jpg,right,660.4799999913666,true,high,false
xSGxNlfR,3y3czjszan6hsnojzw5z9ps3vnar5b,31lm9edvop567896mtxeqz2pzkdnj0,xSGxNlfR,2020-0188,2020-06-04,15:05:03,15:19:10,NA,incomplete,6,shape,0,1,left,Purple_Triangle_Dots_3.jpg,Blue_Triangle_Chess_1.jpg,Red_Plus_Dots_2.jpg,left,627.1750000014435,true,high,false
xSGxNlfR,3y3czjszan6hsnojzw5z9ps3vnar5b,31lm9edvop567896mtxeqz2pzkdnj0,xSGxNlfR,2020-0188,2020-06-04,15:05:03,15:19:10,NA,incomplete,7,shape,0,1,left,Purple_Circle_Dots_2.jpg,Blue_Circle_Stripes_3.jpg,Red_Triangle_Dots_1.jpg,left,520.0649999896996,true,high,false
xSGxNlfR,3y3czjszan6hsnojzw5z9ps3vnar5b,31lm9edvop567896mtxeqz2pzkdnj0,xSGxNlfR,2020-0188,2020-06-04,15:05:03,15:19:10,NA,incomplete,8,shape,0,1,right,Red_Star_Dots_3.jpg,Purple_Triangle_Dots_4.jpg,Blue_Star_Grid_2.jpg,right,491.9300000037765,true,high,false
xSGxNlfR,3y3czjszan6hsnojzw5z9ps3vnar5b,31lm9edvop567896mtxeqz2pzkdnj0,xSGxNlfR,2020-0188,2020-06-04,15:05:03,15:19:10,NA,incomplete,9,shape,0,1,right,Blue_Triangle_Chess_4.jpg,Green_Plus_Chess_3.jpg,Red_Triangle_Stripes_2.jpg,right,466.60999998857733,true,high,false
xSGxNlfR,3y3czjszan6hsnojzw5z9ps3vnar5b,31lm9edvop567896mtxeqz2pzkdnj0,xSGxNlfR,2020-0188,2020-06-04,15:05:03,15:19:10,NA,incomplete,10,filling,1,1,right,Blue_Plus_Grid_1.jpg,Red_Plus_Stripes_3.jpg,Green_Circle_Grid_2.jpg,left,541.639999995823,false,high,false
xSGxNlfR,3y3czjszan6hsnojzw5z9ps3vnar5b,31lm9edvop567896mtxeqz2pzkdnj0,xSGxNlfR,2020-0188,2020-06-04,15:05:03,15:19:10,NA,incomplete,11,filling,1,0,left,Red_Star_Grid_4.jpg,Blue_Plus_Grid_2.jpg,Purple_Star_Stripes_1.jpg,right,524.1899999964517,false,high,false
xSGxNlfR,3y3czjszan6hsnojzw5z9ps3vnar5b,31lm9edvop567896mtxeqz2pzkdnj0,xSGxNlfR,2020-0188,2020-06-04,15:05:03,15:19:10,NA,incomplete,12,filling,1,1,right,Purple_Circle_Chess_1.jpg,Green_Circle_Dots_3.jpg,Blue_Triangle_Chess_4.jpg,left,515.5500000109896,false,high,false
xSGxNlfR,3y3czjszan6hsnojzw5z9ps3vnar5b,31lm9edvop567896mtxeqz2pzkdnj0,xSGxNlfR,2020-0188,2020-06-04,15:05:03,15:19:10,NA,incomplete,13,filling,1,1,left,Blue_Circle_Dots_4.jpg,Purple_Triangle_Dots_2.jpg,Red_Circle_Grid_3.jpg,right,532.2049999958836,false,high,false
xSGxNlfR,3y3czjszan6hsnojzw5z9ps3vnar5b,31lm9edvop567896mtxeqz2pzkdnj0,xSGxNlfR,2020-0188,2020-06-04,15:05:03,15:19:10,NA,incomplete,14,filling,1,1,left,Red_Circle_Grid_4.jpg,Purple_Plus_Grid_3.jpg,Blue_Circle_Dots_1.jpg,left,1011.4449999964563,true,high,false
xSGxNlfR,3y3czjszan6hsnojzw5z9ps3vnar5b,31lm9edvop567896mtxeqz2pzkdnj0,xSGxNlfR,2020-0188,2020-06-04,15:05:03,15:19:10,NA,incomplete,15,filling,1,1,left,Green_Star_Grid_2.jpg,Red_Circle_Grid_4.jpg,Purple_Star_Chess_3.jpg,left,842.1349999989616,true,high,false
xSGxNlfR,3y3czjszan6hsnojzw5z9ps3vnar5b,31lm9edvop567896mtxeqz2pzkdnj0,xSGxNlfR,2020-0188,2020-06-04,15:05:03,15:19:10,NA,incomplete,16,filling,1,0,right,Red_Star_Chess_2.jpg,Green_Star_Grid_1.jpg,Purple_Circle_Chess_4.jpg,right,802.9249999963213,true,high,false
xSGxNlfR,3y3czjszan6hsnojzw5z9ps3vnar5b,31lm9edvop567896mtxeqz2pzkdnj0,xSGxNlfR,2020-0188,2020-06-04,15:05:03,15:19:10,NA,incomplete,17,filling,1,1,right,Purple_Star_Chess_4.jpg,Green_Star_Dots_1.jpg,Blue_Plus_Chess_2.jpg,right,686.4900000073249,true,high,false
xSGxNlfR,3y3czjszan6hsnojzw5z9ps3vnar5b,31lm9edvop567896mtxeqz2pzkdnj0,xSGxNlfR,2020-0188,2020-06-04,15:05:03,15:19:10,NA,incomplete,18,filling,1,1,right,Blue_Star_Dots_4.jpg,Red_Star_Chess_2.jpg,Purple_Circle_Dots_3.jpg,right,742.2499999956926,true,high,false
xSGxNlfR,3y3czjszan6hsnojzw5z9ps3vnar5b,31lm9edvop567896mtxeqz2pzkdnj0,xSGxNlfR,2020-0188,2020-06-04,15:05:03,15:19:10,NA,incomplete,19,filling,1,0,right,Red_Triangle_Chess_1.jpg,Blue_Triangle_Dots_4.jpg,Purple_Star_Chess_3.jpg,right,704.5149999903515,true,high,false
xSGxNlfR,3y3czjszan6hsnojzw5z9ps3vnar5b,31lm9edvop567896mtxeqz2pzkdnj0,xSGxNlfR,2020-0188,2020-06-04,15:05:03,15:19:10,NA,incomplete,20,shape,0,1,right,Purple_Star_Dots_2.jpg,Red_Circle_Dots_1.jpg,Green_Star_Stripes_4.jpg,left,814.1000000032363,false,high,false
xSGxNlfR,3y3czjszan6hsnojzw5z9ps3vnar5b,31lm9edvop567896mtxeqz2pzkdnj0,xSGxNlfR,2020-0188,2020-06-04,15:05:03,15:19:10,NA,incomplete,21,shape,0,1,right,Blue_Plus_Grid_1.jpg,Green_Triangle_Grid_2.jpg,Red_Plus_Stripes_3.jpg,right,589.8250000027474,true,high,false
xSGxNlfR,3y3czjszan6hsnojzw5z9ps3vnar5b,31lm9edvop567896mtxeqz2pzkdnj0,xSGxNlfR,2020-0188,2020-06-04,15:05:03,15:19:10,NA,incomplete,22,shape,0,0,right,Red_Circle_Dots_1.jpg,Purple_Triangle_Dots_4.jpg,Green_Circle_Chess_2.jpg,right,609.9149999936344,true,high,false
xSGxNlfR,3y3czjszan6hsnojzw5z9ps3vnar5b,31lm9edvop567896mtxeqz2pzkdnj0,xSGxNlfR,2020-0188,2020-06-04,15:05:03,15:19:10,NA,incomplete,23,shape,0,0,right,Blue_Circle_Dots_1.jpg,Purple_Star_Dots_4.jpg,Green_Circle_Chess_3.jpg,right,465.6050000048708,true,high,false
xSGxNlfR,3y3czjszan6hsnojzw5z9ps3vnar5b,31lm9edvop567896mtxeqz2pzkdnj0,xSGxNlfR,2020-0188,2020-06-04,15:05:03,15:19:10,NA,incomplete,24,shape,0,0,left,Green_Star_Grid_1.jpg,Red_Star_Dots_4.jpg,Blue_Triangle_Grid_2.jpg,right,696.8350000097416,false,high,false
xSGxNlfR,3y3czjszan6hsnojzw5z9ps3vnar5b,31lm9edvop567896mtxeqz2pzkdnj0,xSGxNlfR,2020-0188,2020-06-04,15:05:03,15:19:10,NA,incomplete,25,shape,0,1,left,Purple_Plus_Stripes_4.jpg,Blue_Plus_Dots_2.jpg,Red_Triangle_Stripes_1.jpg,right,728.384999994887,false,high,false
xSGxNlfR,3y3czjszan6hsnojzw5z9ps3vnar5b,31lm9edvop567896mtxeqz2pzkdnj0,xSGxNlfR,2020-0188,2020-06-04,15:05:03,15:19:10,NA,incomplete,26,shape,0,1,right,Blue_Plus_Dots_1.jpg,Green_Triangle_Dots_3.jpg,Red_Plus_Chess_2.jpg,left,608.8650000019697,false,high,false
xSGxNlfR,3y3czjszan6hsnojzw5z9ps3vnar5b,31lm9edvop567896mtxeqz2pzkdnj0,xSGxNlfR,2020-0188,2020-06-04,15:05:03,15:19:10,NA,incomplete,27,shape,0,1,left,Green_Triangle_Stripes_1.jpg,Blue_Triangle_Dots_4.jpg,Purple_Circle_Stripes_2.jpg,right,580.5799999943702,false,high,false
xSGxNlfR,3y3czjszan6hsnojzw5z9ps3vnar5b,31lm9edvop567896mtxeqz2pzkdnj0,xSGxNlfR,2020-0188,2020-06-04,15:05:03,15:19:10,NA,incomplete,28,shape,0,1,left,Purple_Plus_Grid_3.jpg,Green_Plus_Dots_4.jpg,Blue_Circle_Grid_1.jpg,left,1399.5399999985239,true,high,false
xSGxNlfR,3y3czjszan6hsnojzw5z9ps3vnar5b,31lm9edvop567896mtxeqz2pzkdnj0,xSGxNlfR,2020-0188,2020-06-04,15:05:03,15:19:10,NA,incomplete,29,shape,0,1,left,Green_Star_Dots_2.jpg,Red_Star_Grid_4.jpg,Purple_Triangle_Dots_3.jpg,left,518.4650000010151,true,high,false
xSGxNlfR,3y3czjszan6hsnojzw5z9ps3vnar5b,31lm9edvop567896mtxeqz2pzkdnj0,xSGxNlfR,2020-0188,2020-06-04,15:05:03,15:19:10,NA,incomplete,30,filling,1,0,right,Purple_Plus_Dots_1.jpg,Blue_Plus_Stripes_2.jpg,Red_Circle_Dots_3.jpg,left,552.0150000083959,false,high,false
xSGxNlfR,3y3czjszan6hsnojzw5z9ps3vnar5b,31lm9edvop567896mtxeqz2pzkdnj0,xSGxNlfR,2020-0188,2020-06-04,15:05:03,15:19:10,NA,incomplete,31,filling,1,1,left,Green_Circle_Chess_1.jpg,Red_Plus_Chess_4.jpg,Blue_Circle_Stripes_3.jpg,right,492.9800000099931,false,high,false
xSGxNlfR,3y3czjszan6hsnojzw5z9ps3vnar5b,31lm9edvop567896mtxeqz2pzkdnj0,xSGxNlfR,2020-0188,2020-06-04,15:05:03,15:19:10,NA,incomplete,32,filling,1,1,right,Purple_Circle_Grid_1.jpg,Blue_Circle_Chess_3.jpg,Green_Triangle_Grid_4.jpg,left,482.7999999979511,false,high,false
xSGxNlfR,3y3czjszan6hsnojzw5z9ps3vnar5b,31lm9edvop567896mtxeqz2pzkdnj0,xSGxNlfR,2020-0188,2020-06-04,15:05:03,15:19:10,NA,incomplete,33,filling,1,0,right,Green_Triangle_Dots_2.jpg,Purple_Triangle_Grid_4.jpg,Red_Plus_Dots_1.jpg,right,913.2249999966007,true,high,false
xSGxNlfR,3y3czjszan6hsnojzw5z9ps3vnar5b,31lm9edvop567896mtxeqz2pzkdnj0,xSGxNlfR,2020-0188,2020-06-04,15:05:03,15:19:10,NA,incomplete,34,filling,1,1,right,Red_Star_Stripes_3.jpg,Purple_Star_Dots_1.jpg,Blue_Triangle_Stripes_2.jpg,left,659.2599999858066,false,high,false
xSGxNlfR,3y3czjszan6hsnojzw5z9ps3vnar5b,31lm9edvop567896mtxeqz2pzkdnj0,xSGxNlfR,2020-0188,2020-06-04,15:05:03,15:19:10,NA,incomplete,35,filling,1,1,right,Purple_Circle_Dots_3.jpg,Green_Circle_Grid_2.jpg,Blue_Triangle_Dots_4.jpg,left,536.9700000010198,false,high,false
xSGxNlfR,3y3czjszan6hsnojzw5z9ps3vnar5b,31lm9edvop567896mtxeqz2pzkdnj0,xSGxNlfR,2020-0188,2020-06-04,15:05:03,15:19:10,NA,incomplete,36,filling,1,1,right,Blue_Triangle_Dots_1.jpg,Purple_Triangle_Chess_2.jpg,Green_Plus_Dots_4.jpg,right,769.5200000016484,true,high,false
xSGxNlfR,3y3czjszan6hsnojzw5z9ps3vnar5b,31lm9edvop567896mtxeqz2pzkdnj0,xSGxNlfR,2020-0188,2020-06-04,15:05:03,15:19:10,NA,incomplete,37,filling,1,0,right,Green_Plus_Dots_2.jpg,Red_Plus_Stripes_1.jpg,Purple_Star_Dots_3.jpg,right,734.1400000004796,true,high,false
xSGxNlfR,3y3czjszan6hsnojzw5z9ps3vnar5b,31lm9edvop567896mtxeqz2pzkdnj0,xSGxNlfR,2020-0188,2020-06-04,15:05:03,15:19:10,NA,incomplete,38,filling,1,1,left,Green_Circle_Stripes_2.jpg,Purple_Plus_Stripes_4.jpg,Red_Circle_Chess_3.jpg,left,643.2599999970989,true,high,false
xSGxNlfR,3y3czjszan6hsnojzw5z9ps3vnar5b,31lm9edvop567896mtxeqz2pzkdnj0,xSGxNlfR,2020-0188,2020-06-04,15:05:03,15:19:10,NA,incomplete,39,filling,1,0,right,Purple_Circle_Grid_3.jpg,Green_Circle_Chess_2.jpg,Blue_Star_Grid_4.jpg,left,673.2049999991432,false,high,false
xSGxNlfR,3y3czjszan6hsnojzw5z9ps3vnar5b,31lm9edvop567896mtxeqz2pzkdnj0,xSGxNlfR,2020-0188,2020-06-04,15:05:03,15:19:10,NA,incomplete,40,shape,0,1,right,Red_Circle_Chess_2.jpg,Green_Triangle_Chess_1.jpg,Purple_Circle_Stripes_3.jpg,left,818.6600000044564,false,high,false
xSGxNlfR,3y3czjszan6hsnojzw5z9ps3vnar5b,31lm9edvop567896mtxeqz2pzkdnj0,xSGxNlfR,2020-0188,2020-06-04,15:05:03,15:19:10,NA,incomplete,41,shape,0,1,left,Blue_Plus_Grid_2.jpg,Red_Plus_Dots_1.jpg,Green_Star_Grid_3.jpg,right,912.5599999970291,false,high,false
xSGxNlfR,3y3czjszan6hsnojzw5z9ps3vnar5b,31lm9edvop567896mtxeqz2pzkdnj0,xSGxNlfR,2020-0188,2020-06-04,15:05:03,15:19:10,NA,incomplete,42,shape,0,1,right,Purple_Star_Stripes_3.jpg,Green_Circle_Stripes_4.jpg,Red_Star_Dots_2.jpg,right,582.9550000053132,true,high,false
xSGxNlfR,3y3czjszan6hsnojzw5z9ps3vnar5b,31lm9edvop567896mtxeqz2pzkdnj0,xSGxNlfR,2020-0188,2020-06-04,15:05:03,15:19:10,NA,incomplete,43,shape,0,1,left,Green_Circle_Stripes_1.jpg,Blue_Circle_Chess_4.jpg,Purple_Triangle_Stripes_2.jpg,left,606.7199999961304,true,high,false
xSGxNlfR,3y3czjszan6hsnojzw5z9ps3vnar5b,31lm9edvop567896mtxeqz2pzkdnj0,xSGxNlfR,2020-0188,2020-06-04,15:05:03,15:19:10,NA,incomplete,44,shape,0,1,left,Blue_Star_Stripes_4.jpg,Green_Star_Chess_1.jpg,Red_Triangle_Stripes_3.jpg,left,594.295000002603,true,high,false
xSGxNlfR,3y3czjszan6hsnojzw5z9ps3vnar5b,31lm9edvop567896mtxeqz2pzkdnj0,xSGxNlfR,2020-0188,2020-06-04,15:05:03,15:19:10,NA,incomplete,45,shape,0,1,left,Red_Star_Dots_4.jpg,Blue_Star_Stripes_3.jpg,Purple_Circle_Dots_1.jpg,left,590.2950000017881,true,high,false
xSGxNlfR,3y3czjszan6hsnojzw5z9ps3vnar5b,31lm9edvop567896mtxeqz2pzkdnj0,xSGxNlfR,2020-0188,2020-06-04,15:05:03,15:19:10,NA,incomplete,46,shape,0,1,left,Red_Plus_Stripes_3.jpg,Blue_Plus_Grid_4.jpg,Green_Circle_Stripes_1.jpg,left,636.4049999974668,true,high,false
xSGxNlfR,3y3czjszan6hsnojzw5z9ps3vnar5b,31lm9edvop567896mtxeqz2pzkdnj0,xSGxNlfR,2020-0188,2020-06-04,15:05:03,15:19:10,NA,incomplete,47,shape,0,1,right,Green_Plus_Stripes_1.jpg,Blue_Star_Stripes_4.jpg,Red_Plus_Dots_2.jpg,right,637.0349999924656,true,high,false
xSGxNlfR,3y3czjszan6hsnojzw5z9ps3vnar5b,31lm9edvop567896mtxeqz2pzkdnj0,xSGxNlfR,2020-0188,2020-06-04,15:05:03,15:19:10,NA,incomplete,48,shape,0,0,left,Blue_Triangle_Grid_2.jpg,Green_Triangle_Stripes_4.jpg,Red_Plus_Grid_1.jpg,left,507.63999999617226,true,high,false
xSGxNlfR,3y3czjszan6hsnojzw5z9ps3vnar5b,31lm9edvop567896mtxeqz2pzkdnj0,xSGxNlfR,2020-0188,2020-06-04,15:05:03,15:19:10,NA,incomplete,49,shape,0,1,right,Blue_Plus_Stripes_3.jpg,Purple_Star_Stripes_4.jpg,Red_Plus_Grid_1.jpg,right,596.2799999979325,true,high,false
xSGxNlfR,3y3czjszan6hsnojzw5z9ps3vnar5b,31lm9edvop567896mtxeqz2pzkdnj0,xSGxNlfR,2020-0188,2020-06-04,15:05:03,15:19:10,NA,incomplete,50,filling,1,1,left,Blue_Circle_Grid_2.jpg,Red_Star_Grid_4.jpg,Purple_Circle_Dots_1.jpg,right,493.28500000410713,false,high,false
xSGxNlfR,3y3czjszan6hsnojzw5z9ps3vnar5b,31lm9edvop567896mtxeqz2pzkdnj0,xSGxNlfR,2020-0188,2020-06-04,15:05:03,15:19:10,NA,incomplete,51,filling,1,1,right,Red_Triangle_Stripes_2.jpg,Blue_Triangle_Dots_1.jpg,Green_Star_Stripes_3.jpg,left,473.86500000720844,false,high,false
xSGxNlfR,3y3czjszan6hsnojzw5z9ps3vnar5b,31lm9edvop567896mtxeqz2pzkdnj0,xSGxNlfR,2020-0188,2020-06-04,15:05:03,15:19:10,NA,incomplete,52,filling,1,1,left,Red_Triangle_Chess_4.jpg,Blue_Star_Chess_1.jpg,Purple_Triangle_Grid_3.jpg,left,887.7899999934016,true,high,false
xSGxNlfR,3y3czjszan6hsnojzw5z9ps3vnar5b,31lm9edvop567896mtxeqz2pzkdnj0,xSGxNlfR,2020-0188,2020-06-04,15:05:03,15:19:10,NA,incomplete,53,filling,1,0,left,Green_Triangle_Grid_3.jpg,Purple_Plus_Grid_1.jpg,Blue_Triangle_Chess_4.jpg,left,866.0749999980908,true,high,false
xSGxNlfR,3y3czjszan6hsnojzw5z9ps3vnar5b,31lm9edvop567896mtxeqz2pzkdnj0,xSGxNlfR,2020-0188,2020-06-04,15:05:03,15:19:10,NA,incomplete,54,filling,1,1,left,Blue_Circle_Dots_4.jpg,Red_Star_Dots_1.jpg,Purple_Circle_Grid_2.jpg,left,1069.5100000011735,true,high,false
xSGxNlfR,3y3czjszan6hsnojzw5z9ps3vnar5b,31lm9edvop567896mtxeqz2pzkdnj0,xSGxNlfR,2020-0188,2020-06-04,15:05:03,15:19:10,NA,incomplete,55,filling,1,1,left,Blue_Triangle_Stripes_2.jpg,Red_Circle_Stripes_3.jpg,Purple_Triangle_Dots_4.jpg,left,836.4199999923585,true,high,false
xSGxNlfR,3y3czjszan6hsnojzw5z9ps3vnar5b,31lm9edvop567896mtxeqz2pzkdnj0,xSGxNlfR,2020-0188,2020-06-04,15:05:03,15:19:10,NA,incomplete,56,filling,1,1,left,Green_Circle_Stripes_2.jpg,Blue_Plus_Stripes_1.jpg,Red_Circle_Chess_3.jpg,left,769.4049999990966,true,high,false
xSGxNlfR,3y3czjszan6hsnojzw5z9ps3vnar5b,31lm9edvop567896mtxeqz2pzkdnj0,xSGxNlfR,2020-0188,2020-06-04,15:05:03,15:19:10,NA,incomplete,57,filling,1,1,left,Red_Circle_Dots_2.jpg,Green_Star_Dots_4.jpg,Blue_Circle_Chess_3.jpg,left,765.2499999967404,true,high,false
xSGxNlfR,3y3czjszan6hsnojzw5z9ps3vnar5b,31lm9edvop567896mtxeqz2pzkdnj0,xSGxNlfR,2020-0188,2020-06-04,15:05:03,15:19:10,NA,incomplete,58,filling,1,1,left,Blue_Plus_Grid_2.jpg,Red_Star_Grid_3.jpg,Purple_Plus_Dots_4.jpg,left,878.9150000084192,true,high,false
xSGxNlfR,3y3czjszan6hsnojzw5z9ps3vnar5b,31lm9edvop567896mtxeqz2pzkdnj0,xSGxNlfR,2020-0188,2020-06-04,15:05:03,15:19:10,NA,incomplete,59,filling,1,1,right,Blue_Triangle_Stripes_3.jpg,Green_Triangle_Chess_2.jpg,Red_Plus_Stripes_1.jpg,right,736.4099999977043,true,high,false
xSGxNlfR,3y3czjszan6hsnojzw5z9ps3vnar5b,31lm9edvop567896mtxeqz2pzkdnj0,xSGxNlfR,2020-0188,2020-06-04,15:05:03,15:19:10,NA,incomplete,60,shape,0,1,right,Green_Triangle_Grid_3.jpg,Purple_Circle_Grid_1.jpg,Red_Triangle_Chess_2.jpg,left,824.1350000025705,false,high,false
xSGxNlfR,3y3czjszan6hsnojzw5z9ps3vnar5b,31lm9edvop567896mtxeqz2pzkdnj0,xSGxNlfR,2020-0188,2020-06-04,15:05:03,15:19:10,NA,incomplete,61,shape,0,1,left,Blue_Circle_Chess_4.jpg,Purple_Circle_Stripes_2.jpg,Red_Triangle_Chess_1.jpg,right,709.4050000014249,false,high,false
xSGxNlfR,3y3czjszan6hsnojzw5z9ps3vnar5b,31lm9edvop567896mtxeqz2pzkdnj0,xSGxNlfR,2020-0188,2020-06-04,15:05:03,15:19:10,NA,incomplete,62,shape,0,1,right,Red_Triangle_Stripes_3.jpg,Blue_Plus_Stripes_4.jpg,Green_Triangle_Grid_1.jpg,right,560.3499999997439,true,high,false
xSGxNlfR,3y3czjszan6hsnojzw5z9ps3vnar5b,31lm9edvop567896mtxeqz2pzkdnj0,xSGxNlfR,2020-0188,2020-06-04,15:05:03,15:19:10,NA,incomplete,63,shape,0,0,left,Blue_Triangle_Chess_1.jpg,Green_Triangle_Stripes_4.jpg,Red_Circle_Chess_2.jpg,left,563.6850000009872,true,high,false
xSGxNlfR,3y3czjszan6hsnojzw5z9ps3vnar5b,31lm9edvop567896mtxeqz2pzkdnj0,xSGxNlfR,2020-0188,2020-06-04,15:05:03,15:19:10,NA,incomplete,64,shape,0,1,right,Blue_Plus_Chess_3.jpg,Red_Star_Chess_2.jpg,Purple_Plus_Dots_1.jpg,right,597.5100000068778,true,high,false
xSGxNlfR,3y3czjszan6hsnojzw5z9ps3vnar5b,31lm9edvop567896mtxeqz2pzkdnj0,xSGxNlfR,2020-0188,2020-06-04,15:05:03,15:19:10,NA,incomplete,65,shape,0,0,right,Blue_Plus_Dots_3.jpg,Green_Star_Dots_1.jpg,Red_Plus_Grid_2.jpg,right,533.2900000066729,true,high,false
xSGxNlfR,3y3czjszan6hsnojzw5z9ps3vnar5b,31lm9edvop567896mtxeqz2pzkdnj0,xSGxNlfR,2020-0188,2020-06-04,15:05:03,15:19:10,NA,incomplete,66,shape,0,1,left,Purple_Star_Dots_4.jpg,Blue_Star_Grid_1.jpg,Red_Triangle_Dots_2.jpg,right,788.2400000089547,false,high,false
xSGxNlfR,3y3czjszan6hsnojzw5z9ps3vnar5b,31lm9edvop567896mtxeqz2pzkdnj0,xSGxNlfR,2020-0188,2020-06-04,15:05:03,15:19:10,NA,incomplete,67,shape,0,1,left,Blue_Plus_Stripes_4.jpg,Green_Plus_Chess_2.jpg,Purple_Circle_Stripes_3.jpg,left,600.800000000163,true,high,false
xSGxNlfR,3y3czjszan6hsnojzw5z9ps3vnar5b,31lm9edvop567896mtxeqz2pzkdnj0,xSGxNlfR,2020-0188,2020-06-04,15:05:03,15:19:10,NA,incomplete,68,shape,0,1,right,Green_Triangle_Chess_2.jpg,Red_Plus_Chess_4.jpg,Blue_Triangle_Dots_3.jpg,right,555.1750000013271,true,high,false
xSGxNlfR,3y3czjszan6hsnojzw5z9ps3vnar5b,31lm9edvop567896mtxeqz2pzkdnj0,xSGxNlfR,2020-0188,2020-06-04,15:05:03,15:19:10,NA,incomplete,69,shape,0,1,right,Red_Triangle_Dots_2.jpg,Blue_Circle_Dots_3.jpg,Purple_Triangle_Chess_4.jpg,right,627.569999996922,true,high,false
xSGxNlfR,3y3czjszan6hsnojzw5z9ps3vnar5b,31lm9edvop567896mtxeqz2pzkdnj0,xSGxNlfR,2020-0188,2020-06-04,15:05:03,15:19:10,NA,incomplete,70,filling,1,1,right,Green_Triangle_Dots_4.jpg,Red_Triangle_Chess_2.jpg,Purple_Circle_Dots_3.jpg,left,518.724999987171,false,high,false
xSGxNlfR,3y3czjszan6hsnojzw5z9ps3vnar5b,31lm9edvop567896mtxeqz2pzkdnj0,xSGxNlfR,2020-0188,2020-06-04,15:05:03,15:19:10,NA,incomplete,71,filling,1,1,right,Blue_Triangle_Grid_3.jpg,Purple_Triangle_Dots_2.jpg,Red_Star_Grid_1.jpg,left,644.2849999875762,false,high,false
xSGxNlfR,3y3czjszan6hsnojzw5z9ps3vnar5b,31lm9edvop567896mtxeqz2pzkdnj0,xSGxNlfR,2020-0188,2020-06-04,15:05:03,15:19:10,NA,incomplete,72,filling,1,0,left,Green_Circle_Grid_4.jpg,Red_Star_Grid_1.jpg,Purple_Circle_Dots_3.jpg,left,783.4499999880791,true,high,false
xSGxNlfR,3y3czjszan6hsnojzw5z9ps3vnar5b,31lm9edvop567896mtxeqz2pzkdnj0,xSGxNlfR,2020-0188,2020-06-04,15:05:03,15:19:10,NA,incomplete,73,filling,1,1,left,Purple_Circle_Stripes_1.jpg,Blue_Plus_Stripes_4.jpg,Red_Circle_Dots_3.jpg,right,554.2199999908917,false,high,false
xSGxNlfR,3y3czjszan6hsnojzw5z9ps3vnar5b,31lm9edvop567896mtxeqz2pzkdnj0,xSGxNlfR,2020-0188,2020-06-04,15:05:03,15:19:10,NA,incomplete,74,filling,1,1,right,Red_Plus_Stripes_2.jpg,Green_Plus_Grid_3.jpg,Purple_Circle_Stripes_1.jpg,right,1370.9450000023935,true,high,false
xSGxNlfR,3y3czjszan6hsnojzw5z9ps3vnar5b,31lm9edvop567896mtxeqz2pzkdnj0,xSGxNlfR,2020-0188,2020-06-04,15:05:03,15:19:10,NA,incomplete,75,filling,1,1,left,Blue_Plus_Stripes_3.jpg,Green_Triangle_Stripes_2.jpg,Purple_Plus_Dots_1.jpg,left,610.1999999955297,true,high,false
xSGxNlfR,3y3czjszan6hsnojzw5z9ps3vnar5b,31lm9edvop567896mtxeqz2pzkdnj0,xSGxNlfR,2020-0188,2020-06-04,15:05:03,15:19:10,NA,incomplete,76,filling,1,1,left,Blue_Triangle_Dots_3.jpg,Purple_Circle_Dots_4.jpg,Green_Triangle_Chess_1.jpg,left,655.1850000105333,true,high,false
xSGxNlfR,3y3czjszan6hsnojzw5z9ps3vnar5b,31lm9edvop567896mtxeqz2pzkdnj0,xSGxNlfR,2020-0188,2020-06-04,15:05:03,15:19:10,NA,incomplete,77,filling,1,1,left,Purple_Triangle_Grid_1.jpg,Blue_Star_Grid_2.jpg,Red_Triangle_Dots_4.jpg,left,935.6399999960558,true,high,false
xSGxNlfR,3y3czjszan6hsnojzw5z9ps3vnar5b,31lm9edvop567896mtxeqz2pzkdnj0,xSGxNlfR,2020-0188,2020-06-04,15:05:03,15:19:10,NA,incomplete,78,filling,1,1,left,Blue_Circle_Chess_4.jpg,Red_Triangle_Chess_2.jpg,Purple_Circle_Grid_1.jpg,left,735.9449999930803,true,high,false
xSGxNlfR,3y3czjszan6hsnojzw5z9ps3vnar5b,31lm9edvop567896mtxeqz2pzkdnj0,xSGxNlfR,2020-0188,2020-06-04,15:05:03,15:19:10,NA,incomplete,79,filling,1,0,right,Purple_Star_Stripes_1.jpg,Blue_Star_Chess_2.jpg,Green_Plus_Stripes_3.jpg,right,787.5649999914458,true,high,false
xSGxNlfR,3y3czjszan6hsnojzw5z9ps3vnar5b,31lm9edvop567896mtxeqz2pzkdnj0,xSGxNlfR,2020-0188,2020-06-04,15:05:03,15:19:10,NA,incomplete,80,shape,0,1,right,Purple_Circle_Dots_2.jpg,Green_Star_Dots_1.jpg,Blue_Circle_Grid_3.jpg,left,648.1449999992037,false,high,false
xSGxNlfR,3y3czjszan6hsnojzw5z9ps3vnar5b,31lm9edvop567896mtxeqz2pzkdnj0,xSGxNlfR,2020-0188,2020-06-04,15:05:03,15:19:10,NA,incomplete,81,shape,0,1,left,Red_Star_Dots_1.jpg,Purple_Star_Stripes_3.jpg,Blue_Circle_Dots_4.jpg,left,637.589999998454,true,high,false
xSGxNlfR,3y3czjszan6hsnojzw5z9ps3vnar5b,31lm9edvop567896mtxeqz2pzkdnj0,xSGxNlfR,2020-0188,2020-06-04,15:05:03,15:19:10,NA,incomplete,82,shape,0,1,right,Purple_Star_Grid_3.jpg,Red_Circle_Grid_1.jpg,Blue_Star_Stripes_4.jpg,right,501.22000000556,true,high,false
xSGxNlfR,3y3czjszan6hsnojzw5z9ps3vnar5b,31lm9edvop567896mtxeqz2pzkdnj0,xSGxNlfR,2020-0188,2020-06-04,15:05:03,15:19:10,NA,incomplete,83,shape,0,0,right,Purple_Circle_Dots_3.jpg,Blue_Triangle_Dots_1.jpg,Red_Circle_Stripes_4.jpg,right,535.0449999968987,true,high,false
xSGxNlfR,3y3czjszan6hsnojzw5z9ps3vnar5b,31lm9edvop567896mtxeqz2pzkdnj0,xSGxNlfR,2020-0188,2020-06-04,15:05:03,15:19:10,NA,incomplete,84,shape,0,1,left,Blue_Circle_Grid_3.jpg,Green_Circle_Dots_1.jpg,Red_Star_Grid_2.jpg,left,502.0599999988917,true,high,false
xSGxNlfR,3y3czjszan6hsnojzw5z9ps3vnar5b,31lm9edvop567896mtxeqz2pzkdnj0,xSGxNlfR,2020-0188,2020-06-04,15:05:03,15:19:10,NA,incomplete,85,shape,0,1,right,Red_Star_Stripes_4.jpg,Green_Plus_Stripes_3.jpg,Blue_Star_Grid_2.jpg,right,485.14499999873806,true,high,false
xSGxNlfR,3y3czjszan6hsnojzw5z9ps3vnar5b,31lm9edvop567896mtxeqz2pzkdnj0,xSGxNlfR,2020-0188,2020-06-04,15:05:03,15:19:10,NA,incomplete,86,shape,0,1,right,Blue_Star_Dots_3.jpg,Red_Triangle_Dots_4.jpg,Green_Star_Stripes_1.jpg,right,535.1300000038464,true,high,false
xSGxNlfR,3y3czjszan6hsnojzw5z9ps3vnar5b,31lm9edvop567896mtxeqz2pzkdnj0,xSGxNlfR,2020-0188,2020-06-04,15:05:03,15:19:10,NA,incomplete,87,shape,0,1,left,Red_Triangle_Stripes_3.jpg,Purple_Triangle_Grid_2.jpg,Green_Plus_Stripes_1.jpg,left,484.3449999898439,true,high,false
xSGxNlfR,3y3czjszan6hsnojzw5z9ps3vnar5b,31lm9edvop567896mtxeqz2pzkdnj0,xSGxNlfR,2020-0188,2020-06-04,15:05:03,15:19:10,NA,incomplete,88,shape,0,1,right,Red_Plus_Stripes_3.jpg,Blue_Star_Stripes_1.jpg,Green_Plus_Dots_2.jpg,right,478.5399999964284,true,high,false
xSGxNlfR,3y3czjszan6hsnojzw5z9ps3vnar5b,31lm9edvop567896mtxeqz2pzkdnj0,xSGxNlfR,2020-0188,2020-06-04,15:05:03,15:19:10,NA,incomplete,89,shape,0,0,left,Green_Triangle_Grid_2.jpg,Red_Triangle_Chess_1.jpg,Blue_Star_Grid_4.jpg,left,449.35999999870546,true,high,false
xSGxNlfR,3y3czjszan6hsnojzw5z9ps3vnar5b,31lm9edvop567896mtxeqz2pzkdnj0,xSGxNlfR,2020-0188,2020-06-04,15:05:03,15:19:10,NA,incomplete,90,filling,1,1,right,Purple_Circle_Grid_2.jpg,Green_Circle_Dots_4.jpg,Red_Star_Grid_3.jpg,left,506.7350000026636,false,high,false
xSGxNlfR,3y3czjszan6hsnojzw5z9ps3vnar5b,31lm9edvop567896mtxeqz2pzkdnj0,xSGxNlfR,2020-0188,2020-06-04,15:05:03,15:19:10,NA,incomplete,91,filling,1,1,right,Purple_Star_Dots_2.jpg,Blue_Star_Chess_1.jpg,Green_Circle_Dots_3.jpg,left,599.8300000064773,false,high,false
xSGxNlfR,3y3czjszan6hsnojzw5z9ps3vnar5b,31lm9edvop567896mtxeqz2pzkdnj0,xSGxNlfR,2020-0188,2020-06-04,15:05:03,15:19:10,NA,incomplete,92,filling,1,1,left,Green_Circle_Grid_2.jpg,Blue_Plus_Grid_3.jpg,Purple_Circle_Chess_1.jpg,left,711.3099999987753,true,high,false
xSGxNlfR,3y3czjszan6hsnojzw5z9ps3vnar5b,31lm9edvop567896mtxeqz2pzkdnj0,xSGxNlfR,2020-0188,2020-06-04,15:05:03,15:19:10,NA,incomplete,93,filling,1,1,left,Red_Circle_Grid_4.jpg,Purple_Star_Grid_3.jpg,Green_Circle_Stripes_2.jpg,left,765.8249999949476,true,high,false
xSGxNlfR,3y3czjszan6hsnojzw5z9ps3vnar5b,31lm9edvop567896mtxeqz2pzkdnj0,xSGxNlfR,2020-0188,2020-06-04,15:05:03,15:19:10,NA,incomplete,94,filling,1,1,left,Green_Triangle_Dots_1.jpg,Red_Plus_Dots_4.jpg,Purple_Triangle_Chess_2.jpg,left,832.1849999920232,true,high,false
xSGxNlfR,3y3czjszan6hsnojzw5z9ps3vnar5b,31lm9edvop567896mtxeqz2pzkdnj0,xSGxNlfR,2020-0188,2020-06-04,15:05:03,15:19:10,NA,incomplete,95,filling,1,1,right,Green_Star_Chess_3.jpg,Red_Star_Dots_2.jpg,Purple_Plus_Chess_1.jpg,right,806.750000003376,true,high,false
xSGxNlfR,3y3czjszan6hsnojzw5z9ps3vnar5b,31lm9edvop567896mtxeqz2pzkdnj0,xSGxNlfR,2020-0188,2020-06-04,15:05:03,15:19:10,NA,incomplete,96,filling,1,1,right,Purple_Star_Chess_1.jpg,Red_Star_Grid_3.jpg,Green_Plus_Chess_2.jpg,right,840.3650000109337,true,high,false
xSGxNlfR,3y3czjszan6hsnojzw5z9ps3vnar5b,31lm9edvop567896mtxeqz2pzkdnj0,xSGxNlfR,2020-0188,2020-06-04,15:05:03,15:19:10,NA,incomplete,97,filling,1,1,left,Purple_Triangle_Dots_4.jpg,Green_Circle_Dots_3.jpg,Red_Triangle_Stripes_2.jpg,left,630.2750000031665,true,high,false
xSGxNlfR,3y3czjszan6hsnojzw5z9ps3vnar5b,31lm9edvop567896mtxeqz2pzkdnj0,xSGxNlfR,2020-0188,2020-06-04,15:05:03,15:19:10,NA,incomplete,98,filling,1,1,left,Green_Circle_Dots_1.jpg,Purple_Plus_Dots_2.jpg,Red_Circle_Chess_3.jpg,left,798.9850000012666,true,high,false
xSGxNlfR,3y3czjszan6hsnojzw5z9ps3vnar5b,31lm9edvop567896mtxeqz2pzkdnj0,xSGxNlfR,2020-0188,2020-06-04,15:05:03,15:19:10,NA,incomplete,99,filling,1,1,left,Green_Triangle_Stripes_4.jpg,Red_Star_Stripes_1.jpg,Purple_Triangle_Dots_3.jpg,left,742.9799999954412,true,high,false
xSGxNlfR,3y3czjszan6hsnojzw5z9ps3vnar5b,31lm9edvop567896mtxeqz2pzkdnj0,xSGxNlfR,2020-0188,2020-06-04,15:05:03,15:19:10,NA,incomplete,100,shape,0,1,right,Blue_Plus_Chess_2.jpg,Purple_Triangle_Chess_1.jpg,Green_Plus_Stripes_3.jpg,left,778.1249999970896,false,high,false
xSGxNlfR,3y3czjszan6hsnojzw5z9ps3vnar5b,31lm9edvop567896mtxeqz2pzkdnj0,xSGxNlfR,2020-0188,2020-06-04,15:05:03,15:19:10,NA,incomplete,101,shape,0,0,right,Green_Star_Grid_2.jpg,Red_Circle_Grid_3.jpg,Blue_Star_Dots_4.jpg,left,768.194999996922,false,high,false
xSGxNlfR,3y3czjszan6hsnojzw5z9ps3vnar5b,31lm9edvop567896mtxeqz2pzkdnj0,xSGxNlfR,2020-0188,2020-06-04,15:05:03,15:19:10,NA,incomplete,102,shape,0,1,left,Blue_Circle_Chess_3.jpg,Green_Circle_Dots_4.jpg,Purple_Plus_Chess_1.jpg,right,674.0199999912875,false,high,false
xSGxNlfR,3y3czjszan6hsnojzw5z9ps3vnar5b,31lm9edvop567896mtxeqz2pzkdnj0,xSGxNlfR,2020-0188,2020-06-04,15:05:03,15:19:10,NA,incomplete,103,shape,0,1,right,Blue_Triangle_Dots_1.jpg,Purple_Circle_Dots_3.jpg,Red_Triangle_Chess_4.jpg,left,553.0850000068313,false,high,false
xSGxNlfR,3y3czjszan6hsnojzw5z9ps3vnar5b,31lm9edvop567896mtxeqz2pzkdnj0,xSGxNlfR,2020-0188,2020-06-04,15:05:03,15:19:10,NA,incomplete,104,shape,0,1,right,Purple_Triangle_Dots_1.jpg,Blue_Circle_Dots_4.jpg,Green_Triangle_Chess_2.jpg,right,658.964999995078,true,high,false
xSGxNlfR,3y3czjszan6hsnojzw5z9ps3vnar5b,31lm9edvop567896mtxeqz2pzkdnj0,xSGxNlfR,2020-0188,2020-06-04,15:05:03,15:19:10,NA,incomplete,105,shape,0,1,left,Blue_Triangle_Stripes_2.jpg,Green_Triangle_Dots_3.jpg,Purple_Circle_Stripes_1.jpg,left,511.3500000006752,true,high,false
xSGxNlfR,3y3czjszan6hsnojzw5z9ps3vnar5b,31lm9edvop567896mtxeqz2pzkdnj0,xSGxNlfR,2020-0188,2020-06-04,15:05:03,15:19:10,NA,incomplete,106,shape,0,1,left,Red_Star_Grid_1.jpg,Blue_Star_Stripes_3.jpg,Green_Triangle_Grid_4.jpg,left,520.4950000043027,true,high,false
xSGxNlfR,3y3czjszan6hsnojzw5z9ps3vnar5b,31lm9edvop567896mtxeqz2pzkdnj0,xSGxNlfR,2020-0188,2020-06-04,15:05:03,15:19:10,NA,incomplete,107,shape,0,1,left,Red_Circle_Dots_1.jpg,Purple_Circle_Chess_2.jpg,Green_Star_Dots_3.jpg,left,592.1899999957532,true,high,false
xSGxNlfR,3y3czjszan6hsnojzw5z9ps3vnar5b,31lm9edvop567896mtxeqz2pzkdnj0,xSGxNlfR,2020-0188,2020-06-04,15:05:03,15:19:10,NA,incomplete,108,shape,0,0,right,Purple_Star_Dots_2.jpg,Red_Triangle_Dots_3.jpg,Green_Star_Grid_1.jpg,right,592.9099999921164,true,high,false
xSGxNlfR,3y3czjszan6hsnojzw5z9ps3vnar5b,31lm9edvop567896mtxeqz2pzkdnj0,xSGxNlfR,2020-0188,2020-06-04,15:05:03,15:19:10,NA,incomplete,109,shape,0,1,left,Blue_Circle_Dots_1.jpg,Purple_Circle_Chess_4.jpg,Red_Star_Dots_3.jpg,left,503.2400000054622,true,high,false
xSGxNlfR,3y3czjszan6hsnojzw5z9ps3vnar5b,31lm9edvop567896mtxeqz2pzkdnj0,xSGxNlfR,2020-0188,2020-06-04,15:05:03,15:19:10,NA,incomplete,110,filling,1,1,right,Green_Star_Chess_3.jpg,Red_Star_Dots_4.jpg,Blue_Plus_Chess_1.jpg,left,696.6799999936484,false,high,false
xSGxNlfR,3y3czjszan6hsnojzw5z9ps3vnar5b,31lm9edvop567896mtxeqz2pzkdnj0,xSGxNlfR,2020-0188,2020-06-04,15:05:03,15:19:10,NA,incomplete,111,filling,1,1,left,Blue_Triangle_Dots_4.jpg,Purple_Plus_Dots_2.jpg,Red_Triangle_Chess_3.jpg,right,606.2249999959022,false,high,false
xSGxNlfR,3y3czjszan6hsnojzw5z9ps3vnar5b,31lm9edvop567896mtxeqz2pzkdnj0,xSGxNlfR,2020-0188,2020-06-04,15:05:03,15:19:10,NA,incomplete,112,filling,1,1,left,Red_Circle_Chess_3.jpg,Purple_Plus_Chess_1.jpg,Blue_Circle_Grid_2.jpg,left,702.8850000060629,true,high,false
xSGxNlfR,3y3czjszan6hsnojzw5z9ps3vnar5b,31lm9edvop567896mtxeqz2pzkdnj0,xSGxNlfR,2020-0188,2020-06-04,15:05:03,15:19:10,NA,incomplete,113,filling,1,1,left,Purple_Circle_Grid_4.jpg,Red_Triangle_Grid_2.jpg,Green_Circle_Chess_3.jpg,left,706.7950000055134,true,high,false
xSGxNlfR,3y3czjszan6hsnojzw5z9ps3vnar5b,31lm9edvop567896mtxeqz2pzkdnj0,xSGxNlfR,2020-0188,2020-06-04,15:05:03,15:19:10,NA,incomplete,114,filling,1,1,right,Purple_Star_Stripes_4.jpg,Green_Star_Chess_1.jpg,Red_Plus_Stripes_2.jpg,right,785.1700000028359,true,high,false
xSGxNlfR,3y3czjszan6hsnojzw5z9ps3vnar5b,31lm9edvop567896mtxeqz2pzkdnj0,xSGxNlfR,2020-0188,2020-06-04,15:05:03,15:19:10,NA,incomplete,115,filling,1,1,left,Blue_Star_Chess_2.jpg,Green_Plus_Chess_4.jpg,Red_Star_Stripes_1.jpg,right,722.6349999982631,false,high,false
xSGxNlfR,3y3czjszan6hsnojzw5z9ps3vnar5b,31lm9edvop567896mtxeqz2pzkdnj0,xSGxNlfR,2020-0188,2020-06-04,15:05:03,15:19:10,NA,incomplete,116,filling,1,1,left,Blue_Star_Grid_4.jpg,Green_Triangle_Grid_1.jpg,Red_Star_Dots_2.jpg,left,626.9400000019232,true,high,false
xSGxNlfR,3y3czjszan6hsnojzw5z9ps3vnar5b,31lm9edvop567896mtxeqz2pzkdnj0,xSGxNlfR,2020-0188,2020-06-04,15:05:03,15:19:10,NA,incomplete,117,filling,1,0,left,Purple_Circle_Grid_3.jpg,Green_Triangle_Grid_1.jpg,Red_Circle_Stripes_2.jpg,left,808.7450000020908,true,high,false
xSGxNlfR,3y3czjszan6hsnojzw5z9ps3vnar5b,31lm9edvop567896mtxeqz2pzkdnj0,xSGxNlfR,2020-0188,2020-06-04,15:05:03,15:19:10,NA,incomplete,118,filling,1,0,right,Purple_Triangle_Stripes_2.jpg,Blue_Triangle_Chess_1.jpg,Red_Plus_Stripes_3.jpg,right,929.470000002766,true,high,false
xSGxNlfR,3y3czjszan6hsnojzw5z9ps3vnar5b,31lm9edvop567896mtxeqz2pzkdnj0,xSGxNlfR,2020-0188,2020-06-04,15:05:03,15:19:10,NA,incomplete,119,filling,1,1,right,Green_Star_Dots_4.jpg,Blue_Star_Stripes_3.jpg,Red_Triangle_Dots_2.jpg,left,637.1600000129547,false,high,false
xSGxNlfR,3y3czjszan6hsnojzw5z9ps3vnar5b,31lm9edvop567896mtxeqz2pzkdnj0,xSGxNlfR,2020-0188,2020-06-04,15:05:03,15:19:10,NA,incomplete,120,race,2,0,right,C_M_13.jpg,A_M_14.jpg,C_F_01.jpg,NA,NA,NA,high,false
xSGxNlfR,3y3czjszan6hsnojzw5z9ps3vnar5b,31lm9edvop567896mtxeqz2pzkdnj0,xSGxNlfR,2020-0188,2020-06-04,15:05:03,15:19:10,NA,incomplete,121,race,2,1,right,C_M_14.jpg,A_M_08.jpg,C_F_15.jpg,left,1152.2249999979977,false,high,false
xSGxNlfR,3y3czjszan6hsnojzw5z9ps3vnar5b,31lm9edvop567896mtxeqz2pzkdnj0,xSGxNlfR,2020-0188,2020-06-04,15:05:03,15:19:10,NA,incomplete,122,race,2,1,left,A_M_05.jpg,A_F_03.jpg,C_M_13.jpg,left,1348.440000001574,true,high,false
xSGxNlfR,3y3czjszan6hsnojzw5z9ps3vnar5b,31lm9edvop567896mtxeqz2pzkdnj0,xSGxNlfR,2020-0188,2020-06-04,15:05:03,15:19:10,NA,incomplete,123,race,2,1,left,C_M_10.jpg,C_F_15.jpg,A_M_04.jpg,left,1019.5099999982631,true,high,false
xSGxNlfR,3y3czjszan6hsnojzw5z9ps3vnar5b,31lm9edvop567896mtxeqz2pzkdnj0,xSGxNlfR,2020-0188,2020-06-04,15:05:03,15:19:10,NA,incomplete,124,race,2,1,right,A_M_12.jpg,C_M_02.jpg,A_F_10.jpg,right,921.5399999957299,true,high,false
xSGxNlfR,3y3czjszan6hsnojzw5z9ps3vnar5b,31lm9edvop567896mtxeqz2pzkdnj0,xSGxNlfR,2020-0188,2020-06-04,15:05:03,15:19:10,NA,incomplete,125,race,2,1,right,A_M_10.jpg,C_M_11.jpg,A_F_14.jpg,right,945.3800000046613,true,high,false
xSGxNlfR,3y3czjszan6hsnojzw5z9ps3vnar5b,31lm9edvop567896mtxeqz2pzkdnj0,xSGxNlfR,2020-0188,2020-06-04,15:05:03,15:19:10,NA,incomplete,126,race,2,0,right,A_M_02.jpg,C_M_15.jpg,A_F_01.jpg,right,1022.9350000008708,true,high,false
xSGxNlfR,3y3czjszan6hsnojzw5z9ps3vnar5b,31lm9edvop567896mtxeqz2pzkdnj0,xSGxNlfR,2020-0188,2020-06-04,15:05:03,15:19:10,NA,incomplete,127,race,2,1,left,C_F_07.jpg,C_M_15.jpg,A_F_01.jpg,right,1164.4300000043586,false,high,false
xSGxNlfR,3y3czjszan6hsnojzw5z9ps3vnar5b,31lm9edvop567896mtxeqz2pzkdnj0,xSGxNlfR,2020-0188,2020-06-04,15:05:03,15:19:10,NA,incomplete,128,race,2,1,left,A_M_11.jpg,A_F_08.jpg,C_M_15.jpg,left,1016.6250000038417,true,high,false
xSGxNlfR,3y3czjszan6hsnojzw5z9ps3vnar5b,31lm9edvop567896mtxeqz2pzkdnj0,xSGxNlfR,2020-0188,2020-06-04,15:05:03,15:19:10,NA,incomplete,129,race,2,0,left,A_M_10.jpg,A_F_03.jpg,C_M_11.jpg,left,1008.5950000066077,true,high,false
xSGxNlfR,3y3czjszan6hsnojzw5z9ps3vnar5b,31lm9edvop567896mtxeqz2pzkdnj0,xSGxNlfR,2020-0188,2020-06-04,15:05:03,15:19:10,NA,incomplete,130,race,2,1,left,C_F_05.jpg,C_M_02.jpg,A_F_15.jpg,left,1510.1999999897089,true,high,false
xSGxNlfR,3y3czjszan6hsnojzw5z9ps3vnar5b,31lm9edvop567896mtxeqz2pzkdnj0,xSGxNlfR,2020-0188,2020-06-04,15:05:03,15:19:10,NA,incomplete,131,race,2,1,left,A_M_12.jpg,A_F_01.jpg,C_M_09.jpg,left,1004.8250000108965,true,high,false
xSGxNlfR,3y3czjszan6hsnojzw5z9ps3vnar5b,31lm9edvop567896mtxeqz2pzkdnj0,xSGxNlfR,2020-0188,2020-06-04,15:05:03,15:19:10,NA,incomplete,132,race,2,0,right,A_M_01.jpg,C_M_03.jpg,A_F_10.jpg,right,968.0700000026263,true,high,false
xSGxNlfR,3y3czjszan6hsnojzw5z9ps3vnar5b,31lm9edvop567896mtxeqz2pzkdnj0,xSGxNlfR,2020-0188,2020-06-04,15:05:03,15:19:10,NA,incomplete,133,race,2,1,right,C_M_02.jpg,A_M_08.jpg,C_F_11.jpg,left,798.4549999964656,false,high,false
xSGxNlfR,3y3czjszan6hsnojzw5z9ps3vnar5b,31lm9edvop567896mtxeqz2pzkdnj0,xSGxNlfR,2020-0188,2020-06-04,15:05:03,15:19:10,NA,incomplete,134,race,2,1,right,C_M_12.jpg,A_M_07.jpg,C_F_04.jpg,right,1001.285000005737,true,high,false
xSGxNlfR,3y3czjszan6hsnojzw5z9ps3vnar5b,31lm9edvop567896mtxeqz2pzkdnj0,xSGxNlfR,2020-0188,2020-06-04,15:05:03,15:19:10,NA,incomplete,135,race,2,1,right,A_M_08.jpg,C_M_07.jpg,A_F_09.jpg,right,1049.9799999961397,true,high,false
xSGxNlfR,3y3czjszan6hsnojzw5z9ps3vnar5b,31lm9edvop567896mtxeqz2pzkdnj0,xSGxNlfR,2020-0188,2020-06-04,15:05:03,15:19:10,NA,incomplete,136,race,2,1,left,A_F_07.jpg,A_M_11.jpg,C_F_16.jpg,left,884.6699999994598,true,high,false
xSGxNlfR,3y3czjszan6hsnojzw5z9ps3vnar5b,31lm9edvop567896mtxeqz2pzkdnj0,xSGxNlfR,2020-0188,2020-06-04,15:05:03,15:19:10,NA,incomplete,137,race,2,1,left,A_M_02.jpg,A_F_05.jpg,C_M_09.jpg,left,903.6799999885261,true,high,false
xSGxNlfR,3y3czjszan6hsnojzw5z9ps3vnar5b,31lm9edvop567896mtxeqz2pzkdnj0,xSGxNlfR,2020-0188,2020-06-04,15:05:03,15:19:10,NA,incomplete,138,race,2,1,left,A_F_16.jpg,A_M_07.jpg,C_F_06.jpg,left,985.5099999986123,true,high,false
xSGxNlfR,3y3czjszan6hsnojzw5z9ps3vnar5b,31lm9edvop567896mtxeqz2pzkdnj0,xSGxNlfR,2020-0188,2020-06-04,15:05:03,15:19:10,NA,incomplete,139,race,2,1,right,C_F_09.jpg,A_F_04.jpg,C_M_12.jpg,right,1221.544999993057,true,high,false
xSGxNlfR,3y3czjszan6hsnojzw5z9ps3vnar5b,31lm9edvop567896mtxeqz2pzkdnj0,xSGxNlfR,2020-0188,2020-06-04,15:05:03,15:19:10,NA,incomplete,140,gender,3,1,right,C_M_03.jpg,C_F_01.jpg,A_M_14.jpg,left,1292.9599999915808,false,high,false
xSGxNlfR,3y3czjszan6hsnojzw5z9ps3vnar5b,31lm9edvop567896mtxeqz2pzkdnj0,xSGxNlfR,2020-0188,2020-06-04,15:05:03,15:19:10,NA,incomplete,141,gender,3,0,right,C_F_12.jpg,C_M_07.jpg,A_F_06.jpg,left,1117.7050000114832,false,high,false
xSGxNlfR,3y3czjszan6hsnojzw5z9ps3vnar5b,31lm9edvop567896mtxeqz2pzkdnj0,xSGxNlfR,2020-0188,2020-06-04,15:05:03,15:19:10,NA,incomplete,142,gender,3,1,left,C_F_16.jpg,A_F_09.jpg,C_M_07.jpg,right,957.7049999934388,false,high,false
xSGxNlfR,3y3czjszan6hsnojzw5z9ps3vnar5b,31lm9edvop567896mtxeqz2pzkdnj0,xSGxNlfR,2020-0188,2020-06-04,15:05:03,15:19:10,NA,incomplete,143,gender,3,1,left,A_M_11.jpg,C_M_02.jpg,A_F_08.jpg,right,1275.6499999959487,false,high,false
xSGxNlfR,3y3czjszan6hsnojzw5z9ps3vnar5b,31lm9edvop567896mtxeqz2pzkdnj0,xSGxNlfR,2020-0188,2020-06-04,15:05:03,15:19:10,NA,incomplete,144,gender,3,1,left,A_M_07.jpg,C_M_13.jpg,A_F_11.jpg,left,868.4099999954924,true,high,false
xSGxNlfR,3y3czjszan6hsnojzw5z9ps3vnar5b,31lm9edvop567896mtxeqz2pzkdnj0,xSGxNlfR,2020-0188,2020-06-04,15:05:03,15:19:10,NA,incomplete,145,gender,3,1,left,A_M_16.jpg,C_M_04.jpg,A_F_01.jpg,left,901.4500000048429,true,high,false
xSGxNlfR,3y3czjszan6hsnojzw5z9ps3vnar5b,31lm9edvop567896mtxeqz2pzkdnj0,xSGxNlfR,2020-0188,2020-06-04,15:05:03,15:19:10,NA,incomplete,146,gender,3,1,left,A_M_14.jpg,C_M_16.jpg,A_F_13.jpg,left,783.6150000075577,true,high,false
xSGxNlfR,3y3czjszan6hsnojzw5z9ps3vnar5b,31lm9edvop567896mtxeqz2pzkdnj0,xSGxNlfR,2020-0188,2020-06-04,15:05:03,15:19:10,NA,incomplete,147,gender,3,1,left,A_F_10.jpg,C_F_06.jpg,A_M_02.jpg,left,763.2199999934528,true,high,false
xSGxNlfR,3y3czjszan6hsnojzw5z9ps3vnar5b,31lm9edvop567896mtxeqz2pzkdnj0,xSGxNlfR,2020-0188,2020-06-04,15:05:03,15:19:10,NA,incomplete,148,gender,3,1,right,C_F_10.jpg,C_M_11.jpg,A_F_15.jpg,right,707.2800000023562,true,high,false
xSGxNlfR,3y3czjszan6hsnojzw5z9ps3vnar5b,31lm9edvop567896mtxeqz2pzkdnj0,xSGxNlfR,2020-0188,2020-06-04,15:05:03,15:19:10,NA,incomplete,149,gender,3,1,right,C_F_09.jpg,C_M_12.jpg,A_F_07.jpg,right,756.0749999975087,true,high,false
xSGxNlfR,3y3czjszan6hsnojzw5z9ps3vnar5b,31lm9edvop567896mtxeqz2pzkdnj0,xSGxNlfR,2020-0188,2020-06-04,15:05:03,15:19:10,NA,incomplete,150,gender,3,1,right,C_F_09.jpg,C_M_12.jpg,A_F_14.jpg,right,670.589999994263,true,high,false
xSGxNlfR,3y3czjszan6hsnojzw5z9ps3vnar5b,31lm9edvop567896mtxeqz2pzkdnj0,xSGxNlfR,2020-0188,2020-06-04,15:05:03,15:19:10,NA,incomplete,151,gender,3,1,left,C_F_08.jpg,A_F_03.jpg,C_M_07.jpg,left,669.1250000003492,true,high,false
xSGxNlfR,3y3czjszan6hsnojzw5z9ps3vnar5b,31lm9edvop567896mtxeqz2pzkdnj0,xSGxNlfR,2020-0188,2020-06-04,15:05:03,15:19:10,NA,incomplete,152,gender,3,1,right,A_F_13.jpg,A_M_03.jpg,C_F_08.jpg,right,986.944999996922,true,high,false
xSGxNlfR,3y3czjszan6hsnojzw5z9ps3vnar5b,31lm9edvop567896mtxeqz2pzkdnj0,xSGxNlfR,2020-0188,2020-06-04,15:05:03,15:19:10,NA,incomplete,153,gender,3,0,left,A_F_07.jpg,C_F_04.jpg,A_M_12.jpg,left,838.5350000025937,true,high,false
xSGxNlfR,3y3czjszan6hsnojzw5z9ps3vnar5b,31lm9edvop567896mtxeqz2pzkdnj0,xSGxNlfR,2020-0188,2020-06-04,15:05:03,15:19:10,NA,incomplete,154,gender,3,1,left,C_M_15.jpg,A_M_16.jpg,C_F_13.jpg,left,796.6250000026776,true,high,false
xSGxNlfR,3y3czjszan6hsnojzw5z9ps3vnar5b,31lm9edvop567896mtxeqz2pzkdnj0,xSGxNlfR,2020-0188,2020-06-04,15:05:03,15:19:10,NA,incomplete,155,gender,3,1,right,A_M_10.jpg,A_F_15.jpg,C_M_16.jpg,right,761.5100000111852,true,high,false
xSGxNlfR,3y3czjszan6hsnojzw5z9ps3vnar5b,31lm9edvop567896mtxeqz2pzkdnj0,xSGxNlfR,2020-0188,2020-06-04,15:05:03,15:19:10,NA,incomplete,156,gender,3,1,left,C_M_09.jpg,A_M_16.jpg,C_F_12.jpg,left,523.0199999932665,true,high,false
xSGxNlfR,3y3czjszan6hsnojzw5z9ps3vnar5b,31lm9edvop567896mtxeqz2pzkdnj0,xSGxNlfR,2020-0188,2020-06-04,15:05:03,15:19:10,NA,incomplete,157,gender,3,1,left,C_M_04.jpg,A_M_09.jpg,C_F_12.jpg,left,674.1100000072038,true,high,false
xSGxNlfR,3y3czjszan6hsnojzw5z9ps3vnar5b,31lm9edvop567896mtxeqz2pzkdnj0,xSGxNlfR,2020-0188,2020-06-04,15:05:03,15:19:10,NA,incomplete,158,gender,3,1,right,A_F_15.jpg,A_M_04.jpg,C_F_06.jpg,right,705.5849999887869,true,high,false
xSGxNlfR,3y3czjszan6hsnojzw5z9ps3vnar5b,31lm9edvop567896mtxeqz2pzkdnj0,xSGxNlfR,2020-0188,2020-06-04,15:05:03,15:19:10,NA,incomplete,159,gender,3,0,right,C_M_15.jpg,C_F_01.jpg,A_M_04.jpg,right,702.06500000495,true,high,false
xSGxNlfR,3y3czjszan6hsnojzw5z9ps3vnar5b,31lm9edvop567896mtxeqz2pzkdnj0,xSGxNlfR,2020-0188,2020-06-04,15:05:03,15:19:10,NA,incomplete,160,race,2,1,right,A_F_12.jpg,C_F_02.jpg,A_M_11.jpg,left,980.4849999927683,false,high,false
xSGxNlfR,3y3czjszan6hsnojzw5z9ps3vnar5b,31lm9edvop567896mtxeqz2pzkdnj0,xSGxNlfR,2020-0188,2020-06-04,15:05:03,15:19:10,NA,incomplete,161,race,2,0,left,C_M_07.jpg,C_F_10.jpg,A_M_11.jpg,left,1111.9150000013178,true,high,false
xSGxNlfR,3y3czjszan6hsnojzw5z9ps3vnar5b,31lm9edvop567896mtxeqz2pzkdnj0,xSGxNlfR,2020-0188,2020-06-04,15:05:03,15:19:10,NA,incomplete,162,race,2,1,right,A_F_05.jpg,C_F_02.jpg,A_M_08.jpg,left,891.3449999963632,false,high,false
xSGxNlfR,3y3czjszan6hsnojzw5z9ps3vnar5b,31lm9edvop567896mtxeqz2pzkdnj0,xSGxNlfR,2020-0188,2020-06-04,15:05:03,15:19:10,NA,incomplete,163,race,2,1,left,A_M_16.jpg,A_F_09.jpg,C_M_03.jpg,left,1158.9399999938905,true,high,false
xSGxNlfR,3y3czjszan6hsnojzw5z9ps3vnar5b,31lm9edvop567896mtxeqz2pzkdnj0,xSGxNlfR,2020-0188,2020-06-04,15:05:03,15:19:10,NA,incomplete,164,race,2,1,left,A_F_15.jpg,A_M_01.jpg,C_F_02.jpg,left,830.8499999984633,true,high,false
xSGxNlfR,3y3czjszan6hsnojzw5z9ps3vnar5b,31lm9edvop567896mtxeqz2pzkdnj0,xSGxNlfR,2020-0188,2020-06-04,15:05:03,15:19:10,NA,incomplete,165,race,2,1,left,A_F_09.jpg,A_M_10.jpg,C_F_05.jpg,left,1013.34499999939,true,high,false
xSGxNlfR,3y3czjszan6hsnojzw5z9ps3vnar5b,31lm9edvop567896mtxeqz2pzkdnj0,xSGxNlfR,2020-0188,2020-06-04,15:05:03,15:19:10,NA,incomplete,166,race,2,1,left,C_M_01.jpg,C_F_09.jpg,A_M_04.jpg,left,971.3699999992969,true,high,false
xSGxNlfR,3y3czjszan6hsnojzw5z9ps3vnar5b,31lm9edvop567896mtxeqz2pzkdnj0,xSGxNlfR,2020-0188,2020-06-04,15:05:03,15:19:10,NA,incomplete,167,race,2,1,left,A_M_15.jpg,A_F_16.jpg,C_M_01.jpg,left,1034.895000004326,true,high,false
xSGxNlfR,3y3czjszan6hsnojzw5z9ps3vnar5b,31lm9edvop567896mtxeqz2pzkdnj0,xSGxNlfR,2020-0188,2020-06-04,15:05:03,15:19:10,NA,incomplete,168,race,2,0,left,A_M_16.jpg,A_F_04.jpg,C_M_15.jpg,left,848.1250000040745,true,high,false
xSGxNlfR,3y3czjszan6hsnojzw5z9ps3vnar5b,31lm9edvop567896mtxeqz2pzkdnj0,xSGxNlfR,2020-0188,2020-06-04,15:05:03,15:19:10,NA,incomplete,169,race,2,1,right,A_M_04.jpg,C_M_01.jpg,A_F_10.jpg,right,1134.1350000002421,true,high,false
xSGxNlfR,3y3czjszan6hsnojzw5z9ps3vnar5b,31lm9edvop567896mtxeqz2pzkdnj0,xSGxNlfR,2020-0188,2020-06-04,15:05:03,15:19:10,NA,incomplete,170,race,2,1,left,C_F_03.jpg,C_M_06.jpg,A_F_08.jpg,left,703.7100000015926,true,high,false
xSGxNlfR,3y3czjszan6hsnojzw5z9ps3vnar5b,31lm9edvop567896mtxeqz2pzkdnj0,xSGxNlfR,2020-0188,2020-06-04,15:05:03,15:19:10,NA,incomplete,171,race,2,1,right,A_M_03.jpg,C_M_02.jpg,A_F_14.jpg,right,898.6100000038277,true,high,false
xSGxNlfR,3y3czjszan6hsnojzw5z9ps3vnar5b,31lm9edvop567896mtxeqz2pzkdnj0,xSGxNlfR,2020-0188,2020-06-04,15:05:03,15:19:10,NA,incomplete,172,race,2,1,right,C_M_05.jpg,A_M_04.jpg,C_F_15.jpg,right,1033.5699999995995,true,high,false
xSGxNlfR,3y3czjszan6hsnojzw5z9ps3vnar5b,31lm9edvop567896mtxeqz2pzkdnj0,xSGxNlfR,2020-0188,2020-06-04,15:05:03,15:19:10,NA,incomplete,173,race,2,1,left,A_M_04.jpg,A_F_14.jpg,C_M_02.jpg,left,880.1200000016252,true,high,false
xSGxNlfR,3y3czjszan6hsnojzw5z9ps3vnar5b,31lm9edvop567896mtxeqz2pzkdnj0,xSGxNlfR,2020-0188,2020-06-04,15:05:03,15:19:10,NA,incomplete,174,race,2,0,right,C_F_04.jpg,A_F_11.jpg,C_M_07.jpg,right,978.9299999974901,true,high,false
xSGxNlfR,3y3czjszan6hsnojzw5z9ps3vnar5b,31lm9edvop567896mtxeqz2pzkdnj0,xSGxNlfR,2020-0188,2020-06-04,15:05:03,15:19:10,NA,incomplete,175,race,2,1,left,A_F_02.jpg,A_M_10.jpg,C_F_07.jpg,right,992.0649999985471,false,high,false
xSGxNlfR,3y3czjszan6hsnojzw5z9ps3vnar5b,31lm9edvop567896mtxeqz2pzkdnj0,xSGxNlfR,2020-0188,2020-06-04,15:05:03,15:19:10,NA,incomplete,176,race,2,1,right,C_F_04.jpg,A_F_15.jpg,C_M_08.jpg,right,922.1299999917392,true,high,false
xSGxNlfR,3y3czjszan6hsnojzw5z9ps3vnar5b,31lm9edvop567896mtxeqz2pzkdnj0,xSGxNlfR,2020-0188,2020-06-04,15:05:03,15:19:10,NA,incomplete,177,race,2,1,right,C_M_07.jpg,A_M_02.jpg,C_F_06.jpg,right,835.3950000018813,true,high,false
xSGxNlfR,3y3czjszan6hsnojzw5z9ps3vnar5b,31lm9edvop567896mtxeqz2pzkdnj0,xSGxNlfR,2020-0188,2020-06-04,15:05:03,15:19:10,NA,incomplete,178,race,2,1,left,C_F_14.jpg,C_M_10.jpg,A_F_08.jpg,left,749.8999999952503,true,high,false
xSGxNlfR,3y3czjszan6hsnojzw5z9ps3vnar5b,31lm9edvop567896mtxeqz2pzkdnj0,xSGxNlfR,2020-0188,2020-06-04,15:05:03,15:19:10,NA,incomplete,179,race,2,1,left,A_M_10.jpg,A_F_01.jpg,C_M_02.jpg,left,995.8550000010291,true,high,false
xSGxNlfR,3y3czjszan6hsnojzw5z9ps3vnar5b,31lm9edvop567896mtxeqz2pzkdnj0,xSGxNlfR,2020-0188,2020-06-04,15:05:03,15:19:10,NA,incomplete,180,gender,3,1,right,A_F_15.jpg,A_M_02.jpg,C_F_06.jpg,left,1014.420000006794,false,high,false
xSGxNlfR,3y3czjszan6hsnojzw5z9ps3vnar5b,31lm9edvop567896mtxeqz2pzkdnj0,xSGxNlfR,2020-0188,2020-06-04,15:05:03,15:19:10,NA,incomplete,181,gender,3,1,left,C_M_10.jpg,A_M_01.jpg,C_F_16.jpg,right,955.7999999960884,false,high,false
xSGxNlfR,3y3czjszan6hsnojzw5z9ps3vnar5b,31lm9edvop567896mtxeqz2pzkdnj0,xSGxNlfR,2020-0188,2020-06-04,15:05:03,15:19:10,NA,incomplete,182,gender,3,1,right,C_F_08.jpg,C_M_11.jpg,A_F_05.jpg,right,600.9100000082981,true,high,false
xSGxNlfR,3y3czjszan6hsnojzw5z9ps3vnar5b,31lm9edvop567896mtxeqz2pzkdnj0,xSGxNlfR,2020-0188,2020-06-04,15:05:03,15:19:10,NA,incomplete,183,gender,3,1,right,C_M_09.jpg,C_F_07.jpg,A_M_11.jpg,right,749.2999999958556,true,high,false
xSGxNlfR,3y3czjszan6hsnojzw5z9ps3vnar5b,31lm9edvop567896mtxeqz2pzkdnj0,xSGxNlfR,2020-0188,2020-06-04,15:05:03,15:19:10,NA,incomplete,184,gender,3,1,right,A_M_13.jpg,A_F_08.jpg,C_M_06.jpg,right,823.6899999901652,true,high,false
xSGxNlfR,3y3czjszan6hsnojzw5z9ps3vnar5b,31lm9edvop567896mtxeqz2pzkdnj0,xSGxNlfR,2020-0188,2020-06-04,15:05:03,15:19:10,NA,incomplete,185,gender,3,1,right,C_M_04.jpg,C_F_13.jpg,A_M_07.jpg,right,767.3649999924237,true,high,false
xSGxNlfR,3y3czjszan6hsnojzw5z9ps3vnar5b,31lm9edvop567896mtxeqz2pzkdnj0,xSGxNlfR,2020-0188,2020-06-04,15:05:03,15:19:10,NA,incomplete,186,gender,3,0,left,C_F_09.jpg,A_F_06.jpg,C_M_05.jpg,left,719.3249999982072,true,high,false
xSGxNlfR,3y3czjszan6hsnojzw5z9ps3vnar5b,31lm9edvop567896mtxeqz2pzkdnj0,xSGxNlfR,2020-0188,2020-06-04,15:05:03,15:19:10,NA,incomplete,187,gender,3,1,right,C_F_03.jpg,C_M_11.jpg,A_F_02.jpg,right,663.4749999939231,true,high,false
xSGxNlfR,3y3czjszan6hsnojzw5z9ps3vnar5b,31lm9edvop567896mtxeqz2pzkdnj0,xSGxNlfR,2020-0188,2020-06-04,15:05:03,15:19:10,NA,incomplete,188,gender,3,1,left,C_M_09.jpg,A_M_15.jpg,C_F_04.jpg,left,778.7500000122236,true,high,false
xSGxNlfR,3y3czjszan6hsnojzw5z9ps3vnar5b,31lm9edvop567896mtxeqz2pzkdnj0,xSGxNlfR,2020-0188,2020-06-04,15:05:03,15:19:10,NA,incomplete,189,gender,3,0,left,C_F_10.jpg,A_F_13.jpg,C_M_09.jpg,left,739.6399999997811,true,high,false
xSGxNlfR,3y3czjszan6hsnojzw5z9ps3vnar5b,31lm9edvop567896mtxeqz2pzkdnj0,xSGxNlfR,2020-0188,2020-06-04,15:05:03,15:19:10,NA,incomplete,190,gender,3,1,left,C_M_02.jpg,A_M_06.jpg,C_F_03.jpg,left,708.9999999880092,true,high,false
xSGxNlfR,3y3czjszan6hsnojzw5z9ps3vnar5b,31lm9edvop567896mtxeqz2pzkdnj0,xSGxNlfR,2020-0188,2020-06-04,15:05:03,15:19:10,NA,incomplete,191,gender,3,0,left,C_F_12.jpg,A_F_09.jpg,C_M_06.jpg,left,838.434999997844,true,high,false
xSGxNlfR,3y3czjszan6hsnojzw5z9ps3vnar5b,31lm9edvop567896mtxeqz2pzkdnj0,xSGxNlfR,2020-0188,2020-06-04,15:05:03,15:19:10,NA,incomplete,192,gender,3,1,right,C_M_07.jpg,C_F_11.jpg,A_M_10.jpg,right,755.9800000017276,true,high,false
xSGxNlfR,3y3czjszan6hsnojzw5z9ps3vnar5b,31lm9edvop567896mtxeqz2pzkdnj0,xSGxNlfR,2020-0188,2020-06-04,15:05:03,15:19:10,NA,incomplete,193,gender,3,1,right,C_F_09.jpg,C_M_04.jpg,A_F_12.jpg,right,745.8299999998417,true,high,false
xSGxNlfR,3y3czjszan6hsnojzw5z9ps3vnar5b,31lm9edvop567896mtxeqz2pzkdnj0,xSGxNlfR,2020-0188,2020-06-04,15:05:03,15:19:10,NA,incomplete,194,gender,3,1,right,C_F_15.jpg,C_M_05.jpg,A_F_09.jpg,right,766.9600000081118,true,high,false
xSGxNlfR,3y3czjszan6hsnojzw5z9ps3vnar5b,31lm9edvop567896mtxeqz2pzkdnj0,xSGxNlfR,2020-0188,2020-06-04,15:05:03,15:19:10,NA,incomplete,195,gender,3,1,right,C_M_14.jpg,C_F_05.jpg,A_M_07.jpg,right,1150.1250000001164,true,high,false
xSGxNlfR,3y3czjszan6hsnojzw5z9ps3vnar5b,31lm9edvop567896mtxeqz2pzkdnj0,xSGxNlfR,2020-0188,2020-06-04,15:05:03,15:19:10,NA,incomplete,196,gender,3,1,left,C_M_03.jpg,A_M_11.jpg,C_F_10.jpg,left,717.2650000138674,true,high,false
xSGxNlfR,3y3czjszan6hsnojzw5z9ps3vnar5b,31lm9edvop567896mtxeqz2pzkdnj0,xSGxNlfR,2020-0188,2020-06-04,15:05:03,15:19:10,NA,incomplete,197,gender,3,0,right,C_M_09.jpg,C_F_02.jpg,A_M_05.jpg,right,673.7900000007357,true,high,false
xSGxNlfR,3y3czjszan6hsnojzw5z9ps3vnar5b,31lm9edvop567896mtxeqz2pzkdnj0,xSGxNlfR,2020-0188,2020-06-04,15:05:03,15:19:10,NA,incomplete,198,gender,3,1,left,A_F_16.jpg,C_F_01.jpg,A_M_15.jpg,left,1055.7600000029197,true,high,false
xSGxNlfR,3y3czjszan6hsnojzw5z9ps3vnar5b,31lm9edvop567896mtxeqz2pzkdnj0,xSGxNlfR,2020-0188,2020-06-04,15:05:03,15:19:10,NA,incomplete,199,gender,3,0,left,C_M_16.jpg,A_M_12.jpg,C_F_01.jpg,left,829.764999987674,true,high,false
xSGxNlfR,3y3czjszan6hsnojzw5z9ps3vnar5b,31lm9edvop567896mtxeqz2pzkdnj0,xSGxNlfR,2020-0188,2020-06-04,15:05:03,15:19:10,NA,incomplete,200,race,2,1,right,C_M_03.jpg,A_M_15.jpg,C_F_06.jpg,right,1289.7499999962747,true,high,false
xSGxNlfR,3y3czjszan6hsnojzw5z9ps3vnar5b,31lm9edvop567896mtxeqz2pzkdnj0,xSGxNlfR,2020-0188,2020-06-04,15:05:03,15:19:10,NA,incomplete,201,race,2,1,right,C_F_06.jpg,A_F_03.jpg,C_M_04.jpg,right,1191.5049999952316,true,high,false
xSGxNlfR,3y3czjszan6hsnojzw5z9ps3vnar5b,31lm9edvop567896mtxeqz2pzkdnj0,xSGxNlfR,2020-0188,2020-06-04,15:05:03,15:19:10,NA,incomplete,202,race,2,0,right,C_M_04.jpg,A_M_09.jpg,C_F_14.jpg,right,750.2399999939371,true,high,false
xSGxNlfR,3y3czjszan6hsnojzw5z9ps3vnar5b,31lm9edvop567896mtxeqz2pzkdnj0,xSGxNlfR,2020-0188,2020-06-04,15:05:03,15:19:10,NA,incomplete,203,race,2,1,left,A_M_14.jpg,A_F_10.jpg,C_M_12.jpg,left,840.4200000077253,true,high,false
xSGxNlfR,3y3czjszan6hsnojzw5z9ps3vnar5b,31lm9edvop567896mtxeqz2pzkdnj0,xSGxNlfR,2020-0188,2020-06-04,15:05:03,15:19:10,NA,incomplete,204,race,2,1,right,C_M_04.jpg,A_M_13.jpg,C_F_14.jpg,right,793.0799999885494,true,high,false
xSGxNlfR,3y3czjszan6hsnojzw5z9ps3vnar5b,31lm9edvop567896mtxeqz2pzkdnj0,xSGxNlfR,2020-0188,2020-06-04,15:05:03,15:19:10,NA,incomplete,205,race,2,1,right,C_F_12.jpg,A_F_03.jpg,C_M_16.jpg,right,760.4450000071665,true,high,false
xSGxNlfR,3y3czjszan6hsnojzw5z9ps3vnar5b,31lm9edvop567896mtxeqz2pzkdnj0,xSGxNlfR,2020-0188,2020-06-04,15:05:03,15:19:10,NA,incomplete,206,race,2,1,right,A_M_08.jpg,C_M_14.jpg,A_F_15.jpg,right,809.1399999975692,true,high,false
xSGxNlfR,3y3czjszan6hsnojzw5z9ps3vnar5b,31lm9edvop567896mtxeqz2pzkdnj0,xSGxNlfR,2020-0188,2020-06-04,15:05:03,15:19:10,NA,incomplete,207,race,2,0,right,C_M_06.jpg,A_M_07.jpg,C_F_12.jpg,right,706.225000001723,true,high,false
xSGxNlfR,3y3czjszan6hsnojzw5z9ps3vnar5b,31lm9edvop567896mtxeqz2pzkdnj0,xSGxNlfR,2020-0188,2020-06-04,15:05:03,15:19:10,NA,incomplete,208,race,2,1,right,C_F_14.jpg,A_F_16.jpg,C_M_06.jpg,right,760.5800000019372,true,high,false
xSGxNlfR,3y3czjszan6hsnojzw5z9ps3vnar5b,31lm9edvop567896mtxeqz2pzkdnj0,xSGxNlfR,2020-0188,2020-06-04,15:05:03,15:19:10,NA,incomplete,209,race,2,1,left,A_F_11.jpg,A_M_09.jpg,C_F_07.jpg,left,837.1199999965029,true,high,false
xSGxNlfR,3y3czjszan6hsnojzw5z9ps3vnar5b,31lm9edvop567896mtxeqz2pzkdnj0,xSGxNlfR,2020-0188,2020-06-04,15:05:03,15:19:10,NA,incomplete,210,race,2,1,left,A_F_05.jpg,A_M_04.jpg,C_F_03.jpg,left,1012.975000005099,true,high,false
xSGxNlfR,3y3czjszan6hsnojzw5z9ps3vnar5b,31lm9edvop567896mtxeqz2pzkdnj0,xSGxNlfR,2020-0188,2020-06-04,15:05:03,15:19:10,NA,incomplete,211,race,2,0,left,A_M_04.jpg,A_F_14.jpg,C_M_08.jpg,left,995.3250000107801,true,high,false
xSGxNlfR,3y3czjszan6hsnojzw5z9ps3vnar5b,31lm9edvop567896mtxeqz2pzkdnj0,xSGxNlfR,2020-0188,2020-06-04,15:05:03,15:19:10,NA,incomplete,212,race,2,1,left,C_M_09.jpg,C_F_01.jpg,A_M_08.jpg,left,1014.4799999980023,true,high,false
xSGxNlfR,3y3czjszan6hsnojzw5z9ps3vnar5b,31lm9edvop567896mtxeqz2pzkdnj0,xSGxNlfR,2020-0188,2020-06-04,15:05:03,15:19:10,NA,incomplete,213,race,2,1,left,A_M_08.jpg,A_F_11.jpg,C_M_01.jpg,left,936.0600000072736,true,high,false
xSGxNlfR,3y3czjszan6hsnojzw5z9ps3vnar5b,31lm9edvop567896mtxeqz2pzkdnj0,xSGxNlfR,2020-0188,2020-06-04,15:05:03,15:19:10,NA,incomplete,214,race,2,1,left,C_M_04.jpg,C_F_06.jpg,A_M_03.jpg,left,859.2349999962607,true,high,false
xSGxNlfR,3y3czjszan6hsnojzw5z9ps3vnar5b,31lm9edvop567896mtxeqz2pzkdnj0,xSGxNlfR,2020-0188,2020-06-04,15:05:03,15:19:10,NA,incomplete,215,race,2,1,right,A_M_09.jpg,C_M_16.jpg,A_F_01.jpg,right,891.0949999990407,true,high,false
xSGxNlfR,3y3czjszan6hsnojzw5z9ps3vnar5b,31lm9edvop567896mtxeqz2pzkdnj0,xSGxNlfR,2020-0188,2020-06-04,15:05:03,15:19:10,NA,incomplete,216,race,2,1,left,C_F_04.jpg,C_M_09.jpg,A_F_15.jpg,left,1280.5500000104075,true,high,false
xSGxNlfR,3y3czjszan6hsnojzw5z9ps3vnar5b,31lm9edvop567896mtxeqz2pzkdnj0,xSGxNlfR,2020-0188,2020-06-04,15:05:03,15:19:10,NA,incomplete,217,race,2,1,right,A_F_14.jpg,C_F_01.jpg,A_M_10.jpg,right,821.8550000019604,true,high,false
xSGxNlfR,3y3czjszan6hsnojzw5z9ps3vnar5b,31lm9edvop567896mtxeqz2pzkdnj0,xSGxNlfR,2020-0188,2020-06-04,15:05:03,15:19:10,NA,incomplete,218,race,2,1,left,C_F_12.jpg,C_M_08.jpg,A_F_14.jpg,left,810.075000001234,true,high,false
xSGxNlfR,3y3czjszan6hsnojzw5z9ps3vnar5b,31lm9edvop567896mtxeqz2pzkdnj0,xSGxNlfR,2020-0188,2020-06-04,15:05:03,15:19:10,NA,incomplete,219,race,2,1,left,C_M_02.jpg,C_F_04.jpg,A_M_08.jpg,left,877.5500000047032,true,high,false
xSGxNlfR,3y3czjszan6hsnojzw5z9ps3vnar5b,31lm9edvop567896mtxeqz2pzkdnj0,xSGxNlfR,2020-0188,2020-06-04,15:05:03,15:19:10,NA,incomplete,220,gender,3,1,left,C_M_12.jpg,A_M_03.jpg,C_F_07.jpg,right,928.6200000060489,false,high,false
xSGxNlfR,3y3czjszan6hsnojzw5z9ps3vnar5b,31lm9edvop567896mtxeqz2pzkdnj0,xSGxNlfR,2020-0188,2020-06-04,15:05:03,15:19:10,NA,incomplete,221,gender,3,1,left,C_F_15.jpg,A_F_12.jpg,C_M_02.jpg,right,1636.1500000057276,false,high,false
xSGxNlfR,3y3czjszan6hsnojzw5z9ps3vnar5b,31lm9edvop567896mtxeqz2pzkdnj0,xSGxNlfR,2020-0188,2020-06-04,15:05:03,15:19:10,NA,incomplete,222,gender,3,0,right,C_F_04.jpg,C_M_05.jpg,A_F_02.jpg,left,1053.090000001248,false,high,false
xSGxNlfR,3y3czjszan6hsnojzw5z9ps3vnar5b,31lm9edvop567896mtxeqz2pzkdnj0,xSGxNlfR,2020-0188,2020-06-04,15:05:03,15:19:10,NA,incomplete,223,gender,3,1,left,C_F_14.jpg,A_F_07.jpg,C_M_04.jpg,right,957.9700000031153,false,high,false
xSGxNlfR,3y3czjszan6hsnojzw5z9ps3vnar5b,31lm9edvop567896mtxeqz2pzkdnj0,xSGxNlfR,2020-0188,2020-06-04,15:05:03,15:19:10,NA,incomplete,224,gender,3,0,right,A_F_16.jpg,A_M_15.jpg,C_F_10.jpg,right,973.5950000031153,true,high,false
xSGxNlfR,3y3czjszan6hsnojzw5z9ps3vnar5b,31lm9edvop567896mtxeqz2pzkdnj0,xSGxNlfR,2020-0188,2020-06-04,15:05:03,15:19:10,NA,incomplete,225,gender,3,1,right,C_M_01.jpg,C_F_03.jpg,A_M_07.jpg,left,842.4249999952735,false,high,false
xSGxNlfR,3y3czjszan6hsnojzw5z9ps3vnar5b,31lm9edvop567896mtxeqz2pzkdnj0,xSGxNlfR,2020-0188,2020-06-04,15:05:03,15:19:10,NA,incomplete,226,gender,3,0,right,A_F_03.jpg,A_M_08.jpg,C_F_07.jpg,left,801.5699999959907,false,high,false
xSGxNlfR,3y3czjszan6hsnojzw5z9ps3vnar5b,31lm9edvop567896mtxeqz2pzkdnj0,xSGxNlfR,2020-0188,2020-06-04,15:05:03,15:19:10,NA,incomplete,227,gender,3,1,left,C_M_15.jpg,A_M_10.jpg,C_F_12.jpg,right,1093.6300000030315,false,high,false
xSGxNlfR,3y3czjszan6hsnojzw5z9ps3vnar5b,31lm9edvop567896mtxeqz2pzkdnj0,xSGxNlfR,2020-0188,2020-06-04,15:05:03,15:19:10,NA,incomplete,228,gender,3,1,right,A_F_03.jpg,A_M_05.jpg,C_F_11.jpg,left,912.7650000009453,false,high,false
xSGxNlfR,3y3czjszan6hsnojzw5z9ps3vnar5b,31lm9edvop567896mtxeqz2pzkdnj0,xSGxNlfR,2020-0188,2020-06-04,15:05:03,15:19:10,NA,incomplete,229,gender,3,0,left,A_M_11.jpg,C_M_12.jpg,A_F_08.jpg,left,773.1199999980163,true,high,false
xSGxNlfR,3y3czjszan6hsnojzw5z9ps3vnar5b,31lm9edvop567896mtxeqz2pzkdnj0,xSGxNlfR,2020-0188,2020-06-04,15:05:03,15:19:10,NA,incomplete,230,gender,3,1,left,C_M_01.jpg,A_M_07.jpg,C_F_15.jpg,right,987.6300000032643,false,high,false
xSGxNlfR,3y3czjszan6hsnojzw5z9ps3vnar5b,31lm9edvop567896mtxeqz2pzkdnj0,xSGxNlfR,2020-0188,2020-06-04,15:05:03,15:19:10,NA,incomplete,231,gender,3,1,right,A_M_10.jpg,A_F_02.jpg,C_M_09.jpg,left,964.3899999937275,false,high,false
xSGxNlfR,3y3czjszan6hsnojzw5z9ps3vnar5b,31lm9edvop567896mtxeqz2pzkdnj0,xSGxNlfR,2020-0188,2020-06-04,15:05:03,15:19:10,NA,incomplete,232,gender,3,1,left,C_M_06.jpg,A_M_14.jpg,C_F_01.jpg,right,946.3799999939511,false,high,false
xSGxNlfR,3y3czjszan6hsnojzw5z9ps3vnar5b,31lm9edvop567896mtxeqz2pzkdnj0,xSGxNlfR,2020-0188,2020-06-04,15:05:03,15:19:10,NA,incomplete,233,gender,3,0,left,A_M_13.jpg,C_M_08.jpg,A_F_07.jpg,right,727.6049999927636,false,high,false
xSGxNlfR,3y3czjszan6hsnojzw5z9ps3vnar5b,31lm9edvop567896mtxeqz2pzkdnj0,xSGxNlfR,2020-0188,2020-06-04,15:05:03,15:19:10,NA,incomplete,234,gender,3,1,right,C_F_04.jpg,C_M_10.jpg,A_F_09.jpg,left,728.5549999942305,false,high,false
xSGxNlfR,3y3czjszan6hsnojzw5z9ps3vnar5b,31lm9edvop567896mtxeqz2pzkdnj0,xSGxNlfR,2020-0188,2020-06-04,15:05:03,15:19:10,NA,incomplete,235,gender,3,1,left,A_M_13.jpg,C_M_08.jpg,A_F_15.jpg,right,850.8450000081211,false,high,false
xSGxNlfR,3y3czjszan6hsnojzw5z9ps3vnar5b,31lm9edvop567896mtxeqz2pzkdnj0,xSGxNlfR,2020-0188,2020-06-04,15:05:03,15:19:10,NA,incomplete,236,gender,3,1,right,A_F_10.jpg,A_M_13.jpg,C_F_02.jpg,right,933.7050000031013,true,high,false
xSGxNlfR,3y3czjszan6hsnojzw5z9ps3vnar5b,31lm9edvop567896mtxeqz2pzkdnj0,xSGxNlfR,2020-0188,2020-06-04,15:05:03,15:19:10,NA,incomplete,237,gender,3,1,left,C_M_08.jpg,A_M_10.jpg,C_F_07.jpg,left,676.2749999907101,true,high,false
xSGxNlfR,3y3czjszan6hsnojzw5z9ps3vnar5b,31lm9edvop567896mtxeqz2pzkdnj0,xSGxNlfR,2020-0188,2020-06-04,15:05:03,15:19:10,NA,incomplete,238,gender,3,0,right,C_M_14.jpg,C_F_15.jpg,A_M_16.jpg,right,940.0400000013178,true,high,false
xSGxNlfR,3y3czjszan6hsnojzw5z9ps3vnar5b,31lm9edvop567896mtxeqz2pzkdnj0,xSGxNlfR,2020-0188,2020-06-04,15:05:03,15:19:10,NA,incomplete,239,gender,3,1,right,C_F_11.jpg,C_M_08.jpg,A_F_14.jpg,right,814.9149999953806,true,high,false
xSGxNlfR,3y3czjszan6hsnojzw5z9ps3vnar5b,31lm9edvop567896mtxeqz2pzkdnj0,xSGxNlfR,2020-0188,2020-06-04,15:05:03,15:19:10,NA,NA,instruction example,shape,NA,NA,NA,Red_Triangle_Stripes_2.jpg,Purple_Triangle_Chess_4.jpg,Blue_Plus_Stripes_3.jpg,NA,NA,NA,NA,undefined
xSGxNlfR,3y3czjszan6hsnojzw5z9ps3vnar5b,31lm9edvop567896mtxeqz2pzkdnj0,xSGxNlfR,2020-0188,2020-06-04,15:05:03,15:19:10,NA,NA,instruction example,shape,NA,NA,NA,Blue_Circle_Chess_4.jpg,Green_Plus_Chess_2.jpg,Red_Circle_Dots_1.jpg,NA,NA,NA,NA,undefined
xSGxNlfR,3y3czjszan6hsnojzw5z9ps3vnar5b,31lm9edvop567896mtxeqz2pzkdnj0,xSGxNlfR,2020-0188,2020-06-04,15:05:03,15:19:10,NA,NA,instruction example,shape,NA,NA,NA,A_M_16.jpg,A_F_06.jpg,C_M_15.jpg,NA,NA,NA,NA,undefined
xSGxNlfR,3y3czjszan6hsnojzw5z9ps3vnar5b,31lm9edvop567896mtxeqz2pzkdnj0,xSGxNlfR,2020-0188,2020-06-04,15:05:03,15:19:10,NA,NA,instruction example,shape,NA,NA,NA,A_M_10.jpg,C_M_09.jpg,A_F_05.jpg,NA,NA,NA,NA,undefined
xSGxNlfR,3y3czjszan6hsnojzw5z9ps3vnar5b,31lm9edvop567896mtxeqz2pzkdnj0,xSGxNlfR,2020-0188,2020-06-04,15:05:03,15:19:10,830510.3450000024,848207.3050000035,NA,NA,NA,NA,NA,NA,NA,NA,NA,NA,NA,NA,undefined
