workerId,hitId,assignmentId,subject,studyid,exp_date,exp_start,exp_end,time_start,time_end,trial,type,sequence,reward_validity,answer,image_top,image_left,image_right,response,response_time,response_acc,volatility,age,race,gender,ethnicity,color,vision,neuro,practice
blKffzXR,3e9vauv7czrnvucm8noapw1mqoqyaq,31z0pcvwuosbiqdoigutw838x89t7c,blKffzXR,2020-0188,2020-06-04,13:53:54,14:16:55,NA,incomplete,0,shape,0,1,left,Purple_Plus_Dots_2.jpg,Blue_Plus_Grid_4.jpg,Green_Triangle_Dots_3.jpg,right,1794.5349999936298,false,NA,NA,NA,NA,NA,NA,NA,NA,true
blKffzXR,3e9vauv7czrnvucm8noapw1mqoqyaq,31z0pcvwuosbiqdoigutw838x89t7c,blKffzXR,2020-0188,2020-06-04,13:53:54,14:16:55,NA,incomplete,1,shape,0,1,left,Red_Plus_Stripes_2.jpg,Purple_Plus_Dots_4.jpg,Green_Star_Stripes_1.jpg,left,1504.1249999776483,true,NA,NA,NA,NA,NA,NA,NA,NA,true
blKffzXR,3e9vauv7czrnvucm8noapw1mqoqyaq,31z0pcvwuosbiqdoigutw838x89t7c,blKffzXR,2020-0188,2020-06-04,13:53:54,14:16:55,NA,incomplete,2,shape,0,1,right,Red_Star_Chess_3.jpg,Purple_Triangle_Chess_2.jpg,Green_Star_Stripes_4.jpg,right,1377.5000000023283,true,NA,NA,NA,NA,NA,NA,NA,NA,true
blKffzXR,3e9vauv7czrnvucm8noapw1mqoqyaq,31z0pcvwuosbiqdoigutw838x89t7c,blKffzXR,2020-0188,2020-06-04,13:53:54,14:16:55,NA,incomplete,3,shape,0,1,left,Green_Plus_Stripes_3.jpg,Blue_Plus_Grid_2.jpg,Purple_Circle_Stripes_4.jpg,left,1103.995000012219,true,NA,NA,NA,NA,NA,NA,NA,NA,true
blKffzXR,3e9vauv7czrnvucm8noapw1mqoqyaq,31z0pcvwuosbiqdoigutw838x89t7c,blKffzXR,2020-0188,2020-06-04,13:53:54,14:16:55,NA,incomplete,4,shape,0,1,left,Green_Plus_Chess_2.jpg,Red_Plus_Grid_1.jpg,Purple_Star_Chess_3.jpg,left,1376.4550000196323,true,NA,NA,NA,NA,NA,NA,NA,NA,true
blKffzXR,3e9vauv7czrnvucm8noapw1mqoqyaq,31z0pcvwuosbiqdoigutw838x89t7c,blKffzXR,2020-0188,2020-06-04,13:53:54,14:16:55,NA,incomplete,5,shape,0,1,right,Blue_Star_Dots_3.jpg,Green_Triangle_Dots_1.jpg,Purple_Star_Grid_4.jpg,right,1359.0149999945424,true,NA,NA,NA,NA,NA,NA,NA,NA,true
blKffzXR,3e9vauv7czrnvucm8noapw1mqoqyaq,31z0pcvwuosbiqdoigutw838x89t7c,blKffzXR,2020-0188,2020-06-04,13:53:54,14:16:55,NA,incomplete,6,shape,0,0,right,Green_Star_Stripes_1.jpg,Red_Plus_Stripes_2.jpg,Blue_Star_Grid_4.jpg,right,1181.6749999998137,true,NA,NA,NA,NA,NA,NA,NA,NA,true
blKffzXR,3e9vauv7czrnvucm8noapw1mqoqyaq,31z0pcvwuosbiqdoigutw838x89t7c,blKffzXR,2020-0188,2020-06-04,13:53:54,14:16:55,NA,incomplete,7,shape,0,1,right,Red_Star_Chess_2.jpg,Green_Triangle_Chess_4.jpg,Purple_Star_Stripes_1.jpg,right,1156.5650000120513,true,NA,NA,NA,NA,NA,NA,NA,NA,true
blKffzXR,3e9vauv7czrnvucm8noapw1mqoqyaq,31z0pcvwuosbiqdoigutw838x89t7c,blKffzXR,2020-0188,2020-06-04,13:53:54,14:16:55,NA,incomplete,8,shape,0,1,left,Blue_Circle_Chess_1.jpg,Green_Circle_Stripes_4.jpg,Purple_Star_Chess_2.jpg,left,979.1400000103749,true,NA,NA,NA,NA,NA,NA,NA,NA,true
blKffzXR,3e9vauv7czrnvucm8noapw1mqoqyaq,31z0pcvwuosbiqdoigutw838x89t7c,blKffzXR,2020-0188,2020-06-04,13:53:54,14:16:55,NA,incomplete,9,shape,0,0,right,Red_Star_Dots_2.jpg,Blue_Plus_Dots_3.jpg,Purple_Star_Grid_4.jpg,right,993.2550000376068,true,NA,NA,NA,NA,NA,NA,NA,NA,true
blKffzXR,3e9vauv7czrnvucm8noapw1mqoqyaq,31z0pcvwuosbiqdoigutw838x89t7c,blKffzXR,2020-0188,2020-06-04,13:53:54,14:16:55,NA,incomplete,10,shape,0,1,right,Red_Triangle_Stripes_4.jpg,Blue_Star_Stripes_1.jpg,Purple_Triangle_Grid_3.jpg,right,1046.7950000311248,true,NA,NA,NA,NA,NA,NA,NA,NA,true
blKffzXR,3e9vauv7czrnvucm8noapw1mqoqyaq,31z0pcvwuosbiqdoigutw838x89t7c,blKffzXR,2020-0188,2020-06-04,13:53:54,14:16:55,NA,incomplete,11,shape,0,1,left,Red_Circle_Chess_2.jpg,Green_Circle_Stripes_4.jpg,Blue_Plus_Chess_3.jpg,left,938.2300000288524,true,NA,NA,NA,NA,NA,NA,NA,NA,true
blKffzXR,3e9vauv7czrnvucm8noapw1mqoqyaq,31z0pcvwuosbiqdoigutw838x89t7c,blKffzXR,2020-0188,2020-06-04,13:53:54,14:16:55,NA,incomplete,12,shape,0,1,left,Purple_Star_Chess_1.jpg,Red_Star_Dots_2.jpg,Blue_Plus_Chess_3.jpg,left,1058.6650000186637,true,NA,NA,NA,NA,NA,NA,NA,NA,true
blKffzXR,3e9vauv7czrnvucm8noapw1mqoqyaq,31z0pcvwuosbiqdoigutw838x89t7c,blKffzXR,2020-0188,2020-06-04,13:53:54,14:16:55,NA,incomplete,13,shape,0,1,right,Red_Plus_Grid_4.jpg,Green_Star_Grid_1.jpg,Blue_Plus_Dots_3.jpg,right,1013.0549999885261,true,NA,NA,NA,NA,NA,NA,NA,NA,true
blKffzXR,3e9vauv7czrnvucm8noapw1mqoqyaq,31z0pcvwuosbiqdoigutw838x89t7c,blKffzXR,2020-0188,2020-06-04,13:53:54,14:16:55,NA,incomplete,14,shape,0,1,right,Red_Star_Dots_1.jpg,Green_Circle_Dots_4.jpg,Purple_Star_Grid_2.jpg,right,993.7799999606796,true,NA,NA,NA,NA,NA,NA,NA,NA,true
blKffzXR,3e9vauv7czrnvucm8noapw1mqoqyaq,31z0pcvwuosbiqdoigutw838x89t7c,blKffzXR,2020-0188,2020-06-04,13:53:54,14:16:55,NA,incomplete,15,shape,0,1,right,Green_Plus_Stripes_2.jpg,Red_Circle_Stripes_3.jpg,Purple_Plus_Chess_4.jpg,right,1095.6850000075065,true,NA,NA,NA,NA,NA,NA,NA,NA,true
blKffzXR,3e9vauv7czrnvucm8noapw1mqoqyaq,31z0pcvwuosbiqdoigutw838x89t7c,blKffzXR,2020-0188,2020-06-04,13:53:54,14:16:55,NA,incomplete,16,shape,0,1,left,Blue_Plus_Grid_2.jpg,Purple_Plus_Stripes_4.jpg,Green_Star_Grid_3.jpg,left,1089.3899999791756,true,NA,NA,NA,NA,NA,NA,NA,NA,true
blKffzXR,3e9vauv7czrnvucm8noapw1mqoqyaq,31z0pcvwuosbiqdoigutw838x89t7c,blKffzXR,2020-0188,2020-06-04,13:53:54,14:16:55,NA,incomplete,17,shape,0,1,left,Green_Plus_Grid_2.jpg,Blue_Plus_Chess_3.jpg,Purple_Star_Grid_1.jpg,left,994.5549999829382,true,NA,NA,NA,NA,NA,NA,NA,NA,true
blKffzXR,3e9vauv7czrnvucm8noapw1mqoqyaq,31z0pcvwuosbiqdoigutw838x89t7c,blKffzXR,2020-0188,2020-06-04,13:53:54,14:16:55,NA,incomplete,18,shape,0,1,left,Green_Star_Dots_2.jpg,Red_Star_Stripes_1.jpg,Purple_Circle_Dots_4.jpg,left,1008.1550000468269,true,NA,NA,NA,NA,NA,NA,NA,NA,true
blKffzXR,3e9vauv7czrnvucm8noapw1mqoqyaq,31z0pcvwuosbiqdoigutw838x89t7c,blKffzXR,2020-0188,2020-06-04,13:53:54,14:16:55,NA,incomplete,19,shape,0,1,left,Red_Star_Grid_1.jpg,Green_Star_Dots_2.jpg,Blue_Plus_Grid_4.jpg,left,917.0049999956973,true,NA,NA,NA,NA,NA,NA,NA,NA,true
blKffzXR,3e9vauv7czrnvucm8noapw1mqoqyaq,31z0pcvwuosbiqdoigutw838x89t7c,blKffzXR,2020-0188,2020-06-04,13:53:54,14:16:55,NA,incomplete,20,filling,1,1,left,Blue_Plus_Stripes_1.jpg,Green_Circle_Stripes_3.jpg,Red_Plus_Grid_2.jpg,right,1510.344999958761,false,NA,NA,NA,NA,NA,NA,NA,NA,true
blKffzXR,3e9vauv7czrnvucm8noapw1mqoqyaq,31z0pcvwuosbiqdoigutw838x89t7c,blKffzXR,2020-0188,2020-06-04,13:53:54,14:16:55,NA,incomplete,21,filling,1,1,right,Red_Plus_Stripes_4.jpg,Blue_Plus_Grid_1.jpg,Green_Triangle_Stripes_2.jpg,right,1430.9050000156276,true,NA,NA,NA,NA,NA,NA,NA,NA,true
blKffzXR,3e9vauv7czrnvucm8noapw1mqoqyaq,31z0pcvwuosbiqdoigutw838x89t7c,blKffzXR,2020-0188,2020-06-04,13:53:54,14:16:55,NA,incomplete,22,filling,1,1,left,Blue_Plus_Dots_1.jpg,Green_Star_Dots_3.jpg,Purple_Plus_Grid_2.jpg,left,1435.3899999987334,true,NA,NA,NA,NA,NA,NA,NA,NA,true
blKffzXR,3e9vauv7czrnvucm8noapw1mqoqyaq,31z0pcvwuosbiqdoigutw838x89t7c,blKffzXR,2020-0188,2020-06-04,13:53:54,14:16:55,NA,incomplete,23,filling,1,1,right,Red_Triangle_Grid_4.jpg,Purple_Triangle_Chess_2.jpg,Blue_Star_Grid_1.jpg,right,1566.4850000175647,true,NA,NA,NA,NA,NA,NA,NA,NA,true
blKffzXR,3e9vauv7czrnvucm8noapw1mqoqyaq,31z0pcvwuosbiqdoigutw838x89t7c,blKffzXR,2020-0188,2020-06-04,13:53:54,14:16:55,NA,incomplete,24,filling,1,1,left,Blue_Circle_Chess_2.jpg,Purple_Plus_Chess_3.jpg,Red_Circle_Stripes_4.jpg,left,1445.7099999999627,true,NA,NA,NA,NA,NA,NA,NA,NA,true
blKffzXR,3e9vauv7czrnvucm8noapw1mqoqyaq,31z0pcvwuosbiqdoigutw838x89t7c,blKffzXR,2020-0188,2020-06-04,13:53:54,14:16:55,NA,incomplete,25,filling,1,0,left,Blue_Plus_Stripes_4.jpg,Red_Star_Stripes_2.jpg,Purple_Plus_Dots_1.jpg,left,1352.6800000108778,true,NA,NA,NA,NA,NA,NA,NA,NA,true
blKffzXR,3e9vauv7czrnvucm8noapw1mqoqyaq,31z0pcvwuosbiqdoigutw838x89t7c,blKffzXR,2020-0188,2020-06-04,13:53:54,14:16:55,NA,incomplete,26,filling,1,0,right,Blue_Star_Chess_3.jpg,Green_Star_Stripes_4.jpg,Purple_Plus_Chess_1.jpg,right,1384.105000004638,true,NA,NA,NA,NA,NA,NA,NA,NA,true
blKffzXR,3e9vauv7czrnvucm8noapw1mqoqyaq,31z0pcvwuosbiqdoigutw838x89t7c,blKffzXR,2020-0188,2020-06-04,13:53:54,14:16:55,NA,incomplete,27,filling,1,1,right,Green_Triangle_Grid_2.jpg,Blue_Triangle_Stripes_4.jpg,Red_Circle_Grid_1.jpg,right,1445.7449999754317,true,NA,NA,NA,NA,NA,NA,NA,NA,true
blKffzXR,3e9vauv7czrnvucm8noapw1mqoqyaq,31z0pcvwuosbiqdoigutw838x89t7c,blKffzXR,2020-0188,2020-06-04,13:53:54,14:16:55,NA,incomplete,28,filling,1,0,right,Red_Plus_Dots_2.jpg,Blue_Plus_Stripes_3.jpg,Green_Star_Dots_4.jpg,right,1489.914999983739,true,NA,NA,NA,NA,NA,NA,NA,NA,true
blKffzXR,3e9vauv7czrnvucm8noapw1mqoqyaq,31z0pcvwuosbiqdoigutw838x89t7c,blKffzXR,2020-0188,2020-06-04,13:53:54,14:16:55,NA,incomplete,29,filling,1,1,left,Red_Circle_Dots_3.jpg,Green_Plus_Dots_4.jpg,Purple_Circle_Stripes_1.jpg,left,1331.2750000040978,true,NA,NA,NA,NA,NA,NA,NA,NA,true
blKffzXR,3e9vauv7czrnvucm8noapw1mqoqyaq,31z0pcvwuosbiqdoigutw838x89t7c,blKffzXR,2020-0188,2020-06-04,13:53:54,14:16:55,NA,incomplete,30,filling,1,0,left,Green_Plus_Dots_4.jpg,Red_Star_Dots_2.jpg,Purple_Plus_Grid_1.jpg,left,1539.565000042785,true,NA,NA,NA,NA,NA,NA,NA,NA,true
blKffzXR,3e9vauv7czrnvucm8noapw1mqoqyaq,31z0pcvwuosbiqdoigutw838x89t7c,blKffzXR,2020-0188,2020-06-04,13:53:54,14:16:55,NA,incomplete,31,filling,1,0,left,Green_Circle_Dots_3.jpg,Purple_Plus_Dots_4.jpg,Blue_Circle_Grid_2.jpg,left,1499.2950000450946,true,NA,NA,NA,NA,NA,NA,NA,NA,true
blKffzXR,3e9vauv7czrnvucm8noapw1mqoqyaq,31z0pcvwuosbiqdoigutw838x89t7c,blKffzXR,2020-0188,2020-06-04,13:53:54,14:16:55,NA,incomplete,32,filling,1,1,right,Red_Circle_Chess_3.jpg,Purple_Circle_Grid_2.jpg,Green_Triangle_Chess_1.jpg,right,1309.5999999786727,true,NA,NA,NA,NA,NA,NA,NA,NA,true
blKffzXR,3e9vauv7czrnvucm8noapw1mqoqyaq,31z0pcvwuosbiqdoigutw838x89t7c,blKffzXR,2020-0188,2020-06-04,13:53:54,14:16:55,NA,incomplete,33,filling,1,1,right,Red_Star_Chess_2.jpg,Purple_Star_Stripes_1.jpg,Green_Circle_Chess_3.jpg,right,1341.7200000258163,true,NA,NA,NA,NA,NA,NA,NA,NA,true
blKffzXR,3e9vauv7czrnvucm8noapw1mqoqyaq,31z0pcvwuosbiqdoigutw838x89t7c,blKffzXR,2020-0188,2020-06-04,13:53:54,14:16:55,NA,incomplete,34,filling,1,0,left,Red_Plus_Grid_3.jpg,Green_Star_Grid_1.jpg,Purple_Plus_Dots_2.jpg,left,1405.689999985043,true,NA,NA,NA,NA,NA,NA,NA,NA,true
blKffzXR,3e9vauv7czrnvucm8noapw1mqoqyaq,31z0pcvwuosbiqdoigutw838x89t7c,blKffzXR,2020-0188,2020-06-04,13:53:54,14:16:55,NA,incomplete,35,filling,1,1,right,Green_Plus_Chess_2.jpg,Blue_Plus_Grid_4.jpg,Purple_Triangle_Chess_1.jpg,right,1386.7750000208616,true,NA,NA,NA,NA,NA,NA,NA,NA,true
blKffzXR,3e9vauv7czrnvucm8noapw1mqoqyaq,31z0pcvwuosbiqdoigutw838x89t7c,blKffzXR,2020-0188,2020-06-04,13:53:54,14:16:55,NA,incomplete,36,filling,1,1,left,Purple_Circle_Stripes_2.jpg,Green_Plus_Stripes_1.jpg,Red_Circle_Chess_3.jpg,left,1176.804999995511,true,NA,NA,NA,NA,NA,NA,NA,NA,true
blKffzXR,3e9vauv7czrnvucm8noapw1mqoqyaq,31z0pcvwuosbiqdoigutw838x89t7c,blKffzXR,2020-0188,2020-06-04,13:53:54,14:16:55,NA,incomplete,37,filling,1,1,left,Green_Star_Grid_1.jpg,Red_Triangle_Grid_4.jpg,Blue_Star_Chess_2.jpg,left,1486.7300000041723,true,NA,NA,NA,NA,NA,NA,NA,NA,true
blKffzXR,3e9vauv7czrnvucm8noapw1mqoqyaq,31z0pcvwuosbiqdoigutw838x89t7c,blKffzXR,2020-0188,2020-06-04,13:53:54,14:16:55,NA,incomplete,38,filling,1,1,right,Blue_Plus_Chess_2.jpg,Purple_Plus_Grid_3.jpg,Red_Triangle_Chess_1.jpg,right,1272.3450000048615,true,NA,NA,NA,NA,NA,NA,NA,NA,true
blKffzXR,3e9vauv7czrnvucm8noapw1mqoqyaq,31z0pcvwuosbiqdoigutw838x89t7c,blKffzXR,2020-0188,2020-06-04,13:53:54,14:16:55,NA,incomplete,39,filling,1,1,right,Green_Plus_Chess_3.jpg,Red_Plus_Dots_4.jpg,Purple_Circle_Chess_1.jpg,right,1194.870000006631,true,NA,NA,NA,NA,NA,NA,NA,NA,true
blKffzXR,3e9vauv7czrnvucm8noapw1mqoqyaq,31z0pcvwuosbiqdoigutw838x89t7c,blKffzXR,2020-0188,2020-06-04,13:53:54,14:16:55,NA,incomplete,0,shape,0,0,right,Blue_Circle_Stripes_4.jpg,Purple_Triangle_Stripes_1.jpg,Green_Circle_Grid_3.jpg,right,1374.619999958668,true,low,NA,NA,NA,NA,NA,NA,NA,false
blKffzXR,3e9vauv7czrnvucm8noapw1mqoqyaq,31z0pcvwuosbiqdoigutw838x89t7c,blKffzXR,2020-0188,2020-06-04,13:53:54,14:16:55,NA,incomplete,1,shape,0,1,right,Green_Triangle_Chess_3.jpg,Blue_Star_Chess_4.jpg,Red_Triangle_Grid_1.jpg,right,843.7249999842606,true,low,NA,NA,NA,NA,NA,NA,NA,false
blKffzXR,3e9vauv7czrnvucm8noapw1mqoqyaq,31z0pcvwuosbiqdoigutw838x89t7c,blKffzXR,2020-0188,2020-06-04,13:53:54,14:16:55,NA,incomplete,2,shape,0,1,right,Blue_Circle_Stripes_4.jpg,Red_Triangle_Stripes_3.jpg,Purple_Circle_Dots_2.jpg,right,864.4149999599904,true,low,NA,NA,NA,NA,NA,NA,NA,false
blKffzXR,3e9vauv7czrnvucm8noapw1mqoqyaq,31z0pcvwuosbiqdoigutw838x89t7c,blKffzXR,2020-0188,2020-06-04,13:53:54,14:16:55,NA,incomplete,3,shape,0,1,left,Purple_Triangle_Stripes_1.jpg,Red_Triangle_Dots_4.jpg,Green_Circle_Stripes_3.jpg,left,979.2100000195205,true,low,NA,NA,NA,NA,NA,NA,NA,false
blKffzXR,3e9vauv7czrnvucm8noapw1mqoqyaq,31z0pcvwuosbiqdoigutw838x89t7c,blKffzXR,2020-0188,2020-06-04,13:53:54,14:16:55,NA,incomplete,4,shape,0,1,left,Green_Plus_Chess_3.jpg,Blue_Plus_Dots_4.jpg,Purple_Circle_Chess_2.jpg,left,913.715000031516,true,low,NA,NA,NA,NA,NA,NA,NA,false
blKffzXR,3e9vauv7czrnvucm8noapw1mqoqyaq,31z0pcvwuosbiqdoigutw838x89t7c,blKffzXR,2020-0188,2020-06-04,13:53:54,14:16:55,NA,incomplete,5,shape,0,1,left,Blue_Star_Dots_2.jpg,Red_Star_Grid_3.jpg,Purple_Plus_Dots_4.jpg,left,777.8450000332668,true,low,NA,NA,NA,NA,NA,NA,NA,false
blKffzXR,3e9vauv7czrnvucm8noapw1mqoqyaq,31z0pcvwuosbiqdoigutw838x89t7c,blKffzXR,2020-0188,2020-06-04,13:53:54,14:16:55,NA,incomplete,6,shape,0,0,right,Red_Star_Chess_1.jpg,Green_Plus_Chess_4.jpg,Purple_Star_Grid_3.jpg,right,896.1150000104681,true,low,NA,NA,NA,NA,NA,NA,NA,false
blKffzXR,3e9vauv7czrnvucm8noapw1mqoqyaq,31z0pcvwuosbiqdoigutw838x89t7c,blKffzXR,2020-0188,2020-06-04,13:53:54,14:16:55,NA,incomplete,7,shape,0,1,left,Green_Triangle_Dots_3.jpg,Red_Triangle_Grid_2.jpg,Blue_Circle_Dots_1.jpg,left,817.7299999515526,true,low,NA,NA,NA,NA,NA,NA,NA,false
blKffzXR,3e9vauv7czrnvucm8noapw1mqoqyaq,31z0pcvwuosbiqdoigutw838x89t7c,blKffzXR,2020-0188,2020-06-04,13:53:54,14:16:55,NA,incomplete,8,shape,0,1,right,Green_Circle_Dots_2.jpg,Blue_Triangle_Dots_1.jpg,Purple_Circle_Stripes_3.jpg,right,733.9799999608658,true,low,NA,NA,NA,NA,NA,NA,NA,false
blKffzXR,3e9vauv7czrnvucm8noapw1mqoqyaq,31z0pcvwuosbiqdoigutw838x89t7c,blKffzXR,2020-0188,2020-06-04,13:53:54,14:16:55,NA,incomplete,9,shape,0,1,right,Red_Plus_Stripes_1.jpg,Blue_Circle_Stripes_2.jpg,Green_Plus_Grid_4.jpg,right,869.8899999726564,true,low,NA,NA,NA,NA,NA,NA,NA,false
blKffzXR,3e9vauv7czrnvucm8noapw1mqoqyaq,31z0pcvwuosbiqdoigutw838x89t7c,blKffzXR,2020-0188,2020-06-04,13:53:54,14:16:55,NA,incomplete,10,shape,0,1,left,Blue_Star_Dots_1.jpg,Red_Star_Chess_2.jpg,Purple_Plus_Dots_3.jpg,left,815.0649999734014,true,low,NA,NA,NA,NA,NA,NA,NA,false
blKffzXR,3e9vauv7czrnvucm8noapw1mqoqyaq,31z0pcvwuosbiqdoigutw838x89t7c,blKffzXR,2020-0188,2020-06-04,13:53:54,14:16:55,NA,incomplete,11,shape,0,0,left,Red_Circle_Chess_1.jpg,Purple_Circle_Dots_2.jpg,Green_Plus_Chess_3.jpg,left,812.5,true,low,NA,NA,NA,NA,NA,NA,NA,false
blKffzXR,3e9vauv7czrnvucm8noapw1mqoqyaq,31z0pcvwuosbiqdoigutw838x89t7c,blKffzXR,2020-0188,2020-06-04,13:53:54,14:16:55,NA,incomplete,12,shape,0,0,right,Red_Star_Grid_2.jpg,Green_Triangle_Grid_3.jpg,Purple_Star_Chess_1.jpg,right,905.510000011418,true,low,NA,NA,NA,NA,NA,NA,NA,false
blKffzXR,3e9vauv7czrnvucm8noapw1mqoqyaq,31z0pcvwuosbiqdoigutw838x89t7c,blKffzXR,2020-0188,2020-06-04,13:53:54,14:16:55,NA,incomplete,13,shape,0,1,left,Green_Star_Stripes_2.jpg,Purple_Star_Grid_1.jpg,Red_Plus_Stripes_4.jpg,left,1130.1600000006147,true,low,NA,NA,NA,NA,NA,NA,NA,false
blKffzXR,3e9vauv7czrnvucm8noapw1mqoqyaq,31z0pcvwuosbiqdoigutw838x89t7c,blKffzXR,2020-0188,2020-06-04,13:53:54,14:16:55,NA,incomplete,14,shape,0,1,left,Green_Circle_Chess_3.jpg,Red_Circle_Dots_4.jpg,Blue_Triangle_Chess_2.jpg,left,851.0399999795482,true,low,NA,NA,NA,NA,NA,NA,NA,false
blKffzXR,3e9vauv7czrnvucm8noapw1mqoqyaq,31z0pcvwuosbiqdoigutw838x89t7c,blKffzXR,2020-0188,2020-06-04,13:53:54,14:16:55,NA,incomplete,15,shape,0,1,left,Blue_Plus_Dots_3.jpg,Green_Plus_Grid_4.jpg,Red_Triangle_Dots_1.jpg,left,861.4400000078604,true,low,NA,NA,NA,NA,NA,NA,NA,false
blKffzXR,3e9vauv7czrnvucm8noapw1mqoqyaq,31z0pcvwuosbiqdoigutw838x89t7c,blKffzXR,2020-0188,2020-06-04,13:53:54,14:16:55,NA,incomplete,16,shape,0,0,left,Blue_Circle_Grid_3.jpg,Red_Circle_Stripes_2.jpg,Green_Star_Grid_1.jpg,left,776.224999979604,true,low,NA,NA,NA,NA,NA,NA,NA,false
blKffzXR,3e9vauv7czrnvucm8noapw1mqoqyaq,31z0pcvwuosbiqdoigutw838x89t7c,blKffzXR,2020-0188,2020-06-04,13:53:54,14:16:55,NA,incomplete,17,shape,0,1,left,Blue_Plus_Dots_4.jpg,Green_Plus_Chess_2.jpg,Red_Triangle_Dots_1.jpg,left,886.3450000062585,true,low,NA,NA,NA,NA,NA,NA,NA,false
blKffzXR,3e9vauv7czrnvucm8noapw1mqoqyaq,31z0pcvwuosbiqdoigutw838x89t7c,blKffzXR,2020-0188,2020-06-04,13:53:54,14:16:55,NA,incomplete,18,shape,0,0,left,Blue_Star_Dots_2.jpg,Red_Star_Chess_3.jpg,Purple_Circle_Dots_4.jpg,left,815.7650000066496,true,low,NA,NA,NA,NA,NA,NA,NA,false
blKffzXR,3e9vauv7czrnvucm8noapw1mqoqyaq,31z0pcvwuosbiqdoigutw838x89t7c,blKffzXR,2020-0188,2020-06-04,13:53:54,14:16:55,NA,incomplete,19,shape,0,1,left,Blue_Triangle_Dots_2.jpg,Green_Triangle_Chess_4.jpg,Purple_Plus_Dots_1.jpg,left,940.5850000330247,true,low,NA,NA,NA,NA,NA,NA,NA,false
blKffzXR,3e9vauv7czrnvucm8noapw1mqoqyaq,31z0pcvwuosbiqdoigutw838x89t7c,blKffzXR,2020-0188,2020-06-04,13:53:54,14:16:55,NA,incomplete,20,shape,0,1,left,Green_Plus_Dots_4.jpg,Red_Plus_Grid_3.jpg,Purple_Star_Dots_1.jpg,left,780.2599999704398,true,low,NA,NA,NA,NA,NA,NA,NA,false
blKffzXR,3e9vauv7czrnvucm8noapw1mqoqyaq,31z0pcvwuosbiqdoigutw838x89t7c,blKffzXR,2020-0188,2020-06-04,13:53:54,14:16:55,NA,incomplete,21,shape,0,0,left,Blue_Circle_Dots_4.jpg,Purple_Circle_Grid_2.jpg,Red_Triangle_Dots_1.jpg,left,818.219999957364,true,low,NA,NA,NA,NA,NA,NA,NA,false
blKffzXR,3e9vauv7czrnvucm8noapw1mqoqyaq,31z0pcvwuosbiqdoigutw838x89t7c,blKffzXR,2020-0188,2020-06-04,13:53:54,14:16:55,NA,incomplete,22,shape,0,1,left,Green_Circle_Stripes_2.jpg,Purple_Circle_Chess_4.jpg,Blue_Triangle_Stripes_1.jpg,left,799.4499999913387,true,low,NA,NA,NA,NA,NA,NA,NA,false
blKffzXR,3e9vauv7czrnvucm8noapw1mqoqyaq,31z0pcvwuosbiqdoigutw838x89t7c,blKffzXR,2020-0188,2020-06-04,13:53:54,14:16:55,NA,incomplete,23,shape,0,1,left,Red_Star_Chess_2.jpg,Green_Star_Stripes_1.jpg,Purple_Triangle_Chess_4.jpg,left,819.9700000113808,true,low,NA,NA,NA,NA,NA,NA,NA,false
blKffzXR,3e9vauv7czrnvucm8noapw1mqoqyaq,31z0pcvwuosbiqdoigutw838x89t7c,blKffzXR,2020-0188,2020-06-04,13:53:54,14:16:55,NA,incomplete,24,shape,0,1,left,Green_Plus_Grid_4.jpg,Purple_Plus_Dots_1.jpg,Red_Circle_Grid_2.jpg,left,928.5200000158511,true,low,NA,NA,NA,NA,NA,NA,NA,false
blKffzXR,3e9vauv7czrnvucm8noapw1mqoqyaq,31z0pcvwuosbiqdoigutw838x89t7c,blKffzXR,2020-0188,2020-06-04,13:53:54,14:16:55,NA,incomplete,25,shape,0,1,left,Red_Plus_Stripes_2.jpg,Blue_Plus_Chess_1.jpg,Purple_Triangle_Stripes_4.jpg,left,759.9749999935739,true,low,NA,NA,NA,NA,NA,NA,NA,false
blKffzXR,3e9vauv7czrnvucm8noapw1mqoqyaq,31z0pcvwuosbiqdoigutw838x89t7c,blKffzXR,2020-0188,2020-06-04,13:53:54,14:16:55,NA,incomplete,26,shape,0,1,right,Purple_Circle_Chess_4.jpg,Green_Plus_Chess_2.jpg,Red_Circle_Dots_3.jpg,right,806.4000000013039,true,low,NA,NA,NA,NA,NA,NA,NA,false
blKffzXR,3e9vauv7czrnvucm8noapw1mqoqyaq,31z0pcvwuosbiqdoigutw838x89t7c,blKffzXR,2020-0188,2020-06-04,13:53:54,14:16:55,NA,incomplete,27,shape,0,0,left,Red_Circle_Stripes_4.jpg,Green_Circle_Chess_3.jpg,Blue_Star_Stripes_2.jpg,left,843.5450000106357,true,low,NA,NA,NA,NA,NA,NA,NA,false
blKffzXR,3e9vauv7czrnvucm8noapw1mqoqyaq,31z0pcvwuosbiqdoigutw838x89t7c,blKffzXR,2020-0188,2020-06-04,13:53:54,14:16:55,NA,incomplete,28,shape,0,1,left,Blue_Star_Dots_2.jpg,Purple_Star_Chess_1.jpg,Red_Triangle_Dots_4.jpg,left,831.3649999909103,true,low,NA,NA,NA,NA,NA,NA,NA,false
blKffzXR,3e9vauv7czrnvucm8noapw1mqoqyaq,31z0pcvwuosbiqdoigutw838x89t7c,blKffzXR,2020-0188,2020-06-04,13:53:54,14:16:55,NA,incomplete,29,shape,0,1,right,Green_Star_Dots_1.jpg,Blue_Triangle_Dots_3.jpg,Purple_Star_Chess_4.jpg,right,972.1199999912642,true,low,NA,NA,NA,NA,NA,NA,NA,false
blKffzXR,3e9vauv7czrnvucm8noapw1mqoqyaq,31z0pcvwuosbiqdoigutw838x89t7c,blKffzXR,2020-0188,2020-06-04,13:53:54,14:16:55,NA,incomplete,30,filling,1,1,right,Green_Triangle_Chess_3.jpg,Red_Triangle_Grid_2.jpg,Blue_Plus_Chess_1.jpg,left,841.5749999694526,false,low,NA,NA,NA,NA,NA,NA,NA,false
blKffzXR,3e9vauv7czrnvucm8noapw1mqoqyaq,31z0pcvwuosbiqdoigutw838x89t7c,blKffzXR,2020-0188,2020-06-04,13:53:54,14:16:55,NA,incomplete,31,filling,1,1,left,Green_Circle_Stripes_3.jpg,Red_Plus_Stripes_1.jpg,Blue_Circle_Chess_4.jpg,right,837.2250000247732,false,low,NA,NA,NA,NA,NA,NA,NA,false
blKffzXR,3e9vauv7czrnvucm8noapw1mqoqyaq,31z0pcvwuosbiqdoigutw838x89t7c,blKffzXR,2020-0188,2020-06-04,13:53:54,14:16:55,NA,incomplete,32,filling,1,1,left,Green_Circle_Grid_1.jpg,Purple_Triangle_Grid_3.jpg,Blue_Circle_Stripes_2.jpg,right,832.8050000127405,false,low,NA,NA,NA,NA,NA,NA,NA,false
blKffzXR,3e9vauv7czrnvucm8noapw1mqoqyaq,31z0pcvwuosbiqdoigutw838x89t7c,blKffzXR,2020-0188,2020-06-04,13:53:54,14:16:55,NA,incomplete,33,filling,1,1,right,Green_Triangle_Stripes_2.jpg,Red_Triangle_Chess_4.jpg,Blue_Star_Stripes_3.jpg,right,1036.8100000196137,true,low,NA,NA,NA,NA,NA,NA,NA,false
blKffzXR,3e9vauv7czrnvucm8noapw1mqoqyaq,31z0pcvwuosbiqdoigutw838x89t7c,blKffzXR,2020-0188,2020-06-04,13:53:54,14:16:55,NA,incomplete,34,filling,1,1,left,Blue_Plus_Stripes_4.jpg,Purple_Star_Stripes_2.jpg,Red_Plus_Grid_1.jpg,left,992.9600000032224,true,low,NA,NA,NA,NA,NA,NA,NA,false
blKffzXR,3e9vauv7czrnvucm8noapw1mqoqyaq,31z0pcvwuosbiqdoigutw838x89t7c,blKffzXR,2020-0188,2020-06-04,13:53:54,14:16:55,NA,incomplete,35,filling,1,0,right,Red_Star_Dots_3.jpg,Blue_Star_Grid_2.jpg,Purple_Circle_Dots_4.jpg,right,1102.0349999889731,true,low,NA,NA,NA,NA,NA,NA,NA,false
blKffzXR,3e9vauv7czrnvucm8noapw1mqoqyaq,31z0pcvwuosbiqdoigutw838x89t7c,blKffzXR,2020-0188,2020-06-04,13:53:54,14:16:55,NA,incomplete,36,filling,1,1,left,Purple_Plus_Dots_2.jpg,Blue_Star_Dots_4.jpg,Green_Plus_Stripes_1.jpg,left,1046.8650000402704,true,low,NA,NA,NA,NA,NA,NA,NA,false
blKffzXR,3e9vauv7czrnvucm8noapw1mqoqyaq,31z0pcvwuosbiqdoigutw838x89t7c,blKffzXR,2020-0188,2020-06-04,13:53:54,14:16:55,NA,incomplete,37,filling,1,1,left,Red_Star_Grid_2.jpg,Purple_Circle_Grid_4.jpg,Blue_Star_Stripes_3.jpg,left,1050.310000020545,true,low,NA,NA,NA,NA,NA,NA,NA,false
blKffzXR,3e9vauv7czrnvucm8noapw1mqoqyaq,31z0pcvwuosbiqdoigutw838x89t7c,blKffzXR,2020-0188,2020-06-04,13:53:54,14:16:55,NA,incomplete,38,filling,1,0,left,Green_Circle_Grid_1.jpg,Blue_Triangle_Grid_2.jpg,Purple_Circle_Chess_4.jpg,left,901.9700000062585,true,low,NA,NA,NA,NA,NA,NA,NA,false
blKffzXR,3e9vauv7czrnvucm8noapw1mqoqyaq,31z0pcvwuosbiqdoigutw838x89t7c,blKffzXR,2020-0188,2020-06-04,13:53:54,14:16:55,NA,incomplete,39,filling,1,0,left,Green_Triangle_Chess_2.jpg,Purple_Plus_Chess_3.jpg,Red_Triangle_Dots_1.jpg,left,1070.2149999560788,true,low,NA,NA,NA,NA,NA,NA,NA,false
blKffzXR,3e9vauv7czrnvucm8noapw1mqoqyaq,31z0pcvwuosbiqdoigutw838x89t7c,blKffzXR,2020-0188,2020-06-04,13:53:54,14:16:55,NA,incomplete,40,filling,1,1,left,Blue_Plus_Dots_2.jpg,Purple_Circle_Dots_4.jpg,Red_Plus_Grid_3.jpg,left,1160.4650000226684,true,low,NA,NA,NA,NA,NA,NA,NA,false
blKffzXR,3e9vauv7czrnvucm8noapw1mqoqyaq,31z0pcvwuosbiqdoigutw838x89t7c,blKffzXR,2020-0188,2020-06-04,13:53:54,14:16:55,NA,incomplete,41,filling,1,1,left,Green_Star_Grid_2.jpg,Purple_Triangle_Grid_3.jpg,Red_Star_Dots_1.jpg,left,1015.335000003688,true,low,NA,NA,NA,NA,NA,NA,NA,false
blKffzXR,3e9vauv7czrnvucm8noapw1mqoqyaq,31z0pcvwuosbiqdoigutw838x89t7c,blKffzXR,2020-0188,2020-06-04,13:53:54,14:16:55,NA,incomplete,42,filling,1,1,left,Blue_Circle_Stripes_1.jpg,Red_Triangle_Stripes_4.jpg,Green_Circle_Grid_2.jpg,left,996.8450000160374,true,low,NA,NA,NA,NA,NA,NA,NA,false
blKffzXR,3e9vauv7czrnvucm8noapw1mqoqyaq,31z0pcvwuosbiqdoigutw838x89t7c,blKffzXR,2020-0188,2020-06-04,13:53:54,14:16:55,NA,incomplete,43,filling,1,0,right,Blue_Star_Grid_2.jpg,Green_Star_Chess_3.jpg,Purple_Triangle_Grid_1.jpg,right,929.8899999703281,true,low,NA,NA,NA,NA,NA,NA,NA,false
blKffzXR,3e9vauv7czrnvucm8noapw1mqoqyaq,31z0pcvwuosbiqdoigutw838x89t7c,blKffzXR,2020-0188,2020-06-04,13:53:54,14:16:55,NA,incomplete,44,filling,1,0,left,Blue_Circle_Stripes_3.jpg,Green_Star_Stripes_4.jpg,Purple_Circle_Grid_2.jpg,left,1178.0649999855086,true,low,NA,NA,NA,NA,NA,NA,NA,false
blKffzXR,3e9vauv7czrnvucm8noapw1mqoqyaq,31z0pcvwuosbiqdoigutw838x89t7c,blKffzXR,2020-0188,2020-06-04,13:53:54,14:16:55,NA,incomplete,45,filling,1,0,right,Red_Plus_Stripes_4.jpg,Purple_Plus_Chess_3.jpg,Blue_Star_Stripes_2.jpg,right,1080.2799999946728,true,low,NA,NA,NA,NA,NA,NA,NA,false
blKffzXR,3e9vauv7czrnvucm8noapw1mqoqyaq,31z0pcvwuosbiqdoigutw838x89t7c,blKffzXR,2020-0188,2020-06-04,13:53:54,14:16:55,NA,incomplete,46,filling,1,0,right,Red_Plus_Grid_2.jpg,Green_Plus_Chess_4.jpg,Purple_Circle_Grid_3.jpg,left,979.0700000012293,false,low,NA,NA,NA,NA,NA,NA,NA,false
blKffzXR,3e9vauv7czrnvucm8noapw1mqoqyaq,31z0pcvwuosbiqdoigutw838x89t7c,blKffzXR,2020-0188,2020-06-04,13:53:54,14:16:55,NA,incomplete,47,filling,1,1,left,Purple_Star_Chess_4.jpg,Blue_Circle_Chess_3.jpg,Red_Star_Dots_1.jpg,right,880.669999984093,false,low,NA,NA,NA,NA,NA,NA,NA,false
blKffzXR,3e9vauv7czrnvucm8noapw1mqoqyaq,31z0pcvwuosbiqdoigutw838x89t7c,blKffzXR,2020-0188,2020-06-04,13:53:54,14:16:55,NA,incomplete,48,filling,1,1,left,Green_Circle_Dots_2.jpg,Blue_Star_Dots_1.jpg,Purple_Circle_Grid_4.jpg,right,787.0250000269152,false,low,NA,NA,NA,NA,NA,NA,NA,false
blKffzXR,3e9vauv7czrnvucm8noapw1mqoqyaq,31z0pcvwuosbiqdoigutw838x89t7c,blKffzXR,2020-0188,2020-06-04,13:53:54,14:16:55,NA,incomplete,49,filling,1,1,right,Blue_Circle_Grid_2.jpg,Green_Circle_Stripes_4.jpg,Red_Plus_Grid_1.jpg,left,992.4950000131503,false,low,NA,NA,NA,NA,NA,NA,NA,false
blKffzXR,3e9vauv7czrnvucm8noapw1mqoqyaq,31z0pcvwuosbiqdoigutw838x89t7c,blKffzXR,2020-0188,2020-06-04,13:53:54,14:16:55,NA,incomplete,50,filling,1,1,left,Blue_Circle_Dots_4.jpg,Red_Plus_Dots_2.jpg,Green_Circle_Stripes_3.jpg,left,1093.8650000025518,true,low,NA,NA,NA,NA,NA,NA,NA,false
blKffzXR,3e9vauv7czrnvucm8noapw1mqoqyaq,31z0pcvwuosbiqdoigutw838x89t7c,blKffzXR,2020-0188,2020-06-04,13:53:54,14:16:55,NA,incomplete,51,filling,1,1,left,Green_Star_Dots_2.jpg,Purple_Circle_Dots_3.jpg,Red_Star_Stripes_4.jpg,left,1168.0800000322051,true,low,NA,NA,NA,NA,NA,NA,NA,false
blKffzXR,3e9vauv7czrnvucm8noapw1mqoqyaq,31z0pcvwuosbiqdoigutw838x89t7c,blKffzXR,2020-0188,2020-06-04,13:53:54,14:16:55,NA,incomplete,52,filling,1,1,right,Red_Circle_Dots_2.jpg,Purple_Circle_Stripes_4.jpg,Blue_Triangle_Dots_3.jpg,right,877.6800000341609,true,low,NA,NA,NA,NA,NA,NA,NA,false
blKffzXR,3e9vauv7czrnvucm8noapw1mqoqyaq,31z0pcvwuosbiqdoigutw838x89t7c,blKffzXR,2020-0188,2020-06-04,13:53:54,14:16:55,NA,incomplete,53,filling,1,1,left,Blue_Circle_Chess_3.jpg,Green_Triangle_Chess_2.jpg,Purple_Circle_Dots_4.jpg,left,919.8050000122748,true,low,NA,NA,NA,NA,NA,NA,NA,false
blKffzXR,3e9vauv7czrnvucm8noapw1mqoqyaq,31z0pcvwuosbiqdoigutw838x89t7c,blKffzXR,2020-0188,2020-06-04,13:53:54,14:16:55,NA,incomplete,54,filling,1,1,left,Red_Plus_Chess_1.jpg,Blue_Circle_Chess_4.jpg,Purple_Plus_Grid_2.jpg,left,920.2250000089407,true,low,NA,NA,NA,NA,NA,NA,NA,false
blKffzXR,3e9vauv7czrnvucm8noapw1mqoqyaq,31z0pcvwuosbiqdoigutw838x89t7c,blKffzXR,2020-0188,2020-06-04,13:53:54,14:16:55,NA,incomplete,55,filling,1,1,left,Purple_Star_Chess_1.jpg,Blue_Plus_Chess_4.jpg,Red_Star_Grid_3.jpg,left,1040.5049999826588,true,low,NA,NA,NA,NA,NA,NA,NA,false
blKffzXR,3e9vauv7czrnvucm8noapw1mqoqyaq,31z0pcvwuosbiqdoigutw838x89t7c,blKffzXR,2020-0188,2020-06-04,13:53:54,14:16:55,NA,incomplete,56,filling,1,1,left,Blue_Plus_Chess_3.jpg,Red_Star_Chess_2.jpg,Purple_Plus_Dots_1.jpg,left,996.4350000373088,true,low,NA,NA,NA,NA,NA,NA,NA,false
blKffzXR,3e9vauv7czrnvucm8noapw1mqoqyaq,31z0pcvwuosbiqdoigutw838x89t7c,blKffzXR,2020-0188,2020-06-04,13:53:54,14:16:55,NA,incomplete,57,filling,1,1,right,Blue_Star_Dots_1.jpg,Red_Star_Chess_2.jpg,Purple_Plus_Dots_3.jpg,right,969.5349999819882,true,low,NA,NA,NA,NA,NA,NA,NA,false
blKffzXR,3e9vauv7czrnvucm8noapw1mqoqyaq,31z0pcvwuosbiqdoigutw838x89t7c,blKffzXR,2020-0188,2020-06-04,13:53:54,14:16:55,NA,incomplete,58,filling,1,1,right,Blue_Triangle_Chess_2.jpg,Green_Triangle_Stripes_1.jpg,Red_Star_Chess_3.jpg,right,999.8600000399165,true,low,NA,NA,NA,NA,NA,NA,NA,false
blKffzXR,3e9vauv7czrnvucm8noapw1mqoqyaq,31z0pcvwuosbiqdoigutw838x89t7c,blKffzXR,2020-0188,2020-06-04,13:53:54,14:16:55,NA,incomplete,59,filling,1,0,left,Purple_Circle_Grid_3.jpg,Blue_Triangle_Grid_4.jpg,Green_Circle_Dots_1.jpg,left,1021.4400000404567,true,low,NA,NA,NA,NA,NA,NA,NA,false
blKffzXR,3e9vauv7czrnvucm8noapw1mqoqyaq,31z0pcvwuosbiqdoigutw838x89t7c,blKffzXR,2020-0188,2020-06-04,13:53:54,14:16:55,NA,incomplete,60,shape,0,1,left,Red_Circle_Grid_4.jpg,Purple_Circle_Stripes_3.jpg,Blue_Plus_Grid_2.jpg,right,1065.8849999890663,false,low,NA,NA,NA,NA,NA,NA,NA,false
blKffzXR,3e9vauv7czrnvucm8noapw1mqoqyaq,31z0pcvwuosbiqdoigutw838x89t7c,blKffzXR,2020-0188,2020-06-04,13:53:54,14:16:55,NA,incomplete,61,shape,0,1,right,Blue_Star_Chess_1.jpg,Red_Plus_Chess_2.jpg,Purple_Star_Grid_3.jpg,left,1068.4049999690615,false,low,NA,NA,NA,NA,NA,NA,NA,false
blKffzXR,3e9vauv7czrnvucm8noapw1mqoqyaq,31z0pcvwuosbiqdoigutw838x89t7c,blKffzXR,2020-0188,2020-06-04,13:53:54,14:16:55,NA,incomplete,62,shape,0,0,left,Red_Circle_Grid_3.jpg,Blue_Circle_Dots_1.jpg,Purple_Star_Grid_2.jpg,left,846.7050000326708,true,low,NA,NA,NA,NA,NA,NA,NA,false
blKffzXR,3e9vauv7czrnvucm8noapw1mqoqyaq,31z0pcvwuosbiqdoigutw838x89t7c,blKffzXR,2020-0188,2020-06-04,13:53:54,14:16:55,NA,incomplete,63,shape,0,1,left,Red_Star_Stripes_2.jpg,Green_Star_Dots_1.jpg,Purple_Triangle_Stripes_4.jpg,left,850.3149999887682,true,low,NA,NA,NA,NA,NA,NA,NA,false
blKffzXR,3e9vauv7czrnvucm8noapw1mqoqyaq,31z0pcvwuosbiqdoigutw838x89t7c,blKffzXR,2020-0188,2020-06-04,13:53:54,14:16:55,NA,incomplete,64,shape,0,1,right,Red_Star_Dots_3.jpg,Blue_Plus_Dots_1.jpg,Green_Star_Chess_2.jpg,right,780.8999999542721,true,low,NA,NA,NA,NA,NA,NA,NA,false
blKffzXR,3e9vauv7czrnvucm8noapw1mqoqyaq,31z0pcvwuosbiqdoigutw838x89t7c,blKffzXR,2020-0188,2020-06-04,13:53:54,14:16:55,NA,incomplete,65,shape,0,1,right,Green_Star_Chess_3.jpg,Purple_Plus_Chess_1.jpg,Red_Star_Grid_2.jpg,right,835.495000006631,true,low,NA,NA,NA,NA,NA,NA,NA,false
blKffzXR,3e9vauv7czrnvucm8noapw1mqoqyaq,31z0pcvwuosbiqdoigutw838x89t7c,blKffzXR,2020-0188,2020-06-04,13:53:54,14:16:55,NA,incomplete,66,shape,0,1,right,Green_Triangle_Dots_2.jpg,Blue_Circle_Dots_4.jpg,Red_Triangle_Stripes_3.jpg,right,854.49499997776,true,low,NA,NA,NA,NA,NA,NA,NA,false
blKffzXR,3e9vauv7czrnvucm8noapw1mqoqyaq,31z0pcvwuosbiqdoigutw838x89t7c,blKffzXR,2020-0188,2020-06-04,13:53:54,14:16:55,NA,incomplete,67,shape,0,1,left,Purple_Plus_Stripes_1.jpg,Green_Plus_Dots_3.jpg,Blue_Triangle_Stripes_4.jpg,left,729.5049999956973,true,low,NA,NA,NA,NA,NA,NA,NA,false
blKffzXR,3e9vauv7czrnvucm8noapw1mqoqyaq,31z0pcvwuosbiqdoigutw838x89t7c,blKffzXR,2020-0188,2020-06-04,13:53:54,14:16:55,NA,incomplete,68,shape,0,1,left,Blue_Star_Stripes_4.jpg,Red_Star_Grid_3.jpg,Green_Triangle_Stripes_1.jpg,left,761.2850000150502,true,low,NA,NA,NA,NA,NA,NA,NA,false
blKffzXR,3e9vauv7czrnvucm8noapw1mqoqyaq,31z0pcvwuosbiqdoigutw838x89t7c,blKffzXR,2020-0188,2020-06-04,13:53:54,14:16:55,NA,incomplete,69,shape,0,1,left,Green_Star_Dots_2.jpg,Purple_Star_Stripes_1.jpg,Red_Plus_Dots_4.jpg,left,800.4499999806285,true,low,NA,NA,NA,NA,NA,NA,NA,false
blKffzXR,3e9vauv7czrnvucm8noapw1mqoqyaq,31z0pcvwuosbiqdoigutw838x89t7c,blKffzXR,2020-0188,2020-06-04,13:53:54,14:16:55,NA,incomplete,70,shape,0,1,left,Red_Star_Dots_4.jpg,Blue_Star_Chess_3.jpg,Purple_Triangle_Dots_2.jpg,left,733.8300000410527,true,low,NA,NA,NA,NA,NA,NA,NA,false
blKffzXR,3e9vauv7czrnvucm8noapw1mqoqyaq,31z0pcvwuosbiqdoigutw838x89t7c,blKffzXR,2020-0188,2020-06-04,13:53:54,14:16:55,NA,incomplete,71,shape,0,1,right,Green_Circle_Stripes_2.jpg,Purple_Star_Stripes_4.jpg,Red_Circle_Dots_3.jpg,right,740.5350000481121,true,low,NA,NA,NA,NA,NA,NA,NA,false
blKffzXR,3e9vauv7czrnvucm8noapw1mqoqyaq,31z0pcvwuosbiqdoigutw838x89t7c,blKffzXR,2020-0188,2020-06-04,13:53:54,14:16:55,NA,incomplete,72,shape,0,1,right,Green_Circle_Chess_3.jpg,Blue_Triangle_Chess_4.jpg,Red_Circle_Grid_1.jpg,right,732.2599999606609,true,low,NA,NA,NA,NA,NA,NA,NA,false
blKffzXR,3e9vauv7czrnvucm8noapw1mqoqyaq,31z0pcvwuosbiqdoigutw838x89t7c,blKffzXR,2020-0188,2020-06-04,13:53:54,14:16:55,NA,incomplete,73,shape,0,1,right,Green_Circle_Stripes_1.jpg,Blue_Plus_Stripes_2.jpg,Red_Circle_Grid_4.jpg,right,708.2399999490008,true,low,NA,NA,NA,NA,NA,NA,NA,false
blKffzXR,3e9vauv7czrnvucm8noapw1mqoqyaq,31z0pcvwuosbiqdoigutw838x89t7c,blKffzXR,2020-0188,2020-06-04,13:53:54,14:16:55,NA,incomplete,74,shape,0,1,right,Red_Plus_Grid_4.jpg,Purple_Star_Grid_2.jpg,Blue_Plus_Dots_3.jpg,right,932.9000000143424,true,low,NA,NA,NA,NA,NA,NA,NA,false
blKffzXR,3e9vauv7czrnvucm8noapw1mqoqyaq,31z0pcvwuosbiqdoigutw838x89t7c,blKffzXR,2020-0188,2020-06-04,13:53:54,14:16:55,NA,incomplete,75,shape,0,1,right,Purple_Star_Grid_4.jpg,Blue_Plus_Grid_2.jpg,Red_Star_Dots_1.jpg,right,837.5149999628775,true,low,NA,NA,NA,NA,NA,NA,NA,false
blKffzXR,3e9vauv7czrnvucm8noapw1mqoqyaq,31z0pcvwuosbiqdoigutw838x89t7c,blKffzXR,2020-0188,2020-06-04,13:53:54,14:16:55,NA,incomplete,76,shape,0,1,right,Green_Plus_Stripes_3.jpg,Purple_Star_Stripes_2.jpg,Red_Plus_Chess_4.jpg,right,800.6550000282004,true,low,NA,NA,NA,NA,NA,NA,NA,false
blKffzXR,3e9vauv7czrnvucm8noapw1mqoqyaq,31z0pcvwuosbiqdoigutw838x89t7c,blKffzXR,2020-0188,2020-06-04,13:53:54,14:16:55,NA,incomplete,77,shape,0,1,left,Blue_Star_Stripes_1.jpg,Purple_Star_Grid_3.jpg,Red_Plus_Stripes_2.jpg,left,797.8749999892898,true,low,NA,NA,NA,NA,NA,NA,NA,false
blKffzXR,3e9vauv7czrnvucm8noapw1mqoqyaq,31z0pcvwuosbiqdoigutw838x89t7c,blKffzXR,2020-0188,2020-06-04,13:53:54,14:16:55,NA,incomplete,78,shape,0,1,right,Green_Star_Stripes_1.jpg,Blue_Circle_Stripes_3.jpg,Purple_Star_Dots_4.jpg,right,810.7750000199303,true,low,NA,NA,NA,NA,NA,NA,NA,false
blKffzXR,3e9vauv7czrnvucm8noapw1mqoqyaq,31z0pcvwuosbiqdoigutw838x89t7c,blKffzXR,2020-0188,2020-06-04,13:53:54,14:16:55,NA,incomplete,79,shape,0,1,left,Blue_Star_Grid_2.jpg,Purple_Star_Chess_3.jpg,Red_Circle_Grid_1.jpg,left,743.5999999870546,true,low,NA,NA,NA,NA,NA,NA,NA,false
blKffzXR,3e9vauv7czrnvucm8noapw1mqoqyaq,31z0pcvwuosbiqdoigutw838x89t7c,blKffzXR,2020-0188,2020-06-04,13:53:54,14:16:55,NA,incomplete,80,shape,0,0,left,Blue_Triangle_Chess_2.jpg,Purple_Triangle_Dots_4.jpg,Red_Circle_Chess_3.jpg,left,919.7500000009313,true,low,NA,NA,NA,NA,NA,NA,NA,false
blKffzXR,3e9vauv7czrnvucm8noapw1mqoqyaq,31z0pcvwuosbiqdoigutw838x89t7c,blKffzXR,2020-0188,2020-06-04,13:53:54,14:16:55,NA,incomplete,81,shape,0,0,left,Purple_Star_Dots_1.jpg,Blue_Star_Chess_3.jpg,Green_Triangle_Dots_2.jpg,left,943.4100000071339,true,low,NA,NA,NA,NA,NA,NA,NA,false
blKffzXR,3e9vauv7czrnvucm8noapw1mqoqyaq,31z0pcvwuosbiqdoigutw838x89t7c,blKffzXR,2020-0188,2020-06-04,13:53:54,14:16:55,NA,incomplete,82,shape,0,1,right,Red_Circle_Stripes_1.jpg,Blue_Plus_Stripes_2.jpg,Purple_Circle_Dots_4.jpg,right,847.1799999824725,true,low,NA,NA,NA,NA,NA,NA,NA,false
blKffzXR,3e9vauv7czrnvucm8noapw1mqoqyaq,31z0pcvwuosbiqdoigutw838x89t7c,blKffzXR,2020-0188,2020-06-04,13:53:54,14:16:55,NA,incomplete,83,shape,0,1,left,Red_Triangle_Stripes_2.jpg,Green_Triangle_Chess_3.jpg,Blue_Plus_Stripes_4.jpg,left,890.7050000270829,true,low,NA,NA,NA,NA,NA,NA,NA,false
blKffzXR,3e9vauv7czrnvucm8noapw1mqoqyaq,31z0pcvwuosbiqdoigutw838x89t7c,blKffzXR,2020-0188,2020-06-04,13:53:54,14:16:55,NA,incomplete,84,shape,0,1,left,Blue_Star_Stripes_2.jpg,Green_Star_Chess_3.jpg,Purple_Circle_Stripes_1.jpg,left,779.9949999898672,true,low,NA,NA,NA,NA,NA,NA,NA,false
blKffzXR,3e9vauv7czrnvucm8noapw1mqoqyaq,31z0pcvwuosbiqdoigutw838x89t7c,blKffzXR,2020-0188,2020-06-04,13:53:54,14:16:55,NA,incomplete,85,shape,0,1,right,Blue_Star_Stripes_2.jpg,Red_Triangle_Stripes_3.jpg,Green_Star_Chess_1.jpg,right,738.5299999732524,true,low,NA,NA,NA,NA,NA,NA,NA,false
blKffzXR,3e9vauv7czrnvucm8noapw1mqoqyaq,31z0pcvwuosbiqdoigutw838x89t7c,blKffzXR,2020-0188,2020-06-04,13:53:54,14:16:55,NA,incomplete,86,shape,0,1,right,Red_Triangle_Chess_2.jpg,Blue_Plus_Chess_1.jpg,Purple_Triangle_Dots_3.jpg,right,713.5750000015832,true,low,NA,NA,NA,NA,NA,NA,NA,false
blKffzXR,3e9vauv7czrnvucm8noapw1mqoqyaq,31z0pcvwuosbiqdoigutw838x89t7c,blKffzXR,2020-0188,2020-06-04,13:53:54,14:16:55,NA,incomplete,87,shape,0,1,right,Blue_Star_Dots_1.jpg,Green_Circle_Dots_3.jpg,Red_Star_Stripes_4.jpg,right,778.2749999896623,true,low,NA,NA,NA,NA,NA,NA,NA,false
blKffzXR,3e9vauv7czrnvucm8noapw1mqoqyaq,31z0pcvwuosbiqdoigutw838x89t7c,blKffzXR,2020-0188,2020-06-04,13:53:54,14:16:55,NA,incomplete,88,shape,0,1,right,Purple_Triangle_Chess_3.jpg,Red_Plus_Chess_2.jpg,Blue_Triangle_Dots_1.jpg,right,792.6100000040606,true,low,NA,NA,NA,NA,NA,NA,NA,false
blKffzXR,3e9vauv7czrnvucm8noapw1mqoqyaq,31z0pcvwuosbiqdoigutw838x89t7c,blKffzXR,2020-0188,2020-06-04,13:53:54,14:16:55,NA,incomplete,89,shape,0,1,right,Red_Star_Chess_2.jpg,Blue_Triangle_Chess_4.jpg,Green_Star_Dots_1.jpg,left,1037.899999995716,false,low,NA,NA,NA,NA,NA,NA,NA,false
blKffzXR,3e9vauv7czrnvucm8noapw1mqoqyaq,31z0pcvwuosbiqdoigutw838x89t7c,blKffzXR,2020-0188,2020-06-04,13:53:54,14:16:55,NA,incomplete,90,filling,1,1,left,Red_Plus_Chess_3.jpg,Blue_Circle_Chess_1.jpg,Green_Plus_Grid_4.jpg,right,770.3749999636784,false,low,NA,NA,NA,NA,NA,NA,NA,false
blKffzXR,3e9vauv7czrnvucm8noapw1mqoqyaq,31z0pcvwuosbiqdoigutw838x89t7c,blKffzXR,2020-0188,2020-06-04,13:53:54,14:16:55,NA,incomplete,91,filling,1,1,right,Green_Star_Grid_4.jpg,Red_Star_Chess_1.jpg,Blue_Circle_Grid_3.jpg,left,847.5650000036694,false,low,NA,NA,NA,NA,NA,NA,NA,false
blKffzXR,3e9vauv7czrnvucm8noapw1mqoqyaq,31z0pcvwuosbiqdoigutw838x89t7c,blKffzXR,2020-0188,2020-06-04,13:53:54,14:16:55,NA,incomplete,92,filling,1,1,right,Green_Plus_Stripes_4.jpg,Red_Plus_Grid_1.jpg,Blue_Circle_Stripes_2.jpg,left,891.2099999724887,false,low,NA,NA,NA,NA,NA,NA,NA,false
blKffzXR,3e9vauv7czrnvucm8noapw1mqoqyaq,31z0pcvwuosbiqdoigutw838x89t7c,blKffzXR,2020-0188,2020-06-04,13:53:54,14:16:55,NA,incomplete,93,filling,1,1,right,Blue_Plus_Dots_2.jpg,Green_Plus_Grid_4.jpg,Purple_Star_Dots_1.jpg,right,980.7850000215694,true,low,NA,NA,NA,NA,NA,NA,NA,false
blKffzXR,3e9vauv7czrnvucm8noapw1mqoqyaq,31z0pcvwuosbiqdoigutw838x89t7c,blKffzXR,2020-0188,2020-06-04,13:53:54,14:16:55,NA,incomplete,94,filling,1,1,right,Green_Circle_Dots_3.jpg,Blue_Circle_Stripes_1.jpg,Red_Triangle_Dots_4.jpg,right,1050.8949999930337,true,low,NA,NA,NA,NA,NA,NA,NA,false
blKffzXR,3e9vauv7czrnvucm8noapw1mqoqyaq,31z0pcvwuosbiqdoigutw838x89t7c,blKffzXR,2020-0188,2020-06-04,13:53:54,14:16:55,NA,incomplete,95,filling,1,0,right,Purple_Star_Chess_3.jpg,Green_Star_Grid_2.jpg,Blue_Plus_Chess_4.jpg,right,990.1199999731034,true,low,NA,NA,NA,NA,NA,NA,NA,false
blKffzXR,3e9vauv7czrnvucm8noapw1mqoqyaq,31z0pcvwuosbiqdoigutw838x89t7c,blKffzXR,2020-0188,2020-06-04,13:53:54,14:16:55,NA,incomplete,96,filling,1,1,left,Blue_Plus_Chess_3.jpg,Purple_Triangle_Chess_1.jpg,Green_Plus_Stripes_4.jpg,left,915.2250000042841,true,low,NA,NA,NA,NA,NA,NA,NA,false
blKffzXR,3e9vauv7czrnvucm8noapw1mqoqyaq,31z0pcvwuosbiqdoigutw838x89t7c,blKffzXR,2020-0188,2020-06-04,13:53:54,14:16:55,NA,incomplete,97,filling,1,1,right,Purple_Circle_Grid_3.jpg,Green_Circle_Dots_4.jpg,Blue_Triangle_Grid_1.jpg,right,868.384999979753,true,low,NA,NA,NA,NA,NA,NA,NA,false
blKffzXR,3e9vauv7czrnvucm8noapw1mqoqyaq,31z0pcvwuosbiqdoigutw838x89t7c,blKffzXR,2020-0188,2020-06-04,13:53:54,14:16:55,NA,incomplete,98,filling,1,1,right,Green_Circle_Chess_2.jpg,Red_Circle_Stripes_1.jpg,Blue_Plus_Chess_3.jpg,right,1174.2450000019744,true,low,NA,NA,NA,NA,NA,NA,NA,false
blKffzXR,3e9vauv7czrnvucm8noapw1mqoqyaq,31z0pcvwuosbiqdoigutw838x89t7c,blKffzXR,2020-0188,2020-06-04,13:53:54,14:16:55,NA,incomplete,99,filling,1,1,right,Green_Star_Chess_4.jpg,Red_Star_Grid_2.jpg,Blue_Plus_Chess_3.jpg,right,932.8600000008009,true,low,NA,NA,NA,NA,NA,NA,NA,false
blKffzXR,3e9vauv7czrnvucm8noapw1mqoqyaq,31z0pcvwuosbiqdoigutw838x89t7c,blKffzXR,2020-0188,2020-06-04,13:53:54,14:16:55,NA,incomplete,100,filling,1,1,right,Red_Triangle_Stripes_2.jpg,Blue_Triangle_Chess_3.jpg,Green_Circle_Stripes_4.jpg,right,957.2400000179186,true,low,NA,NA,NA,NA,NA,NA,NA,false
blKffzXR,3e9vauv7czrnvucm8noapw1mqoqyaq,31z0pcvwuosbiqdoigutw838x89t7c,blKffzXR,2020-0188,2020-06-04,13:53:54,14:16:55,NA,incomplete,101,filling,1,1,left,Green_Plus_Grid_2.jpg,Red_Triangle_Grid_4.jpg,Purple_Plus_Stripes_1.jpg,left,1107.8799999668263,true,low,NA,NA,NA,NA,NA,NA,NA,false
blKffzXR,3e9vauv7czrnvucm8noapw1mqoqyaq,31z0pcvwuosbiqdoigutw838x89t7c,blKffzXR,2020-0188,2020-06-04,13:53:54,14:16:55,NA,incomplete,102,filling,1,1,left,Green_Circle_Dots_4.jpg,Purple_Triangle_Dots_1.jpg,Blue_Circle_Grid_2.jpg,left,924.5499999960884,true,low,NA,NA,NA,NA,NA,NA,NA,false
blKffzXR,3e9vauv7czrnvucm8noapw1mqoqyaq,31z0pcvwuosbiqdoigutw838x89t7c,blKffzXR,2020-0188,2020-06-04,13:53:54,14:16:55,NA,incomplete,103,filling,1,1,left,Green_Star_Chess_3.jpg,Purple_Plus_Chess_2.jpg,Blue_Star_Grid_1.jpg,left,973.0450000497513,true,low,NA,NA,NA,NA,NA,NA,NA,false
blKffzXR,3e9vauv7czrnvucm8noapw1mqoqyaq,31z0pcvwuosbiqdoigutw838x89t7c,blKffzXR,2020-0188,2020-06-04,13:53:54,14:16:55,NA,incomplete,104,filling,1,1,right,Red_Triangle_Stripes_4.jpg,Purple_Triangle_Dots_3.jpg,Green_Star_Stripes_2.jpg,right,947.2700000042096,true,low,NA,NA,NA,NA,NA,NA,NA,false
blKffzXR,3e9vauv7czrnvucm8noapw1mqoqyaq,31z0pcvwuosbiqdoigutw838x89t7c,blKffzXR,2020-0188,2020-06-04,13:53:54,14:16:55,NA,incomplete,105,filling,1,1,left,Green_Circle_Dots_3.jpg,Blue_Plus_Dots_4.jpg,Purple_Circle_Stripes_1.jpg,left,867.14500002563,true,low,NA,NA,NA,NA,NA,NA,NA,false
blKffzXR,3e9vauv7czrnvucm8noapw1mqoqyaq,31z0pcvwuosbiqdoigutw838x89t7c,blKffzXR,2020-0188,2020-06-04,13:53:54,14:16:55,NA,incomplete,106,filling,1,1,left,Purple_Circle_Stripes_3.jpg,Blue_Star_Stripes_2.jpg,Green_Circle_Chess_1.jpg,left,916.8599999975413,true,low,NA,NA,NA,NA,NA,NA,NA,false
blKffzXR,3e9vauv7czrnvucm8noapw1mqoqyaq,31z0pcvwuosbiqdoigutw838x89t7c,blKffzXR,2020-0188,2020-06-04,13:53:54,14:16:55,NA,incomplete,107,filling,1,0,right,Green_Plus_Dots_1.jpg,Purple_Plus_Chess_2.jpg,Red_Circle_Dots_3.jpg,right,1021.5800000005402,true,low,NA,NA,NA,NA,NA,NA,NA,false
blKffzXR,3e9vauv7czrnvucm8noapw1mqoqyaq,31z0pcvwuosbiqdoigutw838x89t7c,blKffzXR,2020-0188,2020-06-04,13:53:54,14:16:55,NA,incomplete,108,filling,1,1,left,Blue_Star_Stripes_2.jpg,Green_Triangle_Stripes_1.jpg,Red_Star_Grid_4.jpg,left,1177.9999999562278,true,low,NA,NA,NA,NA,NA,NA,NA,false
blKffzXR,3e9vauv7czrnvucm8noapw1mqoqyaq,31z0pcvwuosbiqdoigutw838x89t7c,blKffzXR,2020-0188,2020-06-04,13:53:54,14:16:55,NA,incomplete,109,filling,1,0,left,Green_Circle_Grid_2.jpg,Purple_Triangle_Grid_4.jpg,Blue_Circle_Dots_3.jpg,left,1016.5600000182167,true,low,NA,NA,NA,NA,NA,NA,NA,false
blKffzXR,3e9vauv7czrnvucm8noapw1mqoqyaq,31z0pcvwuosbiqdoigutw838x89t7c,blKffzXR,2020-0188,2020-06-04,13:53:54,14:16:55,NA,incomplete,110,filling,1,0,right,Blue_Plus_Dots_1.jpg,Green_Plus_Chess_2.jpg,Purple_Circle_Dots_4.jpg,right,1012.2499999706633,true,low,NA,NA,NA,NA,NA,NA,NA,false
blKffzXR,3e9vauv7czrnvucm8noapw1mqoqyaq,31z0pcvwuosbiqdoigutw838x89t7c,blKffzXR,2020-0188,2020-06-04,13:53:54,14:16:55,NA,incomplete,111,filling,1,1,right,Red_Triangle_Grid_4.jpg,Green_Triangle_Stripes_1.jpg,Blue_Plus_Grid_2.jpg,right,1049.3900000001304,true,low,NA,NA,NA,NA,NA,NA,NA,false
blKffzXR,3e9vauv7czrnvucm8noapw1mqoqyaq,31z0pcvwuosbiqdoigutw838x89t7c,blKffzXR,2020-0188,2020-06-04,13:53:54,14:16:55,NA,incomplete,112,filling,1,1,right,Green_Triangle_Dots_1.jpg,Blue_Triangle_Grid_4.jpg,Red_Circle_Dots_2.jpg,right,988.8149999896996,true,low,NA,NA,NA,NA,NA,NA,NA,false
blKffzXR,3e9vauv7czrnvucm8noapw1mqoqyaq,31z0pcvwuosbiqdoigutw838x89t7c,blKffzXR,2020-0188,2020-06-04,13:53:54,14:16:55,NA,incomplete,113,filling,1,1,left,Purple_Plus_Grid_4.jpg,Blue_Circle_Grid_3.jpg,Green_Plus_Chess_2.jpg,left,1058.8899999856949,true,low,NA,NA,NA,NA,NA,NA,NA,false
blKffzXR,3e9vauv7czrnvucm8noapw1mqoqyaq,31z0pcvwuosbiqdoigutw838x89t7c,blKffzXR,2020-0188,2020-06-04,13:53:54,14:16:55,NA,incomplete,114,filling,1,1,left,Green_Star_Stripes_1.jpg,Red_Circle_Stripes_3.jpg,Blue_Star_Chess_4.jpg,left,1069.119999941904,true,low,NA,NA,NA,NA,NA,NA,NA,false
blKffzXR,3e9vauv7czrnvucm8noapw1mqoqyaq,31z0pcvwuosbiqdoigutw838x89t7c,blKffzXR,2020-0188,2020-06-04,13:53:54,14:16:55,NA,incomplete,115,filling,1,0,left,Blue_Triangle_Stripes_2.jpg,Purple_Star_Stripes_3.jpg,Red_Triangle_Dots_1.jpg,left,975.6749999942258,true,low,NA,NA,NA,NA,NA,NA,NA,false
blKffzXR,3e9vauv7czrnvucm8noapw1mqoqyaq,31z0pcvwuosbiqdoigutw838x89t7c,blKffzXR,2020-0188,2020-06-04,13:53:54,14:16:55,NA,incomplete,116,filling,1,1,right,Green_Triangle_Chess_2.jpg,Red_Triangle_Grid_3.jpg,Blue_Plus_Chess_1.jpg,right,877.7550000231713,true,low,NA,NA,NA,NA,NA,NA,NA,false
blKffzXR,3e9vauv7czrnvucm8noapw1mqoqyaq,31z0pcvwuosbiqdoigutw838x89t7c,blKffzXR,2020-0188,2020-06-04,13:53:54,14:16:55,NA,incomplete,117,filling,1,1,left,Blue_Star_Chess_4.jpg,Green_Triangle_Chess_1.jpg,Red_Star_Stripes_3.jpg,left,1055.8899999596179,true,low,NA,NA,NA,NA,NA,NA,NA,false
blKffzXR,3e9vauv7czrnvucm8noapw1mqoqyaq,31z0pcvwuosbiqdoigutw838x89t7c,blKffzXR,2020-0188,2020-06-04,13:53:54,14:16:55,NA,incomplete,118,filling,1,1,left,Green_Circle_Stripes_2.jpg,Blue_Plus_Stripes_4.jpg,Purple_Circle_Dots_1.jpg,left,1019.0350000048056,true,low,NA,NA,NA,NA,NA,NA,NA,false
blKffzXR,3e9vauv7czrnvucm8noapw1mqoqyaq,31z0pcvwuosbiqdoigutw838x89t7c,blKffzXR,2020-0188,2020-06-04,13:53:54,14:16:55,NA,incomplete,119,filling,1,1,right,Blue_Star_Stripes_2.jpg,Purple_Star_Dots_4.jpg,Green_Plus_Stripes_3.jpg,right,967.6350000081584,true,low,NA,NA,NA,NA,NA,NA,NA,false
blKffzXR,3e9vauv7czrnvucm8noapw1mqoqyaq,31z0pcvwuosbiqdoigutw838x89t7c,blKffzXR,2020-0188,2020-06-04,13:53:54,14:16:55,NA,incomplete,120,gender,2,1,right,C_M_03.jpg,C_F_16.jpg,A_M_12.jpg,NA,NA,NA,low,NA,NA,NA,NA,NA,NA,NA,false
blKffzXR,3e9vauv7czrnvucm8noapw1mqoqyaq,31z0pcvwuosbiqdoigutw838x89t7c,blKffzXR,2020-0188,2020-06-04,13:53:54,14:16:55,NA,incomplete,121,gender,2,1,left,A_M_08.jpg,C_M_10.jpg,A_F_15.jpg,left,1874.7750000329688,true,low,NA,NA,NA,NA,NA,NA,NA,false
blKffzXR,3e9vauv7czrnvucm8noapw1mqoqyaq,31z0pcvwuosbiqdoigutw838x89t7c,blKffzXR,2020-0188,2020-06-04,13:53:54,14:16:55,NA,incomplete,122,gender,2,1,right,C_M_04.jpg,C_F_07.jpg,A_M_05.jpg,right,1108.959999983199,true,low,NA,NA,NA,NA,NA,NA,NA,false
blKffzXR,3e9vauv7czrnvucm8noapw1mqoqyaq,31z0pcvwuosbiqdoigutw838x89t7c,blKffzXR,2020-0188,2020-06-04,13:53:54,14:16:55,NA,incomplete,123,gender,2,0,left,C_F_14.jpg,A_F_07.jpg,C_M_11.jpg,left,950.3000000258908,true,low,NA,NA,NA,NA,NA,NA,NA,false
blKffzXR,3e9vauv7czrnvucm8noapw1mqoqyaq,31z0pcvwuosbiqdoigutw838x89t7c,blKffzXR,2020-0188,2020-06-04,13:53:54,14:16:55,NA,incomplete,124,gender,2,1,left,A_F_14.jpg,C_F_05.jpg,A_M_01.jpg,left,948.7499999813735,true,low,NA,NA,NA,NA,NA,NA,NA,false
blKffzXR,3e9vauv7czrnvucm8noapw1mqoqyaq,31z0pcvwuosbiqdoigutw838x89t7c,blKffzXR,2020-0188,2020-06-04,13:53:54,14:16:55,NA,incomplete,125,gender,2,1,right,A_M_05.jpg,A_F_09.jpg,C_M_10.jpg,right,1148.4000000054948,true,low,NA,NA,NA,NA,NA,NA,NA,false
blKffzXR,3e9vauv7czrnvucm8noapw1mqoqyaq,31z0pcvwuosbiqdoigutw838x89t7c,blKffzXR,2020-0188,2020-06-04,13:53:54,14:16:55,NA,incomplete,126,gender,2,0,left,C_M_05.jpg,A_M_16.jpg,C_F_07.jpg,left,867.9450000054203,true,low,NA,NA,NA,NA,NA,NA,NA,false
blKffzXR,3e9vauv7czrnvucm8noapw1mqoqyaq,31z0pcvwuosbiqdoigutw838x89t7c,blKffzXR,2020-0188,2020-06-04,13:53:54,14:16:55,NA,incomplete,127,gender,2,1,left,A_M_11.jpg,C_M_10.jpg,A_F_15.jpg,left,902.1300000022165,true,low,NA,NA,NA,NA,NA,NA,NA,false
blKffzXR,3e9vauv7czrnvucm8noapw1mqoqyaq,31z0pcvwuosbiqdoigutw838x89t7c,blKffzXR,2020-0188,2020-06-04,13:53:54,14:16:55,NA,incomplete,128,gender,2,0,right,C_M_05.jpg,C_F_13.jpg,A_M_07.jpg,right,855.4049999802373,true,low,NA,NA,NA,NA,NA,NA,NA,false
blKffzXR,3e9vauv7czrnvucm8noapw1mqoqyaq,31z0pcvwuosbiqdoigutw838x89t7c,blKffzXR,2020-0188,2020-06-04,13:53:54,14:16:55,NA,incomplete,129,gender,2,1,left,C_F_01.jpg,A_F_09.jpg,C_M_15.jpg,right,1353.8299999781884,false,low,NA,NA,NA,NA,NA,NA,NA,false
blKffzXR,3e9vauv7czrnvucm8noapw1mqoqyaq,31z0pcvwuosbiqdoigutw838x89t7c,blKffzXR,2020-0188,2020-06-04,13:53:54,14:16:55,NA,incomplete,130,gender,2,0,right,A_M_05.jpg,A_F_02.jpg,C_M_06.jpg,right,912.7849999931641,true,low,NA,NA,NA,NA,NA,NA,NA,false
blKffzXR,3e9vauv7czrnvucm8noapw1mqoqyaq,31z0pcvwuosbiqdoigutw838x89t7c,blKffzXR,2020-0188,2020-06-04,13:53:54,14:16:55,NA,incomplete,131,gender,2,1,left,C_M_15.jpg,A_M_16.jpg,C_F_05.jpg,left,1081.5650000004098,true,low,NA,NA,NA,NA,NA,NA,NA,false
blKffzXR,3e9vauv7czrnvucm8noapw1mqoqyaq,31z0pcvwuosbiqdoigutw838x89t7c,blKffzXR,2020-0188,2020-06-04,13:53:54,14:16:55,NA,incomplete,132,gender,2,0,right,A_M_12.jpg,A_F_07.jpg,C_M_04.jpg,right,956.1899999971502,true,low,NA,NA,NA,NA,NA,NA,NA,false
blKffzXR,3e9vauv7czrnvucm8noapw1mqoqyaq,31z0pcvwuosbiqdoigutw838x89t7c,blKffzXR,2020-0188,2020-06-04,13:53:54,14:16:55,NA,incomplete,133,gender,2,1,left,C_M_06.jpg,A_M_09.jpg,C_F_10.jpg,left,906.6050000255927,true,low,NA,NA,NA,NA,NA,NA,NA,false
blKffzXR,3e9vauv7czrnvucm8noapw1mqoqyaq,31z0pcvwuosbiqdoigutw838x89t7c,blKffzXR,2020-0188,2020-06-04,13:53:54,14:16:55,NA,incomplete,134,gender,2,1,right,A_M_06.jpg,A_F_01.jpg,C_M_11.jpg,right,843.7649999978021,true,low,NA,NA,NA,NA,NA,NA,NA,false
blKffzXR,3e9vauv7czrnvucm8noapw1mqoqyaq,31z0pcvwuosbiqdoigutw838x89t7c,blKffzXR,2020-0188,2020-06-04,13:53:54,14:16:55,NA,incomplete,135,gender,2,0,left,A_F_10.jpg,C_F_08.jpg,A_M_04.jpg,left,935.0950000225566,true,low,NA,NA,NA,NA,NA,NA,NA,false
blKffzXR,3e9vauv7czrnvucm8noapw1mqoqyaq,31z0pcvwuosbiqdoigutw838x89t7c,blKffzXR,2020-0188,2020-06-04,13:53:54,14:16:55,NA,incomplete,136,gender,2,1,left,A_F_06.jpg,C_F_13.jpg,A_M_03.jpg,left,1006.5049999975599,true,low,NA,NA,NA,NA,NA,NA,NA,false
blKffzXR,3e9vauv7czrnvucm8noapw1mqoqyaq,31z0pcvwuosbiqdoigutw838x89t7c,blKffzXR,2020-0188,2020-06-04,13:53:54,14:16:55,NA,incomplete,137,gender,2,0,right,C_F_16.jpg,C_M_13.jpg,A_F_14.jpg,right,1180.0250000087544,true,low,NA,NA,NA,NA,NA,NA,NA,false
blKffzXR,3e9vauv7czrnvucm8noapw1mqoqyaq,31z0pcvwuosbiqdoigutw838x89t7c,blKffzXR,2020-0188,2020-06-04,13:53:54,14:16:55,NA,incomplete,138,gender,2,1,right,A_M_03.jpg,A_F_15.jpg,C_M_05.jpg,right,1025.995000032708,true,low,NA,NA,NA,NA,NA,NA,NA,false
blKffzXR,3e9vauv7czrnvucm8noapw1mqoqyaq,31z0pcvwuosbiqdoigutw838x89t7c,blKffzXR,2020-0188,2020-06-04,13:53:54,14:16:55,NA,incomplete,139,gender,2,1,left,C_F_02.jpg,A_F_07.jpg,C_M_08.jpg,left,918.0049999849871,true,low,NA,NA,NA,NA,NA,NA,NA,false
blKffzXR,3e9vauv7czrnvucm8noapw1mqoqyaq,31z0pcvwuosbiqdoigutw838x89t7c,blKffzXR,2020-0188,2020-06-04,13:53:54,14:16:55,NA,incomplete,140,race,3,1,right,A_M_06.jpg,C_M_02.jpg,A_F_15.jpg,left,958.1400000024587,false,low,NA,NA,NA,NA,NA,NA,NA,false
blKffzXR,3e9vauv7czrnvucm8noapw1mqoqyaq,31z0pcvwuosbiqdoigutw838x89t7c,blKffzXR,2020-0188,2020-06-04,13:53:54,14:16:55,NA,incomplete,141,race,3,1,left,C_M_09.jpg,C_F_13.jpg,A_M_04.jpg,right,868.9550000126474,false,low,NA,NA,NA,NA,NA,NA,NA,false
blKffzXR,3e9vauv7czrnvucm8noapw1mqoqyaq,31z0pcvwuosbiqdoigutw838x89t7c,blKffzXR,2020-0188,2020-06-04,13:53:54,14:16:55,NA,incomplete,142,race,3,1,right,C_F_13.jpg,A_F_09.jpg,C_M_05.jpg,left,1296.0750000202097,false,low,NA,NA,NA,NA,NA,NA,NA,false
blKffzXR,3e9vauv7czrnvucm8noapw1mqoqyaq,31z0pcvwuosbiqdoigutw838x89t7c,blKffzXR,2020-0188,2020-06-04,13:53:54,14:16:55,NA,incomplete,143,race,3,1,left,C_M_04.jpg,C_F_16.jpg,A_M_10.jpg,right,1472.829999984242,false,low,NA,NA,NA,NA,NA,NA,NA,false
blKffzXR,3e9vauv7czrnvucm8noapw1mqoqyaq,31z0pcvwuosbiqdoigutw838x89t7c,blKffzXR,2020-0188,2020-06-04,13:53:54,14:16:55,NA,incomplete,144,race,3,0,left,C_F_03.jpg,C_M_15.jpg,A_F_08.jpg,left,1403.5499999881722,true,low,NA,NA,NA,NA,NA,NA,NA,false
blKffzXR,3e9vauv7czrnvucm8noapw1mqoqyaq,31z0pcvwuosbiqdoigutw838x89t7c,blKffzXR,2020-0188,2020-06-04,13:53:54,14:16:55,NA,incomplete,145,race,3,1,right,C_M_03.jpg,A_M_04.jpg,C_F_16.jpg,left,1424.2150000063702,false,low,NA,NA,NA,NA,NA,NA,NA,false
blKffzXR,3e9vauv7czrnvucm8noapw1mqoqyaq,31z0pcvwuosbiqdoigutw838x89t7c,blKffzXR,2020-0188,2020-06-04,13:53:54,14:16:55,NA,incomplete,146,race,3,0,right,C_M_01.jpg,A_M_03.jpg,C_F_16.jpg,none,0,false,low,NA,NA,NA,NA,NA,NA,NA,false
blKffzXR,3e9vauv7czrnvucm8noapw1mqoqyaq,31z0pcvwuosbiqdoigutw838x89t7c,blKffzXR,2020-0188,2020-06-04,13:53:54,14:16:55,NA,incomplete,147,race,3,1,left,A_M_04.jpg,A_F_14.jpg,C_M_11.jpg,right,1634.4000000390224,false,low,NA,NA,NA,NA,NA,NA,NA,false
blKffzXR,3e9vauv7czrnvucm8noapw1mqoqyaq,31z0pcvwuosbiqdoigutw838x89t7c,blKffzXR,2020-0188,2020-06-04,13:53:54,14:16:55,NA,incomplete,148,race,3,1,right,A_M_15.jpg,C_M_01.jpg,A_F_10.jpg,right,1254.2549999780022,true,low,NA,NA,NA,NA,NA,NA,NA,false
blKffzXR,3e9vauv7czrnvucm8noapw1mqoqyaq,31z0pcvwuosbiqdoigutw838x89t7c,blKffzXR,2020-0188,2020-06-04,13:53:54,14:16:55,NA,incomplete,149,race,3,0,left,A_M_07.jpg,A_F_14.jpg,C_M_03.jpg,left,1185.5750000104308,true,low,NA,NA,NA,NA,NA,NA,NA,false
blKffzXR,3e9vauv7czrnvucm8noapw1mqoqyaq,31z0pcvwuosbiqdoigutw838x89t7c,blKffzXR,2020-0188,2020-06-04,13:53:54,14:16:55,NA,incomplete,150,race,3,1,right,C_F_07.jpg,A_F_10.jpg,C_M_03.jpg,left,1007.1949999546632,false,low,NA,NA,NA,NA,NA,NA,NA,false
blKffzXR,3e9vauv7czrnvucm8noapw1mqoqyaq,31z0pcvwuosbiqdoigutw838x89t7c,blKffzXR,2020-0188,2020-06-04,13:53:54,14:16:55,NA,incomplete,151,race,3,1,left,A_F_12.jpg,A_M_08.jpg,C_F_05.jpg,left,1427.4250000016764,true,low,NA,NA,NA,NA,NA,NA,NA,false
blKffzXR,3e9vauv7czrnvucm8noapw1mqoqyaq,31z0pcvwuosbiqdoigutw838x89t7c,blKffzXR,2020-0188,2020-06-04,13:53:54,14:16:55,NA,incomplete,152,race,3,0,right,A_M_15.jpg,C_M_13.jpg,A_F_02.jpg,right,1167.989999987185,true,low,NA,NA,NA,NA,NA,NA,NA,false
blKffzXR,3e9vauv7czrnvucm8noapw1mqoqyaq,31z0pcvwuosbiqdoigutw838x89t7c,blKffzXR,2020-0188,2020-06-04,13:53:54,14:16:55,NA,incomplete,153,race,3,1,right,C_F_14.jpg,A_F_06.jpg,C_M_01.jpg,left,1462.230000004638,false,low,NA,NA,NA,NA,NA,NA,NA,false
blKffzXR,3e9vauv7czrnvucm8noapw1mqoqyaq,31z0pcvwuosbiqdoigutw838x89t7c,blKffzXR,2020-0188,2020-06-04,13:53:54,14:16:55,NA,incomplete,154,race,3,0,right,A_F_09.jpg,C_F_08.jpg,A_M_02.jpg,right,1449.1850000340492,true,low,NA,NA,NA,NA,NA,NA,NA,false
blKffzXR,3e9vauv7czrnvucm8noapw1mqoqyaq,31z0pcvwuosbiqdoigutw838x89t7c,blKffzXR,2020-0188,2020-06-04,13:53:54,14:16:55,NA,incomplete,155,race,3,1,right,A_M_11.jpg,C_M_06.jpg,A_F_04.jpg,left,932.2249999968335,false,low,NA,NA,NA,NA,NA,NA,NA,false
blKffzXR,3e9vauv7czrnvucm8noapw1mqoqyaq,31z0pcvwuosbiqdoigutw838x89t7c,blKffzXR,2020-0188,2020-06-04,13:53:54,14:16:55,NA,incomplete,156,race,3,1,right,C_M_15.jpg,A_M_11.jpg,C_F_13.jpg,left,876.7999999690801,false,low,NA,NA,NA,NA,NA,NA,NA,false
blKffzXR,3e9vauv7czrnvucm8noapw1mqoqyaq,31z0pcvwuosbiqdoigutw838x89t7c,blKffzXR,2020-0188,2020-06-04,13:53:54,14:16:55,NA,incomplete,157,race,3,1,left,C_F_12.jpg,C_M_05.jpg,A_F_01.jpg,right,1174.7549999854527,false,low,NA,NA,NA,NA,NA,NA,NA,false
blKffzXR,3e9vauv7czrnvucm8noapw1mqoqyaq,31z0pcvwuosbiqdoigutw838x89t7c,blKffzXR,2020-0188,2020-06-04,13:53:54,14:16:55,NA,incomplete,158,race,3,1,right,A_F_07.jpg,C_F_13.jpg,A_M_06.jpg,left,1165.5899999896064,false,low,NA,NA,NA,NA,NA,NA,NA,false
blKffzXR,3e9vauv7czrnvucm8noapw1mqoqyaq,31z0pcvwuosbiqdoigutw838x89t7c,blKffzXR,2020-0188,2020-06-04,13:53:54,14:16:55,NA,incomplete,159,race,3,1,right,A_F_13.jpg,C_F_12.jpg,A_M_03.jpg,right,1211.6700000478886,true,low,NA,NA,NA,NA,NA,NA,NA,false
blKffzXR,3e9vauv7czrnvucm8noapw1mqoqyaq,31z0pcvwuosbiqdoigutw838x89t7c,blKffzXR,2020-0188,2020-06-04,13:53:54,14:16:55,NA,incomplete,160,gender,2,1,left,C_F_05.jpg,A_F_04.jpg,C_M_16.jpg,right,1512.929999968037,false,low,NA,NA,NA,NA,NA,NA,NA,false
blKffzXR,3e9vauv7czrnvucm8noapw1mqoqyaq,31z0pcvwuosbiqdoigutw838x89t7c,blKffzXR,2020-0188,2020-06-04,13:53:54,14:16:55,NA,incomplete,161,gender,2,1,right,C_F_05.jpg,C_M_01.jpg,A_F_02.jpg,left,1305.7100000442006,false,low,NA,NA,NA,NA,NA,NA,NA,false
blKffzXR,3e9vauv7czrnvucm8noapw1mqoqyaq,31z0pcvwuosbiqdoigutw838x89t7c,blKffzXR,2020-0188,2020-06-04,13:53:54,14:16:55,NA,incomplete,162,gender,2,1,left,C_M_10.jpg,A_M_13.jpg,C_F_08.jpg,left,1523.555000021588,true,low,NA,NA,NA,NA,NA,NA,NA,false
blKffzXR,3e9vauv7czrnvucm8noapw1mqoqyaq,31z0pcvwuosbiqdoigutw838x89t7c,blKffzXR,2020-0188,2020-06-04,13:53:54,14:16:55,NA,incomplete,163,gender,2,1,right,C_F_04.jpg,C_M_03.jpg,A_F_10.jpg,right,1115.4899999964982,true,low,NA,NA,NA,NA,NA,NA,NA,false
blKffzXR,3e9vauv7czrnvucm8noapw1mqoqyaq,31z0pcvwuosbiqdoigutw838x89t7c,blKffzXR,2020-0188,2020-06-04,13:53:54,14:16:55,NA,incomplete,164,gender,2,1,right,A_M_03.jpg,A_F_07.jpg,C_M_01.jpg,right,1380.1250000251457,true,low,NA,NA,NA,NA,NA,NA,NA,false
blKffzXR,3e9vauv7czrnvucm8noapw1mqoqyaq,31z0pcvwuosbiqdoigutw838x89t7c,blKffzXR,2020-0188,2020-06-04,13:53:54,14:16:55,NA,incomplete,165,gender,2,0,right,C_M_15.jpg,C_F_01.jpg,A_M_14.jpg,right,1122.9150000144728,true,low,NA,NA,NA,NA,NA,NA,NA,false
blKffzXR,3e9vauv7czrnvucm8noapw1mqoqyaq,31z0pcvwuosbiqdoigutw838x89t7c,blKffzXR,2020-0188,2020-06-04,13:53:54,14:16:55,NA,incomplete,166,gender,2,1,left,A_M_11.jpg,C_M_03.jpg,A_F_08.jpg,left,779.210000007879,true,low,NA,NA,NA,NA,NA,NA,NA,false
blKffzXR,3e9vauv7czrnvucm8noapw1mqoqyaq,31z0pcvwuosbiqdoigutw838x89t7c,blKffzXR,2020-0188,2020-06-04,13:53:54,14:16:55,NA,incomplete,167,gender,2,1,right,A_F_05.jpg,A_M_12.jpg,C_F_02.jpg,right,904.8100000363775,true,low,NA,NA,NA,NA,NA,NA,NA,false
blKffzXR,3e9vauv7czrnvucm8noapw1mqoqyaq,31z0pcvwuosbiqdoigutw838x89t7c,blKffzXR,2020-0188,2020-06-04,13:53:54,14:16:55,NA,incomplete,168,gender,2,1,right,A_M_09.jpg,A_F_04.jpg,C_M_08.jpg,right,881.8050000118092,true,low,NA,NA,NA,NA,NA,NA,NA,false
blKffzXR,3e9vauv7czrnvucm8noapw1mqoqyaq,31z0pcvwuosbiqdoigutw838x89t7c,blKffzXR,2020-0188,2020-06-04,13:53:54,14:16:55,NA,incomplete,169,gender,2,1,right,C_F_13.jpg,C_M_04.jpg,A_F_08.jpg,right,1164.089999976568,true,low,NA,NA,NA,NA,NA,NA,NA,false
blKffzXR,3e9vauv7czrnvucm8noapw1mqoqyaq,31z0pcvwuosbiqdoigutw838x89t7c,blKffzXR,2020-0188,2020-06-04,13:53:54,14:16:55,NA,incomplete,170,gender,2,1,right,A_M_16.jpg,A_F_04.jpg,C_M_11.jpg,right,1131.7050000070594,true,low,NA,NA,NA,NA,NA,NA,NA,false
blKffzXR,3e9vauv7czrnvucm8noapw1mqoqyaq,31z0pcvwuosbiqdoigutw838x89t7c,blKffzXR,2020-0188,2020-06-04,13:53:54,14:16:55,NA,incomplete,171,gender,2,1,right,C_F_09.jpg,C_M_07.jpg,A_F_14.jpg,right,1323.1200000154786,true,low,NA,NA,NA,NA,NA,NA,NA,false
blKffzXR,3e9vauv7czrnvucm8noapw1mqoqyaq,31z0pcvwuosbiqdoigutw838x89t7c,blKffzXR,2020-0188,2020-06-04,13:53:54,14:16:55,NA,incomplete,172,gender,2,1,right,C_F_16.jpg,C_M_01.jpg,A_F_14.jpg,right,1171.5749999857508,true,low,NA,NA,NA,NA,NA,NA,NA,false
blKffzXR,3e9vauv7czrnvucm8noapw1mqoqyaq,31z0pcvwuosbiqdoigutw838x89t7c,blKffzXR,2020-0188,2020-06-04,13:53:54,14:16:55,NA,incomplete,173,gender,2,1,left,C_M_01.jpg,A_M_06.jpg,C_F_03.jpg,left,970.084999979008,true,low,NA,NA,NA,NA,NA,NA,NA,false
blKffzXR,3e9vauv7czrnvucm8noapw1mqoqyaq,31z0pcvwuosbiqdoigutw838x89t7c,blKffzXR,2020-0188,2020-06-04,13:53:54,14:16:55,NA,incomplete,174,gender,2,1,left,A_F_09.jpg,C_F_02.jpg,A_M_07.jpg,left,1024.535000033211,true,low,NA,NA,NA,NA,NA,NA,NA,false
blKffzXR,3e9vauv7czrnvucm8noapw1mqoqyaq,31z0pcvwuosbiqdoigutw838x89t7c,blKffzXR,2020-0188,2020-06-04,13:53:54,14:16:55,NA,incomplete,175,gender,2,0,right,C_F_15.jpg,C_M_06.jpg,A_F_12.jpg,right,868.3549999841489,true,low,NA,NA,NA,NA,NA,NA,NA,false
blKffzXR,3e9vauv7czrnvucm8noapw1mqoqyaq,31z0pcvwuosbiqdoigutw838x89t7c,blKffzXR,2020-0188,2020-06-04,13:53:54,14:16:55,NA,incomplete,176,gender,2,1,right,C_F_06.jpg,C_M_03.jpg,A_F_14.jpg,right,1206.4399999799207,true,low,NA,NA,NA,NA,NA,NA,NA,false
blKffzXR,3e9vauv7czrnvucm8noapw1mqoqyaq,31z0pcvwuosbiqdoigutw838x89t7c,blKffzXR,2020-0188,2020-06-04,13:53:54,14:16:55,NA,incomplete,177,gender,2,1,right,A_M_07.jpg,A_F_04.jpg,C_M_01.jpg,right,1091.599999985192,true,low,NA,NA,NA,NA,NA,NA,NA,false
blKffzXR,3e9vauv7czrnvucm8noapw1mqoqyaq,31z0pcvwuosbiqdoigutw838x89t7c,blKffzXR,2020-0188,2020-06-04,13:53:54,14:16:55,NA,incomplete,178,gender,2,1,right,A_F_11.jpg,A_M_03.jpg,C_F_07.jpg,right,1069.7699999436736,true,low,NA,NA,NA,NA,NA,NA,NA,false
blKffzXR,3e9vauv7czrnvucm8noapw1mqoqyaq,31z0pcvwuosbiqdoigutw838x89t7c,blKffzXR,2020-0188,2020-06-04,13:53:54,14:16:55,NA,incomplete,179,gender,2,1,left,A_F_14.jpg,C_F_01.jpg,A_M_16.jpg,left,1127.314999990631,true,low,NA,NA,NA,NA,NA,NA,NA,false
blKffzXR,3e9vauv7czrnvucm8noapw1mqoqyaq,31z0pcvwuosbiqdoigutw838x89t7c,blKffzXR,2020-0188,2020-06-04,13:53:54,14:16:55,NA,incomplete,180,race,3,0,left,A_M_09.jpg,A_F_05.jpg,C_M_13.jpg,right,1015.7749999780208,false,low,NA,NA,NA,NA,NA,NA,NA,false
blKffzXR,3e9vauv7czrnvucm8noapw1mqoqyaq,31z0pcvwuosbiqdoigutw838x89t7c,blKffzXR,2020-0188,2020-06-04,13:53:54,14:16:55,NA,incomplete,181,race,3,1,left,C_M_02.jpg,C_F_09.jpg,A_M_11.jpg,right,1084.6899999887682,false,low,NA,NA,NA,NA,NA,NA,NA,false
blKffzXR,3e9vauv7czrnvucm8noapw1mqoqyaq,31z0pcvwuosbiqdoigutw838x89t7c,blKffzXR,2020-0188,2020-06-04,13:53:54,14:16:55,NA,incomplete,182,race,3,0,left,C_F_14.jpg,C_M_02.jpg,A_F_03.jpg,right,1014.3900000257418,false,low,NA,NA,NA,NA,NA,NA,NA,false
blKffzXR,3e9vauv7czrnvucm8noapw1mqoqyaq,31z0pcvwuosbiqdoigutw838x89t7c,blKffzXR,2020-0188,2020-06-04,13:53:54,14:16:55,NA,incomplete,183,race,3,1,left,A_M_02.jpg,A_F_04.jpg,C_M_12.jpg,right,1010.8800000161864,false,low,NA,NA,NA,NA,NA,NA,NA,false
blKffzXR,3e9vauv7czrnvucm8noapw1mqoqyaq,31z0pcvwuosbiqdoigutw838x89t7c,blKffzXR,2020-0188,2020-06-04,13:53:54,14:16:55,NA,incomplete,184,race,3,1,left,C_F_04.jpg,C_M_05.jpg,A_F_09.jpg,right,1327.8700000373647,false,low,NA,NA,NA,NA,NA,NA,NA,false
blKffzXR,3e9vauv7czrnvucm8noapw1mqoqyaq,31z0pcvwuosbiqdoigutw838x89t7c,blKffzXR,2020-0188,2020-06-04,13:53:54,14:16:55,NA,incomplete,185,race,3,1,left,C_M_06.jpg,C_F_10.jpg,A_M_13.jpg,right,984.1050000395626,false,low,NA,NA,NA,NA,NA,NA,NA,false
blKffzXR,3e9vauv7czrnvucm8noapw1mqoqyaq,31z0pcvwuosbiqdoigutw838x89t7c,blKffzXR,2020-0188,2020-06-04,13:53:54,14:16:55,NA,incomplete,186,race,3,1,right,C_F_12.jpg,A_F_16.jpg,C_M_08.jpg,right,1414.0149999875575,true,low,NA,NA,NA,NA,NA,NA,NA,false
blKffzXR,3e9vauv7czrnvucm8noapw1mqoqyaq,31z0pcvwuosbiqdoigutw838x89t7c,blKffzXR,2020-0188,2020-06-04,13:53:54,14:16:55,NA,incomplete,187,race,3,1,right,A_F_06.jpg,C_F_16.jpg,A_M_05.jpg,right,1770.894999965094,true,low,NA,NA,NA,NA,NA,NA,NA,false
blKffzXR,3e9vauv7czrnvucm8noapw1mqoqyaq,31z0pcvwuosbiqdoigutw838x89t7c,blKffzXR,2020-0188,2020-06-04,13:53:54,14:16:55,NA,incomplete,188,race,3,0,right,C_F_05.jpg,A_F_07.jpg,C_M_10.jpg,right,1505.4049999453127,true,low,NA,NA,NA,NA,NA,NA,NA,false
blKffzXR,3e9vauv7czrnvucm8noapw1mqoqyaq,31z0pcvwuosbiqdoigutw838x89t7c,blKffzXR,2020-0188,2020-06-04,13:53:54,14:16:55,NA,incomplete,189,race,3,1,left,A_M_14.jpg,A_F_16.jpg,C_M_05.jpg,left,1642.0950000174344,true,low,NA,NA,NA,NA,NA,NA,NA,false
blKffzXR,3e9vauv7czrnvucm8noapw1mqoqyaq,31z0pcvwuosbiqdoigutw838x89t7c,blKffzXR,2020-0188,2020-06-04,13:53:54,14:16:55,NA,incomplete,190,race,3,1,left,A_M_07.jpg,A_F_08.jpg,C_M_01.jpg,left,1502.8450000099838,true,low,NA,NA,NA,NA,NA,NA,NA,false
blKffzXR,3e9vauv7czrnvucm8noapw1mqoqyaq,31z0pcvwuosbiqdoigutw838x89t7c,blKffzXR,2020-0188,2020-06-04,13:53:54,14:16:55,NA,incomplete,191,race,3,0,right,A_F_02.jpg,C_F_04.jpg,A_M_01.jpg,right,1311.1149999895133,true,low,NA,NA,NA,NA,NA,NA,NA,false
blKffzXR,3e9vauv7czrnvucm8noapw1mqoqyaq,31z0pcvwuosbiqdoigutw838x89t7c,blKffzXR,2020-0188,2020-06-04,13:53:54,14:16:55,NA,incomplete,192,race,3,1,right,A_M_03.jpg,C_M_04.jpg,A_F_16.jpg,right,1464.0500000095926,true,low,NA,NA,NA,NA,NA,NA,NA,false
blKffzXR,3e9vauv7czrnvucm8noapw1mqoqyaq,31z0pcvwuosbiqdoigutw838x89t7c,blKffzXR,2020-0188,2020-06-04,13:53:54,14:16:55,NA,incomplete,193,race,3,1,right,C_F_05.jpg,A_F_03.jpg,C_M_08.jpg,right,1859.3550000223331,true,low,NA,NA,NA,NA,NA,NA,NA,false
blKffzXR,3e9vauv7czrnvucm8noapw1mqoqyaq,31z0pcvwuosbiqdoigutw838x89t7c,blKffzXR,2020-0188,2020-06-04,13:53:54,14:16:55,NA,incomplete,194,race,3,1,right,C_M_10.jpg,A_M_07.jpg,C_F_05.jpg,right,1671.1999999824911,true,low,NA,NA,NA,NA,NA,NA,NA,false
blKffzXR,3e9vauv7czrnvucm8noapw1mqoqyaq,31z0pcvwuosbiqdoigutw838x89t7c,blKffzXR,2020-0188,2020-06-04,13:53:54,14:16:55,NA,incomplete,195,race,3,1,left,C_M_12.jpg,C_F_02.jpg,A_M_16.jpg,left,1472.9200000292622,true,low,NA,NA,NA,NA,NA,NA,NA,false
blKffzXR,3e9vauv7czrnvucm8noapw1mqoqyaq,31z0pcvwuosbiqdoigutw838x89t7c,blKffzXR,2020-0188,2020-06-04,13:53:54,14:16:55,NA,incomplete,196,race,3,1,right,A_F_04.jpg,C_F_10.jpg,A_M_01.jpg,right,1259.1350000002421,true,low,NA,NA,NA,NA,NA,NA,NA,false
blKffzXR,3e9vauv7czrnvucm8noapw1mqoqyaq,31z0pcvwuosbiqdoigutw838x89t7c,blKffzXR,2020-0188,2020-06-04,13:53:54,14:16:55,NA,incomplete,197,race,3,0,left,C_M_16.jpg,C_F_06.jpg,A_M_10.jpg,left,1558.2699999795295,true,low,NA,NA,NA,NA,NA,NA,NA,false
blKffzXR,3e9vauv7czrnvucm8noapw1mqoqyaq,31z0pcvwuosbiqdoigutw838x89t7c,blKffzXR,2020-0188,2020-06-04,13:53:54,14:16:55,NA,incomplete,198,race,3,1,left,C_M_03.jpg,C_F_05.jpg,A_M_12.jpg,left,1550.0400000019,true,low,NA,NA,NA,NA,NA,NA,NA,false
blKffzXR,3e9vauv7czrnvucm8noapw1mqoqyaq,31z0pcvwuosbiqdoigutw838x89t7c,blKffzXR,2020-0188,2020-06-04,13:53:54,14:16:55,NA,incomplete,199,race,3,1,right,A_M_13.jpg,C_M_07.jpg,A_F_10.jpg,left,1388.364999962505,false,low,NA,NA,NA,NA,NA,NA,NA,false
blKffzXR,3e9vauv7czrnvucm8noapw1mqoqyaq,31z0pcvwuosbiqdoigutw838x89t7c,blKffzXR,2020-0188,2020-06-04,13:53:54,14:16:55,NA,incomplete,200,gender,2,1,left,C_M_07.jpg,A_M_06.jpg,C_F_13.jpg,right,1401.929999992717,false,low,NA,NA,NA,NA,NA,NA,NA,false
blKffzXR,3e9vauv7czrnvucm8noapw1mqoqyaq,31z0pcvwuosbiqdoigutw838x89t7c,blKffzXR,2020-0188,2020-06-04,13:53:54,14:16:55,NA,incomplete,201,gender,2,1,left,A_M_15.jpg,C_M_02.jpg,A_F_12.jpg,right,1591.0300000105053,false,low,NA,NA,NA,NA,NA,NA,NA,false
blKffzXR,3e9vauv7czrnvucm8noapw1mqoqyaq,31z0pcvwuosbiqdoigutw838x89t7c,blKffzXR,2020-0188,2020-06-04,13:53:54,14:16:55,NA,incomplete,202,gender,2,1,left,C_F_15.jpg,A_F_06.jpg,C_M_08.jpg,right,1557.3999999905936,false,low,NA,NA,NA,NA,NA,NA,NA,false
blKffzXR,3e9vauv7czrnvucm8noapw1mqoqyaq,31z0pcvwuosbiqdoigutw838x89t7c,blKffzXR,2020-0188,2020-06-04,13:53:54,14:16:55,NA,incomplete,203,gender,2,1,right,A_F_14.jpg,A_M_03.jpg,C_F_12.jpg,right,979.7300000209361,true,low,NA,NA,NA,NA,NA,NA,NA,false
blKffzXR,3e9vauv7czrnvucm8noapw1mqoqyaq,31z0pcvwuosbiqdoigutw838x89t7c,blKffzXR,2020-0188,2020-06-04,13:53:54,14:16:55,NA,incomplete,204,gender,2,1,left,A_M_10.jpg,C_M_02.jpg,A_F_05.jpg,left,1105.9949999907985,true,low,NA,NA,NA,NA,NA,NA,NA,false
blKffzXR,3e9vauv7czrnvucm8noapw1mqoqyaq,31z0pcvwuosbiqdoigutw838x89t7c,blKffzXR,2020-0188,2020-06-04,13:53:54,14:16:55,NA,incomplete,205,gender,2,1,right,A_M_14.jpg,A_F_12.jpg,C_M_13.jpg,right,963.0600000382401,true,low,NA,NA,NA,NA,NA,NA,NA,false
blKffzXR,3e9vauv7czrnvucm8noapw1mqoqyaq,31z0pcvwuosbiqdoigutw838x89t7c,blKffzXR,2020-0188,2020-06-04,13:53:54,14:16:55,NA,incomplete,206,gender,2,1,left,A_M_16.jpg,C_M_15.jpg,A_F_02.jpg,left,1106.6049999790266,true,low,NA,NA,NA,NA,NA,NA,NA,false
blKffzXR,3e9vauv7czrnvucm8noapw1mqoqyaq,31z0pcvwuosbiqdoigutw838x89t7c,blKffzXR,2020-0188,2020-06-04,13:53:54,14:16:55,NA,incomplete,207,gender,2,1,right,A_F_16.jpg,A_M_12.jpg,C_F_14.jpg,right,1058.744999987539,true,low,NA,NA,NA,NA,NA,NA,NA,false
blKffzXR,3e9vauv7czrnvucm8noapw1mqoqyaq,31z0pcvwuosbiqdoigutw838x89t7c,blKffzXR,2020-0188,2020-06-04,13:53:54,14:16:55,NA,incomplete,208,gender,2,1,left,A_M_08.jpg,C_M_12.jpg,A_F_03.jpg,left,1141.6850000387058,true,low,NA,NA,NA,NA,NA,NA,NA,false
blKffzXR,3e9vauv7czrnvucm8noapw1mqoqyaq,31z0pcvwuosbiqdoigutw838x89t7c,blKffzXR,2020-0188,2020-06-04,13:53:54,14:16:55,NA,incomplete,209,gender,2,1,left,C_F_12.jpg,A_F_07.jpg,C_M_05.jpg,left,1205.6100000045262,true,low,NA,NA,NA,NA,NA,NA,NA,false
blKffzXR,3e9vauv7czrnvucm8noapw1mqoqyaq,31z0pcvwuosbiqdoigutw838x89t7c,blKffzXR,2020-0188,2020-06-04,13:53:54,14:16:55,NA,incomplete,210,gender,2,1,right,C_F_08.jpg,C_M_05.jpg,A_F_12.jpg,right,922.9250000207685,true,low,NA,NA,NA,NA,NA,NA,NA,false
blKffzXR,3e9vauv7czrnvucm8noapw1mqoqyaq,31z0pcvwuosbiqdoigutw838x89t7c,blKffzXR,2020-0188,2020-06-04,13:53:54,14:16:55,NA,incomplete,211,gender,2,1,left,C_F_05.jpg,A_F_02.jpg,C_M_01.jpg,left,1002.2800000151619,true,low,NA,NA,NA,NA,NA,NA,NA,false
blKffzXR,3e9vauv7czrnvucm8noapw1mqoqyaq,31z0pcvwuosbiqdoigutw838x89t7c,blKffzXR,2020-0188,2020-06-04,13:53:54,14:16:55,NA,incomplete,212,gender,2,1,left,C_F_13.jpg,A_F_07.jpg,C_M_16.jpg,left,991.4649999700487,true,low,NA,NA,NA,NA,NA,NA,NA,false
blKffzXR,3e9vauv7czrnvucm8noapw1mqoqyaq,31z0pcvwuosbiqdoigutw838x89t7c,blKffzXR,2020-0188,2020-06-04,13:53:54,14:16:55,NA,incomplete,213,gender,2,1,left,A_M_07.jpg,C_M_14.jpg,A_F_05.jpg,right,1060.8700000448152,false,low,NA,NA,NA,NA,NA,NA,NA,false
blKffzXR,3e9vauv7czrnvucm8noapw1mqoqyaq,31z0pcvwuosbiqdoigutw838x89t7c,blKffzXR,2020-0188,2020-06-04,13:53:54,14:16:55,NA,incomplete,214,gender,2,0,left,A_M_03.jpg,C_M_12.jpg,A_F_04.jpg,left,951.7549999873154,true,low,NA,NA,NA,NA,NA,NA,NA,false
blKffzXR,3e9vauv7czrnvucm8noapw1mqoqyaq,31z0pcvwuosbiqdoigutw838x89t7c,blKffzXR,2020-0188,2020-06-04,13:53:54,14:16:55,NA,incomplete,215,gender,2,1,left,A_M_04.jpg,C_M_10.jpg,A_F_14.jpg,right,759.3800000031479,false,low,NA,NA,NA,NA,NA,NA,NA,false
blKffzXR,3e9vauv7czrnvucm8noapw1mqoqyaq,31z0pcvwuosbiqdoigutw838x89t7c,blKffzXR,2020-0188,2020-06-04,13:53:54,14:16:55,NA,incomplete,216,gender,2,1,left,C_F_12.jpg,A_F_02.jpg,C_M_14.jpg,left,1221.2500000023283,true,low,NA,NA,NA,NA,NA,NA,NA,false
blKffzXR,3e9vauv7czrnvucm8noapw1mqoqyaq,31z0pcvwuosbiqdoigutw838x89t7c,blKffzXR,2020-0188,2020-06-04,13:53:54,14:16:55,NA,incomplete,217,gender,2,0,right,A_F_04.jpg,A_M_11.jpg,C_F_01.jpg,right,1234.0149999945424,true,low,NA,NA,NA,NA,NA,NA,NA,false
blKffzXR,3e9vauv7czrnvucm8noapw1mqoqyaq,31z0pcvwuosbiqdoigutw838x89t7c,blKffzXR,2020-0188,2020-06-04,13:53:54,14:16:55,NA,incomplete,218,gender,2,1,right,A_M_09.jpg,A_F_03.jpg,C_M_16.jpg,right,1045.3299999935552,true,low,NA,NA,NA,NA,NA,NA,NA,false
blKffzXR,3e9vauv7czrnvucm8noapw1mqoqyaq,31z0pcvwuosbiqdoigutw838x89t7c,blKffzXR,2020-0188,2020-06-04,13:53:54,14:16:55,NA,incomplete,219,gender,2,0,left,A_M_08.jpg,C_M_07.jpg,A_F_13.jpg,left,913.3499999879859,true,low,NA,NA,NA,NA,NA,NA,NA,false
blKffzXR,3e9vauv7czrnvucm8noapw1mqoqyaq,31z0pcvwuosbiqdoigutw838x89t7c,blKffzXR,2020-0188,2020-06-04,13:53:54,14:16:55,NA,incomplete,220,race,3,1,left,C_M_13.jpg,C_F_12.jpg,A_M_15.jpg,right,977.8999999980442,false,low,NA,NA,NA,NA,NA,NA,NA,false
blKffzXR,3e9vauv7czrnvucm8noapw1mqoqyaq,31z0pcvwuosbiqdoigutw838x89t7c,blKffzXR,2020-0188,2020-06-04,13:53:54,14:16:55,NA,incomplete,221,race,3,0,left,C_M_09.jpg,C_F_03.jpg,A_M_08.jpg,left,1416.3399999961257,true,low,NA,NA,NA,NA,NA,NA,NA,false
blKffzXR,3e9vauv7czrnvucm8noapw1mqoqyaq,31z0pcvwuosbiqdoigutw838x89t7c,blKffzXR,2020-0188,2020-06-04,13:53:54,14:16:55,NA,incomplete,222,race,3,1,left,C_M_08.jpg,C_F_09.jpg,A_M_06.jpg,right,1573.1000000378117,false,low,NA,NA,NA,NA,NA,NA,NA,false
blKffzXR,3e9vauv7czrnvucm8noapw1mqoqyaq,31z0pcvwuosbiqdoigutw838x89t7c,blKffzXR,2020-0188,2020-06-04,13:53:54,14:16:55,NA,incomplete,223,race,3,1,left,C_M_04.jpg,C_F_14.jpg,A_M_15.jpg,left,1412.110000033863,true,low,NA,NA,NA,NA,NA,NA,NA,false
blKffzXR,3e9vauv7czrnvucm8noapw1mqoqyaq,31z0pcvwuosbiqdoigutw838x89t7c,blKffzXR,2020-0188,2020-06-04,13:53:54,14:16:55,NA,incomplete,224,race,3,1,left,A_F_04.jpg,A_M_16.jpg,C_F_10.jpg,left,1288.5600000154227,true,low,NA,NA,NA,NA,NA,NA,NA,false
blKffzXR,3e9vauv7czrnvucm8noapw1mqoqyaq,31z0pcvwuosbiqdoigutw838x89t7c,blKffzXR,2020-0188,2020-06-04,13:53:54,14:16:55,NA,incomplete,225,race,3,1,right,C_M_03.jpg,A_M_10.jpg,C_F_06.jpg,right,1458.4449999965727,true,low,NA,NA,NA,NA,NA,NA,NA,false
blKffzXR,3e9vauv7czrnvucm8noapw1mqoqyaq,31z0pcvwuosbiqdoigutw838x89t7c,blKffzXR,2020-0188,2020-06-04,13:53:54,14:16:55,NA,incomplete,226,race,3,1,left,A_M_04.jpg,A_F_10.jpg,C_M_08.jpg,left,1301.195000007283,true,low,NA,NA,NA,NA,NA,NA,NA,false
blKffzXR,3e9vauv7czrnvucm8noapw1mqoqyaq,31z0pcvwuosbiqdoigutw838x89t7c,blKffzXR,2020-0188,2020-06-04,13:53:54,14:16:55,NA,incomplete,227,race,3,1,left,C_M_13.jpg,C_F_01.jpg,A_M_12.jpg,left,1398.6799999838695,true,low,NA,NA,NA,NA,NA,NA,NA,false
blKffzXR,3e9vauv7czrnvucm8noapw1mqoqyaq,31z0pcvwuosbiqdoigutw838x89t7c,blKffzXR,2020-0188,2020-06-04,13:53:54,14:16:55,NA,incomplete,228,race,3,1,right,A_M_04.jpg,C_M_10.jpg,A_F_09.jpg,right,979.9699999857694,true,low,NA,NA,NA,NA,NA,NA,NA,false
blKffzXR,3e9vauv7czrnvucm8noapw1mqoqyaq,31z0pcvwuosbiqdoigutw838x89t7c,blKffzXR,2020-0188,2020-06-04,13:53:54,14:16:55,NA,incomplete,229,race,3,1,right,A_F_13.jpg,C_F_05.jpg,A_M_12.jpg,right,1370.3300000051968,true,low,NA,NA,NA,NA,NA,NA,NA,false
blKffzXR,3e9vauv7czrnvucm8noapw1mqoqyaq,31z0pcvwuosbiqdoigutw838x89t7c,blKffzXR,2020-0188,2020-06-04,13:53:54,14:16:55,NA,incomplete,230,race,3,1,left,A_F_08.jpg,A_M_01.jpg,C_F_06.jpg,left,1344.6850000182167,true,low,NA,NA,NA,NA,NA,NA,NA,false
blKffzXR,3e9vauv7czrnvucm8noapw1mqoqyaq,31z0pcvwuosbiqdoigutw838x89t7c,blKffzXR,2020-0188,2020-06-04,13:53:54,14:16:55,NA,incomplete,231,race,3,1,left,A_M_07.jpg,A_F_02.jpg,C_M_08.jpg,left,1272.6300000213087,true,low,NA,NA,NA,NA,NA,NA,NA,false
blKffzXR,3e9vauv7czrnvucm8noapw1mqoqyaq,31z0pcvwuosbiqdoigutw838x89t7c,blKffzXR,2020-0188,2020-06-04,13:53:54,14:16:55,NA,incomplete,232,race,3,1,left,A_F_06.jpg,A_M_09.jpg,C_F_16.jpg,left,1570.705000020098,true,low,NA,NA,NA,NA,NA,NA,NA,false
blKffzXR,3e9vauv7czrnvucm8noapw1mqoqyaq,31z0pcvwuosbiqdoigutw838x89t7c,blKffzXR,2020-0188,2020-06-04,13:53:54,14:16:55,NA,incomplete,233,race,3,1,left,A_M_12.jpg,A_F_04.jpg,C_M_09.jpg,left,1328.7550000241026,true,low,NA,NA,NA,NA,NA,NA,NA,false
blKffzXR,3e9vauv7czrnvucm8noapw1mqoqyaq,31z0pcvwuosbiqdoigutw838x89t7c,blKffzXR,2020-0188,2020-06-04,13:53:54,14:16:55,NA,incomplete,234,race,3,1,left,C_F_06.jpg,C_M_08.jpg,A_F_12.jpg,right,1849.385000008624,false,low,NA,NA,NA,NA,NA,NA,NA,false
blKffzXR,3e9vauv7czrnvucm8noapw1mqoqyaq,31z0pcvwuosbiqdoigutw838x89t7c,blKffzXR,2020-0188,2020-06-04,13:53:54,14:16:55,NA,incomplete,235,race,3,1,left,A_M_01.jpg,A_F_05.jpg,C_M_12.jpg,left,1317.5000000046566,true,low,NA,NA,NA,NA,NA,NA,NA,false
blKffzXR,3e9vauv7czrnvucm8noapw1mqoqyaq,31z0pcvwuosbiqdoigutw838x89t7c,blKffzXR,2020-0188,2020-06-04,13:53:54,14:16:55,NA,incomplete,236,race,3,0,right,C_F_12.jpg,A_F_06.jpg,C_M_15.jpg,right,1709.4250000081956,true,low,NA,NA,NA,NA,NA,NA,NA,false
blKffzXR,3e9vauv7czrnvucm8noapw1mqoqyaq,31z0pcvwuosbiqdoigutw838x89t7c,blKffzXR,2020-0188,2020-06-04,13:53:54,14:16:55,NA,incomplete,237,race,3,1,right,C_M_15.jpg,A_M_09.jpg,C_F_08.jpg,right,1654.5199999818578,true,low,NA,NA,NA,NA,NA,NA,NA,false
blKffzXR,3e9vauv7czrnvucm8noapw1mqoqyaq,31z0pcvwuosbiqdoigutw838x89t7c,blKffzXR,2020-0188,2020-06-04,13:53:54,14:16:55,NA,incomplete,238,race,3,1,left,C_M_12.jpg,C_F_13.jpg,A_M_14.jpg,left,1441.614999959711,true,low,NA,NA,NA,NA,NA,NA,NA,false
blKffzXR,3e9vauv7czrnvucm8noapw1mqoqyaq,31z0pcvwuosbiqdoigutw838x89t7c,blKffzXR,2020-0188,2020-06-04,13:53:54,14:16:55,NA,incomplete,239,race,3,1,right,A_M_10.jpg,C_M_07.jpg,A_F_02.jpg,right,1349.6049999957904,true,low,NA,NA,NA,NA,NA,NA,NA,false
blKffzXR,3e9vauv7czrnvucm8noapw1mqoqyaq,31z0pcvwuosbiqdoigutw838x89t7c,blKffzXR,2020-0188,2020-06-04,13:53:54,14:16:55,NA,NA,instruction example,shape,NA,NA,NA,Blue_Star_Stripes_3.jpg,Red_Star_Dots_1.jpg,Green_Triangle_Stripes_4.jpg,NA,NA,NA,NA,NA,NA,NA,NA,NA,NA,NA,undefined
blKffzXR,3e9vauv7czrnvucm8noapw1mqoqyaq,31z0pcvwuosbiqdoigutw838x89t7c,blKffzXR,2020-0188,2020-06-04,13:53:54,14:16:55,NA,NA,instruction example,shape,NA,NA,NA,Purple_Plus_Stripes_2.jpg,Blue_Star_Stripes_1.jpg,Red_Plus_Chess_4.jpg,NA,NA,NA,NA,NA,NA,NA,NA,NA,NA,NA,undefined
blKffzXR,3e9vauv7czrnvucm8noapw1mqoqyaq,31z0pcvwuosbiqdoigutw838x89t7c,blKffzXR,2020-0188,2020-06-04,13:53:54,14:16:55,NA,NA,instruction example,shape,NA,NA,NA,A_F_02.jpg,C_F_13.jpg,A_M_11.jpg,NA,NA,NA,NA,NA,NA,NA,NA,NA,NA,NA,undefined
blKffzXR,3e9vauv7czrnvucm8noapw1mqoqyaq,31z0pcvwuosbiqdoigutw838x89t7c,blKffzXR,2020-0188,2020-06-04,13:53:54,14:16:55,NA,NA,instruction example,shape,NA,NA,NA,A_F_08.jpg,A_M_04.jpg,C_F_05.jpg,NA,NA,NA,NA,NA,NA,NA,NA,NA,NA,NA,undefined
blKffzXR,3e9vauv7czrnvucm8noapw1mqoqyaq,31z0pcvwuosbiqdoigutw838x89t7c,blKffzXR,2020-0188,2020-06-04,13:53:54,14:16:55,1325356.8850000156,1383972.9700000025,NA,NA,NA,NA,NA,NA,NA,NA,NA,NA,NA,NA,54,White/Caucasian,Male,American,no,yes,no,undefined
