workerId,hitId,assignmentId,subject,studyid,exp_date,exp_start,exp_end,time_start,time_end,trial,type,sequence,reward_validity,answer,image_top,image_left,image_right,response,response_time,response_acc,volatility,age,race,gender,ethnicity,color,vision,neuro,practice
xe8BiYlh,3ba7sxog2m30f57lxuc2l92uxdc8rv,32vnztt0abh1joidctrrthigij0r4n,xe8BiYlh,2020-0188,2020-06-04,12:22:01,12:36:13,NA,incomplete,0,color,0,1,left,Blue_Circle_Grid_1.jpg,Blue_Triangle_Stripes_2.jpg,Red_Star_Grid_4.jpg,none,0,false,NA,NA,NA,NA,NA,NA,NA,NA,true
xe8BiYlh,3ba7sxog2m30f57lxuc2l92uxdc8rv,32vnztt0abh1joidctrrthigij0r4n,xe8BiYlh,2020-0188,2020-06-04,12:22:01,12:36:13,NA,incomplete,1,color,0,0,left,Green_Plus_Dots_3.jpg,Green_Triangle_Chess_4.jpg,Purple_Star_Dots_2.jpg,left,711.9999999995343,true,NA,NA,NA,NA,NA,NA,NA,NA,true
xe8BiYlh,3ba7sxog2m30f57lxuc2l92uxdc8rv,32vnztt0abh1joidctrrthigij0r4n,xe8BiYlh,2020-0188,2020-06-04,12:22:01,12:36:13,NA,incomplete,2,color,0,1,right,Green_Plus_Dots_1.jpg,Purple_Triangle_Dots_4.jpg,Green_Circle_Chess_2.jpg,right,991.9999999983702,true,NA,NA,NA,NA,NA,NA,NA,NA,true
xe8BiYlh,3ba7sxog2m30f57lxuc2l92uxdc8rv,32vnztt0abh1joidctrrthigij0r4n,xe8BiYlh,2020-0188,2020-06-04,12:22:01,12:36:13,NA,incomplete,3,color,0,0,left,Blue_Triangle_Grid_2.jpg,Blue_Star_Stripes_4.jpg,Purple_Circle_Grid_3.jpg,left,891.9999999998254,true,NA,NA,NA,NA,NA,NA,NA,NA,true
xe8BiYlh,3ba7sxog2m30f57lxuc2l92uxdc8rv,32vnztt0abh1joidctrrthigij0r4n,xe8BiYlh,2020-0188,2020-06-04,12:22:01,12:36:13,NA,incomplete,4,color,0,1,right,Blue_Star_Stripes_4.jpg,Purple_Triangle_Stripes_3.jpg,Blue_Circle_Grid_2.jpg,right,745.9999999991851,true,NA,NA,NA,NA,NA,NA,NA,NA,true
xe8BiYlh,3ba7sxog2m30f57lxuc2l92uxdc8rv,32vnztt0abh1joidctrrthigij0r4n,xe8BiYlh,2020-0188,2020-06-04,12:22:01,12:36:13,NA,incomplete,5,color,0,1,left,Green_Triangle_Grid_4.jpg,Green_Star_Stripes_2.jpg,Red_Plus_Grid_3.jpg,left,872.9999999995925,true,NA,NA,NA,NA,NA,NA,NA,NA,true
xe8BiYlh,3ba7sxog2m30f57lxuc2l92uxdc8rv,32vnztt0abh1joidctrrthigij0r4n,xe8BiYlh,2020-0188,2020-06-04,12:22:01,12:36:13,NA,incomplete,6,color,0,1,right,Blue_Plus_Dots_3.jpg,Green_Star_Dots_4.jpg,Blue_Circle_Stripes_2.jpg,right,779.9999999988358,true,NA,NA,NA,NA,NA,NA,NA,NA,true
xe8BiYlh,3ba7sxog2m30f57lxuc2l92uxdc8rv,32vnztt0abh1joidctrrthigij0r4n,xe8BiYlh,2020-0188,2020-06-04,12:22:01,12:36:13,NA,incomplete,7,color,0,0,left,Blue_Plus_Stripes_2.jpg,Blue_Star_Chess_1.jpg,Green_Triangle_Stripes_3.jpg,left,800.9999999994761,true,NA,NA,NA,NA,NA,NA,NA,NA,true
xe8BiYlh,3ba7sxog2m30f57lxuc2l92uxdc8rv,32vnztt0abh1joidctrrthigij0r4n,xe8BiYlh,2020-0188,2020-06-04,12:22:01,12:36:13,NA,incomplete,8,color,0,1,left,Blue_Plus_Dots_4.jpg,Blue_Triangle_Stripes_1.jpg,Red_Circle_Dots_2.jpg,left,694.999999999709,true,NA,NA,NA,NA,NA,NA,NA,NA,true
xe8BiYlh,3ba7sxog2m30f57lxuc2l92uxdc8rv,32vnztt0abh1joidctrrthigij0r4n,xe8BiYlh,2020-0188,2020-06-04,12:22:01,12:36:13,NA,incomplete,9,color,0,1,right,Purple_Plus_Grid_3.jpg,Blue_Star_Grid_1.jpg,Purple_Circle_Stripes_4.jpg,right,711.9999999995343,true,NA,NA,NA,NA,NA,NA,NA,NA,true
xe8BiYlh,3ba7sxog2m30f57lxuc2l92uxdc8rv,32vnztt0abh1joidctrrthigij0r4n,xe8BiYlh,2020-0188,2020-06-04,12:22:01,12:36:13,NA,incomplete,10,color,0,1,left,Purple_Triangle_Dots_4.jpg,Purple_Circle_Grid_3.jpg,Blue_Star_Dots_1.jpg,left,686.9999999980791,true,NA,NA,NA,NA,NA,NA,NA,NA,true
xe8BiYlh,3ba7sxog2m30f57lxuc2l92uxdc8rv,32vnztt0abh1joidctrrthigij0r4n,xe8BiYlh,2020-0188,2020-06-04,12:22:01,12:36:13,NA,incomplete,11,color,0,1,left,Blue_Circle_Chess_1.jpg,Blue_Star_Grid_2.jpg,Red_Plus_Chess_4.jpg,left,664.0000000043074,true,NA,NA,NA,NA,NA,NA,NA,NA,true
xe8BiYlh,3ba7sxog2m30f57lxuc2l92uxdc8rv,32vnztt0abh1joidctrrthigij0r4n,xe8BiYlh,2020-0188,2020-06-04,12:22:01,12:36:13,NA,incomplete,12,color,0,1,left,Red_Plus_Stripes_4.jpg,Red_Circle_Dots_3.jpg,Blue_Triangle_Stripes_2.jpg,left,574.9999999970896,true,NA,NA,NA,NA,NA,NA,NA,NA,true
xe8BiYlh,3ba7sxog2m30f57lxuc2l92uxdc8rv,32vnztt0abh1joidctrrthigij0r4n,xe8BiYlh,2020-0188,2020-06-04,12:22:01,12:36:13,NA,incomplete,13,color,0,1,right,Blue_Plus_Grid_3.jpg,Green_Triangle_Grid_1.jpg,Blue_Star_Stripes_2.jpg,left,506.9999999977881,false,NA,NA,NA,NA,NA,NA,NA,NA,true
xe8BiYlh,3ba7sxog2m30f57lxuc2l92uxdc8rv,32vnztt0abh1joidctrrthigij0r4n,xe8BiYlh,2020-0188,2020-06-04,12:22:01,12:36:13,NA,incomplete,14,color,0,1,right,Blue_Plus_Stripes_4.jpg,Red_Star_Stripes_3.jpg,Blue_Triangle_Dots_1.jpg,right,752.0000000004075,true,NA,NA,NA,NA,NA,NA,NA,NA,true
xe8BiYlh,3ba7sxog2m30f57lxuc2l92uxdc8rv,32vnztt0abh1joidctrrthigij0r4n,xe8BiYlh,2020-0188,2020-06-04,12:22:01,12:36:13,NA,incomplete,15,color,0,0,left,Purple_Triangle_Chess_3.jpg,Purple_Circle_Stripes_1.jpg,Green_Star_Chess_4.jpg,left,676.9999999960419,true,NA,NA,NA,NA,NA,NA,NA,NA,true
xe8BiYlh,3ba7sxog2m30f57lxuc2l92uxdc8rv,32vnztt0abh1joidctrrthigij0r4n,xe8BiYlh,2020-0188,2020-06-04,12:22:01,12:36:13,NA,incomplete,16,color,0,1,left,Purple_Star_Stripes_2.jpg,Purple_Plus_Grid_3.jpg,Blue_Triangle_Stripes_4.jpg,left,684.000000001106,true,NA,NA,NA,NA,NA,NA,NA,NA,true
xe8BiYlh,3ba7sxog2m30f57lxuc2l92uxdc8rv,32vnztt0abh1joidctrrthigij0r4n,xe8BiYlh,2020-0188,2020-06-04,12:22:01,12:36:13,NA,incomplete,17,color,0,1,right,Red_Star_Stripes_1.jpg,Blue_Triangle_Stripes_3.jpg,Red_Plus_Chess_4.jpg,right,715.0000000037835,true,NA,NA,NA,NA,NA,NA,NA,NA,true
xe8BiYlh,3ba7sxog2m30f57lxuc2l92uxdc8rv,32vnztt0abh1joidctrrthigij0r4n,xe8BiYlh,2020-0188,2020-06-04,12:22:01,12:36:13,NA,incomplete,18,color,0,1,left,Green_Triangle_Stripes_4.jpg,Green_Plus_Dots_1.jpg,Red_Circle_Stripes_2.jpg,left,616.0000000018044,true,NA,NA,NA,NA,NA,NA,NA,NA,true
xe8BiYlh,3ba7sxog2m30f57lxuc2l92uxdc8rv,32vnztt0abh1joidctrrthigij0r4n,xe8BiYlh,2020-0188,2020-06-04,12:22:01,12:36:13,NA,incomplete,19,color,0,1,left,Red_Plus_Chess_3.jpg,Red_Star_Dots_2.jpg,Blue_Triangle_Chess_1.jpg,left,554.0000000037253,true,NA,NA,NA,NA,NA,NA,NA,NA,true
xe8BiYlh,3ba7sxog2m30f57lxuc2l92uxdc8rv,32vnztt0abh1joidctrrthigij0r4n,xe8BiYlh,2020-0188,2020-06-04,12:22:01,12:36:13,NA,incomplete,20,filling,1,1,right,Purple_Triangle_Stripes_3.jpg,Purple_Plus_Grid_4.jpg,Green_Star_Stripes_2.jpg,right,1947.0000000001164,true,NA,NA,NA,NA,NA,NA,NA,NA,true
xe8BiYlh,3ba7sxog2m30f57lxuc2l92uxdc8rv,32vnztt0abh1joidctrrthigij0r4n,xe8BiYlh,2020-0188,2020-06-04,12:22:01,12:36:13,NA,incomplete,21,filling,1,0,right,Red_Triangle_Grid_2.jpg,Red_Star_Chess_1.jpg,Purple_Plus_Grid_4.jpg,none,0,false,NA,NA,NA,NA,NA,NA,NA,NA,true
xe8BiYlh,3ba7sxog2m30f57lxuc2l92uxdc8rv,32vnztt0abh1joidctrrthigij0r4n,xe8BiYlh,2020-0188,2020-06-04,12:22:01,12:36:13,NA,incomplete,22,filling,1,1,right,Green_Star_Stripes_2.jpg,Green_Circle_Dots_1.jpg,Red_Plus_Stripes_4.jpg,right,1459.0000000025611,true,NA,NA,NA,NA,NA,NA,NA,NA,true
xe8BiYlh,3ba7sxog2m30f57lxuc2l92uxdc8rv,32vnztt0abh1joidctrrthigij0r4n,xe8BiYlh,2020-0188,2020-06-04,12:22:01,12:36:13,NA,incomplete,23,filling,1,1,left,Green_Plus_Dots_3.jpg,Blue_Circle_Dots_4.jpg,Green_Star_Chess_1.jpg,left,1278.9999999949941,true,NA,NA,NA,NA,NA,NA,NA,NA,true
xe8BiYlh,3ba7sxog2m30f57lxuc2l92uxdc8rv,32vnztt0abh1joidctrrthigij0r4n,xe8BiYlh,2020-0188,2020-06-04,12:22:01,12:36:13,NA,incomplete,24,filling,1,1,left,Green_Circle_Dots_1.jpg,Blue_Star_Dots_4.jpg,Green_Plus_Stripes_2.jpg,left,1282.999999995809,true,NA,NA,NA,NA,NA,NA,NA,NA,true
xe8BiYlh,3ba7sxog2m30f57lxuc2l92uxdc8rv,32vnztt0abh1joidctrrthigij0r4n,xe8BiYlh,2020-0188,2020-06-04,12:22:01,12:36:13,NA,incomplete,25,filling,1,1,right,Blue_Star_Chess_3.jpg,Blue_Circle_Dots_2.jpg,Green_Plus_Chess_4.jpg,right,1317.0000000027358,true,NA,NA,NA,NA,NA,NA,NA,NA,true
xe8BiYlh,3ba7sxog2m30f57lxuc2l92uxdc8rv,32vnztt0abh1joidctrrthigij0r4n,xe8BiYlh,2020-0188,2020-06-04,12:22:01,12:36:13,NA,incomplete,26,filling,1,1,right,Purple_Triangle_Grid_2.jpg,Purple_Star_Chess_1.jpg,Blue_Circle_Grid_3.jpg,right,1438.0000000019209,true,NA,NA,NA,NA,NA,NA,NA,NA,true
xe8BiYlh,3ba7sxog2m30f57lxuc2l92uxdc8rv,32vnztt0abh1joidctrrthigij0r4n,xe8BiYlh,2020-0188,2020-06-04,12:22:01,12:36:13,NA,incomplete,27,filling,1,1,right,Red_Star_Stripes_1.jpg,Red_Circle_Chess_4.jpg,Purple_Triangle_Stripes_2.jpg,right,1498.9999999961583,true,NA,NA,NA,NA,NA,NA,NA,NA,true
xe8BiYlh,3ba7sxog2m30f57lxuc2l92uxdc8rv,32vnztt0abh1joidctrrthigij0r4n,xe8BiYlh,2020-0188,2020-06-04,12:22:01,12:36:13,NA,incomplete,28,filling,1,1,left,Purple_Star_Dots_4.jpg,Green_Plus_Dots_3.jpg,Purple_Triangle_Stripes_2.jpg,left,1427.9999999998836,true,NA,NA,NA,NA,NA,NA,NA,NA,true
xe8BiYlh,3ba7sxog2m30f57lxuc2l92uxdc8rv,32vnztt0abh1joidctrrthigij0r4n,xe8BiYlh,2020-0188,2020-06-04,12:22:01,12:36:13,NA,incomplete,29,filling,1,1,right,Blue_Plus_Stripes_3.jpg,Blue_Circle_Chess_2.jpg,Red_Star_Stripes_4.jpg,right,1156.0000000026776,true,NA,NA,NA,NA,NA,NA,NA,NA,true
xe8BiYlh,3ba7sxog2m30f57lxuc2l92uxdc8rv,32vnztt0abh1joidctrrthigij0r4n,xe8BiYlh,2020-0188,2020-06-04,12:22:01,12:36:13,NA,incomplete,30,filling,1,1,left,Blue_Plus_Chess_4.jpg,Red_Circle_Chess_3.jpg,Blue_Star_Grid_2.jpg,left,1389.999999999418,true,NA,NA,NA,NA,NA,NA,NA,NA,true
xe8BiYlh,3ba7sxog2m30f57lxuc2l92uxdc8rv,32vnztt0abh1joidctrrthigij0r4n,xe8BiYlh,2020-0188,2020-06-04,12:22:01,12:36:13,NA,incomplete,31,filling,1,1,left,Green_Triangle_Chess_3.jpg,Purple_Plus_Chess_1.jpg,Green_Star_Grid_2.jpg,left,1174.9999999956344,true,NA,NA,NA,NA,NA,NA,NA,NA,true
xe8BiYlh,3ba7sxog2m30f57lxuc2l92uxdc8rv,32vnztt0abh1joidctrrthigij0r4n,xe8BiYlh,2020-0188,2020-06-04,12:22:01,12:36:13,NA,incomplete,32,filling,1,1,right,Blue_Circle_Chess_2.jpg,Blue_Star_Dots_1.jpg,Red_Plus_Chess_4.jpg,right,1267.9999999963911,true,NA,NA,NA,NA,NA,NA,NA,NA,true
xe8BiYlh,3ba7sxog2m30f57lxuc2l92uxdc8rv,32vnztt0abh1joidctrrthigij0r4n,xe8BiYlh,2020-0188,2020-06-04,12:22:01,12:36:13,NA,incomplete,33,filling,1,1,right,Red_Star_Dots_3.jpg,Red_Plus_Chess_1.jpg,Blue_Circle_Dots_4.jpg,right,1351.9999999989523,true,NA,NA,NA,NA,NA,NA,NA,NA,true
xe8BiYlh,3ba7sxog2m30f57lxuc2l92uxdc8rv,32vnztt0abh1joidctrrthigij0r4n,xe8BiYlh,2020-0188,2020-06-04,12:22:01,12:36:13,NA,incomplete,34,filling,1,0,right,Purple_Star_Chess_3.jpg,Purple_Triangle_Dots_2.jpg,Green_Circle_Chess_4.jpg,right,1434.000000001106,true,NA,NA,NA,NA,NA,NA,NA,NA,true
xe8BiYlh,3ba7sxog2m30f57lxuc2l92uxdc8rv,32vnztt0abh1joidctrrthigij0r4n,xe8BiYlh,2020-0188,2020-06-04,12:22:01,12:36:13,NA,incomplete,35,filling,1,0,left,Green_Triangle_Stripes_2.jpg,Red_Circle_Stripes_3.jpg,Green_Plus_Chess_1.jpg,left,1124.0000000034343,true,NA,NA,NA,NA,NA,NA,NA,NA,true
xe8BiYlh,3ba7sxog2m30f57lxuc2l92uxdc8rv,32vnztt0abh1joidctrrthigij0r4n,xe8BiYlh,2020-0188,2020-06-04,12:22:01,12:36:13,NA,incomplete,36,filling,1,1,right,Green_Triangle_Chess_2.jpg,Green_Circle_Dots_4.jpg,Blue_Plus_Chess_3.jpg,right,936.0000000015134,true,NA,NA,NA,NA,NA,NA,NA,NA,true
xe8BiYlh,3ba7sxog2m30f57lxuc2l92uxdc8rv,32vnztt0abh1joidctrrthigij0r4n,xe8BiYlh,2020-0188,2020-06-04,12:22:01,12:36:13,NA,incomplete,37,filling,1,1,right,Green_Circle_Dots_3.jpg,Green_Plus_Grid_4.jpg,Red_Triangle_Dots_1.jpg,right,1213.9999999999418,true,NA,NA,NA,NA,NA,NA,NA,NA,true
xe8BiYlh,3ba7sxog2m30f57lxuc2l92uxdc8rv,32vnztt0abh1joidctrrthigij0r4n,xe8BiYlh,2020-0188,2020-06-04,12:22:01,12:36:13,NA,incomplete,38,filling,1,0,left,Red_Circle_Dots_4.jpg,Green_Plus_Dots_1.jpg,Red_Star_Stripes_2.jpg,left,1056.9999999934225,true,NA,NA,NA,NA,NA,NA,NA,NA,true
xe8BiYlh,3ba7sxog2m30f57lxuc2l92uxdc8rv,32vnztt0abh1joidctrrthigij0r4n,xe8BiYlh,2020-0188,2020-06-04,12:22:01,12:36:13,NA,incomplete,39,filling,1,1,right,Purple_Triangle_Grid_3.jpg,Purple_Star_Chess_4.jpg,Green_Plus_Grid_1.jpg,right,1463.9999999999418,true,NA,NA,NA,NA,NA,NA,NA,NA,true
xe8BiYlh,3ba7sxog2m30f57lxuc2l92uxdc8rv,32vnztt0abh1joidctrrthigij0r4n,xe8BiYlh,2020-0188,2020-06-04,12:22:01,12:36:13,NA,incomplete,0,color,0,1,left,Green_Plus_Stripes_2.jpg,Green_Circle_Dots_3.jpg,Purple_Star_Stripes_4.jpg,right,1798.9999999990687,false,low,NA,NA,NA,NA,NA,NA,NA,false
xe8BiYlh,3ba7sxog2m30f57lxuc2l92uxdc8rv,32vnztt0abh1joidctrrthigij0r4n,xe8BiYlh,2020-0188,2020-06-04,12:22:01,12:36:13,NA,incomplete,1,color,0,1,left,Purple_Star_Dots_2.jpg,Purple_Triangle_Grid_3.jpg,Red_Circle_Dots_1.jpg,right,1103.000000002794,false,low,NA,NA,NA,NA,NA,NA,NA,false
xe8BiYlh,3ba7sxog2m30f57lxuc2l92uxdc8rv,32vnztt0abh1joidctrrthigij0r4n,xe8BiYlh,2020-0188,2020-06-04,12:22:01,12:36:13,NA,incomplete,2,color,0,1,right,Blue_Star_Chess_1.jpg,Purple_Circle_Chess_2.jpg,Blue_Plus_Stripes_4.jpg,right,629.0000000008149,true,low,NA,NA,NA,NA,NA,NA,NA,false
xe8BiYlh,3ba7sxog2m30f57lxuc2l92uxdc8rv,32vnztt0abh1joidctrrthigij0r4n,xe8BiYlh,2020-0188,2020-06-04,12:22:01,12:36:13,NA,incomplete,3,color,0,1,left,Red_Triangle_Dots_2.jpg,Red_Circle_Stripes_3.jpg,Purple_Star_Dots_4.jpg,left,826.0000000009313,true,low,NA,NA,NA,NA,NA,NA,NA,false
xe8BiYlh,3ba7sxog2m30f57lxuc2l92uxdc8rv,32vnztt0abh1joidctrrthigij0r4n,xe8BiYlh,2020-0188,2020-06-04,12:22:01,12:36:13,NA,incomplete,4,color,0,1,left,Purple_Circle_Dots_4.jpg,Purple_Triangle_Grid_3.jpg,Blue_Star_Dots_2.jpg,left,487.00000000098953,true,low,NA,NA,NA,NA,NA,NA,NA,false
xe8BiYlh,3ba7sxog2m30f57lxuc2l92uxdc8rv,32vnztt0abh1joidctrrthigij0r4n,xe8BiYlh,2020-0188,2020-06-04,12:22:01,12:36:13,NA,incomplete,5,color,0,1,right,Red_Circle_Grid_3.jpg,Green_Star_Grid_4.jpg,Red_Plus_Chess_1.jpg,right,514.9999999994179,true,low,NA,NA,NA,NA,NA,NA,NA,false
xe8BiYlh,3ba7sxog2m30f57lxuc2l92uxdc8rv,32vnztt0abh1joidctrrthigij0r4n,xe8BiYlh,2020-0188,2020-06-04,12:22:01,12:36:13,NA,incomplete,6,color,0,1,left,Red_Triangle_Chess_3.jpg,Red_Circle_Dots_1.jpg,Blue_Star_Chess_2.jpg,left,567.9999999993015,true,low,NA,NA,NA,NA,NA,NA,NA,false
xe8BiYlh,3ba7sxog2m30f57lxuc2l92uxdc8rv,32vnztt0abh1joidctrrthigij0r4n,xe8BiYlh,2020-0188,2020-06-04,12:22:01,12:36:13,NA,incomplete,7,color,0,0,left,Purple_Circle_Grid_4.jpg,Purple_Triangle_Chess_1.jpg,Red_Star_Grid_2.jpg,left,496.99999999575084,true,low,NA,NA,NA,NA,NA,NA,NA,false
xe8BiYlh,3ba7sxog2m30f57lxuc2l92uxdc8rv,32vnztt0abh1joidctrrthigij0r4n,xe8BiYlh,2020-0188,2020-06-04,12:22:01,12:36:13,NA,incomplete,8,color,0,1,right,Blue_Star_Grid_3.jpg,Green_Circle_Grid_2.jpg,Blue_Plus_Chess_4.jpg,right,1393.000000003667,true,low,NA,NA,NA,NA,NA,NA,NA,false
xe8BiYlh,3ba7sxog2m30f57lxuc2l92uxdc8rv,32vnztt0abh1joidctrrthigij0r4n,xe8BiYlh,2020-0188,2020-06-04,12:22:01,12:36:13,NA,incomplete,9,color,0,1,right,Red_Circle_Grid_2.jpg,Blue_Star_Grid_3.jpg,Red_Triangle_Stripes_1.jpg,right,986.9999999937136,true,low,NA,NA,NA,NA,NA,NA,NA,false
xe8BiYlh,3ba7sxog2m30f57lxuc2l92uxdc8rv,32vnztt0abh1joidctrrthigij0r4n,xe8BiYlh,2020-0188,2020-06-04,12:22:01,12:36:13,NA,incomplete,10,color,0,1,right,Purple_Triangle_Grid_1.jpg,Green_Plus_Grid_3.jpg,Purple_Star_Chess_4.jpg,right,538.0000000004657,true,low,NA,NA,NA,NA,NA,NA,NA,false
xe8BiYlh,3ba7sxog2m30f57lxuc2l92uxdc8rv,32vnztt0abh1joidctrrthigij0r4n,xe8BiYlh,2020-0188,2020-06-04,12:22:01,12:36:13,NA,incomplete,11,color,0,1,left,Green_Plus_Dots_2.jpg,Green_Star_Grid_3.jpg,Purple_Triangle_Dots_4.jpg,left,475.00000000582077,true,low,NA,NA,NA,NA,NA,NA,NA,false
xe8BiYlh,3ba7sxog2m30f57lxuc2l92uxdc8rv,32vnztt0abh1joidctrrthigij0r4n,xe8BiYlh,2020-0188,2020-06-04,12:22:01,12:36:13,NA,incomplete,12,color,0,1,left,Green_Star_Dots_2.jpg,Green_Plus_Stripes_4.jpg,Red_Circle_Dots_3.jpg,left,428.99999999644933,true,low,NA,NA,NA,NA,NA,NA,NA,false
xe8BiYlh,3ba7sxog2m30f57lxuc2l92uxdc8rv,32vnztt0abh1joidctrrthigij0r4n,xe8BiYlh,2020-0188,2020-06-04,12:22:01,12:36:13,NA,incomplete,13,color,0,1,left,Green_Circle_Grid_4.jpg,Green_Star_Stripes_1.jpg,Red_Triangle_Grid_3.jpg,left,467.99999999348074,true,low,NA,NA,NA,NA,NA,NA,NA,false
xe8BiYlh,3ba7sxog2m30f57lxuc2l92uxdc8rv,32vnztt0abh1joidctrrthigij0r4n,xe8BiYlh,2020-0188,2020-06-04,12:22:01,12:36:13,NA,incomplete,14,color,0,1,right,Green_Plus_Stripes_1.jpg,Purple_Triangle_Stripes_4.jpg,Green_Star_Dots_2.jpg,right,506.00000000122236,true,low,NA,NA,NA,NA,NA,NA,NA,false
xe8BiYlh,3ba7sxog2m30f57lxuc2l92uxdc8rv,32vnztt0abh1joidctrrthigij0r4n,xe8BiYlh,2020-0188,2020-06-04,12:22:01,12:36:13,NA,incomplete,15,color,0,1,right,Blue_Plus_Grid_2.jpg,Purple_Circle_Grid_1.jpg,Blue_Triangle_Stripes_3.jpg,right,507.00000000506407,true,low,NA,NA,NA,NA,NA,NA,NA,false
xe8BiYlh,3ba7sxog2m30f57lxuc2l92uxdc8rv,32vnztt0abh1joidctrrthigij0r4n,xe8BiYlh,2020-0188,2020-06-04,12:22:01,12:36:13,NA,incomplete,16,color,0,1,left,Red_Circle_Grid_1.jpg,Red_Triangle_Stripes_2.jpg,Purple_Star_Grid_4.jpg,left,531.0000000026776,true,low,NA,NA,NA,NA,NA,NA,NA,false
xe8BiYlh,3ba7sxog2m30f57lxuc2l92uxdc8rv,32vnztt0abh1joidctrrthigij0r4n,xe8BiYlh,2020-0188,2020-06-04,12:22:01,12:36:13,NA,incomplete,17,color,0,0,right,Blue_Circle_Grid_2.jpg,Green_Plus_Grid_3.jpg,Blue_Star_Chess_1.jpg,right,512.0000000024447,true,low,NA,NA,NA,NA,NA,NA,NA,false
xe8BiYlh,3ba7sxog2m30f57lxuc2l92uxdc8rv,32vnztt0abh1joidctrrthigij0r4n,xe8BiYlh,2020-0188,2020-06-04,12:22:01,12:36:13,NA,incomplete,18,color,0,1,left,Red_Star_Dots_2.jpg,Red_Triangle_Stripes_1.jpg,Purple_Plus_Dots_3.jpg,right,1036.999999996624,false,low,NA,NA,NA,NA,NA,NA,NA,false
xe8BiYlh,3ba7sxog2m30f57lxuc2l92uxdc8rv,32vnztt0abh1joidctrrthigij0r4n,xe8BiYlh,2020-0188,2020-06-04,12:22:01,12:36:13,NA,incomplete,19,color,0,1,right,Blue_Triangle_Grid_3.jpg,Purple_Star_Grid_4.jpg,Blue_Plus_Chess_1.jpg,right,706.9999999948777,true,low,NA,NA,NA,NA,NA,NA,NA,false
xe8BiYlh,3ba7sxog2m30f57lxuc2l92uxdc8rv,32vnztt0abh1joidctrrthigij0r4n,xe8BiYlh,2020-0188,2020-06-04,12:22:01,12:36:13,NA,incomplete,20,color,0,1,left,Green_Triangle_Chess_3.jpg,Green_Star_Dots_1.jpg,Red_Plus_Chess_2.jpg,left,502.9999999969732,true,low,NA,NA,NA,NA,NA,NA,NA,false
xe8BiYlh,3ba7sxog2m30f57lxuc2l92uxdc8rv,32vnztt0abh1joidctrrthigij0r4n,xe8BiYlh,2020-0188,2020-06-04,12:22:01,12:36:13,NA,incomplete,21,color,0,1,left,Red_Star_Chess_4.jpg,Red_Circle_Stripes_3.jpg,Blue_Plus_Chess_1.jpg,left,466.999999996915,true,low,NA,NA,NA,NA,NA,NA,NA,false
xe8BiYlh,3ba7sxog2m30f57lxuc2l92uxdc8rv,32vnztt0abh1joidctrrthigij0r4n,xe8BiYlh,2020-0188,2020-06-04,12:22:01,12:36:13,NA,incomplete,22,color,0,1,right,Red_Plus_Chess_2.jpg,Green_Triangle_Chess_1.jpg,Red_Star_Dots_3.jpg,right,491.9999999983702,true,low,NA,NA,NA,NA,NA,NA,NA,false
xe8BiYlh,3ba7sxog2m30f57lxuc2l92uxdc8rv,32vnztt0abh1joidctrrthigij0r4n,xe8BiYlh,2020-0188,2020-06-04,12:22:01,12:36:13,NA,incomplete,23,color,0,1,right,Red_Star_Stripes_1.jpg,Green_Plus_Stripes_3.jpg,Red_Circle_Chess_2.jpg,right,521.999999997206,true,low,NA,NA,NA,NA,NA,NA,NA,false
xe8BiYlh,3ba7sxog2m30f57lxuc2l92uxdc8rv,32vnztt0abh1joidctrrthigij0r4n,xe8BiYlh,2020-0188,2020-06-04,12:22:01,12:36:13,NA,incomplete,24,color,0,1,left,Red_Star_Stripes_2.jpg,Red_Circle_Dots_3.jpg,Purple_Triangle_Stripes_1.jpg,left,561.0000000015134,true,low,NA,NA,NA,NA,NA,NA,NA,false
xe8BiYlh,3ba7sxog2m30f57lxuc2l92uxdc8rv,32vnztt0abh1joidctrrthigij0r4n,xe8BiYlh,2020-0188,2020-06-04,12:22:01,12:36:13,NA,incomplete,25,color,0,1,right,Green_Triangle_Dots_2.jpg,Red_Star_Dots_1.jpg,Green_Plus_Chess_3.jpg,right,525.9999999980209,true,low,NA,NA,NA,NA,NA,NA,NA,false
xe8BiYlh,3ba7sxog2m30f57lxuc2l92uxdc8rv,32vnztt0abh1joidctrrthigij0r4n,xe8BiYlh,2020-0188,2020-06-04,12:22:01,12:36:13,NA,incomplete,26,color,0,1,left,Blue_Plus_Grid_2.jpg,Blue_Star_Dots_3.jpg,Purple_Triangle_Grid_4.jpg,left,476.0000000023865,true,low,NA,NA,NA,NA,NA,NA,NA,false
xe8BiYlh,3ba7sxog2m30f57lxuc2l92uxdc8rv,32vnztt0abh1joidctrrthigij0r4n,xe8BiYlh,2020-0188,2020-06-04,12:22:01,12:36:13,NA,incomplete,27,color,0,1,left,Red_Triangle_Dots_2.jpg,Red_Plus_Stripes_4.jpg,Green_Circle_Dots_3.jpg,left,523.0000000010477,true,low,NA,NA,NA,NA,NA,NA,NA,false
xe8BiYlh,3ba7sxog2m30f57lxuc2l92uxdc8rv,32vnztt0abh1joidctrrthigij0r4n,xe8BiYlh,2020-0188,2020-06-04,12:22:01,12:36:13,NA,incomplete,28,color,0,0,left,Green_Star_Grid_3.jpg,Green_Triangle_Stripes_1.jpg,Blue_Circle_Grid_2.jpg,left,499.00000000343425,true,low,NA,NA,NA,NA,NA,NA,NA,false
xe8BiYlh,3ba7sxog2m30f57lxuc2l92uxdc8rv,32vnztt0abh1joidctrrthigij0r4n,xe8BiYlh,2020-0188,2020-06-04,12:22:01,12:36:13,NA,incomplete,29,color,0,1,right,Blue_Star_Dots_3.jpg,Purple_Circle_Dots_1.jpg,Blue_Plus_Chess_2.jpg,right,505.0000000046566,true,low,NA,NA,NA,NA,NA,NA,NA,false
xe8BiYlh,3ba7sxog2m30f57lxuc2l92uxdc8rv,32vnztt0abh1joidctrrthigij0r4n,xe8BiYlh,2020-0188,2020-06-04,12:22:01,12:36:13,NA,incomplete,30,filling,1,1,right,Blue_Triangle_Stripes_1.jpg,Blue_Circle_Dots_3.jpg,Purple_Plus_Stripes_4.jpg,left,515.9999999959837,false,low,NA,NA,NA,NA,NA,NA,NA,false
xe8BiYlh,3ba7sxog2m30f57lxuc2l92uxdc8rv,32vnztt0abh1joidctrrthigij0r4n,xe8BiYlh,2020-0188,2020-06-04,12:22:01,12:36:13,NA,incomplete,31,filling,1,1,right,Blue_Circle_Stripes_3.jpg,Blue_Star_Chess_1.jpg,Red_Plus_Stripes_4.jpg,left,696.0000000035507,false,low,NA,NA,NA,NA,NA,NA,NA,false
xe8BiYlh,3ba7sxog2m30f57lxuc2l92uxdc8rv,32vnztt0abh1joidctrrthigij0r4n,xe8BiYlh,2020-0188,2020-06-04,12:22:01,12:36:13,NA,incomplete,32,filling,1,1,right,Red_Circle_Dots_4.jpg,Red_Plus_Chess_1.jpg,Purple_Triangle_Dots_3.jpg,left,568.0000000065775,false,low,NA,NA,NA,NA,NA,NA,NA,false
xe8BiYlh,3ba7sxog2m30f57lxuc2l92uxdc8rv,32vnztt0abh1joidctrrthigij0r4n,xe8BiYlh,2020-0188,2020-06-04,12:22:01,12:36:13,NA,incomplete,33,filling,1,1,left,Purple_Circle_Chess_1.jpg,Red_Triangle_Chess_2.jpg,Purple_Star_Stripes_3.jpg,left,988.0000000048312,true,low,NA,NA,NA,NA,NA,NA,NA,false
xe8BiYlh,3ba7sxog2m30f57lxuc2l92uxdc8rv,32vnztt0abh1joidctrrthigij0r4n,xe8BiYlh,2020-0188,2020-06-04,12:22:01,12:36:13,NA,incomplete,34,filling,1,0,left,Blue_Triangle_Dots_2.jpg,Green_Plus_Dots_1.jpg,Blue_Star_Stripes_3.jpg,left,964.9999999965075,true,low,NA,NA,NA,NA,NA,NA,NA,false
xe8BiYlh,3ba7sxog2m30f57lxuc2l92uxdc8rv,32vnztt0abh1joidctrrthigij0r4n,xe8BiYlh,2020-0188,2020-06-04,12:22:01,12:36:13,NA,incomplete,35,filling,1,1,right,Blue_Star_Dots_2.jpg,Blue_Circle_Chess_1.jpg,Green_Triangle_Dots_4.jpg,right,861.0000000044238,true,low,NA,NA,NA,NA,NA,NA,NA,false
xe8BiYlh,3ba7sxog2m30f57lxuc2l92uxdc8rv,32vnztt0abh1joidctrrthigij0r4n,xe8BiYlh,2020-0188,2020-06-04,12:22:01,12:36:13,NA,incomplete,36,filling,1,1,left,Purple_Triangle_Stripes_3.jpg,Red_Star_Stripes_4.jpg,Purple_Plus_Grid_2.jpg,left,1050.9999999994761,true,low,NA,NA,NA,NA,NA,NA,NA,false
xe8BiYlh,3ba7sxog2m30f57lxuc2l92uxdc8rv,32vnztt0abh1joidctrrthigij0r4n,xe8BiYlh,2020-0188,2020-06-04,12:22:01,12:36:13,NA,incomplete,37,filling,1,1,right,Red_Triangle_Chess_4.jpg,Red_Star_Grid_3.jpg,Green_Plus_Chess_2.jpg,right,975.9999999951106,true,low,NA,NA,NA,NA,NA,NA,NA,false
xe8BiYlh,3ba7sxog2m30f57lxuc2l92uxdc8rv,32vnztt0abh1joidctrrthigij0r4n,xe8BiYlh,2020-0188,2020-06-04,12:22:01,12:36:13,NA,incomplete,38,filling,1,0,right,Purple_Triangle_Dots_3.jpg,Purple_Circle_Grid_1.jpg,Green_Plus_Dots_4.jpg,right,1155.0000000061118,true,low,NA,NA,NA,NA,NA,NA,NA,false
xe8BiYlh,3ba7sxog2m30f57lxuc2l92uxdc8rv,32vnztt0abh1joidctrrthigij0r4n,xe8BiYlh,2020-0188,2020-06-04,12:22:01,12:36:13,NA,incomplete,39,filling,1,1,left,Red_Plus_Dots_2.jpg,Purple_Star_Dots_3.jpg,Red_Circle_Grid_1.jpg,left,1097.0000000015716,true,low,NA,NA,NA,NA,NA,NA,NA,false
xe8BiYlh,3ba7sxog2m30f57lxuc2l92uxdc8rv,32vnztt0abh1joidctrrthigij0r4n,xe8BiYlh,2020-0188,2020-06-04,12:22:01,12:36:13,NA,incomplete,40,filling,1,1,right,Green_Plus_Chess_1.jpg,Green_Triangle_Stripes_3.jpg,Purple_Circle_Chess_4.jpg,right,1069.999999999709,true,low,NA,NA,NA,NA,NA,NA,NA,false
xe8BiYlh,3ba7sxog2m30f57lxuc2l92uxdc8rv,32vnztt0abh1joidctrrthigij0r4n,xe8BiYlh,2020-0188,2020-06-04,12:22:01,12:36:13,NA,incomplete,41,filling,1,1,left,Red_Plus_Dots_4.jpg,Blue_Circle_Dots_1.jpg,Red_Triangle_Grid_2.jpg,left,1141.9999999998254,true,low,NA,NA,NA,NA,NA,NA,NA,false
xe8BiYlh,3ba7sxog2m30f57lxuc2l92uxdc8rv,32vnztt0abh1joidctrrthigij0r4n,xe8BiYlh,2020-0188,2020-06-04,12:22:01,12:36:13,NA,incomplete,42,filling,1,1,left,Blue_Star_Grid_3.jpg,Purple_Triangle_Grid_1.jpg,Blue_Circle_Chess_4.jpg,left,1127.0000000004075,true,low,NA,NA,NA,NA,NA,NA,NA,false
xe8BiYlh,3ba7sxog2m30f57lxuc2l92uxdc8rv,32vnztt0abh1joidctrrthigij0r4n,xe8BiYlh,2020-0188,2020-06-04,12:22:01,12:36:13,NA,incomplete,43,filling,1,0,left,Purple_Circle_Stripes_2.jpg,Red_Plus_Stripes_3.jpg,Purple_Triangle_Dots_4.jpg,left,1191.9999999954598,true,low,NA,NA,NA,NA,NA,NA,NA,false
xe8BiYlh,3ba7sxog2m30f57lxuc2l92uxdc8rv,32vnztt0abh1joidctrrthigij0r4n,xe8BiYlh,2020-0188,2020-06-04,12:22:01,12:36:13,NA,incomplete,44,filling,1,1,left,Red_Star_Stripes_3.jpg,Green_Circle_Stripes_4.jpg,Red_Triangle_Dots_1.jpg,left,1269.0000000002328,true,low,NA,NA,NA,NA,NA,NA,NA,false
xe8BiYlh,3ba7sxog2m30f57lxuc2l92uxdc8rv,32vnztt0abh1joidctrrthigij0r4n,xe8BiYlh,2020-0188,2020-06-04,12:22:01,12:36:13,NA,incomplete,45,filling,1,1,right,Green_Triangle_Stripes_1.jpg,Green_Plus_Grid_2.jpg,Blue_Star_Stripes_4.jpg,right,1271.999999997206,true,low,NA,NA,NA,NA,NA,NA,NA,false
xe8BiYlh,3ba7sxog2m30f57lxuc2l92uxdc8rv,32vnztt0abh1joidctrrthigij0r4n,xe8BiYlh,2020-0188,2020-06-04,12:22:01,12:36:13,NA,incomplete,46,filling,1,1,right,Red_Star_Grid_1.jpg,Red_Circle_Stripes_3.jpg,Blue_Plus_Grid_2.jpg,none,0,false,low,NA,NA,NA,NA,NA,NA,NA,false
xe8BiYlh,3ba7sxog2m30f57lxuc2l92uxdc8rv,32vnztt0abh1joidctrrthigij0r4n,xe8BiYlh,2020-0188,2020-06-04,12:22:01,12:36:13,NA,incomplete,47,filling,1,0,right,Green_Plus_Dots_2.jpg,Green_Star_Stripes_3.jpg,Red_Circle_Dots_1.jpg,right,825.0000000043656,true,low,NA,NA,NA,NA,NA,NA,NA,false
xe8BiYlh,3ba7sxog2m30f57lxuc2l92uxdc8rv,32vnztt0abh1joidctrrthigij0r4n,xe8BiYlh,2020-0188,2020-06-04,12:22:01,12:36:13,NA,incomplete,48,filling,1,1,left,Green_Circle_Stripes_4.jpg,Blue_Plus_Stripes_3.jpg,Green_Star_Chess_2.jpg,left,879.0000000008149,true,low,NA,NA,NA,NA,NA,NA,NA,false
xe8BiYlh,3ba7sxog2m30f57lxuc2l92uxdc8rv,32vnztt0abh1joidctrrthigij0r4n,xe8BiYlh,2020-0188,2020-06-04,12:22:01,12:36:13,NA,incomplete,49,filling,1,1,right,Green_Triangle_Dots_1.jpg,Green_Circle_Stripes_2.jpg,Red_Plus_Dots_4.jpg,right,896.0000000006403,true,low,NA,NA,NA,NA,NA,NA,NA,false
xe8BiYlh,3ba7sxog2m30f57lxuc2l92uxdc8rv,32vnztt0abh1joidctrrthigij0r4n,xe8BiYlh,2020-0188,2020-06-04,12:22:01,12:36:13,NA,incomplete,50,filling,1,1,left,Red_Circle_Dots_3.jpg,Green_Triangle_Dots_1.jpg,Red_Star_Grid_2.jpg,left,1128.999999993539,true,low,NA,NA,NA,NA,NA,NA,NA,false
xe8BiYlh,3ba7sxog2m30f57lxuc2l92uxdc8rv,32vnztt0abh1joidctrrthigij0r4n,xe8BiYlh,2020-0188,2020-06-04,12:22:01,12:36:13,NA,incomplete,51,filling,1,1,left,Blue_Circle_Dots_1.jpg,Green_Plus_Dots_3.jpg,Blue_Triangle_Chess_4.jpg,left,809.000000001106,true,low,NA,NA,NA,NA,NA,NA,NA,false
xe8BiYlh,3ba7sxog2m30f57lxuc2l92uxdc8rv,32vnztt0abh1joidctrrthigij0r4n,xe8BiYlh,2020-0188,2020-06-04,12:22:01,12:36:13,NA,incomplete,52,filling,1,1,right,Blue_Star_Stripes_3.jpg,Blue_Circle_Grid_4.jpg,Purple_Plus_Stripes_1.jpg,right,926.9999999960419,true,low,NA,NA,NA,NA,NA,NA,NA,false
xe8BiYlh,3ba7sxog2m30f57lxuc2l92uxdc8rv,32vnztt0abh1joidctrrthigij0r4n,xe8BiYlh,2020-0188,2020-06-04,12:22:01,12:36:13,NA,incomplete,53,filling,1,1,right,Red_Circle_Stripes_3.jpg,Red_Plus_Dots_4.jpg,Blue_Triangle_Stripes_1.jpg,right,753.0000000042492,true,low,NA,NA,NA,NA,NA,NA,NA,false
xe8BiYlh,3ba7sxog2m30f57lxuc2l92uxdc8rv,32vnztt0abh1joidctrrthigij0r4n,xe8BiYlh,2020-0188,2020-06-04,12:22:01,12:36:13,NA,incomplete,54,filling,1,1,right,Green_Star_Chess_3.jpg,Green_Circle_Stripes_2.jpg,Blue_Triangle_Chess_4.jpg,right,934.000000001106,true,low,NA,NA,NA,NA,NA,NA,NA,false
xe8BiYlh,3ba7sxog2m30f57lxuc2l92uxdc8rv,32vnztt0abh1joidctrrthigij0r4n,xe8BiYlh,2020-0188,2020-06-04,12:22:01,12:36:13,NA,incomplete,55,filling,1,0,left,Purple_Plus_Dots_1.jpg,Green_Circle_Dots_4.jpg,Purple_Star_Chess_3.jpg,left,879.0000000008149,true,low,NA,NA,NA,NA,NA,NA,NA,false
xe8BiYlh,3ba7sxog2m30f57lxuc2l92uxdc8rv,32vnztt0abh1joidctrrthigij0r4n,xe8BiYlh,2020-0188,2020-06-04,12:22:01,12:36:13,NA,incomplete,56,filling,1,1,left,Purple_Star_Chess_3.jpg,Green_Plus_Chess_4.jpg,Purple_Triangle_Stripes_2.jpg,left,952.9999999940628,true,low,NA,NA,NA,NA,NA,NA,NA,false
xe8BiYlh,3ba7sxog2m30f57lxuc2l92uxdc8rv,32vnztt0abh1joidctrrthigij0r4n,xe8BiYlh,2020-0188,2020-06-04,12:22:01,12:36:13,NA,incomplete,57,filling,1,1,left,Red_Plus_Grid_3.jpg,Purple_Star_Grid_1.jpg,Red_Circle_Stripes_2.jpg,left,1046.0000000020955,true,low,NA,NA,NA,NA,NA,NA,NA,false
xe8BiYlh,3ba7sxog2m30f57lxuc2l92uxdc8rv,32vnztt0abh1joidctrrthigij0r4n,xe8BiYlh,2020-0188,2020-06-04,12:22:01,12:36:13,NA,incomplete,58,filling,1,1,right,Red_Circle_Dots_1.jpg,Red_Triangle_Chess_3.jpg,Blue_Plus_Dots_2.jpg,right,1140.9999999959837,true,low,NA,NA,NA,NA,NA,NA,NA,false
xe8BiYlh,3ba7sxog2m30f57lxuc2l92uxdc8rv,32vnztt0abh1joidctrrthigij0r4n,xe8BiYlh,2020-0188,2020-06-04,12:22:01,12:36:13,NA,incomplete,59,filling,1,1,right,Purple_Circle_Chess_3.jpg,Purple_Triangle_Grid_1.jpg,Red_Star_Chess_4.jpg,right,1086.0000000029686,true,low,NA,NA,NA,NA,NA,NA,NA,false
xe8BiYlh,3ba7sxog2m30f57lxuc2l92uxdc8rv,32vnztt0abh1joidctrrthigij0r4n,xe8BiYlh,2020-0188,2020-06-04,12:22:01,12:36:13,NA,incomplete,60,color,0,1,right,Green_Triangle_Stripes_2.jpg,Red_Star_Stripes_1.jpg,Green_Circle_Dots_3.jpg,left,816.9999999954598,false,low,NA,NA,NA,NA,NA,NA,NA,false
xe8BiYlh,3ba7sxog2m30f57lxuc2l92uxdc8rv,32vnztt0abh1joidctrrthigij0r4n,xe8BiYlh,2020-0188,2020-06-04,12:22:01,12:36:13,NA,incomplete,61,color,0,0,left,Green_Star_Dots_3.jpg,Green_Plus_Stripes_4.jpg,Blue_Triangle_Dots_1.jpg,right,917.0000000012806,false,low,NA,NA,NA,NA,NA,NA,NA,false
xe8BiYlh,3ba7sxog2m30f57lxuc2l92uxdc8rv,32vnztt0abh1joidctrrthigij0r4n,xe8BiYlh,2020-0188,2020-06-04,12:22:01,12:36:13,NA,incomplete,62,color,0,1,right,Purple_Plus_Grid_4.jpg,Green_Circle_Grid_1.jpg,Purple_Star_Stripes_3.jpg,right,950.0000000043656,true,low,NA,NA,NA,NA,NA,NA,NA,false
xe8BiYlh,3ba7sxog2m30f57lxuc2l92uxdc8rv,32vnztt0abh1joidctrrthigij0r4n,xe8BiYlh,2020-0188,2020-06-04,12:22:01,12:36:13,NA,incomplete,63,color,0,1,left,Red_Plus_Grid_2.jpg,Red_Triangle_Dots_1.jpg,Blue_Circle_Grid_3.jpg,left,901.9999999945867,true,low,NA,NA,NA,NA,NA,NA,NA,false
xe8BiYlh,3ba7sxog2m30f57lxuc2l92uxdc8rv,32vnztt0abh1joidctrrthigij0r4n,xe8BiYlh,2020-0188,2020-06-04,12:22:01,12:36:13,NA,incomplete,64,color,0,1,left,Green_Star_Chess_2.jpg,Green_Triangle_Grid_4.jpg,Purple_Circle_Chess_3.jpg,left,531.9999999992433,true,low,NA,NA,NA,NA,NA,NA,NA,false
xe8BiYlh,3ba7sxog2m30f57lxuc2l92uxdc8rv,32vnztt0abh1joidctrrthigij0r4n,xe8BiYlh,2020-0188,2020-06-04,12:22:01,12:36:13,NA,incomplete,65,color,0,1,left,Blue_Triangle_Stripes_1.jpg,Blue_Circle_Chess_2.jpg,Red_Plus_Stripes_4.jpg,left,586.9999999995343,true,low,NA,NA,NA,NA,NA,NA,NA,false
xe8BiYlh,3ba7sxog2m30f57lxuc2l92uxdc8rv,32vnztt0abh1joidctrrthigij0r4n,xe8BiYlh,2020-0188,2020-06-04,12:22:01,12:36:13,NA,incomplete,66,color,0,0,left,Blue_Star_Chess_1.jpg,Blue_Circle_Stripes_2.jpg,Red_Plus_Chess_3.jpg,left,567.9999999993015,true,low,NA,NA,NA,NA,NA,NA,NA,false
xe8BiYlh,3ba7sxog2m30f57lxuc2l92uxdc8rv,32vnztt0abh1joidctrrthigij0r4n,xe8BiYlh,2020-0188,2020-06-04,12:22:01,12:36:13,NA,incomplete,67,color,0,1,right,Purple_Triangle_Dots_3.jpg,Blue_Plus_Dots_2.jpg,Purple_Star_Grid_1.jpg,right,531.9999999992433,true,low,NA,NA,NA,NA,NA,NA,NA,false
xe8BiYlh,3ba7sxog2m30f57lxuc2l92uxdc8rv,32vnztt0abh1joidctrrthigij0r4n,xe8BiYlh,2020-0188,2020-06-04,12:22:01,12:36:13,NA,incomplete,68,color,0,1,right,Purple_Triangle_Stripes_1.jpg,Green_Star_Stripes_3.jpg,Purple_Plus_Grid_4.jpg,right,478.9999999993597,true,low,NA,NA,NA,NA,NA,NA,NA,false
xe8BiYlh,3ba7sxog2m30f57lxuc2l92uxdc8rv,32vnztt0abh1joidctrrthigij0r4n,xe8BiYlh,2020-0188,2020-06-04,12:22:01,12:36:13,NA,incomplete,69,color,0,1,left,Red_Plus_Stripes_2.jpg,Red_Triangle_Chess_4.jpg,Green_Circle_Stripes_1.jpg,left,442.9999999993015,true,low,NA,NA,NA,NA,NA,NA,NA,false
xe8BiYlh,3ba7sxog2m30f57lxuc2l92uxdc8rv,32vnztt0abh1joidctrrthigij0r4n,xe8BiYlh,2020-0188,2020-06-04,12:22:01,12:36:13,NA,incomplete,70,color,0,1,right,Purple_Triangle_Dots_2.jpg,Blue_Star_Dots_4.jpg,Purple_Plus_Stripes_1.jpg,right,586.9999999995343,true,low,NA,NA,NA,NA,NA,NA,NA,false
xe8BiYlh,3ba7sxog2m30f57lxuc2l92uxdc8rv,32vnztt0abh1joidctrrthigij0r4n,xe8BiYlh,2020-0188,2020-06-04,12:22:01,12:36:13,NA,incomplete,71,color,0,1,left,Purple_Circle_Stripes_4.jpg,Purple_Triangle_Grid_1.jpg,Green_Plus_Stripes_3.jpg,left,563.0000000019209,true,low,NA,NA,NA,NA,NA,NA,NA,false
xe8BiYlh,3ba7sxog2m30f57lxuc2l92uxdc8rv,32vnztt0abh1joidctrrthigij0r4n,xe8BiYlh,2020-0188,2020-06-04,12:22:01,12:36:13,NA,incomplete,72,color,0,1,right,Purple_Triangle_Dots_4.jpg,Green_Plus_Dots_1.jpg,Purple_Star_Chess_3.jpg,left,668.0000000051223,false,low,NA,NA,NA,NA,NA,NA,NA,false
xe8BiYlh,3ba7sxog2m30f57lxuc2l92uxdc8rv,32vnztt0abh1joidctrrthigij0r4n,xe8BiYlh,2020-0188,2020-06-04,12:22:01,12:36:13,NA,incomplete,73,color,0,1,right,Blue_Plus_Stripes_1.jpg,Purple_Circle_Stripes_4.jpg,Blue_Star_Grid_2.jpg,right,522.9999999937718,true,low,NA,NA,NA,NA,NA,NA,NA,false
xe8BiYlh,3ba7sxog2m30f57lxuc2l92uxdc8rv,32vnztt0abh1joidctrrthigij0r4n,xe8BiYlh,2020-0188,2020-06-04,12:22:01,12:36:13,NA,incomplete,74,color,0,1,right,Red_Circle_Chess_3.jpg,Purple_Plus_Chess_4.jpg,Red_Star_Grid_1.jpg,right,514.9999999994179,true,low,NA,NA,NA,NA,NA,NA,NA,false
xe8BiYlh,3ba7sxog2m30f57lxuc2l92uxdc8rv,32vnztt0abh1joidctrrthigij0r4n,xe8BiYlh,2020-0188,2020-06-04,12:22:01,12:36:13,NA,incomplete,75,color,0,1,right,Red_Circle_Chess_4.jpg,Blue_Star_Chess_3.jpg,Red_Plus_Grid_1.jpg,right,621.000000006461,true,low,NA,NA,NA,NA,NA,NA,NA,false
xe8BiYlh,3ba7sxog2m30f57lxuc2l92uxdc8rv,32vnztt0abh1joidctrrthigij0r4n,xe8BiYlh,2020-0188,2020-06-04,12:22:01,12:36:13,NA,incomplete,76,color,0,0,left,Blue_Triangle_Grid_4.jpg,Blue_Star_Dots_2.jpg,Red_Plus_Grid_3.jpg,left,476.99999999895226,true,low,NA,NA,NA,NA,NA,NA,NA,false
xe8BiYlh,3ba7sxog2m30f57lxuc2l92uxdc8rv,32vnztt0abh1joidctrrthigij0r4n,xe8BiYlh,2020-0188,2020-06-04,12:22:01,12:36:13,NA,incomplete,77,color,0,1,left,Blue_Plus_Chess_1.jpg,Blue_Triangle_Dots_3.jpg,Purple_Circle_Chess_4.jpg,left,436.0000000015134,true,low,NA,NA,NA,NA,NA,NA,NA,false
xe8BiYlh,3ba7sxog2m30f57lxuc2l92uxdc8rv,32vnztt0abh1joidctrrthigij0r4n,xe8BiYlh,2020-0188,2020-06-04,12:22:01,12:36:13,NA,incomplete,78,color,0,0,left,Red_Plus_Stripes_2.jpg,Red_Circle_Dots_1.jpg,Blue_Star_Stripes_4.jpg,left,576.0000000009313,true,low,NA,NA,NA,NA,NA,NA,NA,false
xe8BiYlh,3ba7sxog2m30f57lxuc2l92uxdc8rv,32vnztt0abh1joidctrrthigij0r4n,xe8BiYlh,2020-0188,2020-06-04,12:22:01,12:36:13,NA,incomplete,79,color,0,1,right,Green_Circle_Dots_2.jpg,Red_Plus_Dots_1.jpg,Green_Triangle_Stripes_4.jpg,right,542.0000000012806,true,low,NA,NA,NA,NA,NA,NA,NA,false
xe8BiYlh,3ba7sxog2m30f57lxuc2l92uxdc8rv,32vnztt0abh1joidctrrthigij0r4n,xe8BiYlh,2020-0188,2020-06-04,12:22:01,12:36:13,NA,incomplete,80,color,0,1,right,Blue_Triangle_Chess_2.jpg,Red_Star_Chess_1.jpg,Blue_Circle_Grid_4.jpg,right,483.0000000001746,true,low,NA,NA,NA,NA,NA,NA,NA,false
xe8BiYlh,3ba7sxog2m30f57lxuc2l92uxdc8rv,32vnztt0abh1joidctrrthigij0r4n,xe8BiYlh,2020-0188,2020-06-04,12:22:01,12:36:13,NA,incomplete,81,color,0,0,right,Blue_Plus_Stripes_4.jpg,Red_Star_Stripes_2.jpg,Blue_Circle_Chess_3.jpg,right,524.9999999941792,true,low,NA,NA,NA,NA,NA,NA,NA,false
xe8BiYlh,3ba7sxog2m30f57lxuc2l92uxdc8rv,32vnztt0abh1joidctrrthigij0r4n,xe8BiYlh,2020-0188,2020-06-04,12:22:01,12:36:13,NA,incomplete,82,color,0,1,right,Red_Plus_Dots_4.jpg,Blue_Triangle_Dots_3.jpg,Red_Circle_Stripes_1.jpg,right,509.9999999947613,true,low,NA,NA,NA,NA,NA,NA,NA,false
xe8BiYlh,3ba7sxog2m30f57lxuc2l92uxdc8rv,32vnztt0abh1joidctrrthigij0r4n,xe8BiYlh,2020-0188,2020-06-04,12:22:01,12:36:13,NA,incomplete,83,color,0,1,left,Purple_Triangle_Dots_2.jpg,Purple_Circle_Grid_3.jpg,Blue_Plus_Dots_1.jpg,left,463.9999999999418,true,low,NA,NA,NA,NA,NA,NA,NA,false
xe8BiYlh,3ba7sxog2m30f57lxuc2l92uxdc8rv,32vnztt0abh1joidctrrthigij0r4n,xe8BiYlh,2020-0188,2020-06-04,12:22:01,12:36:13,NA,incomplete,84,color,0,1,right,Red_Star_Chess_1.jpg,Green_Triangle_Chess_2.jpg,Red_Circle_Stripes_4.jpg,right,502.00000000040745,true,low,NA,NA,NA,NA,NA,NA,NA,false
xe8BiYlh,3ba7sxog2m30f57lxuc2l92uxdc8rv,32vnztt0abh1joidctrrthigij0r4n,xe8BiYlh,2020-0188,2020-06-04,12:22:01,12:36:13,NA,incomplete,85,color,0,1,right,Red_Plus_Stripes_4.jpg,Purple_Star_Stripes_1.jpg,Red_Triangle_Chess_2.jpg,right,462.9999999961001,true,low,NA,NA,NA,NA,NA,NA,NA,false
xe8BiYlh,3ba7sxog2m30f57lxuc2l92uxdc8rv,32vnztt0abh1joidctrrthigij0r4n,xe8BiYlh,2020-0188,2020-06-04,12:22:01,12:36:13,NA,incomplete,86,color,0,1,left,Red_Triangle_Dots_3.jpg,Red_Circle_Stripes_1.jpg,Blue_Star_Dots_4.jpg,left,423.00000000250293,true,low,NA,NA,NA,NA,NA,NA,NA,false
xe8BiYlh,3ba7sxog2m30f57lxuc2l92uxdc8rv,32vnztt0abh1joidctrrthigij0r4n,xe8BiYlh,2020-0188,2020-06-04,12:22:01,12:36:13,NA,incomplete,87,color,0,0,right,Purple_Circle_Dots_3.jpg,Blue_Plus_Dots_1.jpg,Purple_Triangle_Grid_4.jpg,right,436.0000000015134,true,low,NA,NA,NA,NA,NA,NA,NA,false
xe8BiYlh,3ba7sxog2m30f57lxuc2l92uxdc8rv,32vnztt0abh1joidctrrthigij0r4n,xe8BiYlh,2020-0188,2020-06-04,12:22:01,12:36:13,NA,incomplete,88,color,0,1,left,Purple_Star_Dots_4.jpg,Purple_Circle_Grid_2.jpg,Green_Triangle_Dots_1.jpg,left,542.9999999978463,true,low,NA,NA,NA,NA,NA,NA,NA,false
xe8BiYlh,3ba7sxog2m30f57lxuc2l92uxdc8rv,32vnztt0abh1joidctrrthigij0r4n,xe8BiYlh,2020-0188,2020-06-04,12:22:01,12:36:13,NA,incomplete,89,color,0,0,right,Green_Plus_Chess_2.jpg,Blue_Triangle_Chess_4.jpg,Green_Circle_Grid_1.jpg,right,552.0000000033178,true,low,NA,NA,NA,NA,NA,NA,NA,false
xe8BiYlh,3ba7sxog2m30f57lxuc2l92uxdc8rv,32vnztt0abh1joidctrrthigij0r4n,xe8BiYlh,2020-0188,2020-06-04,12:22:01,12:36:13,NA,incomplete,90,filling,1,1,left,Blue_Triangle_Dots_4.jpg,Purple_Star_Dots_3.jpg,Blue_Plus_Stripes_2.jpg,right,559.9999999976717,false,low,NA,NA,NA,NA,NA,NA,NA,false
xe8BiYlh,3ba7sxog2m30f57lxuc2l92uxdc8rv,32vnztt0abh1joidctrrthigij0r4n,xe8BiYlh,2020-0188,2020-06-04,12:22:01,12:36:13,NA,incomplete,91,filling,1,0,right,Blue_Plus_Chess_1.jpg,Blue_Triangle_Grid_2.jpg,Green_Star_Chess_3.jpg,right,1302.0000000033178,true,low,NA,NA,NA,NA,NA,NA,NA,false
xe8BiYlh,3ba7sxog2m30f57lxuc2l92uxdc8rv,32vnztt0abh1joidctrrthigij0r4n,xe8BiYlh,2020-0188,2020-06-04,12:22:01,12:36:13,NA,incomplete,92,filling,1,1,left,Blue_Triangle_Grid_2.jpg,Purple_Circle_Grid_3.jpg,Blue_Plus_Chess_1.jpg,right,915.0000000008731,false,low,NA,NA,NA,NA,NA,NA,NA,false
xe8BiYlh,3ba7sxog2m30f57lxuc2l92uxdc8rv,32vnztt0abh1joidctrrthigij0r4n,xe8BiYlh,2020-0188,2020-06-04,12:22:01,12:36:13,NA,incomplete,93,filling,1,1,left,Blue_Star_Chess_1.jpg,Purple_Circle_Chess_4.jpg,Blue_Plus_Dots_3.jpg,right,1391.9999999998254,false,low,NA,NA,NA,NA,NA,NA,NA,false
xe8BiYlh,3ba7sxog2m30f57lxuc2l92uxdc8rv,32vnztt0abh1joidctrrthigij0r4n,xe8BiYlh,2020-0188,2020-06-04,12:22:01,12:36:13,NA,incomplete,94,filling,1,0,right,Blue_Triangle_Chess_2.jpg,Blue_Plus_Dots_3.jpg,Red_Star_Chess_4.jpg,left,1572.9999999966822,false,low,NA,NA,NA,NA,NA,NA,NA,false
xe8BiYlh,3ba7sxog2m30f57lxuc2l92uxdc8rv,32vnztt0abh1joidctrrthigij0r4n,xe8BiYlh,2020-0188,2020-06-04,12:22:01,12:36:13,NA,incomplete,95,filling,1,1,right,Purple_Star_Grid_2.jpg,Purple_Circle_Dots_4.jpg,Red_Triangle_Grid_1.jpg,left,948.0000000039581,false,low,NA,NA,NA,NA,NA,NA,NA,false
xe8BiYlh,3ba7sxog2m30f57lxuc2l92uxdc8rv,32vnztt0abh1joidctrrthigij0r4n,xe8BiYlh,2020-0188,2020-06-04,12:22:01,12:36:13,NA,incomplete,96,filling,1,1,right,Red_Plus_Grid_4.jpg,Red_Circle_Stripes_1.jpg,Blue_Star_Grid_2.jpg,left,586.9999999995343,false,low,NA,NA,NA,NA,NA,NA,NA,false
xe8BiYlh,3ba7sxog2m30f57lxuc2l92uxdc8rv,32vnztt0abh1joidctrrthigij0r4n,xe8BiYlh,2020-0188,2020-06-04,12:22:01,12:36:13,NA,incomplete,97,filling,1,1,left,Green_Star_Chess_4.jpg,Purple_Plus_Chess_2.jpg,Green_Triangle_Grid_3.jpg,right,598.9999999947031,false,low,NA,NA,NA,NA,NA,NA,NA,false
xe8BiYlh,3ba7sxog2m30f57lxuc2l92uxdc8rv,32vnztt0abh1joidctrrthigij0r4n,xe8BiYlh,2020-0188,2020-06-04,12:22:01,12:36:13,NA,incomplete,98,filling,1,1,left,Purple_Triangle_Dots_3.jpg,Blue_Circle_Dots_1.jpg,Purple_Plus_Stripes_2.jpg,right,548.0000000025029,false,low,NA,NA,NA,NA,NA,NA,NA,false
xe8BiYlh,3ba7sxog2m30f57lxuc2l92uxdc8rv,32vnztt0abh1joidctrrthigij0r4n,xe8BiYlh,2020-0188,2020-06-04,12:22:01,12:36:13,NA,incomplete,99,filling,1,0,right,Green_Plus_Stripes_2.jpg,Green_Triangle_Dots_1.jpg,Red_Circle_Stripes_3.jpg,right,1353.9999999993597,true,low,NA,NA,NA,NA,NA,NA,NA,false
xe8BiYlh,3ba7sxog2m30f57lxuc2l92uxdc8rv,32vnztt0abh1joidctrrthigij0r4n,xe8BiYlh,2020-0188,2020-06-04,12:22:01,12:36:13,NA,incomplete,100,filling,1,0,left,Purple_Star_Chess_2.jpg,Blue_Triangle_Chess_3.jpg,Purple_Circle_Stripes_4.jpg,left,1013.9999999955762,true,low,NA,NA,NA,NA,NA,NA,NA,false
xe8BiYlh,3ba7sxog2m30f57lxuc2l92uxdc8rv,32vnztt0abh1joidctrrthigij0r4n,xe8BiYlh,2020-0188,2020-06-04,12:22:01,12:36:13,NA,incomplete,101,filling,1,1,right,Blue_Circle_Stripes_4.jpg,Blue_Plus_Grid_2.jpg,Red_Triangle_Stripes_1.jpg,left,453.0000000013388,false,low,NA,NA,NA,NA,NA,NA,NA,false
xe8BiYlh,3ba7sxog2m30f57lxuc2l92uxdc8rv,32vnztt0abh1joidctrrthigij0r4n,xe8BiYlh,2020-0188,2020-06-04,12:22:01,12:36:13,NA,incomplete,102,filling,1,0,left,Red_Circle_Dots_4.jpg,Blue_Star_Dots_3.jpg,Red_Plus_Grid_2.jpg,right,620.0000000026193,false,low,NA,NA,NA,NA,NA,NA,NA,false
xe8BiYlh,3ba7sxog2m30f57lxuc2l92uxdc8rv,32vnztt0abh1joidctrrthigij0r4n,xe8BiYlh,2020-0188,2020-06-04,12:22:01,12:36:13,NA,incomplete,103,filling,1,1,right,Blue_Triangle_Grid_3.jpg,Blue_Circle_Chess_4.jpg,Green_Plus_Grid_2.jpg,left,550.9999999994761,false,low,NA,NA,NA,NA,NA,NA,NA,false
xe8BiYlh,3ba7sxog2m30f57lxuc2l92uxdc8rv,32vnztt0abh1joidctrrthigij0r4n,xe8BiYlh,2020-0188,2020-06-04,12:22:01,12:36:13,NA,incomplete,104,filling,1,1,left,Green_Plus_Chess_2.jpg,Red_Triangle_Chess_4.jpg,Green_Star_Grid_1.jpg,right,540.0000000008731,false,low,NA,NA,NA,NA,NA,NA,NA,false
xe8BiYlh,3ba7sxog2m30f57lxuc2l92uxdc8rv,32vnztt0abh1joidctrrthigij0r4n,xe8BiYlh,2020-0188,2020-06-04,12:22:01,12:36:13,NA,incomplete,105,filling,1,0,right,Blue_Circle_Dots_1.jpg,Blue_Star_Chess_3.jpg,Green_Triangle_Dots_2.jpg,right,1009.0000000054715,true,low,NA,NA,NA,NA,NA,NA,NA,false
xe8BiYlh,3ba7sxog2m30f57lxuc2l92uxdc8rv,32vnztt0abh1joidctrrthigij0r4n,xe8BiYlh,2020-0188,2020-06-04,12:22:01,12:36:13,NA,incomplete,106,filling,1,1,right,Green_Triangle_Grid_1.jpg,Green_Plus_Dots_2.jpg,Red_Star_Grid_3.jpg,right,1255.0000000046566,true,low,NA,NA,NA,NA,NA,NA,NA,false
xe8BiYlh,3ba7sxog2m30f57lxuc2l92uxdc8rv,32vnztt0abh1joidctrrthigij0r4n,xe8BiYlh,2020-0188,2020-06-04,12:22:01,12:36:13,NA,incomplete,107,filling,1,1,left,Red_Triangle_Stripes_3.jpg,Blue_Star_Stripes_4.jpg,Red_Plus_Chess_1.jpg,left,1114.000000001397,true,low,NA,NA,NA,NA,NA,NA,NA,false
xe8BiYlh,3ba7sxog2m30f57lxuc2l92uxdc8rv,32vnztt0abh1joidctrrthigij0r4n,xe8BiYlh,2020-0188,2020-06-04,12:22:01,12:36:13,NA,incomplete,108,filling,1,1,right,Purple_Plus_Chess_4.jpg,Purple_Circle_Grid_1.jpg,Red_Star_Chess_2.jpg,right,937.0000000053551,true,low,NA,NA,NA,NA,NA,NA,NA,false
xe8BiYlh,3ba7sxog2m30f57lxuc2l92uxdc8rv,32vnztt0abh1joidctrrthigij0r4n,xe8BiYlh,2020-0188,2020-06-04,12:22:01,12:36:13,NA,incomplete,109,filling,1,1,left,Green_Circle_Dots_1.jpg,Red_Plus_Dots_2.jpg,Green_Star_Grid_4.jpg,left,954.9999999944703,true,low,NA,NA,NA,NA,NA,NA,NA,false
xe8BiYlh,3ba7sxog2m30f57lxuc2l92uxdc8rv,32vnztt0abh1joidctrrthigij0r4n,xe8BiYlh,2020-0188,2020-06-04,12:22:01,12:36:13,NA,incomplete,110,filling,1,0,right,Blue_Circle_Dots_1.jpg,Blue_Plus_Grid_4.jpg,Green_Star_Dots_3.jpg,right,974.9999999985448,true,low,NA,NA,NA,NA,NA,NA,NA,false
xe8BiYlh,3ba7sxog2m30f57lxuc2l92uxdc8rv,32vnztt0abh1joidctrrthigij0r4n,xe8BiYlh,2020-0188,2020-06-04,12:22:01,12:36:13,NA,incomplete,111,filling,1,1,left,Blue_Star_Dots_2.jpg,Purple_Triangle_Dots_4.jpg,Blue_Plus_Chess_1.jpg,left,930.9999999968568,true,low,NA,NA,NA,NA,NA,NA,NA,false
xe8BiYlh,3ba7sxog2m30f57lxuc2l92uxdc8rv,32vnztt0abh1joidctrrthigij0r4n,xe8BiYlh,2020-0188,2020-06-04,12:22:01,12:36:13,NA,incomplete,112,filling,1,1,right,Red_Circle_Stripes_2.jpg,Red_Star_Grid_3.jpg,Green_Triangle_Stripes_4.jpg,right,843.0000000007567,true,low,NA,NA,NA,NA,NA,NA,NA,false
xe8BiYlh,3ba7sxog2m30f57lxuc2l92uxdc8rv,32vnztt0abh1joidctrrthigij0r4n,xe8BiYlh,2020-0188,2020-06-04,12:22:01,12:36:13,NA,incomplete,113,filling,1,1,right,Green_Plus_Chess_1.jpg,Green_Circle_Stripes_2.jpg,Purple_Star_Chess_3.jpg,right,989.9999999979627,true,low,NA,NA,NA,NA,NA,NA,NA,false
xe8BiYlh,3ba7sxog2m30f57lxuc2l92uxdc8rv,32vnztt0abh1joidctrrthigij0r4n,xe8BiYlh,2020-0188,2020-06-04,12:22:01,12:36:13,NA,incomplete,114,filling,1,1,left,Green_Circle_Dots_4.jpg,Blue_Triangle_Dots_3.jpg,Green_Plus_Grid_2.jpg,left,1025.0000000014552,true,low,NA,NA,NA,NA,NA,NA,NA,false
xe8BiYlh,3ba7sxog2m30f57lxuc2l92uxdc8rv,32vnztt0abh1joidctrrthigij0r4n,xe8BiYlh,2020-0188,2020-06-04,12:22:01,12:36:13,NA,incomplete,115,filling,1,1,right,Purple_Circle_Grid_3.jpg,Purple_Star_Stripes_4.jpg,Green_Plus_Grid_2.jpg,right,761.9999999951688,true,low,NA,NA,NA,NA,NA,NA,NA,false
xe8BiYlh,3ba7sxog2m30f57lxuc2l92uxdc8rv,32vnztt0abh1joidctrrthigij0r4n,xe8BiYlh,2020-0188,2020-06-04,12:22:01,12:36:13,NA,incomplete,116,filling,1,0,left,Red_Plus_Grid_1.jpg,Green_Star_Grid_3.jpg,Red_Circle_Stripes_2.jpg,left,1098.999999994703,true,low,NA,NA,NA,NA,NA,NA,NA,false
xe8BiYlh,3ba7sxog2m30f57lxuc2l92uxdc8rv,32vnztt0abh1joidctrrthigij0r4n,xe8BiYlh,2020-0188,2020-06-04,12:22:01,12:36:13,NA,incomplete,117,filling,1,1,left,Green_Triangle_Chess_4.jpg,Blue_Circle_Chess_3.jpg,Green_Plus_Grid_1.jpg,left,891.9999999998254,true,low,NA,NA,NA,NA,NA,NA,NA,false
xe8BiYlh,3ba7sxog2m30f57lxuc2l92uxdc8rv,32vnztt0abh1joidctrrthigij0r4n,xe8BiYlh,2020-0188,2020-06-04,12:22:01,12:36:13,NA,incomplete,118,filling,1,0,right,Green_Plus_Dots_1.jpg,Green_Circle_Chess_4.jpg,Blue_Star_Dots_2.jpg,right,801.9999999960419,true,low,NA,NA,NA,NA,NA,NA,NA,false
xe8BiYlh,3ba7sxog2m30f57lxuc2l92uxdc8rv,32vnztt0abh1joidctrrthigij0r4n,xe8BiYlh,2020-0188,2020-06-04,12:22:01,12:36:13,NA,incomplete,119,filling,1,1,right,Purple_Star_Grid_2.jpg,Purple_Triangle_Stripes_3.jpg,Red_Plus_Grid_1.jpg,right,1216.999999996915,true,low,NA,NA,NA,NA,NA,NA,NA,false
xe8BiYlh,3ba7sxog2m30f57lxuc2l92uxdc8rv,32vnztt0abh1joidctrrthigij0r4n,xe8BiYlh,2020-0188,2020-06-04,12:22:01,12:36:13,NA,incomplete,120,race,2,1,left,C_F_12.jpg,C_M_04.jpg,A_F_01.jpg,NA,NA,NA,low,NA,NA,NA,NA,NA,NA,NA,false
xe8BiYlh,3ba7sxog2m30f57lxuc2l92uxdc8rv,32vnztt0abh1joidctrrthigij0r4n,xe8BiYlh,2020-0188,2020-06-04,12:22:01,12:36:13,NA,incomplete,121,race,2,0,right,A_F_01.jpg,C_F_14.jpg,A_M_06.jpg,right,1008.9999999981956,true,low,NA,NA,NA,NA,NA,NA,NA,false
xe8BiYlh,3ba7sxog2m30f57lxuc2l92uxdc8rv,32vnztt0abh1joidctrrthigij0r4n,xe8BiYlh,2020-0188,2020-06-04,12:22:01,12:36:13,NA,incomplete,122,race,2,1,left,A_M_09.jpg,A_F_14.jpg,C_M_11.jpg,left,1121.9999999957508,true,low,NA,NA,NA,NA,NA,NA,NA,false
xe8BiYlh,3ba7sxog2m30f57lxuc2l92uxdc8rv,32vnztt0abh1joidctrrthigij0r4n,xe8BiYlh,2020-0188,2020-06-04,12:22:01,12:36:13,NA,incomplete,123,race,2,1,left,C_F_15.jpg,C_M_03.jpg,A_F_06.jpg,left,1137.9999999990105,true,low,NA,NA,NA,NA,NA,NA,NA,false
xe8BiYlh,3ba7sxog2m30f57lxuc2l92uxdc8rv,32vnztt0abh1joidctrrthigij0r4n,xe8BiYlh,2020-0188,2020-06-04,12:22:01,12:36:13,NA,incomplete,124,race,2,1,right,A_F_06.jpg,C_F_10.jpg,A_M_09.jpg,right,798.9999999990687,true,low,NA,NA,NA,NA,NA,NA,NA,false
xe8BiYlh,3ba7sxog2m30f57lxuc2l92uxdc8rv,32vnztt0abh1joidctrrthigij0r4n,xe8BiYlh,2020-0188,2020-06-04,12:22:01,12:36:13,NA,incomplete,125,race,2,1,left,A_M_14.jpg,A_F_15.jpg,C_M_10.jpg,left,1089,true,low,NA,NA,NA,NA,NA,NA,NA,false
xe8BiYlh,3ba7sxog2m30f57lxuc2l92uxdc8rv,32vnztt0abh1joidctrrthigij0r4n,xe8BiYlh,2020-0188,2020-06-04,12:22:01,12:36:13,NA,incomplete,126,race,2,1,left,A_M_07.jpg,A_F_14.jpg,C_M_05.jpg,left,1159.9999999961583,true,low,NA,NA,NA,NA,NA,NA,NA,false
xe8BiYlh,3ba7sxog2m30f57lxuc2l92uxdc8rv,32vnztt0abh1joidctrrthigij0r4n,xe8BiYlh,2020-0188,2020-06-04,12:22:01,12:36:13,NA,incomplete,127,race,2,1,right,A_F_12.jpg,C_F_13.jpg,A_M_14.jpg,right,1136.999999995227,true,low,NA,NA,NA,NA,NA,NA,NA,false
xe8BiYlh,3ba7sxog2m30f57lxuc2l92uxdc8rv,32vnztt0abh1joidctrrthigij0r4n,xe8BiYlh,2020-0188,2020-06-04,12:22:01,12:36:13,NA,incomplete,128,race,2,1,left,A_F_06.jpg,A_M_05.jpg,C_F_08.jpg,left,1150.999999998021,true,low,NA,NA,NA,NA,NA,NA,NA,false
xe8BiYlh,3ba7sxog2m30f57lxuc2l92uxdc8rv,32vnztt0abh1joidctrrthigij0r4n,xe8BiYlh,2020-0188,2020-06-04,12:22:01,12:36:13,NA,incomplete,129,race,2,0,right,A_M_15.jpg,C_M_04.jpg,A_F_05.jpg,right,1159.9999999962747,true,low,NA,NA,NA,NA,NA,NA,NA,false
xe8BiYlh,3ba7sxog2m30f57lxuc2l92uxdc8rv,32vnztt0abh1joidctrrthigij0r4n,xe8BiYlh,2020-0188,2020-06-04,12:22:01,12:36:13,NA,incomplete,130,race,2,1,right,C_M_10.jpg,A_M_03.jpg,C_F_11.jpg,right,1144.0000000002328,true,low,NA,NA,NA,NA,NA,NA,NA,false
xe8BiYlh,3ba7sxog2m30f57lxuc2l92uxdc8rv,32vnztt0abh1joidctrrthigij0r4n,xe8BiYlh,2020-0188,2020-06-04,12:22:01,12:36:13,NA,incomplete,131,race,2,1,left,C_M_11.jpg,C_F_10.jpg,A_M_04.jpg,right,1978.999999999418,false,low,NA,NA,NA,NA,NA,NA,NA,false
xe8BiYlh,3ba7sxog2m30f57lxuc2l92uxdc8rv,32vnztt0abh1joidctrrthigij0r4n,xe8BiYlh,2020-0188,2020-06-04,12:22:01,12:36:13,NA,incomplete,132,race,2,0,right,C_M_09.jpg,A_M_10.jpg,C_F_13.jpg,left,1598.000000005355,false,low,NA,NA,NA,NA,NA,NA,NA,false
xe8BiYlh,3ba7sxog2m30f57lxuc2l92uxdc8rv,32vnztt0abh1joidctrrthigij0r4n,xe8BiYlh,2020-0188,2020-06-04,12:22:01,12:36:13,NA,incomplete,133,race,2,1,left,A_M_09.jpg,A_F_10.jpg,C_M_05.jpg,left,1372.0000000030268,true,low,NA,NA,NA,NA,NA,NA,NA,false
xe8BiYlh,3ba7sxog2m30f57lxuc2l92uxdc8rv,32vnztt0abh1joidctrrthigij0r4n,xe8BiYlh,2020-0188,2020-06-04,12:22:01,12:36:13,NA,incomplete,134,race,2,1,left,A_F_16.jpg,A_M_05.jpg,C_F_08.jpg,left,1130.0000000046566,true,low,NA,NA,NA,NA,NA,NA,NA,false
xe8BiYlh,3ba7sxog2m30f57lxuc2l92uxdc8rv,32vnztt0abh1joidctrrthigij0r4n,xe8BiYlh,2020-0188,2020-06-04,12:22:01,12:36:13,NA,incomplete,135,race,2,1,right,A_F_10.jpg,C_F_14.jpg,A_M_06.jpg,right,847.0000000015134,true,low,NA,NA,NA,NA,NA,NA,NA,false
xe8BiYlh,3ba7sxog2m30f57lxuc2l92uxdc8rv,32vnztt0abh1joidctrrthigij0r4n,xe8BiYlh,2020-0188,2020-06-04,12:22:01,12:36:13,NA,incomplete,136,race,2,1,right,A_M_15.jpg,C_M_16.jpg,A_F_04.jpg,right,1086.0000000029104,true,low,NA,NA,NA,NA,NA,NA,NA,false
xe8BiYlh,3ba7sxog2m30f57lxuc2l92uxdc8rv,32vnztt0abh1joidctrrthigij0r4n,xe8BiYlh,2020-0188,2020-06-04,12:22:01,12:36:13,NA,incomplete,137,race,2,1,left,A_F_12.jpg,A_M_07.jpg,C_F_04.jpg,left,900.000000001397,true,low,NA,NA,NA,NA,NA,NA,NA,false
xe8BiYlh,3ba7sxog2m30f57lxuc2l92uxdc8rv,32vnztt0abh1joidctrrthigij0r4n,xe8BiYlh,2020-0188,2020-06-04,12:22:01,12:36:13,NA,incomplete,138,race,2,1,right,A_M_12.jpg,C_M_16.jpg,A_F_01.jpg,right,1158.9999999995343,true,low,NA,NA,NA,NA,NA,NA,NA,false
xe8BiYlh,3ba7sxog2m30f57lxuc2l92uxdc8rv,32vnztt0abh1joidctrrthigij0r4n,xe8BiYlh,2020-0188,2020-06-04,12:22:01,12:36:13,NA,incomplete,139,race,2,1,right,C_M_09.jpg,A_M_03.jpg,C_F_16.jpg,left,809.0000000010477,false,low,NA,NA,NA,NA,NA,NA,NA,false
xe8BiYlh,3ba7sxog2m30f57lxuc2l92uxdc8rv,32vnztt0abh1joidctrrthigij0r4n,xe8BiYlh,2020-0188,2020-06-04,12:22:01,12:36:13,NA,incomplete,140,gender,3,0,left,A_M_15.jpg,C_M_03.jpg,A_F_13.jpg,right,1213.000000003376,false,low,NA,NA,NA,NA,NA,NA,NA,false
xe8BiYlh,3ba7sxog2m30f57lxuc2l92uxdc8rv,32vnztt0abh1joidctrrthigij0r4n,xe8BiYlh,2020-0188,2020-06-04,12:22:01,12:36:13,NA,incomplete,141,gender,3,1,left,C_M_13.jpg,A_M_01.jpg,C_F_06.jpg,right,1224.000000001979,false,low,NA,NA,NA,NA,NA,NA,NA,false
xe8BiYlh,3ba7sxog2m30f57lxuc2l92uxdc8rv,32vnztt0abh1joidctrrthigij0r4n,xe8BiYlh,2020-0188,2020-06-04,12:22:01,12:36:13,NA,incomplete,142,gender,3,1,right,A_M_16.jpg,A_F_06.jpg,C_M_08.jpg,left,774.0000000048894,false,low,NA,NA,NA,NA,NA,NA,NA,false
xe8BiYlh,3ba7sxog2m30f57lxuc2l92uxdc8rv,32vnztt0abh1joidctrrthigij0r4n,xe8BiYlh,2020-0188,2020-06-04,12:22:01,12:36:13,NA,incomplete,143,gender,3,1,right,A_F_09.jpg,A_M_07.jpg,C_F_10.jpg,right,1188.9999999983702,true,low,NA,NA,NA,NA,NA,NA,NA,false
xe8BiYlh,3ba7sxog2m30f57lxuc2l92uxdc8rv,32vnztt0abh1joidctrrthigij0r4n,xe8BiYlh,2020-0188,2020-06-04,12:22:01,12:36:13,NA,incomplete,144,gender,3,1,right,A_F_02.jpg,A_M_08.jpg,C_F_01.jpg,right,860.999999997206,true,low,NA,NA,NA,NA,NA,NA,NA,false
xe8BiYlh,3ba7sxog2m30f57lxuc2l92uxdc8rv,32vnztt0abh1joidctrrthigij0r4n,xe8BiYlh,2020-0188,2020-06-04,12:22:01,12:36:13,NA,incomplete,145,gender,3,1,left,A_F_11.jpg,C_F_07.jpg,A_M_15.jpg,left,1042.999999997788,true,low,NA,NA,NA,NA,NA,NA,NA,false
xe8BiYlh,3ba7sxog2m30f57lxuc2l92uxdc8rv,32vnztt0abh1joidctrrthigij0r4n,xe8BiYlh,2020-0188,2020-06-04,12:22:01,12:36:13,NA,incomplete,146,gender,3,1,left,C_M_08.jpg,A_M_11.jpg,C_F_12.jpg,left,853.9999999993015,true,low,NA,NA,NA,NA,NA,NA,NA,false
xe8BiYlh,3ba7sxog2m30f57lxuc2l92uxdc8rv,32vnztt0abh1joidctrrthigij0r4n,xe8BiYlh,2020-0188,2020-06-04,12:22:01,12:36:13,NA,incomplete,147,gender,3,1,left,A_F_06.jpg,C_F_16.jpg,A_M_10.jpg,left,826.9999999974389,true,low,NA,NA,NA,NA,NA,NA,NA,false
xe8BiYlh,3ba7sxog2m30f57lxuc2l92uxdc8rv,32vnztt0abh1joidctrrthigij0r4n,xe8BiYlh,2020-0188,2020-06-04,12:22:01,12:36:13,NA,incomplete,148,gender,3,0,left,A_M_08.jpg,C_M_16.jpg,A_F_13.jpg,left,849.9999999984866,true,low,NA,NA,NA,NA,NA,NA,NA,false
xe8BiYlh,3ba7sxog2m30f57lxuc2l92uxdc8rv,32vnztt0abh1joidctrrthigij0r4n,xe8BiYlh,2020-0188,2020-06-04,12:22:01,12:36:13,NA,incomplete,149,gender,3,1,right,A_M_01.jpg,A_F_07.jpg,C_M_09.jpg,right,941.00000000617,true,low,NA,NA,NA,NA,NA,NA,NA,false
xe8BiYlh,3ba7sxog2m30f57lxuc2l92uxdc8rv,32vnztt0abh1joidctrrthigij0r4n,xe8BiYlh,2020-0188,2020-06-04,12:22:01,12:36:13,NA,incomplete,150,gender,3,1,left,A_F_16.jpg,C_F_13.jpg,A_M_05.jpg,left,843.9999999973224,true,low,NA,NA,NA,NA,NA,NA,NA,false
xe8BiYlh,3ba7sxog2m30f57lxuc2l92uxdc8rv,32vnztt0abh1joidctrrthigij0r4n,xe8BiYlh,2020-0188,2020-06-04,12:22:01,12:36:13,NA,incomplete,151,gender,3,0,left,A_M_16.jpg,C_M_12.jpg,A_F_15.jpg,left,913.0000000004657,true,low,NA,NA,NA,NA,NA,NA,NA,false
xe8BiYlh,3ba7sxog2m30f57lxuc2l92uxdc8rv,32vnztt0abh1joidctrrthigij0r4n,xe8BiYlh,2020-0188,2020-06-04,12:22:01,12:36:13,NA,incomplete,152,gender,3,1,left,C_M_12.jpg,A_M_04.jpg,C_F_15.jpg,left,766.0000000032596,true,low,NA,NA,NA,NA,NA,NA,NA,false
xe8BiYlh,3ba7sxog2m30f57lxuc2l92uxdc8rv,32vnztt0abh1joidctrrthigij0r4n,xe8BiYlh,2020-0188,2020-06-04,12:22:01,12:36:13,NA,incomplete,153,gender,3,1,right,A_F_14.jpg,A_M_09.jpg,C_F_03.jpg,right,1247.0000000030268,true,low,NA,NA,NA,NA,NA,NA,NA,false
xe8BiYlh,3ba7sxog2m30f57lxuc2l92uxdc8rv,32vnztt0abh1joidctrrthigij0r4n,xe8BiYlh,2020-0188,2020-06-04,12:22:01,12:36:13,NA,incomplete,154,gender,3,0,right,A_M_11.jpg,A_F_13.jpg,C_M_07.jpg,right,847.9999999981374,true,low,NA,NA,NA,NA,NA,NA,NA,false
xe8BiYlh,3ba7sxog2m30f57lxuc2l92uxdc8rv,32vnztt0abh1joidctrrthigij0r4n,xe8BiYlh,2020-0188,2020-06-04,12:22:01,12:36:13,NA,incomplete,155,gender,3,1,right,C_M_07.jpg,C_F_06.jpg,A_M_01.jpg,right,751.0000000038417,true,low,NA,NA,NA,NA,NA,NA,NA,false
xe8BiYlh,3ba7sxog2m30f57lxuc2l92uxdc8rv,32vnztt0abh1joidctrrthigij0r4n,xe8BiYlh,2020-0188,2020-06-04,12:22:01,12:36:13,NA,incomplete,156,gender,3,1,left,C_F_07.jpg,A_F_13.jpg,C_M_08.jpg,left,868.9999999988358,true,low,NA,NA,NA,NA,NA,NA,NA,false
xe8BiYlh,3ba7sxog2m30f57lxuc2l92uxdc8rv,32vnztt0abh1joidctrrthigij0r4n,xe8BiYlh,2020-0188,2020-06-04,12:22:01,12:36:13,NA,incomplete,157,gender,3,1,left,A_F_08.jpg,C_F_13.jpg,A_M_02.jpg,left,628.000000004191,true,low,NA,NA,NA,NA,NA,NA,NA,false
xe8BiYlh,3ba7sxog2m30f57lxuc2l92uxdc8rv,32vnztt0abh1joidctrrthigij0r4n,xe8BiYlh,2020-0188,2020-06-04,12:22:01,12:36:13,NA,incomplete,158,gender,3,0,right,C_F_15.jpg,C_M_01.jpg,A_F_06.jpg,right,722.0000000015134,true,low,NA,NA,NA,NA,NA,NA,NA,false
xe8BiYlh,3ba7sxog2m30f57lxuc2l92uxdc8rv,32vnztt0abh1joidctrrthigij0r4n,xe8BiYlh,2020-0188,2020-06-04,12:22:01,12:36:13,NA,incomplete,159,gender,3,1,right,A_F_03.jpg,A_M_08.jpg,C_F_09.jpg,right,754.0000000008149,true,low,NA,NA,NA,NA,NA,NA,NA,false
xe8BiYlh,3ba7sxog2m30f57lxuc2l92uxdc8rv,32vnztt0abh1joidctrrthigij0r4n,xe8BiYlh,2020-0188,2020-06-04,12:22:01,12:36:13,NA,incomplete,160,race,2,1,right,C_M_11.jpg,A_M_10.jpg,C_F_15.jpg,left,669.9999999982538,false,low,NA,NA,NA,NA,NA,NA,NA,false
xe8BiYlh,3ba7sxog2m30f57lxuc2l92uxdc8rv,32vnztt0abh1joidctrrthigij0r4n,xe8BiYlh,2020-0188,2020-06-04,12:22:01,12:36:13,NA,incomplete,161,race,2,0,right,A_M_16.jpg,C_M_02.jpg,A_F_15.jpg,left,512.0000000025611,false,low,NA,NA,NA,NA,NA,NA,NA,false
xe8BiYlh,3ba7sxog2m30f57lxuc2l92uxdc8rv,32vnztt0abh1joidctrrthigij0r4n,xe8BiYlh,2020-0188,2020-06-04,12:22:01,12:36:13,NA,incomplete,162,race,2,1,right,A_F_16.jpg,C_F_08.jpg,A_M_01.jpg,left,737.9999999974389,false,low,NA,NA,NA,NA,NA,NA,NA,false
xe8BiYlh,3ba7sxog2m30f57lxuc2l92uxdc8rv,32vnztt0abh1joidctrrthigij0r4n,xe8BiYlh,2020-0188,2020-06-04,12:22:01,12:36:13,NA,incomplete,163,race,2,1,left,C_F_08.jpg,C_M_01.jpg,A_F_09.jpg,right,836.9999999995343,false,low,NA,NA,NA,NA,NA,NA,NA,false
xe8BiYlh,3ba7sxog2m30f57lxuc2l92uxdc8rv,32vnztt0abh1joidctrrthigij0r4n,xe8BiYlh,2020-0188,2020-06-04,12:22:01,12:36:13,NA,incomplete,164,race,2,1,left,C_F_03.jpg,C_M_13.jpg,A_F_10.jpg,left,942.9999999993015,true,low,NA,NA,NA,NA,NA,NA,NA,false
xe8BiYlh,3ba7sxog2m30f57lxuc2l92uxdc8rv,32vnztt0abh1joidctrrthigij0r4n,xe8BiYlh,2020-0188,2020-06-04,12:22:01,12:36:13,NA,incomplete,165,race,2,1,left,C_F_06.jpg,C_M_10.jpg,A_F_09.jpg,right,792.0000000011642,false,low,NA,NA,NA,NA,NA,NA,NA,false
xe8BiYlh,3ba7sxog2m30f57lxuc2l92uxdc8rv,32vnztt0abh1joidctrrthigij0r4n,xe8BiYlh,2020-0188,2020-06-04,12:22:01,12:36:13,NA,incomplete,166,race,2,0,left,A_M_03.jpg,A_F_16.jpg,C_M_02.jpg,left,835.9999999955762,true,low,NA,NA,NA,NA,NA,NA,NA,false
xe8BiYlh,3ba7sxog2m30f57lxuc2l92uxdc8rv,32vnztt0abh1joidctrrthigij0r4n,xe8BiYlh,2020-0188,2020-06-04,12:22:01,12:36:13,NA,incomplete,167,race,2,1,right,A_M_15.jpg,C_M_07.jpg,A_F_12.jpg,right,928.9999999965075,true,low,NA,NA,NA,NA,NA,NA,NA,false
xe8BiYlh,3ba7sxog2m30f57lxuc2l92uxdc8rv,32vnztt0abh1joidctrrthigij0r4n,xe8BiYlh,2020-0188,2020-06-04,12:22:01,12:36:13,NA,incomplete,168,race,2,1,right,C_F_05.jpg,A_F_13.jpg,C_M_08.jpg,left,881.9999999977881,false,low,NA,NA,NA,NA,NA,NA,NA,false
xe8BiYlh,3ba7sxog2m30f57lxuc2l92uxdc8rv,32vnztt0abh1joidctrrthigij0r4n,xe8BiYlh,2020-0188,2020-06-04,12:22:01,12:36:13,NA,incomplete,169,race,2,1,left,C_M_05.jpg,C_F_15.jpg,A_M_14.jpg,left,1241.0000000017462,true,low,NA,NA,NA,NA,NA,NA,NA,false
xe8BiYlh,3ba7sxog2m30f57lxuc2l92uxdc8rv,32vnztt0abh1joidctrrthigij0r4n,xe8BiYlh,2020-0188,2020-06-04,12:22:01,12:36:13,NA,incomplete,170,race,2,0,right,C_M_04.jpg,A_M_01.jpg,C_F_05.jpg,left,924.9999999955762,false,low,NA,NA,NA,NA,NA,NA,NA,false
xe8BiYlh,3ba7sxog2m30f57lxuc2l92uxdc8rv,32vnztt0abh1joidctrrthigij0r4n,xe8BiYlh,2020-0188,2020-06-04,12:22:01,12:36:13,NA,incomplete,171,race,2,1,left,A_M_01.jpg,A_F_15.jpg,C_M_12.jpg,left,1086.9999999995343,true,low,NA,NA,NA,NA,NA,NA,NA,false
xe8BiYlh,3ba7sxog2m30f57lxuc2l92uxdc8rv,32vnztt0abh1joidctrrthigij0r4n,xe8BiYlh,2020-0188,2020-06-04,12:22:01,12:36:13,NA,incomplete,172,race,2,1,right,A_M_03.jpg,C_M_15.jpg,A_F_05.jpg,right,1822.0000000002328,true,low,NA,NA,NA,NA,NA,NA,NA,false
xe8BiYlh,3ba7sxog2m30f57lxuc2l92uxdc8rv,32vnztt0abh1joidctrrthigij0r4n,xe8BiYlh,2020-0188,2020-06-04,12:22:01,12:36:13,NA,incomplete,173,race,2,1,right,A_M_03.jpg,C_M_08.jpg,A_F_11.jpg,right,872.0000000030268,true,low,NA,NA,NA,NA,NA,NA,NA,false
xe8BiYlh,3ba7sxog2m30f57lxuc2l92uxdc8rv,32vnztt0abh1joidctrrthigij0r4n,xe8BiYlh,2020-0188,2020-06-04,12:22:01,12:36:13,NA,incomplete,174,race,2,1,left,A_M_13.jpg,A_F_03.jpg,C_M_11.jpg,left,1268.0000000037253,true,low,NA,NA,NA,NA,NA,NA,NA,false
xe8BiYlh,3ba7sxog2m30f57lxuc2l92uxdc8rv,32vnztt0abh1joidctrrthigij0r4n,xe8BiYlh,2020-0188,2020-06-04,12:22:01,12:36:13,NA,incomplete,175,race,2,1,right,A_M_13.jpg,C_M_15.jpg,A_F_11.jpg,right,1001.0000000038417,true,low,NA,NA,NA,NA,NA,NA,NA,false
xe8BiYlh,3ba7sxog2m30f57lxuc2l92uxdc8rv,32vnztt0abh1joidctrrthigij0r4n,xe8BiYlh,2020-0188,2020-06-04,12:22:01,12:36:13,NA,incomplete,176,race,2,1,left,A_M_10.jpg,A_F_11.jpg,C_M_13.jpg,left,798.0000000025611,true,low,NA,NA,NA,NA,NA,NA,NA,false
xe8BiYlh,3ba7sxog2m30f57lxuc2l92uxdc8rv,32vnztt0abh1joidctrrthigij0r4n,xe8BiYlh,2020-0188,2020-06-04,12:22:01,12:36:13,NA,incomplete,177,race,2,1,right,C_M_12.jpg,A_M_02.jpg,C_F_07.jpg,right,1059.9999999976717,true,low,NA,NA,NA,NA,NA,NA,NA,false
xe8BiYlh,3ba7sxog2m30f57lxuc2l92uxdc8rv,32vnztt0abh1joidctrrthigij0r4n,xe8BiYlh,2020-0188,2020-06-04,12:22:01,12:36:13,NA,incomplete,178,race,2,1,left,C_F_08.jpg,C_M_13.jpg,A_F_02.jpg,left,1105.0000000031432,true,low,NA,NA,NA,NA,NA,NA,NA,false
xe8BiYlh,3ba7sxog2m30f57lxuc2l92uxdc8rv,32vnztt0abh1joidctrrthigij0r4n,xe8BiYlh,2020-0188,2020-06-04,12:22:01,12:36:13,NA,incomplete,179,race,2,1,right,C_F_04.jpg,A_F_02.jpg,C_M_16.jpg,right,1046.0000000020955,true,low,NA,NA,NA,NA,NA,NA,NA,false
xe8BiYlh,3ba7sxog2m30f57lxuc2l92uxdc8rv,32vnztt0abh1joidctrrthigij0r4n,xe8BiYlh,2020-0188,2020-06-04,12:22:01,12:36:13,NA,incomplete,180,gender,3,1,right,C_F_06.jpg,C_M_04.jpg,A_F_10.jpg,left,1254.9999999974389,false,low,NA,NA,NA,NA,NA,NA,NA,false
xe8BiYlh,3ba7sxog2m30f57lxuc2l92uxdc8rv,32vnztt0abh1joidctrrthigij0r4n,xe8BiYlh,2020-0188,2020-06-04,12:22:01,12:36:13,NA,incomplete,181,gender,3,0,right,A_M_08.jpg,A_F_01.jpg,C_M_06.jpg,left,1148.9999999975553,false,low,NA,NA,NA,NA,NA,NA,NA,false
xe8BiYlh,3ba7sxog2m30f57lxuc2l92uxdc8rv,32vnztt0abh1joidctrrthigij0r4n,xe8BiYlh,2020-0188,2020-06-04,12:22:01,12:36:13,NA,incomplete,182,gender,3,1,right,A_F_08.jpg,A_M_14.jpg,C_F_11.jpg,left,864.000000001397,false,low,NA,NA,NA,NA,NA,NA,NA,false
xe8BiYlh,3ba7sxog2m30f57lxuc2l92uxdc8rv,32vnztt0abh1joidctrrthigij0r4n,xe8BiYlh,2020-0188,2020-06-04,12:22:01,12:36:13,NA,incomplete,183,gender,3,1,right,C_M_16.jpg,C_F_12.jpg,A_M_04.jpg,left,1033.9999999996508,false,low,NA,NA,NA,NA,NA,NA,NA,false
xe8BiYlh,3ba7sxog2m30f57lxuc2l92uxdc8rv,32vnztt0abh1joidctrrthigij0r4n,xe8BiYlh,2020-0188,2020-06-04,12:22:01,12:36:13,NA,incomplete,184,gender,3,1,left,A_M_14.jpg,C_M_04.jpg,A_F_01.jpg,left,1394.0000000002328,true,low,NA,NA,NA,NA,NA,NA,NA,false
xe8BiYlh,3ba7sxog2m30f57lxuc2l92uxdc8rv,32vnztt0abh1joidctrrthigij0r4n,xe8BiYlh,2020-0188,2020-06-04,12:22:01,12:36:13,NA,incomplete,185,gender,3,1,right,A_M_11.jpg,A_F_06.jpg,C_M_10.jpg,right,968.9999999974389,true,low,NA,NA,NA,NA,NA,NA,NA,false
xe8BiYlh,3ba7sxog2m30f57lxuc2l92uxdc8rv,32vnztt0abh1joidctrrthigij0r4n,xe8BiYlh,2020-0188,2020-06-04,12:22:01,12:36:13,NA,incomplete,186,gender,3,1,left,A_F_03.jpg,C_F_07.jpg,A_M_11.jpg,left,757.0000000050059,true,low,NA,NA,NA,NA,NA,NA,NA,false
xe8BiYlh,3ba7sxog2m30f57lxuc2l92uxdc8rv,32vnztt0abh1joidctrrthigij0r4n,xe8BiYlh,2020-0188,2020-06-04,12:22:01,12:36:13,NA,incomplete,187,gender,3,1,right,A_M_15.jpg,A_F_06.jpg,C_M_07.jpg,right,925.9999999994179,true,low,NA,NA,NA,NA,NA,NA,NA,false
xe8BiYlh,3ba7sxog2m30f57lxuc2l92uxdc8rv,32vnztt0abh1joidctrrthigij0r4n,xe8BiYlh,2020-0188,2020-06-04,12:22:01,12:36:13,NA,incomplete,188,gender,3,0,right,A_F_04.jpg,A_M_14.jpg,C_F_10.jpg,right,904.0000000022119,true,low,NA,NA,NA,NA,NA,NA,NA,false
xe8BiYlh,3ba7sxog2m30f57lxuc2l92uxdc8rv,32vnztt0abh1joidctrrthigij0r4n,xe8BiYlh,2020-0188,2020-06-04,12:22:01,12:36:13,NA,incomplete,189,gender,3,1,right,A_M_07.jpg,A_F_04.jpg,C_M_03.jpg,right,824.0000000004657,true,low,NA,NA,NA,NA,NA,NA,NA,false
xe8BiYlh,3ba7sxog2m30f57lxuc2l92uxdc8rv,32vnztt0abh1joidctrrthigij0r4n,xe8BiYlh,2020-0188,2020-06-04,12:22:01,12:36:13,NA,incomplete,190,gender,3,1,left,A_F_14.jpg,C_F_08.jpg,A_M_03.jpg,left,864.000000001397,true,low,NA,NA,NA,NA,NA,NA,NA,false
xe8BiYlh,3ba7sxog2m30f57lxuc2l92uxdc8rv,32vnztt0abh1joidctrrthigij0r4n,xe8BiYlh,2020-0188,2020-06-04,12:22:01,12:36:13,NA,incomplete,191,gender,3,1,left,C_M_12.jpg,A_M_07.jpg,C_F_01.jpg,left,675.9999999995343,true,low,NA,NA,NA,NA,NA,NA,NA,false
xe8BiYlh,3ba7sxog2m30f57lxuc2l92uxdc8rv,32vnztt0abh1joidctrrthigij0r4n,xe8BiYlh,2020-0188,2020-06-04,12:22:01,12:36:13,NA,incomplete,192,gender,3,1,right,C_M_14.jpg,C_F_05.jpg,A_M_11.jpg,right,718.0000000008149,true,low,NA,NA,NA,NA,NA,NA,NA,false
xe8BiYlh,3ba7sxog2m30f57lxuc2l92uxdc8rv,32vnztt0abh1joidctrrthigij0r4n,xe8BiYlh,2020-0188,2020-06-04,12:22:01,12:36:13,NA,incomplete,193,gender,3,0,right,C_F_15.jpg,C_M_13.jpg,A_F_01.jpg,right,1074.9999999970896,true,low,NA,NA,NA,NA,NA,NA,NA,false
xe8BiYlh,3ba7sxog2m30f57lxuc2l92uxdc8rv,32vnztt0abh1joidctrrthigij0r4n,xe8BiYlh,2020-0188,2020-06-04,12:22:01,12:36:13,NA,incomplete,194,gender,3,1,left,A_M_11.jpg,C_M_15.jpg,A_F_04.jpg,left,705.9999999982538,true,low,NA,NA,NA,NA,NA,NA,NA,false
xe8BiYlh,3ba7sxog2m30f57lxuc2l92uxdc8rv,32vnztt0abh1joidctrrthigij0r4n,xe8BiYlh,2020-0188,2020-06-04,12:22:01,12:36:13,NA,incomplete,195,gender,3,1,right,C_F_16.jpg,C_M_03.jpg,A_F_04.jpg,none,0,false,low,NA,NA,NA,NA,NA,NA,NA,false
xe8BiYlh,3ba7sxog2m30f57lxuc2l92uxdc8rv,32vnztt0abh1joidctrrthigij0r4n,xe8BiYlh,2020-0188,2020-06-04,12:22:01,12:36:13,NA,incomplete,196,gender,3,1,left,C_M_14.jpg,A_M_15.jpg,C_F_04.jpg,left,649.9999999941792,true,low,NA,NA,NA,NA,NA,NA,NA,false
xe8BiYlh,3ba7sxog2m30f57lxuc2l92uxdc8rv,32vnztt0abh1joidctrrthigij0r4n,xe8BiYlh,2020-0188,2020-06-04,12:22:01,12:36:13,NA,incomplete,197,gender,3,1,right,A_F_14.jpg,A_M_11.jpg,C_F_15.jpg,right,536,true,low,NA,NA,NA,NA,NA,NA,NA,false
xe8BiYlh,3ba7sxog2m30f57lxuc2l92uxdc8rv,32vnztt0abh1joidctrrthigij0r4n,xe8BiYlh,2020-0188,2020-06-04,12:22:01,12:36:13,NA,incomplete,198,gender,3,1,left,C_M_03.jpg,A_M_01.jpg,C_F_07.jpg,left,589.9999999965075,true,low,NA,NA,NA,NA,NA,NA,NA,false
xe8BiYlh,3ba7sxog2m30f57lxuc2l92uxdc8rv,32vnztt0abh1joidctrrthigij0r4n,xe8BiYlh,2020-0188,2020-06-04,12:22:01,12:36:13,NA,incomplete,199,gender,3,0,left,C_M_15.jpg,A_M_06.jpg,C_F_08.jpg,left,561.000000001397,true,low,NA,NA,NA,NA,NA,NA,NA,false
xe8BiYlh,3ba7sxog2m30f57lxuc2l92uxdc8rv,32vnztt0abh1joidctrrthigij0r4n,xe8BiYlh,2020-0188,2020-06-04,12:22:01,12:36:13,NA,incomplete,200,race,2,1,right,C_M_13.jpg,A_M_09.jpg,C_F_12.jpg,left,612.0000000009313,false,low,NA,NA,NA,NA,NA,NA,NA,false
xe8BiYlh,3ba7sxog2m30f57lxuc2l92uxdc8rv,32vnztt0abh1joidctrrthigij0r4n,xe8BiYlh,2020-0188,2020-06-04,12:22:01,12:36:13,NA,incomplete,201,race,2,1,left,A_F_12.jpg,A_M_05.jpg,C_F_01.jpg,left,902.9999999984866,true,low,NA,NA,NA,NA,NA,NA,NA,false
xe8BiYlh,3ba7sxog2m30f57lxuc2l92uxdc8rv,32vnztt0abh1joidctrrthigij0r4n,xe8BiYlh,2020-0188,2020-06-04,12:22:01,12:36:13,NA,incomplete,202,race,2,0,right,C_M_05.jpg,A_M_07.jpg,C_F_06.jpg,right,948.0000000039581,true,low,NA,NA,NA,NA,NA,NA,NA,false
xe8BiYlh,3ba7sxog2m30f57lxuc2l92uxdc8rv,32vnztt0abh1joidctrrthigij0r4n,xe8BiYlh,2020-0188,2020-06-04,12:22:01,12:36:13,NA,incomplete,203,race,2,1,right,A_F_13.jpg,C_F_04.jpg,A_M_07.jpg,right,1116.9999999983702,true,low,NA,NA,NA,NA,NA,NA,NA,false
xe8BiYlh,3ba7sxog2m30f57lxuc2l92uxdc8rv,32vnztt0abh1joidctrrthigij0r4n,xe8BiYlh,2020-0188,2020-06-04,12:22:01,12:36:13,NA,incomplete,204,race,2,1,left,C_M_06.jpg,C_F_10.jpg,A_M_11.jpg,left,1012.9999999989523,true,low,NA,NA,NA,NA,NA,NA,NA,false
xe8BiYlh,3ba7sxog2m30f57lxuc2l92uxdc8rv,32vnztt0abh1joidctrrthigij0r4n,xe8BiYlh,2020-0188,2020-06-04,12:22:01,12:36:13,NA,incomplete,205,race,2,1,left,A_F_08.jpg,A_M_07.jpg,C_F_09.jpg,left,883.9999999981374,true,low,NA,NA,NA,NA,NA,NA,NA,false
xe8BiYlh,3ba7sxog2m30f57lxuc2l92uxdc8rv,32vnztt0abh1joidctrrthigij0r4n,xe8BiYlh,2020-0188,2020-06-04,12:22:01,12:36:13,NA,incomplete,206,race,2,1,right,C_F_04.jpg,A_F_10.jpg,C_M_01.jpg,right,932.0000000006985,true,low,NA,NA,NA,NA,NA,NA,NA,false
xe8BiYlh,3ba7sxog2m30f57lxuc2l92uxdc8rv,32vnztt0abh1joidctrrthigij0r4n,xe8BiYlh,2020-0188,2020-06-04,12:22:01,12:36:13,NA,incomplete,207,race,2,0,left,A_F_07.jpg,A_M_11.jpg,C_F_03.jpg,left,849.9999999984866,true,low,NA,NA,NA,NA,NA,NA,NA,false
xe8BiYlh,3ba7sxog2m30f57lxuc2l92uxdc8rv,32vnztt0abh1joidctrrthigij0r4n,xe8BiYlh,2020-0188,2020-06-04,12:22:01,12:36:13,NA,incomplete,208,race,2,1,right,A_F_02.jpg,C_F_04.jpg,A_M_12.jpg,right,803,true,low,NA,NA,NA,NA,NA,NA,NA,false
xe8BiYlh,3ba7sxog2m30f57lxuc2l92uxdc8rv,32vnztt0abh1joidctrrthigij0r4n,xe8BiYlh,2020-0188,2020-06-04,12:22:01,12:36:13,NA,incomplete,209,race,2,1,right,C_F_10.jpg,A_F_06.jpg,C_M_05.jpg,left,844.0000000046566,false,low,NA,NA,NA,NA,NA,NA,NA,false
xe8BiYlh,3ba7sxog2m30f57lxuc2l92uxdc8rv,32vnztt0abh1joidctrrthigij0r4n,xe8BiYlh,2020-0188,2020-06-04,12:22:01,12:36:13,NA,incomplete,210,race,2,1,right,A_F_05.jpg,C_F_06.jpg,A_M_03.jpg,right,1171.0000000020955,true,low,NA,NA,NA,NA,NA,NA,NA,false
xe8BiYlh,3ba7sxog2m30f57lxuc2l92uxdc8rv,32vnztt0abh1joidctrrthigij0r4n,xe8BiYlh,2020-0188,2020-06-04,12:22:01,12:36:13,NA,incomplete,211,race,2,1,left,C_F_14.jpg,C_M_16.jpg,A_F_07.jpg,left,1317.9999999993015,true,low,NA,NA,NA,NA,NA,NA,NA,false
xe8BiYlh,3ba7sxog2m30f57lxuc2l92uxdc8rv,32vnztt0abh1joidctrrthigij0r4n,xe8BiYlh,2020-0188,2020-06-04,12:22:01,12:36:13,NA,incomplete,212,race,2,1,right,C_M_15.jpg,A_M_05.jpg,C_F_11.jpg,right,1650.0000000015134,true,low,NA,NA,NA,NA,NA,NA,NA,false
xe8BiYlh,3ba7sxog2m30f57lxuc2l92uxdc8rv,32vnztt0abh1joidctrrthigij0r4n,xe8BiYlh,2020-0188,2020-06-04,12:22:01,12:36:13,NA,incomplete,213,race,2,1,left,A_M_05.jpg,A_F_16.jpg,C_M_14.jpg,left,987.0000000010477,true,low,NA,NA,NA,NA,NA,NA,NA,false
xe8BiYlh,3ba7sxog2m30f57lxuc2l92uxdc8rv,32vnztt0abh1joidctrrthigij0r4n,xe8BiYlh,2020-0188,2020-06-04,12:22:01,12:36:13,NA,incomplete,214,race,2,0,right,C_F_06.jpg,A_F_16.jpg,C_M_12.jpg,right,1096.9999999941792,true,low,NA,NA,NA,NA,NA,NA,NA,false
xe8BiYlh,3ba7sxog2m30f57lxuc2l92uxdc8rv,32vnztt0abh1joidctrrthigij0r4n,xe8BiYlh,2020-0188,2020-06-04,12:22:01,12:36:13,NA,incomplete,215,race,2,1,left,A_F_11.jpg,A_M_06.jpg,C_F_08.jpg,left,970.9999999976717,true,low,NA,NA,NA,NA,NA,NA,NA,false
xe8BiYlh,3ba7sxog2m30f57lxuc2l92uxdc8rv,32vnztt0abh1joidctrrthigij0r4n,xe8BiYlh,2020-0188,2020-06-04,12:22:01,12:36:13,NA,incomplete,216,race,2,1,right,A_M_12.jpg,C_M_13.jpg,A_F_15.jpg,right,938.9999999984866,true,low,NA,NA,NA,NA,NA,NA,NA,false
xe8BiYlh,3ba7sxog2m30f57lxuc2l92uxdc8rv,32vnztt0abh1joidctrrthigij0r4n,xe8BiYlh,2020-0188,2020-06-04,12:22:01,12:36:13,NA,incomplete,217,race,2,0,left,A_F_07.jpg,A_M_12.jpg,C_F_04.jpg,left,747.0000000030268,true,low,NA,NA,NA,NA,NA,NA,NA,false
xe8BiYlh,3ba7sxog2m30f57lxuc2l92uxdc8rv,32vnztt0abh1joidctrrthigij0r4n,xe8BiYlh,2020-0188,2020-06-04,12:22:01,12:36:13,NA,incomplete,218,race,2,1,left,C_F_02.jpg,C_M_15.jpg,A_F_08.jpg,left,887.9999999990687,true,low,NA,NA,NA,NA,NA,NA,NA,false
xe8BiYlh,3ba7sxog2m30f57lxuc2l92uxdc8rv,32vnztt0abh1joidctrrthigij0r4n,xe8BiYlh,2020-0188,2020-06-04,12:22:01,12:36:13,NA,incomplete,219,race,2,0,left,A_F_16.jpg,A_M_03.jpg,C_F_04.jpg,left,978.9999999993015,true,low,NA,NA,NA,NA,NA,NA,NA,false
xe8BiYlh,3ba7sxog2m30f57lxuc2l92uxdc8rv,32vnztt0abh1joidctrrthigij0r4n,xe8BiYlh,2020-0188,2020-06-04,12:22:01,12:36:13,NA,incomplete,220,gender,3,1,left,A_F_13.jpg,C_F_04.jpg,A_M_15.jpg,left,709.9999999991851,true,low,NA,NA,NA,NA,NA,NA,NA,false
xe8BiYlh,3ba7sxog2m30f57lxuc2l92uxdc8rv,32vnztt0abh1joidctrrthigij0r4n,xe8BiYlh,2020-0188,2020-06-04,12:22:01,12:36:13,NA,incomplete,221,gender,3,1,left,A_M_07.jpg,C_M_13.jpg,A_F_03.jpg,left,866.0000000017462,true,low,NA,NA,NA,NA,NA,NA,NA,false
xe8BiYlh,3ba7sxog2m30f57lxuc2l92uxdc8rv,32vnztt0abh1joidctrrthigij0r4n,xe8BiYlh,2020-0188,2020-06-04,12:22:01,12:36:13,NA,incomplete,222,gender,3,1,right,A_M_09.jpg,A_F_15.jpg,C_M_13.jpg,right,1016.9999999997672,true,low,NA,NA,NA,NA,NA,NA,NA,false
xe8BiYlh,3ba7sxog2m30f57lxuc2l92uxdc8rv,32vnztt0abh1joidctrrthigij0r4n,xe8BiYlh,2020-0188,2020-06-04,12:22:01,12:36:13,NA,incomplete,223,gender,3,1,right,A_F_14.jpg,A_M_11.jpg,C_F_13.jpg,left,977.9999999955762,false,low,NA,NA,NA,NA,NA,NA,NA,false
xe8BiYlh,3ba7sxog2m30f57lxuc2l92uxdc8rv,32vnztt0abh1joidctrrthigij0r4n,xe8BiYlh,2020-0188,2020-06-04,12:22:01,12:36:13,NA,incomplete,224,gender,3,0,right,C_F_16.jpg,C_M_02.jpg,A_F_05.jpg,right,788.0000000004657,true,low,NA,NA,NA,NA,NA,NA,NA,false
xe8BiYlh,3ba7sxog2m30f57lxuc2l92uxdc8rv,32vnztt0abh1joidctrrthigij0r4n,xe8BiYlh,2020-0188,2020-06-04,12:22:01,12:36:13,NA,incomplete,225,gender,3,1,left,A_F_15.jpg,C_F_03.jpg,A_M_07.jpg,left,733.9999999967404,true,low,NA,NA,NA,NA,NA,NA,NA,false
xe8BiYlh,3ba7sxog2m30f57lxuc2l92uxdc8rv,32vnztt0abh1joidctrrthigij0r4n,xe8BiYlh,2020-0188,2020-06-04,12:22:01,12:36:13,NA,incomplete,226,gender,3,0,left,C_F_09.jpg,A_F_05.jpg,C_M_08.jpg,left,718.9999999973224,true,low,NA,NA,NA,NA,NA,NA,NA,false
xe8BiYlh,3ba7sxog2m30f57lxuc2l92uxdc8rv,32vnztt0abh1joidctrrthigij0r4n,xe8BiYlh,2020-0188,2020-06-04,12:22:01,12:36:13,NA,incomplete,227,gender,3,1,right,A_M_15.jpg,A_F_06.jpg,C_M_02.jpg,left,919.9999999983702,false,low,NA,NA,NA,NA,NA,NA,NA,false
xe8BiYlh,3ba7sxog2m30f57lxuc2l92uxdc8rv,32vnztt0abh1joidctrrthigij0r4n,xe8BiYlh,2020-0188,2020-06-04,12:22:01,12:36:13,NA,incomplete,228,gender,3,1,left,A_F_06.jpg,C_F_05.jpg,A_M_09.jpg,left,1222.0000000015134,true,low,NA,NA,NA,NA,NA,NA,NA,false
xe8BiYlh,3ba7sxog2m30f57lxuc2l92uxdc8rv,32vnztt0abh1joidctrrthigij0r4n,xe8BiYlh,2020-0188,2020-06-04,12:22:01,12:36:13,NA,incomplete,229,gender,3,1,left,C_M_13.jpg,A_M_02.jpg,C_F_03.jpg,left,919.9999999982538,true,low,NA,NA,NA,NA,NA,NA,NA,false
xe8BiYlh,3ba7sxog2m30f57lxuc2l92uxdc8rv,32vnztt0abh1joidctrrthigij0r4n,xe8BiYlh,2020-0188,2020-06-04,12:22:01,12:36:13,NA,incomplete,230,gender,3,1,right,C_F_02.jpg,C_M_10.jpg,A_F_06.jpg,right,786.999999996624,true,low,NA,NA,NA,NA,NA,NA,NA,false
xe8BiYlh,3ba7sxog2m30f57lxuc2l92uxdc8rv,32vnztt0abh1joidctrrthigij0r4n,xe8BiYlh,2020-0188,2020-06-04,12:22:01,12:36:13,NA,incomplete,231,gender,3,1,left,C_F_09.jpg,A_F_03.jpg,C_M_10.jpg,left,617.0000000057044,true,low,NA,NA,NA,NA,NA,NA,NA,false
xe8BiYlh,3ba7sxog2m30f57lxuc2l92uxdc8rv,32vnztt0abh1joidctrrthigij0r4n,xe8BiYlh,2020-0188,2020-06-04,12:22:01,12:36:13,NA,incomplete,232,gender,3,0,right,C_M_10.jpg,C_F_08.jpg,A_M_09.jpg,right,722.0000000015134,true,low,NA,NA,NA,NA,NA,NA,NA,false
xe8BiYlh,3ba7sxog2m30f57lxuc2l92uxdc8rv,32vnztt0abh1joidctrrthigij0r4n,xe8BiYlh,2020-0188,2020-06-04,12:22:01,12:36:13,NA,incomplete,233,gender,3,1,left,C_F_10.jpg,A_F_16.jpg,C_M_08.jpg,left,639.9999999994179,true,low,NA,NA,NA,NA,NA,NA,NA,false
xe8BiYlh,3ba7sxog2m30f57lxuc2l92uxdc8rv,32vnztt0abh1joidctrrthigij0r4n,xe8BiYlh,2020-0188,2020-06-04,12:22:01,12:36:13,NA,incomplete,234,gender,3,1,left,C_M_12.jpg,A_M_06.jpg,C_F_14.jpg,left,716.0000000003492,true,low,NA,NA,NA,NA,NA,NA,NA,false
xe8BiYlh,3ba7sxog2m30f57lxuc2l92uxdc8rv,32vnztt0abh1joidctrrthigij0r4n,xe8BiYlh,2020-0188,2020-06-04,12:22:01,12:36:13,NA,incomplete,235,gender,3,1,right,A_F_11.jpg,A_M_06.jpg,C_F_02.jpg,right,817.000000002794,true,low,NA,NA,NA,NA,NA,NA,NA,false
xe8BiYlh,3ba7sxog2m30f57lxuc2l92uxdc8rv,32vnztt0abh1joidctrrthigij0r4n,xe8BiYlh,2020-0188,2020-06-04,12:22:01,12:36:13,NA,incomplete,236,gender,3,0,left,C_M_08.jpg,A_M_05.jpg,C_F_11.jpg,left,588.000000003376,true,low,NA,NA,NA,NA,NA,NA,NA,false
xe8BiYlh,3ba7sxog2m30f57lxuc2l92uxdc8rv,32vnztt0abh1joidctrrthigij0r4n,xe8BiYlh,2020-0188,2020-06-04,12:22:01,12:36:13,NA,incomplete,237,gender,3,1,left,A_M_07.jpg,C_M_08.jpg,A_F_13.jpg,left,648.0000000010477,true,low,NA,NA,NA,NA,NA,NA,NA,false
xe8BiYlh,3ba7sxog2m30f57lxuc2l92uxdc8rv,32vnztt0abh1joidctrrthigij0r4n,xe8BiYlh,2020-0188,2020-06-04,12:22:01,12:36:13,NA,incomplete,238,gender,3,1,left,C_M_15.jpg,A_M_06.jpg,C_F_14.jpg,left,701.0000000009313,true,low,NA,NA,NA,NA,NA,NA,NA,false
xe8BiYlh,3ba7sxog2m30f57lxuc2l92uxdc8rv,32vnztt0abh1joidctrrthigij0r4n,xe8BiYlh,2020-0188,2020-06-04,12:22:01,12:36:13,NA,incomplete,239,gender,3,1,right,C_M_08.jpg,C_F_16.jpg,A_M_15.jpg,right,938.9999999983702,true,low,NA,NA,NA,NA,NA,NA,NA,false
xe8BiYlh,3ba7sxog2m30f57lxuc2l92uxdc8rv,32vnztt0abh1joidctrrthigij0r4n,xe8BiYlh,2020-0188,2020-06-04,12:22:01,12:36:13,NA,NA,instruction example,color,NA,NA,NA,Blue_Plus_Grid_4.jpg,Blue_Circle_Stripes_2.jpg,Green_Star_Grid_1.jpg,NA,NA,NA,NA,NA,NA,NA,NA,NA,NA,NA,undefined
xe8BiYlh,3ba7sxog2m30f57lxuc2l92uxdc8rv,32vnztt0abh1joidctrrthigij0r4n,xe8BiYlh,2020-0188,2020-06-04,12:22:01,12:36:13,NA,NA,instruction example,color,NA,NA,NA,Blue_Plus_Chess_4.jpg,Purple_Circle_Chess_1.jpg,Blue_Triangle_Stripes_2.jpg,NA,NA,NA,NA,NA,NA,NA,NA,NA,NA,NA,undefined
xe8BiYlh,3ba7sxog2m30f57lxuc2l92uxdc8rv,32vnztt0abh1joidctrrthigij0r4n,xe8BiYlh,2020-0188,2020-06-04,12:22:01,12:36:13,NA,NA,instruction example,color,NA,NA,NA,C_M_04.jpg,C_F_07.jpg,A_M_11.jpg,NA,NA,NA,NA,NA,NA,NA,NA,NA,NA,NA,undefined
xe8BiYlh,3ba7sxog2m30f57lxuc2l92uxdc8rv,32vnztt0abh1joidctrrthigij0r4n,xe8BiYlh,2020-0188,2020-06-04,12:22:01,12:36:13,NA,NA,instruction example,color,NA,NA,NA,C_M_16.jpg,A_M_07.jpg,C_F_01.jpg,NA,NA,NA,NA,NA,NA,NA,NA,NA,NA,NA,undefined
xe8BiYlh,3ba7sxog2m30f57lxuc2l92uxdc8rv,32vnztt0abh1joidctrrthigij0r4n,xe8BiYlh,2020-0188,2020-06-04,12:22:01,12:36:13,816758.9999999981,852736.9999999937,NA,NA,NA,NA,NA,NA,NA,NA,NA,NA,NA,NA,34,Black/African American,Female,African American,no,no,no,undefined
