workerId,hitId,assignmentId,subject,studyid,exp_date,exp_start,exp_end,time_start,time_end,trial,type,sequence,reward_validity,answer,image_top,image_left,image_right,response,response_time,response_acc,volatility,age,race,gender,ethnicity,color,vision,neuro,practice
foC1wnQc,3pgqrazx15xrvqygpna1awvsi04ysb,32z9zlut1pxsynesz8u6tbmg8cxohc,foC1wnQc,2020-0188,2020-11-16,19:25:04,19:40:39,NA,incomplete,0,color,0,1,right,Green_Circle_Stripes_4.jpg,Red_Plus_Stripes_2.jpg,Green_Triangle_Dots_1.jpg,right,1904.3999999994412,true,NA,NA,NA,NA,NA,NA,NA,NA,true
foC1wnQc,3pgqrazx15xrvqygpna1awvsi04ysb,32z9zlut1pxsynesz8u6tbmg8cxohc,foC1wnQc,2020-0188,2020-11-16,19:25:04,19:40:39,NA,incomplete,1,color,0,1,left,Blue_Plus_Dots_3.jpg,Blue_Circle_Grid_4.jpg,Purple_Star_Dots_2.jpg,left,925.1700000022538,true,NA,NA,NA,NA,NA,NA,NA,NA,true
foC1wnQc,3pgqrazx15xrvqygpna1awvsi04ysb,32z9zlut1pxsynesz8u6tbmg8cxohc,foC1wnQc,2020-0188,2020-11-16,19:25:04,19:40:39,NA,incomplete,2,color,0,1,right,Red_Star_Stripes_3.jpg,Purple_Triangle_Stripes_1.jpg,Red_Plus_Grid_2.jpg,right,685.7949999975972,true,NA,NA,NA,NA,NA,NA,NA,NA,true
foC1wnQc,3pgqrazx15xrvqygpna1awvsi04ysb,32z9zlut1pxsynesz8u6tbmg8cxohc,foC1wnQc,2020-0188,2020-11-16,19:25:04,19:40:39,NA,incomplete,3,color,0,1,right,Blue_Circle_Dots_4.jpg,Purple_Plus_Dots_2.jpg,Blue_Star_Grid_1.jpg,right,626.5549999952782,true,NA,NA,NA,NA,NA,NA,NA,NA,true
foC1wnQc,3pgqrazx15xrvqygpna1awvsi04ysb,32z9zlut1pxsynesz8u6tbmg8cxohc,foC1wnQc,2020-0188,2020-11-16,19:25:04,19:40:39,NA,incomplete,4,color,0,1,left,Green_Triangle_Grid_2.jpg,Green_Plus_Chess_4.jpg,Red_Circle_Grid_1.jpg,left,994.3649999986519,true,NA,NA,NA,NA,NA,NA,NA,NA,true
foC1wnQc,3pgqrazx15xrvqygpna1awvsi04ysb,32z9zlut1pxsynesz8u6tbmg8cxohc,foC1wnQc,2020-0188,2020-11-16,19:25:04,19:40:39,NA,incomplete,5,color,0,0,right,Green_Star_Stripes_2.jpg,Blue_Plus_Stripes_4.jpg,Green_Circle_Chess_1.jpg,right,861.4600000000792,true,NA,NA,NA,NA,NA,NA,NA,NA,true
foC1wnQc,3pgqrazx15xrvqygpna1awvsi04ysb,32z9zlut1pxsynesz8u6tbmg8cxohc,foC1wnQc,2020-0188,2020-11-16,19:25:04,19:40:39,NA,incomplete,6,color,0,1,left,Blue_Plus_Dots_2.jpg,Blue_Star_Chess_1.jpg,Purple_Circle_Dots_4.jpg,left,1195.464999997057,true,NA,NA,NA,NA,NA,NA,NA,NA,true
foC1wnQc,3pgqrazx15xrvqygpna1awvsi04ysb,32z9zlut1pxsynesz8u6tbmg8cxohc,foC1wnQc,2020-0188,2020-11-16,19:25:04,19:40:39,NA,incomplete,7,color,0,1,left,Purple_Triangle_Chess_1.jpg,Purple_Plus_Stripes_2.jpg,Green_Star_Chess_3.jpg,left,941.820000000007,true,NA,NA,NA,NA,NA,NA,NA,NA,true
foC1wnQc,3pgqrazx15xrvqygpna1awvsi04ysb,32z9zlut1pxsynesz8u6tbmg8cxohc,foC1wnQc,2020-0188,2020-11-16,19:25:04,19:40:39,NA,incomplete,8,color,0,1,left,Purple_Triangle_Stripes_1.jpg,Purple_Star_Dots_3.jpg,Red_Plus_Stripes_4.jpg,left,824.7699999992619,true,NA,NA,NA,NA,NA,NA,NA,NA,true
foC1wnQc,3pgqrazx15xrvqygpna1awvsi04ysb,32z9zlut1pxsynesz8u6tbmg8cxohc,foC1wnQc,2020-0188,2020-11-16,19:25:04,19:40:39,NA,incomplete,9,color,0,1,right,Green_Plus_Chess_3.jpg,Red_Circle_Chess_1.jpg,Green_Star_Grid_4.jpg,right,607.8049999996438,true,NA,NA,NA,NA,NA,NA,NA,NA,true
foC1wnQc,3pgqrazx15xrvqygpna1awvsi04ysb,32z9zlut1pxsynesz8u6tbmg8cxohc,foC1wnQc,2020-0188,2020-11-16,19:25:04,19:40:39,NA,incomplete,10,color,0,1,left,Red_Star_Grid_4.jpg,Red_Triangle_Dots_2.jpg,Blue_Plus_Grid_1.jpg,left,648.0300000039279,true,NA,NA,NA,NA,NA,NA,NA,NA,true
foC1wnQc,3pgqrazx15xrvqygpna1awvsi04ysb,32z9zlut1pxsynesz8u6tbmg8cxohc,foC1wnQc,2020-0188,2020-11-16,19:25:04,19:40:39,NA,incomplete,11,color,0,1,left,Purple_Triangle_Dots_2.jpg,Purple_Circle_Stripes_1.jpg,Blue_Star_Dots_4.jpg,left,1031.8249999982072,true,NA,NA,NA,NA,NA,NA,NA,NA,true
foC1wnQc,3pgqrazx15xrvqygpna1awvsi04ysb,32z9zlut1pxsynesz8u6tbmg8cxohc,foC1wnQc,2020-0188,2020-11-16,19:25:04,19:40:39,NA,incomplete,12,color,0,0,left,Green_Triangle_Grid_3.jpg,Green_Star_Chess_4.jpg,Blue_Plus_Grid_1.jpg,left,669.5650000037858,true,NA,NA,NA,NA,NA,NA,NA,NA,true
foC1wnQc,3pgqrazx15xrvqygpna1awvsi04ysb,32z9zlut1pxsynesz8u6tbmg8cxohc,foC1wnQc,2020-0188,2020-11-16,19:25:04,19:40:39,NA,incomplete,13,color,0,1,left,Green_Star_Dots_2.jpg,Green_Triangle_Stripes_3.jpg,Blue_Plus_Dots_4.jpg,left,764.5150000025751,true,NA,NA,NA,NA,NA,NA,NA,NA,true
foC1wnQc,3pgqrazx15xrvqygpna1awvsi04ysb,32z9zlut1pxsynesz8u6tbmg8cxohc,foC1wnQc,2020-0188,2020-11-16,19:25:04,19:40:39,NA,incomplete,14,color,0,1,right,Purple_Circle_Grid_2.jpg,Blue_Triangle_Grid_3.jpg,Purple_Plus_Chess_1.jpg,right,693.7400000024354,true,NA,NA,NA,NA,NA,NA,NA,NA,true
foC1wnQc,3pgqrazx15xrvqygpna1awvsi04ysb,32z9zlut1pxsynesz8u6tbmg8cxohc,foC1wnQc,2020-0188,2020-11-16,19:25:04,19:40:39,NA,incomplete,15,color,0,1,right,Green_Star_Stripes_2.jpg,Red_Circle_Stripes_4.jpg,Green_Triangle_Dots_3.jpg,right,574.6650000000955,true,NA,NA,NA,NA,NA,NA,NA,NA,true
foC1wnQc,3pgqrazx15xrvqygpna1awvsi04ysb,32z9zlut1pxsynesz8u6tbmg8cxohc,foC1wnQc,2020-0188,2020-11-16,19:25:04,19:40:39,NA,incomplete,16,color,0,0,right,Red_Plus_Chess_3.jpg,Green_Triangle_Chess_4.jpg,Red_Star_Dots_1.jpg,right,761.1749999996391,true,NA,NA,NA,NA,NA,NA,NA,NA,true
foC1wnQc,3pgqrazx15xrvqygpna1awvsi04ysb,32z9zlut1pxsynesz8u6tbmg8cxohc,foC1wnQc,2020-0188,2020-11-16,19:25:04,19:40:39,NA,incomplete,17,color,0,1,right,Red_Circle_Stripes_1.jpg,Blue_Triangle_Stripes_3.jpg,Red_Plus_Chess_2.jpg,right,1056.7050000026939,true,NA,NA,NA,NA,NA,NA,NA,NA,true
foC1wnQc,3pgqrazx15xrvqygpna1awvsi04ysb,32z9zlut1pxsynesz8u6tbmg8cxohc,foC1wnQc,2020-0188,2020-11-16,19:25:04,19:40:39,NA,incomplete,18,color,0,1,right,Purple_Plus_Grid_4.jpg,Red_Star_Grid_3.jpg,Purple_Triangle_Stripes_1.jpg,right,895.2399999980116,true,NA,NA,NA,NA,NA,NA,NA,NA,true
foC1wnQc,3pgqrazx15xrvqygpna1awvsi04ysb,32z9zlut1pxsynesz8u6tbmg8cxohc,foC1wnQc,2020-0188,2020-11-16,19:25:04,19:40:39,NA,incomplete,19,color,0,1,left,Green_Circle_Chess_2.jpg,Green_Plus_Dots_3.jpg,Purple_Star_Chess_4.jpg,left,702.9750000001513,true,NA,NA,NA,NA,NA,NA,NA,NA,true
foC1wnQc,3pgqrazx15xrvqygpna1awvsi04ysb,32z9zlut1pxsynesz8u6tbmg8cxohc,foC1wnQc,2020-0188,2020-11-16,19:25:04,19:40:39,NA,incomplete,20,filling,1,1,right,Blue_Star_Stripes_4.jpg,Blue_Triangle_Grid_2.jpg,Green_Plus_Stripes_3.jpg,left,540.6299999958719,false,NA,NA,NA,NA,NA,NA,NA,NA,true
foC1wnQc,3pgqrazx15xrvqygpna1awvsi04ysb,32z9zlut1pxsynesz8u6tbmg8cxohc,foC1wnQc,2020-0188,2020-11-16,19:25:04,19:40:39,NA,incomplete,21,filling,1,0,left,Purple_Star_Chess_1.jpg,Blue_Circle_Chess_3.jpg,Purple_Triangle_Stripes_2.jpg,right,625.5850000015926,false,NA,NA,NA,NA,NA,NA,NA,NA,true
foC1wnQc,3pgqrazx15xrvqygpna1awvsi04ysb,32z9zlut1pxsynesz8u6tbmg8cxohc,foC1wnQc,2020-0188,2020-11-16,19:25:04,19:40:39,NA,incomplete,22,filling,1,1,right,Green_Star_Chess_4.jpg,Green_Triangle_Stripes_1.jpg,Purple_Plus_Chess_3.jpg,left,725.0050000002375,false,NA,NA,NA,NA,NA,NA,NA,NA,true
foC1wnQc,3pgqrazx15xrvqygpna1awvsi04ysb,32z9zlut1pxsynesz8u6tbmg8cxohc,foC1wnQc,2020-0188,2020-11-16,19:25:04,19:40:39,NA,incomplete,23,filling,1,1,right,Green_Star_Stripes_2.jpg,Green_Circle_Grid_4.jpg,Blue_Plus_Stripes_1.jpg,none,0,false,NA,NA,NA,NA,NA,NA,NA,NA,true
foC1wnQc,3pgqrazx15xrvqygpna1awvsi04ysb,32z9zlut1pxsynesz8u6tbmg8cxohc,foC1wnQc,2020-0188,2020-11-16,19:25:04,19:40:39,NA,incomplete,24,filling,1,1,left,Green_Triangle_Chess_1.jpg,Blue_Plus_Chess_3.jpg,Green_Circle_Grid_2.jpg,left,1069.9650000024121,true,NA,NA,NA,NA,NA,NA,NA,NA,true
foC1wnQc,3pgqrazx15xrvqygpna1awvsi04ysb,32z9zlut1pxsynesz8u6tbmg8cxohc,foC1wnQc,2020-0188,2020-11-16,19:25:04,19:40:39,NA,incomplete,25,filling,1,0,left,Blue_Circle_Stripes_2.jpg,Purple_Star_Stripes_1.jpg,Blue_Triangle_Grid_4.jpg,left,1135.150000001886,true,NA,NA,NA,NA,NA,NA,NA,NA,true
foC1wnQc,3pgqrazx15xrvqygpna1awvsi04ysb,32z9zlut1pxsynesz8u6tbmg8cxohc,foC1wnQc,2020-0188,2020-11-16,19:25:04,19:40:39,NA,incomplete,26,filling,1,0,right,Green_Circle_Grid_1.jpg,Green_Star_Dots_3.jpg,Purple_Plus_Grid_4.jpg,right,1795.0300000011339,true,NA,NA,NA,NA,NA,NA,NA,NA,true
foC1wnQc,3pgqrazx15xrvqygpna1awvsi04ysb,32z9zlut1pxsynesz8u6tbmg8cxohc,foC1wnQc,2020-0188,2020-11-16,19:25:04,19:40:39,NA,incomplete,27,filling,1,1,left,Green_Triangle_Grid_1.jpg,Purple_Plus_Grid_2.jpg,Green_Star_Stripes_3.jpg,left,1346.1499999975786,true,NA,NA,NA,NA,NA,NA,NA,NA,true
foC1wnQc,3pgqrazx15xrvqygpna1awvsi04ysb,32z9zlut1pxsynesz8u6tbmg8cxohc,foC1wnQc,2020-0188,2020-11-16,19:25:04,19:40:39,NA,incomplete,28,filling,1,1,left,Purple_Circle_Grid_3.jpg,Red_Triangle_Grid_1.jpg,Purple_Plus_Dots_2.jpg,left,1356.2099999981,true,NA,NA,NA,NA,NA,NA,NA,NA,true
foC1wnQc,3pgqrazx15xrvqygpna1awvsi04ysb,32z9zlut1pxsynesz8u6tbmg8cxohc,foC1wnQc,2020-0188,2020-11-16,19:25:04,19:40:39,NA,incomplete,29,filling,1,1,left,Blue_Star_Dots_4.jpg,Green_Triangle_Dots_2.jpg,Blue_Plus_Stripes_3.jpg,left,1196.8500000002678,true,NA,NA,NA,NA,NA,NA,NA,NA,true
foC1wnQc,3pgqrazx15xrvqygpna1awvsi04ysb,32z9zlut1pxsynesz8u6tbmg8cxohc,foC1wnQc,2020-0188,2020-11-16,19:25:04,19:40:39,NA,incomplete,30,filling,1,1,right,Red_Plus_Grid_1.jpg,Red_Triangle_Dots_4.jpg,Blue_Circle_Grid_2.jpg,right,1198.3300000065356,true,NA,NA,NA,NA,NA,NA,NA,NA,true
foC1wnQc,3pgqrazx15xrvqygpna1awvsi04ysb,32z9zlut1pxsynesz8u6tbmg8cxohc,foC1wnQc,2020-0188,2020-11-16,19:25:04,19:40:39,NA,incomplete,31,filling,1,1,left,Blue_Circle_Chess_2.jpg,Green_Star_Chess_1.jpg,Blue_Plus_Grid_3.jpg,left,1259.2099999965285,true,NA,NA,NA,NA,NA,NA,NA,NA,true
foC1wnQc,3pgqrazx15xrvqygpna1awvsi04ysb,32z9zlut1pxsynesz8u6tbmg8cxohc,foC1wnQc,2020-0188,2020-11-16,19:25:04,19:40:39,NA,incomplete,32,filling,1,0,right,Red_Star_Stripes_2.jpg,Red_Triangle_Chess_4.jpg,Purple_Circle_Stripes_1.jpg,right,1084.7650000068825,true,NA,NA,NA,NA,NA,NA,NA,NA,true
foC1wnQc,3pgqrazx15xrvqygpna1awvsi04ysb,32z9zlut1pxsynesz8u6tbmg8cxohc,foC1wnQc,2020-0188,2020-11-16,19:25:04,19:40:39,NA,incomplete,33,filling,1,1,left,Purple_Triangle_Stripes_4.jpg,Red_Circle_Stripes_2.jpg,Purple_Plus_Chess_1.jpg,left,1186.2049999981537,true,NA,NA,NA,NA,NA,NA,NA,NA,true
foC1wnQc,3pgqrazx15xrvqygpna1awvsi04ysb,32z9zlut1pxsynesz8u6tbmg8cxohc,foC1wnQc,2020-0188,2020-11-16,19:25:04,19:40:39,NA,incomplete,34,filling,1,0,left,Red_Triangle_Chess_2.jpg,Green_Circle_Chess_1.jpg,Red_Star_Stripes_4.jpg,left,912.4850000007427,true,NA,NA,NA,NA,NA,NA,NA,NA,true
foC1wnQc,3pgqrazx15xrvqygpna1awvsi04ysb,32z9zlut1pxsynesz8u6tbmg8cxohc,foC1wnQc,2020-0188,2020-11-16,19:25:04,19:40:39,NA,incomplete,35,filling,1,1,left,Purple_Circle_Grid_4.jpg,Green_Star_Grid_1.jpg,Purple_Plus_Dots_3.jpg,left,1425.8049999989453,true,NA,NA,NA,NA,NA,NA,NA,NA,true
foC1wnQc,3pgqrazx15xrvqygpna1awvsi04ysb,32z9zlut1pxsynesz8u6tbmg8cxohc,foC1wnQc,2020-0188,2020-11-16,19:25:04,19:40:39,NA,incomplete,36,filling,1,1,right,Green_Triangle_Chess_1.jpg,Green_Star_Stripes_4.jpg,Purple_Plus_Chess_3.jpg,right,1130.8550000030664,true,NA,NA,NA,NA,NA,NA,NA,NA,true
foC1wnQc,3pgqrazx15xrvqygpna1awvsi04ysb,32z9zlut1pxsynesz8u6tbmg8cxohc,foC1wnQc,2020-0188,2020-11-16,19:25:04,19:40:39,NA,incomplete,37,filling,1,1,right,Red_Circle_Stripes_3.jpg,Red_Star_Chess_2.jpg,Blue_Triangle_Stripes_4.jpg,right,1010.3000000017346,true,NA,NA,NA,NA,NA,NA,NA,NA,true
foC1wnQc,3pgqrazx15xrvqygpna1awvsi04ysb,32z9zlut1pxsynesz8u6tbmg8cxohc,foC1wnQc,2020-0188,2020-11-16,19:25:04,19:40:39,NA,incomplete,38,filling,1,1,right,Red_Star_Stripes_4.jpg,Red_Triangle_Grid_2.jpg,Purple_Plus_Stripes_3.jpg,right,1445.7150000016554,true,NA,NA,NA,NA,NA,NA,NA,NA,true
foC1wnQc,3pgqrazx15xrvqygpna1awvsi04ysb,32z9zlut1pxsynesz8u6tbmg8cxohc,foC1wnQc,2020-0188,2020-11-16,19:25:04,19:40:39,NA,incomplete,39,filling,1,1,left,Purple_Circle_Stripes_3.jpg,Red_Star_Stripes_1.jpg,Purple_Plus_Grid_4.jpg,left,1404.9450000020443,true,NA,NA,NA,NA,NA,NA,NA,NA,true
foC1wnQc,3pgqrazx15xrvqygpna1awvsi04ysb,32z9zlut1pxsynesz8u6tbmg8cxohc,foC1wnQc,2020-0188,2020-11-16,19:25:04,19:40:39,NA,incomplete,0,color,0,1,right,Red_Triangle_Grid_1.jpg,Purple_Plus_Grid_3.jpg,Red_Circle_Stripes_2.jpg,left,1199.4500000000698,false,high,NA,NA,NA,NA,NA,NA,NA,false
foC1wnQc,3pgqrazx15xrvqygpna1awvsi04ysb,32z9zlut1pxsynesz8u6tbmg8cxohc,foC1wnQc,2020-0188,2020-11-16,19:25:04,19:40:39,NA,incomplete,1,color,0,1,right,Blue_Star_Dots_1.jpg,Green_Triangle_Dots_4.jpg,Blue_Plus_Grid_3.jpg,right,629.0450000014971,true,high,NA,NA,NA,NA,NA,NA,NA,false
foC1wnQc,3pgqrazx15xrvqygpna1awvsi04ysb,32z9zlut1pxsynesz8u6tbmg8cxohc,foC1wnQc,2020-0188,2020-11-16,19:25:04,19:40:39,NA,incomplete,2,color,0,1,left,Red_Triangle_Dots_2.jpg,Red_Plus_Stripes_1.jpg,Purple_Circle_Dots_3.jpg,left,977.854999997362,true,high,NA,NA,NA,NA,NA,NA,NA,false
foC1wnQc,3pgqrazx15xrvqygpna1awvsi04ysb,32z9zlut1pxsynesz8u6tbmg8cxohc,foC1wnQc,2020-0188,2020-11-16,19:25:04,19:40:39,NA,incomplete,3,color,0,0,left,Red_Star_Chess_3.jpg,Red_Triangle_Dots_1.jpg,Purple_Plus_Chess_4.jpg,left,531.4050000015413,true,high,NA,NA,NA,NA,NA,NA,NA,false
foC1wnQc,3pgqrazx15xrvqygpna1awvsi04ysb,32z9zlut1pxsynesz8u6tbmg8cxohc,foC1wnQc,2020-0188,2020-11-16,19:25:04,19:40:39,NA,incomplete,4,color,0,1,right,Purple_Plus_Stripes_2.jpg,Blue_Triangle_Stripes_4.jpg,Purple_Circle_Dots_1.jpg,right,529.5049999986077,true,high,NA,NA,NA,NA,NA,NA,NA,false
foC1wnQc,3pgqrazx15xrvqygpna1awvsi04ysb,32z9zlut1pxsynesz8u6tbmg8cxohc,foC1wnQc,2020-0188,2020-11-16,19:25:04,19:40:39,NA,incomplete,5,color,0,1,right,Blue_Star_Grid_2.jpg,Green_Circle_Grid_3.jpg,Blue_Triangle_Dots_4.jpg,right,509.35000000026776,true,high,NA,NA,NA,NA,NA,NA,NA,false
foC1wnQc,3pgqrazx15xrvqygpna1awvsi04ysb,32z9zlut1pxsynesz8u6tbmg8cxohc,foC1wnQc,2020-0188,2020-11-16,19:25:04,19:40:39,NA,incomplete,6,color,0,1,left,Red_Circle_Grid_1.jpg,Red_Star_Chess_4.jpg,Blue_Plus_Grid_2.jpg,left,556.9550000000163,true,high,NA,NA,NA,NA,NA,NA,NA,false
foC1wnQc,3pgqrazx15xrvqygpna1awvsi04ysb,32z9zlut1pxsynesz8u6tbmg8cxohc,foC1wnQc,2020-0188,2020-11-16,19:25:04,19:40:39,NA,incomplete,7,color,0,1,left,Purple_Circle_Chess_1.jpg,Purple_Triangle_Dots_4.jpg,Red_Star_Chess_3.jpg,left,575.9749999997439,true,high,NA,NA,NA,NA,NA,NA,NA,false
foC1wnQc,3pgqrazx15xrvqygpna1awvsi04ysb,32z9zlut1pxsynesz8u6tbmg8cxohc,foC1wnQc,2020-0188,2020-11-16,19:25:04,19:40:39,NA,incomplete,8,color,0,1,right,Green_Plus_Chess_4.jpg,Red_Triangle_Chess_1.jpg,Green_Circle_Dots_2.jpg,right,573.6749999996391,true,high,NA,NA,NA,NA,NA,NA,NA,false
foC1wnQc,3pgqrazx15xrvqygpna1awvsi04ysb,32z9zlut1pxsynesz8u6tbmg8cxohc,foC1wnQc,2020-0188,2020-11-16,19:25:04,19:40:39,NA,incomplete,9,color,0,1,right,Red_Star_Chess_2.jpg,Purple_Circle_Chess_1.jpg,Red_Triangle_Stripes_3.jpg,right,628.6499999987427,true,high,NA,NA,NA,NA,NA,NA,NA,false
foC1wnQc,3pgqrazx15xrvqygpna1awvsi04ysb,32z9zlut1pxsynesz8u6tbmg8cxohc,foC1wnQc,2020-0188,2020-11-16,19:25:04,19:40:39,NA,incomplete,10,filling,1,1,right,Purple_Circle_Chess_2.jpg,Purple_Plus_Stripes_4.jpg,Red_Star_Chess_1.jpg,left,568.9649999985704,false,high,NA,NA,NA,NA,NA,NA,NA,false
foC1wnQc,3pgqrazx15xrvqygpna1awvsi04ysb,32z9zlut1pxsynesz8u6tbmg8cxohc,foC1wnQc,2020-0188,2020-11-16,19:25:04,19:40:39,NA,incomplete,11,filling,1,1,left,Green_Star_Chess_3.jpg,Red_Triangle_Chess_2.jpg,Green_Plus_Grid_1.jpg,right,869.7350000002189,false,high,NA,NA,NA,NA,NA,NA,NA,false
foC1wnQc,3pgqrazx15xrvqygpna1awvsi04ysb,32z9zlut1pxsynesz8u6tbmg8cxohc,foC1wnQc,2020-0188,2020-11-16,19:25:04,19:40:39,NA,incomplete,12,filling,1,1,right,Purple_Star_Grid_1.jpg,Purple_Circle_Dots_4.jpg,Green_Plus_Grid_3.jpg,right,982.1999999985565,true,high,NA,NA,NA,NA,NA,NA,NA,false
foC1wnQc,3pgqrazx15xrvqygpna1awvsi04ysb,32z9zlut1pxsynesz8u6tbmg8cxohc,foC1wnQc,2020-0188,2020-11-16,19:25:04,19:40:39,NA,incomplete,13,filling,1,1,left,Blue_Circle_Stripes_4.jpg,Red_Triangle_Stripes_2.jpg,Blue_Plus_Dots_1.jpg,left,932.7550000016345,true,high,NA,NA,NA,NA,NA,NA,NA,false
foC1wnQc,3pgqrazx15xrvqygpna1awvsi04ysb,32z9zlut1pxsynesz8u6tbmg8cxohc,foC1wnQc,2020-0188,2020-11-16,19:25:04,19:40:39,NA,incomplete,14,filling,1,1,right,Red_Plus_Grid_3.jpg,Red_Triangle_Dots_4.jpg,Blue_Star_Grid_2.jpg,right,1159.3250000005355,true,high,NA,NA,NA,NA,NA,NA,NA,false
foC1wnQc,3pgqrazx15xrvqygpna1awvsi04ysb,32z9zlut1pxsynesz8u6tbmg8cxohc,foC1wnQc,2020-0188,2020-11-16,19:25:04,19:40:39,NA,incomplete,15,filling,1,0,left,Green_Star_Chess_2.jpg,Purple_Circle_Chess_1.jpg,Green_Triangle_Dots_4.jpg,left,878.275000002759,true,high,NA,NA,NA,NA,NA,NA,NA,false
foC1wnQc,3pgqrazx15xrvqygpna1awvsi04ysb,32z9zlut1pxsynesz8u6tbmg8cxohc,foC1wnQc,2020-0188,2020-11-16,19:25:04,19:40:39,NA,incomplete,16,filling,1,1,right,Blue_Triangle_Stripes_3.jpg,Blue_Plus_Chess_2.jpg,Red_Circle_Stripes_4.jpg,right,1017.1600000030594,true,high,NA,NA,NA,NA,NA,NA,NA,false
foC1wnQc,3pgqrazx15xrvqygpna1awvsi04ysb,32z9zlut1pxsynesz8u6tbmg8cxohc,foC1wnQc,2020-0188,2020-11-16,19:25:04,19:40:39,NA,incomplete,17,filling,1,0,right,Purple_Triangle_Dots_1.jpg,Purple_Circle_Stripes_4.jpg,Green_Plus_Dots_3.jpg,right,1037.674999999581,true,high,NA,NA,NA,NA,NA,NA,NA,false
foC1wnQc,3pgqrazx15xrvqygpna1awvsi04ysb,32z9zlut1pxsynesz8u6tbmg8cxohc,foC1wnQc,2020-0188,2020-11-16,19:25:04,19:40:39,NA,incomplete,18,filling,1,1,right,Purple_Plus_Stripes_4.jpg,Purple_Star_Chess_2.jpg,Green_Circle_Stripes_1.jpg,left,736.9949999992969,false,high,NA,NA,NA,NA,NA,NA,NA,false
foC1wnQc,3pgqrazx15xrvqygpna1awvsi04ysb,32z9zlut1pxsynesz8u6tbmg8cxohc,foC1wnQc,2020-0188,2020-11-16,19:25:04,19:40:39,NA,incomplete,19,filling,1,1,right,Purple_Star_Dots_1.jpg,Purple_Circle_Grid_3.jpg,Blue_Plus_Dots_4.jpg,right,1074.8349999994389,true,high,NA,NA,NA,NA,NA,NA,NA,false
foC1wnQc,3pgqrazx15xrvqygpna1awvsi04ysb,32z9zlut1pxsynesz8u6tbmg8cxohc,foC1wnQc,2020-0188,2020-11-16,19:25:04,19:40:39,NA,incomplete,20,color,0,1,right,Green_Star_Dots_3.jpg,Blue_Triangle_Dots_4.jpg,Green_Plus_Stripes_1.jpg,left,1284.0349999969476,false,high,NA,NA,NA,NA,NA,NA,NA,false
foC1wnQc,3pgqrazx15xrvqygpna1awvsi04ysb,32z9zlut1pxsynesz8u6tbmg8cxohc,foC1wnQc,2020-0188,2020-11-16,19:25:04,19:40:39,NA,incomplete,21,color,0,0,right,Purple_Star_Chess_3.jpg,Blue_Triangle_Chess_2.jpg,Purple_Circle_Dots_4.jpg,left,910.2050000001327,false,high,NA,NA,NA,NA,NA,NA,NA,false
foC1wnQc,3pgqrazx15xrvqygpna1awvsi04ysb,32z9zlut1pxsynesz8u6tbmg8cxohc,foC1wnQc,2020-0188,2020-11-16,19:25:04,19:40:39,NA,incomplete,22,color,0,0,right,Red_Star_Grid_1.jpg,Purple_Plus_Grid_2.jpg,Red_Triangle_Dots_4.jpg,left,990.4899999964982,false,high,NA,NA,NA,NA,NA,NA,NA,false
foC1wnQc,3pgqrazx15xrvqygpna1awvsi04ysb,32z9zlut1pxsynesz8u6tbmg8cxohc,foC1wnQc,2020-0188,2020-11-16,19:25:04,19:40:39,NA,incomplete,23,color,0,1,right,Blue_Triangle_Grid_4.jpg,Purple_Circle_Grid_3.jpg,Blue_Plus_Chess_1.jpg,left,1076.18000000366,false,high,NA,NA,NA,NA,NA,NA,NA,false
foC1wnQc,3pgqrazx15xrvqygpna1awvsi04ysb,32z9zlut1pxsynesz8u6tbmg8cxohc,foC1wnQc,2020-0188,2020-11-16,19:25:04,19:40:39,NA,incomplete,24,color,0,1,right,Purple_Circle_Dots_4.jpg,Green_Plus_Dots_2.jpg,Purple_Triangle_Grid_1.jpg,left,1063.509999999951,false,high,NA,NA,NA,NA,NA,NA,NA,false
foC1wnQc,3pgqrazx15xrvqygpna1awvsi04ysb,32z9zlut1pxsynesz8u6tbmg8cxohc,foC1wnQc,2020-0188,2020-11-16,19:25:04,19:40:39,NA,incomplete,25,color,0,1,right,Green_Plus_Grid_4.jpg,Red_Triangle_Grid_1.jpg,Green_Star_Stripes_3.jpg,right,1746.8250000019907,true,high,NA,NA,NA,NA,NA,NA,NA,false
foC1wnQc,3pgqrazx15xrvqygpna1awvsi04ysb,32z9zlut1pxsynesz8u6tbmg8cxohc,foC1wnQc,2020-0188,2020-11-16,19:25:04,19:40:39,NA,incomplete,26,color,0,1,right,Blue_Plus_Chess_3.jpg,Purple_Star_Chess_4.jpg,Blue_Circle_Grid_2.jpg,right,785.6150000006892,true,high,NA,NA,NA,NA,NA,NA,NA,false
foC1wnQc,3pgqrazx15xrvqygpna1awvsi04ysb,32z9zlut1pxsynesz8u6tbmg8cxohc,foC1wnQc,2020-0188,2020-11-16,19:25:04,19:40:39,NA,incomplete,27,color,0,1,right,Blue_Star_Stripes_1.jpg,Green_Circle_Stripes_2.jpg,Blue_Plus_Grid_4.jpg,right,761.7500000051223,true,high,NA,NA,NA,NA,NA,NA,NA,false
foC1wnQc,3pgqrazx15xrvqygpna1awvsi04ysb,32z9zlut1pxsynesz8u6tbmg8cxohc,foC1wnQc,2020-0188,2020-11-16,19:25:04,19:40:39,NA,incomplete,28,color,0,1,left,Blue_Plus_Grid_3.jpg,Blue_Star_Dots_4.jpg,Green_Circle_Grid_2.jpg,left,531.1799999981304,true,high,NA,NA,NA,NA,NA,NA,NA,false
foC1wnQc,3pgqrazx15xrvqygpna1awvsi04ysb,32z9zlut1pxsynesz8u6tbmg8cxohc,foC1wnQc,2020-0188,2020-11-16,19:25:04,19:40:39,NA,incomplete,29,color,0,1,right,Red_Star_Grid_2.jpg,Blue_Circle_Grid_4.jpg,Red_Plus_Chess_1.jpg,right,775.2000000036787,true,high,NA,NA,NA,NA,NA,NA,NA,false
foC1wnQc,3pgqrazx15xrvqygpna1awvsi04ysb,32z9zlut1pxsynesz8u6tbmg8cxohc,foC1wnQc,2020-0188,2020-11-16,19:25:04,19:40:39,NA,incomplete,30,filling,1,1,right,Green_Star_Chess_1.jpg,Green_Circle_Stripes_3.jpg,Red_Triangle_Chess_2.jpg,left,555.1249999989523,false,high,NA,NA,NA,NA,NA,NA,NA,false
foC1wnQc,3pgqrazx15xrvqygpna1awvsi04ysb,32z9zlut1pxsynesz8u6tbmg8cxohc,foC1wnQc,2020-0188,2020-11-16,19:25:04,19:40:39,NA,incomplete,31,filling,1,1,left,Blue_Circle_Stripes_4.jpg,Purple_Star_Stripes_1.jpg,Blue_Triangle_Chess_3.jpg,left,1002.6450000004843,true,high,NA,NA,NA,NA,NA,NA,NA,false
foC1wnQc,3pgqrazx15xrvqygpna1awvsi04ysb,32z9zlut1pxsynesz8u6tbmg8cxohc,foC1wnQc,2020-0188,2020-11-16,19:25:04,19:40:39,NA,incomplete,32,filling,1,0,left,Red_Circle_Stripes_1.jpg,Purple_Plus_Stripes_3.jpg,Red_Triangle_Dots_2.jpg,left,948.1799999994109,true,high,NA,NA,NA,NA,NA,NA,NA,false
foC1wnQc,3pgqrazx15xrvqygpna1awvsi04ysb,32z9zlut1pxsynesz8u6tbmg8cxohc,foC1wnQc,2020-0188,2020-11-16,19:25:04,19:40:39,NA,incomplete,33,filling,1,1,right,Blue_Star_Grid_4.jpg,Blue_Triangle_Chess_3.jpg,Red_Plus_Grid_2.jpg,right,1035.200000005716,true,high,NA,NA,NA,NA,NA,NA,NA,false
foC1wnQc,3pgqrazx15xrvqygpna1awvsi04ysb,32z9zlut1pxsynesz8u6tbmg8cxohc,foC1wnQc,2020-0188,2020-11-16,19:25:04,19:40:39,NA,incomplete,34,filling,1,1,left,Green_Triangle_Grid_3.jpg,Blue_Plus_Grid_2.jpg,Green_Circle_Stripes_1.jpg,left,1166.5550000034273,true,high,NA,NA,NA,NA,NA,NA,NA,false
foC1wnQc,3pgqrazx15xrvqygpna1awvsi04ysb,32z9zlut1pxsynesz8u6tbmg8cxohc,foC1wnQc,2020-0188,2020-11-16,19:25:04,19:40:39,NA,incomplete,35,filling,1,1,left,Purple_Triangle_Grid_4.jpg,Green_Circle_Grid_3.jpg,Purple_Plus_Dots_2.jpg,left,822.5149999998393,true,high,NA,NA,NA,NA,NA,NA,NA,false
foC1wnQc,3pgqrazx15xrvqygpna1awvsi04ysb,32z9zlut1pxsynesz8u6tbmg8cxohc,foC1wnQc,2020-0188,2020-11-16,19:25:04,19:40:39,NA,incomplete,36,filling,1,1,left,Green_Triangle_Chess_3.jpg,Purple_Circle_Chess_4.jpg,Green_Star_Dots_2.jpg,left,860.6299999955809,true,high,NA,NA,NA,NA,NA,NA,NA,false
foC1wnQc,3pgqrazx15xrvqygpna1awvsi04ysb,32z9zlut1pxsynesz8u6tbmg8cxohc,foC1wnQc,2020-0188,2020-11-16,19:25:04,19:40:39,NA,incomplete,37,filling,1,1,right,Red_Plus_Dots_3.jpg,Red_Triangle_Chess_4.jpg,Green_Circle_Dots_2.jpg,right,937.6599999959581,true,high,NA,NA,NA,NA,NA,NA,NA,false
foC1wnQc,3pgqrazx15xrvqygpna1awvsi04ysb,32z9zlut1pxsynesz8u6tbmg8cxohc,foC1wnQc,2020-0188,2020-11-16,19:25:04,19:40:39,NA,incomplete,38,filling,1,1,right,Red_Plus_Grid_3.jpg,Red_Circle_Dots_2.jpg,Purple_Triangle_Grid_1.jpg,right,987.8299999982119,true,high,NA,NA,NA,NA,NA,NA,NA,false
foC1wnQc,3pgqrazx15xrvqygpna1awvsi04ysb,32z9zlut1pxsynesz8u6tbmg8cxohc,foC1wnQc,2020-0188,2020-11-16,19:25:04,19:40:39,NA,incomplete,39,filling,1,1,right,Green_Star_Dots_3.jpg,Green_Circle_Grid_4.jpg,Purple_Plus_Dots_1.jpg,right,1081.915000002482,true,high,NA,NA,NA,NA,NA,NA,NA,false
foC1wnQc,3pgqrazx15xrvqygpna1awvsi04ysb,32z9zlut1pxsynesz8u6tbmg8cxohc,foC1wnQc,2020-0188,2020-11-16,19:25:04,19:40:39,NA,incomplete,40,color,0,1,right,Purple_Plus_Stripes_3.jpg,Red_Circle_Stripes_2.jpg,Purple_Star_Grid_4.jpg,left,1012.7449999999953,false,high,NA,NA,NA,NA,NA,NA,NA,false
foC1wnQc,3pgqrazx15xrvqygpna1awvsi04ysb,32z9zlut1pxsynesz8u6tbmg8cxohc,foC1wnQc,2020-0188,2020-11-16,19:25:04,19:40:39,NA,incomplete,41,color,0,0,left,Blue_Triangle_Dots_4.jpg,Blue_Circle_Chess_3.jpg,Purple_Plus_Dots_1.jpg,right,1029.354999998759,false,high,NA,NA,NA,NA,NA,NA,NA,false
foC1wnQc,3pgqrazx15xrvqygpna1awvsi04ysb,32z9zlut1pxsynesz8u6tbmg8cxohc,foC1wnQc,2020-0188,2020-11-16,19:25:04,19:40:39,NA,incomplete,42,color,0,1,left,Green_Star_Dots_1.jpg,Green_Plus_Grid_4.jpg,Blue_Circle_Dots_3.jpg,right,977.4099999995087,false,high,NA,NA,NA,NA,NA,NA,NA,false
foC1wnQc,3pgqrazx15xrvqygpna1awvsi04ysb,32z9zlut1pxsynesz8u6tbmg8cxohc,foC1wnQc,2020-0188,2020-11-16,19:25:04,19:40:39,NA,incomplete,43,color,0,1,left,Blue_Star_Chess_4.jpg,Blue_Plus_Grid_1.jpg,Purple_Circle_Chess_3.jpg,left,919.5049999980256,true,high,NA,NA,NA,NA,NA,NA,NA,false
foC1wnQc,3pgqrazx15xrvqygpna1awvsi04ysb,32z9zlut1pxsynesz8u6tbmg8cxohc,foC1wnQc,2020-0188,2020-11-16,19:25:04,19:40:39,NA,incomplete,44,color,0,1,right,Green_Star_Chess_4.jpg,Red_Triangle_Chess_1.jpg,Green_Circle_Grid_2.jpg,right,615.5500000022585,true,high,NA,NA,NA,NA,NA,NA,NA,false
foC1wnQc,3pgqrazx15xrvqygpna1awvsi04ysb,32z9zlut1pxsynesz8u6tbmg8cxohc,foC1wnQc,2020-0188,2020-11-16,19:25:04,19:40:39,NA,incomplete,45,color,0,0,right,Blue_Circle_Grid_1.jpg,Green_Triangle_Grid_2.jpg,Blue_Star_Chess_4.jpg,right,1398.0900000024121,true,high,NA,NA,NA,NA,NA,NA,NA,false
foC1wnQc,3pgqrazx15xrvqygpna1awvsi04ysb,32z9zlut1pxsynesz8u6tbmg8cxohc,foC1wnQc,2020-0188,2020-11-16,19:25:04,19:40:39,NA,incomplete,46,color,0,1,left,Purple_Star_Dots_2.jpg,Purple_Triangle_Stripes_3.jpg,Red_Plus_Dots_1.jpg,left,662.7149999985704,true,high,NA,NA,NA,NA,NA,NA,NA,false
foC1wnQc,3pgqrazx15xrvqygpna1awvsi04ysb,32z9zlut1pxsynesz8u6tbmg8cxohc,foC1wnQc,2020-0188,2020-11-16,19:25:04,19:40:39,NA,incomplete,47,color,0,1,left,Purple_Triangle_Dots_1.jpg,Purple_Circle_Stripes_2.jpg,Red_Plus_Dots_3.jpg,left,601.8100000001141,true,high,NA,NA,NA,NA,NA,NA,NA,false
foC1wnQc,3pgqrazx15xrvqygpna1awvsi04ysb,32z9zlut1pxsynesz8u6tbmg8cxohc,foC1wnQc,2020-0188,2020-11-16,19:25:04,19:40:39,NA,incomplete,48,color,0,0,right,Green_Plus_Dots_4.jpg,Blue_Triangle_Dots_3.jpg,Green_Star_Grid_1.jpg,right,638.8650000008056,true,high,NA,NA,NA,NA,NA,NA,NA,false
foC1wnQc,3pgqrazx15xrvqygpna1awvsi04ysb,32z9zlut1pxsynesz8u6tbmg8cxohc,foC1wnQc,2020-0188,2020-11-16,19:25:04,19:40:39,NA,incomplete,49,color,0,1,right,Red_Triangle_Grid_2.jpg,Blue_Plus_Grid_3.jpg,Red_Star_Stripes_4.jpg,right,556.1700000034762,true,high,NA,NA,NA,NA,NA,NA,NA,false
foC1wnQc,3pgqrazx15xrvqygpna1awvsi04ysb,32z9zlut1pxsynesz8u6tbmg8cxohc,foC1wnQc,2020-0188,2020-11-16,19:25:04,19:40:39,NA,incomplete,50,filling,1,1,left,Green_Star_Chess_3.jpg,Red_Plus_Chess_4.jpg,Green_Circle_Dots_1.jpg,right,675.1249999942956,false,high,NA,NA,NA,NA,NA,NA,NA,false
foC1wnQc,3pgqrazx15xrvqygpna1awvsi04ysb,32z9zlut1pxsynesz8u6tbmg8cxohc,foC1wnQc,2020-0188,2020-11-16,19:25:04,19:40:39,NA,incomplete,51,filling,1,0,left,Red_Triangle_Chess_4.jpg,Purple_Plus_Chess_1.jpg,Red_Circle_Dots_3.jpg,right,644.5299999977578,false,high,NA,NA,NA,NA,NA,NA,NA,false
foC1wnQc,3pgqrazx15xrvqygpna1awvsi04ysb,32z9zlut1pxsynesz8u6tbmg8cxohc,foC1wnQc,2020-0188,2020-11-16,19:25:04,19:40:39,NA,incomplete,52,filling,1,1,right,Blue_Circle_Grid_1.jpg,Blue_Star_Stripes_4.jpg,Red_Plus_Grid_3.jpg,left,634.3650000053458,false,high,NA,NA,NA,NA,NA,NA,NA,false
foC1wnQc,3pgqrazx15xrvqygpna1awvsi04ysb,32z9zlut1pxsynesz8u6tbmg8cxohc,foC1wnQc,2020-0188,2020-11-16,19:25:04,19:40:39,NA,incomplete,53,filling,1,0,left,Purple_Circle_Stripes_2.jpg,Blue_Triangle_Stripes_4.jpg,Purple_Plus_Dots_3.jpg,right,706.0400000045775,false,high,NA,NA,NA,NA,NA,NA,NA,false
foC1wnQc,3pgqrazx15xrvqygpna1awvsi04ysb,32z9zlut1pxsynesz8u6tbmg8cxohc,foC1wnQc,2020-0188,2020-11-16,19:25:04,19:40:39,NA,incomplete,54,filling,1,1,left,Red_Star_Grid_4.jpg,Purple_Plus_Grid_3.jpg,Red_Circle_Stripes_2.jpg,right,826.8299999981537,false,high,NA,NA,NA,NA,NA,NA,NA,false
foC1wnQc,3pgqrazx15xrvqygpna1awvsi04ysb,32z9zlut1pxsynesz8u6tbmg8cxohc,foC1wnQc,2020-0188,2020-11-16,19:25:04,19:40:39,NA,incomplete,55,filling,1,0,left,Green_Triangle_Stripes_4.jpg,Purple_Circle_Stripes_2.jpg,Green_Star_Grid_3.jpg,left,905.8399999994435,true,high,NA,NA,NA,NA,NA,NA,NA,false
foC1wnQc,3pgqrazx15xrvqygpna1awvsi04ysb,32z9zlut1pxsynesz8u6tbmg8cxohc,foC1wnQc,2020-0188,2020-11-16,19:25:04,19:40:39,NA,incomplete,56,filling,1,1,left,Purple_Star_Dots_1.jpg,Blue_Triangle_Dots_3.jpg,Purple_Plus_Chess_2.jpg,left,1066.834999997809,true,high,NA,NA,NA,NA,NA,NA,NA,false
foC1wnQc,3pgqrazx15xrvqygpna1awvsi04ysb,32z9zlut1pxsynesz8u6tbmg8cxohc,foC1wnQc,2020-0188,2020-11-16,19:25:04,19:40:39,NA,incomplete,57,filling,1,1,right,Red_Star_Stripes_3.jpg,Red_Triangle_Chess_2.jpg,Purple_Plus_Stripes_1.jpg,right,1074.335000004794,true,high,NA,NA,NA,NA,NA,NA,NA,false
foC1wnQc,3pgqrazx15xrvqygpna1awvsi04ysb,32z9zlut1pxsynesz8u6tbmg8cxohc,foC1wnQc,2020-0188,2020-11-16,19:25:04,19:40:39,NA,incomplete,58,filling,1,1,right,Blue_Triangle_Grid_1.jpg,Blue_Circle_Dots_3.jpg,Red_Star_Grid_4.jpg,right,1117.7649999954156,true,high,NA,NA,NA,NA,NA,NA,NA,false
foC1wnQc,3pgqrazx15xrvqygpna1awvsi04ysb,32z9zlut1pxsynesz8u6tbmg8cxohc,foC1wnQc,2020-0188,2020-11-16,19:25:04,19:40:39,NA,incomplete,59,filling,1,1,left,Purple_Triangle_Stripes_1.jpg,Green_Plus_Stripes_4.jpg,Purple_Circle_Grid_2.jpg,left,1103.1650000004447,true,high,NA,NA,NA,NA,NA,NA,NA,false
foC1wnQc,3pgqrazx15xrvqygpna1awvsi04ysb,32z9zlut1pxsynesz8u6tbmg8cxohc,foC1wnQc,2020-0188,2020-11-16,19:25:04,19:40:39,NA,incomplete,60,color,0,1,right,Blue_Circle_Stripes_1.jpg,Red_Star_Stripes_2.jpg,Blue_Triangle_Grid_3.jpg,left,1050.3849999950035,false,high,NA,NA,NA,NA,NA,NA,NA,false
foC1wnQc,3pgqrazx15xrvqygpna1awvsi04ysb,32z9zlut1pxsynesz8u6tbmg8cxohc,foC1wnQc,2020-0188,2020-11-16,19:25:04,19:40:39,NA,incomplete,61,color,0,1,right,Blue_Star_Grid_3.jpg,Red_Triangle_Grid_2.jpg,Blue_Circle_Stripes_1.jpg,right,941.5999999982887,true,high,NA,NA,NA,NA,NA,NA,NA,false
foC1wnQc,3pgqrazx15xrvqygpna1awvsi04ysb,32z9zlut1pxsynesz8u6tbmg8cxohc,foC1wnQc,2020-0188,2020-11-16,19:25:04,19:40:39,NA,incomplete,62,color,0,1,right,Red_Triangle_Chess_4.jpg,Purple_Plus_Chess_1.jpg,Red_Circle_Grid_3.jpg,left,1171.4950000023236,false,high,NA,NA,NA,NA,NA,NA,NA,false
foC1wnQc,3pgqrazx15xrvqygpna1awvsi04ysb,32z9zlut1pxsynesz8u6tbmg8cxohc,foC1wnQc,2020-0188,2020-11-16,19:25:04,19:40:39,NA,incomplete,63,color,0,1,right,Green_Star_Grid_1.jpg,Blue_Triangle_Grid_3.jpg,Green_Circle_Chess_2.jpg,right,875.7750000004307,true,high,NA,NA,NA,NA,NA,NA,NA,false
foC1wnQc,3pgqrazx15xrvqygpna1awvsi04ysb,32z9zlut1pxsynesz8u6tbmg8cxohc,foC1wnQc,2020-0188,2020-11-16,19:25:04,19:40:39,NA,incomplete,64,color,0,0,left,Red_Plus_Grid_4.jpg,Red_Triangle_Chess_1.jpg,Green_Star_Grid_3.jpg,left,1214.0149999977439,true,high,NA,NA,NA,NA,NA,NA,NA,false
foC1wnQc,3pgqrazx15xrvqygpna1awvsi04ysb,32z9zlut1pxsynesz8u6tbmg8cxohc,foC1wnQc,2020-0188,2020-11-16,19:25:04,19:40:39,NA,incomplete,65,color,0,1,right,Red_Triangle_Dots_4.jpg,Purple_Plus_Dots_1.jpg,Red_Star_Grid_3.jpg,right,971.0599999962142,true,high,NA,NA,NA,NA,NA,NA,NA,false
foC1wnQc,3pgqrazx15xrvqygpna1awvsi04ysb,32z9zlut1pxsynesz8u6tbmg8cxohc,foC1wnQc,2020-0188,2020-11-16,19:25:04,19:40:39,NA,incomplete,66,color,0,0,right,Blue_Circle_Dots_2.jpg,Red_Plus_Dots_1.jpg,Blue_Triangle_Chess_3.jpg,right,789.9749999996857,true,high,NA,NA,NA,NA,NA,NA,NA,false
foC1wnQc,3pgqrazx15xrvqygpna1awvsi04ysb,32z9zlut1pxsynesz8u6tbmg8cxohc,foC1wnQc,2020-0188,2020-11-16,19:25:04,19:40:39,NA,incomplete,67,color,0,1,right,Purple_Star_Grid_2.jpg,Blue_Plus_Grid_3.jpg,Purple_Triangle_Stripes_4.jpg,left,1038.9199999990524,false,high,NA,NA,NA,NA,NA,NA,NA,false
foC1wnQc,3pgqrazx15xrvqygpna1awvsi04ysb,32z9zlut1pxsynesz8u6tbmg8cxohc,foC1wnQc,2020-0188,2020-11-16,19:25:04,19:40:39,NA,incomplete,68,color,0,1,left,Green_Circle_Stripes_2.jpg,Green_Plus_Chess_1.jpg,Blue_Star_Stripes_4.jpg,left,964.3999999971129,true,high,NA,NA,NA,NA,NA,NA,NA,false
foC1wnQc,3pgqrazx15xrvqygpna1awvsi04ysb,32z9zlut1pxsynesz8u6tbmg8cxohc,foC1wnQc,2020-0188,2020-11-16,19:25:04,19:40:39,NA,incomplete,69,color,0,0,left,Green_Triangle_Chess_2.jpg,Green_Plus_Stripes_4.jpg,Red_Star_Chess_1.jpg,left,612.2350000005099,true,high,NA,NA,NA,NA,NA,NA,NA,false
foC1wnQc,3pgqrazx15xrvqygpna1awvsi04ysb,32z9zlut1pxsynesz8u6tbmg8cxohc,foC1wnQc,2020-0188,2020-11-16,19:25:04,19:40:39,NA,incomplete,70,filling,1,1,right,Red_Circle_Dots_2.jpg,Red_Triangle_Stripes_4.jpg,Purple_Plus_Dots_1.jpg,left,934.3699999953969,false,high,NA,NA,NA,NA,NA,NA,NA,false
foC1wnQc,3pgqrazx15xrvqygpna1awvsi04ysb,32z9zlut1pxsynesz8u6tbmg8cxohc,foC1wnQc,2020-0188,2020-11-16,19:25:04,19:40:39,NA,incomplete,71,filling,1,1,right,Purple_Circle_Chess_1.jpg,Purple_Star_Stripes_4.jpg,Red_Plus_Chess_2.jpg,right,933.6100000000442,true,high,NA,NA,NA,NA,NA,NA,NA,false
foC1wnQc,3pgqrazx15xrvqygpna1awvsi04ysb,32z9zlut1pxsynesz8u6tbmg8cxohc,foC1wnQc,2020-0188,2020-11-16,19:25:04,19:40:39,NA,incomplete,72,filling,1,1,right,Blue_Plus_Stripes_4.jpg,Blue_Triangle_Dots_3.jpg,Purple_Circle_Stripes_2.jpg,right,1019.5099999982631,true,high,NA,NA,NA,NA,NA,NA,NA,false
foC1wnQc,3pgqrazx15xrvqygpna1awvsi04ysb,32z9zlut1pxsynesz8u6tbmg8cxohc,foC1wnQc,2020-0188,2020-11-16,19:25:04,19:40:39,NA,incomplete,73,filling,1,0,left,Red_Circle_Chess_4.jpg,Blue_Plus_Chess_1.jpg,Red_Triangle_Stripes_3.jpg,left,1210.9400000044843,true,high,NA,NA,NA,NA,NA,NA,NA,false
foC1wnQc,3pgqrazx15xrvqygpna1awvsi04ysb,32z9zlut1pxsynesz8u6tbmg8cxohc,foC1wnQc,2020-0188,2020-11-16,19:25:04,19:40:39,NA,incomplete,74,filling,1,1,right,Purple_Triangle_Grid_1.jpg,Purple_Star_Dots_3.jpg,Blue_Circle_Grid_4.jpg,right,1108.3849999995437,true,high,NA,NA,NA,NA,NA,NA,NA,false
foC1wnQc,3pgqrazx15xrvqygpna1awvsi04ysb,32z9zlut1pxsynesz8u6tbmg8cxohc,foC1wnQc,2020-0188,2020-11-16,19:25:04,19:40:39,NA,incomplete,75,filling,1,1,left,Blue_Triangle_Stripes_4.jpg,Green_Star_Stripes_1.jpg,Blue_Plus_Chess_3.jpg,left,1044.3249999952968,true,high,NA,NA,NA,NA,NA,NA,NA,false
foC1wnQc,3pgqrazx15xrvqygpna1awvsi04ysb,32z9zlut1pxsynesz8u6tbmg8cxohc,foC1wnQc,2020-0188,2020-11-16,19:25:04,19:40:39,NA,incomplete,76,filling,1,1,right,Purple_Star_Dots_4.jpg,Purple_Plus_Stripes_2.jpg,Blue_Triangle_Dots_1.jpg,right,1150.564999996277,true,high,NA,NA,NA,NA,NA,NA,NA,false
foC1wnQc,3pgqrazx15xrvqygpna1awvsi04ysb,32z9zlut1pxsynesz8u6tbmg8cxohc,foC1wnQc,2020-0188,2020-11-16,19:25:04,19:40:39,NA,incomplete,77,filling,1,1,left,Purple_Plus_Chess_1.jpg,Green_Circle_Chess_2.jpg,Purple_Triangle_Stripes_4.jpg,left,1079.8999999969965,true,high,NA,NA,NA,NA,NA,NA,NA,false
foC1wnQc,3pgqrazx15xrvqygpna1awvsi04ysb,32z9zlut1pxsynesz8u6tbmg8cxohc,foC1wnQc,2020-0188,2020-11-16,19:25:04,19:40:39,NA,incomplete,78,filling,1,1,left,Purple_Circle_Stripes_2.jpg,Blue_Star_Stripes_4.jpg,Purple_Plus_Grid_1.jpg,left,1029.6099999977741,true,high,NA,NA,NA,NA,NA,NA,NA,false
foC1wnQc,3pgqrazx15xrvqygpna1awvsi04ysb,32z9zlut1pxsynesz8u6tbmg8cxohc,foC1wnQc,2020-0188,2020-11-16,19:25:04,19:40:39,NA,incomplete,79,filling,1,1,left,Red_Plus_Dots_1.jpg,Purple_Star_Dots_2.jpg,Red_Circle_Grid_3.jpg,left,994.9699999997392,true,high,NA,NA,NA,NA,NA,NA,NA,false
foC1wnQc,3pgqrazx15xrvqygpna1awvsi04ysb,32z9zlut1pxsynesz8u6tbmg8cxohc,foC1wnQc,2020-0188,2020-11-16,19:25:04,19:40:39,NA,incomplete,80,color,0,1,left,Green_Triangle_Stripes_4.jpg,Green_Star_Chess_1.jpg,Blue_Plus_Stripes_2.jpg,right,869.620000004943,false,high,NA,NA,NA,NA,NA,NA,NA,false
foC1wnQc,3pgqrazx15xrvqygpna1awvsi04ysb,32z9zlut1pxsynesz8u6tbmg8cxohc,foC1wnQc,2020-0188,2020-11-16,19:25:04,19:40:39,NA,incomplete,81,color,0,0,right,Green_Star_Grid_4.jpg,Purple_Circle_Grid_3.jpg,Green_Triangle_Stripes_2.jpg,right,614.2200000031153,true,high,NA,NA,NA,NA,NA,NA,NA,false
foC1wnQc,3pgqrazx15xrvqygpna1awvsi04ysb,32z9zlut1pxsynesz8u6tbmg8cxohc,foC1wnQc,2020-0188,2020-11-16,19:25:04,19:40:39,NA,incomplete,82,color,0,0,left,Green_Circle_Grid_3.jpg,Green_Plus_Dots_4.jpg,Purple_Triangle_Grid_1.jpg,right,1689.8650000002817,false,high,NA,NA,NA,NA,NA,NA,NA,false
foC1wnQc,3pgqrazx15xrvqygpna1awvsi04ysb,32z9zlut1pxsynesz8u6tbmg8cxohc,foC1wnQc,2020-0188,2020-11-16,19:25:04,19:40:39,NA,incomplete,83,color,0,1,right,Red_Star_Dots_2.jpg,Green_Triangle_Dots_3.jpg,Red_Circle_Grid_1.jpg,left,1162.1349999986705,false,high,NA,NA,NA,NA,NA,NA,NA,false
foC1wnQc,3pgqrazx15xrvqygpna1awvsi04ysb,32z9zlut1pxsynesz8u6tbmg8cxohc,foC1wnQc,2020-0188,2020-11-16,19:25:04,19:40:39,NA,incomplete,84,color,0,0,left,Green_Triangle_Chess_4.jpg,Green_Circle_Dots_2.jpg,Blue_Star_Chess_3.jpg,left,515.2000000016415,true,high,NA,NA,NA,NA,NA,NA,NA,false
foC1wnQc,3pgqrazx15xrvqygpna1awvsi04ysb,32z9zlut1pxsynesz8u6tbmg8cxohc,foC1wnQc,2020-0188,2020-11-16,19:25:04,19:40:39,NA,incomplete,85,color,0,1,right,Green_Triangle_Stripes_2.jpg,Red_Plus_Stripes_3.jpg,Green_Star_Grid_4.jpg,left,1087.0300000024145,false,high,NA,NA,NA,NA,NA,NA,NA,false
foC1wnQc,3pgqrazx15xrvqygpna1awvsi04ysb,32z9zlut1pxsynesz8u6tbmg8cxohc,foC1wnQc,2020-0188,2020-11-16,19:25:04,19:40:39,NA,incomplete,86,color,0,1,left,Red_Star_Stripes_4.jpg,Red_Plus_Chess_2.jpg,Purple_Circle_Stripes_3.jpg,left,719.7199999936856,true,high,NA,NA,NA,NA,NA,NA,NA,false
foC1wnQc,3pgqrazx15xrvqygpna1awvsi04ysb,32z9zlut1pxsynesz8u6tbmg8cxohc,foC1wnQc,2020-0188,2020-11-16,19:25:04,19:40:39,NA,incomplete,87,color,0,1,right,Red_Star_Chess_1.jpg,Blue_Circle_Chess_2.jpg,Red_Plus_Grid_4.jpg,right,1185.234999997192,true,high,NA,NA,NA,NA,NA,NA,NA,false
foC1wnQc,3pgqrazx15xrvqygpna1awvsi04ysb,32z9zlut1pxsynesz8u6tbmg8cxohc,foC1wnQc,2020-0188,2020-11-16,19:25:04,19:40:39,NA,incomplete,88,color,0,1,left,Red_Triangle_Stripes_4.jpg,Red_Circle_Grid_3.jpg,Blue_Plus_Stripes_2.jpg,left,869.1200000030221,true,high,NA,NA,NA,NA,NA,NA,NA,false
foC1wnQc,3pgqrazx15xrvqygpna1awvsi04ysb,32z9zlut1pxsynesz8u6tbmg8cxohc,foC1wnQc,2020-0188,2020-11-16,19:25:04,19:40:39,NA,incomplete,89,color,0,1,left,Blue_Circle_Grid_4.jpg,Blue_Star_Stripes_2.jpg,Red_Triangle_Grid_3.jpg,left,1211.9299999976647,true,high,NA,NA,NA,NA,NA,NA,NA,false
foC1wnQc,3pgqrazx15xrvqygpna1awvsi04ysb,32z9zlut1pxsynesz8u6tbmg8cxohc,foC1wnQc,2020-0188,2020-11-16,19:25:04,19:40:39,NA,incomplete,90,filling,1,1,left,Blue_Circle_Chess_4.jpg,Red_Star_Chess_3.jpg,Blue_Plus_Grid_2.jpg,right,669.754999995348,false,high,NA,NA,NA,NA,NA,NA,NA,false
foC1wnQc,3pgqrazx15xrvqygpna1awvsi04ysb,32z9zlut1pxsynesz8u6tbmg8cxohc,foC1wnQc,2020-0188,2020-11-16,19:25:04,19:40:39,NA,incomplete,91,filling,1,0,right,Red_Plus_Dots_4.jpg,Red_Circle_Chess_3.jpg,Green_Star_Dots_1.jpg,left,578.7399999971967,false,high,NA,NA,NA,NA,NA,NA,NA,false
foC1wnQc,3pgqrazx15xrvqygpna1awvsi04ysb,32z9zlut1pxsynesz8u6tbmg8cxohc,foC1wnQc,2020-0188,2020-11-16,19:25:04,19:40:39,NA,incomplete,92,filling,1,1,right,Green_Star_Dots_2.jpg,Green_Plus_Grid_1.jpg,Blue_Circle_Dots_4.jpg,left,787.0850000035716,false,high,NA,NA,NA,NA,NA,NA,NA,false
foC1wnQc,3pgqrazx15xrvqygpna1awvsi04ysb,32z9zlut1pxsynesz8u6tbmg8cxohc,foC1wnQc,2020-0188,2020-11-16,19:25:04,19:40:39,NA,incomplete,93,filling,1,1,right,Red_Plus_Chess_4.jpg,Red_Triangle_Dots_3.jpg,Blue_Circle_Chess_1.jpg,left,771.6099999961443,false,high,NA,NA,NA,NA,NA,NA,NA,false
foC1wnQc,3pgqrazx15xrvqygpna1awvsi04ysb,32z9zlut1pxsynesz8u6tbmg8cxohc,foC1wnQc,2020-0188,2020-11-16,19:25:04,19:40:39,NA,incomplete,94,filling,1,1,left,Blue_Plus_Chess_2.jpg,Purple_Triangle_Chess_3.jpg,Blue_Star_Stripes_1.jpg,right,684.9749999964843,false,high,NA,NA,NA,NA,NA,NA,NA,false
foC1wnQc,3pgqrazx15xrvqygpna1awvsi04ysb,32z9zlut1pxsynesz8u6tbmg8cxohc,foC1wnQc,2020-0188,2020-11-16,19:25:04,19:40:39,NA,incomplete,95,filling,1,1,left,Purple_Plus_Stripes_2.jpg,Red_Circle_Stripes_4.jpg,Purple_Star_Grid_3.jpg,right,717.1099999977741,false,high,NA,NA,NA,NA,NA,NA,NA,false
foC1wnQc,3pgqrazx15xrvqygpna1awvsi04ysb,32z9zlut1pxsynesz8u6tbmg8cxohc,foC1wnQc,2020-0188,2020-11-16,19:25:04,19:40:39,NA,incomplete,96,filling,1,0,left,Blue_Plus_Stripes_3.jpg,Red_Triangle_Stripes_4.jpg,Blue_Star_Dots_1.jpg,left,1209.725000000617,true,high,NA,NA,NA,NA,NA,NA,NA,false
foC1wnQc,3pgqrazx15xrvqygpna1awvsi04ysb,32z9zlut1pxsynesz8u6tbmg8cxohc,foC1wnQc,2020-0188,2020-11-16,19:25:04,19:40:39,NA,incomplete,97,filling,1,1,right,Blue_Triangle_Grid_2.jpg,Blue_Circle_Chess_4.jpg,Green_Plus_Grid_1.jpg,left,888.9750000016647,false,high,NA,NA,NA,NA,NA,NA,NA,false
foC1wnQc,3pgqrazx15xrvqygpna1awvsi04ysb,32z9zlut1pxsynesz8u6tbmg8cxohc,foC1wnQc,2020-0188,2020-11-16,19:25:04,19:40:39,NA,incomplete,98,filling,1,1,right,Green_Triangle_Chess_4.jpg,Green_Circle_Stripes_3.jpg,Red_Star_Chess_2.jpg,right,958.4050000048592,true,high,NA,NA,NA,NA,NA,NA,NA,false
foC1wnQc,3pgqrazx15xrvqygpna1awvsi04ysb,32z9zlut1pxsynesz8u6tbmg8cxohc,foC1wnQc,2020-0188,2020-11-16,19:25:04,19:40:39,NA,incomplete,99,filling,1,1,left,Green_Star_Chess_3.jpg,Blue_Plus_Chess_4.jpg,Green_Circle_Dots_2.jpg,left,1353.2950000007986,true,high,NA,NA,NA,NA,NA,NA,NA,false
foC1wnQc,3pgqrazx15xrvqygpna1awvsi04ysb,32z9zlut1pxsynesz8u6tbmg8cxohc,foC1wnQc,2020-0188,2020-11-16,19:25:04,19:40:39,NA,incomplete,100,color,0,0,left,Green_Circle_Dots_4.jpg,Green_Triangle_Grid_1.jpg,Red_Star_Dots_2.jpg,right,878.4549999982119,false,high,NA,NA,NA,NA,NA,NA,NA,false
foC1wnQc,3pgqrazx15xrvqygpna1awvsi04ysb,32z9zlut1pxsynesz8u6tbmg8cxohc,foC1wnQc,2020-0188,2020-11-16,19:25:04,19:40:39,NA,incomplete,101,color,0,1,left,Blue_Plus_Stripes_2.jpg,Blue_Star_Grid_1.jpg,Purple_Circle_Stripes_4.jpg,right,1245.8050000059302,false,high,NA,NA,NA,NA,NA,NA,NA,false
foC1wnQc,3pgqrazx15xrvqygpna1awvsi04ysb,32z9zlut1pxsynesz8u6tbmg8cxohc,foC1wnQc,2020-0188,2020-11-16,19:25:04,19:40:39,NA,incomplete,102,color,0,1,left,Green_Triangle_Dots_4.jpg,Green_Star_Grid_3.jpg,Purple_Circle_Dots_1.jpg,right,1022.9850000032457,false,high,NA,NA,NA,NA,NA,NA,NA,false
foC1wnQc,3pgqrazx15xrvqygpna1awvsi04ysb,32z9zlut1pxsynesz8u6tbmg8cxohc,foC1wnQc,2020-0188,2020-11-16,19:25:04,19:40:39,NA,incomplete,103,color,0,1,left,Green_Star_Dots_3.jpg,Green_Plus_Chess_2.jpg,Red_Circle_Dots_1.jpg,right,1074.5499999974854,false,high,NA,NA,NA,NA,NA,NA,NA,false
foC1wnQc,3pgqrazx15xrvqygpna1awvsi04ysb,32z9zlut1pxsynesz8u6tbmg8cxohc,foC1wnQc,2020-0188,2020-11-16,19:25:04,19:40:39,NA,incomplete,104,color,0,1,left,Blue_Circle_Dots_1.jpg,Blue_Plus_Grid_2.jpg,Green_Triangle_Dots_4.jpg,left,812.749999997206,true,high,NA,NA,NA,NA,NA,NA,NA,false
foC1wnQc,3pgqrazx15xrvqygpna1awvsi04ysb,32z9zlut1pxsynesz8u6tbmg8cxohc,foC1wnQc,2020-0188,2020-11-16,19:25:04,19:40:39,NA,incomplete,105,color,0,0,right,Purple_Circle_Stripes_3.jpg,Green_Plus_Stripes_2.jpg,Purple_Star_Chess_1.jpg,right,1705.3899999955902,true,high,NA,NA,NA,NA,NA,NA,NA,false
foC1wnQc,3pgqrazx15xrvqygpna1awvsi04ysb,32z9zlut1pxsynesz8u6tbmg8cxohc,foC1wnQc,2020-0188,2020-11-16,19:25:04,19:40:39,NA,incomplete,106,color,0,1,right,Purple_Triangle_Chess_4.jpg,Red_Star_Chess_3.jpg,Purple_Circle_Stripes_1.jpg,right,1132.660000002943,true,high,NA,NA,NA,NA,NA,NA,NA,false
foC1wnQc,3pgqrazx15xrvqygpna1awvsi04ysb,32z9zlut1pxsynesz8u6tbmg8cxohc,foC1wnQc,2020-0188,2020-11-16,19:25:04,19:40:39,NA,incomplete,107,color,0,1,right,Blue_Star_Stripes_4.jpg,Purple_Plus_Stripes_2.jpg,Blue_Triangle_Grid_3.jpg,right,772.4749999979977,true,high,NA,NA,NA,NA,NA,NA,NA,false
foC1wnQc,3pgqrazx15xrvqygpna1awvsi04ysb,32z9zlut1pxsynesz8u6tbmg8cxohc,foC1wnQc,2020-0188,2020-11-16,19:25:04,19:40:39,NA,incomplete,108,color,0,1,right,Green_Circle_Chess_4.jpg,Blue_Star_Chess_3.jpg,Green_Plus_Grid_2.jpg,right,492.89999999734573,true,high,NA,NA,NA,NA,NA,NA,NA,false
foC1wnQc,3pgqrazx15xrvqygpna1awvsi04ysb,32z9zlut1pxsynesz8u6tbmg8cxohc,foC1wnQc,2020-0188,2020-11-16,19:25:04,19:40:39,NA,incomplete,109,color,0,1,right,Blue_Triangle_Chess_4.jpg,Red_Star_Chess_3.jpg,Blue_Plus_Dots_2.jpg,right,593.0399999998044,true,high,NA,NA,NA,NA,NA,NA,NA,false
foC1wnQc,3pgqrazx15xrvqygpna1awvsi04ysb,32z9zlut1pxsynesz8u6tbmg8cxohc,foC1wnQc,2020-0188,2020-11-16,19:25:04,19:40:39,NA,incomplete,110,filling,1,1,left,Green_Circle_Grid_4.jpg,Blue_Triangle_Grid_1.jpg,Green_Plus_Stripes_2.jpg,right,504.90999999595806,false,high,NA,NA,NA,NA,NA,NA,NA,false
foC1wnQc,3pgqrazx15xrvqygpna1awvsi04ysb,32z9zlut1pxsynesz8u6tbmg8cxohc,foC1wnQc,2020-0188,2020-11-16,19:25:04,19:40:39,NA,incomplete,111,filling,1,1,right,Blue_Star_Grid_3.jpg,Blue_Plus_Chess_2.jpg,Green_Circle_Grid_1.jpg,left,678.959999997518,false,high,NA,NA,NA,NA,NA,NA,NA,false
foC1wnQc,3pgqrazx15xrvqygpna1awvsi04ysb,32z9zlut1pxsynesz8u6tbmg8cxohc,foC1wnQc,2020-0188,2020-11-16,19:25:04,19:40:39,NA,incomplete,112,filling,1,1,left,Red_Triangle_Grid_1.jpg,Blue_Plus_Grid_4.jpg,Red_Circle_Chess_2.jpg,left,1168.5099999958184,true,high,NA,NA,NA,NA,NA,NA,NA,false
foC1wnQc,3pgqrazx15xrvqygpna1awvsi04ysb,32z9zlut1pxsynesz8u6tbmg8cxohc,foC1wnQc,2020-0188,2020-11-16,19:25:04,19:40:39,NA,incomplete,113,filling,1,1,left,Purple_Triangle_Stripes_4.jpg,Green_Star_Stripes_3.jpg,Purple_Plus_Dots_1.jpg,left,900.1250000001164,true,high,NA,NA,NA,NA,NA,NA,NA,false
foC1wnQc,3pgqrazx15xrvqygpna1awvsi04ysb,32z9zlut1pxsynesz8u6tbmg8cxohc,foC1wnQc,2020-0188,2020-11-16,19:25:04,19:40:39,NA,incomplete,114,filling,1,1,right,Blue_Star_Chess_3.jpg,Blue_Circle_Dots_1.jpg,Green_Triangle_Chess_4.jpg,right,946.0449999968987,true,high,NA,NA,NA,NA,NA,NA,NA,false
foC1wnQc,3pgqrazx15xrvqygpna1awvsi04ysb,32z9zlut1pxsynesz8u6tbmg8cxohc,foC1wnQc,2020-0188,2020-11-16,19:25:04,19:40:39,NA,incomplete,115,filling,1,1,right,Blue_Star_Chess_1.jpg,Blue_Triangle_Stripes_2.jpg,Green_Plus_Chess_4.jpg,right,1063.5450000044657,true,high,NA,NA,NA,NA,NA,NA,NA,false
foC1wnQc,3pgqrazx15xrvqygpna1awvsi04ysb,32z9zlut1pxsynesz8u6tbmg8cxohc,foC1wnQc,2020-0188,2020-11-16,19:25:04,19:40:39,NA,incomplete,116,filling,1,0,left,Purple_Plus_Stripes_4.jpg,Green_Circle_Stripes_3.jpg,Purple_Star_Grid_2.jpg,left,1067.690000003553,true,high,NA,NA,NA,NA,NA,NA,NA,false
foC1wnQc,3pgqrazx15xrvqygpna1awvsi04ysb,32z9zlut1pxsynesz8u6tbmg8cxohc,foC1wnQc,2020-0188,2020-11-16,19:25:04,19:40:39,NA,incomplete,117,filling,1,1,right,Red_Star_Chess_3.jpg,Red_Circle_Grid_2.jpg,Purple_Plus_Chess_4.jpg,left,644.0000000002328,false,high,NA,NA,NA,NA,NA,NA,NA,false
foC1wnQc,3pgqrazx15xrvqygpna1awvsi04ysb,32z9zlut1pxsynesz8u6tbmg8cxohc,foC1wnQc,2020-0188,2020-11-16,19:25:04,19:40:39,NA,incomplete,118,filling,1,1,right,Purple_Circle_Dots_3.jpg,Purple_Triangle_Grid_2.jpg,Green_Plus_Dots_4.jpg,right,1036.2150000000838,true,high,NA,NA,NA,NA,NA,NA,NA,false
foC1wnQc,3pgqrazx15xrvqygpna1awvsi04ysb,32z9zlut1pxsynesz8u6tbmg8cxohc,foC1wnQc,2020-0188,2020-11-16,19:25:04,19:40:39,NA,incomplete,119,filling,1,1,right,Purple_Plus_Stripes_2.jpg,Purple_Triangle_Dots_3.jpg,Green_Star_Stripes_1.jpg,right,1138.489999997546,true,high,NA,NA,NA,NA,NA,NA,NA,false
foC1wnQc,3pgqrazx15xrvqygpna1awvsi04ysb,32z9zlut1pxsynesz8u6tbmg8cxohc,foC1wnQc,2020-0188,2020-11-16,19:25:04,19:40:39,NA,incomplete,120,race,2,1,right,A_M_07.jpg,C_M_05.jpg,A_F_08.jpg,NA,NA,NA,high,NA,NA,NA,NA,NA,NA,NA,false
foC1wnQc,3pgqrazx15xrvqygpna1awvsi04ysb,32z9zlut1pxsynesz8u6tbmg8cxohc,foC1wnQc,2020-0188,2020-11-16,19:25:04,19:40:39,NA,incomplete,121,race,2,1,right,A_M_06.jpg,C_M_10.jpg,A_F_08.jpg,right,921.7250000002095,true,high,NA,NA,NA,NA,NA,NA,NA,false
foC1wnQc,3pgqrazx15xrvqygpna1awvsi04ysb,32z9zlut1pxsynesz8u6tbmg8cxohc,foC1wnQc,2020-0188,2020-11-16,19:25:04,19:40:39,NA,incomplete,122,race,2,1,left,A_F_08.jpg,A_M_02.jpg,C_F_07.jpg,left,908.2599999965169,true,high,NA,NA,NA,NA,NA,NA,NA,false
foC1wnQc,3pgqrazx15xrvqygpna1awvsi04ysb,32z9zlut1pxsynesz8u6tbmg8cxohc,foC1wnQc,2020-0188,2020-11-16,19:25:04,19:40:39,NA,incomplete,123,race,2,1,left,C_F_09.jpg,C_M_07.jpg,A_F_03.jpg,left,1122.4550000042655,true,high,NA,NA,NA,NA,NA,NA,NA,false
foC1wnQc,3pgqrazx15xrvqygpna1awvsi04ysb,32z9zlut1pxsynesz8u6tbmg8cxohc,foC1wnQc,2020-0188,2020-11-16,19:25:04,19:40:39,NA,incomplete,124,race,2,0,right,A_F_14.jpg,C_F_09.jpg,A_M_02.jpg,right,954.390000006184,true,high,NA,NA,NA,NA,NA,NA,NA,false
foC1wnQc,3pgqrazx15xrvqygpna1awvsi04ysb,32z9zlut1pxsynesz8u6tbmg8cxohc,foC1wnQc,2020-0188,2020-11-16,19:25:04,19:40:39,NA,incomplete,125,race,2,1,right,A_F_01.jpg,C_F_02.jpg,A_M_03.jpg,right,1114.5299999988638,true,high,NA,NA,NA,NA,NA,NA,NA,false
foC1wnQc,3pgqrazx15xrvqygpna1awvsi04ysb,32z9zlut1pxsynesz8u6tbmg8cxohc,foC1wnQc,2020-0188,2020-11-16,19:25:04,19:40:39,NA,incomplete,126,race,2,1,right,A_F_10.jpg,C_F_14.jpg,A_M_12.jpg,right,900.809999999241,true,high,NA,NA,NA,NA,NA,NA,NA,false
foC1wnQc,3pgqrazx15xrvqygpna1awvsi04ysb,32z9zlut1pxsynesz8u6tbmg8cxohc,foC1wnQc,2020-0188,2020-11-16,19:25:04,19:40:39,NA,incomplete,127,race,2,1,left,C_M_05.jpg,C_F_06.jpg,A_M_12.jpg,right,1607.6099999990547,false,high,NA,NA,NA,NA,NA,NA,NA,false
foC1wnQc,3pgqrazx15xrvqygpna1awvsi04ysb,32z9zlut1pxsynesz8u6tbmg8cxohc,foC1wnQc,2020-0188,2020-11-16,19:25:04,19:40:39,NA,incomplete,128,race,2,0,left,A_M_15.jpg,A_F_10.jpg,C_M_12.jpg,left,1024.3550000013784,true,high,NA,NA,NA,NA,NA,NA,NA,false
foC1wnQc,3pgqrazx15xrvqygpna1awvsi04ysb,32z9zlut1pxsynesz8u6tbmg8cxohc,foC1wnQc,2020-0188,2020-11-16,19:25:04,19:40:39,NA,incomplete,129,race,2,1,left,A_F_14.jpg,A_M_03.jpg,C_F_01.jpg,left,1115.1500000051456,true,high,NA,NA,NA,NA,NA,NA,NA,false
foC1wnQc,3pgqrazx15xrvqygpna1awvsi04ysb,32z9zlut1pxsynesz8u6tbmg8cxohc,foC1wnQc,2020-0188,2020-11-16,19:25:04,19:40:39,NA,incomplete,130,race,2,0,left,C_M_07.jpg,C_F_11.jpg,A_M_06.jpg,left,1392.309999995632,true,high,NA,NA,NA,NA,NA,NA,NA,false
foC1wnQc,3pgqrazx15xrvqygpna1awvsi04ysb,32z9zlut1pxsynesz8u6tbmg8cxohc,foC1wnQc,2020-0188,2020-11-16,19:25:04,19:40:39,NA,incomplete,131,race,2,1,right,A_M_08.jpg,C_M_04.jpg,A_F_06.jpg,left,1188.2150000019465,false,high,NA,NA,NA,NA,NA,NA,NA,false
foC1wnQc,3pgqrazx15xrvqygpna1awvsi04ysb,32z9zlut1pxsynesz8u6tbmg8cxohc,foC1wnQc,2020-0188,2020-11-16,19:25:04,19:40:39,NA,incomplete,132,race,2,1,left,C_F_11.jpg,C_M_09.jpg,A_F_06.jpg,right,1341.004999994766,false,high,NA,NA,NA,NA,NA,NA,NA,false
foC1wnQc,3pgqrazx15xrvqygpna1awvsi04ysb,32z9zlut1pxsynesz8u6tbmg8cxohc,foC1wnQc,2020-0188,2020-11-16,19:25:04,19:40:39,NA,incomplete,133,race,2,1,right,C_F_03.jpg,A_F_16.jpg,C_M_06.jpg,right,1156.7250000006752,true,high,NA,NA,NA,NA,NA,NA,NA,false
foC1wnQc,3pgqrazx15xrvqygpna1awvsi04ysb,32z9zlut1pxsynesz8u6tbmg8cxohc,foC1wnQc,2020-0188,2020-11-16,19:25:04,19:40:39,NA,incomplete,134,race,2,0,left,C_M_10.jpg,C_F_15.jpg,A_M_06.jpg,left,1173.73499999661,true,high,NA,NA,NA,NA,NA,NA,NA,false
foC1wnQc,3pgqrazx15xrvqygpna1awvsi04ysb,32z9zlut1pxsynesz8u6tbmg8cxohc,foC1wnQc,2020-0188,2020-11-16,19:25:04,19:40:39,NA,incomplete,135,race,2,1,left,A_F_02.jpg,A_M_07.jpg,C_F_13.jpg,left,1264.0650000030873,true,high,NA,NA,NA,NA,NA,NA,NA,false
foC1wnQc,3pgqrazx15xrvqygpna1awvsi04ysb,32z9zlut1pxsynesz8u6tbmg8cxohc,foC1wnQc,2020-0188,2020-11-16,19:25:04,19:40:39,NA,incomplete,136,race,2,1,right,A_M_05.jpg,C_M_10.jpg,A_F_02.jpg,right,918.590000001248,true,high,NA,NA,NA,NA,NA,NA,NA,false
foC1wnQc,3pgqrazx15xrvqygpna1awvsi04ysb,32z9zlut1pxsynesz8u6tbmg8cxohc,foC1wnQc,2020-0188,2020-11-16,19:25:04,19:40:39,NA,incomplete,137,race,2,1,left,A_M_14.jpg,A_F_11.jpg,C_M_12.jpg,left,1043.8699999940582,true,high,NA,NA,NA,NA,NA,NA,NA,false
foC1wnQc,3pgqrazx15xrvqygpna1awvsi04ysb,32z9zlut1pxsynesz8u6tbmg8cxohc,foC1wnQc,2020-0188,2020-11-16,19:25:04,19:40:39,NA,incomplete,138,race,2,1,right,A_M_16.jpg,C_M_08.jpg,A_F_14.jpg,right,1037.2599999973318,true,high,NA,NA,NA,NA,NA,NA,NA,false
foC1wnQc,3pgqrazx15xrvqygpna1awvsi04ysb,32z9zlut1pxsynesz8u6tbmg8cxohc,foC1wnQc,2020-0188,2020-11-16,19:25:04,19:40:39,NA,incomplete,139,race,2,0,left,C_M_16.jpg,C_F_03.jpg,A_M_11.jpg,left,1315.2350000018487,true,high,NA,NA,NA,NA,NA,NA,NA,false
foC1wnQc,3pgqrazx15xrvqygpna1awvsi04ysb,32z9zlut1pxsynesz8u6tbmg8cxohc,foC1wnQc,2020-0188,2020-11-16,19:25:04,19:40:39,NA,incomplete,140,gender,3,1,right,C_F_02.jpg,C_M_07.jpg,A_F_14.jpg,left,1169.8050000049407,false,high,NA,NA,NA,NA,NA,NA,NA,false
foC1wnQc,3pgqrazx15xrvqygpna1awvsi04ysb,32z9zlut1pxsynesz8u6tbmg8cxohc,foC1wnQc,2020-0188,2020-11-16,19:25:04,19:40:39,NA,incomplete,141,gender,3,1,left,A_F_07.jpg,C_F_12.jpg,A_M_15.jpg,left,1026.68999999878,true,high,NA,NA,NA,NA,NA,NA,NA,false
foC1wnQc,3pgqrazx15xrvqygpna1awvsi04ysb,32z9zlut1pxsynesz8u6tbmg8cxohc,foC1wnQc,2020-0188,2020-11-16,19:25:04,19:40:39,NA,incomplete,142,gender,3,1,right,A_F_13.jpg,A_M_01.jpg,C_F_12.jpg,right,1088.6850000023842,true,high,NA,NA,NA,NA,NA,NA,NA,false
foC1wnQc,3pgqrazx15xrvqygpna1awvsi04ysb,32z9zlut1pxsynesz8u6tbmg8cxohc,foC1wnQc,2020-0188,2020-11-16,19:25:04,19:40:39,NA,incomplete,143,gender,3,1,right,C_F_08.jpg,C_M_06.jpg,A_F_04.jpg,right,1116.7100000020582,true,high,NA,NA,NA,NA,NA,NA,NA,false
foC1wnQc,3pgqrazx15xrvqygpna1awvsi04ysb,32z9zlut1pxsynesz8u6tbmg8cxohc,foC1wnQc,2020-0188,2020-11-16,19:25:04,19:40:39,NA,incomplete,144,gender,3,0,right,C_M_14.jpg,C_F_13.jpg,A_M_09.jpg,right,1012.3649999951012,true,high,NA,NA,NA,NA,NA,NA,NA,false
foC1wnQc,3pgqrazx15xrvqygpna1awvsi04ysb,32z9zlut1pxsynesz8u6tbmg8cxohc,foC1wnQc,2020-0188,2020-11-16,19:25:04,19:40:39,NA,incomplete,145,gender,3,1,right,C_F_13.jpg,C_M_04.jpg,A_F_11.jpg,right,1035.6549999996787,true,high,NA,NA,NA,NA,NA,NA,NA,false
foC1wnQc,3pgqrazx15xrvqygpna1awvsi04ysb,32z9zlut1pxsynesz8u6tbmg8cxohc,foC1wnQc,2020-0188,2020-11-16,19:25:04,19:40:39,NA,incomplete,146,gender,3,1,right,C_M_06.jpg,C_F_04.jpg,A_M_11.jpg,right,1113.9599999950733,true,high,NA,NA,NA,NA,NA,NA,NA,false
foC1wnQc,3pgqrazx15xrvqygpna1awvsi04ysb,32z9zlut1pxsynesz8u6tbmg8cxohc,foC1wnQc,2020-0188,2020-11-16,19:25:04,19:40:39,NA,incomplete,147,gender,3,1,right,C_M_03.jpg,C_F_13.jpg,A_M_15.jpg,right,689.9350000021514,true,high,NA,NA,NA,NA,NA,NA,NA,false
foC1wnQc,3pgqrazx15xrvqygpna1awvsi04ysb,32z9zlut1pxsynesz8u6tbmg8cxohc,foC1wnQc,2020-0188,2020-11-16,19:25:04,19:40:39,NA,incomplete,148,gender,3,0,right,A_F_10.jpg,A_M_08.jpg,C_F_03.jpg,right,804.649999998277,true,high,NA,NA,NA,NA,NA,NA,NA,false
foC1wnQc,3pgqrazx15xrvqygpna1awvsi04ysb,32z9zlut1pxsynesz8u6tbmg8cxohc,foC1wnQc,2020-0188,2020-11-16,19:25:04,19:40:39,NA,incomplete,149,gender,3,1,left,A_M_06.jpg,C_M_08.jpg,A_F_16.jpg,left,978.8249999983236,true,high,NA,NA,NA,NA,NA,NA,NA,false
foC1wnQc,3pgqrazx15xrvqygpna1awvsi04ysb,32z9zlut1pxsynesz8u6tbmg8cxohc,foC1wnQc,2020-0188,2020-11-16,19:25:04,19:40:39,NA,incomplete,150,gender,3,1,right,A_M_10.jpg,A_F_06.jpg,C_M_09.jpg,right,951.7249999990454,true,high,NA,NA,NA,NA,NA,NA,NA,false
foC1wnQc,3pgqrazx15xrvqygpna1awvsi04ysb,32z9zlut1pxsynesz8u6tbmg8cxohc,foC1wnQc,2020-0188,2020-11-16,19:25:04,19:40:39,NA,incomplete,151,gender,3,0,right,A_M_06.jpg,A_F_10.jpg,C_M_11.jpg,right,1104.0700000012293,true,high,NA,NA,NA,NA,NA,NA,NA,false
foC1wnQc,3pgqrazx15xrvqygpna1awvsi04ysb,32z9zlut1pxsynesz8u6tbmg8cxohc,foC1wnQc,2020-0188,2020-11-16,19:25:04,19:40:39,NA,incomplete,152,gender,3,1,left,A_M_13.jpg,C_M_04.jpg,A_F_07.jpg,right,1059.0149999988498,false,high,NA,NA,NA,NA,NA,NA,NA,false
foC1wnQc,3pgqrazx15xrvqygpna1awvsi04ysb,32z9zlut1pxsynesz8u6tbmg8cxohc,foC1wnQc,2020-0188,2020-11-16,19:25:04,19:40:39,NA,incomplete,153,gender,3,0,right,C_M_14.jpg,C_F_05.jpg,A_M_16.jpg,right,1280.7900000043446,true,high,NA,NA,NA,NA,NA,NA,NA,false
foC1wnQc,3pgqrazx15xrvqygpna1awvsi04ysb,32z9zlut1pxsynesz8u6tbmg8cxohc,foC1wnQc,2020-0188,2020-11-16,19:25:04,19:40:39,NA,incomplete,154,gender,3,1,right,A_F_06.jpg,A_M_08.jpg,C_F_04.jpg,right,1150.88999999722,true,high,NA,NA,NA,NA,NA,NA,NA,false
foC1wnQc,3pgqrazx15xrvqygpna1awvsi04ysb,32z9zlut1pxsynesz8u6tbmg8cxohc,foC1wnQc,2020-0188,2020-11-16,19:25:04,19:40:39,NA,incomplete,155,gender,3,0,right,A_M_08.jpg,A_F_15.jpg,C_M_06.jpg,right,1370.9300000045914,true,high,NA,NA,NA,NA,NA,NA,NA,false
foC1wnQc,3pgqrazx15xrvqygpna1awvsi04ysb,32z9zlut1pxsynesz8u6tbmg8cxohc,foC1wnQc,2020-0188,2020-11-16,19:25:04,19:40:39,NA,incomplete,156,gender,3,1,right,C_M_13.jpg,C_F_10.jpg,A_M_05.jpg,right,1485.8900000035064,true,high,NA,NA,NA,NA,NA,NA,NA,false
foC1wnQc,3pgqrazx15xrvqygpna1awvsi04ysb,32z9zlut1pxsynesz8u6tbmg8cxohc,foC1wnQc,2020-0188,2020-11-16,19:25:04,19:40:39,NA,incomplete,157,gender,3,0,right,A_F_03.jpg,A_M_12.jpg,C_F_08.jpg,right,1020.6299999991897,true,high,NA,NA,NA,NA,NA,NA,NA,false
foC1wnQc,3pgqrazx15xrvqygpna1awvsi04ysb,32z9zlut1pxsynesz8u6tbmg8cxohc,foC1wnQc,2020-0188,2020-11-16,19:25:04,19:40:39,NA,incomplete,158,gender,3,1,left,A_M_10.jpg,C_M_12.jpg,A_F_11.jpg,right,1413.0149999982677,false,high,NA,NA,NA,NA,NA,NA,NA,false
foC1wnQc,3pgqrazx15xrvqygpna1awvsi04ysb,32z9zlut1pxsynesz8u6tbmg8cxohc,foC1wnQc,2020-0188,2020-11-16,19:25:04,19:40:39,NA,incomplete,159,gender,3,1,right,A_F_05.jpg,A_M_14.jpg,C_F_10.jpg,right,1576.7999999951571,true,high,NA,NA,NA,NA,NA,NA,NA,false
foC1wnQc,3pgqrazx15xrvqygpna1awvsi04ysb,32z9zlut1pxsynesz8u6tbmg8cxohc,foC1wnQc,2020-0188,2020-11-16,19:25:04,19:40:39,NA,incomplete,160,race,2,0,right,C_F_14.jpg,A_F_09.jpg,C_M_06.jpg,left,1139.5049999991897,false,high,NA,NA,NA,NA,NA,NA,NA,false
foC1wnQc,3pgqrazx15xrvqygpna1awvsi04ysb,32z9zlut1pxsynesz8u6tbmg8cxohc,foC1wnQc,2020-0188,2020-11-16,19:25:04,19:40:39,NA,incomplete,161,race,2,1,left,C_F_15.jpg,C_M_11.jpg,A_F_06.jpg,right,1232.4799999987008,false,high,NA,NA,NA,NA,NA,NA,NA,false
foC1wnQc,3pgqrazx15xrvqygpna1awvsi04ysb,32z9zlut1pxsynesz8u6tbmg8cxohc,foC1wnQc,2020-0188,2020-11-16,19:25:04,19:40:39,NA,incomplete,162,race,2,1,left,A_F_06.jpg,A_M_11.jpg,C_F_02.jpg,right,1407.6199999980163,false,high,NA,NA,NA,NA,NA,NA,NA,false
foC1wnQc,3pgqrazx15xrvqygpna1awvsi04ysb,32z9zlut1pxsynesz8u6tbmg8cxohc,foC1wnQc,2020-0188,2020-11-16,19:25:04,19:40:39,NA,incomplete,163,race,2,1,right,C_F_09.jpg,A_F_07.jpg,C_M_15.jpg,right,1226.2699999990873,true,high,NA,NA,NA,NA,NA,NA,NA,false
foC1wnQc,3pgqrazx15xrvqygpna1awvsi04ysb,32z9zlut1pxsynesz8u6tbmg8cxohc,foC1wnQc,2020-0188,2020-11-16,19:25:04,19:40:39,NA,incomplete,164,race,2,1,left,C_M_07.jpg,C_F_10.jpg,A_M_15.jpg,left,887.0850000020582,true,high,NA,NA,NA,NA,NA,NA,NA,false
foC1wnQc,3pgqrazx15xrvqygpna1awvsi04ysb,32z9zlut1pxsynesz8u6tbmg8cxohc,foC1wnQc,2020-0188,2020-11-16,19:25:04,19:40:39,NA,incomplete,165,race,2,1,right,C_F_14.jpg,A_F_04.jpg,C_M_13.jpg,right,851.9149999993388,true,high,NA,NA,NA,NA,NA,NA,NA,false
foC1wnQc,3pgqrazx15xrvqygpna1awvsi04ysb,32z9zlut1pxsynesz8u6tbmg8cxohc,foC1wnQc,2020-0188,2020-11-16,19:25:04,19:40:39,NA,incomplete,166,race,2,0,right,C_F_14.jpg,A_F_12.jpg,C_M_08.jpg,right,984.3599999949802,true,high,NA,NA,NA,NA,NA,NA,NA,false
foC1wnQc,3pgqrazx15xrvqygpna1awvsi04ysb,32z9zlut1pxsynesz8u6tbmg8cxohc,foC1wnQc,2020-0188,2020-11-16,19:25:04,19:40:39,NA,incomplete,167,race,2,1,right,C_M_15.jpg,A_M_03.jpg,C_F_06.jpg,right,1012.0500000048196,true,high,NA,NA,NA,NA,NA,NA,NA,false
foC1wnQc,3pgqrazx15xrvqygpna1awvsi04ysb,32z9zlut1pxsynesz8u6tbmg8cxohc,foC1wnQc,2020-0188,2020-11-16,19:25:04,19:40:39,NA,incomplete,168,race,2,1,left,A_M_09.jpg,A_F_03.jpg,C_M_11.jpg,left,1254.4899999994086,true,high,NA,NA,NA,NA,NA,NA,NA,false
foC1wnQc,3pgqrazx15xrvqygpna1awvsi04ysb,32z9zlut1pxsynesz8u6tbmg8cxohc,foC1wnQc,2020-0188,2020-11-16,19:25:04,19:40:39,NA,incomplete,169,race,2,0,left,A_F_06.jpg,A_M_10.jpg,C_F_15.jpg,right,1070.86499999417,false,high,NA,NA,NA,NA,NA,NA,NA,false
foC1wnQc,3pgqrazx15xrvqygpna1awvsi04ysb,32z9zlut1pxsynesz8u6tbmg8cxohc,foC1wnQc,2020-0188,2020-11-16,19:25:04,19:40:39,NA,incomplete,170,race,2,1,left,C_M_12.jpg,C_F_04.jpg,A_M_02.jpg,left,1197.1150000027847,true,high,NA,NA,NA,NA,NA,NA,NA,false
foC1wnQc,3pgqrazx15xrvqygpna1awvsi04ysb,32z9zlut1pxsynesz8u6tbmg8cxohc,foC1wnQc,2020-0188,2020-11-16,19:25:04,19:40:39,NA,incomplete,171,race,2,1,left,C_M_05.jpg,C_F_15.jpg,A_M_12.jpg,left,1205.2299999996321,true,high,NA,NA,NA,NA,NA,NA,NA,false
foC1wnQc,3pgqrazx15xrvqygpna1awvsi04ysb,32z9zlut1pxsynesz8u6tbmg8cxohc,foC1wnQc,2020-0188,2020-11-16,19:25:04,19:40:39,NA,incomplete,172,race,2,1,right,A_M_02.jpg,C_M_13.jpg,A_F_05.jpg,left,1262.5350000017788,false,high,NA,NA,NA,NA,NA,NA,NA,false
foC1wnQc,3pgqrazx15xrvqygpna1awvsi04ysb,32z9zlut1pxsynesz8u6tbmg8cxohc,foC1wnQc,2020-0188,2020-11-16,19:25:04,19:40:39,NA,incomplete,173,race,2,1,right,A_M_14.jpg,C_M_03.jpg,A_F_11.jpg,left,1270.5450000066776,false,high,NA,NA,NA,NA,NA,NA,NA,false
foC1wnQc,3pgqrazx15xrvqygpna1awvsi04ysb,32z9zlut1pxsynesz8u6tbmg8cxohc,foC1wnQc,2020-0188,2020-11-16,19:25:04,19:40:39,NA,incomplete,174,race,2,1,right,A_F_04.jpg,C_F_12.jpg,A_M_10.jpg,right,1108.0999999976484,true,high,NA,NA,NA,NA,NA,NA,NA,false
foC1wnQc,3pgqrazx15xrvqygpna1awvsi04ysb,32z9zlut1pxsynesz8u6tbmg8cxohc,foC1wnQc,2020-0188,2020-11-16,19:25:04,19:40:39,NA,incomplete,175,race,2,1,right,A_M_04.jpg,C_M_13.jpg,A_F_16.jpg,right,1135.19500000251,true,high,NA,NA,NA,NA,NA,NA,NA,false
foC1wnQc,3pgqrazx15xrvqygpna1awvsi04ysb,32z9zlut1pxsynesz8u6tbmg8cxohc,foC1wnQc,2020-0188,2020-11-16,19:25:04,19:40:39,NA,incomplete,176,race,2,1,right,C_M_04.jpg,A_M_07.jpg,C_F_16.jpg,right,1171.409999995376,true,high,NA,NA,NA,NA,NA,NA,NA,false
foC1wnQc,3pgqrazx15xrvqygpna1awvsi04ysb,32z9zlut1pxsynesz8u6tbmg8cxohc,foC1wnQc,2020-0188,2020-11-16,19:25:04,19:40:39,NA,incomplete,177,race,2,0,right,A_F_06.jpg,C_F_10.jpg,A_M_12.jpg,right,1401.9849999968428,true,high,NA,NA,NA,NA,NA,NA,NA,false
foC1wnQc,3pgqrazx15xrvqygpna1awvsi04ysb,32z9zlut1pxsynesz8u6tbmg8cxohc,foC1wnQc,2020-0188,2020-11-16,19:25:04,19:40:39,NA,incomplete,178,race,2,1,right,A_M_11.jpg,C_M_14.jpg,A_F_07.jpg,right,764.8350000018254,true,high,NA,NA,NA,NA,NA,NA,NA,false
foC1wnQc,3pgqrazx15xrvqygpna1awvsi04ysb,32z9zlut1pxsynesz8u6tbmg8cxohc,foC1wnQc,2020-0188,2020-11-16,19:25:04,19:40:39,NA,incomplete,179,race,2,1,left,A_F_13.jpg,A_M_07.jpg,C_F_01.jpg,left,843.0300000036368,true,high,NA,NA,NA,NA,NA,NA,NA,false
foC1wnQc,3pgqrazx15xrvqygpna1awvsi04ysb,32z9zlut1pxsynesz8u6tbmg8cxohc,foC1wnQc,2020-0188,2020-11-16,19:25:04,19:40:39,NA,incomplete,180,gender,3,1,right,A_F_14.jpg,A_M_08.jpg,C_F_16.jpg,left,1223.6250000060536,false,high,NA,NA,NA,NA,NA,NA,NA,false
foC1wnQc,3pgqrazx15xrvqygpna1awvsi04ysb,32z9zlut1pxsynesz8u6tbmg8cxohc,foC1wnQc,2020-0188,2020-11-16,19:25:04,19:40:39,NA,incomplete,181,gender,3,1,right,C_M_07.jpg,C_F_11.jpg,A_M_16.jpg,left,1188.5699999984354,false,high,NA,NA,NA,NA,NA,NA,NA,false
foC1wnQc,3pgqrazx15xrvqygpna1awvsi04ysb,32z9zlut1pxsynesz8u6tbmg8cxohc,foC1wnQc,2020-0188,2020-11-16,19:25:04,19:40:39,NA,incomplete,182,gender,3,1,left,A_F_05.jpg,C_F_03.jpg,A_M_10.jpg,left,1051.4249999978347,true,high,NA,NA,NA,NA,NA,NA,NA,false
foC1wnQc,3pgqrazx15xrvqygpna1awvsi04ysb,32z9zlut1pxsynesz8u6tbmg8cxohc,foC1wnQc,2020-0188,2020-11-16,19:25:04,19:40:39,NA,incomplete,183,gender,3,1,left,C_M_07.jpg,A_M_03.jpg,C_F_05.jpg,left,1072.6399999985006,true,high,NA,NA,NA,NA,NA,NA,NA,false
foC1wnQc,3pgqrazx15xrvqygpna1awvsi04ysb,32z9zlut1pxsynesz8u6tbmg8cxohc,foC1wnQc,2020-0188,2020-11-16,19:25:04,19:40:39,NA,incomplete,184,gender,3,1,left,C_M_04.jpg,A_M_07.jpg,C_F_06.jpg,left,958.6550000022398,true,high,NA,NA,NA,NA,NA,NA,NA,false
foC1wnQc,3pgqrazx15xrvqygpna1awvsi04ysb,32z9zlut1pxsynesz8u6tbmg8cxohc,foC1wnQc,2020-0188,2020-11-16,19:25:04,19:40:39,NA,incomplete,185,gender,3,0,right,C_F_09.jpg,C_M_13.jpg,A_F_10.jpg,right,1074.414999995497,true,high,NA,NA,NA,NA,NA,NA,NA,false
foC1wnQc,3pgqrazx15xrvqygpna1awvsi04ysb,32z9zlut1pxsynesz8u6tbmg8cxohc,foC1wnQc,2020-0188,2020-11-16,19:25:04,19:40:39,NA,incomplete,186,gender,3,1,right,C_M_10.jpg,C_F_14.jpg,A_M_13.jpg,right,914.5300000017742,true,high,NA,NA,NA,NA,NA,NA,NA,false
foC1wnQc,3pgqrazx15xrvqygpna1awvsi04ysb,32z9zlut1pxsynesz8u6tbmg8cxohc,foC1wnQc,2020-0188,2020-11-16,19:25:04,19:40:39,NA,incomplete,187,gender,3,1,right,C_F_07.jpg,C_M_13.jpg,A_F_04.jpg,right,935.6599999954924,true,high,NA,NA,NA,NA,NA,NA,NA,false
foC1wnQc,3pgqrazx15xrvqygpna1awvsi04ysb,32z9zlut1pxsynesz8u6tbmg8cxohc,foC1wnQc,2020-0188,2020-11-16,19:25:04,19:40:39,NA,incomplete,188,gender,3,1,left,C_F_16.jpg,A_F_03.jpg,C_M_14.jpg,left,964.1699999993434,true,high,NA,NA,NA,NA,NA,NA,NA,false
foC1wnQc,3pgqrazx15xrvqygpna1awvsi04ysb,32z9zlut1pxsynesz8u6tbmg8cxohc,foC1wnQc,2020-0188,2020-11-16,19:25:04,19:40:39,NA,incomplete,189,gender,3,0,right,C_F_13.jpg,C_M_14.jpg,A_F_02.jpg,right,1070.7350000011502,true,high,NA,NA,NA,NA,NA,NA,NA,false
foC1wnQc,3pgqrazx15xrvqygpna1awvsi04ysb,32z9zlut1pxsynesz8u6tbmg8cxohc,foC1wnQc,2020-0188,2020-11-16,19:25:04,19:40:39,NA,incomplete,190,gender,3,1,left,A_M_02.jpg,C_M_14.jpg,A_F_16.jpg,left,1055.6599999980535,true,high,NA,NA,NA,NA,NA,NA,NA,false
foC1wnQc,3pgqrazx15xrvqygpna1awvsi04ysb,32z9zlut1pxsynesz8u6tbmg8cxohc,foC1wnQc,2020-0188,2020-11-16,19:25:04,19:40:39,NA,incomplete,191,gender,3,1,right,C_F_11.jpg,C_M_13.jpg,A_F_06.jpg,right,1212.4899999980116,true,high,NA,NA,NA,NA,NA,NA,NA,false
foC1wnQc,3pgqrazx15xrvqygpna1awvsi04ysb,32z9zlut1pxsynesz8u6tbmg8cxohc,foC1wnQc,2020-0188,2020-11-16,19:25:04,19:40:39,NA,incomplete,192,gender,3,1,left,A_M_06.jpg,C_M_01.jpg,A_F_16.jpg,left,934.7500000003492,true,high,NA,NA,NA,NA,NA,NA,NA,false
foC1wnQc,3pgqrazx15xrvqygpna1awvsi04ysb,32z9zlut1pxsynesz8u6tbmg8cxohc,foC1wnQc,2020-0188,2020-11-16,19:25:04,19:40:39,NA,incomplete,193,gender,3,0,right,A_M_15.jpg,A_F_04.jpg,C_M_16.jpg,right,1252.3100000035483,true,high,NA,NA,NA,NA,NA,NA,NA,false
foC1wnQc,3pgqrazx15xrvqygpna1awvsi04ysb,32z9zlut1pxsynesz8u6tbmg8cxohc,foC1wnQc,2020-0188,2020-11-16,19:25:04,19:40:39,NA,incomplete,194,gender,3,1,right,C_F_10.jpg,C_M_11.jpg,A_F_03.jpg,right,805.5450000028359,true,high,NA,NA,NA,NA,NA,NA,NA,false
foC1wnQc,3pgqrazx15xrvqygpna1awvsi04ysb,32z9zlut1pxsynesz8u6tbmg8cxohc,foC1wnQc,2020-0188,2020-11-16,19:25:04,19:40:39,NA,incomplete,195,gender,3,1,right,A_M_13.jpg,A_F_10.jpg,C_M_12.jpg,right,1356.0599999983096,true,high,NA,NA,NA,NA,NA,NA,NA,false
foC1wnQc,3pgqrazx15xrvqygpna1awvsi04ysb,32z9zlut1pxsynesz8u6tbmg8cxohc,foC1wnQc,2020-0188,2020-11-16,19:25:04,19:40:39,NA,incomplete,196,gender,3,1,left,C_M_05.jpg,A_M_04.jpg,C_F_11.jpg,left,931.0150000018766,true,high,NA,NA,NA,NA,NA,NA,NA,false
foC1wnQc,3pgqrazx15xrvqygpna1awvsi04ysb,32z9zlut1pxsynesz8u6tbmg8cxohc,foC1wnQc,2020-0188,2020-11-16,19:25:04,19:40:39,NA,incomplete,197,gender,3,1,right,C_M_09.jpg,C_F_13.jpg,A_M_12.jpg,right,930.9450000000652,true,high,NA,NA,NA,NA,NA,NA,NA,false
foC1wnQc,3pgqrazx15xrvqygpna1awvsi04ysb,32z9zlut1pxsynesz8u6tbmg8cxohc,foC1wnQc,2020-0188,2020-11-16,19:25:04,19:40:39,NA,incomplete,198,gender,3,1,right,A_F_09.jpg,A_M_04.jpg,C_F_08.jpg,right,909.4200000036508,true,high,NA,NA,NA,NA,NA,NA,NA,false
foC1wnQc,3pgqrazx15xrvqygpna1awvsi04ysb,32z9zlut1pxsynesz8u6tbmg8cxohc,foC1wnQc,2020-0188,2020-11-16,19:25:04,19:40:39,NA,incomplete,199,gender,3,1,left,A_M_11.jpg,C_M_01.jpg,A_F_14.jpg,left,1040.2299999987008,true,high,NA,NA,NA,NA,NA,NA,NA,false
foC1wnQc,3pgqrazx15xrvqygpna1awvsi04ysb,32z9zlut1pxsynesz8u6tbmg8cxohc,foC1wnQc,2020-0188,2020-11-16,19:25:04,19:40:39,NA,incomplete,200,race,2,0,right,C_M_02.jpg,A_M_10.jpg,C_F_16.jpg,left,1053.6749999955064,false,high,NA,NA,NA,NA,NA,NA,NA,false
foC1wnQc,3pgqrazx15xrvqygpna1awvsi04ysb,32z9zlut1pxsynesz8u6tbmg8cxohc,foC1wnQc,2020-0188,2020-11-16,19:25:04,19:40:39,NA,incomplete,201,race,2,1,left,C_F_13.jpg,C_M_03.jpg,A_F_16.jpg,right,824.5400000014342,false,high,NA,NA,NA,NA,NA,NA,NA,false
foC1wnQc,3pgqrazx15xrvqygpna1awvsi04ysb,32z9zlut1pxsynesz8u6tbmg8cxohc,foC1wnQc,2020-0188,2020-11-16,19:25:04,19:40:39,NA,incomplete,202,race,2,0,left,C_M_11.jpg,C_F_06.jpg,A_M_05.jpg,right,1035.0400000025984,false,high,NA,NA,NA,NA,NA,NA,NA,false
foC1wnQc,3pgqrazx15xrvqygpna1awvsi04ysb,32z9zlut1pxsynesz8u6tbmg8cxohc,foC1wnQc,2020-0188,2020-11-16,19:25:04,19:40:39,NA,incomplete,203,race,2,1,left,C_M_13.jpg,C_F_07.jpg,A_M_04.jpg,right,909.7949999995762,false,high,NA,NA,NA,NA,NA,NA,NA,false
foC1wnQc,3pgqrazx15xrvqygpna1awvsi04ysb,32z9zlut1pxsynesz8u6tbmg8cxohc,foC1wnQc,2020-0188,2020-11-16,19:25:04,19:40:39,NA,incomplete,204,race,2,1,right,A_F_06.jpg,C_F_08.jpg,A_M_07.jpg,right,1095.04000000027,true,high,NA,NA,NA,NA,NA,NA,NA,false
foC1wnQc,3pgqrazx15xrvqygpna1awvsi04ysb,32z9zlut1pxsynesz8u6tbmg8cxohc,foC1wnQc,2020-0188,2020-11-16,19:25:04,19:40:39,NA,incomplete,205,race,2,1,left,C_M_13.jpg,C_F_07.jpg,A_M_04.jpg,left,1026.3449999983422,true,high,NA,NA,NA,NA,NA,NA,NA,false
foC1wnQc,3pgqrazx15xrvqygpna1awvsi04ysb,32z9zlut1pxsynesz8u6tbmg8cxohc,foC1wnQc,2020-0188,2020-11-16,19:25:04,19:40:39,NA,incomplete,206,race,2,1,left,A_M_11.jpg,A_F_02.jpg,C_M_01.jpg,right,1063.3650000018533,false,high,NA,NA,NA,NA,NA,NA,NA,false
foC1wnQc,3pgqrazx15xrvqygpna1awvsi04ysb,32z9zlut1pxsynesz8u6tbmg8cxohc,foC1wnQc,2020-0188,2020-11-16,19:25:04,19:40:39,NA,incomplete,207,race,2,0,right,A_F_13.jpg,C_F_06.jpg,A_M_14.jpg,right,1147.9800000014948,true,high,NA,NA,NA,NA,NA,NA,NA,false
foC1wnQc,3pgqrazx15xrvqygpna1awvsi04ysb,32z9zlut1pxsynesz8u6tbmg8cxohc,foC1wnQc,2020-0188,2020-11-16,19:25:04,19:40:39,NA,incomplete,208,race,2,1,right,C_F_04.jpg,A_F_15.jpg,C_M_02.jpg,right,1538.0500000028405,true,high,NA,NA,NA,NA,NA,NA,NA,false
foC1wnQc,3pgqrazx15xrvqygpna1awvsi04ysb,32z9zlut1pxsynesz8u6tbmg8cxohc,foC1wnQc,2020-0188,2020-11-16,19:25:04,19:40:39,NA,incomplete,209,race,2,0,right,C_F_16.jpg,A_F_09.jpg,C_M_11.jpg,right,1453.8300000057789,true,high,NA,NA,NA,NA,NA,NA,NA,false
foC1wnQc,3pgqrazx15xrvqygpna1awvsi04ysb,32z9zlut1pxsynesz8u6tbmg8cxohc,foC1wnQc,2020-0188,2020-11-16,19:25:04,19:40:39,NA,incomplete,210,race,2,1,left,C_F_16.jpg,C_M_04.jpg,A_F_06.jpg,left,1016.5899999992689,true,high,NA,NA,NA,NA,NA,NA,NA,false
foC1wnQc,3pgqrazx15xrvqygpna1awvsi04ysb,32z9zlut1pxsynesz8u6tbmg8cxohc,foC1wnQc,2020-0188,2020-11-16,19:25:04,19:40:39,NA,incomplete,211,race,2,1,right,A_F_09.jpg,C_F_04.jpg,A_M_15.jpg,right,1231.5750000053085,true,high,NA,NA,NA,NA,NA,NA,NA,false
foC1wnQc,3pgqrazx15xrvqygpna1awvsi04ysb,32z9zlut1pxsynesz8u6tbmg8cxohc,foC1wnQc,2020-0188,2020-11-16,19:25:04,19:40:39,NA,incomplete,212,race,2,1,left,C_M_13.jpg,C_F_12.jpg,A_M_06.jpg,left,1073.6450000039767,true,high,NA,NA,NA,NA,NA,NA,NA,false
foC1wnQc,3pgqrazx15xrvqygpna1awvsi04ysb,32z9zlut1pxsynesz8u6tbmg8cxohc,foC1wnQc,2020-0188,2020-11-16,19:25:04,19:40:39,NA,incomplete,213,race,2,1,left,A_M_10.jpg,A_F_13.jpg,C_M_16.jpg,left,1072.8450000023004,true,high,NA,NA,NA,NA,NA,NA,NA,false
foC1wnQc,3pgqrazx15xrvqygpna1awvsi04ysb,32z9zlut1pxsynesz8u6tbmg8cxohc,foC1wnQc,2020-0188,2020-11-16,19:25:04,19:40:39,NA,incomplete,214,race,2,1,left,C_M_05.jpg,C_F_15.jpg,A_M_10.jpg,left,1081.8549999967217,true,high,NA,NA,NA,NA,NA,NA,NA,false
foC1wnQc,3pgqrazx15xrvqygpna1awvsi04ysb,32z9zlut1pxsynesz8u6tbmg8cxohc,foC1wnQc,2020-0188,2020-11-16,19:25:04,19:40:39,NA,incomplete,215,race,2,1,left,C_M_15.jpg,C_F_06.jpg,A_M_10.jpg,left,1211.2550000019837,true,high,NA,NA,NA,NA,NA,NA,NA,false
foC1wnQc,3pgqrazx15xrvqygpna1awvsi04ysb,32z9zlut1pxsynesz8u6tbmg8cxohc,foC1wnQc,2020-0188,2020-11-16,19:25:04,19:40:39,NA,incomplete,216,race,2,1,left,A_F_05.jpg,A_M_10.jpg,C_F_13.jpg,left,1117.120000002673,true,high,NA,NA,NA,NA,NA,NA,NA,false
foC1wnQc,3pgqrazx15xrvqygpna1awvsi04ysb,32z9zlut1pxsynesz8u6tbmg8cxohc,foC1wnQc,2020-0188,2020-11-16,19:25:04,19:40:39,NA,incomplete,217,race,2,1,right,C_F_16.jpg,A_F_15.jpg,C_M_05.jpg,right,884.2850000000326,true,high,NA,NA,NA,NA,NA,NA,NA,false
foC1wnQc,3pgqrazx15xrvqygpna1awvsi04ysb,32z9zlut1pxsynesz8u6tbmg8cxohc,foC1wnQc,2020-0188,2020-11-16,19:25:04,19:40:39,NA,incomplete,218,race,2,1,left,C_F_13.jpg,C_M_11.jpg,A_F_02.jpg,left,1322.8799999996554,true,high,NA,NA,NA,NA,NA,NA,NA,false
foC1wnQc,3pgqrazx15xrvqygpna1awvsi04ysb,32z9zlut1pxsynesz8u6tbmg8cxohc,foC1wnQc,2020-0188,2020-11-16,19:25:04,19:40:39,NA,incomplete,219,race,2,1,left,A_F_08.jpg,A_M_10.jpg,C_F_01.jpg,left,864.4449999993667,true,high,NA,NA,NA,NA,NA,NA,NA,false
foC1wnQc,3pgqrazx15xrvqygpna1awvsi04ysb,32z9zlut1pxsynesz8u6tbmg8cxohc,foC1wnQc,2020-0188,2020-11-16,19:25:04,19:40:39,NA,incomplete,220,gender,3,1,right,A_F_12.jpg,A_M_07.jpg,C_F_06.jpg,left,856.9100000022445,false,high,NA,NA,NA,NA,NA,NA,NA,false
foC1wnQc,3pgqrazx15xrvqygpna1awvsi04ysb,32z9zlut1pxsynesz8u6tbmg8cxohc,foC1wnQc,2020-0188,2020-11-16,19:25:04,19:40:39,NA,incomplete,221,gender,3,1,left,C_F_05.jpg,A_F_16.jpg,C_M_02.jpg,right,1038.9799999975367,false,high,NA,NA,NA,NA,NA,NA,NA,false
foC1wnQc,3pgqrazx15xrvqygpna1awvsi04ysb,32z9zlut1pxsynesz8u6tbmg8cxohc,foC1wnQc,2020-0188,2020-11-16,19:25:04,19:40:39,NA,incomplete,222,gender,3,0,left,C_M_01.jpg,A_M_13.jpg,C_F_15.jpg,left,812.6949999931967,true,high,NA,NA,NA,NA,NA,NA,NA,false
foC1wnQc,3pgqrazx15xrvqygpna1awvsi04ysb,32z9zlut1pxsynesz8u6tbmg8cxohc,foC1wnQc,2020-0188,2020-11-16,19:25:04,19:40:39,NA,incomplete,223,gender,3,1,right,C_M_06.jpg,C_F_11.jpg,A_M_05.jpg,left,1493.224999998347,false,high,NA,NA,NA,NA,NA,NA,NA,false
foC1wnQc,3pgqrazx15xrvqygpna1awvsi04ysb,32z9zlut1pxsynesz8u6tbmg8cxohc,foC1wnQc,2020-0188,2020-11-16,19:25:04,19:40:39,NA,incomplete,224,gender,3,1,right,A_M_05.jpg,A_F_02.jpg,C_M_12.jpg,left,1171.7450000069803,false,high,NA,NA,NA,NA,NA,NA,NA,false
foC1wnQc,3pgqrazx15xrvqygpna1awvsi04ysb,32z9zlut1pxsynesz8u6tbmg8cxohc,foC1wnQc,2020-0188,2020-11-16,19:25:04,19:40:39,NA,incomplete,225,gender,3,1,left,C_M_08.jpg,A_M_11.jpg,C_F_04.jpg,right,1284.3900000008289,false,high,NA,NA,NA,NA,NA,NA,NA,false
foC1wnQc,3pgqrazx15xrvqygpna1awvsi04ysb,32z9zlut1pxsynesz8u6tbmg8cxohc,foC1wnQc,2020-0188,2020-11-16,19:25:04,19:40:39,NA,incomplete,226,gender,3,1,right,A_M_01.jpg,A_F_14.jpg,C_M_16.jpg,right,1089.510000005248,true,high,NA,NA,NA,NA,NA,NA,NA,false
foC1wnQc,3pgqrazx15xrvqygpna1awvsi04ysb,32z9zlut1pxsynesz8u6tbmg8cxohc,foC1wnQc,2020-0188,2020-11-16,19:25:04,19:40:39,NA,incomplete,227,gender,3,1,left,A_M_09.jpg,C_M_08.jpg,A_F_03.jpg,left,840.8400000042748,true,high,NA,NA,NA,NA,NA,NA,NA,false
foC1wnQc,3pgqrazx15xrvqygpna1awvsi04ysb,32z9zlut1pxsynesz8u6tbmg8cxohc,foC1wnQc,2020-0188,2020-11-16,19:25:04,19:40:39,NA,incomplete,228,gender,3,0,left,A_F_15.jpg,C_F_14.jpg,A_M_11.jpg,left,1304.0550000005169,true,high,NA,NA,NA,NA,NA,NA,NA,false
foC1wnQc,3pgqrazx15xrvqygpna1awvsi04ysb,32z9zlut1pxsynesz8u6tbmg8cxohc,foC1wnQc,2020-0188,2020-11-16,19:25:04,19:40:39,NA,incomplete,229,gender,3,1,right,A_M_01.jpg,A_F_03.jpg,C_M_10.jpg,right,1341.46999999939,true,high,NA,NA,NA,NA,NA,NA,NA,false
foC1wnQc,3pgqrazx15xrvqygpna1awvsi04ysb,32z9zlut1pxsynesz8u6tbmg8cxohc,foC1wnQc,2020-0188,2020-11-16,19:25:04,19:40:39,NA,incomplete,230,gender,3,1,left,C_F_05.jpg,A_F_09.jpg,C_M_01.jpg,left,1075.5950000020675,true,high,NA,NA,NA,NA,NA,NA,NA,false
foC1wnQc,3pgqrazx15xrvqygpna1awvsi04ysb,32z9zlut1pxsynesz8u6tbmg8cxohc,foC1wnQc,2020-0188,2020-11-16,19:25:04,19:40:39,NA,incomplete,231,gender,3,1,right,C_F_15.jpg,C_M_16.jpg,A_F_11.jpg,right,1344.3550000011455,true,high,NA,NA,NA,NA,NA,NA,NA,false
foC1wnQc,3pgqrazx15xrvqygpna1awvsi04ysb,32z9zlut1pxsynesz8u6tbmg8cxohc,foC1wnQc,2020-0188,2020-11-16,19:25:04,19:40:39,NA,incomplete,232,gender,3,1,right,C_F_15.jpg,C_M_11.jpg,A_F_04.jpg,right,833.2949999967823,true,high,NA,NA,NA,NA,NA,NA,NA,false
foC1wnQc,3pgqrazx15xrvqygpna1awvsi04ysb,32z9zlut1pxsynesz8u6tbmg8cxohc,foC1wnQc,2020-0188,2020-11-16,19:25:04,19:40:39,NA,incomplete,233,gender,3,1,left,A_F_04.jpg,C_F_01.jpg,A_M_05.jpg,left,953.2900000049267,true,high,NA,NA,NA,NA,NA,NA,NA,false
foC1wnQc,3pgqrazx15xrvqygpna1awvsi04ysb,32z9zlut1pxsynesz8u6tbmg8cxohc,foC1wnQc,2020-0188,2020-11-16,19:25:04,19:40:39,NA,incomplete,234,gender,3,1,right,A_F_09.jpg,A_M_06.jpg,C_F_05.jpg,right,983.7000000043772,true,high,NA,NA,NA,NA,NA,NA,NA,false
foC1wnQc,3pgqrazx15xrvqygpna1awvsi04ysb,32z9zlut1pxsynesz8u6tbmg8cxohc,foC1wnQc,2020-0188,2020-11-16,19:25:04,19:40:39,NA,incomplete,235,gender,3,1,right,C_F_06.jpg,C_M_10.jpg,A_F_14.jpg,right,1122.5750000011176,true,high,NA,NA,NA,NA,NA,NA,NA,false
foC1wnQc,3pgqrazx15xrvqygpna1awvsi04ysb,32z9zlut1pxsynesz8u6tbmg8cxohc,foC1wnQc,2020-0188,2020-11-16,19:25:04,19:40:39,NA,incomplete,236,gender,3,1,left,A_M_05.jpg,C_M_10.jpg,A_F_13.jpg,left,1030.8749999967404,true,high,NA,NA,NA,NA,NA,NA,NA,false
foC1wnQc,3pgqrazx15xrvqygpna1awvsi04ysb,32z9zlut1pxsynesz8u6tbmg8cxohc,foC1wnQc,2020-0188,2020-11-16,19:25:04,19:40:39,NA,incomplete,237,gender,3,1,right,C_F_05.jpg,C_M_07.jpg,A_F_09.jpg,right,1265.9300000014482,true,high,NA,NA,NA,NA,NA,NA,NA,false
foC1wnQc,3pgqrazx15xrvqygpna1awvsi04ysb,32z9zlut1pxsynesz8u6tbmg8cxohc,foC1wnQc,2020-0188,2020-11-16,19:25:04,19:40:39,NA,incomplete,238,gender,3,1,left,C_F_13.jpg,A_F_12.jpg,C_M_16.jpg,left,880.36000000278,true,high,NA,NA,NA,NA,NA,NA,NA,false
foC1wnQc,3pgqrazx15xrvqygpna1awvsi04ysb,32z9zlut1pxsynesz8u6tbmg8cxohc,foC1wnQc,2020-0188,2020-11-16,19:25:04,19:40:39,NA,incomplete,239,gender,3,1,left,C_F_04.jpg,A_F_16.jpg,C_M_14.jpg,right,879.1400000045542,false,high,NA,NA,NA,NA,NA,NA,NA,false
foC1wnQc,3pgqrazx15xrvqygpna1awvsi04ysb,32z9zlut1pxsynesz8u6tbmg8cxohc,foC1wnQc,2020-0188,2020-11-16,19:25:04,19:40:39,NA,NA,instruction example,color,NA,NA,NA,Purple_Circle_Chess_3.jpg,Purple_Triangle_Grid_2.jpg,Red_Star_Chess_4.jpg,NA,NA,NA,NA,NA,NA,NA,NA,NA,NA,NA,undefined
foC1wnQc,3pgqrazx15xrvqygpna1awvsi04ysb,32z9zlut1pxsynesz8u6tbmg8cxohc,foC1wnQc,2020-0188,2020-11-16,19:25:04,19:40:39,NA,NA,instruction example,color,NA,NA,NA,Blue_Plus_Grid_1.jpg,Purple_Star_Grid_4.jpg,Blue_Triangle_Stripes_2.jpg,NA,NA,NA,NA,NA,NA,NA,NA,NA,NA,NA,undefined
foC1wnQc,3pgqrazx15xrvqygpna1awvsi04ysb,32z9zlut1pxsynesz8u6tbmg8cxohc,foC1wnQc,2020-0188,2020-11-16,19:25:04,19:40:39,NA,NA,instruction example,color,NA,NA,NA,C_M_04.jpg,C_F_01.jpg,A_M_07.jpg,NA,NA,NA,NA,NA,NA,NA,NA,NA,NA,NA,undefined
foC1wnQc,3pgqrazx15xrvqygpna1awvsi04ysb,32z9zlut1pxsynesz8u6tbmg8cxohc,foC1wnQc,2020-0188,2020-11-16,19:25:04,19:40:39,NA,NA,instruction example,color,NA,NA,NA,A_M_16.jpg,C_M_03.jpg,A_F_07.jpg,NA,NA,NA,NA,NA,NA,NA,NA,NA,NA,NA,undefined
foC1wnQc,3pgqrazx15xrvqygpna1awvsi04ysb,32z9zlut1pxsynesz8u6tbmg8cxohc,foC1wnQc,2020-0188,2020-11-16,19:25:04,19:40:39,912869.0449999995,935464.0250000011,NA,NA,NA,NA,NA,NA,NA,NA,NA,NA,NA,NA,31,White/Caucasian,Female,White,no,yes,no,undefined
