workerId,hitId,assignmentId,subject,studyid,exp_date,exp_start,exp_end,time_start,time_end,trial,type,sequence,reward_validity,answer,image_top,image_left,image_right,response,response_time,response_acc,volatility,age,race,gender,ethnicity,color,vision,neuro,practice
tW0NU9g9,3xabxm4ak4i034slkfn2gjsp1ra8qu,333u7hk6idsxlwitxzjbuuqvlgvdjs,tW0NU9g9,2020-0188,2020-06-04,10:41:24,11:01:49,NA,incomplete,0,shape,0,1,right,Blue_Plus_Stripes_3.jpg,Green_Star_Dots_3.jpg,Red_Plus_Grid_4.jpg,right,1667.4150000326335,true,NA,NA,NA,NA,NA,NA,NA,NA,true
tW0NU9g9,3xabxm4ak4i034slkfn2gjsp1ra8qu,333u7hk6idsxlwitxzjbuuqvlgvdjs,tW0NU9g9,2020-0188,2020-06-04,10:41:24,11:01:49,NA,incomplete,1,shape,0,1,right,Purple_Plus_Grid_1.jpg,Green_Star_Chess_1.jpg,Blue_Plus_Dots_3.jpg,right,1274.0549999289215,true,NA,NA,NA,NA,NA,NA,NA,NA,true
tW0NU9g9,3xabxm4ak4i034slkfn2gjsp1ra8qu,333u7hk6idsxlwitxzjbuuqvlgvdjs,tW0NU9g9,2020-0188,2020-06-04,10:41:24,11:01:49,NA,incomplete,2,shape,0,1,right,Red_Plus_Dots_4.jpg,Green_Triangle_Stripes_4.jpg,Blue_Plus_Chess_3.jpg,right,1275.9850001893938,true,NA,NA,NA,NA,NA,NA,NA,NA,true
tW0NU9g9,3xabxm4ak4i034slkfn2gjsp1ra8qu,333u7hk6idsxlwitxzjbuuqvlgvdjs,tW0NU9g9,2020-0188,2020-06-04,10:41:24,11:01:49,NA,incomplete,3,shape,0,1,right,Green_Plus_Dots_3.jpg,Purple_Triangle_Stripes_3.jpg,Red_Plus_Chess_2.jpg,right,1263.1549998186529,true,NA,NA,NA,NA,NA,NA,NA,NA,true
tW0NU9g9,3xabxm4ak4i034slkfn2gjsp1ra8qu,333u7hk6idsxlwitxzjbuuqvlgvdjs,tW0NU9g9,2020-0188,2020-06-04,10:41:24,11:01:49,NA,incomplete,4,shape,0,1,left,Blue_Plus_Chess_3.jpg,Red_Plus_Grid_4.jpg,Purple_Triangle_Dots_3.jpg,left,1252.0449999719858,true,NA,NA,NA,NA,NA,NA,NA,NA,true
tW0NU9g9,3xabxm4ak4i034slkfn2gjsp1ra8qu,333u7hk6idsxlwitxzjbuuqvlgvdjs,tW0NU9g9,2020-0188,2020-06-04,10:41:24,11:01:49,NA,incomplete,5,shape,0,1,right,Blue_Plus_Dots_1.jpg,Green_Circle_Grid_1.jpg,Red_Plus_Chess_2.jpg,right,965.2499998919666,true,NA,NA,NA,NA,NA,NA,NA,NA,true
tW0NU9g9,3xabxm4ak4i034slkfn2gjsp1ra8qu,333u7hk6idsxlwitxzjbuuqvlgvdjs,tW0NU9g9,2020-0188,2020-06-04,10:41:24,11:01:49,NA,incomplete,6,shape,0,0,left,Green_Circle_Dots_2.jpg,Purple_Circle_Stripes_4.jpg,Red_Plus_Chess_2.jpg,left,992.1099999919534,true,NA,NA,NA,NA,NA,NA,NA,NA,true
tW0NU9g9,3xabxm4ak4i034slkfn2gjsp1ra8qu,333u7hk6idsxlwitxzjbuuqvlgvdjs,tW0NU9g9,2020-0188,2020-06-04,10:41:24,11:01:49,NA,incomplete,7,shape,0,1,right,Purple_Plus_Stripes_4.jpg,Green_Triangle_Chess_4.jpg,Red_Plus_Grid_3.jpg,right,937.1849996969104,true,NA,NA,NA,NA,NA,NA,NA,NA,true
tW0NU9g9,3xabxm4ak4i034slkfn2gjsp1ra8qu,333u7hk6idsxlwitxzjbuuqvlgvdjs,tW0NU9g9,2020-0188,2020-06-04,10:41:24,11:01:49,NA,incomplete,8,shape,0,1,left,Purple_Triangle_Chess_4.jpg,Red_Triangle_Dots_2.jpg,Green_Circle_Grid_4.jpg,left,926.8850004300475,true,NA,NA,NA,NA,NA,NA,NA,NA,true
tW0NU9g9,3xabxm4ak4i034slkfn2gjsp1ra8qu,333u7hk6idsxlwitxzjbuuqvlgvdjs,tW0NU9g9,2020-0188,2020-06-04,10:41:24,11:01:49,NA,incomplete,9,shape,0,0,right,Blue_Star_Chess_3.jpg,Red_Circle_Stripes_3.jpg,Purple_Star_Grid_1.jpg,right,795.794999692589,true,NA,NA,NA,NA,NA,NA,NA,NA,true
tW0NU9g9,3xabxm4ak4i034slkfn2gjsp1ra8qu,333u7hk6idsxlwitxzjbuuqvlgvdjs,tW0NU9g9,2020-0188,2020-06-04,10:41:24,11:01:49,NA,incomplete,10,shape,0,1,left,Purple_Star_Grid_1.jpg,Green_Star_Stripes_2.jpg,Blue_Triangle_Dots_1.jpg,left,840.4399999417365,true,NA,NA,NA,NA,NA,NA,NA,NA,true
tW0NU9g9,3xabxm4ak4i034slkfn2gjsp1ra8qu,333u7hk6idsxlwitxzjbuuqvlgvdjs,tW0NU9g9,2020-0188,2020-06-04,10:41:24,11:01:49,NA,incomplete,11,shape,0,1,left,Green_Plus_Stripes_2.jpg,Purple_Plus_Dots_3.jpg,Blue_Circle_Chess_2.jpg,left,1080.3150003775954,true,NA,NA,NA,NA,NA,NA,NA,NA,true
tW0NU9g9,3xabxm4ak4i034slkfn2gjsp1ra8qu,333u7hk6idsxlwitxzjbuuqvlgvdjs,tW0NU9g9,2020-0188,2020-06-04,10:41:24,11:01:49,NA,incomplete,12,shape,0,1,left,Blue_Star_Dots_1.jpg,Red_Star_Chess_4.jpg,Green_Plus_Grid_1.jpg,left,818.5749999247491,true,NA,NA,NA,NA,NA,NA,NA,NA,true
tW0NU9g9,3xabxm4ak4i034slkfn2gjsp1ra8qu,333u7hk6idsxlwitxzjbuuqvlgvdjs,tW0NU9g9,2020-0188,2020-06-04,10:41:24,11:01:49,NA,incomplete,13,shape,0,1,right,Blue_Circle_Chess_2.jpg,Red_Triangle_Dots_2.jpg,Green_Circle_Grid_3.jpg,right,687.1400000527501,true,NA,NA,NA,NA,NA,NA,NA,NA,true
tW0NU9g9,3xabxm4ak4i034slkfn2gjsp1ra8qu,333u7hk6idsxlwitxzjbuuqvlgvdjs,tW0NU9g9,2020-0188,2020-06-04,10:41:24,11:01:49,NA,incomplete,14,shape,0,1,left,Purple_Star_Stripes_1.jpg,Blue_Star_Chess_3.jpg,Green_Plus_Dots_1.jpg,left,937.9850002005696,true,NA,NA,NA,NA,NA,NA,NA,NA,true
tW0NU9g9,3xabxm4ak4i034slkfn2gjsp1ra8qu,333u7hk6idsxlwitxzjbuuqvlgvdjs,tW0NU9g9,2020-0188,2020-06-04,10:41:24,11:01:49,NA,incomplete,15,shape,0,0,left,Purple_Star_Dots_4.jpg,Green_Star_Chess_1.jpg,Red_Circle_Grid_4.jpg,left,842.6899998448789,true,NA,NA,NA,NA,NA,NA,NA,NA,true
tW0NU9g9,3xabxm4ak4i034slkfn2gjsp1ra8qu,333u7hk6idsxlwitxzjbuuqvlgvdjs,tW0NU9g9,2020-0188,2020-06-04,10:41:24,11:01:49,NA,incomplete,16,shape,0,1,right,Red_Plus_Stripes_1.jpg,Green_Circle_Grid_1.jpg,Blue_Plus_Chess_3.jpg,right,685.5349997058511,true,NA,NA,NA,NA,NA,NA,NA,NA,true
tW0NU9g9,3xabxm4ak4i034slkfn2gjsp1ra8qu,333u7hk6idsxlwitxzjbuuqvlgvdjs,tW0NU9g9,2020-0188,2020-06-04,10:41:24,11:01:49,NA,incomplete,17,shape,0,1,left,Green_Triangle_Grid_2.jpg,Blue_Triangle_Chess_4.jpg,Purple_Star_Dots_2.jpg,left,748.9399998448789,true,NA,NA,NA,NA,NA,NA,NA,NA,true
tW0NU9g9,3xabxm4ak4i034slkfn2gjsp1ra8qu,333u7hk6idsxlwitxzjbuuqvlgvdjs,tW0NU9g9,2020-0188,2020-06-04,10:41:24,11:01:49,NA,incomplete,18,shape,0,1,right,Green_Circle_Grid_3.jpg,Purple_Plus_Dots_3.jpg,Red_Circle_Stripes_4.jpg,right,737.3150000348687,true,NA,NA,NA,NA,NA,NA,NA,NA,true
tW0NU9g9,3xabxm4ak4i034slkfn2gjsp1ra8qu,333u7hk6idsxlwitxzjbuuqvlgvdjs,tW0NU9g9,2020-0188,2020-06-04,10:41:24,11:01:49,NA,incomplete,19,shape,0,1,right,Blue_Plus_Grid_3.jpg,Green_Circle_Dots_3.jpg,Red_Plus_Stripes_1.jpg,right,755.2300002425909,true,NA,NA,NA,NA,NA,NA,NA,NA,true
tW0NU9g9,3xabxm4ak4i034slkfn2gjsp1ra8qu,333u7hk6idsxlwitxzjbuuqvlgvdjs,tW0NU9g9,2020-0188,2020-06-04,10:41:24,11:01:49,NA,incomplete,20,number,1,1,left,Red_Plus_Grid_2.jpg,Green_Circle_Stripes_2.jpg,Purple_Plus_Dots_3.jpg,left,1365.205000154674,true,NA,NA,NA,NA,NA,NA,NA,NA,true
tW0NU9g9,3xabxm4ak4i034slkfn2gjsp1ra8qu,333u7hk6idsxlwitxzjbuuqvlgvdjs,tW0NU9g9,2020-0188,2020-06-04,10:41:24,11:01:49,NA,incomplete,21,number,1,0,right,Green_Plus_Chess_3.jpg,Red_Plus_Dots_1.jpg,Blue_Triangle_Stripes_3.jpg,right,1185.194999910891,true,NA,NA,NA,NA,NA,NA,NA,NA,true
tW0NU9g9,3xabxm4ak4i034slkfn2gjsp1ra8qu,333u7hk6idsxlwitxzjbuuqvlgvdjs,tW0NU9g9,2020-0188,2020-06-04,10:41:24,11:01:49,NA,incomplete,22,number,1,0,left,Red_Circle_Grid_1.jpg,Green_Triangle_Chess_1.jpg,Blue_Circle_Dots_2.jpg,left,1103.8850001059473,true,NA,NA,NA,NA,NA,NA,NA,NA,true
tW0NU9g9,3xabxm4ak4i034slkfn2gjsp1ra8qu,333u7hk6idsxlwitxzjbuuqvlgvdjs,tW0NU9g9,2020-0188,2020-06-04,10:41:24,11:01:49,NA,incomplete,23,number,1,1,left,Purple_Plus_Chess_1.jpg,Red_Triangle_Stripes_1.jpg,Blue_Plus_Grid_2.jpg,left,1207.5650002807379,true,NA,NA,NA,NA,NA,NA,NA,NA,true
tW0NU9g9,3xabxm4ak4i034slkfn2gjsp1ra8qu,333u7hk6idsxlwitxzjbuuqvlgvdjs,tW0NU9g9,2020-0188,2020-06-04,10:41:24,11:01:49,NA,incomplete,24,number,1,1,left,Red_Star_Chess_4.jpg,Blue_Circle_Grid_4.jpg,Green_Star_Dots_1.jpg,left,1055.5050000548363,true,NA,NA,NA,NA,NA,NA,NA,NA,true
tW0NU9g9,3xabxm4ak4i034slkfn2gjsp1ra8qu,333u7hk6idsxlwitxzjbuuqvlgvdjs,tW0NU9g9,2020-0188,2020-06-04,10:41:24,11:01:49,NA,incomplete,25,number,1,1,right,Red_Triangle_Dots_2.jpg,Purple_Triangle_Grid_3.jpg,Blue_Plus_Stripes_2.jpg,right,901.5699997544289,true,NA,NA,NA,NA,NA,NA,NA,NA,true
tW0NU9g9,3xabxm4ak4i034slkfn2gjsp1ra8qu,333u7hk6idsxlwitxzjbuuqvlgvdjs,tW0NU9g9,2020-0188,2020-06-04,10:41:24,11:01:49,NA,incomplete,26,number,1,0,right,Blue_Circle_Grid_1.jpg,Red_Circle_Stripes_4.jpg,Purple_Triangle_Dots_1.jpg,right,813.9900001697242,true,NA,NA,NA,NA,NA,NA,NA,NA,true
tW0NU9g9,3xabxm4ak4i034slkfn2gjsp1ra8qu,333u7hk6idsxlwitxzjbuuqvlgvdjs,tW0NU9g9,2020-0188,2020-06-04,10:41:24,11:01:49,NA,incomplete,27,number,1,1,left,Blue_Star_Grid_1.jpg,Red_Circle_Stripes_1.jpg,Green_Star_Chess_2.jpg,left,885.1649998687208,true,NA,NA,NA,NA,NA,NA,NA,NA,true
tW0NU9g9,3xabxm4ak4i034slkfn2gjsp1ra8qu,333u7hk6idsxlwitxzjbuuqvlgvdjs,tW0NU9g9,2020-0188,2020-06-04,10:41:24,11:01:49,NA,incomplete,28,number,1,1,left,Purple_Star_Grid_3.jpg,Red_Circle_Dots_3.jpg,Blue_Star_Chess_2.jpg,left,1217.7599999122322,true,NA,NA,NA,NA,NA,NA,NA,NA,true
tW0NU9g9,3xabxm4ak4i034slkfn2gjsp1ra8qu,333u7hk6idsxlwitxzjbuuqvlgvdjs,tW0NU9g9,2020-0188,2020-06-04,10:41:24,11:01:49,NA,incomplete,29,number,1,0,right,Red_Circle_Dots_3.jpg,Purple_Circle_Chess_1.jpg,Green_Star_Grid_3.jpg,right,1026.5399999916553,true,NA,NA,NA,NA,NA,NA,NA,NA,true
tW0NU9g9,3xabxm4ak4i034slkfn2gjsp1ra8qu,333u7hk6idsxlwitxzjbuuqvlgvdjs,tW0NU9g9,2020-0188,2020-06-04,10:41:24,11:01:49,NA,incomplete,30,number,1,1,left,Blue_Circle_Stripes_2.jpg,Green_Plus_Chess_2.jpg,Red_Circle_Dots_4.jpg,left,933.7449995800853,true,NA,NA,NA,NA,NA,NA,NA,NA,true
tW0NU9g9,3xabxm4ak4i034slkfn2gjsp1ra8qu,333u7hk6idsxlwitxzjbuuqvlgvdjs,tW0NU9g9,2020-0188,2020-06-04,10:41:24,11:01:49,NA,incomplete,31,number,1,1,right,Green_Plus_Dots_1.jpg,Purple_Plus_Chess_4.jpg,Red_Circle_Grid_1.jpg,right,762.3250000178814,true,NA,NA,NA,NA,NA,NA,NA,NA,true
tW0NU9g9,3xabxm4ak4i034slkfn2gjsp1ra8qu,333u7hk6idsxlwitxzjbuuqvlgvdjs,tW0NU9g9,2020-0188,2020-06-04,10:41:24,11:01:49,NA,incomplete,32,number,1,1,right,Purple_Plus_Stripes_3.jpg,Blue_Plus_Grid_4.jpg,Green_Star_Chess_3.jpg,right,915.2800003066659,true,NA,NA,NA,NA,NA,NA,NA,NA,true
tW0NU9g9,3xabxm4ak4i034slkfn2gjsp1ra8qu,333u7hk6idsxlwitxzjbuuqvlgvdjs,tW0NU9g9,2020-0188,2020-06-04,10:41:24,11:01:49,NA,incomplete,33,number,1,1,right,Purple_Plus_Stripes_4.jpg,Blue_Plus_Grid_1.jpg,Red_Circle_Chess_4.jpg,right,949.8149999417365,true,NA,NA,NA,NA,NA,NA,NA,NA,true
tW0NU9g9,3xabxm4ak4i034slkfn2gjsp1ra8qu,333u7hk6idsxlwitxzjbuuqvlgvdjs,tW0NU9g9,2020-0188,2020-06-04,10:41:24,11:01:49,NA,incomplete,34,number,1,0,right,Red_Circle_Chess_4.jpg,Blue_Circle_Grid_3.jpg,Purple_Plus_Dots_4.jpg,right,1235.8300001360476,true,NA,NA,NA,NA,NA,NA,NA,NA,true
tW0NU9g9,3xabxm4ak4i034slkfn2gjsp1ra8qu,333u7hk6idsxlwitxzjbuuqvlgvdjs,tW0NU9g9,2020-0188,2020-06-04,10:41:24,11:01:49,NA,incomplete,35,number,1,1,right,Purple_Plus_Grid_4.jpg,Green_Plus_Stripes_1.jpg,Red_Circle_Dots_4.jpg,right,877.279999665916,true,NA,NA,NA,NA,NA,NA,NA,NA,true
tW0NU9g9,3xabxm4ak4i034slkfn2gjsp1ra8qu,333u7hk6idsxlwitxzjbuuqvlgvdjs,tW0NU9g9,2020-0188,2020-06-04,10:41:24,11:01:49,NA,incomplete,36,number,1,1,left,Purple_Plus_Stripes_3.jpg,Blue_Circle_Grid_3.jpg,Red_Plus_Dots_2.jpg,left,864.5150000229478,true,NA,NA,NA,NA,NA,NA,NA,NA,true
tW0NU9g9,3xabxm4ak4i034slkfn2gjsp1ra8qu,333u7hk6idsxlwitxzjbuuqvlgvdjs,tW0NU9g9,2020-0188,2020-06-04,10:41:24,11:01:49,NA,incomplete,37,number,1,1,left,Purple_Star_Chess_4.jpg,Blue_Plus_Dots_4.jpg,Red_Star_Grid_2.jpg,left,928.3400001004338,true,NA,NA,NA,NA,NA,NA,NA,NA,true
tW0NU9g9,3xabxm4ak4i034slkfn2gjsp1ra8qu,333u7hk6idsxlwitxzjbuuqvlgvdjs,tW0NU9g9,2020-0188,2020-06-04,10:41:24,11:01:49,NA,incomplete,38,number,1,1,left,Blue_Plus_Chess_2.jpg,Green_Triangle_Stripes_2.jpg,Red_Plus_Grid_3.jpg,left,919.1700001247227,true,NA,NA,NA,NA,NA,NA,NA,NA,true
tW0NU9g9,3xabxm4ak4i034slkfn2gjsp1ra8qu,333u7hk6idsxlwitxzjbuuqvlgvdjs,tW0NU9g9,2020-0188,2020-06-04,10:41:24,11:01:49,NA,incomplete,39,number,1,1,left,Red_Circle_Chess_4.jpg,Green_Plus_Stripes_4.jpg,Blue_Circle_Dots_3.jpg,left,926.925000268966,true,NA,NA,NA,NA,NA,NA,NA,NA,true
tW0NU9g9,3xabxm4ak4i034slkfn2gjsp1ra8qu,333u7hk6idsxlwitxzjbuuqvlgvdjs,tW0NU9g9,2020-0188,2020-06-04,10:41:24,11:01:49,NA,incomplete,0,shape,0,1,right,Green_Plus_Chess_1.jpg,Red_Star_Stripes_1.jpg,Blue_Plus_Dots_3.jpg,left,878.1249998137355,false,low,NA,NA,NA,NA,NA,NA,NA,false
tW0NU9g9,3xabxm4ak4i034slkfn2gjsp1ra8qu,333u7hk6idsxlwitxzjbuuqvlgvdjs,tW0NU9g9,2020-0188,2020-06-04,10:41:24,11:01:49,NA,incomplete,1,shape,0,1,left,Blue_Circle_Chess_3.jpg,Purple_Circle_Grid_1.jpg,Red_Plus_Stripes_3.jpg,right,742.4350003711879,false,low,NA,NA,NA,NA,NA,NA,NA,false
tW0NU9g9,3xabxm4ak4i034slkfn2gjsp1ra8qu,333u7hk6idsxlwitxzjbuuqvlgvdjs,tW0NU9g9,2020-0188,2020-06-04,10:41:24,11:01:49,NA,incomplete,2,shape,0,1,left,Blue_Plus_Chess_2.jpg,Red_Plus_Stripes_3.jpg,Purple_Star_Dots_2.jpg,right,1638.9649999327958,false,low,NA,NA,NA,NA,NA,NA,NA,false
tW0NU9g9,3xabxm4ak4i034slkfn2gjsp1ra8qu,333u7hk6idsxlwitxzjbuuqvlgvdjs,tW0NU9g9,2020-0188,2020-06-04,10:41:24,11:01:49,NA,incomplete,3,shape,0,1,left,Blue_Star_Stripes_3.jpg,Purple_Star_Chess_1.jpg,Red_Plus_Grid_3.jpg,left,1389.824999962002,true,low,NA,NA,NA,NA,NA,NA,NA,false
tW0NU9g9,3xabxm4ak4i034slkfn2gjsp1ra8qu,333u7hk6idsxlwitxzjbuuqvlgvdjs,tW0NU9g9,2020-0188,2020-06-04,10:41:24,11:01:49,NA,incomplete,4,shape,0,1,left,Red_Circle_Chess_4.jpg,Green_Circle_Stripes_3.jpg,Blue_Plus_Grid_4.jpg,left,1144.9950002133846,true,low,NA,NA,NA,NA,NA,NA,NA,false
tW0NU9g9,3xabxm4ak4i034slkfn2gjsp1ra8qu,333u7hk6idsxlwitxzjbuuqvlgvdjs,tW0NU9g9,2020-0188,2020-06-04,10:41:24,11:01:49,NA,incomplete,5,shape,0,1,right,Purple_Star_Stripes_1.jpg,Green_Plus_Chess_1.jpg,Red_Star_Grid_4.jpg,right,1134.4400001689792,true,low,NA,NA,NA,NA,NA,NA,NA,false
tW0NU9g9,3xabxm4ak4i034slkfn2gjsp1ra8qu,333u7hk6idsxlwitxzjbuuqvlgvdjs,tW0NU9g9,2020-0188,2020-06-04,10:41:24,11:01:49,NA,incomplete,6,shape,0,1,left,Purple_Circle_Grid_2.jpg,Green_Circle_Chess_4.jpg,Red_Star_Dots_2.jpg,left,1290.0449996814132,true,low,NA,NA,NA,NA,NA,NA,NA,false
tW0NU9g9,3xabxm4ak4i034slkfn2gjsp1ra8qu,333u7hk6idsxlwitxzjbuuqvlgvdjs,tW0NU9g9,2020-0188,2020-06-04,10:41:24,11:01:49,NA,incomplete,7,shape,0,1,left,Red_Circle_Dots_1.jpg,Purple_Circle_Stripes_4.jpg,Blue_Star_Chess_1.jpg,left,698.110000230372,true,low,NA,NA,NA,NA,NA,NA,NA,false
tW0NU9g9,3xabxm4ak4i034slkfn2gjsp1ra8qu,333u7hk6idsxlwitxzjbuuqvlgvdjs,tW0NU9g9,2020-0188,2020-06-04,10:41:24,11:01:49,NA,incomplete,8,shape,0,1,right,Red_Triangle_Stripes_3.jpg,Purple_Plus_Grid_3.jpg,Blue_Triangle_Dots_1.jpg,right,739.0300002880394,true,low,NA,NA,NA,NA,NA,NA,NA,false
tW0NU9g9,3xabxm4ak4i034slkfn2gjsp1ra8qu,333u7hk6idsxlwitxzjbuuqvlgvdjs,tW0NU9g9,2020-0188,2020-06-04,10:41:24,11:01:49,NA,incomplete,9,shape,0,1,left,Red_Star_Dots_3.jpg,Purple_Star_Chess_4.jpg,Green_Plus_Stripes_3.jpg,left,1112.470000050962,true,low,NA,NA,NA,NA,NA,NA,NA,false
tW0NU9g9,3xabxm4ak4i034slkfn2gjsp1ra8qu,333u7hk6idsxlwitxzjbuuqvlgvdjs,tW0NU9g9,2020-0188,2020-06-04,10:41:24,11:01:49,NA,incomplete,10,shape,0,1,right,Red_Plus_Grid_1.jpg,Blue_Star_Chess_1.jpg,Green_Plus_Stripes_3.jpg,right,976.5900000929832,true,low,NA,NA,NA,NA,NA,NA,NA,false
tW0NU9g9,3xabxm4ak4i034slkfn2gjsp1ra8qu,333u7hk6idsxlwitxzjbuuqvlgvdjs,tW0NU9g9,2020-0188,2020-06-04,10:41:24,11:01:49,NA,incomplete,11,shape,0,0,left,Green_Plus_Stripes_2.jpg,Red_Plus_Grid_4.jpg,Purple_Triangle_Dots_2.jpg,left,902.3750000633299,true,low,NA,NA,NA,NA,NA,NA,NA,false
tW0NU9g9,3xabxm4ak4i034slkfn2gjsp1ra8qu,333u7hk6idsxlwitxzjbuuqvlgvdjs,tW0NU9g9,2020-0188,2020-06-04,10:41:24,11:01:49,NA,incomplete,12,shape,0,1,right,Green_Triangle_Dots_2.jpg,Blue_Circle_Chess_2.jpg,Red_Triangle_Grid_1.jpg,right,1061.180000193417,true,low,NA,NA,NA,NA,NA,NA,NA,false
tW0NU9g9,3xabxm4ak4i034slkfn2gjsp1ra8qu,333u7hk6idsxlwitxzjbuuqvlgvdjs,tW0NU9g9,2020-0188,2020-06-04,10:41:24,11:01:49,NA,incomplete,13,shape,0,0,left,Red_Triangle_Dots_4.jpg,Green_Triangle_Chess_3.jpg,Blue_Plus_Grid_4.jpg,left,672.1549998037517,true,low,NA,NA,NA,NA,NA,NA,NA,false
tW0NU9g9,3xabxm4ak4i034slkfn2gjsp1ra8qu,333u7hk6idsxlwitxzjbuuqvlgvdjs,tW0NU9g9,2020-0188,2020-06-04,10:41:24,11:01:49,NA,incomplete,14,shape,0,1,left,Green_Plus_Stripes_4.jpg,Blue_Plus_Dots_2.jpg,Purple_Circle_Chess_4.jpg,left,1082.3049996979535,true,low,NA,NA,NA,NA,NA,NA,NA,false
tW0NU9g9,3xabxm4ak4i034slkfn2gjsp1ra8qu,333u7hk6idsxlwitxzjbuuqvlgvdjs,tW0NU9g9,2020-0188,2020-06-04,10:41:24,11:01:49,NA,incomplete,15,shape,0,0,right,Blue_Circle_Stripes_2.jpg,Red_Star_Dots_2.jpg,Green_Circle_Grid_4.jpg,right,859.88499969244,true,low,NA,NA,NA,NA,NA,NA,NA,false
tW0NU9g9,3xabxm4ak4i034slkfn2gjsp1ra8qu,333u7hk6idsxlwitxzjbuuqvlgvdjs,tW0NU9g9,2020-0188,2020-06-04,10:41:24,11:01:49,NA,incomplete,16,shape,0,1,left,Blue_Triangle_Chess_4.jpg,Purple_Triangle_Dots_1.jpg,Red_Star_Stripes_4.jpg,left,1201.9200003705919,true,low,NA,NA,NA,NA,NA,NA,NA,false
tW0NU9g9,3xabxm4ak4i034slkfn2gjsp1ra8qu,333u7hk6idsxlwitxzjbuuqvlgvdjs,tW0NU9g9,2020-0188,2020-06-04,10:41:24,11:01:49,NA,incomplete,17,shape,0,1,left,Red_Plus_Dots_2.jpg,Green_Plus_Chess_3.jpg,Purple_Triangle_Stripes_2.jpg,left,996.4900002814829,true,low,NA,NA,NA,NA,NA,NA,NA,false
tW0NU9g9,3xabxm4ak4i034slkfn2gjsp1ra8qu,333u7hk6idsxlwitxzjbuuqvlgvdjs,tW0NU9g9,2020-0188,2020-06-04,10:41:24,11:01:49,NA,incomplete,18,shape,0,0,left,Purple_Star_Stripes_4.jpg,Blue_Star_Chess_1.jpg,Red_Circle_Dots_4.jpg,left,1014.4499996677041,true,low,NA,NA,NA,NA,NA,NA,NA,false
tW0NU9g9,3xabxm4ak4i034slkfn2gjsp1ra8qu,333u7hk6idsxlwitxzjbuuqvlgvdjs,tW0NU9g9,2020-0188,2020-06-04,10:41:24,11:01:49,NA,incomplete,19,shape,0,1,right,Red_Circle_Stripes_2.jpg,Blue_Plus_Chess_2.jpg,Green_Circle_Dots_4.jpg,right,930.1249999552965,true,low,NA,NA,NA,NA,NA,NA,NA,false
tW0NU9g9,3xabxm4ak4i034slkfn2gjsp1ra8qu,333u7hk6idsxlwitxzjbuuqvlgvdjs,tW0NU9g9,2020-0188,2020-06-04,10:41:24,11:01:49,NA,incomplete,20,shape,0,0,left,Red_Star_Grid_3.jpg,Purple_Star_Chess_1.jpg,Blue_Triangle_Stripes_3.jpg,left,1165.900000371039,true,low,NA,NA,NA,NA,NA,NA,NA,false
tW0NU9g9,3xabxm4ak4i034slkfn2gjsp1ra8qu,333u7hk6idsxlwitxzjbuuqvlgvdjs,tW0NU9g9,2020-0188,2020-06-04,10:41:24,11:01:49,NA,incomplete,21,shape,0,1,right,Purple_Plus_Dots_2.jpg,Blue_Triangle_Stripes_2.jpg,Red_Plus_Grid_3.jpg,right,954.8499998636544,true,low,NA,NA,NA,NA,NA,NA,NA,false
tW0NU9g9,3xabxm4ak4i034slkfn2gjsp1ra8qu,333u7hk6idsxlwitxzjbuuqvlgvdjs,tW0NU9g9,2020-0188,2020-06-04,10:41:24,11:01:49,NA,incomplete,22,shape,0,1,right,Red_Star_Grid_4.jpg,Purple_Triangle_Dots_4.jpg,Blue_Star_Stripes_2.jpg,right,1027.9250000603497,true,low,NA,NA,NA,NA,NA,NA,NA,false
tW0NU9g9,3xabxm4ak4i034slkfn2gjsp1ra8qu,333u7hk6idsxlwitxzjbuuqvlgvdjs,tW0NU9g9,2020-0188,2020-06-04,10:41:24,11:01:49,NA,incomplete,23,shape,0,1,left,Green_Plus_Grid_3.jpg,Red_Plus_Stripes_1.jpg,Blue_Star_Chess_3.jpg,left,1093.400000128895,true,low,NA,NA,NA,NA,NA,NA,NA,false
tW0NU9g9,3xabxm4ak4i034slkfn2gjsp1ra8qu,333u7hk6idsxlwitxzjbuuqvlgvdjs,tW0NU9g9,2020-0188,2020-06-04,10:41:24,11:01:49,NA,incomplete,24,shape,0,1,right,Red_Circle_Chess_1.jpg,Purple_Plus_Stripes_1.jpg,Blue_Circle_Dots_4.jpg,right,1216.3949999958277,true,low,NA,NA,NA,NA,NA,NA,NA,false
tW0NU9g9,3xabxm4ak4i034slkfn2gjsp1ra8qu,333u7hk6idsxlwitxzjbuuqvlgvdjs,tW0NU9g9,2020-0188,2020-06-04,10:41:24,11:01:49,NA,incomplete,25,shape,0,1,right,Purple_Star_Stripes_1.jpg,Blue_Circle_Dots_1.jpg,Green_Star_Grid_4.jpg,right,1225.2449998632073,true,low,NA,NA,NA,NA,NA,NA,NA,false
tW0NU9g9,3xabxm4ak4i034slkfn2gjsp1ra8qu,333u7hk6idsxlwitxzjbuuqvlgvdjs,tW0NU9g9,2020-0188,2020-06-04,10:41:24,11:01:49,NA,incomplete,26,shape,0,1,left,Blue_Plus_Dots_2.jpg,Purple_Plus_Stripes_1.jpg,Red_Triangle_Chess_2.jpg,left,963.4799999184906,true,low,NA,NA,NA,NA,NA,NA,NA,false
tW0NU9g9,3xabxm4ak4i034slkfn2gjsp1ra8qu,333u7hk6idsxlwitxzjbuuqvlgvdjs,tW0NU9g9,2020-0188,2020-06-04,10:41:24,11:01:49,NA,incomplete,27,shape,0,1,right,Purple_Plus_Grid_1.jpg,Green_Circle_Chess_1.jpg,Red_Plus_Dots_2.jpg,right,858.8699996471405,true,low,NA,NA,NA,NA,NA,NA,NA,false
tW0NU9g9,3xabxm4ak4i034slkfn2gjsp1ra8qu,333u7hk6idsxlwitxzjbuuqvlgvdjs,tW0NU9g9,2020-0188,2020-06-04,10:41:24,11:01:49,NA,incomplete,28,shape,0,1,left,Red_Triangle_Grid_1.jpg,Blue_Triangle_Stripes_3.jpg,Green_Circle_Chess_1.jpg,left,777.5550000369549,true,low,NA,NA,NA,NA,NA,NA,NA,false
tW0NU9g9,3xabxm4ak4i034slkfn2gjsp1ra8qu,333u7hk6idsxlwitxzjbuuqvlgvdjs,tW0NU9g9,2020-0188,2020-06-04,10:41:24,11:01:49,NA,incomplete,29,shape,0,0,left,Red_Circle_Chess_2.jpg,Blue_Circle_Stripes_3.jpg,Purple_Triangle_Grid_2.jpg,left,758.5200001485646,true,low,NA,NA,NA,NA,NA,NA,NA,false
tW0NU9g9,3xabxm4ak4i034slkfn2gjsp1ra8qu,333u7hk6idsxlwitxzjbuuqvlgvdjs,tW0NU9g9,2020-0188,2020-06-04,10:41:24,11:01:49,NA,incomplete,30,number,1,1,right,Purple_Plus_Stripes_3.jpg,Green_Plus_Chess_2.jpg,Red_Triangle_Grid_3.jpg,left,1246.5400001965463,false,low,NA,NA,NA,NA,NA,NA,NA,false
tW0NU9g9,3xabxm4ak4i034slkfn2gjsp1ra8qu,333u7hk6idsxlwitxzjbuuqvlgvdjs,tW0NU9g9,2020-0188,2020-06-04,10:41:24,11:01:49,NA,incomplete,31,number,1,1,right,Purple_Circle_Chess_4.jpg,Green_Circle_Stripes_3.jpg,Blue_Star_Dots_4.jpg,right,1358.6900001391768,true,low,NA,NA,NA,NA,NA,NA,NA,false
tW0NU9g9,3xabxm4ak4i034slkfn2gjsp1ra8qu,333u7hk6idsxlwitxzjbuuqvlgvdjs,tW0NU9g9,2020-0188,2020-06-04,10:41:24,11:01:49,NA,incomplete,32,number,1,1,left,Green_Triangle_Dots_3.jpg,Purple_Circle_Grid_3.jpg,Blue_Triangle_Stripes_1.jpg,left,1103.1249999068677,true,low,NA,NA,NA,NA,NA,NA,NA,false
tW0NU9g9,3xabxm4ak4i034slkfn2gjsp1ra8qu,333u7hk6idsxlwitxzjbuuqvlgvdjs,tW0NU9g9,2020-0188,2020-06-04,10:41:24,11:01:49,NA,incomplete,33,number,1,0,left,Purple_Circle_Grid_4.jpg,Red_Plus_Dots_4.jpg,Green_Circle_Chess_2.jpg,left,1195.8949998952448,true,low,NA,NA,NA,NA,NA,NA,NA,false
tW0NU9g9,3xabxm4ak4i034slkfn2gjsp1ra8qu,333u7hk6idsxlwitxzjbuuqvlgvdjs,tW0NU9g9,2020-0188,2020-06-04,10:41:24,11:01:49,NA,incomplete,34,number,1,0,left,Green_Triangle_Chess_2.jpg,Blue_Circle_Stripes_2.jpg,Purple_Triangle_Grid_3.jpg,left,1427.8049999848008,true,low,NA,NA,NA,NA,NA,NA,NA,false
tW0NU9g9,3xabxm4ak4i034slkfn2gjsp1ra8qu,333u7hk6idsxlwitxzjbuuqvlgvdjs,tW0NU9g9,2020-0188,2020-06-04,10:41:24,11:01:49,NA,incomplete,35,number,1,1,left,Green_Triangle_Stripes_4.jpg,Red_Circle_Grid_4.jpg,Purple_Triangle_Dots_2.jpg,right,1051.909999921918,false,low,NA,NA,NA,NA,NA,NA,NA,false
tW0NU9g9,3xabxm4ak4i034slkfn2gjsp1ra8qu,333u7hk6idsxlwitxzjbuuqvlgvdjs,tW0NU9g9,2020-0188,2020-06-04,10:41:24,11:01:49,NA,incomplete,36,number,1,1,right,Green_Circle_Stripes_3.jpg,Purple_Circle_Dots_1.jpg,Blue_Triangle_Grid_3.jpg,right,1490.2499997988343,true,low,NA,NA,NA,NA,NA,NA,NA,false
tW0NU9g9,3xabxm4ak4i034slkfn2gjsp1ra8qu,333u7hk6idsxlwitxzjbuuqvlgvdjs,tW0NU9g9,2020-0188,2020-06-04,10:41:24,11:01:49,NA,incomplete,37,number,1,1,left,Purple_Triangle_Chess_3.jpg,Green_Circle_Grid_3.jpg,Red_Triangle_Stripes_4.jpg,left,1161.1299999058247,true,low,NA,NA,NA,NA,NA,NA,NA,false
tW0NU9g9,3xabxm4ak4i034slkfn2gjsp1ra8qu,333u7hk6idsxlwitxzjbuuqvlgvdjs,tW0NU9g9,2020-0188,2020-06-04,10:41:24,11:01:49,NA,incomplete,38,number,1,1,right,Blue_Triangle_Chess_4.jpg,Purple_Triangle_Stripes_2.jpg,Red_Circle_Grid_4.jpg,right,1424.9799996614456,true,low,NA,NA,NA,NA,NA,NA,NA,false
tW0NU9g9,3xabxm4ak4i034slkfn2gjsp1ra8qu,333u7hk6idsxlwitxzjbuuqvlgvdjs,tW0NU9g9,2020-0188,2020-06-04,10:41:24,11:01:49,NA,incomplete,39,number,1,1,left,Green_Plus_Grid_2.jpg,Blue_Star_Stripes_2.jpg,Red_Plus_Dots_3.jpg,left,916.3299999199808,true,low,NA,NA,NA,NA,NA,NA,NA,false
tW0NU9g9,3xabxm4ak4i034slkfn2gjsp1ra8qu,333u7hk6idsxlwitxzjbuuqvlgvdjs,tW0NU9g9,2020-0188,2020-06-04,10:41:24,11:01:49,NA,incomplete,40,number,1,1,left,Blue_Circle_Stripes_3.jpg,Green_Triangle_Grid_3.jpg,Purple_Circle_Chess_4.jpg,left,978.5699998028576,true,low,NA,NA,NA,NA,NA,NA,NA,false
tW0NU9g9,3xabxm4ak4i034slkfn2gjsp1ra8qu,333u7hk6idsxlwitxzjbuuqvlgvdjs,tW0NU9g9,2020-0188,2020-06-04,10:41:24,11:01:49,NA,incomplete,41,number,1,1,left,Green_Star_Dots_1.jpg,Purple_Circle_Grid_1.jpg,Blue_Star_Chess_4.jpg,left,1054.3300001882017,true,low,NA,NA,NA,NA,NA,NA,NA,false
tW0NU9g9,3xabxm4ak4i034slkfn2gjsp1ra8qu,333u7hk6idsxlwitxzjbuuqvlgvdjs,tW0NU9g9,2020-0188,2020-06-04,10:41:24,11:01:49,NA,incomplete,42,number,1,1,right,Blue_Circle_Dots_2.jpg,Purple_Circle_Stripes_1.jpg,Green_Triangle_Grid_2.jpg,right,894.33000003919,true,low,NA,NA,NA,NA,NA,NA,NA,false
tW0NU9g9,3xabxm4ak4i034slkfn2gjsp1ra8qu,333u7hk6idsxlwitxzjbuuqvlgvdjs,tW0NU9g9,2020-0188,2020-06-04,10:41:24,11:01:49,NA,incomplete,43,number,1,0,left,Red_Circle_Grid_4.jpg,Green_Star_Chess_4.jpg,Blue_Circle_Stripes_3.jpg,left,1128.5249995999038,true,low,NA,NA,NA,NA,NA,NA,NA,false
tW0NU9g9,3xabxm4ak4i034slkfn2gjsp1ra8qu,333u7hk6idsxlwitxzjbuuqvlgvdjs,tW0NU9g9,2020-0188,2020-06-04,10:41:24,11:01:49,NA,incomplete,44,number,1,1,left,Green_Triangle_Dots_3.jpg,Blue_Star_Chess_3.jpg,Purple_Triangle_Stripes_4.jpg,left,1170.1650000177324,true,low,NA,NA,NA,NA,NA,NA,NA,false
tW0NU9g9,3xabxm4ak4i034slkfn2gjsp1ra8qu,333u7hk6idsxlwitxzjbuuqvlgvdjs,tW0NU9g9,2020-0188,2020-06-04,10:41:24,11:01:49,NA,incomplete,45,number,1,1,left,Red_Triangle_Stripes_2.jpg,Blue_Plus_Dots_2.jpg,Green_Triangle_Grid_3.jpg,left,1195.890000090003,true,low,NA,NA,NA,NA,NA,NA,NA,false
tW0NU9g9,3xabxm4ak4i034slkfn2gjsp1ra8qu,333u7hk6idsxlwitxzjbuuqvlgvdjs,tW0NU9g9,2020-0188,2020-06-04,10:41:24,11:01:49,NA,incomplete,46,number,1,1,left,Red_Star_Chess_4.jpg,Purple_Triangle_Stripes_4.jpg,Green_Star_Dots_3.jpg,left,891.780000180006,true,low,NA,NA,NA,NA,NA,NA,NA,false
tW0NU9g9,3xabxm4ak4i034slkfn2gjsp1ra8qu,333u7hk6idsxlwitxzjbuuqvlgvdjs,tW0NU9g9,2020-0188,2020-06-04,10:41:24,11:01:49,NA,incomplete,47,number,1,0,right,Purple_Plus_Grid_4.jpg,Red_Plus_Dots_2.jpg,Blue_Circle_Stripes_4.jpg,right,670.3900001011789,true,low,NA,NA,NA,NA,NA,NA,NA,false
tW0NU9g9,3xabxm4ak4i034slkfn2gjsp1ra8qu,333u7hk6idsxlwitxzjbuuqvlgvdjs,tW0NU9g9,2020-0188,2020-06-04,10:41:24,11:01:49,NA,incomplete,48,number,1,1,left,Blue_Circle_Grid_4.jpg,Green_Star_Stripes_4.jpg,Purple_Circle_Chess_2.jpg,left,888.8500002212822,true,low,NA,NA,NA,NA,NA,NA,NA,false
tW0NU9g9,3xabxm4ak4i034slkfn2gjsp1ra8qu,333u7hk6idsxlwitxzjbuuqvlgvdjs,tW0NU9g9,2020-0188,2020-06-04,10:41:24,11:01:49,NA,incomplete,49,number,1,0,left,Purple_Star_Chess_3.jpg,Green_Plus_Grid_3.jpg,Blue_Star_Dots_4.jpg,left,1205.2150000818074,true,low,NA,NA,NA,NA,NA,NA,NA,false
tW0NU9g9,3xabxm4ak4i034slkfn2gjsp1ra8qu,333u7hk6idsxlwitxzjbuuqvlgvdjs,tW0NU9g9,2020-0188,2020-06-04,10:41:24,11:01:49,NA,incomplete,50,number,1,1,left,Purple_Circle_Grid_2.jpg,Green_Star_Dots_2.jpg,Red_Circle_Chess_1.jpg,left,929.1150001809001,true,low,NA,NA,NA,NA,NA,NA,NA,false
tW0NU9g9,3xabxm4ak4i034slkfn2gjsp1ra8qu,333u7hk6idsxlwitxzjbuuqvlgvdjs,tW0NU9g9,2020-0188,2020-06-04,10:41:24,11:01:49,NA,incomplete,51,number,1,1,right,Green_Star_Grid_4.jpg,Blue_Star_Chess_3.jpg,Red_Plus_Dots_4.jpg,right,1250.900000333786,true,low,NA,NA,NA,NA,NA,NA,NA,false
tW0NU9g9,3xabxm4ak4i034slkfn2gjsp1ra8qu,333u7hk6idsxlwitxzjbuuqvlgvdjs,tW0NU9g9,2020-0188,2020-06-04,10:41:24,11:01:49,NA,incomplete,52,number,1,1,right,Green_Circle_Grid_2.jpg,Red_Circle_Dots_3.jpg,Blue_Triangle_Chess_2.jpg,right,863.9799999073148,true,low,NA,NA,NA,NA,NA,NA,NA,false
tW0NU9g9,3xabxm4ak4i034slkfn2gjsp1ra8qu,333u7hk6idsxlwitxzjbuuqvlgvdjs,tW0NU9g9,2020-0188,2020-06-04,10:41:24,11:01:49,NA,incomplete,53,number,1,0,left,Green_Star_Grid_3.jpg,Purple_Triangle_Dots_3.jpg,Red_Star_Stripes_1.jpg,left,779.5199998654425,true,low,NA,NA,NA,NA,NA,NA,NA,false
tW0NU9g9,3xabxm4ak4i034slkfn2gjsp1ra8qu,333u7hk6idsxlwitxzjbuuqvlgvdjs,tW0NU9g9,2020-0188,2020-06-04,10:41:24,11:01:49,NA,incomplete,54,number,1,1,left,Purple_Triangle_Grid_4.jpg,Blue_Star_Dots_4.jpg,Green_Triangle_Stripes_1.jpg,left,964.4949999637902,true,low,NA,NA,NA,NA,NA,NA,NA,false
tW0NU9g9,3xabxm4ak4i034slkfn2gjsp1ra8qu,333u7hk6idsxlwitxzjbuuqvlgvdjs,tW0NU9g9,2020-0188,2020-06-04,10:41:24,11:01:49,NA,incomplete,55,number,1,1,right,Red_Star_Chess_3.jpg,Blue_Star_Stripes_1.jpg,Purple_Circle_Dots_3.jpg,right,662.4900000169873,true,low,NA,NA,NA,NA,NA,NA,NA,false
tW0NU9g9,3xabxm4ak4i034slkfn2gjsp1ra8qu,333u7hk6idsxlwitxzjbuuqvlgvdjs,tW0NU9g9,2020-0188,2020-06-04,10:41:24,11:01:49,NA,incomplete,56,number,1,1,left,Purple_Circle_Grid_3.jpg,Green_Star_Stripes_3.jpg,Red_Circle_Dots_2.jpg,left,644.1549998708069,true,low,NA,NA,NA,NA,NA,NA,NA,false
tW0NU9g9,3xabxm4ak4i034slkfn2gjsp1ra8qu,333u7hk6idsxlwitxzjbuuqvlgvdjs,tW0NU9g9,2020-0188,2020-06-04,10:41:24,11:01:49,NA,incomplete,57,number,1,1,right,Green_Triangle_Grid_4.jpg,Purple_Triangle_Stripes_2.jpg,Blue_Star_Chess_4.jpg,right,769.255000166595,true,low,NA,NA,NA,NA,NA,NA,NA,false
tW0NU9g9,3xabxm4ak4i034slkfn2gjsp1ra8qu,333u7hk6idsxlwitxzjbuuqvlgvdjs,tW0NU9g9,2020-0188,2020-06-04,10:41:24,11:01:49,NA,incomplete,58,number,1,1,right,Red_Triangle_Dots_4.jpg,Blue_Triangle_Chess_1.jpg,Green_Circle_Stripes_4.jpg,right,622.9349998757243,true,low,NA,NA,NA,NA,NA,NA,NA,false
tW0NU9g9,3xabxm4ak4i034slkfn2gjsp1ra8qu,333u7hk6idsxlwitxzjbuuqvlgvdjs,tW0NU9g9,2020-0188,2020-06-04,10:41:24,11:01:49,NA,incomplete,59,number,1,1,right,Blue_Star_Chess_3.jpg,Red_Star_Dots_4.jpg,Green_Plus_Stripes_3.jpg,right,774.635000154376,true,low,NA,NA,NA,NA,NA,NA,NA,false
tW0NU9g9,3xabxm4ak4i034slkfn2gjsp1ra8qu,333u7hk6idsxlwitxzjbuuqvlgvdjs,tW0NU9g9,2020-0188,2020-06-04,10:41:24,11:01:49,NA,incomplete,60,shape,0,1,left,Purple_Plus_Grid_3.jpg,Red_Plus_Stripes_4.jpg,Blue_Star_Chess_3.jpg,right,698.6299999989569,false,low,NA,NA,NA,NA,NA,NA,NA,false
tW0NU9g9,3xabxm4ak4i034slkfn2gjsp1ra8qu,333u7hk6idsxlwitxzjbuuqvlgvdjs,tW0NU9g9,2020-0188,2020-06-04,10:41:24,11:01:49,NA,incomplete,61,shape,0,1,right,Green_Plus_Chess_4.jpg,Purple_Star_Stripes_4.jpg,Blue_Plus_Dots_3.jpg,left,1135.4749999009073,false,low,NA,NA,NA,NA,NA,NA,NA,false
tW0NU9g9,3xabxm4ak4i034slkfn2gjsp1ra8qu,333u7hk6idsxlwitxzjbuuqvlgvdjs,tW0NU9g9,2020-0188,2020-06-04,10:41:24,11:01:49,NA,incomplete,62,shape,0,1,right,Red_Plus_Grid_4.jpg,Purple_Circle_Dots_4.jpg,Blue_Plus_Stripes_1.jpg,right,954.5249999500811,true,low,NA,NA,NA,NA,NA,NA,NA,false
tW0NU9g9,3xabxm4ak4i034slkfn2gjsp1ra8qu,333u7hk6idsxlwitxzjbuuqvlgvdjs,tW0NU9g9,2020-0188,2020-06-04,10:41:24,11:01:49,NA,incomplete,63,shape,0,1,left,Purple_Circle_Grid_1.jpg,Red_Circle_Stripes_2.jpg,Green_Plus_Chess_1.jpg,right,1291.070000268519,false,low,NA,NA,NA,NA,NA,NA,NA,false
tW0NU9g9,3xabxm4ak4i034slkfn2gjsp1ra8qu,333u7hk6idsxlwitxzjbuuqvlgvdjs,tW0NU9g9,2020-0188,2020-06-04,10:41:24,11:01:49,NA,incomplete,64,shape,0,1,right,Red_Triangle_Chess_1.jpg,Purple_Star_Dots_1.jpg,Green_Triangle_Stripes_2.jpg,right,1454.094999935478,true,low,NA,NA,NA,NA,NA,NA,NA,false
tW0NU9g9,3xabxm4ak4i034slkfn2gjsp1ra8qu,333u7hk6idsxlwitxzjbuuqvlgvdjs,tW0NU9g9,2020-0188,2020-06-04,10:41:24,11:01:49,NA,incomplete,65,shape,0,1,left,Red_Triangle_Grid_2.jpg,Blue_Triangle_Stripes_4.jpg,Purple_Circle_Dots_2.jpg,left,805.5949998088181,true,low,NA,NA,NA,NA,NA,NA,NA,false
tW0NU9g9,3xabxm4ak4i034slkfn2gjsp1ra8qu,333u7hk6idsxlwitxzjbuuqvlgvdjs,tW0NU9g9,2020-0188,2020-06-04,10:41:24,11:01:49,NA,incomplete,66,shape,0,1,left,Green_Circle_Chess_4.jpg,Red_Circle_Grid_1.jpg,Blue_Star_Dots_4.jpg,left,1039.0699999406934,true,low,NA,NA,NA,NA,NA,NA,NA,false
tW0NU9g9,3xabxm4ak4i034slkfn2gjsp1ra8qu,333u7hk6idsxlwitxzjbuuqvlgvdjs,tW0NU9g9,2020-0188,2020-06-04,10:41:24,11:01:49,NA,incomplete,67,shape,0,1,right,Blue_Star_Dots_4.jpg,Red_Circle_Grid_4.jpg,Green_Star_Stripes_2.jpg,right,1088.8350000604987,true,low,NA,NA,NA,NA,NA,NA,NA,false
tW0NU9g9,3xabxm4ak4i034slkfn2gjsp1ra8qu,333u7hk6idsxlwitxzjbuuqvlgvdjs,tW0NU9g9,2020-0188,2020-06-04,10:41:24,11:01:49,NA,incomplete,68,shape,0,1,left,Red_Triangle_Grid_1.jpg,Purple_Triangle_Stripes_3.jpg,Green_Star_Dots_1.jpg,left,938.2950002327561,true,low,NA,NA,NA,NA,NA,NA,NA,false
tW0NU9g9,3xabxm4ak4i034slkfn2gjsp1ra8qu,333u7hk6idsxlwitxzjbuuqvlgvdjs,tW0NU9g9,2020-0188,2020-06-04,10:41:24,11:01:49,NA,incomplete,69,shape,0,1,left,Blue_Circle_Dots_4.jpg,Red_Circle_Chess_3.jpg,Purple_Triangle_Stripes_4.jpg,left,1060.9150002710521,true,low,NA,NA,NA,NA,NA,NA,NA,false
tW0NU9g9,3xabxm4ak4i034slkfn2gjsp1ra8qu,333u7hk6idsxlwitxzjbuuqvlgvdjs,tW0NU9g9,2020-0188,2020-06-04,10:41:24,11:01:49,NA,incomplete,70,shape,0,1,left,Purple_Plus_Chess_2.jpg,Blue_Plus_Dots_3.jpg,Green_Circle_Grid_2.jpg,left,858.9099999517202,true,low,NA,NA,NA,NA,NA,NA,NA,false
tW0NU9g9,3xabxm4ak4i034slkfn2gjsp1ra8qu,333u7hk6idsxlwitxzjbuuqvlgvdjs,tW0NU9g9,2020-0188,2020-06-04,10:41:24,11:01:49,NA,incomplete,71,shape,0,1,right,Blue_Star_Dots_1.jpg,Green_Circle_Chess_1.jpg,Purple_Star_Stripes_4.jpg,right,631.2299999408424,true,low,NA,NA,NA,NA,NA,NA,NA,false
tW0NU9g9,3xabxm4ak4i034slkfn2gjsp1ra8qu,333u7hk6idsxlwitxzjbuuqvlgvdjs,tW0NU9g9,2020-0188,2020-06-04,10:41:24,11:01:49,NA,incomplete,72,shape,0,1,right,Green_Triangle_Dots_3.jpg,Blue_Plus_Chess_3.jpg,Red_Triangle_Grid_2.jpg,right,811.6300003603101,true,low,NA,NA,NA,NA,NA,NA,NA,false
tW0NU9g9,3xabxm4ak4i034slkfn2gjsp1ra8qu,333u7hk6idsxlwitxzjbuuqvlgvdjs,tW0NU9g9,2020-0188,2020-06-04,10:41:24,11:01:49,NA,incomplete,73,shape,0,1,left,Blue_Plus_Stripes_1.jpg,Green_Plus_Dots_2.jpg,Red_Triangle_Grid_1.jpg,left,704.4099997729063,true,low,NA,NA,NA,NA,NA,NA,NA,false
tW0NU9g9,3xabxm4ak4i034slkfn2gjsp1ra8qu,333u7hk6idsxlwitxzjbuuqvlgvdjs,tW0NU9g9,2020-0188,2020-06-04,10:41:24,11:01:49,NA,incomplete,74,shape,0,0,right,Blue_Plus_Grid_4.jpg,Red_Triangle_Chess_4.jpg,Purple_Plus_Dots_2.jpg,right,723.3649999834597,true,low,NA,NA,NA,NA,NA,NA,NA,false
tW0NU9g9,3xabxm4ak4i034slkfn2gjsp1ra8qu,333u7hk6idsxlwitxzjbuuqvlgvdjs,tW0NU9g9,2020-0188,2020-06-04,10:41:24,11:01:49,NA,incomplete,75,shape,0,1,left,Red_Circle_Chess_3.jpg,Blue_Circle_Stripes_1.jpg,Green_Plus_Grid_3.jpg,left,806.1600001528859,true,low,NA,NA,NA,NA,NA,NA,NA,false
tW0NU9g9,3xabxm4ak4i034slkfn2gjsp1ra8qu,333u7hk6idsxlwitxzjbuuqvlgvdjs,tW0NU9g9,2020-0188,2020-06-04,10:41:24,11:01:49,NA,incomplete,76,shape,0,1,right,Purple_Triangle_Dots_4.jpg,Red_Star_Grid_4.jpg,Green_Triangle_Stripes_1.jpg,right,808.4499998949468,true,low,NA,NA,NA,NA,NA,NA,NA,false
tW0NU9g9,3xabxm4ak4i034slkfn2gjsp1ra8qu,333u7hk6idsxlwitxzjbuuqvlgvdjs,tW0NU9g9,2020-0188,2020-06-04,10:41:24,11:01:49,NA,incomplete,77,shape,0,1,left,Purple_Circle_Chess_1.jpg,Red_Circle_Grid_2.jpg,Blue_Plus_Stripes_1.jpg,left,798.8849999383092,true,low,NA,NA,NA,NA,NA,NA,NA,false
tW0NU9g9,3xabxm4ak4i034slkfn2gjsp1ra8qu,333u7hk6idsxlwitxzjbuuqvlgvdjs,tW0NU9g9,2020-0188,2020-06-04,10:41:24,11:01:49,NA,incomplete,78,shape,0,0,right,Green_Plus_Chess_2.jpg,Blue_Star_Dots_2.jpg,Purple_Plus_Stripes_4.jpg,right,822.745000012219,true,low,NA,NA,NA,NA,NA,NA,NA,false
tW0NU9g9,3xabxm4ak4i034slkfn2gjsp1ra8qu,333u7hk6idsxlwitxzjbuuqvlgvdjs,tW0NU9g9,2020-0188,2020-06-04,10:41:24,11:01:49,NA,incomplete,79,shape,0,1,left,Blue_Triangle_Dots_3.jpg,Purple_Triangle_Stripes_2.jpg,Red_Star_Chess_3.jpg,left,875.5950001068413,true,low,NA,NA,NA,NA,NA,NA,NA,false
tW0NU9g9,3xabxm4ak4i034slkfn2gjsp1ra8qu,333u7hk6idsxlwitxzjbuuqvlgvdjs,tW0NU9g9,2020-0188,2020-06-04,10:41:24,11:01:49,NA,incomplete,80,shape,0,1,right,Red_Star_Grid_4.jpg,Purple_Circle_Stripes_4.jpg,Green_Star_Dots_1.jpg,right,703.3600001595914,true,low,NA,NA,NA,NA,NA,NA,NA,false
tW0NU9g9,3xabxm4ak4i034slkfn2gjsp1ra8qu,333u7hk6idsxlwitxzjbuuqvlgvdjs,tW0NU9g9,2020-0188,2020-06-04,10:41:24,11:01:49,NA,incomplete,81,shape,0,1,right,Red_Triangle_Dots_1.jpg,Green_Circle_Stripes_1.jpg,Purple_Triangle_Chess_2.jpg,right,643.5949997976422,true,low,NA,NA,NA,NA,NA,NA,NA,false
tW0NU9g9,3xabxm4ak4i034slkfn2gjsp1ra8qu,333u7hk6idsxlwitxzjbuuqvlgvdjs,tW0NU9g9,2020-0188,2020-06-04,10:41:24,11:01:49,NA,incomplete,82,shape,0,1,left,Green_Plus_Chess_2.jpg,Purple_Plus_Stripes_4.jpg,Red_Star_Dots_2.jpg,left,734.2099999077618,true,low,NA,NA,NA,NA,NA,NA,NA,false
tW0NU9g9,3xabxm4ak4i034slkfn2gjsp1ra8qu,333u7hk6idsxlwitxzjbuuqvlgvdjs,tW0NU9g9,2020-0188,2020-06-04,10:41:24,11:01:49,NA,incomplete,83,shape,0,0,left,Red_Plus_Chess_3.jpg,Blue_Plus_Dots_4.jpg,Green_Triangle_Grid_3.jpg,left,738.0950003862381,true,low,NA,NA,NA,NA,NA,NA,NA,false
tW0NU9g9,3xabxm4ak4i034slkfn2gjsp1ra8qu,333u7hk6idsxlwitxzjbuuqvlgvdjs,tW0NU9g9,2020-0188,2020-06-04,10:41:24,11:01:49,NA,incomplete,84,shape,0,1,left,Red_Triangle_Chess_1.jpg,Green_Triangle_Dots_4.jpg,Blue_Plus_Stripes_1.jpg,left,866.9599997811019,true,low,NA,NA,NA,NA,NA,NA,NA,false
tW0NU9g9,3xabxm4ak4i034slkfn2gjsp1ra8qu,333u7hk6idsxlwitxzjbuuqvlgvdjs,tW0NU9g9,2020-0188,2020-06-04,10:41:24,11:01:49,NA,incomplete,85,shape,0,0,right,Purple_Circle_Grid_1.jpg,Green_Triangle_Dots_1.jpg,Red_Circle_Chess_3.jpg,right,985.7149999588728,true,low,NA,NA,NA,NA,NA,NA,NA,false
tW0NU9g9,3xabxm4ak4i034slkfn2gjsp1ra8qu,333u7hk6idsxlwitxzjbuuqvlgvdjs,tW0NU9g9,2020-0188,2020-06-04,10:41:24,11:01:49,NA,incomplete,86,shape,0,0,left,Blue_Triangle_Dots_3.jpg,Green_Triangle_Chess_4.jpg,Purple_Circle_Stripes_3.jpg,left,883.9399996213615,true,low,NA,NA,NA,NA,NA,NA,NA,false
tW0NU9g9,3xabxm4ak4i034slkfn2gjsp1ra8qu,333u7hk6idsxlwitxzjbuuqvlgvdjs,tW0NU9g9,2020-0188,2020-06-04,10:41:24,11:01:49,NA,incomplete,87,shape,0,1,left,Red_Star_Grid_2.jpg,Purple_Star_Stripes_3.jpg,Green_Circle_Chess_2.jpg,right,1559.4299999065697,false,low,NA,NA,NA,NA,NA,NA,NA,false
tW0NU9g9,3xabxm4ak4i034slkfn2gjsp1ra8qu,333u7hk6idsxlwitxzjbuuqvlgvdjs,tW0NU9g9,2020-0188,2020-06-04,10:41:24,11:01:49,NA,incomplete,88,shape,0,1,left,Red_Star_Grid_2.jpg,Purple_Star_Chess_1.jpg,Green_Circle_Stripes_2.jpg,right,946.2699997238815,false,low,NA,NA,NA,NA,NA,NA,NA,false
tW0NU9g9,3xabxm4ak4i034slkfn2gjsp1ra8qu,333u7hk6idsxlwitxzjbuuqvlgvdjs,tW0NU9g9,2020-0188,2020-06-04,10:41:24,11:01:49,NA,incomplete,89,shape,0,1,left,Red_Star_Chess_4.jpg,Green_Star_Dots_2.jpg,Purple_Circle_Stripes_4.jpg,left,767.0599999837577,true,low,NA,NA,NA,NA,NA,NA,NA,false
tW0NU9g9,3xabxm4ak4i034slkfn2gjsp1ra8qu,333u7hk6idsxlwitxzjbuuqvlgvdjs,tW0NU9g9,2020-0188,2020-06-04,10:41:24,11:01:49,NA,incomplete,90,number,1,1,left,Blue_Triangle_Stripes_2.jpg,Purple_Plus_Grid_2.jpg,Red_Triangle_Chess_1.jpg,right,1081.2550000846386,false,low,NA,NA,NA,NA,NA,NA,NA,false
tW0NU9g9,3xabxm4ak4i034slkfn2gjsp1ra8qu,333u7hk6idsxlwitxzjbuuqvlgvdjs,tW0NU9g9,2020-0188,2020-06-04,10:41:24,11:01:49,NA,incomplete,91,number,1,1,right,Green_Star_Chess_4.jpg,Red_Star_Grid_2.jpg,Purple_Triangle_Dots_4.jpg,left,1025.7200002670288,false,low,NA,NA,NA,NA,NA,NA,NA,false
tW0NU9g9,3xabxm4ak4i034slkfn2gjsp1ra8qu,333u7hk6idsxlwitxzjbuuqvlgvdjs,tW0NU9g9,2020-0188,2020-06-04,10:41:24,11:01:49,NA,incomplete,92,number,1,1,left,Blue_Star_Grid_2.jpg,Purple_Triangle_Stripes_2.jpg,Green_Star_Chess_1.jpg,left,1013.6049999855459,true,low,NA,NA,NA,NA,NA,NA,NA,false
tW0NU9g9,3xabxm4ak4i034slkfn2gjsp1ra8qu,333u7hk6idsxlwitxzjbuuqvlgvdjs,tW0NU9g9,2020-0188,2020-06-04,10:41:24,11:01:49,NA,incomplete,93,number,1,0,right,Blue_Star_Grid_1.jpg,Green_Star_Chess_3.jpg,Purple_Plus_Dots_1.jpg,right,716.4699998684227,true,low,NA,NA,NA,NA,NA,NA,NA,false
tW0NU9g9,3xabxm4ak4i034slkfn2gjsp1ra8qu,333u7hk6idsxlwitxzjbuuqvlgvdjs,tW0NU9g9,2020-0188,2020-06-04,10:41:24,11:01:49,NA,incomplete,94,number,1,1,right,Purple_Triangle_Chess_1.jpg,Red_Triangle_Grid_4.jpg,Green_Plus_Dots_1.jpg,right,894.1899999044836,true,low,NA,NA,NA,NA,NA,NA,NA,false
tW0NU9g9,3xabxm4ak4i034slkfn2gjsp1ra8qu,333u7hk6idsxlwitxzjbuuqvlgvdjs,tW0NU9g9,2020-0188,2020-06-04,10:41:24,11:01:49,NA,incomplete,95,number,1,1,left,Green_Plus_Dots_2.jpg,Purple_Triangle_Stripes_2.jpg,Blue_Plus_Chess_1.jpg,left,798.5849999822676,true,low,NA,NA,NA,NA,NA,NA,NA,false
tW0NU9g9,3xabxm4ak4i034slkfn2gjsp1ra8qu,333u7hk6idsxlwitxzjbuuqvlgvdjs,tW0NU9g9,2020-0188,2020-06-04,10:41:24,11:01:49,NA,incomplete,96,number,1,1,right,Red_Plus_Grid_2.jpg,Blue_Plus_Dots_1.jpg,Green_Circle_Stripes_2.jpg,right,593.0300001055002,true,low,NA,NA,NA,NA,NA,NA,NA,false
tW0NU9g9,3xabxm4ak4i034slkfn2gjsp1ra8qu,333u7hk6idsxlwitxzjbuuqvlgvdjs,tW0NU9g9,2020-0188,2020-06-04,10:41:24,11:01:49,NA,incomplete,97,number,1,1,right,Green_Triangle_Grid_3.jpg,Red_Triangle_Chess_1.jpg,Blue_Star_Stripes_3.jpg,right,628.8149999454618,true,low,NA,NA,NA,NA,NA,NA,NA,false
tW0NU9g9,3xabxm4ak4i034slkfn2gjsp1ra8qu,333u7hk6idsxlwitxzjbuuqvlgvdjs,tW0NU9g9,2020-0188,2020-06-04,10:41:24,11:01:49,NA,incomplete,98,number,1,1,left,Blue_Star_Chess_2.jpg,Red_Plus_Stripes_2.jpg,Purple_Star_Dots_1.jpg,left,613.5649997740984,true,low,NA,NA,NA,NA,NA,NA,NA,false
tW0NU9g9,3xabxm4ak4i034slkfn2gjsp1ra8qu,333u7hk6idsxlwitxzjbuuqvlgvdjs,tW0NU9g9,2020-0188,2020-06-04,10:41:24,11:01:49,NA,incomplete,99,number,1,1,left,Green_Star_Dots_2.jpg,Purple_Circle_Chess_2.jpg,Blue_Star_Stripes_3.jpg,left,750.5749999545515,true,low,NA,NA,NA,NA,NA,NA,NA,false
tW0NU9g9,3xabxm4ak4i034slkfn2gjsp1ra8qu,333u7hk6idsxlwitxzjbuuqvlgvdjs,tW0NU9g9,2020-0188,2020-06-04,10:41:24,11:01:49,NA,incomplete,100,number,1,1,right,Blue_Star_Chess_3.jpg,Purple_Star_Dots_2.jpg,Green_Circle_Stripes_3.jpg,right,574.6700000017881,true,low,NA,NA,NA,NA,NA,NA,NA,false
tW0NU9g9,3xabxm4ak4i034slkfn2gjsp1ra8qu,333u7hk6idsxlwitxzjbuuqvlgvdjs,tW0NU9g9,2020-0188,2020-06-04,10:41:24,11:01:49,NA,incomplete,101,number,1,1,left,Blue_Circle_Dots_2.jpg,Purple_Plus_Grid_2.jpg,Green_Circle_Stripes_3.jpg,left,721.3649996556342,true,low,NA,NA,NA,NA,NA,NA,NA,false
tW0NU9g9,3xabxm4ak4i034slkfn2gjsp1ra8qu,333u7hk6idsxlwitxzjbuuqvlgvdjs,tW0NU9g9,2020-0188,2020-06-04,10:41:24,11:01:49,NA,incomplete,102,number,1,0,right,Red_Circle_Stripes_1.jpg,Green_Circle_Grid_3.jpg,Blue_Triangle_Dots_1.jpg,right,743.1000000797212,true,low,NA,NA,NA,NA,NA,NA,NA,false
tW0NU9g9,3xabxm4ak4i034slkfn2gjsp1ra8qu,333u7hk6idsxlwitxzjbuuqvlgvdjs,tW0NU9g9,2020-0188,2020-06-04,10:41:24,11:01:49,NA,incomplete,103,number,1,1,right,Blue_Triangle_Dots_3.jpg,Green_Triangle_Stripes_4.jpg,Red_Plus_Chess_3.jpg,right,1785.0899999029934,true,low,NA,NA,NA,NA,NA,NA,NA,false
tW0NU9g9,3xabxm4ak4i034slkfn2gjsp1ra8qu,333u7hk6idsxlwitxzjbuuqvlgvdjs,tW0NU9g9,2020-0188,2020-06-04,10:41:24,11:01:49,NA,incomplete,104,number,1,1,right,Green_Plus_Chess_1.jpg,Blue_Plus_Dots_4.jpg,Red_Star_Grid_1.jpg,right,862.2599998489022,true,low,NA,NA,NA,NA,NA,NA,NA,false
tW0NU9g9,3xabxm4ak4i034slkfn2gjsp1ra8qu,333u7hk6idsxlwitxzjbuuqvlgvdjs,tW0NU9g9,2020-0188,2020-06-04,10:41:24,11:01:49,NA,incomplete,105,number,1,0,left,Blue_Plus_Grid_2.jpg,Green_Star_Dots_2.jpg,Purple_Plus_Chess_1.jpg,left,967.6650003530085,true,low,NA,NA,NA,NA,NA,NA,NA,false
tW0NU9g9,3xabxm4ak4i034slkfn2gjsp1ra8qu,333u7hk6idsxlwitxzjbuuqvlgvdjs,tW0NU9g9,2020-0188,2020-06-04,10:41:24,11:01:49,NA,incomplete,106,number,1,1,left,Purple_Star_Stripes_3.jpg,Red_Plus_Dots_3.jpg,Blue_Star_Chess_1.jpg,left,599.5950000360608,true,low,NA,NA,NA,NA,NA,NA,NA,false
tW0NU9g9,3xabxm4ak4i034slkfn2gjsp1ra8qu,333u7hk6idsxlwitxzjbuuqvlgvdjs,tW0NU9g9,2020-0188,2020-06-04,10:41:24,11:01:49,NA,incomplete,107,number,1,1,right,Purple_Star_Dots_4.jpg,Green_Star_Chess_1.jpg,Red_Plus_Stripes_4.jpg,right,693.6249998398125,true,low,NA,NA,NA,NA,NA,NA,NA,false
tW0NU9g9,3xabxm4ak4i034slkfn2gjsp1ra8qu,333u7hk6idsxlwitxzjbuuqvlgvdjs,tW0NU9g9,2020-0188,2020-06-04,10:41:24,11:01:49,NA,incomplete,108,number,1,1,left,Blue_Triangle_Dots_2.jpg,Green_Plus_Grid_2.jpg,Red_Triangle_Stripes_1.jpg,left,723.2450000010431,true,low,NA,NA,NA,NA,NA,NA,NA,false
tW0NU9g9,3xabxm4ak4i034slkfn2gjsp1ra8qu,333u7hk6idsxlwitxzjbuuqvlgvdjs,tW0NU9g9,2020-0188,2020-06-04,10:41:24,11:01:49,NA,incomplete,109,number,1,1,left,Green_Star_Chess_1.jpg,Red_Triangle_Stripes_1.jpg,Blue_Star_Dots_4.jpg,left,1344.3049998022616,true,low,NA,NA,NA,NA,NA,NA,NA,false
tW0NU9g9,3xabxm4ak4i034slkfn2gjsp1ra8qu,333u7hk6idsxlwitxzjbuuqvlgvdjs,tW0NU9g9,2020-0188,2020-06-04,10:41:24,11:01:49,NA,incomplete,110,number,1,1,right,Green_Triangle_Dots_4.jpg,Red_Triangle_Chess_2.jpg,Blue_Plus_Stripes_4.jpg,right,617.9999997839332,true,low,NA,NA,NA,NA,NA,NA,NA,false
tW0NU9g9,3xabxm4ak4i034slkfn2gjsp1ra8qu,333u7hk6idsxlwitxzjbuuqvlgvdjs,tW0NU9g9,2020-0188,2020-06-04,10:41:24,11:01:49,NA,incomplete,111,number,1,0,right,Red_Star_Dots_3.jpg,Green_Star_Chess_4.jpg,Purple_Triangle_Stripes_3.jpg,right,617.749999742955,true,low,NA,NA,NA,NA,NA,NA,NA,false
tW0NU9g9,3xabxm4ak4i034slkfn2gjsp1ra8qu,333u7hk6idsxlwitxzjbuuqvlgvdjs,tW0NU9g9,2020-0188,2020-06-04,10:41:24,11:01:49,NA,incomplete,112,number,1,1,left,Blue_Circle_Dots_4.jpg,Red_Plus_Chess_4.jpg,Purple_Circle_Grid_2.jpg,left,581.7100000567734,true,low,NA,NA,NA,NA,NA,NA,NA,false
tW0NU9g9,3xabxm4ak4i034slkfn2gjsp1ra8qu,333u7hk6idsxlwitxzjbuuqvlgvdjs,tW0NU9g9,2020-0188,2020-06-04,10:41:24,11:01:49,NA,incomplete,113,number,1,1,left,Red_Plus_Stripes_1.jpg,Purple_Circle_Dots_1.jpg,Blue_Plus_Grid_2.jpg,left,1000.4650000482798,true,low,NA,NA,NA,NA,NA,NA,NA,false
tW0NU9g9,3xabxm4ak4i034slkfn2gjsp1ra8qu,333u7hk6idsxlwitxzjbuuqvlgvdjs,tW0NU9g9,2020-0188,2020-06-04,10:41:24,11:01:49,NA,incomplete,114,number,1,0,right,Blue_Triangle_Stripes_1.jpg,Green_Triangle_Dots_4.jpg,Purple_Star_Grid_1.jpg,right,599.6000003069639,true,low,NA,NA,NA,NA,NA,NA,NA,false
tW0NU9g9,3xabxm4ak4i034slkfn2gjsp1ra8qu,333u7hk6idsxlwitxzjbuuqvlgvdjs,tW0NU9g9,2020-0188,2020-06-04,10:41:24,11:01:49,NA,incomplete,115,number,1,1,left,Blue_Circle_Chess_1.jpg,Red_Star_Dots_1.jpg,Purple_Circle_Grid_4.jpg,left,562.2300002723932,true,low,NA,NA,NA,NA,NA,NA,NA,false
tW0NU9g9,3xabxm4ak4i034slkfn2gjsp1ra8qu,333u7hk6idsxlwitxzjbuuqvlgvdjs,tW0NU9g9,2020-0188,2020-06-04,10:41:24,11:01:49,NA,incomplete,116,number,1,1,left,Green_Plus_Grid_1.jpg,Purple_Triangle_Dots_1.jpg,Red_Plus_Chess_4.jpg,left,774.1449996829033,true,low,NA,NA,NA,NA,NA,NA,NA,false
tW0NU9g9,3xabxm4ak4i034slkfn2gjsp1ra8qu,333u7hk6idsxlwitxzjbuuqvlgvdjs,tW0NU9g9,2020-0188,2020-06-04,10:41:24,11:01:49,NA,incomplete,117,number,1,1,left,Green_Star_Chess_3.jpg,Purple_Circle_Grid_3.jpg,Blue_Star_Dots_2.jpg,left,891.9699997641146,true,low,NA,NA,NA,NA,NA,NA,NA,false
tW0NU9g9,3xabxm4ak4i034slkfn2gjsp1ra8qu,333u7hk6idsxlwitxzjbuuqvlgvdjs,tW0NU9g9,2020-0188,2020-06-04,10:41:24,11:01:49,NA,incomplete,118,number,1,0,left,Red_Circle_Chess_1.jpg,Purple_Plus_Dots_1.jpg,Blue_Circle_Stripes_2.jpg,left,706.0650000348687,true,low,NA,NA,NA,NA,NA,NA,NA,false
tW0NU9g9,3xabxm4ak4i034slkfn2gjsp1ra8qu,333u7hk6idsxlwitxzjbuuqvlgvdjs,tW0NU9g9,2020-0188,2020-06-04,10:41:24,11:01:49,NA,incomplete,119,number,1,0,right,Blue_Plus_Dots_1.jpg,Red_Plus_Stripes_4.jpg,Purple_Circle_Chess_1.jpg,right,792.9650000296533,true,low,NA,NA,NA,NA,NA,NA,NA,false
tW0NU9g9,3xabxm4ak4i034slkfn2gjsp1ra8qu,333u7hk6idsxlwitxzjbuuqvlgvdjs,tW0NU9g9,2020-0188,2020-06-04,10:41:24,11:01:49,NA,incomplete,120,race,2,1,right,A_F_10.jpg,C_F_14.jpg,A_M_02.jpg,NA,NA,NA,low,NA,NA,NA,NA,NA,NA,NA,false
tW0NU9g9,3xabxm4ak4i034slkfn2gjsp1ra8qu,333u7hk6idsxlwitxzjbuuqvlgvdjs,tW0NU9g9,2020-0188,2020-06-04,10:41:24,11:01:49,NA,incomplete,121,race,2,1,right,A_F_03.jpg,C_F_06.jpg,A_M_01.jpg,left,942.439999897033,false,low,NA,NA,NA,NA,NA,NA,NA,false
tW0NU9g9,3xabxm4ak4i034slkfn2gjsp1ra8qu,333u7hk6idsxlwitxzjbuuqvlgvdjs,tW0NU9g9,2020-0188,2020-06-04,10:41:24,11:01:49,NA,incomplete,122,race,2,1,left,C_F_10.jpg,C_M_09.jpg,A_F_04.jpg,right,1065.219999756664,false,low,NA,NA,NA,NA,NA,NA,NA,false
tW0NU9g9,3xabxm4ak4i034slkfn2gjsp1ra8qu,333u7hk6idsxlwitxzjbuuqvlgvdjs,tW0NU9g9,2020-0188,2020-06-04,10:41:24,11:01:49,NA,incomplete,123,race,2,1,right,A_F_13.jpg,C_F_02.jpg,A_M_03.jpg,right,1306.0249998234212,true,low,NA,NA,NA,NA,NA,NA,NA,false
tW0NU9g9,3xabxm4ak4i034slkfn2gjsp1ra8qu,333u7hk6idsxlwitxzjbuuqvlgvdjs,tW0NU9g9,2020-0188,2020-06-04,10:41:24,11:01:49,NA,incomplete,124,race,2,1,right,C_M_03.jpg,A_M_10.jpg,C_F_12.jpg,right,1019.000000320375,true,low,NA,NA,NA,NA,NA,NA,NA,false
tW0NU9g9,3xabxm4ak4i034slkfn2gjsp1ra8qu,333u7hk6idsxlwitxzjbuuqvlgvdjs,tW0NU9g9,2020-0188,2020-06-04,10:41:24,11:01:49,NA,incomplete,125,race,2,0,right,C_F_13.jpg,A_F_05.jpg,C_M_16.jpg,right,1112.1749999001622,true,low,NA,NA,NA,NA,NA,NA,NA,false
tW0NU9g9,3xabxm4ak4i034slkfn2gjsp1ra8qu,333u7hk6idsxlwitxzjbuuqvlgvdjs,tW0NU9g9,2020-0188,2020-06-04,10:41:24,11:01:49,NA,incomplete,126,race,2,1,right,C_F_03.jpg,A_F_15.jpg,C_M_12.jpg,right,1188.7700003571808,true,low,NA,NA,NA,NA,NA,NA,NA,false
tW0NU9g9,3xabxm4ak4i034slkfn2gjsp1ra8qu,333u7hk6idsxlwitxzjbuuqvlgvdjs,tW0NU9g9,2020-0188,2020-06-04,10:41:24,11:01:49,NA,incomplete,127,race,2,1,left,C_F_10.jpg,C_M_14.jpg,A_F_07.jpg,left,1065.4349997639656,true,low,NA,NA,NA,NA,NA,NA,NA,false
tW0NU9g9,3xabxm4ak4i034slkfn2gjsp1ra8qu,333u7hk6idsxlwitxzjbuuqvlgvdjs,tW0NU9g9,2020-0188,2020-06-04,10:41:24,11:01:49,NA,incomplete,128,race,2,1,right,A_F_09.jpg,C_F_03.jpg,A_M_11.jpg,right,1135.2599998936057,true,low,NA,NA,NA,NA,NA,NA,NA,false
tW0NU9g9,3xabxm4ak4i034slkfn2gjsp1ra8qu,333u7hk6idsxlwitxzjbuuqvlgvdjs,tW0NU9g9,2020-0188,2020-06-04,10:41:24,11:01:49,NA,incomplete,129,race,2,1,left,C_M_16.jpg,C_F_01.jpg,A_M_14.jpg,left,1354.594999924302,true,low,NA,NA,NA,NA,NA,NA,NA,false
tW0NU9g9,3xabxm4ak4i034slkfn2gjsp1ra8qu,333u7hk6idsxlwitxzjbuuqvlgvdjs,tW0NU9g9,2020-0188,2020-06-04,10:41:24,11:01:49,NA,incomplete,130,race,2,1,right,A_M_14.jpg,C_M_13.jpg,A_F_09.jpg,right,1353.9800001308322,true,low,NA,NA,NA,NA,NA,NA,NA,false
tW0NU9g9,3xabxm4ak4i034slkfn2gjsp1ra8qu,333u7hk6idsxlwitxzjbuuqvlgvdjs,tW0NU9g9,2020-0188,2020-06-04,10:41:24,11:01:49,NA,incomplete,131,race,2,1,left,C_M_01.jpg,C_F_13.jpg,A_M_04.jpg,left,1157.8549998812377,true,low,NA,NA,NA,NA,NA,NA,NA,false
tW0NU9g9,3xabxm4ak4i034slkfn2gjsp1ra8qu,333u7hk6idsxlwitxzjbuuqvlgvdjs,tW0NU9g9,2020-0188,2020-06-04,10:41:24,11:01:49,NA,incomplete,132,race,2,1,left,A_F_07.jpg,A_M_05.jpg,C_F_14.jpg,left,1196.5999999083579,true,low,NA,NA,NA,NA,NA,NA,NA,false
tW0NU9g9,3xabxm4ak4i034slkfn2gjsp1ra8qu,333u7hk6idsxlwitxzjbuuqvlgvdjs,tW0NU9g9,2020-0188,2020-06-04,10:41:24,11:01:49,NA,incomplete,133,race,2,1,left,C_M_16.jpg,C_F_14.jpg,A_M_01.jpg,left,1219.6800000965595,true,low,NA,NA,NA,NA,NA,NA,NA,false
tW0NU9g9,3xabxm4ak4i034slkfn2gjsp1ra8qu,333u7hk6idsxlwitxzjbuuqvlgvdjs,tW0NU9g9,2020-0188,2020-06-04,10:41:24,11:01:49,NA,incomplete,134,race,2,0,right,A_M_05.jpg,C_M_04.jpg,A_F_14.jpg,right,996.395000256598,true,low,NA,NA,NA,NA,NA,NA,NA,false
tW0NU9g9,3xabxm4ak4i034slkfn2gjsp1ra8qu,333u7hk6idsxlwitxzjbuuqvlgvdjs,tW0NU9g9,2020-0188,2020-06-04,10:41:24,11:01:49,NA,incomplete,135,race,2,1,right,A_M_10.jpg,C_M_03.jpg,A_F_15.jpg,right,1367.044999729842,true,low,NA,NA,NA,NA,NA,NA,NA,false
tW0NU9g9,3xabxm4ak4i034slkfn2gjsp1ra8qu,333u7hk6idsxlwitxzjbuuqvlgvdjs,tW0NU9g9,2020-0188,2020-06-04,10:41:24,11:01:49,NA,incomplete,136,race,2,0,left,A_F_06.jpg,A_M_10.jpg,C_F_12.jpg,left,1413.9149999246001,true,low,NA,NA,NA,NA,NA,NA,NA,false
tW0NU9g9,3xabxm4ak4i034slkfn2gjsp1ra8qu,333u7hk6idsxlwitxzjbuuqvlgvdjs,tW0NU9g9,2020-0188,2020-06-04,10:41:24,11:01:49,NA,incomplete,137,race,2,1,left,A_M_11.jpg,A_F_13.jpg,C_M_02.jpg,left,1252.570000011474,true,low,NA,NA,NA,NA,NA,NA,NA,false
tW0NU9g9,3xabxm4ak4i034slkfn2gjsp1ra8qu,333u7hk6idsxlwitxzjbuuqvlgvdjs,tW0NU9g9,2020-0188,2020-06-04,10:41:24,11:01:49,NA,incomplete,138,race,2,1,left,A_M_03.jpg,A_F_11.jpg,C_M_15.jpg,left,1108.500000089407,true,low,NA,NA,NA,NA,NA,NA,NA,false
tW0NU9g9,3xabxm4ak4i034slkfn2gjsp1ra8qu,333u7hk6idsxlwitxzjbuuqvlgvdjs,tW0NU9g9,2020-0188,2020-06-04,10:41:24,11:01:49,NA,incomplete,139,race,2,1,right,A_M_10.jpg,C_M_16.jpg,A_F_05.jpg,right,992.3650003038347,true,low,NA,NA,NA,NA,NA,NA,NA,false
tW0NU9g9,3xabxm4ak4i034slkfn2gjsp1ra8qu,333u7hk6idsxlwitxzjbuuqvlgvdjs,tW0NU9g9,2020-0188,2020-06-04,10:41:24,11:01:49,NA,incomplete,140,gender,3,1,right,C_M_08.jpg,C_F_02.jpg,A_M_06.jpg,left,973.3100002631545,false,low,NA,NA,NA,NA,NA,NA,NA,false
tW0NU9g9,3xabxm4ak4i034slkfn2gjsp1ra8qu,333u7hk6idsxlwitxzjbuuqvlgvdjs,tW0NU9g9,2020-0188,2020-06-04,10:41:24,11:01:49,NA,incomplete,141,gender,3,1,right,C_M_01.jpg,C_F_10.jpg,A_M_14.jpg,left,1097.5250001065433,false,low,NA,NA,NA,NA,NA,NA,NA,false
tW0NU9g9,3xabxm4ak4i034slkfn2gjsp1ra8qu,333u7hk6idsxlwitxzjbuuqvlgvdjs,tW0NU9g9,2020-0188,2020-06-04,10:41:24,11:01:49,NA,incomplete,142,gender,3,1,left,A_M_07.jpg,C_M_01.jpg,A_F_06.jpg,left,972.7850002236664,true,low,NA,NA,NA,NA,NA,NA,NA,false
tW0NU9g9,3xabxm4ak4i034slkfn2gjsp1ra8qu,333u7hk6idsxlwitxzjbuuqvlgvdjs,tW0NU9g9,2020-0188,2020-06-04,10:41:24,11:01:49,NA,incomplete,143,gender,3,1,right,A_F_02.jpg,A_M_06.jpg,C_F_12.jpg,right,1331.7899997346103,true,low,NA,NA,NA,NA,NA,NA,NA,false
tW0NU9g9,3xabxm4ak4i034slkfn2gjsp1ra8qu,333u7hk6idsxlwitxzjbuuqvlgvdjs,tW0NU9g9,2020-0188,2020-06-04,10:41:24,11:01:49,NA,incomplete,144,gender,3,1,left,C_M_04.jpg,A_M_12.jpg,C_F_09.jpg,left,790.5299998819828,true,low,NA,NA,NA,NA,NA,NA,NA,false
tW0NU9g9,3xabxm4ak4i034slkfn2gjsp1ra8qu,333u7hk6idsxlwitxzjbuuqvlgvdjs,tW0NU9g9,2020-0188,2020-06-04,10:41:24,11:01:49,NA,incomplete,145,gender,3,1,right,A_F_16.jpg,A_M_04.jpg,C_F_03.jpg,right,768.4300001710653,true,low,NA,NA,NA,NA,NA,NA,NA,false
tW0NU9g9,3xabxm4ak4i034slkfn2gjsp1ra8qu,333u7hk6idsxlwitxzjbuuqvlgvdjs,tW0NU9g9,2020-0188,2020-06-04,10:41:24,11:01:49,NA,incomplete,146,gender,3,1,left,C_M_02.jpg,A_M_16.jpg,C_F_03.jpg,left,1071.6200000606477,true,low,NA,NA,NA,NA,NA,NA,NA,false
tW0NU9g9,3xabxm4ak4i034slkfn2gjsp1ra8qu,333u7hk6idsxlwitxzjbuuqvlgvdjs,tW0NU9g9,2020-0188,2020-06-04,10:41:24,11:01:49,NA,incomplete,147,gender,3,1,left,A_M_13.jpg,C_M_05.jpg,A_F_01.jpg,left,783.195000141859,true,low,NA,NA,NA,NA,NA,NA,NA,false
tW0NU9g9,3xabxm4ak4i034slkfn2gjsp1ra8qu,333u7hk6idsxlwitxzjbuuqvlgvdjs,tW0NU9g9,2020-0188,2020-06-04,10:41:24,11:01:49,NA,incomplete,148,gender,3,1,left,C_M_10.jpg,A_M_02.jpg,C_F_05.jpg,left,1118.914999999106,true,low,NA,NA,NA,NA,NA,NA,NA,false
tW0NU9g9,3xabxm4ak4i034slkfn2gjsp1ra8qu,333u7hk6idsxlwitxzjbuuqvlgvdjs,tW0NU9g9,2020-0188,2020-06-04,10:41:24,11:01:49,NA,incomplete,149,gender,3,1,right,A_M_14.jpg,A_F_04.jpg,C_M_02.jpg,right,1016.754999756813,true,low,NA,NA,NA,NA,NA,NA,NA,false
tW0NU9g9,3xabxm4ak4i034slkfn2gjsp1ra8qu,333u7hk6idsxlwitxzjbuuqvlgvdjs,tW0NU9g9,2020-0188,2020-06-04,10:41:24,11:01:49,NA,incomplete,150,gender,3,1,right,A_M_13.jpg,A_F_10.jpg,C_M_07.jpg,right,850.8600001223385,true,low,NA,NA,NA,NA,NA,NA,NA,false
tW0NU9g9,3xabxm4ak4i034slkfn2gjsp1ra8qu,333u7hk6idsxlwitxzjbuuqvlgvdjs,tW0NU9g9,2020-0188,2020-06-04,10:41:24,11:01:49,NA,incomplete,151,gender,3,1,left,A_F_11.jpg,C_F_06.jpg,A_M_13.jpg,left,1072.8750000707805,true,low,NA,NA,NA,NA,NA,NA,NA,false
tW0NU9g9,3xabxm4ak4i034slkfn2gjsp1ra8qu,333u7hk6idsxlwitxzjbuuqvlgvdjs,tW0NU9g9,2020-0188,2020-06-04,10:41:24,11:01:49,NA,incomplete,152,gender,3,1,left,C_M_07.jpg,A_M_05.jpg,C_F_11.jpg,left,814.2500002868474,true,low,NA,NA,NA,NA,NA,NA,NA,false
tW0NU9g9,3xabxm4ak4i034slkfn2gjsp1ra8qu,333u7hk6idsxlwitxzjbuuqvlgvdjs,tW0NU9g9,2020-0188,2020-06-04,10:41:24,11:01:49,NA,incomplete,153,gender,3,0,right,A_M_14.jpg,A_F_04.jpg,C_M_05.jpg,right,795.3400001861155,true,low,NA,NA,NA,NA,NA,NA,NA,false
tW0NU9g9,3xabxm4ak4i034slkfn2gjsp1ra8qu,333u7hk6idsxlwitxzjbuuqvlgvdjs,tW0NU9g9,2020-0188,2020-06-04,10:41:24,11:01:49,NA,incomplete,154,gender,3,1,left,A_M_05.jpg,C_M_02.jpg,A_F_06.jpg,left,722.565000411123,true,low,NA,NA,NA,NA,NA,NA,NA,false
tW0NU9g9,3xabxm4ak4i034slkfn2gjsp1ra8qu,333u7hk6idsxlwitxzjbuuqvlgvdjs,tW0NU9g9,2020-0188,2020-06-04,10:41:24,11:01:49,NA,incomplete,155,gender,3,1,right,C_M_07.jpg,C_F_03.jpg,A_M_13.jpg,right,748.9350000396371,true,low,NA,NA,NA,NA,NA,NA,NA,false
tW0NU9g9,3xabxm4ak4i034slkfn2gjsp1ra8qu,333u7hk6idsxlwitxzjbuuqvlgvdjs,tW0NU9g9,2020-0188,2020-06-04,10:41:24,11:01:49,NA,incomplete,156,gender,3,1,right,C_F_01.jpg,C_M_11.jpg,A_F_12.jpg,right,863.2650002837181,true,low,NA,NA,NA,NA,NA,NA,NA,false
tW0NU9g9,3xabxm4ak4i034slkfn2gjsp1ra8qu,333u7hk6idsxlwitxzjbuuqvlgvdjs,tW0NU9g9,2020-0188,2020-06-04,10:41:24,11:01:49,NA,incomplete,157,gender,3,1,right,A_F_08.jpg,A_M_07.jpg,C_F_02.jpg,right,749.5450000278652,true,low,NA,NA,NA,NA,NA,NA,NA,false
tW0NU9g9,3xabxm4ak4i034slkfn2gjsp1ra8qu,333u7hk6idsxlwitxzjbuuqvlgvdjs,tW0NU9g9,2020-0188,2020-06-04,10:41:24,11:01:49,NA,incomplete,158,gender,3,1,right,A_M_02.jpg,A_F_07.jpg,C_M_15.jpg,right,1352.5199997238815,true,low,NA,NA,NA,NA,NA,NA,NA,false
tW0NU9g9,3xabxm4ak4i034slkfn2gjsp1ra8qu,333u7hk6idsxlwitxzjbuuqvlgvdjs,tW0NU9g9,2020-0188,2020-06-04,10:41:24,11:01:49,NA,incomplete,159,gender,3,1,right,A_M_09.jpg,A_F_12.jpg,C_M_08.jpg,right,876.420000102371,true,low,NA,NA,NA,NA,NA,NA,NA,false
tW0NU9g9,3xabxm4ak4i034slkfn2gjsp1ra8qu,333u7hk6idsxlwitxzjbuuqvlgvdjs,tW0NU9g9,2020-0188,2020-06-04,10:41:24,11:01:49,NA,incomplete,160,race,2,0,right,C_F_10.jpg,A_F_04.jpg,C_M_12.jpg,left,818.1049996055663,false,low,NA,NA,NA,NA,NA,NA,NA,false
tW0NU9g9,3xabxm4ak4i034slkfn2gjsp1ra8qu,333u7hk6idsxlwitxzjbuuqvlgvdjs,tW0NU9g9,2020-0188,2020-06-04,10:41:24,11:01:49,NA,incomplete,161,race,2,1,right,A_F_03.jpg,C_F_01.jpg,A_M_14.jpg,left,919.3000001832843,false,low,NA,NA,NA,NA,NA,NA,NA,false
tW0NU9g9,3xabxm4ak4i034slkfn2gjsp1ra8qu,333u7hk6idsxlwitxzjbuuqvlgvdjs,tW0NU9g9,2020-0188,2020-06-04,10:41:24,11:01:49,NA,incomplete,162,race,2,0,right,C_M_06.jpg,A_M_05.jpg,C_F_10.jpg,left,956.8650000728667,false,low,NA,NA,NA,NA,NA,NA,NA,false
tW0NU9g9,3xabxm4ak4i034slkfn2gjsp1ra8qu,333u7hk6idsxlwitxzjbuuqvlgvdjs,tW0NU9g9,2020-0188,2020-06-04,10:41:24,11:01:49,NA,incomplete,163,race,2,1,right,C_M_09.jpg,A_M_01.jpg,C_F_06.jpg,left,862.6799997873604,false,low,NA,NA,NA,NA,NA,NA,NA,false
tW0NU9g9,3xabxm4ak4i034slkfn2gjsp1ra8qu,333u7hk6idsxlwitxzjbuuqvlgvdjs,tW0NU9g9,2020-0188,2020-06-04,10:41:24,11:01:49,NA,incomplete,164,race,2,1,left,C_F_09.jpg,C_M_04.jpg,A_F_16.jpg,right,907.5449998490512,false,low,NA,NA,NA,NA,NA,NA,NA,false
tW0NU9g9,3xabxm4ak4i034slkfn2gjsp1ra8qu,333u7hk6idsxlwitxzjbuuqvlgvdjs,tW0NU9g9,2020-0188,2020-06-04,10:41:24,11:01:49,NA,incomplete,165,race,2,1,right,C_M_13.jpg,A_M_03.jpg,C_F_04.jpg,right,969.5049999281764,true,low,NA,NA,NA,NA,NA,NA,NA,false
tW0NU9g9,3xabxm4ak4i034slkfn2gjsp1ra8qu,333u7hk6idsxlwitxzjbuuqvlgvdjs,tW0NU9g9,2020-0188,2020-06-04,10:41:24,11:01:49,NA,incomplete,166,race,2,1,right,C_F_02.jpg,A_F_01.jpg,C_M_08.jpg,left,893.5549999587238,false,low,NA,NA,NA,NA,NA,NA,NA,false
tW0NU9g9,3xabxm4ak4i034slkfn2gjsp1ra8qu,333u7hk6idsxlwitxzjbuuqvlgvdjs,tW0NU9g9,2020-0188,2020-06-04,10:41:24,11:01:49,NA,incomplete,167,race,2,0,left,A_M_12.jpg,A_F_05.jpg,C_M_15.jpg,left,1323.0800000019372,true,low,NA,NA,NA,NA,NA,NA,NA,false
tW0NU9g9,3xabxm4ak4i034slkfn2gjsp1ra8qu,333u7hk6idsxlwitxzjbuuqvlgvdjs,tW0NU9g9,2020-0188,2020-06-04,10:41:24,11:01:49,NA,incomplete,168,race,2,1,right,A_M_12.jpg,C_M_15.jpg,A_F_04.jpg,right,1194.750000257045,true,low,NA,NA,NA,NA,NA,NA,NA,false
tW0NU9g9,3xabxm4ak4i034slkfn2gjsp1ra8qu,333u7hk6idsxlwitxzjbuuqvlgvdjs,tW0NU9g9,2020-0188,2020-06-04,10:41:24,11:01:49,NA,incomplete,169,race,2,1,right,A_F_06.jpg,C_F_10.jpg,A_M_15.jpg,right,1054.6149997971952,true,low,NA,NA,NA,NA,NA,NA,NA,false
tW0NU9g9,3xabxm4ak4i034slkfn2gjsp1ra8qu,333u7hk6idsxlwitxzjbuuqvlgvdjs,tW0NU9g9,2020-0188,2020-06-04,10:41:24,11:01:49,NA,incomplete,170,race,2,0,left,A_M_08.jpg,A_F_10.jpg,C_M_05.jpg,left,1060.5750000104308,true,low,NA,NA,NA,NA,NA,NA,NA,false
tW0NU9g9,3xabxm4ak4i034slkfn2gjsp1ra8qu,333u7hk6idsxlwitxzjbuuqvlgvdjs,tW0NU9g9,2020-0188,2020-06-04,10:41:24,11:01:49,NA,incomplete,171,race,2,1,right,C_F_16.jpg,A_F_14.jpg,C_M_08.jpg,right,1068.2500000111759,true,low,NA,NA,NA,NA,NA,NA,NA,false
tW0NU9g9,3xabxm4ak4i034slkfn2gjsp1ra8qu,333u7hk6idsxlwitxzjbuuqvlgvdjs,tW0NU9g9,2020-0188,2020-06-04,10:41:24,11:01:49,NA,incomplete,172,race,2,1,right,C_F_05.jpg,A_F_10.jpg,C_M_14.jpg,right,1177.1299997344613,true,low,NA,NA,NA,NA,NA,NA,NA,false
tW0NU9g9,3xabxm4ak4i034slkfn2gjsp1ra8qu,333u7hk6idsxlwitxzjbuuqvlgvdjs,tW0NU9g9,2020-0188,2020-06-04,10:41:24,11:01:49,NA,incomplete,173,race,2,0,left,A_F_10.jpg,A_M_04.jpg,C_F_05.jpg,left,910.150000359863,true,low,NA,NA,NA,NA,NA,NA,NA,false
tW0NU9g9,3xabxm4ak4i034slkfn2gjsp1ra8qu,333u7hk6idsxlwitxzjbuuqvlgvdjs,tW0NU9g9,2020-0188,2020-06-04,10:41:24,11:01:49,NA,incomplete,174,race,2,1,right,C_F_06.jpg,A_F_13.jpg,C_M_16.jpg,right,1227.1549999713898,true,low,NA,NA,NA,NA,NA,NA,NA,false
tW0NU9g9,3xabxm4ak4i034slkfn2gjsp1ra8qu,333u7hk6idsxlwitxzjbuuqvlgvdjs,tW0NU9g9,2020-0188,2020-06-04,10:41:24,11:01:49,NA,incomplete,175,race,2,1,left,A_M_10.jpg,A_F_15.jpg,C_M_02.jpg,left,1268.6899998225272,true,low,NA,NA,NA,NA,NA,NA,NA,false
tW0NU9g9,3xabxm4ak4i034slkfn2gjsp1ra8qu,333u7hk6idsxlwitxzjbuuqvlgvdjs,tW0NU9g9,2020-0188,2020-06-04,10:41:24,11:01:49,NA,incomplete,176,race,2,0,right,C_F_07.jpg,A_F_13.jpg,C_M_14.jpg,right,1286.3799999468029,true,low,NA,NA,NA,NA,NA,NA,NA,false
tW0NU9g9,3xabxm4ak4i034slkfn2gjsp1ra8qu,333u7hk6idsxlwitxzjbuuqvlgvdjs,tW0NU9g9,2020-0188,2020-06-04,10:41:24,11:01:49,NA,incomplete,177,race,2,1,right,C_F_07.jpg,A_F_01.jpg,C_M_02.jpg,right,1231.3249995931983,true,low,NA,NA,NA,NA,NA,NA,NA,false
tW0NU9g9,3xabxm4ak4i034slkfn2gjsp1ra8qu,333u7hk6idsxlwitxzjbuuqvlgvdjs,tW0NU9g9,2020-0188,2020-06-04,10:41:24,11:01:49,NA,incomplete,178,race,2,0,left,A_M_07.jpg,A_F_12.jpg,C_M_13.jpg,left,1079.3800000101328,true,low,NA,NA,NA,NA,NA,NA,NA,false
tW0NU9g9,3xabxm4ak4i034slkfn2gjsp1ra8qu,333u7hk6idsxlwitxzjbuuqvlgvdjs,tW0NU9g9,2020-0188,2020-06-04,10:41:24,11:01:49,NA,incomplete,179,race,2,1,left,A_M_04.jpg,A_F_16.jpg,C_M_12.jpg,left,1320.9449998103082,true,low,NA,NA,NA,NA,NA,NA,NA,false
tW0NU9g9,3xabxm4ak4i034slkfn2gjsp1ra8qu,333u7hk6idsxlwitxzjbuuqvlgvdjs,tW0NU9g9,2020-0188,2020-06-04,10:41:24,11:01:49,NA,incomplete,180,gender,3,1,right,C_F_11.jpg,C_M_03.jpg,A_F_14.jpg,left,1259.7600002773106,false,low,NA,NA,NA,NA,NA,NA,NA,false
tW0NU9g9,3xabxm4ak4i034slkfn2gjsp1ra8qu,333u7hk6idsxlwitxzjbuuqvlgvdjs,tW0NU9g9,2020-0188,2020-06-04,10:41:24,11:01:49,NA,incomplete,181,gender,3,1,right,A_F_08.jpg,A_M_04.jpg,C_F_07.jpg,left,1488.75999962911,false,low,NA,NA,NA,NA,NA,NA,NA,false
tW0NU9g9,3xabxm4ak4i034slkfn2gjsp1ra8qu,333u7hk6idsxlwitxzjbuuqvlgvdjs,tW0NU9g9,2020-0188,2020-06-04,10:41:24,11:01:49,NA,incomplete,182,gender,3,1,right,C_M_07.jpg,C_F_14.jpg,A_M_06.jpg,right,938.6999998241663,true,low,NA,NA,NA,NA,NA,NA,NA,false
tW0NU9g9,3xabxm4ak4i034slkfn2gjsp1ra8qu,333u7hk6idsxlwitxzjbuuqvlgvdjs,tW0NU9g9,2020-0188,2020-06-04,10:41:24,11:01:49,NA,incomplete,183,gender,3,0,right,C_M_13.jpg,C_F_01.jpg,A_M_14.jpg,right,1214.149999897927,true,low,NA,NA,NA,NA,NA,NA,NA,false
tW0NU9g9,3xabxm4ak4i034slkfn2gjsp1ra8qu,333u7hk6idsxlwitxzjbuuqvlgvdjs,tW0NU9g9,2020-0188,2020-06-04,10:41:24,11:01:49,NA,incomplete,184,gender,3,1,right,C_M_13.jpg,C_F_16.jpg,A_M_08.jpg,right,1114.9599999189377,true,low,NA,NA,NA,NA,NA,NA,NA,false
tW0NU9g9,3xabxm4ak4i034slkfn2gjsp1ra8qu,333u7hk6idsxlwitxzjbuuqvlgvdjs,tW0NU9g9,2020-0188,2020-06-04,10:41:24,11:01:49,NA,incomplete,185,gender,3,0,right,C_F_13.jpg,C_M_10.jpg,A_F_04.jpg,right,1110.0750002078712,true,low,NA,NA,NA,NA,NA,NA,NA,false
tW0NU9g9,3xabxm4ak4i034slkfn2gjsp1ra8qu,333u7hk6idsxlwitxzjbuuqvlgvdjs,tW0NU9g9,2020-0188,2020-06-04,10:41:24,11:01:49,NA,incomplete,186,gender,3,1,right,C_M_14.jpg,C_F_09.jpg,A_M_16.jpg,right,1356.2099998816848,true,low,NA,NA,NA,NA,NA,NA,NA,false
tW0NU9g9,3xabxm4ak4i034slkfn2gjsp1ra8qu,333u7hk6idsxlwitxzjbuuqvlgvdjs,tW0NU9g9,2020-0188,2020-06-04,10:41:24,11:01:49,NA,incomplete,187,gender,3,1,left,C_M_15.jpg,A_M_05.jpg,C_F_08.jpg,left,905.6549998931587,true,low,NA,NA,NA,NA,NA,NA,NA,false
tW0NU9g9,3xabxm4ak4i034slkfn2gjsp1ra8qu,333u7hk6idsxlwitxzjbuuqvlgvdjs,tW0NU9g9,2020-0188,2020-06-04,10:41:24,11:01:49,NA,incomplete,188,gender,3,1,left,A_M_11.jpg,C_M_07.jpg,A_F_15.jpg,left,936.4599999971688,true,low,NA,NA,NA,NA,NA,NA,NA,false
tW0NU9g9,3xabxm4ak4i034slkfn2gjsp1ra8qu,333u7hk6idsxlwitxzjbuuqvlgvdjs,tW0NU9g9,2020-0188,2020-06-04,10:41:24,11:01:49,NA,incomplete,189,gender,3,1,right,A_F_02.jpg,A_M_14.jpg,C_F_15.jpg,right,980.1799999549985,true,low,NA,NA,NA,NA,NA,NA,NA,false
tW0NU9g9,3xabxm4ak4i034slkfn2gjsp1ra8qu,333u7hk6idsxlwitxzjbuuqvlgvdjs,tW0NU9g9,2020-0188,2020-06-04,10:41:24,11:01:49,NA,incomplete,190,gender,3,0,left,C_M_14.jpg,A_M_04.jpg,C_F_15.jpg,left,816.20500003919,true,low,NA,NA,NA,NA,NA,NA,NA,false
tW0NU9g9,3xabxm4ak4i034slkfn2gjsp1ra8qu,333u7hk6idsxlwitxzjbuuqvlgvdjs,tW0NU9g9,2020-0188,2020-06-04,10:41:24,11:01:49,NA,incomplete,191,gender,3,1,left,A_M_04.jpg,C_M_10.jpg,A_F_09.jpg,left,900.2950000576675,true,low,NA,NA,NA,NA,NA,NA,NA,false
tW0NU9g9,3xabxm4ak4i034slkfn2gjsp1ra8qu,333u7hk6idsxlwitxzjbuuqvlgvdjs,tW0NU9g9,2020-0188,2020-06-04,10:41:24,11:01:49,NA,incomplete,192,gender,3,0,left,C_F_10.jpg,A_F_07.jpg,C_M_12.jpg,left,1012.7799999900162,true,low,NA,NA,NA,NA,NA,NA,NA,false
tW0NU9g9,3xabxm4ak4i034slkfn2gjsp1ra8qu,333u7hk6idsxlwitxzjbuuqvlgvdjs,tW0NU9g9,2020-0188,2020-06-04,10:41:24,11:01:49,NA,incomplete,193,gender,3,1,left,A_M_08.jpg,C_M_01.jpg,A_F_10.jpg,left,1025.6199999712408,true,low,NA,NA,NA,NA,NA,NA,NA,false
tW0NU9g9,3xabxm4ak4i034slkfn2gjsp1ra8qu,333u7hk6idsxlwitxzjbuuqvlgvdjs,tW0NU9g9,2020-0188,2020-06-04,10:41:24,11:01:49,NA,incomplete,194,gender,3,1,left,A_M_14.jpg,C_M_02.jpg,A_F_16.jpg,left,930.4799996316433,true,low,NA,NA,NA,NA,NA,NA,NA,false
tW0NU9g9,3xabxm4ak4i034slkfn2gjsp1ra8qu,333u7hk6idsxlwitxzjbuuqvlgvdjs,tW0NU9g9,2020-0188,2020-06-04,10:41:24,11:01:49,NA,incomplete,195,gender,3,1,right,C_M_03.jpg,C_F_14.jpg,A_M_05.jpg,right,622.2149999812245,true,low,NA,NA,NA,NA,NA,NA,NA,false
tW0NU9g9,3xabxm4ak4i034slkfn2gjsp1ra8qu,333u7hk6idsxlwitxzjbuuqvlgvdjs,tW0NU9g9,2020-0188,2020-06-04,10:41:24,11:01:49,NA,incomplete,196,gender,3,1,left,A_F_01.jpg,C_F_09.jpg,A_M_15.jpg,left,765.4999997466803,true,low,NA,NA,NA,NA,NA,NA,NA,false
tW0NU9g9,3xabxm4ak4i034slkfn2gjsp1ra8qu,333u7hk6idsxlwitxzjbuuqvlgvdjs,tW0NU9g9,2020-0188,2020-06-04,10:41:24,11:01:49,NA,incomplete,197,gender,3,0,left,C_M_05.jpg,A_M_03.jpg,C_F_14.jpg,left,792.0050001703203,true,low,NA,NA,NA,NA,NA,NA,NA,false
tW0NU9g9,3xabxm4ak4i034slkfn2gjsp1ra8qu,333u7hk6idsxlwitxzjbuuqvlgvdjs,tW0NU9g9,2020-0188,2020-06-04,10:41:24,11:01:49,NA,incomplete,198,gender,3,1,left,C_M_02.jpg,A_M_09.jpg,C_F_07.jpg,left,915.9699999727309,true,low,NA,NA,NA,NA,NA,NA,NA,false
tW0NU9g9,3xabxm4ak4i034slkfn2gjsp1ra8qu,333u7hk6idsxlwitxzjbuuqvlgvdjs,tW0NU9g9,2020-0188,2020-06-04,10:41:24,11:01:49,NA,incomplete,199,gender,3,1,left,C_M_04.jpg,A_M_05.jpg,C_F_09.jpg,left,798.6099999397993,true,low,NA,NA,NA,NA,NA,NA,NA,false
tW0NU9g9,3xabxm4ak4i034slkfn2gjsp1ra8qu,333u7hk6idsxlwitxzjbuuqvlgvdjs,tW0NU9g9,2020-0188,2020-06-04,10:41:24,11:01:49,NA,incomplete,200,race,2,0,left,C_F_01.jpg,C_M_14.jpg,A_F_04.jpg,right,1183.4950000047684,false,low,NA,NA,NA,NA,NA,NA,NA,false
tW0NU9g9,3xabxm4ak4i034slkfn2gjsp1ra8qu,333u7hk6idsxlwitxzjbuuqvlgvdjs,tW0NU9g9,2020-0188,2020-06-04,10:41:24,11:01:49,NA,incomplete,201,race,2,1,right,A_F_03.jpg,C_F_01.jpg,A_M_11.jpg,left,924.6849999763072,false,low,NA,NA,NA,NA,NA,NA,NA,false
tW0NU9g9,3xabxm4ak4i034slkfn2gjsp1ra8qu,333u7hk6idsxlwitxzjbuuqvlgvdjs,tW0NU9g9,2020-0188,2020-06-04,10:41:24,11:01:49,NA,incomplete,202,race,2,1,right,A_F_08.jpg,C_F_14.jpg,A_M_04.jpg,left,916.3949997164309,false,low,NA,NA,NA,NA,NA,NA,NA,false
tW0NU9g9,3xabxm4ak4i034slkfn2gjsp1ra8qu,333u7hk6idsxlwitxzjbuuqvlgvdjs,tW0NU9g9,2020-0188,2020-06-04,10:41:24,11:01:49,NA,incomplete,203,race,2,1,right,C_M_03.jpg,A_M_13.jpg,C_F_09.jpg,right,1018.0450002662838,true,low,NA,NA,NA,NA,NA,NA,NA,false
tW0NU9g9,3xabxm4ak4i034slkfn2gjsp1ra8qu,333u7hk6idsxlwitxzjbuuqvlgvdjs,tW0NU9g9,2020-0188,2020-06-04,10:41:24,11:01:49,NA,incomplete,204,race,2,0,right,C_M_11.jpg,A_M_01.jpg,C_F_07.jpg,right,1057.92500032112,true,low,NA,NA,NA,NA,NA,NA,NA,false
tW0NU9g9,3xabxm4ak4i034slkfn2gjsp1ra8qu,333u7hk6idsxlwitxzjbuuqvlgvdjs,tW0NU9g9,2020-0188,2020-06-04,10:41:24,11:01:49,NA,incomplete,205,race,2,1,left,C_M_10.jpg,C_F_04.jpg,A_M_16.jpg,left,864.7949998266995,true,low,NA,NA,NA,NA,NA,NA,NA,false
tW0NU9g9,3xabxm4ak4i034slkfn2gjsp1ra8qu,333u7hk6idsxlwitxzjbuuqvlgvdjs,tW0NU9g9,2020-0188,2020-06-04,10:41:24,11:01:49,NA,incomplete,206,race,2,1,right,C_M_08.jpg,A_M_12.jpg,C_F_03.jpg,right,847.0350001007318,true,low,NA,NA,NA,NA,NA,NA,NA,false
tW0NU9g9,3xabxm4ak4i034slkfn2gjsp1ra8qu,333u7hk6idsxlwitxzjbuuqvlgvdjs,tW0NU9g9,2020-0188,2020-06-04,10:41:24,11:01:49,NA,incomplete,207,race,2,1,left,C_F_06.jpg,C_M_16.jpg,A_F_01.jpg,left,932.4799999594688,true,low,NA,NA,NA,NA,NA,NA,NA,false
tW0NU9g9,3xabxm4ak4i034slkfn2gjsp1ra8qu,333u7hk6idsxlwitxzjbuuqvlgvdjs,tW0NU9g9,2020-0188,2020-06-04,10:41:24,11:01:49,NA,incomplete,208,race,2,1,left,A_F_05.jpg,A_M_07.jpg,C_F_09.jpg,left,856.1399998143315,true,low,NA,NA,NA,NA,NA,NA,NA,false
tW0NU9g9,3xabxm4ak4i034slkfn2gjsp1ra8qu,333u7hk6idsxlwitxzjbuuqvlgvdjs,tW0NU9g9,2020-0188,2020-06-04,10:41:24,11:01:49,NA,incomplete,209,race,2,1,right,A_F_12.jpg,C_F_08.jpg,A_M_14.jpg,left,1470.3049999661744,false,low,NA,NA,NA,NA,NA,NA,NA,false
tW0NU9g9,3xabxm4ak4i034slkfn2gjsp1ra8qu,333u7hk6idsxlwitxzjbuuqvlgvdjs,tW0NU9g9,2020-0188,2020-06-04,10:41:24,11:01:49,NA,incomplete,210,race,2,1,left,C_F_07.jpg,C_M_02.jpg,A_F_10.jpg,left,1023.1449999846518,true,low,NA,NA,NA,NA,NA,NA,NA,false
tW0NU9g9,3xabxm4ak4i034slkfn2gjsp1ra8qu,333u7hk6idsxlwitxzjbuuqvlgvdjs,tW0NU9g9,2020-0188,2020-06-04,10:41:24,11:01:49,NA,incomplete,211,race,2,0,left,C_M_14.jpg,C_F_06.jpg,A_M_10.jpg,left,864.9200000800192,true,low,NA,NA,NA,NA,NA,NA,NA,false
tW0NU9g9,3xabxm4ak4i034slkfn2gjsp1ra8qu,333u7hk6idsxlwitxzjbuuqvlgvdjs,tW0NU9g9,2020-0188,2020-06-04,10:41:24,11:01:49,NA,incomplete,212,race,2,1,left,A_M_05.jpg,A_F_01.jpg,C_M_10.jpg,left,1439.5649996586144,true,low,NA,NA,NA,NA,NA,NA,NA,false
tW0NU9g9,3xabxm4ak4i034slkfn2gjsp1ra8qu,333u7hk6idsxlwitxzjbuuqvlgvdjs,tW0NU9g9,2020-0188,2020-06-04,10:41:24,11:01:49,NA,incomplete,213,race,2,1,right,C_F_07.jpg,A_F_15.jpg,C_M_14.jpg,right,1356.4100000075996,true,low,NA,NA,NA,NA,NA,NA,NA,false
tW0NU9g9,3xabxm4ak4i034slkfn2gjsp1ra8qu,333u7hk6idsxlwitxzjbuuqvlgvdjs,tW0NU9g9,2020-0188,2020-06-04,10:41:24,11:01:49,NA,incomplete,214,race,2,1,right,C_M_08.jpg,A_M_10.jpg,C_F_09.jpg,right,1246.5149997733533,true,low,NA,NA,NA,NA,NA,NA,NA,false
tW0NU9g9,3xabxm4ak4i034slkfn2gjsp1ra8qu,333u7hk6idsxlwitxzjbuuqvlgvdjs,tW0NU9g9,2020-0188,2020-06-04,10:41:24,11:01:49,NA,incomplete,215,race,2,1,left,A_F_09.jpg,A_M_05.jpg,C_F_07.jpg,left,1042.200000025332,true,low,NA,NA,NA,NA,NA,NA,NA,false
tW0NU9g9,3xabxm4ak4i034slkfn2gjsp1ra8qu,333u7hk6idsxlwitxzjbuuqvlgvdjs,tW0NU9g9,2020-0188,2020-06-04,10:41:24,11:01:49,NA,incomplete,216,race,2,1,right,A_F_05.jpg,C_F_08.jpg,A_M_14.jpg,right,984.9749999120831,true,low,NA,NA,NA,NA,NA,NA,NA,false
tW0NU9g9,3xabxm4ak4i034slkfn2gjsp1ra8qu,333u7hk6idsxlwitxzjbuuqvlgvdjs,tW0NU9g9,2020-0188,2020-06-04,10:41:24,11:01:49,NA,incomplete,217,race,2,1,left,A_M_04.jpg,A_F_14.jpg,C_M_15.jpg,left,865.8050000667572,true,low,NA,NA,NA,NA,NA,NA,NA,false
tW0NU9g9,3xabxm4ak4i034slkfn2gjsp1ra8qu,333u7hk6idsxlwitxzjbuuqvlgvdjs,tW0NU9g9,2020-0188,2020-06-04,10:41:24,11:01:49,NA,incomplete,218,race,2,0,left,C_F_01.jpg,C_M_08.jpg,A_F_14.jpg,left,1085.6100004166365,true,low,NA,NA,NA,NA,NA,NA,NA,false
tW0NU9g9,3xabxm4ak4i034slkfn2gjsp1ra8qu,333u7hk6idsxlwitxzjbuuqvlgvdjs,tW0NU9g9,2020-0188,2020-06-04,10:41:24,11:01:49,NA,incomplete,219,race,2,1,left,A_F_06.jpg,A_M_15.jpg,C_F_03.jpg,left,1345.7650002092123,true,low,NA,NA,NA,NA,NA,NA,NA,false
tW0NU9g9,3xabxm4ak4i034slkfn2gjsp1ra8qu,333u7hk6idsxlwitxzjbuuqvlgvdjs,tW0NU9g9,2020-0188,2020-06-04,10:41:24,11:01:49,NA,incomplete,220,gender,3,1,left,A_M_05.jpg,C_M_14.jpg,A_F_10.jpg,right,1085.2249995805323,false,low,NA,NA,NA,NA,NA,NA,NA,false
tW0NU9g9,3xabxm4ak4i034slkfn2gjsp1ra8qu,333u7hk6idsxlwitxzjbuuqvlgvdjs,tW0NU9g9,2020-0188,2020-06-04,10:41:24,11:01:49,NA,incomplete,221,gender,3,1,right,C_F_13.jpg,C_M_02.jpg,A_F_03.jpg,left,1428.3799999393523,false,low,NA,NA,NA,NA,NA,NA,NA,false
tW0NU9g9,3xabxm4ak4i034slkfn2gjsp1ra8qu,333u7hk6idsxlwitxzjbuuqvlgvdjs,tW0NU9g9,2020-0188,2020-06-04,10:41:24,11:01:49,NA,incomplete,222,gender,3,1,left,C_F_11.jpg,A_F_13.jpg,C_M_08.jpg,left,1079.8700000159442,true,low,NA,NA,NA,NA,NA,NA,NA,false
tW0NU9g9,3xabxm4ak4i034slkfn2gjsp1ra8qu,333u7hk6idsxlwitxzjbuuqvlgvdjs,tW0NU9g9,2020-0188,2020-06-04,10:41:24,11:01:49,NA,incomplete,223,gender,3,1,left,C_F_13.jpg,A_F_03.jpg,C_M_05.jpg,left,744.0399997867644,true,low,NA,NA,NA,NA,NA,NA,NA,false
tW0NU9g9,3xabxm4ak4i034slkfn2gjsp1ra8qu,333u7hk6idsxlwitxzjbuuqvlgvdjs,tW0NU9g9,2020-0188,2020-06-04,10:41:24,11:01:49,NA,incomplete,224,gender,3,0,left,C_F_10.jpg,A_F_03.jpg,C_M_07.jpg,left,916.5599998086691,true,low,NA,NA,NA,NA,NA,NA,NA,false
tW0NU9g9,3xabxm4ak4i034slkfn2gjsp1ra8qu,333u7hk6idsxlwitxzjbuuqvlgvdjs,tW0NU9g9,2020-0188,2020-06-04,10:41:24,11:01:49,NA,incomplete,225,gender,3,1,left,C_M_07.jpg,A_M_04.jpg,C_F_05.jpg,left,1095.430000219494,true,low,NA,NA,NA,NA,NA,NA,NA,false
tW0NU9g9,3xabxm4ak4i034slkfn2gjsp1ra8qu,333u7hk6idsxlwitxzjbuuqvlgvdjs,tW0NU9g9,2020-0188,2020-06-04,10:41:24,11:01:49,NA,incomplete,226,gender,3,1,left,A_F_16.jpg,C_F_05.jpg,A_M_06.jpg,left,907.3250000365078,true,low,NA,NA,NA,NA,NA,NA,NA,false
tW0NU9g9,3xabxm4ak4i034slkfn2gjsp1ra8qu,333u7hk6idsxlwitxzjbuuqvlgvdjs,tW0NU9g9,2020-0188,2020-06-04,10:41:24,11:01:49,NA,incomplete,227,gender,3,1,right,A_F_08.jpg,A_M_06.jpg,C_F_14.jpg,right,710.1149996742606,true,low,NA,NA,NA,NA,NA,NA,NA,false
tW0NU9g9,3xabxm4ak4i034slkfn2gjsp1ra8qu,333u7hk6idsxlwitxzjbuuqvlgvdjs,tW0NU9g9,2020-0188,2020-06-04,10:41:24,11:01:49,NA,incomplete,228,gender,3,1,right,C_F_12.jpg,C_M_10.jpg,A_F_05.jpg,right,829.4350001960993,true,low,NA,NA,NA,NA,NA,NA,NA,false
tW0NU9g9,3xabxm4ak4i034slkfn2gjsp1ra8qu,333u7hk6idsxlwitxzjbuuqvlgvdjs,tW0NU9g9,2020-0188,2020-06-04,10:41:24,11:01:49,NA,incomplete,229,gender,3,1,left,A_M_05.jpg,C_M_13.jpg,A_F_09.jpg,left,1021.974999923259,true,low,NA,NA,NA,NA,NA,NA,NA,false
tW0NU9g9,3xabxm4ak4i034slkfn2gjsp1ra8qu,333u7hk6idsxlwitxzjbuuqvlgvdjs,tW0NU9g9,2020-0188,2020-06-04,10:41:24,11:01:49,NA,incomplete,230,gender,3,1,left,A_F_08.jpg,C_F_02.jpg,A_M_13.jpg,left,760.7599999755621,true,low,NA,NA,NA,NA,NA,NA,NA,false
tW0NU9g9,3xabxm4ak4i034slkfn2gjsp1ra8qu,333u7hk6idsxlwitxzjbuuqvlgvdjs,tW0NU9g9,2020-0188,2020-06-04,10:41:24,11:01:49,NA,incomplete,231,gender,3,1,right,A_M_12.jpg,A_F_04.jpg,C_M_02.jpg,right,648.5999999567866,true,low,NA,NA,NA,NA,NA,NA,NA,false
tW0NU9g9,3xabxm4ak4i034slkfn2gjsp1ra8qu,333u7hk6idsxlwitxzjbuuqvlgvdjs,tW0NU9g9,2020-0188,2020-06-04,10:41:24,11:01:49,NA,incomplete,232,gender,3,1,right,A_F_13.jpg,A_M_09.jpg,C_F_04.jpg,right,691.485000308603,true,low,NA,NA,NA,NA,NA,NA,NA,false
tW0NU9g9,3xabxm4ak4i034slkfn2gjsp1ra8qu,333u7hk6idsxlwitxzjbuuqvlgvdjs,tW0NU9g9,2020-0188,2020-06-04,10:41:24,11:01:49,NA,incomplete,233,gender,3,0,left,C_F_02.jpg,A_F_12.jpg,C_M_08.jpg,left,720.5849997699261,true,low,NA,NA,NA,NA,NA,NA,NA,false
tW0NU9g9,3xabxm4ak4i034slkfn2gjsp1ra8qu,333u7hk6idsxlwitxzjbuuqvlgvdjs,tW0NU9g9,2020-0188,2020-06-04,10:41:24,11:01:49,NA,incomplete,234,gender,3,1,left,A_M_13.jpg,C_M_16.jpg,A_F_02.jpg,left,901.1649996973574,true,low,NA,NA,NA,NA,NA,NA,NA,false
tW0NU9g9,3xabxm4ak4i034slkfn2gjsp1ra8qu,333u7hk6idsxlwitxzjbuuqvlgvdjs,tW0NU9g9,2020-0188,2020-06-04,10:41:24,11:01:49,NA,incomplete,235,gender,3,0,right,C_F_06.jpg,C_M_09.jpg,A_F_12.jpg,right,765.0150000117719,true,low,NA,NA,NA,NA,NA,NA,NA,false
tW0NU9g9,3xabxm4ak4i034slkfn2gjsp1ra8qu,333u7hk6idsxlwitxzjbuuqvlgvdjs,tW0NU9g9,2020-0188,2020-06-04,10:41:24,11:01:49,NA,incomplete,236,gender,3,1,left,A_F_07.jpg,C_F_10.jpg,A_M_14.jpg,left,731.8249996751547,true,low,NA,NA,NA,NA,NA,NA,NA,false
tW0NU9g9,3xabxm4ak4i034slkfn2gjsp1ra8qu,333u7hk6idsxlwitxzjbuuqvlgvdjs,tW0NU9g9,2020-0188,2020-06-04,10:41:24,11:01:49,NA,incomplete,237,gender,3,0,left,A_M_10.jpg,C_M_03.jpg,A_F_16.jpg,left,721.5950000099838,true,low,NA,NA,NA,NA,NA,NA,NA,false
tW0NU9g9,3xabxm4ak4i034slkfn2gjsp1ra8qu,333u7hk6idsxlwitxzjbuuqvlgvdjs,tW0NU9g9,2020-0188,2020-06-04,10:41:24,11:01:49,NA,incomplete,238,gender,3,1,right,C_M_03.jpg,C_F_12.jpg,A_M_10.jpg,right,822.0350001938641,true,low,NA,NA,NA,NA,NA,NA,NA,false
tW0NU9g9,3xabxm4ak4i034slkfn2gjsp1ra8qu,333u7hk6idsxlwitxzjbuuqvlgvdjs,tW0NU9g9,2020-0188,2020-06-04,10:41:24,11:01:49,NA,incomplete,239,gender,3,1,right,A_M_05.jpg,A_F_03.jpg,C_M_12.jpg,right,919.3599997088313,true,low,NA,NA,NA,NA,NA,NA,NA,false
tW0NU9g9,3xabxm4ak4i034slkfn2gjsp1ra8qu,333u7hk6idsxlwitxzjbuuqvlgvdjs,tW0NU9g9,2020-0188,2020-06-04,10:41:24,11:01:49,NA,NA,instruction example,shape,NA,NA,NA,Green_Triangle_Dots_2.jpg,Blue_Triangle_Chess_1.jpg,Purple_Circle_Grid_2.jpg,NA,NA,NA,NA,NA,NA,NA,NA,NA,NA,NA,undefined
tW0NU9g9,3xabxm4ak4i034slkfn2gjsp1ra8qu,333u7hk6idsxlwitxzjbuuqvlgvdjs,tW0NU9g9,2020-0188,2020-06-04,10:41:24,11:01:49,NA,NA,instruction example,shape,NA,NA,NA,Purple_Star_Chess_3.jpg,Green_Triangle_Grid_3.jpg,Blue_Star_Dots_2.jpg,NA,NA,NA,NA,NA,NA,NA,NA,NA,NA,NA,undefined
tW0NU9g9,3xabxm4ak4i034slkfn2gjsp1ra8qu,333u7hk6idsxlwitxzjbuuqvlgvdjs,tW0NU9g9,2020-0188,2020-06-04,10:41:24,11:01:49,NA,NA,instruction example,shape,NA,NA,NA,A_M_12.jpg,A_F_01.jpg,C_M_08.jpg,NA,NA,NA,NA,NA,NA,NA,NA,NA,NA,NA,undefined
tW0NU9g9,3xabxm4ak4i034slkfn2gjsp1ra8qu,333u7hk6idsxlwitxzjbuuqvlgvdjs,tW0NU9g9,2020-0188,2020-06-04,10:41:24,11:01:49,NA,NA,instruction example,shape,NA,NA,NA,C_F_12.jpg,A_F_06.jpg,C_M_13.jpg,NA,NA,NA,NA,NA,NA,NA,NA,NA,NA,NA,undefined
tW0NU9g9,3xabxm4ak4i034slkfn2gjsp1ra8qu,333u7hk6idsxlwitxzjbuuqvlgvdjs,tW0NU9g9,2020-0188,2020-06-04,10:41:24,11:01:49,1163426.514999941,1226635.8199999668,NA,NA,NA,NA,NA,NA,NA,NA,NA,NA,NA,NA,34,Asian,Male,Korean,no,yes,no,undefined
