workerId,hitId,assignmentId,subject,studyid,exp_date,exp_start,exp_end,time_start,time_end,trial,type,sequence,reward_validity,answer,image_top,image_left,image_right,response,response_time,response_acc,volatility,practice
P8H8fX7g,38f60ialbjuvdvfa6f4is9xu20x0td,336kav9kyu50dbfcma0x8yef1s52yq,P8H8fX7g,2020-0188,2020-06-04,11:50:03,12:08:49,NA,incomplete,0,filling,0,1,right,Blue_Triangle_Grid_4.jpg,Blue_Star_Dots_1.jpg,Red_Circle_Grid_2.jpg,right,947.4300000001676,true,NA,true
P8H8fX7g,38f60ialbjuvdvfa6f4is9xu20x0td,336kav9kyu50dbfcma0x8yef1s52yq,P8H8fX7g,2020-0188,2020-06-04,11:50:03,12:08:49,NA,incomplete,1,filling,0,1,right,Purple_Plus_Chess_2.jpg,Purple_Star_Stripes_1.jpg,Red_Triangle_Chess_4.jpg,right,942.7349999987637,true,NA,true
P8H8fX7g,38f60ialbjuvdvfa6f4is9xu20x0td,336kav9kyu50dbfcma0x8yef1s52yq,P8H8fX7g,2020-0188,2020-06-04,11:50:03,12:08:49,NA,incomplete,2,filling,0,0,right,Green_Star_Grid_4.jpg,Green_Plus_Dots_1.jpg,Red_Circle_Grid_2.jpg,right,769.6849999992992,true,NA,true
P8H8fX7g,38f60ialbjuvdvfa6f4is9xu20x0td,336kav9kyu50dbfcma0x8yef1s52yq,P8H8fX7g,2020-0188,2020-06-04,11:50:03,12:08:49,NA,incomplete,3,filling,0,0,right,Blue_Circle_Grid_4.jpg,Blue_Plus_Stripes_3.jpg,Green_Triangle_Grid_2.jpg,left,833.5299999999115,false,NA,true
P8H8fX7g,38f60ialbjuvdvfa6f4is9xu20x0td,336kav9kyu50dbfcma0x8yef1s52yq,P8H8fX7g,2020-0188,2020-06-04,11:50:03,12:08:49,NA,incomplete,4,filling,0,1,right,Blue_Circle_Stripes_4.jpg,Blue_Triangle_Dots_3.jpg,Green_Star_Stripes_2.jpg,right,932.2449999999371,true,NA,true
P8H8fX7g,38f60ialbjuvdvfa6f4is9xu20x0td,336kav9kyu50dbfcma0x8yef1s52yq,P8H8fX7g,2020-0188,2020-06-04,11:50:03,12:08:49,NA,incomplete,5,filling,0,1,left,Purple_Triangle_Dots_4.jpg,Green_Plus_Dots_3.jpg,Purple_Circle_Grid_1.jpg,left,893.6900000008172,true,NA,true
P8H8fX7g,38f60ialbjuvdvfa6f4is9xu20x0td,336kav9kyu50dbfcma0x8yef1s52yq,P8H8fX7g,2020-0188,2020-06-04,11:50:03,12:08:49,NA,incomplete,6,filling,0,1,left,Purple_Plus_Stripes_2.jpg,Red_Triangle_Stripes_4.jpg,Purple_Star_Chess_3.jpg,left,832.87000000017,true,NA,true
P8H8fX7g,38f60ialbjuvdvfa6f4is9xu20x0td,336kav9kyu50dbfcma0x8yef1s52yq,P8H8fX7g,2020-0188,2020-06-04,11:50:03,12:08:49,NA,incomplete,7,filling,0,1,left,Purple_Circle_Grid_2.jpg,Blue_Star_Grid_3.jpg,Purple_Plus_Chess_1.jpg,left,1250.625000000582,true,NA,true
P8H8fX7g,38f60ialbjuvdvfa6f4is9xu20x0td,336kav9kyu50dbfcma0x8yef1s52yq,P8H8fX7g,2020-0188,2020-06-04,11:50:03,12:08:49,NA,incomplete,8,filling,0,1,left,Green_Plus_Dots_3.jpg,Red_Circle_Dots_2.jpg,Green_Triangle_Grid_1.jpg,left,1004.4300000008661,true,NA,true
P8H8fX7g,38f60ialbjuvdvfa6f4is9xu20x0td,336kav9kyu50dbfcma0x8yef1s52yq,P8H8fX7g,2020-0188,2020-06-04,11:50:03,12:08:49,NA,incomplete,9,filling,0,0,right,Blue_Plus_Dots_3.jpg,Blue_Star_Stripes_4.jpg,Purple_Circle_Dots_2.jpg,right,864.4800000002142,true,NA,true
P8H8fX7g,38f60ialbjuvdvfa6f4is9xu20x0td,336kav9kyu50dbfcma0x8yef1s52yq,P8H8fX7g,2020-0188,2020-06-04,11:50:03,12:08:49,NA,incomplete,10,filling,0,1,left,Blue_Star_Dots_4.jpg,Green_Plus_Dots_2.jpg,Blue_Circle_Stripes_3.jpg,left,791.3800000005285,true,NA,true
P8H8fX7g,38f60ialbjuvdvfa6f4is9xu20x0td,336kav9kyu50dbfcma0x8yef1s52yq,P8H8fX7g,2020-0188,2020-06-04,11:50:03,12:08:49,NA,incomplete,11,filling,0,1,left,Purple_Star_Dots_3.jpg,Red_Plus_Dots_4.jpg,Purple_Triangle_Stripes_2.jpg,left,866.6950000006473,true,NA,true
P8H8fX7g,38f60ialbjuvdvfa6f4is9xu20x0td,336kav9kyu50dbfcma0x8yef1s52yq,P8H8fX7g,2020-0188,2020-06-04,11:50:03,12:08:49,NA,incomplete,12,filling,0,1,left,Red_Triangle_Dots_3.jpg,Purple_Plus_Dots_4.jpg,Red_Star_Chess_2.jpg,left,817.7999999988824,true,NA,true
P8H8fX7g,38f60ialbjuvdvfa6f4is9xu20x0td,336kav9kyu50dbfcma0x8yef1s52yq,P8H8fX7g,2020-0188,2020-06-04,11:50:03,12:08:49,NA,incomplete,13,filling,0,1,right,Green_Circle_Chess_1.jpg,Green_Plus_Grid_2.jpg,Blue_Star_Chess_3.jpg,right,953.079999999376,true,NA,true
P8H8fX7g,38f60ialbjuvdvfa6f4is9xu20x0td,336kav9kyu50dbfcma0x8yef1s52yq,P8H8fX7g,2020-0188,2020-06-04,11:50:03,12:08:49,NA,incomplete,14,filling,0,1,right,Red_Plus_Stripes_3.jpg,Red_Triangle_Chess_2.jpg,Blue_Star_Stripes_1.jpg,right,805.7300000000396,true,NA,true
P8H8fX7g,38f60ialbjuvdvfa6f4is9xu20x0td,336kav9kyu50dbfcma0x8yef1s52yq,P8H8fX7g,2020-0188,2020-06-04,11:50:03,12:08:49,NA,incomplete,15,filling,0,1,left,Green_Star_Chess_2.jpg,Blue_Triangle_Chess_1.jpg,Green_Plus_Stripes_4.jpg,left,898.9849999998114,true,NA,true
P8H8fX7g,38f60ialbjuvdvfa6f4is9xu20x0td,336kav9kyu50dbfcma0x8yef1s52yq,P8H8fX7g,2020-0188,2020-06-04,11:50:03,12:08:49,NA,incomplete,16,filling,0,0,left,Red_Circle_Dots_1.jpg,Purple_Plus_Dots_3.jpg,Red_Star_Stripes_2.jpg,left,775.3549999997485,true,NA,true
P8H8fX7g,38f60ialbjuvdvfa6f4is9xu20x0td,336kav9kyu50dbfcma0x8yef1s52yq,P8H8fX7g,2020-0188,2020-06-04,11:50:03,12:08:49,NA,incomplete,17,filling,0,1,left,Green_Plus_Dots_2.jpg,Purple_Triangle_Dots_4.jpg,Green_Circle_Grid_3.jpg,left,664.7849999989849,true,NA,true
P8H8fX7g,38f60ialbjuvdvfa6f4is9xu20x0td,336kav9kyu50dbfcma0x8yef1s52yq,P8H8fX7g,2020-0188,2020-06-04,11:50:03,12:08:49,NA,incomplete,18,filling,0,1,right,Blue_Plus_Grid_4.jpg,Blue_Star_Chess_1.jpg,Red_Triangle_Grid_2.jpg,right,1040.7500000001164,true,NA,true
P8H8fX7g,38f60ialbjuvdvfa6f4is9xu20x0td,336kav9kyu50dbfcma0x8yef1s52yq,P8H8fX7g,2020-0188,2020-06-04,11:50:03,12:08:49,NA,incomplete,19,filling,0,1,left,Purple_Triangle_Stripes_4.jpg,Green_Plus_Stripes_1.jpg,Purple_Circle_Chess_3.jpg,left,858.0750000001281,true,NA,true
P8H8fX7g,38f60ialbjuvdvfa6f4is9xu20x0td,336kav9kyu50dbfcma0x8yef1s52yq,P8H8fX7g,2020-0188,2020-06-04,11:50:03,12:08:49,NA,incomplete,20,color,1,1,left,Green_Plus_Chess_3.jpg,Green_Star_Grid_2.jpg,Red_Triangle_Chess_1.jpg,right,887.9699999997974,false,NA,true
P8H8fX7g,38f60ialbjuvdvfa6f4is9xu20x0td,336kav9kyu50dbfcma0x8yef1s52yq,P8H8fX7g,2020-0188,2020-06-04,11:50:03,12:08:49,NA,incomplete,21,color,1,1,right,Purple_Plus_Chess_4.jpg,Red_Star_Chess_3.jpg,Purple_Triangle_Grid_1.jpg,left,817.8199999983772,false,NA,true
P8H8fX7g,38f60ialbjuvdvfa6f4is9xu20x0td,336kav9kyu50dbfcma0x8yef1s52yq,P8H8fX7g,2020-0188,2020-06-04,11:50:03,12:08:49,NA,incomplete,22,color,1,1,right,Blue_Triangle_Dots_1.jpg,Purple_Star_Dots_4.jpg,Blue_Circle_Grid_2.jpg,right,1273.8050000007497,true,NA,true
P8H8fX7g,38f60ialbjuvdvfa6f4is9xu20x0td,336kav9kyu50dbfcma0x8yef1s52yq,P8H8fX7g,2020-0188,2020-06-04,11:50:03,12:08:49,NA,incomplete,23,color,1,1,left,Green_Circle_Grid_3.jpg,Green_Triangle_Stripes_4.jpg,Blue_Star_Grid_1.jpg,left,470.695000000007,true,NA,true
P8H8fX7g,38f60ialbjuvdvfa6f4is9xu20x0td,336kav9kyu50dbfcma0x8yef1s52yq,P8H8fX7g,2020-0188,2020-06-04,11:50:03,12:08:49,NA,incomplete,24,color,1,1,right,Purple_Plus_Chess_1.jpg,Blue_Circle_Chess_4.jpg,Purple_Triangle_Stripes_3.jpg,right,561.3200000007055,true,NA,true
P8H8fX7g,38f60ialbjuvdvfa6f4is9xu20x0td,336kav9kyu50dbfcma0x8yef1s52yq,P8H8fX7g,2020-0188,2020-06-04,11:50:03,12:08:49,NA,incomplete,25,color,1,1,left,Blue_Plus_Chess_3.jpg,Blue_Circle_Dots_1.jpg,Red_Triangle_Chess_4.jpg,left,481.93499999976484,true,NA,true
P8H8fX7g,38f60ialbjuvdvfa6f4is9xu20x0td,336kav9kyu50dbfcma0x8yef1s52yq,P8H8fX7g,2020-0188,2020-06-04,11:50:03,12:08:49,NA,incomplete,26,color,1,0,left,Red_Star_Chess_3.jpg,Red_Plus_Stripes_2.jpg,Green_Circle_Chess_1.jpg,left,494.82999999966705,true,NA,true
P8H8fX7g,38f60ialbjuvdvfa6f4is9xu20x0td,336kav9kyu50dbfcma0x8yef1s52yq,P8H8fX7g,2020-0188,2020-06-04,11:50:03,12:08:49,NA,incomplete,27,color,1,1,left,Red_Star_Stripes_4.jpg,Red_Circle_Dots_1.jpg,Green_Triangle_Stripes_3.jpg,left,558.0300000001444,true,NA,true
P8H8fX7g,38f60ialbjuvdvfa6f4is9xu20x0td,336kav9kyu50dbfcma0x8yef1s52yq,P8H8fX7g,2020-0188,2020-06-04,11:50:03,12:08:49,NA,incomplete,28,color,1,1,left,Red_Star_Grid_4.jpg,Red_Triangle_Stripes_2.jpg,Green_Circle_Grid_3.jpg,left,486.19500000128755,true,NA,true
P8H8fX7g,38f60ialbjuvdvfa6f4is9xu20x0td,336kav9kyu50dbfcma0x8yef1s52yq,P8H8fX7g,2020-0188,2020-06-04,11:50:03,12:08:49,NA,incomplete,29,color,1,1,right,Blue_Star_Chess_1.jpg,Green_Plus_Chess_2.jpg,Blue_Triangle_Dots_3.jpg,right,483.08499999984633,true,NA,true
P8H8fX7g,38f60ialbjuvdvfa6f4is9xu20x0td,336kav9kyu50dbfcma0x8yef1s52yq,P8H8fX7g,2020-0188,2020-06-04,11:50:03,12:08:49,NA,incomplete,30,color,1,0,left,Blue_Plus_Grid_2.jpg,Blue_Triangle_Dots_4.jpg,Purple_Star_Grid_3.jpg,left,431.90000000142027,true,NA,true
P8H8fX7g,38f60ialbjuvdvfa6f4is9xu20x0td,336kav9kyu50dbfcma0x8yef1s52yq,P8H8fX7g,2020-0188,2020-06-04,11:50:03,12:08:49,NA,incomplete,31,color,1,1,left,Blue_Triangle_Chess_2.jpg,Blue_Circle_Grid_3.jpg,Green_Plus_Chess_1.jpg,left,437.31499999924563,true,NA,true
P8H8fX7g,38f60ialbjuvdvfa6f4is9xu20x0td,336kav9kyu50dbfcma0x8yef1s52yq,P8H8fX7g,2020-0188,2020-06-04,11:50:03,12:08:49,NA,incomplete,32,color,1,1,left,Red_Star_Dots_2.jpg,Red_Plus_Chess_3.jpg,Blue_Triangle_Dots_4.jpg,left,434.76500000001397,true,NA,true
P8H8fX7g,38f60ialbjuvdvfa6f4is9xu20x0td,336kav9kyu50dbfcma0x8yef1s52yq,P8H8fX7g,2020-0188,2020-06-04,11:50:03,12:08:49,NA,incomplete,33,color,1,1,right,Blue_Triangle_Chess_4.jpg,Green_Circle_Chess_3.jpg,Blue_Plus_Dots_1.jpg,right,488.45000000076834,true,NA,true
P8H8fX7g,38f60ialbjuvdvfa6f4is9xu20x0td,336kav9kyu50dbfcma0x8yef1s52yq,P8H8fX7g,2020-0188,2020-06-04,11:50:03,12:08:49,NA,incomplete,34,color,1,1,right,Blue_Circle_Stripes_3.jpg,Green_Plus_Stripes_2.jpg,Blue_Star_Chess_4.jpg,right,381.9700000003213,true,NA,true
P8H8fX7g,38f60ialbjuvdvfa6f4is9xu20x0td,336kav9kyu50dbfcma0x8yef1s52yq,P8H8fX7g,2020-0188,2020-06-04,11:50:03,12:08:49,NA,incomplete,35,color,1,0,left,Purple_Triangle_Grid_3.jpg,Purple_Plus_Stripes_4.jpg,Green_Circle_Grid_1.jpg,left,452.25000000023283,true,NA,true
P8H8fX7g,38f60ialbjuvdvfa6f4is9xu20x0td,336kav9kyu50dbfcma0x8yef1s52yq,P8H8fX7g,2020-0188,2020-06-04,11:50:03,12:08:49,NA,incomplete,36,color,1,0,right,Blue_Circle_Chess_3.jpg,Red_Star_Chess_4.jpg,Blue_Plus_Grid_2.jpg,right,540.8850000003586,true,NA,true
P8H8fX7g,38f60ialbjuvdvfa6f4is9xu20x0td,336kav9kyu50dbfcma0x8yef1s52yq,P8H8fX7g,2020-0188,2020-06-04,11:50:03,12:08:49,NA,incomplete,37,color,1,1,left,Blue_Star_Dots_4.jpg,Blue_Circle_Chess_2.jpg,Purple_Plus_Dots_1.jpg,right,1010.1150000010384,false,NA,true
P8H8fX7g,38f60ialbjuvdvfa6f4is9xu20x0td,336kav9kyu50dbfcma0x8yef1s52yq,P8H8fX7g,2020-0188,2020-06-04,11:50:03,12:08:49,NA,incomplete,38,color,1,1,right,Purple_Star_Stripes_1.jpg,Blue_Plus_Stripes_3.jpg,Purple_Triangle_Chess_2.jpg,right,527.5099999998929,true,NA,true
P8H8fX7g,38f60ialbjuvdvfa6f4is9xu20x0td,336kav9kyu50dbfcma0x8yef1s52yq,P8H8fX7g,2020-0188,2020-06-04,11:50:03,12:08:49,NA,incomplete,39,color,1,1,left,Green_Plus_Stripes_2.jpg,Green_Circle_Grid_1.jpg,Blue_Triangle_Stripes_3.jpg,left,490.43499999970663,true,NA,true
P8H8fX7g,38f60ialbjuvdvfa6f4is9xu20x0td,336kav9kyu50dbfcma0x8yef1s52yq,P8H8fX7g,2020-0188,2020-06-04,11:50:03,12:08:49,NA,incomplete,0,filling,0,1,right,Red_Star_Dots_1.jpg,Red_Plus_Chess_3.jpg,Green_Circle_Dots_2.jpg,right,1133.3249999987893,true,low,false
P8H8fX7g,38f60ialbjuvdvfa6f4is9xu20x0td,336kav9kyu50dbfcma0x8yef1s52yq,P8H8fX7g,2020-0188,2020-06-04,11:50:03,12:08:49,NA,incomplete,1,filling,0,1,left,Purple_Plus_Dots_1.jpg,Blue_Circle_Dots_4.jpg,Purple_Triangle_Grid_2.jpg,left,837.2049999998417,true,low,false
P8H8fX7g,38f60ialbjuvdvfa6f4is9xu20x0td,336kav9kyu50dbfcma0x8yef1s52yq,P8H8fX7g,2020-0188,2020-06-04,11:50:03,12:08:49,NA,incomplete,2,filling,0,1,right,Red_Triangle_Grid_4.jpg,Red_Star_Stripes_1.jpg,Purple_Plus_Grid_3.jpg,right,888.0349999999162,true,low,false
P8H8fX7g,38f60ialbjuvdvfa6f4is9xu20x0td,336kav9kyu50dbfcma0x8yef1s52yq,P8H8fX7g,2020-0188,2020-06-04,11:50:03,12:08:49,NA,incomplete,3,filling,0,1,left,Green_Star_Stripes_2.jpg,Purple_Triangle_Stripes_4.jpg,Green_Circle_Grid_1.jpg,left,786.1300000004703,true,low,false
P8H8fX7g,38f60ialbjuvdvfa6f4is9xu20x0td,336kav9kyu50dbfcma0x8yef1s52yq,P8H8fX7g,2020-0188,2020-06-04,11:50:03,12:08:49,NA,incomplete,4,filling,0,1,right,Purple_Triangle_Stripes_2.jpg,Purple_Plus_Chess_1.jpg,Red_Star_Stripes_3.jpg,right,797.4000000013039,true,low,false
P8H8fX7g,38f60ialbjuvdvfa6f4is9xu20x0td,336kav9kyu50dbfcma0x8yef1s52yq,P8H8fX7g,2020-0188,2020-06-04,11:50:03,12:08:49,NA,incomplete,5,filling,0,1,left,Red_Plus_Chess_2.jpg,Purple_Triangle_Chess_4.jpg,Red_Star_Stripes_1.jpg,left,729.7600000001257,true,low,false
P8H8fX7g,38f60ialbjuvdvfa6f4is9xu20x0td,336kav9kyu50dbfcma0x8yef1s52yq,P8H8fX7g,2020-0188,2020-06-04,11:50:03,12:08:49,NA,incomplete,6,filling,0,1,left,Red_Triangle_Stripes_2.jpg,Green_Plus_Stripes_1.jpg,Red_Star_Chess_3.jpg,left,764.6199999998789,true,low,false
P8H8fX7g,38f60ialbjuvdvfa6f4is9xu20x0td,336kav9kyu50dbfcma0x8yef1s52yq,P8H8fX7g,2020-0188,2020-06-04,11:50:03,12:08:49,NA,incomplete,7,filling,0,1,left,Blue_Triangle_Chess_1.jpg,Red_Circle_Chess_2.jpg,Blue_Star_Stripes_3.jpg,left,844.8050000006333,true,low,false
P8H8fX7g,38f60ialbjuvdvfa6f4is9xu20x0td,336kav9kyu50dbfcma0x8yef1s52yq,P8H8fX7g,2020-0188,2020-06-04,11:50:03,12:08:49,NA,incomplete,8,filling,0,0,left,Blue_Plus_Dots_2.jpg,Purple_Circle_Dots_1.jpg,Blue_Triangle_Chess_4.jpg,left,656.5049999989569,true,low,false
P8H8fX7g,38f60ialbjuvdvfa6f4is9xu20x0td,336kav9kyu50dbfcma0x8yef1s52yq,P8H8fX7g,2020-0188,2020-06-04,11:50:03,12:08:49,NA,incomplete,9,filling,0,1,left,Red_Star_Stripes_1.jpg,Purple_Triangle_Stripes_3.jpg,Red_Circle_Dots_4.jpg,left,711.9700000003213,true,low,false
P8H8fX7g,38f60ialbjuvdvfa6f4is9xu20x0td,336kav9kyu50dbfcma0x8yef1s52yq,P8H8fX7g,2020-0188,2020-06-04,11:50:03,12:08:49,NA,incomplete,10,filling,0,1,right,Blue_Circle_Chess_1.jpg,Blue_Star_Dots_3.jpg,Green_Plus_Chess_2.jpg,right,759.4050000007264,true,low,false
P8H8fX7g,38f60ialbjuvdvfa6f4is9xu20x0td,336kav9kyu50dbfcma0x8yef1s52yq,P8H8fX7g,2020-0188,2020-06-04,11:50:03,12:08:49,NA,incomplete,11,filling,0,1,left,Red_Circle_Grid_1.jpg,Blue_Triangle_Grid_4.jpg,Red_Plus_Chess_3.jpg,left,926.2849999995669,true,low,false
P8H8fX7g,38f60ialbjuvdvfa6f4is9xu20x0td,336kav9kyu50dbfcma0x8yef1s52yq,P8H8fX7g,2020-0188,2020-06-04,11:50:03,12:08:49,NA,incomplete,12,filling,0,1,left,Blue_Star_Stripes_2.jpg,Red_Circle_Stripes_1.jpg,Blue_Triangle_Dots_3.jpg,left,710.8800000005867,true,low,false
P8H8fX7g,38f60ialbjuvdvfa6f4is9xu20x0td,336kav9kyu50dbfcma0x8yef1s52yq,P8H8fX7g,2020-0188,2020-06-04,11:50:03,12:08:49,NA,incomplete,13,filling,0,1,left,Purple_Triangle_Chess_4.jpg,Red_Plus_Chess_1.jpg,Purple_Circle_Stripes_3.jpg,left,766.364999999525,true,low,false
P8H8fX7g,38f60ialbjuvdvfa6f4is9xu20x0td,336kav9kyu50dbfcma0x8yef1s52yq,P8H8fX7g,2020-0188,2020-06-04,11:50:03,12:08:49,NA,incomplete,14,filling,0,0,left,Red_Star_Stripes_2.jpg,Blue_Triangle_Stripes_3.jpg,Red_Plus_Dots_4.jpg,left,726.919999999227,true,low,false
P8H8fX7g,38f60ialbjuvdvfa6f4is9xu20x0td,336kav9kyu50dbfcma0x8yef1s52yq,P8H8fX7g,2020-0188,2020-06-04,11:50:03,12:08:49,NA,incomplete,15,filling,0,1,right,Green_Plus_Dots_3.jpg,Green_Star_Stripes_1.jpg,Blue_Triangle_Dots_4.jpg,right,744.585000000312,true,low,false
P8H8fX7g,38f60ialbjuvdvfa6f4is9xu20x0td,336kav9kyu50dbfcma0x8yef1s52yq,P8H8fX7g,2020-0188,2020-06-04,11:50:03,12:08:49,NA,incomplete,16,filling,0,1,left,Red_Triangle_Dots_2.jpg,Blue_Plus_Dots_4.jpg,Red_Circle_Chess_1.jpg,left,701.2950000008568,true,low,false
P8H8fX7g,38f60ialbjuvdvfa6f4is9xu20x0td,336kav9kyu50dbfcma0x8yef1s52yq,P8H8fX7g,2020-0188,2020-06-04,11:50:03,12:08:49,NA,incomplete,17,filling,0,1,left,Blue_Plus_Stripes_3.jpg,Red_Triangle_Stripes_2.jpg,Blue_Star_Dots_4.jpg,left,667.1299999997718,true,low,false
P8H8fX7g,38f60ialbjuvdvfa6f4is9xu20x0td,336kav9kyu50dbfcma0x8yef1s52yq,P8H8fX7g,2020-0188,2020-06-04,11:50:03,12:08:49,NA,incomplete,18,filling,0,1,left,Purple_Triangle_Stripes_1.jpg,Red_Star_Stripes_4.jpg,Purple_Circle_Grid_3.jpg,left,628.3800000001211,true,low,false
P8H8fX7g,38f60ialbjuvdvfa6f4is9xu20x0td,336kav9kyu50dbfcma0x8yef1s52yq,P8H8fX7g,2020-0188,2020-06-04,11:50:03,12:08:49,NA,incomplete,19,filling,0,1,right,Blue_Triangle_Grid_2.jpg,Blue_Star_Dots_4.jpg,Purple_Plus_Grid_3.jpg,right,855.6100000005681,true,low,false
P8H8fX7g,38f60ialbjuvdvfa6f4is9xu20x0td,336kav9kyu50dbfcma0x8yef1s52yq,P8H8fX7g,2020-0188,2020-06-04,11:50:03,12:08:49,NA,incomplete,20,filling,0,1,left,Red_Triangle_Chess_3.jpg,Blue_Plus_Chess_1.jpg,Red_Star_Dots_4.jpg,left,597.0500000002794,true,low,false
P8H8fX7g,38f60ialbjuvdvfa6f4is9xu20x0td,336kav9kyu50dbfcma0x8yef1s52yq,P8H8fX7g,2020-0188,2020-06-04,11:50:03,12:08:49,NA,incomplete,21,filling,0,1,left,Blue_Triangle_Grid_4.jpg,Red_Circle_Grid_1.jpg,Blue_Plus_Chess_2.jpg,left,866.8249999991385,true,low,false
P8H8fX7g,38f60ialbjuvdvfa6f4is9xu20x0td,336kav9kyu50dbfcma0x8yef1s52yq,P8H8fX7g,2020-0188,2020-06-04,11:50:03,12:08:49,NA,incomplete,22,filling,0,1,left,Blue_Triangle_Chess_3.jpg,Green_Star_Chess_2.jpg,Blue_Plus_Grid_1.jpg,left,601.8949999997858,true,low,false
P8H8fX7g,38f60ialbjuvdvfa6f4is9xu20x0td,336kav9kyu50dbfcma0x8yef1s52yq,P8H8fX7g,2020-0188,2020-06-04,11:50:03,12:08:49,NA,incomplete,23,filling,0,1,left,Blue_Star_Dots_3.jpg,Red_Triangle_Dots_2.jpg,Blue_Plus_Chess_4.jpg,left,624.5500000003958,true,low,false
P8H8fX7g,38f60ialbjuvdvfa6f4is9xu20x0td,336kav9kyu50dbfcma0x8yef1s52yq,P8H8fX7g,2020-0188,2020-06-04,11:50:03,12:08:49,NA,incomplete,24,filling,0,1,left,Red_Circle_Chess_2.jpg,Green_Triangle_Chess_1.jpg,Red_Star_Stripes_4.jpg,left,730.8799999991897,true,low,false
P8H8fX7g,38f60ialbjuvdvfa6f4is9xu20x0td,336kav9kyu50dbfcma0x8yef1s52yq,P8H8fX7g,2020-0188,2020-06-04,11:50:03,12:08:49,NA,incomplete,25,filling,0,1,left,Red_Circle_Dots_2.jpg,Purple_Triangle_Dots_3.jpg,Red_Plus_Grid_4.jpg,left,621.5000000011642,true,low,false
P8H8fX7g,38f60ialbjuvdvfa6f4is9xu20x0td,336kav9kyu50dbfcma0x8yef1s52yq,P8H8fX7g,2020-0188,2020-06-04,11:50:03,12:08:49,NA,incomplete,26,filling,0,0,left,Green_Plus_Dots_3.jpg,Red_Triangle_Dots_1.jpg,Green_Star_Chess_2.jpg,left,847.6049999989336,true,low,false
P8H8fX7g,38f60ialbjuvdvfa6f4is9xu20x0td,336kav9kyu50dbfcma0x8yef1s52yq,P8H8fX7g,2020-0188,2020-06-04,11:50:03,12:08:49,NA,incomplete,27,filling,0,1,right,Purple_Star_Dots_2.jpg,Purple_Triangle_Chess_4.jpg,Green_Circle_Dots_3.jpg,right,828.2149999996182,true,low,false
P8H8fX7g,38f60ialbjuvdvfa6f4is9xu20x0td,336kav9kyu50dbfcma0x8yef1s52yq,P8H8fX7g,2020-0188,2020-06-04,11:50:03,12:08:49,NA,incomplete,28,filling,0,1,right,Blue_Plus_Grid_4.jpg,Blue_Triangle_Chess_2.jpg,Green_Star_Grid_1.jpg,right,877.7150000005495,true,low,false
P8H8fX7g,38f60ialbjuvdvfa6f4is9xu20x0td,336kav9kyu50dbfcma0x8yef1s52yq,P8H8fX7g,2020-0188,2020-06-04,11:50:03,12:08:49,NA,incomplete,29,filling,0,0,right,Green_Plus_Chess_1.jpg,Green_Circle_Stripes_3.jpg,Purple_Star_Chess_2.jpg,right,719.1149999998743,true,low,false
P8H8fX7g,38f60ialbjuvdvfa6f4is9xu20x0td,336kav9kyu50dbfcma0x8yef1s52yq,P8H8fX7g,2020-0188,2020-06-04,11:50:03,12:08:49,NA,incomplete,30,color,1,1,right,Purple_Circle_Grid_3.jpg,Green_Star_Grid_1.jpg,Purple_Plus_Stripes_2.jpg,right,839.3149999992456,true,low,false
P8H8fX7g,38f60ialbjuvdvfa6f4is9xu20x0td,336kav9kyu50dbfcma0x8yef1s52yq,P8H8fX7g,2020-0188,2020-06-04,11:50:03,12:08:49,NA,incomplete,31,color,1,1,left,Red_Star_Dots_1.jpg,Red_Triangle_Stripes_2.jpg,Green_Plus_Dots_4.jpg,right,785.8300000006566,false,low,false
P8H8fX7g,38f60ialbjuvdvfa6f4is9xu20x0td,336kav9kyu50dbfcma0x8yef1s52yq,P8H8fX7g,2020-0188,2020-06-04,11:50:03,12:08:49,NA,incomplete,32,color,1,0,right,Green_Plus_Chess_1.jpg,Blue_Star_Chess_3.jpg,Green_Triangle_Grid_2.jpg,left,877.689999999362,false,low,false
P8H8fX7g,38f60ialbjuvdvfa6f4is9xu20x0td,336kav9kyu50dbfcma0x8yef1s52yq,P8H8fX7g,2020-0188,2020-06-04,11:50:03,12:08:49,NA,incomplete,33,color,1,1,left,Green_Circle_Stripes_1.jpg,Green_Plus_Chess_2.jpg,Blue_Triangle_Stripes_4.jpg,right,694.644999999553,false,low,false
P8H8fX7g,38f60ialbjuvdvfa6f4is9xu20x0td,336kav9kyu50dbfcma0x8yef1s52yq,P8H8fX7g,2020-0188,2020-06-04,11:50:03,12:08:49,NA,incomplete,34,color,1,1,right,Red_Circle_Grid_4.jpg,Blue_Triangle_Grid_2.jpg,Red_Plus_Dots_1.jpg,left,684.4700000000885,false,low,false
P8H8fX7g,38f60ialbjuvdvfa6f4is9xu20x0td,336kav9kyu50dbfcma0x8yef1s52yq,P8H8fX7g,2020-0188,2020-06-04,11:50:03,12:08:49,NA,incomplete,35,color,1,1,right,Green_Star_Dots_2.jpg,Purple_Circle_Dots_4.jpg,Green_Triangle_Chess_1.jpg,right,527.7600000009406,true,low,false
P8H8fX7g,38f60ialbjuvdvfa6f4is9xu20x0td,336kav9kyu50dbfcma0x8yef1s52yq,P8H8fX7g,2020-0188,2020-06-04,11:50:03,12:08:49,NA,incomplete,36,color,1,1,right,Green_Plus_Stripes_1.jpg,Red_Circle_Stripes_2.jpg,Green_Triangle_Dots_4.jpg,right,458.7050000008894,true,low,false
P8H8fX7g,38f60ialbjuvdvfa6f4is9xu20x0td,336kav9kyu50dbfcma0x8yef1s52yq,P8H8fX7g,2020-0188,2020-06-04,11:50:03,12:08:49,NA,incomplete,37,color,1,1,right,Blue_Circle_Stripes_3.jpg,Purple_Plus_Stripes_4.jpg,Blue_Triangle_Grid_2.jpg,right,844.5499999998137,true,low,false
P8H8fX7g,38f60ialbjuvdvfa6f4is9xu20x0td,336kav9kyu50dbfcma0x8yef1s52yq,P8H8fX7g,2020-0188,2020-06-04,11:50:03,12:08:49,NA,incomplete,38,color,1,1,right,Green_Star_Stripes_3.jpg,Purple_Circle_Stripes_4.jpg,Green_Triangle_Chess_2.jpg,right,448.2299999999814,true,low,false
P8H8fX7g,38f60ialbjuvdvfa6f4is9xu20x0td,336kav9kyu50dbfcma0x8yef1s52yq,P8H8fX7g,2020-0188,2020-06-04,11:50:03,12:08:49,NA,incomplete,39,color,1,1,right,Purple_Plus_Dots_3.jpg,Green_Triangle_Dots_1.jpg,Purple_Circle_Stripes_4.jpg,right,536.0749999999534,true,low,false
P8H8fX7g,38f60ialbjuvdvfa6f4is9xu20x0td,336kav9kyu50dbfcma0x8yef1s52yq,P8H8fX7g,2020-0188,2020-06-04,11:50:03,12:08:49,NA,incomplete,40,color,1,1,left,Blue_Plus_Chess_1.jpg,Blue_Star_Grid_3.jpg,Red_Triangle_Chess_2.jpg,left,469.0700000009965,true,low,false
P8H8fX7g,38f60ialbjuvdvfa6f4is9xu20x0td,336kav9kyu50dbfcma0x8yef1s52yq,P8H8fX7g,2020-0188,2020-06-04,11:50:03,12:08:49,NA,incomplete,41,color,1,0,right,Purple_Triangle_Stripes_2.jpg,Blue_Plus_Stripes_1.jpg,Purple_Circle_Dots_3.jpg,right,455.87000000162516,true,low,false
P8H8fX7g,38f60ialbjuvdvfa6f4is9xu20x0td,336kav9kyu50dbfcma0x8yef1s52yq,P8H8fX7g,2020-0188,2020-06-04,11:50:03,12:08:49,NA,incomplete,42,color,1,0,left,Green_Circle_Stripes_4.jpg,Green_Plus_Chess_1.jpg,Blue_Triangle_Stripes_3.jpg,left,456.4800000007963,true,low,false
P8H8fX7g,38f60ialbjuvdvfa6f4is9xu20x0td,336kav9kyu50dbfcma0x8yef1s52yq,P8H8fX7g,2020-0188,2020-06-04,11:50:03,12:08:49,NA,incomplete,43,color,1,1,left,Red_Circle_Dots_3.jpg,Red_Plus_Grid_2.jpg,Blue_Triangle_Dots_1.jpg,left,480.9449999992503,true,low,false
P8H8fX7g,38f60ialbjuvdvfa6f4is9xu20x0td,336kav9kyu50dbfcma0x8yef1s52yq,P8H8fX7g,2020-0188,2020-06-04,11:50:03,12:08:49,NA,incomplete,44,color,1,1,right,Red_Star_Grid_2.jpg,Green_Circle_Grid_3.jpg,Red_Plus_Dots_4.jpg,right,485.75999999954365,true,low,false
P8H8fX7g,38f60ialbjuvdvfa6f4is9xu20x0td,336kav9kyu50dbfcma0x8yef1s52yq,P8H8fX7g,2020-0188,2020-06-04,11:50:03,12:08:49,NA,incomplete,45,color,1,1,left,Green_Triangle_Chess_1.jpg,Green_Star_Grid_2.jpg,Purple_Circle_Chess_4.jpg,left,371.1199999997625,true,low,false
P8H8fX7g,38f60ialbjuvdvfa6f4is9xu20x0td,336kav9kyu50dbfcma0x8yef1s52yq,P8H8fX7g,2020-0188,2020-06-04,11:50:03,12:08:49,NA,incomplete,46,color,1,1,right,Green_Star_Grid_1.jpg,Purple_Triangle_Grid_3.jpg,Green_Plus_Dots_4.jpg,right,478.489999999525,true,low,false
P8H8fX7g,38f60ialbjuvdvfa6f4is9xu20x0td,336kav9kyu50dbfcma0x8yef1s52yq,P8H8fX7g,2020-0188,2020-06-04,11:50:03,12:08:49,NA,incomplete,47,color,1,1,right,Green_Plus_Dots_3.jpg,Red_Star_Dots_1.jpg,Green_Circle_Chess_4.jpg,right,434.5649999995949,true,low,false
P8H8fX7g,38f60ialbjuvdvfa6f4is9xu20x0td,336kav9kyu50dbfcma0x8yef1s52yq,P8H8fX7g,2020-0188,2020-06-04,11:50:03,12:08:49,NA,incomplete,48,color,1,1,left,Green_Triangle_Chess_4.jpg,Green_Star_Stripes_2.jpg,Blue_Circle_Chess_3.jpg,left,367.9950000005774,true,low,false
P8H8fX7g,38f60ialbjuvdvfa6f4is9xu20x0td,336kav9kyu50dbfcma0x8yef1s52yq,P8H8fX7g,2020-0188,2020-06-04,11:50:03,12:08:49,NA,incomplete,49,color,1,1,right,Purple_Circle_Chess_4.jpg,Blue_Plus_Chess_2.jpg,Purple_Triangle_Grid_3.jpg,right,491,true,low,false
P8H8fX7g,38f60ialbjuvdvfa6f4is9xu20x0td,336kav9kyu50dbfcma0x8yef1s52yq,P8H8fX7g,2020-0188,2020-06-04,11:50:03,12:08:49,NA,incomplete,50,color,1,1,left,Green_Plus_Grid_3.jpg,Green_Triangle_Stripes_4.jpg,Blue_Star_Grid_1.jpg,left,384.7949999999255,true,low,false
P8H8fX7g,38f60ialbjuvdvfa6f4is9xu20x0td,336kav9kyu50dbfcma0x8yef1s52yq,P8H8fX7g,2020-0188,2020-06-04,11:50:03,12:08:49,NA,incomplete,51,color,1,1,right,Green_Star_Grid_2.jpg,Purple_Triangle_Grid_1.jpg,Green_Circle_Stripes_3.jpg,right,399.19000000006054,true,low,false
P8H8fX7g,38f60ialbjuvdvfa6f4is9xu20x0td,336kav9kyu50dbfcma0x8yef1s52yq,P8H8fX7g,2020-0188,2020-06-04,11:50:03,12:08:49,NA,incomplete,52,color,1,1,left,Red_Plus_Dots_3.jpg,Red_Star_Stripes_4.jpg,Blue_Triangle_Dots_2.jpg,left,398.76499999989755,true,low,false
P8H8fX7g,38f60ialbjuvdvfa6f4is9xu20x0td,336kav9kyu50dbfcma0x8yef1s52yq,P8H8fX7g,2020-0188,2020-06-04,11:50:03,12:08:49,NA,incomplete,53,color,1,1,right,Purple_Circle_Stripes_3.jpg,Red_Triangle_Stripes_1.jpg,Purple_Plus_Chess_2.jpg,right,455.2050000001909,true,low,false
P8H8fX7g,38f60ialbjuvdvfa6f4is9xu20x0td,336kav9kyu50dbfcma0x8yef1s52yq,P8H8fX7g,2020-0188,2020-06-04,11:50:03,12:08:49,NA,incomplete,54,color,1,0,right,Blue_Star_Dots_2.jpg,Purple_Circle_Dots_3.jpg,Blue_Plus_Grid_4.jpg,right,463.8849999991944,true,low,false
P8H8fX7g,38f60ialbjuvdvfa6f4is9xu20x0td,336kav9kyu50dbfcma0x8yef1s52yq,P8H8fX7g,2020-0188,2020-06-04,11:50:03,12:08:49,NA,incomplete,55,color,1,0,right,Red_Plus_Grid_2.jpg,Green_Triangle_Grid_3.jpg,Red_Circle_Chess_1.jpg,right,473.38499999942724,true,low,false
P8H8fX7g,38f60ialbjuvdvfa6f4is9xu20x0td,336kav9kyu50dbfcma0x8yef1s52yq,P8H8fX7g,2020-0188,2020-06-04,11:50:03,12:08:49,NA,incomplete,56,color,1,1,right,Purple_Triangle_Grid_3.jpg,Green_Circle_Grid_4.jpg,Purple_Star_Stripes_1.jpg,right,501.3199999993667,true,low,false
P8H8fX7g,38f60ialbjuvdvfa6f4is9xu20x0td,336kav9kyu50dbfcma0x8yef1s52yq,P8H8fX7g,2020-0188,2020-06-04,11:50:03,12:08:49,NA,incomplete,57,color,1,1,right,Blue_Plus_Stripes_1.jpg,Red_Triangle_Stripes_2.jpg,Blue_Circle_Chess_4.jpg,right,501.5650000005262,true,low,false
P8H8fX7g,38f60ialbjuvdvfa6f4is9xu20x0td,336kav9kyu50dbfcma0x8yef1s52yq,P8H8fX7g,2020-0188,2020-06-04,11:50:03,12:08:49,NA,incomplete,58,color,1,0,left,Blue_Circle_Chess_3.jpg,Blue_Star_Stripes_2.jpg,Purple_Triangle_Chess_4.jpg,left,509.3899999993155,true,low,false
P8H8fX7g,38f60ialbjuvdvfa6f4is9xu20x0td,336kav9kyu50dbfcma0x8yef1s52yq,P8H8fX7g,2020-0188,2020-06-04,11:50:03,12:08:49,NA,incomplete,59,color,1,1,left,Red_Star_Grid_2.jpg,Red_Circle_Dots_3.jpg,Blue_Triangle_Grid_4.jpg,left,462.3000000009779,true,low,false
P8H8fX7g,38f60ialbjuvdvfa6f4is9xu20x0td,336kav9kyu50dbfcma0x8yef1s52yq,P8H8fX7g,2020-0188,2020-06-04,11:50:03,12:08:49,NA,incomplete,60,filling,0,1,right,Green_Triangle_Stripes_2.jpg,Green_Plus_Chess_4.jpg,Blue_Circle_Stripes_3.jpg,left,496.1199999997625,false,low,false
P8H8fX7g,38f60ialbjuvdvfa6f4is9xu20x0td,336kav9kyu50dbfcma0x8yef1s52yq,P8H8fX7g,2020-0188,2020-06-04,11:50:03,12:08:49,NA,incomplete,61,filling,0,1,left,Purple_Star_Dots_2.jpg,Red_Circle_Dots_4.jpg,Purple_Plus_Stripes_1.jpg,right,527.1150000008056,false,low,false
P8H8fX7g,38f60ialbjuvdvfa6f4is9xu20x0td,336kav9kyu50dbfcma0x8yef1s52yq,P8H8fX7g,2020-0188,2020-06-04,11:50:03,12:08:49,NA,incomplete,62,filling,0,1,left,Purple_Star_Grid_1.jpg,Red_Circle_Grid_4.jpg,Purple_Triangle_Dots_3.jpg,left,890.559999999823,true,low,false
P8H8fX7g,38f60ialbjuvdvfa6f4is9xu20x0td,336kav9kyu50dbfcma0x8yef1s52yq,P8H8fX7g,2020-0188,2020-06-04,11:50:03,12:08:49,NA,incomplete,63,filling,0,1,left,Green_Plus_Stripes_1.jpg,Red_Star_Stripes_2.jpg,Green_Triangle_Chess_4.jpg,left,749.2099999999627,true,low,false
P8H8fX7g,38f60ialbjuvdvfa6f4is9xu20x0td,336kav9kyu50dbfcma0x8yef1s52yq,P8H8fX7g,2020-0188,2020-06-04,11:50:03,12:08:49,NA,incomplete,64,filling,0,1,right,Red_Plus_Grid_3.jpg,Red_Triangle_Stripes_2.jpg,Blue_Star_Grid_4.jpg,right,914.3550000007963,true,low,false
P8H8fX7g,38f60ialbjuvdvfa6f4is9xu20x0td,336kav9kyu50dbfcma0x8yef1s52yq,P8H8fX7g,2020-0188,2020-06-04,11:50:03,12:08:49,NA,incomplete,65,filling,0,1,left,Green_Circle_Dots_2.jpg,Blue_Star_Dots_3.jpg,Green_Triangle_Grid_4.jpg,left,856.6700000009732,true,low,false
P8H8fX7g,38f60ialbjuvdvfa6f4is9xu20x0td,336kav9kyu50dbfcma0x8yef1s52yq,P8H8fX7g,2020-0188,2020-06-04,11:50:03,12:08:49,NA,incomplete,66,filling,0,1,right,Red_Plus_Chess_3.jpg,Red_Circle_Dots_4.jpg,Blue_Triangle_Chess_1.jpg,right,718.5000000008149,true,low,false
P8H8fX7g,38f60ialbjuvdvfa6f4is9xu20x0td,336kav9kyu50dbfcma0x8yef1s52yq,P8H8fX7g,2020-0188,2020-06-04,11:50:03,12:08:49,NA,incomplete,67,filling,0,1,left,Blue_Plus_Dots_2.jpg,Green_Star_Dots_3.jpg,Blue_Circle_Stripes_4.jpg,left,799.4749999998603,true,low,false
P8H8fX7g,38f60ialbjuvdvfa6f4is9xu20x0td,336kav9kyu50dbfcma0x8yef1s52yq,P8H8fX7g,2020-0188,2020-06-04,11:50:03,12:08:49,NA,incomplete,68,filling,0,1,right,Red_Triangle_Chess_2.jpg,Red_Star_Grid_4.jpg,Blue_Plus_Chess_3.jpg,right,764.7149999992689,true,low,false
P8H8fX7g,38f60ialbjuvdvfa6f4is9xu20x0td,336kav9kyu50dbfcma0x8yef1s52yq,P8H8fX7g,2020-0188,2020-06-04,11:50:03,12:08:49,NA,incomplete,69,filling,0,1,right,Red_Triangle_Chess_4.jpg,Red_Star_Dots_3.jpg,Green_Circle_Chess_2.jpg,right,805.0149999998976,true,low,false
P8H8fX7g,38f60ialbjuvdvfa6f4is9xu20x0td,336kav9kyu50dbfcma0x8yef1s52yq,P8H8fX7g,2020-0188,2020-06-04,11:50:03,12:08:49,NA,incomplete,70,filling,0,1,left,Purple_Plus_Stripes_2.jpg,Red_Triangle_Stripes_3.jpg,Purple_Circle_Chess_4.jpg,left,730.1950000001816,true,low,false
P8H8fX7g,38f60ialbjuvdvfa6f4is9xu20x0td,336kav9kyu50dbfcma0x8yef1s52yq,P8H8fX7g,2020-0188,2020-06-04,11:50:03,12:08:49,NA,incomplete,71,filling,0,1,left,Red_Circle_Stripes_2.jpg,Purple_Star_Stripes_1.jpg,Red_Plus_Chess_3.jpg,left,709.2499999998836,true,low,false
P8H8fX7g,38f60ialbjuvdvfa6f4is9xu20x0td,336kav9kyu50dbfcma0x8yef1s52yq,P8H8fX7g,2020-0188,2020-06-04,11:50:03,12:08:49,NA,incomplete,72,filling,0,1,right,Blue_Plus_Chess_4.jpg,Blue_Circle_Stripes_3.jpg,Green_Triangle_Chess_2.jpg,right,733.0299999994459,true,low,false
P8H8fX7g,38f60ialbjuvdvfa6f4is9xu20x0td,336kav9kyu50dbfcma0x8yef1s52yq,P8H8fX7g,2020-0188,2020-06-04,11:50:03,12:08:49,NA,incomplete,73,filling,0,1,left,Green_Plus_Dots_3.jpg,Blue_Star_Dots_4.jpg,Green_Triangle_Chess_2.jpg,left,775.599999998929,true,low,false
P8H8fX7g,38f60ialbjuvdvfa6f4is9xu20x0td,336kav9kyu50dbfcma0x8yef1s52yq,P8H8fX7g,2020-0188,2020-06-04,11:50:03,12:08:49,NA,incomplete,74,filling,0,1,left,Green_Triangle_Stripes_1.jpg,Red_Star_Stripes_3.jpg,Green_Plus_Chess_2.jpg,left,712.7549999986077,true,low,false
P8H8fX7g,38f60ialbjuvdvfa6f4is9xu20x0td,336kav9kyu50dbfcma0x8yef1s52yq,P8H8fX7g,2020-0188,2020-06-04,11:50:03,12:08:49,NA,incomplete,75,filling,0,1,left,Purple_Plus_Chess_3.jpg,Blue_Star_Chess_4.jpg,Purple_Triangle_Dots_2.jpg,left,744.3750000002328,true,low,false
P8H8fX7g,38f60ialbjuvdvfa6f4is9xu20x0td,336kav9kyu50dbfcma0x8yef1s52yq,P8H8fX7g,2020-0188,2020-06-04,11:50:03,12:08:49,NA,incomplete,76,filling,0,1,left,Purple_Plus_Stripes_2.jpg,Green_Triangle_Stripes_1.jpg,Purple_Star_Dots_3.jpg,left,701.3700000006938,true,low,false
P8H8fX7g,38f60ialbjuvdvfa6f4is9xu20x0td,336kav9kyu50dbfcma0x8yef1s52yq,P8H8fX7g,2020-0188,2020-06-04,11:50:03,12:08:49,NA,incomplete,77,filling,0,0,left,Purple_Circle_Grid_3.jpg,Blue_Star_Grid_2.jpg,Purple_Plus_Stripes_1.jpg,left,835.2549999998882,true,low,false
P8H8fX7g,38f60ialbjuvdvfa6f4is9xu20x0td,336kav9kyu50dbfcma0x8yef1s52yq,P8H8fX7g,2020-0188,2020-06-04,11:50:03,12:08:49,NA,incomplete,78,filling,0,1,left,Red_Plus_Chess_3.jpg,Blue_Circle_Chess_1.jpg,Red_Triangle_Grid_4.jpg,left,749.4949999999953,true,low,false
P8H8fX7g,38f60ialbjuvdvfa6f4is9xu20x0td,336kav9kyu50dbfcma0x8yef1s52yq,P8H8fX7g,2020-0188,2020-06-04,11:50:03,12:08:49,NA,incomplete,79,filling,0,0,right,Purple_Circle_Dots_2.jpg,Purple_Triangle_Grid_4.jpg,Green_Star_Dots_1.jpg,right,786.4799999988172,true,low,false
P8H8fX7g,38f60ialbjuvdvfa6f4is9xu20x0td,336kav9kyu50dbfcma0x8yef1s52yq,P8H8fX7g,2020-0188,2020-06-04,11:50:03,12:08:49,NA,incomplete,80,filling,0,1,left,Blue_Circle_Stripes_1.jpg,Red_Star_Stripes_4.jpg,Blue_Plus_Chess_2.jpg,left,757.7349999991711,true,low,false
P8H8fX7g,38f60ialbjuvdvfa6f4is9xu20x0td,336kav9kyu50dbfcma0x8yef1s52yq,P8H8fX7g,2020-0188,2020-06-04,11:50:03,12:08:49,NA,incomplete,81,filling,0,1,left,Red_Star_Chess_4.jpg,Blue_Plus_Chess_3.jpg,Red_Circle_Stripes_2.jpg,right,876.7850000003818,false,low,false
P8H8fX7g,38f60ialbjuvdvfa6f4is9xu20x0td,336kav9kyu50dbfcma0x8yef1s52yq,P8H8fX7g,2020-0188,2020-06-04,11:50:03,12:08:49,NA,incomplete,82,filling,0,1,right,Red_Plus_Stripes_4.jpg,Red_Star_Dots_3.jpg,Blue_Triangle_Stripes_1.jpg,right,829.9900000002235,true,low,false
P8H8fX7g,38f60ialbjuvdvfa6f4is9xu20x0td,336kav9kyu50dbfcma0x8yef1s52yq,P8H8fX7g,2020-0188,2020-06-04,11:50:03,12:08:49,NA,incomplete,83,filling,0,1,left,Purple_Circle_Dots_2.jpg,Red_Triangle_Dots_4.jpg,Purple_Star_Stripes_3.jpg,left,679.694999998901,true,low,false
P8H8fX7g,38f60ialbjuvdvfa6f4is9xu20x0td,336kav9kyu50dbfcma0x8yef1s52yq,P8H8fX7g,2020-0188,2020-06-04,11:50:03,12:08:49,NA,incomplete,84,filling,0,0,left,Purple_Star_Dots_2.jpg,Green_Plus_Dots_4.jpg,Purple_Triangle_Stripes_3.jpg,left,753.9049999995623,true,low,false
P8H8fX7g,38f60ialbjuvdvfa6f4is9xu20x0td,336kav9kyu50dbfcma0x8yef1s52yq,P8H8fX7g,2020-0188,2020-06-04,11:50:03,12:08:49,NA,incomplete,85,filling,0,1,left,Red_Triangle_Grid_4.jpg,Green_Plus_Grid_2.jpg,Red_Star_Stripes_1.jpg,left,864.0450000002747,true,low,false
P8H8fX7g,38f60ialbjuvdvfa6f4is9xu20x0td,336kav9kyu50dbfcma0x8yef1s52yq,P8H8fX7g,2020-0188,2020-06-04,11:50:03,12:08:49,NA,incomplete,86,filling,0,0,right,Red_Triangle_Chess_1.jpg,Red_Plus_Stripes_2.jpg,Blue_Star_Chess_4.jpg,left,542.9449999992503,false,low,false
P8H8fX7g,38f60ialbjuvdvfa6f4is9xu20x0td,336kav9kyu50dbfcma0x8yef1s52yq,P8H8fX7g,2020-0188,2020-06-04,11:50:03,12:08:49,NA,incomplete,87,filling,0,1,right,Red_Triangle_Grid_3.jpg,Red_Plus_Chess_2.jpg,Blue_Circle_Grid_1.jpg,left,477.3800000003539,false,low,false
P8H8fX7g,38f60ialbjuvdvfa6f4is9xu20x0td,336kav9kyu50dbfcma0x8yef1s52yq,P8H8fX7g,2020-0188,2020-06-04,11:50:03,12:08:49,NA,incomplete,88,filling,0,1,left,Blue_Triangle_Chess_4.jpg,Red_Circle_Chess_3.jpg,Blue_Star_Stripes_2.jpg,right,465.1000000012573,false,low,false
P8H8fX7g,38f60ialbjuvdvfa6f4is9xu20x0td,336kav9kyu50dbfcma0x8yef1s52yq,P8H8fX7g,2020-0188,2020-06-04,11:50:03,12:08:49,NA,incomplete,89,filling,0,1,left,Purple_Triangle_Stripes_4.jpg,Green_Star_Stripes_1.jpg,Purple_Circle_Grid_3.jpg,right,498.78000000177417,false,low,false
P8H8fX7g,38f60ialbjuvdvfa6f4is9xu20x0td,336kav9kyu50dbfcma0x8yef1s52yq,P8H8fX7g,2020-0188,2020-06-04,11:50:03,12:08:49,NA,incomplete,90,color,1,1,right,Green_Triangle_Stripes_1.jpg,Red_Star_Stripes_2.jpg,Green_Plus_Grid_3.jpg,left,673.5250000001397,false,low,false
P8H8fX7g,38f60ialbjuvdvfa6f4is9xu20x0td,336kav9kyu50dbfcma0x8yef1s52yq,P8H8fX7g,2020-0188,2020-06-04,11:50:03,12:08:49,NA,incomplete,91,color,1,0,left,Purple_Triangle_Dots_3.jpg,Purple_Star_Stripes_4.jpg,Red_Circle_Dots_1.jpg,right,828.1950000000652,false,low,false
P8H8fX7g,38f60ialbjuvdvfa6f4is9xu20x0td,336kav9kyu50dbfcma0x8yef1s52yq,P8H8fX7g,2020-0188,2020-06-04,11:50:03,12:08:49,NA,incomplete,92,color,1,1,left,Red_Star_Chess_2.jpg,Red_Triangle_Grid_1.jpg,Blue_Circle_Chess_3.jpg,right,677.9799999985844,false,low,false
P8H8fX7g,38f60ialbjuvdvfa6f4is9xu20x0td,336kav9kyu50dbfcma0x8yef1s52yq,P8H8fX7g,2020-0188,2020-06-04,11:50:03,12:08:49,NA,incomplete,93,color,1,1,left,Blue_Triangle_Dots_1.jpg,Blue_Plus_Chess_4.jpg,Green_Star_Dots_3.jpg,right,688.2199999999721,false,low,false
P8H8fX7g,38f60ialbjuvdvfa6f4is9xu20x0td,336kav9kyu50dbfcma0x8yef1s52yq,P8H8fX7g,2020-0188,2020-06-04,11:50:03,12:08:49,NA,incomplete,94,color,1,0,right,Purple_Star_Dots_2.jpg,Red_Circle_Dots_1.jpg,Purple_Triangle_Chess_3.jpg,right,436.71999999973923,true,low,false
P8H8fX7g,38f60ialbjuvdvfa6f4is9xu20x0td,336kav9kyu50dbfcma0x8yef1s52yq,P8H8fX7g,2020-0188,2020-06-04,11:50:03,12:08:49,NA,incomplete,95,color,1,0,left,Blue_Plus_Chess_3.jpg,Blue_Star_Stripes_2.jpg,Purple_Triangle_Chess_1.jpg,right,898.3800000005867,false,low,false
P8H8fX7g,38f60ialbjuvdvfa6f4is9xu20x0td,336kav9kyu50dbfcma0x8yef1s52yq,P8H8fX7g,2020-0188,2020-06-04,11:50:03,12:08:49,NA,incomplete,96,color,1,1,right,Green_Triangle_Dots_2.jpg,Red_Star_Dots_3.jpg,Green_Circle_Grid_1.jpg,left,742.430000000284,false,low,false
P8H8fX7g,38f60ialbjuvdvfa6f4is9xu20x0td,336kav9kyu50dbfcma0x8yef1s52yq,P8H8fX7g,2020-0188,2020-06-04,11:50:03,12:08:49,NA,incomplete,97,color,1,1,left,Blue_Star_Chess_4.jpg,Blue_Plus_Stripes_2.jpg,Red_Triangle_Chess_3.jpg,right,994.3700000003446,false,low,false
P8H8fX7g,38f60ialbjuvdvfa6f4is9xu20x0td,336kav9kyu50dbfcma0x8yef1s52yq,P8H8fX7g,2020-0188,2020-06-04,11:50:03,12:08:49,NA,incomplete,98,color,1,0,right,Purple_Triangle_Dots_4.jpg,Green_Plus_Dots_1.jpg,Purple_Circle_Chess_2.jpg,left,813.2499999991851,false,low,false
P8H8fX7g,38f60ialbjuvdvfa6f4is9xu20x0td,336kav9kyu50dbfcma0x8yef1s52yq,P8H8fX7g,2020-0188,2020-06-04,11:50:03,12:08:49,NA,incomplete,99,color,1,1,right,Purple_Star_Grid_2.jpg,Green_Triangle_Grid_1.jpg,Purple_Plus_Dots_4.jpg,left,804.7449999994133,false,low,false
P8H8fX7g,38f60ialbjuvdvfa6f4is9xu20x0td,336kav9kyu50dbfcma0x8yef1s52yq,P8H8fX7g,2020-0188,2020-06-04,11:50:03,12:08:49,NA,incomplete,100,color,1,1,right,Purple_Circle_Stripes_3.jpg,Red_Plus_Stripes_1.jpg,Purple_Triangle_Grid_4.jpg,left,930.1950000008801,false,low,false
P8H8fX7g,38f60ialbjuvdvfa6f4is9xu20x0td,336kav9kyu50dbfcma0x8yef1s52yq,P8H8fX7g,2020-0188,2020-06-04,11:50:03,12:08:49,NA,incomplete,101,color,1,0,left,Red_Star_Grid_3.jpg,Red_Triangle_Dots_4.jpg,Blue_Circle_Grid_1.jpg,left,514.3849999986123,true,low,false
P8H8fX7g,38f60ialbjuvdvfa6f4is9xu20x0td,336kav9kyu50dbfcma0x8yef1s52yq,P8H8fX7g,2020-0188,2020-06-04,11:50:03,12:08:49,NA,incomplete,102,color,1,1,left,Red_Circle_Dots_1.jpg,Red_Triangle_Stripes_3.jpg,Blue_Plus_Dots_4.jpg,left,476.8249999997206,true,low,false
P8H8fX7g,38f60ialbjuvdvfa6f4is9xu20x0td,336kav9kyu50dbfcma0x8yef1s52yq,P8H8fX7g,2020-0188,2020-06-04,11:50:03,12:08:49,NA,incomplete,103,color,1,1,right,Red_Plus_Stripes_3.jpg,Green_Triangle_Stripes_1.jpg,Red_Circle_Grid_4.jpg,right,624.4749999986961,true,low,false
P8H8fX7g,38f60ialbjuvdvfa6f4is9xu20x0td,336kav9kyu50dbfcma0x8yef1s52yq,P8H8fX7g,2020-0188,2020-06-04,11:50:03,12:08:49,NA,incomplete,104,color,1,1,right,Green_Plus_Stripes_4.jpg,Red_Triangle_Stripes_3.jpg,Green_Circle_Chess_1.jpg,right,498.42999999958556,true,low,false
P8H8fX7g,38f60ialbjuvdvfa6f4is9xu20x0td,336kav9kyu50dbfcma0x8yef1s52yq,P8H8fX7g,2020-0188,2020-06-04,11:50:03,12:08:49,NA,incomplete,105,color,1,0,left,Red_Triangle_Grid_1.jpg,Red_Star_Dots_2.jpg,Blue_Circle_Grid_4.jpg,left,441.21499999891967,true,low,false
P8H8fX7g,38f60ialbjuvdvfa6f4is9xu20x0td,336kav9kyu50dbfcma0x8yef1s52yq,P8H8fX7g,2020-0188,2020-06-04,11:50:03,12:08:49,NA,incomplete,106,color,1,1,right,Red_Star_Grid_3.jpg,Purple_Triangle_Grid_2.jpg,Red_Plus_Chess_1.jpg,right,543.9349999997066,true,low,false
P8H8fX7g,38f60ialbjuvdvfa6f4is9xu20x0td,336kav9kyu50dbfcma0x8yef1s52yq,P8H8fX7g,2020-0188,2020-06-04,11:50:03,12:08:49,NA,incomplete,107,color,1,0,right,Green_Plus_Dots_2.jpg,Red_Circle_Dots_3.jpg,Green_Triangle_Chess_4.jpg,right,470.5650000014575,true,low,false
P8H8fX7g,38f60ialbjuvdvfa6f4is9xu20x0td,336kav9kyu50dbfcma0x8yef1s52yq,P8H8fX7g,2020-0188,2020-06-04,11:50:03,12:08:49,NA,incomplete,108,color,1,0,left,Blue_Triangle_Stripes_1.jpg,Blue_Star_Chess_4.jpg,Red_Circle_Stripes_2.jpg,left,464.94499999971595,true,low,false
P8H8fX7g,38f60ialbjuvdvfa6f4is9xu20x0td,336kav9kyu50dbfcma0x8yef1s52yq,P8H8fX7g,2020-0188,2020-06-04,11:50:03,12:08:49,NA,incomplete,109,color,1,1,right,Blue_Plus_Stripes_2.jpg,Purple_Triangle_Stripes_1.jpg,Blue_Star_Dots_3.jpg,right,442.62499999965075,true,low,false
P8H8fX7g,38f60ialbjuvdvfa6f4is9xu20x0td,336kav9kyu50dbfcma0x8yef1s52yq,P8H8fX7g,2020-0188,2020-06-04,11:50:03,12:08:49,NA,incomplete,110,color,1,1,right,Green_Circle_Grid_4.jpg,Blue_Triangle_Grid_2.jpg,Green_Plus_Dots_3.jpg,right,488.7550000003539,true,low,false
P8H8fX7g,38f60ialbjuvdvfa6f4is9xu20x0td,336kav9kyu50dbfcma0x8yef1s52yq,P8H8fX7g,2020-0188,2020-06-04,11:50:03,12:08:49,NA,incomplete,111,color,1,1,right,Purple_Circle_Stripes_4.jpg,Red_Star_Stripes_3.jpg,Purple_Triangle_Dots_2.jpg,right,526.9250000000466,true,low,false
P8H8fX7g,38f60ialbjuvdvfa6f4is9xu20x0td,336kav9kyu50dbfcma0x8yef1s52yq,P8H8fX7g,2020-0188,2020-06-04,11:50:03,12:08:49,NA,incomplete,112,color,1,1,left,Purple_Plus_Chess_3.jpg,Purple_Triangle_Stripes_2.jpg,Green_Circle_Chess_4.jpg,left,450.3149999999441,true,low,false
P8H8fX7g,38f60ialbjuvdvfa6f4is9xu20x0td,336kav9kyu50dbfcma0x8yef1s52yq,P8H8fX7g,2020-0188,2020-06-04,11:50:03,12:08:49,NA,incomplete,113,color,1,1,right,Red_Triangle_Chess_3.jpg,Purple_Star_Chess_2.jpg,Red_Circle_Stripes_1.jpg,right,377.85500000056345,true,low,false
P8H8fX7g,38f60ialbjuvdvfa6f4is9xu20x0td,336kav9kyu50dbfcma0x8yef1s52yq,P8H8fX7g,2020-0188,2020-06-04,11:50:03,12:08:49,NA,incomplete,114,color,1,1,right,Red_Plus_Stripes_2.jpg,Purple_Circle_Stripes_4.jpg,Red_Triangle_Dots_1.jpg,right,422.8500000007916,true,low,false
P8H8fX7g,38f60ialbjuvdvfa6f4is9xu20x0td,336kav9kyu50dbfcma0x8yef1s52yq,P8H8fX7g,2020-0188,2020-06-04,11:50:03,12:08:49,NA,incomplete,115,color,1,1,right,Green_Plus_Dots_4.jpg,Blue_Circle_Dots_3.jpg,Green_Star_Stripes_2.jpg,right,434.0449999999255,true,low,false
P8H8fX7g,38f60ialbjuvdvfa6f4is9xu20x0td,336kav9kyu50dbfcma0x8yef1s52yq,P8H8fX7g,2020-0188,2020-06-04,11:50:03,12:08:49,NA,incomplete,116,color,1,1,left,Purple_Circle_Dots_3.jpg,Purple_Plus_Grid_1.jpg,Red_Triangle_Dots_4.jpg,left,463.669999999227,true,low,false
P8H8fX7g,38f60ialbjuvdvfa6f4is9xu20x0td,336kav9kyu50dbfcma0x8yef1s52yq,P8H8fX7g,2020-0188,2020-06-04,11:50:03,12:08:49,NA,incomplete,117,color,1,0,left,Blue_Star_Dots_1.jpg,Blue_Triangle_Grid_2.jpg,Red_Circle_Dots_4.jpg,left,425.34499999973923,true,low,false
P8H8fX7g,38f60ialbjuvdvfa6f4is9xu20x0td,336kav9kyu50dbfcma0x8yef1s52yq,P8H8fX7g,2020-0188,2020-06-04,11:50:03,12:08:49,NA,incomplete,118,color,1,0,right,Red_Plus_Grid_1.jpg,Green_Triangle_Grid_4.jpg,Red_Star_Dots_2.jpg,right,405.8499999992782,true,low,false
P8H8fX7g,38f60ialbjuvdvfa6f4is9xu20x0td,336kav9kyu50dbfcma0x8yef1s52yq,P8H8fX7g,2020-0188,2020-06-04,11:50:03,12:08:49,NA,incomplete,119,color,1,1,right,Blue_Triangle_Chess_4.jpg,Red_Circle_Chess_2.jpg,Blue_Star_Grid_1.jpg,left,791.1999999996042,false,low,false
P8H8fX7g,38f60ialbjuvdvfa6f4is9xu20x0td,336kav9kyu50dbfcma0x8yef1s52yq,P8H8fX7g,2020-0188,2020-06-04,11:50:03,12:08:49,NA,incomplete,120,gender,2,1,left,A_F_11.jpg,C_F_05.jpg,A_M_14.jpg,NA,NA,NA,low,false
P8H8fX7g,38f60ialbjuvdvfa6f4is9xu20x0td,336kav9kyu50dbfcma0x8yef1s52yq,P8H8fX7g,2020-0188,2020-06-04,11:50:03,12:08:49,NA,incomplete,121,gender,2,1,left,C_M_14.jpg,A_M_07.jpg,C_F_02.jpg,right,789.8999999997905,false,low,false
P8H8fX7g,38f60ialbjuvdvfa6f4is9xu20x0td,336kav9kyu50dbfcma0x8yef1s52yq,P8H8fX7g,2020-0188,2020-06-04,11:50:03,12:08:49,NA,incomplete,122,gender,2,0,right,A_F_12.jpg,A_M_13.jpg,C_F_09.jpg,right,976.9749999996275,true,low,false
P8H8fX7g,38f60ialbjuvdvfa6f4is9xu20x0td,336kav9kyu50dbfcma0x8yef1s52yq,P8H8fX7g,2020-0188,2020-06-04,11:50:03,12:08:49,NA,incomplete,123,gender,2,1,right,A_F_12.jpg,A_M_02.jpg,C_F_08.jpg,right,736.8749999987194,true,low,false
P8H8fX7g,38f60ialbjuvdvfa6f4is9xu20x0td,336kav9kyu50dbfcma0x8yef1s52yq,P8H8fX7g,2020-0188,2020-06-04,11:50:03,12:08:49,NA,incomplete,124,gender,2,1,left,C_F_08.jpg,A_F_03.jpg,C_M_15.jpg,left,972.8250000007683,true,low,false
P8H8fX7g,38f60ialbjuvdvfa6f4is9xu20x0td,336kav9kyu50dbfcma0x8yef1s52yq,P8H8fX7g,2020-0188,2020-06-04,11:50:03,12:08:49,NA,incomplete,125,gender,2,0,left,A_F_12.jpg,C_F_15.jpg,A_M_09.jpg,left,692.6650000003865,true,low,false
P8H8fX7g,38f60ialbjuvdvfa6f4is9xu20x0td,336kav9kyu50dbfcma0x8yef1s52yq,P8H8fX7g,2020-0188,2020-06-04,11:50:03,12:08:49,NA,incomplete,126,gender,2,1,left,A_M_14.jpg,C_M_12.jpg,A_F_10.jpg,left,664.7699999994365,true,low,false
P8H8fX7g,38f60ialbjuvdvfa6f4is9xu20x0td,336kav9kyu50dbfcma0x8yef1s52yq,P8H8fX7g,2020-0188,2020-06-04,11:50:03,12:08:49,NA,incomplete,127,gender,2,1,right,A_F_15.jpg,A_M_01.jpg,C_F_12.jpg,right,681.5150000002468,true,low,false
P8H8fX7g,38f60ialbjuvdvfa6f4is9xu20x0td,336kav9kyu50dbfcma0x8yef1s52yq,P8H8fX7g,2020-0188,2020-06-04,11:50:03,12:08:49,NA,incomplete,128,gender,2,1,right,A_M_05.jpg,A_F_09.jpg,C_M_06.jpg,right,956.6749999993481,true,low,false
P8H8fX7g,38f60ialbjuvdvfa6f4is9xu20x0td,336kav9kyu50dbfcma0x8yef1s52yq,P8H8fX7g,2020-0188,2020-06-04,11:50:03,12:08:49,NA,incomplete,129,gender,2,0,right,C_F_09.jpg,C_M_01.jpg,A_F_13.jpg,right,601.5299999999115,true,low,false
P8H8fX7g,38f60ialbjuvdvfa6f4is9xu20x0td,336kav9kyu50dbfcma0x8yef1s52yq,P8H8fX7g,2020-0188,2020-06-04,11:50:03,12:08:49,NA,incomplete,130,gender,2,1,right,A_M_07.jpg,A_F_04.jpg,C_M_13.jpg,right,648.5700000011129,true,low,false
P8H8fX7g,38f60ialbjuvdvfa6f4is9xu20x0td,336kav9kyu50dbfcma0x8yef1s52yq,P8H8fX7g,2020-0188,2020-06-04,11:50:03,12:08:49,NA,incomplete,131,gender,2,1,left,C_M_11.jpg,A_M_04.jpg,C_F_02.jpg,left,622.5200000008335,true,low,false
P8H8fX7g,38f60ialbjuvdvfa6f4is9xu20x0td,336kav9kyu50dbfcma0x8yef1s52yq,P8H8fX7g,2020-0188,2020-06-04,11:50:03,12:08:49,NA,incomplete,132,gender,2,1,right,A_M_10.jpg,A_F_15.jpg,C_M_12.jpg,right,600.4050000009593,true,low,false
P8H8fX7g,38f60ialbjuvdvfa6f4is9xu20x0td,336kav9kyu50dbfcma0x8yef1s52yq,P8H8fX7g,2020-0188,2020-06-04,11:50:03,12:08:49,NA,incomplete,133,gender,2,1,right,A_M_05.jpg,A_F_16.jpg,C_M_11.jpg,right,551.239999998943,true,low,false
P8H8fX7g,38f60ialbjuvdvfa6f4is9xu20x0td,336kav9kyu50dbfcma0x8yef1s52yq,P8H8fX7g,2020-0188,2020-06-04,11:50:03,12:08:49,NA,incomplete,134,gender,2,1,left,C_M_08.jpg,A_M_05.jpg,C_F_16.jpg,left,470.7400000006892,true,low,false
P8H8fX7g,38f60ialbjuvdvfa6f4is9xu20x0td,336kav9kyu50dbfcma0x8yef1s52yq,P8H8fX7g,2020-0188,2020-06-04,11:50:03,12:08:49,NA,incomplete,135,gender,2,0,left,C_F_16.jpg,A_F_11.jpg,C_M_01.jpg,left,673.7849999991013,true,low,false
P8H8fX7g,38f60ialbjuvdvfa6f4is9xu20x0td,336kav9kyu50dbfcma0x8yef1s52yq,P8H8fX7g,2020-0188,2020-06-04,11:50:03,12:08:49,NA,incomplete,136,gender,2,1,left,A_M_12.jpg,C_M_11.jpg,A_F_06.jpg,left,555.7950000002747,true,low,false
P8H8fX7g,38f60ialbjuvdvfa6f4is9xu20x0td,336kav9kyu50dbfcma0x8yef1s52yq,P8H8fX7g,2020-0188,2020-06-04,11:50:03,12:08:49,NA,incomplete,137,gender,2,1,left,C_M_14.jpg,A_M_16.jpg,C_F_01.jpg,right,948.2699999989709,false,low,false
P8H8fX7g,38f60ialbjuvdvfa6f4is9xu20x0td,336kav9kyu50dbfcma0x8yef1s52yq,P8H8fX7g,2020-0188,2020-06-04,11:50:03,12:08:49,NA,incomplete,138,gender,2,0,right,A_M_16.jpg,A_F_05.jpg,C_M_13.jpg,right,823.9250000006286,true,low,false
P8H8fX7g,38f60ialbjuvdvfa6f4is9xu20x0td,336kav9kyu50dbfcma0x8yef1s52yq,P8H8fX7g,2020-0188,2020-06-04,11:50:03,12:08:49,NA,incomplete,139,gender,2,1,left,A_F_14.jpg,C_F_12.jpg,A_M_10.jpg,left,632.5250000009546,true,low,false
P8H8fX7g,38f60ialbjuvdvfa6f4is9xu20x0td,336kav9kyu50dbfcma0x8yef1s52yq,P8H8fX7g,2020-0188,2020-06-04,11:50:03,12:08:49,NA,incomplete,140,race,3,1,left,C_M_09.jpg,C_F_14.jpg,A_M_06.jpg,right,564.6849999993574,false,low,false
P8H8fX7g,38f60ialbjuvdvfa6f4is9xu20x0td,336kav9kyu50dbfcma0x8yef1s52yq,P8H8fX7g,2020-0188,2020-06-04,11:50:03,12:08:49,NA,incomplete,141,race,3,1,left,A_M_01.jpg,A_F_02.jpg,C_M_09.jpg,right,533.5400000003865,false,low,false
P8H8fX7g,38f60ialbjuvdvfa6f4is9xu20x0td,336kav9kyu50dbfcma0x8yef1s52yq,P8H8fX7g,2020-0188,2020-06-04,11:50:03,12:08:49,NA,incomplete,142,race,3,1,right,C_M_13.jpg,A_M_12.jpg,C_F_14.jpg,left,610.3849999998929,false,low,false
P8H8fX7g,38f60ialbjuvdvfa6f4is9xu20x0td,336kav9kyu50dbfcma0x8yef1s52yq,P8H8fX7g,2020-0188,2020-06-04,11:50:03,12:08:49,NA,incomplete,143,race,3,1,right,C_M_04.jpg,A_M_15.jpg,C_F_12.jpg,left,794.0999999991618,false,low,false
P8H8fX7g,38f60ialbjuvdvfa6f4is9xu20x0td,336kav9kyu50dbfcma0x8yef1s52yq,P8H8fX7g,2020-0188,2020-06-04,11:50:03,12:08:49,NA,incomplete,144,race,3,1,left,C_F_14.jpg,C_M_05.jpg,A_F_11.jpg,left,798.6799999999348,true,low,false
P8H8fX7g,38f60ialbjuvdvfa6f4is9xu20x0td,336kav9kyu50dbfcma0x8yef1s52yq,P8H8fX7g,2020-0188,2020-06-04,11:50:03,12:08:49,NA,incomplete,145,race,3,1,right,A_M_16.jpg,C_M_14.jpg,A_F_09.jpg,left,1411.0649999984307,false,low,false
P8H8fX7g,38f60ialbjuvdvfa6f4is9xu20x0td,336kav9kyu50dbfcma0x8yef1s52yq,P8H8fX7g,2020-0188,2020-06-04,11:50:03,12:08:49,NA,incomplete,146,race,3,1,right,A_F_16.jpg,C_F_15.jpg,A_M_10.jpg,right,1068.8900000004796,true,low,false
P8H8fX7g,38f60ialbjuvdvfa6f4is9xu20x0td,336kav9kyu50dbfcma0x8yef1s52yq,P8H8fX7g,2020-0188,2020-06-04,11:50:03,12:08:49,NA,incomplete,147,race,3,1,right,C_M_01.jpg,A_M_14.jpg,C_F_08.jpg,right,914.6199999995297,true,low,false
P8H8fX7g,38f60ialbjuvdvfa6f4is9xu20x0td,336kav9kyu50dbfcma0x8yef1s52yq,P8H8fX7g,2020-0188,2020-06-04,11:50:03,12:08:49,NA,incomplete,148,race,3,1,right,A_M_11.jpg,C_M_12.jpg,A_F_15.jpg,right,1089.039999998873,true,low,false
P8H8fX7g,38f60ialbjuvdvfa6f4is9xu20x0td,336kav9kyu50dbfcma0x8yef1s52yq,P8H8fX7g,2020-0188,2020-06-04,11:50:03,12:08:49,NA,incomplete,149,race,3,1,left,A_F_04.jpg,A_M_15.jpg,C_F_11.jpg,left,881.5949999989243,true,low,false
P8H8fX7g,38f60ialbjuvdvfa6f4is9xu20x0td,336kav9kyu50dbfcma0x8yef1s52yq,P8H8fX7g,2020-0188,2020-06-04,11:50:03,12:08:49,NA,incomplete,150,race,3,1,right,C_F_10.jpg,A_F_13.jpg,C_M_04.jpg,right,594.6650000005029,true,low,false
P8H8fX7g,38f60ialbjuvdvfa6f4is9xu20x0td,336kav9kyu50dbfcma0x8yef1s52yq,P8H8fX7g,2020-0188,2020-06-04,11:50:03,12:08:49,NA,incomplete,151,race,3,1,left,A_F_12.jpg,A_M_08.jpg,C_F_10.jpg,left,632.2650000002468,true,low,false
P8H8fX7g,38f60ialbjuvdvfa6f4is9xu20x0td,336kav9kyu50dbfcma0x8yef1s52yq,P8H8fX7g,2020-0188,2020-06-04,11:50:03,12:08:49,NA,incomplete,152,race,3,1,right,A_F_11.jpg,C_F_01.jpg,A_M_14.jpg,right,828.0849999991478,true,low,false
P8H8fX7g,38f60ialbjuvdvfa6f4is9xu20x0td,336kav9kyu50dbfcma0x8yef1s52yq,P8H8fX7g,2020-0188,2020-06-04,11:50:03,12:08:49,NA,incomplete,153,race,3,1,left,C_F_10.jpg,C_M_13.jpg,A_F_05.jpg,left,685.5999999988126,true,low,false
P8H8fX7g,38f60ialbjuvdvfa6f4is9xu20x0td,336kav9kyu50dbfcma0x8yef1s52yq,P8H8fX7g,2020-0188,2020-06-04,11:50:03,12:08:49,NA,incomplete,154,race,3,0,right,A_F_16.jpg,C_F_14.jpg,A_M_01.jpg,right,857.3000000014435,true,low,false
P8H8fX7g,38f60ialbjuvdvfa6f4is9xu20x0td,336kav9kyu50dbfcma0x8yef1s52yq,P8H8fX7g,2020-0188,2020-06-04,11:50:03,12:08:49,NA,incomplete,155,race,3,1,left,A_F_09.jpg,A_M_14.jpg,C_F_05.jpg,left,783.595000000787,true,low,false
P8H8fX7g,38f60ialbjuvdvfa6f4is9xu20x0td,336kav9kyu50dbfcma0x8yef1s52yq,P8H8fX7g,2020-0188,2020-06-04,11:50:03,12:08:49,NA,incomplete,156,race,3,1,left,C_M_07.jpg,C_F_05.jpg,A_M_13.jpg,left,761.4650000013644,true,low,false
P8H8fX7g,38f60ialbjuvdvfa6f4is9xu20x0td,336kav9kyu50dbfcma0x8yef1s52yq,P8H8fX7g,2020-0188,2020-06-04,11:50:03,12:08:49,NA,incomplete,157,race,3,1,right,C_M_12.jpg,A_M_15.jpg,C_F_13.jpg,left,800.6349999995437,false,low,false
P8H8fX7g,38f60ialbjuvdvfa6f4is9xu20x0td,336kav9kyu50dbfcma0x8yef1s52yq,P8H8fX7g,2020-0188,2020-06-04,11:50:03,12:08:49,NA,incomplete,158,race,3,1,right,A_M_16.jpg,C_M_05.jpg,A_F_13.jpg,right,654.0599999990081,true,low,false
P8H8fX7g,38f60ialbjuvdvfa6f4is9xu20x0td,336kav9kyu50dbfcma0x8yef1s52yq,P8H8fX7g,2020-0188,2020-06-04,11:50:03,12:08:49,NA,incomplete,159,race,3,0,right,C_F_05.jpg,A_F_12.jpg,C_M_10.jpg,right,741.3700000015087,true,low,false
P8H8fX7g,38f60ialbjuvdvfa6f4is9xu20x0td,336kav9kyu50dbfcma0x8yef1s52yq,P8H8fX7g,2020-0188,2020-06-04,11:50:03,12:08:49,NA,incomplete,160,gender,2,1,right,C_F_15.jpg,C_M_16.jpg,A_F_13.jpg,left,633.5,false,low,false
P8H8fX7g,38f60ialbjuvdvfa6f4is9xu20x0td,336kav9kyu50dbfcma0x8yef1s52yq,P8H8fX7g,2020-0188,2020-06-04,11:50:03,12:08:49,NA,incomplete,161,gender,2,0,right,C_F_13.jpg,C_M_12.jpg,A_F_14.jpg,right,661.2150000000838,true,low,false
P8H8fX7g,38f60ialbjuvdvfa6f4is9xu20x0td,336kav9kyu50dbfcma0x8yef1s52yq,P8H8fX7g,2020-0188,2020-06-04,11:50:03,12:08:49,NA,incomplete,162,gender,2,1,left,C_M_11.jpg,A_M_14.jpg,C_F_03.jpg,left,868.5399999994552,true,low,false
P8H8fX7g,38f60ialbjuvdvfa6f4is9xu20x0td,336kav9kyu50dbfcma0x8yef1s52yq,P8H8fX7g,2020-0188,2020-06-04,11:50:03,12:08:49,NA,incomplete,163,gender,2,1,right,A_F_12.jpg,A_M_08.jpg,C_F_16.jpg,right,572.6850000009872,true,low,false
P8H8fX7g,38f60ialbjuvdvfa6f4is9xu20x0td,336kav9kyu50dbfcma0x8yef1s52yq,P8H8fX7g,2020-0188,2020-06-04,11:50:03,12:08:49,NA,incomplete,164,gender,2,1,right,A_F_12.jpg,A_M_07.jpg,C_F_01.jpg,right,511.0299999996787,true,low,false
P8H8fX7g,38f60ialbjuvdvfa6f4is9xu20x0td,336kav9kyu50dbfcma0x8yef1s52yq,P8H8fX7g,2020-0188,2020-06-04,11:50:03,12:08:49,NA,incomplete,165,gender,2,0,left,C_M_12.jpg,A_M_03.jpg,C_F_16.jpg,left,768.359999999986,true,low,false
P8H8fX7g,38f60ialbjuvdvfa6f4is9xu20x0td,336kav9kyu50dbfcma0x8yef1s52yq,P8H8fX7g,2020-0188,2020-06-04,11:50:03,12:08:49,NA,incomplete,166,gender,2,1,right,C_F_09.jpg,C_M_03.jpg,A_F_14.jpg,right,1248.2149999996182,true,low,false
P8H8fX7g,38f60ialbjuvdvfa6f4is9xu20x0td,336kav9kyu50dbfcma0x8yef1s52yq,P8H8fX7g,2020-0188,2020-06-04,11:50:03,12:08:49,NA,incomplete,167,gender,2,1,left,A_F_05.jpg,C_F_10.jpg,A_M_07.jpg,left,833.4450000001816,true,low,false
P8H8fX7g,38f60ialbjuvdvfa6f4is9xu20x0td,336kav9kyu50dbfcma0x8yef1s52yq,P8H8fX7g,2020-0188,2020-06-04,11:50:03,12:08:49,NA,incomplete,168,gender,2,1,left,A_M_05.jpg,C_M_04.jpg,A_F_06.jpg,left,610.870000000461,true,low,false
P8H8fX7g,38f60ialbjuvdvfa6f4is9xu20x0td,336kav9kyu50dbfcma0x8yef1s52yq,P8H8fX7g,2020-0188,2020-06-04,11:50:03,12:08:49,NA,incomplete,169,gender,2,1,left,A_M_10.jpg,C_M_15.jpg,A_F_08.jpg,left,754.6849999999395,true,low,false
P8H8fX7g,38f60ialbjuvdvfa6f4is9xu20x0td,336kav9kyu50dbfcma0x8yef1s52yq,P8H8fX7g,2020-0188,2020-06-04,11:50:03,12:08:49,NA,incomplete,170,gender,2,0,left,A_M_06.jpg,C_M_16.jpg,A_F_09.jpg,left,576.8700000008103,true,low,false
P8H8fX7g,38f60ialbjuvdvfa6f4is9xu20x0td,336kav9kyu50dbfcma0x8yef1s52yq,P8H8fX7g,2020-0188,2020-06-04,11:50:03,12:08:49,NA,incomplete,171,gender,2,1,left,A_F_08.jpg,C_F_10.jpg,A_M_04.jpg,left,604.4050000000279,true,low,false
P8H8fX7g,38f60ialbjuvdvfa6f4is9xu20x0td,336kav9kyu50dbfcma0x8yef1s52yq,P8H8fX7g,2020-0188,2020-06-04,11:50:03,12:08:49,NA,incomplete,172,gender,2,1,left,C_F_07.jpg,A_F_15.jpg,C_M_04.jpg,left,604.245000000461,true,low,false
P8H8fX7g,38f60ialbjuvdvfa6f4is9xu20x0td,336kav9kyu50dbfcma0x8yef1s52yq,P8H8fX7g,2020-0188,2020-06-04,11:50:03,12:08:49,NA,incomplete,173,gender,2,1,left,C_F_04.jpg,A_F_10.jpg,C_M_08.jpg,left,562.9699999990407,true,low,false
P8H8fX7g,38f60ialbjuvdvfa6f4is9xu20x0td,336kav9kyu50dbfcma0x8yef1s52yq,P8H8fX7g,2020-0188,2020-06-04,11:50:03,12:08:49,NA,incomplete,174,gender,2,1,left,A_M_13.jpg,C_M_15.jpg,A_F_01.jpg,left,820.4399999994785,true,low,false
P8H8fX7g,38f60ialbjuvdvfa6f4is9xu20x0td,336kav9kyu50dbfcma0x8yef1s52yq,P8H8fX7g,2020-0188,2020-06-04,11:50:03,12:08:49,NA,incomplete,175,gender,2,1,left,A_M_14.jpg,C_M_11.jpg,A_F_10.jpg,left,629.1400000008289,true,low,false
P8H8fX7g,38f60ialbjuvdvfa6f4is9xu20x0td,336kav9kyu50dbfcma0x8yef1s52yq,P8H8fX7g,2020-0188,2020-06-04,11:50:03,12:08:49,NA,incomplete,176,gender,2,1,left,A_M_09.jpg,C_M_02.jpg,A_F_13.jpg,left,599.9249999986496,true,low,false
P8H8fX7g,38f60ialbjuvdvfa6f4is9xu20x0td,336kav9kyu50dbfcma0x8yef1s52yq,P8H8fX7g,2020-0188,2020-06-04,11:50:03,12:08:49,NA,incomplete,177,gender,2,1,left,A_M_13.jpg,C_M_07.jpg,A_F_11.jpg,left,558.675000000163,true,low,false
P8H8fX7g,38f60ialbjuvdvfa6f4is9xu20x0td,336kav9kyu50dbfcma0x8yef1s52yq,P8H8fX7g,2020-0188,2020-06-04,11:50:03,12:08:49,NA,incomplete,178,gender,2,1,left,C_F_15.jpg,A_F_05.jpg,C_M_03.jpg,left,519.3799999997718,true,low,false
P8H8fX7g,38f60ialbjuvdvfa6f4is9xu20x0td,336kav9kyu50dbfcma0x8yef1s52yq,P8H8fX7g,2020-0188,2020-06-04,11:50:03,12:08:49,NA,incomplete,179,gender,2,1,left,C_M_10.jpg,A_M_01.jpg,C_F_08.jpg,left,521.464999999851,true,low,false
P8H8fX7g,38f60ialbjuvdvfa6f4is9xu20x0td,336kav9kyu50dbfcma0x8yef1s52yq,P8H8fX7g,2020-0188,2020-06-04,11:50:03,12:08:49,NA,incomplete,180,race,3,1,left,C_M_07.jpg,C_F_14.jpg,A_M_10.jpg,right,556.9199999991106,false,low,false
P8H8fX7g,38f60ialbjuvdvfa6f4is9xu20x0td,336kav9kyu50dbfcma0x8yef1s52yq,P8H8fX7g,2020-0188,2020-06-04,11:50:03,12:08:49,NA,incomplete,181,race,3,1,right,C_M_16.jpg,A_M_03.jpg,C_F_12.jpg,left,621.1050000002142,false,low,false
P8H8fX7g,38f60ialbjuvdvfa6f4is9xu20x0td,336kav9kyu50dbfcma0x8yef1s52yq,P8H8fX7g,2020-0188,2020-06-04,11:50:03,12:08:49,NA,incomplete,182,race,3,1,left,A_F_11.jpg,A_M_14.jpg,C_F_01.jpg,left,1135.2900000001537,true,low,false
P8H8fX7g,38f60ialbjuvdvfa6f4is9xu20x0td,336kav9kyu50dbfcma0x8yef1s52yq,P8H8fX7g,2020-0188,2020-06-04,11:50:03,12:08:49,NA,incomplete,183,race,3,1,right,C_F_10.jpg,A_F_01.jpg,C_M_07.jpg,right,671.1250000008149,true,low,false
P8H8fX7g,38f60ialbjuvdvfa6f4is9xu20x0td,336kav9kyu50dbfcma0x8yef1s52yq,P8H8fX7g,2020-0188,2020-06-04,11:50:03,12:08:49,NA,incomplete,184,race,3,0,right,A_F_03.jpg,C_F_15.jpg,A_M_01.jpg,right,600.6799999995856,true,low,false
P8H8fX7g,38f60ialbjuvdvfa6f4is9xu20x0td,336kav9kyu50dbfcma0x8yef1s52yq,P8H8fX7g,2020-0188,2020-06-04,11:50:03,12:08:49,NA,incomplete,185,race,3,1,left,A_F_04.jpg,A_M_07.jpg,C_F_16.jpg,left,607.5099999997765,true,low,false
P8H8fX7g,38f60ialbjuvdvfa6f4is9xu20x0td,336kav9kyu50dbfcma0x8yef1s52yq,P8H8fX7g,2020-0188,2020-06-04,11:50:03,12:08:49,NA,incomplete,186,race,3,1,right,C_M_08.jpg,A_M_03.jpg,C_F_13.jpg,left,895.3199999995995,false,low,false
P8H8fX7g,38f60ialbjuvdvfa6f4is9xu20x0td,336kav9kyu50dbfcma0x8yef1s52yq,P8H8fX7g,2020-0188,2020-06-04,11:50:03,12:08:49,NA,incomplete,187,race,3,0,right,C_M_06.jpg,A_M_05.jpg,C_F_02.jpg,right,738.5049999993062,true,low,false
P8H8fX7g,38f60ialbjuvdvfa6f4is9xu20x0td,336kav9kyu50dbfcma0x8yef1s52yq,P8H8fX7g,2020-0188,2020-06-04,11:50:03,12:08:49,NA,incomplete,188,race,3,1,left,C_F_03.jpg,C_M_12.jpg,A_F_06.jpg,left,766.1300000000047,true,low,false
P8H8fX7g,38f60ialbjuvdvfa6f4is9xu20x0td,336kav9kyu50dbfcma0x8yef1s52yq,P8H8fX7g,2020-0188,2020-06-04,11:50:03,12:08:49,NA,incomplete,189,race,3,1,right,C_F_03.jpg,A_F_05.jpg,C_M_14.jpg,right,893.4849999987055,true,low,false
P8H8fX7g,38f60ialbjuvdvfa6f4is9xu20x0td,336kav9kyu50dbfcma0x8yef1s52yq,P8H8fX7g,2020-0188,2020-06-04,11:50:03,12:08:49,NA,incomplete,190,race,3,0,left,C_F_10.jpg,C_M_05.jpg,A_F_03.jpg,left,625.9499999997206,true,low,false
P8H8fX7g,38f60ialbjuvdvfa6f4is9xu20x0td,336kav9kyu50dbfcma0x8yef1s52yq,P8H8fX7g,2020-0188,2020-06-04,11:50:03,12:08:49,NA,incomplete,191,race,3,1,right,A_M_16.jpg,C_M_07.jpg,A_F_11.jpg,left,860.445000000298,false,low,false
P8H8fX7g,38f60ialbjuvdvfa6f4is9xu20x0td,336kav9kyu50dbfcma0x8yef1s52yq,P8H8fX7g,2020-0188,2020-06-04,11:50:03,12:08:49,NA,incomplete,192,race,3,1,right,A_M_03.jpg,C_M_09.jpg,A_F_01.jpg,right,722.2750000000233,true,low,false
P8H8fX7g,38f60ialbjuvdvfa6f4is9xu20x0td,336kav9kyu50dbfcma0x8yef1s52yq,P8H8fX7g,2020-0188,2020-06-04,11:50:03,12:08:49,NA,incomplete,193,race,3,1,left,C_M_13.jpg,C_F_04.jpg,A_M_01.jpg,left,1275.2199999995064,true,low,false
P8H8fX7g,38f60ialbjuvdvfa6f4is9xu20x0td,336kav9kyu50dbfcma0x8yef1s52yq,P8H8fX7g,2020-0188,2020-06-04,11:50:03,12:08:49,NA,incomplete,194,race,3,1,left,C_M_16.jpg,C_F_11.jpg,A_M_04.jpg,left,1056.2150000005495,true,low,false
P8H8fX7g,38f60ialbjuvdvfa6f4is9xu20x0td,336kav9kyu50dbfcma0x8yef1s52yq,P8H8fX7g,2020-0188,2020-06-04,11:50:03,12:08:49,NA,incomplete,195,race,3,1,right,C_F_08.jpg,A_F_01.jpg,C_M_07.jpg,right,756.9699999985751,true,low,false
P8H8fX7g,38f60ialbjuvdvfa6f4is9xu20x0td,336kav9kyu50dbfcma0x8yef1s52yq,P8H8fX7g,2020-0188,2020-06-04,11:50:03,12:08:49,NA,incomplete,196,race,3,1,left,C_M_16.jpg,C_F_06.jpg,A_M_14.jpg,left,1074.660000000149,true,low,false
P8H8fX7g,38f60ialbjuvdvfa6f4is9xu20x0td,336kav9kyu50dbfcma0x8yef1s52yq,P8H8fX7g,2020-0188,2020-06-04,11:50:03,12:08:49,NA,incomplete,197,race,3,0,right,C_M_02.jpg,A_M_13.jpg,C_F_15.jpg,right,857.2649999987334,true,low,false
P8H8fX7g,38f60ialbjuvdvfa6f4is9xu20x0td,336kav9kyu50dbfcma0x8yef1s52yq,P8H8fX7g,2020-0188,2020-06-04,11:50:03,12:08:49,NA,incomplete,198,race,3,1,right,A_F_04.jpg,C_F_13.jpg,A_M_06.jpg,right,631.1649999988731,true,low,false
P8H8fX7g,38f60ialbjuvdvfa6f4is9xu20x0td,336kav9kyu50dbfcma0x8yef1s52yq,P8H8fX7g,2020-0188,2020-06-04,11:50:03,12:08:49,NA,incomplete,199,race,3,1,right,C_M_03.jpg,A_M_08.jpg,C_F_15.jpg,right,1250.1699999993434,true,low,false
P8H8fX7g,38f60ialbjuvdvfa6f4is9xu20x0td,336kav9kyu50dbfcma0x8yef1s52yq,P8H8fX7g,2020-0188,2020-06-04,11:50:03,12:08:49,NA,incomplete,200,gender,2,0,right,A_F_15.jpg,A_M_02.jpg,C_F_08.jpg,left,796.5299999995623,false,low,false
P8H8fX7g,38f60ialbjuvdvfa6f4is9xu20x0td,336kav9kyu50dbfcma0x8yef1s52yq,P8H8fX7g,2020-0188,2020-06-04,11:50:03,12:08:49,NA,incomplete,201,gender,2,1,left,C_F_15.jpg,A_F_11.jpg,C_M_01.jpg,right,656.5750000008848,false,low,false
P8H8fX7g,38f60ialbjuvdvfa6f4is9xu20x0td,336kav9kyu50dbfcma0x8yef1s52yq,P8H8fX7g,2020-0188,2020-06-04,11:50:03,12:08:49,NA,incomplete,202,gender,2,1,left,A_M_15.jpg,C_M_05.jpg,A_F_08.jpg,right,647.7400000003399,false,low,false
P8H8fX7g,38f60ialbjuvdvfa6f4is9xu20x0td,336kav9kyu50dbfcma0x8yef1s52yq,P8H8fX7g,2020-0188,2020-06-04,11:50:03,12:08:49,NA,incomplete,203,gender,2,1,right,A_F_07.jpg,A_M_15.jpg,C_F_13.jpg,right,573.9800000010291,true,low,false
P8H8fX7g,38f60ialbjuvdvfa6f4is9xu20x0td,336kav9kyu50dbfcma0x8yef1s52yq,P8H8fX7g,2020-0188,2020-06-04,11:50:03,12:08:49,NA,incomplete,204,gender,2,1,right,C_F_03.jpg,C_M_12.jpg,A_F_16.jpg,right,528.47999999905,true,low,false
P8H8fX7g,38f60ialbjuvdvfa6f4is9xu20x0td,336kav9kyu50dbfcma0x8yef1s52yq,P8H8fX7g,2020-0188,2020-06-04,11:50:03,12:08:49,NA,incomplete,205,gender,2,1,right,A_M_08.jpg,A_F_06.jpg,C_M_13.jpg,right,980.9150000001537,true,low,false
P8H8fX7g,38f60ialbjuvdvfa6f4is9xu20x0td,336kav9kyu50dbfcma0x8yef1s52yq,P8H8fX7g,2020-0188,2020-06-04,11:50:03,12:08:49,NA,incomplete,206,gender,2,0,left,C_M_13.jpg,A_M_15.jpg,C_F_14.jpg,left,805.5850000000792,true,low,false
P8H8fX7g,38f60ialbjuvdvfa6f4is9xu20x0td,336kav9kyu50dbfcma0x8yef1s52yq,P8H8fX7g,2020-0188,2020-06-04,11:50:03,12:08:49,NA,incomplete,207,gender,2,1,right,C_M_16.jpg,C_F_12.jpg,A_M_15.jpg,right,570.9499999993714,true,low,false
P8H8fX7g,38f60ialbjuvdvfa6f4is9xu20x0td,336kav9kyu50dbfcma0x8yef1s52yq,P8H8fX7g,2020-0188,2020-06-04,11:50:03,12:08:49,NA,incomplete,208,gender,2,0,right,C_F_09.jpg,C_M_10.jpg,A_F_04.jpg,left,741.3899999991991,false,low,false
P8H8fX7g,38f60ialbjuvdvfa6f4is9xu20x0td,336kav9kyu50dbfcma0x8yef1s52yq,P8H8fX7g,2020-0188,2020-06-04,11:50:03,12:08:49,NA,incomplete,209,gender,2,1,right,C_M_10.jpg,C_F_13.jpg,A_M_09.jpg,left,585.5100000008242,false,low,false
P8H8fX7g,38f60ialbjuvdvfa6f4is9xu20x0td,336kav9kyu50dbfcma0x8yef1s52yq,P8H8fX7g,2020-0188,2020-06-04,11:50:03,12:08:49,NA,incomplete,210,gender,2,1,left,A_F_08.jpg,C_F_13.jpg,A_M_12.jpg,right,1054.6950000007637,false,low,false
P8H8fX7g,38f60ialbjuvdvfa6f4is9xu20x0td,336kav9kyu50dbfcma0x8yef1s52yq,P8H8fX7g,2020-0188,2020-06-04,11:50:03,12:08:49,NA,incomplete,211,gender,2,1,left,A_F_16.jpg,C_F_08.jpg,A_M_05.jpg,left,545.6350000003586,true,low,false
P8H8fX7g,38f60ialbjuvdvfa6f4is9xu20x0td,336kav9kyu50dbfcma0x8yef1s52yq,P8H8fX7g,2020-0188,2020-06-04,11:50:03,12:08:49,NA,incomplete,212,gender,2,1,right,A_M_13.jpg,A_F_04.jpg,C_M_11.jpg,right,455.9399999998277,true,low,false
P8H8fX7g,38f60ialbjuvdvfa6f4is9xu20x0td,336kav9kyu50dbfcma0x8yef1s52yq,P8H8fX7g,2020-0188,2020-06-04,11:50:03,12:08:49,NA,incomplete,213,gender,2,0,left,C_F_06.jpg,A_F_14.jpg,C_M_12.jpg,left,736.5350000000326,true,low,false
P8H8fX7g,38f60ialbjuvdvfa6f4is9xu20x0td,336kav9kyu50dbfcma0x8yef1s52yq,P8H8fX7g,2020-0188,2020-06-04,11:50:03,12:08:49,NA,incomplete,214,gender,2,1,left,C_F_12.jpg,A_F_16.jpg,C_M_15.jpg,left,628.3849999998929,true,low,false
P8H8fX7g,38f60ialbjuvdvfa6f4is9xu20x0td,336kav9kyu50dbfcma0x8yef1s52yq,P8H8fX7g,2020-0188,2020-06-04,11:50:03,12:08:49,NA,incomplete,215,gender,2,1,left,A_M_01.jpg,C_M_12.jpg,A_F_13.jpg,left,919.7249999997439,true,low,false
P8H8fX7g,38f60ialbjuvdvfa6f4is9xu20x0td,336kav9kyu50dbfcma0x8yef1s52yq,P8H8fX7g,2020-0188,2020-06-04,11:50:03,12:08:49,NA,incomplete,216,gender,2,1,left,A_M_13.jpg,C_M_15.jpg,A_F_16.jpg,left,638.8049999987707,true,low,false
P8H8fX7g,38f60ialbjuvdvfa6f4is9xu20x0td,336kav9kyu50dbfcma0x8yef1s52yq,P8H8fX7g,2020-0188,2020-06-04,11:50:03,12:08:49,NA,incomplete,217,gender,2,1,right,C_M_04.jpg,C_F_10.jpg,A_M_05.jpg,right,562.8749999995343,true,low,false
P8H8fX7g,38f60ialbjuvdvfa6f4is9xu20x0td,336kav9kyu50dbfcma0x8yef1s52yq,P8H8fX7g,2020-0188,2020-06-04,11:50:03,12:08:49,NA,incomplete,218,gender,2,1,left,A_F_02.jpg,C_F_04.jpg,A_M_05.jpg,left,580.4300000001676,true,low,false
P8H8fX7g,38f60ialbjuvdvfa6f4is9xu20x0td,336kav9kyu50dbfcma0x8yef1s52yq,P8H8fX7g,2020-0188,2020-06-04,11:50:03,12:08:49,NA,incomplete,219,gender,2,1,left,A_M_11.jpg,C_M_07.jpg,A_F_01.jpg,left,527.9850000005681,true,low,false
P8H8fX7g,38f60ialbjuvdvfa6f4is9xu20x0td,336kav9kyu50dbfcma0x8yef1s52yq,P8H8fX7g,2020-0188,2020-06-04,11:50:03,12:08:49,NA,incomplete,220,race,3,1,right,A_M_04.jpg,C_M_13.jpg,A_F_02.jpg,left,532.3050000006333,false,low,false
P8H8fX7g,38f60ialbjuvdvfa6f4is9xu20x0td,336kav9kyu50dbfcma0x8yef1s52yq,P8H8fX7g,2020-0188,2020-06-04,11:50:03,12:08:49,NA,incomplete,221,race,3,0,right,A_M_03.jpg,C_M_02.jpg,A_F_05.jpg,left,456.304999999702,false,low,false
P8H8fX7g,38f60ialbjuvdvfa6f4is9xu20x0td,336kav9kyu50dbfcma0x8yef1s52yq,P8H8fX7g,2020-0188,2020-06-04,11:50:03,12:08:49,NA,incomplete,222,race,3,1,left,A_M_10.jpg,A_F_12.jpg,C_M_04.jpg,right,552.8800000010524,false,low,false
P8H8fX7g,38f60ialbjuvdvfa6f4is9xu20x0td,336kav9kyu50dbfcma0x8yef1s52yq,P8H8fX7g,2020-0188,2020-06-04,11:50:03,12:08:49,NA,incomplete,223,race,3,1,left,A_F_13.jpg,A_M_14.jpg,C_F_15.jpg,right,616.850000000326,false,low,false
P8H8fX7g,38f60ialbjuvdvfa6f4is9xu20x0td,336kav9kyu50dbfcma0x8yef1s52yq,P8H8fX7g,2020-0188,2020-06-04,11:50:03,12:08:49,NA,incomplete,224,race,3,1,right,C_M_16.jpg,A_M_10.jpg,C_F_04.jpg,left,433.38500000024214,false,low,false
P8H8fX7g,38f60ialbjuvdvfa6f4is9xu20x0td,336kav9kyu50dbfcma0x8yef1s52yq,P8H8fX7g,2020-0188,2020-06-04,11:50:03,12:08:49,NA,incomplete,225,race,3,0,left,A_F_02.jpg,A_M_04.jpg,C_F_03.jpg,left,575.2200000006706,true,low,false
P8H8fX7g,38f60ialbjuvdvfa6f4is9xu20x0td,336kav9kyu50dbfcma0x8yef1s52yq,P8H8fX7g,2020-0188,2020-06-04,11:50:03,12:08:49,NA,incomplete,226,race,3,1,left,A_M_04.jpg,A_F_16.jpg,C_M_11.jpg,left,745.6700000003912,true,low,false
P8H8fX7g,38f60ialbjuvdvfa6f4is9xu20x0td,336kav9kyu50dbfcma0x8yef1s52yq,P8H8fX7g,2020-0188,2020-06-04,11:50:03,12:08:49,NA,incomplete,227,race,3,0,left,C_F_02.jpg,C_M_06.jpg,A_F_04.jpg,left,942.535000000149,true,low,false
P8H8fX7g,38f60ialbjuvdvfa6f4is9xu20x0td,336kav9kyu50dbfcma0x8yef1s52yq,P8H8fX7g,2020-0188,2020-06-04,11:50:03,12:08:49,NA,incomplete,228,race,3,1,left,A_F_06.jpg,A_M_10.jpg,C_F_13.jpg,left,728.944999998901,true,low,false
P8H8fX7g,38f60ialbjuvdvfa6f4is9xu20x0td,336kav9kyu50dbfcma0x8yef1s52yq,P8H8fX7g,2020-0188,2020-06-04,11:50:03,12:08:49,NA,incomplete,229,race,3,1,left,C_F_09.jpg,C_M_03.jpg,A_F_08.jpg,left,810.7099999997299,true,low,false
P8H8fX7g,38f60ialbjuvdvfa6f4is9xu20x0td,336kav9kyu50dbfcma0x8yef1s52yq,P8H8fX7g,2020-0188,2020-06-04,11:50:03,12:08:49,NA,incomplete,230,race,3,1,right,A_M_01.jpg,C_M_14.jpg,A_F_09.jpg,right,713.3000000014435,true,low,false
P8H8fX7g,38f60ialbjuvdvfa6f4is9xu20x0td,336kav9kyu50dbfcma0x8yef1s52yq,P8H8fX7g,2020-0188,2020-06-04,11:50:03,12:08:49,NA,incomplete,231,race,3,0,left,A_M_13.jpg,A_F_11.jpg,C_M_09.jpg,left,696.8299999989104,true,low,false
P8H8fX7g,38f60ialbjuvdvfa6f4is9xu20x0td,336kav9kyu50dbfcma0x8yef1s52yq,P8H8fX7g,2020-0188,2020-06-04,11:50:03,12:08:49,NA,incomplete,232,race,3,1,right,A_F_02.jpg,C_F_13.jpg,A_M_05.jpg,right,550.8300000003073,true,low,false
P8H8fX7g,38f60ialbjuvdvfa6f4is9xu20x0td,336kav9kyu50dbfcma0x8yef1s52yq,P8H8fX7g,2020-0188,2020-06-04,11:50:03,12:08:49,NA,incomplete,233,race,3,1,right,A_F_02.jpg,C_F_09.jpg,A_M_12.jpg,right,629.8499999993946,true,low,false
P8H8fX7g,38f60ialbjuvdvfa6f4is9xu20x0td,336kav9kyu50dbfcma0x8yef1s52yq,P8H8fX7g,2020-0188,2020-06-04,11:50:03,12:08:49,NA,incomplete,234,race,3,0,left,C_F_13.jpg,C_M_04.jpg,A_F_05.jpg,left,640.8549999997485,true,low,false
P8H8fX7g,38f60ialbjuvdvfa6f4is9xu20x0td,336kav9kyu50dbfcma0x8yef1s52yq,P8H8fX7g,2020-0188,2020-06-04,11:50:03,12:08:49,NA,incomplete,235,race,3,1,right,C_M_02.jpg,A_M_15.jpg,C_F_07.jpg,right,702.2450000005774,true,low,false
P8H8fX7g,38f60ialbjuvdvfa6f4is9xu20x0td,336kav9kyu50dbfcma0x8yef1s52yq,P8H8fX7g,2020-0188,2020-06-04,11:50:03,12:08:49,NA,incomplete,236,race,3,1,left,A_M_03.jpg,A_F_06.jpg,C_M_02.jpg,left,1364.6850000005215,true,low,false
P8H8fX7g,38f60ialbjuvdvfa6f4is9xu20x0td,336kav9kyu50dbfcma0x8yef1s52yq,P8H8fX7g,2020-0188,2020-06-04,11:50:03,12:08:49,NA,incomplete,237,race,3,1,left,A_M_11.jpg,A_F_16.jpg,C_M_09.jpg,left,735.5300000000279,true,low,false
P8H8fX7g,38f60ialbjuvdvfa6f4is9xu20x0td,336kav9kyu50dbfcma0x8yef1s52yq,P8H8fX7g,2020-0188,2020-06-04,11:50:03,12:08:49,NA,incomplete,238,race,3,0,right,A_M_04.jpg,C_M_12.jpg,A_F_10.jpg,right,730.3749999990687,true,low,false
P8H8fX7g,38f60ialbjuvdvfa6f4is9xu20x0td,336kav9kyu50dbfcma0x8yef1s52yq,P8H8fX7g,2020-0188,2020-06-04,11:50:03,12:08:49,NA,incomplete,239,race,3,1,right,C_M_10.jpg,A_M_05.jpg,C_F_01.jpg,right,645.309999999823,true,low,false
P8H8fX7g,38f60ialbjuvdvfa6f4is9xu20x0td,336kav9kyu50dbfcma0x8yef1s52yq,P8H8fX7g,2020-0188,2020-06-04,11:50:03,12:08:49,NA,NA,instruction example,filling,NA,NA,NA,Red_Circle_Stripes_1.jpg,Purple_Star_Stripes_3.jpg,Red_Plus_Dots_4.jpg,NA,NA,NA,NA,undefined
P8H8fX7g,38f60ialbjuvdvfa6f4is9xu20x0td,336kav9kyu50dbfcma0x8yef1s52yq,P8H8fX7g,2020-0188,2020-06-04,11:50:03,12:08:49,NA,NA,instruction example,filling,NA,NA,NA,Blue_Star_Stripes_2.jpg,Blue_Triangle_Chess_4.jpg,Red_Circle_Stripes_1.jpg,NA,NA,NA,NA,undefined
P8H8fX7g,38f60ialbjuvdvfa6f4is9xu20x0td,336kav9kyu50dbfcma0x8yef1s52yq,P8H8fX7g,2020-0188,2020-06-04,11:50:03,12:08:49,NA,NA,instruction example,filling,NA,NA,NA,A_M_03.jpg,C_M_11.jpg,A_F_06.jpg,NA,NA,NA,NA,undefined
P8H8fX7g,38f60ialbjuvdvfa6f4is9xu20x0td,336kav9kyu50dbfcma0x8yef1s52yq,P8H8fX7g,2020-0188,2020-06-04,11:50:03,12:08:49,NA,NA,instruction example,filling,NA,NA,NA,C_M_02.jpg,C_F_10.jpg,A_M_03.jpg,NA,NA,NA,NA,undefined
