workerId,hitId,assignmentId,subject,studyid,exp_date,exp_start,exp_end,time_start,time_end,trial,type,sequence,reward_validity,answer,image_top,image_left,image_right,response,response_time,response_acc,volatility,practice
t7sqs6ga,32204agabep2jqz0kncwzihmy16hgu,33f859i56aq8ftpjv3pknrmg7u1bhk,t7sqs6ga,2020-0188,2020-06-16,16:54:45,17:13:13,NA,incomplete,0,shape,0,1,left,Blue_Star_Chess_3.jpg,Red_Star_Dots_4.jpg,Purple_Triangle_Grid_3.jpg,right,1322.0349999610335,false,NA,true
t7sqs6ga,32204agabep2jqz0kncwzihmy16hgu,33f859i56aq8ftpjv3pknrmg7u1bhk,t7sqs6ga,2020-0188,2020-06-16,16:54:45,17:13:13,NA,incomplete,1,shape,0,0,left,Red_Triangle_Grid_4.jpg,Purple_Triangle_Stripes_1.jpg,Blue_Plus_Dots_4.jpg,left,1444.0350000513718,true,NA,true
t7sqs6ga,32204agabep2jqz0kncwzihmy16hgu,33f859i56aq8ftpjv3pknrmg7u1bhk,t7sqs6ga,2020-0188,2020-06-16,16:54:45,17:13:13,NA,incomplete,2,shape,0,0,left,Purple_Triangle_Stripes_4.jpg,Red_Triangle_Dots_2.jpg,Blue_Star_Chess_4.jpg,left,934.6500000101514,true,NA,true
t7sqs6ga,32204agabep2jqz0kncwzihmy16hgu,33f859i56aq8ftpjv3pknrmg7u1bhk,t7sqs6ga,2020-0188,2020-06-16,16:54:45,17:13:13,NA,incomplete,3,shape,0,1,right,Blue_Star_Dots_2.jpg,Purple_Plus_Grid_2.jpg,Green_Star_Stripes_4.jpg,right,1017.5649999873713,true,NA,true
t7sqs6ga,32204agabep2jqz0kncwzihmy16hgu,33f859i56aq8ftpjv3pknrmg7u1bhk,t7sqs6ga,2020-0188,2020-06-16,16:54:45,17:13:13,NA,incomplete,4,shape,0,1,right,Green_Circle_Chess_1.jpg,Red_Star_Dots_1.jpg,Purple_Circle_Grid_3.jpg,right,815.6650000018999,true,NA,true
t7sqs6ga,32204agabep2jqz0kncwzihmy16hgu,33f859i56aq8ftpjv3pknrmg7u1bhk,t7sqs6ga,2020-0188,2020-06-16,16:54:45,17:13:13,NA,incomplete,5,shape,0,1,left,Blue_Triangle_Dots_4.jpg,Purple_Triangle_Chess_1.jpg,Green_Plus_Stripes_4.jpg,left,1575.2799999900162,true,NA,true
t7sqs6ga,32204agabep2jqz0kncwzihmy16hgu,33f859i56aq8ftpjv3pknrmg7u1bhk,t7sqs6ga,2020-0188,2020-06-16,16:54:45,17:13:13,NA,incomplete,6,shape,0,0,left,Blue_Triangle_Grid_1.jpg,Purple_Triangle_Dots_3.jpg,Red_Plus_Stripes_1.jpg,left,781.3850000384264,true,NA,true
t7sqs6ga,32204agabep2jqz0kncwzihmy16hgu,33f859i56aq8ftpjv3pknrmg7u1bhk,t7sqs6ga,2020-0188,2020-06-16,16:54:45,17:13:13,NA,incomplete,7,shape,0,0,right,Blue_Star_Stripes_4.jpg,Green_Plus_Chess_4.jpg,Red_Star_Dots_1.jpg,none,0,false,NA,true
t7sqs6ga,32204agabep2jqz0kncwzihmy16hgu,33f859i56aq8ftpjv3pknrmg7u1bhk,t7sqs6ga,2020-0188,2020-06-16,16:54:45,17:13:13,NA,incomplete,8,shape,0,1,left,Red_Triangle_Chess_1.jpg,Blue_Triangle_Grid_2.jpg,Purple_Star_Dots_1.jpg,left,852.0299999509007,true,NA,true
t7sqs6ga,32204agabep2jqz0kncwzihmy16hgu,33f859i56aq8ftpjv3pknrmg7u1bhk,t7sqs6ga,2020-0188,2020-06-16,16:54:45,17:13:13,NA,incomplete,9,shape,0,1,right,Green_Star_Grid_1.jpg,Purple_Circle_Chess_1.jpg,Red_Star_Stripes_3.jpg,right,1340.7700000097975,true,NA,true
t7sqs6ga,32204agabep2jqz0kncwzihmy16hgu,33f859i56aq8ftpjv3pknrmg7u1bhk,t7sqs6ga,2020-0188,2020-06-16,16:54:45,17:13:13,NA,incomplete,10,shape,0,0,right,Red_Plus_Grid_3.jpg,Green_Star_Stripes_3.jpg,Purple_Plus_Chess_4.jpg,right,820.6500000087544,true,NA,true
t7sqs6ga,32204agabep2jqz0kncwzihmy16hgu,33f859i56aq8ftpjv3pknrmg7u1bhk,t7sqs6ga,2020-0188,2020-06-16,16:54:45,17:13:13,NA,incomplete,11,shape,0,1,left,Purple_Triangle_Chess_3.jpg,Green_Triangle_Stripes_1.jpg,Red_Star_Grid_3.jpg,left,793.4050000039861,true,NA,true
t7sqs6ga,32204agabep2jqz0kncwzihmy16hgu,33f859i56aq8ftpjv3pknrmg7u1bhk,t7sqs6ga,2020-0188,2020-06-16,16:54:45,17:13:13,NA,incomplete,12,shape,0,1,right,Blue_Triangle_Grid_2.jpg,Purple_Star_Chess_2.jpg,Green_Triangle_Dots_3.jpg,right,908.7899999576621,true,NA,true
t7sqs6ga,32204agabep2jqz0kncwzihmy16hgu,33f859i56aq8ftpjv3pknrmg7u1bhk,t7sqs6ga,2020-0188,2020-06-16,16:54:45,17:13:13,NA,incomplete,13,shape,0,1,left,Red_Star_Chess_1.jpg,Green_Star_Stripes_4.jpg,Blue_Circle_Grid_1.jpg,left,775.6600000429899,true,NA,true
t7sqs6ga,32204agabep2jqz0kncwzihmy16hgu,33f859i56aq8ftpjv3pknrmg7u1bhk,t7sqs6ga,2020-0188,2020-06-16,16:54:45,17:13:13,NA,incomplete,14,shape,0,1,right,Purple_Plus_Stripes_4.jpg,Blue_Circle_Chess_4.jpg,Green_Plus_Grid_2.jpg,right,766.9799999566749,true,NA,true
t7sqs6ga,32204agabep2jqz0kncwzihmy16hgu,33f859i56aq8ftpjv3pknrmg7u1bhk,t7sqs6ga,2020-0188,2020-06-16,16:54:45,17:13:13,NA,incomplete,15,shape,0,1,left,Purple_Star_Dots_1.jpg,Red_Star_Chess_4.jpg,Blue_Circle_Grid_1.jpg,left,717.8450000355951,true,NA,true
t7sqs6ga,32204agabep2jqz0kncwzihmy16hgu,33f859i56aq8ftpjv3pknrmg7u1bhk,t7sqs6ga,2020-0188,2020-06-16,16:54:45,17:13:13,NA,incomplete,16,shape,0,1,left,Green_Star_Grid_3.jpg,Red_Star_Stripes_1.jpg,Blue_Triangle_Chess_3.jpg,left,943.1050000130199,true,NA,true
t7sqs6ga,32204agabep2jqz0kncwzihmy16hgu,33f859i56aq8ftpjv3pknrmg7u1bhk,t7sqs6ga,2020-0188,2020-06-16,16:54:45,17:13:13,NA,incomplete,17,shape,0,1,right,Blue_Circle_Dots_2.jpg,Green_Star_Grid_2.jpg,Purple_Circle_Chess_3.jpg,left,730.3200000314973,false,NA,true
t7sqs6ga,32204agabep2jqz0kncwzihmy16hgu,33f859i56aq8ftpjv3pknrmg7u1bhk,t7sqs6ga,2020-0188,2020-06-16,16:54:45,17:13:13,NA,incomplete,18,shape,0,1,left,Green_Plus_Grid_2.jpg,Red_Plus_Dots_4.jpg,Purple_Triangle_Chess_2.jpg,left,1209.919999993872,true,NA,true
t7sqs6ga,32204agabep2jqz0kncwzihmy16hgu,33f859i56aq8ftpjv3pknrmg7u1bhk,t7sqs6ga,2020-0188,2020-06-16,16:54:45,17:13:13,NA,incomplete,19,shape,0,0,right,Red_Star_Grid_4.jpg,Blue_Triangle_Chess_4.jpg,Green_Star_Dots_3.jpg,right,1104.0050000301562,true,NA,true
t7sqs6ga,32204agabep2jqz0kncwzihmy16hgu,33f859i56aq8ftpjv3pknrmg7u1bhk,t7sqs6ga,2020-0188,2020-06-16,16:54:45,17:13:13,NA,incomplete,20,number,1,1,right,Red_Triangle_Dots_3.jpg,Purple_Triangle_Chess_4.jpg,Green_Plus_Grid_3.jpg,right,1617.5899999798276,true,NA,true
t7sqs6ga,32204agabep2jqz0kncwzihmy16hgu,33f859i56aq8ftpjv3pknrmg7u1bhk,t7sqs6ga,2020-0188,2020-06-16,16:54:45,17:13:13,NA,incomplete,21,number,1,1,right,Red_Circle_Chess_4.jpg,Purple_Circle_Grid_1.jpg,Blue_Triangle_Dots_4.jpg,right,1219.4250000175089,true,NA,true
t7sqs6ga,32204agabep2jqz0kncwzihmy16hgu,33f859i56aq8ftpjv3pknrmg7u1bhk,t7sqs6ga,2020-0188,2020-06-16,16:54:45,17:13:13,NA,incomplete,22,number,1,1,left,Blue_Plus_Stripes_1.jpg,Red_Star_Grid_1.jpg,Green_Plus_Chess_3.jpg,left,977.9149999958463,true,NA,true
t7sqs6ga,32204agabep2jqz0kncwzihmy16hgu,33f859i56aq8ftpjv3pknrmg7u1bhk,t7sqs6ga,2020-0188,2020-06-16,16:54:45,17:13:13,NA,incomplete,23,number,1,1,left,Blue_Circle_Chess_3.jpg,Green_Star_Dots_3.jpg,Purple_Circle_Stripes_1.jpg,left,856.0099999886006,true,NA,true
t7sqs6ga,32204agabep2jqz0kncwzihmy16hgu,33f859i56aq8ftpjv3pknrmg7u1bhk,t7sqs6ga,2020-0188,2020-06-16,16:54:45,17:13:13,NA,incomplete,24,number,1,1,left,Red_Plus_Stripes_3.jpg,Green_Star_Dots_3.jpg,Purple_Plus_Chess_4.jpg,left,922.3000000347383,true,NA,true
t7sqs6ga,32204agabep2jqz0kncwzihmy16hgu,33f859i56aq8ftpjv3pknrmg7u1bhk,t7sqs6ga,2020-0188,2020-06-16,16:54:45,17:13:13,NA,incomplete,25,number,1,1,left,Red_Star_Stripes_3.jpg,Purple_Triangle_Grid_3.jpg,Blue_Star_Dots_4.jpg,left,807.3150000418536,true,NA,true
t7sqs6ga,32204agabep2jqz0kncwzihmy16hgu,33f859i56aq8ftpjv3pknrmg7u1bhk,t7sqs6ga,2020-0188,2020-06-16,16:54:45,17:13:13,NA,incomplete,26,number,1,1,left,Green_Plus_Grid_1.jpg,Red_Circle_Chess_1.jpg,Blue_Plus_Dots_4.jpg,left,758.849999983795,true,NA,true
t7sqs6ga,32204agabep2jqz0kncwzihmy16hgu,33f859i56aq8ftpjv3pknrmg7u1bhk,t7sqs6ga,2020-0188,2020-06-16,16:54:45,17:13:13,NA,incomplete,27,number,1,1,right,Purple_Triangle_Stripes_3.jpg,Blue_Triangle_Dots_1.jpg,Red_Star_Chess_3.jpg,right,763.1300000357442,true,NA,true
t7sqs6ga,32204agabep2jqz0kncwzihmy16hgu,33f859i56aq8ftpjv3pknrmg7u1bhk,t7sqs6ga,2020-0188,2020-06-16,16:54:45,17:13:13,NA,incomplete,28,number,1,1,left,Purple_Plus_Dots_4.jpg,Red_Star_Chess_4.jpg,Green_Plus_Stripes_3.jpg,left,855.745000008028,true,NA,true
t7sqs6ga,32204agabep2jqz0kncwzihmy16hgu,33f859i56aq8ftpjv3pknrmg7u1bhk,t7sqs6ga,2020-0188,2020-06-16,16:54:45,17:13:13,NA,incomplete,29,number,1,1,right,Blue_Plus_Grid_4.jpg,Purple_Plus_Dots_1.jpg,Green_Triangle_Chess_4.jpg,right,957.5450000120327,true,NA,true
t7sqs6ga,32204agabep2jqz0kncwzihmy16hgu,33f859i56aq8ftpjv3pknrmg7u1bhk,t7sqs6ga,2020-0188,2020-06-16,16:54:45,17:13:13,NA,incomplete,30,number,1,1,right,Red_Circle_Stripes_1.jpg,Green_Circle_Dots_4.jpg,Blue_Triangle_Chess_1.jpg,left,937.2899999725632,false,NA,true
t7sqs6ga,32204agabep2jqz0kncwzihmy16hgu,33f859i56aq8ftpjv3pknrmg7u1bhk,t7sqs6ga,2020-0188,2020-06-16,16:54:45,17:13:13,NA,incomplete,31,number,1,1,left,Blue_Circle_Chess_2.jpg,Red_Star_Dots_2.jpg,Green_Circle_Grid_3.jpg,left,1050.2800000249408,true,NA,true
t7sqs6ga,32204agabep2jqz0kncwzihmy16hgu,33f859i56aq8ftpjv3pknrmg7u1bhk,t7sqs6ga,2020-0188,2020-06-16,16:54:45,17:13:13,NA,incomplete,32,number,1,1,left,Green_Plus_Dots_3.jpg,Purple_Circle_Grid_3.jpg,Red_Plus_Chess_1.jpg,left,759.3249999918044,true,NA,true
t7sqs6ga,32204agabep2jqz0kncwzihmy16hgu,33f859i56aq8ftpjv3pknrmg7u1bhk,t7sqs6ga,2020-0188,2020-06-16,16:54:45,17:13:13,NA,incomplete,33,number,1,0,left,Green_Star_Grid_2.jpg,Purple_Triangle_Stripes_2.jpg,Blue_Star_Chess_3.jpg,left,837.9999999888241,true,NA,true
t7sqs6ga,32204agabep2jqz0kncwzihmy16hgu,33f859i56aq8ftpjv3pknrmg7u1bhk,t7sqs6ga,2020-0188,2020-06-16,16:54:45,17:13:13,NA,incomplete,34,number,1,1,left,Purple_Plus_Stripes_3.jpg,Blue_Star_Dots_3.jpg,Green_Plus_Grid_2.jpg,left,1167.0250000315718,true,NA,true
t7sqs6ga,32204agabep2jqz0kncwzihmy16hgu,33f859i56aq8ftpjv3pknrmg7u1bhk,t7sqs6ga,2020-0188,2020-06-16,16:54:45,17:13:13,NA,incomplete,35,number,1,1,left,Green_Triangle_Grid_4.jpg,Purple_Circle_Chess_4.jpg,Red_Triangle_Dots_3.jpg,left,729.1749999858439,true,NA,true
t7sqs6ga,32204agabep2jqz0kncwzihmy16hgu,33f859i56aq8ftpjv3pknrmg7u1bhk,t7sqs6ga,2020-0188,2020-06-16,16:54:45,17:13:13,NA,incomplete,36,number,1,1,right,Blue_Circle_Dots_2.jpg,Red_Circle_Chess_1.jpg,Purple_Star_Stripes_2.jpg,right,777.9849999933504,true,NA,true
t7sqs6ga,32204agabep2jqz0kncwzihmy16hgu,33f859i56aq8ftpjv3pknrmg7u1bhk,t7sqs6ga,2020-0188,2020-06-16,16:54:45,17:13:13,NA,incomplete,37,number,1,1,right,Purple_Circle_Chess_3.jpg,Red_Circle_Stripes_2.jpg,Green_Star_Grid_3.jpg,right,751.9999999785796,true,NA,true
t7sqs6ga,32204agabep2jqz0kncwzihmy16hgu,33f859i56aq8ftpjv3pknrmg7u1bhk,t7sqs6ga,2020-0188,2020-06-16,16:54:45,17:13:13,NA,incomplete,38,number,1,1,right,Blue_Triangle_Chess_2.jpg,Red_Triangle_Stripes_1.jpg,Green_Circle_Grid_2.jpg,right,735.9750000177883,true,NA,true
t7sqs6ga,32204agabep2jqz0kncwzihmy16hgu,33f859i56aq8ftpjv3pknrmg7u1bhk,t7sqs6ga,2020-0188,2020-06-16,16:54:45,17:13:13,NA,incomplete,39,number,1,0,right,Green_Plus_Grid_3.jpg,Purple_Plus_Chess_2.jpg,Blue_Star_Dots_3.jpg,right,675.9699999820441,true,NA,true
t7sqs6ga,32204agabep2jqz0kncwzihmy16hgu,33f859i56aq8ftpjv3pknrmg7u1bhk,t7sqs6ga,2020-0188,2020-06-16,16:54:45,17:13:13,NA,incomplete,0,shape,0,1,left,Purple_Triangle_Chess_1.jpg,Green_Triangle_Dots_3.jpg,Red_Star_Grid_1.jpg,right,1114.2849999596365,false,high,false
t7sqs6ga,32204agabep2jqz0kncwzihmy16hgu,33f859i56aq8ftpjv3pknrmg7u1bhk,t7sqs6ga,2020-0188,2020-06-16,16:54:45,17:13:13,NA,incomplete,1,shape,0,1,left,Blue_Circle_Chess_4.jpg,Red_Circle_Dots_2.jpg,Green_Plus_Grid_4.jpg,right,1705.435000010766,false,high,false
t7sqs6ga,32204agabep2jqz0kncwzihmy16hgu,33f859i56aq8ftpjv3pknrmg7u1bhk,t7sqs6ga,2020-0188,2020-06-16,16:54:45,17:13:13,NA,incomplete,2,shape,0,0,right,Red_Plus_Stripes_4.jpg,Green_Star_Chess_4.jpg,Blue_Plus_Dots_3.jpg,right,1298.5399999888614,true,high,false
t7sqs6ga,32204agabep2jqz0kncwzihmy16hgu,33f859i56aq8ftpjv3pknrmg7u1bhk,t7sqs6ga,2020-0188,2020-06-16,16:54:45,17:13:13,NA,incomplete,3,shape,0,1,left,Red_Plus_Stripes_4.jpg,Blue_Plus_Chess_3.jpg,Purple_Triangle_Dots_4.jpg,none,0,false,high,false
t7sqs6ga,32204agabep2jqz0kncwzihmy16hgu,33f859i56aq8ftpjv3pknrmg7u1bhk,t7sqs6ga,2020-0188,2020-06-16,16:54:45,17:13:13,NA,incomplete,4,shape,0,1,left,Purple_Triangle_Chess_4.jpg,Red_Triangle_Stripes_3.jpg,Blue_Star_Grid_4.jpg,right,1048.0600000009872,false,high,false
t7sqs6ga,32204agabep2jqz0kncwzihmy16hgu,33f859i56aq8ftpjv3pknrmg7u1bhk,t7sqs6ga,2020-0188,2020-06-16,16:54:45,17:13:13,NA,incomplete,5,shape,0,0,right,Green_Triangle_Chess_4.jpg,Blue_Star_Stripes_4.jpg,Red_Triangle_Grid_3.jpg,right,938.9000000082888,true,high,false
t7sqs6ga,32204agabep2jqz0kncwzihmy16hgu,33f859i56aq8ftpjv3pknrmg7u1bhk,t7sqs6ga,2020-0188,2020-06-16,16:54:45,17:13:13,NA,incomplete,6,shape,0,1,left,Blue_Star_Grid_4.jpg,Red_Star_Dots_1.jpg,Green_Circle_Chess_4.jpg,left,1302.7400000137277,true,high,false
t7sqs6ga,32204agabep2jqz0kncwzihmy16hgu,33f859i56aq8ftpjv3pknrmg7u1bhk,t7sqs6ga,2020-0188,2020-06-16,16:54:45,17:13:13,NA,incomplete,7,shape,0,0,right,Green_Circle_Chess_1.jpg,Red_Star_Grid_1.jpg,Blue_Circle_Stripes_4.jpg,left,1498.9000000059605,false,high,false
t7sqs6ga,32204agabep2jqz0kncwzihmy16hgu,33f859i56aq8ftpjv3pknrmg7u1bhk,t7sqs6ga,2020-0188,2020-06-16,16:54:45,17:13:13,NA,incomplete,8,shape,0,0,left,Purple_Triangle_Stripes_2.jpg,Blue_Triangle_Chess_1.jpg,Red_Plus_Dots_2.jpg,right,863.7049999670126,false,high,false
t7sqs6ga,32204agabep2jqz0kncwzihmy16hgu,33f859i56aq8ftpjv3pknrmg7u1bhk,t7sqs6ga,2020-0188,2020-06-16,16:54:45,17:13:13,NA,incomplete,9,shape,0,1,left,Red_Plus_Dots_2.jpg,Purple_Plus_Chess_4.jpg,Blue_Triangle_Stripes_2.jpg,right,854.6450000139885,false,high,false
t7sqs6ga,32204agabep2jqz0kncwzihmy16hgu,33f859i56aq8ftpjv3pknrmg7u1bhk,t7sqs6ga,2020-0188,2020-06-16,16:54:45,17:13:13,NA,incomplete,10,number,1,0,right,Green_Star_Dots_1.jpg,Blue_Star_Chess_4.jpg,Purple_Circle_Grid_1.jpg,right,605.6600000010803,true,high,false
t7sqs6ga,32204agabep2jqz0kncwzihmy16hgu,33f859i56aq8ftpjv3pknrmg7u1bhk,t7sqs6ga,2020-0188,2020-06-16,16:54:45,17:13:13,NA,incomplete,11,number,1,0,right,Green_Triangle_Chess_4.jpg,Blue_Triangle_Stripes_1.jpg,Red_Star_Grid_4.jpg,right,774.3200000259094,true,high,false
t7sqs6ga,32204agabep2jqz0kncwzihmy16hgu,33f859i56aq8ftpjv3pknrmg7u1bhk,t7sqs6ga,2020-0188,2020-06-16,16:54:45,17:13:13,NA,incomplete,12,number,1,1,right,Red_Plus_Chess_2.jpg,Purple_Plus_Stripes_3.jpg,Blue_Circle_Dots_2.jpg,right,1221.239999984391,true,high,false
t7sqs6ga,32204agabep2jqz0kncwzihmy16hgu,33f859i56aq8ftpjv3pknrmg7u1bhk,t7sqs6ga,2020-0188,2020-06-16,16:54:45,17:13:13,NA,incomplete,13,number,1,1,left,Blue_Star_Dots_1.jpg,Purple_Triangle_Stripes_1.jpg,Green_Star_Chess_4.jpg,left,884.3699999852106,true,high,false
t7sqs6ga,32204agabep2jqz0kncwzihmy16hgu,33f859i56aq8ftpjv3pknrmg7u1bhk,t7sqs6ga,2020-0188,2020-06-16,16:54:45,17:13:13,NA,incomplete,14,number,1,1,left,Blue_Star_Grid_4.jpg,Green_Triangle_Chess_4.jpg,Red_Star_Stripes_1.jpg,left,1004.4149999739602,true,high,false
t7sqs6ga,32204agabep2jqz0kncwzihmy16hgu,33f859i56aq8ftpjv3pknrmg7u1bhk,t7sqs6ga,2020-0188,2020-06-16,16:54:45,17:13:13,NA,incomplete,15,number,1,0,left,Red_Triangle_Stripes_1.jpg,Green_Circle_Chess_1.jpg,Blue_Triangle_Grid_2.jpg,left,1458.7049999972805,true,high,false
t7sqs6ga,32204agabep2jqz0kncwzihmy16hgu,33f859i56aq8ftpjv3pknrmg7u1bhk,t7sqs6ga,2020-0188,2020-06-16,16:54:45,17:13:13,NA,incomplete,16,number,1,1,right,Green_Plus_Dots_1.jpg,Purple_Plus_Stripes_3.jpg,Red_Triangle_Chess_1.jpg,right,888.8150000129826,true,high,false
t7sqs6ga,32204agabep2jqz0kncwzihmy16hgu,33f859i56aq8ftpjv3pknrmg7u1bhk,t7sqs6ga,2020-0188,2020-06-16,16:54:45,17:13:13,NA,incomplete,17,number,1,1,left,Red_Star_Stripes_2.jpg,Green_Circle_Dots_2.jpg,Purple_Star_Chess_3.jpg,left,862.6700000022538,true,high,false
t7sqs6ga,32204agabep2jqz0kncwzihmy16hgu,33f859i56aq8ftpjv3pknrmg7u1bhk,t7sqs6ga,2020-0188,2020-06-16,16:54:45,17:13:13,NA,incomplete,18,number,1,1,right,Green_Plus_Grid_1.jpg,Blue_Plus_Chess_3.jpg,Purple_Star_Stripes_1.jpg,right,903.020000027027,true,high,false
t7sqs6ga,32204agabep2jqz0kncwzihmy16hgu,33f859i56aq8ftpjv3pknrmg7u1bhk,t7sqs6ga,2020-0188,2020-06-16,16:54:45,17:13:13,NA,incomplete,19,number,1,1,left,Blue_Star_Dots_4.jpg,Green_Plus_Stripes_4.jpg,Purple_Star_Chess_1.jpg,left,909.7599999513477,true,high,false
t7sqs6ga,32204agabep2jqz0kncwzihmy16hgu,33f859i56aq8ftpjv3pknrmg7u1bhk,t7sqs6ga,2020-0188,2020-06-16,16:54:45,17:13:13,NA,incomplete,20,shape,0,1,right,Blue_Circle_Stripes_2.jpg,Green_Plus_Chess_2.jpg,Red_Circle_Grid_4.jpg,left,886.815000034403,false,high,false
t7sqs6ga,32204agabep2jqz0kncwzihmy16hgu,33f859i56aq8ftpjv3pknrmg7u1bhk,t7sqs6ga,2020-0188,2020-06-16,16:54:45,17:13:13,NA,incomplete,21,shape,0,1,right,Blue_Circle_Stripes_1.jpg,Green_Triangle_Dots_1.jpg,Red_Circle_Chess_2.jpg,left,975.8600000059232,false,high,false
t7sqs6ga,32204agabep2jqz0kncwzihmy16hgu,33f859i56aq8ftpjv3pknrmg7u1bhk,t7sqs6ga,2020-0188,2020-06-16,16:54:45,17:13:13,NA,incomplete,22,shape,0,1,left,Green_Plus_Dots_2.jpg,Red_Plus_Stripes_3.jpg,Blue_Star_Chess_2.jpg,right,978.7100000539795,false,high,false
t7sqs6ga,32204agabep2jqz0kncwzihmy16hgu,33f859i56aq8ftpjv3pknrmg7u1bhk,t7sqs6ga,2020-0188,2020-06-16,16:54:45,17:13:13,NA,incomplete,23,shape,0,1,right,Red_Star_Stripes_4.jpg,Purple_Plus_Chess_4.jpg,Green_Star_Grid_2.jpg,left,1216.1399999749847,false,high,false
t7sqs6ga,32204agabep2jqz0kncwzihmy16hgu,33f859i56aq8ftpjv3pknrmg7u1bhk,t7sqs6ga,2020-0188,2020-06-16,16:54:45,17:13:13,NA,incomplete,24,shape,0,1,left,Purple_Triangle_Dots_3.jpg,Red_Triangle_Stripes_1.jpg,Green_Plus_Grid_3.jpg,left,1050.6049999967217,true,high,false
t7sqs6ga,32204agabep2jqz0kncwzihmy16hgu,33f859i56aq8ftpjv3pknrmg7u1bhk,t7sqs6ga,2020-0188,2020-06-16,16:54:45,17:13:13,NA,incomplete,25,shape,0,1,left,Red_Circle_Chess_3.jpg,Purple_Circle_Stripes_4.jpg,Blue_Plus_Grid_3.jpg,left,965.299999981653,true,high,false
t7sqs6ga,32204agabep2jqz0kncwzihmy16hgu,33f859i56aq8ftpjv3pknrmg7u1bhk,t7sqs6ga,2020-0188,2020-06-16,16:54:45,17:13:13,NA,incomplete,26,shape,0,1,left,Red_Plus_Dots_2.jpg,Green_Plus_Chess_3.jpg,Purple_Star_Stripes_2.jpg,left,684.9599999841303,true,high,false
t7sqs6ga,32204agabep2jqz0kncwzihmy16hgu,33f859i56aq8ftpjv3pknrmg7u1bhk,t7sqs6ga,2020-0188,2020-06-16,16:54:45,17:13:13,NA,incomplete,27,shape,0,1,left,Blue_Circle_Grid_4.jpg,Green_Circle_Dots_1.jpg,Red_Triangle_Chess_4.jpg,left,1137.6950000412762,true,high,false
t7sqs6ga,32204agabep2jqz0kncwzihmy16hgu,33f859i56aq8ftpjv3pknrmg7u1bhk,t7sqs6ga,2020-0188,2020-06-16,16:54:45,17:13:13,NA,incomplete,28,shape,0,1,right,Red_Triangle_Grid_2.jpg,Green_Circle_Chess_2.jpg,Blue_Triangle_Dots_1.jpg,right,1044.1599999903701,true,high,false
t7sqs6ga,32204agabep2jqz0kncwzihmy16hgu,33f859i56aq8ftpjv3pknrmg7u1bhk,t7sqs6ga,2020-0188,2020-06-16,16:54:45,17:13:13,NA,incomplete,29,shape,0,1,right,Green_Plus_Chess_2.jpg,Blue_Triangle_Stripes_2.jpg,Purple_Plus_Grid_4.jpg,right,998.5799999558367,true,high,false
t7sqs6ga,32204agabep2jqz0kncwzihmy16hgu,33f859i56aq8ftpjv3pknrmg7u1bhk,t7sqs6ga,2020-0188,2020-06-16,16:54:45,17:13:13,NA,incomplete,30,number,1,1,left,Green_Triangle_Dots_2.jpg,Purple_Plus_Grid_2.jpg,Red_Triangle_Stripes_3.jpg,right,751.929999969434,false,high,false
t7sqs6ga,32204agabep2jqz0kncwzihmy16hgu,33f859i56aq8ftpjv3pknrmg7u1bhk,t7sqs6ga,2020-0188,2020-06-16,16:54:45,17:13:13,NA,incomplete,31,number,1,1,right,Red_Star_Dots_2.jpg,Purple_Star_Chess_3.jpg,Blue_Triangle_Grid_2.jpg,left,671.1150000337511,false,high,false
t7sqs6ga,32204agabep2jqz0kncwzihmy16hgu,33f859i56aq8ftpjv3pknrmg7u1bhk,t7sqs6ga,2020-0188,2020-06-16,16:54:45,17:13:13,NA,incomplete,32,number,1,0,right,Purple_Plus_Dots_2.jpg,Green_Plus_Chess_1.jpg,Blue_Triangle_Stripes_2.jpg,left,1003.0600000172853,false,high,false
t7sqs6ga,32204agabep2jqz0kncwzihmy16hgu,33f859i56aq8ftpjv3pknrmg7u1bhk,t7sqs6ga,2020-0188,2020-06-16,16:54:45,17:13:13,NA,incomplete,33,number,1,1,right,Blue_Plus_Dots_2.jpg,Red_Plus_Grid_1.jpg,Purple_Star_Chess_2.jpg,left,763.6000000056811,false,high,false
t7sqs6ga,32204agabep2jqz0kncwzihmy16hgu,33f859i56aq8ftpjv3pknrmg7u1bhk,t7sqs6ga,2020-0188,2020-06-16,16:54:45,17:13:13,NA,incomplete,34,number,1,1,left,Purple_Plus_Grid_1.jpg,Blue_Triangle_Dots_1.jpg,Red_Plus_Chess_2.jpg,right,1242.725000018254,false,high,false
t7sqs6ga,32204agabep2jqz0kncwzihmy16hgu,33f859i56aq8ftpjv3pknrmg7u1bhk,t7sqs6ga,2020-0188,2020-06-16,16:54:45,17:13:13,NA,incomplete,35,number,1,1,left,Blue_Star_Dots_4.jpg,Green_Circle_Stripes_4.jpg,Red_Star_Grid_3.jpg,right,1217.6750000216998,false,high,false
t7sqs6ga,32204agabep2jqz0kncwzihmy16hgu,33f859i56aq8ftpjv3pknrmg7u1bhk,t7sqs6ga,2020-0188,2020-06-16,16:54:45,17:13:13,NA,incomplete,36,number,1,1,right,Green_Plus_Grid_4.jpg,Purple_Plus_Chess_2.jpg,Blue_Circle_Dots_4.jpg,right,851.4250000007451,true,high,false
t7sqs6ga,32204agabep2jqz0kncwzihmy16hgu,33f859i56aq8ftpjv3pknrmg7u1bhk,t7sqs6ga,2020-0188,2020-06-16,16:54:45,17:13:13,NA,incomplete,37,number,1,0,left,Purple_Star_Grid_2.jpg,Red_Triangle_Chess_2.jpg,Green_Star_Stripes_3.jpg,left,902.2250000271015,true,high,false
t7sqs6ga,32204agabep2jqz0kncwzihmy16hgu,33f859i56aq8ftpjv3pknrmg7u1bhk,t7sqs6ga,2020-0188,2020-06-16,16:54:45,17:13:13,NA,incomplete,38,number,1,1,left,Blue_Triangle_Dots_2.jpg,Purple_Star_Stripes_2.jpg,Red_Triangle_Grid_4.jpg,left,628.1150000286289,true,high,false
t7sqs6ga,32204agabep2jqz0kncwzihmy16hgu,33f859i56aq8ftpjv3pknrmg7u1bhk,t7sqs6ga,2020-0188,2020-06-16,16:54:45,17:13:13,NA,incomplete,39,number,1,1,left,Green_Triangle_Stripes_2.jpg,Blue_Plus_Chess_2.jpg,Purple_Triangle_Dots_3.jpg,left,745.2249999623746,true,high,false
t7sqs6ga,32204agabep2jqz0kncwzihmy16hgu,33f859i56aq8ftpjv3pknrmg7u1bhk,t7sqs6ga,2020-0188,2020-06-16,16:54:45,17:13:13,NA,incomplete,40,shape,0,0,right,Blue_Plus_Dots_4.jpg,Purple_Triangle_Chess_4.jpg,Green_Plus_Stripes_3.jpg,left,1029.9899999517947,false,high,false
t7sqs6ga,32204agabep2jqz0kncwzihmy16hgu,33f859i56aq8ftpjv3pknrmg7u1bhk,t7sqs6ga,2020-0188,2020-06-16,16:54:45,17:13:13,NA,incomplete,41,shape,0,1,left,Blue_Triangle_Stripes_2.jpg,Purple_Triangle_Dots_3.jpg,Green_Star_Grid_2.jpg,right,1015.6849999912083,false,high,false
t7sqs6ga,32204agabep2jqz0kncwzihmy16hgu,33f859i56aq8ftpjv3pknrmg7u1bhk,t7sqs6ga,2020-0188,2020-06-16,16:54:45,17:13:13,NA,incomplete,42,shape,0,1,right,Purple_Plus_Chess_1.jpg,Green_Circle_Grid_1.jpg,Blue_Plus_Stripes_3.jpg,left,848.6150000244379,false,high,false
t7sqs6ga,32204agabep2jqz0kncwzihmy16hgu,33f859i56aq8ftpjv3pknrmg7u1bhk,t7sqs6ga,2020-0188,2020-06-16,16:54:45,17:13:13,NA,incomplete,43,shape,0,1,left,Blue_Triangle_Chess_4.jpg,Purple_Triangle_Dots_3.jpg,Red_Plus_Stripes_4.jpg,left,1047.1399999805726,true,high,false
t7sqs6ga,32204agabep2jqz0kncwzihmy16hgu,33f859i56aq8ftpjv3pknrmg7u1bhk,t7sqs6ga,2020-0188,2020-06-16,16:54:45,17:13:13,NA,incomplete,44,shape,0,1,right,Blue_Circle_Dots_1.jpg,Purple_Star_Grid_1.jpg,Red_Circle_Chess_2.jpg,right,816.7750000138767,true,high,false
t7sqs6ga,32204agabep2jqz0kncwzihmy16hgu,33f859i56aq8ftpjv3pknrmg7u1bhk,t7sqs6ga,2020-0188,2020-06-16,16:54:45,17:13:13,NA,incomplete,45,shape,0,1,left,Blue_Triangle_Grid_1.jpg,Purple_Triangle_Chess_4.jpg,Red_Plus_Dots_1.jpg,left,1188.2699999841861,true,high,false
t7sqs6ga,32204agabep2jqz0kncwzihmy16hgu,33f859i56aq8ftpjv3pknrmg7u1bhk,t7sqs6ga,2020-0188,2020-06-16,16:54:45,17:13:13,NA,incomplete,46,shape,0,1,left,Green_Triangle_Dots_2.jpg,Purple_Triangle_Chess_1.jpg,Blue_Circle_Grid_2.jpg,left,645.6899999757297,true,high,false
t7sqs6ga,32204agabep2jqz0kncwzihmy16hgu,33f859i56aq8ftpjv3pknrmg7u1bhk,t7sqs6ga,2020-0188,2020-06-16,16:54:45,17:13:13,NA,incomplete,47,shape,0,1,right,Purple_Triangle_Chess_3.jpg,Red_Circle_Grid_3.jpg,Green_Triangle_Dots_2.jpg,right,1351.0050000040792,true,high,false
t7sqs6ga,32204agabep2jqz0kncwzihmy16hgu,33f859i56aq8ftpjv3pknrmg7u1bhk,t7sqs6ga,2020-0188,2020-06-16,16:54:45,17:13:13,NA,incomplete,48,shape,0,1,right,Purple_Triangle_Chess_3.jpg,Red_Circle_Grid_3.jpg,Green_Triangle_Dots_1.jpg,right,754.3099999893457,true,high,false
t7sqs6ga,32204agabep2jqz0kncwzihmy16hgu,33f859i56aq8ftpjv3pknrmg7u1bhk,t7sqs6ga,2020-0188,2020-06-16,16:54:45,17:13:13,NA,incomplete,49,shape,0,1,left,Blue_Star_Stripes_4.jpg,Red_Star_Dots_1.jpg,Purple_Triangle_Grid_4.jpg,left,697.2900000400841,true,high,false
t7sqs6ga,32204agabep2jqz0kncwzihmy16hgu,33f859i56aq8ftpjv3pknrmg7u1bhk,t7sqs6ga,2020-0188,2020-06-16,16:54:45,17:13:13,NA,incomplete,50,number,1,1,right,Blue_Triangle_Dots_2.jpg,Green_Triangle_Grid_3.jpg,Purple_Star_Stripes_2.jpg,left,910.6050000409596,false,high,false
t7sqs6ga,32204agabep2jqz0kncwzihmy16hgu,33f859i56aq8ftpjv3pknrmg7u1bhk,t7sqs6ga,2020-0188,2020-06-16,16:54:45,17:13:13,NA,incomplete,51,number,1,1,right,Blue_Circle_Grid_2.jpg,Purple_Circle_Stripes_4.jpg,Red_Star_Chess_2.jpg,left,723.8399999914691,false,high,false
t7sqs6ga,32204agabep2jqz0kncwzihmy16hgu,33f859i56aq8ftpjv3pknrmg7u1bhk,t7sqs6ga,2020-0188,2020-06-16,16:54:45,17:13:13,NA,incomplete,52,number,1,1,right,Blue_Triangle_Chess_2.jpg,Red_Triangle_Stripes_3.jpg,Purple_Circle_Dots_2.jpg,right,1131.2200000393204,true,high,false
t7sqs6ga,32204agabep2jqz0kncwzihmy16hgu,33f859i56aq8ftpjv3pknrmg7u1bhk,t7sqs6ga,2020-0188,2020-06-16,16:54:45,17:13:13,NA,incomplete,53,number,1,1,right,Purple_Triangle_Stripes_3.jpg,Blue_Triangle_Chess_2.jpg,Red_Star_Grid_3.jpg,right,904.0899999672547,true,high,false
t7sqs6ga,32204agabep2jqz0kncwzihmy16hgu,33f859i56aq8ftpjv3pknrmg7u1bhk,t7sqs6ga,2020-0188,2020-06-16,16:54:45,17:13:13,NA,incomplete,54,number,1,1,left,Blue_Plus_Grid_2.jpg,Purple_Star_Stripes_2.jpg,Red_Plus_Chess_1.jpg,left,985.2550000068732,true,high,false
t7sqs6ga,32204agabep2jqz0kncwzihmy16hgu,33f859i56aq8ftpjv3pknrmg7u1bhk,t7sqs6ga,2020-0188,2020-06-16,16:54:45,17:13:13,NA,incomplete,55,number,1,1,right,Purple_Star_Chess_3.jpg,Blue_Star_Dots_4.jpg,Red_Circle_Stripes_3.jpg,right,720.9900000016205,true,high,false
t7sqs6ga,32204agabep2jqz0kncwzihmy16hgu,33f859i56aq8ftpjv3pknrmg7u1bhk,t7sqs6ga,2020-0188,2020-06-16,16:54:45,17:13:13,NA,incomplete,56,number,1,1,right,Red_Circle_Grid_3.jpg,Purple_Circle_Chess_2.jpg,Green_Triangle_Dots_3.jpg,right,802.6149999932386,true,high,false
t7sqs6ga,32204agabep2jqz0kncwzihmy16hgu,33f859i56aq8ftpjv3pknrmg7u1bhk,t7sqs6ga,2020-0188,2020-06-16,16:54:45,17:13:13,NA,incomplete,57,number,1,1,left,Green_Triangle_Chess_4.jpg,Blue_Circle_Dots_4.jpg,Purple_Triangle_Grid_2.jpg,left,561.9249999872409,true,high,false
t7sqs6ga,32204agabep2jqz0kncwzihmy16hgu,33f859i56aq8ftpjv3pknrmg7u1bhk,t7sqs6ga,2020-0188,2020-06-16,16:54:45,17:13:13,NA,incomplete,58,number,1,1,right,Red_Star_Stripes_2.jpg,Purple_Star_Dots_3.jpg,Green_Circle_Chess_2.jpg,right,896.9349999679253,true,high,false
t7sqs6ga,32204agabep2jqz0kncwzihmy16hgu,33f859i56aq8ftpjv3pknrmg7u1bhk,t7sqs6ga,2020-0188,2020-06-16,16:54:45,17:13:13,NA,incomplete,59,number,1,1,left,Green_Star_Stripes_2.jpg,Blue_Triangle_Dots_2.jpg,Purple_Star_Grid_1.jpg,left,851.5450000413693,true,high,false
t7sqs6ga,32204agabep2jqz0kncwzihmy16hgu,33f859i56aq8ftpjv3pknrmg7u1bhk,t7sqs6ga,2020-0188,2020-06-16,16:54:45,17:13:13,NA,incomplete,60,shape,0,1,right,Red_Plus_Stripes_1.jpg,Purple_Star_Grid_1.jpg,Blue_Plus_Chess_4.jpg,left,831.2800000421703,false,high,false
t7sqs6ga,32204agabep2jqz0kncwzihmy16hgu,33f859i56aq8ftpjv3pknrmg7u1bhk,t7sqs6ga,2020-0188,2020-06-16,16:54:45,17:13:13,NA,incomplete,61,shape,0,1,left,Red_Triangle_Dots_4.jpg,Blue_Triangle_Grid_3.jpg,Green_Circle_Stripes_4.jpg,right,952.6549999718554,false,high,false
t7sqs6ga,32204agabep2jqz0kncwzihmy16hgu,33f859i56aq8ftpjv3pknrmg7u1bhk,t7sqs6ga,2020-0188,2020-06-16,16:54:45,17:13:13,NA,incomplete,62,shape,0,0,right,Red_Star_Grid_2.jpg,Blue_Circle_Dots_2.jpg,Green_Star_Chess_3.jpg,right,1075.4000000306405,true,high,false
t7sqs6ga,32204agabep2jqz0kncwzihmy16hgu,33f859i56aq8ftpjv3pknrmg7u1bhk,t7sqs6ga,2020-0188,2020-06-16,16:54:45,17:13:13,NA,incomplete,63,shape,0,1,right,Green_Plus_Dots_3.jpg,Red_Triangle_Stripes_3.jpg,Purple_Plus_Grid_1.jpg,right,1105.6100000278093,true,high,false
t7sqs6ga,32204agabep2jqz0kncwzihmy16hgu,33f859i56aq8ftpjv3pknrmg7u1bhk,t7sqs6ga,2020-0188,2020-06-16,16:54:45,17:13:13,NA,incomplete,64,shape,0,1,left,Purple_Circle_Chess_2.jpg,Red_Circle_Stripes_4.jpg,Green_Plus_Dots_2.jpg,right,952.9650000040419,false,high,false
t7sqs6ga,32204agabep2jqz0kncwzihmy16hgu,33f859i56aq8ftpjv3pknrmg7u1bhk,t7sqs6ga,2020-0188,2020-06-16,16:54:45,17:13:13,NA,incomplete,65,shape,0,1,right,Red_Plus_Stripes_3.jpg,Green_Triangle_Dots_3.jpg,Purple_Plus_Grid_4.jpg,right,680.0299999886192,true,high,false
t7sqs6ga,32204agabep2jqz0kncwzihmy16hgu,33f859i56aq8ftpjv3pknrmg7u1bhk,t7sqs6ga,2020-0188,2020-06-16,16:54:45,17:13:13,NA,incomplete,66,shape,0,1,left,Red_Star_Stripes_4.jpg,Blue_Star_Chess_1.jpg,Green_Triangle_Dots_4.jpg,left,737.1149999671616,true,high,false
t7sqs6ga,32204agabep2jqz0kncwzihmy16hgu,33f859i56aq8ftpjv3pknrmg7u1bhk,t7sqs6ga,2020-0188,2020-06-16,16:54:45,17:13:13,NA,incomplete,67,shape,0,1,left,Purple_Triangle_Stripes_1.jpg,Red_Triangle_Dots_2.jpg,Blue_Circle_Grid_1.jpg,left,739.2850000178441,true,high,false
t7sqs6ga,32204agabep2jqz0kncwzihmy16hgu,33f859i56aq8ftpjv3pknrmg7u1bhk,t7sqs6ga,2020-0188,2020-06-16,16:54:45,17:13:13,NA,incomplete,68,shape,0,1,right,Purple_Circle_Dots_2.jpg,Green_Plus_Chess_2.jpg,Red_Circle_Stripes_4.jpg,right,580.56500001112,true,high,false
t7sqs6ga,32204agabep2jqz0kncwzihmy16hgu,33f859i56aq8ftpjv3pknrmg7u1bhk,t7sqs6ga,2020-0188,2020-06-16,16:54:45,17:13:13,NA,incomplete,69,shape,0,1,right,Red_Triangle_Chess_3.jpg,Purple_Plus_Dots_3.jpg,Green_Triangle_Grid_4.jpg,right,672.32499999227,true,high,false
t7sqs6ga,32204agabep2jqz0kncwzihmy16hgu,33f859i56aq8ftpjv3pknrmg7u1bhk,t7sqs6ga,2020-0188,2020-06-16,16:54:45,17:13:13,NA,incomplete,70,number,1,1,right,Red_Plus_Chess_1.jpg,Green_Plus_Grid_2.jpg,Blue_Triangle_Stripes_1.jpg,left,745.4000000143424,false,high,false
t7sqs6ga,32204agabep2jqz0kncwzihmy16hgu,33f859i56aq8ftpjv3pknrmg7u1bhk,t7sqs6ga,2020-0188,2020-06-16,16:54:45,17:13:13,NA,incomplete,71,number,1,1,right,Red_Star_Stripes_1.jpg,Green_Star_Dots_3.jpg,Blue_Plus_Grid_1.jpg,left,1053.6100000026636,false,high,false
t7sqs6ga,32204agabep2jqz0kncwzihmy16hgu,33f859i56aq8ftpjv3pknrmg7u1bhk,t7sqs6ga,2020-0188,2020-06-16,16:54:45,17:13:13,NA,incomplete,72,number,1,1,right,Blue_Star_Chess_2.jpg,Red_Star_Dots_4.jpg,Green_Triangle_Stripes_2.jpg,right,945.3000000212342,true,high,false
t7sqs6ga,32204agabep2jqz0kncwzihmy16hgu,33f859i56aq8ftpjv3pknrmg7u1bhk,t7sqs6ga,2020-0188,2020-06-16,16:54:45,17:13:13,NA,incomplete,73,number,1,0,left,Red_Plus_Stripes_1.jpg,Purple_Star_Chess_1.jpg,Blue_Plus_Dots_4.jpg,left,1058.9599999948405,true,high,false
t7sqs6ga,32204agabep2jqz0kncwzihmy16hgu,33f859i56aq8ftpjv3pknrmg7u1bhk,t7sqs6ga,2020-0188,2020-06-16,16:54:45,17:13:13,NA,incomplete,74,number,1,0,right,Green_Plus_Chess_1.jpg,Red_Plus_Stripes_4.jpg,Purple_Star_Dots_1.jpg,right,663.0700000096112,true,high,false
t7sqs6ga,32204agabep2jqz0kncwzihmy16hgu,33f859i56aq8ftpjv3pknrmg7u1bhk,t7sqs6ga,2020-0188,2020-06-16,16:54:45,17:13:13,NA,incomplete,75,number,1,1,left,Purple_Star_Stripes_3.jpg,Green_Circle_Dots_3.jpg,Red_Star_Grid_2.jpg,left,737.4399999971502,true,high,false
t7sqs6ga,32204agabep2jqz0kncwzihmy16hgu,33f859i56aq8ftpjv3pknrmg7u1bhk,t7sqs6ga,2020-0188,2020-06-16,16:54:45,17:13:13,NA,incomplete,76,number,1,1,right,Red_Plus_Chess_1.jpg,Purple_Plus_Stripes_3.jpg,Green_Star_Grid_1.jpg,right,791.8400000198744,true,high,false
t7sqs6ga,32204agabep2jqz0kncwzihmy16hgu,33f859i56aq8ftpjv3pknrmg7u1bhk,t7sqs6ga,2020-0188,2020-06-16,16:54:45,17:13:13,NA,incomplete,77,number,1,1,left,Blue_Plus_Stripes_4.jpg,Red_Circle_Chess_4.jpg,Green_Plus_Grid_1.jpg,left,591.7250000056811,true,high,false
t7sqs6ga,32204agabep2jqz0kncwzihmy16hgu,33f859i56aq8ftpjv3pknrmg7u1bhk,t7sqs6ga,2020-0188,2020-06-16,16:54:45,17:13:13,NA,incomplete,78,number,1,1,right,Red_Star_Stripes_2.jpg,Green_Star_Dots_1.jpg,Purple_Circle_Grid_2.jpg,right,811.1600000411272,true,high,false
t7sqs6ga,32204agabep2jqz0kncwzihmy16hgu,33f859i56aq8ftpjv3pknrmg7u1bhk,t7sqs6ga,2020-0188,2020-06-16,16:54:45,17:13:13,NA,incomplete,79,number,1,1,left,Green_Circle_Chess_4.jpg,Purple_Plus_Stripes_4.jpg,Blue_Circle_Dots_1.jpg,left,621.5300000039861,true,high,false
t7sqs6ga,32204agabep2jqz0kncwzihmy16hgu,33f859i56aq8ftpjv3pknrmg7u1bhk,t7sqs6ga,2020-0188,2020-06-16,16:54:45,17:13:13,NA,incomplete,80,shape,0,1,left,Blue_Triangle_Grid_4.jpg,Green_Triangle_Dots_2.jpg,Red_Circle_Stripes_4.jpg,right,591.3399999844842,false,high,false
t7sqs6ga,32204agabep2jqz0kncwzihmy16hgu,33f859i56aq8ftpjv3pknrmg7u1bhk,t7sqs6ga,2020-0188,2020-06-16,16:54:45,17:13:13,NA,incomplete,81,shape,0,1,left,Purple_Triangle_Chess_4.jpg,Red_Triangle_Dots_2.jpg,Green_Plus_Stripes_4.jpg,right,1217.5699999788776,false,high,false
t7sqs6ga,32204agabep2jqz0kncwzihmy16hgu,33f859i56aq8ftpjv3pknrmg7u1bhk,t7sqs6ga,2020-0188,2020-06-16,16:54:45,17:13:13,NA,incomplete,82,shape,0,1,left,Purple_Star_Chess_2.jpg,Blue_Star_Grid_4.jpg,Green_Plus_Stripes_2.jpg,right,1022.0400000107475,false,high,false
t7sqs6ga,32204agabep2jqz0kncwzihmy16hgu,33f859i56aq8ftpjv3pknrmg7u1bhk,t7sqs6ga,2020-0188,2020-06-16,16:54:45,17:13:13,NA,incomplete,83,shape,0,1,left,Purple_Star_Dots_4.jpg,Green_Star_Stripes_3.jpg,Blue_Plus_Grid_4.jpg,left,1228.6600000225008,true,high,false
t7sqs6ga,32204agabep2jqz0kncwzihmy16hgu,33f859i56aq8ftpjv3pknrmg7u1bhk,t7sqs6ga,2020-0188,2020-06-16,16:54:45,17:13:13,NA,incomplete,84,shape,0,1,left,Purple_Plus_Dots_3.jpg,Green_Plus_Grid_2.jpg,Blue_Star_Stripes_3.jpg,right,908.9549999916926,false,high,false
t7sqs6ga,32204agabep2jqz0kncwzihmy16hgu,33f859i56aq8ftpjv3pknrmg7u1bhk,t7sqs6ga,2020-0188,2020-06-16,16:54:45,17:13:13,NA,incomplete,85,shape,0,0,right,Green_Triangle_Grid_2.jpg,Blue_Plus_Stripes_2.jpg,Purple_Triangle_Chess_1.jpg,right,949.5650000171736,true,high,false
t7sqs6ga,32204agabep2jqz0kncwzihmy16hgu,33f859i56aq8ftpjv3pknrmg7u1bhk,t7sqs6ga,2020-0188,2020-06-16,16:54:45,17:13:13,NA,incomplete,86,shape,0,1,left,Green_Circle_Stripes_3.jpg,Purple_Circle_Chess_1.jpg,Red_Plus_Grid_3.jpg,right,708.4150000009686,false,high,false
t7sqs6ga,32204agabep2jqz0kncwzihmy16hgu,33f859i56aq8ftpjv3pknrmg7u1bhk,t7sqs6ga,2020-0188,2020-06-16,16:54:45,17:13:13,NA,incomplete,87,shape,0,1,right,Red_Triangle_Chess_1.jpg,Blue_Star_Grid_1.jpg,Green_Triangle_Dots_4.jpg,left,805.930000031367,false,high,false
t7sqs6ga,32204agabep2jqz0kncwzihmy16hgu,33f859i56aq8ftpjv3pknrmg7u1bhk,t7sqs6ga,2020-0188,2020-06-16,16:54:45,17:13:13,NA,incomplete,88,shape,0,0,left,Purple_Triangle_Chess_1.jpg,Red_Triangle_Dots_3.jpg,Green_Plus_Grid_1.jpg,left,1345.5550000071526,true,high,false
t7sqs6ga,32204agabep2jqz0kncwzihmy16hgu,33f859i56aq8ftpjv3pknrmg7u1bhk,t7sqs6ga,2020-0188,2020-06-16,16:54:45,17:13:13,NA,incomplete,89,shape,0,1,right,Purple_Triangle_Stripes_2.jpg,Blue_Plus_Grid_2.jpg,Green_Triangle_Dots_1.jpg,right,669.6949999895878,true,high,false
t7sqs6ga,32204agabep2jqz0kncwzihmy16hgu,33f859i56aq8ftpjv3pknrmg7u1bhk,t7sqs6ga,2020-0188,2020-06-16,16:54:45,17:13:13,NA,incomplete,90,number,1,1,right,Red_Plus_Grid_1.jpg,Purple_Plus_Dots_2.jpg,Green_Star_Stripes_1.jpg,left,1210.0199999986216,false,high,false
t7sqs6ga,32204agabep2jqz0kncwzihmy16hgu,33f859i56aq8ftpjv3pknrmg7u1bhk,t7sqs6ga,2020-0188,2020-06-16,16:54:45,17:13:13,NA,incomplete,91,number,1,1,left,Red_Star_Stripes_1.jpg,Green_Triangle_Grid_1.jpg,Purple_Star_Chess_3.jpg,right,691.5750000043772,false,high,false
t7sqs6ga,32204agabep2jqz0kncwzihmy16hgu,33f859i56aq8ftpjv3pknrmg7u1bhk,t7sqs6ga,2020-0188,2020-06-16,16:54:45,17:13:13,NA,incomplete,92,number,1,0,left,Red_Star_Chess_3.jpg,Purple_Triangle_Grid_3.jpg,Blue_Star_Stripes_4.jpg,right,1074.8899999889545,false,high,false
t7sqs6ga,32204agabep2jqz0kncwzihmy16hgu,33f859i56aq8ftpjv3pknrmg7u1bhk,t7sqs6ga,2020-0188,2020-06-16,16:54:45,17:13:13,NA,incomplete,93,number,1,1,left,Red_Triangle_Dots_1.jpg,Blue_Circle_Stripes_1.jpg,Purple_Triangle_Chess_2.jpg,right,711.4749999600463,false,high,false
t7sqs6ga,32204agabep2jqz0kncwzihmy16hgu,33f859i56aq8ftpjv3pknrmg7u1bhk,t7sqs6ga,2020-0188,2020-06-16,16:54:45,17:13:13,NA,incomplete,94,number,1,0,left,Purple_Star_Stripes_2.jpg,Blue_Circle_Grid_2.jpg,Green_Star_Chess_4.jpg,left,890.8999999985099,true,high,false
t7sqs6ga,32204agabep2jqz0kncwzihmy16hgu,33f859i56aq8ftpjv3pknrmg7u1bhk,t7sqs6ga,2020-0188,2020-06-16,16:54:45,17:13:13,NA,incomplete,95,number,1,1,left,Red_Star_Stripes_3.jpg,Green_Plus_Grid_3.jpg,Blue_Star_Chess_2.jpg,left,815.424999978859,true,high,false
t7sqs6ga,32204agabep2jqz0kncwzihmy16hgu,33f859i56aq8ftpjv3pknrmg7u1bhk,t7sqs6ga,2020-0188,2020-06-16,16:54:45,17:13:13,NA,incomplete,96,number,1,1,right,Blue_Star_Dots_1.jpg,Red_Star_Grid_2.jpg,Green_Circle_Stripes_1.jpg,right,1060.8849999844097,true,high,false
t7sqs6ga,32204agabep2jqz0kncwzihmy16hgu,33f859i56aq8ftpjv3pknrmg7u1bhk,t7sqs6ga,2020-0188,2020-06-16,16:54:45,17:13:13,NA,incomplete,97,number,1,0,right,Purple_Circle_Grid_2.jpg,Blue_Circle_Chess_3.jpg,Red_Plus_Dots_2.jpg,right,752.5150000001304,true,high,false
t7sqs6ga,32204agabep2jqz0kncwzihmy16hgu,33f859i56aq8ftpjv3pknrmg7u1bhk,t7sqs6ga,2020-0188,2020-06-16,16:54:45,17:13:13,NA,incomplete,98,number,1,1,left,Green_Circle_Chess_2.jpg,Purple_Triangle_Dots_2.jpg,Red_Circle_Stripes_4.jpg,left,697.8450000169687,true,high,false
t7sqs6ga,32204agabep2jqz0kncwzihmy16hgu,33f859i56aq8ftpjv3pknrmg7u1bhk,t7sqs6ga,2020-0188,2020-06-16,16:54:45,17:13:13,NA,incomplete,99,number,1,0,right,Green_Circle_Dots_2.jpg,Purple_Circle_Grid_1.jpg,Red_Star_Chess_2.jpg,right,598.2949999743141,true,high,false
t7sqs6ga,32204agabep2jqz0kncwzihmy16hgu,33f859i56aq8ftpjv3pknrmg7u1bhk,t7sqs6ga,2020-0188,2020-06-16,16:54:45,17:13:13,NA,incomplete,100,shape,0,0,right,Green_Triangle_Grid_1.jpg,Red_Star_Chess_1.jpg,Blue_Triangle_Dots_3.jpg,left,569.2949999938719,false,high,false
t7sqs6ga,32204agabep2jqz0kncwzihmy16hgu,33f859i56aq8ftpjv3pknrmg7u1bhk,t7sqs6ga,2020-0188,2020-06-16,16:54:45,17:13:13,NA,incomplete,101,shape,0,1,right,Purple_Plus_Grid_4.jpg,Blue_Circle_Stripes_4.jpg,Red_Plus_Chess_3.jpg,right,1120.009999955073,true,high,false
t7sqs6ga,32204agabep2jqz0kncwzihmy16hgu,33f859i56aq8ftpjv3pknrmg7u1bhk,t7sqs6ga,2020-0188,2020-06-16,16:54:45,17:13:13,NA,incomplete,102,shape,0,1,right,Green_Circle_Chess_4.jpg,Purple_Plus_Dots_4.jpg,Red_Circle_Stripes_1.jpg,left,702.2850000066683,false,high,false
t7sqs6ga,32204agabep2jqz0kncwzihmy16hgu,33f859i56aq8ftpjv3pknrmg7u1bhk,t7sqs6ga,2020-0188,2020-06-16,16:54:45,17:13:13,NA,incomplete,103,shape,0,0,right,Purple_Circle_Dots_4.jpg,Green_Star_Grid_4.jpg,Blue_Circle_Stripes_1.jpg,right,805.1100000157021,true,high,false
t7sqs6ga,32204agabep2jqz0kncwzihmy16hgu,33f859i56aq8ftpjv3pknrmg7u1bhk,t7sqs6ga,2020-0188,2020-06-16,16:54:45,17:13:13,NA,incomplete,104,shape,0,1,right,Blue_Circle_Dots_4.jpg,Green_Triangle_Grid_4.jpg,Purple_Circle_Stripes_1.jpg,right,687.8199999919161,true,high,false
t7sqs6ga,32204agabep2jqz0kncwzihmy16hgu,33f859i56aq8ftpjv3pknrmg7u1bhk,t7sqs6ga,2020-0188,2020-06-16,16:54:45,17:13:13,NA,incomplete,105,shape,0,1,left,Green_Circle_Chess_4.jpg,Red_Circle_Stripes_3.jpg,Purple_Plus_Dots_4.jpg,left,647.4099999759346,true,high,false
t7sqs6ga,32204agabep2jqz0kncwzihmy16hgu,33f859i56aq8ftpjv3pknrmg7u1bhk,t7sqs6ga,2020-0188,2020-06-16,16:54:45,17:13:13,NA,incomplete,106,shape,0,1,left,Red_Plus_Grid_4.jpg,Green_Plus_Stripes_1.jpg,Purple_Triangle_Dots_4.jpg,left,794.3399999639951,true,high,false
t7sqs6ga,32204agabep2jqz0kncwzihmy16hgu,33f859i56aq8ftpjv3pknrmg7u1bhk,t7sqs6ga,2020-0188,2020-06-16,16:54:45,17:13:13,NA,incomplete,107,shape,0,0,left,Green_Circle_Dots_3.jpg,Red_Circle_Chess_1.jpg,Blue_Triangle_Stripes_3.jpg,left,765.8149999915622,true,high,false
t7sqs6ga,32204agabep2jqz0kncwzihmy16hgu,33f859i56aq8ftpjv3pknrmg7u1bhk,t7sqs6ga,2020-0188,2020-06-16,16:54:45,17:13:13,NA,incomplete,108,shape,0,0,left,Purple_Star_Grid_3.jpg,Green_Star_Stripes_1.jpg,Blue_Circle_Dots_3.jpg,left,798.7000000430271,true,high,false
t7sqs6ga,32204agabep2jqz0kncwzihmy16hgu,33f859i56aq8ftpjv3pknrmg7u1bhk,t7sqs6ga,2020-0188,2020-06-16,16:54:45,17:13:13,NA,incomplete,109,shape,0,1,left,Red_Star_Dots_4.jpg,Green_Star_Stripes_1.jpg,Blue_Triangle_Chess_4.jpg,left,820.9950000164099,true,high,false
t7sqs6ga,32204agabep2jqz0kncwzihmy16hgu,33f859i56aq8ftpjv3pknrmg7u1bhk,t7sqs6ga,2020-0188,2020-06-16,16:54:45,17:13:13,NA,incomplete,110,number,1,1,right,Purple_Circle_Grid_3.jpg,Red_Circle_Dots_4.jpg,Green_Star_Stripes_3.jpg,left,716.2349999998696,false,high,false
t7sqs6ga,32204agabep2jqz0kncwzihmy16hgu,33f859i56aq8ftpjv3pknrmg7u1bhk,t7sqs6ga,2020-0188,2020-06-16,16:54:45,17:13:13,NA,incomplete,111,number,1,1,right,Green_Circle_Grid_2.jpg,Blue_Circle_Dots_3.jpg,Purple_Plus_Chess_2.jpg,left,830.1450000144541,false,high,false
t7sqs6ga,32204agabep2jqz0kncwzihmy16hgu,33f859i56aq8ftpjv3pknrmg7u1bhk,t7sqs6ga,2020-0188,2020-06-16,16:54:45,17:13:13,NA,incomplete,112,number,1,1,right,Green_Star_Stripes_3.jpg,Red_Star_Dots_2.jpg,Purple_Circle_Grid_3.jpg,right,725.109999999404,true,high,false
t7sqs6ga,32204agabep2jqz0kncwzihmy16hgu,33f859i56aq8ftpjv3pknrmg7u1bhk,t7sqs6ga,2020-0188,2020-06-16,16:54:45,17:13:13,NA,incomplete,113,number,1,1,left,Blue_Plus_Chess_4.jpg,Green_Star_Dots_4.jpg,Purple_Plus_Grid_1.jpg,left,643.5099999653175,true,high,false
t7sqs6ga,32204agabep2jqz0kncwzihmy16hgu,33f859i56aq8ftpjv3pknrmg7u1bhk,t7sqs6ga,2020-0188,2020-06-16,16:54:45,17:13:13,NA,incomplete,114,number,1,0,right,Blue_Star_Stripes_4.jpg,Purple_Star_Grid_2.jpg,Red_Circle_Dots_4.jpg,right,646.6750000254251,true,high,false
t7sqs6ga,32204agabep2jqz0kncwzihmy16hgu,33f859i56aq8ftpjv3pknrmg7u1bhk,t7sqs6ga,2020-0188,2020-06-16,16:54:45,17:13:13,NA,incomplete,115,number,1,1,right,Green_Star_Grid_1.jpg,Purple_Star_Chess_3.jpg,Blue_Circle_Stripes_1.jpg,right,843.9899999648333,true,high,false
t7sqs6ga,32204agabep2jqz0kncwzihmy16hgu,33f859i56aq8ftpjv3pknrmg7u1bhk,t7sqs6ga,2020-0188,2020-06-16,16:54:45,17:13:13,NA,incomplete,116,number,1,1,right,Green_Star_Stripes_1.jpg,Blue_Star_Chess_2.jpg,Purple_Plus_Grid_1.jpg,right,784.9899999564514,true,high,false
t7sqs6ga,32204agabep2jqz0kncwzihmy16hgu,33f859i56aq8ftpjv3pknrmg7u1bhk,t7sqs6ga,2020-0188,2020-06-16,16:54:45,17:13:13,NA,incomplete,117,number,1,1,right,Green_Triangle_Chess_2.jpg,Blue_Triangle_Grid_4.jpg,Red_Circle_Stripes_2.jpg,right,823.3999999938533,true,high,false
t7sqs6ga,32204agabep2jqz0kncwzihmy16hgu,33f859i56aq8ftpjv3pknrmg7u1bhk,t7sqs6ga,2020-0188,2020-06-16,16:54:45,17:13:13,NA,incomplete,118,number,1,1,right,Blue_Star_Grid_2.jpg,Red_Star_Dots_3.jpg,Green_Circle_Chess_2.jpg,right,707.0200000307523,true,high,false
t7sqs6ga,32204agabep2jqz0kncwzihmy16hgu,33f859i56aq8ftpjv3pknrmg7u1bhk,t7sqs6ga,2020-0188,2020-06-16,16:54:45,17:13:13,NA,incomplete,119,number,1,1,left,Blue_Star_Stripes_3.jpg,Green_Plus_Dots_3.jpg,Purple_Star_Chess_1.jpg,left,598.935000016354,true,high,false
t7sqs6ga,32204agabep2jqz0kncwzihmy16hgu,33f859i56aq8ftpjv3pknrmg7u1bhk,t7sqs6ga,2020-0188,2020-06-16,16:54:45,17:13:13,NA,incomplete,120,gender,2,1,left,A_M_06.jpg,C_M_03.jpg,A_F_12.jpg,NA,NA,NA,high,false
t7sqs6ga,32204agabep2jqz0kncwzihmy16hgu,33f859i56aq8ftpjv3pknrmg7u1bhk,t7sqs6ga,2020-0188,2020-06-16,16:54:45,17:13:13,NA,incomplete,121,gender,2,0,right,C_F_14.jpg,C_M_05.jpg,A_F_12.jpg,left,1150.8100000210106,false,high,false
t7sqs6ga,32204agabep2jqz0kncwzihmy16hgu,33f859i56aq8ftpjv3pknrmg7u1bhk,t7sqs6ga,2020-0188,2020-06-16,16:54:45,17:13:13,NA,incomplete,122,gender,2,1,right,A_M_07.jpg,A_F_16.jpg,C_M_13.jpg,right,950.974999985192,true,high,false
t7sqs6ga,32204agabep2jqz0kncwzihmy16hgu,33f859i56aq8ftpjv3pknrmg7u1bhk,t7sqs6ga,2020-0188,2020-06-16,16:54:45,17:13:13,NA,incomplete,123,gender,2,0,left,A_M_11.jpg,C_M_12.jpg,A_F_05.jpg,left,733.1649999832734,true,high,false
t7sqs6ga,32204agabep2jqz0kncwzihmy16hgu,33f859i56aq8ftpjv3pknrmg7u1bhk,t7sqs6ga,2020-0188,2020-06-16,16:54:45,17:13:13,NA,incomplete,124,gender,2,1,left,A_M_05.jpg,C_M_12.jpg,A_F_15.jpg,left,782.9350000247359,true,high,false
t7sqs6ga,32204agabep2jqz0kncwzihmy16hgu,33f859i56aq8ftpjv3pknrmg7u1bhk,t7sqs6ga,2020-0188,2020-06-16,16:54:45,17:13:13,NA,incomplete,125,gender,2,1,left,A_F_05.jpg,C_F_03.jpg,A_M_10.jpg,left,1045.6049999920651,true,high,false
t7sqs6ga,32204agabep2jqz0kncwzihmy16hgu,33f859i56aq8ftpjv3pknrmg7u1bhk,t7sqs6ga,2020-0188,2020-06-16,16:54:45,17:13:13,NA,incomplete,126,gender,2,1,left,C_M_03.jpg,A_M_15.jpg,C_F_06.jpg,left,816.8900000164285,true,high,false
t7sqs6ga,32204agabep2jqz0kncwzihmy16hgu,33f859i56aq8ftpjv3pknrmg7u1bhk,t7sqs6ga,2020-0188,2020-06-16,16:54:45,17:13:13,NA,incomplete,127,gender,2,1,left,C_M_09.jpg,A_M_14.jpg,C_F_13.jpg,left,801.4400000101887,true,high,false
t7sqs6ga,32204agabep2jqz0kncwzihmy16hgu,33f859i56aq8ftpjv3pknrmg7u1bhk,t7sqs6ga,2020-0188,2020-06-16,16:54:45,17:13:13,NA,incomplete,128,gender,2,1,right,C_F_03.jpg,C_M_15.jpg,A_F_09.jpg,right,883.5350000299513,true,high,false
t7sqs6ga,32204agabep2jqz0kncwzihmy16hgu,33f859i56aq8ftpjv3pknrmg7u1bhk,t7sqs6ga,2020-0188,2020-06-16,16:54:45,17:13:13,NA,incomplete,129,gender,2,1,right,A_M_11.jpg,A_F_07.jpg,C_M_01.jpg,right,799.349999986589,true,high,false
t7sqs6ga,32204agabep2jqz0kncwzihmy16hgu,33f859i56aq8ftpjv3pknrmg7u1bhk,t7sqs6ga,2020-0188,2020-06-16,16:54:45,17:13:13,NA,incomplete,130,gender,2,1,right,C_F_11.jpg,C_M_15.jpg,A_F_03.jpg,right,784.9649999989197,true,high,false
t7sqs6ga,32204agabep2jqz0kncwzihmy16hgu,33f859i56aq8ftpjv3pknrmg7u1bhk,t7sqs6ga,2020-0188,2020-06-16,16:54:45,17:13:13,NA,incomplete,131,gender,2,1,right,C_F_15.jpg,C_M_14.jpg,A_F_07.jpg,right,931.1800000141375,true,high,false
t7sqs6ga,32204agabep2jqz0kncwzihmy16hgu,33f859i56aq8ftpjv3pknrmg7u1bhk,t7sqs6ga,2020-0188,2020-06-16,16:54:45,17:13:13,NA,incomplete,132,gender,2,1,left,C_M_14.jpg,A_M_01.jpg,C_F_16.jpg,left,948.8600000040606,true,high,false
t7sqs6ga,32204agabep2jqz0kncwzihmy16hgu,33f859i56aq8ftpjv3pknrmg7u1bhk,t7sqs6ga,2020-0188,2020-06-16,16:54:45,17:13:13,NA,incomplete,133,gender,2,1,left,C_M_16.jpg,A_M_14.jpg,C_F_06.jpg,left,702.469999960158,true,high,false
t7sqs6ga,32204agabep2jqz0kncwzihmy16hgu,33f859i56aq8ftpjv3pknrmg7u1bhk,t7sqs6ga,2020-0188,2020-06-16,16:54:45,17:13:13,NA,incomplete,134,gender,2,0,left,C_F_11.jpg,A_F_05.jpg,C_M_09.jpg,left,950.0199999893084,true,high,false
t7sqs6ga,32204agabep2jqz0kncwzihmy16hgu,33f859i56aq8ftpjv3pknrmg7u1bhk,t7sqs6ga,2020-0188,2020-06-16,16:54:45,17:13:13,NA,incomplete,135,gender,2,1,right,A_F_10.jpg,A_M_01.jpg,C_F_03.jpg,right,859.3399999663234,true,high,false
t7sqs6ga,32204agabep2jqz0kncwzihmy16hgu,33f859i56aq8ftpjv3pknrmg7u1bhk,t7sqs6ga,2020-0188,2020-06-16,16:54:45,17:13:13,NA,incomplete,136,gender,2,1,right,A_F_08.jpg,A_M_12.jpg,C_F_14.jpg,right,830.1199999987148,true,high,false
t7sqs6ga,32204agabep2jqz0kncwzihmy16hgu,33f859i56aq8ftpjv3pknrmg7u1bhk,t7sqs6ga,2020-0188,2020-06-16,16:54:45,17:13:13,NA,incomplete,137,gender,2,1,right,A_M_14.jpg,A_F_11.jpg,C_M_16.jpg,right,947.6099999737926,true,high,false
t7sqs6ga,32204agabep2jqz0kncwzihmy16hgu,33f859i56aq8ftpjv3pknrmg7u1bhk,t7sqs6ga,2020-0188,2020-06-16,16:54:45,17:13:13,NA,incomplete,138,gender,2,0,left,A_F_07.jpg,C_F_11.jpg,A_M_15.jpg,left,954.520000028424,true,high,false
t7sqs6ga,32204agabep2jqz0kncwzihmy16hgu,33f859i56aq8ftpjv3pknrmg7u1bhk,t7sqs6ga,2020-0188,2020-06-16,16:54:45,17:13:13,NA,incomplete,139,gender,2,1,left,C_F_11.jpg,A_F_14.jpg,C_M_01.jpg,left,898.3949999674223,true,high,false
t7sqs6ga,32204agabep2jqz0kncwzihmy16hgu,33f859i56aq8ftpjv3pknrmg7u1bhk,t7sqs6ga,2020-0188,2020-06-16,16:54:45,17:13:13,NA,incomplete,140,race,3,1,right,A_F_04.jpg,C_F_16.jpg,A_M_03.jpg,left,905.2299999748357,false,high,false
t7sqs6ga,32204agabep2jqz0kncwzihmy16hgu,33f859i56aq8ftpjv3pknrmg7u1bhk,t7sqs6ga,2020-0188,2020-06-16,16:54:45,17:13:13,NA,incomplete,141,race,3,0,right,C_M_04.jpg,A_M_07.jpg,C_F_09.jpg,left,1156.8199999746867,false,high,false
t7sqs6ga,32204agabep2jqz0kncwzihmy16hgu,33f859i56aq8ftpjv3pknrmg7u1bhk,t7sqs6ga,2020-0188,2020-06-16,16:54:45,17:13:13,NA,incomplete,142,race,3,1,right,A_F_04.jpg,C_F_06.jpg,A_M_11.jpg,left,933.4099999978207,false,high,false
t7sqs6ga,32204agabep2jqz0kncwzihmy16hgu,33f859i56aq8ftpjv3pknrmg7u1bhk,t7sqs6ga,2020-0188,2020-06-16,16:54:45,17:13:13,NA,incomplete,143,race,3,1,left,A_M_16.jpg,A_F_14.jpg,C_M_10.jpg,right,1208.890000008978,false,high,false
t7sqs6ga,32204agabep2jqz0kncwzihmy16hgu,33f859i56aq8ftpjv3pknrmg7u1bhk,t7sqs6ga,2020-0188,2020-06-16,16:54:45,17:13:13,NA,incomplete,144,race,3,1,right,A_F_07.jpg,C_F_06.jpg,A_M_08.jpg,left,772.3700000206009,false,high,false
t7sqs6ga,32204agabep2jqz0kncwzihmy16hgu,33f859i56aq8ftpjv3pknrmg7u1bhk,t7sqs6ga,2020-0188,2020-06-16,16:54:45,17:13:13,NA,incomplete,145,race,3,1,left,C_M_14.jpg,C_F_07.jpg,A_M_03.jpg,left,979.8549999832176,true,high,false
t7sqs6ga,32204agabep2jqz0kncwzihmy16hgu,33f859i56aq8ftpjv3pknrmg7u1bhk,t7sqs6ga,2020-0188,2020-06-16,16:54:45,17:13:13,NA,incomplete,146,race,3,1,left,C_M_14.jpg,C_F_07.jpg,A_M_04.jpg,left,743.7149999896064,true,high,false
t7sqs6ga,32204agabep2jqz0kncwzihmy16hgu,33f859i56aq8ftpjv3pknrmg7u1bhk,t7sqs6ga,2020-0188,2020-06-16,16:54:45,17:13:13,NA,incomplete,147,race,3,1,left,A_F_12.jpg,A_M_08.jpg,C_F_14.jpg,left,747.1750000258908,true,high,false
t7sqs6ga,32204agabep2jqz0kncwzihmy16hgu,33f859i56aq8ftpjv3pknrmg7u1bhk,t7sqs6ga,2020-0188,2020-06-16,16:54:45,17:13:13,NA,incomplete,148,race,3,1,right,A_M_07.jpg,C_M_05.jpg,A_F_16.jpg,right,1067.1999999904074,true,high,false
t7sqs6ga,32204agabep2jqz0kncwzihmy16hgu,33f859i56aq8ftpjv3pknrmg7u1bhk,t7sqs6ga,2020-0188,2020-06-16,16:54:45,17:13:13,NA,incomplete,149,race,3,1,left,A_M_16.jpg,A_F_11.jpg,C_M_10.jpg,left,1304.2399999685585,true,high,false
t7sqs6ga,32204agabep2jqz0kncwzihmy16hgu,33f859i56aq8ftpjv3pknrmg7u1bhk,t7sqs6ga,2020-0188,2020-06-16,16:54:45,17:13:13,NA,incomplete,150,race,3,1,left,C_M_15.jpg,C_F_06.jpg,A_M_12.jpg,left,795.7249999744818,true,high,false
t7sqs6ga,32204agabep2jqz0kncwzihmy16hgu,33f859i56aq8ftpjv3pknrmg7u1bhk,t7sqs6ga,2020-0188,2020-06-16,16:54:45,17:13:13,NA,incomplete,151,race,3,1,right,C_M_01.jpg,A_M_14.jpg,C_F_06.jpg,left,1005.0549999577925,false,high,false
t7sqs6ga,32204agabep2jqz0kncwzihmy16hgu,33f859i56aq8ftpjv3pknrmg7u1bhk,t7sqs6ga,2020-0188,2020-06-16,16:54:45,17:13:13,NA,incomplete,152,race,3,1,left,C_M_13.jpg,C_F_04.jpg,A_M_06.jpg,left,878.6899999831803,true,high,false
t7sqs6ga,32204agabep2jqz0kncwzihmy16hgu,33f859i56aq8ftpjv3pknrmg7u1bhk,t7sqs6ga,2020-0188,2020-06-16,16:54:45,17:13:13,NA,incomplete,153,race,3,1,left,A_M_01.jpg,A_F_15.jpg,C_M_09.jpg,left,1034.155000001192,true,high,false
t7sqs6ga,32204agabep2jqz0kncwzihmy16hgu,33f859i56aq8ftpjv3pknrmg7u1bhk,t7sqs6ga,2020-0188,2020-06-16,16:54:45,17:13:13,NA,incomplete,154,race,3,1,right,A_F_09.jpg,C_F_08.jpg,A_M_16.jpg,right,1208.6250000284053,true,high,false
t7sqs6ga,32204agabep2jqz0kncwzihmy16hgu,33f859i56aq8ftpjv3pknrmg7u1bhk,t7sqs6ga,2020-0188,2020-06-16,16:54:45,17:13:13,NA,incomplete,155,race,3,1,left,C_M_15.jpg,C_F_10.jpg,A_M_08.jpg,left,897.7799999993294,true,high,false
t7sqs6ga,32204agabep2jqz0kncwzihmy16hgu,33f859i56aq8ftpjv3pknrmg7u1bhk,t7sqs6ga,2020-0188,2020-06-16,16:54:45,17:13:13,NA,incomplete,156,race,3,1,right,C_M_05.jpg,A_M_09.jpg,C_F_10.jpg,right,868.3200000086799,true,high,false
t7sqs6ga,32204agabep2jqz0kncwzihmy16hgu,33f859i56aq8ftpjv3pknrmg7u1bhk,t7sqs6ga,2020-0188,2020-06-16,16:54:45,17:13:13,NA,incomplete,157,race,3,1,left,A_M_04.jpg,A_F_03.jpg,C_M_12.jpg,left,816.3000000058673,true,high,false
t7sqs6ga,32204agabep2jqz0kncwzihmy16hgu,33f859i56aq8ftpjv3pknrmg7u1bhk,t7sqs6ga,2020-0188,2020-06-16,16:54:45,17:13:13,NA,incomplete,158,race,3,1,right,C_M_16.jpg,A_M_13.jpg,C_F_07.jpg,right,884.810000017751,true,high,false
t7sqs6ga,32204agabep2jqz0kncwzihmy16hgu,33f859i56aq8ftpjv3pknrmg7u1bhk,t7sqs6ga,2020-0188,2020-06-16,16:54:45,17:13:13,NA,incomplete,159,race,3,1,right,C_M_02.jpg,A_M_03.jpg,C_F_12.jpg,right,764.7049999795854,true,high,false
t7sqs6ga,32204agabep2jqz0kncwzihmy16hgu,33f859i56aq8ftpjv3pknrmg7u1bhk,t7sqs6ga,2020-0188,2020-06-16,16:54:45,17:13:13,NA,incomplete,160,gender,2,1,right,A_F_10.jpg,A_M_02.jpg,C_F_13.jpg,left,1049.3349999887869,false,high,false
t7sqs6ga,32204agabep2jqz0kncwzihmy16hgu,33f859i56aq8ftpjv3pknrmg7u1bhk,t7sqs6ga,2020-0188,2020-06-16,16:54:45,17:13:13,NA,incomplete,161,gender,2,1,left,A_F_12.jpg,C_F_03.jpg,A_M_05.jpg,right,1110.3100000182167,false,high,false
t7sqs6ga,32204agabep2jqz0kncwzihmy16hgu,33f859i56aq8ftpjv3pknrmg7u1bhk,t7sqs6ga,2020-0188,2020-06-16,16:54:45,17:13:13,NA,incomplete,162,gender,2,1,left,A_M_10.jpg,C_M_08.jpg,A_F_16.jpg,left,994.9400000041351,true,high,false
t7sqs6ga,32204agabep2jqz0kncwzihmy16hgu,33f859i56aq8ftpjv3pknrmg7u1bhk,t7sqs6ga,2020-0188,2020-06-16,16:54:45,17:13:13,NA,incomplete,163,gender,2,1,right,C_M_14.jpg,C_F_12.jpg,A_M_13.jpg,right,799.3300000089221,true,high,false
t7sqs6ga,32204agabep2jqz0kncwzihmy16hgu,33f859i56aq8ftpjv3pknrmg7u1bhk,t7sqs6ga,2020-0188,2020-06-16,16:54:45,17:13:13,NA,incomplete,164,gender,2,1,right,C_M_03.jpg,C_F_10.jpg,A_M_16.jpg,right,729.6300000161864,true,high,false
t7sqs6ga,32204agabep2jqz0kncwzihmy16hgu,33f859i56aq8ftpjv3pknrmg7u1bhk,t7sqs6ga,2020-0188,2020-06-16,16:54:45,17:13:13,NA,incomplete,165,gender,2,1,right,A_F_12.jpg,A_M_02.jpg,C_F_14.jpg,right,813.7950000236742,true,high,false
t7sqs6ga,32204agabep2jqz0kncwzihmy16hgu,33f859i56aq8ftpjv3pknrmg7u1bhk,t7sqs6ga,2020-0188,2020-06-16,16:54:45,17:13:13,NA,incomplete,166,gender,2,1,right,A_M_10.jpg,A_F_03.jpg,C_M_13.jpg,right,867.8199999849312,true,high,false
t7sqs6ga,32204agabep2jqz0kncwzihmy16hgu,33f859i56aq8ftpjv3pknrmg7u1bhk,t7sqs6ga,2020-0188,2020-06-16,16:54:45,17:13:13,NA,incomplete,167,gender,2,1,left,A_F_14.jpg,C_F_10.jpg,A_M_03.jpg,left,885.515000030864,true,high,false
t7sqs6ga,32204agabep2jqz0kncwzihmy16hgu,33f859i56aq8ftpjv3pknrmg7u1bhk,t7sqs6ga,2020-0188,2020-06-16,16:54:45,17:13:13,NA,incomplete,168,gender,2,1,right,A_M_16.jpg,A_F_02.jpg,C_M_12.jpg,left,1028.504999994766,false,high,false
t7sqs6ga,32204agabep2jqz0kncwzihmy16hgu,33f859i56aq8ftpjv3pknrmg7u1bhk,t7sqs6ga,2020-0188,2020-06-16,16:54:45,17:13:13,NA,incomplete,169,gender,2,1,right,C_F_12.jpg,C_M_04.jpg,A_F_14.jpg,right,1063.5450000409037,true,high,false
t7sqs6ga,32204agabep2jqz0kncwzihmy16hgu,33f859i56aq8ftpjv3pknrmg7u1bhk,t7sqs6ga,2020-0188,2020-06-16,16:54:45,17:13:13,NA,incomplete,170,gender,2,0,right,C_M_16.jpg,C_F_12.jpg,A_M_11.jpg,right,795.0399999972433,true,high,false
t7sqs6ga,32204agabep2jqz0kncwzihmy16hgu,33f859i56aq8ftpjv3pknrmg7u1bhk,t7sqs6ga,2020-0188,2020-06-16,16:54:45,17:13:13,NA,incomplete,171,gender,2,1,right,C_M_13.jpg,C_F_10.jpg,A_M_14.jpg,right,706.2399999704212,true,high,false
t7sqs6ga,32204agabep2jqz0kncwzihmy16hgu,33f859i56aq8ftpjv3pknrmg7u1bhk,t7sqs6ga,2020-0188,2020-06-16,16:54:45,17:13:13,NA,incomplete,172,gender,2,1,left,C_F_02.jpg,A_F_11.jpg,C_M_04.jpg,left,1043.8100000028498,true,high,false
t7sqs6ga,32204agabep2jqz0kncwzihmy16hgu,33f859i56aq8ftpjv3pknrmg7u1bhk,t7sqs6ga,2020-0188,2020-06-16,16:54:45,17:13:13,NA,incomplete,173,gender,2,1,right,A_F_09.jpg,A_M_14.jpg,C_F_08.jpg,right,1287.819999968633,true,high,false
t7sqs6ga,32204agabep2jqz0kncwzihmy16hgu,33f859i56aq8ftpjv3pknrmg7u1bhk,t7sqs6ga,2020-0188,2020-06-16,16:54:45,17:13:13,NA,incomplete,174,gender,2,1,right,A_F_11.jpg,A_M_14.jpg,C_F_01.jpg,right,668.3300000149757,true,high,false
t7sqs6ga,32204agabep2jqz0kncwzihmy16hgu,33f859i56aq8ftpjv3pknrmg7u1bhk,t7sqs6ga,2020-0188,2020-06-16,16:54:45,17:13:13,NA,incomplete,175,gender,2,1,right,C_M_11.jpg,C_F_06.jpg,A_M_04.jpg,left,800.0199999660254,false,high,false
t7sqs6ga,32204agabep2jqz0kncwzihmy16hgu,33f859i56aq8ftpjv3pknrmg7u1bhk,t7sqs6ga,2020-0188,2020-06-16,16:54:45,17:13:13,NA,incomplete,176,gender,2,0,right,A_M_12.jpg,A_F_10.jpg,C_M_14.jpg,right,1124.3849999736995,true,high,false
t7sqs6ga,32204agabep2jqz0kncwzihmy16hgu,33f859i56aq8ftpjv3pknrmg7u1bhk,t7sqs6ga,2020-0188,2020-06-16,16:54:45,17:13:13,NA,incomplete,177,gender,2,1,left,A_M_12.jpg,C_M_11.jpg,A_F_03.jpg,left,736.7100000265054,true,high,false
t7sqs6ga,32204agabep2jqz0kncwzihmy16hgu,33f859i56aq8ftpjv3pknrmg7u1bhk,t7sqs6ga,2020-0188,2020-06-16,16:54:45,17:13:13,NA,incomplete,178,gender,2,1,right,A_F_09.jpg,A_M_01.jpg,C_F_03.jpg,right,1282.5799999991432,true,high,false
t7sqs6ga,32204agabep2jqz0kncwzihmy16hgu,33f859i56aq8ftpjv3pknrmg7u1bhk,t7sqs6ga,2020-0188,2020-06-16,16:54:45,17:13:13,NA,incomplete,179,gender,2,1,left,C_F_06.jpg,A_F_03.jpg,C_M_13.jpg,left,659.2550000059418,true,high,false
t7sqs6ga,32204agabep2jqz0kncwzihmy16hgu,33f859i56aq8ftpjv3pknrmg7u1bhk,t7sqs6ga,2020-0188,2020-06-16,16:54:45,17:13:13,NA,incomplete,180,race,3,1,right,C_F_04.jpg,A_F_14.jpg,C_M_08.jpg,left,750.3799999831244,false,high,false
t7sqs6ga,32204agabep2jqz0kncwzihmy16hgu,33f859i56aq8ftpjv3pknrmg7u1bhk,t7sqs6ga,2020-0188,2020-06-16,16:54:45,17:13:13,NA,incomplete,181,race,3,1,right,A_M_08.jpg,C_M_16.jpg,A_F_09.jpg,left,878.1050000106916,false,high,false
t7sqs6ga,32204agabep2jqz0kncwzihmy16hgu,33f859i56aq8ftpjv3pknrmg7u1bhk,t7sqs6ga,2020-0188,2020-06-16,16:54:45,17:13:13,NA,incomplete,182,race,3,1,left,A_M_16.jpg,A_F_14.jpg,C_M_12.jpg,left,809.5350000075996,true,high,false
t7sqs6ga,32204agabep2jqz0kncwzihmy16hgu,33f859i56aq8ftpjv3pknrmg7u1bhk,t7sqs6ga,2020-0188,2020-06-16,16:54:45,17:13:13,NA,incomplete,183,race,3,1,left,A_M_04.jpg,A_F_05.jpg,C_M_16.jpg,left,635.8300000429153,true,high,false
t7sqs6ga,32204agabep2jqz0kncwzihmy16hgu,33f859i56aq8ftpjv3pknrmg7u1bhk,t7sqs6ga,2020-0188,2020-06-16,16:54:45,17:13:13,NA,incomplete,184,race,3,1,left,A_F_04.jpg,A_M_01.jpg,C_F_13.jpg,left,700.4799999995157,true,high,false
t7sqs6ga,32204agabep2jqz0kncwzihmy16hgu,33f859i56aq8ftpjv3pknrmg7u1bhk,t7sqs6ga,2020-0188,2020-06-16,16:54:45,17:13:13,NA,incomplete,185,race,3,1,left,C_M_01.jpg,C_F_05.jpg,A_M_10.jpg,left,755.9199999668635,true,high,false
t7sqs6ga,32204agabep2jqz0kncwzihmy16hgu,33f859i56aq8ftpjv3pknrmg7u1bhk,t7sqs6ga,2020-0188,2020-06-16,16:54:45,17:13:13,NA,incomplete,186,race,3,0,right,A_M_05.jpg,C_M_09.jpg,A_F_06.jpg,right,791.6950000217184,true,high,false
t7sqs6ga,32204agabep2jqz0kncwzihmy16hgu,33f859i56aq8ftpjv3pknrmg7u1bhk,t7sqs6ga,2020-0188,2020-06-16,16:54:45,17:13:13,NA,incomplete,187,race,3,1,left,A_F_04.jpg,A_M_09.jpg,C_F_01.jpg,left,774.37999995891,true,high,false
t7sqs6ga,32204agabep2jqz0kncwzihmy16hgu,33f859i56aq8ftpjv3pknrmg7u1bhk,t7sqs6ga,2020-0188,2020-06-16,16:54:45,17:13:13,NA,incomplete,188,race,3,1,left,A_F_08.jpg,A_M_13.jpg,C_F_03.jpg,left,672.6950000156648,true,high,false
t7sqs6ga,32204agabep2jqz0kncwzihmy16hgu,33f859i56aq8ftpjv3pknrmg7u1bhk,t7sqs6ga,2020-0188,2020-06-16,16:54:45,17:13:13,NA,incomplete,189,race,3,1,right,C_F_04.jpg,A_F_16.jpg,C_M_03.jpg,right,944.1000000224449,true,high,false
t7sqs6ga,32204agabep2jqz0kncwzihmy16hgu,33f859i56aq8ftpjv3pknrmg7u1bhk,t7sqs6ga,2020-0188,2020-06-16,16:54:45,17:13:13,NA,incomplete,190,race,3,1,right,C_F_15.jpg,A_F_01.jpg,C_M_08.jpg,right,759.8600000492297,true,high,false
t7sqs6ga,32204agabep2jqz0kncwzihmy16hgu,33f859i56aq8ftpjv3pknrmg7u1bhk,t7sqs6ga,2020-0188,2020-06-16,16:54:45,17:13:13,NA,incomplete,191,race,3,1,left,C_M_07.jpg,C_F_03.jpg,A_M_16.jpg,left,784.0699999942444,true,high,false
t7sqs6ga,32204agabep2jqz0kncwzihmy16hgu,33f859i56aq8ftpjv3pknrmg7u1bhk,t7sqs6ga,2020-0188,2020-06-16,16:54:45,17:13:13,NA,incomplete,192,race,3,0,left,A_M_01.jpg,A_F_04.jpg,C_M_14.jpg,left,1016.9800000148825,true,high,false
t7sqs6ga,32204agabep2jqz0kncwzihmy16hgu,33f859i56aq8ftpjv3pknrmg7u1bhk,t7sqs6ga,2020-0188,2020-06-16,16:54:45,17:13:13,NA,incomplete,193,race,3,1,left,A_M_05.jpg,A_F_10.jpg,C_M_02.jpg,left,805.7499999995343,true,high,false
t7sqs6ga,32204agabep2jqz0kncwzihmy16hgu,33f859i56aq8ftpjv3pknrmg7u1bhk,t7sqs6ga,2020-0188,2020-06-16,16:54:45,17:13:13,NA,incomplete,194,race,3,1,right,C_M_11.jpg,A_M_01.jpg,C_F_05.jpg,right,1008.0200000084005,true,high,false
t7sqs6ga,32204agabep2jqz0kncwzihmy16hgu,33f859i56aq8ftpjv3pknrmg7u1bhk,t7sqs6ga,2020-0188,2020-06-16,16:54:45,17:13:13,NA,incomplete,195,race,3,1,right,C_M_01.jpg,A_M_14.jpg,C_F_16.jpg,right,818.2500000111759,true,high,false
t7sqs6ga,32204agabep2jqz0kncwzihmy16hgu,33f859i56aq8ftpjv3pknrmg7u1bhk,t7sqs6ga,2020-0188,2020-06-16,16:54:45,17:13:13,NA,incomplete,196,race,3,1,left,C_F_14.jpg,C_M_11.jpg,A_F_13.jpg,left,842.2900000005029,true,high,false
t7sqs6ga,32204agabep2jqz0kncwzihmy16hgu,33f859i56aq8ftpjv3pknrmg7u1bhk,t7sqs6ga,2020-0188,2020-06-16,16:54:45,17:13:13,NA,incomplete,197,race,3,1,right,C_F_06.jpg,A_F_12.jpg,C_M_10.jpg,right,811.870000034105,true,high,false
t7sqs6ga,32204agabep2jqz0kncwzihmy16hgu,33f859i56aq8ftpjv3pknrmg7u1bhk,t7sqs6ga,2020-0188,2020-06-16,16:54:45,17:13:13,NA,incomplete,198,race,3,0,left,C_M_07.jpg,C_F_09.jpg,A_M_15.jpg,left,765.4650000040419,true,high,false
t7sqs6ga,32204agabep2jqz0kncwzihmy16hgu,33f859i56aq8ftpjv3pknrmg7u1bhk,t7sqs6ga,2020-0188,2020-06-16,16:54:45,17:13:13,NA,incomplete,199,race,3,1,left,C_M_13.jpg,C_F_08.jpg,A_M_06.jpg,left,795.9100000443868,true,high,false
t7sqs6ga,32204agabep2jqz0kncwzihmy16hgu,33f859i56aq8ftpjv3pknrmg7u1bhk,t7sqs6ga,2020-0188,2020-06-16,16:54:45,17:13:13,NA,incomplete,200,gender,2,0,left,C_F_12.jpg,A_F_04.jpg,C_M_13.jpg,right,817.7550000254996,false,high,false
t7sqs6ga,32204agabep2jqz0kncwzihmy16hgu,33f859i56aq8ftpjv3pknrmg7u1bhk,t7sqs6ga,2020-0188,2020-06-16,16:54:45,17:13:13,NA,incomplete,201,gender,2,1,right,C_F_08.jpg,C_M_04.jpg,A_F_15.jpg,left,679.7999999835156,false,high,false
t7sqs6ga,32204agabep2jqz0kncwzihmy16hgu,33f859i56aq8ftpjv3pknrmg7u1bhk,t7sqs6ga,2020-0188,2020-06-16,16:54:45,17:13:13,NA,incomplete,202,gender,2,1,right,A_M_12.jpg,A_F_11.jpg,C_M_02.jpg,left,877.9849999700673,false,high,false
t7sqs6ga,32204agabep2jqz0kncwzihmy16hgu,33f859i56aq8ftpjv3pknrmg7u1bhk,t7sqs6ga,2020-0188,2020-06-16,16:54:45,17:13:13,NA,incomplete,203,gender,2,0,left,A_F_15.jpg,C_F_10.jpg,A_M_16.jpg,left,785.9649999882095,true,high,false
t7sqs6ga,32204agabep2jqz0kncwzihmy16hgu,33f859i56aq8ftpjv3pknrmg7u1bhk,t7sqs6ga,2020-0188,2020-06-16,16:54:45,17:13:13,NA,incomplete,204,gender,2,1,left,A_M_12.jpg,C_M_07.jpg,A_F_09.jpg,left,939.0500000445172,true,high,false
t7sqs6ga,32204agabep2jqz0kncwzihmy16hgu,33f859i56aq8ftpjv3pknrmg7u1bhk,t7sqs6ga,2020-0188,2020-06-16,16:54:45,17:13:13,NA,incomplete,205,gender,2,0,left,A_F_02.jpg,C_F_06.jpg,A_M_09.jpg,left,1174.8449999722652,true,high,false
t7sqs6ga,32204agabep2jqz0kncwzihmy16hgu,33f859i56aq8ftpjv3pknrmg7u1bhk,t7sqs6ga,2020-0188,2020-06-16,16:54:45,17:13:13,NA,incomplete,206,gender,2,1,left,A_M_16.jpg,C_M_05.jpg,A_F_11.jpg,right,1192.0349999563769,false,high,false
t7sqs6ga,32204agabep2jqz0kncwzihmy16hgu,33f859i56aq8ftpjv3pknrmg7u1bhk,t7sqs6ga,2020-0188,2020-06-16,16:54:45,17:13:13,NA,incomplete,207,gender,2,1,left,A_M_10.jpg,C_M_02.jpg,A_F_06.jpg,left,909.0149999829009,true,high,false
t7sqs6ga,32204agabep2jqz0kncwzihmy16hgu,33f859i56aq8ftpjv3pknrmg7u1bhk,t7sqs6ga,2020-0188,2020-06-16,16:54:45,17:13:13,NA,incomplete,208,gender,2,1,right,C_F_08.jpg,C_M_04.jpg,A_F_12.jpg,right,1028.4000000101514,true,high,false
t7sqs6ga,32204agabep2jqz0kncwzihmy16hgu,33f859i56aq8ftpjv3pknrmg7u1bhk,t7sqs6ga,2020-0188,2020-06-16,16:54:45,17:13:13,NA,incomplete,209,gender,2,1,left,C_F_16.jpg,A_F_03.jpg,C_M_15.jpg,left,702.0299999858253,true,high,false
t7sqs6ga,32204agabep2jqz0kncwzihmy16hgu,33f859i56aq8ftpjv3pknrmg7u1bhk,t7sqs6ga,2020-0188,2020-06-16,16:54:45,17:13:13,NA,incomplete,210,gender,2,0,right,C_F_13.jpg,C_M_06.jpg,A_F_02.jpg,right,580.8250000118278,true,high,false
t7sqs6ga,32204agabep2jqz0kncwzihmy16hgu,33f859i56aq8ftpjv3pknrmg7u1bhk,t7sqs6ga,2020-0188,2020-06-16,16:54:45,17:13:13,NA,incomplete,211,gender,2,1,left,A_M_14.jpg,C_M_02.jpg,A_F_13.jpg,left,597.1800000406802,true,high,false
t7sqs6ga,32204agabep2jqz0kncwzihmy16hgu,33f859i56aq8ftpjv3pknrmg7u1bhk,t7sqs6ga,2020-0188,2020-06-16,16:54:45,17:13:13,NA,incomplete,212,gender,2,1,right,C_M_05.jpg,C_F_16.jpg,A_M_04.jpg,right,827.8399999835528,true,high,false
t7sqs6ga,32204agabep2jqz0kncwzihmy16hgu,33f859i56aq8ftpjv3pknrmg7u1bhk,t7sqs6ga,2020-0188,2020-06-16,16:54:45,17:13:13,NA,incomplete,213,gender,2,0,left,C_M_08.jpg,A_M_02.jpg,C_F_16.jpg,left,622.5700000068173,true,high,false
t7sqs6ga,32204agabep2jqz0kncwzihmy16hgu,33f859i56aq8ftpjv3pknrmg7u1bhk,t7sqs6ga,2020-0188,2020-06-16,16:54:45,17:13:13,NA,incomplete,214,gender,2,1,left,A_M_16.jpg,C_M_13.jpg,A_F_12.jpg,left,794.8150000302121,true,high,false
t7sqs6ga,32204agabep2jqz0kncwzihmy16hgu,33f859i56aq8ftpjv3pknrmg7u1bhk,t7sqs6ga,2020-0188,2020-06-16,16:54:45,17:13:13,NA,incomplete,215,gender,2,1,right,A_M_06.jpg,A_F_05.jpg,C_M_02.jpg,right,784.444999997504,true,high,false
t7sqs6ga,32204agabep2jqz0kncwzihmy16hgu,33f859i56aq8ftpjv3pknrmg7u1bhk,t7sqs6ga,2020-0188,2020-06-16,16:54:45,17:13:13,NA,incomplete,216,gender,2,0,right,C_F_15.jpg,C_M_11.jpg,A_F_16.jpg,right,874.2900000070222,true,high,false
t7sqs6ga,32204agabep2jqz0kncwzihmy16hgu,33f859i56aq8ftpjv3pknrmg7u1bhk,t7sqs6ga,2020-0188,2020-06-16,16:54:45,17:13:13,NA,incomplete,217,gender,2,1,right,A_M_16.jpg,A_F_12.jpg,C_M_06.jpg,right,885.9850000008009,true,high,false
t7sqs6ga,32204agabep2jqz0kncwzihmy16hgu,33f859i56aq8ftpjv3pknrmg7u1bhk,t7sqs6ga,2020-0188,2020-06-16,16:54:45,17:13:13,NA,incomplete,218,gender,2,0,left,C_F_03.jpg,A_F_04.jpg,C_M_13.jpg,right,856.8250000244007,false,high,false
t7sqs6ga,32204agabep2jqz0kncwzihmy16hgu,33f859i56aq8ftpjv3pknrmg7u1bhk,t7sqs6ga,2020-0188,2020-06-16,16:54:45,17:13:13,NA,incomplete,219,gender,2,1,left,A_F_06.jpg,C_F_03.jpg,A_M_11.jpg,left,878.1399999861605,true,high,false
t7sqs6ga,32204agabep2jqz0kncwzihmy16hgu,33f859i56aq8ftpjv3pknrmg7u1bhk,t7sqs6ga,2020-0188,2020-06-16,16:54:45,17:13:13,NA,incomplete,220,race,3,0,left,A_M_01.jpg,A_F_14.jpg,C_M_02.jpg,right,1025.9100000257604,false,high,false
t7sqs6ga,32204agabep2jqz0kncwzihmy16hgu,33f859i56aq8ftpjv3pknrmg7u1bhk,t7sqs6ga,2020-0188,2020-06-16,16:54:45,17:13:13,NA,incomplete,221,race,3,1,left,A_M_12.jpg,A_F_03.jpg,C_M_02.jpg,right,791.239999991376,false,high,false
t7sqs6ga,32204agabep2jqz0kncwzihmy16hgu,33f859i56aq8ftpjv3pknrmg7u1bhk,t7sqs6ga,2020-0188,2020-06-16,16:54:45,17:13:13,NA,incomplete,222,race,3,0,left,A_F_13.jpg,A_M_06.jpg,C_F_04.jpg,right,932.0500000030734,false,high,false
t7sqs6ga,32204agabep2jqz0kncwzihmy16hgu,33f859i56aq8ftpjv3pknrmg7u1bhk,t7sqs6ga,2020-0188,2020-06-16,16:54:45,17:13:13,NA,incomplete,223,race,3,1,left,A_F_06.jpg,A_M_05.jpg,C_F_16.jpg,right,531.2899999553338,false,high,false
t7sqs6ga,32204agabep2jqz0kncwzihmy16hgu,33f859i56aq8ftpjv3pknrmg7u1bhk,t7sqs6ga,2020-0188,2020-06-16,16:54:45,17:13:13,NA,incomplete,224,race,3,1,right,A_M_05.jpg,C_M_10.jpg,A_F_09.jpg,left,800.6850000238046,false,high,false
t7sqs6ga,32204agabep2jqz0kncwzihmy16hgu,33f859i56aq8ftpjv3pknrmg7u1bhk,t7sqs6ga,2020-0188,2020-06-16,16:54:45,17:13:13,NA,incomplete,225,race,3,1,left,C_M_10.jpg,C_F_16.jpg,A_M_02.jpg,right,740.8399999840185,false,high,false
t7sqs6ga,32204agabep2jqz0kncwzihmy16hgu,33f859i56aq8ftpjv3pknrmg7u1bhk,t7sqs6ga,2020-0188,2020-06-16,16:54:45,17:13:13,NA,incomplete,226,race,3,1,right,A_F_07.jpg,C_F_10.jpg,A_M_05.jpg,right,924.7450000257231,true,high,false
t7sqs6ga,32204agabep2jqz0kncwzihmy16hgu,33f859i56aq8ftpjv3pknrmg7u1bhk,t7sqs6ga,2020-0188,2020-06-16,16:54:45,17:13:13,NA,incomplete,227,race,3,0,right,C_M_10.jpg,A_M_12.jpg,C_F_09.jpg,left,814.394999993965,false,high,false
t7sqs6ga,32204agabep2jqz0kncwzihmy16hgu,33f859i56aq8ftpjv3pknrmg7u1bhk,t7sqs6ga,2020-0188,2020-06-16,16:54:45,17:13:13,NA,incomplete,228,race,3,1,left,C_M_15.jpg,C_F_02.jpg,A_M_14.jpg,left,814.9149999953806,true,high,false
t7sqs6ga,32204agabep2jqz0kncwzihmy16hgu,33f859i56aq8ftpjv3pknrmg7u1bhk,t7sqs6ga,2020-0188,2020-06-16,16:54:45,17:13:13,NA,incomplete,229,race,3,0,right,C_F_14.jpg,A_F_02.jpg,C_M_13.jpg,right,1008.9650000445545,true,high,false
t7sqs6ga,32204agabep2jqz0kncwzihmy16hgu,33f859i56aq8ftpjv3pknrmg7u1bhk,t7sqs6ga,2020-0188,2020-06-16,16:54:45,17:13:13,NA,incomplete,230,race,3,1,left,C_F_07.jpg,C_M_01.jpg,A_F_04.jpg,left,861.3400000031106,true,high,false
t7sqs6ga,32204agabep2jqz0kncwzihmy16hgu,33f859i56aq8ftpjv3pknrmg7u1bhk,t7sqs6ga,2020-0188,2020-06-16,16:54:45,17:13:13,NA,incomplete,231,race,3,1,left,C_M_09.jpg,C_F_13.jpg,A_M_05.jpg,left,728.995000012219,true,high,false
t7sqs6ga,32204agabep2jqz0kncwzihmy16hgu,33f859i56aq8ftpjv3pknrmg7u1bhk,t7sqs6ga,2020-0188,2020-06-16,16:54:45,17:13:13,NA,incomplete,232,race,3,0,left,C_F_04.jpg,C_M_13.jpg,A_F_03.jpg,left,935.7899999595247,true,high,false
t7sqs6ga,32204agabep2jqz0kncwzihmy16hgu,33f859i56aq8ftpjv3pknrmg7u1bhk,t7sqs6ga,2020-0188,2020-06-16,16:54:45,17:13:13,NA,incomplete,233,race,3,1,left,A_M_08.jpg,A_F_10.jpg,C_M_11.jpg,left,1015.5549999908544,true,high,false
t7sqs6ga,32204agabep2jqz0kncwzihmy16hgu,33f859i56aq8ftpjv3pknrmg7u1bhk,t7sqs6ga,2020-0188,2020-06-16,16:54:45,17:13:13,NA,incomplete,234,race,3,1,right,C_F_03.jpg,A_F_02.jpg,C_M_15.jpg,right,755.475000012666,true,high,false
t7sqs6ga,32204agabep2jqz0kncwzihmy16hgu,33f859i56aq8ftpjv3pknrmg7u1bhk,t7sqs6ga,2020-0188,2020-06-16,16:54:45,17:13:13,NA,incomplete,235,race,3,0,left,A_M_01.jpg,A_F_14.jpg,C_M_08.jpg,left,686.4300000015646,true,high,false
t7sqs6ga,32204agabep2jqz0kncwzihmy16hgu,33f859i56aq8ftpjv3pknrmg7u1bhk,t7sqs6ga,2020-0188,2020-06-16,16:54:45,17:13:13,NA,incomplete,236,race,3,1,left,C_F_06.jpg,C_M_10.jpg,A_F_05.jpg,left,1064.1499999910593,true,high,false
t7sqs6ga,32204agabep2jqz0kncwzihmy16hgu,33f859i56aq8ftpjv3pknrmg7u1bhk,t7sqs6ga,2020-0188,2020-06-16,16:54:45,17:13:13,NA,incomplete,237,race,3,0,right,C_F_08.jpg,A_F_06.jpg,C_M_02.jpg,right,902.5699999765493,true,high,false
t7sqs6ga,32204agabep2jqz0kncwzihmy16hgu,33f859i56aq8ftpjv3pknrmg7u1bhk,t7sqs6ga,2020-0188,2020-06-16,16:54:45,17:13:13,NA,incomplete,238,race,3,1,right,C_F_03.jpg,A_F_11.jpg,C_M_08.jpg,right,1341.7299999855459,true,high,false
t7sqs6ga,32204agabep2jqz0kncwzihmy16hgu,33f859i56aq8ftpjv3pknrmg7u1bhk,t7sqs6ga,2020-0188,2020-06-16,16:54:45,17:13:13,NA,incomplete,239,race,3,1,left,C_F_06.jpg,C_M_07.jpg,A_F_09.jpg,left,940.1800000341609,true,high,false
t7sqs6ga,32204agabep2jqz0kncwzihmy16hgu,33f859i56aq8ftpjv3pknrmg7u1bhk,t7sqs6ga,2020-0188,2020-06-16,16:54:45,17:13:13,NA,NA,instruction example,shape,NA,NA,NA,Green_Triangle_Stripes_2.jpg,Purple_Triangle_Grid_1.jpg,Red_Plus_Dots_2.jpg,NA,NA,NA,NA,undefined
t7sqs6ga,32204agabep2jqz0kncwzihmy16hgu,33f859i56aq8ftpjv3pknrmg7u1bhk,t7sqs6ga,2020-0188,2020-06-16,16:54:45,17:13:13,NA,NA,instruction example,shape,NA,NA,NA,Purple_Plus_Dots_2.jpg,Green_Triangle_Stripes_2.jpg,Blue_Plus_Grid_4.jpg,NA,NA,NA,NA,undefined
t7sqs6ga,32204agabep2jqz0kncwzihmy16hgu,33f859i56aq8ftpjv3pknrmg7u1bhk,t7sqs6ga,2020-0188,2020-06-16,16:54:45,17:13:13,NA,NA,instruction example,shape,NA,NA,NA,C_F_07.jpg,A_F_12.jpg,C_M_05.jpg,NA,NA,NA,NA,undefined
t7sqs6ga,32204agabep2jqz0kncwzihmy16hgu,33f859i56aq8ftpjv3pknrmg7u1bhk,t7sqs6ga,2020-0188,2020-06-16,16:54:45,17:13:13,NA,NA,instruction example,shape,NA,NA,NA,C_M_03.jpg,C_F_13.jpg,A_M_14.jpg,NA,NA,NA,NA,undefined
