workerId,hitId,assignmentId,subject,studyid,exp_date,exp_start,exp_end,time_start,time_end,trial,type,sequence,reward_validity,answer,image_top,image_left,image_right,response,response_time,response_acc,volatility,age,race,gender,ethnicity,color,vision,neuro,practice
s8Zwnzs1,3xabxm4ak4i034slkfn2gjsp1ra8qu,33iztu6j85e4i560btt1g2kaxicsxj,s8Zwnzs1,2020-0188,2020-06-04,17:33:44,18:00:27,NA,incomplete,0,filling,0,0,left,Green_Triangle_Stripes_3.jpg,Blue_Plus_Stripes_2.jpg,Green_Circle_Grid_1.jpg,left,1639.7300000006799,true,NA,NA,NA,NA,NA,NA,NA,NA,true
s8Zwnzs1,3xabxm4ak4i034slkfn2gjsp1ra8qu,33iztu6j85e4i560btt1g2kaxicsxj,s8Zwnzs1,2020-0188,2020-06-04,17:33:44,18:00:27,NA,incomplete,1,filling,0,1,left,Purple_Circle_Chess_3.jpg,Green_Plus_Chess_2.jpg,Purple_Triangle_Dots_1.jpg,left,1008.9950000002282,true,NA,NA,NA,NA,NA,NA,NA,NA,true
s8Zwnzs1,3xabxm4ak4i034slkfn2gjsp1ra8qu,33iztu6j85e4i560btt1g2kaxicsxj,s8Zwnzs1,2020-0188,2020-06-04,17:33:44,18:00:27,NA,incomplete,2,filling,0,1,right,Red_Plus_Chess_1.jpg,Red_Triangle_Grid_4.jpg,Blue_Star_Chess_3.jpg,right,1166.1149999999907,true,NA,NA,NA,NA,NA,NA,NA,NA,true
s8Zwnzs1,3xabxm4ak4i034slkfn2gjsp1ra8qu,33iztu6j85e4i560btt1g2kaxicsxj,s8Zwnzs1,2020-0188,2020-06-04,17:33:44,18:00:27,NA,incomplete,3,filling,0,0,left,Green_Circle_Chess_2.jpg,Red_Triangle_Chess_4.jpg,Green_Plus_Stripes_1.jpg,left,1212.5599999999395,true,NA,NA,NA,NA,NA,NA,NA,NA,true
s8Zwnzs1,3xabxm4ak4i034slkfn2gjsp1ra8qu,33iztu6j85e4i560btt1g2kaxicsxj,s8Zwnzs1,2020-0188,2020-06-04,17:33:44,18:00:27,NA,incomplete,4,filling,0,1,right,Purple_Triangle_Grid_3.jpg,Purple_Plus_Stripes_4.jpg,Red_Star_Grid_1.jpg,left,1008.9300000000512,false,NA,NA,NA,NA,NA,NA,NA,NA,true
s8Zwnzs1,3xabxm4ak4i034slkfn2gjsp1ra8qu,33iztu6j85e4i560btt1g2kaxicsxj,s8Zwnzs1,2020-0188,2020-06-04,17:33:44,18:00:27,NA,incomplete,5,filling,0,1,right,Green_Circle_Dots_2.jpg,Green_Star_Chess_1.jpg,Blue_Plus_Dots_4.jpg,right,1162.6249999990687,true,NA,NA,NA,NA,NA,NA,NA,NA,true
s8Zwnzs1,3xabxm4ak4i034slkfn2gjsp1ra8qu,33iztu6j85e4i560btt1g2kaxicsxj,s8Zwnzs1,2020-0188,2020-06-04,17:33:44,18:00:27,NA,incomplete,6,filling,0,1,right,Purple_Circle_Chess_4.jpg,Purple_Plus_Grid_2.jpg,Red_Triangle_Chess_3.jpg,right,1042.8150000006426,true,NA,NA,NA,NA,NA,NA,NA,NA,true
s8Zwnzs1,3xabxm4ak4i034slkfn2gjsp1ra8qu,33iztu6j85e4i560btt1g2kaxicsxj,s8Zwnzs1,2020-0188,2020-06-04,17:33:44,18:00:27,NA,incomplete,7,filling,0,1,left,Blue_Circle_Chess_4.jpg,Green_Triangle_Chess_3.jpg,Blue_Star_Grid_1.jpg,left,1098.1849999988917,true,NA,NA,NA,NA,NA,NA,NA,NA,true
s8Zwnzs1,3xabxm4ak4i034slkfn2gjsp1ra8qu,33iztu6j85e4i560btt1g2kaxicsxj,s8Zwnzs1,2020-0188,2020-06-04,17:33:44,18:00:27,NA,incomplete,8,filling,0,1,right,Blue_Star_Grid_3.jpg,Blue_Plus_Chess_1.jpg,Green_Triangle_Grid_4.jpg,right,993.2900000003865,true,NA,NA,NA,NA,NA,NA,NA,NA,true
s8Zwnzs1,3xabxm4ak4i034slkfn2gjsp1ra8qu,33iztu6j85e4i560btt1g2kaxicsxj,s8Zwnzs1,2020-0188,2020-06-04,17:33:44,18:00:27,NA,incomplete,9,filling,0,1,right,Blue_Circle_Grid_1.jpg,Blue_Star_Chess_4.jpg,Red_Triangle_Grid_2.jpg,right,985.4450000001816,true,NA,NA,NA,NA,NA,NA,NA,NA,true
s8Zwnzs1,3xabxm4ak4i034slkfn2gjsp1ra8qu,33iztu6j85e4i560btt1g2kaxicsxj,s8Zwnzs1,2020-0188,2020-06-04,17:33:44,18:00:27,NA,incomplete,10,filling,0,1,right,Purple_Plus_Grid_3.jpg,Purple_Circle_Dots_2.jpg,Red_Star_Grid_4.jpg,right,1010.2499999994179,true,NA,NA,NA,NA,NA,NA,NA,NA,true
s8Zwnzs1,3xabxm4ak4i034slkfn2gjsp1ra8qu,33iztu6j85e4i560btt1g2kaxicsxj,s8Zwnzs1,2020-0188,2020-06-04,17:33:44,18:00:27,NA,incomplete,11,filling,0,1,right,Blue_Circle_Stripes_3.jpg,Blue_Triangle_Chess_4.jpg,Red_Star_Stripes_1.jpg,right,1126.5849999999627,true,NA,NA,NA,NA,NA,NA,NA,NA,true
s8Zwnzs1,3xabxm4ak4i034slkfn2gjsp1ra8qu,33iztu6j85e4i560btt1g2kaxicsxj,s8Zwnzs1,2020-0188,2020-06-04,17:33:44,18:00:27,NA,incomplete,12,filling,0,1,right,Red_Plus_Grid_2.jpg,Red_Triangle_Stripes_3.jpg,Blue_Circle_Grid_4.jpg,right,1039.3149999999441,true,NA,NA,NA,NA,NA,NA,NA,NA,true
s8Zwnzs1,3xabxm4ak4i034slkfn2gjsp1ra8qu,33iztu6j85e4i560btt1g2kaxicsxj,s8Zwnzs1,2020-0188,2020-06-04,17:33:44,18:00:27,NA,incomplete,13,filling,0,1,right,Blue_Circle_Dots_2.jpg,Blue_Plus_Grid_4.jpg,Purple_Triangle_Dots_1.jpg,right,1067.4199999993434,true,NA,NA,NA,NA,NA,NA,NA,NA,true
s8Zwnzs1,3xabxm4ak4i034slkfn2gjsp1ra8qu,33iztu6j85e4i560btt1g2kaxicsxj,s8Zwnzs1,2020-0188,2020-06-04,17:33:44,18:00:27,NA,incomplete,14,filling,0,1,right,Green_Star_Stripes_3.jpg,Green_Triangle_Grid_4.jpg,Purple_Circle_Stripes_1.jpg,right,1041.9300000012154,true,NA,NA,NA,NA,NA,NA,NA,NA,true
s8Zwnzs1,3xabxm4ak4i034slkfn2gjsp1ra8qu,33iztu6j85e4i560btt1g2kaxicsxj,s8Zwnzs1,2020-0188,2020-06-04,17:33:44,18:00:27,NA,incomplete,15,filling,0,0,left,Green_Circle_Stripes_1.jpg,Blue_Plus_Stripes_2.jpg,Green_Triangle_Grid_4.jpg,right,1010.3099999997066,false,NA,NA,NA,NA,NA,NA,NA,NA,true
s8Zwnzs1,3xabxm4ak4i034slkfn2gjsp1ra8qu,33iztu6j85e4i560btt1g2kaxicsxj,s8Zwnzs1,2020-0188,2020-06-04,17:33:44,18:00:27,NA,incomplete,16,filling,0,1,right,Red_Star_Dots_2.jpg,Red_Plus_Stripes_3.jpg,Blue_Circle_Dots_1.jpg,right,928.785000000149,true,NA,NA,NA,NA,NA,NA,NA,NA,true
s8Zwnzs1,3xabxm4ak4i034slkfn2gjsp1ra8qu,33iztu6j85e4i560btt1g2kaxicsxj,s8Zwnzs1,2020-0188,2020-06-04,17:33:44,18:00:27,NA,incomplete,17,filling,0,1,left,Green_Plus_Grid_2.jpg,Purple_Circle_Grid_1.jpg,Green_Star_Chess_3.jpg,left,1025.1050000005635,true,NA,NA,NA,NA,NA,NA,NA,NA,true
s8Zwnzs1,3xabxm4ak4i034slkfn2gjsp1ra8qu,33iztu6j85e4i560btt1g2kaxicsxj,s8Zwnzs1,2020-0188,2020-06-04,17:33:44,18:00:27,NA,incomplete,18,filling,0,1,right,Blue_Star_Dots_4.jpg,Blue_Plus_Grid_3.jpg,Purple_Circle_Dots_1.jpg,right,978.820000000298,true,NA,NA,NA,NA,NA,NA,NA,NA,true
s8Zwnzs1,3xabxm4ak4i034slkfn2gjsp1ra8qu,33iztu6j85e4i560btt1g2kaxicsxj,s8Zwnzs1,2020-0188,2020-06-04,17:33:44,18:00:27,NA,incomplete,19,filling,0,1,right,Green_Star_Chess_1.jpg,Green_Circle_Stripes_3.jpg,Red_Triangle_Chess_2.jpg,right,934.6050000003306,true,NA,NA,NA,NA,NA,NA,NA,NA,true
s8Zwnzs1,3xabxm4ak4i034slkfn2gjsp1ra8qu,33iztu6j85e4i560btt1g2kaxicsxj,s8Zwnzs1,2020-0188,2020-06-04,17:33:44,18:00:27,NA,incomplete,20,color,1,1,right,Green_Circle_Chess_2.jpg,Red_Triangle_Chess_4.jpg,Green_Star_Stripes_3.jpg,right,903.0949999996228,true,NA,NA,NA,NA,NA,NA,NA,NA,true
s8Zwnzs1,3xabxm4ak4i034slkfn2gjsp1ra8qu,33iztu6j85e4i560btt1g2kaxicsxj,s8Zwnzs1,2020-0188,2020-06-04,17:33:44,18:00:27,NA,incomplete,21,color,1,1,right,Green_Star_Stripes_1.jpg,Red_Triangle_Stripes_3.jpg,Green_Circle_Chess_4.jpg,right,708.4849999992875,true,NA,NA,NA,NA,NA,NA,NA,NA,true
s8Zwnzs1,3xabxm4ak4i034slkfn2gjsp1ra8qu,33iztu6j85e4i560btt1g2kaxicsxj,s8Zwnzs1,2020-0188,2020-06-04,17:33:44,18:00:27,NA,incomplete,22,color,1,1,right,Purple_Plus_Dots_3.jpg,Green_Star_Dots_1.jpg,Purple_Triangle_Grid_2.jpg,right,847.6099999988219,true,NA,NA,NA,NA,NA,NA,NA,NA,true
s8Zwnzs1,3xabxm4ak4i034slkfn2gjsp1ra8qu,33iztu6j85e4i560btt1g2kaxicsxj,s8Zwnzs1,2020-0188,2020-06-04,17:33:44,18:00:27,NA,incomplete,23,color,1,0,right,Green_Triangle_Chess_2.jpg,Purple_Circle_Chess_1.jpg,Green_Star_Stripes_3.jpg,right,609.1049999996321,true,NA,NA,NA,NA,NA,NA,NA,NA,true
s8Zwnzs1,3xabxm4ak4i034slkfn2gjsp1ra8qu,33iztu6j85e4i560btt1g2kaxicsxj,s8Zwnzs1,2020-0188,2020-06-04,17:33:44,18:00:27,NA,incomplete,24,color,1,0,right,Blue_Circle_Dots_1.jpg,Red_Star_Dots_2.jpg,Blue_Plus_Stripes_4.jpg,right,783.2849999995669,true,NA,NA,NA,NA,NA,NA,NA,NA,true
s8Zwnzs1,3xabxm4ak4i034slkfn2gjsp1ra8qu,33iztu6j85e4i560btt1g2kaxicsxj,s8Zwnzs1,2020-0188,2020-06-04,17:33:44,18:00:27,NA,incomplete,25,color,1,1,left,Purple_Star_Grid_1.jpg,Purple_Plus_Stripes_2.jpg,Blue_Triangle_Grid_3.jpg,left,849.1749999994645,true,NA,NA,NA,NA,NA,NA,NA,NA,true
s8Zwnzs1,3xabxm4ak4i034slkfn2gjsp1ra8qu,33iztu6j85e4i560btt1g2kaxicsxj,s8Zwnzs1,2020-0188,2020-06-04,17:33:44,18:00:27,NA,incomplete,26,color,1,0,right,Red_Star_Stripes_2.jpg,Purple_Triangle_Stripes_1.jpg,Red_Circle_Dots_4.jpg,right,884.6450000000186,true,NA,NA,NA,NA,NA,NA,NA,NA,true
s8Zwnzs1,3xabxm4ak4i034slkfn2gjsp1ra8qu,33iztu6j85e4i560btt1g2kaxicsxj,s8Zwnzs1,2020-0188,2020-06-04,17:33:44,18:00:27,NA,incomplete,27,color,1,1,left,Red_Plus_Dots_1.jpg,Red_Star_Grid_3.jpg,Purple_Triangle_Dots_4.jpg,left,732.6549999997951,true,NA,NA,NA,NA,NA,NA,NA,NA,true
s8Zwnzs1,3xabxm4ak4i034slkfn2gjsp1ra8qu,33iztu6j85e4i560btt1g2kaxicsxj,s8Zwnzs1,2020-0188,2020-06-04,17:33:44,18:00:27,NA,incomplete,28,color,1,1,right,Purple_Circle_Dots_3.jpg,Blue_Plus_Dots_2.jpg,Purple_Triangle_Grid_4.jpg,right,881.7499999987194,true,NA,NA,NA,NA,NA,NA,NA,NA,true
s8Zwnzs1,3xabxm4ak4i034slkfn2gjsp1ra8qu,33iztu6j85e4i560btt1g2kaxicsxj,s8Zwnzs1,2020-0188,2020-06-04,17:33:44,18:00:27,NA,incomplete,29,color,1,1,left,Blue_Circle_Dots_4.jpg,Blue_Plus_Stripes_3.jpg,Red_Triangle_Dots_1.jpg,left,955.8150000012247,true,NA,NA,NA,NA,NA,NA,NA,NA,true
s8Zwnzs1,3xabxm4ak4i034slkfn2gjsp1ra8qu,33iztu6j85e4i560btt1g2kaxicsxj,s8Zwnzs1,2020-0188,2020-06-04,17:33:44,18:00:27,NA,incomplete,30,color,1,1,right,Green_Triangle_Dots_3.jpg,Purple_Star_Dots_4.jpg,Green_Circle_Stripes_1.jpg,right,536.4700000009034,true,NA,NA,NA,NA,NA,NA,NA,NA,true
s8Zwnzs1,3xabxm4ak4i034slkfn2gjsp1ra8qu,33iztu6j85e4i560btt1g2kaxicsxj,s8Zwnzs1,2020-0188,2020-06-04,17:33:44,18:00:27,NA,incomplete,31,color,1,0,right,Purple_Plus_Stripes_4.jpg,Blue_Circle_Stripes_2.jpg,Purple_Triangle_Chess_1.jpg,right,653.2599999991944,true,NA,NA,NA,NA,NA,NA,NA,NA,true
s8Zwnzs1,3xabxm4ak4i034slkfn2gjsp1ra8qu,33iztu6j85e4i560btt1g2kaxicsxj,s8Zwnzs1,2020-0188,2020-06-04,17:33:44,18:00:27,NA,incomplete,32,color,1,1,left,Red_Triangle_Grid_3.jpg,Red_Circle_Stripes_4.jpg,Blue_Plus_Grid_1.jpg,left,518.5649999985471,true,NA,NA,NA,NA,NA,NA,NA,NA,true
s8Zwnzs1,3xabxm4ak4i034slkfn2gjsp1ra8qu,33iztu6j85e4i560btt1g2kaxicsxj,s8Zwnzs1,2020-0188,2020-06-04,17:33:44,18:00:27,NA,incomplete,33,color,1,1,left,Red_Circle_Grid_1.jpg,Red_Triangle_Chess_4.jpg,Green_Plus_Grid_2.jpg,left,578.720000001369,true,NA,NA,NA,NA,NA,NA,NA,NA,true
s8Zwnzs1,3xabxm4ak4i034slkfn2gjsp1ra8qu,33iztu6j85e4i560btt1g2kaxicsxj,s8Zwnzs1,2020-0188,2020-06-04,17:33:44,18:00:27,NA,incomplete,34,color,1,0,right,Purple_Circle_Dots_2.jpg,Blue_Plus_Dots_3.jpg,Purple_Triangle_Stripes_1.jpg,right,583.0799999985611,true,NA,NA,NA,NA,NA,NA,NA,NA,true
s8Zwnzs1,3xabxm4ak4i034slkfn2gjsp1ra8qu,33iztu6j85e4i560btt1g2kaxicsxj,s8Zwnzs1,2020-0188,2020-06-04,17:33:44,18:00:27,NA,incomplete,35,color,1,1,left,Red_Plus_Chess_2.jpg,Red_Circle_Grid_1.jpg,Green_Star_Chess_3.jpg,left,598.3099999994738,true,NA,NA,NA,NA,NA,NA,NA,NA,true
s8Zwnzs1,3xabxm4ak4i034slkfn2gjsp1ra8qu,33iztu6j85e4i560btt1g2kaxicsxj,s8Zwnzs1,2020-0188,2020-06-04,17:33:44,18:00:27,NA,incomplete,36,color,1,1,right,Red_Star_Grid_3.jpg,Blue_Plus_Grid_4.jpg,Red_Circle_Dots_2.jpg,right,502.4350000004051,true,NA,NA,NA,NA,NA,NA,NA,NA,true
s8Zwnzs1,3xabxm4ak4i034slkfn2gjsp1ra8qu,33iztu6j85e4i560btt1g2kaxicsxj,s8Zwnzs1,2020-0188,2020-06-04,17:33:44,18:00:27,NA,incomplete,37,color,1,1,right,Blue_Star_Dots_1.jpg,Red_Circle_Dots_4.jpg,Blue_Triangle_Grid_2.jpg,right,795.9800000007963,true,NA,NA,NA,NA,NA,NA,NA,NA,true
s8Zwnzs1,3xabxm4ak4i034slkfn2gjsp1ra8qu,33iztu6j85e4i560btt1g2kaxicsxj,s8Zwnzs1,2020-0188,2020-06-04,17:33:44,18:00:27,NA,incomplete,38,color,1,1,right,Red_Plus_Dots_1.jpg,Green_Triangle_Dots_4.jpg,Red_Star_Chess_2.jpg,right,570.1800000006333,true,NA,NA,NA,NA,NA,NA,NA,NA,true
s8Zwnzs1,3xabxm4ak4i034slkfn2gjsp1ra8qu,33iztu6j85e4i560btt1g2kaxicsxj,s8Zwnzs1,2020-0188,2020-06-04,17:33:44,18:00:27,NA,incomplete,39,color,1,1,right,Green_Plus_Stripes_3.jpg,Red_Star_Stripes_2.jpg,Green_Circle_Dots_1.jpg,right,594.8149999985471,true,NA,NA,NA,NA,NA,NA,NA,NA,true
s8Zwnzs1,3xabxm4ak4i034slkfn2gjsp1ra8qu,33iztu6j85e4i560btt1g2kaxicsxj,s8Zwnzs1,2020-0188,2020-06-04,17:33:44,18:00:27,NA,incomplete,0,filling,0,0,right,Purple_Plus_Chess_3.jpg,Purple_Circle_Dots_2.jpg,Blue_Star_Chess_4.jpg,right,1254.7649999996647,true,low,NA,NA,NA,NA,NA,NA,NA,false
s8Zwnzs1,3xabxm4ak4i034slkfn2gjsp1ra8qu,33iztu6j85e4i560btt1g2kaxicsxj,s8Zwnzs1,2020-0188,2020-06-04,17:33:44,18:00:27,NA,incomplete,1,filling,0,1,right,Red_Circle_Dots_2.jpg,Red_Plus_Stripes_1.jpg,Purple_Star_Dots_3.jpg,right,1275.130000000121,true,low,NA,NA,NA,NA,NA,NA,NA,false
s8Zwnzs1,3xabxm4ak4i034slkfn2gjsp1ra8qu,33iztu6j85e4i560btt1g2kaxicsxj,s8Zwnzs1,2020-0188,2020-06-04,17:33:44,18:00:27,NA,incomplete,2,filling,0,1,left,Green_Plus_Stripes_3.jpg,Blue_Star_Stripes_4.jpg,Green_Circle_Chess_2.jpg,right,957.5499999991152,false,low,NA,NA,NA,NA,NA,NA,NA,false
s8Zwnzs1,3xabxm4ak4i034slkfn2gjsp1ra8qu,33iztu6j85e4i560btt1g2kaxicsxj,s8Zwnzs1,2020-0188,2020-06-04,17:33:44,18:00:27,NA,incomplete,3,filling,0,0,left,Red_Plus_Chess_4.jpg,Purple_Triangle_Chess_2.jpg,Red_Star_Stripes_1.jpg,left,848.7000000006519,true,low,NA,NA,NA,NA,NA,NA,NA,false
s8Zwnzs1,3xabxm4ak4i034slkfn2gjsp1ra8qu,33iztu6j85e4i560btt1g2kaxicsxj,s8Zwnzs1,2020-0188,2020-06-04,17:33:44,18:00:27,NA,incomplete,4,filling,0,1,right,Purple_Circle_Grid_2.jpg,Purple_Triangle_Stripes_3.jpg,Red_Star_Grid_4.jpg,left,694.7700000000186,false,low,NA,NA,NA,NA,NA,NA,NA,false
s8Zwnzs1,3xabxm4ak4i034slkfn2gjsp1ra8qu,33iztu6j85e4i560btt1g2kaxicsxj,s8Zwnzs1,2020-0188,2020-06-04,17:33:44,18:00:27,NA,incomplete,5,filling,0,1,left,Purple_Star_Stripes_3.jpg,Green_Plus_Stripes_1.jpg,Purple_Triangle_Grid_4.jpg,left,1064.0849999999627,true,low,NA,NA,NA,NA,NA,NA,NA,false
s8Zwnzs1,3xabxm4ak4i034slkfn2gjsp1ra8qu,33iztu6j85e4i560btt1g2kaxicsxj,s8Zwnzs1,2020-0188,2020-06-04,17:33:44,18:00:27,NA,incomplete,6,filling,0,1,left,Red_Circle_Stripes_3.jpg,Purple_Star_Stripes_2.jpg,Red_Plus_Dots_1.jpg,left,871.0599999993574,true,low,NA,NA,NA,NA,NA,NA,NA,false
s8Zwnzs1,3xabxm4ak4i034slkfn2gjsp1ra8qu,33iztu6j85e4i560btt1g2kaxicsxj,s8Zwnzs1,2020-0188,2020-06-04,17:33:44,18:00:27,NA,incomplete,7,filling,0,1,left,Red_Plus_Grid_4.jpg,Purple_Triangle_Grid_1.jpg,Red_Star_Chess_3.jpg,left,773.4650000003166,true,low,NA,NA,NA,NA,NA,NA,NA,false
s8Zwnzs1,3xabxm4ak4i034slkfn2gjsp1ra8qu,33iztu6j85e4i560btt1g2kaxicsxj,s8Zwnzs1,2020-0188,2020-06-04,17:33:44,18:00:27,NA,incomplete,8,filling,0,1,right,Blue_Triangle_Grid_2.jpg,Blue_Star_Dots_4.jpg,Green_Circle_Grid_3.jpg,right,830.8699999996461,true,low,NA,NA,NA,NA,NA,NA,NA,false
s8Zwnzs1,3xabxm4ak4i034slkfn2gjsp1ra8qu,33iztu6j85e4i560btt1g2kaxicsxj,s8Zwnzs1,2020-0188,2020-06-04,17:33:44,18:00:27,NA,incomplete,9,filling,0,1,right,Red_Triangle_Grid_3.jpg,Red_Star_Stripes_1.jpg,Blue_Plus_Grid_4.jpg,right,845.5500000000466,true,low,NA,NA,NA,NA,NA,NA,NA,false
s8Zwnzs1,3xabxm4ak4i034slkfn2gjsp1ra8qu,33iztu6j85e4i560btt1g2kaxicsxj,s8Zwnzs1,2020-0188,2020-06-04,17:33:44,18:00:27,NA,incomplete,10,filling,0,0,right,Red_Plus_Chess_3.jpg,Red_Star_Grid_2.jpg,Green_Triangle_Chess_1.jpg,right,785.9900000002235,true,low,NA,NA,NA,NA,NA,NA,NA,false
s8Zwnzs1,3xabxm4ak4i034slkfn2gjsp1ra8qu,33iztu6j85e4i560btt1g2kaxicsxj,s8Zwnzs1,2020-0188,2020-06-04,17:33:44,18:00:27,NA,incomplete,11,filling,0,1,left,Green_Plus_Dots_2.jpg,Red_Triangle_Dots_4.jpg,Green_Circle_Stripes_3.jpg,left,765.2749999999069,true,low,NA,NA,NA,NA,NA,NA,NA,false
s8Zwnzs1,3xabxm4ak4i034slkfn2gjsp1ra8qu,33iztu6j85e4i560btt1g2kaxicsxj,s8Zwnzs1,2020-0188,2020-06-04,17:33:44,18:00:27,NA,incomplete,12,filling,0,1,left,Green_Star_Chess_1.jpg,Purple_Circle_Chess_3.jpg,Green_Plus_Grid_2.jpg,left,743.1100000012666,true,low,NA,NA,NA,NA,NA,NA,NA,false
s8Zwnzs1,3xabxm4ak4i034slkfn2gjsp1ra8qu,33iztu6j85e4i560btt1g2kaxicsxj,s8Zwnzs1,2020-0188,2020-06-04,17:33:44,18:00:27,NA,incomplete,13,filling,0,1,right,Green_Circle_Stripes_4.jpg,Green_Triangle_Grid_2.jpg,Red_Star_Stripes_3.jpg,right,776.7800000000279,true,low,NA,NA,NA,NA,NA,NA,NA,false
s8Zwnzs1,3xabxm4ak4i034slkfn2gjsp1ra8qu,33iztu6j85e4i560btt1g2kaxicsxj,s8Zwnzs1,2020-0188,2020-06-04,17:33:44,18:00:27,NA,incomplete,14,filling,0,1,left,Red_Circle_Stripes_1.jpg,Blue_Star_Stripes_3.jpg,Red_Plus_Chess_4.jpg,left,1073.2499999995343,true,low,NA,NA,NA,NA,NA,NA,NA,false
s8Zwnzs1,3xabxm4ak4i034slkfn2gjsp1ra8qu,33iztu6j85e4i560btt1g2kaxicsxj,s8Zwnzs1,2020-0188,2020-06-04,17:33:44,18:00:27,NA,incomplete,15,filling,0,0,left,Purple_Triangle_Dots_1.jpg,Green_Star_Dots_3.jpg,Purple_Plus_Chess_2.jpg,left,923.0999999998603,true,low,NA,NA,NA,NA,NA,NA,NA,false
s8Zwnzs1,3xabxm4ak4i034slkfn2gjsp1ra8qu,33iztu6j85e4i560btt1g2kaxicsxj,s8Zwnzs1,2020-0188,2020-06-04,17:33:44,18:00:27,NA,incomplete,16,filling,0,1,left,Green_Circle_Stripes_4.jpg,Red_Plus_Stripes_3.jpg,Green_Triangle_Grid_1.jpg,left,796.1849999991246,true,low,NA,NA,NA,NA,NA,NA,NA,false
s8Zwnzs1,3xabxm4ak4i034slkfn2gjsp1ra8qu,33iztu6j85e4i560btt1g2kaxicsxj,s8Zwnzs1,2020-0188,2020-06-04,17:33:44,18:00:27,NA,incomplete,17,filling,0,1,left,Red_Star_Grid_3.jpg,Purple_Triangle_Grid_2.jpg,Red_Plus_Chess_4.jpg,left,978.9350000009872,true,low,NA,NA,NA,NA,NA,NA,NA,false
s8Zwnzs1,3xabxm4ak4i034slkfn2gjsp1ra8qu,33iztu6j85e4i560btt1g2kaxicsxj,s8Zwnzs1,2020-0188,2020-06-04,17:33:44,18:00:27,NA,incomplete,18,filling,0,0,left,Purple_Plus_Stripes_2.jpg,Red_Triangle_Stripes_3.jpg,Purple_Circle_Grid_1.jpg,left,712.4650000005495,true,low,NA,NA,NA,NA,NA,NA,NA,false
s8Zwnzs1,3xabxm4ak4i034slkfn2gjsp1ra8qu,33iztu6j85e4i560btt1g2kaxicsxj,s8Zwnzs1,2020-0188,2020-06-04,17:33:44,18:00:27,NA,incomplete,19,filling,0,1,left,Green_Plus_Stripes_2.jpg,Red_Star_Stripes_1.jpg,Green_Circle_Grid_3.jpg,left,754.6400000010617,true,low,NA,NA,NA,NA,NA,NA,NA,false
s8Zwnzs1,3xabxm4ak4i034slkfn2gjsp1ra8qu,33iztu6j85e4i560btt1g2kaxicsxj,s8Zwnzs1,2020-0188,2020-06-04,17:33:44,18:00:27,NA,incomplete,20,filling,0,1,right,Green_Star_Chess_1.jpg,Green_Circle_Stripes_3.jpg,Blue_Triangle_Chess_2.jpg,left,829.8800000010524,false,low,NA,NA,NA,NA,NA,NA,NA,false
s8Zwnzs1,3xabxm4ak4i034slkfn2gjsp1ra8qu,33iztu6j85e4i560btt1g2kaxicsxj,s8Zwnzs1,2020-0188,2020-06-04,17:33:44,18:00:27,NA,incomplete,21,filling,0,1,left,Red_Plus_Chess_1.jpg,Purple_Star_Chess_4.jpg,Red_Circle_Dots_3.jpg,left,804.739999999525,true,low,NA,NA,NA,NA,NA,NA,NA,false
s8Zwnzs1,3xabxm4ak4i034slkfn2gjsp1ra8qu,33iztu6j85e4i560btt1g2kaxicsxj,s8Zwnzs1,2020-0188,2020-06-04,17:33:44,18:00:27,NA,incomplete,22,filling,0,1,left,Red_Triangle_Stripes_4.jpg,Blue_Circle_Stripes_1.jpg,Red_Plus_Grid_3.jpg,left,719.5750000008848,true,low,NA,NA,NA,NA,NA,NA,NA,false
s8Zwnzs1,3xabxm4ak4i034slkfn2gjsp1ra8qu,33iztu6j85e4i560btt1g2kaxicsxj,s8Zwnzs1,2020-0188,2020-06-04,17:33:44,18:00:27,NA,incomplete,23,filling,0,1,right,Red_Plus_Dots_3.jpg,Red_Star_Chess_4.jpg,Blue_Circle_Dots_2.jpg,right,769.6550000000279,true,low,NA,NA,NA,NA,NA,NA,NA,false
s8Zwnzs1,3xabxm4ak4i034slkfn2gjsp1ra8qu,33iztu6j85e4i560btt1g2kaxicsxj,s8Zwnzs1,2020-0188,2020-06-04,17:33:44,18:00:27,NA,incomplete,24,filling,0,1,left,Green_Star_Grid_1.jpg,Purple_Triangle_Grid_3.jpg,Green_Circle_Dots_4.jpg,left,685.7749999999069,true,low,NA,NA,NA,NA,NA,NA,NA,false
s8Zwnzs1,3xabxm4ak4i034slkfn2gjsp1ra8qu,33iztu6j85e4i560btt1g2kaxicsxj,s8Zwnzs1,2020-0188,2020-06-04,17:33:44,18:00:27,NA,incomplete,25,filling,0,1,right,Blue_Star_Dots_1.jpg,Blue_Circle_Chess_4.jpg,Purple_Plus_Dots_2.jpg,right,837.190000000177,true,low,NA,NA,NA,NA,NA,NA,NA,false
s8Zwnzs1,3xabxm4ak4i034slkfn2gjsp1ra8qu,33iztu6j85e4i560btt1g2kaxicsxj,s8Zwnzs1,2020-0188,2020-06-04,17:33:44,18:00:27,NA,incomplete,26,filling,0,1,left,Purple_Circle_Stripes_4.jpg,Blue_Triangle_Stripes_3.jpg,Purple_Star_Dots_1.jpg,left,652.9400000018068,true,low,NA,NA,NA,NA,NA,NA,NA,false
s8Zwnzs1,3xabxm4ak4i034slkfn2gjsp1ra8qu,33iztu6j85e4i560btt1g2kaxicsxj,s8Zwnzs1,2020-0188,2020-06-04,17:33:44,18:00:27,NA,incomplete,27,filling,0,0,right,Blue_Plus_Dots_3.jpg,Blue_Triangle_Grid_2.jpg,Purple_Circle_Dots_1.jpg,right,676.1750000005122,true,low,NA,NA,NA,NA,NA,NA,NA,false
s8Zwnzs1,3xabxm4ak4i034slkfn2gjsp1ra8qu,33iztu6j85e4i560btt1g2kaxicsxj,s8Zwnzs1,2020-0188,2020-06-04,17:33:44,18:00:27,NA,incomplete,28,filling,0,1,right,Red_Triangle_Grid_2.jpg,Red_Plus_Chess_1.jpg,Green_Star_Grid_4.jpg,right,634.2400000011548,true,low,NA,NA,NA,NA,NA,NA,NA,false
s8Zwnzs1,3xabxm4ak4i034slkfn2gjsp1ra8qu,33iztu6j85e4i560btt1g2kaxicsxj,s8Zwnzs1,2020-0188,2020-06-04,17:33:44,18:00:27,NA,incomplete,29,filling,0,1,right,Purple_Circle_Chess_1.jpg,Purple_Triangle_Grid_3.jpg,Green_Plus_Chess_4.jpg,right,799.1799999999348,true,low,NA,NA,NA,NA,NA,NA,NA,false
s8Zwnzs1,3xabxm4ak4i034slkfn2gjsp1ra8qu,33iztu6j85e4i560btt1g2kaxicsxj,s8Zwnzs1,2020-0188,2020-06-04,17:33:44,18:00:27,NA,incomplete,30,color,1,1,left,Red_Circle_Grid_3.jpg,Red_Triangle_Chess_2.jpg,Blue_Star_Grid_4.jpg,right,871.6400000012945,false,low,NA,NA,NA,NA,NA,NA,NA,false
s8Zwnzs1,3xabxm4ak4i034slkfn2gjsp1ra8qu,33iztu6j85e4i560btt1g2kaxicsxj,s8Zwnzs1,2020-0188,2020-06-04,17:33:44,18:00:27,NA,incomplete,31,color,1,0,right,Red_Circle_Chess_1.jpg,Blue_Star_Chess_2.jpg,Red_Plus_Grid_3.jpg,left,970.3150000004098,false,low,NA,NA,NA,NA,NA,NA,NA,false
s8Zwnzs1,3xabxm4ak4i034slkfn2gjsp1ra8qu,33iztu6j85e4i560btt1g2kaxicsxj,s8Zwnzs1,2020-0188,2020-06-04,17:33:44,18:00:27,NA,incomplete,32,color,1,1,right,Red_Circle_Grid_1.jpg,Purple_Plus_Grid_2.jpg,Red_Star_Stripes_3.jpg,left,858.0949999997392,false,low,NA,NA,NA,NA,NA,NA,NA,false
s8Zwnzs1,3xabxm4ak4i034slkfn2gjsp1ra8qu,33iztu6j85e4i560btt1g2kaxicsxj,s8Zwnzs1,2020-0188,2020-06-04,17:33:44,18:00:27,NA,incomplete,33,color,1,1,left,Purple_Star_Stripes_1.jpg,Purple_Plus_Chess_4.jpg,Blue_Triangle_Stripes_2.jpg,right,738.579999999376,false,low,NA,NA,NA,NA,NA,NA,NA,false
s8Zwnzs1,3xabxm4ak4i034slkfn2gjsp1ra8qu,33iztu6j85e4i560btt1g2kaxicsxj,s8Zwnzs1,2020-0188,2020-06-04,17:33:44,18:00:27,NA,incomplete,34,color,1,1,right,Blue_Triangle_Dots_4.jpg,Purple_Star_Dots_3.jpg,Blue_Circle_Stripes_2.jpg,right,682.4800000013784,true,low,NA,NA,NA,NA,NA,NA,NA,false
s8Zwnzs1,3xabxm4ak4i034slkfn2gjsp1ra8qu,33iztu6j85e4i560btt1g2kaxicsxj,s8Zwnzs1,2020-0188,2020-06-04,17:33:44,18:00:27,NA,incomplete,35,color,1,1,right,Red_Plus_Grid_2.jpg,Blue_Star_Grid_4.jpg,Red_Circle_Dots_1.jpg,right,581.3749999997672,true,low,NA,NA,NA,NA,NA,NA,NA,false
s8Zwnzs1,3xabxm4ak4i034slkfn2gjsp1ra8qu,33iztu6j85e4i560btt1g2kaxicsxj,s8Zwnzs1,2020-0188,2020-06-04,17:33:44,18:00:27,NA,incomplete,36,color,1,1,right,Red_Star_Stripes_4.jpg,Blue_Triangle_Stripes_3.jpg,Red_Circle_Chess_1.jpg,right,554.1099999991711,true,low,NA,NA,NA,NA,NA,NA,NA,false
s8Zwnzs1,3xabxm4ak4i034slkfn2gjsp1ra8qu,33iztu6j85e4i560btt1g2kaxicsxj,s8Zwnzs1,2020-0188,2020-06-04,17:33:44,18:00:27,NA,incomplete,37,color,1,1,left,Purple_Circle_Grid_4.jpg,Purple_Star_Dots_1.jpg,Red_Triangle_Grid_2.jpg,left,600.0349999994505,true,low,NA,NA,NA,NA,NA,NA,NA,false
s8Zwnzs1,3xabxm4ak4i034slkfn2gjsp1ra8qu,33iztu6j85e4i560btt1g2kaxicsxj,s8Zwnzs1,2020-0188,2020-06-04,17:33:44,18:00:27,NA,incomplete,38,color,1,0,right,Red_Circle_Dots_3.jpg,Purple_Triangle_Dots_1.jpg,Red_Star_Grid_2.jpg,right,597.9649999989197,true,low,NA,NA,NA,NA,NA,NA,NA,false
s8Zwnzs1,3xabxm4ak4i034slkfn2gjsp1ra8qu,33iztu6j85e4i560btt1g2kaxicsxj,s8Zwnzs1,2020-0188,2020-06-04,17:33:44,18:00:27,NA,incomplete,39,color,1,1,right,Purple_Circle_Grid_4.jpg,Green_Plus_Grid_3.jpg,Purple_Triangle_Dots_1.jpg,left,835.9850000014994,false,low,NA,NA,NA,NA,NA,NA,NA,false
s8Zwnzs1,3xabxm4ak4i034slkfn2gjsp1ra8qu,33iztu6j85e4i560btt1g2kaxicsxj,s8Zwnzs1,2020-0188,2020-06-04,17:33:44,18:00:27,NA,incomplete,40,color,1,1,right,Green_Star_Stripes_1.jpg,Purple_Plus_Stripes_4.jpg,Green_Triangle_Chess_2.jpg,left,798.0399999995716,false,low,NA,NA,NA,NA,NA,NA,NA,false
s8Zwnzs1,3xabxm4ak4i034slkfn2gjsp1ra8qu,33iztu6j85e4i560btt1g2kaxicsxj,s8Zwnzs1,2020-0188,2020-06-04,17:33:44,18:00:27,NA,incomplete,41,color,1,1,left,Blue_Triangle_Grid_4.jpg,Blue_Circle_Stripes_3.jpg,Green_Star_Grid_2.jpg,left,554.4799999988172,true,low,NA,NA,NA,NA,NA,NA,NA,false
s8Zwnzs1,3xabxm4ak4i034slkfn2gjsp1ra8qu,33iztu6j85e4i560btt1g2kaxicsxj,s8Zwnzs1,2020-0188,2020-06-04,17:33:44,18:00:27,NA,incomplete,42,color,1,1,right,Blue_Plus_Grid_1.jpg,Red_Circle_Grid_4.jpg,Blue_Star_Stripes_3.jpg,right,458.8800000001211,true,low,NA,NA,NA,NA,NA,NA,NA,false
s8Zwnzs1,3xabxm4ak4i034slkfn2gjsp1ra8qu,33iztu6j85e4i560btt1g2kaxicsxj,s8Zwnzs1,2020-0188,2020-06-04,17:33:44,18:00:27,NA,incomplete,43,color,1,1,right,Purple_Plus_Chess_4.jpg,Blue_Circle_Chess_3.jpg,Purple_Star_Grid_2.jpg,right,701.1800000001676,true,low,NA,NA,NA,NA,NA,NA,NA,false
s8Zwnzs1,3xabxm4ak4i034slkfn2gjsp1ra8qu,33iztu6j85e4i560btt1g2kaxicsxj,s8Zwnzs1,2020-0188,2020-06-04,17:33:44,18:00:27,NA,incomplete,44,color,1,1,left,Red_Star_Stripes_3.jpg,Red_Circle_Grid_1.jpg,Blue_Plus_Stripes_2.jpg,left,511.43000000040047,true,low,NA,NA,NA,NA,NA,NA,NA,false
s8Zwnzs1,3xabxm4ak4i034slkfn2gjsp1ra8qu,33iztu6j85e4i560btt1g2kaxicsxj,s8Zwnzs1,2020-0188,2020-06-04,17:33:44,18:00:27,NA,incomplete,45,color,1,1,left,Green_Triangle_Chess_4.jpg,Green_Plus_Stripes_3.jpg,Red_Star_Chess_1.jpg,left,534.7849999999162,true,low,NA,NA,NA,NA,NA,NA,NA,false
s8Zwnzs1,3xabxm4ak4i034slkfn2gjsp1ra8qu,33iztu6j85e4i560btt1g2kaxicsxj,s8Zwnzs1,2020-0188,2020-06-04,17:33:44,18:00:27,NA,incomplete,46,color,1,1,left,Red_Star_Grid_3.jpg,Red_Triangle_Dots_2.jpg,Purple_Plus_Grid_1.jpg,left,608.8999999992084,true,low,NA,NA,NA,NA,NA,NA,NA,false
s8Zwnzs1,3xabxm4ak4i034slkfn2gjsp1ra8qu,33iztu6j85e4i560btt1g2kaxicsxj,s8Zwnzs1,2020-0188,2020-06-04,17:33:44,18:00:27,NA,incomplete,47,color,1,1,right,Blue_Circle_Grid_1.jpg,Green_Triangle_Grid_3.jpg,Blue_Star_Stripes_4.jpg,right,502.60499999974854,true,low,NA,NA,NA,NA,NA,NA,NA,false
s8Zwnzs1,3xabxm4ak4i034slkfn2gjsp1ra8qu,33iztu6j85e4i560btt1g2kaxicsxj,s8Zwnzs1,2020-0188,2020-06-04,17:33:44,18:00:27,NA,incomplete,48,color,1,1,left,Green_Plus_Grid_3.jpg,Green_Circle_Chess_2.jpg,Red_Triangle_Grid_4.jpg,left,444.6399999996647,true,low,NA,NA,NA,NA,NA,NA,NA,false
s8Zwnzs1,3xabxm4ak4i034slkfn2gjsp1ra8qu,33iztu6j85e4i560btt1g2kaxicsxj,s8Zwnzs1,2020-0188,2020-06-04,17:33:44,18:00:27,NA,incomplete,49,color,1,0,left,Green_Triangle_Dots_3.jpg,Green_Star_Grid_1.jpg,Purple_Circle_Dots_4.jpg,left,522.1650000002701,true,low,NA,NA,NA,NA,NA,NA,NA,false
s8Zwnzs1,3xabxm4ak4i034slkfn2gjsp1ra8qu,33iztu6j85e4i560btt1g2kaxicsxj,s8Zwnzs1,2020-0188,2020-06-04,17:33:44,18:00:27,NA,incomplete,50,color,1,1,left,Red_Circle_Chess_4.jpg,Red_Star_Stripes_3.jpg,Purple_Plus_Chess_1.jpg,left,448.7299999999814,true,low,NA,NA,NA,NA,NA,NA,NA,false
s8Zwnzs1,3xabxm4ak4i034slkfn2gjsp1ra8qu,33iztu6j85e4i560btt1g2kaxicsxj,s8Zwnzs1,2020-0188,2020-06-04,17:33:44,18:00:27,NA,incomplete,51,color,1,1,right,Blue_Plus_Chess_1.jpg,Purple_Triangle_Chess_2.jpg,Blue_Star_Grid_3.jpg,right,572.8699999998789,true,low,NA,NA,NA,NA,NA,NA,NA,false
s8Zwnzs1,3xabxm4ak4i034slkfn2gjsp1ra8qu,33iztu6j85e4i560btt1g2kaxicsxj,s8Zwnzs1,2020-0188,2020-06-04,17:33:44,18:00:27,NA,incomplete,52,color,1,1,right,Green_Star_Grid_3.jpg,Red_Triangle_Grid_4.jpg,Green_Plus_Stripes_1.jpg,right,601.8399999993853,true,low,NA,NA,NA,NA,NA,NA,NA,false
s8Zwnzs1,3xabxm4ak4i034slkfn2gjsp1ra8qu,33iztu6j85e4i560btt1g2kaxicsxj,s8Zwnzs1,2020-0188,2020-06-04,17:33:44,18:00:27,NA,incomplete,53,color,1,1,right,Blue_Triangle_Grid_4.jpg,Green_Star_Grid_3.jpg,Blue_Circle_Stripes_1.jpg,right,623.2099999997299,true,low,NA,NA,NA,NA,NA,NA,NA,false
s8Zwnzs1,3xabxm4ak4i034slkfn2gjsp1ra8qu,33iztu6j85e4i560btt1g2kaxicsxj,s8Zwnzs1,2020-0188,2020-06-04,17:33:44,18:00:27,NA,incomplete,54,color,1,1,right,Red_Circle_Dots_2.jpg,Green_Plus_Dots_4.jpg,Red_Star_Chess_1.jpg,right,480.91500000003725,true,low,NA,NA,NA,NA,NA,NA,NA,false
s8Zwnzs1,3xabxm4ak4i034slkfn2gjsp1ra8qu,33iztu6j85e4i560btt1g2kaxicsxj,s8Zwnzs1,2020-0188,2020-06-04,17:33:44,18:00:27,NA,incomplete,55,color,1,0,right,Purple_Triangle_Grid_3.jpg,Red_Star_Grid_4.jpg,Purple_Circle_Dots_2.jpg,right,445.11500000045635,true,low,NA,NA,NA,NA,NA,NA,NA,false
s8Zwnzs1,3xabxm4ak4i034slkfn2gjsp1ra8qu,33iztu6j85e4i560btt1g2kaxicsxj,s8Zwnzs1,2020-0188,2020-06-04,17:33:44,18:00:27,NA,incomplete,56,color,1,0,right,Red_Triangle_Dots_3.jpg,Purple_Star_Dots_2.jpg,Red_Plus_Chess_1.jpg,right,473.42500000004657,true,low,NA,NA,NA,NA,NA,NA,NA,false
s8Zwnzs1,3xabxm4ak4i034slkfn2gjsp1ra8qu,33iztu6j85e4i560btt1g2kaxicsxj,s8Zwnzs1,2020-0188,2020-06-04,17:33:44,18:00:27,NA,incomplete,57,color,1,0,right,Green_Star_Chess_2.jpg,Red_Circle_Chess_1.jpg,Green_Plus_Stripes_3.jpg,right,589.0550000004005,true,low,NA,NA,NA,NA,NA,NA,NA,false
s8Zwnzs1,3xabxm4ak4i034slkfn2gjsp1ra8qu,33iztu6j85e4i560btt1g2kaxicsxj,s8Zwnzs1,2020-0188,2020-06-04,17:33:44,18:00:27,NA,incomplete,58,color,1,1,right,Green_Circle_Stripes_2.jpg,Purple_Triangle_Stripes_1.jpg,Green_Plus_Dots_3.jpg,left,720.5450000001583,false,low,NA,NA,NA,NA,NA,NA,NA,false
s8Zwnzs1,3xabxm4ak4i034slkfn2gjsp1ra8qu,33iztu6j85e4i560btt1g2kaxicsxj,s8Zwnzs1,2020-0188,2020-06-04,17:33:44,18:00:27,NA,incomplete,59,color,1,0,left,Blue_Circle_Grid_1.jpg,Blue_Triangle_Chess_4.jpg,Purple_Star_Grid_3.jpg,right,945.195000000298,false,low,NA,NA,NA,NA,NA,NA,NA,false
s8Zwnzs1,3xabxm4ak4i034slkfn2gjsp1ra8qu,33iztu6j85e4i560btt1g2kaxicsxj,s8Zwnzs1,2020-0188,2020-06-04,17:33:44,18:00:27,NA,incomplete,60,filling,0,1,left,Green_Triangle_Grid_1.jpg,Blue_Star_Grid_3.jpg,Green_Circle_Stripes_4.jpg,left,1004.1899999994785,true,low,NA,NA,NA,NA,NA,NA,NA,false
s8Zwnzs1,3xabxm4ak4i034slkfn2gjsp1ra8qu,33iztu6j85e4i560btt1g2kaxicsxj,s8Zwnzs1,2020-0188,2020-06-04,17:33:44,18:00:27,NA,incomplete,61,filling,0,1,right,Green_Circle_Grid_1.jpg,Green_Star_Chess_3.jpg,Blue_Plus_Grid_2.jpg,right,760.1149999992922,true,low,NA,NA,NA,NA,NA,NA,NA,false
s8Zwnzs1,3xabxm4ak4i034slkfn2gjsp1ra8qu,33iztu6j85e4i560btt1g2kaxicsxj,s8Zwnzs1,2020-0188,2020-06-04,17:33:44,18:00:27,NA,incomplete,62,filling,0,1,left,Red_Triangle_Chess_2.jpg,Purple_Circle_Chess_1.jpg,Red_Star_Grid_4.jpg,left,595.4349999993574,true,low,NA,NA,NA,NA,NA,NA,NA,false
s8Zwnzs1,3xabxm4ak4i034slkfn2gjsp1ra8qu,33iztu6j85e4i560btt1g2kaxicsxj,s8Zwnzs1,2020-0188,2020-06-04,17:33:44,18:00:27,NA,incomplete,63,filling,0,0,left,Red_Circle_Chess_4.jpg,Blue_Star_Chess_3.jpg,Red_Triangle_Stripes_2.jpg,left,725.0600000007544,true,low,NA,NA,NA,NA,NA,NA,NA,false
s8Zwnzs1,3xabxm4ak4i034slkfn2gjsp1ra8qu,33iztu6j85e4i560btt1g2kaxicsxj,s8Zwnzs1,2020-0188,2020-06-04,17:33:44,18:00:27,NA,incomplete,64,filling,0,1,right,Green_Circle_Chess_4.jpg,Green_Triangle_Grid_1.jpg,Blue_Plus_Chess_2.jpg,right,679.4699999990407,true,low,NA,NA,NA,NA,NA,NA,NA,false
s8Zwnzs1,3xabxm4ak4i034slkfn2gjsp1ra8qu,33iztu6j85e4i560btt1g2kaxicsxj,s8Zwnzs1,2020-0188,2020-06-04,17:33:44,18:00:27,NA,incomplete,65,filling,0,1,left,Red_Plus_Grid_4.jpg,Purple_Circle_Grid_1.jpg,Red_Triangle_Dots_2.jpg,left,742.4050000007264,true,low,NA,NA,NA,NA,NA,NA,NA,false
s8Zwnzs1,3xabxm4ak4i034slkfn2gjsp1ra8qu,33iztu6j85e4i560btt1g2kaxicsxj,s8Zwnzs1,2020-0188,2020-06-04,17:33:44,18:00:27,NA,incomplete,66,filling,0,0,left,Blue_Circle_Stripes_1.jpg,Green_Plus_Stripes_4.jpg,Blue_Star_Dots_2.jpg,left,688.1100000010338,true,low,NA,NA,NA,NA,NA,NA,NA,false
s8Zwnzs1,3xabxm4ak4i034slkfn2gjsp1ra8qu,33iztu6j85e4i560btt1g2kaxicsxj,s8Zwnzs1,2020-0188,2020-06-04,17:33:44,18:00:27,NA,incomplete,67,filling,0,1,left,Blue_Triangle_Stripes_4.jpg,Green_Star_Stripes_1.jpg,Blue_Plus_Dots_3.jpg,left,713.2450000008103,true,low,NA,NA,NA,NA,NA,NA,NA,false
s8Zwnzs1,3xabxm4ak4i034slkfn2gjsp1ra8qu,33iztu6j85e4i560btt1g2kaxicsxj,s8Zwnzs1,2020-0188,2020-06-04,17:33:44,18:00:27,NA,incomplete,68,filling,0,1,left,Red_Plus_Grid_4.jpg,Green_Circle_Grid_1.jpg,Red_Triangle_Dots_2.jpg,left,704.8950000007171,true,low,NA,NA,NA,NA,NA,NA,NA,false
s8Zwnzs1,3xabxm4ak4i034slkfn2gjsp1ra8qu,33iztu6j85e4i560btt1g2kaxicsxj,s8Zwnzs1,2020-0188,2020-06-04,17:33:44,18:00:27,NA,incomplete,69,filling,0,1,right,Red_Star_Grid_2.jpg,Red_Triangle_Chess_3.jpg,Blue_Circle_Grid_1.jpg,right,781.4249999991152,true,low,NA,NA,NA,NA,NA,NA,NA,false
s8Zwnzs1,3xabxm4ak4i034slkfn2gjsp1ra8qu,33iztu6j85e4i560btt1g2kaxicsxj,s8Zwnzs1,2020-0188,2020-06-04,17:33:44,18:00:27,NA,incomplete,70,filling,0,1,right,Purple_Triangle_Chess_2.jpg,Purple_Star_Stripes_4.jpg,Green_Plus_Chess_1.jpg,right,678.3950000007171,true,low,NA,NA,NA,NA,NA,NA,NA,false
s8Zwnzs1,3xabxm4ak4i034slkfn2gjsp1ra8qu,33iztu6j85e4i560btt1g2kaxicsxj,s8Zwnzs1,2020-0188,2020-06-04,17:33:44,18:00:27,NA,incomplete,71,filling,0,1,right,Blue_Circle_Chess_3.jpg,Blue_Star_Stripes_4.jpg,Green_Plus_Chess_1.jpg,right,870.0249999985099,true,low,NA,NA,NA,NA,NA,NA,NA,false
s8Zwnzs1,3xabxm4ak4i034slkfn2gjsp1ra8qu,33iztu6j85e4i560btt1g2kaxicsxj,s8Zwnzs1,2020-0188,2020-06-04,17:33:44,18:00:27,NA,incomplete,72,filling,0,1,right,Purple_Plus_Stripes_3.jpg,Purple_Star_Grid_1.jpg,Blue_Triangle_Stripes_2.jpg,right,798.3800000001211,true,low,NA,NA,NA,NA,NA,NA,NA,false
s8Zwnzs1,3xabxm4ak4i034slkfn2gjsp1ra8qu,33iztu6j85e4i560btt1g2kaxicsxj,s8Zwnzs1,2020-0188,2020-06-04,17:33:44,18:00:27,NA,incomplete,73,filling,0,1,right,Purple_Star_Stripes_2.jpg,Purple_Circle_Grid_4.jpg,Blue_Plus_Stripes_1.jpg,right,749.9799999985844,true,low,NA,NA,NA,NA,NA,NA,NA,false
s8Zwnzs1,3xabxm4ak4i034slkfn2gjsp1ra8qu,33iztu6j85e4i560btt1g2kaxicsxj,s8Zwnzs1,2020-0188,2020-06-04,17:33:44,18:00:27,NA,incomplete,74,filling,0,1,right,Purple_Star_Stripes_2.jpg,Purple_Circle_Grid_1.jpg,Green_Triangle_Stripes_3.jpg,left,824.3750000002328,false,low,NA,NA,NA,NA,NA,NA,NA,false
s8Zwnzs1,3xabxm4ak4i034slkfn2gjsp1ra8qu,33iztu6j85e4i560btt1g2kaxicsxj,s8Zwnzs1,2020-0188,2020-06-04,17:33:44,18:00:27,NA,incomplete,75,filling,0,1,right,Red_Circle_Chess_1.jpg,Red_Plus_Stripes_2.jpg,Blue_Star_Chess_4.jpg,right,751.0199999997858,true,low,NA,NA,NA,NA,NA,NA,NA,false
s8Zwnzs1,3xabxm4ak4i034slkfn2gjsp1ra8qu,33iztu6j85e4i560btt1g2kaxicsxj,s8Zwnzs1,2020-0188,2020-06-04,17:33:44,18:00:27,NA,incomplete,76,filling,0,0,left,Purple_Plus_Stripes_1.jpg,Red_Circle_Stripes_4.jpg,Purple_Triangle_Chess_2.jpg,left,777.9100000006147,true,low,NA,NA,NA,NA,NA,NA,NA,false
s8Zwnzs1,3xabxm4ak4i034slkfn2gjsp1ra8qu,33iztu6j85e4i560btt1g2kaxicsxj,s8Zwnzs1,2020-0188,2020-06-04,17:33:44,18:00:27,NA,incomplete,77,filling,0,0,left,Purple_Star_Chess_3.jpg,Green_Circle_Chess_1.jpg,Purple_Triangle_Stripes_4.jpg,left,827.0400000002701,true,low,NA,NA,NA,NA,NA,NA,NA,false
s8Zwnzs1,3xabxm4ak4i034slkfn2gjsp1ra8qu,33iztu6j85e4i560btt1g2kaxicsxj,s8Zwnzs1,2020-0188,2020-06-04,17:33:44,18:00:27,NA,incomplete,78,filling,0,1,left,Green_Triangle_Stripes_2.jpg,Red_Plus_Stripes_3.jpg,Green_Circle_Chess_1.jpg,right,545.4750000007916,false,low,NA,NA,NA,NA,NA,NA,NA,false
s8Zwnzs1,3xabxm4ak4i034slkfn2gjsp1ra8qu,33iztu6j85e4i560btt1g2kaxicsxj,s8Zwnzs1,2020-0188,2020-06-04,17:33:44,18:00:27,NA,incomplete,79,filling,0,0,left,Purple_Plus_Chess_1.jpg,Red_Star_Chess_3.jpg,Purple_Circle_Dots_2.jpg,left,686.8199999991339,true,low,NA,NA,NA,NA,NA,NA,NA,false
s8Zwnzs1,3xabxm4ak4i034slkfn2gjsp1ra8qu,33iztu6j85e4i560btt1g2kaxicsxj,s8Zwnzs1,2020-0188,2020-06-04,17:33:44,18:00:27,NA,incomplete,80,filling,0,1,left,Green_Circle_Stripes_3.jpg,Red_Triangle_Stripes_4.jpg,Green_Star_Chess_2.jpg,right,817.9199999996927,false,low,NA,NA,NA,NA,NA,NA,NA,false
s8Zwnzs1,3xabxm4ak4i034slkfn2gjsp1ra8qu,33iztu6j85e4i560btt1g2kaxicsxj,s8Zwnzs1,2020-0188,2020-06-04,17:33:44,18:00:27,NA,incomplete,81,filling,0,1,right,Purple_Star_Chess_3.jpg,Purple_Circle_Grid_4.jpg,Red_Triangle_Chess_2.jpg,right,955.3749999995343,true,low,NA,NA,NA,NA,NA,NA,NA,false
s8Zwnzs1,3xabxm4ak4i034slkfn2gjsp1ra8qu,33iztu6j85e4i560btt1g2kaxicsxj,s8Zwnzs1,2020-0188,2020-06-04,17:33:44,18:00:27,NA,incomplete,82,filling,0,1,left,Red_Triangle_Dots_2.jpg,Green_Circle_Dots_1.jpg,Red_Plus_Grid_3.jpg,left,853.7399999985937,true,low,NA,NA,NA,NA,NA,NA,NA,false
s8Zwnzs1,3xabxm4ak4i034slkfn2gjsp1ra8qu,33iztu6j85e4i560btt1g2kaxicsxj,s8Zwnzs1,2020-0188,2020-06-04,17:33:44,18:00:27,NA,incomplete,83,filling,0,1,right,Red_Plus_Chess_2.jpg,Red_Triangle_Dots_3.jpg,Blue_Star_Chess_1.jpg,right,775.9499999994878,true,low,NA,NA,NA,NA,NA,NA,NA,false
s8Zwnzs1,3xabxm4ak4i034slkfn2gjsp1ra8qu,33iztu6j85e4i560btt1g2kaxicsxj,s8Zwnzs1,2020-0188,2020-06-04,17:33:44,18:00:27,NA,incomplete,84,filling,0,1,left,Purple_Circle_Grid_2.jpg,Red_Triangle_Grid_1.jpg,Purple_Plus_Dots_3.jpg,left,791.4249999993481,true,low,NA,NA,NA,NA,NA,NA,NA,false
s8Zwnzs1,3xabxm4ak4i034slkfn2gjsp1ra8qu,33iztu6j85e4i560btt1g2kaxicsxj,s8Zwnzs1,2020-0188,2020-06-04,17:33:44,18:00:27,NA,incomplete,85,filling,0,1,left,Green_Triangle_Chess_4.jpg,Purple_Circle_Chess_3.jpg,Green_Star_Stripes_2.jpg,left,716.9200000008568,true,low,NA,NA,NA,NA,NA,NA,NA,false
s8Zwnzs1,3xabxm4ak4i034slkfn2gjsp1ra8qu,33iztu6j85e4i560btt1g2kaxicsxj,s8Zwnzs1,2020-0188,2020-06-04,17:33:44,18:00:27,NA,incomplete,86,filling,0,1,left,Red_Star_Grid_3.jpg,Blue_Plus_Grid_4.jpg,Red_Circle_Dots_1.jpg,left,757.9249999998137,true,low,NA,NA,NA,NA,NA,NA,NA,false
s8Zwnzs1,3xabxm4ak4i034slkfn2gjsp1ra8qu,33iztu6j85e4i560btt1g2kaxicsxj,s8Zwnzs1,2020-0188,2020-06-04,17:33:44,18:00:27,NA,incomplete,87,filling,0,1,right,Purple_Plus_Stripes_3.jpg,Purple_Triangle_Dots_1.jpg,Blue_Star_Stripes_2.jpg,right,644.3199999993667,true,low,NA,NA,NA,NA,NA,NA,NA,false
s8Zwnzs1,3xabxm4ak4i034slkfn2gjsp1ra8qu,33iztu6j85e4i560btt1g2kaxicsxj,s8Zwnzs1,2020-0188,2020-06-04,17:33:44,18:00:27,NA,incomplete,88,filling,0,1,right,Blue_Circle_Dots_3.jpg,Blue_Plus_Chess_4.jpg,Purple_Star_Dots_1.jpg,right,753.4599999997299,true,low,NA,NA,NA,NA,NA,NA,NA,false
s8Zwnzs1,3xabxm4ak4i034slkfn2gjsp1ra8qu,33iztu6j85e4i560btt1g2kaxicsxj,s8Zwnzs1,2020-0188,2020-06-04,17:33:44,18:00:27,NA,incomplete,89,filling,0,1,right,Blue_Triangle_Dots_3.jpg,Blue_Star_Chess_1.jpg,Green_Plus_Dots_2.jpg,right,764.8150000004098,true,low,NA,NA,NA,NA,NA,NA,NA,false
s8Zwnzs1,3xabxm4ak4i034slkfn2gjsp1ra8qu,33iztu6j85e4i560btt1g2kaxicsxj,s8Zwnzs1,2020-0188,2020-06-04,17:33:44,18:00:27,NA,incomplete,90,color,1,1,left,Purple_Triangle_Grid_4.jpg,Purple_Plus_Dots_1.jpg,Green_Star_Grid_3.jpg,right,750.0399999991059,false,low,NA,NA,NA,NA,NA,NA,NA,false
s8Zwnzs1,3xabxm4ak4i034slkfn2gjsp1ra8qu,33iztu6j85e4i560btt1g2kaxicsxj,s8Zwnzs1,2020-0188,2020-06-04,17:33:44,18:00:27,NA,incomplete,91,color,1,1,right,Red_Circle_Grid_2.jpg,Green_Triangle_Grid_1.jpg,Red_Star_Chess_3.jpg,left,701.5699999993667,false,low,NA,NA,NA,NA,NA,NA,NA,false
s8Zwnzs1,3xabxm4ak4i034slkfn2gjsp1ra8qu,33iztu6j85e4i560btt1g2kaxicsxj,s8Zwnzs1,2020-0188,2020-06-04,17:33:44,18:00:27,NA,incomplete,92,color,1,1,left,Blue_Plus_Grid_3.jpg,Blue_Triangle_Stripes_1.jpg,Red_Circle_Grid_2.jpg,right,864.7899999995716,false,low,NA,NA,NA,NA,NA,NA,NA,false
s8Zwnzs1,3xabxm4ak4i034slkfn2gjsp1ra8qu,33iztu6j85e4i560btt1g2kaxicsxj,s8Zwnzs1,2020-0188,2020-06-04,17:33:44,18:00:27,NA,incomplete,93,color,1,1,right,Purple_Plus_Grid_2.jpg,Blue_Circle_Grid_1.jpg,Purple_Triangle_Stripes_3.jpg,right,648.9750000000931,true,low,NA,NA,NA,NA,NA,NA,NA,false
s8Zwnzs1,3xabxm4ak4i034slkfn2gjsp1ra8qu,33iztu6j85e4i560btt1g2kaxicsxj,s8Zwnzs1,2020-0188,2020-06-04,17:33:44,18:00:27,NA,incomplete,94,color,1,1,right,Red_Circle_Chess_3.jpg,Blue_Plus_Chess_1.jpg,Red_Triangle_Dots_2.jpg,right,535.765000000596,true,low,NA,NA,NA,NA,NA,NA,NA,false
s8Zwnzs1,3xabxm4ak4i034slkfn2gjsp1ra8qu,33iztu6j85e4i560btt1g2kaxicsxj,s8Zwnzs1,2020-0188,2020-06-04,17:33:44,18:00:27,NA,incomplete,95,color,1,1,left,Purple_Triangle_Stripes_4.jpg,Purple_Circle_Dots_2.jpg,Green_Star_Stripes_1.jpg,left,644.2649999989662,true,low,NA,NA,NA,NA,NA,NA,NA,false
s8Zwnzs1,3xabxm4ak4i034slkfn2gjsp1ra8qu,33iztu6j85e4i560btt1g2kaxicsxj,s8Zwnzs1,2020-0188,2020-06-04,17:33:44,18:00:27,NA,incomplete,96,color,1,1,left,Blue_Star_Stripes_1.jpg,Blue_Circle_Dots_2.jpg,Red_Triangle_Stripes_3.jpg,left,546.1649999998044,true,low,NA,NA,NA,NA,NA,NA,NA,false
s8Zwnzs1,3xabxm4ak4i034slkfn2gjsp1ra8qu,33iztu6j85e4i560btt1g2kaxicsxj,s8Zwnzs1,2020-0188,2020-06-04,17:33:44,18:00:27,NA,incomplete,97,color,1,1,right,Red_Circle_Chess_4.jpg,Green_Star_Chess_1.jpg,Red_Triangle_Stripes_2.jpg,right,452.20500000123866,true,low,NA,NA,NA,NA,NA,NA,NA,false
s8Zwnzs1,3xabxm4ak4i034slkfn2gjsp1ra8qu,33iztu6j85e4i560btt1g2kaxicsxj,s8Zwnzs1,2020-0188,2020-06-04,17:33:44,18:00:27,NA,incomplete,98,color,1,1,left,Red_Plus_Stripes_2.jpg,Red_Star_Dots_3.jpg,Green_Triangle_Stripes_4.jpg,left,532.3100000005215,true,low,NA,NA,NA,NA,NA,NA,NA,false
s8Zwnzs1,3xabxm4ak4i034slkfn2gjsp1ra8qu,33iztu6j85e4i560btt1g2kaxicsxj,s8Zwnzs1,2020-0188,2020-06-04,17:33:44,18:00:27,NA,incomplete,99,color,1,1,right,Blue_Star_Dots_4.jpg,Red_Triangle_Dots_3.jpg,Blue_Plus_Grid_1.jpg,right,535.9900000002235,true,low,NA,NA,NA,NA,NA,NA,NA,false
s8Zwnzs1,3xabxm4ak4i034slkfn2gjsp1ra8qu,33iztu6j85e4i560btt1g2kaxicsxj,s8Zwnzs1,2020-0188,2020-06-04,17:33:44,18:00:27,NA,incomplete,100,color,1,1,left,Green_Star_Grid_4.jpg,Green_Triangle_Chess_3.jpg,Red_Circle_Grid_1.jpg,left,628.3450000009034,true,low,NA,NA,NA,NA,NA,NA,NA,false
s8Zwnzs1,3xabxm4ak4i034slkfn2gjsp1ra8qu,33iztu6j85e4i560btt1g2kaxicsxj,s8Zwnzs1,2020-0188,2020-06-04,17:33:44,18:00:27,NA,incomplete,101,color,1,1,right,Purple_Circle_Stripes_4.jpg,Blue_Star_Stripes_1.jpg,Purple_Triangle_Grid_2.jpg,right,418.40500000026077,true,low,NA,NA,NA,NA,NA,NA,NA,false
s8Zwnzs1,3xabxm4ak4i034slkfn2gjsp1ra8qu,33iztu6j85e4i560btt1g2kaxicsxj,s8Zwnzs1,2020-0188,2020-06-04,17:33:44,18:00:27,NA,incomplete,102,color,1,0,right,Green_Circle_Dots_3.jpg,Purple_Star_Dots_4.jpg,Green_Triangle_Chess_1.jpg,right,502.41499999910593,true,low,NA,NA,NA,NA,NA,NA,NA,false
s8Zwnzs1,3xabxm4ak4i034slkfn2gjsp1ra8qu,33iztu6j85e4i560btt1g2kaxicsxj,s8Zwnzs1,2020-0188,2020-06-04,17:33:44,18:00:27,NA,incomplete,103,color,1,1,left,Blue_Star_Grid_2.jpg,Blue_Circle_Stripes_4.jpg,Red_Triangle_Grid_3.jpg,left,436.47500000032596,true,low,NA,NA,NA,NA,NA,NA,NA,false
s8Zwnzs1,3xabxm4ak4i034slkfn2gjsp1ra8qu,33iztu6j85e4i560btt1g2kaxicsxj,s8Zwnzs1,2020-0188,2020-06-04,17:33:44,18:00:27,NA,incomplete,104,color,1,0,left,Purple_Star_Stripes_3.jpg,Purple_Triangle_Chess_2.jpg,Red_Plus_Stripes_1.jpg,left,437.79500000178814,true,low,NA,NA,NA,NA,NA,NA,NA,false
s8Zwnzs1,3xabxm4ak4i034slkfn2gjsp1ra8qu,33iztu6j85e4i560btt1g2kaxicsxj,s8Zwnzs1,2020-0188,2020-06-04,17:33:44,18:00:27,NA,incomplete,105,color,1,1,right,Red_Star_Chess_1.jpg,Green_Circle_Chess_4.jpg,Red_Plus_Dots_3.jpg,right,537.2899999984074,true,low,NA,NA,NA,NA,NA,NA,NA,false
s8Zwnzs1,3xabxm4ak4i034slkfn2gjsp1ra8qu,33iztu6j85e4i560btt1g2kaxicsxj,s8Zwnzs1,2020-0188,2020-06-04,17:33:44,18:00:27,NA,incomplete,106,color,1,1,right,Blue_Circle_Dots_3.jpg,Purple_Star_Dots_1.jpg,Blue_Plus_Chess_4.jpg,right,485.679999999702,true,low,NA,NA,NA,NA,NA,NA,NA,false
s8Zwnzs1,3xabxm4ak4i034slkfn2gjsp1ra8qu,33iztu6j85e4i560btt1g2kaxicsxj,s8Zwnzs1,2020-0188,2020-06-04,17:33:44,18:00:27,NA,incomplete,107,color,1,1,right,Purple_Triangle_Dots_2.jpg,Blue_Star_Dots_4.jpg,Purple_Circle_Grid_1.jpg,right,491.76499999896623,true,low,NA,NA,NA,NA,NA,NA,NA,false
s8Zwnzs1,3xabxm4ak4i034slkfn2gjsp1ra8qu,33iztu6j85e4i560btt1g2kaxicsxj,s8Zwnzs1,2020-0188,2020-06-04,17:33:44,18:00:27,NA,incomplete,108,color,1,0,right,Green_Star_Stripes_1.jpg,Blue_Plus_Stripes_4.jpg,Green_Triangle_Chess_2.jpg,right,450.3299999998417,true,low,NA,NA,NA,NA,NA,NA,NA,false
s8Zwnzs1,3xabxm4ak4i034slkfn2gjsp1ra8qu,33iztu6j85e4i560btt1g2kaxicsxj,s8Zwnzs1,2020-0188,2020-06-04,17:33:44,18:00:27,NA,incomplete,109,color,1,1,right,Red_Plus_Stripes_2.jpg,Green_Triangle_Stripes_1.jpg,Red_Circle_Chess_3.jpg,right,504.0599999993574,true,low,NA,NA,NA,NA,NA,NA,NA,false
s8Zwnzs1,3xabxm4ak4i034slkfn2gjsp1ra8qu,33iztu6j85e4i560btt1g2kaxicsxj,s8Zwnzs1,2020-0188,2020-06-04,17:33:44,18:00:27,NA,incomplete,110,color,1,0,left,Red_Circle_Chess_4.jpg,Red_Star_Grid_1.jpg,Blue_Triangle_Chess_3.jpg,left,535.4649999991525,true,low,NA,NA,NA,NA,NA,NA,NA,false
s8Zwnzs1,3xabxm4ak4i034slkfn2gjsp1ra8qu,33iztu6j85e4i560btt1g2kaxicsxj,s8Zwnzs1,2020-0188,2020-06-04,17:33:44,18:00:27,NA,incomplete,111,color,1,0,left,Blue_Circle_Dots_4.jpg,Blue_Triangle_Chess_1.jpg,Red_Plus_Dots_2.jpg,right,759.9300000001676,false,low,NA,NA,NA,NA,NA,NA,NA,false
s8Zwnzs1,3xabxm4ak4i034slkfn2gjsp1ra8qu,33iztu6j85e4i560btt1g2kaxicsxj,s8Zwnzs1,2020-0188,2020-06-04,17:33:44,18:00:27,NA,incomplete,112,color,1,1,left,Purple_Star_Stripes_1.jpg,Purple_Triangle_Grid_4.jpg,Green_Plus_Stripes_3.jpg,left,932.7599999997765,true,low,NA,NA,NA,NA,NA,NA,NA,false
s8Zwnzs1,3xabxm4ak4i034slkfn2gjsp1ra8qu,33iztu6j85e4i560btt1g2kaxicsxj,s8Zwnzs1,2020-0188,2020-06-04,17:33:44,18:00:27,NA,incomplete,113,color,1,1,left,Red_Circle_Dots_2.jpg,Red_Plus_Grid_1.jpg,Blue_Star_Dots_4.jpg,right,798.8499999991618,false,low,NA,NA,NA,NA,NA,NA,NA,false
s8Zwnzs1,3xabxm4ak4i034slkfn2gjsp1ra8qu,33iztu6j85e4i560btt1g2kaxicsxj,s8Zwnzs1,2020-0188,2020-06-04,17:33:44,18:00:27,NA,incomplete,114,color,1,0,right,Blue_Star_Stripes_4.jpg,Red_Circle_Stripes_2.jpg,Blue_Plus_Grid_3.jpg,left,899.1349999995437,false,low,NA,NA,NA,NA,NA,NA,NA,false
s8Zwnzs1,3xabxm4ak4i034slkfn2gjsp1ra8qu,33iztu6j85e4i560btt1g2kaxicsxj,s8Zwnzs1,2020-0188,2020-06-04,17:33:44,18:00:27,NA,incomplete,115,color,1,1,right,Red_Plus_Grid_2.jpg,Purple_Circle_Grid_4.jpg,Red_Star_Dots_1.jpg,left,832.9549999998417,false,low,NA,NA,NA,NA,NA,NA,NA,false
s8Zwnzs1,3xabxm4ak4i034slkfn2gjsp1ra8qu,33iztu6j85e4i560btt1g2kaxicsxj,s8Zwnzs1,2020-0188,2020-06-04,17:33:44,18:00:27,NA,incomplete,116,color,1,1,left,Blue_Plus_Dots_2.jpg,Blue_Star_Chess_3.jpg,Green_Triangle_Dots_4.jpg,right,717.8000000005122,false,low,NA,NA,NA,NA,NA,NA,NA,false
s8Zwnzs1,3xabxm4ak4i034slkfn2gjsp1ra8qu,33iztu6j85e4i560btt1g2kaxicsxj,s8Zwnzs1,2020-0188,2020-06-04,17:33:44,18:00:27,NA,incomplete,117,color,1,1,right,Blue_Triangle_Chess_1.jpg,Red_Circle_Chess_3.jpg,Blue_Plus_Grid_2.jpg,right,689.5600000007544,true,low,NA,NA,NA,NA,NA,NA,NA,false
s8Zwnzs1,3xabxm4ak4i034slkfn2gjsp1ra8qu,33iztu6j85e4i560btt1g2kaxicsxj,s8Zwnzs1,2020-0188,2020-06-04,17:33:44,18:00:27,NA,incomplete,118,color,1,1,left,Blue_Circle_Grid_3.jpg,Blue_Star_Stripes_4.jpg,Green_Triangle_Grid_1.jpg,left,514.9850000017323,true,low,NA,NA,NA,NA,NA,NA,NA,false
s8Zwnzs1,3xabxm4ak4i034slkfn2gjsp1ra8qu,33iztu6j85e4i560btt1g2kaxicsxj,s8Zwnzs1,2020-0188,2020-06-04,17:33:44,18:00:27,NA,incomplete,119,color,1,1,right,Red_Triangle_Stripes_2.jpg,Green_Circle_Stripes_3.jpg,Red_Plus_Dots_4.jpg,right,544.6999999985565,true,low,NA,NA,NA,NA,NA,NA,NA,false
s8Zwnzs1,3xabxm4ak4i034slkfn2gjsp1ra8qu,33iztu6j85e4i560btt1g2kaxicsxj,s8Zwnzs1,2020-0188,2020-06-04,17:33:44,18:00:27,NA,incomplete,120,gender,2,1,left,A_M_16.jpg,C_M_02.jpg,A_F_06.jpg,NA,NA,NA,low,NA,NA,NA,NA,NA,NA,NA,false
s8Zwnzs1,3xabxm4ak4i034slkfn2gjsp1ra8qu,33iztu6j85e4i560btt1g2kaxicsxj,s8Zwnzs1,2020-0188,2020-06-04,17:33:44,18:00:27,NA,incomplete,121,gender,2,1,right,A_M_10.jpg,A_F_06.jpg,C_M_16.jpg,none,0,false,low,NA,NA,NA,NA,NA,NA,NA,false
s8Zwnzs1,3xabxm4ak4i034slkfn2gjsp1ra8qu,33iztu6j85e4i560btt1g2kaxicsxj,s8Zwnzs1,2020-0188,2020-06-04,17:33:44,18:00:27,NA,incomplete,122,gender,2,1,right,C_F_08.jpg,C_M_05.jpg,A_F_13.jpg,right,1008.6350000002421,true,low,NA,NA,NA,NA,NA,NA,NA,false
s8Zwnzs1,3xabxm4ak4i034slkfn2gjsp1ra8qu,33iztu6j85e4i560btt1g2kaxicsxj,s8Zwnzs1,2020-0188,2020-06-04,17:33:44,18:00:27,NA,incomplete,123,gender,2,1,right,C_F_15.jpg,C_M_08.jpg,A_F_09.jpg,right,580.0899999993853,true,low,NA,NA,NA,NA,NA,NA,NA,false
s8Zwnzs1,3xabxm4ak4i034slkfn2gjsp1ra8qu,33iztu6j85e4i560btt1g2kaxicsxj,s8Zwnzs1,2020-0188,2020-06-04,17:33:44,18:00:27,NA,incomplete,124,gender,2,0,left,A_F_10.jpg,C_F_12.jpg,A_M_03.jpg,left,1099.2999999998137,true,low,NA,NA,NA,NA,NA,NA,NA,false
s8Zwnzs1,3xabxm4ak4i034slkfn2gjsp1ra8qu,33iztu6j85e4i560btt1g2kaxicsxj,s8Zwnzs1,2020-0188,2020-06-04,17:33:44,18:00:27,NA,incomplete,125,gender,2,1,right,C_F_13.jpg,C_M_03.jpg,A_F_10.jpg,left,1098.2949999996927,false,low,NA,NA,NA,NA,NA,NA,NA,false
s8Zwnzs1,3xabxm4ak4i034slkfn2gjsp1ra8qu,33iztu6j85e4i560btt1g2kaxicsxj,s8Zwnzs1,2020-0188,2020-06-04,17:33:44,18:00:27,NA,incomplete,126,gender,2,0,right,C_F_02.jpg,C_M_11.jpg,A_F_03.jpg,right,621.3599999973085,true,low,NA,NA,NA,NA,NA,NA,NA,false
s8Zwnzs1,3xabxm4ak4i034slkfn2gjsp1ra8qu,33iztu6j85e4i560btt1g2kaxicsxj,s8Zwnzs1,2020-0188,2020-06-04,17:33:44,18:00:27,NA,incomplete,127,gender,2,1,left,C_F_03.jpg,A_F_02.jpg,C_M_04.jpg,right,804.0550000006333,false,low,NA,NA,NA,NA,NA,NA,NA,false
s8Zwnzs1,3xabxm4ak4i034slkfn2gjsp1ra8qu,33iztu6j85e4i560btt1g2kaxicsxj,s8Zwnzs1,2020-0188,2020-06-04,17:33:44,18:00:27,NA,incomplete,128,gender,2,1,right,A_M_03.jpg,A_F_09.jpg,C_M_11.jpg,left,1011.6899999994785,false,low,NA,NA,NA,NA,NA,NA,NA,false
s8Zwnzs1,3xabxm4ak4i034slkfn2gjsp1ra8qu,33iztu6j85e4i560btt1g2kaxicsxj,s8Zwnzs1,2020-0188,2020-06-04,17:33:44,18:00:27,NA,incomplete,129,gender,2,0,left,C_F_02.jpg,A_F_01.jpg,C_M_04.jpg,right,983.4300000004005,false,low,NA,NA,NA,NA,NA,NA,NA,false
s8Zwnzs1,3xabxm4ak4i034slkfn2gjsp1ra8qu,33iztu6j85e4i560btt1g2kaxicsxj,s8Zwnzs1,2020-0188,2020-06-04,17:33:44,18:00:27,NA,incomplete,130,gender,2,1,left,C_F_05.jpg,A_F_01.jpg,C_M_07.jpg,right,996.8450000016019,false,low,NA,NA,NA,NA,NA,NA,NA,false
s8Zwnzs1,3xabxm4ak4i034slkfn2gjsp1ra8qu,33iztu6j85e4i560btt1g2kaxicsxj,s8Zwnzs1,2020-0188,2020-06-04,17:33:44,18:00:27,NA,incomplete,131,gender,2,0,right,C_M_05.jpg,C_F_02.jpg,A_M_06.jpg,left,1055.524999999674,false,low,NA,NA,NA,NA,NA,NA,NA,false
s8Zwnzs1,3xabxm4ak4i034slkfn2gjsp1ra8qu,33iztu6j85e4i560btt1g2kaxicsxj,s8Zwnzs1,2020-0188,2020-06-04,17:33:44,18:00:27,NA,incomplete,132,gender,2,1,left,C_F_16.jpg,A_F_14.jpg,C_M_02.jpg,left,987.5800000010058,true,low,NA,NA,NA,NA,NA,NA,NA,false
s8Zwnzs1,3xabxm4ak4i034slkfn2gjsp1ra8qu,33iztu6j85e4i560btt1g2kaxicsxj,s8Zwnzs1,2020-0188,2020-06-04,17:33:44,18:00:27,NA,incomplete,133,gender,2,0,left,C_F_02.jpg,A_F_09.jpg,C_M_13.jpg,left,1110.8299999977462,true,low,NA,NA,NA,NA,NA,NA,NA,false
s8Zwnzs1,3xabxm4ak4i034slkfn2gjsp1ra8qu,33iztu6j85e4i560btt1g2kaxicsxj,s8Zwnzs1,2020-0188,2020-06-04,17:33:44,18:00:27,NA,incomplete,134,gender,2,1,right,A_M_03.jpg,A_F_04.jpg,C_M_15.jpg,left,1022.7200000009034,false,low,NA,NA,NA,NA,NA,NA,NA,false
s8Zwnzs1,3xabxm4ak4i034slkfn2gjsp1ra8qu,33iztu6j85e4i560btt1g2kaxicsxj,s8Zwnzs1,2020-0188,2020-06-04,17:33:44,18:00:27,NA,incomplete,135,gender,2,1,right,C_M_15.jpg,C_F_10.jpg,A_M_06.jpg,right,1193.5849999974016,true,low,NA,NA,NA,NA,NA,NA,NA,false
s8Zwnzs1,3xabxm4ak4i034slkfn2gjsp1ra8qu,33iztu6j85e4i560btt1g2kaxicsxj,s8Zwnzs1,2020-0188,2020-06-04,17:33:44,18:00:27,NA,incomplete,136,gender,2,1,left,C_M_12.jpg,A_M_15.jpg,C_F_01.jpg,right,818.3850000023376,false,low,NA,NA,NA,NA,NA,NA,NA,false
s8Zwnzs1,3xabxm4ak4i034slkfn2gjsp1ra8qu,33iztu6j85e4i560btt1g2kaxicsxj,s8Zwnzs1,2020-0188,2020-06-04,17:33:44,18:00:27,NA,incomplete,137,gender,2,1,right,A_M_07.jpg,A_F_03.jpg,C_M_01.jpg,left,837.4050000021234,false,low,NA,NA,NA,NA,NA,NA,NA,false
s8Zwnzs1,3xabxm4ak4i034slkfn2gjsp1ra8qu,33iztu6j85e4i560btt1g2kaxicsxj,s8Zwnzs1,2020-0188,2020-06-04,17:33:44,18:00:27,NA,incomplete,138,gender,2,1,left,C_F_01.jpg,A_F_02.jpg,C_M_13.jpg,right,1033.8400000000838,false,low,NA,NA,NA,NA,NA,NA,NA,false
s8Zwnzs1,3xabxm4ak4i034slkfn2gjsp1ra8qu,33iztu6j85e4i560btt1g2kaxicsxj,s8Zwnzs1,2020-0188,2020-06-04,17:33:44,18:00:27,NA,incomplete,139,gender,2,1,left,A_F_12.jpg,C_F_08.jpg,A_M_09.jpg,left,845.1549999990966,true,low,NA,NA,NA,NA,NA,NA,NA,false
s8Zwnzs1,3xabxm4ak4i034slkfn2gjsp1ra8qu,33iztu6j85e4i560btt1g2kaxicsxj,s8Zwnzs1,2020-0188,2020-06-04,17:33:44,18:00:27,NA,incomplete,140,race,3,0,left,C_M_07.jpg,C_F_09.jpg,A_M_16.jpg,right,1556.9200000027195,false,low,NA,NA,NA,NA,NA,NA,NA,false
s8Zwnzs1,3xabxm4ak4i034slkfn2gjsp1ra8qu,33iztu6j85e4i560btt1g2kaxicsxj,s8Zwnzs1,2020-0188,2020-06-04,17:33:44,18:00:27,NA,incomplete,141,race,3,1,right,C_M_09.jpg,A_M_04.jpg,C_F_10.jpg,left,1116.7950000015553,false,low,NA,NA,NA,NA,NA,NA,NA,false
s8Zwnzs1,3xabxm4ak4i034slkfn2gjsp1ra8qu,33iztu6j85e4i560btt1g2kaxicsxj,s8Zwnzs1,2020-0188,2020-06-04,17:33:44,18:00:27,NA,incomplete,142,race,3,1,left,C_M_07.jpg,C_F_05.jpg,A_M_11.jpg,right,1055.1200000008103,false,low,NA,NA,NA,NA,NA,NA,NA,false
s8Zwnzs1,3xabxm4ak4i034slkfn2gjsp1ra8qu,33iztu6j85e4i560btt1g2kaxicsxj,s8Zwnzs1,2020-0188,2020-06-04,17:33:44,18:00:27,NA,incomplete,143,race,3,1,left,A_F_09.jpg,A_M_08.jpg,C_F_04.jpg,left,1017.1200000003446,true,low,NA,NA,NA,NA,NA,NA,NA,false
s8Zwnzs1,3xabxm4ak4i034slkfn2gjsp1ra8qu,33iztu6j85e4i560btt1g2kaxicsxj,s8Zwnzs1,2020-0188,2020-06-04,17:33:44,18:00:27,NA,incomplete,144,race,3,1,left,A_M_13.jpg,A_F_06.jpg,C_M_02.jpg,right,990.519999999553,false,low,NA,NA,NA,NA,NA,NA,NA,false
s8Zwnzs1,3xabxm4ak4i034slkfn2gjsp1ra8qu,33iztu6j85e4i560btt1g2kaxicsxj,s8Zwnzs1,2020-0188,2020-06-04,17:33:44,18:00:27,NA,incomplete,145,race,3,1,right,C_M_04.jpg,A_M_07.jpg,C_F_15.jpg,left,1166.1199999980163,false,low,NA,NA,NA,NA,NA,NA,NA,false
s8Zwnzs1,3xabxm4ak4i034slkfn2gjsp1ra8qu,33iztu6j85e4i560btt1g2kaxicsxj,s8Zwnzs1,2020-0188,2020-06-04,17:33:44,18:00:27,NA,incomplete,146,race,3,1,right,A_F_10.jpg,C_F_04.jpg,A_M_08.jpg,left,812.60499999905,false,low,NA,NA,NA,NA,NA,NA,NA,false
s8Zwnzs1,3xabxm4ak4i034slkfn2gjsp1ra8qu,33iztu6j85e4i560btt1g2kaxicsxj,s8Zwnzs1,2020-0188,2020-06-04,17:33:44,18:00:27,NA,incomplete,147,race,3,1,right,C_M_02.jpg,A_M_09.jpg,C_F_07.jpg,right,287.1500000001397,true,low,NA,NA,NA,NA,NA,NA,NA,false
s8Zwnzs1,3xabxm4ak4i034slkfn2gjsp1ra8qu,33iztu6j85e4i560btt1g2kaxicsxj,s8Zwnzs1,2020-0188,2020-06-04,17:33:44,18:00:27,NA,incomplete,148,race,3,0,left,A_M_12.jpg,A_F_16.jpg,C_M_02.jpg,right,239.29999999748543,false,low,NA,NA,NA,NA,NA,NA,NA,false
s8Zwnzs1,3xabxm4ak4i034slkfn2gjsp1ra8qu,33iztu6j85e4i560btt1g2kaxicsxj,s8Zwnzs1,2020-0188,2020-06-04,17:33:44,18:00:27,NA,incomplete,149,race,3,1,left,A_M_16.jpg,A_F_05.jpg,C_M_15.jpg,right,311.1399999980349,false,low,NA,NA,NA,NA,NA,NA,NA,false
s8Zwnzs1,3xabxm4ak4i034slkfn2gjsp1ra8qu,33iztu6j85e4i560btt1g2kaxicsxj,s8Zwnzs1,2020-0188,2020-06-04,17:33:44,18:00:27,NA,incomplete,150,race,3,1,right,C_F_04.jpg,A_F_07.jpg,C_M_05.jpg,right,70.38499999884516,true,low,NA,NA,NA,NA,NA,NA,NA,false
s8Zwnzs1,3xabxm4ak4i034slkfn2gjsp1ra8qu,33iztu6j85e4i560btt1g2kaxicsxj,s8Zwnzs1,2020-0188,2020-06-04,17:33:44,18:00:27,NA,incomplete,151,race,3,1,left,A_F_07.jpg,A_M_14.jpg,C_F_08.jpg,right,269.6200000029057,false,low,NA,NA,NA,NA,NA,NA,NA,false
s8Zwnzs1,3xabxm4ak4i034slkfn2gjsp1ra8qu,33iztu6j85e4i560btt1g2kaxicsxj,s8Zwnzs1,2020-0188,2020-06-04,17:33:44,18:00:27,NA,incomplete,152,race,3,1,left,A_M_13.jpg,A_F_06.jpg,C_M_08.jpg,right,211.72999999905005,false,low,NA,NA,NA,NA,NA,NA,NA,false
s8Zwnzs1,3xabxm4ak4i034slkfn2gjsp1ra8qu,33iztu6j85e4i560btt1g2kaxicsxj,s8Zwnzs1,2020-0188,2020-06-04,17:33:44,18:00:27,NA,incomplete,153,race,3,0,right,A_F_04.jpg,C_F_10.jpg,A_M_02.jpg,left,208.82999999960884,false,low,NA,NA,NA,NA,NA,NA,NA,false
s8Zwnzs1,3xabxm4ak4i034slkfn2gjsp1ra8qu,33iztu6j85e4i560btt1g2kaxicsxj,s8Zwnzs1,2020-0188,2020-06-04,17:33:44,18:00:27,NA,incomplete,154,race,3,1,right,A_M_09.jpg,C_M_14.jpg,A_F_13.jpg,left,390.90500000026077,false,low,NA,NA,NA,NA,NA,NA,NA,false
s8Zwnzs1,3xabxm4ak4i034slkfn2gjsp1ra8qu,33iztu6j85e4i560btt1g2kaxicsxj,s8Zwnzs1,2020-0188,2020-06-04,17:33:44,18:00:27,NA,incomplete,155,race,3,1,right,A_M_04.jpg,C_M_06.jpg,A_F_14.jpg,left,221.0850000011269,false,low,NA,NA,NA,NA,NA,NA,NA,false
s8Zwnzs1,3xabxm4ak4i034slkfn2gjsp1ra8qu,33iztu6j85e4i560btt1g2kaxicsxj,s8Zwnzs1,2020-0188,2020-06-04,17:33:44,18:00:27,NA,incomplete,156,race,3,1,left,A_F_05.jpg,A_M_08.jpg,C_F_16.jpg,right,353.4499999987893,false,low,NA,NA,NA,NA,NA,NA,NA,false
s8Zwnzs1,3xabxm4ak4i034slkfn2gjsp1ra8qu,33iztu6j85e4i560btt1g2kaxicsxj,s8Zwnzs1,2020-0188,2020-06-04,17:33:44,18:00:27,NA,incomplete,157,race,3,1,right,A_M_02.jpg,C_M_03.jpg,A_F_14.jpg,left,759.4350000000559,false,low,NA,NA,NA,NA,NA,NA,NA,false
s8Zwnzs1,3xabxm4ak4i034slkfn2gjsp1ra8qu,33iztu6j85e4i560btt1g2kaxicsxj,s8Zwnzs1,2020-0188,2020-06-04,17:33:44,18:00:27,NA,incomplete,158,race,3,1,left,C_M_01.jpg,C_F_03.jpg,A_M_16.jpg,left,938.9249999986496,true,low,NA,NA,NA,NA,NA,NA,NA,false
s8Zwnzs1,3xabxm4ak4i034slkfn2gjsp1ra8qu,33iztu6j85e4i560btt1g2kaxicsxj,s8Zwnzs1,2020-0188,2020-06-04,17:33:44,18:00:27,NA,incomplete,159,race,3,1,right,A_F_08.jpg,C_F_12.jpg,A_M_09.jpg,left,1144.655000000028,false,low,NA,NA,NA,NA,NA,NA,NA,false
s8Zwnzs1,3xabxm4ak4i034slkfn2gjsp1ra8qu,33iztu6j85e4i560btt1g2kaxicsxj,s8Zwnzs1,2020-0188,2020-06-04,17:33:44,18:00:27,NA,incomplete,160,gender,2,1,left,C_F_02.jpg,A_F_15.jpg,C_M_07.jpg,right,984.440000000177,false,low,NA,NA,NA,NA,NA,NA,NA,false
s8Zwnzs1,3xabxm4ak4i034slkfn2gjsp1ra8qu,33iztu6j85e4i560btt1g2kaxicsxj,s8Zwnzs1,2020-0188,2020-06-04,17:33:44,18:00:27,NA,incomplete,161,gender,2,1,right,A_M_08.jpg,A_F_05.jpg,C_M_14.jpg,left,732.739999999525,false,low,NA,NA,NA,NA,NA,NA,NA,false
s8Zwnzs1,3xabxm4ak4i034slkfn2gjsp1ra8qu,33iztu6j85e4i560btt1g2kaxicsxj,s8Zwnzs1,2020-0188,2020-06-04,17:33:44,18:00:27,NA,incomplete,162,gender,2,1,right,A_F_11.jpg,A_M_06.jpg,C_F_10.jpg,left,1231.969999997178,false,low,NA,NA,NA,NA,NA,NA,NA,false
s8Zwnzs1,3xabxm4ak4i034slkfn2gjsp1ra8qu,33iztu6j85e4i560btt1g2kaxicsxj,s8Zwnzs1,2020-0188,2020-06-04,17:33:44,18:00:27,NA,incomplete,163,gender,2,1,left,A_M_03.jpg,C_M_14.jpg,A_F_13.jpg,right,248.07499999948777,false,low,NA,NA,NA,NA,NA,NA,NA,false
s8Zwnzs1,3xabxm4ak4i034slkfn2gjsp1ra8qu,33iztu6j85e4i560btt1g2kaxicsxj,s8Zwnzs1,2020-0188,2020-06-04,17:33:44,18:00:27,NA,incomplete,164,gender,2,0,left,A_F_15.jpg,C_F_06.jpg,A_M_08.jpg,right,293.67500000074506,false,low,NA,NA,NA,NA,NA,NA,NA,false
s8Zwnzs1,3xabxm4ak4i034slkfn2gjsp1ra8qu,33iztu6j85e4i560btt1g2kaxicsxj,s8Zwnzs1,2020-0188,2020-06-04,17:33:44,18:00:27,NA,incomplete,165,gender,2,1,right,C_F_09.jpg,C_M_02.jpg,A_F_03.jpg,right,784.3600000014994,true,low,NA,NA,NA,NA,NA,NA,NA,false
s8Zwnzs1,3xabxm4ak4i034slkfn2gjsp1ra8qu,33iztu6j85e4i560btt1g2kaxicsxj,s8Zwnzs1,2020-0188,2020-06-04,17:33:44,18:00:27,NA,incomplete,166,gender,2,1,right,C_M_11.jpg,C_F_04.jpg,A_M_05.jpg,right,678.8799999996554,true,low,NA,NA,NA,NA,NA,NA,NA,false
s8Zwnzs1,3xabxm4ak4i034slkfn2gjsp1ra8qu,33iztu6j85e4i560btt1g2kaxicsxj,s8Zwnzs1,2020-0188,2020-06-04,17:33:44,18:00:27,NA,incomplete,167,gender,2,1,right,A_M_06.jpg,A_F_13.jpg,C_M_01.jpg,right,319.9099999985192,true,low,NA,NA,NA,NA,NA,NA,NA,false
s8Zwnzs1,3xabxm4ak4i034slkfn2gjsp1ra8qu,33iztu6j85e4i560btt1g2kaxicsxj,s8Zwnzs1,2020-0188,2020-06-04,17:33:44,18:00:27,NA,incomplete,168,gender,2,1,right,C_F_15.jpg,C_M_08.jpg,A_F_11.jpg,right,543.0249999992084,true,low,NA,NA,NA,NA,NA,NA,NA,false
s8Zwnzs1,3xabxm4ak4i034slkfn2gjsp1ra8qu,33iztu6j85e4i560btt1g2kaxicsxj,s8Zwnzs1,2020-0188,2020-06-04,17:33:44,18:00:27,NA,incomplete,169,gender,2,0,left,C_M_11.jpg,A_M_09.jpg,C_F_15.jpg,right,549.8550000011455,false,low,NA,NA,NA,NA,NA,NA,NA,false
s8Zwnzs1,3xabxm4ak4i034slkfn2gjsp1ra8qu,33iztu6j85e4i560btt1g2kaxicsxj,s8Zwnzs1,2020-0188,2020-06-04,17:33:44,18:00:27,NA,incomplete,170,gender,2,1,left,A_M_14.jpg,C_M_06.jpg,A_F_12.jpg,right,456.900000001071,false,low,NA,NA,NA,NA,NA,NA,NA,false
s8Zwnzs1,3xabxm4ak4i034slkfn2gjsp1ra8qu,33iztu6j85e4i560btt1g2kaxicsxj,s8Zwnzs1,2020-0188,2020-06-04,17:33:44,18:00:27,NA,incomplete,171,gender,2,1,right,A_M_11.jpg,A_F_10.jpg,C_M_09.jpg,left,448.87500000186265,false,low,NA,NA,NA,NA,NA,NA,NA,false
s8Zwnzs1,3xabxm4ak4i034slkfn2gjsp1ra8qu,33iztu6j85e4i560btt1g2kaxicsxj,s8Zwnzs1,2020-0188,2020-06-04,17:33:44,18:00:27,NA,incomplete,172,gender,2,1,left,A_M_11.jpg,C_M_01.jpg,A_F_05.jpg,right,122.99499999801628,false,low,NA,NA,NA,NA,NA,NA,NA,false
s8Zwnzs1,3xabxm4ak4i034slkfn2gjsp1ra8qu,33iztu6j85e4i560btt1g2kaxicsxj,s8Zwnzs1,2020-0188,2020-06-04,17:33:44,18:00:27,NA,incomplete,173,gender,2,1,left,C_F_13.jpg,A_F_05.jpg,C_M_14.jpg,right,478.8150000022724,false,low,NA,NA,NA,NA,NA,NA,NA,false
s8Zwnzs1,3xabxm4ak4i034slkfn2gjsp1ra8qu,33iztu6j85e4i560btt1g2kaxicsxj,s8Zwnzs1,2020-0188,2020-06-04,17:33:44,18:00:27,NA,incomplete,174,gender,2,1,left,C_M_14.jpg,A_M_08.jpg,C_F_13.jpg,right,595.7200000011362,false,low,NA,NA,NA,NA,NA,NA,NA,false
s8Zwnzs1,3xabxm4ak4i034slkfn2gjsp1ra8qu,33iztu6j85e4i560btt1g2kaxicsxj,s8Zwnzs1,2020-0188,2020-06-04,17:33:44,18:00:27,NA,incomplete,175,gender,2,1,right,A_M_06.jpg,A_F_03.jpg,C_M_15.jpg,left,417.67999999877065,false,low,NA,NA,NA,NA,NA,NA,NA,false
s8Zwnzs1,3xabxm4ak4i034slkfn2gjsp1ra8qu,33iztu6j85e4i560btt1g2kaxicsxj,s8Zwnzs1,2020-0188,2020-06-04,17:33:44,18:00:27,NA,incomplete,176,gender,2,1,left,C_M_04.jpg,A_M_13.jpg,C_F_14.jpg,left,202.365000000922,true,low,NA,NA,NA,NA,NA,NA,NA,false
s8Zwnzs1,3xabxm4ak4i034slkfn2gjsp1ra8qu,33iztu6j85e4i560btt1g2kaxicsxj,s8Zwnzs1,2020-0188,2020-06-04,17:33:44,18:00:27,NA,incomplete,177,gender,2,0,left,C_M_12.jpg,A_M_15.jpg,C_F_06.jpg,left,365.8850000028033,true,low,NA,NA,NA,NA,NA,NA,NA,false
s8Zwnzs1,3xabxm4ak4i034slkfn2gjsp1ra8qu,33iztu6j85e4i560btt1g2kaxicsxj,s8Zwnzs1,2020-0188,2020-06-04,17:33:44,18:00:27,NA,incomplete,178,gender,2,1,left,C_F_05.jpg,A_F_13.jpg,C_M_07.jpg,left,657.0199999986216,true,low,NA,NA,NA,NA,NA,NA,NA,false
s8Zwnzs1,3xabxm4ak4i034slkfn2gjsp1ra8qu,33iztu6j85e4i560btt1g2kaxicsxj,s8Zwnzs1,2020-0188,2020-06-04,17:33:44,18:00:27,NA,incomplete,179,gender,2,0,right,C_M_13.jpg,C_F_08.jpg,A_M_02.jpg,left,393.8899999994319,false,low,NA,NA,NA,NA,NA,NA,NA,false
s8Zwnzs1,3xabxm4ak4i034slkfn2gjsp1ra8qu,33iztu6j85e4i560btt1g2kaxicsxj,s8Zwnzs1,2020-0188,2020-06-04,17:33:44,18:00:27,NA,incomplete,180,race,3,1,right,A_F_01.jpg,C_F_15.jpg,A_M_04.jpg,left,280.95000000018626,false,low,NA,NA,NA,NA,NA,NA,NA,false
s8Zwnzs1,3xabxm4ak4i034slkfn2gjsp1ra8qu,33iztu6j85e4i560btt1g2kaxicsxj,s8Zwnzs1,2020-0188,2020-06-04,17:33:44,18:00:27,NA,incomplete,181,race,3,1,right,C_F_06.jpg,A_F_08.jpg,C_M_03.jpg,right,263.885000000475,true,low,NA,NA,NA,NA,NA,NA,NA,false
s8Zwnzs1,3xabxm4ak4i034slkfn2gjsp1ra8qu,33iztu6j85e4i560btt1g2kaxicsxj,s8Zwnzs1,2020-0188,2020-06-04,17:33:44,18:00:27,NA,incomplete,182,race,3,1,right,C_M_05.jpg,A_M_15.jpg,C_F_11.jpg,right,281.9249999993481,true,low,NA,NA,NA,NA,NA,NA,NA,false
s8Zwnzs1,3xabxm4ak4i034slkfn2gjsp1ra8qu,33iztu6j85e4i560btt1g2kaxicsxj,s8Zwnzs1,2020-0188,2020-06-04,17:33:44,18:00:27,NA,incomplete,183,race,3,1,right,A_F_11.jpg,C_F_12.jpg,A_M_15.jpg,right,223.9499999997206,true,low,NA,NA,NA,NA,NA,NA,NA,false
s8Zwnzs1,3xabxm4ak4i034slkfn2gjsp1ra8qu,33iztu6j85e4i560btt1g2kaxicsxj,s8Zwnzs1,2020-0188,2020-06-04,17:33:44,18:00:27,NA,incomplete,184,race,3,0,left,C_M_15.jpg,C_F_04.jpg,A_M_11.jpg,right,242.14500000001863,false,low,NA,NA,NA,NA,NA,NA,NA,false
s8Zwnzs1,3xabxm4ak4i034slkfn2gjsp1ra8qu,33iztu6j85e4i560btt1g2kaxicsxj,s8Zwnzs1,2020-0188,2020-06-04,17:33:44,18:00:27,NA,incomplete,185,race,3,1,right,C_M_13.jpg,A_M_10.jpg,C_F_15.jpg,right,429.37499999976717,true,low,NA,NA,NA,NA,NA,NA,NA,false
s8Zwnzs1,3xabxm4ak4i034slkfn2gjsp1ra8qu,33iztu6j85e4i560btt1g2kaxicsxj,s8Zwnzs1,2020-0188,2020-06-04,17:33:44,18:00:27,NA,incomplete,186,race,3,0,left,A_M_07.jpg,A_F_16.jpg,C_M_02.jpg,right,674.8350000015926,false,low,NA,NA,NA,NA,NA,NA,NA,false
s8Zwnzs1,3xabxm4ak4i034slkfn2gjsp1ra8qu,33iztu6j85e4i560btt1g2kaxicsxj,s8Zwnzs1,2020-0188,2020-06-04,17:33:44,18:00:27,NA,incomplete,187,race,3,1,left,C_M_05.jpg,C_F_09.jpg,A_M_07.jpg,right,643.804999999702,false,low,NA,NA,NA,NA,NA,NA,NA,false
s8Zwnzs1,3xabxm4ak4i034slkfn2gjsp1ra8qu,33iztu6j85e4i560btt1g2kaxicsxj,s8Zwnzs1,2020-0188,2020-06-04,17:33:44,18:00:27,NA,incomplete,188,race,3,1,right,C_F_14.jpg,A_F_08.jpg,C_M_07.jpg,left,484.9199999989942,false,low,NA,NA,NA,NA,NA,NA,NA,false
s8Zwnzs1,3xabxm4ak4i034slkfn2gjsp1ra8qu,33iztu6j85e4i560btt1g2kaxicsxj,s8Zwnzs1,2020-0188,2020-06-04,17:33:44,18:00:27,NA,incomplete,189,race,3,1,left,C_M_02.jpg,C_F_11.jpg,A_M_01.jpg,right,195.69500000216067,false,low,NA,NA,NA,NA,NA,NA,NA,false
s8Zwnzs1,3xabxm4ak4i034slkfn2gjsp1ra8qu,33iztu6j85e4i560btt1g2kaxicsxj,s8Zwnzs1,2020-0188,2020-06-04,17:33:44,18:00:27,NA,incomplete,190,race,3,1,right,A_F_07.jpg,C_F_11.jpg,A_M_13.jpg,right,44.79000000003725,true,low,NA,NA,NA,NA,NA,NA,NA,false
s8Zwnzs1,3xabxm4ak4i034slkfn2gjsp1ra8qu,33iztu6j85e4i560btt1g2kaxicsxj,s8Zwnzs1,2020-0188,2020-06-04,17:33:44,18:00:27,NA,incomplete,191,race,3,1,right,C_F_07.jpg,A_F_12.jpg,C_M_08.jpg,right,172.589999998454,true,low,NA,NA,NA,NA,NA,NA,NA,false
s8Zwnzs1,3xabxm4ak4i034slkfn2gjsp1ra8qu,33iztu6j85e4i560btt1g2kaxicsxj,s8Zwnzs1,2020-0188,2020-06-04,17:33:44,18:00:27,NA,incomplete,192,race,3,0,left,C_M_08.jpg,C_F_13.jpg,A_M_14.jpg,right,315.5000000006985,false,low,NA,NA,NA,NA,NA,NA,NA,false
s8Zwnzs1,3xabxm4ak4i034slkfn2gjsp1ra8qu,33iztu6j85e4i560btt1g2kaxicsxj,s8Zwnzs1,2020-0188,2020-06-04,17:33:44,18:00:27,NA,incomplete,193,race,3,1,right,C_M_08.jpg,A_M_16.jpg,C_F_01.jpg,right,293.44500000285916,true,low,NA,NA,NA,NA,NA,NA,NA,false
s8Zwnzs1,3xabxm4ak4i034slkfn2gjsp1ra8qu,33iztu6j85e4i560btt1g2kaxicsxj,s8Zwnzs1,2020-0188,2020-06-04,17:33:44,18:00:27,NA,incomplete,194,race,3,1,right,C_M_14.jpg,A_M_12.jpg,C_F_11.jpg,right,348.35499999835156,true,low,NA,NA,NA,NA,NA,NA,NA,false
s8Zwnzs1,3xabxm4ak4i034slkfn2gjsp1ra8qu,33iztu6j85e4i560btt1g2kaxicsxj,s8Zwnzs1,2020-0188,2020-06-04,17:33:44,18:00:27,NA,incomplete,195,race,3,1,left,C_M_16.jpg,C_F_09.jpg,A_M_01.jpg,right,345.5949999988079,false,low,NA,NA,NA,NA,NA,NA,NA,false
s8Zwnzs1,3xabxm4ak4i034slkfn2gjsp1ra8qu,33iztu6j85e4i560btt1g2kaxicsxj,s8Zwnzs1,2020-0188,2020-06-04,17:33:44,18:00:27,NA,incomplete,196,race,3,0,left,C_F_04.jpg,C_M_07.jpg,A_F_05.jpg,right,272.46500000194646,false,low,NA,NA,NA,NA,NA,NA,NA,false
s8Zwnzs1,3xabxm4ak4i034slkfn2gjsp1ra8qu,33iztu6j85e4i560btt1g2kaxicsxj,s8Zwnzs1,2020-0188,2020-06-04,17:33:44,18:00:27,NA,incomplete,197,race,3,1,left,C_M_01.jpg,C_F_10.jpg,A_M_15.jpg,right,381.84000000194646,false,low,NA,NA,NA,NA,NA,NA,NA,false
s8Zwnzs1,3xabxm4ak4i034slkfn2gjsp1ra8qu,33iztu6j85e4i560btt1g2kaxicsxj,s8Zwnzs1,2020-0188,2020-06-04,17:33:44,18:00:27,NA,incomplete,198,race,3,0,left,A_F_08.jpg,A_M_07.jpg,C_F_10.jpg,left,64.67500000144355,true,low,NA,NA,NA,NA,NA,NA,NA,false
s8Zwnzs1,3xabxm4ak4i034slkfn2gjsp1ra8qu,33iztu6j85e4i560btt1g2kaxicsxj,s8Zwnzs1,2020-0188,2020-06-04,17:33:44,18:00:27,NA,incomplete,199,race,3,1,right,C_F_13.jpg,A_F_12.jpg,C_M_15.jpg,right,299.41499999770895,true,low,NA,NA,NA,NA,NA,NA,NA,false
s8Zwnzs1,3xabxm4ak4i034slkfn2gjsp1ra8qu,33iztu6j85e4i560btt1g2kaxicsxj,s8Zwnzs1,2020-0188,2020-06-04,17:33:44,18:00:27,NA,incomplete,200,gender,2,0,right,A_F_01.jpg,A_M_10.jpg,C_F_13.jpg,right,302.2399999971967,true,low,NA,NA,NA,NA,NA,NA,NA,false
s8Zwnzs1,3xabxm4ak4i034slkfn2gjsp1ra8qu,33iztu6j85e4i560btt1g2kaxicsxj,s8Zwnzs1,2020-0188,2020-06-04,17:33:44,18:00:27,NA,incomplete,201,gender,2,1,left,C_F_10.jpg,A_F_13.jpg,C_M_15.jpg,right,115.87499999953434,false,low,NA,NA,NA,NA,NA,NA,NA,false
s8Zwnzs1,3xabxm4ak4i034slkfn2gjsp1ra8qu,33iztu6j85e4i560btt1g2kaxicsxj,s8Zwnzs1,2020-0188,2020-06-04,17:33:44,18:00:27,NA,incomplete,202,gender,2,1,left,C_M_03.jpg,A_M_07.jpg,C_F_11.jpg,left,99.52999999956228,true,low,NA,NA,NA,NA,NA,NA,NA,false
s8Zwnzs1,3xabxm4ak4i034slkfn2gjsp1ra8qu,33iztu6j85e4i560btt1g2kaxicsxj,s8Zwnzs1,2020-0188,2020-06-04,17:33:44,18:00:27,NA,incomplete,203,gender,2,1,left,A_M_09.jpg,C_M_14.jpg,A_F_06.jpg,left,223.53500000108033,true,low,NA,NA,NA,NA,NA,NA,NA,false
s8Zwnzs1,3xabxm4ak4i034slkfn2gjsp1ra8qu,33iztu6j85e4i560btt1g2kaxicsxj,s8Zwnzs1,2020-0188,2020-06-04,17:33:44,18:00:27,NA,incomplete,204,gender,2,1,right,A_F_07.jpg,A_M_01.jpg,C_F_11.jpg,left,44.34000000031665,false,low,NA,NA,NA,NA,NA,NA,NA,false
s8Zwnzs1,3xabxm4ak4i034slkfn2gjsp1ra8qu,33iztu6j85e4i560btt1g2kaxicsxj,s8Zwnzs1,2020-0188,2020-06-04,17:33:44,18:00:27,NA,incomplete,205,gender,2,1,right,C_M_03.jpg,C_F_06.jpg,A_M_10.jpg,left,190.7950000022538,false,low,NA,NA,NA,NA,NA,NA,NA,false
s8Zwnzs1,3xabxm4ak4i034slkfn2gjsp1ra8qu,33iztu6j85e4i560btt1g2kaxicsxj,s8Zwnzs1,2020-0188,2020-06-04,17:33:44,18:00:27,NA,incomplete,206,gender,2,1,left,C_F_14.jpg,A_F_15.jpg,C_M_07.jpg,right,231.27000000025146,false,low,NA,NA,NA,NA,NA,NA,NA,false
s8Zwnzs1,3xabxm4ak4i034slkfn2gjsp1ra8qu,33iztu6j85e4i560btt1g2kaxicsxj,s8Zwnzs1,2020-0188,2020-06-04,17:33:44,18:00:27,NA,incomplete,207,gender,2,1,right,C_M_09.jpg,C_F_12.jpg,A_M_11.jpg,left,120.97500000149012,false,low,NA,NA,NA,NA,NA,NA,NA,false
s8Zwnzs1,3xabxm4ak4i034slkfn2gjsp1ra8qu,33iztu6j85e4i560btt1g2kaxicsxj,s8Zwnzs1,2020-0188,2020-06-04,17:33:44,18:00:27,NA,incomplete,208,gender,2,1,right,C_F_01.jpg,C_M_03.jpg,A_F_07.jpg,right,237.95500000054017,true,low,NA,NA,NA,NA,NA,NA,NA,false
s8Zwnzs1,3xabxm4ak4i034slkfn2gjsp1ra8qu,33iztu6j85e4i560btt1g2kaxicsxj,s8Zwnzs1,2020-0188,2020-06-04,17:33:44,18:00:27,NA,incomplete,209,gender,2,0,right,A_M_11.jpg,A_F_13.jpg,C_M_05.jpg,right,226.92000000085682,true,low,NA,NA,NA,NA,NA,NA,NA,false
s8Zwnzs1,3xabxm4ak4i034slkfn2gjsp1ra8qu,33iztu6j85e4i560btt1g2kaxicsxj,s8Zwnzs1,2020-0188,2020-06-04,17:33:44,18:00:27,NA,incomplete,210,gender,2,1,left,C_M_03.jpg,A_M_05.jpg,C_F_07.jpg,right,315.47499999962747,false,low,NA,NA,NA,NA,NA,NA,NA,false
s8Zwnzs1,3xabxm4ak4i034slkfn2gjsp1ra8qu,33iztu6j85e4i560btt1g2kaxicsxj,s8Zwnzs1,2020-0188,2020-06-04,17:33:44,18:00:27,NA,incomplete,211,gender,2,1,left,C_F_08.jpg,A_F_04.jpg,C_M_10.jpg,left,254.8400000014808,true,low,NA,NA,NA,NA,NA,NA,NA,false
s8Zwnzs1,3xabxm4ak4i034slkfn2gjsp1ra8qu,33iztu6j85e4i560btt1g2kaxicsxj,s8Zwnzs1,2020-0188,2020-06-04,17:33:44,18:00:27,NA,incomplete,212,gender,2,0,right,C_F_05.jpg,C_M_14.jpg,A_F_13.jpg,left,466.04999999911524,false,low,NA,NA,NA,NA,NA,NA,NA,false
s8Zwnzs1,3xabxm4ak4i034slkfn2gjsp1ra8qu,33iztu6j85e4i560btt1g2kaxicsxj,s8Zwnzs1,2020-0188,2020-06-04,17:33:44,18:00:27,NA,incomplete,213,gender,2,1,right,C_F_14.jpg,C_M_05.jpg,A_F_01.jpg,left,292.2999999972526,false,low,NA,NA,NA,NA,NA,NA,NA,false
s8Zwnzs1,3xabxm4ak4i034slkfn2gjsp1ra8qu,33iztu6j85e4i560btt1g2kaxicsxj,s8Zwnzs1,2020-0188,2020-06-04,17:33:44,18:00:27,NA,incomplete,214,gender,2,0,right,A_F_11.jpg,A_M_01.jpg,C_F_07.jpg,left,240.48000000044703,false,low,NA,NA,NA,NA,NA,NA,NA,false
s8Zwnzs1,3xabxm4ak4i034slkfn2gjsp1ra8qu,33iztu6j85e4i560btt1g2kaxicsxj,s8Zwnzs1,2020-0188,2020-06-04,17:33:44,18:00:27,NA,incomplete,215,gender,2,1,left,C_F_12.jpg,A_F_02.jpg,C_M_07.jpg,left,271.73499999847263,true,low,NA,NA,NA,NA,NA,NA,NA,false
s8Zwnzs1,3xabxm4ak4i034slkfn2gjsp1ra8qu,33iztu6j85e4i560btt1g2kaxicsxj,s8Zwnzs1,2020-0188,2020-06-04,17:33:44,18:00:27,NA,incomplete,216,gender,2,1,left,C_F_11.jpg,A_F_08.jpg,C_M_06.jpg,left,262.1849999995902,true,low,NA,NA,NA,NA,NA,NA,NA,false
s8Zwnzs1,3xabxm4ak4i034slkfn2gjsp1ra8qu,33iztu6j85e4i560btt1g2kaxicsxj,s8Zwnzs1,2020-0188,2020-06-04,17:33:44,18:00:27,NA,incomplete,217,gender,2,1,right,A_F_09.jpg,A_M_08.jpg,C_F_10.jpg,left,279.21499999868684,false,low,NA,NA,NA,NA,NA,NA,NA,false
s8Zwnzs1,3xabxm4ak4i034slkfn2gjsp1ra8qu,33iztu6j85e4i560btt1g2kaxicsxj,s8Zwnzs1,2020-0188,2020-06-04,17:33:44,18:00:27,NA,incomplete,218,gender,2,1,right,A_F_06.jpg,A_M_16.jpg,C_F_04.jpg,left,279.87500000023283,false,low,NA,NA,NA,NA,NA,NA,NA,false
s8Zwnzs1,3xabxm4ak4i034slkfn2gjsp1ra8qu,33iztu6j85e4i560btt1g2kaxicsxj,s8Zwnzs1,2020-0188,2020-06-04,17:33:44,18:00:27,NA,incomplete,219,gender,2,0,right,C_M_04.jpg,C_F_07.jpg,A_M_01.jpg,right,103.18499999982305,true,low,NA,NA,NA,NA,NA,NA,NA,false
s8Zwnzs1,3xabxm4ak4i034slkfn2gjsp1ra8qu,33iztu6j85e4i560btt1g2kaxicsxj,s8Zwnzs1,2020-0188,2020-06-04,17:33:44,18:00:27,NA,incomplete,220,race,3,1,right,A_F_05.jpg,C_F_02.jpg,A_M_13.jpg,right,49.31500000017695,true,low,NA,NA,NA,NA,NA,NA,NA,false
s8Zwnzs1,3xabxm4ak4i034slkfn2gjsp1ra8qu,33iztu6j85e4i560btt1g2kaxicsxj,s8Zwnzs1,2020-0188,2020-06-04,17:33:44,18:00:27,NA,incomplete,221,race,3,1,right,C_M_01.jpg,A_M_03.jpg,C_F_08.jpg,right,231.97000000067055,true,low,NA,NA,NA,NA,NA,NA,NA,false
s8Zwnzs1,3xabxm4ak4i034slkfn2gjsp1ra8qu,33iztu6j85e4i560btt1g2kaxicsxj,s8Zwnzs1,2020-0188,2020-06-04,17:33:44,18:00:27,NA,incomplete,222,race,3,1,right,C_F_04.jpg,A_F_14.jpg,C_M_16.jpg,right,234.57499999855645,true,low,NA,NA,NA,NA,NA,NA,NA,false
s8Zwnzs1,3xabxm4ak4i034slkfn2gjsp1ra8qu,33iztu6j85e4i560btt1g2kaxicsxj,s8Zwnzs1,2020-0188,2020-06-04,17:33:44,18:00:27,NA,incomplete,223,race,3,0,right,A_M_10.jpg,C_M_03.jpg,A_F_12.jpg,right,443.7400000025518,true,low,NA,NA,NA,NA,NA,NA,NA,false
s8Zwnzs1,3xabxm4ak4i034slkfn2gjsp1ra8qu,33iztu6j85e4i560btt1g2kaxicsxj,s8Zwnzs1,2020-0188,2020-06-04,17:33:44,18:00:27,NA,incomplete,224,race,3,1,left,C_M_15.jpg,C_F_05.jpg,A_M_02.jpg,right,441.5950000002049,false,low,NA,NA,NA,NA,NA,NA,NA,false
s8Zwnzs1,3xabxm4ak4i034slkfn2gjsp1ra8qu,33iztu6j85e4i560btt1g2kaxicsxj,s8Zwnzs1,2020-0188,2020-06-04,17:33:44,18:00:27,NA,incomplete,225,race,3,1,left,C_F_11.jpg,C_M_14.jpg,A_F_12.jpg,left,93.02000000025146,true,low,NA,NA,NA,NA,NA,NA,NA,false
s8Zwnzs1,3xabxm4ak4i034slkfn2gjsp1ra8qu,33iztu6j85e4i560btt1g2kaxicsxj,s8Zwnzs1,2020-0188,2020-06-04,17:33:44,18:00:27,NA,incomplete,226,race,3,1,left,A_F_01.jpg,A_M_12.jpg,C_F_10.jpg,left,358.8449999988079,true,low,NA,NA,NA,NA,NA,NA,NA,false
s8Zwnzs1,3xabxm4ak4i034slkfn2gjsp1ra8qu,33iztu6j85e4i560btt1g2kaxicsxj,s8Zwnzs1,2020-0188,2020-06-04,17:33:44,18:00:27,NA,incomplete,227,race,3,1,right,C_M_08.jpg,A_M_03.jpg,C_F_05.jpg,left,359.0400000028312,false,low,NA,NA,NA,NA,NA,NA,NA,false
s8Zwnzs1,3xabxm4ak4i034slkfn2gjsp1ra8qu,33iztu6j85e4i560btt1g2kaxicsxj,s8Zwnzs1,2020-0188,2020-06-04,17:33:44,18:00:27,NA,incomplete,228,race,3,1,left,C_F_13.jpg,C_M_16.jpg,A_F_15.jpg,left,186.8099999993574,true,low,NA,NA,NA,NA,NA,NA,NA,false
s8Zwnzs1,3xabxm4ak4i034slkfn2gjsp1ra8qu,33iztu6j85e4i560btt1g2kaxicsxj,s8Zwnzs1,2020-0188,2020-06-04,17:33:44,18:00:27,NA,incomplete,229,race,3,1,right,C_M_02.jpg,A_M_01.jpg,C_F_05.jpg,left,321.5799999998417,false,low,NA,NA,NA,NA,NA,NA,NA,false
s8Zwnzs1,3xabxm4ak4i034slkfn2gjsp1ra8qu,33iztu6j85e4i560btt1g2kaxicsxj,s8Zwnzs1,2020-0188,2020-06-04,17:33:44,18:00:27,NA,incomplete,230,race,3,1,right,C_F_06.jpg,A_F_09.jpg,C_M_01.jpg,left,203.90000000037253,false,low,NA,NA,NA,NA,NA,NA,NA,false
s8Zwnzs1,3xabxm4ak4i034slkfn2gjsp1ra8qu,33iztu6j85e4i560btt1g2kaxicsxj,s8Zwnzs1,2020-0188,2020-06-04,17:33:44,18:00:27,NA,incomplete,231,race,3,0,right,C_M_01.jpg,A_M_10.jpg,C_F_08.jpg,right,110.88499999814667,true,low,NA,NA,NA,NA,NA,NA,NA,false
s8Zwnzs1,3xabxm4ak4i034slkfn2gjsp1ra8qu,33iztu6j85e4i560btt1g2kaxicsxj,s8Zwnzs1,2020-0188,2020-06-04,17:33:44,18:00:27,NA,incomplete,232,race,3,1,right,C_M_10.jpg,A_M_01.jpg,C_F_09.jpg,right,378.4200000008568,true,low,NA,NA,NA,NA,NA,NA,NA,false
s8Zwnzs1,3xabxm4ak4i034slkfn2gjsp1ra8qu,33iztu6j85e4i560btt1g2kaxicsxj,s8Zwnzs1,2020-0188,2020-06-04,17:33:44,18:00:27,NA,incomplete,233,race,3,1,right,C_M_09.jpg,A_M_05.jpg,C_F_13.jpg,right,182.27000000118278,true,low,NA,NA,NA,NA,NA,NA,NA,false
s8Zwnzs1,3xabxm4ak4i034slkfn2gjsp1ra8qu,33iztu6j85e4i560btt1g2kaxicsxj,s8Zwnzs1,2020-0188,2020-06-04,17:33:44,18:00:27,NA,incomplete,234,race,3,1,left,C_M_14.jpg,C_F_07.jpg,A_M_04.jpg,right,272.59500000230037,false,low,NA,NA,NA,NA,NA,NA,NA,false
s8Zwnzs1,3xabxm4ak4i034slkfn2gjsp1ra8qu,33iztu6j85e4i560btt1g2kaxicsxj,s8Zwnzs1,2020-0188,2020-06-04,17:33:44,18:00:27,NA,incomplete,235,race,3,1,left,C_F_02.jpg,C_M_12.jpg,A_F_08.jpg,right,470.8700000010431,false,low,NA,NA,NA,NA,NA,NA,NA,false
s8Zwnzs1,3xabxm4ak4i034slkfn2gjsp1ra8qu,33iztu6j85e4i560btt1g2kaxicsxj,s8Zwnzs1,2020-0188,2020-06-04,17:33:44,18:00:27,NA,incomplete,236,race,3,1,left,C_F_09.jpg,C_M_05.jpg,A_F_08.jpg,left,221.13499999977648,true,low,NA,NA,NA,NA,NA,NA,NA,false
s8Zwnzs1,3xabxm4ak4i034slkfn2gjsp1ra8qu,33iztu6j85e4i560btt1g2kaxicsxj,s8Zwnzs1,2020-0188,2020-06-04,17:33:44,18:00:27,NA,incomplete,237,race,3,1,right,A_M_04.jpg,C_M_10.jpg,A_F_02.jpg,left,302.1900000020396,false,low,NA,NA,NA,NA,NA,NA,NA,false
s8Zwnzs1,3xabxm4ak4i034slkfn2gjsp1ra8qu,33iztu6j85e4i560btt1g2kaxicsxj,s8Zwnzs1,2020-0188,2020-06-04,17:33:44,18:00:27,NA,incomplete,238,race,3,1,right,A_F_03.jpg,C_F_12.jpg,A_M_04.jpg,left,282.054999999702,false,low,NA,NA,NA,NA,NA,NA,NA,false
s8Zwnzs1,3xabxm4ak4i034slkfn2gjsp1ra8qu,33iztu6j85e4i560btt1g2kaxicsxj,s8Zwnzs1,2020-0188,2020-06-04,17:33:44,18:00:27,NA,incomplete,239,race,3,1,left,C_F_10.jpg,C_M_06.jpg,A_F_13.jpg,right,204.37500000116415,false,low,NA,NA,NA,NA,NA,NA,NA,false
s8Zwnzs1,3xabxm4ak4i034slkfn2gjsp1ra8qu,33iztu6j85e4i560btt1g2kaxicsxj,s8Zwnzs1,2020-0188,2020-06-04,17:33:44,18:00:27,NA,NA,instruction example,filling,NA,NA,NA,Green_Star_Stripes_4.jpg,Red_Plus_Stripes_1.jpg,Green_Circle_Dots_2.jpg,NA,NA,NA,NA,NA,NA,NA,NA,NA,NA,NA,undefined
s8Zwnzs1,3xabxm4ak4i034slkfn2gjsp1ra8qu,33iztu6j85e4i560btt1g2kaxicsxj,s8Zwnzs1,2020-0188,2020-06-04,17:33:44,18:00:27,NA,NA,instruction example,filling,NA,NA,NA,Purple_Circle_Stripes_3.jpg,Purple_Triangle_Dots_2.jpg,Green_Plus_Stripes_4.jpg,NA,NA,NA,NA,NA,NA,NA,NA,NA,NA,NA,undefined
s8Zwnzs1,3xabxm4ak4i034slkfn2gjsp1ra8qu,33iztu6j85e4i560btt1g2kaxicsxj,s8Zwnzs1,2020-0188,2020-06-04,17:33:44,18:00:27,NA,NA,instruction example,filling,NA,NA,NA,A_M_01.jpg,C_M_05.jpg,A_F_15.jpg,NA,NA,NA,NA,NA,NA,NA,NA,NA,NA,NA,undefined
s8Zwnzs1,3xabxm4ak4i034slkfn2gjsp1ra8qu,33iztu6j85e4i560btt1g2kaxicsxj,s8Zwnzs1,2020-0188,2020-06-04,17:33:44,18:00:27,NA,NA,instruction example,filling,NA,NA,NA,A_M_11.jpg,A_F_13.jpg,C_M_15.jpg,NA,NA,NA,NA,NA,NA,NA,NA,NA,NA,NA,undefined
s8Zwnzs1,3xabxm4ak4i034slkfn2gjsp1ra8qu,33iztu6j85e4i560btt1g2kaxicsxj,s8Zwnzs1,2020-0188,2020-06-04,17:33:44,18:00:27,1589577.0499999998,1604567.4899999977,NA,NA,NA,NA,NA,NA,NA,NA,NA,NA,NA,NA,28,Asian,Male,Chinese,no,yes,no,undefined
