workerId,hitId,assignmentId,subject,studyid,exp_date,exp_start,exp_end,time_start,time_end,trial,type,sequence,reward_validity,answer,image_top,image_left,image_right,response,response_time,response_acc,volatility,practice
2XcLxKFu,3y3czjszan6hsnojzw5z9ps3vnar5b,33ppungg3cihml62xmhhndvpjdnzrp,2XcLxKFu,2020-0188,2020-06-04,08:48:35,09:33:44,NA,incomplete,0,number,0,0,right,Green_Circle_Grid_4.jpg,Green_Plus_Chess_1.jpg,Blue_Star_Stripes_4.jpg,right,768.2050000003073,true,NA,true
2XcLxKFu,3y3czjszan6hsnojzw5z9ps3vnar5b,33ppungg3cihml62xmhhndvpjdnzrp,2XcLxKFu,2020-0188,2020-06-04,08:48:35,09:33:44,NA,incomplete,1,number,0,1,right,Blue_Plus_Chess_1.jpg,Blue_Circle_Dots_2.jpg,Red_Star_Stripes_1.jpg,right,1213.2849999761675,true,NA,true
2XcLxKFu,3y3czjszan6hsnojzw5z9ps3vnar5b,33ppungg3cihml62xmhhndvpjdnzrp,2XcLxKFu,2020-0188,2020-06-04,08:48:35,09:33:44,NA,incomplete,2,number,0,0,left,Blue_Circle_Chess_3.jpg,Green_Plus_Grid_3.jpg,Blue_Star_Dots_1.jpg,left,975.2300000109244,true,NA,true
2XcLxKFu,3y3czjszan6hsnojzw5z9ps3vnar5b,33ppungg3cihml62xmhhndvpjdnzrp,2XcLxKFu,2020-0188,2020-06-04,08:48:35,09:33:44,NA,incomplete,3,number,0,0,left,Purple_Star_Chess_2.jpg,Blue_Triangle_Dots_2.jpg,Purple_Plus_Stripes_1.jpg,left,820.1949999784119,true,NA,true
2XcLxKFu,3y3czjszan6hsnojzw5z9ps3vnar5b,33ppungg3cihml62xmhhndvpjdnzrp,2XcLxKFu,2020-0188,2020-06-04,08:48:35,09:33:44,NA,incomplete,4,number,0,1,left,Red_Triangle_Stripes_3.jpg,Blue_Star_Grid_3.jpg,Red_Plus_Dots_2.jpg,left,971.4300000050571,true,NA,true
2XcLxKFu,3y3czjszan6hsnojzw5z9ps3vnar5b,33ppungg3cihml62xmhhndvpjdnzrp,2XcLxKFu,2020-0188,2020-06-04,08:48:35,09:33:44,NA,incomplete,5,number,0,0,left,Red_Plus_Dots_2.jpg,Green_Triangle_Grid_2.jpg,Red_Circle_Stripes_1.jpg,left,741.9400000071619,true,NA,true
2XcLxKFu,3y3czjszan6hsnojzw5z9ps3vnar5b,33ppungg3cihml62xmhhndvpjdnzrp,2XcLxKFu,2020-0188,2020-06-04,08:48:35,09:33:44,NA,incomplete,6,number,0,1,right,Purple_Triangle_Dots_2.jpg,Purple_Star_Stripes_3.jpg,Red_Circle_Grid_2.jpg,right,814.9700000067241,true,NA,true
2XcLxKFu,3y3czjszan6hsnojzw5z9ps3vnar5b,33ppungg3cihml62xmhhndvpjdnzrp,2XcLxKFu,2020-0188,2020-06-04,08:48:35,09:33:44,NA,incomplete,7,number,0,1,left,Purple_Plus_Dots_2.jpg,Green_Circle_Chess_2.jpg,Purple_Triangle_Grid_3.jpg,left,794.7500000009313,true,NA,true
2XcLxKFu,3y3czjszan6hsnojzw5z9ps3vnar5b,33ppungg3cihml62xmhhndvpjdnzrp,2XcLxKFu,2020-0188,2020-06-04,08:48:35,09:33:44,NA,incomplete,8,number,0,1,right,Purple_Star_Dots_3.jpg,Purple_Circle_Chess_2.jpg,Blue_Triangle_Stripes_3.jpg,right,763.9250000065658,true,NA,true
2XcLxKFu,3y3czjszan6hsnojzw5z9ps3vnar5b,33ppungg3cihml62xmhhndvpjdnzrp,2XcLxKFu,2020-0188,2020-06-04,08:48:35,09:33:44,NA,incomplete,9,number,0,1,right,Green_Plus_Chess_4.jpg,Green_Circle_Stripes_1.jpg,Blue_Triangle_Dots_4.jpg,right,702.6599999808241,true,NA,true
2XcLxKFu,3y3czjszan6hsnojzw5z9ps3vnar5b,33ppungg3cihml62xmhhndvpjdnzrp,2XcLxKFu,2020-0188,2020-06-04,08:48:35,09:33:44,NA,incomplete,10,number,0,1,right,Green_Plus_Stripes_4.jpg,Green_Star_Dots_2.jpg,Purple_Triangle_Grid_4.jpg,right,768.4050000100397,true,NA,true
2XcLxKFu,3y3czjszan6hsnojzw5z9ps3vnar5b,33ppungg3cihml62xmhhndvpjdnzrp,2XcLxKFu,2020-0188,2020-06-04,08:48:35,09:33:44,NA,incomplete,11,number,0,1,right,Purple_Star_Grid_4.jpg,Purple_Triangle_Stripes_2.jpg,Green_Plus_Dots_4.jpg,right,616.8199999956414,true,NA,true
2XcLxKFu,3y3czjszan6hsnojzw5z9ps3vnar5b,33ppungg3cihml62xmhhndvpjdnzrp,2XcLxKFu,2020-0188,2020-06-04,08:48:35,09:33:44,NA,incomplete,12,number,0,1,right,Blue_Star_Stripes_4.jpg,Blue_Circle_Dots_1.jpg,Green_Triangle_Chess_4.jpg,right,618.5750000001863,true,NA,true
2XcLxKFu,3y3czjszan6hsnojzw5z9ps3vnar5b,33ppungg3cihml62xmhhndvpjdnzrp,2XcLxKFu,2020-0188,2020-06-04,08:48:35,09:33:44,NA,incomplete,13,number,0,1,right,Green_Plus_Chess_4.jpg,Green_Circle_Stripes_1.jpg,Red_Triangle_Dots_4.jpg,right,542.7900000070222,true,NA,true
2XcLxKFu,3y3czjszan6hsnojzw5z9ps3vnar5b,33ppungg3cihml62xmhhndvpjdnzrp,2XcLxKFu,2020-0188,2020-06-04,08:48:35,09:33:44,NA,incomplete,14,number,0,1,left,Red_Circle_Dots_4.jpg,Blue_Plus_Grid_4.jpg,Red_Star_Stripes_1.jpg,left,673.5050000133924,true,NA,true
2XcLxKFu,3y3czjszan6hsnojzw5z9ps3vnar5b,33ppungg3cihml62xmhhndvpjdnzrp,2XcLxKFu,2020-0188,2020-06-04,08:48:35,09:33:44,NA,incomplete,15,number,0,1,right,Purple_Circle_Dots_1.jpg,Purple_Triangle_Chess_2.jpg,Red_Star_Grid_1.jpg,right,761.920000018552,true,NA,true
2XcLxKFu,3y3czjszan6hsnojzw5z9ps3vnar5b,33ppungg3cihml62xmhhndvpjdnzrp,2XcLxKFu,2020-0188,2020-06-04,08:48:35,09:33:44,NA,incomplete,16,number,0,1,right,Red_Circle_Chess_1.jpg,Red_Star_Dots_3.jpg,Blue_Plus_Grid_1.jpg,right,744.4400000092573,true,NA,true
2XcLxKFu,3y3czjszan6hsnojzw5z9ps3vnar5b,33ppungg3cihml62xmhhndvpjdnzrp,2XcLxKFu,2020-0188,2020-06-04,08:48:35,09:33:44,NA,incomplete,17,number,0,1,right,Red_Plus_Chess_1.jpg,Red_Triangle_Stripes_4.jpg,Purple_Circle_Grid_1.jpg,right,592.9250000044703,true,NA,true
2XcLxKFu,3y3czjszan6hsnojzw5z9ps3vnar5b,33ppungg3cihml62xmhhndvpjdnzrp,2XcLxKFu,2020-0188,2020-06-04,08:48:35,09:33:44,NA,incomplete,18,number,0,1,right,Red_Plus_Stripes_2.jpg,Red_Triangle_Dots_1.jpg,Green_Star_Grid_2.jpg,right,951.885000017006,true,NA,true
2XcLxKFu,3y3czjszan6hsnojzw5z9ps3vnar5b,33ppungg3cihml62xmhhndvpjdnzrp,2XcLxKFu,2020-0188,2020-06-04,08:48:35,09:33:44,NA,incomplete,19,number,0,1,right,Purple_Circle_Chess_4.jpg,Purple_Plus_Stripes_2.jpg,Blue_Triangle_Dots_4.jpg,right,586.7900000014342,true,NA,true
2XcLxKFu,3y3czjszan6hsnojzw5z9ps3vnar5b,33ppungg3cihml62xmhhndvpjdnzrp,2XcLxKFu,2020-0188,2020-06-04,08:48:35,09:33:44,NA,incomplete,20,color,1,0,left,Blue_Circle_Dots_4.jpg,Blue_Star_Stripes_3.jpg,Red_Plus_Grid_4.jpg,right,827.6250000051223,false,NA,true
2XcLxKFu,3y3czjszan6hsnojzw5z9ps3vnar5b,33ppungg3cihml62xmhhndvpjdnzrp,2XcLxKFu,2020-0188,2020-06-04,08:48:35,09:33:44,NA,incomplete,21,color,1,1,left,Purple_Triangle_Grid_4.jpg,Purple_Circle_Chess_3.jpg,Green_Plus_Dots_4.jpg,right,783.5999999954365,false,NA,true
2XcLxKFu,3y3czjszan6hsnojzw5z9ps3vnar5b,33ppungg3cihml62xmhhndvpjdnzrp,2XcLxKFu,2020-0188,2020-06-04,08:48:35,09:33:44,NA,incomplete,22,color,1,1,right,Green_Circle_Stripes_2.jpg,Blue_Star_Dots_2.jpg,Green_Plus_Chess_3.jpg,right,1042.480000003241,true,NA,true
2XcLxKFu,3y3czjszan6hsnojzw5z9ps3vnar5b,33ppungg3cihml62xmhhndvpjdnzrp,2XcLxKFu,2020-0188,2020-06-04,08:48:35,09:33:44,NA,incomplete,23,color,1,1,right,Red_Triangle_Grid_4.jpg,Green_Circle_Dots_4.jpg,Red_Star_Stripes_3.jpg,right,815.5450000194833,true,NA,true
2XcLxKFu,3y3czjszan6hsnojzw5z9ps3vnar5b,33ppungg3cihml62xmhhndvpjdnzrp,2XcLxKFu,2020-0188,2020-06-04,08:48:35,09:33:44,NA,incomplete,24,color,1,1,right,Green_Plus_Grid_4.jpg,Red_Circle_Chess_4.jpg,Green_Triangle_Dots_3.jpg,left,895.3449999969453,false,NA,true
2XcLxKFu,3y3czjszan6hsnojzw5z9ps3vnar5b,33ppungg3cihml62xmhhndvpjdnzrp,2XcLxKFu,2020-0188,2020-06-04,08:48:35,09:33:44,NA,incomplete,25,color,1,1,right,Red_Triangle_Grid_1.jpg,Green_Star_Chess_1.jpg,Red_Circle_Dots_4.jpg,right,918.4499999973923,true,NA,true
2XcLxKFu,3y3czjszan6hsnojzw5z9ps3vnar5b,33ppungg3cihml62xmhhndvpjdnzrp,2XcLxKFu,2020-0188,2020-06-04,08:48:35,09:33:44,NA,incomplete,26,color,1,1,left,Red_Circle_Stripes_3.jpg,Red_Plus_Dots_1.jpg,Blue_Star_Chess_3.jpg,left,783.4199999924749,true,NA,true
2XcLxKFu,3y3czjszan6hsnojzw5z9ps3vnar5b,33ppungg3cihml62xmhhndvpjdnzrp,2XcLxKFu,2020-0188,2020-06-04,08:48:35,09:33:44,NA,incomplete,27,color,1,1,left,Blue_Plus_Chess_2.jpg,Blue_Circle_Grid_4.jpg,Red_Star_Stripes_2.jpg,left,846.4650000091642,true,NA,true
2XcLxKFu,3y3czjszan6hsnojzw5z9ps3vnar5b,33ppungg3cihml62xmhhndvpjdnzrp,2XcLxKFu,2020-0188,2020-06-04,08:48:35,09:33:44,NA,incomplete,28,color,1,1,left,Green_Triangle_Stripes_1.jpg,Green_Star_Grid_2.jpg,Blue_Plus_Chess_1.jpg,left,738.4699999820441,true,NA,true
2XcLxKFu,3y3czjszan6hsnojzw5z9ps3vnar5b,33ppungg3cihml62xmhhndvpjdnzrp,2XcLxKFu,2020-0188,2020-06-04,08:48:35,09:33:44,NA,incomplete,29,color,1,1,left,Purple_Plus_Grid_4.jpg,Purple_Circle_Stripes_3.jpg,Blue_Star_Dots_4.jpg,left,707.1850000065751,true,NA,true
2XcLxKFu,3y3czjszan6hsnojzw5z9ps3vnar5b,33ppungg3cihml62xmhhndvpjdnzrp,2XcLxKFu,2020-0188,2020-06-04,08:48:35,09:33:44,NA,incomplete,30,color,1,1,left,Blue_Triangle_Grid_3.jpg,Blue_Plus_Stripes_2.jpg,Green_Circle_Chess_3.jpg,left,713.2049999777228,true,NA,true
2XcLxKFu,3y3czjszan6hsnojzw5z9ps3vnar5b,33ppungg3cihml62xmhhndvpjdnzrp,2XcLxKFu,2020-0188,2020-06-04,08:48:35,09:33:44,NA,incomplete,31,color,1,0,left,Red_Star_Dots_3.jpg,Red_Triangle_Grid_4.jpg,Purple_Circle_Stripes_3.jpg,left,666.0749999866821,true,NA,true
2XcLxKFu,3y3czjszan6hsnojzw5z9ps3vnar5b,33ppungg3cihml62xmhhndvpjdnzrp,2XcLxKFu,2020-0188,2020-06-04,08:48:35,09:33:44,NA,incomplete,32,color,1,1,left,Red_Triangle_Dots_1.jpg,Red_Star_Stripes_3.jpg,Purple_Circle_Grid_1.jpg,left,788.8550000209361,true,NA,true
2XcLxKFu,3y3czjszan6hsnojzw5z9ps3vnar5b,33ppungg3cihml62xmhhndvpjdnzrp,2XcLxKFu,2020-0188,2020-06-04,08:48:35,09:33:44,NA,incomplete,33,color,1,1,left,Purple_Plus_Chess_3.jpg,Purple_Circle_Stripes_4.jpg,Green_Star_Grid_3.jpg,left,637.0100000058301,true,NA,true
2XcLxKFu,3y3czjszan6hsnojzw5z9ps3vnar5b,33ppungg3cihml62xmhhndvpjdnzrp,2XcLxKFu,2020-0188,2020-06-04,08:48:35,09:33:44,NA,incomplete,34,color,1,1,right,Purple_Circle_Stripes_1.jpg,Blue_Plus_Chess_1.jpg,Purple_Triangle_Grid_4.jpg,right,544.0799999921583,true,NA,true
2XcLxKFu,3y3czjszan6hsnojzw5z9ps3vnar5b,33ppungg3cihml62xmhhndvpjdnzrp,2XcLxKFu,2020-0188,2020-06-04,08:48:35,09:33:44,NA,incomplete,35,color,1,1,left,Red_Circle_Dots_1.jpg,Red_Triangle_Grid_2.jpg,Purple_Star_Stripes_1.jpg,left,653.8799999980256,true,NA,true
2XcLxKFu,3y3czjszan6hsnojzw5z9ps3vnar5b,33ppungg3cihml62xmhhndvpjdnzrp,2XcLxKFu,2020-0188,2020-06-04,08:48:35,09:33:44,NA,incomplete,36,color,1,0,right,Green_Plus_Dots_1.jpg,Blue_Circle_Stripes_1.jpg,Green_Triangle_Chess_2.jpg,right,636.9000000120141,true,NA,true
2XcLxKFu,3y3czjszan6hsnojzw5z9ps3vnar5b,33ppungg3cihml62xmhhndvpjdnzrp,2XcLxKFu,2020-0188,2020-06-04,08:48:35,09:33:44,NA,incomplete,37,color,1,1,right,Purple_Plus_Grid_3.jpg,Red_Triangle_Dots_3.jpg,Purple_Star_Chess_1.jpg,right,577.7999999988824,true,NA,true
2XcLxKFu,3y3czjszan6hsnojzw5z9ps3vnar5b,33ppungg3cihml62xmhhndvpjdnzrp,2XcLxKFu,2020-0188,2020-06-04,08:48:35,09:33:44,NA,incomplete,38,color,1,1,right,Blue_Circle_Grid_1.jpg,Green_Triangle_Chess_1.jpg,Blue_Plus_Dots_2.jpg,right,611.9849999961443,true,NA,true
2XcLxKFu,3y3czjszan6hsnojzw5z9ps3vnar5b,33ppungg3cihml62xmhhndvpjdnzrp,2XcLxKFu,2020-0188,2020-06-04,08:48:35,09:33:44,NA,incomplete,39,color,1,0,right,Green_Plus_Stripes_4.jpg,Red_Circle_Dots_4.jpg,Green_Star_Chess_1.jpg,right,651.7850000234321,true,NA,true
2XcLxKFu,3y3czjszan6hsnojzw5z9ps3vnar5b,33ppungg3cihml62xmhhndvpjdnzrp,2XcLxKFu,2020-0188,2020-06-04,08:48:35,09:33:44,NA,incomplete,0,number,0,1,right,Blue_Triangle_Grid_1.jpg,Blue_Plus_Stripes_2.jpg,Green_Circle_Chess_1.jpg,left,677.7750000185333,false,low,false
2XcLxKFu,3y3czjszan6hsnojzw5z9ps3vnar5b,33ppungg3cihml62xmhhndvpjdnzrp,2XcLxKFu,2020-0188,2020-06-04,08:48:35,09:33:44,NA,incomplete,1,number,0,1,right,Green_Plus_Grid_1.jpg,Green_Star_Chess_2.jpg,Blue_Triangle_Stripes_1.jpg,left,520.9449999965727,false,low,false
2XcLxKFu,3y3czjszan6hsnojzw5z9ps3vnar5b,33ppungg3cihml62xmhhndvpjdnzrp,2XcLxKFu,2020-0188,2020-06-04,08:48:35,09:33:44,NA,incomplete,2,number,0,1,left,Green_Circle_Dots_2.jpg,Red_Star_Grid_2.jpg,Green_Plus_Chess_1.jpg,left,891.3750000065193,true,low,false
2XcLxKFu,3y3czjszan6hsnojzw5z9ps3vnar5b,33ppungg3cihml62xmhhndvpjdnzrp,2XcLxKFu,2020-0188,2020-06-04,08:48:35,09:33:44,NA,incomplete,3,number,0,1,right,Green_Plus_Chess_2.jpg,Green_Circle_Stripes_3.jpg,Blue_Triangle_Dots_2.jpg,left,633.2450000043027,false,low,false
2XcLxKFu,3y3czjszan6hsnojzw5z9ps3vnar5b,33ppungg3cihml62xmhhndvpjdnzrp,2XcLxKFu,2020-0188,2020-06-04,08:48:35,09:33:44,NA,incomplete,4,number,0,1,right,Blue_Circle_Stripes_4.jpg,Blue_Plus_Grid_3.jpg,Red_Triangle_Chess_4.jpg,right,616.8349999934435,true,low,false
2XcLxKFu,3y3czjszan6hsnojzw5z9ps3vnar5b,33ppungg3cihml62xmhhndvpjdnzrp,2XcLxKFu,2020-0188,2020-06-04,08:48:35,09:33:44,NA,incomplete,5,number,0,1,right,Green_Circle_Grid_3.jpg,Green_Triangle_Chess_2.jpg,Red_Plus_Stripes_3.jpg,right,739.1049999860115,true,low,false
2XcLxKFu,3y3czjszan6hsnojzw5z9ps3vnar5b,33ppungg3cihml62xmhhndvpjdnzrp,2XcLxKFu,2020-0188,2020-06-04,08:48:35,09:33:44,NA,incomplete,6,number,0,1,left,Blue_Plus_Dots_1.jpg,Green_Triangle_Grid_1.jpg,Blue_Star_Chess_4.jpg,left,676.0249999933876,true,low,false
2XcLxKFu,3y3czjszan6hsnojzw5z9ps3vnar5b,33ppungg3cihml62xmhhndvpjdnzrp,2XcLxKFu,2020-0188,2020-06-04,08:48:35,09:33:44,NA,incomplete,7,number,0,1,right,Green_Star_Grid_2.jpg,Green_Circle_Dots_3.jpg,Blue_Triangle_Stripes_2.jpg,right,559.464999998454,true,low,false
2XcLxKFu,3y3czjszan6hsnojzw5z9ps3vnar5b,33ppungg3cihml62xmhhndvpjdnzrp,2XcLxKFu,2020-0188,2020-06-04,08:48:35,09:33:44,NA,incomplete,8,number,0,1,left,Green_Plus_Stripes_1.jpg,Red_Star_Chess_1.jpg,Green_Circle_Dots_3.jpg,left,851.3800000073388,true,low,false
2XcLxKFu,3y3czjszan6hsnojzw5z9ps3vnar5b,33ppungg3cihml62xmhhndvpjdnzrp,2XcLxKFu,2020-0188,2020-06-04,08:48:35,09:33:44,NA,incomplete,9,number,0,1,right,Purple_Star_Grid_1.jpg,Purple_Plus_Dots_4.jpg,Red_Circle_Stripes_1.jpg,right,651.5099999960512,true,low,false
2XcLxKFu,3y3czjszan6hsnojzw5z9ps3vnar5b,33ppungg3cihml62xmhhndvpjdnzrp,2XcLxKFu,2020-0188,2020-06-04,08:48:35,09:33:44,NA,incomplete,10,number,0,1,left,Green_Plus_Dots_2.jpg,Purple_Star_Chess_2.jpg,Green_Triangle_Stripes_3.jpg,left,651.4250000184402,true,low,false
2XcLxKFu,3y3czjszan6hsnojzw5z9ps3vnar5b,33ppungg3cihml62xmhhndvpjdnzrp,2XcLxKFu,2020-0188,2020-06-04,08:48:35,09:33:44,NA,incomplete,11,number,0,1,left,Red_Circle_Dots_4.jpg,Purple_Star_Grid_4.jpg,Red_Plus_Stripes_3.jpg,left,727.66000000434,true,low,false
2XcLxKFu,3y3czjszan6hsnojzw5z9ps3vnar5b,33ppungg3cihml62xmhhndvpjdnzrp,2XcLxKFu,2020-0188,2020-06-04,08:48:35,09:33:44,NA,incomplete,12,number,0,0,left,Blue_Plus_Stripes_2.jpg,Purple_Triangle_Grid_2.jpg,Blue_Circle_Dots_3.jpg,left,746.5450000017881,true,low,false
2XcLxKFu,3y3czjszan6hsnojzw5z9ps3vnar5b,33ppungg3cihml62xmhhndvpjdnzrp,2XcLxKFu,2020-0188,2020-06-04,08:48:35,09:33:44,NA,incomplete,13,number,0,0,right,Blue_Circle_Chess_2.jpg,Blue_Triangle_Dots_3.jpg,Red_Plus_Grid_2.jpg,right,740.3699999847449,true,low,false
2XcLxKFu,3y3czjszan6hsnojzw5z9ps3vnar5b,33ppungg3cihml62xmhhndvpjdnzrp,2XcLxKFu,2020-0188,2020-06-04,08:48:35,09:33:44,NA,incomplete,14,number,0,0,left,Blue_Circle_Stripes_3.jpg,Red_Star_Chess_3.jpg,Blue_Triangle_Grid_1.jpg,right,547.2949999966659,false,low,false
2XcLxKFu,3y3czjszan6hsnojzw5z9ps3vnar5b,33ppungg3cihml62xmhhndvpjdnzrp,2XcLxKFu,2020-0188,2020-06-04,08:48:35,09:33:44,NA,incomplete,15,number,0,1,left,Green_Triangle_Chess_1.jpg,Blue_Circle_Grid_1.jpg,Green_Star_Stripes_2.jpg,right,492.49000000441447,false,low,false
2XcLxKFu,3y3czjszan6hsnojzw5z9ps3vnar5b,33ppungg3cihml62xmhhndvpjdnzrp,2XcLxKFu,2020-0188,2020-06-04,08:48:35,09:33:44,NA,incomplete,16,number,0,1,left,Red_Plus_Grid_3.jpg,Purple_Circle_Dots_3.jpg,Red_Star_Stripes_2.jpg,right,508.02000000793487,false,low,false
2XcLxKFu,3y3czjszan6hsnojzw5z9ps3vnar5b,33ppungg3cihml62xmhhndvpjdnzrp,2XcLxKFu,2020-0188,2020-06-04,08:48:35,09:33:44,NA,incomplete,17,number,0,1,left,Red_Star_Dots_3.jpg,Purple_Plus_Grid_3.jpg,Red_Triangle_Chess_2.jpg,left,842.1450000023469,true,low,false
2XcLxKFu,3y3czjszan6hsnojzw5z9ps3vnar5b,33ppungg3cihml62xmhhndvpjdnzrp,2XcLxKFu,2020-0188,2020-06-04,08:48:35,09:33:44,NA,incomplete,18,number,0,1,right,Red_Circle_Dots_3.jpg,Red_Star_Stripes_2.jpg,Green_Plus_Chess_3.jpg,right,610.1250000065193,true,low,false
2XcLxKFu,3y3czjszan6hsnojzw5z9ps3vnar5b,33ppungg3cihml62xmhhndvpjdnzrp,2XcLxKFu,2020-0188,2020-06-04,08:48:35,09:33:44,NA,incomplete,19,number,0,0,right,Green_Triangle_Grid_1.jpg,Green_Star_Stripes_4.jpg,Purple_Circle_Dots_1.jpg,right,688.2299999995157,true,low,false
2XcLxKFu,3y3czjszan6hsnojzw5z9ps3vnar5b,33ppungg3cihml62xmhhndvpjdnzrp,2XcLxKFu,2020-0188,2020-06-04,08:48:35,09:33:44,NA,incomplete,20,number,0,0,right,Purple_Star_Grid_2.jpg,Purple_Triangle_Dots_4.jpg,Blue_Circle_Chess_2.jpg,right,700.9100000141189,true,low,false
2XcLxKFu,3y3czjszan6hsnojzw5z9ps3vnar5b,33ppungg3cihml62xmhhndvpjdnzrp,2XcLxKFu,2020-0188,2020-06-04,08:48:35,09:33:44,NA,incomplete,21,number,0,1,right,Green_Circle_Stripes_2.jpg,Green_Triangle_Chess_4.jpg,Purple_Star_Dots_2.jpg,left,673.8900000052527,false,low,false
2XcLxKFu,3y3czjszan6hsnojzw5z9ps3vnar5b,33ppungg3cihml62xmhhndvpjdnzrp,2XcLxKFu,2020-0188,2020-06-04,08:48:35,09:33:44,NA,incomplete,22,number,0,1,left,Blue_Plus_Dots_4.jpg,Purple_Circle_Chess_4.jpg,Blue_Triangle_Stripes_3.jpg,right,517.4100000006147,false,low,false
2XcLxKFu,3y3czjszan6hsnojzw5z9ps3vnar5b,33ppungg3cihml62xmhhndvpjdnzrp,2XcLxKFu,2020-0188,2020-06-04,08:48:35,09:33:44,NA,incomplete,23,number,0,1,left,Green_Plus_Dots_1.jpg,Blue_Circle_Chess_1.jpg,Green_Star_Grid_3.jpg,left,662.5700000151992,true,low,false
2XcLxKFu,3y3czjszan6hsnojzw5z9ps3vnar5b,33ppungg3cihml62xmhhndvpjdnzrp,2XcLxKFu,2020-0188,2020-06-04,08:48:35,09:33:44,NA,incomplete,24,number,0,1,left,Green_Triangle_Stripes_3.jpg,Blue_Circle_Chess_3.jpg,Green_Plus_Dots_2.jpg,left,800.624999973923,true,low,false
2XcLxKFu,3y3czjszan6hsnojzw5z9ps3vnar5b,33ppungg3cihml62xmhhndvpjdnzrp,2XcLxKFu,2020-0188,2020-06-04,08:48:35,09:33:44,NA,incomplete,25,number,0,1,left,Blue_Triangle_Dots_2.jpg,Green_Star_Chess_2.jpg,Blue_Plus_Stripes_3.jpg,left,719.0999999875203,true,low,false
2XcLxKFu,3y3czjszan6hsnojzw5z9ps3vnar5b,33ppungg3cihml62xmhhndvpjdnzrp,2XcLxKFu,2020-0188,2020-06-04,08:48:35,09:33:44,NA,incomplete,26,number,0,0,left,Red_Circle_Stripes_1.jpg,Blue_Star_Chess_1.jpg,Red_Triangle_Grid_3.jpg,left,660.730000003241,true,low,false
2XcLxKFu,3y3czjszan6hsnojzw5z9ps3vnar5b,33ppungg3cihml62xmhhndvpjdnzrp,2XcLxKFu,2020-0188,2020-06-04,08:48:35,09:33:44,NA,incomplete,27,number,0,1,left,Purple_Plus_Chess_3.jpg,Red_Circle_Grid_3.jpg,Purple_Star_Dots_4.jpg,left,815.2499999850988,true,low,false
2XcLxKFu,3y3czjszan6hsnojzw5z9ps3vnar5b,33ppungg3cihml62xmhhndvpjdnzrp,2XcLxKFu,2020-0188,2020-06-04,08:48:35,09:33:44,NA,incomplete,28,number,0,1,right,Red_Circle_Chess_3.jpg,Red_Triangle_Dots_1.jpg,Green_Star_Stripes_3.jpg,right,545.2599999844097,true,low,false
2XcLxKFu,3y3czjszan6hsnojzw5z9ps3vnar5b,33ppungg3cihml62xmhhndvpjdnzrp,2XcLxKFu,2020-0188,2020-06-04,08:48:35,09:33:44,NA,incomplete,29,number,0,0,left,Green_Circle_Grid_2.jpg,Purple_Plus_Stripes_2.jpg,Green_Star_Chess_1.jpg,left,610.4300000006333,true,low,false
2XcLxKFu,3y3czjszan6hsnojzw5z9ps3vnar5b,33ppungg3cihml62xmhhndvpjdnzrp,2XcLxKFu,2020-0188,2020-06-04,08:48:35,09:33:44,NA,incomplete,30,color,1,0,right,Red_Circle_Stripes_1.jpg,Blue_Plus_Chess_1.jpg,Red_Star_Grid_4.jpg,left,690.5900000128895,false,low,false
2XcLxKFu,3y3czjszan6hsnojzw5z9ps3vnar5b,33ppungg3cihml62xmhhndvpjdnzrp,2XcLxKFu,2020-0188,2020-06-04,08:48:35,09:33:44,NA,incomplete,31,color,1,1,right,Red_Circle_Stripes_2.jpg,Blue_Star_Chess_2.jpg,Red_Plus_Dots_4.jpg,left,909.4700000132434,false,low,false
2XcLxKFu,3y3czjszan6hsnojzw5z9ps3vnar5b,33ppungg3cihml62xmhhndvpjdnzrp,2XcLxKFu,2020-0188,2020-06-04,08:48:35,09:33:44,NA,incomplete,32,color,1,0,right,Purple_Circle_Chess_1.jpg,Blue_Plus_Stripes_1.jpg,Purple_Triangle_Dots_2.jpg,left,753.2449999996461,false,low,false
2XcLxKFu,3y3czjszan6hsnojzw5z9ps3vnar5b,33ppungg3cihml62xmhhndvpjdnzrp,2XcLxKFu,2020-0188,2020-06-04,08:48:35,09:33:44,NA,incomplete,33,color,1,1,left,Red_Plus_Chess_2.jpg,Red_Star_Grid_1.jpg,Purple_Circle_Dots_2.jpg,right,571.5199999976903,false,low,false
2XcLxKFu,3y3czjszan6hsnojzw5z9ps3vnar5b,33ppungg3cihml62xmhhndvpjdnzrp,2XcLxKFu,2020-0188,2020-06-04,08:48:35,09:33:44,NA,incomplete,34,color,1,1,right,Blue_Circle_Stripes_2.jpg,Red_Triangle_Grid_2.jpg,Blue_Star_Chess_4.jpg,left,647.9749999996275,false,low,false
2XcLxKFu,3y3czjszan6hsnojzw5z9ps3vnar5b,33ppungg3cihml62xmhhndvpjdnzrp,2XcLxKFu,2020-0188,2020-06-04,08:48:35,09:33:44,NA,incomplete,35,color,1,1,right,Blue_Triangle_Grid_3.jpg,Purple_Circle_Stripes_3.jpg,Blue_Plus_Dots_4.jpg,right,558.5399999981746,true,low,false
2XcLxKFu,3y3czjszan6hsnojzw5z9ps3vnar5b,33ppungg3cihml62xmhhndvpjdnzrp,2XcLxKFu,2020-0188,2020-06-04,08:48:35,09:33:44,NA,incomplete,36,color,1,1,left,Green_Circle_Dots_3.jpg,Green_Plus_Chess_4.jpg,Red_Star_Grid_3.jpg,left,476.44000002741814,true,low,false
2XcLxKFu,3y3czjszan6hsnojzw5z9ps3vnar5b,33ppungg3cihml62xmhhndvpjdnzrp,2XcLxKFu,2020-0188,2020-06-04,08:48:35,09:33:44,NA,incomplete,37,color,1,1,left,Purple_Triangle_Grid_3.jpg,Purple_Star_Dots_4.jpg,Green_Circle_Chess_3.jpg,left,649.245000008028,true,low,false
2XcLxKFu,3y3czjszan6hsnojzw5z9ps3vnar5b,33ppungg3cihml62xmhhndvpjdnzrp,2XcLxKFu,2020-0188,2020-06-04,08:48:35,09:33:44,NA,incomplete,38,color,1,1,right,Red_Star_Stripes_1.jpg,Green_Plus_Grid_1.jpg,Red_Triangle_Dots_3.jpg,left,919.3699999889359,false,low,false
2XcLxKFu,3y3czjszan6hsnojzw5z9ps3vnar5b,33ppungg3cihml62xmhhndvpjdnzrp,2XcLxKFu,2020-0188,2020-06-04,08:48:35,09:33:44,NA,incomplete,39,color,1,1,right,Blue_Plus_Chess_4.jpg,Purple_Star_Stripes_4.jpg,Blue_Circle_Dots_1.jpg,right,794.6700000027195,true,low,false
2XcLxKFu,3y3czjszan6hsnojzw5z9ps3vnar5b,33ppungg3cihml62xmhhndvpjdnzrp,2XcLxKFu,2020-0188,2020-06-04,08:48:35,09:33:44,NA,incomplete,40,color,1,1,right,Red_Plus_Chess_3.jpg,Blue_Circle_Stripes_3.jpg,Red_Triangle_Dots_4.jpg,right,656.1700000022538,true,low,false
2XcLxKFu,3y3czjszan6hsnojzw5z9ps3vnar5b,33ppungg3cihml62xmhhndvpjdnzrp,2XcLxKFu,2020-0188,2020-06-04,08:48:35,09:33:44,NA,incomplete,41,color,1,1,right,Blue_Plus_Stripes_4.jpg,Purple_Star_Grid_4.jpg,Blue_Triangle_Chess_1.jpg,left,643.9400000092573,false,low,false
2XcLxKFu,3y3czjszan6hsnojzw5z9ps3vnar5b,33ppungg3cihml62xmhhndvpjdnzrp,2XcLxKFu,2020-0188,2020-06-04,08:48:35,09:33:44,NA,incomplete,42,color,1,1,left,Purple_Star_Chess_2.jpg,Purple_Plus_Dots_4.jpg,Blue_Circle_Grid_2.jpg,left,828.8750000065193,true,low,false
2XcLxKFu,3y3czjszan6hsnojzw5z9ps3vnar5b,33ppungg3cihml62xmhhndvpjdnzrp,2XcLxKFu,2020-0188,2020-06-04,08:48:35,09:33:44,NA,incomplete,43,color,1,1,right,Purple_Star_Stripes_2.jpg,Green_Circle_Chess_2.jpg,Purple_Plus_Dots_3.jpg,right,489.5499999988824,true,low,false
2XcLxKFu,3y3czjszan6hsnojzw5z9ps3vnar5b,33ppungg3cihml62xmhhndvpjdnzrp,2XcLxKFu,2020-0188,2020-06-04,08:48:35,09:33:44,NA,incomplete,44,color,1,1,left,Green_Star_Grid_3.jpg,Green_Triangle_Chess_4.jpg,Red_Circle_Dots_3.jpg,left,568.859999999404,true,low,false
2XcLxKFu,3y3czjszan6hsnojzw5z9ps3vnar5b,33ppungg3cihml62xmhhndvpjdnzrp,2XcLxKFu,2020-0188,2020-06-04,08:48:35,09:33:44,NA,incomplete,45,color,1,1,left,Purple_Triangle_Grid_1.jpg,Purple_Circle_Stripes_3.jpg,Blue_Star_Dots_1.jpg,left,637.7449999856763,true,low,false
2XcLxKFu,3y3czjszan6hsnojzw5z9ps3vnar5b,33ppungg3cihml62xmhhndvpjdnzrp,2XcLxKFu,2020-0188,2020-06-04,08:48:35,09:33:44,NA,incomplete,46,color,1,0,right,Red_Plus_Stripes_2.jpg,Blue_Star_Dots_2.jpg,Red_Circle_Grid_3.jpg,right,387.92499998770654,true,low,false
2XcLxKFu,3y3czjszan6hsnojzw5z9ps3vnar5b,33ppungg3cihml62xmhhndvpjdnzrp,2XcLxKFu,2020-0188,2020-06-04,08:48:35,09:33:44,NA,incomplete,47,color,1,1,left,Green_Circle_Dots_1.jpg,Green_Star_Chess_4.jpg,Red_Triangle_Stripes_1.jpg,left,487.1700000073761,true,low,false
2XcLxKFu,3y3czjszan6hsnojzw5z9ps3vnar5b,33ppungg3cihml62xmhhndvpjdnzrp,2XcLxKFu,2020-0188,2020-06-04,08:48:35,09:33:44,NA,incomplete,48,color,1,1,right,Blue_Plus_Grid_3.jpg,Red_Triangle_Dots_3.jpg,Blue_Star_Stripes_1.jpg,right,536.3050000160001,true,low,false
2XcLxKFu,3y3czjszan6hsnojzw5z9ps3vnar5b,33ppungg3cihml62xmhhndvpjdnzrp,2XcLxKFu,2020-0188,2020-06-04,08:48:35,09:33:44,NA,incomplete,49,color,1,1,left,Green_Circle_Stripes_4.jpg,Green_Star_Grid_2.jpg,Purple_Triangle_Dots_4.jpg,left,503.3450000048615,true,low,false
2XcLxKFu,3y3czjszan6hsnojzw5z9ps3vnar5b,33ppungg3cihml62xmhhndvpjdnzrp,2XcLxKFu,2020-0188,2020-06-04,08:48:35,09:33:44,NA,incomplete,50,color,1,1,right,Red_Circle_Dots_2.jpg,Blue_Triangle_Grid_2.jpg,Red_Plus_Stripes_3.jpg,right,527.2849999894388,true,low,false
2XcLxKFu,3y3czjszan6hsnojzw5z9ps3vnar5b,33ppungg3cihml62xmhhndvpjdnzrp,2XcLxKFu,2020-0188,2020-06-04,08:48:35,09:33:44,NA,incomplete,51,color,1,1,right,Purple_Triangle_Stripes_3.jpg,Red_Circle_Chess_3.jpg,Purple_Plus_Dots_1.jpg,right,470.1150000039488,true,low,false
2XcLxKFu,3y3czjszan6hsnojzw5z9ps3vnar5b,33ppungg3cihml62xmhhndvpjdnzrp,2XcLxKFu,2020-0188,2020-06-04,08:48:35,09:33:44,NA,incomplete,52,color,1,1,right,Red_Star_Stripes_1.jpg,Blue_Circle_Chess_1.jpg,Red_Plus_Dots_2.jpg,right,481.739999988582,true,low,false
2XcLxKFu,3y3czjszan6hsnojzw5z9ps3vnar5b,33ppungg3cihml62xmhhndvpjdnzrp,2XcLxKFu,2020-0188,2020-06-04,08:48:35,09:33:44,NA,incomplete,53,color,1,1,left,Blue_Circle_Stripes_1.jpg,Blue_Star_Chess_2.jpg,Red_Plus_Grid_1.jpg,left,457.19000001531094,true,low,false
2XcLxKFu,3y3czjszan6hsnojzw5z9ps3vnar5b,33ppungg3cihml62xmhhndvpjdnzrp,2XcLxKFu,2020-0188,2020-06-04,08:48:35,09:33:44,NA,incomplete,54,color,1,1,left,Purple_Plus_Chess_4.jpg,Purple_Triangle_Dots_3.jpg,Red_Circle_Stripes_4.jpg,left,537.9049999760464,true,low,false
2XcLxKFu,3y3czjszan6hsnojzw5z9ps3vnar5b,33ppungg3cihml62xmhhndvpjdnzrp,2XcLxKFu,2020-0188,2020-06-04,08:48:35,09:33:44,NA,incomplete,55,color,1,1,left,Purple_Star_Dots_4.jpg,Purple_Triangle_Grid_2.jpg,Red_Circle_Stripes_4.jpg,left,366.90000002272427,true,low,false
2XcLxKFu,3y3czjszan6hsnojzw5z9ps3vnar5b,33ppungg3cihml62xmhhndvpjdnzrp,2XcLxKFu,2020-0188,2020-06-04,08:48:35,09:33:44,NA,incomplete,56,color,1,1,left,Red_Triangle_Dots_1.jpg,Red_Star_Chess_3.jpg,Purple_Plus_Stripes_1.jpg,left,427.4300000104122,true,low,false
2XcLxKFu,3y3czjszan6hsnojzw5z9ps3vnar5b,33ppungg3cihml62xmhhndvpjdnzrp,2XcLxKFu,2020-0188,2020-06-04,08:48:35,09:33:44,NA,incomplete,57,color,1,1,left,Purple_Circle_Grid_1.jpg,Purple_Plus_Dots_2.jpg,Green_Star_Chess_1.jpg,left,431.18000001460314,true,low,false
2XcLxKFu,3y3czjszan6hsnojzw5z9ps3vnar5b,33ppungg3cihml62xmhhndvpjdnzrp,2XcLxKFu,2020-0188,2020-06-04,08:48:35,09:33:44,NA,incomplete,58,color,1,1,left,Purple_Triangle_Chess_1.jpg,Purple_Plus_Grid_2.jpg,Green_Circle_Stripes_1.jpg,left,464.53500000666827,true,low,false
2XcLxKFu,3y3czjszan6hsnojzw5z9ps3vnar5b,33ppungg3cihml62xmhhndvpjdnzrp,2XcLxKFu,2020-0188,2020-06-04,08:48:35,09:33:44,NA,incomplete,59,color,1,1,right,Blue_Circle_Stripes_1.jpg,Purple_Triangle_Grid_1.jpg,Blue_Plus_Dots_4.jpg,left,489.06500000180677,false,low,false
2XcLxKFu,3y3czjszan6hsnojzw5z9ps3vnar5b,33ppungg3cihml62xmhhndvpjdnzrp,2XcLxKFu,2020-0188,2020-06-04,08:48:35,09:33:44,NA,incomplete,60,number,0,1,left,Blue_Plus_Grid_2.jpg,Green_Star_Dots_2.jpg,Blue_Circle_Stripes_1.jpg,left,433.2149999975227,true,low,false
2XcLxKFu,3y3czjszan6hsnojzw5z9ps3vnar5b,33ppungg3cihml62xmhhndvpjdnzrp,2XcLxKFu,2020-0188,2020-06-04,08:48:35,09:33:44,NA,incomplete,61,number,0,0,left,Red_Triangle_Stripes_1.jpg,Green_Star_Chess_1.jpg,Red_Plus_Dots_4.jpg,right,453.18000001180917,false,low,false
2XcLxKFu,3y3czjszan6hsnojzw5z9ps3vnar5b,33ppungg3cihml62xmhhndvpjdnzrp,2XcLxKFu,2020-0188,2020-06-04,08:48:35,09:33:44,NA,incomplete,62,number,0,1,left,Red_Star_Stripes_4.jpg,Blue_Plus_Grid_4.jpg,Red_Circle_Dots_2.jpg,right,604.3899999931455,false,low,false
2XcLxKFu,3y3czjszan6hsnojzw5z9ps3vnar5b,33ppungg3cihml62xmhhndvpjdnzrp,2XcLxKFu,2020-0188,2020-06-04,08:48:35,09:33:44,NA,incomplete,63,number,0,1,right,Green_Plus_Grid_4.jpg,Green_Circle_Dots_3.jpg,Red_Star_Stripes_4.jpg,right,507.9549999795854,true,low,false
2XcLxKFu,3y3czjszan6hsnojzw5z9ps3vnar5b,33ppungg3cihml62xmhhndvpjdnzrp,2XcLxKFu,2020-0188,2020-06-04,08:48:35,09:33:44,NA,incomplete,64,number,0,1,left,Red_Plus_Chess_1.jpg,Purple_Circle_Stripes_1.jpg,Red_Triangle_Grid_4.jpg,left,544.2949999994598,true,low,false
2XcLxKFu,3y3czjszan6hsnojzw5z9ps3vnar5b,33ppungg3cihml62xmhhndvpjdnzrp,2XcLxKFu,2020-0188,2020-06-04,08:48:35,09:33:44,NA,incomplete,65,number,0,1,left,Red_Triangle_Grid_2.jpg,Blue_Star_Stripes_2.jpg,Red_Plus_Dots_1.jpg,left,661.809999990277,true,low,false
2XcLxKFu,3y3czjszan6hsnojzw5z9ps3vnar5b,33ppungg3cihml62xmhhndvpjdnzrp,2XcLxKFu,2020-0188,2020-06-04,08:48:35,09:33:44,NA,incomplete,66,number,0,0,right,Purple_Plus_Chess_4.jpg,Purple_Circle_Stripes_2.jpg,Blue_Star_Grid_4.jpg,right,517.1050000065006,true,low,false
2XcLxKFu,3y3czjszan6hsnojzw5z9ps3vnar5b,33ppungg3cihml62xmhhndvpjdnzrp,2XcLxKFu,2020-0188,2020-06-04,08:48:35,09:33:44,NA,incomplete,67,number,0,1,right,Red_Star_Stripes_3.jpg,Red_Circle_Grid_1.jpg,Purple_Plus_Dots_3.jpg,right,528.6950000156648,true,low,false
2XcLxKFu,3y3czjszan6hsnojzw5z9ps3vnar5b,33ppungg3cihml62xmhhndvpjdnzrp,2XcLxKFu,2020-0188,2020-06-04,08:48:35,09:33:44,NA,incomplete,68,number,0,1,left,Purple_Triangle_Grid_3.jpg,Blue_Star_Stripes_3.jpg,Purple_Plus_Dots_2.jpg,right,351.6950000189245,false,low,false
2XcLxKFu,3y3czjszan6hsnojzw5z9ps3vnar5b,33ppungg3cihml62xmhhndvpjdnzrp,2XcLxKFu,2020-0188,2020-06-04,08:48:35,09:33:44,NA,incomplete,69,number,0,1,left,Red_Circle_Dots_1.jpg,Green_Triangle_Chess_1.jpg,Red_Plus_Grid_3.jpg,left,386.5999999977648,true,low,false
2XcLxKFu,3y3czjszan6hsnojzw5z9ps3vnar5b,33ppungg3cihml62xmhhndvpjdnzrp,2XcLxKFu,2020-0188,2020-06-04,08:48:35,09:33:44,NA,incomplete,70,number,0,1,left,Green_Triangle_Chess_2.jpg,Purple_Circle_Dots_2.jpg,Green_Star_Stripes_1.jpg,right,600.6899999920279,false,low,false
2XcLxKFu,3y3czjszan6hsnojzw5z9ps3vnar5b,33ppungg3cihml62xmhhndvpjdnzrp,2XcLxKFu,2020-0188,2020-06-04,08:48:35,09:33:44,NA,incomplete,71,number,0,1,left,Blue_Triangle_Stripes_3.jpg,Purple_Circle_Dots_3.jpg,Blue_Plus_Chess_2.jpg,left,731.0500000026077,true,low,false
2XcLxKFu,3y3czjszan6hsnojzw5z9ps3vnar5b,33ppungg3cihml62xmhhndvpjdnzrp,2XcLxKFu,2020-0188,2020-06-04,08:48:35,09:33:44,NA,incomplete,72,number,0,1,right,Red_Plus_Dots_1.jpg,Red_Star_Grid_3.jpg,Green_Triangle_Stripes_1.jpg,right,621.7250000042841,true,low,false
2XcLxKFu,3y3czjszan6hsnojzw5z9ps3vnar5b,33ppungg3cihml62xmhhndvpjdnzrp,2XcLxKFu,2020-0188,2020-06-04,08:48:35,09:33:44,NA,incomplete,73,number,0,1,left,Blue_Star_Stripes_1.jpg,Purple_Circle_Grid_1.jpg,Blue_Plus_Chess_2.jpg,left,684.914999990724,true,low,false
2XcLxKFu,3y3czjszan6hsnojzw5z9ps3vnar5b,33ppungg3cihml62xmhhndvpjdnzrp,2XcLxKFu,2020-0188,2020-06-04,08:48:35,09:33:44,NA,incomplete,74,number,0,0,right,Purple_Triangle_Stripes_4.jpg,Purple_Plus_Chess_2.jpg,Blue_Star_Dots_4.jpg,right,636.849999981001,true,low,false
2XcLxKFu,3y3czjszan6hsnojzw5z9ps3vnar5b,33ppungg3cihml62xmhhndvpjdnzrp,2XcLxKFu,2020-0188,2020-06-04,08:48:35,09:33:44,NA,incomplete,75,number,0,1,right,Purple_Circle_Dots_4.jpg,Purple_Plus_Stripes_1.jpg,Blue_Star_Grid_4.jpg,right,585.9099999940954,true,low,false
2XcLxKFu,3y3czjszan6hsnojzw5z9ps3vnar5b,33ppungg3cihml62xmhhndvpjdnzrp,2XcLxKFu,2020-0188,2020-06-04,08:48:35,09:33:44,NA,incomplete,76,number,0,1,left,Red_Star_Dots_1.jpg,Purple_Plus_Grid_1.jpg,Red_Circle_Stripes_2.jpg,right,506.54500001110137,false,low,false
2XcLxKFu,3y3czjszan6hsnojzw5z9ps3vnar5b,33ppungg3cihml62xmhhndvpjdnzrp,2XcLxKFu,2020-0188,2020-06-04,08:48:35,09:33:44,NA,incomplete,77,number,0,0,right,Red_Circle_Dots_1.jpg,Red_Plus_Stripes_2.jpg,Green_Star_Grid_1.jpg,left,322.01999999256805,false,low,false
2XcLxKFu,3y3czjszan6hsnojzw5z9ps3vnar5b,33ppungg3cihml62xmhhndvpjdnzrp,2XcLxKFu,2020-0188,2020-06-04,08:48:35,09:33:44,NA,incomplete,78,number,0,1,right,Green_Plus_Chess_4.jpg,Green_Circle_Stripes_3.jpg,Red_Triangle_Dots_4.jpg,right,492.6850000047125,true,low,false
2XcLxKFu,3y3czjszan6hsnojzw5z9ps3vnar5b,33ppungg3cihml62xmhhndvpjdnzrp,2XcLxKFu,2020-0188,2020-06-04,08:48:35,09:33:44,NA,incomplete,79,number,0,1,right,Red_Circle_Dots_3.jpg,Red_Triangle_Grid_2.jpg,Purple_Plus_Stripes_3.jpg,left,355.09999998658895,false,low,false
2XcLxKFu,3y3czjszan6hsnojzw5z9ps3vnar5b,33ppungg3cihml62xmhhndvpjdnzrp,2XcLxKFu,2020-0188,2020-06-04,08:48:35,09:33:44,NA,incomplete,80,number,0,0,left,Green_Circle_Dots_4.jpg,Blue_Star_Chess_4.jpg,Green_Triangle_Stripes_1.jpg,left,509.46000000135973,true,low,false
2XcLxKFu,3y3czjszan6hsnojzw5z9ps3vnar5b,33ppungg3cihml62xmhhndvpjdnzrp,2XcLxKFu,2020-0188,2020-06-04,08:48:35,09:33:44,NA,incomplete,81,number,0,1,left,Blue_Plus_Dots_3.jpg,Red_Star_Chess_3.jpg,Blue_Circle_Stripes_2.jpg,right,505.559999990277,false,low,false
2XcLxKFu,3y3czjszan6hsnojzw5z9ps3vnar5b,33ppungg3cihml62xmhhndvpjdnzrp,2XcLxKFu,2020-0188,2020-06-04,08:48:35,09:33:44,NA,incomplete,82,number,0,1,left,Purple_Plus_Grid_3.jpg,Blue_Star_Dots_3.jpg,Purple_Circle_Chess_4.jpg,right,606.2600000007078,false,low,false
2XcLxKFu,3y3czjszan6hsnojzw5z9ps3vnar5b,33ppungg3cihml62xmhhndvpjdnzrp,2XcLxKFu,2020-0188,2020-06-04,08:48:35,09:33:44,NA,incomplete,83,number,0,1,left,Red_Star_Grid_2.jpg,Green_Triangle_Chess_2.jpg,Red_Plus_Stripes_3.jpg,right,658.885000011418,false,low,false
2XcLxKFu,3y3czjszan6hsnojzw5z9ps3vnar5b,33ppungg3cihml62xmhhndvpjdnzrp,2XcLxKFu,2020-0188,2020-06-04,08:48:35,09:33:44,NA,incomplete,84,number,0,1,right,Purple_Plus_Grid_1.jpg,Purple_Circle_Chess_2.jpg,Blue_Star_Dots_1.jpg,right,575.7650000159629,true,low,false
2XcLxKFu,3y3czjszan6hsnojzw5z9ps3vnar5b,33ppungg3cihml62xmhhndvpjdnzrp,2XcLxKFu,2020-0188,2020-06-04,08:48:35,09:33:44,NA,incomplete,85,number,0,1,right,Blue_Circle_Chess_2.jpg,Blue_Star_Stripes_3.jpg,Red_Plus_Grid_2.jpg,right,641.4199999999255,true,low,false
2XcLxKFu,3y3czjszan6hsnojzw5z9ps3vnar5b,33ppungg3cihml62xmhhndvpjdnzrp,2XcLxKFu,2020-0188,2020-06-04,08:48:35,09:33:44,NA,incomplete,86,number,0,0,left,Red_Plus_Grid_2.jpg,Blue_Triangle_Stripes_2.jpg,Red_Star_Dots_1.jpg,left,559.6599999992177,true,low,false
2XcLxKFu,3y3czjszan6hsnojzw5z9ps3vnar5b,33ppungg3cihml62xmhhndvpjdnzrp,2XcLxKFu,2020-0188,2020-06-04,08:48:35,09:33:44,NA,incomplete,87,number,0,0,left,Blue_Triangle_Grid_1.jpg,Red_Circle_Chess_1.jpg,Blue_Plus_Dots_3.jpg,left,546.6900000176392,true,low,false
2XcLxKFu,3y3czjszan6hsnojzw5z9ps3vnar5b,33ppungg3cihml62xmhhndvpjdnzrp,2XcLxKFu,2020-0188,2020-06-04,08:48:35,09:33:44,NA,incomplete,88,number,0,0,right,Blue_Plus_Chess_3.jpg,Blue_Star_Dots_4.jpg,Green_Triangle_Stripes_3.jpg,left,540.5550000141375,false,low,false
2XcLxKFu,3y3czjszan6hsnojzw5z9ps3vnar5b,33ppungg3cihml62xmhhndvpjdnzrp,2XcLxKFu,2020-0188,2020-06-04,08:48:35,09:33:44,NA,incomplete,89,number,0,1,left,Red_Triangle_Chess_2.jpg,Green_Plus_Stripes_2.jpg,Red_Circle_Dots_1.jpg,right,604.7900000121444,false,low,false
2XcLxKFu,3y3czjszan6hsnojzw5z9ps3vnar5b,33ppungg3cihml62xmhhndvpjdnzrp,2XcLxKFu,2020-0188,2020-06-04,08:48:35,09:33:44,NA,incomplete,90,color,1,1,left,Blue_Circle_Dots_2.jpg,Blue_Plus_Stripes_4.jpg,Green_Triangle_Grid_2.jpg,right,410.0899999900721,false,low,false
2XcLxKFu,3y3czjszan6hsnojzw5z9ps3vnar5b,33ppungg3cihml62xmhhndvpjdnzrp,2XcLxKFu,2020-0188,2020-06-04,08:48:35,09:33:44,NA,incomplete,91,color,1,1,left,Purple_Triangle_Chess_2.jpg,Purple_Plus_Dots_1.jpg,Green_Star_Grid_2.jpg,left,671.8899999978021,true,low,false
2XcLxKFu,3y3czjszan6hsnojzw5z9ps3vnar5b,33ppungg3cihml62xmhhndvpjdnzrp,2XcLxKFu,2020-0188,2020-06-04,08:48:35,09:33:44,NA,incomplete,92,color,1,1,left,Red_Plus_Dots_2.jpg,Red_Triangle_Grid_3.jpg,Purple_Star_Chess_2.jpg,left,532.3349999962375,true,low,false
2XcLxKFu,3y3czjszan6hsnojzw5z9ps3vnar5b,33ppungg3cihml62xmhhndvpjdnzrp,2XcLxKFu,2020-0188,2020-06-04,08:48:35,09:33:44,NA,incomplete,93,color,1,0,right,Red_Circle_Grid_3.jpg,Blue_Star_Chess_3.jpg,Red_Plus_Dots_1.jpg,left,607.4250000235625,false,low,false
2XcLxKFu,3y3czjszan6hsnojzw5z9ps3vnar5b,33ppungg3cihml62xmhhndvpjdnzrp,2XcLxKFu,2020-0188,2020-06-04,08:48:35,09:33:44,NA,incomplete,94,color,1,1,right,Red_Triangle_Stripes_1.jpg,Green_Circle_Chess_1.jpg,Red_Star_Grid_4.jpg,left,691.1400000099093,false,low,false
2XcLxKFu,3y3czjszan6hsnojzw5z9ps3vnar5b,33ppungg3cihml62xmhhndvpjdnzrp,2XcLxKFu,2020-0188,2020-06-04,08:48:35,09:33:44,NA,incomplete,95,color,1,1,left,Blue_Star_Stripes_2.jpg,Blue_Plus_Chess_3.jpg,Red_Triangle_Grid_2.jpg,left,441.5000000158325,true,low,false
2XcLxKFu,3y3czjszan6hsnojzw5z9ps3vnar5b,33ppungg3cihml62xmhhndvpjdnzrp,2XcLxKFu,2020-0188,2020-06-04,08:48:35,09:33:44,NA,incomplete,96,color,1,1,right,Green_Triangle_Chess_3.jpg,Blue_Circle_Dots_3.jpg,Green_Star_Stripes_4.jpg,right,429.83499998785555,true,low,false
2XcLxKFu,3y3czjszan6hsnojzw5z9ps3vnar5b,33ppungg3cihml62xmhhndvpjdnzrp,2XcLxKFu,2020-0188,2020-06-04,08:48:35,09:33:44,NA,incomplete,97,color,1,0,left,Blue_Plus_Grid_4.jpg,Blue_Star_Dots_2.jpg,Green_Circle_Chess_4.jpg,left,492.6849999758415,true,low,false
2XcLxKFu,3y3czjszan6hsnojzw5z9ps3vnar5b,33ppungg3cihml62xmhhndvpjdnzrp,2XcLxKFu,2020-0188,2020-06-04,08:48:35,09:33:44,NA,incomplete,98,color,1,1,left,Green_Star_Dots_4.jpg,Green_Circle_Stripes_1.jpg,Purple_Triangle_Grid_4.jpg,right,529.9899999811314,false,low,false
2XcLxKFu,3y3czjszan6hsnojzw5z9ps3vnar5b,33ppungg3cihml62xmhhndvpjdnzrp,2XcLxKFu,2020-0188,2020-06-04,08:48:35,09:33:44,NA,incomplete,99,color,1,1,left,Green_Plus_Chess_1.jpg,Green_Triangle_Stripes_3.jpg,Red_Star_Grid_1.jpg,left,217.74500000150874,true,low,false
2XcLxKFu,3y3czjszan6hsnojzw5z9ps3vnar5b,33ppungg3cihml62xmhhndvpjdnzrp,2XcLxKFu,2020-0188,2020-06-04,08:48:35,09:33:44,NA,incomplete,100,color,1,1,left,Blue_Star_Chess_4.jpg,Blue_Circle_Dots_1.jpg,Red_Triangle_Grid_4.jpg,right,157.08500001346692,false,low,false
2XcLxKFu,3y3czjszan6hsnojzw5z9ps3vnar5b,33ppungg3cihml62xmhhndvpjdnzrp,2XcLxKFu,2020-0188,2020-06-04,08:48:35,09:33:44,NA,incomplete,101,color,1,1,left,Blue_Triangle_Grid_3.jpg,Blue_Plus_Dots_4.jpg,Red_Circle_Chess_3.jpg,right,318.27499999757856,false,low,false
2XcLxKFu,3y3czjszan6hsnojzw5z9ps3vnar5b,33ppungg3cihml62xmhhndvpjdnzrp,2XcLxKFu,2020-0188,2020-06-04,08:48:35,09:33:44,NA,incomplete,102,color,1,1,right,Red_Circle_Dots_2.jpg,Blue_Star_Stripes_2.jpg,Red_Triangle_Grid_3.jpg,right,452.9350000084378,true,low,false
2XcLxKFu,3y3czjszan6hsnojzw5z9ps3vnar5b,33ppungg3cihml62xmhhndvpjdnzrp,2XcLxKFu,2020-0188,2020-06-04,08:48:35,09:33:44,NA,incomplete,103,color,1,1,left,Red_Triangle_Dots_4.jpg,Red_Star_Stripes_1.jpg,Blue_Plus_Grid_4.jpg,right,884.0249999775551,false,low,false
2XcLxKFu,3y3czjszan6hsnojzw5z9ps3vnar5b,33ppungg3cihml62xmhhndvpjdnzrp,2XcLxKFu,2020-0188,2020-06-04,08:48:35,09:33:44,NA,incomplete,104,color,1,0,left,Red_Circle_Stripes_1.jpg,Red_Triangle_Dots_4.jpg,Blue_Star_Chess_1.jpg,left,559.5100000207312,true,low,false
2XcLxKFu,3y3czjszan6hsnojzw5z9ps3vnar5b,33ppungg3cihml62xmhhndvpjdnzrp,2XcLxKFu,2020-0188,2020-06-04,08:48:35,09:33:44,NA,incomplete,105,color,1,1,right,Red_Plus_Grid_4.jpg,Purple_Star_Stripes_4.jpg,Red_Triangle_Chess_2.jpg,left,654.0200000163168,false,low,false
2XcLxKFu,3y3czjszan6hsnojzw5z9ps3vnar5b,33ppungg3cihml62xmhhndvpjdnzrp,2XcLxKFu,2020-0188,2020-06-04,08:48:35,09:33:44,NA,incomplete,106,color,1,1,left,Blue_Circle_Chess_3.jpg,Blue_Plus_Stripes_4.jpg,Purple_Triangle_Grid_3.jpg,right,567.7650000141002,false,low,false
2XcLxKFu,3y3czjszan6hsnojzw5z9ps3vnar5b,33ppungg3cihml62xmhhndvpjdnzrp,2XcLxKFu,2020-0188,2020-06-04,08:48:35,09:33:44,NA,incomplete,107,color,1,1,right,Purple_Plus_Chess_3.jpg,Blue_Triangle_Dots_3.jpg,Purple_Star_Grid_4.jpg,right,500.1000000052154,true,low,false
2XcLxKFu,3y3czjszan6hsnojzw5z9ps3vnar5b,33ppungg3cihml62xmhhndvpjdnzrp,2XcLxKFu,2020-0188,2020-06-04,08:48:35,09:33:44,NA,incomplete,108,color,1,1,right,Blue_Triangle_Grid_1.jpg,Purple_Plus_Dots_1.jpg,Blue_Circle_Stripes_4.jpg,right,479.64999999385327,true,low,false
2XcLxKFu,3y3czjszan6hsnojzw5z9ps3vnar5b,33ppungg3cihml62xmhhndvpjdnzrp,2XcLxKFu,2020-0188,2020-06-04,08:48:35,09:33:44,NA,incomplete,109,color,1,1,left,Red_Circle_Stripes_4.jpg,Red_Plus_Dots_1.jpg,Purple_Triangle_Grid_4.jpg,left,499.1699999952689,true,low,false
2XcLxKFu,3y3czjszan6hsnojzw5z9ps3vnar5b,33ppungg3cihml62xmhhndvpjdnzrp,2XcLxKFu,2020-0188,2020-06-04,08:48:35,09:33:44,NA,incomplete,110,color,1,1,right,Purple_Circle_Dots_4.jpg,Blue_Star_Grid_4.jpg,Purple_Triangle_Stripes_2.jpg,right,476.35000001173466,true,low,false
2XcLxKFu,3y3czjszan6hsnojzw5z9ps3vnar5b,33ppungg3cihml62xmhhndvpjdnzrp,2XcLxKFu,2020-0188,2020-06-04,08:48:35,09:33:44,NA,incomplete,111,color,1,1,right,Red_Triangle_Stripes_1.jpg,Purple_Star_Dots_1.jpg,Red_Circle_Chess_3.jpg,right,483.29000000376254,true,low,false
2XcLxKFu,3y3czjszan6hsnojzw5z9ps3vnar5b,33ppungg3cihml62xmhhndvpjdnzrp,2XcLxKFu,2020-0188,2020-06-04,08:48:35,09:33:44,NA,incomplete,112,color,1,1,right,Blue_Circle_Grid_1.jpg,Red_Star_Chess_1.jpg,Blue_Triangle_Dots_3.jpg,right,340.8500000075437,true,low,false
2XcLxKFu,3y3czjszan6hsnojzw5z9ps3vnar5b,33ppungg3cihml62xmhhndvpjdnzrp,2XcLxKFu,2020-0188,2020-06-04,08:48:35,09:33:44,NA,incomplete,113,color,1,1,right,Green_Plus_Chess_3.jpg,Purple_Circle_Stripes_3.jpg,Green_Triangle_Grid_1.jpg,right,375.92500000074506,true,low,false
2XcLxKFu,3y3czjszan6hsnojzw5z9ps3vnar5b,33ppungg3cihml62xmhhndvpjdnzrp,2XcLxKFu,2020-0188,2020-06-04,08:48:35,09:33:44,NA,incomplete,114,color,1,0,left,Purple_Circle_Stripes_4.jpg,Purple_Plus_Grid_2.jpg,Red_Star_Chess_4.jpg,right,339.81999999377877,false,low,false
2XcLxKFu,3y3czjszan6hsnojzw5z9ps3vnar5b,33ppungg3cihml62xmhhndvpjdnzrp,2XcLxKFu,2020-0188,2020-06-04,08:48:35,09:33:44,NA,incomplete,115,color,1,1,left,Blue_Star_Grid_4.jpg,Blue_Circle_Chess_1.jpg,Green_Triangle_Dots_4.jpg,right,318.4550000000745,false,low,false
2XcLxKFu,3y3czjszan6hsnojzw5z9ps3vnar5b,33ppungg3cihml62xmhhndvpjdnzrp,2XcLxKFu,2020-0188,2020-06-04,08:48:35,09:33:44,NA,incomplete,116,color,1,0,right,Purple_Circle_Grid_4.jpg,Red_Plus_Stripes_4.jpg,Purple_Triangle_Chess_1.jpg,left,118.24499999079853,false,low,false
2XcLxKFu,3y3czjszan6hsnojzw5z9ps3vnar5b,33ppungg3cihml62xmhhndvpjdnzrp,2XcLxKFu,2020-0188,2020-06-04,08:48:35,09:33:44,NA,incomplete,117,color,1,0,right,Green_Plus_Stripes_2.jpg,Purple_Triangle_Grid_2.jpg,Green_Star_Chess_3.jpg,right,362.33000000333413,true,low,false
2XcLxKFu,3y3czjszan6hsnojzw5z9ps3vnar5b,33ppungg3cihml62xmhhndvpjdnzrp,2XcLxKFu,2020-0188,2020-06-04,08:48:35,09:33:44,NA,incomplete,118,color,1,1,left,Red_Star_Chess_1.jpg,Red_Plus_Dots_3.jpg,Purple_Circle_Stripes_1.jpg,right,354.3249999927357,false,low,false
2XcLxKFu,3y3czjszan6hsnojzw5z9ps3vnar5b,33ppungg3cihml62xmhhndvpjdnzrp,2XcLxKFu,2020-0188,2020-06-04,08:48:35,09:33:44,NA,incomplete,119,color,1,1,left,Purple_Circle_Stripes_4.jpg,Purple_Plus_Grid_3.jpg,Blue_Triangle_Dots_4.jpg,left,278.3500000080094,true,low,false
2XcLxKFu,3y3czjszan6hsnojzw5z9ps3vnar5b,33ppungg3cihml62xmhhndvpjdnzrp,2XcLxKFu,2020-0188,2020-06-04,08:48:35,09:33:44,NA,incomplete,120,race,2,0,right,A_F_16.jpg,C_F_02.jpg,A_M_05.jpg,NA,NA,NA,low,false
2XcLxKFu,3y3czjszan6hsnojzw5z9ps3vnar5b,33ppungg3cihml62xmhhndvpjdnzrp,2XcLxKFu,2020-0188,2020-06-04,08:48:35,09:33:44,NA,incomplete,121,race,2,1,right,C_F_05.jpg,A_F_06.jpg,C_M_16.jpg,right,729.6150000183843,true,low,false
2XcLxKFu,3y3czjszan6hsnojzw5z9ps3vnar5b,33ppungg3cihml62xmhhndvpjdnzrp,2XcLxKFu,2020-0188,2020-06-04,08:48:35,09:33:44,NA,incomplete,122,race,2,1,left,C_M_09.jpg,C_F_06.jpg,A_M_05.jpg,right,584.7399999909103,false,low,false
2XcLxKFu,3y3czjszan6hsnojzw5z9ps3vnar5b,33ppungg3cihml62xmhhndvpjdnzrp,2XcLxKFu,2020-0188,2020-06-04,08:48:35,09:33:44,NA,incomplete,123,race,2,0,right,C_M_05.jpg,A_M_10.jpg,C_F_14.jpg,left,668.789999996312,false,low,false
2XcLxKFu,3y3czjszan6hsnojzw5z9ps3vnar5b,33ppungg3cihml62xmhhndvpjdnzrp,2XcLxKFu,2020-0188,2020-06-04,08:48:35,09:33:44,NA,incomplete,124,race,2,1,left,A_F_14.jpg,A_M_01.jpg,C_F_06.jpg,right,780.9199999901466,false,low,false
2XcLxKFu,3y3czjszan6hsnojzw5z9ps3vnar5b,33ppungg3cihml62xmhhndvpjdnzrp,2XcLxKFu,2020-0188,2020-06-04,08:48:35,09:33:44,NA,incomplete,125,race,2,0,right,A_M_12.jpg,C_M_11.jpg,A_F_10.jpg,left,726.5300000142306,false,low,false
2XcLxKFu,3y3czjszan6hsnojzw5z9ps3vnar5b,33ppungg3cihml62xmhhndvpjdnzrp,2XcLxKFu,2020-0188,2020-06-04,08:48:35,09:33:44,NA,incomplete,126,race,2,1,right,C_F_09.jpg,A_F_06.jpg,C_M_02.jpg,left,637.7899999790825,false,low,false
2XcLxKFu,3y3czjszan6hsnojzw5z9ps3vnar5b,33ppungg3cihml62xmhhndvpjdnzrp,2XcLxKFu,2020-0188,2020-06-04,08:48:35,09:33:44,NA,incomplete,127,race,2,0,right,C_F_07.jpg,A_F_06.jpg,C_M_02.jpg,right,296.2899999981746,true,low,false
2XcLxKFu,3y3czjszan6hsnojzw5z9ps3vnar5b,33ppungg3cihml62xmhhndvpjdnzrp,2XcLxKFu,2020-0188,2020-06-04,08:48:35,09:33:44,NA,incomplete,128,race,2,1,left,C_F_14.jpg,C_M_11.jpg,A_F_01.jpg,right,646.3749999823049,false,low,false
2XcLxKFu,3y3czjszan6hsnojzw5z9ps3vnar5b,33ppungg3cihml62xmhhndvpjdnzrp,2XcLxKFu,2020-0188,2020-06-04,08:48:35,09:33:44,NA,incomplete,129,race,2,1,left,C_M_04.jpg,C_F_10.jpg,A_M_13.jpg,right,619.0449999994598,false,low,false
2XcLxKFu,3y3czjszan6hsnojzw5z9ps3vnar5b,33ppungg3cihml62xmhhndvpjdnzrp,2XcLxKFu,2020-0188,2020-06-04,08:48:35,09:33:44,NA,incomplete,130,race,2,1,left,A_M_11.jpg,A_F_12.jpg,C_M_10.jpg,left,750.3449999783188,true,low,false
2XcLxKFu,3y3czjszan6hsnojzw5z9ps3vnar5b,33ppungg3cihml62xmhhndvpjdnzrp,2XcLxKFu,2020-0188,2020-06-04,08:48:35,09:33:44,NA,incomplete,131,race,2,1,left,A_F_03.jpg,A_M_15.jpg,C_F_13.jpg,left,336.1849999926053,true,low,false
2XcLxKFu,3y3czjszan6hsnojzw5z9ps3vnar5b,33ppungg3cihml62xmhhndvpjdnzrp,2XcLxKFu,2020-0188,2020-06-04,08:48:35,09:33:44,NA,incomplete,132,race,2,1,left,C_F_06.jpg,C_M_01.jpg,A_F_16.jpg,left,398.1999999959953,true,low,false
2XcLxKFu,3y3czjszan6hsnojzw5z9ps3vnar5b,33ppungg3cihml62xmhhndvpjdnzrp,2XcLxKFu,2020-0188,2020-06-04,08:48:35,09:33:44,NA,incomplete,133,race,2,0,left,A_M_06.jpg,A_F_09.jpg,C_M_15.jpg,left,293.40500000398606,true,low,false
2XcLxKFu,3y3czjszan6hsnojzw5z9ps3vnar5b,33ppungg3cihml62xmhhndvpjdnzrp,2XcLxKFu,2020-0188,2020-06-04,08:48:35,09:33:44,NA,incomplete,134,race,2,1,left,C_M_16.jpg,C_F_07.jpg,A_M_13.jpg,right,237.0850000004284,false,low,false
2XcLxKFu,3y3czjszan6hsnojzw5z9ps3vnar5b,33ppungg3cihml62xmhhndvpjdnzrp,2XcLxKFu,2020-0188,2020-06-04,08:48:35,09:33:44,NA,incomplete,135,race,2,1,left,C_M_16.jpg,C_F_04.jpg,A_M_11.jpg,left,194.20999998692423,true,low,false
2XcLxKFu,3y3czjszan6hsnojzw5z9ps3vnar5b,33ppungg3cihml62xmhhndvpjdnzrp,2XcLxKFu,2020-0188,2020-06-04,08:48:35,09:33:44,NA,incomplete,136,race,2,1,left,C_F_10.jpg,C_M_06.jpg,A_F_05.jpg,right,216.39000001642853,false,low,false
2XcLxKFu,3y3czjszan6hsnojzw5z9ps3vnar5b,33ppungg3cihml62xmhhndvpjdnzrp,2XcLxKFu,2020-0188,2020-06-04,08:48:35,09:33:44,NA,incomplete,137,race,2,1,right,C_M_15.jpg,A_M_05.jpg,C_F_06.jpg,left,225.45499997772276,false,low,false
2XcLxKFu,3y3czjszan6hsnojzw5z9ps3vnar5b,33ppungg3cihml62xmhhndvpjdnzrp,2XcLxKFu,2020-0188,2020-06-04,08:48:35,09:33:44,NA,incomplete,138,race,2,0,left,A_M_05.jpg,A_F_11.jpg,C_M_14.jpg,left,669.095000019297,true,low,false
2XcLxKFu,3y3czjszan6hsnojzw5z9ps3vnar5b,33ppungg3cihml62xmhhndvpjdnzrp,2XcLxKFu,2020-0188,2020-06-04,08:48:35,09:33:44,NA,incomplete,139,race,2,1,left,A_F_01.jpg,A_M_10.jpg,C_F_12.jpg,right,293.2349999900907,false,low,false
2XcLxKFu,3y3czjszan6hsnojzw5z9ps3vnar5b,33ppungg3cihml62xmhhndvpjdnzrp,2XcLxKFu,2020-0188,2020-06-04,08:48:35,09:33:44,NA,incomplete,140,gender,3,0,left,C_F_05.jpg,A_F_09.jpg,C_M_11.jpg,right,624.8799999882467,false,low,false
2XcLxKFu,3y3czjszan6hsnojzw5z9ps3vnar5b,33ppungg3cihml62xmhhndvpjdnzrp,2XcLxKFu,2020-0188,2020-06-04,08:48:35,09:33:44,NA,incomplete,141,gender,3,1,right,A_F_14.jpg,A_M_15.jpg,C_F_05.jpg,left,272.62999999243766,false,low,false
2XcLxKFu,3y3czjszan6hsnojzw5z9ps3vnar5b,33ppungg3cihml62xmhhndvpjdnzrp,2XcLxKFu,2020-0188,2020-06-04,08:48:35,09:33:44,NA,incomplete,142,gender,3,1,right,C_F_15.jpg,C_M_03.jpg,A_F_07.jpg,right,233.58500000927597,true,low,false
2XcLxKFu,3y3czjszan6hsnojzw5z9ps3vnar5b,33ppungg3cihml62xmhhndvpjdnzrp,2XcLxKFu,2020-0188,2020-06-04,08:48:35,09:33:44,NA,incomplete,143,gender,3,1,left,A_F_01.jpg,C_F_02.jpg,A_M_10.jpg,right,274.3049999992363,false,low,false
2XcLxKFu,3y3czjszan6hsnojzw5z9ps3vnar5b,33ppungg3cihml62xmhhndvpjdnzrp,2XcLxKFu,2020-0188,2020-06-04,08:48:35,09:33:44,NA,incomplete,144,gender,3,1,right,C_F_13.jpg,C_M_15.jpg,A_F_16.jpg,right,233.91999999899417,true,low,false
2XcLxKFu,3y3czjszan6hsnojzw5z9ps3vnar5b,33ppungg3cihml62xmhhndvpjdnzrp,2XcLxKFu,2020-0188,2020-06-04,08:48:35,09:33:44,NA,incomplete,145,gender,3,1,right,C_F_11.jpg,C_M_09.jpg,A_F_07.jpg,right,844.539999990724,true,low,false
2XcLxKFu,3y3czjszan6hsnojzw5z9ps3vnar5b,33ppungg3cihml62xmhhndvpjdnzrp,2XcLxKFu,2020-0188,2020-06-04,08:48:35,09:33:44,NA,incomplete,146,gender,3,1,left,A_F_03.jpg,C_F_14.jpg,A_M_06.jpg,left,772.849999979604,true,low,false
2XcLxKFu,3y3czjszan6hsnojzw5z9ps3vnar5b,33ppungg3cihml62xmhhndvpjdnzrp,2XcLxKFu,2020-0188,2020-06-04,08:48:35,09:33:44,NA,incomplete,147,gender,3,1,left,A_F_01.jpg,C_F_06.jpg,A_M_10.jpg,left,672.0499999942258,true,low,false
2XcLxKFu,3y3czjszan6hsnojzw5z9ps3vnar5b,33ppungg3cihml62xmhhndvpjdnzrp,2XcLxKFu,2020-0188,2020-06-04,08:48:35,09:33:44,NA,incomplete,148,gender,3,1,right,C_M_15.jpg,C_F_02.jpg,A_M_05.jpg,right,729.0249999789521,true,low,false
2XcLxKFu,3y3czjszan6hsnojzw5z9ps3vnar5b,33ppungg3cihml62xmhhndvpjdnzrp,2XcLxKFu,2020-0188,2020-06-04,08:48:35,09:33:44,NA,incomplete,149,gender,3,1,right,A_F_09.jpg,A_M_02.jpg,C_F_08.jpg,right,727.9250000137836,true,low,false
2XcLxKFu,3y3czjszan6hsnojzw5z9ps3vnar5b,33ppungg3cihml62xmhhndvpjdnzrp,2XcLxKFu,2020-0188,2020-06-04,08:48:35,09:33:44,NA,incomplete,150,gender,3,0,right,A_F_14.jpg,A_M_06.jpg,C_F_16.jpg,right,712.7150000017136,true,low,false
2XcLxKFu,3y3czjszan6hsnojzw5z9ps3vnar5b,33ppungg3cihml62xmhhndvpjdnzrp,2XcLxKFu,2020-0188,2020-06-04,08:48:35,09:33:44,NA,incomplete,151,gender,3,1,right,A_F_06.jpg,A_M_04.jpg,C_F_10.jpg,left,826.8500000122003,false,low,false
2XcLxKFu,3y3czjszan6hsnojzw5z9ps3vnar5b,33ppungg3cihml62xmhhndvpjdnzrp,2XcLxKFu,2020-0188,2020-06-04,08:48:35,09:33:44,NA,incomplete,152,gender,3,1,right,C_M_13.jpg,C_F_16.jpg,A_M_01.jpg,right,540.8349999925122,true,low,false
2XcLxKFu,3y3czjszan6hsnojzw5z9ps3vnar5b,33ppungg3cihml62xmhhndvpjdnzrp,2XcLxKFu,2020-0188,2020-06-04,08:48:35,09:33:44,NA,incomplete,153,gender,3,1,left,A_F_01.jpg,C_F_07.jpg,A_M_16.jpg,left,849.369999981951,true,low,false
2XcLxKFu,3y3czjszan6hsnojzw5z9ps3vnar5b,33ppungg3cihml62xmhhndvpjdnzrp,2XcLxKFu,2020-0188,2020-06-04,08:48:35,09:33:44,NA,incomplete,154,gender,3,1,right,A_F_11.jpg,A_M_07.jpg,C_F_13.jpg,left,950.2849999992177,false,low,false
2XcLxKFu,3y3czjszan6hsnojzw5z9ps3vnar5b,33ppungg3cihml62xmhhndvpjdnzrp,2XcLxKFu,2020-0188,2020-06-04,08:48:35,09:33:44,NA,incomplete,155,gender,3,0,right,A_F_14.jpg,A_M_07.jpg,C_F_03.jpg,right,235.80499997455627,true,low,false
2XcLxKFu,3y3czjszan6hsnojzw5z9ps3vnar5b,33ppungg3cihml62xmhhndvpjdnzrp,2XcLxKFu,2020-0188,2020-06-04,08:48:35,09:33:44,NA,incomplete,156,gender,3,1,right,A_F_06.jpg,A_M_03.jpg,C_F_05.jpg,left,257.9149999944493,false,low,false
2XcLxKFu,3y3czjszan6hsnojzw5z9ps3vnar5b,33ppungg3cihml62xmhhndvpjdnzrp,2XcLxKFu,2020-0188,2020-06-04,08:48:35,09:33:44,NA,incomplete,157,gender,3,1,right,C_M_04.jpg,C_F_16.jpg,A_M_05.jpg,right,237.72999999346212,true,low,false
2XcLxKFu,3y3czjszan6hsnojzw5z9ps3vnar5b,33ppungg3cihml62xmhhndvpjdnzrp,2XcLxKFu,2020-0188,2020-06-04,08:48:35,09:33:44,NA,incomplete,158,gender,3,1,left,A_M_16.jpg,C_M_06.jpg,A_F_05.jpg,right,391.3149999859743,false,low,false
2XcLxKFu,3y3czjszan6hsnojzw5z9ps3vnar5b,33ppungg3cihml62xmhhndvpjdnzrp,2XcLxKFu,2020-0188,2020-06-04,08:48:35,09:33:44,NA,incomplete,159,gender,3,1,left,C_M_05.jpg,A_M_08.jpg,C_F_10.jpg,left,175.9799999995157,true,low,false
2XcLxKFu,3y3czjszan6hsnojzw5z9ps3vnar5b,33ppungg3cihml62xmhhndvpjdnzrp,2XcLxKFu,2020-0188,2020-06-04,08:48:35,09:33:44,NA,incomplete,160,race,2,1,right,C_M_01.jpg,A_M_13.jpg,C_F_12.jpg,right,410.57499998714775,true,low,false
2XcLxKFu,3y3czjszan6hsnojzw5z9ps3vnar5b,33ppungg3cihml62xmhhndvpjdnzrp,2XcLxKFu,2020-0188,2020-06-04,08:48:35,09:33:44,NA,incomplete,161,race,2,1,right,C_M_13.jpg,A_M_14.jpg,C_F_07.jpg,left,847.7750000022352,false,low,false
2XcLxKFu,3y3czjszan6hsnojzw5z9ps3vnar5b,33ppungg3cihml62xmhhndvpjdnzrp,2XcLxKFu,2020-0188,2020-06-04,08:48:35,09:33:44,NA,incomplete,162,race,2,0,right,C_F_15.jpg,A_F_04.jpg,C_M_10.jpg,right,521.8150000148453,true,low,false
2XcLxKFu,3y3czjszan6hsnojzw5z9ps3vnar5b,33ppungg3cihml62xmhhndvpjdnzrp,2XcLxKFu,2020-0188,2020-06-04,08:48:35,09:33:44,NA,incomplete,163,race,2,1,left,A_M_13.jpg,A_F_05.jpg,C_M_03.jpg,left,395.01500001642853,true,low,false
2XcLxKFu,3y3czjszan6hsnojzw5z9ps3vnar5b,33ppungg3cihml62xmhhndvpjdnzrp,2XcLxKFu,2020-0188,2020-06-04,08:48:35,09:33:44,NA,incomplete,164,race,2,0,left,A_F_02.jpg,A_M_08.jpg,C_F_12.jpg,left,306.54499999945983,true,low,false
2XcLxKFu,3y3czjszan6hsnojzw5z9ps3vnar5b,33ppungg3cihml62xmhhndvpjdnzrp,2XcLxKFu,2020-0188,2020-06-04,08:48:35,09:33:44,NA,incomplete,165,race,2,1,right,A_F_11.jpg,C_F_10.jpg,A_M_16.jpg,right,230.14500000840053,true,low,false
2XcLxKFu,3y3czjszan6hsnojzw5z9ps3vnar5b,33ppungg3cihml62xmhhndvpjdnzrp,2XcLxKFu,2020-0188,2020-06-04,08:48:35,09:33:44,NA,incomplete,166,race,2,1,left,C_M_11.jpg,C_F_14.jpg,A_M_10.jpg,left,228.73000000277534,true,low,false
2XcLxKFu,3y3czjszan6hsnojzw5z9ps3vnar5b,33ppungg3cihml62xmhhndvpjdnzrp,2XcLxKFu,2020-0188,2020-06-04,08:48:35,09:33:44,NA,incomplete,167,race,2,0,right,C_M_06.jpg,A_M_14.jpg,C_F_10.jpg,right,86.76500001456589,true,low,false
2XcLxKFu,3y3czjszan6hsnojzw5z9ps3vnar5b,33ppungg3cihml62xmhhndvpjdnzrp,2XcLxKFu,2020-0188,2020-06-04,08:48:35,09:33:44,NA,incomplete,168,race,2,1,left,A_M_01.jpg,A_F_16.jpg,C_M_02.jpg,left,211.45500001125038,true,low,false
2XcLxKFu,3y3czjszan6hsnojzw5z9ps3vnar5b,33ppungg3cihml62xmhhndvpjdnzrp,2XcLxKFu,2020-0188,2020-06-04,08:48:35,09:33:44,NA,incomplete,169,race,2,1,right,A_F_06.jpg,C_F_04.jpg,A_M_02.jpg,left,64.77500000596046,false,low,false
2XcLxKFu,3y3czjszan6hsnojzw5z9ps3vnar5b,33ppungg3cihml62xmhhndvpjdnzrp,2XcLxKFu,2020-0188,2020-06-04,08:48:35,09:33:44,NA,incomplete,170,race,2,1,right,C_M_14.jpg,A_M_10.jpg,C_F_16.jpg,left,109.13999998569489,false,low,false
2XcLxKFu,3y3czjszan6hsnojzw5z9ps3vnar5b,33ppungg3cihml62xmhhndvpjdnzrp,2XcLxKFu,2020-0188,2020-06-04,08:48:35,09:33:44,NA,incomplete,171,race,2,0,right,C_M_16.jpg,A_M_01.jpg,C_F_11.jpg,left,75.66999999154359,false,low,false
2XcLxKFu,3y3czjszan6hsnojzw5z9ps3vnar5b,33ppungg3cihml62xmhhndvpjdnzrp,2XcLxKFu,2020-0188,2020-06-04,08:48:35,09:33:44,NA,incomplete,172,race,2,1,left,A_F_07.jpg,A_M_12.jpg,C_F_04.jpg,left,30.284999986179173,true,low,false
2XcLxKFu,3y3czjszan6hsnojzw5z9ps3vnar5b,33ppungg3cihml62xmhhndvpjdnzrp,2XcLxKFu,2020-0188,2020-06-04,08:48:35,09:33:44,NA,incomplete,173,race,2,1,left,C_F_10.jpg,C_M_06.jpg,A_F_09.jpg,left,103.05000000493601,true,low,false
2XcLxKFu,3y3czjszan6hsnojzw5z9ps3vnar5b,33ppungg3cihml62xmhhndvpjdnzrp,2XcLxKFu,2020-0188,2020-06-04,08:48:35,09:33:44,NA,incomplete,174,race,2,1,left,A_F_11.jpg,A_M_08.jpg,C_F_14.jpg,left,85.0550000029616,true,low,false
2XcLxKFu,3y3czjszan6hsnojzw5z9ps3vnar5b,33ppungg3cihml62xmhhndvpjdnzrp,2XcLxKFu,2020-0188,2020-06-04,08:48:35,09:33:44,NA,incomplete,175,race,2,0,left,A_F_13.jpg,A_M_04.jpg,C_F_16.jpg,left,46.025000017602,true,low,false
2XcLxKFu,3y3czjszan6hsnojzw5z9ps3vnar5b,33ppungg3cihml62xmhhndvpjdnzrp,2XcLxKFu,2020-0188,2020-06-04,08:48:35,09:33:44,NA,incomplete,176,race,2,1,left,C_M_11.jpg,C_F_12.jpg,A_M_05.jpg,right,9.820000006817281,false,low,false
2XcLxKFu,3y3czjszan6hsnojzw5z9ps3vnar5b,33ppungg3cihml62xmhhndvpjdnzrp,2XcLxKFu,2020-0188,2020-06-04,08:48:35,09:33:44,NA,incomplete,177,race,2,1,left,C_M_02.jpg,C_F_09.jpg,A_M_08.jpg,right,46.575000015087426,false,low,false
2XcLxKFu,3y3czjszan6hsnojzw5z9ps3vnar5b,33ppungg3cihml62xmhhndvpjdnzrp,2XcLxKFu,2020-0188,2020-06-04,08:48:35,09:33:44,NA,incomplete,178,race,2,1,right,A_F_11.jpg,C_F_07.jpg,A_M_09.jpg,left,22.425000003073364,false,low,false
2XcLxKFu,3y3czjszan6hsnojzw5z9ps3vnar5b,33ppungg3cihml62xmhhndvpjdnzrp,2XcLxKFu,2020-0188,2020-06-04,08:48:35,09:33:44,NA,incomplete,179,race,2,1,right,A_M_03.jpg,C_M_12.jpg,A_F_02.jpg,left,99.30000000167638,false,low,false
2XcLxKFu,3y3czjszan6hsnojzw5z9ps3vnar5b,33ppungg3cihml62xmhhndvpjdnzrp,2XcLxKFu,2020-0188,2020-06-04,08:48:35,09:33:44,NA,incomplete,180,gender,3,1,right,A_F_08.jpg,A_M_16.jpg,C_F_06.jpg,right,128.76000002166256,true,low,false
2XcLxKFu,3y3czjszan6hsnojzw5z9ps3vnar5b,33ppungg3cihml62xmhhndvpjdnzrp,2XcLxKFu,2020-0188,2020-06-04,08:48:35,09:33:44,NA,incomplete,181,gender,3,1,right,A_M_07.jpg,A_F_11.jpg,C_M_08.jpg,right,69.674999977462,true,low,false
2XcLxKFu,3y3czjszan6hsnojzw5z9ps3vnar5b,33ppungg3cihml62xmhhndvpjdnzrp,2XcLxKFu,2020-0188,2020-06-04,08:48:35,09:33:44,NA,incomplete,182,gender,3,1,left,C_M_08.jpg,A_M_10.jpg,C_F_12.jpg,right,18.02499999757856,false,low,false
2XcLxKFu,3y3czjszan6hsnojzw5z9ps3vnar5b,33ppungg3cihml62xmhhndvpjdnzrp,2XcLxKFu,2020-0188,2020-06-04,08:48:35,09:33:44,NA,incomplete,183,gender,3,1,left,A_F_01.jpg,C_F_10.jpg,A_M_05.jpg,right,73.13000000454485,false,low,false
2XcLxKFu,3y3czjszan6hsnojzw5z9ps3vnar5b,33ppungg3cihml62xmhhndvpjdnzrp,2XcLxKFu,2020-0188,2020-06-04,08:48:35,09:33:44,NA,incomplete,184,gender,3,1,left,C_F_14.jpg,A_F_07.jpg,C_M_05.jpg,left,18.325000012293458,true,low,false
2XcLxKFu,3y3czjszan6hsnojzw5z9ps3vnar5b,33ppungg3cihml62xmhhndvpjdnzrp,2XcLxKFu,2020-0188,2020-06-04,08:48:35,09:33:44,NA,incomplete,185,gender,3,1,right,C_M_07.jpg,C_F_15.jpg,A_M_14.jpg,right,122.01500000106171,true,low,false
2XcLxKFu,3y3czjszan6hsnojzw5z9ps3vnar5b,33ppungg3cihml62xmhhndvpjdnzrp,2XcLxKFu,2020-0188,2020-06-04,08:48:35,09:33:44,NA,incomplete,186,gender,3,0,right,C_M_03.jpg,C_F_06.jpg,A_M_15.jpg,right,121.51500000618398,true,low,false
2XcLxKFu,3y3czjszan6hsnojzw5z9ps3vnar5b,33ppungg3cihml62xmhhndvpjdnzrp,2XcLxKFu,2020-0188,2020-06-04,08:48:35,09:33:44,NA,incomplete,187,gender,3,1,right,C_M_08.jpg,C_F_14.jpg,A_M_11.jpg,right,27.265000011771917,true,low,false
2XcLxKFu,3y3czjszan6hsnojzw5z9ps3vnar5b,33ppungg3cihml62xmhhndvpjdnzrp,2XcLxKFu,2020-0188,2020-06-04,08:48:35,09:33:44,NA,incomplete,188,gender,3,1,left,C_M_11.jpg,A_M_05.jpg,C_F_09.jpg,right,103.63500000722706,false,low,false
2XcLxKFu,3y3czjszan6hsnojzw5z9ps3vnar5b,33ppungg3cihml62xmhhndvpjdnzrp,2XcLxKFu,2020-0188,2020-06-04,08:48:35,09:33:44,NA,incomplete,189,gender,3,1,left,A_F_13.jpg,C_F_04.jpg,A_M_11.jpg,right,19.57500001322478,false,low,false
2XcLxKFu,3y3czjszan6hsnojzw5z9ps3vnar5b,33ppungg3cihml62xmhhndvpjdnzrp,2XcLxKFu,2020-0188,2020-06-04,08:48:35,09:33:44,NA,incomplete,190,gender,3,1,right,A_M_10.jpg,A_F_12.jpg,C_M_13.jpg,left,8.089999988209456,false,low,false
2XcLxKFu,3y3czjszan6hsnojzw5z9ps3vnar5b,33ppungg3cihml62xmhhndvpjdnzrp,2XcLxKFu,2020-0188,2020-06-04,08:48:35,09:33:44,NA,incomplete,191,gender,3,1,right,A_F_12.jpg,A_M_09.jpg,C_F_03.jpg,left,92.67500002169982,false,low,false
2XcLxKFu,3y3czjszan6hsnojzw5z9ps3vnar5b,33ppungg3cihml62xmhhndvpjdnzrp,2XcLxKFu,2020-0188,2020-06-04,08:48:35,09:33:44,NA,incomplete,192,gender,3,1,right,A_M_12.jpg,A_F_15.jpg,C_M_09.jpg,right,44.9699999880977,true,low,false
2XcLxKFu,3y3czjszan6hsnojzw5z9ps3vnar5b,33ppungg3cihml62xmhhndvpjdnzrp,2XcLxKFu,2020-0188,2020-06-04,08:48:35,09:33:44,NA,incomplete,193,gender,3,1,right,A_M_03.jpg,A_F_15.jpg,C_M_07.jpg,right,18.810000008903444,true,low,false
2XcLxKFu,3y3czjszan6hsnojzw5z9ps3vnar5b,33ppungg3cihml62xmhhndvpjdnzrp,2XcLxKFu,2020-0188,2020-06-04,08:48:35,09:33:44,NA,incomplete,194,gender,3,1,left,A_M_08.jpg,C_M_03.jpg,A_F_05.jpg,right,23.639999999664724,false,low,false
2XcLxKFu,3y3czjszan6hsnojzw5z9ps3vnar5b,33ppungg3cihml62xmhhndvpjdnzrp,2XcLxKFu,2020-0188,2020-06-04,08:48:35,09:33:44,NA,incomplete,195,gender,3,1,right,C_F_05.jpg,C_M_13.jpg,A_F_15.jpg,left,160.1950000040233,false,low,false
2XcLxKFu,3y3czjszan6hsnojzw5z9ps3vnar5b,33ppungg3cihml62xmhhndvpjdnzrp,2XcLxKFu,2020-0188,2020-06-04,08:48:35,09:33:44,NA,incomplete,196,gender,3,0,left,A_M_11.jpg,C_M_13.jpg,A_F_10.jpg,right,63.62000000104308,false,low,false
2XcLxKFu,3y3czjszan6hsnojzw5z9ps3vnar5b,33ppungg3cihml62xmhhndvpjdnzrp,2XcLxKFu,2020-0188,2020-06-04,08:48:35,09:33:44,NA,incomplete,197,gender,3,1,right,A_M_14.jpg,A_F_11.jpg,C_M_09.jpg,right,49.52000000048429,true,low,false
2XcLxKFu,3y3czjszan6hsnojzw5z9ps3vnar5b,33ppungg3cihml62xmhhndvpjdnzrp,2XcLxKFu,2020-0188,2020-06-04,08:48:35,09:33:44,NA,incomplete,198,gender,3,1,left,A_M_15.jpg,C_M_05.jpg,A_F_08.jpg,right,117.36499998392537,false,low,false
2XcLxKFu,3y3czjszan6hsnojzw5z9ps3vnar5b,33ppungg3cihml62xmhhndvpjdnzrp,2XcLxKFu,2020-0188,2020-06-04,08:48:35,09:33:44,NA,incomplete,199,gender,3,1,right,C_M_09.jpg,C_F_06.jpg,A_M_07.jpg,right,254.5799999786541,true,low,false
2XcLxKFu,3y3czjszan6hsnojzw5z9ps3vnar5b,33ppungg3cihml62xmhhndvpjdnzrp,2XcLxKFu,2020-0188,2020-06-04,08:48:35,09:33:44,NA,incomplete,200,race,2,0,right,A_M_01.jpg,C_M_03.jpg,A_F_05.jpg,right,102.45999999437481,true,low,false
2XcLxKFu,3y3czjszan6hsnojzw5z9ps3vnar5b,33ppungg3cihml62xmhhndvpjdnzrp,2XcLxKFu,2020-0188,2020-06-04,08:48:35,09:33:44,NA,incomplete,201,race,2,1,right,A_F_03.jpg,C_F_01.jpg,A_M_04.jpg,right,91.52000001631677,true,low,false
2XcLxKFu,3y3czjszan6hsnojzw5z9ps3vnar5b,33ppungg3cihml62xmhhndvpjdnzrp,2XcLxKFu,2020-0188,2020-06-04,08:48:35,09:33:44,NA,incomplete,202,race,2,0,left,A_M_10.jpg,A_F_01.jpg,C_M_08.jpg,right,71.28999999258667,false,low,false
2XcLxKFu,3y3czjszan6hsnojzw5z9ps3vnar5b,33ppungg3cihml62xmhhndvpjdnzrp,2XcLxKFu,2020-0188,2020-06-04,08:48:35,09:33:44,NA,incomplete,203,race,2,1,right,C_M_16.jpg,A_M_15.jpg,C_F_02.jpg,left,61.96500000078231,false,low,false
2XcLxKFu,3y3czjszan6hsnojzw5z9ps3vnar5b,33ppungg3cihml62xmhhndvpjdnzrp,2XcLxKFu,2020-0188,2020-06-04,08:48:35,09:33:44,NA,incomplete,204,race,2,1,right,C_F_10.jpg,A_F_06.jpg,C_M_13.jpg,right,122.0949999988079,true,low,false
2XcLxKFu,3y3czjszan6hsnojzw5z9ps3vnar5b,33ppungg3cihml62xmhhndvpjdnzrp,2XcLxKFu,2020-0188,2020-06-04,08:48:35,09:33:44,NA,incomplete,205,race,2,1,left,C_M_02.jpg,C_F_04.jpg,A_M_08.jpg,right,343.07999999122694,false,low,false
2XcLxKFu,3y3czjszan6hsnojzw5z9ps3vnar5b,33ppungg3cihml62xmhhndvpjdnzrp,2XcLxKFu,2020-0188,2020-06-04,08:48:35,09:33:44,NA,incomplete,206,race,2,1,right,C_F_15.jpg,A_F_11.jpg,C_M_12.jpg,left,58.39500000048429,false,low,false
2XcLxKFu,3y3czjszan6hsnojzw5z9ps3vnar5b,33ppungg3cihml62xmhhndvpjdnzrp,2XcLxKFu,2020-0188,2020-06-04,08:48:35,09:33:44,NA,incomplete,207,race,2,1,left,C_F_12.jpg,C_M_06.jpg,A_F_13.jpg,left,63.41999999154359,true,low,false
2XcLxKFu,3y3czjszan6hsnojzw5z9ps3vnar5b,33ppungg3cihml62xmhhndvpjdnzrp,2XcLxKFu,2020-0188,2020-06-04,08:48:35,09:33:44,NA,incomplete,208,race,2,1,right,C_M_03.jpg,A_M_15.jpg,C_F_11.jpg,left,12.510000000707805,false,low,false
2XcLxKFu,3y3czjszan6hsnojzw5z9ps3vnar5b,33ppungg3cihml62xmhhndvpjdnzrp,2XcLxKFu,2020-0188,2020-06-04,08:48:35,09:33:44,NA,incomplete,209,race,2,1,left,C_F_05.jpg,C_M_07.jpg,A_F_03.jpg,right,116.79999998863786,false,low,false
2XcLxKFu,3y3czjszan6hsnojzw5z9ps3vnar5b,33ppungg3cihml62xmhhndvpjdnzrp,2XcLxKFu,2020-0188,2020-06-04,08:48:35,09:33:44,NA,incomplete,210,race,2,1,left,A_F_16.jpg,A_M_09.jpg,C_F_12.jpg,left,157.53999998560175,true,low,false
2XcLxKFu,3y3czjszan6hsnojzw5z9ps3vnar5b,33ppungg3cihml62xmhhndvpjdnzrp,2XcLxKFu,2020-0188,2020-06-04,08:48:35,09:33:44,NA,incomplete,211,race,2,0,left,A_F_08.jpg,A_M_04.jpg,C_F_02.jpg,left,124.60000000987202,true,low,false
2XcLxKFu,3y3czjszan6hsnojzw5z9ps3vnar5b,33ppungg3cihml62xmhhndvpjdnzrp,2XcLxKFu,2020-0188,2020-06-04,08:48:35,09:33:44,NA,incomplete,212,race,2,1,left,C_M_02.jpg,C_F_13.jpg,A_M_11.jpg,right,168.99999999441206,false,low,false
2XcLxKFu,3y3czjszan6hsnojzw5z9ps3vnar5b,33ppungg3cihml62xmhhndvpjdnzrp,2XcLxKFu,2020-0188,2020-06-04,08:48:35,09:33:44,NA,incomplete,213,race,2,1,left,C_F_06.jpg,C_M_16.jpg,A_F_11.jpg,left,136.61499999603257,true,low,false
2XcLxKFu,3y3czjszan6hsnojzw5z9ps3vnar5b,33ppungg3cihml62xmhhndvpjdnzrp,2XcLxKFu,2020-0188,2020-06-04,08:48:35,09:33:44,NA,incomplete,214,race,2,1,right,A_F_10.jpg,C_F_04.jpg,A_M_13.jpg,left,282.3700000010431,false,low,false
2XcLxKFu,3y3czjszan6hsnojzw5z9ps3vnar5b,33ppungg3cihml62xmhhndvpjdnzrp,2XcLxKFu,2020-0188,2020-06-04,08:48:35,09:33:44,NA,incomplete,215,race,2,1,right,A_M_11.jpg,C_M_13.jpg,A_F_09.jpg,left,1005.8299999800511,false,low,false
2XcLxKFu,3y3czjszan6hsnojzw5z9ps3vnar5b,33ppungg3cihml62xmhhndvpjdnzrp,2XcLxKFu,2020-0188,2020-06-04,08:48:35,09:33:44,NA,incomplete,216,race,2,1,right,A_M_10.jpg,C_M_05.jpg,A_F_08.jpg,right,618.5650000115857,true,low,false
2XcLxKFu,3y3czjszan6hsnojzw5z9ps3vnar5b,33ppungg3cihml62xmhhndvpjdnzrp,2XcLxKFu,2020-0188,2020-06-04,08:48:35,09:33:44,NA,incomplete,217,race,2,1,left,C_M_12.jpg,C_F_16.jpg,A_M_03.jpg,right,327.35499998694286,false,low,false
2XcLxKFu,3y3czjszan6hsnojzw5z9ps3vnar5b,33ppungg3cihml62xmhhndvpjdnzrp,2XcLxKFu,2020-0188,2020-06-04,08:48:35,09:33:44,NA,incomplete,218,race,2,1,right,A_F_15.jpg,C_F_02.jpg,A_M_09.jpg,left,312.100000009872,false,low,false
2XcLxKFu,3y3czjszan6hsnojzw5z9ps3vnar5b,33ppungg3cihml62xmhhndvpjdnzrp,2XcLxKFu,2020-0188,2020-06-04,08:48:35,09:33:44,NA,incomplete,219,race,2,0,left,C_F_13.jpg,C_M_11.jpg,A_F_02.jpg,right,104.42499999748543,false,low,false
2XcLxKFu,3y3czjszan6hsnojzw5z9ps3vnar5b,33ppungg3cihml62xmhhndvpjdnzrp,2XcLxKFu,2020-0188,2020-06-04,08:48:35,09:33:44,NA,incomplete,220,gender,3,1,left,A_F_04.jpg,C_F_16.jpg,A_M_15.jpg,right,1005.9649999891408,false,low,false
2XcLxKFu,3y3czjszan6hsnojzw5z9ps3vnar5b,33ppungg3cihml62xmhhndvpjdnzrp,2XcLxKFu,2020-0188,2020-06-04,08:48:35,09:33:44,NA,incomplete,221,gender,3,1,left,A_F_05.jpg,C_F_04.jpg,A_M_15.jpg,left,572.8999999994412,true,low,false
2XcLxKFu,3y3czjszan6hsnojzw5z9ps3vnar5b,33ppungg3cihml62xmhhndvpjdnzrp,2XcLxKFu,2020-0188,2020-06-04,08:48:35,09:33:44,NA,incomplete,222,gender,3,0,right,C_M_12.jpg,C_F_05.jpg,A_M_08.jpg,right,646.3150000199676,true,low,false
2XcLxKFu,3y3czjszan6hsnojzw5z9ps3vnar5b,33ppungg3cihml62xmhhndvpjdnzrp,2XcLxKFu,2020-0188,2020-06-04,08:48:35,09:33:44,NA,incomplete,223,gender,3,1,left,C_F_09.jpg,A_F_10.jpg,C_M_14.jpg,left,149.80000001378357,true,low,false
2XcLxKFu,3y3czjszan6hsnojzw5z9ps3vnar5b,33ppungg3cihml62xmhhndvpjdnzrp,2XcLxKFu,2020-0188,2020-06-04,08:48:35,09:33:44,NA,incomplete,224,gender,3,1,left,C_F_09.jpg,A_F_06.jpg,C_M_02.jpg,left,491.1600000052713,true,low,false
2XcLxKFu,3y3czjszan6hsnojzw5z9ps3vnar5b,33ppungg3cihml62xmhhndvpjdnzrp,2XcLxKFu,2020-0188,2020-06-04,08:48:35,09:33:44,NA,incomplete,225,gender,3,1,left,A_M_15.jpg,C_M_14.jpg,A_F_07.jpg,left,1129.6250000018626,true,low,false
2XcLxKFu,3y3czjszan6hsnojzw5z9ps3vnar5b,33ppungg3cihml62xmhhndvpjdnzrp,2XcLxKFu,2020-0188,2020-06-04,08:48:35,09:33:44,NA,incomplete,226,gender,3,1,right,A_F_16.jpg,A_M_08.jpg,C_F_11.jpg,left,47.91500000283122,false,low,false
2XcLxKFu,3y3czjszan6hsnojzw5z9ps3vnar5b,33ppungg3cihml62xmhhndvpjdnzrp,2XcLxKFu,2020-0188,2020-06-04,08:48:35,09:33:44,NA,incomplete,227,gender,3,0,left,A_M_05.jpg,C_M_14.jpg,A_F_15.jpg,left,586.1250000018626,true,low,false
2XcLxKFu,3y3czjszan6hsnojzw5z9ps3vnar5b,33ppungg3cihml62xmhhndvpjdnzrp,2XcLxKFu,2020-0188,2020-06-04,08:48:35,09:33:44,NA,incomplete,228,gender,3,1,left,C_F_09.jpg,A_F_11.jpg,C_M_06.jpg,right,1080.129999987781,false,low,false
2XcLxKFu,3y3czjszan6hsnojzw5z9ps3vnar5b,33ppungg3cihml62xmhhndvpjdnzrp,2XcLxKFu,2020-0188,2020-06-04,08:48:35,09:33:44,NA,incomplete,229,gender,3,1,left,C_M_16.jpg,A_M_14.jpg,C_F_04.jpg,right,917.2549999784678,false,low,false
2XcLxKFu,3y3czjszan6hsnojzw5z9ps3vnar5b,33ppungg3cihml62xmhhndvpjdnzrp,2XcLxKFu,2020-0188,2020-06-04,08:48:35,09:33:44,NA,incomplete,230,gender,3,1,right,A_M_14.jpg,A_F_04.jpg,C_M_12.jpg,left,52.26999998558313,false,low,false
2XcLxKFu,3y3czjszan6hsnojzw5z9ps3vnar5b,33ppungg3cihml62xmhhndvpjdnzrp,2XcLxKFu,2020-0188,2020-06-04,08:48:35,09:33:44,NA,incomplete,231,gender,3,0,right,A_M_13.jpg,A_F_09.jpg,C_M_12.jpg,right,654.5550000155345,true,low,false
2XcLxKFu,3y3czjszan6hsnojzw5z9ps3vnar5b,33ppungg3cihml62xmhhndvpjdnzrp,2XcLxKFu,2020-0188,2020-06-04,08:48:35,09:33:44,NA,incomplete,232,gender,3,1,left,C_M_13.jpg,A_M_07.jpg,C_F_14.jpg,left,1256.02000000095,true,low,false
2XcLxKFu,3y3czjszan6hsnojzw5z9ps3vnar5b,33ppungg3cihml62xmhhndvpjdnzrp,2XcLxKFu,2020-0188,2020-06-04,08:48:35,09:33:44,NA,incomplete,233,gender,3,0,left,A_M_16.jpg,C_M_13.jpg,A_F_01.jpg,right,334.1749999965541,false,low,false
2XcLxKFu,3y3czjszan6hsnojzw5z9ps3vnar5b,33ppungg3cihml62xmhhndvpjdnzrp,2XcLxKFu,2020-0188,2020-06-04,08:48:35,09:33:44,NA,incomplete,234,gender,3,1,left,A_F_15.jpg,C_F_06.jpg,A_M_02.jpg,left,374.0450000036508,true,low,false
2XcLxKFu,3y3czjszan6hsnojzw5z9ps3vnar5b,33ppungg3cihml62xmhhndvpjdnzrp,2XcLxKFu,2020-0188,2020-06-04,08:48:35,09:33:44,NA,incomplete,235,gender,3,1,right,C_F_02.jpg,C_M_05.jpg,A_F_13.jpg,left,383.96499998588115,false,low,false
2XcLxKFu,3y3czjszan6hsnojzw5z9ps3vnar5b,33ppungg3cihml62xmhhndvpjdnzrp,2XcLxKFu,2020-0188,2020-06-04,08:48:35,09:33:44,NA,incomplete,236,gender,3,1,left,A_M_09.jpg,C_M_15.jpg,A_F_03.jpg,left,470.1200000126846,true,low,false
2XcLxKFu,3y3czjszan6hsnojzw5z9ps3vnar5b,33ppungg3cihml62xmhhndvpjdnzrp,2XcLxKFu,2020-0188,2020-06-04,08:48:35,09:33:44,NA,incomplete,237,gender,3,1,right,A_F_01.jpg,A_M_05.jpg,C_F_12.jpg,left,468.810000020545,false,low,false
2XcLxKFu,3y3czjszan6hsnojzw5z9ps3vnar5b,33ppungg3cihml62xmhhndvpjdnzrp,2XcLxKFu,2020-0188,2020-06-04,08:48:35,09:33:44,NA,incomplete,238,gender,3,1,right,A_M_03.jpg,A_F_04.jpg,C_M_12.jpg,left,343.5499999905005,false,low,false
2XcLxKFu,3y3czjszan6hsnojzw5z9ps3vnar5b,33ppungg3cihml62xmhhndvpjdnzrp,2XcLxKFu,2020-0188,2020-06-04,08:48:35,09:33:44,NA,incomplete,239,gender,3,1,left,C_F_08.jpg,A_F_03.jpg,C_M_10.jpg,left,1040.4400000115857,true,low,false
2XcLxKFu,3y3czjszan6hsnojzw5z9ps3vnar5b,33ppungg3cihml62xmhhndvpjdnzrp,2XcLxKFu,2020-0188,2020-06-04,08:48:35,09:33:44,NA,NA,instruction example,number,NA,NA,NA,Purple_Triangle_Grid_4.jpg,Blue_Star_Stripes_4.jpg,Purple_Circle_Chess_3.jpg,NA,NA,NA,NA,undefined
2XcLxKFu,3y3czjszan6hsnojzw5z9ps3vnar5b,33ppungg3cihml62xmhhndvpjdnzrp,2XcLxKFu,2020-0188,2020-06-04,08:48:35,09:33:44,NA,NA,instruction example,number,NA,NA,NA,Blue_Triangle_Grid_4.jpg,Blue_Star_Chess_2.jpg,Red_Plus_Dots_4.jpg,NA,NA,NA,NA,undefined
2XcLxKFu,3y3czjszan6hsnojzw5z9ps3vnar5b,33ppungg3cihml62xmhhndvpjdnzrp,2XcLxKFu,2020-0188,2020-06-04,08:48:35,09:33:44,NA,NA,instruction example,number,NA,NA,NA,A_M_08.jpg,A_F_12.jpg,C_M_04.jpg,NA,NA,NA,NA,undefined
2XcLxKFu,3y3czjszan6hsnojzw5z9ps3vnar5b,33ppungg3cihml62xmhhndvpjdnzrp,2XcLxKFu,2020-0188,2020-06-04,08:48:35,09:33:44,NA,NA,instruction example,number,NA,NA,NA,A_F_11.jpg,C_F_07.jpg,A_M_09.jpg,NA,NA,NA,NA,undefined
