workerId,hitId,assignmentId,subject,studyid,exp_date,exp_start,exp_end,time_start,time_end,trial,type,sequence,reward_validity,answer,image_top,image_left,image_right,response,response_time,response_acc,volatility,age,race,gender,ethnicity,color,vision,neuro,practice
CTrGKohD,3p7qk0gj4wyyvhrnruxexlrqk8i2zm,3483fv8beiwyur56gr55p7um4d862i,CTrGKohD,2020-0188,2020-06-17,04:02:01,04:25:51,NA,incomplete,0,shape,0,1,right,Red_Triangle_Chess_4.jpg,Red_Star_Stripes_1.jpg,Blue_Triangle_Grid_2.jpg,right,1647,true,NA,NA,NA,NA,NA,NA,NA,NA,true
CTrGKohD,3p7qk0gj4wyyvhrnruxexlrqk8i2zm,3483fv8beiwyur56gr55p7um4d862i,CTrGKohD,2020-0188,2020-06-17,04:02:01,04:25:51,NA,incomplete,1,shape,0,1,left,Blue_Plus_Chess_3.jpg,Purple_Plus_Dots_4.jpg,Blue_Star_Stripes_2.jpg,left,1045,true,NA,NA,NA,NA,NA,NA,NA,NA,true
CTrGKohD,3p7qk0gj4wyyvhrnruxexlrqk8i2zm,3483fv8beiwyur56gr55p7um4d862i,CTrGKohD,2020-0188,2020-06-17,04:02:01,04:25:51,NA,incomplete,2,shape,0,1,right,Red_Plus_Grid_2.jpg,Red_Triangle_Stripes_4.jpg,Green_Plus_Dots_1.jpg,right,1049,true,NA,NA,NA,NA,NA,NA,NA,NA,true
CTrGKohD,3p7qk0gj4wyyvhrnruxexlrqk8i2zm,3483fv8beiwyur56gr55p7um4d862i,CTrGKohD,2020-0188,2020-06-17,04:02:01,04:25:51,NA,incomplete,3,shape,0,1,left,Green_Triangle_Stripes_2.jpg,Red_Triangle_Grid_4.jpg,Green_Circle_Chess_1.jpg,right,1226,false,NA,NA,NA,NA,NA,NA,NA,NA,true
CTrGKohD,3p7qk0gj4wyyvhrnruxexlrqk8i2zm,3483fv8beiwyur56gr55p7um4d862i,CTrGKohD,2020-0188,2020-06-17,04:02:01,04:25:51,NA,incomplete,4,shape,0,1,left,Green_Circle_Stripes_4.jpg,Red_Circle_Grid_2.jpg,Green_Triangle_Dots_1.jpg,left,1011,true,NA,NA,NA,NA,NA,NA,NA,NA,true
CTrGKohD,3p7qk0gj4wyyvhrnruxexlrqk8i2zm,3483fv8beiwyur56gr55p7um4d862i,CTrGKohD,2020-0188,2020-06-17,04:02:01,04:25:51,NA,incomplete,5,shape,0,1,right,Green_Circle_Chess_1.jpg,Green_Plus_Grid_2.jpg,Blue_Circle_Stripes_3.jpg,right,1066,true,NA,NA,NA,NA,NA,NA,NA,NA,true
CTrGKohD,3p7qk0gj4wyyvhrnruxexlrqk8i2zm,3483fv8beiwyur56gr55p7um4d862i,CTrGKohD,2020-0188,2020-06-17,04:02:01,04:25:51,NA,incomplete,6,shape,0,1,right,Purple_Plus_Stripes_2.jpg,Purple_Triangle_Chess_1.jpg,Blue_Plus_Dots_4.jpg,right,1317,true,NA,NA,NA,NA,NA,NA,NA,NA,true
CTrGKohD,3p7qk0gj4wyyvhrnruxexlrqk8i2zm,3483fv8beiwyur56gr55p7um4d862i,CTrGKohD,2020-0188,2020-06-17,04:02:01,04:25:51,NA,incomplete,7,shape,0,1,left,Green_Triangle_Stripes_3.jpg,Blue_Triangle_Chess_4.jpg,Green_Star_Grid_2.jpg,right,1103,false,NA,NA,NA,NA,NA,NA,NA,NA,true
CTrGKohD,3p7qk0gj4wyyvhrnruxexlrqk8i2zm,3483fv8beiwyur56gr55p7um4d862i,CTrGKohD,2020-0188,2020-06-17,04:02:01,04:25:51,NA,incomplete,8,shape,0,1,left,Green_Star_Chess_1.jpg,Red_Star_Dots_4.jpg,Green_Plus_Stripes_2.jpg,left,1307,true,NA,NA,NA,NA,NA,NA,NA,NA,true
CTrGKohD,3p7qk0gj4wyyvhrnruxexlrqk8i2zm,3483fv8beiwyur56gr55p7um4d862i,CTrGKohD,2020-0188,2020-06-17,04:02:01,04:25:51,NA,incomplete,9,shape,0,1,left,Purple_Circle_Stripes_1.jpg,Blue_Circle_Grid_2.jpg,Purple_Star_Dots_3.jpg,left,1191,true,NA,NA,NA,NA,NA,NA,NA,NA,true
CTrGKohD,3p7qk0gj4wyyvhrnruxexlrqk8i2zm,3483fv8beiwyur56gr55p7um4d862i,CTrGKohD,2020-0188,2020-06-17,04:02:01,04:25:51,NA,incomplete,10,shape,0,1,right,Blue_Triangle_Chess_2.jpg,Blue_Circle_Dots_4.jpg,Red_Triangle_Grid_3.jpg,right,1151,true,NA,NA,NA,NA,NA,NA,NA,NA,true
CTrGKohD,3p7qk0gj4wyyvhrnruxexlrqk8i2zm,3483fv8beiwyur56gr55p7um4d862i,CTrGKohD,2020-0188,2020-06-17,04:02:01,04:25:51,NA,incomplete,11,shape,0,0,right,Red_Plus_Chess_2.jpg,Red_Triangle_Dots_3.jpg,Green_Plus_Stripes_4.jpg,right,1035,true,NA,NA,NA,NA,NA,NA,NA,NA,true
CTrGKohD,3p7qk0gj4wyyvhrnruxexlrqk8i2zm,3483fv8beiwyur56gr55p7um4d862i,CTrGKohD,2020-0188,2020-06-17,04:02:01,04:25:51,NA,incomplete,12,shape,0,1,right,Red_Circle_Stripes_2.jpg,Red_Star_Chess_1.jpg,Purple_Circle_Grid_3.jpg,right,1301,true,NA,NA,NA,NA,NA,NA,NA,NA,true
CTrGKohD,3p7qk0gj4wyyvhrnruxexlrqk8i2zm,3483fv8beiwyur56gr55p7um4d862i,CTrGKohD,2020-0188,2020-06-17,04:02:01,04:25:51,NA,incomplete,13,shape,0,0,left,Blue_Star_Dots_3.jpg,Green_Star_Chess_4.jpg,Blue_Plus_Stripes_1.jpg,left,1507,true,NA,NA,NA,NA,NA,NA,NA,NA,true
CTrGKohD,3p7qk0gj4wyyvhrnruxexlrqk8i2zm,3483fv8beiwyur56gr55p7um4d862i,CTrGKohD,2020-0188,2020-06-17,04:02:01,04:25:51,NA,incomplete,14,shape,0,0,left,Red_Plus_Dots_3.jpg,Green_Plus_Grid_1.jpg,Red_Circle_Stripes_2.jpg,left,1862,true,NA,NA,NA,NA,NA,NA,NA,NA,true
CTrGKohD,3p7qk0gj4wyyvhrnruxexlrqk8i2zm,3483fv8beiwyur56gr55p7um4d862i,CTrGKohD,2020-0188,2020-06-17,04:02:01,04:25:51,NA,incomplete,15,shape,0,1,left,Green_Plus_Grid_1.jpg,Blue_Plus_Chess_2.jpg,Green_Star_Dots_3.jpg,left,1450,true,NA,NA,NA,NA,NA,NA,NA,NA,true
CTrGKohD,3p7qk0gj4wyyvhrnruxexlrqk8i2zm,3483fv8beiwyur56gr55p7um4d862i,CTrGKohD,2020-0188,2020-06-17,04:02:01,04:25:51,NA,incomplete,16,shape,0,1,right,Purple_Triangle_Dots_4.jpg,Purple_Plus_Stripes_2.jpg,Red_Triangle_Chess_1.jpg,right,1670,true,NA,NA,NA,NA,NA,NA,NA,NA,true
CTrGKohD,3p7qk0gj4wyyvhrnruxexlrqk8i2zm,3483fv8beiwyur56gr55p7um4d862i,CTrGKohD,2020-0188,2020-06-17,04:02:01,04:25:51,NA,incomplete,17,shape,0,1,left,Purple_Plus_Stripes_3.jpg,Red_Plus_Chess_2.jpg,Purple_Triangle_Dots_1.jpg,left,1448,true,NA,NA,NA,NA,NA,NA,NA,NA,true
CTrGKohD,3p7qk0gj4wyyvhrnruxexlrqk8i2zm,3483fv8beiwyur56gr55p7um4d862i,CTrGKohD,2020-0188,2020-06-17,04:02:01,04:25:51,NA,incomplete,18,shape,0,1,left,Purple_Plus_Stripes_4.jpg,Red_Plus_Grid_2.jpg,Purple_Star_Dots_3.jpg,left,1104,true,NA,NA,NA,NA,NA,NA,NA,NA,true
CTrGKohD,3p7qk0gj4wyyvhrnruxexlrqk8i2zm,3483fv8beiwyur56gr55p7um4d862i,CTrGKohD,2020-0188,2020-06-17,04:02:01,04:25:51,NA,incomplete,19,shape,0,1,right,Purple_Triangle_Dots_3.jpg,Purple_Plus_Stripes_4.jpg,Blue_Triangle_Grid_2.jpg,right,1035,true,NA,NA,NA,NA,NA,NA,NA,NA,true
CTrGKohD,3p7qk0gj4wyyvhrnruxexlrqk8i2zm,3483fv8beiwyur56gr55p7um4d862i,CTrGKohD,2020-0188,2020-06-17,04:02:01,04:25:51,NA,incomplete,20,color,1,1,right,Red_Plus_Grid_2.jpg,Blue_Plus_Stripes_3.jpg,Red_Circle_Dots_4.jpg,left,1515,false,NA,NA,NA,NA,NA,NA,NA,NA,true
CTrGKohD,3p7qk0gj4wyyvhrnruxexlrqk8i2zm,3483fv8beiwyur56gr55p7um4d862i,CTrGKohD,2020-0188,2020-06-17,04:02:01,04:25:51,NA,incomplete,21,color,1,1,right,Purple_Plus_Stripes_2.jpg,Red_Plus_Dots_3.jpg,Purple_Circle_Grid_1.jpg,right,1482,true,NA,NA,NA,NA,NA,NA,NA,NA,true
CTrGKohD,3p7qk0gj4wyyvhrnruxexlrqk8i2zm,3483fv8beiwyur56gr55p7um4d862i,CTrGKohD,2020-0188,2020-06-17,04:02:01,04:25:51,NA,incomplete,22,color,1,1,right,Purple_Triangle_Grid_4.jpg,Green_Triangle_Dots_2.jpg,Purple_Star_Stripes_3.jpg,right,1079,true,NA,NA,NA,NA,NA,NA,NA,NA,true
CTrGKohD,3p7qk0gj4wyyvhrnruxexlrqk8i2zm,3483fv8beiwyur56gr55p7um4d862i,CTrGKohD,2020-0188,2020-06-17,04:02:01,04:25:51,NA,incomplete,23,color,1,1,left,Red_Triangle_Stripes_3.jpg,Red_Plus_Grid_4.jpg,Blue_Triangle_Chess_2.jpg,left,790,true,NA,NA,NA,NA,NA,NA,NA,NA,true
CTrGKohD,3p7qk0gj4wyyvhrnruxexlrqk8i2zm,3483fv8beiwyur56gr55p7um4d862i,CTrGKohD,2020-0188,2020-06-17,04:02:01,04:25:51,NA,incomplete,24,color,1,0,left,Blue_Plus_Chess_2.jpg,Blue_Triangle_Grid_4.jpg,Red_Plus_Dots_1.jpg,left,810,true,NA,NA,NA,NA,NA,NA,NA,NA,true
CTrGKohD,3p7qk0gj4wyyvhrnruxexlrqk8i2zm,3483fv8beiwyur56gr55p7um4d862i,CTrGKohD,2020-0188,2020-06-17,04:02:01,04:25:51,NA,incomplete,25,color,1,1,right,Green_Plus_Dots_2.jpg,Purple_Plus_Chess_4.jpg,Green_Triangle_Grid_1.jpg,right,943,true,NA,NA,NA,NA,NA,NA,NA,NA,true
CTrGKohD,3p7qk0gj4wyyvhrnruxexlrqk8i2zm,3483fv8beiwyur56gr55p7um4d862i,CTrGKohD,2020-0188,2020-06-17,04:02:01,04:25:51,NA,incomplete,26,color,1,1,right,Blue_Triangle_Dots_1.jpg,Green_Triangle_Chess_3.jpg,Blue_Star_Grid_2.jpg,right,1174,true,NA,NA,NA,NA,NA,NA,NA,NA,true
CTrGKohD,3p7qk0gj4wyyvhrnruxexlrqk8i2zm,3483fv8beiwyur56gr55p7um4d862i,CTrGKohD,2020-0188,2020-06-17,04:02:01,04:25:51,NA,incomplete,27,color,1,1,right,Red_Circle_Chess_3.jpg,Blue_Circle_Stripes_2.jpg,Red_Plus_Dots_1.jpg,right,1424,true,NA,NA,NA,NA,NA,NA,NA,NA,true
CTrGKohD,3p7qk0gj4wyyvhrnruxexlrqk8i2zm,3483fv8beiwyur56gr55p7um4d862i,CTrGKohD,2020-0188,2020-06-17,04:02:01,04:25:51,NA,incomplete,28,color,1,0,right,Blue_Circle_Dots_1.jpg,Green_Circle_Grid_4.jpg,Blue_Star_Stripes_3.jpg,right,1068,true,NA,NA,NA,NA,NA,NA,NA,NA,true
CTrGKohD,3p7qk0gj4wyyvhrnruxexlrqk8i2zm,3483fv8beiwyur56gr55p7um4d862i,CTrGKohD,2020-0188,2020-06-17,04:02:01,04:25:51,NA,incomplete,29,color,1,1,left,Green_Plus_Chess_3.jpg,Green_Star_Grid_1.jpg,Purple_Plus_Stripes_2.jpg,left,1002,true,NA,NA,NA,NA,NA,NA,NA,NA,true
CTrGKohD,3p7qk0gj4wyyvhrnruxexlrqk8i2zm,3483fv8beiwyur56gr55p7um4d862i,CTrGKohD,2020-0188,2020-06-17,04:02:01,04:25:51,NA,incomplete,30,color,1,0,left,Purple_Star_Grid_3.jpg,Purple_Plus_Chess_4.jpg,Blue_Star_Dots_2.jpg,left,1046,true,NA,NA,NA,NA,NA,NA,NA,NA,true
CTrGKohD,3p7qk0gj4wyyvhrnruxexlrqk8i2zm,3483fv8beiwyur56gr55p7um4d862i,CTrGKohD,2020-0188,2020-06-17,04:02:01,04:25:51,NA,incomplete,31,color,1,0,right,Green_Circle_Grid_2.jpg,Red_Circle_Stripes_1.jpg,Green_Star_Dots_4.jpg,right,1186,true,NA,NA,NA,NA,NA,NA,NA,NA,true
CTrGKohD,3p7qk0gj4wyyvhrnruxexlrqk8i2zm,3483fv8beiwyur56gr55p7um4d862i,CTrGKohD,2020-0188,2020-06-17,04:02:01,04:25:51,NA,incomplete,32,color,1,1,right,Purple_Triangle_Dots_2.jpg,Blue_Triangle_Grid_1.jpg,Purple_Plus_Stripes_4.jpg,left,1136,false,NA,NA,NA,NA,NA,NA,NA,NA,true
CTrGKohD,3p7qk0gj4wyyvhrnruxexlrqk8i2zm,3483fv8beiwyur56gr55p7um4d862i,CTrGKohD,2020-0188,2020-06-17,04:02:01,04:25:51,NA,incomplete,33,color,1,1,right,Purple_Star_Grid_4.jpg,Green_Star_Stripes_1.jpg,Purple_Plus_Dots_2.jpg,right,1347,true,NA,NA,NA,NA,NA,NA,NA,NA,true
CTrGKohD,3p7qk0gj4wyyvhrnruxexlrqk8i2zm,3483fv8beiwyur56gr55p7um4d862i,CTrGKohD,2020-0188,2020-06-17,04:02:01,04:25:51,NA,incomplete,34,color,1,1,right,Purple_Star_Dots_2.jpg,Green_Star_Grid_4.jpg,Purple_Circle_Chess_3.jpg,right,1200,true,NA,NA,NA,NA,NA,NA,NA,NA,true
CTrGKohD,3p7qk0gj4wyyvhrnruxexlrqk8i2zm,3483fv8beiwyur56gr55p7um4d862i,CTrGKohD,2020-0188,2020-06-17,04:02:01,04:25:51,NA,incomplete,35,color,1,1,left,Red_Plus_Dots_2.jpg,Red_Circle_Chess_4.jpg,Purple_Plus_Grid_1.jpg,left,1029,true,NA,NA,NA,NA,NA,NA,NA,NA,true
CTrGKohD,3p7qk0gj4wyyvhrnruxexlrqk8i2zm,3483fv8beiwyur56gr55p7um4d862i,CTrGKohD,2020-0188,2020-06-17,04:02:01,04:25:51,NA,incomplete,36,color,1,1,right,Red_Plus_Dots_1.jpg,Green_Plus_Stripes_3.jpg,Red_Star_Chess_4.jpg,right,1152,true,NA,NA,NA,NA,NA,NA,NA,NA,true
CTrGKohD,3p7qk0gj4wyyvhrnruxexlrqk8i2zm,3483fv8beiwyur56gr55p7um4d862i,CTrGKohD,2020-0188,2020-06-17,04:02:01,04:25:51,NA,incomplete,37,color,1,1,left,Purple_Triangle_Stripes_1.jpg,Purple_Plus_Chess_4.jpg,Red_Triangle_Dots_3.jpg,left,1102,true,NA,NA,NA,NA,NA,NA,NA,NA,true
CTrGKohD,3p7qk0gj4wyyvhrnruxexlrqk8i2zm,3483fv8beiwyur56gr55p7um4d862i,CTrGKohD,2020-0188,2020-06-17,04:02:01,04:25:51,NA,incomplete,38,color,1,1,right,Purple_Triangle_Grid_3.jpg,Green_Triangle_Dots_2.jpg,Purple_Plus_Chess_1.jpg,right,1015,true,NA,NA,NA,NA,NA,NA,NA,NA,true
CTrGKohD,3p7qk0gj4wyyvhrnruxexlrqk8i2zm,3483fv8beiwyur56gr55p7um4d862i,CTrGKohD,2020-0188,2020-06-17,04:02:01,04:25:51,NA,incomplete,39,color,1,0,right,Purple_Plus_Dots_4.jpg,Blue_Plus_Grid_1.jpg,Purple_Circle_Stripes_2.jpg,right,1100,true,NA,NA,NA,NA,NA,NA,NA,NA,true
CTrGKohD,3p7qk0gj4wyyvhrnruxexlrqk8i2zm,3483fv8beiwyur56gr55p7um4d862i,CTrGKohD,2020-0188,2020-06-17,04:02:01,04:25:51,NA,incomplete,0,shape,0,0,left,Blue_Triangle_Stripes_2.jpg,Green_Triangle_Dots_3.jpg,Blue_Star_Chess_4.jpg,left,1249,true,high,NA,NA,NA,NA,NA,NA,NA,false
CTrGKohD,3p7qk0gj4wyyvhrnruxexlrqk8i2zm,3483fv8beiwyur56gr55p7um4d862i,CTrGKohD,2020-0188,2020-06-17,04:02:01,04:25:51,NA,incomplete,1,shape,0,1,right,Purple_Triangle_Chess_4.jpg,Purple_Plus_Grid_3.jpg,Blue_Triangle_Stripes_2.jpg,right,1299,true,high,NA,NA,NA,NA,NA,NA,NA,false
CTrGKohD,3p7qk0gj4wyyvhrnruxexlrqk8i2zm,3483fv8beiwyur56gr55p7um4d862i,CTrGKohD,2020-0188,2020-06-17,04:02:01,04:25:51,NA,incomplete,2,shape,0,1,left,Green_Star_Stripes_4.jpg,Blue_Star_Grid_2.jpg,Green_Triangle_Chess_3.jpg,left,1146,true,high,NA,NA,NA,NA,NA,NA,NA,false
CTrGKohD,3p7qk0gj4wyyvhrnruxexlrqk8i2zm,3483fv8beiwyur56gr55p7um4d862i,CTrGKohD,2020-0188,2020-06-17,04:02:01,04:25:51,NA,incomplete,3,shape,0,1,left,Purple_Circle_Grid_1.jpg,Blue_Circle_Dots_4.jpg,Purple_Plus_Chess_3.jpg,left,1026,true,high,NA,NA,NA,NA,NA,NA,NA,false
CTrGKohD,3p7qk0gj4wyyvhrnruxexlrqk8i2zm,3483fv8beiwyur56gr55p7um4d862i,CTrGKohD,2020-0188,2020-06-17,04:02:01,04:25:51,NA,incomplete,4,shape,0,1,right,Blue_Star_Stripes_3.jpg,Blue_Triangle_Dots_4.jpg,Red_Star_Chess_1.jpg,left,1355,false,high,NA,NA,NA,NA,NA,NA,NA,false
CTrGKohD,3p7qk0gj4wyyvhrnruxexlrqk8i2zm,3483fv8beiwyur56gr55p7um4d862i,CTrGKohD,2020-0188,2020-06-17,04:02:01,04:25:51,NA,incomplete,5,shape,0,1,right,Purple_Star_Chess_1.jpg,Purple_Triangle_Stripes_2.jpg,Red_Star_Grid_4.jpg,right,1180,true,high,NA,NA,NA,NA,NA,NA,NA,false
CTrGKohD,3p7qk0gj4wyyvhrnruxexlrqk8i2zm,3483fv8beiwyur56gr55p7um4d862i,CTrGKohD,2020-0188,2020-06-17,04:02:01,04:25:51,NA,incomplete,6,shape,0,1,right,Purple_Star_Stripes_3.jpg,Purple_Triangle_Chess_2.jpg,Blue_Star_Dots_4.jpg,right,1585,true,high,NA,NA,NA,NA,NA,NA,NA,false
CTrGKohD,3p7qk0gj4wyyvhrnruxexlrqk8i2zm,3483fv8beiwyur56gr55p7um4d862i,CTrGKohD,2020-0188,2020-06-17,04:02:01,04:25:51,NA,incomplete,7,shape,0,1,right,Purple_Triangle_Dots_3.jpg,Purple_Star_Grid_4.jpg,Green_Triangle_Stripes_2.jpg,right,1344,true,high,NA,NA,NA,NA,NA,NA,NA,false
CTrGKohD,3p7qk0gj4wyyvhrnruxexlrqk8i2zm,3483fv8beiwyur56gr55p7um4d862i,CTrGKohD,2020-0188,2020-06-17,04:02:01,04:25:51,NA,incomplete,8,shape,0,1,left,Blue_Triangle_Grid_2.jpg,Green_Triangle_Dots_3.jpg,Blue_Star_Chess_4.jpg,left,1002,true,high,NA,NA,NA,NA,NA,NA,NA,false
CTrGKohD,3p7qk0gj4wyyvhrnruxexlrqk8i2zm,3483fv8beiwyur56gr55p7um4d862i,CTrGKohD,2020-0188,2020-06-17,04:02:01,04:25:51,NA,incomplete,9,shape,0,1,left,Green_Star_Grid_4.jpg,Blue_Star_Stripes_1.jpg,Green_Circle_Chess_2.jpg,left,1358,true,high,NA,NA,NA,NA,NA,NA,NA,false
CTrGKohD,3p7qk0gj4wyyvhrnruxexlrqk8i2zm,3483fv8beiwyur56gr55p7um4d862i,CTrGKohD,2020-0188,2020-06-17,04:02:01,04:25:51,NA,incomplete,10,color,1,1,left,Blue_Star_Chess_3.jpg,Blue_Circle_Stripes_1.jpg,Purple_Star_Grid_2.jpg,left,1139,true,high,NA,NA,NA,NA,NA,NA,NA,false
CTrGKohD,3p7qk0gj4wyyvhrnruxexlrqk8i2zm,3483fv8beiwyur56gr55p7um4d862i,CTrGKohD,2020-0188,2020-06-17,04:02:01,04:25:51,NA,incomplete,11,color,1,1,left,Green_Star_Stripes_3.jpg,Green_Plus_Grid_1.jpg,Purple_Star_Dots_2.jpg,right,1123,false,high,NA,NA,NA,NA,NA,NA,NA,false
CTrGKohD,3p7qk0gj4wyyvhrnruxexlrqk8i2zm,3483fv8beiwyur56gr55p7um4d862i,CTrGKohD,2020-0188,2020-06-17,04:02:01,04:25:51,NA,incomplete,12,color,1,1,right,Red_Triangle_Chess_3.jpg,Blue_Triangle_Stripes_4.jpg,Red_Plus_Dots_2.jpg,right,984,true,high,NA,NA,NA,NA,NA,NA,NA,false
CTrGKohD,3p7qk0gj4wyyvhrnruxexlrqk8i2zm,3483fv8beiwyur56gr55p7um4d862i,CTrGKohD,2020-0188,2020-06-17,04:02:01,04:25:51,NA,incomplete,13,color,1,1,right,Red_Plus_Chess_3.jpg,Blue_Plus_Grid_4.jpg,Red_Circle_Dots_2.jpg,right,1021,true,high,NA,NA,NA,NA,NA,NA,NA,false
CTrGKohD,3p7qk0gj4wyyvhrnruxexlrqk8i2zm,3483fv8beiwyur56gr55p7um4d862i,CTrGKohD,2020-0188,2020-06-17,04:02:01,04:25:51,NA,incomplete,14,color,1,0,left,Purple_Star_Stripes_2.jpg,Purple_Circle_Chess_3.jpg,Blue_Star_Dots_1.jpg,left,923,true,high,NA,NA,NA,NA,NA,NA,NA,false
CTrGKohD,3p7qk0gj4wyyvhrnruxexlrqk8i2zm,3483fv8beiwyur56gr55p7um4d862i,CTrGKohD,2020-0188,2020-06-17,04:02:01,04:25:51,NA,incomplete,15,color,1,1,right,Green_Plus_Chess_3.jpg,Blue_Plus_Dots_2.jpg,Green_Circle_Grid_4.jpg,right,1099,true,high,NA,NA,NA,NA,NA,NA,NA,false
CTrGKohD,3p7qk0gj4wyyvhrnruxexlrqk8i2zm,3483fv8beiwyur56gr55p7um4d862i,CTrGKohD,2020-0188,2020-06-17,04:02:01,04:25:51,NA,incomplete,16,color,1,0,left,Green_Plus_Grid_1.jpg,Green_Star_Chess_3.jpg,Red_Plus_Dots_2.jpg,left,942,true,high,NA,NA,NA,NA,NA,NA,NA,false
CTrGKohD,3p7qk0gj4wyyvhrnruxexlrqk8i2zm,3483fv8beiwyur56gr55p7um4d862i,CTrGKohD,2020-0188,2020-06-17,04:02:01,04:25:51,NA,incomplete,17,color,1,1,left,Purple_Circle_Dots_1.jpg,Purple_Plus_Chess_4.jpg,Green_Circle_Stripes_3.jpg,left,1128,true,high,NA,NA,NA,NA,NA,NA,NA,false
CTrGKohD,3p7qk0gj4wyyvhrnruxexlrqk8i2zm,3483fv8beiwyur56gr55p7um4d862i,CTrGKohD,2020-0188,2020-06-17,04:02:01,04:25:51,NA,incomplete,18,color,1,0,right,Blue_Plus_Stripes_4.jpg,Red_Plus_Dots_2.jpg,Blue_Circle_Chess_1.jpg,right,1261,true,high,NA,NA,NA,NA,NA,NA,NA,false
CTrGKohD,3p7qk0gj4wyyvhrnruxexlrqk8i2zm,3483fv8beiwyur56gr55p7um4d862i,CTrGKohD,2020-0188,2020-06-17,04:02:01,04:25:51,NA,incomplete,19,color,1,1,right,Purple_Triangle_Dots_4.jpg,Green_Triangle_Grid_1.jpg,Purple_Circle_Stripes_2.jpg,left,1161,false,high,NA,NA,NA,NA,NA,NA,NA,false
CTrGKohD,3p7qk0gj4wyyvhrnruxexlrqk8i2zm,3483fv8beiwyur56gr55p7um4d862i,CTrGKohD,2020-0188,2020-06-17,04:02:01,04:25:51,NA,incomplete,20,shape,0,1,right,Blue_Triangle_Stripes_2.jpg,Blue_Star_Grid_3.jpg,Red_Triangle_Chess_4.jpg,left,1256,false,high,NA,NA,NA,NA,NA,NA,NA,false
CTrGKohD,3p7qk0gj4wyyvhrnruxexlrqk8i2zm,3483fv8beiwyur56gr55p7um4d862i,CTrGKohD,2020-0188,2020-06-17,04:02:01,04:25:51,NA,incomplete,21,shape,0,0,right,Purple_Plus_Grid_4.jpg,Purple_Star_Stripes_3.jpg,Blue_Plus_Chess_2.jpg,right,1412,true,high,NA,NA,NA,NA,NA,NA,NA,false
CTrGKohD,3p7qk0gj4wyyvhrnruxexlrqk8i2zm,3483fv8beiwyur56gr55p7um4d862i,CTrGKohD,2020-0188,2020-06-17,04:02:01,04:25:51,NA,incomplete,22,shape,0,1,right,Green_Plus_Grid_1.jpg,Green_Circle_Stripes_4.jpg,Blue_Plus_Dots_2.jpg,right,1088,true,high,NA,NA,NA,NA,NA,NA,NA,false
CTrGKohD,3p7qk0gj4wyyvhrnruxexlrqk8i2zm,3483fv8beiwyur56gr55p7um4d862i,CTrGKohD,2020-0188,2020-06-17,04:02:01,04:25:51,NA,incomplete,23,shape,0,1,left,Purple_Plus_Stripes_4.jpg,Blue_Plus_Chess_2.jpg,Purple_Triangle_Grid_3.jpg,right,1721,false,high,NA,NA,NA,NA,NA,NA,NA,false
CTrGKohD,3p7qk0gj4wyyvhrnruxexlrqk8i2zm,3483fv8beiwyur56gr55p7um4d862i,CTrGKohD,2020-0188,2020-06-17,04:02:01,04:25:51,NA,incomplete,24,shape,0,1,left,Purple_Triangle_Dots_4.jpg,Green_Triangle_Chess_3.jpg,Purple_Star_Grid_1.jpg,left,1533,true,high,NA,NA,NA,NA,NA,NA,NA,false
CTrGKohD,3p7qk0gj4wyyvhrnruxexlrqk8i2zm,3483fv8beiwyur56gr55p7um4d862i,CTrGKohD,2020-0188,2020-06-17,04:02:01,04:25:51,NA,incomplete,25,shape,0,1,right,Red_Circle_Dots_1.jpg,Red_Star_Grid_2.jpg,Blue_Circle_Chess_3.jpg,right,1654,true,high,NA,NA,NA,NA,NA,NA,NA,false
CTrGKohD,3p7qk0gj4wyyvhrnruxexlrqk8i2zm,3483fv8beiwyur56gr55p7um4d862i,CTrGKohD,2020-0188,2020-06-17,04:02:01,04:25:51,NA,incomplete,26,shape,0,1,left,Blue_Star_Dots_1.jpg,Green_Star_Chess_2.jpg,Blue_Circle_Grid_3.jpg,left,1226,true,high,NA,NA,NA,NA,NA,NA,NA,false
CTrGKohD,3p7qk0gj4wyyvhrnruxexlrqk8i2zm,3483fv8beiwyur56gr55p7um4d862i,CTrGKohD,2020-0188,2020-06-17,04:02:01,04:25:51,NA,incomplete,27,shape,0,1,right,Green_Star_Chess_4.jpg,Green_Plus_Dots_1.jpg,Blue_Star_Stripes_3.jpg,right,1304,true,high,NA,NA,NA,NA,NA,NA,NA,false
CTrGKohD,3p7qk0gj4wyyvhrnruxexlrqk8i2zm,3483fv8beiwyur56gr55p7um4d862i,CTrGKohD,2020-0188,2020-06-17,04:02:01,04:25:51,NA,incomplete,28,shape,0,1,left,Purple_Circle_Chess_3.jpg,Green_Circle_Grid_1.jpg,Purple_Plus_Stripes_4.jpg,left,1206,true,high,NA,NA,NA,NA,NA,NA,NA,false
CTrGKohD,3p7qk0gj4wyyvhrnruxexlrqk8i2zm,3483fv8beiwyur56gr55p7um4d862i,CTrGKohD,2020-0188,2020-06-17,04:02:01,04:25:51,NA,incomplete,29,shape,0,1,right,Blue_Star_Grid_3.jpg,Blue_Plus_Dots_4.jpg,Red_Star_Stripes_1.jpg,right,1205,true,high,NA,NA,NA,NA,NA,NA,NA,false
CTrGKohD,3p7qk0gj4wyyvhrnruxexlrqk8i2zm,3483fv8beiwyur56gr55p7um4d862i,CTrGKohD,2020-0188,2020-06-17,04:02:01,04:25:51,NA,incomplete,30,color,1,1,right,Red_Circle_Chess_2.jpg,Green_Circle_Stripes_4.jpg,Red_Plus_Grid_3.jpg,left,1158,false,high,NA,NA,NA,NA,NA,NA,NA,false
CTrGKohD,3p7qk0gj4wyyvhrnruxexlrqk8i2zm,3483fv8beiwyur56gr55p7um4d862i,CTrGKohD,2020-0188,2020-06-17,04:02:01,04:25:51,NA,incomplete,31,color,1,1,left,Green_Plus_Grid_1.jpg,Green_Triangle_Dots_4.jpg,Blue_Plus_Chess_3.jpg,left,1021,true,high,NA,NA,NA,NA,NA,NA,NA,false
CTrGKohD,3p7qk0gj4wyyvhrnruxexlrqk8i2zm,3483fv8beiwyur56gr55p7um4d862i,CTrGKohD,2020-0188,2020-06-17,04:02:01,04:25:51,NA,incomplete,32,color,1,0,left,Red_Star_Grid_2.jpg,Red_Circle_Stripes_4.jpg,Green_Star_Dots_1.jpg,right,1083,false,high,NA,NA,NA,NA,NA,NA,NA,false
CTrGKohD,3p7qk0gj4wyyvhrnruxexlrqk8i2zm,3483fv8beiwyur56gr55p7um4d862i,CTrGKohD,2020-0188,2020-06-17,04:02:01,04:25:51,NA,incomplete,33,color,1,1,left,Red_Circle_Stripes_2.jpg,Red_Plus_Grid_3.jpg,Green_Circle_Dots_1.jpg,left,1067,true,high,NA,NA,NA,NA,NA,NA,NA,false
CTrGKohD,3p7qk0gj4wyyvhrnruxexlrqk8i2zm,3483fv8beiwyur56gr55p7um4d862i,CTrGKohD,2020-0188,2020-06-17,04:02:01,04:25:51,NA,incomplete,34,color,1,0,right,Blue_Triangle_Stripes_1.jpg,Green_Triangle_Dots_4.jpg,Blue_Star_Chess_3.jpg,right,1277,true,high,NA,NA,NA,NA,NA,NA,NA,false
CTrGKohD,3p7qk0gj4wyyvhrnruxexlrqk8i2zm,3483fv8beiwyur56gr55p7um4d862i,CTrGKohD,2020-0188,2020-06-17,04:02:01,04:25:51,NA,incomplete,35,color,1,1,right,Purple_Circle_Stripes_1.jpg,Blue_Circle_Dots_2.jpg,Purple_Triangle_Chess_4.jpg,right,1510,true,high,NA,NA,NA,NA,NA,NA,NA,false
CTrGKohD,3p7qk0gj4wyyvhrnruxexlrqk8i2zm,3483fv8beiwyur56gr55p7um4d862i,CTrGKohD,2020-0188,2020-06-17,04:02:01,04:25:51,NA,incomplete,36,color,1,1,right,Blue_Plus_Stripes_3.jpg,Red_Plus_Dots_2.jpg,Blue_Triangle_Grid_4.jpg,right,1417,true,high,NA,NA,NA,NA,NA,NA,NA,false
CTrGKohD,3p7qk0gj4wyyvhrnruxexlrqk8i2zm,3483fv8beiwyur56gr55p7um4d862i,CTrGKohD,2020-0188,2020-06-17,04:02:01,04:25:51,NA,incomplete,37,color,1,0,left,Green_Circle_Stripes_2.jpg,Green_Triangle_Chess_4.jpg,Purple_Circle_Dots_3.jpg,left,1462,true,high,NA,NA,NA,NA,NA,NA,NA,false
CTrGKohD,3p7qk0gj4wyyvhrnruxexlrqk8i2zm,3483fv8beiwyur56gr55p7um4d862i,CTrGKohD,2020-0188,2020-06-17,04:02:01,04:25:51,NA,incomplete,38,color,1,1,right,Green_Plus_Stripes_4.jpg,Purple_Plus_Dots_2.jpg,Green_Circle_Chess_3.jpg,left,1075,false,high,NA,NA,NA,NA,NA,NA,NA,false
CTrGKohD,3p7qk0gj4wyyvhrnruxexlrqk8i2zm,3483fv8beiwyur56gr55p7um4d862i,CTrGKohD,2020-0188,2020-06-17,04:02:01,04:25:51,NA,incomplete,39,color,1,1,left,Blue_Star_Chess_1.jpg,Blue_Triangle_Stripes_3.jpg,Red_Star_Dots_2.jpg,right,1686,false,high,NA,NA,NA,NA,NA,NA,NA,false
CTrGKohD,3p7qk0gj4wyyvhrnruxexlrqk8i2zm,3483fv8beiwyur56gr55p7um4d862i,CTrGKohD,2020-0188,2020-06-17,04:02:01,04:25:51,NA,incomplete,40,shape,0,1,left,Purple_Triangle_Grid_3.jpg,Red_Triangle_Chess_1.jpg,Purple_Plus_Dots_2.jpg,right,1641,false,high,NA,NA,NA,NA,NA,NA,NA,false
CTrGKohD,3p7qk0gj4wyyvhrnruxexlrqk8i2zm,3483fv8beiwyur56gr55p7um4d862i,CTrGKohD,2020-0188,2020-06-17,04:02:01,04:25:51,NA,incomplete,41,shape,0,1,left,Green_Plus_Dots_1.jpg,Red_Plus_Stripes_3.jpg,Green_Star_Grid_2.jpg,left,1122,true,high,NA,NA,NA,NA,NA,NA,NA,false
CTrGKohD,3p7qk0gj4wyyvhrnruxexlrqk8i2zm,3483fv8beiwyur56gr55p7um4d862i,CTrGKohD,2020-0188,2020-06-17,04:02:01,04:25:51,NA,incomplete,42,shape,0,0,left,Green_Circle_Chess_3.jpg,Purple_Circle_Dots_4.jpg,Green_Star_Grid_2.jpg,left,1153,true,high,NA,NA,NA,NA,NA,NA,NA,false
CTrGKohD,3p7qk0gj4wyyvhrnruxexlrqk8i2zm,3483fv8beiwyur56gr55p7um4d862i,CTrGKohD,2020-0188,2020-06-17,04:02:01,04:25:51,NA,incomplete,43,shape,0,1,left,Purple_Plus_Grid_1.jpg,Green_Plus_Chess_3.jpg,Purple_Circle_Stripes_4.jpg,left,1508,true,high,NA,NA,NA,NA,NA,NA,NA,false
CTrGKohD,3p7qk0gj4wyyvhrnruxexlrqk8i2zm,3483fv8beiwyur56gr55p7um4d862i,CTrGKohD,2020-0188,2020-06-17,04:02:01,04:25:51,NA,incomplete,44,shape,0,1,right,Green_Circle_Grid_1.jpg,Green_Star_Dots_3.jpg,Purple_Circle_Stripes_4.jpg,right,1436,true,high,NA,NA,NA,NA,NA,NA,NA,false
CTrGKohD,3p7qk0gj4wyyvhrnruxexlrqk8i2zm,3483fv8beiwyur56gr55p7um4d862i,CTrGKohD,2020-0188,2020-06-17,04:02:01,04:25:51,NA,incomplete,45,shape,0,1,left,Green_Triangle_Grid_3.jpg,Red_Triangle_Dots_1.jpg,Green_Circle_Stripes_4.jpg,right,1685,false,high,NA,NA,NA,NA,NA,NA,NA,false
CTrGKohD,3p7qk0gj4wyyvhrnruxexlrqk8i2zm,3483fv8beiwyur56gr55p7um4d862i,CTrGKohD,2020-0188,2020-06-17,04:02:01,04:25:51,NA,incomplete,46,shape,0,1,left,Red_Star_Dots_4.jpg,Blue_Star_Stripes_2.jpg,Red_Circle_Grid_3.jpg,left,1389,true,high,NA,NA,NA,NA,NA,NA,NA,false
CTrGKohD,3p7qk0gj4wyyvhrnruxexlrqk8i2zm,3483fv8beiwyur56gr55p7um4d862i,CTrGKohD,2020-0188,2020-06-17,04:02:01,04:25:51,NA,incomplete,47,shape,0,1,right,Green_Plus_Dots_3.jpg,Green_Circle_Grid_4.jpg,Red_Plus_Chess_2.jpg,right,1123,true,high,NA,NA,NA,NA,NA,NA,NA,false
CTrGKohD,3p7qk0gj4wyyvhrnruxexlrqk8i2zm,3483fv8beiwyur56gr55p7um4d862i,CTrGKohD,2020-0188,2020-06-17,04:02:01,04:25:51,NA,incomplete,48,shape,0,0,left,Green_Plus_Chess_3.jpg,Purple_Plus_Stripes_4.jpg,Green_Triangle_Dots_2.jpg,left,1309,true,high,NA,NA,NA,NA,NA,NA,NA,false
CTrGKohD,3p7qk0gj4wyyvhrnruxexlrqk8i2zm,3483fv8beiwyur56gr55p7um4d862i,CTrGKohD,2020-0188,2020-06-17,04:02:01,04:25:51,NA,incomplete,49,shape,0,1,right,Red_Plus_Stripes_4.jpg,Red_Triangle_Grid_1.jpg,Purple_Plus_Chess_2.jpg,left,1346,false,high,NA,NA,NA,NA,NA,NA,NA,false
CTrGKohD,3p7qk0gj4wyyvhrnruxexlrqk8i2zm,3483fv8beiwyur56gr55p7um4d862i,CTrGKohD,2020-0188,2020-06-17,04:02:01,04:25:51,NA,incomplete,50,color,1,1,left,Purple_Circle_Dots_2.jpg,Purple_Plus_Stripes_1.jpg,Blue_Circle_Chess_3.jpg,right,1257,false,high,NA,NA,NA,NA,NA,NA,NA,false
CTrGKohD,3p7qk0gj4wyyvhrnruxexlrqk8i2zm,3483fv8beiwyur56gr55p7um4d862i,CTrGKohD,2020-0188,2020-06-17,04:02:01,04:25:51,NA,incomplete,51,color,1,1,right,Green_Circle_Stripes_4.jpg,Blue_Circle_Grid_1.jpg,Green_Triangle_Chess_3.jpg,left,1221,false,high,NA,NA,NA,NA,NA,NA,NA,false
CTrGKohD,3p7qk0gj4wyyvhrnruxexlrqk8i2zm,3483fv8beiwyur56gr55p7um4d862i,CTrGKohD,2020-0188,2020-06-17,04:02:01,04:25:51,NA,incomplete,52,color,1,1,left,Blue_Circle_Chess_2.jpg,Blue_Plus_Dots_4.jpg,Green_Circle_Grid_1.jpg,left,1424,true,high,NA,NA,NA,NA,NA,NA,NA,false
CTrGKohD,3p7qk0gj4wyyvhrnruxexlrqk8i2zm,3483fv8beiwyur56gr55p7um4d862i,CTrGKohD,2020-0188,2020-06-17,04:02:01,04:25:51,NA,incomplete,53,color,1,1,right,Blue_Triangle_Grid_3.jpg,Red_Triangle_Dots_1.jpg,Blue_Circle_Chess_2.jpg,right,1256,true,high,NA,NA,NA,NA,NA,NA,NA,false
CTrGKohD,3p7qk0gj4wyyvhrnruxexlrqk8i2zm,3483fv8beiwyur56gr55p7um4d862i,CTrGKohD,2020-0188,2020-06-17,04:02:01,04:25:51,NA,incomplete,54,color,1,1,right,Green_Star_Dots_2.jpg,Red_Star_Grid_1.jpg,Green_Plus_Stripes_4.jpg,right,923,true,high,NA,NA,NA,NA,NA,NA,NA,false
CTrGKohD,3p7qk0gj4wyyvhrnruxexlrqk8i2zm,3483fv8beiwyur56gr55p7um4d862i,CTrGKohD,2020-0188,2020-06-17,04:02:01,04:25:51,NA,incomplete,55,color,1,0,right,Green_Circle_Dots_4.jpg,Purple_Circle_Stripes_1.jpg,Green_Star_Chess_3.jpg,right,832,true,high,NA,NA,NA,NA,NA,NA,NA,false
CTrGKohD,3p7qk0gj4wyyvhrnruxexlrqk8i2zm,3483fv8beiwyur56gr55p7um4d862i,CTrGKohD,2020-0188,2020-06-17,04:02:01,04:25:51,NA,incomplete,56,color,1,1,left,Blue_Star_Chess_1.jpg,Blue_Triangle_Dots_2.jpg,Red_Star_Grid_4.jpg,right,1138,false,high,NA,NA,NA,NA,NA,NA,NA,false
CTrGKohD,3p7qk0gj4wyyvhrnruxexlrqk8i2zm,3483fv8beiwyur56gr55p7um4d862i,CTrGKohD,2020-0188,2020-06-17,04:02:01,04:25:51,NA,incomplete,57,color,1,1,left,Purple_Triangle_Chess_4.jpg,Purple_Circle_Dots_3.jpg,Blue_Triangle_Grid_2.jpg,left,1097,true,high,NA,NA,NA,NA,NA,NA,NA,false
CTrGKohD,3p7qk0gj4wyyvhrnruxexlrqk8i2zm,3483fv8beiwyur56gr55p7um4d862i,CTrGKohD,2020-0188,2020-06-17,04:02:01,04:25:51,NA,incomplete,58,color,1,1,right,Blue_Star_Stripes_3.jpg,Green_Star_Dots_2.jpg,Blue_Plus_Grid_4.jpg,right,1275,true,high,NA,NA,NA,NA,NA,NA,NA,false
CTrGKohD,3p7qk0gj4wyyvhrnruxexlrqk8i2zm,3483fv8beiwyur56gr55p7um4d862i,CTrGKohD,2020-0188,2020-06-17,04:02:01,04:25:51,NA,incomplete,59,color,1,1,left,Purple_Plus_Chess_3.jpg,Purple_Circle_Stripes_2.jpg,Red_Plus_Grid_4.jpg,left,1184,true,high,NA,NA,NA,NA,NA,NA,NA,false
CTrGKohD,3p7qk0gj4wyyvhrnruxexlrqk8i2zm,3483fv8beiwyur56gr55p7um4d862i,CTrGKohD,2020-0188,2020-06-17,04:02:01,04:25:51,NA,incomplete,60,shape,0,1,right,Green_Circle_Stripes_2.jpg,Green_Star_Dots_1.jpg,Purple_Circle_Chess_3.jpg,left,1633,false,high,NA,NA,NA,NA,NA,NA,NA,false
CTrGKohD,3p7qk0gj4wyyvhrnruxexlrqk8i2zm,3483fv8beiwyur56gr55p7um4d862i,CTrGKohD,2020-0188,2020-06-17,04:02:01,04:25:51,NA,incomplete,61,shape,0,1,left,Red_Star_Chess_4.jpg,Green_Star_Dots_3.jpg,Red_Circle_Stripes_1.jpg,left,1389,true,high,NA,NA,NA,NA,NA,NA,NA,false
CTrGKohD,3p7qk0gj4wyyvhrnruxexlrqk8i2zm,3483fv8beiwyur56gr55p7um4d862i,CTrGKohD,2020-0188,2020-06-17,04:02:01,04:25:51,NA,incomplete,62,shape,0,0,left,Purple_Star_Chess_4.jpg,Red_Star_Grid_1.jpg,Purple_Circle_Stripes_3.jpg,right,974,false,high,NA,NA,NA,NA,NA,NA,NA,false
CTrGKohD,3p7qk0gj4wyyvhrnruxexlrqk8i2zm,3483fv8beiwyur56gr55p7um4d862i,CTrGKohD,2020-0188,2020-06-17,04:02:01,04:25:51,NA,incomplete,63,shape,0,1,right,Blue_Circle_Dots_1.jpg,Blue_Plus_Grid_4.jpg,Green_Circle_Stripes_2.jpg,none,0,false,high,NA,NA,NA,NA,NA,NA,NA,false
CTrGKohD,3p7qk0gj4wyyvhrnruxexlrqk8i2zm,3483fv8beiwyur56gr55p7um4d862i,CTrGKohD,2020-0188,2020-06-17,04:02:01,04:25:51,NA,incomplete,64,shape,0,0,right,Blue_Plus_Grid_2.jpg,Blue_Circle_Dots_4.jpg,Red_Plus_Chess_3.jpg,right,1233,true,high,NA,NA,NA,NA,NA,NA,NA,false
CTrGKohD,3p7qk0gj4wyyvhrnruxexlrqk8i2zm,3483fv8beiwyur56gr55p7um4d862i,CTrGKohD,2020-0188,2020-06-17,04:02:01,04:25:51,NA,incomplete,65,shape,0,0,left,Blue_Triangle_Dots_2.jpg,Purple_Triangle_Stripes_4.jpg,Blue_Plus_Grid_1.jpg,right,969,false,high,NA,NA,NA,NA,NA,NA,NA,false
CTrGKohD,3p7qk0gj4wyyvhrnruxexlrqk8i2zm,3483fv8beiwyur56gr55p7um4d862i,CTrGKohD,2020-0188,2020-06-17,04:02:01,04:25:51,NA,incomplete,66,shape,0,1,left,Green_Plus_Chess_3.jpg,Red_Plus_Grid_4.jpg,Green_Circle_Stripes_1.jpg,right,951,false,high,NA,NA,NA,NA,NA,NA,NA,false
CTrGKohD,3p7qk0gj4wyyvhrnruxexlrqk8i2zm,3483fv8beiwyur56gr55p7um4d862i,CTrGKohD,2020-0188,2020-06-17,04:02:01,04:25:51,NA,incomplete,67,shape,0,1,left,Blue_Plus_Chess_2.jpg,Purple_Plus_Stripes_4.jpg,Blue_Circle_Grid_1.jpg,left,1017,true,high,NA,NA,NA,NA,NA,NA,NA,false
CTrGKohD,3p7qk0gj4wyyvhrnruxexlrqk8i2zm,3483fv8beiwyur56gr55p7um4d862i,CTrGKohD,2020-0188,2020-06-17,04:02:01,04:25:51,NA,incomplete,68,shape,0,1,right,Red_Plus_Grid_4.jpg,Red_Star_Stripes_1.jpg,Blue_Plus_Dots_2.jpg,right,1531,true,high,NA,NA,NA,NA,NA,NA,NA,false
CTrGKohD,3p7qk0gj4wyyvhrnruxexlrqk8i2zm,3483fv8beiwyur56gr55p7um4d862i,CTrGKohD,2020-0188,2020-06-17,04:02:01,04:25:51,NA,incomplete,69,shape,0,1,right,Red_Triangle_Dots_1.jpg,Red_Plus_Chess_3.jpg,Purple_Triangle_Grid_2.jpg,right,1468,true,high,NA,NA,NA,NA,NA,NA,NA,false
CTrGKohD,3p7qk0gj4wyyvhrnruxexlrqk8i2zm,3483fv8beiwyur56gr55p7um4d862i,CTrGKohD,2020-0188,2020-06-17,04:02:01,04:25:51,NA,incomplete,70,color,1,0,left,Red_Circle_Grid_4.jpg,Red_Plus_Stripes_3.jpg,Purple_Circle_Chess_2.jpg,right,1098,false,high,NA,NA,NA,NA,NA,NA,NA,false
CTrGKohD,3p7qk0gj4wyyvhrnruxexlrqk8i2zm,3483fv8beiwyur56gr55p7um4d862i,CTrGKohD,2020-0188,2020-06-17,04:02:01,04:25:51,NA,incomplete,71,color,1,1,right,Purple_Plus_Grid_1.jpg,Blue_Plus_Dots_2.jpg,Purple_Triangle_Chess_4.jpg,left,1291,false,high,NA,NA,NA,NA,NA,NA,NA,false
CTrGKohD,3p7qk0gj4wyyvhrnruxexlrqk8i2zm,3483fv8beiwyur56gr55p7um4d862i,CTrGKohD,2020-0188,2020-06-17,04:02:01,04:25:51,NA,incomplete,72,color,1,1,right,Green_Circle_Grid_3.jpg,Purple_Circle_Chess_2.jpg,Green_Triangle_Stripes_1.jpg,right,1242,true,high,NA,NA,NA,NA,NA,NA,NA,false
CTrGKohD,3p7qk0gj4wyyvhrnruxexlrqk8i2zm,3483fv8beiwyur56gr55p7um4d862i,CTrGKohD,2020-0188,2020-06-17,04:02:01,04:25:51,NA,incomplete,73,color,1,0,right,Green_Circle_Dots_4.jpg,Red_Circle_Stripes_3.jpg,Green_Star_Chess_1.jpg,right,1088,true,high,NA,NA,NA,NA,NA,NA,NA,false
CTrGKohD,3p7qk0gj4wyyvhrnruxexlrqk8i2zm,3483fv8beiwyur56gr55p7um4d862i,CTrGKohD,2020-0188,2020-06-17,04:02:01,04:25:51,NA,incomplete,74,color,1,1,left,Blue_Circle_Grid_4.jpg,Blue_Triangle_Chess_1.jpg,Green_Circle_Stripes_3.jpg,left,1296,true,high,NA,NA,NA,NA,NA,NA,NA,false
CTrGKohD,3p7qk0gj4wyyvhrnruxexlrqk8i2zm,3483fv8beiwyur56gr55p7um4d862i,CTrGKohD,2020-0188,2020-06-17,04:02:01,04:25:51,NA,incomplete,75,color,1,1,right,Purple_Triangle_Grid_3.jpg,Blue_Triangle_Chess_2.jpg,Purple_Star_Stripes_4.jpg,right,1248,true,high,NA,NA,NA,NA,NA,NA,NA,false
CTrGKohD,3p7qk0gj4wyyvhrnruxexlrqk8i2zm,3483fv8beiwyur56gr55p7um4d862i,CTrGKohD,2020-0188,2020-06-17,04:02:01,04:25:51,NA,incomplete,76,color,1,1,left,Red_Plus_Dots_4.jpg,Red_Triangle_Stripes_1.jpg,Green_Plus_Chess_3.jpg,left,1250,true,high,NA,NA,NA,NA,NA,NA,NA,false
CTrGKohD,3p7qk0gj4wyyvhrnruxexlrqk8i2zm,3483fv8beiwyur56gr55p7um4d862i,CTrGKohD,2020-0188,2020-06-17,04:02:01,04:25:51,NA,incomplete,77,color,1,1,right,Red_Plus_Stripes_3.jpg,Green_Plus_Dots_4.jpg,Red_Triangle_Chess_2.jpg,right,1313,true,high,NA,NA,NA,NA,NA,NA,NA,false
CTrGKohD,3p7qk0gj4wyyvhrnruxexlrqk8i2zm,3483fv8beiwyur56gr55p7um4d862i,CTrGKohD,2020-0188,2020-06-17,04:02:01,04:25:51,NA,incomplete,78,color,1,1,right,Blue_Plus_Dots_4.jpg,Purple_Plus_Stripes_3.jpg,Blue_Star_Chess_1.jpg,right,1060,true,high,NA,NA,NA,NA,NA,NA,NA,false
CTrGKohD,3p7qk0gj4wyyvhrnruxexlrqk8i2zm,3483fv8beiwyur56gr55p7um4d862i,CTrGKohD,2020-0188,2020-06-17,04:02:01,04:25:51,NA,incomplete,79,color,1,0,right,Green_Triangle_Chess_4.jpg,Blue_Triangle_Dots_1.jpg,Green_Circle_Grid_2.jpg,right,1231,true,high,NA,NA,NA,NA,NA,NA,NA,false
CTrGKohD,3p7qk0gj4wyyvhrnruxexlrqk8i2zm,3483fv8beiwyur56gr55p7um4d862i,CTrGKohD,2020-0188,2020-06-17,04:02:01,04:25:51,NA,incomplete,80,shape,0,1,left,Purple_Triangle_Stripes_2.jpg,Green_Triangle_Dots_4.jpg,Purple_Plus_Chess_1.jpg,left,1329,true,high,NA,NA,NA,NA,NA,NA,NA,false
CTrGKohD,3p7qk0gj4wyyvhrnruxexlrqk8i2zm,3483fv8beiwyur56gr55p7um4d862i,CTrGKohD,2020-0188,2020-06-17,04:02:01,04:25:51,NA,incomplete,81,shape,0,1,left,Purple_Plus_Stripes_2.jpg,Red_Plus_Chess_3.jpg,Purple_Circle_Grid_4.jpg,left,1143,true,high,NA,NA,NA,NA,NA,NA,NA,false
CTrGKohD,3p7qk0gj4wyyvhrnruxexlrqk8i2zm,3483fv8beiwyur56gr55p7um4d862i,CTrGKohD,2020-0188,2020-06-17,04:02:01,04:25:51,NA,incomplete,82,shape,0,0,right,Green_Circle_Dots_4.jpg,Green_Plus_Chess_1.jpg,Red_Circle_Grid_3.jpg,right,1268,true,high,NA,NA,NA,NA,NA,NA,NA,false
CTrGKohD,3p7qk0gj4wyyvhrnruxexlrqk8i2zm,3483fv8beiwyur56gr55p7um4d862i,CTrGKohD,2020-0188,2020-06-17,04:02:01,04:25:51,NA,incomplete,83,shape,0,1,left,Purple_Plus_Stripes_4.jpg,Green_Plus_Dots_1.jpg,Purple_Circle_Grid_2.jpg,right,1682,false,high,NA,NA,NA,NA,NA,NA,NA,false
CTrGKohD,3p7qk0gj4wyyvhrnruxexlrqk8i2zm,3483fv8beiwyur56gr55p7um4d862i,CTrGKohD,2020-0188,2020-06-17,04:02:01,04:25:51,NA,incomplete,84,shape,0,0,right,Purple_Triangle_Chess_4.jpg,Purple_Star_Stripes_2.jpg,Blue_Triangle_Grid_1.jpg,right,1786,true,high,NA,NA,NA,NA,NA,NA,NA,false
CTrGKohD,3p7qk0gj4wyyvhrnruxexlrqk8i2zm,3483fv8beiwyur56gr55p7um4d862i,CTrGKohD,2020-0188,2020-06-17,04:02:01,04:25:51,NA,incomplete,85,shape,0,1,left,Blue_Circle_Chess_2.jpg,Green_Circle_Dots_4.jpg,Blue_Triangle_Stripes_3.jpg,none,0,false,high,NA,NA,NA,NA,NA,NA,NA,false
CTrGKohD,3p7qk0gj4wyyvhrnruxexlrqk8i2zm,3483fv8beiwyur56gr55p7um4d862i,CTrGKohD,2020-0188,2020-06-17,04:02:01,04:25:51,NA,incomplete,86,shape,0,1,left,Red_Circle_Chess_3.jpg,Blue_Circle_Dots_4.jpg,Red_Star_Grid_2.jpg,left,1345,true,high,NA,NA,NA,NA,NA,NA,NA,false
CTrGKohD,3p7qk0gj4wyyvhrnruxexlrqk8i2zm,3483fv8beiwyur56gr55p7um4d862i,CTrGKohD,2020-0188,2020-06-17,04:02:01,04:25:51,NA,incomplete,87,shape,0,1,left,Red_Circle_Dots_2.jpg,Purple_Circle_Chess_3.jpg,Red_Triangle_Grid_1.jpg,left,1035,true,high,NA,NA,NA,NA,NA,NA,NA,false
CTrGKohD,3p7qk0gj4wyyvhrnruxexlrqk8i2zm,3483fv8beiwyur56gr55p7um4d862i,CTrGKohD,2020-0188,2020-06-17,04:02:01,04:25:51,NA,incomplete,88,shape,0,1,left,Green_Star_Dots_4.jpg,Blue_Star_Chess_2.jpg,Green_Plus_Grid_3.jpg,left,1218,true,high,NA,NA,NA,NA,NA,NA,NA,false
CTrGKohD,3p7qk0gj4wyyvhrnruxexlrqk8i2zm,3483fv8beiwyur56gr55p7um4d862i,CTrGKohD,2020-0188,2020-06-17,04:02:01,04:25:51,NA,incomplete,89,shape,0,1,right,Red_Star_Chess_1.jpg,Red_Plus_Stripes_3.jpg,Purple_Star_Dots_4.jpg,right,1649,true,high,NA,NA,NA,NA,NA,NA,NA,false
CTrGKohD,3p7qk0gj4wyyvhrnruxexlrqk8i2zm,3483fv8beiwyur56gr55p7um4d862i,CTrGKohD,2020-0188,2020-06-17,04:02:01,04:25:51,NA,incomplete,90,color,1,1,left,Red_Star_Grid_1.jpg,Red_Triangle_Dots_3.jpg,Blue_Star_Chess_4.jpg,right,1448,false,high,NA,NA,NA,NA,NA,NA,NA,false
CTrGKohD,3p7qk0gj4wyyvhrnruxexlrqk8i2zm,3483fv8beiwyur56gr55p7um4d862i,CTrGKohD,2020-0188,2020-06-17,04:02:01,04:25:51,NA,incomplete,91,color,1,1,left,Red_Triangle_Grid_4.jpg,Red_Circle_Chess_2.jpg,Purple_Triangle_Stripes_3.jpg,right,1436,false,high,NA,NA,NA,NA,NA,NA,NA,false
CTrGKohD,3p7qk0gj4wyyvhrnruxexlrqk8i2zm,3483fv8beiwyur56gr55p7um4d862i,CTrGKohD,2020-0188,2020-06-17,04:02:01,04:25:51,NA,incomplete,92,color,1,1,right,Blue_Plus_Chess_4.jpg,Red_Plus_Dots_1.jpg,Blue_Triangle_Grid_3.jpg,right,1365,true,high,NA,NA,NA,NA,NA,NA,NA,false
CTrGKohD,3p7qk0gj4wyyvhrnruxexlrqk8i2zm,3483fv8beiwyur56gr55p7um4d862i,CTrGKohD,2020-0188,2020-06-17,04:02:01,04:25:51,NA,incomplete,93,color,1,1,left,Red_Triangle_Chess_1.jpg,Red_Plus_Grid_3.jpg,Purple_Triangle_Stripes_4.jpg,left,1386,true,high,NA,NA,NA,NA,NA,NA,NA,false
CTrGKohD,3p7qk0gj4wyyvhrnruxexlrqk8i2zm,3483fv8beiwyur56gr55p7um4d862i,CTrGKohD,2020-0188,2020-06-17,04:02:01,04:25:51,NA,incomplete,94,color,1,0,left,Red_Circle_Dots_4.jpg,Red_Plus_Grid_3.jpg,Green_Circle_Chess_2.jpg,left,1076,true,high,NA,NA,NA,NA,NA,NA,NA,false
CTrGKohD,3p7qk0gj4wyyvhrnruxexlrqk8i2zm,3483fv8beiwyur56gr55p7um4d862i,CTrGKohD,2020-0188,2020-06-17,04:02:01,04:25:51,NA,incomplete,95,color,1,1,left,Purple_Star_Dots_4.jpg,Purple_Plus_Chess_1.jpg,Green_Star_Stripes_2.jpg,left,1149,true,high,NA,NA,NA,NA,NA,NA,NA,false
CTrGKohD,3p7qk0gj4wyyvhrnruxexlrqk8i2zm,3483fv8beiwyur56gr55p7um4d862i,CTrGKohD,2020-0188,2020-06-17,04:02:01,04:25:51,NA,incomplete,96,color,1,1,right,Purple_Star_Stripes_3.jpg,Green_Star_Grid_2.jpg,Purple_Circle_Dots_4.jpg,right,1245,true,high,NA,NA,NA,NA,NA,NA,NA,false
CTrGKohD,3p7qk0gj4wyyvhrnruxexlrqk8i2zm,3483fv8beiwyur56gr55p7um4d862i,CTrGKohD,2020-0188,2020-06-17,04:02:01,04:25:51,NA,incomplete,97,color,1,1,left,Red_Plus_Dots_3.jpg,Red_Star_Stripes_4.jpg,Green_Plus_Grid_2.jpg,right,1906,false,high,NA,NA,NA,NA,NA,NA,NA,false
CTrGKohD,3p7qk0gj4wyyvhrnruxexlrqk8i2zm,3483fv8beiwyur56gr55p7um4d862i,CTrGKohD,2020-0188,2020-06-17,04:02:01,04:25:51,NA,incomplete,98,color,1,1,left,Red_Star_Grid_1.jpg,Red_Plus_Dots_4.jpg,Purple_Star_Chess_2.jpg,none,0,false,high,NA,NA,NA,NA,NA,NA,NA,false
CTrGKohD,3p7qk0gj4wyyvhrnruxexlrqk8i2zm,3483fv8beiwyur56gr55p7um4d862i,CTrGKohD,2020-0188,2020-06-17,04:02:01,04:25:51,NA,incomplete,99,color,1,1,left,Green_Circle_Chess_4.jpg,Green_Triangle_Grid_3.jpg,Red_Circle_Stripes_2.jpg,right,1518,false,high,NA,NA,NA,NA,NA,NA,NA,false
CTrGKohD,3p7qk0gj4wyyvhrnruxexlrqk8i2zm,3483fv8beiwyur56gr55p7um4d862i,CTrGKohD,2020-0188,2020-06-17,04:02:01,04:25:51,NA,incomplete,100,shape,0,1,right,Green_Star_Dots_2.jpg,Green_Triangle_Grid_3.jpg,Blue_Star_Stripes_4.jpg,left,829,false,high,NA,NA,NA,NA,NA,NA,NA,false
CTrGKohD,3p7qk0gj4wyyvhrnruxexlrqk8i2zm,3483fv8beiwyur56gr55p7um4d862i,CTrGKohD,2020-0188,2020-06-17,04:02:01,04:25:51,NA,incomplete,101,shape,0,0,right,Blue_Circle_Stripes_3.jpg,Blue_Star_Dots_2.jpg,Green_Circle_Chess_4.jpg,left,1400,false,high,NA,NA,NA,NA,NA,NA,NA,false
CTrGKohD,3p7qk0gj4wyyvhrnruxexlrqk8i2zm,3483fv8beiwyur56gr55p7um4d862i,CTrGKohD,2020-0188,2020-06-17,04:02:01,04:25:51,NA,incomplete,102,shape,0,1,right,Purple_Plus_Chess_2.jpg,Purple_Star_Dots_3.jpg,Red_Plus_Stripes_1.jpg,left,980,false,high,NA,NA,NA,NA,NA,NA,NA,false
CTrGKohD,3p7qk0gj4wyyvhrnruxexlrqk8i2zm,3483fv8beiwyur56gr55p7um4d862i,CTrGKohD,2020-0188,2020-06-17,04:02:01,04:25:51,NA,incomplete,103,shape,0,1,left,Blue_Star_Chess_2.jpg,Purple_Star_Dots_1.jpg,Blue_Plus_Stripes_3.jpg,right,1143,false,high,NA,NA,NA,NA,NA,NA,NA,false
CTrGKohD,3p7qk0gj4wyyvhrnruxexlrqk8i2zm,3483fv8beiwyur56gr55p7um4d862i,CTrGKohD,2020-0188,2020-06-17,04:02:01,04:25:51,NA,incomplete,104,shape,0,1,right,Blue_Star_Stripes_2.jpg,Blue_Circle_Dots_1.jpg,Red_Star_Grid_4.jpg,right,1277,true,high,NA,NA,NA,NA,NA,NA,NA,false
CTrGKohD,3p7qk0gj4wyyvhrnruxexlrqk8i2zm,3483fv8beiwyur56gr55p7um4d862i,CTrGKohD,2020-0188,2020-06-17,04:02:01,04:25:51,NA,incomplete,105,shape,0,1,left,Green_Plus_Dots_2.jpg,Purple_Plus_Grid_4.jpg,Green_Circle_Stripes_3.jpg,left,1101,true,high,NA,NA,NA,NA,NA,NA,NA,false
CTrGKohD,3p7qk0gj4wyyvhrnruxexlrqk8i2zm,3483fv8beiwyur56gr55p7um4d862i,CTrGKohD,2020-0188,2020-06-17,04:02:01,04:25:51,NA,incomplete,106,shape,0,1,left,Purple_Star_Chess_1.jpg,Green_Star_Dots_2.jpg,Purple_Plus_Grid_3.jpg,left,1279,true,high,NA,NA,NA,NA,NA,NA,NA,false
CTrGKohD,3p7qk0gj4wyyvhrnruxexlrqk8i2zm,3483fv8beiwyur56gr55p7um4d862i,CTrGKohD,2020-0188,2020-06-17,04:02:01,04:25:51,NA,incomplete,107,shape,0,0,left,Red_Circle_Stripes_4.jpg,Green_Circle_Dots_3.jpg,Red_Triangle_Grid_1.jpg,left,1040,true,high,NA,NA,NA,NA,NA,NA,NA,false
CTrGKohD,3p7qk0gj4wyyvhrnruxexlrqk8i2zm,3483fv8beiwyur56gr55p7um4d862i,CTrGKohD,2020-0188,2020-06-17,04:02:01,04:25:51,NA,incomplete,108,shape,0,1,left,Purple_Circle_Grid_2.jpg,Blue_Circle_Stripes_3.jpg,Purple_Star_Dots_4.jpg,right,1108,false,high,NA,NA,NA,NA,NA,NA,NA,false
CTrGKohD,3p7qk0gj4wyyvhrnruxexlrqk8i2zm,3483fv8beiwyur56gr55p7um4d862i,CTrGKohD,2020-0188,2020-06-17,04:02:01,04:25:51,NA,incomplete,109,shape,0,1,left,Blue_Triangle_Grid_1.jpg,Purple_Triangle_Dots_3.jpg,Blue_Plus_Chess_2.jpg,right,1762,false,high,NA,NA,NA,NA,NA,NA,NA,false
CTrGKohD,3p7qk0gj4wyyvhrnruxexlrqk8i2zm,3483fv8beiwyur56gr55p7um4d862i,CTrGKohD,2020-0188,2020-06-17,04:02:01,04:25:51,NA,incomplete,110,color,1,1,left,Blue_Star_Dots_4.jpg,Blue_Circle_Stripes_3.jpg,Green_Star_Grid_2.jpg,left,1581,true,high,NA,NA,NA,NA,NA,NA,NA,false
CTrGKohD,3p7qk0gj4wyyvhrnruxexlrqk8i2zm,3483fv8beiwyur56gr55p7um4d862i,CTrGKohD,2020-0188,2020-06-17,04:02:01,04:25:51,NA,incomplete,111,color,1,1,left,Red_Circle_Grid_4.jpg,Red_Plus_Dots_1.jpg,Purple_Circle_Stripes_3.jpg,right,1665,false,high,NA,NA,NA,NA,NA,NA,NA,false
CTrGKohD,3p7qk0gj4wyyvhrnruxexlrqk8i2zm,3483fv8beiwyur56gr55p7um4d862i,CTrGKohD,2020-0188,2020-06-17,04:02:01,04:25:51,NA,incomplete,112,color,1,1,left,Purple_Plus_Chess_2.jpg,Purple_Star_Stripes_4.jpg,Green_Plus_Dots_3.jpg,left,1232,true,high,NA,NA,NA,NA,NA,NA,NA,false
CTrGKohD,3p7qk0gj4wyyvhrnruxexlrqk8i2zm,3483fv8beiwyur56gr55p7um4d862i,CTrGKohD,2020-0188,2020-06-17,04:02:01,04:25:51,NA,incomplete,113,color,1,1,left,Green_Circle_Dots_4.jpg,Green_Triangle_Chess_3.jpg,Red_Circle_Grid_2.jpg,left,968,true,high,NA,NA,NA,NA,NA,NA,NA,false
CTrGKohD,3p7qk0gj4wyyvhrnruxexlrqk8i2zm,3483fv8beiwyur56gr55p7um4d862i,CTrGKohD,2020-0188,2020-06-17,04:02:01,04:25:51,NA,incomplete,114,color,1,0,left,Blue_Star_Chess_1.jpg,Blue_Plus_Stripes_3.jpg,Red_Star_Dots_4.jpg,left,1010,true,high,NA,NA,NA,NA,NA,NA,NA,false
CTrGKohD,3p7qk0gj4wyyvhrnruxexlrqk8i2zm,3483fv8beiwyur56gr55p7um4d862i,CTrGKohD,2020-0188,2020-06-17,04:02:01,04:25:51,NA,incomplete,115,color,1,1,left,Green_Star_Dots_1.jpg,Green_Plus_Chess_3.jpg,Red_Star_Stripes_4.jpg,left,1533,true,high,NA,NA,NA,NA,NA,NA,NA,false
CTrGKohD,3p7qk0gj4wyyvhrnruxexlrqk8i2zm,3483fv8beiwyur56gr55p7um4d862i,CTrGKohD,2020-0188,2020-06-17,04:02:01,04:25:51,NA,incomplete,116,color,1,1,left,Green_Plus_Chess_3.jpg,Green_Triangle_Dots_1.jpg,Purple_Plus_Stripes_4.jpg,left,1229,true,high,NA,NA,NA,NA,NA,NA,NA,false
CTrGKohD,3p7qk0gj4wyyvhrnruxexlrqk8i2zm,3483fv8beiwyur56gr55p7um4d862i,CTrGKohD,2020-0188,2020-06-17,04:02:01,04:25:51,NA,incomplete,117,color,1,0,right,Blue_Circle_Stripes_1.jpg,Green_Circle_Dots_4.jpg,Blue_Star_Chess_3.jpg,right,1190,true,high,NA,NA,NA,NA,NA,NA,NA,false
CTrGKohD,3p7qk0gj4wyyvhrnruxexlrqk8i2zm,3483fv8beiwyur56gr55p7um4d862i,CTrGKohD,2020-0188,2020-06-17,04:02:01,04:25:51,NA,incomplete,118,color,1,1,left,Green_Plus_Chess_3.jpg,Green_Triangle_Dots_2.jpg,Red_Plus_Stripes_4.jpg,left,1229,true,high,NA,NA,NA,NA,NA,NA,NA,false
CTrGKohD,3p7qk0gj4wyyvhrnruxexlrqk8i2zm,3483fv8beiwyur56gr55p7um4d862i,CTrGKohD,2020-0188,2020-06-17,04:02:01,04:25:51,NA,incomplete,119,color,1,1,left,Green_Triangle_Chess_3.jpg,Green_Plus_Stripes_4.jpg,Blue_Triangle_Grid_1.jpg,left,1057,true,high,NA,NA,NA,NA,NA,NA,NA,false
CTrGKohD,3p7qk0gj4wyyvhrnruxexlrqk8i2zm,3483fv8beiwyur56gr55p7um4d862i,CTrGKohD,2020-0188,2020-06-17,04:02:01,04:25:51,NA,incomplete,120,gender,2,1,left,A_F_16.jpg,C_F_11.jpg,A_M_04.jpg,NA,NA,NA,high,NA,NA,NA,NA,NA,NA,NA,false
CTrGKohD,3p7qk0gj4wyyvhrnruxexlrqk8i2zm,3483fv8beiwyur56gr55p7um4d862i,CTrGKohD,2020-0188,2020-06-17,04:02:01,04:25:51,NA,incomplete,121,gender,2,1,left,A_F_09.jpg,C_F_11.jpg,A_M_15.jpg,left,1714,true,high,NA,NA,NA,NA,NA,NA,NA,false
CTrGKohD,3p7qk0gj4wyyvhrnruxexlrqk8i2zm,3483fv8beiwyur56gr55p7um4d862i,CTrGKohD,2020-0188,2020-06-17,04:02:01,04:25:51,NA,incomplete,122,gender,2,1,right,A_M_02.jpg,A_F_16.jpg,C_M_04.jpg,right,1683,true,high,NA,NA,NA,NA,NA,NA,NA,false
CTrGKohD,3p7qk0gj4wyyvhrnruxexlrqk8i2zm,3483fv8beiwyur56gr55p7um4d862i,CTrGKohD,2020-0188,2020-06-17,04:02:01,04:25:51,NA,incomplete,123,gender,2,1,left,C_M_14.jpg,A_M_08.jpg,C_F_11.jpg,right,1827,false,high,NA,NA,NA,NA,NA,NA,NA,false
CTrGKohD,3p7qk0gj4wyyvhrnruxexlrqk8i2zm,3483fv8beiwyur56gr55p7um4d862i,CTrGKohD,2020-0188,2020-06-17,04:02:01,04:25:51,NA,incomplete,124,gender,2,1,left,A_F_01.jpg,C_F_07.jpg,A_M_06.jpg,left,1568,true,high,NA,NA,NA,NA,NA,NA,NA,false
CTrGKohD,3p7qk0gj4wyyvhrnruxexlrqk8i2zm,3483fv8beiwyur56gr55p7um4d862i,CTrGKohD,2020-0188,2020-06-17,04:02:01,04:25:51,NA,incomplete,125,gender,2,1,left,A_M_14.jpg,C_M_12.jpg,A_F_03.jpg,none,0,false,high,NA,NA,NA,NA,NA,NA,NA,false
CTrGKohD,3p7qk0gj4wyyvhrnruxexlrqk8i2zm,3483fv8beiwyur56gr55p7um4d862i,CTrGKohD,2020-0188,2020-06-17,04:02:01,04:25:51,NA,incomplete,126,gender,2,1,right,C_M_05.jpg,C_F_13.jpg,A_M_03.jpg,right,1795,true,high,NA,NA,NA,NA,NA,NA,NA,false
CTrGKohD,3p7qk0gj4wyyvhrnruxexlrqk8i2zm,3483fv8beiwyur56gr55p7um4d862i,CTrGKohD,2020-0188,2020-06-17,04:02:01,04:25:51,NA,incomplete,127,gender,2,1,right,C_F_15.jpg,C_M_16.jpg,A_F_07.jpg,right,1513,true,high,NA,NA,NA,NA,NA,NA,NA,false
CTrGKohD,3p7qk0gj4wyyvhrnruxexlrqk8i2zm,3483fv8beiwyur56gr55p7um4d862i,CTrGKohD,2020-0188,2020-06-17,04:02:01,04:25:51,NA,incomplete,128,gender,2,1,right,C_M_06.jpg,C_F_16.jpg,A_M_10.jpg,right,1576,true,high,NA,NA,NA,NA,NA,NA,NA,false
CTrGKohD,3p7qk0gj4wyyvhrnruxexlrqk8i2zm,3483fv8beiwyur56gr55p7um4d862i,CTrGKohD,2020-0188,2020-06-17,04:02:01,04:25:51,NA,incomplete,129,gender,2,1,right,C_F_11.jpg,C_M_12.jpg,A_F_14.jpg,right,1815,true,high,NA,NA,NA,NA,NA,NA,NA,false
CTrGKohD,3p7qk0gj4wyyvhrnruxexlrqk8i2zm,3483fv8beiwyur56gr55p7um4d862i,CTrGKohD,2020-0188,2020-06-17,04:02:01,04:25:51,NA,incomplete,130,gender,2,1,right,A_M_02.jpg,A_F_06.jpg,C_M_09.jpg,right,1130,true,high,NA,NA,NA,NA,NA,NA,NA,false
CTrGKohD,3p7qk0gj4wyyvhrnruxexlrqk8i2zm,3483fv8beiwyur56gr55p7um4d862i,CTrGKohD,2020-0188,2020-06-17,04:02:01,04:25:51,NA,incomplete,131,gender,2,1,right,A_F_12.jpg,A_M_07.jpg,C_F_16.jpg,right,1249,true,high,NA,NA,NA,NA,NA,NA,NA,false
CTrGKohD,3p7qk0gj4wyyvhrnruxexlrqk8i2zm,3483fv8beiwyur56gr55p7um4d862i,CTrGKohD,2020-0188,2020-06-17,04:02:01,04:25:51,NA,incomplete,132,gender,2,1,right,A_M_01.jpg,A_F_05.jpg,C_M_11.jpg,right,1190,true,high,NA,NA,NA,NA,NA,NA,NA,false
CTrGKohD,3p7qk0gj4wyyvhrnruxexlrqk8i2zm,3483fv8beiwyur56gr55p7um4d862i,CTrGKohD,2020-0188,2020-06-17,04:02:01,04:25:51,NA,incomplete,133,gender,2,1,left,C_M_06.jpg,A_M_14.jpg,C_F_05.jpg,left,1293,true,high,NA,NA,NA,NA,NA,NA,NA,false
CTrGKohD,3p7qk0gj4wyyvhrnruxexlrqk8i2zm,3483fv8beiwyur56gr55p7um4d862i,CTrGKohD,2020-0188,2020-06-17,04:02:01,04:25:51,NA,incomplete,134,gender,2,1,left,A_M_03.jpg,C_M_06.jpg,A_F_15.jpg,left,1192,true,high,NA,NA,NA,NA,NA,NA,NA,false
CTrGKohD,3p7qk0gj4wyyvhrnruxexlrqk8i2zm,3483fv8beiwyur56gr55p7um4d862i,CTrGKohD,2020-0188,2020-06-17,04:02:01,04:25:51,NA,incomplete,135,gender,2,1,left,C_M_04.jpg,A_M_12.jpg,C_F_15.jpg,left,1130,true,high,NA,NA,NA,NA,NA,NA,NA,false
CTrGKohD,3p7qk0gj4wyyvhrnruxexlrqk8i2zm,3483fv8beiwyur56gr55p7um4d862i,CTrGKohD,2020-0188,2020-06-17,04:02:01,04:25:51,NA,incomplete,136,gender,2,1,left,C_F_12.jpg,A_F_15.jpg,C_M_11.jpg,left,1354,true,high,NA,NA,NA,NA,NA,NA,NA,false
CTrGKohD,3p7qk0gj4wyyvhrnruxexlrqk8i2zm,3483fv8beiwyur56gr55p7um4d862i,CTrGKohD,2020-0188,2020-06-17,04:02:01,04:25:51,NA,incomplete,137,gender,2,1,left,C_M_11.jpg,A_M_10.jpg,C_F_03.jpg,left,1218,true,high,NA,NA,NA,NA,NA,NA,NA,false
CTrGKohD,3p7qk0gj4wyyvhrnruxexlrqk8i2zm,3483fv8beiwyur56gr55p7um4d862i,CTrGKohD,2020-0188,2020-06-17,04:02:01,04:25:51,NA,incomplete,138,gender,2,1,left,C_F_16.jpg,A_F_12.jpg,C_M_07.jpg,left,1190,true,high,NA,NA,NA,NA,NA,NA,NA,false
CTrGKohD,3p7qk0gj4wyyvhrnruxexlrqk8i2zm,3483fv8beiwyur56gr55p7um4d862i,CTrGKohD,2020-0188,2020-06-17,04:02:01,04:25:51,NA,incomplete,139,gender,2,0,right,A_F_02.jpg,A_M_15.jpg,C_F_01.jpg,right,1239,true,high,NA,NA,NA,NA,NA,NA,NA,false
CTrGKohD,3p7qk0gj4wyyvhrnruxexlrqk8i2zm,3483fv8beiwyur56gr55p7um4d862i,CTrGKohD,2020-0188,2020-06-17,04:02:01,04:25:51,NA,incomplete,140,race,3,1,left,A_F_02.jpg,A_M_01.jpg,C_F_12.jpg,right,1129,false,high,NA,NA,NA,NA,NA,NA,NA,false
CTrGKohD,3p7qk0gj4wyyvhrnruxexlrqk8i2zm,3483fv8beiwyur56gr55p7um4d862i,CTrGKohD,2020-0188,2020-06-17,04:02:01,04:25:51,NA,incomplete,141,race,3,0,right,A_M_05.jpg,C_M_12.jpg,A_F_14.jpg,right,1711,true,high,NA,NA,NA,NA,NA,NA,NA,false
CTrGKohD,3p7qk0gj4wyyvhrnruxexlrqk8i2zm,3483fv8beiwyur56gr55p7um4d862i,CTrGKohD,2020-0188,2020-06-17,04:02:01,04:25:51,NA,incomplete,142,race,3,1,left,A_M_15.jpg,A_F_03.jpg,C_M_01.jpg,left,1183,true,high,NA,NA,NA,NA,NA,NA,NA,false
CTrGKohD,3p7qk0gj4wyyvhrnruxexlrqk8i2zm,3483fv8beiwyur56gr55p7um4d862i,CTrGKohD,2020-0188,2020-06-17,04:02:01,04:25:51,NA,incomplete,143,race,3,0,left,A_F_14.jpg,A_M_02.jpg,C_F_10.jpg,left,1231,true,high,NA,NA,NA,NA,NA,NA,NA,false
CTrGKohD,3p7qk0gj4wyyvhrnruxexlrqk8i2zm,3483fv8beiwyur56gr55p7um4d862i,CTrGKohD,2020-0188,2020-06-17,04:02:01,04:25:51,NA,incomplete,144,race,3,1,left,C_F_12.jpg,C_M_10.jpg,A_F_04.jpg,left,1399,true,high,NA,NA,NA,NA,NA,NA,NA,false
CTrGKohD,3p7qk0gj4wyyvhrnruxexlrqk8i2zm,3483fv8beiwyur56gr55p7um4d862i,CTrGKohD,2020-0188,2020-06-17,04:02:01,04:25:51,NA,incomplete,145,race,3,1,right,A_F_07.jpg,C_F_13.jpg,A_M_05.jpg,left,1075,false,high,NA,NA,NA,NA,NA,NA,NA,false
CTrGKohD,3p7qk0gj4wyyvhrnruxexlrqk8i2zm,3483fv8beiwyur56gr55p7um4d862i,CTrGKohD,2020-0188,2020-06-17,04:02:01,04:25:51,NA,incomplete,146,race,3,1,right,C_M_10.jpg,A_M_05.jpg,C_F_02.jpg,left,1261,false,high,NA,NA,NA,NA,NA,NA,NA,false
CTrGKohD,3p7qk0gj4wyyvhrnruxexlrqk8i2zm,3483fv8beiwyur56gr55p7um4d862i,CTrGKohD,2020-0188,2020-06-17,04:02:01,04:25:51,NA,incomplete,147,race,3,1,right,C_M_10.jpg,A_M_13.jpg,C_F_04.jpg,right,1506,true,high,NA,NA,NA,NA,NA,NA,NA,false
CTrGKohD,3p7qk0gj4wyyvhrnruxexlrqk8i2zm,3483fv8beiwyur56gr55p7um4d862i,CTrGKohD,2020-0188,2020-06-17,04:02:01,04:25:51,NA,incomplete,148,race,3,1,right,A_M_05.jpg,C_M_15.jpg,A_F_03.jpg,right,1213,true,high,NA,NA,NA,NA,NA,NA,NA,false
CTrGKohD,3p7qk0gj4wyyvhrnruxexlrqk8i2zm,3483fv8beiwyur56gr55p7um4d862i,CTrGKohD,2020-0188,2020-06-17,04:02:01,04:25:51,NA,incomplete,149,race,3,1,left,A_M_07.jpg,A_F_03.jpg,C_M_12.jpg,left,1344,true,high,NA,NA,NA,NA,NA,NA,NA,false
CTrGKohD,3p7qk0gj4wyyvhrnruxexlrqk8i2zm,3483fv8beiwyur56gr55p7um4d862i,CTrGKohD,2020-0188,2020-06-17,04:02:01,04:25:51,NA,incomplete,150,race,3,0,left,A_F_01.jpg,A_M_14.jpg,C_F_04.jpg,left,1289,true,high,NA,NA,NA,NA,NA,NA,NA,false
CTrGKohD,3p7qk0gj4wyyvhrnruxexlrqk8i2zm,3483fv8beiwyur56gr55p7um4d862i,CTrGKohD,2020-0188,2020-06-17,04:02:01,04:25:51,NA,incomplete,151,race,3,1,left,A_F_06.jpg,A_M_09.jpg,C_F_12.jpg,left,1514,true,high,NA,NA,NA,NA,NA,NA,NA,false
CTrGKohD,3p7qk0gj4wyyvhrnruxexlrqk8i2zm,3483fv8beiwyur56gr55p7um4d862i,CTrGKohD,2020-0188,2020-06-17,04:02:01,04:25:51,NA,incomplete,152,race,3,0,right,C_F_01.jpg,A_F_04.jpg,C_M_06.jpg,right,1661,true,high,NA,NA,NA,NA,NA,NA,NA,false
CTrGKohD,3p7qk0gj4wyyvhrnruxexlrqk8i2zm,3483fv8beiwyur56gr55p7um4d862i,CTrGKohD,2020-0188,2020-06-17,04:02:01,04:25:51,NA,incomplete,153,race,3,1,right,C_F_10.jpg,A_F_08.jpg,C_M_15.jpg,right,1628,true,high,NA,NA,NA,NA,NA,NA,NA,false
CTrGKohD,3p7qk0gj4wyyvhrnruxexlrqk8i2zm,3483fv8beiwyur56gr55p7um4d862i,CTrGKohD,2020-0188,2020-06-17,04:02:01,04:25:51,NA,incomplete,154,race,3,1,right,A_F_10.jpg,C_F_04.jpg,A_M_14.jpg,right,1807,true,high,NA,NA,NA,NA,NA,NA,NA,false
CTrGKohD,3p7qk0gj4wyyvhrnruxexlrqk8i2zm,3483fv8beiwyur56gr55p7um4d862i,CTrGKohD,2020-0188,2020-06-17,04:02:01,04:25:51,NA,incomplete,155,race,3,1,right,A_F_02.jpg,C_F_09.jpg,A_M_15.jpg,right,1216,true,high,NA,NA,NA,NA,NA,NA,NA,false
CTrGKohD,3p7qk0gj4wyyvhrnruxexlrqk8i2zm,3483fv8beiwyur56gr55p7um4d862i,CTrGKohD,2020-0188,2020-06-17,04:02:01,04:25:51,NA,incomplete,156,race,3,0,left,C_M_09.jpg,C_F_13.jpg,A_M_08.jpg,left,1610,true,high,NA,NA,NA,NA,NA,NA,NA,false
CTrGKohD,3p7qk0gj4wyyvhrnruxexlrqk8i2zm,3483fv8beiwyur56gr55p7um4d862i,CTrGKohD,2020-0188,2020-06-17,04:02:01,04:25:51,NA,incomplete,157,race,3,1,right,A_F_02.jpg,C_F_10.jpg,A_M_05.jpg,right,1254,true,high,NA,NA,NA,NA,NA,NA,NA,false
CTrGKohD,3p7qk0gj4wyyvhrnruxexlrqk8i2zm,3483fv8beiwyur56gr55p7um4d862i,CTrGKohD,2020-0188,2020-06-17,04:02:01,04:25:51,NA,incomplete,158,race,3,0,left,A_M_15.jpg,A_F_16.jpg,C_M_09.jpg,left,1224,true,high,NA,NA,NA,NA,NA,NA,NA,false
CTrGKohD,3p7qk0gj4wyyvhrnruxexlrqk8i2zm,3483fv8beiwyur56gr55p7um4d862i,CTrGKohD,2020-0188,2020-06-17,04:02:01,04:25:51,NA,incomplete,159,race,3,1,left,A_M_15.jpg,A_F_04.jpg,C_M_13.jpg,left,1400,true,high,NA,NA,NA,NA,NA,NA,NA,false
CTrGKohD,3p7qk0gj4wyyvhrnruxexlrqk8i2zm,3483fv8beiwyur56gr55p7um4d862i,CTrGKohD,2020-0188,2020-06-17,04:02:01,04:25:51,NA,incomplete,160,gender,2,1,right,A_F_07.jpg,A_M_15.jpg,C_F_05.jpg,right,1360,true,high,NA,NA,NA,NA,NA,NA,NA,false
CTrGKohD,3p7qk0gj4wyyvhrnruxexlrqk8i2zm,3483fv8beiwyur56gr55p7um4d862i,CTrGKohD,2020-0188,2020-06-17,04:02:01,04:25:51,NA,incomplete,161,gender,2,1,right,A_F_06.jpg,A_M_09.jpg,C_F_10.jpg,right,1341,true,high,NA,NA,NA,NA,NA,NA,NA,false
CTrGKohD,3p7qk0gj4wyyvhrnruxexlrqk8i2zm,3483fv8beiwyur56gr55p7um4d862i,CTrGKohD,2020-0188,2020-06-17,04:02:01,04:25:51,NA,incomplete,162,gender,2,0,left,A_F_06.jpg,C_F_13.jpg,A_M_16.jpg,right,1364,false,high,NA,NA,NA,NA,NA,NA,NA,false
CTrGKohD,3p7qk0gj4wyyvhrnruxexlrqk8i2zm,3483fv8beiwyur56gr55p7um4d862i,CTrGKohD,2020-0188,2020-06-17,04:02:01,04:25:51,NA,incomplete,163,gender,2,1,left,C_M_01.jpg,A_M_08.jpg,C_F_14.jpg,right,1392,false,high,NA,NA,NA,NA,NA,NA,NA,false
CTrGKohD,3p7qk0gj4wyyvhrnruxexlrqk8i2zm,3483fv8beiwyur56gr55p7um4d862i,CTrGKohD,2020-0188,2020-06-17,04:02:01,04:25:51,NA,incomplete,164,gender,2,1,right,C_M_01.jpg,C_F_07.jpg,A_M_03.jpg,right,1498,true,high,NA,NA,NA,NA,NA,NA,NA,false
CTrGKohD,3p7qk0gj4wyyvhrnruxexlrqk8i2zm,3483fv8beiwyur56gr55p7um4d862i,CTrGKohD,2020-0188,2020-06-17,04:02:01,04:25:51,NA,incomplete,165,gender,2,1,left,A_F_08.jpg,C_F_03.jpg,A_M_15.jpg,right,1323,false,high,NA,NA,NA,NA,NA,NA,NA,false
CTrGKohD,3p7qk0gj4wyyvhrnruxexlrqk8i2zm,3483fv8beiwyur56gr55p7um4d862i,CTrGKohD,2020-0188,2020-06-17,04:02:01,04:25:51,NA,incomplete,166,gender,2,1,left,A_F_10.jpg,C_F_05.jpg,A_M_15.jpg,left,1155,true,high,NA,NA,NA,NA,NA,NA,NA,false
CTrGKohD,3p7qk0gj4wyyvhrnruxexlrqk8i2zm,3483fv8beiwyur56gr55p7um4d862i,CTrGKohD,2020-0188,2020-06-17,04:02:01,04:25:51,NA,incomplete,167,gender,2,1,right,C_F_03.jpg,C_M_09.jpg,A_F_10.jpg,right,1515,true,high,NA,NA,NA,NA,NA,NA,NA,false
CTrGKohD,3p7qk0gj4wyyvhrnruxexlrqk8i2zm,3483fv8beiwyur56gr55p7um4d862i,CTrGKohD,2020-0188,2020-06-17,04:02:01,04:25:51,NA,incomplete,168,gender,2,0,right,A_F_02.jpg,A_M_03.jpg,C_F_15.jpg,right,1756,true,high,NA,NA,NA,NA,NA,NA,NA,false
CTrGKohD,3p7qk0gj4wyyvhrnruxexlrqk8i2zm,3483fv8beiwyur56gr55p7um4d862i,CTrGKohD,2020-0188,2020-06-17,04:02:01,04:25:51,NA,incomplete,169,gender,2,1,right,C_F_05.jpg,C_M_13.jpg,A_F_12.jpg,right,1881,true,high,NA,NA,NA,NA,NA,NA,NA,false
CTrGKohD,3p7qk0gj4wyyvhrnruxexlrqk8i2zm,3483fv8beiwyur56gr55p7um4d862i,CTrGKohD,2020-0188,2020-06-17,04:02:01,04:25:51,NA,incomplete,170,gender,2,1,right,C_F_06.jpg,C_M_14.jpg,A_F_01.jpg,right,1689,true,high,NA,NA,NA,NA,NA,NA,NA,false
CTrGKohD,3p7qk0gj4wyyvhrnruxexlrqk8i2zm,3483fv8beiwyur56gr55p7um4d862i,CTrGKohD,2020-0188,2020-06-17,04:02:01,04:25:51,NA,incomplete,171,gender,2,1,right,A_M_08.jpg,A_F_15.jpg,C_M_01.jpg,right,1401,true,high,NA,NA,NA,NA,NA,NA,NA,false
CTrGKohD,3p7qk0gj4wyyvhrnruxexlrqk8i2zm,3483fv8beiwyur56gr55p7um4d862i,CTrGKohD,2020-0188,2020-06-17,04:02:01,04:25:51,NA,incomplete,172,gender,2,1,right,A_M_03.jpg,A_F_06.jpg,C_M_14.jpg,right,1412,true,high,NA,NA,NA,NA,NA,NA,NA,false
CTrGKohD,3p7qk0gj4wyyvhrnruxexlrqk8i2zm,3483fv8beiwyur56gr55p7um4d862i,CTrGKohD,2020-0188,2020-06-17,04:02:01,04:25:51,NA,incomplete,173,gender,2,0,left,C_M_16.jpg,A_M_10.jpg,C_F_15.jpg,left,1148,true,high,NA,NA,NA,NA,NA,NA,NA,false
CTrGKohD,3p7qk0gj4wyyvhrnruxexlrqk8i2zm,3483fv8beiwyur56gr55p7um4d862i,CTrGKohD,2020-0188,2020-06-17,04:02:01,04:25:51,NA,incomplete,174,gender,2,1,left,C_F_02.jpg,A_F_08.jpg,C_M_03.jpg,left,1086,true,high,NA,NA,NA,NA,NA,NA,NA,false
CTrGKohD,3p7qk0gj4wyyvhrnruxexlrqk8i2zm,3483fv8beiwyur56gr55p7um4d862i,CTrGKohD,2020-0188,2020-06-17,04:02:01,04:25:51,NA,incomplete,175,gender,2,1,left,A_F_14.jpg,C_F_08.jpg,A_M_07.jpg,left,1102,true,high,NA,NA,NA,NA,NA,NA,NA,false
CTrGKohD,3p7qk0gj4wyyvhrnruxexlrqk8i2zm,3483fv8beiwyur56gr55p7um4d862i,CTrGKohD,2020-0188,2020-06-17,04:02:01,04:25:51,NA,incomplete,176,gender,2,1,left,C_M_14.jpg,A_M_05.jpg,C_F_04.jpg,left,1416,true,high,NA,NA,NA,NA,NA,NA,NA,false
CTrGKohD,3p7qk0gj4wyyvhrnruxexlrqk8i2zm,3483fv8beiwyur56gr55p7um4d862i,CTrGKohD,2020-0188,2020-06-17,04:02:01,04:25:51,NA,incomplete,177,gender,2,1,right,A_M_11.jpg,A_F_01.jpg,C_M_12.jpg,none,0,false,high,NA,NA,NA,NA,NA,NA,NA,false
CTrGKohD,3p7qk0gj4wyyvhrnruxexlrqk8i2zm,3483fv8beiwyur56gr55p7um4d862i,CTrGKohD,2020-0188,2020-06-17,04:02:01,04:25:51,NA,incomplete,178,gender,2,1,left,C_M_09.jpg,A_M_05.jpg,C_F_13.jpg,left,1211,true,high,NA,NA,NA,NA,NA,NA,NA,false
CTrGKohD,3p7qk0gj4wyyvhrnruxexlrqk8i2zm,3483fv8beiwyur56gr55p7um4d862i,CTrGKohD,2020-0188,2020-06-17,04:02:01,04:25:51,NA,incomplete,179,gender,2,0,right,C_F_07.jpg,C_M_02.jpg,A_F_05.jpg,right,1512,true,high,NA,NA,NA,NA,NA,NA,NA,false
CTrGKohD,3p7qk0gj4wyyvhrnruxexlrqk8i2zm,3483fv8beiwyur56gr55p7um4d862i,CTrGKohD,2020-0188,2020-06-17,04:02:01,04:25:51,NA,incomplete,180,race,3,1,left,C_M_01.jpg,C_F_07.jpg,A_M_05.jpg,left,1492,true,high,NA,NA,NA,NA,NA,NA,NA,false
CTrGKohD,3p7qk0gj4wyyvhrnruxexlrqk8i2zm,3483fv8beiwyur56gr55p7um4d862i,CTrGKohD,2020-0188,2020-06-17,04:02:01,04:25:51,NA,incomplete,181,race,3,1,left,A_F_10.jpg,A_M_09.jpg,C_F_15.jpg,left,1841,true,high,NA,NA,NA,NA,NA,NA,NA,false
CTrGKohD,3p7qk0gj4wyyvhrnruxexlrqk8i2zm,3483fv8beiwyur56gr55p7um4d862i,CTrGKohD,2020-0188,2020-06-17,04:02:01,04:25:51,NA,incomplete,182,race,3,0,right,A_M_03.jpg,C_M_11.jpg,A_F_09.jpg,none,0,false,high,NA,NA,NA,NA,NA,NA,NA,false
CTrGKohD,3p7qk0gj4wyyvhrnruxexlrqk8i2zm,3483fv8beiwyur56gr55p7um4d862i,CTrGKohD,2020-0188,2020-06-17,04:02:01,04:25:51,NA,incomplete,183,race,3,1,right,C_F_15.jpg,A_F_05.jpg,C_M_10.jpg,left,999,false,high,NA,NA,NA,NA,NA,NA,NA,false
CTrGKohD,3p7qk0gj4wyyvhrnruxexlrqk8i2zm,3483fv8beiwyur56gr55p7um4d862i,CTrGKohD,2020-0188,2020-06-17,04:02:01,04:25:51,NA,incomplete,184,race,3,1,left,A_F_12.jpg,A_M_10.jpg,C_F_06.jpg,left,1597,true,high,NA,NA,NA,NA,NA,NA,NA,false
CTrGKohD,3p7qk0gj4wyyvhrnruxexlrqk8i2zm,3483fv8beiwyur56gr55p7um4d862i,CTrGKohD,2020-0188,2020-06-17,04:02:01,04:25:51,NA,incomplete,185,race,3,1,right,A_F_15.jpg,C_F_04.jpg,A_M_14.jpg,left,1228,false,high,NA,NA,NA,NA,NA,NA,NA,false
CTrGKohD,3p7qk0gj4wyyvhrnruxexlrqk8i2zm,3483fv8beiwyur56gr55p7um4d862i,CTrGKohD,2020-0188,2020-06-17,04:02:01,04:25:51,NA,incomplete,186,race,3,1,left,A_M_12.jpg,A_F_06.jpg,C_M_11.jpg,left,1499,true,high,NA,NA,NA,NA,NA,NA,NA,false
CTrGKohD,3p7qk0gj4wyyvhrnruxexlrqk8i2zm,3483fv8beiwyur56gr55p7um4d862i,CTrGKohD,2020-0188,2020-06-17,04:02:01,04:25:51,NA,incomplete,187,race,3,1,right,A_M_09.jpg,C_M_06.jpg,A_F_16.jpg,right,1549,true,high,NA,NA,NA,NA,NA,NA,NA,false
CTrGKohD,3p7qk0gj4wyyvhrnruxexlrqk8i2zm,3483fv8beiwyur56gr55p7um4d862i,CTrGKohD,2020-0188,2020-06-17,04:02:01,04:25:51,NA,incomplete,188,race,3,1,right,A_F_03.jpg,C_F_12.jpg,A_M_01.jpg,right,1539,true,high,NA,NA,NA,NA,NA,NA,NA,false
CTrGKohD,3p7qk0gj4wyyvhrnruxexlrqk8i2zm,3483fv8beiwyur56gr55p7um4d862i,CTrGKohD,2020-0188,2020-06-17,04:02:01,04:25:51,NA,incomplete,189,race,3,1,right,A_M_04.jpg,C_M_01.jpg,A_F_03.jpg,right,1228,true,high,NA,NA,NA,NA,NA,NA,NA,false
CTrGKohD,3p7qk0gj4wyyvhrnruxexlrqk8i2zm,3483fv8beiwyur56gr55p7um4d862i,CTrGKohD,2020-0188,2020-06-17,04:02:01,04:25:51,NA,incomplete,190,race,3,1,right,A_M_07.jpg,C_M_06.jpg,A_F_05.jpg,left,1603,false,high,NA,NA,NA,NA,NA,NA,NA,false
CTrGKohD,3p7qk0gj4wyyvhrnruxexlrqk8i2zm,3483fv8beiwyur56gr55p7um4d862i,CTrGKohD,2020-0188,2020-06-17,04:02:01,04:25:51,NA,incomplete,191,race,3,1,right,C_F_03.jpg,A_F_11.jpg,C_M_12.jpg,left,1314,false,high,NA,NA,NA,NA,NA,NA,NA,false
CTrGKohD,3p7qk0gj4wyyvhrnruxexlrqk8i2zm,3483fv8beiwyur56gr55p7um4d862i,CTrGKohD,2020-0188,2020-06-17,04:02:01,04:25:51,NA,incomplete,192,race,3,1,left,A_F_04.jpg,A_M_09.jpg,C_F_02.jpg,right,964,false,high,NA,NA,NA,NA,NA,NA,NA,false
CTrGKohD,3p7qk0gj4wyyvhrnruxexlrqk8i2zm,3483fv8beiwyur56gr55p7um4d862i,CTrGKohD,2020-0188,2020-06-17,04:02:01,04:25:51,NA,incomplete,193,race,3,1,right,C_M_01.jpg,A_M_08.jpg,C_F_06.jpg,right,1689,true,high,NA,NA,NA,NA,NA,NA,NA,false
CTrGKohD,3p7qk0gj4wyyvhrnruxexlrqk8i2zm,3483fv8beiwyur56gr55p7um4d862i,CTrGKohD,2020-0188,2020-06-17,04:02:01,04:25:51,NA,incomplete,194,race,3,1,left,A_F_04.jpg,A_M_03.jpg,C_F_08.jpg,left,1367,true,high,NA,NA,NA,NA,NA,NA,NA,false
CTrGKohD,3p7qk0gj4wyyvhrnruxexlrqk8i2zm,3483fv8beiwyur56gr55p7um4d862i,CTrGKohD,2020-0188,2020-06-17,04:02:01,04:25:51,NA,incomplete,195,race,3,0,right,A_F_11.jpg,C_F_12.jpg,A_M_02.jpg,left,1358,false,high,NA,NA,NA,NA,NA,NA,NA,false
CTrGKohD,3p7qk0gj4wyyvhrnruxexlrqk8i2zm,3483fv8beiwyur56gr55p7um4d862i,CTrGKohD,2020-0188,2020-06-17,04:02:01,04:25:51,NA,incomplete,196,race,3,1,right,A_M_09.jpg,C_M_04.jpg,A_F_02.jpg,right,1701,true,high,NA,NA,NA,NA,NA,NA,NA,false
CTrGKohD,3p7qk0gj4wyyvhrnruxexlrqk8i2zm,3483fv8beiwyur56gr55p7um4d862i,CTrGKohD,2020-0188,2020-06-17,04:02:01,04:25:51,NA,incomplete,197,race,3,1,left,C_M_03.jpg,C_F_14.jpg,A_M_11.jpg,left,1873,true,high,NA,NA,NA,NA,NA,NA,NA,false
CTrGKohD,3p7qk0gj4wyyvhrnruxexlrqk8i2zm,3483fv8beiwyur56gr55p7um4d862i,CTrGKohD,2020-0188,2020-06-17,04:02:01,04:25:51,NA,incomplete,198,race,3,0,right,A_F_11.jpg,C_F_03.jpg,A_M_13.jpg,right,1467,true,high,NA,NA,NA,NA,NA,NA,NA,false
CTrGKohD,3p7qk0gj4wyyvhrnruxexlrqk8i2zm,3483fv8beiwyur56gr55p7um4d862i,CTrGKohD,2020-0188,2020-06-17,04:02:01,04:25:51,NA,incomplete,199,race,3,1,right,C_M_04.jpg,A_M_14.jpg,C_F_06.jpg,left,1590,false,high,NA,NA,NA,NA,NA,NA,NA,false
CTrGKohD,3p7qk0gj4wyyvhrnruxexlrqk8i2zm,3483fv8beiwyur56gr55p7um4d862i,CTrGKohD,2020-0188,2020-06-17,04:02:01,04:25:51,NA,incomplete,200,gender,2,0,left,C_F_02.jpg,A_F_04.jpg,C_M_07.jpg,left,1348,true,high,NA,NA,NA,NA,NA,NA,NA,false
CTrGKohD,3p7qk0gj4wyyvhrnruxexlrqk8i2zm,3483fv8beiwyur56gr55p7um4d862i,CTrGKohD,2020-0188,2020-06-17,04:02:01,04:25:51,NA,incomplete,201,gender,2,1,right,A_M_11.jpg,A_F_16.jpg,C_M_02.jpg,left,1645,false,high,NA,NA,NA,NA,NA,NA,NA,false
CTrGKohD,3p7qk0gj4wyyvhrnruxexlrqk8i2zm,3483fv8beiwyur56gr55p7um4d862i,CTrGKohD,2020-0188,2020-06-17,04:02:01,04:25:51,NA,incomplete,202,gender,2,0,right,C_F_10.jpg,C_M_07.jpg,A_F_02.jpg,right,1484,true,high,NA,NA,NA,NA,NA,NA,NA,false
CTrGKohD,3p7qk0gj4wyyvhrnruxexlrqk8i2zm,3483fv8beiwyur56gr55p7um4d862i,CTrGKohD,2020-0188,2020-06-17,04:02:01,04:25:51,NA,incomplete,203,gender,2,1,left,A_M_13.jpg,C_M_10.jpg,A_F_04.jpg,left,1355,true,high,NA,NA,NA,NA,NA,NA,NA,false
CTrGKohD,3p7qk0gj4wyyvhrnruxexlrqk8i2zm,3483fv8beiwyur56gr55p7um4d862i,CTrGKohD,2020-0188,2020-06-17,04:02:01,04:25:51,NA,incomplete,204,gender,2,0,right,A_F_05.jpg,A_M_16.jpg,C_F_07.jpg,left,1851,false,high,NA,NA,NA,NA,NA,NA,NA,false
CTrGKohD,3p7qk0gj4wyyvhrnruxexlrqk8i2zm,3483fv8beiwyur56gr55p7um4d862i,CTrGKohD,2020-0188,2020-06-17,04:02:01,04:25:51,NA,incomplete,205,gender,2,1,right,A_M_01.jpg,A_F_06.jpg,C_M_15.jpg,left,1167,false,high,NA,NA,NA,NA,NA,NA,NA,false
CTrGKohD,3p7qk0gj4wyyvhrnruxexlrqk8i2zm,3483fv8beiwyur56gr55p7um4d862i,CTrGKohD,2020-0188,2020-06-17,04:02:01,04:25:51,NA,incomplete,206,gender,2,1,left,C_F_03.jpg,A_F_15.jpg,C_M_04.jpg,left,1402,true,high,NA,NA,NA,NA,NA,NA,NA,false
CTrGKohD,3p7qk0gj4wyyvhrnruxexlrqk8i2zm,3483fv8beiwyur56gr55p7um4d862i,CTrGKohD,2020-0188,2020-06-17,04:02:01,04:25:51,NA,incomplete,207,gender,2,1,right,C_F_02.jpg,C_M_06.jpg,A_F_03.jpg,left,1796,false,high,NA,NA,NA,NA,NA,NA,NA,false
CTrGKohD,3p7qk0gj4wyyvhrnruxexlrqk8i2zm,3483fv8beiwyur56gr55p7um4d862i,CTrGKohD,2020-0188,2020-06-17,04:02:01,04:25:51,NA,incomplete,208,gender,2,0,right,A_M_10.jpg,A_F_03.jpg,C_M_08.jpg,left,1854,false,high,NA,NA,NA,NA,NA,NA,NA,false
CTrGKohD,3p7qk0gj4wyyvhrnruxexlrqk8i2zm,3483fv8beiwyur56gr55p7um4d862i,CTrGKohD,2020-0188,2020-06-17,04:02:01,04:25:51,NA,incomplete,209,gender,2,1,right,C_F_06.jpg,C_M_07.jpg,A_F_08.jpg,none,0,false,high,NA,NA,NA,NA,NA,NA,NA,false
CTrGKohD,3p7qk0gj4wyyvhrnruxexlrqk8i2zm,3483fv8beiwyur56gr55p7um4d862i,CTrGKohD,2020-0188,2020-06-17,04:02:01,04:25:51,NA,incomplete,210,gender,2,1,right,A_M_02.jpg,A_F_05.jpg,C_M_03.jpg,left,1296,false,high,NA,NA,NA,NA,NA,NA,NA,false
CTrGKohD,3p7qk0gj4wyyvhrnruxexlrqk8i2zm,3483fv8beiwyur56gr55p7um4d862i,CTrGKohD,2020-0188,2020-06-17,04:02:01,04:25:51,NA,incomplete,211,gender,2,0,left,A_M_14.jpg,C_M_13.jpg,A_F_05.jpg,right,1388,false,high,NA,NA,NA,NA,NA,NA,NA,false
CTrGKohD,3p7qk0gj4wyyvhrnruxexlrqk8i2zm,3483fv8beiwyur56gr55p7um4d862i,CTrGKohD,2020-0188,2020-06-17,04:02:01,04:25:51,NA,incomplete,212,gender,2,1,right,C_F_05.jpg,C_M_13.jpg,A_F_11.jpg,right,1068,true,high,NA,NA,NA,NA,NA,NA,NA,false
CTrGKohD,3p7qk0gj4wyyvhrnruxexlrqk8i2zm,3483fv8beiwyur56gr55p7um4d862i,CTrGKohD,2020-0188,2020-06-17,04:02:01,04:25:51,NA,incomplete,213,gender,2,0,left,A_F_10.jpg,C_F_01.jpg,A_M_13.jpg,none,0,false,high,NA,NA,NA,NA,NA,NA,NA,false
CTrGKohD,3p7qk0gj4wyyvhrnruxexlrqk8i2zm,3483fv8beiwyur56gr55p7um4d862i,CTrGKohD,2020-0188,2020-06-17,04:02:01,04:25:51,NA,incomplete,214,gender,2,1,left,A_M_16.jpg,C_M_02.jpg,A_F_11.jpg,none,0,false,high,NA,NA,NA,NA,NA,NA,NA,false
CTrGKohD,3p7qk0gj4wyyvhrnruxexlrqk8i2zm,3483fv8beiwyur56gr55p7um4d862i,CTrGKohD,2020-0188,2020-06-17,04:02:01,04:25:51,NA,incomplete,215,gender,2,0,left,A_F_01.jpg,C_F_16.jpg,A_M_10.jpg,right,194,false,high,NA,NA,NA,NA,NA,NA,NA,false
CTrGKohD,3p7qk0gj4wyyvhrnruxexlrqk8i2zm,3483fv8beiwyur56gr55p7um4d862i,CTrGKohD,2020-0188,2020-06-17,04:02:01,04:25:51,NA,incomplete,216,gender,2,1,left,A_F_09.jpg,C_F_06.jpg,A_M_07.jpg,right,327,false,high,NA,NA,NA,NA,NA,NA,NA,false
CTrGKohD,3p7qk0gj4wyyvhrnruxexlrqk8i2zm,3483fv8beiwyur56gr55p7um4d862i,CTrGKohD,2020-0188,2020-06-17,04:02:01,04:25:51,NA,incomplete,217,gender,2,1,right,A_F_14.jpg,A_M_10.jpg,C_F_02.jpg,right,208,true,high,NA,NA,NA,NA,NA,NA,NA,false
CTrGKohD,3p7qk0gj4wyyvhrnruxexlrqk8i2zm,3483fv8beiwyur56gr55p7um4d862i,CTrGKohD,2020-0188,2020-06-17,04:02:01,04:25:51,NA,incomplete,218,gender,2,0,right,C_M_12.jpg,C_F_10.jpg,A_M_13.jpg,left,333,false,high,NA,NA,NA,NA,NA,NA,NA,false
CTrGKohD,3p7qk0gj4wyyvhrnruxexlrqk8i2zm,3483fv8beiwyur56gr55p7um4d862i,CTrGKohD,2020-0188,2020-06-17,04:02:01,04:25:51,NA,incomplete,219,gender,2,1,right,C_M_15.jpg,C_F_13.jpg,A_M_12.jpg,right,712,true,high,NA,NA,NA,NA,NA,NA,NA,false
CTrGKohD,3p7qk0gj4wyyvhrnruxexlrqk8i2zm,3483fv8beiwyur56gr55p7um4d862i,CTrGKohD,2020-0188,2020-06-17,04:02:01,04:25:51,NA,incomplete,220,race,3,1,left,A_M_02.jpg,A_F_04.jpg,C_M_06.jpg,right,1017,false,high,NA,NA,NA,NA,NA,NA,NA,false
CTrGKohD,3p7qk0gj4wyyvhrnruxexlrqk8i2zm,3483fv8beiwyur56gr55p7um4d862i,CTrGKohD,2020-0188,2020-06-17,04:02:01,04:25:51,NA,incomplete,221,race,3,1,left,A_F_11.jpg,A_M_10.jpg,C_F_02.jpg,left,230,true,high,NA,NA,NA,NA,NA,NA,NA,false
CTrGKohD,3p7qk0gj4wyyvhrnruxexlrqk8i2zm,3483fv8beiwyur56gr55p7um4d862i,CTrGKohD,2020-0188,2020-06-17,04:02:01,04:25:51,NA,incomplete,222,race,3,0,right,C_M_15.jpg,A_M_02.jpg,C_F_07.jpg,left,308,false,high,NA,NA,NA,NA,NA,NA,NA,false
CTrGKohD,3p7qk0gj4wyyvhrnruxexlrqk8i2zm,3483fv8beiwyur56gr55p7um4d862i,CTrGKohD,2020-0188,2020-06-17,04:02:01,04:25:51,NA,incomplete,223,race,3,1,right,C_F_07.jpg,A_F_14.jpg,C_M_10.jpg,left,805,false,high,NA,NA,NA,NA,NA,NA,NA,false
CTrGKohD,3p7qk0gj4wyyvhrnruxexlrqk8i2zm,3483fv8beiwyur56gr55p7um4d862i,CTrGKohD,2020-0188,2020-06-17,04:02:01,04:25:51,NA,incomplete,224,race,3,1,right,C_F_14.jpg,A_F_09.jpg,C_M_02.jpg,left,1260,false,high,NA,NA,NA,NA,NA,NA,NA,false
CTrGKohD,3p7qk0gj4wyyvhrnruxexlrqk8i2zm,3483fv8beiwyur56gr55p7um4d862i,CTrGKohD,2020-0188,2020-06-17,04:02:01,04:25:51,NA,incomplete,225,race,3,1,left,C_F_08.jpg,C_M_13.jpg,A_F_12.jpg,left,1350,true,high,NA,NA,NA,NA,NA,NA,NA,false
CTrGKohD,3p7qk0gj4wyyvhrnruxexlrqk8i2zm,3483fv8beiwyur56gr55p7um4d862i,CTrGKohD,2020-0188,2020-06-17,04:02:01,04:25:51,NA,incomplete,226,race,3,1,left,C_M_09.jpg,C_F_12.jpg,A_M_13.jpg,left,800,true,high,NA,NA,NA,NA,NA,NA,NA,false
CTrGKohD,3p7qk0gj4wyyvhrnruxexlrqk8i2zm,3483fv8beiwyur56gr55p7um4d862i,CTrGKohD,2020-0188,2020-06-17,04:02:01,04:25:51,NA,incomplete,227,race,3,1,left,A_M_13.jpg,A_F_05.jpg,C_M_14.jpg,left,629,true,high,NA,NA,NA,NA,NA,NA,NA,false
CTrGKohD,3p7qk0gj4wyyvhrnruxexlrqk8i2zm,3483fv8beiwyur56gr55p7um4d862i,CTrGKohD,2020-0188,2020-06-17,04:02:01,04:25:51,NA,incomplete,228,race,3,1,right,C_F_11.jpg,A_F_12.jpg,C_M_04.jpg,right,580,true,high,NA,NA,NA,NA,NA,NA,NA,false
CTrGKohD,3p7qk0gj4wyyvhrnruxexlrqk8i2zm,3483fv8beiwyur56gr55p7um4d862i,CTrGKohD,2020-0188,2020-06-17,04:02:01,04:25:51,NA,incomplete,229,race,3,1,right,C_M_15.jpg,A_M_08.jpg,C_F_04.jpg,right,1257,true,high,NA,NA,NA,NA,NA,NA,NA,false
CTrGKohD,3p7qk0gj4wyyvhrnruxexlrqk8i2zm,3483fv8beiwyur56gr55p7um4d862i,CTrGKohD,2020-0188,2020-06-17,04:02:01,04:25:51,NA,incomplete,230,race,3,1,left,C_F_16.jpg,C_M_14.jpg,A_F_15.jpg,right,635,false,high,NA,NA,NA,NA,NA,NA,NA,false
CTrGKohD,3p7qk0gj4wyyvhrnruxexlrqk8i2zm,3483fv8beiwyur56gr55p7um4d862i,CTrGKohD,2020-0188,2020-06-17,04:02:01,04:25:51,NA,incomplete,231,race,3,1,left,C_M_14.jpg,C_F_03.jpg,A_M_07.jpg,left,769,true,high,NA,NA,NA,NA,NA,NA,NA,false
CTrGKohD,3p7qk0gj4wyyvhrnruxexlrqk8i2zm,3483fv8beiwyur56gr55p7um4d862i,CTrGKohD,2020-0188,2020-06-17,04:02:01,04:25:51,NA,incomplete,232,race,3,1,left,A_M_05.jpg,A_F_14.jpg,C_M_15.jpg,right,861,false,high,NA,NA,NA,NA,NA,NA,NA,false
CTrGKohD,3p7qk0gj4wyyvhrnruxexlrqk8i2zm,3483fv8beiwyur56gr55p7um4d862i,CTrGKohD,2020-0188,2020-06-17,04:02:01,04:25:51,NA,incomplete,233,race,3,1,right,A_F_15.jpg,C_F_09.jpg,A_M_03.jpg,left,898,false,high,NA,NA,NA,NA,NA,NA,NA,false
CTrGKohD,3p7qk0gj4wyyvhrnruxexlrqk8i2zm,3483fv8beiwyur56gr55p7um4d862i,CTrGKohD,2020-0188,2020-06-17,04:02:01,04:25:51,NA,incomplete,234,race,3,0,right,C_F_03.jpg,A_F_09.jpg,C_M_15.jpg,right,1093,true,high,NA,NA,NA,NA,NA,NA,NA,false
CTrGKohD,3p7qk0gj4wyyvhrnruxexlrqk8i2zm,3483fv8beiwyur56gr55p7um4d862i,CTrGKohD,2020-0188,2020-06-17,04:02:01,04:25:51,NA,incomplete,235,race,3,1,left,C_M_15.jpg,C_F_09.jpg,A_M_14.jpg,right,1327,false,high,NA,NA,NA,NA,NA,NA,NA,false
CTrGKohD,3p7qk0gj4wyyvhrnruxexlrqk8i2zm,3483fv8beiwyur56gr55p7um4d862i,CTrGKohD,2020-0188,2020-06-17,04:02:01,04:25:51,NA,incomplete,236,race,3,1,left,A_F_09.jpg,A_M_14.jpg,C_F_11.jpg,left,1225,true,high,NA,NA,NA,NA,NA,NA,NA,false
CTrGKohD,3p7qk0gj4wyyvhrnruxexlrqk8i2zm,3483fv8beiwyur56gr55p7um4d862i,CTrGKohD,2020-0188,2020-06-17,04:02:01,04:25:51,NA,incomplete,237,race,3,1,left,A_M_08.jpg,A_F_04.jpg,C_M_11.jpg,left,762,true,high,NA,NA,NA,NA,NA,NA,NA,false
CTrGKohD,3p7qk0gj4wyyvhrnruxexlrqk8i2zm,3483fv8beiwyur56gr55p7um4d862i,CTrGKohD,2020-0188,2020-06-17,04:02:01,04:25:51,NA,incomplete,238,race,3,1,left,A_F_02.jpg,A_M_07.jpg,C_F_13.jpg,left,1064,true,high,NA,NA,NA,NA,NA,NA,NA,false
CTrGKohD,3p7qk0gj4wyyvhrnruxexlrqk8i2zm,3483fv8beiwyur56gr55p7um4d862i,CTrGKohD,2020-0188,2020-06-17,04:02:01,04:25:51,NA,incomplete,239,race,3,1,right,A_F_14.jpg,C_F_05.jpg,A_M_04.jpg,left,952,false,high,NA,NA,NA,NA,NA,NA,NA,false
CTrGKohD,3p7qk0gj4wyyvhrnruxexlrqk8i2zm,3483fv8beiwyur56gr55p7um4d862i,CTrGKohD,2020-0188,2020-06-17,04:02:01,04:25:51,NA,NA,instruction example,shape,NA,NA,NA,Purple_Triangle_Stripes_1.jpg,Green_Triangle_Dots_3.jpg,Purple_Plus_Grid_4.jpg,NA,NA,NA,NA,NA,NA,NA,NA,NA,NA,NA,undefined
CTrGKohD,3p7qk0gj4wyyvhrnruxexlrqk8i2zm,3483fv8beiwyur56gr55p7um4d862i,CTrGKohD,2020-0188,2020-06-17,04:02:01,04:25:51,NA,NA,instruction example,shape,NA,NA,NA,Green_Triangle_Dots_1.jpg,Green_Circle_Chess_2.jpg,Purple_Triangle_Grid_3.jpg,NA,NA,NA,NA,NA,NA,NA,NA,NA,NA,NA,undefined
CTrGKohD,3p7qk0gj4wyyvhrnruxexlrqk8i2zm,3483fv8beiwyur56gr55p7um4d862i,CTrGKohD,2020-0188,2020-06-17,04:02:01,04:25:51,NA,NA,instruction example,shape,NA,NA,NA,C_F_03.jpg,A_F_06.jpg,C_M_12.jpg,NA,NA,NA,NA,NA,NA,NA,NA,NA,NA,NA,undefined
CTrGKohD,3p7qk0gj4wyyvhrnruxexlrqk8i2zm,3483fv8beiwyur56gr55p7um4d862i,CTrGKohD,2020-0188,2020-06-17,04:02:01,04:25:51,NA,NA,instruction example,shape,NA,NA,NA,C_F_01.jpg,C_M_11.jpg,A_F_05.jpg,NA,NA,NA,NA,NA,NA,NA,NA,NA,NA,NA,undefined
CTrGKohD,3p7qk0gj4wyyvhrnruxexlrqk8i2zm,3483fv8beiwyur56gr55p7um4d862i,CTrGKohD,2020-0188,2020-06-17,04:02:01,04:25:51,1363427,1431142,NA,NA,NA,NA,NA,NA,NA,NA,NA,NA,NA,NA,31,White/Caucasian,Male,white,no,no,no,undefined
