workerId,hitId,assignmentId,subject,studyid,exp_date,exp_start,exp_end,time_start,time_end,trial,type,sequence,reward_validity,answer,image_top,image_left,image_right,response,response_time,response_acc,volatility,age,race,gender,ethnicity,color,vision,neuro,practice
Do6i9Sv4,3ba7sxog2m30f57lxuc2l92uxdc8rv,34s6n1k2zzwks2bvmgee1uilhvglhu,Do6i9Sv4,2020-0188,2020-06-04,09:37:05,09:54:50,NA,incomplete,0,color,0,1,left,Red_Plus_Chess_1.jpg,Red_Triangle_Dots_3.jpg,Purple_Star_Stripes_1.jpg,none,0,false,NA,NA,NA,NA,NA,NA,NA,NA,true
Do6i9Sv4,3ba7sxog2m30f57lxuc2l92uxdc8rv,34s6n1k2zzwks2bvmgee1uilhvglhu,Do6i9Sv4,2020-0188,2020-06-04,09:37:05,09:54:50,NA,incomplete,1,color,0,1,left,Blue_Triangle_Chess_4.jpg,Blue_Star_Dots_2.jpg,Red_Plus_Grid_4.jpg,left,780.3549999371171,true,NA,NA,NA,NA,NA,NA,NA,NA,true
Do6i9Sv4,3ba7sxog2m30f57lxuc2l92uxdc8rv,34s6n1k2zzwks2bvmgee1uilhvglhu,Do6i9Sv4,2020-0188,2020-06-04,09:37:05,09:54:50,NA,incomplete,2,color,0,1,right,Blue_Circle_Dots_1.jpg,Red_Star_Stripes_1.jpg,Blue_Plus_Chess_3.jpg,right,558.6099999491125,true,NA,NA,NA,NA,NA,NA,NA,NA,true
Do6i9Sv4,3ba7sxog2m30f57lxuc2l92uxdc8rv,34s6n1k2zzwks2bvmgee1uilhvglhu,Do6i9Sv4,2020-0188,2020-06-04,09:37:05,09:54:50,NA,incomplete,3,color,0,1,right,Purple_Star_Dots_1.jpg,Red_Circle_Chess_1.jpg,Purple_Plus_Stripes_4.jpg,right,494.21999999322,true,NA,NA,NA,NA,NA,NA,NA,NA,true
Do6i9Sv4,3ba7sxog2m30f57lxuc2l92uxdc8rv,34s6n1k2zzwks2bvmgee1uilhvglhu,Do6i9Sv4,2020-0188,2020-06-04,09:37:05,09:54:50,NA,incomplete,4,color,0,1,left,Red_Circle_Dots_3.jpg,Red_Triangle_Chess_1.jpg,Green_Plus_Stripes_3.jpg,left,746.419999981299,true,NA,NA,NA,NA,NA,NA,NA,NA,true
Do6i9Sv4,3ba7sxog2m30f57lxuc2l92uxdc8rv,34s6n1k2zzwks2bvmgee1uilhvglhu,Do6i9Sv4,2020-0188,2020-06-04,09:37:05,09:54:50,NA,incomplete,5,color,0,1,left,Blue_Circle_Stripes_3.jpg,Blue_Star_Dots_4.jpg,Red_Plus_Chess_3.jpg,left,529.3499999679625,true,NA,NA,NA,NA,NA,NA,NA,NA,true
Do6i9Sv4,3ba7sxog2m30f57lxuc2l92uxdc8rv,34s6n1k2zzwks2bvmgee1uilhvglhu,Do6i9Sv4,2020-0188,2020-06-04,09:37:05,09:54:50,NA,incomplete,6,color,0,1,right,Blue_Star_Chess_1.jpg,Green_Plus_Dots_1.jpg,Blue_Triangle_Stripes_2.jpg,right,589.414999820292,true,NA,NA,NA,NA,NA,NA,NA,NA,true
Do6i9Sv4,3ba7sxog2m30f57lxuc2l92uxdc8rv,34s6n1k2zzwks2bvmgee1uilhvglhu,Do6i9Sv4,2020-0188,2020-06-04,09:37:05,09:54:50,NA,incomplete,7,color,0,1,left,Red_Star_Stripes_4.jpg,Red_Circle_Grid_2.jpg,Blue_Plus_Chess_4.jpg,left,628.4999998752028,true,NA,NA,NA,NA,NA,NA,NA,NA,true
Do6i9Sv4,3ba7sxog2m30f57lxuc2l92uxdc8rv,34s6n1k2zzwks2bvmgee1uilhvglhu,Do6i9Sv4,2020-0188,2020-06-04,09:37:05,09:54:50,NA,incomplete,8,color,0,1,right,Green_Circle_Dots_1.jpg,Purple_Star_Chess_1.jpg,Green_Plus_Grid_4.jpg,right,621.369999833405,true,NA,NA,NA,NA,NA,NA,NA,NA,true
Do6i9Sv4,3ba7sxog2m30f57lxuc2l92uxdc8rv,34s6n1k2zzwks2bvmgee1uilhvglhu,Do6i9Sv4,2020-0188,2020-06-04,09:37:05,09:54:50,NA,incomplete,9,color,0,1,left,Purple_Circle_Chess_2.jpg,Purple_Triangle_Grid_1.jpg,Red_Star_Dots_2.jpg,left,514.5799999590963,true,NA,NA,NA,NA,NA,NA,NA,NA,true
Do6i9Sv4,3ba7sxog2m30f57lxuc2l92uxdc8rv,34s6n1k2zzwks2bvmgee1uilhvglhu,Do6i9Sv4,2020-0188,2020-06-04,09:37:05,09:54:50,NA,incomplete,10,color,0,1,left,Blue_Star_Grid_1.jpg,Blue_Triangle_Stripes_4.jpg,Purple_Circle_Dots_1.jpg,left,573.0000000912696,true,NA,NA,NA,NA,NA,NA,NA,NA,true
Do6i9Sv4,3ba7sxog2m30f57lxuc2l92uxdc8rv,34s6n1k2zzwks2bvmgee1uilhvglhu,Do6i9Sv4,2020-0188,2020-06-04,09:37:05,09:54:50,NA,incomplete,11,color,0,0,left,Blue_Triangle_Stripes_3.jpg,Blue_Plus_Dots_1.jpg,Green_Circle_Chess_3.jpg,left,528.2700001262128,true,NA,NA,NA,NA,NA,NA,NA,NA,true
Do6i9Sv4,3ba7sxog2m30f57lxuc2l92uxdc8rv,34s6n1k2zzwks2bvmgee1uilhvglhu,Do6i9Sv4,2020-0188,2020-06-04,09:37:05,09:54:50,NA,incomplete,12,color,0,0,left,Purple_Triangle_Chess_1.jpg,Purple_Circle_Grid_2.jpg,Green_Plus_Stripes_1.jpg,left,474.4349999818951,true,NA,NA,NA,NA,NA,NA,NA,NA,true
Do6i9Sv4,3ba7sxog2m30f57lxuc2l92uxdc8rv,34s6n1k2zzwks2bvmgee1uilhvglhu,Do6i9Sv4,2020-0188,2020-06-04,09:37:05,09:54:50,NA,incomplete,13,color,0,0,left,Red_Triangle_Dots_4.jpg,Red_Star_Chess_1.jpg,Purple_Plus_Stripes_4.jpg,left,574.9149997718632,true,NA,NA,NA,NA,NA,NA,NA,NA,true
Do6i9Sv4,3ba7sxog2m30f57lxuc2l92uxdc8rv,34s6n1k2zzwks2bvmgee1uilhvglhu,Do6i9Sv4,2020-0188,2020-06-04,09:37:05,09:54:50,NA,incomplete,14,color,0,1,right,Red_Plus_Grid_1.jpg,Blue_Star_Dots_1.jpg,Red_Triangle_Chess_3.jpg,right,717.9199999663979,true,NA,NA,NA,NA,NA,NA,NA,NA,true
Do6i9Sv4,3ba7sxog2m30f57lxuc2l92uxdc8rv,34s6n1k2zzwks2bvmgee1uilhvglhu,Do6i9Sv4,2020-0188,2020-06-04,09:37:05,09:54:50,NA,incomplete,15,color,0,1,right,Red_Plus_Grid_2.jpg,Blue_Star_Dots_2.jpg,Red_Triangle_Chess_1.jpg,right,636.7099999915808,true,NA,NA,NA,NA,NA,NA,NA,NA,true
Do6i9Sv4,3ba7sxog2m30f57lxuc2l92uxdc8rv,34s6n1k2zzwks2bvmgee1uilhvglhu,Do6i9Sv4,2020-0188,2020-06-04,09:37:05,09:54:50,NA,incomplete,16,color,0,1,right,Blue_Circle_Stripes_1.jpg,Green_Plus_Chess_1.jpg,Blue_Star_Grid_3.jpg,right,702.9699999839067,true,NA,NA,NA,NA,NA,NA,NA,NA,true
Do6i9Sv4,3ba7sxog2m30f57lxuc2l92uxdc8rv,34s6n1k2zzwks2bvmgee1uilhvglhu,Do6i9Sv4,2020-0188,2020-06-04,09:37:05,09:54:50,NA,incomplete,17,color,0,0,left,Green_Circle_Stripes_3.jpg,Green_Plus_Grid_4.jpg,Purple_Triangle_Dots_3.jpg,left,477.5000000372529,true,NA,NA,NA,NA,NA,NA,NA,NA,true
Do6i9Sv4,3ba7sxog2m30f57lxuc2l92uxdc8rv,34s6n1k2zzwks2bvmgee1uilhvglhu,Do6i9Sv4,2020-0188,2020-06-04,09:37:05,09:54:50,NA,incomplete,18,color,0,1,left,Blue_Circle_Chess_2.jpg,Blue_Plus_Dots_4.jpg,Purple_Star_Stripes_2.jpg,left,521.7299999203533,true,NA,NA,NA,NA,NA,NA,NA,NA,true
Do6i9Sv4,3ba7sxog2m30f57lxuc2l92uxdc8rv,34s6n1k2zzwks2bvmgee1uilhvglhu,Do6i9Sv4,2020-0188,2020-06-04,09:37:05,09:54:50,NA,incomplete,19,color,0,1,left,Purple_Star_Chess_1.jpg,Purple_Circle_Dots_2.jpg,Green_Triangle_Grid_1.jpg,left,520.3549999278039,true,NA,NA,NA,NA,NA,NA,NA,NA,true
Do6i9Sv4,3ba7sxog2m30f57lxuc2l92uxdc8rv,34s6n1k2zzwks2bvmgee1uilhvglhu,Do6i9Sv4,2020-0188,2020-06-04,09:37:05,09:54:50,NA,incomplete,20,number,1,0,left,Purple_Star_Chess_3.jpg,Green_Triangle_Stripes_3.jpg,Purple_Plus_Dots_4.jpg,left,1234.8749998491257,true,NA,NA,NA,NA,NA,NA,NA,NA,true
Do6i9Sv4,3ba7sxog2m30f57lxuc2l92uxdc8rv,34s6n1k2zzwks2bvmgee1uilhvglhu,Do6i9Sv4,2020-0188,2020-06-04,09:37:05,09:54:50,NA,incomplete,21,number,1,1,left,Green_Circle_Grid_4.jpg,Blue_Plus_Chess_4.jpg,Green_Triangle_Dots_3.jpg,left,971.8400000128895,true,NA,NA,NA,NA,NA,NA,NA,NA,true
Do6i9Sv4,3ba7sxog2m30f57lxuc2l92uxdc8rv,34s6n1k2zzwks2bvmgee1uilhvglhu,Do6i9Sv4,2020-0188,2020-06-04,09:37:05,09:54:50,NA,incomplete,22,number,1,1,right,Green_Circle_Dots_1.jpg,Green_Plus_Chess_3.jpg,Blue_Triangle_Grid_1.jpg,left,536.8649999145418,false,NA,NA,NA,NA,NA,NA,NA,NA,true
Do6i9Sv4,3ba7sxog2m30f57lxuc2l92uxdc8rv,34s6n1k2zzwks2bvmgee1uilhvglhu,Do6i9Sv4,2020-0188,2020-06-04,09:37:05,09:54:50,NA,incomplete,23,number,1,1,left,Blue_Triangle_Dots_2.jpg,Red_Star_Grid_2.jpg,Blue_Circle_Chess_4.jpg,left,1082.5750001240522,true,NA,NA,NA,NA,NA,NA,NA,NA,true
Do6i9Sv4,3ba7sxog2m30f57lxuc2l92uxdc8rv,34s6n1k2zzwks2bvmgee1uilhvglhu,Do6i9Sv4,2020-0188,2020-06-04,09:37:05,09:54:50,NA,incomplete,24,number,1,1,right,Red_Plus_Chess_1.jpg,Red_Circle_Stripes_3.jpg,Blue_Star_Dots_1.jpg,right,724.1099998354912,true,NA,NA,NA,NA,NA,NA,NA,NA,true
Do6i9Sv4,3ba7sxog2m30f57lxuc2l92uxdc8rv,34s6n1k2zzwks2bvmgee1uilhvglhu,Do6i9Sv4,2020-0188,2020-06-04,09:37:05,09:54:50,NA,incomplete,25,number,1,1,right,Blue_Star_Chess_1.jpg,Blue_Circle_Grid_3.jpg,Red_Triangle_Dots_1.jpg,right,706.6349999513477,true,NA,NA,NA,NA,NA,NA,NA,NA,true
Do6i9Sv4,3ba7sxog2m30f57lxuc2l92uxdc8rv,34s6n1k2zzwks2bvmgee1uilhvglhu,Do6i9Sv4,2020-0188,2020-06-04,09:37:05,09:54:50,NA,incomplete,26,number,1,1,right,Green_Plus_Stripes_3.jpg,Green_Triangle_Dots_4.jpg,Blue_Circle_Grid_3.jpg,right,986.5300001110882,true,NA,NA,NA,NA,NA,NA,NA,NA,true
Do6i9Sv4,3ba7sxog2m30f57lxuc2l92uxdc8rv,34s6n1k2zzwks2bvmgee1uilhvglhu,Do6i9Sv4,2020-0188,2020-06-04,09:37:05,09:54:50,NA,incomplete,27,number,1,1,left,Purple_Triangle_Chess_3.jpg,Red_Plus_Dots_3.jpg,Purple_Star_Stripes_2.jpg,left,841.4700001012534,true,NA,NA,NA,NA,NA,NA,NA,NA,true
Do6i9Sv4,3ba7sxog2m30f57lxuc2l92uxdc8rv,34s6n1k2zzwks2bvmgee1uilhvglhu,Do6i9Sv4,2020-0188,2020-06-04,09:37:05,09:54:50,NA,incomplete,28,number,1,1,left,Red_Plus_Chess_3.jpg,Purple_Star_Dots_3.jpg,Red_Triangle_Grid_2.jpg,left,761.4250001497567,true,NA,NA,NA,NA,NA,NA,NA,NA,true
Do6i9Sv4,3ba7sxog2m30f57lxuc2l92uxdc8rv,34s6n1k2zzwks2bvmgee1uilhvglhu,Do6i9Sv4,2020-0188,2020-06-04,09:37:05,09:54:50,NA,incomplete,29,number,1,1,left,Green_Plus_Grid_4.jpg,Blue_Triangle_Dots_4.jpg,Green_Star_Chess_3.jpg,left,878.1500000040978,true,NA,NA,NA,NA,NA,NA,NA,NA,true
Do6i9Sv4,3ba7sxog2m30f57lxuc2l92uxdc8rv,34s6n1k2zzwks2bvmgee1uilhvglhu,Do6i9Sv4,2020-0188,2020-06-04,09:37:05,09:54:50,NA,incomplete,30,number,1,1,left,Purple_Plus_Stripes_2.jpg,Red_Star_Grid_2.jpg,Purple_Circle_Chess_4.jpg,left,761.4549999125302,true,NA,NA,NA,NA,NA,NA,NA,NA,true
Do6i9Sv4,3ba7sxog2m30f57lxuc2l92uxdc8rv,34s6n1k2zzwks2bvmgee1uilhvglhu,Do6i9Sv4,2020-0188,2020-06-04,09:37:05,09:54:50,NA,incomplete,31,number,1,1,right,Red_Plus_Dots_4.jpg,Red_Triangle_Stripes_3.jpg,Purple_Star_Grid_4.jpg,right,769.5299999322742,true,NA,NA,NA,NA,NA,NA,NA,NA,true
Do6i9Sv4,3ba7sxog2m30f57lxuc2l92uxdc8rv,34s6n1k2zzwks2bvmgee1uilhvglhu,Do6i9Sv4,2020-0188,2020-06-04,09:37:05,09:54:50,NA,incomplete,32,number,1,0,left,Green_Plus_Chess_4.jpg,Red_Star_Grid_4.jpg,Green_Circle_Stripes_3.jpg,left,726.1349998880178,true,NA,NA,NA,NA,NA,NA,NA,NA,true
Do6i9Sv4,3ba7sxog2m30f57lxuc2l92uxdc8rv,34s6n1k2zzwks2bvmgee1uilhvglhu,Do6i9Sv4,2020-0188,2020-06-04,09:37:05,09:54:50,NA,incomplete,33,number,1,1,left,Green_Star_Stripes_1.jpg,Blue_Triangle_Chess_1.jpg,Green_Plus_Grid_4.jpg,left,873.7399999517947,true,NA,NA,NA,NA,NA,NA,NA,NA,true
Do6i9Sv4,3ba7sxog2m30f57lxuc2l92uxdc8rv,34s6n1k2zzwks2bvmgee1uilhvglhu,Do6i9Sv4,2020-0188,2020-06-04,09:37:05,09:54:50,NA,incomplete,34,number,1,0,right,Green_Plus_Stripes_3.jpg,Green_Circle_Dots_4.jpg,Red_Triangle_Grid_3.jpg,right,854.3750001117587,true,NA,NA,NA,NA,NA,NA,NA,NA,true
Do6i9Sv4,3ba7sxog2m30f57lxuc2l92uxdc8rv,34s6n1k2zzwks2bvmgee1uilhvglhu,Do6i9Sv4,2020-0188,2020-06-04,09:37:05,09:54:50,NA,incomplete,35,number,1,0,left,Blue_Star_Dots_4.jpg,Red_Triangle_Chess_4.jpg,Blue_Circle_Stripes_2.jpg,left,822.5800001528114,true,NA,NA,NA,NA,NA,NA,NA,NA,true
Do6i9Sv4,3ba7sxog2m30f57lxuc2l92uxdc8rv,34s6n1k2zzwks2bvmgee1uilhvglhu,Do6i9Sv4,2020-0188,2020-06-04,09:37:05,09:54:50,NA,incomplete,36,number,1,1,right,Blue_Star_Stripes_1.jpg,Blue_Circle_Chess_2.jpg,Purple_Triangle_Grid_1.jpg,right,836.5799998864532,true,NA,NA,NA,NA,NA,NA,NA,NA,true
Do6i9Sv4,3ba7sxog2m30f57lxuc2l92uxdc8rv,34s6n1k2zzwks2bvmgee1uilhvglhu,Do6i9Sv4,2020-0188,2020-06-04,09:37:05,09:54:50,NA,incomplete,37,number,1,1,right,Purple_Circle_Dots_2.jpg,Purple_Triangle_Chess_3.jpg,Green_Star_Grid_2.jpg,right,980.5799999739975,true,NA,NA,NA,NA,NA,NA,NA,NA,true
Do6i9Sv4,3ba7sxog2m30f57lxuc2l92uxdc8rv,34s6n1k2zzwks2bvmgee1uilhvglhu,Do6i9Sv4,2020-0188,2020-06-04,09:37:05,09:54:50,NA,incomplete,38,number,1,1,right,Purple_Star_Grid_4.jpg,Purple_Circle_Stripes_3.jpg,Blue_Triangle_Dots_4.jpg,right,972.5550001021475,true,NA,NA,NA,NA,NA,NA,NA,NA,true
Do6i9Sv4,3ba7sxog2m30f57lxuc2l92uxdc8rv,34s6n1k2zzwks2bvmgee1uilhvglhu,Do6i9Sv4,2020-0188,2020-06-04,09:37:05,09:54:50,NA,incomplete,39,number,1,1,right,Green_Circle_Chess_3.jpg,Green_Triangle_Grid_2.jpg,Blue_Plus_Stripes_3.jpg,right,825.9900000412017,true,NA,NA,NA,NA,NA,NA,NA,NA,true
Do6i9Sv4,3ba7sxog2m30f57lxuc2l92uxdc8rv,34s6n1k2zzwks2bvmgee1uilhvglhu,Do6i9Sv4,2020-0188,2020-06-04,09:37:05,09:54:50,NA,incomplete,0,color,0,1,left,Green_Triangle_Dots_2.jpg,Green_Plus_Stripes_3.jpg,Blue_Star_Chess_2.jpg,left,687.1450000908226,true,high,NA,NA,NA,NA,NA,NA,NA,false
Do6i9Sv4,3ba7sxog2m30f57lxuc2l92uxdc8rv,34s6n1k2zzwks2bvmgee1uilhvglhu,Do6i9Sv4,2020-0188,2020-06-04,09:37:05,09:54:50,NA,incomplete,1,color,0,1,right,Blue_Triangle_Chess_4.jpg,Red_Circle_Dots_4.jpg,Blue_Star_Stripes_3.jpg,right,513.2649999577552,true,high,NA,NA,NA,NA,NA,NA,NA,false
Do6i9Sv4,3ba7sxog2m30f57lxuc2l92uxdc8rv,34s6n1k2zzwks2bvmgee1uilhvglhu,Do6i9Sv4,2020-0188,2020-06-04,09:37:05,09:54:50,NA,incomplete,2,color,0,0,left,Blue_Circle_Dots_4.jpg,Blue_Triangle_Grid_3.jpg,Red_Star_Chess_4.jpg,left,603.7149999756366,true,high,NA,NA,NA,NA,NA,NA,NA,false
Do6i9Sv4,3ba7sxog2m30f57lxuc2l92uxdc8rv,34s6n1k2zzwks2bvmgee1uilhvglhu,Do6i9Sv4,2020-0188,2020-06-04,09:37:05,09:54:50,NA,incomplete,3,color,0,0,right,Blue_Star_Chess_3.jpg,Green_Circle_Grid_3.jpg,Blue_Triangle_Stripes_4.jpg,right,516.5299999061972,true,high,NA,NA,NA,NA,NA,NA,NA,false
Do6i9Sv4,3ba7sxog2m30f57lxuc2l92uxdc8rv,34s6n1k2zzwks2bvmgee1uilhvglhu,Do6i9Sv4,2020-0188,2020-06-04,09:37:05,09:54:50,NA,incomplete,4,color,0,1,right,Blue_Plus_Chess_2.jpg,Purple_Star_Dots_2.jpg,Blue_Triangle_Stripes_1.jpg,right,556.7550000268966,true,high,NA,NA,NA,NA,NA,NA,NA,false
Do6i9Sv4,3ba7sxog2m30f57lxuc2l92uxdc8rv,34s6n1k2zzwks2bvmgee1uilhvglhu,Do6i9Sv4,2020-0188,2020-06-04,09:37:05,09:54:50,NA,incomplete,5,color,0,1,right,Blue_Star_Grid_1.jpg,Purple_Circle_Stripes_1.jpg,Blue_Plus_Chess_4.jpg,right,479.5699999667704,true,high,NA,NA,NA,NA,NA,NA,NA,false
Do6i9Sv4,3ba7sxog2m30f57lxuc2l92uxdc8rv,34s6n1k2zzwks2bvmgee1uilhvglhu,Do6i9Sv4,2020-0188,2020-06-04,09:37:05,09:54:50,NA,incomplete,6,color,0,1,left,Blue_Triangle_Stripes_3.jpg,Blue_Plus_Dots_4.jpg,Red_Circle_Chess_3.jpg,left,506.9349999539554,true,high,NA,NA,NA,NA,NA,NA,NA,false
Do6i9Sv4,3ba7sxog2m30f57lxuc2l92uxdc8rv,34s6n1k2zzwks2bvmgee1uilhvglhu,Do6i9Sv4,2020-0188,2020-06-04,09:37:05,09:54:50,NA,incomplete,7,color,0,1,right,Red_Star_Stripes_2.jpg,Purple_Triangle_Grid_2.jpg,Red_Circle_Chess_1.jpg,right,469.6200001053512,true,high,NA,NA,NA,NA,NA,NA,NA,false
Do6i9Sv4,3ba7sxog2m30f57lxuc2l92uxdc8rv,34s6n1k2zzwks2bvmgee1uilhvglhu,Do6i9Sv4,2020-0188,2020-06-04,09:37:05,09:54:50,NA,incomplete,8,color,0,1,right,Blue_Circle_Dots_2.jpg,Red_Star_Grid_2.jpg,Blue_Triangle_Chess_3.jpg,right,513.0700001027435,true,high,NA,NA,NA,NA,NA,NA,NA,false
Do6i9Sv4,3ba7sxog2m30f57lxuc2l92uxdc8rv,34s6n1k2zzwks2bvmgee1uilhvglhu,Do6i9Sv4,2020-0188,2020-06-04,09:37:05,09:54:50,NA,incomplete,9,color,0,1,right,Blue_Plus_Stripes_2.jpg,Green_Triangle_Grid_2.jpg,Blue_Circle_Chess_3.jpg,right,501.55499996617436,true,high,NA,NA,NA,NA,NA,NA,NA,false
Do6i9Sv4,3ba7sxog2m30f57lxuc2l92uxdc8rv,34s6n1k2zzwks2bvmgee1uilhvglhu,Do6i9Sv4,2020-0188,2020-06-04,09:37:05,09:54:50,NA,incomplete,10,number,1,1,left,Red_Triangle_Grid_3.jpg,Purple_Circle_Chess_3.jpg,Red_Plus_Stripes_2.jpg,right,614.8999999277294,false,high,NA,NA,NA,NA,NA,NA,NA,false
Do6i9Sv4,3ba7sxog2m30f57lxuc2l92uxdc8rv,34s6n1k2zzwks2bvmgee1uilhvglhu,Do6i9Sv4,2020-0188,2020-06-04,09:37:05,09:54:50,NA,incomplete,11,number,1,1,right,Blue_Triangle_Chess_2.jpg,Blue_Circle_Stripes_3.jpg,Red_Plus_Dots_2.jpg,left,443.33000015467405,false,high,NA,NA,NA,NA,NA,NA,NA,false
Do6i9Sv4,3ba7sxog2m30f57lxuc2l92uxdc8rv,34s6n1k2zzwks2bvmgee1uilhvglhu,Do6i9Sv4,2020-0188,2020-06-04,09:37:05,09:54:50,NA,incomplete,12,number,1,0,right,Green_Triangle_Stripes_3.jpg,Green_Circle_Grid_4.jpg,Purple_Plus_Chess_3.jpg,left,479.4250000268221,false,high,NA,NA,NA,NA,NA,NA,NA,false
Do6i9Sv4,3ba7sxog2m30f57lxuc2l92uxdc8rv,34s6n1k2zzwks2bvmgee1uilhvglhu,Do6i9Sv4,2020-0188,2020-06-04,09:37:05,09:54:50,NA,incomplete,13,number,1,1,left,Blue_Star_Dots_1.jpg,Purple_Plus_Chess_1.jpg,Blue_Circle_Stripes_4.jpg,right,454.5149998739362,false,high,NA,NA,NA,NA,NA,NA,NA,false
Do6i9Sv4,3ba7sxog2m30f57lxuc2l92uxdc8rv,34s6n1k2zzwks2bvmgee1uilhvglhu,Do6i9Sv4,2020-0188,2020-06-04,09:37:05,09:54:50,NA,incomplete,14,number,1,1,left,Purple_Triangle_Dots_3.jpg,Red_Star_Stripes_3.jpg,Purple_Plus_Chess_2.jpg,right,492.1699999831617,false,high,NA,NA,NA,NA,NA,NA,NA,false
Do6i9Sv4,3ba7sxog2m30f57lxuc2l92uxdc8rv,34s6n1k2zzwks2bvmgee1uilhvglhu,Do6i9Sv4,2020-0188,2020-06-04,09:37:05,09:54:50,NA,incomplete,15,number,1,0,left,Red_Circle_Stripes_2.jpg,Purple_Plus_Grid_2.jpg,Red_Star_Chess_4.jpg,left,889.5600000396371,true,high,NA,NA,NA,NA,NA,NA,NA,false
Do6i9Sv4,3ba7sxog2m30f57lxuc2l92uxdc8rv,34s6n1k2zzwks2bvmgee1uilhvglhu,Do6i9Sv4,2020-0188,2020-06-04,09:37:05,09:54:50,NA,incomplete,16,number,1,0,left,Green_Star_Chess_1.jpg,Blue_Triangle_Dots_1.jpg,Green_Plus_Stripes_4.jpg,left,859.859999967739,true,high,NA,NA,NA,NA,NA,NA,NA,false
Do6i9Sv4,3ba7sxog2m30f57lxuc2l92uxdc8rv,34s6n1k2zzwks2bvmgee1uilhvglhu,Do6i9Sv4,2020-0188,2020-06-04,09:37:05,09:54:50,NA,incomplete,17,number,1,1,right,Purple_Star_Chess_3.jpg,Purple_Circle_Grid_2.jpg,Blue_Triangle_Dots_3.jpg,left,513.4850000031292,false,high,NA,NA,NA,NA,NA,NA,NA,false
Do6i9Sv4,3ba7sxog2m30f57lxuc2l92uxdc8rv,34s6n1k2zzwks2bvmgee1uilhvglhu,Do6i9Sv4,2020-0188,2020-06-04,09:37:05,09:54:50,NA,incomplete,18,number,1,1,right,Purple_Plus_Stripes_3.jpg,Purple_Triangle_Chess_2.jpg,Red_Circle_Dots_3.jpg,left,712.2299999464303,false,high,NA,NA,NA,NA,NA,NA,NA,false
Do6i9Sv4,3ba7sxog2m30f57lxuc2l92uxdc8rv,34s6n1k2zzwks2bvmgee1uilhvglhu,Do6i9Sv4,2020-0188,2020-06-04,09:37:05,09:54:50,NA,incomplete,19,number,1,1,left,Blue_Star_Stripes_2.jpg,Purple_Triangle_Chess_2.jpg,Blue_Circle_Grid_1.jpg,left,895.7599999848753,true,high,NA,NA,NA,NA,NA,NA,NA,false
Do6i9Sv4,3ba7sxog2m30f57lxuc2l92uxdc8rv,34s6n1k2zzwks2bvmgee1uilhvglhu,Do6i9Sv4,2020-0188,2020-06-04,09:37:05,09:54:50,NA,incomplete,20,color,0,1,left,Red_Circle_Stripes_2.jpg,Red_Plus_Dots_4.jpg,Green_Star_Grid_2.jpg,right,769.1399999894202,false,high,NA,NA,NA,NA,NA,NA,NA,false
Do6i9Sv4,3ba7sxog2m30f57lxuc2l92uxdc8rv,34s6n1k2zzwks2bvmgee1uilhvglhu,Do6i9Sv4,2020-0188,2020-06-04,09:37:05,09:54:50,NA,incomplete,21,color,0,1,left,Blue_Circle_Grid_2.jpg,Blue_Triangle_Chess_3.jpg,Green_Plus_Dots_2.jpg,right,825.4100000485778,false,high,NA,NA,NA,NA,NA,NA,NA,false
Do6i9Sv4,3ba7sxog2m30f57lxuc2l92uxdc8rv,34s6n1k2zzwks2bvmgee1uilhvglhu,Do6i9Sv4,2020-0188,2020-06-04,09:37:05,09:54:50,NA,incomplete,22,color,0,1,left,Blue_Triangle_Chess_1.jpg,Blue_Star_Grid_4.jpg,Green_Circle_Stripes_1.jpg,right,902.4799999315292,false,high,NA,NA,NA,NA,NA,NA,NA,false
Do6i9Sv4,3ba7sxog2m30f57lxuc2l92uxdc8rv,34s6n1k2zzwks2bvmgee1uilhvglhu,Do6i9Sv4,2020-0188,2020-06-04,09:37:05,09:54:50,NA,incomplete,23,color,0,0,right,Blue_Circle_Grid_3.jpg,Purple_Star_Chess_3.jpg,Blue_Triangle_Stripes_2.jpg,right,691.2950000260025,true,high,NA,NA,NA,NA,NA,NA,NA,false
Do6i9Sv4,3ba7sxog2m30f57lxuc2l92uxdc8rv,34s6n1k2zzwks2bvmgee1uilhvglhu,Do6i9Sv4,2020-0188,2020-06-04,09:37:05,09:54:50,NA,incomplete,24,color,0,1,left,Blue_Triangle_Chess_1.jpg,Blue_Plus_Dots_3.jpg,Purple_Star_Grid_1.jpg,left,1442.6549999043345,true,high,NA,NA,NA,NA,NA,NA,NA,false
Do6i9Sv4,3ba7sxog2m30f57lxuc2l92uxdc8rv,34s6n1k2zzwks2bvmgee1uilhvglhu,Do6i9Sv4,2020-0188,2020-06-04,09:37:05,09:54:50,NA,incomplete,25,color,0,1,right,Blue_Star_Chess_1.jpg,Green_Circle_Dots_1.jpg,Blue_Plus_Stripes_3.jpg,right,1246.3849999476224,true,high,NA,NA,NA,NA,NA,NA,NA,false
Do6i9Sv4,3ba7sxog2m30f57lxuc2l92uxdc8rv,34s6n1k2zzwks2bvmgee1uilhvglhu,Do6i9Sv4,2020-0188,2020-06-04,09:37:05,09:54:50,NA,incomplete,26,color,0,1,left,Green_Plus_Stripes_2.jpg,Green_Star_Dots_3.jpg,Blue_Circle_Grid_2.jpg,left,786.8550000712276,true,high,NA,NA,NA,NA,NA,NA,NA,false
Do6i9Sv4,3ba7sxog2m30f57lxuc2l92uxdc8rv,34s6n1k2zzwks2bvmgee1uilhvglhu,Do6i9Sv4,2020-0188,2020-06-04,09:37:05,09:54:50,NA,incomplete,27,color,0,0,right,Purple_Circle_Grid_2.jpg,Green_Triangle_Dots_2.jpg,Purple_Plus_Stripes_1.jpg,right,833.2199999131262,true,high,NA,NA,NA,NA,NA,NA,NA,false
Do6i9Sv4,3ba7sxog2m30f57lxuc2l92uxdc8rv,34s6n1k2zzwks2bvmgee1uilhvglhu,Do6i9Sv4,2020-0188,2020-06-04,09:37:05,09:54:50,NA,incomplete,28,color,0,1,right,Blue_Star_Chess_3.jpg,Green_Plus_Stripes_3.jpg,Blue_Circle_Dots_4.jpg,right,633.6799999698997,true,high,NA,NA,NA,NA,NA,NA,NA,false
Do6i9Sv4,3ba7sxog2m30f57lxuc2l92uxdc8rv,34s6n1k2zzwks2bvmgee1uilhvglhu,Do6i9Sv4,2020-0188,2020-06-04,09:37:05,09:54:50,NA,incomplete,29,color,0,1,right,Blue_Triangle_Dots_4.jpg,Green_Plus_Stripes_4.jpg,Blue_Star_Chess_2.jpg,right,484.29500008933246,true,high,NA,NA,NA,NA,NA,NA,NA,false
Do6i9Sv4,3ba7sxog2m30f57lxuc2l92uxdc8rv,34s6n1k2zzwks2bvmgee1uilhvglhu,Do6i9Sv4,2020-0188,2020-06-04,09:37:05,09:54:50,NA,incomplete,30,number,1,1,right,Green_Star_Dots_3.jpg,Green_Triangle_Stripes_2.jpg,Red_Plus_Grid_3.jpg,left,626.0699999984354,false,high,NA,NA,NA,NA,NA,NA,NA,false
Do6i9Sv4,3ba7sxog2m30f57lxuc2l92uxdc8rv,34s6n1k2zzwks2bvmgee1uilhvglhu,Do6i9Sv4,2020-0188,2020-06-04,09:37:05,09:54:50,NA,incomplete,31,number,1,1,left,Blue_Triangle_Chess_4.jpg,Red_Plus_Stripes_4.jpg,Blue_Star_Grid_1.jpg,right,531.6899998579174,false,high,NA,NA,NA,NA,NA,NA,NA,false
Do6i9Sv4,3ba7sxog2m30f57lxuc2l92uxdc8rv,34s6n1k2zzwks2bvmgee1uilhvglhu,Do6i9Sv4,2020-0188,2020-06-04,09:37:05,09:54:50,NA,incomplete,32,number,1,1,right,Purple_Star_Stripes_3.jpg,Purple_Circle_Dots_1.jpg,Green_Triangle_Grid_3.jpg,left,581.6950001753867,false,high,NA,NA,NA,NA,NA,NA,NA,false
Do6i9Sv4,3ba7sxog2m30f57lxuc2l92uxdc8rv,34s6n1k2zzwks2bvmgee1uilhvglhu,Do6i9Sv4,2020-0188,2020-06-04,09:37:05,09:54:50,NA,incomplete,33,number,1,1,right,Green_Circle_Stripes_4.jpg,Green_Plus_Chess_2.jpg,Red_Star_Dots_4.jpg,left,492.43499990552664,false,high,NA,NA,NA,NA,NA,NA,NA,false
Do6i9Sv4,3ba7sxog2m30f57lxuc2l92uxdc8rv,34s6n1k2zzwks2bvmgee1uilhvglhu,Do6i9Sv4,2020-0188,2020-06-04,09:37:05,09:54:50,NA,incomplete,34,number,1,1,right,Purple_Star_Stripes_3.jpg,Purple_Plus_Chess_1.jpg,Red_Triangle_Grid_3.jpg,right,723.6399999819696,true,high,NA,NA,NA,NA,NA,NA,NA,false
Do6i9Sv4,3ba7sxog2m30f57lxuc2l92uxdc8rv,34s6n1k2zzwks2bvmgee1uilhvglhu,Do6i9Sv4,2020-0188,2020-06-04,09:37:05,09:54:50,NA,incomplete,35,number,1,1,right,Green_Circle_Chess_3.jpg,Green_Triangle_Grid_2.jpg,Red_Star_Dots_3.jpg,right,596.7399999499321,true,high,NA,NA,NA,NA,NA,NA,NA,false
Do6i9Sv4,3ba7sxog2m30f57lxuc2l92uxdc8rv,34s6n1k2zzwks2bvmgee1uilhvglhu,Do6i9Sv4,2020-0188,2020-06-04,09:37:05,09:54:50,NA,incomplete,36,number,1,1,left,Green_Circle_Chess_1.jpg,Purple_Plus_Grid_1.jpg,Green_Star_Dots_3.jpg,left,1295.4800000879914,true,high,NA,NA,NA,NA,NA,NA,NA,false
Do6i9Sv4,3ba7sxog2m30f57lxuc2l92uxdc8rv,34s6n1k2zzwks2bvmgee1uilhvglhu,Do6i9Sv4,2020-0188,2020-06-04,09:37:05,09:54:50,NA,incomplete,37,number,1,0,left,Green_Circle_Chess_2.jpg,Purple_Star_Dots_2.jpg,Green_Triangle_Grid_3.jpg,left,694.2200001794845,true,high,NA,NA,NA,NA,NA,NA,NA,false
Do6i9Sv4,3ba7sxog2m30f57lxuc2l92uxdc8rv,34s6n1k2zzwks2bvmgee1uilhvglhu,Do6i9Sv4,2020-0188,2020-06-04,09:37:05,09:54:50,NA,incomplete,38,number,1,1,right,Purple_Triangle_Dots_3.jpg,Purple_Star_Stripes_1.jpg,Green_Plus_Grid_3.jpg,right,865.809999871999,true,high,NA,NA,NA,NA,NA,NA,NA,false
Do6i9Sv4,3ba7sxog2m30f57lxuc2l92uxdc8rv,34s6n1k2zzwks2bvmgee1uilhvglhu,Do6i9Sv4,2020-0188,2020-06-04,09:37:05,09:54:50,NA,incomplete,39,number,1,0,left,Purple_Triangle_Dots_3.jpg,Green_Circle_Grid_3.jpg,Purple_Star_Stripes_2.jpg,left,688.6350000277162,true,high,NA,NA,NA,NA,NA,NA,NA,false
Do6i9Sv4,3ba7sxog2m30f57lxuc2l92uxdc8rv,34s6n1k2zzwks2bvmgee1uilhvglhu,Do6i9Sv4,2020-0188,2020-06-04,09:37:05,09:54:50,NA,incomplete,40,color,0,0,left,Green_Circle_Stripes_1.jpg,Green_Star_Dots_2.jpg,Blue_Plus_Grid_1.jpg,right,859.7150000277907,false,high,NA,NA,NA,NA,NA,NA,NA,false
Do6i9Sv4,3ba7sxog2m30f57lxuc2l92uxdc8rv,34s6n1k2zzwks2bvmgee1uilhvglhu,Do6i9Sv4,2020-0188,2020-06-04,09:37:05,09:54:50,NA,incomplete,41,color,0,1,left,Purple_Plus_Stripes_4.jpg,Purple_Circle_Grid_2.jpg,Green_Star_Chess_4.jpg,right,698.4900000970811,false,high,NA,NA,NA,NA,NA,NA,NA,false
Do6i9Sv4,3ba7sxog2m30f57lxuc2l92uxdc8rv,34s6n1k2zzwks2bvmgee1uilhvglhu,Do6i9Sv4,2020-0188,2020-06-04,09:37:05,09:54:50,NA,incomplete,42,color,0,1,left,Red_Circle_Dots_2.jpg,Red_Star_Chess_4.jpg,Purple_Triangle_Grid_2.jpg,right,712.8200000151992,false,high,NA,NA,NA,NA,NA,NA,NA,false
Do6i9Sv4,3ba7sxog2m30f57lxuc2l92uxdc8rv,34s6n1k2zzwks2bvmgee1uilhvglhu,Do6i9Sv4,2020-0188,2020-06-04,09:37:05,09:54:50,NA,incomplete,43,color,0,0,right,Green_Star_Grid_3.jpg,Red_Plus_Dots_3.jpg,Green_Circle_Stripes_2.jpg,left,742.1800000593066,false,high,NA,NA,NA,NA,NA,NA,NA,false
Do6i9Sv4,3ba7sxog2m30f57lxuc2l92uxdc8rv,34s6n1k2zzwks2bvmgee1uilhvglhu,Do6i9Sv4,2020-0188,2020-06-04,09:37:05,09:54:50,NA,incomplete,44,color,0,1,right,Purple_Triangle_Chess_1.jpg,Green_Star_Grid_1.jpg,Purple_Circle_Stripes_4.jpg,left,659.9250000435859,false,high,NA,NA,NA,NA,NA,NA,NA,false
Do6i9Sv4,3ba7sxog2m30f57lxuc2l92uxdc8rv,34s6n1k2zzwks2bvmgee1uilhvglhu,Do6i9Sv4,2020-0188,2020-06-04,09:37:05,09:54:50,NA,incomplete,45,color,0,1,right,Red_Circle_Chess_3.jpg,Purple_Star_Grid_3.jpg,Red_Plus_Stripes_1.jpg,left,687.5050000380725,false,high,NA,NA,NA,NA,NA,NA,NA,false
Do6i9Sv4,3ba7sxog2m30f57lxuc2l92uxdc8rv,34s6n1k2zzwks2bvmgee1uilhvglhu,Do6i9Sv4,2020-0188,2020-06-04,09:37:05,09:54:50,NA,incomplete,46,color,0,1,right,Blue_Star_Grid_1.jpg,Purple_Plus_Chess_1.jpg,Blue_Triangle_Dots_4.jpg,left,741.7150000110269,false,high,NA,NA,NA,NA,NA,NA,NA,false
Do6i9Sv4,3ba7sxog2m30f57lxuc2l92uxdc8rv,34s6n1k2zzwks2bvmgee1uilhvglhu,Do6i9Sv4,2020-0188,2020-06-04,09:37:05,09:54:50,NA,incomplete,47,color,0,1,right,Green_Triangle_Stripes_1.jpg,Blue_Plus_Grid_1.jpg,Green_Star_Chess_2.jpg,left,894.4650001358241,false,high,NA,NA,NA,NA,NA,NA,NA,false
Do6i9Sv4,3ba7sxog2m30f57lxuc2l92uxdc8rv,34s6n1k2zzwks2bvmgee1uilhvglhu,Do6i9Sv4,2020-0188,2020-06-04,09:37:05,09:54:50,NA,incomplete,48,color,0,0,left,Purple_Plus_Stripes_1.jpg,Purple_Circle_Grid_4.jpg,Green_Triangle_Dots_1.jpg,left,954.1849999222904,true,high,NA,NA,NA,NA,NA,NA,NA,false
Do6i9Sv4,3ba7sxog2m30f57lxuc2l92uxdc8rv,34s6n1k2zzwks2bvmgee1uilhvglhu,Do6i9Sv4,2020-0188,2020-06-04,09:37:05,09:54:50,NA,incomplete,49,color,0,0,right,Green_Plus_Dots_4.jpg,Purple_Triangle_Grid_4.jpg,Green_Circle_Stripes_3.jpg,right,949.0300000179559,true,high,NA,NA,NA,NA,NA,NA,NA,false
Do6i9Sv4,3ba7sxog2m30f57lxuc2l92uxdc8rv,34s6n1k2zzwks2bvmgee1uilhvglhu,Do6i9Sv4,2020-0188,2020-06-04,09:37:05,09:54:50,NA,incomplete,50,number,1,0,left,Red_Circle_Stripes_1.jpg,Green_Star_Chess_1.jpg,Red_Plus_Dots_4.jpg,right,687.7699999604374,false,high,NA,NA,NA,NA,NA,NA,NA,false
Do6i9Sv4,3ba7sxog2m30f57lxuc2l92uxdc8rv,34s6n1k2zzwks2bvmgee1uilhvglhu,Do6i9Sv4,2020-0188,2020-06-04,09:37:05,09:54:50,NA,incomplete,51,number,1,1,right,Green_Star_Stripes_3.jpg,Green_Circle_Dots_1.jpg,Blue_Triangle_Chess_3.jpg,right,568.8099998515099,true,high,NA,NA,NA,NA,NA,NA,NA,false
Do6i9Sv4,3ba7sxog2m30f57lxuc2l92uxdc8rv,34s6n1k2zzwks2bvmgee1uilhvglhu,Do6i9Sv4,2020-0188,2020-06-04,09:37:05,09:54:50,NA,incomplete,52,number,1,1,right,Red_Star_Dots_3.jpg,Red_Plus_Grid_2.jpg,Blue_Circle_Stripes_3.jpg,right,671.8900001142174,true,high,NA,NA,NA,NA,NA,NA,NA,false
Do6i9Sv4,3ba7sxog2m30f57lxuc2l92uxdc8rv,34s6n1k2zzwks2bvmgee1uilhvglhu,Do6i9Sv4,2020-0188,2020-06-04,09:37:05,09:54:50,NA,incomplete,53,number,1,1,right,Red_Star_Dots_4.jpg,Red_Plus_Grid_2.jpg,Blue_Circle_Stripes_4.jpg,right,695.4349998850375,true,high,NA,NA,NA,NA,NA,NA,NA,false
Do6i9Sv4,3ba7sxog2m30f57lxuc2l92uxdc8rv,34s6n1k2zzwks2bvmgee1uilhvglhu,Do6i9Sv4,2020-0188,2020-06-04,09:37:05,09:54:50,NA,incomplete,54,number,1,1,right,Green_Star_Dots_1.jpg,Green_Plus_Grid_3.jpg,Red_Circle_Stripes_1.jpg,right,1328.5399999003857,true,high,NA,NA,NA,NA,NA,NA,NA,false
Do6i9Sv4,3ba7sxog2m30f57lxuc2l92uxdc8rv,34s6n1k2zzwks2bvmgee1uilhvglhu,Do6i9Sv4,2020-0188,2020-06-04,09:37:05,09:54:50,NA,incomplete,55,number,1,1,left,Red_Plus_Chess_4.jpg,Blue_Star_Grid_4.jpg,Red_Circle_Dots_1.jpg,left,1080.7149999309331,true,high,NA,NA,NA,NA,NA,NA,NA,false
Do6i9Sv4,3ba7sxog2m30f57lxuc2l92uxdc8rv,34s6n1k2zzwks2bvmgee1uilhvglhu,Do6i9Sv4,2020-0188,2020-06-04,09:37:05,09:54:50,NA,incomplete,56,number,1,1,left,Red_Plus_Dots_1.jpg,Green_Triangle_Stripes_1.jpg,Red_Star_Chess_4.jpg,left,667.9750001057982,true,high,NA,NA,NA,NA,NA,NA,NA,false
Do6i9Sv4,3ba7sxog2m30f57lxuc2l92uxdc8rv,34s6n1k2zzwks2bvmgee1uilhvglhu,Do6i9Sv4,2020-0188,2020-06-04,09:37:05,09:54:50,NA,incomplete,57,number,1,1,right,Blue_Star_Dots_4.jpg,Blue_Plus_Chess_2.jpg,Red_Triangle_Grid_4.jpg,right,653.870000038296,true,high,NA,NA,NA,NA,NA,NA,NA,false
Do6i9Sv4,3ba7sxog2m30f57lxuc2l92uxdc8rv,34s6n1k2zzwks2bvmgee1uilhvglhu,Do6i9Sv4,2020-0188,2020-06-04,09:37:05,09:54:50,NA,incomplete,58,number,1,1,left,Purple_Circle_Chess_1.jpg,Blue_Plus_Dots_1.jpg,Purple_Star_Grid_4.jpg,left,622.5499999709427,true,high,NA,NA,NA,NA,NA,NA,NA,false
Do6i9Sv4,3ba7sxog2m30f57lxuc2l92uxdc8rv,34s6n1k2zzwks2bvmgee1uilhvglhu,Do6i9Sv4,2020-0188,2020-06-04,09:37:05,09:54:50,NA,incomplete,59,number,1,0,right,Purple_Plus_Dots_3.jpg,Purple_Star_Grid_1.jpg,Blue_Circle_Chess_3.jpg,right,710.010000038892,true,high,NA,NA,NA,NA,NA,NA,NA,false
Do6i9Sv4,3ba7sxog2m30f57lxuc2l92uxdc8rv,34s6n1k2zzwks2bvmgee1uilhvglhu,Do6i9Sv4,2020-0188,2020-06-04,09:37:05,09:54:50,NA,incomplete,60,color,0,1,right,Green_Triangle_Stripes_1.jpg,Red_Star_Dots_1.jpg,Green_Plus_Chess_4.jpg,left,866.490000160411,false,high,NA,NA,NA,NA,NA,NA,NA,false
Do6i9Sv4,3ba7sxog2m30f57lxuc2l92uxdc8rv,34s6n1k2zzwks2bvmgee1uilhvglhu,Do6i9Sv4,2020-0188,2020-06-04,09:37:05,09:54:50,NA,incomplete,61,color,0,0,right,Blue_Plus_Dots_3.jpg,Purple_Star_Grid_3.jpg,Blue_Triangle_Stripes_1.jpg,left,1019.4900000933558,false,high,NA,NA,NA,NA,NA,NA,NA,false
Do6i9Sv4,3ba7sxog2m30f57lxuc2l92uxdc8rv,34s6n1k2zzwks2bvmgee1uilhvglhu,Do6i9Sv4,2020-0188,2020-06-04,09:37:05,09:54:50,NA,incomplete,62,color,0,1,left,Green_Plus_Chess_1.jpg,Green_Circle_Dots_3.jpg,Purple_Star_Grid_1.jpg,right,1095.3100000042468,false,high,NA,NA,NA,NA,NA,NA,NA,false
Do6i9Sv4,3ba7sxog2m30f57lxuc2l92uxdc8rv,34s6n1k2zzwks2bvmgee1uilhvglhu,Do6i9Sv4,2020-0188,2020-06-04,09:37:05,09:54:50,NA,incomplete,63,color,0,1,left,Red_Star_Grid_3.jpg,Red_Circle_Stripes_2.jpg,Green_Triangle_Chess_3.jpg,right,837.5750000122935,false,high,NA,NA,NA,NA,NA,NA,NA,false
Do6i9Sv4,3ba7sxog2m30f57lxuc2l92uxdc8rv,34s6n1k2zzwks2bvmgee1uilhvglhu,Do6i9Sv4,2020-0188,2020-06-04,09:37:05,09:54:50,NA,incomplete,64,color,0,1,left,Purple_Star_Stripes_3.jpg,Purple_Triangle_Dots_4.jpg,Red_Plus_Grid_3.jpg,right,878.9450000040233,false,high,NA,NA,NA,NA,NA,NA,NA,false
Do6i9Sv4,3ba7sxog2m30f57lxuc2l92uxdc8rv,34s6n1k2zzwks2bvmgee1uilhvglhu,Do6i9Sv4,2020-0188,2020-06-04,09:37:05,09:54:50,NA,incomplete,65,color,0,1,right,Blue_Star_Chess_4.jpg,Red_Triangle_Dots_4.jpg,Blue_Circle_Grid_3.jpg,right,674.8149998020381,true,high,NA,NA,NA,NA,NA,NA,NA,false
Do6i9Sv4,3ba7sxog2m30f57lxuc2l92uxdc8rv,34s6n1k2zzwks2bvmgee1uilhvglhu,Do6i9Sv4,2020-0188,2020-06-04,09:37:05,09:54:50,NA,incomplete,66,color,0,1,left,Green_Plus_Stripes_3.jpg,Green_Star_Chess_4.jpg,Blue_Circle_Dots_3.jpg,left,867.4000001046807,true,high,NA,NA,NA,NA,NA,NA,NA,false
Do6i9Sv4,3ba7sxog2m30f57lxuc2l92uxdc8rv,34s6n1k2zzwks2bvmgee1uilhvglhu,Do6i9Sv4,2020-0188,2020-06-04,09:37:05,09:54:50,NA,incomplete,67,color,0,1,right,Red_Star_Grid_1.jpg,Purple_Circle_Chess_1.jpg,Red_Plus_Stripes_4.jpg,right,706.3349999953061,true,high,NA,NA,NA,NA,NA,NA,NA,false
Do6i9Sv4,3ba7sxog2m30f57lxuc2l92uxdc8rv,34s6n1k2zzwks2bvmgee1uilhvglhu,Do6i9Sv4,2020-0188,2020-06-04,09:37:05,09:54:50,NA,incomplete,68,color,0,1,left,Green_Star_Stripes_4.jpg,Green_Plus_Chess_1.jpg,Red_Triangle_Grid_4.jpg,left,1239.6899999585003,true,high,NA,NA,NA,NA,NA,NA,NA,false
Do6i9Sv4,3ba7sxog2m30f57lxuc2l92uxdc8rv,34s6n1k2zzwks2bvmgee1uilhvglhu,Do6i9Sv4,2020-0188,2020-06-04,09:37:05,09:54:50,NA,incomplete,69,color,0,1,right,Green_Plus_Grid_4.jpg,Red_Triangle_Dots_4.jpg,Green_Circle_Stripes_1.jpg,right,567.4600000493228,true,high,NA,NA,NA,NA,NA,NA,NA,false
Do6i9Sv4,3ba7sxog2m30f57lxuc2l92uxdc8rv,34s6n1k2zzwks2bvmgee1uilhvglhu,Do6i9Sv4,2020-0188,2020-06-04,09:37:05,09:54:50,NA,incomplete,70,number,1,1,left,Green_Star_Dots_2.jpg,Red_Triangle_Stripes_2.jpg,Green_Plus_Grid_3.jpg,right,637.7050001174212,false,high,NA,NA,NA,NA,NA,NA,NA,false
Do6i9Sv4,3ba7sxog2m30f57lxuc2l92uxdc8rv,34s6n1k2zzwks2bvmgee1uilhvglhu,Do6i9Sv4,2020-0188,2020-06-04,09:37:05,09:54:50,NA,incomplete,71,number,1,1,left,Blue_Star_Dots_4.jpg,Purple_Triangle_Stripes_4.jpg,Blue_Plus_Grid_3.jpg,right,669.8449999094009,false,high,NA,NA,NA,NA,NA,NA,NA,false
Do6i9Sv4,3ba7sxog2m30f57lxuc2l92uxdc8rv,34s6n1k2zzwks2bvmgee1uilhvglhu,Do6i9Sv4,2020-0188,2020-06-04,09:37:05,09:54:50,NA,incomplete,72,number,1,1,left,Blue_Star_Dots_2.jpg,Purple_Plus_Grid_2.jpg,Blue_Circle_Chess_4.jpg,right,790.8750001806766,false,high,NA,NA,NA,NA,NA,NA,NA,false
Do6i9Sv4,3ba7sxog2m30f57lxuc2l92uxdc8rv,34s6n1k2zzwks2bvmgee1uilhvglhu,Do6i9Sv4,2020-0188,2020-06-04,09:37:05,09:54:50,NA,incomplete,73,number,1,0,left,Purple_Plus_Chess_2.jpg,Green_Circle_Grid_2.jpg,Purple_Star_Dots_1.jpg,left,755.4099999833852,true,high,NA,NA,NA,NA,NA,NA,NA,false
Do6i9Sv4,3ba7sxog2m30f57lxuc2l92uxdc8rv,34s6n1k2zzwks2bvmgee1uilhvglhu,Do6i9Sv4,2020-0188,2020-06-04,09:37:05,09:54:50,NA,incomplete,74,number,1,1,right,Green_Star_Chess_1.jpg,Green_Plus_Dots_2.jpg,Blue_Triangle_Grid_1.jpg,right,723.204999929294,true,high,NA,NA,NA,NA,NA,NA,NA,false
Do6i9Sv4,3ba7sxog2m30f57lxuc2l92uxdc8rv,34s6n1k2zzwks2bvmgee1uilhvglhu,Do6i9Sv4,2020-0188,2020-06-04,09:37:05,09:54:50,NA,incomplete,75,number,1,1,left,Blue_Star_Dots_3.jpg,Green_Triangle_Grid_3.jpg,Blue_Circle_Chess_2.jpg,left,667.5799998920411,true,high,NA,NA,NA,NA,NA,NA,NA,false
Do6i9Sv4,3ba7sxog2m30f57lxuc2l92uxdc8rv,34s6n1k2zzwks2bvmgee1uilhvglhu,Do6i9Sv4,2020-0188,2020-06-04,09:37:05,09:54:50,NA,incomplete,76,number,1,1,left,Purple_Plus_Stripes_4.jpg,Green_Triangle_Chess_4.jpg,Purple_Circle_Grid_3.jpg,left,734.3700001947582,true,high,NA,NA,NA,NA,NA,NA,NA,false
Do6i9Sv4,3ba7sxog2m30f57lxuc2l92uxdc8rv,34s6n1k2zzwks2bvmgee1uilhvglhu,Do6i9Sv4,2020-0188,2020-06-04,09:37:05,09:54:50,NA,incomplete,77,number,1,0,left,Purple_Plus_Chess_4.jpg,Red_Circle_Stripes_4.jpg,Purple_Star_Dots_2.jpg,left,803.1699999701232,true,high,NA,NA,NA,NA,NA,NA,NA,false
Do6i9Sv4,3ba7sxog2m30f57lxuc2l92uxdc8rv,34s6n1k2zzwks2bvmgee1uilhvglhu,Do6i9Sv4,2020-0188,2020-06-04,09:37:05,09:54:50,NA,incomplete,78,number,1,1,right,Blue_Star_Dots_1.jpg,Blue_Circle_Stripes_3.jpg,Green_Plus_Chess_1.jpg,right,1019.7000000625849,true,high,NA,NA,NA,NA,NA,NA,NA,false
Do6i9Sv4,3ba7sxog2m30f57lxuc2l92uxdc8rv,34s6n1k2zzwks2bvmgee1uilhvglhu,Do6i9Sv4,2020-0188,2020-06-04,09:37:05,09:54:50,NA,incomplete,79,number,1,1,left,Green_Plus_Dots_3.jpg,Blue_Triangle_Chess_3.jpg,Green_Circle_Stripes_1.jpg,left,762.590000173077,true,high,NA,NA,NA,NA,NA,NA,NA,false
Do6i9Sv4,3ba7sxog2m30f57lxuc2l92uxdc8rv,34s6n1k2zzwks2bvmgee1uilhvglhu,Do6i9Sv4,2020-0188,2020-06-04,09:37:05,09:54:50,NA,incomplete,80,color,0,1,left,Green_Plus_Dots_4.jpg,Green_Star_Grid_2.jpg,Red_Triangle_Stripes_4.jpg,right,908.2550001330674,false,high,NA,NA,NA,NA,NA,NA,NA,false
Do6i9Sv4,3ba7sxog2m30f57lxuc2l92uxdc8rv,34s6n1k2zzwks2bvmgee1uilhvglhu,Do6i9Sv4,2020-0188,2020-06-04,09:37:05,09:54:50,NA,incomplete,81,color,0,1,right,Blue_Circle_Dots_1.jpg,Green_Star_Chess_1.jpg,Blue_Triangle_Stripes_4.jpg,left,1049.9149998649955,false,high,NA,NA,NA,NA,NA,NA,NA,false
Do6i9Sv4,3ba7sxog2m30f57lxuc2l92uxdc8rv,34s6n1k2zzwks2bvmgee1uilhvglhu,Do6i9Sv4,2020-0188,2020-06-04,09:37:05,09:54:50,NA,incomplete,82,color,0,1,right,Purple_Triangle_Stripes_4.jpg,Green_Star_Grid_4.jpg,Purple_Plus_Dots_1.jpg,left,840.2750000823289,false,high,NA,NA,NA,NA,NA,NA,NA,false
Do6i9Sv4,3ba7sxog2m30f57lxuc2l92uxdc8rv,34s6n1k2zzwks2bvmgee1uilhvglhu,Do6i9Sv4,2020-0188,2020-06-04,09:37:05,09:54:50,NA,incomplete,83,color,0,1,right,Green_Star_Dots_2.jpg,Red_Triangle_Stripes_2.jpg,Green_Circle_Chess_4.jpg,right,597.0300000626594,true,high,NA,NA,NA,NA,NA,NA,NA,false
Do6i9Sv4,3ba7sxog2m30f57lxuc2l92uxdc8rv,34s6n1k2zzwks2bvmgee1uilhvglhu,Do6i9Sv4,2020-0188,2020-06-04,09:37:05,09:54:50,NA,incomplete,84,color,0,1,right,Red_Triangle_Dots_3.jpg,Green_Plus_Chess_3.jpg,Red_Circle_Stripes_1.jpg,right,1348.4000000171363,true,high,NA,NA,NA,NA,NA,NA,NA,false
Do6i9Sv4,3ba7sxog2m30f57lxuc2l92uxdc8rv,34s6n1k2zzwks2bvmgee1uilhvglhu,Do6i9Sv4,2020-0188,2020-06-04,09:37:05,09:54:50,NA,incomplete,85,color,0,0,right,Purple_Plus_Grid_2.jpg,Red_Circle_Chess_2.jpg,Purple_Triangle_Stripes_4.jpg,right,818.6049999203533,true,high,NA,NA,NA,NA,NA,NA,NA,false
Do6i9Sv4,3ba7sxog2m30f57lxuc2l92uxdc8rv,34s6n1k2zzwks2bvmgee1uilhvglhu,Do6i9Sv4,2020-0188,2020-06-04,09:37:05,09:54:50,NA,incomplete,86,color,0,1,left,Green_Triangle_Stripes_4.jpg,Green_Plus_Grid_2.jpg,Purple_Circle_Chess_4.jpg,left,682.2150000371039,true,high,NA,NA,NA,NA,NA,NA,NA,false
Do6i9Sv4,3ba7sxog2m30f57lxuc2l92uxdc8rv,34s6n1k2zzwks2bvmgee1uilhvglhu,Do6i9Sv4,2020-0188,2020-06-04,09:37:05,09:54:50,NA,incomplete,87,color,0,0,left,Red_Circle_Dots_4.jpg,Red_Plus_Chess_1.jpg,Green_Star_Stripes_4.jpg,left,511.170000070706,true,high,NA,NA,NA,NA,NA,NA,NA,false
Do6i9Sv4,3ba7sxog2m30f57lxuc2l92uxdc8rv,34s6n1k2zzwks2bvmgee1uilhvglhu,Do6i9Sv4,2020-0188,2020-06-04,09:37:05,09:54:50,NA,incomplete,88,color,0,1,right,Green_Triangle_Stripes_2.jpg,Blue_Plus_Dots_2.jpg,Green_Star_Grid_1.jpg,right,547.0499999355525,true,high,NA,NA,NA,NA,NA,NA,NA,false
Do6i9Sv4,3ba7sxog2m30f57lxuc2l92uxdc8rv,34s6n1k2zzwks2bvmgee1uilhvglhu,Do6i9Sv4,2020-0188,2020-06-04,09:37:05,09:54:50,NA,incomplete,89,color,0,1,right,Green_Triangle_Dots_1.jpg,Purple_Circle_Grid_1.jpg,Green_Plus_Chess_2.jpg,right,414.589999942109,true,high,NA,NA,NA,NA,NA,NA,NA,false
Do6i9Sv4,3ba7sxog2m30f57lxuc2l92uxdc8rv,34s6n1k2zzwks2bvmgee1uilhvglhu,Do6i9Sv4,2020-0188,2020-06-04,09:37:05,09:54:50,NA,incomplete,90,number,1,1,left,Blue_Circle_Dots_2.jpg,Purple_Plus_Stripes_2.jpg,Blue_Triangle_Grid_4.jpg,right,546.5750000439584,false,high,NA,NA,NA,NA,NA,NA,NA,false
Do6i9Sv4,3ba7sxog2m30f57lxuc2l92uxdc8rv,34s6n1k2zzwks2bvmgee1uilhvglhu,Do6i9Sv4,2020-0188,2020-06-04,09:37:05,09:54:50,NA,incomplete,91,number,1,1,right,Blue_Star_Grid_3.jpg,Blue_Triangle_Dots_2.jpg,Purple_Circle_Chess_3.jpg,left,671.53500020504,false,high,NA,NA,NA,NA,NA,NA,NA,false
Do6i9Sv4,3ba7sxog2m30f57lxuc2l92uxdc8rv,34s6n1k2zzwks2bvmgee1uilhvglhu,Do6i9Sv4,2020-0188,2020-06-04,09:37:05,09:54:50,NA,incomplete,92,number,1,1,right,Green_Plus_Grid_4.jpg,Green_Triangle_Dots_2.jpg,Red_Circle_Stripes_4.jpg,left,576.7700001597404,false,high,NA,NA,NA,NA,NA,NA,NA,false
Do6i9Sv4,3ba7sxog2m30f57lxuc2l92uxdc8rv,34s6n1k2zzwks2bvmgee1uilhvglhu,Do6i9Sv4,2020-0188,2020-06-04,09:37:05,09:54:50,NA,incomplete,93,number,1,1,right,Green_Star_Grid_4.jpg,Green_Circle_Stripes_1.jpg,Red_Plus_Chess_4.jpg,right,655.4849999956787,true,high,NA,NA,NA,NA,NA,NA,NA,false
Do6i9Sv4,3ba7sxog2m30f57lxuc2l92uxdc8rv,34s6n1k2zzwks2bvmgee1uilhvglhu,Do6i9Sv4,2020-0188,2020-06-04,09:37:05,09:54:50,NA,incomplete,94,number,1,1,right,Green_Triangle_Stripes_1.jpg,Green_Plus_Dots_2.jpg,Purple_Star_Grid_1.jpg,right,1144.7000000625849,true,high,NA,NA,NA,NA,NA,NA,NA,false
Do6i9Sv4,3ba7sxog2m30f57lxuc2l92uxdc8rv,34s6n1k2zzwks2bvmgee1uilhvglhu,Do6i9Sv4,2020-0188,2020-06-04,09:37:05,09:54:50,NA,incomplete,95,number,1,1,left,Blue_Plus_Grid_3.jpg,Purple_Star_Chess_3.jpg,Blue_Triangle_Dots_4.jpg,left,1185.3350000455976,true,high,NA,NA,NA,NA,NA,NA,NA,false
Do6i9Sv4,3ba7sxog2m30f57lxuc2l92uxdc8rv,34s6n1k2zzwks2bvmgee1uilhvglhu,Do6i9Sv4,2020-0188,2020-06-04,09:37:05,09:54:50,NA,incomplete,96,number,1,0,left,Red_Plus_Chess_1.jpg,Blue_Circle_Dots_1.jpg,Red_Triangle_Grid_3.jpg,left,1058.2949998788536,true,high,NA,NA,NA,NA,NA,NA,NA,false
Do6i9Sv4,3ba7sxog2m30f57lxuc2l92uxdc8rv,34s6n1k2zzwks2bvmgee1uilhvglhu,Do6i9Sv4,2020-0188,2020-06-04,09:37:05,09:54:50,NA,incomplete,97,number,1,1,left,Purple_Plus_Dots_4.jpg,Blue_Star_Stripes_4.jpg,Purple_Triangle_Chess_2.jpg,left,811.1150001641363,true,high,NA,NA,NA,NA,NA,NA,NA,false
Do6i9Sv4,3ba7sxog2m30f57lxuc2l92uxdc8rv,34s6n1k2zzwks2bvmgee1uilhvglhu,Do6i9Sv4,2020-0188,2020-06-04,09:37:05,09:54:50,NA,incomplete,98,number,1,1,right,Red_Plus_Stripes_2.jpg,Red_Circle_Grid_3.jpg,Green_Star_Chess_2.jpg,right,696.2600001133978,true,high,NA,NA,NA,NA,NA,NA,NA,false
Do6i9Sv4,3ba7sxog2m30f57lxuc2l92uxdc8rv,34s6n1k2zzwks2bvmgee1uilhvglhu,Do6i9Sv4,2020-0188,2020-06-04,09:37:05,09:54:50,NA,incomplete,99,number,1,1,left,Purple_Circle_Dots_3.jpg,Blue_Plus_Grid_3.jpg,Purple_Star_Chess_2.jpg,left,1163.66000007838,true,high,NA,NA,NA,NA,NA,NA,NA,false
Do6i9Sv4,3ba7sxog2m30f57lxuc2l92uxdc8rv,34s6n1k2zzwks2bvmgee1uilhvglhu,Do6i9Sv4,2020-0188,2020-06-04,09:37:05,09:54:50,NA,incomplete,100,color,0,1,left,Blue_Star_Chess_4.jpg,Blue_Plus_Stripes_3.jpg,Purple_Circle_Grid_4.jpg,right,741.7299998924136,false,high,NA,NA,NA,NA,NA,NA,NA,false
Do6i9Sv4,3ba7sxog2m30f57lxuc2l92uxdc8rv,34s6n1k2zzwks2bvmgee1uilhvglhu,Do6i9Sv4,2020-0188,2020-06-04,09:37:05,09:54:50,NA,incomplete,101,color,0,0,left,Green_Plus_Chess_3.jpg,Green_Circle_Dots_1.jpg,Red_Triangle_Grid_3.jpg,right,610.1299999281764,false,high,NA,NA,NA,NA,NA,NA,NA,false
Do6i9Sv4,3ba7sxog2m30f57lxuc2l92uxdc8rv,34s6n1k2zzwks2bvmgee1uilhvglhu,Do6i9Sv4,2020-0188,2020-06-04,09:37:05,09:54:50,NA,incomplete,102,color,0,1,left,Purple_Triangle_Dots_4.jpg,Purple_Circle_Grid_3.jpg,Green_Star_Stripes_4.jpg,right,743.6649999581277,false,high,NA,NA,NA,NA,NA,NA,NA,false
Do6i9Sv4,3ba7sxog2m30f57lxuc2l92uxdc8rv,34s6n1k2zzwks2bvmgee1uilhvglhu,Do6i9Sv4,2020-0188,2020-06-04,09:37:05,09:54:50,NA,incomplete,103,color,0,1,left,Green_Star_Grid_4.jpg,Green_Circle_Stripes_3.jpg,Blue_Plus_Chess_4.jpg,right,804.2500000447035,false,high,NA,NA,NA,NA,NA,NA,NA,false
Do6i9Sv4,3ba7sxog2m30f57lxuc2l92uxdc8rv,34s6n1k2zzwks2bvmgee1uilhvglhu,Do6i9Sv4,2020-0188,2020-06-04,09:37:05,09:54:50,NA,incomplete,104,color,0,1,right,Red_Star_Grid_3.jpg,Blue_Triangle_Dots_3.jpg,Red_Plus_Stripes_2.jpg,right,750.7700000423938,true,high,NA,NA,NA,NA,NA,NA,NA,false
Do6i9Sv4,3ba7sxog2m30f57lxuc2l92uxdc8rv,34s6n1k2zzwks2bvmgee1uilhvglhu,Do6i9Sv4,2020-0188,2020-06-04,09:37:05,09:54:50,NA,incomplete,105,color,0,1,left,Purple_Star_Chess_4.jpg,Purple_Plus_Stripes_2.jpg,Green_Triangle_Grid_4.jpg,left,472.7449999190867,true,high,NA,NA,NA,NA,NA,NA,NA,false
Do6i9Sv4,3ba7sxog2m30f57lxuc2l92uxdc8rv,34s6n1k2zzwks2bvmgee1uilhvglhu,Do6i9Sv4,2020-0188,2020-06-04,09:37:05,09:54:50,NA,incomplete,106,color,0,1,right,Red_Triangle_Stripes_4.jpg,Purple_Star_Chess_4.jpg,Red_Plus_Dots_3.jpg,right,525.2849999815226,true,high,NA,NA,NA,NA,NA,NA,NA,false
Do6i9Sv4,3ba7sxog2m30f57lxuc2l92uxdc8rv,34s6n1k2zzwks2bvmgee1uilhvglhu,Do6i9Sv4,2020-0188,2020-06-04,09:37:05,09:54:50,NA,incomplete,107,color,0,1,right,Purple_Star_Dots_4.jpg,Green_Triangle_Chess_4.jpg,Purple_Circle_Stripes_1.jpg,right,854.1349999140948,true,high,NA,NA,NA,NA,NA,NA,NA,false
Do6i9Sv4,3ba7sxog2m30f57lxuc2l92uxdc8rv,34s6n1k2zzwks2bvmgee1uilhvglhu,Do6i9Sv4,2020-0188,2020-06-04,09:37:05,09:54:50,NA,incomplete,108,color,0,1,left,Red_Star_Chess_4.jpg,Red_Triangle_Stripes_2.jpg,Blue_Plus_Grid_4.jpg,left,448.6549999564886,true,high,NA,NA,NA,NA,NA,NA,NA,false
Do6i9Sv4,3ba7sxog2m30f57lxuc2l92uxdc8rv,34s6n1k2zzwks2bvmgee1uilhvglhu,Do6i9Sv4,2020-0188,2020-06-04,09:37:05,09:54:50,NA,incomplete,109,color,0,1,left,Green_Plus_Stripes_3.jpg,Green_Star_Dots_4.jpg,Blue_Circle_Grid_3.jpg,left,768.225000007078,true,high,NA,NA,NA,NA,NA,NA,NA,false
Do6i9Sv4,3ba7sxog2m30f57lxuc2l92uxdc8rv,34s6n1k2zzwks2bvmgee1uilhvglhu,Do6i9Sv4,2020-0188,2020-06-04,09:37:05,09:54:50,NA,incomplete,110,number,1,1,left,Red_Triangle_Grid_3.jpg,Green_Star_Chess_3.jpg,Red_Plus_Stripes_4.jpg,right,621.3449998758733,false,high,NA,NA,NA,NA,NA,NA,NA,false
Do6i9Sv4,3ba7sxog2m30f57lxuc2l92uxdc8rv,34s6n1k2zzwks2bvmgee1uilhvglhu,Do6i9Sv4,2020-0188,2020-06-04,09:37:05,09:54:50,NA,incomplete,111,number,1,1,left,Purple_Triangle_Chess_4.jpg,Green_Plus_Grid_4.jpg,Purple_Circle_Dots_3.jpg,right,572.8450000751764,false,high,NA,NA,NA,NA,NA,NA,NA,false
Do6i9Sv4,3ba7sxog2m30f57lxuc2l92uxdc8rv,34s6n1k2zzwks2bvmgee1uilhvglhu,Do6i9Sv4,2020-0188,2020-06-04,09:37:05,09:54:50,NA,incomplete,112,number,1,1,right,Green_Triangle_Dots_3.jpg,Green_Plus_Chess_1.jpg,Blue_Circle_Grid_3.jpg,left,664.7799999918789,false,high,NA,NA,NA,NA,NA,NA,NA,false
Do6i9Sv4,3ba7sxog2m30f57lxuc2l92uxdc8rv,34s6n1k2zzwks2bvmgee1uilhvglhu,Do6i9Sv4,2020-0188,2020-06-04,09:37:05,09:54:50,NA,incomplete,113,number,1,1,left,Purple_Triangle_Chess_4.jpg,Blue_Plus_Stripes_4.jpg,Purple_Star_Dots_2.jpg,right,500.17999997362494,false,high,NA,NA,NA,NA,NA,NA,NA,false
Do6i9Sv4,3ba7sxog2m30f57lxuc2l92uxdc8rv,34s6n1k2zzwks2bvmgee1uilhvglhu,Do6i9Sv4,2020-0188,2020-06-04,09:37:05,09:54:50,NA,incomplete,114,number,1,1,right,Green_Star_Dots_2.jpg,Green_Triangle_Chess_3.jpg,Red_Circle_Stripes_2.jpg,right,858.3599999547005,true,high,NA,NA,NA,NA,NA,NA,NA,false
Do6i9Sv4,3ba7sxog2m30f57lxuc2l92uxdc8rv,34s6n1k2zzwks2bvmgee1uilhvglhu,Do6i9Sv4,2020-0188,2020-06-04,09:37:05,09:54:50,NA,incomplete,115,number,1,0,left,Blue_Plus_Chess_2.jpg,Green_Star_Stripes_2.jpg,Blue_Triangle_Dots_1.jpg,left,803.5699999891222,true,high,NA,NA,NA,NA,NA,NA,NA,false
Do6i9Sv4,3ba7sxog2m30f57lxuc2l92uxdc8rv,34s6n1k2zzwks2bvmgee1uilhvglhu,Do6i9Sv4,2020-0188,2020-06-04,09:37:05,09:54:50,NA,incomplete,116,number,1,1,right,Blue_Plus_Chess_2.jpg,Blue_Circle_Grid_3.jpg,Purple_Star_Stripes_2.jpg,right,740.6049999408424,true,high,NA,NA,NA,NA,NA,NA,NA,false
Do6i9Sv4,3ba7sxog2m30f57lxuc2l92uxdc8rv,34s6n1k2zzwks2bvmgee1uilhvglhu,Do6i9Sv4,2020-0188,2020-06-04,09:37:05,09:54:50,NA,incomplete,117,number,1,1,left,Blue_Triangle_Stripes_4.jpg,Green_Star_Grid_4.jpg,Blue_Circle_Dots_2.jpg,left,713.0950000137091,true,high,NA,NA,NA,NA,NA,NA,NA,false
Do6i9Sv4,3ba7sxog2m30f57lxuc2l92uxdc8rv,34s6n1k2zzwks2bvmgee1uilhvglhu,Do6i9Sv4,2020-0188,2020-06-04,09:37:05,09:54:50,NA,incomplete,118,number,1,0,right,Purple_Circle_Grid_4.jpg,Purple_Star_Dots_3.jpg,Red_Triangle_Stripes_4.jpg,right,674.909999826923,true,high,NA,NA,NA,NA,NA,NA,NA,false
Do6i9Sv4,3ba7sxog2m30f57lxuc2l92uxdc8rv,34s6n1k2zzwks2bvmgee1uilhvglhu,Do6i9Sv4,2020-0188,2020-06-04,09:37:05,09:54:50,NA,incomplete,119,number,1,1,left,Red_Star_Grid_4.jpg,Green_Triangle_Chess_4.jpg,Red_Plus_Stripes_1.jpg,left,675.7749998942018,true,high,NA,NA,NA,NA,NA,NA,NA,false
Do6i9Sv4,3ba7sxog2m30f57lxuc2l92uxdc8rv,34s6n1k2zzwks2bvmgee1uilhvglhu,Do6i9Sv4,2020-0188,2020-06-04,09:37:05,09:54:50,NA,incomplete,120,race,2,1,right,C_F_08.jpg,A_F_05.jpg,C_M_09.jpg,NA,NA,NA,high,NA,NA,NA,NA,NA,NA,NA,false
Do6i9Sv4,3ba7sxog2m30f57lxuc2l92uxdc8rv,34s6n1k2zzwks2bvmgee1uilhvglhu,Do6i9Sv4,2020-0188,2020-06-04,09:37:05,09:54:50,NA,incomplete,121,race,2,0,left,A_F_04.jpg,A_M_11.jpg,C_F_13.jpg,right,936.8300000205636,false,high,NA,NA,NA,NA,NA,NA,NA,false
Do6i9Sv4,3ba7sxog2m30f57lxuc2l92uxdc8rv,34s6n1k2zzwks2bvmgee1uilhvglhu,Do6i9Sv4,2020-0188,2020-06-04,09:37:05,09:54:50,NA,incomplete,122,race,2,1,left,C_F_07.jpg,C_M_06.jpg,A_F_11.jpg,right,952.335000038147,false,high,NA,NA,NA,NA,NA,NA,NA,false
Do6i9Sv4,3ba7sxog2m30f57lxuc2l92uxdc8rv,34s6n1k2zzwks2bvmgee1uilhvglhu,Do6i9Sv4,2020-0188,2020-06-04,09:37:05,09:54:50,NA,incomplete,123,race,2,0,left,A_F_09.jpg,A_M_06.jpg,C_F_13.jpg,right,1115.9300000872463,false,high,NA,NA,NA,NA,NA,NA,NA,false
Do6i9Sv4,3ba7sxog2m30f57lxuc2l92uxdc8rv,34s6n1k2zzwks2bvmgee1uilhvglhu,Do6i9Sv4,2020-0188,2020-06-04,09:37:05,09:54:50,NA,incomplete,124,race,2,1,right,A_F_12.jpg,C_F_15.jpg,A_M_11.jpg,left,1104.2949999682605,false,high,NA,NA,NA,NA,NA,NA,NA,false
Do6i9Sv4,3ba7sxog2m30f57lxuc2l92uxdc8rv,34s6n1k2zzwks2bvmgee1uilhvglhu,Do6i9Sv4,2020-0188,2020-06-04,09:37:05,09:54:50,NA,incomplete,125,race,2,1,left,A_M_09.jpg,A_F_14.jpg,C_M_10.jpg,right,1285.0150000303984,false,high,NA,NA,NA,NA,NA,NA,NA,false
Do6i9Sv4,3ba7sxog2m30f57lxuc2l92uxdc8rv,34s6n1k2zzwks2bvmgee1uilhvglhu,Do6i9Sv4,2020-0188,2020-06-04,09:37:05,09:54:50,NA,incomplete,126,race,2,0,left,A_M_02.jpg,A_F_14.jpg,C_M_01.jpg,left,1215.3849999886006,true,high,NA,NA,NA,NA,NA,NA,NA,false
Do6i9Sv4,3ba7sxog2m30f57lxuc2l92uxdc8rv,34s6n1k2zzwks2bvmgee1uilhvglhu,Do6i9Sv4,2020-0188,2020-06-04,09:37:05,09:54:50,NA,incomplete,127,race,2,1,right,C_M_13.jpg,A_M_15.jpg,C_F_05.jpg,right,1700.3649999387562,true,high,NA,NA,NA,NA,NA,NA,NA,false
Do6i9Sv4,3ba7sxog2m30f57lxuc2l92uxdc8rv,34s6n1k2zzwks2bvmgee1uilhvglhu,Do6i9Sv4,2020-0188,2020-06-04,09:37:05,09:54:50,NA,incomplete,128,race,2,1,left,A_M_04.jpg,A_F_01.jpg,C_M_03.jpg,left,1129.6949998941272,true,high,NA,NA,NA,NA,NA,NA,NA,false
Do6i9Sv4,3ba7sxog2m30f57lxuc2l92uxdc8rv,34s6n1k2zzwks2bvmgee1uilhvglhu,Do6i9Sv4,2020-0188,2020-06-04,09:37:05,09:54:50,NA,incomplete,129,race,2,1,right,A_M_03.jpg,C_M_11.jpg,A_F_05.jpg,right,1132.0500001311302,true,high,NA,NA,NA,NA,NA,NA,NA,false
Do6i9Sv4,3ba7sxog2m30f57lxuc2l92uxdc8rv,34s6n1k2zzwks2bvmgee1uilhvglhu,Do6i9Sv4,2020-0188,2020-06-04,09:37:05,09:54:50,NA,incomplete,130,race,2,1,right,A_M_06.jpg,C_M_05.jpg,A_F_04.jpg,right,1225.6849999539554,true,high,NA,NA,NA,NA,NA,NA,NA,false
Do6i9Sv4,3ba7sxog2m30f57lxuc2l92uxdc8rv,34s6n1k2zzwks2bvmgee1uilhvglhu,Do6i9Sv4,2020-0188,2020-06-04,09:37:05,09:54:50,NA,incomplete,131,race,2,1,right,A_F_08.jpg,C_F_11.jpg,A_M_04.jpg,right,1190.7500000670552,true,high,NA,NA,NA,NA,NA,NA,NA,false
Do6i9Sv4,3ba7sxog2m30f57lxuc2l92uxdc8rv,34s6n1k2zzwks2bvmgee1uilhvglhu,Do6i9Sv4,2020-0188,2020-06-04,09:37:05,09:54:50,NA,incomplete,132,race,2,1,right,A_M_14.jpg,C_M_11.jpg,A_F_12.jpg,right,1202.1349999122322,true,high,NA,NA,NA,NA,NA,NA,NA,false
Do6i9Sv4,3ba7sxog2m30f57lxuc2l92uxdc8rv,34s6n1k2zzwks2bvmgee1uilhvglhu,Do6i9Sv4,2020-0188,2020-06-04,09:37:05,09:54:50,NA,incomplete,133,race,2,1,right,A_M_05.jpg,C_M_01.jpg,A_F_06.jpg,right,1165.369999827817,true,high,NA,NA,NA,NA,NA,NA,NA,false
Do6i9Sv4,3ba7sxog2m30f57lxuc2l92uxdc8rv,34s6n1k2zzwks2bvmgee1uilhvglhu,Do6i9Sv4,2020-0188,2020-06-04,09:37:05,09:54:50,NA,incomplete,134,race,2,1,left,C_M_04.jpg,C_F_11.jpg,A_M_15.jpg,left,1248.3550000470132,true,high,NA,NA,NA,NA,NA,NA,NA,false
Do6i9Sv4,3ba7sxog2m30f57lxuc2l92uxdc8rv,34s6n1k2zzwks2bvmgee1uilhvglhu,Do6i9Sv4,2020-0188,2020-06-04,09:37:05,09:54:50,NA,incomplete,135,race,2,1,left,C_M_09.jpg,C_F_01.jpg,A_M_10.jpg,left,1358.049999922514,true,high,NA,NA,NA,NA,NA,NA,NA,false
Do6i9Sv4,3ba7sxog2m30f57lxuc2l92uxdc8rv,34s6n1k2zzwks2bvmgee1uilhvglhu,Do6i9Sv4,2020-0188,2020-06-04,09:37:05,09:54:50,NA,incomplete,136,race,2,1,right,C_F_11.jpg,A_F_07.jpg,C_M_04.jpg,right,1412.0249999687076,true,high,NA,NA,NA,NA,NA,NA,NA,false
Do6i9Sv4,3ba7sxog2m30f57lxuc2l92uxdc8rv,34s6n1k2zzwks2bvmgee1uilhvglhu,Do6i9Sv4,2020-0188,2020-06-04,09:37:05,09:54:50,NA,incomplete,137,race,2,0,right,A_M_03.jpg,C_M_01.jpg,A_F_08.jpg,right,1029.3199999723583,true,high,NA,NA,NA,NA,NA,NA,NA,false
Do6i9Sv4,3ba7sxog2m30f57lxuc2l92uxdc8rv,34s6n1k2zzwks2bvmgee1uilhvglhu,Do6i9Sv4,2020-0188,2020-06-04,09:37:05,09:54:50,NA,incomplete,138,race,2,1,left,A_F_08.jpg,A_M_16.jpg,C_F_15.jpg,left,846.1949999909848,true,high,NA,NA,NA,NA,NA,NA,NA,false
Do6i9Sv4,3ba7sxog2m30f57lxuc2l92uxdc8rv,34s6n1k2zzwks2bvmgee1uilhvglhu,Do6i9Sv4,2020-0188,2020-06-04,09:37:05,09:54:50,NA,incomplete,139,race,2,1,right,C_M_06.jpg,A_M_15.jpg,C_F_14.jpg,right,1038.010000018403,true,high,NA,NA,NA,NA,NA,NA,NA,false
Do6i9Sv4,3ba7sxog2m30f57lxuc2l92uxdc8rv,34s6n1k2zzwks2bvmgee1uilhvglhu,Do6i9Sv4,2020-0188,2020-06-04,09:37:05,09:54:50,NA,incomplete,140,gender,3,0,left,A_F_08.jpg,C_F_09.jpg,A_M_07.jpg,right,1122.5050000939518,false,high,NA,NA,NA,NA,NA,NA,NA,false
Do6i9Sv4,3ba7sxog2m30f57lxuc2l92uxdc8rv,34s6n1k2zzwks2bvmgee1uilhvglhu,Do6i9Sv4,2020-0188,2020-06-04,09:37:05,09:54:50,NA,incomplete,141,gender,3,1,right,A_M_15.jpg,A_F_13.jpg,C_M_07.jpg,left,988.3300000801682,false,high,NA,NA,NA,NA,NA,NA,NA,false
Do6i9Sv4,3ba7sxog2m30f57lxuc2l92uxdc8rv,34s6n1k2zzwks2bvmgee1uilhvglhu,Do6i9Sv4,2020-0188,2020-06-04,09:37:05,09:54:50,NA,incomplete,142,gender,3,1,right,C_F_15.jpg,C_M_04.jpg,A_F_14.jpg,left,1177.4649999570101,false,high,NA,NA,NA,NA,NA,NA,NA,false
Do6i9Sv4,3ba7sxog2m30f57lxuc2l92uxdc8rv,34s6n1k2zzwks2bvmgee1uilhvglhu,Do6i9Sv4,2020-0188,2020-06-04,09:37:05,09:54:50,NA,incomplete,143,gender,3,1,left,C_F_07.jpg,A_F_09.jpg,C_M_01.jpg,right,1666.5050000883639,false,high,NA,NA,NA,NA,NA,NA,NA,false
Do6i9Sv4,3ba7sxog2m30f57lxuc2l92uxdc8rv,34s6n1k2zzwks2bvmgee1uilhvglhu,Do6i9Sv4,2020-0188,2020-06-04,09:37:05,09:54:50,NA,incomplete,144,gender,3,1,right,A_M_09.jpg,A_F_11.jpg,C_M_14.jpg,left,1093.5899999458343,false,high,NA,NA,NA,NA,NA,NA,NA,false
Do6i9Sv4,3ba7sxog2m30f57lxuc2l92uxdc8rv,34s6n1k2zzwks2bvmgee1uilhvglhu,Do6i9Sv4,2020-0188,2020-06-04,09:37:05,09:54:50,NA,incomplete,145,gender,3,1,right,A_F_15.jpg,A_M_04.jpg,C_F_10.jpg,left,1179.0450001135468,false,high,NA,NA,NA,NA,NA,NA,NA,false
Do6i9Sv4,3ba7sxog2m30f57lxuc2l92uxdc8rv,34s6n1k2zzwks2bvmgee1uilhvglhu,Do6i9Sv4,2020-0188,2020-06-04,09:37:05,09:54:50,NA,incomplete,146,gender,3,0,right,C_F_02.jpg,C_M_03.jpg,A_F_08.jpg,left,1284.8900000099093,false,high,NA,NA,NA,NA,NA,NA,NA,false
Do6i9Sv4,3ba7sxog2m30f57lxuc2l92uxdc8rv,34s6n1k2zzwks2bvmgee1uilhvglhu,Do6i9Sv4,2020-0188,2020-06-04,09:37:05,09:54:50,NA,incomplete,147,gender,3,1,left,A_M_03.jpg,C_M_04.jpg,A_F_06.jpg,right,863.395000109449,false,high,NA,NA,NA,NA,NA,NA,NA,false
Do6i9Sv4,3ba7sxog2m30f57lxuc2l92uxdc8rv,34s6n1k2zzwks2bvmgee1uilhvglhu,Do6i9Sv4,2020-0188,2020-06-04,09:37:05,09:54:50,NA,incomplete,148,gender,3,1,right,C_M_15.jpg,C_F_04.jpg,A_M_13.jpg,left,950.4650000017136,false,high,NA,NA,NA,NA,NA,NA,NA,false
Do6i9Sv4,3ba7sxog2m30f57lxuc2l92uxdc8rv,34s6n1k2zzwks2bvmgee1uilhvglhu,Do6i9Sv4,2020-0188,2020-06-04,09:37:05,09:54:50,NA,incomplete,149,gender,3,1,right,C_F_06.jpg,C_M_08.jpg,A_F_13.jpg,left,1101.0000000242144,false,high,NA,NA,NA,NA,NA,NA,NA,false
Do6i9Sv4,3ba7sxog2m30f57lxuc2l92uxdc8rv,34s6n1k2zzwks2bvmgee1uilhvglhu,Do6i9Sv4,2020-0188,2020-06-04,09:37:05,09:54:50,NA,incomplete,150,gender,3,1,left,C_F_12.jpg,A_F_11.jpg,C_M_05.jpg,right,1220.1050000730902,false,high,NA,NA,NA,NA,NA,NA,NA,false
Do6i9Sv4,3ba7sxog2m30f57lxuc2l92uxdc8rv,34s6n1k2zzwks2bvmgee1uilhvglhu,Do6i9Sv4,2020-0188,2020-06-04,09:37:05,09:54:50,NA,incomplete,151,gender,3,0,right,C_M_06.jpg,C_F_14.jpg,A_M_08.jpg,left,1230.8549999725074,false,high,NA,NA,NA,NA,NA,NA,NA,false
Do6i9Sv4,3ba7sxog2m30f57lxuc2l92uxdc8rv,34s6n1k2zzwks2bvmgee1uilhvglhu,Do6i9Sv4,2020-0188,2020-06-04,09:37:05,09:54:50,NA,incomplete,152,gender,3,1,left,C_M_02.jpg,A_M_07.jpg,C_F_13.jpg,right,1039.9299999698997,false,high,NA,NA,NA,NA,NA,NA,NA,false
Do6i9Sv4,3ba7sxog2m30f57lxuc2l92uxdc8rv,34s6n1k2zzwks2bvmgee1uilhvglhu,Do6i9Sv4,2020-0188,2020-06-04,09:37:05,09:54:50,NA,incomplete,153,gender,3,1,left,C_F_13.jpg,A_F_15.jpg,C_M_05.jpg,right,1416.0400000400841,false,high,NA,NA,NA,NA,NA,NA,NA,false
Do6i9Sv4,3ba7sxog2m30f57lxuc2l92uxdc8rv,34s6n1k2zzwks2bvmgee1uilhvglhu,Do6i9Sv4,2020-0188,2020-06-04,09:37:05,09:54:50,NA,incomplete,154,gender,3,1,left,C_M_06.jpg,A_M_04.jpg,C_F_15.jpg,right,1257.85499997437,false,high,NA,NA,NA,NA,NA,NA,NA,false
Do6i9Sv4,3ba7sxog2m30f57lxuc2l92uxdc8rv,34s6n1k2zzwks2bvmgee1uilhvglhu,Do6i9Sv4,2020-0188,2020-06-04,09:37:05,09:54:50,NA,incomplete,155,gender,3,1,left,A_F_09.jpg,C_F_14.jpg,A_M_03.jpg,right,1115.0750000961125,false,high,NA,NA,NA,NA,NA,NA,NA,false
Do6i9Sv4,3ba7sxog2m30f57lxuc2l92uxdc8rv,34s6n1k2zzwks2bvmgee1uilhvglhu,Do6i9Sv4,2020-0188,2020-06-04,09:37:05,09:54:50,NA,incomplete,156,gender,3,1,left,A_M_16.jpg,C_M_05.jpg,A_F_08.jpg,right,1705.11500001885,false,high,NA,NA,NA,NA,NA,NA,NA,false
Do6i9Sv4,3ba7sxog2m30f57lxuc2l92uxdc8rv,34s6n1k2zzwks2bvmgee1uilhvglhu,Do6i9Sv4,2020-0188,2020-06-04,09:37:05,09:54:50,NA,incomplete,157,gender,3,1,left,C_F_01.jpg,A_F_08.jpg,C_M_14.jpg,right,1619.4850001484156,false,high,NA,NA,NA,NA,NA,NA,NA,false
Do6i9Sv4,3ba7sxog2m30f57lxuc2l92uxdc8rv,34s6n1k2zzwks2bvmgee1uilhvglhu,Do6i9Sv4,2020-0188,2020-06-04,09:37:05,09:54:50,NA,incomplete,158,gender,3,1,left,C_F_08.jpg,A_F_07.jpg,C_M_06.jpg,left,1273.7249999772757,true,high,NA,NA,NA,NA,NA,NA,NA,false
Do6i9Sv4,3ba7sxog2m30f57lxuc2l92uxdc8rv,34s6n1k2zzwks2bvmgee1uilhvglhu,Do6i9Sv4,2020-0188,2020-06-04,09:37:05,09:54:50,NA,incomplete,159,gender,3,1,left,C_F_13.jpg,A_F_03.jpg,C_M_16.jpg,left,1173.735000193119,true,high,NA,NA,NA,NA,NA,NA,NA,false
Do6i9Sv4,3ba7sxog2m30f57lxuc2l92uxdc8rv,34s6n1k2zzwks2bvmgee1uilhvglhu,Do6i9Sv4,2020-0188,2020-06-04,09:37:05,09:54:50,NA,incomplete,160,race,2,0,left,A_M_03.jpg,A_F_13.jpg,C_M_07.jpg,left,1320.1049999333918,true,high,NA,NA,NA,NA,NA,NA,NA,false
Do6i9Sv4,3ba7sxog2m30f57lxuc2l92uxdc8rv,34s6n1k2zzwks2bvmgee1uilhvglhu,Do6i9Sv4,2020-0188,2020-06-04,09:37:05,09:54:50,NA,incomplete,161,race,2,1,left,A_M_16.jpg,A_F_05.jpg,C_M_11.jpg,right,1417.189999949187,false,high,NA,NA,NA,NA,NA,NA,NA,false
Do6i9Sv4,3ba7sxog2m30f57lxuc2l92uxdc8rv,34s6n1k2zzwks2bvmgee1uilhvglhu,Do6i9Sv4,2020-0188,2020-06-04,09:37:05,09:54:50,NA,incomplete,162,race,2,1,right,A_M_09.jpg,C_M_07.jpg,A_F_10.jpg,right,1193.324999883771,true,high,NA,NA,NA,NA,NA,NA,NA,false
Do6i9Sv4,3ba7sxog2m30f57lxuc2l92uxdc8rv,34s6n1k2zzwks2bvmgee1uilhvglhu,Do6i9Sv4,2020-0188,2020-06-04,09:37:05,09:54:50,NA,incomplete,163,race,2,0,left,A_F_13.jpg,A_M_06.jpg,C_F_16.jpg,left,960.2700001560152,true,high,NA,NA,NA,NA,NA,NA,NA,false
Do6i9Sv4,3ba7sxog2m30f57lxuc2l92uxdc8rv,34s6n1k2zzwks2bvmgee1uilhvglhu,Do6i9Sv4,2020-0188,2020-06-04,09:37:05,09:54:50,NA,incomplete,164,race,2,1,right,C_F_01.jpg,A_F_05.jpg,C_M_14.jpg,right,1254.1099998634309,true,high,NA,NA,NA,NA,NA,NA,NA,false
Do6i9Sv4,3ba7sxog2m30f57lxuc2l92uxdc8rv,34s6n1k2zzwks2bvmgee1uilhvglhu,Do6i9Sv4,2020-0188,2020-06-04,09:37:05,09:54:50,NA,incomplete,165,race,2,0,right,C_M_09.jpg,A_M_01.jpg,C_F_06.jpg,right,1086.4150000270456,true,high,NA,NA,NA,NA,NA,NA,NA,false
Do6i9Sv4,3ba7sxog2m30f57lxuc2l92uxdc8rv,34s6n1k2zzwks2bvmgee1uilhvglhu,Do6i9Sv4,2020-0188,2020-06-04,09:37:05,09:54:50,NA,incomplete,166,race,2,1,left,C_F_05.jpg,C_M_13.jpg,A_F_08.jpg,left,1109.6700001507998,true,high,NA,NA,NA,NA,NA,NA,NA,false
Do6i9Sv4,3ba7sxog2m30f57lxuc2l92uxdc8rv,34s6n1k2zzwks2bvmgee1uilhvglhu,Do6i9Sv4,2020-0188,2020-06-04,09:37:05,09:54:50,NA,incomplete,167,race,2,1,right,A_M_16.jpg,C_M_03.jpg,A_F_06.jpg,right,1150.7299998775125,true,high,NA,NA,NA,NA,NA,NA,NA,false
Do6i9Sv4,3ba7sxog2m30f57lxuc2l92uxdc8rv,34s6n1k2zzwks2bvmgee1uilhvglhu,Do6i9Sv4,2020-0188,2020-06-04,09:37:05,09:54:50,NA,incomplete,168,race,2,1,right,C_F_16.jpg,A_F_01.jpg,C_M_03.jpg,right,1172.254999866709,true,high,NA,NA,NA,NA,NA,NA,NA,false
Do6i9Sv4,3ba7sxog2m30f57lxuc2l92uxdc8rv,34s6n1k2zzwks2bvmgee1uilhvglhu,Do6i9Sv4,2020-0188,2020-06-04,09:37:05,09:54:50,NA,incomplete,169,race,2,1,left,A_F_12.jpg,A_M_16.jpg,C_F_09.jpg,left,1370.3600000590086,true,high,NA,NA,NA,NA,NA,NA,NA,false
Do6i9Sv4,3ba7sxog2m30f57lxuc2l92uxdc8rv,34s6n1k2zzwks2bvmgee1uilhvglhu,Do6i9Sv4,2020-0188,2020-06-04,09:37:05,09:54:50,NA,incomplete,170,race,2,1,right,A_F_11.jpg,C_F_09.jpg,A_M_16.jpg,right,1314.5149999763817,true,high,NA,NA,NA,NA,NA,NA,NA,false
Do6i9Sv4,3ba7sxog2m30f57lxuc2l92uxdc8rv,34s6n1k2zzwks2bvmgee1uilhvglhu,Do6i9Sv4,2020-0188,2020-06-04,09:37:05,09:54:50,NA,incomplete,171,race,2,1,left,A_F_15.jpg,A_M_04.jpg,C_F_09.jpg,right,1713.6150000151247,false,high,NA,NA,NA,NA,NA,NA,NA,false
Do6i9Sv4,3ba7sxog2m30f57lxuc2l92uxdc8rv,34s6n1k2zzwks2bvmgee1uilhvglhu,Do6i9Sv4,2020-0188,2020-06-04,09:37:05,09:54:50,NA,incomplete,172,race,2,0,right,A_M_10.jpg,C_M_14.jpg,A_F_09.jpg,right,1257.1849999949336,true,high,NA,NA,NA,NA,NA,NA,NA,false
Do6i9Sv4,3ba7sxog2m30f57lxuc2l92uxdc8rv,34s6n1k2zzwks2bvmgee1uilhvglhu,Do6i9Sv4,2020-0188,2020-06-04,09:37:05,09:54:50,NA,incomplete,173,race,2,1,right,A_F_12.jpg,C_F_04.jpg,A_M_02.jpg,left,1240.460000000894,false,high,NA,NA,NA,NA,NA,NA,NA,false
Do6i9Sv4,3ba7sxog2m30f57lxuc2l92uxdc8rv,34s6n1k2zzwks2bvmgee1uilhvglhu,Do6i9Sv4,2020-0188,2020-06-04,09:37:05,09:54:50,NA,incomplete,174,race,2,1,right,A_M_04.jpg,C_M_10.jpg,A_F_05.jpg,right,1118.640000000596,true,high,NA,NA,NA,NA,NA,NA,NA,false
Do6i9Sv4,3ba7sxog2m30f57lxuc2l92uxdc8rv,34s6n1k2zzwks2bvmgee1uilhvglhu,Do6i9Sv4,2020-0188,2020-06-04,09:37:05,09:54:50,NA,incomplete,175,race,2,0,left,C_M_16.jpg,C_F_09.jpg,A_M_14.jpg,left,1065.2249997947365,true,high,NA,NA,NA,NA,NA,NA,NA,false
Do6i9Sv4,3ba7sxog2m30f57lxuc2l92uxdc8rv,34s6n1k2zzwks2bvmgee1uilhvglhu,Do6i9Sv4,2020-0188,2020-06-04,09:37:05,09:54:50,NA,incomplete,176,race,2,1,right,C_M_04.jpg,A_M_08.jpg,C_F_07.jpg,right,1273.9999999757856,true,high,NA,NA,NA,NA,NA,NA,NA,false
Do6i9Sv4,3ba7sxog2m30f57lxuc2l92uxdc8rv,34s6n1k2zzwks2bvmgee1uilhvglhu,Do6i9Sv4,2020-0188,2020-06-04,09:37:05,09:54:50,NA,incomplete,177,race,2,1,right,C_M_16.jpg,A_M_01.jpg,C_F_12.jpg,right,1150.5800001323223,true,high,NA,NA,NA,NA,NA,NA,NA,false
Do6i9Sv4,3ba7sxog2m30f57lxuc2l92uxdc8rv,34s6n1k2zzwks2bvmgee1uilhvglhu,Do6i9Sv4,2020-0188,2020-06-04,09:37:05,09:54:50,NA,incomplete,178,race,2,1,left,C_M_06.jpg,C_F_03.jpg,A_M_09.jpg,left,1018.3900000993162,true,high,NA,NA,NA,NA,NA,NA,NA,false
Do6i9Sv4,3ba7sxog2m30f57lxuc2l92uxdc8rv,34s6n1k2zzwks2bvmgee1uilhvglhu,Do6i9Sv4,2020-0188,2020-06-04,09:37:05,09:54:50,NA,incomplete,179,race,2,1,left,A_M_10.jpg,A_F_07.jpg,C_M_04.jpg,left,1255.9750000946224,true,high,NA,NA,NA,NA,NA,NA,NA,false
Do6i9Sv4,3ba7sxog2m30f57lxuc2l92uxdc8rv,34s6n1k2zzwks2bvmgee1uilhvglhu,Do6i9Sv4,2020-0188,2020-06-04,09:37:05,09:54:50,NA,incomplete,180,gender,3,1,right,A_M_07.jpg,A_F_11.jpg,C_M_02.jpg,left,897.995000006631,false,high,NA,NA,NA,NA,NA,NA,NA,false
Do6i9Sv4,3ba7sxog2m30f57lxuc2l92uxdc8rv,34s6n1k2zzwks2bvmgee1uilhvglhu,Do6i9Sv4,2020-0188,2020-06-04,09:37:05,09:54:50,NA,incomplete,181,gender,3,1,right,A_M_01.jpg,A_F_13.jpg,C_M_07.jpg,left,1092.7999999839813,false,high,NA,NA,NA,NA,NA,NA,NA,false
Do6i9Sv4,3ba7sxog2m30f57lxuc2l92uxdc8rv,34s6n1k2zzwks2bvmgee1uilhvglhu,Do6i9Sv4,2020-0188,2020-06-04,09:37:05,09:54:50,NA,incomplete,182,gender,3,1,right,A_M_07.jpg,A_F_06.jpg,C_M_14.jpg,left,1249.9349999707192,false,high,NA,NA,NA,NA,NA,NA,NA,false
Do6i9Sv4,3ba7sxog2m30f57lxuc2l92uxdc8rv,34s6n1k2zzwks2bvmgee1uilhvglhu,Do6i9Sv4,2020-0188,2020-06-04,09:37:05,09:54:50,NA,incomplete,183,gender,3,1,right,A_M_15.jpg,A_F_04.jpg,C_M_13.jpg,left,993.2450000196695,false,high,NA,NA,NA,NA,NA,NA,NA,false
Do6i9Sv4,3ba7sxog2m30f57lxuc2l92uxdc8rv,34s6n1k2zzwks2bvmgee1uilhvglhu,Do6i9Sv4,2020-0188,2020-06-04,09:37:05,09:54:50,NA,incomplete,184,gender,3,0,right,A_M_02.jpg,A_F_05.jpg,C_M_07.jpg,left,1108.8549999985844,false,high,NA,NA,NA,NA,NA,NA,NA,false
Do6i9Sv4,3ba7sxog2m30f57lxuc2l92uxdc8rv,34s6n1k2zzwks2bvmgee1uilhvglhu,Do6i9Sv4,2020-0188,2020-06-04,09:37:05,09:54:50,NA,incomplete,185,gender,3,1,right,C_F_03.jpg,C_M_15.jpg,A_F_14.jpg,left,1271.1799999233335,false,high,NA,NA,NA,NA,NA,NA,NA,false
Do6i9Sv4,3ba7sxog2m30f57lxuc2l92uxdc8rv,34s6n1k2zzwks2bvmgee1uilhvglhu,Do6i9Sv4,2020-0188,2020-06-04,09:37:05,09:54:50,NA,incomplete,186,gender,3,1,right,C_M_01.jpg,C_F_03.jpg,A_M_09.jpg,right,1016.8900000862777,true,high,NA,NA,NA,NA,NA,NA,NA,false
Do6i9Sv4,3ba7sxog2m30f57lxuc2l92uxdc8rv,34s6n1k2zzwks2bvmgee1uilhvglhu,Do6i9Sv4,2020-0188,2020-06-04,09:37:05,09:54:50,NA,incomplete,187,gender,3,1,left,A_M_04.jpg,C_M_03.jpg,A_F_02.jpg,left,677.9749998822808,true,high,NA,NA,NA,NA,NA,NA,NA,false
Do6i9Sv4,3ba7sxog2m30f57lxuc2l92uxdc8rv,34s6n1k2zzwks2bvmgee1uilhvglhu,Do6i9Sv4,2020-0188,2020-06-04,09:37:05,09:54:50,NA,incomplete,188,gender,3,0,left,A_F_04.jpg,C_F_13.jpg,A_M_08.jpg,left,1623.7300001084805,true,high,NA,NA,NA,NA,NA,NA,NA,false
Do6i9Sv4,3ba7sxog2m30f57lxuc2l92uxdc8rv,34s6n1k2zzwks2bvmgee1uilhvglhu,Do6i9Sv4,2020-0188,2020-06-04,09:37:05,09:54:50,NA,incomplete,189,gender,3,1,right,A_M_05.jpg,A_F_11.jpg,C_M_06.jpg,left,900.7800000254065,false,high,NA,NA,NA,NA,NA,NA,NA,false
Do6i9Sv4,3ba7sxog2m30f57lxuc2l92uxdc8rv,34s6n1k2zzwks2bvmgee1uilhvglhu,Do6i9Sv4,2020-0188,2020-06-04,09:37:05,09:54:50,NA,incomplete,190,gender,3,1,left,C_F_05.jpg,A_F_15.jpg,C_M_09.jpg,left,1166.1549999844283,true,high,NA,NA,NA,NA,NA,NA,NA,false
Do6i9Sv4,3ba7sxog2m30f57lxuc2l92uxdc8rv,34s6n1k2zzwks2bvmgee1uilhvglhu,Do6i9Sv4,2020-0188,2020-06-04,09:37:05,09:54:50,NA,incomplete,191,gender,3,1,right,A_F_03.jpg,A_M_14.jpg,C_F_02.jpg,right,728.2000000122935,true,high,NA,NA,NA,NA,NA,NA,NA,false
Do6i9Sv4,3ba7sxog2m30f57lxuc2l92uxdc8rv,34s6n1k2zzwks2bvmgee1uilhvglhu,Do6i9Sv4,2020-0188,2020-06-04,09:37:05,09:54:50,NA,incomplete,192,gender,3,1,right,C_M_06.jpg,C_F_09.jpg,A_M_04.jpg,right,877.0700001623482,true,high,NA,NA,NA,NA,NA,NA,NA,false
Do6i9Sv4,3ba7sxog2m30f57lxuc2l92uxdc8rv,34s6n1k2zzwks2bvmgee1uilhvglhu,Do6i9Sv4,2020-0188,2020-06-04,09:37:05,09:54:50,NA,incomplete,193,gender,3,1,left,A_F_05.jpg,C_F_16.jpg,A_M_12.jpg,left,863.1100000347942,true,high,NA,NA,NA,NA,NA,NA,NA,false
Do6i9Sv4,3ba7sxog2m30f57lxuc2l92uxdc8rv,34s6n1k2zzwks2bvmgee1uilhvglhu,Do6i9Sv4,2020-0188,2020-06-04,09:37:05,09:54:50,NA,incomplete,194,gender,3,0,left,A_M_08.jpg,C_M_15.jpg,A_F_01.jpg,left,914.9400000460446,true,high,NA,NA,NA,NA,NA,NA,NA,false
Do6i9Sv4,3ba7sxog2m30f57lxuc2l92uxdc8rv,34s6n1k2zzwks2bvmgee1uilhvglhu,Do6i9Sv4,2020-0188,2020-06-04,09:37:05,09:54:50,NA,incomplete,195,gender,3,1,right,C_M_07.jpg,C_F_01.jpg,A_M_04.jpg,right,1663.1400000769645,true,high,NA,NA,NA,NA,NA,NA,NA,false
Do6i9Sv4,3ba7sxog2m30f57lxuc2l92uxdc8rv,34s6n1k2zzwks2bvmgee1uilhvglhu,Do6i9Sv4,2020-0188,2020-06-04,09:37:05,09:54:50,NA,incomplete,196,gender,3,1,left,A_M_07.jpg,C_M_12.jpg,A_F_02.jpg,left,674.5899999514222,true,high,NA,NA,NA,NA,NA,NA,NA,false
Do6i9Sv4,3ba7sxog2m30f57lxuc2l92uxdc8rv,34s6n1k2zzwks2bvmgee1uilhvglhu,Do6i9Sv4,2020-0188,2020-06-04,09:37:05,09:54:50,NA,incomplete,197,gender,3,0,right,C_M_06.jpg,C_F_13.jpg,A_M_07.jpg,right,622.9300000704825,true,high,NA,NA,NA,NA,NA,NA,NA,false
Do6i9Sv4,3ba7sxog2m30f57lxuc2l92uxdc8rv,34s6n1k2zzwks2bvmgee1uilhvglhu,Do6i9Sv4,2020-0188,2020-06-04,09:37:05,09:54:50,NA,incomplete,198,gender,3,1,left,C_F_01.jpg,A_F_08.jpg,C_M_15.jpg,left,1499.7999998740852,true,high,NA,NA,NA,NA,NA,NA,NA,false
Do6i9Sv4,3ba7sxog2m30f57lxuc2l92uxdc8rv,34s6n1k2zzwks2bvmgee1uilhvglhu,Do6i9Sv4,2020-0188,2020-06-04,09:37:05,09:54:50,NA,incomplete,199,gender,3,0,right,C_M_13.jpg,C_F_10.jpg,A_M_02.jpg,right,900.8450000546873,true,high,NA,NA,NA,NA,NA,NA,NA,false
Do6i9Sv4,3ba7sxog2m30f57lxuc2l92uxdc8rv,34s6n1k2zzwks2bvmgee1uilhvglhu,Do6i9Sv4,2020-0188,2020-06-04,09:37:05,09:54:50,NA,incomplete,200,race,2,1,right,A_M_12.jpg,C_M_05.jpg,A_F_07.jpg,left,718.3049998711795,false,high,NA,NA,NA,NA,NA,NA,NA,false
Do6i9Sv4,3ba7sxog2m30f57lxuc2l92uxdc8rv,34s6n1k2zzwks2bvmgee1uilhvglhu,Do6i9Sv4,2020-0188,2020-06-04,09:37:05,09:54:50,NA,incomplete,201,race,2,1,left,A_F_04.jpg,A_M_15.jpg,C_F_03.jpg,left,794.8499999474734,true,high,NA,NA,NA,NA,NA,NA,NA,false
Do6i9Sv4,3ba7sxog2m30f57lxuc2l92uxdc8rv,34s6n1k2zzwks2bvmgee1uilhvglhu,Do6i9Sv4,2020-0188,2020-06-04,09:37:05,09:54:50,NA,incomplete,202,race,2,1,left,C_M_06.jpg,C_F_02.jpg,A_M_16.jpg,left,1124.769999878481,true,high,NA,NA,NA,NA,NA,NA,NA,false
Do6i9Sv4,3ba7sxog2m30f57lxuc2l92uxdc8rv,34s6n1k2zzwks2bvmgee1uilhvglhu,Do6i9Sv4,2020-0188,2020-06-04,09:37:05,09:54:50,NA,incomplete,203,race,2,1,left,A_F_13.jpg,A_M_03.jpg,C_F_06.jpg,left,901.0999999009073,true,high,NA,NA,NA,NA,NA,NA,NA,false
Do6i9Sv4,3ba7sxog2m30f57lxuc2l92uxdc8rv,34s6n1k2zzwks2bvmgee1uilhvglhu,Do6i9Sv4,2020-0188,2020-06-04,09:37:05,09:54:50,NA,incomplete,204,race,2,0,left,C_M_09.jpg,C_F_15.jpg,A_M_13.jpg,left,871.0950000677258,true,high,NA,NA,NA,NA,NA,NA,NA,false
Do6i9Sv4,3ba7sxog2m30f57lxuc2l92uxdc8rv,34s6n1k2zzwks2bvmgee1uilhvglhu,Do6i9Sv4,2020-0188,2020-06-04,09:37:05,09:54:50,NA,incomplete,205,race,2,1,right,A_M_15.jpg,C_M_12.jpg,A_F_08.jpg,right,853.3100001513958,true,high,NA,NA,NA,NA,NA,NA,NA,false
Do6i9Sv4,3ba7sxog2m30f57lxuc2l92uxdc8rv,34s6n1k2zzwks2bvmgee1uilhvglhu,Do6i9Sv4,2020-0188,2020-06-04,09:37:05,09:54:50,NA,incomplete,206,race,2,1,left,C_F_01.jpg,C_M_07.jpg,A_F_13.jpg,left,1334.7100000828505,true,high,NA,NA,NA,NA,NA,NA,NA,false
Do6i9Sv4,3ba7sxog2m30f57lxuc2l92uxdc8rv,34s6n1k2zzwks2bvmgee1uilhvglhu,Do6i9Sv4,2020-0188,2020-06-04,09:37:05,09:54:50,NA,incomplete,207,race,2,1,right,A_F_02.jpg,C_F_05.jpg,A_M_12.jpg,right,800.2300001680851,true,high,NA,NA,NA,NA,NA,NA,NA,false
Do6i9Sv4,3ba7sxog2m30f57lxuc2l92uxdc8rv,34s6n1k2zzwks2bvmgee1uilhvglhu,Do6i9Sv4,2020-0188,2020-06-04,09:37:05,09:54:50,NA,incomplete,208,race,2,1,right,A_M_05.jpg,C_M_12.jpg,A_F_06.jpg,right,955.5750000290573,true,high,NA,NA,NA,NA,NA,NA,NA,false
Do6i9Sv4,3ba7sxog2m30f57lxuc2l92uxdc8rv,34s6n1k2zzwks2bvmgee1uilhvglhu,Do6i9Sv4,2020-0188,2020-06-04,09:37:05,09:54:50,NA,incomplete,209,race,2,1,left,C_M_09.jpg,C_F_14.jpg,A_M_13.jpg,left,732.1599998977035,true,high,NA,NA,NA,NA,NA,NA,NA,false
Do6i9Sv4,3ba7sxog2m30f57lxuc2l92uxdc8rv,34s6n1k2zzwks2bvmgee1uilhvglhu,Do6i9Sv4,2020-0188,2020-06-04,09:37:05,09:54:50,NA,incomplete,210,race,2,1,right,C_M_12.jpg,A_M_10.jpg,C_F_16.jpg,right,1012.0500000193715,true,high,NA,NA,NA,NA,NA,NA,NA,false
Do6i9Sv4,3ba7sxog2m30f57lxuc2l92uxdc8rv,34s6n1k2zzwks2bvmgee1uilhvglhu,Do6i9Sv4,2020-0188,2020-06-04,09:37:05,09:54:50,NA,incomplete,211,race,2,1,right,C_M_01.jpg,A_M_15.jpg,C_F_09.jpg,right,926.5100001357496,true,high,NA,NA,NA,NA,NA,NA,NA,false
Do6i9Sv4,3ba7sxog2m30f57lxuc2l92uxdc8rv,34s6n1k2zzwks2bvmgee1uilhvglhu,Do6i9Sv4,2020-0188,2020-06-04,09:37:05,09:54:50,NA,incomplete,212,race,2,1,right,A_F_16.jpg,C_F_04.jpg,A_M_09.jpg,right,1071.0449998732656,true,high,NA,NA,NA,NA,NA,NA,NA,false
Do6i9Sv4,3ba7sxog2m30f57lxuc2l92uxdc8rv,34s6n1k2zzwks2bvmgee1uilhvglhu,Do6i9Sv4,2020-0188,2020-06-04,09:37:05,09:54:50,NA,incomplete,213,race,2,1,left,A_M_14.jpg,A_F_01.jpg,C_M_06.jpg,left,810.1449999958277,true,high,NA,NA,NA,NA,NA,NA,NA,false
Do6i9Sv4,3ba7sxog2m30f57lxuc2l92uxdc8rv,34s6n1k2zzwks2bvmgee1uilhvglhu,Do6i9Sv4,2020-0188,2020-06-04,09:37:05,09:54:50,NA,incomplete,214,race,2,0,right,A_M_15.jpg,C_M_05.jpg,A_F_01.jpg,right,736.7349998094141,true,high,NA,NA,NA,NA,NA,NA,NA,false
Do6i9Sv4,3ba7sxog2m30f57lxuc2l92uxdc8rv,34s6n1k2zzwks2bvmgee1uilhvglhu,Do6i9Sv4,2020-0188,2020-06-04,09:37:05,09:54:50,NA,incomplete,215,race,2,1,left,A_M_04.jpg,A_F_07.jpg,C_M_14.jpg,left,648.8050001207739,true,high,NA,NA,NA,NA,NA,NA,NA,false
Do6i9Sv4,3ba7sxog2m30f57lxuc2l92uxdc8rv,34s6n1k2zzwks2bvmgee1uilhvglhu,Do6i9Sv4,2020-0188,2020-06-04,09:37:05,09:54:50,NA,incomplete,216,race,2,1,right,C_F_06.jpg,A_F_01.jpg,C_M_12.jpg,right,1179.634999949485,true,high,NA,NA,NA,NA,NA,NA,NA,false
Do6i9Sv4,3ba7sxog2m30f57lxuc2l92uxdc8rv,34s6n1k2zzwks2bvmgee1uilhvglhu,Do6i9Sv4,2020-0188,2020-06-04,09:37:05,09:54:50,NA,incomplete,217,race,2,0,left,C_F_05.jpg,C_M_12.jpg,A_F_01.jpg,left,900.0399999786168,true,high,NA,NA,NA,NA,NA,NA,NA,false
Do6i9Sv4,3ba7sxog2m30f57lxuc2l92uxdc8rv,34s6n1k2zzwks2bvmgee1uilhvglhu,Do6i9Sv4,2020-0188,2020-06-04,09:37:05,09:54:50,NA,incomplete,218,race,2,1,right,C_F_06.jpg,A_F_02.jpg,C_M_05.jpg,right,847.3999998532236,true,high,NA,NA,NA,NA,NA,NA,NA,false
Do6i9Sv4,3ba7sxog2m30f57lxuc2l92uxdc8rv,34s6n1k2zzwks2bvmgee1uilhvglhu,Do6i9Sv4,2020-0188,2020-06-04,09:37:05,09:54:50,NA,incomplete,219,race,2,0,right,A_M_07.jpg,C_M_03.jpg,A_F_15.jpg,right,1201.9899999722838,true,high,NA,NA,NA,NA,NA,NA,NA,false
Do6i9Sv4,3ba7sxog2m30f57lxuc2l92uxdc8rv,34s6n1k2zzwks2bvmgee1uilhvglhu,Do6i9Sv4,2020-0188,2020-06-04,09:37:05,09:54:50,NA,incomplete,220,gender,3,1,left,A_F_13.jpg,C_F_15.jpg,A_M_05.jpg,right,888.1550000514835,false,high,NA,NA,NA,NA,NA,NA,NA,false
Do6i9Sv4,3ba7sxog2m30f57lxuc2l92uxdc8rv,34s6n1k2zzwks2bvmgee1uilhvglhu,Do6i9Sv4,2020-0188,2020-06-04,09:37:05,09:54:50,NA,incomplete,221,gender,3,1,right,A_M_10.jpg,A_F_03.jpg,C_M_15.jpg,right,958.82000005804,true,high,NA,NA,NA,NA,NA,NA,NA,false
Do6i9Sv4,3ba7sxog2m30f57lxuc2l92uxdc8rv,34s6n1k2zzwks2bvmgee1uilhvglhu,Do6i9Sv4,2020-0188,2020-06-04,09:37:05,09:54:50,NA,incomplete,222,gender,3,1,right,A_F_07.jpg,A_M_13.jpg,C_F_04.jpg,left,795.6149999517947,false,high,NA,NA,NA,NA,NA,NA,NA,false
Do6i9Sv4,3ba7sxog2m30f57lxuc2l92uxdc8rv,34s6n1k2zzwks2bvmgee1uilhvglhu,Do6i9Sv4,2020-0188,2020-06-04,09:37:05,09:54:50,NA,incomplete,223,gender,3,1,left,C_F_14.jpg,A_F_10.jpg,C_M_01.jpg,left,906.1900000087917,true,high,NA,NA,NA,NA,NA,NA,NA,false
Do6i9Sv4,3ba7sxog2m30f57lxuc2l92uxdc8rv,34s6n1k2zzwks2bvmgee1uilhvglhu,Do6i9Sv4,2020-0188,2020-06-04,09:37:05,09:54:50,NA,incomplete,224,gender,3,1,left,C_F_06.jpg,A_F_03.jpg,C_M_08.jpg,left,618.5749999713153,true,high,NA,NA,NA,NA,NA,NA,NA,false
Do6i9Sv4,3ba7sxog2m30f57lxuc2l92uxdc8rv,34s6n1k2zzwks2bvmgee1uilhvglhu,Do6i9Sv4,2020-0188,2020-06-04,09:37:05,09:54:50,NA,incomplete,225,gender,3,1,right,C_M_02.jpg,C_F_08.jpg,A_M_01.jpg,right,782.0999999530613,true,high,NA,NA,NA,NA,NA,NA,NA,false
Do6i9Sv4,3ba7sxog2m30f57lxuc2l92uxdc8rv,34s6n1k2zzwks2bvmgee1uilhvglhu,Do6i9Sv4,2020-0188,2020-06-04,09:37:05,09:54:50,NA,incomplete,226,gender,3,1,right,C_M_08.jpg,C_F_02.jpg,A_M_15.jpg,right,650.6650000810623,true,high,NA,NA,NA,NA,NA,NA,NA,false
Do6i9Sv4,3ba7sxog2m30f57lxuc2l92uxdc8rv,34s6n1k2zzwks2bvmgee1uilhvglhu,Do6i9Sv4,2020-0188,2020-06-04,09:37:05,09:54:50,NA,incomplete,227,gender,3,0,left,C_M_07.jpg,A_M_05.jpg,C_F_14.jpg,left,665.3599999845028,true,high,NA,NA,NA,NA,NA,NA,NA,false
Do6i9Sv4,3ba7sxog2m30f57lxuc2l92uxdc8rv,34s6n1k2zzwks2bvmgee1uilhvglhu,Do6i9Sv4,2020-0188,2020-06-04,09:37:05,09:54:50,NA,incomplete,228,gender,3,1,right,A_F_15.jpg,A_M_03.jpg,C_F_04.jpg,right,719.6399997919798,true,high,NA,NA,NA,NA,NA,NA,NA,false
Do6i9Sv4,3ba7sxog2m30f57lxuc2l92uxdc8rv,34s6n1k2zzwks2bvmgee1uilhvglhu,Do6i9Sv4,2020-0188,2020-06-04,09:37:05,09:54:50,NA,incomplete,229,gender,3,1,left,A_M_08.jpg,C_M_16.jpg,A_F_02.jpg,left,674.8649999499321,true,high,NA,NA,NA,NA,NA,NA,NA,false
Do6i9Sv4,3ba7sxog2m30f57lxuc2l92uxdc8rv,34s6n1k2zzwks2bvmgee1uilhvglhu,Do6i9Sv4,2020-0188,2020-06-04,09:37:05,09:54:50,NA,incomplete,230,gender,3,1,right,C_M_04.jpg,C_F_10.jpg,A_M_14.jpg,right,936.4549999590963,true,high,NA,NA,NA,NA,NA,NA,NA,false
Do6i9Sv4,3ba7sxog2m30f57lxuc2l92uxdc8rv,34s6n1k2zzwks2bvmgee1uilhvglhu,Do6i9Sv4,2020-0188,2020-06-04,09:37:05,09:54:50,NA,incomplete,231,gender,3,0,right,A_F_13.jpg,A_M_03.jpg,C_F_15.jpg,right,806.9450000766665,true,high,NA,NA,NA,NA,NA,NA,NA,false
Do6i9Sv4,3ba7sxog2m30f57lxuc2l92uxdc8rv,34s6n1k2zzwks2bvmgee1uilhvglhu,Do6i9Sv4,2020-0188,2020-06-04,09:37:05,09:54:50,NA,incomplete,232,gender,3,1,left,C_M_10.jpg,A_M_05.jpg,C_F_04.jpg,left,747.2449999768287,true,high,NA,NA,NA,NA,NA,NA,NA,false
Do6i9Sv4,3ba7sxog2m30f57lxuc2l92uxdc8rv,34s6n1k2zzwks2bvmgee1uilhvglhu,Do6i9Sv4,2020-0188,2020-06-04,09:37:05,09:54:50,NA,incomplete,233,gender,3,1,right,C_M_01.jpg,C_F_11.jpg,A_M_06.jpg,right,766.2349999882281,true,high,NA,NA,NA,NA,NA,NA,NA,false
Do6i9Sv4,3ba7sxog2m30f57lxuc2l92uxdc8rv,34s6n1k2zzwks2bvmgee1uilhvglhu,Do6i9Sv4,2020-0188,2020-06-04,09:37:05,09:54:50,NA,incomplete,234,gender,3,1,left,A_F_11.jpg,C_F_12.jpg,A_M_13.jpg,left,728.5499998833984,true,high,NA,NA,NA,NA,NA,NA,NA,false
Do6i9Sv4,3ba7sxog2m30f57lxuc2l92uxdc8rv,34s6n1k2zzwks2bvmgee1uilhvglhu,Do6i9Sv4,2020-0188,2020-06-04,09:37:05,09:54:50,NA,incomplete,235,gender,3,1,left,A_M_02.jpg,C_M_01.jpg,A_F_16.jpg,left,844.855000032112,true,high,NA,NA,NA,NA,NA,NA,NA,false
Do6i9Sv4,3ba7sxog2m30f57lxuc2l92uxdc8rv,34s6n1k2zzwks2bvmgee1uilhvglhu,Do6i9Sv4,2020-0188,2020-06-04,09:37:05,09:54:50,NA,incomplete,236,gender,3,1,left,A_M_15.jpg,C_M_10.jpg,A_F_01.jpg,left,794.6600001305342,true,high,NA,NA,NA,NA,NA,NA,NA,false
Do6i9Sv4,3ba7sxog2m30f57lxuc2l92uxdc8rv,34s6n1k2zzwks2bvmgee1uilhvglhu,Do6i9Sv4,2020-0188,2020-06-04,09:37:05,09:54:50,NA,incomplete,237,gender,3,1,right,C_M_10.jpg,C_F_11.jpg,A_M_04.jpg,right,838.5349998716265,true,high,NA,NA,NA,NA,NA,NA,NA,false
Do6i9Sv4,3ba7sxog2m30f57lxuc2l92uxdc8rv,34s6n1k2zzwks2bvmgee1uilhvglhu,Do6i9Sv4,2020-0188,2020-06-04,09:37:05,09:54:50,NA,incomplete,238,gender,3,0,right,A_M_03.jpg,A_F_14.jpg,C_M_10.jpg,right,986.6750000510365,true,high,NA,NA,NA,NA,NA,NA,NA,false
Do6i9Sv4,3ba7sxog2m30f57lxuc2l92uxdc8rv,34s6n1k2zzwks2bvmgee1uilhvglhu,Do6i9Sv4,2020-0188,2020-06-04,09:37:05,09:54:50,NA,incomplete,239,gender,3,1,right,C_F_16.jpg,C_M_12.jpg,A_F_02.jpg,right,690.4549999162555,true,high,NA,NA,NA,NA,NA,NA,NA,false
Do6i9Sv4,3ba7sxog2m30f57lxuc2l92uxdc8rv,34s6n1k2zzwks2bvmgee1uilhvglhu,Do6i9Sv4,2020-0188,2020-06-04,09:37:05,09:54:50,NA,NA,instruction example,color,NA,NA,NA,Red_Star_Grid_4.jpg,Red_Plus_Dots_2.jpg,Purple_Triangle_Stripes_4.jpg,NA,NA,NA,NA,NA,NA,NA,NA,NA,NA,NA,undefined
Do6i9Sv4,3ba7sxog2m30f57lxuc2l92uxdc8rv,34s6n1k2zzwks2bvmgee1uilhvglhu,Do6i9Sv4,2020-0188,2020-06-04,09:37:05,09:54:50,NA,NA,instruction example,color,NA,NA,NA,Purple_Plus_Chess_4.jpg,Green_Triangle_Stripes_4.jpg,Purple_Star_Grid_2.jpg,NA,NA,NA,NA,NA,NA,NA,NA,NA,NA,NA,undefined
Do6i9Sv4,3ba7sxog2m30f57lxuc2l92uxdc8rv,34s6n1k2zzwks2bvmgee1uilhvglhu,Do6i9Sv4,2020-0188,2020-06-04,09:37:05,09:54:50,NA,NA,instruction example,color,NA,NA,NA,C_F_15.jpg,C_M_13.jpg,A_F_07.jpg,NA,NA,NA,NA,NA,NA,NA,NA,NA,NA,NA,undefined
Do6i9Sv4,3ba7sxog2m30f57lxuc2l92uxdc8rv,34s6n1k2zzwks2bvmgee1uilhvglhu,Do6i9Sv4,2020-0188,2020-06-04,09:37:05,09:54:50,NA,NA,instruction example,color,NA,NA,NA,A_M_06.jpg,C_M_10.jpg,A_F_05.jpg,NA,NA,NA,NA,NA,NA,NA,NA,NA,NA,NA,undefined
Do6i9Sv4,3ba7sxog2m30f57lxuc2l92uxdc8rv,34s6n1k2zzwks2bvmgee1uilhvglhu,Do6i9Sv4,2020-0188,2020-06-04,09:37:05,09:54:50,1030731.2650000677,1066147.7749999613,NA,NA,NA,NA,NA,NA,NA,NA,NA,NA,NA,NA,40,White/Caucasian,Female,white,no,yes,no,undefined
