workerId,hitId,assignmentId,subject,studyid,exp_date,exp_start,exp_end,time_start,time_end,trial,type,sequence,reward_validity,answer,image_top,image_left,image_right,response,response_time,response_acc,volatility,practice
DrUIBqdd,3r6rzgk0yip7nifkjif6ljfzh4yvyd,354p56de9oga3q09tgp3m37nryz7sl,DrUIBqdd,2020-0188,2020-11-16,18:40:05,18:53:13,NA,incomplete,0,filling,0,1,right,Purple_Plus_Grid_1.jpg,Red_Plus_Dots_3.jpg,Blue_Triangle_Grid_2.jpg,right,1282.7699999907054,true,NA,true
DrUIBqdd,3r6rzgk0yip7nifkjif6ljfzh4yvyd,354p56de9oga3q09tgp3m37nryz7sl,DrUIBqdd,2020-0188,2020-11-16,18:40:05,18:53:13,NA,incomplete,1,filling,0,1,right,Green_Circle_Dots_2.jpg,Red_Circle_Chess_3.jpg,Blue_Triangle_Dots_4.jpg,right,751.6649999888614,true,NA,true
DrUIBqdd,3r6rzgk0yip7nifkjif6ljfzh4yvyd,354p56de9oga3q09tgp3m37nryz7sl,DrUIBqdd,2020-0188,2020-11-16,18:40:05,18:53:13,NA,incomplete,2,filling,0,1,right,Green_Triangle_Grid_4.jpg,Blue_Triangle_Stripes_1.jpg,Purple_Plus_Grid_2.jpg,left,739.2950000357814,false,NA,true
DrUIBqdd,3r6rzgk0yip7nifkjif6ljfzh4yvyd,354p56de9oga3q09tgp3m37nryz7sl,DrUIBqdd,2020-0188,2020-11-16,18:40:05,18:53:13,NA,incomplete,3,filling,0,1,left,Green_Triangle_Chess_4.jpg,Purple_Star_Chess_2.jpg,Red_Triangle_Grid_3.jpg,left,979.8399999854155,true,NA,true
DrUIBqdd,3r6rzgk0yip7nifkjif6ljfzh4yvyd,354p56de9oga3q09tgp3m37nryz7sl,DrUIBqdd,2020-0188,2020-11-16,18:40:05,18:53:13,NA,incomplete,4,filling,0,1,right,Blue_Triangle_Chess_2.jpg,Green_Triangle_Dots_4.jpg,Red_Plus_Chess_3.jpg,right,970.0200000079349,true,NA,true
DrUIBqdd,3r6rzgk0yip7nifkjif6ljfzh4yvyd,354p56de9oga3q09tgp3m37nryz7sl,DrUIBqdd,2020-0188,2020-11-16,18:40:05,18:53:13,NA,incomplete,5,filling,0,1,left,Red_Star_Chess_1.jpg,Purple_Circle_Chess_3.jpg,Green_Star_Stripes_2.jpg,left,800.0950000132434,true,NA,true
DrUIBqdd,3r6rzgk0yip7nifkjif6ljfzh4yvyd,354p56de9oga3q09tgp3m37nryz7sl,DrUIBqdd,2020-0188,2020-11-16,18:40:05,18:53:13,NA,incomplete,6,filling,0,0,right,Red_Plus_Dots_4.jpg,Green_Plus_Grid_1.jpg,Blue_Circle_Dots_2.jpg,right,795.9350000019185,true,NA,true
DrUIBqdd,3r6rzgk0yip7nifkjif6ljfzh4yvyd,354p56de9oga3q09tgp3m37nryz7sl,DrUIBqdd,2020-0188,2020-11-16,18:40:05,18:53:13,NA,incomplete,7,filling,0,1,right,Green_Plus_Chess_3.jpg,Purple_Plus_Grid_2.jpg,Blue_Star_Chess_1.jpg,right,971.7100000125356,true,NA,true
DrUIBqdd,3r6rzgk0yip7nifkjif6ljfzh4yvyd,354p56de9oga3q09tgp3m37nryz7sl,DrUIBqdd,2020-0188,2020-11-16,18:40:05,18:53:13,NA,incomplete,8,filling,0,1,right,Green_Star_Grid_2.jpg,Blue_Star_Stripes_4.jpg,Purple_Plus_Grid_3.jpg,right,905.7150000007823,true,NA,true
DrUIBqdd,3r6rzgk0yip7nifkjif6ljfzh4yvyd,354p56de9oga3q09tgp3m37nryz7sl,DrUIBqdd,2020-0188,2020-11-16,18:40:05,18:53:13,NA,incomplete,9,filling,0,0,right,Purple_Plus_Grid_1.jpg,Blue_Plus_Chess_3.jpg,Green_Triangle_Grid_4.jpg,right,993.1649999925867,true,NA,true
DrUIBqdd,3r6rzgk0yip7nifkjif6ljfzh4yvyd,354p56de9oga3q09tgp3m37nryz7sl,DrUIBqdd,2020-0188,2020-11-16,18:40:05,18:53:13,NA,incomplete,10,filling,0,1,right,Red_Plus_Grid_4.jpg,Purple_Plus_Chess_1.jpg,Green_Triangle_Grid_2.jpg,right,961.669999989681,true,NA,true
DrUIBqdd,3r6rzgk0yip7nifkjif6ljfzh4yvyd,354p56de9oga3q09tgp3m37nryz7sl,DrUIBqdd,2020-0188,2020-11-16,18:40:05,18:53:13,NA,incomplete,11,filling,0,1,left,Red_Triangle_Chess_3.jpg,Blue_Plus_Chess_2.jpg,Green_Triangle_Dots_1.jpg,left,923.7600000342354,true,NA,true
DrUIBqdd,3r6rzgk0yip7nifkjif6ljfzh4yvyd,354p56de9oga3q09tgp3m37nryz7sl,DrUIBqdd,2020-0188,2020-11-16,18:40:05,18:53:13,NA,incomplete,12,filling,0,1,right,Purple_Triangle_Dots_1.jpg,Blue_Triangle_Grid_3.jpg,Green_Circle_Dots_2.jpg,right,905.289999966044,true,NA,true
DrUIBqdd,3r6rzgk0yip7nifkjif6ljfzh4yvyd,354p56de9oga3q09tgp3m37nryz7sl,DrUIBqdd,2020-0188,2020-11-16,18:40:05,18:53:13,NA,incomplete,13,filling,0,1,left,Green_Plus_Dots_2.jpg,Purple_Triangle_Dots_3.jpg,Red_Plus_Chess_1.jpg,left,1012.4099999666214,true,NA,true
DrUIBqdd,3r6rzgk0yip7nifkjif6ljfzh4yvyd,354p56de9oga3q09tgp3m37nryz7sl,DrUIBqdd,2020-0188,2020-11-16,18:40:05,18:53:13,NA,incomplete,14,filling,0,1,left,Blue_Triangle_Grid_1.jpg,Purple_Plus_Grid_3.jpg,Green_Triangle_Stripes_4.jpg,left,1108.310000039637,true,NA,true
DrUIBqdd,3r6rzgk0yip7nifkjif6ljfzh4yvyd,354p56de9oga3q09tgp3m37nryz7sl,DrUIBqdd,2020-0188,2020-11-16,18:40:05,18:53:13,NA,incomplete,15,filling,0,0,right,Blue_Circle_Stripes_3.jpg,Green_Circle_Grid_1.jpg,Red_Plus_Stripes_2.jpg,right,1007.4949999689125,true,NA,true
DrUIBqdd,3r6rzgk0yip7nifkjif6ljfzh4yvyd,354p56de9oga3q09tgp3m37nryz7sl,DrUIBqdd,2020-0188,2020-11-16,18:40:05,18:53:13,NA,incomplete,16,filling,0,0,left,Blue_Circle_Chess_3.jpg,Red_Plus_Chess_2.jpg,Green_Circle_Grid_1.jpg,left,1060.605000006035,true,NA,true
DrUIBqdd,3r6rzgk0yip7nifkjif6ljfzh4yvyd,354p56de9oga3q09tgp3m37nryz7sl,DrUIBqdd,2020-0188,2020-11-16,18:40:05,18:53:13,NA,incomplete,17,filling,0,0,right,Green_Triangle_Grid_2.jpg,Blue_Triangle_Stripes_4.jpg,Red_Circle_Grid_1.jpg,right,1044.0250000101514,true,NA,true
DrUIBqdd,3r6rzgk0yip7nifkjif6ljfzh4yvyd,354p56de9oga3q09tgp3m37nryz7sl,DrUIBqdd,2020-0188,2020-11-16,18:40:05,18:53:13,NA,incomplete,18,filling,0,1,right,Green_Circle_Chess_3.jpg,Purple_Circle_Grid_4.jpg,Red_Triangle_Chess_1.jpg,right,947.7099999785423,true,NA,true
DrUIBqdd,3r6rzgk0yip7nifkjif6ljfzh4yvyd,354p56de9oga3q09tgp3m37nryz7sl,DrUIBqdd,2020-0188,2020-11-16,18:40:05,18:53:13,NA,incomplete,19,filling,0,0,left,Red_Circle_Grid_1.jpg,Purple_Plus_Grid_4.jpg,Blue_Circle_Chess_2.jpg,left,930.324999964796,true,NA,true
DrUIBqdd,3r6rzgk0yip7nifkjif6ljfzh4yvyd,354p56de9oga3q09tgp3m37nryz7sl,DrUIBqdd,2020-0188,2020-11-16,18:40:05,18:53:13,NA,incomplete,20,shape,1,1,left,Red_Star_Chess_1.jpg,Green_Star_Stripes_2.jpg,Blue_Circle_Chess_4.jpg,left,883.4749999805354,true,NA,true
DrUIBqdd,3r6rzgk0yip7nifkjif6ljfzh4yvyd,354p56de9oga3q09tgp3m37nryz7sl,DrUIBqdd,2020-0188,2020-11-16,18:40:05,18:53:13,NA,incomplete,21,shape,1,1,left,Purple_Circle_Grid_2.jpg,Blue_Circle_Dots_1.jpg,Red_Triangle_Grid_4.jpg,left,738.6849999893457,true,NA,true
DrUIBqdd,3r6rzgk0yip7nifkjif6ljfzh4yvyd,354p56de9oga3q09tgp3m37nryz7sl,DrUIBqdd,2020-0188,2020-11-16,18:40:05,18:53:13,NA,incomplete,22,shape,1,1,right,Red_Plus_Dots_1.jpg,Purple_Star_Dots_4.jpg,Blue_Plus_Grid_3.jpg,right,678.139999974519,true,NA,true
DrUIBqdd,3r6rzgk0yip7nifkjif6ljfzh4yvyd,354p56de9oga3q09tgp3m37nryz7sl,DrUIBqdd,2020-0188,2020-11-16,18:40:05,18:53:13,NA,incomplete,23,shape,1,1,right,Purple_Triangle_Stripes_2.jpg,Blue_Circle_Stripes_4.jpg,Red_Triangle_Grid_3.jpg,right,685.6949999928474,true,NA,true
DrUIBqdd,3r6rzgk0yip7nifkjif6ljfzh4yvyd,354p56de9oga3q09tgp3m37nryz7sl,DrUIBqdd,2020-0188,2020-11-16,18:40:05,18:53:13,NA,incomplete,24,shape,1,1,left,Green_Star_Grid_1.jpg,Red_Star_Stripes_3.jpg,Blue_Triangle_Grid_2.jpg,left,555.4850000189617,true,NA,true
DrUIBqdd,3r6rzgk0yip7nifkjif6ljfzh4yvyd,354p56de9oga3q09tgp3m37nryz7sl,DrUIBqdd,2020-0188,2020-11-16,18:40:05,18:53:13,NA,incomplete,25,shape,1,1,right,Purple_Circle_Stripes_1.jpg,Blue_Star_Stripes_4.jpg,Green_Circle_Grid_2.jpg,right,511.7150000296533,true,NA,true
DrUIBqdd,3r6rzgk0yip7nifkjif6ljfzh4yvyd,354p56de9oga3q09tgp3m37nryz7sl,DrUIBqdd,2020-0188,2020-11-16,18:40:05,18:53:13,NA,incomplete,26,shape,1,1,left,Green_Star_Stripes_1.jpg,Red_Star_Dots_2.jpg,Blue_Triangle_Stripes_3.jpg,left,568.7599999946542,true,NA,true
DrUIBqdd,3r6rzgk0yip7nifkjif6ljfzh4yvyd,354p56de9oga3q09tgp3m37nryz7sl,DrUIBqdd,2020-0188,2020-11-16,18:40:05,18:53:13,NA,incomplete,27,shape,1,1,right,Blue_Star_Dots_4.jpg,Red_Plus_Dots_1.jpg,Green_Star_Chess_2.jpg,right,571.5799999888986,true,NA,true
DrUIBqdd,3r6rzgk0yip7nifkjif6ljfzh4yvyd,354p56de9oga3q09tgp3m37nryz7sl,DrUIBqdd,2020-0188,2020-11-16,18:40:05,18:53:13,NA,incomplete,28,shape,1,1,right,Purple_Plus_Stripes_4.jpg,Green_Circle_Stripes_2.jpg,Red_Plus_Chess_1.jpg,right,583.1799999577925,true,NA,true
DrUIBqdd,3r6rzgk0yip7nifkjif6ljfzh4yvyd,354p56de9oga3q09tgp3m37nryz7sl,DrUIBqdd,2020-0188,2020-11-16,18:40:05,18:53:13,NA,incomplete,29,shape,1,0,left,Red_Star_Dots_3.jpg,Green_Star_Grid_4.jpg,Purple_Circle_Dots_1.jpg,left,484.75000000325963,true,NA,true
DrUIBqdd,3r6rzgk0yip7nifkjif6ljfzh4yvyd,354p56de9oga3q09tgp3m37nryz7sl,DrUIBqdd,2020-0188,2020-11-16,18:40:05,18:53:13,NA,incomplete,30,shape,1,1,left,Red_Triangle_Grid_1.jpg,Purple_Triangle_Dots_2.jpg,Green_Circle_Grid_3.jpg,left,550.93999998644,true,NA,true
DrUIBqdd,3r6rzgk0yip7nifkjif6ljfzh4yvyd,354p56de9oga3q09tgp3m37nryz7sl,DrUIBqdd,2020-0188,2020-11-16,18:40:05,18:53:13,NA,incomplete,31,shape,1,1,right,Purple_Triangle_Dots_3.jpg,Blue_Plus_Dots_1.jpg,Green_Triangle_Stripes_2.jpg,right,533.9249999960884,true,NA,true
DrUIBqdd,3r6rzgk0yip7nifkjif6ljfzh4yvyd,354p56de9oga3q09tgp3m37nryz7sl,DrUIBqdd,2020-0188,2020-11-16,18:40:05,18:53:13,NA,incomplete,32,shape,1,0,left,Purple_Circle_Dots_1.jpg,Blue_Circle_Chess_2.jpg,Red_Triangle_Dots_3.jpg,left,589.3899999791756,true,NA,true
DrUIBqdd,3r6rzgk0yip7nifkjif6ljfzh4yvyd,354p56de9oga3q09tgp3m37nryz7sl,DrUIBqdd,2020-0188,2020-11-16,18:40:05,18:53:13,NA,incomplete,33,shape,1,1,right,Purple_Plus_Grid_1.jpg,Blue_Star_Grid_2.jpg,Red_Plus_Stripes_3.jpg,right,495.87500002235174,true,NA,true
DrUIBqdd,3r6rzgk0yip7nifkjif6ljfzh4yvyd,354p56de9oga3q09tgp3m37nryz7sl,DrUIBqdd,2020-0188,2020-11-16,18:40:05,18:53:13,NA,incomplete,34,shape,1,1,right,Green_Triangle_Dots_3.jpg,Blue_Circle_Dots_2.jpg,Purple_Triangle_Stripes_4.jpg,right,454.48499999474734,true,NA,true
DrUIBqdd,3r6rzgk0yip7nifkjif6ljfzh4yvyd,354p56de9oga3q09tgp3m37nryz7sl,DrUIBqdd,2020-0188,2020-11-16,18:40:05,18:53:13,NA,incomplete,35,shape,1,1,right,Green_Plus_Grid_3.jpg,Red_Star_Grid_4.jpg,Purple_Plus_Dots_1.jpg,right,516.910000005737,true,NA,true
DrUIBqdd,3r6rzgk0yip7nifkjif6ljfzh4yvyd,354p56de9oga3q09tgp3m37nryz7sl,DrUIBqdd,2020-0188,2020-11-16,18:40:05,18:53:13,NA,incomplete,36,shape,1,1,right,Blue_Triangle_Stripes_3.jpg,Red_Star_Stripes_2.jpg,Purple_Triangle_Dots_4.jpg,right,627.0350000122562,true,NA,true
DrUIBqdd,3r6rzgk0yip7nifkjif6ljfzh4yvyd,354p56de9oga3q09tgp3m37nryz7sl,DrUIBqdd,2020-0188,2020-11-16,18:40:05,18:53:13,NA,incomplete,37,shape,1,1,left,Blue_Circle_Chess_3.jpg,Red_Circle_Grid_4.jpg,Green_Star_Chess_1.jpg,left,531.6850000526756,true,NA,true
DrUIBqdd,3r6rzgk0yip7nifkjif6ljfzh4yvyd,354p56de9oga3q09tgp3m37nryz7sl,DrUIBqdd,2020-0188,2020-11-16,18:40:05,18:53:13,NA,incomplete,38,shape,1,1,left,Blue_Star_Chess_1.jpg,Purple_Star_Dots_2.jpg,Green_Circle_Chess_4.jpg,left,518.1400000001304,true,NA,true
DrUIBqdd,3r6rzgk0yip7nifkjif6ljfzh4yvyd,354p56de9oga3q09tgp3m37nryz7sl,DrUIBqdd,2020-0188,2020-11-16,18:40:05,18:53:13,NA,incomplete,39,shape,1,1,left,Green_Circle_Chess_3.jpg,Red_Circle_Dots_1.jpg,Purple_Plus_Chess_2.jpg,left,541.5150000480935,true,NA,true
DrUIBqdd,3r6rzgk0yip7nifkjif6ljfzh4yvyd,354p56de9oga3q09tgp3m37nryz7sl,DrUIBqdd,2020-0188,2020-11-16,18:40:05,18:53:13,NA,incomplete,0,filling,0,1,left,Purple_Triangle_Dots_1.jpg,Blue_Plus_Dots_4.jpg,Red_Triangle_Chess_2.jpg,right,1137.3650000314228,false,high,false
DrUIBqdd,3r6rzgk0yip7nifkjif6ljfzh4yvyd,354p56de9oga3q09tgp3m37nryz7sl,DrUIBqdd,2020-0188,2020-11-16,18:40:05,18:53:13,NA,incomplete,1,filling,0,0,right,Blue_Circle_Chess_1.jpg,Purple_Circle_Grid_2.jpg,Green_Plus_Chess_3.jpg,right,975.7349999854341,true,high,false
DrUIBqdd,3r6rzgk0yip7nifkjif6ljfzh4yvyd,354p56de9oga3q09tgp3m37nryz7sl,DrUIBqdd,2020-0188,2020-11-16,18:40:05,18:53:13,NA,incomplete,2,filling,0,1,left,Blue_Star_Stripes_3.jpg,Purple_Triangle_Stripes_4.jpg,Red_Star_Chess_1.jpg,left,855.0099999993108,true,high,false
DrUIBqdd,3r6rzgk0yip7nifkjif6ljfzh4yvyd,354p56de9oga3q09tgp3m37nryz7sl,DrUIBqdd,2020-0188,2020-11-16,18:40:05,18:53:13,NA,incomplete,3,filling,0,1,right,Red_Star_Chess_2.jpg,Green_Star_Stripes_1.jpg,Purple_Plus_Chess_3.jpg,right,1190.1150000048801,true,high,false
DrUIBqdd,3r6rzgk0yip7nifkjif6ljfzh4yvyd,354p56de9oga3q09tgp3m37nryz7sl,DrUIBqdd,2020-0188,2020-11-16,18:40:05,18:53:13,NA,incomplete,4,filling,0,0,left,Blue_Plus_Grid_3.jpg,Green_Circle_Grid_2.jpg,Red_Plus_Dots_1.jpg,left,858.2750000059605,true,high,false
DrUIBqdd,3r6rzgk0yip7nifkjif6ljfzh4yvyd,354p56de9oga3q09tgp3m37nryz7sl,DrUIBqdd,2020-0188,2020-11-16,18:40:05,18:53:13,NA,incomplete,5,filling,0,1,left,Purple_Circle_Chess_3.jpg,Green_Triangle_Chess_1.jpg,Blue_Circle_Grid_2.jpg,left,1101.5400000032969,true,high,false
DrUIBqdd,3r6rzgk0yip7nifkjif6ljfzh4yvyd,354p56de9oga3q09tgp3m37nryz7sl,DrUIBqdd,2020-0188,2020-11-16,18:40:05,18:53:13,NA,incomplete,6,filling,0,1,left,Blue_Triangle_Stripes_1.jpg,Purple_Plus_Stripes_2.jpg,Red_Triangle_Chess_4.jpg,left,943.2150000357069,true,high,false
DrUIBqdd,3r6rzgk0yip7nifkjif6ljfzh4yvyd,354p56de9oga3q09tgp3m37nryz7sl,DrUIBqdd,2020-0188,2020-11-16,18:40:05,18:53:13,NA,incomplete,7,filling,0,1,right,Green_Star_Chess_4.jpg,Purple_Star_Grid_1.jpg,Red_Plus_Chess_3.jpg,right,806.2499999650754,true,high,false
DrUIBqdd,3r6rzgk0yip7nifkjif6ljfzh4yvyd,354p56de9oga3q09tgp3m37nryz7sl,DrUIBqdd,2020-0188,2020-11-16,18:40:05,18:53:13,NA,incomplete,8,filling,0,1,right,Red_Star_Dots_3.jpg,Purple_Star_Stripes_2.jpg,Green_Triangle_Dots_4.jpg,right,860.9749999595806,true,high,false
DrUIBqdd,3r6rzgk0yip7nifkjif6ljfzh4yvyd,354p56de9oga3q09tgp3m37nryz7sl,DrUIBqdd,2020-0188,2020-11-16,18:40:05,18:53:13,NA,incomplete,9,filling,0,1,right,Green_Circle_Grid_1.jpg,Blue_Circle_Chess_4.jpg,Red_Plus_Grid_2.jpg,right,962.1399999596179,true,high,false
DrUIBqdd,3r6rzgk0yip7nifkjif6ljfzh4yvyd,354p56de9oga3q09tgp3m37nryz7sl,DrUIBqdd,2020-0188,2020-11-16,18:40:05,18:53:13,NA,incomplete,10,shape,1,1,left,Red_Star_Stripes_2.jpg,Purple_Star_Chess_3.jpg,Blue_Triangle_Stripes_1.jpg,right,902.9200000222772,false,high,false
DrUIBqdd,3r6rzgk0yip7nifkjif6ljfzh4yvyd,354p56de9oga3q09tgp3m37nryz7sl,DrUIBqdd,2020-0188,2020-11-16,18:40:05,18:53:13,NA,incomplete,11,shape,1,1,left,Red_Star_Chess_3.jpg,Purple_Star_Grid_2.jpg,Green_Circle_Chess_1.jpg,left,1046.1950000026263,true,high,false
DrUIBqdd,3r6rzgk0yip7nifkjif6ljfzh4yvyd,354p56de9oga3q09tgp3m37nryz7sl,DrUIBqdd,2020-0188,2020-11-16,18:40:05,18:53:13,NA,incomplete,12,shape,1,1,left,Purple_Plus_Dots_1.jpg,Red_Plus_Grid_2.jpg,Green_Triangle_Dots_4.jpg,left,712.6099999877624,true,high,false
DrUIBqdd,3r6rzgk0yip7nifkjif6ljfzh4yvyd,354p56de9oga3q09tgp3m37nryz7sl,DrUIBqdd,2020-0188,2020-11-16,18:40:05,18:53:13,NA,incomplete,13,shape,1,1,left,Green_Star_Dots_3.jpg,Blue_Star_Grid_2.jpg,Purple_Plus_Dots_1.jpg,left,639.595000015106,true,high,false
DrUIBqdd,3r6rzgk0yip7nifkjif6ljfzh4yvyd,354p56de9oga3q09tgp3m37nryz7sl,DrUIBqdd,2020-0188,2020-11-16,18:40:05,18:53:13,NA,incomplete,14,shape,1,1,right,Red_Circle_Stripes_3.jpg,Green_Plus_Stripes_1.jpg,Purple_Circle_Grid_4.jpg,right,615.8149999682792,true,high,false
DrUIBqdd,3r6rzgk0yip7nifkjif6ljfzh4yvyd,354p56de9oga3q09tgp3m37nryz7sl,DrUIBqdd,2020-0188,2020-11-16,18:40:05,18:53:13,NA,incomplete,15,shape,1,1,left,Green_Triangle_Stripes_3.jpg,Blue_Triangle_Grid_1.jpg,Purple_Circle_Stripes_2.jpg,left,603.6800000001676,true,high,false
DrUIBqdd,3r6rzgk0yip7nifkjif6ljfzh4yvyd,354p56de9oga3q09tgp3m37nryz7sl,DrUIBqdd,2020-0188,2020-11-16,18:40:05,18:53:13,NA,incomplete,16,shape,1,1,right,Red_Circle_Dots_3.jpg,Blue_Plus_Dots_2.jpg,Purple_Circle_Stripes_1.jpg,right,560.204999987036,true,high,false
DrUIBqdd,3r6rzgk0yip7nifkjif6ljfzh4yvyd,354p56de9oga3q09tgp3m37nryz7sl,DrUIBqdd,2020-0188,2020-11-16,18:40:05,18:53:13,NA,incomplete,17,shape,1,1,right,Green_Plus_Dots_3.jpg,Purple_Circle_Dots_4.jpg,Blue_Plus_Stripes_2.jpg,right,564.6549999946728,true,high,false
DrUIBqdd,3r6rzgk0yip7nifkjif6ljfzh4yvyd,354p56de9oga3q09tgp3m37nryz7sl,DrUIBqdd,2020-0188,2020-11-16,18:40:05,18:53:13,NA,incomplete,18,shape,1,1,left,Green_Star_Chess_3.jpg,Blue_Star_Grid_2.jpg,Red_Triangle_Chess_4.jpg,left,595.6850000075065,true,high,false
DrUIBqdd,3r6rzgk0yip7nifkjif6ljfzh4yvyd,354p56de9oga3q09tgp3m37nryz7sl,DrUIBqdd,2020-0188,2020-11-16,18:40:05,18:53:13,NA,incomplete,19,shape,1,1,right,Red_Plus_Grid_4.jpg,Purple_Triangle_Grid_2.jpg,Blue_Plus_Dots_1.jpg,right,578.7949999794364,true,high,false
DrUIBqdd,3r6rzgk0yip7nifkjif6ljfzh4yvyd,354p56de9oga3q09tgp3m37nryz7sl,DrUIBqdd,2020-0188,2020-11-16,18:40:05,18:53:13,NA,incomplete,20,filling,0,1,left,Purple_Plus_Grid_1.jpg,Blue_Star_Grid_3.jpg,Green_Plus_Dots_4.jpg,right,502.3749999818392,false,high,false
DrUIBqdd,3r6rzgk0yip7nifkjif6ljfzh4yvyd,354p56de9oga3q09tgp3m37nryz7sl,DrUIBqdd,2020-0188,2020-11-16,18:40:05,18:53:13,NA,incomplete,21,filling,0,1,right,Green_Plus_Grid_3.jpg,Blue_Plus_Chess_1.jpg,Red_Star_Grid_4.jpg,left,795.4549999558367,false,high,false
DrUIBqdd,3r6rzgk0yip7nifkjif6ljfzh4yvyd,354p56de9oga3q09tgp3m37nryz7sl,DrUIBqdd,2020-0188,2020-11-16,18:40:05,18:53:13,NA,incomplete,22,filling,0,1,right,Purple_Triangle_Chess_1.jpg,Green_Triangle_Stripes_3.jpg,Blue_Plus_Chess_2.jpg,right,852.5549999903888,true,high,false
DrUIBqdd,3r6rzgk0yip7nifkjif6ljfzh4yvyd,354p56de9oga3q09tgp3m37nryz7sl,DrUIBqdd,2020-0188,2020-11-16,18:40:05,18:53:13,NA,incomplete,23,filling,0,1,left,Purple_Triangle_Chess_2.jpg,Red_Plus_Chess_3.jpg,Green_Triangle_Dots_4.jpg,left,648.5850000171922,true,high,false
DrUIBqdd,3r6rzgk0yip7nifkjif6ljfzh4yvyd,354p56de9oga3q09tgp3m37nryz7sl,DrUIBqdd,2020-0188,2020-11-16,18:40:05,18:53:13,NA,incomplete,24,filling,0,1,left,Green_Plus_Stripes_1.jpg,Red_Star_Stripes_4.jpg,Purple_Plus_Chess_3.jpg,left,996.820000000298,true,high,false
DrUIBqdd,3r6rzgk0yip7nifkjif6ljfzh4yvyd,354p56de9oga3q09tgp3m37nryz7sl,DrUIBqdd,2020-0188,2020-11-16,18:40:05,18:53:13,NA,incomplete,25,filling,0,0,left,Purple_Star_Chess_2.jpg,Red_Plus_Chess_3.jpg,Green_Star_Stripes_1.jpg,left,755.9499999624677,true,high,false
DrUIBqdd,3r6rzgk0yip7nifkjif6ljfzh4yvyd,354p56de9oga3q09tgp3m37nryz7sl,DrUIBqdd,2020-0188,2020-11-16,18:40:05,18:53:13,NA,incomplete,26,filling,0,0,right,Purple_Star_Dots_3.jpg,Blue_Star_Stripes_1.jpg,Red_Triangle_Dots_2.jpg,right,1598.8050000160001,true,high,false
DrUIBqdd,3r6rzgk0yip7nifkjif6ljfzh4yvyd,354p56de9oga3q09tgp3m37nryz7sl,DrUIBqdd,2020-0188,2020-11-16,18:40:05,18:53:13,NA,incomplete,27,filling,0,1,left,Blue_Star_Dots_2.jpg,Purple_Circle_Dots_1.jpg,Red_Star_Chess_4.jpg,right,581.209999974817,false,high,false
DrUIBqdd,3r6rzgk0yip7nifkjif6ljfzh4yvyd,354p56de9oga3q09tgp3m37nryz7sl,DrUIBqdd,2020-0188,2020-11-16,18:40:05,18:53:13,NA,incomplete,28,filling,0,1,right,Red_Triangle_Stripes_3.jpg,Blue_Triangle_Chess_1.jpg,Green_Circle_Stripes_4.jpg,left,541.7000000015832,false,high,false
DrUIBqdd,3r6rzgk0yip7nifkjif6ljfzh4yvyd,354p56de9oga3q09tgp3m37nryz7sl,DrUIBqdd,2020-0188,2020-11-16,18:40:05,18:53:13,NA,incomplete,29,filling,0,0,left,Purple_Circle_Dots_3.jpg,Red_Star_Dots_1.jpg,Blue_Circle_Stripes_2.jpg,left,996.66000000434,true,high,false
DrUIBqdd,3r6rzgk0yip7nifkjif6ljfzh4yvyd,354p56de9oga3q09tgp3m37nryz7sl,DrUIBqdd,2020-0188,2020-11-16,18:40:05,18:53:13,NA,incomplete,30,shape,1,1,right,Purple_Triangle_Dots_2.jpg,Green_Star_Dots_4.jpg,Red_Triangle_Stripes_1.jpg,right,669.3949999753386,true,high,false
DrUIBqdd,3r6rzgk0yip7nifkjif6ljfzh4yvyd,354p56de9oga3q09tgp3m37nryz7sl,DrUIBqdd,2020-0188,2020-11-16,18:40:05,18:53:13,NA,incomplete,31,shape,1,1,left,Purple_Triangle_Grid_3.jpg,Red_Triangle_Chess_4.jpg,Blue_Star_Grid_2.jpg,left,750.9200000204146,true,high,false
DrUIBqdd,3r6rzgk0yip7nifkjif6ljfzh4yvyd,354p56de9oga3q09tgp3m37nryz7sl,DrUIBqdd,2020-0188,2020-11-16,18:40:05,18:53:13,NA,incomplete,32,shape,1,1,right,Blue_Triangle_Chess_1.jpg,Purple_Star_Chess_3.jpg,Green_Triangle_Grid_4.jpg,right,568.2399999932386,true,high,false
DrUIBqdd,3r6rzgk0yip7nifkjif6ljfzh4yvyd,354p56de9oga3q09tgp3m37nryz7sl,DrUIBqdd,2020-0188,2020-11-16,18:40:05,18:53:13,NA,incomplete,33,shape,1,1,left,Blue_Triangle_Chess_1.jpg,Red_Triangle_Dots_3.jpg,Purple_Circle_Chess_2.jpg,left,894.5049999747425,true,high,false
DrUIBqdd,3r6rzgk0yip7nifkjif6ljfzh4yvyd,354p56de9oga3q09tgp3m37nryz7sl,DrUIBqdd,2020-0188,2020-11-16,18:40:05,18:53:13,NA,incomplete,34,shape,1,1,right,Green_Star_Grid_3.jpg,Blue_Plus_Grid_1.jpg,Purple_Star_Stripes_4.jpg,right,591.7349999654107,true,high,false
DrUIBqdd,3r6rzgk0yip7nifkjif6ljfzh4yvyd,354p56de9oga3q09tgp3m37nryz7sl,DrUIBqdd,2020-0188,2020-11-16,18:40:05,18:53:13,NA,incomplete,35,shape,1,1,right,Green_Circle_Grid_1.jpg,Purple_Triangle_Grid_4.jpg,Red_Circle_Dots_2.jpg,right,681.7550000268966,true,high,false
DrUIBqdd,3r6rzgk0yip7nifkjif6ljfzh4yvyd,354p56de9oga3q09tgp3m37nryz7sl,DrUIBqdd,2020-0188,2020-11-16,18:40:05,18:53:13,NA,incomplete,36,shape,1,1,right,Purple_Triangle_Grid_3.jpg,Red_Circle_Grid_1.jpg,Blue_Triangle_Chess_4.jpg,right,577.724999981001,true,high,false
DrUIBqdd,3r6rzgk0yip7nifkjif6ljfzh4yvyd,354p56de9oga3q09tgp3m37nryz7sl,DrUIBqdd,2020-0188,2020-11-16,18:40:05,18:53:13,NA,incomplete,37,shape,1,1,left,Green_Plus_Chess_1.jpg,Blue_Plus_Stripes_2.jpg,Purple_Circle_Chess_4.jpg,left,523.0699999956414,true,high,false
DrUIBqdd,3r6rzgk0yip7nifkjif6ljfzh4yvyd,354p56de9oga3q09tgp3m37nryz7sl,DrUIBqdd,2020-0188,2020-11-16,18:40:05,18:53:13,NA,incomplete,38,shape,1,1,right,Red_Plus_Grid_4.jpg,Green_Triangle_Grid_2.jpg,Blue_Plus_Stripes_1.jpg,right,534.9849999765866,true,high,false
DrUIBqdd,3r6rzgk0yip7nifkjif6ljfzh4yvyd,354p56de9oga3q09tgp3m37nryz7sl,DrUIBqdd,2020-0188,2020-11-16,18:40:05,18:53:13,NA,incomplete,39,shape,1,1,left,Green_Plus_Stripes_4.jpg,Blue_Plus_Dots_3.jpg,Red_Triangle_Stripes_1.jpg,left,544.5750000071712,true,high,false
DrUIBqdd,3r6rzgk0yip7nifkjif6ljfzh4yvyd,354p56de9oga3q09tgp3m37nryz7sl,DrUIBqdd,2020-0188,2020-11-16,18:40:05,18:53:13,NA,incomplete,40,filling,0,1,left,Red_Circle_Dots_3.jpg,Blue_Star_Dots_4.jpg,Purple_Circle_Stripes_2.jpg,right,570.5850000376813,false,high,false
DrUIBqdd,3r6rzgk0yip7nifkjif6ljfzh4yvyd,354p56de9oga3q09tgp3m37nryz7sl,DrUIBqdd,2020-0188,2020-11-16,18:40:05,18:53:13,NA,incomplete,41,filling,0,1,left,Red_Star_Chess_1.jpg,Green_Circle_Chess_2.jpg,Blue_Star_Grid_4.jpg,left,838.5250000283122,true,high,false
DrUIBqdd,3r6rzgk0yip7nifkjif6ljfzh4yvyd,354p56de9oga3q09tgp3m37nryz7sl,DrUIBqdd,2020-0188,2020-11-16,18:40:05,18:53:13,NA,incomplete,42,filling,0,0,right,Red_Circle_Stripes_2.jpg,Purple_Circle_Chess_4.jpg,Blue_Star_Stripes_3.jpg,right,764.5449999836273,true,high,false
DrUIBqdd,3r6rzgk0yip7nifkjif6ljfzh4yvyd,354p56de9oga3q09tgp3m37nryz7sl,DrUIBqdd,2020-0188,2020-11-16,18:40:05,18:53:13,NA,incomplete,43,filling,0,1,left,Red_Star_Grid_3.jpg,Blue_Circle_Grid_2.jpg,Purple_Star_Stripes_4.jpg,left,911.8749999906868,true,high,false
DrUIBqdd,3r6rzgk0yip7nifkjif6ljfzh4yvyd,354p56de9oga3q09tgp3m37nryz7sl,DrUIBqdd,2020-0188,2020-11-16,18:40:05,18:53:13,NA,incomplete,44,filling,0,1,right,Red_Star_Chess_1.jpg,Blue_Star_Dots_4.jpg,Purple_Circle_Chess_2.jpg,right,755.9299999848008,true,high,false
DrUIBqdd,3r6rzgk0yip7nifkjif6ljfzh4yvyd,354p56de9oga3q09tgp3m37nryz7sl,DrUIBqdd,2020-0188,2020-11-16,18:40:05,18:53:13,NA,incomplete,45,filling,0,1,left,Green_Triangle_Dots_1.jpg,Red_Plus_Dots_4.jpg,Purple_Triangle_Grid_3.jpg,left,743.4699999867007,true,high,false
DrUIBqdd,3r6rzgk0yip7nifkjif6ljfzh4yvyd,354p56de9oga3q09tgp3m37nryz7sl,DrUIBqdd,2020-0188,2020-11-16,18:40:05,18:53:13,NA,incomplete,46,filling,0,1,right,Green_Circle_Dots_1.jpg,Blue_Circle_Chess_3.jpg,Purple_Plus_Dots_4.jpg,right,767.8699999814853,true,high,false
DrUIBqdd,3r6rzgk0yip7nifkjif6ljfzh4yvyd,354p56de9oga3q09tgp3m37nryz7sl,DrUIBqdd,2020-0188,2020-11-16,18:40:05,18:53:13,NA,incomplete,47,filling,0,0,right,Blue_Plus_Chess_4.jpg,Green_Plus_Grid_1.jpg,Purple_Triangle_Chess_3.jpg,right,1030.8800000348128,true,high,false
DrUIBqdd,3r6rzgk0yip7nifkjif6ljfzh4yvyd,354p56de9oga3q09tgp3m37nryz7sl,DrUIBqdd,2020-0188,2020-11-16,18:40:05,18:53:13,NA,incomplete,48,filling,0,1,right,Blue_Triangle_Chess_4.jpg,Green_Triangle_Grid_2.jpg,Purple_Circle_Chess_3.jpg,right,849.3899999884889,true,high,false
DrUIBqdd,3r6rzgk0yip7nifkjif6ljfzh4yvyd,354p56de9oga3q09tgp3m37nryz7sl,DrUIBqdd,2020-0188,2020-11-16,18:40:05,18:53:13,NA,incomplete,49,filling,0,1,left,Blue_Plus_Dots_2.jpg,Purple_Triangle_Dots_3.jpg,Red_Plus_Stripes_4.jpg,left,812.4400000087917,true,high,false
DrUIBqdd,3r6rzgk0yip7nifkjif6ljfzh4yvyd,354p56de9oga3q09tgp3m37nryz7sl,DrUIBqdd,2020-0188,2020-11-16,18:40:05,18:53:13,NA,incomplete,50,shape,1,1,right,Blue_Plus_Dots_3.jpg,Green_Triangle_Dots_1.jpg,Purple_Plus_Grid_2.jpg,left,758.8699999614619,false,high,false
DrUIBqdd,3r6rzgk0yip7nifkjif6ljfzh4yvyd,354p56de9oga3q09tgp3m37nryz7sl,DrUIBqdd,2020-0188,2020-11-16,18:40:05,18:53:13,NA,incomplete,51,shape,1,1,right,Blue_Star_Stripes_2.jpg,Red_Circle_Stripes_1.jpg,Green_Star_Dots_4.jpg,left,741.2400000030175,false,high,false
DrUIBqdd,3r6rzgk0yip7nifkjif6ljfzh4yvyd,354p56de9oga3q09tgp3m37nryz7sl,DrUIBqdd,2020-0188,2020-11-16,18:40:05,18:53:13,NA,incomplete,52,shape,1,1,right,Red_Star_Stripes_3.jpg,Purple_Plus_Stripes_1.jpg,Blue_Star_Chess_4.jpg,right,644.2800000077114,true,high,false
DrUIBqdd,3r6rzgk0yip7nifkjif6ljfzh4yvyd,354p56de9oga3q09tgp3m37nryz7sl,DrUIBqdd,2020-0188,2020-11-16,18:40:05,18:53:13,NA,incomplete,53,shape,1,0,left,Green_Circle_Stripes_2.jpg,Blue_Circle_Grid_1.jpg,Purple_Triangle_Stripes_3.jpg,left,531.5349999582395,true,high,false
DrUIBqdd,3r6rzgk0yip7nifkjif6ljfzh4yvyd,354p56de9oga3q09tgp3m37nryz7sl,DrUIBqdd,2020-0188,2020-11-16,18:40:05,18:53:13,NA,incomplete,54,shape,1,1,right,Blue_Circle_Chess_3.jpg,Green_Plus_Chess_4.jpg,Red_Circle_Grid_2.jpg,right,565.9650000161491,true,high,false
DrUIBqdd,3r6rzgk0yip7nifkjif6ljfzh4yvyd,354p56de9oga3q09tgp3m37nryz7sl,DrUIBqdd,2020-0188,2020-11-16,18:40:05,18:53:13,NA,incomplete,55,shape,1,1,right,Blue_Star_Chess_3.jpg,Purple_Triangle_Chess_4.jpg,Red_Star_Stripes_2.jpg,right,525.0700000324287,true,high,false
DrUIBqdd,3r6rzgk0yip7nifkjif6ljfzh4yvyd,354p56de9oga3q09tgp3m37nryz7sl,DrUIBqdd,2020-0188,2020-11-16,18:40:05,18:53:13,NA,incomplete,56,shape,1,1,left,Purple_Circle_Stripes_2.jpg,Blue_Circle_Dots_1.jpg,Green_Star_Stripes_3.jpg,left,467.7650000085123,true,high,false
DrUIBqdd,3r6rzgk0yip7nifkjif6ljfzh4yvyd,354p56de9oga3q09tgp3m37nryz7sl,DrUIBqdd,2020-0188,2020-11-16,18:40:05,18:53:13,NA,incomplete,57,shape,1,1,right,Blue_Plus_Dots_1.jpg,Red_Triangle_Dots_3.jpg,Green_Plus_Grid_2.jpg,right,515.5850000446662,true,high,false
DrUIBqdd,3r6rzgk0yip7nifkjif6ljfzh4yvyd,354p56de9oga3q09tgp3m37nryz7sl,DrUIBqdd,2020-0188,2020-11-16,18:40:05,18:53:13,NA,incomplete,58,shape,1,0,right,Purple_Triangle_Stripes_4.jpg,Green_Plus_Stripes_1.jpg,Red_Triangle_Dots_2.jpg,right,585.2349999477156,true,high,false
DrUIBqdd,3r6rzgk0yip7nifkjif6ljfzh4yvyd,354p56de9oga3q09tgp3m37nryz7sl,DrUIBqdd,2020-0188,2020-11-16,18:40:05,18:53:13,NA,incomplete,59,shape,1,1,left,Blue_Star_Grid_1.jpg,Purple_Star_Chess_3.jpg,Green_Circle_Grid_4.jpg,left,537.0899999979883,true,high,false
DrUIBqdd,3r6rzgk0yip7nifkjif6ljfzh4yvyd,354p56de9oga3q09tgp3m37nryz7sl,DrUIBqdd,2020-0188,2020-11-16,18:40:05,18:53:13,NA,incomplete,60,filling,0,0,left,Red_Plus_Stripes_3.jpg,Blue_Triangle_Stripes_2.jpg,Purple_Plus_Dots_1.jpg,right,512.9699999815784,false,high,false
DrUIBqdd,3r6rzgk0yip7nifkjif6ljfzh4yvyd,354p56de9oga3q09tgp3m37nryz7sl,DrUIBqdd,2020-0188,2020-11-16,18:40:05,18:53:13,NA,incomplete,61,filling,0,1,right,Blue_Triangle_Stripes_4.jpg,Red_Triangle_Grid_2.jpg,Green_Circle_Stripes_3.jpg,left,484.5600000116974,false,high,false
DrUIBqdd,3r6rzgk0yip7nifkjif6ljfzh4yvyd,354p56de9oga3q09tgp3m37nryz7sl,DrUIBqdd,2020-0188,2020-11-16,18:40:05,18:53:13,NA,incomplete,62,filling,0,0,left,Red_Plus_Dots_2.jpg,Purple_Triangle_Dots_3.jpg,Blue_Plus_Grid_4.jpg,right,480.2000000490807,false,high,false
DrUIBqdd,3r6rzgk0yip7nifkjif6ljfzh4yvyd,354p56de9oga3q09tgp3m37nryz7sl,DrUIBqdd,2020-0188,2020-11-16,18:40:05,18:53:13,NA,incomplete,63,filling,0,1,left,Purple_Plus_Grid_4.jpg,Green_Triangle_Grid_3.jpg,Blue_Plus_Dots_1.jpg,right,536.6749999811873,false,high,false
DrUIBqdd,3r6rzgk0yip7nifkjif6ljfzh4yvyd,354p56de9oga3q09tgp3m37nryz7sl,DrUIBqdd,2020-0188,2020-11-16,18:40:05,18:53:13,NA,incomplete,64,filling,0,1,right,Purple_Circle_Dots_2.jpg,Green_Circle_Chess_3.jpg,Blue_Triangle_Dots_4.jpg,left,624.889999977313,false,high,false
DrUIBqdd,3r6rzgk0yip7nifkjif6ljfzh4yvyd,354p56de9oga3q09tgp3m37nryz7sl,DrUIBqdd,2020-0188,2020-11-16,18:40:05,18:53:13,NA,incomplete,65,filling,0,0,left,Green_Circle_Chess_4.jpg,Purple_Plus_Chess_1.jpg,Red_Circle_Dots_2.jpg,left,738.939999951981,true,high,false
DrUIBqdd,3r6rzgk0yip7nifkjif6ljfzh4yvyd,354p56de9oga3q09tgp3m37nryz7sl,DrUIBqdd,2020-0188,2020-11-16,18:40:05,18:53:13,NA,incomplete,66,filling,0,1,left,Purple_Plus_Dots_1.jpg,Green_Star_Dots_2.jpg,Red_Plus_Grid_3.jpg,left,1065.1899999938905,true,high,false
DrUIBqdd,3r6rzgk0yip7nifkjif6ljfzh4yvyd,354p56de9oga3q09tgp3m37nryz7sl,DrUIBqdd,2020-0188,2020-11-16,18:40:05,18:53:13,NA,incomplete,67,filling,0,1,right,Green_Triangle_Stripes_1.jpg,Blue_Triangle_Dots_2.jpg,Red_Star_Stripes_3.jpg,right,752.6649999781512,true,high,false
DrUIBqdd,3r6rzgk0yip7nifkjif6ljfzh4yvyd,354p56de9oga3q09tgp3m37nryz7sl,DrUIBqdd,2020-0188,2020-11-16,18:40:05,18:53:13,NA,incomplete,68,filling,0,0,right,Blue_Triangle_Dots_4.jpg,Red_Triangle_Stripes_3.jpg,Purple_Circle_Dots_1.jpg,right,674.4150000158697,true,high,false
DrUIBqdd,3r6rzgk0yip7nifkjif6ljfzh4yvyd,354p56de9oga3q09tgp3m37nryz7sl,DrUIBqdd,2020-0188,2020-11-16,18:40:05,18:53:13,NA,incomplete,69,filling,0,0,left,Purple_Triangle_Dots_2.jpg,Red_Circle_Dots_1.jpg,Blue_Triangle_Grid_3.jpg,left,676.8099999753758,true,high,false
DrUIBqdd,3r6rzgk0yip7nifkjif6ljfzh4yvyd,354p56de9oga3q09tgp3m37nryz7sl,DrUIBqdd,2020-0188,2020-11-16,18:40:05,18:53:13,NA,incomplete,70,shape,1,1,right,Blue_Plus_Stripes_4.jpg,Green_Star_Stripes_2.jpg,Red_Plus_Chess_3.jpg,right,608.4849999751896,true,high,false
DrUIBqdd,3r6rzgk0yip7nifkjif6ljfzh4yvyd,354p56de9oga3q09tgp3m37nryz7sl,DrUIBqdd,2020-0188,2020-11-16,18:40:05,18:53:13,NA,incomplete,71,shape,1,1,left,Blue_Star_Dots_2.jpg,Purple_Star_Chess_3.jpg,Green_Plus_Dots_4.jpg,left,510.69000002462417,true,high,false
DrUIBqdd,3r6rzgk0yip7nifkjif6ljfzh4yvyd,354p56de9oga3q09tgp3m37nryz7sl,DrUIBqdd,2020-0188,2020-11-16,18:40:05,18:53:13,NA,incomplete,72,shape,1,1,right,Blue_Circle_Chess_2.jpg,Green_Star_Chess_4.jpg,Red_Circle_Stripes_3.jpg,right,657.0349999819882,true,high,false
DrUIBqdd,3r6rzgk0yip7nifkjif6ljfzh4yvyd,354p56de9oga3q09tgp3m37nryz7sl,DrUIBqdd,2020-0188,2020-11-16,18:40:05,18:53:13,NA,incomplete,73,shape,1,1,right,Blue_Plus_Dots_1.jpg,Green_Star_Dots_3.jpg,Purple_Plus_Chess_4.jpg,right,614.2150000086986,true,high,false
DrUIBqdd,3r6rzgk0yip7nifkjif6ljfzh4yvyd,354p56de9oga3q09tgp3m37nryz7sl,DrUIBqdd,2020-0188,2020-11-16,18:40:05,18:53:13,NA,incomplete,74,shape,1,1,right,Red_Star_Dots_2.jpg,Green_Triangle_Dots_1.jpg,Blue_Star_Stripes_4.jpg,right,484.75000000325963,true,high,false
DrUIBqdd,3r6rzgk0yip7nifkjif6ljfzh4yvyd,354p56de9oga3q09tgp3m37nryz7sl,DrUIBqdd,2020-0188,2020-11-16,18:40:05,18:53:13,NA,incomplete,75,shape,1,0,left,Purple_Circle_Dots_3.jpg,Red_Circle_Chess_2.jpg,Green_Plus_Dots_4.jpg,left,456.899999990128,true,high,false
DrUIBqdd,3r6rzgk0yip7nifkjif6ljfzh4yvyd,354p56de9oga3q09tgp3m37nryz7sl,DrUIBqdd,2020-0188,2020-11-16,18:40:05,18:53:13,NA,incomplete,76,shape,1,1,right,Purple_Circle_Chess_2.jpg,Green_Star_Chess_3.jpg,Blue_Circle_Dots_1.jpg,right,512.8149999654852,true,high,false
DrUIBqdd,3r6rzgk0yip7nifkjif6ljfzh4yvyd,354p56de9oga3q09tgp3m37nryz7sl,DrUIBqdd,2020-0188,2020-11-16,18:40:05,18:53:13,NA,incomplete,77,shape,1,0,right,Purple_Triangle_Stripes_3.jpg,Green_Plus_Stripes_1.jpg,Blue_Triangle_Grid_2.jpg,right,513.7549999635667,true,high,false
DrUIBqdd,3r6rzgk0yip7nifkjif6ljfzh4yvyd,354p56de9oga3q09tgp3m37nryz7sl,DrUIBqdd,2020-0188,2020-11-16,18:40:05,18:53:13,NA,incomplete,78,shape,1,0,right,Blue_Circle_Dots_3.jpg,Red_Plus_Dots_1.jpg,Purple_Circle_Grid_4.jpg,left,696.2799999746494,false,high,false
DrUIBqdd,3r6rzgk0yip7nifkjif6ljfzh4yvyd,354p56de9oga3q09tgp3m37nryz7sl,DrUIBqdd,2020-0188,2020-11-16,18:40:05,18:53:13,NA,incomplete,79,shape,1,1,right,Blue_Star_Dots_2.jpg,Green_Circle_Dots_1.jpg,Red_Star_Stripes_3.jpg,left,799.3949999799952,false,high,false
DrUIBqdd,3r6rzgk0yip7nifkjif6ljfzh4yvyd,354p56de9oga3q09tgp3m37nryz7sl,DrUIBqdd,2020-0188,2020-11-16,18:40:05,18:53:13,NA,incomplete,80,filling,0,0,left,Green_Circle_Dots_3.jpg,Purple_Star_Dots_4.jpg,Red_Circle_Chess_1.jpg,right,565.2899999986403,false,high,false
DrUIBqdd,3r6rzgk0yip7nifkjif6ljfzh4yvyd,354p56de9oga3q09tgp3m37nryz7sl,DrUIBqdd,2020-0188,2020-11-16,18:40:05,18:53:13,NA,incomplete,81,filling,0,1,left,Blue_Circle_Chess_2.jpg,Red_Triangle_Chess_3.jpg,Purple_Circle_Dots_1.jpg,right,468.7699999776669,false,high,false
DrUIBqdd,3r6rzgk0yip7nifkjif6ljfzh4yvyd,354p56de9oga3q09tgp3m37nryz7sl,DrUIBqdd,2020-0188,2020-11-16,18:40:05,18:53:13,NA,incomplete,82,filling,0,1,left,Purple_Triangle_Stripes_4.jpg,Green_Plus_Stripes_3.jpg,Red_Triangle_Chess_2.jpg,right,654.0750000276603,false,high,false
DrUIBqdd,3r6rzgk0yip7nifkjif6ljfzh4yvyd,354p56de9oga3q09tgp3m37nryz7sl,DrUIBqdd,2020-0188,2020-11-16,18:40:05,18:53:13,NA,incomplete,83,filling,0,1,left,Blue_Star_Stripes_4.jpg,Red_Plus_Stripes_1.jpg,Green_Star_Chess_3.jpg,left,880.8699999935925,true,high,false
DrUIBqdd,3r6rzgk0yip7nifkjif6ljfzh4yvyd,354p56de9oga3q09tgp3m37nryz7sl,DrUIBqdd,2020-0188,2020-11-16,18:40:05,18:53:13,NA,incomplete,84,filling,0,1,right,Purple_Plus_Chess_2.jpg,Blue_Plus_Grid_4.jpg,Green_Circle_Chess_1.jpg,right,781.8599999882281,true,high,false
DrUIBqdd,3r6rzgk0yip7nifkjif6ljfzh4yvyd,354p56de9oga3q09tgp3m37nryz7sl,DrUIBqdd,2020-0188,2020-11-16,18:40:05,18:53:13,NA,incomplete,85,filling,0,0,right,Blue_Plus_Grid_3.jpg,Purple_Plus_Chess_2.jpg,Green_Triangle_Grid_4.jpg,right,1027.3349999915808,true,high,false
DrUIBqdd,3r6rzgk0yip7nifkjif6ljfzh4yvyd,354p56de9oga3q09tgp3m37nryz7sl,DrUIBqdd,2020-0188,2020-11-16,18:40:05,18:53:13,NA,incomplete,86,filling,0,1,right,Red_Triangle_Stripes_2.jpg,Blue_Triangle_Dots_1.jpg,Green_Star_Stripes_4.jpg,right,902.1499999798834,true,high,false
DrUIBqdd,3r6rzgk0yip7nifkjif6ljfzh4yvyd,354p56de9oga3q09tgp3m37nryz7sl,DrUIBqdd,2020-0188,2020-11-16,18:40:05,18:53:13,NA,incomplete,87,filling,0,1,left,Purple_Triangle_Dots_4.jpg,Blue_Star_Dots_3.jpg,Green_Triangle_Chess_1.jpg,left,716.1849999683909,true,high,false
DrUIBqdd,3r6rzgk0yip7nifkjif6ljfzh4yvyd,354p56de9oga3q09tgp3m37nryz7sl,DrUIBqdd,2020-0188,2020-11-16,18:40:05,18:53:13,NA,incomplete,88,filling,0,1,left,Green_Plus_Dots_1.jpg,Blue_Triangle_Dots_2.jpg,Red_Plus_Chess_4.jpg,left,698.5099999583326,true,high,false
DrUIBqdd,3r6rzgk0yip7nifkjif6ljfzh4yvyd,354p56de9oga3q09tgp3m37nryz7sl,DrUIBqdd,2020-0188,2020-11-16,18:40:05,18:53:13,NA,incomplete,89,filling,0,1,left,Blue_Star_Stripes_2.jpg,Green_Triangle_Stripes_3.jpg,Purple_Star_Grid_1.jpg,left,730.8449999545701,true,high,false
DrUIBqdd,3r6rzgk0yip7nifkjif6ljfzh4yvyd,354p56de9oga3q09tgp3m37nryz7sl,DrUIBqdd,2020-0188,2020-11-16,18:40:05,18:53:13,NA,incomplete,90,shape,1,1,left,Purple_Triangle_Grid_3.jpg,Green_Triangle_Dots_4.jpg,Blue_Plus_Grid_1.jpg,right,780.0850000348873,false,high,false
DrUIBqdd,3r6rzgk0yip7nifkjif6ljfzh4yvyd,354p56de9oga3q09tgp3m37nryz7sl,DrUIBqdd,2020-0188,2020-11-16,18:40:05,18:53:13,NA,incomplete,91,shape,1,1,left,Blue_Circle_Grid_3.jpg,Purple_Circle_Chess_4.jpg,Red_Plus_Grid_2.jpg,right,902.2600000025705,false,high,false
DrUIBqdd,3r6rzgk0yip7nifkjif6ljfzh4yvyd,354p56de9oga3q09tgp3m37nryz7sl,DrUIBqdd,2020-0188,2020-11-16,18:40:05,18:53:13,NA,incomplete,92,shape,1,1,left,Red_Plus_Chess_3.jpg,Blue_Plus_Dots_4.jpg,Green_Circle_Chess_1.jpg,left,595.6649999716319,true,high,false
DrUIBqdd,3r6rzgk0yip7nifkjif6ljfzh4yvyd,354p56de9oga3q09tgp3m37nryz7sl,DrUIBqdd,2020-0188,2020-11-16,18:40:05,18:53:13,NA,incomplete,93,shape,1,1,right,Green_Star_Grid_1.jpg,Blue_Circle_Grid_2.jpg,Red_Star_Stripes_4.jpg,left,1026.4350000070408,false,high,false
DrUIBqdd,3r6rzgk0yip7nifkjif6ljfzh4yvyd,354p56de9oga3q09tgp3m37nryz7sl,DrUIBqdd,2020-0188,2020-11-16,18:40:05,18:53:13,NA,incomplete,94,shape,1,1,right,Blue_Circle_Chess_1.jpg,Purple_Triangle_Chess_2.jpg,Green_Circle_Grid_3.jpg,right,616.2050000275485,true,high,false
DrUIBqdd,3r6rzgk0yip7nifkjif6ljfzh4yvyd,354p56de9oga3q09tgp3m37nryz7sl,DrUIBqdd,2020-0188,2020-11-16,18:40:05,18:53:13,NA,incomplete,95,shape,1,1,right,Purple_Triangle_Stripes_4.jpg,Green_Star_Stripes_2.jpg,Blue_Triangle_Chess_3.jpg,right,516.414999961853,true,high,false
DrUIBqdd,3r6rzgk0yip7nifkjif6ljfzh4yvyd,354p56de9oga3q09tgp3m37nryz7sl,DrUIBqdd,2020-0188,2020-11-16,18:40:05,18:53:13,NA,incomplete,96,shape,1,0,right,Blue_Circle_Grid_1.jpg,Green_Plus_Grid_4.jpg,Purple_Circle_Chess_2.jpg,right,511.82499999413267,true,high,false
DrUIBqdd,3r6rzgk0yip7nifkjif6ljfzh4yvyd,354p56de9oga3q09tgp3m37nryz7sl,DrUIBqdd,2020-0188,2020-11-16,18:40:05,18:53:13,NA,incomplete,97,shape,1,1,left,Blue_Triangle_Dots_1.jpg,Red_Triangle_Chess_4.jpg,Purple_Plus_Dots_3.jpg,left,546.4799999608658,true,high,false
DrUIBqdd,3r6rzgk0yip7nifkjif6ljfzh4yvyd,354p56de9oga3q09tgp3m37nryz7sl,DrUIBqdd,2020-0188,2020-11-16,18:40:05,18:53:13,NA,incomplete,98,shape,1,1,left,Blue_Triangle_Stripes_2.jpg,Red_Triangle_Dots_3.jpg,Green_Star_Stripes_4.jpg,left,486.220000020694,true,high,false
DrUIBqdd,3r6rzgk0yip7nifkjif6ljfzh4yvyd,354p56de9oga3q09tgp3m37nryz7sl,DrUIBqdd,2020-0188,2020-11-16,18:40:05,18:53:13,NA,incomplete,99,shape,1,1,left,Red_Plus_Grid_3.jpg,Purple_Plus_Chess_4.jpg,Blue_Circle_Grid_1.jpg,left,609.5299999578856,true,high,false
DrUIBqdd,3r6rzgk0yip7nifkjif6ljfzh4yvyd,354p56de9oga3q09tgp3m37nryz7sl,DrUIBqdd,2020-0188,2020-11-16,18:40:05,18:53:13,NA,incomplete,100,filling,0,1,left,Green_Star_Grid_2.jpg,Blue_Circle_Grid_1.jpg,Purple_Star_Stripes_4.jpg,right,501.9099999917671,false,high,false
DrUIBqdd,3r6rzgk0yip7nifkjif6ljfzh4yvyd,354p56de9oga3q09tgp3m37nryz7sl,DrUIBqdd,2020-0188,2020-11-16,18:40:05,18:53:13,NA,incomplete,101,filling,0,0,right,Green_Star_Stripes_4.jpg,Red_Star_Dots_3.jpg,Blue_Plus_Stripes_2.jpg,left,502.40499997744337,false,high,false
DrUIBqdd,3r6rzgk0yip7nifkjif6ljfzh4yvyd,354p56de9oga3q09tgp3m37nryz7sl,DrUIBqdd,2020-0188,2020-11-16,18:40:05,18:53:13,NA,incomplete,102,filling,0,1,right,Red_Star_Grid_1.jpg,Green_Star_Chess_4.jpg,Blue_Circle_Grid_2.jpg,left,548.8350000232458,false,high,false
DrUIBqdd,3r6rzgk0yip7nifkjif6ljfzh4yvyd,354p56de9oga3q09tgp3m37nryz7sl,DrUIBqdd,2020-0188,2020-11-16,18:40:05,18:53:13,NA,incomplete,103,filling,0,1,left,Red_Star_Stripes_4.jpg,Blue_Triangle_Stripes_3.jpg,Green_Star_Dots_2.jpg,left,1196.6250000405125,true,high,false
DrUIBqdd,3r6rzgk0yip7nifkjif6ljfzh4yvyd,354p56de9oga3q09tgp3m37nryz7sl,DrUIBqdd,2020-0188,2020-11-16,18:40:05,18:53:13,NA,incomplete,104,filling,0,1,left,Blue_Triangle_Chess_2.jpg,Purple_Plus_Chess_4.jpg,Green_Triangle_Stripes_3.jpg,left,783.5549999726936,true,high,false
DrUIBqdd,3r6rzgk0yip7nifkjif6ljfzh4yvyd,354p56de9oga3q09tgp3m37nryz7sl,DrUIBqdd,2020-0188,2020-11-16,18:40:05,18:53:13,NA,incomplete,105,filling,0,0,left,Purple_Star_Grid_2.jpg,Green_Plus_Grid_4.jpg,Blue_Star_Stripes_3.jpg,left,931.2750000390224,true,high,false
DrUIBqdd,3r6rzgk0yip7nifkjif6ljfzh4yvyd,354p56de9oga3q09tgp3m37nryz7sl,DrUIBqdd,2020-0188,2020-11-16,18:40:05,18:53:13,NA,incomplete,106,filling,0,0,right,Green_Circle_Stripes_3.jpg,Blue_Circle_Grid_1.jpg,Red_Star_Stripes_4.jpg,right,705.7800000184216,true,high,false
DrUIBqdd,3r6rzgk0yip7nifkjif6ljfzh4yvyd,354p56de9oga3q09tgp3m37nryz7sl,DrUIBqdd,2020-0188,2020-11-16,18:40:05,18:53:13,NA,incomplete,107,filling,0,1,right,Green_Circle_Stripes_4.jpg,Red_Circle_Dots_3.jpg,Blue_Plus_Stripes_1.jpg,left,866.7749999440275,false,high,false
DrUIBqdd,3r6rzgk0yip7nifkjif6ljfzh4yvyd,354p56de9oga3q09tgp3m37nryz7sl,DrUIBqdd,2020-0188,2020-11-16,18:40:05,18:53:13,NA,incomplete,108,filling,0,1,right,Red_Star_Dots_3.jpg,Purple_Star_Grid_1.jpg,Blue_Circle_Dots_2.jpg,left,596.0099999792874,false,high,false
DrUIBqdd,3r6rzgk0yip7nifkjif6ljfzh4yvyd,354p56de9oga3q09tgp3m37nryz7sl,DrUIBqdd,2020-0188,2020-11-16,18:40:05,18:53:13,NA,incomplete,109,filling,0,1,left,Blue_Plus_Dots_3.jpg,Red_Triangle_Dots_2.jpg,Purple_Plus_Stripes_4.jpg,left,807.2699999902397,true,high,false
DrUIBqdd,3r6rzgk0yip7nifkjif6ljfzh4yvyd,354p56de9oga3q09tgp3m37nryz7sl,DrUIBqdd,2020-0188,2020-11-16,18:40:05,18:53:13,NA,incomplete,110,shape,1,0,left,Green_Star_Stripes_2.jpg,Purple_Star_Dots_1.jpg,Blue_Plus_Stripes_3.jpg,right,759.8950000246987,false,high,false
DrUIBqdd,3r6rzgk0yip7nifkjif6ljfzh4yvyd,354p56de9oga3q09tgp3m37nryz7sl,DrUIBqdd,2020-0188,2020-11-16,18:40:05,18:53:13,NA,incomplete,111,shape,1,1,left,Blue_Plus_Dots_3.jpg,Green_Plus_Grid_2.jpg,Purple_Star_Dots_4.jpg,right,795.3449999913573,false,high,false
DrUIBqdd,3r6rzgk0yip7nifkjif6ljfzh4yvyd,354p56de9oga3q09tgp3m37nryz7sl,DrUIBqdd,2020-0188,2020-11-16,18:40:05,18:53:13,NA,incomplete,112,shape,1,1,right,Red_Triangle_Grid_4.jpg,Blue_Circle_Grid_3.jpg,Green_Triangle_Stripes_1.jpg,right,674.6099999872968,true,high,false
DrUIBqdd,3r6rzgk0yip7nifkjif6ljfzh4yvyd,354p56de9oga3q09tgp3m37nryz7sl,DrUIBqdd,2020-0188,2020-11-16,18:40:05,18:53:13,NA,incomplete,113,shape,1,1,left,Purple_Plus_Stripes_4.jpg,Red_Plus_Grid_2.jpg,Green_Star_Stripes_1.jpg,left,501.40000000828877,true,high,false
DrUIBqdd,3r6rzgk0yip7nifkjif6ljfzh4yvyd,354p56de9oga3q09tgp3m37nryz7sl,DrUIBqdd,2020-0188,2020-11-16,18:40:05,18:53:13,NA,incomplete,114,shape,1,1,left,Green_Circle_Stripes_3.jpg,Blue_Circle_Dots_1.jpg,Red_Star_Stripes_4.jpg,left,563.4200000204146,true,high,false
DrUIBqdd,3r6rzgk0yip7nifkjif6ljfzh4yvyd,354p56de9oga3q09tgp3m37nryz7sl,DrUIBqdd,2020-0188,2020-11-16,18:40:05,18:53:13,NA,incomplete,115,shape,1,1,left,Red_Triangle_Dots_3.jpg,Blue_Triangle_Chess_1.jpg,Purple_Circle_Dots_2.jpg,left,649.5199999772012,true,high,false
DrUIBqdd,3r6rzgk0yip7nifkjif6ljfzh4yvyd,354p56de9oga3q09tgp3m37nryz7sl,DrUIBqdd,2020-0188,2020-11-16,18:40:05,18:53:13,NA,incomplete,116,shape,1,1,right,Purple_Plus_Chess_3.jpg,Red_Circle_Chess_4.jpg,Green_Plus_Dots_1.jpg,right,732.7149999910034,true,high,false
DrUIBqdd,3r6rzgk0yip7nifkjif6ljfzh4yvyd,354p56de9oga3q09tgp3m37nryz7sl,DrUIBqdd,2020-0188,2020-11-16,18:40:05,18:53:13,NA,incomplete,117,shape,1,1,left,Green_Plus_Grid_1.jpg,Blue_Plus_Dots_2.jpg,Red_Circle_Grid_3.jpg,left,572.600000014063,true,high,false
DrUIBqdd,3r6rzgk0yip7nifkjif6ljfzh4yvyd,354p56de9oga3q09tgp3m37nryz7sl,DrUIBqdd,2020-0188,2020-11-16,18:40:05,18:53:13,NA,incomplete,118,shape,1,1,right,Green_Star_Chess_3.jpg,Blue_Triangle_Chess_1.jpg,Purple_Star_Dots_2.jpg,right,542.6200000219978,true,high,false
DrUIBqdd,3r6rzgk0yip7nifkjif6ljfzh4yvyd,354p56de9oga3q09tgp3m37nryz7sl,DrUIBqdd,2020-0188,2020-11-16,18:40:05,18:53:13,NA,incomplete,119,shape,1,1,left,Green_Triangle_Dots_4.jpg,Blue_Triangle_Grid_1.jpg,Purple_Star_Dots_3.jpg,left,632.1049999678507,true,high,false
DrUIBqdd,3r6rzgk0yip7nifkjif6ljfzh4yvyd,354p56de9oga3q09tgp3m37nryz7sl,DrUIBqdd,2020-0188,2020-11-16,18:40:05,18:53:13,NA,incomplete,120,race,2,1,right,C_F_11.jpg,A_F_04.jpg,C_M_16.jpg,NA,NA,NA,high,false
DrUIBqdd,3r6rzgk0yip7nifkjif6ljfzh4yvyd,354p56de9oga3q09tgp3m37nryz7sl,DrUIBqdd,2020-0188,2020-11-16,18:40:05,18:53:13,NA,incomplete,121,race,2,1,left,A_M_11.jpg,A_F_12.jpg,C_M_03.jpg,left,1243.384999979753,true,high,false
DrUIBqdd,3r6rzgk0yip7nifkjif6ljfzh4yvyd,354p56de9oga3q09tgp3m37nryz7sl,DrUIBqdd,2020-0188,2020-11-16,18:40:05,18:53:13,NA,incomplete,122,race,2,0,right,A_M_14.jpg,C_M_13.jpg,A_F_09.jpg,right,837.1850000112318,true,high,false
DrUIBqdd,3r6rzgk0yip7nifkjif6ljfzh4yvyd,354p56de9oga3q09tgp3m37nryz7sl,DrUIBqdd,2020-0188,2020-11-16,18:40:05,18:53:13,NA,incomplete,123,race,2,1,right,C_M_06.jpg,A_M_04.jpg,C_F_03.jpg,right,1174.5549999759533,true,high,false
DrUIBqdd,3r6rzgk0yip7nifkjif6ljfzh4yvyd,354p56de9oga3q09tgp3m37nryz7sl,DrUIBqdd,2020-0188,2020-11-16,18:40:05,18:53:13,NA,incomplete,124,race,2,1,left,C_F_16.jpg,C_M_05.jpg,A_F_06.jpg,left,814.04000002658,true,high,false
DrUIBqdd,3r6rzgk0yip7nifkjif6ljfzh4yvyd,354p56de9oga3q09tgp3m37nryz7sl,DrUIBqdd,2020-0188,2020-11-16,18:40:05,18:53:13,NA,incomplete,125,race,2,1,right,C_F_07.jpg,A_F_09.jpg,C_M_10.jpg,right,1285.889999999199,true,high,false
DrUIBqdd,3r6rzgk0yip7nifkjif6ljfzh4yvyd,354p56de9oga3q09tgp3m37nryz7sl,DrUIBqdd,2020-0188,2020-11-16,18:40:05,18:53:13,NA,incomplete,126,race,2,1,right,C_F_03.jpg,A_F_15.jpg,C_M_12.jpg,right,1248.1300000217743,true,high,false
DrUIBqdd,3r6rzgk0yip7nifkjif6ljfzh4yvyd,354p56de9oga3q09tgp3m37nryz7sl,DrUIBqdd,2020-0188,2020-11-16,18:40:05,18:53:13,NA,incomplete,127,race,2,1,right,A_M_13.jpg,C_M_15.jpg,A_F_04.jpg,right,986.6999999503605,true,high,false
DrUIBqdd,3r6rzgk0yip7nifkjif6ljfzh4yvyd,354p56de9oga3q09tgp3m37nryz7sl,DrUIBqdd,2020-0188,2020-11-16,18:40:05,18:53:13,NA,incomplete,128,race,2,0,right,C_F_09.jpg,A_F_13.jpg,C_M_05.jpg,right,1021.744999976363,true,high,false
DrUIBqdd,3r6rzgk0yip7nifkjif6ljfzh4yvyd,354p56de9oga3q09tgp3m37nryz7sl,DrUIBqdd,2020-0188,2020-11-16,18:40:05,18:53:13,NA,incomplete,129,race,2,1,left,C_M_02.jpg,C_F_12.jpg,A_M_04.jpg,left,983.7000000406988,true,high,false
DrUIBqdd,3r6rzgk0yip7nifkjif6ljfzh4yvyd,354p56de9oga3q09tgp3m37nryz7sl,DrUIBqdd,2020-0188,2020-11-16,18:40:05,18:53:13,NA,incomplete,130,race,2,1,left,C_M_16.jpg,C_F_11.jpg,A_M_07.jpg,left,1162.804999970831,true,high,false
DrUIBqdd,3r6rzgk0yip7nifkjif6ljfzh4yvyd,354p56de9oga3q09tgp3m37nryz7sl,DrUIBqdd,2020-0188,2020-11-16,18:40:05,18:53:13,NA,incomplete,131,race,2,0,left,A_F_16.jpg,A_M_02.jpg,C_F_07.jpg,left,1266.9299999834038,true,high,false
DrUIBqdd,3r6rzgk0yip7nifkjif6ljfzh4yvyd,354p56de9oga3q09tgp3m37nryz7sl,DrUIBqdd,2020-0188,2020-11-16,18:40:05,18:53:13,NA,incomplete,132,race,2,1,left,A_M_15.jpg,A_F_10.jpg,C_M_13.jpg,right,1339.23500002129,false,high,false
DrUIBqdd,3r6rzgk0yip7nifkjif6ljfzh4yvyd,354p56de9oga3q09tgp3m37nryz7sl,DrUIBqdd,2020-0188,2020-11-16,18:40:05,18:53:13,NA,incomplete,133,race,2,1,left,C_F_12.jpg,C_M_01.jpg,A_F_10.jpg,right,1150.46999999322,false,high,false
DrUIBqdd,3r6rzgk0yip7nifkjif6ljfzh4yvyd,354p56de9oga3q09tgp3m37nryz7sl,DrUIBqdd,2020-0188,2020-11-16,18:40:05,18:53:13,NA,incomplete,134,race,2,1,right,C_F_07.jpg,A_F_15.jpg,C_M_05.jpg,left,819.3399999872781,false,high,false
DrUIBqdd,3r6rzgk0yip7nifkjif6ljfzh4yvyd,354p56de9oga3q09tgp3m37nryz7sl,DrUIBqdd,2020-0188,2020-11-16,18:40:05,18:53:13,NA,incomplete,135,race,2,1,right,C_F_15.jpg,A_F_16.jpg,C_M_09.jpg,right,964.5149999996647,true,high,false
DrUIBqdd,3r6rzgk0yip7nifkjif6ljfzh4yvyd,354p56de9oga3q09tgp3m37nryz7sl,DrUIBqdd,2020-0188,2020-11-16,18:40:05,18:53:13,NA,incomplete,136,race,2,1,right,C_M_16.jpg,A_M_08.jpg,C_F_09.jpg,right,1042.6699999952689,true,high,false
DrUIBqdd,3r6rzgk0yip7nifkjif6ljfzh4yvyd,354p56de9oga3q09tgp3m37nryz7sl,DrUIBqdd,2020-0188,2020-11-16,18:40:05,18:53:13,NA,incomplete,137,race,2,0,left,A_M_06.jpg,A_F_02.jpg,C_M_12.jpg,left,676.3600000413135,true,high,false
DrUIBqdd,3r6rzgk0yip7nifkjif6ljfzh4yvyd,354p56de9oga3q09tgp3m37nryz7sl,DrUIBqdd,2020-0188,2020-11-16,18:40:05,18:53:13,NA,incomplete,138,race,2,1,right,C_F_08.jpg,A_F_03.jpg,C_M_06.jpg,right,880.8250000001863,true,high,false
DrUIBqdd,3r6rzgk0yip7nifkjif6ljfzh4yvyd,354p56de9oga3q09tgp3m37nryz7sl,DrUIBqdd,2020-0188,2020-11-16,18:40:05,18:53:13,NA,incomplete,139,race,2,1,left,C_M_16.jpg,C_F_01.jpg,A_M_10.jpg,left,1074.2199999513105,true,high,false
DrUIBqdd,3r6rzgk0yip7nifkjif6ljfzh4yvyd,354p56de9oga3q09tgp3m37nryz7sl,DrUIBqdd,2020-0188,2020-11-16,18:40:05,18:53:13,NA,incomplete,140,gender,3,1,right,A_F_15.jpg,A_M_10.jpg,C_F_16.jpg,left,797.9150000028312,false,high,false
DrUIBqdd,3r6rzgk0yip7nifkjif6ljfzh4yvyd,354p56de9oga3q09tgp3m37nryz7sl,DrUIBqdd,2020-0188,2020-11-16,18:40:05,18:53:13,NA,incomplete,141,gender,3,1,right,A_F_03.jpg,A_M_10.jpg,C_F_16.jpg,right,793.6999999801628,true,high,false
DrUIBqdd,3r6rzgk0yip7nifkjif6ljfzh4yvyd,354p56de9oga3q09tgp3m37nryz7sl,DrUIBqdd,2020-0188,2020-11-16,18:40:05,18:53:13,NA,incomplete,142,gender,3,1,left,A_F_01.jpg,C_F_15.jpg,A_M_09.jpg,left,632.1549999993294,true,high,false
DrUIBqdd,3r6rzgk0yip7nifkjif6ljfzh4yvyd,354p56de9oga3q09tgp3m37nryz7sl,DrUIBqdd,2020-0188,2020-11-16,18:40:05,18:53:13,NA,incomplete,143,gender,3,0,right,A_F_06.jpg,A_M_16.jpg,C_F_15.jpg,right,670.8299999590963,true,high,false
DrUIBqdd,3r6rzgk0yip7nifkjif6ljfzh4yvyd,354p56de9oga3q09tgp3m37nryz7sl,DrUIBqdd,2020-0188,2020-11-16,18:40:05,18:53:13,NA,incomplete,144,gender,3,1,left,C_M_12.jpg,A_M_11.jpg,C_F_10.jpg,left,678.7149999872781,true,high,false
DrUIBqdd,3r6rzgk0yip7nifkjif6ljfzh4yvyd,354p56de9oga3q09tgp3m37nryz7sl,DrUIBqdd,2020-0188,2020-11-16,18:40:05,18:53:13,NA,incomplete,145,gender,3,1,right,A_F_02.jpg,A_M_05.jpg,C_F_07.jpg,right,587.5100000412203,true,high,false
DrUIBqdd,3r6rzgk0yip7nifkjif6ljfzh4yvyd,354p56de9oga3q09tgp3m37nryz7sl,DrUIBqdd,2020-0188,2020-11-16,18:40:05,18:53:13,NA,incomplete,146,gender,3,1,left,A_M_15.jpg,C_M_11.jpg,A_F_06.jpg,left,608.8050000253133,true,high,false
DrUIBqdd,3r6rzgk0yip7nifkjif6ljfzh4yvyd,354p56de9oga3q09tgp3m37nryz7sl,DrUIBqdd,2020-0188,2020-11-16,18:40:05,18:53:13,NA,incomplete,147,gender,3,1,right,C_F_06.jpg,C_M_16.jpg,A_F_10.jpg,right,533.144999993965,true,high,false
DrUIBqdd,3r6rzgk0yip7nifkjif6ljfzh4yvyd,354p56de9oga3q09tgp3m37nryz7sl,DrUIBqdd,2020-0188,2020-11-16,18:40:05,18:53:13,NA,incomplete,148,gender,3,1,left,C_F_07.jpg,A_F_16.jpg,C_M_08.jpg,left,577.9749999637716,true,high,false
DrUIBqdd,3r6rzgk0yip7nifkjif6ljfzh4yvyd,354p56de9oga3q09tgp3m37nryz7sl,DrUIBqdd,2020-0188,2020-11-16,18:40:05,18:53:13,NA,incomplete,149,gender,3,0,left,A_M_08.jpg,C_M_04.jpg,A_F_07.jpg,left,1033.7299999664538,true,high,false
DrUIBqdd,3r6rzgk0yip7nifkjif6ljfzh4yvyd,354p56de9oga3q09tgp3m37nryz7sl,DrUIBqdd,2020-0188,2020-11-16,18:40:05,18:53:13,NA,incomplete,150,gender,3,1,right,C_F_09.jpg,C_M_07.jpg,A_F_16.jpg,right,626.0550000006333,true,high,false
DrUIBqdd,3r6rzgk0yip7nifkjif6ljfzh4yvyd,354p56de9oga3q09tgp3m37nryz7sl,DrUIBqdd,2020-0188,2020-11-16,18:40:05,18:53:13,NA,incomplete,151,gender,3,1,right,A_M_08.jpg,A_F_01.jpg,C_M_09.jpg,right,674.364999984391,true,high,false
DrUIBqdd,3r6rzgk0yip7nifkjif6ljfzh4yvyd,354p56de9oga3q09tgp3m37nryz7sl,DrUIBqdd,2020-0188,2020-11-16,18:40:05,18:53:13,NA,incomplete,152,gender,3,0,right,C_F_05.jpg,C_M_16.jpg,A_F_09.jpg,right,714.4599999883212,true,high,false
DrUIBqdd,3r6rzgk0yip7nifkjif6ljfzh4yvyd,354p56de9oga3q09tgp3m37nryz7sl,DrUIBqdd,2020-0188,2020-11-16,18:40:05,18:53:13,NA,incomplete,153,gender,3,1,left,A_M_06.jpg,C_M_12.jpg,A_F_04.jpg,left,978.14500000095,true,high,false
DrUIBqdd,3r6rzgk0yip7nifkjif6ljfzh4yvyd,354p56de9oga3q09tgp3m37nryz7sl,DrUIBqdd,2020-0188,2020-11-16,18:40:05,18:53:13,NA,incomplete,154,gender,3,1,left,A_F_14.jpg,C_F_04.jpg,A_M_16.jpg,left,729.4249999686144,true,high,false
DrUIBqdd,3r6rzgk0yip7nifkjif6ljfzh4yvyd,354p56de9oga3q09tgp3m37nryz7sl,DrUIBqdd,2020-0188,2020-11-16,18:40:05,18:53:13,NA,incomplete,155,gender,3,1,right,A_F_08.jpg,A_M_03.jpg,C_F_12.jpg,right,604.8350000055507,true,high,false
DrUIBqdd,3r6rzgk0yip7nifkjif6ljfzh4yvyd,354p56de9oga3q09tgp3m37nryz7sl,DrUIBqdd,2020-0188,2020-11-16,18:40:05,18:53:13,NA,incomplete,156,gender,3,1,left,A_M_05.jpg,C_M_02.jpg,A_F_16.jpg,left,526.0049999924377,true,high,false
DrUIBqdd,3r6rzgk0yip7nifkjif6ljfzh4yvyd,354p56de9oga3q09tgp3m37nryz7sl,DrUIBqdd,2020-0188,2020-11-16,18:40:05,18:53:13,NA,incomplete,157,gender,3,0,right,A_F_04.jpg,A_M_09.jpg,C_F_16.jpg,right,677.1050000097603,true,high,false
DrUIBqdd,3r6rzgk0yip7nifkjif6ljfzh4yvyd,354p56de9oga3q09tgp3m37nryz7sl,DrUIBqdd,2020-0188,2020-11-16,18:40:05,18:53:13,NA,incomplete,158,gender,3,1,left,A_M_01.jpg,C_M_04.jpg,A_F_10.jpg,left,645.6350000225939,true,high,false
DrUIBqdd,3r6rzgk0yip7nifkjif6ljfzh4yvyd,354p56de9oga3q09tgp3m37nryz7sl,DrUIBqdd,2020-0188,2020-11-16,18:40:05,18:53:13,NA,incomplete,159,gender,3,1,left,C_M_08.jpg,A_M_07.jpg,C_F_06.jpg,left,588.2550000096671,true,high,false
DrUIBqdd,3r6rzgk0yip7nifkjif6ljfzh4yvyd,354p56de9oga3q09tgp3m37nryz7sl,DrUIBqdd,2020-0188,2020-11-16,18:40:05,18:53:13,NA,incomplete,160,race,2,1,right,C_F_15.jpg,A_F_03.jpg,C_M_04.jpg,left,696.605000004638,false,high,false
DrUIBqdd,3r6rzgk0yip7nifkjif6ljfzh4yvyd,354p56de9oga3q09tgp3m37nryz7sl,DrUIBqdd,2020-0188,2020-11-16,18:40:05,18:53:13,NA,incomplete,161,race,2,1,right,A_M_03.jpg,C_M_02.jpg,A_F_14.jpg,left,676.984999969136,false,high,false
DrUIBqdd,3r6rzgk0yip7nifkjif6ljfzh4yvyd,354p56de9oga3q09tgp3m37nryz7sl,DrUIBqdd,2020-0188,2020-11-16,18:40:05,18:53:13,NA,incomplete,162,race,2,1,left,C_F_13.jpg,C_M_07.jpg,A_F_09.jpg,left,1053.5800000070594,true,high,false
DrUIBqdd,3r6rzgk0yip7nifkjif6ljfzh4yvyd,354p56de9oga3q09tgp3m37nryz7sl,DrUIBqdd,2020-0188,2020-11-16,18:40:05,18:53:13,NA,incomplete,163,race,2,1,left,C_M_11.jpg,C_F_06.jpg,A_M_13.jpg,left,1070.160000002943,true,high,false
DrUIBqdd,3r6rzgk0yip7nifkjif6ljfzh4yvyd,354p56de9oga3q09tgp3m37nryz7sl,DrUIBqdd,2020-0188,2020-11-16,18:40:05,18:53:13,NA,incomplete,164,race,2,1,right,C_F_07.jpg,A_F_08.jpg,C_M_04.jpg,right,842.1499999822117,true,high,false
DrUIBqdd,3r6rzgk0yip7nifkjif6ljfzh4yvyd,354p56de9oga3q09tgp3m37nryz7sl,DrUIBqdd,2020-0188,2020-11-16,18:40:05,18:53:13,NA,incomplete,165,race,2,1,left,C_M_06.jpg,C_F_04.jpg,A_M_14.jpg,left,856.5949999610893,true,high,false
DrUIBqdd,3r6rzgk0yip7nifkjif6ljfzh4yvyd,354p56de9oga3q09tgp3m37nryz7sl,DrUIBqdd,2020-0188,2020-11-16,18:40:05,18:53:13,NA,incomplete,166,race,2,1,left,A_M_05.jpg,A_F_06.jpg,C_M_13.jpg,left,932.645000051707,true,high,false
DrUIBqdd,3r6rzgk0yip7nifkjif6ljfzh4yvyd,354p56de9oga3q09tgp3m37nryz7sl,DrUIBqdd,2020-0188,2020-11-16,18:40:05,18:53:13,NA,incomplete,167,race,2,1,right,A_M_04.jpg,C_M_07.jpg,A_F_08.jpg,right,722.5200000102632,true,high,false
DrUIBqdd,3r6rzgk0yip7nifkjif6ljfzh4yvyd,354p56de9oga3q09tgp3m37nryz7sl,DrUIBqdd,2020-0188,2020-11-16,18:40:05,18:53:13,NA,incomplete,168,race,2,1,left,C_F_09.jpg,C_M_01.jpg,A_F_11.jpg,left,831.415000022389,true,high,false
DrUIBqdd,3r6rzgk0yip7nifkjif6ljfzh4yvyd,354p56de9oga3q09tgp3m37nryz7sl,DrUIBqdd,2020-0188,2020-11-16,18:40:05,18:53:13,NA,incomplete,169,race,2,1,left,C_F_14.jpg,C_M_01.jpg,A_F_16.jpg,left,932.6099999598227,true,high,false
DrUIBqdd,3r6rzgk0yip7nifkjif6ljfzh4yvyd,354p56de9oga3q09tgp3m37nryz7sl,DrUIBqdd,2020-0188,2020-11-16,18:40:05,18:53:13,NA,incomplete,170,race,2,1,right,A_M_05.jpg,C_M_09.jpg,A_F_13.jpg,right,711.2300000153482,true,high,false
DrUIBqdd,3r6rzgk0yip7nifkjif6ljfzh4yvyd,354p56de9oga3q09tgp3m37nryz7sl,DrUIBqdd,2020-0188,2020-11-16,18:40:05,18:53:13,NA,incomplete,171,race,2,1,left,C_M_02.jpg,C_F_08.jpg,A_M_13.jpg,left,1034.9050000077114,true,high,false
DrUIBqdd,3r6rzgk0yip7nifkjif6ljfzh4yvyd,354p56de9oga3q09tgp3m37nryz7sl,DrUIBqdd,2020-0188,2020-11-16,18:40:05,18:53:13,NA,incomplete,172,race,2,1,right,A_M_12.jpg,C_M_09.jpg,A_F_15.jpg,right,857.625000004191,true,high,false
DrUIBqdd,3r6rzgk0yip7nifkjif6ljfzh4yvyd,354p56de9oga3q09tgp3m37nryz7sl,DrUIBqdd,2020-0188,2020-11-16,18:40:05,18:53:13,NA,incomplete,173,race,2,1,left,A_F_05.jpg,A_M_16.jpg,C_F_03.jpg,left,870.7200000062585,true,high,false
DrUIBqdd,3r6rzgk0yip7nifkjif6ljfzh4yvyd,354p56de9oga3q09tgp3m37nryz7sl,DrUIBqdd,2020-0188,2020-11-16,18:40:05,18:53:13,NA,incomplete,174,race,2,1,right,A_M_02.jpg,C_M_14.jpg,A_F_03.jpg,right,820.5350000062026,true,high,false
DrUIBqdd,3r6rzgk0yip7nifkjif6ljfzh4yvyd,354p56de9oga3q09tgp3m37nryz7sl,DrUIBqdd,2020-0188,2020-11-16,18:40:05,18:53:13,NA,incomplete,175,race,2,1,right,A_F_14.jpg,C_F_08.jpg,A_M_06.jpg,right,978.3749999478459,true,high,false
DrUIBqdd,3r6rzgk0yip7nifkjif6ljfzh4yvyd,354p56de9oga3q09tgp3m37nryz7sl,DrUIBqdd,2020-0188,2020-11-16,18:40:05,18:53:13,NA,incomplete,176,race,2,0,right,C_F_04.jpg,A_F_03.jpg,C_M_14.jpg,left,813.0599999567494,false,high,false
DrUIBqdd,3r6rzgk0yip7nifkjif6ljfzh4yvyd,354p56de9oga3q09tgp3m37nryz7sl,DrUIBqdd,2020-0188,2020-11-16,18:40:05,18:53:13,NA,incomplete,177,race,2,1,left,C_M_14.jpg,C_F_12.jpg,A_M_11.jpg,right,835.8499999740161,false,high,false
DrUIBqdd,3r6rzgk0yip7nifkjif6ljfzh4yvyd,354p56de9oga3q09tgp3m37nryz7sl,DrUIBqdd,2020-0188,2020-11-16,18:40:05,18:53:13,NA,incomplete,178,race,2,0,left,A_F_13.jpg,A_M_05.jpg,C_F_04.jpg,right,587.7600000239909,false,high,false
DrUIBqdd,3r6rzgk0yip7nifkjif6ljfzh4yvyd,354p56de9oga3q09tgp3m37nryz7sl,DrUIBqdd,2020-0188,2020-11-16,18:40:05,18:53:13,NA,incomplete,179,race,2,1,left,C_M_12.jpg,C_F_08.jpg,A_M_09.jpg,right,677.579999959562,false,high,false
DrUIBqdd,3r6rzgk0yip7nifkjif6ljfzh4yvyd,354p56de9oga3q09tgp3m37nryz7sl,DrUIBqdd,2020-0188,2020-11-16,18:40:05,18:53:13,NA,incomplete,180,gender,3,0,right,C_F_10.jpg,C_M_09.jpg,A_F_16.jpg,right,578.5049999831244,true,high,false
DrUIBqdd,3r6rzgk0yip7nifkjif6ljfzh4yvyd,354p56de9oga3q09tgp3m37nryz7sl,DrUIBqdd,2020-0188,2020-11-16,18:40:05,18:53:13,NA,incomplete,181,gender,3,1,left,A_M_15.jpg,C_M_13.jpg,A_F_16.jpg,right,862.3899999656714,false,high,false
DrUIBqdd,3r6rzgk0yip7nifkjif6ljfzh4yvyd,354p56de9oga3q09tgp3m37nryz7sl,DrUIBqdd,2020-0188,2020-11-16,18:40:05,18:53:13,NA,incomplete,182,gender,3,1,right,A_M_14.jpg,A_F_15.jpg,C_M_10.jpg,left,803.7400000030175,false,high,false
DrUIBqdd,3r6rzgk0yip7nifkjif6ljfzh4yvyd,354p56de9oga3q09tgp3m37nryz7sl,DrUIBqdd,2020-0188,2020-11-16,18:40:05,18:53:13,NA,incomplete,183,gender,3,0,right,C_M_01.jpg,C_F_05.jpg,A_M_11.jpg,right,959.1650000074878,true,high,false
DrUIBqdd,3r6rzgk0yip7nifkjif6ljfzh4yvyd,354p56de9oga3q09tgp3m37nryz7sl,DrUIBqdd,2020-0188,2020-11-16,18:40:05,18:53:13,NA,incomplete,184,gender,3,1,right,C_F_02.jpg,C_M_10.jpg,A_F_01.jpg,right,674.9899999704212,true,high,false
DrUIBqdd,3r6rzgk0yip7nifkjif6ljfzh4yvyd,354p56de9oga3q09tgp3m37nryz7sl,DrUIBqdd,2020-0188,2020-11-16,18:40:05,18:53:13,NA,incomplete,185,gender,3,1,left,C_F_14.jpg,A_F_15.jpg,C_M_05.jpg,left,601.3249999959953,true,high,false
DrUIBqdd,3r6rzgk0yip7nifkjif6ljfzh4yvyd,354p56de9oga3q09tgp3m37nryz7sl,DrUIBqdd,2020-0188,2020-11-16,18:40:05,18:53:13,NA,incomplete,186,gender,3,1,right,C_M_08.jpg,C_F_12.jpg,A_M_13.jpg,right,532.2850000229664,true,high,false
DrUIBqdd,3r6rzgk0yip7nifkjif6ljfzh4yvyd,354p56de9oga3q09tgp3m37nryz7sl,DrUIBqdd,2020-0188,2020-11-16,18:40:05,18:53:13,NA,incomplete,187,gender,3,0,left,C_F_02.jpg,A_F_11.jpg,C_M_12.jpg,left,667.5599999725819,true,high,false
DrUIBqdd,3r6rzgk0yip7nifkjif6ljfzh4yvyd,354p56de9oga3q09tgp3m37nryz7sl,DrUIBqdd,2020-0188,2020-11-16,18:40:05,18:53:13,NA,incomplete,188,gender,3,1,left,C_M_08.jpg,A_M_11.jpg,C_F_02.jpg,left,696.9050000188872,true,high,false
DrUIBqdd,3r6rzgk0yip7nifkjif6ljfzh4yvyd,354p56de9oga3q09tgp3m37nryz7sl,DrUIBqdd,2020-0188,2020-11-16,18:40:05,18:53:13,NA,incomplete,189,gender,3,0,right,A_M_04.jpg,A_F_11.jpg,C_M_16.jpg,right,699.8149999999441,true,high,false
DrUIBqdd,3r6rzgk0yip7nifkjif6ljfzh4yvyd,354p56de9oga3q09tgp3m37nryz7sl,DrUIBqdd,2020-0188,2020-11-16,18:40:05,18:53:13,NA,incomplete,190,gender,3,1,right,A_F_03.jpg,A_M_15.jpg,C_F_16.jpg,right,583.7399999727495,true,high,false
DrUIBqdd,3r6rzgk0yip7nifkjif6ljfzh4yvyd,354p56de9oga3q09tgp3m37nryz7sl,DrUIBqdd,2020-0188,2020-11-16,18:40:05,18:53:13,NA,incomplete,191,gender,3,0,left,A_F_11.jpg,C_F_01.jpg,A_M_07.jpg,left,594.7349999914877,true,high,false
DrUIBqdd,3r6rzgk0yip7nifkjif6ljfzh4yvyd,354p56de9oga3q09tgp3m37nryz7sl,DrUIBqdd,2020-0188,2020-11-16,18:40:05,18:53:13,NA,incomplete,192,gender,3,1,right,C_F_08.jpg,C_M_11.jpg,A_F_12.jpg,right,586.9549999479204,true,high,false
DrUIBqdd,3r6rzgk0yip7nifkjif6ljfzh4yvyd,354p56de9oga3q09tgp3m37nryz7sl,DrUIBqdd,2020-0188,2020-11-16,18:40:05,18:53:13,NA,incomplete,193,gender,3,0,right,C_F_06.jpg,C_M_05.jpg,A_F_01.jpg,right,551.9099999801256,true,high,false
DrUIBqdd,3r6rzgk0yip7nifkjif6ljfzh4yvyd,354p56de9oga3q09tgp3m37nryz7sl,DrUIBqdd,2020-0188,2020-11-16,18:40:05,18:53:13,NA,incomplete,194,gender,3,1,left,C_M_08.jpg,A_M_02.jpg,C_F_04.jpg,left,1219.9200000031851,true,high,false
DrUIBqdd,3r6rzgk0yip7nifkjif6ljfzh4yvyd,354p56de9oga3q09tgp3m37nryz7sl,DrUIBqdd,2020-0188,2020-11-16,18:40:05,18:53:13,NA,incomplete,195,gender,3,1,left,C_F_10.jpg,A_F_01.jpg,C_M_12.jpg,left,848.6249999841675,true,high,false
DrUIBqdd,3r6rzgk0yip7nifkjif6ljfzh4yvyd,354p56de9oga3q09tgp3m37nryz7sl,DrUIBqdd,2020-0188,2020-11-16,18:40:05,18:53:13,NA,incomplete,196,gender,3,1,right,C_F_12.jpg,C_M_08.jpg,A_F_03.jpg,right,653.8150000269525,true,high,false
DrUIBqdd,3r6rzgk0yip7nifkjif6ljfzh4yvyd,354p56de9oga3q09tgp3m37nryz7sl,DrUIBqdd,2020-0188,2020-11-16,18:40:05,18:53:13,NA,incomplete,197,gender,3,1,right,C_M_12.jpg,C_F_11.jpg,A_M_13.jpg,right,787.865000020247,true,high,false
DrUIBqdd,3r6rzgk0yip7nifkjif6ljfzh4yvyd,354p56de9oga3q09tgp3m37nryz7sl,DrUIBqdd,2020-0188,2020-11-16,18:40:05,18:53:13,NA,incomplete,198,gender,3,1,right,C_M_10.jpg,C_F_12.jpg,A_M_14.jpg,right,730.2949999575503,true,high,false
DrUIBqdd,3r6rzgk0yip7nifkjif6ljfzh4yvyd,354p56de9oga3q09tgp3m37nryz7sl,DrUIBqdd,2020-0188,2020-11-16,18:40:05,18:53:13,NA,incomplete,199,gender,3,1,left,A_M_14.jpg,C_M_08.jpg,A_F_04.jpg,left,653.80999998888,true,high,false
DrUIBqdd,3r6rzgk0yip7nifkjif6ljfzh4yvyd,354p56de9oga3q09tgp3m37nryz7sl,DrUIBqdd,2020-0188,2020-11-16,18:40:05,18:53:13,NA,incomplete,200,race,2,1,right,A_M_08.jpg,C_M_09.jpg,A_F_06.jpg,left,653.4499999834225,false,high,false
DrUIBqdd,3r6rzgk0yip7nifkjif6ljfzh4yvyd,354p56de9oga3q09tgp3m37nryz7sl,DrUIBqdd,2020-0188,2020-11-16,18:40:05,18:53:13,NA,incomplete,201,race,2,1,right,C_F_12.jpg,A_F_15.jpg,C_M_01.jpg,left,626.4350000419654,false,high,false
DrUIBqdd,3r6rzgk0yip7nifkjif6ljfzh4yvyd,354p56de9oga3q09tgp3m37nryz7sl,DrUIBqdd,2020-0188,2020-11-16,18:40:05,18:53:13,NA,incomplete,202,race,2,1,right,A_F_02.jpg,C_F_12.jpg,A_M_03.jpg,right,739.9650000152178,true,high,false
DrUIBqdd,3r6rzgk0yip7nifkjif6ljfzh4yvyd,354p56de9oga3q09tgp3m37nryz7sl,DrUIBqdd,2020-0188,2020-11-16,18:40:05,18:53:13,NA,incomplete,203,race,2,1,right,C_M_14.jpg,A_M_08.jpg,C_F_09.jpg,right,1171.7049999861047,true,high,false
DrUIBqdd,3r6rzgk0yip7nifkjif6ljfzh4yvyd,354p56de9oga3q09tgp3m37nryz7sl,DrUIBqdd,2020-0188,2020-11-16,18:40:05,18:53:13,NA,incomplete,204,race,2,1,left,C_F_03.jpg,C_M_16.jpg,A_F_10.jpg,left,818.169999984093,true,high,false
DrUIBqdd,3r6rzgk0yip7nifkjif6ljfzh4yvyd,354p56de9oga3q09tgp3m37nryz7sl,DrUIBqdd,2020-0188,2020-11-16,18:40:05,18:53:13,NA,incomplete,205,race,2,0,right,C_F_16.jpg,A_F_08.jpg,C_M_03.jpg,right,859.0599999879487,true,high,false
DrUIBqdd,3r6rzgk0yip7nifkjif6ljfzh4yvyd,354p56de9oga3q09tgp3m37nryz7sl,DrUIBqdd,2020-0188,2020-11-16,18:40:05,18:53:13,NA,incomplete,206,race,2,1,left,C_M_10.jpg,C_F_09.jpg,A_M_04.jpg,left,1068.0000000284053,true,high,false
DrUIBqdd,3r6rzgk0yip7nifkjif6ljfzh4yvyd,354p56de9oga3q09tgp3m37nryz7sl,DrUIBqdd,2020-0188,2020-11-16,18:40:05,18:53:13,NA,incomplete,207,race,2,0,right,A_M_11.jpg,C_M_08.jpg,A_F_16.jpg,right,1005.9049999690615,true,high,false
DrUIBqdd,3r6rzgk0yip7nifkjif6ljfzh4yvyd,354p56de9oga3q09tgp3m37nryz7sl,DrUIBqdd,2020-0188,2020-11-16,18:40:05,18:53:13,NA,incomplete,208,race,2,1,left,C_M_11.jpg,C_F_03.jpg,A_M_06.jpg,left,1057.120000012219,true,high,false
DrUIBqdd,3r6rzgk0yip7nifkjif6ljfzh4yvyd,354p56de9oga3q09tgp3m37nryz7sl,DrUIBqdd,2020-0188,2020-11-16,18:40:05,18:53:13,NA,incomplete,209,race,2,1,left,A_M_08.jpg,A_F_03.jpg,C_M_06.jpg,left,852.1000000182539,true,high,false
DrUIBqdd,3r6rzgk0yip7nifkjif6ljfzh4yvyd,354p56de9oga3q09tgp3m37nryz7sl,DrUIBqdd,2020-0188,2020-11-16,18:40:05,18:53:13,NA,incomplete,210,race,2,0,left,C_M_02.jpg,C_F_04.jpg,A_M_07.jpg,left,1066.9399999896996,true,high,false
DrUIBqdd,3r6rzgk0yip7nifkjif6ljfzh4yvyd,354p56de9oga3q09tgp3m37nryz7sl,DrUIBqdd,2020-0188,2020-11-16,18:40:05,18:53:13,NA,incomplete,211,race,2,1,left,A_M_15.jpg,A_F_01.jpg,C_M_07.jpg,left,746.1350000230595,true,high,false
DrUIBqdd,3r6rzgk0yip7nifkjif6ljfzh4yvyd,354p56de9oga3q09tgp3m37nryz7sl,DrUIBqdd,2020-0188,2020-11-16,18:40:05,18:53:13,NA,incomplete,212,race,2,1,right,A_M_05.jpg,C_M_03.jpg,A_F_02.jpg,right,803.6399999982677,true,high,false
DrUIBqdd,3r6rzgk0yip7nifkjif6ljfzh4yvyd,354p56de9oga3q09tgp3m37nryz7sl,DrUIBqdd,2020-0188,2020-11-16,18:40:05,18:53:13,NA,incomplete,213,race,2,1,right,A_M_11.jpg,C_M_04.jpg,A_F_15.jpg,right,686.3500000326894,true,high,false
DrUIBqdd,3r6rzgk0yip7nifkjif6ljfzh4yvyd,354p56de9oga3q09tgp3m37nryz7sl,DrUIBqdd,2020-0188,2020-11-16,18:40:05,18:53:13,NA,incomplete,214,race,2,0,left,C_M_13.jpg,C_F_08.jpg,A_M_06.jpg,left,1240.0149999884889,true,high,false
DrUIBqdd,3r6rzgk0yip7nifkjif6ljfzh4yvyd,354p56de9oga3q09tgp3m37nryz7sl,DrUIBqdd,2020-0188,2020-11-16,18:40:05,18:53:13,NA,incomplete,215,race,2,1,right,A_M_02.jpg,C_M_07.jpg,A_F_15.jpg,right,656.5249999985099,true,high,false
DrUIBqdd,3r6rzgk0yip7nifkjif6ljfzh4yvyd,354p56de9oga3q09tgp3m37nryz7sl,DrUIBqdd,2020-0188,2020-11-16,18:40:05,18:53:13,NA,incomplete,216,race,2,1,left,A_F_05.jpg,A_M_12.jpg,C_F_08.jpg,left,777.6600000215694,true,high,false
DrUIBqdd,3r6rzgk0yip7nifkjif6ljfzh4yvyd,354p56de9oga3q09tgp3m37nryz7sl,DrUIBqdd,2020-0188,2020-11-16,18:40:05,18:53:13,NA,incomplete,217,race,2,1,right,A_M_04.jpg,C_M_12.jpg,A_F_05.jpg,right,755.5300000240095,true,high,false
DrUIBqdd,3r6rzgk0yip7nifkjif6ljfzh4yvyd,354p56de9oga3q09tgp3m37nryz7sl,DrUIBqdd,2020-0188,2020-11-16,18:40:05,18:53:13,NA,incomplete,218,race,2,1,left,C_F_10.jpg,C_M_02.jpg,A_F_15.jpg,left,877.329999988433,true,high,false
DrUIBqdd,3r6rzgk0yip7nifkjif6ljfzh4yvyd,354p56de9oga3q09tgp3m37nryz7sl,DrUIBqdd,2020-0188,2020-11-16,18:40:05,18:53:13,NA,incomplete,219,race,2,1,left,C_F_16.jpg,C_M_05.jpg,A_F_13.jpg,right,829.5750000397675,false,high,false
DrUIBqdd,3r6rzgk0yip7nifkjif6ljfzh4yvyd,354p56de9oga3q09tgp3m37nryz7sl,DrUIBqdd,2020-0188,2020-11-16,18:40:05,18:53:13,NA,incomplete,220,gender,3,0,right,C_F_15.jpg,C_M_13.jpg,A_F_14.jpg,left,1133.7099999655038,false,high,false
DrUIBqdd,3r6rzgk0yip7nifkjif6ljfzh4yvyd,354p56de9oga3q09tgp3m37nryz7sl,DrUIBqdd,2020-0188,2020-11-16,18:40:05,18:53:13,NA,incomplete,221,gender,3,1,right,C_M_15.jpg,C_F_05.jpg,A_M_08.jpg,right,1738.4250000468455,true,high,false
DrUIBqdd,3r6rzgk0yip7nifkjif6ljfzh4yvyd,354p56de9oga3q09tgp3m37nryz7sl,DrUIBqdd,2020-0188,2020-11-16,18:40:05,18:53:13,NA,incomplete,222,gender,3,1,left,A_M_04.jpg,C_M_02.jpg,A_F_13.jpg,left,821.4649999863468,true,high,false
DrUIBqdd,3r6rzgk0yip7nifkjif6ljfzh4yvyd,354p56de9oga3q09tgp3m37nryz7sl,DrUIBqdd,2020-0188,2020-11-16,18:40:05,18:53:13,NA,incomplete,223,gender,3,1,left,A_F_10.jpg,C_F_04.jpg,A_M_15.jpg,left,746.1299999849871,true,high,false
DrUIBqdd,3r6rzgk0yip7nifkjif6ljfzh4yvyd,354p56de9oga3q09tgp3m37nryz7sl,DrUIBqdd,2020-0188,2020-11-16,18:40:05,18:53:13,NA,incomplete,224,gender,3,1,left,C_F_11.jpg,A_F_10.jpg,C_M_09.jpg,left,596.4350000140257,true,high,false
DrUIBqdd,3r6rzgk0yip7nifkjif6ljfzh4yvyd,354p56de9oga3q09tgp3m37nryz7sl,DrUIBqdd,2020-0188,2020-11-16,18:40:05,18:53:13,NA,incomplete,225,gender,3,1,right,C_M_10.jpg,C_F_05.jpg,A_M_04.jpg,right,763.5299999965355,true,high,false
DrUIBqdd,3r6rzgk0yip7nifkjif6ljfzh4yvyd,354p56de9oga3q09tgp3m37nryz7sl,DrUIBqdd,2020-0188,2020-11-16,18:40:05,18:53:13,NA,incomplete,226,gender,3,0,right,A_M_08.jpg,A_F_09.jpg,C_M_16.jpg,right,1000.9999999892898,true,high,false
DrUIBqdd,3r6rzgk0yip7nifkjif6ljfzh4yvyd,354p56de9oga3q09tgp3m37nryz7sl,DrUIBqdd,2020-0188,2020-11-16,18:40:05,18:53:13,NA,incomplete,227,gender,3,1,right,A_M_14.jpg,A_F_10.jpg,C_M_08.jpg,left,772.3499999847263,false,high,false
DrUIBqdd,3r6rzgk0yip7nifkjif6ljfzh4yvyd,354p56de9oga3q09tgp3m37nryz7sl,DrUIBqdd,2020-0188,2020-11-16,18:40:05,18:53:13,NA,incomplete,228,gender,3,1,left,C_F_11.jpg,A_F_03.jpg,C_M_01.jpg,left,638.974999950733,true,high,false
DrUIBqdd,3r6rzgk0yip7nifkjif6ljfzh4yvyd,354p56de9oga3q09tgp3m37nryz7sl,DrUIBqdd,2020-0188,2020-11-16,18:40:05,18:53:13,NA,incomplete,229,gender,3,1,left,A_M_13.jpg,C_M_09.jpg,A_F_08.jpg,left,644.3299999809824,true,high,false
DrUIBqdd,3r6rzgk0yip7nifkjif6ljfzh4yvyd,354p56de9oga3q09tgp3m37nryz7sl,DrUIBqdd,2020-0188,2020-11-16,18:40:05,18:53:13,NA,incomplete,230,gender,3,1,right,A_F_15.jpg,A_M_12.jpg,C_F_10.jpg,right,754.5449999743141,true,high,false
DrUIBqdd,3r6rzgk0yip7nifkjif6ljfzh4yvyd,354p56de9oga3q09tgp3m37nryz7sl,DrUIBqdd,2020-0188,2020-11-16,18:40:05,18:53:13,NA,incomplete,231,gender,3,0,left,C_M_08.jpg,A_M_09.jpg,C_F_10.jpg,left,570.6600000266917,true,high,false
DrUIBqdd,3r6rzgk0yip7nifkjif6ljfzh4yvyd,354p56de9oga3q09tgp3m37nryz7sl,DrUIBqdd,2020-0188,2020-11-16,18:40:05,18:53:13,NA,incomplete,232,gender,3,1,left,A_M_03.jpg,C_M_15.jpg,A_F_07.jpg,right,692.1200000215322,false,high,false
DrUIBqdd,3r6rzgk0yip7nifkjif6ljfzh4yvyd,354p56de9oga3q09tgp3m37nryz7sl,DrUIBqdd,2020-0188,2020-11-16,18:40:05,18:53:13,NA,incomplete,233,gender,3,0,right,A_M_05.jpg,A_F_15.jpg,C_M_16.jpg,left,1009.3099999940023,false,high,false
DrUIBqdd,3r6rzgk0yip7nifkjif6ljfzh4yvyd,354p56de9oga3q09tgp3m37nryz7sl,DrUIBqdd,2020-0188,2020-11-16,18:40:05,18:53:13,NA,incomplete,234,gender,3,1,right,A_F_11.jpg,A_M_15.jpg,C_F_02.jpg,left,792.4099999945611,false,high,false
DrUIBqdd,3r6rzgk0yip7nifkjif6ljfzh4yvyd,354p56de9oga3q09tgp3m37nryz7sl,DrUIBqdd,2020-0188,2020-11-16,18:40:05,18:53:13,NA,incomplete,235,gender,3,1,right,C_F_03.jpg,C_M_10.jpg,A_F_13.jpg,left,797.2949999966659,false,high,false
DrUIBqdd,3r6rzgk0yip7nifkjif6ljfzh4yvyd,354p56de9oga3q09tgp3m37nryz7sl,DrUIBqdd,2020-0188,2020-11-16,18:40:05,18:53:13,NA,incomplete,236,gender,3,1,right,C_F_06.jpg,C_M_04.jpg,A_F_01.jpg,right,652.3399999714456,true,high,false
DrUIBqdd,3r6rzgk0yip7nifkjif6ljfzh4yvyd,354p56de9oga3q09tgp3m37nryz7sl,DrUIBqdd,2020-0188,2020-11-16,18:40:05,18:53:13,NA,incomplete,237,gender,3,1,right,A_M_11.jpg,A_F_13.jpg,C_M_14.jpg,right,702.4049999890849,true,high,false
DrUIBqdd,3r6rzgk0yip7nifkjif6ljfzh4yvyd,354p56de9oga3q09tgp3m37nryz7sl,DrUIBqdd,2020-0188,2020-11-16,18:40:05,18:53:13,NA,incomplete,238,gender,3,1,right,C_F_03.jpg,C_M_09.jpg,A_F_15.jpg,right,714.1200000187382,true,high,false
DrUIBqdd,3r6rzgk0yip7nifkjif6ljfzh4yvyd,354p56de9oga3q09tgp3m37nryz7sl,DrUIBqdd,2020-0188,2020-11-16,18:40:05,18:53:13,NA,incomplete,239,gender,3,1,right,A_M_04.jpg,A_F_16.jpg,C_M_11.jpg,right,775.9300000034273,true,high,false
DrUIBqdd,3r6rzgk0yip7nifkjif6ljfzh4yvyd,354p56de9oga3q09tgp3m37nryz7sl,DrUIBqdd,2020-0188,2020-11-16,18:40:05,18:53:13,NA,NA,instruction example,filling,NA,NA,NA,Purple_Circle_Grid_4.jpg,Blue_Plus_Grid_2.jpg,Green_Circle_Dots_1.jpg,NA,NA,NA,NA,undefined
DrUIBqdd,3r6rzgk0yip7nifkjif6ljfzh4yvyd,354p56de9oga3q09tgp3m37nryz7sl,DrUIBqdd,2020-0188,2020-11-16,18:40:05,18:53:13,NA,NA,instruction example,filling,NA,NA,NA,Red_Plus_Grid_4.jpg,Green_Plus_Chess_3.jpg,Purple_Circle_Grid_2.jpg,NA,NA,NA,NA,undefined
DrUIBqdd,3r6rzgk0yip7nifkjif6ljfzh4yvyd,354p56de9oga3q09tgp3m37nryz7sl,DrUIBqdd,2020-0188,2020-11-16,18:40:05,18:53:13,NA,NA,instruction example,filling,NA,NA,NA,A_F_08.jpg,A_M_01.jpg,C_F_13.jpg,NA,NA,NA,NA,undefined
DrUIBqdd,3r6rzgk0yip7nifkjif6ljfzh4yvyd,354p56de9oga3q09tgp3m37nryz7sl,DrUIBqdd,2020-0188,2020-11-16,18:40:05,18:53:13,NA,NA,instruction example,filling,NA,NA,NA,C_F_02.jpg,A_F_12.jpg,C_M_01.jpg,NA,NA,NA,NA,undefined
