workerId,hitId,assignmentId,subject,studyid,exp_date,exp_start,exp_end,time_start,time_end,trial,type,sequence,reward_validity,answer,image_top,image_left,image_right,response,response_time,response_acc,volatility,age,race,gender,ethnicity,color,vision,neuro,practice
w1YJtnuN,32204agabep2jqz0kncwzihmy16hgu,36ahbnmv1vpngldsjzke4h5j0euydn,w1YJtnuN,2020-0188,2020-06-16,21:59:01,22:22:20,NA,incomplete,0,number,0,0,right,Red_Plus_Grid_1.jpg,Purple_Plus_Stripes_3.jpg,Green_Star_Dots_1.jpg,right,1263,true,NA,NA,NA,NA,NA,NA,NA,NA,true
w1YJtnuN,32204agabep2jqz0kncwzihmy16hgu,36ahbnmv1vpngldsjzke4h5j0euydn,w1YJtnuN,2020-0188,2020-06-16,21:59:01,22:22:20,NA,incomplete,1,number,0,1,left,Purple_Star_Grid_1.jpg,Red_Triangle_Dots_1.jpg,Blue_Star_Stripes_2.jpg,left,689,true,NA,NA,NA,NA,NA,NA,NA,NA,true
w1YJtnuN,32204agabep2jqz0kncwzihmy16hgu,36ahbnmv1vpngldsjzke4h5j0euydn,w1YJtnuN,2020-0188,2020-06-16,21:59:01,22:22:20,NA,incomplete,2,number,0,1,left,Green_Circle_Grid_3.jpg,Red_Plus_Chess_3.jpg,Purple_Circle_Dots_2.jpg,left,733,true,NA,NA,NA,NA,NA,NA,NA,NA,true
w1YJtnuN,32204agabep2jqz0kncwzihmy16hgu,36ahbnmv1vpngldsjzke4h5j0euydn,w1YJtnuN,2020-0188,2020-06-16,21:59:01,22:22:20,NA,incomplete,3,number,0,1,left,Red_Triangle_Stripes_1.jpg,Blue_Circle_Dots_1.jpg,Green_Triangle_Grid_4.jpg,left,715,true,NA,NA,NA,NA,NA,NA,NA,NA,true
w1YJtnuN,32204agabep2jqz0kncwzihmy16hgu,36ahbnmv1vpngldsjzke4h5j0euydn,w1YJtnuN,2020-0188,2020-06-16,21:59:01,22:22:20,NA,incomplete,4,number,0,1,left,Red_Circle_Dots_3.jpg,Green_Plus_Chess_3.jpg,Blue_Circle_Grid_4.jpg,right,661,false,NA,NA,NA,NA,NA,NA,NA,NA,true
w1YJtnuN,32204agabep2jqz0kncwzihmy16hgu,36ahbnmv1vpngldsjzke4h5j0euydn,w1YJtnuN,2020-0188,2020-06-16,21:59:01,22:22:20,NA,incomplete,5,number,0,1,right,Green_Star_Chess_4.jpg,Purple_Star_Grid_2.jpg,Red_Plus_Dots_4.jpg,right,1287,true,NA,NA,NA,NA,NA,NA,NA,NA,true
w1YJtnuN,32204agabep2jqz0kncwzihmy16hgu,36ahbnmv1vpngldsjzke4h5j0euydn,w1YJtnuN,2020-0188,2020-06-16,21:59:01,22:22:20,NA,incomplete,6,number,0,1,left,Green_Circle_Chess_1.jpg,Blue_Star_Stripes_1.jpg,Purple_Circle_Dots_4.jpg,left,655,true,NA,NA,NA,NA,NA,NA,NA,NA,true
w1YJtnuN,32204agabep2jqz0kncwzihmy16hgu,36ahbnmv1vpngldsjzke4h5j0euydn,w1YJtnuN,2020-0188,2020-06-16,21:59:01,22:22:20,NA,incomplete,7,number,0,0,right,Purple_Plus_Dots_4.jpg,Red_Plus_Chess_1.jpg,Green_Star_Stripes_4.jpg,right,656,true,NA,NA,NA,NA,NA,NA,NA,NA,true
w1YJtnuN,32204agabep2jqz0kncwzihmy16hgu,36ahbnmv1vpngldsjzke4h5j0euydn,w1YJtnuN,2020-0188,2020-06-16,21:59:01,22:22:20,NA,incomplete,8,number,0,1,left,Green_Triangle_Stripes_4.jpg,Purple_Star_Chess_4.jpg,Red_Triangle_Grid_2.jpg,left,658,true,NA,NA,NA,NA,NA,NA,NA,NA,true
w1YJtnuN,32204agabep2jqz0kncwzihmy16hgu,36ahbnmv1vpngldsjzke4h5j0euydn,w1YJtnuN,2020-0188,2020-06-16,21:59:01,22:22:20,NA,incomplete,9,number,0,1,left,Blue_Circle_Dots_1.jpg,Green_Plus_Chess_1.jpg,Red_Circle_Grid_3.jpg,left,716,true,NA,NA,NA,NA,NA,NA,NA,NA,true
w1YJtnuN,32204agabep2jqz0kncwzihmy16hgu,36ahbnmv1vpngldsjzke4h5j0euydn,w1YJtnuN,2020-0188,2020-06-16,21:59:01,22:22:20,NA,incomplete,10,number,0,1,left,Purple_Triangle_Grid_3.jpg,Red_Plus_Chess_3.jpg,Green_Triangle_Stripes_1.jpg,left,616,true,NA,NA,NA,NA,NA,NA,NA,NA,true
w1YJtnuN,32204agabep2jqz0kncwzihmy16hgu,36ahbnmv1vpngldsjzke4h5j0euydn,w1YJtnuN,2020-0188,2020-06-16,21:59:01,22:22:20,NA,incomplete,11,number,0,1,right,Blue_Triangle_Dots_3.jpg,Red_Triangle_Grid_1.jpg,Purple_Star_Chess_3.jpg,right,626,true,NA,NA,NA,NA,NA,NA,NA,NA,true
w1YJtnuN,32204agabep2jqz0kncwzihmy16hgu,36ahbnmv1vpngldsjzke4h5j0euydn,w1YJtnuN,2020-0188,2020-06-16,21:59:01,22:22:20,NA,incomplete,12,number,0,1,right,Purple_Triangle_Grid_2.jpg,Green_Triangle_Chess_4.jpg,Blue_Plus_Stripes_2.jpg,right,876,true,NA,NA,NA,NA,NA,NA,NA,NA,true
w1YJtnuN,32204agabep2jqz0kncwzihmy16hgu,36ahbnmv1vpngldsjzke4h5j0euydn,w1YJtnuN,2020-0188,2020-06-16,21:59:01,22:22:20,NA,incomplete,13,number,0,1,left,Blue_Plus_Grid_2.jpg,Green_Star_Dots_2.jpg,Red_Plus_Stripes_1.jpg,left,621,true,NA,NA,NA,NA,NA,NA,NA,NA,true
w1YJtnuN,32204agabep2jqz0kncwzihmy16hgu,36ahbnmv1vpngldsjzke4h5j0euydn,w1YJtnuN,2020-0188,2020-06-16,21:59:01,22:22:20,NA,incomplete,14,number,0,1,right,Blue_Star_Stripes_3.jpg,Green_Star_Dots_1.jpg,Purple_Triangle_Grid_3.jpg,right,614,true,NA,NA,NA,NA,NA,NA,NA,NA,true
w1YJtnuN,32204agabep2jqz0kncwzihmy16hgu,36ahbnmv1vpngldsjzke4h5j0euydn,w1YJtnuN,2020-0188,2020-06-16,21:59:01,22:22:20,NA,incomplete,15,number,0,1,left,Red_Star_Stripes_1.jpg,Purple_Triangle_Dots_1.jpg,Blue_Star_Chess_4.jpg,left,568,true,NA,NA,NA,NA,NA,NA,NA,NA,true
w1YJtnuN,32204agabep2jqz0kncwzihmy16hgu,36ahbnmv1vpngldsjzke4h5j0euydn,w1YJtnuN,2020-0188,2020-06-16,21:59:01,22:22:20,NA,incomplete,16,number,0,0,left,Purple_Circle_Stripes_4.jpg,Blue_Plus_Grid_4.jpg,Green_Circle_Dots_2.jpg,left,574,true,NA,NA,NA,NA,NA,NA,NA,NA,true
w1YJtnuN,32204agabep2jqz0kncwzihmy16hgu,36ahbnmv1vpngldsjzke4h5j0euydn,w1YJtnuN,2020-0188,2020-06-16,21:59:01,22:22:20,NA,incomplete,17,number,0,1,left,Blue_Star_Dots_3.jpg,Green_Triangle_Grid_3.jpg,Purple_Star_Stripes_2.jpg,left,721,true,NA,NA,NA,NA,NA,NA,NA,NA,true
w1YJtnuN,32204agabep2jqz0kncwzihmy16hgu,36ahbnmv1vpngldsjzke4h5j0euydn,w1YJtnuN,2020-0188,2020-06-16,21:59:01,22:22:20,NA,incomplete,18,number,0,1,right,Blue_Plus_Dots_4.jpg,Red_Plus_Stripes_3.jpg,Purple_Star_Chess_4.jpg,right,765,true,NA,NA,NA,NA,NA,NA,NA,NA,true
w1YJtnuN,32204agabep2jqz0kncwzihmy16hgu,36ahbnmv1vpngldsjzke4h5j0euydn,w1YJtnuN,2020-0188,2020-06-16,21:59:01,22:22:20,NA,incomplete,19,number,0,1,left,Blue_Circle_Chess_4.jpg,Green_Triangle_Dots_4.jpg,Red_Circle_Stripes_3.jpg,left,674,true,NA,NA,NA,NA,NA,NA,NA,NA,true
w1YJtnuN,32204agabep2jqz0kncwzihmy16hgu,36ahbnmv1vpngldsjzke4h5j0euydn,w1YJtnuN,2020-0188,2020-06-16,21:59:01,22:22:20,NA,incomplete,20,shape,1,0,right,Purple_Plus_Grid_2.jpg,Green_Triangle_Dots_2.jpg,Red_Plus_Chess_4.jpg,right,942,true,NA,NA,NA,NA,NA,NA,NA,NA,true
w1YJtnuN,32204agabep2jqz0kncwzihmy16hgu,36ahbnmv1vpngldsjzke4h5j0euydn,w1YJtnuN,2020-0188,2020-06-16,21:59:01,22:22:20,NA,incomplete,21,shape,1,0,left,Red_Star_Chess_3.jpg,Blue_Star_Dots_2.jpg,Purple_Circle_Stripes_3.jpg,left,733,true,NA,NA,NA,NA,NA,NA,NA,NA,true
w1YJtnuN,32204agabep2jqz0kncwzihmy16hgu,36ahbnmv1vpngldsjzke4h5j0euydn,w1YJtnuN,2020-0188,2020-06-16,21:59:01,22:22:20,NA,incomplete,22,shape,1,1,right,Green_Star_Chess_2.jpg,Red_Triangle_Stripes_2.jpg,Blue_Star_Grid_3.jpg,right,900,true,NA,NA,NA,NA,NA,NA,NA,NA,true
w1YJtnuN,32204agabep2jqz0kncwzihmy16hgu,36ahbnmv1vpngldsjzke4h5j0euydn,w1YJtnuN,2020-0188,2020-06-16,21:59:01,22:22:20,NA,incomplete,23,shape,1,1,left,Red_Plus_Stripes_1.jpg,Purple_Plus_Grid_3.jpg,Blue_Triangle_Chess_1.jpg,left,661,true,NA,NA,NA,NA,NA,NA,NA,NA,true
w1YJtnuN,32204agabep2jqz0kncwzihmy16hgu,36ahbnmv1vpngldsjzke4h5j0euydn,w1YJtnuN,2020-0188,2020-06-16,21:59:01,22:22:20,NA,incomplete,24,shape,1,1,right,Purple_Plus_Chess_1.jpg,Green_Triangle_Dots_1.jpg,Blue_Plus_Grid_4.jpg,right,710,true,NA,NA,NA,NA,NA,NA,NA,NA,true
w1YJtnuN,32204agabep2jqz0kncwzihmy16hgu,36ahbnmv1vpngldsjzke4h5j0euydn,w1YJtnuN,2020-0188,2020-06-16,21:59:01,22:22:20,NA,incomplete,25,shape,1,0,right,Blue_Circle_Grid_2.jpg,Green_Triangle_Chess_2.jpg,Purple_Circle_Stripes_1.jpg,right,541,true,NA,NA,NA,NA,NA,NA,NA,NA,true
w1YJtnuN,32204agabep2jqz0kncwzihmy16hgu,36ahbnmv1vpngldsjzke4h5j0euydn,w1YJtnuN,2020-0188,2020-06-16,21:59:01,22:22:20,NA,incomplete,26,shape,1,1,right,Green_Star_Stripes_4.jpg,Red_Plus_Grid_4.jpg,Purple_Star_Chess_3.jpg,right,719,true,NA,NA,NA,NA,NA,NA,NA,NA,true
w1YJtnuN,32204agabep2jqz0kncwzihmy16hgu,36ahbnmv1vpngldsjzke4h5j0euydn,w1YJtnuN,2020-0188,2020-06-16,21:59:01,22:22:20,NA,incomplete,27,shape,1,1,left,Blue_Triangle_Stripes_2.jpg,Green_Triangle_Chess_4.jpg,Red_Circle_Dots_2.jpg,left,674,true,NA,NA,NA,NA,NA,NA,NA,NA,true
w1YJtnuN,32204agabep2jqz0kncwzihmy16hgu,36ahbnmv1vpngldsjzke4h5j0euydn,w1YJtnuN,2020-0188,2020-06-16,21:59:01,22:22:20,NA,incomplete,28,shape,1,1,left,Blue_Plus_Chess_2.jpg,Green_Plus_Grid_4.jpg,Red_Star_Dots_2.jpg,left,635,true,NA,NA,NA,NA,NA,NA,NA,NA,true
w1YJtnuN,32204agabep2jqz0kncwzihmy16hgu,36ahbnmv1vpngldsjzke4h5j0euydn,w1YJtnuN,2020-0188,2020-06-16,21:59:01,22:22:20,NA,incomplete,29,shape,1,1,left,Red_Star_Stripes_2.jpg,Green_Star_Grid_3.jpg,Purple_Triangle_Chess_2.jpg,left,611,true,NA,NA,NA,NA,NA,NA,NA,NA,true
w1YJtnuN,32204agabep2jqz0kncwzihmy16hgu,36ahbnmv1vpngldsjzke4h5j0euydn,w1YJtnuN,2020-0188,2020-06-16,21:59:01,22:22:20,NA,incomplete,30,shape,1,1,right,Purple_Star_Grid_3.jpg,Red_Triangle_Dots_3.jpg,Blue_Star_Chess_1.jpg,right,601,true,NA,NA,NA,NA,NA,NA,NA,NA,true
w1YJtnuN,32204agabep2jqz0kncwzihmy16hgu,36ahbnmv1vpngldsjzke4h5j0euydn,w1YJtnuN,2020-0188,2020-06-16,21:59:01,22:22:20,NA,incomplete,31,shape,1,1,right,Blue_Star_Chess_2.jpg,Red_Triangle_Dots_2.jpg,Green_Star_Stripes_3.jpg,right,849,true,NA,NA,NA,NA,NA,NA,NA,NA,true
w1YJtnuN,32204agabep2jqz0kncwzihmy16hgu,36ahbnmv1vpngldsjzke4h5j0euydn,w1YJtnuN,2020-0188,2020-06-16,21:59:01,22:22:20,NA,incomplete,32,shape,1,0,right,Green_Triangle_Chess_2.jpg,Blue_Star_Stripes_2.jpg,Red_Triangle_Dots_3.jpg,right,647,true,NA,NA,NA,NA,NA,NA,NA,NA,true
w1YJtnuN,32204agabep2jqz0kncwzihmy16hgu,36ahbnmv1vpngldsjzke4h5j0euydn,w1YJtnuN,2020-0188,2020-06-16,21:59:01,22:22:20,NA,incomplete,33,shape,1,1,left,Green_Star_Dots_4.jpg,Purple_Star_Chess_1.jpg,Blue_Triangle_Grid_4.jpg,left,689,true,NA,NA,NA,NA,NA,NA,NA,NA,true
w1YJtnuN,32204agabep2jqz0kncwzihmy16hgu,36ahbnmv1vpngldsjzke4h5j0euydn,w1YJtnuN,2020-0188,2020-06-16,21:59:01,22:22:20,NA,incomplete,34,shape,1,1,right,Blue_Star_Chess_4.jpg,Red_Circle_Grid_4.jpg,Purple_Star_Stripes_2.jpg,right,555,true,NA,NA,NA,NA,NA,NA,NA,NA,true
w1YJtnuN,32204agabep2jqz0kncwzihmy16hgu,36ahbnmv1vpngldsjzke4h5j0euydn,w1YJtnuN,2020-0188,2020-06-16,21:59:01,22:22:20,NA,incomplete,35,shape,1,1,left,Purple_Circle_Chess_3.jpg,Green_Circle_Dots_1.jpg,Blue_Plus_Stripes_3.jpg,left,668,true,NA,NA,NA,NA,NA,NA,NA,NA,true
w1YJtnuN,32204agabep2jqz0kncwzihmy16hgu,36ahbnmv1vpngldsjzke4h5j0euydn,w1YJtnuN,2020-0188,2020-06-16,21:59:01,22:22:20,NA,incomplete,36,shape,1,1,left,Purple_Triangle_Stripes_1.jpg,Green_Triangle_Chess_4.jpg,Blue_Star_Dots_1.jpg,left,755,true,NA,NA,NA,NA,NA,NA,NA,NA,true
w1YJtnuN,32204agabep2jqz0kncwzihmy16hgu,36ahbnmv1vpngldsjzke4h5j0euydn,w1YJtnuN,2020-0188,2020-06-16,21:59:01,22:22:20,NA,incomplete,37,shape,1,1,left,Blue_Star_Chess_4.jpg,Red_Star_Stripes_2.jpg,Green_Triangle_Grid_4.jpg,left,726,true,NA,NA,NA,NA,NA,NA,NA,NA,true
w1YJtnuN,32204agabep2jqz0kncwzihmy16hgu,36ahbnmv1vpngldsjzke4h5j0euydn,w1YJtnuN,2020-0188,2020-06-16,21:59:01,22:22:20,NA,incomplete,38,shape,1,1,right,Purple_Triangle_Grid_4.jpg,Green_Plus_Chess_4.jpg,Blue_Triangle_Stripes_2.jpg,right,887,true,NA,NA,NA,NA,NA,NA,NA,NA,true
w1YJtnuN,32204agabep2jqz0kncwzihmy16hgu,36ahbnmv1vpngldsjzke4h5j0euydn,w1YJtnuN,2020-0188,2020-06-16,21:59:01,22:22:20,NA,incomplete,39,shape,1,0,left,Purple_Circle_Chess_4.jpg,Green_Circle_Dots_3.jpg,Red_Plus_Grid_4.jpg,left,764,true,NA,NA,NA,NA,NA,NA,NA,NA,true
w1YJtnuN,32204agabep2jqz0kncwzihmy16hgu,36ahbnmv1vpngldsjzke4h5j0euydn,w1YJtnuN,2020-0188,2020-06-16,21:59:01,22:22:20,NA,incomplete,0,number,0,1,right,Blue_Plus_Grid_4.jpg,Green_Plus_Dots_2.jpg,Red_Star_Chess_4.jpg,left,1066,false,high,NA,NA,NA,NA,NA,NA,NA,false
w1YJtnuN,32204agabep2jqz0kncwzihmy16hgu,36ahbnmv1vpngldsjzke4h5j0euydn,w1YJtnuN,2020-0188,2020-06-16,21:59:01,22:22:20,NA,incomplete,1,number,0,1,right,Purple_Plus_Stripes_4.jpg,Green_Plus_Dots_1.jpg,Blue_Star_Chess_4.jpg,right,660,true,high,NA,NA,NA,NA,NA,NA,NA,false
w1YJtnuN,32204agabep2jqz0kncwzihmy16hgu,36ahbnmv1vpngldsjzke4h5j0euydn,w1YJtnuN,2020-0188,2020-06-16,21:59:01,22:22:20,NA,incomplete,2,number,0,1,left,Purple_Star_Stripes_1.jpg,Red_Triangle_Grid_1.jpg,Blue_Star_Chess_2.jpg,left,652,true,high,NA,NA,NA,NA,NA,NA,NA,false
w1YJtnuN,32204agabep2jqz0kncwzihmy16hgu,36ahbnmv1vpngldsjzke4h5j0euydn,w1YJtnuN,2020-0188,2020-06-16,21:59:01,22:22:20,NA,incomplete,3,number,0,1,right,Red_Star_Dots_2.jpg,Green_Star_Stripes_1.jpg,Blue_Triangle_Chess_2.jpg,right,805,true,high,NA,NA,NA,NA,NA,NA,NA,false
w1YJtnuN,32204agabep2jqz0kncwzihmy16hgu,36ahbnmv1vpngldsjzke4h5j0euydn,w1YJtnuN,2020-0188,2020-06-16,21:59:01,22:22:20,NA,incomplete,4,number,0,1,right,Purple_Triangle_Dots_2.jpg,Blue_Triangle_Stripes_4.jpg,Red_Plus_Chess_2.jpg,right,801,true,high,NA,NA,NA,NA,NA,NA,NA,false
w1YJtnuN,32204agabep2jqz0kncwzihmy16hgu,36ahbnmv1vpngldsjzke4h5j0euydn,w1YJtnuN,2020-0188,2020-06-16,21:59:01,22:22:20,NA,incomplete,5,number,0,1,right,Green_Triangle_Grid_1.jpg,Purple_Triangle_Dots_2.jpg,Blue_Plus_Chess_1.jpg,left,617,false,high,NA,NA,NA,NA,NA,NA,NA,false
w1YJtnuN,32204agabep2jqz0kncwzihmy16hgu,36ahbnmv1vpngldsjzke4h5j0euydn,w1YJtnuN,2020-0188,2020-06-16,21:59:01,22:22:20,NA,incomplete,6,number,0,0,right,Blue_Star_Stripes_1.jpg,Green_Star_Chess_4.jpg,Purple_Plus_Grid_1.jpg,right,568,true,high,NA,NA,NA,NA,NA,NA,NA,false
w1YJtnuN,32204agabep2jqz0kncwzihmy16hgu,36ahbnmv1vpngldsjzke4h5j0euydn,w1YJtnuN,2020-0188,2020-06-16,21:59:01,22:22:20,NA,incomplete,7,number,0,1,right,Red_Star_Dots_1.jpg,Blue_Star_Stripes_4.jpg,Purple_Plus_Chess_1.jpg,right,612,true,high,NA,NA,NA,NA,NA,NA,NA,false
w1YJtnuN,32204agabep2jqz0kncwzihmy16hgu,36ahbnmv1vpngldsjzke4h5j0euydn,w1YJtnuN,2020-0188,2020-06-16,21:59:01,22:22:20,NA,incomplete,8,number,0,0,left,Red_Triangle_Chess_4.jpg,Purple_Circle_Stripes_4.jpg,Blue_Triangle_Grid_1.jpg,left,727,true,high,NA,NA,NA,NA,NA,NA,NA,false
w1YJtnuN,32204agabep2jqz0kncwzihmy16hgu,36ahbnmv1vpngldsjzke4h5j0euydn,w1YJtnuN,2020-0188,2020-06-16,21:59:01,22:22:20,NA,incomplete,9,number,0,1,right,Blue_Circle_Chess_1.jpg,Green_Circle_Dots_3.jpg,Red_Star_Stripes_1.jpg,right,842,true,high,NA,NA,NA,NA,NA,NA,NA,false
w1YJtnuN,32204agabep2jqz0kncwzihmy16hgu,36ahbnmv1vpngldsjzke4h5j0euydn,w1YJtnuN,2020-0188,2020-06-16,21:59:01,22:22:20,NA,incomplete,10,shape,1,1,left,Purple_Star_Chess_3.jpg,Green_Star_Stripes_1.jpg,Red_Triangle_Dots_3.jpg,left,1151,true,high,NA,NA,NA,NA,NA,NA,NA,false
w1YJtnuN,32204agabep2jqz0kncwzihmy16hgu,36ahbnmv1vpngldsjzke4h5j0euydn,w1YJtnuN,2020-0188,2020-06-16,21:59:01,22:22:20,NA,incomplete,11,shape,1,1,left,Green_Triangle_Grid_2.jpg,Purple_Triangle_Stripes_4.jpg,Blue_Star_Chess_2.jpg,right,857,false,high,NA,NA,NA,NA,NA,NA,NA,false
w1YJtnuN,32204agabep2jqz0kncwzihmy16hgu,36ahbnmv1vpngldsjzke4h5j0euydn,w1YJtnuN,2020-0188,2020-06-16,21:59:01,22:22:20,NA,incomplete,12,shape,1,1,left,Blue_Circle_Stripes_4.jpg,Red_Circle_Chess_3.jpg,Purple_Plus_Grid_4.jpg,left,609,true,high,NA,NA,NA,NA,NA,NA,NA,false
w1YJtnuN,32204agabep2jqz0kncwzihmy16hgu,36ahbnmv1vpngldsjzke4h5j0euydn,w1YJtnuN,2020-0188,2020-06-16,21:59:01,22:22:20,NA,incomplete,13,shape,1,1,right,Green_Star_Stripes_1.jpg,Purple_Circle_Chess_1.jpg,Red_Star_Grid_2.jpg,right,703,true,high,NA,NA,NA,NA,NA,NA,NA,false
w1YJtnuN,32204agabep2jqz0kncwzihmy16hgu,36ahbnmv1vpngldsjzke4h5j0euydn,w1YJtnuN,2020-0188,2020-06-16,21:59:01,22:22:20,NA,incomplete,14,shape,1,0,left,Green_Triangle_Dots_2.jpg,Purple_Triangle_Stripes_1.jpg,Red_Plus_Chess_2.jpg,left,703,true,high,NA,NA,NA,NA,NA,NA,NA,false
w1YJtnuN,32204agabep2jqz0kncwzihmy16hgu,36ahbnmv1vpngldsjzke4h5j0euydn,w1YJtnuN,2020-0188,2020-06-16,21:59:01,22:22:20,NA,incomplete,15,shape,1,1,right,Red_Circle_Dots_2.jpg,Purple_Triangle_Chess_2.jpg,Green_Circle_Grid_4.jpg,right,667,true,high,NA,NA,NA,NA,NA,NA,NA,false
w1YJtnuN,32204agabep2jqz0kncwzihmy16hgu,36ahbnmv1vpngldsjzke4h5j0euydn,w1YJtnuN,2020-0188,2020-06-16,21:59:01,22:22:20,NA,incomplete,16,shape,1,1,left,Blue_Triangle_Stripes_3.jpg,Green_Triangle_Dots_1.jpg,Purple_Plus_Chess_3.jpg,left,751,true,high,NA,NA,NA,NA,NA,NA,NA,false
w1YJtnuN,32204agabep2jqz0kncwzihmy16hgu,36ahbnmv1vpngldsjzke4h5j0euydn,w1YJtnuN,2020-0188,2020-06-16,21:59:01,22:22:20,NA,incomplete,17,shape,1,1,right,Red_Circle_Chess_3.jpg,Green_Plus_Stripes_3.jpg,Blue_Circle_Grid_1.jpg,right,633,true,high,NA,NA,NA,NA,NA,NA,NA,false
w1YJtnuN,32204agabep2jqz0kncwzihmy16hgu,36ahbnmv1vpngldsjzke4h5j0euydn,w1YJtnuN,2020-0188,2020-06-16,21:59:01,22:22:20,NA,incomplete,18,shape,1,0,left,Purple_Star_Grid_1.jpg,Green_Star_Dots_3.jpg,Red_Plus_Stripes_1.jpg,left,685,true,high,NA,NA,NA,NA,NA,NA,NA,false
w1YJtnuN,32204agabep2jqz0kncwzihmy16hgu,36ahbnmv1vpngldsjzke4h5j0euydn,w1YJtnuN,2020-0188,2020-06-16,21:59:01,22:22:20,NA,incomplete,19,shape,1,1,right,Green_Triangle_Chess_4.jpg,Blue_Circle_Grid_4.jpg,Purple_Triangle_Stripes_2.jpg,left,894,false,high,NA,NA,NA,NA,NA,NA,NA,false
w1YJtnuN,32204agabep2jqz0kncwzihmy16hgu,36ahbnmv1vpngldsjzke4h5j0euydn,w1YJtnuN,2020-0188,2020-06-16,21:59:01,22:22:20,NA,incomplete,20,number,0,0,right,Blue_Star_Chess_2.jpg,Green_Star_Grid_4.jpg,Purple_Triangle_Dots_2.jpg,left,763,false,high,NA,NA,NA,NA,NA,NA,NA,false
w1YJtnuN,32204agabep2jqz0kncwzihmy16hgu,36ahbnmv1vpngldsjzke4h5j0euydn,w1YJtnuN,2020-0188,2020-06-16,21:59:01,22:22:20,NA,incomplete,21,number,0,0,left,Red_Star_Chess_4.jpg,Green_Plus_Stripes_4.jpg,Blue_Star_Dots_2.jpg,right,634,false,high,NA,NA,NA,NA,NA,NA,NA,false
w1YJtnuN,32204agabep2jqz0kncwzihmy16hgu,36ahbnmv1vpngldsjzke4h5j0euydn,w1YJtnuN,2020-0188,2020-06-16,21:59:01,22:22:20,NA,incomplete,22,number,0,1,right,Green_Plus_Grid_1.jpg,Blue_Plus_Dots_2.jpg,Red_Star_Stripes_1.jpg,left,714,false,high,NA,NA,NA,NA,NA,NA,NA,false
w1YJtnuN,32204agabep2jqz0kncwzihmy16hgu,36ahbnmv1vpngldsjzke4h5j0euydn,w1YJtnuN,2020-0188,2020-06-16,21:59:01,22:22:20,NA,incomplete,23,number,0,1,left,Purple_Star_Grid_3.jpg,Green_Circle_Chess_3.jpg,Red_Star_Stripes_4.jpg,right,711,false,high,NA,NA,NA,NA,NA,NA,NA,false
w1YJtnuN,32204agabep2jqz0kncwzihmy16hgu,36ahbnmv1vpngldsjzke4h5j0euydn,w1YJtnuN,2020-0188,2020-06-16,21:59:01,22:22:20,NA,incomplete,24,number,0,1,right,Purple_Plus_Chess_3.jpg,Blue_Plus_Stripes_2.jpg,Red_Triangle_Dots_3.jpg,right,730,true,high,NA,NA,NA,NA,NA,NA,NA,false
w1YJtnuN,32204agabep2jqz0kncwzihmy16hgu,36ahbnmv1vpngldsjzke4h5j0euydn,w1YJtnuN,2020-0188,2020-06-16,21:59:01,22:22:20,NA,incomplete,25,number,0,1,left,Green_Circle_Chess_4.jpg,Blue_Star_Grid_4.jpg,Purple_Circle_Dots_1.jpg,left,1058,true,high,NA,NA,NA,NA,NA,NA,NA,false
w1YJtnuN,32204agabep2jqz0kncwzihmy16hgu,36ahbnmv1vpngldsjzke4h5j0euydn,w1YJtnuN,2020-0188,2020-06-16,21:59:01,22:22:20,NA,incomplete,26,number,0,1,left,Red_Plus_Stripes_2.jpg,Green_Triangle_Grid_2.jpg,Blue_Plus_Chess_4.jpg,right,643,false,high,NA,NA,NA,NA,NA,NA,NA,false
w1YJtnuN,32204agabep2jqz0kncwzihmy16hgu,36ahbnmv1vpngldsjzke4h5j0euydn,w1YJtnuN,2020-0188,2020-06-16,21:59:01,22:22:20,NA,incomplete,27,number,0,1,right,Red_Star_Stripes_1.jpg,Green_Star_Chess_3.jpg,Purple_Triangle_Grid_1.jpg,right,694,true,high,NA,NA,NA,NA,NA,NA,NA,false
w1YJtnuN,32204agabep2jqz0kncwzihmy16hgu,36ahbnmv1vpngldsjzke4h5j0euydn,w1YJtnuN,2020-0188,2020-06-16,21:59:01,22:22:20,NA,incomplete,28,number,0,1,right,Green_Circle_Chess_4.jpg,Purple_Circle_Stripes_2.jpg,Red_Triangle_Grid_4.jpg,right,590,true,high,NA,NA,NA,NA,NA,NA,NA,false
w1YJtnuN,32204agabep2jqz0kncwzihmy16hgu,36ahbnmv1vpngldsjzke4h5j0euydn,w1YJtnuN,2020-0188,2020-06-16,21:59:01,22:22:20,NA,incomplete,29,number,0,1,right,Blue_Triangle_Grid_1.jpg,Purple_Triangle_Stripes_2.jpg,Red_Circle_Chess_1.jpg,right,559,true,high,NA,NA,NA,NA,NA,NA,NA,false
w1YJtnuN,32204agabep2jqz0kncwzihmy16hgu,36ahbnmv1vpngldsjzke4h5j0euydn,w1YJtnuN,2020-0188,2020-06-16,21:59:01,22:22:20,NA,incomplete,30,shape,1,1,left,Green_Triangle_Grid_1.jpg,Purple_Triangle_Chess_3.jpg,Red_Star_Stripes_1.jpg,right,666,false,high,NA,NA,NA,NA,NA,NA,NA,false
w1YJtnuN,32204agabep2jqz0kncwzihmy16hgu,36ahbnmv1vpngldsjzke4h5j0euydn,w1YJtnuN,2020-0188,2020-06-16,21:59:01,22:22:20,NA,incomplete,31,shape,1,1,right,Green_Circle_Chess_2.jpg,Blue_Star_Stripes_2.jpg,Purple_Circle_Dots_4.jpg,left,621,false,high,NA,NA,NA,NA,NA,NA,NA,false
w1YJtnuN,32204agabep2jqz0kncwzihmy16hgu,36ahbnmv1vpngldsjzke4h5j0euydn,w1YJtnuN,2020-0188,2020-06-16,21:59:01,22:22:20,NA,incomplete,32,shape,1,0,right,Red_Star_Chess_1.jpg,Blue_Circle_Stripes_1.jpg,Green_Star_Grid_3.jpg,right,902,true,high,NA,NA,NA,NA,NA,NA,NA,false
w1YJtnuN,32204agabep2jqz0kncwzihmy16hgu,36ahbnmv1vpngldsjzke4h5j0euydn,w1YJtnuN,2020-0188,2020-06-16,21:59:01,22:22:20,NA,incomplete,33,shape,1,0,right,Red_Circle_Chess_1.jpg,Green_Plus_Stripes_1.jpg,Blue_Circle_Grid_4.jpg,right,660,true,high,NA,NA,NA,NA,NA,NA,NA,false
w1YJtnuN,32204agabep2jqz0kncwzihmy16hgu,36ahbnmv1vpngldsjzke4h5j0euydn,w1YJtnuN,2020-0188,2020-06-16,21:59:01,22:22:20,NA,incomplete,34,shape,1,1,left,Blue_Circle_Dots_1.jpg,Green_Circle_Stripes_3.jpg,Purple_Plus_Grid_1.jpg,right,606,false,high,NA,NA,NA,NA,NA,NA,NA,false
w1YJtnuN,32204agabep2jqz0kncwzihmy16hgu,36ahbnmv1vpngldsjzke4h5j0euydn,w1YJtnuN,2020-0188,2020-06-16,21:59:01,22:22:20,NA,incomplete,35,shape,1,1,left,Green_Star_Stripes_4.jpg,Red_Star_Grid_3.jpg,Purple_Triangle_Dots_4.jpg,right,662,false,high,NA,NA,NA,NA,NA,NA,NA,false
w1YJtnuN,32204agabep2jqz0kncwzihmy16hgu,36ahbnmv1vpngldsjzke4h5j0euydn,w1YJtnuN,2020-0188,2020-06-16,21:59:01,22:22:20,NA,incomplete,36,shape,1,1,right,Purple_Plus_Grid_4.jpg,Blue_Triangle_Chess_4.jpg,Green_Plus_Dots_2.jpg,right,790,true,high,NA,NA,NA,NA,NA,NA,NA,false
w1YJtnuN,32204agabep2jqz0kncwzihmy16hgu,36ahbnmv1vpngldsjzke4h5j0euydn,w1YJtnuN,2020-0188,2020-06-16,21:59:01,22:22:20,NA,incomplete,37,shape,1,1,left,Purple_Plus_Chess_1.jpg,Green_Plus_Dots_3.jpg,Red_Circle_Stripes_1.jpg,left,657,true,high,NA,NA,NA,NA,NA,NA,NA,false
w1YJtnuN,32204agabep2jqz0kncwzihmy16hgu,36ahbnmv1vpngldsjzke4h5j0euydn,w1YJtnuN,2020-0188,2020-06-16,21:59:01,22:22:20,NA,incomplete,38,shape,1,1,left,Green_Triangle_Grid_4.jpg,Blue_Triangle_Chess_2.jpg,Purple_Circle_Stripes_4.jpg,left,811,true,high,NA,NA,NA,NA,NA,NA,NA,false
w1YJtnuN,32204agabep2jqz0kncwzihmy16hgu,36ahbnmv1vpngldsjzke4h5j0euydn,w1YJtnuN,2020-0188,2020-06-16,21:59:01,22:22:20,NA,incomplete,39,shape,1,1,left,Red_Star_Chess_3.jpg,Green_Star_Stripes_2.jpg,Blue_Plus_Grid_3.jpg,right,778,false,high,NA,NA,NA,NA,NA,NA,NA,false
w1YJtnuN,32204agabep2jqz0kncwzihmy16hgu,36ahbnmv1vpngldsjzke4h5j0euydn,w1YJtnuN,2020-0188,2020-06-16,21:59:01,22:22:20,NA,incomplete,40,number,0,1,left,Purple_Circle_Chess_3.jpg,Blue_Triangle_Grid_3.jpg,Green_Circle_Dots_4.jpg,right,696,false,high,NA,NA,NA,NA,NA,NA,NA,false
w1YJtnuN,32204agabep2jqz0kncwzihmy16hgu,36ahbnmv1vpngldsjzke4h5j0euydn,w1YJtnuN,2020-0188,2020-06-16,21:59:01,22:22:20,NA,incomplete,41,number,0,1,right,Purple_Star_Chess_1.jpg,Blue_Star_Grid_4.jpg,Red_Triangle_Dots_1.jpg,left,634,false,high,NA,NA,NA,NA,NA,NA,NA,false
w1YJtnuN,32204agabep2jqz0kncwzihmy16hgu,36ahbnmv1vpngldsjzke4h5j0euydn,w1YJtnuN,2020-0188,2020-06-16,21:59:01,22:22:20,NA,incomplete,42,number,0,1,right,Green_Triangle_Dots_4.jpg,Purple_Triangle_Grid_1.jpg,Red_Circle_Chess_4.jpg,right,602,true,high,NA,NA,NA,NA,NA,NA,NA,false
w1YJtnuN,32204agabep2jqz0kncwzihmy16hgu,36ahbnmv1vpngldsjzke4h5j0euydn,w1YJtnuN,2020-0188,2020-06-16,21:59:01,22:22:20,NA,incomplete,43,number,0,1,left,Purple_Plus_Grid_1.jpg,Blue_Star_Chess_1.jpg,Green_Plus_Dots_4.jpg,left,485,true,high,NA,NA,NA,NA,NA,NA,NA,false
w1YJtnuN,32204agabep2jqz0kncwzihmy16hgu,36ahbnmv1vpngldsjzke4h5j0euydn,w1YJtnuN,2020-0188,2020-06-16,21:59:01,22:22:20,NA,incomplete,44,number,0,0,right,Blue_Circle_Grid_2.jpg,Green_Circle_Chess_1.jpg,Red_Triangle_Stripes_2.jpg,right,860,true,high,NA,NA,NA,NA,NA,NA,NA,false
w1YJtnuN,32204agabep2jqz0kncwzihmy16hgu,36ahbnmv1vpngldsjzke4h5j0euydn,w1YJtnuN,2020-0188,2020-06-16,21:59:01,22:22:20,NA,incomplete,45,number,0,1,left,Blue_Plus_Dots_2.jpg,Green_Circle_Chess_2.jpg,Purple_Plus_Stripes_3.jpg,left,752,true,high,NA,NA,NA,NA,NA,NA,NA,false
w1YJtnuN,32204agabep2jqz0kncwzihmy16hgu,36ahbnmv1vpngldsjzke4h5j0euydn,w1YJtnuN,2020-0188,2020-06-16,21:59:01,22:22:20,NA,incomplete,46,number,0,1,right,Purple_Star_Dots_3.jpg,Red_Star_Grid_4.jpg,Blue_Circle_Stripes_3.jpg,right,1147,true,high,NA,NA,NA,NA,NA,NA,NA,false
w1YJtnuN,32204agabep2jqz0kncwzihmy16hgu,36ahbnmv1vpngldsjzke4h5j0euydn,w1YJtnuN,2020-0188,2020-06-16,21:59:01,22:22:20,NA,incomplete,47,number,0,1,right,Green_Triangle_Stripes_3.jpg,Purple_Triangle_Dots_4.jpg,Red_Circle_Chess_3.jpg,right,1463,true,high,NA,NA,NA,NA,NA,NA,NA,false
w1YJtnuN,32204agabep2jqz0kncwzihmy16hgu,36ahbnmv1vpngldsjzke4h5j0euydn,w1YJtnuN,2020-0188,2020-06-16,21:59:01,22:22:20,NA,incomplete,48,number,0,1,right,Red_Circle_Chess_2.jpg,Blue_Circle_Stripes_3.jpg,Purple_Plus_Dots_2.jpg,right,629,true,high,NA,NA,NA,NA,NA,NA,NA,false
w1YJtnuN,32204agabep2jqz0kncwzihmy16hgu,36ahbnmv1vpngldsjzke4h5j0euydn,w1YJtnuN,2020-0188,2020-06-16,21:59:01,22:22:20,NA,incomplete,49,number,0,1,left,Purple_Star_Stripes_3.jpg,Red_Triangle_Dots_3.jpg,Green_Star_Grid_1.jpg,left,609,true,high,NA,NA,NA,NA,NA,NA,NA,false
w1YJtnuN,32204agabep2jqz0kncwzihmy16hgu,36ahbnmv1vpngldsjzke4h5j0euydn,w1YJtnuN,2020-0188,2020-06-16,21:59:01,22:22:20,NA,incomplete,50,shape,1,1,right,Red_Triangle_Chess_1.jpg,Blue_Plus_Stripes_1.jpg,Purple_Triangle_Dots_2.jpg,left,688,false,high,NA,NA,NA,NA,NA,NA,NA,false
w1YJtnuN,32204agabep2jqz0kncwzihmy16hgu,36ahbnmv1vpngldsjzke4h5j0euydn,w1YJtnuN,2020-0188,2020-06-16,21:59:01,22:22:20,NA,incomplete,51,shape,1,1,left,Blue_Circle_Grid_3.jpg,Green_Circle_Dots_1.jpg,Red_Star_Chess_3.jpg,left,739,true,high,NA,NA,NA,NA,NA,NA,NA,false
w1YJtnuN,32204agabep2jqz0kncwzihmy16hgu,36ahbnmv1vpngldsjzke4h5j0euydn,w1YJtnuN,2020-0188,2020-06-16,21:59:01,22:22:20,NA,incomplete,52,shape,1,1,left,Blue_Circle_Dots_3.jpg,Red_Circle_Grid_1.jpg,Green_Plus_Chess_3.jpg,left,667,true,high,NA,NA,NA,NA,NA,NA,NA,false
w1YJtnuN,32204agabep2jqz0kncwzihmy16hgu,36ahbnmv1vpngldsjzke4h5j0euydn,w1YJtnuN,2020-0188,2020-06-16,21:59:01,22:22:20,NA,incomplete,53,shape,1,0,right,Green_Star_Stripes_3.jpg,Blue_Circle_Grid_3.jpg,Red_Star_Dots_2.jpg,right,930,true,high,NA,NA,NA,NA,NA,NA,NA,false
w1YJtnuN,32204agabep2jqz0kncwzihmy16hgu,36ahbnmv1vpngldsjzke4h5j0euydn,w1YJtnuN,2020-0188,2020-06-16,21:59:01,22:22:20,NA,incomplete,54,shape,1,1,left,Green_Star_Stripes_4.jpg,Red_Star_Dots_3.jpg,Purple_Circle_Chess_4.jpg,left,656,true,high,NA,NA,NA,NA,NA,NA,NA,false
w1YJtnuN,32204agabep2jqz0kncwzihmy16hgu,36ahbnmv1vpngldsjzke4h5j0euydn,w1YJtnuN,2020-0188,2020-06-16,21:59:01,22:22:20,NA,incomplete,55,shape,1,1,left,Blue_Star_Dots_1.jpg,Red_Star_Chess_4.jpg,Purple_Circle_Grid_1.jpg,right,693,false,high,NA,NA,NA,NA,NA,NA,NA,false
w1YJtnuN,32204agabep2jqz0kncwzihmy16hgu,36ahbnmv1vpngldsjzke4h5j0euydn,w1YJtnuN,2020-0188,2020-06-16,21:59:01,22:22:20,NA,incomplete,56,shape,1,1,right,Blue_Star_Dots_2.jpg,Red_Triangle_Chess_2.jpg,Green_Star_Grid_1.jpg,right,555,true,high,NA,NA,NA,NA,NA,NA,NA,false
w1YJtnuN,32204agabep2jqz0kncwzihmy16hgu,36ahbnmv1vpngldsjzke4h5j0euydn,w1YJtnuN,2020-0188,2020-06-16,21:59:01,22:22:20,NA,incomplete,57,shape,1,1,right,Green_Plus_Stripes_3.jpg,Purple_Triangle_Dots_3.jpg,Blue_Plus_Grid_2.jpg,left,760,false,high,NA,NA,NA,NA,NA,NA,NA,false
w1YJtnuN,32204agabep2jqz0kncwzihmy16hgu,36ahbnmv1vpngldsjzke4h5j0euydn,w1YJtnuN,2020-0188,2020-06-16,21:59:01,22:22:20,NA,incomplete,58,shape,1,1,left,Blue_Plus_Chess_4.jpg,Green_Plus_Stripes_2.jpg,Purple_Circle_Dots_4.jpg,left,682,true,high,NA,NA,NA,NA,NA,NA,NA,false
w1YJtnuN,32204agabep2jqz0kncwzihmy16hgu,36ahbnmv1vpngldsjzke4h5j0euydn,w1YJtnuN,2020-0188,2020-06-16,21:59:01,22:22:20,NA,incomplete,59,shape,1,0,left,Purple_Circle_Stripes_2.jpg,Green_Circle_Grid_4.jpg,Blue_Triangle_Chess_2.jpg,left,809,true,high,NA,NA,NA,NA,NA,NA,NA,false
w1YJtnuN,32204agabep2jqz0kncwzihmy16hgu,36ahbnmv1vpngldsjzke4h5j0euydn,w1YJtnuN,2020-0188,2020-06-16,21:59:01,22:22:20,NA,incomplete,60,number,0,1,right,Blue_Circle_Stripes_1.jpg,Green_Circle_Dots_2.jpg,Purple_Plus_Chess_1.jpg,right,1230,true,high,NA,NA,NA,NA,NA,NA,NA,false
w1YJtnuN,32204agabep2jqz0kncwzihmy16hgu,36ahbnmv1vpngldsjzke4h5j0euydn,w1YJtnuN,2020-0188,2020-06-16,21:59:01,22:22:20,NA,incomplete,61,number,0,1,right,Green_Triangle_Chess_4.jpg,Purple_Triangle_Grid_1.jpg,Blue_Circle_Stripes_4.jpg,right,619,true,high,NA,NA,NA,NA,NA,NA,NA,false
w1YJtnuN,32204agabep2jqz0kncwzihmy16hgu,36ahbnmv1vpngldsjzke4h5j0euydn,w1YJtnuN,2020-0188,2020-06-16,21:59:01,22:22:20,NA,incomplete,62,number,0,1,left,Green_Triangle_Stripes_1.jpg,Red_Circle_Dots_1.jpg,Purple_Triangle_Chess_3.jpg,right,1124,false,high,NA,NA,NA,NA,NA,NA,NA,false
w1YJtnuN,32204agabep2jqz0kncwzihmy16hgu,36ahbnmv1vpngldsjzke4h5j0euydn,w1YJtnuN,2020-0188,2020-06-16,21:59:01,22:22:20,NA,incomplete,63,number,0,1,right,Purple_Circle_Grid_2.jpg,Blue_Circle_Stripes_4.jpg,Green_Plus_Chess_2.jpg,right,733,true,high,NA,NA,NA,NA,NA,NA,NA,false
w1YJtnuN,32204agabep2jqz0kncwzihmy16hgu,36ahbnmv1vpngldsjzke4h5j0euydn,w1YJtnuN,2020-0188,2020-06-16,21:59:01,22:22:20,NA,incomplete,64,number,0,1,right,Blue_Plus_Chess_3.jpg,Red_Plus_Stripes_2.jpg,Green_Circle_Dots_3.jpg,right,708,true,high,NA,NA,NA,NA,NA,NA,NA,false
w1YJtnuN,32204agabep2jqz0kncwzihmy16hgu,36ahbnmv1vpngldsjzke4h5j0euydn,w1YJtnuN,2020-0188,2020-06-16,21:59:01,22:22:20,NA,incomplete,65,number,0,1,left,Red_Star_Stripes_3.jpg,Purple_Circle_Grid_3.jpg,Blue_Star_Dots_1.jpg,left,658,true,high,NA,NA,NA,NA,NA,NA,NA,false
w1YJtnuN,32204agabep2jqz0kncwzihmy16hgu,36ahbnmv1vpngldsjzke4h5j0euydn,w1YJtnuN,2020-0188,2020-06-16,21:59:01,22:22:20,NA,incomplete,66,number,0,1,right,Blue_Circle_Grid_4.jpg,Red_Circle_Chess_1.jpg,Purple_Plus_Dots_4.jpg,right,603,true,high,NA,NA,NA,NA,NA,NA,NA,false
w1YJtnuN,32204agabep2jqz0kncwzihmy16hgu,36ahbnmv1vpngldsjzke4h5j0euydn,w1YJtnuN,2020-0188,2020-06-16,21:59:01,22:22:20,NA,incomplete,67,number,0,1,right,Green_Circle_Grid_2.jpg,Blue_Circle_Chess_4.jpg,Red_Plus_Stripes_2.jpg,right,719,true,high,NA,NA,NA,NA,NA,NA,NA,false
w1YJtnuN,32204agabep2jqz0kncwzihmy16hgu,36ahbnmv1vpngldsjzke4h5j0euydn,w1YJtnuN,2020-0188,2020-06-16,21:59:01,22:22:20,NA,incomplete,68,number,0,1,right,Green_Plus_Chess_4.jpg,Purple_Plus_Stripes_1.jpg,Blue_Star_Dots_4.jpg,right,734,true,high,NA,NA,NA,NA,NA,NA,NA,false
w1YJtnuN,32204agabep2jqz0kncwzihmy16hgu,36ahbnmv1vpngldsjzke4h5j0euydn,w1YJtnuN,2020-0188,2020-06-16,21:59:01,22:22:20,NA,incomplete,69,number,0,1,left,Purple_Plus_Grid_4.jpg,Blue_Triangle_Stripes_4.jpg,Red_Plus_Dots_3.jpg,left,661,true,high,NA,NA,NA,NA,NA,NA,NA,false
w1YJtnuN,32204agabep2jqz0kncwzihmy16hgu,36ahbnmv1vpngldsjzke4h5j0euydn,w1YJtnuN,2020-0188,2020-06-16,21:59:01,22:22:20,NA,incomplete,70,shape,1,1,right,Green_Star_Grid_3.jpg,Red_Triangle_Chess_3.jpg,Blue_Star_Dots_2.jpg,left,697,false,high,NA,NA,NA,NA,NA,NA,NA,false
w1YJtnuN,32204agabep2jqz0kncwzihmy16hgu,36ahbnmv1vpngldsjzke4h5j0euydn,w1YJtnuN,2020-0188,2020-06-16,21:59:01,22:22:20,NA,incomplete,71,shape,1,0,left,Green_Star_Chess_2.jpg,Blue_Star_Grid_4.jpg,Purple_Triangle_Dots_2.jpg,right,650,false,high,NA,NA,NA,NA,NA,NA,NA,false
w1YJtnuN,32204agabep2jqz0kncwzihmy16hgu,36ahbnmv1vpngldsjzke4h5j0euydn,w1YJtnuN,2020-0188,2020-06-16,21:59:01,22:22:20,NA,incomplete,72,shape,1,0,right,Red_Circle_Grid_2.jpg,Green_Star_Stripes_2.jpg,Purple_Circle_Chess_4.jpg,left,558,false,high,NA,NA,NA,NA,NA,NA,NA,false
w1YJtnuN,32204agabep2jqz0kncwzihmy16hgu,36ahbnmv1vpngldsjzke4h5j0euydn,w1YJtnuN,2020-0188,2020-06-16,21:59:01,22:22:20,NA,incomplete,73,shape,1,1,right,Blue_Triangle_Stripes_2.jpg,Green_Plus_Chess_2.jpg,Red_Triangle_Dots_1.jpg,left,642,false,high,NA,NA,NA,NA,NA,NA,NA,false
w1YJtnuN,32204agabep2jqz0kncwzihmy16hgu,36ahbnmv1vpngldsjzke4h5j0euydn,w1YJtnuN,2020-0188,2020-06-16,21:59:01,22:22:20,NA,incomplete,74,shape,1,1,right,Blue_Plus_Chess_3.jpg,Green_Star_Grid_3.jpg,Purple_Plus_Stripes_2.jpg,left,723,false,high,NA,NA,NA,NA,NA,NA,NA,false
w1YJtnuN,32204agabep2jqz0kncwzihmy16hgu,36ahbnmv1vpngldsjzke4h5j0euydn,w1YJtnuN,2020-0188,2020-06-16,21:59:01,22:22:20,NA,incomplete,75,shape,1,1,left,Red_Triangle_Grid_4.jpg,Purple_Triangle_Dots_2.jpg,Blue_Circle_Chess_4.jpg,right,748,false,high,NA,NA,NA,NA,NA,NA,NA,false
w1YJtnuN,32204agabep2jqz0kncwzihmy16hgu,36ahbnmv1vpngldsjzke4h5j0euydn,w1YJtnuN,2020-0188,2020-06-16,21:59:01,22:22:20,NA,incomplete,76,shape,1,0,left,Green_Plus_Grid_2.jpg,Purple_Plus_Dots_4.jpg,Red_Star_Chess_2.jpg,left,683,true,high,NA,NA,NA,NA,NA,NA,NA,false
w1YJtnuN,32204agabep2jqz0kncwzihmy16hgu,36ahbnmv1vpngldsjzke4h5j0euydn,w1YJtnuN,2020-0188,2020-06-16,21:59:01,22:22:20,NA,incomplete,77,shape,1,1,left,Purple_Circle_Grid_1.jpg,Red_Circle_Dots_4.jpg,Green_Triangle_Stripes_1.jpg,left,716,true,high,NA,NA,NA,NA,NA,NA,NA,false
w1YJtnuN,32204agabep2jqz0kncwzihmy16hgu,36ahbnmv1vpngldsjzke4h5j0euydn,w1YJtnuN,2020-0188,2020-06-16,21:59:01,22:22:20,NA,incomplete,78,shape,1,0,right,Purple_Circle_Stripes_4.jpg,Blue_Triangle_Chess_4.jpg,Green_Circle_Dots_3.jpg,right,651,true,high,NA,NA,NA,NA,NA,NA,NA,false
w1YJtnuN,32204agabep2jqz0kncwzihmy16hgu,36ahbnmv1vpngldsjzke4h5j0euydn,w1YJtnuN,2020-0188,2020-06-16,21:59:01,22:22:20,NA,incomplete,79,shape,1,1,right,Purple_Triangle_Stripes_3.jpg,Red_Star_Chess_3.jpg,Blue_Triangle_Grid_4.jpg,right,658,true,high,NA,NA,NA,NA,NA,NA,NA,false
w1YJtnuN,32204agabep2jqz0kncwzihmy16hgu,36ahbnmv1vpngldsjzke4h5j0euydn,w1YJtnuN,2020-0188,2020-06-16,21:59:01,22:22:20,NA,incomplete,80,number,0,1,right,Red_Circle_Grid_2.jpg,Purple_Circle_Dots_1.jpg,Blue_Plus_Stripes_2.jpg,left,509,false,high,NA,NA,NA,NA,NA,NA,NA,false
w1YJtnuN,32204agabep2jqz0kncwzihmy16hgu,36ahbnmv1vpngldsjzke4h5j0euydn,w1YJtnuN,2020-0188,2020-06-16,21:59:01,22:22:20,NA,incomplete,81,number,0,1,left,Purple_Plus_Stripes_2.jpg,Red_Circle_Dots_2.jpg,Green_Plus_Chess_1.jpg,right,843,false,high,NA,NA,NA,NA,NA,NA,NA,false
w1YJtnuN,32204agabep2jqz0kncwzihmy16hgu,36ahbnmv1vpngldsjzke4h5j0euydn,w1YJtnuN,2020-0188,2020-06-16,21:59:01,22:22:20,NA,incomplete,82,number,0,1,left,Red_Star_Chess_3.jpg,Purple_Triangle_Grid_3.jpg,Blue_Star_Dots_1.jpg,left,805,true,high,NA,NA,NA,NA,NA,NA,NA,false
w1YJtnuN,32204agabep2jqz0kncwzihmy16hgu,36ahbnmv1vpngldsjzke4h5j0euydn,w1YJtnuN,2020-0188,2020-06-16,21:59:01,22:22:20,NA,incomplete,83,number,0,1,left,Purple_Triangle_Stripes_4.jpg,Green_Circle_Chess_4.jpg,Blue_Triangle_Grid_1.jpg,left,550,true,high,NA,NA,NA,NA,NA,NA,NA,false
w1YJtnuN,32204agabep2jqz0kncwzihmy16hgu,36ahbnmv1vpngldsjzke4h5j0euydn,w1YJtnuN,2020-0188,2020-06-16,21:59:01,22:22:20,NA,incomplete,84,number,0,0,left,Green_Plus_Grid_4.jpg,Red_Star_Dots_4.jpg,Blue_Plus_Chess_3.jpg,left,627,true,high,NA,NA,NA,NA,NA,NA,NA,false
w1YJtnuN,32204agabep2jqz0kncwzihmy16hgu,36ahbnmv1vpngldsjzke4h5j0euydn,w1YJtnuN,2020-0188,2020-06-16,21:59:01,22:22:20,NA,incomplete,85,number,0,1,left,Red_Circle_Grid_2.jpg,Green_Triangle_Stripes_2.jpg,Purple_Circle_Chess_3.jpg,left,670,true,high,NA,NA,NA,NA,NA,NA,NA,false
w1YJtnuN,32204agabep2jqz0kncwzihmy16hgu,36ahbnmv1vpngldsjzke4h5j0euydn,w1YJtnuN,2020-0188,2020-06-16,21:59:01,22:22:20,NA,incomplete,86,number,0,1,left,Red_Circle_Dots_2.jpg,Green_Plus_Grid_2.jpg,Purple_Circle_Chess_1.jpg,left,619,true,high,NA,NA,NA,NA,NA,NA,NA,false
w1YJtnuN,32204agabep2jqz0kncwzihmy16hgu,36ahbnmv1vpngldsjzke4h5j0euydn,w1YJtnuN,2020-0188,2020-06-16,21:59:01,22:22:20,NA,incomplete,87,number,0,1,left,Purple_Triangle_Stripes_1.jpg,Blue_Plus_Grid_1.jpg,Green_Triangle_Chess_2.jpg,left,574,true,high,NA,NA,NA,NA,NA,NA,NA,false
w1YJtnuN,32204agabep2jqz0kncwzihmy16hgu,36ahbnmv1vpngldsjzke4h5j0euydn,w1YJtnuN,2020-0188,2020-06-16,21:59:01,22:22:20,NA,incomplete,88,number,0,1,left,Purple_Plus_Grid_2.jpg,Blue_Star_Chess_2.jpg,Green_Plus_Dots_4.jpg,left,581,true,high,NA,NA,NA,NA,NA,NA,NA,false
w1YJtnuN,32204agabep2jqz0kncwzihmy16hgu,36ahbnmv1vpngldsjzke4h5j0euydn,w1YJtnuN,2020-0188,2020-06-16,21:59:01,22:22:20,NA,incomplete,89,number,0,1,left,Blue_Star_Dots_2.jpg,Green_Plus_Grid_2.jpg,Red_Star_Chess_3.jpg,left,592,true,high,NA,NA,NA,NA,NA,NA,NA,false
w1YJtnuN,32204agabep2jqz0kncwzihmy16hgu,36ahbnmv1vpngldsjzke4h5j0euydn,w1YJtnuN,2020-0188,2020-06-16,21:59:01,22:22:20,NA,incomplete,90,shape,1,1,right,Blue_Plus_Stripes_2.jpg,Green_Triangle_Chess_2.jpg,Purple_Plus_Grid_3.jpg,left,700,false,high,NA,NA,NA,NA,NA,NA,NA,false
w1YJtnuN,32204agabep2jqz0kncwzihmy16hgu,36ahbnmv1vpngldsjzke4h5j0euydn,w1YJtnuN,2020-0188,2020-06-16,21:59:01,22:22:20,NA,incomplete,91,shape,1,1,left,Green_Plus_Chess_3.jpg,Blue_Plus_Dots_2.jpg,Purple_Triangle_Grid_3.jpg,right,641,false,high,NA,NA,NA,NA,NA,NA,NA,false
w1YJtnuN,32204agabep2jqz0kncwzihmy16hgu,36ahbnmv1vpngldsjzke4h5j0euydn,w1YJtnuN,2020-0188,2020-06-16,21:59:01,22:22:20,NA,incomplete,92,shape,1,0,left,Blue_Circle_Chess_4.jpg,Red_Circle_Grid_2.jpg,Green_Triangle_Stripes_4.jpg,left,657,true,high,NA,NA,NA,NA,NA,NA,NA,false
w1YJtnuN,32204agabep2jqz0kncwzihmy16hgu,36ahbnmv1vpngldsjzke4h5j0euydn,w1YJtnuN,2020-0188,2020-06-16,21:59:01,22:22:20,NA,incomplete,93,shape,1,1,right,Red_Circle_Dots_2.jpg,Purple_Star_Chess_2.jpg,Green_Circle_Grid_3.jpg,right,709,true,high,NA,NA,NA,NA,NA,NA,NA,false
w1YJtnuN,32204agabep2jqz0kncwzihmy16hgu,36ahbnmv1vpngldsjzke4h5j0euydn,w1YJtnuN,2020-0188,2020-06-16,21:59:01,22:22:20,NA,incomplete,94,shape,1,1,right,Purple_Plus_Chess_2.jpg,Red_Circle_Grid_2.jpg,Blue_Plus_Stripes_3.jpg,right,636,true,high,NA,NA,NA,NA,NA,NA,NA,false
w1YJtnuN,32204agabep2jqz0kncwzihmy16hgu,36ahbnmv1vpngldsjzke4h5j0euydn,w1YJtnuN,2020-0188,2020-06-16,21:59:01,22:22:20,NA,incomplete,95,shape,1,0,left,Red_Star_Dots_2.jpg,Purple_Star_Grid_1.jpg,Green_Plus_Chess_2.jpg,left,522,true,high,NA,NA,NA,NA,NA,NA,NA,false
w1YJtnuN,32204agabep2jqz0kncwzihmy16hgu,36ahbnmv1vpngldsjzke4h5j0euydn,w1YJtnuN,2020-0188,2020-06-16,21:59:01,22:22:20,NA,incomplete,96,shape,1,1,right,Blue_Plus_Stripes_3.jpg,Green_Triangle_Dots_3.jpg,Red_Plus_Chess_2.jpg,right,780,true,high,NA,NA,NA,NA,NA,NA,NA,false
w1YJtnuN,32204agabep2jqz0kncwzihmy16hgu,36ahbnmv1vpngldsjzke4h5j0euydn,w1YJtnuN,2020-0188,2020-06-16,21:59:01,22:22:20,NA,incomplete,97,shape,1,0,left,Blue_Triangle_Dots_3.jpg,Red_Triangle_Chess_2.jpg,Green_Plus_Stripes_3.jpg,left,744,true,high,NA,NA,NA,NA,NA,NA,NA,false
w1YJtnuN,32204agabep2jqz0kncwzihmy16hgu,36ahbnmv1vpngldsjzke4h5j0euydn,w1YJtnuN,2020-0188,2020-06-16,21:59:01,22:22:20,NA,incomplete,98,shape,1,1,left,Red_Circle_Grid_4.jpg,Purple_Circle_Stripes_3.jpg,Blue_Star_Dots_4.jpg,right,937,false,high,NA,NA,NA,NA,NA,NA,NA,false
w1YJtnuN,32204agabep2jqz0kncwzihmy16hgu,36ahbnmv1vpngldsjzke4h5j0euydn,w1YJtnuN,2020-0188,2020-06-16,21:59:01,22:22:20,NA,incomplete,99,shape,1,1,left,Purple_Circle_Dots_1.jpg,Green_Circle_Chess_4.jpg,Blue_Star_Grid_1.jpg,left,694,true,high,NA,NA,NA,NA,NA,NA,NA,false
w1YJtnuN,32204agabep2jqz0kncwzihmy16hgu,36ahbnmv1vpngldsjzke4h5j0euydn,w1YJtnuN,2020-0188,2020-06-16,21:59:01,22:22:20,NA,incomplete,100,number,0,0,left,Purple_Circle_Stripes_1.jpg,Red_Star_Grid_1.jpg,Green_Circle_Chess_4.jpg,right,614,false,high,NA,NA,NA,NA,NA,NA,NA,false
w1YJtnuN,32204agabep2jqz0kncwzihmy16hgu,36ahbnmv1vpngldsjzke4h5j0euydn,w1YJtnuN,2020-0188,2020-06-16,21:59:01,22:22:20,NA,incomplete,101,number,0,0,right,Blue_Triangle_Chess_2.jpg,Red_Triangle_Dots_4.jpg,Green_Plus_Grid_2.jpg,left,569,false,high,NA,NA,NA,NA,NA,NA,NA,false
w1YJtnuN,32204agabep2jqz0kncwzihmy16hgu,36ahbnmv1vpngldsjzke4h5j0euydn,w1YJtnuN,2020-0188,2020-06-16,21:59:01,22:22:20,NA,incomplete,102,number,0,1,left,Green_Star_Dots_3.jpg,Red_Triangle_Stripes_3.jpg,Purple_Star_Grid_2.jpg,right,612,false,high,NA,NA,NA,NA,NA,NA,NA,false
w1YJtnuN,32204agabep2jqz0kncwzihmy16hgu,36ahbnmv1vpngldsjzke4h5j0euydn,w1YJtnuN,2020-0188,2020-06-16,21:59:01,22:22:20,NA,incomplete,103,number,0,1,right,Purple_Star_Grid_4.jpg,Blue_Star_Dots_2.jpg,Red_Triangle_Chess_4.jpg,left,748,false,high,NA,NA,NA,NA,NA,NA,NA,false
w1YJtnuN,32204agabep2jqz0kncwzihmy16hgu,36ahbnmv1vpngldsjzke4h5j0euydn,w1YJtnuN,2020-0188,2020-06-16,21:59:01,22:22:20,NA,incomplete,104,number,0,1,right,Red_Star_Grid_2.jpg,Purple_Star_Chess_1.jpg,Blue_Triangle_Stripes_2.jpg,left,801,false,high,NA,NA,NA,NA,NA,NA,NA,false
w1YJtnuN,32204agabep2jqz0kncwzihmy16hgu,36ahbnmv1vpngldsjzke4h5j0euydn,w1YJtnuN,2020-0188,2020-06-16,21:59:01,22:22:20,NA,incomplete,105,number,0,1,left,Red_Star_Chess_3.jpg,Purple_Triangle_Grid_3.jpg,Green_Star_Stripes_2.jpg,left,663,true,high,NA,NA,NA,NA,NA,NA,NA,false
w1YJtnuN,32204agabep2jqz0kncwzihmy16hgu,36ahbnmv1vpngldsjzke4h5j0euydn,w1YJtnuN,2020-0188,2020-06-16,21:59:01,22:22:20,NA,incomplete,106,number,0,1,left,Green_Triangle_Grid_1.jpg,Red_Circle_Chess_1.jpg,Blue_Triangle_Dots_2.jpg,left,586,true,high,NA,NA,NA,NA,NA,NA,NA,false
w1YJtnuN,32204agabep2jqz0kncwzihmy16hgu,36ahbnmv1vpngldsjzke4h5j0euydn,w1YJtnuN,2020-0188,2020-06-16,21:59:01,22:22:20,NA,incomplete,107,number,0,1,right,Blue_Star_Grid_4.jpg,Purple_Star_Dots_1.jpg,Green_Circle_Stripes_4.jpg,right,713,true,high,NA,NA,NA,NA,NA,NA,NA,false
w1YJtnuN,32204agabep2jqz0kncwzihmy16hgu,36ahbnmv1vpngldsjzke4h5j0euydn,w1YJtnuN,2020-0188,2020-06-16,21:59:01,22:22:20,NA,incomplete,108,number,0,1,right,Blue_Circle_Dots_4.jpg,Green_Circle_Chess_1.jpg,Purple_Plus_Grid_4.jpg,right,628,true,high,NA,NA,NA,NA,NA,NA,NA,false
w1YJtnuN,32204agabep2jqz0kncwzihmy16hgu,36ahbnmv1vpngldsjzke4h5j0euydn,w1YJtnuN,2020-0188,2020-06-16,21:59:01,22:22:20,NA,incomplete,109,number,0,1,left,Purple_Star_Grid_1.jpg,Red_Triangle_Dots_1.jpg,Blue_Star_Stripes_4.jpg,left,521,true,high,NA,NA,NA,NA,NA,NA,NA,false
w1YJtnuN,32204agabep2jqz0kncwzihmy16hgu,36ahbnmv1vpngldsjzke4h5j0euydn,w1YJtnuN,2020-0188,2020-06-16,21:59:01,22:22:20,NA,incomplete,110,shape,1,1,right,Green_Triangle_Dots_4.jpg,Red_Plus_Stripes_4.jpg,Blue_Triangle_Chess_1.jpg,left,516,false,high,NA,NA,NA,NA,NA,NA,NA,false
w1YJtnuN,32204agabep2jqz0kncwzihmy16hgu,36ahbnmv1vpngldsjzke4h5j0euydn,w1YJtnuN,2020-0188,2020-06-16,21:59:01,22:22:20,NA,incomplete,111,shape,1,1,right,Red_Circle_Dots_2.jpg,Blue_Plus_Chess_2.jpg,Purple_Circle_Grid_3.jpg,left,741,false,high,NA,NA,NA,NA,NA,NA,NA,false
w1YJtnuN,32204agabep2jqz0kncwzihmy16hgu,36ahbnmv1vpngldsjzke4h5j0euydn,w1YJtnuN,2020-0188,2020-06-16,21:59:01,22:22:20,NA,incomplete,112,shape,1,0,left,Green_Plus_Dots_2.jpg,Blue_Plus_Stripes_4.jpg,Purple_Star_Chess_2.jpg,left,635,true,high,NA,NA,NA,NA,NA,NA,NA,false
w1YJtnuN,32204agabep2jqz0kncwzihmy16hgu,36ahbnmv1vpngldsjzke4h5j0euydn,w1YJtnuN,2020-0188,2020-06-16,21:59:01,22:22:20,NA,incomplete,113,shape,1,1,right,Red_Triangle_Stripes_4.jpg,Purple_Plus_Grid_4.jpg,Blue_Triangle_Chess_1.jpg,left,703,false,high,NA,NA,NA,NA,NA,NA,NA,false
w1YJtnuN,32204agabep2jqz0kncwzihmy16hgu,36ahbnmv1vpngldsjzke4h5j0euydn,w1YJtnuN,2020-0188,2020-06-16,21:59:01,22:22:20,NA,incomplete,114,shape,1,0,left,Blue_Triangle_Dots_4.jpg,Green_Triangle_Stripes_2.jpg,Purple_Star_Grid_4.jpg,left,910,true,high,NA,NA,NA,NA,NA,NA,NA,false
w1YJtnuN,32204agabep2jqz0kncwzihmy16hgu,36ahbnmv1vpngldsjzke4h5j0euydn,w1YJtnuN,2020-0188,2020-06-16,21:59:01,22:22:20,NA,incomplete,115,shape,1,1,right,Purple_Circle_Grid_2.jpg,Blue_Plus_Stripes_2.jpg,Red_Circle_Dots_3.jpg,left,743,false,high,NA,NA,NA,NA,NA,NA,NA,false
w1YJtnuN,32204agabep2jqz0kncwzihmy16hgu,36ahbnmv1vpngldsjzke4h5j0euydn,w1YJtnuN,2020-0188,2020-06-16,21:59:01,22:22:20,NA,incomplete,116,shape,1,1,right,Red_Plus_Grid_4.jpg,Blue_Star_Dots_4.jpg,Purple_Plus_Stripes_3.jpg,right,988,true,high,NA,NA,NA,NA,NA,NA,NA,false
w1YJtnuN,32204agabep2jqz0kncwzihmy16hgu,36ahbnmv1vpngldsjzke4h5j0euydn,w1YJtnuN,2020-0188,2020-06-16,21:59:01,22:22:20,NA,incomplete,117,shape,1,1,right,Red_Circle_Dots_1.jpg,Purple_Star_Stripes_1.jpg,Blue_Circle_Chess_2.jpg,right,707,true,high,NA,NA,NA,NA,NA,NA,NA,false
w1YJtnuN,32204agabep2jqz0kncwzihmy16hgu,36ahbnmv1vpngldsjzke4h5j0euydn,w1YJtnuN,2020-0188,2020-06-16,21:59:01,22:22:20,NA,incomplete,118,shape,1,1,left,Green_Triangle_Chess_1.jpg,Blue_Triangle_Grid_3.jpg,Red_Plus_Stripes_1.jpg,left,691,true,high,NA,NA,NA,NA,NA,NA,NA,false
w1YJtnuN,32204agabep2jqz0kncwzihmy16hgu,36ahbnmv1vpngldsjzke4h5j0euydn,w1YJtnuN,2020-0188,2020-06-16,21:59:01,22:22:20,NA,incomplete,119,shape,1,0,right,Purple_Triangle_Chess_2.jpg,Blue_Circle_Stripes_2.jpg,Red_Triangle_Grid_4.jpg,right,626,true,high,NA,NA,NA,NA,NA,NA,NA,false
w1YJtnuN,32204agabep2jqz0kncwzihmy16hgu,36ahbnmv1vpngldsjzke4h5j0euydn,w1YJtnuN,2020-0188,2020-06-16,21:59:01,22:22:20,NA,incomplete,120,race,2,0,right,C_M_13.jpg,A_M_10.jpg,C_F_01.jpg,NA,NA,NA,high,NA,NA,NA,NA,NA,NA,NA,false
w1YJtnuN,32204agabep2jqz0kncwzihmy16hgu,36ahbnmv1vpngldsjzke4h5j0euydn,w1YJtnuN,2020-0188,2020-06-16,21:59:01,22:22:20,NA,incomplete,121,race,2,1,right,C_F_16.jpg,A_F_13.jpg,C_M_06.jpg,left,902,false,high,NA,NA,NA,NA,NA,NA,NA,false
w1YJtnuN,32204agabep2jqz0kncwzihmy16hgu,36ahbnmv1vpngldsjzke4h5j0euydn,w1YJtnuN,2020-0188,2020-06-16,21:59:01,22:22:20,NA,incomplete,122,race,2,0,left,A_F_09.jpg,A_M_08.jpg,C_F_12.jpg,left,799,true,high,NA,NA,NA,NA,NA,NA,NA,false
w1YJtnuN,32204agabep2jqz0kncwzihmy16hgu,36ahbnmv1vpngldsjzke4h5j0euydn,w1YJtnuN,2020-0188,2020-06-16,21:59:01,22:22:20,NA,incomplete,123,race,2,1,right,A_F_13.jpg,C_F_05.jpg,A_M_06.jpg,right,885,true,high,NA,NA,NA,NA,NA,NA,NA,false
w1YJtnuN,32204agabep2jqz0kncwzihmy16hgu,36ahbnmv1vpngldsjzke4h5j0euydn,w1YJtnuN,2020-0188,2020-06-16,21:59:01,22:22:20,NA,incomplete,124,race,2,1,left,A_M_11.jpg,A_F_06.jpg,C_M_14.jpg,left,678,true,high,NA,NA,NA,NA,NA,NA,NA,false
w1YJtnuN,32204agabep2jqz0kncwzihmy16hgu,36ahbnmv1vpngldsjzke4h5j0euydn,w1YJtnuN,2020-0188,2020-06-16,21:59:01,22:22:20,NA,incomplete,125,race,2,0,left,A_M_11.jpg,A_F_16.jpg,C_M_02.jpg,right,822,false,high,NA,NA,NA,NA,NA,NA,NA,false
w1YJtnuN,32204agabep2jqz0kncwzihmy16hgu,36ahbnmv1vpngldsjzke4h5j0euydn,w1YJtnuN,2020-0188,2020-06-16,21:59:01,22:22:20,NA,incomplete,126,race,2,1,left,C_M_02.jpg,C_F_04.jpg,A_M_07.jpg,left,1094,true,high,NA,NA,NA,NA,NA,NA,NA,false
w1YJtnuN,32204agabep2jqz0kncwzihmy16hgu,36ahbnmv1vpngldsjzke4h5j0euydn,w1YJtnuN,2020-0188,2020-06-16,21:59:01,22:22:20,NA,incomplete,127,race,2,1,right,A_M_14.jpg,C_M_04.jpg,A_F_11.jpg,right,966,true,high,NA,NA,NA,NA,NA,NA,NA,false
w1YJtnuN,32204agabep2jqz0kncwzihmy16hgu,36ahbnmv1vpngldsjzke4h5j0euydn,w1YJtnuN,2020-0188,2020-06-16,21:59:01,22:22:20,NA,incomplete,128,race,2,1,right,A_F_06.jpg,C_F_05.jpg,A_M_03.jpg,right,1148,true,high,NA,NA,NA,NA,NA,NA,NA,false
w1YJtnuN,32204agabep2jqz0kncwzihmy16hgu,36ahbnmv1vpngldsjzke4h5j0euydn,w1YJtnuN,2020-0188,2020-06-16,21:59:01,22:22:20,NA,incomplete,129,race,2,1,right,C_M_05.jpg,A_M_02.jpg,C_F_03.jpg,left,974,false,high,NA,NA,NA,NA,NA,NA,NA,false
w1YJtnuN,32204agabep2jqz0kncwzihmy16hgu,36ahbnmv1vpngldsjzke4h5j0euydn,w1YJtnuN,2020-0188,2020-06-16,21:59:01,22:22:20,NA,incomplete,130,race,2,0,left,C_F_01.jpg,C_M_15.jpg,A_F_12.jpg,right,986,false,high,NA,NA,NA,NA,NA,NA,NA,false
w1YJtnuN,32204agabep2jqz0kncwzihmy16hgu,36ahbnmv1vpngldsjzke4h5j0euydn,w1YJtnuN,2020-0188,2020-06-16,21:59:01,22:22:20,NA,incomplete,131,race,2,1,left,C_F_09.jpg,C_M_13.jpg,A_F_07.jpg,right,829,false,high,NA,NA,NA,NA,NA,NA,NA,false
w1YJtnuN,32204agabep2jqz0kncwzihmy16hgu,36ahbnmv1vpngldsjzke4h5j0euydn,w1YJtnuN,2020-0188,2020-06-16,21:59:01,22:22:20,NA,incomplete,132,race,2,1,left,C_F_06.jpg,C_M_14.jpg,A_F_07.jpg,right,1266,false,high,NA,NA,NA,NA,NA,NA,NA,false
w1YJtnuN,32204agabep2jqz0kncwzihmy16hgu,36ahbnmv1vpngldsjzke4h5j0euydn,w1YJtnuN,2020-0188,2020-06-16,21:59:01,22:22:20,NA,incomplete,133,race,2,1,left,C_F_11.jpg,C_M_05.jpg,A_F_16.jpg,right,1009,false,high,NA,NA,NA,NA,NA,NA,NA,false
w1YJtnuN,32204agabep2jqz0kncwzihmy16hgu,36ahbnmv1vpngldsjzke4h5j0euydn,w1YJtnuN,2020-0188,2020-06-16,21:59:01,22:22:20,NA,incomplete,134,race,2,1,left,A_F_09.jpg,A_M_14.jpg,C_F_03.jpg,left,855,true,high,NA,NA,NA,NA,NA,NA,NA,false
w1YJtnuN,32204agabep2jqz0kncwzihmy16hgu,36ahbnmv1vpngldsjzke4h5j0euydn,w1YJtnuN,2020-0188,2020-06-16,21:59:01,22:22:20,NA,incomplete,135,race,2,1,left,C_F_05.jpg,C_M_03.jpg,A_F_06.jpg,left,1106,true,high,NA,NA,NA,NA,NA,NA,NA,false
w1YJtnuN,32204agabep2jqz0kncwzihmy16hgu,36ahbnmv1vpngldsjzke4h5j0euydn,w1YJtnuN,2020-0188,2020-06-16,21:59:01,22:22:20,NA,incomplete,136,race,2,1,left,A_M_07.jpg,A_F_08.jpg,C_M_01.jpg,left,743,true,high,NA,NA,NA,NA,NA,NA,NA,false
w1YJtnuN,32204agabep2jqz0kncwzihmy16hgu,36ahbnmv1vpngldsjzke4h5j0euydn,w1YJtnuN,2020-0188,2020-06-16,21:59:01,22:22:20,NA,incomplete,137,race,2,0,right,A_M_02.jpg,C_M_07.jpg,A_F_11.jpg,right,918,true,high,NA,NA,NA,NA,NA,NA,NA,false
w1YJtnuN,32204agabep2jqz0kncwzihmy16hgu,36ahbnmv1vpngldsjzke4h5j0euydn,w1YJtnuN,2020-0188,2020-06-16,21:59:01,22:22:20,NA,incomplete,138,race,2,1,right,C_M_16.jpg,A_M_12.jpg,C_F_10.jpg,left,1003,false,high,NA,NA,NA,NA,NA,NA,NA,false
w1YJtnuN,32204agabep2jqz0kncwzihmy16hgu,36ahbnmv1vpngldsjzke4h5j0euydn,w1YJtnuN,2020-0188,2020-06-16,21:59:01,22:22:20,NA,incomplete,139,race,2,1,right,C_F_08.jpg,A_F_06.jpg,C_M_13.jpg,right,1205,true,high,NA,NA,NA,NA,NA,NA,NA,false
w1YJtnuN,32204agabep2jqz0kncwzihmy16hgu,36ahbnmv1vpngldsjzke4h5j0euydn,w1YJtnuN,2020-0188,2020-06-16,21:59:01,22:22:20,NA,incomplete,140,gender,3,0,right,A_M_05.jpg,A_F_14.jpg,C_M_09.jpg,left,1073,false,high,NA,NA,NA,NA,NA,NA,NA,false
w1YJtnuN,32204agabep2jqz0kncwzihmy16hgu,36ahbnmv1vpngldsjzke4h5j0euydn,w1YJtnuN,2020-0188,2020-06-16,21:59:01,22:22:20,NA,incomplete,141,gender,3,1,left,A_F_08.jpg,C_F_16.jpg,A_M_07.jpg,right,772,false,high,NA,NA,NA,NA,NA,NA,NA,false
w1YJtnuN,32204agabep2jqz0kncwzihmy16hgu,36ahbnmv1vpngldsjzke4h5j0euydn,w1YJtnuN,2020-0188,2020-06-16,21:59:01,22:22:20,NA,incomplete,142,gender,3,1,right,A_M_09.jpg,A_F_01.jpg,C_M_02.jpg,left,944,false,high,NA,NA,NA,NA,NA,NA,NA,false
w1YJtnuN,32204agabep2jqz0kncwzihmy16hgu,36ahbnmv1vpngldsjzke4h5j0euydn,w1YJtnuN,2020-0188,2020-06-16,21:59:01,22:22:20,NA,incomplete,143,gender,3,1,right,C_M_01.jpg,C_F_11.jpg,A_M_15.jpg,right,853,true,high,NA,NA,NA,NA,NA,NA,NA,false
w1YJtnuN,32204agabep2jqz0kncwzihmy16hgu,36ahbnmv1vpngldsjzke4h5j0euydn,w1YJtnuN,2020-0188,2020-06-16,21:59:01,22:22:20,NA,incomplete,144,gender,3,1,left,A_F_02.jpg,C_F_03.jpg,A_M_16.jpg,left,732,true,high,NA,NA,NA,NA,NA,NA,NA,false
w1YJtnuN,32204agabep2jqz0kncwzihmy16hgu,36ahbnmv1vpngldsjzke4h5j0euydn,w1YJtnuN,2020-0188,2020-06-16,21:59:01,22:22:20,NA,incomplete,145,gender,3,0,left,A_M_07.jpg,C_M_02.jpg,A_F_05.jpg,left,830,true,high,NA,NA,NA,NA,NA,NA,NA,false
w1YJtnuN,32204agabep2jqz0kncwzihmy16hgu,36ahbnmv1vpngldsjzke4h5j0euydn,w1YJtnuN,2020-0188,2020-06-16,21:59:01,22:22:20,NA,incomplete,146,gender,3,1,left,A_M_08.jpg,C_M_09.jpg,A_F_16.jpg,left,787,true,high,NA,NA,NA,NA,NA,NA,NA,false
w1YJtnuN,32204agabep2jqz0kncwzihmy16hgu,36ahbnmv1vpngldsjzke4h5j0euydn,w1YJtnuN,2020-0188,2020-06-16,21:59:01,22:22:20,NA,incomplete,147,gender,3,1,right,A_F_02.jpg,A_M_10.jpg,C_F_14.jpg,right,617,true,high,NA,NA,NA,NA,NA,NA,NA,false
w1YJtnuN,32204agabep2jqz0kncwzihmy16hgu,36ahbnmv1vpngldsjzke4h5j0euydn,w1YJtnuN,2020-0188,2020-06-16,21:59:01,22:22:20,NA,incomplete,148,gender,3,1,left,C_F_10.jpg,A_F_14.jpg,C_M_11.jpg,left,545,true,high,NA,NA,NA,NA,NA,NA,NA,false
w1YJtnuN,32204agabep2jqz0kncwzihmy16hgu,36ahbnmv1vpngldsjzke4h5j0euydn,w1YJtnuN,2020-0188,2020-06-16,21:59:01,22:22:20,NA,incomplete,149,gender,3,1,right,C_M_03.jpg,C_F_06.jpg,A_M_14.jpg,right,537,true,high,NA,NA,NA,NA,NA,NA,NA,false
w1YJtnuN,32204agabep2jqz0kncwzihmy16hgu,36ahbnmv1vpngldsjzke4h5j0euydn,w1YJtnuN,2020-0188,2020-06-16,21:59:01,22:22:20,NA,incomplete,150,gender,3,0,left,C_F_10.jpg,A_F_11.jpg,C_M_06.jpg,left,618,true,high,NA,NA,NA,NA,NA,NA,NA,false
w1YJtnuN,32204agabep2jqz0kncwzihmy16hgu,36ahbnmv1vpngldsjzke4h5j0euydn,w1YJtnuN,2020-0188,2020-06-16,21:59:01,22:22:20,NA,incomplete,151,gender,3,1,right,A_F_13.jpg,A_M_14.jpg,C_F_07.jpg,right,737,true,high,NA,NA,NA,NA,NA,NA,NA,false
w1YJtnuN,32204agabep2jqz0kncwzihmy16hgu,36ahbnmv1vpngldsjzke4h5j0euydn,w1YJtnuN,2020-0188,2020-06-16,21:59:01,22:22:20,NA,incomplete,152,gender,3,1,left,C_M_05.jpg,A_M_16.jpg,C_F_04.jpg,left,643,true,high,NA,NA,NA,NA,NA,NA,NA,false
w1YJtnuN,32204agabep2jqz0kncwzihmy16hgu,36ahbnmv1vpngldsjzke4h5j0euydn,w1YJtnuN,2020-0188,2020-06-16,21:59:01,22:22:20,NA,incomplete,153,gender,3,1,left,A_M_11.jpg,C_M_06.jpg,A_F_04.jpg,left,575,true,high,NA,NA,NA,NA,NA,NA,NA,false
w1YJtnuN,32204agabep2jqz0kncwzihmy16hgu,36ahbnmv1vpngldsjzke4h5j0euydn,w1YJtnuN,2020-0188,2020-06-16,21:59:01,22:22:20,NA,incomplete,154,gender,3,1,left,A_F_11.jpg,C_F_10.jpg,A_M_06.jpg,left,645,true,high,NA,NA,NA,NA,NA,NA,NA,false
w1YJtnuN,32204agabep2jqz0kncwzihmy16hgu,36ahbnmv1vpngldsjzke4h5j0euydn,w1YJtnuN,2020-0188,2020-06-16,21:59:01,22:22:20,NA,incomplete,155,gender,3,1,left,A_F_11.jpg,C_F_15.jpg,A_M_05.jpg,left,641,true,high,NA,NA,NA,NA,NA,NA,NA,false
w1YJtnuN,32204agabep2jqz0kncwzihmy16hgu,36ahbnmv1vpngldsjzke4h5j0euydn,w1YJtnuN,2020-0188,2020-06-16,21:59:01,22:22:20,NA,incomplete,156,gender,3,1,left,A_M_05.jpg,C_M_09.jpg,A_F_14.jpg,left,655,true,high,NA,NA,NA,NA,NA,NA,NA,false
w1YJtnuN,32204agabep2jqz0kncwzihmy16hgu,36ahbnmv1vpngldsjzke4h5j0euydn,w1YJtnuN,2020-0188,2020-06-16,21:59:01,22:22:20,NA,incomplete,157,gender,3,1,right,A_M_13.jpg,A_F_14.jpg,C_M_01.jpg,left,756,false,high,NA,NA,NA,NA,NA,NA,NA,false
w1YJtnuN,32204agabep2jqz0kncwzihmy16hgu,36ahbnmv1vpngldsjzke4h5j0euydn,w1YJtnuN,2020-0188,2020-06-16,21:59:01,22:22:20,NA,incomplete,158,gender,3,1,right,A_F_10.jpg,A_M_02.jpg,C_F_15.jpg,right,651,true,high,NA,NA,NA,NA,NA,NA,NA,false
w1YJtnuN,32204agabep2jqz0kncwzihmy16hgu,36ahbnmv1vpngldsjzke4h5j0euydn,w1YJtnuN,2020-0188,2020-06-16,21:59:01,22:22:20,NA,incomplete,159,gender,3,0,right,C_M_13.jpg,C_F_16.jpg,A_M_04.jpg,right,698,true,high,NA,NA,NA,NA,NA,NA,NA,false
w1YJtnuN,32204agabep2jqz0kncwzihmy16hgu,36ahbnmv1vpngldsjzke4h5j0euydn,w1YJtnuN,2020-0188,2020-06-16,21:59:01,22:22:20,NA,incomplete,160,race,2,1,left,C_F_15.jpg,C_M_07.jpg,A_F_02.jpg,right,622,false,high,NA,NA,NA,NA,NA,NA,NA,false
w1YJtnuN,32204agabep2jqz0kncwzihmy16hgu,36ahbnmv1vpngldsjzke4h5j0euydn,w1YJtnuN,2020-0188,2020-06-16,21:59:01,22:22:20,NA,incomplete,161,race,2,1,right,A_M_07.jpg,C_M_15.jpg,A_F_13.jpg,right,648,true,high,NA,NA,NA,NA,NA,NA,NA,false
w1YJtnuN,32204agabep2jqz0kncwzihmy16hgu,36ahbnmv1vpngldsjzke4h5j0euydn,w1YJtnuN,2020-0188,2020-06-16,21:59:01,22:22:20,NA,incomplete,162,race,2,1,right,C_M_09.jpg,A_M_13.jpg,C_F_14.jpg,right,1163,true,high,NA,NA,NA,NA,NA,NA,NA,false
w1YJtnuN,32204agabep2jqz0kncwzihmy16hgu,36ahbnmv1vpngldsjzke4h5j0euydn,w1YJtnuN,2020-0188,2020-06-16,21:59:01,22:22:20,NA,incomplete,163,race,2,1,right,C_M_09.jpg,A_M_02.jpg,C_F_05.jpg,right,865,true,high,NA,NA,NA,NA,NA,NA,NA,false
w1YJtnuN,32204agabep2jqz0kncwzihmy16hgu,36ahbnmv1vpngldsjzke4h5j0euydn,w1YJtnuN,2020-0188,2020-06-16,21:59:01,22:22:20,NA,incomplete,164,race,2,1,right,C_F_12.jpg,A_F_16.jpg,C_M_06.jpg,right,783,true,high,NA,NA,NA,NA,NA,NA,NA,false
w1YJtnuN,32204agabep2jqz0kncwzihmy16hgu,36ahbnmv1vpngldsjzke4h5j0euydn,w1YJtnuN,2020-0188,2020-06-16,21:59:01,22:22:20,NA,incomplete,165,race,2,1,right,C_M_13.jpg,A_M_09.jpg,C_F_08.jpg,right,720,true,high,NA,NA,NA,NA,NA,NA,NA,false
w1YJtnuN,32204agabep2jqz0kncwzihmy16hgu,36ahbnmv1vpngldsjzke4h5j0euydn,w1YJtnuN,2020-0188,2020-06-16,21:59:01,22:22:20,NA,incomplete,166,race,2,1,left,C_F_10.jpg,C_M_03.jpg,A_F_12.jpg,left,951,true,high,NA,NA,NA,NA,NA,NA,NA,false
w1YJtnuN,32204agabep2jqz0kncwzihmy16hgu,36ahbnmv1vpngldsjzke4h5j0euydn,w1YJtnuN,2020-0188,2020-06-16,21:59:01,22:22:20,NA,incomplete,167,race,2,1,left,A_M_11.jpg,A_F_08.jpg,C_M_09.jpg,left,628,true,high,NA,NA,NA,NA,NA,NA,NA,false
w1YJtnuN,32204agabep2jqz0kncwzihmy16hgu,36ahbnmv1vpngldsjzke4h5j0euydn,w1YJtnuN,2020-0188,2020-06-16,21:59:01,22:22:20,NA,incomplete,168,race,2,1,left,C_M_14.jpg,C_F_06.jpg,A_M_10.jpg,left,1164,true,high,NA,NA,NA,NA,NA,NA,NA,false
w1YJtnuN,32204agabep2jqz0kncwzihmy16hgu,36ahbnmv1vpngldsjzke4h5j0euydn,w1YJtnuN,2020-0188,2020-06-16,21:59:01,22:22:20,NA,incomplete,169,race,2,1,right,A_M_14.jpg,C_M_09.jpg,A_F_11.jpg,right,694,true,high,NA,NA,NA,NA,NA,NA,NA,false
w1YJtnuN,32204agabep2jqz0kncwzihmy16hgu,36ahbnmv1vpngldsjzke4h5j0euydn,w1YJtnuN,2020-0188,2020-06-16,21:59:01,22:22:20,NA,incomplete,170,race,2,1,right,C_F_06.jpg,A_F_16.jpg,C_M_03.jpg,left,675,false,high,NA,NA,NA,NA,NA,NA,NA,false
w1YJtnuN,32204agabep2jqz0kncwzihmy16hgu,36ahbnmv1vpngldsjzke4h5j0euydn,w1YJtnuN,2020-0188,2020-06-16,21:59:01,22:22:20,NA,incomplete,171,race,2,1,right,A_F_03.jpg,C_F_12.jpg,A_M_07.jpg,right,1004,true,high,NA,NA,NA,NA,NA,NA,NA,false
w1YJtnuN,32204agabep2jqz0kncwzihmy16hgu,36ahbnmv1vpngldsjzke4h5j0euydn,w1YJtnuN,2020-0188,2020-06-16,21:59:01,22:22:20,NA,incomplete,172,race,2,1,left,C_M_15.jpg,C_F_01.jpg,A_M_06.jpg,left,926,true,high,NA,NA,NA,NA,NA,NA,NA,false
w1YJtnuN,32204agabep2jqz0kncwzihmy16hgu,36ahbnmv1vpngldsjzke4h5j0euydn,w1YJtnuN,2020-0188,2020-06-16,21:59:01,22:22:20,NA,incomplete,173,race,2,1,left,A_F_11.jpg,A_M_04.jpg,C_F_05.jpg,left,721,true,high,NA,NA,NA,NA,NA,NA,NA,false
w1YJtnuN,32204agabep2jqz0kncwzihmy16hgu,36ahbnmv1vpngldsjzke4h5j0euydn,w1YJtnuN,2020-0188,2020-06-16,21:59:01,22:22:20,NA,incomplete,174,race,2,1,right,C_F_10.jpg,A_F_14.jpg,C_M_16.jpg,left,913,false,high,NA,NA,NA,NA,NA,NA,NA,false
w1YJtnuN,32204agabep2jqz0kncwzihmy16hgu,36ahbnmv1vpngldsjzke4h5j0euydn,w1YJtnuN,2020-0188,2020-06-16,21:59:01,22:22:20,NA,incomplete,175,race,2,0,right,C_F_01.jpg,A_F_11.jpg,C_M_07.jpg,right,1144,true,high,NA,NA,NA,NA,NA,NA,NA,false
w1YJtnuN,32204agabep2jqz0kncwzihmy16hgu,36ahbnmv1vpngldsjzke4h5j0euydn,w1YJtnuN,2020-0188,2020-06-16,21:59:01,22:22:20,NA,incomplete,176,race,2,1,left,C_F_10.jpg,C_M_04.jpg,A_F_03.jpg,left,1417,true,high,NA,NA,NA,NA,NA,NA,NA,false
w1YJtnuN,32204agabep2jqz0kncwzihmy16hgu,36ahbnmv1vpngldsjzke4h5j0euydn,w1YJtnuN,2020-0188,2020-06-16,21:59:01,22:22:20,NA,incomplete,177,race,2,1,right,C_F_08.jpg,A_F_01.jpg,C_M_07.jpg,right,874,true,high,NA,NA,NA,NA,NA,NA,NA,false
w1YJtnuN,32204agabep2jqz0kncwzihmy16hgu,36ahbnmv1vpngldsjzke4h5j0euydn,w1YJtnuN,2020-0188,2020-06-16,21:59:01,22:22:20,NA,incomplete,178,race,2,1,right,C_M_11.jpg,A_M_15.jpg,C_F_12.jpg,left,889,false,high,NA,NA,NA,NA,NA,NA,NA,false
w1YJtnuN,32204agabep2jqz0kncwzihmy16hgu,36ahbnmv1vpngldsjzke4h5j0euydn,w1YJtnuN,2020-0188,2020-06-16,21:59:01,22:22:20,NA,incomplete,179,race,2,1,left,C_M_07.jpg,C_F_13.jpg,A_M_01.jpg,left,1054,true,high,NA,NA,NA,NA,NA,NA,NA,false
w1YJtnuN,32204agabep2jqz0kncwzihmy16hgu,36ahbnmv1vpngldsjzke4h5j0euydn,w1YJtnuN,2020-0188,2020-06-16,21:59:01,22:22:20,NA,incomplete,180,gender,3,1,left,C_M_06.jpg,A_M_15.jpg,C_F_16.jpg,right,782,false,high,NA,NA,NA,NA,NA,NA,NA,false
w1YJtnuN,32204agabep2jqz0kncwzihmy16hgu,36ahbnmv1vpngldsjzke4h5j0euydn,w1YJtnuN,2020-0188,2020-06-16,21:59:01,22:22:20,NA,incomplete,181,gender,3,1,right,C_M_11.jpg,C_F_03.jpg,A_M_02.jpg,left,784,false,high,NA,NA,NA,NA,NA,NA,NA,false
w1YJtnuN,32204agabep2jqz0kncwzihmy16hgu,36ahbnmv1vpngldsjzke4h5j0euydn,w1YJtnuN,2020-0188,2020-06-16,21:59:01,22:22:20,NA,incomplete,182,gender,3,0,right,A_F_16.jpg,A_M_04.jpg,C_F_01.jpg,left,985,false,high,NA,NA,NA,NA,NA,NA,NA,false
w1YJtnuN,32204agabep2jqz0kncwzihmy16hgu,36ahbnmv1vpngldsjzke4h5j0euydn,w1YJtnuN,2020-0188,2020-06-16,21:59:01,22:22:20,NA,incomplete,183,gender,3,1,left,C_F_03.jpg,A_F_14.jpg,C_M_07.jpg,right,982,false,high,NA,NA,NA,NA,NA,NA,NA,false
w1YJtnuN,32204agabep2jqz0kncwzihmy16hgu,36ahbnmv1vpngldsjzke4h5j0euydn,w1YJtnuN,2020-0188,2020-06-16,21:59:01,22:22:20,NA,incomplete,184,gender,3,1,left,C_M_02.jpg,A_M_10.jpg,C_F_13.jpg,right,1305,false,high,NA,NA,NA,NA,NA,NA,NA,false
w1YJtnuN,32204agabep2jqz0kncwzihmy16hgu,36ahbnmv1vpngldsjzke4h5j0euydn,w1YJtnuN,2020-0188,2020-06-16,21:59:01,22:22:20,NA,incomplete,185,gender,3,1,right,A_M_16.jpg,A_F_10.jpg,C_M_08.jpg,right,1167,true,high,NA,NA,NA,NA,NA,NA,NA,false
w1YJtnuN,32204agabep2jqz0kncwzihmy16hgu,36ahbnmv1vpngldsjzke4h5j0euydn,w1YJtnuN,2020-0188,2020-06-16,21:59:01,22:22:20,NA,incomplete,186,gender,3,1,left,C_M_06.jpg,A_M_02.jpg,C_F_12.jpg,right,765,false,high,NA,NA,NA,NA,NA,NA,NA,false
w1YJtnuN,32204agabep2jqz0kncwzihmy16hgu,36ahbnmv1vpngldsjzke4h5j0euydn,w1YJtnuN,2020-0188,2020-06-16,21:59:01,22:22:20,NA,incomplete,187,gender,3,1,right,C_M_06.jpg,C_F_01.jpg,A_M_02.jpg,right,861,true,high,NA,NA,NA,NA,NA,NA,NA,false
w1YJtnuN,32204agabep2jqz0kncwzihmy16hgu,36ahbnmv1vpngldsjzke4h5j0euydn,w1YJtnuN,2020-0188,2020-06-16,21:59:01,22:22:20,NA,incomplete,188,gender,3,1,right,A_F_08.jpg,A_M_12.jpg,C_F_04.jpg,right,842,true,high,NA,NA,NA,NA,NA,NA,NA,false
w1YJtnuN,32204agabep2jqz0kncwzihmy16hgu,36ahbnmv1vpngldsjzke4h5j0euydn,w1YJtnuN,2020-0188,2020-06-16,21:59:01,22:22:20,NA,incomplete,189,gender,3,0,right,C_F_09.jpg,C_M_06.jpg,A_F_01.jpg,right,848,true,high,NA,NA,NA,NA,NA,NA,NA,false
w1YJtnuN,32204agabep2jqz0kncwzihmy16hgu,36ahbnmv1vpngldsjzke4h5j0euydn,w1YJtnuN,2020-0188,2020-06-16,21:59:01,22:22:20,NA,incomplete,190,gender,3,1,left,C_M_15.jpg,A_M_06.jpg,C_F_08.jpg,left,841,true,high,NA,NA,NA,NA,NA,NA,NA,false
w1YJtnuN,32204agabep2jqz0kncwzihmy16hgu,36ahbnmv1vpngldsjzke4h5j0euydn,w1YJtnuN,2020-0188,2020-06-16,21:59:01,22:22:20,NA,incomplete,191,gender,3,1,left,A_M_16.jpg,C_M_06.jpg,A_F_09.jpg,left,773,true,high,NA,NA,NA,NA,NA,NA,NA,false
w1YJtnuN,32204agabep2jqz0kncwzihmy16hgu,36ahbnmv1vpngldsjzke4h5j0euydn,w1YJtnuN,2020-0188,2020-06-16,21:59:01,22:22:20,NA,incomplete,192,gender,3,1,right,A_M_10.jpg,A_F_03.jpg,C_M_14.jpg,right,1239,true,high,NA,NA,NA,NA,NA,NA,NA,false
w1YJtnuN,32204agabep2jqz0kncwzihmy16hgu,36ahbnmv1vpngldsjzke4h5j0euydn,w1YJtnuN,2020-0188,2020-06-16,21:59:01,22:22:20,NA,incomplete,193,gender,3,0,right,A_M_10.jpg,A_F_12.jpg,C_M_11.jpg,right,656,true,high,NA,NA,NA,NA,NA,NA,NA,false
w1YJtnuN,32204agabep2jqz0kncwzihmy16hgu,36ahbnmv1vpngldsjzke4h5j0euydn,w1YJtnuN,2020-0188,2020-06-16,21:59:01,22:22:20,NA,incomplete,194,gender,3,1,right,C_F_08.jpg,C_M_05.jpg,A_F_07.jpg,right,1075,true,high,NA,NA,NA,NA,NA,NA,NA,false
w1YJtnuN,32204agabep2jqz0kncwzihmy16hgu,36ahbnmv1vpngldsjzke4h5j0euydn,w1YJtnuN,2020-0188,2020-06-16,21:59:01,22:22:20,NA,incomplete,195,gender,3,1,left,C_F_14.jpg,A_F_16.jpg,C_M_08.jpg,left,616,true,high,NA,NA,NA,NA,NA,NA,NA,false
w1YJtnuN,32204agabep2jqz0kncwzihmy16hgu,36ahbnmv1vpngldsjzke4h5j0euydn,w1YJtnuN,2020-0188,2020-06-16,21:59:01,22:22:20,NA,incomplete,196,gender,3,1,right,A_M_05.jpg,A_F_02.jpg,C_M_12.jpg,right,751,true,high,NA,NA,NA,NA,NA,NA,NA,false
w1YJtnuN,32204agabep2jqz0kncwzihmy16hgu,36ahbnmv1vpngldsjzke4h5j0euydn,w1YJtnuN,2020-0188,2020-06-16,21:59:01,22:22:20,NA,incomplete,197,gender,3,1,left,A_M_16.jpg,C_M_15.jpg,A_F_01.jpg,left,750,true,high,NA,NA,NA,NA,NA,NA,NA,false
w1YJtnuN,32204agabep2jqz0kncwzihmy16hgu,36ahbnmv1vpngldsjzke4h5j0euydn,w1YJtnuN,2020-0188,2020-06-16,21:59:01,22:22:20,NA,incomplete,198,gender,3,0,right,C_M_09.jpg,C_F_03.jpg,A_M_08.jpg,right,654,true,high,NA,NA,NA,NA,NA,NA,NA,false
w1YJtnuN,32204agabep2jqz0kncwzihmy16hgu,36ahbnmv1vpngldsjzke4h5j0euydn,w1YJtnuN,2020-0188,2020-06-16,21:59:01,22:22:20,NA,incomplete,199,gender,3,1,left,C_M_07.jpg,A_M_12.jpg,C_F_02.jpg,left,573,true,high,NA,NA,NA,NA,NA,NA,NA,false
w1YJtnuN,32204agabep2jqz0kncwzihmy16hgu,36ahbnmv1vpngldsjzke4h5j0euydn,w1YJtnuN,2020-0188,2020-06-16,21:59:01,22:22:20,NA,incomplete,200,race,2,1,right,A_F_15.jpg,C_F_14.jpg,A_M_01.jpg,left,558,false,high,NA,NA,NA,NA,NA,NA,NA,false
w1YJtnuN,32204agabep2jqz0kncwzihmy16hgu,36ahbnmv1vpngldsjzke4h5j0euydn,w1YJtnuN,2020-0188,2020-06-16,21:59:01,22:22:20,NA,incomplete,201,race,2,1,left,A_M_14.jpg,A_F_07.jpg,C_M_02.jpg,right,628,false,high,NA,NA,NA,NA,NA,NA,NA,false
w1YJtnuN,32204agabep2jqz0kncwzihmy16hgu,36ahbnmv1vpngldsjzke4h5j0euydn,w1YJtnuN,2020-0188,2020-06-16,21:59:01,22:22:20,NA,incomplete,202,race,2,1,left,C_F_06.jpg,C_M_16.jpg,A_F_14.jpg,right,1054,false,high,NA,NA,NA,NA,NA,NA,NA,false
w1YJtnuN,32204agabep2jqz0kncwzihmy16hgu,36ahbnmv1vpngldsjzke4h5j0euydn,w1YJtnuN,2020-0188,2020-06-16,21:59:01,22:22:20,NA,incomplete,203,race,2,0,right,A_F_02.jpg,C_F_07.jpg,A_M_06.jpg,right,968,true,high,NA,NA,NA,NA,NA,NA,NA,false
w1YJtnuN,32204agabep2jqz0kncwzihmy16hgu,36ahbnmv1vpngldsjzke4h5j0euydn,w1YJtnuN,2020-0188,2020-06-16,21:59:01,22:22:20,NA,incomplete,204,race,2,1,right,A_F_15.jpg,C_F_10.jpg,A_M_12.jpg,right,937,true,high,NA,NA,NA,NA,NA,NA,NA,false
w1YJtnuN,32204agabep2jqz0kncwzihmy16hgu,36ahbnmv1vpngldsjzke4h5j0euydn,w1YJtnuN,2020-0188,2020-06-16,21:59:01,22:22:20,NA,incomplete,205,race,2,0,left,A_F_12.jpg,A_M_16.jpg,C_F_02.jpg,left,946,true,high,NA,NA,NA,NA,NA,NA,NA,false
w1YJtnuN,32204agabep2jqz0kncwzihmy16hgu,36ahbnmv1vpngldsjzke4h5j0euydn,w1YJtnuN,2020-0188,2020-06-16,21:59:01,22:22:20,NA,incomplete,206,race,2,1,left,A_F_16.jpg,A_M_13.jpg,C_F_09.jpg,left,942,true,high,NA,NA,NA,NA,NA,NA,NA,false
w1YJtnuN,32204agabep2jqz0kncwzihmy16hgu,36ahbnmv1vpngldsjzke4h5j0euydn,w1YJtnuN,2020-0188,2020-06-16,21:59:01,22:22:20,NA,incomplete,207,race,2,0,right,A_F_07.jpg,C_F_04.jpg,A_M_09.jpg,right,681,true,high,NA,NA,NA,NA,NA,NA,NA,false
w1YJtnuN,32204agabep2jqz0kncwzihmy16hgu,36ahbnmv1vpngldsjzke4h5j0euydn,w1YJtnuN,2020-0188,2020-06-16,21:59:01,22:22:20,NA,incomplete,208,race,2,1,right,C_M_10.jpg,A_M_09.jpg,C_F_02.jpg,right,692,true,high,NA,NA,NA,NA,NA,NA,NA,false
w1YJtnuN,32204agabep2jqz0kncwzihmy16hgu,36ahbnmv1vpngldsjzke4h5j0euydn,w1YJtnuN,2020-0188,2020-06-16,21:59:01,22:22:20,NA,incomplete,209,race,2,1,right,A_F_11.jpg,C_F_12.jpg,A_M_09.jpg,right,715,true,high,NA,NA,NA,NA,NA,NA,NA,false
w1YJtnuN,32204agabep2jqz0kncwzihmy16hgu,36ahbnmv1vpngldsjzke4h5j0euydn,w1YJtnuN,2020-0188,2020-06-16,21:59:01,22:22:20,NA,incomplete,210,race,2,0,left,C_M_02.jpg,C_F_08.jpg,A_M_14.jpg,left,767,true,high,NA,NA,NA,NA,NA,NA,NA,false
w1YJtnuN,32204agabep2jqz0kncwzihmy16hgu,36ahbnmv1vpngldsjzke4h5j0euydn,w1YJtnuN,2020-0188,2020-06-16,21:59:01,22:22:20,NA,incomplete,211,race,2,1,right,C_M_05.jpg,A_M_04.jpg,C_F_06.jpg,right,705,true,high,NA,NA,NA,NA,NA,NA,NA,false
w1YJtnuN,32204agabep2jqz0kncwzihmy16hgu,36ahbnmv1vpngldsjzke4h5j0euydn,w1YJtnuN,2020-0188,2020-06-16,21:59:01,22:22:20,NA,incomplete,212,race,2,1,right,A_F_15.jpg,C_F_08.jpg,A_M_16.jpg,right,1031,true,high,NA,NA,NA,NA,NA,NA,NA,false
w1YJtnuN,32204agabep2jqz0kncwzihmy16hgu,36ahbnmv1vpngldsjzke4h5j0euydn,w1YJtnuN,2020-0188,2020-06-16,21:59:01,22:22:20,NA,incomplete,213,race,2,0,right,A_M_02.jpg,C_M_04.jpg,A_F_16.jpg,right,901,true,high,NA,NA,NA,NA,NA,NA,NA,false
w1YJtnuN,32204agabep2jqz0kncwzihmy16hgu,36ahbnmv1vpngldsjzke4h5j0euydn,w1YJtnuN,2020-0188,2020-06-16,21:59:01,22:22:20,NA,incomplete,214,race,2,1,right,A_F_09.jpg,C_F_11.jpg,A_M_05.jpg,right,1036,true,high,NA,NA,NA,NA,NA,NA,NA,false
w1YJtnuN,32204agabep2jqz0kncwzihmy16hgu,36ahbnmv1vpngldsjzke4h5j0euydn,w1YJtnuN,2020-0188,2020-06-16,21:59:01,22:22:20,NA,incomplete,215,race,2,1,right,A_M_12.jpg,C_M_10.jpg,A_F_05.jpg,right,1069,true,high,NA,NA,NA,NA,NA,NA,NA,false
w1YJtnuN,32204agabep2jqz0kncwzihmy16hgu,36ahbnmv1vpngldsjzke4h5j0euydn,w1YJtnuN,2020-0188,2020-06-16,21:59:01,22:22:20,NA,incomplete,216,race,2,1,right,A_M_03.jpg,C_M_15.jpg,A_F_06.jpg,right,551,true,high,NA,NA,NA,NA,NA,NA,NA,false
w1YJtnuN,32204agabep2jqz0kncwzihmy16hgu,36ahbnmv1vpngldsjzke4h5j0euydn,w1YJtnuN,2020-0188,2020-06-16,21:59:01,22:22:20,NA,incomplete,217,race,2,1,right,C_F_14.jpg,A_F_11.jpg,C_M_01.jpg,right,782,true,high,NA,NA,NA,NA,NA,NA,NA,false
w1YJtnuN,32204agabep2jqz0kncwzihmy16hgu,36ahbnmv1vpngldsjzke4h5j0euydn,w1YJtnuN,2020-0188,2020-06-16,21:59:01,22:22:20,NA,incomplete,218,race,2,1,left,C_F_03.jpg,C_M_02.jpg,A_F_08.jpg,left,725,true,high,NA,NA,NA,NA,NA,NA,NA,false
w1YJtnuN,32204agabep2jqz0kncwzihmy16hgu,36ahbnmv1vpngldsjzke4h5j0euydn,w1YJtnuN,2020-0188,2020-06-16,21:59:01,22:22:20,NA,incomplete,219,race,2,0,right,C_M_03.jpg,A_M_05.jpg,C_F_13.jpg,right,903,true,high,NA,NA,NA,NA,NA,NA,NA,false
w1YJtnuN,32204agabep2jqz0kncwzihmy16hgu,36ahbnmv1vpngldsjzke4h5j0euydn,w1YJtnuN,2020-0188,2020-06-16,21:59:01,22:22:20,NA,incomplete,220,gender,3,1,left,C_F_14.jpg,A_F_05.jpg,C_M_04.jpg,left,828,true,high,NA,NA,NA,NA,NA,NA,NA,false
w1YJtnuN,32204agabep2jqz0kncwzihmy16hgu,36ahbnmv1vpngldsjzke4h5j0euydn,w1YJtnuN,2020-0188,2020-06-16,21:59:01,22:22:20,NA,incomplete,221,gender,3,1,right,A_F_13.jpg,A_M_07.jpg,C_F_05.jpg,right,788,true,high,NA,NA,NA,NA,NA,NA,NA,false
w1YJtnuN,32204agabep2jqz0kncwzihmy16hgu,36ahbnmv1vpngldsjzke4h5j0euydn,w1YJtnuN,2020-0188,2020-06-16,21:59:01,22:22:20,NA,incomplete,222,gender,3,1,left,A_F_08.jpg,C_F_02.jpg,A_M_01.jpg,left,534,true,high,NA,NA,NA,NA,NA,NA,NA,false
w1YJtnuN,32204agabep2jqz0kncwzihmy16hgu,36ahbnmv1vpngldsjzke4h5j0euydn,w1YJtnuN,2020-0188,2020-06-16,21:59:01,22:22:20,NA,incomplete,223,gender,3,0,left,A_F_03.jpg,C_F_02.jpg,A_M_10.jpg,left,588,true,high,NA,NA,NA,NA,NA,NA,NA,false
w1YJtnuN,32204agabep2jqz0kncwzihmy16hgu,36ahbnmv1vpngldsjzke4h5j0euydn,w1YJtnuN,2020-0188,2020-06-16,21:59:01,22:22:20,NA,incomplete,224,gender,3,1,right,A_M_16.jpg,A_F_07.jpg,C_M_13.jpg,right,652,true,high,NA,NA,NA,NA,NA,NA,NA,false
w1YJtnuN,32204agabep2jqz0kncwzihmy16hgu,36ahbnmv1vpngldsjzke4h5j0euydn,w1YJtnuN,2020-0188,2020-06-16,21:59:01,22:22:20,NA,incomplete,225,gender,3,1,right,A_F_04.jpg,A_M_01.jpg,C_F_03.jpg,right,567,true,high,NA,NA,NA,NA,NA,NA,NA,false
w1YJtnuN,32204agabep2jqz0kncwzihmy16hgu,36ahbnmv1vpngldsjzke4h5j0euydn,w1YJtnuN,2020-0188,2020-06-16,21:59:01,22:22:20,NA,incomplete,226,gender,3,1,right,C_M_16.jpg,C_F_14.jpg,A_M_01.jpg,right,551,true,high,NA,NA,NA,NA,NA,NA,NA,false
w1YJtnuN,32204agabep2jqz0kncwzihmy16hgu,36ahbnmv1vpngldsjzke4h5j0euydn,w1YJtnuN,2020-0188,2020-06-16,21:59:01,22:22:20,NA,incomplete,227,gender,3,1,right,C_M_11.jpg,C_F_06.jpg,A_M_07.jpg,right,581,true,high,NA,NA,NA,NA,NA,NA,NA,false
w1YJtnuN,32204agabep2jqz0kncwzihmy16hgu,36ahbnmv1vpngldsjzke4h5j0euydn,w1YJtnuN,2020-0188,2020-06-16,21:59:01,22:22:20,NA,incomplete,228,gender,3,1,right,A_M_04.jpg,A_F_07.jpg,C_M_09.jpg,left,509,false,high,NA,NA,NA,NA,NA,NA,NA,false
w1YJtnuN,32204agabep2jqz0kncwzihmy16hgu,36ahbnmv1vpngldsjzke4h5j0euydn,w1YJtnuN,2020-0188,2020-06-16,21:59:01,22:22:20,NA,incomplete,229,gender,3,0,left,C_M_13.jpg,A_M_16.jpg,C_F_12.jpg,left,688,true,high,NA,NA,NA,NA,NA,NA,NA,false
w1YJtnuN,32204agabep2jqz0kncwzihmy16hgu,36ahbnmv1vpngldsjzke4h5j0euydn,w1YJtnuN,2020-0188,2020-06-16,21:59:01,22:22:20,NA,incomplete,230,gender,3,1,left,C_F_11.jpg,A_F_04.jpg,C_M_09.jpg,right,1236,false,high,NA,NA,NA,NA,NA,NA,NA,false
w1YJtnuN,32204agabep2jqz0kncwzihmy16hgu,36ahbnmv1vpngldsjzke4h5j0euydn,w1YJtnuN,2020-0188,2020-06-16,21:59:01,22:22:20,NA,incomplete,231,gender,3,1,left,A_M_13.jpg,C_M_12.jpg,A_F_03.jpg,left,1035,true,high,NA,NA,NA,NA,NA,NA,NA,false
w1YJtnuN,32204agabep2jqz0kncwzihmy16hgu,36ahbnmv1vpngldsjzke4h5j0euydn,w1YJtnuN,2020-0188,2020-06-16,21:59:01,22:22:20,NA,incomplete,232,gender,3,1,left,C_M_06.jpg,A_M_11.jpg,C_F_09.jpg,left,709,true,high,NA,NA,NA,NA,NA,NA,NA,false
w1YJtnuN,32204agabep2jqz0kncwzihmy16hgu,36ahbnmv1vpngldsjzke4h5j0euydn,w1YJtnuN,2020-0188,2020-06-16,21:59:01,22:22:20,NA,incomplete,233,gender,3,0,left,A_M_13.jpg,C_M_11.jpg,A_F_07.jpg,left,617,true,high,NA,NA,NA,NA,NA,NA,NA,false
w1YJtnuN,32204agabep2jqz0kncwzihmy16hgu,36ahbnmv1vpngldsjzke4h5j0euydn,w1YJtnuN,2020-0188,2020-06-16,21:59:01,22:22:20,NA,incomplete,234,gender,3,1,left,A_M_12.jpg,C_M_09.jpg,A_F_11.jpg,left,779,true,high,NA,NA,NA,NA,NA,NA,NA,false
w1YJtnuN,32204agabep2jqz0kncwzihmy16hgu,36ahbnmv1vpngldsjzke4h5j0euydn,w1YJtnuN,2020-0188,2020-06-16,21:59:01,22:22:20,NA,incomplete,235,gender,3,1,left,A_F_14.jpg,C_F_04.jpg,A_M_03.jpg,left,681,true,high,NA,NA,NA,NA,NA,NA,NA,false
w1YJtnuN,32204agabep2jqz0kncwzihmy16hgu,36ahbnmv1vpngldsjzke4h5j0euydn,w1YJtnuN,2020-0188,2020-06-16,21:59:01,22:22:20,NA,incomplete,236,gender,3,1,right,C_F_09.jpg,C_M_12.jpg,A_F_01.jpg,right,721,true,high,NA,NA,NA,NA,NA,NA,NA,false
w1YJtnuN,32204agabep2jqz0kncwzihmy16hgu,36ahbnmv1vpngldsjzke4h5j0euydn,w1YJtnuN,2020-0188,2020-06-16,21:59:01,22:22:20,NA,incomplete,237,gender,3,1,left,C_F_01.jpg,A_F_08.jpg,C_M_06.jpg,left,586,true,high,NA,NA,NA,NA,NA,NA,NA,false
w1YJtnuN,32204agabep2jqz0kncwzihmy16hgu,36ahbnmv1vpngldsjzke4h5j0euydn,w1YJtnuN,2020-0188,2020-06-16,21:59:01,22:22:20,NA,incomplete,238,gender,3,0,right,A_M_09.jpg,A_F_03.jpg,C_M_14.jpg,left,1272,false,high,NA,NA,NA,NA,NA,NA,NA,false
w1YJtnuN,32204agabep2jqz0kncwzihmy16hgu,36ahbnmv1vpngldsjzke4h5j0euydn,w1YJtnuN,2020-0188,2020-06-16,21:59:01,22:22:20,NA,incomplete,239,gender,3,1,left,A_F_15.jpg,C_F_05.jpg,A_M_07.jpg,right,907,false,high,NA,NA,NA,NA,NA,NA,NA,false
w1YJtnuN,32204agabep2jqz0kncwzihmy16hgu,36ahbnmv1vpngldsjzke4h5j0euydn,w1YJtnuN,2020-0188,2020-06-16,21:59:01,22:22:20,NA,NA,instruction example,number,NA,NA,NA,Purple_Star_Chess_2.jpg,Blue_Plus_Dots_2.jpg,Green_Star_Stripes_3.jpg,NA,NA,NA,NA,NA,NA,NA,NA,NA,NA,NA,undefined
w1YJtnuN,32204agabep2jqz0kncwzihmy16hgu,36ahbnmv1vpngldsjzke4h5j0euydn,w1YJtnuN,2020-0188,2020-06-16,21:59:01,22:22:20,NA,NA,instruction example,number,NA,NA,NA,Green_Star_Grid_4.jpg,Blue_Star_Dots_1.jpg,Red_Plus_Chess_4.jpg,NA,NA,NA,NA,NA,NA,NA,NA,NA,NA,NA,undefined
w1YJtnuN,32204agabep2jqz0kncwzihmy16hgu,36ahbnmv1vpngldsjzke4h5j0euydn,w1YJtnuN,2020-0188,2020-06-16,21:59:01,22:22:20,NA,NA,instruction example,number,NA,NA,NA,C_F_12.jpg,C_M_10.jpg,A_F_13.jpg,NA,NA,NA,NA,NA,NA,NA,NA,NA,NA,NA,undefined
w1YJtnuN,32204agabep2jqz0kncwzihmy16hgu,36ahbnmv1vpngldsjzke4h5j0euydn,w1YJtnuN,2020-0188,2020-06-16,21:59:01,22:22:20,NA,NA,instruction example,number,NA,NA,NA,A_M_10.jpg,C_M_01.jpg,A_F_14.jpg,NA,NA,NA,NA,NA,NA,NA,NA,NA,NA,NA,undefined
w1YJtnuN,32204agabep2jqz0kncwzihmy16hgu,36ahbnmv1vpngldsjzke4h5j0euydn,w1YJtnuN,2020-0188,2020-06-16,21:59:01,22:22:20,1379777,1399718,NA,NA,NA,NA,NA,NA,NA,NA,NA,NA,NA,NA,33,White/Caucasian,Male,Caucasian/white,no,yes,no,undefined
