workerId,hitId,assignmentId,subject,studyid,exp_date,exp_start,exp_end,time_start,time_end,trial,type,sequence,reward_validity,answer,image_top,image_left,image_right,response,response_time,response_acc,volatility,practice
ndQsBZj5,3e9vauv7czrnvucm8noapw1mqoqyaq,36h9ulyp667ujgwpo5e1iutgxv7jf9,ndQsBZj5,2020-0188,2020-06-04,18:58:58,19:28:22,NA,incomplete,0,number,0,1,left,Blue_Triangle_Grid_4.jpg,Red_Star_Dots_4.jpg,Blue_Circle_Stripes_2.jpg,none,0,false,NA,true
ndQsBZj5,3e9vauv7czrnvucm8noapw1mqoqyaq,36h9ulyp667ujgwpo5e1iutgxv7jf9,ndQsBZj5,2020-0188,2020-06-04,18:58:58,19:28:22,NA,incomplete,1,number,0,0,right,Purple_Triangle_Grid_3.jpg,Purple_Plus_Dots_2.jpg,Green_Star_Stripes_3.jpg,right,1511.5399999776855,true,NA,true
ndQsBZj5,3e9vauv7czrnvucm8noapw1mqoqyaq,36h9ulyp667ujgwpo5e1iutgxv7jf9,ndQsBZj5,2020-0188,2020-06-04,18:58:58,19:28:22,NA,incomplete,2,number,0,1,left,Red_Triangle_Dots_2.jpg,Green_Circle_Chess_2.jpg,Red_Plus_Stripes_3.jpg,left,1222.3050000029616,true,NA,true
ndQsBZj5,3e9vauv7czrnvucm8noapw1mqoqyaq,36h9ulyp667ujgwpo5e1iutgxv7jf9,ndQsBZj5,2020-0188,2020-06-04,18:58:58,19:28:22,NA,incomplete,3,number,0,1,right,Green_Triangle_Dots_1.jpg,Green_Plus_Grid_2.jpg,Blue_Star_Stripes_1.jpg,right,1136.9999999878928,true,NA,true
ndQsBZj5,3e9vauv7czrnvucm8noapw1mqoqyaq,36h9ulyp667ujgwpo5e1iutgxv7jf9,ndQsBZj5,2020-0188,2020-06-04,18:58:58,19:28:22,NA,incomplete,4,number,0,1,right,Purple_Plus_Dots_4.jpg,Purple_Triangle_Stripes_1.jpg,Blue_Circle_Grid_4.jpg,right,1142.3700000159442,true,NA,true
ndQsBZj5,3e9vauv7czrnvucm8noapw1mqoqyaq,36h9ulyp667ujgwpo5e1iutgxv7jf9,ndQsBZj5,2020-0188,2020-06-04,18:58:58,19:28:22,NA,incomplete,5,number,0,1,right,Green_Star_Chess_1.jpg,Green_Circle_Grid_4.jpg,Blue_Plus_Dots_1.jpg,right,1089.8299999826122,true,NA,true
ndQsBZj5,3e9vauv7czrnvucm8noapw1mqoqyaq,36h9ulyp667ujgwpo5e1iutgxv7jf9,ndQsBZj5,2020-0188,2020-06-04,18:58:58,19:28:22,NA,incomplete,6,number,0,1,left,Green_Star_Stripes_2.jpg,Purple_Triangle_Chess_2.jpg,Green_Plus_Dots_4.jpg,left,1037.7950000111014,true,NA,true
ndQsBZj5,3e9vauv7czrnvucm8noapw1mqoqyaq,36h9ulyp667ujgwpo5e1iutgxv7jf9,ndQsBZj5,2020-0188,2020-06-04,18:58:58,19:28:22,NA,incomplete,7,number,0,1,right,Green_Plus_Dots_3.jpg,Green_Star_Grid_2.jpg,Red_Circle_Chess_3.jpg,right,912.255000002915,true,NA,true
ndQsBZj5,3e9vauv7czrnvucm8noapw1mqoqyaq,36h9ulyp667ujgwpo5e1iutgxv7jf9,ndQsBZj5,2020-0188,2020-06-04,18:58:58,19:28:22,NA,incomplete,8,number,0,1,left,Purple_Star_Grid_2.jpg,Green_Plus_Dots_2.jpg,Purple_Circle_Chess_4.jpg,left,910.1249999948777,true,NA,true
ndQsBZj5,3e9vauv7czrnvucm8noapw1mqoqyaq,36h9ulyp667ujgwpo5e1iutgxv7jf9,ndQsBZj5,2020-0188,2020-06-04,18:58:58,19:28:22,NA,incomplete,9,number,0,1,left,Blue_Circle_Grid_2.jpg,Red_Triangle_Stripes_2.jpg,Blue_Plus_Dots_4.jpg,left,883.9399999997113,true,NA,true
ndQsBZj5,3e9vauv7czrnvucm8noapw1mqoqyaq,36h9ulyp667ujgwpo5e1iutgxv7jf9,ndQsBZj5,2020-0188,2020-06-04,18:58:58,19:28:22,NA,incomplete,10,number,0,1,right,Green_Star_Grid_1.jpg,Green_Triangle_Chess_2.jpg,Purple_Circle_Stripes_1.jpg,right,883.6299999966286,true,NA,true
ndQsBZj5,3e9vauv7czrnvucm8noapw1mqoqyaq,36h9ulyp667ujgwpo5e1iutgxv7jf9,ndQsBZj5,2020-0188,2020-06-04,18:58:58,19:28:22,NA,incomplete,11,number,0,1,right,Green_Triangle_Grid_1.jpg,Green_Star_Chess_3.jpg,Purple_Plus_Dots_1.jpg,right,844.1649999876972,true,NA,true
ndQsBZj5,3e9vauv7czrnvucm8noapw1mqoqyaq,36h9ulyp667ujgwpo5e1iutgxv7jf9,ndQsBZj5,2020-0188,2020-06-04,18:58:58,19:28:22,NA,incomplete,12,number,0,1,right,Purple_Triangle_Stripes_3.jpg,Purple_Plus_Grid_1.jpg,Green_Star_Dots_3.jpg,right,760.809999977937,true,NA,true
ndQsBZj5,3e9vauv7czrnvucm8noapw1mqoqyaq,36h9ulyp667ujgwpo5e1iutgxv7jf9,ndQsBZj5,2020-0188,2020-06-04,18:58:58,19:28:22,NA,incomplete,13,number,0,1,left,Green_Star_Grid_2.jpg,Purple_Plus_Chess_2.jpg,Green_Circle_Stripes_4.jpg,left,961.2900000065565,true,NA,true
ndQsBZj5,3e9vauv7czrnvucm8noapw1mqoqyaq,36h9ulyp667ujgwpo5e1iutgxv7jf9,ndQsBZj5,2020-0188,2020-06-04,18:58:58,19:28:22,NA,incomplete,14,number,0,1,right,Green_Triangle_Stripes_2.jpg,Green_Plus_Dots_1.jpg,Blue_Circle_Grid_2.jpg,right,1186.264999996638,true,NA,true
ndQsBZj5,3e9vauv7czrnvucm8noapw1mqoqyaq,36h9ulyp667ujgwpo5e1iutgxv7jf9,ndQsBZj5,2020-0188,2020-06-04,18:58:58,19:28:22,NA,incomplete,15,number,0,0,right,Red_Plus_Stripes_3.jpg,Red_Triangle_Dots_4.jpg,Blue_Star_Chess_3.jpg,right,1195.594999997411,true,NA,true
ndQsBZj5,3e9vauv7czrnvucm8noapw1mqoqyaq,36h9ulyp667ujgwpo5e1iutgxv7jf9,ndQsBZj5,2020-0188,2020-06-04,18:58:58,19:28:22,NA,incomplete,16,number,0,0,right,Red_Triangle_Dots_4.jpg,Red_Circle_Chess_1.jpg,Blue_Plus_Stripes_4.jpg,right,1416.7399999860208,true,NA,true
ndQsBZj5,3e9vauv7czrnvucm8noapw1mqoqyaq,36h9ulyp667ujgwpo5e1iutgxv7jf9,ndQsBZj5,2020-0188,2020-06-04,18:58:58,19:28:22,NA,incomplete,17,number,0,0,right,Blue_Star_Dots_3.jpg,Blue_Circle_Chess_1.jpg,Red_Triangle_Stripes_3.jpg,right,1064.8799999908078,true,NA,true
ndQsBZj5,3e9vauv7czrnvucm8noapw1mqoqyaq,36h9ulyp667ujgwpo5e1iutgxv7jf9,ndQsBZj5,2020-0188,2020-06-04,18:58:58,19:28:22,NA,incomplete,18,number,0,1,right,Purple_Circle_Grid_1.jpg,Purple_Plus_Dots_2.jpg,Red_Star_Chess_1.jpg,right,977.1199999959208,true,NA,true
ndQsBZj5,3e9vauv7czrnvucm8noapw1mqoqyaq,36h9ulyp667ujgwpo5e1iutgxv7jf9,ndQsBZj5,2020-0188,2020-06-04,18:58:58,19:28:22,NA,incomplete,19,number,0,1,right,Blue_Star_Dots_3.jpg,Blue_Plus_Stripes_4.jpg,Purple_Triangle_Grid_3.jpg,right,980.5050000140909,true,NA,true
ndQsBZj5,3e9vauv7czrnvucm8noapw1mqoqyaq,36h9ulyp667ujgwpo5e1iutgxv7jf9,ndQsBZj5,2020-0188,2020-06-04,18:58:58,19:28:22,NA,incomplete,20,color,1,1,left,Green_Plus_Dots_1.jpg,Green_Triangle_Grid_2.jpg,Blue_Star_Chess_1.jpg,left,1297.1050000051036,true,NA,true
ndQsBZj5,3e9vauv7czrnvucm8noapw1mqoqyaq,36h9ulyp667ujgwpo5e1iutgxv7jf9,ndQsBZj5,2020-0188,2020-06-04,18:58:58,19:28:22,NA,incomplete,21,color,1,1,left,Blue_Triangle_Stripes_1.jpg,Blue_Circle_Chess_3.jpg,Purple_Star_Grid_1.jpg,left,1040.0150000059512,true,NA,true
ndQsBZj5,3e9vauv7czrnvucm8noapw1mqoqyaq,36h9ulyp667ujgwpo5e1iutgxv7jf9,ndQsBZj5,2020-0188,2020-06-04,18:58:58,19:28:22,NA,incomplete,22,color,1,1,left,Blue_Star_Chess_4.jpg,Blue_Plus_Grid_2.jpg,Purple_Triangle_Dots_4.jpg,left,1281.264999997802,true,NA,true
ndQsBZj5,3e9vauv7czrnvucm8noapw1mqoqyaq,36h9ulyp667ujgwpo5e1iutgxv7jf9,ndQsBZj5,2020-0188,2020-06-04,18:58:58,19:28:22,NA,incomplete,23,color,1,1,left,Red_Star_Grid_1.jpg,Red_Triangle_Stripes_4.jpg,Purple_Plus_Chess_1.jpg,left,898.7899999774527,true,NA,true
ndQsBZj5,3e9vauv7czrnvucm8noapw1mqoqyaq,36h9ulyp667ujgwpo5e1iutgxv7jf9,ndQsBZj5,2020-0188,2020-06-04,18:58:58,19:28:22,NA,incomplete,24,color,1,1,right,Blue_Plus_Chess_4.jpg,Red_Triangle_Dots_4.jpg,Blue_Star_Stripes_1.jpg,right,946.7449999938253,true,NA,true
ndQsBZj5,3e9vauv7czrnvucm8noapw1mqoqyaq,36h9ulyp667ujgwpo5e1iutgxv7jf9,ndQsBZj5,2020-0188,2020-06-04,18:58:58,19:28:22,NA,incomplete,25,color,1,1,left,Red_Star_Grid_3.jpg,Red_Circle_Chess_1.jpg,Purple_Plus_Stripes_3.jpg,left,794.9450000014622,true,NA,true
ndQsBZj5,3e9vauv7czrnvucm8noapw1mqoqyaq,36h9ulyp667ujgwpo5e1iutgxv7jf9,ndQsBZj5,2020-0188,2020-06-04,18:58:58,19:28:22,NA,incomplete,26,color,1,1,left,Purple_Star_Grid_1.jpg,Purple_Circle_Dots_4.jpg,Red_Triangle_Stripes_1.jpg,left,1129.499999980908,true,NA,true
ndQsBZj5,3e9vauv7czrnvucm8noapw1mqoqyaq,36h9ulyp667ujgwpo5e1iutgxv7jf9,ndQsBZj5,2020-0188,2020-06-04,18:58:58,19:28:22,NA,incomplete,27,color,1,1,right,Red_Plus_Chess_4.jpg,Green_Triangle_Grid_4.jpg,Red_Circle_Dots_1.jpg,right,851.4600000053179,true,NA,true
ndQsBZj5,3e9vauv7czrnvucm8noapw1mqoqyaq,36h9ulyp667ujgwpo5e1iutgxv7jf9,ndQsBZj5,2020-0188,2020-06-04,18:58:58,19:28:22,NA,incomplete,28,color,1,1,left,Red_Triangle_Chess_2.jpg,Red_Circle_Grid_1.jpg,Green_Star_Stripes_2.jpg,left,1055.9049999865238,true,NA,true
ndQsBZj5,3e9vauv7czrnvucm8noapw1mqoqyaq,36h9ulyp667ujgwpo5e1iutgxv7jf9,ndQsBZj5,2020-0188,2020-06-04,18:58:58,19:28:22,NA,incomplete,29,color,1,1,right,Green_Triangle_Grid_3.jpg,Purple_Star_Stripes_3.jpg,Green_Circle_Chess_2.jpg,left,170.9299999929499,false,NA,true
ndQsBZj5,3e9vauv7czrnvucm8noapw1mqoqyaq,36h9ulyp667ujgwpo5e1iutgxv7jf9,ndQsBZj5,2020-0188,2020-06-04,18:58:58,19:28:22,NA,incomplete,30,color,1,1,left,Red_Circle_Stripes_4.jpg,Red_Star_Dots_1.jpg,Green_Plus_Grid_4.jpg,left,899.1250000253785,true,NA,true
ndQsBZj5,3e9vauv7czrnvucm8noapw1mqoqyaq,36h9ulyp667ujgwpo5e1iutgxv7jf9,ndQsBZj5,2020-0188,2020-06-04,18:58:58,19:28:22,NA,incomplete,31,color,1,1,right,Purple_Triangle_Chess_2.jpg,Blue_Star_Grid_2.jpg,Purple_Plus_Stripes_4.jpg,right,539.0999999945052,true,NA,true
ndQsBZj5,3e9vauv7czrnvucm8noapw1mqoqyaq,36h9ulyp667ujgwpo5e1iutgxv7jf9,ndQsBZj5,2020-0188,2020-06-04,18:58:58,19:28:22,NA,incomplete,32,color,1,1,left,Purple_Circle_Dots_2.jpg,Purple_Triangle_Chess_3.jpg,Blue_Star_Grid_2.jpg,left,665.8999999926891,true,NA,true
ndQsBZj5,3e9vauv7czrnvucm8noapw1mqoqyaq,36h9ulyp667ujgwpo5e1iutgxv7jf9,ndQsBZj5,2020-0188,2020-06-04,18:58:58,19:28:22,NA,incomplete,33,color,1,1,right,Blue_Star_Dots_1.jpg,Green_Plus_Grid_1.jpg,Blue_Triangle_Stripes_3.jpg,right,782.4949999921955,true,NA,true
ndQsBZj5,3e9vauv7czrnvucm8noapw1mqoqyaq,36h9ulyp667ujgwpo5e1iutgxv7jf9,ndQsBZj5,2020-0188,2020-06-04,18:58:58,19:28:22,NA,incomplete,34,color,1,0,left,Red_Triangle_Stripes_3.jpg,Red_Star_Grid_2.jpg,Purple_Circle_Chess_3.jpg,left,720.7300000009127,true,NA,true
ndQsBZj5,3e9vauv7czrnvucm8noapw1mqoqyaq,36h9ulyp667ujgwpo5e1iutgxv7jf9,ndQsBZj5,2020-0188,2020-06-04,18:58:58,19:28:22,NA,incomplete,35,color,1,0,left,Purple_Triangle_Chess_4.jpg,Purple_Circle_Stripes_2.jpg,Blue_Star_Dots_4.jpg,left,629.0349999908358,true,NA,true
ndQsBZj5,3e9vauv7czrnvucm8noapw1mqoqyaq,36h9ulyp667ujgwpo5e1iutgxv7jf9,ndQsBZj5,2020-0188,2020-06-04,18:58:58,19:28:22,NA,incomplete,36,color,1,1,right,Red_Plus_Grid_2.jpg,Purple_Star_Dots_2.jpg,Red_Circle_Chess_3.jpg,right,624.0150000085123,true,NA,true
ndQsBZj5,3e9vauv7czrnvucm8noapw1mqoqyaq,36h9ulyp667ujgwpo5e1iutgxv7jf9,ndQsBZj5,2020-0188,2020-06-04,18:58:58,19:28:22,NA,incomplete,37,color,1,0,left,Green_Star_Stripes_2.jpg,Green_Triangle_Grid_1.jpg,Blue_Circle_Chess_2.jpg,left,653.2249999872874,true,NA,true
ndQsBZj5,3e9vauv7czrnvucm8noapw1mqoqyaq,36h9ulyp667ujgwpo5e1iutgxv7jf9,ndQsBZj5,2020-0188,2020-06-04,18:58:58,19:28:22,NA,incomplete,38,color,1,0,right,Blue_Triangle_Chess_4.jpg,Green_Star_Dots_4.jpg,Blue_Plus_Grid_1.jpg,right,606.5099999832455,true,NA,true
ndQsBZj5,3e9vauv7czrnvucm8noapw1mqoqyaq,36h9ulyp667ujgwpo5e1iutgxv7jf9,ndQsBZj5,2020-0188,2020-06-04,18:58:58,19:28:22,NA,incomplete,39,color,1,1,right,Red_Circle_Chess_4.jpg,Blue_Star_Dots_4.jpg,Red_Plus_Grid_3.jpg,right,567.4199999775738,true,NA,true
ndQsBZj5,3e9vauv7czrnvucm8noapw1mqoqyaq,36h9ulyp667ujgwpo5e1iutgxv7jf9,ndQsBZj5,2020-0188,2020-06-04,18:58:58,19:28:22,NA,incomplete,0,number,0,1,left,Red_Star_Stripes_2.jpg,Blue_Plus_Grid_2.jpg,Red_Triangle_Chess_1.jpg,right,920.5849999852944,false,low,false
ndQsBZj5,3e9vauv7czrnvucm8noapw1mqoqyaq,36h9ulyp667ujgwpo5e1iutgxv7jf9,ndQsBZj5,2020-0188,2020-06-04,18:58:58,19:28:22,NA,incomplete,1,number,0,0,right,Blue_Triangle_Dots_3.jpg,Blue_Plus_Chess_1.jpg,Red_Circle_Grid_3.jpg,left,1161.229999997886,false,low,false
ndQsBZj5,3e9vauv7czrnvucm8noapw1mqoqyaq,36h9ulyp667ujgwpo5e1iutgxv7jf9,ndQsBZj5,2020-0188,2020-06-04,18:58:58,19:28:22,NA,incomplete,2,number,0,0,left,Blue_Star_Grid_1.jpg,Green_Plus_Chess_1.jpg,Blue_Circle_Dots_3.jpg,right,516.7999999830499,false,low,false
ndQsBZj5,3e9vauv7czrnvucm8noapw1mqoqyaq,36h9ulyp667ujgwpo5e1iutgxv7jf9,ndQsBZj5,2020-0188,2020-06-04,18:58:58,19:28:22,NA,incomplete,3,number,0,1,right,Blue_Star_Chess_1.jpg,Blue_Circle_Grid_4.jpg,Green_Plus_Stripes_1.jpg,left,622.9249999742024,false,low,false
ndQsBZj5,3e9vauv7czrnvucm8noapw1mqoqyaq,36h9ulyp667ujgwpo5e1iutgxv7jf9,ndQsBZj5,2020-0188,2020-06-04,18:58:58,19:28:22,NA,incomplete,4,number,0,1,left,Red_Star_Chess_2.jpg,Purple_Plus_Grid_2.jpg,Red_Triangle_Stripes_4.jpg,left,1100.6449999986216,true,low,false
ndQsBZj5,3e9vauv7czrnvucm8noapw1mqoqyaq,36h9ulyp667ujgwpo5e1iutgxv7jf9,ndQsBZj5,2020-0188,2020-06-04,18:58:58,19:28:22,NA,incomplete,5,number,0,1,right,Blue_Circle_Grid_3.jpg,Blue_Triangle_Stripes_2.jpg,Red_Star_Dots_3.jpg,right,751.4200000150595,true,low,false
ndQsBZj5,3e9vauv7czrnvucm8noapw1mqoqyaq,36h9ulyp667ujgwpo5e1iutgxv7jf9,ndQsBZj5,2020-0188,2020-06-04,18:58:58,19:28:22,NA,incomplete,6,number,0,1,right,Red_Triangle_Chess_4.jpg,Red_Star_Dots_1.jpg,Blue_Plus_Stripes_4.jpg,right,754.8799999931362,true,low,false
ndQsBZj5,3e9vauv7czrnvucm8noapw1mqoqyaq,36h9ulyp667ujgwpo5e1iutgxv7jf9,ndQsBZj5,2020-0188,2020-06-04,18:58:58,19:28:22,NA,incomplete,7,number,0,1,right,Purple_Plus_Grid_4.jpg,Purple_Star_Dots_3.jpg,Green_Circle_Stripes_4.jpg,right,1164.4000000087544,true,low,false
ndQsBZj5,3e9vauv7czrnvucm8noapw1mqoqyaq,36h9ulyp667ujgwpo5e1iutgxv7jf9,ndQsBZj5,2020-0188,2020-06-04,18:58:58,19:28:22,NA,incomplete,8,number,0,0,left,Green_Circle_Dots_4.jpg,Blue_Triangle_Stripes_4.jpg,Green_Star_Chess_2.jpg,left,1110.6150000123307,true,low,false
ndQsBZj5,3e9vauv7czrnvucm8noapw1mqoqyaq,36h9ulyp667ujgwpo5e1iutgxv7jf9,ndQsBZj5,2020-0188,2020-06-04,18:58:58,19:28:22,NA,incomplete,9,number,0,1,right,Blue_Star_Stripes_4.jpg,Blue_Triangle_Chess_1.jpg,Red_Circle_Dots_4.jpg,right,792.0150000136346,true,low,false
ndQsBZj5,3e9vauv7czrnvucm8noapw1mqoqyaq,36h9ulyp667ujgwpo5e1iutgxv7jf9,ndQsBZj5,2020-0188,2020-06-04,18:58:58,19:28:22,NA,incomplete,10,number,0,1,left,Purple_Plus_Stripes_1.jpg,Blue_Triangle_Chess_1.jpg,Purple_Star_Dots_4.jpg,left,998.0249999789521,true,low,false
ndQsBZj5,3e9vauv7czrnvucm8noapw1mqoqyaq,36h9ulyp667ujgwpo5e1iutgxv7jf9,ndQsBZj5,2020-0188,2020-06-04,18:58:58,19:28:22,NA,incomplete,11,number,0,0,right,Blue_Star_Grid_4.jpg,Blue_Circle_Chess_2.jpg,Red_Plus_Dots_4.jpg,right,847.1950000093784,true,low,false
ndQsBZj5,3e9vauv7czrnvucm8noapw1mqoqyaq,36h9ulyp667ujgwpo5e1iutgxv7jf9,ndQsBZj5,2020-0188,2020-06-04,18:58:58,19:28:22,NA,incomplete,12,number,0,1,right,Blue_Plus_Grid_1.jpg,Blue_Triangle_Dots_3.jpg,Purple_Circle_Chess_1.jpg,right,1273.300000000745,true,low,false
ndQsBZj5,3e9vauv7czrnvucm8noapw1mqoqyaq,36h9ulyp667ujgwpo5e1iutgxv7jf9,ndQsBZj5,2020-0188,2020-06-04,18:58:58,19:28:22,NA,incomplete,13,number,0,1,right,Purple_Triangle_Dots_4.jpg,Purple_Star_Chess_2.jpg,Blue_Circle_Grid_4.jpg,right,1022.0099999860395,true,low,false
ndQsBZj5,3e9vauv7czrnvucm8noapw1mqoqyaq,36h9ulyp667ujgwpo5e1iutgxv7jf9,ndQsBZj5,2020-0188,2020-06-04,18:58:58,19:28:22,NA,incomplete,14,number,0,1,left,Blue_Circle_Dots_4.jpg,Green_Star_Stripes_4.jpg,Blue_Triangle_Chess_3.jpg,left,939.5150000054855,true,low,false
ndQsBZj5,3e9vauv7czrnvucm8noapw1mqoqyaq,36h9ulyp667ujgwpo5e1iutgxv7jf9,ndQsBZj5,2020-0188,2020-06-04,18:58:58,19:28:22,NA,incomplete,15,number,0,1,left,Purple_Plus_Grid_1.jpg,Red_Circle_Chess_1.jpg,Purple_Star_Dots_4.jpg,right,575.6250000267755,false,low,false
ndQsBZj5,3e9vauv7czrnvucm8noapw1mqoqyaq,36h9ulyp667ujgwpo5e1iutgxv7jf9,ndQsBZj5,2020-0188,2020-06-04,18:58:58,19:28:22,NA,incomplete,16,number,0,1,left,Purple_Star_Grid_4.jpg,Green_Triangle_Dots_4.jpg,Purple_Plus_Chess_2.jpg,left,695.3749999811407,true,low,false
ndQsBZj5,3e9vauv7czrnvucm8noapw1mqoqyaq,36h9ulyp667ujgwpo5e1iutgxv7jf9,ndQsBZj5,2020-0188,2020-06-04,18:58:58,19:28:22,NA,incomplete,17,number,0,1,left,Green_Plus_Stripes_1.jpg,Blue_Triangle_Chess_1.jpg,Green_Circle_Grid_2.jpg,left,899.3349999946076,true,low,false
ndQsBZj5,3e9vauv7czrnvucm8noapw1mqoqyaq,36h9ulyp667ujgwpo5e1iutgxv7jf9,ndQsBZj5,2020-0188,2020-06-04,18:58:58,19:28:22,NA,incomplete,18,number,0,0,right,Red_Circle_Grid_3.jpg,Red_Plus_Stripes_2.jpg,Purple_Triangle_Dots_3.jpg,right,731.1549999867566,true,low,false
ndQsBZj5,3e9vauv7czrnvucm8noapw1mqoqyaq,36h9ulyp667ujgwpo5e1iutgxv7jf9,ndQsBZj5,2020-0188,2020-06-04,18:58:58,19:28:22,NA,incomplete,19,number,0,1,right,Blue_Triangle_Chess_2.jpg,Blue_Plus_Grid_4.jpg,Green_Circle_Dots_2.jpg,right,884.8500000021886,true,low,false
ndQsBZj5,3e9vauv7czrnvucm8noapw1mqoqyaq,36h9ulyp667ujgwpo5e1iutgxv7jf9,ndQsBZj5,2020-0188,2020-06-04,18:58:58,19:28:22,NA,incomplete,20,number,0,1,left,Blue_Star_Grid_3.jpg,Green_Triangle_Chess_3.jpg,Blue_Circle_Stripes_2.jpg,left,1116.4300000236835,true,low,false
ndQsBZj5,3e9vauv7czrnvucm8noapw1mqoqyaq,36h9ulyp667ujgwpo5e1iutgxv7jf9,ndQsBZj5,2020-0188,2020-06-04,18:58:58,19:28:22,NA,incomplete,21,number,0,1,right,Red_Circle_Grid_3.jpg,Red_Triangle_Stripes_4.jpg,Blue_Plus_Chess_3.jpg,right,695.2000000164844,true,low,false
ndQsBZj5,3e9vauv7czrnvucm8noapw1mqoqyaq,36h9ulyp667ujgwpo5e1iutgxv7jf9,ndQsBZj5,2020-0188,2020-06-04,18:58:58,19:28:22,NA,incomplete,22,number,0,1,left,Red_Plus_Grid_4.jpg,Blue_Star_Stripes_4.jpg,Red_Triangle_Dots_3.jpg,left,688.0100000125822,true,low,false
ndQsBZj5,3e9vauv7czrnvucm8noapw1mqoqyaq,36h9ulyp667ujgwpo5e1iutgxv7jf9,ndQsBZj5,2020-0188,2020-06-04,18:58:58,19:28:22,NA,incomplete,23,number,0,1,left,Blue_Circle_Stripes_4.jpg,Green_Triangle_Chess_4.jpg,Blue_Star_Grid_3.jpg,left,873.6250000074506,true,low,false
ndQsBZj5,3e9vauv7czrnvucm8noapw1mqoqyaq,36h9ulyp667ujgwpo5e1iutgxv7jf9,ndQsBZj5,2020-0188,2020-06-04,18:58:58,19:28:22,NA,incomplete,24,number,0,1,right,Red_Triangle_Grid_4.jpg,Red_Star_Stripes_3.jpg,Blue_Plus_Chess_4.jpg,right,694.9549999844749,true,low,false
ndQsBZj5,3e9vauv7czrnvucm8noapw1mqoqyaq,36h9ulyp667ujgwpo5e1iutgxv7jf9,ndQsBZj5,2020-0188,2020-06-04,18:58:58,19:28:22,NA,incomplete,25,number,0,1,right,Green_Circle_Grid_4.jpg,Green_Triangle_Chess_3.jpg,Red_Star_Stripes_4.jpg,left,1003.2699999865144,false,low,false
ndQsBZj5,3e9vauv7czrnvucm8noapw1mqoqyaq,36h9ulyp667ujgwpo5e1iutgxv7jf9,ndQsBZj5,2020-0188,2020-06-04,18:58:58,19:28:22,NA,incomplete,26,number,0,1,right,Red_Circle_Grid_4.jpg,Red_Triangle_Stripes_1.jpg,Blue_Star_Chess_4.jpg,right,717.7849999861792,true,low,false
ndQsBZj5,3e9vauv7czrnvucm8noapw1mqoqyaq,36h9ulyp667ujgwpo5e1iutgxv7jf9,ndQsBZj5,2020-0188,2020-06-04,18:58:58,19:28:22,NA,incomplete,27,number,0,0,right,Green_Triangle_Grid_4.jpg,Green_Circle_Dots_3.jpg,Red_Star_Stripes_4.jpg,right,755.0199999823235,true,low,false
ndQsBZj5,3e9vauv7czrnvucm8noapw1mqoqyaq,36h9ulyp667ujgwpo5e1iutgxv7jf9,ndQsBZj5,2020-0188,2020-06-04,18:58:58,19:28:22,NA,incomplete,28,number,0,1,left,Red_Triangle_Grid_4.jpg,Purple_Plus_Chess_4.jpg,Red_Circle_Stripes_3.jpg,left,992.5149999908172,true,low,false
ndQsBZj5,3e9vauv7czrnvucm8noapw1mqoqyaq,36h9ulyp667ujgwpo5e1iutgxv7jf9,ndQsBZj5,2020-0188,2020-06-04,18:58:58,19:28:22,NA,incomplete,29,number,0,1,left,Red_Star_Dots_1.jpg,Blue_Triangle_Grid_1.jpg,Red_Plus_Stripes_4.jpg,left,876.8050000071526,true,low,false
ndQsBZj5,3e9vauv7czrnvucm8noapw1mqoqyaq,36h9ulyp667ujgwpo5e1iutgxv7jf9,ndQsBZj5,2020-0188,2020-06-04,18:58:58,19:28:22,NA,incomplete,30,color,1,1,right,Purple_Plus_Dots_1.jpg,Red_Triangle_Stripes_1.jpg,Purple_Star_Grid_3.jpg,left,711.3299999909941,false,low,false
ndQsBZj5,3e9vauv7czrnvucm8noapw1mqoqyaq,36h9ulyp667ujgwpo5e1iutgxv7jf9,ndQsBZj5,2020-0188,2020-06-04,18:58:58,19:28:22,NA,incomplete,31,color,1,1,right,Red_Circle_Stripes_3.jpg,Blue_Star_Grid_3.jpg,Red_Plus_Chess_2.jpg,left,888.2450000091922,false,low,false
ndQsBZj5,3e9vauv7czrnvucm8noapw1mqoqyaq,36h9ulyp667ujgwpo5e1iutgxv7jf9,ndQsBZj5,2020-0188,2020-06-04,18:58:58,19:28:22,NA,incomplete,32,color,1,1,right,Purple_Triangle_Dots_3.jpg,Green_Star_Stripes_3.jpg,Purple_Plus_Chess_1.jpg,left,751.9150000007357,false,low,false
ndQsBZj5,3e9vauv7czrnvucm8noapw1mqoqyaq,36h9ulyp667ujgwpo5e1iutgxv7jf9,ndQsBZj5,2020-0188,2020-06-04,18:58:58,19:28:22,NA,incomplete,33,color,1,1,left,Red_Star_Grid_2.jpg,Red_Plus_Stripes_1.jpg,Blue_Circle_Dots_2.jpg,left,982.0400000025984,true,low,false
ndQsBZj5,3e9vauv7czrnvucm8noapw1mqoqyaq,36h9ulyp667ujgwpo5e1iutgxv7jf9,ndQsBZj5,2020-0188,2020-06-04,18:58:58,19:28:22,NA,incomplete,34,color,1,1,right,Red_Triangle_Dots_4.jpg,Blue_Plus_Grid_4.jpg,Red_Star_Chess_2.jpg,right,660.8500000147615,true,low,false
ndQsBZj5,3e9vauv7czrnvucm8noapw1mqoqyaq,36h9ulyp667ujgwpo5e1iutgxv7jf9,ndQsBZj5,2020-0188,2020-06-04,18:58:58,19:28:22,NA,incomplete,35,color,1,1,right,Green_Circle_Stripes_4.jpg,Purple_Star_Chess_4.jpg,Green_Triangle_Dots_2.jpg,right,691.4550000219606,true,low,false
ndQsBZj5,3e9vauv7czrnvucm8noapw1mqoqyaq,36h9ulyp667ujgwpo5e1iutgxv7jf9,ndQsBZj5,2020-0188,2020-06-04,18:58:58,19:28:22,NA,incomplete,36,color,1,1,right,Red_Plus_Grid_2.jpg,Purple_Star_Stripes_2.jpg,Red_Triangle_Dots_1.jpg,right,622.0500000054017,true,low,false
ndQsBZj5,3e9vauv7czrnvucm8noapw1mqoqyaq,36h9ulyp667ujgwpo5e1iutgxv7jf9,ndQsBZj5,2020-0188,2020-06-04,18:58:58,19:28:22,NA,incomplete,37,color,1,0,left,Purple_Circle_Chess_1.jpg,Purple_Triangle_Grid_3.jpg,Green_Star_Dots_1.jpg,left,644.7400000179186,true,low,false
ndQsBZj5,3e9vauv7czrnvucm8noapw1mqoqyaq,36h9ulyp667ujgwpo5e1iutgxv7jf9,ndQsBZj5,2020-0188,2020-06-04,18:58:58,19:28:22,NA,incomplete,38,color,1,0,right,Red_Star_Chess_4.jpg,Blue_Plus_Grid_4.jpg,Red_Triangle_Dots_3.jpg,right,604.7200000029989,true,low,false
ndQsBZj5,3e9vauv7czrnvucm8noapw1mqoqyaq,36h9ulyp667ujgwpo5e1iutgxv7jf9,ndQsBZj5,2020-0188,2020-06-04,18:58:58,19:28:22,NA,incomplete,39,color,1,0,left,Purple_Circle_Chess_3.jpg,Purple_Triangle_Dots_2.jpg,Green_Star_Stripes_3.jpg,right,1244.4450000184588,false,low,false
ndQsBZj5,3e9vauv7czrnvucm8noapw1mqoqyaq,36h9ulyp667ujgwpo5e1iutgxv7jf9,ndQsBZj5,2020-0188,2020-06-04,18:58:58,19:28:22,NA,incomplete,40,color,1,0,left,Blue_Star_Dots_4.jpg,Blue_Triangle_Chess_1.jpg,Red_Circle_Stripes_4.jpg,right,931.8949999869801,false,low,false
ndQsBZj5,3e9vauv7czrnvucm8noapw1mqoqyaq,36h9ulyp667ujgwpo5e1iutgxv7jf9,ndQsBZj5,2020-0188,2020-06-04,18:58:58,19:28:22,NA,incomplete,41,color,1,1,left,Green_Plus_Dots_2.jpg,Green_Star_Chess_1.jpg,Purple_Circle_Stripes_2.jpg,right,920.1299999840558,false,low,false
ndQsBZj5,3e9vauv7czrnvucm8noapw1mqoqyaq,36h9ulyp667ujgwpo5e1iutgxv7jf9,ndQsBZj5,2020-0188,2020-06-04,18:58:58,19:28:22,NA,incomplete,42,color,1,0,left,Purple_Plus_Stripes_4.jpg,Purple_Triangle_Grid_1.jpg,Red_Circle_Dots_4.jpg,right,715.3999999864027,false,low,false
ndQsBZj5,3e9vauv7czrnvucm8noapw1mqoqyaq,36h9ulyp667ujgwpo5e1iutgxv7jf9,ndQsBZj5,2020-0188,2020-06-04,18:58:58,19:28:22,NA,incomplete,43,color,1,1,left,Blue_Star_Grid_2.jpg,Blue_Circle_Chess_1.jpg,Red_Plus_Dots_2.jpg,right,977.5549999903888,false,low,false
ndQsBZj5,3e9vauv7czrnvucm8noapw1mqoqyaq,36h9ulyp667ujgwpo5e1iutgxv7jf9,ndQsBZj5,2020-0188,2020-06-04,18:58:58,19:28:22,NA,incomplete,44,color,1,1,left,Purple_Triangle_Chess_4.jpg,Purple_Plus_Stripes_2.jpg,Green_Star_Dots_4.jpg,right,592.4700000032317,false,low,false
ndQsBZj5,3e9vauv7czrnvucm8noapw1mqoqyaq,36h9ulyp667ujgwpo5e1iutgxv7jf9,ndQsBZj5,2020-0188,2020-06-04,18:58:58,19:28:22,NA,incomplete,45,color,1,1,right,Blue_Triangle_Grid_2.jpg,Green_Star_Chess_2.jpg,Blue_Plus_Dots_4.jpg,right,1139.00000002468,true,low,false
ndQsBZj5,3e9vauv7czrnvucm8noapw1mqoqyaq,36h9ulyp667ujgwpo5e1iutgxv7jf9,ndQsBZj5,2020-0188,2020-06-04,18:58:58,19:28:22,NA,incomplete,46,color,1,1,left,Green_Star_Dots_1.jpg,Green_Circle_Stripes_4.jpg,Red_Plus_Chess_1.jpg,left,596.6599999810569,true,low,false
ndQsBZj5,3e9vauv7czrnvucm8noapw1mqoqyaq,36h9ulyp667ujgwpo5e1iutgxv7jf9,ndQsBZj5,2020-0188,2020-06-04,18:58:58,19:28:22,NA,incomplete,47,color,1,1,left,Red_Circle_Stripes_1.jpg,Red_Triangle_Grid_4.jpg,Blue_Star_Chess_1.jpg,left,629.2299999913666,true,low,false
ndQsBZj5,3e9vauv7czrnvucm8noapw1mqoqyaq,36h9ulyp667ujgwpo5e1iutgxv7jf9,ndQsBZj5,2020-0188,2020-06-04,18:58:58,19:28:22,NA,incomplete,48,color,1,1,left,Blue_Plus_Stripes_2.jpg,Blue_Triangle_Chess_1.jpg,Purple_Circle_Dots_2.jpg,right,1028.6199999973178,false,low,false
ndQsBZj5,3e9vauv7czrnvucm8noapw1mqoqyaq,36h9ulyp667ujgwpo5e1iutgxv7jf9,ndQsBZj5,2020-0188,2020-06-04,18:58:58,19:28:22,NA,incomplete,49,color,1,1,right,Red_Star_Stripes_4.jpg,Green_Plus_Chess_4.jpg,Red_Triangle_Dots_3.jpg,right,646.2699999974575,true,low,false
ndQsBZj5,3e9vauv7czrnvucm8noapw1mqoqyaq,36h9ulyp667ujgwpo5e1iutgxv7jf9,ndQsBZj5,2020-0188,2020-06-04,18:58:58,19:28:22,NA,incomplete,50,color,1,0,right,Purple_Plus_Chess_3.jpg,Red_Triangle_Stripes_3.jpg,Purple_Star_Dots_2.jpg,right,741.3200000009965,true,low,false
ndQsBZj5,3e9vauv7czrnvucm8noapw1mqoqyaq,36h9ulyp667ujgwpo5e1iutgxv7jf9,ndQsBZj5,2020-0188,2020-06-04,18:58:58,19:28:22,NA,incomplete,51,color,1,0,left,Green_Star_Stripes_3.jpg,Green_Plus_Dots_4.jpg,Purple_Circle_Grid_3.jpg,left,841.5399999939837,true,low,false
ndQsBZj5,3e9vauv7czrnvucm8noapw1mqoqyaq,36h9ulyp667ujgwpo5e1iutgxv7jf9,ndQsBZj5,2020-0188,2020-06-04,18:58:58,19:28:22,NA,incomplete,52,color,1,0,left,Purple_Triangle_Stripes_2.jpg,Purple_Plus_Chess_1.jpg,Red_Star_Grid_2.jpg,right,885.0399999937508,false,low,false
ndQsBZj5,3e9vauv7czrnvucm8noapw1mqoqyaq,36h9ulyp667ujgwpo5e1iutgxv7jf9,ndQsBZj5,2020-0188,2020-06-04,18:58:58,19:28:22,NA,incomplete,53,color,1,1,right,Blue_Plus_Dots_1.jpg,Red_Circle_Grid_1.jpg,Blue_Triangle_Chess_2.jpg,left,803.1949999858625,false,low,false
ndQsBZj5,3e9vauv7czrnvucm8noapw1mqoqyaq,36h9ulyp667ujgwpo5e1iutgxv7jf9,ndQsBZj5,2020-0188,2020-06-04,18:58:58,19:28:22,NA,incomplete,54,color,1,1,left,Purple_Triangle_Grid_2.jpg,Purple_Circle_Dots_3.jpg,Green_Plus_Chess_2.jpg,right,1170.1000000175554,false,low,false
ndQsBZj5,3e9vauv7czrnvucm8noapw1mqoqyaq,36h9ulyp667ujgwpo5e1iutgxv7jf9,ndQsBZj5,2020-0188,2020-06-04,18:58:58,19:28:22,NA,incomplete,55,color,1,1,right,Blue_Circle_Grid_2.jpg,Green_Triangle_Dots_2.jpg,Blue_Star_Stripes_3.jpg,right,655.8249999943655,true,low,false
ndQsBZj5,3e9vauv7czrnvucm8noapw1mqoqyaq,36h9ulyp667ujgwpo5e1iutgxv7jf9,ndQsBZj5,2020-0188,2020-06-04,18:58:58,19:28:22,NA,incomplete,56,color,1,0,left,Blue_Triangle_Dots_1.jpg,Blue_Star_Grid_2.jpg,Purple_Plus_Chess_1.jpg,left,613.1100000056904,true,low,false
ndQsBZj5,3e9vauv7czrnvucm8noapw1mqoqyaq,36h9ulyp667ujgwpo5e1iutgxv7jf9,ndQsBZj5,2020-0188,2020-06-04,18:58:58,19:28:22,NA,incomplete,57,color,1,1,right,Red_Circle_Grid_3.jpg,Purple_Plus_Stripes_3.jpg,Red_Star_Dots_1.jpg,right,617.6350000023376,true,low,false
ndQsBZj5,3e9vauv7czrnvucm8noapw1mqoqyaq,36h9ulyp667ujgwpo5e1iutgxv7jf9,ndQsBZj5,2020-0188,2020-06-04,18:58:58,19:28:22,NA,incomplete,58,color,1,1,left,Red_Plus_Chess_1.jpg,Red_Triangle_Grid_3.jpg,Green_Circle_Stripes_1.jpg,left,832.090000010794,true,low,false
ndQsBZj5,3e9vauv7czrnvucm8noapw1mqoqyaq,36h9ulyp667ujgwpo5e1iutgxv7jf9,ndQsBZj5,2020-0188,2020-06-04,18:58:58,19:28:22,NA,incomplete,59,color,1,1,left,Green_Star_Grid_2.jpg,Green_Plus_Stripes_1.jpg,Blue_Triangle_Chess_2.jpg,left,724.2249999835622,true,low,false
ndQsBZj5,3e9vauv7czrnvucm8noapw1mqoqyaq,36h9ulyp667ujgwpo5e1iutgxv7jf9,ndQsBZj5,2020-0188,2020-06-04,18:58:58,19:28:22,NA,incomplete,60,number,0,1,left,Red_Triangle_Stripes_3.jpg,Blue_Plus_Grid_3.jpg,Red_Circle_Dots_4.jpg,right,612.1350000030361,false,low,false
ndQsBZj5,3e9vauv7czrnvucm8noapw1mqoqyaq,36h9ulyp667ujgwpo5e1iutgxv7jf9,ndQsBZj5,2020-0188,2020-06-04,18:58:58,19:28:22,NA,incomplete,61,number,0,1,left,Green_Star_Stripes_2.jpg,Purple_Triangle_Chess_2.jpg,Green_Plus_Dots_3.jpg,right,720.0850000081118,false,low,false
ndQsBZj5,3e9vauv7czrnvucm8noapw1mqoqyaq,36h9ulyp667ujgwpo5e1iutgxv7jf9,ndQsBZj5,2020-0188,2020-06-04,18:58:58,19:28:22,NA,incomplete,62,number,0,1,left,Red_Star_Dots_3.jpg,Green_Circle_Chess_3.jpg,Red_Triangle_Grid_2.jpg,left,834.1450000007171,true,low,false
ndQsBZj5,3e9vauv7czrnvucm8noapw1mqoqyaq,36h9ulyp667ujgwpo5e1iutgxv7jf9,ndQsBZj5,2020-0188,2020-06-04,18:58:58,19:28:22,NA,incomplete,63,number,0,1,left,Red_Plus_Dots_4.jpg,Purple_Circle_Stripes_4.jpg,Red_Triangle_Grid_2.jpg,left,857.0849999960046,true,low,false
ndQsBZj5,3e9vauv7czrnvucm8noapw1mqoqyaq,36h9ulyp667ujgwpo5e1iutgxv7jf9,ndQsBZj5,2020-0188,2020-06-04,18:58:58,19:28:22,NA,incomplete,64,number,0,1,left,Purple_Star_Chess_2.jpg,Blue_Circle_Dots_2.jpg,Purple_Triangle_Grid_4.jpg,left,941.9700000144076,true,low,false
ndQsBZj5,3e9vauv7czrnvucm8noapw1mqoqyaq,36h9ulyp667ujgwpo5e1iutgxv7jf9,ndQsBZj5,2020-0188,2020-06-04,18:58:58,19:28:22,NA,incomplete,65,number,0,1,right,Blue_Plus_Dots_3.jpg,Blue_Triangle_Chess_1.jpg,Red_Circle_Stripes_3.jpg,right,819.4649999786634,true,low,false
ndQsBZj5,3e9vauv7czrnvucm8noapw1mqoqyaq,36h9ulyp667ujgwpo5e1iutgxv7jf9,ndQsBZj5,2020-0188,2020-06-04,18:58:58,19:28:22,NA,incomplete,66,number,0,1,right,Blue_Triangle_Dots_3.jpg,Blue_Circle_Stripes_2.jpg,Purple_Plus_Chess_3.jpg,right,679.9000000173692,true,low,false
ndQsBZj5,3e9vauv7czrnvucm8noapw1mqoqyaq,36h9ulyp667ujgwpo5e1iutgxv7jf9,ndQsBZj5,2020-0188,2020-06-04,18:58:58,19:28:22,NA,incomplete,67,number,0,1,left,Purple_Star_Grid_1.jpg,Blue_Plus_Chess_1.jpg,Purple_Circle_Stripes_4.jpg,left,656.170000002021,true,low,false
ndQsBZj5,3e9vauv7czrnvucm8noapw1mqoqyaq,36h9ulyp667ujgwpo5e1iutgxv7jf9,ndQsBZj5,2020-0188,2020-06-04,18:58:58,19:28:22,NA,incomplete,68,number,0,1,left,Purple_Plus_Grid_2.jpg,Red_Triangle_Chess_2.jpg,Purple_Star_Dots_1.jpg,left,1004.2599999869708,true,low,false
ndQsBZj5,3e9vauv7czrnvucm8noapw1mqoqyaq,36h9ulyp667ujgwpo5e1iutgxv7jf9,ndQsBZj5,2020-0188,2020-06-04,18:58:58,19:28:22,NA,incomplete,69,number,0,1,left,Purple_Plus_Stripes_1.jpg,Blue_Circle_Chess_1.jpg,Purple_Star_Grid_4.jpg,left,779.25999998115,true,low,false
ndQsBZj5,3e9vauv7czrnvucm8noapw1mqoqyaq,36h9ulyp667ujgwpo5e1iutgxv7jf9,ndQsBZj5,2020-0188,2020-06-04,18:58:58,19:28:22,NA,incomplete,70,number,0,1,left,Green_Triangle_Grid_1.jpg,Red_Circle_Dots_1.jpg,Green_Star_Stripes_4.jpg,left,691.0199999983888,true,low,false
ndQsBZj5,3e9vauv7czrnvucm8noapw1mqoqyaq,36h9ulyp667ujgwpo5e1iutgxv7jf9,ndQsBZj5,2020-0188,2020-06-04,18:58:58,19:28:22,NA,incomplete,71,number,0,1,left,Purple_Plus_Stripes_3.jpg,Blue_Star_Grid_3.jpg,Purple_Circle_Dots_2.jpg,left,918.2250000012573,true,low,false
ndQsBZj5,3e9vauv7czrnvucm8noapw1mqoqyaq,36h9ulyp667ujgwpo5e1iutgxv7jf9,ndQsBZj5,2020-0188,2020-06-04,18:58:58,19:28:22,NA,incomplete,72,number,0,1,right,Purple_Star_Grid_1.jpg,Purple_Circle_Chess_3.jpg,Red_Plus_Dots_1.jpg,right,1033.354999992298,true,low,false
ndQsBZj5,3e9vauv7czrnvucm8noapw1mqoqyaq,36h9ulyp667ujgwpo5e1iutgxv7jf9,ndQsBZj5,2020-0188,2020-06-04,18:58:58,19:28:22,NA,incomplete,73,number,0,1,right,Purple_Plus_Chess_3.jpg,Purple_Star_Dots_2.jpg,Red_Triangle_Stripes_3.jpg,right,860.4950000008103,true,low,false
ndQsBZj5,3e9vauv7czrnvucm8noapw1mqoqyaq,36h9ulyp667ujgwpo5e1iutgxv7jf9,ndQsBZj5,2020-0188,2020-06-04,18:58:58,19:28:22,NA,incomplete,74,number,0,1,right,Red_Triangle_Stripes_1.jpg,Red_Plus_Grid_4.jpg,Blue_Circle_Dots_1.jpg,right,897.6200000033714,true,low,false
ndQsBZj5,3e9vauv7czrnvucm8noapw1mqoqyaq,36h9ulyp667ujgwpo5e1iutgxv7jf9,ndQsBZj5,2020-0188,2020-06-04,18:58:58,19:28:22,NA,incomplete,75,number,0,1,right,Green_Star_Chess_1.jpg,Green_Plus_Stripes_3.jpg,Blue_Triangle_Dots_1.jpg,right,1122.2499999857973,true,low,false
ndQsBZj5,3e9vauv7czrnvucm8noapw1mqoqyaq,36h9ulyp667ujgwpo5e1iutgxv7jf9,ndQsBZj5,2020-0188,2020-06-04,18:58:58,19:28:22,NA,incomplete,76,number,0,1,left,Green_Star_Grid_3.jpg,Blue_Plus_Chess_3.jpg,Green_Triangle_Stripes_2.jpg,left,1071.5349999954924,true,low,false
ndQsBZj5,3e9vauv7czrnvucm8noapw1mqoqyaq,36h9ulyp667ujgwpo5e1iutgxv7jf9,ndQsBZj5,2020-0188,2020-06-04,18:58:58,19:28:22,NA,incomplete,77,number,0,1,left,Blue_Circle_Chess_3.jpg,Green_Star_Stripes_3.jpg,Blue_Plus_Grid_4.jpg,left,867.0599999895785,true,low,false
ndQsBZj5,3e9vauv7czrnvucm8noapw1mqoqyaq,36h9ulyp667ujgwpo5e1iutgxv7jf9,ndQsBZj5,2020-0188,2020-06-04,18:58:58,19:28:22,NA,incomplete,78,number,0,1,left,Green_Triangle_Chess_4.jpg,Red_Plus_Stripes_4.jpg,Green_Star_Grid_3.jpg,left,1054.4750000117347,true,low,false
ndQsBZj5,3e9vauv7czrnvucm8noapw1mqoqyaq,36h9ulyp667ujgwpo5e1iutgxv7jf9,ndQsBZj5,2020-0188,2020-06-04,18:58:58,19:28:22,NA,incomplete,79,number,0,1,right,Purple_Triangle_Stripes_2.jpg,Purple_Plus_Dots_4.jpg,Red_Star_Chess_2.jpg,right,872.2499999857973,true,low,false
ndQsBZj5,3e9vauv7czrnvucm8noapw1mqoqyaq,36h9ulyp667ujgwpo5e1iutgxv7jf9,ndQsBZj5,2020-0188,2020-06-04,18:58:58,19:28:22,NA,incomplete,80,number,0,0,left,Blue_Star_Dots_1.jpg,Purple_Circle_Stripes_1.jpg,Blue_Plus_Chess_2.jpg,left,821.7599999916274,true,low,false
ndQsBZj5,3e9vauv7czrnvucm8noapw1mqoqyaq,36h9ulyp667ujgwpo5e1iutgxv7jf9,ndQsBZj5,2020-0188,2020-06-04,18:58:58,19:28:22,NA,incomplete,81,number,0,1,right,Purple_Triangle_Stripes_2.jpg,Purple_Star_Dots_4.jpg,Red_Circle_Chess_2.jpg,left,674.5900000096299,false,low,false
ndQsBZj5,3e9vauv7czrnvucm8noapw1mqoqyaq,36h9ulyp667ujgwpo5e1iutgxv7jf9,ndQsBZj5,2020-0188,2020-06-04,18:58:58,19:28:22,NA,incomplete,82,number,0,1,right,Red_Star_Chess_4.jpg,Red_Plus_Dots_1.jpg,Purple_Triangle_Stripes_4.jpg,right,980.7299999811221,true,low,false
ndQsBZj5,3e9vauv7czrnvucm8noapw1mqoqyaq,36h9ulyp667ujgwpo5e1iutgxv7jf9,ndQsBZj5,2020-0188,2020-06-04,18:58:58,19:28:22,NA,incomplete,83,number,0,1,right,Red_Star_Chess_4.jpg,Red_Circle_Grid_1.jpg,Green_Plus_Stripes_4.jpg,right,732.9400000162423,true,low,false
ndQsBZj5,3e9vauv7czrnvucm8noapw1mqoqyaq,36h9ulyp667ujgwpo5e1iutgxv7jf9,ndQsBZj5,2020-0188,2020-06-04,18:58:58,19:28:22,NA,incomplete,84,number,0,1,right,Green_Star_Stripes_3.jpg,Green_Circle_Grid_2.jpg,Blue_Plus_Dots_3.jpg,right,1251.0550000006333,true,low,false
ndQsBZj5,3e9vauv7czrnvucm8noapw1mqoqyaq,36h9ulyp667ujgwpo5e1iutgxv7jf9,ndQsBZj5,2020-0188,2020-06-04,18:58:58,19:28:22,NA,incomplete,85,number,0,0,right,Blue_Plus_Chess_2.jpg,Blue_Triangle_Dots_1.jpg,Red_Star_Grid_2.jpg,right,773.7849999975879,true,low,false
ndQsBZj5,3e9vauv7czrnvucm8noapw1mqoqyaq,36h9ulyp667ujgwpo5e1iutgxv7jf9,ndQsBZj5,2020-0188,2020-06-04,18:58:58,19:28:22,NA,incomplete,86,number,0,1,right,Red_Triangle_Grid_1.jpg,Red_Plus_Dots_3.jpg,Purple_Circle_Stripes_1.jpg,right,690.9949999826495,true,low,false
ndQsBZj5,3e9vauv7czrnvucm8noapw1mqoqyaq,36h9ulyp667ujgwpo5e1iutgxv7jf9,ndQsBZj5,2020-0188,2020-06-04,18:58:58,19:28:22,NA,incomplete,87,number,0,1,left,Blue_Triangle_Stripes_2.jpg,Red_Plus_Grid_2.jpg,Blue_Circle_Dots_3.jpg,left,947.5249999959487,true,low,false
ndQsBZj5,3e9vauv7czrnvucm8noapw1mqoqyaq,36h9ulyp667ujgwpo5e1iutgxv7jf9,ndQsBZj5,2020-0188,2020-06-04,18:58:58,19:28:22,NA,incomplete,88,number,0,1,left,Red_Circle_Grid_3.jpg,Purple_Star_Chess_3.jpg,Red_Plus_Stripes_1.jpg,left,766.8800000101328,true,low,false
ndQsBZj5,3e9vauv7czrnvucm8noapw1mqoqyaq,36h9ulyp667ujgwpo5e1iutgxv7jf9,ndQsBZj5,2020-0188,2020-06-04,18:58:58,19:28:22,NA,incomplete,89,number,0,1,left,Purple_Star_Chess_2.jpg,Green_Triangle_Grid_2.jpg,Purple_Circle_Dots_1.jpg,left,763.7399999948684,true,low,false
ndQsBZj5,3e9vauv7czrnvucm8noapw1mqoqyaq,36h9ulyp667ujgwpo5e1iutgxv7jf9,ndQsBZj5,2020-0188,2020-06-04,18:58:58,19:28:22,NA,incomplete,90,color,1,1,right,Blue_Circle_Dots_4.jpg,Red_Triangle_Stripes_4.jpg,Blue_Star_Grid_1.jpg,left,705.6750000047032,false,low,false
ndQsBZj5,3e9vauv7czrnvucm8noapw1mqoqyaq,36h9ulyp667ujgwpo5e1iutgxv7jf9,ndQsBZj5,2020-0188,2020-06-04,18:58:58,19:28:22,NA,incomplete,91,color,1,1,right,Red_Plus_Chess_2.jpg,Green_Triangle_Dots_2.jpg,Red_Star_Grid_1.jpg,left,890.4899999906775,false,low,false
ndQsBZj5,3e9vauv7czrnvucm8noapw1mqoqyaq,36h9ulyp667ujgwpo5e1iutgxv7jf9,ndQsBZj5,2020-0188,2020-06-04,18:58:58,19:28:22,NA,incomplete,92,color,1,1,left,Red_Circle_Grid_2.jpg,Red_Plus_Stripes_3.jpg,Purple_Star_Dots_2.jpg,right,1120.695000019623,false,low,false
ndQsBZj5,3e9vauv7czrnvucm8noapw1mqoqyaq,36h9ulyp667ujgwpo5e1iutgxv7jf9,ndQsBZj5,2020-0188,2020-06-04,18:58:58,19:28:22,NA,incomplete,93,color,1,0,left,Green_Circle_Chess_3.jpg,Green_Triangle_Grid_2.jpg,Red_Star_Dots_3.jpg,left,718.0950000183657,true,low,false
ndQsBZj5,3e9vauv7czrnvucm8noapw1mqoqyaq,36h9ulyp667ujgwpo5e1iutgxv7jf9,ndQsBZj5,2020-0188,2020-06-04,18:58:58,19:28:22,NA,incomplete,94,color,1,1,left,Red_Circle_Grid_1.jpg,Red_Triangle_Chess_4.jpg,Green_Plus_Dots_1.jpg,left,836.2599999818485,true,low,false
ndQsBZj5,3e9vauv7czrnvucm8noapw1mqoqyaq,36h9ulyp667ujgwpo5e1iutgxv7jf9,ndQsBZj5,2020-0188,2020-06-04,18:58:58,19:28:22,NA,incomplete,95,color,1,1,right,Green_Plus_Dots_2.jpg,Blue_Triangle_Stripes_2.jpg,Green_Circle_Grid_1.jpg,right,648.2699999760371,true,low,false
ndQsBZj5,3e9vauv7czrnvucm8noapw1mqoqyaq,36h9ulyp667ujgwpo5e1iutgxv7jf9,ndQsBZj5,2020-0188,2020-06-04,18:58:58,19:28:22,NA,incomplete,96,color,1,1,left,Purple_Plus_Dots_2.jpg,Purple_Triangle_Stripes_3.jpg,Red_Star_Chess_2.jpg,left,637.0000000169966,true,low,false
ndQsBZj5,3e9vauv7czrnvucm8noapw1mqoqyaq,36h9ulyp667ujgwpo5e1iutgxv7jf9,ndQsBZj5,2020-0188,2020-06-04,18:58:58,19:28:22,NA,incomplete,97,color,1,1,right,Purple_Circle_Chess_1.jpg,Red_Plus_Dots_1.jpg,Purple_Star_Grid_4.jpg,right,626.2999999744352,true,low,false
ndQsBZj5,3e9vauv7czrnvucm8noapw1mqoqyaq,36h9ulyp667ujgwpo5e1iutgxv7jf9,ndQsBZj5,2020-0188,2020-06-04,18:58:58,19:28:22,NA,incomplete,98,color,1,0,left,Red_Plus_Chess_4.jpg,Red_Star_Dots_2.jpg,Purple_Circle_Grid_4.jpg,left,570.8300000114832,true,low,false
ndQsBZj5,3e9vauv7czrnvucm8noapw1mqoqyaq,36h9ulyp667ujgwpo5e1iutgxv7jf9,ndQsBZj5,2020-0188,2020-06-04,18:58:58,19:28:22,NA,incomplete,99,color,1,1,left,Red_Star_Chess_3.jpg,Red_Triangle_Stripes_2.jpg,Green_Plus_Grid_3.jpg,right,725.9499999927357,false,low,false
ndQsBZj5,3e9vauv7czrnvucm8noapw1mqoqyaq,36h9ulyp667ujgwpo5e1iutgxv7jf9,ndQsBZj5,2020-0188,2020-06-04,18:58:58,19:28:22,NA,incomplete,100,color,1,1,right,Purple_Star_Chess_2.jpg,Red_Circle_Grid_2.jpg,Purple_Plus_Dots_4.jpg,right,581.6399999894202,true,low,false
ndQsBZj5,3e9vauv7czrnvucm8noapw1mqoqyaq,36h9ulyp667ujgwpo5e1iutgxv7jf9,ndQsBZj5,2020-0188,2020-06-04,18:58:58,19:28:22,NA,incomplete,101,color,1,1,right,Blue_Plus_Chess_4.jpg,Purple_Star_Dots_4.jpg,Blue_Circle_Grid_2.jpg,right,588.86999997776,true,low,false
ndQsBZj5,3e9vauv7czrnvucm8noapw1mqoqyaq,36h9ulyp667ujgwpo5e1iutgxv7jf9,ndQsBZj5,2020-0188,2020-06-04,18:58:58,19:28:22,NA,incomplete,102,color,1,1,left,Blue_Triangle_Grid_4.jpg,Blue_Circle_Stripes_2.jpg,Green_Plus_Dots_4.jpg,left,623.5400000005029,true,low,false
ndQsBZj5,3e9vauv7czrnvucm8noapw1mqoqyaq,36h9ulyp667ujgwpo5e1iutgxv7jf9,ndQsBZj5,2020-0188,2020-06-04,18:58:58,19:28:22,NA,incomplete,103,color,1,1,right,Red_Circle_Stripes_1.jpg,Purple_Plus_Grid_1.jpg,Red_Triangle_Dots_4.jpg,right,502.19000002834946,true,low,false
ndQsBZj5,3e9vauv7czrnvucm8noapw1mqoqyaq,36h9ulyp667ujgwpo5e1iutgxv7jf9,ndQsBZj5,2020-0188,2020-06-04,18:58:58,19:28:22,NA,incomplete,104,color,1,1,left,Green_Circle_Chess_4.jpg,Green_Star_Grid_2.jpg,Red_Plus_Stripes_4.jpg,left,642.1900000132155,true,low,false
ndQsBZj5,3e9vauv7czrnvucm8noapw1mqoqyaq,36h9ulyp667ujgwpo5e1iutgxv7jf9,ndQsBZj5,2020-0188,2020-06-04,18:58:58,19:28:22,NA,incomplete,105,color,1,0,left,Blue_Star_Stripes_2.jpg,Blue_Triangle_Dots_3.jpg,Purple_Plus_Chess_2.jpg,left,660.5949999939185,true,low,false
ndQsBZj5,3e9vauv7czrnvucm8noapw1mqoqyaq,36h9ulyp667ujgwpo5e1iutgxv7jf9,ndQsBZj5,2020-0188,2020-06-04,18:58:58,19:28:22,NA,incomplete,106,color,1,0,left,Green_Star_Dots_3.jpg,Green_Circle_Stripes_4.jpg,Purple_Plus_Chess_3.jpg,left,1244.185000017751,true,low,false
ndQsBZj5,3e9vauv7czrnvucm8noapw1mqoqyaq,36h9ulyp667ujgwpo5e1iutgxv7jf9,ndQsBZj5,2020-0188,2020-06-04,18:58:58,19:28:22,NA,incomplete,107,color,1,1,right,Red_Star_Dots_1.jpg,Blue_Plus_Chess_1.jpg,Red_Circle_Stripes_4.jpg,left,591.8300000193994,false,low,false
ndQsBZj5,3e9vauv7czrnvucm8noapw1mqoqyaq,36h9ulyp667ujgwpo5e1iutgxv7jf9,ndQsBZj5,2020-0188,2020-06-04,18:58:58,19:28:22,NA,incomplete,108,color,1,1,left,Red_Star_Grid_2.jpg,Red_Circle_Stripes_1.jpg,Purple_Plus_Dots_2.jpg,left,648.7900000065565,true,low,false
ndQsBZj5,3e9vauv7czrnvucm8noapw1mqoqyaq,36h9ulyp667ujgwpo5e1iutgxv7jf9,ndQsBZj5,2020-0188,2020-06-04,18:58:58,19:28:22,NA,incomplete,109,color,1,1,right,Purple_Triangle_Grid_1.jpg,Blue_Circle_Chess_1.jpg,Purple_Plus_Stripes_4.jpg,right,705.0449999806006,true,low,false
ndQsBZj5,3e9vauv7czrnvucm8noapw1mqoqyaq,36h9ulyp667ujgwpo5e1iutgxv7jf9,ndQsBZj5,2020-0188,2020-06-04,18:58:58,19:28:22,NA,incomplete,110,color,1,0,left,Purple_Triangle_Dots_4.jpg,Purple_Circle_Grid_3.jpg,Red_Plus_Stripes_4.jpg,left,1075.2250000077765,true,low,false
ndQsBZj5,3e9vauv7czrnvucm8noapw1mqoqyaq,36h9ulyp667ujgwpo5e1iutgxv7jf9,ndQsBZj5,2020-0188,2020-06-04,18:58:58,19:28:22,NA,incomplete,111,color,1,1,right,Red_Triangle_Grid_3.jpg,Blue_Star_Dots_3.jpg,Red_Plus_Chess_4.jpg,right,539.4850000157021,true,low,false
ndQsBZj5,3e9vauv7czrnvucm8noapw1mqoqyaq,36h9ulyp667ujgwpo5e1iutgxv7jf9,ndQsBZj5,2020-0188,2020-06-04,18:58:58,19:28:22,NA,incomplete,112,color,1,0,right,Purple_Triangle_Chess_2.jpg,Blue_Circle_Dots_2.jpg,Purple_Star_Stripes_4.jpg,left,823.8849999906961,false,low,false
ndQsBZj5,3e9vauv7czrnvucm8noapw1mqoqyaq,36h9ulyp667ujgwpo5e1iutgxv7jf9,ndQsBZj5,2020-0188,2020-06-04,18:58:58,19:28:22,NA,incomplete,113,color,1,1,right,Red_Triangle_Dots_3.jpg,Green_Plus_Grid_3.jpg,Red_Circle_Chess_4.jpg,left,1159.9299999943469,false,low,false
ndQsBZj5,3e9vauv7czrnvucm8noapw1mqoqyaq,36h9ulyp667ujgwpo5e1iutgxv7jf9,ndQsBZj5,2020-0188,2020-06-04,18:58:58,19:28:22,NA,incomplete,114,color,1,1,right,Red_Circle_Grid_4.jpg,Purple_Star_Dots_4.jpg,Red_Triangle_Stripes_3.jpg,right,610.8299999905284,true,low,false
ndQsBZj5,3e9vauv7czrnvucm8noapw1mqoqyaq,36h9ulyp667ujgwpo5e1iutgxv7jf9,ndQsBZj5,2020-0188,2020-06-04,18:58:58,19:28:22,NA,incomplete,115,color,1,1,right,Purple_Star_Chess_1.jpg,Red_Circle_Stripes_1.jpg,Purple_Triangle_Grid_2.jpg,left,1019.4100000080653,false,low,false
ndQsBZj5,3e9vauv7czrnvucm8noapw1mqoqyaq,36h9ulyp667ujgwpo5e1iutgxv7jf9,ndQsBZj5,2020-0188,2020-06-04,18:58:58,19:28:22,NA,incomplete,116,color,1,1,right,Purple_Circle_Grid_4.jpg,Blue_Triangle_Stripes_4.jpg,Purple_Plus_Chess_2.jpg,right,1551.324999978533,true,low,false
ndQsBZj5,3e9vauv7czrnvucm8noapw1mqoqyaq,36h9ulyp667ujgwpo5e1iutgxv7jf9,ndQsBZj5,2020-0188,2020-06-04,18:58:58,19:28:22,NA,incomplete,117,color,1,1,left,Purple_Star_Dots_3.jpg,Purple_Plus_Chess_1.jpg,Red_Circle_Stripes_3.jpg,left,777.1150000044145,true,low,false
ndQsBZj5,3e9vauv7czrnvucm8noapw1mqoqyaq,36h9ulyp667ujgwpo5e1iutgxv7jf9,ndQsBZj5,2020-0188,2020-06-04,18:58:58,19:28:22,NA,incomplete,118,color,1,1,left,Green_Star_Dots_1.jpg,Green_Triangle_Grid_3.jpg,Purple_Plus_Chess_1.jpg,left,816.0050000005867,true,low,false
ndQsBZj5,3e9vauv7czrnvucm8noapw1mqoqyaq,36h9ulyp667ujgwpo5e1iutgxv7jf9,ndQsBZj5,2020-0188,2020-06-04,18:58:58,19:28:22,NA,incomplete,119,color,1,0,right,Green_Plus_Stripes_4.jpg,Blue_Star_Grid_4.jpg,Green_Triangle_Dots_1.jpg,right,803.7700000277255,true,low,false
ndQsBZj5,3e9vauv7czrnvucm8noapw1mqoqyaq,36h9ulyp667ujgwpo5e1iutgxv7jf9,ndQsBZj5,2020-0188,2020-06-04,18:58:58,19:28:22,NA,incomplete,120,race,2,0,right,C_F_09.jpg,A_F_13.jpg,C_M_05.jpg,NA,NA,NA,low,false
ndQsBZj5,3e9vauv7czrnvucm8noapw1mqoqyaq,36h9ulyp667ujgwpo5e1iutgxv7jf9,ndQsBZj5,2020-0188,2020-06-04,18:58:58,19:28:22,NA,incomplete,121,race,2,1,left,C_M_05.jpg,C_F_13.jpg,A_M_09.jpg,left,1606.5399999788497,true,low,false
ndQsBZj5,3e9vauv7czrnvucm8noapw1mqoqyaq,36h9ulyp667ujgwpo5e1iutgxv7jf9,ndQsBZj5,2020-0188,2020-06-04,18:58:58,19:28:22,NA,incomplete,122,race,2,1,right,A_F_10.jpg,C_F_14.jpg,A_M_07.jpg,left,1262.959999992745,false,low,false
ndQsBZj5,3e9vauv7czrnvucm8noapw1mqoqyaq,36h9ulyp667ujgwpo5e1iutgxv7jf9,ndQsBZj5,2020-0188,2020-06-04,18:58:58,19:28:22,NA,incomplete,123,race,2,1,right,A_F_01.jpg,C_F_09.jpg,A_M_13.jpg,right,1227.3050000076182,true,low,false
ndQsBZj5,3e9vauv7czrnvucm8noapw1mqoqyaq,36h9ulyp667ujgwpo5e1iutgxv7jf9,ndQsBZj5,2020-0188,2020-06-04,18:58:58,19:28:22,NA,incomplete,124,race,2,1,right,A_F_05.jpg,C_F_13.jpg,A_M_07.jpg,left,660.5600000184495,false,low,false
ndQsBZj5,3e9vauv7czrnvucm8noapw1mqoqyaq,36h9ulyp667ujgwpo5e1iutgxv7jf9,ndQsBZj5,2020-0188,2020-06-04,18:58:58,19:28:22,NA,incomplete,125,race,2,1,right,A_F_10.jpg,C_F_11.jpg,A_M_15.jpg,right,830.1600000122562,true,low,false
ndQsBZj5,3e9vauv7czrnvucm8noapw1mqoqyaq,36h9ulyp667ujgwpo5e1iutgxv7jf9,ndQsBZj5,2020-0188,2020-06-04,18:58:58,19:28:22,NA,incomplete,126,race,2,0,left,A_F_02.jpg,A_M_13.jpg,C_F_01.jpg,left,725.9099999791943,true,low,false
ndQsBZj5,3e9vauv7czrnvucm8noapw1mqoqyaq,36h9ulyp667ujgwpo5e1iutgxv7jf9,ndQsBZj5,2020-0188,2020-06-04,18:58:58,19:28:22,NA,incomplete,127,race,2,1,left,C_F_12.jpg,C_M_04.jpg,A_F_15.jpg,right,960.7149999937974,false,low,false
ndQsBZj5,3e9vauv7czrnvucm8noapw1mqoqyaq,36h9ulyp667ujgwpo5e1iutgxv7jf9,ndQsBZj5,2020-0188,2020-06-04,18:58:58,19:28:22,NA,incomplete,128,race,2,1,left,C_M_12.jpg,C_F_15.jpg,A_M_13.jpg,left,1145.250000001397,true,low,false
ndQsBZj5,3e9vauv7czrnvucm8noapw1mqoqyaq,36h9ulyp667ujgwpo5e1iutgxv7jf9,ndQsBZj5,2020-0188,2020-06-04,18:58:58,19:28:22,NA,incomplete,129,race,2,0,left,C_M_12.jpg,C_F_13.jpg,A_M_04.jpg,right,1143.8449999841396,false,low,false
ndQsBZj5,3e9vauv7czrnvucm8noapw1mqoqyaq,36h9ulyp667ujgwpo5e1iutgxv7jf9,ndQsBZj5,2020-0188,2020-06-04,18:58:58,19:28:22,NA,incomplete,130,race,2,1,left,A_M_14.jpg,A_F_12.jpg,C_M_02.jpg,right,895.7099999825004,false,low,false
ndQsBZj5,3e9vauv7czrnvucm8noapw1mqoqyaq,36h9ulyp667ujgwpo5e1iutgxv7jf9,ndQsBZj5,2020-0188,2020-06-04,18:58:58,19:28:22,NA,incomplete,131,race,2,0,right,C_F_03.jpg,A_F_11.jpg,C_M_04.jpg,left,1385.9449999872595,false,low,false
ndQsBZj5,3e9vauv7czrnvucm8noapw1mqoqyaq,36h9ulyp667ujgwpo5e1iutgxv7jf9,ndQsBZj5,2020-0188,2020-06-04,18:58:58,19:28:22,NA,incomplete,132,race,2,1,left,A_M_07.jpg,A_F_08.jpg,C_M_13.jpg,left,42.665000015404075,true,low,false
ndQsBZj5,3e9vauv7czrnvucm8noapw1mqoqyaq,36h9ulyp667ujgwpo5e1iutgxv7jf9,ndQsBZj5,2020-0188,2020-06-04,18:58:58,19:28:22,NA,incomplete,133,race,2,0,right,A_F_02.jpg,C_F_07.jpg,A_M_04.jpg,left,999.2999999958556,false,low,false
ndQsBZj5,3e9vauv7czrnvucm8noapw1mqoqyaq,36h9ulyp667ujgwpo5e1iutgxv7jf9,ndQsBZj5,2020-0188,2020-06-04,18:58:58,19:28:22,NA,incomplete,134,race,2,1,right,A_F_15.jpg,C_F_11.jpg,A_M_01.jpg,left,880.7749999978114,false,low,false
ndQsBZj5,3e9vauv7czrnvucm8noapw1mqoqyaq,36h9ulyp667ujgwpo5e1iutgxv7jf9,ndQsBZj5,2020-0188,2020-06-04,18:58:58,19:28:22,NA,incomplete,135,race,2,1,left,A_F_11.jpg,A_M_13.jpg,C_F_07.jpg,right,887.7799999900162,false,low,false
ndQsBZj5,3e9vauv7czrnvucm8noapw1mqoqyaq,36h9ulyp667ujgwpo5e1iutgxv7jf9,ndQsBZj5,2020-0188,2020-06-04,18:58:58,19:28:22,NA,incomplete,136,race,2,1,left,A_F_01.jpg,A_M_05.jpg,C_F_14.jpg,left,880.3550000011455,true,low,false
ndQsBZj5,3e9vauv7czrnvucm8noapw1mqoqyaq,36h9ulyp667ujgwpo5e1iutgxv7jf9,ndQsBZj5,2020-0188,2020-06-04,18:58:58,19:28:22,NA,incomplete,137,race,2,1,right,A_M_11.jpg,C_M_02.jpg,A_F_08.jpg,right,897.434999991674,true,low,false
ndQsBZj5,3e9vauv7czrnvucm8noapw1mqoqyaq,36h9ulyp667ujgwpo5e1iutgxv7jf9,ndQsBZj5,2020-0188,2020-06-04,18:58:58,19:28:22,NA,incomplete,138,race,2,0,right,C_M_16.jpg,A_M_14.jpg,C_F_10.jpg,right,1066.2050000100862,true,low,false
ndQsBZj5,3e9vauv7czrnvucm8noapw1mqoqyaq,36h9ulyp667ujgwpo5e1iutgxv7jf9,ndQsBZj5,2020-0188,2020-06-04,18:58:58,19:28:22,NA,incomplete,139,race,2,1,left,C_M_15.jpg,C_F_11.jpg,A_M_09.jpg,left,1196.8350000097416,true,low,false
ndQsBZj5,3e9vauv7czrnvucm8noapw1mqoqyaq,36h9ulyp667ujgwpo5e1iutgxv7jf9,ndQsBZj5,2020-0188,2020-06-04,18:58:58,19:28:22,NA,incomplete,140,gender,3,0,right,A_M_03.jpg,A_F_14.jpg,C_M_15.jpg,left,1036.599999992177,false,low,false
ndQsBZj5,3e9vauv7czrnvucm8noapw1mqoqyaq,36h9ulyp667ujgwpo5e1iutgxv7jf9,ndQsBZj5,2020-0188,2020-06-04,18:58:58,19:28:22,NA,incomplete,141,gender,3,1,right,A_M_15.jpg,A_F_12.jpg,C_M_06.jpg,left,1330.2200000034645,false,low,false
ndQsBZj5,3e9vauv7czrnvucm8noapw1mqoqyaq,36h9ulyp667ujgwpo5e1iutgxv7jf9,ndQsBZj5,2020-0188,2020-06-04,18:58:58,19:28:22,NA,incomplete,142,gender,3,0,left,A_F_02.jpg,C_F_09.jpg,A_M_13.jpg,right,843.9899999939371,false,low,false
ndQsBZj5,3e9vauv7czrnvucm8noapw1mqoqyaq,36h9ulyp667ujgwpo5e1iutgxv7jf9,ndQsBZj5,2020-0188,2020-06-04,18:58:58,19:28:22,NA,incomplete,143,gender,3,1,right,A_F_01.jpg,A_M_16.jpg,C_F_11.jpg,left,1003.9300000062212,false,low,false
ndQsBZj5,3e9vauv7czrnvucm8noapw1mqoqyaq,36h9ulyp667ujgwpo5e1iutgxv7jf9,ndQsBZj5,2020-0188,2020-06-04,18:58:58,19:28:22,NA,incomplete,144,gender,3,1,right,A_M_13.jpg,A_F_12.jpg,C_M_04.jpg,left,899.7249999956694,false,low,false
ndQsBZj5,3e9vauv7czrnvucm8noapw1mqoqyaq,36h9ulyp667ujgwpo5e1iutgxv7jf9,ndQsBZj5,2020-0188,2020-06-04,18:58:58,19:28:22,NA,incomplete,145,gender,3,1,right,C_M_06.jpg,C_F_07.jpg,A_M_13.jpg,right,949.3099999963306,true,low,false
ndQsBZj5,3e9vauv7czrnvucm8noapw1mqoqyaq,36h9ulyp667ujgwpo5e1iutgxv7jf9,ndQsBZj5,2020-0188,2020-06-04,18:58:58,19:28:22,NA,incomplete,146,gender,3,1,right,C_M_05.jpg,C_F_03.jpg,A_M_02.jpg,right,220.64499999396503,true,low,false
ndQsBZj5,3e9vauv7czrnvucm8noapw1mqoqyaq,36h9ulyp667ujgwpo5e1iutgxv7jf9,ndQsBZj5,2020-0188,2020-06-04,18:58:58,19:28:22,NA,incomplete,147,gender,3,0,right,A_M_06.jpg,A_F_10.jpg,C_M_08.jpg,right,718.2999999786261,true,low,false
ndQsBZj5,3e9vauv7czrnvucm8noapw1mqoqyaq,36h9ulyp667ujgwpo5e1iutgxv7jf9,ndQsBZj5,2020-0188,2020-06-04,18:58:58,19:28:22,NA,incomplete,148,gender,3,1,left,A_F_13.jpg,C_F_14.jpg,A_M_11.jpg,left,851.3699999894015,true,low,false
ndQsBZj5,3e9vauv7czrnvucm8noapw1mqoqyaq,36h9ulyp667ujgwpo5e1iutgxv7jf9,ndQsBZj5,2020-0188,2020-06-04,18:58:58,19:28:22,NA,incomplete,149,gender,3,1,right,A_F_05.jpg,A_M_16.jpg,C_F_07.jpg,right,883.1650000065565,true,low,false
ndQsBZj5,3e9vauv7czrnvucm8noapw1mqoqyaq,36h9ulyp667ujgwpo5e1iutgxv7jf9,ndQsBZj5,2020-0188,2020-06-04,18:58:58,19:28:22,NA,incomplete,150,gender,3,1,right,A_M_03.jpg,A_F_15.jpg,C_M_14.jpg,right,813.1899999862071,true,low,false
ndQsBZj5,3e9vauv7czrnvucm8noapw1mqoqyaq,36h9ulyp667ujgwpo5e1iutgxv7jf9,ndQsBZj5,2020-0188,2020-06-04,18:58:58,19:28:22,NA,incomplete,151,gender,3,0,right,A_M_06.jpg,A_F_03.jpg,C_M_10.jpg,right,809.979999990901,true,low,false
ndQsBZj5,3e9vauv7czrnvucm8noapw1mqoqyaq,36h9ulyp667ujgwpo5e1iutgxv7jf9,ndQsBZj5,2020-0188,2020-06-04,18:58:58,19:28:22,NA,incomplete,152,gender,3,1,right,C_M_09.jpg,C_F_08.jpg,A_M_11.jpg,right,735.3750000183936,true,low,false
ndQsBZj5,3e9vauv7czrnvucm8noapw1mqoqyaq,36h9ulyp667ujgwpo5e1iutgxv7jf9,ndQsBZj5,2020-0188,2020-06-04,18:58:58,19:28:22,NA,incomplete,153,gender,3,1,left,A_M_04.jpg,C_M_08.jpg,A_F_06.jpg,right,1109.775000018999,false,low,false
ndQsBZj5,3e9vauv7czrnvucm8noapw1mqoqyaq,36h9ulyp667ujgwpo5e1iutgxv7jf9,ndQsBZj5,2020-0188,2020-06-04,18:58:58,19:28:22,NA,incomplete,154,gender,3,1,right,A_F_13.jpg,A_M_09.jpg,C_F_16.jpg,right,879.1349999955855,true,low,false
ndQsBZj5,3e9vauv7czrnvucm8noapw1mqoqyaq,36h9ulyp667ujgwpo5e1iutgxv7jf9,ndQsBZj5,2020-0188,2020-06-04,18:58:58,19:28:22,NA,incomplete,155,gender,3,1,left,A_F_14.jpg,C_F_02.jpg,A_M_11.jpg,left,956.080000003567,true,low,false
ndQsBZj5,3e9vauv7czrnvucm8noapw1mqoqyaq,36h9ulyp667ujgwpo5e1iutgxv7jf9,ndQsBZj5,2020-0188,2020-06-04,18:58:58,19:28:22,NA,incomplete,156,gender,3,1,right,A_M_01.jpg,A_F_03.jpg,C_M_11.jpg,right,1625.1549999869894,true,low,false
ndQsBZj5,3e9vauv7czrnvucm8noapw1mqoqyaq,36h9ulyp667ujgwpo5e1iutgxv7jf9,ndQsBZj5,2020-0188,2020-06-04,18:58:58,19:28:22,NA,incomplete,157,gender,3,1,left,C_M_15.jpg,A_M_02.jpg,C_F_13.jpg,left,1274.3499999924097,true,low,false
ndQsBZj5,3e9vauv7czrnvucm8noapw1mqoqyaq,36h9ulyp667ujgwpo5e1iutgxv7jf9,ndQsBZj5,2020-0188,2020-06-04,18:58:58,19:28:22,NA,incomplete,158,gender,3,1,left,A_M_08.jpg,C_M_05.jpg,A_F_06.jpg,left,932.3499999882188,true,low,false
ndQsBZj5,3e9vauv7czrnvucm8noapw1mqoqyaq,36h9ulyp667ujgwpo5e1iutgxv7jf9,ndQsBZj5,2020-0188,2020-06-04,18:58:58,19:28:22,NA,incomplete,159,gender,3,1,right,C_M_03.jpg,C_F_12.jpg,A_M_02.jpg,right,1018.3400000096299,true,low,false
ndQsBZj5,3e9vauv7czrnvucm8noapw1mqoqyaq,36h9ulyp667ujgwpo5e1iutgxv7jf9,ndQsBZj5,2020-0188,2020-06-04,18:58:58,19:28:22,NA,incomplete,160,race,2,1,right,A_F_10.jpg,C_F_08.jpg,A_M_16.jpg,left,808.6699999985285,false,low,false
ndQsBZj5,3e9vauv7czrnvucm8noapw1mqoqyaq,36h9ulyp667ujgwpo5e1iutgxv7jf9,ndQsBZj5,2020-0188,2020-06-04,18:58:58,19:28:22,NA,incomplete,161,race,2,1,right,A_F_12.jpg,C_F_15.jpg,A_M_01.jpg,left,1210.3799999749754,false,low,false
ndQsBZj5,3e9vauv7czrnvucm8noapw1mqoqyaq,36h9ulyp667ujgwpo5e1iutgxv7jf9,ndQsBZj5,2020-0188,2020-06-04,18:58:58,19:28:22,NA,incomplete,162,race,2,1,right,C_M_01.jpg,A_M_14.jpg,C_F_04.jpg,left,798.8300000142772,false,low,false
ndQsBZj5,3e9vauv7czrnvucm8noapw1mqoqyaq,36h9ulyp667ujgwpo5e1iutgxv7jf9,ndQsBZj5,2020-0188,2020-06-04,18:58:58,19:28:22,NA,incomplete,163,race,2,1,right,C_M_14.jpg,A_M_03.jpg,C_F_12.jpg,right,1361.54000001261,true,low,false
ndQsBZj5,3e9vauv7czrnvucm8noapw1mqoqyaq,36h9ulyp667ujgwpo5e1iutgxv7jf9,ndQsBZj5,2020-0188,2020-06-04,18:58:58,19:28:22,NA,incomplete,164,race,2,1,right,A_F_07.jpg,C_F_03.jpg,A_M_13.jpg,right,900.3150000062305,true,low,false
ndQsBZj5,3e9vauv7czrnvucm8noapw1mqoqyaq,36h9ulyp667ujgwpo5e1iutgxv7jf9,ndQsBZj5,2020-0188,2020-06-04,18:58:58,19:28:22,NA,incomplete,165,race,2,1,left,C_M_07.jpg,C_F_09.jpg,A_M_05.jpg,left,939.0200000198092,true,low,false
ndQsBZj5,3e9vauv7czrnvucm8noapw1mqoqyaq,36h9ulyp667ujgwpo5e1iutgxv7jf9,ndQsBZj5,2020-0188,2020-06-04,18:58:58,19:28:22,NA,incomplete,166,race,2,1,right,A_F_03.jpg,C_F_13.jpg,A_M_07.jpg,right,822.2649999952409,true,low,false
ndQsBZj5,3e9vauv7czrnvucm8noapw1mqoqyaq,36h9ulyp667ujgwpo5e1iutgxv7jf9,ndQsBZj5,2020-0188,2020-06-04,18:58:58,19:28:22,NA,incomplete,167,race,2,1,left,C_F_08.jpg,C_M_13.jpg,A_F_15.jpg,left,1021.5099999913946,true,low,false
ndQsBZj5,3e9vauv7czrnvucm8noapw1mqoqyaq,36h9ulyp667ujgwpo5e1iutgxv7jf9,ndQsBZj5,2020-0188,2020-06-04,18:58:58,19:28:22,NA,incomplete,168,race,2,1,left,C_F_10.jpg,C_M_04.jpg,A_F_08.jpg,left,867.4450000107754,true,low,false
ndQsBZj5,3e9vauv7czrnvucm8noapw1mqoqyaq,36h9ulyp667ujgwpo5e1iutgxv7jf9,ndQsBZj5,2020-0188,2020-06-04,18:58:58,19:28:22,NA,incomplete,169,race,2,1,right,C_F_14.jpg,A_F_09.jpg,C_M_02.jpg,right,1000.0550000113435,true,low,false
ndQsBZj5,3e9vauv7czrnvucm8noapw1mqoqyaq,36h9ulyp667ujgwpo5e1iutgxv7jf9,ndQsBZj5,2020-0188,2020-06-04,18:58:58,19:28:22,NA,incomplete,170,race,2,1,right,C_M_11.jpg,A_M_12.jpg,C_F_08.jpg,right,1078.685000014957,true,low,false
ndQsBZj5,3e9vauv7czrnvucm8noapw1mqoqyaq,36h9ulyp667ujgwpo5e1iutgxv7jf9,ndQsBZj5,2020-0188,2020-06-04,18:58:58,19:28:22,NA,incomplete,171,race,2,1,left,A_M_02.jpg,A_F_04.jpg,C_M_07.jpg,left,1351.714999997057,true,low,false
ndQsBZj5,3e9vauv7czrnvucm8noapw1mqoqyaq,36h9ulyp667ujgwpo5e1iutgxv7jf9,ndQsBZj5,2020-0188,2020-06-04,18:58:58,19:28:22,NA,incomplete,172,race,2,1,right,A_M_15.jpg,C_M_08.jpg,A_F_09.jpg,right,754.2150000226684,true,low,false
ndQsBZj5,3e9vauv7czrnvucm8noapw1mqoqyaq,36h9ulyp667ujgwpo5e1iutgxv7jf9,ndQsBZj5,2020-0188,2020-06-04,18:58:58,19:28:22,NA,incomplete,173,race,2,1,left,A_F_10.jpg,A_M_14.jpg,C_F_12.jpg,left,812.434999999823,true,low,false
ndQsBZj5,3e9vauv7czrnvucm8noapw1mqoqyaq,36h9ulyp667ujgwpo5e1iutgxv7jf9,ndQsBZj5,2020-0188,2020-06-04,18:58:58,19:28:22,NA,incomplete,174,race,2,1,left,C_F_11.jpg,C_M_07.jpg,A_F_16.jpg,right,1028.4699999901932,false,low,false
ndQsBZj5,3e9vauv7czrnvucm8noapw1mqoqyaq,36h9ulyp667ujgwpo5e1iutgxv7jf9,ndQsBZj5,2020-0188,2020-06-04,18:58:58,19:28:22,NA,incomplete,175,race,2,1,right,C_F_01.jpg,A_F_12.jpg,C_M_16.jpg,right,941.1649999965448,true,low,false
ndQsBZj5,3e9vauv7czrnvucm8noapw1mqoqyaq,36h9ulyp667ujgwpo5e1iutgxv7jf9,ndQsBZj5,2020-0188,2020-06-04,18:58:58,19:28:22,NA,incomplete,176,race,2,1,left,A_M_02.jpg,A_F_07.jpg,C_M_05.jpg,left,923.9449999877252,true,low,false
ndQsBZj5,3e9vauv7czrnvucm8noapw1mqoqyaq,36h9ulyp667ujgwpo5e1iutgxv7jf9,ndQsBZj5,2020-0188,2020-06-04,18:58:58,19:28:22,NA,incomplete,177,race,2,0,right,C_F_06.jpg,A_F_11.jpg,C_M_14.jpg,right,816.4799999794923,true,low,false
ndQsBZj5,3e9vauv7czrnvucm8noapw1mqoqyaq,36h9ulyp667ujgwpo5e1iutgxv7jf9,ndQsBZj5,2020-0188,2020-06-04,18:58:58,19:28:22,NA,incomplete,178,race,2,1,left,A_F_05.jpg,A_M_09.jpg,C_F_13.jpg,left,777.3450000095181,true,low,false
ndQsBZj5,3e9vauv7czrnvucm8noapw1mqoqyaq,36h9ulyp667ujgwpo5e1iutgxv7jf9,ndQsBZj5,2020-0188,2020-06-04,18:58:58,19:28:22,NA,incomplete,179,race,2,1,left,A_F_15.jpg,A_M_01.jpg,C_F_09.jpg,left,992.3800000105985,true,low,false
ndQsBZj5,3e9vauv7czrnvucm8noapw1mqoqyaq,36h9ulyp667ujgwpo5e1iutgxv7jf9,ndQsBZj5,2020-0188,2020-06-04,18:58:58,19:28:22,NA,incomplete,180,gender,3,0,left,C_F_07.jpg,A_F_05.jpg,C_M_16.jpg,right,1053.4899999911431,false,low,false
ndQsBZj5,3e9vauv7czrnvucm8noapw1mqoqyaq,36h9ulyp667ujgwpo5e1iutgxv7jf9,ndQsBZj5,2020-0188,2020-06-04,18:58:58,19:28:22,NA,incomplete,181,gender,3,1,left,A_M_12.jpg,C_M_09.jpg,A_F_07.jpg,right,1384.1450000181794,false,low,false
ndQsBZj5,3e9vauv7czrnvucm8noapw1mqoqyaq,36h9ulyp667ujgwpo5e1iutgxv7jf9,ndQsBZj5,2020-0188,2020-06-04,18:58:58,19:28:22,NA,incomplete,182,gender,3,0,left,C_M_11.jpg,A_M_12.jpg,C_F_04.jpg,right,1139.3649999808986,false,low,false
ndQsBZj5,3e9vauv7czrnvucm8noapw1mqoqyaq,36h9ulyp667ujgwpo5e1iutgxv7jf9,ndQsBZj5,2020-0188,2020-06-04,18:58:58,19:28:22,NA,incomplete,183,gender,3,1,left,A_F_05.jpg,C_F_03.jpg,A_M_01.jpg,right,1041.189999989001,false,low,false
ndQsBZj5,3e9vauv7czrnvucm8noapw1mqoqyaq,36h9ulyp667ujgwpo5e1iutgxv7jf9,ndQsBZj5,2020-0188,2020-06-04,18:58:58,19:28:22,NA,incomplete,184,gender,3,1,left,A_F_05.jpg,C_F_10.jpg,A_M_04.jpg,right,885.1900000008754,false,low,false
ndQsBZj5,3e9vauv7czrnvucm8noapw1mqoqyaq,36h9ulyp667ujgwpo5e1iutgxv7jf9,ndQsBZj5,2020-0188,2020-06-04,18:58:58,19:28:22,NA,incomplete,185,gender,3,1,left,A_F_11.jpg,C_F_13.jpg,A_M_03.jpg,left,795.1299999840558,true,low,false
ndQsBZj5,3e9vauv7czrnvucm8noapw1mqoqyaq,36h9ulyp667ujgwpo5e1iutgxv7jf9,ndQsBZj5,2020-0188,2020-06-04,18:58:58,19:28:22,NA,incomplete,186,gender,3,1,right,C_M_11.jpg,C_F_09.jpg,A_M_07.jpg,right,884.5299999811687,true,low,false
ndQsBZj5,3e9vauv7czrnvucm8noapw1mqoqyaq,36h9ulyp667ujgwpo5e1iutgxv7jf9,ndQsBZj5,2020-0188,2020-06-04,18:58:58,19:28:22,NA,incomplete,187,gender,3,1,right,A_F_08.jpg,A_M_05.jpg,C_F_14.jpg,right,874.5899999921676,true,low,false
ndQsBZj5,3e9vauv7czrnvucm8noapw1mqoqyaq,36h9ulyp667ujgwpo5e1iutgxv7jf9,ndQsBZj5,2020-0188,2020-06-04,18:58:58,19:28:22,NA,incomplete,188,gender,3,0,right,C_F_12.jpg,C_M_08.jpg,A_F_13.jpg,right,890.7199999957811,true,low,false
ndQsBZj5,3e9vauv7czrnvucm8noapw1mqoqyaq,36h9ulyp667ujgwpo5e1iutgxv7jf9,ndQsBZj5,2020-0188,2020-06-04,18:58:58,19:28:22,NA,incomplete,189,gender,3,1,left,C_F_14.jpg,A_F_01.jpg,C_M_02.jpg,left,1180.7499999995343,true,low,false
ndQsBZj5,3e9vauv7czrnvucm8noapw1mqoqyaq,36h9ulyp667ujgwpo5e1iutgxv7jf9,ndQsBZj5,2020-0188,2020-06-04,18:58:58,19:28:22,NA,incomplete,190,gender,3,1,right,A_F_10.jpg,A_M_13.jpg,C_F_15.jpg,right,780.2300000039395,true,low,false
ndQsBZj5,3e9vauv7czrnvucm8noapw1mqoqyaq,36h9ulyp667ujgwpo5e1iutgxv7jf9,ndQsBZj5,2020-0188,2020-06-04,18:58:58,19:28:22,NA,incomplete,191,gender,3,1,right,A_F_04.jpg,A_M_02.jpg,C_F_06.jpg,right,609.3300000065938,true,low,false
ndQsBZj5,3e9vauv7czrnvucm8noapw1mqoqyaq,36h9ulyp667ujgwpo5e1iutgxv7jf9,ndQsBZj5,2020-0188,2020-06-04,18:58:58,19:28:22,NA,incomplete,192,gender,3,1,right,A_M_06.jpg,A_F_03.jpg,C_M_02.jpg,right,870.7350000040606,true,low,false
ndQsBZj5,3e9vauv7czrnvucm8noapw1mqoqyaq,36h9ulyp667ujgwpo5e1iutgxv7jf9,ndQsBZj5,2020-0188,2020-06-04,18:58:58,19:28:22,NA,incomplete,193,gender,3,1,right,C_M_09.jpg,C_F_07.jpg,A_M_06.jpg,right,639.6999999997206,true,low,false
ndQsBZj5,3e9vauv7czrnvucm8noapw1mqoqyaq,36h9ulyp667ujgwpo5e1iutgxv7jf9,ndQsBZj5,2020-0188,2020-06-04,18:58:58,19:28:22,NA,incomplete,194,gender,3,1,right,A_F_14.jpg,A_M_02.jpg,C_F_03.jpg,right,883.3750000048894,true,low,false
ndQsBZj5,3e9vauv7czrnvucm8noapw1mqoqyaq,36h9ulyp667ujgwpo5e1iutgxv7jf9,ndQsBZj5,2020-0188,2020-06-04,18:58:58,19:28:22,NA,incomplete,195,gender,3,1,right,A_M_11.jpg,A_F_14.jpg,C_M_03.jpg,right,739.0500000037719,true,low,false
ndQsBZj5,3e9vauv7czrnvucm8noapw1mqoqyaq,36h9ulyp667ujgwpo5e1iutgxv7jf9,ndQsBZj5,2020-0188,2020-06-04,18:58:58,19:28:22,NA,incomplete,196,gender,3,1,left,A_F_04.jpg,C_F_06.jpg,A_M_12.jpg,left,809.8750000062864,true,low,false
ndQsBZj5,3e9vauv7czrnvucm8noapw1mqoqyaq,36h9ulyp667ujgwpo5e1iutgxv7jf9,ndQsBZj5,2020-0188,2020-06-04,18:58:58,19:28:22,NA,incomplete,197,gender,3,0,left,C_M_12.jpg,A_M_03.jpg,C_F_04.jpg,left,867.4400000018068,true,low,false
ndQsBZj5,3e9vauv7czrnvucm8noapw1mqoqyaq,36h9ulyp667ujgwpo5e1iutgxv7jf9,ndQsBZj5,2020-0188,2020-06-04,18:58:58,19:28:22,NA,incomplete,198,gender,3,1,right,C_M_09.jpg,C_F_12.jpg,A_M_04.jpg,right,915.2400000020862,true,low,false
ndQsBZj5,3e9vauv7czrnvucm8noapw1mqoqyaq,36h9ulyp667ujgwpo5e1iutgxv7jf9,ndQsBZj5,2020-0188,2020-06-04,18:58:58,19:28:22,NA,incomplete,199,gender,3,1,right,A_F_09.jpg,A_M_07.jpg,C_F_14.jpg,right,938.4199999913108,true,low,false
ndQsBZj5,3e9vauv7czrnvucm8noapw1mqoqyaq,36h9ulyp667ujgwpo5e1iutgxv7jf9,ndQsBZj5,2020-0188,2020-06-04,18:58:58,19:28:22,NA,incomplete,200,race,2,1,right,A_M_10.jpg,C_M_15.jpg,A_F_11.jpg,right,942.4549999821465,true,low,false
ndQsBZj5,3e9vauv7czrnvucm8noapw1mqoqyaq,36h9ulyp667ujgwpo5e1iutgxv7jf9,ndQsBZj5,2020-0188,2020-06-04,18:58:58,19:28:22,NA,incomplete,201,race,2,1,left,A_F_07.jpg,A_M_10.jpg,C_F_02.jpg,left,988.0949999787845,true,low,false
ndQsBZj5,3e9vauv7czrnvucm8noapw1mqoqyaq,36h9ulyp667ujgwpo5e1iutgxv7jf9,ndQsBZj5,2020-0188,2020-06-04,18:58:58,19:28:22,NA,incomplete,202,race,2,1,right,C_M_07.jpg,A_M_01.jpg,C_F_11.jpg,right,1492.27499999688,true,low,false
ndQsBZj5,3e9vauv7czrnvucm8noapw1mqoqyaq,36h9ulyp667ujgwpo5e1iutgxv7jf9,ndQsBZj5,2020-0188,2020-06-04,18:58:58,19:28:22,NA,incomplete,203,race,2,1,left,A_F_11.jpg,A_M_10.jpg,C_F_05.jpg,right,146.11000000149943,false,low,false
ndQsBZj5,3e9vauv7czrnvucm8noapw1mqoqyaq,36h9ulyp667ujgwpo5e1iutgxv7jf9,ndQsBZj5,2020-0188,2020-06-04,18:58:58,19:28:22,NA,incomplete,204,race,2,1,right,C_M_02.jpg,A_M_10.jpg,C_F_07.jpg,left,1208.1149999867193,false,low,false
ndQsBZj5,3e9vauv7czrnvucm8noapw1mqoqyaq,36h9ulyp667ujgwpo5e1iutgxv7jf9,ndQsBZj5,2020-0188,2020-06-04,18:58:58,19:28:22,NA,incomplete,205,race,2,0,right,C_F_06.jpg,A_F_13.jpg,C_M_11.jpg,right,871.9949999940582,true,low,false
ndQsBZj5,3e9vauv7czrnvucm8noapw1mqoqyaq,36h9ulyp667ujgwpo5e1iutgxv7jf9,ndQsBZj5,2020-0188,2020-06-04,18:58:58,19:28:22,NA,incomplete,206,race,2,1,left,C_F_07.jpg,C_M_06.jpg,A_F_01.jpg,right,925.3800000005867,false,low,false
ndQsBZj5,3e9vauv7czrnvucm8noapw1mqoqyaq,36h9ulyp667ujgwpo5e1iutgxv7jf9,ndQsBZj5,2020-0188,2020-06-04,18:58:58,19:28:22,NA,incomplete,207,race,2,1,left,C_M_05.jpg,C_F_10.jpg,A_M_02.jpg,right,867.4349999928381,false,low,false
ndQsBZj5,3e9vauv7czrnvucm8noapw1mqoqyaq,36h9ulyp667ujgwpo5e1iutgxv7jf9,ndQsBZj5,2020-0188,2020-06-04,18:58:58,19:28:22,NA,incomplete,208,race,2,1,left,A_F_08.jpg,A_M_03.jpg,C_F_02.jpg,left,831.4299999910872,true,low,false
ndQsBZj5,3e9vauv7czrnvucm8noapw1mqoqyaq,36h9ulyp667ujgwpo5e1iutgxv7jf9,ndQsBZj5,2020-0188,2020-06-04,18:58:58,19:28:22,NA,incomplete,209,race,2,1,right,A_M_01.jpg,C_M_08.jpg,A_F_11.jpg,right,986.8999999889638,true,low,false
ndQsBZj5,3e9vauv7czrnvucm8noapw1mqoqyaq,36h9ulyp667ujgwpo5e1iutgxv7jf9,ndQsBZj5,2020-0188,2020-06-04,18:58:58,19:28:22,NA,incomplete,210,race,2,1,left,C_M_06.jpg,C_F_01.jpg,A_M_05.jpg,left,808.0250000057276,true,low,false
ndQsBZj5,3e9vauv7czrnvucm8noapw1mqoqyaq,36h9ulyp667ujgwpo5e1iutgxv7jf9,ndQsBZj5,2020-0188,2020-06-04,18:58:58,19:28:22,NA,incomplete,211,race,2,1,left,C_M_04.jpg,C_F_14.jpg,A_M_09.jpg,left,832.940000022063,true,low,false
ndQsBZj5,3e9vauv7czrnvucm8noapw1mqoqyaq,36h9ulyp667ujgwpo5e1iutgxv7jf9,ndQsBZj5,2020-0188,2020-06-04,18:58:58,19:28:22,NA,incomplete,212,race,2,0,left,A_M_03.jpg,A_F_15.jpg,C_M_01.jpg,left,858.7349999870639,true,low,false
ndQsBZj5,3e9vauv7czrnvucm8noapw1mqoqyaq,36h9ulyp667ujgwpo5e1iutgxv7jf9,ndQsBZj5,2020-0188,2020-06-04,18:58:58,19:28:22,NA,incomplete,213,race,2,1,right,A_M_15.jpg,C_M_02.jpg,A_F_03.jpg,right,862.1900000143796,true,low,false
ndQsBZj5,3e9vauv7czrnvucm8noapw1mqoqyaq,36h9ulyp667ujgwpo5e1iutgxv7jf9,ndQsBZj5,2020-0188,2020-06-04,18:58:58,19:28:22,NA,incomplete,214,race,2,1,right,C_M_16.jpg,A_M_13.jpg,C_F_06.jpg,right,882.1900000039022,true,low,false
ndQsBZj5,3e9vauv7czrnvucm8noapw1mqoqyaq,36h9ulyp667ujgwpo5e1iutgxv7jf9,ndQsBZj5,2020-0188,2020-06-04,18:58:58,19:28:22,NA,incomplete,215,race,2,0,left,C_M_15.jpg,C_F_14.jpg,A_M_16.jpg,left,1131.794999993872,true,low,false
ndQsBZj5,3e9vauv7czrnvucm8noapw1mqoqyaq,36h9ulyp667ujgwpo5e1iutgxv7jf9,ndQsBZj5,2020-0188,2020-06-04,18:58:58,19:28:22,NA,incomplete,216,race,2,1,right,C_M_13.jpg,A_M_01.jpg,C_F_09.jpg,right,889.4100000034086,true,low,false
ndQsBZj5,3e9vauv7czrnvucm8noapw1mqoqyaq,36h9ulyp667ujgwpo5e1iutgxv7jf9,ndQsBZj5,2020-0188,2020-06-04,18:58:58,19:28:22,NA,incomplete,217,race,2,1,left,A_M_05.jpg,A_F_01.jpg,C_M_03.jpg,left,995.4150000121444,true,low,false
ndQsBZj5,3e9vauv7czrnvucm8noapw1mqoqyaq,36h9ulyp667ujgwpo5e1iutgxv7jf9,ndQsBZj5,2020-0188,2020-06-04,18:58:58,19:28:22,NA,incomplete,218,race,2,0,right,C_F_12.jpg,A_F_04.jpg,C_M_02.jpg,right,889.6100000129081,true,low,false
ndQsBZj5,3e9vauv7czrnvucm8noapw1mqoqyaq,36h9ulyp667ujgwpo5e1iutgxv7jf9,ndQsBZj5,2020-0188,2020-06-04,18:58:58,19:28:22,NA,incomplete,219,race,2,1,right,C_F_01.jpg,A_F_08.jpg,C_M_09.jpg,right,921.8300000065938,true,low,false
ndQsBZj5,3e9vauv7czrnvucm8noapw1mqoqyaq,36h9ulyp667ujgwpo5e1iutgxv7jf9,ndQsBZj5,2020-0188,2020-06-04,18:58:58,19:28:22,NA,incomplete,220,gender,3,0,left,A_M_03.jpg,C_M_09.jpg,A_F_14.jpg,right,1030.0400000123773,false,low,false
ndQsBZj5,3e9vauv7czrnvucm8noapw1mqoqyaq,36h9ulyp667ujgwpo5e1iutgxv7jf9,ndQsBZj5,2020-0188,2020-06-04,18:58:58,19:28:22,NA,incomplete,221,gender,3,1,left,A_F_11.jpg,C_F_01.jpg,A_M_03.jpg,right,922.4450000037905,false,low,false
ndQsBZj5,3e9vauv7czrnvucm8noapw1mqoqyaq,36h9ulyp667ujgwpo5e1iutgxv7jf9,ndQsBZj5,2020-0188,2020-06-04,18:58:58,19:28:22,NA,incomplete,222,gender,3,1,left,C_M_13.jpg,A_M_08.jpg,C_F_06.jpg,right,809.1050000221003,false,low,false
ndQsBZj5,3e9vauv7czrnvucm8noapw1mqoqyaq,36h9ulyp667ujgwpo5e1iutgxv7jf9,ndQsBZj5,2020-0188,2020-06-04,18:58:58,19:28:22,NA,incomplete,223,gender,3,1,left,C_F_06.jpg,A_F_15.jpg,C_M_12.jpg,left,734.5799999893643,true,low,false
ndQsBZj5,3e9vauv7czrnvucm8noapw1mqoqyaq,36h9ulyp667ujgwpo5e1iutgxv7jf9,ndQsBZj5,2020-0188,2020-06-04,18:58:58,19:28:22,NA,incomplete,224,gender,3,1,left,A_F_03.jpg,C_F_08.jpg,A_M_10.jpg,left,834.1949999739882,true,low,false
ndQsBZj5,3e9vauv7czrnvucm8noapw1mqoqyaq,36h9ulyp667ujgwpo5e1iutgxv7jf9,ndQsBZj5,2020-0188,2020-06-04,18:58:58,19:28:22,NA,incomplete,225,gender,3,1,right,C_M_15.jpg,C_F_11.jpg,A_M_06.jpg,right,967.560000019148,true,low,false
ndQsBZj5,3e9vauv7czrnvucm8noapw1mqoqyaq,36h9ulyp667ujgwpo5e1iutgxv7jf9,ndQsBZj5,2020-0188,2020-06-04,18:58:58,19:28:22,NA,incomplete,226,gender,3,0,left,A_M_08.jpg,C_M_04.jpg,A_F_07.jpg,left,841.6199999919627,true,low,false
ndQsBZj5,3e9vauv7czrnvucm8noapw1mqoqyaq,36h9ulyp667ujgwpo5e1iutgxv7jf9,ndQsBZj5,2020-0188,2020-06-04,18:58:58,19:28:22,NA,incomplete,227,gender,3,1,right,C_M_02.jpg,C_F_10.jpg,A_M_13.jpg,right,1037.0750000001863,true,low,false
ndQsBZj5,3e9vauv7czrnvucm8noapw1mqoqyaq,36h9ulyp667ujgwpo5e1iutgxv7jf9,ndQsBZj5,2020-0188,2020-06-04,18:58:58,19:28:22,NA,incomplete,228,gender,3,1,right,C_F_01.jpg,C_M_02.jpg,A_F_13.jpg,right,865.5950000102166,true,low,false
ndQsBZj5,3e9vauv7czrnvucm8noapw1mqoqyaq,36h9ulyp667ujgwpo5e1iutgxv7jf9,ndQsBZj5,2020-0188,2020-06-04,18:58:58,19:28:22,NA,incomplete,229,gender,3,1,left,C_F_08.jpg,A_F_11.jpg,C_M_09.jpg,left,954.5799999905284,true,low,false
ndQsBZj5,3e9vauv7czrnvucm8noapw1mqoqyaq,36h9ulyp667ujgwpo5e1iutgxv7jf9,ndQsBZj5,2020-0188,2020-06-04,18:58:58,19:28:22,NA,incomplete,230,gender,3,0,left,C_F_13.jpg,A_F_02.jpg,C_M_01.jpg,left,769.479999988107,true,low,false
ndQsBZj5,3e9vauv7czrnvucm8noapw1mqoqyaq,36h9ulyp667ujgwpo5e1iutgxv7jf9,ndQsBZj5,2020-0188,2020-06-04,18:58:58,19:28:22,NA,incomplete,231,gender,3,1,left,C_M_12.jpg,A_M_10.jpg,C_F_13.jpg,left,1166.7799999995623,true,low,false
ndQsBZj5,3e9vauv7czrnvucm8noapw1mqoqyaq,36h9ulyp667ujgwpo5e1iutgxv7jf9,ndQsBZj5,2020-0188,2020-06-04,18:58:58,19:28:22,NA,incomplete,232,gender,3,0,right,A_F_10.jpg,A_M_02.jpg,C_F_01.jpg,right,1146.439999982249,true,low,false
ndQsBZj5,3e9vauv7czrnvucm8noapw1mqoqyaq,36h9ulyp667ujgwpo5e1iutgxv7jf9,ndQsBZj5,2020-0188,2020-06-04,18:58:58,19:28:22,NA,incomplete,233,gender,3,1,left,C_M_15.jpg,A_M_12.jpg,C_F_06.jpg,left,1099.5750000001863,true,low,false
ndQsBZj5,3e9vauv7czrnvucm8noapw1mqoqyaq,36h9ulyp667ujgwpo5e1iutgxv7jf9,ndQsBZj5,2020-0188,2020-06-04,18:58:58,19:28:22,NA,incomplete,234,gender,3,1,left,C_M_14.jpg,A_M_03.jpg,C_F_09.jpg,left,1216.5350000141189,true,low,false
ndQsBZj5,3e9vauv7czrnvucm8noapw1mqoqyaq,36h9ulyp667ujgwpo5e1iutgxv7jf9,ndQsBZj5,2020-0188,2020-06-04,18:58:58,19:28:22,NA,incomplete,235,gender,3,1,right,C_F_15.jpg,C_M_09.jpg,A_F_07.jpg,right,887.540000025183,true,low,false
ndQsBZj5,3e9vauv7czrnvucm8noapw1mqoqyaq,36h9ulyp667ujgwpo5e1iutgxv7jf9,ndQsBZj5,2020-0188,2020-06-04,18:58:58,19:28:22,NA,incomplete,236,gender,3,0,left,A_F_09.jpg,C_F_03.jpg,A_M_07.jpg,left,950.3449999901932,true,low,false
ndQsBZj5,3e9vauv7czrnvucm8noapw1mqoqyaq,36h9ulyp667ujgwpo5e1iutgxv7jf9,ndQsBZj5,2020-0188,2020-06-04,18:58:58,19:28:22,NA,incomplete,237,gender,3,1,left,A_M_03.jpg,C_M_13.jpg,A_F_12.jpg,left,1343.5949999839067,true,low,false
ndQsBZj5,3e9vauv7czrnvucm8noapw1mqoqyaq,36h9ulyp667ujgwpo5e1iutgxv7jf9,ndQsBZj5,2020-0188,2020-06-04,18:58:58,19:28:22,NA,incomplete,238,gender,3,1,right,A_F_16.jpg,A_M_01.jpg,C_F_10.jpg,right,949.0899999800604,true,low,false
ndQsBZj5,3e9vauv7czrnvucm8noapw1mqoqyaq,36h9ulyp667ujgwpo5e1iutgxv7jf9,ndQsBZj5,2020-0188,2020-06-04,18:58:58,19:28:22,NA,incomplete,239,gender,3,1,right,C_F_05.jpg,C_M_16.jpg,A_F_06.jpg,right,930.4549999942537,true,low,false
ndQsBZj5,3e9vauv7czrnvucm8noapw1mqoqyaq,36h9ulyp667ujgwpo5e1iutgxv7jf9,ndQsBZj5,2020-0188,2020-06-04,18:58:58,19:28:22,NA,NA,instruction example,number,NA,NA,NA,Blue_Plus_Chess_2.jpg,Green_Circle_Grid_2.jpg,Blue_Triangle_Stripes_4.jpg,NA,NA,NA,NA,undefined
ndQsBZj5,3e9vauv7czrnvucm8noapw1mqoqyaq,36h9ulyp667ujgwpo5e1iutgxv7jf9,ndQsBZj5,2020-0188,2020-06-04,18:58:58,19:28:22,NA,NA,instruction example,number,NA,NA,NA,Purple_Circle_Stripes_3.jpg,Purple_Star_Grid_4.jpg,Green_Plus_Chess_3.jpg,NA,NA,NA,NA,undefined
ndQsBZj5,3e9vauv7czrnvucm8noapw1mqoqyaq,36h9ulyp667ujgwpo5e1iutgxv7jf9,ndQsBZj5,2020-0188,2020-06-04,18:58:58,19:28:22,NA,NA,instruction example,number,NA,NA,NA,A_F_07.jpg,A_M_13.jpg,C_F_03.jpg,NA,NA,NA,NA,undefined
ndQsBZj5,3e9vauv7czrnvucm8noapw1mqoqyaq,36h9ulyp667ujgwpo5e1iutgxv7jf9,ndQsBZj5,2020-0188,2020-06-04,18:58:58,19:28:22,NA,NA,instruction example,number,NA,NA,NA,C_M_07.jpg,A_M_15.jpg,C_F_12.jpg,NA,NA,NA,NA,undefined
