workerId,hitId,assignmentId,subject,studyid,exp_date,exp_start,exp_end,time_start,time_end,trial,type,sequence,reward_validity,answer,image_top,image_left,image_right,response,response_time,response_acc,volatility,practice
qXSmktJB,3kqc8jmjhf51pencp85cgosduim3h1,36nemu28xjqmvao5hr1t2a7xwr2wmw,qXSmktJB,2020-0188,2020-06-04,13:41:36,14:07:13,NA,incomplete,0,color,0,1,right,Green_Plus_Stripes_2.jpg,Purple_Plus_Dots_3.jpg,Green_Triangle_Grid_1.jpg,none,0,false,NA,true
qXSmktJB,3kqc8jmjhf51pencp85cgosduim3h1,36nemu28xjqmvao5hr1t2a7xwr2wmw,qXSmktJB,2020-0188,2020-06-04,13:41:36,14:07:13,NA,incomplete,1,color,0,0,right,Red_Circle_Dots_3.jpg,Purple_Circle_Chess_1.jpg,Red_Plus_Grid_4.jpg,right,1791.029999993043,true,NA,true
qXSmktJB,3kqc8jmjhf51pencp85cgosduim3h1,36nemu28xjqmvao5hr1t2a7xwr2wmw,qXSmktJB,2020-0188,2020-06-04,13:41:36,14:07:13,NA,incomplete,2,color,0,0,left,Green_Circle_Grid_3.jpg,Green_Star_Chess_1.jpg,Purple_Circle_Dots_2.jpg,none,0,false,NA,true
qXSmktJB,3kqc8jmjhf51pencp85cgosduim3h1,36nemu28xjqmvao5hr1t2a7xwr2wmw,qXSmktJB,2020-0188,2020-06-04,13:41:36,14:07:13,NA,incomplete,3,color,0,1,right,Red_Plus_Chess_2.jpg,Blue_Plus_Dots_4.jpg,Red_Triangle_Grid_3.jpg,right,1499.9299999908544,true,NA,true
qXSmktJB,3kqc8jmjhf51pencp85cgosduim3h1,36nemu28xjqmvao5hr1t2a7xwr2wmw,qXSmktJB,2020-0188,2020-06-04,13:41:36,14:07:13,NA,incomplete,4,color,0,1,right,Red_Triangle_Stripes_3.jpg,Green_Triangle_Chess_2.jpg,Red_Plus_Grid_4.jpg,right,1422.6750000088941,true,NA,true
qXSmktJB,3kqc8jmjhf51pencp85cgosduim3h1,36nemu28xjqmvao5hr1t2a7xwr2wmw,qXSmktJB,2020-0188,2020-06-04,13:41:36,14:07:13,NA,incomplete,5,color,0,1,right,Green_Plus_Grid_1.jpg,Blue_Plus_Chess_4.jpg,Green_Triangle_Dots_2.jpg,right,765.8099999825936,true,NA,true
qXSmktJB,3kqc8jmjhf51pencp85cgosduim3h1,36nemu28xjqmvao5hr1t2a7xwr2wmw,qXSmktJB,2020-0188,2020-06-04,13:41:36,14:07:13,NA,incomplete,6,color,0,1,left,Red_Plus_Stripes_3.jpg,Red_Star_Grid_2.jpg,Blue_Plus_Chess_1.jpg,left,863.8199999986682,true,NA,true
qXSmktJB,3kqc8jmjhf51pencp85cgosduim3h1,36nemu28xjqmvao5hr1t2a7xwr2wmw,qXSmktJB,2020-0188,2020-06-04,13:41:36,14:07:13,NA,incomplete,7,color,0,1,left,Blue_Star_Chess_3.jpg,Blue_Triangle_Stripes_1.jpg,Purple_Star_Grid_4.jpg,left,960.4450000042561,true,NA,true
qXSmktJB,3kqc8jmjhf51pencp85cgosduim3h1,36nemu28xjqmvao5hr1t2a7xwr2wmw,qXSmktJB,2020-0188,2020-06-04,13:41:36,14:07:13,NA,incomplete,8,color,0,1,left,Blue_Triangle_Grid_2.jpg,Blue_Plus_Stripes_1.jpg,Green_Triangle_Chess_3.jpg,left,848.7350000068545,true,NA,true
qXSmktJB,3kqc8jmjhf51pencp85cgosduim3h1,36nemu28xjqmvao5hr1t2a7xwr2wmw,qXSmktJB,2020-0188,2020-06-04,13:41:36,14:07:13,NA,incomplete,9,color,0,1,right,Purple_Plus_Stripes_4.jpg,Green_Plus_Chess_1.jpg,Purple_Circle_Grid_3.jpg,right,623.4149999800138,true,NA,true
qXSmktJB,3kqc8jmjhf51pencp85cgosduim3h1,36nemu28xjqmvao5hr1t2a7xwr2wmw,qXSmktJB,2020-0188,2020-06-04,13:41:36,14:07:13,NA,incomplete,10,color,0,1,left,Blue_Triangle_Chess_3.jpg,Blue_Star_Grid_2.jpg,Green_Triangle_Dots_4.jpg,left,660.8899999991991,true,NA,true
qXSmktJB,3kqc8jmjhf51pencp85cgosduim3h1,36nemu28xjqmvao5hr1t2a7xwr2wmw,qXSmktJB,2020-0188,2020-06-04,13:41:36,14:07:13,NA,incomplete,11,color,0,1,left,Blue_Plus_Chess_1.jpg,Blue_Triangle_Grid_4.jpg,Purple_Plus_Dots_3.jpg,left,723.6850000044797,true,NA,true
qXSmktJB,3kqc8jmjhf51pencp85cgosduim3h1,36nemu28xjqmvao5hr1t2a7xwr2wmw,qXSmktJB,2020-0188,2020-06-04,13:41:36,14:07:13,NA,incomplete,12,color,0,1,left,Purple_Circle_Chess_4.jpg,Purple_Triangle_Stripes_2.jpg,Red_Circle_Grid_3.jpg,left,618.784999998752,true,NA,true
qXSmktJB,3kqc8jmjhf51pencp85cgosduim3h1,36nemu28xjqmvao5hr1t2a7xwr2wmw,qXSmktJB,2020-0188,2020-06-04,13:41:36,14:07:13,NA,incomplete,13,color,0,1,left,Red_Triangle_Dots_4.jpg,Red_Plus_Grid_3.jpg,Green_Triangle_Chess_2.jpg,left,727.1500000206288,true,NA,true
qXSmktJB,3kqc8jmjhf51pencp85cgosduim3h1,36nemu28xjqmvao5hr1t2a7xwr2wmw,qXSmktJB,2020-0188,2020-06-04,13:41:36,14:07:13,NA,incomplete,14,color,0,1,left,Blue_Circle_Stripes_3.jpg,Blue_Plus_Chess_4.jpg,Red_Circle_Grid_1.jpg,left,818.2450000022072,true,NA,true
qXSmktJB,3kqc8jmjhf51pencp85cgosduim3h1,36nemu28xjqmvao5hr1t2a7xwr2wmw,qXSmktJB,2020-0188,2020-06-04,13:41:36,14:07:13,NA,incomplete,15,color,0,1,left,Red_Star_Grid_1.jpg,Red_Triangle_Stripes_2.jpg,Blue_Star_Dots_3.jpg,left,706.8299999809824,true,NA,true
qXSmktJB,3kqc8jmjhf51pencp85cgosduim3h1,36nemu28xjqmvao5hr1t2a7xwr2wmw,qXSmktJB,2020-0188,2020-06-04,13:41:36,14:07:13,NA,incomplete,16,color,0,0,left,Red_Star_Grid_2.jpg,Red_Plus_Stripes_4.jpg,Purple_Star_Chess_3.jpg,left,631.7050000070594,true,NA,true
qXSmktJB,3kqc8jmjhf51pencp85cgosduim3h1,36nemu28xjqmvao5hr1t2a7xwr2wmw,qXSmktJB,2020-0188,2020-06-04,13:41:36,14:07:13,NA,incomplete,17,color,0,0,right,Green_Triangle_Grid_1.jpg,Purple_Triangle_Chess_3.jpg,Green_Circle_Stripes_4.jpg,right,761.6049999778625,true,NA,true
qXSmktJB,3kqc8jmjhf51pencp85cgosduim3h1,36nemu28xjqmvao5hr1t2a7xwr2wmw,qXSmktJB,2020-0188,2020-06-04,13:41:36,14:07:13,NA,incomplete,18,color,0,1,left,Purple_Triangle_Grid_2.jpg,Purple_Plus_Stripes_4.jpg,Green_Triangle_Dots_3.jpg,left,945.5049999814946,true,NA,true
qXSmktJB,3kqc8jmjhf51pencp85cgosduim3h1,36nemu28xjqmvao5hr1t2a7xwr2wmw,qXSmktJB,2020-0188,2020-06-04,13:41:36,14:07:13,NA,incomplete,19,color,0,1,right,Blue_Plus_Grid_2.jpg,Red_Plus_Dots_3.jpg,Blue_Circle_Chess_1.jpg,right,891.0849999811035,true,NA,true
qXSmktJB,3kqc8jmjhf51pencp85cgosduim3h1,36nemu28xjqmvao5hr1t2a7xwr2wmw,qXSmktJB,2020-0188,2020-06-04,13:41:36,14:07:13,NA,incomplete,20,shape,1,1,right,Blue_Plus_Dots_3.jpg,Blue_Circle_Grid_4.jpg,Red_Plus_Chess_2.jpg,left,1088.4050000167917,false,NA,true
qXSmktJB,3kqc8jmjhf51pencp85cgosduim3h1,36nemu28xjqmvao5hr1t2a7xwr2wmw,qXSmktJB,2020-0188,2020-06-04,13:41:36,14:07:13,NA,incomplete,21,shape,1,1,left,Red_Plus_Grid_2.jpg,Blue_Plus_Stripes_1.jpg,Red_Triangle_Dots_3.jpg,left,1319.4599999987986,true,NA,true
qXSmktJB,3kqc8jmjhf51pencp85cgosduim3h1,36nemu28xjqmvao5hr1t2a7xwr2wmw,qXSmktJB,2020-0188,2020-06-04,13:41:36,14:07:13,NA,incomplete,22,shape,1,0,right,Blue_Star_Stripes_1.jpg,Blue_Circle_Grid_3.jpg,Green_Star_Chess_2.jpg,right,1199.369999987539,true,NA,true
qXSmktJB,3kqc8jmjhf51pencp85cgosduim3h1,36nemu28xjqmvao5hr1t2a7xwr2wmw,qXSmktJB,2020-0188,2020-06-04,13:41:36,14:07:13,NA,incomplete,23,shape,1,1,left,Green_Star_Stripes_4.jpg,Red_Star_Grid_3.jpg,Green_Triangle_Dots_1.jpg,left,1159.6999999892432,true,NA,true
qXSmktJB,3kqc8jmjhf51pencp85cgosduim3h1,36nemu28xjqmvao5hr1t2a7xwr2wmw,qXSmktJB,2020-0188,2020-06-04,13:41:36,14:07:13,NA,incomplete,24,shape,1,1,left,Blue_Triangle_Chess_3.jpg,Purple_Triangle_Grid_4.jpg,Blue_Circle_Stripes_1.jpg,left,1169.8050000122748,true,NA,true
qXSmktJB,3kqc8jmjhf51pencp85cgosduim3h1,36nemu28xjqmvao5hr1t2a7xwr2wmw,qXSmktJB,2020-0188,2020-06-04,13:41:36,14:07:13,NA,incomplete,25,shape,1,1,left,Green_Circle_Dots_3.jpg,Red_Circle_Grid_4.jpg,Green_Star_Stripes_1.jpg,left,1133.0799999996088,true,NA,true
qXSmktJB,3kqc8jmjhf51pencp85cgosduim3h1,36nemu28xjqmvao5hr1t2a7xwr2wmw,qXSmktJB,2020-0188,2020-06-04,13:41:36,14:07:13,NA,incomplete,26,shape,1,1,left,Blue_Star_Chess_1.jpg,Green_Star_Dots_3.jpg,Blue_Plus_Stripes_2.jpg,left,1148.7049999996088,true,NA,true
qXSmktJB,3kqc8jmjhf51pencp85cgosduim3h1,36nemu28xjqmvao5hr1t2a7xwr2wmw,qXSmktJB,2020-0188,2020-06-04,13:41:36,14:07:13,NA,incomplete,27,shape,1,1,left,Purple_Star_Stripes_2.jpg,Red_Star_Grid_1.jpg,Purple_Circle_Chess_4.jpg,left,990.6550000014249,true,NA,true
qXSmktJB,3kqc8jmjhf51pencp85cgosduim3h1,36nemu28xjqmvao5hr1t2a7xwr2wmw,qXSmktJB,2020-0188,2020-06-04,13:41:36,14:07:13,NA,incomplete,28,shape,1,1,right,Blue_Star_Stripes_3.jpg,Blue_Plus_Dots_2.jpg,Red_Star_Grid_4.jpg,right,928.1949999858625,true,NA,true
qXSmktJB,3kqc8jmjhf51pencp85cgosduim3h1,36nemu28xjqmvao5hr1t2a7xwr2wmw,qXSmktJB,2020-0188,2020-06-04,13:41:36,14:07:13,NA,incomplete,29,shape,1,1,left,Purple_Circle_Grid_1.jpg,Blue_Circle_Stripes_4.jpg,Purple_Plus_Chess_2.jpg,left,1021.0599999991246,true,NA,true
qXSmktJB,3kqc8jmjhf51pencp85cgosduim3h1,36nemu28xjqmvao5hr1t2a7xwr2wmw,qXSmktJB,2020-0188,2020-06-04,13:41:36,14:07:13,NA,incomplete,30,shape,1,0,right,Purple_Circle_Stripes_4.jpg,Purple_Plus_Dots_3.jpg,Green_Circle_Chess_1.jpg,right,994.5900000166148,true,NA,true
qXSmktJB,3kqc8jmjhf51pencp85cgosduim3h1,36nemu28xjqmvao5hr1t2a7xwr2wmw,qXSmktJB,2020-0188,2020-06-04,13:41:36,14:07:13,NA,incomplete,31,shape,1,1,right,Purple_Circle_Grid_4.jpg,Purple_Star_Dots_3.jpg,Green_Circle_Stripes_1.jpg,left,657.9050000000279,false,NA,true
qXSmktJB,3kqc8jmjhf51pencp85cgosduim3h1,36nemu28xjqmvao5hr1t2a7xwr2wmw,qXSmktJB,2020-0188,2020-06-04,13:41:36,14:07:13,NA,incomplete,32,shape,1,1,left,Blue_Triangle_Chess_4.jpg,Green_Triangle_Dots_1.jpg,Blue_Star_Grid_3.jpg,left,1088.6699999973644,true,NA,true
qXSmktJB,3kqc8jmjhf51pencp85cgosduim3h1,36nemu28xjqmvao5hr1t2a7xwr2wmw,qXSmktJB,2020-0188,2020-06-04,13:41:36,14:07:13,NA,incomplete,33,shape,1,0,left,Green_Star_Stripes_1.jpg,Red_Star_Chess_2.jpg,Green_Circle_Grid_3.jpg,left,1311.1649999918882,true,NA,true
qXSmktJB,3kqc8jmjhf51pencp85cgosduim3h1,36nemu28xjqmvao5hr1t2a7xwr2wmw,qXSmktJB,2020-0188,2020-06-04,13:41:36,14:07:13,NA,incomplete,34,shape,1,1,left,Blue_Circle_Dots_4.jpg,Green_Circle_Chess_1.jpg,Blue_Triangle_Grid_3.jpg,left,1215.330000006361,true,NA,true
qXSmktJB,3kqc8jmjhf51pencp85cgosduim3h1,36nemu28xjqmvao5hr1t2a7xwr2wmw,qXSmktJB,2020-0188,2020-06-04,13:41:36,14:07:13,NA,incomplete,35,shape,1,1,right,Green_Circle_Chess_1.jpg,Green_Triangle_Grid_3.jpg,Purple_Circle_Dots_4.jpg,right,845.8849999879021,true,NA,true
qXSmktJB,3kqc8jmjhf51pencp85cgosduim3h1,36nemu28xjqmvao5hr1t2a7xwr2wmw,qXSmktJB,2020-0188,2020-06-04,13:41:36,14:07:13,NA,incomplete,36,shape,1,1,left,Red_Plus_Grid_2.jpg,Blue_Plus_Chess_3.jpg,Red_Star_Dots_4.jpg,left,862.9500000097323,true,NA,true
qXSmktJB,3kqc8jmjhf51pencp85cgosduim3h1,36nemu28xjqmvao5hr1t2a7xwr2wmw,qXSmktJB,2020-0188,2020-06-04,13:41:36,14:07:13,NA,incomplete,37,shape,1,1,left,Green_Triangle_Grid_4.jpg,Blue_Triangle_Chess_2.jpg,Green_Star_Stripes_3.jpg,left,651.4099999913014,true,NA,true
qXSmktJB,3kqc8jmjhf51pencp85cgosduim3h1,36nemu28xjqmvao5hr1t2a7xwr2wmw,qXSmktJB,2020-0188,2020-06-04,13:41:36,14:07:13,NA,incomplete,38,shape,1,1,right,Red_Circle_Grid_2.jpg,Red_Star_Chess_3.jpg,Green_Circle_Dots_4.jpg,right,804.4999999983702,true,NA,true
qXSmktJB,3kqc8jmjhf51pencp85cgosduim3h1,36nemu28xjqmvao5hr1t2a7xwr2wmw,qXSmktJB,2020-0188,2020-06-04,13:41:36,14:07:13,NA,incomplete,39,shape,1,0,left,Blue_Triangle_Stripes_2.jpg,Purple_Triangle_Grid_3.jpg,Blue_Circle_Chess_4.jpg,left,765.9799999964889,true,NA,true
qXSmktJB,3kqc8jmjhf51pencp85cgosduim3h1,36nemu28xjqmvao5hr1t2a7xwr2wmw,qXSmktJB,2020-0188,2020-06-04,13:41:36,14:07:13,NA,incomplete,0,color,0,1,left,Purple_Circle_Stripes_3.jpg,Purple_Plus_Grid_2.jpg,Blue_Circle_Dots_1.jpg,right,1905.380000011064,false,low,false
qXSmktJB,3kqc8jmjhf51pencp85cgosduim3h1,36nemu28xjqmvao5hr1t2a7xwr2wmw,qXSmktJB,2020-0188,2020-06-04,13:41:36,14:07:13,NA,incomplete,1,color,0,0,left,Purple_Circle_Chess_2.jpg,Purple_Plus_Dots_3.jpg,Blue_Circle_Stripes_1.jpg,left,772.4600000074133,true,low,false
qXSmktJB,3kqc8jmjhf51pencp85cgosduim3h1,36nemu28xjqmvao5hr1t2a7xwr2wmw,qXSmktJB,2020-0188,2020-06-04,13:41:36,14:07:13,NA,incomplete,2,color,0,1,left,Green_Star_Grid_4.jpg,Green_Triangle_Chess_1.jpg,Blue_Star_Stripes_3.jpg,right,1483.4450000198558,false,low,false
qXSmktJB,3kqc8jmjhf51pencp85cgosduim3h1,36nemu28xjqmvao5hr1t2a7xwr2wmw,qXSmktJB,2020-0188,2020-06-04,13:41:36,14:07:13,NA,incomplete,3,color,0,1,left,Red_Plus_Stripes_3.jpg,Red_Circle_Grid_1.jpg,Purple_Plus_Chess_4.jpg,right,1414.905000012368,false,low,false
qXSmktJB,3kqc8jmjhf51pencp85cgosduim3h1,36nemu28xjqmvao5hr1t2a7xwr2wmw,qXSmktJB,2020-0188,2020-06-04,13:41:36,14:07:13,NA,incomplete,4,color,0,1,left,Blue_Star_Chess_1.jpg,Blue_Circle_Grid_3.jpg,Green_Star_Stripes_4.jpg,left,1462.0299999951385,true,low,false
qXSmktJB,3kqc8jmjhf51pencp85cgosduim3h1,36nemu28xjqmvao5hr1t2a7xwr2wmw,qXSmktJB,2020-0188,2020-06-04,13:41:36,14:07:13,NA,incomplete,5,color,0,1,right,Blue_Plus_Grid_2.jpg,Green_Plus_Dots_1.jpg,Blue_Star_Chess_3.jpg,right,605.9400000085589,true,low,false
qXSmktJB,3kqc8jmjhf51pencp85cgosduim3h1,36nemu28xjqmvao5hr1t2a7xwr2wmw,qXSmktJB,2020-0188,2020-06-04,13:41:36,14:07:13,NA,incomplete,6,color,0,1,left,Red_Triangle_Dots_4.jpg,Red_Circle_Grid_2.jpg,Blue_Triangle_Stripes_1.jpg,left,1116.4949999947567,true,low,false
qXSmktJB,3kqc8jmjhf51pencp85cgosduim3h1,36nemu28xjqmvao5hr1t2a7xwr2wmw,qXSmktJB,2020-0188,2020-06-04,13:41:36,14:07:13,NA,incomplete,7,color,0,1,right,Blue_Circle_Chess_1.jpg,Green_Circle_Dots_4.jpg,Blue_Triangle_Stripes_3.jpg,right,1366.5400000172667,true,low,false
qXSmktJB,3kqc8jmjhf51pencp85cgosduim3h1,36nemu28xjqmvao5hr1t2a7xwr2wmw,qXSmktJB,2020-0188,2020-06-04,13:41:36,14:07:13,NA,incomplete,8,color,0,1,right,Green_Star_Chess_4.jpg,Purple_Star_Stripes_2.jpg,Green_Circle_Dots_1.jpg,right,1154.560000024503,true,low,false
qXSmktJB,3kqc8jmjhf51pencp85cgosduim3h1,36nemu28xjqmvao5hr1t2a7xwr2wmw,qXSmktJB,2020-0188,2020-06-04,13:41:36,14:07:13,NA,incomplete,9,color,0,1,left,Red_Plus_Dots_1.jpg,Red_Star_Grid_4.jpg,Purple_Plus_Chess_3.jpg,left,893.6500000127126,true,low,false
qXSmktJB,3kqc8jmjhf51pencp85cgosduim3h1,36nemu28xjqmvao5hr1t2a7xwr2wmw,qXSmktJB,2020-0188,2020-06-04,13:41:36,14:07:13,NA,incomplete,10,color,0,1,left,Red_Plus_Stripes_1.jpg,Red_Circle_Grid_2.jpg,Green_Plus_Dots_4.jpg,left,688.8699999835808,true,low,false
qXSmktJB,3kqc8jmjhf51pencp85cgosduim3h1,36nemu28xjqmvao5hr1t2a7xwr2wmw,qXSmktJB,2020-0188,2020-06-04,13:41:36,14:07:13,NA,incomplete,11,color,0,1,right,Purple_Triangle_Chess_4.jpg,Green_Triangle_Stripes_2.jpg,Purple_Plus_Grid_3.jpg,right,669.3399999930989,true,low,false
qXSmktJB,3kqc8jmjhf51pencp85cgosduim3h1,36nemu28xjqmvao5hr1t2a7xwr2wmw,qXSmktJB,2020-0188,2020-06-04,13:41:36,14:07:13,NA,incomplete,12,color,0,1,left,Green_Triangle_Dots_3.jpg,Green_Circle_Chess_4.jpg,Blue_Triangle_Stripes_2.jpg,left,979.6499999938533,true,low,false
qXSmktJB,3kqc8jmjhf51pencp85cgosduim3h1,36nemu28xjqmvao5hr1t2a7xwr2wmw,qXSmktJB,2020-0188,2020-06-04,13:41:36,14:07:13,NA,incomplete,13,color,0,1,right,Blue_Circle_Stripes_4.jpg,Purple_Circle_Chess_1.jpg,Blue_Plus_Dots_3.jpg,right,764.4750000035856,true,low,false
qXSmktJB,3kqc8jmjhf51pencp85cgosduim3h1,36nemu28xjqmvao5hr1t2a7xwr2wmw,qXSmktJB,2020-0188,2020-06-04,13:41:36,14:07:13,NA,incomplete,14,color,0,1,right,Blue_Star_Stripes_3.jpg,Green_Star_Grid_4.jpg,Blue_Triangle_Dots_2.jpg,right,601.1299999954645,true,low,false
qXSmktJB,3kqc8jmjhf51pencp85cgosduim3h1,36nemu28xjqmvao5hr1t2a7xwr2wmw,qXSmktJB,2020-0188,2020-06-04,13:41:36,14:07:13,NA,incomplete,15,color,0,1,right,Red_Circle_Grid_2.jpg,Purple_Circle_Chess_4.jpg,Red_Triangle_Stripes_3.jpg,right,680.7799999951385,true,low,false
qXSmktJB,3kqc8jmjhf51pencp85cgosduim3h1,36nemu28xjqmvao5hr1t2a7xwr2wmw,qXSmktJB,2020-0188,2020-06-04,13:41:36,14:07:13,NA,incomplete,16,color,0,1,right,Red_Triangle_Chess_1.jpg,Purple_Triangle_Stripes_2.jpg,Red_Plus_Grid_3.jpg,right,678.3449999929871,true,low,false
qXSmktJB,3kqc8jmjhf51pencp85cgosduim3h1,36nemu28xjqmvao5hr1t2a7xwr2wmw,qXSmktJB,2020-0188,2020-06-04,13:41:36,14:07:13,NA,incomplete,17,color,0,1,left,Green_Triangle_Chess_2.jpg,Green_Plus_Stripes_3.jpg,Blue_Triangle_Grid_1.jpg,left,619.1649999818765,true,low,false
qXSmktJB,3kqc8jmjhf51pencp85cgosduim3h1,36nemu28xjqmvao5hr1t2a7xwr2wmw,qXSmktJB,2020-0188,2020-06-04,13:41:36,14:07:13,NA,incomplete,18,color,0,1,right,Blue_Circle_Chess_4.jpg,Green_Circle_Stripes_2.jpg,Blue_Star_Dots_3.jpg,right,675.5800000100862,true,low,false
qXSmktJB,3kqc8jmjhf51pencp85cgosduim3h1,36nemu28xjqmvao5hr1t2a7xwr2wmw,qXSmktJB,2020-0188,2020-06-04,13:41:36,14:07:13,NA,incomplete,19,color,0,0,left,Blue_Triangle_Stripes_4.jpg,Blue_Circle_Grid_2.jpg,Red_Triangle_Chess_1.jpg,left,603.1150000053458,true,low,false
qXSmktJB,3kqc8jmjhf51pencp85cgosduim3h1,36nemu28xjqmvao5hr1t2a7xwr2wmw,qXSmktJB,2020-0188,2020-06-04,13:41:36,14:07:13,NA,incomplete,20,color,0,1,left,Blue_Triangle_Stripes_1.jpg,Blue_Star_Chess_2.jpg,Green_Triangle_Dots_4.jpg,left,705.3149999992456,true,low,false
qXSmktJB,3kqc8jmjhf51pencp85cgosduim3h1,36nemu28xjqmvao5hr1t2a7xwr2wmw,qXSmktJB,2020-0188,2020-06-04,13:41:36,14:07:13,NA,incomplete,21,color,0,1,right,Purple_Triangle_Grid_3.jpg,Red_Triangle_Chess_1.jpg,Purple_Star_Dots_4.jpg,right,565.4799999902025,true,low,false
qXSmktJB,3kqc8jmjhf51pencp85cgosduim3h1,36nemu28xjqmvao5hr1t2a7xwr2wmw,qXSmktJB,2020-0188,2020-06-04,13:41:36,14:07:13,NA,incomplete,22,color,0,1,right,Green_Circle_Chess_4.jpg,Red_Circle_Dots_1.jpg,Green_Star_Grid_2.jpg,right,631.4750000019558,true,low,false
qXSmktJB,3kqc8jmjhf51pencp85cgosduim3h1,36nemu28xjqmvao5hr1t2a7xwr2wmw,qXSmktJB,2020-0188,2020-06-04,13:41:36,14:07:13,NA,incomplete,23,color,0,1,right,Red_Plus_Chess_4.jpg,Blue_Plus_Grid_2.jpg,Red_Triangle_Dots_3.jpg,right,1575.810000009369,true,low,false
qXSmktJB,3kqc8jmjhf51pencp85cgosduim3h1,36nemu28xjqmvao5hr1t2a7xwr2wmw,qXSmktJB,2020-0188,2020-06-04,13:41:36,14:07:13,NA,incomplete,24,color,0,1,right,Blue_Circle_Dots_3.jpg,Green_Circle_Stripes_2.jpg,Blue_Plus_Grid_1.jpg,right,583.5650000080932,true,low,false
qXSmktJB,3kqc8jmjhf51pencp85cgosduim3h1,36nemu28xjqmvao5hr1t2a7xwr2wmw,qXSmktJB,2020-0188,2020-06-04,13:41:36,14:07:13,NA,incomplete,25,color,0,1,right,Purple_Plus_Dots_2.jpg,Blue_Plus_Grid_3.jpg,Purple_Circle_Chess_1.jpg,right,728.6499999754597,true,low,false
qXSmktJB,3kqc8jmjhf51pencp85cgosduim3h1,36nemu28xjqmvao5hr1t2a7xwr2wmw,qXSmktJB,2020-0188,2020-06-04,13:41:36,14:07:13,NA,incomplete,26,color,0,1,right,Green_Plus_Stripes_3.jpg,Purple_Plus_Grid_1.jpg,Green_Triangle_Chess_2.jpg,right,572.1550000016578,true,low,false
qXSmktJB,3kqc8jmjhf51pencp85cgosduim3h1,36nemu28xjqmvao5hr1t2a7xwr2wmw,qXSmktJB,2020-0188,2020-06-04,13:41:36,14:07:13,NA,incomplete,27,color,0,1,right,Green_Star_Dots_3.jpg,Purple_Star_Stripes_2.jpg,Green_Circle_Chess_4.jpg,right,630.3350000234786,true,low,false
qXSmktJB,3kqc8jmjhf51pencp85cgosduim3h1,36nemu28xjqmvao5hr1t2a7xwr2wmw,qXSmktJB,2020-0188,2020-06-04,13:41:36,14:07:13,NA,incomplete,28,color,0,1,left,Blue_Star_Dots_3.jpg,Blue_Circle_Grid_2.jpg,Green_Star_Stripes_1.jpg,left,583.3200000051875,true,low,false
qXSmktJB,3kqc8jmjhf51pencp85cgosduim3h1,36nemu28xjqmvao5hr1t2a7xwr2wmw,qXSmktJB,2020-0188,2020-06-04,13:41:36,14:07:13,NA,incomplete,29,color,0,1,right,Green_Plus_Chess_2.jpg,Purple_Plus_Grid_1.jpg,Green_Star_Dots_4.jpg,right,554.134999983944,true,low,false
qXSmktJB,3kqc8jmjhf51pencp85cgosduim3h1,36nemu28xjqmvao5hr1t2a7xwr2wmw,qXSmktJB,2020-0188,2020-06-04,13:41:36,14:07:13,NA,incomplete,30,shape,1,1,left,Red_Star_Chess_2.jpg,Blue_Star_Stripes_3.jpg,Red_Triangle_Grid_4.jpg,right,586.8799999880139,false,low,false
qXSmktJB,3kqc8jmjhf51pencp85cgosduim3h1,36nemu28xjqmvao5hr1t2a7xwr2wmw,qXSmktJB,2020-0188,2020-06-04,13:41:36,14:07:13,NA,incomplete,31,shape,1,1,left,Blue_Circle_Dots_1.jpg,Red_Circle_Grid_2.jpg,Blue_Plus_Chess_3.jpg,right,738.9299999922514,false,low,false
qXSmktJB,3kqc8jmjhf51pencp85cgosduim3h1,36nemu28xjqmvao5hr1t2a7xwr2wmw,qXSmktJB,2020-0188,2020-06-04,13:41:36,14:07:13,NA,incomplete,32,shape,1,1,right,Green_Star_Chess_4.jpg,Green_Plus_Grid_3.jpg,Blue_Star_Stripes_2.jpg,left,758.2999999867752,false,low,false
qXSmktJB,3kqc8jmjhf51pencp85cgosduim3h1,36nemu28xjqmvao5hr1t2a7xwr2wmw,qXSmktJB,2020-0188,2020-06-04,13:41:36,14:07:13,NA,incomplete,33,shape,1,1,right,Purple_Triangle_Dots_3.jpg,Purple_Circle_Stripes_1.jpg,Blue_Triangle_Chess_2.jpg,left,654.3999999994412,false,low,false
qXSmktJB,3kqc8jmjhf51pencp85cgosduim3h1,36nemu28xjqmvao5hr1t2a7xwr2wmw,qXSmktJB,2020-0188,2020-06-04,13:41:36,14:07:13,NA,incomplete,34,shape,1,0,right,Purple_Star_Stripes_3.jpg,Purple_Plus_Dots_4.jpg,Green_Star_Chess_2.jpg,right,977.4650000035763,true,low,false
qXSmktJB,3kqc8jmjhf51pencp85cgosduim3h1,36nemu28xjqmvao5hr1t2a7xwr2wmw,qXSmktJB,2020-0188,2020-06-04,13:41:36,14:07:13,NA,incomplete,35,shape,1,1,left,Purple_Triangle_Grid_1.jpg,Blue_Triangle_Dots_4.jpg,Purple_Circle_Stripes_2.jpg,right,498.41999998898245,false,low,false
qXSmktJB,3kqc8jmjhf51pencp85cgosduim3h1,36nemu28xjqmvao5hr1t2a7xwr2wmw,qXSmktJB,2020-0188,2020-06-04,13:41:36,14:07:13,NA,incomplete,36,shape,1,0,right,Blue_Circle_Chess_2.jpg,Blue_Star_Stripes_4.jpg,Green_Circle_Dots_3.jpg,left,518.1000000156928,false,low,false
qXSmktJB,3kqc8jmjhf51pencp85cgosduim3h1,36nemu28xjqmvao5hr1t2a7xwr2wmw,qXSmktJB,2020-0188,2020-06-04,13:41:36,14:07:13,NA,incomplete,37,shape,1,0,right,Green_Circle_Dots_1.jpg,Green_Plus_Stripes_4.jpg,Red_Circle_Chess_3.jpg,left,945.8849999937229,false,low,false
qXSmktJB,3kqc8jmjhf51pencp85cgosduim3h1,36nemu28xjqmvao5hr1t2a7xwr2wmw,qXSmktJB,2020-0188,2020-06-04,13:41:36,14:07:13,NA,incomplete,38,shape,1,1,right,Green_Star_Stripes_3.jpg,Green_Circle_Grid_2.jpg,Purple_Star_Chess_1.jpg,left,541.365000011865,false,low,false
qXSmktJB,3kqc8jmjhf51pencp85cgosduim3h1,36nemu28xjqmvao5hr1t2a7xwr2wmw,qXSmktJB,2020-0188,2020-06-04,13:41:36,14:07:13,NA,incomplete,39,shape,1,1,right,Purple_Star_Chess_4.jpg,Purple_Triangle_Grid_1.jpg,Red_Star_Stripes_3.jpg,left,562.05000000773,false,low,false
qXSmktJB,3kqc8jmjhf51pencp85cgosduim3h1,36nemu28xjqmvao5hr1t2a7xwr2wmw,qXSmktJB,2020-0188,2020-06-04,13:41:36,14:07:13,NA,incomplete,40,shape,1,1,left,Red_Triangle_Dots_1.jpg,Blue_Triangle_Grid_3.jpg,Red_Circle_Stripes_4.jpg,right,643.7900000018999,false,low,false
qXSmktJB,3kqc8jmjhf51pencp85cgosduim3h1,36nemu28xjqmvao5hr1t2a7xwr2wmw,qXSmktJB,2020-0188,2020-06-04,13:41:36,14:07:13,NA,incomplete,41,shape,1,1,left,Blue_Star_Chess_2.jpg,Red_Star_Stripes_3.jpg,Blue_Circle_Grid_1.jpg,right,714.7200000181329,false,low,false
qXSmktJB,3kqc8jmjhf51pencp85cgosduim3h1,36nemu28xjqmvao5hr1t2a7xwr2wmw,qXSmktJB,2020-0188,2020-06-04,13:41:36,14:07:13,NA,incomplete,42,shape,1,0,left,Purple_Circle_Grid_3.jpg,Blue_Circle_Chess_2.jpg,Purple_Star_Stripes_1.jpg,left,1670.20500000217,true,low,false
qXSmktJB,3kqc8jmjhf51pencp85cgosduim3h1,36nemu28xjqmvao5hr1t2a7xwr2wmw,qXSmktJB,2020-0188,2020-06-04,13:41:36,14:07:13,NA,incomplete,43,shape,1,1,left,Red_Star_Stripes_4.jpg,Green_Star_Grid_3.jpg,Red_Circle_Chess_2.jpg,left,849.4599999976344,true,low,false
qXSmktJB,3kqc8jmjhf51pencp85cgosduim3h1,36nemu28xjqmvao5hr1t2a7xwr2wmw,qXSmktJB,2020-0188,2020-06-04,13:41:36,14:07:13,NA,incomplete,44,shape,1,0,left,Green_Plus_Dots_3.jpg,Blue_Plus_Chess_4.jpg,Green_Star_Stripes_2.jpg,left,1266.5149999957066,true,low,false
qXSmktJB,3kqc8jmjhf51pencp85cgosduim3h1,36nemu28xjqmvao5hr1t2a7xwr2wmw,qXSmktJB,2020-0188,2020-06-04,13:41:36,14:07:13,NA,incomplete,45,shape,1,1,left,Red_Plus_Chess_4.jpg,Blue_Plus_Dots_3.jpg,Red_Circle_Stripes_2.jpg,left,1055.3599999984726,true,low,false
qXSmktJB,3kqc8jmjhf51pencp85cgosduim3h1,36nemu28xjqmvao5hr1t2a7xwr2wmw,qXSmktJB,2020-0188,2020-06-04,13:41:36,14:07:13,NA,incomplete,46,shape,1,1,left,Green_Star_Grid_4.jpg,Red_Star_Stripes_1.jpg,Green_Circle_Dots_2.jpg,left,1449.8249999887776,true,low,false
qXSmktJB,3kqc8jmjhf51pencp85cgosduim3h1,36nemu28xjqmvao5hr1t2a7xwr2wmw,qXSmktJB,2020-0188,2020-06-04,13:41:36,14:07:13,NA,incomplete,47,shape,1,1,right,Red_Circle_Stripes_2.jpg,Red_Plus_Dots_4.jpg,Purple_Circle_Grid_3.jpg,right,1227.3949999944307,true,low,false
qXSmktJB,3kqc8jmjhf51pencp85cgosduim3h1,36nemu28xjqmvao5hr1t2a7xwr2wmw,qXSmktJB,2020-0188,2020-06-04,13:41:36,14:07:13,NA,incomplete,48,shape,1,1,right,Red_Circle_Grid_2.jpg,Red_Star_Stripes_1.jpg,Green_Circle_Chess_3.jpg,right,730.9299999906216,true,low,false
qXSmktJB,3kqc8jmjhf51pencp85cgosduim3h1,36nemu28xjqmvao5hr1t2a7xwr2wmw,qXSmktJB,2020-0188,2020-06-04,13:41:36,14:07:13,NA,incomplete,49,shape,1,1,right,Purple_Circle_Chess_4.jpg,Purple_Plus_Grid_2.jpg,Green_Circle_Dots_3.jpg,right,1514.435000019148,true,low,false
qXSmktJB,3kqc8jmjhf51pencp85cgosduim3h1,36nemu28xjqmvao5hr1t2a7xwr2wmw,qXSmktJB,2020-0188,2020-06-04,13:41:36,14:07:13,NA,incomplete,50,shape,1,1,right,Green_Triangle_Dots_4.jpg,Green_Plus_Chess_3.jpg,Red_Triangle_Stripes_1.jpg,right,1004.7850000264589,true,low,false
qXSmktJB,3kqc8jmjhf51pencp85cgosduim3h1,36nemu28xjqmvao5hr1t2a7xwr2wmw,qXSmktJB,2020-0188,2020-06-04,13:41:36,14:07:13,NA,incomplete,51,shape,1,1,left,Green_Triangle_Dots_4.jpg,Red_Triangle_Stripes_3.jpg,Green_Star_Grid_2.jpg,left,1093.6349999974482,true,low,false
qXSmktJB,3kqc8jmjhf51pencp85cgosduim3h1,36nemu28xjqmvao5hr1t2a7xwr2wmw,qXSmktJB,2020-0188,2020-06-04,13:41:36,14:07:13,NA,incomplete,52,shape,1,1,right,Purple_Circle_Chess_1.jpg,Purple_Triangle_Stripes_3.jpg,Red_Circle_Dots_2.jpg,right,1060.8999999822117,true,low,false
qXSmktJB,3kqc8jmjhf51pencp85cgosduim3h1,36nemu28xjqmvao5hr1t2a7xwr2wmw,qXSmktJB,2020-0188,2020-06-04,13:41:36,14:07:13,NA,incomplete,53,shape,1,0,left,Green_Plus_Dots_1.jpg,Blue_Plus_Stripes_3.jpg,Green_Star_Grid_4.jpg,left,838.7700000021141,true,low,false
qXSmktJB,3kqc8jmjhf51pencp85cgosduim3h1,36nemu28xjqmvao5hr1t2a7xwr2wmw,qXSmktJB,2020-0188,2020-06-04,13:41:36,14:07:13,NA,incomplete,54,shape,1,1,right,Red_Plus_Chess_1.jpg,Red_Circle_Grid_3.jpg,Green_Plus_Dots_4.jpg,right,901.7950000124983,true,low,false
qXSmktJB,3kqc8jmjhf51pencp85cgosduim3h1,36nemu28xjqmvao5hr1t2a7xwr2wmw,qXSmktJB,2020-0188,2020-06-04,13:41:36,14:07:13,NA,incomplete,55,shape,1,1,left,Green_Circle_Chess_1.jpg,Red_Circle_Grid_3.jpg,Green_Plus_Stripes_2.jpg,left,876.4950000040699,true,low,false
qXSmktJB,3kqc8jmjhf51pencp85cgosduim3h1,36nemu28xjqmvao5hr1t2a7xwr2wmw,qXSmktJB,2020-0188,2020-06-04,13:41:36,14:07:13,NA,incomplete,56,shape,1,0,left,Red_Star_Grid_1.jpg,Green_Star_Chess_2.jpg,Red_Plus_Dots_4.jpg,left,726.7899999860674,true,low,false
qXSmktJB,3kqc8jmjhf51pencp85cgosduim3h1,36nemu28xjqmvao5hr1t2a7xwr2wmw,qXSmktJB,2020-0188,2020-06-04,13:41:36,14:07:13,NA,incomplete,57,shape,1,0,left,Purple_Star_Dots_1.jpg,Blue_Star_Stripes_4.jpg,Purple_Plus_Grid_2.jpg,left,758.7599999969825,true,low,false
qXSmktJB,3kqc8jmjhf51pencp85cgosduim3h1,36nemu28xjqmvao5hr1t2a7xwr2wmw,qXSmktJB,2020-0188,2020-06-04,13:41:36,14:07:13,NA,incomplete,58,shape,1,0,left,Blue_Plus_Dots_3.jpg,Purple_Plus_Stripes_1.jpg,Blue_Circle_Grid_2.jpg,left,901.4299999980722,true,low,false
qXSmktJB,3kqc8jmjhf51pencp85cgosduim3h1,36nemu28xjqmvao5hr1t2a7xwr2wmw,qXSmktJB,2020-0188,2020-06-04,13:41:36,14:07:13,NA,incomplete,59,shape,1,1,right,Green_Plus_Stripes_3.jpg,Green_Circle_Grid_1.jpg,Blue_Plus_Dots_4.jpg,left,953.9199999999255,false,low,false
qXSmktJB,3kqc8jmjhf51pencp85cgosduim3h1,36nemu28xjqmvao5hr1t2a7xwr2wmw,qXSmktJB,2020-0188,2020-06-04,13:41:36,14:07:13,NA,incomplete,60,color,0,0,left,Blue_Triangle_Chess_2.jpg,Blue_Circle_Grid_4.jpg,Green_Triangle_Stripes_3.jpg,left,819.8199999751523,true,low,false
qXSmktJB,3kqc8jmjhf51pencp85cgosduim3h1,36nemu28xjqmvao5hr1t2a7xwr2wmw,qXSmktJB,2020-0188,2020-06-04,13:41:36,14:07:13,NA,incomplete,61,color,0,1,right,Red_Plus_Stripes_4.jpg,Green_Plus_Grid_1.jpg,Red_Star_Dots_3.jpg,left,1390.160000009928,false,low,false
qXSmktJB,3kqc8jmjhf51pencp85cgosduim3h1,36nemu28xjqmvao5hr1t2a7xwr2wmw,qXSmktJB,2020-0188,2020-06-04,13:41:36,14:07:13,NA,incomplete,62,color,0,1,right,Green_Star_Dots_3.jpg,Blue_Star_Stripes_1.jpg,Green_Plus_Chess_2.jpg,left,1818.330000009155,false,low,false
qXSmktJB,3kqc8jmjhf51pencp85cgosduim3h1,36nemu28xjqmvao5hr1t2a7xwr2wmw,qXSmktJB,2020-0188,2020-06-04,13:41:36,14:07:13,NA,incomplete,63,color,0,1,left,Blue_Circle_Chess_2.jpg,Blue_Plus_Grid_1.jpg,Purple_Circle_Dots_4.jpg,right,945.0249999936204,false,low,false
qXSmktJB,3kqc8jmjhf51pencp85cgosduim3h1,36nemu28xjqmvao5hr1t2a7xwr2wmw,qXSmktJB,2020-0188,2020-06-04,13:41:36,14:07:13,NA,incomplete,64,color,0,0,right,Red_Triangle_Grid_4.jpg,Blue_Triangle_Dots_1.jpg,Red_Circle_Chess_2.jpg,right,1138.45999998739,true,low,false
qXSmktJB,3kqc8jmjhf51pencp85cgosduim3h1,36nemu28xjqmvao5hr1t2a7xwr2wmw,qXSmktJB,2020-0188,2020-06-04,13:41:36,14:07:13,NA,incomplete,65,color,0,1,left,Red_Star_Dots_4.jpg,Red_Circle_Stripes_1.jpg,Purple_Star_Grid_2.jpg,right,896.0950000036974,false,low,false
qXSmktJB,3kqc8jmjhf51pencp85cgosduim3h1,36nemu28xjqmvao5hr1t2a7xwr2wmw,qXSmktJB,2020-0188,2020-06-04,13:41:36,14:07:13,NA,incomplete,66,color,0,1,left,Blue_Plus_Stripes_4.jpg,Blue_Triangle_Grid_2.jpg,Purple_Plus_Dots_3.jpg,left,1603.159999998752,true,low,false
qXSmktJB,3kqc8jmjhf51pencp85cgosduim3h1,36nemu28xjqmvao5hr1t2a7xwr2wmw,qXSmktJB,2020-0188,2020-06-04,13:41:36,14:07:13,NA,incomplete,67,color,0,0,right,Red_Circle_Dots_2.jpg,Purple_Circle_Grid_1.jpg,Red_Star_Chess_4.jpg,right,1658.6699999752454,true,low,false
qXSmktJB,3kqc8jmjhf51pencp85cgosduim3h1,36nemu28xjqmvao5hr1t2a7xwr2wmw,qXSmktJB,2020-0188,2020-06-04,13:41:36,14:07:13,NA,incomplete,68,color,0,1,right,Green_Triangle_Grid_1.jpg,Blue_Triangle_Dots_4.jpg,Green_Plus_Stripes_2.jpg,left,1358.0800000054296,false,low,false
qXSmktJB,3kqc8jmjhf51pencp85cgosduim3h1,36nemu28xjqmvao5hr1t2a7xwr2wmw,qXSmktJB,2020-0188,2020-06-04,13:41:36,14:07:13,NA,incomplete,69,color,0,0,left,Blue_Plus_Stripes_1.jpg,Blue_Circle_Dots_2.jpg,Purple_Plus_Chess_4.jpg,right,816.6199999977835,false,low,false
qXSmktJB,3kqc8jmjhf51pencp85cgosduim3h1,36nemu28xjqmvao5hr1t2a7xwr2wmw,qXSmktJB,2020-0188,2020-06-04,13:41:36,14:07:13,NA,incomplete,70,color,0,1,right,Red_Plus_Chess_2.jpg,Green_Plus_Stripes_3.jpg,Red_Star_Grid_4.jpg,left,918.5100000177044,false,low,false
qXSmktJB,3kqc8jmjhf51pencp85cgosduim3h1,36nemu28xjqmvao5hr1t2a7xwr2wmw,qXSmktJB,2020-0188,2020-06-04,13:41:36,14:07:13,NA,incomplete,71,color,0,1,left,Green_Plus_Stripes_4.jpg,Green_Circle_Grid_2.jpg,Red_Plus_Dots_1.jpg,left,922.9950000008103,true,low,false
qXSmktJB,3kqc8jmjhf51pencp85cgosduim3h1,36nemu28xjqmvao5hr1t2a7xwr2wmw,qXSmktJB,2020-0188,2020-06-04,13:41:36,14:07:13,NA,incomplete,72,color,0,0,left,Green_Circle_Chess_2.jpg,Green_Plus_Stripes_4.jpg,Purple_Circle_Grid_1.jpg,left,1414.5649999845773,true,low,false
qXSmktJB,3kqc8jmjhf51pencp85cgosduim3h1,36nemu28xjqmvao5hr1t2a7xwr2wmw,qXSmktJB,2020-0188,2020-06-04,13:41:36,14:07:13,NA,incomplete,73,color,0,1,right,Red_Circle_Grid_3.jpg,Green_Circle_Dots_2.jpg,Red_Triangle_Chess_4.jpg,right,1525.9399999922607,true,low,false
qXSmktJB,3kqc8jmjhf51pencp85cgosduim3h1,36nemu28xjqmvao5hr1t2a7xwr2wmw,qXSmktJB,2020-0188,2020-06-04,13:41:36,14:07:13,NA,incomplete,74,color,0,1,left,Blue_Star_Grid_3.jpg,Blue_Plus_Dots_4.jpg,Red_Star_Chess_1.jpg,right,822.8799999924377,false,low,false
qXSmktJB,3kqc8jmjhf51pencp85cgosduim3h1,36nemu28xjqmvao5hr1t2a7xwr2wmw,qXSmktJB,2020-0188,2020-06-04,13:41:36,14:07:13,NA,incomplete,75,color,0,1,right,Purple_Circle_Chess_1.jpg,Blue_Circle_Dots_2.jpg,Purple_Triangle_Stripes_3.jpg,right,588.7199999997392,true,low,false
qXSmktJB,3kqc8jmjhf51pencp85cgosduim3h1,36nemu28xjqmvao5hr1t2a7xwr2wmw,qXSmktJB,2020-0188,2020-06-04,13:41:36,14:07:13,NA,incomplete,76,color,0,1,left,Purple_Circle_Chess_4.jpg,Purple_Triangle_Stripes_2.jpg,Blue_Circle_Dots_1.jpg,left,687.355000001844,true,low,false
qXSmktJB,3kqc8jmjhf51pencp85cgosduim3h1,36nemu28xjqmvao5hr1t2a7xwr2wmw,qXSmktJB,2020-0188,2020-06-04,13:41:36,14:07:13,NA,incomplete,77,color,0,1,right,Green_Triangle_Grid_2.jpg,Red_Triangle_Chess_3.jpg,Green_Plus_Stripes_1.jpg,right,675.8299999928568,true,low,false
qXSmktJB,3kqc8jmjhf51pencp85cgosduim3h1,36nemu28xjqmvao5hr1t2a7xwr2wmw,qXSmktJB,2020-0188,2020-06-04,13:41:36,14:07:13,NA,incomplete,78,color,0,1,right,Blue_Star_Grid_3.jpg,Green_Star_Dots_4.jpg,Blue_Triangle_Chess_2.jpg,right,718.3049999875948,true,low,false
qXSmktJB,3kqc8jmjhf51pencp85cgosduim3h1,36nemu28xjqmvao5hr1t2a7xwr2wmw,qXSmktJB,2020-0188,2020-06-04,13:41:36,14:07:13,NA,incomplete,79,color,0,1,right,Red_Triangle_Dots_4.jpg,Purple_Triangle_Stripes_2.jpg,Red_Plus_Chess_1.jpg,right,1246.6899999999441,true,low,false
qXSmktJB,3kqc8jmjhf51pencp85cgosduim3h1,36nemu28xjqmvao5hr1t2a7xwr2wmw,qXSmktJB,2020-0188,2020-06-04,13:41:36,14:07:13,NA,incomplete,80,color,0,1,right,Green_Triangle_Grid_3.jpg,Blue_Triangle_Chess_1.jpg,Green_Plus_Stripes_2.jpg,right,539.7250000096392,true,low,false
qXSmktJB,3kqc8jmjhf51pencp85cgosduim3h1,36nemu28xjqmvao5hr1t2a7xwr2wmw,qXSmktJB,2020-0188,2020-06-04,13:41:36,14:07:13,NA,incomplete,81,color,0,1,left,Green_Plus_Grid_4.jpg,Green_Triangle_Stripes_1.jpg,Purple_Plus_Dots_2.jpg,right,960.930000001099,false,low,false
qXSmktJB,3kqc8jmjhf51pencp85cgosduim3h1,36nemu28xjqmvao5hr1t2a7xwr2wmw,qXSmktJB,2020-0188,2020-06-04,13:41:36,14:07:13,NA,incomplete,82,color,0,1,left,Purple_Circle_Chess_2.jpg,Purple_Plus_Grid_1.jpg,Green_Circle_Dots_4.jpg,left,896.9650000217371,true,low,false
qXSmktJB,3kqc8jmjhf51pencp85cgosduim3h1,36nemu28xjqmvao5hr1t2a7xwr2wmw,qXSmktJB,2020-0188,2020-06-04,13:41:36,14:07:13,NA,incomplete,83,color,0,1,right,Purple_Triangle_Chess_2.jpg,Red_Triangle_Stripes_1.jpg,Purple_Circle_Dots_4.jpg,right,783.0449999892153,true,low,false
qXSmktJB,3kqc8jmjhf51pencp85cgosduim3h1,36nemu28xjqmvao5hr1t2a7xwr2wmw,qXSmktJB,2020-0188,2020-06-04,13:41:36,14:07:13,NA,incomplete,84,color,0,1,right,Green_Star_Dots_3.jpg,Purple_Star_Stripes_1.jpg,Green_Triangle_Grid_4.jpg,right,983.1950000079814,true,low,false
qXSmktJB,3kqc8jmjhf51pencp85cgosduim3h1,36nemu28xjqmvao5hr1t2a7xwr2wmw,qXSmktJB,2020-0188,2020-06-04,13:41:36,14:07:13,NA,incomplete,85,color,0,1,right,Purple_Circle_Chess_1.jpg,Green_Circle_Stripes_3.jpg,Purple_Plus_Grid_2.jpg,right,767.9250000219326,true,low,false
qXSmktJB,3kqc8jmjhf51pencp85cgosduim3h1,36nemu28xjqmvao5hr1t2a7xwr2wmw,qXSmktJB,2020-0188,2020-06-04,13:41:36,14:07:13,NA,incomplete,86,color,0,1,right,Purple_Circle_Stripes_1.jpg,Red_Circle_Dots_2.jpg,Purple_Plus_Chess_3.jpg,right,500.5200000014156,true,low,false
qXSmktJB,3kqc8jmjhf51pencp85cgosduim3h1,36nemu28xjqmvao5hr1t2a7xwr2wmw,qXSmktJB,2020-0188,2020-06-04,13:41:36,14:07:13,NA,incomplete,87,color,0,1,left,Green_Plus_Stripes_2.jpg,Green_Circle_Chess_3.jpg,Blue_Plus_Grid_1.jpg,left,567.1350000193343,true,low,false
qXSmktJB,3kqc8jmjhf51pencp85cgosduim3h1,36nemu28xjqmvao5hr1t2a7xwr2wmw,qXSmktJB,2020-0188,2020-06-04,13:41:36,14:07:13,NA,incomplete,88,color,0,1,right,Red_Plus_Chess_2.jpg,Purple_Plus_Dots_1.jpg,Red_Triangle_Grid_4.jpg,right,507.45000000461005,true,low,false
qXSmktJB,3kqc8jmjhf51pencp85cgosduim3h1,36nemu28xjqmvao5hr1t2a7xwr2wmw,qXSmktJB,2020-0188,2020-06-04,13:41:36,14:07:13,NA,incomplete,89,color,0,0,left,Purple_Triangle_Grid_1.jpg,Purple_Plus_Chess_3.jpg,Green_Triangle_Dots_2.jpg,left,565.6250000174623,true,low,false
qXSmktJB,3kqc8jmjhf51pencp85cgosduim3h1,36nemu28xjqmvao5hr1t2a7xwr2wmw,qXSmktJB,2020-0188,2020-06-04,13:41:36,14:07:13,NA,incomplete,90,shape,1,1,right,Green_Triangle_Grid_4.jpg,Green_Circle_Dots_2.jpg,Purple_Triangle_Chess_3.jpg,left,696.3500000128988,false,low,false
qXSmktJB,3kqc8jmjhf51pencp85cgosduim3h1,36nemu28xjqmvao5hr1t2a7xwr2wmw,qXSmktJB,2020-0188,2020-06-04,13:41:36,14:07:13,NA,incomplete,91,shape,1,0,right,Red_Star_Chess_3.jpg,Red_Circle_Stripes_1.jpg,Blue_Star_Grid_4.jpg,right,941.2799999990966,true,low,false
qXSmktJB,3kqc8jmjhf51pencp85cgosduim3h1,36nemu28xjqmvao5hr1t2a7xwr2wmw,qXSmktJB,2020-0188,2020-06-04,13:41:36,14:07:13,NA,incomplete,92,shape,1,1,right,Green_Circle_Grid_4.jpg,Green_Plus_Dots_1.jpg,Purple_Circle_Stripes_3.jpg,left,640.3149999969173,false,low,false
qXSmktJB,3kqc8jmjhf51pencp85cgosduim3h1,36nemu28xjqmvao5hr1t2a7xwr2wmw,qXSmktJB,2020-0188,2020-06-04,13:41:36,14:07:13,NA,incomplete,93,shape,1,1,left,Blue_Triangle_Grid_1.jpg,Purple_Triangle_Chess_2.jpg,Blue_Circle_Stripes_3.jpg,right,594.0200000186451,false,low,false
qXSmktJB,3kqc8jmjhf51pencp85cgosduim3h1,36nemu28xjqmvao5hr1t2a7xwr2wmw,qXSmktJB,2020-0188,2020-06-04,13:41:36,14:07:13,NA,incomplete,94,shape,1,1,right,Red_Triangle_Dots_2.jpg,Red_Star_Stripes_1.jpg,Blue_Triangle_Chess_4.jpg,left,1216.4150000025984,false,low,false
qXSmktJB,3kqc8jmjhf51pencp85cgosduim3h1,36nemu28xjqmvao5hr1t2a7xwr2wmw,qXSmktJB,2020-0188,2020-06-04,13:41:36,14:07:13,NA,incomplete,95,shape,1,0,right,Green_Plus_Stripes_3.jpg,Green_Star_Grid_1.jpg,Blue_Plus_Dots_2.jpg,right,1166.960000002291,true,low,false
qXSmktJB,3kqc8jmjhf51pencp85cgosduim3h1,36nemu28xjqmvao5hr1t2a7xwr2wmw,qXSmktJB,2020-0188,2020-06-04,13:41:36,14:07:13,NA,incomplete,96,shape,1,1,right,Blue_Plus_Stripes_3.jpg,Blue_Triangle_Chess_4.jpg,Red_Plus_Dots_2.jpg,right,1601.0349999996834,true,low,false
qXSmktJB,3kqc8jmjhf51pencp85cgosduim3h1,36nemu28xjqmvao5hr1t2a7xwr2wmw,qXSmktJB,2020-0188,2020-06-04,13:41:36,14:07:13,NA,incomplete,97,shape,1,1,right,Green_Plus_Dots_4.jpg,Green_Triangle_Chess_1.jpg,Purple_Plus_Stripes_2.jpg,right,987.5199999951292,true,low,false
qXSmktJB,3kqc8jmjhf51pencp85cgosduim3h1,36nemu28xjqmvao5hr1t2a7xwr2wmw,qXSmktJB,2020-0188,2020-06-04,13:41:36,14:07:13,NA,incomplete,98,shape,1,0,left,Green_Circle_Dots_2.jpg,Red_Circle_Grid_4.jpg,Green_Triangle_Chess_3.jpg,left,1145.2400000125635,true,low,false
qXSmktJB,3kqc8jmjhf51pencp85cgosduim3h1,36nemu28xjqmvao5hr1t2a7xwr2wmw,qXSmktJB,2020-0188,2020-06-04,13:41:36,14:07:13,NA,incomplete,99,shape,1,0,left,Blue_Star_Grid_2.jpg,Green_Star_Stripes_4.jpg,Blue_Triangle_Chess_3.jpg,left,1058.2300000241958,true,low,false
qXSmktJB,3kqc8jmjhf51pencp85cgosduim3h1,36nemu28xjqmvao5hr1t2a7xwr2wmw,qXSmktJB,2020-0188,2020-06-04,13:41:36,14:07:13,NA,incomplete,100,shape,1,1,right,Red_Star_Stripes_3.jpg,Red_Triangle_Dots_1.jpg,Blue_Star_Chess_2.jpg,right,1743.994999997085,true,low,false
qXSmktJB,3kqc8jmjhf51pencp85cgosduim3h1,36nemu28xjqmvao5hr1t2a7xwr2wmw,qXSmktJB,2020-0188,2020-06-04,13:41:36,14:07:13,NA,incomplete,101,shape,1,1,right,Blue_Circle_Grid_2.jpg,Blue_Triangle_Dots_4.jpg,Green_Circle_Stripes_1.jpg,right,1531.4249999937601,true,low,false
qXSmktJB,3kqc8jmjhf51pencp85cgosduim3h1,36nemu28xjqmvao5hr1t2a7xwr2wmw,qXSmktJB,2020-0188,2020-06-04,13:41:36,14:07:13,NA,incomplete,102,shape,1,1,left,Green_Star_Stripes_3.jpg,Purple_Star_Dots_2.jpg,Green_Circle_Chess_4.jpg,left,1043.0650000052992,true,low,false
qXSmktJB,3kqc8jmjhf51pencp85cgosduim3h1,36nemu28xjqmvao5hr1t2a7xwr2wmw,qXSmktJB,2020-0188,2020-06-04,13:41:36,14:07:13,NA,incomplete,103,shape,1,1,left,Green_Star_Chess_3.jpg,Blue_Star_Stripes_1.jpg,Green_Plus_Dots_2.jpg,right,1065.0150000001304,false,low,false
qXSmktJB,3kqc8jmjhf51pencp85cgosduim3h1,36nemu28xjqmvao5hr1t2a7xwr2wmw,qXSmktJB,2020-0188,2020-06-04,13:41:36,14:07:13,NA,incomplete,104,shape,1,0,left,Red_Circle_Chess_3.jpg,Blue_Circle_Grid_4.jpg,Red_Plus_Stripes_1.jpg,right,1341.2150000222027,false,low,false
qXSmktJB,3kqc8jmjhf51pencp85cgosduim3h1,36nemu28xjqmvao5hr1t2a7xwr2wmw,qXSmktJB,2020-0188,2020-06-04,13:41:36,14:07:13,NA,incomplete,105,shape,1,1,right,Purple_Circle_Chess_3.jpg,Purple_Triangle_Grid_4.jpg,Blue_Circle_Dots_1.jpg,left,1265.9550000098534,false,low,false
qXSmktJB,3kqc8jmjhf51pencp85cgosduim3h1,36nemu28xjqmvao5hr1t2a7xwr2wmw,qXSmktJB,2020-0188,2020-06-04,13:41:36,14:07:13,NA,incomplete,106,shape,1,0,right,Blue_Plus_Stripes_2.jpg,Blue_Triangle_Dots_4.jpg,Purple_Plus_Grid_3.jpg,right,1085.7799999939743,true,low,false
qXSmktJB,3kqc8jmjhf51pencp85cgosduim3h1,36nemu28xjqmvao5hr1t2a7xwr2wmw,qXSmktJB,2020-0188,2020-06-04,13:41:36,14:07:13,NA,incomplete,107,shape,1,1,left,Red_Circle_Chess_3.jpg,Purple_Circle_Grid_2.jpg,Red_Star_Stripes_1.jpg,left,858.8000000163447,true,low,false
qXSmktJB,3kqc8jmjhf51pencp85cgosduim3h1,36nemu28xjqmvao5hr1t2a7xwr2wmw,qXSmktJB,2020-0188,2020-06-04,13:41:36,14:07:13,NA,incomplete,108,shape,1,1,left,Blue_Circle_Dots_1.jpg,Red_Circle_Grid_2.jpg,Blue_Plus_Chess_4.jpg,left,1034.2649999947753,true,low,false
qXSmktJB,3kqc8jmjhf51pencp85cgosduim3h1,36nemu28xjqmvao5hr1t2a7xwr2wmw,qXSmktJB,2020-0188,2020-06-04,13:41:36,14:07:13,NA,incomplete,109,shape,1,1,right,Green_Star_Dots_2.jpg,Green_Circle_Stripes_4.jpg,Blue_Star_Chess_3.jpg,right,753.5599999828264,true,low,false
qXSmktJB,3kqc8jmjhf51pencp85cgosduim3h1,36nemu28xjqmvao5hr1t2a7xwr2wmw,qXSmktJB,2020-0188,2020-06-04,13:41:36,14:07:13,NA,incomplete,110,shape,1,1,left,Purple_Circle_Chess_2.jpg,Green_Circle_Stripes_3.jpg,Purple_Plus_Dots_1.jpg,left,756.4549999951851,true,low,false
qXSmktJB,3kqc8jmjhf51pencp85cgosduim3h1,36nemu28xjqmvao5hr1t2a7xwr2wmw,qXSmktJB,2020-0188,2020-06-04,13:41:36,14:07:13,NA,incomplete,111,shape,1,1,left,Red_Circle_Dots_3.jpg,Purple_Circle_Grid_2.jpg,Red_Star_Chess_4.jpg,left,828.3799999917392,true,low,false
qXSmktJB,3kqc8jmjhf51pencp85cgosduim3h1,36nemu28xjqmvao5hr1t2a7xwr2wmw,qXSmktJB,2020-0188,2020-06-04,13:41:36,14:07:13,NA,incomplete,112,shape,1,1,left,Green_Circle_Grid_4.jpg,Red_Circle_Dots_3.jpg,Green_Triangle_Chess_2.jpg,left,755.7850000157487,true,low,false
qXSmktJB,3kqc8jmjhf51pencp85cgosduim3h1,36nemu28xjqmvao5hr1t2a7xwr2wmw,qXSmktJB,2020-0188,2020-06-04,13:41:36,14:07:13,NA,incomplete,113,shape,1,1,left,Red_Triangle_Chess_3.jpg,Purple_Triangle_Stripes_1.jpg,Red_Circle_Grid_2.jpg,left,637.925000017276,true,low,false
qXSmktJB,3kqc8jmjhf51pencp85cgosduim3h1,36nemu28xjqmvao5hr1t2a7xwr2wmw,qXSmktJB,2020-0188,2020-06-04,13:41:36,14:07:13,NA,incomplete,114,shape,1,1,right,Red_Triangle_Grid_4.jpg,Red_Circle_Chess_1.jpg,Green_Triangle_Stripes_3.jpg,right,733.0250000231899,true,low,false
qXSmktJB,3kqc8jmjhf51pencp85cgosduim3h1,36nemu28xjqmvao5hr1t2a7xwr2wmw,qXSmktJB,2020-0188,2020-06-04,13:41:36,14:07:13,NA,incomplete,115,shape,1,1,right,Purple_Star_Grid_1.jpg,Purple_Circle_Dots_4.jpg,Green_Star_Chess_2.jpg,right,810.8349999820348,true,low,false
qXSmktJB,3kqc8jmjhf51pencp85cgosduim3h1,36nemu28xjqmvao5hr1t2a7xwr2wmw,qXSmktJB,2020-0188,2020-06-04,13:41:36,14:07:13,NA,incomplete,116,shape,1,0,left,Green_Plus_Stripes_4.jpg,Red_Plus_Chess_2.jpg,Green_Circle_Dots_3.jpg,left,640.3249999857508,true,low,false
qXSmktJB,3kqc8jmjhf51pencp85cgosduim3h1,36nemu28xjqmvao5hr1t2a7xwr2wmw,qXSmktJB,2020-0188,2020-06-04,13:41:36,14:07:13,NA,incomplete,117,shape,1,1,right,Blue_Triangle_Stripes_3.jpg,Blue_Plus_Dots_1.jpg,Green_Triangle_Grid_2.jpg,right,583.3550000097603,true,low,false
qXSmktJB,3kqc8jmjhf51pencp85cgosduim3h1,36nemu28xjqmvao5hr1t2a7xwr2wmw,qXSmktJB,2020-0188,2020-06-04,13:41:36,14:07:13,NA,incomplete,118,shape,1,1,left,Purple_Triangle_Chess_1.jpg,Red_Triangle_Stripes_4.jpg,Purple_Star_Dots_3.jpg,left,792.8850000025705,true,low,false
qXSmktJB,3kqc8jmjhf51pencp85cgosduim3h1,36nemu28xjqmvao5hr1t2a7xwr2wmw,qXSmktJB,2020-0188,2020-06-04,13:41:36,14:07:13,NA,incomplete,119,shape,1,1,right,Green_Circle_Chess_1.jpg,Green_Star_Dots_3.jpg,Blue_Circle_Stripes_2.jpg,right,642.874999990454,true,low,false
qXSmktJB,3kqc8jmjhf51pencp85cgosduim3h1,36nemu28xjqmvao5hr1t2a7xwr2wmw,qXSmktJB,2020-0188,2020-06-04,13:41:36,14:07:13,NA,incomplete,120,race,2,1,left,C_M_16.jpg,C_F_08.jpg,A_M_14.jpg,NA,NA,NA,low,false
qXSmktJB,3kqc8jmjhf51pencp85cgosduim3h1,36nemu28xjqmvao5hr1t2a7xwr2wmw,qXSmktJB,2020-0188,2020-06-04,13:41:36,14:07:13,NA,incomplete,121,race,2,1,right,A_M_01.jpg,C_M_13.jpg,A_F_16.jpg,none,0,false,low,false
qXSmktJB,3kqc8jmjhf51pencp85cgosduim3h1,36nemu28xjqmvao5hr1t2a7xwr2wmw,qXSmktJB,2020-0188,2020-06-04,13:41:36,14:07:13,NA,incomplete,122,race,2,1,right,A_F_03.jpg,C_F_13.jpg,A_M_01.jpg,right,1155.8749999967404,true,low,false
qXSmktJB,3kqc8jmjhf51pencp85cgosduim3h1,36nemu28xjqmvao5hr1t2a7xwr2wmw,qXSmktJB,2020-0188,2020-06-04,13:41:36,14:07:13,NA,incomplete,123,race,2,1,left,C_F_05.jpg,C_M_16.jpg,A_F_03.jpg,left,1299.9800000106916,true,low,false
qXSmktJB,3kqc8jmjhf51pencp85cgosduim3h1,36nemu28xjqmvao5hr1t2a7xwr2wmw,qXSmktJB,2020-0188,2020-06-04,13:41:36,14:07:13,NA,incomplete,124,race,2,1,right,C_F_02.jpg,A_F_09.jpg,C_M_14.jpg,right,1176.690000022063,true,low,false
qXSmktJB,3kqc8jmjhf51pencp85cgosduim3h1,36nemu28xjqmvao5hr1t2a7xwr2wmw,qXSmktJB,2020-0188,2020-06-04,13:41:36,14:07:13,NA,incomplete,125,race,2,0,right,A_F_01.jpg,C_F_15.jpg,A_M_02.jpg,left,1643.385000003036,false,low,false
qXSmktJB,3kqc8jmjhf51pencp85cgosduim3h1,36nemu28xjqmvao5hr1t2a7xwr2wmw,qXSmktJB,2020-0188,2020-06-04,13:41:36,14:07:13,NA,incomplete,126,race,2,1,left,C_F_12.jpg,C_M_10.jpg,A_F_08.jpg,left,1093.6149999906775,true,low,false
qXSmktJB,3kqc8jmjhf51pencp85cgosduim3h1,36nemu28xjqmvao5hr1t2a7xwr2wmw,qXSmktJB,2020-0188,2020-06-04,13:41:36,14:07:13,NA,incomplete,127,race,2,1,left,A_F_16.jpg,A_M_07.jpg,C_F_15.jpg,left,1146.9250000081956,true,low,false
qXSmktJB,3kqc8jmjhf51pencp85cgosduim3h1,36nemu28xjqmvao5hr1t2a7xwr2wmw,qXSmktJB,2020-0188,2020-06-04,13:41:36,14:07:13,NA,incomplete,128,race,2,1,right,C_F_16.jpg,A_F_11.jpg,C_M_02.jpg,left,1780.8099999965634,false,low,false
qXSmktJB,3kqc8jmjhf51pencp85cgosduim3h1,36nemu28xjqmvao5hr1t2a7xwr2wmw,qXSmktJB,2020-0188,2020-06-04,13:41:36,14:07:13,NA,incomplete,129,race,2,1,left,A_M_09.jpg,A_F_03.jpg,C_M_16.jpg,left,1607.5700000219513,true,low,false
qXSmktJB,3kqc8jmjhf51pencp85cgosduim3h1,36nemu28xjqmvao5hr1t2a7xwr2wmw,qXSmktJB,2020-0188,2020-06-04,13:41:36,14:07:13,NA,incomplete,130,race,2,0,right,C_M_04.jpg,A_M_12.jpg,C_F_10.jpg,right,1042.8200000023935,true,low,false
qXSmktJB,3kqc8jmjhf51pencp85cgosduim3h1,36nemu28xjqmvao5hr1t2a7xwr2wmw,qXSmktJB,2020-0188,2020-06-04,13:41:36,14:07:13,NA,incomplete,131,race,2,1,right,A_M_06.jpg,C_M_08.jpg,A_F_02.jpg,left,1073.499999998603,false,low,false
qXSmktJB,3kqc8jmjhf51pencp85cgosduim3h1,36nemu28xjqmvao5hr1t2a7xwr2wmw,qXSmktJB,2020-0188,2020-06-04,13:41:36,14:07:13,NA,incomplete,132,race,2,1,right,C_M_16.jpg,A_M_07.jpg,C_F_01.jpg,left,1688.3850000158418,false,low,false
qXSmktJB,3kqc8jmjhf51pencp85cgosduim3h1,36nemu28xjqmvao5hr1t2a7xwr2wmw,qXSmktJB,2020-0188,2020-06-04,13:41:36,14:07:13,NA,incomplete,133,race,2,1,right,A_F_02.jpg,C_F_01.jpg,A_M_04.jpg,right,1756.790000014007,true,low,false
qXSmktJB,3kqc8jmjhf51pencp85cgosduim3h1,36nemu28xjqmvao5hr1t2a7xwr2wmw,qXSmktJB,2020-0188,2020-06-04,13:41:36,14:07:13,NA,incomplete,134,race,2,1,right,C_F_10.jpg,A_F_08.jpg,C_M_09.jpg,none,0,false,low,false
qXSmktJB,3kqc8jmjhf51pencp85cgosduim3h1,36nemu28xjqmvao5hr1t2a7xwr2wmw,qXSmktJB,2020-0188,2020-06-04,13:41:36,14:07:13,NA,incomplete,135,race,2,0,right,C_F_12.jpg,A_F_16.jpg,C_M_07.jpg,left,1024.7399999934714,false,low,false
qXSmktJB,3kqc8jmjhf51pencp85cgosduim3h1,36nemu28xjqmvao5hr1t2a7xwr2wmw,qXSmktJB,2020-0188,2020-06-04,13:41:36,14:07:13,NA,incomplete,136,race,2,1,left,A_M_01.jpg,A_F_14.jpg,C_M_16.jpg,right,1420.9550000086892,false,low,false
qXSmktJB,3kqc8jmjhf51pencp85cgosduim3h1,36nemu28xjqmvao5hr1t2a7xwr2wmw,qXSmktJB,2020-0188,2020-06-04,13:41:36,14:07:13,NA,incomplete,137,race,2,1,left,C_F_06.jpg,C_M_05.jpg,A_F_09.jpg,right,1154.420000006212,false,low,false
qXSmktJB,3kqc8jmjhf51pencp85cgosduim3h1,36nemu28xjqmvao5hr1t2a7xwr2wmw,qXSmktJB,2020-0188,2020-06-04,13:41:36,14:07:13,NA,incomplete,138,race,2,1,left,A_F_13.jpg,A_M_03.jpg,C_F_15.jpg,none,0,false,low,false
qXSmktJB,3kqc8jmjhf51pencp85cgosduim3h1,36nemu28xjqmvao5hr1t2a7xwr2wmw,qXSmktJB,2020-0188,2020-06-04,13:41:36,14:07:13,NA,incomplete,139,race,2,1,left,A_F_08.jpg,A_M_01.jpg,C_F_09.jpg,right,1108.6249999934807,false,low,false
qXSmktJB,3kqc8jmjhf51pencp85cgosduim3h1,36nemu28xjqmvao5hr1t2a7xwr2wmw,qXSmktJB,2020-0188,2020-06-04,13:41:36,14:07:13,NA,incomplete,140,gender,3,1,left,A_F_06.jpg,C_F_03.jpg,A_M_02.jpg,right,905.0100000167731,false,low,false
qXSmktJB,3kqc8jmjhf51pencp85cgosduim3h1,36nemu28xjqmvao5hr1t2a7xwr2wmw,qXSmktJB,2020-0188,2020-06-04,13:41:36,14:07:13,NA,incomplete,141,gender,3,1,left,A_F_16.jpg,C_F_08.jpg,A_M_14.jpg,left,1093.8050000113435,true,low,false
qXSmktJB,3kqc8jmjhf51pencp85cgosduim3h1,36nemu28xjqmvao5hr1t2a7xwr2wmw,qXSmktJB,2020-0188,2020-06-04,13:41:36,14:07:13,NA,incomplete,142,gender,3,0,left,A_F_12.jpg,C_F_03.jpg,A_M_01.jpg,left,1407.6549999881536,true,low,false
qXSmktJB,3kqc8jmjhf51pencp85cgosduim3h1,36nemu28xjqmvao5hr1t2a7xwr2wmw,qXSmktJB,2020-0188,2020-06-04,13:41:36,14:07:13,NA,incomplete,143,gender,3,1,left,A_M_11.jpg,C_M_06.jpg,A_F_09.jpg,left,1174.2249999952037,true,low,false
qXSmktJB,3kqc8jmjhf51pencp85cgosduim3h1,36nemu28xjqmvao5hr1t2a7xwr2wmw,qXSmktJB,2020-0188,2020-06-04,13:41:36,14:07:13,NA,incomplete,144,gender,3,1,right,A_F_13.jpg,A_M_14.jpg,C_F_02.jpg,left,1159.8899999808054,false,low,false
qXSmktJB,3kqc8jmjhf51pencp85cgosduim3h1,36nemu28xjqmvao5hr1t2a7xwr2wmw,qXSmktJB,2020-0188,2020-06-04,13:41:36,14:07:13,NA,incomplete,145,gender,3,0,left,C_M_16.jpg,A_M_14.jpg,C_F_09.jpg,right,1486.2300000095274,false,low,false
qXSmktJB,3kqc8jmjhf51pencp85cgosduim3h1,36nemu28xjqmvao5hr1t2a7xwr2wmw,qXSmktJB,2020-0188,2020-06-04,13:41:36,14:07:13,NA,incomplete,146,gender,3,1,left,A_F_06.jpg,C_F_12.jpg,A_M_08.jpg,left,1462.1299999998882,true,low,false
qXSmktJB,3kqc8jmjhf51pencp85cgosduim3h1,36nemu28xjqmvao5hr1t2a7xwr2wmw,qXSmktJB,2020-0188,2020-06-04,13:41:36,14:07:13,NA,incomplete,147,gender,3,0,right,C_M_06.jpg,C_F_11.jpg,A_M_02.jpg,left,1202.1499999973457,false,low,false
qXSmktJB,3kqc8jmjhf51pencp85cgosduim3h1,36nemu28xjqmvao5hr1t2a7xwr2wmw,qXSmktJB,2020-0188,2020-06-04,13:41:36,14:07:13,NA,incomplete,148,gender,3,1,right,C_F_13.jpg,C_M_14.jpg,A_F_08.jpg,left,1625.9199999913108,false,low,false
qXSmktJB,3kqc8jmjhf51pencp85cgosduim3h1,36nemu28xjqmvao5hr1t2a7xwr2wmw,qXSmktJB,2020-0188,2020-06-04,13:41:36,14:07:13,NA,incomplete,149,gender,3,1,right,A_F_01.jpg,A_M_03.jpg,C_F_06.jpg,left,1099.339999986114,false,low,false
qXSmktJB,3kqc8jmjhf51pencp85cgosduim3h1,36nemu28xjqmvao5hr1t2a7xwr2wmw,qXSmktJB,2020-0188,2020-06-04,13:41:36,14:07:13,NA,incomplete,150,gender,3,1,left,C_M_13.jpg,A_M_10.jpg,C_F_07.jpg,right,1068.345000006957,false,low,false
qXSmktJB,3kqc8jmjhf51pencp85cgosduim3h1,36nemu28xjqmvao5hr1t2a7xwr2wmw,qXSmktJB,2020-0188,2020-06-04,13:41:36,14:07:13,NA,incomplete,151,gender,3,1,left,A_M_03.jpg,C_M_09.jpg,A_F_13.jpg,left,1329.5499999949243,true,low,false
qXSmktJB,3kqc8jmjhf51pencp85cgosduim3h1,36nemu28xjqmvao5hr1t2a7xwr2wmw,qXSmktJB,2020-0188,2020-06-04,13:41:36,14:07:13,NA,incomplete,152,gender,3,1,right,A_M_09.jpg,A_F_06.jpg,C_M_03.jpg,left,1182.874999998603,false,low,false
qXSmktJB,3kqc8jmjhf51pencp85cgosduim3h1,36nemu28xjqmvao5hr1t2a7xwr2wmw,qXSmktJB,2020-0188,2020-06-04,13:41:36,14:07:13,NA,incomplete,153,gender,3,0,right,C_F_03.jpg,C_M_05.jpg,A_F_08.jpg,right,995.1200000068638,true,low,false
qXSmktJB,3kqc8jmjhf51pencp85cgosduim3h1,36nemu28xjqmvao5hr1t2a7xwr2wmw,qXSmktJB,2020-0188,2020-06-04,13:41:36,14:07:13,NA,incomplete,154,gender,3,1,right,C_F_06.jpg,C_M_15.jpg,A_F_10.jpg,left,1124.9950000201352,false,low,false
qXSmktJB,3kqc8jmjhf51pencp85cgosduim3h1,36nemu28xjqmvao5hr1t2a7xwr2wmw,qXSmktJB,2020-0188,2020-06-04,13:41:36,14:07:13,NA,incomplete,155,gender,3,0,left,C_M_02.jpg,A_M_15.jpg,C_F_09.jpg,left,1312.1699999901466,true,low,false
qXSmktJB,3kqc8jmjhf51pencp85cgosduim3h1,36nemu28xjqmvao5hr1t2a7xwr2wmw,qXSmktJB,2020-0188,2020-06-04,13:41:36,14:07:13,NA,incomplete,156,gender,3,1,right,C_F_06.jpg,C_M_11.jpg,A_F_10.jpg,left,1147.0399999816436,false,low,false
qXSmktJB,3kqc8jmjhf51pencp85cgosduim3h1,36nemu28xjqmvao5hr1t2a7xwr2wmw,qXSmktJB,2020-0188,2020-06-04,13:41:36,14:07:13,NA,incomplete,157,gender,3,0,left,C_M_01.jpg,A_M_07.jpg,C_F_03.jpg,right,935.4549999989104,false,low,false
qXSmktJB,3kqc8jmjhf51pencp85cgosduim3h1,36nemu28xjqmvao5hr1t2a7xwr2wmw,qXSmktJB,2020-0188,2020-06-04,13:41:36,14:07:13,NA,incomplete,158,gender,3,1,left,A_F_06.jpg,C_F_12.jpg,A_M_15.jpg,left,1253.0749999859836,true,low,false
qXSmktJB,3kqc8jmjhf51pencp85cgosduim3h1,36nemu28xjqmvao5hr1t2a7xwr2wmw,qXSmktJB,2020-0188,2020-06-04,13:41:36,14:07:13,NA,incomplete,159,gender,3,0,left,A_M_06.jpg,C_M_12.jpg,A_F_15.jpg,right,1110.7849999971222,false,low,false
qXSmktJB,3kqc8jmjhf51pencp85cgosduim3h1,36nemu28xjqmvao5hr1t2a7xwr2wmw,qXSmktJB,2020-0188,2020-06-04,13:41:36,14:07:13,NA,incomplete,160,race,2,1,left,A_F_15.jpg,A_M_05.jpg,C_F_14.jpg,left,1241.4700000081211,true,low,false
qXSmktJB,3kqc8jmjhf51pencp85cgosduim3h1,36nemu28xjqmvao5hr1t2a7xwr2wmw,qXSmktJB,2020-0188,2020-06-04,13:41:36,14:07:13,NA,incomplete,161,race,2,1,right,A_M_06.jpg,C_M_13.jpg,A_F_05.jpg,left,1803.1749999790918,false,low,false
qXSmktJB,3kqc8jmjhf51pencp85cgosduim3h1,36nemu28xjqmvao5hr1t2a7xwr2wmw,qXSmktJB,2020-0188,2020-06-04,13:41:36,14:07:13,NA,incomplete,162,race,2,1,left,C_F_10.jpg,C_M_02.jpg,A_F_04.jpg,left,1118.8149999943562,true,low,false
qXSmktJB,3kqc8jmjhf51pencp85cgosduim3h1,36nemu28xjqmvao5hr1t2a7xwr2wmw,qXSmktJB,2020-0188,2020-06-04,13:41:36,14:07:13,NA,incomplete,163,race,2,1,right,A_F_08.jpg,C_F_09.jpg,A_M_11.jpg,left,1138.8549999974202,false,low,false
qXSmktJB,3kqc8jmjhf51pencp85cgosduim3h1,36nemu28xjqmvao5hr1t2a7xwr2wmw,qXSmktJB,2020-0188,2020-06-04,13:41:36,14:07:13,NA,incomplete,164,race,2,1,right,A_F_12.jpg,C_F_06.jpg,A_M_13.jpg,left,1346.0599999816623,false,low,false
qXSmktJB,3kqc8jmjhf51pencp85cgosduim3h1,36nemu28xjqmvao5hr1t2a7xwr2wmw,qXSmktJB,2020-0188,2020-06-04,13:41:36,14:07:13,NA,incomplete,165,race,2,1,right,A_F_09.jpg,C_F_04.jpg,A_M_07.jpg,right,1208.0449999775738,true,low,false
qXSmktJB,3kqc8jmjhf51pencp85cgosduim3h1,36nemu28xjqmvao5hr1t2a7xwr2wmw,qXSmktJB,2020-0188,2020-06-04,13:41:36,14:07:13,NA,incomplete,166,race,2,1,right,C_M_11.jpg,A_M_02.jpg,C_F_16.jpg,right,877.4200000043493,true,low,false
qXSmktJB,3kqc8jmjhf51pencp85cgosduim3h1,36nemu28xjqmvao5hr1t2a7xwr2wmw,qXSmktJB,2020-0188,2020-06-04,13:41:36,14:07:13,NA,incomplete,167,race,2,1,left,A_F_10.jpg,A_M_16.jpg,C_F_12.jpg,left,842.8499999863561,true,low,false
qXSmktJB,3kqc8jmjhf51pencp85cgosduim3h1,36nemu28xjqmvao5hr1t2a7xwr2wmw,qXSmktJB,2020-0188,2020-06-04,13:41:36,14:07:13,NA,incomplete,168,race,2,1,left,A_M_02.jpg,A_F_13.jpg,C_M_16.jpg,left,824.2350000073202,true,low,false
qXSmktJB,3kqc8jmjhf51pencp85cgosduim3h1,36nemu28xjqmvao5hr1t2a7xwr2wmw,qXSmktJB,2020-0188,2020-06-04,13:41:36,14:07:13,NA,incomplete,169,race,2,1,right,A_F_07.jpg,C_F_05.jpg,A_M_12.jpg,left,1216.3650000002235,false,low,false
qXSmktJB,3kqc8jmjhf51pencp85cgosduim3h1,36nemu28xjqmvao5hr1t2a7xwr2wmw,qXSmktJB,2020-0188,2020-06-04,13:41:36,14:07:13,NA,incomplete,170,race,2,1,left,C_F_10.jpg,C_M_01.jpg,A_F_12.jpg,right,625.1999999803957,false,low,false
qXSmktJB,3kqc8jmjhf51pencp85cgosduim3h1,36nemu28xjqmvao5hr1t2a7xwr2wmw,qXSmktJB,2020-0188,2020-06-04,13:41:36,14:07:13,NA,incomplete,171,race,2,1,left,C_M_11.jpg,C_F_15.jpg,A_M_14.jpg,left,1095.8650000102352,true,low,false
qXSmktJB,3kqc8jmjhf51pencp85cgosduim3h1,36nemu28xjqmvao5hr1t2a7xwr2wmw,qXSmktJB,2020-0188,2020-06-04,13:41:36,14:07:13,NA,incomplete,172,race,2,1,left,A_M_12.jpg,A_F_15.jpg,C_M_03.jpg,left,1075.4500000039116,true,low,false
qXSmktJB,3kqc8jmjhf51pencp85cgosduim3h1,36nemu28xjqmvao5hr1t2a7xwr2wmw,qXSmktJB,2020-0188,2020-06-04,13:41:36,14:07:13,NA,incomplete,173,race,2,1,right,C_M_03.jpg,A_M_13.jpg,C_F_11.jpg,right,720.7200000120793,true,low,false
qXSmktJB,3kqc8jmjhf51pencp85cgosduim3h1,36nemu28xjqmvao5hr1t2a7xwr2wmw,qXSmktJB,2020-0188,2020-06-04,13:41:36,14:07:13,NA,incomplete,174,race,2,0,left,A_M_14.jpg,A_F_05.jpg,C_M_01.jpg,right,1255.3999999945518,false,low,false
qXSmktJB,3kqc8jmjhf51pencp85cgosduim3h1,36nemu28xjqmvao5hr1t2a7xwr2wmw,qXSmktJB,2020-0188,2020-06-04,13:41:36,14:07:13,NA,incomplete,175,race,2,1,right,C_M_07.jpg,A_M_15.jpg,C_F_01.jpg,right,761.2650000082795,true,low,false
qXSmktJB,3kqc8jmjhf51pencp85cgosduim3h1,36nemu28xjqmvao5hr1t2a7xwr2wmw,qXSmktJB,2020-0188,2020-06-04,13:41:36,14:07:13,NA,incomplete,176,race,2,1,right,A_M_02.jpg,C_M_15.jpg,A_F_11.jpg,right,899.8250000004191,true,low,false
qXSmktJB,3kqc8jmjhf51pencp85cgosduim3h1,36nemu28xjqmvao5hr1t2a7xwr2wmw,qXSmktJB,2020-0188,2020-06-04,13:41:36,14:07:13,NA,incomplete,177,race,2,0,right,A_F_14.jpg,C_F_02.jpg,A_M_04.jpg,left,967.6550000149291,false,low,false
qXSmktJB,3kqc8jmjhf51pencp85cgosduim3h1,36nemu28xjqmvao5hr1t2a7xwr2wmw,qXSmktJB,2020-0188,2020-06-04,13:41:36,14:07:13,NA,incomplete,178,race,2,1,right,A_F_05.jpg,C_F_03.jpg,A_M_08.jpg,left,961.5400000184309,false,low,false
qXSmktJB,3kqc8jmjhf51pencp85cgosduim3h1,36nemu28xjqmvao5hr1t2a7xwr2wmw,qXSmktJB,2020-0188,2020-06-04,13:41:36,14:07:13,NA,incomplete,179,race,2,1,left,C_M_06.jpg,C_F_05.jpg,A_M_02.jpg,left,1103.4799999906681,true,low,false
qXSmktJB,3kqc8jmjhf51pencp85cgosduim3h1,36nemu28xjqmvao5hr1t2a7xwr2wmw,qXSmktJB,2020-0188,2020-06-04,13:41:36,14:07:13,NA,incomplete,180,gender,3,0,right,A_M_10.jpg,A_F_12.jpg,C_M_15.jpg,left,1056.0249999980442,false,low,false
qXSmktJB,3kqc8jmjhf51pencp85cgosduim3h1,36nemu28xjqmvao5hr1t2a7xwr2wmw,qXSmktJB,2020-0188,2020-06-04,13:41:36,14:07:13,NA,incomplete,181,gender,3,1,right,C_F_01.jpg,C_M_14.jpg,A_F_16.jpg,right,981.1850000114646,true,low,false
qXSmktJB,3kqc8jmjhf51pencp85cgosduim3h1,36nemu28xjqmvao5hr1t2a7xwr2wmw,qXSmktJB,2020-0188,2020-06-04,13:41:36,14:07:13,NA,incomplete,182,gender,3,1,left,C_F_14.jpg,A_F_07.jpg,C_M_15.jpg,right,1452.2450000222307,false,low,false
qXSmktJB,3kqc8jmjhf51pencp85cgosduim3h1,36nemu28xjqmvao5hr1t2a7xwr2wmw,qXSmktJB,2020-0188,2020-06-04,13:41:36,14:07:13,NA,incomplete,183,gender,3,1,right,A_M_11.jpg,A_F_05.jpg,C_M_04.jpg,right,1029.6800000069197,true,low,false
qXSmktJB,3kqc8jmjhf51pencp85cgosduim3h1,36nemu28xjqmvao5hr1t2a7xwr2wmw,qXSmktJB,2020-0188,2020-06-04,13:41:36,14:07:13,NA,incomplete,184,gender,3,1,left,A_F_10.jpg,C_F_15.jpg,A_M_01.jpg,right,977.935000002617,false,low,false
qXSmktJB,3kqc8jmjhf51pencp85cgosduim3h1,36nemu28xjqmvao5hr1t2a7xwr2wmw,qXSmktJB,2020-0188,2020-06-04,13:41:36,14:07:13,NA,incomplete,185,gender,3,1,left,A_M_08.jpg,C_M_09.jpg,A_F_11.jpg,left,1059.2999999935273,true,low,false
qXSmktJB,3kqc8jmjhf51pencp85cgosduim3h1,36nemu28xjqmvao5hr1t2a7xwr2wmw,qXSmktJB,2020-0188,2020-06-04,13:41:36,14:07:13,NA,incomplete,186,gender,3,1,right,A_M_11.jpg,A_F_14.jpg,C_M_12.jpg,right,1353.2600000035018,true,low,false
qXSmktJB,3kqc8jmjhf51pencp85cgosduim3h1,36nemu28xjqmvao5hr1t2a7xwr2wmw,qXSmktJB,2020-0188,2020-06-04,13:41:36,14:07:13,NA,incomplete,187,gender,3,1,right,A_F_11.jpg,A_M_05.jpg,C_F_08.jpg,right,1092.4900000100024,true,low,false
qXSmktJB,3kqc8jmjhf51pencp85cgosduim3h1,36nemu28xjqmvao5hr1t2a7xwr2wmw,qXSmktJB,2020-0188,2020-06-04,13:41:36,14:07:13,NA,incomplete,188,gender,3,1,right,A_M_15.jpg,A_F_12.jpg,C_M_14.jpg,left,1198.2999999891035,false,low,false
qXSmktJB,3kqc8jmjhf51pencp85cgosduim3h1,36nemu28xjqmvao5hr1t2a7xwr2wmw,qXSmktJB,2020-0188,2020-06-04,13:41:36,14:07:13,NA,incomplete,189,gender,3,1,right,A_F_05.jpg,A_M_15.jpg,C_F_04.jpg,right,719.3499999993946,true,low,false
qXSmktJB,3kqc8jmjhf51pencp85cgosduim3h1,36nemu28xjqmvao5hr1t2a7xwr2wmw,qXSmktJB,2020-0188,2020-06-04,13:41:36,14:07:13,NA,incomplete,190,gender,3,1,right,C_F_01.jpg,C_M_13.jpg,A_F_08.jpg,right,498.59999999171123,true,low,false
qXSmktJB,3kqc8jmjhf51pencp85cgosduim3h1,36nemu28xjqmvao5hr1t2a7xwr2wmw,qXSmktJB,2020-0188,2020-06-04,13:41:36,14:07:13,NA,incomplete,191,gender,3,1,right,A_F_01.jpg,A_M_05.jpg,C_F_11.jpg,left,1057.4349999951664,false,low,false
qXSmktJB,3kqc8jmjhf51pencp85cgosduim3h1,36nemu28xjqmvao5hr1t2a7xwr2wmw,qXSmktJB,2020-0188,2020-06-04,13:41:36,14:07:13,NA,incomplete,192,gender,3,1,left,C_F_13.jpg,A_F_11.jpg,C_M_06.jpg,right,1047.8149999980815,false,low,false
qXSmktJB,3kqc8jmjhf51pencp85cgosduim3h1,36nemu28xjqmvao5hr1t2a7xwr2wmw,qXSmktJB,2020-0188,2020-06-04,13:41:36,14:07:13,NA,incomplete,193,gender,3,0,right,A_F_15.jpg,A_M_11.jpg,C_F_06.jpg,right,852.195000014035,true,low,false
qXSmktJB,3kqc8jmjhf51pencp85cgosduim3h1,36nemu28xjqmvao5hr1t2a7xwr2wmw,qXSmktJB,2020-0188,2020-06-04,13:41:36,14:07:13,NA,incomplete,194,gender,3,1,right,C_F_16.jpg,C_M_15.jpg,A_F_13.jpg,left,714.7450000047684,false,low,false
qXSmktJB,3kqc8jmjhf51pencp85cgosduim3h1,36nemu28xjqmvao5hr1t2a7xwr2wmw,qXSmktJB,2020-0188,2020-06-04,13:41:36,14:07:13,NA,incomplete,195,gender,3,0,right,C_F_04.jpg,C_M_06.jpg,A_F_10.jpg,right,678.1799999880604,true,low,false
qXSmktJB,3kqc8jmjhf51pencp85cgosduim3h1,36nemu28xjqmvao5hr1t2a7xwr2wmw,qXSmktJB,2020-0188,2020-06-04,13:41:36,14:07:13,NA,incomplete,196,gender,3,1,left,C_M_02.jpg,A_M_11.jpg,C_F_05.jpg,left,1196.844999998575,true,low,false
qXSmktJB,3kqc8jmjhf51pencp85cgosduim3h1,36nemu28xjqmvao5hr1t2a7xwr2wmw,qXSmktJB,2020-0188,2020-06-04,13:41:36,14:07:13,NA,incomplete,197,gender,3,0,right,C_F_11.jpg,C_M_05.jpg,A_F_04.jpg,right,1198.6350000079256,true,low,false
qXSmktJB,3kqc8jmjhf51pencp85cgosduim3h1,36nemu28xjqmvao5hr1t2a7xwr2wmw,qXSmktJB,2020-0188,2020-06-04,13:41:36,14:07:13,NA,incomplete,198,gender,3,1,left,C_F_14.jpg,A_F_08.jpg,C_M_09.jpg,right,948.1899999955203,false,low,false
qXSmktJB,3kqc8jmjhf51pencp85cgosduim3h1,36nemu28xjqmvao5hr1t2a7xwr2wmw,qXSmktJB,2020-0188,2020-06-04,13:41:36,14:07:13,NA,incomplete,199,gender,3,1,right,A_F_07.jpg,A_M_14.jpg,C_F_08.jpg,left,1182.9499999876134,false,low,false
qXSmktJB,3kqc8jmjhf51pencp85cgosduim3h1,36nemu28xjqmvao5hr1t2a7xwr2wmw,qXSmktJB,2020-0188,2020-06-04,13:41:36,14:07:13,NA,incomplete,200,race,2,1,left,C_F_05.jpg,C_M_16.jpg,A_F_10.jpg,left,1656.3700000115205,true,low,false
qXSmktJB,3kqc8jmjhf51pencp85cgosduim3h1,36nemu28xjqmvao5hr1t2a7xwr2wmw,qXSmktJB,2020-0188,2020-06-04,13:41:36,14:07:13,NA,incomplete,201,race,2,1,right,A_M_10.jpg,C_M_05.jpg,A_F_09.jpg,right,1230.2349999954458,true,low,false
qXSmktJB,3kqc8jmjhf51pencp85cgosduim3h1,36nemu28xjqmvao5hr1t2a7xwr2wmw,qXSmktJB,2020-0188,2020-06-04,13:41:36,14:07:13,NA,incomplete,202,race,2,1,left,A_F_07.jpg,A_M_05.jpg,C_F_01.jpg,left,1219.9899999832269,true,low,false
qXSmktJB,3kqc8jmjhf51pencp85cgosduim3h1,36nemu28xjqmvao5hr1t2a7xwr2wmw,qXSmktJB,2020-0188,2020-06-04,13:41:36,14:07:13,NA,incomplete,203,race,2,0,left,C_F_04.jpg,C_M_15.jpg,A_F_11.jpg,left,914.310000021942,true,low,false
qXSmktJB,3kqc8jmjhf51pencp85cgosduim3h1,36nemu28xjqmvao5hr1t2a7xwr2wmw,qXSmktJB,2020-0188,2020-06-04,13:41:36,14:07:13,NA,incomplete,204,race,2,1,left,A_F_05.jpg,A_M_14.jpg,C_F_15.jpg,left,1302.4500000174157,true,low,false
qXSmktJB,3kqc8jmjhf51pencp85cgosduim3h1,36nemu28xjqmvao5hr1t2a7xwr2wmw,qXSmktJB,2020-0188,2020-06-04,13:41:36,14:07:13,NA,incomplete,205,race,2,1,left,C_M_05.jpg,C_F_13.jpg,A_M_06.jpg,left,1527.5050000054762,true,low,false
qXSmktJB,3kqc8jmjhf51pencp85cgosduim3h1,36nemu28xjqmvao5hr1t2a7xwr2wmw,qXSmktJB,2020-0188,2020-06-04,13:41:36,14:07:13,NA,incomplete,206,race,2,0,right,C_F_06.jpg,A_F_05.jpg,C_M_07.jpg,right,1324.930000002496,true,low,false
qXSmktJB,3kqc8jmjhf51pencp85cgosduim3h1,36nemu28xjqmvao5hr1t2a7xwr2wmw,qXSmktJB,2020-0188,2020-06-04,13:41:36,14:07:13,NA,incomplete,207,race,2,1,left,A_F_09.jpg,A_M_11.jpg,C_F_05.jpg,left,1366.745000006631,true,low,false
qXSmktJB,3kqc8jmjhf51pencp85cgosduim3h1,36nemu28xjqmvao5hr1t2a7xwr2wmw,qXSmktJB,2020-0188,2020-06-04,13:41:36,14:07:13,NA,incomplete,208,race,2,1,right,C_M_15.jpg,A_M_07.jpg,C_F_14.jpg,right,959.8850000184029,true,low,false
qXSmktJB,3kqc8jmjhf51pencp85cgosduim3h1,36nemu28xjqmvao5hr1t2a7xwr2wmw,qXSmktJB,2020-0188,2020-06-04,13:41:36,14:07:13,NA,incomplete,209,race,2,0,right,C_F_03.jpg,A_F_12.jpg,C_M_04.jpg,right,859.405000024708,true,low,false
qXSmktJB,3kqc8jmjhf51pencp85cgosduim3h1,36nemu28xjqmvao5hr1t2a7xwr2wmw,qXSmktJB,2020-0188,2020-06-04,13:41:36,14:07:13,NA,incomplete,210,race,2,1,left,C_M_11.jpg,C_F_04.jpg,A_M_08.jpg,left,1175.2399999822956,true,low,false
qXSmktJB,3kqc8jmjhf51pencp85cgosduim3h1,36nemu28xjqmvao5hr1t2a7xwr2wmw,qXSmktJB,2020-0188,2020-06-04,13:41:36,14:07:13,NA,incomplete,211,race,2,1,right,C_M_07.jpg,A_M_05.jpg,C_F_09.jpg,right,856.1000000045169,true,low,false
qXSmktJB,3kqc8jmjhf51pencp85cgosduim3h1,36nemu28xjqmvao5hr1t2a7xwr2wmw,qXSmktJB,2020-0188,2020-06-04,13:41:36,14:07:13,NA,incomplete,212,race,2,1,left,C_M_03.jpg,C_F_05.jpg,A_M_01.jpg,right,1294.9599999992643,false,low,false
qXSmktJB,3kqc8jmjhf51pencp85cgosduim3h1,36nemu28xjqmvao5hr1t2a7xwr2wmw,qXSmktJB,2020-0188,2020-06-04,13:41:36,14:07:13,NA,incomplete,213,race,2,1,left,A_M_10.jpg,A_F_13.jpg,C_M_14.jpg,left,1307.66500000027,true,low,false
qXSmktJB,3kqc8jmjhf51pencp85cgosduim3h1,36nemu28xjqmvao5hr1t2a7xwr2wmw,qXSmktJB,2020-0188,2020-06-04,13:41:36,14:07:13,NA,incomplete,214,race,2,0,right,A_F_12.jpg,C_F_13.jpg,A_M_10.jpg,left,709.1700000164565,false,low,false
qXSmktJB,3kqc8jmjhf51pencp85cgosduim3h1,36nemu28xjqmvao5hr1t2a7xwr2wmw,qXSmktJB,2020-0188,2020-06-04,13:41:36,14:07:13,NA,incomplete,215,race,2,1,left,A_M_06.jpg,A_F_01.jpg,C_M_04.jpg,right,1466.7999999946915,false,low,false
qXSmktJB,3kqc8jmjhf51pencp85cgosduim3h1,36nemu28xjqmvao5hr1t2a7xwr2wmw,qXSmktJB,2020-0188,2020-06-04,13:41:36,14:07:13,NA,incomplete,216,race,2,1,right,A_M_13.jpg,C_M_09.jpg,A_F_08.jpg,left,1493.5649999824818,false,low,false
qXSmktJB,3kqc8jmjhf51pencp85cgosduim3h1,36nemu28xjqmvao5hr1t2a7xwr2wmw,qXSmktJB,2020-0188,2020-06-04,13:41:36,14:07:13,NA,incomplete,217,race,2,1,right,A_F_14.jpg,C_F_07.jpg,A_M_05.jpg,right,1428.1500000215601,true,low,false
qXSmktJB,3kqc8jmjhf51pencp85cgosduim3h1,36nemu28xjqmvao5hr1t2a7xwr2wmw,qXSmktJB,2020-0188,2020-06-04,13:41:36,14:07:13,NA,incomplete,218,race,2,1,left,A_M_11.jpg,A_F_13.jpg,C_M_05.jpg,left,1191.4950000063982,true,low,false
qXSmktJB,3kqc8jmjhf51pencp85cgosduim3h1,36nemu28xjqmvao5hr1t2a7xwr2wmw,qXSmktJB,2020-0188,2020-06-04,13:41:36,14:07:13,NA,incomplete,219,race,2,1,left,A_M_04.jpg,A_F_02.jpg,C_M_07.jpg,left,1055.5700000259094,true,low,false
qXSmktJB,3kqc8jmjhf51pencp85cgosduim3h1,36nemu28xjqmvao5hr1t2a7xwr2wmw,qXSmktJB,2020-0188,2020-06-04,13:41:36,14:07:13,NA,incomplete,220,gender,3,0,right,C_F_11.jpg,C_M_07.jpg,A_F_08.jpg,right,1421.0800000000745,true,low,false
qXSmktJB,3kqc8jmjhf51pencp85cgosduim3h1,36nemu28xjqmvao5hr1t2a7xwr2wmw,qXSmktJB,2020-0188,2020-06-04,13:41:36,14:07:13,NA,incomplete,221,gender,3,1,right,A_F_13.jpg,A_M_11.jpg,C_F_03.jpg,left,1102.7699999976903,false,low,false
qXSmktJB,3kqc8jmjhf51pencp85cgosduim3h1,36nemu28xjqmvao5hr1t2a7xwr2wmw,qXSmktJB,2020-0188,2020-06-04,13:41:36,14:07:13,NA,incomplete,222,gender,3,0,left,C_F_06.jpg,A_F_08.jpg,C_M_10.jpg,left,1039.985000010347,true,low,false
qXSmktJB,3kqc8jmjhf51pencp85cgosduim3h1,36nemu28xjqmvao5hr1t2a7xwr2wmw,qXSmktJB,2020-0188,2020-06-04,13:41:36,14:07:13,NA,incomplete,223,gender,3,1,left,A_F_07.jpg,C_F_16.jpg,A_M_09.jpg,right,1013.409999985015,false,low,false
qXSmktJB,3kqc8jmjhf51pencp85cgosduim3h1,36nemu28xjqmvao5hr1t2a7xwr2wmw,qXSmktJB,2020-0188,2020-06-04,13:41:36,14:07:13,NA,incomplete,224,gender,3,1,left,C_F_14.jpg,A_F_05.jpg,C_M_13.jpg,right,1165.4449999914505,false,low,false
qXSmktJB,3kqc8jmjhf51pencp85cgosduim3h1,36nemu28xjqmvao5hr1t2a7xwr2wmw,qXSmktJB,2020-0188,2020-06-04,13:41:36,14:07:13,NA,incomplete,225,gender,3,1,right,A_F_14.jpg,A_M_05.jpg,C_F_04.jpg,left,977.1199999959208,false,low,false
qXSmktJB,3kqc8jmjhf51pencp85cgosduim3h1,36nemu28xjqmvao5hr1t2a7xwr2wmw,qXSmktJB,2020-0188,2020-06-04,13:41:36,14:07:13,NA,incomplete,226,gender,3,1,right,A_F_02.jpg,A_M_04.jpg,C_F_05.jpg,left,832.4300000094809,false,low,false
qXSmktJB,3kqc8jmjhf51pencp85cgosduim3h1,36nemu28xjqmvao5hr1t2a7xwr2wmw,qXSmktJB,2020-0188,2020-06-04,13:41:36,14:07:13,NA,incomplete,227,gender,3,1,right,C_M_06.jpg,C_F_04.jpg,A_M_10.jpg,left,1911.5350000211038,false,low,false
qXSmktJB,3kqc8jmjhf51pencp85cgosduim3h1,36nemu28xjqmvao5hr1t2a7xwr2wmw,qXSmktJB,2020-0188,2020-06-04,13:41:36,14:07:13,NA,incomplete,228,gender,3,0,right,A_M_02.jpg,A_F_14.jpg,C_M_12.jpg,left,1960.85000000312,false,low,false
qXSmktJB,3kqc8jmjhf51pencp85cgosduim3h1,36nemu28xjqmvao5hr1t2a7xwr2wmw,qXSmktJB,2020-0188,2020-06-04,13:41:36,14:07:13,NA,incomplete,229,gender,3,1,left,C_F_08.jpg,A_F_16.jpg,C_M_04.jpg,right,1316.9199999829289,false,low,false
qXSmktJB,3kqc8jmjhf51pencp85cgosduim3h1,36nemu28xjqmvao5hr1t2a7xwr2wmw,qXSmktJB,2020-0188,2020-06-04,13:41:36,14:07:13,NA,incomplete,230,gender,3,1,right,C_F_02.jpg,C_M_11.jpg,A_F_06.jpg,left,1101.3200000161305,false,low,false
qXSmktJB,3kqc8jmjhf51pencp85cgosduim3h1,36nemu28xjqmvao5hr1t2a7xwr2wmw,qXSmktJB,2020-0188,2020-06-04,13:41:36,14:07:13,NA,incomplete,231,gender,3,1,left,A_M_16.jpg,C_M_10.jpg,A_F_02.jpg,right,1560.7949999975972,false,low,false
qXSmktJB,3kqc8jmjhf51pencp85cgosduim3h1,36nemu28xjqmvao5hr1t2a7xwr2wmw,qXSmktJB,2020-0188,2020-06-04,13:41:36,14:07:13,NA,incomplete,232,gender,3,1,left,C_F_04.jpg,A_F_11.jpg,C_M_02.jpg,left,1049.3600000045262,true,low,false
qXSmktJB,3kqc8jmjhf51pencp85cgosduim3h1,36nemu28xjqmvao5hr1t2a7xwr2wmw,qXSmktJB,2020-0188,2020-06-04,13:41:36,14:07:13,NA,incomplete,233,gender,3,1,right,C_M_16.jpg,C_F_02.jpg,A_M_03.jpg,right,1002.8499999898486,true,low,false
qXSmktJB,3kqc8jmjhf51pencp85cgosduim3h1,36nemu28xjqmvao5hr1t2a7xwr2wmw,qXSmktJB,2020-0188,2020-06-04,13:41:36,14:07:13,NA,incomplete,234,gender,3,1,left,C_M_06.jpg,A_M_08.jpg,C_F_10.jpg,left,920.9200000041164,true,low,false
qXSmktJB,3kqc8jmjhf51pencp85cgosduim3h1,36nemu28xjqmvao5hr1t2a7xwr2wmw,qXSmktJB,2020-0188,2020-06-04,13:41:36,14:07:13,NA,incomplete,235,gender,3,1,right,C_M_07.jpg,C_F_01.jpg,A_M_12.jpg,right,939.1950000135694,true,low,false
qXSmktJB,3kqc8jmjhf51pencp85cgosduim3h1,36nemu28xjqmvao5hr1t2a7xwr2wmw,qXSmktJB,2020-0188,2020-06-04,13:41:36,14:07:13,NA,incomplete,236,gender,3,0,right,A_F_08.jpg,A_M_16.jpg,C_F_13.jpg,right,838.5600000037812,true,low,false
qXSmktJB,3kqc8jmjhf51pencp85cgosduim3h1,36nemu28xjqmvao5hr1t2a7xwr2wmw,qXSmktJB,2020-0188,2020-06-04,13:41:36,14:07:13,NA,incomplete,237,gender,3,1,left,C_M_16.jpg,A_M_11.jpg,C_F_15.jpg,left,812.3599999817088,true,low,false
qXSmktJB,3kqc8jmjhf51pencp85cgosduim3h1,36nemu28xjqmvao5hr1t2a7xwr2wmw,qXSmktJB,2020-0188,2020-06-04,13:41:36,14:07:13,NA,incomplete,238,gender,3,1,right,C_M_02.jpg,C_F_16.jpg,A_M_07.jpg,right,679.615000000922,true,low,false
qXSmktJB,3kqc8jmjhf51pencp85cgosduim3h1,36nemu28xjqmvao5hr1t2a7xwr2wmw,qXSmktJB,2020-0188,2020-06-04,13:41:36,14:07:13,NA,incomplete,239,gender,3,1,left,C_M_04.jpg,A_M_15.jpg,C_F_13.jpg,left,956.1950000061188,true,low,false
qXSmktJB,3kqc8jmjhf51pencp85cgosduim3h1,36nemu28xjqmvao5hr1t2a7xwr2wmw,qXSmktJB,2020-0188,2020-06-04,13:41:36,14:07:13,NA,NA,instruction example,color,NA,NA,NA,Purple_Circle_Grid_3.jpg,Purple_Star_Chess_4.jpg,Red_Circle_Stripes_2.jpg,NA,NA,NA,NA,undefined
qXSmktJB,3kqc8jmjhf51pencp85cgosduim3h1,36nemu28xjqmvao5hr1t2a7xwr2wmw,qXSmktJB,2020-0188,2020-06-04,13:41:36,14:07:13,NA,NA,instruction example,color,NA,NA,NA,Green_Plus_Stripes_2.jpg,Purple_Plus_Chess_3.jpg,Green_Star_Grid_4.jpg,NA,NA,NA,NA,undefined
qXSmktJB,3kqc8jmjhf51pencp85cgosduim3h1,36nemu28xjqmvao5hr1t2a7xwr2wmw,qXSmktJB,2020-0188,2020-06-04,13:41:36,14:07:13,NA,NA,instruction example,color,NA,NA,NA,A_M_11.jpg,A_F_06.jpg,C_M_03.jpg,NA,NA,NA,NA,undefined
qXSmktJB,3kqc8jmjhf51pencp85cgosduim3h1,36nemu28xjqmvao5hr1t2a7xwr2wmw,qXSmktJB,2020-0188,2020-06-04,13:41:36,14:07:13,NA,NA,instruction example,color,NA,NA,NA,C_M_13.jpg,A_M_02.jpg,C_F_06.jpg,NA,NA,NA,NA,undefined
