workerId,hitId,assignmentId,subject,studyid,exp_date,exp_start,exp_end,time_start,time_end,trial,type,sequence,reward_validity,answer,image_top,image_left,image_right,response,response_time,response_acc,volatility,age,race,gender,ethnicity,color,vision,neuro,practice
qOoxnOCx,3t5zxgo9eh1fn0t8t5nft3pt661qzj,36u2a8vag5cvurj2bg618u0ae6pykw,qOoxnOCx,2020-0188,2020-11-17,10:50:01,11:08:20,NA,incomplete,0,filling,0,1,right,Blue_Star_Stripes_1.jpg,Green_Plus_Chess_1.jpg,Red_Triangle_Stripes_4.jpg,none,0,false,NA,NA,NA,NA,NA,NA,NA,NA,true
qOoxnOCx,3t5zxgo9eh1fn0t8t5nft3pt661qzj,36u2a8vag5cvurj2bg618u0ae6pykw,qOoxnOCx,2020-0188,2020-11-17,10:50:01,11:08:20,NA,incomplete,1,filling,0,1,right,Red_Triangle_Chess_4.jpg,Green_Plus_Stripes_4.jpg,Blue_Star_Chess_2.jpg,right,1859.5949999999139,true,NA,NA,NA,NA,NA,NA,NA,NA,true
qOoxnOCx,3t5zxgo9eh1fn0t8t5nft3pt661qzj,36u2a8vag5cvurj2bg618u0ae6pykw,qOoxnOCx,2020-0188,2020-11-17,10:50:01,11:08:20,NA,incomplete,2,filling,0,1,right,Blue_Circle_Chess_3.jpg,Red_Triangle_Dots_3.jpg,Purple_Star_Chess_1.jpg,right,1302.479999999865,true,NA,NA,NA,NA,NA,NA,NA,NA,true
qOoxnOCx,3t5zxgo9eh1fn0t8t5nft3pt661qzj,36u2a8vag5cvurj2bg618u0ae6pykw,qOoxnOCx,2020-0188,2020-11-17,10:50:01,11:08:20,NA,incomplete,3,filling,0,1,left,Blue_Star_Grid_1.jpg,Purple_Circle_Grid_4.jpg,Red_Triangle_Stripes_1.jpg,left,1383.2099999999627,true,NA,NA,NA,NA,NA,NA,NA,NA,true
qOoxnOCx,3t5zxgo9eh1fn0t8t5nft3pt661qzj,36u2a8vag5cvurj2bg618u0ae6pykw,qOoxnOCx,2020-0188,2020-11-17,10:50:01,11:08:20,NA,incomplete,4,filling,0,1,right,Blue_Triangle_Chess_4.jpg,Green_Circle_Dots_4.jpg,Red_Plus_Chess_2.jpg,right,1140.2900000000373,true,NA,NA,NA,NA,NA,NA,NA,NA,true
qOoxnOCx,3t5zxgo9eh1fn0t8t5nft3pt661qzj,36u2a8vag5cvurj2bg618u0ae6pykw,qOoxnOCx,2020-0188,2020-11-17,10:50:01,11:08:20,NA,incomplete,5,filling,0,1,right,Red_Plus_Stripes_4.jpg,Blue_Star_Dots_4.jpg,Green_Circle_Stripes_2.jpg,right,962.0299999999115,true,NA,NA,NA,NA,NA,NA,NA,NA,true
qOoxnOCx,3t5zxgo9eh1fn0t8t5nft3pt661qzj,36u2a8vag5cvurj2bg618u0ae6pykw,qOoxnOCx,2020-0188,2020-11-17,10:50:01,11:08:20,NA,incomplete,6,filling,0,1,right,Purple_Circle_Stripes_1.jpg,Blue_Triangle_Dots_1.jpg,Green_Plus_Stripes_2.jpg,right,922.8050000001676,true,NA,NA,NA,NA,NA,NA,NA,NA,true
qOoxnOCx,3t5zxgo9eh1fn0t8t5nft3pt661qzj,36u2a8vag5cvurj2bg618u0ae6pykw,qOoxnOCx,2020-0188,2020-11-17,10:50:01,11:08:20,NA,incomplete,7,filling,0,1,right,Green_Circle_Chess_3.jpg,Purple_Plus_Grid_3.jpg,Red_Triangle_Chess_4.jpg,right,1097.1149999999907,true,NA,NA,NA,NA,NA,NA,NA,NA,true
qOoxnOCx,3t5zxgo9eh1fn0t8t5nft3pt661qzj,36u2a8vag5cvurj2bg618u0ae6pykw,qOoxnOCx,2020-0188,2020-11-17,10:50:01,11:08:20,NA,incomplete,8,filling,0,1,right,Blue_Triangle_Chess_4.jpg,Red_Star_Grid_4.jpg,Purple_Plus_Chess_2.jpg,right,1268.170000000042,true,NA,NA,NA,NA,NA,NA,NA,NA,true
qOoxnOCx,3t5zxgo9eh1fn0t8t5nft3pt661qzj,36u2a8vag5cvurj2bg618u0ae6pykw,qOoxnOCx,2020-0188,2020-11-17,10:50:01,11:08:20,NA,incomplete,9,filling,0,1,left,Purple_Triangle_Chess_3.jpg,Green_Star_Chess_2.jpg,Blue_Plus_Dots_3.jpg,left,863.3150000000605,true,NA,NA,NA,NA,NA,NA,NA,NA,true
qOoxnOCx,3t5zxgo9eh1fn0t8t5nft3pt661qzj,36u2a8vag5cvurj2bg618u0ae6pykw,qOoxnOCx,2020-0188,2020-11-17,10:50:01,11:08:20,NA,incomplete,10,filling,0,1,right,Purple_Triangle_Grid_1.jpg,Red_Circle_Chess_1.jpg,Green_Star_Grid_2.jpg,left,941.820000000007,false,NA,NA,NA,NA,NA,NA,NA,NA,true
qOoxnOCx,3t5zxgo9eh1fn0t8t5nft3pt661qzj,36u2a8vag5cvurj2bg618u0ae6pykw,qOoxnOCx,2020-0188,2020-11-17,10:50:01,11:08:20,NA,incomplete,11,filling,0,1,left,Blue_Star_Stripes_1.jpg,Green_Circle_Stripes_4.jpg,Red_Plus_Grid_1.jpg,left,875.6250000001164,true,NA,NA,NA,NA,NA,NA,NA,NA,true
qOoxnOCx,3t5zxgo9eh1fn0t8t5nft3pt661qzj,36u2a8vag5cvurj2bg618u0ae6pykw,qOoxnOCx,2020-0188,2020-11-17,10:50:01,11:08:20,NA,incomplete,12,filling,0,0,left,Green_Star_Chess_2.jpg,Red_Plus_Chess_1.jpg,Blue_Circle_Stripes_2.jpg,left,994.0349999999744,true,NA,NA,NA,NA,NA,NA,NA,NA,true
qOoxnOCx,3t5zxgo9eh1fn0t8t5nft3pt661qzj,36u2a8vag5cvurj2bg618u0ae6pykw,qOoxnOCx,2020-0188,2020-11-17,10:50:01,11:08:20,NA,incomplete,13,filling,0,1,left,Blue_Circle_Chess_1.jpg,Green_Star_Chess_3.jpg,Red_Triangle_Dots_1.jpg,left,1185.835000000021,true,NA,NA,NA,NA,NA,NA,NA,NA,true
qOoxnOCx,3t5zxgo9eh1fn0t8t5nft3pt661qzj,36u2a8vag5cvurj2bg618u0ae6pykw,qOoxnOCx,2020-0188,2020-11-17,10:50:01,11:08:20,NA,incomplete,14,filling,0,0,right,Red_Star_Chess_3.jpg,Purple_Circle_Dots_3.jpg,Green_Plus_Chess_4.jpg,right,1093.115000000107,true,NA,NA,NA,NA,NA,NA,NA,NA,true
qOoxnOCx,3t5zxgo9eh1fn0t8t5nft3pt661qzj,36u2a8vag5cvurj2bg618u0ae6pykw,qOoxnOCx,2020-0188,2020-11-17,10:50:01,11:08:20,NA,incomplete,15,filling,0,0,left,Blue_Star_Chess_2.jpg,Green_Circle_Chess_4.jpg,Purple_Plus_Stripes_2.jpg,left,1181.280000000028,true,NA,NA,NA,NA,NA,NA,NA,NA,true
qOoxnOCx,3t5zxgo9eh1fn0t8t5nft3pt661qzj,36u2a8vag5cvurj2bg618u0ae6pykw,qOoxnOCx,2020-0188,2020-11-17,10:50:01,11:08:20,NA,incomplete,16,filling,0,1,left,Red_Triangle_Grid_2.jpg,Green_Plus_Grid_1.jpg,Blue_Circle_Chess_2.jpg,left,1442.6200000000536,true,NA,NA,NA,NA,NA,NA,NA,NA,true
qOoxnOCx,3t5zxgo9eh1fn0t8t5nft3pt661qzj,36u2a8vag5cvurj2bg618u0ae6pykw,qOoxnOCx,2020-0188,2020-11-17,10:50:01,11:08:20,NA,incomplete,17,filling,0,0,right,Red_Circle_Stripes_1.jpg,Blue_Triangle_Dots_1.jpg,Purple_Star_Stripes_2.jpg,right,939.4200000001583,true,NA,NA,NA,NA,NA,NA,NA,NA,true
qOoxnOCx,3t5zxgo9eh1fn0t8t5nft3pt661qzj,36u2a8vag5cvurj2bg618u0ae6pykw,qOoxnOCx,2020-0188,2020-11-17,10:50:01,11:08:20,NA,incomplete,18,filling,0,1,left,Blue_Plus_Stripes_1.jpg,Red_Circle_Stripes_2.jpg,Green_Star_Grid_1.jpg,left,1023.5199999999604,true,NA,NA,NA,NA,NA,NA,NA,NA,true
qOoxnOCx,3t5zxgo9eh1fn0t8t5nft3pt661qzj,36u2a8vag5cvurj2bg618u0ae6pykw,qOoxnOCx,2020-0188,2020-11-17,10:50:01,11:08:20,NA,incomplete,19,filling,0,1,right,Blue_Circle_Grid_3.jpg,Red_Star_Dots_3.jpg,Purple_Triangle_Grid_4.jpg,right,912.9800000000396,true,NA,NA,NA,NA,NA,NA,NA,NA,true
qOoxnOCx,3t5zxgo9eh1fn0t8t5nft3pt661qzj,36u2a8vag5cvurj2bg618u0ae6pykw,qOoxnOCx,2020-0188,2020-11-17,10:50:01,11:08:20,NA,incomplete,20,number,1,1,right,Green_Triangle_Grid_1.jpg,Purple_Circle_Grid_2.jpg,Red_Star_Dots_1.jpg,left,839.1549999998533,false,NA,NA,NA,NA,NA,NA,NA,NA,true
qOoxnOCx,3t5zxgo9eh1fn0t8t5nft3pt661qzj,36u2a8vag5cvurj2bg618u0ae6pykw,qOoxnOCx,2020-0188,2020-11-17,10:50:01,11:08:20,NA,incomplete,21,number,1,1,left,Purple_Plus_Grid_4.jpg,Red_Triangle_Chess_4.jpg,Green_Circle_Grid_3.jpg,left,1270.594999999972,true,NA,NA,NA,NA,NA,NA,NA,NA,true
qOoxnOCx,3t5zxgo9eh1fn0t8t5nft3pt661qzj,36u2a8vag5cvurj2bg618u0ae6pykw,qOoxnOCx,2020-0188,2020-11-17,10:50:01,11:08:20,NA,incomplete,22,number,1,1,left,Red_Triangle_Chess_4.jpg,Purple_Plus_Stripes_4.jpg,Green_Star_Chess_3.jpg,left,1294.87000000017,true,NA,NA,NA,NA,NA,NA,NA,NA,true
qOoxnOCx,3t5zxgo9eh1fn0t8t5nft3pt661qzj,36u2a8vag5cvurj2bg618u0ae6pykw,qOoxnOCx,2020-0188,2020-11-17,10:50:01,11:08:20,NA,incomplete,23,number,1,1,left,Purple_Plus_Grid_3.jpg,Green_Circle_Dots_3.jpg,Red_Star_Grid_1.jpg,left,1163.3249999999534,true,NA,NA,NA,NA,NA,NA,NA,NA,true
qOoxnOCx,3t5zxgo9eh1fn0t8t5nft3pt661qzj,36u2a8vag5cvurj2bg618u0ae6pykw,qOoxnOCx,2020-0188,2020-11-17,10:50:01,11:08:20,NA,incomplete,24,number,1,1,left,Green_Star_Dots_3.jpg,Blue_Circle_Stripes_3.jpg,Purple_Plus_Dots_4.jpg,left,816.9899999997579,true,NA,NA,NA,NA,NA,NA,NA,NA,true
qOoxnOCx,3t5zxgo9eh1fn0t8t5nft3pt661qzj,36u2a8vag5cvurj2bg618u0ae6pykw,qOoxnOCx,2020-0188,2020-11-17,10:50:01,11:08:20,NA,incomplete,25,number,1,1,right,Green_Circle_Grid_3.jpg,Blue_Plus_Grid_1.jpg,Purple_Star_Dots_3.jpg,right,757.515000000014,true,NA,NA,NA,NA,NA,NA,NA,NA,true
qOoxnOCx,3t5zxgo9eh1fn0t8t5nft3pt661qzj,36u2a8vag5cvurj2bg618u0ae6pykw,qOoxnOCx,2020-0188,2020-11-17,10:50:01,11:08:20,NA,incomplete,26,number,1,1,right,Purple_Star_Grid_3.jpg,Red_Triangle_Grid_4.jpg,Green_Circle_Dots_3.jpg,right,808.6000000000349,true,NA,NA,NA,NA,NA,NA,NA,NA,true
qOoxnOCx,3t5zxgo9eh1fn0t8t5nft3pt661qzj,36u2a8vag5cvurj2bg618u0ae6pykw,qOoxnOCx,2020-0188,2020-11-17,10:50:01,11:08:20,NA,incomplete,27,number,1,1,left,Red_Circle_Dots_4.jpg,Purple_Triangle_Grid_4.jpg,Green_Plus_Dots_3.jpg,left,764.2949999999837,true,NA,NA,NA,NA,NA,NA,NA,NA,true
qOoxnOCx,3t5zxgo9eh1fn0t8t5nft3pt661qzj,36u2a8vag5cvurj2bg618u0ae6pykw,qOoxnOCx,2020-0188,2020-11-17,10:50:01,11:08:20,NA,incomplete,28,number,1,1,left,Blue_Plus_Grid_4.jpg,Purple_Star_Stripes_4.jpg,Green_Triangle_Grid_1.jpg,left,658.1049999999814,true,NA,NA,NA,NA,NA,NA,NA,NA,true
qOoxnOCx,3t5zxgo9eh1fn0t8t5nft3pt661qzj,36u2a8vag5cvurj2bg618u0ae6pykw,qOoxnOCx,2020-0188,2020-11-17,10:50:01,11:08:20,NA,incomplete,29,number,1,0,right,Green_Star_Stripes_2.jpg,Purple_Plus_Stripes_4.jpg,Blue_Triangle_Chess_2.jpg,right,666.0200000000768,true,NA,NA,NA,NA,NA,NA,NA,NA,true
qOoxnOCx,3t5zxgo9eh1fn0t8t5nft3pt661qzj,36u2a8vag5cvurj2bg618u0ae6pykw,qOoxnOCx,2020-0188,2020-11-17,10:50:01,11:08:20,NA,incomplete,30,number,1,1,left,Green_Triangle_Stripes_3.jpg,Red_Plus_Chess_3.jpg,Blue_Star_Stripes_2.jpg,left,758.3800000000047,true,NA,NA,NA,NA,NA,NA,NA,NA,true
qOoxnOCx,3t5zxgo9eh1fn0t8t5nft3pt661qzj,36u2a8vag5cvurj2bg618u0ae6pykw,qOoxnOCx,2020-0188,2020-11-17,10:50:01,11:08:20,NA,incomplete,31,number,1,1,left,Green_Plus_Chess_3.jpg,Blue_Circle_Dots_3.jpg,Red_Triangle_Chess_4.jpg,left,765.3450000000303,true,NA,NA,NA,NA,NA,NA,NA,NA,true
qOoxnOCx,3t5zxgo9eh1fn0t8t5nft3pt661qzj,36u2a8vag5cvurj2bg618u0ae6pykw,qOoxnOCx,2020-0188,2020-11-17,10:50:01,11:08:20,NA,incomplete,32,number,1,0,left,Blue_Triangle_Grid_1.jpg,Purple_Circle_Chess_1.jpg,Red_Plus_Grid_4.jpg,left,695.960000000021,true,NA,NA,NA,NA,NA,NA,NA,NA,true
qOoxnOCx,3t5zxgo9eh1fn0t8t5nft3pt661qzj,36u2a8vag5cvurj2bg618u0ae6pykw,qOoxnOCx,2020-0188,2020-11-17,10:50:01,11:08:20,NA,incomplete,33,number,1,1,right,Blue_Star_Grid_3.jpg,Red_Plus_Grid_4.jpg,Green_Circle_Dots_3.jpg,right,662.2700000000186,true,NA,NA,NA,NA,NA,NA,NA,NA,true
qOoxnOCx,3t5zxgo9eh1fn0t8t5nft3pt661qzj,36u2a8vag5cvurj2bg618u0ae6pykw,qOoxnOCx,2020-0188,2020-11-17,10:50:01,11:08:20,NA,incomplete,34,number,1,1,right,Purple_Plus_Grid_1.jpg,Green_Triangle_Grid_2.jpg,Red_Circle_Chess_1.jpg,right,666.609999999986,true,NA,NA,NA,NA,NA,NA,NA,NA,true
qOoxnOCx,3t5zxgo9eh1fn0t8t5nft3pt661qzj,36u2a8vag5cvurj2bg618u0ae6pykw,qOoxnOCx,2020-0188,2020-11-17,10:50:01,11:08:20,NA,incomplete,35,number,1,1,right,Green_Triangle_Dots_2.jpg,Purple_Star_Dots_1.jpg,Red_Circle_Chess_2.jpg,right,844.6250000001746,true,NA,NA,NA,NA,NA,NA,NA,NA,true
qOoxnOCx,3t5zxgo9eh1fn0t8t5nft3pt661qzj,36u2a8vag5cvurj2bg618u0ae6pykw,qOoxnOCx,2020-0188,2020-11-17,10:50:01,11:08:20,NA,incomplete,36,number,1,1,left,Blue_Circle_Dots_1.jpg,Purple_Plus_Grid_1.jpg,Green_Triangle_Dots_2.jpg,left,558.7900000000373,true,NA,NA,NA,NA,NA,NA,NA,NA,true
qOoxnOCx,3t5zxgo9eh1fn0t8t5nft3pt661qzj,36u2a8vag5cvurj2bg618u0ae6pykw,qOoxnOCx,2020-0188,2020-11-17,10:50:01,11:08:20,NA,incomplete,37,number,1,0,left,Red_Plus_Chess_4.jpg,Green_Circle_Stripes_4.jpg,Blue_Triangle_Chess_3.jpg,left,802.9949999999953,true,NA,NA,NA,NA,NA,NA,NA,NA,true
qOoxnOCx,3t5zxgo9eh1fn0t8t5nft3pt661qzj,36u2a8vag5cvurj2bg618u0ae6pykw,qOoxnOCx,2020-0188,2020-11-17,10:50:01,11:08:20,NA,incomplete,38,number,1,0,right,Purple_Triangle_Grid_3.jpg,Blue_Plus_Grid_4.jpg,Red_Star_Stripes_3.jpg,right,668.9500000000116,true,NA,NA,NA,NA,NA,NA,NA,NA,true
qOoxnOCx,3t5zxgo9eh1fn0t8t5nft3pt661qzj,36u2a8vag5cvurj2bg618u0ae6pykw,qOoxnOCx,2020-0188,2020-11-17,10:50:01,11:08:20,NA,incomplete,39,number,1,1,left,Purple_Star_Chess_2.jpg,Red_Triangle_Dots_2.jpg,Blue_Circle_Chess_3.jpg,left,642.1400000001304,true,NA,NA,NA,NA,NA,NA,NA,NA,true
qOoxnOCx,3t5zxgo9eh1fn0t8t5nft3pt661qzj,36u2a8vag5cvurj2bg618u0ae6pykw,qOoxnOCx,2020-0188,2020-11-17,10:50:01,11:08:20,NA,incomplete,0,filling,0,1,right,Purple_Star_Stripes_2.jpg,Green_Plus_Chess_2.jpg,Red_Triangle_Stripes_3.jpg,left,714.7099999999627,false,low,NA,NA,NA,NA,NA,NA,NA,false
qOoxnOCx,3t5zxgo9eh1fn0t8t5nft3pt661qzj,36u2a8vag5cvurj2bg618u0ae6pykw,qOoxnOCx,2020-0188,2020-11-17,10:50:01,11:08:20,NA,incomplete,1,filling,0,1,right,Purple_Triangle_Stripes_1.jpg,Red_Star_Chess_1.jpg,Green_Plus_Stripes_4.jpg,right,880.2550000000047,true,low,NA,NA,NA,NA,NA,NA,NA,false
qOoxnOCx,3t5zxgo9eh1fn0t8t5nft3pt661qzj,36u2a8vag5cvurj2bg618u0ae6pykw,qOoxnOCx,2020-0188,2020-11-17,10:50:01,11:08:20,NA,incomplete,2,filling,0,1,right,Purple_Plus_Chess_1.jpg,Blue_Circle_Dots_1.jpg,Green_Triangle_Chess_3.jpg,right,845.9050000001444,true,low,NA,NA,NA,NA,NA,NA,NA,false
qOoxnOCx,3t5zxgo9eh1fn0t8t5nft3pt661qzj,36u2a8vag5cvurj2bg618u0ae6pykw,qOoxnOCx,2020-0188,2020-11-17,10:50:01,11:08:20,NA,incomplete,3,filling,0,1,left,Green_Star_Grid_2.jpg,Purple_Circle_Grid_1.jpg,Red_Triangle_Chess_2.jpg,left,1022.0850000000792,true,low,NA,NA,NA,NA,NA,NA,NA,false
qOoxnOCx,3t5zxgo9eh1fn0t8t5nft3pt661qzj,36u2a8vag5cvurj2bg618u0ae6pykw,qOoxnOCx,2020-0188,2020-11-17,10:50:01,11:08:20,NA,incomplete,4,filling,0,1,right,Blue_Plus_Dots_3.jpg,Purple_Triangle_Grid_3.jpg,Green_Circle_Dots_4.jpg,right,870.4149999998626,true,low,NA,NA,NA,NA,NA,NA,NA,false
qOoxnOCx,3t5zxgo9eh1fn0t8t5nft3pt661qzj,36u2a8vag5cvurj2bg618u0ae6pykw,qOoxnOCx,2020-0188,2020-11-17,10:50:01,11:08:20,NA,incomplete,5,filling,0,1,right,Green_Circle_Stripes_1.jpg,Purple_Triangle_Dots_1.jpg,Blue_Plus_Stripes_3.jpg,right,782.8850000000675,true,low,NA,NA,NA,NA,NA,NA,NA,false
qOoxnOCx,3t5zxgo9eh1fn0t8t5nft3pt661qzj,36u2a8vag5cvurj2bg618u0ae6pykw,qOoxnOCx,2020-0188,2020-11-17,10:50:01,11:08:20,NA,incomplete,6,filling,0,1,right,Red_Circle_Chess_4.jpg,Purple_Plus_Dots_4.jpg,Green_Star_Chess_1.jpg,right,915.8600000000442,true,low,NA,NA,NA,NA,NA,NA,NA,false
qOoxnOCx,3t5zxgo9eh1fn0t8t5nft3pt661qzj,36u2a8vag5cvurj2bg618u0ae6pykw,qOoxnOCx,2020-0188,2020-11-17,10:50:01,11:08:20,NA,incomplete,7,filling,0,1,right,Green_Plus_Dots_1.jpg,Purple_Circle_Chess_1.jpg,Blue_Triangle_Dots_2.jpg,right,841.8349999999627,true,low,NA,NA,NA,NA,NA,NA,NA,false
qOoxnOCx,3t5zxgo9eh1fn0t8t5nft3pt661qzj,36u2a8vag5cvurj2bg618u0ae6pykw,qOoxnOCx,2020-0188,2020-11-17,10:50:01,11:08:20,NA,incomplete,8,filling,0,1,left,Green_Circle_Dots_2.jpg,Blue_Star_Dots_3.jpg,Red_Plus_Stripes_2.jpg,left,770.7550000000629,true,low,NA,NA,NA,NA,NA,NA,NA,false
qOoxnOCx,3t5zxgo9eh1fn0t8t5nft3pt661qzj,36u2a8vag5cvurj2bg618u0ae6pykw,qOoxnOCx,2020-0188,2020-11-17,10:50:01,11:08:20,NA,incomplete,9,filling,0,1,right,Red_Triangle_Grid_3.jpg,Blue_Circle_Stripes_3.jpg,Green_Star_Grid_1.jpg,right,986.2149999999092,true,low,NA,NA,NA,NA,NA,NA,NA,false
qOoxnOCx,3t5zxgo9eh1fn0t8t5nft3pt661qzj,36u2a8vag5cvurj2bg618u0ae6pykw,qOoxnOCx,2020-0188,2020-11-17,10:50:01,11:08:20,NA,incomplete,10,number,1,0,right,Red_Circle_Dots_3.jpg,Purple_Plus_Dots_4.jpg,Green_Star_Grid_3.jpg,left,748.4049999998533,false,low,NA,NA,NA,NA,NA,NA,NA,false
qOoxnOCx,3t5zxgo9eh1fn0t8t5nft3pt661qzj,36u2a8vag5cvurj2bg618u0ae6pykw,qOoxnOCx,2020-0188,2020-11-17,10:50:01,11:08:20,NA,incomplete,11,number,1,1,left,Purple_Triangle_Chess_2.jpg,Green_Star_Grid_2.jpg,Blue_Plus_Chess_4.jpg,right,775.1100000000442,false,low,NA,NA,NA,NA,NA,NA,NA,false
qOoxnOCx,3t5zxgo9eh1fn0t8t5nft3pt661qzj,36u2a8vag5cvurj2bg618u0ae6pykw,qOoxnOCx,2020-0188,2020-11-17,10:50:01,11:08:20,NA,incomplete,12,number,1,1,right,Purple_Star_Grid_3.jpg,Red_Circle_Grid_1.jpg,Green_Plus_Dots_3.jpg,left,740.8999999999651,false,low,NA,NA,NA,NA,NA,NA,NA,false
qOoxnOCx,3t5zxgo9eh1fn0t8t5nft3pt661qzj,36u2a8vag5cvurj2bg618u0ae6pykw,qOoxnOCx,2020-0188,2020-11-17,10:50:01,11:08:20,NA,incomplete,13,number,1,1,left,Blue_Circle_Chess_3.jpg,Purple_Star_Stripes_3.jpg,Green_Plus_Chess_4.jpg,left,1056.1549999999697,true,low,NA,NA,NA,NA,NA,NA,NA,false
qOoxnOCx,3t5zxgo9eh1fn0t8t5nft3pt661qzj,36u2a8vag5cvurj2bg618u0ae6pykw,qOoxnOCx,2020-0188,2020-11-17,10:50:01,11:08:20,NA,incomplete,14,number,1,1,left,Purple_Circle_Grid_3.jpg,Blue_Star_Chess_3.jpg,Green_Triangle_Grid_1.jpg,left,751.3199999998324,true,low,NA,NA,NA,NA,NA,NA,NA,false
qOoxnOCx,3t5zxgo9eh1fn0t8t5nft3pt661qzj,36u2a8vag5cvurj2bg618u0ae6pykw,qOoxnOCx,2020-0188,2020-11-17,10:50:01,11:08:20,NA,incomplete,15,number,1,1,right,Red_Star_Chess_2.jpg,Purple_Triangle_Chess_4.jpg,Green_Plus_Stripes_2.jpg,right,718.4700000000303,true,low,NA,NA,NA,NA,NA,NA,NA,false
qOoxnOCx,3t5zxgo9eh1fn0t8t5nft3pt661qzj,36u2a8vag5cvurj2bg618u0ae6pykw,qOoxnOCx,2020-0188,2020-11-17,10:50:01,11:08:20,NA,incomplete,16,number,1,1,right,Red_Triangle_Stripes_4.jpg,Purple_Circle_Stripes_2.jpg,Green_Plus_Dots_4.jpg,right,706.3250000001281,true,low,NA,NA,NA,NA,NA,NA,NA,false
qOoxnOCx,3t5zxgo9eh1fn0t8t5nft3pt661qzj,36u2a8vag5cvurj2bg618u0ae6pykw,qOoxnOCx,2020-0188,2020-11-17,10:50:01,11:08:20,NA,incomplete,17,number,1,1,left,Green_Circle_Stripes_2.jpg,Red_Star_Dots_2.jpg,Blue_Triangle_Stripes_3.jpg,left,637.8549999999232,true,low,NA,NA,NA,NA,NA,NA,NA,false
qOoxnOCx,3t5zxgo9eh1fn0t8t5nft3pt661qzj,36u2a8vag5cvurj2bg618u0ae6pykw,qOoxnOCx,2020-0188,2020-11-17,10:50:01,11:08:20,NA,incomplete,18,number,1,1,left,Blue_Triangle_Stripes_3.jpg,Red_Circle_Chess_3.jpg,Purple_Star_Stripes_1.jpg,left,586.6300000000629,true,low,NA,NA,NA,NA,NA,NA,NA,false
qOoxnOCx,3t5zxgo9eh1fn0t8t5nft3pt661qzj,36u2a8vag5cvurj2bg618u0ae6pykw,qOoxnOCx,2020-0188,2020-11-17,10:50:01,11:08:20,NA,incomplete,19,number,1,1,right,Green_Plus_Chess_3.jpg,Red_Triangle_Chess_2.jpg,Purple_Star_Grid_3.jpg,right,583.4549999999581,true,low,NA,NA,NA,NA,NA,NA,NA,false
qOoxnOCx,3t5zxgo9eh1fn0t8t5nft3pt661qzj,36u2a8vag5cvurj2bg618u0ae6pykw,qOoxnOCx,2020-0188,2020-11-17,10:50:01,11:08:20,NA,incomplete,20,filling,0,1,right,Purple_Triangle_Grid_3.jpg,Red_Plus_Chess_3.jpg,Blue_Circle_Grid_4.jpg,left,657.8549999999232,false,low,NA,NA,NA,NA,NA,NA,NA,false
qOoxnOCx,3t5zxgo9eh1fn0t8t5nft3pt661qzj,36u2a8vag5cvurj2bg618u0ae6pykw,qOoxnOCx,2020-0188,2020-11-17,10:50:01,11:08:20,NA,incomplete,21,filling,0,0,left,Purple_Star_Grid_1.jpg,Blue_Triangle_Grid_4.jpg,Green_Plus_Chess_1.jpg,right,705.6900000000023,false,low,NA,NA,NA,NA,NA,NA,NA,false
qOoxnOCx,3t5zxgo9eh1fn0t8t5nft3pt661qzj,36u2a8vag5cvurj2bg618u0ae6pykw,qOoxnOCx,2020-0188,2020-11-17,10:50:01,11:08:20,NA,incomplete,22,filling,0,1,left,Blue_Triangle_Chess_3.jpg,Red_Plus_Chess_1.jpg,Purple_Circle_Stripes_3.jpg,right,583.5899999999674,false,low,NA,NA,NA,NA,NA,NA,NA,false
qOoxnOCx,3t5zxgo9eh1fn0t8t5nft3pt661qzj,36u2a8vag5cvurj2bg618u0ae6pykw,qOoxnOCx,2020-0188,2020-11-17,10:50:01,11:08:20,NA,incomplete,23,filling,0,1,right,Purple_Plus_Chess_3.jpg,Green_Circle_Dots_3.jpg,Red_Star_Chess_1.jpg,left,591.8850000000675,false,low,NA,NA,NA,NA,NA,NA,NA,false
qOoxnOCx,3t5zxgo9eh1fn0t8t5nft3pt661qzj,36u2a8vag5cvurj2bg618u0ae6pykw,qOoxnOCx,2020-0188,2020-11-17,10:50:01,11:08:20,NA,incomplete,24,filling,0,1,left,Green_Star_Chess_3.jpg,Purple_Plus_Chess_2.jpg,Red_Circle_Stripes_3.jpg,left,703.3099999998813,true,low,NA,NA,NA,NA,NA,NA,NA,false
qOoxnOCx,3t5zxgo9eh1fn0t8t5nft3pt661qzj,36u2a8vag5cvurj2bg618u0ae6pykw,qOoxnOCx,2020-0188,2020-11-17,10:50:01,11:08:20,NA,incomplete,25,filling,0,1,right,Red_Circle_Dots_3.jpg,Green_Plus_Grid_3.jpg,Blue_Triangle_Dots_4.jpg,right,789.9649999999674,true,low,NA,NA,NA,NA,NA,NA,NA,false
qOoxnOCx,3t5zxgo9eh1fn0t8t5nft3pt661qzj,36u2a8vag5cvurj2bg618u0ae6pykw,qOoxnOCx,2020-0188,2020-11-17,10:50:01,11:08:20,NA,incomplete,26,filling,0,0,right,Purple_Triangle_Stripes_3.jpg,Blue_Circle_Dots_3.jpg,Green_Star_Stripes_2.jpg,right,819.2050000000163,true,low,NA,NA,NA,NA,NA,NA,NA,false
qOoxnOCx,3t5zxgo9eh1fn0t8t5nft3pt661qzj,36u2a8vag5cvurj2bg618u0ae6pykw,qOoxnOCx,2020-0188,2020-11-17,10:50:01,11:08:20,NA,incomplete,27,filling,0,1,left,Purple_Circle_Stripes_4.jpg,Red_Triangle_Stripes_1.jpg,Blue_Plus_Dots_4.jpg,left,806.7550000000629,true,low,NA,NA,NA,NA,NA,NA,NA,false
qOoxnOCx,3t5zxgo9eh1fn0t8t5nft3pt661qzj,36u2a8vag5cvurj2bg618u0ae6pykw,qOoxnOCx,2020-0188,2020-11-17,10:50:01,11:08:20,NA,incomplete,28,filling,0,1,left,Purple_Plus_Chess_3.jpg,Green_Star_Chess_2.jpg,Red_Circle_Dots_3.jpg,left,726.0249999999069,true,low,NA,NA,NA,NA,NA,NA,NA,false
qOoxnOCx,3t5zxgo9eh1fn0t8t5nft3pt661qzj,36u2a8vag5cvurj2bg618u0ae6pykw,qOoxnOCx,2020-0188,2020-11-17,10:50:01,11:08:20,NA,incomplete,29,filling,0,1,right,Red_Circle_Stripes_2.jpg,Green_Triangle_Chess_2.jpg,Blue_Star_Stripes_4.jpg,right,786.2200000002049,true,low,NA,NA,NA,NA,NA,NA,NA,false
qOoxnOCx,3t5zxgo9eh1fn0t8t5nft3pt661qzj,36u2a8vag5cvurj2bg618u0ae6pykw,qOoxnOCx,2020-0188,2020-11-17,10:50:01,11:08:20,NA,incomplete,30,number,1,1,left,Purple_Star_Chess_3.jpg,Green_Circle_Grid_3.jpg,Blue_Triangle_Chess_2.jpg,right,836.6650000000373,false,low,NA,NA,NA,NA,NA,NA,NA,false
qOoxnOCx,3t5zxgo9eh1fn0t8t5nft3pt661qzj,36u2a8vag5cvurj2bg618u0ae6pykw,qOoxnOCx,2020-0188,2020-11-17,10:50:01,11:08:20,NA,incomplete,31,number,1,1,left,Purple_Circle_Grid_4.jpg,Blue_Plus_Stripes_4.jpg,Red_Triangle_Grid_1.jpg,right,1116.6200000000536,false,low,NA,NA,NA,NA,NA,NA,NA,false
qOoxnOCx,3t5zxgo9eh1fn0t8t5nft3pt661qzj,36u2a8vag5cvurj2bg618u0ae6pykw,qOoxnOCx,2020-0188,2020-11-17,10:50:01,11:08:20,NA,incomplete,32,number,1,0,left,Green_Star_Chess_4.jpg,Purple_Plus_Dots_4.jpg,Red_Triangle_Chess_3.jpg,left,1292.1000000000931,true,low,NA,NA,NA,NA,NA,NA,NA,false
qOoxnOCx,3t5zxgo9eh1fn0t8t5nft3pt661qzj,36u2a8vag5cvurj2bg618u0ae6pykw,qOoxnOCx,2020-0188,2020-11-17,10:50:01,11:08:20,NA,incomplete,33,number,1,1,left,Blue_Star_Stripes_2.jpg,Purple_Plus_Dots_2.jpg,Green_Triangle_Stripes_3.jpg,right,884.2100000001956,false,low,NA,NA,NA,NA,NA,NA,NA,false
qOoxnOCx,3t5zxgo9eh1fn0t8t5nft3pt661qzj,36u2a8vag5cvurj2bg618u0ae6pykw,qOoxnOCx,2020-0188,2020-11-17,10:50:01,11:08:20,NA,incomplete,34,number,1,1,right,Purple_Circle_Stripes_2.jpg,Green_Star_Stripes_3.jpg,Blue_Triangle_Chess_2.jpg,right,756.5349999999744,true,low,NA,NA,NA,NA,NA,NA,NA,false
qOoxnOCx,3t5zxgo9eh1fn0t8t5nft3pt661qzj,36u2a8vag5cvurj2bg618u0ae6pykw,qOoxnOCx,2020-0188,2020-11-17,10:50:01,11:08:20,NA,incomplete,35,number,1,1,right,Blue_Plus_Stripes_4.jpg,Purple_Circle_Stripes_3.jpg,Green_Star_Chess_4.jpg,right,773.9999999998836,true,low,NA,NA,NA,NA,NA,NA,NA,false
qOoxnOCx,3t5zxgo9eh1fn0t8t5nft3pt661qzj,36u2a8vag5cvurj2bg618u0ae6pykw,qOoxnOCx,2020-0188,2020-11-17,10:50:01,11:08:20,NA,incomplete,36,number,1,1,left,Blue_Triangle_Stripes_4.jpg,Red_Plus_Chess_4.jpg,Green_Circle_Stripes_2.jpg,left,637.3800000001211,true,low,NA,NA,NA,NA,NA,NA,NA,false
qOoxnOCx,3t5zxgo9eh1fn0t8t5nft3pt661qzj,36u2a8vag5cvurj2bg618u0ae6pykw,qOoxnOCx,2020-0188,2020-11-17,10:50:01,11:08:20,NA,incomplete,37,number,1,0,left,Green_Circle_Chess_4.jpg,Red_Plus_Grid_4.jpg,Blue_Triangle_Chess_1.jpg,left,663.5499999998137,true,low,NA,NA,NA,NA,NA,NA,NA,false
qOoxnOCx,3t5zxgo9eh1fn0t8t5nft3pt661qzj,36u2a8vag5cvurj2bg618u0ae6pykw,qOoxnOCx,2020-0188,2020-11-17,10:50:01,11:08:20,NA,incomplete,38,number,1,0,left,Blue_Star_Stripes_3.jpg,Green_Circle_Dots_3.jpg,Red_Plus_Stripes_1.jpg,left,663.3299999998417,true,low,NA,NA,NA,NA,NA,NA,NA,false
qOoxnOCx,3t5zxgo9eh1fn0t8t5nft3pt661qzj,36u2a8vag5cvurj2bg618u0ae6pykw,qOoxnOCx,2020-0188,2020-11-17,10:50:01,11:08:20,NA,incomplete,39,number,1,1,left,Red_Plus_Chess_1.jpg,Blue_Star_Grid_1.jpg,Green_Circle_Chess_4.jpg,right,839.5950000003213,false,low,NA,NA,NA,NA,NA,NA,NA,false
qOoxnOCx,3t5zxgo9eh1fn0t8t5nft3pt661qzj,36u2a8vag5cvurj2bg618u0ae6pykw,qOoxnOCx,2020-0188,2020-11-17,10:50:01,11:08:20,NA,incomplete,40,filling,0,1,right,Blue_Plus_Dots_1.jpg,Purple_Star_Chess_1.jpg,Red_Circle_Dots_3.jpg,right,773.1800000001676,true,low,NA,NA,NA,NA,NA,NA,NA,false
qOoxnOCx,3t5zxgo9eh1fn0t8t5nft3pt661qzj,36u2a8vag5cvurj2bg618u0ae6pykw,qOoxnOCx,2020-0188,2020-11-17,10:50:01,11:08:20,NA,incomplete,41,filling,0,1,left,Red_Triangle_Grid_2.jpg,Purple_Circle_Grid_3.jpg,Green_Star_Chess_2.jpg,right,1069.1600000000326,false,low,NA,NA,NA,NA,NA,NA,NA,false
qOoxnOCx,3t5zxgo9eh1fn0t8t5nft3pt661qzj,36u2a8vag5cvurj2bg618u0ae6pykw,qOoxnOCx,2020-0188,2020-11-17,10:50:01,11:08:20,NA,incomplete,42,filling,0,1,left,Purple_Triangle_Stripes_4.jpg,Blue_Plus_Stripes_1.jpg,Green_Circle_Chess_4.jpg,left,983.179999999702,true,low,NA,NA,NA,NA,NA,NA,NA,false
qOoxnOCx,3t5zxgo9eh1fn0t8t5nft3pt661qzj,36u2a8vag5cvurj2bg618u0ae6pykw,qOoxnOCx,2020-0188,2020-11-17,10:50:01,11:08:20,NA,incomplete,43,filling,0,1,right,Purple_Plus_Stripes_3.jpg,Blue_Triangle_Dots_3.jpg,Red_Circle_Stripes_4.jpg,right,898.3949999997858,true,low,NA,NA,NA,NA,NA,NA,NA,false
qOoxnOCx,3t5zxgo9eh1fn0t8t5nft3pt661qzj,36u2a8vag5cvurj2bg618u0ae6pykw,qOoxnOCx,2020-0188,2020-11-17,10:50:01,11:08:20,NA,incomplete,44,filling,0,1,right,Purple_Triangle_Stripes_4.jpg,Green_Star_Grid_4.jpg,Blue_Circle_Stripes_2.jpg,right,988.690000000177,true,low,NA,NA,NA,NA,NA,NA,NA,false
qOoxnOCx,3t5zxgo9eh1fn0t8t5nft3pt661qzj,36u2a8vag5cvurj2bg618u0ae6pykw,qOoxnOCx,2020-0188,2020-11-17,10:50:01,11:08:20,NA,incomplete,45,filling,0,1,right,Blue_Star_Dots_2.jpg,Red_Triangle_Stripes_2.jpg,Green_Plus_Dots_4.jpg,right,926.6400000001304,true,low,NA,NA,NA,NA,NA,NA,NA,false
qOoxnOCx,3t5zxgo9eh1fn0t8t5nft3pt661qzj,36u2a8vag5cvurj2bg618u0ae6pykw,qOoxnOCx,2020-0188,2020-11-17,10:50:01,11:08:20,NA,incomplete,46,filling,0,1,left,Blue_Plus_Dots_4.jpg,Green_Triangle_Dots_2.jpg,Red_Circle_Stripes_4.jpg,left,898.4399999999441,true,low,NA,NA,NA,NA,NA,NA,NA,false
qOoxnOCx,3t5zxgo9eh1fn0t8t5nft3pt661qzj,36u2a8vag5cvurj2bg618u0ae6pykw,qOoxnOCx,2020-0188,2020-11-17,10:50:01,11:08:20,NA,incomplete,47,filling,0,1,right,Blue_Circle_Dots_2.jpg,Red_Triangle_Chess_2.jpg,Green_Star_Dots_3.jpg,right,792.800000000163,true,low,NA,NA,NA,NA,NA,NA,NA,false
qOoxnOCx,3t5zxgo9eh1fn0t8t5nft3pt661qzj,36u2a8vag5cvurj2bg618u0ae6pykw,qOoxnOCx,2020-0188,2020-11-17,10:50:01,11:08:20,NA,incomplete,48,filling,0,1,right,Red_Star_Chess_1.jpg,Blue_Triangle_Grid_1.jpg,Green_Plus_Chess_4.jpg,right,804.2099999998463,true,low,NA,NA,NA,NA,NA,NA,NA,false
qOoxnOCx,3t5zxgo9eh1fn0t8t5nft3pt661qzj,36u2a8vag5cvurj2bg618u0ae6pykw,qOoxnOCx,2020-0188,2020-11-17,10:50:01,11:08:20,NA,incomplete,49,filling,0,0,left,Blue_Star_Dots_1.jpg,Purple_Circle_Dots_3.jpg,Red_Plus_Stripes_1.jpg,left,853.6300000001211,true,low,NA,NA,NA,NA,NA,NA,NA,false
qOoxnOCx,3t5zxgo9eh1fn0t8t5nft3pt661qzj,36u2a8vag5cvurj2bg618u0ae6pykw,qOoxnOCx,2020-0188,2020-11-17,10:50:01,11:08:20,NA,incomplete,50,number,1,0,right,Purple_Star_Grid_4.jpg,Red_Plus_Grid_1.jpg,Green_Triangle_Chess_4.jpg,left,944.910000000149,false,low,NA,NA,NA,NA,NA,NA,NA,false
qOoxnOCx,3t5zxgo9eh1fn0t8t5nft3pt661qzj,36u2a8vag5cvurj2bg618u0ae6pykw,qOoxnOCx,2020-0188,2020-11-17,10:50:01,11:08:20,NA,incomplete,51,number,1,1,left,Red_Plus_Stripes_4.jpg,Blue_Circle_Chess_4.jpg,Green_Triangle_Stripes_3.jpg,right,889.6600000002654,false,low,NA,NA,NA,NA,NA,NA,NA,false
qOoxnOCx,3t5zxgo9eh1fn0t8t5nft3pt661qzj,36u2a8vag5cvurj2bg618u0ae6pykw,qOoxnOCx,2020-0188,2020-11-17,10:50:01,11:08:20,NA,incomplete,52,number,1,1,left,Green_Circle_Grid_3.jpg,Purple_Plus_Stripes_3.jpg,Red_Triangle_Grid_2.jpg,right,797.2050000003073,false,low,NA,NA,NA,NA,NA,NA,NA,false
qOoxnOCx,3t5zxgo9eh1fn0t8t5nft3pt661qzj,36u2a8vag5cvurj2bg618u0ae6pykw,qOoxnOCx,2020-0188,2020-11-17,10:50:01,11:08:20,NA,incomplete,53,number,1,0,right,Red_Triangle_Stripes_3.jpg,Blue_Circle_Stripes_4.jpg,Purple_Plus_Dots_3.jpg,right,688.0249999999069,true,low,NA,NA,NA,NA,NA,NA,NA,false
qOoxnOCx,3t5zxgo9eh1fn0t8t5nft3pt661qzj,36u2a8vag5cvurj2bg618u0ae6pykw,qOoxnOCx,2020-0188,2020-11-17,10:50:01,11:08:20,NA,incomplete,54,number,1,1,left,Purple_Star_Grid_2.jpg,Blue_Plus_Stripes_2.jpg,Red_Triangle_Grid_1.jpg,left,681.7800000003772,true,low,NA,NA,NA,NA,NA,NA,NA,false
qOoxnOCx,3t5zxgo9eh1fn0t8t5nft3pt661qzj,36u2a8vag5cvurj2bg618u0ae6pykw,qOoxnOCx,2020-0188,2020-11-17,10:50:01,11:08:20,NA,incomplete,55,number,1,1,right,Purple_Circle_Dots_2.jpg,Red_Triangle_Dots_4.jpg,Green_Star_Stripes_2.jpg,right,691.274999999674,true,low,NA,NA,NA,NA,NA,NA,NA,false
qOoxnOCx,3t5zxgo9eh1fn0t8t5nft3pt661qzj,36u2a8vag5cvurj2bg618u0ae6pykw,qOoxnOCx,2020-0188,2020-11-17,10:50:01,11:08:20,NA,incomplete,56,number,1,1,left,Red_Star_Stripes_2.jpg,Green_Circle_Dots_2.jpg,Purple_Plus_Stripes_4.jpg,left,637.4699999996228,true,low,NA,NA,NA,NA,NA,NA,NA,false
qOoxnOCx,3t5zxgo9eh1fn0t8t5nft3pt661qzj,36u2a8vag5cvurj2bg618u0ae6pykw,qOoxnOCx,2020-0188,2020-11-17,10:50:01,11:08:20,NA,incomplete,57,number,1,1,right,Purple_Star_Chess_2.jpg,Blue_Circle_Chess_4.jpg,Red_Plus_Stripes_2.jpg,right,624.2449999999953,true,low,NA,NA,NA,NA,NA,NA,NA,false
qOoxnOCx,3t5zxgo9eh1fn0t8t5nft3pt661qzj,36u2a8vag5cvurj2bg618u0ae6pykw,qOoxnOCx,2020-0188,2020-11-17,10:50:01,11:08:20,NA,incomplete,58,number,1,1,right,Purple_Triangle_Chess_1.jpg,Blue_Circle_Chess_2.jpg,Red_Star_Grid_1.jpg,right,611.9350000002887,true,low,NA,NA,NA,NA,NA,NA,NA,false
qOoxnOCx,3t5zxgo9eh1fn0t8t5nft3pt661qzj,36u2a8vag5cvurj2bg618u0ae6pykw,qOoxnOCx,2020-0188,2020-11-17,10:50:01,11:08:20,NA,incomplete,59,number,1,1,left,Red_Circle_Stripes_4.jpg,Purple_Plus_Grid_4.jpg,Green_Star_Stripes_3.jpg,left,607.4349999999395,true,low,NA,NA,NA,NA,NA,NA,NA,false
qOoxnOCx,3t5zxgo9eh1fn0t8t5nft3pt661qzj,36u2a8vag5cvurj2bg618u0ae6pykw,qOoxnOCx,2020-0188,2020-11-17,10:50:01,11:08:20,NA,incomplete,60,filling,0,0,right,Red_Star_Chess_2.jpg,Green_Circle_Stripes_2.jpg,Blue_Triangle_Chess_1.jpg,left,631.3450000003213,false,low,NA,NA,NA,NA,NA,NA,NA,false
qOoxnOCx,3t5zxgo9eh1fn0t8t5nft3pt661qzj,36u2a8vag5cvurj2bg618u0ae6pykw,qOoxnOCx,2020-0188,2020-11-17,10:50:01,11:08:20,NA,incomplete,61,filling,0,1,left,Purple_Triangle_Stripes_3.jpg,Red_Star_Stripes_2.jpg,Blue_Circle_Grid_3.jpg,right,570.5649999999441,false,low,NA,NA,NA,NA,NA,NA,NA,false
qOoxnOCx,3t5zxgo9eh1fn0t8t5nft3pt661qzj,36u2a8vag5cvurj2bg618u0ae6pykw,qOoxnOCx,2020-0188,2020-11-17,10:50:01,11:08:20,NA,incomplete,62,filling,0,1,right,Purple_Triangle_Stripes_1.jpg,Red_Star_Dots_1.jpg,Green_Circle_Stripes_2.jpg,left,532.4949999999953,false,low,NA,NA,NA,NA,NA,NA,NA,false
qOoxnOCx,3t5zxgo9eh1fn0t8t5nft3pt661qzj,36u2a8vag5cvurj2bg618u0ae6pykw,qOoxnOCx,2020-0188,2020-11-17,10:50:01,11:08:20,NA,incomplete,63,filling,0,0,right,Green_Star_Grid_3.jpg,Purple_Circle_Chess_3.jpg,Red_Plus_Grid_1.jpg,right,1003.2850000002654,true,low,NA,NA,NA,NA,NA,NA,NA,false
qOoxnOCx,3t5zxgo9eh1fn0t8t5nft3pt661qzj,36u2a8vag5cvurj2bg618u0ae6pykw,qOoxnOCx,2020-0188,2020-11-17,10:50:01,11:08:20,NA,incomplete,64,filling,0,0,left,Red_Circle_Chess_1.jpg,Green_Plus_Chess_2.jpg,Purple_Star_Grid_1.jpg,left,885.1550000003772,true,low,NA,NA,NA,NA,NA,NA,NA,false
qOoxnOCx,3t5zxgo9eh1fn0t8t5nft3pt661qzj,36u2a8vag5cvurj2bg618u0ae6pykw,qOoxnOCx,2020-0188,2020-11-17,10:50:01,11:08:20,NA,incomplete,65,filling,0,1,left,Green_Star_Grid_3.jpg,Purple_Triangle_Grid_4.jpg,Red_Circle_Stripes_3.jpg,right,723.484999999986,false,low,NA,NA,NA,NA,NA,NA,NA,false
qOoxnOCx,3t5zxgo9eh1fn0t8t5nft3pt661qzj,36u2a8vag5cvurj2bg618u0ae6pykw,qOoxnOCx,2020-0188,2020-11-17,10:50:01,11:08:20,NA,incomplete,66,filling,0,1,left,Red_Plus_Chess_3.jpg,Purple_Circle_Chess_1.jpg,Blue_Triangle_Grid_3.jpg,left,854.8899999996647,true,low,NA,NA,NA,NA,NA,NA,NA,false
qOoxnOCx,3t5zxgo9eh1fn0t8t5nft3pt661qzj,36u2a8vag5cvurj2bg618u0ae6pykw,qOoxnOCx,2020-0188,2020-11-17,10:50:01,11:08:20,NA,incomplete,67,filling,0,1,right,Green_Triangle_Stripes_1.jpg,Red_Star_Dots_1.jpg,Blue_Circle_Stripes_2.jpg,right,814.8799999998882,true,low,NA,NA,NA,NA,NA,NA,NA,false
qOoxnOCx,3t5zxgo9eh1fn0t8t5nft3pt661qzj,36u2a8vag5cvurj2bg618u0ae6pykw,qOoxnOCx,2020-0188,2020-11-17,10:50:01,11:08:20,NA,incomplete,68,filling,0,0,right,Red_Plus_Dots_4.jpg,Purple_Triangle_Chess_4.jpg,Green_Star_Dots_3.jpg,right,1048.950000000419,true,low,NA,NA,NA,NA,NA,NA,NA,false
qOoxnOCx,3t5zxgo9eh1fn0t8t5nft3pt661qzj,36u2a8vag5cvurj2bg618u0ae6pykw,qOoxnOCx,2020-0188,2020-11-17,10:50:01,11:08:20,NA,incomplete,69,filling,0,0,left,Purple_Plus_Grid_4.jpg,Blue_Star_Grid_3.jpg,Red_Triangle_Chess_4.jpg,left,885.214999999851,true,low,NA,NA,NA,NA,NA,NA,NA,false
qOoxnOCx,3t5zxgo9eh1fn0t8t5nft3pt661qzj,36u2a8vag5cvurj2bg618u0ae6pykw,qOoxnOCx,2020-0188,2020-11-17,10:50:01,11:08:20,NA,incomplete,70,number,1,1,left,Blue_Triangle_Grid_1.jpg,Purple_Circle_Stripes_1.jpg,Red_Star_Grid_3.jpg,left,778.2600000001257,true,low,NA,NA,NA,NA,NA,NA,NA,false
qOoxnOCx,3t5zxgo9eh1fn0t8t5nft3pt661qzj,36u2a8vag5cvurj2bg618u0ae6pykw,qOoxnOCx,2020-0188,2020-11-17,10:50:01,11:08:20,NA,incomplete,71,number,1,1,right,Blue_Circle_Chess_4.jpg,Green_Triangle_Chess_3.jpg,Purple_Plus_Stripes_4.jpg,right,685.0850000000792,true,low,NA,NA,NA,NA,NA,NA,NA,false
qOoxnOCx,3t5zxgo9eh1fn0t8t5nft3pt661qzj,36u2a8vag5cvurj2bg618u0ae6pykw,qOoxnOCx,2020-0188,2020-11-17,10:50:01,11:08:20,NA,incomplete,72,number,1,1,right,Green_Plus_Stripes_2.jpg,Red_Star_Stripes_4.jpg,Purple_Circle_Chess_2.jpg,right,746.9850000002189,true,low,NA,NA,NA,NA,NA,NA,NA,false
qOoxnOCx,3t5zxgo9eh1fn0t8t5nft3pt661qzj,36u2a8vag5cvurj2bg618u0ae6pykw,qOoxnOCx,2020-0188,2020-11-17,10:50:01,11:08:20,NA,incomplete,73,number,1,1,right,Blue_Triangle_Chess_3.jpg,Purple_Plus_Chess_1.jpg,Green_Star_Grid_3.jpg,right,654.9049999997951,true,low,NA,NA,NA,NA,NA,NA,NA,false
qOoxnOCx,3t5zxgo9eh1fn0t8t5nft3pt661qzj,36u2a8vag5cvurj2bg618u0ae6pykw,qOoxnOCx,2020-0188,2020-11-17,10:50:01,11:08:20,NA,incomplete,74,number,1,0,left,Blue_Star_Grid_2.jpg,Red_Triangle_Stripes_2.jpg,Purple_Plus_Grid_4.jpg,left,586.1899999999441,true,low,NA,NA,NA,NA,NA,NA,NA,false
qOoxnOCx,3t5zxgo9eh1fn0t8t5nft3pt661qzj,36u2a8vag5cvurj2bg618u0ae6pykw,qOoxnOCx,2020-0188,2020-11-17,10:50:01,11:08:20,NA,incomplete,75,number,1,1,right,Red_Triangle_Grid_2.jpg,Blue_Plus_Grid_3.jpg,Green_Circle_Dots_2.jpg,right,651.0250000001397,true,low,NA,NA,NA,NA,NA,NA,NA,false
qOoxnOCx,3t5zxgo9eh1fn0t8t5nft3pt661qzj,36u2a8vag5cvurj2bg618u0ae6pykw,qOoxnOCx,2020-0188,2020-11-17,10:50:01,11:08:20,NA,incomplete,76,number,1,1,left,Green_Circle_Grid_1.jpg,Purple_Triangle_Stripes_1.jpg,Blue_Plus_Grid_2.jpg,left,540.850000000326,true,low,NA,NA,NA,NA,NA,NA,NA,false
qOoxnOCx,3t5zxgo9eh1fn0t8t5nft3pt661qzj,36u2a8vag5cvurj2bg618u0ae6pykw,qOoxnOCx,2020-0188,2020-11-17,10:50:01,11:08:20,NA,incomplete,77,number,1,1,right,Purple_Triangle_Grid_2.jpg,Blue_Star_Grid_4.jpg,Green_Circle_Chess_2.jpg,right,659.0400000000373,true,low,NA,NA,NA,NA,NA,NA,NA,false
qOoxnOCx,3t5zxgo9eh1fn0t8t5nft3pt661qzj,36u2a8vag5cvurj2bg618u0ae6pykw,qOoxnOCx,2020-0188,2020-11-17,10:50:01,11:08:20,NA,incomplete,78,number,1,1,right,Red_Star_Stripes_2.jpg,Green_Triangle_Stripes_1.jpg,Purple_Circle_Chess_2.jpg,right,605.160000000149,true,low,NA,NA,NA,NA,NA,NA,NA,false
qOoxnOCx,3t5zxgo9eh1fn0t8t5nft3pt661qzj,36u2a8vag5cvurj2bg618u0ae6pykw,qOoxnOCx,2020-0188,2020-11-17,10:50:01,11:08:20,NA,incomplete,79,number,1,1,right,Purple_Star_Grid_4.jpg,Green_Triangle_Grid_1.jpg,Blue_Plus_Dots_4.jpg,left,574.4000000000233,false,low,NA,NA,NA,NA,NA,NA,NA,false
qOoxnOCx,3t5zxgo9eh1fn0t8t5nft3pt661qzj,36u2a8vag5cvurj2bg618u0ae6pykw,qOoxnOCx,2020-0188,2020-11-17,10:50:01,11:08:20,NA,incomplete,80,filling,0,1,left,Red_Triangle_Stripes_1.jpg,Purple_Star_Stripes_2.jpg,Blue_Plus_Chess_1.jpg,right,674.3050000000512,false,low,NA,NA,NA,NA,NA,NA,NA,false
qOoxnOCx,3t5zxgo9eh1fn0t8t5nft3pt661qzj,36u2a8vag5cvurj2bg618u0ae6pykw,qOoxnOCx,2020-0188,2020-11-17,10:50:01,11:08:20,NA,incomplete,81,filling,0,1,left,Purple_Plus_Grid_2.jpg,Red_Star_Grid_1.jpg,Blue_Circle_Dots_2.jpg,right,629.7149999999674,false,low,NA,NA,NA,NA,NA,NA,NA,false
qOoxnOCx,3t5zxgo9eh1fn0t8t5nft3pt661qzj,36u2a8vag5cvurj2bg618u0ae6pykw,qOoxnOCx,2020-0188,2020-11-17,10:50:01,11:08:20,NA,incomplete,82,filling,0,1,right,Blue_Circle_Stripes_3.jpg,Red_Star_Dots_3.jpg,Green_Triangle_Stripes_4.jpg,right,1067.3800000000047,true,low,NA,NA,NA,NA,NA,NA,NA,false
qOoxnOCx,3t5zxgo9eh1fn0t8t5nft3pt661qzj,36u2a8vag5cvurj2bg618u0ae6pykw,qOoxnOCx,2020-0188,2020-11-17,10:50:01,11:08:20,NA,incomplete,83,filling,0,0,right,Purple_Circle_Dots_4.jpg,Green_Plus_Chess_4.jpg,Blue_Star_Dots_1.jpg,right,1051.5749999999534,true,low,NA,NA,NA,NA,NA,NA,NA,false
qOoxnOCx,3t5zxgo9eh1fn0t8t5nft3pt661qzj,36u2a8vag5cvurj2bg618u0ae6pykw,qOoxnOCx,2020-0188,2020-11-17,10:50:01,11:08:20,NA,incomplete,84,filling,0,1,left,Red_Plus_Grid_4.jpg,Purple_Circle_Grid_2.jpg,Green_Triangle_Stripes_4.jpg,left,962.8050000000512,true,low,NA,NA,NA,NA,NA,NA,NA,false
qOoxnOCx,3t5zxgo9eh1fn0t8t5nft3pt661qzj,36u2a8vag5cvurj2bg618u0ae6pykw,qOoxnOCx,2020-0188,2020-11-17,10:50:01,11:08:20,NA,incomplete,85,filling,0,1,left,Red_Plus_Grid_4.jpg,Purple_Circle_Grid_1.jpg,Blue_Triangle_Chess_4.jpg,left,972.714999999851,true,low,NA,NA,NA,NA,NA,NA,NA,false
qOoxnOCx,3t5zxgo9eh1fn0t8t5nft3pt661qzj,36u2a8vag5cvurj2bg618u0ae6pykw,qOoxnOCx,2020-0188,2020-11-17,10:50:01,11:08:20,NA,incomplete,86,filling,0,1,left,Blue_Plus_Grid_4.jpg,Green_Circle_Grid_3.jpg,Purple_Star_Chess_4.jpg,left,839.925000000163,true,low,NA,NA,NA,NA,NA,NA,NA,false
qOoxnOCx,3t5zxgo9eh1fn0t8t5nft3pt661qzj,36u2a8vag5cvurj2bg618u0ae6pykw,qOoxnOCx,2020-0188,2020-11-17,10:50:01,11:08:20,NA,incomplete,87,filling,0,1,left,Red_Circle_Grid_2.jpg,Purple_Plus_Grid_1.jpg,Blue_Star_Chess_2.jpg,left,733.0849999998463,true,low,NA,NA,NA,NA,NA,NA,NA,false
qOoxnOCx,3t5zxgo9eh1fn0t8t5nft3pt661qzj,36u2a8vag5cvurj2bg618u0ae6pykw,qOoxnOCx,2020-0188,2020-11-17,10:50:01,11:08:20,NA,incomplete,88,filling,0,1,left,Red_Triangle_Chess_4.jpg,Purple_Plus_Chess_2.jpg,Blue_Star_Grid_4.jpg,left,799.3550000000978,true,low,NA,NA,NA,NA,NA,NA,NA,false
qOoxnOCx,3t5zxgo9eh1fn0t8t5nft3pt661qzj,36u2a8vag5cvurj2bg618u0ae6pykw,qOoxnOCx,2020-0188,2020-11-17,10:50:01,11:08:20,NA,incomplete,89,filling,0,1,right,Blue_Circle_Dots_1.jpg,Purple_Star_Stripes_1.jpg,Green_Plus_Dots_3.jpg,right,746.4000000000233,true,low,NA,NA,NA,NA,NA,NA,NA,false
qOoxnOCx,3t5zxgo9eh1fn0t8t5nft3pt661qzj,36u2a8vag5cvurj2bg618u0ae6pykw,qOoxnOCx,2020-0188,2020-11-17,10:50:01,11:08:20,NA,incomplete,90,number,1,0,right,Green_Plus_Stripes_3.jpg,Red_Star_Stripes_1.jpg,Purple_Circle_Chess_3.jpg,left,959.0499999999302,false,low,NA,NA,NA,NA,NA,NA,NA,false
qOoxnOCx,3t5zxgo9eh1fn0t8t5nft3pt661qzj,36u2a8vag5cvurj2bg618u0ae6pykw,qOoxnOCx,2020-0188,2020-11-17,10:50:01,11:08:20,NA,incomplete,91,number,1,0,left,Blue_Plus_Grid_2.jpg,Red_Triangle_Chess_2.jpg,Purple_Star_Grid_1.jpg,right,846.8450000000885,false,low,NA,NA,NA,NA,NA,NA,NA,false
qOoxnOCx,3t5zxgo9eh1fn0t8t5nft3pt661qzj,36u2a8vag5cvurj2bg618u0ae6pykw,qOoxnOCx,2020-0188,2020-11-17,10:50:01,11:08:20,NA,incomplete,92,number,1,1,left,Red_Triangle_Dots_2.jpg,Purple_Circle_Grid_2.jpg,Green_Plus_Dots_4.jpg,right,745.0849999999627,false,low,NA,NA,NA,NA,NA,NA,NA,false
qOoxnOCx,3t5zxgo9eh1fn0t8t5nft3pt661qzj,36u2a8vag5cvurj2bg618u0ae6pykw,qOoxnOCx,2020-0188,2020-11-17,10:50:01,11:08:20,NA,incomplete,93,number,1,1,right,Red_Star_Dots_4.jpg,Purple_Plus_Dots_2.jpg,Blue_Triangle_Chess_4.jpg,left,961.0649999999441,false,low,NA,NA,NA,NA,NA,NA,NA,false
qOoxnOCx,3t5zxgo9eh1fn0t8t5nft3pt661qzj,36u2a8vag5cvurj2bg618u0ae6pykw,qOoxnOCx,2020-0188,2020-11-17,10:50:01,11:08:20,NA,incomplete,94,number,1,0,right,Blue_Circle_Grid_3.jpg,Green_Triangle_Grid_2.jpg,Red_Star_Chess_3.jpg,right,789.2050000000745,true,low,NA,NA,NA,NA,NA,NA,NA,false
qOoxnOCx,3t5zxgo9eh1fn0t8t5nft3pt661qzj,36u2a8vag5cvurj2bg618u0ae6pykw,qOoxnOCx,2020-0188,2020-11-17,10:50:01,11:08:20,NA,incomplete,95,number,1,1,right,Blue_Circle_Chess_4.jpg,Purple_Plus_Chess_2.jpg,Red_Star_Stripes_4.jpg,right,746.729999999865,true,low,NA,NA,NA,NA,NA,NA,NA,false
qOoxnOCx,3t5zxgo9eh1fn0t8t5nft3pt661qzj,36u2a8vag5cvurj2bg618u0ae6pykw,qOoxnOCx,2020-0188,2020-11-17,10:50:01,11:08:20,NA,incomplete,96,number,1,1,right,Blue_Circle_Chess_4.jpg,Purple_Plus_Chess_1.jpg,Green_Star_Stripes_4.jpg,right,643.0399999999208,true,low,NA,NA,NA,NA,NA,NA,NA,false
qOoxnOCx,3t5zxgo9eh1fn0t8t5nft3pt661qzj,36u2a8vag5cvurj2bg618u0ae6pykw,qOoxnOCx,2020-0188,2020-11-17,10:50:01,11:08:20,NA,incomplete,97,number,1,0,left,Blue_Star_Chess_3.jpg,Purple_Plus_Dots_3.jpg,Green_Circle_Chess_4.jpg,left,569.6800000000512,true,low,NA,NA,NA,NA,NA,NA,NA,false
qOoxnOCx,3t5zxgo9eh1fn0t8t5nft3pt661qzj,36u2a8vag5cvurj2bg618u0ae6pykw,qOoxnOCx,2020-0188,2020-11-17,10:50:01,11:08:20,NA,incomplete,98,number,1,1,left,Green_Triangle_Stripes_4.jpg,Red_Circle_Grid_4.jpg,Purple_Plus_Stripes_1.jpg,left,537.640000000014,true,low,NA,NA,NA,NA,NA,NA,NA,false
qOoxnOCx,3t5zxgo9eh1fn0t8t5nft3pt661qzj,36u2a8vag5cvurj2bg618u0ae6pykw,qOoxnOCx,2020-0188,2020-11-17,10:50:01,11:08:20,NA,incomplete,99,number,1,1,left,Red_Star_Stripes_2.jpg,Blue_Circle_Dots_2.jpg,Green_Plus_Stripes_3.jpg,left,587.8400000000838,true,low,NA,NA,NA,NA,NA,NA,NA,false
qOoxnOCx,3t5zxgo9eh1fn0t8t5nft3pt661qzj,36u2a8vag5cvurj2bg618u0ae6pykw,qOoxnOCx,2020-0188,2020-11-17,10:50:01,11:08:20,NA,incomplete,100,filling,0,1,right,Red_Circle_Stripes_2.jpg,Green_Triangle_Chess_2.jpg,Purple_Plus_Stripes_4.jpg,left,617.9850000003353,false,low,NA,NA,NA,NA,NA,NA,NA,false
qOoxnOCx,3t5zxgo9eh1fn0t8t5nft3pt661qzj,36u2a8vag5cvurj2bg618u0ae6pykw,qOoxnOCx,2020-0188,2020-11-17,10:50:01,11:08:20,NA,incomplete,101,filling,0,1,right,Purple_Triangle_Grid_2.jpg,Green_Star_Stripes_2.jpg,Red_Plus_Grid_3.jpg,left,597.6399999998976,false,low,NA,NA,NA,NA,NA,NA,NA,false
qOoxnOCx,3t5zxgo9eh1fn0t8t5nft3pt661qzj,36u2a8vag5cvurj2bg618u0ae6pykw,qOoxnOCx,2020-0188,2020-11-17,10:50:01,11:08:20,NA,incomplete,102,filling,0,1,left,Purple_Circle_Stripes_3.jpg,Blue_Plus_Stripes_2.jpg,Green_Star_Chess_3.jpg,left,899.8200000000652,true,low,NA,NA,NA,NA,NA,NA,NA,false
qOoxnOCx,3t5zxgo9eh1fn0t8t5nft3pt661qzj,36u2a8vag5cvurj2bg618u0ae6pykw,qOoxnOCx,2020-0188,2020-11-17,10:50:01,11:08:20,NA,incomplete,103,filling,0,1,right,Green_Triangle_Stripes_1.jpg,Red_Plus_Dots_1.jpg,Purple_Circle_Stripes_3.jpg,right,852.9150000000373,true,low,NA,NA,NA,NA,NA,NA,NA,false
qOoxnOCx,3t5zxgo9eh1fn0t8t5nft3pt661qzj,36u2a8vag5cvurj2bg618u0ae6pykw,qOoxnOCx,2020-0188,2020-11-17,10:50:01,11:08:20,NA,incomplete,104,filling,0,1,right,Purple_Circle_Grid_2.jpg,Green_Star_Dots_2.jpg,Red_Triangle_Grid_4.jpg,right,859.0050000002375,true,low,NA,NA,NA,NA,NA,NA,NA,false
qOoxnOCx,3t5zxgo9eh1fn0t8t5nft3pt661qzj,36u2a8vag5cvurj2bg618u0ae6pykw,qOoxnOCx,2020-0188,2020-11-17,10:50:01,11:08:20,NA,incomplete,105,filling,0,1,right,Green_Circle_Chess_1.jpg,Purple_Star_Grid_1.jpg,Blue_Triangle_Chess_4.jpg,right,796.0749999997206,true,low,NA,NA,NA,NA,NA,NA,NA,false
qOoxnOCx,3t5zxgo9eh1fn0t8t5nft3pt661qzj,36u2a8vag5cvurj2bg618u0ae6pykw,qOoxnOCx,2020-0188,2020-11-17,10:50:01,11:08:20,NA,incomplete,106,filling,0,1,left,Purple_Plus_Grid_3.jpg,Blue_Triangle_Grid_1.jpg,Red_Circle_Stripes_3.jpg,left,890.984999999986,true,low,NA,NA,NA,NA,NA,NA,NA,false
qOoxnOCx,3t5zxgo9eh1fn0t8t5nft3pt661qzj,36u2a8vag5cvurj2bg618u0ae6pykw,qOoxnOCx,2020-0188,2020-11-17,10:50:01,11:08:20,NA,incomplete,107,filling,0,0,right,Blue_Plus_Stripes_4.jpg,Green_Star_Dots_4.jpg,Red_Triangle_Stripes_2.jpg,right,725.6350000001257,true,low,NA,NA,NA,NA,NA,NA,NA,false
qOoxnOCx,3t5zxgo9eh1fn0t8t5nft3pt661qzj,36u2a8vag5cvurj2bg618u0ae6pykw,qOoxnOCx,2020-0188,2020-11-17,10:50:01,11:08:20,NA,incomplete,108,filling,0,1,right,Red_Circle_Stripes_4.jpg,Purple_Triangle_Dots_4.jpg,Blue_Plus_Stripes_1.jpg,right,730.7150000002002,true,low,NA,NA,NA,NA,NA,NA,NA,false
qOoxnOCx,3t5zxgo9eh1fn0t8t5nft3pt661qzj,36u2a8vag5cvurj2bg618u0ae6pykw,qOoxnOCx,2020-0188,2020-11-17,10:50:01,11:08:20,NA,incomplete,109,filling,0,1,right,Green_Triangle_Grid_3.jpg,Red_Plus_Chess_3.jpg,Blue_Circle_Grid_2.jpg,right,811.8899999998976,true,low,NA,NA,NA,NA,NA,NA,NA,false
qOoxnOCx,3t5zxgo9eh1fn0t8t5nft3pt661qzj,36u2a8vag5cvurj2bg618u0ae6pykw,qOoxnOCx,2020-0188,2020-11-17,10:50:01,11:08:20,NA,incomplete,110,number,1,1,left,Purple_Triangle_Chess_2.jpg,Green_Circle_Grid_2.jpg,Blue_Plus_Chess_1.jpg,right,1010.6650000002701,false,low,NA,NA,NA,NA,NA,NA,NA,false
qOoxnOCx,3t5zxgo9eh1fn0t8t5nft3pt661qzj,36u2a8vag5cvurj2bg618u0ae6pykw,qOoxnOCx,2020-0188,2020-11-17,10:50:01,11:08:20,NA,incomplete,111,number,1,1,right,Green_Triangle_Dots_3.jpg,Purple_Star_Dots_4.jpg,Blue_Circle_Stripes_3.jpg,left,853.5950000000885,false,low,NA,NA,NA,NA,NA,NA,NA,false
qOoxnOCx,3t5zxgo9eh1fn0t8t5nft3pt661qzj,36u2a8vag5cvurj2bg618u0ae6pykw,qOoxnOCx,2020-0188,2020-11-17,10:50:01,11:08:20,NA,incomplete,112,number,1,1,right,Purple_Plus_Stripes_3.jpg,Red_Circle_Stripes_1.jpg,Blue_Triangle_Dots_3.jpg,right,723.8050000001676,true,low,NA,NA,NA,NA,NA,NA,NA,false
qOoxnOCx,3t5zxgo9eh1fn0t8t5nft3pt661qzj,36u2a8vag5cvurj2bg618u0ae6pykw,qOoxnOCx,2020-0188,2020-11-17,10:50:01,11:08:20,NA,incomplete,113,number,1,0,left,Red_Star_Chess_2.jpg,Blue_Plus_Dots_2.jpg,Purple_Circle_Chess_4.jpg,left,635.604999999865,true,low,NA,NA,NA,NA,NA,NA,NA,false
qOoxnOCx,3t5zxgo9eh1fn0t8t5nft3pt661qzj,36u2a8vag5cvurj2bg618u0ae6pykw,qOoxnOCx,2020-0188,2020-11-17,10:50:01,11:08:20,NA,incomplete,114,number,1,1,right,Red_Plus_Dots_4.jpg,Blue_Circle_Dots_3.jpg,Purple_Star_Grid_4.jpg,right,643.4650000002002,true,low,NA,NA,NA,NA,NA,NA,NA,false
qOoxnOCx,3t5zxgo9eh1fn0t8t5nft3pt661qzj,36u2a8vag5cvurj2bg618u0ae6pykw,qOoxnOCx,2020-0188,2020-11-17,10:50:01,11:08:20,NA,incomplete,115,number,1,0,right,Red_Plus_Stripes_4.jpg,Blue_Circle_Stripes_3.jpg,Green_Triangle_Grid_4.jpg,right,823.0349999997998,true,low,NA,NA,NA,NA,NA,NA,NA,false
qOoxnOCx,3t5zxgo9eh1fn0t8t5nft3pt661qzj,36u2a8vag5cvurj2bg618u0ae6pykw,qOoxnOCx,2020-0188,2020-11-17,10:50:01,11:08:20,NA,incomplete,116,number,1,1,left,Purple_Triangle_Chess_3.jpg,Green_Star_Stripes_3.jpg,Red_Plus_Chess_4.jpg,left,679.7599999998929,true,low,NA,NA,NA,NA,NA,NA,NA,false
qOoxnOCx,3t5zxgo9eh1fn0t8t5nft3pt661qzj,36u2a8vag5cvurj2bg618u0ae6pykw,qOoxnOCx,2020-0188,2020-11-17,10:50:01,11:08:20,NA,incomplete,117,number,1,0,left,Red_Circle_Stripes_2.jpg,Purple_Triangle_Chess_2.jpg,Blue_Star_Stripes_1.jpg,left,628.9999999998836,true,low,NA,NA,NA,NA,NA,NA,NA,false
qOoxnOCx,3t5zxgo9eh1fn0t8t5nft3pt661qzj,36u2a8vag5cvurj2bg618u0ae6pykw,qOoxnOCx,2020-0188,2020-11-17,10:50:01,11:08:20,NA,incomplete,118,number,1,1,left,Red_Plus_Stripes_1.jpg,Blue_Triangle_Chess_1.jpg,Purple_Circle_Stripes_2.jpg,left,538.4699999998556,true,low,NA,NA,NA,NA,NA,NA,NA,false
qOoxnOCx,3t5zxgo9eh1fn0t8t5nft3pt661qzj,36u2a8vag5cvurj2bg618u0ae6pykw,qOoxnOCx,2020-0188,2020-11-17,10:50:01,11:08:20,NA,incomplete,119,number,1,1,left,Blue_Star_Chess_1.jpg,Red_Triangle_Stripes_1.jpg,Green_Circle_Chess_2.jpg,left,542.7199999999721,true,low,NA,NA,NA,NA,NA,NA,NA,false
qOoxnOCx,3t5zxgo9eh1fn0t8t5nft3pt661qzj,36u2a8vag5cvurj2bg618u0ae6pykw,qOoxnOCx,2020-0188,2020-11-17,10:50:01,11:08:20,NA,incomplete,120,gender,2,0,left,A_M_09.jpg,C_M_15.jpg,A_F_13.jpg,NA,NA,NA,low,NA,NA,NA,NA,NA,NA,NA,false
qOoxnOCx,3t5zxgo9eh1fn0t8t5nft3pt661qzj,36u2a8vag5cvurj2bg618u0ae6pykw,qOoxnOCx,2020-0188,2020-11-17,10:50:01,11:08:20,NA,incomplete,121,gender,2,1,left,C_M_04.jpg,A_M_16.jpg,C_F_08.jpg,left,977.1150000001071,true,low,NA,NA,NA,NA,NA,NA,NA,false
qOoxnOCx,3t5zxgo9eh1fn0t8t5nft3pt661qzj,36u2a8vag5cvurj2bg618u0ae6pykw,qOoxnOCx,2020-0188,2020-11-17,10:50:01,11:08:20,NA,incomplete,122,gender,2,1,right,C_F_03.jpg,C_M_13.jpg,A_F_16.jpg,right,884.7550000001211,true,low,NA,NA,NA,NA,NA,NA,NA,false
qOoxnOCx,3t5zxgo9eh1fn0t8t5nft3pt661qzj,36u2a8vag5cvurj2bg618u0ae6pykw,qOoxnOCx,2020-0188,2020-11-17,10:50:01,11:08:20,NA,incomplete,123,gender,2,1,right,A_F_02.jpg,A_M_13.jpg,C_F_10.jpg,right,734.1600000000326,true,low,NA,NA,NA,NA,NA,NA,NA,false
qOoxnOCx,3t5zxgo9eh1fn0t8t5nft3pt661qzj,36u2a8vag5cvurj2bg618u0ae6pykw,qOoxnOCx,2020-0188,2020-11-17,10:50:01,11:08:20,NA,incomplete,124,gender,2,0,left,A_M_03.jpg,C_M_02.jpg,A_F_06.jpg,left,900.0450000003912,true,low,NA,NA,NA,NA,NA,NA,NA,false
qOoxnOCx,3t5zxgo9eh1fn0t8t5nft3pt661qzj,36u2a8vag5cvurj2bg618u0ae6pykw,qOoxnOCx,2020-0188,2020-11-17,10:50:01,11:08:20,NA,incomplete,125,gender,2,1,right,A_F_12.jpg,A_M_10.jpg,C_F_01.jpg,right,906.8350000001956,true,low,NA,NA,NA,NA,NA,NA,NA,false
qOoxnOCx,3t5zxgo9eh1fn0t8t5nft3pt661qzj,36u2a8vag5cvurj2bg618u0ae6pykw,qOoxnOCx,2020-0188,2020-11-17,10:50:01,11:08:20,NA,incomplete,126,gender,2,0,left,C_M_10.jpg,A_M_01.jpg,C_F_14.jpg,left,734.3650000002235,true,low,NA,NA,NA,NA,NA,NA,NA,false
qOoxnOCx,3t5zxgo9eh1fn0t8t5nft3pt661qzj,36u2a8vag5cvurj2bg618u0ae6pykw,qOoxnOCx,2020-0188,2020-11-17,10:50:01,11:08:20,NA,incomplete,127,gender,2,1,left,C_F_10.jpg,A_F_09.jpg,C_M_07.jpg,left,711.4949999999953,true,low,NA,NA,NA,NA,NA,NA,NA,false
qOoxnOCx,3t5zxgo9eh1fn0t8t5nft3pt661qzj,36u2a8vag5cvurj2bg618u0ae6pykw,qOoxnOCx,2020-0188,2020-11-17,10:50:01,11:08:20,NA,incomplete,128,gender,2,1,left,A_M_07.jpg,C_M_16.jpg,A_F_15.jpg,left,777.0300000001444,true,low,NA,NA,NA,NA,NA,NA,NA,false
qOoxnOCx,3t5zxgo9eh1fn0t8t5nft3pt661qzj,36u2a8vag5cvurj2bg618u0ae6pykw,qOoxnOCx,2020-0188,2020-11-17,10:50:01,11:08:20,NA,incomplete,129,gender,2,1,left,A_M_10.jpg,C_M_12.jpg,A_F_04.jpg,left,846.4049999997951,true,low,NA,NA,NA,NA,NA,NA,NA,false
qOoxnOCx,3t5zxgo9eh1fn0t8t5nft3pt661qzj,36u2a8vag5cvurj2bg618u0ae6pykw,qOoxnOCx,2020-0188,2020-11-17,10:50:01,11:08:20,NA,incomplete,130,gender,2,1,left,C_M_04.jpg,A_M_12.jpg,C_F_09.jpg,left,723.1500000002561,true,low,NA,NA,NA,NA,NA,NA,NA,false
qOoxnOCx,3t5zxgo9eh1fn0t8t5nft3pt661qzj,36u2a8vag5cvurj2bg618u0ae6pykw,qOoxnOCx,2020-0188,2020-11-17,10:50:01,11:08:20,NA,incomplete,131,gender,2,1,left,A_F_05.jpg,C_F_02.jpg,A_M_01.jpg,left,708.0449999998091,true,low,NA,NA,NA,NA,NA,NA,NA,false
qOoxnOCx,3t5zxgo9eh1fn0t8t5nft3pt661qzj,36u2a8vag5cvurj2bg618u0ae6pykw,qOoxnOCx,2020-0188,2020-11-17,10:50:01,11:08:20,NA,incomplete,132,gender,2,1,left,C_M_16.jpg,A_M_11.jpg,C_F_04.jpg,left,701.6950000001816,true,low,NA,NA,NA,NA,NA,NA,NA,false
qOoxnOCx,3t5zxgo9eh1fn0t8t5nft3pt661qzj,36u2a8vag5cvurj2bg618u0ae6pykw,qOoxnOCx,2020-0188,2020-11-17,10:50:01,11:08:20,NA,incomplete,133,gender,2,1,right,A_M_14.jpg,A_F_08.jpg,C_M_16.jpg,right,896.6449999997858,true,low,NA,NA,NA,NA,NA,NA,NA,false
qOoxnOCx,3t5zxgo9eh1fn0t8t5nft3pt661qzj,36u2a8vag5cvurj2bg618u0ae6pykw,qOoxnOCx,2020-0188,2020-11-17,10:50:01,11:08:20,NA,incomplete,134,gender,2,1,right,A_M_07.jpg,A_F_14.jpg,C_M_01.jpg,right,836.8200000000652,true,low,NA,NA,NA,NA,NA,NA,NA,false
qOoxnOCx,3t5zxgo9eh1fn0t8t5nft3pt661qzj,36u2a8vag5cvurj2bg618u0ae6pykw,qOoxnOCx,2020-0188,2020-11-17,10:50:01,11:08:20,NA,incomplete,135,gender,2,0,right,C_M_04.jpg,C_F_11.jpg,A_M_10.jpg,right,629.2149999999674,true,low,NA,NA,NA,NA,NA,NA,NA,false
qOoxnOCx,3t5zxgo9eh1fn0t8t5nft3pt661qzj,36u2a8vag5cvurj2bg618u0ae6pykw,qOoxnOCx,2020-0188,2020-11-17,10:50:01,11:08:20,NA,incomplete,136,gender,2,1,left,A_M_03.jpg,C_M_13.jpg,A_F_05.jpg,left,750,true,low,NA,NA,NA,NA,NA,NA,NA,false
qOoxnOCx,3t5zxgo9eh1fn0t8t5nft3pt661qzj,36u2a8vag5cvurj2bg618u0ae6pykw,qOoxnOCx,2020-0188,2020-11-17,10:50:01,11:08:20,NA,incomplete,137,gender,2,1,right,A_M_05.jpg,A_F_13.jpg,C_M_15.jpg,right,882.7049999999581,true,low,NA,NA,NA,NA,NA,NA,NA,false
qOoxnOCx,3t5zxgo9eh1fn0t8t5nft3pt661qzj,36u2a8vag5cvurj2bg618u0ae6pykw,qOoxnOCx,2020-0188,2020-11-17,10:50:01,11:08:20,NA,incomplete,138,gender,2,1,left,C_F_09.jpg,A_F_12.jpg,C_M_11.jpg,left,688.7999999999302,true,low,NA,NA,NA,NA,NA,NA,NA,false
qOoxnOCx,3t5zxgo9eh1fn0t8t5nft3pt661qzj,36u2a8vag5cvurj2bg618u0ae6pykw,qOoxnOCx,2020-0188,2020-11-17,10:50:01,11:08:20,NA,incomplete,139,gender,2,0,left,A_M_03.jpg,C_M_12.jpg,A_F_09.jpg,left,674.2299999996321,true,low,NA,NA,NA,NA,NA,NA,NA,false
qOoxnOCx,3t5zxgo9eh1fn0t8t5nft3pt661qzj,36u2a8vag5cvurj2bg618u0ae6pykw,qOoxnOCx,2020-0188,2020-11-17,10:50:01,11:08:20,NA,incomplete,140,race,3,1,right,A_F_01.jpg,C_F_13.jpg,A_M_11.jpg,left,807.4750000000931,false,low,NA,NA,NA,NA,NA,NA,NA,false
qOoxnOCx,3t5zxgo9eh1fn0t8t5nft3pt661qzj,36u2a8vag5cvurj2bg618u0ae6pykw,qOoxnOCx,2020-0188,2020-11-17,10:50:01,11:08:20,NA,incomplete,141,race,3,1,left,C_F_02.jpg,C_M_13.jpg,A_F_01.jpg,left,847.4099999997998,true,low,NA,NA,NA,NA,NA,NA,NA,false
qOoxnOCx,3t5zxgo9eh1fn0t8t5nft3pt661qzj,36u2a8vag5cvurj2bg618u0ae6pykw,qOoxnOCx,2020-0188,2020-11-17,10:50:01,11:08:20,NA,incomplete,142,race,3,0,left,C_M_10.jpg,C_F_16.jpg,A_M_02.jpg,left,914.3099999997066,true,low,NA,NA,NA,NA,NA,NA,NA,false
qOoxnOCx,3t5zxgo9eh1fn0t8t5nft3pt661qzj,36u2a8vag5cvurj2bg618u0ae6pykw,qOoxnOCx,2020-0188,2020-11-17,10:50:01,11:08:20,NA,incomplete,143,race,3,1,left,A_F_06.jpg,A_M_04.jpg,C_F_10.jpg,left,840.7050000000745,true,low,NA,NA,NA,NA,NA,NA,NA,false
qOoxnOCx,3t5zxgo9eh1fn0t8t5nft3pt661qzj,36u2a8vag5cvurj2bg618u0ae6pykw,qOoxnOCx,2020-0188,2020-11-17,10:50:01,11:08:20,NA,incomplete,144,race,3,0,right,A_M_01.jpg,C_M_12.jpg,A_F_09.jpg,right,879.0250000001397,true,low,NA,NA,NA,NA,NA,NA,NA,false
qOoxnOCx,3t5zxgo9eh1fn0t8t5nft3pt661qzj,36u2a8vag5cvurj2bg618u0ae6pykw,qOoxnOCx,2020-0188,2020-11-17,10:50:01,11:08:20,NA,incomplete,145,race,3,1,right,C_M_05.jpg,A_M_06.jpg,C_F_14.jpg,right,1171.8900000001304,true,low,NA,NA,NA,NA,NA,NA,NA,false
qOoxnOCx,3t5zxgo9eh1fn0t8t5nft3pt661qzj,36u2a8vag5cvurj2bg618u0ae6pykw,qOoxnOCx,2020-0188,2020-11-17,10:50:01,11:08:20,NA,incomplete,146,race,3,1,left,A_M_09.jpg,A_F_11.jpg,C_M_06.jpg,left,1105.3750000001164,true,low,NA,NA,NA,NA,NA,NA,NA,false
qOoxnOCx,3t5zxgo9eh1fn0t8t5nft3pt661qzj,36u2a8vag5cvurj2bg618u0ae6pykw,qOoxnOCx,2020-0188,2020-11-17,10:50:01,11:08:20,NA,incomplete,147,race,3,1,right,A_F_15.jpg,C_F_09.jpg,A_M_06.jpg,right,1011.3349999997299,true,low,NA,NA,NA,NA,NA,NA,NA,false
qOoxnOCx,3t5zxgo9eh1fn0t8t5nft3pt661qzj,36u2a8vag5cvurj2bg618u0ae6pykw,qOoxnOCx,2020-0188,2020-11-17,10:50:01,11:08:20,NA,incomplete,148,race,3,1,right,A_M_01.jpg,C_M_08.jpg,A_F_13.jpg,right,779.4699999999721,true,low,NA,NA,NA,NA,NA,NA,NA,false
qOoxnOCx,3t5zxgo9eh1fn0t8t5nft3pt661qzj,36u2a8vag5cvurj2bg618u0ae6pykw,qOoxnOCx,2020-0188,2020-11-17,10:50:01,11:08:20,NA,incomplete,149,race,3,1,right,A_F_10.jpg,C_F_01.jpg,A_M_16.jpg,right,785.9099999995669,true,low,NA,NA,NA,NA,NA,NA,NA,false
qOoxnOCx,3t5zxgo9eh1fn0t8t5nft3pt661qzj,36u2a8vag5cvurj2bg618u0ae6pykw,qOoxnOCx,2020-0188,2020-11-17,10:50:01,11:08:20,NA,incomplete,150,race,3,1,left,A_F_06.jpg,A_M_14.jpg,C_F_09.jpg,left,812.6599999996834,true,low,NA,NA,NA,NA,NA,NA,NA,false
qOoxnOCx,3t5zxgo9eh1fn0t8t5nft3pt661qzj,36u2a8vag5cvurj2bg618u0ae6pykw,qOoxnOCx,2020-0188,2020-11-17,10:50:01,11:08:20,NA,incomplete,151,race,3,1,left,C_M_01.jpg,C_F_16.jpg,A_M_12.jpg,left,820.7250000000931,true,low,NA,NA,NA,NA,NA,NA,NA,false
qOoxnOCx,3t5zxgo9eh1fn0t8t5nft3pt661qzj,36u2a8vag5cvurj2bg618u0ae6pykw,qOoxnOCx,2020-0188,2020-11-17,10:50:01,11:08:20,NA,incomplete,152,race,3,1,left,A_F_13.jpg,A_M_03.jpg,C_F_09.jpg,right,697.4499999996042,false,low,NA,NA,NA,NA,NA,NA,NA,false
qOoxnOCx,3t5zxgo9eh1fn0t8t5nft3pt661qzj,36u2a8vag5cvurj2bg618u0ae6pykw,qOoxnOCx,2020-0188,2020-11-17,10:50:01,11:08:20,NA,incomplete,153,race,3,1,right,A_M_05.jpg,C_M_06.jpg,A_F_08.jpg,right,842.0599999999395,true,low,NA,NA,NA,NA,NA,NA,NA,false
qOoxnOCx,3t5zxgo9eh1fn0t8t5nft3pt661qzj,36u2a8vag5cvurj2bg618u0ae6pykw,qOoxnOCx,2020-0188,2020-11-17,10:50:01,11:08:20,NA,incomplete,154,race,3,0,left,C_M_11.jpg,C_F_16.jpg,A_M_10.jpg,left,935.0650000000605,true,low,NA,NA,NA,NA,NA,NA,NA,false
qOoxnOCx,3t5zxgo9eh1fn0t8t5nft3pt661qzj,36u2a8vag5cvurj2bg618u0ae6pykw,qOoxnOCx,2020-0188,2020-11-17,10:50:01,11:08:20,NA,incomplete,155,race,3,1,right,C_F_11.jpg,A_F_05.jpg,C_M_02.jpg,right,1010.0299999999115,true,low,NA,NA,NA,NA,NA,NA,NA,false
qOoxnOCx,3t5zxgo9eh1fn0t8t5nft3pt661qzj,36u2a8vag5cvurj2bg618u0ae6pykw,qOoxnOCx,2020-0188,2020-11-17,10:50:01,11:08:20,NA,incomplete,156,race,3,1,right,A_M_14.jpg,C_M_16.jpg,A_F_09.jpg,right,953.694999999716,true,low,NA,NA,NA,NA,NA,NA,NA,false
qOoxnOCx,3t5zxgo9eh1fn0t8t5nft3pt661qzj,36u2a8vag5cvurj2bg618u0ae6pykw,qOoxnOCx,2020-0188,2020-11-17,10:50:01,11:08:20,NA,incomplete,157,race,3,1,left,C_F_16.jpg,C_M_15.jpg,A_F_08.jpg,left,686.1999999996042,true,low,NA,NA,NA,NA,NA,NA,NA,false
qOoxnOCx,3t5zxgo9eh1fn0t8t5nft3pt661qzj,36u2a8vag5cvurj2bg618u0ae6pykw,qOoxnOCx,2020-0188,2020-11-17,10:50:01,11:08:20,NA,incomplete,158,race,3,1,right,C_M_16.jpg,A_M_10.jpg,C_F_04.jpg,left,951.440000000177,false,low,NA,NA,NA,NA,NA,NA,NA,false
qOoxnOCx,3t5zxgo9eh1fn0t8t5nft3pt661qzj,36u2a8vag5cvurj2bg618u0ae6pykw,qOoxnOCx,2020-0188,2020-11-17,10:50:01,11:08:20,NA,incomplete,159,race,3,1,right,C_F_12.jpg,A_F_15.jpg,C_M_06.jpg,left,1003.9950000001118,false,low,NA,NA,NA,NA,NA,NA,NA,false
qOoxnOCx,3t5zxgo9eh1fn0t8t5nft3pt661qzj,36u2a8vag5cvurj2bg618u0ae6pykw,qOoxnOCx,2020-0188,2020-11-17,10:50:01,11:08:20,NA,incomplete,160,gender,2,1,right,A_M_10.jpg,A_F_07.jpg,C_M_01.jpg,left,940.4949999998789,false,low,NA,NA,NA,NA,NA,NA,NA,false
qOoxnOCx,3t5zxgo9eh1fn0t8t5nft3pt661qzj,36u2a8vag5cvurj2bg618u0ae6pykw,qOoxnOCx,2020-0188,2020-11-17,10:50:01,11:08:20,NA,incomplete,161,gender,2,1,right,C_M_09.jpg,C_F_07.jpg,A_M_16.jpg,right,814.6400000001304,true,low,NA,NA,NA,NA,NA,NA,NA,false
qOoxnOCx,3t5zxgo9eh1fn0t8t5nft3pt661qzj,36u2a8vag5cvurj2bg618u0ae6pykw,qOoxnOCx,2020-0188,2020-11-17,10:50:01,11:08:20,NA,incomplete,162,gender,2,1,left,A_M_03.jpg,C_M_06.jpg,A_F_01.jpg,left,881.0500000000466,true,low,NA,NA,NA,NA,NA,NA,NA,false
qOoxnOCx,3t5zxgo9eh1fn0t8t5nft3pt661qzj,36u2a8vag5cvurj2bg618u0ae6pykw,qOoxnOCx,2020-0188,2020-11-17,10:50:01,11:08:20,NA,incomplete,163,gender,2,1,right,C_F_12.jpg,C_M_06.jpg,A_F_08.jpg,right,663.4600000001956,true,low,NA,NA,NA,NA,NA,NA,NA,false
qOoxnOCx,3t5zxgo9eh1fn0t8t5nft3pt661qzj,36u2a8vag5cvurj2bg618u0ae6pykw,qOoxnOCx,2020-0188,2020-11-17,10:50:01,11:08:20,NA,incomplete,164,gender,2,0,right,C_F_03.jpg,C_M_13.jpg,A_F_08.jpg,right,927.5999999999767,true,low,NA,NA,NA,NA,NA,NA,NA,false
qOoxnOCx,3t5zxgo9eh1fn0t8t5nft3pt661qzj,36u2a8vag5cvurj2bg618u0ae6pykw,qOoxnOCx,2020-0188,2020-11-17,10:50:01,11:08:20,NA,incomplete,165,gender,2,1,right,C_M_15.jpg,C_F_09.jpg,A_M_01.jpg,right,867.1399999998976,true,low,NA,NA,NA,NA,NA,NA,NA,false
qOoxnOCx,3t5zxgo9eh1fn0t8t5nft3pt661qzj,36u2a8vag5cvurj2bg618u0ae6pykw,qOoxnOCx,2020-0188,2020-11-17,10:50:01,11:08:20,NA,incomplete,166,gender,2,1,right,C_F_16.jpg,C_M_15.jpg,A_F_02.jpg,right,690.3349999997299,true,low,NA,NA,NA,NA,NA,NA,NA,false
qOoxnOCx,3t5zxgo9eh1fn0t8t5nft3pt661qzj,36u2a8vag5cvurj2bg618u0ae6pykw,qOoxnOCx,2020-0188,2020-11-17,10:50:01,11:08:20,NA,incomplete,167,gender,2,1,right,A_M_09.jpg,A_F_10.jpg,C_M_14.jpg,right,879.8799999998882,true,low,NA,NA,NA,NA,NA,NA,NA,false
qOoxnOCx,3t5zxgo9eh1fn0t8t5nft3pt661qzj,36u2a8vag5cvurj2bg618u0ae6pykw,qOoxnOCx,2020-0188,2020-11-17,10:50:01,11:08:20,NA,incomplete,168,gender,2,1,right,A_F_08.jpg,A_M_06.jpg,C_F_03.jpg,right,715.0250000000233,true,low,NA,NA,NA,NA,NA,NA,NA,false
qOoxnOCx,3t5zxgo9eh1fn0t8t5nft3pt661qzj,36u2a8vag5cvurj2bg618u0ae6pykw,qOoxnOCx,2020-0188,2020-11-17,10:50:01,11:08:20,NA,incomplete,169,gender,2,0,right,A_M_15.jpg,A_F_14.jpg,C_M_03.jpg,right,786.4599999998463,true,low,NA,NA,NA,NA,NA,NA,NA,false
qOoxnOCx,3t5zxgo9eh1fn0t8t5nft3pt661qzj,36u2a8vag5cvurj2bg618u0ae6pykw,qOoxnOCx,2020-0188,2020-11-17,10:50:01,11:08:20,NA,incomplete,170,gender,2,1,left,C_F_04.jpg,A_F_07.jpg,C_M_10.jpg,left,689.0300000000279,true,low,NA,NA,NA,NA,NA,NA,NA,false
qOoxnOCx,3t5zxgo9eh1fn0t8t5nft3pt661qzj,36u2a8vag5cvurj2bg618u0ae6pykw,qOoxnOCx,2020-0188,2020-11-17,10:50:01,11:08:20,NA,incomplete,171,gender,2,0,left,A_M_16.jpg,C_M_07.jpg,A_F_02.jpg,left,783.4650000000838,true,low,NA,NA,NA,NA,NA,NA,NA,false
qOoxnOCx,3t5zxgo9eh1fn0t8t5nft3pt661qzj,36u2a8vag5cvurj2bg618u0ae6pykw,qOoxnOCx,2020-0188,2020-11-17,10:50:01,11:08:20,NA,incomplete,172,gender,2,1,right,C_M_12.jpg,C_F_07.jpg,A_M_16.jpg,right,634.770000000135,true,low,NA,NA,NA,NA,NA,NA,NA,false
qOoxnOCx,3t5zxgo9eh1fn0t8t5nft3pt661qzj,36u2a8vag5cvurj2bg618u0ae6pykw,qOoxnOCx,2020-0188,2020-11-17,10:50:01,11:08:20,NA,incomplete,173,gender,2,1,left,A_M_07.jpg,C_M_04.jpg,A_F_14.jpg,left,854.75,true,low,NA,NA,NA,NA,NA,NA,NA,false
qOoxnOCx,3t5zxgo9eh1fn0t8t5nft3pt661qzj,36u2a8vag5cvurj2bg618u0ae6pykw,qOoxnOCx,2020-0188,2020-11-17,10:50:01,11:08:20,NA,incomplete,174,gender,2,1,left,C_F_11.jpg,A_F_03.jpg,C_M_10.jpg,left,759.4199999998091,true,low,NA,NA,NA,NA,NA,NA,NA,false
qOoxnOCx,3t5zxgo9eh1fn0t8t5nft3pt661qzj,36u2a8vag5cvurj2bg618u0ae6pykw,qOoxnOCx,2020-0188,2020-11-17,10:50:01,11:08:20,NA,incomplete,175,gender,2,1,left,A_M_01.jpg,C_M_14.jpg,A_F_02.jpg,left,896.4850000002189,true,low,NA,NA,NA,NA,NA,NA,NA,false
qOoxnOCx,3t5zxgo9eh1fn0t8t5nft3pt661qzj,36u2a8vag5cvurj2bg618u0ae6pykw,qOoxnOCx,2020-0188,2020-11-17,10:50:01,11:08:20,NA,incomplete,176,gender,2,1,left,C_F_11.jpg,A_F_05.jpg,C_M_13.jpg,left,813.4599999998463,true,low,NA,NA,NA,NA,NA,NA,NA,false
qOoxnOCx,3t5zxgo9eh1fn0t8t5nft3pt661qzj,36u2a8vag5cvurj2bg618u0ae6pykw,qOoxnOCx,2020-0188,2020-11-17,10:50:01,11:08:20,NA,incomplete,177,gender,2,1,left,A_M_14.jpg,C_M_07.jpg,A_F_04.jpg,left,815.8050000001676,true,low,NA,NA,NA,NA,NA,NA,NA,false
qOoxnOCx,3t5zxgo9eh1fn0t8t5nft3pt661qzj,36u2a8vag5cvurj2bg618u0ae6pykw,qOoxnOCx,2020-0188,2020-11-17,10:50:01,11:08:20,NA,incomplete,178,gender,2,0,left,C_F_03.jpg,A_F_12.jpg,C_M_10.jpg,left,613.2549999996554,true,low,NA,NA,NA,NA,NA,NA,NA,false
qOoxnOCx,3t5zxgo9eh1fn0t8t5nft3pt661qzj,36u2a8vag5cvurj2bg618u0ae6pykw,qOoxnOCx,2020-0188,2020-11-17,10:50:01,11:08:20,NA,incomplete,179,gender,2,1,left,A_F_01.jpg,C_F_09.jpg,A_M_16.jpg,left,755.1800000001676,true,low,NA,NA,NA,NA,NA,NA,NA,false
qOoxnOCx,3t5zxgo9eh1fn0t8t5nft3pt661qzj,36u2a8vag5cvurj2bg618u0ae6pykw,qOoxnOCx,2020-0188,2020-11-17,10:50:01,11:08:20,NA,incomplete,180,race,3,0,right,C_F_09.jpg,A_F_01.jpg,C_M_12.jpg,left,652.8400000002002,false,low,NA,NA,NA,NA,NA,NA,NA,false
qOoxnOCx,3t5zxgo9eh1fn0t8t5nft3pt661qzj,36u2a8vag5cvurj2bg618u0ae6pykw,qOoxnOCx,2020-0188,2020-11-17,10:50:01,11:08:20,NA,incomplete,181,race,3,1,right,A_F_09.jpg,C_F_13.jpg,A_M_12.jpg,left,704.6849999997066,false,low,NA,NA,NA,NA,NA,NA,NA,false
qOoxnOCx,3t5zxgo9eh1fn0t8t5nft3pt661qzj,36u2a8vag5cvurj2bg618u0ae6pykw,qOoxnOCx,2020-0188,2020-11-17,10:50:01,11:08:20,NA,incomplete,182,race,3,1,left,A_M_11.jpg,A_F_04.jpg,C_M_16.jpg,right,837.1799999999348,false,low,NA,NA,NA,NA,NA,NA,NA,false
qOoxnOCx,3t5zxgo9eh1fn0t8t5nft3pt661qzj,36u2a8vag5cvurj2bg618u0ae6pykw,qOoxnOCx,2020-0188,2020-11-17,10:50:01,11:08:20,NA,incomplete,183,race,3,1,left,C_M_01.jpg,C_F_08.jpg,A_M_03.jpg,left,787.3749999998836,true,low,NA,NA,NA,NA,NA,NA,NA,false
qOoxnOCx,3t5zxgo9eh1fn0t8t5nft3pt661qzj,36u2a8vag5cvurj2bg618u0ae6pykw,qOoxnOCx,2020-0188,2020-11-17,10:50:01,11:08:20,NA,incomplete,184,race,3,1,left,A_F_10.jpg,A_M_15.jpg,C_F_11.jpg,left,746.0399999999208,true,low,NA,NA,NA,NA,NA,NA,NA,false
qOoxnOCx,3t5zxgo9eh1fn0t8t5nft3pt661qzj,36u2a8vag5cvurj2bg618u0ae6pykw,qOoxnOCx,2020-0188,2020-11-17,10:50:01,11:08:20,NA,incomplete,185,race,3,1,left,A_F_05.jpg,A_M_11.jpg,C_F_01.jpg,right,1300.649999999674,false,low,NA,NA,NA,NA,NA,NA,NA,false
qOoxnOCx,3t5zxgo9eh1fn0t8t5nft3pt661qzj,36u2a8vag5cvurj2bg618u0ae6pykw,qOoxnOCx,2020-0188,2020-11-17,10:50:01,11:08:20,NA,incomplete,186,race,3,1,right,A_M_16.jpg,C_M_11.jpg,A_F_01.jpg,right,845.2750000000233,true,low,NA,NA,NA,NA,NA,NA,NA,false
qOoxnOCx,3t5zxgo9eh1fn0t8t5nft3pt661qzj,36u2a8vag5cvurj2bg618u0ae6pykw,qOoxnOCx,2020-0188,2020-11-17,10:50:01,11:08:20,NA,incomplete,187,race,3,1,left,C_M_09.jpg,C_F_05.jpg,A_M_14.jpg,left,757.7550000001211,true,low,NA,NA,NA,NA,NA,NA,NA,false
qOoxnOCx,3t5zxgo9eh1fn0t8t5nft3pt661qzj,36u2a8vag5cvurj2bg618u0ae6pykw,qOoxnOCx,2020-0188,2020-11-17,10:50:01,11:08:20,NA,incomplete,188,race,3,1,left,C_M_10.jpg,C_F_05.jpg,A_M_06.jpg,left,731.9799999999814,true,low,NA,NA,NA,NA,NA,NA,NA,false
qOoxnOCx,3t5zxgo9eh1fn0t8t5nft3pt661qzj,36u2a8vag5cvurj2bg618u0ae6pykw,qOoxnOCx,2020-0188,2020-11-17,10:50:01,11:08:20,NA,incomplete,189,race,3,1,left,C_F_08.jpg,C_M_10.jpg,A_F_15.jpg,right,894.8549999999814,false,low,NA,NA,NA,NA,NA,NA,NA,false
qOoxnOCx,3t5zxgo9eh1fn0t8t5nft3pt661qzj,36u2a8vag5cvurj2bg618u0ae6pykw,qOoxnOCx,2020-0188,2020-11-17,10:50:01,11:08:20,NA,incomplete,190,race,3,0,right,C_F_14.jpg,A_F_02.jpg,C_M_15.jpg,right,927.6599999997998,true,low,NA,NA,NA,NA,NA,NA,NA,false
qOoxnOCx,3t5zxgo9eh1fn0t8t5nft3pt661qzj,36u2a8vag5cvurj2bg618u0ae6pykw,qOoxnOCx,2020-0188,2020-11-17,10:50:01,11:08:20,NA,incomplete,191,race,3,1,right,A_M_01.jpg,C_M_04.jpg,A_F_14.jpg,left,922.6349999998929,false,low,NA,NA,NA,NA,NA,NA,NA,false
qOoxnOCx,3t5zxgo9eh1fn0t8t5nft3pt661qzj,36u2a8vag5cvurj2bg618u0ae6pykw,qOoxnOCx,2020-0188,2020-11-17,10:50:01,11:08:20,NA,incomplete,192,race,3,1,right,A_F_05.jpg,C_F_02.jpg,A_M_03.jpg,right,1266.1950000001816,true,low,NA,NA,NA,NA,NA,NA,NA,false
qOoxnOCx,3t5zxgo9eh1fn0t8t5nft3pt661qzj,36u2a8vag5cvurj2bg618u0ae6pykw,qOoxnOCx,2020-0188,2020-11-17,10:50:01,11:08:20,NA,incomplete,193,race,3,0,left,C_F_12.jpg,C_M_06.jpg,A_F_16.jpg,left,1153.5650000000605,true,low,NA,NA,NA,NA,NA,NA,NA,false
qOoxnOCx,3t5zxgo9eh1fn0t8t5nft3pt661qzj,36u2a8vag5cvurj2bg618u0ae6pykw,qOoxnOCx,2020-0188,2020-11-17,10:50:01,11:08:20,NA,incomplete,194,race,3,1,left,A_F_12.jpg,A_M_15.jpg,C_F_05.jpg,right,1069.25,false,low,NA,NA,NA,NA,NA,NA,NA,false
qOoxnOCx,3t5zxgo9eh1fn0t8t5nft3pt661qzj,36u2a8vag5cvurj2bg618u0ae6pykw,qOoxnOCx,2020-0188,2020-11-17,10:50:01,11:08:20,NA,incomplete,195,race,3,1,right,C_F_12.jpg,A_F_14.jpg,C_M_10.jpg,left,1001.4000000000233,false,low,NA,NA,NA,NA,NA,NA,NA,false
qOoxnOCx,3t5zxgo9eh1fn0t8t5nft3pt661qzj,36u2a8vag5cvurj2bg618u0ae6pykw,qOoxnOCx,2020-0188,2020-11-17,10:50:01,11:08:20,NA,incomplete,196,race,3,1,right,C_F_02.jpg,A_F_08.jpg,C_M_12.jpg,right,961.5450000001583,true,low,NA,NA,NA,NA,NA,NA,NA,false
qOoxnOCx,3t5zxgo9eh1fn0t8t5nft3pt661qzj,36u2a8vag5cvurj2bg618u0ae6pykw,qOoxnOCx,2020-0188,2020-11-17,10:50:01,11:08:20,NA,incomplete,197,race,3,1,right,A_F_08.jpg,C_F_15.jpg,A_M_16.jpg,right,1059.1850000000559,true,low,NA,NA,NA,NA,NA,NA,NA,false
qOoxnOCx,3t5zxgo9eh1fn0t8t5nft3pt661qzj,36u2a8vag5cvurj2bg618u0ae6pykw,qOoxnOCx,2020-0188,2020-11-17,10:50:01,11:08:20,NA,incomplete,198,race,3,1,right,C_M_04.jpg,A_M_15.jpg,C_F_16.jpg,left,1148.9549999997253,false,low,NA,NA,NA,NA,NA,NA,NA,false
qOoxnOCx,3t5zxgo9eh1fn0t8t5nft3pt661qzj,36u2a8vag5cvurj2bg618u0ae6pykw,qOoxnOCx,2020-0188,2020-11-17,10:50:01,11:08:20,NA,incomplete,199,race,3,1,right,C_F_08.jpg,A_F_11.jpg,C_M_02.jpg,right,1365.9050000001444,true,low,NA,NA,NA,NA,NA,NA,NA,false
qOoxnOCx,3t5zxgo9eh1fn0t8t5nft3pt661qzj,36u2a8vag5cvurj2bg618u0ae6pykw,qOoxnOCx,2020-0188,2020-11-17,10:50:01,11:08:20,NA,incomplete,200,gender,2,1,left,A_F_09.jpg,C_F_10.jpg,A_M_07.jpg,right,1332.2450000001118,false,low,NA,NA,NA,NA,NA,NA,NA,false
qOoxnOCx,3t5zxgo9eh1fn0t8t5nft3pt661qzj,36u2a8vag5cvurj2bg618u0ae6pykw,qOoxnOCx,2020-0188,2020-11-17,10:50:01,11:08:20,NA,incomplete,201,gender,2,1,right,A_F_02.jpg,A_M_05.jpg,C_F_13.jpg,left,996.6949999998324,false,low,NA,NA,NA,NA,NA,NA,NA,false
qOoxnOCx,3t5zxgo9eh1fn0t8t5nft3pt661qzj,36u2a8vag5cvurj2bg618u0ae6pykw,qOoxnOCx,2020-0188,2020-11-17,10:50:01,11:08:20,NA,incomplete,202,gender,2,1,left,C_M_11.jpg,A_M_07.jpg,C_F_10.jpg,left,792.4200000002747,true,low,NA,NA,NA,NA,NA,NA,NA,false
qOoxnOCx,3t5zxgo9eh1fn0t8t5nft3pt661qzj,36u2a8vag5cvurj2bg618u0ae6pykw,qOoxnOCx,2020-0188,2020-11-17,10:50:01,11:08:20,NA,incomplete,203,gender,2,1,right,C_F_02.jpg,C_M_11.jpg,A_F_13.jpg,right,777.5650000002934,true,low,NA,NA,NA,NA,NA,NA,NA,false
qOoxnOCx,3t5zxgo9eh1fn0t8t5nft3pt661qzj,36u2a8vag5cvurj2bg618u0ae6pykw,qOoxnOCx,2020-0188,2020-11-17,10:50:01,11:08:20,NA,incomplete,204,gender,2,1,right,A_M_06.jpg,A_F_07.jpg,C_M_03.jpg,right,1152.8499999999767,true,low,NA,NA,NA,NA,NA,NA,NA,false
qOoxnOCx,3t5zxgo9eh1fn0t8t5nft3pt661qzj,36u2a8vag5cvurj2bg618u0ae6pykw,qOoxnOCx,2020-0188,2020-11-17,10:50:01,11:08:20,NA,incomplete,205,gender,2,1,left,A_M_12.jpg,C_M_07.jpg,A_F_16.jpg,left,739.5400000000373,true,low,NA,NA,NA,NA,NA,NA,NA,false
qOoxnOCx,3t5zxgo9eh1fn0t8t5nft3pt661qzj,36u2a8vag5cvurj2bg618u0ae6pykw,qOoxnOCx,2020-0188,2020-11-17,10:50:01,11:08:20,NA,incomplete,206,gender,2,1,left,C_F_01.jpg,A_F_02.jpg,C_M_03.jpg,left,799.5249999999069,true,low,NA,NA,NA,NA,NA,NA,NA,false
qOoxnOCx,3t5zxgo9eh1fn0t8t5nft3pt661qzj,36u2a8vag5cvurj2bg618u0ae6pykw,qOoxnOCx,2020-0188,2020-11-17,10:50:01,11:08:20,NA,incomplete,207,gender,2,1,right,A_M_08.jpg,A_F_04.jpg,C_M_12.jpg,right,960.0849999996135,true,low,NA,NA,NA,NA,NA,NA,NA,false
qOoxnOCx,3t5zxgo9eh1fn0t8t5nft3pt661qzj,36u2a8vag5cvurj2bg618u0ae6pykw,qOoxnOCx,2020-0188,2020-11-17,10:50:01,11:08:20,NA,incomplete,208,gender,2,0,right,C_F_08.jpg,C_M_06.jpg,A_F_13.jpg,right,667.734999999986,true,low,NA,NA,NA,NA,NA,NA,NA,false
qOoxnOCx,3t5zxgo9eh1fn0t8t5nft3pt661qzj,36u2a8vag5cvurj2bg618u0ae6pykw,qOoxnOCx,2020-0188,2020-11-17,10:50:01,11:08:20,NA,incomplete,209,gender,2,1,left,C_M_03.jpg,A_M_01.jpg,C_F_09.jpg,left,657.1399999997811,true,low,NA,NA,NA,NA,NA,NA,NA,false
qOoxnOCx,3t5zxgo9eh1fn0t8t5nft3pt661qzj,36u2a8vag5cvurj2bg618u0ae6pykw,qOoxnOCx,2020-0188,2020-11-17,10:50:01,11:08:20,NA,incomplete,210,gender,2,1,right,C_F_05.jpg,C_M_13.jpg,A_F_12.jpg,right,597.934999999823,true,low,NA,NA,NA,NA,NA,NA,NA,false
qOoxnOCx,3t5zxgo9eh1fn0t8t5nft3pt661qzj,36u2a8vag5cvurj2bg618u0ae6pykw,qOoxnOCx,2020-0188,2020-11-17,10:50:01,11:08:20,NA,incomplete,211,gender,2,0,left,A_F_07.jpg,C_F_02.jpg,A_M_12.jpg,left,575.6700000001583,true,low,NA,NA,NA,NA,NA,NA,NA,false
qOoxnOCx,3t5zxgo9eh1fn0t8t5nft3pt661qzj,36u2a8vag5cvurj2bg618u0ae6pykw,qOoxnOCx,2020-0188,2020-11-17,10:50:01,11:08:20,NA,incomplete,212,gender,2,1,left,A_M_10.jpg,C_M_03.jpg,A_F_12.jpg,left,685.059999999823,true,low,NA,NA,NA,NA,NA,NA,NA,false
qOoxnOCx,3t5zxgo9eh1fn0t8t5nft3pt661qzj,36u2a8vag5cvurj2bg618u0ae6pykw,qOoxnOCx,2020-0188,2020-11-17,10:50:01,11:08:20,NA,incomplete,213,gender,2,1,left,C_F_06.jpg,A_F_03.jpg,C_M_02.jpg,left,633.6150000002235,true,low,NA,NA,NA,NA,NA,NA,NA,false
qOoxnOCx,3t5zxgo9eh1fn0t8t5nft3pt661qzj,36u2a8vag5cvurj2bg618u0ae6pykw,qOoxnOCx,2020-0188,2020-11-17,10:50:01,11:08:20,NA,incomplete,214,gender,2,1,left,A_M_09.jpg,C_M_16.jpg,A_F_08.jpg,left,770.2300000000978,true,low,NA,NA,NA,NA,NA,NA,NA,false
qOoxnOCx,3t5zxgo9eh1fn0t8t5nft3pt661qzj,36u2a8vag5cvurj2bg618u0ae6pykw,qOoxnOCx,2020-0188,2020-11-17,10:50:01,11:08:20,NA,incomplete,215,gender,2,1,right,C_M_14.jpg,C_F_06.jpg,A_M_05.jpg,right,737.9150000001537,true,low,NA,NA,NA,NA,NA,NA,NA,false
qOoxnOCx,3t5zxgo9eh1fn0t8t5nft3pt661qzj,36u2a8vag5cvurj2bg618u0ae6pykw,qOoxnOCx,2020-0188,2020-11-17,10:50:01,11:08:20,NA,incomplete,216,gender,2,1,right,A_M_14.jpg,A_F_07.jpg,C_M_13.jpg,right,762.0899999996182,true,low,NA,NA,NA,NA,NA,NA,NA,false
qOoxnOCx,3t5zxgo9eh1fn0t8t5nft3pt661qzj,36u2a8vag5cvurj2bg618u0ae6pykw,qOoxnOCx,2020-0188,2020-11-17,10:50:01,11:08:20,NA,incomplete,217,gender,2,0,right,A_F_05.jpg,A_M_16.jpg,C_F_09.jpg,right,670.0250000003725,true,low,NA,NA,NA,NA,NA,NA,NA,false
qOoxnOCx,3t5zxgo9eh1fn0t8t5nft3pt661qzj,36u2a8vag5cvurj2bg618u0ae6pykw,qOoxnOCx,2020-0188,2020-11-17,10:50:01,11:08:20,NA,incomplete,218,gender,2,1,right,C_M_04.jpg,C_F_11.jpg,A_M_03.jpg,right,659.4250000002794,true,low,NA,NA,NA,NA,NA,NA,NA,false
qOoxnOCx,3t5zxgo9eh1fn0t8t5nft3pt661qzj,36u2a8vag5cvurj2bg618u0ae6pykw,qOoxnOCx,2020-0188,2020-11-17,10:50:01,11:08:20,NA,incomplete,219,gender,2,1,right,C_F_12.jpg,C_M_10.jpg,A_F_02.jpg,right,649.0100000000093,true,low,NA,NA,NA,NA,NA,NA,NA,false
qOoxnOCx,3t5zxgo9eh1fn0t8t5nft3pt661qzj,36u2a8vag5cvurj2bg618u0ae6pykw,qOoxnOCx,2020-0188,2020-11-17,10:50:01,11:08:20,NA,incomplete,220,race,3,1,left,C_F_02.jpg,C_M_04.jpg,A_F_15.jpg,right,673.5050000001211,false,low,NA,NA,NA,NA,NA,NA,NA,false
qOoxnOCx,3t5zxgo9eh1fn0t8t5nft3pt661qzj,36u2a8vag5cvurj2bg618u0ae6pykw,qOoxnOCx,2020-0188,2020-11-17,10:50:01,11:08:20,NA,incomplete,221,race,3,0,left,A_M_15.jpg,A_F_14.jpg,C_M_13.jpg,right,793.3149999998277,false,low,NA,NA,NA,NA,NA,NA,NA,false
qOoxnOCx,3t5zxgo9eh1fn0t8t5nft3pt661qzj,36u2a8vag5cvurj2bg618u0ae6pykw,qOoxnOCx,2020-0188,2020-11-17,10:50:01,11:08:20,NA,incomplete,222,race,3,1,right,C_M_02.jpg,A_M_12.jpg,C_F_04.jpg,left,769.7100000000792,false,low,NA,NA,NA,NA,NA,NA,NA,false
qOoxnOCx,3t5zxgo9eh1fn0t8t5nft3pt661qzj,36u2a8vag5cvurj2bg618u0ae6pykw,qOoxnOCx,2020-0188,2020-11-17,10:50:01,11:08:20,NA,incomplete,223,race,3,1,right,C_M_09.jpg,A_M_03.jpg,C_F_10.jpg,left,895.0000000003492,false,low,NA,NA,NA,NA,NA,NA,NA,false
qOoxnOCx,3t5zxgo9eh1fn0t8t5nft3pt661qzj,36u2a8vag5cvurj2bg618u0ae6pykw,qOoxnOCx,2020-0188,2020-11-17,10:50:01,11:08:20,NA,incomplete,224,race,3,0,right,A_M_13.jpg,C_M_01.jpg,A_F_03.jpg,right,713.3100000000559,true,low,NA,NA,NA,NA,NA,NA,NA,false
qOoxnOCx,3t5zxgo9eh1fn0t8t5nft3pt661qzj,36u2a8vag5cvurj2bg618u0ae6pykw,qOoxnOCx,2020-0188,2020-11-17,10:50:01,11:08:20,NA,incomplete,225,race,3,1,right,C_M_12.jpg,A_M_16.jpg,C_F_09.jpg,right,1025.9999999997672,true,low,NA,NA,NA,NA,NA,NA,NA,false
qOoxnOCx,3t5zxgo9eh1fn0t8t5nft3pt661qzj,36u2a8vag5cvurj2bg618u0ae6pykw,qOoxnOCx,2020-0188,2020-11-17,10:50:01,11:08:20,NA,incomplete,226,race,3,1,left,C_M_14.jpg,C_F_01.jpg,A_M_15.jpg,right,824.8750000002328,false,low,NA,NA,NA,NA,NA,NA,NA,false
qOoxnOCx,3t5zxgo9eh1fn0t8t5nft3pt661qzj,36u2a8vag5cvurj2bg618u0ae6pykw,qOoxnOCx,2020-0188,2020-11-17,10:50:01,11:08:20,NA,incomplete,227,race,3,0,right,A_F_03.jpg,C_F_13.jpg,A_M_01.jpg,left,893.4699999999721,false,low,NA,NA,NA,NA,NA,NA,NA,false
qOoxnOCx,3t5zxgo9eh1fn0t8t5nft3pt661qzj,36u2a8vag5cvurj2bg618u0ae6pykw,qOoxnOCx,2020-0188,2020-11-17,10:50:01,11:08:20,NA,incomplete,228,race,3,1,left,C_F_10.jpg,C_M_02.jpg,A_F_08.jpg,right,672.6899999998277,false,low,NA,NA,NA,NA,NA,NA,NA,false
qOoxnOCx,3t5zxgo9eh1fn0t8t5nft3pt661qzj,36u2a8vag5cvurj2bg618u0ae6pykw,qOoxnOCx,2020-0188,2020-11-17,10:50:01,11:08:20,NA,incomplete,229,race,3,1,left,C_M_03.jpg,C_F_05.jpg,A_M_15.jpg,right,801.5500000000466,false,low,NA,NA,NA,NA,NA,NA,NA,false
qOoxnOCx,3t5zxgo9eh1fn0t8t5nft3pt661qzj,36u2a8vag5cvurj2bg618u0ae6pykw,qOoxnOCx,2020-0188,2020-11-17,10:50:01,11:08:20,NA,incomplete,230,race,3,0,left,C_M_05.jpg,C_F_02.jpg,A_M_09.jpg,left,1041.5600000000559,true,low,NA,NA,NA,NA,NA,NA,NA,false
qOoxnOCx,3t5zxgo9eh1fn0t8t5nft3pt661qzj,36u2a8vag5cvurj2bg618u0ae6pykw,qOoxnOCx,2020-0188,2020-11-17,10:50:01,11:08:20,NA,incomplete,231,race,3,1,left,A_M_12.jpg,A_F_13.jpg,C_M_01.jpg,left,1074.6249999997672,true,low,NA,NA,NA,NA,NA,NA,NA,false
qOoxnOCx,3t5zxgo9eh1fn0t8t5nft3pt661qzj,36u2a8vag5cvurj2bg618u0ae6pykw,qOoxnOCx,2020-0188,2020-11-17,10:50:01,11:08:20,NA,incomplete,232,race,3,1,left,C_F_01.jpg,C_M_13.jpg,A_F_16.jpg,left,1267.6900000000605,true,low,NA,NA,NA,NA,NA,NA,NA,false
qOoxnOCx,3t5zxgo9eh1fn0t8t5nft3pt661qzj,36u2a8vag5cvurj2bg618u0ae6pykw,qOoxnOCx,2020-0188,2020-11-17,10:50:01,11:08:20,NA,incomplete,233,race,3,0,left,A_M_08.jpg,A_F_09.jpg,C_M_16.jpg,left,924.8499999998603,true,low,NA,NA,NA,NA,NA,NA,NA,false
qOoxnOCx,3t5zxgo9eh1fn0t8t5nft3pt661qzj,36u2a8vag5cvurj2bg618u0ae6pykw,qOoxnOCx,2020-0188,2020-11-17,10:50:01,11:08:20,NA,incomplete,234,race,3,1,right,A_M_16.jpg,C_M_15.jpg,A_F_11.jpg,right,1434.0000000001164,true,low,NA,NA,NA,NA,NA,NA,NA,false
qOoxnOCx,3t5zxgo9eh1fn0t8t5nft3pt661qzj,36u2a8vag5cvurj2bg618u0ae6pykw,qOoxnOCx,2020-0188,2020-11-17,10:50:01,11:08:20,NA,incomplete,235,race,3,1,left,C_F_12.jpg,C_M_01.jpg,A_F_02.jpg,right,1103.2199999998556,false,low,NA,NA,NA,NA,NA,NA,NA,false
qOoxnOCx,3t5zxgo9eh1fn0t8t5nft3pt661qzj,36u2a8vag5cvurj2bg618u0ae6pykw,qOoxnOCx,2020-0188,2020-11-17,10:50:01,11:08:20,NA,incomplete,236,race,3,0,left,A_F_01.jpg,A_M_13.jpg,C_F_06.jpg,left,861.2299999999814,true,low,NA,NA,NA,NA,NA,NA,NA,false
qOoxnOCx,3t5zxgo9eh1fn0t8t5nft3pt661qzj,36u2a8vag5cvurj2bg618u0ae6pykw,qOoxnOCx,2020-0188,2020-11-17,10:50:01,11:08:20,NA,incomplete,237,race,3,1,right,C_F_06.jpg,A_F_07.jpg,C_M_11.jpg,left,1014.7899999998044,false,low,NA,NA,NA,NA,NA,NA,NA,false
qOoxnOCx,3t5zxgo9eh1fn0t8t5nft3pt661qzj,36u2a8vag5cvurj2bg618u0ae6pykw,qOoxnOCx,2020-0188,2020-11-17,10:50:01,11:08:20,NA,incomplete,238,race,3,1,right,A_F_05.jpg,C_F_14.jpg,A_M_15.jpg,right,1151.6550000001444,true,low,NA,NA,NA,NA,NA,NA,NA,false
qOoxnOCx,3t5zxgo9eh1fn0t8t5nft3pt661qzj,36u2a8vag5cvurj2bg618u0ae6pykw,qOoxnOCx,2020-0188,2020-11-17,10:50:01,11:08:20,NA,incomplete,239,race,3,1,right,C_M_03.jpg,A_M_02.jpg,C_F_16.jpg,right,1118.7249999998603,true,low,NA,NA,NA,NA,NA,NA,NA,false
qOoxnOCx,3t5zxgo9eh1fn0t8t5nft3pt661qzj,36u2a8vag5cvurj2bg618u0ae6pykw,qOoxnOCx,2020-0188,2020-11-17,10:50:01,11:08:20,NA,NA,instruction example,filling,NA,NA,NA,Purple_Circle_Dots_1.jpg,Red_Triangle_Dots_2.jpg,Blue_Star_Chess_1.jpg,NA,NA,NA,NA,NA,NA,NA,NA,NA,NA,NA,undefined
qOoxnOCx,3t5zxgo9eh1fn0t8t5nft3pt661qzj,36u2a8vag5cvurj2bg618u0ae6pykw,qOoxnOCx,2020-0188,2020-11-17,10:50:01,11:08:20,NA,NA,instruction example,filling,NA,NA,NA,Blue_Triangle_Chess_2.jpg,Green_Circle_Grid_2.jpg,Red_Plus_Chess_3.jpg,NA,NA,NA,NA,NA,NA,NA,NA,NA,NA,NA,undefined
qOoxnOCx,3t5zxgo9eh1fn0t8t5nft3pt661qzj,36u2a8vag5cvurj2bg618u0ae6pykw,qOoxnOCx,2020-0188,2020-11-17,10:50:01,11:08:20,NA,NA,instruction example,filling,NA,NA,NA,A_F_05.jpg,C_F_13.jpg,A_M_03.jpg,NA,NA,NA,NA,NA,NA,NA,NA,NA,NA,NA,undefined
qOoxnOCx,3t5zxgo9eh1fn0t8t5nft3pt661qzj,36u2a8vag5cvurj2bg618u0ae6pykw,qOoxnOCx,2020-0188,2020-11-17,10:50:01,11:08:20,NA,NA,instruction example,filling,NA,NA,NA,C_M_05.jpg,C_F_06.jpg,A_M_07.jpg,NA,NA,NA,NA,NA,NA,NA,NA,NA,NA,NA,undefined
qOoxnOCx,3t5zxgo9eh1fn0t8t5nft3pt661qzj,36u2a8vag5cvurj2bg618u0ae6pykw,qOoxnOCx,2020-0188,2020-11-17,10:50:01,11:08:20,1050236.2,1100004.7000000002,NA,NA,NA,NA,NA,NA,NA,NA,NA,NA,NA,NA,31,White/Caucasian,Male,Hispanic,no,no,no,undefined
