workerId,hitId,assignmentId,subject,studyid,exp_date,exp_start,exp_end,time_start,time_end,trial,type,sequence,reward_validity,answer,image_top,image_left,image_right,response,response_time,response_acc,volatility,age,race,gender,ethnicity,color,vision,neuro,practice
C56evTXs,3headtgn3s5yqh3y5nncdnm28bcvrm,37xitheis0m4esvs58x9cfu4awxcr1,C56evTXs,2020-0188,2020-06-04,13:32:23,13:52:12,NA,incomplete,0,color,0,1,right,Red_Plus_Stripes_3.jpg,Blue_Star_Stripes_1.jpg,Red_Triangle_Dots_2.jpg,right,875.2449997700751,true,NA,NA,NA,NA,NA,NA,NA,NA,true
C56evTXs,3headtgn3s5yqh3y5nncdnm28bcvrm,37xitheis0m4esvs58x9cfu4awxcr1,C56evTXs,2020-0188,2020-06-04,13:32:23,13:52:12,NA,incomplete,1,color,0,1,left,Red_Plus_Chess_2.jpg,Red_Triangle_Dots_3.jpg,Blue_Star_Chess_4.jpg,left,700.9000000543892,true,NA,NA,NA,NA,NA,NA,NA,NA,true
C56evTXs,3headtgn3s5yqh3y5nncdnm28bcvrm,37xitheis0m4esvs58x9cfu4awxcr1,C56evTXs,2020-0188,2020-06-04,13:32:23,13:52:12,NA,incomplete,2,color,0,1,right,Purple_Plus_Stripes_3.jpg,Blue_Circle_Stripes_4.jpg,Purple_Triangle_Chess_1.jpg,right,557.8350001014769,true,NA,NA,NA,NA,NA,NA,NA,NA,true
C56evTXs,3headtgn3s5yqh3y5nncdnm28bcvrm,37xitheis0m4esvs58x9cfu4awxcr1,C56evTXs,2020-0188,2020-06-04,13:32:23,13:52:12,NA,incomplete,3,color,0,1,right,Purple_Star_Stripes_3.jpg,Green_Plus_Stripes_4.jpg,Purple_Circle_Chess_1.jpg,right,570.7400003448129,true,NA,NA,NA,NA,NA,NA,NA,NA,true
C56evTXs,3headtgn3s5yqh3y5nncdnm28bcvrm,37xitheis0m4esvs58x9cfu4awxcr1,C56evTXs,2020-0188,2020-06-04,13:32:23,13:52:12,NA,incomplete,4,color,0,1,right,Green_Star_Chess_2.jpg,Red_Circle_Chess_1.jpg,Green_Triangle_Stripes_3.jpg,right,541.4500003680587,true,NA,NA,NA,NA,NA,NA,NA,NA,true
C56evTXs,3headtgn3s5yqh3y5nncdnm28bcvrm,37xitheis0m4esvs58x9cfu4awxcr1,C56evTXs,2020-0188,2020-06-04,13:32:23,13:52:12,NA,incomplete,5,color,0,1,right,Purple_Circle_Stripes_3.jpg,Green_Star_Stripes_4.jpg,Purple_Triangle_Dots_2.jpg,right,684.5750003121793,true,NA,NA,NA,NA,NA,NA,NA,NA,true
C56evTXs,3headtgn3s5yqh3y5nncdnm28bcvrm,37xitheis0m4esvs58x9cfu4awxcr1,C56evTXs,2020-0188,2020-06-04,13:32:23,13:52:12,NA,incomplete,6,color,0,1,right,Red_Plus_Stripes_1.jpg,Green_Triangle_Stripes_2.jpg,Red_Circle_Chess_4.jpg,right,647.2700000740588,true,NA,NA,NA,NA,NA,NA,NA,NA,true
C56evTXs,3headtgn3s5yqh3y5nncdnm28bcvrm,37xitheis0m4esvs58x9cfu4awxcr1,C56evTXs,2020-0188,2020-06-04,13:32:23,13:52:12,NA,incomplete,7,color,0,1,left,Blue_Plus_Chess_2.jpg,Blue_Star_Stripes_3.jpg,Red_Triangle_Chess_4.jpg,left,594.6100000292063,true,NA,NA,NA,NA,NA,NA,NA,NA,true
C56evTXs,3headtgn3s5yqh3y5nncdnm28bcvrm,37xitheis0m4esvs58x9cfu4awxcr1,C56evTXs,2020-0188,2020-06-04,13:32:23,13:52:12,NA,incomplete,8,color,0,1,left,Green_Plus_Grid_4.jpg,Green_Circle_Dots_1.jpg,Blue_Triangle_Grid_3.jpg,left,640.3399999253452,true,NA,NA,NA,NA,NA,NA,NA,NA,true
C56evTXs,3headtgn3s5yqh3y5nncdnm28bcvrm,37xitheis0m4esvs58x9cfu4awxcr1,C56evTXs,2020-0188,2020-06-04,13:32:23,13:52:12,NA,incomplete,9,color,0,1,left,Green_Triangle_Stripes_3.jpg,Green_Circle_Dots_2.jpg,Red_Plus_Stripes_1.jpg,left,791.3850001059473,true,NA,NA,NA,NA,NA,NA,NA,NA,true
C56evTXs,3headtgn3s5yqh3y5nncdnm28bcvrm,37xitheis0m4esvs58x9cfu4awxcr1,C56evTXs,2020-0188,2020-06-04,13:32:23,13:52:12,NA,incomplete,10,color,0,1,right,Green_Plus_Chess_4.jpg,Purple_Star_Chess_2.jpg,Green_Circle_Stripes_3.jpg,right,517.8149999119341,true,NA,NA,NA,NA,NA,NA,NA,NA,true
C56evTXs,3headtgn3s5yqh3y5nncdnm28bcvrm,37xitheis0m4esvs58x9cfu4awxcr1,C56evTXs,2020-0188,2020-06-04,13:32:23,13:52:12,NA,incomplete,11,color,0,1,right,Blue_Triangle_Chess_2.jpg,Green_Circle_Chess_3.jpg,Blue_Star_Grid_4.jpg,right,531.6149997524917,true,NA,NA,NA,NA,NA,NA,NA,NA,true
C56evTXs,3headtgn3s5yqh3y5nncdnm28bcvrm,37xitheis0m4esvs58x9cfu4awxcr1,C56evTXs,2020-0188,2020-06-04,13:32:23,13:52:12,NA,incomplete,12,color,0,1,right,Blue_Triangle_Stripes_2.jpg,Purple_Circle_Stripes_4.jpg,Blue_Star_Chess_1.jpg,right,758.400000166148,true,NA,NA,NA,NA,NA,NA,NA,NA,true
C56evTXs,3headtgn3s5yqh3y5nncdnm28bcvrm,37xitheis0m4esvs58x9cfu4awxcr1,C56evTXs,2020-0188,2020-06-04,13:32:23,13:52:12,NA,incomplete,13,color,0,1,left,Blue_Star_Dots_2.jpg,Blue_Triangle_Stripes_4.jpg,Red_Circle_Dots_3.jpg,left,626.6800002194941,true,NA,NA,NA,NA,NA,NA,NA,NA,true
C56evTXs,3headtgn3s5yqh3y5nncdnm28bcvrm,37xitheis0m4esvs58x9cfu4awxcr1,C56evTXs,2020-0188,2020-06-04,13:32:23,13:52:12,NA,incomplete,14,color,0,0,left,Blue_Plus_Stripes_1.jpg,Blue_Triangle_Grid_4.jpg,Green_Star_Stripes_3.jpg,left,713.0350000225008,true,NA,NA,NA,NA,NA,NA,NA,NA,true
C56evTXs,3headtgn3s5yqh3y5nncdnm28bcvrm,37xitheis0m4esvs58x9cfu4awxcr1,C56evTXs,2020-0188,2020-06-04,13:32:23,13:52:12,NA,incomplete,15,color,0,0,right,Green_Triangle_Stripes_2.jpg,Blue_Circle_Stripes_1.jpg,Green_Star_Dots_3.jpg,right,826.4750000089407,true,NA,NA,NA,NA,NA,NA,NA,NA,true
C56evTXs,3headtgn3s5yqh3y5nncdnm28bcvrm,37xitheis0m4esvs58x9cfu4awxcr1,C56evTXs,2020-0188,2020-06-04,13:32:23,13:52:12,NA,incomplete,16,color,0,1,right,Blue_Star_Grid_1.jpg,Green_Circle_Grid_4.jpg,Blue_Plus_Chess_3.jpg,right,614.9699999950826,true,NA,NA,NA,NA,NA,NA,NA,NA,true
C56evTXs,3headtgn3s5yqh3y5nncdnm28bcvrm,37xitheis0m4esvs58x9cfu4awxcr1,C56evTXs,2020-0188,2020-06-04,13:32:23,13:52:12,NA,incomplete,17,color,0,0,right,Red_Triangle_Grid_3.jpg,Green_Circle_Grid_1.jpg,Red_Star_Stripes_4.jpg,right,553.5049997270107,true,NA,NA,NA,NA,NA,NA,NA,NA,true
C56evTXs,3headtgn3s5yqh3y5nncdnm28bcvrm,37xitheis0m4esvs58x9cfu4awxcr1,C56evTXs,2020-0188,2020-06-04,13:32:23,13:52:12,NA,incomplete,18,color,0,1,left,Blue_Star_Chess_1.jpg,Blue_Plus_Grid_4.jpg,Green_Triangle_Chess_3.jpg,left,603.4949999302626,true,NA,NA,NA,NA,NA,NA,NA,NA,true
C56evTXs,3headtgn3s5yqh3y5nncdnm28bcvrm,37xitheis0m4esvs58x9cfu4awxcr1,C56evTXs,2020-0188,2020-06-04,13:32:23,13:52:12,NA,incomplete,19,color,0,1,right,Green_Circle_Chess_1.jpg,Blue_Star_Chess_2.jpg,Green_Triangle_Stripes_4.jpg,right,470.62999987974763,true,NA,NA,NA,NA,NA,NA,NA,NA,true
C56evTXs,3headtgn3s5yqh3y5nncdnm28bcvrm,37xitheis0m4esvs58x9cfu4awxcr1,C56evTXs,2020-0188,2020-06-04,13:32:23,13:52:12,NA,incomplete,20,filling,1,1,left,Blue_Star_Dots_1.jpg,Green_Triangle_Dots_2.jpg,Blue_Circle_Grid_4.jpg,left,1117.219999898225,true,NA,NA,NA,NA,NA,NA,NA,NA,true
C56evTXs,3headtgn3s5yqh3y5nncdnm28bcvrm,37xitheis0m4esvs58x9cfu4awxcr1,C56evTXs,2020-0188,2020-06-04,13:32:23,13:52:12,NA,incomplete,21,filling,1,0,left,Green_Plus_Chess_4.jpg,Purple_Star_Chess_1.jpg,Green_Circle_Stripes_2.jpg,left,1055.8400000445545,true,NA,NA,NA,NA,NA,NA,NA,NA,true
C56evTXs,3headtgn3s5yqh3y5nncdnm28bcvrm,37xitheis0m4esvs58x9cfu4awxcr1,C56evTXs,2020-0188,2020-06-04,13:32:23,13:52:12,NA,incomplete,22,filling,1,1,left,Green_Star_Stripes_3.jpg,Red_Triangle_Stripes_1.jpg,Green_Plus_Dots_2.jpg,left,857.8849998302758,true,NA,NA,NA,NA,NA,NA,NA,NA,true
C56evTXs,3headtgn3s5yqh3y5nncdnm28bcvrm,37xitheis0m4esvs58x9cfu4awxcr1,C56evTXs,2020-0188,2020-06-04,13:32:23,13:52:12,NA,incomplete,23,filling,1,1,left,Red_Star_Stripes_1.jpg,Green_Plus_Stripes_3.jpg,Red_Circle_Dots_2.jpg,left,956.109999679029,true,NA,NA,NA,NA,NA,NA,NA,NA,true
C56evTXs,3headtgn3s5yqh3y5nncdnm28bcvrm,37xitheis0m4esvs58x9cfu4awxcr1,C56evTXs,2020-0188,2020-06-04,13:32:23,13:52:12,NA,incomplete,24,filling,1,1,left,Purple_Star_Dots_2.jpg,Blue_Plus_Dots_4.jpg,Purple_Triangle_Stripes_3.jpg,left,838.6049997061491,true,NA,NA,NA,NA,NA,NA,NA,NA,true
C56evTXs,3headtgn3s5yqh3y5nncdnm28bcvrm,37xitheis0m4esvs58x9cfu4awxcr1,C56evTXs,2020-0188,2020-06-04,13:32:23,13:52:12,NA,incomplete,25,filling,1,1,left,Blue_Plus_Chess_3.jpg,Red_Triangle_Chess_1.jpg,Blue_Circle_Stripes_4.jpg,left,768.2750001549721,true,NA,NA,NA,NA,NA,NA,NA,NA,true
C56evTXs,3headtgn3s5yqh3y5nncdnm28bcvrm,37xitheis0m4esvs58x9cfu4awxcr1,C56evTXs,2020-0188,2020-06-04,13:32:23,13:52:12,NA,incomplete,26,filling,1,0,right,Purple_Triangle_Chess_4.jpg,Purple_Plus_Grid_2.jpg,Red_Star_Chess_3.jpg,right,814.4449996761978,true,NA,NA,NA,NA,NA,NA,NA,NA,true
C56evTXs,3headtgn3s5yqh3y5nncdnm28bcvrm,37xitheis0m4esvs58x9cfu4awxcr1,C56evTXs,2020-0188,2020-06-04,13:32:23,13:52:12,NA,incomplete,27,filling,1,0,right,Red_Circle_Stripes_2.jpg,Red_Triangle_Chess_1.jpg,Blue_Plus_Stripes_3.jpg,right,907.7499997802079,true,NA,NA,NA,NA,NA,NA,NA,NA,true
C56evTXs,3headtgn3s5yqh3y5nncdnm28bcvrm,37xitheis0m4esvs58x9cfu4awxcr1,C56evTXs,2020-0188,2020-06-04,13:32:23,13:52:12,NA,incomplete,28,filling,1,1,right,Purple_Circle_Chess_3.jpg,Purple_Triangle_Stripes_2.jpg,Red_Star_Chess_4.jpg,right,1443.5749999247491,true,NA,NA,NA,NA,NA,NA,NA,NA,true
C56evTXs,3headtgn3s5yqh3y5nncdnm28bcvrm,37xitheis0m4esvs58x9cfu4awxcr1,C56evTXs,2020-0188,2020-06-04,13:32:23,13:52:12,NA,incomplete,29,filling,1,1,left,Blue_Circle_Stripes_4.jpg,Green_Star_Stripes_3.jpg,Blue_Triangle_Dots_1.jpg,left,1102.0050002261996,true,NA,NA,NA,NA,NA,NA,NA,NA,true
C56evTXs,3headtgn3s5yqh3y5nncdnm28bcvrm,37xitheis0m4esvs58x9cfu4awxcr1,C56evTXs,2020-0188,2020-06-04,13:32:23,13:52:12,NA,incomplete,30,filling,1,1,left,Green_Star_Stripes_1.jpg,Blue_Circle_Stripes_4.jpg,Green_Plus_Grid_3.jpg,left,901.0149999521673,true,NA,NA,NA,NA,NA,NA,NA,NA,true
C56evTXs,3headtgn3s5yqh3y5nncdnm28bcvrm,37xitheis0m4esvs58x9cfu4awxcr1,C56evTXs,2020-0188,2020-06-04,13:32:23,13:52:12,NA,incomplete,31,filling,1,1,right,Red_Triangle_Stripes_2.jpg,Red_Circle_Dots_3.jpg,Purple_Plus_Stripes_1.jpg,right,889.3349999561906,true,NA,NA,NA,NA,NA,NA,NA,NA,true
C56evTXs,3headtgn3s5yqh3y5nncdnm28bcvrm,37xitheis0m4esvs58x9cfu4awxcr1,C56evTXs,2020-0188,2020-06-04,13:32:23,13:52:12,NA,incomplete,32,filling,1,0,right,Red_Star_Dots_2.jpg,Red_Triangle_Grid_3.jpg,Blue_Circle_Dots_4.jpg,right,830.8450002223253,true,NA,NA,NA,NA,NA,NA,NA,NA,true
C56evTXs,3headtgn3s5yqh3y5nncdnm28bcvrm,37xitheis0m4esvs58x9cfu4awxcr1,C56evTXs,2020-0188,2020-06-04,13:32:23,13:52:12,NA,incomplete,33,filling,1,1,left,Red_Plus_Dots_1.jpg,Purple_Star_Dots_2.jpg,Red_Triangle_Grid_4.jpg,left,708.080000244081,true,NA,NA,NA,NA,NA,NA,NA,NA,true
C56evTXs,3headtgn3s5yqh3y5nncdnm28bcvrm,37xitheis0m4esvs58x9cfu4awxcr1,C56evTXs,2020-0188,2020-06-04,13:32:23,13:52:12,NA,incomplete,34,filling,1,1,left,Blue_Star_Dots_3.jpg,Purple_Plus_Dots_2.jpg,Blue_Circle_Stripes_1.jpg,left,620.6299997866154,true,NA,NA,NA,NA,NA,NA,NA,NA,true
C56evTXs,3headtgn3s5yqh3y5nncdnm28bcvrm,37xitheis0m4esvs58x9cfu4awxcr1,C56evTXs,2020-0188,2020-06-04,13:32:23,13:52:12,NA,incomplete,35,filling,1,1,left,Purple_Plus_Stripes_1.jpg,Blue_Triangle_Stripes_2.jpg,Purple_Star_Dots_4.jpg,left,593.8599999062717,true,NA,NA,NA,NA,NA,NA,NA,NA,true
C56evTXs,3headtgn3s5yqh3y5nncdnm28bcvrm,37xitheis0m4esvs58x9cfu4awxcr1,C56evTXs,2020-0188,2020-06-04,13:32:23,13:52:12,NA,incomplete,36,filling,1,1,left,Blue_Plus_Stripes_1.jpg,Green_Star_Stripes_2.jpg,Blue_Triangle_Grid_3.jpg,left,548.7049999646842,true,NA,NA,NA,NA,NA,NA,NA,NA,true
C56evTXs,3headtgn3s5yqh3y5nncdnm28bcvrm,37xitheis0m4esvs58x9cfu4awxcr1,C56evTXs,2020-0188,2020-06-04,13:32:23,13:52:12,NA,incomplete,37,filling,1,1,left,Red_Circle_Grid_3.jpg,Blue_Star_Grid_1.jpg,Red_Plus_Chess_2.jpg,left,645.3049997799098,true,NA,NA,NA,NA,NA,NA,NA,NA,true
C56evTXs,3headtgn3s5yqh3y5nncdnm28bcvrm,37xitheis0m4esvs58x9cfu4awxcr1,C56evTXs,2020-0188,2020-06-04,13:32:23,13:52:12,NA,incomplete,38,filling,1,1,left,Purple_Triangle_Grid_2.jpg,Red_Plus_Grid_4.jpg,Purple_Star_Dots_1.jpg,left,737.2800000011921,true,NA,NA,NA,NA,NA,NA,NA,NA,true
C56evTXs,3headtgn3s5yqh3y5nncdnm28bcvrm,37xitheis0m4esvs58x9cfu4awxcr1,C56evTXs,2020-0188,2020-06-04,13:32:23,13:52:12,NA,incomplete,39,filling,1,0,right,Purple_Star_Dots_1.jpg,Purple_Plus_Stripes_2.jpg,Red_Triangle_Dots_4.jpg,right,599.0899996832013,true,NA,NA,NA,NA,NA,NA,NA,NA,true
C56evTXs,3headtgn3s5yqh3y5nncdnm28bcvrm,37xitheis0m4esvs58x9cfu4awxcr1,C56evTXs,2020-0188,2020-06-04,13:32:23,13:52:12,NA,incomplete,0,color,0,0,left,Blue_Circle_Chess_4.jpg,Blue_Triangle_Dots_2.jpg,Purple_Plus_Chess_1.jpg,left,1100.4099999554455,true,high,NA,NA,NA,NA,NA,NA,NA,false
C56evTXs,3headtgn3s5yqh3y5nncdnm28bcvrm,37xitheis0m4esvs58x9cfu4awxcr1,C56evTXs,2020-0188,2020-06-04,13:32:23,13:52:12,NA,incomplete,1,color,0,1,left,Green_Plus_Grid_4.jpg,Green_Circle_Stripes_2.jpg,Blue_Triangle_Grid_3.jpg,left,716.5099997073412,true,high,NA,NA,NA,NA,NA,NA,NA,false
C56evTXs,3headtgn3s5yqh3y5nncdnm28bcvrm,37xitheis0m4esvs58x9cfu4awxcr1,C56evTXs,2020-0188,2020-06-04,13:32:23,13:52:12,NA,incomplete,2,color,0,1,left,Green_Circle_Dots_2.jpg,Green_Triangle_Stripes_1.jpg,Blue_Star_Dots_4.jpg,left,602.914999704808,true,high,NA,NA,NA,NA,NA,NA,NA,false
C56evTXs,3headtgn3s5yqh3y5nncdnm28bcvrm,37xitheis0m4esvs58x9cfu4awxcr1,C56evTXs,2020-0188,2020-06-04,13:32:23,13:52:12,NA,incomplete,3,color,0,1,left,Red_Star_Stripes_2.jpg,Red_Circle_Grid_3.jpg,Purple_Plus_Stripes_1.jpg,left,473.4999998472631,true,high,NA,NA,NA,NA,NA,NA,NA,false
C56evTXs,3headtgn3s5yqh3y5nncdnm28bcvrm,37xitheis0m4esvs58x9cfu4awxcr1,C56evTXs,2020-0188,2020-06-04,13:32:23,13:52:12,NA,incomplete,4,color,0,1,left,Red_Plus_Dots_2.jpg,Red_Circle_Chess_1.jpg,Green_Triangle_Dots_3.jpg,left,358.72500017285347,true,high,NA,NA,NA,NA,NA,NA,NA,false
C56evTXs,3headtgn3s5yqh3y5nncdnm28bcvrm,37xitheis0m4esvs58x9cfu4awxcr1,C56evTXs,2020-0188,2020-06-04,13:32:23,13:52:12,NA,incomplete,5,color,0,1,right,Blue_Plus_Dots_1.jpg,Red_Circle_Dots_3.jpg,Blue_Triangle_Grid_2.jpg,left,364.0649998560548,false,high,NA,NA,NA,NA,NA,NA,NA,false
C56evTXs,3headtgn3s5yqh3y5nncdnm28bcvrm,37xitheis0m4esvs58x9cfu4awxcr1,C56evTXs,2020-0188,2020-06-04,13:32:23,13:52:12,NA,incomplete,6,color,0,1,left,Green_Star_Chess_3.jpg,Green_Plus_Grid_1.jpg,Red_Triangle_Chess_4.jpg,left,471.97500010952353,true,high,NA,NA,NA,NA,NA,NA,NA,false
C56evTXs,3headtgn3s5yqh3y5nncdnm28bcvrm,37xitheis0m4esvs58x9cfu4awxcr1,C56evTXs,2020-0188,2020-06-04,13:32:23,13:52:12,NA,incomplete,7,color,0,1,left,Blue_Circle_Chess_2.jpg,Blue_Triangle_Stripes_1.jpg,Purple_Plus_Chess_4.jpg,left,473.1649998575449,true,high,NA,NA,NA,NA,NA,NA,NA,false
C56evTXs,3headtgn3s5yqh3y5nncdnm28bcvrm,37xitheis0m4esvs58x9cfu4awxcr1,C56evTXs,2020-0188,2020-06-04,13:32:23,13:52:12,NA,incomplete,8,color,0,1,left,Purple_Triangle_Stripes_3.jpg,Purple_Plus_Chess_2.jpg,Green_Circle_Stripes_4.jpg,left,531.5849999897182,true,high,NA,NA,NA,NA,NA,NA,NA,false
C56evTXs,3headtgn3s5yqh3y5nncdnm28bcvrm,37xitheis0m4esvs58x9cfu4awxcr1,C56evTXs,2020-0188,2020-06-04,13:32:23,13:52:12,NA,incomplete,9,color,0,1,right,Purple_Circle_Grid_1.jpg,Red_Star_Grid_2.jpg,Purple_Plus_Stripes_3.jpg,right,518.625000026077,true,high,NA,NA,NA,NA,NA,NA,NA,false
C56evTXs,3headtgn3s5yqh3y5nncdnm28bcvrm,37xitheis0m4esvs58x9cfu4awxcr1,C56evTXs,2020-0188,2020-06-04,13:32:23,13:52:12,NA,incomplete,10,filling,1,1,left,Purple_Triangle_Dots_2.jpg,Blue_Star_Dots_1.jpg,Purple_Plus_Grid_4.jpg,right,398.7650000490248,false,high,NA,NA,NA,NA,NA,NA,NA,false
C56evTXs,3headtgn3s5yqh3y5nncdnm28bcvrm,37xitheis0m4esvs58x9cfu4awxcr1,C56evTXs,2020-0188,2020-06-04,13:32:23,13:52:12,NA,incomplete,11,filling,1,1,right,Red_Triangle_Dots_3.jpg,Red_Plus_Chess_1.jpg,Green_Circle_Dots_4.jpg,left,463.73500023037195,false,high,NA,NA,NA,NA,NA,NA,NA,false
C56evTXs,3headtgn3s5yqh3y5nncdnm28bcvrm,37xitheis0m4esvs58x9cfu4awxcr1,C56evTXs,2020-0188,2020-06-04,13:32:23,13:52:12,NA,incomplete,12,filling,1,1,right,Green_Star_Chess_1.jpg,Green_Circle_Dots_2.jpg,Purple_Triangle_Chess_3.jpg,left,462.6899999566376,false,high,NA,NA,NA,NA,NA,NA,NA,false
C56evTXs,3headtgn3s5yqh3y5nncdnm28bcvrm,37xitheis0m4esvs58x9cfu4awxcr1,C56evTXs,2020-0188,2020-06-04,13:32:23,13:52:12,NA,incomplete,13,filling,1,1,left,Blue_Triangle_Dots_2.jpg,Red_Circle_Dots_1.jpg,Blue_Plus_Chess_4.jpg,left,543.7750001437962,true,high,NA,NA,NA,NA,NA,NA,NA,false
C56evTXs,3headtgn3s5yqh3y5nncdnm28bcvrm,37xitheis0m4esvs58x9cfu4awxcr1,C56evTXs,2020-0188,2020-06-04,13:32:23,13:52:12,NA,incomplete,14,filling,1,1,right,Red_Plus_Grid_3.jpg,Red_Star_Dots_1.jpg,Purple_Circle_Grid_2.jpg,right,818.5649998486042,true,high,NA,NA,NA,NA,NA,NA,NA,false
C56evTXs,3headtgn3s5yqh3y5nncdnm28bcvrm,37xitheis0m4esvs58x9cfu4awxcr1,C56evTXs,2020-0188,2020-06-04,13:32:23,13:52:12,NA,incomplete,15,filling,1,1,left,Blue_Triangle_Stripes_2.jpg,Green_Star_Stripes_3.jpg,Blue_Plus_Grid_1.jpg,left,598.2149997726083,true,high,NA,NA,NA,NA,NA,NA,NA,false
C56evTXs,3headtgn3s5yqh3y5nncdnm28bcvrm,37xitheis0m4esvs58x9cfu4awxcr1,C56evTXs,2020-0188,2020-06-04,13:32:23,13:52:12,NA,incomplete,16,filling,1,1,left,Blue_Star_Stripes_3.jpg,Red_Circle_Stripes_1.jpg,Blue_Plus_Chess_2.jpg,left,427.2199999541044,true,high,NA,NA,NA,NA,NA,NA,NA,false
C56evTXs,3headtgn3s5yqh3y5nncdnm28bcvrm,37xitheis0m4esvs58x9cfu4awxcr1,C56evTXs,2020-0188,2020-06-04,13:32:23,13:52:12,NA,incomplete,17,filling,1,1,left,Purple_Circle_Dots_3.jpg,Blue_Star_Dots_2.jpg,Purple_Triangle_Grid_4.jpg,left,545.1299999840558,true,high,NA,NA,NA,NA,NA,NA,NA,false
C56evTXs,3headtgn3s5yqh3y5nncdnm28bcvrm,37xitheis0m4esvs58x9cfu4awxcr1,C56evTXs,2020-0188,2020-06-04,13:32:23,13:52:12,NA,incomplete,18,filling,1,1,right,Purple_Triangle_Stripes_3.jpg,Purple_Star_Chess_2.jpg,Blue_Circle_Stripes_4.jpg,right,633.0099999904633,true,high,NA,NA,NA,NA,NA,NA,NA,false
C56evTXs,3headtgn3s5yqh3y5nncdnm28bcvrm,37xitheis0m4esvs58x9cfu4awxcr1,C56evTXs,2020-0188,2020-06-04,13:32:23,13:52:12,NA,incomplete,19,filling,1,1,left,Blue_Plus_Grid_3.jpg,Green_Circle_Grid_1.jpg,Blue_Star_Chess_4.jpg,left,459.5200000330806,true,high,NA,NA,NA,NA,NA,NA,NA,false
C56evTXs,3headtgn3s5yqh3y5nncdnm28bcvrm,37xitheis0m4esvs58x9cfu4awxcr1,C56evTXs,2020-0188,2020-06-04,13:32:23,13:52:12,NA,incomplete,20,color,0,0,right,Red_Triangle_Stripes_2.jpg,Green_Star_Stripes_4.jpg,Red_Circle_Grid_3.jpg,left,480.4950002580881,false,high,NA,NA,NA,NA,NA,NA,NA,false
C56evTXs,3headtgn3s5yqh3y5nncdnm28bcvrm,37xitheis0m4esvs58x9cfu4awxcr1,C56evTXs,2020-0188,2020-06-04,13:32:23,13:52:12,NA,incomplete,21,color,0,0,right,Green_Triangle_Dots_3.jpg,Purple_Circle_Dots_2.jpg,Green_Star_Stripes_1.jpg,left,420.5649998039007,false,high,NA,NA,NA,NA,NA,NA,NA,false
C56evTXs,3headtgn3s5yqh3y5nncdnm28bcvrm,37xitheis0m4esvs58x9cfu4awxcr1,C56evTXs,2020-0188,2020-06-04,13:32:23,13:52:12,NA,incomplete,22,color,0,1,left,Blue_Plus_Chess_4.jpg,Blue_Circle_Stripes_3.jpg,Purple_Triangle_Chess_2.jpg,right,396.25500002875924,false,high,NA,NA,NA,NA,NA,NA,NA,false
C56evTXs,3headtgn3s5yqh3y5nncdnm28bcvrm,37xitheis0m4esvs58x9cfu4awxcr1,C56evTXs,2020-0188,2020-06-04,13:32:23,13:52:12,NA,incomplete,23,color,0,1,left,Blue_Circle_Chess_1.jpg,Blue_Plus_Dots_4.jpg,Purple_Triangle_Chess_3.jpg,right,672.9500000365078,false,high,NA,NA,NA,NA,NA,NA,NA,false
C56evTXs,3headtgn3s5yqh3y5nncdnm28bcvrm,37xitheis0m4esvs58x9cfu4awxcr1,C56evTXs,2020-0188,2020-06-04,13:32:23,13:52:12,NA,incomplete,24,color,0,1,left,Green_Plus_Stripes_1.jpg,Green_Triangle_Chess_2.jpg,Red_Circle_Stripes_4.jpg,left,545.215000398457,true,high,NA,NA,NA,NA,NA,NA,NA,false
C56evTXs,3headtgn3s5yqh3y5nncdnm28bcvrm,37xitheis0m4esvs58x9cfu4awxcr1,C56evTXs,2020-0188,2020-06-04,13:32:23,13:52:12,NA,incomplete,25,color,0,1,left,Green_Triangle_Stripes_2.jpg,Green_Circle_Grid_4.jpg,Purple_Plus_Stripes_1.jpg,left,412.61500027030706,true,high,NA,NA,NA,NA,NA,NA,NA,false
C56evTXs,3headtgn3s5yqh3y5nncdnm28bcvrm,37xitheis0m4esvs58x9cfu4awxcr1,C56evTXs,2020-0188,2020-06-04,13:32:23,13:52:12,NA,incomplete,26,color,0,0,right,Purple_Star_Grid_1.jpg,Blue_Circle_Grid_4.jpg,Purple_Plus_Stripes_2.jpg,right,509.3399998731911,true,high,NA,NA,NA,NA,NA,NA,NA,false
C56evTXs,3headtgn3s5yqh3y5nncdnm28bcvrm,37xitheis0m4esvs58x9cfu4awxcr1,C56evTXs,2020-0188,2020-06-04,13:32:23,13:52:12,NA,incomplete,27,color,0,1,left,Green_Plus_Stripes_2.jpg,Green_Circle_Grid_1.jpg,Red_Triangle_Stripes_3.jpg,left,423.53500006720424,true,high,NA,NA,NA,NA,NA,NA,NA,false
C56evTXs,3headtgn3s5yqh3y5nncdnm28bcvrm,37xitheis0m4esvs58x9cfu4awxcr1,C56evTXs,2020-0188,2020-06-04,13:32:23,13:52:12,NA,incomplete,28,color,0,0,left,Purple_Plus_Dots_1.jpg,Purple_Triangle_Grid_2.jpg,Green_Star_Dots_3.jpg,right,386.6249998100102,false,high,NA,NA,NA,NA,NA,NA,NA,false
C56evTXs,3headtgn3s5yqh3y5nncdnm28bcvrm,37xitheis0m4esvs58x9cfu4awxcr1,C56evTXs,2020-0188,2020-06-04,13:32:23,13:52:12,NA,incomplete,29,color,0,1,right,Green_Circle_Grid_4.jpg,Purple_Plus_Grid_3.jpg,Green_Triangle_Stripes_1.jpg,right,582.2499999776483,true,high,NA,NA,NA,NA,NA,NA,NA,false
C56evTXs,3headtgn3s5yqh3y5nncdnm28bcvrm,37xitheis0m4esvs58x9cfu4awxcr1,C56evTXs,2020-0188,2020-06-04,13:32:23,13:52:12,NA,incomplete,30,filling,1,1,right,Purple_Star_Dots_3.jpg,Purple_Plus_Stripes_2.jpg,Green_Triangle_Dots_4.jpg,left,591.4599997922778,false,high,NA,NA,NA,NA,NA,NA,NA,false
C56evTXs,3headtgn3s5yqh3y5nncdnm28bcvrm,37xitheis0m4esvs58x9cfu4awxcr1,C56evTXs,2020-0188,2020-06-04,13:32:23,13:52:12,NA,incomplete,31,filling,1,1,left,Purple_Circle_Chess_2.jpg,Blue_Plus_Chess_4.jpg,Purple_Triangle_Stripes_3.jpg,right,458.8500000536442,false,high,NA,NA,NA,NA,NA,NA,NA,false
C56evTXs,3headtgn3s5yqh3y5nncdnm28bcvrm,37xitheis0m4esvs58x9cfu4awxcr1,C56evTXs,2020-0188,2020-06-04,13:32:23,13:52:12,NA,incomplete,32,filling,1,1,right,Red_Circle_Grid_2.jpg,Red_Plus_Chess_1.jpg,Purple_Triangle_Grid_3.jpg,left,812.66999989748,false,high,NA,NA,NA,NA,NA,NA,NA,false
C56evTXs,3headtgn3s5yqh3y5nncdnm28bcvrm,37xitheis0m4esvs58x9cfu4awxcr1,C56evTXs,2020-0188,2020-06-04,13:32:23,13:52:12,NA,incomplete,33,filling,1,1,left,Purple_Triangle_Chess_3.jpg,Blue_Plus_Chess_4.jpg,Purple_Circle_Grid_2.jpg,left,628.5049999132752,true,high,NA,NA,NA,NA,NA,NA,NA,false
C56evTXs,3headtgn3s5yqh3y5nncdnm28bcvrm,37xitheis0m4esvs58x9cfu4awxcr1,C56evTXs,2020-0188,2020-06-04,13:32:23,13:52:12,NA,incomplete,34,filling,1,0,left,Purple_Star_Chess_4.jpg,Green_Circle_Chess_1.jpg,Purple_Triangle_Stripes_3.jpg,left,530.9150000102818,true,high,NA,NA,NA,NA,NA,NA,NA,false
C56evTXs,3headtgn3s5yqh3y5nncdnm28bcvrm,37xitheis0m4esvs58x9cfu4awxcr1,C56evTXs,2020-0188,2020-06-04,13:32:23,13:52:12,NA,incomplete,35,filling,1,1,left,Blue_Plus_Chess_4.jpg,Red_Star_Chess_3.jpg,Blue_Triangle_Dots_2.jpg,right,638.9449997805059,false,high,NA,NA,NA,NA,NA,NA,NA,false
C56evTXs,3headtgn3s5yqh3y5nncdnm28bcvrm,37xitheis0m4esvs58x9cfu4awxcr1,C56evTXs,2020-0188,2020-06-04,13:32:23,13:52:12,NA,incomplete,36,filling,1,1,right,Blue_Triangle_Dots_4.jpg,Blue_Star_Chess_2.jpg,Purple_Plus_Dots_1.jpg,left,660.840000025928,false,high,NA,NA,NA,NA,NA,NA,NA,false
C56evTXs,3headtgn3s5yqh3y5nncdnm28bcvrm,37xitheis0m4esvs58x9cfu4awxcr1,C56evTXs,2020-0188,2020-06-04,13:32:23,13:52:12,NA,incomplete,37,filling,1,1,left,Red_Star_Chess_4.jpg,Purple_Circle_Chess_1.jpg,Red_Triangle_Stripes_2.jpg,left,492.82500008121133,true,high,NA,NA,NA,NA,NA,NA,NA,false
C56evTXs,3headtgn3s5yqh3y5nncdnm28bcvrm,37xitheis0m4esvs58x9cfu4awxcr1,C56evTXs,2020-0188,2020-06-04,13:32:23,13:52:12,NA,incomplete,38,filling,1,0,right,Red_Circle_Stripes_3.jpg,Red_Star_Dots_1.jpg,Purple_Triangle_Stripes_2.jpg,left,696.8999998643994,false,high,NA,NA,NA,NA,NA,NA,NA,false
C56evTXs,3headtgn3s5yqh3y5nncdnm28bcvrm,37xitheis0m4esvs58x9cfu4awxcr1,C56evTXs,2020-0188,2020-06-04,13:32:23,13:52:12,NA,incomplete,39,filling,1,0,right,Green_Triangle_Grid_4.jpg,Green_Plus_Chess_1.jpg,Blue_Star_Grid_2.jpg,left,535.4349999688566,false,high,NA,NA,NA,NA,NA,NA,NA,false
C56evTXs,3headtgn3s5yqh3y5nncdnm28bcvrm,37xitheis0m4esvs58x9cfu4awxcr1,C56evTXs,2020-0188,2020-06-04,13:32:23,13:52:12,NA,incomplete,40,color,0,1,right,Red_Triangle_Grid_2.jpg,Green_Plus_Grid_1.jpg,Red_Star_Chess_4.jpg,right,677.254999987781,true,high,NA,NA,NA,NA,NA,NA,NA,false
C56evTXs,3headtgn3s5yqh3y5nncdnm28bcvrm,37xitheis0m4esvs58x9cfu4awxcr1,C56evTXs,2020-0188,2020-06-04,13:32:23,13:52:12,NA,incomplete,41,color,0,1,left,Red_Circle_Chess_3.jpg,Red_Plus_Dots_4.jpg,Purple_Triangle_Chess_1.jpg,left,404.0100001730025,true,high,NA,NA,NA,NA,NA,NA,NA,false
C56evTXs,3headtgn3s5yqh3y5nncdnm28bcvrm,37xitheis0m4esvs58x9cfu4awxcr1,C56evTXs,2020-0188,2020-06-04,13:32:23,13:52:12,NA,incomplete,42,color,0,1,left,Green_Circle_Grid_2.jpg,Green_Triangle_Stripes_1.jpg,Red_Star_Grid_4.jpg,left,597.8500000201166,true,high,NA,NA,NA,NA,NA,NA,NA,false
C56evTXs,3headtgn3s5yqh3y5nncdnm28bcvrm,37xitheis0m4esvs58x9cfu4awxcr1,C56evTXs,2020-0188,2020-06-04,13:32:23,13:52:12,NA,incomplete,43,color,0,1,right,Green_Star_Stripes_4.jpg,Blue_Circle_Stripes_1.jpg,Green_Plus_Grid_2.jpg,right,410.3550002910197,true,high,NA,NA,NA,NA,NA,NA,NA,false
C56evTXs,3headtgn3s5yqh3y5nncdnm28bcvrm,37xitheis0m4esvs58x9cfu4awxcr1,C56evTXs,2020-0188,2020-06-04,13:32:23,13:52:12,NA,incomplete,44,color,0,1,right,Purple_Star_Grid_2.jpg,Green_Triangle_Grid_1.jpg,Purple_Circle_Stripes_3.jpg,right,507.75500014424324,true,high,NA,NA,NA,NA,NA,NA,NA,false
C56evTXs,3headtgn3s5yqh3y5nncdnm28bcvrm,37xitheis0m4esvs58x9cfu4awxcr1,C56evTXs,2020-0188,2020-06-04,13:32:23,13:52:12,NA,incomplete,45,color,0,1,right,Blue_Triangle_Dots_2.jpg,Green_Star_Dots_1.jpg,Blue_Circle_Chess_3.jpg,right,416.4850004017353,true,high,NA,NA,NA,NA,NA,NA,NA,false
C56evTXs,3headtgn3s5yqh3y5nncdnm28bcvrm,37xitheis0m4esvs58x9cfu4awxcr1,C56evTXs,2020-0188,2020-06-04,13:32:23,13:52:12,NA,incomplete,46,color,0,1,right,Green_Circle_Grid_4.jpg,Purple_Plus_Grid_2.jpg,Green_Star_Dots_1.jpg,right,463.2700001820922,true,high,NA,NA,NA,NA,NA,NA,NA,false
C56evTXs,3headtgn3s5yqh3y5nncdnm28bcvrm,37xitheis0m4esvs58x9cfu4awxcr1,C56evTXs,2020-0188,2020-06-04,13:32:23,13:52:12,NA,incomplete,47,color,0,1,right,Green_Circle_Stripes_4.jpg,Red_Star_Stripes_2.jpg,Green_Plus_Dots_1.jpg,right,409.5550002530217,true,high,NA,NA,NA,NA,NA,NA,NA,false
C56evTXs,3headtgn3s5yqh3y5nncdnm28bcvrm,37xitheis0m4esvs58x9cfu4awxcr1,C56evTXs,2020-0188,2020-06-04,13:32:23,13:52:12,NA,incomplete,48,color,0,1,right,Green_Star_Dots_1.jpg,Purple_Plus_Dots_2.jpg,Green_Triangle_Grid_3.jpg,right,366.2849999964237,true,high,NA,NA,NA,NA,NA,NA,NA,false
C56evTXs,3headtgn3s5yqh3y5nncdnm28bcvrm,37xitheis0m4esvs58x9cfu4awxcr1,C56evTXs,2020-0188,2020-06-04,13:32:23,13:52:12,NA,incomplete,49,color,0,1,left,Green_Circle_Dots_4.jpg,Green_Triangle_Stripes_1.jpg,Red_Plus_Dots_3.jpg,left,398.39500002563,true,high,NA,NA,NA,NA,NA,NA,NA,false
C56evTXs,3headtgn3s5yqh3y5nncdnm28bcvrm,37xitheis0m4esvs58x9cfu4awxcr1,C56evTXs,2020-0188,2020-06-04,13:32:23,13:52:12,NA,incomplete,50,filling,1,0,right,Green_Plus_Stripes_4.jpg,Green_Triangle_Grid_3.jpg,Purple_Star_Stripes_1.jpg,left,384.1200000606477,false,high,NA,NA,NA,NA,NA,NA,NA,false
C56evTXs,3headtgn3s5yqh3y5nncdnm28bcvrm,37xitheis0m4esvs58x9cfu4awxcr1,C56evTXs,2020-0188,2020-06-04,13:32:23,13:52:12,NA,incomplete,51,filling,1,1,left,Red_Star_Grid_1.jpg,Blue_Triangle_Grid_2.jpg,Red_Circle_Dots_3.jpg,right,407.66500029712915,false,high,NA,NA,NA,NA,NA,NA,NA,false
C56evTXs,3headtgn3s5yqh3y5nncdnm28bcvrm,37xitheis0m4esvs58x9cfu4awxcr1,C56evTXs,2020-0188,2020-06-04,13:32:23,13:52:12,NA,incomplete,52,filling,1,1,left,Green_Triangle_Grid_1.jpg,Red_Plus_Grid_4.jpg,Green_Star_Dots_3.jpg,right,651.4599998481572,false,high,NA,NA,NA,NA,NA,NA,NA,false
C56evTXs,3headtgn3s5yqh3y5nncdnm28bcvrm,37xitheis0m4esvs58x9cfu4awxcr1,C56evTXs,2020-0188,2020-06-04,13:32:23,13:52:12,NA,incomplete,53,filling,1,1,left,Blue_Star_Dots_4.jpg,Red_Plus_Dots_3.jpg,Blue_Circle_Grid_2.jpg,right,377.34000012278557,false,high,NA,NA,NA,NA,NA,NA,NA,false
C56evTXs,3headtgn3s5yqh3y5nncdnm28bcvrm,37xitheis0m4esvs58x9cfu4awxcr1,C56evTXs,2020-0188,2020-06-04,13:32:23,13:52:12,NA,incomplete,54,filling,1,1,left,Red_Circle_Stripes_1.jpg,Purple_Triangle_Stripes_4.jpg,Red_Star_Dots_2.jpg,right,406.7900003865361,false,high,NA,NA,NA,NA,NA,NA,NA,false
C56evTXs,3headtgn3s5yqh3y5nncdnm28bcvrm,37xitheis0m4esvs58x9cfu4awxcr1,C56evTXs,2020-0188,2020-06-04,13:32:23,13:52:12,NA,incomplete,55,filling,1,1,right,Purple_Plus_Chess_1.jpg,Purple_Star_Dots_4.jpg,Green_Circle_Chess_3.jpg,right,839.6999998949468,true,high,NA,NA,NA,NA,NA,NA,NA,false
C56evTXs,3headtgn3s5yqh3y5nncdnm28bcvrm,37xitheis0m4esvs58x9cfu4awxcr1,C56evTXs,2020-0188,2020-06-04,13:32:23,13:52:12,NA,incomplete,56,filling,1,1,left,Purple_Plus_Stripes_4.jpg,Blue_Star_Stripes_2.jpg,Purple_Triangle_Chess_3.jpg,left,501.91500037908554,true,high,NA,NA,NA,NA,NA,NA,NA,false
C56evTXs,3headtgn3s5yqh3y5nncdnm28bcvrm,37xitheis0m4esvs58x9cfu4awxcr1,C56evTXs,2020-0188,2020-06-04,13:32:23,13:52:12,NA,incomplete,57,filling,1,1,left,Green_Triangle_Grid_1.jpg,Red_Circle_Grid_2.jpg,Green_Plus_Dots_4.jpg,left,464.82500014826655,true,high,NA,NA,NA,NA,NA,NA,NA,false
C56evTXs,3headtgn3s5yqh3y5nncdnm28bcvrm,37xitheis0m4esvs58x9cfu4awxcr1,C56evTXs,2020-0188,2020-06-04,13:32:23,13:52:12,NA,incomplete,58,filling,1,1,left,Blue_Triangle_Dots_4.jpg,Green_Plus_Dots_1.jpg,Blue_Star_Grid_2.jpg,left,397.7549998089671,true,high,NA,NA,NA,NA,NA,NA,NA,false
C56evTXs,3headtgn3s5yqh3y5nncdnm28bcvrm,37xitheis0m4esvs58x9cfu4awxcr1,C56evTXs,2020-0188,2020-06-04,13:32:23,13:52:12,NA,incomplete,59,filling,1,0,right,Blue_Plus_Grid_2.jpg,Blue_Circle_Stripes_3.jpg,Green_Triangle_Grid_4.jpg,right,652.4749998934567,true,high,NA,NA,NA,NA,NA,NA,NA,false
C56evTXs,3headtgn3s5yqh3y5nncdnm28bcvrm,37xitheis0m4esvs58x9cfu4awxcr1,C56evTXs,2020-0188,2020-06-04,13:32:23,13:52:12,NA,incomplete,60,color,0,1,right,Blue_Plus_Dots_3.jpg,Green_Triangle_Dots_1.jpg,Blue_Star_Stripes_4.jpg,left,436.7450000718236,false,high,NA,NA,NA,NA,NA,NA,NA,false
C56evTXs,3headtgn3s5yqh3y5nncdnm28bcvrm,37xitheis0m4esvs58x9cfu4awxcr1,C56evTXs,2020-0188,2020-06-04,13:32:23,13:52:12,NA,incomplete,61,color,0,1,right,Purple_Circle_Stripes_4.jpg,Blue_Plus_Stripes_3.jpg,Purple_Star_Grid_2.jpg,left,475.3949996083975,false,high,NA,NA,NA,NA,NA,NA,NA,false
C56evTXs,3headtgn3s5yqh3y5nncdnm28bcvrm,37xitheis0m4esvs58x9cfu4awxcr1,C56evTXs,2020-0188,2020-06-04,13:32:23,13:52:12,NA,incomplete,62,color,0,0,right,Green_Star_Chess_3.jpg,Red_Circle_Chess_1.jpg,Green_Triangle_Dots_2.jpg,right,662.0350000448525,true,high,NA,NA,NA,NA,NA,NA,NA,false
C56evTXs,3headtgn3s5yqh3y5nncdnm28bcvrm,37xitheis0m4esvs58x9cfu4awxcr1,C56evTXs,2020-0188,2020-06-04,13:32:23,13:52:12,NA,incomplete,63,color,0,0,right,Purple_Plus_Stripes_3.jpg,Blue_Star_Stripes_1.jpg,Purple_Circle_Chess_4.jpg,left,602.320000063628,false,high,NA,NA,NA,NA,NA,NA,NA,false
C56evTXs,3headtgn3s5yqh3y5nncdnm28bcvrm,37xitheis0m4esvs58x9cfu4awxcr1,C56evTXs,2020-0188,2020-06-04,13:32:23,13:52:12,NA,incomplete,64,color,0,1,left,Green_Star_Stripes_2.jpg,Green_Triangle_Chess_4.jpg,Red_Circle_Stripes_1.jpg,right,406.1699998565018,false,high,NA,NA,NA,NA,NA,NA,NA,false
C56evTXs,3headtgn3s5yqh3y5nncdnm28bcvrm,37xitheis0m4esvs58x9cfu4awxcr1,C56evTXs,2020-0188,2020-06-04,13:32:23,13:52:12,NA,incomplete,65,color,0,1,right,Green_Circle_Dots_2.jpg,Purple_Triangle_Dots_4.jpg,Green_Star_Grid_3.jpg,left,439.16000006720424,false,high,NA,NA,NA,NA,NA,NA,NA,false
C56evTXs,3headtgn3s5yqh3y5nncdnm28bcvrm,37xitheis0m4esvs58x9cfu4awxcr1,C56evTXs,2020-0188,2020-06-04,13:32:23,13:52:12,NA,incomplete,66,color,0,0,left,Blue_Plus_Dots_1.jpg,Blue_Triangle_Chess_4.jpg,Purple_Star_Dots_2.jpg,left,509.68500040471554,true,high,NA,NA,NA,NA,NA,NA,NA,false
C56evTXs,3headtgn3s5yqh3y5nncdnm28bcvrm,37xitheis0m4esvs58x9cfu4awxcr1,C56evTXs,2020-0188,2020-06-04,13:32:23,13:52:12,NA,incomplete,67,color,0,1,left,Green_Triangle_Chess_4.jpg,Green_Star_Grid_1.jpg,Purple_Circle_Chess_3.jpg,right,519.6299999952316,false,high,NA,NA,NA,NA,NA,NA,NA,false
C56evTXs,3headtgn3s5yqh3y5nncdnm28bcvrm,37xitheis0m4esvs58x9cfu4awxcr1,C56evTXs,2020-0188,2020-06-04,13:32:23,13:52:12,NA,incomplete,68,color,0,1,right,Blue_Plus_Chess_2.jpg,Purple_Triangle_Chess_1.jpg,Blue_Star_Grid_4.jpg,left,486.839999910444,false,high,NA,NA,NA,NA,NA,NA,NA,false
C56evTXs,3headtgn3s5yqh3y5nncdnm28bcvrm,37xitheis0m4esvs58x9cfu4awxcr1,C56evTXs,2020-0188,2020-06-04,13:32:23,13:52:12,NA,incomplete,69,color,0,1,right,Red_Triangle_Dots_2.jpg,Blue_Circle_Dots_4.jpg,Red_Plus_Stripes_3.jpg,left,1007.1700001135468,false,high,NA,NA,NA,NA,NA,NA,NA,false
C56evTXs,3headtgn3s5yqh3y5nncdnm28bcvrm,37xitheis0m4esvs58x9cfu4awxcr1,C56evTXs,2020-0188,2020-06-04,13:32:23,13:52:12,NA,incomplete,70,filling,1,1,right,Green_Star_Grid_3.jpg,Green_Circle_Chess_1.jpg,Red_Plus_Grid_4.jpg,left,448.2599999755621,false,high,NA,NA,NA,NA,NA,NA,NA,false
C56evTXs,3headtgn3s5yqh3y5nncdnm28bcvrm,37xitheis0m4esvs58x9cfu4awxcr1,C56evTXs,2020-0188,2020-06-04,13:32:23,13:52:12,NA,incomplete,71,filling,1,1,left,Purple_Circle_Chess_2.jpg,Green_Star_Chess_1.jpg,Purple_Triangle_Dots_4.jpg,left,583.1349999643862,true,high,NA,NA,NA,NA,NA,NA,NA,false
C56evTXs,3headtgn3s5yqh3y5nncdnm28bcvrm,37xitheis0m4esvs58x9cfu4awxcr1,C56evTXs,2020-0188,2020-06-04,13:32:23,13:52:12,NA,incomplete,72,filling,1,1,right,Green_Plus_Chess_2.jpg,Green_Triangle_Grid_4.jpg,Red_Circle_Chess_1.jpg,right,645.130000077188,true,high,NA,NA,NA,NA,NA,NA,NA,false
C56evTXs,3headtgn3s5yqh3y5nncdnm28bcvrm,37xitheis0m4esvs58x9cfu4awxcr1,C56evTXs,2020-0188,2020-06-04,13:32:23,13:52:12,NA,incomplete,73,filling,1,1,right,Red_Star_Dots_3.jpg,Red_Triangle_Grid_4.jpg,Purple_Plus_Dots_2.jpg,right,492.8950001485646,true,high,NA,NA,NA,NA,NA,NA,NA,false
C56evTXs,3headtgn3s5yqh3y5nncdnm28bcvrm,37xitheis0m4esvs58x9cfu4awxcr1,C56evTXs,2020-0188,2020-06-04,13:32:23,13:52:12,NA,incomplete,74,filling,1,0,right,Red_Circle_Grid_2.jpg,Red_Triangle_Stripes_3.jpg,Green_Star_Grid_1.jpg,left,595.9199997596443,false,high,NA,NA,NA,NA,NA,NA,NA,false
C56evTXs,3headtgn3s5yqh3y5nncdnm28bcvrm,37xitheis0m4esvs58x9cfu4awxcr1,C56evTXs,2020-0188,2020-06-04,13:32:23,13:52:12,NA,incomplete,75,filling,1,1,right,Purple_Star_Chess_1.jpg,Purple_Triangle_Dots_3.jpg,Red_Plus_Chess_2.jpg,left,994.8999998159707,false,high,NA,NA,NA,NA,NA,NA,NA,false
C56evTXs,3headtgn3s5yqh3y5nncdnm28bcvrm,37xitheis0m4esvs58x9cfu4awxcr1,C56evTXs,2020-0188,2020-06-04,13:32:23,13:52:12,NA,incomplete,76,filling,1,1,right,Red_Circle_Dots_1.jpg,Red_Plus_Chess_4.jpg,Green_Star_Dots_3.jpg,right,500.32000010833144,true,high,NA,NA,NA,NA,NA,NA,NA,false
C56evTXs,3headtgn3s5yqh3y5nncdnm28bcvrm,37xitheis0m4esvs58x9cfu4awxcr1,C56evTXs,2020-0188,2020-06-04,13:32:23,13:52:12,NA,incomplete,77,filling,1,1,right,Purple_Triangle_Grid_3.jpg,Purple_Circle_Dots_1.jpg,Green_Plus_Grid_4.jpg,right,575.3700002096593,true,high,NA,NA,NA,NA,NA,NA,NA,false
C56evTXs,3headtgn3s5yqh3y5nncdnm28bcvrm,37xitheis0m4esvs58x9cfu4awxcr1,C56evTXs,2020-0188,2020-06-04,13:32:23,13:52:12,NA,incomplete,78,filling,1,1,left,Purple_Triangle_Chess_3.jpg,Red_Star_Chess_2.jpg,Purple_Plus_Grid_4.jpg,left,575.1849999651313,true,high,NA,NA,NA,NA,NA,NA,NA,false
C56evTXs,3headtgn3s5yqh3y5nncdnm28bcvrm,37xitheis0m4esvs58x9cfu4awxcr1,C56evTXs,2020-0188,2020-06-04,13:32:23,13:52:12,NA,incomplete,79,filling,1,0,left,Red_Plus_Chess_2.jpg,Blue_Star_Chess_1.jpg,Red_Triangle_Grid_4.jpg,left,736.7599997669458,true,high,NA,NA,NA,NA,NA,NA,NA,false
C56evTXs,3headtgn3s5yqh3y5nncdnm28bcvrm,37xitheis0m4esvs58x9cfu4awxcr1,C56evTXs,2020-0188,2020-06-04,13:32:23,13:52:12,NA,incomplete,80,color,0,1,right,Green_Plus_Dots_3.jpg,Red_Circle_Dots_4.jpg,Green_Triangle_Stripes_1.jpg,left,930.3649999201298,false,high,NA,NA,NA,NA,NA,NA,NA,false
C56evTXs,3headtgn3s5yqh3y5nncdnm28bcvrm,37xitheis0m4esvs58x9cfu4awxcr1,C56evTXs,2020-0188,2020-06-04,13:32:23,13:52:12,NA,incomplete,81,color,0,0,left,Purple_Plus_Dots_3.jpg,Purple_Star_Grid_2.jpg,Red_Triangle_Dots_4.jpg,right,556.3850002363324,false,high,NA,NA,NA,NA,NA,NA,NA,false
C56evTXs,3headtgn3s5yqh3y5nncdnm28bcvrm,37xitheis0m4esvs58x9cfu4awxcr1,C56evTXs,2020-0188,2020-06-04,13:32:23,13:52:12,NA,incomplete,82,color,0,1,left,Green_Plus_Grid_2.jpg,Green_Star_Dots_1.jpg,Red_Circle_Grid_3.jpg,right,514.8599999956787,false,high,NA,NA,NA,NA,NA,NA,NA,false
C56evTXs,3headtgn3s5yqh3y5nncdnm28bcvrm,37xitheis0m4esvs58x9cfu4awxcr1,C56evTXs,2020-0188,2020-06-04,13:32:23,13:52:12,NA,incomplete,83,color,0,1,right,Blue_Plus_Grid_4.jpg,Red_Triangle_Grid_1.jpg,Blue_Circle_Dots_2.jpg,left,542.804999742657,false,high,NA,NA,NA,NA,NA,NA,NA,false
C56evTXs,3headtgn3s5yqh3y5nncdnm28bcvrm,37xitheis0m4esvs58x9cfu4awxcr1,C56evTXs,2020-0188,2020-06-04,13:32:23,13:52:12,NA,incomplete,84,color,0,0,right,Red_Circle_Dots_4.jpg,Green_Plus_Dots_3.jpg,Red_Star_Stripes_2.jpg,left,595.9949996322393,false,high,NA,NA,NA,NA,NA,NA,NA,false
C56evTXs,3headtgn3s5yqh3y5nncdnm28bcvrm,37xitheis0m4esvs58x9cfu4awxcr1,C56evTXs,2020-0188,2020-06-04,13:32:23,13:52:12,NA,incomplete,85,color,0,1,left,Red_Circle_Dots_3.jpg,Red_Plus_Chess_1.jpg,Blue_Triangle_Dots_4.jpg,right,566.12000009045,false,high,NA,NA,NA,NA,NA,NA,NA,false
C56evTXs,3headtgn3s5yqh3y5nncdnm28bcvrm,37xitheis0m4esvs58x9cfu4awxcr1,C56evTXs,2020-0188,2020-06-04,13:32:23,13:52:12,NA,incomplete,86,color,0,1,right,Green_Star_Dots_3.jpg,Purple_Circle_Dots_1.jpg,Green_Triangle_Grid_2.jpg,right,582.0849998854101,true,high,NA,NA,NA,NA,NA,NA,NA,false
C56evTXs,3headtgn3s5yqh3y5nncdnm28bcvrm,37xitheis0m4esvs58x9cfu4awxcr1,C56evTXs,2020-0188,2020-06-04,13:32:23,13:52:12,NA,incomplete,87,color,0,1,right,Blue_Star_Stripes_1.jpg,Green_Plus_Stripes_4.jpg,Blue_Circle_Grid_3.jpg,right,569.6250000037253,true,high,NA,NA,NA,NA,NA,NA,NA,false
C56evTXs,3headtgn3s5yqh3y5nncdnm28bcvrm,37xitheis0m4esvs58x9cfu4awxcr1,C56evTXs,2020-0188,2020-06-04,13:32:23,13:52:12,NA,incomplete,88,color,0,1,left,Green_Star_Grid_2.jpg,Green_Circle_Dots_1.jpg,Purple_Plus_Grid_3.jpg,left,502.1900003775954,true,high,NA,NA,NA,NA,NA,NA,NA,false
C56evTXs,3headtgn3s5yqh3y5nncdnm28bcvrm,37xitheis0m4esvs58x9cfu4awxcr1,C56evTXs,2020-0188,2020-06-04,13:32:23,13:52:12,NA,incomplete,89,color,0,1,right,Blue_Star_Chess_4.jpg,Red_Plus_Chess_1.jpg,Blue_Triangle_Grid_3.jpg,right,400.45000007376075,true,high,NA,NA,NA,NA,NA,NA,NA,false
C56evTXs,3headtgn3s5yqh3y5nncdnm28bcvrm,37xitheis0m4esvs58x9cfu4awxcr1,C56evTXs,2020-0188,2020-06-04,13:32:23,13:52:12,NA,incomplete,90,filling,1,1,left,Green_Plus_Chess_4.jpg,Blue_Star_Chess_1.jpg,Green_Triangle_Stripes_3.jpg,right,421.91500030457973,false,high,NA,NA,NA,NA,NA,NA,NA,false
C56evTXs,3headtgn3s5yqh3y5nncdnm28bcvrm,37xitheis0m4esvs58x9cfu4awxcr1,C56evTXs,2020-0188,2020-06-04,13:32:23,13:52:12,NA,incomplete,91,filling,1,1,right,Red_Plus_Stripes_2.jpg,Red_Circle_Dots_1.jpg,Green_Triangle_Stripes_3.jpg,right,356.08999989926815,true,high,NA,NA,NA,NA,NA,NA,NA,false
C56evTXs,3headtgn3s5yqh3y5nncdnm28bcvrm,37xitheis0m4esvs58x9cfu4awxcr1,C56evTXs,2020-0188,2020-06-04,13:32:23,13:52:12,NA,incomplete,92,filling,1,1,right,Purple_Plus_Chess_1.jpg,Purple_Circle_Grid_2.jpg,Blue_Star_Chess_4.jpg,left,601.2900001369417,false,high,NA,NA,NA,NA,NA,NA,NA,false
C56evTXs,3headtgn3s5yqh3y5nncdnm28bcvrm,37xitheis0m4esvs58x9cfu4awxcr1,C56evTXs,2020-0188,2020-06-04,13:32:23,13:52:12,NA,incomplete,93,filling,1,0,right,Blue_Plus_Grid_3.jpg,Blue_Circle_Dots_4.jpg,Red_Star_Grid_1.jpg,left,403.10999983921647,false,high,NA,NA,NA,NA,NA,NA,NA,false
C56evTXs,3headtgn3s5yqh3y5nncdnm28bcvrm,37xitheis0m4esvs58x9cfu4awxcr1,C56evTXs,2020-0188,2020-06-04,13:32:23,13:52:12,NA,incomplete,94,filling,1,0,left,Green_Plus_Stripes_4.jpg,Blue_Triangle_Stripes_1.jpg,Green_Star_Dots_3.jpg,right,396.4050002396107,false,high,NA,NA,NA,NA,NA,NA,NA,false
C56evTXs,3headtgn3s5yqh3y5nncdnm28bcvrm,37xitheis0m4esvs58x9cfu4awxcr1,C56evTXs,2020-0188,2020-06-04,13:32:23,13:52:12,NA,incomplete,95,filling,1,1,right,Red_Circle_Grid_3.jpg,Red_Plus_Chess_4.jpg,Green_Triangle_Grid_1.jpg,left,443.4449998661876,false,high,NA,NA,NA,NA,NA,NA,NA,false
C56evTXs,3headtgn3s5yqh3y5nncdnm28bcvrm,37xitheis0m4esvs58x9cfu4awxcr1,C56evTXs,2020-0188,2020-06-04,13:32:23,13:52:12,NA,incomplete,96,filling,1,0,right,Green_Circle_Grid_1.jpg,Green_Star_Stripes_2.jpg,Blue_Plus_Grid_4.jpg,left,432.2999999858439,false,high,NA,NA,NA,NA,NA,NA,NA,false
C56evTXs,3headtgn3s5yqh3y5nncdnm28bcvrm,37xitheis0m4esvs58x9cfu4awxcr1,C56evTXs,2020-0188,2020-06-04,13:32:23,13:52:12,NA,incomplete,97,filling,1,1,left,Green_Plus_Dots_4.jpg,Purple_Circle_Dots_1.jpg,Green_Triangle_Chess_2.jpg,right,385.2099999785423,false,high,NA,NA,NA,NA,NA,NA,NA,false
C56evTXs,3headtgn3s5yqh3y5nncdnm28bcvrm,37xitheis0m4esvs58x9cfu4awxcr1,C56evTXs,2020-0188,2020-06-04,13:32:23,13:52:12,NA,incomplete,98,filling,1,0,right,Green_Plus_Chess_3.jpg,Green_Circle_Dots_4.jpg,Blue_Star_Chess_1.jpg,left,450.43000020086765,false,high,NA,NA,NA,NA,NA,NA,NA,false
C56evTXs,3headtgn3s5yqh3y5nncdnm28bcvrm,37xitheis0m4esvs58x9cfu4awxcr1,C56evTXs,2020-0188,2020-06-04,13:32:23,13:52:12,NA,incomplete,99,filling,1,1,right,Green_Circle_Chess_3.jpg,Green_Star_Dots_4.jpg,Blue_Triangle_Chess_1.jpg,left,431.31500016897917,false,high,NA,NA,NA,NA,NA,NA,NA,false
C56evTXs,3headtgn3s5yqh3y5nncdnm28bcvrm,37xitheis0m4esvs58x9cfu4awxcr1,C56evTXs,2020-0188,2020-06-04,13:32:23,13:52:12,NA,incomplete,100,color,0,0,left,Green_Circle_Dots_2.jpg,Green_Plus_Stripes_3.jpg,Blue_Star_Dots_4.jpg,left,716.9800000265241,true,high,NA,NA,NA,NA,NA,NA,NA,false
C56evTXs,3headtgn3s5yqh3y5nncdnm28bcvrm,37xitheis0m4esvs58x9cfu4awxcr1,C56evTXs,2020-0188,2020-06-04,13:32:23,13:52:12,NA,incomplete,101,color,0,1,right,Purple_Triangle_Chess_3.jpg,Red_Circle_Chess_2.jpg,Purple_Plus_Stripes_4.jpg,left,457.15999975800514,false,high,NA,NA,NA,NA,NA,NA,NA,false
C56evTXs,3headtgn3s5yqh3y5nncdnm28bcvrm,37xitheis0m4esvs58x9cfu4awxcr1,C56evTXs,2020-0188,2020-06-04,13:32:23,13:52:12,NA,incomplete,102,color,0,1,left,Blue_Plus_Grid_1.jpg,Blue_Triangle_Dots_4.jpg,Purple_Star_Grid_3.jpg,left,516.6900004260242,true,high,NA,NA,NA,NA,NA,NA,NA,false
C56evTXs,3headtgn3s5yqh3y5nncdnm28bcvrm,37xitheis0m4esvs58x9cfu4awxcr1,C56evTXs,2020-0188,2020-06-04,13:32:23,13:52:12,NA,incomplete,103,color,0,1,left,Red_Plus_Stripes_1.jpg,Red_Star_Dots_4.jpg,Blue_Circle_Stripes_2.jpg,left,417.3149997368455,true,high,NA,NA,NA,NA,NA,NA,NA,false
C56evTXs,3headtgn3s5yqh3y5nncdnm28bcvrm,37xitheis0m4esvs58x9cfu4awxcr1,C56evTXs,2020-0188,2020-06-04,13:32:23,13:52:12,NA,incomplete,104,color,0,1,right,Blue_Circle_Dots_1.jpg,Purple_Triangle_Dots_4.jpg,Blue_Plus_Chess_2.jpg,right,400.4399999976158,true,high,NA,NA,NA,NA,NA,NA,NA,false
C56evTXs,3headtgn3s5yqh3y5nncdnm28bcvrm,37xitheis0m4esvs58x9cfu4awxcr1,C56evTXs,2020-0188,2020-06-04,13:32:23,13:52:12,NA,incomplete,105,color,0,1,right,Blue_Plus_Dots_3.jpg,Green_Triangle_Dots_2.jpg,Blue_Circle_Stripes_1.jpg,right,411.9199998676777,true,high,NA,NA,NA,NA,NA,NA,NA,false
C56evTXs,3headtgn3s5yqh3y5nncdnm28bcvrm,37xitheis0m4esvs58x9cfu4awxcr1,C56evTXs,2020-0188,2020-06-04,13:32:23,13:52:12,NA,incomplete,106,color,0,1,left,Purple_Triangle_Grid_1.jpg,Purple_Circle_Dots_4.jpg,Green_Plus_Grid_2.jpg,left,439.0349998138845,true,high,NA,NA,NA,NA,NA,NA,NA,false
C56evTXs,3headtgn3s5yqh3y5nncdnm28bcvrm,37xitheis0m4esvs58x9cfu4awxcr1,C56evTXs,2020-0188,2020-06-04,13:32:23,13:52:12,NA,incomplete,107,color,0,1,right,Purple_Triangle_Grid_4.jpg,Red_Circle_Grid_2.jpg,Purple_Star_Dots_3.jpg,right,366.7000001296401,true,high,NA,NA,NA,NA,NA,NA,NA,false
C56evTXs,3headtgn3s5yqh3y5nncdnm28bcvrm,37xitheis0m4esvs58x9cfu4awxcr1,C56evTXs,2020-0188,2020-06-04,13:32:23,13:52:12,NA,incomplete,108,color,0,0,left,Red_Plus_Dots_4.jpg,Red_Triangle_Stripes_1.jpg,Blue_Circle_Dots_2.jpg,left,431.5249999053776,true,high,NA,NA,NA,NA,NA,NA,NA,false
C56evTXs,3headtgn3s5yqh3y5nncdnm28bcvrm,37xitheis0m4esvs58x9cfu4awxcr1,C56evTXs,2020-0188,2020-06-04,13:32:23,13:52:12,NA,incomplete,109,color,0,1,right,Purple_Star_Dots_3.jpg,Green_Plus_Dots_4.jpg,Purple_Circle_Stripes_2.jpg,right,614.4449999555945,true,high,NA,NA,NA,NA,NA,NA,NA,false
C56evTXs,3headtgn3s5yqh3y5nncdnm28bcvrm,37xitheis0m4esvs58x9cfu4awxcr1,C56evTXs,2020-0188,2020-06-04,13:32:23,13:52:12,NA,incomplete,110,filling,1,1,left,Blue_Triangle_Chess_2.jpg,Red_Plus_Chess_3.jpg,Blue_Star_Grid_1.jpg,right,463.44999969005585,false,high,NA,NA,NA,NA,NA,NA,NA,false
C56evTXs,3headtgn3s5yqh3y5nncdnm28bcvrm,37xitheis0m4esvs58x9cfu4awxcr1,C56evTXs,2020-0188,2020-06-04,13:32:23,13:52:12,NA,incomplete,111,filling,1,1,left,Red_Circle_Chess_1.jpg,Green_Star_Chess_2.jpg,Red_Plus_Dots_3.jpg,right,378.6249998956919,false,high,NA,NA,NA,NA,NA,NA,NA,false
C56evTXs,3headtgn3s5yqh3y5nncdnm28bcvrm,37xitheis0m4esvs58x9cfu4awxcr1,C56evTXs,2020-0188,2020-06-04,13:32:23,13:52:12,NA,incomplete,112,filling,1,1,right,Green_Circle_Stripes_2.jpg,Green_Plus_Chess_4.jpg,Red_Star_Stripes_3.jpg,left,478.79999969154596,false,high,NA,NA,NA,NA,NA,NA,NA,false
C56evTXs,3headtgn3s5yqh3y5nncdnm28bcvrm,37xitheis0m4esvs58x9cfu4awxcr1,C56evTXs,2020-0188,2020-06-04,13:32:23,13:52:12,NA,incomplete,113,filling,1,1,right,Purple_Triangle_Dots_4.jpg,Purple_Star_Grid_1.jpg,Green_Circle_Dots_2.jpg,right,528.5600000061095,true,high,NA,NA,NA,NA,NA,NA,NA,false
C56evTXs,3headtgn3s5yqh3y5nncdnm28bcvrm,37xitheis0m4esvs58x9cfu4awxcr1,C56evTXs,2020-0188,2020-06-04,13:32:23,13:52:12,NA,incomplete,114,filling,1,1,left,Purple_Plus_Stripes_3.jpg,Red_Triangle_Stripes_4.jpg,Purple_Star_Grid_1.jpg,left,481.9400003179908,true,high,NA,NA,NA,NA,NA,NA,NA,false
C56evTXs,3headtgn3s5yqh3y5nncdnm28bcvrm,37xitheis0m4esvs58x9cfu4awxcr1,C56evTXs,2020-0188,2020-06-04,13:32:23,13:52:12,NA,incomplete,115,filling,1,1,right,Blue_Circle_Stripes_4.jpg,Blue_Plus_Dots_1.jpg,Purple_Star_Stripes_3.jpg,right,474.86500022932887,true,high,NA,NA,NA,NA,NA,NA,NA,false
C56evTXs,3headtgn3s5yqh3y5nncdnm28bcvrm,37xitheis0m4esvs58x9cfu4awxcr1,C56evTXs,2020-0188,2020-06-04,13:32:23,13:52:12,NA,incomplete,116,filling,1,0,right,Green_Star_Grid_2.jpg,Green_Circle_Chess_1.jpg,Purple_Triangle_Grid_4.jpg,right,518.8000001944602,true,high,NA,NA,NA,NA,NA,NA,NA,false
C56evTXs,3headtgn3s5yqh3y5nncdnm28bcvrm,37xitheis0m4esvs58x9cfu4awxcr1,C56evTXs,2020-0188,2020-06-04,13:32:23,13:52:12,NA,incomplete,117,filling,1,1,right,Green_Star_Dots_3.jpg,Green_Triangle_Chess_2.jpg,Red_Circle_Dots_1.jpg,right,515.8400000073016,true,high,NA,NA,NA,NA,NA,NA,NA,false
C56evTXs,3headtgn3s5yqh3y5nncdnm28bcvrm,37xitheis0m4esvs58x9cfu4awxcr1,C56evTXs,2020-0188,2020-06-04,13:32:23,13:52:12,NA,incomplete,118,filling,1,1,left,Blue_Triangle_Stripes_3.jpg,Red_Plus_Stripes_1.jpg,Blue_Star_Grid_4.jpg,left,512.6649998128414,true,high,NA,NA,NA,NA,NA,NA,NA,false
C56evTXs,3headtgn3s5yqh3y5nncdnm28bcvrm,37xitheis0m4esvs58x9cfu4awxcr1,C56evTXs,2020-0188,2020-06-04,13:32:23,13:52:12,NA,incomplete,119,filling,1,1,left,Blue_Triangle_Dots_4.jpg,Purple_Circle_Dots_1.jpg,Blue_Plus_Chess_3.jpg,left,389.84999991953373,true,high,NA,NA,NA,NA,NA,NA,NA,false
C56evTXs,3headtgn3s5yqh3y5nncdnm28bcvrm,37xitheis0m4esvs58x9cfu4awxcr1,C56evTXs,2020-0188,2020-06-04,13:32:23,13:52:12,NA,incomplete,120,gender,2,0,right,A_M_14.jpg,A_F_16.jpg,C_M_10.jpg,NA,NA,NA,high,NA,NA,NA,NA,NA,NA,NA,false
C56evTXs,3headtgn3s5yqh3y5nncdnm28bcvrm,37xitheis0m4esvs58x9cfu4awxcr1,C56evTXs,2020-0188,2020-06-04,13:32:23,13:52:12,NA,incomplete,121,gender,2,1,right,A_M_12.jpg,A_F_14.jpg,C_M_05.jpg,left,985.344999935478,false,high,NA,NA,NA,NA,NA,NA,NA,false
C56evTXs,3headtgn3s5yqh3y5nncdnm28bcvrm,37xitheis0m4esvs58x9cfu4awxcr1,C56evTXs,2020-0188,2020-06-04,13:32:23,13:52:12,NA,incomplete,122,gender,2,1,left,C_M_02.jpg,A_M_10.jpg,C_F_11.jpg,left,784.6799995750189,true,high,NA,NA,NA,NA,NA,NA,NA,false
C56evTXs,3headtgn3s5yqh3y5nncdnm28bcvrm,37xitheis0m4esvs58x9cfu4awxcr1,C56evTXs,2020-0188,2020-06-04,13:32:23,13:52:12,NA,incomplete,123,gender,2,1,left,A_F_05.jpg,C_F_07.jpg,A_M_10.jpg,left,1320.7000000402331,true,high,NA,NA,NA,NA,NA,NA,NA,false
C56evTXs,3headtgn3s5yqh3y5nncdnm28bcvrm,37xitheis0m4esvs58x9cfu4awxcr1,C56evTXs,2020-0188,2020-06-04,13:32:23,13:52:12,NA,incomplete,124,gender,2,1,right,C_M_15.jpg,C_F_13.jpg,A_M_09.jpg,left,630.7399999350309,false,high,NA,NA,NA,NA,NA,NA,NA,false
C56evTXs,3headtgn3s5yqh3y5nncdnm28bcvrm,37xitheis0m4esvs58x9cfu4awxcr1,C56evTXs,2020-0188,2020-06-04,13:32:23,13:52:12,NA,incomplete,125,gender,2,1,left,C_F_06.jpg,A_F_11.jpg,C_M_10.jpg,left,706.7850003950298,true,high,NA,NA,NA,NA,NA,NA,NA,false
C56evTXs,3headtgn3s5yqh3y5nncdnm28bcvrm,37xitheis0m4esvs58x9cfu4awxcr1,C56evTXs,2020-0188,2020-06-04,13:32:23,13:52:12,NA,incomplete,126,gender,2,1,left,C_F_04.jpg,A_F_06.jpg,C_M_01.jpg,left,1119.4100002758205,true,high,NA,NA,NA,NA,NA,NA,NA,false
C56evTXs,3headtgn3s5yqh3y5nncdnm28bcvrm,37xitheis0m4esvs58x9cfu4awxcr1,C56evTXs,2020-0188,2020-06-04,13:32:23,13:52:12,NA,incomplete,127,gender,2,1,left,A_F_09.jpg,C_F_01.jpg,A_M_13.jpg,left,968.860000371933,true,high,NA,NA,NA,NA,NA,NA,NA,false
C56evTXs,3headtgn3s5yqh3y5nncdnm28bcvrm,37xitheis0m4esvs58x9cfu4awxcr1,C56evTXs,2020-0188,2020-06-04,13:32:23,13:52:12,NA,incomplete,128,gender,2,1,right,A_F_01.jpg,A_M_03.jpg,C_F_06.jpg,right,785.9000000171363,true,high,NA,NA,NA,NA,NA,NA,NA,false
C56evTXs,3headtgn3s5yqh3y5nncdnm28bcvrm,37xitheis0m4esvs58x9cfu4awxcr1,C56evTXs,2020-0188,2020-06-04,13:32:23,13:52:12,NA,incomplete,129,gender,2,0,right,A_F_14.jpg,A_M_07.jpg,C_F_10.jpg,right,589.5099998451769,true,high,NA,NA,NA,NA,NA,NA,NA,false
C56evTXs,3headtgn3s5yqh3y5nncdnm28bcvrm,37xitheis0m4esvs58x9cfu4awxcr1,C56evTXs,2020-0188,2020-06-04,13:32:23,13:52:12,NA,incomplete,130,gender,2,1,left,A_M_02.jpg,C_M_08.jpg,A_F_06.jpg,left,1221.6849997639656,true,high,NA,NA,NA,NA,NA,NA,NA,false
C56evTXs,3headtgn3s5yqh3y5nncdnm28bcvrm,37xitheis0m4esvs58x9cfu4awxcr1,C56evTXs,2020-0188,2020-06-04,13:32:23,13:52:12,NA,incomplete,131,gender,2,0,left,A_F_12.jpg,C_F_10.jpg,A_M_16.jpg,left,665.0849999859929,true,high,NA,NA,NA,NA,NA,NA,NA,false
C56evTXs,3headtgn3s5yqh3y5nncdnm28bcvrm,37xitheis0m4esvs58x9cfu4awxcr1,C56evTXs,2020-0188,2020-06-04,13:32:23,13:52:12,NA,incomplete,132,gender,2,1,right,A_M_08.jpg,A_F_07.jpg,C_M_02.jpg,right,1051.2199997901917,true,high,NA,NA,NA,NA,NA,NA,NA,false
C56evTXs,3headtgn3s5yqh3y5nncdnm28bcvrm,37xitheis0m4esvs58x9cfu4awxcr1,C56evTXs,2020-0188,2020-06-04,13:32:23,13:52:12,NA,incomplete,133,gender,2,1,right,A_F_02.jpg,A_M_09.jpg,C_F_13.jpg,right,711.3300003111362,true,high,NA,NA,NA,NA,NA,NA,NA,false
C56evTXs,3headtgn3s5yqh3y5nncdnm28bcvrm,37xitheis0m4esvs58x9cfu4awxcr1,C56evTXs,2020-0188,2020-06-04,13:32:23,13:52:12,NA,incomplete,134,gender,2,0,left,A_M_16.jpg,C_M_08.jpg,A_F_14.jpg,left,933.4499998949468,true,high,NA,NA,NA,NA,NA,NA,NA,false
C56evTXs,3headtgn3s5yqh3y5nncdnm28bcvrm,37xitheis0m4esvs58x9cfu4awxcr1,C56evTXs,2020-0188,2020-06-04,13:32:23,13:52:12,NA,incomplete,135,gender,2,1,right,A_M_02.jpg,A_F_07.jpg,C_M_14.jpg,right,1362.6850000582635,true,high,NA,NA,NA,NA,NA,NA,NA,false
C56evTXs,3headtgn3s5yqh3y5nncdnm28bcvrm,37xitheis0m4esvs58x9cfu4awxcr1,C56evTXs,2020-0188,2020-06-04,13:32:23,13:52:12,NA,incomplete,136,gender,2,1,right,C_M_16.jpg,C_F_12.jpg,A_M_15.jpg,right,795.0949999503791,true,high,NA,NA,NA,NA,NA,NA,NA,false
C56evTXs,3headtgn3s5yqh3y5nncdnm28bcvrm,37xitheis0m4esvs58x9cfu4awxcr1,C56evTXs,2020-0188,2020-06-04,13:32:23,13:52:12,NA,incomplete,137,gender,2,1,left,A_M_08.jpg,C_M_14.jpg,A_F_12.jpg,right,899.4999998249114,false,high,NA,NA,NA,NA,NA,NA,NA,false
C56evTXs,3headtgn3s5yqh3y5nncdnm28bcvrm,37xitheis0m4esvs58x9cfu4awxcr1,C56evTXs,2020-0188,2020-06-04,13:32:23,13:52:12,NA,incomplete,138,gender,2,1,left,A_M_14.jpg,C_M_09.jpg,A_F_03.jpg,right,1430.5849997326732,false,high,NA,NA,NA,NA,NA,NA,NA,false
C56evTXs,3headtgn3s5yqh3y5nncdnm28bcvrm,37xitheis0m4esvs58x9cfu4awxcr1,C56evTXs,2020-0188,2020-06-04,13:32:23,13:52:12,NA,incomplete,139,gender,2,1,right,C_F_12.jpg,C_M_13.jpg,A_F_16.jpg,right,1106.459999922663,true,high,NA,NA,NA,NA,NA,NA,NA,false
C56evTXs,3headtgn3s5yqh3y5nncdnm28bcvrm,37xitheis0m4esvs58x9cfu4awxcr1,C56evTXs,2020-0188,2020-06-04,13:32:23,13:52:12,NA,incomplete,140,race,3,1,left,A_M_11.jpg,A_F_15.jpg,C_M_02.jpg,right,952.8999999165535,false,high,NA,NA,NA,NA,NA,NA,NA,false
C56evTXs,3headtgn3s5yqh3y5nncdnm28bcvrm,37xitheis0m4esvs58x9cfu4awxcr1,C56evTXs,2020-0188,2020-06-04,13:32:23,13:52:12,NA,incomplete,141,race,3,0,right,A_F_16.jpg,C_F_05.jpg,A_M_06.jpg,left,770.1099999248981,false,high,NA,NA,NA,NA,NA,NA,NA,false
C56evTXs,3headtgn3s5yqh3y5nncdnm28bcvrm,37xitheis0m4esvs58x9cfu4awxcr1,C56evTXs,2020-0188,2020-06-04,13:32:23,13:52:12,NA,incomplete,142,race,3,1,left,C_F_16.jpg,C_M_13.jpg,A_F_14.jpg,right,762.6449996605515,false,high,NA,NA,NA,NA,NA,NA,NA,false
C56evTXs,3headtgn3s5yqh3y5nncdnm28bcvrm,37xitheis0m4esvs58x9cfu4awxcr1,C56evTXs,2020-0188,2020-06-04,13:32:23,13:52:12,NA,incomplete,143,race,3,1,left,C_F_05.jpg,C_M_15.jpg,A_F_11.jpg,right,1367.5250001251698,false,high,NA,NA,NA,NA,NA,NA,NA,false
C56evTXs,3headtgn3s5yqh3y5nncdnm28bcvrm,37xitheis0m4esvs58x9cfu4awxcr1,C56evTXs,2020-0188,2020-06-04,13:32:23,13:52:12,NA,incomplete,144,race,3,0,right,C_F_08.jpg,A_F_15.jpg,C_M_07.jpg,right,761.4899999462068,true,high,NA,NA,NA,NA,NA,NA,NA,false
C56evTXs,3headtgn3s5yqh3y5nncdnm28bcvrm,37xitheis0m4esvs58x9cfu4awxcr1,C56evTXs,2020-0188,2020-06-04,13:32:23,13:52:12,NA,incomplete,145,race,3,1,left,C_F_10.jpg,C_M_06.jpg,A_F_04.jpg,right,951.0200000368059,false,high,NA,NA,NA,NA,NA,NA,NA,false
C56evTXs,3headtgn3s5yqh3y5nncdnm28bcvrm,37xitheis0m4esvs58x9cfu4awxcr1,C56evTXs,2020-0188,2020-06-04,13:32:23,13:52:12,NA,incomplete,146,race,3,1,right,C_M_02.jpg,A_M_15.jpg,C_F_08.jpg,left,908.9750000275671,false,high,NA,NA,NA,NA,NA,NA,NA,false
C56evTXs,3headtgn3s5yqh3y5nncdnm28bcvrm,37xitheis0m4esvs58x9cfu4awxcr1,C56evTXs,2020-0188,2020-06-04,13:32:23,13:52:12,NA,incomplete,147,race,3,1,left,C_M_11.jpg,C_F_10.jpg,A_M_15.jpg,right,1028.0450000427663,false,high,NA,NA,NA,NA,NA,NA,NA,false
C56evTXs,3headtgn3s5yqh3y5nncdnm28bcvrm,37xitheis0m4esvs58x9cfu4awxcr1,C56evTXs,2020-0188,2020-06-04,13:32:23,13:52:12,NA,incomplete,148,race,3,1,right,C_F_04.jpg,A_F_02.jpg,C_M_08.jpg,right,1119.1500001586974,true,high,NA,NA,NA,NA,NA,NA,NA,false
C56evTXs,3headtgn3s5yqh3y5nncdnm28bcvrm,37xitheis0m4esvs58x9cfu4awxcr1,C56evTXs,2020-0188,2020-06-04,13:32:23,13:52:12,NA,incomplete,149,race,3,0,right,C_M_12.jpg,A_M_13.jpg,C_F_08.jpg,left,876.8500001169741,false,high,NA,NA,NA,NA,NA,NA,NA,false
C56evTXs,3headtgn3s5yqh3y5nncdnm28bcvrm,37xitheis0m4esvs58x9cfu4awxcr1,C56evTXs,2020-0188,2020-06-04,13:32:23,13:52:12,NA,incomplete,150,race,3,1,left,A_F_05.jpg,A_M_03.jpg,C_F_02.jpg,left,1189.6500000730157,true,high,NA,NA,NA,NA,NA,NA,NA,false
C56evTXs,3headtgn3s5yqh3y5nncdnm28bcvrm,37xitheis0m4esvs58x9cfu4awxcr1,C56evTXs,2020-0188,2020-06-04,13:32:23,13:52:12,NA,incomplete,151,race,3,0,left,A_M_08.jpg,A_F_05.jpg,C_M_02.jpg,left,791.4149998687208,true,high,NA,NA,NA,NA,NA,NA,NA,false
C56evTXs,3headtgn3s5yqh3y5nncdnm28bcvrm,37xitheis0m4esvs58x9cfu4awxcr1,C56evTXs,2020-0188,2020-06-04,13:32:23,13:52:12,NA,incomplete,152,race,3,1,left,C_F_02.jpg,C_M_09.jpg,A_F_11.jpg,left,950.9950000792742,true,high,NA,NA,NA,NA,NA,NA,NA,false
C56evTXs,3headtgn3s5yqh3y5nncdnm28bcvrm,37xitheis0m4esvs58x9cfu4awxcr1,C56evTXs,2020-0188,2020-06-04,13:32:23,13:52:12,NA,incomplete,153,race,3,1,right,C_M_16.jpg,A_M_02.jpg,C_F_11.jpg,right,803.7350000813603,true,high,NA,NA,NA,NA,NA,NA,NA,false
C56evTXs,3headtgn3s5yqh3y5nncdnm28bcvrm,37xitheis0m4esvs58x9cfu4awxcr1,C56evTXs,2020-0188,2020-06-04,13:32:23,13:52:12,NA,incomplete,154,race,3,1,right,A_F_06.jpg,C_F_14.jpg,A_M_16.jpg,right,940.3750002384186,true,high,NA,NA,NA,NA,NA,NA,NA,false
C56evTXs,3headtgn3s5yqh3y5nncdnm28bcvrm,37xitheis0m4esvs58x9cfu4awxcr1,C56evTXs,2020-0188,2020-06-04,13:32:23,13:52:12,NA,incomplete,155,race,3,0,right,A_F_02.jpg,C_F_14.jpg,A_M_07.jpg,left,1095.2750002034009,false,high,NA,NA,NA,NA,NA,NA,NA,false
C56evTXs,3headtgn3s5yqh3y5nncdnm28bcvrm,37xitheis0m4esvs58x9cfu4awxcr1,C56evTXs,2020-0188,2020-06-04,13:32:23,13:52:12,NA,incomplete,156,race,3,1,left,C_F_01.jpg,C_M_12.jpg,A_F_16.jpg,left,1348.7450000829995,true,high,NA,NA,NA,NA,NA,NA,NA,false
C56evTXs,3headtgn3s5yqh3y5nncdnm28bcvrm,37xitheis0m4esvs58x9cfu4awxcr1,C56evTXs,2020-0188,2020-06-04,13:32:23,13:52:12,NA,incomplete,157,race,3,1,left,C_M_16.jpg,C_F_08.jpg,A_M_15.jpg,left,949.5450002141297,true,high,NA,NA,NA,NA,NA,NA,NA,false
C56evTXs,3headtgn3s5yqh3y5nncdnm28bcvrm,37xitheis0m4esvs58x9cfu4awxcr1,C56evTXs,2020-0188,2020-06-04,13:32:23,13:52:12,NA,incomplete,158,race,3,1,left,A_M_09.jpg,A_F_10.jpg,C_M_07.jpg,left,1481.4450000412762,true,high,NA,NA,NA,NA,NA,NA,NA,false
C56evTXs,3headtgn3s5yqh3y5nncdnm28bcvrm,37xitheis0m4esvs58x9cfu4awxcr1,C56evTXs,2020-0188,2020-06-04,13:32:23,13:52:12,NA,incomplete,159,race,3,0,right,A_F_11.jpg,C_F_14.jpg,A_M_10.jpg,right,894.6249997243285,true,high,NA,NA,NA,NA,NA,NA,NA,false
C56evTXs,3headtgn3s5yqh3y5nncdnm28bcvrm,37xitheis0m4esvs58x9cfu4awxcr1,C56evTXs,2020-0188,2020-06-04,13:32:23,13:52:12,NA,incomplete,160,gender,2,1,right,C_M_02.jpg,C_F_12.jpg,A_M_16.jpg,left,1275.3300000913441,false,high,NA,NA,NA,NA,NA,NA,NA,false
C56evTXs,3headtgn3s5yqh3y5nncdnm28bcvrm,37xitheis0m4esvs58x9cfu4awxcr1,C56evTXs,2020-0188,2020-06-04,13:32:23,13:52:12,NA,incomplete,161,gender,2,1,left,C_M_16.jpg,A_M_13.jpg,C_F_04.jpg,left,1001.5349998138845,true,high,NA,NA,NA,NA,NA,NA,NA,false
C56evTXs,3headtgn3s5yqh3y5nncdnm28bcvrm,37xitheis0m4esvs58x9cfu4awxcr1,C56evTXs,2020-0188,2020-06-04,13:32:23,13:52:12,NA,incomplete,162,gender,2,1,right,C_F_07.jpg,C_M_06.jpg,A_F_10.jpg,right,1764.7899999283254,true,high,NA,NA,NA,NA,NA,NA,NA,false
C56evTXs,3headtgn3s5yqh3y5nncdnm28bcvrm,37xitheis0m4esvs58x9cfu4awxcr1,C56evTXs,2020-0188,2020-06-04,13:32:23,13:52:12,NA,incomplete,163,gender,2,1,left,A_F_02.jpg,C_F_06.jpg,A_M_11.jpg,right,831.4399998635054,false,high,NA,NA,NA,NA,NA,NA,NA,false
C56evTXs,3headtgn3s5yqh3y5nncdnm28bcvrm,37xitheis0m4esvs58x9cfu4awxcr1,C56evTXs,2020-0188,2020-06-04,13:32:23,13:52:12,NA,incomplete,164,gender,2,0,right,C_M_05.jpg,C_F_08.jpg,A_M_03.jpg,right,1160.20999988541,true,high,NA,NA,NA,NA,NA,NA,NA,false
C56evTXs,3headtgn3s5yqh3y5nncdnm28bcvrm,37xitheis0m4esvs58x9cfu4awxcr1,C56evTXs,2020-0188,2020-06-04,13:32:23,13:52:12,NA,incomplete,165,gender,2,1,left,A_F_04.jpg,C_F_02.jpg,A_M_15.jpg,right,970.1950000599027,false,high,NA,NA,NA,NA,NA,NA,NA,false
C56evTXs,3headtgn3s5yqh3y5nncdnm28bcvrm,37xitheis0m4esvs58x9cfu4awxcr1,C56evTXs,2020-0188,2020-06-04,13:32:23,13:52:12,NA,incomplete,166,gender,2,1,left,A_M_03.jpg,C_M_12.jpg,A_F_04.jpg,right,1082.3949999175966,false,high,NA,NA,NA,NA,NA,NA,NA,false
C56evTXs,3headtgn3s5yqh3y5nncdnm28bcvrm,37xitheis0m4esvs58x9cfu4awxcr1,C56evTXs,2020-0188,2020-06-04,13:32:23,13:52:12,NA,incomplete,167,gender,2,0,right,C_F_12.jpg,C_M_09.jpg,A_F_08.jpg,right,714.6250000223517,true,high,NA,NA,NA,NA,NA,NA,NA,false
C56evTXs,3headtgn3s5yqh3y5nncdnm28bcvrm,37xitheis0m4esvs58x9cfu4awxcr1,C56evTXs,2020-0188,2020-06-04,13:32:23,13:52:12,NA,incomplete,168,gender,2,1,left,A_F_02.jpg,C_F_01.jpg,A_M_03.jpg,left,605.1900000311434,true,high,NA,NA,NA,NA,NA,NA,NA,false
C56evTXs,3headtgn3s5yqh3y5nncdnm28bcvrm,37xitheis0m4esvs58x9cfu4awxcr1,C56evTXs,2020-0188,2020-06-04,13:32:23,13:52:12,NA,incomplete,169,gender,2,0,left,C_M_06.jpg,A_M_04.jpg,C_F_02.jpg,left,1014.8450001142919,true,high,NA,NA,NA,NA,NA,NA,NA,false
C56evTXs,3headtgn3s5yqh3y5nncdnm28bcvrm,37xitheis0m4esvs58x9cfu4awxcr1,C56evTXs,2020-0188,2020-06-04,13:32:23,13:52:12,NA,incomplete,170,gender,2,1,right,A_M_04.jpg,A_F_07.jpg,C_M_13.jpg,left,925.4000000655651,false,high,NA,NA,NA,NA,NA,NA,NA,false
C56evTXs,3headtgn3s5yqh3y5nncdnm28bcvrm,37xitheis0m4esvs58x9cfu4awxcr1,C56evTXs,2020-0188,2020-06-04,13:32:23,13:52:12,NA,incomplete,171,gender,2,0,right,A_M_12.jpg,A_F_09.jpg,C_M_15.jpg,right,1222.8949996642768,true,high,NA,NA,NA,NA,NA,NA,NA,false
C56evTXs,3headtgn3s5yqh3y5nncdnm28bcvrm,37xitheis0m4esvs58x9cfu4awxcr1,C56evTXs,2020-0188,2020-06-04,13:32:23,13:52:12,NA,incomplete,172,gender,2,1,left,C_F_09.jpg,A_F_06.jpg,C_M_05.jpg,left,1568.1900000199676,true,high,NA,NA,NA,NA,NA,NA,NA,false
C56evTXs,3headtgn3s5yqh3y5nncdnm28bcvrm,37xitheis0m4esvs58x9cfu4awxcr1,C56evTXs,2020-0188,2020-06-04,13:32:23,13:52:12,NA,incomplete,173,gender,2,1,left,A_F_02.jpg,C_F_04.jpg,A_M_14.jpg,left,1139.0799996443093,true,high,NA,NA,NA,NA,NA,NA,NA,false
C56evTXs,3headtgn3s5yqh3y5nncdnm28bcvrm,37xitheis0m4esvs58x9cfu4awxcr1,C56evTXs,2020-0188,2020-06-04,13:32:23,13:52:12,NA,incomplete,174,gender,2,1,right,C_M_03.jpg,C_F_08.jpg,A_M_05.jpg,right,753.3449996262789,true,high,NA,NA,NA,NA,NA,NA,NA,false
C56evTXs,3headtgn3s5yqh3y5nncdnm28bcvrm,37xitheis0m4esvs58x9cfu4awxcr1,C56evTXs,2020-0188,2020-06-04,13:32:23,13:52:12,NA,incomplete,175,gender,2,1,right,A_M_11.jpg,A_F_01.jpg,C_M_06.jpg,left,972.3649998195469,false,high,NA,NA,NA,NA,NA,NA,NA,false
C56evTXs,3headtgn3s5yqh3y5nncdnm28bcvrm,37xitheis0m4esvs58x9cfu4awxcr1,C56evTXs,2020-0188,2020-06-04,13:32:23,13:52:12,NA,incomplete,176,gender,2,1,left,C_M_05.jpg,A_M_10.jpg,C_F_06.jpg,left,1615.2499997988343,true,high,NA,NA,NA,NA,NA,NA,NA,false
C56evTXs,3headtgn3s5yqh3y5nncdnm28bcvrm,37xitheis0m4esvs58x9cfu4awxcr1,C56evTXs,2020-0188,2020-06-04,13:32:23,13:52:12,NA,incomplete,177,gender,2,1,right,C_F_05.jpg,C_M_11.jpg,A_F_01.jpg,right,889.4099998287857,true,high,NA,NA,NA,NA,NA,NA,NA,false
C56evTXs,3headtgn3s5yqh3y5nncdnm28bcvrm,37xitheis0m4esvs58x9cfu4awxcr1,C56evTXs,2020-0188,2020-06-04,13:32:23,13:52:12,NA,incomplete,178,gender,2,1,right,C_F_06.jpg,C_M_07.jpg,A_F_11.jpg,right,893.2600002735853,true,high,NA,NA,NA,NA,NA,NA,NA,false
C56evTXs,3headtgn3s5yqh3y5nncdnm28bcvrm,37xitheis0m4esvs58x9cfu4awxcr1,C56evTXs,2020-0188,2020-06-04,13:32:23,13:52:12,NA,incomplete,179,gender,2,1,left,C_F_15.jpg,A_F_13.jpg,C_M_03.jpg,left,753.264999948442,true,high,NA,NA,NA,NA,NA,NA,NA,false
C56evTXs,3headtgn3s5yqh3y5nncdnm28bcvrm,37xitheis0m4esvs58x9cfu4awxcr1,C56evTXs,2020-0188,2020-06-04,13:32:23,13:52:12,NA,incomplete,180,race,3,1,right,C_F_01.jpg,A_F_10.jpg,C_M_07.jpg,left,749.7099996544421,false,high,NA,NA,NA,NA,NA,NA,NA,false
C56evTXs,3headtgn3s5yqh3y5nncdnm28bcvrm,37xitheis0m4esvs58x9cfu4awxcr1,C56evTXs,2020-0188,2020-06-04,13:32:23,13:52:12,NA,incomplete,181,race,3,1,left,A_F_15.jpg,A_M_02.jpg,C_F_05.jpg,right,633.984999731183,false,high,NA,NA,NA,NA,NA,NA,NA,false
C56evTXs,3headtgn3s5yqh3y5nncdnm28bcvrm,37xitheis0m4esvs58x9cfu4awxcr1,C56evTXs,2020-0188,2020-06-04,13:32:23,13:52:12,NA,incomplete,182,race,3,0,left,A_F_01.jpg,A_M_02.jpg,C_F_15.jpg,right,708.9949999935925,false,high,NA,NA,NA,NA,NA,NA,NA,false
C56evTXs,3headtgn3s5yqh3y5nncdnm28bcvrm,37xitheis0m4esvs58x9cfu4awxcr1,C56evTXs,2020-0188,2020-06-04,13:32:23,13:52:12,NA,incomplete,183,race,3,1,left,A_M_08.jpg,A_F_14.jpg,C_M_06.jpg,right,758.5849999450147,false,high,NA,NA,NA,NA,NA,NA,NA,false
C56evTXs,3headtgn3s5yqh3y5nncdnm28bcvrm,37xitheis0m4esvs58x9cfu4awxcr1,C56evTXs,2020-0188,2020-06-04,13:32:23,13:52:12,NA,incomplete,184,race,3,1,right,A_F_14.jpg,C_F_11.jpg,A_M_07.jpg,right,793.2199998758733,true,high,NA,NA,NA,NA,NA,NA,NA,false
C56evTXs,3headtgn3s5yqh3y5nncdnm28bcvrm,37xitheis0m4esvs58x9cfu4awxcr1,C56evTXs,2020-0188,2020-06-04,13:32:23,13:52:12,NA,incomplete,185,race,3,1,left,A_M_13.jpg,A_F_10.jpg,C_M_16.jpg,left,1022.8400002233684,true,high,NA,NA,NA,NA,NA,NA,NA,false
C56evTXs,3headtgn3s5yqh3y5nncdnm28bcvrm,37xitheis0m4esvs58x9cfu4awxcr1,C56evTXs,2020-0188,2020-06-04,13:32:23,13:52:12,NA,incomplete,186,race,3,0,left,C_M_04.jpg,C_F_08.jpg,A_M_07.jpg,left,1261.3450000062585,true,high,NA,NA,NA,NA,NA,NA,NA,false
C56evTXs,3headtgn3s5yqh3y5nncdnm28bcvrm,37xitheis0m4esvs58x9cfu4awxcr1,C56evTXs,2020-0188,2020-06-04,13:32:23,13:52:12,NA,incomplete,187,race,3,1,right,A_M_06.jpg,C_M_02.jpg,A_F_04.jpg,right,1087.0699998922646,true,high,NA,NA,NA,NA,NA,NA,NA,false
C56evTXs,3headtgn3s5yqh3y5nncdnm28bcvrm,37xitheis0m4esvs58x9cfu4awxcr1,C56evTXs,2020-0188,2020-06-04,13:32:23,13:52:12,NA,incomplete,188,race,3,0,right,A_M_15.jpg,C_M_08.jpg,A_F_07.jpg,right,804.4799999333918,true,high,NA,NA,NA,NA,NA,NA,NA,false
C56evTXs,3headtgn3s5yqh3y5nncdnm28bcvrm,37xitheis0m4esvs58x9cfu4awxcr1,C56evTXs,2020-0188,2020-06-04,13:32:23,13:52:12,NA,incomplete,189,race,3,1,right,C_M_12.jpg,A_M_04.jpg,C_F_07.jpg,right,1333.9200001209974,true,high,NA,NA,NA,NA,NA,NA,NA,false
C56evTXs,3headtgn3s5yqh3y5nncdnm28bcvrm,37xitheis0m4esvs58x9cfu4awxcr1,C56evTXs,2020-0188,2020-06-04,13:32:23,13:52:12,NA,incomplete,190,race,3,1,right,A_M_08.jpg,C_M_06.jpg,A_F_14.jpg,right,733.124999795109,true,high,NA,NA,NA,NA,NA,NA,NA,false
C56evTXs,3headtgn3s5yqh3y5nncdnm28bcvrm,37xitheis0m4esvs58x9cfu4awxcr1,C56evTXs,2020-0188,2020-06-04,13:32:23,13:52:12,NA,incomplete,191,race,3,1,left,A_M_03.jpg,A_F_07.jpg,C_M_08.jpg,left,785.5749996379018,true,high,NA,NA,NA,NA,NA,NA,NA,false
C56evTXs,3headtgn3s5yqh3y5nncdnm28bcvrm,37xitheis0m4esvs58x9cfu4awxcr1,C56evTXs,2020-0188,2020-06-04,13:32:23,13:52:12,NA,incomplete,192,race,3,1,right,C_F_15.jpg,A_F_06.jpg,C_M_09.jpg,right,1391.499999910593,true,high,NA,NA,NA,NA,NA,NA,NA,false
C56evTXs,3headtgn3s5yqh3y5nncdnm28bcvrm,37xitheis0m4esvs58x9cfu4awxcr1,C56evTXs,2020-0188,2020-06-04,13:32:23,13:52:12,NA,incomplete,193,race,3,1,left,C_M_06.jpg,C_F_03.jpg,A_M_13.jpg,left,1371.3849997147918,true,high,NA,NA,NA,NA,NA,NA,NA,false
C56evTXs,3headtgn3s5yqh3y5nncdnm28bcvrm,37xitheis0m4esvs58x9cfu4awxcr1,C56evTXs,2020-0188,2020-06-04,13:32:23,13:52:12,NA,incomplete,194,race,3,1,right,C_F_04.jpg,A_F_16.jpg,C_M_10.jpg,right,1313.390000257641,true,high,NA,NA,NA,NA,NA,NA,NA,false
C56evTXs,3headtgn3s5yqh3y5nncdnm28bcvrm,37xitheis0m4esvs58x9cfu4awxcr1,C56evTXs,2020-0188,2020-06-04,13:32:23,13:52:12,NA,incomplete,195,race,3,0,left,C_M_16.jpg,C_F_09.jpg,A_M_05.jpg,left,1158.3150001242757,true,high,NA,NA,NA,NA,NA,NA,NA,false
C56evTXs,3headtgn3s5yqh3y5nncdnm28bcvrm,37xitheis0m4esvs58x9cfu4awxcr1,C56evTXs,2020-0188,2020-06-04,13:32:23,13:52:12,NA,incomplete,196,race,3,1,right,C_F_11.jpg,A_F_02.jpg,C_M_16.jpg,right,1016.2200001068413,true,high,NA,NA,NA,NA,NA,NA,NA,false
C56evTXs,3headtgn3s5yqh3y5nncdnm28bcvrm,37xitheis0m4esvs58x9cfu4awxcr1,C56evTXs,2020-0188,2020-06-04,13:32:23,13:52:12,NA,incomplete,197,race,3,1,left,C_F_03.jpg,C_M_13.jpg,A_F_10.jpg,left,1254.1000000201166,true,high,NA,NA,NA,NA,NA,NA,NA,false
C56evTXs,3headtgn3s5yqh3y5nncdnm28bcvrm,37xitheis0m4esvs58x9cfu4awxcr1,C56evTXs,2020-0188,2020-06-04,13:32:23,13:52:12,NA,incomplete,198,race,3,0,left,A_M_13.jpg,A_F_15.jpg,C_M_16.jpg,left,934.1100002638996,true,high,NA,NA,NA,NA,NA,NA,NA,false
C56evTXs,3headtgn3s5yqh3y5nncdnm28bcvrm,37xitheis0m4esvs58x9cfu4awxcr1,C56evTXs,2020-0188,2020-06-04,13:32:23,13:52:12,NA,incomplete,199,race,3,1,left,C_M_07.jpg,C_F_02.jpg,A_M_03.jpg,left,1746.5099999681115,true,high,NA,NA,NA,NA,NA,NA,NA,false
C56evTXs,3headtgn3s5yqh3y5nncdnm28bcvrm,37xitheis0m4esvs58x9cfu4awxcr1,C56evTXs,2020-0188,2020-06-04,13:32:23,13:52:12,NA,incomplete,200,gender,2,0,left,A_F_08.jpg,C_F_04.jpg,A_M_12.jpg,right,925.3299999982119,false,high,NA,NA,NA,NA,NA,NA,NA,false
C56evTXs,3headtgn3s5yqh3y5nncdnm28bcvrm,37xitheis0m4esvs58x9cfu4awxcr1,C56evTXs,2020-0188,2020-06-04,13:32:23,13:52:12,NA,incomplete,201,gender,2,1,right,C_F_13.jpg,C_M_05.jpg,A_F_11.jpg,left,1114.510000217706,false,high,NA,NA,NA,NA,NA,NA,NA,false
C56evTXs,3headtgn3s5yqh3y5nncdnm28bcvrm,37xitheis0m4esvs58x9cfu4awxcr1,C56evTXs,2020-0188,2020-06-04,13:32:23,13:52:12,NA,incomplete,202,gender,2,1,right,A_F_06.jpg,A_M_13.jpg,C_F_03.jpg,left,748.0450002476573,false,high,NA,NA,NA,NA,NA,NA,NA,false
C56evTXs,3headtgn3s5yqh3y5nncdnm28bcvrm,37xitheis0m4esvs58x9cfu4awxcr1,C56evTXs,2020-0188,2020-06-04,13:32:23,13:52:12,NA,incomplete,203,gender,2,1,right,A_M_03.jpg,A_F_04.jpg,C_M_13.jpg,right,1292.120000347495,true,high,NA,NA,NA,NA,NA,NA,NA,false
C56evTXs,3headtgn3s5yqh3y5nncdnm28bcvrm,37xitheis0m4esvs58x9cfu4awxcr1,C56evTXs,2020-0188,2020-06-04,13:32:23,13:52:12,NA,incomplete,204,gender,2,1,right,C_F_09.jpg,C_M_16.jpg,A_F_08.jpg,right,975.390000268817,true,high,NA,NA,NA,NA,NA,NA,NA,false
C56evTXs,3headtgn3s5yqh3y5nncdnm28bcvrm,37xitheis0m4esvs58x9cfu4awxcr1,C56evTXs,2020-0188,2020-06-04,13:32:23,13:52:12,NA,incomplete,205,gender,2,1,right,C_F_06.jpg,C_M_10.jpg,A_F_09.jpg,right,858.9599998667836,true,high,NA,NA,NA,NA,NA,NA,NA,false
C56evTXs,3headtgn3s5yqh3y5nncdnm28bcvrm,37xitheis0m4esvs58x9cfu4awxcr1,C56evTXs,2020-0188,2020-06-04,13:32:23,13:52:12,NA,incomplete,206,gender,2,0,left,A_M_03.jpg,C_M_08.jpg,A_F_07.jpg,left,887.4599998816848,true,high,NA,NA,NA,NA,NA,NA,NA,false
C56evTXs,3headtgn3s5yqh3y5nncdnm28bcvrm,37xitheis0m4esvs58x9cfu4awxcr1,C56evTXs,2020-0188,2020-06-04,13:32:23,13:52:12,NA,incomplete,207,gender,2,1,left,C_M_01.jpg,A_M_07.jpg,C_F_15.jpg,left,766.3900000043213,true,high,NA,NA,NA,NA,NA,NA,NA,false
C56evTXs,3headtgn3s5yqh3y5nncdnm28bcvrm,37xitheis0m4esvs58x9cfu4awxcr1,C56evTXs,2020-0188,2020-06-04,13:32:23,13:52:12,NA,incomplete,208,gender,2,1,left,A_M_09.jpg,C_M_04.jpg,A_F_03.jpg,left,1870.2750001102686,true,high,NA,NA,NA,NA,NA,NA,NA,false
C56evTXs,3headtgn3s5yqh3y5nncdnm28bcvrm,37xitheis0m4esvs58x9cfu4awxcr1,C56evTXs,2020-0188,2020-06-04,13:32:23,13:52:12,NA,incomplete,209,gender,2,1,right,A_M_15.jpg,A_F_13.jpg,C_M_16.jpg,right,760.9999999403954,true,high,NA,NA,NA,NA,NA,NA,NA,false
C56evTXs,3headtgn3s5yqh3y5nncdnm28bcvrm,37xitheis0m4esvs58x9cfu4awxcr1,C56evTXs,2020-0188,2020-06-04,13:32:23,13:52:12,NA,incomplete,210,gender,2,1,right,C_M_08.jpg,C_F_07.jpg,A_M_05.jpg,right,1004.8150001093745,true,high,NA,NA,NA,NA,NA,NA,NA,false
C56evTXs,3headtgn3s5yqh3y5nncdnm28bcvrm,37xitheis0m4esvs58x9cfu4awxcr1,C56evTXs,2020-0188,2020-06-04,13:32:23,13:52:12,NA,incomplete,211,gender,2,1,left,C_F_06.jpg,A_F_02.jpg,C_M_03.jpg,left,677.9150003567338,true,high,NA,NA,NA,NA,NA,NA,NA,false
C56evTXs,3headtgn3s5yqh3y5nncdnm28bcvrm,37xitheis0m4esvs58x9cfu4awxcr1,C56evTXs,2020-0188,2020-06-04,13:32:23,13:52:12,NA,incomplete,212,gender,2,1,right,C_M_04.jpg,C_F_07.jpg,A_M_01.jpg,right,615.5049996450543,true,high,NA,NA,NA,NA,NA,NA,NA,false
C56evTXs,3headtgn3s5yqh3y5nncdnm28bcvrm,37xitheis0m4esvs58x9cfu4awxcr1,C56evTXs,2020-0188,2020-06-04,13:32:23,13:52:12,NA,incomplete,213,gender,2,1,right,C_F_02.jpg,C_M_09.jpg,A_F_06.jpg,right,870.8999999798834,true,high,NA,NA,NA,NA,NA,NA,NA,false
C56evTXs,3headtgn3s5yqh3y5nncdnm28bcvrm,37xitheis0m4esvs58x9cfu4awxcr1,C56evTXs,2020-0188,2020-06-04,13:32:23,13:52:12,NA,incomplete,214,gender,2,1,right,A_M_11.jpg,A_F_13.jpg,C_M_04.jpg,right,729.6450003050268,true,high,NA,NA,NA,NA,NA,NA,NA,false
C56evTXs,3headtgn3s5yqh3y5nncdnm28bcvrm,37xitheis0m4esvs58x9cfu4awxcr1,C56evTXs,2020-0188,2020-06-04,13:32:23,13:52:12,NA,incomplete,215,gender,2,0,left,C_F_06.jpg,A_F_02.jpg,C_M_08.jpg,left,546.6749998740852,true,high,NA,NA,NA,NA,NA,NA,NA,false
C56evTXs,3headtgn3s5yqh3y5nncdnm28bcvrm,37xitheis0m4esvs58x9cfu4awxcr1,C56evTXs,2020-0188,2020-06-04,13:32:23,13:52:12,NA,incomplete,216,gender,2,1,left,A_M_07.jpg,C_M_13.jpg,A_F_03.jpg,left,1051.0700000450015,true,high,NA,NA,NA,NA,NA,NA,NA,false
C56evTXs,3headtgn3s5yqh3y5nncdnm28bcvrm,37xitheis0m4esvs58x9cfu4awxcr1,C56evTXs,2020-0188,2020-06-04,13:32:23,13:52:12,NA,incomplete,217,gender,2,1,left,C_F_02.jpg,A_F_09.jpg,C_M_07.jpg,left,640.8549998886883,true,high,NA,NA,NA,NA,NA,NA,NA,false
C56evTXs,3headtgn3s5yqh3y5nncdnm28bcvrm,37xitheis0m4esvs58x9cfu4awxcr1,C56evTXs,2020-0188,2020-06-04,13:32:23,13:52:12,NA,incomplete,218,gender,2,1,right,A_F_16.jpg,A_M_08.jpg,C_F_11.jpg,right,564.1450001858175,true,high,NA,NA,NA,NA,NA,NA,NA,false
C56evTXs,3headtgn3s5yqh3y5nncdnm28bcvrm,37xitheis0m4esvs58x9cfu4awxcr1,C56evTXs,2020-0188,2020-06-04,13:32:23,13:52:12,NA,incomplete,219,gender,2,1,left,A_M_15.jpg,C_M_07.jpg,A_F_13.jpg,left,1119.005000218749,true,high,NA,NA,NA,NA,NA,NA,NA,false
C56evTXs,3headtgn3s5yqh3y5nncdnm28bcvrm,37xitheis0m4esvs58x9cfu4awxcr1,C56evTXs,2020-0188,2020-06-04,13:32:23,13:52:12,NA,incomplete,220,race,3,1,right,A_M_12.jpg,C_M_09.jpg,A_F_15.jpg,left,944.2500001750886,false,high,NA,NA,NA,NA,NA,NA,NA,false
C56evTXs,3headtgn3s5yqh3y5nncdnm28bcvrm,37xitheis0m4esvs58x9cfu4awxcr1,C56evTXs,2020-0188,2020-06-04,13:32:23,13:52:12,NA,incomplete,221,race,3,1,right,C_F_15.jpg,A_F_10.jpg,C_M_01.jpg,left,721.6150001622736,false,high,NA,NA,NA,NA,NA,NA,NA,false
C56evTXs,3headtgn3s5yqh3y5nncdnm28bcvrm,37xitheis0m4esvs58x9cfu4awxcr1,C56evTXs,2020-0188,2020-06-04,13:32:23,13:52:12,NA,incomplete,222,race,3,0,left,A_F_11.jpg,A_M_13.jpg,C_F_04.jpg,left,1057.014999911189,true,high,NA,NA,NA,NA,NA,NA,NA,false
C56evTXs,3headtgn3s5yqh3y5nncdnm28bcvrm,37xitheis0m4esvs58x9cfu4awxcr1,C56evTXs,2020-0188,2020-06-04,13:32:23,13:52:12,NA,incomplete,223,race,3,1,left,C_F_02.jpg,C_M_01.jpg,A_F_09.jpg,right,1508.1799998879433,false,high,NA,NA,NA,NA,NA,NA,NA,false
C56evTXs,3headtgn3s5yqh3y5nncdnm28bcvrm,37xitheis0m4esvs58x9cfu4awxcr1,C56evTXs,2020-0188,2020-06-04,13:32:23,13:52:12,NA,incomplete,224,race,3,1,left,C_F_15.jpg,C_M_06.jpg,A_F_14.jpg,left,881.5649999305606,true,high,NA,NA,NA,NA,NA,NA,NA,false
C56evTXs,3headtgn3s5yqh3y5nncdnm28bcvrm,37xitheis0m4esvs58x9cfu4awxcr1,C56evTXs,2020-0188,2020-06-04,13:32:23,13:52:12,NA,incomplete,225,race,3,1,left,A_M_06.jpg,A_F_15.jpg,C_M_10.jpg,left,1024.6600001119077,true,high,NA,NA,NA,NA,NA,NA,NA,false
C56evTXs,3headtgn3s5yqh3y5nncdnm28bcvrm,37xitheis0m4esvs58x9cfu4awxcr1,C56evTXs,2020-0188,2020-06-04,13:32:23,13:52:12,NA,incomplete,226,race,3,1,right,A_M_03.jpg,C_M_13.jpg,A_F_04.jpg,right,649.0100002847612,true,high,NA,NA,NA,NA,NA,NA,NA,false
C56evTXs,3headtgn3s5yqh3y5nncdnm28bcvrm,37xitheis0m4esvs58x9cfu4awxcr1,C56evTXs,2020-0188,2020-06-04,13:32:23,13:52:12,NA,incomplete,227,race,3,1,left,A_M_13.jpg,A_F_09.jpg,C_M_02.jpg,right,629.7299996949732,false,high,NA,NA,NA,NA,NA,NA,NA,false
C56evTXs,3headtgn3s5yqh3y5nncdnm28bcvrm,37xitheis0m4esvs58x9cfu4awxcr1,C56evTXs,2020-0188,2020-06-04,13:32:23,13:52:12,NA,incomplete,228,race,3,1,right,C_F_16.jpg,A_F_08.jpg,C_M_06.jpg,right,689.3899999558926,true,high,NA,NA,NA,NA,NA,NA,NA,false
C56evTXs,3headtgn3s5yqh3y5nncdnm28bcvrm,37xitheis0m4esvs58x9cfu4awxcr1,C56evTXs,2020-0188,2020-06-04,13:32:23,13:52:12,NA,incomplete,229,race,3,1,left,A_F_09.jpg,A_M_07.jpg,C_F_02.jpg,left,683.9550002478063,true,high,NA,NA,NA,NA,NA,NA,NA,false
C56evTXs,3headtgn3s5yqh3y5nncdnm28bcvrm,37xitheis0m4esvs58x9cfu4awxcr1,C56evTXs,2020-0188,2020-06-04,13:32:23,13:52:12,NA,incomplete,230,race,3,1,right,C_F_13.jpg,A_F_14.jpg,C_M_04.jpg,right,1248.494999948889,true,high,NA,NA,NA,NA,NA,NA,NA,false
C56evTXs,3headtgn3s5yqh3y5nncdnm28bcvrm,37xitheis0m4esvs58x9cfu4awxcr1,C56evTXs,2020-0188,2020-06-04,13:32:23,13:52:12,NA,incomplete,231,race,3,1,right,A_M_14.jpg,C_M_12.jpg,A_F_11.jpg,right,641.2149998359382,true,high,NA,NA,NA,NA,NA,NA,NA,false
C56evTXs,3headtgn3s5yqh3y5nncdnm28bcvrm,37xitheis0m4esvs58x9cfu4awxcr1,C56evTXs,2020-0188,2020-06-04,13:32:23,13:52:12,NA,incomplete,232,race,3,1,left,C_F_12.jpg,C_M_09.jpg,A_F_04.jpg,left,892.4899999983609,true,high,NA,NA,NA,NA,NA,NA,NA,false
C56evTXs,3headtgn3s5yqh3y5nncdnm28bcvrm,37xitheis0m4esvs58x9cfu4awxcr1,C56evTXs,2020-0188,2020-06-04,13:32:23,13:52:12,NA,incomplete,233,race,3,1,right,A_F_01.jpg,C_F_09.jpg,A_M_08.jpg,right,887.6049998216331,true,high,NA,NA,NA,NA,NA,NA,NA,false
C56evTXs,3headtgn3s5yqh3y5nncdnm28bcvrm,37xitheis0m4esvs58x9cfu4awxcr1,C56evTXs,2020-0188,2020-06-04,13:32:23,13:52:12,NA,incomplete,234,race,3,1,left,C_F_06.jpg,C_M_12.jpg,A_F_02.jpg,left,1125.9700004011393,true,high,NA,NA,NA,NA,NA,NA,NA,false
C56evTXs,3headtgn3s5yqh3y5nncdnm28bcvrm,37xitheis0m4esvs58x9cfu4awxcr1,C56evTXs,2020-0188,2020-06-04,13:32:23,13:52:12,NA,incomplete,235,race,3,1,right,A_F_03.jpg,C_F_11.jpg,A_M_10.jpg,right,936.7749998345971,true,high,NA,NA,NA,NA,NA,NA,NA,false
C56evTXs,3headtgn3s5yqh3y5nncdnm28bcvrm,37xitheis0m4esvs58x9cfu4awxcr1,C56evTXs,2020-0188,2020-06-04,13:32:23,13:52:12,NA,incomplete,236,race,3,1,left,A_M_14.jpg,A_F_08.jpg,C_M_05.jpg,left,695.3849997371435,true,high,NA,NA,NA,NA,NA,NA,NA,false
C56evTXs,3headtgn3s5yqh3y5nncdnm28bcvrm,37xitheis0m4esvs58x9cfu4awxcr1,C56evTXs,2020-0188,2020-06-04,13:32:23,13:52:12,NA,incomplete,237,race,3,1,left,A_F_13.jpg,A_M_06.jpg,C_F_15.jpg,left,892.8700000979006,true,high,NA,NA,NA,NA,NA,NA,NA,false
C56evTXs,3headtgn3s5yqh3y5nncdnm28bcvrm,37xitheis0m4esvs58x9cfu4awxcr1,C56evTXs,2020-0188,2020-06-04,13:32:23,13:52:12,NA,incomplete,238,race,3,0,left,A_M_04.jpg,A_F_05.jpg,C_M_06.jpg,left,1050.8200000040233,true,high,NA,NA,NA,NA,NA,NA,NA,false
C56evTXs,3headtgn3s5yqh3y5nncdnm28bcvrm,37xitheis0m4esvs58x9cfu4awxcr1,C56evTXs,2020-0188,2020-06-04,13:32:23,13:52:12,NA,incomplete,239,race,3,1,right,C_F_11.jpg,A_F_13.jpg,C_M_04.jpg,right,852.0849999040365,true,high,NA,NA,NA,NA,NA,NA,NA,false
C56evTXs,3headtgn3s5yqh3y5nncdnm28bcvrm,37xitheis0m4esvs58x9cfu4awxcr1,C56evTXs,2020-0188,2020-06-04,13:32:23,13:52:12,NA,NA,instruction example,color,NA,NA,NA,Green_Plus_Grid_1.jpg,Green_Star_Chess_4.jpg,Blue_Circle_Grid_3.jpg,NA,NA,NA,NA,NA,NA,NA,NA,NA,NA,NA,undefined
C56evTXs,3headtgn3s5yqh3y5nncdnm28bcvrm,37xitheis0m4esvs58x9cfu4awxcr1,C56evTXs,2020-0188,2020-06-04,13:32:23,13:52:12,NA,NA,instruction example,color,NA,NA,NA,Purple_Plus_Grid_2.jpg,Green_Star_Grid_3.jpg,Purple_Triangle_Dots_1.jpg,NA,NA,NA,NA,NA,NA,NA,NA,NA,NA,NA,undefined
C56evTXs,3headtgn3s5yqh3y5nncdnm28bcvrm,37xitheis0m4esvs58x9cfu4awxcr1,C56evTXs,2020-0188,2020-06-04,13:32:23,13:52:12,NA,NA,instruction example,color,NA,NA,NA,C_F_05.jpg,A_F_04.jpg,C_M_06.jpg,NA,NA,NA,NA,NA,NA,NA,NA,NA,NA,NA,undefined
C56evTXs,3headtgn3s5yqh3y5nncdnm28bcvrm,37xitheis0m4esvs58x9cfu4awxcr1,C56evTXs,2020-0188,2020-06-04,13:32:23,13:52:12,NA,NA,instruction example,color,NA,NA,NA,C_F_07.jpg,C_M_12.jpg,A_F_02.jpg,NA,NA,NA,NA,NA,NA,NA,NA,NA,NA,NA,undefined
C56evTXs,3headtgn3s5yqh3y5nncdnm28bcvrm,37xitheis0m4esvs58x9cfu4awxcr1,C56evTXs,2020-0188,2020-06-04,13:32:23,13:52:12,1161951.175000053,1192651.9800000824,NA,NA,NA,NA,NA,NA,NA,NA,NA,NA,NA,NA,23,Do not wish to reply,Do not wish to reply,Do not wish to reply,no,Do not wish to reply,Do not wish to reply,undefined
