workerId,hitId,assignmentId,subject,studyid,exp_date,exp_start,exp_end,time_start,time_end,trial,type,sequence,reward_validity,answer,image_top,image_left,image_right,response,response_time,response_acc,volatility,age,race,gender,ethnicity,color,vision,neuro,practice
z8TUdBCK,3atyli1pswfm29bow6spg463876ojo,37zheehm60z6j9fu31o2evzbzrb37i,z8TUdBCK,2020-0188,2020-11-18,04:13:25,04:41:35,NA,incomplete,0,filling,0,1,left,Purple_Star_Chess_4.jpg,Blue_Triangle_Chess_2.jpg,Red_Plus_Grid_4.jpg,left,1899.8150000115857,true,NA,NA,NA,NA,NA,NA,NA,NA,true
z8TUdBCK,3atyli1pswfm29bow6spg463876ojo,37zheehm60z6j9fu31o2evzbzrb37i,z8TUdBCK,2020-0188,2020-11-18,04:13:25,04:41:35,NA,incomplete,1,filling,0,1,right,Green_Circle_Dots_2.jpg,Purple_Star_Stripes_2.jpg,Blue_Plus_Dots_3.jpg,right,1337.4500000209082,true,NA,NA,NA,NA,NA,NA,NA,NA,true
z8TUdBCK,3atyli1pswfm29bow6spg463876ojo,37zheehm60z6j9fu31o2evzbzrb37i,z8TUdBCK,2020-0188,2020-11-18,04:13:25,04:41:35,NA,incomplete,2,filling,0,1,left,Red_Triangle_Dots_3.jpg,Green_Star_Dots_1.jpg,Purple_Circle_Grid_3.jpg,left,1746.5550000197254,true,NA,NA,NA,NA,NA,NA,NA,NA,true
z8TUdBCK,3atyli1pswfm29bow6spg463876ojo,37zheehm60z6j9fu31o2evzbzrb37i,z8TUdBCK,2020-0188,2020-11-18,04:13:25,04:41:35,NA,incomplete,3,filling,0,0,right,Blue_Triangle_Stripes_2.jpg,Red_Star_Chess_2.jpg,Green_Plus_Stripes_1.jpg,right,927.5799999886658,true,NA,NA,NA,NA,NA,NA,NA,NA,true
z8TUdBCK,3atyli1pswfm29bow6spg463876ojo,37zheehm60z6j9fu31o2evzbzrb37i,z8TUdBCK,2020-0188,2020-11-18,04:13:25,04:41:35,NA,incomplete,4,filling,0,0,left,Blue_Star_Dots_3.jpg,Red_Triangle_Dots_1.jpg,Purple_Plus_Chess_3.jpg,left,1785.7599999988452,true,NA,NA,NA,NA,NA,NA,NA,NA,true
z8TUdBCK,3atyli1pswfm29bow6spg463876ojo,37zheehm60z6j9fu31o2evzbzrb37i,z8TUdBCK,2020-0188,2020-11-18,04:13:25,04:41:35,NA,incomplete,5,filling,0,1,right,Blue_Triangle_Grid_2.jpg,Red_Plus_Chess_2.jpg,Green_Circle_Grid_3.jpg,right,1792.7100000088103,true,NA,NA,NA,NA,NA,NA,NA,NA,true
z8TUdBCK,3atyli1pswfm29bow6spg463876ojo,37zheehm60z6j9fu31o2evzbzrb37i,z8TUdBCK,2020-0188,2020-11-18,04:13:25,04:41:35,NA,incomplete,6,filling,0,0,right,Red_Star_Dots_1.jpg,Blue_Triangle_Chess_1.jpg,Purple_Plus_Dots_2.jpg,right,1663.2950000057463,true,NA,NA,NA,NA,NA,NA,NA,NA,true
z8TUdBCK,3atyli1pswfm29bow6spg463876ojo,37zheehm60z6j9fu31o2evzbzrb37i,z8TUdBCK,2020-0188,2020-11-18,04:13:25,04:41:35,NA,incomplete,7,filling,0,1,left,Green_Star_Stripes_3.jpg,Blue_Plus_Stripes_2.jpg,Red_Triangle_Chess_3.jpg,left,1103.6999999778345,true,NA,NA,NA,NA,NA,NA,NA,NA,true
z8TUdBCK,3atyli1pswfm29bow6spg463876ojo,37zheehm60z6j9fu31o2evzbzrb37i,z8TUdBCK,2020-0188,2020-11-18,04:13:25,04:41:35,NA,incomplete,8,filling,0,1,right,Blue_Triangle_Chess_2.jpg,Red_Plus_Stripes_2.jpg,Purple_Circle_Chess_3.jpg,right,1313.800000003539,true,NA,NA,NA,NA,NA,NA,NA,NA,true
z8TUdBCK,3atyli1pswfm29bow6spg463876ojo,37zheehm60z6j9fu31o2evzbzrb37i,z8TUdBCK,2020-0188,2020-11-18,04:13:25,04:41:35,NA,incomplete,9,filling,0,1,right,Red_Triangle_Dots_4.jpg,Green_Circle_Stripes_4.jpg,Blue_Plus_Dots_3.jpg,right,1231.2199999869335,true,NA,NA,NA,NA,NA,NA,NA,NA,true
z8TUdBCK,3atyli1pswfm29bow6spg463876ojo,37zheehm60z6j9fu31o2evzbzrb37i,z8TUdBCK,2020-0188,2020-11-18,04:13:25,04:41:35,NA,incomplete,10,filling,0,0,left,Blue_Triangle_Grid_4.jpg,Red_Plus_Grid_3.jpg,Purple_Circle_Chess_4.jpg,left,1414.4300000043586,true,NA,NA,NA,NA,NA,NA,NA,NA,true
z8TUdBCK,3atyli1pswfm29bow6spg463876ojo,37zheehm60z6j9fu31o2evzbzrb37i,z8TUdBCK,2020-0188,2020-11-18,04:13:25,04:41:35,NA,incomplete,11,filling,0,1,right,Red_Triangle_Dots_3.jpg,Blue_Circle_Chess_3.jpg,Green_Star_Dots_1.jpg,right,1610.4950000008103,true,NA,NA,NA,NA,NA,NA,NA,NA,true
z8TUdBCK,3atyli1pswfm29bow6spg463876ojo,37zheehm60z6j9fu31o2evzbzrb37i,z8TUdBCK,2020-0188,2020-11-18,04:13:25,04:41:35,NA,incomplete,12,filling,0,0,right,Green_Circle_Dots_3.jpg,Purple_Star_Stripes_3.jpg,Blue_Triangle_Dots_4.jpg,right,1444.3949999986216,true,NA,NA,NA,NA,NA,NA,NA,NA,true
z8TUdBCK,3atyli1pswfm29bow6spg463876ojo,37zheehm60z6j9fu31o2evzbzrb37i,z8TUdBCK,2020-0188,2020-11-18,04:13:25,04:41:35,NA,incomplete,13,filling,0,1,left,Purple_Circle_Dots_2.jpg,Green_Plus_Dots_3.jpg,Blue_Triangle_Chess_2.jpg,right,1424.9950000084937,false,NA,NA,NA,NA,NA,NA,NA,NA,true
z8TUdBCK,3atyli1pswfm29bow6spg463876ojo,37zheehm60z6j9fu31o2evzbzrb37i,z8TUdBCK,2020-0188,2020-11-18,04:13:25,04:41:35,NA,incomplete,14,filling,0,1,left,Green_Star_Grid_3.jpg,Red_Plus_Grid_2.jpg,Purple_Triangle_Stripes_3.jpg,left,1226.7749999882653,true,NA,NA,NA,NA,NA,NA,NA,NA,true
z8TUdBCK,3atyli1pswfm29bow6spg463876ojo,37zheehm60z6j9fu31o2evzbzrb37i,z8TUdBCK,2020-0188,2020-11-18,04:13:25,04:41:35,NA,incomplete,15,filling,0,1,right,Green_Triangle_Dots_1.jpg,Purple_Star_Stripes_1.jpg,Red_Plus_Dots_2.jpg,right,1026.624999998603,true,NA,NA,NA,NA,NA,NA,NA,NA,true
z8TUdBCK,3atyli1pswfm29bow6spg463876ojo,37zheehm60z6j9fu31o2evzbzrb37i,z8TUdBCK,2020-0188,2020-11-18,04:13:25,04:41:35,NA,incomplete,16,filling,0,0,left,Red_Triangle_Dots_1.jpg,Blue_Plus_Dots_2.jpg,Purple_Circle_Chess_1.jpg,left,1744.2200000223238,true,NA,NA,NA,NA,NA,NA,NA,NA,true
z8TUdBCK,3atyli1pswfm29bow6spg463876ojo,37zheehm60z6j9fu31o2evzbzrb37i,z8TUdBCK,2020-0188,2020-11-18,04:13:25,04:41:35,NA,incomplete,17,filling,0,1,right,Green_Star_Dots_3.jpg,Red_Plus_Grid_3.jpg,Blue_Triangle_Dots_1.jpg,right,1596.2449999933597,true,NA,NA,NA,NA,NA,NA,NA,NA,true
z8TUdBCK,3atyli1pswfm29bow6spg463876ojo,37zheehm60z6j9fu31o2evzbzrb37i,z8TUdBCK,2020-0188,2020-11-18,04:13:25,04:41:35,NA,incomplete,18,filling,0,1,left,Red_Triangle_Dots_2.jpg,Purple_Circle_Dots_3.jpg,Green_Star_Grid_2.jpg,left,1284.5850000157952,true,NA,NA,NA,NA,NA,NA,NA,NA,true
z8TUdBCK,3atyli1pswfm29bow6spg463876ojo,37zheehm60z6j9fu31o2evzbzrb37i,z8TUdBCK,2020-0188,2020-11-18,04:13:25,04:41:35,NA,incomplete,19,filling,0,0,right,Blue_Star_Chess_4.jpg,Green_Triangle_Dots_4.jpg,Purple_Circle_Chess_3.jpg,right,1453.4350000030827,true,NA,NA,NA,NA,NA,NA,NA,NA,true
z8TUdBCK,3atyli1pswfm29bow6spg463876ojo,37zheehm60z6j9fu31o2evzbzrb37i,z8TUdBCK,2020-0188,2020-11-18,04:13:25,04:41:35,NA,incomplete,20,number,1,1,left,Purple_Triangle_Stripes_4.jpg,Red_Plus_Dots_4.jpg,Green_Star_Stripes_3.jpg,right,1661.3049999868963,false,NA,NA,NA,NA,NA,NA,NA,NA,true
z8TUdBCK,3atyli1pswfm29bow6spg463876ojo,37zheehm60z6j9fu31o2evzbzrb37i,z8TUdBCK,2020-0188,2020-11-18,04:13:25,04:41:35,NA,incomplete,21,number,1,1,right,Green_Plus_Dots_3.jpg,Red_Circle_Dots_4.jpg,Purple_Star_Stripes_3.jpg,right,1148.060000006808,true,NA,NA,NA,NA,NA,NA,NA,NA,true
z8TUdBCK,3atyli1pswfm29bow6spg463876ojo,37zheehm60z6j9fu31o2evzbzrb37i,z8TUdBCK,2020-0188,2020-11-18,04:13:25,04:41:35,NA,incomplete,22,number,1,1,right,Green_Triangle_Dots_4.jpg,Red_Circle_Dots_1.jpg,Blue_Star_Grid_4.jpg,right,878.2349999819417,true,NA,NA,NA,NA,NA,NA,NA,NA,true
z8TUdBCK,3atyli1pswfm29bow6spg463876ojo,37zheehm60z6j9fu31o2evzbzrb37i,z8TUdBCK,2020-0188,2020-11-18,04:13:25,04:41:35,NA,incomplete,23,number,1,1,left,Green_Star_Chess_2.jpg,Purple_Circle_Dots_2.jpg,Red_Plus_Chess_3.jpg,left,713.820000004489,true,NA,NA,NA,NA,NA,NA,NA,NA,true
z8TUdBCK,3atyli1pswfm29bow6spg463876ojo,37zheehm60z6j9fu31o2evzbzrb37i,z8TUdBCK,2020-0188,2020-11-18,04:13:25,04:41:35,NA,incomplete,24,number,1,1,right,Blue_Plus_Grid_1.jpg,Red_Circle_Grid_4.jpg,Green_Triangle_Stripes_1.jpg,right,1189.8499999952037,true,NA,NA,NA,NA,NA,NA,NA,NA,true
z8TUdBCK,3atyli1pswfm29bow6spg463876ojo,37zheehm60z6j9fu31o2evzbzrb37i,z8TUdBCK,2020-0188,2020-11-18,04:13:25,04:41:35,NA,incomplete,25,number,1,1,left,Blue_Circle_Dots_3.jpg,Purple_Triangle_Chess_3.jpg,Green_Star_Dots_4.jpg,left,931.8800000182819,true,NA,NA,NA,NA,NA,NA,NA,NA,true
z8TUdBCK,3atyli1pswfm29bow6spg463876ojo,37zheehm60z6j9fu31o2evzbzrb37i,z8TUdBCK,2020-0188,2020-11-18,04:13:25,04:41:35,NA,incomplete,26,number,1,1,left,Purple_Circle_Stripes_3.jpg,Red_Star_Grid_3.jpg,Green_Plus_Stripes_1.jpg,left,656.7550000036135,true,NA,NA,NA,NA,NA,NA,NA,NA,true
z8TUdBCK,3atyli1pswfm29bow6spg463876ojo,37zheehm60z6j9fu31o2evzbzrb37i,z8TUdBCK,2020-0188,2020-11-18,04:13:25,04:41:35,NA,incomplete,27,number,1,1,left,Red_Star_Chess_4.jpg,Blue_Circle_Stripes_4.jpg,Purple_Plus_Chess_3.jpg,left,768.7049999949522,true,NA,NA,NA,NA,NA,NA,NA,NA,true
z8TUdBCK,3atyli1pswfm29bow6spg463876ojo,37zheehm60z6j9fu31o2evzbzrb37i,z8TUdBCK,2020-0188,2020-11-18,04:13:25,04:41:35,NA,incomplete,28,number,1,1,right,Green_Star_Dots_3.jpg,Purple_Circle_Dots_4.jpg,Blue_Triangle_Grid_3.jpg,right,725.4449999891222,true,NA,NA,NA,NA,NA,NA,NA,NA,true
z8TUdBCK,3atyli1pswfm29bow6spg463876ojo,37zheehm60z6j9fu31o2evzbzrb37i,z8TUdBCK,2020-0188,2020-11-18,04:13:25,04:41:35,NA,incomplete,29,number,1,1,left,Blue_Triangle_Stripes_2.jpg,Purple_Star_Chess_2.jpg,Red_Circle_Stripes_4.jpg,left,660.3549999999814,true,NA,NA,NA,NA,NA,NA,NA,NA,true
z8TUdBCK,3atyli1pswfm29bow6spg463876ojo,37zheehm60z6j9fu31o2evzbzrb37i,z8TUdBCK,2020-0188,2020-11-18,04:13:25,04:41:35,NA,incomplete,30,number,1,1,right,Purple_Triangle_Dots_2.jpg,Green_Circle_Dots_4.jpg,Blue_Plus_Stripes_2.jpg,right,698.724999994738,true,NA,NA,NA,NA,NA,NA,NA,NA,true
z8TUdBCK,3atyli1pswfm29bow6spg463876ojo,37zheehm60z6j9fu31o2evzbzrb37i,z8TUdBCK,2020-0188,2020-11-18,04:13:25,04:41:35,NA,incomplete,31,number,1,1,left,Purple_Circle_Grid_1.jpg,Green_Triangle_Stripes_1.jpg,Red_Star_Grid_2.jpg,left,906.2449999910314,true,NA,NA,NA,NA,NA,NA,NA,NA,true
z8TUdBCK,3atyli1pswfm29bow6spg463876ojo,37zheehm60z6j9fu31o2evzbzrb37i,z8TUdBCK,2020-0188,2020-11-18,04:13:25,04:41:35,NA,incomplete,32,number,1,1,left,Purple_Plus_Grid_2.jpg,Blue_Triangle_Stripes_2.jpg,Green_Star_Grid_3.jpg,left,630.7150000066031,true,NA,NA,NA,NA,NA,NA,NA,NA,true
z8TUdBCK,3atyli1pswfm29bow6spg463876ojo,37zheehm60z6j9fu31o2evzbzrb37i,z8TUdBCK,2020-0188,2020-11-18,04:13:25,04:41:35,NA,incomplete,33,number,1,0,left,Red_Plus_Dots_3.jpg,Blue_Star_Grid_3.jpg,Purple_Circle_Dots_4.jpg,left,608.9700000011362,true,NA,NA,NA,NA,NA,NA,NA,NA,true
z8TUdBCK,3atyli1pswfm29bow6spg463876ojo,37zheehm60z6j9fu31o2evzbzrb37i,z8TUdBCK,2020-0188,2020-11-18,04:13:25,04:41:35,NA,incomplete,34,number,1,1,left,Red_Star_Grid_3.jpg,Green_Circle_Stripes_3.jpg,Blue_Plus_Grid_2.jpg,left,1217.3100000072736,true,NA,NA,NA,NA,NA,NA,NA,NA,true
z8TUdBCK,3atyli1pswfm29bow6spg463876ojo,37zheehm60z6j9fu31o2evzbzrb37i,z8TUdBCK,2020-0188,2020-11-18,04:13:25,04:41:35,NA,incomplete,35,number,1,1,left,Purple_Star_Grid_3.jpg,Red_Circle_Stripes_3.jpg,Green_Triangle_Grid_2.jpg,left,709.9299999827053,true,NA,NA,NA,NA,NA,NA,NA,NA,true
z8TUdBCK,3atyli1pswfm29bow6spg463876ojo,37zheehm60z6j9fu31o2evzbzrb37i,z8TUdBCK,2020-0188,2020-11-18,04:13:25,04:41:35,NA,incomplete,36,number,1,1,left,Green_Star_Dots_3.jpg,Blue_Circle_Grid_3.jpg,Red_Plus_Dots_4.jpg,left,759.859999991022,true,NA,NA,NA,NA,NA,NA,NA,NA,true
z8TUdBCK,3atyli1pswfm29bow6spg463876ojo,37zheehm60z6j9fu31o2evzbzrb37i,z8TUdBCK,2020-0188,2020-11-18,04:13:25,04:41:35,NA,incomplete,37,number,1,1,left,Red_Triangle_Chess_3.jpg,Blue_Circle_Dots_3.jpg,Purple_Plus_Chess_2.jpg,left,636.209999996936,true,NA,NA,NA,NA,NA,NA,NA,NA,true
z8TUdBCK,3atyli1pswfm29bow6spg463876ojo,37zheehm60z6j9fu31o2evzbzrb37i,z8TUdBCK,2020-0188,2020-11-18,04:13:25,04:41:35,NA,incomplete,38,number,1,1,left,Green_Circle_Chess_2.jpg,Purple_Star_Stripes_2.jpg,Red_Plus_Chess_4.jpg,left,770.9049999830313,true,NA,NA,NA,NA,NA,NA,NA,NA,true
z8TUdBCK,3atyli1pswfm29bow6spg463876ojo,37zheehm60z6j9fu31o2evzbzrb37i,z8TUdBCK,2020-0188,2020-11-18,04:13:25,04:41:35,NA,incomplete,39,number,1,1,right,Green_Star_Chess_3.jpg,Purple_Plus_Chess_1.jpg,Blue_Triangle_Stripes_3.jpg,right,781.5500000142492,true,NA,NA,NA,NA,NA,NA,NA,NA,true
z8TUdBCK,3atyli1pswfm29bow6spg463876ojo,37zheehm60z6j9fu31o2evzbzrb37i,z8TUdBCK,2020-0188,2020-11-18,04:13:25,04:41:35,NA,incomplete,0,filling,0,1,right,Purple_Triangle_Dots_4.jpg,Blue_Plus_Grid_4.jpg,Green_Star_Dots_2.jpg,right,1292.2149999940302,true,low,NA,NA,NA,NA,NA,NA,NA,false
z8TUdBCK,3atyli1pswfm29bow6spg463876ojo,37zheehm60z6j9fu31o2evzbzrb37i,z8TUdBCK,2020-0188,2020-11-18,04:13:25,04:41:35,NA,incomplete,1,filling,0,1,right,Blue_Triangle_Dots_4.jpg,Green_Plus_Grid_4.jpg,Purple_Star_Dots_1.jpg,none,0,false,low,NA,NA,NA,NA,NA,NA,NA,false
z8TUdBCK,3atyli1pswfm29bow6spg463876ojo,37zheehm60z6j9fu31o2evzbzrb37i,z8TUdBCK,2020-0188,2020-11-18,04:13:25,04:41:35,NA,incomplete,2,filling,0,1,left,Red_Plus_Dots_1.jpg,Green_Star_Dots_4.jpg,Purple_Circle_Stripes_1.jpg,left,1190.1899999938905,true,low,NA,NA,NA,NA,NA,NA,NA,false
z8TUdBCK,3atyli1pswfm29bow6spg463876ojo,37zheehm60z6j9fu31o2evzbzrb37i,z8TUdBCK,2020-0188,2020-11-18,04:13:25,04:41:35,NA,incomplete,3,filling,0,1,right,Blue_Star_Grid_2.jpg,Green_Circle_Dots_2.jpg,Purple_Plus_Grid_3.jpg,right,1075.7500000181608,true,low,NA,NA,NA,NA,NA,NA,NA,false
z8TUdBCK,3atyli1pswfm29bow6spg463876ojo,37zheehm60z6j9fu31o2evzbzrb37i,z8TUdBCK,2020-0188,2020-11-18,04:13:25,04:41:35,NA,incomplete,4,filling,0,1,left,Blue_Triangle_Grid_2.jpg,Green_Plus_Grid_3.jpg,Purple_Star_Chess_2.jpg,left,804.5799999963492,true,low,NA,NA,NA,NA,NA,NA,NA,false
z8TUdBCK,3atyli1pswfm29bow6spg463876ojo,37zheehm60z6j9fu31o2evzbzrb37i,z8TUdBCK,2020-0188,2020-11-18,04:13:25,04:41:35,NA,incomplete,5,filling,0,1,right,Blue_Triangle_Grid_2.jpg,Green_Plus_Chess_2.jpg,Purple_Circle_Grid_1.jpg,right,1293.98499999661,true,low,NA,NA,NA,NA,NA,NA,NA,false
z8TUdBCK,3atyli1pswfm29bow6spg463876ojo,37zheehm60z6j9fu31o2evzbzrb37i,z8TUdBCK,2020-0188,2020-11-18,04:13:25,04:41:35,NA,incomplete,6,filling,0,1,left,Green_Triangle_Dots_3.jpg,Red_Star_Dots_1.jpg,Purple_Circle_Stripes_3.jpg,left,953.2500000204891,true,low,NA,NA,NA,NA,NA,NA,NA,false
z8TUdBCK,3atyli1pswfm29bow6spg463876ojo,37zheehm60z6j9fu31o2evzbzrb37i,z8TUdBCK,2020-0188,2020-11-18,04:13:25,04:41:35,NA,incomplete,7,filling,0,1,left,Green_Circle_Grid_1.jpg,Blue_Star_Grid_4.jpg,Purple_Plus_Dots_1.jpg,left,1135.1700000232086,true,low,NA,NA,NA,NA,NA,NA,NA,false
z8TUdBCK,3atyli1pswfm29bow6spg463876ojo,37zheehm60z6j9fu31o2evzbzrb37i,z8TUdBCK,2020-0188,2020-11-18,04:13:25,04:41:35,NA,incomplete,8,filling,0,0,right,Blue_Star_Grid_1.jpg,Purple_Plus_Chess_1.jpg,Red_Circle_Grid_3.jpg,right,1038.4950000152458,true,low,NA,NA,NA,NA,NA,NA,NA,false
z8TUdBCK,3atyli1pswfm29bow6spg463876ojo,37zheehm60z6j9fu31o2evzbzrb37i,z8TUdBCK,2020-0188,2020-11-18,04:13:25,04:41:35,NA,incomplete,9,filling,0,1,left,Green_Plus_Stripes_4.jpg,Red_Triangle_Stripes_2.jpg,Blue_Circle_Dots_4.jpg,left,945.6800000043586,true,low,NA,NA,NA,NA,NA,NA,NA,false
z8TUdBCK,3atyli1pswfm29bow6spg463876ojo,37zheehm60z6j9fu31o2evzbzrb37i,z8TUdBCK,2020-0188,2020-11-18,04:13:25,04:41:35,NA,incomplete,10,number,1,1,right,Red_Plus_Grid_4.jpg,Blue_Circle_Grid_1.jpg,Purple_Triangle_Stripes_4.jpg,left,1212.1249999909196,false,low,NA,NA,NA,NA,NA,NA,NA,false
z8TUdBCK,3atyli1pswfm29bow6spg463876ojo,37zheehm60z6j9fu31o2evzbzrb37i,z8TUdBCK,2020-0188,2020-11-18,04:13:25,04:41:35,NA,incomplete,11,number,1,1,right,Red_Triangle_Grid_3.jpg,Purple_Plus_Grid_2.jpg,Blue_Circle_Dots_3.jpg,left,974.0900000033434,false,low,NA,NA,NA,NA,NA,NA,NA,false
z8TUdBCK,3atyli1pswfm29bow6spg463876ojo,37zheehm60z6j9fu31o2evzbzrb37i,z8TUdBCK,2020-0188,2020-11-18,04:13:25,04:41:35,NA,incomplete,12,number,1,1,left,Red_Circle_Grid_1.jpg,Blue_Plus_Dots_1.jpg,Green_Triangle_Grid_3.jpg,right,1076.7300000006799,false,low,NA,NA,NA,NA,NA,NA,NA,false
z8TUdBCK,3atyli1pswfm29bow6spg463876ojo,37zheehm60z6j9fu31o2evzbzrb37i,z8TUdBCK,2020-0188,2020-11-18,04:13:25,04:41:35,NA,incomplete,13,number,1,1,right,Purple_Star_Dots_3.jpg,Blue_Triangle_Dots_2.jpg,Green_Plus_Chess_3.jpg,right,871.5850000153296,true,low,NA,NA,NA,NA,NA,NA,NA,false
z8TUdBCK,3atyli1pswfm29bow6spg463876ojo,37zheehm60z6j9fu31o2evzbzrb37i,z8TUdBCK,2020-0188,2020-11-18,04:13:25,04:41:35,NA,incomplete,14,number,1,1,right,Green_Triangle_Grid_1.jpg,Blue_Star_Grid_4.jpg,Red_Plus_Dots_1.jpg,right,1147.2850000136532,true,low,NA,NA,NA,NA,NA,NA,NA,false
z8TUdBCK,3atyli1pswfm29bow6spg463876ojo,37zheehm60z6j9fu31o2evzbzrb37i,z8TUdBCK,2020-0188,2020-11-18,04:13:25,04:41:35,NA,incomplete,15,number,1,1,left,Green_Triangle_Grid_3.jpg,Red_Star_Stripes_3.jpg,Blue_Plus_Grid_1.jpg,left,1385.2500000211876,true,low,NA,NA,NA,NA,NA,NA,NA,false
z8TUdBCK,3atyli1pswfm29bow6spg463876ojo,37zheehm60z6j9fu31o2evzbzrb37i,z8TUdBCK,2020-0188,2020-11-18,04:13:25,04:41:35,NA,incomplete,16,number,1,1,left,Red_Star_Chess_3.jpg,Green_Plus_Dots_3.jpg,Purple_Triangle_Chess_2.jpg,left,635.2900000056252,true,low,NA,NA,NA,NA,NA,NA,NA,false
z8TUdBCK,3atyli1pswfm29bow6spg463876ojo,37zheehm60z6j9fu31o2evzbzrb37i,z8TUdBCK,2020-0188,2020-11-18,04:13:25,04:41:35,NA,incomplete,17,number,1,1,left,Purple_Plus_Dots_4.jpg,Red_Circle_Chess_4.jpg,Blue_Star_Dots_2.jpg,left,664.5499999867752,true,low,NA,NA,NA,NA,NA,NA,NA,false
z8TUdBCK,3atyli1pswfm29bow6spg463876ojo,37zheehm60z6j9fu31o2evzbzrb37i,z8TUdBCK,2020-0188,2020-11-18,04:13:25,04:41:35,NA,incomplete,18,number,1,1,left,Red_Plus_Grid_1.jpg,Purple_Star_Chess_1.jpg,Green_Triangle_Grid_2.jpg,left,651.4700000116136,true,low,NA,NA,NA,NA,NA,NA,NA,false
z8TUdBCK,3atyli1pswfm29bow6spg463876ojo,37zheehm60z6j9fu31o2evzbzrb37i,z8TUdBCK,2020-0188,2020-11-18,04:13:25,04:41:35,NA,incomplete,19,number,1,0,left,Purple_Circle_Stripes_4.jpg,Blue_Triangle_Dots_4.jpg,Red_Plus_Stripes_3.jpg,left,1474.774999980582,true,low,NA,NA,NA,NA,NA,NA,NA,false
z8TUdBCK,3atyli1pswfm29bow6spg463876ojo,37zheehm60z6j9fu31o2evzbzrb37i,z8TUdBCK,2020-0188,2020-11-18,04:13:25,04:41:35,NA,incomplete,20,filling,0,1,right,Blue_Circle_Dots_1.jpg,Purple_Plus_Stripes_1.jpg,Green_Star_Dots_2.jpg,left,863.9499999990221,false,low,NA,NA,NA,NA,NA,NA,NA,false
z8TUdBCK,3atyli1pswfm29bow6spg463876ojo,37zheehm60z6j9fu31o2evzbzrb37i,z8TUdBCK,2020-0188,2020-11-18,04:13:25,04:41:35,NA,incomplete,21,filling,0,1,right,Blue_Triangle_Chess_4.jpg,Red_Circle_Stripes_4.jpg,Purple_Plus_Chess_3.jpg,left,738.260000012815,false,low,NA,NA,NA,NA,NA,NA,NA,false
z8TUdBCK,3atyli1pswfm29bow6spg463876ojo,37zheehm60z6j9fu31o2evzbzrb37i,z8TUdBCK,2020-0188,2020-11-18,04:13:25,04:41:35,NA,incomplete,22,filling,0,1,left,Blue_Circle_Chess_2.jpg,Green_Triangle_Chess_4.jpg,Purple_Star_Dots_2.jpg,left,985.4249999916647,true,low,NA,NA,NA,NA,NA,NA,NA,false
z8TUdBCK,3atyli1pswfm29bow6spg463876ojo,37zheehm60z6j9fu31o2evzbzrb37i,z8TUdBCK,2020-0188,2020-11-18,04:13:25,04:41:35,NA,incomplete,23,filling,0,1,left,Red_Triangle_Dots_3.jpg,Blue_Star_Dots_4.jpg,Green_Circle_Stripes_3.jpg,left,1112.2700000123587,true,low,NA,NA,NA,NA,NA,NA,NA,false
z8TUdBCK,3atyli1pswfm29bow6spg463876ojo,37zheehm60z6j9fu31o2evzbzrb37i,z8TUdBCK,2020-0188,2020-11-18,04:13:25,04:41:35,NA,incomplete,24,filling,0,1,left,Red_Star_Dots_4.jpg,Green_Plus_Dots_1.jpg,Purple_Circle_Stripes_4.jpg,left,1131.4300000085495,true,low,NA,NA,NA,NA,NA,NA,NA,false
z8TUdBCK,3atyli1pswfm29bow6spg463876ojo,37zheehm60z6j9fu31o2evzbzrb37i,z8TUdBCK,2020-0188,2020-11-18,04:13:25,04:41:35,NA,incomplete,25,filling,0,1,left,Purple_Plus_Dots_4.jpg,Red_Star_Dots_1.jpg,Green_Triangle_Chess_4.jpg,left,1055.6199999991804,true,low,NA,NA,NA,NA,NA,NA,NA,false
z8TUdBCK,3atyli1pswfm29bow6spg463876ojo,37zheehm60z6j9fu31o2evzbzrb37i,z8TUdBCK,2020-0188,2020-11-18,04:13:25,04:41:35,NA,incomplete,26,filling,0,1,left,Green_Circle_Grid_2.jpg,Blue_Star_Grid_4.jpg,Purple_Triangle_Dots_2.jpg,left,900.2949999994598,true,low,NA,NA,NA,NA,NA,NA,NA,false
z8TUdBCK,3atyli1pswfm29bow6spg463876ojo,37zheehm60z6j9fu31o2evzbzrb37i,z8TUdBCK,2020-0188,2020-11-18,04:13:25,04:41:35,NA,incomplete,27,filling,0,1,left,Purple_Star_Dots_1.jpg,Green_Circle_Dots_4.jpg,Blue_Triangle_Grid_1.jpg,left,970.4899999778718,true,low,NA,NA,NA,NA,NA,NA,NA,false
z8TUdBCK,3atyli1pswfm29bow6spg463876ojo,37zheehm60z6j9fu31o2evzbzrb37i,z8TUdBCK,2020-0188,2020-11-18,04:13:25,04:41:35,NA,incomplete,28,filling,0,1,left,Green_Circle_Chess_3.jpg,Purple_Star_Chess_1.jpg,Red_Plus_Dots_3.jpg,left,1247.60500001139,true,low,NA,NA,NA,NA,NA,NA,NA,false
z8TUdBCK,3atyli1pswfm29bow6spg463876ojo,37zheehm60z6j9fu31o2evzbzrb37i,z8TUdBCK,2020-0188,2020-11-18,04:13:25,04:41:35,NA,incomplete,29,filling,0,1,left,Red_Triangle_Grid_4.jpg,Blue_Star_Grid_1.jpg,Green_Circle_Chess_4.jpg,left,1128.0400000105146,true,low,NA,NA,NA,NA,NA,NA,NA,false
z8TUdBCK,3atyli1pswfm29bow6spg463876ojo,37zheehm60z6j9fu31o2evzbzrb37i,z8TUdBCK,2020-0188,2020-11-18,04:13:25,04:41:35,NA,incomplete,30,number,1,1,right,Blue_Star_Stripes_2.jpg,Purple_Circle_Stripes_1.jpg,Green_Triangle_Chess_2.jpg,left,1126.300000003539,false,low,NA,NA,NA,NA,NA,NA,NA,false
z8TUdBCK,3atyli1pswfm29bow6spg463876ojo,37zheehm60z6j9fu31o2evzbzrb37i,z8TUdBCK,2020-0188,2020-11-18,04:13:25,04:41:35,NA,incomplete,31,number,1,0,right,Purple_Circle_Chess_2.jpg,Red_Star_Chess_4.jpg,Green_Triangle_Grid_2.jpg,left,1765.525000024354,false,low,NA,NA,NA,NA,NA,NA,NA,false
z8TUdBCK,3atyli1pswfm29bow6spg463876ojo,37zheehm60z6j9fu31o2evzbzrb37i,z8TUdBCK,2020-0188,2020-11-18,04:13:25,04:41:35,NA,incomplete,32,number,1,1,left,Blue_Plus_Stripes_3.jpg,Green_Triangle_Chess_3.jpg,Purple_Star_Stripes_4.jpg,right,1659.174999978859,false,low,NA,NA,NA,NA,NA,NA,NA,false
z8TUdBCK,3atyli1pswfm29bow6spg463876ojo,37zheehm60z6j9fu31o2evzbzrb37i,z8TUdBCK,2020-0188,2020-11-18,04:13:25,04:41:35,NA,incomplete,33,number,1,1,left,Red_Triangle_Stripes_4.jpg,Purple_Circle_Dots_4.jpg,Green_Star_Stripes_1.jpg,right,1468.4899999992922,false,low,NA,NA,NA,NA,NA,NA,NA,false
z8TUdBCK,3atyli1pswfm29bow6spg463876ojo,37zheehm60z6j9fu31o2evzbzrb37i,z8TUdBCK,2020-0188,2020-11-18,04:13:25,04:41:35,NA,incomplete,34,number,1,1,left,Red_Circle_Chess_3.jpg,Green_Plus_Stripes_3.jpg,Blue_Triangle_Chess_1.jpg,left,1181.0300000070129,true,low,NA,NA,NA,NA,NA,NA,NA,false
z8TUdBCK,3atyli1pswfm29bow6spg463876ojo,37zheehm60z6j9fu31o2evzbzrb37i,z8TUdBCK,2020-0188,2020-11-18,04:13:25,04:41:35,NA,incomplete,35,number,1,1,left,Blue_Triangle_Stripes_1.jpg,Red_Star_Chess_1.jpg,Green_Circle_Stripes_4.jpg,left,768.2700000004843,true,low,NA,NA,NA,NA,NA,NA,NA,false
z8TUdBCK,3atyli1pswfm29bow6spg463876ojo,37zheehm60z6j9fu31o2evzbzrb37i,z8TUdBCK,2020-0188,2020-11-18,04:13:25,04:41:35,NA,incomplete,36,number,1,1,right,Blue_Circle_Stripes_1.jpg,Green_Plus_Stripes_3.jpg,Purple_Star_Dots_1.jpg,right,948.0650000041351,true,low,NA,NA,NA,NA,NA,NA,NA,false
z8TUdBCK,3atyli1pswfm29bow6spg463876ojo,37zheehm60z6j9fu31o2evzbzrb37i,z8TUdBCK,2020-0188,2020-11-18,04:13:25,04:41:35,NA,incomplete,37,number,1,1,left,Purple_Plus_Dots_3.jpg,Blue_Circle_Grid_3.jpg,Green_Star_Dots_1.jpg,left,557.9300000099465,true,low,NA,NA,NA,NA,NA,NA,NA,false
z8TUdBCK,3atyli1pswfm29bow6spg463876ojo,37zheehm60z6j9fu31o2evzbzrb37i,z8TUdBCK,2020-0188,2020-11-18,04:13:25,04:41:35,NA,incomplete,38,number,1,1,left,Green_Star_Dots_4.jpg,Purple_Circle_Grid_4.jpg,Blue_Triangle_Dots_2.jpg,left,654.099999985192,true,low,NA,NA,NA,NA,NA,NA,NA,false
z8TUdBCK,3atyli1pswfm29bow6spg463876ojo,37zheehm60z6j9fu31o2evzbzrb37i,z8TUdBCK,2020-0188,2020-11-18,04:13:25,04:41:35,NA,incomplete,39,number,1,1,left,Blue_Plus_Dots_1.jpg,Red_Triangle_Chess_1.jpg,Purple_Star_Dots_2.jpg,left,647.1850000089034,true,low,NA,NA,NA,NA,NA,NA,NA,false
z8TUdBCK,3atyli1pswfm29bow6spg463876ojo,37zheehm60z6j9fu31o2evzbzrb37i,z8TUdBCK,2020-0188,2020-11-18,04:13:25,04:41:35,NA,incomplete,40,filling,0,0,right,Red_Circle_Grid_4.jpg,Green_Triangle_Chess_4.jpg,Purple_Plus_Grid_1.jpg,left,601.6200000012759,false,low,NA,NA,NA,NA,NA,NA,NA,false
z8TUdBCK,3atyli1pswfm29bow6spg463876ojo,37zheehm60z6j9fu31o2evzbzrb37i,z8TUdBCK,2020-0188,2020-11-18,04:13:25,04:41:35,NA,incomplete,41,filling,0,1,left,Red_Plus_Stripes_4.jpg,Blue_Star_Stripes_1.jpg,Purple_Triangle_Chess_4.jpg,right,647.5749999808613,false,low,NA,NA,NA,NA,NA,NA,NA,false
z8TUdBCK,3atyli1pswfm29bow6spg463876ojo,37zheehm60z6j9fu31o2evzbzrb37i,z8TUdBCK,2020-0188,2020-11-18,04:13:25,04:41:35,NA,incomplete,42,filling,0,0,left,Red_Star_Grid_3.jpg,Green_Circle_Grid_1.jpg,Purple_Triangle_Dots_3.jpg,right,739.2150000086986,false,low,NA,NA,NA,NA,NA,NA,NA,false
z8TUdBCK,3atyli1pswfm29bow6spg463876ojo,37zheehm60z6j9fu31o2evzbzrb37i,z8TUdBCK,2020-0188,2020-11-18,04:13:25,04:41:35,NA,incomplete,43,filling,0,0,right,Red_Plus_Stripes_1.jpg,Green_Circle_Dots_1.jpg,Blue_Star_Stripes_4.jpg,left,838.9549999847077,false,low,NA,NA,NA,NA,NA,NA,NA,false
z8TUdBCK,3atyli1pswfm29bow6spg463876ojo,37zheehm60z6j9fu31o2evzbzrb37i,z8TUdBCK,2020-0188,2020-11-18,04:13:25,04:41:35,NA,incomplete,44,filling,0,0,left,Blue_Star_Stripes_3.jpg,Red_Triangle_Stripes_1.jpg,Purple_Circle_Chess_3.jpg,right,675.1600000134204,false,low,NA,NA,NA,NA,NA,NA,NA,false
z8TUdBCK,3atyli1pswfm29bow6spg463876ojo,37zheehm60z6j9fu31o2evzbzrb37i,z8TUdBCK,2020-0188,2020-11-18,04:13:25,04:41:35,NA,incomplete,45,filling,0,0,right,Green_Circle_Grid_2.jpg,Purple_Plus_Chess_2.jpg,Blue_Triangle_Grid_3.jpg,left,703.190000000177,false,low,NA,NA,NA,NA,NA,NA,NA,false
z8TUdBCK,3atyli1pswfm29bow6spg463876ojo,37zheehm60z6j9fu31o2evzbzrb37i,z8TUdBCK,2020-0188,2020-11-18,04:13:25,04:41:35,NA,incomplete,46,filling,0,1,right,Purple_Star_Grid_2.jpg,Red_Triangle_Chess_2.jpg,Green_Plus_Grid_4.jpg,left,945.8749999757856,false,low,NA,NA,NA,NA,NA,NA,NA,false
z8TUdBCK,3atyli1pswfm29bow6spg463876ojo,37zheehm60z6j9fu31o2evzbzrb37i,z8TUdBCK,2020-0188,2020-11-18,04:13:25,04:41:35,NA,incomplete,47,filling,0,1,right,Purple_Triangle_Dots_3.jpg,Green_Star_Grid_3.jpg,Red_Plus_Dots_1.jpg,left,723.8149999757297,false,low,NA,NA,NA,NA,NA,NA,NA,false
z8TUdBCK,3atyli1pswfm29bow6spg463876ojo,37zheehm60z6j9fu31o2evzbzrb37i,z8TUdBCK,2020-0188,2020-11-18,04:13:25,04:41:35,NA,incomplete,48,filling,0,1,left,Purple_Star_Dots_1.jpg,Blue_Triangle_Dots_4.jpg,Green_Circle_Stripes_1.jpg,left,1093.220000009751,true,low,NA,NA,NA,NA,NA,NA,NA,false
z8TUdBCK,3atyli1pswfm29bow6spg463876ojo,37zheehm60z6j9fu31o2evzbzrb37i,z8TUdBCK,2020-0188,2020-11-18,04:13:25,04:41:35,NA,incomplete,49,filling,0,1,left,Green_Plus_Dots_1.jpg,Blue_Star_Dots_4.jpg,Red_Circle_Stripes_1.jpg,left,1162.2299999871757,true,low,NA,NA,NA,NA,NA,NA,NA,false
z8TUdBCK,3atyli1pswfm29bow6spg463876ojo,37zheehm60z6j9fu31o2evzbzrb37i,z8TUdBCK,2020-0188,2020-11-18,04:13:25,04:41:35,NA,incomplete,50,number,1,0,left,Red_Star_Dots_3.jpg,Purple_Circle_Chess_3.jpg,Blue_Plus_Dots_1.jpg,right,1195.6500000087544,false,low,NA,NA,NA,NA,NA,NA,NA,false
z8TUdBCK,3atyli1pswfm29bow6spg463876ojo,37zheehm60z6j9fu31o2evzbzrb37i,z8TUdBCK,2020-0188,2020-11-18,04:13:25,04:41:35,NA,incomplete,51,number,1,1,right,Green_Circle_Chess_2.jpg,Blue_Plus_Chess_4.jpg,Red_Triangle_Grid_2.jpg,left,1176.3950000167824,false,low,NA,NA,NA,NA,NA,NA,NA,false
z8TUdBCK,3atyli1pswfm29bow6spg463876ojo,37zheehm60z6j9fu31o2evzbzrb37i,z8TUdBCK,2020-0188,2020-11-18,04:13:25,04:41:35,NA,incomplete,52,number,1,1,right,Purple_Star_Chess_2.jpg,Red_Plus_Chess_1.jpg,Blue_Circle_Dots_2.jpg,left,981.0300000244752,false,low,NA,NA,NA,NA,NA,NA,NA,false
z8TUdBCK,3atyli1pswfm29bow6spg463876ojo,37zheehm60z6j9fu31o2evzbzrb37i,z8TUdBCK,2020-0188,2020-11-18,04:13:25,04:41:35,NA,incomplete,53,number,1,1,left,Green_Triangle_Grid_2.jpg,Purple_Plus_Chess_2.jpg,Red_Star_Grid_4.jpg,left,690.0800000003073,true,low,NA,NA,NA,NA,NA,NA,NA,false
z8TUdBCK,3atyli1pswfm29bow6spg463876ojo,37zheehm60z6j9fu31o2evzbzrb37i,z8TUdBCK,2020-0188,2020-11-18,04:13:25,04:41:35,NA,incomplete,54,number,1,1,right,Red_Triangle_Grid_1.jpg,Purple_Plus_Grid_3.jpg,Blue_Star_Chess_1.jpg,right,715.7850000075996,true,low,NA,NA,NA,NA,NA,NA,NA,false
z8TUdBCK,3atyli1pswfm29bow6spg463876ojo,37zheehm60z6j9fu31o2evzbzrb37i,z8TUdBCK,2020-0188,2020-11-18,04:13:25,04:41:35,NA,incomplete,55,number,1,1,right,Blue_Circle_Stripes_1.jpg,Purple_Triangle_Stripes_3.jpg,Green_Plus_Chess_1.jpg,right,1196.6899999824818,true,low,NA,NA,NA,NA,NA,NA,NA,false
z8TUdBCK,3atyli1pswfm29bow6spg463876ojo,37zheehm60z6j9fu31o2evzbzrb37i,z8TUdBCK,2020-0188,2020-11-18,04:13:25,04:41:35,NA,incomplete,56,number,1,1,left,Blue_Star_Dots_1.jpg,Green_Triangle_Stripes_1.jpg,Purple_Plus_Dots_4.jpg,left,964.3999999971129,true,low,NA,NA,NA,NA,NA,NA,NA,false
z8TUdBCK,3atyli1pswfm29bow6spg463876ojo,37zheehm60z6j9fu31o2evzbzrb37i,z8TUdBCK,2020-0188,2020-11-18,04:13:25,04:41:35,NA,incomplete,57,number,1,0,left,Purple_Triangle_Chess_4.jpg,Red_Circle_Dots_4.jpg,Blue_Star_Chess_2.jpg,left,654.9149999918882,true,low,NA,NA,NA,NA,NA,NA,NA,false
z8TUdBCK,3atyli1pswfm29bow6spg463876ojo,37zheehm60z6j9fu31o2evzbzrb37i,z8TUdBCK,2020-0188,2020-11-18,04:13:25,04:41:35,NA,incomplete,58,number,1,0,right,Red_Star_Grid_4.jpg,Blue_Triangle_Grid_3.jpg,Green_Plus_Stripes_4.jpg,right,648.220000002766,true,low,NA,NA,NA,NA,NA,NA,NA,false
z8TUdBCK,3atyli1pswfm29bow6spg463876ojo,37zheehm60z6j9fu31o2evzbzrb37i,z8TUdBCK,2020-0188,2020-11-18,04:13:25,04:41:35,NA,incomplete,59,number,1,0,left,Blue_Plus_Grid_1.jpg,Green_Triangle_Dots_1.jpg,Red_Circle_Grid_2.jpg,right,990.220000006957,false,low,NA,NA,NA,NA,NA,NA,NA,false
z8TUdBCK,3atyli1pswfm29bow6spg463876ojo,37zheehm60z6j9fu31o2evzbzrb37i,z8TUdBCK,2020-0188,2020-11-18,04:13:25,04:41:35,NA,incomplete,60,filling,0,0,left,Green_Plus_Dots_2.jpg,Purple_Triangle_Dots_1.jpg,Red_Circle_Grid_2.jpg,left,1192.1499999880325,true,low,NA,NA,NA,NA,NA,NA,NA,false
z8TUdBCK,3atyli1pswfm29bow6spg463876ojo,37zheehm60z6j9fu31o2evzbzrb37i,z8TUdBCK,2020-0188,2020-11-18,04:13:25,04:41:35,NA,incomplete,61,filling,0,1,right,Purple_Plus_Dots_1.jpg,Red_Circle_Grid_1.jpg,Green_Star_Dots_2.jpg,right,1340.7550000119954,true,low,NA,NA,NA,NA,NA,NA,NA,false
z8TUdBCK,3atyli1pswfm29bow6spg463876ojo,37zheehm60z6j9fu31o2evzbzrb37i,z8TUdBCK,2020-0188,2020-11-18,04:13:25,04:41:35,NA,incomplete,62,filling,0,0,right,Blue_Star_Grid_1.jpg,Red_Circle_Chess_1.jpg,Green_Triangle_Grid_3.jpg,right,1117.3199999902863,true,low,NA,NA,NA,NA,NA,NA,NA,false
z8TUdBCK,3atyli1pswfm29bow6spg463876ojo,37zheehm60z6j9fu31o2evzbzrb37i,z8TUdBCK,2020-0188,2020-11-18,04:13:25,04:41:35,NA,incomplete,63,filling,0,1,right,Red_Circle_Stripes_2.jpg,Purple_Star_Grid_2.jpg,Blue_Plus_Stripes_4.jpg,left,1048.450000002049,false,low,NA,NA,NA,NA,NA,NA,NA,false
z8TUdBCK,3atyli1pswfm29bow6spg463876ojo,37zheehm60z6j9fu31o2evzbzrb37i,z8TUdBCK,2020-0188,2020-11-18,04:13:25,04:41:35,NA,incomplete,64,filling,0,0,right,Green_Circle_Grid_4.jpg,Blue_Triangle_Stripes_4.jpg,Purple_Plus_Grid_3.jpg,right,1315.34499998088,true,low,NA,NA,NA,NA,NA,NA,NA,false
z8TUdBCK,3atyli1pswfm29bow6spg463876ojo,37zheehm60z6j9fu31o2evzbzrb37i,z8TUdBCK,2020-0188,2020-11-18,04:13:25,04:41:35,NA,incomplete,65,filling,0,1,left,Blue_Circle_Dots_3.jpg,Green_Triangle_Dots_1.jpg,Red_Plus_Grid_3.jpg,right,623.844999994617,false,low,NA,NA,NA,NA,NA,NA,NA,false
z8TUdBCK,3atyli1pswfm29bow6spg463876ojo,37zheehm60z6j9fu31o2evzbzrb37i,z8TUdBCK,2020-0188,2020-11-18,04:13:25,04:41:35,NA,incomplete,66,filling,0,1,left,Red_Triangle_Chess_4.jpg,Purple_Star_Chess_1.jpg,Blue_Circle_Stripes_4.jpg,left,1120.3350000141654,true,low,NA,NA,NA,NA,NA,NA,NA,false
z8TUdBCK,3atyli1pswfm29bow6spg463876ojo,37zheehm60z6j9fu31o2evzbzrb37i,z8TUdBCK,2020-0188,2020-11-18,04:13:25,04:41:35,NA,incomplete,67,filling,0,1,right,Purple_Star_Chess_1.jpg,Green_Circle_Dots_1.jpg,Blue_Plus_Chess_3.jpg,right,905.8700000168756,true,low,NA,NA,NA,NA,NA,NA,NA,false
z8TUdBCK,3atyli1pswfm29bow6spg463876ojo,37zheehm60z6j9fu31o2evzbzrb37i,z8TUdBCK,2020-0188,2020-11-18,04:13:25,04:41:35,NA,incomplete,68,filling,0,1,right,Purple_Plus_Stripes_4.jpg,Blue_Star_Grid_4.jpg,Red_Triangle_Stripes_1.jpg,right,1184.815000015078,true,low,NA,NA,NA,NA,NA,NA,NA,false
z8TUdBCK,3atyli1pswfm29bow6spg463876ojo,37zheehm60z6j9fu31o2evzbzrb37i,z8TUdBCK,2020-0188,2020-11-18,04:13:25,04:41:35,NA,incomplete,69,filling,0,1,right,Red_Triangle_Dots_3.jpg,Green_Star_Chess_3.jpg,Purple_Circle_Dots_2.jpg,right,925.1600000134204,true,low,NA,NA,NA,NA,NA,NA,NA,false
z8TUdBCK,3atyli1pswfm29bow6spg463876ojo,37zheehm60z6j9fu31o2evzbzrb37i,z8TUdBCK,2020-0188,2020-11-18,04:13:25,04:41:35,NA,incomplete,70,number,1,0,left,Blue_Triangle_Grid_3.jpg,Green_Plus_Dots_3.jpg,Red_Star_Grid_1.jpg,right,1148.9549999823794,false,low,NA,NA,NA,NA,NA,NA,NA,false
z8TUdBCK,3atyli1pswfm29bow6spg463876ojo,37zheehm60z6j9fu31o2evzbzrb37i,z8TUdBCK,2020-0188,2020-11-18,04:13:25,04:41:35,NA,incomplete,71,number,1,1,left,Red_Plus_Chess_2.jpg,Green_Star_Grid_2.jpg,Blue_Triangle_Chess_4.jpg,right,1060.5100000102539,false,low,NA,NA,NA,NA,NA,NA,NA,false
z8TUdBCK,3atyli1pswfm29bow6spg463876ojo,37zheehm60z6j9fu31o2evzbzrb37i,z8TUdBCK,2020-0188,2020-11-18,04:13:25,04:41:35,NA,incomplete,72,number,1,0,left,Red_Star_Grid_1.jpg,Blue_Triangle_Chess_1.jpg,Purple_Circle_Grid_3.jpg,right,977.0900000003166,false,low,NA,NA,NA,NA,NA,NA,NA,false
z8TUdBCK,3atyli1pswfm29bow6spg463876ojo,37zheehm60z6j9fu31o2evzbzrb37i,z8TUdBCK,2020-0188,2020-11-18,04:13:25,04:41:35,NA,incomplete,73,number,1,0,right,Purple_Circle_Chess_2.jpg,Red_Plus_Chess_1.jpg,Green_Triangle_Stripes_2.jpg,left,1233.3499999949709,false,low,NA,NA,NA,NA,NA,NA,NA,false
z8TUdBCK,3atyli1pswfm29bow6spg463876ojo,37zheehm60z6j9fu31o2evzbzrb37i,z8TUdBCK,2020-0188,2020-11-18,04:13:25,04:41:35,NA,incomplete,74,number,1,1,left,Green_Triangle_Grid_2.jpg,Blue_Star_Dots_2.jpg,Red_Plus_Grid_3.jpg,right,1208.4299999987707,false,low,NA,NA,NA,NA,NA,NA,NA,false
z8TUdBCK,3atyli1pswfm29bow6spg463876ojo,37zheehm60z6j9fu31o2evzbzrb37i,z8TUdBCK,2020-0188,2020-11-18,04:13:25,04:41:35,NA,incomplete,75,number,1,1,left,Red_Circle_Grid_1.jpg,Purple_Star_Stripes_1.jpg,Blue_Plus_Grid_4.jpg,right,921.0599999933038,false,low,NA,NA,NA,NA,NA,NA,NA,false
z8TUdBCK,3atyli1pswfm29bow6spg463876ojo,37zheehm60z6j9fu31o2evzbzrb37i,z8TUdBCK,2020-0188,2020-11-18,04:13:25,04:41:35,NA,incomplete,76,number,1,1,left,Purple_Triangle_Grid_4.jpg,Red_Circle_Dots_4.jpg,Blue_Plus_Grid_3.jpg,left,636.6099999868311,true,low,NA,NA,NA,NA,NA,NA,NA,false
z8TUdBCK,3atyli1pswfm29bow6spg463876ojo,37zheehm60z6j9fu31o2evzbzrb37i,z8TUdBCK,2020-0188,2020-11-18,04:13:25,04:41:35,NA,incomplete,77,number,1,1,left,Green_Circle_Dots_2.jpg,Blue_Triangle_Grid_2.jpg,Purple_Star_Dots_3.jpg,left,588.3200000098441,true,low,NA,NA,NA,NA,NA,NA,NA,false
z8TUdBCK,3atyli1pswfm29bow6spg463876ojo,37zheehm60z6j9fu31o2evzbzrb37i,z8TUdBCK,2020-0188,2020-11-18,04:13:25,04:41:35,NA,incomplete,78,number,1,0,right,Green_Plus_Dots_4.jpg,Red_Star_Dots_3.jpg,Purple_Triangle_Chess_4.jpg,right,622.6200000091922,true,low,NA,NA,NA,NA,NA,NA,NA,false
z8TUdBCK,3atyli1pswfm29bow6spg463876ojo,37zheehm60z6j9fu31o2evzbzrb37i,z8TUdBCK,2020-0188,2020-11-18,04:13:25,04:41:35,NA,incomplete,79,number,1,1,right,Green_Circle_Dots_2.jpg,Purple_Plus_Dots_3.jpg,Blue_Triangle_Grid_2.jpg,right,634.5250000013039,true,low,NA,NA,NA,NA,NA,NA,NA,false
z8TUdBCK,3atyli1pswfm29bow6spg463876ojo,37zheehm60z6j9fu31o2evzbzrb37i,z8TUdBCK,2020-0188,2020-11-18,04:13:25,04:41:35,NA,incomplete,80,filling,0,0,left,Blue_Plus_Grid_3.jpg,Purple_Triangle_Grid_1.jpg,Green_Circle_Stripes_3.jpg,right,630.1950000051875,false,low,NA,NA,NA,NA,NA,NA,NA,false
z8TUdBCK,3atyli1pswfm29bow6spg463876ojo,37zheehm60z6j9fu31o2evzbzrb37i,z8TUdBCK,2020-0188,2020-11-18,04:13:25,04:41:35,NA,incomplete,81,filling,0,1,right,Red_Star_Chess_1.jpg,Green_Circle_Stripes_1.jpg,Blue_Triangle_Chess_4.jpg,left,823.0299999995623,false,low,NA,NA,NA,NA,NA,NA,NA,false
z8TUdBCK,3atyli1pswfm29bow6spg463876ojo,37zheehm60z6j9fu31o2evzbzrb37i,z8TUdBCK,2020-0188,2020-11-18,04:13:25,04:41:35,NA,incomplete,82,filling,0,1,left,Purple_Circle_Chess_4.jpg,Blue_Star_Chess_3.jpg,Red_Triangle_Dots_4.jpg,right,964.7800000093412,false,low,NA,NA,NA,NA,NA,NA,NA,false
z8TUdBCK,3atyli1pswfm29bow6spg463876ojo,37zheehm60z6j9fu31o2evzbzrb37i,z8TUdBCK,2020-0188,2020-11-18,04:13:25,04:41:35,NA,incomplete,83,filling,0,0,left,Green_Star_Stripes_2.jpg,Blue_Plus_Stripes_3.jpg,Red_Circle_Dots_2.jpg,left,1550.6699999968987,true,low,NA,NA,NA,NA,NA,NA,NA,false
z8TUdBCK,3atyli1pswfm29bow6spg463876ojo,37zheehm60z6j9fu31o2evzbzrb37i,z8TUdBCK,2020-0188,2020-11-18,04:13:25,04:41:35,NA,incomplete,84,filling,0,0,left,Purple_Circle_Chess_2.jpg,Green_Star_Chess_1.jpg,Red_Triangle_Grid_2.jpg,right,724.8500000278,false,low,NA,NA,NA,NA,NA,NA,NA,false
z8TUdBCK,3atyli1pswfm29bow6spg463876ojo,37zheehm60z6j9fu31o2evzbzrb37i,z8TUdBCK,2020-0188,2020-11-18,04:13:25,04:41:35,NA,incomplete,85,filling,0,1,right,Blue_Plus_Dots_4.jpg,Green_Circle_Chess_4.jpg,Purple_Star_Dots_2.jpg,left,1078.460000018822,false,low,NA,NA,NA,NA,NA,NA,NA,false
z8TUdBCK,3atyli1pswfm29bow6spg463876ojo,37zheehm60z6j9fu31o2evzbzrb37i,z8TUdBCK,2020-0188,2020-11-18,04:13:25,04:41:35,NA,incomplete,86,filling,0,1,left,Blue_Triangle_Grid_2.jpg,Purple_Circle_Grid_3.jpg,Red_Plus_Stripes_2.jpg,right,732.8850000048988,false,low,NA,NA,NA,NA,NA,NA,NA,false
z8TUdBCK,3atyli1pswfm29bow6spg463876ojo,37zheehm60z6j9fu31o2evzbzrb37i,z8TUdBCK,2020-0188,2020-11-18,04:13:25,04:41:35,NA,incomplete,87,filling,0,1,right,Blue_Triangle_Chess_1.jpg,Green_Star_Dots_1.jpg,Red_Plus_Chess_4.jpg,right,775.2800000016578,true,low,NA,NA,NA,NA,NA,NA,NA,false
z8TUdBCK,3atyli1pswfm29bow6spg463876ojo,37zheehm60z6j9fu31o2evzbzrb37i,z8TUdBCK,2020-0188,2020-11-18,04:13:25,04:41:35,NA,incomplete,88,filling,0,1,left,Blue_Circle_Chess_4.jpg,Green_Triangle_Chess_1.jpg,Red_Plus_Grid_4.jpg,left,1036.099999997532,true,low,NA,NA,NA,NA,NA,NA,NA,false
z8TUdBCK,3atyli1pswfm29bow6spg463876ojo,37zheehm60z6j9fu31o2evzbzrb37i,z8TUdBCK,2020-0188,2020-11-18,04:13:25,04:41:35,NA,incomplete,89,filling,0,1,left,Red_Triangle_Dots_4.jpg,Purple_Plus_Dots_2.jpg,Green_Circle_Grid_4.jpg,left,1000.1250000204891,true,low,NA,NA,NA,NA,NA,NA,NA,false
z8TUdBCK,3atyli1pswfm29bow6spg463876ojo,37zheehm60z6j9fu31o2evzbzrb37i,z8TUdBCK,2020-0188,2020-11-18,04:13:25,04:41:35,NA,incomplete,90,number,1,1,left,Green_Triangle_Dots_4.jpg,Purple_Plus_Grid_4.jpg,Red_Circle_Dots_2.jpg,right,1063.84999997681,false,low,NA,NA,NA,NA,NA,NA,NA,false
z8TUdBCK,3atyli1pswfm29bow6spg463876ojo,37zheehm60z6j9fu31o2evzbzrb37i,z8TUdBCK,2020-0188,2020-11-18,04:13:25,04:41:35,NA,incomplete,91,number,1,0,right,Purple_Triangle_Grid_4.jpg,Blue_Plus_Grid_1.jpg,Green_Star_Chess_4.jpg,left,1196.6099999845028,false,low,NA,NA,NA,NA,NA,NA,NA,false
z8TUdBCK,3atyli1pswfm29bow6spg463876ojo,37zheehm60z6j9fu31o2evzbzrb37i,z8TUdBCK,2020-0188,2020-11-18,04:13:25,04:41:35,NA,incomplete,92,number,1,0,right,Red_Triangle_Dots_3.jpg,Purple_Plus_Dots_1.jpg,Green_Circle_Chess_3.jpg,left,1205.5649999820162,false,low,NA,NA,NA,NA,NA,NA,NA,false
z8TUdBCK,3atyli1pswfm29bow6spg463876ojo,37zheehm60z6j9fu31o2evzbzrb37i,z8TUdBCK,2020-0188,2020-11-18,04:13:25,04:41:35,NA,incomplete,93,number,1,1,right,Red_Plus_Dots_3.jpg,Blue_Triangle_Dots_2.jpg,Green_Circle_Grid_3.jpg,left,1189.04000002658,false,low,NA,NA,NA,NA,NA,NA,NA,false
z8TUdBCK,3atyli1pswfm29bow6spg463876ojo,37zheehm60z6j9fu31o2evzbzrb37i,z8TUdBCK,2020-0188,2020-11-18,04:13:25,04:41:35,NA,incomplete,94,number,1,1,left,Blue_Plus_Stripes_1.jpg,Green_Triangle_Grid_1.jpg,Red_Circle_Stripes_2.jpg,right,993.994999997085,false,low,NA,NA,NA,NA,NA,NA,NA,false
z8TUdBCK,3atyli1pswfm29bow6spg463876ojo,37zheehm60z6j9fu31o2evzbzrb37i,z8TUdBCK,2020-0188,2020-11-18,04:13:25,04:41:35,NA,incomplete,95,number,1,1,left,Blue_Circle_Stripes_3.jpg,Purple_Star_Dots_3.jpg,Red_Plus_Stripes_1.jpg,left,566.9749999942724,true,low,NA,NA,NA,NA,NA,NA,NA,false
z8TUdBCK,3atyli1pswfm29bow6spg463876ojo,37zheehm60z6j9fu31o2evzbzrb37i,z8TUdBCK,2020-0188,2020-11-18,04:13:25,04:41:35,NA,incomplete,96,number,1,1,right,Blue_Triangle_Grid_3.jpg,Red_Circle_Grid_2.jpg,Purple_Plus_Dots_3.jpg,right,611.04499999783,true,low,NA,NA,NA,NA,NA,NA,NA,false
z8TUdBCK,3atyli1pswfm29bow6spg463876ojo,37zheehm60z6j9fu31o2evzbzrb37i,z8TUdBCK,2020-0188,2020-11-18,04:13:25,04:41:35,NA,incomplete,97,number,1,1,left,Purple_Star_Dots_4.jpg,Blue_Plus_Stripes_4.jpg,Red_Triangle_Dots_1.jpg,left,543.3699999994133,true,low,NA,NA,NA,NA,NA,NA,NA,false
z8TUdBCK,3atyli1pswfm29bow6spg463876ojo,37zheehm60z6j9fu31o2evzbzrb37i,z8TUdBCK,2020-0188,2020-11-18,04:13:25,04:41:35,NA,incomplete,98,number,1,1,right,Blue_Triangle_Dots_2.jpg,Purple_Circle_Dots_3.jpg,Green_Star_Grid_2.jpg,right,734.7050000098534,true,low,NA,NA,NA,NA,NA,NA,NA,false
z8TUdBCK,3atyli1pswfm29bow6spg463876ojo,37zheehm60z6j9fu31o2evzbzrb37i,z8TUdBCK,2020-0188,2020-11-18,04:13:25,04:41:35,NA,incomplete,99,number,1,1,right,Purple_Triangle_Chess_2.jpg,Blue_Star_Chess_3.jpg,Red_Circle_Dots_2.jpg,right,1233.1849999900442,true,low,NA,NA,NA,NA,NA,NA,NA,false
z8TUdBCK,3atyli1pswfm29bow6spg463876ojo,37zheehm60z6j9fu31o2evzbzrb37i,z8TUdBCK,2020-0188,2020-11-18,04:13:25,04:41:35,NA,incomplete,100,filling,0,1,left,Purple_Triangle_Chess_2.jpg,Red_Circle_Chess_4.jpg,Blue_Star_Stripes_2.jpg,right,764.0599999867845,false,low,NA,NA,NA,NA,NA,NA,NA,false
z8TUdBCK,3atyli1pswfm29bow6spg463876ojo,37zheehm60z6j9fu31o2evzbzrb37i,z8TUdBCK,2020-0188,2020-11-18,04:13:25,04:41:35,NA,incomplete,101,filling,0,1,right,Blue_Plus_Dots_1.jpg,Purple_Circle_Chess_1.jpg,Red_Triangle_Dots_2.jpg,left,714.2149999854155,false,low,NA,NA,NA,NA,NA,NA,NA,false
z8TUdBCK,3atyli1pswfm29bow6spg463876ojo,37zheehm60z6j9fu31o2evzbzrb37i,z8TUdBCK,2020-0188,2020-11-18,04:13:25,04:41:35,NA,incomplete,102,filling,0,1,left,Red_Triangle_Dots_2.jpg,Blue_Circle_Dots_1.jpg,Purple_Plus_Stripes_2.jpg,left,825.1900000032037,true,low,NA,NA,NA,NA,NA,NA,NA,false
z8TUdBCK,3atyli1pswfm29bow6spg463876ojo,37zheehm60z6j9fu31o2evzbzrb37i,z8TUdBCK,2020-0188,2020-11-18,04:13:25,04:41:35,NA,incomplete,103,filling,0,1,left,Red_Star_Grid_3.jpg,Green_Circle_Grid_4.jpg,Blue_Triangle_Dots_3.jpg,left,1106.5999999991618,true,low,NA,NA,NA,NA,NA,NA,NA,false
z8TUdBCK,3atyli1pswfm29bow6spg463876ojo,37zheehm60z6j9fu31o2evzbzrb37i,z8TUdBCK,2020-0188,2020-11-18,04:13:25,04:41:35,NA,incomplete,104,filling,0,1,left,Red_Star_Stripes_2.jpg,Blue_Triangle_Stripes_1.jpg,Purple_Circle_Grid_2.jpg,left,1046.2200000183657,true,low,NA,NA,NA,NA,NA,NA,NA,false
z8TUdBCK,3atyli1pswfm29bow6spg463876ojo,37zheehm60z6j9fu31o2evzbzrb37i,z8TUdBCK,2020-0188,2020-11-18,04:13:25,04:41:35,NA,incomplete,105,filling,0,1,right,Green_Circle_Chess_2.jpg,Red_Star_Dots_2.jpg,Purple_Plus_Chess_4.jpg,right,1089.5350000064354,true,low,NA,NA,NA,NA,NA,NA,NA,false
z8TUdBCK,3atyli1pswfm29bow6spg463876ojo,37zheehm60z6j9fu31o2evzbzrb37i,z8TUdBCK,2020-0188,2020-11-18,04:13:25,04:41:35,NA,incomplete,106,filling,0,1,left,Red_Star_Dots_4.jpg,Purple_Triangle_Dots_2.jpg,Green_Circle_Chess_4.jpg,left,1003.5199999983888,true,low,NA,NA,NA,NA,NA,NA,NA,false
z8TUdBCK,3atyli1pswfm29bow6spg463876ojo,37zheehm60z6j9fu31o2evzbzrb37i,z8TUdBCK,2020-0188,2020-11-18,04:13:25,04:41:35,NA,incomplete,107,filling,0,1,right,Purple_Circle_Stripes_2.jpg,Blue_Star_Grid_2.jpg,Green_Triangle_Stripes_4.jpg,right,891.4900000090711,true,low,NA,NA,NA,NA,NA,NA,NA,false
z8TUdBCK,3atyli1pswfm29bow6spg463876ojo,37zheehm60z6j9fu31o2evzbzrb37i,z8TUdBCK,2020-0188,2020-11-18,04:13:25,04:41:35,NA,incomplete,108,filling,0,1,right,Red_Star_Chess_2.jpg,Purple_Triangle_Grid_2.jpg,Green_Circle_Chess_3.jpg,right,934.8249999748077,true,low,NA,NA,NA,NA,NA,NA,NA,false
z8TUdBCK,3atyli1pswfm29bow6spg463876ojo,37zheehm60z6j9fu31o2evzbzrb37i,z8TUdBCK,2020-0188,2020-11-18,04:13:25,04:41:35,NA,incomplete,109,filling,0,1,right,Green_Circle_Grid_3.jpg,Red_Star_Chess_3.jpg,Purple_Triangle_Grid_2.jpg,right,850.7150000077672,true,low,NA,NA,NA,NA,NA,NA,NA,false
z8TUdBCK,3atyli1pswfm29bow6spg463876ojo,37zheehm60z6j9fu31o2evzbzrb37i,z8TUdBCK,2020-0188,2020-11-18,04:13:25,04:41:35,NA,incomplete,110,number,1,1,left,Purple_Plus_Grid_3.jpg,Blue_Star_Dots_3.jpg,Green_Triangle_Grid_1.jpg,right,915.465000027325,false,low,NA,NA,NA,NA,NA,NA,NA,false
z8TUdBCK,3atyli1pswfm29bow6spg463876ojo,37zheehm60z6j9fu31o2evzbzrb37i,z8TUdBCK,2020-0188,2020-11-18,04:13:25,04:41:35,NA,incomplete,111,number,1,1,left,Purple_Plus_Dots_4.jpg,Red_Triangle_Chess_4.jpg,Blue_Star_Dots_1.jpg,right,1072.2850000020117,false,low,NA,NA,NA,NA,NA,NA,NA,false
z8TUdBCK,3atyli1pswfm29bow6spg463876ojo,37zheehm60z6j9fu31o2evzbzrb37i,z8TUdBCK,2020-0188,2020-11-18,04:13:25,04:41:35,NA,incomplete,112,number,1,1,left,Blue_Plus_Grid_1.jpg,Red_Circle_Chess_1.jpg,Purple_Triangle_Grid_4.jpg,left,598.7949999980628,true,low,NA,NA,NA,NA,NA,NA,NA,false
z8TUdBCK,3atyli1pswfm29bow6spg463876ojo,37zheehm60z6j9fu31o2evzbzrb37i,z8TUdBCK,2020-0188,2020-11-18,04:13:25,04:41:35,NA,incomplete,113,number,1,1,right,Blue_Circle_Chess_3.jpg,Red_Triangle_Chess_2.jpg,Green_Plus_Grid_3.jpg,right,873.8249999878462,true,low,NA,NA,NA,NA,NA,NA,NA,false
z8TUdBCK,3atyli1pswfm29bow6spg463876ojo,37zheehm60z6j9fu31o2evzbzrb37i,z8TUdBCK,2020-0188,2020-11-18,04:13:25,04:41:35,NA,incomplete,114,number,1,1,right,Purple_Plus_Stripes_2.jpg,Blue_Circle_Stripes_3.jpg,Green_Triangle_Chess_2.jpg,right,659.14000000339,true,low,NA,NA,NA,NA,NA,NA,NA,false
z8TUdBCK,3atyli1pswfm29bow6spg463876ojo,37zheehm60z6j9fu31o2evzbzrb37i,z8TUdBCK,2020-0188,2020-11-18,04:13:25,04:41:35,NA,incomplete,115,number,1,1,left,Blue_Triangle_Stripes_1.jpg,Red_Plus_Dots_1.jpg,Purple_Star_Stripes_3.jpg,left,634.9850000115111,true,low,NA,NA,NA,NA,NA,NA,NA,false
z8TUdBCK,3atyli1pswfm29bow6spg463876ojo,37zheehm60z6j9fu31o2evzbzrb37i,z8TUdBCK,2020-0188,2020-11-18,04:13:25,04:41:35,NA,incomplete,116,number,1,1,left,Blue_Star_Dots_2.jpg,Green_Circle_Stripes_2.jpg,Red_Triangle_Dots_3.jpg,left,754.2200000025332,true,low,NA,NA,NA,NA,NA,NA,NA,false
z8TUdBCK,3atyli1pswfm29bow6spg463876ojo,37zheehm60z6j9fu31o2evzbzrb37i,z8TUdBCK,2020-0188,2020-11-18,04:13:25,04:41:35,NA,incomplete,117,number,1,1,right,Blue_Star_Stripes_1.jpg,Red_Circle_Stripes_3.jpg,Green_Plus_Dots_1.jpg,right,571.7050000093877,true,low,NA,NA,NA,NA,NA,NA,NA,false
z8TUdBCK,3atyli1pswfm29bow6spg463876ojo,37zheehm60z6j9fu31o2evzbzrb37i,z8TUdBCK,2020-0188,2020-11-18,04:13:25,04:41:35,NA,incomplete,118,number,1,1,right,Red_Circle_Stripes_2.jpg,Blue_Triangle_Stripes_1.jpg,Purple_Plus_Chess_2.jpg,right,573.9950000133831,true,low,NA,NA,NA,NA,NA,NA,NA,false
z8TUdBCK,3atyli1pswfm29bow6spg463876ojo,37zheehm60z6j9fu31o2evzbzrb37i,z8TUdBCK,2020-0188,2020-11-18,04:13:25,04:41:35,NA,incomplete,119,number,1,1,left,Blue_Plus_Grid_3.jpg,Red_Star_Stripes_3.jpg,Green_Circle_Grid_1.jpg,left,565.7150000042748,true,low,NA,NA,NA,NA,NA,NA,NA,false
z8TUdBCK,3atyli1pswfm29bow6spg463876ojo,37zheehm60z6j9fu31o2evzbzrb37i,z8TUdBCK,2020-0188,2020-11-18,04:13:25,04:41:35,NA,incomplete,120,race,2,1,left,C_M_14.jpg,C_F_09.jpg,A_M_10.jpg,NA,NA,NA,low,NA,NA,NA,NA,NA,NA,NA,false
z8TUdBCK,3atyli1pswfm29bow6spg463876ojo,37zheehm60z6j9fu31o2evzbzrb37i,z8TUdBCK,2020-0188,2020-11-18,04:13:25,04:41:35,NA,incomplete,121,race,2,1,left,C_F_01.jpg,C_M_02.jpg,A_F_12.jpg,left,1155.6750000163447,true,low,NA,NA,NA,NA,NA,NA,NA,false
z8TUdBCK,3atyli1pswfm29bow6spg463876ojo,37zheehm60z6j9fu31o2evzbzrb37i,z8TUdBCK,2020-0188,2020-11-18,04:13:25,04:41:35,NA,incomplete,122,race,2,1,right,C_F_16.jpg,A_F_13.jpg,C_M_15.jpg,left,1389.0050000045449,false,low,NA,NA,NA,NA,NA,NA,NA,false
z8TUdBCK,3atyli1pswfm29bow6spg463876ojo,37zheehm60z6j9fu31o2evzbzrb37i,z8TUdBCK,2020-0188,2020-11-18,04:13:25,04:41:35,NA,incomplete,123,race,2,0,right,A_M_07.jpg,C_M_06.jpg,A_F_14.jpg,right,1675.7300000172108,true,low,NA,NA,NA,NA,NA,NA,NA,false
z8TUdBCK,3atyli1pswfm29bow6spg463876ojo,37zheehm60z6j9fu31o2evzbzrb37i,z8TUdBCK,2020-0188,2020-11-18,04:13:25,04:41:35,NA,incomplete,124,race,2,1,right,A_M_14.jpg,C_M_12.jpg,A_F_03.jpg,left,1228.8150000094902,false,low,NA,NA,NA,NA,NA,NA,NA,false
z8TUdBCK,3atyli1pswfm29bow6spg463876ojo,37zheehm60z6j9fu31o2evzbzrb37i,z8TUdBCK,2020-0188,2020-11-18,04:13:25,04:41:35,NA,incomplete,125,race,2,1,left,C_F_10.jpg,C_M_01.jpg,A_F_12.jpg,right,1852.405000012368,false,low,NA,NA,NA,NA,NA,NA,NA,false
z8TUdBCK,3atyli1pswfm29bow6spg463876ojo,37zheehm60z6j9fu31o2evzbzrb37i,z8TUdBCK,2020-0188,2020-11-18,04:13:25,04:41:35,NA,incomplete,126,race,2,1,left,C_F_10.jpg,C_M_12.jpg,A_F_16.jpg,left,870.9300000045914,true,low,NA,NA,NA,NA,NA,NA,NA,false
z8TUdBCK,3atyli1pswfm29bow6spg463876ojo,37zheehm60z6j9fu31o2evzbzrb37i,z8TUdBCK,2020-0188,2020-11-18,04:13:25,04:41:35,NA,incomplete,127,race,2,0,left,A_F_05.jpg,A_M_09.jpg,C_F_06.jpg,right,1618.1400000059512,false,low,NA,NA,NA,NA,NA,NA,NA,false
z8TUdBCK,3atyli1pswfm29bow6spg463876ojo,37zheehm60z6j9fu31o2evzbzrb37i,z8TUdBCK,2020-0188,2020-11-18,04:13:25,04:41:35,NA,incomplete,128,race,2,1,right,A_F_09.jpg,C_F_04.jpg,A_M_08.jpg,right,1142.2400000155903,true,low,NA,NA,NA,NA,NA,NA,NA,false
z8TUdBCK,3atyli1pswfm29bow6spg463876ojo,37zheehm60z6j9fu31o2evzbzrb37i,z8TUdBCK,2020-0188,2020-11-18,04:13:25,04:41:35,NA,incomplete,129,race,2,0,left,A_M_04.jpg,A_F_07.jpg,C_M_15.jpg,left,885.8800000161864,true,low,NA,NA,NA,NA,NA,NA,NA,false
z8TUdBCK,3atyli1pswfm29bow6spg463876ojo,37zheehm60z6j9fu31o2evzbzrb37i,z8TUdBCK,2020-0188,2020-11-18,04:13:25,04:41:35,NA,incomplete,130,race,2,1,right,A_M_12.jpg,C_M_13.jpg,A_F_15.jpg,right,1899.8000000137836,true,low,NA,NA,NA,NA,NA,NA,NA,false
z8TUdBCK,3atyli1pswfm29bow6spg463876ojo,37zheehm60z6j9fu31o2evzbzrb37i,z8TUdBCK,2020-0188,2020-11-18,04:13:25,04:41:35,NA,incomplete,131,race,2,1,left,C_M_08.jpg,C_F_03.jpg,A_M_05.jpg,left,921.2100000004284,true,low,NA,NA,NA,NA,NA,NA,NA,false
z8TUdBCK,3atyli1pswfm29bow6spg463876ojo,37zheehm60z6j9fu31o2evzbzrb37i,z8TUdBCK,2020-0188,2020-11-18,04:13:25,04:41:35,NA,incomplete,132,race,2,1,left,A_M_05.jpg,A_F_15.jpg,C_M_11.jpg,left,896.6800000052899,true,low,NA,NA,NA,NA,NA,NA,NA,false
z8TUdBCK,3atyli1pswfm29bow6spg463876ojo,37zheehm60z6j9fu31o2evzbzrb37i,z8TUdBCK,2020-0188,2020-11-18,04:13:25,04:41:35,NA,incomplete,133,race,2,1,right,C_F_01.jpg,A_F_13.jpg,C_M_16.jpg,right,1440.7849999843165,true,low,NA,NA,NA,NA,NA,NA,NA,false
z8TUdBCK,3atyli1pswfm29bow6spg463876ojo,37zheehm60z6j9fu31o2evzbzrb37i,z8TUdBCK,2020-0188,2020-11-18,04:13:25,04:41:35,NA,incomplete,134,race,2,1,left,A_M_14.jpg,A_F_13.jpg,C_M_01.jpg,left,1243.9899999881163,true,low,NA,NA,NA,NA,NA,NA,NA,false
z8TUdBCK,3atyli1pswfm29bow6spg463876ojo,37zheehm60z6j9fu31o2evzbzrb37i,z8TUdBCK,2020-0188,2020-11-18,04:13:25,04:41:35,NA,incomplete,135,race,2,0,left,C_F_02.jpg,C_M_04.jpg,A_F_10.jpg,left,1160.1450000016484,true,low,NA,NA,NA,NA,NA,NA,NA,false
z8TUdBCK,3atyli1pswfm29bow6spg463876ojo,37zheehm60z6j9fu31o2evzbzrb37i,z8TUdBCK,2020-0188,2020-11-18,04:13:25,04:41:35,NA,incomplete,136,race,2,1,left,A_M_05.jpg,A_F_14.jpg,C_M_10.jpg,right,1035.1099999970756,false,low,NA,NA,NA,NA,NA,NA,NA,false
z8TUdBCK,3atyli1pswfm29bow6spg463876ojo,37zheehm60z6j9fu31o2evzbzrb37i,z8TUdBCK,2020-0188,2020-11-18,04:13:25,04:41:35,NA,incomplete,137,race,2,1,right,C_F_15.jpg,A_F_11.jpg,C_M_13.jpg,right,1668.1699999899138,true,low,NA,NA,NA,NA,NA,NA,NA,false
z8TUdBCK,3atyli1pswfm29bow6spg463876ojo,37zheehm60z6j9fu31o2evzbzrb37i,z8TUdBCK,2020-0188,2020-11-18,04:13:25,04:41:35,NA,incomplete,138,race,2,1,left,A_M_13.jpg,A_F_01.jpg,C_M_04.jpg,left,954.8350000113714,true,low,NA,NA,NA,NA,NA,NA,NA,false
z8TUdBCK,3atyli1pswfm29bow6spg463876ojo,37zheehm60z6j9fu31o2evzbzrb37i,z8TUdBCK,2020-0188,2020-11-18,04:13:25,04:41:35,NA,incomplete,139,race,2,1,right,C_M_10.jpg,A_M_08.jpg,C_F_07.jpg,right,1581.4400000090245,true,low,NA,NA,NA,NA,NA,NA,NA,false
z8TUdBCK,3atyli1pswfm29bow6spg463876ojo,37zheehm60z6j9fu31o2evzbzrb37i,z8TUdBCK,2020-0188,2020-11-18,04:13:25,04:41:35,NA,incomplete,140,gender,3,1,right,A_F_16.jpg,A_M_01.jpg,C_F_13.jpg,left,1297.4949999770615,false,low,NA,NA,NA,NA,NA,NA,NA,false
z8TUdBCK,3atyli1pswfm29bow6spg463876ojo,37zheehm60z6j9fu31o2evzbzrb37i,z8TUdBCK,2020-0188,2020-11-18,04:13:25,04:41:35,NA,incomplete,141,gender,3,0,right,C_M_13.jpg,C_F_01.jpg,A_M_06.jpg,left,1168.595000024652,false,low,NA,NA,NA,NA,NA,NA,NA,false
z8TUdBCK,3atyli1pswfm29bow6spg463876ojo,37zheehm60z6j9fu31o2evzbzrb37i,z8TUdBCK,2020-0188,2020-11-18,04:13:25,04:41:35,NA,incomplete,142,gender,3,1,left,A_F_05.jpg,C_F_01.jpg,A_M_16.jpg,left,1823.644999996759,true,low,NA,NA,NA,NA,NA,NA,NA,false
z8TUdBCK,3atyli1pswfm29bow6spg463876ojo,37zheehm60z6j9fu31o2evzbzrb37i,z8TUdBCK,2020-0188,2020-11-18,04:13:25,04:41:35,NA,incomplete,143,gender,3,1,right,C_M_15.jpg,C_F_03.jpg,A_M_04.jpg,left,1331.9299999857321,false,low,NA,NA,NA,NA,NA,NA,NA,false
z8TUdBCK,3atyli1pswfm29bow6spg463876ojo,37zheehm60z6j9fu31o2evzbzrb37i,z8TUdBCK,2020-0188,2020-11-18,04:13:25,04:41:35,NA,incomplete,144,gender,3,1,left,A_M_14.jpg,C_M_01.jpg,A_F_04.jpg,left,992.4649999884423,true,low,NA,NA,NA,NA,NA,NA,NA,false
z8TUdBCK,3atyli1pswfm29bow6spg463876ojo,37zheehm60z6j9fu31o2evzbzrb37i,z8TUdBCK,2020-0188,2020-11-18,04:13:25,04:41:35,NA,incomplete,145,gender,3,0,left,A_F_12.jpg,C_F_07.jpg,A_M_14.jpg,left,911.9950000022072,true,low,NA,NA,NA,NA,NA,NA,NA,false
z8TUdBCK,3atyli1pswfm29bow6spg463876ojo,37zheehm60z6j9fu31o2evzbzrb37i,z8TUdBCK,2020-0188,2020-11-18,04:13:25,04:41:35,NA,incomplete,146,gender,3,1,left,A_M_14.jpg,C_M_13.jpg,A_F_06.jpg,right,745.7599999906961,false,low,NA,NA,NA,NA,NA,NA,NA,false
z8TUdBCK,3atyli1pswfm29bow6spg463876ojo,37zheehm60z6j9fu31o2evzbzrb37i,z8TUdBCK,2020-0188,2020-11-18,04:13:25,04:41:35,NA,incomplete,147,gender,3,1,right,C_F_07.jpg,C_M_15.jpg,A_F_01.jpg,right,1121.9350000028498,true,low,NA,NA,NA,NA,NA,NA,NA,false
z8TUdBCK,3atyli1pswfm29bow6spg463876ojo,37zheehm60z6j9fu31o2evzbzrb37i,z8TUdBCK,2020-0188,2020-11-18,04:13:25,04:41:35,NA,incomplete,148,gender,3,1,left,C_M_05.jpg,A_M_10.jpg,C_F_04.jpg,left,1154.6800000069197,true,low,NA,NA,NA,NA,NA,NA,NA,false
z8TUdBCK,3atyli1pswfm29bow6spg463876ojo,37zheehm60z6j9fu31o2evzbzrb37i,z8TUdBCK,2020-0188,2020-11-18,04:13:25,04:41:35,NA,incomplete,149,gender,3,1,left,C_M_02.jpg,A_M_12.jpg,C_F_09.jpg,left,1410.0000000034925,true,low,NA,NA,NA,NA,NA,NA,NA,false
z8TUdBCK,3atyli1pswfm29bow6spg463876ojo,37zheehm60z6j9fu31o2evzbzrb37i,z8TUdBCK,2020-0188,2020-11-18,04:13:25,04:41:35,NA,incomplete,150,gender,3,1,right,A_M_11.jpg,A_F_07.jpg,C_M_14.jpg,right,1067.6300000050105,true,low,NA,NA,NA,NA,NA,NA,NA,false
z8TUdBCK,3atyli1pswfm29bow6spg463876ojo,37zheehm60z6j9fu31o2evzbzrb37i,z8TUdBCK,2020-0188,2020-11-18,04:13:25,04:41:35,NA,incomplete,151,gender,3,0,right,A_M_15.jpg,A_F_14.jpg,C_M_08.jpg,right,1240.5800000124145,true,low,NA,NA,NA,NA,NA,NA,NA,false
z8TUdBCK,3atyli1pswfm29bow6spg463876ojo,37zheehm60z6j9fu31o2evzbzrb37i,z8TUdBCK,2020-0188,2020-11-18,04:13:25,04:41:35,NA,incomplete,152,gender,3,1,left,A_M_09.jpg,C_M_16.jpg,A_F_01.jpg,left,1496.499999979278,true,low,NA,NA,NA,NA,NA,NA,NA,false
z8TUdBCK,3atyli1pswfm29bow6spg463876ojo,37zheehm60z6j9fu31o2evzbzrb37i,z8TUdBCK,2020-0188,2020-11-18,04:13:25,04:41:35,NA,incomplete,153,gender,3,1,left,C_M_11.jpg,A_M_15.jpg,C_F_03.jpg,left,1574.0200000000186,true,low,NA,NA,NA,NA,NA,NA,NA,false
z8TUdBCK,3atyli1pswfm29bow6spg463876ojo,37zheehm60z6j9fu31o2evzbzrb37i,z8TUdBCK,2020-0188,2020-11-18,04:13:25,04:41:35,NA,incomplete,154,gender,3,1,right,A_M_12.jpg,A_F_01.jpg,C_M_15.jpg,right,876.0400000028312,true,low,NA,NA,NA,NA,NA,NA,NA,false
z8TUdBCK,3atyli1pswfm29bow6spg463876ojo,37zheehm60z6j9fu31o2evzbzrb37i,z8TUdBCK,2020-0188,2020-11-18,04:13:25,04:41:35,NA,incomplete,155,gender,3,1,right,A_M_03.jpg,A_F_08.jpg,C_M_15.jpg,right,1348.4250000037719,true,low,NA,NA,NA,NA,NA,NA,NA,false
z8TUdBCK,3atyli1pswfm29bow6spg463876ojo,37zheehm60z6j9fu31o2evzbzrb37i,z8TUdBCK,2020-0188,2020-11-18,04:13:25,04:41:35,NA,incomplete,156,gender,3,1,right,C_F_06.jpg,C_M_01.jpg,A_F_12.jpg,right,1197.2249999816995,true,low,NA,NA,NA,NA,NA,NA,NA,false
z8TUdBCK,3atyli1pswfm29bow6spg463876ojo,37zheehm60z6j9fu31o2evzbzrb37i,z8TUdBCK,2020-0188,2020-11-18,04:13:25,04:41:35,NA,incomplete,157,gender,3,1,right,A_F_16.jpg,A_M_08.jpg,C_F_04.jpg,left,1478.3850000239909,false,low,NA,NA,NA,NA,NA,NA,NA,false
z8TUdBCK,3atyli1pswfm29bow6spg463876ojo,37zheehm60z6j9fu31o2evzbzrb37i,z8TUdBCK,2020-0188,2020-11-18,04:13:25,04:41:35,NA,incomplete,158,gender,3,1,right,A_M_11.jpg,A_F_08.jpg,C_M_04.jpg,right,1557.3349999904167,true,low,NA,NA,NA,NA,NA,NA,NA,false
z8TUdBCK,3atyli1pswfm29bow6spg463876ojo,37zheehm60z6j9fu31o2evzbzrb37i,z8TUdBCK,2020-0188,2020-11-18,04:13:25,04:41:35,NA,incomplete,159,gender,3,1,right,C_F_01.jpg,C_M_12.jpg,A_F_13.jpg,right,1196.4849999931175,true,low,NA,NA,NA,NA,NA,NA,NA,false
z8TUdBCK,3atyli1pswfm29bow6spg463876ojo,37zheehm60z6j9fu31o2evzbzrb37i,z8TUdBCK,2020-0188,2020-11-18,04:13:25,04:41:35,NA,incomplete,160,race,2,1,right,C_F_11.jpg,A_F_01.jpg,C_M_13.jpg,left,866.7699999932665,false,low,NA,NA,NA,NA,NA,NA,NA,false
z8TUdBCK,3atyli1pswfm29bow6spg463876ojo,37zheehm60z6j9fu31o2evzbzrb37i,z8TUdBCK,2020-0188,2020-11-18,04:13:25,04:41:35,NA,incomplete,161,race,2,0,left,A_M_05.jpg,A_F_03.jpg,C_M_08.jpg,right,986.2299999804236,false,low,NA,NA,NA,NA,NA,NA,NA,false
z8TUdBCK,3atyli1pswfm29bow6spg463876ojo,37zheehm60z6j9fu31o2evzbzrb37i,z8TUdBCK,2020-0188,2020-11-18,04:13:25,04:41:35,NA,incomplete,162,race,2,1,left,C_M_13.jpg,C_F_11.jpg,A_M_03.jpg,right,1511.2300000037067,false,low,NA,NA,NA,NA,NA,NA,NA,false
z8TUdBCK,3atyli1pswfm29bow6spg463876ojo,37zheehm60z6j9fu31o2evzbzrb37i,z8TUdBCK,2020-0188,2020-11-18,04:13:25,04:41:35,NA,incomplete,163,race,2,0,left,A_F_10.jpg,A_M_05.jpg,C_F_01.jpg,right,1022.5249999784864,false,low,NA,NA,NA,NA,NA,NA,NA,false
z8TUdBCK,3atyli1pswfm29bow6spg463876ojo,37zheehm60z6j9fu31o2evzbzrb37i,z8TUdBCK,2020-0188,2020-11-18,04:13:25,04:41:35,NA,incomplete,164,race,2,1,right,C_F_03.jpg,A_F_16.jpg,C_M_07.jpg,left,1124.2550000024494,false,low,NA,NA,NA,NA,NA,NA,NA,false
z8TUdBCK,3atyli1pswfm29bow6spg463876ojo,37zheehm60z6j9fu31o2evzbzrb37i,z8TUdBCK,2020-0188,2020-11-18,04:13:25,04:41:35,NA,incomplete,165,race,2,1,right,C_F_05.jpg,A_F_14.jpg,C_M_11.jpg,left,815.0649999734014,false,low,NA,NA,NA,NA,NA,NA,NA,false
z8TUdBCK,3atyli1pswfm29bow6spg463876ojo,37zheehm60z6j9fu31o2evzbzrb37i,z8TUdBCK,2020-0188,2020-11-18,04:13:25,04:41:35,NA,incomplete,166,race,2,1,right,A_F_07.jpg,C_F_12.jpg,A_M_02.jpg,right,862.3349999834318,true,low,NA,NA,NA,NA,NA,NA,NA,false
z8TUdBCK,3atyli1pswfm29bow6spg463876ojo,37zheehm60z6j9fu31o2evzbzrb37i,z8TUdBCK,2020-0188,2020-11-18,04:13:25,04:41:35,NA,incomplete,167,race,2,1,left,A_F_16.jpg,A_M_03.jpg,C_F_01.jpg,right,1442.750000016531,false,low,NA,NA,NA,NA,NA,NA,NA,false
z8TUdBCK,3atyli1pswfm29bow6spg463876ojo,37zheehm60z6j9fu31o2evzbzrb37i,z8TUdBCK,2020-0188,2020-11-18,04:13:25,04:41:35,NA,incomplete,168,race,2,0,right,C_F_10.jpg,A_F_08.jpg,C_M_05.jpg,right,943.0400000128429,true,low,NA,NA,NA,NA,NA,NA,NA,false
z8TUdBCK,3atyli1pswfm29bow6spg463876ojo,37zheehm60z6j9fu31o2evzbzrb37i,z8TUdBCK,2020-0188,2020-11-18,04:13:25,04:41:35,NA,incomplete,169,race,2,1,left,A_M_14.jpg,A_F_16.jpg,C_M_08.jpg,left,1304.7000000078697,true,low,NA,NA,NA,NA,NA,NA,NA,false
z8TUdBCK,3atyli1pswfm29bow6spg463876ojo,37zheehm60z6j9fu31o2evzbzrb37i,z8TUdBCK,2020-0188,2020-11-18,04:13:25,04:41:35,NA,incomplete,170,race,2,0,right,C_F_12.jpg,A_F_10.jpg,C_M_11.jpg,right,1094.9450000189245,true,low,NA,NA,NA,NA,NA,NA,NA,false
z8TUdBCK,3atyli1pswfm29bow6spg463876ojo,37zheehm60z6j9fu31o2evzbzrb37i,z8TUdBCK,2020-0188,2020-11-18,04:13:25,04:41:35,NA,incomplete,171,race,2,1,right,A_M_13.jpg,C_M_03.jpg,A_F_06.jpg,right,1384.3549999874085,true,low,NA,NA,NA,NA,NA,NA,NA,false
z8TUdBCK,3atyli1pswfm29bow6spg463876ojo,37zheehm60z6j9fu31o2evzbzrb37i,z8TUdBCK,2020-0188,2020-11-18,04:13:25,04:41:35,NA,incomplete,172,race,2,0,left,A_F_15.jpg,A_M_06.jpg,C_F_11.jpg,left,1012.0799999858718,true,low,NA,NA,NA,NA,NA,NA,NA,false
z8TUdBCK,3atyli1pswfm29bow6spg463876ojo,37zheehm60z6j9fu31o2evzbzrb37i,z8TUdBCK,2020-0188,2020-11-18,04:13:25,04:41:35,NA,incomplete,173,race,2,1,left,C_F_08.jpg,C_M_03.jpg,A_F_04.jpg,left,1404.8250000050757,true,low,NA,NA,NA,NA,NA,NA,NA,false
z8TUdBCK,3atyli1pswfm29bow6spg463876ojo,37zheehm60z6j9fu31o2evzbzrb37i,z8TUdBCK,2020-0188,2020-11-18,04:13:25,04:41:35,NA,incomplete,174,race,2,0,left,C_F_06.jpg,C_M_08.jpg,A_F_11.jpg,right,798.3349999994971,false,low,NA,NA,NA,NA,NA,NA,NA,false
z8TUdBCK,3atyli1pswfm29bow6spg463876ojo,37zheehm60z6j9fu31o2evzbzrb37i,z8TUdBCK,2020-0188,2020-11-18,04:13:25,04:41:35,NA,incomplete,175,race,2,1,right,C_M_02.jpg,A_M_14.jpg,C_F_03.jpg,left,1870.2399999892805,false,low,NA,NA,NA,NA,NA,NA,NA,false
z8TUdBCK,3atyli1pswfm29bow6spg463876ojo,37zheehm60z6j9fu31o2evzbzrb37i,z8TUdBCK,2020-0188,2020-11-18,04:13:25,04:41:35,NA,incomplete,176,race,2,1,left,A_M_09.jpg,A_F_15.jpg,C_M_06.jpg,left,890.6799999822397,true,low,NA,NA,NA,NA,NA,NA,NA,false
z8TUdBCK,3atyli1pswfm29bow6spg463876ojo,37zheehm60z6j9fu31o2evzbzrb37i,z8TUdBCK,2020-0188,2020-11-18,04:13:25,04:41:35,NA,incomplete,177,race,2,1,left,C_F_07.jpg,C_M_02.jpg,A_F_06.jpg,none,0,false,low,NA,NA,NA,NA,NA,NA,NA,false
z8TUdBCK,3atyli1pswfm29bow6spg463876ojo,37zheehm60z6j9fu31o2evzbzrb37i,z8TUdBCK,2020-0188,2020-11-18,04:13:25,04:41:35,NA,incomplete,178,race,2,0,right,C_F_03.jpg,A_F_04.jpg,C_M_13.jpg,right,1194.9150000000373,true,low,NA,NA,NA,NA,NA,NA,NA,false
z8TUdBCK,3atyli1pswfm29bow6spg463876ojo,37zheehm60z6j9fu31o2evzbzrb37i,z8TUdBCK,2020-0188,2020-11-18,04:13:25,04:41:35,NA,incomplete,179,race,2,1,left,A_M_06.jpg,A_F_10.jpg,C_M_09.jpg,left,702.690000005532,true,low,NA,NA,NA,NA,NA,NA,NA,false
z8TUdBCK,3atyli1pswfm29bow6spg463876ojo,37zheehm60z6j9fu31o2evzbzrb37i,z8TUdBCK,2020-0188,2020-11-18,04:13:25,04:41:35,NA,incomplete,180,gender,3,1,left,C_F_03.jpg,A_F_12.jpg,C_M_01.jpg,right,1141.6199999803212,false,low,NA,NA,NA,NA,NA,NA,NA,false
z8TUdBCK,3atyli1pswfm29bow6spg463876ojo,37zheehm60z6j9fu31o2evzbzrb37i,z8TUdBCK,2020-0188,2020-11-18,04:13:25,04:41:35,NA,incomplete,181,gender,3,0,right,C_F_16.jpg,C_M_12.jpg,A_F_08.jpg,left,1501.3700000126846,false,low,NA,NA,NA,NA,NA,NA,NA,false
z8TUdBCK,3atyli1pswfm29bow6spg463876ojo,37zheehm60z6j9fu31o2evzbzrb37i,z8TUdBCK,2020-0188,2020-11-18,04:13:25,04:41:35,NA,incomplete,182,gender,3,1,left,A_F_01.jpg,C_F_11.jpg,A_M_16.jpg,right,1090.6750000140164,false,low,NA,NA,NA,NA,NA,NA,NA,false
z8TUdBCK,3atyli1pswfm29bow6spg463876ojo,37zheehm60z6j9fu31o2evzbzrb37i,z8TUdBCK,2020-0188,2020-11-18,04:13:25,04:41:35,NA,incomplete,183,gender,3,1,right,A_M_10.jpg,A_F_02.jpg,C_M_07.jpg,left,1078.2750000071246,false,low,NA,NA,NA,NA,NA,NA,NA,false
z8TUdBCK,3atyli1pswfm29bow6spg463876ojo,37zheehm60z6j9fu31o2evzbzrb37i,z8TUdBCK,2020-0188,2020-11-18,04:13:25,04:41:35,NA,incomplete,184,gender,3,1,left,C_M_04.jpg,A_M_07.jpg,C_F_05.jpg,left,1141.684999980498,true,low,NA,NA,NA,NA,NA,NA,NA,false
z8TUdBCK,3atyli1pswfm29bow6spg463876ojo,37zheehm60z6j9fu31o2evzbzrb37i,z8TUdBCK,2020-0188,2020-11-18,04:13:25,04:41:35,NA,incomplete,185,gender,3,1,right,C_M_12.jpg,C_F_16.jpg,A_M_13.jpg,right,1052.5999999954365,true,low,NA,NA,NA,NA,NA,NA,NA,false
z8TUdBCK,3atyli1pswfm29bow6spg463876ojo,37zheehm60z6j9fu31o2evzbzrb37i,z8TUdBCK,2020-0188,2020-11-18,04:13:25,04:41:35,NA,incomplete,186,gender,3,0,right,A_M_12.jpg,A_F_11.jpg,C_M_05.jpg,right,1227.439999987837,true,low,NA,NA,NA,NA,NA,NA,NA,false
z8TUdBCK,3atyli1pswfm29bow6spg463876ojo,37zheehm60z6j9fu31o2evzbzrb37i,z8TUdBCK,2020-0188,2020-11-18,04:13:25,04:41:35,NA,incomplete,187,gender,3,1,left,C_M_04.jpg,A_M_01.jpg,C_F_13.jpg,left,847.41000001668,true,low,NA,NA,NA,NA,NA,NA,NA,false
z8TUdBCK,3atyli1pswfm29bow6spg463876ojo,37zheehm60z6j9fu31o2evzbzrb37i,z8TUdBCK,2020-0188,2020-11-18,04:13:25,04:41:35,NA,incomplete,188,gender,3,1,left,C_F_11.jpg,A_F_06.jpg,C_M_16.jpg,left,1034.1049999988172,true,low,NA,NA,NA,NA,NA,NA,NA,false
z8TUdBCK,3atyli1pswfm29bow6spg463876ojo,37zheehm60z6j9fu31o2evzbzrb37i,z8TUdBCK,2020-0188,2020-11-18,04:13:25,04:41:35,NA,incomplete,189,gender,3,1,right,C_M_09.jpg,C_F_07.jpg,A_M_16.jpg,right,1238.2300000172108,true,low,NA,NA,NA,NA,NA,NA,NA,false
z8TUdBCK,3atyli1pswfm29bow6spg463876ojo,37zheehm60z6j9fu31o2evzbzrb37i,z8TUdBCK,2020-0188,2020-11-18,04:13:25,04:41:35,NA,incomplete,190,gender,3,1,right,A_F_09.jpg,A_M_02.jpg,C_F_13.jpg,right,835.8149999985471,true,low,NA,NA,NA,NA,NA,NA,NA,false
z8TUdBCK,3atyli1pswfm29bow6spg463876ojo,37zheehm60z6j9fu31o2evzbzrb37i,z8TUdBCK,2020-0188,2020-11-18,04:13:25,04:41:35,NA,incomplete,191,gender,3,0,right,C_M_08.jpg,C_F_09.jpg,A_M_02.jpg,left,1459.3450000102166,false,low,NA,NA,NA,NA,NA,NA,NA,false
z8TUdBCK,3atyli1pswfm29bow6spg463876ojo,37zheehm60z6j9fu31o2evzbzrb37i,z8TUdBCK,2020-0188,2020-11-18,04:13:25,04:41:35,NA,incomplete,192,gender,3,1,left,A_M_11.jpg,C_M_04.jpg,A_F_16.jpg,left,1039.1449999879114,true,low,NA,NA,NA,NA,NA,NA,NA,false
z8TUdBCK,3atyli1pswfm29bow6spg463876ojo,37zheehm60z6j9fu31o2evzbzrb37i,z8TUdBCK,2020-0188,2020-11-18,04:13:25,04:41:35,NA,incomplete,193,gender,3,0,right,A_M_09.jpg,A_F_04.jpg,C_M_15.jpg,right,1133.5499999986496,true,low,NA,NA,NA,NA,NA,NA,NA,false
z8TUdBCK,3atyli1pswfm29bow6spg463876ojo,37zheehm60z6j9fu31o2evzbzrb37i,z8TUdBCK,2020-0188,2020-11-18,04:13:25,04:41:35,NA,incomplete,194,gender,3,1,left,A_F_10.jpg,C_F_04.jpg,A_M_14.jpg,left,1132.9149999946821,true,low,NA,NA,NA,NA,NA,NA,NA,false
z8TUdBCK,3atyli1pswfm29bow6spg463876ojo,37zheehm60z6j9fu31o2evzbzrb37i,z8TUdBCK,2020-0188,2020-11-18,04:13:25,04:41:35,NA,incomplete,195,gender,3,1,left,A_F_16.jpg,C_F_06.jpg,A_M_04.jpg,left,1085.9749999945052,true,low,NA,NA,NA,NA,NA,NA,NA,false
z8TUdBCK,3atyli1pswfm29bow6spg463876ojo,37zheehm60z6j9fu31o2evzbzrb37i,z8TUdBCK,2020-0188,2020-11-18,04:13:25,04:41:35,NA,incomplete,196,gender,3,1,right,A_M_02.jpg,A_F_11.jpg,C_M_16.jpg,right,1663.7749999936204,true,low,NA,NA,NA,NA,NA,NA,NA,false
z8TUdBCK,3atyli1pswfm29bow6spg463876ojo,37zheehm60z6j9fu31o2evzbzrb37i,z8TUdBCK,2020-0188,2020-11-18,04:13:25,04:41:35,NA,incomplete,197,gender,3,1,left,C_M_14.jpg,A_M_11.jpg,C_F_07.jpg,left,1097.8400000021793,true,low,NA,NA,NA,NA,NA,NA,NA,false
z8TUdBCK,3atyli1pswfm29bow6spg463876ojo,37zheehm60z6j9fu31o2evzbzrb37i,z8TUdBCK,2020-0188,2020-11-18,04:13:25,04:41:35,NA,incomplete,198,gender,3,1,right,C_F_12.jpg,C_M_08.jpg,A_F_10.jpg,right,916.4999999920838,true,low,NA,NA,NA,NA,NA,NA,NA,false
z8TUdBCK,3atyli1pswfm29bow6spg463876ojo,37zheehm60z6j9fu31o2evzbzrb37i,z8TUdBCK,2020-0188,2020-11-18,04:13:25,04:41:35,NA,incomplete,199,gender,3,0,right,C_F_02.jpg,C_M_06.jpg,A_F_01.jpg,right,1148.6450000084005,true,low,NA,NA,NA,NA,NA,NA,NA,false
z8TUdBCK,3atyli1pswfm29bow6spg463876ojo,37zheehm60z6j9fu31o2evzbzrb37i,z8TUdBCK,2020-0188,2020-11-18,04:13:25,04:41:35,NA,incomplete,200,race,2,1,right,A_M_05.jpg,C_M_01.jpg,A_F_06.jpg,left,945.0249999936204,false,low,NA,NA,NA,NA,NA,NA,NA,false
z8TUdBCK,3atyli1pswfm29bow6spg463876ojo,37zheehm60z6j9fu31o2evzbzrb37i,z8TUdBCK,2020-0188,2020-11-18,04:13:25,04:41:35,NA,incomplete,201,race,2,1,right,C_F_07.jpg,A_F_05.jpg,C_M_10.jpg,right,1038.685000006808,true,low,NA,NA,NA,NA,NA,NA,NA,false
z8TUdBCK,3atyli1pswfm29bow6spg463876ojo,37zheehm60z6j9fu31o2evzbzrb37i,z8TUdBCK,2020-0188,2020-11-18,04:13:25,04:41:35,NA,incomplete,202,race,2,1,left,A_M_07.jpg,A_F_12.jpg,C_M_16.jpg,left,885.8199999958742,true,low,NA,NA,NA,NA,NA,NA,NA,false
z8TUdBCK,3atyli1pswfm29bow6spg463876ojo,37zheehm60z6j9fu31o2evzbzrb37i,z8TUdBCK,2020-0188,2020-11-18,04:13:25,04:41:35,NA,incomplete,203,race,2,1,left,A_F_07.jpg,A_M_12.jpg,C_F_15.jpg,left,977.8449999867007,true,low,NA,NA,NA,NA,NA,NA,NA,false
z8TUdBCK,3atyli1pswfm29bow6spg463876ojo,37zheehm60z6j9fu31o2evzbzrb37i,z8TUdBCK,2020-0188,2020-11-18,04:13:25,04:41:35,NA,incomplete,204,race,2,0,left,A_F_04.jpg,A_M_10.jpg,C_F_02.jpg,left,904.2699999990873,true,low,NA,NA,NA,NA,NA,NA,NA,false
z8TUdBCK,3atyli1pswfm29bow6spg463876ojo,37zheehm60z6j9fu31o2evzbzrb37i,z8TUdBCK,2020-0188,2020-11-18,04:13:25,04:41:35,NA,incomplete,205,race,2,1,right,C_F_14.jpg,A_F_06.jpg,C_M_12.jpg,right,1246.8949999893084,true,low,NA,NA,NA,NA,NA,NA,NA,false
z8TUdBCK,3atyli1pswfm29bow6spg463876ojo,37zheehm60z6j9fu31o2evzbzrb37i,z8TUdBCK,2020-0188,2020-11-18,04:13:25,04:41:35,NA,incomplete,206,race,2,0,left,C_M_13.jpg,C_F_15.jpg,A_M_10.jpg,left,1067.5050000136252,true,low,NA,NA,NA,NA,NA,NA,NA,false
z8TUdBCK,3atyli1pswfm29bow6spg463876ojo,37zheehm60z6j9fu31o2evzbzrb37i,z8TUdBCK,2020-0188,2020-11-18,04:13:25,04:41:35,NA,incomplete,207,race,2,1,left,C_F_03.jpg,C_M_07.jpg,A_F_11.jpg,left,1045.1150000153575,true,low,NA,NA,NA,NA,NA,NA,NA,false
z8TUdBCK,3atyli1pswfm29bow6spg463876ojo,37zheehm60z6j9fu31o2evzbzrb37i,z8TUdBCK,2020-0188,2020-11-18,04:13:25,04:41:35,NA,incomplete,208,race,2,1,right,C_F_12.jpg,A_F_15.jpg,C_M_05.jpg,right,1187.2450000082608,true,low,NA,NA,NA,NA,NA,NA,NA,false
z8TUdBCK,3atyli1pswfm29bow6spg463876ojo,37zheehm60z6j9fu31o2evzbzrb37i,z8TUdBCK,2020-0188,2020-11-18,04:13:25,04:41:35,NA,incomplete,209,race,2,1,left,C_M_11.jpg,C_F_10.jpg,A_M_05.jpg,left,951.9900000013877,true,low,NA,NA,NA,NA,NA,NA,NA,false
z8TUdBCK,3atyli1pswfm29bow6spg463876ojo,37zheehm60z6j9fu31o2evzbzrb37i,z8TUdBCK,2020-0188,2020-11-18,04:13:25,04:41:35,NA,incomplete,210,race,2,0,left,C_F_14.jpg,C_M_10.jpg,A_F_12.jpg,left,798.6399999936111,true,low,NA,NA,NA,NA,NA,NA,NA,false
z8TUdBCK,3atyli1pswfm29bow6spg463876ojo,37zheehm60z6j9fu31o2evzbzrb37i,z8TUdBCK,2020-0188,2020-11-18,04:13:25,04:41:35,NA,incomplete,211,race,2,1,left,C_M_02.jpg,C_F_13.jpg,A_M_12.jpg,left,900.4950000089593,true,low,NA,NA,NA,NA,NA,NA,NA,false
z8TUdBCK,3atyli1pswfm29bow6spg463876ojo,37zheehm60z6j9fu31o2evzbzrb37i,z8TUdBCK,2020-0188,2020-11-18,04:13:25,04:41:35,NA,incomplete,212,race,2,1,right,C_F_02.jpg,A_F_06.jpg,C_M_13.jpg,right,962.4450000119396,true,low,NA,NA,NA,NA,NA,NA,NA,false
z8TUdBCK,3atyli1pswfm29bow6spg463876ojo,37zheehm60z6j9fu31o2evzbzrb37i,z8TUdBCK,2020-0188,2020-11-18,04:13:25,04:41:35,NA,incomplete,213,race,2,1,left,C_F_08.jpg,C_M_07.jpg,A_F_10.jpg,right,1521.9600000127684,false,low,NA,NA,NA,NA,NA,NA,NA,false
z8TUdBCK,3atyli1pswfm29bow6spg463876ojo,37zheehm60z6j9fu31o2evzbzrb37i,z8TUdBCK,2020-0188,2020-11-18,04:13:25,04:41:35,NA,incomplete,214,race,2,0,left,A_M_15.jpg,A_F_13.jpg,C_M_16.jpg,left,1766.925000003539,true,low,NA,NA,NA,NA,NA,NA,NA,false
z8TUdBCK,3atyli1pswfm29bow6spg463876ojo,37zheehm60z6j9fu31o2evzbzrb37i,z8TUdBCK,2020-0188,2020-11-18,04:13:25,04:41:35,NA,incomplete,215,race,2,1,right,A_M_02.jpg,C_M_16.jpg,A_F_04.jpg,right,1037.03000000678,true,low,NA,NA,NA,NA,NA,NA,NA,false
z8TUdBCK,3atyli1pswfm29bow6spg463876ojo,37zheehm60z6j9fu31o2evzbzrb37i,z8TUdBCK,2020-0188,2020-11-18,04:13:25,04:41:35,NA,incomplete,216,race,2,1,left,A_M_12.jpg,A_F_16.jpg,C_M_06.jpg,left,1060.5650000215974,true,low,NA,NA,NA,NA,NA,NA,NA,false
z8TUdBCK,3atyli1pswfm29bow6spg463876ojo,37zheehm60z6j9fu31o2evzbzrb37i,z8TUdBCK,2020-0188,2020-11-18,04:13:25,04:41:35,NA,incomplete,217,race,2,1,left,A_M_02.jpg,A_F_06.jpg,C_M_08.jpg,left,767.6900000078604,true,low,NA,NA,NA,NA,NA,NA,NA,false
z8TUdBCK,3atyli1pswfm29bow6spg463876ojo,37zheehm60z6j9fu31o2evzbzrb37i,z8TUdBCK,2020-0188,2020-11-18,04:13:25,04:41:35,NA,incomplete,218,race,2,1,left,A_F_02.jpg,A_M_12.jpg,C_F_07.jpg,left,770.1949999900535,true,low,NA,NA,NA,NA,NA,NA,NA,false
z8TUdBCK,3atyli1pswfm29bow6spg463876ojo,37zheehm60z6j9fu31o2evzbzrb37i,z8TUdBCK,2020-0188,2020-11-18,04:13:25,04:41:35,NA,incomplete,219,race,2,1,left,A_M_16.jpg,A_F_05.jpg,C_M_02.jpg,left,955.3849999792874,true,low,NA,NA,NA,NA,NA,NA,NA,false
z8TUdBCK,3atyli1pswfm29bow6spg463876ojo,37zheehm60z6j9fu31o2evzbzrb37i,z8TUdBCK,2020-0188,2020-11-18,04:13:25,04:41:35,NA,incomplete,220,gender,3,1,right,A_F_06.jpg,A_M_11.jpg,C_F_10.jpg,left,800.9650000021793,false,low,NA,NA,NA,NA,NA,NA,NA,false
z8TUdBCK,3atyli1pswfm29bow6spg463876ojo,37zheehm60z6j9fu31o2evzbzrb37i,z8TUdBCK,2020-0188,2020-11-18,04:13:25,04:41:35,NA,incomplete,221,gender,3,0,left,C_F_04.jpg,A_F_01.jpg,C_M_03.jpg,right,892.7149999944959,false,low,NA,NA,NA,NA,NA,NA,NA,false
z8TUdBCK,3atyli1pswfm29bow6spg463876ojo,37zheehm60z6j9fu31o2evzbzrb37i,z8TUdBCK,2020-0188,2020-11-18,04:13:25,04:41:35,NA,incomplete,222,gender,3,1,left,A_F_12.jpg,C_F_15.jpg,A_M_05.jpg,right,1181.9400000094902,false,low,NA,NA,NA,NA,NA,NA,NA,false
z8TUdBCK,3atyli1pswfm29bow6spg463876ojo,37zheehm60z6j9fu31o2evzbzrb37i,z8TUdBCK,2020-0188,2020-11-18,04:13:25,04:41:35,NA,incomplete,223,gender,3,1,right,C_M_04.jpg,C_F_02.jpg,A_M_10.jpg,right,954.7849999798927,true,low,NA,NA,NA,NA,NA,NA,NA,false
z8TUdBCK,3atyli1pswfm29bow6spg463876ojo,37zheehm60z6j9fu31o2evzbzrb37i,z8TUdBCK,2020-0188,2020-11-18,04:13:25,04:41:35,NA,incomplete,224,gender,3,1,left,A_M_13.jpg,C_M_15.jpg,A_F_07.jpg,left,1380.4949999903329,true,low,NA,NA,NA,NA,NA,NA,NA,false
z8TUdBCK,3atyli1pswfm29bow6spg463876ojo,37zheehm60z6j9fu31o2evzbzrb37i,z8TUdBCK,2020-0188,2020-11-18,04:13:25,04:41:35,NA,incomplete,225,gender,3,1,left,C_M_16.jpg,A_M_05.jpg,C_F_01.jpg,right,909.5249999954831,false,low,NA,NA,NA,NA,NA,NA,NA,false
z8TUdBCK,3atyli1pswfm29bow6spg463876ojo,37zheehm60z6j9fu31o2evzbzrb37i,z8TUdBCK,2020-0188,2020-11-18,04:13:25,04:41:35,NA,incomplete,226,gender,3,1,right,C_M_06.jpg,C_F_05.jpg,A_M_02.jpg,right,1247.6199999800883,true,low,NA,NA,NA,NA,NA,NA,NA,false
z8TUdBCK,3atyli1pswfm29bow6spg463876ojo,37zheehm60z6j9fu31o2evzbzrb37i,z8TUdBCK,2020-0188,2020-11-18,04:13:25,04:41:35,NA,incomplete,227,gender,3,1,right,C_M_02.jpg,C_F_14.jpg,A_M_03.jpg,right,1353.8399999961257,true,low,NA,NA,NA,NA,NA,NA,NA,false
z8TUdBCK,3atyli1pswfm29bow6spg463876ojo,37zheehm60z6j9fu31o2evzbzrb37i,z8TUdBCK,2020-0188,2020-11-18,04:13:25,04:41:35,NA,incomplete,228,gender,3,1,left,A_M_07.jpg,C_M_14.jpg,A_F_04.jpg,left,1369.765000010375,true,low,NA,NA,NA,NA,NA,NA,NA,false
z8TUdBCK,3atyli1pswfm29bow6spg463876ojo,37zheehm60z6j9fu31o2evzbzrb37i,z8TUdBCK,2020-0188,2020-11-18,04:13:25,04:41:35,NA,incomplete,229,gender,3,1,left,C_F_16.jpg,A_F_10.jpg,C_M_06.jpg,left,897.4849999940488,true,low,NA,NA,NA,NA,NA,NA,NA,false
z8TUdBCK,3atyli1pswfm29bow6spg463876ojo,37zheehm60z6j9fu31o2evzbzrb37i,z8TUdBCK,2020-0188,2020-11-18,04:13:25,04:41:35,NA,incomplete,230,gender,3,1,right,A_F_09.jpg,A_M_16.jpg,C_F_14.jpg,right,1303.8850000011735,true,low,NA,NA,NA,NA,NA,NA,NA,false
z8TUdBCK,3atyli1pswfm29bow6spg463876ojo,37zheehm60z6j9fu31o2evzbzrb37i,z8TUdBCK,2020-0188,2020-11-18,04:13:25,04:41:35,NA,incomplete,231,gender,3,1,right,A_M_11.jpg,A_F_15.jpg,C_M_04.jpg,left,1001.2750000169035,false,low,NA,NA,NA,NA,NA,NA,NA,false
z8TUdBCK,3atyli1pswfm29bow6spg463876ojo,37zheehm60z6j9fu31o2evzbzrb37i,z8TUdBCK,2020-0188,2020-11-18,04:13:25,04:41:35,NA,incomplete,232,gender,3,1,right,A_M_09.jpg,A_F_08.jpg,C_M_06.jpg,right,1404.3949999904726,true,low,NA,NA,NA,NA,NA,NA,NA,false
z8TUdBCK,3atyli1pswfm29bow6spg463876ojo,37zheehm60z6j9fu31o2evzbzrb37i,z8TUdBCK,2020-0188,2020-11-18,04:13:25,04:41:35,NA,incomplete,233,gender,3,1,right,A_M_10.jpg,A_F_01.jpg,C_M_04.jpg,right,1202.6800000166986,true,low,NA,NA,NA,NA,NA,NA,NA,false
z8TUdBCK,3atyli1pswfm29bow6spg463876ojo,37zheehm60z6j9fu31o2evzbzrb37i,z8TUdBCK,2020-0188,2020-11-18,04:13:25,04:41:35,NA,incomplete,234,gender,3,1,right,A_F_07.jpg,A_M_14.jpg,C_F_08.jpg,right,1079.2599999986123,true,low,NA,NA,NA,NA,NA,NA,NA,false
z8TUdBCK,3atyli1pswfm29bow6spg463876ojo,37zheehm60z6j9fu31o2evzbzrb37i,z8TUdBCK,2020-0188,2020-11-18,04:13:25,04:41:35,NA,incomplete,235,gender,3,1,right,A_M_08.jpg,A_F_10.jpg,C_M_05.jpg,right,1311.760000011418,true,low,NA,NA,NA,NA,NA,NA,NA,false
z8TUdBCK,3atyli1pswfm29bow6spg463876ojo,37zheehm60z6j9fu31o2evzbzrb37i,z8TUdBCK,2020-0188,2020-11-18,04:13:25,04:41:35,NA,incomplete,236,gender,3,1,left,A_M_15.jpg,C_M_01.jpg,A_F_05.jpg,left,1480.2299999864772,true,low,NA,NA,NA,NA,NA,NA,NA,false
z8TUdBCK,3atyli1pswfm29bow6spg463876ojo,37zheehm60z6j9fu31o2evzbzrb37i,z8TUdBCK,2020-0188,2020-11-18,04:13:25,04:41:35,NA,incomplete,237,gender,3,1,right,C_F_15.jpg,C_M_08.jpg,A_F_10.jpg,right,939.3250000139233,true,low,NA,NA,NA,NA,NA,NA,NA,false
z8TUdBCK,3atyli1pswfm29bow6spg463876ojo,37zheehm60z6j9fu31o2evzbzrb37i,z8TUdBCK,2020-0188,2020-11-18,04:13:25,04:41:35,NA,incomplete,238,gender,3,1,right,C_M_01.jpg,C_F_14.jpg,A_M_06.jpg,right,1373.3049999864306,true,low,NA,NA,NA,NA,NA,NA,NA,false
z8TUdBCK,3atyli1pswfm29bow6spg463876ojo,37zheehm60z6j9fu31o2evzbzrb37i,z8TUdBCK,2020-0188,2020-11-18,04:13:25,04:41:35,NA,incomplete,239,gender,3,1,right,C_M_03.jpg,C_F_10.jpg,A_M_01.jpg,right,1074.6900000085589,true,low,NA,NA,NA,NA,NA,NA,NA,false
z8TUdBCK,3atyli1pswfm29bow6spg463876ojo,37zheehm60z6j9fu31o2evzbzrb37i,z8TUdBCK,2020-0188,2020-11-18,04:13:25,04:41:35,NA,NA,instruction example,filling,NA,NA,NA,Red_Star_Grid_2.jpg,Green_Triangle_Grid_1.jpg,Purple_Plus_Dots_2.jpg,NA,NA,NA,NA,NA,NA,NA,NA,NA,NA,NA,undefined
z8TUdBCK,3atyli1pswfm29bow6spg463876ojo,37zheehm60z6j9fu31o2evzbzrb37i,z8TUdBCK,2020-0188,2020-11-18,04:13:25,04:41:35,NA,NA,instruction example,filling,NA,NA,NA,Red_Plus_Chess_3.jpg,Blue_Star_Dots_3.jpg,Green_Triangle_Chess_2.jpg,NA,NA,NA,NA,NA,NA,NA,NA,NA,NA,NA,undefined
z8TUdBCK,3atyli1pswfm29bow6spg463876ojo,37zheehm60z6j9fu31o2evzbzrb37i,z8TUdBCK,2020-0188,2020-11-18,04:13:25,04:41:35,NA,NA,instruction example,filling,NA,NA,NA,A_M_15.jpg,A_F_04.jpg,C_M_03.jpg,NA,NA,NA,NA,NA,NA,NA,NA,NA,NA,NA,undefined
z8TUdBCK,3atyli1pswfm29bow6spg463876ojo,37zheehm60z6j9fu31o2evzbzrb37i,z8TUdBCK,2020-0188,2020-11-18,04:13:25,04:41:35,NA,NA,instruction example,filling,NA,NA,NA,C_F_16.jpg,A_F_04.jpg,C_M_13.jpg,NA,NA,NA,NA,NA,NA,NA,NA,NA,NA,NA,undefined
z8TUdBCK,3atyli1pswfm29bow6spg463876ojo,37zheehm60z6j9fu31o2evzbzrb37i,z8TUdBCK,2020-0188,2020-11-18,04:13:25,04:41:35,1643685.3450000053,1691041.7350000062,NA,NA,NA,NA,NA,NA,NA,NA,NA,NA,NA,NA,33,White/Caucasian,Male,Do not wish to reply,no,no,no,undefined
