workerId,hitId,assignmentId,subject,studyid,exp_date,exp_start,exp_end,time_start,time_end,trial,type,sequence,reward_validity,answer,image_top,image_left,image_right,response,response_time,response_acc,volatility,practice
W5egcVvm,3t5zxgo9eh1fn0t8t5nft3pt661qzj,386csbg1o3zfma7ri2v6lpsqe2u6q2,W5egcVvm,2020-0188,2020-11-17,09:25:31,09:47:05,NA,incomplete,0,shape,0,1,right,Blue_Plus_Grid_2.jpg,Red_Triangle_Stripes_2.jpg,Purple_Plus_Dots_3.jpg,right,1459.3149999855086,true,NA,true
W5egcVvm,3t5zxgo9eh1fn0t8t5nft3pt661qzj,386csbg1o3zfma7ri2v6lpsqe2u6q2,W5egcVvm,2020-0188,2020-11-17,09:25:31,09:47:05,NA,incomplete,1,shape,0,0,left,Red_Triangle_Grid_3.jpg,Green_Triangle_Dots_2.jpg,Blue_Circle_Stripes_3.jpg,left,718.1699999782722,true,NA,true
W5egcVvm,3t5zxgo9eh1fn0t8t5nft3pt661qzj,386csbg1o3zfma7ri2v6lpsqe2u6q2,W5egcVvm,2020-0188,2020-11-17,09:25:31,09:47:05,NA,incomplete,2,shape,0,1,right,Red_Plus_Grid_1.jpg,Blue_Star_Chess_1.jpg,Green_Plus_Stripes_4.jpg,right,1284.4049999839626,true,NA,true
W5egcVvm,3t5zxgo9eh1fn0t8t5nft3pt661qzj,386csbg1o3zfma7ri2v6lpsqe2u6q2,W5egcVvm,2020-0188,2020-11-17,09:25:31,09:47:05,NA,incomplete,3,shape,0,1,left,Green_Circle_Chess_1.jpg,Blue_Circle_Stripes_4.jpg,Red_Plus_Grid_1.jpg,left,725.559999991674,true,NA,true
W5egcVvm,3t5zxgo9eh1fn0t8t5nft3pt661qzj,386csbg1o3zfma7ri2v6lpsqe2u6q2,W5egcVvm,2020-0188,2020-11-17,09:25:31,09:47:05,NA,incomplete,4,shape,0,1,right,Purple_Plus_Stripes_4.jpg,Red_Triangle_Dots_4.jpg,Green_Plus_Chess_3.jpg,right,953.1100000021979,true,NA,true
W5egcVvm,3t5zxgo9eh1fn0t8t5nft3pt661qzj,386csbg1o3zfma7ri2v6lpsqe2u6q2,W5egcVvm,2020-0188,2020-11-17,09:25:31,09:47:05,NA,incomplete,5,shape,0,1,left,Red_Plus_Chess_1.jpg,Green_Plus_Stripes_2.jpg,Purple_Star_Grid_1.jpg,left,691.4499999838881,true,NA,true
W5egcVvm,3t5zxgo9eh1fn0t8t5nft3pt661qzj,386csbg1o3zfma7ri2v6lpsqe2u6q2,W5egcVvm,2020-0188,2020-11-17,09:25:31,09:47:05,NA,incomplete,6,shape,0,1,right,Red_Star_Chess_2.jpg,Green_Triangle_Dots_2.jpg,Blue_Star_Stripes_3.jpg,right,726.0750000132248,true,NA,true
W5egcVvm,3t5zxgo9eh1fn0t8t5nft3pt661qzj,386csbg1o3zfma7ri2v6lpsqe2u6q2,W5egcVvm,2020-0188,2020-11-17,09:25:31,09:47:05,NA,incomplete,7,shape,0,0,left,Purple_Circle_Chess_1.jpg,Blue_Circle_Grid_2.jpg,Green_Plus_Stripes_1.jpg,left,671.1749999958556,true,NA,true
W5egcVvm,3t5zxgo9eh1fn0t8t5nft3pt661qzj,386csbg1o3zfma7ri2v6lpsqe2u6q2,W5egcVvm,2020-0188,2020-11-17,09:25:31,09:47:05,NA,incomplete,8,shape,0,1,left,Red_Circle_Stripes_1.jpg,Purple_Circle_Grid_4.jpg,Blue_Star_Chess_1.jpg,left,697.7400000032503,true,NA,true
W5egcVvm,3t5zxgo9eh1fn0t8t5nft3pt661qzj,386csbg1o3zfma7ri2v6lpsqe2u6q2,W5egcVvm,2020-0188,2020-11-17,09:25:31,09:47:05,NA,incomplete,9,shape,0,0,left,Green_Star_Stripes_4.jpg,Red_Star_Chess_1.jpg,Blue_Plus_Dots_4.jpg,left,795.574999996461,true,NA,true
W5egcVvm,3t5zxgo9eh1fn0t8t5nft3pt661qzj,386csbg1o3zfma7ri2v6lpsqe2u6q2,W5egcVvm,2020-0188,2020-11-17,09:25:31,09:47:05,NA,incomplete,10,shape,0,1,left,Red_Circle_Grid_1.jpg,Blue_Circle_Chess_2.jpg,Green_Plus_Dots_1.jpg,left,705.2599999879021,true,NA,true
W5egcVvm,3t5zxgo9eh1fn0t8t5nft3pt661qzj,386csbg1o3zfma7ri2v6lpsqe2u6q2,W5egcVvm,2020-0188,2020-11-17,09:25:31,09:47:05,NA,incomplete,11,shape,0,1,left,Red_Star_Chess_3.jpg,Blue_Star_Dots_1.jpg,Green_Circle_Stripes_3.jpg,left,709.1599999985192,true,NA,true
W5egcVvm,3t5zxgo9eh1fn0t8t5nft3pt661qzj,386csbg1o3zfma7ri2v6lpsqe2u6q2,W5egcVvm,2020-0188,2020-11-17,09:25:31,09:47:05,NA,incomplete,12,shape,0,0,right,Purple_Plus_Stripes_4.jpg,Red_Triangle_Chess_4.jpg,Blue_Plus_Grid_2.jpg,right,965.9099999989849,true,NA,true
W5egcVvm,3t5zxgo9eh1fn0t8t5nft3pt661qzj,386csbg1o3zfma7ri2v6lpsqe2u6q2,W5egcVvm,2020-0188,2020-11-17,09:25:31,09:47:05,NA,incomplete,13,shape,0,1,right,Blue_Triangle_Chess_2.jpg,Red_Plus_Dots_2.jpg,Green_Triangle_Stripes_3.jpg,left,875.6149999971967,false,NA,true
W5egcVvm,3t5zxgo9eh1fn0t8t5nft3pt661qzj,386csbg1o3zfma7ri2v6lpsqe2u6q2,W5egcVvm,2020-0188,2020-11-17,09:25:31,09:47:05,NA,incomplete,14,shape,0,1,left,Red_Plus_Stripes_3.jpg,Blue_Plus_Chess_1.jpg,Purple_Triangle_Dots_3.jpg,left,844.825000007404,true,NA,true
W5egcVvm,3t5zxgo9eh1fn0t8t5nft3pt661qzj,386csbg1o3zfma7ri2v6lpsqe2u6q2,W5egcVvm,2020-0188,2020-11-17,09:25:31,09:47:05,NA,incomplete,15,shape,0,1,right,Purple_Plus_Grid_1.jpg,Green_Triangle_Dots_1.jpg,Red_Plus_Stripes_2.jpg,right,751.1449999874458,true,NA,true
W5egcVvm,3t5zxgo9eh1fn0t8t5nft3pt661qzj,386csbg1o3zfma7ri2v6lpsqe2u6q2,W5egcVvm,2020-0188,2020-11-17,09:25:31,09:47:05,NA,incomplete,16,shape,0,1,left,Purple_Star_Chess_1.jpg,Red_Star_Stripes_4.jpg,Blue_Triangle_Grid_1.jpg,left,794.4900000002235,true,NA,true
W5egcVvm,3t5zxgo9eh1fn0t8t5nft3pt661qzj,386csbg1o3zfma7ri2v6lpsqe2u6q2,W5egcVvm,2020-0188,2020-11-17,09:25:31,09:47:05,NA,incomplete,17,shape,0,1,right,Green_Star_Dots_1.jpg,Purple_Triangle_Grid_1.jpg,Red_Star_Stripes_2.jpg,right,896.1899999994785,true,NA,true
W5egcVvm,3t5zxgo9eh1fn0t8t5nft3pt661qzj,386csbg1o3zfma7ri2v6lpsqe2u6q2,W5egcVvm,2020-0188,2020-11-17,09:25:31,09:47:05,NA,incomplete,18,shape,0,1,right,Red_Star_Dots_2.jpg,Green_Plus_Grid_2.jpg,Purple_Star_Chess_4.jpg,right,1089.8250000027474,true,NA,true
W5egcVvm,3t5zxgo9eh1fn0t8t5nft3pt661qzj,386csbg1o3zfma7ri2v6lpsqe2u6q2,W5egcVvm,2020-0188,2020-11-17,09:25:31,09:47:05,NA,incomplete,19,shape,0,0,left,Blue_Plus_Stripes_3.jpg,Purple_Plus_Chess_4.jpg,Red_Triangle_Grid_3.jpg,left,746.629999979632,true,NA,true
W5egcVvm,3t5zxgo9eh1fn0t8t5nft3pt661qzj,386csbg1o3zfma7ri2v6lpsqe2u6q2,W5egcVvm,2020-0188,2020-11-17,09:25:31,09:47:05,NA,incomplete,20,number,1,0,right,Red_Star_Stripes_1.jpg,Purple_Star_Chess_2.jpg,Green_Plus_Grid_1.jpg,right,1037.5350000103936,true,NA,true
W5egcVvm,3t5zxgo9eh1fn0t8t5nft3pt661qzj,386csbg1o3zfma7ri2v6lpsqe2u6q2,W5egcVvm,2020-0188,2020-11-17,09:25:31,09:47:05,NA,incomplete,21,number,1,1,left,Blue_Star_Stripes_2.jpg,Red_Circle_Dots_2.jpg,Purple_Star_Grid_1.jpg,right,781.1500000243541,false,NA,true
W5egcVvm,3t5zxgo9eh1fn0t8t5nft3pt661qzj,386csbg1o3zfma7ri2v6lpsqe2u6q2,W5egcVvm,2020-0188,2020-11-17,09:25:31,09:47:05,NA,incomplete,22,number,1,1,left,Blue_Triangle_Grid_4.jpg,Purple_Circle_Stripes_4.jpg,Green_Triangle_Dots_1.jpg,left,1073.0200000107288,true,NA,true
W5egcVvm,3t5zxgo9eh1fn0t8t5nft3pt661qzj,386csbg1o3zfma7ri2v6lpsqe2u6q2,W5egcVvm,2020-0188,2020-11-17,09:25:31,09:47:05,NA,incomplete,23,number,1,1,right,Green_Triangle_Grid_1.jpg,Red_Triangle_Chess_2.jpg,Blue_Star_Stripes_1.jpg,right,816.9400000188034,true,NA,true
W5egcVvm,3t5zxgo9eh1fn0t8t5nft3pt661qzj,386csbg1o3zfma7ri2v6lpsqe2u6q2,W5egcVvm,2020-0188,2020-11-17,09:25:31,09:47:05,NA,incomplete,24,number,1,1,left,Purple_Triangle_Stripes_2.jpg,Red_Circle_Dots_2.jpg,Green_Triangle_Grid_4.jpg,left,812.6300000003539,true,NA,true
W5egcVvm,3t5zxgo9eh1fn0t8t5nft3pt661qzj,386csbg1o3zfma7ri2v6lpsqe2u6q2,W5egcVvm,2020-0188,2020-11-17,09:25:31,09:47:05,NA,incomplete,25,number,1,1,left,Green_Circle_Stripes_4.jpg,Red_Plus_Dots_4.jpg,Blue_Circle_Grid_2.jpg,left,1053.730000014184,true,NA,true
W5egcVvm,3t5zxgo9eh1fn0t8t5nft3pt661qzj,386csbg1o3zfma7ri2v6lpsqe2u6q2,W5egcVvm,2020-0188,2020-11-17,09:25:31,09:47:05,NA,incomplete,26,number,1,0,right,Blue_Star_Dots_1.jpg,Purple_Star_Grid_3.jpg,Red_Plus_Chess_1.jpg,right,828.2849999959581,true,NA,true
W5egcVvm,3t5zxgo9eh1fn0t8t5nft3pt661qzj,386csbg1o3zfma7ri2v6lpsqe2u6q2,W5egcVvm,2020-0188,2020-11-17,09:25:31,09:47:05,NA,incomplete,27,number,1,1,left,Red_Triangle_Dots_4.jpg,Green_Star_Chess_4.jpg,Purple_Triangle_Stripes_2.jpg,left,1082.3999999847729,true,NA,true
W5egcVvm,3t5zxgo9eh1fn0t8t5nft3pt661qzj,386csbg1o3zfma7ri2v6lpsqe2u6q2,W5egcVvm,2020-0188,2020-11-17,09:25:31,09:47:05,NA,incomplete,28,number,1,1,right,Green_Star_Grid_1.jpg,Red_Star_Stripes_2.jpg,Blue_Triangle_Chess_1.jpg,right,951.1749999946915,true,NA,true
W5egcVvm,3t5zxgo9eh1fn0t8t5nft3pt661qzj,386csbg1o3zfma7ri2v6lpsqe2u6q2,W5egcVvm,2020-0188,2020-11-17,09:25:31,09:47:05,NA,incomplete,29,number,1,1,left,Red_Star_Grid_2.jpg,Purple_Circle_Chess_2.jpg,Blue_Star_Dots_4.jpg,left,871.8349999981001,true,NA,true
W5egcVvm,3t5zxgo9eh1fn0t8t5nft3pt661qzj,386csbg1o3zfma7ri2v6lpsqe2u6q2,W5egcVvm,2020-0188,2020-11-17,09:25:31,09:47:05,NA,incomplete,30,number,1,0,left,Blue_Plus_Grid_2.jpg,Green_Circle_Stripes_2.jpg,Red_Plus_Chess_3.jpg,left,825.3700000059325,true,NA,true
W5egcVvm,3t5zxgo9eh1fn0t8t5nft3pt661qzj,386csbg1o3zfma7ri2v6lpsqe2u6q2,W5egcVvm,2020-0188,2020-11-17,09:25:31,09:47:05,NA,incomplete,31,number,1,1,right,Blue_Triangle_Chess_1.jpg,Green_Triangle_Dots_2.jpg,Purple_Plus_Grid_1.jpg,right,1052.3550000216346,true,NA,true
W5egcVvm,3t5zxgo9eh1fn0t8t5nft3pt661qzj,386csbg1o3zfma7ri2v6lpsqe2u6q2,W5egcVvm,2020-0188,2020-11-17,09:25:31,09:47:05,NA,incomplete,32,number,1,1,right,Blue_Triangle_Dots_1.jpg,Green_Triangle_Stripes_3.jpg,Purple_Plus_Grid_1.jpg,right,823.3750000072177,true,NA,true
W5egcVvm,3t5zxgo9eh1fn0t8t5nft3pt661qzj,386csbg1o3zfma7ri2v6lpsqe2u6q2,W5egcVvm,2020-0188,2020-11-17,09:25:31,09:47:05,NA,incomplete,33,number,1,1,left,Blue_Star_Grid_1.jpg,Green_Circle_Dots_1.jpg,Purple_Star_Stripes_3.jpg,left,974.7700000007171,true,NA,true
W5egcVvm,3t5zxgo9eh1fn0t8t5nft3pt661qzj,386csbg1o3zfma7ri2v6lpsqe2u6q2,W5egcVvm,2020-0188,2020-11-17,09:25:31,09:47:05,NA,incomplete,34,number,1,1,left,Red_Circle_Stripes_2.jpg,Purple_Star_Grid_2.jpg,Green_Circle_Dots_1.jpg,left,1307.7899999916553,true,NA,true
W5egcVvm,3t5zxgo9eh1fn0t8t5nft3pt661qzj,386csbg1o3zfma7ri2v6lpsqe2u6q2,W5egcVvm,2020-0188,2020-11-17,09:25:31,09:47:05,NA,incomplete,35,number,1,1,right,Red_Triangle_Chess_2.jpg,Purple_Triangle_Dots_3.jpg,Blue_Circle_Stripes_2.jpg,right,867.8749999962747,true,NA,true
W5egcVvm,3t5zxgo9eh1fn0t8t5nft3pt661qzj,386csbg1o3zfma7ri2v6lpsqe2u6q2,W5egcVvm,2020-0188,2020-11-17,09:25:31,09:47:05,NA,incomplete,36,number,1,1,right,Green_Plus_Chess_1.jpg,Blue_Plus_Dots_2.jpg,Red_Star_Stripes_1.jpg,right,893.2199999981094,true,NA,true
W5egcVvm,3t5zxgo9eh1fn0t8t5nft3pt661qzj,386csbg1o3zfma7ri2v6lpsqe2u6q2,W5egcVvm,2020-0188,2020-11-17,09:25:31,09:47:05,NA,incomplete,37,number,1,1,right,Red_Circle_Dots_4.jpg,Green_Circle_Grid_3.jpg,Purple_Triangle_Stripes_4.jpg,right,890.3850000060629,true,NA,true
W5egcVvm,3t5zxgo9eh1fn0t8t5nft3pt661qzj,386csbg1o3zfma7ri2v6lpsqe2u6q2,W5egcVvm,2020-0188,2020-11-17,09:25:31,09:47:05,NA,incomplete,38,number,1,1,right,Blue_Triangle_Dots_2.jpg,Purple_Triangle_Grid_3.jpg,Green_Circle_Chess_2.jpg,right,905.2599999995437,true,NA,true
W5egcVvm,3t5zxgo9eh1fn0t8t5nft3pt661qzj,386csbg1o3zfma7ri2v6lpsqe2u6q2,W5egcVvm,2020-0188,2020-11-17,09:25:31,09:47:05,NA,incomplete,39,number,1,1,right,Blue_Triangle_Grid_4.jpg,Red_Triangle_Stripes_2.jpg,Green_Circle_Chess_4.jpg,right,890.1049999985844,true,NA,true
W5egcVvm,3t5zxgo9eh1fn0t8t5nft3pt661qzj,386csbg1o3zfma7ri2v6lpsqe2u6q2,W5egcVvm,2020-0188,2020-11-17,09:25:31,09:47:05,NA,incomplete,0,shape,0,1,left,Blue_Triangle_Dots_3.jpg,Red_Triangle_Stripes_1.jpg,Green_Plus_Grid_3.jpg,none,0,false,low,false
W5egcVvm,3t5zxgo9eh1fn0t8t5nft3pt661qzj,386csbg1o3zfma7ri2v6lpsqe2u6q2,W5egcVvm,2020-0188,2020-11-17,09:25:31,09:47:05,NA,incomplete,1,shape,0,1,right,Green_Star_Stripes_1.jpg,Red_Triangle_Dots_1.jpg,Blue_Star_Chess_4.jpg,right,1853.9849999942817,true,low,false
W5egcVvm,3t5zxgo9eh1fn0t8t5nft3pt661qzj,386csbg1o3zfma7ri2v6lpsqe2u6q2,W5egcVvm,2020-0188,2020-11-17,09:25:31,09:47:05,NA,incomplete,2,shape,0,1,right,Green_Star_Chess_2.jpg,Red_Triangle_Dots_2.jpg,Blue_Star_Stripes_1.jpg,right,841.984999977285,true,low,false
W5egcVvm,3t5zxgo9eh1fn0t8t5nft3pt661qzj,386csbg1o3zfma7ri2v6lpsqe2u6q2,W5egcVvm,2020-0188,2020-11-17,09:25:31,09:47:05,NA,incomplete,3,shape,0,1,right,Blue_Star_Grid_3.jpg,Purple_Plus_Stripes_3.jpg,Green_Star_Dots_1.jpg,right,937.2450000082608,true,low,false
W5egcVvm,3t5zxgo9eh1fn0t8t5nft3pt661qzj,386csbg1o3zfma7ri2v6lpsqe2u6q2,W5egcVvm,2020-0188,2020-11-17,09:25:31,09:47:05,NA,incomplete,4,shape,0,0,right,Green_Plus_Stripes_1.jpg,Blue_Triangle_Grid_1.jpg,Purple_Plus_Chess_2.jpg,right,841.5400000230875,true,low,false
W5egcVvm,3t5zxgo9eh1fn0t8t5nft3pt661qzj,386csbg1o3zfma7ri2v6lpsqe2u6q2,W5egcVvm,2020-0188,2020-11-17,09:25:31,09:47:05,NA,incomplete,5,shape,0,1,left,Purple_Plus_Grid_2.jpg,Green_Plus_Stripes_4.jpg,Red_Triangle_Dots_2.jpg,left,1029.790000000503,true,low,false
W5egcVvm,3t5zxgo9eh1fn0t8t5nft3pt661qzj,386csbg1o3zfma7ri2v6lpsqe2u6q2,W5egcVvm,2020-0188,2020-11-17,09:25:31,09:47:05,NA,incomplete,6,shape,0,1,left,Purple_Plus_Chess_4.jpg,Blue_Plus_Stripes_1.jpg,Red_Star_Dots_4.jpg,left,923.6749999981839,true,low,false
W5egcVvm,3t5zxgo9eh1fn0t8t5nft3pt661qzj,386csbg1o3zfma7ri2v6lpsqe2u6q2,W5egcVvm,2020-0188,2020-11-17,09:25:31,09:47:05,NA,incomplete,7,shape,0,1,left,Red_Triangle_Grid_2.jpg,Purple_Triangle_Stripes_3.jpg,Green_Circle_Dots_2.jpg,left,795.0849999906495,true,low,false
W5egcVvm,3t5zxgo9eh1fn0t8t5nft3pt661qzj,386csbg1o3zfma7ri2v6lpsqe2u6q2,W5egcVvm,2020-0188,2020-11-17,09:25:31,09:47:05,NA,incomplete,8,shape,0,1,right,Purple_Star_Chess_1.jpg,Red_Plus_Dots_1.jpg,Green_Star_Stripes_4.jpg,right,945.4949999926612,true,low,false
W5egcVvm,3t5zxgo9eh1fn0t8t5nft3pt661qzj,386csbg1o3zfma7ri2v6lpsqe2u6q2,W5egcVvm,2020-0188,2020-11-17,09:25:31,09:47:05,NA,incomplete,9,shape,0,1,left,Red_Plus_Grid_4.jpg,Green_Plus_Dots_1.jpg,Purple_Circle_Chess_4.jpg,left,861.3300000142772,true,low,false
W5egcVvm,3t5zxgo9eh1fn0t8t5nft3pt661qzj,386csbg1o3zfma7ri2v6lpsqe2u6q2,W5egcVvm,2020-0188,2020-11-17,09:25:31,09:47:05,NA,incomplete,10,number,1,1,right,Green_Star_Dots_3.jpg,Blue_Star_Grid_1.jpg,Red_Circle_Chess_3.jpg,left,867.854999989504,false,low,false
W5egcVvm,3t5zxgo9eh1fn0t8t5nft3pt661qzj,386csbg1o3zfma7ri2v6lpsqe2u6q2,W5egcVvm,2020-0188,2020-11-17,09:25:31,09:47:05,NA,incomplete,11,number,1,1,right,Green_Star_Grid_1.jpg,Red_Star_Chess_3.jpg,Purple_Triangle_Dots_1.jpg,left,779.404999979306,false,low,false
W5egcVvm,3t5zxgo9eh1fn0t8t5nft3pt661qzj,386csbg1o3zfma7ri2v6lpsqe2u6q2,W5egcVvm,2020-0188,2020-11-17,09:25:31,09:47:05,NA,incomplete,12,number,1,1,left,Red_Triangle_Stripes_4.jpg,Purple_Circle_Chess_4.jpg,Green_Triangle_Dots_2.jpg,left,1291.1299999977928,true,low,false
W5egcVvm,3t5zxgo9eh1fn0t8t5nft3pt661qzj,386csbg1o3zfma7ri2v6lpsqe2u6q2,W5egcVvm,2020-0188,2020-11-17,09:25:31,09:47:05,NA,incomplete,13,number,1,1,right,Green_Triangle_Chess_4.jpg,Blue_Triangle_Grid_1.jpg,Purple_Star_Dots_4.jpg,right,1029.210000007879,true,low,false
W5egcVvm,3t5zxgo9eh1fn0t8t5nft3pt661qzj,386csbg1o3zfma7ri2v6lpsqe2u6q2,W5egcVvm,2020-0188,2020-11-17,09:25:31,09:47:05,NA,incomplete,14,number,1,1,right,Blue_Triangle_Chess_2.jpg,Purple_Triangle_Grid_4.jpg,Green_Plus_Dots_2.jpg,right,772.7550000126939,true,low,false
W5egcVvm,3t5zxgo9eh1fn0t8t5nft3pt661qzj,386csbg1o3zfma7ri2v6lpsqe2u6q2,W5egcVvm,2020-0188,2020-11-17,09:25:31,09:47:05,NA,incomplete,15,number,1,1,right,Purple_Circle_Grid_3.jpg,Green_Circle_Chess_4.jpg,Blue_Triangle_Stripes_3.jpg,left,1723.5099999816157,false,low,false
W5egcVvm,3t5zxgo9eh1fn0t8t5nft3pt661qzj,386csbg1o3zfma7ri2v6lpsqe2u6q2,W5egcVvm,2020-0188,2020-11-17,09:25:31,09:47:05,NA,incomplete,16,number,1,0,right,Purple_Circle_Dots_1.jpg,Red_Circle_Grid_2.jpg,Green_Star_Stripes_1.jpg,right,861.0650000046007,true,low,false
W5egcVvm,3t5zxgo9eh1fn0t8t5nft3pt661qzj,386csbg1o3zfma7ri2v6lpsqe2u6q2,W5egcVvm,2020-0188,2020-11-17,09:25:31,09:47:05,NA,incomplete,17,number,1,1,left,Blue_Triangle_Dots_3.jpg,Green_Plus_Chess_3.jpg,Purple_Triangle_Stripes_4.jpg,left,1538.3450000081211,true,low,false
W5egcVvm,3t5zxgo9eh1fn0t8t5nft3pt661qzj,386csbg1o3zfma7ri2v6lpsqe2u6q2,W5egcVvm,2020-0188,2020-11-17,09:25:31,09:47:05,NA,incomplete,18,number,1,0,right,Red_Plus_Stripes_1.jpg,Green_Plus_Dots_2.jpg,Blue_Star_Chess_1.jpg,right,872.2349999879953,true,low,false
W5egcVvm,3t5zxgo9eh1fn0t8t5nft3pt661qzj,386csbg1o3zfma7ri2v6lpsqe2u6q2,W5egcVvm,2020-0188,2020-11-17,09:25:31,09:47:05,NA,incomplete,19,number,1,1,right,Red_Circle_Chess_3.jpg,Green_Circle_Dots_4.jpg,Purple_Plus_Stripes_3.jpg,left,827.9850000108127,false,low,false
W5egcVvm,3t5zxgo9eh1fn0t8t5nft3pt661qzj,386csbg1o3zfma7ri2v6lpsqe2u6q2,W5egcVvm,2020-0188,2020-11-17,09:25:31,09:47:05,NA,incomplete,20,shape,0,1,left,Red_Circle_Chess_4.jpg,Green_Circle_Dots_1.jpg,Blue_Star_Grid_4.jpg,right,1302.4399999994785,false,low,false
W5egcVvm,3t5zxgo9eh1fn0t8t5nft3pt661qzj,386csbg1o3zfma7ri2v6lpsqe2u6q2,W5egcVvm,2020-0188,2020-11-17,09:25:31,09:47:05,NA,incomplete,21,shape,0,1,left,Purple_Plus_Chess_4.jpg,Green_Plus_Stripes_1.jpg,Blue_Triangle_Grid_4.jpg,left,1030.3399999975227,true,low,false
W5egcVvm,3t5zxgo9eh1fn0t8t5nft3pt661qzj,386csbg1o3zfma7ri2v6lpsqe2u6q2,W5egcVvm,2020-0188,2020-11-17,09:25:31,09:47:05,NA,incomplete,22,shape,0,1,left,Green_Plus_Stripes_4.jpg,Purple_Plus_Grid_1.jpg,Blue_Circle_Dots_4.jpg,left,721.5049999940675,true,low,false
W5egcVvm,3t5zxgo9eh1fn0t8t5nft3pt661qzj,386csbg1o3zfma7ri2v6lpsqe2u6q2,W5egcVvm,2020-0188,2020-11-17,09:25:31,09:47:05,NA,incomplete,23,shape,0,1,left,Blue_Star_Chess_4.jpg,Purple_Star_Dots_2.jpg,Green_Circle_Stripes_4.jpg,left,698.420000000624,true,low,false
W5egcVvm,3t5zxgo9eh1fn0t8t5nft3pt661qzj,386csbg1o3zfma7ri2v6lpsqe2u6q2,W5egcVvm,2020-0188,2020-11-17,09:25:31,09:47:05,NA,incomplete,24,shape,0,1,left,Purple_Star_Stripes_3.jpg,Blue_Star_Dots_4.jpg,Green_Plus_Grid_3.jpg,left,598.9600000029895,true,low,false
W5egcVvm,3t5zxgo9eh1fn0t8t5nft3pt661qzj,386csbg1o3zfma7ri2v6lpsqe2u6q2,W5egcVvm,2020-0188,2020-11-17,09:25:31,09:47:05,NA,incomplete,25,shape,0,1,right,Green_Triangle_Dots_2.jpg,Blue_Star_Grid_2.jpg,Red_Triangle_Chess_4.jpg,left,860.2350000001024,false,low,false
W5egcVvm,3t5zxgo9eh1fn0t8t5nft3pt661qzj,386csbg1o3zfma7ri2v6lpsqe2u6q2,W5egcVvm,2020-0188,2020-11-17,09:25:31,09:47:05,NA,incomplete,26,shape,0,1,left,Red_Circle_Chess_4.jpg,Purple_Circle_Stripes_3.jpg,Green_Plus_Dots_4.jpg,left,882.4949999980163,true,low,false
W5egcVvm,3t5zxgo9eh1fn0t8t5nft3pt661qzj,386csbg1o3zfma7ri2v6lpsqe2u6q2,W5egcVvm,2020-0188,2020-11-17,09:25:31,09:47:05,NA,incomplete,27,shape,0,1,left,Red_Plus_Chess_3.jpg,Purple_Plus_Grid_2.jpg,Blue_Circle_Stripes_3.jpg,left,763.6850000126287,true,low,false
W5egcVvm,3t5zxgo9eh1fn0t8t5nft3pt661qzj,386csbg1o3zfma7ri2v6lpsqe2u6q2,W5egcVvm,2020-0188,2020-11-17,09:25:31,09:47:05,NA,incomplete,28,shape,0,1,left,Red_Plus_Dots_2.jpg,Green_Plus_Chess_3.jpg,Blue_Triangle_Stripes_2.jpg,left,704.619999974966,true,low,false
W5egcVvm,3t5zxgo9eh1fn0t8t5nft3pt661qzj,386csbg1o3zfma7ri2v6lpsqe2u6q2,W5egcVvm,2020-0188,2020-11-17,09:25:31,09:47:05,NA,incomplete,29,shape,0,0,left,Green_Triangle_Dots_3.jpg,Purple_Triangle_Stripes_2.jpg,Blue_Star_Chess_3.jpg,left,801.804999995511,true,low,false
W5egcVvm,3t5zxgo9eh1fn0t8t5nft3pt661qzj,386csbg1o3zfma7ri2v6lpsqe2u6q2,W5egcVvm,2020-0188,2020-11-17,09:25:31,09:47:05,NA,incomplete,30,number,1,1,right,Green_Plus_Chess_2.jpg,Red_Plus_Stripes_1.jpg,Blue_Circle_Grid_2.jpg,right,1127.6300000026822,true,low,false
W5egcVvm,3t5zxgo9eh1fn0t8t5nft3pt661qzj,386csbg1o3zfma7ri2v6lpsqe2u6q2,W5egcVvm,2020-0188,2020-11-17,09:25:31,09:47:05,NA,incomplete,31,number,1,1,right,Blue_Circle_Chess_4.jpg,Green_Circle_Dots_1.jpg,Purple_Star_Grid_4.jpg,right,760.9149999916553,true,low,false
W5egcVvm,3t5zxgo9eh1fn0t8t5nft3pt661qzj,386csbg1o3zfma7ri2v6lpsqe2u6q2,W5egcVvm,2020-0188,2020-11-17,09:25:31,09:47:05,NA,incomplete,32,number,1,1,right,Red_Star_Dots_1.jpg,Green_Star_Stripes_3.jpg,Purple_Plus_Chess_1.jpg,right,898.5249999968801,true,low,false
W5egcVvm,3t5zxgo9eh1fn0t8t5nft3pt661qzj,386csbg1o3zfma7ri2v6lpsqe2u6q2,W5egcVvm,2020-0188,2020-11-17,09:25:31,09:47:05,NA,incomplete,33,number,1,1,left,Red_Triangle_Dots_1.jpg,Purple_Star_Grid_1.jpg,Green_Triangle_Chess_3.jpg,left,1119.8950000107288,true,low,false
W5egcVvm,3t5zxgo9eh1fn0t8t5nft3pt661qzj,386csbg1o3zfma7ri2v6lpsqe2u6q2,W5egcVvm,2020-0188,2020-11-17,09:25:31,09:47:05,NA,incomplete,34,number,1,1,left,Red_Triangle_Stripes_4.jpg,Green_Plus_Grid_4.jpg,Blue_Triangle_Chess_1.jpg,left,1209.6799999999348,true,low,false
W5egcVvm,3t5zxgo9eh1fn0t8t5nft3pt661qzj,386csbg1o3zfma7ri2v6lpsqe2u6q2,W5egcVvm,2020-0188,2020-11-17,09:25:31,09:47:05,NA,incomplete,35,number,1,1,right,Green_Star_Stripes_4.jpg,Blue_Star_Chess_1.jpg,Purple_Triangle_Dots_4.jpg,right,779.2649999901187,true,low,false
W5egcVvm,3t5zxgo9eh1fn0t8t5nft3pt661qzj,386csbg1o3zfma7ri2v6lpsqe2u6q2,W5egcVvm,2020-0188,2020-11-17,09:25:31,09:47:05,NA,incomplete,36,number,1,1,right,Red_Star_Stripes_2.jpg,Purple_Star_Grid_4.jpg,Green_Plus_Chess_2.jpg,right,847.8199999954086,true,low,false
W5egcVvm,3t5zxgo9eh1fn0t8t5nft3pt661qzj,386csbg1o3zfma7ri2v6lpsqe2u6q2,W5egcVvm,2020-0188,2020-11-17,09:25:31,09:47:05,NA,incomplete,37,number,1,1,left,Blue_Star_Chess_1.jpg,Purple_Plus_Grid_1.jpg,Red_Star_Stripes_2.jpg,left,965.8699999854434,true,low,false
W5egcVvm,3t5zxgo9eh1fn0t8t5nft3pt661qzj,386csbg1o3zfma7ri2v6lpsqe2u6q2,W5egcVvm,2020-0188,2020-11-17,09:25:31,09:47:05,NA,incomplete,38,number,1,1,left,Blue_Plus_Dots_2.jpg,Green_Triangle_Stripes_2.jpg,Red_Plus_Grid_4.jpg,left,951.4199999975972,true,low,false
W5egcVvm,3t5zxgo9eh1fn0t8t5nft3pt661qzj,386csbg1o3zfma7ri2v6lpsqe2u6q2,W5egcVvm,2020-0188,2020-11-17,09:25:31,09:47:05,NA,incomplete,39,number,1,1,right,Green_Star_Stripes_2.jpg,Purple_Star_Grid_4.jpg,Red_Circle_Chess_2.jpg,right,729.1400000103749,true,low,false
W5egcVvm,3t5zxgo9eh1fn0t8t5nft3pt661qzj,386csbg1o3zfma7ri2v6lpsqe2u6q2,W5egcVvm,2020-0188,2020-11-17,09:25:31,09:47:05,NA,incomplete,40,shape,0,0,left,Green_Plus_Grid_2.jpg,Red_Plus_Chess_3.jpg,Blue_Circle_Stripes_2.jpg,right,823.8100000016857,false,low,false
W5egcVvm,3t5zxgo9eh1fn0t8t5nft3pt661qzj,386csbg1o3zfma7ri2v6lpsqe2u6q2,W5egcVvm,2020-0188,2020-11-17,09:25:31,09:47:05,NA,incomplete,41,shape,0,0,left,Blue_Plus_Stripes_2.jpg,Purple_Plus_Chess_3.jpg,Red_Triangle_Dots_2.jpg,right,814.2550000047777,false,low,false
W5egcVvm,3t5zxgo9eh1fn0t8t5nft3pt661qzj,386csbg1o3zfma7ri2v6lpsqe2u6q2,W5egcVvm,2020-0188,2020-11-17,09:25:31,09:47:05,NA,incomplete,42,shape,0,1,right,Red_Circle_Grid_3.jpg,Green_Plus_Stripes_3.jpg,Blue_Circle_Chess_4.jpg,left,796.1000000068452,false,low,false
W5egcVvm,3t5zxgo9eh1fn0t8t5nft3pt661qzj,386csbg1o3zfma7ri2v6lpsqe2u6q2,W5egcVvm,2020-0188,2020-11-17,09:25:31,09:47:05,NA,incomplete,43,shape,0,1,right,Green_Triangle_Dots_4.jpg,Purple_Circle_Stripes_4.jpg,Red_Triangle_Chess_3.jpg,right,894.2699999897741,true,low,false
W5egcVvm,3t5zxgo9eh1fn0t8t5nft3pt661qzj,386csbg1o3zfma7ri2v6lpsqe2u6q2,W5egcVvm,2020-0188,2020-11-17,09:25:31,09:47:05,NA,incomplete,44,shape,0,1,right,Blue_Star_Grid_4.jpg,Purple_Triangle_Dots_4.jpg,Green_Star_Chess_3.jpg,right,856.6949999949429,true,low,false
W5egcVvm,3t5zxgo9eh1fn0t8t5nft3pt661qzj,386csbg1o3zfma7ri2v6lpsqe2u6q2,W5egcVvm,2020-0188,2020-11-17,09:25:31,09:47:05,NA,incomplete,45,shape,0,0,left,Purple_Circle_Chess_2.jpg,Red_Circle_Grid_1.jpg,Green_Triangle_Stripes_2.jpg,left,799.5200000004843,true,low,false
W5egcVvm,3t5zxgo9eh1fn0t8t5nft3pt661qzj,386csbg1o3zfma7ri2v6lpsqe2u6q2,W5egcVvm,2020-0188,2020-11-17,09:25:31,09:47:05,NA,incomplete,46,shape,0,1,right,Green_Circle_Dots_2.jpg,Red_Star_Chess_2.jpg,Blue_Circle_Grid_1.jpg,right,1230.9000000241213,true,low,false
W5egcVvm,3t5zxgo9eh1fn0t8t5nft3pt661qzj,386csbg1o3zfma7ri2v6lpsqe2u6q2,W5egcVvm,2020-0188,2020-11-17,09:25:31,09:47:05,NA,incomplete,47,shape,0,0,right,Blue_Triangle_Grid_4.jpg,Purple_Circle_Stripes_4.jpg,Red_Triangle_Chess_2.jpg,right,994.0449999994598,true,low,false
W5egcVvm,3t5zxgo9eh1fn0t8t5nft3pt661qzj,386csbg1o3zfma7ri2v6lpsqe2u6q2,W5egcVvm,2020-0188,2020-11-17,09:25:31,09:47:05,NA,incomplete,48,shape,0,1,left,Red_Star_Dots_1.jpg,Purple_Star_Grid_2.jpg,Green_Triangle_Chess_1.jpg,left,847.4300000234507,true,low,false
W5egcVvm,3t5zxgo9eh1fn0t8t5nft3pt661qzj,386csbg1o3zfma7ri2v6lpsqe2u6q2,W5egcVvm,2020-0188,2020-11-17,09:25:31,09:47:05,NA,incomplete,49,shape,0,0,right,Green_Plus_Grid_2.jpg,Red_Circle_Stripes_2.jpg,Blue_Plus_Chess_4.jpg,right,1429.245000006631,true,low,false
W5egcVvm,3t5zxgo9eh1fn0t8t5nft3pt661qzj,386csbg1o3zfma7ri2v6lpsqe2u6q2,W5egcVvm,2020-0188,2020-11-17,09:25:31,09:47:05,NA,incomplete,50,number,1,1,left,Green_Triangle_Stripes_3.jpg,Red_Plus_Grid_3.jpg,Blue_Triangle_Dots_4.jpg,right,1852.534999983618,false,low,false
W5egcVvm,3t5zxgo9eh1fn0t8t5nft3pt661qzj,386csbg1o3zfma7ri2v6lpsqe2u6q2,W5egcVvm,2020-0188,2020-11-17,09:25:31,09:47:05,NA,incomplete,51,number,1,1,right,Purple_Triangle_Dots_1.jpg,Blue_Triangle_Chess_4.jpg,Red_Plus_Grid_1.jpg,right,1171.2399999960326,true,low,false
W5egcVvm,3t5zxgo9eh1fn0t8t5nft3pt661qzj,386csbg1o3zfma7ri2v6lpsqe2u6q2,W5egcVvm,2020-0188,2020-11-17,09:25:31,09:47:05,NA,incomplete,52,number,1,0,right,Blue_Plus_Dots_2.jpg,Green_Plus_Stripes_3.jpg,Red_Star_Grid_2.jpg,right,923.8049999985378,true,low,false
W5egcVvm,3t5zxgo9eh1fn0t8t5nft3pt661qzj,386csbg1o3zfma7ri2v6lpsqe2u6q2,W5egcVvm,2020-0188,2020-11-17,09:25:31,09:47:05,NA,incomplete,53,number,1,0,right,Blue_Circle_Stripes_2.jpg,Purple_Circle_Grid_4.jpg,Red_Plus_Chess_2.jpg,right,1063.8350000081118,true,low,false
W5egcVvm,3t5zxgo9eh1fn0t8t5nft3pt661qzj,386csbg1o3zfma7ri2v6lpsqe2u6q2,W5egcVvm,2020-0188,2020-11-17,09:25:31,09:47:05,NA,incomplete,54,number,1,1,right,Purple_Plus_Stripes_3.jpg,Red_Plus_Chess_1.jpg,Green_Triangle_Dots_3.jpg,left,782.5749999901745,false,low,false
W5egcVvm,3t5zxgo9eh1fn0t8t5nft3pt661qzj,386csbg1o3zfma7ri2v6lpsqe2u6q2,W5egcVvm,2020-0188,2020-11-17,09:25:31,09:47:05,NA,incomplete,55,number,1,1,left,Purple_Circle_Grid_3.jpg,Green_Triangle_Dots_3.jpg,Blue_Circle_Stripes_4.jpg,right,1542.940000013914,false,low,false
W5egcVvm,3t5zxgo9eh1fn0t8t5nft3pt661qzj,386csbg1o3zfma7ri2v6lpsqe2u6q2,W5egcVvm,2020-0188,2020-11-17,09:25:31,09:47:05,NA,incomplete,56,number,1,1,right,Red_Triangle_Stripes_2.jpg,Blue_Triangle_Chess_1.jpg,Green_Circle_Dots_2.jpg,none,0,false,low,false
W5egcVvm,3t5zxgo9eh1fn0t8t5nft3pt661qzj,386csbg1o3zfma7ri2v6lpsqe2u6q2,W5egcVvm,2020-0188,2020-11-17,09:25:31,09:47:05,NA,incomplete,57,number,1,1,right,Blue_Star_Stripes_3.jpg,Red_Star_Chess_2.jpg,Purple_Plus_Grid_3.jpg,left,1380.8750000025611,false,low,false
W5egcVvm,3t5zxgo9eh1fn0t8t5nft3pt661qzj,386csbg1o3zfma7ri2v6lpsqe2u6q2,W5egcVvm,2020-0188,2020-11-17,09:25:31,09:47:05,NA,incomplete,58,number,1,1,right,Red_Triangle_Dots_2.jpg,Green_Triangle_Grid_1.jpg,Purple_Plus_Stripes_2.jpg,right,779.1150000120979,true,low,false
W5egcVvm,3t5zxgo9eh1fn0t8t5nft3pt661qzj,386csbg1o3zfma7ri2v6lpsqe2u6q2,W5egcVvm,2020-0188,2020-11-17,09:25:31,09:47:05,NA,incomplete,59,number,1,1,right,Purple_Circle_Grid_1.jpg,Blue_Circle_Dots_2.jpg,Red_Star_Chess_1.jpg,right,1164.9949999991804,true,low,false
W5egcVvm,3t5zxgo9eh1fn0t8t5nft3pt661qzj,386csbg1o3zfma7ri2v6lpsqe2u6q2,W5egcVvm,2020-0188,2020-11-17,09:25:31,09:47:05,NA,incomplete,60,shape,0,0,right,Purple_Star_Stripes_4.jpg,Green_Plus_Chess_4.jpg,Red_Star_Grid_3.jpg,left,1244.5500000030734,false,low,false
W5egcVvm,3t5zxgo9eh1fn0t8t5nft3pt661qzj,386csbg1o3zfma7ri2v6lpsqe2u6q2,W5egcVvm,2020-0188,2020-11-17,09:25:31,09:47:05,NA,incomplete,61,shape,0,1,left,Green_Circle_Chess_1.jpg,Blue_Circle_Grid_2.jpg,Purple_Star_Dots_1.jpg,right,746.049999987008,false,low,false
W5egcVvm,3t5zxgo9eh1fn0t8t5nft3pt661qzj,386csbg1o3zfma7ri2v6lpsqe2u6q2,W5egcVvm,2020-0188,2020-11-17,09:25:31,09:47:05,NA,incomplete,62,shape,0,1,left,Green_Triangle_Chess_3.jpg,Red_Triangle_Grid_4.jpg,Blue_Star_Stripes_3.jpg,right,1342.2950000094716,false,low,false
W5egcVvm,3t5zxgo9eh1fn0t8t5nft3pt661qzj,386csbg1o3zfma7ri2v6lpsqe2u6q2,W5egcVvm,2020-0188,2020-11-17,09:25:31,09:47:05,NA,incomplete,63,shape,0,1,right,Purple_Triangle_Stripes_3.jpg,Red_Circle_Chess_3.jpg,Green_Triangle_Dots_2.jpg,right,944.8949999932665,true,low,false
W5egcVvm,3t5zxgo9eh1fn0t8t5nft3pt661qzj,386csbg1o3zfma7ri2v6lpsqe2u6q2,W5egcVvm,2020-0188,2020-11-17,09:25:31,09:47:05,NA,incomplete,64,shape,0,1,right,Blue_Plus_Stripes_4.jpg,Purple_Star_Grid_4.jpg,Green_Plus_Chess_2.jpg,right,1096.6699999989942,true,low,false
W5egcVvm,3t5zxgo9eh1fn0t8t5nft3pt661qzj,386csbg1o3zfma7ri2v6lpsqe2u6q2,W5egcVvm,2020-0188,2020-11-17,09:25:31,09:47:05,NA,incomplete,65,shape,0,1,right,Blue_Triangle_Dots_2.jpg,Green_Plus_Grid_2.jpg,Red_Triangle_Chess_1.jpg,right,823.210000002291,true,low,false
W5egcVvm,3t5zxgo9eh1fn0t8t5nft3pt661qzj,386csbg1o3zfma7ri2v6lpsqe2u6q2,W5egcVvm,2020-0188,2020-11-17,09:25:31,09:47:05,NA,incomplete,66,shape,0,1,right,Red_Star_Dots_1.jpg,Purple_Circle_Grid_1.jpg,Blue_Star_Chess_4.jpg,right,943.650000001071,true,low,false
W5egcVvm,3t5zxgo9eh1fn0t8t5nft3pt661qzj,386csbg1o3zfma7ri2v6lpsqe2u6q2,W5egcVvm,2020-0188,2020-11-17,09:25:31,09:47:05,NA,incomplete,67,shape,0,0,right,Green_Star_Dots_4.jpg,Red_Circle_Grid_4.jpg,Blue_Star_Stripes_2.jpg,right,745.1799999980722,true,low,false
W5egcVvm,3t5zxgo9eh1fn0t8t5nft3pt661qzj,386csbg1o3zfma7ri2v6lpsqe2u6q2,W5egcVvm,2020-0188,2020-11-17,09:25:31,09:47:05,NA,incomplete,68,shape,0,0,left,Purple_Circle_Dots_4.jpg,Blue_Circle_Chess_2.jpg,Green_Star_Stripes_4.jpg,left,1506.200000003446,true,low,false
W5egcVvm,3t5zxgo9eh1fn0t8t5nft3pt661qzj,386csbg1o3zfma7ri2v6lpsqe2u6q2,W5egcVvm,2020-0188,2020-11-17,09:25:31,09:47:05,NA,incomplete,69,shape,0,1,right,Purple_Star_Chess_4.jpg,Blue_Plus_Dots_4.jpg,Green_Star_Stripes_1.jpg,left,984.375,false,low,false
W5egcVvm,3t5zxgo9eh1fn0t8t5nft3pt661qzj,386csbg1o3zfma7ri2v6lpsqe2u6q2,W5egcVvm,2020-0188,2020-11-17,09:25:31,09:47:05,NA,incomplete,70,number,1,1,right,Purple_Plus_Dots_3.jpg,Green_Plus_Stripes_4.jpg,Red_Triangle_Grid_3.jpg,right,935.1950000273064,true,low,false
W5egcVvm,3t5zxgo9eh1fn0t8t5nft3pt661qzj,386csbg1o3zfma7ri2v6lpsqe2u6q2,W5egcVvm,2020-0188,2020-11-17,09:25:31,09:47:05,NA,incomplete,71,number,1,1,right,Blue_Circle_Grid_3.jpg,Red_Circle_Dots_2.jpg,Purple_Triangle_Stripes_3.jpg,right,961.7100000032224,true,low,false
W5egcVvm,3t5zxgo9eh1fn0t8t5nft3pt661qzj,386csbg1o3zfma7ri2v6lpsqe2u6q2,W5egcVvm,2020-0188,2020-11-17,09:25:31,09:47:05,NA,incomplete,72,number,1,1,right,Green_Star_Stripes_3.jpg,Purple_Star_Dots_4.jpg,Blue_Triangle_Grid_3.jpg,right,1136.1150000011548,true,low,false
W5egcVvm,3t5zxgo9eh1fn0t8t5nft3pt661qzj,386csbg1o3zfma7ri2v6lpsqe2u6q2,W5egcVvm,2020-0188,2020-11-17,09:25:31,09:47:05,NA,incomplete,73,number,1,0,right,Blue_Circle_Stripes_4.jpg,Red_Circle_Chess_3.jpg,Purple_Star_Dots_4.jpg,right,1103.0699999828357,true,low,false
W5egcVvm,3t5zxgo9eh1fn0t8t5nft3pt661qzj,386csbg1o3zfma7ri2v6lpsqe2u6q2,W5egcVvm,2020-0188,2020-11-17,09:25:31,09:47:05,NA,incomplete,74,number,1,1,right,Green_Triangle_Stripes_4.jpg,Red_Triangle_Chess_3.jpg,Blue_Circle_Grid_4.jpg,left,902.5799999944866,false,low,false
W5egcVvm,3t5zxgo9eh1fn0t8t5nft3pt661qzj,386csbg1o3zfma7ri2v6lpsqe2u6q2,W5egcVvm,2020-0188,2020-11-17,09:25:31,09:47:05,NA,incomplete,75,number,1,1,right,Purple_Circle_Stripes_2.jpg,Blue_Circle_Grid_1.jpg,Green_Star_Dots_2.jpg,right,937.3149999883026,true,low,false
W5egcVvm,3t5zxgo9eh1fn0t8t5nft3pt661qzj,386csbg1o3zfma7ri2v6lpsqe2u6q2,W5egcVvm,2020-0188,2020-11-17,09:25:31,09:47:05,NA,incomplete,76,number,1,1,right,Green_Star_Grid_3.jpg,Blue_Star_Dots_1.jpg,Purple_Circle_Stripes_3.jpg,right,1115.685000026133,true,low,false
W5egcVvm,3t5zxgo9eh1fn0t8t5nft3pt661qzj,386csbg1o3zfma7ri2v6lpsqe2u6q2,W5egcVvm,2020-0188,2020-11-17,09:25:31,09:47:05,NA,incomplete,77,number,1,1,right,Blue_Star_Grid_2.jpg,Purple_Star_Chess_4.jpg,Red_Circle_Stripes_2.jpg,right,897.9749999998603,true,low,false
W5egcVvm,3t5zxgo9eh1fn0t8t5nft3pt661qzj,386csbg1o3zfma7ri2v6lpsqe2u6q2,W5egcVvm,2020-0188,2020-11-17,09:25:31,09:47:05,NA,incomplete,78,number,1,0,left,Green_Circle_Dots_4.jpg,Blue_Star_Grid_4.jpg,Purple_Circle_Stripes_2.jpg,left,882.5099999958184,true,low,false
W5egcVvm,3t5zxgo9eh1fn0t8t5nft3pt661qzj,386csbg1o3zfma7ri2v6lpsqe2u6q2,W5egcVvm,2020-0188,2020-11-17,09:25:31,09:47:05,NA,incomplete,79,number,1,1,right,Purple_Triangle_Grid_1.jpg,Blue_Triangle_Dots_4.jpg,Green_Star_Chess_1.jpg,left,1505.6949999998324,false,low,false
W5egcVvm,3t5zxgo9eh1fn0t8t5nft3pt661qzj,386csbg1o3zfma7ri2v6lpsqe2u6q2,W5egcVvm,2020-0188,2020-11-17,09:25:31,09:47:05,NA,incomplete,80,shape,0,1,left,Green_Plus_Stripes_3.jpg,Blue_Plus_Chess_2.jpg,Purple_Circle_Dots_3.jpg,right,1196.4499999885447,false,low,false
W5egcVvm,3t5zxgo9eh1fn0t8t5nft3pt661qzj,386csbg1o3zfma7ri2v6lpsqe2u6q2,W5egcVvm,2020-0188,2020-11-17,09:25:31,09:47:05,NA,incomplete,81,shape,0,1,left,Blue_Star_Dots_4.jpg,Red_Star_Stripes_1.jpg,Purple_Triangle_Chess_4.jpg,left,690.2150000096299,true,low,false
W5egcVvm,3t5zxgo9eh1fn0t8t5nft3pt661qzj,386csbg1o3zfma7ri2v6lpsqe2u6q2,W5egcVvm,2020-0188,2020-11-17,09:25:31,09:47:05,NA,incomplete,82,shape,0,1,right,Green_Triangle_Stripes_4.jpg,Purple_Star_Dots_4.jpg,Blue_Triangle_Chess_1.jpg,right,831.1800000083167,true,low,false
W5egcVvm,3t5zxgo9eh1fn0t8t5nft3pt661qzj,386csbg1o3zfma7ri2v6lpsqe2u6q2,W5egcVvm,2020-0188,2020-11-17,09:25:31,09:47:05,NA,incomplete,83,shape,0,0,left,Red_Star_Chess_3.jpg,Blue_Star_Grid_2.jpg,Green_Triangle_Dots_3.jpg,left,764.6150000218768,true,low,false
W5egcVvm,3t5zxgo9eh1fn0t8t5nft3pt661qzj,386csbg1o3zfma7ri2v6lpsqe2u6q2,W5egcVvm,2020-0188,2020-11-17,09:25:31,09:47:05,NA,incomplete,84,shape,0,0,left,Purple_Star_Dots_4.jpg,Blue_Star_Grid_3.jpg,Red_Plus_Chess_4.jpg,left,646.7049999919254,true,low,false
W5egcVvm,3t5zxgo9eh1fn0t8t5nft3pt661qzj,386csbg1o3zfma7ri2v6lpsqe2u6q2,W5egcVvm,2020-0188,2020-11-17,09:25:31,09:47:05,NA,incomplete,85,shape,0,1,left,Red_Star_Grid_1.jpg,Green_Star_Stripes_4.jpg,Blue_Plus_Dots_1.jpg,right,892.0149999903515,false,low,false
W5egcVvm,3t5zxgo9eh1fn0t8t5nft3pt661qzj,386csbg1o3zfma7ri2v6lpsqe2u6q2,W5egcVvm,2020-0188,2020-11-17,09:25:31,09:47:05,NA,incomplete,86,shape,0,1,left,Blue_Circle_Grid_4.jpg,Green_Circle_Dots_1.jpg,Purple_Star_Chess_4.jpg,left,1094.680000009248,true,low,false
W5egcVvm,3t5zxgo9eh1fn0t8t5nft3pt661qzj,386csbg1o3zfma7ri2v6lpsqe2u6q2,W5egcVvm,2020-0188,2020-11-17,09:25:31,09:47:05,NA,incomplete,87,shape,0,0,left,Red_Plus_Grid_3.jpg,Green_Plus_Stripes_4.jpg,Blue_Circle_Dots_3.jpg,left,774.5849999773782,true,low,false
W5egcVvm,3t5zxgo9eh1fn0t8t5nft3pt661qzj,386csbg1o3zfma7ri2v6lpsqe2u6q2,W5egcVvm,2020-0188,2020-11-17,09:25:31,09:47:05,NA,incomplete,88,shape,0,1,right,Purple_Circle_Grid_2.jpg,Red_Plus_Stripes_2.jpg,Green_Circle_Dots_1.jpg,right,1131.1550000100397,true,low,false
W5egcVvm,3t5zxgo9eh1fn0t8t5nft3pt661qzj,386csbg1o3zfma7ri2v6lpsqe2u6q2,W5egcVvm,2020-0188,2020-11-17,09:25:31,09:47:05,NA,incomplete,89,shape,0,1,left,Purple_Star_Dots_1.jpg,Green_Star_Stripes_2.jpg,Red_Triangle_Chess_1.jpg,left,668.020000011893,true,low,false
W5egcVvm,3t5zxgo9eh1fn0t8t5nft3pt661qzj,386csbg1o3zfma7ri2v6lpsqe2u6q2,W5egcVvm,2020-0188,2020-11-17,09:25:31,09:47:05,NA,incomplete,90,number,1,1,left,Green_Circle_Chess_3.jpg,Blue_Star_Dots_3.jpg,Purple_Circle_Stripes_1.jpg,right,668.0150000029244,false,low,false
W5egcVvm,3t5zxgo9eh1fn0t8t5nft3pt661qzj,386csbg1o3zfma7ri2v6lpsqe2u6q2,W5egcVvm,2020-0188,2020-11-17,09:25:31,09:47:05,NA,incomplete,91,number,1,1,left,Purple_Triangle_Dots_1.jpg,Red_Plus_Grid_1.jpg,Blue_Triangle_Chess_4.jpg,right,959.6549999841955,false,low,false
W5egcVvm,3t5zxgo9eh1fn0t8t5nft3pt661qzj,386csbg1o3zfma7ri2v6lpsqe2u6q2,W5egcVvm,2020-0188,2020-11-17,09:25:31,09:47:05,NA,incomplete,92,number,1,0,left,Green_Circle_Grid_3.jpg,Red_Plus_Stripes_3.jpg,Blue_Circle_Dots_1.jpg,left,1086.2550000019837,true,low,false
W5egcVvm,3t5zxgo9eh1fn0t8t5nft3pt661qzj,386csbg1o3zfma7ri2v6lpsqe2u6q2,W5egcVvm,2020-0188,2020-11-17,09:25:31,09:47:05,NA,incomplete,93,number,1,1,left,Red_Star_Grid_1.jpg,Purple_Triangle_Dots_1.jpg,Blue_Star_Chess_2.jpg,right,1460.9249999921303,false,low,false
W5egcVvm,3t5zxgo9eh1fn0t8t5nft3pt661qzj,386csbg1o3zfma7ri2v6lpsqe2u6q2,W5egcVvm,2020-0188,2020-11-17,09:25:31,09:47:05,NA,incomplete,94,number,1,1,left,Green_Plus_Stripes_2.jpg,Purple_Circle_Chess_2.jpg,Red_Plus_Dots_1.jpg,none,0,false,low,false
W5egcVvm,3t5zxgo9eh1fn0t8t5nft3pt661qzj,386csbg1o3zfma7ri2v6lpsqe2u6q2,W5egcVvm,2020-0188,2020-11-17,09:25:31,09:47:05,NA,incomplete,95,number,1,1,left,Red_Circle_Stripes_3.jpg,Blue_Star_Dots_3.jpg,Purple_Circle_Chess_1.jpg,right,812.1249999967404,false,low,false
W5egcVvm,3t5zxgo9eh1fn0t8t5nft3pt661qzj,386csbg1o3zfma7ri2v6lpsqe2u6q2,W5egcVvm,2020-0188,2020-11-17,09:25:31,09:47:05,NA,incomplete,96,number,1,1,left,Green_Plus_Dots_3.jpg,Red_Star_Chess_3.jpg,Purple_Plus_Grid_4.jpg,left,1163.9350000186823,true,low,false
W5egcVvm,3t5zxgo9eh1fn0t8t5nft3pt661qzj,386csbg1o3zfma7ri2v6lpsqe2u6q2,W5egcVvm,2020-0188,2020-11-17,09:25:31,09:47:05,NA,incomplete,97,number,1,1,left,Purple_Star_Dots_3.jpg,Blue_Triangle_Chess_3.jpg,Red_Star_Grid_2.jpg,left,1358.2549999991897,true,low,false
W5egcVvm,3t5zxgo9eh1fn0t8t5nft3pt661qzj,386csbg1o3zfma7ri2v6lpsqe2u6q2,W5egcVvm,2020-0188,2020-11-17,09:25:31,09:47:05,NA,incomplete,98,number,1,1,right,Purple_Star_Grid_1.jpg,Red_Star_Chess_4.jpg,Green_Circle_Stripes_1.jpg,right,788.2250000257045,true,low,false
W5egcVvm,3t5zxgo9eh1fn0t8t5nft3pt661qzj,386csbg1o3zfma7ri2v6lpsqe2u6q2,W5egcVvm,2020-0188,2020-11-17,09:25:31,09:47:05,NA,incomplete,99,number,1,1,right,Green_Star_Chess_1.jpg,Purple_Star_Dots_3.jpg,Red_Triangle_Stripes_1.jpg,right,898.7100000085775,true,low,false
W5egcVvm,3t5zxgo9eh1fn0t8t5nft3pt661qzj,386csbg1o3zfma7ri2v6lpsqe2u6q2,W5egcVvm,2020-0188,2020-11-17,09:25:31,09:47:05,NA,incomplete,100,shape,0,1,left,Green_Plus_Grid_3.jpg,Blue_Plus_Chess_1.jpg,Red_Circle_Dots_3.jpg,right,1069.0750000067055,false,low,false
W5egcVvm,3t5zxgo9eh1fn0t8t5nft3pt661qzj,386csbg1o3zfma7ri2v6lpsqe2u6q2,W5egcVvm,2020-0188,2020-11-17,09:25:31,09:47:05,NA,incomplete,101,shape,0,0,right,Blue_Star_Stripes_3.jpg,Green_Plus_Dots_3.jpg,Red_Star_Chess_2.jpg,left,1743.6150000139605,false,low,false
W5egcVvm,3t5zxgo9eh1fn0t8t5nft3pt661qzj,386csbg1o3zfma7ri2v6lpsqe2u6q2,W5egcVvm,2020-0188,2020-11-17,09:25:31,09:47:05,NA,incomplete,102,shape,0,0,left,Blue_Plus_Dots_1.jpg,Red_Plus_Grid_3.jpg,Purple_Triangle_Chess_1.jpg,right,804.9349999928381,false,low,false
W5egcVvm,3t5zxgo9eh1fn0t8t5nft3pt661qzj,386csbg1o3zfma7ri2v6lpsqe2u6q2,W5egcVvm,2020-0188,2020-11-17,09:25:31,09:47:05,NA,incomplete,103,shape,0,1,left,Green_Plus_Stripes_2.jpg,Blue_Plus_Dots_1.jpg,Purple_Circle_Grid_2.jpg,right,837.6349999743979,false,low,false
W5egcVvm,3t5zxgo9eh1fn0t8t5nft3pt661qzj,386csbg1o3zfma7ri2v6lpsqe2u6q2,W5egcVvm,2020-0188,2020-11-17,09:25:31,09:47:05,NA,incomplete,104,shape,0,1,left,Blue_Circle_Dots_3.jpg,Purple_Circle_Grid_2.jpg,Red_Plus_Stripes_3.jpg,right,985.0649999862071,false,low,false
W5egcVvm,3t5zxgo9eh1fn0t8t5nft3pt661qzj,386csbg1o3zfma7ri2v6lpsqe2u6q2,W5egcVvm,2020-0188,2020-11-17,09:25:31,09:47:05,NA,incomplete,105,shape,0,1,left,Purple_Circle_Chess_4.jpg,Green_Circle_Dots_1.jpg,Blue_Star_Stripes_4.jpg,left,676.164999982575,true,low,false
W5egcVvm,3t5zxgo9eh1fn0t8t5nft3pt661qzj,386csbg1o3zfma7ri2v6lpsqe2u6q2,W5egcVvm,2020-0188,2020-11-17,09:25:31,09:47:05,NA,incomplete,106,shape,0,1,left,Blue_Plus_Chess_2.jpg,Green_Plus_Dots_4.jpg,Purple_Triangle_Stripes_2.jpg,left,787.175000004936,true,low,false
W5egcVvm,3t5zxgo9eh1fn0t8t5nft3pt661qzj,386csbg1o3zfma7ri2v6lpsqe2u6q2,W5egcVvm,2020-0188,2020-11-17,09:25:31,09:47:05,NA,incomplete,107,shape,0,1,right,Red_Circle_Dots_2.jpg,Green_Triangle_Grid_2.jpg,Blue_Circle_Stripes_4.jpg,right,712.824999995064,true,low,false
W5egcVvm,3t5zxgo9eh1fn0t8t5nft3pt661qzj,386csbg1o3zfma7ri2v6lpsqe2u6q2,W5egcVvm,2020-0188,2020-11-17,09:25:31,09:47:05,NA,incomplete,108,shape,0,0,left,Blue_Plus_Grid_3.jpg,Green_Plus_Chess_4.jpg,Red_Triangle_Stripes_3.jpg,left,814.4150000007357,true,low,false
W5egcVvm,3t5zxgo9eh1fn0t8t5nft3pt661qzj,386csbg1o3zfma7ri2v6lpsqe2u6q2,W5egcVvm,2020-0188,2020-11-17,09:25:31,09:47:05,NA,incomplete,109,shape,0,1,right,Blue_Plus_Stripes_4.jpg,Green_Triangle_Dots_4.jpg,Red_Plus_Chess_3.jpg,right,906.315000000177,true,low,false
W5egcVvm,3t5zxgo9eh1fn0t8t5nft3pt661qzj,386csbg1o3zfma7ri2v6lpsqe2u6q2,W5egcVvm,2020-0188,2020-11-17,09:25:31,09:47:05,NA,incomplete,110,number,1,1,left,Green_Star_Dots_4.jpg,Blue_Plus_Stripes_4.jpg,Red_Star_Chess_3.jpg,right,632.9650000261609,false,low,false
W5egcVvm,3t5zxgo9eh1fn0t8t5nft3pt661qzj,386csbg1o3zfma7ri2v6lpsqe2u6q2,W5egcVvm,2020-0188,2020-11-17,09:25:31,09:47:05,NA,incomplete,111,number,1,1,left,Red_Plus_Stripes_1.jpg,Purple_Circle_Dots_1.jpg,Blue_Plus_Chess_3.jpg,right,744.5900000166148,false,low,false
W5egcVvm,3t5zxgo9eh1fn0t8t5nft3pt661qzj,386csbg1o3zfma7ri2v6lpsqe2u6q2,W5egcVvm,2020-0188,2020-11-17,09:25:31,09:47:05,NA,incomplete,112,number,1,1,right,Blue_Circle_Chess_3.jpg,Purple_Circle_Stripes_1.jpg,Red_Triangle_Dots_3.jpg,right,968.6650000221562,true,low,false
W5egcVvm,3t5zxgo9eh1fn0t8t5nft3pt661qzj,386csbg1o3zfma7ri2v6lpsqe2u6q2,W5egcVvm,2020-0188,2020-11-17,09:25:31,09:47:05,NA,incomplete,113,number,1,1,left,Red_Circle_Chess_3.jpg,Blue_Triangle_Dots_3.jpg,Purple_Circle_Grid_1.jpg,left,1110.4000000050291,true,low,false
W5egcVvm,3t5zxgo9eh1fn0t8t5nft3pt661qzj,386csbg1o3zfma7ri2v6lpsqe2u6q2,W5egcVvm,2020-0188,2020-11-17,09:25:31,09:47:05,NA,incomplete,114,number,1,1,right,Blue_Plus_Grid_3.jpg,Red_Plus_Dots_4.jpg,Green_Triangle_Chess_3.jpg,right,1142.9249999928288,true,low,false
W5egcVvm,3t5zxgo9eh1fn0t8t5nft3pt661qzj,386csbg1o3zfma7ri2v6lpsqe2u6q2,W5egcVvm,2020-0188,2020-11-17,09:25:31,09:47:05,NA,incomplete,115,number,1,0,right,Blue_Plus_Stripes_4.jpg,Purple_Plus_Chess_3.jpg,Red_Triangle_Dots_4.jpg,right,881.8200000096112,true,low,false
W5egcVvm,3t5zxgo9eh1fn0t8t5nft3pt661qzj,386csbg1o3zfma7ri2v6lpsqe2u6q2,W5egcVvm,2020-0188,2020-11-17,09:25:31,09:47:05,NA,incomplete,116,number,1,1,right,Purple_Plus_Grid_2.jpg,Blue_Plus_Chess_3.jpg,Red_Triangle_Dots_2.jpg,right,745.7200000062585,true,low,false
W5egcVvm,3t5zxgo9eh1fn0t8t5nft3pt661qzj,386csbg1o3zfma7ri2v6lpsqe2u6q2,W5egcVvm,2020-0188,2020-11-17,09:25:31,09:47:05,NA,incomplete,117,number,1,1,left,Green_Circle_Grid_3.jpg,Blue_Triangle_Stripes_3.jpg,Red_Circle_Dots_1.jpg,left,1052.5450000131968,true,low,false
W5egcVvm,3t5zxgo9eh1fn0t8t5nft3pt661qzj,386csbg1o3zfma7ri2v6lpsqe2u6q2,W5egcVvm,2020-0188,2020-11-17,09:25:31,09:47:05,NA,incomplete,118,number,1,1,right,Red_Star_Chess_3.jpg,Blue_Star_Grid_1.jpg,Green_Circle_Dots_3.jpg,right,1050.9799999999814,true,low,false
W5egcVvm,3t5zxgo9eh1fn0t8t5nft3pt661qzj,386csbg1o3zfma7ri2v6lpsqe2u6q2,W5egcVvm,2020-0188,2020-11-17,09:25:31,09:47:05,NA,incomplete,119,number,1,1,right,Purple_Plus_Dots_2.jpg,Blue_Plus_Chess_3.jpg,Red_Circle_Grid_2.jpg,right,1624.744999979157,true,low,false
W5egcVvm,3t5zxgo9eh1fn0t8t5nft3pt661qzj,386csbg1o3zfma7ri2v6lpsqe2u6q2,W5egcVvm,2020-0188,2020-11-17,09:25:31,09:47:05,NA,incomplete,120,gender,2,1,right,C_M_04.jpg,C_F_01.jpg,A_M_09.jpg,NA,NA,NA,low,false
W5egcVvm,3t5zxgo9eh1fn0t8t5nft3pt661qzj,386csbg1o3zfma7ri2v6lpsqe2u6q2,W5egcVvm,2020-0188,2020-11-17,09:25:31,09:47:05,NA,incomplete,121,gender,2,1,right,A_F_11.jpg,A_M_16.jpg,C_F_08.jpg,right,1183.6199999961536,true,low,false
W5egcVvm,3t5zxgo9eh1fn0t8t5nft3pt661qzj,386csbg1o3zfma7ri2v6lpsqe2u6q2,W5egcVvm,2020-0188,2020-11-17,09:25:31,09:47:05,NA,incomplete,122,gender,2,0,right,C_F_13.jpg,C_M_08.jpg,A_F_12.jpg,right,674.0050000080373,true,low,false
W5egcVvm,3t5zxgo9eh1fn0t8t5nft3pt661qzj,386csbg1o3zfma7ri2v6lpsqe2u6q2,W5egcVvm,2020-0188,2020-11-17,09:25:31,09:47:05,NA,incomplete,123,gender,2,1,right,A_M_05.jpg,A_F_07.jpg,C_M_09.jpg,right,1397.8950000018813,true,low,false
W5egcVvm,3t5zxgo9eh1fn0t8t5nft3pt661qzj,386csbg1o3zfma7ri2v6lpsqe2u6q2,W5egcVvm,2020-0188,2020-11-17,09:25:31,09:47:05,NA,incomplete,124,gender,2,1,left,A_M_08.jpg,C_M_12.jpg,A_F_01.jpg,left,956.6549999872223,true,low,false
W5egcVvm,3t5zxgo9eh1fn0t8t5nft3pt661qzj,386csbg1o3zfma7ri2v6lpsqe2u6q2,W5egcVvm,2020-0188,2020-11-17,09:25:31,09:47:05,NA,incomplete,125,gender,2,1,left,C_M_11.jpg,A_M_02.jpg,C_F_10.jpg,left,1017.3699999868404,true,low,false
W5egcVvm,3t5zxgo9eh1fn0t8t5nft3pt661qzj,386csbg1o3zfma7ri2v6lpsqe2u6q2,W5egcVvm,2020-0188,2020-11-17,09:25:31,09:47:05,NA,incomplete,126,gender,2,1,right,C_M_04.jpg,C_F_15.jpg,A_M_16.jpg,right,857.2449999919627,true,low,false
W5egcVvm,3t5zxgo9eh1fn0t8t5nft3pt661qzj,386csbg1o3zfma7ri2v6lpsqe2u6q2,W5egcVvm,2020-0188,2020-11-17,09:25:31,09:47:05,NA,incomplete,127,gender,2,1,right,A_F_10.jpg,A_M_13.jpg,C_F_06.jpg,right,963.6549999995623,true,low,false
W5egcVvm,3t5zxgo9eh1fn0t8t5nft3pt661qzj,386csbg1o3zfma7ri2v6lpsqe2u6q2,W5egcVvm,2020-0188,2020-11-17,09:25:31,09:47:05,NA,incomplete,128,gender,2,1,left,C_F_16.jpg,A_F_14.jpg,C_M_15.jpg,left,867.4400000018068,true,low,false
W5egcVvm,3t5zxgo9eh1fn0t8t5nft3pt661qzj,386csbg1o3zfma7ri2v6lpsqe2u6q2,W5egcVvm,2020-0188,2020-11-17,09:25:31,09:47:05,NA,incomplete,129,gender,2,1,left,C_M_05.jpg,A_M_03.jpg,C_F_10.jpg,left,1038.0500000028405,true,low,false
W5egcVvm,3t5zxgo9eh1fn0t8t5nft3pt661qzj,386csbg1o3zfma7ri2v6lpsqe2u6q2,W5egcVvm,2020-0188,2020-11-17,09:25:31,09:47:05,NA,incomplete,130,gender,2,1,left,A_F_03.jpg,C_F_06.jpg,A_M_07.jpg,left,1198.6800000013318,true,low,false
W5egcVvm,3t5zxgo9eh1fn0t8t5nft3pt661qzj,386csbg1o3zfma7ri2v6lpsqe2u6q2,W5egcVvm,2020-0188,2020-11-17,09:25:31,09:47:05,NA,incomplete,131,gender,2,0,left,A_M_04.jpg,C_M_01.jpg,A_F_03.jpg,left,869.3050000001676,true,low,false
W5egcVvm,3t5zxgo9eh1fn0t8t5nft3pt661qzj,386csbg1o3zfma7ri2v6lpsqe2u6q2,W5egcVvm,2020-0188,2020-11-17,09:25:31,09:47:05,NA,incomplete,132,gender,2,1,right,A_M_14.jpg,A_F_08.jpg,C_M_01.jpg,left,1414.6699999982957,false,low,false
W5egcVvm,3t5zxgo9eh1fn0t8t5nft3pt661qzj,386csbg1o3zfma7ri2v6lpsqe2u6q2,W5egcVvm,2020-0188,2020-11-17,09:25:31,09:47:05,NA,incomplete,133,gender,2,1,right,C_M_02.jpg,C_F_16.jpg,A_M_11.jpg,right,857.0849999960046,true,low,false
W5egcVvm,3t5zxgo9eh1fn0t8t5nft3pt661qzj,386csbg1o3zfma7ri2v6lpsqe2u6q2,W5egcVvm,2020-0188,2020-11-17,09:25:31,09:47:05,NA,incomplete,134,gender,2,1,right,A_M_10.jpg,A_F_02.jpg,C_M_11.jpg,right,1209.6000000019558,true,low,false
W5egcVvm,3t5zxgo9eh1fn0t8t5nft3pt661qzj,386csbg1o3zfma7ri2v6lpsqe2u6q2,W5egcVvm,2020-0188,2020-11-17,09:25:31,09:47:05,NA,incomplete,135,gender,2,1,right,C_M_14.jpg,C_F_12.jpg,A_M_01.jpg,right,1073.5599999898113,true,low,false
W5egcVvm,3t5zxgo9eh1fn0t8t5nft3pt661qzj,386csbg1o3zfma7ri2v6lpsqe2u6q2,W5egcVvm,2020-0188,2020-11-17,09:25:31,09:47:05,NA,incomplete,136,gender,2,1,left,A_M_04.jpg,C_M_07.jpg,A_F_06.jpg,left,1036.8250000174157,true,low,false
W5egcVvm,3t5zxgo9eh1fn0t8t5nft3pt661qzj,386csbg1o3zfma7ri2v6lpsqe2u6q2,W5egcVvm,2020-0188,2020-11-17,09:25:31,09:47:05,NA,incomplete,137,gender,2,1,left,C_F_10.jpg,A_F_02.jpg,C_M_12.jpg,left,884.8050000087824,true,low,false
W5egcVvm,3t5zxgo9eh1fn0t8t5nft3pt661qzj,386csbg1o3zfma7ri2v6lpsqe2u6q2,W5egcVvm,2020-0188,2020-11-17,09:25:31,09:47:05,NA,incomplete,138,gender,2,0,left,A_F_06.jpg,C_F_04.jpg,A_M_01.jpg,left,1122.6299999980256,true,low,false
W5egcVvm,3t5zxgo9eh1fn0t8t5nft3pt661qzj,386csbg1o3zfma7ri2v6lpsqe2u6q2,W5egcVvm,2020-0188,2020-11-17,09:25:31,09:47:05,NA,incomplete,139,gender,2,1,left,C_F_06.jpg,A_F_12.jpg,C_M_01.jpg,left,904.435000004014,true,low,false
W5egcVvm,3t5zxgo9eh1fn0t8t5nft3pt661qzj,386csbg1o3zfma7ri2v6lpsqe2u6q2,W5egcVvm,2020-0188,2020-11-17,09:25:31,09:47:05,NA,incomplete,140,race,3,0,right,A_F_07.jpg,C_F_04.jpg,A_M_02.jpg,left,643.7800000130665,false,low,false
W5egcVvm,3t5zxgo9eh1fn0t8t5nft3pt661qzj,386csbg1o3zfma7ri2v6lpsqe2u6q2,W5egcVvm,2020-0188,2020-11-17,09:25:31,09:47:05,NA,incomplete,141,race,3,1,right,C_M_16.jpg,A_M_12.jpg,C_F_07.jpg,left,785.5149999959394,false,low,false
W5egcVvm,3t5zxgo9eh1fn0t8t5nft3pt661qzj,386csbg1o3zfma7ri2v6lpsqe2u6q2,W5egcVvm,2020-0188,2020-11-17,09:25:31,09:47:05,NA,incomplete,142,race,3,0,right,A_F_06.jpg,C_F_10.jpg,A_M_04.jpg,left,912.3900000122376,false,low,false
W5egcVvm,3t5zxgo9eh1fn0t8t5nft3pt661qzj,386csbg1o3zfma7ri2v6lpsqe2u6q2,W5egcVvm,2020-0188,2020-11-17,09:25:31,09:47:05,NA,incomplete,143,race,3,1,left,C_M_03.jpg,C_F_11.jpg,A_M_10.jpg,right,905.8650000079069,false,low,false
W5egcVvm,3t5zxgo9eh1fn0t8t5nft3pt661qzj,386csbg1o3zfma7ri2v6lpsqe2u6q2,W5egcVvm,2020-0188,2020-11-17,09:25:31,09:47:05,NA,incomplete,144,race,3,1,left,A_F_15.jpg,A_M_16.jpg,C_F_06.jpg,right,880.5149999971036,false,low,false
W5egcVvm,3t5zxgo9eh1fn0t8t5nft3pt661qzj,386csbg1o3zfma7ri2v6lpsqe2u6q2,W5egcVvm,2020-0188,2020-11-17,09:25:31,09:47:05,NA,incomplete,145,race,3,1,right,A_M_14.jpg,C_M_01.jpg,A_F_08.jpg,right,1051.1700000206474,true,low,false
W5egcVvm,3t5zxgo9eh1fn0t8t5nft3pt661qzj,386csbg1o3zfma7ri2v6lpsqe2u6q2,W5egcVvm,2020-0188,2020-11-17,09:25:31,09:47:05,NA,incomplete,146,race,3,0,left,C_F_13.jpg,C_M_15.jpg,A_F_07.jpg,left,1353.8100000005215,true,low,false
W5egcVvm,3t5zxgo9eh1fn0t8t5nft3pt661qzj,386csbg1o3zfma7ri2v6lpsqe2u6q2,W5egcVvm,2020-0188,2020-11-17,09:25:31,09:47:05,NA,incomplete,147,race,3,1,left,C_F_13.jpg,C_M_09.jpg,A_F_16.jpg,left,1195.449999999255,true,low,false
W5egcVvm,3t5zxgo9eh1fn0t8t5nft3pt661qzj,386csbg1o3zfma7ri2v6lpsqe2u6q2,W5egcVvm,2020-0188,2020-11-17,09:25:31,09:47:05,NA,incomplete,148,race,3,1,left,A_F_01.jpg,A_M_03.jpg,C_F_06.jpg,left,946.1050000099931,true,low,false
W5egcVvm,3t5zxgo9eh1fn0t8t5nft3pt661qzj,386csbg1o3zfma7ri2v6lpsqe2u6q2,W5egcVvm,2020-0188,2020-11-17,09:25:31,09:47:05,NA,incomplete,149,race,3,0,left,C_M_10.jpg,C_F_12.jpg,A_M_06.jpg,left,898.2100000139326,true,low,false
W5egcVvm,3t5zxgo9eh1fn0t8t5nft3pt661qzj,386csbg1o3zfma7ri2v6lpsqe2u6q2,W5egcVvm,2020-0188,2020-11-17,09:25:31,09:47:05,NA,incomplete,150,race,3,1,right,A_F_14.jpg,C_F_04.jpg,A_M_01.jpg,right,1147.2350000112783,true,low,false
W5egcVvm,3t5zxgo9eh1fn0t8t5nft3pt661qzj,386csbg1o3zfma7ri2v6lpsqe2u6q2,W5egcVvm,2020-0188,2020-11-17,09:25:31,09:47:05,NA,incomplete,151,race,3,0,right,A_F_16.jpg,C_F_06.jpg,A_M_03.jpg,right,982.8599999891594,true,low,false
W5egcVvm,3t5zxgo9eh1fn0t8t5nft3pt661qzj,386csbg1o3zfma7ri2v6lpsqe2u6q2,W5egcVvm,2020-0188,2020-11-17,09:25:31,09:47:05,NA,incomplete,152,race,3,1,right,C_M_15.jpg,A_M_10.jpg,C_F_03.jpg,right,1480.7499999878928,true,low,false
W5egcVvm,3t5zxgo9eh1fn0t8t5nft3pt661qzj,386csbg1o3zfma7ri2v6lpsqe2u6q2,W5egcVvm,2020-0188,2020-11-17,09:25:31,09:47:05,NA,incomplete,153,race,3,0,left,A_M_02.jpg,A_F_09.jpg,C_M_12.jpg,left,1323.8499999861233,true,low,false
W5egcVvm,3t5zxgo9eh1fn0t8t5nft3pt661qzj,386csbg1o3zfma7ri2v6lpsqe2u6q2,W5egcVvm,2020-0188,2020-11-17,09:25:31,09:47:05,NA,incomplete,154,race,3,1,left,C_F_06.jpg,C_M_07.jpg,A_F_02.jpg,right,1233.3749999816064,false,low,false
W5egcVvm,3t5zxgo9eh1fn0t8t5nft3pt661qzj,386csbg1o3zfma7ri2v6lpsqe2u6q2,W5egcVvm,2020-0188,2020-11-17,09:25:31,09:47:05,NA,incomplete,155,race,3,1,left,C_F_08.jpg,C_M_01.jpg,A_F_02.jpg,right,1250.6949999951757,false,low,false
W5egcVvm,3t5zxgo9eh1fn0t8t5nft3pt661qzj,386csbg1o3zfma7ri2v6lpsqe2u6q2,W5egcVvm,2020-0188,2020-11-17,09:25:31,09:47:05,NA,incomplete,156,race,3,1,left,C_M_12.jpg,C_F_11.jpg,A_M_05.jpg,left,1235.5899999965914,true,low,false
W5egcVvm,3t5zxgo9eh1fn0t8t5nft3pt661qzj,386csbg1o3zfma7ri2v6lpsqe2u6q2,W5egcVvm,2020-0188,2020-11-17,09:25:31,09:47:05,NA,incomplete,157,race,3,1,left,A_M_05.jpg,A_F_16.jpg,C_M_15.jpg,left,1188.559999980498,true,low,false
W5egcVvm,3t5zxgo9eh1fn0t8t5nft3pt661qzj,386csbg1o3zfma7ri2v6lpsqe2u6q2,W5egcVvm,2020-0188,2020-11-17,09:25:31,09:47:05,NA,incomplete,158,race,3,1,left,C_F_05.jpg,C_M_03.jpg,A_F_10.jpg,left,1069.3449999962468,true,low,false
W5egcVvm,3t5zxgo9eh1fn0t8t5nft3pt661qzj,386csbg1o3zfma7ri2v6lpsqe2u6q2,W5egcVvm,2020-0188,2020-11-17,09:25:31,09:47:05,NA,incomplete,159,race,3,1,right,C_M_15.jpg,A_M_14.jpg,C_F_02.jpg,right,1253.0250000127126,true,low,false
W5egcVvm,3t5zxgo9eh1fn0t8t5nft3pt661qzj,386csbg1o3zfma7ri2v6lpsqe2u6q2,W5egcVvm,2020-0188,2020-11-17,09:25:31,09:47:05,NA,incomplete,160,gender,2,1,right,C_M_01.jpg,C_F_04.jpg,A_M_03.jpg,left,1071.395000006305,false,low,false
W5egcVvm,3t5zxgo9eh1fn0t8t5nft3pt661qzj,386csbg1o3zfma7ri2v6lpsqe2u6q2,W5egcVvm,2020-0188,2020-11-17,09:25:31,09:47:05,NA,incomplete,161,gender,2,1,right,A_M_16.jpg,A_F_15.jpg,C_M_08.jpg,left,946.4900000020862,false,low,false
W5egcVvm,3t5zxgo9eh1fn0t8t5nft3pt661qzj,386csbg1o3zfma7ri2v6lpsqe2u6q2,W5egcVvm,2020-0188,2020-11-17,09:25:31,09:47:05,NA,incomplete,162,gender,2,1,right,C_F_16.jpg,C_M_10.jpg,A_F_09.jpg,right,993.3700000110548,true,low,false
W5egcVvm,3t5zxgo9eh1fn0t8t5nft3pt661qzj,386csbg1o3zfma7ri2v6lpsqe2u6q2,W5egcVvm,2020-0188,2020-11-17,09:25:31,09:47:05,NA,incomplete,163,gender,2,1,right,A_F_10.jpg,A_M_11.jpg,C_F_02.jpg,right,801.179999980377,true,low,false
W5egcVvm,3t5zxgo9eh1fn0t8t5nft3pt661qzj,386csbg1o3zfma7ri2v6lpsqe2u6q2,W5egcVvm,2020-0188,2020-11-17,09:25:31,09:47:05,NA,incomplete,164,gender,2,1,right,A_F_01.jpg,A_M_10.jpg,C_F_13.jpg,right,1337.3300000093877,true,low,false
W5egcVvm,3t5zxgo9eh1fn0t8t5nft3pt661qzj,386csbg1o3zfma7ri2v6lpsqe2u6q2,W5egcVvm,2020-0188,2020-11-17,09:25:31,09:47:05,NA,incomplete,165,gender,2,1,right,C_M_08.jpg,C_F_02.jpg,A_M_11.jpg,right,929.4100000115577,true,low,false
W5egcVvm,3t5zxgo9eh1fn0t8t5nft3pt661qzj,386csbg1o3zfma7ri2v6lpsqe2u6q2,W5egcVvm,2020-0188,2020-11-17,09:25:31,09:47:05,NA,incomplete,166,gender,2,1,right,C_M_12.jpg,C_F_04.jpg,A_M_13.jpg,right,824.7950000222772,true,low,false
W5egcVvm,3t5zxgo9eh1fn0t8t5nft3pt661qzj,386csbg1o3zfma7ri2v6lpsqe2u6q2,W5egcVvm,2020-0188,2020-11-17,09:25:31,09:47:05,NA,incomplete,167,gender,2,0,right,A_F_06.jpg,A_M_12.jpg,C_F_08.jpg,right,1185.7749999908265,true,low,false
W5egcVvm,3t5zxgo9eh1fn0t8t5nft3pt661qzj,386csbg1o3zfma7ri2v6lpsqe2u6q2,W5egcVvm,2020-0188,2020-11-17,09:25:31,09:47:05,NA,incomplete,168,gender,2,1,right,C_M_14.jpg,C_F_04.jpg,A_M_08.jpg,right,1385.5399999883957,true,low,false
W5egcVvm,3t5zxgo9eh1fn0t8t5nft3pt661qzj,386csbg1o3zfma7ri2v6lpsqe2u6q2,W5egcVvm,2020-0188,2020-11-17,09:25:31,09:47:05,NA,incomplete,169,gender,2,1,right,C_F_02.jpg,C_M_12.jpg,A_F_04.jpg,right,917.5450000038836,true,low,false
W5egcVvm,3t5zxgo9eh1fn0t8t5nft3pt661qzj,386csbg1o3zfma7ri2v6lpsqe2u6q2,W5egcVvm,2020-0188,2020-11-17,09:25:31,09:47:05,NA,incomplete,170,gender,2,0,right,C_F_07.jpg,C_M_09.jpg,A_F_06.jpg,right,1108.1450000056066,true,low,false
W5egcVvm,3t5zxgo9eh1fn0t8t5nft3pt661qzj,386csbg1o3zfma7ri2v6lpsqe2u6q2,W5egcVvm,2020-0188,2020-11-17,09:25:31,09:47:05,NA,incomplete,171,gender,2,1,right,C_M_12.jpg,C_F_07.jpg,A_M_01.jpg,right,779.7499999869615,true,low,false
W5egcVvm,3t5zxgo9eh1fn0t8t5nft3pt661qzj,386csbg1o3zfma7ri2v6lpsqe2u6q2,W5egcVvm,2020-0188,2020-11-17,09:25:31,09:47:05,NA,incomplete,172,gender,2,0,right,C_M_07.jpg,C_F_08.jpg,A_M_04.jpg,right,930.0849999999627,true,low,false
W5egcVvm,3t5zxgo9eh1fn0t8t5nft3pt661qzj,386csbg1o3zfma7ri2v6lpsqe2u6q2,W5egcVvm,2020-0188,2020-11-17,09:25:31,09:47:05,NA,incomplete,173,gender,2,1,left,C_F_05.jpg,A_F_02.jpg,C_M_13.jpg,left,1759.0750000090338,true,low,false
W5egcVvm,3t5zxgo9eh1fn0t8t5nft3pt661qzj,386csbg1o3zfma7ri2v6lpsqe2u6q2,W5egcVvm,2020-0188,2020-11-17,09:25:31,09:47:05,NA,incomplete,174,gender,2,0,right,A_F_14.jpg,A_M_01.jpg,C_F_08.jpg,right,1113.8649999920744,true,low,false
W5egcVvm,3t5zxgo9eh1fn0t8t5nft3pt661qzj,386csbg1o3zfma7ri2v6lpsqe2u6q2,W5egcVvm,2020-0188,2020-11-17,09:25:31,09:47:05,NA,incomplete,175,gender,2,1,right,A_M_06.jpg,A_F_08.jpg,C_M_15.jpg,left,1265.545000002021,false,low,false
W5egcVvm,3t5zxgo9eh1fn0t8t5nft3pt661qzj,386csbg1o3zfma7ri2v6lpsqe2u6q2,W5egcVvm,2020-0188,2020-11-17,09:25:31,09:47:05,NA,incomplete,176,gender,2,1,right,A_M_05.jpg,A_F_07.jpg,C_M_02.jpg,right,960.2299999969546,true,low,false
W5egcVvm,3t5zxgo9eh1fn0t8t5nft3pt661qzj,386csbg1o3zfma7ri2v6lpsqe2u6q2,W5egcVvm,2020-0188,2020-11-17,09:25:31,09:47:05,NA,incomplete,177,gender,2,1,left,A_M_08.jpg,C_M_01.jpg,A_F_16.jpg,left,1161.3300000026356,true,low,false
W5egcVvm,3t5zxgo9eh1fn0t8t5nft3pt661qzj,386csbg1o3zfma7ri2v6lpsqe2u6q2,W5egcVvm,2020-0188,2020-11-17,09:25:31,09:47:05,NA,incomplete,178,gender,2,1,right,A_M_02.jpg,A_F_16.jpg,C_M_09.jpg,right,975.70499998983,true,low,false
W5egcVvm,3t5zxgo9eh1fn0t8t5nft3pt661qzj,386csbg1o3zfma7ri2v6lpsqe2u6q2,W5egcVvm,2020-0188,2020-11-17,09:25:31,09:47:05,NA,incomplete,179,gender,2,1,right,A_F_06.jpg,A_M_05.jpg,C_F_10.jpg,right,916.2650000071153,true,low,false
W5egcVvm,3t5zxgo9eh1fn0t8t5nft3pt661qzj,386csbg1o3zfma7ri2v6lpsqe2u6q2,W5egcVvm,2020-0188,2020-11-17,09:25:31,09:47:05,NA,incomplete,180,race,3,1,right,A_F_12.jpg,C_F_07.jpg,A_M_13.jpg,left,939.505000016652,false,low,false
W5egcVvm,3t5zxgo9eh1fn0t8t5nft3pt661qzj,386csbg1o3zfma7ri2v6lpsqe2u6q2,W5egcVvm,2020-0188,2020-11-17,09:25:31,09:47:05,NA,incomplete,181,race,3,1,right,C_F_01.jpg,A_F_04.jpg,C_M_08.jpg,right,1021.9299999880604,true,low,false
W5egcVvm,3t5zxgo9eh1fn0t8t5nft3pt661qzj,386csbg1o3zfma7ri2v6lpsqe2u6q2,W5egcVvm,2020-0188,2020-11-17,09:25:31,09:47:05,NA,incomplete,182,race,3,1,left,C_M_15.jpg,C_F_10.jpg,A_M_04.jpg,left,951.4949999866076,true,low,false
W5egcVvm,3t5zxgo9eh1fn0t8t5nft3pt661qzj,386csbg1o3zfma7ri2v6lpsqe2u6q2,W5egcVvm,2020-0188,2020-11-17,09:25:31,09:47:05,NA,incomplete,183,race,3,0,left,C_M_05.jpg,C_F_15.jpg,A_M_11.jpg,left,1126.3299999991432,true,low,false
W5egcVvm,3t5zxgo9eh1fn0t8t5nft3pt661qzj,386csbg1o3zfma7ri2v6lpsqe2u6q2,W5egcVvm,2020-0188,2020-11-17,09:25:31,09:47:05,NA,incomplete,184,race,3,1,right,A_F_13.jpg,C_F_04.jpg,A_M_14.jpg,right,1063.594999985071,true,low,false
W5egcVvm,3t5zxgo9eh1fn0t8t5nft3pt661qzj,386csbg1o3zfma7ri2v6lpsqe2u6q2,W5egcVvm,2020-0188,2020-11-17,09:25:31,09:47:05,NA,incomplete,185,race,3,1,right,A_M_08.jpg,C_M_12.jpg,A_F_05.jpg,right,927.4949999817181,true,low,false
W5egcVvm,3t5zxgo9eh1fn0t8t5nft3pt661qzj,386csbg1o3zfma7ri2v6lpsqe2u6q2,W5egcVvm,2020-0188,2020-11-17,09:25:31,09:47:05,NA,incomplete,186,race,3,0,left,C_M_08.jpg,C_F_11.jpg,A_M_14.jpg,left,874.180000013439,true,low,false
W5egcVvm,3t5zxgo9eh1fn0t8t5nft3pt661qzj,386csbg1o3zfma7ri2v6lpsqe2u6q2,W5egcVvm,2020-0188,2020-11-17,09:25:31,09:47:05,NA,incomplete,187,race,3,1,left,A_F_07.jpg,A_M_06.jpg,C_F_11.jpg,left,1134.9050000135321,true,low,false
W5egcVvm,3t5zxgo9eh1fn0t8t5nft3pt661qzj,386csbg1o3zfma7ri2v6lpsqe2u6q2,W5egcVvm,2020-0188,2020-11-17,09:25:31,09:47:05,NA,incomplete,188,race,3,1,left,C_M_01.jpg,C_F_02.jpg,A_M_13.jpg,right,1187.0900000212714,false,low,false
W5egcVvm,3t5zxgo9eh1fn0t8t5nft3pt661qzj,386csbg1o3zfma7ri2v6lpsqe2u6q2,W5egcVvm,2020-0188,2020-11-17,09:25:31,09:47:05,NA,incomplete,189,race,3,1,left,C_F_12.jpg,C_M_15.jpg,A_F_07.jpg,left,1313.1649999995716,true,low,false
W5egcVvm,3t5zxgo9eh1fn0t8t5nft3pt661qzj,386csbg1o3zfma7ri2v6lpsqe2u6q2,W5egcVvm,2020-0188,2020-11-17,09:25:31,09:47:05,NA,incomplete,190,race,3,1,right,C_F_14.jpg,A_F_04.jpg,C_M_12.jpg,right,1092.5500000012107,true,low,false
W5egcVvm,3t5zxgo9eh1fn0t8t5nft3pt661qzj,386csbg1o3zfma7ri2v6lpsqe2u6q2,W5egcVvm,2020-0188,2020-11-17,09:25:31,09:47:05,NA,incomplete,191,race,3,1,left,A_F_11.jpg,A_M_02.jpg,C_F_05.jpg,left,1102.630000008503,true,low,false
W5egcVvm,3t5zxgo9eh1fn0t8t5nft3pt661qzj,386csbg1o3zfma7ri2v6lpsqe2u6q2,W5egcVvm,2020-0188,2020-11-17,09:25:31,09:47:05,NA,incomplete,192,race,3,1,left,A_F_15.jpg,A_M_11.jpg,C_F_04.jpg,left,897.7549999835901,true,low,false
W5egcVvm,3t5zxgo9eh1fn0t8t5nft3pt661qzj,386csbg1o3zfma7ri2v6lpsqe2u6q2,W5egcVvm,2020-0188,2020-11-17,09:25:31,09:47:05,NA,incomplete,193,race,3,1,right,A_F_10.jpg,C_F_05.jpg,A_M_12.jpg,right,897.3199999891222,true,low,false
W5egcVvm,3t5zxgo9eh1fn0t8t5nft3pt661qzj,386csbg1o3zfma7ri2v6lpsqe2u6q2,W5egcVvm,2020-0188,2020-11-17,09:25:31,09:47:05,NA,incomplete,194,race,3,1,left,A_M_04.jpg,A_F_12.jpg,C_M_09.jpg,left,795.6600000034086,true,low,false
W5egcVvm,3t5zxgo9eh1fn0t8t5nft3pt661qzj,386csbg1o3zfma7ri2v6lpsqe2u6q2,W5egcVvm,2020-0188,2020-11-17,09:25:31,09:47:05,NA,incomplete,195,race,3,1,left,C_F_14.jpg,C_M_09.jpg,A_F_15.jpg,left,973.5749999817926,true,low,false
W5egcVvm,3t5zxgo9eh1fn0t8t5nft3pt661qzj,386csbg1o3zfma7ri2v6lpsqe2u6q2,W5egcVvm,2020-0188,2020-11-17,09:25:31,09:47:05,NA,incomplete,196,race,3,1,left,A_F_11.jpg,A_M_02.jpg,C_F_13.jpg,left,1058.8099999877159,true,low,false
W5egcVvm,3t5zxgo9eh1fn0t8t5nft3pt661qzj,386csbg1o3zfma7ri2v6lpsqe2u6q2,W5egcVvm,2020-0188,2020-11-17,09:25:31,09:47:05,NA,incomplete,197,race,3,1,right,C_F_12.jpg,A_F_08.jpg,C_M_09.jpg,right,1280.609999987064,true,low,false
W5egcVvm,3t5zxgo9eh1fn0t8t5nft3pt661qzj,386csbg1o3zfma7ri2v6lpsqe2u6q2,W5egcVvm,2020-0188,2020-11-17,09:25:31,09:47:05,NA,incomplete,198,race,3,0,left,A_F_05.jpg,A_M_06.jpg,C_F_13.jpg,left,946.8249999918044,true,low,false
W5egcVvm,3t5zxgo9eh1fn0t8t5nft3pt661qzj,386csbg1o3zfma7ri2v6lpsqe2u6q2,W5egcVvm,2020-0188,2020-11-17,09:25:31,09:47:05,NA,incomplete,199,race,3,1,left,A_F_07.jpg,A_M_12.jpg,C_F_08.jpg,right,1291.1000000021886,false,low,false
W5egcVvm,3t5zxgo9eh1fn0t8t5nft3pt661qzj,386csbg1o3zfma7ri2v6lpsqe2u6q2,W5egcVvm,2020-0188,2020-11-17,09:25:31,09:47:05,NA,incomplete,200,gender,2,1,right,A_F_03.jpg,A_M_05.jpg,C_F_10.jpg,left,1254.0449999796692,false,low,false
W5egcVvm,3t5zxgo9eh1fn0t8t5nft3pt661qzj,386csbg1o3zfma7ri2v6lpsqe2u6q2,W5egcVvm,2020-0188,2020-11-17,09:25:31,09:47:05,NA,incomplete,201,gender,2,1,left,A_F_15.jpg,C_F_05.jpg,A_M_12.jpg,left,984.1900000174064,true,low,false
W5egcVvm,3t5zxgo9eh1fn0t8t5nft3pt661qzj,386csbg1o3zfma7ri2v6lpsqe2u6q2,W5egcVvm,2020-0188,2020-11-17,09:25:31,09:47:05,NA,incomplete,202,gender,2,1,right,C_M_06.jpg,C_F_11.jpg,A_M_07.jpg,right,874.1349999909289,true,low,false
W5egcVvm,3t5zxgo9eh1fn0t8t5nft3pt661qzj,386csbg1o3zfma7ri2v6lpsqe2u6q2,W5egcVvm,2020-0188,2020-11-17,09:25:31,09:47:05,NA,incomplete,203,gender,2,1,right,A_F_11.jpg,A_M_04.jpg,C_F_02.jpg,right,1522.1249999885913,true,low,false
W5egcVvm,3t5zxgo9eh1fn0t8t5nft3pt661qzj,386csbg1o3zfma7ri2v6lpsqe2u6q2,W5egcVvm,2020-0188,2020-11-17,09:25:31,09:47:05,NA,incomplete,204,gender,2,1,left,A_M_16.jpg,C_M_06.jpg,A_F_12.jpg,left,669.6000000229105,true,low,false
W5egcVvm,3t5zxgo9eh1fn0t8t5nft3pt661qzj,386csbg1o3zfma7ri2v6lpsqe2u6q2,W5egcVvm,2020-0188,2020-11-17,09:25:31,09:47:05,NA,incomplete,205,gender,2,0,left,C_M_14.jpg,A_M_02.jpg,C_F_06.jpg,left,937.0700000145007,true,low,false
W5egcVvm,3t5zxgo9eh1fn0t8t5nft3pt661qzj,386csbg1o3zfma7ri2v6lpsqe2u6q2,W5egcVvm,2020-0188,2020-11-17,09:25:31,09:47:05,NA,incomplete,206,gender,2,1,right,C_M_08.jpg,C_F_12.jpg,A_M_15.jpg,right,1015.1150000165217,true,low,false
W5egcVvm,3t5zxgo9eh1fn0t8t5nft3pt661qzj,386csbg1o3zfma7ri2v6lpsqe2u6q2,W5egcVvm,2020-0188,2020-11-17,09:25:31,09:47:05,NA,incomplete,207,gender,2,0,left,A_F_02.jpg,C_F_14.jpg,A_M_08.jpg,left,961.9750000128988,true,low,false
W5egcVvm,3t5zxgo9eh1fn0t8t5nft3pt661qzj,386csbg1o3zfma7ri2v6lpsqe2u6q2,W5egcVvm,2020-0188,2020-11-17,09:25:31,09:47:05,NA,incomplete,208,gender,2,1,right,C_M_12.jpg,C_F_06.jpg,A_M_04.jpg,right,1026.335000002291,true,low,false
W5egcVvm,3t5zxgo9eh1fn0t8t5nft3pt661qzj,386csbg1o3zfma7ri2v6lpsqe2u6q2,W5egcVvm,2020-0188,2020-11-17,09:25:31,09:47:05,NA,incomplete,209,gender,2,1,left,C_M_09.jpg,A_M_02.jpg,C_F_07.jpg,left,1022.7449999947567,true,low,false
W5egcVvm,3t5zxgo9eh1fn0t8t5nft3pt661qzj,386csbg1o3zfma7ri2v6lpsqe2u6q2,W5egcVvm,2020-0188,2020-11-17,09:25:31,09:47:05,NA,incomplete,210,gender,2,0,right,A_M_12.jpg,A_F_09.jpg,C_M_08.jpg,right,1217.5050000078045,true,low,false
W5egcVvm,3t5zxgo9eh1fn0t8t5nft3pt661qzj,386csbg1o3zfma7ri2v6lpsqe2u6q2,W5egcVvm,2020-0188,2020-11-17,09:25:31,09:47:05,NA,incomplete,211,gender,2,1,left,A_F_16.jpg,C_F_02.jpg,A_M_06.jpg,left,661.7299999925308,true,low,false
W5egcVvm,3t5zxgo9eh1fn0t8t5nft3pt661qzj,386csbg1o3zfma7ri2v6lpsqe2u6q2,W5egcVvm,2020-0188,2020-11-17,09:25:31,09:47:05,NA,incomplete,212,gender,2,1,right,A_F_11.jpg,A_M_04.jpg,C_F_14.jpg,right,1125.4400000034366,true,low,false
W5egcVvm,3t5zxgo9eh1fn0t8t5nft3pt661qzj,386csbg1o3zfma7ri2v6lpsqe2u6q2,W5egcVvm,2020-0188,2020-11-17,09:25:31,09:47:05,NA,incomplete,213,gender,2,0,left,A_F_16.jpg,C_F_02.jpg,A_M_08.jpg,left,1003.1350000062957,true,low,false
W5egcVvm,3t5zxgo9eh1fn0t8t5nft3pt661qzj,386csbg1o3zfma7ri2v6lpsqe2u6q2,W5egcVvm,2020-0188,2020-11-17,09:25:31,09:47:05,NA,incomplete,214,gender,2,1,left,C_M_04.jpg,A_M_02.jpg,C_F_10.jpg,left,1211.7699999944307,true,low,false
W5egcVvm,3t5zxgo9eh1fn0t8t5nft3pt661qzj,386csbg1o3zfma7ri2v6lpsqe2u6q2,W5egcVvm,2020-0188,2020-11-17,09:25:31,09:47:05,NA,incomplete,215,gender,2,1,right,C_M_14.jpg,C_F_11.jpg,A_M_13.jpg,right,1416.3100000005215,true,low,false
W5egcVvm,3t5zxgo9eh1fn0t8t5nft3pt661qzj,386csbg1o3zfma7ri2v6lpsqe2u6q2,W5egcVvm,2020-0188,2020-11-17,09:25:31,09:47:05,NA,incomplete,216,gender,2,1,right,A_F_16.jpg,A_M_09.jpg,C_F_02.jpg,right,1284.7949999850243,true,low,false
W5egcVvm,3t5zxgo9eh1fn0t8t5nft3pt661qzj,386csbg1o3zfma7ri2v6lpsqe2u6q2,W5egcVvm,2020-0188,2020-11-17,09:25:31,09:47:05,NA,incomplete,217,gender,2,0,left,C_M_02.jpg,A_M_10.jpg,C_F_06.jpg,left,776.7249999742489,true,low,false
W5egcVvm,3t5zxgo9eh1fn0t8t5nft3pt661qzj,386csbg1o3zfma7ri2v6lpsqe2u6q2,W5egcVvm,2020-0188,2020-11-17,09:25:31,09:47:05,NA,incomplete,218,gender,2,1,right,A_M_08.jpg,A_F_06.jpg,C_M_16.jpg,right,1496.8550000048708,true,low,false
W5egcVvm,3t5zxgo9eh1fn0t8t5nft3pt661qzj,386csbg1o3zfma7ri2v6lpsqe2u6q2,W5egcVvm,2020-0188,2020-11-17,09:25:31,09:47:05,NA,incomplete,219,gender,2,1,left,C_F_03.jpg,A_F_13.jpg,C_M_09.jpg,left,961.379999993369,true,low,false
W5egcVvm,3t5zxgo9eh1fn0t8t5nft3pt661qzj,386csbg1o3zfma7ri2v6lpsqe2u6q2,W5egcVvm,2020-0188,2020-11-17,09:25:31,09:47:05,NA,incomplete,220,race,3,1,left,A_F_05.jpg,A_M_16.jpg,C_F_11.jpg,right,1248.0849999992643,false,low,false
W5egcVvm,3t5zxgo9eh1fn0t8t5nft3pt661qzj,386csbg1o3zfma7ri2v6lpsqe2u6q2,W5egcVvm,2020-0188,2020-11-17,09:25:31,09:47:05,NA,incomplete,221,race,3,1,left,C_F_02.jpg,C_M_13.jpg,A_F_10.jpg,right,1028.1299999915063,false,low,false
W5egcVvm,3t5zxgo9eh1fn0t8t5nft3pt661qzj,386csbg1o3zfma7ri2v6lpsqe2u6q2,W5egcVvm,2020-0188,2020-11-17,09:25:31,09:47:05,NA,incomplete,222,race,3,1,right,C_F_08.jpg,A_F_14.jpg,C_M_04.jpg,right,1286.4899999985937,true,low,false
W5egcVvm,3t5zxgo9eh1fn0t8t5nft3pt661qzj,386csbg1o3zfma7ri2v6lpsqe2u6q2,W5egcVvm,2020-0188,2020-11-17,09:25:31,09:47:05,NA,incomplete,223,race,3,1,left,A_M_16.jpg,A_F_12.jpg,C_M_15.jpg,left,864.6700000099372,true,low,false
W5egcVvm,3t5zxgo9eh1fn0t8t5nft3pt661qzj,386csbg1o3zfma7ri2v6lpsqe2u6q2,W5egcVvm,2020-0188,2020-11-17,09:25:31,09:47:05,NA,incomplete,224,race,3,1,right,C_F_13.jpg,A_F_05.jpg,C_M_09.jpg,right,701.7399999895133,true,low,false
W5egcVvm,3t5zxgo9eh1fn0t8t5nft3pt661qzj,386csbg1o3zfma7ri2v6lpsqe2u6q2,W5egcVvm,2020-0188,2020-11-17,09:25:31,09:47:05,NA,incomplete,225,race,3,1,left,A_F_12.jpg,A_M_10.jpg,C_F_05.jpg,left,1118.4599999978673,true,low,false
W5egcVvm,3t5zxgo9eh1fn0t8t5nft3pt661qzj,386csbg1o3zfma7ri2v6lpsqe2u6q2,W5egcVvm,2020-0188,2020-11-17,09:25:31,09:47:05,NA,incomplete,226,race,3,1,left,C_F_06.jpg,C_M_10.jpg,A_F_09.jpg,left,1106.35500002536,true,low,false
W5egcVvm,3t5zxgo9eh1fn0t8t5nft3pt661qzj,386csbg1o3zfma7ri2v6lpsqe2u6q2,W5egcVvm,2020-0188,2020-11-17,09:25:31,09:47:05,NA,incomplete,227,race,3,1,right,C_F_01.jpg,A_F_04.jpg,C_M_08.jpg,right,932.3549999971874,true,low,false
W5egcVvm,3t5zxgo9eh1fn0t8t5nft3pt661qzj,386csbg1o3zfma7ri2v6lpsqe2u6q2,W5egcVvm,2020-0188,2020-11-17,09:25:31,09:47:05,NA,incomplete,228,race,3,0,left,A_M_10.jpg,A_F_02.jpg,C_M_15.jpg,left,823.5200000053737,true,low,false
W5egcVvm,3t5zxgo9eh1fn0t8t5nft3pt661qzj,386csbg1o3zfma7ri2v6lpsqe2u6q2,W5egcVvm,2020-0188,2020-11-17,09:25:31,09:47:05,NA,incomplete,229,race,3,1,right,C_F_04.jpg,A_F_07.jpg,C_M_15.jpg,right,1111.784999986412,true,low,false
W5egcVvm,3t5zxgo9eh1fn0t8t5nft3pt661qzj,386csbg1o3zfma7ri2v6lpsqe2u6q2,W5egcVvm,2020-0188,2020-11-17,09:25:31,09:47:05,NA,incomplete,230,race,3,1,right,C_F_01.jpg,A_F_11.jpg,C_M_10.jpg,right,1024.1100000275765,true,low,false
W5egcVvm,3t5zxgo9eh1fn0t8t5nft3pt661qzj,386csbg1o3zfma7ri2v6lpsqe2u6q2,W5egcVvm,2020-0188,2020-11-17,09:25:31,09:47:05,NA,incomplete,231,race,3,1,right,A_F_02.jpg,C_F_09.jpg,A_M_06.jpg,right,944.8400000110269,true,low,false
W5egcVvm,3t5zxgo9eh1fn0t8t5nft3pt661qzj,386csbg1o3zfma7ri2v6lpsqe2u6q2,W5egcVvm,2020-0188,2020-11-17,09:25:31,09:47:05,NA,incomplete,232,race,3,1,left,C_M_10.jpg,C_F_04.jpg,A_M_05.jpg,left,1025.1500000013039,true,low,false
W5egcVvm,3t5zxgo9eh1fn0t8t5nft3pt661qzj,386csbg1o3zfma7ri2v6lpsqe2u6q2,W5egcVvm,2020-0188,2020-11-17,09:25:31,09:47:05,NA,incomplete,233,race,3,0,right,C_F_13.jpg,A_F_02.jpg,C_M_12.jpg,right,786.4249999984168,true,low,false
W5egcVvm,3t5zxgo9eh1fn0t8t5nft3pt661qzj,386csbg1o3zfma7ri2v6lpsqe2u6q2,W5egcVvm,2020-0188,2020-11-17,09:25:31,09:47:05,NA,incomplete,234,race,3,1,right,C_F_08.jpg,A_F_14.jpg,C_M_10.jpg,left,993.7600000121165,false,low,false
W5egcVvm,3t5zxgo9eh1fn0t8t5nft3pt661qzj,386csbg1o3zfma7ri2v6lpsqe2u6q2,W5egcVvm,2020-0188,2020-11-17,09:25:31,09:47:05,NA,incomplete,235,race,3,1,right,C_F_16.jpg,A_F_12.jpg,C_M_04.jpg,right,1326.3049999950454,true,low,false
W5egcVvm,3t5zxgo9eh1fn0t8t5nft3pt661qzj,386csbg1o3zfma7ri2v6lpsqe2u6q2,W5egcVvm,2020-0188,2020-11-17,09:25:31,09:47:05,NA,incomplete,236,race,3,1,left,C_M_15.jpg,C_F_13.jpg,A_M_04.jpg,left,1291.1999999778345,true,low,false
W5egcVvm,3t5zxgo9eh1fn0t8t5nft3pt661qzj,386csbg1o3zfma7ri2v6lpsqe2u6q2,W5egcVvm,2020-0188,2020-11-17,09:25:31,09:47:05,NA,incomplete,237,race,3,1,left,C_F_16.jpg,C_M_07.jpg,A_F_12.jpg,left,1089.4599999883212,true,low,false
W5egcVvm,3t5zxgo9eh1fn0t8t5nft3pt661qzj,386csbg1o3zfma7ri2v6lpsqe2u6q2,W5egcVvm,2020-0188,2020-11-17,09:25:31,09:47:05,NA,incomplete,238,race,3,0,left,C_M_02.jpg,C_F_08.jpg,A_M_11.jpg,left,989.7200000123121,true,low,false
W5egcVvm,3t5zxgo9eh1fn0t8t5nft3pt661qzj,386csbg1o3zfma7ri2v6lpsqe2u6q2,W5egcVvm,2020-0188,2020-11-17,09:25:31,09:47:05,NA,incomplete,239,race,3,1,right,C_M_02.jpg,A_M_15.jpg,C_F_09.jpg,left,1008.1700000155251,false,low,false
W5egcVvm,3t5zxgo9eh1fn0t8t5nft3pt661qzj,386csbg1o3zfma7ri2v6lpsqe2u6q2,W5egcVvm,2020-0188,2020-11-17,09:25:31,09:47:05,NA,NA,instruction example,shape,NA,NA,NA,Green_Star_Dots_4.jpg,Purple_Star_Chess_3.jpg,Blue_Plus_Stripes_4.jpg,NA,NA,NA,NA,undefined
W5egcVvm,3t5zxgo9eh1fn0t8t5nft3pt661qzj,386csbg1o3zfma7ri2v6lpsqe2u6q2,W5egcVvm,2020-0188,2020-11-17,09:25:31,09:47:05,NA,NA,instruction example,shape,NA,NA,NA,Green_Star_Dots_4.jpg,Blue_Circle_Chess_4.jpg,Purple_Star_Stripes_2.jpg,NA,NA,NA,NA,undefined
W5egcVvm,3t5zxgo9eh1fn0t8t5nft3pt661qzj,386csbg1o3zfma7ri2v6lpsqe2u6q2,W5egcVvm,2020-0188,2020-11-17,09:25:31,09:47:05,NA,NA,instruction example,shape,NA,NA,NA,C_M_03.jpg,A_M_08.jpg,C_F_01.jpg,NA,NA,NA,NA,undefined
W5egcVvm,3t5zxgo9eh1fn0t8t5nft3pt661qzj,386csbg1o3zfma7ri2v6lpsqe2u6q2,W5egcVvm,2020-0188,2020-11-17,09:25:31,09:47:05,NA,NA,instruction example,shape,NA,NA,NA,A_M_03.jpg,A_F_15.jpg,C_M_06.jpg,NA,NA,NA,NA,undefined
