workerId,hitId,assignmentId,subject,studyid,exp_date,exp_start,exp_end,time_start,time_end,trial,type,sequence,reward_validity,answer,image_top,image_left,image_right,response,response_time,response_acc,volatility,age,race,gender,ethnicity,color,vision,neuro,practice
GbqDxUlg,3r6rzgk0yip7nifkjif6ljfzh4yvyd,39dd6s19jtosdh1xbgxho6w70zweza,GbqDxUlg,2020-0188,2020-11-16,18:43:10,19:03:05,NA,incomplete,0,number,0,1,left,Blue_Triangle_Stripes_3.jpg,Red_Star_Dots_3.jpg,Purple_Triangle_Grid_1.jpg,left,1850.8750000037253,true,NA,NA,NA,NA,NA,NA,NA,NA,true
GbqDxUlg,3r6rzgk0yip7nifkjif6ljfzh4yvyd,39dd6s19jtosdh1xbgxho6w70zweza,GbqDxUlg,2020-0188,2020-11-16,18:43:10,19:03:05,NA,incomplete,1,number,0,0,left,Purple_Triangle_Grid_3.jpg,Green_Star_Stripes_3.jpg,Red_Triangle_Chess_4.jpg,left,1317.4350000917912,true,NA,NA,NA,NA,NA,NA,NA,NA,true
GbqDxUlg,3r6rzgk0yip7nifkjif6ljfzh4yvyd,39dd6s19jtosdh1xbgxho6w70zweza,GbqDxUlg,2020-0188,2020-11-16,18:43:10,19:03:05,NA,incomplete,2,number,0,1,left,Green_Star_Grid_3.jpg,Purple_Circle_Dots_3.jpg,Red_Star_Stripes_2.jpg,left,1550.319999922067,true,NA,NA,NA,NA,NA,NA,NA,NA,true
GbqDxUlg,3r6rzgk0yip7nifkjif6ljfzh4yvyd,39dd6s19jtosdh1xbgxho6w70zweza,GbqDxUlg,2020-0188,2020-11-16,18:43:10,19:03:05,NA,incomplete,3,number,0,1,left,Green_Plus_Grid_4.jpg,Red_Triangle_Dots_4.jpg,Purple_Plus_Stripes_1.jpg,left,1011.8499998934567,true,NA,NA,NA,NA,NA,NA,NA,NA,true
GbqDxUlg,3r6rzgk0yip7nifkjif6ljfzh4yvyd,39dd6s19jtosdh1xbgxho6w70zweza,GbqDxUlg,2020-0188,2020-11-16,18:43:10,19:03:05,NA,incomplete,4,number,0,1,right,Red_Triangle_Stripes_4.jpg,Blue_Triangle_Grid_2.jpg,Purple_Plus_Chess_4.jpg,right,808.3949997089803,true,NA,NA,NA,NA,NA,NA,NA,NA,true
GbqDxUlg,3r6rzgk0yip7nifkjif6ljfzh4yvyd,39dd6s19jtosdh1xbgxho6w70zweza,GbqDxUlg,2020-0188,2020-11-16,18:43:10,19:03:05,NA,incomplete,5,number,0,1,left,Green_Star_Dots_1.jpg,Blue_Plus_Grid_1.jpg,Red_Star_Chess_2.jpg,left,963.5100001469254,true,NA,NA,NA,NA,NA,NA,NA,NA,true
GbqDxUlg,3r6rzgk0yip7nifkjif6ljfzh4yvyd,39dd6s19jtosdh1xbgxho6w70zweza,GbqDxUlg,2020-0188,2020-11-16,18:43:10,19:03:05,NA,incomplete,6,number,0,1,right,Green_Circle_Stripes_2.jpg,Red_Circle_Chess_1.jpg,Purple_Star_Dots_2.jpg,right,857.9049999825656,true,NA,NA,NA,NA,NA,NA,NA,NA,true
GbqDxUlg,3r6rzgk0yip7nifkjif6ljfzh4yvyd,39dd6s19jtosdh1xbgxho6w70zweza,GbqDxUlg,2020-0188,2020-11-16,18:43:10,19:03:05,NA,incomplete,7,number,0,1,right,Purple_Circle_Dots_2.jpg,Red_Circle_Stripes_4.jpg,Green_Triangle_Grid_2.jpg,right,756.4799999818206,true,NA,NA,NA,NA,NA,NA,NA,NA,true
GbqDxUlg,3r6rzgk0yip7nifkjif6ljfzh4yvyd,39dd6s19jtosdh1xbgxho6w70zweza,GbqDxUlg,2020-0188,2020-11-16,18:43:10,19:03:05,NA,incomplete,8,number,0,1,left,Red_Circle_Stripes_1.jpg,Blue_Star_Grid_1.jpg,Purple_Circle_Dots_4.jpg,left,688.4800000116229,true,NA,NA,NA,NA,NA,NA,NA,NA,true
GbqDxUlg,3r6rzgk0yip7nifkjif6ljfzh4yvyd,39dd6s19jtosdh1xbgxho6w70zweza,GbqDxUlg,2020-0188,2020-11-16,18:43:10,19:03:05,NA,incomplete,9,number,0,1,left,Green_Circle_Chess_3.jpg,Blue_Plus_Stripes_3.jpg,Red_Circle_Grid_2.jpg,left,881.885000038892,true,NA,NA,NA,NA,NA,NA,NA,NA,true
GbqDxUlg,3r6rzgk0yip7nifkjif6ljfzh4yvyd,39dd6s19jtosdh1xbgxho6w70zweza,GbqDxUlg,2020-0188,2020-11-16,18:43:10,19:03:05,NA,incomplete,10,number,0,0,left,Green_Plus_Grid_3.jpg,Red_Circle_Stripes_3.jpg,Blue_Plus_Chess_4.jpg,left,882.7800001017749,true,NA,NA,NA,NA,NA,NA,NA,NA,true
GbqDxUlg,3r6rzgk0yip7nifkjif6ljfzh4yvyd,39dd6s19jtosdh1xbgxho6w70zweza,GbqDxUlg,2020-0188,2020-11-16,18:43:10,19:03:05,NA,incomplete,11,number,0,1,left,Green_Plus_Dots_1.jpg,Purple_Triangle_Stripes_1.jpg,Red_Plus_Chess_3.jpg,left,1116.5100000798702,true,NA,NA,NA,NA,NA,NA,NA,NA,true
GbqDxUlg,3r6rzgk0yip7nifkjif6ljfzh4yvyd,39dd6s19jtosdh1xbgxho6w70zweza,GbqDxUlg,2020-0188,2020-11-16,18:43:10,19:03:05,NA,incomplete,12,number,0,0,left,Blue_Star_Dots_2.jpg,Green_Triangle_Stripes_2.jpg,Purple_Star_Chess_4.jpg,left,988.60999988392,true,NA,NA,NA,NA,NA,NA,NA,NA,true
GbqDxUlg,3r6rzgk0yip7nifkjif6ljfzh4yvyd,39dd6s19jtosdh1xbgxho6w70zweza,GbqDxUlg,2020-0188,2020-11-16,18:43:10,19:03:05,NA,incomplete,13,number,0,1,left,Blue_Triangle_Stripes_3.jpg,Red_Circle_Grid_3.jpg,Purple_Triangle_Chess_1.jpg,left,665.6650002114475,true,NA,NA,NA,NA,NA,NA,NA,NA,true
GbqDxUlg,3r6rzgk0yip7nifkjif6ljfzh4yvyd,39dd6s19jtosdh1xbgxho6w70zweza,GbqDxUlg,2020-0188,2020-11-16,18:43:10,19:03:05,NA,incomplete,14,number,0,1,right,Blue_Star_Grid_3.jpg,Red_Star_Dots_2.jpg,Green_Circle_Chess_3.jpg,right,746.7249999754131,true,NA,NA,NA,NA,NA,NA,NA,NA,true
GbqDxUlg,3r6rzgk0yip7nifkjif6ljfzh4yvyd,39dd6s19jtosdh1xbgxho6w70zweza,GbqDxUlg,2020-0188,2020-11-16,18:43:10,19:03:05,NA,incomplete,15,number,0,0,left,Red_Triangle_Dots_3.jpg,Purple_Star_Grid_3.jpg,Green_Triangle_Stripes_1.jpg,left,553.2450000755489,true,NA,NA,NA,NA,NA,NA,NA,NA,true
GbqDxUlg,3r6rzgk0yip7nifkjif6ljfzh4yvyd,39dd6s19jtosdh1xbgxho6w70zweza,GbqDxUlg,2020-0188,2020-11-16,18:43:10,19:03:05,NA,incomplete,16,number,0,1,left,Blue_Star_Chess_1.jpg,Green_Circle_Dots_1.jpg,Red_Star_Stripes_2.jpg,left,679.799999576062,true,NA,NA,NA,NA,NA,NA,NA,NA,true
GbqDxUlg,3r6rzgk0yip7nifkjif6ljfzh4yvyd,39dd6s19jtosdh1xbgxho6w70zweza,GbqDxUlg,2020-0188,2020-11-16,18:43:10,19:03:05,NA,incomplete,17,number,0,0,left,Green_Plus_Grid_2.jpg,Red_Triangle_Stripes_2.jpg,Blue_Plus_Dots_3.jpg,left,857.7600000426173,true,NA,NA,NA,NA,NA,NA,NA,NA,true
GbqDxUlg,3r6rzgk0yip7nifkjif6ljfzh4yvyd,39dd6s19jtosdh1xbgxho6w70zweza,GbqDxUlg,2020-0188,2020-11-16,18:43:10,19:03:05,NA,incomplete,18,number,0,0,left,Purple_Circle_Chess_3.jpg,Green_Plus_Dots_3.jpg,Blue_Circle_Stripes_4.jpg,left,731.2949998304248,true,NA,NA,NA,NA,NA,NA,NA,NA,true
GbqDxUlg,3r6rzgk0yip7nifkjif6ljfzh4yvyd,39dd6s19jtosdh1xbgxho6w70zweza,GbqDxUlg,2020-0188,2020-11-16,18:43:10,19:03:05,NA,incomplete,19,number,0,1,left,Red_Star_Grid_3.jpg,Blue_Plus_Dots_3.jpg,Purple_Star_Chess_4.jpg,left,794.5750001817942,true,NA,NA,NA,NA,NA,NA,NA,NA,true
GbqDxUlg,3r6rzgk0yip7nifkjif6ljfzh4yvyd,39dd6s19jtosdh1xbgxho6w70zweza,GbqDxUlg,2020-0188,2020-11-16,18:43:10,19:03:05,NA,incomplete,20,shape,1,1,right,Green_Triangle_Dots_1.jpg,Purple_Star_Grid_1.jpg,Blue_Triangle_Chess_4.jpg,left,686.6700001992285,false,NA,NA,NA,NA,NA,NA,NA,NA,true
GbqDxUlg,3r6rzgk0yip7nifkjif6ljfzh4yvyd,39dd6s19jtosdh1xbgxho6w70zweza,GbqDxUlg,2020-0188,2020-11-16,18:43:10,19:03:05,NA,incomplete,21,shape,1,1,right,Blue_Circle_Stripes_4.jpg,Green_Plus_Chess_4.jpg,Purple_Circle_Dots_1.jpg,right,974.8200001195073,true,NA,NA,NA,NA,NA,NA,NA,NA,true
GbqDxUlg,3r6rzgk0yip7nifkjif6ljfzh4yvyd,39dd6s19jtosdh1xbgxho6w70zweza,GbqDxUlg,2020-0188,2020-11-16,18:43:10,19:03:05,NA,incomplete,22,shape,1,1,left,Purple_Circle_Dots_2.jpg,Blue_Circle_Chess_4.jpg,Red_Triangle_Grid_2.jpg,left,933.6549998261034,true,NA,NA,NA,NA,NA,NA,NA,NA,true
GbqDxUlg,3r6rzgk0yip7nifkjif6ljfzh4yvyd,39dd6s19jtosdh1xbgxho6w70zweza,GbqDxUlg,2020-0188,2020-11-16,18:43:10,19:03:05,NA,incomplete,23,shape,1,1,left,Blue_Star_Dots_3.jpg,Red_Star_Grid_2.jpg,Purple_Plus_Stripes_3.jpg,left,1083.1749998033047,true,NA,NA,NA,NA,NA,NA,NA,NA,true
GbqDxUlg,3r6rzgk0yip7nifkjif6ljfzh4yvyd,39dd6s19jtosdh1xbgxho6w70zweza,GbqDxUlg,2020-0188,2020-11-16,18:43:10,19:03:05,NA,incomplete,24,shape,1,1,left,Green_Triangle_Chess_1.jpg,Red_Triangle_Grid_4.jpg,Blue_Circle_Dots_1.jpg,left,1108.2649999298155,true,NA,NA,NA,NA,NA,NA,NA,NA,true
GbqDxUlg,3r6rzgk0yip7nifkjif6ljfzh4yvyd,39dd6s19jtosdh1xbgxho6w70zweza,GbqDxUlg,2020-0188,2020-11-16,18:43:10,19:03:05,NA,incomplete,25,shape,1,1,left,Blue_Circle_Dots_3.jpg,Green_Circle_Stripes_1.jpg,Red_Star_Chess_3.jpg,left,924.1349999792874,true,NA,NA,NA,NA,NA,NA,NA,NA,true
GbqDxUlg,3r6rzgk0yip7nifkjif6ljfzh4yvyd,39dd6s19jtosdh1xbgxho6w70zweza,GbqDxUlg,2020-0188,2020-11-16,18:43:10,19:03:05,NA,incomplete,26,shape,1,1,right,Red_Star_Grid_2.jpg,Blue_Plus_Dots_2.jpg,Green_Star_Stripes_1.jpg,right,1019.9250001460314,true,NA,NA,NA,NA,NA,NA,NA,NA,true
GbqDxUlg,3r6rzgk0yip7nifkjif6ljfzh4yvyd,39dd6s19jtosdh1xbgxho6w70zweza,GbqDxUlg,2020-0188,2020-11-16,18:43:10,19:03:05,NA,incomplete,27,shape,1,1,right,Purple_Triangle_Stripes_4.jpg,Red_Star_Grid_4.jpg,Blue_Triangle_Dots_2.jpg,right,1238.2399998605251,true,NA,NA,NA,NA,NA,NA,NA,NA,true
GbqDxUlg,3r6rzgk0yip7nifkjif6ljfzh4yvyd,39dd6s19jtosdh1xbgxho6w70zweza,GbqDxUlg,2020-0188,2020-11-16,18:43:10,19:03:05,NA,incomplete,28,shape,1,1,right,Green_Triangle_Chess_3.jpg,Blue_Star_Grid_3.jpg,Purple_Triangle_Dots_4.jpg,right,1152.9649998992682,true,NA,NA,NA,NA,NA,NA,NA,NA,true
GbqDxUlg,3r6rzgk0yip7nifkjif6ljfzh4yvyd,39dd6s19jtosdh1xbgxho6w70zweza,GbqDxUlg,2020-0188,2020-11-16,18:43:10,19:03:05,NA,incomplete,29,shape,1,0,left,Green_Circle_Grid_4.jpg,Blue_Circle_Dots_1.jpg,Purple_Plus_Stripes_4.jpg,left,822.9900002479553,true,NA,NA,NA,NA,NA,NA,NA,NA,true
GbqDxUlg,3r6rzgk0yip7nifkjif6ljfzh4yvyd,39dd6s19jtosdh1xbgxho6w70zweza,GbqDxUlg,2020-0188,2020-11-16,18:43:10,19:03:05,NA,incomplete,30,shape,1,0,right,Red_Triangle_Chess_1.jpg,Green_Star_Grid_1.jpg,Purple_Triangle_Dots_3.jpg,right,977.9949998483062,true,NA,NA,NA,NA,NA,NA,NA,NA,true
GbqDxUlg,3r6rzgk0yip7nifkjif6ljfzh4yvyd,39dd6s19jtosdh1xbgxho6w70zweza,GbqDxUlg,2020-0188,2020-11-16,18:43:10,19:03:05,NA,incomplete,31,shape,1,1,right,Blue_Plus_Grid_2.jpg,Red_Circle_Dots_2.jpg,Purple_Plus_Stripes_4.jpg,right,950.8799999020994,true,NA,NA,NA,NA,NA,NA,NA,NA,true
GbqDxUlg,3r6rzgk0yip7nifkjif6ljfzh4yvyd,39dd6s19jtosdh1xbgxho6w70zweza,GbqDxUlg,2020-0188,2020-11-16,18:43:10,19:03:05,NA,incomplete,32,shape,1,1,right,Red_Plus_Grid_3.jpg,Blue_Star_Dots_3.jpg,Purple_Plus_Stripes_1.jpg,right,1636.5100000984967,true,NA,NA,NA,NA,NA,NA,NA,NA,true
GbqDxUlg,3r6rzgk0yip7nifkjif6ljfzh4yvyd,39dd6s19jtosdh1xbgxho6w70zweza,GbqDxUlg,2020-0188,2020-11-16,18:43:10,19:03:05,NA,incomplete,33,shape,1,1,left,Green_Circle_Grid_1.jpg,Red_Circle_Chess_2.jpg,Blue_Triangle_Stripes_1.jpg,left,759.8649999126792,true,NA,NA,NA,NA,NA,NA,NA,NA,true
GbqDxUlg,3r6rzgk0yip7nifkjif6ljfzh4yvyd,39dd6s19jtosdh1xbgxho6w70zweza,GbqDxUlg,2020-0188,2020-11-16,18:43:10,19:03:05,NA,incomplete,34,shape,1,1,left,Green_Triangle_Grid_1.jpg,Red_Triangle_Chess_3.jpg,Purple_Plus_Dots_1.jpg,left,927.1999998018146,true,NA,NA,NA,NA,NA,NA,NA,NA,true
GbqDxUlg,3r6rzgk0yip7nifkjif6ljfzh4yvyd,39dd6s19jtosdh1xbgxho6w70zweza,GbqDxUlg,2020-0188,2020-11-16,18:43:10,19:03:05,NA,incomplete,35,shape,1,1,right,Green_Triangle_Stripes_4.jpg,Blue_Plus_Chess_4.jpg,Purple_Triangle_Dots_1.jpg,right,741.159999743104,true,NA,NA,NA,NA,NA,NA,NA,NA,true
GbqDxUlg,3r6rzgk0yip7nifkjif6ljfzh4yvyd,39dd6s19jtosdh1xbgxho6w70zweza,GbqDxUlg,2020-0188,2020-11-16,18:43:10,19:03:05,NA,incomplete,36,shape,1,1,right,Blue_Triangle_Chess_2.jpg,Red_Star_Grid_2.jpg,Green_Triangle_Stripes_3.jpg,right,1035.6900002807379,true,NA,NA,NA,NA,NA,NA,NA,NA,true
GbqDxUlg,3r6rzgk0yip7nifkjif6ljfzh4yvyd,39dd6s19jtosdh1xbgxho6w70zweza,GbqDxUlg,2020-0188,2020-11-16,18:43:10,19:03:05,NA,incomplete,37,shape,1,1,left,Red_Plus_Stripes_4.jpg,Green_Plus_Dots_3.jpg,Purple_Triangle_Chess_4.jpg,left,846.9349998049438,true,NA,NA,NA,NA,NA,NA,NA,NA,true
GbqDxUlg,3r6rzgk0yip7nifkjif6ljfzh4yvyd,39dd6s19jtosdh1xbgxho6w70zweza,GbqDxUlg,2020-0188,2020-11-16,18:43:10,19:03:05,NA,incomplete,38,shape,1,1,left,Red_Triangle_Stripes_1.jpg,Blue_Triangle_Grid_2.jpg,Green_Plus_Dots_1.jpg,left,648.1150002218783,true,NA,NA,NA,NA,NA,NA,NA,NA,true
GbqDxUlg,3r6rzgk0yip7nifkjif6ljfzh4yvyd,39dd6s19jtosdh1xbgxho6w70zweza,GbqDxUlg,2020-0188,2020-11-16,18:43:10,19:03:05,NA,incomplete,39,shape,1,1,right,Green_Circle_Dots_3.jpg,Blue_Star_Grid_3.jpg,Red_Circle_Chess_2.jpg,right,692.7850004285574,true,NA,NA,NA,NA,NA,NA,NA,NA,true
GbqDxUlg,3r6rzgk0yip7nifkjif6ljfzh4yvyd,39dd6s19jtosdh1xbgxho6w70zweza,GbqDxUlg,2020-0188,2020-11-16,18:43:10,19:03:05,NA,incomplete,0,number,0,1,left,Red_Star_Grid_3.jpg,Green_Circle_Stripes_3.jpg,Blue_Star_Chess_1.jpg,left,667.3449999652803,true,high,NA,NA,NA,NA,NA,NA,NA,false
GbqDxUlg,3r6rzgk0yip7nifkjif6ljfzh4yvyd,39dd6s19jtosdh1xbgxho6w70zweza,GbqDxUlg,2020-0188,2020-11-16,18:43:10,19:03:05,NA,incomplete,1,number,0,1,left,Green_Triangle_Grid_2.jpg,Red_Star_Dots_2.jpg,Purple_Triangle_Stripes_1.jpg,left,724.744999781251,true,high,NA,NA,NA,NA,NA,NA,NA,false
GbqDxUlg,3r6rzgk0yip7nifkjif6ljfzh4yvyd,39dd6s19jtosdh1xbgxho6w70zweza,GbqDxUlg,2020-0188,2020-11-16,18:43:10,19:03:05,NA,incomplete,2,number,0,1,left,Purple_Triangle_Grid_1.jpg,Blue_Plus_Chess_1.jpg,Red_Triangle_Stripes_3.jpg,left,708.404999691993,true,high,NA,NA,NA,NA,NA,NA,NA,false
GbqDxUlg,3r6rzgk0yip7nifkjif6ljfzh4yvyd,39dd6s19jtosdh1xbgxho6w70zweza,GbqDxUlg,2020-0188,2020-11-16,18:43:10,19:03:05,NA,incomplete,3,number,0,1,left,Red_Plus_Dots_2.jpg,Purple_Circle_Chess_2.jpg,Blue_Plus_Grid_3.jpg,left,659.9699999205768,true,high,NA,NA,NA,NA,NA,NA,NA,false
GbqDxUlg,3r6rzgk0yip7nifkjif6ljfzh4yvyd,39dd6s19jtosdh1xbgxho6w70zweza,GbqDxUlg,2020-0188,2020-11-16,18:43:10,19:03:05,NA,incomplete,4,number,0,1,left,Purple_Triangle_Stripes_3.jpg,Blue_Star_Grid_3.jpg,Red_Triangle_Dots_1.jpg,left,501.8400000408292,true,high,NA,NA,NA,NA,NA,NA,NA,false
GbqDxUlg,3r6rzgk0yip7nifkjif6ljfzh4yvyd,39dd6s19jtosdh1xbgxho6w70zweza,GbqDxUlg,2020-0188,2020-11-16,18:43:10,19:03:05,NA,incomplete,5,number,0,1,left,Purple_Circle_Chess_1.jpg,Blue_Triangle_Dots_1.jpg,Green_Circle_Grid_4.jpg,left,517.8000000305474,true,high,NA,NA,NA,NA,NA,NA,NA,false
GbqDxUlg,3r6rzgk0yip7nifkjif6ljfzh4yvyd,39dd6s19jtosdh1xbgxho6w70zweza,GbqDxUlg,2020-0188,2020-11-16,18:43:10,19:03:05,NA,incomplete,6,number,0,1,left,Blue_Triangle_Stripes_1.jpg,Purple_Plus_Grid_1.jpg,Green_Triangle_Chess_4.jpg,left,493.0950002744794,true,high,NA,NA,NA,NA,NA,NA,NA,false
GbqDxUlg,3r6rzgk0yip7nifkjif6ljfzh4yvyd,39dd6s19jtosdh1xbgxho6w70zweza,GbqDxUlg,2020-0188,2020-11-16,18:43:10,19:03:05,NA,incomplete,7,number,0,1,left,Red_Circle_Chess_2.jpg,Purple_Triangle_Grid_2.jpg,Green_Circle_Dots_3.jpg,left,749.4399999268353,true,high,NA,NA,NA,NA,NA,NA,NA,false
GbqDxUlg,3r6rzgk0yip7nifkjif6ljfzh4yvyd,39dd6s19jtosdh1xbgxho6w70zweza,GbqDxUlg,2020-0188,2020-11-16,18:43:10,19:03:05,NA,incomplete,8,number,0,1,left,Purple_Plus_Chess_2.jpg,Green_Star_Stripes_2.jpg,Blue_Plus_Dots_1.jpg,left,596.5999998152256,true,high,NA,NA,NA,NA,NA,NA,NA,false
GbqDxUlg,3r6rzgk0yip7nifkjif6ljfzh4yvyd,39dd6s19jtosdh1xbgxho6w70zweza,GbqDxUlg,2020-0188,2020-11-16,18:43:10,19:03:05,NA,incomplete,9,number,0,1,right,Purple_Circle_Grid_4.jpg,Red_Circle_Stripes_3.jpg,Green_Star_Chess_4.jpg,right,657.2650000452995,true,high,NA,NA,NA,NA,NA,NA,NA,false
GbqDxUlg,3r6rzgk0yip7nifkjif6ljfzh4yvyd,39dd6s19jtosdh1xbgxho6w70zweza,GbqDxUlg,2020-0188,2020-11-16,18:43:10,19:03:05,NA,incomplete,10,shape,1,1,left,Green_Triangle_Grid_2.jpg,Purple_Triangle_Chess_1.jpg,Blue_Circle_Stripes_2.jpg,left,498.7399997189641,true,high,NA,NA,NA,NA,NA,NA,NA,false
GbqDxUlg,3r6rzgk0yip7nifkjif6ljfzh4yvyd,39dd6s19jtosdh1xbgxho6w70zweza,GbqDxUlg,2020-0188,2020-11-16,18:43:10,19:03:05,NA,incomplete,11,shape,1,0,right,Blue_Triangle_Stripes_3.jpg,Purple_Plus_Grid_3.jpg,Green_Triangle_Chess_4.jpg,left,570.7849999889731,false,high,NA,NA,NA,NA,NA,NA,NA,false
GbqDxUlg,3r6rzgk0yip7nifkjif6ljfzh4yvyd,39dd6s19jtosdh1xbgxho6w70zweza,GbqDxUlg,2020-0188,2020-11-16,18:43:10,19:03:05,NA,incomplete,12,shape,1,1,right,Green_Star_Chess_2.jpg,Blue_Circle_Stripes_2.jpg,Red_Star_Dots_4.jpg,left,553.4350001253188,false,high,NA,NA,NA,NA,NA,NA,NA,false
GbqDxUlg,3r6rzgk0yip7nifkjif6ljfzh4yvyd,39dd6s19jtosdh1xbgxho6w70zweza,GbqDxUlg,2020-0188,2020-11-16,18:43:10,19:03:05,NA,incomplete,13,shape,1,0,left,Blue_Circle_Grid_1.jpg,Purple_Circle_Dots_4.jpg,Red_Plus_Stripes_1.jpg,right,558.2400001585484,false,high,NA,NA,NA,NA,NA,NA,NA,false
GbqDxUlg,3r6rzgk0yip7nifkjif6ljfzh4yvyd,39dd6s19jtosdh1xbgxho6w70zweza,GbqDxUlg,2020-0188,2020-11-16,18:43:10,19:03:05,NA,incomplete,14,shape,1,1,right,Green_Triangle_Stripes_1.jpg,Purple_Plus_Chess_1.jpg,Blue_Triangle_Grid_2.jpg,left,572.3400004208088,false,high,NA,NA,NA,NA,NA,NA,NA,false
GbqDxUlg,3r6rzgk0yip7nifkjif6ljfzh4yvyd,39dd6s19jtosdh1xbgxho6w70zweza,GbqDxUlg,2020-0188,2020-11-16,18:43:10,19:03:05,NA,incomplete,15,shape,1,1,right,Purple_Circle_Stripes_3.jpg,Green_Plus_Grid_3.jpg,Red_Circle_Chess_1.jpg,left,530.0150001421571,false,high,NA,NA,NA,NA,NA,NA,NA,false
GbqDxUlg,3r6rzgk0yip7nifkjif6ljfzh4yvyd,39dd6s19jtosdh1xbgxho6w70zweza,GbqDxUlg,2020-0188,2020-11-16,18:43:10,19:03:05,NA,incomplete,16,shape,1,0,left,Green_Triangle_Grid_1.jpg,Red_Triangle_Chess_4.jpg,Blue_Circle_Dots_1.jpg,left,601.3850001618266,true,high,NA,NA,NA,NA,NA,NA,NA,false
GbqDxUlg,3r6rzgk0yip7nifkjif6ljfzh4yvyd,39dd6s19jtosdh1xbgxho6w70zweza,GbqDxUlg,2020-0188,2020-11-16,18:43:10,19:03:05,NA,incomplete,17,shape,1,1,left,Purple_Plus_Chess_1.jpg,Blue_Plus_Dots_4.jpg,Green_Star_Stripes_1.jpg,left,797.3550003953278,true,high,NA,NA,NA,NA,NA,NA,NA,false
GbqDxUlg,3r6rzgk0yip7nifkjif6ljfzh4yvyd,39dd6s19jtosdh1xbgxho6w70zweza,GbqDxUlg,2020-0188,2020-11-16,18:43:10,19:03:05,NA,incomplete,18,shape,1,1,right,Purple_Star_Grid_2.jpg,Red_Plus_Chess_2.jpg,Green_Star_Dots_4.jpg,right,1001.7800000496209,true,high,NA,NA,NA,NA,NA,NA,NA,false
GbqDxUlg,3r6rzgk0yip7nifkjif6ljfzh4yvyd,39dd6s19jtosdh1xbgxho6w70zweza,GbqDxUlg,2020-0188,2020-11-16,18:43:10,19:03:05,NA,incomplete,19,shape,1,1,right,Green_Triangle_Stripes_1.jpg,Blue_Circle_Chess_1.jpg,Purple_Triangle_Dots_2.jpg,right,589.5750001072884,true,high,NA,NA,NA,NA,NA,NA,NA,false
GbqDxUlg,3r6rzgk0yip7nifkjif6ljfzh4yvyd,39dd6s19jtosdh1xbgxho6w70zweza,GbqDxUlg,2020-0188,2020-11-16,18:43:10,19:03:05,NA,incomplete,20,number,0,1,left,Purple_Plus_Chess_4.jpg,Green_Star_Dots_4.jpg,Red_Plus_Stripes_2.jpg,right,730.5950000882149,false,high,NA,NA,NA,NA,NA,NA,NA,false
GbqDxUlg,3r6rzgk0yip7nifkjif6ljfzh4yvyd,39dd6s19jtosdh1xbgxho6w70zweza,GbqDxUlg,2020-0188,2020-11-16,18:43:10,19:03:05,NA,incomplete,21,number,0,0,right,Red_Triangle_Dots_3.jpg,Blue_Triangle_Chess_1.jpg,Purple_Plus_Stripes_3.jpg,left,569.3550002761185,false,high,NA,NA,NA,NA,NA,NA,NA,false
GbqDxUlg,3r6rzgk0yip7nifkjif6ljfzh4yvyd,39dd6s19jtosdh1xbgxho6w70zweza,GbqDxUlg,2020-0188,2020-11-16,18:43:10,19:03:05,NA,incomplete,22,number,0,1,left,Green_Star_Dots_1.jpg,Purple_Triangle_Grid_1.jpg,Red_Star_Chess_3.jpg,right,680.2149997092783,false,high,NA,NA,NA,NA,NA,NA,NA,false
GbqDxUlg,3r6rzgk0yip7nifkjif6ljfzh4yvyd,39dd6s19jtosdh1xbgxho6w70zweza,GbqDxUlg,2020-0188,2020-11-16,18:43:10,19:03:05,NA,incomplete,23,number,0,1,left,Red_Triangle_Dots_4.jpg,Blue_Plus_Stripes_4.jpg,Green_Triangle_Chess_3.jpg,left,568.6399997211993,true,high,NA,NA,NA,NA,NA,NA,NA,false
GbqDxUlg,3r6rzgk0yip7nifkjif6ljfzh4yvyd,39dd6s19jtosdh1xbgxho6w70zweza,GbqDxUlg,2020-0188,2020-11-16,18:43:10,19:03:05,NA,incomplete,24,number,0,1,left,Blue_Triangle_Chess_2.jpg,Purple_Plus_Stripes_2.jpg,Red_Triangle_Grid_4.jpg,left,613.6549999937415,true,high,NA,NA,NA,NA,NA,NA,NA,false
GbqDxUlg,3r6rzgk0yip7nifkjif6ljfzh4yvyd,39dd6s19jtosdh1xbgxho6w70zweza,GbqDxUlg,2020-0188,2020-11-16,18:43:10,19:03:05,NA,incomplete,25,number,0,1,left,Green_Circle_Chess_3.jpg,Red_Plus_Grid_3.jpg,Purple_Circle_Dots_2.jpg,left,625.6149997934699,true,high,NA,NA,NA,NA,NA,NA,NA,false
GbqDxUlg,3r6rzgk0yip7nifkjif6ljfzh4yvyd,39dd6s19jtosdh1xbgxho6w70zweza,GbqDxUlg,2020-0188,2020-11-16,18:43:10,19:03:05,NA,incomplete,26,number,0,1,right,Purple_Plus_Stripes_2.jpg,Green_Plus_Grid_1.jpg,Blue_Circle_Chess_2.jpg,right,596.750000026077,true,high,NA,NA,NA,NA,NA,NA,NA,false
GbqDxUlg,3r6rzgk0yip7nifkjif6ljfzh4yvyd,39dd6s19jtosdh1xbgxho6w70zweza,GbqDxUlg,2020-0188,2020-11-16,18:43:10,19:03:05,NA,incomplete,27,number,0,0,left,Green_Triangle_Chess_4.jpg,Red_Plus_Dots_4.jpg,Blue_Triangle_Grid_1.jpg,left,481.3899998553097,true,high,NA,NA,NA,NA,NA,NA,NA,false
GbqDxUlg,3r6rzgk0yip7nifkjif6ljfzh4yvyd,39dd6s19jtosdh1xbgxho6w70zweza,GbqDxUlg,2020-0188,2020-11-16,18:43:10,19:03:05,NA,incomplete,28,number,0,1,right,Green_Circle_Dots_2.jpg,Purple_Circle_Grid_3.jpg,Blue_Triangle_Chess_2.jpg,right,602.855000179261,true,high,NA,NA,NA,NA,NA,NA,NA,false
GbqDxUlg,3r6rzgk0yip7nifkjif6ljfzh4yvyd,39dd6s19jtosdh1xbgxho6w70zweza,GbqDxUlg,2020-0188,2020-11-16,18:43:10,19:03:05,NA,incomplete,29,number,0,1,left,Blue_Triangle_Stripes_1.jpg,Purple_Plus_Chess_1.jpg,Green_Triangle_Grid_2.jpg,left,439.2849998548627,true,high,NA,NA,NA,NA,NA,NA,NA,false
GbqDxUlg,3r6rzgk0yip7nifkjif6ljfzh4yvyd,39dd6s19jtosdh1xbgxho6w70zweza,GbqDxUlg,2020-0188,2020-11-16,18:43:10,19:03:05,NA,incomplete,30,shape,1,1,left,Purple_Plus_Grid_1.jpg,Red_Plus_Chess_3.jpg,Blue_Triangle_Dots_1.jpg,right,520.3599999658763,false,high,NA,NA,NA,NA,NA,NA,NA,false
GbqDxUlg,3r6rzgk0yip7nifkjif6ljfzh4yvyd,39dd6s19jtosdh1xbgxho6w70zweza,GbqDxUlg,2020-0188,2020-11-16,18:43:10,19:03:05,NA,incomplete,31,shape,1,1,left,Green_Triangle_Stripes_1.jpg,Red_Triangle_Chess_2.jpg,Purple_Circle_Dots_1.jpg,right,537.0949995703995,false,high,NA,NA,NA,NA,NA,NA,NA,false
GbqDxUlg,3r6rzgk0yip7nifkjif6ljfzh4yvyd,39dd6s19jtosdh1xbgxho6w70zweza,GbqDxUlg,2020-0188,2020-11-16,18:43:10,19:03:05,NA,incomplete,32,shape,1,0,left,Red_Star_Stripes_1.jpg,Blue_Star_Grid_4.jpg,Purple_Triangle_Chess_1.jpg,left,751.6049998812377,true,high,NA,NA,NA,NA,NA,NA,NA,false
GbqDxUlg,3r6rzgk0yip7nifkjif6ljfzh4yvyd,39dd6s19jtosdh1xbgxho6w70zweza,GbqDxUlg,2020-0188,2020-11-16,18:43:10,19:03:05,NA,incomplete,33,shape,1,0,right,Red_Star_Stripes_1.jpg,Blue_Triangle_Grid_1.jpg,Green_Star_Chess_3.jpg,left,485.5700000189245,false,high,NA,NA,NA,NA,NA,NA,NA,false
GbqDxUlg,3r6rzgk0yip7nifkjif6ljfzh4yvyd,39dd6s19jtosdh1xbgxho6w70zweza,GbqDxUlg,2020-0188,2020-11-16,18:43:10,19:03:05,NA,incomplete,34,shape,1,1,left,Green_Plus_Grid_1.jpg,Red_Plus_Chess_4.jpg,Blue_Triangle_Stripes_1.jpg,right,534.0350000187755,false,high,NA,NA,NA,NA,NA,NA,NA,false
GbqDxUlg,3r6rzgk0yip7nifkjif6ljfzh4yvyd,39dd6s19jtosdh1xbgxho6w70zweza,GbqDxUlg,2020-0188,2020-11-16,18:43:10,19:03:05,NA,incomplete,35,shape,1,1,left,Red_Circle_Stripes_3.jpg,Purple_Circle_Grid_4.jpg,Green_Triangle_Dots_3.jpg,right,725.2449998632073,false,high,NA,NA,NA,NA,NA,NA,NA,false
GbqDxUlg,3r6rzgk0yip7nifkjif6ljfzh4yvyd,39dd6s19jtosdh1xbgxho6w70zweza,GbqDxUlg,2020-0188,2020-11-16,18:43:10,19:03:05,NA,incomplete,36,shape,1,0,left,Red_Circle_Chess_4.jpg,Purple_Circle_Dots_1.jpg,Blue_Triangle_Grid_4.jpg,left,619.9799999594688,true,high,NA,NA,NA,NA,NA,NA,NA,false
GbqDxUlg,3r6rzgk0yip7nifkjif6ljfzh4yvyd,39dd6s19jtosdh1xbgxho6w70zweza,GbqDxUlg,2020-0188,2020-11-16,18:43:10,19:03:05,NA,incomplete,37,shape,1,1,left,Blue_Triangle_Grid_1.jpg,Purple_Triangle_Stripes_2.jpg,Red_Star_Dots_1.jpg,left,543.5000001452863,true,high,NA,NA,NA,NA,NA,NA,NA,false
GbqDxUlg,3r6rzgk0yip7nifkjif6ljfzh4yvyd,39dd6s19jtosdh1xbgxho6w70zweza,GbqDxUlg,2020-0188,2020-11-16,18:43:10,19:03:05,NA,incomplete,38,shape,1,1,left,Green_Star_Dots_1.jpg,Red_Star_Grid_2.jpg,Purple_Triangle_Stripes_1.jpg,left,637.1300001628697,true,high,NA,NA,NA,NA,NA,NA,NA,false
GbqDxUlg,3r6rzgk0yip7nifkjif6ljfzh4yvyd,39dd6s19jtosdh1xbgxho6w70zweza,GbqDxUlg,2020-0188,2020-11-16,18:43:10,19:03:05,NA,incomplete,39,shape,1,0,right,Green_Plus_Stripes_2.jpg,Blue_Triangle_Chess_2.jpg,Purple_Plus_Grid_1.jpg,right,553.0099999159575,true,high,NA,NA,NA,NA,NA,NA,NA,false
GbqDxUlg,3r6rzgk0yip7nifkjif6ljfzh4yvyd,39dd6s19jtosdh1xbgxho6w70zweza,GbqDxUlg,2020-0188,2020-11-16,18:43:10,19:03:05,NA,incomplete,40,number,0,1,right,Red_Star_Dots_3.jpg,Blue_Star_Stripes_4.jpg,Purple_Circle_Grid_3.jpg,right,622.4699998274446,true,high,NA,NA,NA,NA,NA,NA,NA,false
GbqDxUlg,3r6rzgk0yip7nifkjif6ljfzh4yvyd,39dd6s19jtosdh1xbgxho6w70zweza,GbqDxUlg,2020-0188,2020-11-16,18:43:10,19:03:05,NA,incomplete,41,number,0,1,right,Red_Triangle_Grid_3.jpg,Purple_Triangle_Chess_1.jpg,Green_Circle_Stripes_3.jpg,right,730.2600000984967,true,high,NA,NA,NA,NA,NA,NA,NA,false
GbqDxUlg,3r6rzgk0yip7nifkjif6ljfzh4yvyd,39dd6s19jtosdh1xbgxho6w70zweza,GbqDxUlg,2020-0188,2020-11-16,18:43:10,19:03:05,NA,incomplete,42,number,0,1,right,Purple_Star_Grid_3.jpg,Green_Star_Dots_4.jpg,Blue_Plus_Stripes_3.jpg,right,562.1249997057021,true,high,NA,NA,NA,NA,NA,NA,NA,false
GbqDxUlg,3r6rzgk0yip7nifkjif6ljfzh4yvyd,39dd6s19jtosdh1xbgxho6w70zweza,GbqDxUlg,2020-0188,2020-11-16,18:43:10,19:03:05,NA,incomplete,43,number,0,1,left,Blue_Star_Grid_4.jpg,Purple_Plus_Chess_4.jpg,Red_Star_Stripes_2.jpg,left,439.4249999895692,true,high,NA,NA,NA,NA,NA,NA,NA,false
GbqDxUlg,3r6rzgk0yip7nifkjif6ljfzh4yvyd,39dd6s19jtosdh1xbgxho6w70zweza,GbqDxUlg,2020-0188,2020-11-16,18:43:10,19:03:05,NA,incomplete,44,number,0,0,right,Red_Star_Stripes_4.jpg,Purple_Star_Grid_1.jpg,Blue_Circle_Chess_4.jpg,right,433.57500014826655,true,high,NA,NA,NA,NA,NA,NA,NA,false
GbqDxUlg,3r6rzgk0yip7nifkjif6ljfzh4yvyd,39dd6s19jtosdh1xbgxho6w70zweza,GbqDxUlg,2020-0188,2020-11-16,18:43:10,19:03:05,NA,incomplete,45,number,0,1,left,Green_Plus_Dots_1.jpg,Purple_Star_Stripes_1.jpg,Red_Plus_Chess_3.jpg,left,436.7400002665818,true,high,NA,NA,NA,NA,NA,NA,NA,false
GbqDxUlg,3r6rzgk0yip7nifkjif6ljfzh4yvyd,39dd6s19jtosdh1xbgxho6w70zweza,GbqDxUlg,2020-0188,2020-11-16,18:43:10,19:03:05,NA,incomplete,46,number,0,1,right,Red_Star_Dots_1.jpg,Purple_Star_Stripes_3.jpg,Blue_Circle_Grid_1.jpg,right,494.90000028163195,true,high,NA,NA,NA,NA,NA,NA,NA,false
GbqDxUlg,3r6rzgk0yip7nifkjif6ljfzh4yvyd,39dd6s19jtosdh1xbgxho6w70zweza,GbqDxUlg,2020-0188,2020-11-16,18:43:10,19:03:05,NA,incomplete,47,number,0,1,left,Green_Triangle_Chess_4.jpg,Red_Circle_Grid_4.jpg,Blue_Triangle_Stripes_1.jpg,left,591.3849999196827,true,high,NA,NA,NA,NA,NA,NA,NA,false
GbqDxUlg,3r6rzgk0yip7nifkjif6ljfzh4yvyd,39dd6s19jtosdh1xbgxho6w70zweza,GbqDxUlg,2020-0188,2020-11-16,18:43:10,19:03:05,NA,incomplete,48,number,0,1,left,Green_Circle_Stripes_1.jpg,Purple_Star_Grid_1.jpg,Red_Circle_Chess_4.jpg,left,948.1649999506772,true,high,NA,NA,NA,NA,NA,NA,NA,false
GbqDxUlg,3r6rzgk0yip7nifkjif6ljfzh4yvyd,39dd6s19jtosdh1xbgxho6w70zweza,GbqDxUlg,2020-0188,2020-11-16,18:43:10,19:03:05,NA,incomplete,49,number,0,1,left,Blue_Triangle_Chess_4.jpg,Green_Plus_Dots_4.jpg,Red_Triangle_Grid_3.jpg,right,1387.184999883175,false,high,NA,NA,NA,NA,NA,NA,NA,false
GbqDxUlg,3r6rzgk0yip7nifkjif6ljfzh4yvyd,39dd6s19jtosdh1xbgxho6w70zweza,GbqDxUlg,2020-0188,2020-11-16,18:43:10,19:03:05,NA,incomplete,50,shape,1,0,right,Green_Triangle_Chess_1.jpg,Purple_Star_Dots_1.jpg,Red_Triangle_Grid_3.jpg,left,1286.5150002762675,false,high,NA,NA,NA,NA,NA,NA,NA,false
GbqDxUlg,3r6rzgk0yip7nifkjif6ljfzh4yvyd,39dd6s19jtosdh1xbgxho6w70zweza,GbqDxUlg,2020-0188,2020-11-16,18:43:10,19:03:05,NA,incomplete,51,shape,1,1,left,Green_Circle_Grid_4.jpg,Red_Circle_Chess_1.jpg,Purple_Star_Dots_4.jpg,right,463.98000000044703,false,high,NA,NA,NA,NA,NA,NA,NA,false
GbqDxUlg,3r6rzgk0yip7nifkjif6ljfzh4yvyd,39dd6s19jtosdh1xbgxho6w70zweza,GbqDxUlg,2020-0188,2020-11-16,18:43:10,19:03:05,NA,incomplete,52,shape,1,1,right,Blue_Triangle_Stripes_2.jpg,Purple_Star_Dots_2.jpg,Red_Triangle_Chess_1.jpg,left,689.9700001813471,false,high,NA,NA,NA,NA,NA,NA,NA,false
GbqDxUlg,3r6rzgk0yip7nifkjif6ljfzh4yvyd,39dd6s19jtosdh1xbgxho6w70zweza,GbqDxUlg,2020-0188,2020-11-16,18:43:10,19:03:05,NA,incomplete,53,shape,1,1,right,Red_Star_Stripes_4.jpg,Purple_Plus_Grid_4.jpg,Green_Star_Chess_1.jpg,left,555.9450001455843,false,high,NA,NA,NA,NA,NA,NA,NA,false
GbqDxUlg,3r6rzgk0yip7nifkjif6ljfzh4yvyd,39dd6s19jtosdh1xbgxho6w70zweza,GbqDxUlg,2020-0188,2020-11-16,18:43:10,19:03:05,NA,incomplete,54,shape,1,1,left,Red_Triangle_Chess_2.jpg,Purple_Triangle_Grid_1.jpg,Blue_Star_Dots_2.jpg,left,807.6149998232722,true,high,NA,NA,NA,NA,NA,NA,NA,false
GbqDxUlg,3r6rzgk0yip7nifkjif6ljfzh4yvyd,39dd6s19jtosdh1xbgxho6w70zweza,GbqDxUlg,2020-0188,2020-11-16,18:43:10,19:03:05,NA,incomplete,55,shape,1,1,right,Purple_Circle_Dots_3.jpg,Green_Star_Grid_3.jpg,Red_Circle_Stripes_4.jpg,right,740.4400003142655,true,high,NA,NA,NA,NA,NA,NA,NA,false
GbqDxUlg,3r6rzgk0yip7nifkjif6ljfzh4yvyd,39dd6s19jtosdh1xbgxho6w70zweza,GbqDxUlg,2020-0188,2020-11-16,18:43:10,19:03:05,NA,incomplete,56,shape,1,1,left,Red_Circle_Dots_1.jpg,Purple_Circle_Grid_3.jpg,Green_Star_Stripes_1.jpg,left,515.5699998140335,true,high,NA,NA,NA,NA,NA,NA,NA,false
GbqDxUlg,3r6rzgk0yip7nifkjif6ljfzh4yvyd,39dd6s19jtosdh1xbgxho6w70zweza,GbqDxUlg,2020-0188,2020-11-16,18:43:10,19:03:05,NA,incomplete,57,shape,1,0,right,Blue_Plus_Dots_2.jpg,Green_Star_Stripes_2.jpg,Red_Plus_Chess_3.jpg,right,731.2099998816848,true,high,NA,NA,NA,NA,NA,NA,NA,false
GbqDxUlg,3r6rzgk0yip7nifkjif6ljfzh4yvyd,39dd6s19jtosdh1xbgxho6w70zweza,GbqDxUlg,2020-0188,2020-11-16,18:43:10,19:03:05,NA,incomplete,58,shape,1,1,left,Purple_Plus_Grid_3.jpg,Red_Plus_Chess_4.jpg,Blue_Triangle_Dots_3.jpg,left,611.5250000730157,true,high,NA,NA,NA,NA,NA,NA,NA,false
GbqDxUlg,3r6rzgk0yip7nifkjif6ljfzh4yvyd,39dd6s19jtosdh1xbgxho6w70zweza,GbqDxUlg,2020-0188,2020-11-16,18:43:10,19:03:05,NA,incomplete,59,shape,1,1,right,Red_Triangle_Stripes_4.jpg,Green_Circle_Dots_4.jpg,Purple_Triangle_Chess_3.jpg,right,559.1700002551079,true,high,NA,NA,NA,NA,NA,NA,NA,false
GbqDxUlg,3r6rzgk0yip7nifkjif6ljfzh4yvyd,39dd6s19jtosdh1xbgxho6w70zweza,GbqDxUlg,2020-0188,2020-11-16,18:43:10,19:03:05,NA,incomplete,60,number,0,1,left,Green_Star_Dots_2.jpg,Blue_Triangle_Grid_2.jpg,Red_Star_Stripes_4.jpg,right,629.0400000289083,false,high,NA,NA,NA,NA,NA,NA,NA,false
GbqDxUlg,3r6rzgk0yip7nifkjif6ljfzh4yvyd,39dd6s19jtosdh1xbgxho6w70zweza,GbqDxUlg,2020-0188,2020-11-16,18:43:10,19:03:05,NA,incomplete,61,number,0,0,left,Red_Plus_Stripes_2.jpg,Green_Circle_Dots_2.jpg,Blue_Plus_Grid_1.jpg,right,607.6250001788139,false,high,NA,NA,NA,NA,NA,NA,NA,false
GbqDxUlg,3r6rzgk0yip7nifkjif6ljfzh4yvyd,39dd6s19jtosdh1xbgxho6w70zweza,GbqDxUlg,2020-0188,2020-11-16,18:43:10,19:03:05,NA,incomplete,62,number,0,1,right,Green_Triangle_Chess_1.jpg,Purple_Triangle_Grid_2.jpg,Blue_Star_Dots_1.jpg,left,532.3649998754263,false,high,NA,NA,NA,NA,NA,NA,NA,false
GbqDxUlg,3r6rzgk0yip7nifkjif6ljfzh4yvyd,39dd6s19jtosdh1xbgxho6w70zweza,GbqDxUlg,2020-0188,2020-11-16,18:43:10,19:03:05,NA,incomplete,63,number,0,1,right,Blue_Circle_Chess_1.jpg,Purple_Circle_Grid_4.jpg,Red_Triangle_Dots_1.jpg,left,587.390000000596,false,high,NA,NA,NA,NA,NA,NA,NA,false
GbqDxUlg,3r6rzgk0yip7nifkjif6ljfzh4yvyd,39dd6s19jtosdh1xbgxho6w70zweza,GbqDxUlg,2020-0188,2020-11-16,18:43:10,19:03:05,NA,incomplete,64,number,0,0,right,Green_Circle_Dots_2.jpg,Blue_Circle_Stripes_3.jpg,Purple_Plus_Chess_2.jpg,right,1055.6399999186397,true,high,NA,NA,NA,NA,NA,NA,NA,false
GbqDxUlg,3r6rzgk0yip7nifkjif6ljfzh4yvyd,39dd6s19jtosdh1xbgxho6w70zweza,GbqDxUlg,2020-0188,2020-11-16,18:43:10,19:03:05,NA,incomplete,65,number,0,1,left,Red_Star_Dots_1.jpg,Blue_Plus_Grid_1.jpg,Purple_Star_Stripes_2.jpg,right,609.4150003045797,false,high,NA,NA,NA,NA,NA,NA,NA,false
GbqDxUlg,3r6rzgk0yip7nifkjif6ljfzh4yvyd,39dd6s19jtosdh1xbgxho6w70zweza,GbqDxUlg,2020-0188,2020-11-16,18:43:10,19:03:05,NA,incomplete,66,number,0,1,left,Blue_Plus_Stripes_1.jpg,Purple_Triangle_Dots_1.jpg,Green_Plus_Grid_3.jpg,left,780.7450001128018,true,high,NA,NA,NA,NA,NA,NA,NA,false
GbqDxUlg,3r6rzgk0yip7nifkjif6ljfzh4yvyd,39dd6s19jtosdh1xbgxho6w70zweza,GbqDxUlg,2020-0188,2020-11-16,18:43:10,19:03:05,NA,incomplete,67,number,0,1,right,Green_Triangle_Grid_3.jpg,Red_Triangle_Chess_4.jpg,Purple_Circle_Dots_3.jpg,right,1034.61500024423,true,high,NA,NA,NA,NA,NA,NA,NA,false
GbqDxUlg,3r6rzgk0yip7nifkjif6ljfzh4yvyd,39dd6s19jtosdh1xbgxho6w70zweza,GbqDxUlg,2020-0188,2020-11-16,18:43:10,19:03:05,NA,incomplete,68,number,0,1,left,Blue_Plus_Dots_1.jpg,Green_Star_Chess_1.jpg,Red_Plus_Stripes_2.jpg,left,1135.1199997588992,true,high,NA,NA,NA,NA,NA,NA,NA,false
GbqDxUlg,3r6rzgk0yip7nifkjif6ljfzh4yvyd,39dd6s19jtosdh1xbgxho6w70zweza,GbqDxUlg,2020-0188,2020-11-16,18:43:10,19:03:05,NA,incomplete,69,number,0,1,right,Red_Circle_Stripes_3.jpg,Purple_Circle_Grid_1.jpg,Blue_Star_Chess_3.jpg,right,516.3199999369681,true,high,NA,NA,NA,NA,NA,NA,NA,false
GbqDxUlg,3r6rzgk0yip7nifkjif6ljfzh4yvyd,39dd6s19jtosdh1xbgxho6w70zweza,GbqDxUlg,2020-0188,2020-11-16,18:43:10,19:03:05,NA,incomplete,70,shape,1,1,right,Red_Triangle_Stripes_1.jpg,Blue_Circle_Chess_1.jpg,Green_Triangle_Dots_4.jpg,left,1220.4599999822676,false,high,NA,NA,NA,NA,NA,NA,NA,false
GbqDxUlg,3r6rzgk0yip7nifkjif6ljfzh4yvyd,39dd6s19jtosdh1xbgxho6w70zweza,GbqDxUlg,2020-0188,2020-11-16,18:43:10,19:03:05,NA,incomplete,71,shape,1,1,right,Blue_Star_Grid_1.jpg,Red_Plus_Chess_1.jpg,Purple_Star_Dots_4.jpg,left,903.2449997030199,false,high,NA,NA,NA,NA,NA,NA,NA,false
GbqDxUlg,3r6rzgk0yip7nifkjif6ljfzh4yvyd,39dd6s19jtosdh1xbgxho6w70zweza,GbqDxUlg,2020-0188,2020-11-16,18:43:10,19:03:05,NA,incomplete,72,shape,1,0,right,Green_Star_Dots_1.jpg,Red_Plus_Chess_1.jpg,Blue_Star_Stripes_3.jpg,left,519.5749998092651,false,high,NA,NA,NA,NA,NA,NA,NA,false
GbqDxUlg,3r6rzgk0yip7nifkjif6ljfzh4yvyd,39dd6s19jtosdh1xbgxho6w70zweza,GbqDxUlg,2020-0188,2020-11-16,18:43:10,19:03:05,NA,incomplete,73,shape,1,1,left,Blue_Triangle_Stripes_4.jpg,Purple_Triangle_Grid_3.jpg,Green_Star_Chess_4.jpg,right,711.159999947995,false,high,NA,NA,NA,NA,NA,NA,NA,false
GbqDxUlg,3r6rzgk0yip7nifkjif6ljfzh4yvyd,39dd6s19jtosdh1xbgxho6w70zweza,GbqDxUlg,2020-0188,2020-11-16,18:43:10,19:03:05,NA,incomplete,74,shape,1,0,right,Green_Circle_Stripes_3.jpg,Blue_Star_Dots_3.jpg,Purple_Circle_Grid_4.jpg,right,1383.3500002510846,true,high,NA,NA,NA,NA,NA,NA,NA,false
GbqDxUlg,3r6rzgk0yip7nifkjif6ljfzh4yvyd,39dd6s19jtosdh1xbgxho6w70zweza,GbqDxUlg,2020-0188,2020-11-16,18:43:10,19:03:05,NA,incomplete,75,shape,1,1,right,Green_Plus_Grid_4.jpg,Blue_Triangle_Chess_4.jpg,Red_Plus_Stripes_2.jpg,left,570.9200003184378,false,high,NA,NA,NA,NA,NA,NA,NA,false
GbqDxUlg,3r6rzgk0yip7nifkjif6ljfzh4yvyd,39dd6s19jtosdh1xbgxho6w70zweza,GbqDxUlg,2020-0188,2020-11-16,18:43:10,19:03:05,NA,incomplete,76,shape,1,0,right,Purple_Circle_Chess_2.jpg,Green_Plus_Grid_2.jpg,Red_Circle_Stripes_3.jpg,left,1177.8800003230572,false,high,NA,NA,NA,NA,NA,NA,NA,false
GbqDxUlg,3r6rzgk0yip7nifkjif6ljfzh4yvyd,39dd6s19jtosdh1xbgxho6w70zweza,GbqDxUlg,2020-0188,2020-11-16,18:43:10,19:03:05,NA,incomplete,77,shape,1,1,left,Green_Star_Chess_4.jpg,Blue_Star_Dots_1.jpg,Red_Plus_Stripes_4.jpg,right,534.2400004155934,false,high,NA,NA,NA,NA,NA,NA,NA,false
GbqDxUlg,3r6rzgk0yip7nifkjif6ljfzh4yvyd,39dd6s19jtosdh1xbgxho6w70zweza,GbqDxUlg,2020-0188,2020-11-16,18:43:10,19:03:05,NA,incomplete,78,shape,1,0,right,Blue_Triangle_Grid_3.jpg,Green_Star_Stripes_3.jpg,Red_Triangle_Dots_1.jpg,right,1062.24500015378,true,high,NA,NA,NA,NA,NA,NA,NA,false
GbqDxUlg,3r6rzgk0yip7nifkjif6ljfzh4yvyd,39dd6s19jtosdh1xbgxho6w70zweza,GbqDxUlg,2020-0188,2020-11-16,18:43:10,19:03:05,NA,incomplete,79,shape,1,1,left,Blue_Star_Dots_2.jpg,Red_Star_Chess_1.jpg,Purple_Triangle_Stripes_2.jpg,left,582.9800004139543,true,high,NA,NA,NA,NA,NA,NA,NA,false
GbqDxUlg,3r6rzgk0yip7nifkjif6ljfzh4yvyd,39dd6s19jtosdh1xbgxho6w70zweza,GbqDxUlg,2020-0188,2020-11-16,18:43:10,19:03:05,NA,incomplete,80,number,0,1,right,Purple_Plus_Stripes_1.jpg,Red_Plus_Chess_3.jpg,Green_Triangle_Grid_1.jpg,left,604.5549996197224,false,high,NA,NA,NA,NA,NA,NA,NA,false
GbqDxUlg,3r6rzgk0yip7nifkjif6ljfzh4yvyd,39dd6s19jtosdh1xbgxho6w70zweza,GbqDxUlg,2020-0188,2020-11-16,18:43:10,19:03:05,NA,incomplete,81,number,0,1,right,Green_Triangle_Grid_4.jpg,Purple_Triangle_Dots_2.jpg,Red_Plus_Chess_4.jpg,left,1208.6049998179078,false,high,NA,NA,NA,NA,NA,NA,NA,false
GbqDxUlg,3r6rzgk0yip7nifkjif6ljfzh4yvyd,39dd6s19jtosdh1xbgxho6w70zweza,GbqDxUlg,2020-0188,2020-11-16,18:43:10,19:03:05,NA,incomplete,82,number,0,1,left,Green_Plus_Grid_1.jpg,Purple_Triangle_Chess_1.jpg,Blue_Plus_Dots_2.jpg,left,539.369999896735,true,high,NA,NA,NA,NA,NA,NA,NA,false
GbqDxUlg,3r6rzgk0yip7nifkjif6ljfzh4yvyd,39dd6s19jtosdh1xbgxho6w70zweza,GbqDxUlg,2020-0188,2020-11-16,18:43:10,19:03:05,NA,incomplete,83,number,0,1,right,Green_Plus_Stripes_1.jpg,Blue_Plus_Dots_3.jpg,Purple_Circle_Grid_1.jpg,right,587.2649997472763,true,high,NA,NA,NA,NA,NA,NA,NA,false
GbqDxUlg,3r6rzgk0yip7nifkjif6ljfzh4yvyd,39dd6s19jtosdh1xbgxho6w70zweza,GbqDxUlg,2020-0188,2020-11-16,18:43:10,19:03:05,NA,incomplete,84,number,0,1,left,Red_Star_Dots_4.jpg,Purple_Triangle_Chess_4.jpg,Green_Star_Grid_3.jpg,left,542.2549997456372,true,high,NA,NA,NA,NA,NA,NA,NA,false
GbqDxUlg,3r6rzgk0yip7nifkjif6ljfzh4yvyd,39dd6s19jtosdh1xbgxho6w70zweza,GbqDxUlg,2020-0188,2020-11-16,18:43:10,19:03:05,NA,incomplete,85,number,0,1,right,Purple_Triangle_Stripes_3.jpg,Blue_Triangle_Grid_2.jpg,Red_Star_Chess_3.jpg,left,511.1549999564886,false,high,NA,NA,NA,NA,NA,NA,NA,false
GbqDxUlg,3r6rzgk0yip7nifkjif6ljfzh4yvyd,39dd6s19jtosdh1xbgxho6w70zweza,GbqDxUlg,2020-0188,2020-11-16,18:43:10,19:03:05,NA,incomplete,86,number,0,1,left,Purple_Plus_Stripes_3.jpg,Blue_Triangle_Grid_3.jpg,Green_Plus_Dots_2.jpg,left,750.0449996441603,true,high,NA,NA,NA,NA,NA,NA,NA,false
GbqDxUlg,3r6rzgk0yip7nifkjif6ljfzh4yvyd,39dd6s19jtosdh1xbgxho6w70zweza,GbqDxUlg,2020-0188,2020-11-16,18:43:10,19:03:05,NA,incomplete,87,number,0,1,left,Blue_Circle_Grid_3.jpg,Green_Triangle_Dots_3.jpg,Red_Circle_Stripes_1.jpg,left,468.65499997511506,true,high,NA,NA,NA,NA,NA,NA,NA,false
GbqDxUlg,3r6rzgk0yip7nifkjif6ljfzh4yvyd,39dd6s19jtosdh1xbgxho6w70zweza,GbqDxUlg,2020-0188,2020-11-16,18:43:10,19:03:05,NA,incomplete,88,number,0,1,left,Red_Circle_Dots_2.jpg,Blue_Triangle_Stripes_2.jpg,Purple_Circle_Grid_1.jpg,left,654.0749999694526,true,high,NA,NA,NA,NA,NA,NA,NA,false
GbqDxUlg,3r6rzgk0yip7nifkjif6ljfzh4yvyd,39dd6s19jtosdh1xbgxho6w70zweza,GbqDxUlg,2020-0188,2020-11-16,18:43:10,19:03:05,NA,incomplete,89,number,0,1,left,Purple_Star_Stripes_1.jpg,Blue_Triangle_Grid_1.jpg,Green_Star_Dots_2.jpg,left,528.0849998816848,true,high,NA,NA,NA,NA,NA,NA,NA,false
GbqDxUlg,3r6rzgk0yip7nifkjif6ljfzh4yvyd,39dd6s19jtosdh1xbgxho6w70zweza,GbqDxUlg,2020-0188,2020-11-16,18:43:10,19:03:05,NA,incomplete,90,shape,1,1,left,Green_Star_Stripes_2.jpg,Purple_Star_Grid_1.jpg,Blue_Circle_Chess_2.jpg,right,431.16999976336956,false,high,NA,NA,NA,NA,NA,NA,NA,false
GbqDxUlg,3r6rzgk0yip7nifkjif6ljfzh4yvyd,39dd6s19jtosdh1xbgxho6w70zweza,GbqDxUlg,2020-0188,2020-11-16,18:43:10,19:03:05,NA,incomplete,91,shape,1,1,right,Blue_Triangle_Stripes_3.jpg,Purple_Plus_Grid_3.jpg,Red_Triangle_Chess_2.jpg,left,482.6400000602007,false,high,NA,NA,NA,NA,NA,NA,NA,false
GbqDxUlg,3r6rzgk0yip7nifkjif6ljfzh4yvyd,39dd6s19jtosdh1xbgxho6w70zweza,GbqDxUlg,2020-0188,2020-11-16,18:43:10,19:03:05,NA,incomplete,92,shape,1,1,left,Green_Triangle_Grid_3.jpg,Red_Triangle_Stripes_4.jpg,Blue_Circle_Dots_3.jpg,right,642.5999999046326,false,high,NA,NA,NA,NA,NA,NA,NA,false
GbqDxUlg,3r6rzgk0yip7nifkjif6ljfzh4yvyd,39dd6s19jtosdh1xbgxho6w70zweza,GbqDxUlg,2020-0188,2020-11-16,18:43:10,19:03:05,NA,incomplete,93,shape,1,0,left,Green_Circle_Stripes_1.jpg,Red_Circle_Chess_3.jpg,Blue_Star_Grid_1.jpg,right,574.919999577105,false,high,NA,NA,NA,NA,NA,NA,NA,false
GbqDxUlg,3r6rzgk0yip7nifkjif6ljfzh4yvyd,39dd6s19jtosdh1xbgxho6w70zweza,GbqDxUlg,2020-0188,2020-11-16,18:43:10,19:03:05,NA,incomplete,94,shape,1,0,left,Red_Plus_Grid_4.jpg,Purple_Plus_Chess_1.jpg,Green_Circle_Dots_4.jpg,right,555.5249997414649,false,high,NA,NA,NA,NA,NA,NA,NA,false
GbqDxUlg,3r6rzgk0yip7nifkjif6ljfzh4yvyd,39dd6s19jtosdh1xbgxho6w70zweza,GbqDxUlg,2020-0188,2020-11-16,18:43:10,19:03:05,NA,incomplete,95,shape,1,1,left,Purple_Triangle_Stripes_1.jpg,Blue_Triangle_Dots_4.jpg,Green_Circle_Chess_1.jpg,right,544.2449999973178,false,high,NA,NA,NA,NA,NA,NA,NA,false
GbqDxUlg,3r6rzgk0yip7nifkjif6ljfzh4yvyd,39dd6s19jtosdh1xbgxho6w70zweza,GbqDxUlg,2020-0188,2020-11-16,18:43:10,19:03:05,NA,incomplete,96,shape,1,1,right,Red_Circle_Grid_1.jpg,Green_Star_Dots_1.jpg,Purple_Circle_Chess_4.jpg,left,519.7499999776483,false,high,NA,NA,NA,NA,NA,NA,NA,false
GbqDxUlg,3r6rzgk0yip7nifkjif6ljfzh4yvyd,39dd6s19jtosdh1xbgxho6w70zweza,GbqDxUlg,2020-0188,2020-11-16,18:43:10,19:03:05,NA,incomplete,97,shape,1,1,left,Purple_Plus_Stripes_3.jpg,Blue_Plus_Dots_2.jpg,Green_Star_Chess_3.jpg,left,799.1399997845292,true,high,NA,NA,NA,NA,NA,NA,NA,false
GbqDxUlg,3r6rzgk0yip7nifkjif6ljfzh4yvyd,39dd6s19jtosdh1xbgxho6w70zweza,GbqDxUlg,2020-0188,2020-11-16,18:43:10,19:03:05,NA,incomplete,98,shape,1,1,right,Green_Plus_Grid_4.jpg,Purple_Star_Stripes_4.jpg,Red_Plus_Dots_2.jpg,right,683.6549998261034,true,high,NA,NA,NA,NA,NA,NA,NA,false
GbqDxUlg,3r6rzgk0yip7nifkjif6ljfzh4yvyd,39dd6s19jtosdh1xbgxho6w70zweza,GbqDxUlg,2020-0188,2020-11-16,18:43:10,19:03:05,NA,incomplete,99,shape,1,1,left,Green_Circle_Chess_3.jpg,Purple_Circle_Grid_1.jpg,Red_Star_Dots_3.jpg,left,563.3149999193847,true,high,NA,NA,NA,NA,NA,NA,NA,false
GbqDxUlg,3r6rzgk0yip7nifkjif6ljfzh4yvyd,39dd6s19jtosdh1xbgxho6w70zweza,GbqDxUlg,2020-0188,2020-11-16,18:43:10,19:03:05,NA,incomplete,100,number,0,1,left,Green_Star_Grid_2.jpg,Blue_Triangle_Stripes_2.jpg,Red_Star_Dots_3.jpg,right,571.2700001895428,false,high,NA,NA,NA,NA,NA,NA,NA,false
GbqDxUlg,3r6rzgk0yip7nifkjif6ljfzh4yvyd,39dd6s19jtosdh1xbgxho6w70zweza,GbqDxUlg,2020-0188,2020-11-16,18:43:10,19:03:05,NA,incomplete,101,number,0,1,left,Purple_Circle_Stripes_1.jpg,Blue_Star_Chess_1.jpg,Green_Circle_Dots_2.jpg,right,567.9399999789894,false,high,NA,NA,NA,NA,NA,NA,NA,false
GbqDxUlg,3r6rzgk0yip7nifkjif6ljfzh4yvyd,39dd6s19jtosdh1xbgxho6w70zweza,GbqDxUlg,2020-0188,2020-11-16,18:43:10,19:03:05,NA,incomplete,102,number,0,1,right,Green_Triangle_Stripes_4.jpg,Purple_Triangle_Dots_3.jpg,Red_Plus_Chess_4.jpg,right,661.4950001239777,true,high,NA,NA,NA,NA,NA,NA,NA,false
GbqDxUlg,3r6rzgk0yip7nifkjif6ljfzh4yvyd,39dd6s19jtosdh1xbgxho6w70zweza,GbqDxUlg,2020-0188,2020-11-16,18:43:10,19:03:05,NA,incomplete,103,number,0,1,right,Red_Star_Stripes_4.jpg,Green_Star_Dots_3.jpg,Purple_Plus_Chess_4.jpg,right,640.3250000439584,true,high,NA,NA,NA,NA,NA,NA,NA,false
GbqDxUlg,3r6rzgk0yip7nifkjif6ljfzh4yvyd,39dd6s19jtosdh1xbgxho6w70zweza,GbqDxUlg,2020-0188,2020-11-16,18:43:10,19:03:05,NA,incomplete,104,number,0,1,right,Purple_Star_Chess_3.jpg,Green_Star_Dots_2.jpg,Blue_Circle_Grid_3.jpg,right,865.6349997036159,true,high,NA,NA,NA,NA,NA,NA,NA,false
GbqDxUlg,3r6rzgk0yip7nifkjif6ljfzh4yvyd,39dd6s19jtosdh1xbgxho6w70zweza,GbqDxUlg,2020-0188,2020-11-16,18:43:10,19:03:05,NA,incomplete,105,number,0,1,left,Blue_Plus_Dots_4.jpg,Purple_Triangle_Stripes_4.jpg,Green_Plus_Chess_3.jpg,left,540.0100001133978,true,high,NA,NA,NA,NA,NA,NA,NA,false
GbqDxUlg,3r6rzgk0yip7nifkjif6ljfzh4yvyd,39dd6s19jtosdh1xbgxho6w70zweza,GbqDxUlg,2020-0188,2020-11-16,18:43:10,19:03:05,NA,incomplete,106,number,0,1,left,Blue_Triangle_Grid_2.jpg,Purple_Circle_Dots_2.jpg,Green_Triangle_Chess_1.jpg,left,890.8549998886883,true,high,NA,NA,NA,NA,NA,NA,NA,false
GbqDxUlg,3r6rzgk0yip7nifkjif6ljfzh4yvyd,39dd6s19jtosdh1xbgxho6w70zweza,GbqDxUlg,2020-0188,2020-11-16,18:43:10,19:03:05,NA,incomplete,107,number,0,1,right,Green_Star_Grid_3.jpg,Red_Star_Chess_2.jpg,Blue_Plus_Dots_3.jpg,right,610.8300001360476,true,high,NA,NA,NA,NA,NA,NA,NA,false
GbqDxUlg,3r6rzgk0yip7nifkjif6ljfzh4yvyd,39dd6s19jtosdh1xbgxho6w70zweza,GbqDxUlg,2020-0188,2020-11-16,18:43:10,19:03:05,NA,incomplete,108,number,0,1,right,Green_Triangle_Grid_2.jpg,Red_Triangle_Dots_4.jpg,Blue_Circle_Chess_2.jpg,right,1127.3350003175437,true,high,NA,NA,NA,NA,NA,NA,NA,false
GbqDxUlg,3r6rzgk0yip7nifkjif6ljfzh4yvyd,39dd6s19jtosdh1xbgxho6w70zweza,GbqDxUlg,2020-0188,2020-11-16,18:43:10,19:03:05,NA,incomplete,109,number,0,1,right,Red_Star_Stripes_1.jpg,Blue_Star_Grid_2.jpg,Purple_Plus_Dots_1.jpg,right,1061.8750001303852,true,high,NA,NA,NA,NA,NA,NA,NA,false
GbqDxUlg,3r6rzgk0yip7nifkjif6ljfzh4yvyd,39dd6s19jtosdh1xbgxho6w70zweza,GbqDxUlg,2020-0188,2020-11-16,18:43:10,19:03:05,NA,incomplete,110,shape,1,1,right,Blue_Plus_Stripes_2.jpg,Red_Triangle_Dots_2.jpg,Green_Plus_Grid_4.jpg,left,608.1400001421571,false,high,NA,NA,NA,NA,NA,NA,NA,false
GbqDxUlg,3r6rzgk0yip7nifkjif6ljfzh4yvyd,39dd6s19jtosdh1xbgxho6w70zweza,GbqDxUlg,2020-0188,2020-11-16,18:43:10,19:03:05,NA,incomplete,111,shape,1,0,left,Green_Triangle_Dots_1.jpg,Red_Triangle_Grid_2.jpg,Purple_Star_Stripes_1.jpg,right,612.104999832809,false,high,NA,NA,NA,NA,NA,NA,NA,false
GbqDxUlg,3r6rzgk0yip7nifkjif6ljfzh4yvyd,39dd6s19jtosdh1xbgxho6w70zweza,GbqDxUlg,2020-0188,2020-11-16,18:43:10,19:03:05,NA,incomplete,112,shape,1,0,left,Purple_Plus_Chess_2.jpg,Red_Plus_Stripes_1.jpg,Blue_Triangle_Grid_2.jpg,right,551.3550001196563,false,high,NA,NA,NA,NA,NA,NA,NA,false
GbqDxUlg,3r6rzgk0yip7nifkjif6ljfzh4yvyd,39dd6s19jtosdh1xbgxho6w70zweza,GbqDxUlg,2020-0188,2020-11-16,18:43:10,19:03:05,NA,incomplete,113,shape,1,1,left,Blue_Circle_Dots_1.jpg,Red_Circle_Stripes_3.jpg,Green_Plus_Grid_1.jpg,left,503.16999992355704,true,high,NA,NA,NA,NA,NA,NA,NA,false
GbqDxUlg,3r6rzgk0yip7nifkjif6ljfzh4yvyd,39dd6s19jtosdh1xbgxho6w70zweza,GbqDxUlg,2020-0188,2020-11-16,18:43:10,19:03:05,NA,incomplete,114,shape,1,1,right,Red_Triangle_Stripes_4.jpg,Blue_Star_Dots_4.jpg,Purple_Triangle_Chess_2.jpg,left,590.8449999988079,false,high,NA,NA,NA,NA,NA,NA,NA,false
GbqDxUlg,3r6rzgk0yip7nifkjif6ljfzh4yvyd,39dd6s19jtosdh1xbgxho6w70zweza,GbqDxUlg,2020-0188,2020-11-16,18:43:10,19:03:05,NA,incomplete,115,shape,1,0,left,Purple_Star_Grid_3.jpg,Green_Star_Dots_4.jpg,Red_Triangle_Chess_3.jpg,right,778.2699996605515,false,high,NA,NA,NA,NA,NA,NA,NA,false
GbqDxUlg,3r6rzgk0yip7nifkjif6ljfzh4yvyd,39dd6s19jtosdh1xbgxho6w70zweza,GbqDxUlg,2020-0188,2020-11-16,18:43:10,19:03:05,NA,incomplete,116,shape,1,1,left,Green_Triangle_Chess_3.jpg,Red_Triangle_Grid_2.jpg,Purple_Plus_Dots_3.jpg,right,695.9700002335012,false,high,NA,NA,NA,NA,NA,NA,NA,false
GbqDxUlg,3r6rzgk0yip7nifkjif6ljfzh4yvyd,39dd6s19jtosdh1xbgxho6w70zweza,GbqDxUlg,2020-0188,2020-11-16,18:43:10,19:03:05,NA,incomplete,117,shape,1,1,left,Green_Circle_Stripes_1.jpg,Red_Circle_Chess_4.jpg,Purple_Triangle_Grid_1.jpg,right,577.1449999883771,false,high,NA,NA,NA,NA,NA,NA,NA,false
GbqDxUlg,3r6rzgk0yip7nifkjif6ljfzh4yvyd,39dd6s19jtosdh1xbgxho6w70zweza,GbqDxUlg,2020-0188,2020-11-16,18:43:10,19:03:05,NA,incomplete,118,shape,1,1,right,Green_Star_Dots_1.jpg,Red_Plus_Stripes_1.jpg,Purple_Star_Chess_2.jpg,right,734.9600000306964,true,high,NA,NA,NA,NA,NA,NA,NA,false
GbqDxUlg,3r6rzgk0yip7nifkjif6ljfzh4yvyd,39dd6s19jtosdh1xbgxho6w70zweza,GbqDxUlg,2020-0188,2020-11-16,18:43:10,19:03:05,NA,incomplete,119,shape,1,0,left,Red_Plus_Stripes_3.jpg,Green_Plus_Chess_4.jpg,Purple_Triangle_Grid_3.jpg,left,748.775000218302,true,high,NA,NA,NA,NA,NA,NA,NA,false
GbqDxUlg,3r6rzgk0yip7nifkjif6ljfzh4yvyd,39dd6s19jtosdh1xbgxho6w70zweza,GbqDxUlg,2020-0188,2020-11-16,18:43:10,19:03:05,NA,incomplete,120,race,2,0,left,C_M_07.jpg,C_F_15.jpg,A_M_02.jpg,NA,NA,NA,high,NA,NA,NA,NA,NA,NA,NA,false
GbqDxUlg,3r6rzgk0yip7nifkjif6ljfzh4yvyd,39dd6s19jtosdh1xbgxho6w70zweza,GbqDxUlg,2020-0188,2020-11-16,18:43:10,19:03:05,NA,incomplete,121,race,2,1,left,C_M_08.jpg,C_F_06.jpg,A_M_03.jpg,none,0,false,high,NA,NA,NA,NA,NA,NA,NA,false
GbqDxUlg,3r6rzgk0yip7nifkjif6ljfzh4yvyd,39dd6s19jtosdh1xbgxho6w70zweza,GbqDxUlg,2020-0188,2020-11-16,18:43:10,19:03:05,NA,incomplete,122,race,2,0,right,C_F_09.jpg,A_F_10.jpg,C_M_08.jpg,left,1111.5149999968708,false,high,NA,NA,NA,NA,NA,NA,NA,false
GbqDxUlg,3r6rzgk0yip7nifkjif6ljfzh4yvyd,39dd6s19jtosdh1xbgxho6w70zweza,GbqDxUlg,2020-0188,2020-11-16,18:43:10,19:03:05,NA,incomplete,123,race,2,1,left,C_F_11.jpg,C_M_01.jpg,A_F_08.jpg,right,1079.9449998885393,false,high,NA,NA,NA,NA,NA,NA,NA,false
GbqDxUlg,3r6rzgk0yip7nifkjif6ljfzh4yvyd,39dd6s19jtosdh1xbgxho6w70zweza,GbqDxUlg,2020-0188,2020-11-16,18:43:10,19:03:05,NA,incomplete,124,race,2,1,right,A_F_13.jpg,C_F_14.jpg,A_M_16.jpg,left,993.1850000284612,false,high,NA,NA,NA,NA,NA,NA,NA,false
GbqDxUlg,3r6rzgk0yip7nifkjif6ljfzh4yvyd,39dd6s19jtosdh1xbgxho6w70zweza,GbqDxUlg,2020-0188,2020-11-16,18:43:10,19:03:05,NA,incomplete,125,race,2,1,left,C_F_14.jpg,C_M_11.jpg,A_F_05.jpg,left,965.374999679625,true,high,NA,NA,NA,NA,NA,NA,NA,false
GbqDxUlg,3r6rzgk0yip7nifkjif6ljfzh4yvyd,39dd6s19jtosdh1xbgxho6w70zweza,GbqDxUlg,2020-0188,2020-11-16,18:43:10,19:03:05,NA,incomplete,126,race,2,1,right,A_F_15.jpg,C_F_03.jpg,A_M_16.jpg,right,874.6949997730553,true,high,NA,NA,NA,NA,NA,NA,NA,false
GbqDxUlg,3r6rzgk0yip7nifkjif6ljfzh4yvyd,39dd6s19jtosdh1xbgxho6w70zweza,GbqDxUlg,2020-0188,2020-11-16,18:43:10,19:03:05,NA,incomplete,127,race,2,1,right,A_F_13.jpg,C_F_02.jpg,A_M_11.jpg,right,795.6100003793836,true,high,NA,NA,NA,NA,NA,NA,NA,false
GbqDxUlg,3r6rzgk0yip7nifkjif6ljfzh4yvyd,39dd6s19jtosdh1xbgxho6w70zweza,GbqDxUlg,2020-0188,2020-11-16,18:43:10,19:03:05,NA,incomplete,128,race,2,0,right,A_F_16.jpg,C_F_14.jpg,A_M_10.jpg,right,745.6149999052286,true,high,NA,NA,NA,NA,NA,NA,NA,false
GbqDxUlg,3r6rzgk0yip7nifkjif6ljfzh4yvyd,39dd6s19jtosdh1xbgxho6w70zweza,GbqDxUlg,2020-0188,2020-11-16,18:43:10,19:03:05,NA,incomplete,129,race,2,1,right,C_F_06.jpg,A_F_13.jpg,C_M_05.jpg,right,864.2549999058247,true,high,NA,NA,NA,NA,NA,NA,NA,false
GbqDxUlg,3r6rzgk0yip7nifkjif6ljfzh4yvyd,39dd6s19jtosdh1xbgxho6w70zweza,GbqDxUlg,2020-0188,2020-11-16,18:43:10,19:03:05,NA,incomplete,130,race,2,1,left,A_F_02.jpg,A_M_06.jpg,C_F_13.jpg,left,730.3949999623001,true,high,NA,NA,NA,NA,NA,NA,NA,false
GbqDxUlg,3r6rzgk0yip7nifkjif6ljfzh4yvyd,39dd6s19jtosdh1xbgxho6w70zweza,GbqDxUlg,2020-0188,2020-11-16,18:43:10,19:03:05,NA,incomplete,131,race,2,1,left,C_M_08.jpg,C_F_03.jpg,A_M_13.jpg,left,681.1150000430644,true,high,NA,NA,NA,NA,NA,NA,NA,false
GbqDxUlg,3r6rzgk0yip7nifkjif6ljfzh4yvyd,39dd6s19jtosdh1xbgxho6w70zweza,GbqDxUlg,2020-0188,2020-11-16,18:43:10,19:03:05,NA,incomplete,132,race,2,0,left,A_F_12.jpg,A_M_04.jpg,C_F_07.jpg,left,825.5500001832843,true,high,NA,NA,NA,NA,NA,NA,NA,false
GbqDxUlg,3r6rzgk0yip7nifkjif6ljfzh4yvyd,39dd6s19jtosdh1xbgxho6w70zweza,GbqDxUlg,2020-0188,2020-11-16,18:43:10,19:03:05,NA,incomplete,133,race,2,1,left,A_F_12.jpg,A_M_10.jpg,C_F_04.jpg,left,830.3149999119341,true,high,NA,NA,NA,NA,NA,NA,NA,false
GbqDxUlg,3r6rzgk0yip7nifkjif6ljfzh4yvyd,39dd6s19jtosdh1xbgxho6w70zweza,GbqDxUlg,2020-0188,2020-11-16,18:43:10,19:03:05,NA,incomplete,134,race,2,0,left,A_M_09.jpg,A_F_15.jpg,C_M_06.jpg,left,1121.199999935925,true,high,NA,NA,NA,NA,NA,NA,NA,false
GbqDxUlg,3r6rzgk0yip7nifkjif6ljfzh4yvyd,39dd6s19jtosdh1xbgxho6w70zweza,GbqDxUlg,2020-0188,2020-11-16,18:43:10,19:03:05,NA,incomplete,135,race,2,1,right,C_F_07.jpg,A_F_09.jpg,C_M_15.jpg,right,920.1000002212822,true,high,NA,NA,NA,NA,NA,NA,NA,false
GbqDxUlg,3r6rzgk0yip7nifkjif6ljfzh4yvyd,39dd6s19jtosdh1xbgxho6w70zweza,GbqDxUlg,2020-0188,2020-11-16,18:43:10,19:03:05,NA,incomplete,136,race,2,1,left,A_F_07.jpg,A_M_12.jpg,C_F_09.jpg,left,951.874999795109,true,high,NA,NA,NA,NA,NA,NA,NA,false
GbqDxUlg,3r6rzgk0yip7nifkjif6ljfzh4yvyd,39dd6s19jtosdh1xbgxho6w70zweza,GbqDxUlg,2020-0188,2020-11-16,18:43:10,19:03:05,NA,incomplete,137,race,2,1,left,C_F_08.jpg,C_M_12.jpg,A_F_04.jpg,left,717.1749998815358,true,high,NA,NA,NA,NA,NA,NA,NA,false
GbqDxUlg,3r6rzgk0yip7nifkjif6ljfzh4yvyd,39dd6s19jtosdh1xbgxho6w70zweza,GbqDxUlg,2020-0188,2020-11-16,18:43:10,19:03:05,NA,incomplete,138,race,2,1,left,A_M_16.jpg,A_F_14.jpg,C_M_07.jpg,left,837.9849996417761,true,high,NA,NA,NA,NA,NA,NA,NA,false
GbqDxUlg,3r6rzgk0yip7nifkjif6ljfzh4yvyd,39dd6s19jtosdh1xbgxho6w70zweza,GbqDxUlg,2020-0188,2020-11-16,18:43:10,19:03:05,NA,incomplete,139,race,2,1,right,C_F_13.jpg,A_F_16.jpg,C_M_11.jpg,right,775.5100000649691,true,high,NA,NA,NA,NA,NA,NA,NA,false
GbqDxUlg,3r6rzgk0yip7nifkjif6ljfzh4yvyd,39dd6s19jtosdh1xbgxho6w70zweza,GbqDxUlg,2020-0188,2020-11-16,18:43:10,19:03:05,NA,incomplete,140,gender,3,1,right,A_F_06.jpg,A_M_13.jpg,C_F_16.jpg,left,748.6199997365475,false,high,NA,NA,NA,NA,NA,NA,NA,false
GbqDxUlg,3r6rzgk0yip7nifkjif6ljfzh4yvyd,39dd6s19jtosdh1xbgxho6w70zweza,GbqDxUlg,2020-0188,2020-11-16,18:43:10,19:03:05,NA,incomplete,141,gender,3,1,right,C_M_09.jpg,C_F_12.jpg,A_M_08.jpg,left,1156.0600004158914,false,high,NA,NA,NA,NA,NA,NA,NA,false
GbqDxUlg,3r6rzgk0yip7nifkjif6ljfzh4yvyd,39dd6s19jtosdh1xbgxho6w70zweza,GbqDxUlg,2020-0188,2020-11-16,18:43:10,19:03:05,NA,incomplete,142,gender,3,0,left,C_F_14.jpg,A_F_10.jpg,C_M_05.jpg,left,800.8300000801682,true,high,NA,NA,NA,NA,NA,NA,NA,false
GbqDxUlg,3r6rzgk0yip7nifkjif6ljfzh4yvyd,39dd6s19jtosdh1xbgxho6w70zweza,GbqDxUlg,2020-0188,2020-11-16,18:43:10,19:03:05,NA,incomplete,143,gender,3,1,left,C_F_06.jpg,A_F_16.jpg,C_M_11.jpg,right,885.2300001308322,false,high,NA,NA,NA,NA,NA,NA,NA,false
GbqDxUlg,3r6rzgk0yip7nifkjif6ljfzh4yvyd,39dd6s19jtosdh1xbgxho6w70zweza,GbqDxUlg,2020-0188,2020-11-16,18:43:10,19:03:05,NA,incomplete,144,gender,3,0,left,C_M_13.jpg,A_M_08.jpg,C_F_09.jpg,right,805.970000103116,false,high,NA,NA,NA,NA,NA,NA,NA,false
GbqDxUlg,3r6rzgk0yip7nifkjif6ljfzh4yvyd,39dd6s19jtosdh1xbgxho6w70zweza,GbqDxUlg,2020-0188,2020-11-16,18:43:10,19:03:05,NA,incomplete,145,gender,3,1,right,A_F_02.jpg,A_M_01.jpg,C_F_16.jpg,left,738.0599998869002,false,high,NA,NA,NA,NA,NA,NA,NA,false
GbqDxUlg,3r6rzgk0yip7nifkjif6ljfzh4yvyd,39dd6s19jtosdh1xbgxho6w70zweza,GbqDxUlg,2020-0188,2020-11-16,18:43:10,19:03:05,NA,incomplete,146,gender,3,1,left,A_F_14.jpg,C_F_10.jpg,A_M_16.jpg,right,704.5950000174344,false,high,NA,NA,NA,NA,NA,NA,NA,false
GbqDxUlg,3r6rzgk0yip7nifkjif6ljfzh4yvyd,39dd6s19jtosdh1xbgxho6w70zweza,GbqDxUlg,2020-0188,2020-11-16,18:43:10,19:03:05,NA,incomplete,147,gender,3,1,right,C_F_16.jpg,C_M_10.jpg,A_F_06.jpg,right,800.675000064075,true,high,NA,NA,NA,NA,NA,NA,NA,false
GbqDxUlg,3r6rzgk0yip7nifkjif6ljfzh4yvyd,39dd6s19jtosdh1xbgxho6w70zweza,GbqDxUlg,2020-0188,2020-11-16,18:43:10,19:03:05,NA,incomplete,148,gender,3,1,left,A_F_10.jpg,C_F_01.jpg,A_M_06.jpg,left,932.8199997544289,true,high,NA,NA,NA,NA,NA,NA,NA,false
GbqDxUlg,3r6rzgk0yip7nifkjif6ljfzh4yvyd,39dd6s19jtosdh1xbgxho6w70zweza,GbqDxUlg,2020-0188,2020-11-16,18:43:10,19:03:05,NA,incomplete,149,gender,3,1,left,A_M_09.jpg,C_M_16.jpg,A_F_08.jpg,left,643.6950000934303,true,high,NA,NA,NA,NA,NA,NA,NA,false
GbqDxUlg,3r6rzgk0yip7nifkjif6ljfzh4yvyd,39dd6s19jtosdh1xbgxho6w70zweza,GbqDxUlg,2020-0188,2020-11-16,18:43:10,19:03:05,NA,incomplete,150,gender,3,1,left,A_M_06.jpg,C_M_03.jpg,A_F_08.jpg,left,718.7250000424683,true,high,NA,NA,NA,NA,NA,NA,NA,false
GbqDxUlg,3r6rzgk0yip7nifkjif6ljfzh4yvyd,39dd6s19jtosdh1xbgxho6w70zweza,GbqDxUlg,2020-0188,2020-11-16,18:43:10,19:03:05,NA,incomplete,151,gender,3,1,right,C_F_07.jpg,C_M_10.jpg,A_F_11.jpg,right,829.5849999412894,true,high,NA,NA,NA,NA,NA,NA,NA,false
GbqDxUlg,3r6rzgk0yip7nifkjif6ljfzh4yvyd,39dd6s19jtosdh1xbgxho6w70zweza,GbqDxUlg,2020-0188,2020-11-16,18:43:10,19:03:05,NA,incomplete,152,gender,3,0,left,A_M_13.jpg,C_M_16.jpg,A_F_05.jpg,left,1392.7549999207258,true,high,NA,NA,NA,NA,NA,NA,NA,false
GbqDxUlg,3r6rzgk0yip7nifkjif6ljfzh4yvyd,39dd6s19jtosdh1xbgxho6w70zweza,GbqDxUlg,2020-0188,2020-11-16,18:43:10,19:03:05,NA,incomplete,153,gender,3,1,right,C_F_03.jpg,C_M_10.jpg,A_F_07.jpg,right,988.7149999849498,true,high,NA,NA,NA,NA,NA,NA,NA,false
GbqDxUlg,3r6rzgk0yip7nifkjif6ljfzh4yvyd,39dd6s19jtosdh1xbgxho6w70zweza,GbqDxUlg,2020-0188,2020-11-16,18:43:10,19:03:05,NA,incomplete,154,gender,3,1,right,A_F_02.jpg,A_M_10.jpg,C_F_06.jpg,right,626.4450000599027,true,high,NA,NA,NA,NA,NA,NA,NA,false
GbqDxUlg,3r6rzgk0yip7nifkjif6ljfzh4yvyd,39dd6s19jtosdh1xbgxho6w70zweza,GbqDxUlg,2020-0188,2020-11-16,18:43:10,19:03:05,NA,incomplete,155,gender,3,1,left,A_F_15.jpg,C_F_16.jpg,A_M_11.jpg,left,534.1250002384186,true,high,NA,NA,NA,NA,NA,NA,NA,false
GbqDxUlg,3r6rzgk0yip7nifkjif6ljfzh4yvyd,39dd6s19jtosdh1xbgxho6w70zweza,GbqDxUlg,2020-0188,2020-11-16,18:43:10,19:03:05,NA,incomplete,156,gender,3,0,right,A_F_15.jpg,A_M_13.jpg,C_F_12.jpg,right,604.1100001893938,true,high,NA,NA,NA,NA,NA,NA,NA,false
GbqDxUlg,3r6rzgk0yip7nifkjif6ljfzh4yvyd,39dd6s19jtosdh1xbgxho6w70zweza,GbqDxUlg,2020-0188,2020-11-16,18:43:10,19:03:05,NA,incomplete,157,gender,3,1,left,C_F_15.jpg,A_F_08.jpg,C_M_05.jpg,left,616.090000141412,true,high,NA,NA,NA,NA,NA,NA,NA,false
GbqDxUlg,3r6rzgk0yip7nifkjif6ljfzh4yvyd,39dd6s19jtosdh1xbgxho6w70zweza,GbqDxUlg,2020-0188,2020-11-16,18:43:10,19:03:05,NA,incomplete,158,gender,3,0,right,C_F_09.jpg,C_M_14.jpg,A_F_15.jpg,right,604.520000051707,true,high,NA,NA,NA,NA,NA,NA,NA,false
GbqDxUlg,3r6rzgk0yip7nifkjif6ljfzh4yvyd,39dd6s19jtosdh1xbgxho6w70zweza,GbqDxUlg,2020-0188,2020-11-16,18:43:10,19:03:05,NA,incomplete,159,gender,3,1,right,C_M_12.jpg,C_F_02.jpg,A_M_01.jpg,left,887.4349999241531,false,high,NA,NA,NA,NA,NA,NA,NA,false
GbqDxUlg,3r6rzgk0yip7nifkjif6ljfzh4yvyd,39dd6s19jtosdh1xbgxho6w70zweza,GbqDxUlg,2020-0188,2020-11-16,18:43:10,19:03:05,NA,incomplete,160,race,2,1,right,A_F_15.jpg,C_F_07.jpg,A_M_12.jpg,left,632.9250000417233,false,high,NA,NA,NA,NA,NA,NA,NA,false
GbqDxUlg,3r6rzgk0yip7nifkjif6ljfzh4yvyd,39dd6s19jtosdh1xbgxho6w70zweza,GbqDxUlg,2020-0188,2020-11-16,18:43:10,19:03:05,NA,incomplete,161,race,2,1,left,A_M_15.jpg,A_F_04.jpg,C_M_16.jpg,left,987.6649999059737,true,high,NA,NA,NA,NA,NA,NA,NA,false
GbqDxUlg,3r6rzgk0yip7nifkjif6ljfzh4yvyd,39dd6s19jtosdh1xbgxho6w70zweza,GbqDxUlg,2020-0188,2020-11-16,18:43:10,19:03:05,NA,incomplete,162,race,2,0,left,A_M_12.jpg,A_F_03.jpg,C_M_08.jpg,left,752.9000001959503,true,high,NA,NA,NA,NA,NA,NA,NA,false
GbqDxUlg,3r6rzgk0yip7nifkjif6ljfzh4yvyd,39dd6s19jtosdh1xbgxho6w70zweza,GbqDxUlg,2020-0188,2020-11-16,18:43:10,19:03:05,NA,incomplete,163,race,2,1,right,A_M_08.jpg,C_M_12.jpg,A_F_13.jpg,right,783.1549998372793,true,high,NA,NA,NA,NA,NA,NA,NA,false
GbqDxUlg,3r6rzgk0yip7nifkjif6ljfzh4yvyd,39dd6s19jtosdh1xbgxho6w70zweza,GbqDxUlg,2020-0188,2020-11-16,18:43:10,19:03:05,NA,incomplete,164,race,2,1,right,A_F_02.jpg,C_F_13.jpg,A_M_14.jpg,right,732.5499998405576,true,high,NA,NA,NA,NA,NA,NA,NA,false
GbqDxUlg,3r6rzgk0yip7nifkjif6ljfzh4yvyd,39dd6s19jtosdh1xbgxho6w70zweza,GbqDxUlg,2020-0188,2020-11-16,18:43:10,19:03:05,NA,incomplete,165,race,2,1,left,C_F_06.jpg,C_M_16.jpg,A_F_02.jpg,right,1554.8749999143183,false,high,NA,NA,NA,NA,NA,NA,NA,false
GbqDxUlg,3r6rzgk0yip7nifkjif6ljfzh4yvyd,39dd6s19jtosdh1xbgxho6w70zweza,GbqDxUlg,2020-0188,2020-11-16,18:43:10,19:03:05,NA,incomplete,166,race,2,1,right,A_F_06.jpg,C_F_11.jpg,A_M_10.jpg,right,1881.4300000667572,true,high,NA,NA,NA,NA,NA,NA,NA,false
GbqDxUlg,3r6rzgk0yip7nifkjif6ljfzh4yvyd,39dd6s19jtosdh1xbgxho6w70zweza,GbqDxUlg,2020-0188,2020-11-16,18:43:10,19:03:05,NA,incomplete,167,race,2,1,right,C_F_15.jpg,A_F_10.jpg,C_M_05.jpg,right,1067.0699998736382,true,high,NA,NA,NA,NA,NA,NA,NA,false
GbqDxUlg,3r6rzgk0yip7nifkjif6ljfzh4yvyd,39dd6s19jtosdh1xbgxho6w70zweza,GbqDxUlg,2020-0188,2020-11-16,18:43:10,19:03:05,NA,incomplete,168,race,2,1,left,A_M_12.jpg,A_F_14.jpg,C_M_07.jpg,left,843.2200001552701,true,high,NA,NA,NA,NA,NA,NA,NA,false
GbqDxUlg,3r6rzgk0yip7nifkjif6ljfzh4yvyd,39dd6s19jtosdh1xbgxho6w70zweza,GbqDxUlg,2020-0188,2020-11-16,18:43:10,19:03:05,NA,incomplete,169,race,2,1,left,C_F_10.jpg,C_M_09.jpg,A_F_03.jpg,left,1117.31499992311,true,high,NA,NA,NA,NA,NA,NA,NA,false
GbqDxUlg,3r6rzgk0yip7nifkjif6ljfzh4yvyd,39dd6s19jtosdh1xbgxho6w70zweza,GbqDxUlg,2020-0188,2020-11-16,18:43:10,19:03:05,NA,incomplete,170,race,2,1,right,A_M_13.jpg,C_M_09.jpg,A_F_10.jpg,right,774.0299999713898,true,high,NA,NA,NA,NA,NA,NA,NA,false
GbqDxUlg,3r6rzgk0yip7nifkjif6ljfzh4yvyd,39dd6s19jtosdh1xbgxho6w70zweza,GbqDxUlg,2020-0188,2020-11-16,18:43:10,19:03:05,NA,incomplete,171,race,2,1,right,A_F_12.jpg,C_F_10.jpg,A_M_14.jpg,right,1146.794999949634,true,high,NA,NA,NA,NA,NA,NA,NA,false
GbqDxUlg,3r6rzgk0yip7nifkjif6ljfzh4yvyd,39dd6s19jtosdh1xbgxho6w70zweza,GbqDxUlg,2020-0188,2020-11-16,18:43:10,19:03:05,NA,incomplete,172,race,2,1,right,C_F_14.jpg,A_F_04.jpg,C_M_01.jpg,right,914.2599999904633,true,high,NA,NA,NA,NA,NA,NA,NA,false
GbqDxUlg,3r6rzgk0yip7nifkjif6ljfzh4yvyd,39dd6s19jtosdh1xbgxho6w70zweza,GbqDxUlg,2020-0188,2020-11-16,18:43:10,19:03:05,NA,incomplete,173,race,2,1,right,A_F_03.jpg,C_F_06.jpg,A_M_12.jpg,right,857.6549999415874,true,high,NA,NA,NA,NA,NA,NA,NA,false
GbqDxUlg,3r6rzgk0yip7nifkjif6ljfzh4yvyd,39dd6s19jtosdh1xbgxho6w70zweza,GbqDxUlg,2020-0188,2020-11-16,18:43:10,19:03:05,NA,incomplete,174,race,2,1,right,A_F_03.jpg,C_F_09.jpg,A_M_15.jpg,right,755.7850000448525,true,high,NA,NA,NA,NA,NA,NA,NA,false
GbqDxUlg,3r6rzgk0yip7nifkjif6ljfzh4yvyd,39dd6s19jtosdh1xbgxho6w70zweza,GbqDxUlg,2020-0188,2020-11-16,18:43:10,19:03:05,NA,incomplete,175,race,2,1,right,A_M_01.jpg,C_M_09.jpg,A_F_10.jpg,right,680.1450001075864,true,high,NA,NA,NA,NA,NA,NA,NA,false
GbqDxUlg,3r6rzgk0yip7nifkjif6ljfzh4yvyd,39dd6s19jtosdh1xbgxho6w70zweza,GbqDxUlg,2020-0188,2020-11-16,18:43:10,19:03:05,NA,incomplete,176,race,2,1,left,C_F_12.jpg,C_M_09.jpg,A_F_03.jpg,left,1074.4900000281632,true,high,NA,NA,NA,NA,NA,NA,NA,false
GbqDxUlg,3r6rzgk0yip7nifkjif6ljfzh4yvyd,39dd6s19jtosdh1xbgxho6w70zweza,GbqDxUlg,2020-0188,2020-11-16,18:43:10,19:03:05,NA,incomplete,177,race,2,1,right,C_M_02.jpg,A_M_03.jpg,C_F_06.jpg,right,779.9300001934171,true,high,NA,NA,NA,NA,NA,NA,NA,false
GbqDxUlg,3r6rzgk0yip7nifkjif6ljfzh4yvyd,39dd6s19jtosdh1xbgxho6w70zweza,GbqDxUlg,2020-0188,2020-11-16,18:43:10,19:03:05,NA,incomplete,178,race,2,1,right,C_F_15.jpg,A_F_03.jpg,C_M_01.jpg,right,817.1099997125566,true,high,NA,NA,NA,NA,NA,NA,NA,false
GbqDxUlg,3r6rzgk0yip7nifkjif6ljfzh4yvyd,39dd6s19jtosdh1xbgxho6w70zweza,GbqDxUlg,2020-0188,2020-11-16,18:43:10,19:03:05,NA,incomplete,179,race,2,1,right,C_M_12.jpg,A_M_07.jpg,C_F_04.jpg,right,909.064999781549,true,high,NA,NA,NA,NA,NA,NA,NA,false
GbqDxUlg,3r6rzgk0yip7nifkjif6ljfzh4yvyd,39dd6s19jtosdh1xbgxho6w70zweza,GbqDxUlg,2020-0188,2020-11-16,18:43:10,19:03:05,NA,incomplete,180,gender,3,1,right,C_M_08.jpg,C_F_12.jpg,A_M_13.jpg,left,860.419999808073,false,high,NA,NA,NA,NA,NA,NA,NA,false
GbqDxUlg,3r6rzgk0yip7nifkjif6ljfzh4yvyd,39dd6s19jtosdh1xbgxho6w70zweza,GbqDxUlg,2020-0188,2020-11-16,18:43:10,19:03:05,NA,incomplete,181,gender,3,1,left,C_F_01.jpg,A_F_06.jpg,C_M_05.jpg,right,734.2600002884865,false,high,NA,NA,NA,NA,NA,NA,NA,false
GbqDxUlg,3r6rzgk0yip7nifkjif6ljfzh4yvyd,39dd6s19jtosdh1xbgxho6w70zweza,GbqDxUlg,2020-0188,2020-11-16,18:43:10,19:03:05,NA,incomplete,182,gender,3,0,right,A_F_13.jpg,A_M_07.jpg,C_F_02.jpg,left,1053.6299999803305,false,high,NA,NA,NA,NA,NA,NA,NA,false
GbqDxUlg,3r6rzgk0yip7nifkjif6ljfzh4yvyd,39dd6s19jtosdh1xbgxho6w70zweza,GbqDxUlg,2020-0188,2020-11-16,18:43:10,19:03:05,NA,incomplete,183,gender,3,1,left,A_M_06.jpg,C_M_11.jpg,A_F_14.jpg,right,910.1849999278784,false,high,NA,NA,NA,NA,NA,NA,NA,false
GbqDxUlg,3r6rzgk0yip7nifkjif6ljfzh4yvyd,39dd6s19jtosdh1xbgxho6w70zweza,GbqDxUlg,2020-0188,2020-11-16,18:43:10,19:03:05,NA,incomplete,184,gender,3,0,left,C_F_07.jpg,A_F_14.jpg,C_M_08.jpg,left,927.5050000287592,true,high,NA,NA,NA,NA,NA,NA,NA,false
GbqDxUlg,3r6rzgk0yip7nifkjif6ljfzh4yvyd,39dd6s19jtosdh1xbgxho6w70zweza,GbqDxUlg,2020-0188,2020-11-16,18:43:10,19:03:05,NA,incomplete,185,gender,3,1,left,C_M_01.jpg,A_M_08.jpg,C_F_02.jpg,right,1158.0700003542006,false,high,NA,NA,NA,NA,NA,NA,NA,false
GbqDxUlg,3r6rzgk0yip7nifkjif6ljfzh4yvyd,39dd6s19jtosdh1xbgxho6w70zweza,GbqDxUlg,2020-0188,2020-11-16,18:43:10,19:03:05,NA,incomplete,186,gender,3,0,left,A_M_09.jpg,C_M_15.jpg,A_F_10.jpg,left,948.1650004163384,true,high,NA,NA,NA,NA,NA,NA,NA,false
GbqDxUlg,3r6rzgk0yip7nifkjif6ljfzh4yvyd,39dd6s19jtosdh1xbgxho6w70zweza,GbqDxUlg,2020-0188,2020-11-16,18:43:10,19:03:05,NA,incomplete,187,gender,3,1,left,A_M_10.jpg,C_M_06.jpg,A_F_13.jpg,right,732.069999910891,false,high,NA,NA,NA,NA,NA,NA,NA,false
GbqDxUlg,3r6rzgk0yip7nifkjif6ljfzh4yvyd,39dd6s19jtosdh1xbgxho6w70zweza,GbqDxUlg,2020-0188,2020-11-16,18:43:10,19:03:05,NA,incomplete,188,gender,3,1,left,A_F_07.jpg,C_F_05.jpg,A_M_04.jpg,right,1281.3749997876585,false,high,NA,NA,NA,NA,NA,NA,NA,false
GbqDxUlg,3r6rzgk0yip7nifkjif6ljfzh4yvyd,39dd6s19jtosdh1xbgxho6w70zweza,GbqDxUlg,2020-0188,2020-11-16,18:43:10,19:03:05,NA,incomplete,189,gender,3,0,left,A_M_06.jpg,C_M_14.jpg,A_F_12.jpg,left,995.3749999403954,true,high,NA,NA,NA,NA,NA,NA,NA,false
GbqDxUlg,3r6rzgk0yip7nifkjif6ljfzh4yvyd,39dd6s19jtosdh1xbgxho6w70zweza,GbqDxUlg,2020-0188,2020-11-16,18:43:10,19:03:05,NA,incomplete,190,gender,3,1,left,C_M_09.jpg,A_M_05.jpg,C_F_07.jpg,left,928.1000001356006,true,high,NA,NA,NA,NA,NA,NA,NA,false
GbqDxUlg,3r6rzgk0yip7nifkjif6ljfzh4yvyd,39dd6s19jtosdh1xbgxho6w70zweza,GbqDxUlg,2020-0188,2020-11-16,18:43:10,19:03:05,NA,incomplete,191,gender,3,1,left,A_M_06.jpg,C_M_16.jpg,A_F_10.jpg,left,623.3399999327958,true,high,NA,NA,NA,NA,NA,NA,NA,false
GbqDxUlg,3r6rzgk0yip7nifkjif6ljfzh4yvyd,39dd6s19jtosdh1xbgxho6w70zweza,GbqDxUlg,2020-0188,2020-11-16,18:43:10,19:03:05,NA,incomplete,192,gender,3,0,left,A_M_13.jpg,C_M_06.jpg,A_F_15.jpg,left,595.2350003644824,true,high,NA,NA,NA,NA,NA,NA,NA,false
GbqDxUlg,3r6rzgk0yip7nifkjif6ljfzh4yvyd,39dd6s19jtosdh1xbgxho6w70zweza,GbqDxUlg,2020-0188,2020-11-16,18:43:10,19:03:05,NA,incomplete,193,gender,3,1,left,C_F_10.jpg,A_F_04.jpg,C_M_02.jpg,left,662.9849998280406,true,high,NA,NA,NA,NA,NA,NA,NA,false
GbqDxUlg,3r6rzgk0yip7nifkjif6ljfzh4yvyd,39dd6s19jtosdh1xbgxho6w70zweza,GbqDxUlg,2020-0188,2020-11-16,18:43:10,19:03:05,NA,incomplete,194,gender,3,1,left,A_M_07.jpg,C_M_04.jpg,A_F_01.jpg,left,1065.4199998825788,true,high,NA,NA,NA,NA,NA,NA,NA,false
GbqDxUlg,3r6rzgk0yip7nifkjif6ljfzh4yvyd,39dd6s19jtosdh1xbgxho6w70zweza,GbqDxUlg,2020-0188,2020-11-16,18:43:10,19:03:05,NA,incomplete,195,gender,3,0,right,A_M_03.jpg,A_F_13.jpg,C_M_01.jpg,right,707.3050001636147,true,high,NA,NA,NA,NA,NA,NA,NA,false
GbqDxUlg,3r6rzgk0yip7nifkjif6ljfzh4yvyd,39dd6s19jtosdh1xbgxho6w70zweza,GbqDxUlg,2020-0188,2020-11-16,18:43:10,19:03:05,NA,incomplete,196,gender,3,1,right,A_M_12.jpg,A_F_13.jpg,C_M_11.jpg,right,723.6350001767278,true,high,NA,NA,NA,NA,NA,NA,NA,false
GbqDxUlg,3r6rzgk0yip7nifkjif6ljfzh4yvyd,39dd6s19jtosdh1xbgxho6w70zweza,GbqDxUlg,2020-0188,2020-11-16,18:43:10,19:03:05,NA,incomplete,197,gender,3,1,right,A_F_09.jpg,A_M_01.jpg,C_F_07.jpg,right,1051.5100001357496,true,high,NA,NA,NA,NA,NA,NA,NA,false
GbqDxUlg,3r6rzgk0yip7nifkjif6ljfzh4yvyd,39dd6s19jtosdh1xbgxho6w70zweza,GbqDxUlg,2020-0188,2020-11-16,18:43:10,19:03:05,NA,incomplete,198,gender,3,0,left,A_F_08.jpg,C_F_10.jpg,A_M_04.jpg,left,508.2700001075864,true,high,NA,NA,NA,NA,NA,NA,NA,false
GbqDxUlg,3r6rzgk0yip7nifkjif6ljfzh4yvyd,39dd6s19jtosdh1xbgxho6w70zweza,GbqDxUlg,2020-0188,2020-11-16,18:43:10,19:03:05,NA,incomplete,199,gender,3,1,left,A_M_10.jpg,C_M_08.jpg,A_F_03.jpg,left,637.1499998494983,true,high,NA,NA,NA,NA,NA,NA,NA,false
GbqDxUlg,3r6rzgk0yip7nifkjif6ljfzh4yvyd,39dd6s19jtosdh1xbgxho6w70zweza,GbqDxUlg,2020-0188,2020-11-16,18:43:10,19:03:05,NA,incomplete,200,race,2,1,left,A_F_08.jpg,A_M_02.jpg,C_F_09.jpg,right,711.2699998542666,false,high,NA,NA,NA,NA,NA,NA,NA,false
GbqDxUlg,3r6rzgk0yip7nifkjif6ljfzh4yvyd,39dd6s19jtosdh1xbgxho6w70zweza,GbqDxUlg,2020-0188,2020-11-16,18:43:10,19:03:05,NA,incomplete,201,race,2,0,right,C_M_15.jpg,A_M_13.jpg,C_F_03.jpg,left,719.7799999266863,false,high,NA,NA,NA,NA,NA,NA,NA,false
GbqDxUlg,3r6rzgk0yip7nifkjif6ljfzh4yvyd,39dd6s19jtosdh1xbgxho6w70zweza,GbqDxUlg,2020-0188,2020-11-16,18:43:10,19:03:05,NA,incomplete,202,race,2,1,right,A_F_06.jpg,C_F_10.jpg,A_M_05.jpg,left,591.2399999797344,false,high,NA,NA,NA,NA,NA,NA,NA,false
GbqDxUlg,3r6rzgk0yip7nifkjif6ljfzh4yvyd,39dd6s19jtosdh1xbgxho6w70zweza,GbqDxUlg,2020-0188,2020-11-16,18:43:10,19:03:05,NA,incomplete,203,race,2,0,left,C_F_02.jpg,C_M_14.jpg,A_F_01.jpg,right,610.7800002209842,false,high,NA,NA,NA,NA,NA,NA,NA,false
GbqDxUlg,3r6rzgk0yip7nifkjif6ljfzh4yvyd,39dd6s19jtosdh1xbgxho6w70zweza,GbqDxUlg,2020-0188,2020-11-16,18:43:10,19:03:05,NA,incomplete,204,race,2,1,right,C_F_08.jpg,A_F_09.jpg,C_M_03.jpg,left,734.8750000819564,false,high,NA,NA,NA,NA,NA,NA,NA,false
GbqDxUlg,3r6rzgk0yip7nifkjif6ljfzh4yvyd,39dd6s19jtosdh1xbgxho6w70zweza,GbqDxUlg,2020-0188,2020-11-16,18:43:10,19:03:05,NA,incomplete,205,race,2,1,right,C_F_04.jpg,A_F_05.jpg,C_M_14.jpg,left,973.7149998545647,false,high,NA,NA,NA,NA,NA,NA,NA,false
GbqDxUlg,3r6rzgk0yip7nifkjif6ljfzh4yvyd,39dd6s19jtosdh1xbgxho6w70zweza,GbqDxUlg,2020-0188,2020-11-16,18:43:10,19:03:05,NA,incomplete,206,race,2,1,left,A_M_01.jpg,A_F_15.jpg,C_M_12.jpg,left,707.0849998854101,true,high,NA,NA,NA,NA,NA,NA,NA,false
GbqDxUlg,3r6rzgk0yip7nifkjif6ljfzh4yvyd,39dd6s19jtosdh1xbgxho6w70zweza,GbqDxUlg,2020-0188,2020-11-16,18:43:10,19:03:05,NA,incomplete,207,race,2,1,right,C_M_06.jpg,A_M_10.jpg,C_F_14.jpg,right,770.7350002601743,true,high,NA,NA,NA,NA,NA,NA,NA,false
GbqDxUlg,3r6rzgk0yip7nifkjif6ljfzh4yvyd,39dd6s19jtosdh1xbgxho6w70zweza,GbqDxUlg,2020-0188,2020-11-16,18:43:10,19:03:05,NA,incomplete,208,race,2,1,right,C_M_15.jpg,A_M_07.jpg,C_F_09.jpg,right,808.5349998436868,true,high,NA,NA,NA,NA,NA,NA,NA,false
GbqDxUlg,3r6rzgk0yip7nifkjif6ljfzh4yvyd,39dd6s19jtosdh1xbgxho6w70zweza,GbqDxUlg,2020-0188,2020-11-16,18:43:10,19:03:05,NA,incomplete,209,race,2,1,left,C_F_13.jpg,C_M_01.jpg,A_F_11.jpg,right,787.5000000931323,false,high,NA,NA,NA,NA,NA,NA,NA,false
GbqDxUlg,3r6rzgk0yip7nifkjif6ljfzh4yvyd,39dd6s19jtosdh1xbgxho6w70zweza,GbqDxUlg,2020-0188,2020-11-16,18:43:10,19:03:05,NA,incomplete,210,race,2,1,left,A_F_13.jpg,A_M_12.jpg,C_F_16.jpg,left,681.150000076741,true,high,NA,NA,NA,NA,NA,NA,NA,false
GbqDxUlg,3r6rzgk0yip7nifkjif6ljfzh4yvyd,39dd6s19jtosdh1xbgxho6w70zweza,GbqDxUlg,2020-0188,2020-11-16,18:43:10,19:03:05,NA,incomplete,211,race,2,1,left,C_F_08.jpg,C_M_07.jpg,A_F_09.jpg,left,1107.4649998918176,true,high,NA,NA,NA,NA,NA,NA,NA,false
GbqDxUlg,3r6rzgk0yip7nifkjif6ljfzh4yvyd,39dd6s19jtosdh1xbgxho6w70zweza,GbqDxUlg,2020-0188,2020-11-16,18:43:10,19:03:05,NA,incomplete,212,race,2,1,left,A_F_11.jpg,A_M_10.jpg,C_F_13.jpg,left,730.0950000062585,true,high,NA,NA,NA,NA,NA,NA,NA,false
GbqDxUlg,3r6rzgk0yip7nifkjif6ljfzh4yvyd,39dd6s19jtosdh1xbgxho6w70zweza,GbqDxUlg,2020-0188,2020-11-16,18:43:10,19:03:05,NA,incomplete,213,race,2,1,left,A_F_15.jpg,A_M_05.jpg,C_F_09.jpg,left,792.274999897927,true,high,NA,NA,NA,NA,NA,NA,NA,false
GbqDxUlg,3r6rzgk0yip7nifkjif6ljfzh4yvyd,39dd6s19jtosdh1xbgxho6w70zweza,GbqDxUlg,2020-0188,2020-11-16,18:43:10,19:03:05,NA,incomplete,214,race,2,1,left,A_F_07.jpg,A_M_01.jpg,C_F_11.jpg,right,958.2899999804795,false,high,NA,NA,NA,NA,NA,NA,NA,false
GbqDxUlg,3r6rzgk0yip7nifkjif6ljfzh4yvyd,39dd6s19jtosdh1xbgxho6w70zweza,GbqDxUlg,2020-0188,2020-11-16,18:43:10,19:03:05,NA,incomplete,215,race,2,1,left,A_F_07.jpg,A_M_05.jpg,C_F_11.jpg,left,843.5349999926984,true,high,NA,NA,NA,NA,NA,NA,NA,false
GbqDxUlg,3r6rzgk0yip7nifkjif6ljfzh4yvyd,39dd6s19jtosdh1xbgxho6w70zweza,GbqDxUlg,2020-0188,2020-11-16,18:43:10,19:03:05,NA,incomplete,216,race,2,1,right,A_F_07.jpg,C_F_09.jpg,A_M_12.jpg,right,1118.8249997794628,true,high,NA,NA,NA,NA,NA,NA,NA,false
GbqDxUlg,3r6rzgk0yip7nifkjif6ljfzh4yvyd,39dd6s19jtosdh1xbgxho6w70zweza,GbqDxUlg,2020-0188,2020-11-16,18:43:10,19:03:05,NA,incomplete,217,race,2,1,right,C_M_01.jpg,A_M_14.jpg,C_F_06.jpg,right,861.9849998503923,true,high,NA,NA,NA,NA,NA,NA,NA,false
GbqDxUlg,3r6rzgk0yip7nifkjif6ljfzh4yvyd,39dd6s19jtosdh1xbgxho6w70zweza,GbqDxUlg,2020-0188,2020-11-16,18:43:10,19:03:05,NA,incomplete,218,race,2,1,right,C_M_01.jpg,A_M_03.jpg,C_F_08.jpg,right,838.7500001117587,true,high,NA,NA,NA,NA,NA,NA,NA,false
GbqDxUlg,3r6rzgk0yip7nifkjif6ljfzh4yvyd,39dd6s19jtosdh1xbgxho6w70zweza,GbqDxUlg,2020-0188,2020-11-16,18:43:10,19:03:05,NA,incomplete,219,race,2,1,left,A_M_10.jpg,A_F_07.jpg,C_M_04.jpg,left,635.1400003768504,true,high,NA,NA,NA,NA,NA,NA,NA,false
GbqDxUlg,3r6rzgk0yip7nifkjif6ljfzh4yvyd,39dd6s19jtosdh1xbgxho6w70zweza,GbqDxUlg,2020-0188,2020-11-16,18:43:10,19:03:05,NA,incomplete,220,gender,3,1,right,C_F_05.jpg,C_M_11.jpg,A_F_08.jpg,left,812.5100000761449,false,high,NA,NA,NA,NA,NA,NA,NA,false
GbqDxUlg,3r6rzgk0yip7nifkjif6ljfzh4yvyd,39dd6s19jtosdh1xbgxho6w70zweza,GbqDxUlg,2020-0188,2020-11-16,18:43:10,19:03:05,NA,incomplete,221,gender,3,0,right,C_F_10.jpg,C_M_07.jpg,A_F_04.jpg,right,1319.7050001472235,true,high,NA,NA,NA,NA,NA,NA,NA,false
GbqDxUlg,3r6rzgk0yip7nifkjif6ljfzh4yvyd,39dd6s19jtosdh1xbgxho6w70zweza,GbqDxUlg,2020-0188,2020-11-16,18:43:10,19:03:05,NA,incomplete,222,gender,3,1,left,C_F_06.jpg,A_F_10.jpg,C_M_15.jpg,right,855.3550001233816,false,high,NA,NA,NA,NA,NA,NA,NA,false
GbqDxUlg,3r6rzgk0yip7nifkjif6ljfzh4yvyd,39dd6s19jtosdh1xbgxho6w70zweza,GbqDxUlg,2020-0188,2020-11-16,18:43:10,19:03:05,NA,incomplete,223,gender,3,1,right,C_F_01.jpg,C_M_03.jpg,A_F_08.jpg,left,778.9349998347461,false,high,NA,NA,NA,NA,NA,NA,NA,false
GbqDxUlg,3r6rzgk0yip7nifkjif6ljfzh4yvyd,39dd6s19jtosdh1xbgxho6w70zweza,GbqDxUlg,2020-0188,2020-11-16,18:43:10,19:03:05,NA,incomplete,224,gender,3,0,right,C_F_16.jpg,C_M_15.jpg,A_F_12.jpg,right,656.0450000688434,true,high,NA,NA,NA,NA,NA,NA,NA,false
GbqDxUlg,3r6rzgk0yip7nifkjif6ljfzh4yvyd,39dd6s19jtosdh1xbgxho6w70zweza,GbqDxUlg,2020-0188,2020-11-16,18:43:10,19:03:05,NA,incomplete,225,gender,3,1,right,A_F_05.jpg,A_M_02.jpg,C_F_07.jpg,right,810.2099997922778,true,high,NA,NA,NA,NA,NA,NA,NA,false
GbqDxUlg,3r6rzgk0yip7nifkjif6ljfzh4yvyd,39dd6s19jtosdh1xbgxho6w70zweza,GbqDxUlg,2020-0188,2020-11-16,18:43:10,19:03:05,NA,incomplete,226,gender,3,1,right,C_F_09.jpg,C_M_14.jpg,A_F_15.jpg,right,757.5750001706183,true,high,NA,NA,NA,NA,NA,NA,NA,false
GbqDxUlg,3r6rzgk0yip7nifkjif6ljfzh4yvyd,39dd6s19jtosdh1xbgxho6w70zweza,GbqDxUlg,2020-0188,2020-11-16,18:43:10,19:03:05,NA,incomplete,227,gender,3,0,left,C_F_10.jpg,A_F_08.jpg,C_M_16.jpg,left,587.8149997442961,true,high,NA,NA,NA,NA,NA,NA,NA,false
GbqDxUlg,3r6rzgk0yip7nifkjif6ljfzh4yvyd,39dd6s19jtosdh1xbgxho6w70zweza,GbqDxUlg,2020-0188,2020-11-16,18:43:10,19:03:05,NA,incomplete,228,gender,3,1,right,A_F_11.jpg,A_M_07.jpg,C_F_06.jpg,right,663.389999885112,true,high,NA,NA,NA,NA,NA,NA,NA,false
GbqDxUlg,3r6rzgk0yip7nifkjif6ljfzh4yvyd,39dd6s19jtosdh1xbgxho6w70zweza,GbqDxUlg,2020-0188,2020-11-16,18:43:10,19:03:05,NA,incomplete,229,gender,3,0,left,C_M_07.jpg,A_M_04.jpg,C_F_02.jpg,left,1035.3549998253584,true,high,NA,NA,NA,NA,NA,NA,NA,false
GbqDxUlg,3r6rzgk0yip7nifkjif6ljfzh4yvyd,39dd6s19jtosdh1xbgxho6w70zweza,GbqDxUlg,2020-0188,2020-11-16,18:43:10,19:03:05,NA,incomplete,230,gender,3,1,right,C_F_13.jpg,C_M_05.jpg,A_F_12.jpg,right,668.959999922663,true,high,NA,NA,NA,NA,NA,NA,NA,false
GbqDxUlg,3r6rzgk0yip7nifkjif6ljfzh4yvyd,39dd6s19jtosdh1xbgxho6w70zweza,GbqDxUlg,2020-0188,2020-11-16,18:43:10,19:03:05,NA,incomplete,231,gender,3,1,left,C_M_10.jpg,A_M_14.jpg,C_F_16.jpg,left,734.195000026375,true,high,NA,NA,NA,NA,NA,NA,NA,false
GbqDxUlg,3r6rzgk0yip7nifkjif6ljfzh4yvyd,39dd6s19jtosdh1xbgxho6w70zweza,GbqDxUlg,2020-0188,2020-11-16,18:43:10,19:03:05,NA,incomplete,232,gender,3,1,right,C_M_13.jpg,C_F_16.jpg,A_M_14.jpg,right,691.4199995808303,true,high,NA,NA,NA,NA,NA,NA,NA,false
GbqDxUlg,3r6rzgk0yip7nifkjif6ljfzh4yvyd,39dd6s19jtosdh1xbgxho6w70zweza,GbqDxUlg,2020-0188,2020-11-16,18:43:10,19:03:05,NA,incomplete,233,gender,3,1,left,A_M_07.jpg,C_M_09.jpg,A_F_03.jpg,left,621.4450001716614,true,high,NA,NA,NA,NA,NA,NA,NA,false
GbqDxUlg,3r6rzgk0yip7nifkjif6ljfzh4yvyd,39dd6s19jtosdh1xbgxho6w70zweza,GbqDxUlg,2020-0188,2020-11-16,18:43:10,19:03:05,NA,incomplete,234,gender,3,1,left,A_F_08.jpg,C_F_16.jpg,A_M_04.jpg,left,585.8999998308718,true,high,NA,NA,NA,NA,NA,NA,NA,false
GbqDxUlg,3r6rzgk0yip7nifkjif6ljfzh4yvyd,39dd6s19jtosdh1xbgxho6w70zweza,GbqDxUlg,2020-0188,2020-11-16,18:43:10,19:03:05,NA,incomplete,235,gender,3,1,right,A_M_06.jpg,A_F_13.jpg,C_M_07.jpg,right,684.1599997133017,true,high,NA,NA,NA,NA,NA,NA,NA,false
GbqDxUlg,3r6rzgk0yip7nifkjif6ljfzh4yvyd,39dd6s19jtosdh1xbgxho6w70zweza,GbqDxUlg,2020-0188,2020-11-16,18:43:10,19:03:05,NA,incomplete,236,gender,3,1,left,C_F_16.jpg,A_F_05.jpg,C_M_06.jpg,left,534.4750001095235,true,high,NA,NA,NA,NA,NA,NA,NA,false
GbqDxUlg,3r6rzgk0yip7nifkjif6ljfzh4yvyd,39dd6s19jtosdh1xbgxho6w70zweza,GbqDxUlg,2020-0188,2020-11-16,18:43:10,19:03:05,NA,incomplete,237,gender,3,1,left,C_F_11.jpg,A_F_09.jpg,C_M_07.jpg,left,565.9299995750189,true,high,NA,NA,NA,NA,NA,NA,NA,false
GbqDxUlg,3r6rzgk0yip7nifkjif6ljfzh4yvyd,39dd6s19jtosdh1xbgxho6w70zweza,GbqDxUlg,2020-0188,2020-11-16,18:43:10,19:03:05,NA,incomplete,238,gender,3,1,right,C_F_13.jpg,C_M_08.jpg,A_F_12.jpg,right,579.1000002063811,true,high,NA,NA,NA,NA,NA,NA,NA,false
GbqDxUlg,3r6rzgk0yip7nifkjif6ljfzh4yvyd,39dd6s19jtosdh1xbgxho6w70zweza,GbqDxUlg,2020-0188,2020-11-16,18:43:10,19:03:05,NA,incomplete,239,gender,3,1,left,A_M_10.jpg,C_M_03.jpg,A_F_16.jpg,left,657.6249999925494,true,high,NA,NA,NA,NA,NA,NA,NA,false
GbqDxUlg,3r6rzgk0yip7nifkjif6ljfzh4yvyd,39dd6s19jtosdh1xbgxho6w70zweza,GbqDxUlg,2020-0188,2020-11-16,18:43:10,19:03:05,NA,NA,instruction example,number,NA,NA,NA,Green_Star_Chess_2.jpg,Red_Triangle_Stripes_2.jpg,Purple_Star_Grid_1.jpg,NA,NA,NA,NA,NA,NA,NA,NA,NA,NA,NA,undefined
GbqDxUlg,3r6rzgk0yip7nifkjif6ljfzh4yvyd,39dd6s19jtosdh1xbgxho6w70zweza,GbqDxUlg,2020-0188,2020-11-16,18:43:10,19:03:05,NA,NA,instruction example,number,NA,NA,NA,Red_Triangle_Stripes_1.jpg,Purple_Triangle_Grid_3.jpg,Blue_Plus_Dots_1.jpg,NA,NA,NA,NA,NA,NA,NA,NA,NA,NA,NA,undefined
GbqDxUlg,3r6rzgk0yip7nifkjif6ljfzh4yvyd,39dd6s19jtosdh1xbgxho6w70zweza,GbqDxUlg,2020-0188,2020-11-16,18:43:10,19:03:05,NA,NA,instruction example,number,NA,NA,NA,A_M_01.jpg,A_F_14.jpg,C_M_13.jpg,NA,NA,NA,NA,NA,NA,NA,NA,NA,NA,NA,undefined
GbqDxUlg,3r6rzgk0yip7nifkjif6ljfzh4yvyd,39dd6s19jtosdh1xbgxho6w70zweza,GbqDxUlg,2020-0188,2020-11-16,18:43:10,19:03:05,NA,NA,instruction example,number,NA,NA,NA,A_F_11.jpg,C_F_10.jpg,A_M_16.jpg,NA,NA,NA,NA,NA,NA,NA,NA,NA,NA,NA,undefined
GbqDxUlg,3r6rzgk0yip7nifkjif6ljfzh4yvyd,39dd6s19jtosdh1xbgxho6w70zweza,GbqDxUlg,2020-0188,2020-11-16,18:43:10,19:03:05,1152760.879999958,1195094.244999811,NA,NA,NA,NA,NA,NA,NA,NA,NA,NA,NA,NA,33,White/Caucasian,Male,white american,no,no,no,undefined
