workerId,hitId,assignmentId,subject,studyid,exp_date,exp_start,exp_end,time_start,time_end,trial,type,sequence,reward_validity,answer,image_top,image_left,image_right,response,response_time,response_acc,volatility,practice
RGoAeJ39,3p7qk0gj4wyyvhrnruxexlrqk8i2zm,39l1g8wvwu4s8n0sel7tdl8x2h6136,RGoAeJ39,2020-0188,2020-06-17,06:39:35,06:58:49,NA,incomplete,0,shape,0,1,right,Green_Circle_Chess_4.jpg,Purple_Star_Chess_2.jpg,Blue_Circle_Stripes_1.jpg,right,1523.1199999998207,true,NA,true
RGoAeJ39,3p7qk0gj4wyyvhrnruxexlrqk8i2zm,39l1g8wvwu4s8n0sel7tdl8x2h6136,RGoAeJ39,2020-0188,2020-06-17,06:39:35,06:58:49,NA,incomplete,1,shape,0,1,right,Green_Star_Grid_1.jpg,Purple_Circle_Grid_4.jpg,Red_Star_Chess_3.jpg,right,798.4550000001327,true,NA,true
RGoAeJ39,3p7qk0gj4wyyvhrnruxexlrqk8i2zm,39l1g8wvwu4s8n0sel7tdl8x2h6136,RGoAeJ39,2020-0188,2020-06-17,06:39:35,06:58:49,NA,incomplete,2,shape,0,0,left,Green_Plus_Stripes_3.jpg,Purple_Plus_Grid_2.jpg,Red_Circle_Stripes_1.jpg,left,1161.2549999999464,true,NA,true
RGoAeJ39,3p7qk0gj4wyyvhrnruxexlrqk8i2zm,39l1g8wvwu4s8n0sel7tdl8x2h6136,RGoAeJ39,2020-0188,2020-06-17,06:39:35,06:58:49,NA,incomplete,3,shape,0,0,right,Red_Plus_Dots_2.jpg,Green_Triangle_Dots_4.jpg,Blue_Plus_Chess_1.jpg,right,781.0599999997648,true,NA,true
RGoAeJ39,3p7qk0gj4wyyvhrnruxexlrqk8i2zm,39l1g8wvwu4s8n0sel7tdl8x2h6136,RGoAeJ39,2020-0188,2020-06-17,06:39:35,06:58:49,NA,incomplete,4,shape,0,1,left,Green_Star_Chess_4.jpg,Red_Star_Stripes_3.jpg,Purple_Triangle_Chess_2.jpg,left,1000.6100000000442,true,NA,true
RGoAeJ39,3p7qk0gj4wyyvhrnruxexlrqk8i2zm,39l1g8wvwu4s8n0sel7tdl8x2h6136,RGoAeJ39,2020-0188,2020-06-17,06:39:35,06:58:49,NA,incomplete,5,shape,0,1,left,Purple_Star_Stripes_4.jpg,Green_Star_Grid_2.jpg,Red_Circle_Stripes_3.jpg,left,1218.2450000000536,true,NA,true
RGoAeJ39,3p7qk0gj4wyyvhrnruxexlrqk8i2zm,39l1g8wvwu4s8n0sel7tdl8x2h6136,RGoAeJ39,2020-0188,2020-06-17,06:39:35,06:58:49,NA,incomplete,6,shape,0,1,left,Green_Plus_Grid_4.jpg,Red_Plus_Chess_3.jpg,Blue_Star_Grid_2.jpg,left,850.375,true,NA,true
RGoAeJ39,3p7qk0gj4wyyvhrnruxexlrqk8i2zm,39l1g8wvwu4s8n0sel7tdl8x2h6136,RGoAeJ39,2020-0188,2020-06-17,06:39:35,06:58:49,NA,incomplete,7,shape,0,1,left,Red_Star_Dots_1.jpg,Green_Star_Stripes_2.jpg,Blue_Plus_Dots_3.jpg,left,1034.795000000042,true,NA,true
RGoAeJ39,3p7qk0gj4wyyvhrnruxexlrqk8i2zm,39l1g8wvwu4s8n0sel7tdl8x2h6136,RGoAeJ39,2020-0188,2020-06-17,06:39:35,06:58:49,NA,incomplete,8,shape,0,0,left,Red_Triangle_Chess_2.jpg,Purple_Triangle_Stripes_3.jpg,Green_Plus_Chess_4.jpg,left,972.5600000001723,true,NA,true
RGoAeJ39,3p7qk0gj4wyyvhrnruxexlrqk8i2zm,39l1g8wvwu4s8n0sel7tdl8x2h6136,RGoAeJ39,2020-0188,2020-06-17,06:39:35,06:58:49,NA,incomplete,9,shape,0,1,left,Purple_Star_Grid_2.jpg,Blue_Star_Dots_4.jpg,Green_Triangle_Grid_3.jpg,left,885.9200000001583,true,NA,true
RGoAeJ39,3p7qk0gj4wyyvhrnruxexlrqk8i2zm,39l1g8wvwu4s8n0sel7tdl8x2h6136,RGoAeJ39,2020-0188,2020-06-17,06:39:35,06:58:49,NA,incomplete,10,shape,0,1,left,Purple_Triangle_Dots_1.jpg,Green_Triangle_Chess_2.jpg,Blue_Plus_Dots_4.jpg,left,780.7799999997951,true,NA,true
RGoAeJ39,3p7qk0gj4wyyvhrnruxexlrqk8i2zm,39l1g8wvwu4s8n0sel7tdl8x2h6136,RGoAeJ39,2020-0188,2020-06-17,06:39:35,06:58:49,NA,incomplete,11,shape,0,0,right,Green_Plus_Grid_3.jpg,Purple_Star_Grid_4.jpg,Red_Plus_Dots_1.jpg,right,776.4899999999325,true,NA,true
RGoAeJ39,3p7qk0gj4wyyvhrnruxexlrqk8i2zm,39l1g8wvwu4s8n0sel7tdl8x2h6136,RGoAeJ39,2020-0188,2020-06-17,06:39:35,06:58:49,NA,incomplete,12,shape,0,1,right,Blue_Circle_Grid_2.jpg,Green_Triangle_Grid_3.jpg,Red_Circle_Chess_1.jpg,right,666.2149999999674,true,NA,true
RGoAeJ39,3p7qk0gj4wyyvhrnruxexlrqk8i2zm,39l1g8wvwu4s8n0sel7tdl8x2h6136,RGoAeJ39,2020-0188,2020-06-17,06:39:35,06:58:49,NA,incomplete,13,shape,0,1,left,Green_Plus_Chess_2.jpg,Red_Plus_Dots_4.jpg,Blue_Triangle_Chess_1.jpg,left,730.9149999998626,true,NA,true
RGoAeJ39,3p7qk0gj4wyyvhrnruxexlrqk8i2zm,39l1g8wvwu4s8n0sel7tdl8x2h6136,RGoAeJ39,2020-0188,2020-06-17,06:39:35,06:58:49,NA,incomplete,14,shape,0,1,left,Red_Plus_Stripes_3.jpg,Blue_Plus_Grid_4.jpg,Green_Triangle_Stripes_2.jpg,left,719.7599999999511,true,NA,true
RGoAeJ39,3p7qk0gj4wyyvhrnruxexlrqk8i2zm,39l1g8wvwu4s8n0sel7tdl8x2h6136,RGoAeJ39,2020-0188,2020-06-17,06:39:35,06:58:49,NA,incomplete,15,shape,0,1,left,Red_Plus_Chess_2.jpg,Purple_Plus_Stripes_4.jpg,Green_Star_Chess_3.jpg,left,589.8700000000536,true,NA,true
RGoAeJ39,3p7qk0gj4wyyvhrnruxexlrqk8i2zm,39l1g8wvwu4s8n0sel7tdl8x2h6136,RGoAeJ39,2020-0188,2020-06-17,06:39:35,06:58:49,NA,incomplete,16,shape,0,1,left,Blue_Star_Chess_1.jpg,Red_Star_Stripes_3.jpg,Green_Plus_Chess_2.jpg,left,703.3449999998556,true,NA,true
RGoAeJ39,3p7qk0gj4wyyvhrnruxexlrqk8i2zm,39l1g8wvwu4s8n0sel7tdl8x2h6136,RGoAeJ39,2020-0188,2020-06-17,06:39:35,06:58:49,NA,incomplete,17,shape,0,1,right,Green_Triangle_Grid_2.jpg,Blue_Plus_Grid_3.jpg,Red_Triangle_Chess_1.jpg,right,621.3749999999418,true,NA,true
RGoAeJ39,3p7qk0gj4wyyvhrnruxexlrqk8i2zm,39l1g8wvwu4s8n0sel7tdl8x2h6136,RGoAeJ39,2020-0188,2020-06-17,06:39:35,06:58:49,NA,incomplete,18,shape,0,1,left,Red_Circle_Dots_1.jpg,Green_Circle_Stripes_3.jpg,Purple_Triangle_Dots_2.jpg,left,711.3750000000582,true,NA,true
RGoAeJ39,3p7qk0gj4wyyvhrnruxexlrqk8i2zm,39l1g8wvwu4s8n0sel7tdl8x2h6136,RGoAeJ39,2020-0188,2020-06-17,06:39:35,06:58:49,NA,incomplete,19,shape,0,1,left,Blue_Triangle_Grid_2.jpg,Purple_Triangle_Dots_3.jpg,Red_Circle_Grid_1.jpg,left,748.8849999999511,true,NA,true
RGoAeJ39,3p7qk0gj4wyyvhrnruxexlrqk8i2zm,39l1g8wvwu4s8n0sel7tdl8x2h6136,RGoAeJ39,2020-0188,2020-06-17,06:39:35,06:58:49,NA,incomplete,20,filling,1,1,left,Blue_Star_Grid_1.jpg,Purple_Plus_Grid_3.jpg,Red_Star_Dots_2.jpg,left,1832.8750000000582,true,NA,true
RGoAeJ39,3p7qk0gj4wyyvhrnruxexlrqk8i2zm,39l1g8wvwu4s8n0sel7tdl8x2h6136,RGoAeJ39,2020-0188,2020-06-17,06:39:35,06:58:49,NA,incomplete,21,filling,1,1,left,Blue_Plus_Stripes_4.jpg,Red_Triangle_Stripes_2.jpg,Green_Plus_Grid_3.jpg,left,1218.344999999972,true,NA,true
RGoAeJ39,3p7qk0gj4wyyvhrnruxexlrqk8i2zm,39l1g8wvwu4s8n0sel7tdl8x2h6136,RGoAeJ39,2020-0188,2020-06-17,06:39:35,06:58:49,NA,incomplete,22,filling,1,0,left,Red_Triangle_Stripes_1.jpg,Purple_Circle_Stripes_4.jpg,Green_Triangle_Chess_2.jpg,left,1163.6100000001024,true,NA,true
RGoAeJ39,3p7qk0gj4wyyvhrnruxexlrqk8i2zm,39l1g8wvwu4s8n0sel7tdl8x2h6136,RGoAeJ39,2020-0188,2020-06-17,06:39:35,06:58:49,NA,incomplete,23,filling,1,1,left,Purple_Star_Chess_3.jpg,Red_Circle_Chess_4.jpg,Blue_Star_Stripes_1.jpg,left,1391.0100000000675,true,NA,true
RGoAeJ39,3p7qk0gj4wyyvhrnruxexlrqk8i2zm,39l1g8wvwu4s8n0sel7tdl8x2h6136,RGoAeJ39,2020-0188,2020-06-17,06:39:35,06:58:49,NA,incomplete,24,filling,1,1,left,Red_Plus_Dots_1.jpg,Blue_Triangle_Dots_3.jpg,Purple_Plus_Chess_4.jpg,left,1511.7700000000768,true,NA,true
RGoAeJ39,3p7qk0gj4wyyvhrnruxexlrqk8i2zm,39l1g8wvwu4s8n0sel7tdl8x2h6136,RGoAeJ39,2020-0188,2020-06-17,06:39:35,06:58:49,NA,incomplete,25,filling,1,1,left,Purple_Circle_Dots_1.jpg,Red_Plus_Dots_2.jpg,Green_Circle_Chess_3.jpg,left,1086.049999999872,true,NA,true
RGoAeJ39,3p7qk0gj4wyyvhrnruxexlrqk8i2zm,39l1g8wvwu4s8n0sel7tdl8x2h6136,RGoAeJ39,2020-0188,2020-06-17,06:39:35,06:58:49,NA,incomplete,26,filling,1,1,left,Green_Triangle_Chess_2.jpg,Purple_Plus_Chess_3.jpg,Blue_Triangle_Grid_4.jpg,left,1003.4150000001537,true,NA,true
RGoAeJ39,3p7qk0gj4wyyvhrnruxexlrqk8i2zm,39l1g8wvwu4s8n0sel7tdl8x2h6136,RGoAeJ39,2020-0188,2020-06-17,06:39:35,06:58:49,NA,incomplete,27,filling,1,1,left,Purple_Circle_Grid_3.jpg,Green_Plus_Grid_4.jpg,Blue_Circle_Stripes_1.jpg,left,1116.9700000000303,true,NA,true
RGoAeJ39,3p7qk0gj4wyyvhrnruxexlrqk8i2zm,39l1g8wvwu4s8n0sel7tdl8x2h6136,RGoAeJ39,2020-0188,2020-06-17,06:39:35,06:58:49,NA,incomplete,28,filling,1,1,right,Red_Circle_Chess_1.jpg,Green_Circle_Grid_2.jpg,Blue_Star_Chess_4.jpg,right,905.5950000001467,true,NA,true
RGoAeJ39,3p7qk0gj4wyyvhrnruxexlrqk8i2zm,39l1g8wvwu4s8n0sel7tdl8x2h6136,RGoAeJ39,2020-0188,2020-06-17,06:39:35,06:58:49,NA,incomplete,29,filling,1,1,left,Green_Star_Stripes_3.jpg,Blue_Plus_Stripes_1.jpg,Red_Star_Dots_2.jpg,left,1463.9899999999907,true,NA,true
RGoAeJ39,3p7qk0gj4wyyvhrnruxexlrqk8i2zm,39l1g8wvwu4s8n0sel7tdl8x2h6136,RGoAeJ39,2020-0188,2020-06-17,06:39:35,06:58:49,NA,incomplete,30,filling,1,1,left,Purple_Triangle_Dots_2.jpg,Blue_Plus_Dots_1.jpg,Red_Triangle_Chess_3.jpg,left,1119.5649999999441,true,NA,true
RGoAeJ39,3p7qk0gj4wyyvhrnruxexlrqk8i2zm,39l1g8wvwu4s8n0sel7tdl8x2h6136,RGoAeJ39,2020-0188,2020-06-17,06:39:35,06:58:49,NA,incomplete,31,filling,1,0,left,Blue_Plus_Dots_2.jpg,Red_Triangle_Dots_4.jpg,Purple_Plus_Grid_3.jpg,left,1019.1600000000326,true,NA,true
RGoAeJ39,3p7qk0gj4wyyvhrnruxexlrqk8i2zm,39l1g8wvwu4s8n0sel7tdl8x2h6136,RGoAeJ39,2020-0188,2020-06-17,06:39:35,06:58:49,NA,incomplete,32,filling,1,1,left,Red_Plus_Grid_3.jpg,Green_Triangle_Grid_2.jpg,Blue_Plus_Chess_1.jpg,left,1060.0850000000792,true,NA,true
RGoAeJ39,3p7qk0gj4wyyvhrnruxexlrqk8i2zm,39l1g8wvwu4s8n0sel7tdl8x2h6136,RGoAeJ39,2020-0188,2020-06-17,06:39:35,06:58:49,NA,incomplete,33,filling,1,1,right,Red_Triangle_Grid_4.jpg,Blue_Triangle_Dots_2.jpg,Purple_Star_Grid_1.jpg,right,915.9500000000698,true,NA,true
RGoAeJ39,3p7qk0gj4wyyvhrnruxexlrqk8i2zm,39l1g8wvwu4s8n0sel7tdl8x2h6136,RGoAeJ39,2020-0188,2020-06-17,06:39:35,06:58:49,NA,incomplete,34,filling,1,1,right,Green_Star_Stripes_3.jpg,Purple_Star_Dots_4.jpg,Red_Plus_Stripes_2.jpg,right,930.3099999999395,true,NA,true
RGoAeJ39,3p7qk0gj4wyyvhrnruxexlrqk8i2zm,39l1g8wvwu4s8n0sel7tdl8x2h6136,RGoAeJ39,2020-0188,2020-06-17,06:39:35,06:58:49,NA,incomplete,35,filling,1,0,left,Green_Circle_Stripes_3.jpg,Purple_Plus_Stripes_1.jpg,Red_Circle_Grid_4.jpg,left,911.4649999999092,true,NA,true
RGoAeJ39,3p7qk0gj4wyyvhrnruxexlrqk8i2zm,39l1g8wvwu4s8n0sel7tdl8x2h6136,RGoAeJ39,2020-0188,2020-06-17,06:39:35,06:58:49,NA,incomplete,36,filling,1,1,right,Green_Triangle_Stripes_1.jpg,Blue_Triangle_Grid_3.jpg,Purple_Star_Stripes_4.jpg,right,835.5400000000373,true,NA,true
RGoAeJ39,3p7qk0gj4wyyvhrnruxexlrqk8i2zm,39l1g8wvwu4s8n0sel7tdl8x2h6136,RGoAeJ39,2020-0188,2020-06-17,06:39:35,06:58:49,NA,incomplete,37,filling,1,1,right,Green_Triangle_Grid_3.jpg,Red_Triangle_Chess_1.jpg,Purple_Circle_Grid_4.jpg,right,956.8250000000116,true,NA,true
RGoAeJ39,3p7qk0gj4wyyvhrnruxexlrqk8i2zm,39l1g8wvwu4s8n0sel7tdl8x2h6136,RGoAeJ39,2020-0188,2020-06-17,06:39:35,06:58:49,NA,incomplete,38,filling,1,0,right,Blue_Plus_Chess_3.jpg,Purple_Plus_Grid_1.jpg,Red_Triangle_Chess_4.jpg,left,967.6099999998696,false,NA,true
RGoAeJ39,3p7qk0gj4wyyvhrnruxexlrqk8i2zm,39l1g8wvwu4s8n0sel7tdl8x2h6136,RGoAeJ39,2020-0188,2020-06-17,06:39:35,06:58:49,NA,incomplete,39,filling,1,1,right,Red_Plus_Chess_2.jpg,Blue_Plus_Grid_1.jpg,Purple_Circle_Chess_3.jpg,right,1428.6449999999604,true,NA,true
RGoAeJ39,3p7qk0gj4wyyvhrnruxexlrqk8i2zm,39l1g8wvwu4s8n0sel7tdl8x2h6136,RGoAeJ39,2020-0188,2020-06-17,06:39:35,06:58:49,NA,incomplete,0,shape,0,0,left,Red_Circle_Stripes_1.jpg,Green_Circle_Grid_2.jpg,Blue_Triangle_Stripes_4.jpg,right,1202.7400000001653,false,high,false
RGoAeJ39,3p7qk0gj4wyyvhrnruxexlrqk8i2zm,39l1g8wvwu4s8n0sel7tdl8x2h6136,RGoAeJ39,2020-0188,2020-06-17,06:39:35,06:58:49,NA,incomplete,1,shape,0,1,left,Blue_Plus_Grid_4.jpg,Red_Plus_Dots_3.jpg,Purple_Star_Grid_1.jpg,right,1349.490000000049,false,high,false
RGoAeJ39,3p7qk0gj4wyyvhrnruxexlrqk8i2zm,39l1g8wvwu4s8n0sel7tdl8x2h6136,RGoAeJ39,2020-0188,2020-06-17,06:39:35,06:58:49,NA,incomplete,2,shape,0,1,right,Red_Circle_Dots_1.jpg,Blue_Plus_Dots_2.jpg,Purple_Circle_Grid_3.jpg,left,1056.4249999999884,false,high,false
RGoAeJ39,3p7qk0gj4wyyvhrnruxexlrqk8i2zm,39l1g8wvwu4s8n0sel7tdl8x2h6136,RGoAeJ39,2020-0188,2020-06-17,06:39:35,06:58:49,NA,incomplete,3,shape,0,1,right,Purple_Circle_Dots_2.jpg,Red_Triangle_Dots_1.jpg,Green_Circle_Grid_3.jpg,right,839.059999999823,true,high,false
RGoAeJ39,3p7qk0gj4wyyvhrnruxexlrqk8i2zm,39l1g8wvwu4s8n0sel7tdl8x2h6136,RGoAeJ39,2020-0188,2020-06-17,06:39:35,06:58:49,NA,incomplete,4,shape,0,1,left,Blue_Plus_Stripes_3.jpg,Purple_Plus_Dots_4.jpg,Green_Circle_Stripes_1.jpg,left,1128.7299999999232,true,high,false
RGoAeJ39,3p7qk0gj4wyyvhrnruxexlrqk8i2zm,39l1g8wvwu4s8n0sel7tdl8x2h6136,RGoAeJ39,2020-0188,2020-06-17,06:39:35,06:58:49,NA,incomplete,5,shape,0,0,right,Blue_Circle_Chess_4.jpg,Purple_Star_Chess_1.jpg,Green_Circle_Grid_3.jpg,right,708.210000000021,true,high,false
RGoAeJ39,3p7qk0gj4wyyvhrnruxexlrqk8i2zm,39l1g8wvwu4s8n0sel7tdl8x2h6136,RGoAeJ39,2020-0188,2020-06-17,06:39:35,06:58:49,NA,incomplete,6,shape,0,1,right,Green_Plus_Stripes_4.jpg,Blue_Circle_Stripes_2.jpg,Purple_Plus_Grid_1.jpg,right,794.5350000000326,true,high,false
RGoAeJ39,3p7qk0gj4wyyvhrnruxexlrqk8i2zm,39l1g8wvwu4s8n0sel7tdl8x2h6136,RGoAeJ39,2020-0188,2020-06-17,06:39:35,06:58:49,NA,incomplete,7,shape,0,0,left,Red_Triangle_Chess_1.jpg,Purple_Triangle_Grid_2.jpg,Green_Circle_Chess_3.jpg,left,732.070000000007,true,high,false
RGoAeJ39,3p7qk0gj4wyyvhrnruxexlrqk8i2zm,39l1g8wvwu4s8n0sel7tdl8x2h6136,RGoAeJ39,2020-0188,2020-06-17,06:39:35,06:58:49,NA,incomplete,8,shape,0,0,left,Red_Circle_Stripes_4.jpg,Green_Circle_Chess_2.jpg,Blue_Triangle_Stripes_1.jpg,left,691.0400000001537,true,high,false
RGoAeJ39,3p7qk0gj4wyyvhrnruxexlrqk8i2zm,39l1g8wvwu4s8n0sel7tdl8x2h6136,RGoAeJ39,2020-0188,2020-06-17,06:39:35,06:58:49,NA,incomplete,9,shape,0,1,left,Green_Plus_Dots_1.jpg,Red_Plus_Grid_4.jpg,Purple_Circle_Dots_2.jpg,right,920.804999999993,false,high,false
RGoAeJ39,3p7qk0gj4wyyvhrnruxexlrqk8i2zm,39l1g8wvwu4s8n0sel7tdl8x2h6136,RGoAeJ39,2020-0188,2020-06-17,06:39:35,06:58:49,NA,incomplete,10,filling,1,0,right,Red_Triangle_Grid_1.jpg,Green_Triangle_Dots_4.jpg,Blue_Circle_Grid_2.jpg,right,1078.3000000001048,true,high,false
RGoAeJ39,3p7qk0gj4wyyvhrnruxexlrqk8i2zm,39l1g8wvwu4s8n0sel7tdl8x2h6136,RGoAeJ39,2020-0188,2020-06-17,06:39:35,06:58:49,NA,incomplete,11,filling,1,1,right,Red_Plus_Chess_1.jpg,Purple_Plus_Dots_2.jpg,Blue_Triangle_Chess_4.jpg,left,765.3599999998696,false,high,false
RGoAeJ39,3p7qk0gj4wyyvhrnruxexlrqk8i2zm,39l1g8wvwu4s8n0sel7tdl8x2h6136,RGoAeJ39,2020-0188,2020-06-17,06:39:35,06:58:49,NA,incomplete,12,filling,1,1,left,Purple_Star_Stripes_2.jpg,Blue_Triangle_Stripes_3.jpg,Green_Star_Dots_1.jpg,right,880.2450000000536,false,high,false
RGoAeJ39,3p7qk0gj4wyyvhrnruxexlrqk8i2zm,39l1g8wvwu4s8n0sel7tdl8x2h6136,RGoAeJ39,2020-0188,2020-06-17,06:39:35,06:58:49,NA,incomplete,13,filling,1,0,left,Purple_Star_Chess_1.jpg,Red_Plus_Chess_4.jpg,Blue_Star_Dots_3.jpg,left,934.6600000000908,true,high,false
RGoAeJ39,3p7qk0gj4wyyvhrnruxexlrqk8i2zm,39l1g8wvwu4s8n0sel7tdl8x2h6136,RGoAeJ39,2020-0188,2020-06-17,06:39:35,06:58:49,NA,incomplete,14,filling,1,1,left,Blue_Circle_Stripes_2.jpg,Red_Plus_Stripes_1.jpg,Purple_Circle_Dots_4.jpg,left,1004.789999999979,true,high,false
RGoAeJ39,3p7qk0gj4wyyvhrnruxexlrqk8i2zm,39l1g8wvwu4s8n0sel7tdl8x2h6136,RGoAeJ39,2020-0188,2020-06-17,06:39:35,06:58:49,NA,incomplete,15,filling,1,1,right,Blue_Triangle_Chess_3.jpg,Purple_Triangle_Dots_2.jpg,Green_Plus_Chess_4.jpg,right,1662.6799999999348,true,high,false
RGoAeJ39,3p7qk0gj4wyyvhrnruxexlrqk8i2zm,39l1g8wvwu4s8n0sel7tdl8x2h6136,RGoAeJ39,2020-0188,2020-06-17,06:39:35,06:58:49,NA,incomplete,16,filling,1,1,right,Blue_Circle_Dots_1.jpg,Green_Circle_Chess_4.jpg,Purple_Star_Dots_3.jpg,right,995.2250000001513,true,high,false
RGoAeJ39,3p7qk0gj4wyyvhrnruxexlrqk8i2zm,39l1g8wvwu4s8n0sel7tdl8x2h6136,RGoAeJ39,2020-0188,2020-06-17,06:39:35,06:58:49,NA,incomplete,17,filling,1,1,left,Blue_Triangle_Grid_3.jpg,Purple_Star_Grid_1.jpg,Green_Triangle_Stripes_4.jpg,left,1150.990000000107,true,high,false
RGoAeJ39,3p7qk0gj4wyyvhrnruxexlrqk8i2zm,39l1g8wvwu4s8n0sel7tdl8x2h6136,RGoAeJ39,2020-0188,2020-06-17,06:39:35,06:58:49,NA,incomplete,18,filling,1,1,right,Red_Plus_Stripes_4.jpg,Green_Plus_Chess_3.jpg,Purple_Triangle_Stripes_1.jpg,right,1003.1650000000373,true,high,false
RGoAeJ39,3p7qk0gj4wyyvhrnruxexlrqk8i2zm,39l1g8wvwu4s8n0sel7tdl8x2h6136,RGoAeJ39,2020-0188,2020-06-17,06:39:35,06:58:49,NA,incomplete,19,filling,1,1,right,Blue_Star_Grid_4.jpg,Purple_Star_Chess_3.jpg,Red_Circle_Grid_1.jpg,right,1244.0499999999884,true,high,false
RGoAeJ39,3p7qk0gj4wyyvhrnruxexlrqk8i2zm,39l1g8wvwu4s8n0sel7tdl8x2h6136,RGoAeJ39,2020-0188,2020-06-17,06:39:35,06:58:49,NA,incomplete,20,shape,0,1,left,Red_Circle_Grid_4.jpg,Green_Circle_Dots_3.jpg,Blue_Plus_Grid_1.jpg,right,1061.0449999999255,false,high,false
RGoAeJ39,3p7qk0gj4wyyvhrnruxexlrqk8i2zm,39l1g8wvwu4s8n0sel7tdl8x2h6136,RGoAeJ39,2020-0188,2020-06-17,06:39:35,06:58:49,NA,incomplete,21,shape,0,0,left,Red_Circle_Dots_4.jpg,Purple_Circle_Chess_3.jpg,Blue_Plus_Dots_2.jpg,right,1148.0500000000466,false,high,false
RGoAeJ39,3p7qk0gj4wyyvhrnruxexlrqk8i2zm,39l1g8wvwu4s8n0sel7tdl8x2h6136,RGoAeJ39,2020-0188,2020-06-17,06:39:35,06:58:49,NA,incomplete,22,shape,0,1,left,Green_Triangle_Grid_1.jpg,Purple_Triangle_Chess_4.jpg,Red_Plus_Grid_2.jpg,right,1423.9800000000978,false,high,false
RGoAeJ39,3p7qk0gj4wyyvhrnruxexlrqk8i2zm,39l1g8wvwu4s8n0sel7tdl8x2h6136,RGoAeJ39,2020-0188,2020-06-17,06:39:35,06:58:49,NA,incomplete,23,shape,0,1,right,Blue_Plus_Chess_4.jpg,Red_Star_Chess_2.jpg,Green_Plus_Dots_3.jpg,left,1016.8050000000512,false,high,false
RGoAeJ39,3p7qk0gj4wyyvhrnruxexlrqk8i2zm,39l1g8wvwu4s8n0sel7tdl8x2h6136,RGoAeJ39,2020-0188,2020-06-17,06:39:35,06:58:49,NA,incomplete,24,shape,0,1,left,Red_Triangle_Grid_2.jpg,Blue_Triangle_Dots_4.jpg,Green_Star_Grid_1.jpg,left,794.1500000000233,true,high,false
RGoAeJ39,3p7qk0gj4wyyvhrnruxexlrqk8i2zm,39l1g8wvwu4s8n0sel7tdl8x2h6136,RGoAeJ39,2020-0188,2020-06-17,06:39:35,06:58:49,NA,incomplete,25,shape,0,1,left,Blue_Star_Stripes_2.jpg,Red_Star_Chess_4.jpg,Purple_Plus_Stripes_1.jpg,left,683.6199999999953,true,high,false
RGoAeJ39,3p7qk0gj4wyyvhrnruxexlrqk8i2zm,39l1g8wvwu4s8n0sel7tdl8x2h6136,RGoAeJ39,2020-0188,2020-06-17,06:39:35,06:58:49,NA,incomplete,26,shape,0,1,left,Red_Circle_Chess_1.jpg,Blue_Circle_Grid_2.jpg,Green_Plus_Chess_4.jpg,left,1035.339999999851,true,high,false
RGoAeJ39,3p7qk0gj4wyyvhrnruxexlrqk8i2zm,39l1g8wvwu4s8n0sel7tdl8x2h6136,RGoAeJ39,2020-0188,2020-06-17,06:39:35,06:58:49,NA,incomplete,27,shape,0,0,left,Green_Triangle_Dots_3.jpg,Red_Triangle_Grid_2.jpg,Purple_Plus_Dots_1.jpg,left,732.8149999998277,true,high,false
RGoAeJ39,3p7qk0gj4wyyvhrnruxexlrqk8i2zm,39l1g8wvwu4s8n0sel7tdl8x2h6136,RGoAeJ39,2020-0188,2020-06-17,06:39:35,06:58:49,NA,incomplete,28,shape,0,1,right,Red_Circle_Dots_4.jpg,Blue_Triangle_Dots_3.jpg,Green_Circle_Chess_2.jpg,right,929.625,true,high,false
RGoAeJ39,3p7qk0gj4wyyvhrnruxexlrqk8i2zm,39l1g8wvwu4s8n0sel7tdl8x2h6136,RGoAeJ39,2020-0188,2020-06-17,06:39:35,06:58:49,NA,incomplete,29,shape,0,0,left,Red_Plus_Dots_4.jpg,Purple_Plus_Chess_2.jpg,Green_Star_Dots_1.jpg,left,998.1950000001816,true,high,false
RGoAeJ39,3p7qk0gj4wyyvhrnruxexlrqk8i2zm,39l1g8wvwu4s8n0sel7tdl8x2h6136,RGoAeJ39,2020-0188,2020-06-17,06:39:35,06:58:49,NA,incomplete,30,filling,1,0,left,Red_Triangle_Stripes_1.jpg,Green_Star_Stripes_2.jpg,Blue_Triangle_Grid_3.jpg,right,823.6699999999255,false,high,false
RGoAeJ39,3p7qk0gj4wyyvhrnruxexlrqk8i2zm,39l1g8wvwu4s8n0sel7tdl8x2h6136,RGoAeJ39,2020-0188,2020-06-17,06:39:35,06:58:49,NA,incomplete,31,filling,1,1,left,Green_Triangle_Chess_2.jpg,Red_Star_Chess_4.jpg,Purple_Triangle_Dots_3.jpg,left,873.6249999998836,true,high,false
RGoAeJ39,3p7qk0gj4wyyvhrnruxexlrqk8i2zm,39l1g8wvwu4s8n0sel7tdl8x2h6136,RGoAeJ39,2020-0188,2020-06-17,06:39:35,06:58:49,NA,incomplete,32,filling,1,1,left,Green_Triangle_Dots_2.jpg,Red_Star_Dots_4.jpg,Blue_Triangle_Stripes_1.jpg,right,729.4349999999395,false,high,false
RGoAeJ39,3p7qk0gj4wyyvhrnruxexlrqk8i2zm,39l1g8wvwu4s8n0sel7tdl8x2h6136,RGoAeJ39,2020-0188,2020-06-17,06:39:35,06:58:49,NA,incomplete,33,filling,1,1,left,Green_Circle_Stripes_3.jpg,Purple_Triangle_Stripes_2.jpg,Red_Circle_Dots_4.jpg,left,790.4049999999115,true,high,false
RGoAeJ39,3p7qk0gj4wyyvhrnruxexlrqk8i2zm,39l1g8wvwu4s8n0sel7tdl8x2h6136,RGoAeJ39,2020-0188,2020-06-17,06:39:35,06:58:49,NA,incomplete,34,filling,1,1,left,Green_Plus_Chess_2.jpg,Blue_Star_Chess_3.jpg,Red_Plus_Stripes_4.jpg,left,824.0100000000093,true,high,false
RGoAeJ39,3p7qk0gj4wyyvhrnruxexlrqk8i2zm,39l1g8wvwu4s8n0sel7tdl8x2h6136,RGoAeJ39,2020-0188,2020-06-17,06:39:35,06:58:49,NA,incomplete,35,filling,1,1,right,Purple_Triangle_Grid_3.jpg,Green_Triangle_Chess_4.jpg,Red_Plus_Grid_2.jpg,right,1041.969999999972,true,high,false
RGoAeJ39,3p7qk0gj4wyyvhrnruxexlrqk8i2zm,39l1g8wvwu4s8n0sel7tdl8x2h6136,RGoAeJ39,2020-0188,2020-06-17,06:39:35,06:58:49,NA,incomplete,36,filling,1,1,left,Blue_Circle_Stripes_4.jpg,Purple_Triangle_Stripes_3.jpg,Green_Circle_Chess_2.jpg,left,905.0050000001211,true,high,false
RGoAeJ39,3p7qk0gj4wyyvhrnruxexlrqk8i2zm,39l1g8wvwu4s8n0sel7tdl8x2h6136,RGoAeJ39,2020-0188,2020-06-17,06:39:35,06:58:49,NA,incomplete,37,filling,1,1,left,Purple_Plus_Chess_3.jpg,Green_Star_Chess_1.jpg,Blue_Plus_Stripes_2.jpg,left,935.8650000001071,true,high,false
RGoAeJ39,3p7qk0gj4wyyvhrnruxexlrqk8i2zm,39l1g8wvwu4s8n0sel7tdl8x2h6136,RGoAeJ39,2020-0188,2020-06-17,06:39:35,06:58:49,NA,incomplete,38,filling,1,1,right,Purple_Circle_Chess_3.jpg,Green_Circle_Stripes_4.jpg,Blue_Plus_Chess_1.jpg,right,779.1450000002515,true,high,false
RGoAeJ39,3p7qk0gj4wyyvhrnruxexlrqk8i2zm,39l1g8wvwu4s8n0sel7tdl8x2h6136,RGoAeJ39,2020-0188,2020-06-17,06:39:35,06:58:49,NA,incomplete,39,filling,1,0,left,Blue_Circle_Grid_4.jpg,Red_Star_Grid_3.jpg,Green_Circle_Chess_2.jpg,left,887.0099999998929,true,high,false
RGoAeJ39,3p7qk0gj4wyyvhrnruxexlrqk8i2zm,39l1g8wvwu4s8n0sel7tdl8x2h6136,RGoAeJ39,2020-0188,2020-06-17,06:39:35,06:58:49,NA,incomplete,40,shape,0,1,right,Green_Plus_Dots_1.jpg,Purple_Star_Dots_4.jpg,Blue_Plus_Grid_3.jpg,right,957.1250000001164,true,high,false
RGoAeJ39,3p7qk0gj4wyyvhrnruxexlrqk8i2zm,39l1g8wvwu4s8n0sel7tdl8x2h6136,RGoAeJ39,2020-0188,2020-06-17,06:39:35,06:58:49,NA,incomplete,41,shape,0,0,left,Purple_Plus_Stripes_2.jpg,Red_Plus_Dots_4.jpg,Green_Star_Stripes_3.jpg,left,1128.655000000028,true,high,false
RGoAeJ39,3p7qk0gj4wyyvhrnruxexlrqk8i2zm,39l1g8wvwu4s8n0sel7tdl8x2h6136,RGoAeJ39,2020-0188,2020-06-17,06:39:35,06:58:49,NA,incomplete,42,shape,0,1,left,Green_Plus_Stripes_3.jpg,Purple_Plus_Chess_4.jpg,Blue_Triangle_Stripes_1.jpg,left,1245.744999999879,true,high,false
RGoAeJ39,3p7qk0gj4wyyvhrnruxexlrqk8i2zm,39l1g8wvwu4s8n0sel7tdl8x2h6136,RGoAeJ39,2020-0188,2020-06-17,06:39:35,06:58:49,NA,incomplete,43,shape,0,1,left,Blue_Circle_Dots_1.jpg,Green_Circle_Chess_2.jpg,Purple_Triangle_Dots_3.jpg,left,692.535000000149,true,high,false
RGoAeJ39,3p7qk0gj4wyyvhrnruxexlrqk8i2zm,39l1g8wvwu4s8n0sel7tdl8x2h6136,RGoAeJ39,2020-0188,2020-06-17,06:39:35,06:58:49,NA,incomplete,44,shape,0,1,right,Green_Triangle_Chess_1.jpg,Purple_Star_Chess_4.jpg,Blue_Triangle_Stripes_2.jpg,right,603.4200000001583,true,high,false
RGoAeJ39,3p7qk0gj4wyyvhrnruxexlrqk8i2zm,39l1g8wvwu4s8n0sel7tdl8x2h6136,RGoAeJ39,2020-0188,2020-06-17,06:39:35,06:58:49,NA,incomplete,45,shape,0,1,right,Purple_Plus_Grid_1.jpg,Green_Triangle_Grid_3.jpg,Blue_Plus_Dots_2.jpg,right,653.2999999999302,true,high,false
RGoAeJ39,3p7qk0gj4wyyvhrnruxexlrqk8i2zm,39l1g8wvwu4s8n0sel7tdl8x2h6136,RGoAeJ39,2020-0188,2020-06-17,06:39:35,06:58:49,NA,incomplete,46,shape,0,1,right,Green_Triangle_Dots_2.jpg,Purple_Circle_Dots_4.jpg,Red_Triangle_Grid_1.jpg,right,581.2549999998882,true,high,false
RGoAeJ39,3p7qk0gj4wyyvhrnruxexlrqk8i2zm,39l1g8wvwu4s8n0sel7tdl8x2h6136,RGoAeJ39,2020-0188,2020-06-17,06:39:35,06:58:49,NA,incomplete,47,shape,0,1,right,Green_Circle_Stripes_2.jpg,Red_Star_Stripes_4.jpg,Blue_Circle_Dots_3.jpg,right,617.6199999999953,true,high,false
RGoAeJ39,3p7qk0gj4wyyvhrnruxexlrqk8i2zm,39l1g8wvwu4s8n0sel7tdl8x2h6136,RGoAeJ39,2020-0188,2020-06-17,06:39:35,06:58:49,NA,incomplete,48,shape,0,1,right,Red_Plus_Dots_3.jpg,Purple_Star_Dots_2.jpg,Blue_Plus_Stripes_4.jpg,right,595.3400000000838,true,high,false
RGoAeJ39,3p7qk0gj4wyyvhrnruxexlrqk8i2zm,39l1g8wvwu4s8n0sel7tdl8x2h6136,RGoAeJ39,2020-0188,2020-06-17,06:39:35,06:58:49,NA,incomplete,49,shape,0,1,left,Blue_Circle_Dots_1.jpg,Red_Circle_Grid_4.jpg,Green_Star_Dots_2.jpg,left,654.2700000000186,true,high,false
RGoAeJ39,3p7qk0gj4wyyvhrnruxexlrqk8i2zm,39l1g8wvwu4s8n0sel7tdl8x2h6136,RGoAeJ39,2020-0188,2020-06-17,06:39:35,06:58:49,NA,incomplete,50,filling,1,1,right,Purple_Circle_Dots_3.jpg,Red_Circle_Stripes_2.jpg,Blue_Triangle_Dots_4.jpg,left,685.8499999998603,false,high,false
RGoAeJ39,3p7qk0gj4wyyvhrnruxexlrqk8i2zm,39l1g8wvwu4s8n0sel7tdl8x2h6136,RGoAeJ39,2020-0188,2020-06-17,06:39:35,06:58:49,NA,incomplete,51,filling,1,0,left,Purple_Circle_Dots_2.jpg,Red_Star_Dots_1.jpg,Green_Circle_Stripes_4.jpg,right,851.729999999865,false,high,false
RGoAeJ39,3p7qk0gj4wyyvhrnruxexlrqk8i2zm,39l1g8wvwu4s8n0sel7tdl8x2h6136,RGoAeJ39,2020-0188,2020-06-17,06:39:35,06:58:49,NA,incomplete,52,filling,1,1,right,Red_Plus_Dots_4.jpg,Blue_Plus_Grid_1.jpg,Purple_Star_Dots_2.jpg,left,628.2650000001304,false,high,false
RGoAeJ39,3p7qk0gj4wyyvhrnruxexlrqk8i2zm,39l1g8wvwu4s8n0sel7tdl8x2h6136,RGoAeJ39,2020-0188,2020-06-17,06:39:35,06:58:49,NA,incomplete,53,filling,1,1,left,Red_Plus_Chess_1.jpg,Green_Circle_Chess_2.jpg,Blue_Plus_Dots_3.jpg,left,836.8100000000559,true,high,false
RGoAeJ39,3p7qk0gj4wyyvhrnruxexlrqk8i2zm,39l1g8wvwu4s8n0sel7tdl8x2h6136,RGoAeJ39,2020-0188,2020-06-17,06:39:35,06:58:49,NA,incomplete,54,filling,1,0,right,Blue_Triangle_Stripes_4.jpg,Purple_Triangle_Grid_3.jpg,Green_Star_Stripes_1.jpg,right,1325.9050000001444,true,high,false
RGoAeJ39,3p7qk0gj4wyyvhrnruxexlrqk8i2zm,39l1g8wvwu4s8n0sel7tdl8x2h6136,RGoAeJ39,2020-0188,2020-06-17,06:39:35,06:58:49,NA,incomplete,55,filling,1,0,left,Blue_Triangle_Grid_2.jpg,Green_Plus_Grid_4.jpg,Purple_Triangle_Chess_3.jpg,left,1224.8099999999395,true,high,false
RGoAeJ39,3p7qk0gj4wyyvhrnruxexlrqk8i2zm,39l1g8wvwu4s8n0sel7tdl8x2h6136,RGoAeJ39,2020-0188,2020-06-17,06:39:35,06:58:49,NA,incomplete,56,filling,1,1,left,Blue_Triangle_Dots_4.jpg,Red_Circle_Dots_3.jpg,Green_Triangle_Grid_2.jpg,right,657.8849999998929,false,high,false
RGoAeJ39,3p7qk0gj4wyyvhrnruxexlrqk8i2zm,39l1g8wvwu4s8n0sel7tdl8x2h6136,RGoAeJ39,2020-0188,2020-06-17,06:39:35,06:58:49,NA,incomplete,57,filling,1,1,left,Purple_Triangle_Chess_1.jpg,Green_Star_Chess_2.jpg,Blue_Triangle_Stripes_3.jpg,right,538.1899999999441,false,high,false
RGoAeJ39,3p7qk0gj4wyyvhrnruxexlrqk8i2zm,39l1g8wvwu4s8n0sel7tdl8x2h6136,RGoAeJ39,2020-0188,2020-06-17,06:39:35,06:58:49,NA,incomplete,58,filling,1,0,left,Blue_Plus_Grid_1.jpg,Purple_Star_Grid_3.jpg,Red_Plus_Stripes_2.jpg,left,815.3500000000931,true,high,false
RGoAeJ39,3p7qk0gj4wyyvhrnruxexlrqk8i2zm,39l1g8wvwu4s8n0sel7tdl8x2h6136,RGoAeJ39,2020-0188,2020-06-17,06:39:35,06:58:49,NA,incomplete,59,filling,1,1,right,Blue_Triangle_Dots_1.jpg,Red_Triangle_Chess_2.jpg,Green_Star_Dots_4.jpg,right,960.9049999999115,true,high,false
RGoAeJ39,3p7qk0gj4wyyvhrnruxexlrqk8i2zm,39l1g8wvwu4s8n0sel7tdl8x2h6136,RGoAeJ39,2020-0188,2020-06-17,06:39:35,06:58:49,NA,incomplete,60,shape,0,1,left,Purple_Star_Grid_3.jpg,Blue_Star_Dots_1.jpg,Red_Plus_Grid_2.jpg,right,787.4899999999907,false,high,false
RGoAeJ39,3p7qk0gj4wyyvhrnruxexlrqk8i2zm,39l1g8wvwu4s8n0sel7tdl8x2h6136,RGoAeJ39,2020-0188,2020-06-17,06:39:35,06:58:49,NA,incomplete,61,shape,0,1,right,Blue_Triangle_Stripes_1.jpg,Green_Circle_Stripes_4.jpg,Purple_Triangle_Dots_2.jpg,left,983.9099999999162,false,high,false
RGoAeJ39,3p7qk0gj4wyyvhrnruxexlrqk8i2zm,39l1g8wvwu4s8n0sel7tdl8x2h6136,RGoAeJ39,2020-0188,2020-06-17,06:39:35,06:58:49,NA,incomplete,62,shape,0,1,right,Green_Circle_Stripes_3.jpg,Purple_Star_Stripes_4.jpg,Blue_Circle_Dots_2.jpg,right,904.8449999999721,true,high,false
RGoAeJ39,3p7qk0gj4wyyvhrnruxexlrqk8i2zm,39l1g8wvwu4s8n0sel7tdl8x2h6136,RGoAeJ39,2020-0188,2020-06-17,06:39:35,06:58:49,NA,incomplete,63,shape,0,1,right,Purple_Star_Grid_3.jpg,Blue_Triangle_Grid_2.jpg,Green_Star_Dots_1.jpg,right,1568.2249999999767,true,high,false
RGoAeJ39,3p7qk0gj4wyyvhrnruxexlrqk8i2zm,39l1g8wvwu4s8n0sel7tdl8x2h6136,RGoAeJ39,2020-0188,2020-06-17,06:39:35,06:58:49,NA,incomplete,64,shape,0,1,left,Green_Circle_Chess_1.jpg,Purple_Circle_Stripes_4.jpg,Red_Triangle_Chess_3.jpg,left,858.6850000001723,true,high,false
RGoAeJ39,3p7qk0gj4wyyvhrnruxexlrqk8i2zm,39l1g8wvwu4s8n0sel7tdl8x2h6136,RGoAeJ39,2020-0188,2020-06-17,06:39:35,06:58:49,NA,incomplete,65,shape,0,1,left,Red_Triangle_Chess_4.jpg,Green_Triangle_Grid_2.jpg,Blue_Circle_Chess_1.jpg,left,723.0450000000419,true,high,false
RGoAeJ39,3p7qk0gj4wyyvhrnruxexlrqk8i2zm,39l1g8wvwu4s8n0sel7tdl8x2h6136,RGoAeJ39,2020-0188,2020-06-17,06:39:35,06:58:49,NA,incomplete,66,shape,0,1,right,Green_Plus_Grid_1.jpg,Red_Star_Grid_3.jpg,Blue_Plus_Chess_2.jpg,right,648.1800000001676,true,high,false
RGoAeJ39,3p7qk0gj4wyyvhrnruxexlrqk8i2zm,39l1g8wvwu4s8n0sel7tdl8x2h6136,RGoAeJ39,2020-0188,2020-06-17,06:39:35,06:58:49,NA,incomplete,67,shape,0,1,left,Blue_Triangle_Chess_4.jpg,Red_Triangle_Grid_3.jpg,Green_Plus_Chess_1.jpg,left,631.1000000000931,true,high,false
RGoAeJ39,3p7qk0gj4wyyvhrnruxexlrqk8i2zm,39l1g8wvwu4s8n0sel7tdl8x2h6136,RGoAeJ39,2020-0188,2020-06-17,06:39:35,06:58:49,NA,incomplete,68,shape,0,1,left,Red_Plus_Dots_1.jpg,Blue_Plus_Grid_4.jpg,Purple_Triangle_Dots_3.jpg,left,834.6750000000466,true,high,false
RGoAeJ39,3p7qk0gj4wyyvhrnruxexlrqk8i2zm,39l1g8wvwu4s8n0sel7tdl8x2h6136,RGoAeJ39,2020-0188,2020-06-17,06:39:35,06:58:49,NA,incomplete,69,shape,0,1,right,Red_Circle_Grid_2.jpg,Purple_Plus_Grid_4.jpg,Green_Circle_Dots_3.jpg,right,914.2650000001304,true,high,false
RGoAeJ39,3p7qk0gj4wyyvhrnruxexlrqk8i2zm,39l1g8wvwu4s8n0sel7tdl8x2h6136,RGoAeJ39,2020-0188,2020-06-17,06:39:35,06:58:49,NA,incomplete,70,filling,1,0,left,Red_Plus_Stripes_4.jpg,Purple_Star_Stripes_2.jpg,Green_Plus_Dots_1.jpg,right,840.8299999998417,false,high,false
RGoAeJ39,3p7qk0gj4wyyvhrnruxexlrqk8i2zm,39l1g8wvwu4s8n0sel7tdl8x2h6136,RGoAeJ39,2020-0188,2020-06-17,06:39:35,06:58:49,NA,incomplete,71,filling,1,1,right,Red_Plus_Dots_4.jpg,Green_Plus_Stripes_3.jpg,Purple_Circle_Dots_2.jpg,left,687.8249999999534,false,high,false
RGoAeJ39,3p7qk0gj4wyyvhrnruxexlrqk8i2zm,39l1g8wvwu4s8n0sel7tdl8x2h6136,RGoAeJ39,2020-0188,2020-06-17,06:39:35,06:58:49,NA,incomplete,72,filling,1,1,right,Purple_Plus_Stripes_4.jpg,Green_Plus_Chess_3.jpg,Red_Triangle_Stripes_2.jpg,right,855.0300000000279,true,high,false
RGoAeJ39,3p7qk0gj4wyyvhrnruxexlrqk8i2zm,39l1g8wvwu4s8n0sel7tdl8x2h6136,RGoAeJ39,2020-0188,2020-06-17,06:39:35,06:58:49,NA,incomplete,73,filling,1,1,left,Purple_Triangle_Grid_3.jpg,Red_Plus_Grid_4.jpg,Blue_Triangle_Dots_1.jpg,left,830.7550000000047,true,high,false
RGoAeJ39,3p7qk0gj4wyyvhrnruxexlrqk8i2zm,39l1g8wvwu4s8n0sel7tdl8x2h6136,RGoAeJ39,2020-0188,2020-06-17,06:39:35,06:58:49,NA,incomplete,74,filling,1,1,left,Purple_Circle_Dots_3.jpg,Blue_Plus_Dots_1.jpg,Red_Circle_Stripes_4.jpg,right,991.9950000001118,false,high,false
RGoAeJ39,3p7qk0gj4wyyvhrnruxexlrqk8i2zm,39l1g8wvwu4s8n0sel7tdl8x2h6136,RGoAeJ39,2020-0188,2020-06-17,06:39:35,06:58:49,NA,incomplete,75,filling,1,1,left,Red_Plus_Dots_3.jpg,Purple_Triangle_Dots_2.jpg,Blue_Plus_Chess_1.jpg,left,1210.6649999999208,true,high,false
RGoAeJ39,3p7qk0gj4wyyvhrnruxexlrqk8i2zm,39l1g8wvwu4s8n0sel7tdl8x2h6136,RGoAeJ39,2020-0188,2020-06-17,06:39:35,06:58:49,NA,incomplete,76,filling,1,1,left,Green_Circle_Grid_2.jpg,Red_Plus_Grid_1.jpg,Blue_Circle_Stripes_4.jpg,left,827.9450000000652,true,high,false
RGoAeJ39,3p7qk0gj4wyyvhrnruxexlrqk8i2zm,39l1g8wvwu4s8n0sel7tdl8x2h6136,RGoAeJ39,2020-0188,2020-06-17,06:39:35,06:58:49,NA,incomplete,77,filling,1,1,right,Green_Circle_Grid_1.jpg,Purple_Circle_Stripes_2.jpg,Red_Star_Grid_3.jpg,right,884.4249999999302,true,high,false
RGoAeJ39,3p7qk0gj4wyyvhrnruxexlrqk8i2zm,39l1g8wvwu4s8n0sel7tdl8x2h6136,RGoAeJ39,2020-0188,2020-06-17,06:39:35,06:58:49,NA,incomplete,78,filling,1,1,left,Red_Plus_Dots_1.jpg,Blue_Triangle_Dots_4.jpg,Green_Plus_Stripes_2.jpg,left,1218.7800000001444,true,high,false
RGoAeJ39,3p7qk0gj4wyyvhrnruxexlrqk8i2zm,39l1g8wvwu4s8n0sel7tdl8x2h6136,RGoAeJ39,2020-0188,2020-06-17,06:39:35,06:58:49,NA,incomplete,79,filling,1,1,left,Purple_Triangle_Chess_1.jpg,Green_Star_Chess_2.jpg,Blue_Triangle_Dots_3.jpg,left,874.354999999865,true,high,false
RGoAeJ39,3p7qk0gj4wyyvhrnruxexlrqk8i2zm,39l1g8wvwu4s8n0sel7tdl8x2h6136,RGoAeJ39,2020-0188,2020-06-17,06:39:35,06:58:49,NA,incomplete,80,shape,0,1,right,Red_Circle_Dots_1.jpg,Purple_Star_Dots_2.jpg,Green_Circle_Stripes_4.jpg,left,977.9099999999162,false,high,false
RGoAeJ39,3p7qk0gj4wyyvhrnruxexlrqk8i2zm,39l1g8wvwu4s8n0sel7tdl8x2h6136,RGoAeJ39,2020-0188,2020-06-17,06:39:35,06:58:49,NA,incomplete,81,shape,0,1,right,Green_Circle_Chess_4.jpg,Blue_Plus_Chess_1.jpg,Red_Circle_Stripes_3.jpg,right,1685.655000000028,true,high,false
RGoAeJ39,3p7qk0gj4wyyvhrnruxexlrqk8i2zm,39l1g8wvwu4s8n0sel7tdl8x2h6136,RGoAeJ39,2020-0188,2020-06-17,06:39:35,06:58:49,NA,incomplete,82,shape,0,1,left,Purple_Circle_Stripes_3.jpg,Green_Circle_Chess_2.jpg,Blue_Plus_Stripes_4.jpg,left,796.0800000000745,true,high,false
RGoAeJ39,3p7qk0gj4wyyvhrnruxexlrqk8i2zm,39l1g8wvwu4s8n0sel7tdl8x2h6136,RGoAeJ39,2020-0188,2020-06-17,06:39:35,06:58:49,NA,incomplete,83,shape,0,0,left,Purple_Triangle_Stripes_1.jpg,Green_Triangle_Grid_2.jpg,Red_Plus_Stripes_3.jpg,left,677.7600000001257,true,high,false
RGoAeJ39,3p7qk0gj4wyyvhrnruxexlrqk8i2zm,39l1g8wvwu4s8n0sel7tdl8x2h6136,RGoAeJ39,2020-0188,2020-06-17,06:39:35,06:58:49,NA,incomplete,84,shape,0,1,right,Green_Star_Stripes_2.jpg,Red_Circle_Stripes_1.jpg,Purple_Star_Dots_3.jpg,right,813.109999999986,true,high,false
RGoAeJ39,3p7qk0gj4wyyvhrnruxexlrqk8i2zm,39l1g8wvwu4s8n0sel7tdl8x2h6136,RGoAeJ39,2020-0188,2020-06-17,06:39:35,06:58:49,NA,incomplete,85,shape,0,1,right,Blue_Plus_Grid_1.jpg,Purple_Circle_Grid_3.jpg,Red_Plus_Chess_2.jpg,right,696.2200000000885,true,high,false
RGoAeJ39,3p7qk0gj4wyyvhrnruxexlrqk8i2zm,39l1g8wvwu4s8n0sel7tdl8x2h6136,RGoAeJ39,2020-0188,2020-06-17,06:39:35,06:58:49,NA,incomplete,86,shape,0,1,left,Blue_Star_Dots_1.jpg,Purple_Star_Chess_2.jpg,Red_Plus_Dots_3.jpg,left,701.7849999999162,true,high,false
RGoAeJ39,3p7qk0gj4wyyvhrnruxexlrqk8i2zm,39l1g8wvwu4s8n0sel7tdl8x2h6136,RGoAeJ39,2020-0188,2020-06-17,06:39:35,06:58:49,NA,incomplete,87,shape,0,1,right,Green_Triangle_Grid_3.jpg,Red_Star_Grid_2.jpg,Purple_Triangle_Chess_1.jpg,right,666.6050000000978,true,high,false
RGoAeJ39,3p7qk0gj4wyyvhrnruxexlrqk8i2zm,39l1g8wvwu4s8n0sel7tdl8x2h6136,RGoAeJ39,2020-0188,2020-06-17,06:39:35,06:58:49,NA,incomplete,88,shape,0,0,right,Blue_Triangle_Grid_4.jpg,Red_Plus_Grid_3.jpg,Purple_Triangle_Chess_2.jpg,right,548.7350000001024,true,high,false
RGoAeJ39,3p7qk0gj4wyyvhrnruxexlrqk8i2zm,39l1g8wvwu4s8n0sel7tdl8x2h6136,RGoAeJ39,2020-0188,2020-06-17,06:39:35,06:58:49,NA,incomplete,89,shape,0,1,right,Red_Circle_Chess_1.jpg,Purple_Star_Chess_3.jpg,Blue_Circle_Stripes_4.jpg,left,1272.4800000000978,false,high,false
RGoAeJ39,3p7qk0gj4wyyvhrnruxexlrqk8i2zm,39l1g8wvwu4s8n0sel7tdl8x2h6136,RGoAeJ39,2020-0188,2020-06-17,06:39:35,06:58:49,NA,incomplete,90,filling,1,1,right,Green_Plus_Grid_4.jpg,Purple_Plus_Dots_2.jpg,Blue_Circle_Grid_1.jpg,left,1831.0150000001304,false,high,false
RGoAeJ39,3p7qk0gj4wyyvhrnruxexlrqk8i2zm,39l1g8wvwu4s8n0sel7tdl8x2h6136,RGoAeJ39,2020-0188,2020-06-17,06:39:35,06:58:49,NA,incomplete,91,filling,1,1,right,Blue_Plus_Dots_3.jpg,Purple_Plus_Stripes_4.jpg,Red_Triangle_Dots_1.jpg,right,1047.4849999998696,true,high,false
RGoAeJ39,3p7qk0gj4wyyvhrnruxexlrqk8i2zm,39l1g8wvwu4s8n0sel7tdl8x2h6136,RGoAeJ39,2020-0188,2020-06-17,06:39:35,06:58:49,NA,incomplete,92,filling,1,1,left,Red_Star_Stripes_1.jpg,Purple_Triangle_Stripes_4.jpg,Green_Star_Grid_3.jpg,left,1103.6750000000466,true,high,false
RGoAeJ39,3p7qk0gj4wyyvhrnruxexlrqk8i2zm,39l1g8wvwu4s8n0sel7tdl8x2h6136,RGoAeJ39,2020-0188,2020-06-17,06:39:35,06:58:49,NA,incomplete,93,filling,1,1,right,Blue_Circle_Dots_1.jpg,Green_Circle_Stripes_3.jpg,Red_Triangle_Dots_2.jpg,right,915.6450000000186,true,high,false
RGoAeJ39,3p7qk0gj4wyyvhrnruxexlrqk8i2zm,39l1g8wvwu4s8n0sel7tdl8x2h6136,RGoAeJ39,2020-0188,2020-06-17,06:39:35,06:58:49,NA,incomplete,94,filling,1,1,left,Blue_Star_Stripes_4.jpg,Purple_Circle_Stripes_2.jpg,Red_Star_Chess_3.jpg,left,786.9050000001444,true,high,false
RGoAeJ39,3p7qk0gj4wyyvhrnruxexlrqk8i2zm,39l1g8wvwu4s8n0sel7tdl8x2h6136,RGoAeJ39,2020-0188,2020-06-17,06:39:35,06:58:49,NA,incomplete,95,filling,1,1,right,Red_Star_Stripes_4.jpg,Purple_Star_Dots_1.jpg,Green_Circle_Stripes_2.jpg,right,1092.3449999998556,true,high,false
RGoAeJ39,3p7qk0gj4wyyvhrnruxexlrqk8i2zm,39l1g8wvwu4s8n0sel7tdl8x2h6136,RGoAeJ39,2020-0188,2020-06-17,06:39:35,06:58:49,NA,incomplete,96,filling,1,1,left,Purple_Triangle_Grid_4.jpg,Green_Plus_Grid_2.jpg,Blue_Triangle_Chess_1.jpg,right,715.6950000000652,false,high,false
RGoAeJ39,3p7qk0gj4wyyvhrnruxexlrqk8i2zm,39l1g8wvwu4s8n0sel7tdl8x2h6136,RGoAeJ39,2020-0188,2020-06-17,06:39:35,06:58:49,NA,incomplete,97,filling,1,1,right,Blue_Circle_Chess_1.jpg,Green_Circle_Grid_4.jpg,Purple_Star_Chess_3.jpg,right,1039.454999999958,true,high,false
RGoAeJ39,3p7qk0gj4wyyvhrnruxexlrqk8i2zm,39l1g8wvwu4s8n0sel7tdl8x2h6136,RGoAeJ39,2020-0188,2020-06-17,06:39:35,06:58:49,NA,incomplete,98,filling,1,0,left,Red_Star_Dots_1.jpg,Purple_Triangle_Dots_2.jpg,Blue_Star_Grid_3.jpg,left,792.4450000000652,true,high,false
RGoAeJ39,3p7qk0gj4wyyvhrnruxexlrqk8i2zm,39l1g8wvwu4s8n0sel7tdl8x2h6136,RGoAeJ39,2020-0188,2020-06-17,06:39:35,06:58:49,NA,incomplete,99,filling,1,1,right,Purple_Circle_Stripes_1.jpg,Green_Circle_Chess_4.jpg,Blue_Triangle_Stripes_2.jpg,left,1291.1850000000559,false,high,false
RGoAeJ39,3p7qk0gj4wyyvhrnruxexlrqk8i2zm,39l1g8wvwu4s8n0sel7tdl8x2h6136,RGoAeJ39,2020-0188,2020-06-17,06:39:35,06:58:49,NA,incomplete,100,shape,0,1,left,Blue_Star_Grid_3.jpg,Purple_Star_Stripes_4.jpg,Red_Triangle_Grid_1.jpg,right,1050.8100000001723,false,high,false
RGoAeJ39,3p7qk0gj4wyyvhrnruxexlrqk8i2zm,39l1g8wvwu4s8n0sel7tdl8x2h6136,RGoAeJ39,2020-0188,2020-06-17,06:39:35,06:58:49,NA,incomplete,101,shape,0,1,left,Purple_Triangle_Chess_2.jpg,Green_Triangle_Dots_1.jpg,Red_Star_Chess_3.jpg,right,1104.0800000000745,false,high,false
RGoAeJ39,3p7qk0gj4wyyvhrnruxexlrqk8i2zm,39l1g8wvwu4s8n0sel7tdl8x2h6136,RGoAeJ39,2020-0188,2020-06-17,06:39:35,06:58:49,NA,incomplete,102,shape,0,1,right,Red_Triangle_Dots_3.jpg,Purple_Star_Dots_2.jpg,Green_Triangle_Grid_4.jpg,right,839.5050000000047,true,high,false
RGoAeJ39,3p7qk0gj4wyyvhrnruxexlrqk8i2zm,39l1g8wvwu4s8n0sel7tdl8x2h6136,RGoAeJ39,2020-0188,2020-06-17,06:39:35,06:58:49,NA,incomplete,103,shape,0,1,right,Purple_Circle_Grid_2.jpg,Green_Plus_Grid_4.jpg,Red_Circle_Stripes_1.jpg,right,976.2850000000326,true,high,false
RGoAeJ39,3p7qk0gj4wyyvhrnruxexlrqk8i2zm,39l1g8wvwu4s8n0sel7tdl8x2h6136,RGoAeJ39,2020-0188,2020-06-17,06:39:35,06:58:49,NA,incomplete,104,shape,0,1,right,Purple_Star_Grid_3.jpg,Red_Plus_Grid_1.jpg,Green_Star_Dots_2.jpg,right,1243.7649999998976,true,high,false
RGoAeJ39,3p7qk0gj4wyyvhrnruxexlrqk8i2zm,39l1g8wvwu4s8n0sel7tdl8x2h6136,RGoAeJ39,2020-0188,2020-06-17,06:39:35,06:58:49,NA,incomplete,105,shape,0,1,left,Blue_Plus_Stripes_4.jpg,Red_Plus_Grid_2.jpg,Green_Circle_Stripes_1.jpg,left,658.6400000001304,true,high,false
RGoAeJ39,3p7qk0gj4wyyvhrnruxexlrqk8i2zm,39l1g8wvwu4s8n0sel7tdl8x2h6136,RGoAeJ39,2020-0188,2020-06-17,06:39:35,06:58:49,NA,incomplete,106,shape,0,1,left,Blue_Triangle_Dots_4.jpg,Purple_Triangle_Stripes_3.jpg,Red_Plus_Dots_1.jpg,left,642.6149999999907,true,high,false
RGoAeJ39,3p7qk0gj4wyyvhrnruxexlrqk8i2zm,39l1g8wvwu4s8n0sel7tdl8x2h6136,RGoAeJ39,2020-0188,2020-06-17,06:39:35,06:58:49,NA,incomplete,107,shape,0,1,left,Purple_Circle_Stripes_3.jpg,Green_Circle_Chess_1.jpg,Blue_Triangle_Stripes_4.jpg,left,891.4699999999721,true,high,false
RGoAeJ39,3p7qk0gj4wyyvhrnruxexlrqk8i2zm,39l1g8wvwu4s8n0sel7tdl8x2h6136,RGoAeJ39,2020-0188,2020-06-17,06:39:35,06:58:49,NA,incomplete,108,shape,0,0,left,Green_Plus_Stripes_3.jpg,Purple_Plus_Grid_4.jpg,Blue_Circle_Stripes_2.jpg,left,720.9550000000745,true,high,false
RGoAeJ39,3p7qk0gj4wyyvhrnruxexlrqk8i2zm,39l1g8wvwu4s8n0sel7tdl8x2h6136,RGoAeJ39,2020-0188,2020-06-17,06:39:35,06:58:49,NA,incomplete,109,shape,0,1,right,Blue_Star_Stripes_1.jpg,Red_Plus_Stripes_4.jpg,Green_Star_Chess_3.jpg,right,782.4300000001676,true,high,false
RGoAeJ39,3p7qk0gj4wyyvhrnruxexlrqk8i2zm,39l1g8wvwu4s8n0sel7tdl8x2h6136,RGoAeJ39,2020-0188,2020-06-17,06:39:35,06:58:49,NA,incomplete,110,filling,1,1,left,Blue_Star_Stripes_4.jpg,Green_Circle_Stripes_3.jpg,Purple_Star_Chess_1.jpg,right,688.729999999865,false,high,false
RGoAeJ39,3p7qk0gj4wyyvhrnruxexlrqk8i2zm,39l1g8wvwu4s8n0sel7tdl8x2h6136,RGoAeJ39,2020-0188,2020-06-17,06:39:35,06:58:49,NA,incomplete,111,filling,1,0,left,Red_Circle_Stripes_3.jpg,Blue_Triangle_Stripes_1.jpg,Green_Circle_Grid_4.jpg,left,1150.9349999999395,true,high,false
RGoAeJ39,3p7qk0gj4wyyvhrnruxexlrqk8i2zm,39l1g8wvwu4s8n0sel7tdl8x2h6136,RGoAeJ39,2020-0188,2020-06-17,06:39:35,06:58:49,NA,incomplete,112,filling,1,1,right,Purple_Circle_Chess_2.jpg,Blue_Circle_Grid_1.jpg,Green_Star_Chess_3.jpg,left,651.75,false,high,false
RGoAeJ39,3p7qk0gj4wyyvhrnruxexlrqk8i2zm,39l1g8wvwu4s8n0sel7tdl8x2h6136,RGoAeJ39,2020-0188,2020-06-17,06:39:35,06:58:49,NA,incomplete,113,filling,1,1,left,Blue_Circle_Dots_1.jpg,Purple_Star_Dots_3.jpg,Red_Circle_Chess_2.jpg,left,1059.5849999999627,true,high,false
RGoAeJ39,3p7qk0gj4wyyvhrnruxexlrqk8i2zm,39l1g8wvwu4s8n0sel7tdl8x2h6136,RGoAeJ39,2020-0188,2020-06-17,06:39:35,06:58:49,NA,incomplete,114,filling,1,0,right,Blue_Star_Chess_3.jpg,Green_Star_Dots_4.jpg,Red_Triangle_Chess_1.jpg,right,875.8050000000512,true,high,false
RGoAeJ39,3p7qk0gj4wyyvhrnruxexlrqk8i2zm,39l1g8wvwu4s8n0sel7tdl8x2h6136,RGoAeJ39,2020-0188,2020-06-17,06:39:35,06:58:49,NA,incomplete,115,filling,1,0,left,Red_Plus_Stripes_1.jpg,Blue_Star_Stripes_4.jpg,Green_Plus_Chess_2.jpg,left,1378.8349999999627,true,high,false
RGoAeJ39,3p7qk0gj4wyyvhrnruxexlrqk8i2zm,39l1g8wvwu4s8n0sel7tdl8x2h6136,RGoAeJ39,2020-0188,2020-06-17,06:39:35,06:58:49,NA,incomplete,116,filling,1,1,right,Red_Circle_Dots_2.jpg,Blue_Circle_Stripes_1.jpg,Green_Plus_Dots_3.jpg,left,643.3800000000047,false,high,false
RGoAeJ39,3p7qk0gj4wyyvhrnruxexlrqk8i2zm,39l1g8wvwu4s8n0sel7tdl8x2h6136,RGoAeJ39,2020-0188,2020-06-17,06:39:35,06:58:49,NA,incomplete,117,filling,1,1,left,Red_Plus_Stripes_2.jpg,Blue_Triangle_Stripes_4.jpg,Purple_Plus_Dots_3.jpg,right,1059.9700000000885,false,high,false
RGoAeJ39,3p7qk0gj4wyyvhrnruxexlrqk8i2zm,39l1g8wvwu4s8n0sel7tdl8x2h6136,RGoAeJ39,2020-0188,2020-06-17,06:39:35,06:58:49,NA,incomplete,118,filling,1,1,right,Purple_Triangle_Stripes_3.jpg,Green_Triangle_Chess_1.jpg,Red_Plus_Stripes_2.jpg,right,908.4599999999627,true,high,false
RGoAeJ39,3p7qk0gj4wyyvhrnruxexlrqk8i2zm,39l1g8wvwu4s8n0sel7tdl8x2h6136,RGoAeJ39,2020-0188,2020-06-17,06:39:35,06:58:49,NA,incomplete,119,filling,1,1,right,Red_Triangle_Dots_4.jpg,Blue_Triangle_Grid_3.jpg,Purple_Circle_Dots_2.jpg,left,714.3600000001024,false,high,false
RGoAeJ39,3p7qk0gj4wyyvhrnruxexlrqk8i2zm,39l1g8wvwu4s8n0sel7tdl8x2h6136,RGoAeJ39,2020-0188,2020-06-17,06:39:35,06:58:49,NA,incomplete,120,race,2,1,left,A_F_05.jpg,A_M_07.jpg,C_F_02.jpg,NA,NA,NA,high,false
RGoAeJ39,3p7qk0gj4wyyvhrnruxexlrqk8i2zm,39l1g8wvwu4s8n0sel7tdl8x2h6136,RGoAeJ39,2020-0188,2020-06-17,06:39:35,06:58:49,NA,incomplete,121,race,2,1,left,C_F_09.jpg,C_M_07.jpg,A_F_15.jpg,left,1049.9449999999488,true,high,false
RGoAeJ39,3p7qk0gj4wyyvhrnruxexlrqk8i2zm,39l1g8wvwu4s8n0sel7tdl8x2h6136,RGoAeJ39,2020-0188,2020-06-17,06:39:35,06:58:49,NA,incomplete,122,race,2,1,right,A_M_03.jpg,C_M_08.jpg,A_F_14.jpg,left,1537.3950000000186,false,high,false
RGoAeJ39,3p7qk0gj4wyyvhrnruxexlrqk8i2zm,39l1g8wvwu4s8n0sel7tdl8x2h6136,RGoAeJ39,2020-0188,2020-06-17,06:39:35,06:58:49,NA,incomplete,123,race,2,1,right,C_M_15.jpg,A_M_09.jpg,C_F_01.jpg,right,1150.704999999958,true,high,false
RGoAeJ39,3p7qk0gj4wyyvhrnruxexlrqk8i2zm,39l1g8wvwu4s8n0sel7tdl8x2h6136,RGoAeJ39,2020-0188,2020-06-17,06:39:35,06:58:49,NA,incomplete,124,race,2,1,left,A_M_01.jpg,A_F_15.jpg,C_M_07.jpg,right,1226.0400000000373,false,high,false
RGoAeJ39,3p7qk0gj4wyyvhrnruxexlrqk8i2zm,39l1g8wvwu4s8n0sel7tdl8x2h6136,RGoAeJ39,2020-0188,2020-06-17,06:39:35,06:58:49,NA,incomplete,125,race,2,1,right,C_M_14.jpg,A_M_11.jpg,C_F_12.jpg,right,1314.4649999999674,true,high,false
RGoAeJ39,3p7qk0gj4wyyvhrnruxexlrqk8i2zm,39l1g8wvwu4s8n0sel7tdl8x2h6136,RGoAeJ39,2020-0188,2020-06-17,06:39:35,06:58:49,NA,incomplete,126,race,2,0,right,A_M_07.jpg,C_M_06.jpg,A_F_05.jpg,left,1255.494999999879,false,high,false
RGoAeJ39,3p7qk0gj4wyyvhrnruxexlrqk8i2zm,39l1g8wvwu4s8n0sel7tdl8x2h6136,RGoAeJ39,2020-0188,2020-06-17,06:39:35,06:58:49,NA,incomplete,127,race,2,1,right,A_M_02.jpg,C_M_10.jpg,A_F_08.jpg,left,1319.4700000000885,false,high,false
RGoAeJ39,3p7qk0gj4wyyvhrnruxexlrqk8i2zm,39l1g8wvwu4s8n0sel7tdl8x2h6136,RGoAeJ39,2020-0188,2020-06-17,06:39:35,06:58:49,NA,incomplete,128,race,2,1,right,A_F_06.jpg,C_F_02.jpg,A_M_08.jpg,left,1163.6900000000605,false,high,false
RGoAeJ39,3p7qk0gj4wyyvhrnruxexlrqk8i2zm,39l1g8wvwu4s8n0sel7tdl8x2h6136,RGoAeJ39,2020-0188,2020-06-17,06:39:35,06:58:49,NA,incomplete,129,race,2,1,left,C_F_09.jpg,C_M_10.jpg,A_F_01.jpg,left,1942.9000000000233,true,high,false
RGoAeJ39,3p7qk0gj4wyyvhrnruxexlrqk8i2zm,39l1g8wvwu4s8n0sel7tdl8x2h6136,RGoAeJ39,2020-0188,2020-06-17,06:39:35,06:58:49,NA,incomplete,130,race,2,1,left,C_M_10.jpg,C_F_12.jpg,A_M_11.jpg,left,946.0449999999255,true,high,false
RGoAeJ39,3p7qk0gj4wyyvhrnruxexlrqk8i2zm,39l1g8wvwu4s8n0sel7tdl8x2h6136,RGoAeJ39,2020-0188,2020-06-17,06:39:35,06:58:49,NA,incomplete,131,race,2,0,right,A_M_05.jpg,C_M_07.jpg,A_F_04.jpg,right,1719.7050000000745,true,high,false
RGoAeJ39,3p7qk0gj4wyyvhrnruxexlrqk8i2zm,39l1g8wvwu4s8n0sel7tdl8x2h6136,RGoAeJ39,2020-0188,2020-06-17,06:39:35,06:58:49,NA,incomplete,132,race,2,1,right,C_M_10.jpg,A_M_02.jpg,C_F_13.jpg,left,1450.594999999972,false,high,false
RGoAeJ39,3p7qk0gj4wyyvhrnruxexlrqk8i2zm,39l1g8wvwu4s8n0sel7tdl8x2h6136,RGoAeJ39,2020-0188,2020-06-17,06:39:35,06:58:49,NA,incomplete,133,race,2,1,left,A_F_11.jpg,A_M_07.jpg,C_F_08.jpg,left,1283.1100000001024,true,high,false
RGoAeJ39,3p7qk0gj4wyyvhrnruxexlrqk8i2zm,39l1g8wvwu4s8n0sel7tdl8x2h6136,RGoAeJ39,2020-0188,2020-06-17,06:39:35,06:58:49,NA,incomplete,134,race,2,1,left,A_F_04.jpg,A_M_10.jpg,C_F_03.jpg,left,1344.7650000001304,true,high,false
RGoAeJ39,3p7qk0gj4wyyvhrnruxexlrqk8i2zm,39l1g8wvwu4s8n0sel7tdl8x2h6136,RGoAeJ39,2020-0188,2020-06-17,06:39:35,06:58:49,NA,incomplete,135,race,2,1,right,A_M_12.jpg,C_M_03.jpg,A_F_10.jpg,left,1509.8450000000885,false,high,false
RGoAeJ39,3p7qk0gj4wyyvhrnruxexlrqk8i2zm,39l1g8wvwu4s8n0sel7tdl8x2h6136,RGoAeJ39,2020-0188,2020-06-17,06:39:35,06:58:49,NA,incomplete,136,race,2,0,left,C_F_12.jpg,C_M_13.jpg,A_F_04.jpg,right,1330.1799999999348,false,high,false
RGoAeJ39,3p7qk0gj4wyyvhrnruxexlrqk8i2zm,39l1g8wvwu4s8n0sel7tdl8x2h6136,RGoAeJ39,2020-0188,2020-06-17,06:39:35,06:58:49,NA,incomplete,137,race,2,1,left,C_M_13.jpg,C_F_01.jpg,A_M_09.jpg,none,0,false,high,false
RGoAeJ39,3p7qk0gj4wyyvhrnruxexlrqk8i2zm,39l1g8wvwu4s8n0sel7tdl8x2h6136,RGoAeJ39,2020-0188,2020-06-17,06:39:35,06:58:49,NA,incomplete,138,race,2,1,right,A_F_10.jpg,C_F_16.jpg,A_M_08.jpg,left,1162.7849999999162,false,high,false
RGoAeJ39,3p7qk0gj4wyyvhrnruxexlrqk8i2zm,39l1g8wvwu4s8n0sel7tdl8x2h6136,RGoAeJ39,2020-0188,2020-06-17,06:39:35,06:58:49,NA,incomplete,139,race,2,1,right,C_M_12.jpg,A_M_07.jpg,C_F_10.jpg,right,1502.8150000000605,true,high,false
RGoAeJ39,3p7qk0gj4wyyvhrnruxexlrqk8i2zm,39l1g8wvwu4s8n0sel7tdl8x2h6136,RGoAeJ39,2020-0188,2020-06-17,06:39:35,06:58:49,NA,incomplete,140,gender,3,1,right,C_F_16.jpg,C_M_06.jpg,A_F_15.jpg,left,1234.490000000107,false,high,false
RGoAeJ39,3p7qk0gj4wyyvhrnruxexlrqk8i2zm,39l1g8wvwu4s8n0sel7tdl8x2h6136,RGoAeJ39,2020-0188,2020-06-17,06:39:35,06:58:49,NA,incomplete,141,gender,3,1,right,C_M_15.jpg,C_F_01.jpg,A_M_06.jpg,left,1259.875,false,high,false
RGoAeJ39,3p7qk0gj4wyyvhrnruxexlrqk8i2zm,39l1g8wvwu4s8n0sel7tdl8x2h6136,RGoAeJ39,2020-0188,2020-06-17,06:39:35,06:58:49,NA,incomplete,142,gender,3,1,left,A_F_01.jpg,C_F_05.jpg,A_M_09.jpg,left,1049.9350000000559,true,high,false
RGoAeJ39,3p7qk0gj4wyyvhrnruxexlrqk8i2zm,39l1g8wvwu4s8n0sel7tdl8x2h6136,RGoAeJ39,2020-0188,2020-06-17,06:39:35,06:58:49,NA,incomplete,143,gender,3,1,left,A_M_09.jpg,C_M_15.jpg,A_F_11.jpg,left,1178.4450000000652,true,high,false
RGoAeJ39,3p7qk0gj4wyyvhrnruxexlrqk8i2zm,39l1g8wvwu4s8n0sel7tdl8x2h6136,RGoAeJ39,2020-0188,2020-06-17,06:39:35,06:58:49,NA,incomplete,144,gender,3,1,right,A_F_15.jpg,A_M_01.jpg,C_F_09.jpg,right,989.1499999999069,true,high,false
RGoAeJ39,3p7qk0gj4wyyvhrnruxexlrqk8i2zm,39l1g8wvwu4s8n0sel7tdl8x2h6136,RGoAeJ39,2020-0188,2020-06-17,06:39:35,06:58:49,NA,incomplete,145,gender,3,1,right,C_M_08.jpg,C_F_11.jpg,A_M_13.jpg,right,1016.2449999999953,true,high,false
RGoAeJ39,3p7qk0gj4wyyvhrnruxexlrqk8i2zm,39l1g8wvwu4s8n0sel7tdl8x2h6136,RGoAeJ39,2020-0188,2020-06-17,06:39:35,06:58:49,NA,incomplete,146,gender,3,1,right,C_M_02.jpg,C_F_11.jpg,A_M_04.jpg,right,834.0350000000326,true,high,false
RGoAeJ39,3p7qk0gj4wyyvhrnruxexlrqk8i2zm,39l1g8wvwu4s8n0sel7tdl8x2h6136,RGoAeJ39,2020-0188,2020-06-17,06:39:35,06:58:49,NA,incomplete,147,gender,3,0,left,A_M_11.jpg,C_M_06.jpg,A_F_02.jpg,left,914.2600000000093,true,high,false
RGoAeJ39,3p7qk0gj4wyyvhrnruxexlrqk8i2zm,39l1g8wvwu4s8n0sel7tdl8x2h6136,RGoAeJ39,2020-0188,2020-06-17,06:39:35,06:58:49,NA,incomplete,148,gender,3,1,right,C_F_14.jpg,C_M_07.jpg,A_F_08.jpg,right,719.7900000001537,true,high,false
RGoAeJ39,3p7qk0gj4wyyvhrnruxexlrqk8i2zm,39l1g8wvwu4s8n0sel7tdl8x2h6136,RGoAeJ39,2020-0188,2020-06-17,06:39:35,06:58:49,NA,incomplete,149,gender,3,0,right,A_M_12.jpg,A_F_08.jpg,C_M_04.jpg,right,1077.4349999999395,true,high,false
RGoAeJ39,3p7qk0gj4wyyvhrnruxexlrqk8i2zm,39l1g8wvwu4s8n0sel7tdl8x2h6136,RGoAeJ39,2020-0188,2020-06-17,06:39:35,06:58:49,NA,incomplete,150,gender,3,1,left,C_M_13.jpg,A_M_05.jpg,C_F_08.jpg,left,996.3100000000559,true,high,false
RGoAeJ39,3p7qk0gj4wyyvhrnruxexlrqk8i2zm,39l1g8wvwu4s8n0sel7tdl8x2h6136,RGoAeJ39,2020-0188,2020-06-17,06:39:35,06:58:49,NA,incomplete,151,gender,3,1,right,A_F_09.jpg,A_M_07.jpg,C_F_10.jpg,right,909.7000000001863,true,high,false
RGoAeJ39,3p7qk0gj4wyyvhrnruxexlrqk8i2zm,39l1g8wvwu4s8n0sel7tdl8x2h6136,RGoAeJ39,2020-0188,2020-06-17,06:39:35,06:58:49,NA,incomplete,152,gender,3,1,right,A_M_12.jpg,A_F_16.jpg,C_M_07.jpg,right,1204.5550000000512,true,high,false
RGoAeJ39,3p7qk0gj4wyyvhrnruxexlrqk8i2zm,39l1g8wvwu4s8n0sel7tdl8x2h6136,RGoAeJ39,2020-0188,2020-06-17,06:39:35,06:58:49,NA,incomplete,153,gender,3,1,left,A_F_12.jpg,C_F_07.jpg,A_M_03.jpg,left,749.3699999999953,true,high,false
RGoAeJ39,3p7qk0gj4wyyvhrnruxexlrqk8i2zm,39l1g8wvwu4s8n0sel7tdl8x2h6136,RGoAeJ39,2020-0188,2020-06-17,06:39:35,06:58:49,NA,incomplete,154,gender,3,0,right,C_M_04.jpg,C_F_03.jpg,A_M_07.jpg,right,801.6800000000512,true,high,false
RGoAeJ39,3p7qk0gj4wyyvhrnruxexlrqk8i2zm,39l1g8wvwu4s8n0sel7tdl8x2h6136,RGoAeJ39,2020-0188,2020-06-17,06:39:35,06:58:49,NA,incomplete,155,gender,3,1,left,A_F_12.jpg,C_F_06.jpg,A_M_13.jpg,left,764.9999999998836,true,high,false
RGoAeJ39,3p7qk0gj4wyyvhrnruxexlrqk8i2zm,39l1g8wvwu4s8n0sel7tdl8x2h6136,RGoAeJ39,2020-0188,2020-06-17,06:39:35,06:58:49,NA,incomplete,156,gender,3,1,right,A_F_04.jpg,A_M_03.jpg,C_F_12.jpg,right,991.9399999998277,true,high,false
RGoAeJ39,3p7qk0gj4wyyvhrnruxexlrqk8i2zm,39l1g8wvwu4s8n0sel7tdl8x2h6136,RGoAeJ39,2020-0188,2020-06-17,06:39:35,06:58:49,NA,incomplete,157,gender,3,1,left,C_F_15.jpg,A_F_02.jpg,C_M_05.jpg,left,763.4800000000978,true,high,false
RGoAeJ39,3p7qk0gj4wyyvhrnruxexlrqk8i2zm,39l1g8wvwu4s8n0sel7tdl8x2h6136,RGoAeJ39,2020-0188,2020-06-17,06:39:35,06:58:49,NA,incomplete,158,gender,3,1,right,C_M_10.jpg,C_F_15.jpg,A_M_09.jpg,right,782.4899999999907,true,high,false
RGoAeJ39,3p7qk0gj4wyyvhrnruxexlrqk8i2zm,39l1g8wvwu4s8n0sel7tdl8x2h6136,RGoAeJ39,2020-0188,2020-06-17,06:39:35,06:58:49,NA,incomplete,159,gender,3,1,left,A_M_06.jpg,C_M_14.jpg,A_F_09.jpg,left,1049.5400000000373,true,high,false
RGoAeJ39,3p7qk0gj4wyyvhrnruxexlrqk8i2zm,39l1g8wvwu4s8n0sel7tdl8x2h6136,RGoAeJ39,2020-0188,2020-06-17,06:39:35,06:58:49,NA,incomplete,160,race,2,1,left,C_F_07.jpg,C_M_05.jpg,A_F_13.jpg,right,930.3249999999534,false,high,false
RGoAeJ39,3p7qk0gj4wyyvhrnruxexlrqk8i2zm,39l1g8wvwu4s8n0sel7tdl8x2h6136,RGoAeJ39,2020-0188,2020-06-17,06:39:35,06:58:49,NA,incomplete,161,race,2,1,left,C_M_11.jpg,C_F_04.jpg,A_M_07.jpg,right,966.4149999999208,false,high,false
RGoAeJ39,3p7qk0gj4wyyvhrnruxexlrqk8i2zm,39l1g8wvwu4s8n0sel7tdl8x2h6136,RGoAeJ39,2020-0188,2020-06-17,06:39:35,06:58:49,NA,incomplete,162,race,2,0,right,A_F_16.jpg,C_F_08.jpg,A_M_02.jpg,right,945.9349999999395,true,high,false
RGoAeJ39,3p7qk0gj4wyyvhrnruxexlrqk8i2zm,39l1g8wvwu4s8n0sel7tdl8x2h6136,RGoAeJ39,2020-0188,2020-06-17,06:39:35,06:58:49,NA,incomplete,163,race,2,1,left,C_M_09.jpg,C_F_04.jpg,A_M_11.jpg,left,1182.5849999999627,true,high,false
RGoAeJ39,3p7qk0gj4wyyvhrnruxexlrqk8i2zm,39l1g8wvwu4s8n0sel7tdl8x2h6136,RGoAeJ39,2020-0188,2020-06-17,06:39:35,06:58:49,NA,incomplete,164,race,2,0,left,C_M_05.jpg,C_F_11.jpg,A_M_10.jpg,right,1225.1449999999022,false,high,false
RGoAeJ39,3p7qk0gj4wyyvhrnruxexlrqk8i2zm,39l1g8wvwu4s8n0sel7tdl8x2h6136,RGoAeJ39,2020-0188,2020-06-17,06:39:35,06:58:49,NA,incomplete,165,race,2,1,right,A_M_07.jpg,C_M_08.jpg,A_F_11.jpg,left,1130.2349999998696,false,high,false
RGoAeJ39,3p7qk0gj4wyyvhrnruxexlrqk8i2zm,39l1g8wvwu4s8n0sel7tdl8x2h6136,RGoAeJ39,2020-0188,2020-06-17,06:39:35,06:58:49,NA,incomplete,166,race,2,1,right,C_F_09.jpg,A_F_01.jpg,C_M_03.jpg,left,1054.5849999998463,false,high,false
RGoAeJ39,3p7qk0gj4wyyvhrnruxexlrqk8i2zm,39l1g8wvwu4s8n0sel7tdl8x2h6136,RGoAeJ39,2020-0188,2020-06-17,06:39:35,06:58:49,NA,incomplete,167,race,2,0,left,A_F_09.jpg,A_M_01.jpg,C_F_05.jpg,right,1070.9150000000373,false,high,false
RGoAeJ39,3p7qk0gj4wyyvhrnruxexlrqk8i2zm,39l1g8wvwu4s8n0sel7tdl8x2h6136,RGoAeJ39,2020-0188,2020-06-17,06:39:35,06:58:49,NA,incomplete,168,race,2,1,right,C_F_15.jpg,A_F_16.jpg,C_M_05.jpg,left,1020.6850000000559,false,high,false
RGoAeJ39,3p7qk0gj4wyyvhrnruxexlrqk8i2zm,39l1g8wvwu4s8n0sel7tdl8x2h6136,RGoAeJ39,2020-0188,2020-06-17,06:39:35,06:58:49,NA,incomplete,169,race,2,0,right,A_F_02.jpg,C_F_15.jpg,A_M_01.jpg,right,957.0100000001257,true,high,false
RGoAeJ39,3p7qk0gj4wyyvhrnruxexlrqk8i2zm,39l1g8wvwu4s8n0sel7tdl8x2h6136,RGoAeJ39,2020-0188,2020-06-17,06:39:35,06:58:49,NA,incomplete,170,race,2,1,right,A_M_12.jpg,C_M_11.jpg,A_F_03.jpg,left,921.6599999999162,false,high,false
RGoAeJ39,3p7qk0gj4wyyvhrnruxexlrqk8i2zm,39l1g8wvwu4s8n0sel7tdl8x2h6136,RGoAeJ39,2020-0188,2020-06-17,06:39:35,06:58:49,NA,incomplete,171,race,2,1,right,A_M_14.jpg,C_M_15.jpg,A_F_10.jpg,left,927.375,false,high,false
RGoAeJ39,3p7qk0gj4wyyvhrnruxexlrqk8i2zm,39l1g8wvwu4s8n0sel7tdl8x2h6136,RGoAeJ39,2020-0188,2020-06-17,06:39:35,06:58:49,NA,incomplete,172,race,2,1,left,A_M_15.jpg,A_F_05.jpg,C_M_04.jpg,right,964.2450000001118,false,high,false
RGoAeJ39,3p7qk0gj4wyyvhrnruxexlrqk8i2zm,39l1g8wvwu4s8n0sel7tdl8x2h6136,RGoAeJ39,2020-0188,2020-06-17,06:39:35,06:58:49,NA,incomplete,173,race,2,0,left,A_M_13.jpg,A_F_03.jpg,C_M_05.jpg,left,848.4949999999953,true,high,false
RGoAeJ39,3p7qk0gj4wyyvhrnruxexlrqk8i2zm,39l1g8wvwu4s8n0sel7tdl8x2h6136,RGoAeJ39,2020-0188,2020-06-17,06:39:35,06:58:49,NA,incomplete,174,race,2,1,left,A_F_06.jpg,A_M_13.jpg,C_F_08.jpg,left,911.9100000000326,true,high,false
RGoAeJ39,3p7qk0gj4wyyvhrnruxexlrqk8i2zm,39l1g8wvwu4s8n0sel7tdl8x2h6136,RGoAeJ39,2020-0188,2020-06-17,06:39:35,06:58:49,NA,incomplete,175,race,2,0,left,A_M_10.jpg,A_F_13.jpg,C_M_05.jpg,left,1214.204999999958,true,high,false
RGoAeJ39,3p7qk0gj4wyyvhrnruxexlrqk8i2zm,39l1g8wvwu4s8n0sel7tdl8x2h6136,RGoAeJ39,2020-0188,2020-06-17,06:39:35,06:58:49,NA,incomplete,176,race,2,1,right,C_M_05.jpg,A_M_08.jpg,C_F_09.jpg,right,1303.4199999999255,true,high,false
RGoAeJ39,3p7qk0gj4wyyvhrnruxexlrqk8i2zm,39l1g8wvwu4s8n0sel7tdl8x2h6136,RGoAeJ39,2020-0188,2020-06-17,06:39:35,06:58:49,NA,incomplete,177,race,2,1,left,C_M_02.jpg,C_F_04.jpg,A_M_11.jpg,left,1492.544999999809,true,high,false
RGoAeJ39,3p7qk0gj4wyyvhrnruxexlrqk8i2zm,39l1g8wvwu4s8n0sel7tdl8x2h6136,RGoAeJ39,2020-0188,2020-06-17,06:39:35,06:58:49,NA,incomplete,178,race,2,1,right,C_F_09.jpg,A_F_11.jpg,C_M_08.jpg,right,985.7300000000978,true,high,false
RGoAeJ39,3p7qk0gj4wyyvhrnruxexlrqk8i2zm,39l1g8wvwu4s8n0sel7tdl8x2h6136,RGoAeJ39,2020-0188,2020-06-17,06:39:35,06:58:49,NA,incomplete,179,race,2,1,left,C_M_03.jpg,C_F_02.jpg,A_M_10.jpg,left,1035.8349999999627,true,high,false
RGoAeJ39,3p7qk0gj4wyyvhrnruxexlrqk8i2zm,39l1g8wvwu4s8n0sel7tdl8x2h6136,RGoAeJ39,2020-0188,2020-06-17,06:39:35,06:58:49,NA,incomplete,180,gender,3,1,right,C_M_09.jpg,C_F_05.jpg,A_M_13.jpg,left,956.5449999999255,false,high,false
RGoAeJ39,3p7qk0gj4wyyvhrnruxexlrqk8i2zm,39l1g8wvwu4s8n0sel7tdl8x2h6136,RGoAeJ39,2020-0188,2020-06-17,06:39:35,06:58:49,NA,incomplete,181,gender,3,1,right,C_F_03.jpg,C_M_09.jpg,A_F_14.jpg,left,919.1700000000419,false,high,false
RGoAeJ39,3p7qk0gj4wyyvhrnruxexlrqk8i2zm,39l1g8wvwu4s8n0sel7tdl8x2h6136,RGoAeJ39,2020-0188,2020-06-17,06:39:35,06:58:49,NA,incomplete,182,gender,3,0,right,C_M_08.jpg,C_F_07.jpg,A_M_13.jpg,left,883.5250000001397,false,high,false
RGoAeJ39,3p7qk0gj4wyyvhrnruxexlrqk8i2zm,39l1g8wvwu4s8n0sel7tdl8x2h6136,RGoAeJ39,2020-0188,2020-06-17,06:39:35,06:58:49,NA,incomplete,183,gender,3,1,left,C_M_13.jpg,A_M_01.jpg,C_F_14.jpg,right,1123.890000000014,false,high,false
RGoAeJ39,3p7qk0gj4wyyvhrnruxexlrqk8i2zm,39l1g8wvwu4s8n0sel7tdl8x2h6136,RGoAeJ39,2020-0188,2020-06-17,06:39:35,06:58:49,NA,incomplete,184,gender,3,0,left,C_F_15.jpg,A_F_09.jpg,C_M_02.jpg,left,976.5050000001211,true,high,false
RGoAeJ39,3p7qk0gj4wyyvhrnruxexlrqk8i2zm,39l1g8wvwu4s8n0sel7tdl8x2h6136,RGoAeJ39,2020-0188,2020-06-17,06:39:35,06:58:49,NA,incomplete,185,gender,3,1,right,A_F_02.jpg,A_M_07.jpg,C_F_10.jpg,left,1387.4199999999255,false,high,false
RGoAeJ39,3p7qk0gj4wyyvhrnruxexlrqk8i2zm,39l1g8wvwu4s8n0sel7tdl8x2h6136,RGoAeJ39,2020-0188,2020-06-17,06:39:35,06:58:49,NA,incomplete,186,gender,3,1,left,A_F_10.jpg,C_F_12.jpg,A_M_02.jpg,right,1165.8699999999953,false,high,false
RGoAeJ39,3p7qk0gj4wyyvhrnruxexlrqk8i2zm,39l1g8wvwu4s8n0sel7tdl8x2h6136,RGoAeJ39,2020-0188,2020-06-17,06:39:35,06:58:49,NA,incomplete,187,gender,3,0,right,C_M_01.jpg,C_F_16.jpg,A_M_03.jpg,right,1095.4750000000931,true,high,false
RGoAeJ39,3p7qk0gj4wyyvhrnruxexlrqk8i2zm,39l1g8wvwu4s8n0sel7tdl8x2h6136,RGoAeJ39,2020-0188,2020-06-17,06:39:35,06:58:49,NA,incomplete,188,gender,3,1,right,C_M_10.jpg,C_F_04.jpg,A_M_08.jpg,left,1702.1799999999348,false,high,false
RGoAeJ39,3p7qk0gj4wyyvhrnruxexlrqk8i2zm,39l1g8wvwu4s8n0sel7tdl8x2h6136,RGoAeJ39,2020-0188,2020-06-17,06:39:35,06:58:49,NA,incomplete,189,gender,3,0,left,C_M_11.jpg,A_M_03.jpg,C_F_06.jpg,right,1235.3799999998882,false,high,false
RGoAeJ39,3p7qk0gj4wyyvhrnruxexlrqk8i2zm,39l1g8wvwu4s8n0sel7tdl8x2h6136,RGoAeJ39,2020-0188,2020-06-17,06:39:35,06:58:49,NA,incomplete,190,gender,3,1,left,C_M_11.jpg,A_M_04.jpg,C_F_01.jpg,right,1476.190000000177,false,high,false
RGoAeJ39,3p7qk0gj4wyyvhrnruxexlrqk8i2zm,39l1g8wvwu4s8n0sel7tdl8x2h6136,RGoAeJ39,2020-0188,2020-06-17,06:39:35,06:58:49,NA,incomplete,191,gender,3,1,left,C_M_02.jpg,A_M_06.jpg,C_F_07.jpg,left,1250.4999999998836,true,high,false
RGoAeJ39,3p7qk0gj4wyyvhrnruxexlrqk8i2zm,39l1g8wvwu4s8n0sel7tdl8x2h6136,RGoAeJ39,2020-0188,2020-06-17,06:39:35,06:58:49,NA,incomplete,192,gender,3,1,left,C_M_05.jpg,A_M_15.jpg,C_F_07.jpg,left,1027.5900000000838,true,high,false
RGoAeJ39,3p7qk0gj4wyyvhrnruxexlrqk8i2zm,39l1g8wvwu4s8n0sel7tdl8x2h6136,RGoAeJ39,2020-0188,2020-06-17,06:39:35,06:58:49,NA,incomplete,193,gender,3,0,right,A_M_10.jpg,A_F_09.jpg,C_M_07.jpg,right,1124.490000000107,true,high,false
RGoAeJ39,3p7qk0gj4wyyvhrnruxexlrqk8i2zm,39l1g8wvwu4s8n0sel7tdl8x2h6136,RGoAeJ39,2020-0188,2020-06-17,06:39:35,06:58:49,NA,incomplete,194,gender,3,1,left,C_M_07.jpg,A_M_04.jpg,C_F_03.jpg,left,960.2399999998743,true,high,false
RGoAeJ39,3p7qk0gj4wyyvhrnruxexlrqk8i2zm,39l1g8wvwu4s8n0sel7tdl8x2h6136,RGoAeJ39,2020-0188,2020-06-17,06:39:35,06:58:49,NA,incomplete,195,gender,3,1,right,C_M_16.jpg,C_F_05.jpg,A_M_13.jpg,right,826.6050000002142,true,high,false
RGoAeJ39,3p7qk0gj4wyyvhrnruxexlrqk8i2zm,39l1g8wvwu4s8n0sel7tdl8x2h6136,RGoAeJ39,2020-0188,2020-06-17,06:39:35,06:58:49,NA,incomplete,196,gender,3,0,left,C_M_13.jpg,A_M_01.jpg,C_F_15.jpg,left,916.949999999837,true,high,false
RGoAeJ39,3p7qk0gj4wyyvhrnruxexlrqk8i2zm,39l1g8wvwu4s8n0sel7tdl8x2h6136,RGoAeJ39,2020-0188,2020-06-17,06:39:35,06:58:49,NA,incomplete,197,gender,3,1,left,A_F_06.jpg,C_F_07.jpg,A_M_08.jpg,right,1154.9000000000233,false,high,false
RGoAeJ39,3p7qk0gj4wyyvhrnruxexlrqk8i2zm,39l1g8wvwu4s8n0sel7tdl8x2h6136,RGoAeJ39,2020-0188,2020-06-17,06:39:35,06:58:49,NA,incomplete,198,gender,3,1,left,A_M_14.jpg,C_M_08.jpg,A_F_13.jpg,left,1301.6999999999534,true,high,false
RGoAeJ39,3p7qk0gj4wyyvhrnruxexlrqk8i2zm,39l1g8wvwu4s8n0sel7tdl8x2h6136,RGoAeJ39,2020-0188,2020-06-17,06:39:35,06:58:49,NA,incomplete,199,gender,3,0,right,A_F_10.jpg,A_M_14.jpg,C_F_16.jpg,right,955.5249999999069,true,high,false
RGoAeJ39,3p7qk0gj4wyyvhrnruxexlrqk8i2zm,39l1g8wvwu4s8n0sel7tdl8x2h6136,RGoAeJ39,2020-0188,2020-06-17,06:39:35,06:58:49,NA,incomplete,200,race,2,1,left,C_F_07.jpg,C_M_06.jpg,A_F_13.jpg,right,1263.6200000002282,false,high,false
RGoAeJ39,3p7qk0gj4wyyvhrnruxexlrqk8i2zm,39l1g8wvwu4s8n0sel7tdl8x2h6136,RGoAeJ39,2020-0188,2020-06-17,06:39:35,06:58:49,NA,incomplete,201,race,2,1,left,A_M_03.jpg,A_F_14.jpg,C_M_16.jpg,right,1382.520000000135,false,high,false
RGoAeJ39,3p7qk0gj4wyyvhrnruxexlrqk8i2zm,39l1g8wvwu4s8n0sel7tdl8x2h6136,RGoAeJ39,2020-0188,2020-06-17,06:39:35,06:58:49,NA,incomplete,202,race,2,1,left,A_F_02.jpg,A_M_16.jpg,C_F_04.jpg,left,961.1949999998324,true,high,false
RGoAeJ39,3p7qk0gj4wyyvhrnruxexlrqk8i2zm,39l1g8wvwu4s8n0sel7tdl8x2h6136,RGoAeJ39,2020-0188,2020-06-17,06:39:35,06:58:49,NA,incomplete,203,race,2,1,left,A_M_11.jpg,A_F_01.jpg,C_M_08.jpg,left,1012.6300000001211,true,high,false
RGoAeJ39,3p7qk0gj4wyyvhrnruxexlrqk8i2zm,39l1g8wvwu4s8n0sel7tdl8x2h6136,RGoAeJ39,2020-0188,2020-06-17,06:39:35,06:58:49,NA,incomplete,204,race,2,1,left,C_M_01.jpg,C_F_05.jpg,A_M_04.jpg,right,1157.7499999998836,false,high,false
RGoAeJ39,3p7qk0gj4wyyvhrnruxexlrqk8i2zm,39l1g8wvwu4s8n0sel7tdl8x2h6136,RGoAeJ39,2020-0188,2020-06-17,06:39:35,06:58:49,NA,incomplete,205,race,2,1,right,C_F_12.jpg,A_F_03.jpg,C_M_01.jpg,right,1513.6299999998882,true,high,false
RGoAeJ39,3p7qk0gj4wyyvhrnruxexlrqk8i2zm,39l1g8wvwu4s8n0sel7tdl8x2h6136,RGoAeJ39,2020-0188,2020-06-17,06:39:35,06:58:49,NA,incomplete,206,race,2,1,left,A_M_06.jpg,A_F_13.jpg,C_M_11.jpg,left,830.7800000002608,true,high,false
RGoAeJ39,3p7qk0gj4wyyvhrnruxexlrqk8i2zm,39l1g8wvwu4s8n0sel7tdl8x2h6136,RGoAeJ39,2020-0188,2020-06-17,06:39:35,06:58:49,NA,incomplete,207,race,2,1,right,A_M_07.jpg,C_M_02.jpg,A_F_08.jpg,right,856.0550000001676,true,high,false
RGoAeJ39,3p7qk0gj4wyyvhrnruxexlrqk8i2zm,39l1g8wvwu4s8n0sel7tdl8x2h6136,RGoAeJ39,2020-0188,2020-06-17,06:39:35,06:58:49,NA,incomplete,208,race,2,1,right,A_M_03.jpg,C_M_10.jpg,A_F_11.jpg,right,950.4200000001583,true,high,false
RGoAeJ39,3p7qk0gj4wyyvhrnruxexlrqk8i2zm,39l1g8wvwu4s8n0sel7tdl8x2h6136,RGoAeJ39,2020-0188,2020-06-17,06:39:35,06:58:49,NA,incomplete,209,race,2,1,left,A_M_03.jpg,A_F_05.jpg,C_M_13.jpg,left,884.4550000003073,true,high,false
RGoAeJ39,3p7qk0gj4wyyvhrnruxexlrqk8i2zm,39l1g8wvwu4s8n0sel7tdl8x2h6136,RGoAeJ39,2020-0188,2020-06-17,06:39:35,06:58:49,NA,incomplete,210,race,2,1,right,C_M_05.jpg,A_M_13.jpg,C_F_16.jpg,left,1347.0750000000698,false,high,false
RGoAeJ39,3p7qk0gj4wyyvhrnruxexlrqk8i2zm,39l1g8wvwu4s8n0sel7tdl8x2h6136,RGoAeJ39,2020-0188,2020-06-17,06:39:35,06:58:49,NA,incomplete,211,race,2,1,right,C_M_06.jpg,A_M_14.jpg,C_F_16.jpg,right,1526.2299999999814,true,high,false
RGoAeJ39,3p7qk0gj4wyyvhrnruxexlrqk8i2zm,39l1g8wvwu4s8n0sel7tdl8x2h6136,RGoAeJ39,2020-0188,2020-06-17,06:39:35,06:58:49,NA,incomplete,212,race,2,1,right,A_M_13.jpg,C_M_01.jpg,A_F_02.jpg,right,1298.2950000001583,true,high,false
RGoAeJ39,3p7qk0gj4wyyvhrnruxexlrqk8i2zm,39l1g8wvwu4s8n0sel7tdl8x2h6136,RGoAeJ39,2020-0188,2020-06-17,06:39:35,06:58:49,NA,incomplete,213,race,2,1,left,A_F_14.jpg,A_M_10.jpg,C_F_12.jpg,left,903.6999999997206,true,high,false
RGoAeJ39,3p7qk0gj4wyyvhrnruxexlrqk8i2zm,39l1g8wvwu4s8n0sel7tdl8x2h6136,RGoAeJ39,2020-0188,2020-06-17,06:39:35,06:58:49,NA,incomplete,214,race,2,1,right,A_F_12.jpg,C_F_05.jpg,A_M_02.jpg,right,998.5449999999255,true,high,false
RGoAeJ39,3p7qk0gj4wyyvhrnruxexlrqk8i2zm,39l1g8wvwu4s8n0sel7tdl8x2h6136,RGoAeJ39,2020-0188,2020-06-17,06:39:35,06:58:49,NA,incomplete,215,race,2,1,left,C_F_08.jpg,C_M_04.jpg,A_F_07.jpg,left,951.785000000149,true,high,false
RGoAeJ39,3p7qk0gj4wyyvhrnruxexlrqk8i2zm,39l1g8wvwu4s8n0sel7tdl8x2h6136,RGoAeJ39,2020-0188,2020-06-17,06:39:35,06:58:49,NA,incomplete,216,race,2,1,left,A_M_09.jpg,A_F_10.jpg,C_M_04.jpg,left,939.1650000002701,true,high,false
RGoAeJ39,3p7qk0gj4wyyvhrnruxexlrqk8i2zm,39l1g8wvwu4s8n0sel7tdl8x2h6136,RGoAeJ39,2020-0188,2020-06-17,06:39:35,06:58:49,NA,incomplete,217,race,2,1,left,A_F_14.jpg,A_M_08.jpg,C_F_03.jpg,left,767.3599999998696,true,high,false
RGoAeJ39,3p7qk0gj4wyyvhrnruxexlrqk8i2zm,39l1g8wvwu4s8n0sel7tdl8x2h6136,RGoAeJ39,2020-0188,2020-06-17,06:39:35,06:58:49,NA,incomplete,218,race,2,1,left,C_F_02.jpg,C_M_15.jpg,A_F_08.jpg,left,947.3649999999907,true,high,false
RGoAeJ39,3p7qk0gj4wyyvhrnruxexlrqk8i2zm,39l1g8wvwu4s8n0sel7tdl8x2h6136,RGoAeJ39,2020-0188,2020-06-17,06:39:35,06:58:49,NA,incomplete,219,race,2,1,right,A_M_10.jpg,C_M_07.jpg,A_F_04.jpg,right,984.9049999997951,true,high,false
RGoAeJ39,3p7qk0gj4wyyvhrnruxexlrqk8i2zm,39l1g8wvwu4s8n0sel7tdl8x2h6136,RGoAeJ39,2020-0188,2020-06-17,06:39:35,06:58:49,NA,incomplete,220,gender,3,0,right,A_F_03.jpg,A_M_05.jpg,C_F_15.jpg,left,850.875,false,high,false
RGoAeJ39,3p7qk0gj4wyyvhrnruxexlrqk8i2zm,39l1g8wvwu4s8n0sel7tdl8x2h6136,RGoAeJ39,2020-0188,2020-06-17,06:39:35,06:58:49,NA,incomplete,221,gender,3,1,right,A_M_02.jpg,A_F_13.jpg,C_M_11.jpg,left,978.5949999999721,false,high,false
RGoAeJ39,3p7qk0gj4wyyvhrnruxexlrqk8i2zm,39l1g8wvwu4s8n0sel7tdl8x2h6136,RGoAeJ39,2020-0188,2020-06-17,06:39:35,06:58:49,NA,incomplete,222,gender,3,1,left,A_F_16.jpg,C_F_10.jpg,A_M_04.jpg,right,1012.4399999999441,false,high,false
RGoAeJ39,3p7qk0gj4wyyvhrnruxexlrqk8i2zm,39l1g8wvwu4s8n0sel7tdl8x2h6136,RGoAeJ39,2020-0188,2020-06-17,06:39:35,06:58:49,NA,incomplete,223,gender,3,1,right,C_M_07.jpg,C_F_04.jpg,A_M_06.jpg,left,1191.9350000002887,false,high,false
RGoAeJ39,3p7qk0gj4wyyvhrnruxexlrqk8i2zm,39l1g8wvwu4s8n0sel7tdl8x2h6136,RGoAeJ39,2020-0188,2020-06-17,06:39:35,06:58:49,NA,incomplete,224,gender,3,1,right,A_F_05.jpg,A_M_02.jpg,C_F_06.jpg,right,1096.5749999999534,true,high,false
RGoAeJ39,3p7qk0gj4wyyvhrnruxexlrqk8i2zm,39l1g8wvwu4s8n0sel7tdl8x2h6136,RGoAeJ39,2020-0188,2020-06-17,06:39:35,06:58:49,NA,incomplete,225,gender,3,1,right,C_F_11.jpg,C_M_08.jpg,A_F_05.jpg,right,782.934999999823,true,high,false
RGoAeJ39,3p7qk0gj4wyyvhrnruxexlrqk8i2zm,39l1g8wvwu4s8n0sel7tdl8x2h6136,RGoAeJ39,2020-0188,2020-06-17,06:39:35,06:58:49,NA,incomplete,226,gender,3,0,left,C_M_07.jpg,A_M_16.jpg,C_F_02.jpg,left,1058.0900000000838,true,high,false
RGoAeJ39,3p7qk0gj4wyyvhrnruxexlrqk8i2zm,39l1g8wvwu4s8n0sel7tdl8x2h6136,RGoAeJ39,2020-0188,2020-06-17,06:39:35,06:58:49,NA,incomplete,227,gender,3,1,right,C_F_07.jpg,C_M_16.jpg,A_F_13.jpg,right,890.1200000001118,true,high,false
RGoAeJ39,3p7qk0gj4wyyvhrnruxexlrqk8i2zm,39l1g8wvwu4s8n0sel7tdl8x2h6136,RGoAeJ39,2020-0188,2020-06-17,06:39:35,06:58:49,NA,incomplete,228,gender,3,1,left,A_F_04.jpg,C_F_01.jpg,A_M_02.jpg,left,760.0449999999255,true,high,false
RGoAeJ39,3p7qk0gj4wyyvhrnruxexlrqk8i2zm,39l1g8wvwu4s8n0sel7tdl8x2h6136,RGoAeJ39,2020-0188,2020-06-17,06:39:35,06:58:49,NA,incomplete,229,gender,3,0,left,A_F_11.jpg,C_F_16.jpg,A_M_03.jpg,left,756.2900000002701,true,high,false
RGoAeJ39,3p7qk0gj4wyyvhrnruxexlrqk8i2zm,39l1g8wvwu4s8n0sel7tdl8x2h6136,RGoAeJ39,2020-0188,2020-06-17,06:39:35,06:58:49,NA,incomplete,230,gender,3,1,right,A_M_03.jpg,A_F_08.jpg,C_M_09.jpg,right,1015.8449999999721,true,high,false
RGoAeJ39,3p7qk0gj4wyyvhrnruxexlrqk8i2zm,39l1g8wvwu4s8n0sel7tdl8x2h6136,RGoAeJ39,2020-0188,2020-06-17,06:39:35,06:58:49,NA,incomplete,231,gender,3,0,right,C_F_14.jpg,C_M_03.jpg,A_F_09.jpg,right,1008.6449999997858,true,high,false
RGoAeJ39,3p7qk0gj4wyyvhrnruxexlrqk8i2zm,39l1g8wvwu4s8n0sel7tdl8x2h6136,RGoAeJ39,2020-0188,2020-06-17,06:39:35,06:58:49,NA,incomplete,232,gender,3,1,right,A_F_07.jpg,A_M_01.jpg,C_F_02.jpg,right,707.1699999996927,true,high,false
RGoAeJ39,3p7qk0gj4wyyvhrnruxexlrqk8i2zm,39l1g8wvwu4s8n0sel7tdl8x2h6136,RGoAeJ39,2020-0188,2020-06-17,06:39:35,06:58:49,NA,incomplete,233,gender,3,1,right,A_F_15.jpg,A_M_01.jpg,C_F_09.jpg,right,632.0999999998603,true,high,false
RGoAeJ39,3p7qk0gj4wyyvhrnruxexlrqk8i2zm,39l1g8wvwu4s8n0sel7tdl8x2h6136,RGoAeJ39,2020-0188,2020-06-17,06:39:35,06:58:49,NA,incomplete,234,gender,3,1,right,A_M_15.jpg,A_F_04.jpg,C_M_11.jpg,right,858.9449999998324,true,high,false
RGoAeJ39,3p7qk0gj4wyyvhrnruxexlrqk8i2zm,39l1g8wvwu4s8n0sel7tdl8x2h6136,RGoAeJ39,2020-0188,2020-06-17,06:39:35,06:58:49,NA,incomplete,235,gender,3,1,right,A_M_10.jpg,A_F_14.jpg,C_M_16.jpg,right,849.0049999998882,true,high,false
RGoAeJ39,3p7qk0gj4wyyvhrnruxexlrqk8i2zm,39l1g8wvwu4s8n0sel7tdl8x2h6136,RGoAeJ39,2020-0188,2020-06-17,06:39:35,06:58:49,NA,incomplete,236,gender,3,1,right,A_F_02.jpg,A_M_05.jpg,C_F_11.jpg,left,690.3549999997485,false,high,false
RGoAeJ39,3p7qk0gj4wyyvhrnruxexlrqk8i2zm,39l1g8wvwu4s8n0sel7tdl8x2h6136,RGoAeJ39,2020-0188,2020-06-17,06:39:35,06:58:49,NA,incomplete,237,gender,3,1,left,A_F_08.jpg,C_F_02.jpg,A_M_12.jpg,right,1129.8550000002142,false,high,false
RGoAeJ39,3p7qk0gj4wyyvhrnruxexlrqk8i2zm,39l1g8wvwu4s8n0sel7tdl8x2h6136,RGoAeJ39,2020-0188,2020-06-17,06:39:35,06:58:49,NA,incomplete,238,gender,3,0,right,A_F_11.jpg,A_M_04.jpg,C_F_15.jpg,right,1076.9350000000559,true,high,false
RGoAeJ39,3p7qk0gj4wyyvhrnruxexlrqk8i2zm,39l1g8wvwu4s8n0sel7tdl8x2h6136,RGoAeJ39,2020-0188,2020-06-17,06:39:35,06:58:49,NA,incomplete,239,gender,3,1,right,C_F_04.jpg,C_M_08.jpg,A_F_16.jpg,right,717.4449999998324,true,high,false
RGoAeJ39,3p7qk0gj4wyyvhrnruxexlrqk8i2zm,39l1g8wvwu4s8n0sel7tdl8x2h6136,RGoAeJ39,2020-0188,2020-06-17,06:39:35,06:58:49,NA,NA,instruction example,shape,NA,NA,NA,Green_Plus_Stripes_2.jpg,Purple_Plus_Dots_3.jpg,Red_Star_Stripes_1.jpg,NA,NA,NA,NA,undefined
RGoAeJ39,3p7qk0gj4wyyvhrnruxexlrqk8i2zm,39l1g8wvwu4s8n0sel7tdl8x2h6136,RGoAeJ39,2020-0188,2020-06-17,06:39:35,06:58:49,NA,NA,instruction example,shape,NA,NA,NA,Blue_Triangle_Chess_3.jpg,Purple_Star_Chess_2.jpg,Red_Triangle_Stripes_4.jpg,NA,NA,NA,NA,undefined
RGoAeJ39,3p7qk0gj4wyyvhrnruxexlrqk8i2zm,39l1g8wvwu4s8n0sel7tdl8x2h6136,RGoAeJ39,2020-0188,2020-06-17,06:39:35,06:58:49,NA,NA,instruction example,shape,NA,NA,NA,A_F_03.jpg,A_M_02.jpg,C_F_05.jpg,NA,NA,NA,NA,undefined
RGoAeJ39,3p7qk0gj4wyyvhrnruxexlrqk8i2zm,39l1g8wvwu4s8n0sel7tdl8x2h6136,RGoAeJ39,2020-0188,2020-06-17,06:39:35,06:58:49,NA,NA,instruction example,shape,NA,NA,NA,C_M_11.jpg,A_M_02.jpg,C_F_16.jpg,NA,NA,NA,NA,undefined
