workerId,hitId,assignmentId,subject,studyid,exp_date,exp_start,exp_end,time_start,time_end,trial,type,sequence,reward_validity,answer,image_top,image_left,image_right,response,response_time,response_acc,volatility,practice
0zkHfODO,3p7qk0gj4wyyvhrnruxexlrqk8i2zm,39loel67owiajnkdd6g8svv5gj983m,0zkHfODO,2020-0188,2020-06-16,13:01:52,13:22:20,NA,incomplete,0,filling,0,0,right,Green_Star_Grid_4.jpg,Purple_Star_Chess_3.jpg,Red_Triangle_Grid_1.jpg,right,1443.445000000822,true,NA,true
0zkHfODO,3p7qk0gj4wyyvhrnruxexlrqk8i2zm,39loel67owiajnkdd6g8svv5gj983m,0zkHfODO,2020-0188,2020-06-16,13:01:52,13:22:20,NA,incomplete,1,filling,0,1,left,Blue_Plus_Dots_1.jpg,Purple_Star_Dots_2.jpg,Red_Plus_Grid_4.jpg,left,1086.490000001504,true,NA,true
0zkHfODO,3p7qk0gj4wyyvhrnruxexlrqk8i2zm,39loel67owiajnkdd6g8svv5gj983m,0zkHfODO,2020-0188,2020-06-16,13:01:52,13:22:20,NA,incomplete,2,filling,0,1,left,Blue_Triangle_Dots_3.jpg,Purple_Plus_Dots_2.jpg,Red_Triangle_Grid_1.jpg,left,1116.7249999998603,true,NA,true
0zkHfODO,3p7qk0gj4wyyvhrnruxexlrqk8i2zm,39loel67owiajnkdd6g8svv5gj983m,0zkHfODO,2020-0188,2020-06-16,13:01:52,13:22:20,NA,incomplete,3,filling,0,1,left,Red_Plus_Grid_1.jpg,Blue_Star_Grid_4.jpg,Purple_Plus_Chess_3.jpg,right,986.3299999997253,false,NA,true
0zkHfODO,3p7qk0gj4wyyvhrnruxexlrqk8i2zm,39loel67owiajnkdd6g8svv5gj983m,0zkHfODO,2020-0188,2020-06-16,13:01:52,13:22:20,NA,incomplete,4,filling,0,1,right,Blue_Circle_Chess_4.jpg,Red_Circle_Grid_3.jpg,Purple_Star_Chess_2.jpg,right,1055.47999999905,true,NA,true
0zkHfODO,3p7qk0gj4wyyvhrnruxexlrqk8i2zm,39loel67owiajnkdd6g8svv5gj983m,0zkHfODO,2020-0188,2020-06-16,13:01:52,13:22:20,NA,incomplete,5,filling,0,0,left,Purple_Circle_Stripes_4.jpg,Green_Star_Stripes_3.jpg,Blue_Circle_Dots_2.jpg,left,880.9500000024564,true,NA,true
0zkHfODO,3p7qk0gj4wyyvhrnruxexlrqk8i2zm,39loel67owiajnkdd6g8svv5gj983m,0zkHfODO,2020-0188,2020-06-16,13:01:52,13:22:20,NA,incomplete,6,filling,0,0,left,Green_Star_Dots_1.jpg,Red_Plus_Dots_2.jpg,Purple_Star_Chess_3.jpg,left,970.8949999985052,true,NA,true
0zkHfODO,3p7qk0gj4wyyvhrnruxexlrqk8i2zm,39loel67owiajnkdd6g8svv5gj983m,0zkHfODO,2020-0188,2020-06-16,13:01:52,13:22:20,NA,incomplete,7,filling,0,1,left,Green_Star_Stripes_1.jpg,Blue_Plus_Stripes_2.jpg,Red_Star_Grid_4.jpg,left,1167.8800000008778,true,NA,true
0zkHfODO,3p7qk0gj4wyyvhrnruxexlrqk8i2zm,39loel67owiajnkdd6g8svv5gj983m,0zkHfODO,2020-0188,2020-06-16,13:01:52,13:22:20,NA,incomplete,8,filling,0,1,left,Purple_Triangle_Stripes_3.jpg,Blue_Star_Stripes_4.jpg,Green_Triangle_Grid_2.jpg,left,939.7250000001513,true,NA,true
0zkHfODO,3p7qk0gj4wyyvhrnruxexlrqk8i2zm,39loel67owiajnkdd6g8svv5gj983m,0zkHfODO,2020-0188,2020-06-16,13:01:52,13:22:20,NA,incomplete,9,filling,0,1,left,Purple_Star_Grid_3.jpg,Green_Circle_Grid_2.jpg,Blue_Star_Chess_1.jpg,left,995.3150000000605,true,NA,true
0zkHfODO,3p7qk0gj4wyyvhrnruxexlrqk8i2zm,39loel67owiajnkdd6g8svv5gj983m,0zkHfODO,2020-0188,2020-06-16,13:01:52,13:22:20,NA,incomplete,10,filling,0,1,left,Red_Circle_Dots_1.jpg,Green_Star_Dots_3.jpg,Blue_Circle_Chess_4.jpg,left,919.3650000015623,true,NA,true
0zkHfODO,3p7qk0gj4wyyvhrnruxexlrqk8i2zm,39loel67owiajnkdd6g8svv5gj983m,0zkHfODO,2020-0188,2020-06-16,13:01:52,13:22:20,NA,incomplete,11,filling,0,1,right,Green_Star_Stripes_1.jpg,Red_Star_Dots_4.jpg,Blue_Triangle_Stripes_3.jpg,right,911.2949999980628,true,NA,true
0zkHfODO,3p7qk0gj4wyyvhrnruxexlrqk8i2zm,39loel67owiajnkdd6g8svv5gj983m,0zkHfODO,2020-0188,2020-06-16,13:01:52,13:22:20,NA,incomplete,12,filling,0,1,right,Blue_Plus_Chess_4.jpg,Red_Plus_Dots_1.jpg,Purple_Star_Chess_2.jpg,right,1192.2350000022561,true,NA,true
0zkHfODO,3p7qk0gj4wyyvhrnruxexlrqk8i2zm,39loel67owiajnkdd6g8svv5gj983m,0zkHfODO,2020-0188,2020-06-16,13:01:52,13:22:20,NA,incomplete,13,filling,0,1,right,Red_Star_Grid_4.jpg,Green_Star_Stripes_3.jpg,Purple_Plus_Grid_2.jpg,right,1202.7999999991152,true,NA,true
0zkHfODO,3p7qk0gj4wyyvhrnruxexlrqk8i2zm,39loel67owiajnkdd6g8svv5gj983m,0zkHfODO,2020-0188,2020-06-16,13:01:52,13:22:20,NA,incomplete,14,filling,0,1,right,Green_Triangle_Stripes_1.jpg,Blue_Triangle_Chess_4.jpg,Red_Plus_Stripes_3.jpg,right,1114.949999999255,true,NA,true
0zkHfODO,3p7qk0gj4wyyvhrnruxexlrqk8i2zm,39loel67owiajnkdd6g8svv5gj983m,0zkHfODO,2020-0188,2020-06-16,13:01:52,13:22:20,NA,incomplete,15,filling,0,1,left,Red_Triangle_Dots_1.jpg,Blue_Star_Dots_2.jpg,Purple_Triangle_Grid_4.jpg,left,1112.7200000009616,true,NA,true
0zkHfODO,3p7qk0gj4wyyvhrnruxexlrqk8i2zm,39loel67owiajnkdd6g8svv5gj983m,0zkHfODO,2020-0188,2020-06-16,13:01:52,13:22:20,NA,incomplete,16,filling,0,1,right,Purple_Plus_Stripes_2.jpg,Blue_Plus_Grid_1.jpg,Red_Triangle_Stripes_3.jpg,right,1144.4449999980861,true,NA,true
0zkHfODO,3p7qk0gj4wyyvhrnruxexlrqk8i2zm,39loel67owiajnkdd6g8svv5gj983m,0zkHfODO,2020-0188,2020-06-16,13:01:52,13:22:20,NA,incomplete,17,filling,0,1,right,Blue_Star_Grid_1.jpg,Green_Star_Stripes_4.jpg,Red_Plus_Grid_3.jpg,right,1187.1050000009127,true,NA,true
0zkHfODO,3p7qk0gj4wyyvhrnruxexlrqk8i2zm,39loel67owiajnkdd6g8svv5gj983m,0zkHfODO,2020-0188,2020-06-16,13:01:52,13:22:20,NA,incomplete,18,filling,0,0,left,Green_Plus_Chess_4.jpg,Blue_Circle_Chess_2.jpg,Red_Plus_Dots_1.jpg,left,1020.1299999970943,true,NA,true
0zkHfODO,3p7qk0gj4wyyvhrnruxexlrqk8i2zm,39loel67owiajnkdd6g8svv5gj983m,0zkHfODO,2020-0188,2020-06-16,13:01:52,13:22:20,NA,incomplete,19,filling,0,1,left,Red_Plus_Dots_1.jpg,Blue_Circle_Dots_2.jpg,Purple_Plus_Stripes_4.jpg,left,1071.1850000007544,true,NA,true
0zkHfODO,3p7qk0gj4wyyvhrnruxexlrqk8i2zm,39loel67owiajnkdd6g8svv5gj983m,0zkHfODO,2020-0188,2020-06-16,13:01:52,13:22:20,NA,incomplete,20,shape,1,1,left,Blue_Triangle_Dots_3.jpg,Purple_Triangle_Stripes_1.jpg,Red_Plus_Dots_2.jpg,left,1022.9450000006473,true,NA,true
0zkHfODO,3p7qk0gj4wyyvhrnruxexlrqk8i2zm,39loel67owiajnkdd6g8svv5gj983m,0zkHfODO,2020-0188,2020-06-16,13:01:52,13:22:20,NA,incomplete,21,shape,1,1,right,Purple_Triangle_Stripes_3.jpg,Red_Circle_Stripes_1.jpg,Green_Triangle_Dots_2.jpg,right,672.8750000002328,true,NA,true
0zkHfODO,3p7qk0gj4wyyvhrnruxexlrqk8i2zm,39loel67owiajnkdd6g8svv5gj983m,0zkHfODO,2020-0188,2020-06-16,13:01:52,13:22:20,NA,incomplete,22,shape,1,1,left,Purple_Star_Chess_2.jpg,Green_Star_Dots_1.jpg,Red_Circle_Chess_4.jpg,left,632.4649999988033,true,NA,true
0zkHfODO,3p7qk0gj4wyyvhrnruxexlrqk8i2zm,39loel67owiajnkdd6g8svv5gj983m,0zkHfODO,2020-0188,2020-06-16,13:01:52,13:22:20,NA,incomplete,23,shape,1,0,left,Blue_Star_Grid_1.jpg,Red_Star_Dots_4.jpg,Green_Triangle_Grid_3.jpg,left,703.4899999998743,true,NA,true
0zkHfODO,3p7qk0gj4wyyvhrnruxexlrqk8i2zm,39loel67owiajnkdd6g8svv5gj983m,0zkHfODO,2020-0188,2020-06-16,13:01:52,13:22:20,NA,incomplete,24,shape,1,0,right,Red_Plus_Stripes_3.jpg,Blue_Star_Stripes_2.jpg,Green_Plus_Chess_1.jpg,right,708.3800000000629,true,NA,true
0zkHfODO,3p7qk0gj4wyyvhrnruxexlrqk8i2zm,39loel67owiajnkdd6g8svv5gj983m,0zkHfODO,2020-0188,2020-06-16,13:01:52,13:22:20,NA,incomplete,25,shape,1,1,left,Red_Star_Dots_2.jpg,Blue_Star_Chess_1.jpg,Purple_Triangle_Dots_3.jpg,left,633.1150000005728,true,NA,true
0zkHfODO,3p7qk0gj4wyyvhrnruxexlrqk8i2zm,39loel67owiajnkdd6g8svv5gj983m,0zkHfODO,2020-0188,2020-06-16,13:01:52,13:22:20,NA,incomplete,26,shape,1,1,right,Blue_Circle_Grid_2.jpg,Green_Plus_Grid_1.jpg,Red_Circle_Dots_4.jpg,right,577.2300000025425,true,NA,true
0zkHfODO,3p7qk0gj4wyyvhrnruxexlrqk8i2zm,39loel67owiajnkdd6g8svv5gj983m,0zkHfODO,2020-0188,2020-06-16,13:01:52,13:22:20,NA,incomplete,27,shape,1,0,left,Blue_Triangle_Dots_3.jpg,Red_Triangle_Chess_1.jpg,Green_Circle_Dots_4.jpg,left,701.8549999993993,true,NA,true
0zkHfODO,3p7qk0gj4wyyvhrnruxexlrqk8i2zm,39loel67owiajnkdd6g8svv5gj983m,0zkHfODO,2020-0188,2020-06-16,13:01:52,13:22:20,NA,incomplete,28,shape,1,1,left,Purple_Plus_Grid_2.jpg,Green_Plus_Dots_1.jpg,Red_Triangle_Grid_3.jpg,left,704.9499999993714,true,NA,true
0zkHfODO,3p7qk0gj4wyyvhrnruxexlrqk8i2zm,39loel67owiajnkdd6g8svv5gj983m,0zkHfODO,2020-0188,2020-06-16,13:01:52,13:22:20,NA,incomplete,29,shape,1,1,right,Blue_Triangle_Grid_1.jpg,Red_Circle_Grid_4.jpg,Green_Triangle_Dots_2.jpg,right,613.7999999992317,true,NA,true
0zkHfODO,3p7qk0gj4wyyvhrnruxexlrqk8i2zm,39loel67owiajnkdd6g8svv5gj983m,0zkHfODO,2020-0188,2020-06-16,13:01:52,13:22:20,NA,incomplete,30,shape,1,1,right,Blue_Plus_Stripes_3.jpg,Purple_Triangle_Stripes_1.jpg,Red_Plus_Grid_2.jpg,right,643.9449999997742,true,NA,true
0zkHfODO,3p7qk0gj4wyyvhrnruxexlrqk8i2zm,39loel67owiajnkdd6g8svv5gj983m,0zkHfODO,2020-0188,2020-06-16,13:01:52,13:22:20,NA,incomplete,31,shape,1,1,right,Green_Triangle_Grid_4.jpg,Purple_Circle_Grid_3.jpg,Blue_Triangle_Chess_2.jpg,right,631.6050000023097,true,NA,true
0zkHfODO,3p7qk0gj4wyyvhrnruxexlrqk8i2zm,39loel67owiajnkdd6g8svv5gj983m,0zkHfODO,2020-0188,2020-06-16,13:01:52,13:22:20,NA,incomplete,32,shape,1,1,left,Green_Triangle_Stripes_3.jpg,Red_Triangle_Grid_2.jpg,Blue_Star_Stripes_1.jpg,left,593.300000000454,true,NA,true
0zkHfODO,3p7qk0gj4wyyvhrnruxexlrqk8i2zm,39loel67owiajnkdd6g8svv5gj983m,0zkHfODO,2020-0188,2020-06-16,13:01:52,13:22:20,NA,incomplete,33,shape,1,1,right,Blue_Star_Dots_2.jpg,Green_Triangle_Dots_3.jpg,Purple_Star_Chess_4.jpg,right,603.3649999990012,true,NA,true
0zkHfODO,3p7qk0gj4wyyvhrnruxexlrqk8i2zm,39loel67owiajnkdd6g8svv5gj983m,0zkHfODO,2020-0188,2020-06-16,13:01:52,13:22:20,NA,incomplete,34,shape,1,0,right,Purple_Star_Grid_4.jpg,Blue_Circle_Grid_2.jpg,Red_Star_Stripes_1.jpg,right,630.0699999992503,true,NA,true
0zkHfODO,3p7qk0gj4wyyvhrnruxexlrqk8i2zm,39loel67owiajnkdd6g8svv5gj983m,0zkHfODO,2020-0188,2020-06-16,13:01:52,13:22:20,NA,incomplete,35,shape,1,1,right,Green_Plus_Chess_2.jpg,Red_Triangle_Chess_1.jpg,Purple_Plus_Dots_4.jpg,right,718.0250000019441,true,NA,true
0zkHfODO,3p7qk0gj4wyyvhrnruxexlrqk8i2zm,39loel67owiajnkdd6g8svv5gj983m,0zkHfODO,2020-0188,2020-06-16,13:01:52,13:22:20,NA,incomplete,36,shape,1,1,left,Blue_Star_Dots_3.jpg,Green_Star_Stripes_4.jpg,Purple_Triangle_Dots_2.jpg,left,593.9099999995669,true,NA,true
0zkHfODO,3p7qk0gj4wyyvhrnruxexlrqk8i2zm,39loel67owiajnkdd6g8svv5gj983m,0zkHfODO,2020-0188,2020-06-16,13:01:52,13:22:20,NA,incomplete,37,shape,1,1,right,Purple_Triangle_Grid_2.jpg,Blue_Circle_Grid_1.jpg,Red_Triangle_Chess_4.jpg,right,556.6699999981793,true,NA,true
0zkHfODO,3p7qk0gj4wyyvhrnruxexlrqk8i2zm,39loel67owiajnkdd6g8svv5gj983m,0zkHfODO,2020-0188,2020-06-16,13:01:52,13:22:20,NA,incomplete,38,shape,1,1,left,Purple_Plus_Dots_3.jpg,Red_Plus_Stripes_4.jpg,Green_Triangle_Dots_2.jpg,left,568.7749999997905,true,NA,true
0zkHfODO,3p7qk0gj4wyyvhrnruxexlrqk8i2zm,39loel67owiajnkdd6g8svv5gj983m,0zkHfODO,2020-0188,2020-06-16,13:01:52,13:22:20,NA,incomplete,39,shape,1,1,left,Green_Plus_Grid_3.jpg,Red_Plus_Dots_1.jpg,Blue_Star_Grid_2.jpg,left,717.015000001993,true,NA,true
0zkHfODO,3p7qk0gj4wyyvhrnruxexlrqk8i2zm,39loel67owiajnkdd6g8svv5gj983m,0zkHfODO,2020-0188,2020-06-16,13:01:52,13:22:20,NA,incomplete,0,filling,0,1,right,Purple_Plus_Stripes_2.jpg,Green_Plus_Dots_3.jpg,Red_Triangle_Stripes_1.jpg,left,835.0649999993038,false,high,false
0zkHfODO,3p7qk0gj4wyyvhrnruxexlrqk8i2zm,39loel67owiajnkdd6g8svv5gj983m,0zkHfODO,2020-0188,2020-06-16,13:01:52,13:22:20,NA,incomplete,1,filling,0,1,left,Purple_Circle_Grid_3.jpg,Blue_Triangle_Grid_2.jpg,Green_Circle_Dots_4.jpg,left,840.3699999981327,true,high,false
0zkHfODO,3p7qk0gj4wyyvhrnruxexlrqk8i2zm,39loel67owiajnkdd6g8svv5gj983m,0zkHfODO,2020-0188,2020-06-16,13:01:52,13:22:20,NA,incomplete,2,filling,0,0,left,Blue_Plus_Grid_4.jpg,Green_Triangle_Grid_1.jpg,Purple_Plus_Dots_2.jpg,left,1037.5649999987218,true,high,false
0zkHfODO,3p7qk0gj4wyyvhrnruxexlrqk8i2zm,39loel67owiajnkdd6g8svv5gj983m,0zkHfODO,2020-0188,2020-06-16,13:01:52,13:22:20,NA,incomplete,3,filling,0,1,right,Red_Star_Dots_4.jpg,Purple_Star_Chess_1.jpg,Green_Triangle_Dots_2.jpg,right,1038.4699999995064,true,high,false
0zkHfODO,3p7qk0gj4wyyvhrnruxexlrqk8i2zm,39loel67owiajnkdd6g8svv5gj983m,0zkHfODO,2020-0188,2020-06-16,13:01:52,13:22:20,NA,incomplete,4,filling,0,1,right,Green_Star_Stripes_1.jpg,Red_Star_Dots_3.jpg,Blue_Circle_Stripes_2.jpg,right,894.1849999973783,true,high,false
0zkHfODO,3p7qk0gj4wyyvhrnruxexlrqk8i2zm,39loel67owiajnkdd6g8svv5gj983m,0zkHfODO,2020-0188,2020-06-16,13:01:52,13:22:20,NA,incomplete,5,filling,0,1,right,Purple_Plus_Dots_2.jpg,Blue_Plus_Grid_3.jpg,Green_Triangle_Dots_4.jpg,right,1082.5550000008661,true,high,false
0zkHfODO,3p7qk0gj4wyyvhrnruxexlrqk8i2zm,39loel67owiajnkdd6g8svv5gj983m,0zkHfODO,2020-0188,2020-06-16,13:01:52,13:22:20,NA,incomplete,6,filling,0,1,left,Purple_Circle_Grid_4.jpg,Blue_Triangle_Grid_2.jpg,Green_Circle_Chess_3.jpg,left,986.0699999990175,true,high,false
0zkHfODO,3p7qk0gj4wyyvhrnruxexlrqk8i2zm,39loel67owiajnkdd6g8svv5gj983m,0zkHfODO,2020-0188,2020-06-16,13:01:52,13:22:20,NA,incomplete,7,filling,0,1,right,Red_Star_Grid_1.jpg,Purple_Star_Dots_3.jpg,Blue_Plus_Grid_2.jpg,right,975.6450000022305,true,high,false
0zkHfODO,3p7qk0gj4wyyvhrnruxexlrqk8i2zm,39loel67owiajnkdd6g8svv5gj983m,0zkHfODO,2020-0188,2020-06-16,13:01:52,13:22:20,NA,incomplete,8,filling,0,1,right,Red_Triangle_Dots_1.jpg,Purple_Triangle_Stripes_2.jpg,Green_Star_Dots_3.jpg,right,948.8850000016391,true,high,false
0zkHfODO,3p7qk0gj4wyyvhrnruxexlrqk8i2zm,39loel67owiajnkdd6g8svv5gj983m,0zkHfODO,2020-0188,2020-06-16,13:01:52,13:22:20,NA,incomplete,9,filling,0,1,right,Green_Star_Chess_4.jpg,Purple_Star_Grid_3.jpg,Red_Plus_Chess_1.jpg,right,1179.7850000002654,true,high,false
0zkHfODO,3p7qk0gj4wyyvhrnruxexlrqk8i2zm,39loel67owiajnkdd6g8svv5gj983m,0zkHfODO,2020-0188,2020-06-16,13:01:52,13:22:20,NA,incomplete,10,shape,1,1,right,Purple_Star_Grid_2.jpg,Green_Circle_Grid_3.jpg,Blue_Star_Dots_1.jpg,left,997.4799999982351,false,high,false
0zkHfODO,3p7qk0gj4wyyvhrnruxexlrqk8i2zm,39loel67owiajnkdd6g8svv5gj983m,0zkHfODO,2020-0188,2020-06-16,13:01:52,13:22:20,NA,incomplete,11,shape,1,1,right,Red_Plus_Stripes_1.jpg,Purple_Star_Stripes_3.jpg,Green_Plus_Dots_2.jpg,left,889.4600000021746,false,high,false
0zkHfODO,3p7qk0gj4wyyvhrnruxexlrqk8i2zm,39loel67owiajnkdd6g8svv5gj983m,0zkHfODO,2020-0188,2020-06-16,13:01:52,13:22:20,NA,incomplete,12,shape,1,1,left,Purple_Circle_Stripes_4.jpg,Blue_Circle_Dots_3.jpg,Green_Star_Stripes_2.jpg,right,1013.0399999980582,false,high,false
0zkHfODO,3p7qk0gj4wyyvhrnruxexlrqk8i2zm,39loel67owiajnkdd6g8svv5gj983m,0zkHfODO,2020-0188,2020-06-16,13:01:52,13:22:20,NA,incomplete,13,shape,1,1,left,Red_Plus_Grid_3.jpg,Purple_Plus_Stripes_4.jpg,Green_Star_Grid_1.jpg,left,631.055000001681,true,high,false
0zkHfODO,3p7qk0gj4wyyvhrnruxexlrqk8i2zm,39loel67owiajnkdd6g8svv5gj983m,0zkHfODO,2020-0188,2020-06-16,13:01:52,13:22:20,NA,incomplete,14,shape,1,1,left,Red_Triangle_Stripes_1.jpg,Blue_Triangle_Chess_2.jpg,Green_Circle_Stripes_3.jpg,left,656.1650000003865,true,high,false
0zkHfODO,3p7qk0gj4wyyvhrnruxexlrqk8i2zm,39loel67owiajnkdd6g8svv5gj983m,0zkHfODO,2020-0188,2020-06-16,13:01:52,13:22:20,NA,incomplete,15,shape,1,1,right,Blue_Plus_Grid_1.jpg,Red_Star_Grid_2.jpg,Green_Plus_Dots_3.jpg,right,774.8099999990081,true,high,false
0zkHfODO,3p7qk0gj4wyyvhrnruxexlrqk8i2zm,39loel67owiajnkdd6g8svv5gj983m,0zkHfODO,2020-0188,2020-06-16,13:01:52,13:22:20,NA,incomplete,16,shape,1,1,left,Blue_Star_Dots_3.jpg,Green_Star_Chess_4.jpg,Purple_Triangle_Dots_2.jpg,left,631.8350000001956,true,high,false
0zkHfODO,3p7qk0gj4wyyvhrnruxexlrqk8i2zm,39loel67owiajnkdd6g8svv5gj983m,0zkHfODO,2020-0188,2020-06-16,13:01:52,13:22:20,NA,incomplete,17,shape,1,1,right,Green_Triangle_Grid_1.jpg,Purple_Plus_Grid_2.jpg,Red_Triangle_Stripes_4.jpg,right,609.5300000016578,true,high,false
0zkHfODO,3p7qk0gj4wyyvhrnruxexlrqk8i2zm,39loel67owiajnkdd6g8svv5gj983m,0zkHfODO,2020-0188,2020-06-16,13:01:52,13:22:20,NA,incomplete,18,shape,1,1,right,Green_Star_Chess_1.jpg,Purple_Circle_Chess_3.jpg,Red_Star_Grid_4.jpg,right,676.0400000021327,true,high,false
0zkHfODO,3p7qk0gj4wyyvhrnruxexlrqk8i2zm,39loel67owiajnkdd6g8svv5gj983m,0zkHfODO,2020-0188,2020-06-16,13:01:52,13:22:20,NA,incomplete,19,shape,1,1,left,Blue_Star_Chess_1.jpg,Purple_Star_Stripes_4.jpg,Green_Triangle_Chess_2.jpg,left,644.1799999992363,true,high,false
0zkHfODO,3p7qk0gj4wyyvhrnruxexlrqk8i2zm,39loel67owiajnkdd6g8svv5gj983m,0zkHfODO,2020-0188,2020-06-16,13:01:52,13:22:20,NA,incomplete,20,filling,0,0,left,Red_Triangle_Chess_2.jpg,Purple_Plus_Chess_4.jpg,Green_Triangle_Stripes_3.jpg,right,666.2749999995576,false,high,false
0zkHfODO,3p7qk0gj4wyyvhrnruxexlrqk8i2zm,39loel67owiajnkdd6g8svv5gj983m,0zkHfODO,2020-0188,2020-06-16,13:01:52,13:22:20,NA,incomplete,21,filling,0,1,right,Purple_Plus_Chess_4.jpg,Blue_Plus_Dots_2.jpg,Red_Star_Chess_1.jpg,left,624.2850000016624,false,high,false
0zkHfODO,3p7qk0gj4wyyvhrnruxexlrqk8i2zm,39loel67owiajnkdd6g8svv5gj983m,0zkHfODO,2020-0188,2020-06-16,13:01:52,13:22:20,NA,incomplete,22,filling,0,1,right,Green_Triangle_Stripes_4.jpg,Blue_Triangle_Grid_2.jpg,Purple_Plus_Stripes_1.jpg,left,633.7800000001444,false,high,false
0zkHfODO,3p7qk0gj4wyyvhrnruxexlrqk8i2zm,39loel67owiajnkdd6g8svv5gj983m,0zkHfODO,2020-0188,2020-06-16,13:01:52,13:22:20,NA,incomplete,23,filling,0,1,right,Blue_Circle_Dots_4.jpg,Green_Circle_Grid_2.jpg,Purple_Triangle_Dots_3.jpg,right,897.9799999978859,true,high,false
0zkHfODO,3p7qk0gj4wyyvhrnruxexlrqk8i2zm,39loel67owiajnkdd6g8svv5gj983m,0zkHfODO,2020-0188,2020-06-16,13:01:52,13:22:20,NA,incomplete,24,filling,0,0,right,Purple_Circle_Chess_2.jpg,Red_Circle_Dots_1.jpg,Green_Triangle_Chess_4.jpg,right,843.8000000023749,true,high,false
0zkHfODO,3p7qk0gj4wyyvhrnruxexlrqk8i2zm,39loel67owiajnkdd6g8svv5gj983m,0zkHfODO,2020-0188,2020-06-16,13:01:52,13:22:20,NA,incomplete,25,filling,0,1,left,Green_Circle_Chess_4.jpg,Blue_Plus_Chess_3.jpg,Purple_Circle_Grid_1.jpg,left,920.6500000000233,true,high,false
0zkHfODO,3p7qk0gj4wyyvhrnruxexlrqk8i2zm,39loel67owiajnkdd6g8svv5gj983m,0zkHfODO,2020-0188,2020-06-16,13:01:52,13:22:20,NA,incomplete,26,filling,0,1,left,Blue_Circle_Chess_4.jpg,Purple_Star_Chess_1.jpg,Red_Circle_Grid_2.jpg,left,913.5900000000838,true,high,false
0zkHfODO,3p7qk0gj4wyyvhrnruxexlrqk8i2zm,39loel67owiajnkdd6g8svv5gj983m,0zkHfODO,2020-0188,2020-06-16,13:01:52,13:22:20,NA,incomplete,27,filling,0,1,left,Purple_Circle_Grid_4.jpg,Red_Star_Grid_1.jpg,Green_Circle_Chess_3.jpg,left,923.9249999992317,true,high,false
0zkHfODO,3p7qk0gj4wyyvhrnruxexlrqk8i2zm,39loel67owiajnkdd6g8svv5gj983m,0zkHfODO,2020-0188,2020-06-16,13:01:52,13:22:20,NA,incomplete,28,filling,0,1,right,Green_Star_Dots_2.jpg,Red_Star_Chess_3.jpg,Blue_Circle_Dots_1.jpg,right,1011.3749999982538,true,high,false
0zkHfODO,3p7qk0gj4wyyvhrnruxexlrqk8i2zm,39loel67owiajnkdd6g8svv5gj983m,0zkHfODO,2020-0188,2020-06-16,13:01:52,13:22:20,NA,incomplete,29,filling,0,1,left,Green_Circle_Chess_3.jpg,Blue_Star_Chess_4.jpg,Purple_Circle_Dots_1.jpg,left,902.1749999992317,true,high,false
0zkHfODO,3p7qk0gj4wyyvhrnruxexlrqk8i2zm,39loel67owiajnkdd6g8svv5gj983m,0zkHfODO,2020-0188,2020-06-16,13:01:52,13:22:20,NA,incomplete,30,shape,1,1,left,Purple_Plus_Dots_2.jpg,Blue_Plus_Chess_1.jpg,Red_Circle_Dots_3.jpg,right,944.0099999991944,false,high,false
0zkHfODO,3p7qk0gj4wyyvhrnruxexlrqk8i2zm,39loel67owiajnkdd6g8svv5gj983m,0zkHfODO,2020-0188,2020-06-16,13:01:52,13:22:20,NA,incomplete,31,shape,1,1,right,Red_Circle_Chess_3.jpg,Green_Star_Chess_2.jpg,Purple_Circle_Stripes_4.jpg,left,998.7899999978254,false,high,false
0zkHfODO,3p7qk0gj4wyyvhrnruxexlrqk8i2zm,39loel67owiajnkdd6g8svv5gj983m,0zkHfODO,2020-0188,2020-06-16,13:01:52,13:22:20,NA,incomplete,32,shape,1,1,right,Red_Plus_Dots_1.jpg,Green_Star_Dots_2.jpg,Blue_Plus_Chess_4.jpg,right,764.4849999997532,true,high,false
0zkHfODO,3p7qk0gj4wyyvhrnruxexlrqk8i2zm,39loel67owiajnkdd6g8svv5gj983m,0zkHfODO,2020-0188,2020-06-16,13:01:52,13:22:20,NA,incomplete,33,shape,1,1,right,Blue_Circle_Dots_2.jpg,Red_Plus_Dots_4.jpg,Green_Circle_Stripes_1.jpg,right,764.5300000003772,true,high,false
0zkHfODO,3p7qk0gj4wyyvhrnruxexlrqk8i2zm,39loel67owiajnkdd6g8svv5gj983m,0zkHfODO,2020-0188,2020-06-16,13:01:52,13:22:20,NA,incomplete,34,shape,1,1,right,Blue_Triangle_Dots_1.jpg,Red_Plus_Dots_2.jpg,Green_Triangle_Chess_4.jpg,right,685.279999997816,true,high,false
0zkHfODO,3p7qk0gj4wyyvhrnruxexlrqk8i2zm,39loel67owiajnkdd6g8svv5gj983m,0zkHfODO,2020-0188,2020-06-16,13:01:52,13:22:20,NA,incomplete,35,shape,1,1,right,Blue_Circle_Chess_1.jpg,Purple_Triangle_Chess_3.jpg,Green_Circle_Dots_4.jpg,right,723.0099999979138,true,high,false
0zkHfODO,3p7qk0gj4wyyvhrnruxexlrqk8i2zm,39loel67owiajnkdd6g8svv5gj983m,0zkHfODO,2020-0188,2020-06-16,13:01:52,13:22:20,NA,incomplete,36,shape,1,1,left,Purple_Plus_Grid_1.jpg,Green_Plus_Dots_2.jpg,Blue_Star_Grid_4.jpg,left,726.1299999990733,true,high,false
0zkHfODO,3p7qk0gj4wyyvhrnruxexlrqk8i2zm,39loel67owiajnkdd6g8svv5gj983m,0zkHfODO,2020-0188,2020-06-16,13:01:52,13:22:20,NA,incomplete,37,shape,1,0,right,Blue_Plus_Grid_2.jpg,Green_Star_Grid_3.jpg,Purple_Plus_Stripes_1.jpg,right,842.8500000010245,true,high,false
0zkHfODO,3p7qk0gj4wyyvhrnruxexlrqk8i2zm,39loel67owiajnkdd6g8svv5gj983m,0zkHfODO,2020-0188,2020-06-16,13:01:52,13:22:20,NA,incomplete,38,shape,1,1,left,Purple_Circle_Dots_4.jpg,Red_Circle_Stripes_3.jpg,Green_Triangle_Dots_1.jpg,right,934.8349999999627,false,high,false
0zkHfODO,3p7qk0gj4wyyvhrnruxexlrqk8i2zm,39loel67owiajnkdd6g8svv5gj983m,0zkHfODO,2020-0188,2020-06-16,13:01:52,13:22:20,NA,incomplete,39,shape,1,0,right,Red_Circle_Dots_3.jpg,Blue_Star_Dots_1.jpg,Purple_Circle_Stripes_4.jpg,right,637.7350000002189,true,high,false
0zkHfODO,3p7qk0gj4wyyvhrnruxexlrqk8i2zm,39loel67owiajnkdd6g8svv5gj983m,0zkHfODO,2020-0188,2020-06-16,13:01:52,13:22:20,NA,incomplete,40,filling,0,1,right,Purple_Star_Grid_2.jpg,Blue_Star_Stripes_3.jpg,Red_Plus_Grid_1.jpg,right,1126.655000000028,true,high,false
0zkHfODO,3p7qk0gj4wyyvhrnruxexlrqk8i2zm,39loel67owiajnkdd6g8svv5gj983m,0zkHfODO,2020-0188,2020-06-16,13:01:52,13:22:20,NA,incomplete,41,filling,0,0,left,Red_Circle_Chess_1.jpg,Green_Plus_Chess_3.jpg,Purple_Circle_Dots_4.jpg,left,755.6250000016298,true,high,false
0zkHfODO,3p7qk0gj4wyyvhrnruxexlrqk8i2zm,39loel67owiajnkdd6g8svv5gj983m,0zkHfODO,2020-0188,2020-06-16,13:01:52,13:22:20,NA,incomplete,42,filling,0,1,left,Red_Triangle_Chess_1.jpg,Purple_Plus_Chess_3.jpg,Green_Triangle_Stripes_2.jpg,left,934.3599999992875,true,high,false
0zkHfODO,3p7qk0gj4wyyvhrnruxexlrqk8i2zm,39loel67owiajnkdd6g8svv5gj983m,0zkHfODO,2020-0188,2020-06-16,13:01:52,13:22:20,NA,incomplete,43,filling,0,1,right,Red_Triangle_Stripes_4.jpg,Blue_Triangle_Grid_2.jpg,Purple_Plus_Stripes_1.jpg,right,940.9250000026077,true,high,false
0zkHfODO,3p7qk0gj4wyyvhrnruxexlrqk8i2zm,39loel67owiajnkdd6g8svv5gj983m,0zkHfODO,2020-0188,2020-06-16,13:01:52,13:22:20,NA,incomplete,44,filling,0,1,left,Purple_Triangle_Dots_4.jpg,Blue_Star_Dots_1.jpg,Red_Triangle_Chess_3.jpg,left,1028.024999999674,true,high,false
0zkHfODO,3p7qk0gj4wyyvhrnruxexlrqk8i2zm,39loel67owiajnkdd6g8svv5gj983m,0zkHfODO,2020-0188,2020-06-16,13:01:52,13:22:20,NA,incomplete,45,filling,0,1,left,Green_Plus_Stripes_1.jpg,Purple_Circle_Stripes_4.jpg,Red_Plus_Dots_3.jpg,left,950.0000000008149,true,high,false
0zkHfODO,3p7qk0gj4wyyvhrnruxexlrqk8i2zm,39loel67owiajnkdd6g8svv5gj983m,0zkHfODO,2020-0188,2020-06-16,13:01:52,13:22:20,NA,incomplete,46,filling,0,1,right,Blue_Circle_Chess_2.jpg,Purple_Circle_Stripes_3.jpg,Red_Triangle_Chess_1.jpg,right,1020.6600000018952,true,high,false
0zkHfODO,3p7qk0gj4wyyvhrnruxexlrqk8i2zm,39loel67owiajnkdd6g8svv5gj983m,0zkHfODO,2020-0188,2020-06-16,13:01:52,13:22:20,NA,incomplete,47,filling,0,0,right,Blue_Plus_Dots_3.jpg,Red_Plus_Grid_2.jpg,Purple_Circle_Dots_1.jpg,right,928.5049999997718,true,high,false
0zkHfODO,3p7qk0gj4wyyvhrnruxexlrqk8i2zm,39loel67owiajnkdd6g8svv5gj983m,0zkHfODO,2020-0188,2020-06-16,13:01:52,13:22:20,NA,incomplete,48,filling,0,1,left,Purple_Circle_Chess_4.jpg,Blue_Plus_Chess_1.jpg,Green_Circle_Grid_3.jpg,left,999.5300000009593,true,high,false
0zkHfODO,3p7qk0gj4wyyvhrnruxexlrqk8i2zm,39loel67owiajnkdd6g8svv5gj983m,0zkHfODO,2020-0188,2020-06-16,13:01:52,13:22:20,NA,incomplete,49,filling,0,1,left,Blue_Circle_Dots_2.jpg,Green_Star_Dots_1.jpg,Purple_Circle_Grid_3.jpg,left,956.2949999999255,true,high,false
0zkHfODO,3p7qk0gj4wyyvhrnruxexlrqk8i2zm,39loel67owiajnkdd6g8svv5gj983m,0zkHfODO,2020-0188,2020-06-16,13:01:52,13:22:20,NA,incomplete,50,shape,1,0,right,Green_Plus_Chess_2.jpg,Blue_Circle_Chess_3.jpg,Purple_Plus_Stripes_1.jpg,left,978.4000000000233,false,high,false
0zkHfODO,3p7qk0gj4wyyvhrnruxexlrqk8i2zm,39loel67owiajnkdd6g8svv5gj983m,0zkHfODO,2020-0188,2020-06-16,13:01:52,13:22:20,NA,incomplete,51,shape,1,1,right,Green_Star_Stripes_4.jpg,Red_Triangle_Stripes_1.jpg,Blue_Star_Chess_3.jpg,left,1032.094999998575,false,high,false
0zkHfODO,3p7qk0gj4wyyvhrnruxexlrqk8i2zm,39loel67owiajnkdd6g8svv5gj983m,0zkHfODO,2020-0188,2020-06-16,13:01:52,13:22:20,NA,incomplete,52,shape,1,1,left,Purple_Triangle_Chess_2.jpg,Green_Triangle_Dots_3.jpg,Blue_Star_Chess_1.jpg,right,986.7500000001164,false,high,false
0zkHfODO,3p7qk0gj4wyyvhrnruxexlrqk8i2zm,39loel67owiajnkdd6g8svv5gj983m,0zkHfODO,2020-0188,2020-06-16,13:01:52,13:22:20,NA,incomplete,53,shape,1,1,left,Blue_Triangle_Stripes_1.jpg,Red_Triangle_Dots_4.jpg,Green_Circle_Stripes_3.jpg,left,654.709999998915,true,high,false
0zkHfODO,3p7qk0gj4wyyvhrnruxexlrqk8i2zm,39loel67owiajnkdd6g8svv5gj983m,0zkHfODO,2020-0188,2020-06-16,13:01:52,13:22:20,NA,incomplete,54,shape,1,0,left,Blue_Star_Chess_1.jpg,Red_Star_Dots_3.jpg,Purple_Circle_Chess_2.jpg,left,662.6900000011083,true,high,false
0zkHfODO,3p7qk0gj4wyyvhrnruxexlrqk8i2zm,39loel67owiajnkdd6g8svv5gj983m,0zkHfODO,2020-0188,2020-06-16,13:01:52,13:22:20,NA,incomplete,55,shape,1,1,left,Green_Circle_Stripes_3.jpg,Blue_Circle_Dots_1.jpg,Red_Star_Stripes_2.jpg,left,652.3650000016205,true,high,false
0zkHfODO,3p7qk0gj4wyyvhrnruxexlrqk8i2zm,39loel67owiajnkdd6g8svv5gj983m,0zkHfODO,2020-0188,2020-06-16,13:01:52,13:22:20,NA,incomplete,56,shape,1,1,right,Blue_Plus_Dots_3.jpg,Purple_Triangle_Dots_2.jpg,Green_Plus_Grid_1.jpg,right,788.4750000011409,true,high,false
0zkHfODO,3p7qk0gj4wyyvhrnruxexlrqk8i2zm,39loel67owiajnkdd6g8svv5gj983m,0zkHfODO,2020-0188,2020-06-16,13:01:52,13:22:20,NA,incomplete,57,shape,1,1,left,Purple_Star_Dots_4.jpg,Green_Star_Grid_1.jpg,Red_Plus_Dots_3.jpg,left,714.1349999983795,true,high,false
0zkHfODO,3p7qk0gj4wyyvhrnruxexlrqk8i2zm,39loel67owiajnkdd6g8svv5gj983m,0zkHfODO,2020-0188,2020-06-16,13:01:52,13:22:20,NA,incomplete,58,shape,1,0,left,Purple_Star_Grid_1.jpg,Green_Star_Chess_4.jpg,Blue_Triangle_Grid_2.jpg,left,744.0600000008708,true,high,false
0zkHfODO,3p7qk0gj4wyyvhrnruxexlrqk8i2zm,39loel67owiajnkdd6g8svv5gj983m,0zkHfODO,2020-0188,2020-06-16,13:01:52,13:22:20,NA,incomplete,59,shape,1,0,right,Green_Plus_Grid_2.jpg,Purple_Triangle_Grid_3.jpg,Red_Plus_Dots_1.jpg,right,778.1749999994645,true,high,false
0zkHfODO,3p7qk0gj4wyyvhrnruxexlrqk8i2zm,39loel67owiajnkdd6g8svv5gj983m,0zkHfODO,2020-0188,2020-06-16,13:01:52,13:22:20,NA,incomplete,60,filling,0,1,left,Purple_Star_Dots_4.jpg,Red_Triangle_Dots_1.jpg,Blue_Star_Chess_2.jpg,left,1312.7850000018952,true,high,false
0zkHfODO,3p7qk0gj4wyyvhrnruxexlrqk8i2zm,39loel67owiajnkdd6g8svv5gj983m,0zkHfODO,2020-0188,2020-06-16,13:01:52,13:22:20,NA,incomplete,61,filling,0,1,right,Blue_Plus_Grid_1.jpg,Purple_Plus_Stripes_3.jpg,Red_Triangle_Grid_4.jpg,right,877.9749999993946,true,high,false
0zkHfODO,3p7qk0gj4wyyvhrnruxexlrqk8i2zm,39loel67owiajnkdd6g8svv5gj983m,0zkHfODO,2020-0188,2020-06-16,13:01:52,13:22:20,NA,incomplete,62,filling,0,0,right,Red_Circle_Dots_1.jpg,Green_Circle_Chess_2.jpg,Blue_Plus_Dots_3.jpg,right,985.5300000016578,true,high,false
0zkHfODO,3p7qk0gj4wyyvhrnruxexlrqk8i2zm,39loel67owiajnkdd6g8svv5gj983m,0zkHfODO,2020-0188,2020-06-16,13:01:52,13:22:20,NA,incomplete,63,filling,0,1,left,Purple_Circle_Stripes_3.jpg,Red_Star_Stripes_2.jpg,Blue_Circle_Grid_4.jpg,left,1037.8049999999348,true,high,false
0zkHfODO,3p7qk0gj4wyyvhrnruxexlrqk8i2zm,39loel67owiajnkdd6g8svv5gj983m,0zkHfODO,2020-0188,2020-06-16,13:01:52,13:22:20,NA,incomplete,64,filling,0,1,left,Blue_Plus_Stripes_3.jpg,Red_Circle_Stripes_1.jpg,Green_Plus_Chess_2.jpg,left,943.1949999998324,true,high,false
0zkHfODO,3p7qk0gj4wyyvhrnruxexlrqk8i2zm,39loel67owiajnkdd6g8svv5gj983m,0zkHfODO,2020-0188,2020-06-16,13:01:52,13:22:20,NA,incomplete,65,filling,0,1,left,Red_Star_Chess_4.jpg,Blue_Circle_Chess_1.jpg,Purple_Star_Grid_3.jpg,left,1142.3399999985704,true,high,false
0zkHfODO,3p7qk0gj4wyyvhrnruxexlrqk8i2zm,39loel67owiajnkdd6g8svv5gj983m,0zkHfODO,2020-0188,2020-06-16,13:01:52,13:22:20,NA,incomplete,66,filling,0,1,left,Green_Plus_Grid_4.jpg,Purple_Triangle_Grid_2.jpg,Blue_Plus_Chess_1.jpg,left,1027.1199999988312,true,high,false
0zkHfODO,3p7qk0gj4wyyvhrnruxexlrqk8i2zm,39loel67owiajnkdd6g8svv5gj983m,0zkHfODO,2020-0188,2020-06-16,13:01:52,13:22:20,NA,incomplete,67,filling,0,1,right,Purple_Triangle_Chess_1.jpg,Red_Triangle_Grid_2.jpg,Green_Plus_Chess_4.jpg,right,1076.6399999993155,true,high,false
0zkHfODO,3p7qk0gj4wyyvhrnruxexlrqk8i2zm,39loel67owiajnkdd6g8svv5gj983m,0zkHfODO,2020-0188,2020-06-16,13:01:52,13:22:20,NA,incomplete,68,filling,0,1,left,Purple_Triangle_Dots_2.jpg,Green_Plus_Dots_4.jpg,Red_Triangle_Grid_3.jpg,left,1047.2499999996508,true,high,false
0zkHfODO,3p7qk0gj4wyyvhrnruxexlrqk8i2zm,39loel67owiajnkdd6g8svv5gj983m,0zkHfODO,2020-0188,2020-06-16,13:01:52,13:22:20,NA,incomplete,69,filling,0,1,left,Blue_Star_Chess_4.jpg,Purple_Circle_Chess_2.jpg,Red_Star_Stripes_3.jpg,left,1077.8350000000792,true,high,false
0zkHfODO,3p7qk0gj4wyyvhrnruxexlrqk8i2zm,39loel67owiajnkdd6g8svv5gj983m,0zkHfODO,2020-0188,2020-06-16,13:01:52,13:22:20,NA,incomplete,70,shape,1,1,right,Green_Plus_Stripes_1.jpg,Purple_Star_Stripes_2.jpg,Blue_Plus_Grid_3.jpg,left,983.024999997695,false,high,false
0zkHfODO,3p7qk0gj4wyyvhrnruxexlrqk8i2zm,39loel67owiajnkdd6g8svv5gj983m,0zkHfODO,2020-0188,2020-06-16,13:01:52,13:22:20,NA,incomplete,71,shape,1,0,right,Red_Star_Chess_3.jpg,Green_Circle_Chess_1.jpg,Purple_Star_Grid_2.jpg,left,971.2250000011409,false,high,false
0zkHfODO,3p7qk0gj4wyyvhrnruxexlrqk8i2zm,39loel67owiajnkdd6g8svv5gj983m,0zkHfODO,2020-0188,2020-06-16,13:01:52,13:22:20,NA,incomplete,72,shape,1,1,left,Blue_Plus_Dots_4.jpg,Red_Plus_Stripes_3.jpg,Green_Triangle_Dots_2.jpg,right,976.1849999994738,false,high,false
0zkHfODO,3p7qk0gj4wyyvhrnruxexlrqk8i2zm,39loel67owiajnkdd6g8svv5gj983m,0zkHfODO,2020-0188,2020-06-16,13:01:52,13:22:20,NA,incomplete,73,shape,1,0,right,Purple_Star_Chess_2.jpg,Red_Plus_Chess_3.jpg,Green_Star_Grid_4.jpg,left,918.1449999996694,false,high,false
0zkHfODO,3p7qk0gj4wyyvhrnruxexlrqk8i2zm,39loel67owiajnkdd6g8svv5gj983m,0zkHfODO,2020-0188,2020-06-16,13:01:52,13:22:20,NA,incomplete,74,shape,1,1,left,Blue_Plus_Dots_2.jpg,Red_Plus_Chess_1.jpg,Green_Circle_Dots_4.jpg,right,1037.980000001029,false,high,false
0zkHfODO,3p7qk0gj4wyyvhrnruxexlrqk8i2zm,39loel67owiajnkdd6g8svv5gj983m,0zkHfODO,2020-0188,2020-06-16,13:01:52,13:22:20,NA,incomplete,75,shape,1,0,left,Green_Star_Stripes_2.jpg,Red_Star_Chess_3.jpg,Purple_Plus_Stripes_4.jpg,left,699.7449999981327,true,high,false
0zkHfODO,3p7qk0gj4wyyvhrnruxexlrqk8i2zm,39loel67owiajnkdd6g8svv5gj983m,0zkHfODO,2020-0188,2020-06-16,13:01:52,13:22:20,NA,incomplete,76,shape,1,1,right,Purple_Circle_Chess_1.jpg,Blue_Plus_Chess_4.jpg,Green_Circle_Stripes_2.jpg,left,1092.5000000024447,false,high,false
0zkHfODO,3p7qk0gj4wyyvhrnruxexlrqk8i2zm,39loel67owiajnkdd6g8svv5gj983m,0zkHfODO,2020-0188,2020-06-16,13:01:52,13:22:20,NA,incomplete,77,shape,1,1,left,Blue_Triangle_Grid_2.jpg,Purple_Triangle_Chess_4.jpg,Green_Circle_Grid_3.jpg,left,627.5599999972619,true,high,false
0zkHfODO,3p7qk0gj4wyyvhrnruxexlrqk8i2zm,39loel67owiajnkdd6g8svv5gj983m,0zkHfODO,2020-0188,2020-06-16,13:01:52,13:22:20,NA,incomplete,78,shape,1,1,right,Red_Triangle_Dots_1.jpg,Green_Circle_Dots_2.jpg,Blue_Triangle_Chess_4.jpg,right,619.5099999967497,true,high,false
0zkHfODO,3p7qk0gj4wyyvhrnruxexlrqk8i2zm,39loel67owiajnkdd6g8svv5gj983m,0zkHfODO,2020-0188,2020-06-16,13:01:52,13:22:20,NA,incomplete,79,shape,1,1,left,Blue_Star_Stripes_4.jpg,Red_Star_Chess_2.jpg,Green_Plus_Stripes_3.jpg,left,709.3200000018114,true,high,false
0zkHfODO,3p7qk0gj4wyyvhrnruxexlrqk8i2zm,39loel67owiajnkdd6g8svv5gj983m,0zkHfODO,2020-0188,2020-06-16,13:01:52,13:22:20,NA,incomplete,80,filling,0,1,right,Red_Circle_Grid_4.jpg,Green_Circle_Stripes_2.jpg,Purple_Plus_Grid_3.jpg,left,1241.8949999992037,false,high,false
0zkHfODO,3p7qk0gj4wyyvhrnruxexlrqk8i2zm,39loel67owiajnkdd6g8svv5gj983m,0zkHfODO,2020-0188,2020-06-16,13:01:52,13:22:20,NA,incomplete,81,filling,0,1,right,Blue_Plus_Chess_4.jpg,Red_Plus_Stripes_3.jpg,Green_Circle_Chess_1.jpg,left,607.9050000007264,false,high,false
0zkHfODO,3p7qk0gj4wyyvhrnruxexlrqk8i2zm,39loel67owiajnkdd6g8svv5gj983m,0zkHfODO,2020-0188,2020-06-16,13:01:52,13:22:20,NA,incomplete,82,filling,0,0,right,Purple_Triangle_Stripes_2.jpg,Green_Triangle_Dots_1.jpg,Red_Plus_Stripes_3.jpg,right,825.7549999980256,true,high,false
0zkHfODO,3p7qk0gj4wyyvhrnruxexlrqk8i2zm,39loel67owiajnkdd6g8svv5gj983m,0zkHfODO,2020-0188,2020-06-16,13:01:52,13:22:20,NA,incomplete,83,filling,0,0,right,Red_Circle_Grid_3.jpg,Green_Circle_Stripes_4.jpg,Blue_Triangle_Grid_2.jpg,right,999.5950000011362,true,high,false
0zkHfODO,3p7qk0gj4wyyvhrnruxexlrqk8i2zm,39loel67owiajnkdd6g8svv5gj983m,0zkHfODO,2020-0188,2020-06-16,13:01:52,13:22:20,NA,incomplete,84,filling,0,1,left,Purple_Plus_Chess_4.jpg,Red_Star_Chess_2.jpg,Blue_Plus_Dots_3.jpg,right,764.9449999990175,false,high,false
0zkHfODO,3p7qk0gj4wyyvhrnruxexlrqk8i2zm,39loel67owiajnkdd6g8svv5gj983m,0zkHfODO,2020-0188,2020-06-16,13:01:52,13:22:20,NA,incomplete,85,filling,0,1,right,Red_Triangle_Dots_2.jpg,Blue_Triangle_Grid_1.jpg,Green_Circle_Dots_4.jpg,right,926.43500000122,true,high,false
0zkHfODO,3p7qk0gj4wyyvhrnruxexlrqk8i2zm,39loel67owiajnkdd6g8svv5gj983m,0zkHfODO,2020-0188,2020-06-16,13:01:52,13:22:20,NA,incomplete,86,filling,0,1,right,Green_Circle_Chess_2.jpg,Red_Circle_Dots_4.jpg,Blue_Triangle_Chess_1.jpg,right,981.2450000026729,true,high,false
0zkHfODO,3p7qk0gj4wyyvhrnruxexlrqk8i2zm,39loel67owiajnkdd6g8svv5gj983m,0zkHfODO,2020-0188,2020-06-16,13:01:52,13:22:20,NA,incomplete,87,filling,0,1,right,Blue_Triangle_Stripes_3.jpg,Red_Triangle_Grid_4.jpg,Purple_Star_Stripes_2.jpg,right,908.1200000001118,true,high,false
0zkHfODO,3p7qk0gj4wyyvhrnruxexlrqk8i2zm,39loel67owiajnkdd6g8svv5gj983m,0zkHfODO,2020-0188,2020-06-16,13:01:52,13:22:20,NA,incomplete,88,filling,0,1,right,Blue_Plus_Chess_1.jpg,Green_Plus_Stripes_4.jpg,Purple_Star_Chess_2.jpg,right,953.4249999996973,true,high,false
0zkHfODO,3p7qk0gj4wyyvhrnruxexlrqk8i2zm,39loel67owiajnkdd6g8svv5gj983m,0zkHfODO,2020-0188,2020-06-16,13:01:52,13:22:20,NA,incomplete,89,filling,0,0,left,Green_Triangle_Chess_3.jpg,Red_Star_Chess_2.jpg,Purple_Triangle_Stripes_1.jpg,left,940.0249999999069,true,high,false
0zkHfODO,3p7qk0gj4wyyvhrnruxexlrqk8i2zm,39loel67owiajnkdd6g8svv5gj983m,0zkHfODO,2020-0188,2020-06-16,13:01:52,13:22:20,NA,incomplete,90,shape,1,0,left,Purple_Triangle_Stripes_2.jpg,Blue_Triangle_Grid_1.jpg,Red_Star_Stripes_4.jpg,right,1171.5400000029476,false,high,false
0zkHfODO,3p7qk0gj4wyyvhrnruxexlrqk8i2zm,39loel67owiajnkdd6g8svv5gj983m,0zkHfODO,2020-0188,2020-06-16,13:01:52,13:22:20,NA,incomplete,91,shape,1,0,right,Red_Circle_Dots_2.jpg,Purple_Plus_Dots_1.jpg,Blue_Circle_Chess_4.jpg,left,944.5850000010105,false,high,false
0zkHfODO,3p7qk0gj4wyyvhrnruxexlrqk8i2zm,39loel67owiajnkdd6g8svv5gj983m,0zkHfODO,2020-0188,2020-06-16,13:01:52,13:22:20,NA,incomplete,92,shape,1,0,right,Blue_Triangle_Chess_2.jpg,Red_Circle_Chess_4.jpg,Purple_Triangle_Grid_3.jpg,left,884.3449999985751,false,high,false
0zkHfODO,3p7qk0gj4wyyvhrnruxexlrqk8i2zm,39loel67owiajnkdd6g8svv5gj983m,0zkHfODO,2020-0188,2020-06-16,13:01:52,13:22:20,NA,incomplete,93,shape,1,1,left,Green_Plus_Dots_4.jpg,Blue_Plus_Chess_2.jpg,Red_Star_Dots_1.jpg,right,942.3850000021048,false,high,false
0zkHfODO,3p7qk0gj4wyyvhrnruxexlrqk8i2zm,39loel67owiajnkdd6g8svv5gj983m,0zkHfODO,2020-0188,2020-06-16,13:01:52,13:22:20,NA,incomplete,94,shape,1,1,left,Green_Plus_Dots_1.jpg,Purple_Plus_Grid_2.jpg,Red_Triangle_Dots_3.jpg,right,933.1999999994878,false,high,false
0zkHfODO,3p7qk0gj4wyyvhrnruxexlrqk8i2zm,39loel67owiajnkdd6g8svv5gj983m,0zkHfODO,2020-0188,2020-06-16,13:01:52,13:22:20,NA,incomplete,95,shape,1,1,right,Blue_Triangle_Dots_1.jpg,Purple_Plus_Dots_3.jpg,Green_Triangle_Stripes_2.jpg,right,669.7950000015553,true,high,false
0zkHfODO,3p7qk0gj4wyyvhrnruxexlrqk8i2zm,39loel67owiajnkdd6g8svv5gj983m,0zkHfODO,2020-0188,2020-06-16,13:01:52,13:22:20,NA,incomplete,96,shape,1,1,right,Blue_Star_Grid_2.jpg,Green_Circle_Grid_3.jpg,Purple_Star_Dots_4.jpg,right,676.2049999998417,true,high,false
0zkHfODO,3p7qk0gj4wyyvhrnruxexlrqk8i2zm,39loel67owiajnkdd6g8svv5gj983m,0zkHfODO,2020-0188,2020-06-16,13:01:52,13:22:20,NA,incomplete,97,shape,1,1,right,Red_Star_Dots_2.jpg,Purple_Plus_Dots_3.jpg,Blue_Star_Stripes_4.jpg,right,697.819999997504,true,high,false
0zkHfODO,3p7qk0gj4wyyvhrnruxexlrqk8i2zm,39loel67owiajnkdd6g8svv5gj983m,0zkHfODO,2020-0188,2020-06-16,13:01:52,13:22:20,NA,incomplete,98,shape,1,1,right,Green_Star_Chess_4.jpg,Red_Triangle_Chess_1.jpg,Blue_Star_Dots_2.jpg,right,798.4299999988871,true,high,false
0zkHfODO,3p7qk0gj4wyyvhrnruxexlrqk8i2zm,39loel67owiajnkdd6g8svv5gj983m,0zkHfODO,2020-0188,2020-06-16,13:01:52,13:22:20,NA,incomplete,99,shape,1,1,left,Purple_Plus_Stripes_3.jpg,Red_Plus_Dots_1.jpg,Blue_Triangle_Stripes_4.jpg,left,735.6849999995902,true,high,false
0zkHfODO,3p7qk0gj4wyyvhrnruxexlrqk8i2zm,39loel67owiajnkdd6g8svv5gj983m,0zkHfODO,2020-0188,2020-06-16,13:01:52,13:22:20,NA,incomplete,100,filling,0,0,right,Red_Triangle_Dots_3.jpg,Purple_Triangle_Grid_2.jpg,Green_Star_Dots_1.jpg,left,753.0699999987846,false,high,false
0zkHfODO,3p7qk0gj4wyyvhrnruxexlrqk8i2zm,39loel67owiajnkdd6g8svv5gj983m,0zkHfODO,2020-0188,2020-06-16,13:01:52,13:22:20,NA,incomplete,101,filling,0,1,left,Purple_Plus_Dots_4.jpg,Red_Circle_Dots_2.jpg,Blue_Plus_Stripes_1.jpg,right,707.2899999985239,false,high,false
0zkHfODO,3p7qk0gj4wyyvhrnruxexlrqk8i2zm,39loel67owiajnkdd6g8svv5gj983m,0zkHfODO,2020-0188,2020-06-16,13:01:52,13:22:20,NA,incomplete,102,filling,0,1,left,Blue_Plus_Grid_2.jpg,Green_Circle_Grid_1.jpg,Red_Plus_Chess_3.jpg,right,645.945000000298,false,high,false
0zkHfODO,3p7qk0gj4wyyvhrnruxexlrqk8i2zm,39loel67owiajnkdd6g8svv5gj983m,0zkHfODO,2020-0188,2020-06-16,13:01:52,13:22:20,NA,incomplete,103,filling,0,1,left,Blue_Circle_Stripes_3.jpg,Purple_Star_Stripes_1.jpg,Red_Circle_Chess_4.jpg,left,926.0899999971734,true,high,false
0zkHfODO,3p7qk0gj4wyyvhrnruxexlrqk8i2zm,39loel67owiajnkdd6g8svv5gj983m,0zkHfODO,2020-0188,2020-06-16,13:01:52,13:22:20,NA,incomplete,104,filling,0,1,left,Green_Circle_Chess_4.jpg,Blue_Triangle_Chess_3.jpg,Purple_Circle_Grid_1.jpg,left,981.8799999994226,true,high,false
0zkHfODO,3p7qk0gj4wyyvhrnruxexlrqk8i2zm,39loel67owiajnkdd6g8svv5gj983m,0zkHfODO,2020-0188,2020-06-16,13:01:52,13:22:20,NA,incomplete,105,filling,0,1,left,Blue_Star_Dots_3.jpg,Red_Plus_Dots_2.jpg,Purple_Star_Grid_4.jpg,left,1132.704999999958,true,high,false
0zkHfODO,3p7qk0gj4wyyvhrnruxexlrqk8i2zm,39loel67owiajnkdd6g8svv5gj983m,0zkHfODO,2020-0188,2020-06-16,13:01:52,13:22:20,NA,incomplete,106,filling,0,1,right,Green_Circle_Chess_3.jpg,Red_Circle_Dots_1.jpg,Blue_Triangle_Chess_4.jpg,right,712.6300000017509,true,high,false
0zkHfODO,3p7qk0gj4wyyvhrnruxexlrqk8i2zm,39loel67owiajnkdd6g8svv5gj983m,0zkHfODO,2020-0188,2020-06-16,13:01:52,13:22:20,NA,incomplete,107,filling,0,1,left,Purple_Plus_Chess_3.jpg,Red_Circle_Chess_4.jpg,Blue_Plus_Stripes_2.jpg,left,828.4650000024121,true,high,false
0zkHfODO,3p7qk0gj4wyyvhrnruxexlrqk8i2zm,39loel67owiajnkdd6g8svv5gj983m,0zkHfODO,2020-0188,2020-06-16,13:01:52,13:22:20,NA,incomplete,108,filling,0,1,right,Green_Triangle_Grid_4.jpg,Red_Triangle_Dots_3.jpg,Purple_Plus_Grid_1.jpg,right,1050.4199999996927,true,high,false
0zkHfODO,3p7qk0gj4wyyvhrnruxexlrqk8i2zm,39loel67owiajnkdd6g8svv5gj983m,0zkHfODO,2020-0188,2020-06-16,13:01:52,13:22:20,NA,incomplete,109,filling,0,1,left,Green_Star_Stripes_1.jpg,Purple_Triangle_Stripes_4.jpg,Blue_Star_Grid_3.jpg,left,780.2249999986961,true,high,false
0zkHfODO,3p7qk0gj4wyyvhrnruxexlrqk8i2zm,39loel67owiajnkdd6g8svv5gj983m,0zkHfODO,2020-0188,2020-06-16,13:01:52,13:22:20,NA,incomplete,110,shape,1,1,left,Blue_Circle_Dots_1.jpg,Purple_Circle_Grid_4.jpg,Red_Triangle_Dots_2.jpg,right,860.8899999998976,false,high,false
0zkHfODO,3p7qk0gj4wyyvhrnruxexlrqk8i2zm,39loel67owiajnkdd6g8svv5gj983m,0zkHfODO,2020-0188,2020-06-16,13:01:52,13:22:20,NA,incomplete,111,shape,1,1,left,Blue_Star_Dots_3.jpg,Purple_Star_Stripes_2.jpg,Red_Circle_Dots_4.jpg,right,896.9500000021653,false,high,false
0zkHfODO,3p7qk0gj4wyyvhrnruxexlrqk8i2zm,39loel67owiajnkdd6g8svv5gj983m,0zkHfODO,2020-0188,2020-06-16,13:01:52,13:22:20,NA,incomplete,112,shape,1,0,left,Blue_Star_Chess_2.jpg,Red_Star_Grid_4.jpg,Purple_Triangle_Chess_1.jpg,left,658.9300000014482,true,high,false
0zkHfODO,3p7qk0gj4wyyvhrnruxexlrqk8i2zm,39loel67owiajnkdd6g8svv5gj983m,0zkHfODO,2020-0188,2020-06-16,13:01:52,13:22:20,NA,incomplete,113,shape,1,1,right,Purple_Triangle_Dots_4.jpg,Blue_Circle_Dots_1.jpg,Green_Triangle_Stripes_3.jpg,right,602.6899999997113,true,high,false
0zkHfODO,3p7qk0gj4wyyvhrnruxexlrqk8i2zm,39loel67owiajnkdd6g8svv5gj983m,0zkHfODO,2020-0188,2020-06-16,13:01:52,13:22:20,NA,incomplete,114,shape,1,1,left,Green_Star_Chess_2.jpg,Purple_Star_Grid_4.jpg,Red_Circle_Chess_1.jpg,left,596.7500000005821,true,high,false
0zkHfODO,3p7qk0gj4wyyvhrnruxexlrqk8i2zm,39loel67owiajnkdd6g8svv5gj983m,0zkHfODO,2020-0188,2020-06-16,13:01:52,13:22:20,NA,incomplete,115,shape,1,1,right,Purple_Star_Grid_4.jpg,Green_Circle_Grid_2.jpg,Red_Star_Chess_3.jpg,right,591.2900000002701,true,high,false
0zkHfODO,3p7qk0gj4wyyvhrnruxexlrqk8i2zm,39loel67owiajnkdd6g8svv5gj983m,0zkHfODO,2020-0188,2020-06-16,13:01:52,13:22:20,NA,incomplete,116,shape,1,1,left,Blue_Triangle_Chess_3.jpg,Green_Triangle_Stripes_2.jpg,Red_Circle_Chess_4.jpg,left,698.1650000016671,true,high,false
0zkHfODO,3p7qk0gj4wyyvhrnruxexlrqk8i2zm,39loel67owiajnkdd6g8svv5gj983m,0zkHfODO,2020-0188,2020-06-16,13:01:52,13:22:20,NA,incomplete,117,shape,1,0,right,Green_Triangle_Chess_1.jpg,Purple_Circle_Chess_3.jpg,Blue_Triangle_Grid_2.jpg,right,638.1149999978952,true,high,false
0zkHfODO,3p7qk0gj4wyyvhrnruxexlrqk8i2zm,39loel67owiajnkdd6g8svv5gj983m,0zkHfODO,2020-0188,2020-06-16,13:01:52,13:22:20,NA,incomplete,118,shape,1,1,right,Red_Plus_Chess_3.jpg,Green_Star_Chess_1.jpg,Purple_Plus_Grid_2.jpg,right,631.2700000016484,true,high,false
0zkHfODO,3p7qk0gj4wyyvhrnruxexlrqk8i2zm,39loel67owiajnkdd6g8svv5gj983m,0zkHfODO,2020-0188,2020-06-16,13:01:52,13:22:20,NA,incomplete,119,shape,1,1,left,Purple_Star_Stripes_3.jpg,Green_Star_Dots_4.jpg,Blue_Triangle_Stripes_1.jpg,left,639.8849999968661,true,high,false
0zkHfODO,3p7qk0gj4wyyvhrnruxexlrqk8i2zm,39loel67owiajnkdd6g8svv5gj983m,0zkHfODO,2020-0188,2020-06-16,13:01:52,13:22:20,NA,incomplete,120,gender,2,1,left,A_M_04.jpg,C_M_07.jpg,A_F_09.jpg,NA,NA,NA,high,false
0zkHfODO,3p7qk0gj4wyyvhrnruxexlrqk8i2zm,39loel67owiajnkdd6g8svv5gj983m,0zkHfODO,2020-0188,2020-06-16,13:01:52,13:22:20,NA,incomplete,121,gender,2,0,right,C_F_07.jpg,C_M_02.jpg,A_F_05.jpg,right,1078.190000000177,true,high,false
0zkHfODO,3p7qk0gj4wyyvhrnruxexlrqk8i2zm,39loel67owiajnkdd6g8svv5gj983m,0zkHfODO,2020-0188,2020-06-16,13:01:52,13:22:20,NA,incomplete,122,gender,2,1,left,A_F_13.jpg,C_F_02.jpg,A_M_15.jpg,right,1061.8150000009919,false,high,false
0zkHfODO,3p7qk0gj4wyyvhrnruxexlrqk8i2zm,39loel67owiajnkdd6g8svv5gj983m,0zkHfODO,2020-0188,2020-06-16,13:01:52,13:22:20,NA,incomplete,123,gender,2,1,left,A_M_09.jpg,C_M_08.jpg,A_F_03.jpg,left,774.6000000006752,true,high,false
0zkHfODO,3p7qk0gj4wyyvhrnruxexlrqk8i2zm,39loel67owiajnkdd6g8svv5gj983m,0zkHfODO,2020-0188,2020-06-16,13:01:52,13:22:20,NA,incomplete,124,gender,2,0,right,C_M_04.jpg,C_F_14.jpg,A_M_11.jpg,right,647.3550000010291,true,high,false
0zkHfODO,3p7qk0gj4wyyvhrnruxexlrqk8i2zm,39loel67owiajnkdd6g8svv5gj983m,0zkHfODO,2020-0188,2020-06-16,13:01:52,13:22:20,NA,incomplete,125,gender,2,1,right,C_M_08.jpg,C_F_10.jpg,A_M_09.jpg,right,719.3100000004051,true,high,false
0zkHfODO,3p7qk0gj4wyyvhrnruxexlrqk8i2zm,39loel67owiajnkdd6g8svv5gj983m,0zkHfODO,2020-0188,2020-06-16,13:01:52,13:22:20,NA,incomplete,126,gender,2,1,right,C_F_08.jpg,C_M_11.jpg,A_F_16.jpg,right,770.4349999985425,true,high,false
0zkHfODO,3p7qk0gj4wyyvhrnruxexlrqk8i2zm,39loel67owiajnkdd6g8svv5gj983m,0zkHfODO,2020-0188,2020-06-16,13:01:52,13:22:20,NA,incomplete,127,gender,2,0,left,A_M_14.jpg,C_M_06.jpg,A_F_03.jpg,left,835.114999998128,true,high,false
0zkHfODO,3p7qk0gj4wyyvhrnruxexlrqk8i2zm,39loel67owiajnkdd6g8svv5gj983m,0zkHfODO,2020-0188,2020-06-16,13:01:52,13:22:20,NA,incomplete,128,gender,2,1,left,A_M_13.jpg,C_M_15.jpg,A_F_12.jpg,left,960.0749999990221,true,high,false
0zkHfODO,3p7qk0gj4wyyvhrnruxexlrqk8i2zm,39loel67owiajnkdd6g8svv5gj983m,0zkHfODO,2020-0188,2020-06-16,13:01:52,13:22:20,NA,incomplete,129,gender,2,1,right,A_M_14.jpg,A_F_06.jpg,C_M_09.jpg,right,838.6950000021607,true,high,false
0zkHfODO,3p7qk0gj4wyyvhrnruxexlrqk8i2zm,39loel67owiajnkdd6g8svv5gj983m,0zkHfODO,2020-0188,2020-06-16,13:01:52,13:22:20,NA,incomplete,130,gender,2,1,left,A_F_06.jpg,C_F_13.jpg,A_M_16.jpg,left,836.4299999993527,true,high,false
0zkHfODO,3p7qk0gj4wyyvhrnruxexlrqk8i2zm,39loel67owiajnkdd6g8svv5gj983m,0zkHfODO,2020-0188,2020-06-16,13:01:52,13:22:20,NA,incomplete,131,gender,2,0,right,A_F_04.jpg,A_M_01.jpg,C_F_07.jpg,right,736.5399999981746,true,high,false
0zkHfODO,3p7qk0gj4wyyvhrnruxexlrqk8i2zm,39loel67owiajnkdd6g8svv5gj983m,0zkHfODO,2020-0188,2020-06-16,13:01:52,13:22:20,NA,incomplete,132,gender,2,1,right,C_F_12.jpg,C_M_13.jpg,A_F_09.jpg,right,899.5649999997113,true,high,false
0zkHfODO,3p7qk0gj4wyyvhrnruxexlrqk8i2zm,39loel67owiajnkdd6g8svv5gj983m,0zkHfODO,2020-0188,2020-06-16,13:01:52,13:22:20,NA,incomplete,133,gender,2,1,left,A_F_04.jpg,C_F_09.jpg,A_M_01.jpg,left,908.4250000014435,true,high,false
0zkHfODO,3p7qk0gj4wyyvhrnruxexlrqk8i2zm,39loel67owiajnkdd6g8svv5gj983m,0zkHfODO,2020-0188,2020-06-16,13:01:52,13:22:20,NA,incomplete,134,gender,2,1,left,A_M_01.jpg,C_M_04.jpg,A_F_12.jpg,left,838.350000001723,true,high,false
0zkHfODO,3p7qk0gj4wyyvhrnruxexlrqk8i2zm,39loel67owiajnkdd6g8svv5gj983m,0zkHfODO,2020-0188,2020-06-16,13:01:52,13:22:20,NA,incomplete,135,gender,2,0,right,C_F_06.jpg,C_M_01.jpg,A_F_13.jpg,right,756.165000002482,true,high,false
0zkHfODO,3p7qk0gj4wyyvhrnruxexlrqk8i2zm,39loel67owiajnkdd6g8svv5gj983m,0zkHfODO,2020-0188,2020-06-16,13:01:52,13:22:20,NA,incomplete,136,gender,2,1,right,A_F_16.jpg,A_M_06.jpg,C_F_07.jpg,right,740.8250000007683,true,high,false
0zkHfODO,3p7qk0gj4wyyvhrnruxexlrqk8i2zm,39loel67owiajnkdd6g8svv5gj983m,0zkHfODO,2020-0188,2020-06-16,13:01:52,13:22:20,NA,incomplete,137,gender,2,1,left,C_F_04.jpg,A_F_14.jpg,C_M_05.jpg,left,1063.5650000004098,true,high,false
0zkHfODO,3p7qk0gj4wyyvhrnruxexlrqk8i2zm,39loel67owiajnkdd6g8svv5gj983m,0zkHfODO,2020-0188,2020-06-16,13:01:52,13:22:20,NA,incomplete,138,gender,2,1,right,A_M_13.jpg,A_F_09.jpg,C_M_02.jpg,right,729.5549999980722,true,high,false
0zkHfODO,3p7qk0gj4wyyvhrnruxexlrqk8i2zm,39loel67owiajnkdd6g8svv5gj983m,0zkHfODO,2020-0188,2020-06-16,13:01:52,13:22:20,NA,incomplete,139,gender,2,0,right,C_F_06.jpg,C_M_14.jpg,A_F_09.jpg,right,842.7650000011781,true,high,false
0zkHfODO,3p7qk0gj4wyyvhrnruxexlrqk8i2zm,39loel67owiajnkdd6g8svv5gj983m,0zkHfODO,2020-0188,2020-06-16,13:01:52,13:22:20,NA,incomplete,140,race,3,1,left,A_F_02.jpg,A_M_12.jpg,C_F_05.jpg,right,824.3399999992689,false,high,false
0zkHfODO,3p7qk0gj4wyyvhrnruxexlrqk8i2zm,39loel67owiajnkdd6g8svv5gj983m,0zkHfODO,2020-0188,2020-06-16,13:01:52,13:22:20,NA,incomplete,141,race,3,1,right,A_M_01.jpg,C_M_13.jpg,A_F_06.jpg,right,986.0549999976065,true,high,false
0zkHfODO,3p7qk0gj4wyyvhrnruxexlrqk8i2zm,39loel67owiajnkdd6g8svv5gj983m,0zkHfODO,2020-0188,2020-06-16,13:01:52,13:22:20,NA,incomplete,142,race,3,1,left,C_F_03.jpg,C_M_16.jpg,A_F_15.jpg,left,1226.0250000000233,true,high,false
0zkHfODO,3p7qk0gj4wyyvhrnruxexlrqk8i2zm,39loel67owiajnkdd6g8svv5gj983m,0zkHfODO,2020-0188,2020-06-16,13:01:52,13:22:20,NA,incomplete,143,race,3,0,right,A_F_13.jpg,C_F_10.jpg,A_M_08.jpg,right,784.8799999993062,true,high,false
0zkHfODO,3p7qk0gj4wyyvhrnruxexlrqk8i2zm,39loel67owiajnkdd6g8svv5gj983m,0zkHfODO,2020-0188,2020-06-16,13:01:52,13:22:20,NA,incomplete,144,race,3,1,left,C_M_11.jpg,C_F_10.jpg,A_M_02.jpg,left,817.5899999986868,true,high,false
0zkHfODO,3p7qk0gj4wyyvhrnruxexlrqk8i2zm,39loel67owiajnkdd6g8svv5gj983m,0zkHfODO,2020-0188,2020-06-16,13:01:52,13:22:20,NA,incomplete,145,race,3,1,right,C_M_12.jpg,A_M_10.jpg,C_F_11.jpg,right,911.6800000009825,true,high,false
0zkHfODO,3p7qk0gj4wyyvhrnruxexlrqk8i2zm,39loel67owiajnkdd6g8svv5gj983m,0zkHfODO,2020-0188,2020-06-16,13:01:52,13:22:20,NA,incomplete,146,race,3,1,right,A_M_09.jpg,C_M_08.jpg,A_F_04.jpg,right,1000.5050000000047,true,high,false
0zkHfODO,3p7qk0gj4wyyvhrnruxexlrqk8i2zm,39loel67owiajnkdd6g8svv5gj983m,0zkHfODO,2020-0188,2020-06-16,13:01:52,13:22:20,NA,incomplete,147,race,3,0,left,C_M_04.jpg,C_F_01.jpg,A_M_12.jpg,left,987.4550000022864,true,high,false
0zkHfODO,3p7qk0gj4wyyvhrnruxexlrqk8i2zm,39loel67owiajnkdd6g8svv5gj983m,0zkHfODO,2020-0188,2020-06-16,13:01:52,13:22:20,NA,incomplete,148,race,3,1,left,A_F_06.jpg,A_M_12.jpg,C_F_16.jpg,left,960.1000000002095,true,high,false
0zkHfODO,3p7qk0gj4wyyvhrnruxexlrqk8i2zm,39loel67owiajnkdd6g8svv5gj983m,0zkHfODO,2020-0188,2020-06-16,13:01:52,13:22:20,NA,incomplete,149,race,3,1,right,C_F_10.jpg,A_F_12.jpg,C_M_06.jpg,left,1175.2000000014668,false,high,false
0zkHfODO,3p7qk0gj4wyyvhrnruxexlrqk8i2zm,39loel67owiajnkdd6g8svv5gj983m,0zkHfODO,2020-0188,2020-06-16,13:01:52,13:22:20,NA,incomplete,150,race,3,1,right,A_F_02.jpg,C_F_16.jpg,A_M_09.jpg,left,993.0300000014249,false,high,false
0zkHfODO,3p7qk0gj4wyyvhrnruxexlrqk8i2zm,39loel67owiajnkdd6g8svv5gj983m,0zkHfODO,2020-0188,2020-06-16,13:01:52,13:22:20,NA,incomplete,151,race,3,1,right,A_M_13.jpg,C_M_15.jpg,A_F_10.jpg,right,868.899999997695,true,high,false
0zkHfODO,3p7qk0gj4wyyvhrnruxexlrqk8i2zm,39loel67owiajnkdd6g8svv5gj983m,0zkHfODO,2020-0188,2020-06-16,13:01:52,13:22:20,NA,incomplete,152,race,3,0,right,A_F_05.jpg,C_F_01.jpg,A_M_14.jpg,right,767.7599999988452,true,high,false
0zkHfODO,3p7qk0gj4wyyvhrnruxexlrqk8i2zm,39loel67owiajnkdd6g8svv5gj983m,0zkHfODO,2020-0188,2020-06-16,13:01:52,13:22:20,NA,incomplete,153,race,3,1,left,C_F_06.jpg,C_M_04.jpg,A_F_07.jpg,left,993.4150000008522,true,high,false
0zkHfODO,3p7qk0gj4wyyvhrnruxexlrqk8i2zm,39loel67owiajnkdd6g8svv5gj983m,0zkHfODO,2020-0188,2020-06-16,13:01:52,13:22:20,NA,incomplete,154,race,3,1,left,A_M_13.jpg,A_F_14.jpg,C_M_07.jpg,left,982.3099999993574,true,high,false
0zkHfODO,3p7qk0gj4wyyvhrnruxexlrqk8i2zm,39loel67owiajnkdd6g8svv5gj983m,0zkHfODO,2020-0188,2020-06-16,13:01:52,13:22:20,NA,incomplete,155,race,3,1,right,C_F_07.jpg,A_F_16.jpg,C_M_15.jpg,right,1163.1549999983981,true,high,false
0zkHfODO,3p7qk0gj4wyyvhrnruxexlrqk8i2zm,39loel67owiajnkdd6g8svv5gj983m,0zkHfODO,2020-0188,2020-06-16,13:01:52,13:22:20,NA,incomplete,156,race,3,1,left,C_F_13.jpg,C_M_11.jpg,A_F_08.jpg,left,950.0349999979371,true,high,false
0zkHfODO,3p7qk0gj4wyyvhrnruxexlrqk8i2zm,39loel67owiajnkdd6g8svv5gj983m,0zkHfODO,2020-0188,2020-06-16,13:01:52,13:22:20,NA,incomplete,157,race,3,1,right,C_F_13.jpg,A_F_07.jpg,C_M_15.jpg,right,909.0150000010617,true,high,false
0zkHfODO,3p7qk0gj4wyyvhrnruxexlrqk8i2zm,39loel67owiajnkdd6g8svv5gj983m,0zkHfODO,2020-0188,2020-06-16,13:01:52,13:22:20,NA,incomplete,158,race,3,0,right,A_M_11.jpg,C_M_09.jpg,A_F_08.jpg,right,949.7900000023656,true,high,false
0zkHfODO,3p7qk0gj4wyyvhrnruxexlrqk8i2zm,39loel67owiajnkdd6g8svv5gj983m,0zkHfODO,2020-0188,2020-06-16,13:01:52,13:22:20,NA,incomplete,159,race,3,1,left,C_M_12.jpg,C_F_09.jpg,A_M_08.jpg,left,1021.919999999227,true,high,false
0zkHfODO,3p7qk0gj4wyyvhrnruxexlrqk8i2zm,39loel67owiajnkdd6g8svv5gj983m,0zkHfODO,2020-0188,2020-06-16,13:01:52,13:22:20,NA,incomplete,160,gender,2,1,left,A_F_11.jpg,C_F_12.jpg,A_M_08.jpg,right,831.4250000002794,false,high,false
0zkHfODO,3p7qk0gj4wyyvhrnruxexlrqk8i2zm,39loel67owiajnkdd6g8svv5gj983m,0zkHfODO,2020-0188,2020-06-16,13:01:52,13:22:20,NA,incomplete,161,gender,2,1,left,C_M_10.jpg,A_M_09.jpg,C_F_15.jpg,right,924.4749999997439,false,high,false
0zkHfODO,3p7qk0gj4wyyvhrnruxexlrqk8i2zm,39loel67owiajnkdd6g8svv5gj983m,0zkHfODO,2020-0188,2020-06-16,13:01:52,13:22:20,NA,incomplete,162,gender,2,1,left,C_F_14.jpg,A_F_11.jpg,C_M_10.jpg,left,804.2600000008242,true,high,false
0zkHfODO,3p7qk0gj4wyyvhrnruxexlrqk8i2zm,39loel67owiajnkdd6g8svv5gj983m,0zkHfODO,2020-0188,2020-06-16,13:01:52,13:22:20,NA,incomplete,163,gender,2,1,right,A_F_01.jpg,A_M_15.jpg,C_F_16.jpg,right,707.2249999982305,true,high,false
0zkHfODO,3p7qk0gj4wyyvhrnruxexlrqk8i2zm,39loel67owiajnkdd6g8svv5gj983m,0zkHfODO,2020-0188,2020-06-16,13:01:52,13:22:20,NA,incomplete,164,gender,2,1,right,C_M_09.jpg,C_F_01.jpg,A_M_14.jpg,right,1128.8199999980861,true,high,false
0zkHfODO,3p7qk0gj4wyyvhrnruxexlrqk8i2zm,39loel67owiajnkdd6g8svv5gj983m,0zkHfODO,2020-0188,2020-06-16,13:01:52,13:22:20,NA,incomplete,165,gender,2,1,right,C_F_01.jpg,C_M_07.jpg,A_F_06.jpg,right,804.8449999988079,true,high,false
0zkHfODO,3p7qk0gj4wyyvhrnruxexlrqk8i2zm,39loel67owiajnkdd6g8svv5gj983m,0zkHfODO,2020-0188,2020-06-16,13:01:52,13:22:20,NA,incomplete,166,gender,2,1,right,C_F_15.jpg,C_M_01.jpg,A_F_13.jpg,right,755.6650000006193,true,high,false
0zkHfODO,3p7qk0gj4wyyvhrnruxexlrqk8i2zm,39loel67owiajnkdd6g8svv5gj983m,0zkHfODO,2020-0188,2020-06-16,13:01:52,13:22:20,NA,incomplete,167,gender,2,0,right,C_F_03.jpg,C_M_14.jpg,A_F_13.jpg,right,774.1150000002235,true,high,false
0zkHfODO,3p7qk0gj4wyyvhrnruxexlrqk8i2zm,39loel67owiajnkdd6g8svv5gj983m,0zkHfODO,2020-0188,2020-06-16,13:01:52,13:22:20,NA,incomplete,168,gender,2,1,right,A_F_15.jpg,A_M_02.jpg,C_F_14.jpg,right,726.679999999702,true,high,false
0zkHfODO,3p7qk0gj4wyyvhrnruxexlrqk8i2zm,39loel67owiajnkdd6g8svv5gj983m,0zkHfODO,2020-0188,2020-06-16,13:01:52,13:22:20,NA,incomplete,169,gender,2,1,left,A_M_07.jpg,C_M_05.jpg,A_F_04.jpg,left,731.1300000001211,true,high,false
0zkHfODO,3p7qk0gj4wyyvhrnruxexlrqk8i2zm,39loel67owiajnkdd6g8svv5gj983m,0zkHfODO,2020-0188,2020-06-16,13:01:52,13:22:20,NA,incomplete,170,gender,2,1,left,C_F_03.jpg,A_F_13.jpg,C_M_09.jpg,left,828.2799999979325,true,high,false
0zkHfODO,3p7qk0gj4wyyvhrnruxexlrqk8i2zm,39loel67owiajnkdd6g8svv5gj983m,0zkHfODO,2020-0188,2020-06-16,13:01:52,13:22:20,NA,incomplete,171,gender,2,1,left,C_M_13.jpg,A_M_14.jpg,C_F_01.jpg,left,880.5900000006659,true,high,false
0zkHfODO,3p7qk0gj4wyyvhrnruxexlrqk8i2zm,39loel67owiajnkdd6g8svv5gj983m,0zkHfODO,2020-0188,2020-06-16,13:01:52,13:22:20,NA,incomplete,172,gender,2,1,right,A_F_13.jpg,A_M_10.jpg,C_F_14.jpg,right,693.9600000004284,true,high,false
0zkHfODO,3p7qk0gj4wyyvhrnruxexlrqk8i2zm,39loel67owiajnkdd6g8svv5gj983m,0zkHfODO,2020-0188,2020-06-16,13:01:52,13:22:20,NA,incomplete,173,gender,2,1,right,A_F_05.jpg,A_M_13.jpg,C_F_16.jpg,right,698.7899999986403,true,high,false
0zkHfODO,3p7qk0gj4wyyvhrnruxexlrqk8i2zm,39loel67owiajnkdd6g8svv5gj983m,0zkHfODO,2020-0188,2020-06-16,13:01:52,13:22:20,NA,incomplete,174,gender,2,1,right,C_M_02.jpg,C_F_10.jpg,A_M_07.jpg,right,848.4100000023609,true,high,false
0zkHfODO,3p7qk0gj4wyyvhrnruxexlrqk8i2zm,39loel67owiajnkdd6g8svv5gj983m,0zkHfODO,2020-0188,2020-06-16,13:01:52,13:22:20,NA,incomplete,175,gender,2,1,left,A_F_09.jpg,C_F_15.jpg,A_M_06.jpg,left,732.4550000011222,true,high,false
0zkHfODO,3p7qk0gj4wyyvhrnruxexlrqk8i2zm,39loel67owiajnkdd6g8svv5gj983m,0zkHfODO,2020-0188,2020-06-16,13:01:52,13:22:20,NA,incomplete,176,gender,2,1,right,C_F_05.jpg,C_M_12.jpg,A_F_14.jpg,right,774.4549999989104,true,high,false
0zkHfODO,3p7qk0gj4wyyvhrnruxexlrqk8i2zm,39loel67owiajnkdd6g8svv5gj983m,0zkHfODO,2020-0188,2020-06-16,13:01:52,13:22:20,NA,incomplete,177,gender,2,1,right,A_F_03.jpg,A_M_05.jpg,C_F_06.jpg,right,687.6649999975925,true,high,false
0zkHfODO,3p7qk0gj4wyyvhrnruxexlrqk8i2zm,39loel67owiajnkdd6g8svv5gj983m,0zkHfODO,2020-0188,2020-06-16,13:01:52,13:22:20,NA,incomplete,178,gender,2,0,left,A_F_15.jpg,C_F_16.jpg,A_M_03.jpg,left,773.175000002142,true,high,false
0zkHfODO,3p7qk0gj4wyyvhrnruxexlrqk8i2zm,39loel67owiajnkdd6g8svv5gj983m,0zkHfODO,2020-0188,2020-06-16,13:01:52,13:22:20,NA,incomplete,179,gender,2,1,right,A_F_09.jpg,A_M_11.jpg,C_F_10.jpg,right,710.9200000013225,true,high,false
0zkHfODO,3p7qk0gj4wyyvhrnruxexlrqk8i2zm,39loel67owiajnkdd6g8svv5gj983m,0zkHfODO,2020-0188,2020-06-16,13:01:52,13:22:20,NA,incomplete,180,race,3,1,right,A_F_03.jpg,C_F_07.jpg,A_M_15.jpg,left,730.9549999991432,false,high,false
0zkHfODO,3p7qk0gj4wyyvhrnruxexlrqk8i2zm,39loel67owiajnkdd6g8svv5gj983m,0zkHfODO,2020-0188,2020-06-16,13:01:52,13:22:20,NA,incomplete,181,race,3,1,right,A_M_06.jpg,C_M_10.jpg,A_F_11.jpg,left,940.7600000014063,false,high,false
0zkHfODO,3p7qk0gj4wyyvhrnruxexlrqk8i2zm,39loel67owiajnkdd6g8svv5gj983m,0zkHfODO,2020-0188,2020-06-16,13:01:52,13:22:20,NA,incomplete,182,race,3,1,left,A_F_14.jpg,A_M_10.jpg,C_F_02.jpg,left,820.7949999995762,true,high,false
0zkHfODO,3p7qk0gj4wyyvhrnruxexlrqk8i2zm,39loel67owiajnkdd6g8svv5gj983m,0zkHfODO,2020-0188,2020-06-16,13:01:52,13:22:20,NA,incomplete,183,race,3,0,left,A_F_12.jpg,A_M_11.jpg,C_F_02.jpg,left,898.529999998631,true,high,false
0zkHfODO,3p7qk0gj4wyyvhrnruxexlrqk8i2zm,39loel67owiajnkdd6g8svv5gj983m,0zkHfODO,2020-0188,2020-06-16,13:01:52,13:22:20,NA,incomplete,184,race,3,1,left,A_F_08.jpg,A_M_16.jpg,C_F_09.jpg,left,1084.3100000019185,true,high,false
0zkHfODO,3p7qk0gj4wyyvhrnruxexlrqk8i2zm,39loel67owiajnkdd6g8svv5gj983m,0zkHfODO,2020-0188,2020-06-16,13:01:52,13:22:20,NA,incomplete,185,race,3,1,right,C_F_12.jpg,A_F_05.jpg,C_M_13.jpg,right,698.1400000003632,true,high,false
0zkHfODO,3p7qk0gj4wyyvhrnruxexlrqk8i2zm,39loel67owiajnkdd6g8svv5gj983m,0zkHfODO,2020-0188,2020-06-16,13:01:52,13:22:20,NA,incomplete,186,race,3,1,right,C_M_13.jpg,A_M_07.jpg,C_F_01.jpg,right,863.0499999999302,true,high,false
0zkHfODO,3p7qk0gj4wyyvhrnruxexlrqk8i2zm,39loel67owiajnkdd6g8svv5gj983m,0zkHfODO,2020-0188,2020-06-16,13:01:52,13:22:20,NA,incomplete,187,race,3,1,right,C_M_16.jpg,A_M_13.jpg,C_F_02.jpg,right,747.009999999078,true,high,false
0zkHfODO,3p7qk0gj4wyyvhrnruxexlrqk8i2zm,39loel67owiajnkdd6g8svv5gj983m,0zkHfODO,2020-0188,2020-06-16,13:01:52,13:22:20,NA,incomplete,188,race,3,1,left,A_F_05.jpg,A_M_12.jpg,C_F_02.jpg,left,1036.889999999432,true,high,false
0zkHfODO,3p7qk0gj4wyyvhrnruxexlrqk8i2zm,39loel67owiajnkdd6g8svv5gj983m,0zkHfODO,2020-0188,2020-06-16,13:01:52,13:22:20,NA,incomplete,189,race,3,1,right,C_M_03.jpg,A_M_02.jpg,C_F_04.jpg,right,847.4650000024121,true,high,false
0zkHfODO,3p7qk0gj4wyyvhrnruxexlrqk8i2zm,39loel67owiajnkdd6g8svv5gj983m,0zkHfODO,2020-0188,2020-06-16,13:01:52,13:22:20,NA,incomplete,190,race,3,1,right,C_M_10.jpg,A_M_04.jpg,C_F_12.jpg,right,779.5850000001956,true,high,false
0zkHfODO,3p7qk0gj4wyyvhrnruxexlrqk8i2zm,39loel67owiajnkdd6g8svv5gj983m,0zkHfODO,2020-0188,2020-06-16,13:01:52,13:22:20,NA,incomplete,191,race,3,1,left,A_M_09.jpg,A_F_05.jpg,C_M_13.jpg,left,796.5150000017602,true,high,false
0zkHfODO,3p7qk0gj4wyyvhrnruxexlrqk8i2zm,39loel67owiajnkdd6g8svv5gj983m,0zkHfODO,2020-0188,2020-06-16,13:01:52,13:22:20,NA,incomplete,192,race,3,1,right,A_F_01.jpg,C_F_02.jpg,A_M_15.jpg,right,764.4350000009872,true,high,false
0zkHfODO,3p7qk0gj4wyyvhrnruxexlrqk8i2zm,39loel67owiajnkdd6g8svv5gj983m,0zkHfODO,2020-0188,2020-06-16,13:01:52,13:22:20,NA,incomplete,193,race,3,1,left,A_M_14.jpg,A_F_08.jpg,C_M_13.jpg,left,797.1150000013877,true,high,false
0zkHfODO,3p7qk0gj4wyyvhrnruxexlrqk8i2zm,39loel67owiajnkdd6g8svv5gj983m,0zkHfODO,2020-0188,2020-06-16,13:01:52,13:22:20,NA,incomplete,194,race,3,0,right,C_F_09.jpg,A_F_14.jpg,C_M_06.jpg,right,861.9400000025053,true,high,false
0zkHfODO,3p7qk0gj4wyyvhrnruxexlrqk8i2zm,39loel67owiajnkdd6g8svv5gj983m,0zkHfODO,2020-0188,2020-06-16,13:01:52,13:22:20,NA,incomplete,195,race,3,1,left,A_M_12.jpg,A_F_14.jpg,C_M_15.jpg,left,728.8699999989476,true,high,false
0zkHfODO,3p7qk0gj4wyyvhrnruxexlrqk8i2zm,39loel67owiajnkdd6g8svv5gj983m,0zkHfODO,2020-0188,2020-06-16,13:01:52,13:22:20,NA,incomplete,196,race,3,1,right,C_F_02.jpg,A_F_03.jpg,C_M_01.jpg,right,700.8249999999534,true,high,false
0zkHfODO,3p7qk0gj4wyyvhrnruxexlrqk8i2zm,39loel67owiajnkdd6g8svv5gj983m,0zkHfODO,2020-0188,2020-06-16,13:01:52,13:22:20,NA,incomplete,197,race,3,1,left,A_F_09.jpg,A_M_04.jpg,C_F_10.jpg,left,832.6299999970943,true,high,false
0zkHfODO,3p7qk0gj4wyyvhrnruxexlrqk8i2zm,39loel67owiajnkdd6g8svv5gj983m,0zkHfODO,2020-0188,2020-06-16,13:01:52,13:22:20,NA,incomplete,198,race,3,0,left,A_M_13.jpg,A_F_08.jpg,C_M_07.jpg,left,830.5150000015274,true,high,false
0zkHfODO,3p7qk0gj4wyyvhrnruxexlrqk8i2zm,39loel67owiajnkdd6g8svv5gj983m,0zkHfODO,2020-0188,2020-06-16,13:01:52,13:22:20,NA,incomplete,199,race,3,1,left,C_M_07.jpg,C_F_10.jpg,A_M_15.jpg,left,1005.3100000005215,true,high,false
0zkHfODO,3p7qk0gj4wyyvhrnruxexlrqk8i2zm,39loel67owiajnkdd6g8svv5gj983m,0zkHfODO,2020-0188,2020-06-16,13:01:52,13:22:20,NA,incomplete,200,gender,2,0,left,C_F_12.jpg,A_F_15.jpg,C_M_09.jpg,right,815.2850000006147,false,high,false
0zkHfODO,3p7qk0gj4wyyvhrnruxexlrqk8i2zm,39loel67owiajnkdd6g8svv5gj983m,0zkHfODO,2020-0188,2020-06-16,13:01:52,13:22:20,NA,incomplete,201,gender,2,1,right,C_M_11.jpg,C_F_04.jpg,A_M_08.jpg,left,973.0500000005122,false,high,false
0zkHfODO,3p7qk0gj4wyyvhrnruxexlrqk8i2zm,39loel67owiajnkdd6g8svv5gj983m,0zkHfODO,2020-0188,2020-06-16,13:01:52,13:22:20,NA,incomplete,202,gender,2,1,right,A_F_10.jpg,A_M_02.jpg,C_F_05.jpg,left,882.9450000012293,false,high,false
0zkHfODO,3p7qk0gj4wyyvhrnruxexlrqk8i2zm,39loel67owiajnkdd6g8svv5gj983m,0zkHfODO,2020-0188,2020-06-16,13:01:52,13:22:20,NA,incomplete,203,gender,2,1,left,A_M_06.jpg,C_M_09.jpg,A_F_08.jpg,left,908.8799999991897,true,high,false
0zkHfODO,3p7qk0gj4wyyvhrnruxexlrqk8i2zm,39loel67owiajnkdd6g8svv5gj983m,0zkHfODO,2020-0188,2020-06-16,13:01:52,13:22:20,NA,incomplete,204,gender,2,0,right,A_F_04.jpg,A_M_09.jpg,C_F_11.jpg,right,679.5200000014156,true,high,false
0zkHfODO,3p7qk0gj4wyyvhrnruxexlrqk8i2zm,39loel67owiajnkdd6g8svv5gj983m,0zkHfODO,2020-0188,2020-06-16,13:01:52,13:22:20,NA,incomplete,205,gender,2,1,left,A_M_01.jpg,C_M_08.jpg,A_F_13.jpg,left,716.2050000005402,true,high,false
0zkHfODO,3p7qk0gj4wyyvhrnruxexlrqk8i2zm,39loel67owiajnkdd6g8svv5gj983m,0zkHfODO,2020-0188,2020-06-16,13:01:52,13:22:20,NA,incomplete,206,gender,2,1,left,C_M_09.jpg,A_M_08.jpg,C_F_06.jpg,left,719.5500000016764,true,high,false
0zkHfODO,3p7qk0gj4wyyvhrnruxexlrqk8i2zm,39loel67owiajnkdd6g8svv5gj983m,0zkHfODO,2020-0188,2020-06-16,13:01:52,13:22:20,NA,incomplete,207,gender,2,1,left,C_M_03.jpg,A_M_11.jpg,C_F_15.jpg,left,707.4750000028871,true,high,false
0zkHfODO,3p7qk0gj4wyyvhrnruxexlrqk8i2zm,39loel67owiajnkdd6g8svv5gj983m,0zkHfODO,2020-0188,2020-06-16,13:01:52,13:22:20,NA,incomplete,208,gender,2,1,left,A_F_03.jpg,C_F_11.jpg,A_M_05.jpg,left,808.1950000012293,true,high,false
0zkHfODO,3p7qk0gj4wyyvhrnruxexlrqk8i2zm,39loel67owiajnkdd6g8svv5gj983m,0zkHfODO,2020-0188,2020-06-16,13:01:52,13:22:20,NA,incomplete,209,gender,2,1,right,A_M_05.jpg,A_F_14.jpg,C_M_11.jpg,right,647.874999998603,true,high,false
0zkHfODO,3p7qk0gj4wyyvhrnruxexlrqk8i2zm,39loel67owiajnkdd6g8svv5gj983m,0zkHfODO,2020-0188,2020-06-16,13:01:52,13:22:20,NA,incomplete,210,gender,2,1,left,A_M_08.jpg,C_M_07.jpg,A_F_03.jpg,left,701.8699999973178,true,high,false
0zkHfODO,3p7qk0gj4wyyvhrnruxexlrqk8i2zm,39loel67owiajnkdd6g8svv5gj983m,0zkHfODO,2020-0188,2020-06-16,13:01:52,13:22:20,NA,incomplete,211,gender,2,1,right,C_M_16.jpg,C_F_03.jpg,A_M_08.jpg,right,738.7849999978207,true,high,false
0zkHfODO,3p7qk0gj4wyyvhrnruxexlrqk8i2zm,39loel67owiajnkdd6g8svv5gj983m,0zkHfODO,2020-0188,2020-06-16,13:01:52,13:22:20,NA,incomplete,212,gender,2,0,left,A_M_08.jpg,C_M_01.jpg,A_F_10.jpg,left,629.6049999981187,true,high,false
0zkHfODO,3p7qk0gj4wyyvhrnruxexlrqk8i2zm,39loel67owiajnkdd6g8svv5gj983m,0zkHfODO,2020-0188,2020-06-16,13:01:52,13:22:20,NA,incomplete,213,gender,2,1,left,A_F_11.jpg,C_F_10.jpg,A_M_09.jpg,left,749.4950000001118,true,high,false
0zkHfODO,3p7qk0gj4wyyvhrnruxexlrqk8i2zm,39loel67owiajnkdd6g8svv5gj983m,0zkHfODO,2020-0188,2020-06-16,13:01:52,13:22:20,NA,incomplete,214,gender,2,1,right,C_F_04.jpg,C_M_08.jpg,A_F_13.jpg,right,673.2999999984168,true,high,false
0zkHfODO,3p7qk0gj4wyyvhrnruxexlrqk8i2zm,39loel67owiajnkdd6g8svv5gj983m,0zkHfODO,2020-0188,2020-06-16,13:01:52,13:22:20,NA,incomplete,215,gender,2,0,right,A_F_12.jpg,A_M_06.jpg,C_F_13.jpg,right,726.300000002142,true,high,false
0zkHfODO,3p7qk0gj4wyyvhrnruxexlrqk8i2zm,39loel67owiajnkdd6g8svv5gj983m,0zkHfODO,2020-0188,2020-06-16,13:01:52,13:22:20,NA,incomplete,216,gender,2,1,right,C_F_05.jpg,C_M_04.jpg,A_F_16.jpg,right,634.4600000011269,true,high,false
0zkHfODO,3p7qk0gj4wyyvhrnruxexlrqk8i2zm,39loel67owiajnkdd6g8svv5gj983m,0zkHfODO,2020-0188,2020-06-16,13:01:52,13:22:20,NA,incomplete,217,gender,2,0,right,A_F_01.jpg,A_M_04.jpg,C_F_03.jpg,right,658.0199999990873,true,high,false
0zkHfODO,3p7qk0gj4wyyvhrnruxexlrqk8i2zm,39loel67owiajnkdd6g8svv5gj983m,0zkHfODO,2020-0188,2020-06-16,13:01:52,13:22:20,NA,incomplete,218,gender,2,1,right,C_F_10.jpg,C_M_05.jpg,A_F_07.jpg,right,731.619999998482,true,high,false
0zkHfODO,3p7qk0gj4wyyvhrnruxexlrqk8i2zm,39loel67owiajnkdd6g8svv5gj983m,0zkHfODO,2020-0188,2020-06-16,13:01:52,13:22:20,NA,incomplete,219,gender,2,0,left,C_M_09.jpg,A_M_11.jpg,C_F_16.jpg,left,620.5699999991339,true,high,false
0zkHfODO,3p7qk0gj4wyyvhrnruxexlrqk8i2zm,39loel67owiajnkdd6g8svv5gj983m,0zkHfODO,2020-0188,2020-06-16,13:01:52,13:22:20,NA,incomplete,220,race,3,1,right,A_M_03.jpg,C_M_04.jpg,A_F_13.jpg,left,693.6999999997206,false,high,false
0zkHfODO,3p7qk0gj4wyyvhrnruxexlrqk8i2zm,39loel67owiajnkdd6g8svv5gj983m,0zkHfODO,2020-0188,2020-06-16,13:01:52,13:22:20,NA,incomplete,221,race,3,1,left,A_M_15.jpg,A_F_01.jpg,C_M_13.jpg,left,795.6999999987893,true,high,false
0zkHfODO,3p7qk0gj4wyyvhrnruxexlrqk8i2zm,39loel67owiajnkdd6g8svv5gj983m,0zkHfODO,2020-0188,2020-06-16,13:01:52,13:22:20,NA,incomplete,222,race,3,0,right,C_F_10.jpg,A_F_13.jpg,C_M_08.jpg,right,907.5200000007171,true,high,false
0zkHfODO,3p7qk0gj4wyyvhrnruxexlrqk8i2zm,39loel67owiajnkdd6g8svv5gj983m,0zkHfODO,2020-0188,2020-06-16,13:01:52,13:22:20,NA,incomplete,223,race,3,1,right,A_F_03.jpg,C_F_08.jpg,A_M_09.jpg,right,836.4699999983422,true,high,false
0zkHfODO,3p7qk0gj4wyyvhrnruxexlrqk8i2zm,39loel67owiajnkdd6g8svv5gj983m,0zkHfODO,2020-0188,2020-06-16,13:01:52,13:22:20,NA,incomplete,224,race,3,1,right,A_M_11.jpg,C_M_06.jpg,A_F_15.jpg,right,802.1249999983702,true,high,false
0zkHfODO,3p7qk0gj4wyyvhrnruxexlrqk8i2zm,39loel67owiajnkdd6g8svv5gj983m,0zkHfODO,2020-0188,2020-06-16,13:01:52,13:22:20,NA,incomplete,225,race,3,1,left,A_F_12.jpg,A_M_07.jpg,C_F_08.jpg,left,818.8349999983329,true,high,false
0zkHfODO,3p7qk0gj4wyyvhrnruxexlrqk8i2zm,39loel67owiajnkdd6g8svv5gj983m,0zkHfODO,2020-0188,2020-06-16,13:01:52,13:22:20,NA,incomplete,226,race,3,1,right,A_F_07.jpg,C_F_08.jpg,A_M_12.jpg,right,925.9600000004284,true,high,false
0zkHfODO,3p7qk0gj4wyyvhrnruxexlrqk8i2zm,39loel67owiajnkdd6g8svv5gj983m,0zkHfODO,2020-0188,2020-06-16,13:01:52,13:22:20,NA,incomplete,227,race,3,1,right,C_M_15.jpg,A_M_04.jpg,C_F_16.jpg,right,822.7050000024028,true,high,false
0zkHfODO,3p7qk0gj4wyyvhrnruxexlrqk8i2zm,39loel67owiajnkdd6g8svv5gj983m,0zkHfODO,2020-0188,2020-06-16,13:01:52,13:22:20,NA,incomplete,228,race,3,1,right,A_M_12.jpg,C_M_14.jpg,A_F_16.jpg,right,804.609999999404,true,high,false
0zkHfODO,3p7qk0gj4wyyvhrnruxexlrqk8i2zm,39loel67owiajnkdd6g8svv5gj983m,0zkHfODO,2020-0188,2020-06-16,13:01:52,13:22:20,NA,incomplete,229,race,3,0,right,C_F_10.jpg,A_F_06.jpg,C_M_01.jpg,left,886.5450000013225,false,high,false
0zkHfODO,3p7qk0gj4wyyvhrnruxexlrqk8i2zm,39loel67owiajnkdd6g8svv5gj983m,0zkHfODO,2020-0188,2020-06-16,13:01:52,13:22:20,NA,incomplete,230,race,3,1,right,C_F_10.jpg,A_F_16.jpg,C_M_04.jpg,left,1005.5649999994785,false,high,false
0zkHfODO,3p7qk0gj4wyyvhrnruxexlrqk8i2zm,39loel67owiajnkdd6g8svv5gj983m,0zkHfODO,2020-0188,2020-06-16,13:01:52,13:22:20,NA,incomplete,231,race,3,1,right,C_M_09.jpg,A_M_14.jpg,C_F_08.jpg,right,849.214999998454,true,high,false
0zkHfODO,3p7qk0gj4wyyvhrnruxexlrqk8i2zm,39loel67owiajnkdd6g8svv5gj983m,0zkHfODO,2020-0188,2020-06-16,13:01:52,13:22:20,NA,incomplete,232,race,3,1,right,A_M_12.jpg,C_M_03.jpg,A_F_10.jpg,right,909.1899999985471,true,high,false
0zkHfODO,3p7qk0gj4wyyvhrnruxexlrqk8i2zm,39loel67owiajnkdd6g8svv5gj983m,0zkHfODO,2020-0188,2020-06-16,13:01:52,13:22:20,NA,incomplete,233,race,3,1,right,C_F_14.jpg,A_F_07.jpg,C_M_12.jpg,right,1060.5700000014622,true,high,false
0zkHfODO,3p7qk0gj4wyyvhrnruxexlrqk8i2zm,39loel67owiajnkdd6g8svv5gj983m,0zkHfODO,2020-0188,2020-06-16,13:01:52,13:22:20,NA,incomplete,234,race,3,1,right,C_F_08.jpg,A_F_09.jpg,C_M_07.jpg,right,871.7350000005681,true,high,false
0zkHfODO,3p7qk0gj4wyyvhrnruxexlrqk8i2zm,39loel67owiajnkdd6g8svv5gj983m,0zkHfODO,2020-0188,2020-06-16,13:01:52,13:22:20,NA,incomplete,235,race,3,1,right,C_F_04.jpg,A_F_08.jpg,C_M_12.jpg,right,897.7850000010803,true,high,false
0zkHfODO,3p7qk0gj4wyyvhrnruxexlrqk8i2zm,39loel67owiajnkdd6g8svv5gj983m,0zkHfODO,2020-0188,2020-06-16,13:01:52,13:22:20,NA,incomplete,236,race,3,1,right,C_M_05.jpg,A_M_09.jpg,C_F_12.jpg,right,764.4849999996368,true,high,false
0zkHfODO,3p7qk0gj4wyyvhrnruxexlrqk8i2zm,39loel67owiajnkdd6g8svv5gj983m,0zkHfODO,2020-0188,2020-06-16,13:01:52,13:22:20,NA,incomplete,237,race,3,1,left,A_F_04.jpg,A_M_02.jpg,C_F_16.jpg,left,717.4400000004098,true,high,false
0zkHfODO,3p7qk0gj4wyyvhrnruxexlrqk8i2zm,39loel67owiajnkdd6g8svv5gj983m,0zkHfODO,2020-0188,2020-06-16,13:01:52,13:22:20,NA,incomplete,238,race,3,0,left,C_M_15.jpg,C_F_14.jpg,A_M_07.jpg,left,848.2450000010431,true,high,false
0zkHfODO,3p7qk0gj4wyyvhrnruxexlrqk8i2zm,39loel67owiajnkdd6g8svv5gj983m,0zkHfODO,2020-0188,2020-06-16,13:01:52,13:22:20,NA,incomplete,239,race,3,1,right,A_M_15.jpg,C_M_02.jpg,A_F_16.jpg,right,717.9600000018254,true,high,false
0zkHfODO,3p7qk0gj4wyyvhrnruxexlrqk8i2zm,39loel67owiajnkdd6g8svv5gj983m,0zkHfODO,2020-0188,2020-06-16,13:01:52,13:22:20,NA,NA,instruction example,filling,NA,NA,NA,Purple_Circle_Stripes_4.jpg,Green_Star_Stripes_3.jpg,Red_Circle_Chess_2.jpg,NA,NA,NA,NA,undefined
0zkHfODO,3p7qk0gj4wyyvhrnruxexlrqk8i2zm,39loel67owiajnkdd6g8svv5gj983m,0zkHfODO,2020-0188,2020-06-16,13:01:52,13:22:20,NA,NA,instruction example,filling,NA,NA,NA,Green_Star_Dots_3.jpg,Red_Star_Chess_2.jpg,Blue_Plus_Dots_4.jpg,NA,NA,NA,NA,undefined
0zkHfODO,3p7qk0gj4wyyvhrnruxexlrqk8i2zm,39loel67owiajnkdd6g8svv5gj983m,0zkHfODO,2020-0188,2020-06-16,13:01:52,13:22:20,NA,NA,instruction example,filling,NA,NA,NA,A_F_15.jpg,C_F_11.jpg,A_M_10.jpg,NA,NA,NA,NA,undefined
0zkHfODO,3p7qk0gj4wyyvhrnruxexlrqk8i2zm,39loel67owiajnkdd6g8svv5gj983m,0zkHfODO,2020-0188,2020-06-16,13:01:52,13:22:20,NA,NA,instruction example,filling,NA,NA,NA,C_F_14.jpg,C_M_15.jpg,A_F_12.jpg,NA,NA,NA,NA,undefined
