workerId,hitId,assignmentId,subject,studyid,exp_date,exp_start,exp_end,time_start,time_end,trial,type,sequence,reward_validity,answer,image_top,image_left,image_right,response,response_time,response_acc,volatility,age,race,gender,ethnicity,color,vision,neuro,practice
FEohHxsa,3y3czjszan6hsnojzw5z9ps3vnar5b,39owyr0epo4ke5roa5f4sh84awqfy3,FEohHxsa,2020-0188,2020-06-04,10:38:47,11:02:00,NA,incomplete,0,shape,0,1,right,Blue_Star_Grid_2.jpg,Purple_Triangle_Grid_4.jpg,Red_Star_Stripes_1.jpg,left,1449.6000000508502,false,NA,NA,NA,NA,NA,NA,NA,NA,true
FEohHxsa,3y3czjszan6hsnojzw5z9ps3vnar5b,39owyr0epo4ke5roa5f4sh84awqfy3,FEohHxsa,2020-0188,2020-06-04,10:38:47,11:02:00,NA,incomplete,1,shape,0,1,right,Purple_Star_Stripes_2.jpg,Green_Plus_Stripes_4.jpg,Red_Star_Dots_1.jpg,right,1053.9000000571832,true,NA,NA,NA,NA,NA,NA,NA,NA,true
FEohHxsa,3y3czjszan6hsnojzw5z9ps3vnar5b,39owyr0epo4ke5roa5f4sh84awqfy3,FEohHxsa,2020-0188,2020-06-04,10:38:47,11:02:00,NA,incomplete,2,shape,0,0,right,Red_Plus_Stripes_2.jpg,Purple_Circle_Stripes_4.jpg,Blue_Plus_Grid_1.jpg,right,1375.2049999311566,true,NA,NA,NA,NA,NA,NA,NA,NA,true
FEohHxsa,3y3czjszan6hsnojzw5z9ps3vnar5b,39owyr0epo4ke5roa5f4sh84awqfy3,FEohHxsa,2020-0188,2020-06-04,10:38:47,11:02:00,NA,incomplete,3,shape,0,1,left,Green_Star_Stripes_1.jpg,Purple_Star_Dots_3.jpg,Red_Circle_Stripes_2.jpg,left,1326.5150000806898,true,NA,NA,NA,NA,NA,NA,NA,NA,true
FEohHxsa,3y3czjszan6hsnojzw5z9ps3vnar5b,39owyr0epo4ke5roa5f4sh84awqfy3,FEohHxsa,2020-0188,2020-06-04,10:38:47,11:02:00,NA,incomplete,4,shape,0,1,left,Purple_Star_Dots_2.jpg,Blue_Star_Grid_4.jpg,Red_Circle_Dots_3.jpg,left,742.9799999808893,true,NA,NA,NA,NA,NA,NA,NA,NA,true
FEohHxsa,3y3czjszan6hsnojzw5z9ps3vnar5b,39owyr0epo4ke5roa5f4sh84awqfy3,FEohHxsa,2020-0188,2020-06-04,10:38:47,11:02:00,NA,incomplete,5,shape,0,1,right,Red_Star_Grid_1.jpg,Green_Plus_Grid_2.jpg,Blue_Star_Chess_3.jpg,right,1026.9899999257177,true,NA,NA,NA,NA,NA,NA,NA,NA,true
FEohHxsa,3y3czjszan6hsnojzw5z9ps3vnar5b,39owyr0epo4ke5roa5f4sh84awqfy3,FEohHxsa,2020-0188,2020-06-04,10:38:47,11:02:00,NA,incomplete,6,shape,0,0,right,Purple_Circle_Stripes_4.jpg,Red_Triangle_Stripes_2.jpg,Green_Circle_Grid_3.jpg,right,1366.6400000220165,true,NA,NA,NA,NA,NA,NA,NA,NA,true
FEohHxsa,3y3czjszan6hsnojzw5z9ps3vnar5b,39owyr0epo4ke5roa5f4sh84awqfy3,FEohHxsa,2020-0188,2020-06-04,10:38:47,11:02:00,NA,incomplete,7,shape,0,1,right,Blue_Plus_Chess_1.jpg,Purple_Circle_Chess_4.jpg,Green_Plus_Stripes_2.jpg,right,1140.940000070259,true,NA,NA,NA,NA,NA,NA,NA,NA,true
FEohHxsa,3y3czjszan6hsnojzw5z9ps3vnar5b,39owyr0epo4ke5roa5f4sh84awqfy3,FEohHxsa,2020-0188,2020-06-04,10:38:47,11:02:00,NA,incomplete,8,shape,0,1,left,Red_Plus_Stripes_4.jpg,Green_Plus_Grid_3.jpg,Blue_Triangle_Stripes_2.jpg,left,1114.4199999980628,true,NA,NA,NA,NA,NA,NA,NA,NA,true
FEohHxsa,3y3czjszan6hsnojzw5z9ps3vnar5b,39owyr0epo4ke5roa5f4sh84awqfy3,FEohHxsa,2020-0188,2020-06-04,10:38:47,11:02:00,NA,incomplete,9,shape,0,0,right,Green_Star_Grid_2.jpg,Red_Triangle_Grid_1.jpg,Purple_Star_Stripes_4.jpg,right,994.2449999507517,true,NA,NA,NA,NA,NA,NA,NA,NA,true
FEohHxsa,3y3czjszan6hsnojzw5z9ps3vnar5b,39owyr0epo4ke5roa5f4sh84awqfy3,FEohHxsa,2020-0188,2020-06-04,10:38:47,11:02:00,NA,incomplete,10,shape,0,1,right,Red_Triangle_Grid_2.jpg,Blue_Star_Grid_4.jpg,Purple_Triangle_Dots_1.jpg,right,1167.9800000274554,true,NA,NA,NA,NA,NA,NA,NA,NA,true
FEohHxsa,3y3czjszan6hsnojzw5z9ps3vnar5b,39owyr0epo4ke5roa5f4sh84awqfy3,FEohHxsa,2020-0188,2020-06-04,10:38:47,11:02:00,NA,incomplete,11,shape,0,1,left,Green_Circle_Stripes_2.jpg,Blue_Circle_Chess_4.jpg,Red_Plus_Stripes_1.jpg,left,822.1700000576675,true,NA,NA,NA,NA,NA,NA,NA,NA,true
FEohHxsa,3y3czjszan6hsnojzw5z9ps3vnar5b,39owyr0epo4ke5roa5f4sh84awqfy3,FEohHxsa,2020-0188,2020-06-04,10:38:47,11:02:00,NA,incomplete,12,shape,0,0,left,Purple_Star_Stripes_2.jpg,Green_Star_Grid_3.jpg,Blue_Triangle_Stripes_4.jpg,left,896.9250000081956,true,NA,NA,NA,NA,NA,NA,NA,NA,true
FEohHxsa,3y3czjszan6hsnojzw5z9ps3vnar5b,39owyr0epo4ke5roa5f4sh84awqfy3,FEohHxsa,2020-0188,2020-06-04,10:38:47,11:02:00,NA,incomplete,13,shape,0,1,right,Green_Plus_Grid_4.jpg,Purple_Circle_Grid_2.jpg,Blue_Plus_Stripes_1.jpg,right,785.0699999835342,true,NA,NA,NA,NA,NA,NA,NA,NA,true
FEohHxsa,3y3czjszan6hsnojzw5z9ps3vnar5b,39owyr0epo4ke5roa5f4sh84awqfy3,FEohHxsa,2020-0188,2020-06-04,10:38:47,11:02:00,NA,incomplete,14,shape,0,1,left,Blue_Plus_Dots_3.jpg,Purple_Plus_Grid_4.jpg,Red_Star_Dots_1.jpg,left,1200.3799999365583,true,NA,NA,NA,NA,NA,NA,NA,NA,true
FEohHxsa,3y3czjszan6hsnojzw5z9ps3vnar5b,39owyr0epo4ke5roa5f4sh84awqfy3,FEohHxsa,2020-0188,2020-06-04,10:38:47,11:02:00,NA,incomplete,15,shape,0,1,right,Green_Circle_Grid_1.jpg,Red_Plus_Grid_2.jpg,Blue_Circle_Dots_3.jpg,right,962.4949999852106,true,NA,NA,NA,NA,NA,NA,NA,NA,true
FEohHxsa,3y3czjszan6hsnojzw5z9ps3vnar5b,39owyr0epo4ke5roa5f4sh84awqfy3,FEohHxsa,2020-0188,2020-06-04,10:38:47,11:02:00,NA,incomplete,16,shape,0,1,left,Purple_Plus_Dots_1.jpg,Red_Plus_Grid_4.jpg,Green_Triangle_Dots_3.jpg,left,944.5049999048933,true,NA,NA,NA,NA,NA,NA,NA,NA,true
FEohHxsa,3y3czjszan6hsnojzw5z9ps3vnar5b,39owyr0epo4ke5roa5f4sh84awqfy3,FEohHxsa,2020-0188,2020-06-04,10:38:47,11:02:00,NA,incomplete,17,shape,0,1,right,Red_Triangle_Dots_1.jpg,Purple_Star_Dots_4.jpg,Green_Triangle_Grid_3.jpg,right,990.5600000638515,true,NA,NA,NA,NA,NA,NA,NA,NA,true
FEohHxsa,3y3czjszan6hsnojzw5z9ps3vnar5b,39owyr0epo4ke5roa5f4sh84awqfy3,FEohHxsa,2020-0188,2020-06-04,10:38:47,11:02:00,NA,incomplete,18,shape,0,1,right,Green_Star_Chess_4.jpg,Red_Circle_Chess_2.jpg,Blue_Star_Dots_1.jpg,right,1076.1250000214204,true,NA,NA,NA,NA,NA,NA,NA,NA,true
FEohHxsa,3y3czjszan6hsnojzw5z9ps3vnar5b,39owyr0epo4ke5roa5f4sh84awqfy3,FEohHxsa,2020-0188,2020-06-04,10:38:47,11:02:00,NA,incomplete,19,shape,0,0,left,Red_Triangle_Grid_3.jpg,Purple_Triangle_Stripes_1.jpg,Blue_Plus_Grid_4.jpg,left,981.6550000105053,true,NA,NA,NA,NA,NA,NA,NA,NA,true
FEohHxsa,3y3czjszan6hsnojzw5z9ps3vnar5b,39owyr0epo4ke5roa5f4sh84awqfy3,FEohHxsa,2020-0188,2020-06-04,10:38:47,11:02:00,NA,incomplete,20,filling,1,1,left,Blue_Triangle_Grid_4.jpg,Red_Circle_Grid_3.jpg,Purple_Triangle_Stripes_2.jpg,none,0,false,NA,NA,NA,NA,NA,NA,NA,NA,true
FEohHxsa,3y3czjszan6hsnojzw5z9ps3vnar5b,39owyr0epo4ke5roa5f4sh84awqfy3,FEohHxsa,2020-0188,2020-06-04,10:38:47,11:02:00,NA,incomplete,21,filling,1,1,left,Blue_Star_Stripes_3.jpg,Purple_Circle_Stripes_1.jpg,Red_Star_Grid_2.jpg,left,987.1349999448285,true,NA,NA,NA,NA,NA,NA,NA,NA,true
FEohHxsa,3y3czjszan6hsnojzw5z9ps3vnar5b,39owyr0epo4ke5roa5f4sh84awqfy3,FEohHxsa,2020-0188,2020-06-04,10:38:47,11:02:00,NA,incomplete,22,filling,1,1,right,Red_Triangle_Grid_2.jpg,Purple_Triangle_Stripes_1.jpg,Green_Circle_Grid_3.jpg,right,1336.0450000036508,true,NA,NA,NA,NA,NA,NA,NA,NA,true
FEohHxsa,3y3czjszan6hsnojzw5z9ps3vnar5b,39owyr0epo4ke5roa5f4sh84awqfy3,FEohHxsa,2020-0188,2020-06-04,10:38:47,11:02:00,NA,incomplete,23,filling,1,1,left,Purple_Star_Grid_4.jpg,Green_Plus_Grid_3.jpg,Blue_Star_Stripes_2.jpg,left,862.2050000121817,true,NA,NA,NA,NA,NA,NA,NA,NA,true
FEohHxsa,3y3czjszan6hsnojzw5z9ps3vnar5b,39owyr0epo4ke5roa5f4sh84awqfy3,FEohHxsa,2020-0188,2020-06-04,10:38:47,11:02:00,NA,incomplete,24,filling,1,1,left,Blue_Circle_Dots_3.jpg,Red_Triangle_Dots_4.jpg,Green_Circle_Grid_1.jpg,left,1537.5050000147894,true,NA,NA,NA,NA,NA,NA,NA,NA,true
FEohHxsa,3y3czjszan6hsnojzw5z9ps3vnar5b,39owyr0epo4ke5roa5f4sh84awqfy3,FEohHxsa,2020-0188,2020-06-04,10:38:47,11:02:00,NA,incomplete,25,filling,1,0,right,Blue_Triangle_Dots_3.jpg,Red_Triangle_Stripes_4.jpg,Purple_Star_Dots_2.jpg,right,1143.2050000876188,true,NA,NA,NA,NA,NA,NA,NA,NA,true
FEohHxsa,3y3czjszan6hsnojzw5z9ps3vnar5b,39owyr0epo4ke5roa5f4sh84awqfy3,FEohHxsa,2020-0188,2020-06-04,10:38:47,11:02:00,NA,incomplete,26,filling,1,1,right,Red_Triangle_Dots_3.jpg,Blue_Triangle_Grid_4.jpg,Green_Plus_Dots_2.jpg,right,1381.6200000001118,true,NA,NA,NA,NA,NA,NA,NA,NA,true
FEohHxsa,3y3czjszan6hsnojzw5z9ps3vnar5b,39owyr0epo4ke5roa5f4sh84awqfy3,FEohHxsa,2020-0188,2020-06-04,10:38:47,11:02:00,NA,incomplete,27,filling,1,1,right,Red_Triangle_Grid_3.jpg,Blue_Triangle_Chess_1.jpg,Purple_Circle_Grid_2.jpg,right,1251.2650000862777,true,NA,NA,NA,NA,NA,NA,NA,NA,true
FEohHxsa,3y3czjszan6hsnojzw5z9ps3vnar5b,39owyr0epo4ke5roa5f4sh84awqfy3,FEohHxsa,2020-0188,2020-06-04,10:38:47,11:02:00,NA,incomplete,28,filling,1,1,right,Red_Star_Stripes_1.jpg,Green_Star_Grid_3.jpg,Blue_Circle_Stripes_4.jpg,right,1118.8800000818446,true,NA,NA,NA,NA,NA,NA,NA,NA,true
FEohHxsa,3y3czjszan6hsnojzw5z9ps3vnar5b,39owyr0epo4ke5roa5f4sh84awqfy3,FEohHxsa,2020-0188,2020-06-04,10:38:47,11:02:00,NA,incomplete,29,filling,1,0,left,Red_Triangle_Stripes_2.jpg,Green_Star_Stripes_3.jpg,Purple_Triangle_Chess_4.jpg,left,1074.9249999644235,true,NA,NA,NA,NA,NA,NA,NA,NA,true
FEohHxsa,3y3czjszan6hsnojzw5z9ps3vnar5b,39owyr0epo4ke5roa5f4sh84awqfy3,FEohHxsa,2020-0188,2020-06-04,10:38:47,11:02:00,NA,incomplete,30,filling,1,1,left,Green_Circle_Chess_1.jpg,Purple_Triangle_Chess_2.jpg,Red_Circle_Dots_4.jpg,left,1077.2949999663979,true,NA,NA,NA,NA,NA,NA,NA,NA,true
FEohHxsa,3y3czjszan6hsnojzw5z9ps3vnar5b,39owyr0epo4ke5roa5f4sh84awqfy3,FEohHxsa,2020-0188,2020-06-04,10:38:47,11:02:00,NA,incomplete,31,filling,1,1,right,Purple_Star_Grid_1.jpg,Green_Star_Dots_4.jpg,Red_Triangle_Grid_3.jpg,right,806.5550000173971,true,NA,NA,NA,NA,NA,NA,NA,NA,true
FEohHxsa,3y3czjszan6hsnojzw5z9ps3vnar5b,39owyr0epo4ke5roa5f4sh84awqfy3,FEohHxsa,2020-0188,2020-06-04,10:38:47,11:02:00,NA,incomplete,32,filling,1,0,right,Purple_Plus_Grid_3.jpg,Green_Plus_Dots_2.jpg,Red_Triangle_Grid_1.jpg,left,986.765000037849,false,NA,NA,NA,NA,NA,NA,NA,NA,true
FEohHxsa,3y3czjszan6hsnojzw5z9ps3vnar5b,39owyr0epo4ke5roa5f4sh84awqfy3,FEohHxsa,2020-0188,2020-06-04,10:38:47,11:02:00,NA,incomplete,33,filling,1,1,left,Green_Plus_Grid_2.jpg,Blue_Circle_Grid_1.jpg,Red_Plus_Chess_4.jpg,left,1288.8800000073388,true,NA,NA,NA,NA,NA,NA,NA,NA,true
FEohHxsa,3y3czjszan6hsnojzw5z9ps3vnar5b,39owyr0epo4ke5roa5f4sh84awqfy3,FEohHxsa,2020-0188,2020-06-04,10:38:47,11:02:00,NA,incomplete,34,filling,1,1,right,Blue_Plus_Stripes_3.jpg,Red_Plus_Dots_2.jpg,Green_Triangle_Stripes_4.jpg,right,1119.9150000466034,true,NA,NA,NA,NA,NA,NA,NA,NA,true
FEohHxsa,3y3czjszan6hsnojzw5z9ps3vnar5b,39owyr0epo4ke5roa5f4sh84awqfy3,FEohHxsa,2020-0188,2020-06-04,10:38:47,11:02:00,NA,incomplete,35,filling,1,1,left,Blue_Circle_Stripes_3.jpg,Purple_Triangle_Stripes_1.jpg,Red_Circle_Chess_4.jpg,left,847.1399999689311,true,NA,NA,NA,NA,NA,NA,NA,NA,true
FEohHxsa,3y3czjszan6hsnojzw5z9ps3vnar5b,39owyr0epo4ke5roa5f4sh84awqfy3,FEohHxsa,2020-0188,2020-06-04,10:38:47,11:02:00,NA,incomplete,36,filling,1,1,right,Green_Triangle_Stripes_1.jpg,Purple_Triangle_Grid_4.jpg,Red_Plus_Stripes_3.jpg,left,1146.3999999687076,false,NA,NA,NA,NA,NA,NA,NA,NA,true
FEohHxsa,3y3czjszan6hsnojzw5z9ps3vnar5b,39owyr0epo4ke5roa5f4sh84awqfy3,FEohHxsa,2020-0188,2020-06-04,10:38:47,11:02:00,NA,incomplete,37,filling,1,1,right,Green_Triangle_Grid_2.jpg,Red_Triangle_Dots_4.jpg,Purple_Plus_Grid_1.jpg,right,1025.2099999925122,true,NA,NA,NA,NA,NA,NA,NA,NA,true
FEohHxsa,3y3czjszan6hsnojzw5z9ps3vnar5b,39owyr0epo4ke5roa5f4sh84awqfy3,FEohHxsa,2020-0188,2020-06-04,10:38:47,11:02:00,NA,incomplete,38,filling,1,1,left,Purple_Plus_Dots_4.jpg,Red_Circle_Dots_2.jpg,Blue_Plus_Chess_1.jpg,left,964.0199999557808,true,NA,NA,NA,NA,NA,NA,NA,NA,true
FEohHxsa,3y3czjszan6hsnojzw5z9ps3vnar5b,39owyr0epo4ke5roa5f4sh84awqfy3,FEohHxsa,2020-0188,2020-06-04,10:38:47,11:02:00,NA,incomplete,39,filling,1,1,left,Blue_Star_Chess_4.jpg,Green_Plus_Chess_3.jpg,Red_Star_Dots_2.jpg,left,1179.4549999758601,true,NA,NA,NA,NA,NA,NA,NA,NA,true
FEohHxsa,3y3czjszan6hsnojzw5z9ps3vnar5b,39owyr0epo4ke5roa5f4sh84awqfy3,FEohHxsa,2020-0188,2020-06-04,10:38:47,11:02:00,NA,incomplete,0,shape,0,1,right,Blue_Star_Dots_2.jpg,Purple_Triangle_Dots_4.jpg,Green_Star_Grid_1.jpg,none,0,false,high,NA,NA,NA,NA,NA,NA,NA,false
FEohHxsa,3y3czjszan6hsnojzw5z9ps3vnar5b,39owyr0epo4ke5roa5f4sh84awqfy3,FEohHxsa,2020-0188,2020-06-04,10:38:47,11:02:00,NA,incomplete,1,shape,0,1,left,Purple_Star_Chess_4.jpg,Green_Star_Stripes_3.jpg,Blue_Plus_Chess_2.jpg,right,1104.5399999711663,false,high,NA,NA,NA,NA,NA,NA,NA,false
FEohHxsa,3y3czjszan6hsnojzw5z9ps3vnar5b,39owyr0epo4ke5roa5f4sh84awqfy3,FEohHxsa,2020-0188,2020-06-04,10:38:47,11:02:00,NA,incomplete,2,shape,0,1,left,Red_Triangle_Grid_1.jpg,Blue_Triangle_Chess_4.jpg,Purple_Circle_Grid_2.jpg,left,704.6500000869855,true,high,NA,NA,NA,NA,NA,NA,NA,false
FEohHxsa,3y3czjszan6hsnojzw5z9ps3vnar5b,39owyr0epo4ke5roa5f4sh84awqfy3,FEohHxsa,2020-0188,2020-06-04,10:38:47,11:02:00,NA,incomplete,3,shape,0,1,right,Blue_Star_Chess_1.jpg,Red_Circle_Chess_2.jpg,Green_Star_Grid_4.jpg,left,840.2450000867248,false,high,NA,NA,NA,NA,NA,NA,NA,false
FEohHxsa,3y3czjszan6hsnojzw5z9ps3vnar5b,39owyr0epo4ke5roa5f4sh84awqfy3,FEohHxsa,2020-0188,2020-06-04,10:38:47,11:02:00,NA,incomplete,4,shape,0,1,right,Blue_Circle_Stripes_1.jpg,Purple_Star_Stripes_3.jpg,Green_Circle_Grid_2.jpg,right,1058.9400000171736,true,high,NA,NA,NA,NA,NA,NA,NA,false
FEohHxsa,3y3czjszan6hsnojzw5z9ps3vnar5b,39owyr0epo4ke5roa5f4sh84awqfy3,FEohHxsa,2020-0188,2020-06-04,10:38:47,11:02:00,NA,incomplete,5,shape,0,1,right,Green_Star_Stripes_4.jpg,Blue_Triangle_Stripes_2.jpg,Purple_Star_Grid_1.jpg,right,1189.9699999485165,true,high,NA,NA,NA,NA,NA,NA,NA,false
FEohHxsa,3y3czjszan6hsnojzw5z9ps3vnar5b,39owyr0epo4ke5roa5f4sh84awqfy3,FEohHxsa,2020-0188,2020-06-04,10:38:47,11:02:00,NA,incomplete,6,shape,0,1,right,Green_Triangle_Chess_2.jpg,Purple_Plus_Chess_3.jpg,Red_Triangle_Grid_4.jpg,right,945.9049999713898,true,high,NA,NA,NA,NA,NA,NA,NA,false
FEohHxsa,3y3czjszan6hsnojzw5z9ps3vnar5b,39owyr0epo4ke5roa5f4sh84awqfy3,FEohHxsa,2020-0188,2020-06-04,10:38:47,11:02:00,NA,incomplete,7,shape,0,1,left,Green_Triangle_Stripes_4.jpg,Purple_Triangle_Chess_3.jpg,Blue_Plus_Stripes_2.jpg,left,888.5149999987334,true,high,NA,NA,NA,NA,NA,NA,NA,false
FEohHxsa,3y3czjszan6hsnojzw5z9ps3vnar5b,39owyr0epo4ke5roa5f4sh84awqfy3,FEohHxsa,2020-0188,2020-06-04,10:38:47,11:02:00,NA,incomplete,8,shape,0,1,right,Red_Triangle_Dots_1.jpg,Green_Circle_Dots_3.jpg,Blue_Triangle_Grid_2.jpg,right,664.9750000797212,true,high,NA,NA,NA,NA,NA,NA,NA,false
FEohHxsa,3y3czjszan6hsnojzw5z9ps3vnar5b,39owyr0epo4ke5roa5f4sh84awqfy3,FEohHxsa,2020-0188,2020-06-04,10:38:47,11:02:00,NA,incomplete,9,shape,0,1,left,Red_Star_Chess_4.jpg,Purple_Star_Grid_3.jpg,Green_Circle_Chess_2.jpg,left,746.9750000163913,true,high,NA,NA,NA,NA,NA,NA,NA,false
FEohHxsa,3y3czjszan6hsnojzw5z9ps3vnar5b,39owyr0epo4ke5roa5f4sh84awqfy3,FEohHxsa,2020-0188,2020-06-04,10:38:47,11:02:00,NA,incomplete,10,filling,1,1,left,Green_Triangle_Dots_1.jpg,Red_Plus_Dots_2.jpg,Blue_Triangle_Chess_4.jpg,right,704.799999948591,false,high,NA,NA,NA,NA,NA,NA,NA,false
FEohHxsa,3y3czjszan6hsnojzw5z9ps3vnar5b,39owyr0epo4ke5roa5f4sh84awqfy3,FEohHxsa,2020-0188,2020-06-04,10:38:47,11:02:00,NA,incomplete,11,filling,1,0,left,Blue_Plus_Stripes_4.jpg,Green_Circle_Stripes_2.jpg,Red_Plus_Chess_1.jpg,right,940.3150000143796,false,high,NA,NA,NA,NA,NA,NA,NA,false
FEohHxsa,3y3czjszan6hsnojzw5z9ps3vnar5b,39owyr0epo4ke5roa5f4sh84awqfy3,FEohHxsa,2020-0188,2020-06-04,10:38:47,11:02:00,NA,incomplete,12,filling,1,1,left,Green_Triangle_Stripes_1.jpg,Blue_Plus_Stripes_3.jpg,Red_Triangle_Dots_4.jpg,right,797.4549999926239,false,high,NA,NA,NA,NA,NA,NA,NA,false
FEohHxsa,3y3czjszan6hsnojzw5z9ps3vnar5b,39owyr0epo4ke5roa5f4sh84awqfy3,FEohHxsa,2020-0188,2020-06-04,10:38:47,11:02:00,NA,incomplete,13,filling,1,1,left,Purple_Plus_Stripes_3.jpg,Red_Circle_Stripes_4.jpg,Green_Plus_Dots_1.jpg,left,1048.2349999947473,true,high,NA,NA,NA,NA,NA,NA,NA,false
FEohHxsa,3y3czjszan6hsnojzw5z9ps3vnar5b,39owyr0epo4ke5roa5f4sh84awqfy3,FEohHxsa,2020-0188,2020-06-04,10:38:47,11:02:00,NA,incomplete,14,filling,1,1,right,Green_Plus_Dots_2.jpg,Blue_Plus_Stripes_1.jpg,Purple_Star_Dots_3.jpg,right,1266.8050000211224,true,high,NA,NA,NA,NA,NA,NA,NA,false
FEohHxsa,3y3czjszan6hsnojzw5z9ps3vnar5b,39owyr0epo4ke5roa5f4sh84awqfy3,FEohHxsa,2020-0188,2020-06-04,10:38:47,11:02:00,NA,incomplete,15,filling,1,1,right,Purple_Plus_Chess_4.jpg,Red_Plus_Dots_2.jpg,Blue_Star_Chess_3.jpg,left,1268.210000009276,false,high,NA,NA,NA,NA,NA,NA,NA,false
FEohHxsa,3y3czjszan6hsnojzw5z9ps3vnar5b,39owyr0epo4ke5roa5f4sh84awqfy3,FEohHxsa,2020-0188,2020-06-04,10:38:47,11:02:00,NA,incomplete,16,filling,1,1,right,Purple_Triangle_Grid_4.jpg,Red_Triangle_Stripes_3.jpg,Blue_Circle_Grid_2.jpg,right,1262.4650000361726,true,high,NA,NA,NA,NA,NA,NA,NA,false
FEohHxsa,3y3czjszan6hsnojzw5z9ps3vnar5b,39owyr0epo4ke5roa5f4sh84awqfy3,FEohHxsa,2020-0188,2020-06-04,10:38:47,11:02:00,NA,incomplete,17,filling,1,1,left,Red_Star_Grid_3.jpg,Purple_Triangle_Grid_1.jpg,Blue_Star_Stripes_4.jpg,left,1047.595000010915,true,high,NA,NA,NA,NA,NA,NA,NA,false
FEohHxsa,3y3czjszan6hsnojzw5z9ps3vnar5b,39owyr0epo4ke5roa5f4sh84awqfy3,FEohHxsa,2020-0188,2020-06-04,10:38:47,11:02:00,NA,incomplete,18,filling,1,1,right,Green_Plus_Chess_1.jpg,Red_Plus_Dots_3.jpg,Purple_Triangle_Chess_2.jpg,right,914.6650000475347,true,high,NA,NA,NA,NA,NA,NA,NA,false
FEohHxsa,3y3czjszan6hsnojzw5z9ps3vnar5b,39owyr0epo4ke5roa5f4sh84awqfy3,FEohHxsa,2020-0188,2020-06-04,10:38:47,11:02:00,NA,incomplete,19,filling,1,1,left,Green_Circle_Dots_4.jpg,Red_Triangle_Dots_3.jpg,Purple_Circle_Grid_2.jpg,left,1017.9899999639019,true,high,NA,NA,NA,NA,NA,NA,NA,false
FEohHxsa,3y3czjszan6hsnojzw5z9ps3vnar5b,39owyr0epo4ke5roa5f4sh84awqfy3,FEohHxsa,2020-0188,2020-06-04,10:38:47,11:02:00,NA,incomplete,20,shape,0,1,left,Blue_Circle_Grid_3.jpg,Green_Circle_Stripes_4.jpg,Red_Star_Grid_1.jpg,left,798.4350000042468,true,high,NA,NA,NA,NA,NA,NA,NA,false
FEohHxsa,3y3czjszan6hsnojzw5z9ps3vnar5b,39owyr0epo4ke5roa5f4sh84awqfy3,FEohHxsa,2020-0188,2020-06-04,10:38:47,11:02:00,NA,incomplete,21,shape,0,1,right,Red_Triangle_Dots_4.jpg,Blue_Circle_Dots_2.jpg,Green_Triangle_Chess_1.jpg,left,1034.6649999264628,false,high,NA,NA,NA,NA,NA,NA,NA,false
FEohHxsa,3y3czjszan6hsnojzw5z9ps3vnar5b,39owyr0epo4ke5roa5f4sh84awqfy3,FEohHxsa,2020-0188,2020-06-04,10:38:47,11:02:00,NA,incomplete,22,shape,0,1,left,Purple_Star_Grid_2.jpg,Red_Star_Dots_1.jpg,Blue_Triangle_Grid_4.jpg,right,710.07999998983,false,high,NA,NA,NA,NA,NA,NA,NA,false
FEohHxsa,3y3czjszan6hsnojzw5z9ps3vnar5b,39owyr0epo4ke5roa5f4sh84awqfy3,FEohHxsa,2020-0188,2020-06-04,10:38:47,11:02:00,NA,incomplete,23,shape,0,0,right,Blue_Triangle_Grid_4.jpg,Green_Star_Grid_2.jpg,Purple_Triangle_Chess_3.jpg,right,1157.9799999017268,true,high,NA,NA,NA,NA,NA,NA,NA,false
FEohHxsa,3y3czjszan6hsnojzw5z9ps3vnar5b,39owyr0epo4ke5roa5f4sh84awqfy3,FEohHxsa,2020-0188,2020-06-04,10:38:47,11:02:00,NA,incomplete,24,shape,0,1,left,Blue_Star_Chess_4.jpg,Green_Star_Stripes_2.jpg,Purple_Circle_Chess_1.jpg,right,1021.0449999431148,false,high,NA,NA,NA,NA,NA,NA,NA,false
FEohHxsa,3y3czjszan6hsnojzw5z9ps3vnar5b,39owyr0epo4ke5roa5f4sh84awqfy3,FEohHxsa,2020-0188,2020-06-04,10:38:47,11:02:00,NA,incomplete,25,shape,0,1,right,Blue_Circle_Dots_3.jpg,Green_Plus_Dots_1.jpg,Purple_Circle_Grid_4.jpg,left,1234.3249999685213,false,high,NA,NA,NA,NA,NA,NA,NA,false
FEohHxsa,3y3czjszan6hsnojzw5z9ps3vnar5b,39owyr0epo4ke5roa5f4sh84awqfy3,FEohHxsa,2020-0188,2020-06-04,10:38:47,11:02:00,NA,incomplete,26,shape,0,1,right,Purple_Triangle_Dots_4.jpg,Red_Plus_Dots_1.jpg,Green_Triangle_Chess_3.jpg,left,1097.6299999747425,false,high,NA,NA,NA,NA,NA,NA,NA,false
FEohHxsa,3y3czjszan6hsnojzw5z9ps3vnar5b,39owyr0epo4ke5roa5f4sh84awqfy3,FEohHxsa,2020-0188,2020-06-04,10:38:47,11:02:00,NA,incomplete,27,shape,0,1,left,Purple_Circle_Grid_1.jpg,Green_Circle_Dots_3.jpg,Blue_Star_Grid_2.jpg,right,1089.7350000450388,false,high,NA,NA,NA,NA,NA,NA,NA,false
FEohHxsa,3y3czjszan6hsnojzw5z9ps3vnar5b,39owyr0epo4ke5roa5f4sh84awqfy3,FEohHxsa,2020-0188,2020-06-04,10:38:47,11:02:00,NA,incomplete,28,shape,0,0,left,Purple_Plus_Chess_1.jpg,Green_Plus_Stripes_3.jpg,Red_Circle_Chess_4.jpg,right,1493.0099999764934,false,high,NA,NA,NA,NA,NA,NA,NA,false
FEohHxsa,3y3czjszan6hsnojzw5z9ps3vnar5b,39owyr0epo4ke5roa5f4sh84awqfy3,FEohHxsa,2020-0188,2020-06-04,10:38:47,11:02:00,NA,incomplete,29,shape,0,1,left,Green_Plus_Dots_1.jpg,Purple_Plus_Grid_4.jpg,Red_Circle_Dots_3.jpg,left,883.339999942109,true,high,NA,NA,NA,NA,NA,NA,NA,false
FEohHxsa,3y3czjszan6hsnojzw5z9ps3vnar5b,39owyr0epo4ke5roa5f4sh84awqfy3,FEohHxsa,2020-0188,2020-06-04,10:38:47,11:02:00,NA,incomplete,30,filling,1,1,left,Purple_Circle_Stripes_4.jpg,Green_Triangle_Stripes_1.jpg,Blue_Circle_Dots_2.jpg,left,901.6899999696761,true,high,NA,NA,NA,NA,NA,NA,NA,false
FEohHxsa,3y3czjszan6hsnojzw5z9ps3vnar5b,39owyr0epo4ke5roa5f4sh84awqfy3,FEohHxsa,2020-0188,2020-06-04,10:38:47,11:02:00,NA,incomplete,31,filling,1,1,right,Red_Star_Stripes_2.jpg,Purple_Star_Dots_3.jpg,Blue_Triangle_Stripes_1.jpg,right,1133.9900000020862,true,high,NA,NA,NA,NA,NA,NA,NA,false
FEohHxsa,3y3czjszan6hsnojzw5z9ps3vnar5b,39owyr0epo4ke5roa5f4sh84awqfy3,FEohHxsa,2020-0188,2020-06-04,10:38:47,11:02:00,NA,incomplete,32,filling,1,1,right,Blue_Circle_Stripes_4.jpg,Red_Circle_Grid_2.jpg,Green_Triangle_Stripes_1.jpg,right,1068.0949999950826,true,high,NA,NA,NA,NA,NA,NA,NA,false
FEohHxsa,3y3czjszan6hsnojzw5z9ps3vnar5b,39owyr0epo4ke5roa5f4sh84awqfy3,FEohHxsa,2020-0188,2020-06-04,10:38:47,11:02:00,NA,incomplete,33,filling,1,0,left,Blue_Star_Stripes_4.jpg,Purple_Circle_Stripes_2.jpg,Red_Star_Dots_1.jpg,left,870.5549999140203,true,high,NA,NA,NA,NA,NA,NA,NA,false
FEohHxsa,3y3czjszan6hsnojzw5z9ps3vnar5b,39owyr0epo4ke5roa5f4sh84awqfy3,FEohHxsa,2020-0188,2020-06-04,10:38:47,11:02:00,NA,incomplete,34,filling,1,1,right,Red_Star_Chess_3.jpg,Blue_Star_Stripes_1.jpg,Purple_Circle_Chess_2.jpg,right,1143.199999933131,true,high,NA,NA,NA,NA,NA,NA,NA,false
FEohHxsa,3y3czjszan6hsnojzw5z9ps3vnar5b,39owyr0epo4ke5roa5f4sh84awqfy3,FEohHxsa,2020-0188,2020-06-04,10:38:47,11:02:00,NA,incomplete,35,filling,1,1,right,Blue_Circle_Stripes_2.jpg,Green_Circle_Grid_4.jpg,Purple_Plus_Stripes_1.jpg,left,869.0199999837205,false,high,NA,NA,NA,NA,NA,NA,NA,false
FEohHxsa,3y3czjszan6hsnojzw5z9ps3vnar5b,39owyr0epo4ke5roa5f4sh84awqfy3,FEohHxsa,2020-0188,2020-06-04,10:38:47,11:02:00,NA,incomplete,36,filling,1,1,right,Purple_Star_Stripes_2.jpg,Green_Star_Chess_1.jpg,Blue_Circle_Stripes_4.jpg,right,950.4849999211729,true,high,NA,NA,NA,NA,NA,NA,NA,false
FEohHxsa,3y3czjszan6hsnojzw5z9ps3vnar5b,39owyr0epo4ke5roa5f4sh84awqfy3,FEohHxsa,2020-0188,2020-06-04,10:38:47,11:02:00,NA,incomplete,37,filling,1,1,right,Green_Triangle_Stripes_3.jpg,Blue_Triangle_Grid_1.jpg,Red_Plus_Stripes_2.jpg,right,1044.789999956265,true,high,NA,NA,NA,NA,NA,NA,NA,false
FEohHxsa,3y3czjszan6hsnojzw5z9ps3vnar5b,39owyr0epo4ke5roa5f4sh84awqfy3,FEohHxsa,2020-0188,2020-06-04,10:38:47,11:02:00,NA,incomplete,38,filling,1,1,right,Purple_Star_Stripes_3.jpg,Blue_Star_Grid_2.jpg,Red_Circle_Stripes_4.jpg,right,992.4749999772757,true,high,NA,NA,NA,NA,NA,NA,NA,false
FEohHxsa,3y3czjszan6hsnojzw5z9ps3vnar5b,39owyr0epo4ke5roa5f4sh84awqfy3,FEohHxsa,2020-0188,2020-06-04,10:38:47,11:02:00,NA,incomplete,39,filling,1,1,left,Blue_Circle_Chess_1.jpg,Green_Triangle_Chess_4.jpg,Purple_Circle_Stripes_2.jpg,left,868.6499999603257,true,high,NA,NA,NA,NA,NA,NA,NA,false
FEohHxsa,3y3czjszan6hsnojzw5z9ps3vnar5b,39owyr0epo4ke5roa5f4sh84awqfy3,FEohHxsa,2020-0188,2020-06-04,10:38:47,11:02:00,NA,incomplete,40,shape,0,1,right,Purple_Circle_Stripes_4.jpg,Green_Star_Stripes_3.jpg,Red_Circle_Grid_2.jpg,left,1022.0999999437481,false,high,NA,NA,NA,NA,NA,NA,NA,false
FEohHxsa,3y3czjszan6hsnojzw5z9ps3vnar5b,39owyr0epo4ke5roa5f4sh84awqfy3,FEohHxsa,2020-0188,2020-06-04,10:38:47,11:02:00,NA,incomplete,41,shape,0,1,left,Purple_Circle_Dots_4.jpg,Red_Circle_Grid_1.jpg,Green_Triangle_Dots_3.jpg,right,992.22999997437,false,high,NA,NA,NA,NA,NA,NA,NA,false
FEohHxsa,3y3czjszan6hsnojzw5z9ps3vnar5b,39owyr0epo4ke5roa5f4sh84awqfy3,FEohHxsa,2020-0188,2020-06-04,10:38:47,11:02:00,NA,incomplete,42,shape,0,1,left,Green_Plus_Dots_4.jpg,Red_Plus_Chess_3.jpg,Blue_Star_Dots_2.jpg,left,1886.3899999996647,true,high,NA,NA,NA,NA,NA,NA,NA,false
FEohHxsa,3y3czjszan6hsnojzw5z9ps3vnar5b,39owyr0epo4ke5roa5f4sh84awqfy3,FEohHxsa,2020-0188,2020-06-04,10:38:47,11:02:00,NA,incomplete,43,shape,0,0,left,Purple_Plus_Dots_2.jpg,Red_Plus_Grid_1.jpg,Green_Star_Dots_3.jpg,right,975.6150000030175,false,high,NA,NA,NA,NA,NA,NA,NA,false
FEohHxsa,3y3czjszan6hsnojzw5z9ps3vnar5b,39owyr0epo4ke5roa5f4sh84awqfy3,FEohHxsa,2020-0188,2020-06-04,10:38:47,11:02:00,NA,incomplete,44,shape,0,0,right,Red_Circle_Chess_2.jpg,Purple_Plus_Chess_4.jpg,Green_Circle_Stripes_1.jpg,left,1003.179999999702,false,high,NA,NA,NA,NA,NA,NA,NA,false
FEohHxsa,3y3czjszan6hsnojzw5z9ps3vnar5b,39owyr0epo4ke5roa5f4sh84awqfy3,FEohHxsa,2020-0188,2020-06-04,10:38:47,11:02:00,NA,incomplete,45,shape,0,1,left,Blue_Star_Stripes_1.jpg,Red_Star_Dots_4.jpg,Purple_Plus_Stripes_3.jpg,right,1343.8999999780208,false,high,NA,NA,NA,NA,NA,NA,NA,false
FEohHxsa,3y3czjszan6hsnojzw5z9ps3vnar5b,39owyr0epo4ke5roa5f4sh84awqfy3,FEohHxsa,2020-0188,2020-06-04,10:38:47,11:02:00,NA,incomplete,46,shape,0,1,right,Blue_Plus_Grid_4.jpg,Red_Circle_Grid_2.jpg,Purple_Plus_Dots_3.jpg,left,1565.7449999125674,false,high,NA,NA,NA,NA,NA,NA,NA,false
FEohHxsa,3y3czjszan6hsnojzw5z9ps3vnar5b,39owyr0epo4ke5roa5f4sh84awqfy3,FEohHxsa,2020-0188,2020-06-04,10:38:47,11:02:00,NA,incomplete,47,shape,0,0,left,Green_Triangle_Grid_3.jpg,Red_Triangle_Stripes_2.jpg,Purple_Plus_Grid_4.jpg,left,1148.4499999787658,true,high,NA,NA,NA,NA,NA,NA,NA,false
FEohHxsa,3y3czjszan6hsnojzw5z9ps3vnar5b,39owyr0epo4ke5roa5f4sh84awqfy3,FEohHxsa,2020-0188,2020-06-04,10:38:47,11:02:00,NA,incomplete,48,shape,0,1,left,Red_Star_Chess_4.jpg,Green_Star_Grid_2.jpg,Purple_Circle_Chess_3.jpg,right,987.2850000392646,false,high,NA,NA,NA,NA,NA,NA,NA,false
FEohHxsa,3y3czjszan6hsnojzw5z9ps3vnar5b,39owyr0epo4ke5roa5f4sh84awqfy3,FEohHxsa,2020-0188,2020-06-04,10:38:47,11:02:00,NA,incomplete,49,shape,0,0,left,Red_Triangle_Dots_3.jpg,Green_Triangle_Chess_2.jpg,Purple_Star_Dots_4.jpg,right,1215.6599999871105,false,high,NA,NA,NA,NA,NA,NA,NA,false
FEohHxsa,3y3czjszan6hsnojzw5z9ps3vnar5b,39owyr0epo4ke5roa5f4sh84awqfy3,FEohHxsa,2020-0188,2020-06-04,10:38:47,11:02:00,NA,incomplete,50,filling,1,1,right,Purple_Circle_Dots_1.jpg,Green_Circle_Chess_3.jpg,Blue_Triangle_Dots_4.jpg,right,1234.360000002198,true,high,NA,NA,NA,NA,NA,NA,NA,false
FEohHxsa,3y3czjszan6hsnojzw5z9ps3vnar5b,39owyr0epo4ke5roa5f4sh84awqfy3,FEohHxsa,2020-0188,2020-06-04,10:38:47,11:02:00,NA,incomplete,51,filling,1,1,right,Blue_Circle_Stripes_1.jpg,Green_Circle_Grid_2.jpg,Red_Star_Stripes_3.jpg,right,1214.670000015758,true,high,NA,NA,NA,NA,NA,NA,NA,false
FEohHxsa,3y3czjszan6hsnojzw5z9ps3vnar5b,39owyr0epo4ke5roa5f4sh84awqfy3,FEohHxsa,2020-0188,2020-06-04,10:38:47,11:02:00,NA,incomplete,52,filling,1,1,left,Red_Star_Stripes_4.jpg,Blue_Triangle_Stripes_2.jpg,Purple_Star_Grid_1.jpg,right,1170.285000000149,false,high,NA,NA,NA,NA,NA,NA,NA,false
FEohHxsa,3y3czjszan6hsnojzw5z9ps3vnar5b,39owyr0epo4ke5roa5f4sh84awqfy3,FEohHxsa,2020-0188,2020-06-04,10:38:47,11:02:00,NA,incomplete,53,filling,1,1,right,Green_Triangle_Chess_1.jpg,Blue_Triangle_Grid_4.jpg,Red_Plus_Chess_2.jpg,right,1079.615000053309,true,high,NA,NA,NA,NA,NA,NA,NA,false
FEohHxsa,3y3czjszan6hsnojzw5z9ps3vnar5b,39owyr0epo4ke5roa5f4sh84awqfy3,FEohHxsa,2020-0188,2020-06-04,10:38:47,11:02:00,NA,incomplete,54,filling,1,0,right,Green_Triangle_Chess_1.jpg,Blue_Triangle_Stripes_2.jpg,Red_Circle_Chess_3.jpg,right,994.1849999595433,true,high,NA,NA,NA,NA,NA,NA,NA,false
FEohHxsa,3y3czjszan6hsnojzw5z9ps3vnar5b,39owyr0epo4ke5roa5f4sh84awqfy3,FEohHxsa,2020-0188,2020-06-04,10:38:47,11:02:00,NA,incomplete,55,filling,1,1,left,Green_Circle_Grid_1.jpg,Blue_Star_Grid_2.jpg,Purple_Circle_Stripes_3.jpg,right,837.2949999757111,false,high,NA,NA,NA,NA,NA,NA,NA,false
FEohHxsa,3y3czjszan6hsnojzw5z9ps3vnar5b,39owyr0epo4ke5roa5f4sh84awqfy3,FEohHxsa,2020-0188,2020-06-04,10:38:47,11:02:00,NA,incomplete,56,filling,1,1,right,Purple_Star_Grid_3.jpg,Green_Star_Dots_2.jpg,Red_Plus_Grid_4.jpg,left,695.2949999831617,false,high,NA,NA,NA,NA,NA,NA,NA,false
FEohHxsa,3y3czjszan6hsnojzw5z9ps3vnar5b,39owyr0epo4ke5roa5f4sh84awqfy3,FEohHxsa,2020-0188,2020-06-04,10:38:47,11:02:00,NA,incomplete,57,filling,1,0,left,Red_Circle_Stripes_1.jpg,Purple_Plus_Stripes_3.jpg,Blue_Circle_Dots_2.jpg,left,1097.0199999865144,true,high,NA,NA,NA,NA,NA,NA,NA,false
FEohHxsa,3y3czjszan6hsnojzw5z9ps3vnar5b,39owyr0epo4ke5roa5f4sh84awqfy3,FEohHxsa,2020-0188,2020-06-04,10:38:47,11:02:00,NA,incomplete,58,filling,1,1,right,Purple_Star_Chess_3.jpg,Green_Star_Grid_4.jpg,Red_Triangle_Chess_2.jpg,left,1233.5550000425428,false,high,NA,NA,NA,NA,NA,NA,NA,false
FEohHxsa,3y3czjszan6hsnojzw5z9ps3vnar5b,39owyr0epo4ke5roa5f4sh84awqfy3,FEohHxsa,2020-0188,2020-06-04,10:38:47,11:02:00,NA,incomplete,59,filling,1,0,right,Green_Circle_Stripes_3.jpg,Purple_Circle_Dots_4.jpg,Blue_Triangle_Stripes_1.jpg,right,748.4549999935552,true,high,NA,NA,NA,NA,NA,NA,NA,false
FEohHxsa,3y3czjszan6hsnojzw5z9ps3vnar5b,39owyr0epo4ke5roa5f4sh84awqfy3,FEohHxsa,2020-0188,2020-06-04,10:38:47,11:02:00,NA,incomplete,60,shape,0,1,right,Purple_Plus_Grid_4.jpg,Blue_Triangle_Grid_2.jpg,Red_Plus_Stripes_1.jpg,right,907.2800000431016,true,high,NA,NA,NA,NA,NA,NA,NA,false
FEohHxsa,3y3czjszan6hsnojzw5z9ps3vnar5b,39owyr0epo4ke5roa5f4sh84awqfy3,FEohHxsa,2020-0188,2020-06-04,10:38:47,11:02:00,NA,incomplete,61,shape,0,1,left,Red_Star_Chess_4.jpg,Purple_Star_Grid_1.jpg,Green_Circle_Chess_2.jpg,right,971.4000000385568,false,high,NA,NA,NA,NA,NA,NA,NA,false
FEohHxsa,3y3czjszan6hsnojzw5z9ps3vnar5b,39owyr0epo4ke5roa5f4sh84awqfy3,FEohHxsa,2020-0188,2020-06-04,10:38:47,11:02:00,NA,incomplete,62,shape,0,1,right,Purple_Plus_Dots_2.jpg,Red_Star_Dots_3.jpg,Blue_Plus_Stripes_4.jpg,left,1224.379999912344,false,high,NA,NA,NA,NA,NA,NA,NA,false
FEohHxsa,3y3czjszan6hsnojzw5z9ps3vnar5b,39owyr0epo4ke5roa5f4sh84awqfy3,FEohHxsa,2020-0188,2020-06-04,10:38:47,11:02:00,NA,incomplete,63,shape,0,0,right,Purple_Plus_Grid_1.jpg,Red_Triangle_Grid_3.jpg,Green_Plus_Chess_2.jpg,right,883.8000000687316,true,high,NA,NA,NA,NA,NA,NA,NA,false
FEohHxsa,3y3czjszan6hsnojzw5z9ps3vnar5b,39owyr0epo4ke5roa5f4sh84awqfy3,FEohHxsa,2020-0188,2020-06-04,10:38:47,11:02:00,NA,incomplete,64,shape,0,1,right,Purple_Star_Dots_4.jpg,Blue_Circle_Dots_1.jpg,Red_Star_Stripes_3.jpg,right,1662.5699999276549,true,high,NA,NA,NA,NA,NA,NA,NA,false
FEohHxsa,3y3czjszan6hsnojzw5z9ps3vnar5b,39owyr0epo4ke5roa5f4sh84awqfy3,FEohHxsa,2020-0188,2020-06-04,10:38:47,11:02:00,NA,incomplete,65,shape,0,0,left,Blue_Triangle_Dots_1.jpg,Purple_Triangle_Chess_2.jpg,Red_Circle_Dots_4.jpg,right,1192.4349999753758,false,high,NA,NA,NA,NA,NA,NA,NA,false
FEohHxsa,3y3czjszan6hsnojzw5z9ps3vnar5b,39owyr0epo4ke5roa5f4sh84awqfy3,FEohHxsa,2020-0188,2020-06-04,10:38:47,11:02:00,NA,incomplete,66,shape,0,1,left,Red_Circle_Dots_4.jpg,Blue_Circle_Stripes_2.jpg,Purple_Star_Dots_3.jpg,right,1316.4800000377,false,high,NA,NA,NA,NA,NA,NA,NA,false
FEohHxsa,3y3czjszan6hsnojzw5z9ps3vnar5b,39owyr0epo4ke5roa5f4sh84awqfy3,FEohHxsa,2020-0188,2020-06-04,10:38:47,11:02:00,NA,incomplete,67,shape,0,0,left,Purple_Star_Chess_3.jpg,Red_Star_Grid_4.jpg,Blue_Triangle_Chess_2.jpg,right,1436.8600000161678,false,high,NA,NA,NA,NA,NA,NA,NA,false
FEohHxsa,3y3czjszan6hsnojzw5z9ps3vnar5b,39owyr0epo4ke5roa5f4sh84awqfy3,FEohHxsa,2020-0188,2020-06-04,10:38:47,11:02:00,NA,incomplete,68,shape,0,1,left,Purple_Plus_Chess_3.jpg,Red_Plus_Dots_4.jpg,Blue_Triangle_Chess_2.jpg,right,1200.6800000090152,false,high,NA,NA,NA,NA,NA,NA,NA,false
FEohHxsa,3y3czjszan6hsnojzw5z9ps3vnar5b,39owyr0epo4ke5roa5f4sh84awqfy3,FEohHxsa,2020-0188,2020-06-04,10:38:47,11:02:00,NA,incomplete,69,shape,0,1,right,Green_Plus_Grid_1.jpg,Blue_Circle_Grid_2.jpg,Red_Plus_Dots_3.jpg,left,1292.0550000853837,false,high,NA,NA,NA,NA,NA,NA,NA,false
FEohHxsa,3y3czjszan6hsnojzw5z9ps3vnar5b,39owyr0epo4ke5roa5f4sh84awqfy3,FEohHxsa,2020-0188,2020-06-04,10:38:47,11:02:00,NA,incomplete,70,filling,1,0,right,Blue_Triangle_Dots_4.jpg,Purple_Triangle_Stripes_1.jpg,Red_Star_Dots_3.jpg,left,1044.7250000433996,false,high,NA,NA,NA,NA,NA,NA,NA,false
FEohHxsa,3y3czjszan6hsnojzw5z9ps3vnar5b,39owyr0epo4ke5roa5f4sh84awqfy3,FEohHxsa,2020-0188,2020-06-04,10:38:47,11:02:00,NA,incomplete,71,filling,1,1,left,Green_Circle_Chess_1.jpg,Blue_Plus_Chess_4.jpg,Red_Circle_Dots_3.jpg,left,1422.3149999743327,true,high,NA,NA,NA,NA,NA,NA,NA,false
FEohHxsa,3y3czjszan6hsnojzw5z9ps3vnar5b,39owyr0epo4ke5roa5f4sh84awqfy3,FEohHxsa,2020-0188,2020-06-04,10:38:47,11:02:00,NA,incomplete,72,filling,1,1,left,Blue_Circle_Dots_3.jpg,Green_Triangle_Dots_2.jpg,Purple_Circle_Chess_1.jpg,left,1227.2300000768155,true,high,NA,NA,NA,NA,NA,NA,NA,false
FEohHxsa,3y3czjszan6hsnojzw5z9ps3vnar5b,39owyr0epo4ke5roa5f4sh84awqfy3,FEohHxsa,2020-0188,2020-06-04,10:38:47,11:02:00,NA,incomplete,73,filling,1,1,right,Red_Star_Grid_2.jpg,Purple_Star_Chess_1.jpg,Green_Triangle_Grid_4.jpg,right,1136.214999947697,true,high,NA,NA,NA,NA,NA,NA,NA,false
FEohHxsa,3y3czjszan6hsnojzw5z9ps3vnar5b,39owyr0epo4ke5roa5f4sh84awqfy3,FEohHxsa,2020-0188,2020-06-04,10:38:47,11:02:00,NA,incomplete,74,filling,1,1,left,Green_Circle_Grid_4.jpg,Blue_Plus_Grid_2.jpg,Red_Circle_Stripes_1.jpg,left,1020.4000000376254,true,high,NA,NA,NA,NA,NA,NA,NA,false
FEohHxsa,3y3czjszan6hsnojzw5z9ps3vnar5b,39owyr0epo4ke5roa5f4sh84awqfy3,FEohHxsa,2020-0188,2020-06-04,10:38:47,11:02:00,NA,incomplete,75,filling,1,1,left,Green_Circle_Chess_2.jpg,Red_Star_Chess_1.jpg,Purple_Circle_Grid_4.jpg,right,1391.3900000043213,false,high,NA,NA,NA,NA,NA,NA,NA,false
FEohHxsa,3y3czjszan6hsnojzw5z9ps3vnar5b,39owyr0epo4ke5roa5f4sh84awqfy3,FEohHxsa,2020-0188,2020-06-04,10:38:47,11:02:00,NA,incomplete,76,filling,1,1,left,Red_Circle_Stripes_2.jpg,Purple_Plus_Stripes_3.jpg,Blue_Circle_Grid_1.jpg,left,1174.3049999931827,true,high,NA,NA,NA,NA,NA,NA,NA,false
FEohHxsa,3y3czjszan6hsnojzw5z9ps3vnar5b,39owyr0epo4ke5roa5f4sh84awqfy3,FEohHxsa,2020-0188,2020-06-04,10:38:47,11:02:00,NA,incomplete,77,filling,1,1,left,Green_Star_Stripes_1.jpg,Blue_Triangle_Stripes_4.jpg,Red_Star_Grid_3.jpg,right,1178.529999917373,false,high,NA,NA,NA,NA,NA,NA,NA,false
FEohHxsa,3y3czjszan6hsnojzw5z9ps3vnar5b,39owyr0epo4ke5roa5f4sh84awqfy3,FEohHxsa,2020-0188,2020-06-04,10:38:47,11:02:00,NA,incomplete,78,filling,1,1,right,Green_Star_Stripes_1.jpg,Blue_Star_Grid_4.jpg,Red_Circle_Stripes_2.jpg,left,1160.355000058189,false,high,NA,NA,NA,NA,NA,NA,NA,false
FEohHxsa,3y3czjszan6hsnojzw5z9ps3vnar5b,39owyr0epo4ke5roa5f4sh84awqfy3,FEohHxsa,2020-0188,2020-06-04,10:38:47,11:02:00,NA,incomplete,79,filling,1,1,left,Blue_Plus_Chess_4.jpg,Red_Triangle_Chess_3.jpg,Green_Plus_Grid_2.jpg,left,1094.1050000255927,true,high,NA,NA,NA,NA,NA,NA,NA,false
FEohHxsa,3y3czjszan6hsnojzw5z9ps3vnar5b,39owyr0epo4ke5roa5f4sh84awqfy3,FEohHxsa,2020-0188,2020-06-04,10:38:47,11:02:00,NA,incomplete,80,shape,0,1,right,Blue_Star_Grid_3.jpg,Purple_Triangle_Grid_4.jpg,Green_Star_Chess_1.jpg,right,903.0049999710172,true,high,NA,NA,NA,NA,NA,NA,NA,false
FEohHxsa,3y3czjszan6hsnojzw5z9ps3vnar5b,39owyr0epo4ke5roa5f4sh84awqfy3,FEohHxsa,2020-0188,2020-06-04,10:38:47,11:02:00,NA,incomplete,81,shape,0,0,right,Green_Plus_Dots_2.jpg,Red_Star_Dots_1.jpg,Blue_Plus_Chess_4.jpg,left,1078.7800000980496,false,high,NA,NA,NA,NA,NA,NA,NA,false
FEohHxsa,3y3czjszan6hsnojzw5z9ps3vnar5b,39owyr0epo4ke5roa5f4sh84awqfy3,FEohHxsa,2020-0188,2020-06-04,10:38:47,11:02:00,NA,incomplete,82,shape,0,1,left,Blue_Star_Grid_2.jpg,Purple_Star_Stripes_4.jpg,Red_Circle_Grid_1.jpg,right,751.7900000093505,false,high,NA,NA,NA,NA,NA,NA,NA,false
FEohHxsa,3y3czjszan6hsnojzw5z9ps3vnar5b,39owyr0epo4ke5roa5f4sh84awqfy3,FEohHxsa,2020-0188,2020-06-04,10:38:47,11:02:00,NA,incomplete,83,shape,0,0,right,Purple_Star_Dots_4.jpg,Green_Triangle_Dots_1.jpg,Red_Star_Grid_2.jpg,right,1318.0799999972805,true,high,NA,NA,NA,NA,NA,NA,NA,false
FEohHxsa,3y3czjszan6hsnojzw5z9ps3vnar5b,39owyr0epo4ke5roa5f4sh84awqfy3,FEohHxsa,2020-0188,2020-06-04,10:38:47,11:02:00,NA,incomplete,84,shape,0,1,left,Green_Triangle_Stripes_1.jpg,Red_Triangle_Grid_4.jpg,Blue_Star_Stripes_2.jpg,right,1110.4499999200925,false,high,NA,NA,NA,NA,NA,NA,NA,false
FEohHxsa,3y3czjszan6hsnojzw5z9ps3vnar5b,39owyr0epo4ke5roa5f4sh84awqfy3,FEohHxsa,2020-0188,2020-06-04,10:38:47,11:02:00,NA,incomplete,85,shape,0,1,left,Green_Star_Stripes_1.jpg,Blue_Star_Chess_2.jpg,Red_Circle_Stripes_4.jpg,left,1301.229999982752,true,high,NA,NA,NA,NA,NA,NA,NA,false
FEohHxsa,3y3czjszan6hsnojzw5z9ps3vnar5b,39owyr0epo4ke5roa5f4sh84awqfy3,FEohHxsa,2020-0188,2020-06-04,10:38:47,11:02:00,NA,incomplete,86,shape,0,1,left,Blue_Star_Stripes_4.jpg,Red_Star_Grid_1.jpg,Green_Plus_Stripes_3.jpg,right,1341.7800000170246,false,high,NA,NA,NA,NA,NA,NA,NA,false
FEohHxsa,3y3czjszan6hsnojzw5z9ps3vnar5b,39owyr0epo4ke5roa5f4sh84awqfy3,FEohHxsa,2020-0188,2020-06-04,10:38:47,11:02:00,NA,incomplete,87,shape,0,1,left,Red_Star_Dots_4.jpg,Green_Star_Stripes_3.jpg,Blue_Plus_Dots_2.jpg,left,1292.3150000860915,true,high,NA,NA,NA,NA,NA,NA,NA,false
FEohHxsa,3y3czjszan6hsnojzw5z9ps3vnar5b,39owyr0epo4ke5roa5f4sh84awqfy3,FEohHxsa,2020-0188,2020-06-04,10:38:47,11:02:00,NA,incomplete,88,shape,0,0,left,Red_Triangle_Stripes_1.jpg,Purple_Triangle_Chess_3.jpg,Green_Plus_Stripes_4.jpg,right,1629.3749999022111,false,high,NA,NA,NA,NA,NA,NA,NA,false
FEohHxsa,3y3czjszan6hsnojzw5z9ps3vnar5b,39owyr0epo4ke5roa5f4sh84awqfy3,FEohHxsa,2020-0188,2020-06-04,10:38:47,11:02:00,NA,incomplete,89,shape,0,1,right,Blue_Triangle_Grid_1.jpg,Green_Star_Grid_4.jpg,Purple_Triangle_Stripes_3.jpg,left,952.0550000015646,false,high,NA,NA,NA,NA,NA,NA,NA,false
FEohHxsa,3y3czjszan6hsnojzw5z9ps3vnar5b,39owyr0epo4ke5roa5f4sh84awqfy3,FEohHxsa,2020-0188,2020-06-04,10:38:47,11:02:00,NA,incomplete,90,filling,1,1,right,Green_Circle_Dots_3.jpg,Blue_Circle_Stripes_1.jpg,Red_Star_Dots_4.jpg,right,1085.5899999151006,true,high,NA,NA,NA,NA,NA,NA,NA,false
FEohHxsa,3y3czjszan6hsnojzw5z9ps3vnar5b,39owyr0epo4ke5roa5f4sh84awqfy3,FEohHxsa,2020-0188,2020-06-04,10:38:47,11:02:00,NA,incomplete,91,filling,1,0,right,Red_Plus_Grid_2.jpg,Blue_Plus_Stripes_1.jpg,Green_Triangle_Grid_3.jpg,left,1174.7899999609217,false,high,NA,NA,NA,NA,NA,NA,NA,false
FEohHxsa,3y3czjszan6hsnojzw5z9ps3vnar5b,39owyr0epo4ke5roa5f4sh84awqfy3,FEohHxsa,2020-0188,2020-06-04,10:38:47,11:02:00,NA,incomplete,92,filling,1,0,left,Red_Plus_Dots_2.jpg,Green_Star_Dots_3.jpg,Purple_Plus_Stripes_4.jpg,right,1134.3399999896064,false,high,NA,NA,NA,NA,NA,NA,NA,false
FEohHxsa,3y3czjszan6hsnojzw5z9ps3vnar5b,39owyr0epo4ke5roa5f4sh84awqfy3,FEohHxsa,2020-0188,2020-06-04,10:38:47,11:02:00,NA,incomplete,93,filling,1,1,right,Purple_Circle_Dots_2.jpg,Red_Circle_Chess_4.jpg,Blue_Star_Dots_3.jpg,left,851.6000000527129,false,high,NA,NA,NA,NA,NA,NA,NA,false
FEohHxsa,3y3czjszan6hsnojzw5z9ps3vnar5b,39owyr0epo4ke5roa5f4sh84awqfy3,FEohHxsa,2020-0188,2020-06-04,10:38:47,11:02:00,NA,incomplete,94,filling,1,1,right,Blue_Star_Dots_3.jpg,Purple_Star_Grid_4.jpg,Green_Plus_Dots_1.jpg,right,928.6499998997897,true,high,NA,NA,NA,NA,NA,NA,NA,false
FEohHxsa,3y3czjszan6hsnojzw5z9ps3vnar5b,39owyr0epo4ke5roa5f4sh84awqfy3,FEohHxsa,2020-0188,2020-06-04,10:38:47,11:02:00,NA,incomplete,95,filling,1,1,left,Red_Star_Stripes_3.jpg,Purple_Triangle_Stripes_1.jpg,Green_Star_Grid_2.jpg,right,1204.9150000093505,false,high,NA,NA,NA,NA,NA,NA,NA,false
FEohHxsa,3y3czjszan6hsnojzw5z9ps3vnar5b,39owyr0epo4ke5roa5f4sh84awqfy3,FEohHxsa,2020-0188,2020-06-04,10:38:47,11:02:00,NA,incomplete,96,filling,1,1,right,Blue_Circle_Chess_2.jpg,Purple_Circle_Grid_1.jpg,Red_Triangle_Chess_4.jpg,right,1137.7999999094754,true,high,NA,NA,NA,NA,NA,NA,NA,false
FEohHxsa,3y3czjszan6hsnojzw5z9ps3vnar5b,39owyr0epo4ke5roa5f4sh84awqfy3,FEohHxsa,2020-0188,2020-06-04,10:38:47,11:02:00,NA,incomplete,97,filling,1,1,right,Blue_Star_Dots_3.jpg,Purple_Star_Chess_2.jpg,Red_Circle_Dots_4.jpg,right,1160.1449999725446,true,high,NA,NA,NA,NA,NA,NA,NA,false
FEohHxsa,3y3czjszan6hsnojzw5z9ps3vnar5b,39owyr0epo4ke5roa5f4sh84awqfy3,FEohHxsa,2020-0188,2020-06-04,10:38:47,11:02:00,NA,incomplete,98,filling,1,1,right,Green_Triangle_Grid_1.jpg,Red_Triangle_Dots_4.jpg,Blue_Star_Grid_2.jpg,left,685.6599999591708,false,high,NA,NA,NA,NA,NA,NA,NA,false
FEohHxsa,3y3czjszan6hsnojzw5z9ps3vnar5b,39owyr0epo4ke5roa5f4sh84awqfy3,FEohHxsa,2020-0188,2020-06-04,10:38:47,11:02:00,NA,incomplete,99,filling,1,1,right,Green_Triangle_Stripes_1.jpg,Red_Triangle_Dots_2.jpg,Purple_Plus_Stripes_4.jpg,right,1167.2200000612065,true,high,NA,NA,NA,NA,NA,NA,NA,false
FEohHxsa,3y3czjszan6hsnojzw5z9ps3vnar5b,39owyr0epo4ke5roa5f4sh84awqfy3,FEohHxsa,2020-0188,2020-06-04,10:38:47,11:02:00,NA,incomplete,100,shape,0,1,left,Purple_Circle_Dots_1.jpg,Blue_Circle_Grid_2.jpg,Green_Plus_Dots_3.jpg,right,1221.2949999375269,false,high,NA,NA,NA,NA,NA,NA,NA,false
FEohHxsa,3y3czjszan6hsnojzw5z9ps3vnar5b,39owyr0epo4ke5roa5f4sh84awqfy3,FEohHxsa,2020-0188,2020-06-04,10:38:47,11:02:00,NA,incomplete,101,shape,0,0,left,Green_Plus_Dots_1.jpg,Blue_Plus_Grid_3.jpg,Red_Triangle_Dots_4.jpg,left,751.6550000291318,true,high,NA,NA,NA,NA,NA,NA,NA,false
FEohHxsa,3y3czjszan6hsnojzw5z9ps3vnar5b,39owyr0epo4ke5roa5f4sh84awqfy3,FEohHxsa,2020-0188,2020-06-04,10:38:47,11:02:00,NA,incomplete,102,shape,0,1,left,Blue_Plus_Chess_1.jpg,Red_Plus_Dots_4.jpg,Green_Triangle_Chess_2.jpg,right,941.0350000252947,false,high,NA,NA,NA,NA,NA,NA,NA,false
FEohHxsa,3y3czjszan6hsnojzw5z9ps3vnar5b,39owyr0epo4ke5roa5f4sh84awqfy3,FEohHxsa,2020-0188,2020-06-04,10:38:47,11:02:00,NA,incomplete,103,shape,0,1,left,Blue_Triangle_Chess_1.jpg,Green_Triangle_Grid_3.jpg,Red_Star_Chess_2.jpg,left,812.3850000556558,true,high,NA,NA,NA,NA,NA,NA,NA,false
FEohHxsa,3y3czjszan6hsnojzw5z9ps3vnar5b,39owyr0epo4ke5roa5f4sh84awqfy3,FEohHxsa,2020-0188,2020-06-04,10:38:47,11:02:00,NA,incomplete,104,shape,0,1,left,Green_Triangle_Grid_3.jpg,Blue_Triangle_Stripes_4.jpg,Red_Plus_Grid_1.jpg,left,783.2800000905991,true,high,NA,NA,NA,NA,NA,NA,NA,false
FEohHxsa,3y3czjszan6hsnojzw5z9ps3vnar5b,39owyr0epo4ke5roa5f4sh84awqfy3,FEohHxsa,2020-0188,2020-06-04,10:38:47,11:02:00,NA,incomplete,105,shape,0,1,right,Red_Plus_Stripes_1.jpg,Blue_Circle_Stripes_3.jpg,Purple_Plus_Dots_4.jpg,right,975.9950001025572,true,high,NA,NA,NA,NA,NA,NA,NA,false
FEohHxsa,3y3czjszan6hsnojzw5z9ps3vnar5b,39owyr0epo4ke5roa5f4sh84awqfy3,FEohHxsa,2020-0188,2020-06-04,10:38:47,11:02:00,NA,incomplete,106,shape,0,1,right,Red_Plus_Dots_3.jpg,Purple_Triangle_Dots_2.jpg,Blue_Plus_Stripes_4.jpg,right,702.7699999744073,true,high,NA,NA,NA,NA,NA,NA,NA,false
FEohHxsa,3y3czjszan6hsnojzw5z9ps3vnar5b,39owyr0epo4ke5roa5f4sh84awqfy3,FEohHxsa,2020-0188,2020-06-04,10:38:47,11:02:00,NA,incomplete,107,shape,0,1,left,Green_Circle_Stripes_3.jpg,Blue_Circle_Grid_2.jpg,Purple_Triangle_Stripes_4.jpg,right,1568.4650000184774,false,high,NA,NA,NA,NA,NA,NA,NA,false
FEohHxsa,3y3czjszan6hsnojzw5z9ps3vnar5b,39owyr0epo4ke5roa5f4sh84awqfy3,FEohHxsa,2020-0188,2020-06-04,10:38:47,11:02:00,NA,incomplete,108,shape,0,1,right,Red_Plus_Chess_2.jpg,Blue_Circle_Chess_4.jpg,Green_Plus_Stripes_1.jpg,left,797.385000041686,false,high,NA,NA,NA,NA,NA,NA,NA,false
FEohHxsa,3y3czjszan6hsnojzw5z9ps3vnar5b,39owyr0epo4ke5roa5f4sh84awqfy3,FEohHxsa,2020-0188,2020-06-04,10:38:47,11:02:00,NA,incomplete,109,shape,0,0,right,Green_Triangle_Dots_4.jpg,Blue_Plus_Dots_2.jpg,Red_Triangle_Stripes_1.jpg,right,738.1400000303984,true,high,NA,NA,NA,NA,NA,NA,NA,false
FEohHxsa,3y3czjszan6hsnojzw5z9ps3vnar5b,39owyr0epo4ke5roa5f4sh84awqfy3,FEohHxsa,2020-0188,2020-06-04,10:38:47,11:02:00,NA,incomplete,110,filling,1,1,left,Green_Triangle_Stripes_2.jpg,Blue_Circle_Stripes_1.jpg,Red_Triangle_Dots_3.jpg,right,1193.6050000367686,false,high,NA,NA,NA,NA,NA,NA,NA,false
FEohHxsa,3y3czjszan6hsnojzw5z9ps3vnar5b,39owyr0epo4ke5roa5f4sh84awqfy3,FEohHxsa,2020-0188,2020-06-04,10:38:47,11:02:00,NA,incomplete,111,filling,1,1,right,Red_Plus_Chess_4.jpg,Green_Plus_Dots_1.jpg,Blue_Circle_Chess_3.jpg,left,1389.5400000037625,false,high,NA,NA,NA,NA,NA,NA,NA,false
FEohHxsa,3y3czjszan6hsnojzw5z9ps3vnar5b,39owyr0epo4ke5roa5f4sh84awqfy3,FEohHxsa,2020-0188,2020-06-04,10:38:47,11:02:00,NA,incomplete,112,filling,1,0,right,Green_Plus_Chess_1.jpg,Blue_Plus_Stripes_2.jpg,Red_Triangle_Chess_4.jpg,left,1402.2500000428408,false,high,NA,NA,NA,NA,NA,NA,NA,false
FEohHxsa,3y3czjszan6hsnojzw5z9ps3vnar5b,39owyr0epo4ke5roa5f4sh84awqfy3,FEohHxsa,2020-0188,2020-06-04,10:38:47,11:02:00,NA,incomplete,113,filling,1,1,right,Red_Triangle_Stripes_3.jpg,Green_Triangle_Grid_2.jpg,Blue_Star_Stripes_4.jpg,right,1062.2699999948964,true,high,NA,NA,NA,NA,NA,NA,NA,false
FEohHxsa,3y3czjszan6hsnojzw5z9ps3vnar5b,39owyr0epo4ke5roa5f4sh84awqfy3,FEohHxsa,2020-0188,2020-06-04,10:38:47,11:02:00,NA,incomplete,114,filling,1,1,right,Blue_Circle_Grid_4.jpg,Red_Circle_Chess_3.jpg,Green_Triangle_Grid_1.jpg,left,833.9849999174476,false,high,NA,NA,NA,NA,NA,NA,NA,false
FEohHxsa,3y3czjszan6hsnojzw5z9ps3vnar5b,39owyr0epo4ke5roa5f4sh84awqfy3,FEohHxsa,2020-0188,2020-06-04,10:38:47,11:02:00,NA,incomplete,115,filling,1,1,right,Green_Triangle_Dots_2.jpg,Red_Triangle_Grid_3.jpg,Blue_Plus_Dots_1.jpg,right,1131.7249999847263,true,high,NA,NA,NA,NA,NA,NA,NA,false
FEohHxsa,3y3czjszan6hsnojzw5z9ps3vnar5b,39owyr0epo4ke5roa5f4sh84awqfy3,FEohHxsa,2020-0188,2020-06-04,10:38:47,11:02:00,NA,incomplete,116,filling,1,1,left,Red_Plus_Dots_2.jpg,Purple_Circle_Dots_4.jpg,Blue_Plus_Stripes_1.jpg,left,810.8500000089407,true,high,NA,NA,NA,NA,NA,NA,NA,false
FEohHxsa,3y3czjszan6hsnojzw5z9ps3vnar5b,39owyr0epo4ke5roa5f4sh84awqfy3,FEohHxsa,2020-0188,2020-06-04,10:38:47,11:02:00,NA,incomplete,117,filling,1,1,left,Blue_Plus_Dots_4.jpg,Green_Star_Dots_2.jpg,Red_Plus_Grid_3.jpg,left,1215.2400000486523,true,high,NA,NA,NA,NA,NA,NA,NA,false
FEohHxsa,3y3czjszan6hsnojzw5z9ps3vnar5b,39owyr0epo4ke5roa5f4sh84awqfy3,FEohHxsa,2020-0188,2020-06-04,10:38:47,11:02:00,NA,incomplete,118,filling,1,0,right,Purple_Circle_Grid_4.jpg,Blue_Circle_Dots_2.jpg,Green_Star_Grid_1.jpg,right,835.1049999473616,true,high,NA,NA,NA,NA,NA,NA,NA,false
FEohHxsa,3y3czjszan6hsnojzw5z9ps3vnar5b,39owyr0epo4ke5roa5f4sh84awqfy3,FEohHxsa,2020-0188,2020-06-04,10:38:47,11:02:00,NA,incomplete,119,filling,1,1,right,Blue_Star_Dots_4.jpg,Green_Star_Grid_2.jpg,Purple_Plus_Dots_3.jpg,right,1142.5499999895692,true,high,NA,NA,NA,NA,NA,NA,NA,false
FEohHxsa,3y3czjszan6hsnojzw5z9ps3vnar5b,39owyr0epo4ke5roa5f4sh84awqfy3,FEohHxsa,2020-0188,2020-06-04,10:38:47,11:02:00,NA,incomplete,120,gender,2,1,right,A_F_12.jpg,A_M_06.jpg,C_F_16.jpg,NA,NA,NA,high,NA,NA,NA,NA,NA,NA,NA,false
FEohHxsa,3y3czjszan6hsnojzw5z9ps3vnar5b,39owyr0epo4ke5roa5f4sh84awqfy3,FEohHxsa,2020-0188,2020-06-04,10:38:47,11:02:00,NA,incomplete,121,gender,2,1,right,A_F_07.jpg,A_M_10.jpg,C_F_14.jpg,right,342.7099999971688,true,high,NA,NA,NA,NA,NA,NA,NA,false
FEohHxsa,3y3czjszan6hsnojzw5z9ps3vnar5b,39owyr0epo4ke5roa5f4sh84awqfy3,FEohHxsa,2020-0188,2020-06-04,10:38:47,11:02:00,NA,incomplete,122,gender,2,1,right,A_F_12.jpg,A_M_15.jpg,C_F_11.jpg,left,446.4699999662116,false,high,NA,NA,NA,NA,NA,NA,NA,false
FEohHxsa,3y3czjszan6hsnojzw5z9ps3vnar5b,39owyr0epo4ke5roa5f4sh84awqfy3,FEohHxsa,2020-0188,2020-06-04,10:38:47,11:02:00,NA,incomplete,123,gender,2,1,right,A_F_13.jpg,A_M_14.jpg,C_F_11.jpg,right,471.4950000634417,true,high,NA,NA,NA,NA,NA,NA,NA,false
FEohHxsa,3y3czjszan6hsnojzw5z9ps3vnar5b,39owyr0epo4ke5roa5f4sh84awqfy3,FEohHxsa,2020-0188,2020-06-04,10:38:47,11:02:00,NA,incomplete,124,gender,2,1,right,C_F_13.jpg,C_M_09.jpg,A_F_08.jpg,right,656.5249999985099,true,high,NA,NA,NA,NA,NA,NA,NA,false
FEohHxsa,3y3czjszan6hsnojzw5z9ps3vnar5b,39owyr0epo4ke5roa5f4sh84awqfy3,FEohHxsa,2020-0188,2020-06-04,10:38:47,11:02:00,NA,incomplete,125,gender,2,1,left,A_M_08.jpg,C_M_16.jpg,A_F_05.jpg,left,522.7149999700487,true,high,NA,NA,NA,NA,NA,NA,NA,false
FEohHxsa,3y3czjszan6hsnojzw5z9ps3vnar5b,39owyr0epo4ke5roa5f4sh84awqfy3,FEohHxsa,2020-0188,2020-06-04,10:38:47,11:02:00,NA,incomplete,126,gender,2,1,right,C_F_04.jpg,C_M_06.jpg,A_F_05.jpg,right,587.2899999376386,true,high,NA,NA,NA,NA,NA,NA,NA,false
FEohHxsa,3y3czjszan6hsnojzw5z9ps3vnar5b,39owyr0epo4ke5roa5f4sh84awqfy3,FEohHxsa,2020-0188,2020-06-04,10:38:47,11:02:00,NA,incomplete,127,gender,2,0,right,A_M_02.jpg,A_F_07.jpg,C_M_08.jpg,left,735.0899999728426,false,high,NA,NA,NA,NA,NA,NA,NA,false
FEohHxsa,3y3czjszan6hsnojzw5z9ps3vnar5b,39owyr0epo4ke5roa5f4sh84awqfy3,FEohHxsa,2020-0188,2020-06-04,10:38:47,11:02:00,NA,incomplete,128,gender,2,1,right,C_F_15.jpg,C_M_12.jpg,A_F_16.jpg,right,588.2950000232086,true,high,NA,NA,NA,NA,NA,NA,NA,false
FEohHxsa,3y3czjszan6hsnojzw5z9ps3vnar5b,39owyr0epo4ke5roa5f4sh84awqfy3,FEohHxsa,2020-0188,2020-06-04,10:38:47,11:02:00,NA,incomplete,129,gender,2,1,right,C_F_05.jpg,C_M_08.jpg,A_F_15.jpg,right,476.3800000073388,true,high,NA,NA,NA,NA,NA,NA,NA,false
FEohHxsa,3y3czjszan6hsnojzw5z9ps3vnar5b,39owyr0epo4ke5roa5f4sh84awqfy3,FEohHxsa,2020-0188,2020-06-04,10:38:47,11:02:00,NA,incomplete,130,gender,2,1,right,A_M_11.jpg,A_F_08.jpg,C_M_15.jpg,left,525.6299999309704,false,high,NA,NA,NA,NA,NA,NA,NA,false
FEohHxsa,3y3czjszan6hsnojzw5z9ps3vnar5b,39owyr0epo4ke5roa5f4sh84awqfy3,FEohHxsa,2020-0188,2020-06-04,10:38:47,11:02:00,NA,incomplete,131,gender,2,1,left,C_M_14.jpg,A_M_07.jpg,C_F_15.jpg,right,606.2000000383705,false,high,NA,NA,NA,NA,NA,NA,NA,false
FEohHxsa,3y3czjszan6hsnojzw5z9ps3vnar5b,39owyr0epo4ke5roa5f4sh84awqfy3,FEohHxsa,2020-0188,2020-06-04,10:38:47,11:02:00,NA,incomplete,132,gender,2,1,left,C_F_03.jpg,A_F_10.jpg,C_M_04.jpg,right,650.4049999639392,false,high,NA,NA,NA,NA,NA,NA,NA,false
FEohHxsa,3y3czjszan6hsnojzw5z9ps3vnar5b,39owyr0epo4ke5roa5f4sh84awqfy3,FEohHxsa,2020-0188,2020-06-04,10:38:47,11:02:00,NA,incomplete,133,gender,2,1,left,A_M_01.jpg,C_M_14.jpg,A_F_10.jpg,left,428.4999999217689,true,high,NA,NA,NA,NA,NA,NA,NA,false
FEohHxsa,3y3czjszan6hsnojzw5z9ps3vnar5b,39owyr0epo4ke5roa5f4sh84awqfy3,FEohHxsa,2020-0188,2020-06-04,10:38:47,11:02:00,NA,incomplete,134,gender,2,1,left,C_F_05.jpg,A_F_02.jpg,C_M_07.jpg,left,596.1799999931827,true,high,NA,NA,NA,NA,NA,NA,NA,false
FEohHxsa,3y3czjszan6hsnojzw5z9ps3vnar5b,39owyr0epo4ke5roa5f4sh84awqfy3,FEohHxsa,2020-0188,2020-06-04,10:38:47,11:02:00,NA,incomplete,135,gender,2,0,right,A_F_05.jpg,A_M_14.jpg,C_F_04.jpg,left,665.3950000181794,false,high,NA,NA,NA,NA,NA,NA,NA,false
FEohHxsa,3y3czjszan6hsnojzw5z9ps3vnar5b,39owyr0epo4ke5roa5f4sh84awqfy3,FEohHxsa,2020-0188,2020-06-04,10:38:47,11:02:00,NA,incomplete,136,gender,2,1,right,C_F_07.jpg,C_M_04.jpg,A_F_12.jpg,left,572.7150000166148,false,high,NA,NA,NA,NA,NA,NA,NA,false
FEohHxsa,3y3czjszan6hsnojzw5z9ps3vnar5b,39owyr0epo4ke5roa5f4sh84awqfy3,FEohHxsa,2020-0188,2020-06-04,10:38:47,11:02:00,NA,incomplete,137,gender,2,1,left,A_F_12.jpg,C_F_11.jpg,A_M_01.jpg,right,897.1400000154972,false,high,NA,NA,NA,NA,NA,NA,NA,false
FEohHxsa,3y3czjszan6hsnojzw5z9ps3vnar5b,39owyr0epo4ke5roa5f4sh84awqfy3,FEohHxsa,2020-0188,2020-06-04,10:38:47,11:02:00,NA,incomplete,138,gender,2,0,right,A_M_03.jpg,A_F_06.jpg,C_M_16.jpg,left,882.4449999956414,false,high,NA,NA,NA,NA,NA,NA,NA,false
FEohHxsa,3y3czjszan6hsnojzw5z9ps3vnar5b,39owyr0epo4ke5roa5f4sh84awqfy3,FEohHxsa,2020-0188,2020-06-04,10:38:47,11:02:00,NA,incomplete,139,gender,2,1,right,C_M_10.jpg,C_F_07.jpg,A_M_09.jpg,left,851.8300000578165,false,high,NA,NA,NA,NA,NA,NA,NA,false
FEohHxsa,3y3czjszan6hsnojzw5z9ps3vnar5b,39owyr0epo4ke5roa5f4sh84awqfy3,FEohHxsa,2020-0188,2020-06-04,10:38:47,11:02:00,NA,incomplete,140,race,3,0,left,C_F_12.jpg,C_M_08.jpg,A_F_02.jpg,left,751.0550000006333,true,high,NA,NA,NA,NA,NA,NA,NA,false
FEohHxsa,3y3czjszan6hsnojzw5z9ps3vnar5b,39owyr0epo4ke5roa5f4sh84awqfy3,FEohHxsa,2020-0188,2020-06-04,10:38:47,11:02:00,NA,incomplete,141,race,3,1,right,C_F_12.jpg,A_F_04.jpg,C_M_03.jpg,right,805.6349999969825,true,high,NA,NA,NA,NA,NA,NA,NA,false
FEohHxsa,3y3czjszan6hsnojzw5z9ps3vnar5b,39owyr0epo4ke5roa5f4sh84awqfy3,FEohHxsa,2020-0188,2020-06-04,10:38:47,11:02:00,NA,incomplete,142,race,3,0,left,C_F_06.jpg,C_M_13.jpg,A_F_11.jpg,right,616.8900000629947,false,high,NA,NA,NA,NA,NA,NA,NA,false
FEohHxsa,3y3czjszan6hsnojzw5z9ps3vnar5b,39owyr0epo4ke5roa5f4sh84awqfy3,FEohHxsa,2020-0188,2020-06-04,10:38:47,11:02:00,NA,incomplete,143,race,3,1,right,A_F_06.jpg,C_F_13.jpg,A_M_11.jpg,right,836.1499999882653,true,high,NA,NA,NA,NA,NA,NA,NA,false
FEohHxsa,3y3czjszan6hsnojzw5z9ps3vnar5b,39owyr0epo4ke5roa5f4sh84awqfy3,FEohHxsa,2020-0188,2020-06-04,10:38:47,11:02:00,NA,incomplete,144,race,3,1,left,C_M_03.jpg,C_F_07.jpg,A_M_05.jpg,right,983.8650000747293,false,high,NA,NA,NA,NA,NA,NA,NA,false
FEohHxsa,3y3czjszan6hsnojzw5z9ps3vnar5b,39owyr0epo4ke5roa5f4sh84awqfy3,FEohHxsa,2020-0188,2020-06-04,10:38:47,11:02:00,NA,incomplete,145,race,3,1,left,A_M_16.jpg,A_F_09.jpg,C_M_02.jpg,left,867.6599999889731,true,high,NA,NA,NA,NA,NA,NA,NA,false
FEohHxsa,3y3czjszan6hsnojzw5z9ps3vnar5b,39owyr0epo4ke5roa5f4sh84awqfy3,FEohHxsa,2020-0188,2020-06-04,10:38:47,11:02:00,NA,incomplete,146,race,3,1,right,A_F_01.jpg,C_F_03.jpg,A_M_13.jpg,left,711.0799999209121,false,high,NA,NA,NA,NA,NA,NA,NA,false
FEohHxsa,3y3czjszan6hsnojzw5z9ps3vnar5b,39owyr0epo4ke5roa5f4sh84awqfy3,FEohHxsa,2020-0188,2020-06-04,10:38:47,11:02:00,NA,incomplete,147,race,3,0,right,A_F_14.jpg,C_F_06.jpg,A_M_08.jpg,right,766.5300000226125,true,high,NA,NA,NA,NA,NA,NA,NA,false
FEohHxsa,3y3czjszan6hsnojzw5z9ps3vnar5b,39owyr0epo4ke5roa5f4sh84awqfy3,FEohHxsa,2020-0188,2020-06-04,10:38:47,11:02:00,NA,incomplete,148,race,3,1,left,C_M_09.jpg,C_F_02.jpg,A_M_12.jpg,left,1035.730000003241,true,high,NA,NA,NA,NA,NA,NA,NA,false
FEohHxsa,3y3czjszan6hsnojzw5z9ps3vnar5b,39owyr0epo4ke5roa5f4sh84awqfy3,FEohHxsa,2020-0188,2020-06-04,10:38:47,11:02:00,NA,incomplete,149,race,3,1,right,A_F_01.jpg,C_F_13.jpg,A_M_04.jpg,right,1030.4400000022724,true,high,NA,NA,NA,NA,NA,NA,NA,false
FEohHxsa,3y3czjszan6hsnojzw5z9ps3vnar5b,39owyr0epo4ke5roa5f4sh84awqfy3,FEohHxsa,2020-0188,2020-06-04,10:38:47,11:02:00,NA,incomplete,150,race,3,0,left,C_F_14.jpg,C_M_16.jpg,A_F_07.jpg,left,770.2049999497831,true,high,NA,NA,NA,NA,NA,NA,NA,false
FEohHxsa,3y3czjszan6hsnojzw5z9ps3vnar5b,39owyr0epo4ke5roa5f4sh84awqfy3,FEohHxsa,2020-0188,2020-06-04,10:38:47,11:02:00,NA,incomplete,151,race,3,1,right,C_M_04.jpg,A_M_06.jpg,C_F_02.jpg,right,960.6200000271201,true,high,NA,NA,NA,NA,NA,NA,NA,false
FEohHxsa,3y3czjszan6hsnojzw5z9ps3vnar5b,39owyr0epo4ke5roa5f4sh84awqfy3,FEohHxsa,2020-0188,2020-06-04,10:38:47,11:02:00,NA,incomplete,152,race,3,0,left,C_M_03.jpg,C_F_06.jpg,A_M_04.jpg,right,725.2700000535697,false,high,NA,NA,NA,NA,NA,NA,NA,false
FEohHxsa,3y3czjszan6hsnojzw5z9ps3vnar5b,39owyr0epo4ke5roa5f4sh84awqfy3,FEohHxsa,2020-0188,2020-06-04,10:38:47,11:02:00,NA,incomplete,153,race,3,1,right,A_M_15.jpg,C_M_08.jpg,A_F_09.jpg,right,788.6500000022352,true,high,NA,NA,NA,NA,NA,NA,NA,false
FEohHxsa,3y3czjszan6hsnojzw5z9ps3vnar5b,39owyr0epo4ke5roa5f4sh84awqfy3,FEohHxsa,2020-0188,2020-06-04,10:38:47,11:02:00,NA,incomplete,154,race,3,0,right,A_F_06.jpg,C_F_14.jpg,A_M_10.jpg,right,873.0600000126287,true,high,NA,NA,NA,NA,NA,NA,NA,false
FEohHxsa,3y3czjszan6hsnojzw5z9ps3vnar5b,39owyr0epo4ke5roa5f4sh84awqfy3,FEohHxsa,2020-0188,2020-06-04,10:38:47,11:02:00,NA,incomplete,155,race,3,1,right,C_F_06.jpg,A_F_08.jpg,C_M_02.jpg,right,1139.4599999766797,true,high,NA,NA,NA,NA,NA,NA,NA,false
FEohHxsa,3y3czjszan6hsnojzw5z9ps3vnar5b,39owyr0epo4ke5roa5f4sh84awqfy3,FEohHxsa,2020-0188,2020-06-04,10:38:47,11:02:00,NA,incomplete,156,race,3,0,left,C_M_10.jpg,C_F_09.jpg,A_M_04.jpg,left,827.4150000652298,true,high,NA,NA,NA,NA,NA,NA,NA,false
FEohHxsa,3y3czjszan6hsnojzw5z9ps3vnar5b,39owyr0epo4ke5roa5f4sh84awqfy3,FEohHxsa,2020-0188,2020-06-04,10:38:47,11:02:00,NA,incomplete,157,race,3,1,left,C_F_06.jpg,C_M_13.jpg,A_F_11.jpg,right,773.2100000139326,false,high,NA,NA,NA,NA,NA,NA,NA,false
FEohHxsa,3y3czjszan6hsnojzw5z9ps3vnar5b,39owyr0epo4ke5roa5f4sh84awqfy3,FEohHxsa,2020-0188,2020-06-04,10:38:47,11:02:00,NA,incomplete,158,race,3,1,left,A_F_05.jpg,A_M_12.jpg,C_F_15.jpg,right,754.4149999739602,false,high,NA,NA,NA,NA,NA,NA,NA,false
FEohHxsa,3y3czjszan6hsnojzw5z9ps3vnar5b,39owyr0epo4ke5roa5f4sh84awqfy3,FEohHxsa,2020-0188,2020-06-04,10:38:47,11:02:00,NA,incomplete,159,race,3,0,left,C_F_13.jpg,C_M_02.jpg,A_F_07.jpg,left,592.5199999473989,true,high,NA,NA,NA,NA,NA,NA,NA,false
FEohHxsa,3y3czjszan6hsnojzw5z9ps3vnar5b,39owyr0epo4ke5roa5f4sh84awqfy3,FEohHxsa,2020-0188,2020-06-04,10:38:47,11:02:00,NA,incomplete,160,gender,2,1,right,C_M_09.jpg,C_F_02.jpg,A_M_06.jpg,right,996.29499996081,true,high,NA,NA,NA,NA,NA,NA,NA,false
FEohHxsa,3y3czjszan6hsnojzw5z9ps3vnar5b,39owyr0epo4ke5roa5f4sh84awqfy3,FEohHxsa,2020-0188,2020-06-04,10:38:47,11:02:00,NA,incomplete,161,gender,2,1,left,A_F_11.jpg,C_F_10.jpg,A_M_07.jpg,right,642.9800000041723,false,high,NA,NA,NA,NA,NA,NA,NA,false
FEohHxsa,3y3czjszan6hsnojzw5z9ps3vnar5b,39owyr0epo4ke5roa5f4sh84awqfy3,FEohHxsa,2020-0188,2020-06-04,10:38:47,11:02:00,NA,incomplete,162,gender,2,1,left,A_F_11.jpg,C_F_01.jpg,A_M_04.jpg,right,1380.4150000214577,false,high,NA,NA,NA,NA,NA,NA,NA,false
FEohHxsa,3y3czjszan6hsnojzw5z9ps3vnar5b,39owyr0epo4ke5roa5f4sh84awqfy3,FEohHxsa,2020-0188,2020-06-04,10:38:47,11:02:00,NA,incomplete,163,gender,2,1,right,A_F_06.jpg,A_M_12.jpg,C_F_10.jpg,left,674.1400000173599,false,high,NA,NA,NA,NA,NA,NA,NA,false
FEohHxsa,3y3czjszan6hsnojzw5z9ps3vnar5b,39owyr0epo4ke5roa5f4sh84awqfy3,FEohHxsa,2020-0188,2020-06-04,10:38:47,11:02:00,NA,incomplete,164,gender,2,1,left,A_M_05.jpg,C_M_12.jpg,A_F_10.jpg,right,795.8949999883771,false,high,NA,NA,NA,NA,NA,NA,NA,false
FEohHxsa,3y3czjszan6hsnojzw5z9ps3vnar5b,39owyr0epo4ke5roa5f4sh84awqfy3,FEohHxsa,2020-0188,2020-06-04,10:38:47,11:02:00,NA,incomplete,165,gender,2,1,left,A_M_02.jpg,C_M_01.jpg,A_F_03.jpg,left,551.7349999863654,true,high,NA,NA,NA,NA,NA,NA,NA,false
FEohHxsa,3y3czjszan6hsnojzw5z9ps3vnar5b,39owyr0epo4ke5roa5f4sh84awqfy3,FEohHxsa,2020-0188,2020-06-04,10:38:47,11:02:00,NA,incomplete,166,gender,2,1,right,A_F_13.jpg,A_M_05.jpg,C_F_12.jpg,left,469.4450000533834,false,high,NA,NA,NA,NA,NA,NA,NA,false
FEohHxsa,3y3czjszan6hsnojzw5z9ps3vnar5b,39owyr0epo4ke5roa5f4sh84awqfy3,FEohHxsa,2020-0188,2020-06-04,10:38:47,11:02:00,NA,incomplete,167,gender,2,1,right,C_F_05.jpg,C_M_06.jpg,A_F_02.jpg,right,646.7399999964982,true,high,NA,NA,NA,NA,NA,NA,NA,false
FEohHxsa,3y3czjszan6hsnojzw5z9ps3vnar5b,39owyr0epo4ke5roa5f4sh84awqfy3,FEohHxsa,2020-0188,2020-06-04,10:38:47,11:02:00,NA,incomplete,168,gender,2,1,left,A_F_06.jpg,C_F_15.jpg,A_M_02.jpg,left,498.47999995108694,true,high,NA,NA,NA,NA,NA,NA,NA,false
FEohHxsa,3y3czjszan6hsnojzw5z9ps3vnar5b,39owyr0epo4ke5roa5f4sh84awqfy3,FEohHxsa,2020-0188,2020-06-04,10:38:47,11:02:00,NA,incomplete,169,gender,2,1,left,C_F_07.jpg,A_F_11.jpg,C_M_06.jpg,right,386.5549999754876,false,high,NA,NA,NA,NA,NA,NA,NA,false
FEohHxsa,3y3czjszan6hsnojzw5z9ps3vnar5b,39owyr0epo4ke5roa5f4sh84awqfy3,FEohHxsa,2020-0188,2020-06-04,10:38:47,11:02:00,NA,incomplete,170,gender,2,1,right,C_M_01.jpg,C_F_10.jpg,A_M_15.jpg,left,487.3649999499321,false,high,NA,NA,NA,NA,NA,NA,NA,false
FEohHxsa,3y3czjszan6hsnojzw5z9ps3vnar5b,39owyr0epo4ke5roa5f4sh84awqfy3,FEohHxsa,2020-0188,2020-06-04,10:38:47,11:02:00,NA,incomplete,171,gender,2,1,left,C_F_15.jpg,A_F_14.jpg,C_M_12.jpg,left,311.72499991953373,true,high,NA,NA,NA,NA,NA,NA,NA,false
FEohHxsa,3y3czjszan6hsnojzw5z9ps3vnar5b,39owyr0epo4ke5roa5f4sh84awqfy3,FEohHxsa,2020-0188,2020-06-04,10:38:47,11:02:00,NA,incomplete,172,gender,2,1,right,C_F_04.jpg,C_M_05.jpg,A_F_13.jpg,right,288.64000004250556,true,high,NA,NA,NA,NA,NA,NA,NA,false
FEohHxsa,3y3czjszan6hsnojzw5z9ps3vnar5b,39owyr0epo4ke5roa5f4sh84awqfy3,FEohHxsa,2020-0188,2020-06-04,10:38:47,11:02:00,NA,incomplete,173,gender,2,0,right,C_F_09.jpg,C_M_03.jpg,A_F_06.jpg,left,336.684999987483,false,high,NA,NA,NA,NA,NA,NA,NA,false
FEohHxsa,3y3czjszan6hsnojzw5z9ps3vnar5b,39owyr0epo4ke5roa5f4sh84awqfy3,FEohHxsa,2020-0188,2020-06-04,10:38:47,11:02:00,NA,incomplete,174,gender,2,1,left,A_M_08.jpg,C_M_12.jpg,A_F_13.jpg,right,343.4000000124797,false,high,NA,NA,NA,NA,NA,NA,NA,false
FEohHxsa,3y3czjszan6hsnojzw5z9ps3vnar5b,39owyr0epo4ke5roa5f4sh84awqfy3,FEohHxsa,2020-0188,2020-06-04,10:38:47,11:02:00,NA,incomplete,175,gender,2,0,right,A_F_11.jpg,A_M_10.jpg,C_F_15.jpg,right,485.73499999474734,true,high,NA,NA,NA,NA,NA,NA,NA,false
FEohHxsa,3y3czjszan6hsnojzw5z9ps3vnar5b,39owyr0epo4ke5roa5f4sh84awqfy3,FEohHxsa,2020-0188,2020-06-04,10:38:47,11:02:00,NA,incomplete,176,gender,2,1,right,A_F_10.jpg,A_M_12.jpg,C_F_08.jpg,left,413.994999951683,false,high,NA,NA,NA,NA,NA,NA,NA,false
FEohHxsa,3y3czjszan6hsnojzw5z9ps3vnar5b,39owyr0epo4ke5roa5f4sh84awqfy3,FEohHxsa,2020-0188,2020-06-04,10:38:47,11:02:00,NA,incomplete,177,gender,2,1,right,C_F_15.jpg,C_M_14.jpg,A_F_07.jpg,right,459.16500000748783,true,high,NA,NA,NA,NA,NA,NA,NA,false
FEohHxsa,3y3czjszan6hsnojzw5z9ps3vnar5b,39owyr0epo4ke5roa5f4sh84awqfy3,FEohHxsa,2020-0188,2020-06-04,10:38:47,11:02:00,NA,incomplete,178,gender,2,1,right,C_F_05.jpg,C_M_01.jpg,A_F_08.jpg,left,822.2500000847504,false,high,NA,NA,NA,NA,NA,NA,NA,false
FEohHxsa,3y3czjszan6hsnojzw5z9ps3vnar5b,39owyr0epo4ke5roa5f4sh84awqfy3,FEohHxsa,2020-0188,2020-06-04,10:38:47,11:02:00,NA,incomplete,179,gender,2,0,left,A_M_02.jpg,C_M_07.jpg,A_F_06.jpg,right,279.8249999759719,false,high,NA,NA,NA,NA,NA,NA,NA,false
FEohHxsa,3y3czjszan6hsnojzw5z9ps3vnar5b,39owyr0epo4ke5roa5f4sh84awqfy3,FEohHxsa,2020-0188,2020-06-04,10:38:47,11:02:00,NA,incomplete,180,race,3,1,left,C_F_04.jpg,C_M_10.jpg,A_F_02.jpg,left,977.3650000570342,true,high,NA,NA,NA,NA,NA,NA,NA,false
FEohHxsa,3y3czjszan6hsnojzw5z9ps3vnar5b,39owyr0epo4ke5roa5f4sh84awqfy3,FEohHxsa,2020-0188,2020-06-04,10:38:47,11:02:00,NA,incomplete,181,race,3,1,left,C_M_15.jpg,C_F_09.jpg,A_M_12.jpg,right,478.37499994784594,false,high,NA,NA,NA,NA,NA,NA,NA,false
FEohHxsa,3y3czjszan6hsnojzw5z9ps3vnar5b,39owyr0epo4ke5roa5f4sh84awqfy3,FEohHxsa,2020-0188,2020-06-04,10:38:47,11:02:00,NA,incomplete,182,race,3,1,left,A_M_07.jpg,A_F_09.jpg,C_M_02.jpg,left,744.6050000144169,true,high,NA,NA,NA,NA,NA,NA,NA,false
FEohHxsa,3y3czjszan6hsnojzw5z9ps3vnar5b,39owyr0epo4ke5roa5f4sh84awqfy3,FEohHxsa,2020-0188,2020-06-04,10:38:47,11:02:00,NA,incomplete,183,race,3,1,left,A_M_07.jpg,A_F_04.jpg,C_M_15.jpg,left,816.2099999608472,true,high,NA,NA,NA,NA,NA,NA,NA,false
FEohHxsa,3y3czjszan6hsnojzw5z9ps3vnar5b,39owyr0epo4ke5roa5f4sh84awqfy3,FEohHxsa,2020-0188,2020-06-04,10:38:47,11:02:00,NA,incomplete,184,race,3,1,right,C_M_07.jpg,A_M_03.jpg,C_F_02.jpg,right,642.604999942705,true,high,NA,NA,NA,NA,NA,NA,NA,false
FEohHxsa,3y3czjszan6hsnojzw5z9ps3vnar5b,39owyr0epo4ke5roa5f4sh84awqfy3,FEohHxsa,2020-0188,2020-06-04,10:38:47,11:02:00,NA,incomplete,185,race,3,1,right,A_M_04.jpg,C_M_06.jpg,A_F_15.jpg,right,757.439999957569,true,high,NA,NA,NA,NA,NA,NA,NA,false
FEohHxsa,3y3czjszan6hsnojzw5z9ps3vnar5b,39owyr0epo4ke5roa5f4sh84awqfy3,FEohHxsa,2020-0188,2020-06-04,10:38:47,11:02:00,NA,incomplete,186,race,3,1,right,C_F_05.jpg,A_F_16.jpg,C_M_11.jpg,right,1331.294999923557,true,high,NA,NA,NA,NA,NA,NA,NA,false
FEohHxsa,3y3czjszan6hsnojzw5z9ps3vnar5b,39owyr0epo4ke5roa5f4sh84awqfy3,FEohHxsa,2020-0188,2020-06-04,10:38:47,11:02:00,NA,incomplete,187,race,3,1,right,C_F_12.jpg,A_F_13.jpg,C_M_15.jpg,right,738.9149999944493,true,high,NA,NA,NA,NA,NA,NA,NA,false
FEohHxsa,3y3czjszan6hsnojzw5z9ps3vnar5b,39owyr0epo4ke5roa5f4sh84awqfy3,FEohHxsa,2020-0188,2020-06-04,10:38:47,11:02:00,NA,incomplete,188,race,3,1,left,A_M_03.jpg,A_F_08.jpg,C_M_13.jpg,left,955.2399999229237,true,high,NA,NA,NA,NA,NA,NA,NA,false
FEohHxsa,3y3czjszan6hsnojzw5z9ps3vnar5b,39owyr0epo4ke5roa5f4sh84awqfy3,FEohHxsa,2020-0188,2020-06-04,10:38:47,11:02:00,NA,incomplete,189,race,3,1,left,A_F_07.jpg,A_M_06.jpg,C_F_01.jpg,left,737.1999999741092,true,high,NA,NA,NA,NA,NA,NA,NA,false
FEohHxsa,3y3czjszan6hsnojzw5z9ps3vnar5b,39owyr0epo4ke5roa5f4sh84awqfy3,FEohHxsa,2020-0188,2020-06-04,10:38:47,11:02:00,NA,incomplete,190,race,3,1,left,C_F_08.jpg,C_M_16.jpg,A_F_02.jpg,right,863.9350000303239,false,high,NA,NA,NA,NA,NA,NA,NA,false
FEohHxsa,3y3czjszan6hsnojzw5z9ps3vnar5b,39owyr0epo4ke5roa5f4sh84awqfy3,FEohHxsa,2020-0188,2020-06-04,10:38:47,11:02:00,NA,incomplete,191,race,3,1,left,C_F_08.jpg,C_M_01.jpg,A_F_16.jpg,left,834.389999974519,true,high,NA,NA,NA,NA,NA,NA,NA,false
FEohHxsa,3y3czjszan6hsnojzw5z9ps3vnar5b,39owyr0epo4ke5roa5f4sh84awqfy3,FEohHxsa,2020-0188,2020-06-04,10:38:47,11:02:00,NA,incomplete,192,race,3,1,left,C_M_13.jpg,C_F_01.jpg,A_M_10.jpg,right,964.9150000186637,false,high,NA,NA,NA,NA,NA,NA,NA,false
FEohHxsa,3y3czjszan6hsnojzw5z9ps3vnar5b,39owyr0epo4ke5roa5f4sh84awqfy3,FEohHxsa,2020-0188,2020-06-04,10:38:47,11:02:00,NA,incomplete,193,race,3,0,left,C_F_13.jpg,C_M_06.jpg,A_F_16.jpg,none,0,false,high,NA,NA,NA,NA,NA,NA,NA,false
FEohHxsa,3y3czjszan6hsnojzw5z9ps3vnar5b,39owyr0epo4ke5roa5f4sh84awqfy3,FEohHxsa,2020-0188,2020-06-04,10:38:47,11:02:00,NA,incomplete,194,race,3,1,right,A_M_06.jpg,C_M_16.jpg,A_F_03.jpg,left,820.2749999472871,false,high,NA,NA,NA,NA,NA,NA,NA,false
FEohHxsa,3y3czjszan6hsnojzw5z9ps3vnar5b,39owyr0epo4ke5roa5f4sh84awqfy3,FEohHxsa,2020-0188,2020-06-04,10:38:47,11:02:00,NA,incomplete,195,race,3,1,left,C_M_13.jpg,C_F_09.jpg,A_M_02.jpg,left,703.6100000841543,true,high,NA,NA,NA,NA,NA,NA,NA,false
FEohHxsa,3y3czjszan6hsnojzw5z9ps3vnar5b,39owyr0epo4ke5roa5f4sh84awqfy3,FEohHxsa,2020-0188,2020-06-04,10:38:47,11:02:00,NA,incomplete,196,race,3,0,left,C_F_09.jpg,C_M_02.jpg,A_F_14.jpg,left,848.8199999555945,true,high,NA,NA,NA,NA,NA,NA,NA,false
FEohHxsa,3y3czjszan6hsnojzw5z9ps3vnar5b,39owyr0epo4ke5roa5f4sh84awqfy3,FEohHxsa,2020-0188,2020-06-04,10:38:47,11:02:00,NA,incomplete,197,race,3,1,right,A_F_07.jpg,C_F_10.jpg,A_M_14.jpg,right,674.4050000561401,true,high,NA,NA,NA,NA,NA,NA,NA,false
FEohHxsa,3y3czjszan6hsnojzw5z9ps3vnar5b,39owyr0epo4ke5roa5f4sh84awqfy3,FEohHxsa,2020-0188,2020-06-04,10:38:47,11:02:00,NA,incomplete,198,race,3,1,right,A_F_02.jpg,C_F_09.jpg,A_M_04.jpg,right,803.8999999407679,true,high,NA,NA,NA,NA,NA,NA,NA,false
FEohHxsa,3y3czjszan6hsnojzw5z9ps3vnar5b,39owyr0epo4ke5roa5f4sh84awqfy3,FEohHxsa,2020-0188,2020-06-04,10:38:47,11:02:00,NA,incomplete,199,race,3,1,right,C_F_04.jpg,A_F_05.jpg,C_M_06.jpg,left,791.6550000663847,false,high,NA,NA,NA,NA,NA,NA,NA,false
FEohHxsa,3y3czjszan6hsnojzw5z9ps3vnar5b,39owyr0epo4ke5roa5f4sh84awqfy3,FEohHxsa,2020-0188,2020-06-04,10:38:47,11:02:00,NA,incomplete,200,gender,2,0,right,A_M_02.jpg,A_F_08.jpg,C_M_07.jpg,left,685.50999998115,false,high,NA,NA,NA,NA,NA,NA,NA,false
FEohHxsa,3y3czjszan6hsnojzw5z9ps3vnar5b,39owyr0epo4ke5roa5f4sh84awqfy3,FEohHxsa,2020-0188,2020-06-04,10:38:47,11:02:00,NA,incomplete,201,gender,2,1,left,C_F_11.jpg,A_F_08.jpg,C_M_05.jpg,right,1072.7650000480935,false,high,NA,NA,NA,NA,NA,NA,NA,false
FEohHxsa,3y3czjszan6hsnojzw5z9ps3vnar5b,39owyr0epo4ke5roa5f4sh84awqfy3,FEohHxsa,2020-0188,2020-06-04,10:38:47,11:02:00,NA,incomplete,202,gender,2,1,left,C_M_04.jpg,A_M_02.jpg,C_F_16.jpg,right,633.1550000468269,false,high,NA,NA,NA,NA,NA,NA,NA,false
FEohHxsa,3y3czjszan6hsnojzw5z9ps3vnar5b,39owyr0epo4ke5roa5f4sh84awqfy3,FEohHxsa,2020-0188,2020-06-04,10:38:47,11:02:00,NA,incomplete,203,gender,2,1,right,A_F_12.jpg,A_M_16.jpg,C_F_06.jpg,right,804.4800000498071,true,high,NA,NA,NA,NA,NA,NA,NA,false
FEohHxsa,3y3czjszan6hsnojzw5z9ps3vnar5b,39owyr0epo4ke5roa5f4sh84awqfy3,FEohHxsa,2020-0188,2020-06-04,10:38:47,11:02:00,NA,incomplete,204,gender,2,1,right,A_F_14.jpg,A_M_03.jpg,C_F_08.jpg,right,528.3050000434741,true,high,NA,NA,NA,NA,NA,NA,NA,false
FEohHxsa,3y3czjszan6hsnojzw5z9ps3vnar5b,39owyr0epo4ke5roa5f4sh84awqfy3,FEohHxsa,2020-0188,2020-06-04,10:38:47,11:02:00,NA,incomplete,205,gender,2,1,right,C_F_12.jpg,C_M_16.jpg,A_F_04.jpg,right,488.5350000113249,true,high,NA,NA,NA,NA,NA,NA,NA,false
FEohHxsa,3y3czjszan6hsnojzw5z9ps3vnar5b,39owyr0epo4ke5roa5f4sh84awqfy3,FEohHxsa,2020-0188,2020-06-04,10:38:47,11:02:00,NA,incomplete,206,gender,2,1,right,C_M_04.jpg,C_F_13.jpg,A_M_08.jpg,left,633.3249999443069,false,high,NA,NA,NA,NA,NA,NA,NA,false
FEohHxsa,3y3czjszan6hsnojzw5z9ps3vnar5b,39owyr0epo4ke5roa5f4sh84awqfy3,FEohHxsa,2020-0188,2020-06-04,10:38:47,11:02:00,NA,incomplete,207,gender,2,1,left,A_F_14.jpg,C_F_09.jpg,A_M_02.jpg,left,627.8999999631196,true,high,NA,NA,NA,NA,NA,NA,NA,false
FEohHxsa,3y3czjszan6hsnojzw5z9ps3vnar5b,39owyr0epo4ke5roa5f4sh84awqfy3,FEohHxsa,2020-0188,2020-06-04,10:38:47,11:02:00,NA,incomplete,208,gender,2,0,right,A_M_09.jpg,A_F_01.jpg,C_M_10.jpg,right,631.8800000008196,true,high,NA,NA,NA,NA,NA,NA,NA,false
FEohHxsa,3y3czjszan6hsnojzw5z9ps3vnar5b,39owyr0epo4ke5roa5f4sh84awqfy3,FEohHxsa,2020-0188,2020-06-04,10:38:47,11:02:00,NA,incomplete,209,gender,2,1,left,C_F_12.jpg,A_F_06.jpg,C_M_15.jpg,right,851.3650000095367,false,high,NA,NA,NA,NA,NA,NA,NA,false
FEohHxsa,3y3czjszan6hsnojzw5z9ps3vnar5b,39owyr0epo4ke5roa5f4sh84awqfy3,FEohHxsa,2020-0188,2020-06-04,10:38:47,11:02:00,NA,incomplete,210,gender,2,1,right,C_M_09.jpg,C_F_02.jpg,A_M_11.jpg,left,660.5750001035631,false,high,NA,NA,NA,NA,NA,NA,NA,false
FEohHxsa,3y3czjszan6hsnojzw5z9ps3vnar5b,39owyr0epo4ke5roa5f4sh84awqfy3,FEohHxsa,2020-0188,2020-06-04,10:38:47,11:02:00,NA,incomplete,211,gender,2,1,right,C_M_01.jpg,C_F_08.jpg,A_M_02.jpg,left,680.3000000072643,false,high,NA,NA,NA,NA,NA,NA,NA,false
FEohHxsa,3y3czjszan6hsnojzw5z9ps3vnar5b,39owyr0epo4ke5roa5f4sh84awqfy3,FEohHxsa,2020-0188,2020-06-04,10:38:47,11:02:00,NA,incomplete,212,gender,2,1,right,C_M_15.jpg,C_F_10.jpg,A_M_08.jpg,right,384.7299999324605,true,high,NA,NA,NA,NA,NA,NA,NA,false
FEohHxsa,3y3czjszan6hsnojzw5z9ps3vnar5b,39owyr0epo4ke5roa5f4sh84awqfy3,FEohHxsa,2020-0188,2020-06-04,10:38:47,11:02:00,NA,incomplete,213,gender,2,0,right,C_F_09.jpg,C_M_14.jpg,A_F_11.jpg,right,509.2600000789389,true,high,NA,NA,NA,NA,NA,NA,NA,false
FEohHxsa,3y3czjszan6hsnojzw5z9ps3vnar5b,39owyr0epo4ke5roa5f4sh84awqfy3,FEohHxsa,2020-0188,2020-06-04,10:38:47,11:02:00,NA,incomplete,214,gender,2,1,right,A_M_05.jpg,A_F_07.jpg,C_M_10.jpg,left,557.6850000070408,false,high,NA,NA,NA,NA,NA,NA,NA,false
FEohHxsa,3y3czjszan6hsnojzw5z9ps3vnar5b,39owyr0epo4ke5roa5f4sh84awqfy3,FEohHxsa,2020-0188,2020-06-04,10:38:47,11:02:00,NA,incomplete,215,gender,2,1,left,C_F_05.jpg,A_F_15.jpg,C_M_13.jpg,right,531.360000022687,false,high,NA,NA,NA,NA,NA,NA,NA,false
FEohHxsa,3y3czjszan6hsnojzw5z9ps3vnar5b,39owyr0epo4ke5roa5f4sh84awqfy3,FEohHxsa,2020-0188,2020-06-04,10:38:47,11:02:00,NA,incomplete,216,gender,2,1,right,C_F_16.jpg,C_M_01.jpg,A_F_10.jpg,left,827.6049999985844,false,high,NA,NA,NA,NA,NA,NA,NA,false
FEohHxsa,3y3czjszan6hsnojzw5z9ps3vnar5b,39owyr0epo4ke5roa5f4sh84awqfy3,FEohHxsa,2020-0188,2020-06-04,10:38:47,11:02:00,NA,incomplete,217,gender,2,1,right,C_F_06.jpg,C_M_12.jpg,A_F_02.jpg,left,181.7899999441579,false,high,NA,NA,NA,NA,NA,NA,NA,false
FEohHxsa,3y3czjszan6hsnojzw5z9ps3vnar5b,39owyr0epo4ke5roa5f4sh84awqfy3,FEohHxsa,2020-0188,2020-06-04,10:38:47,11:02:00,NA,incomplete,218,gender,2,1,right,A_F_15.jpg,A_M_07.jpg,C_F_11.jpg,right,563.0499999970198,true,high,NA,NA,NA,NA,NA,NA,NA,false
FEohHxsa,3y3czjszan6hsnojzw5z9ps3vnar5b,39owyr0epo4ke5roa5f4sh84awqfy3,FEohHxsa,2020-0188,2020-06-04,10:38:47,11:02:00,NA,incomplete,219,gender,2,0,left,C_M_12.jpg,A_M_07.jpg,C_F_15.jpg,right,937.4700000043958,false,high,NA,NA,NA,NA,NA,NA,NA,false
FEohHxsa,3y3czjszan6hsnojzw5z9ps3vnar5b,39owyr0epo4ke5roa5f4sh84awqfy3,FEohHxsa,2020-0188,2020-06-04,10:38:47,11:02:00,NA,incomplete,220,race,3,1,left,A_F_03.jpg,A_M_08.jpg,C_F_04.jpg,left,776.6999999294057,true,high,NA,NA,NA,NA,NA,NA,NA,false
FEohHxsa,3y3czjszan6hsnojzw5z9ps3vnar5b,39owyr0epo4ke5roa5f4sh84awqfy3,FEohHxsa,2020-0188,2020-06-04,10:38:47,11:02:00,NA,incomplete,221,race,3,1,right,C_F_11.jpg,A_F_15.jpg,C_M_04.jpg,right,606.5599999856204,true,high,NA,NA,NA,NA,NA,NA,NA,false
FEohHxsa,3y3czjszan6hsnojzw5z9ps3vnar5b,39owyr0epo4ke5roa5f4sh84awqfy3,FEohHxsa,2020-0188,2020-06-04,10:38:47,11:02:00,NA,incomplete,222,race,3,0,left,A_F_13.jpg,A_M_06.jpg,C_F_15.jpg,left,857.0600000675768,true,high,NA,NA,NA,NA,NA,NA,NA,false
FEohHxsa,3y3czjszan6hsnojzw5z9ps3vnar5b,39owyr0epo4ke5roa5f4sh84awqfy3,FEohHxsa,2020-0188,2020-06-04,10:38:47,11:02:00,NA,incomplete,223,race,3,1,left,A_F_16.jpg,A_M_15.jpg,C_F_11.jpg,left,866.8099999194965,true,high,NA,NA,NA,NA,NA,NA,NA,false
FEohHxsa,3y3czjszan6hsnojzw5z9ps3vnar5b,39owyr0epo4ke5roa5f4sh84awqfy3,FEohHxsa,2020-0188,2020-06-04,10:38:47,11:02:00,NA,incomplete,224,race,3,1,left,C_M_03.jpg,C_F_12.jpg,A_M_16.jpg,right,724.3849999504164,false,high,NA,NA,NA,NA,NA,NA,NA,false
FEohHxsa,3y3czjszan6hsnojzw5z9ps3vnar5b,39owyr0epo4ke5roa5f4sh84awqfy3,FEohHxsa,2020-0188,2020-06-04,10:38:47,11:02:00,NA,incomplete,225,race,3,1,left,C_F_03.jpg,C_M_16.jpg,A_F_09.jpg,left,989.2700000200421,true,high,NA,NA,NA,NA,NA,NA,NA,false
FEohHxsa,3y3czjszan6hsnojzw5z9ps3vnar5b,39owyr0epo4ke5roa5f4sh84awqfy3,FEohHxsa,2020-0188,2020-06-04,10:38:47,11:02:00,NA,incomplete,226,race,3,0,right,C_M_09.jpg,A_M_01.jpg,C_F_07.jpg,right,722.0949999755248,true,high,NA,NA,NA,NA,NA,NA,NA,false
FEohHxsa,3y3czjszan6hsnojzw5z9ps3vnar5b,39owyr0epo4ke5roa5f4sh84awqfy3,FEohHxsa,2020-0188,2020-06-04,10:38:47,11:02:00,NA,incomplete,227,race,3,1,left,A_F_06.jpg,A_M_03.jpg,C_F_15.jpg,left,648.4150000615045,true,high,NA,NA,NA,NA,NA,NA,NA,false
FEohHxsa,3y3czjszan6hsnojzw5z9ps3vnar5b,39owyr0epo4ke5roa5f4sh84awqfy3,FEohHxsa,2020-0188,2020-06-04,10:38:47,11:02:00,NA,incomplete,228,race,3,0,left,A_F_15.jpg,A_M_12.jpg,C_F_13.jpg,left,707.0349999703467,true,high,NA,NA,NA,NA,NA,NA,NA,false
FEohHxsa,3y3czjszan6hsnojzw5z9ps3vnar5b,39owyr0epo4ke5roa5f4sh84awqfy3,FEohHxsa,2020-0188,2020-06-04,10:38:47,11:02:00,NA,incomplete,229,race,3,1,left,C_M_11.jpg,C_F_08.jpg,A_M_02.jpg,right,706.8949999520555,false,high,NA,NA,NA,NA,NA,NA,NA,false
FEohHxsa,3y3czjszan6hsnojzw5z9ps3vnar5b,39owyr0epo4ke5roa5f4sh84awqfy3,FEohHxsa,2020-0188,2020-06-04,10:38:47,11:02:00,NA,incomplete,230,race,3,1,left,C_M_14.jpg,C_F_02.jpg,A_M_11.jpg,left,819.8599999304861,true,high,NA,NA,NA,NA,NA,NA,NA,false
FEohHxsa,3y3czjszan6hsnojzw5z9ps3vnar5b,39owyr0epo4ke5roa5f4sh84awqfy3,FEohHxsa,2020-0188,2020-06-04,10:38:47,11:02:00,NA,incomplete,231,race,3,1,right,A_F_06.jpg,C_F_13.jpg,A_M_05.jpg,right,802.6449999306351,true,high,NA,NA,NA,NA,NA,NA,NA,false
FEohHxsa,3y3czjszan6hsnojzw5z9ps3vnar5b,39owyr0epo4ke5roa5f4sh84awqfy3,FEohHxsa,2020-0188,2020-06-04,10:38:47,11:02:00,NA,incomplete,232,race,3,1,right,C_F_16.jpg,A_F_14.jpg,C_M_04.jpg,right,903.2049999805167,true,high,NA,NA,NA,NA,NA,NA,NA,false
FEohHxsa,3y3czjszan6hsnojzw5z9ps3vnar5b,39owyr0epo4ke5roa5f4sh84awqfy3,FEohHxsa,2020-0188,2020-06-04,10:38:47,11:02:00,NA,incomplete,233,race,3,1,left,A_M_10.jpg,A_F_06.jpg,C_M_08.jpg,left,743.4149999171495,true,high,NA,NA,NA,NA,NA,NA,NA,false
FEohHxsa,3y3czjszan6hsnojzw5z9ps3vnar5b,39owyr0epo4ke5roa5f4sh84awqfy3,FEohHxsa,2020-0188,2020-06-04,10:38:47,11:02:00,NA,incomplete,234,race,3,1,right,A_F_12.jpg,C_F_08.jpg,A_M_11.jpg,right,852.5099999969825,true,high,NA,NA,NA,NA,NA,NA,NA,false
FEohHxsa,3y3czjszan6hsnojzw5z9ps3vnar5b,39owyr0epo4ke5roa5f4sh84awqfy3,FEohHxsa,2020-0188,2020-06-04,10:38:47,11:02:00,NA,incomplete,235,race,3,1,right,A_M_14.jpg,C_M_09.jpg,A_F_04.jpg,right,838.649999932386,true,high,NA,NA,NA,NA,NA,NA,NA,false
FEohHxsa,3y3czjszan6hsnojzw5z9ps3vnar5b,39owyr0epo4ke5roa5f4sh84awqfy3,FEohHxsa,2020-0188,2020-06-04,10:38:47,11:02:00,NA,incomplete,236,race,3,1,right,C_M_15.jpg,A_M_09.jpg,C_F_08.jpg,right,1130.8800000697374,true,high,NA,NA,NA,NA,NA,NA,NA,false
FEohHxsa,3y3czjszan6hsnojzw5z9ps3vnar5b,39owyr0epo4ke5roa5f4sh84awqfy3,FEohHxsa,2020-0188,2020-06-04,10:38:47,11:02:00,NA,incomplete,237,race,3,1,left,A_F_10.jpg,A_M_14.jpg,C_F_16.jpg,left,939.3149999668822,true,high,NA,NA,NA,NA,NA,NA,NA,false
FEohHxsa,3y3czjszan6hsnojzw5z9ps3vnar5b,39owyr0epo4ke5roa5f4sh84awqfy3,FEohHxsa,2020-0188,2020-06-04,10:38:47,11:02:00,NA,incomplete,238,race,3,0,right,A_F_01.jpg,C_F_08.jpg,A_M_14.jpg,right,1127.6749999960884,true,high,NA,NA,NA,NA,NA,NA,NA,false
FEohHxsa,3y3czjszan6hsnojzw5z9ps3vnar5b,39owyr0epo4ke5roa5f4sh84awqfy3,FEohHxsa,2020-0188,2020-06-04,10:38:47,11:02:00,NA,incomplete,239,race,3,1,right,C_M_03.jpg,A_M_11.jpg,C_F_10.jpg,right,1102.8399999486282,true,high,NA,NA,NA,NA,NA,NA,NA,false
FEohHxsa,3y3czjszan6hsnojzw5z9ps3vnar5b,39owyr0epo4ke5roa5f4sh84awqfy3,FEohHxsa,2020-0188,2020-06-04,10:38:47,11:02:00,NA,NA,instruction example,shape,NA,NA,NA,Green_Plus_Chess_2.jpg,Red_Plus_Stripes_4.jpg,Blue_Star_Chess_1.jpg,NA,NA,NA,NA,NA,NA,NA,NA,NA,NA,NA,undefined
FEohHxsa,3y3czjszan6hsnojzw5z9ps3vnar5b,39owyr0epo4ke5roa5f4sh84awqfy3,FEohHxsa,2020-0188,2020-06-04,10:38:47,11:02:00,NA,NA,instruction example,shape,NA,NA,NA,Blue_Plus_Dots_2.jpg,Green_Star_Dots_4.jpg,Purple_Plus_Stripes_1.jpg,NA,NA,NA,NA,NA,NA,NA,NA,NA,NA,NA,undefined
FEohHxsa,3y3czjszan6hsnojzw5z9ps3vnar5b,39owyr0epo4ke5roa5f4sh84awqfy3,FEohHxsa,2020-0188,2020-06-04,10:38:47,11:02:00,NA,NA,instruction example,shape,NA,NA,NA,C_M_07.jpg,A_M_08.jpg,C_F_12.jpg,NA,NA,NA,NA,NA,NA,NA,NA,NA,NA,NA,undefined
FEohHxsa,3y3czjszan6hsnojzw5z9ps3vnar5b,39owyr0epo4ke5roa5f4sh84awqfy3,FEohHxsa,2020-0188,2020-06-04,10:38:47,11:02:00,NA,NA,instruction example,shape,NA,NA,NA,C_F_03.jpg,C_M_07.jpg,A_F_13.jpg,NA,NA,NA,NA,NA,NA,NA,NA,NA,NA,NA,undefined
FEohHxsa,3y3czjszan6hsnojzw5z9ps3vnar5b,39owyr0epo4ke5roa5f4sh84awqfy3,FEohHxsa,2020-0188,2020-06-04,10:38:47,11:02:00,1335666.7250000173,1395363.1900000619,NA,NA,NA,NA,NA,NA,NA,NA,NA,NA,NA,NA,50,White/Caucasian,Male,not latino,no,no,no,undefined
