workerId,hitId,assignmentId,subject,studyid,exp_date,exp_start,exp_end,time_start,time_end,trial,type,sequence,reward_validity,answer,image_top,image_left,image_right,response,response_time,response_acc,volatility,age,race,gender,ethnicity,color,vision,neuro,practice
3jKaBjw3,3ni0wfppjctpbx4ya2wphz5gism608,39owyr0epo4ke5roa5f4sh84awvyfr,3jKaBjw3,2020-0188,2020-06-04,11:59:01,13:00:36,NA,incomplete,0,number,0,1,right,Blue_Plus_Grid_4.jpg,Green_Plus_Chess_1.jpg,Red_Star_Stripes_4.jpg,right,1258.7050000000745,true,NA,NA,NA,NA,NA,NA,NA,NA,true
3jKaBjw3,3ni0wfppjctpbx4ya2wphz5gism608,39owyr0epo4ke5roa5f4sh84awvyfr,3jKaBjw3,2020-0188,2020-06-04,11:59:01,13:00:36,NA,incomplete,1,number,0,1,right,Blue_Triangle_Grid_2.jpg,Red_Triangle_Stripes_1.jpg,Purple_Plus_Dots_2.jpg,right,872.370000012219,true,NA,NA,NA,NA,NA,NA,NA,NA,true
3jKaBjw3,3ni0wfppjctpbx4ya2wphz5gism608,39owyr0epo4ke5roa5f4sh84awvyfr,3jKaBjw3,2020-0188,2020-06-04,11:59:01,13:00:36,NA,incomplete,2,number,0,0,left,Green_Plus_Grid_3.jpg,Purple_Circle_Stripes_3.jpg,Red_Plus_Chess_4.jpg,left,961.6200000019744,true,NA,NA,NA,NA,NA,NA,NA,NA,true
3jKaBjw3,3ni0wfppjctpbx4ya2wphz5gism608,39owyr0epo4ke5roa5f4sh84awvyfr,3jKaBjw3,2020-0188,2020-06-04,11:59:01,13:00:36,NA,incomplete,3,number,0,1,left,Red_Plus_Chess_4.jpg,Blue_Star_Stripes_4.jpg,Purple_Plus_Grid_2.jpg,left,969.8199999984354,true,NA,NA,NA,NA,NA,NA,NA,NA,true
3jKaBjw3,3ni0wfppjctpbx4ya2wphz5gism608,39owyr0epo4ke5roa5f4sh84awvyfr,3jKaBjw3,2020-0188,2020-06-04,11:59:01,13:00:36,NA,incomplete,4,number,0,1,left,Purple_Plus_Chess_3.jpg,Green_Star_Stripes_3.jpg,Blue_Plus_Dots_1.jpg,left,1043.625000005588,true,NA,NA,NA,NA,NA,NA,NA,NA,true
3jKaBjw3,3ni0wfppjctpbx4ya2wphz5gism608,39owyr0epo4ke5roa5f4sh84awvyfr,3jKaBjw3,2020-0188,2020-06-04,11:59:01,13:00:36,NA,incomplete,5,number,0,1,right,Blue_Triangle_Dots_3.jpg,Purple_Triangle_Chess_1.jpg,Green_Circle_Stripes_3.jpg,right,890.0549999964423,true,NA,NA,NA,NA,NA,NA,NA,NA,true
3jKaBjw3,3ni0wfppjctpbx4ya2wphz5gism608,39owyr0epo4ke5roa5f4sh84awvyfr,3jKaBjw3,2020-0188,2020-06-04,11:59:01,13:00:36,NA,incomplete,6,number,0,1,right,Blue_Plus_Dots_1.jpg,Green_Plus_Stripes_4.jpg,Purple_Star_Grid_1.jpg,right,648.0899999877438,true,NA,NA,NA,NA,NA,NA,NA,NA,true
3jKaBjw3,3ni0wfppjctpbx4ya2wphz5gism608,39owyr0epo4ke5roa5f4sh84awvyfr,3jKaBjw3,2020-0188,2020-06-04,11:59:01,13:00:36,NA,incomplete,7,number,0,1,right,Purple_Plus_Stripes_1.jpg,Green_Plus_Grid_4.jpg,Blue_Triangle_Dots_1.jpg,right,645.4399999929592,true,NA,NA,NA,NA,NA,NA,NA,NA,true
3jKaBjw3,3ni0wfppjctpbx4ya2wphz5gism608,39owyr0epo4ke5roa5f4sh84awvyfr,3jKaBjw3,2020-0188,2020-06-04,11:59:01,13:00:36,NA,incomplete,8,number,0,1,left,Green_Circle_Dots_1.jpg,Blue_Star_Grid_1.jpg,Purple_Circle_Chess_4.jpg,left,602.2149999919347,true,NA,NA,NA,NA,NA,NA,NA,NA,true
3jKaBjw3,3ni0wfppjctpbx4ya2wphz5gism608,39owyr0epo4ke5roa5f4sh84awvyfr,3jKaBjw3,2020-0188,2020-06-04,11:59:01,13:00:36,NA,incomplete,9,number,0,1,left,Purple_Plus_Stripes_1.jpg,Green_Star_Grid_1.jpg,Red_Plus_Dots_4.jpg,left,559.7150000100955,true,NA,NA,NA,NA,NA,NA,NA,NA,true
3jKaBjw3,3ni0wfppjctpbx4ya2wphz5gism608,39owyr0epo4ke5roa5f4sh84awvyfr,3jKaBjw3,2020-0188,2020-06-04,11:59:01,13:00:36,NA,incomplete,10,number,0,1,left,Green_Star_Dots_3.jpg,Purple_Triangle_Grid_3.jpg,Blue_Star_Stripes_4.jpg,left,692.2199999974109,true,NA,NA,NA,NA,NA,NA,NA,NA,true
3jKaBjw3,3ni0wfppjctpbx4ya2wphz5gism608,39owyr0epo4ke5roa5f4sh84awvyfr,3jKaBjw3,2020-0188,2020-06-04,11:59:01,13:00:36,NA,incomplete,11,number,0,1,left,Purple_Triangle_Stripes_2.jpg,Red_Circle_Dots_2.jpg,Green_Triangle_Grid_4.jpg,left,744.1300000064075,true,NA,NA,NA,NA,NA,NA,NA,NA,true
3jKaBjw3,3ni0wfppjctpbx4ya2wphz5gism608,39owyr0epo4ke5roa5f4sh84awvyfr,3jKaBjw3,2020-0188,2020-06-04,11:59:01,13:00:36,NA,incomplete,12,number,0,1,left,Red_Plus_Dots_2.jpg,Purple_Star_Stripes_2.jpg,Green_Plus_Grid_1.jpg,left,688.5550000006333,true,NA,NA,NA,NA,NA,NA,NA,NA,true
3jKaBjw3,3ni0wfppjctpbx4ya2wphz5gism608,39owyr0epo4ke5roa5f4sh84awvyfr,3jKaBjw3,2020-0188,2020-06-04,11:59:01,13:00:36,NA,incomplete,13,number,0,0,right,Red_Star_Dots_2.jpg,Blue_Star_Stripes_4.jpg,Purple_Triangle_Chess_2.jpg,right,572.8600000003353,true,NA,NA,NA,NA,NA,NA,NA,NA,true
3jKaBjw3,3ni0wfppjctpbx4ya2wphz5gism608,39owyr0epo4ke5roa5f4sh84awvyfr,3jKaBjw3,2020-0188,2020-06-04,11:59:01,13:00:36,NA,incomplete,14,number,0,0,left,Green_Triangle_Dots_4.jpg,Purple_Circle_Stripes_4.jpg,Red_Triangle_Grid_1.jpg,left,885.5949999997392,true,NA,NA,NA,NA,NA,NA,NA,NA,true
3jKaBjw3,3ni0wfppjctpbx4ya2wphz5gism608,39owyr0epo4ke5roa5f4sh84awvyfr,3jKaBjw3,2020-0188,2020-06-04,11:59:01,13:00:36,NA,incomplete,15,number,0,1,right,Blue_Plus_Dots_1.jpg,Green_Plus_Grid_3.jpg,Purple_Triangle_Chess_1.jpg,right,689.1650000032969,true,NA,NA,NA,NA,NA,NA,NA,NA,true
3jKaBjw3,3ni0wfppjctpbx4ya2wphz5gism608,39owyr0epo4ke5roa5f4sh84awvyfr,3jKaBjw3,2020-0188,2020-06-04,11:59:01,13:00:36,NA,incomplete,16,number,0,1,left,Red_Plus_Dots_4.jpg,Purple_Star_Stripes_4.jpg,Green_Plus_Chess_3.jpg,left,908.9700000039302,true,NA,NA,NA,NA,NA,NA,NA,NA,true
3jKaBjw3,3ni0wfppjctpbx4ya2wphz5gism608,39owyr0epo4ke5roa5f4sh84awvyfr,3jKaBjw3,2020-0188,2020-06-04,11:59:01,13:00:36,NA,incomplete,17,number,0,0,left,Red_Triangle_Stripes_3.jpg,Green_Circle_Dots_3.jpg,Purple_Triangle_Chess_4.jpg,left,744.8100000037812,true,NA,NA,NA,NA,NA,NA,NA,NA,true
3jKaBjw3,3ni0wfppjctpbx4ya2wphz5gism608,39owyr0epo4ke5roa5f4sh84awvyfr,3jKaBjw3,2020-0188,2020-06-04,11:59:01,13:00:36,NA,incomplete,18,number,0,0,left,Red_Triangle_Chess_2.jpg,Blue_Circle_Grid_2.jpg,Purple_Triangle_Dots_3.jpg,right,871.9899999997579,false,NA,NA,NA,NA,NA,NA,NA,NA,true
3jKaBjw3,3ni0wfppjctpbx4ya2wphz5gism608,39owyr0epo4ke5roa5f4sh84awvyfr,3jKaBjw3,2020-0188,2020-06-04,11:59:01,13:00:36,NA,incomplete,19,number,0,1,left,Purple_Triangle_Chess_2.jpg,Red_Circle_Grid_2.jpg,Green_Triangle_Stripes_1.jpg,right,720.8350000004284,false,NA,NA,NA,NA,NA,NA,NA,NA,true
3jKaBjw3,3ni0wfppjctpbx4ya2wphz5gism608,39owyr0epo4ke5roa5f4sh84awvyfr,3jKaBjw3,2020-0188,2020-06-04,11:59:01,13:00:36,NA,incomplete,20,shape,1,0,left,Red_Triangle_Stripes_1.jpg,Purple_Triangle_Chess_2.jpg,Blue_Star_Dots_1.jpg,right,796.535000001546,false,NA,NA,NA,NA,NA,NA,NA,NA,true
3jKaBjw3,3ni0wfppjctpbx4ya2wphz5gism608,39owyr0epo4ke5roa5f4sh84awvyfr,3jKaBjw3,2020-0188,2020-06-04,11:59:01,13:00:36,NA,incomplete,21,shape,1,1,left,Blue_Triangle_Grid_3.jpg,Green_Triangle_Chess_1.jpg,Red_Circle_Dots_3.jpg,right,879.0250000017695,false,NA,NA,NA,NA,NA,NA,NA,NA,true
3jKaBjw3,3ni0wfppjctpbx4ya2wphz5gism608,39owyr0epo4ke5roa5f4sh84awvyfr,3jKaBjw3,2020-0188,2020-06-04,11:59:01,13:00:36,NA,incomplete,22,shape,1,0,right,Green_Circle_Stripes_3.jpg,Red_Star_Grid_3.jpg,Blue_Circle_Dots_1.jpg,right,1133.4749999949709,true,NA,NA,NA,NA,NA,NA,NA,NA,true
3jKaBjw3,3ni0wfppjctpbx4ya2wphz5gism608,39owyr0epo4ke5roa5f4sh84awvyfr,3jKaBjw3,2020-0188,2020-06-04,11:59:01,13:00:36,NA,incomplete,23,shape,1,1,right,Red_Circle_Dots_4.jpg,Purple_Triangle_Stripes_4.jpg,Blue_Circle_Grid_2.jpg,right,1055.5999999926426,true,NA,NA,NA,NA,NA,NA,NA,NA,true
3jKaBjw3,3ni0wfppjctpbx4ya2wphz5gism608,39owyr0epo4ke5roa5f4sh84awvyfr,3jKaBjw3,2020-0188,2020-06-04,11:59:01,13:00:36,NA,incomplete,24,shape,1,1,left,Red_Circle_Stripes_3.jpg,Purple_Circle_Dots_4.jpg,Blue_Star_Chess_3.jpg,left,945.2400000006892,true,NA,NA,NA,NA,NA,NA,NA,NA,true
3jKaBjw3,3ni0wfppjctpbx4ya2wphz5gism608,39owyr0epo4ke5roa5f4sh84awvyfr,3jKaBjw3,2020-0188,2020-06-04,11:59:01,13:00:36,NA,incomplete,25,shape,1,1,right,Green_Plus_Grid_4.jpg,Red_Star_Dots_4.jpg,Purple_Plus_Stripes_1.jpg,right,1050.6299999980256,true,NA,NA,NA,NA,NA,NA,NA,NA,true
3jKaBjw3,3ni0wfppjctpbx4ya2wphz5gism608,39owyr0epo4ke5roa5f4sh84awvyfr,3jKaBjw3,2020-0188,2020-06-04,11:59:01,13:00:36,NA,incomplete,26,shape,1,1,right,Red_Triangle_Stripes_3.jpg,Green_Circle_Grid_3.jpg,Blue_Triangle_Chess_2.jpg,right,1201.3799999984913,true,NA,NA,NA,NA,NA,NA,NA,NA,true
3jKaBjw3,3ni0wfppjctpbx4ya2wphz5gism608,39owyr0epo4ke5roa5f4sh84awvyfr,3jKaBjw3,2020-0188,2020-06-04,11:59:01,13:00:36,NA,incomplete,27,shape,1,1,right,Blue_Star_Chess_2.jpg,Red_Circle_Dots_2.jpg,Green_Star_Stripes_4.jpg,right,1092.4399999929592,true,NA,NA,NA,NA,NA,NA,NA,NA,true
3jKaBjw3,3ni0wfppjctpbx4ya2wphz5gism608,39owyr0epo4ke5roa5f4sh84awvyfr,3jKaBjw3,2020-0188,2020-06-04,11:59:01,13:00:36,NA,incomplete,28,shape,1,0,left,Purple_Circle_Stripes_4.jpg,Green_Circle_Dots_1.jpg,Red_Star_Grid_4.jpg,left,1188.0099999979138,true,NA,NA,NA,NA,NA,NA,NA,NA,true
3jKaBjw3,3ni0wfppjctpbx4ya2wphz5gism608,39owyr0epo4ke5roa5f4sh84awvyfr,3jKaBjw3,2020-0188,2020-06-04,11:59:01,13:00:36,NA,incomplete,29,shape,1,1,right,Red_Triangle_Grid_3.jpg,Green_Plus_Chess_3.jpg,Purple_Triangle_Stripes_2.jpg,right,1054.2399999978952,true,NA,NA,NA,NA,NA,NA,NA,NA,true
3jKaBjw3,3ni0wfppjctpbx4ya2wphz5gism608,39owyr0epo4ke5roa5f4sh84awvyfr,3jKaBjw3,2020-0188,2020-06-04,11:59:01,13:00:36,NA,incomplete,30,shape,1,1,left,Red_Circle_Dots_3.jpg,Green_Circle_Grid_1.jpg,Blue_Plus_Chess_3.jpg,left,890.8150000059977,true,NA,NA,NA,NA,NA,NA,NA,NA,true
3jKaBjw3,3ni0wfppjctpbx4ya2wphz5gism608,39owyr0epo4ke5roa5f4sh84awvyfr,3jKaBjw3,2020-0188,2020-06-04,11:59:01,13:00:36,NA,incomplete,31,shape,1,1,right,Green_Star_Chess_2.jpg,Purple_Circle_Grid_2.jpg,Blue_Star_Stripes_1.jpg,right,1104.8200000077486,true,NA,NA,NA,NA,NA,NA,NA,NA,true
3jKaBjw3,3ni0wfppjctpbx4ya2wphz5gism608,39owyr0epo4ke5roa5f4sh84awvyfr,3jKaBjw3,2020-0188,2020-06-04,11:59:01,13:00:36,NA,incomplete,32,shape,1,1,left,Blue_Circle_Grid_4.jpg,Purple_Circle_Dots_2.jpg,Red_Plus_Chess_4.jpg,left,1049.855000004638,true,NA,NA,NA,NA,NA,NA,NA,NA,true
3jKaBjw3,3ni0wfppjctpbx4ya2wphz5gism608,39owyr0epo4ke5roa5f4sh84awvyfr,3jKaBjw3,2020-0188,2020-06-04,11:59:01,13:00:36,NA,incomplete,33,shape,1,1,left,Green_Star_Dots_1.jpg,Purple_Star_Chess_4.jpg,Blue_Circle_Grid_1.jpg,left,1384.1949999909848,true,NA,NA,NA,NA,NA,NA,NA,NA,true
3jKaBjw3,3ni0wfppjctpbx4ya2wphz5gism608,39owyr0epo4ke5roa5f4sh84awvyfr,3jKaBjw3,2020-0188,2020-06-04,11:59:01,13:00:36,NA,incomplete,34,shape,1,1,left,Green_Triangle_Chess_1.jpg,Blue_Triangle_Dots_4.jpg,Red_Star_Grid_1.jpg,left,1328.780000010971,true,NA,NA,NA,NA,NA,NA,NA,NA,true
3jKaBjw3,3ni0wfppjctpbx4ya2wphz5gism608,39owyr0epo4ke5roa5f4sh84awvyfr,3jKaBjw3,2020-0188,2020-06-04,11:59:01,13:00:36,NA,incomplete,35,shape,1,1,left,Red_Triangle_Grid_1.jpg,Purple_Triangle_Dots_3.jpg,Blue_Circle_Stripes_1.jpg,left,1019.9299999950454,true,NA,NA,NA,NA,NA,NA,NA,NA,true
3jKaBjw3,3ni0wfppjctpbx4ya2wphz5gism608,39owyr0epo4ke5roa5f4sh84awvyfr,3jKaBjw3,2020-0188,2020-06-04,11:59:01,13:00:36,NA,incomplete,36,shape,1,1,right,Green_Triangle_Chess_2.jpg,Purple_Plus_Dots_2.jpg,Red_Triangle_Grid_4.jpg,right,907.3100000093691,true,NA,NA,NA,NA,NA,NA,NA,NA,true
3jKaBjw3,3ni0wfppjctpbx4ya2wphz5gism608,39owyr0epo4ke5roa5f4sh84awvyfr,3jKaBjw3,2020-0188,2020-06-04,11:59:01,13:00:36,NA,incomplete,37,shape,1,1,right,Green_Circle_Grid_3.jpg,Red_Plus_Dots_3.jpg,Blue_Circle_Stripes_1.jpg,right,916.800000006333,true,NA,NA,NA,NA,NA,NA,NA,NA,true
3jKaBjw3,3ni0wfppjctpbx4ya2wphz5gism608,39owyr0epo4ke5roa5f4sh84awvyfr,3jKaBjw3,2020-0188,2020-06-04,11:59:01,13:00:36,NA,incomplete,38,shape,1,1,right,Purple_Star_Chess_2.jpg,Green_Plus_Dots_2.jpg,Red_Star_Stripes_3.jpg,right,1037.3499999986961,true,NA,NA,NA,NA,NA,NA,NA,NA,true
3jKaBjw3,3ni0wfppjctpbx4ya2wphz5gism608,39owyr0epo4ke5roa5f4sh84awvyfr,3jKaBjw3,2020-0188,2020-06-04,11:59:01,13:00:36,NA,incomplete,39,shape,1,1,left,Red_Triangle_Grid_2.jpg,Purple_Triangle_Stripes_1.jpg,Blue_Star_Dots_2.jpg,left,974.1899999934249,true,NA,NA,NA,NA,NA,NA,NA,NA,true
3jKaBjw3,3ni0wfppjctpbx4ya2wphz5gism608,39owyr0epo4ke5roa5f4sh84awvyfr,3jKaBjw3,2020-0188,2020-06-04,11:59:01,13:00:36,NA,incomplete,0,number,0,1,right,Blue_Plus_Stripes_3.jpg,Green_Plus_Chess_4.jpg,Red_Triangle_Dots_3.jpg,left,1125.6949999956414,false,low,NA,NA,NA,NA,NA,NA,NA,false
3jKaBjw3,3ni0wfppjctpbx4ya2wphz5gism608,39owyr0epo4ke5roa5f4sh84awvyfr,3jKaBjw3,2020-0188,2020-06-04,11:59:01,13:00:36,NA,incomplete,1,number,0,1,left,Green_Star_Dots_3.jpg,Purple_Circle_Chess_3.jpg,Blue_Star_Stripes_4.jpg,right,861.7549999910407,false,low,NA,NA,NA,NA,NA,NA,NA,false
3jKaBjw3,3ni0wfppjctpbx4ya2wphz5gism608,39owyr0epo4ke5roa5f4sh84awvyfr,3jKaBjw3,2020-0188,2020-06-04,11:59:01,13:00:36,NA,incomplete,2,number,0,1,right,Blue_Plus_Dots_4.jpg,Green_Plus_Grid_3.jpg,Red_Triangle_Stripes_4.jpg,right,1116.3550000055693,true,low,NA,NA,NA,NA,NA,NA,NA,false
3jKaBjw3,3ni0wfppjctpbx4ya2wphz5gism608,39owyr0epo4ke5roa5f4sh84awvyfr,3jKaBjw3,2020-0188,2020-06-04,11:59:01,13:00:36,NA,incomplete,3,number,0,1,right,Purple_Circle_Stripes_3.jpg,Green_Circle_Grid_1.jpg,Red_Star_Chess_3.jpg,left,999.8899999917485,false,low,NA,NA,NA,NA,NA,NA,NA,false
3jKaBjw3,3ni0wfppjctpbx4ya2wphz5gism608,39owyr0epo4ke5roa5f4sh84awvyfr,3jKaBjw3,2020-0188,2020-06-04,11:59:01,13:00:36,NA,incomplete,4,number,0,1,right,Blue_Plus_Stripes_1.jpg,Green_Plus_Chess_4.jpg,Red_Star_Grid_1.jpg,left,919.3899999954738,false,low,NA,NA,NA,NA,NA,NA,NA,false
3jKaBjw3,3ni0wfppjctpbx4ya2wphz5gism608,39owyr0epo4ke5roa5f4sh84awvyfr,3jKaBjw3,2020-0188,2020-06-04,11:59:01,13:00:36,NA,incomplete,5,number,0,1,left,Red_Plus_Grid_4.jpg,Blue_Triangle_Stripes_4.jpg,Purple_Plus_Chess_2.jpg,right,1031.4750000103377,false,low,NA,NA,NA,NA,NA,NA,NA,false
3jKaBjw3,3ni0wfppjctpbx4ya2wphz5gism608,39owyr0epo4ke5roa5f4sh84awvyfr,3jKaBjw3,2020-0188,2020-06-04,11:59:01,13:00:36,NA,incomplete,6,number,0,1,right,Red_Star_Dots_1.jpg,Blue_Star_Chess_2.jpg,Purple_Triangle_Grid_1.jpg,left,1176.5300000119023,false,low,NA,NA,NA,NA,NA,NA,NA,false
3jKaBjw3,3ni0wfppjctpbx4ya2wphz5gism608,39owyr0epo4ke5roa5f4sh84awvyfr,3jKaBjw3,2020-0188,2020-06-04,11:59:01,13:00:36,NA,incomplete,7,number,0,0,right,Purple_Star_Dots_2.jpg,Red_Star_Chess_1.jpg,Green_Triangle_Stripes_2.jpg,left,1059.7700000070035,false,low,NA,NA,NA,NA,NA,NA,NA,false
3jKaBjw3,3ni0wfppjctpbx4ya2wphz5gism608,39owyr0epo4ke5roa5f4sh84awvyfr,3jKaBjw3,2020-0188,2020-06-04,11:59:01,13:00:36,NA,incomplete,8,number,0,1,right,Purple_Star_Grid_3.jpg,Blue_Star_Dots_2.jpg,Red_Plus_Chess_3.jpg,left,868.7949999878183,false,low,NA,NA,NA,NA,NA,NA,NA,false
3jKaBjw3,3ni0wfppjctpbx4ya2wphz5gism608,39owyr0epo4ke5roa5f4sh84awvyfr,3jKaBjw3,2020-0188,2020-06-04,11:59:01,13:00:36,NA,incomplete,9,number,0,1,left,Green_Triangle_Chess_1.jpg,Blue_Circle_Dots_1.jpg,Purple_Triangle_Grid_3.jpg,right,810.8800000045449,false,low,NA,NA,NA,NA,NA,NA,NA,false
3jKaBjw3,3ni0wfppjctpbx4ya2wphz5gism608,39owyr0epo4ke5roa5f4sh84awvyfr,3jKaBjw3,2020-0188,2020-06-04,11:59:01,13:00:36,NA,incomplete,10,number,0,1,right,Blue_Plus_Dots_2.jpg,Green_Plus_Chess_4.jpg,Purple_Star_Stripes_2.jpg,left,1100.3100000089034,false,low,NA,NA,NA,NA,NA,NA,NA,false
3jKaBjw3,3ni0wfppjctpbx4ya2wphz5gism608,39owyr0epo4ke5roa5f4sh84awvyfr,3jKaBjw3,2020-0188,2020-06-04,11:59:01,13:00:36,NA,incomplete,11,number,0,0,right,Green_Star_Chess_4.jpg,Blue_Star_Grid_2.jpg,Purple_Triangle_Dots_4.jpg,left,839.659999997355,false,low,NA,NA,NA,NA,NA,NA,NA,false
3jKaBjw3,3ni0wfppjctpbx4ya2wphz5gism608,39owyr0epo4ke5roa5f4sh84awvyfr,3jKaBjw3,2020-0188,2020-06-04,11:59:01,13:00:36,NA,incomplete,12,number,0,0,right,Green_Triangle_Grid_4.jpg,Blue_Triangle_Stripes_3.jpg,Red_Circle_Chess_4.jpg,right,796.135000011418,true,low,NA,NA,NA,NA,NA,NA,NA,false
3jKaBjw3,3ni0wfppjctpbx4ya2wphz5gism608,39owyr0epo4ke5roa5f4sh84awvyfr,3jKaBjw3,2020-0188,2020-06-04,11:59:01,13:00:36,NA,incomplete,13,number,0,1,left,Purple_Circle_Grid_2.jpg,Green_Triangle_Dots_2.jpg,Blue_Circle_Stripes_3.jpg,right,758.2099999999627,false,low,NA,NA,NA,NA,NA,NA,NA,false
3jKaBjw3,3ni0wfppjctpbx4ya2wphz5gism608,39owyr0epo4ke5roa5f4sh84awvyfr,3jKaBjw3,2020-0188,2020-06-04,11:59:01,13:00:36,NA,incomplete,14,number,0,1,left,Purple_Plus_Dots_4.jpg,Red_Circle_Grid_4.jpg,Blue_Plus_Stripes_3.jpg,right,905.3150000106543,false,low,NA,NA,NA,NA,NA,NA,NA,false
3jKaBjw3,3ni0wfppjctpbx4ya2wphz5gism608,39owyr0epo4ke5roa5f4sh84awvyfr,3jKaBjw3,2020-0188,2020-06-04,11:59:01,13:00:36,NA,incomplete,15,number,0,1,left,Green_Triangle_Chess_3.jpg,Purple_Circle_Dots_3.jpg,Blue_Triangle_Grid_2.jpg,right,776.8900000085123,false,low,NA,NA,NA,NA,NA,NA,NA,false
3jKaBjw3,3ni0wfppjctpbx4ya2wphz5gism608,39owyr0epo4ke5roa5f4sh84awvyfr,3jKaBjw3,2020-0188,2020-06-04,11:59:01,13:00:36,NA,incomplete,16,number,0,1,right,Purple_Star_Grid_1.jpg,Red_Star_Stripes_2.jpg,Green_Plus_Chess_1.jpg,left,612.64500000095,false,low,NA,NA,NA,NA,NA,NA,NA,false
3jKaBjw3,3ni0wfppjctpbx4ya2wphz5gism608,39owyr0epo4ke5roa5f4sh84awvyfr,3jKaBjw3,2020-0188,2020-06-04,11:59:01,13:00:36,NA,incomplete,17,number,0,0,left,Blue_Triangle_Grid_2.jpg,Red_Plus_Chess_2.jpg,Purple_Triangle_Dots_3.jpg,left,791.6249999981374,true,low,NA,NA,NA,NA,NA,NA,NA,false
3jKaBjw3,3ni0wfppjctpbx4ya2wphz5gism608,39owyr0epo4ke5roa5f4sh84awvyfr,3jKaBjw3,2020-0188,2020-06-04,11:59:01,13:00:36,NA,incomplete,18,number,0,1,left,Blue_Circle_Stripes_1.jpg,Red_Star_Grid_1.jpg,Green_Circle_Dots_4.jpg,right,744.7499999981374,false,low,NA,NA,NA,NA,NA,NA,NA,false
3jKaBjw3,3ni0wfppjctpbx4ya2wphz5gism608,39owyr0epo4ke5roa5f4sh84awvyfr,3jKaBjw3,2020-0188,2020-06-04,11:59:01,13:00:36,NA,incomplete,19,number,0,1,right,Blue_Triangle_Grid_3.jpg,Purple_Triangle_Chess_1.jpg,Green_Star_Dots_3.jpg,left,936.0149999996647,false,low,NA,NA,NA,NA,NA,NA,NA,false
3jKaBjw3,3ni0wfppjctpbx4ya2wphz5gism608,39owyr0epo4ke5roa5f4sh84awvyfr,3jKaBjw3,2020-0188,2020-06-04,11:59:01,13:00:36,NA,incomplete,20,number,0,1,right,Purple_Plus_Grid_3.jpg,Green_Plus_Chess_2.jpg,Blue_Circle_Stripes_3.jpg,left,919.1200000061654,false,low,NA,NA,NA,NA,NA,NA,NA,false
3jKaBjw3,3ni0wfppjctpbx4ya2wphz5gism608,39owyr0epo4ke5roa5f4sh84awvyfr,3jKaBjw3,2020-0188,2020-06-04,11:59:01,13:00:36,NA,incomplete,21,number,0,1,right,Purple_Star_Stripes_3.jpg,Green_Star_Chess_4.jpg,Red_Triangle_Dots_3.jpg,right,671.965000001248,true,low,NA,NA,NA,NA,NA,NA,NA,false
3jKaBjw3,3ni0wfppjctpbx4ya2wphz5gism608,39owyr0epo4ke5roa5f4sh84awvyfr,3jKaBjw3,2020-0188,2020-06-04,11:59:01,13:00:36,NA,incomplete,22,number,0,1,left,Purple_Star_Grid_2.jpg,Red_Plus_Chess_2.jpg,Blue_Star_Dots_1.jpg,left,655.3750000023283,true,low,NA,NA,NA,NA,NA,NA,NA,false
3jKaBjw3,3ni0wfppjctpbx4ya2wphz5gism608,39owyr0epo4ke5roa5f4sh84awvyfr,3jKaBjw3,2020-0188,2020-06-04,11:59:01,13:00:36,NA,incomplete,23,number,0,0,left,Green_Circle_Chess_1.jpg,Purple_Plus_Dots_1.jpg,Red_Circle_Stripes_2.jpg,left,717.7450000015087,true,low,NA,NA,NA,NA,NA,NA,NA,false
3jKaBjw3,3ni0wfppjctpbx4ya2wphz5gism608,39owyr0epo4ke5roa5f4sh84awvyfr,3jKaBjw3,2020-0188,2020-06-04,11:59:01,13:00:36,NA,incomplete,24,number,0,0,left,Red_Plus_Dots_4.jpg,Green_Triangle_Grid_4.jpg,Blue_Plus_Chess_2.jpg,right,866.9300000038929,false,low,NA,NA,NA,NA,NA,NA,NA,false
3jKaBjw3,3ni0wfppjctpbx4ya2wphz5gism608,39owyr0epo4ke5roa5f4sh84awvyfr,3jKaBjw3,2020-0188,2020-06-04,11:59:01,13:00:36,NA,incomplete,25,number,0,1,right,Blue_Triangle_Dots_3.jpg,Red_Triangle_Grid_4.jpg,Purple_Star_Stripes_3.jpg,right,874.1200000075623,true,low,NA,NA,NA,NA,NA,NA,NA,false
3jKaBjw3,3ni0wfppjctpbx4ya2wphz5gism608,39owyr0epo4ke5roa5f4sh84awvyfr,3jKaBjw3,2020-0188,2020-06-04,11:59:01,13:00:36,NA,incomplete,26,number,0,0,right,Red_Circle_Dots_2.jpg,Green_Circle_Grid_1.jpg,Purple_Plus_Chess_2.jpg,right,1018.570000000298,true,low,NA,NA,NA,NA,NA,NA,NA,false
3jKaBjw3,3ni0wfppjctpbx4ya2wphz5gism608,39owyr0epo4ke5roa5f4sh84awvyfr,3jKaBjw3,2020-0188,2020-06-04,11:59:01,13:00:36,NA,incomplete,27,number,0,1,left,Green_Circle_Grid_1.jpg,Blue_Plus_Dots_1.jpg,Red_Circle_Stripes_3.jpg,left,1123.0550000034273,true,low,NA,NA,NA,NA,NA,NA,NA,false
3jKaBjw3,3ni0wfppjctpbx4ya2wphz5gism608,39owyr0epo4ke5roa5f4sh84awvyfr,3jKaBjw3,2020-0188,2020-06-04,11:59:01,13:00:36,NA,incomplete,28,number,0,0,right,Purple_Triangle_Grid_4.jpg,Red_Triangle_Chess_1.jpg,Green_Plus_Stripes_4.jpg,left,1002.4899999988265,false,low,NA,NA,NA,NA,NA,NA,NA,false
3jKaBjw3,3ni0wfppjctpbx4ya2wphz5gism608,39owyr0epo4ke5roa5f4sh84awvyfr,3jKaBjw3,2020-0188,2020-06-04,11:59:01,13:00:36,NA,incomplete,29,number,0,1,right,Purple_Triangle_Grid_2.jpg,Green_Triangle_Chess_4.jpg,Red_Circle_Stripes_2.jpg,left,957.7449999921955,false,low,NA,NA,NA,NA,NA,NA,NA,false
3jKaBjw3,3ni0wfppjctpbx4ya2wphz5gism608,39owyr0epo4ke5roa5f4sh84awvyfr,3jKaBjw3,2020-0188,2020-06-04,11:59:01,13:00:36,NA,incomplete,30,shape,1,0,right,Green_Circle_Chess_4.jpg,Purple_Star_Stripes_4.jpg,Red_Circle_Grid_3.jpg,right,1119.5299999960698,true,low,NA,NA,NA,NA,NA,NA,NA,false
3jKaBjw3,3ni0wfppjctpbx4ya2wphz5gism608,39owyr0epo4ke5roa5f4sh84awvyfr,3jKaBjw3,2020-0188,2020-06-04,11:59:01,13:00:36,NA,incomplete,31,shape,1,1,right,Green_Plus_Dots_4.jpg,Blue_Star_Stripes_4.jpg,Purple_Plus_Grid_1.jpg,left,1155.4099999922328,false,low,NA,NA,NA,NA,NA,NA,NA,false
3jKaBjw3,3ni0wfppjctpbx4ya2wphz5gism608,39owyr0epo4ke5roa5f4sh84awvyfr,3jKaBjw3,2020-0188,2020-06-04,11:59:01,13:00:36,NA,incomplete,32,shape,1,1,left,Red_Circle_Chess_3.jpg,Blue_Circle_Stripes_1.jpg,Green_Plus_Dots_3.jpg,left,1068.3400000124238,true,low,NA,NA,NA,NA,NA,NA,NA,false
3jKaBjw3,3ni0wfppjctpbx4ya2wphz5gism608,39owyr0epo4ke5roa5f4sh84awvyfr,3jKaBjw3,2020-0188,2020-06-04,11:59:01,13:00:36,NA,incomplete,33,shape,1,1,left,Blue_Star_Chess_3.jpg,Purple_Star_Stripes_2.jpg,Green_Triangle_Dots_3.jpg,left,894.565000009723,true,low,NA,NA,NA,NA,NA,NA,NA,false
3jKaBjw3,3ni0wfppjctpbx4ya2wphz5gism608,39owyr0epo4ke5roa5f4sh84awvyfr,3jKaBjw3,2020-0188,2020-06-04,11:59:01,13:00:36,NA,incomplete,34,shape,1,1,left,Purple_Circle_Stripes_3.jpg,Green_Circle_Dots_2.jpg,Blue_Plus_Chess_3.jpg,left,1096.390000006184,true,low,NA,NA,NA,NA,NA,NA,NA,false
3jKaBjw3,3ni0wfppjctpbx4ya2wphz5gism608,39owyr0epo4ke5roa5f4sh84awvyfr,3jKaBjw3,2020-0188,2020-06-04,11:59:01,13:00:36,NA,incomplete,35,shape,1,1,right,Blue_Circle_Dots_2.jpg,Red_Triangle_Grid_2.jpg,Purple_Circle_Stripes_4.jpg,left,1269.7150000021793,false,low,NA,NA,NA,NA,NA,NA,NA,false
3jKaBjw3,3ni0wfppjctpbx4ya2wphz5gism608,39owyr0epo4ke5roa5f4sh84awvyfr,3jKaBjw3,2020-0188,2020-06-04,11:59:01,13:00:36,NA,incomplete,36,shape,1,1,left,Green_Star_Dots_1.jpg,Purple_Star_Stripes_3.jpg,Blue_Triangle_Grid_1.jpg,left,1031.5100000007078,true,low,NA,NA,NA,NA,NA,NA,NA,false
3jKaBjw3,3ni0wfppjctpbx4ya2wphz5gism608,39owyr0epo4ke5roa5f4sh84awvyfr,3jKaBjw3,2020-0188,2020-06-04,11:59:01,13:00:36,NA,incomplete,37,shape,1,1,left,Green_Triangle_Dots_3.jpg,Purple_Triangle_Chess_2.jpg,Red_Plus_Stripes_3.jpg,left,1002.78500000434,true,low,NA,NA,NA,NA,NA,NA,NA,false
3jKaBjw3,3ni0wfppjctpbx4ya2wphz5gism608,39owyr0epo4ke5roa5f4sh84awvyfr,3jKaBjw3,2020-0188,2020-06-04,11:59:01,13:00:36,NA,incomplete,38,shape,1,1,right,Blue_Circle_Dots_4.jpg,Green_Plus_Stripes_4.jpg,Red_Circle_Grid_2.jpg,right,977.7150000007823,true,low,NA,NA,NA,NA,NA,NA,NA,false
3jKaBjw3,3ni0wfppjctpbx4ya2wphz5gism608,39owyr0epo4ke5roa5f4sh84awvyfr,3jKaBjw3,2020-0188,2020-06-04,11:59:01,13:00:36,NA,incomplete,39,shape,1,1,left,Green_Star_Stripes_4.jpg,Blue_Star_Grid_2.jpg,Red_Circle_Dots_4.jpg,left,959.1800000052899,true,low,NA,NA,NA,NA,NA,NA,NA,false
3jKaBjw3,3ni0wfppjctpbx4ya2wphz5gism608,39owyr0epo4ke5roa5f4sh84awvyfr,3jKaBjw3,2020-0188,2020-06-04,11:59:01,13:00:36,NA,incomplete,40,shape,1,1,right,Green_Plus_Stripes_4.jpg,Blue_Star_Chess_4.jpg,Red_Plus_Dots_2.jpg,right,1094.6200000033714,true,low,NA,NA,NA,NA,NA,NA,NA,false
3jKaBjw3,3ni0wfppjctpbx4ya2wphz5gism608,39owyr0epo4ke5roa5f4sh84awvyfr,3jKaBjw3,2020-0188,2020-06-04,11:59:01,13:00:36,NA,incomplete,41,shape,1,1,right,Green_Circle_Grid_4.jpg,Blue_Plus_Dots_4.jpg,Purple_Circle_Chess_3.jpg,right,1256.9099999964237,true,low,NA,NA,NA,NA,NA,NA,NA,false
3jKaBjw3,3ni0wfppjctpbx4ya2wphz5gism608,39owyr0epo4ke5roa5f4sh84awvyfr,3jKaBjw3,2020-0188,2020-06-04,11:59:01,13:00:36,NA,incomplete,42,shape,1,1,right,Blue_Star_Stripes_3.jpg,Green_Plus_Dots_3.jpg,Red_Star_Chess_2.jpg,right,1190.0000000023283,true,low,NA,NA,NA,NA,NA,NA,NA,false
3jKaBjw3,3ni0wfppjctpbx4ya2wphz5gism608,39owyr0epo4ke5roa5f4sh84awvyfr,3jKaBjw3,2020-0188,2020-06-04,11:59:01,13:00:36,NA,incomplete,43,shape,1,1,left,Purple_Triangle_Grid_4.jpg,Blue_Triangle_Chess_2.jpg,Green_Circle_Dots_4.jpg,left,843.6549999895506,true,low,NA,NA,NA,NA,NA,NA,NA,false
3jKaBjw3,3ni0wfppjctpbx4ya2wphz5gism608,39owyr0epo4ke5roa5f4sh84awvyfr,3jKaBjw3,2020-0188,2020-06-04,11:59:01,13:00:36,NA,incomplete,44,shape,1,1,right,Red_Circle_Chess_3.jpg,Green_Plus_Dots_3.jpg,Purple_Circle_Stripes_1.jpg,right,1015.7750000068918,true,low,NA,NA,NA,NA,NA,NA,NA,false
3jKaBjw3,3ni0wfppjctpbx4ya2wphz5gism608,39owyr0epo4ke5roa5f4sh84awvyfr,3jKaBjw3,2020-0188,2020-06-04,11:59:01,13:00:36,NA,incomplete,45,shape,1,0,right,Purple_Triangle_Grid_3.jpg,Green_Plus_Stripes_3.jpg,Blue_Triangle_Dots_2.jpg,right,950.3699999917299,true,low,NA,NA,NA,NA,NA,NA,NA,false
3jKaBjw3,3ni0wfppjctpbx4ya2wphz5gism608,39owyr0epo4ke5roa5f4sh84awvyfr,3jKaBjw3,2020-0188,2020-06-04,11:59:01,13:00:36,NA,incomplete,46,shape,1,1,right,Green_Triangle_Stripes_3.jpg,Purple_Plus_Chess_3.jpg,Blue_Triangle_Dots_1.jpg,right,983.4300000076182,true,low,NA,NA,NA,NA,NA,NA,NA,false
3jKaBjw3,3ni0wfppjctpbx4ya2wphz5gism608,39owyr0epo4ke5roa5f4sh84awvyfr,3jKaBjw3,2020-0188,2020-06-04,11:59:01,13:00:36,NA,incomplete,47,shape,1,1,left,Red_Circle_Chess_4.jpg,Green_Circle_Stripes_2.jpg,Purple_Star_Grid_4.jpg,left,758.4150000037625,true,low,NA,NA,NA,NA,NA,NA,NA,false
3jKaBjw3,3ni0wfppjctpbx4ya2wphz5gism608,39owyr0epo4ke5roa5f4sh84awvyfr,3jKaBjw3,2020-0188,2020-06-04,11:59:01,13:00:36,NA,incomplete,48,shape,1,1,left,Purple_Plus_Dots_1.jpg,Blue_Plus_Grid_4.jpg,Red_Star_Chess_1.jpg,left,916.3699999917299,true,low,NA,NA,NA,NA,NA,NA,NA,false
3jKaBjw3,3ni0wfppjctpbx4ya2wphz5gism608,39owyr0epo4ke5roa5f4sh84awvyfr,3jKaBjw3,2020-0188,2020-06-04,11:59:01,13:00:36,NA,incomplete,49,shape,1,1,left,Purple_Star_Chess_1.jpg,Blue_Star_Grid_4.jpg,Green_Plus_Stripes_1.jpg,left,845.1749999951571,true,low,NA,NA,NA,NA,NA,NA,NA,false
3jKaBjw3,3ni0wfppjctpbx4ya2wphz5gism608,39owyr0epo4ke5roa5f4sh84awvyfr,3jKaBjw3,2020-0188,2020-06-04,11:59:01,13:00:36,NA,incomplete,50,shape,1,1,right,Blue_Plus_Grid_4.jpg,Green_Circle_Dots_4.jpg,Red_Plus_Chess_3.jpg,right,739.4800000041723,true,low,NA,NA,NA,NA,NA,NA,NA,false
3jKaBjw3,3ni0wfppjctpbx4ya2wphz5gism608,39owyr0epo4ke5roa5f4sh84awvyfr,3jKaBjw3,2020-0188,2020-06-04,11:59:01,13:00:36,NA,incomplete,51,shape,1,1,left,Red_Triangle_Grid_4.jpg,Green_Triangle_Chess_3.jpg,Blue_Circle_Dots_4.jpg,left,725.4550000065938,true,low,NA,NA,NA,NA,NA,NA,NA,false
3jKaBjw3,3ni0wfppjctpbx4ya2wphz5gism608,39owyr0epo4ke5roa5f4sh84awvyfr,3jKaBjw3,2020-0188,2020-06-04,11:59:01,13:00:36,NA,incomplete,52,shape,1,1,left,Red_Triangle_Grid_4.jpg,Blue_Triangle_Chess_1.jpg,Purple_Star_Dots_4.jpg,left,694.5949999936856,true,low,NA,NA,NA,NA,NA,NA,NA,false
3jKaBjw3,3ni0wfppjctpbx4ya2wphz5gism608,39owyr0epo4ke5roa5f4sh84awvyfr,3jKaBjw3,2020-0188,2020-06-04,11:59:01,13:00:36,NA,incomplete,53,shape,1,0,left,Red_Circle_Stripes_1.jpg,Green_Circle_Dots_2.jpg,Blue_Plus_Chess_1.jpg,left,822.5950000048615,true,low,NA,NA,NA,NA,NA,NA,NA,false
3jKaBjw3,3ni0wfppjctpbx4ya2wphz5gism608,39owyr0epo4ke5roa5f4sh84awvyfr,3jKaBjw3,2020-0188,2020-06-04,11:59:01,13:00:36,NA,incomplete,54,shape,1,1,left,Blue_Triangle_Grid_2.jpg,Green_Triangle_Dots_3.jpg,Red_Star_Stripes_2.jpg,left,967.0900000054389,true,low,NA,NA,NA,NA,NA,NA,NA,false
3jKaBjw3,3ni0wfppjctpbx4ya2wphz5gism608,39owyr0epo4ke5roa5f4sh84awvyfr,3jKaBjw3,2020-0188,2020-06-04,11:59:01,13:00:36,NA,incomplete,55,shape,1,1,right,Green_Plus_Stripes_4.jpg,Red_Circle_Dots_4.jpg,Purple_Plus_Chess_1.jpg,right,739.67000001017,true,low,NA,NA,NA,NA,NA,NA,NA,false
3jKaBjw3,3ni0wfppjctpbx4ya2wphz5gism608,39owyr0epo4ke5roa5f4sh84awvyfr,3jKaBjw3,2020-0188,2020-06-04,11:59:01,13:00:36,NA,incomplete,56,shape,1,1,right,Green_Triangle_Dots_4.jpg,Blue_Circle_Chess_4.jpg,Purple_Triangle_Stripes_1.jpg,right,844.2749999957159,true,low,NA,NA,NA,NA,NA,NA,NA,false
3jKaBjw3,3ni0wfppjctpbx4ya2wphz5gism608,39owyr0epo4ke5roa5f4sh84awvyfr,3jKaBjw3,2020-0188,2020-06-04,11:59:01,13:00:36,NA,incomplete,57,shape,1,1,left,Red_Triangle_Stripes_3.jpg,Blue_Triangle_Dots_1.jpg,Purple_Circle_Chess_3.jpg,left,695.265000001993,true,low,NA,NA,NA,NA,NA,NA,NA,false
3jKaBjw3,3ni0wfppjctpbx4ya2wphz5gism608,39owyr0epo4ke5roa5f4sh84awvyfr,3jKaBjw3,2020-0188,2020-06-04,11:59:01,13:00:36,NA,incomplete,58,shape,1,1,right,Green_Star_Dots_3.jpg,Blue_Circle_Grid_3.jpg,Red_Star_Chess_2.jpg,right,684.0800000061281,true,low,NA,NA,NA,NA,NA,NA,NA,false
3jKaBjw3,3ni0wfppjctpbx4ya2wphz5gism608,39owyr0epo4ke5roa5f4sh84awvyfr,3jKaBjw3,2020-0188,2020-06-04,11:59:01,13:00:36,NA,incomplete,59,shape,1,1,left,Blue_Star_Chess_1.jpg,Green_Star_Stripes_2.jpg,Red_Circle_Grid_1.jpg,left,686.6949999970384,true,low,NA,NA,NA,NA,NA,NA,NA,false
3jKaBjw3,3ni0wfppjctpbx4ya2wphz5gism608,39owyr0epo4ke5roa5f4sh84awvyfr,3jKaBjw3,2020-0188,2020-06-04,11:59:01,13:00:36,NA,incomplete,60,number,0,1,left,Purple_Star_Chess_1.jpg,Green_Triangle_Grid_1.jpg,Red_Star_Stripes_4.jpg,right,778.2849999931641,false,low,NA,NA,NA,NA,NA,NA,NA,false
3jKaBjw3,3ni0wfppjctpbx4ya2wphz5gism608,39owyr0epo4ke5roa5f4sh84awvyfr,3jKaBjw3,2020-0188,2020-06-04,11:59:01,13:00:36,NA,incomplete,61,number,0,0,right,Red_Circle_Stripes_4.jpg,Purple_Circle_Dots_2.jpg,Green_Triangle_Chess_4.jpg,left,728.644999995362,false,low,NA,NA,NA,NA,NA,NA,NA,false
3jKaBjw3,3ni0wfppjctpbx4ya2wphz5gism608,39owyr0epo4ke5roa5f4sh84awvyfr,3jKaBjw3,2020-0188,2020-06-04,11:59:01,13:00:36,NA,incomplete,62,number,0,0,right,Purple_Star_Grid_3.jpg,Blue_Star_Dots_4.jpg,Green_Plus_Chess_3.jpg,left,694.870000006631,false,low,NA,NA,NA,NA,NA,NA,NA,false
3jKaBjw3,3ni0wfppjctpbx4ya2wphz5gism608,39owyr0epo4ke5roa5f4sh84awvyfr,3jKaBjw3,2020-0188,2020-06-04,11:59:01,13:00:36,NA,incomplete,63,number,0,1,right,Blue_Circle_Chess_1.jpg,Purple_Circle_Grid_4.jpg,Red_Triangle_Dots_1.jpg,left,747.0649999887682,false,low,NA,NA,NA,NA,NA,NA,NA,false
3jKaBjw3,3ni0wfppjctpbx4ya2wphz5gism608,39owyr0epo4ke5roa5f4sh84awvyfr,3jKaBjw3,2020-0188,2020-06-04,11:59:01,13:00:36,NA,incomplete,64,number,0,1,left,Red_Triangle_Dots_3.jpg,Green_Circle_Stripes_3.jpg,Blue_Triangle_Chess_1.jpg,right,905.9200000045821,false,low,NA,NA,NA,NA,NA,NA,NA,false
3jKaBjw3,3ni0wfppjctpbx4ya2wphz5gism608,39owyr0epo4ke5roa5f4sh84awvyfr,3jKaBjw3,2020-0188,2020-06-04,11:59:01,13:00:36,NA,incomplete,65,number,0,1,left,Purple_Circle_Dots_4.jpg,Red_Triangle_Grid_4.jpg,Blue_Circle_Chess_1.jpg,right,958.4449999965727,false,low,NA,NA,NA,NA,NA,NA,NA,false
3jKaBjw3,3ni0wfppjctpbx4ya2wphz5gism608,39owyr0epo4ke5roa5f4sh84awvyfr,3jKaBjw3,2020-0188,2020-06-04,11:59:01,13:00:36,NA,incomplete,66,number,0,1,right,Blue_Plus_Grid_1.jpg,Green_Plus_Chess_2.jpg,Red_Star_Dots_1.jpg,left,843.6000000075437,false,low,NA,NA,NA,NA,NA,NA,NA,false
3jKaBjw3,3ni0wfppjctpbx4ya2wphz5gism608,39owyr0epo4ke5roa5f4sh84awvyfr,3jKaBjw3,2020-0188,2020-06-04,11:59:01,13:00:36,NA,incomplete,67,number,0,0,left,Purple_Circle_Chess_1.jpg,Red_Plus_Stripes_1.jpg,Green_Circle_Grid_4.jpg,right,1005.6849999963306,false,low,NA,NA,NA,NA,NA,NA,NA,false
3jKaBjw3,3ni0wfppjctpbx4ya2wphz5gism608,39owyr0epo4ke5roa5f4sh84awvyfr,3jKaBjw3,2020-0188,2020-06-04,11:59:01,13:00:36,NA,incomplete,68,number,0,1,left,Red_Triangle_Grid_4.jpg,Green_Plus_Dots_4.jpg,Blue_Triangle_Stripes_2.jpg,right,943.6049999929965,false,low,NA,NA,NA,NA,NA,NA,NA,false
3jKaBjw3,3ni0wfppjctpbx4ya2wphz5gism608,39owyr0epo4ke5roa5f4sh84awvyfr,3jKaBjw3,2020-0188,2020-06-04,11:59:01,13:00:36,NA,incomplete,69,number,0,1,right,Purple_Star_Dots_1.jpg,Red_Star_Grid_2.jpg,Green_Triangle_Stripes_1.jpg,left,762.9250000030734,false,low,NA,NA,NA,NA,NA,NA,NA,false
3jKaBjw3,3ni0wfppjctpbx4ya2wphz5gism608,39owyr0epo4ke5roa5f4sh84awvyfr,3jKaBjw3,2020-0188,2020-06-04,11:59:01,13:00:36,NA,incomplete,70,number,0,0,left,Red_Star_Stripes_2.jpg,Green_Triangle_Chess_2.jpg,Purple_Star_Dots_4.jpg,right,741.5900000049733,false,low,NA,NA,NA,NA,NA,NA,NA,false
3jKaBjw3,3ni0wfppjctpbx4ya2wphz5gism608,39owyr0epo4ke5roa5f4sh84awvyfr,3jKaBjw3,2020-0188,2020-06-04,11:59:01,13:00:36,NA,incomplete,71,number,0,0,left,Red_Star_Chess_4.jpg,Blue_Circle_Dots_4.jpg,Green_Star_Stripes_2.jpg,right,688.2499999920838,false,low,NA,NA,NA,NA,NA,NA,NA,false
3jKaBjw3,3ni0wfppjctpbx4ya2wphz5gism608,39owyr0epo4ke5roa5f4sh84awvyfr,3jKaBjw3,2020-0188,2020-06-04,11:59:01,13:00:36,NA,incomplete,72,number,0,1,left,Purple_Star_Dots_1.jpg,Red_Triangle_Stripes_1.jpg,Green_Star_Grid_2.jpg,right,772.1800000001676,false,low,NA,NA,NA,NA,NA,NA,NA,false
3jKaBjw3,3ni0wfppjctpbx4ya2wphz5gism608,39owyr0epo4ke5roa5f4sh84awvyfr,3jKaBjw3,2020-0188,2020-06-04,11:59:01,13:00:36,NA,incomplete,73,number,0,1,right,Red_Plus_Chess_3.jpg,Green_Plus_Grid_2.jpg,Purple_Circle_Stripes_3.jpg,left,761.1850000103004,false,low,NA,NA,NA,NA,NA,NA,NA,false
3jKaBjw3,3ni0wfppjctpbx4ya2wphz5gism608,39owyr0epo4ke5roa5f4sh84awvyfr,3jKaBjw3,2020-0188,2020-06-04,11:59:01,13:00:36,NA,incomplete,74,number,0,1,left,Blue_Circle_Dots_2.jpg,Purple_Plus_Stripes_2.jpg,Green_Circle_Chess_4.jpg,left,870.2049999996088,true,low,NA,NA,NA,NA,NA,NA,NA,false
3jKaBjw3,3ni0wfppjctpbx4ya2wphz5gism608,39owyr0epo4ke5roa5f4sh84awvyfr,3jKaBjw3,2020-0188,2020-06-04,11:59:01,13:00:36,NA,incomplete,75,number,0,1,right,Purple_Star_Stripes_3.jpg,Green_Star_Dots_4.jpg,Red_Triangle_Grid_3.jpg,left,725.164999996312,false,low,NA,NA,NA,NA,NA,NA,NA,false
3jKaBjw3,3ni0wfppjctpbx4ya2wphz5gism608,39owyr0epo4ke5roa5f4sh84awvyfr,3jKaBjw3,2020-0188,2020-06-04,11:59:01,13:00:36,NA,incomplete,76,number,0,1,right,Purple_Star_Chess_4.jpg,Blue_Star_Grid_3.jpg,Green_Triangle_Stripes_4.jpg,left,885.2650000043213,false,low,NA,NA,NA,NA,NA,NA,NA,false
3jKaBjw3,3ni0wfppjctpbx4ya2wphz5gism608,39owyr0epo4ke5roa5f4sh84awvyfr,3jKaBjw3,2020-0188,2020-06-04,11:59:01,13:00:36,NA,incomplete,77,number,0,1,left,Purple_Triangle_Chess_2.jpg,Red_Circle_Dots_2.jpg,Green_Triangle_Grid_4.jpg,left,930.7149999951944,true,low,NA,NA,NA,NA,NA,NA,NA,false
3jKaBjw3,3ni0wfppjctpbx4ya2wphz5gism608,39owyr0epo4ke5roa5f4sh84awvyfr,3jKaBjw3,2020-0188,2020-06-04,11:59:01,13:00:36,NA,incomplete,78,number,0,1,left,Purple_Star_Dots_1.jpg,Red_Plus_Grid_1.jpg,Blue_Star_Stripes_2.jpg,right,755.4549999912269,false,low,NA,NA,NA,NA,NA,NA,NA,false
3jKaBjw3,3ni0wfppjctpbx4ya2wphz5gism608,39owyr0epo4ke5roa5f4sh84awvyfr,3jKaBjw3,2020-0188,2020-06-04,11:59:01,13:00:36,NA,incomplete,79,number,0,1,left,Red_Star_Stripes_2.jpg,Green_Circle_Grid_2.jpg,Purple_Star_Chess_1.jpg,right,824.9400000059977,false,low,NA,NA,NA,NA,NA,NA,NA,false
3jKaBjw3,3ni0wfppjctpbx4ya2wphz5gism608,39owyr0epo4ke5roa5f4sh84awvyfr,3jKaBjw3,2020-0188,2020-06-04,11:59:01,13:00:36,NA,incomplete,80,number,0,0,right,Purple_Star_Dots_2.jpg,Blue_Star_Chess_4.jpg,Green_Plus_Grid_2.jpg,left,811.1050000009127,false,low,NA,NA,NA,NA,NA,NA,NA,false
3jKaBjw3,3ni0wfppjctpbx4ya2wphz5gism608,39owyr0epo4ke5roa5f4sh84awvyfr,3jKaBjw3,2020-0188,2020-06-04,11:59:01,13:00:36,NA,incomplete,81,number,0,0,left,Green_Circle_Stripes_2.jpg,Red_Plus_Grid_2.jpg,Blue_Circle_Dots_1.jpg,right,730.5599999958649,false,low,NA,NA,NA,NA,NA,NA,NA,false
3jKaBjw3,3ni0wfppjctpbx4ya2wphz5gism608,39owyr0epo4ke5roa5f4sh84awvyfr,3jKaBjw3,2020-0188,2020-06-04,11:59:01,13:00:36,NA,incomplete,82,number,0,1,left,Purple_Plus_Stripes_4.jpg,Green_Circle_Grid_4.jpg,Red_Plus_Chess_1.jpg,right,904.6200000010431,false,low,NA,NA,NA,NA,NA,NA,NA,false
3jKaBjw3,3ni0wfppjctpbx4ya2wphz5gism608,39owyr0epo4ke5roa5f4sh84awvyfr,3jKaBjw3,2020-0188,2020-06-04,11:59:01,13:00:36,NA,incomplete,83,number,0,1,left,Green_Triangle_Grid_4.jpg,Red_Star_Chess_4.jpg,Purple_Triangle_Dots_2.jpg,right,1113.605000006035,false,low,NA,NA,NA,NA,NA,NA,NA,false
3jKaBjw3,3ni0wfppjctpbx4ya2wphz5gism608,39owyr0epo4ke5roa5f4sh84awvyfr,3jKaBjw3,2020-0188,2020-06-04,11:59:01,13:00:36,NA,incomplete,84,number,0,1,right,Blue_Circle_Stripes_2.jpg,Red_Circle_Chess_4.jpg,Purple_Plus_Grid_2.jpg,right,912.5900000073016,true,low,NA,NA,NA,NA,NA,NA,NA,false
3jKaBjw3,3ni0wfppjctpbx4ya2wphz5gism608,39owyr0epo4ke5roa5f4sh84awvyfr,3jKaBjw3,2020-0188,2020-06-04,11:59:01,13:00:36,NA,incomplete,85,number,0,1,right,Red_Star_Dots_1.jpg,Purple_Star_Grid_2.jpg,Green_Triangle_Stripes_1.jpg,left,681.8599999970756,false,low,NA,NA,NA,NA,NA,NA,NA,false
3jKaBjw3,3ni0wfppjctpbx4ya2wphz5gism608,39owyr0epo4ke5roa5f4sh84awvyfr,3jKaBjw3,2020-0188,2020-06-04,11:59:01,13:00:36,NA,incomplete,86,number,0,1,right,Green_Star_Chess_2.jpg,Blue_Star_Stripes_3.jpg,Purple_Triangle_Dots_2.jpg,left,871.8499999959022,false,low,NA,NA,NA,NA,NA,NA,NA,false
3jKaBjw3,3ni0wfppjctpbx4ya2wphz5gism608,39owyr0epo4ke5roa5f4sh84awvyfr,3jKaBjw3,2020-0188,2020-06-04,11:59:01,13:00:36,NA,incomplete,87,number,0,1,right,Green_Circle_Dots_2.jpg,Purple_Circle_Grid_1.jpg,Blue_Plus_Stripes_2.jpg,right,887.3649999876507,true,low,NA,NA,NA,NA,NA,NA,NA,false
3jKaBjw3,3ni0wfppjctpbx4ya2wphz5gism608,39owyr0epo4ke5roa5f4sh84awvyfr,3jKaBjw3,2020-0188,2020-06-04,11:59:01,13:00:36,NA,incomplete,88,number,0,1,right,Blue_Circle_Chess_3.jpg,Green_Circle_Grid_2.jpg,Purple_Star_Stripes_3.jpg,right,972.0799999921583,true,low,NA,NA,NA,NA,NA,NA,NA,false
3jKaBjw3,3ni0wfppjctpbx4ya2wphz5gism608,39owyr0epo4ke5roa5f4sh84awvyfr,3jKaBjw3,2020-0188,2020-06-04,11:59:01,13:00:36,NA,incomplete,89,number,0,0,right,Blue_Plus_Grid_3.jpg,Green_Plus_Dots_1.jpg,Red_Triangle_Stripes_3.jpg,right,909.8050000029616,true,low,NA,NA,NA,NA,NA,NA,NA,false
3jKaBjw3,3ni0wfppjctpbx4ya2wphz5gism608,39owyr0epo4ke5roa5f4sh84awvyfr,3jKaBjw3,2020-0188,2020-06-04,11:59:01,13:00:36,NA,incomplete,90,shape,1,1,right,Green_Star_Stripes_1.jpg,Blue_Circle_Chess_1.jpg,Red_Star_Dots_3.jpg,right,933.0450000124983,true,low,NA,NA,NA,NA,NA,NA,NA,false
3jKaBjw3,3ni0wfppjctpbx4ya2wphz5gism608,39owyr0epo4ke5roa5f4sh84awvyfr,3jKaBjw3,2020-0188,2020-06-04,11:59:01,13:00:36,NA,incomplete,91,shape,1,1,left,Purple_Star_Dots_2.jpg,Red_Star_Grid_3.jpg,Blue_Circle_Chess_2.jpg,left,701.4199999975972,true,low,NA,NA,NA,NA,NA,NA,NA,false
3jKaBjw3,3ni0wfppjctpbx4ya2wphz5gism608,39owyr0epo4ke5roa5f4sh84awvyfr,3jKaBjw3,2020-0188,2020-06-04,11:59:01,13:00:36,NA,incomplete,92,shape,1,1,left,Blue_Triangle_Stripes_1.jpg,Purple_Triangle_Dots_3.jpg,Red_Plus_Grid_1.jpg,left,831.2700000093319,true,low,NA,NA,NA,NA,NA,NA,NA,false
3jKaBjw3,3ni0wfppjctpbx4ya2wphz5gism608,39owyr0epo4ke5roa5f4sh84awvyfr,3jKaBjw3,2020-0188,2020-06-04,11:59:01,13:00:36,NA,incomplete,93,shape,1,0,left,Purple_Circle_Dots_1.jpg,Green_Circle_Stripes_2.jpg,Blue_Star_Grid_1.jpg,left,799.0350000038743,true,low,NA,NA,NA,NA,NA,NA,NA,false
3jKaBjw3,3ni0wfppjctpbx4ya2wphz5gism608,39owyr0epo4ke5roa5f4sh84awvyfr,3jKaBjw3,2020-0188,2020-06-04,11:59:01,13:00:36,NA,incomplete,94,shape,1,1,right,Blue_Plus_Chess_4.jpg,Green_Circle_Grid_4.jpg,Red_Plus_Dots_3.jpg,left,989.9000000008382,false,low,NA,NA,NA,NA,NA,NA,NA,false
3jKaBjw3,3ni0wfppjctpbx4ya2wphz5gism608,39owyr0epo4ke5roa5f4sh84awvyfr,3jKaBjw3,2020-0188,2020-06-04,11:59:01,13:00:36,NA,incomplete,95,shape,1,1,right,Red_Plus_Chess_2.jpg,Blue_Star_Grid_2.jpg,Purple_Plus_Dots_4.jpg,right,784.5649999943562,true,low,NA,NA,NA,NA,NA,NA,NA,false
3jKaBjw3,3ni0wfppjctpbx4ya2wphz5gism608,39owyr0epo4ke5roa5f4sh84awvyfr,3jKaBjw3,2020-0188,2020-06-04,11:59:01,13:00:36,NA,incomplete,96,shape,1,1,left,Blue_Circle_Stripes_3.jpg,Green_Circle_Dots_4.jpg,Purple_Star_Grid_3.jpg,left,667.8200000026263,true,low,NA,NA,NA,NA,NA,NA,NA,false
3jKaBjw3,3ni0wfppjctpbx4ya2wphz5gism608,39owyr0epo4ke5roa5f4sh84awvyfr,3jKaBjw3,2020-0188,2020-06-04,11:59:01,13:00:36,NA,incomplete,97,shape,1,0,right,Red_Plus_Grid_2.jpg,Purple_Circle_Stripes_2.jpg,Green_Plus_Dots_1.jpg,right,613.0650000120513,true,low,NA,NA,NA,NA,NA,NA,NA,false
3jKaBjw3,3ni0wfppjctpbx4ya2wphz5gism608,39owyr0epo4ke5roa5f4sh84awvyfr,3jKaBjw3,2020-0188,2020-06-04,11:59:01,13:00:36,NA,incomplete,98,shape,1,1,right,Purple_Circle_Dots_1.jpg,Green_Triangle_Grid_1.jpg,Red_Circle_Stripes_2.jpg,right,708.039999997709,true,low,NA,NA,NA,NA,NA,NA,NA,false
3jKaBjw3,3ni0wfppjctpbx4ya2wphz5gism608,39owyr0epo4ke5roa5f4sh84awvyfr,3jKaBjw3,2020-0188,2020-06-04,11:59:01,13:00:36,NA,incomplete,99,shape,1,1,left,Green_Plus_Stripes_1.jpg,Purple_Plus_Grid_4.jpg,Red_Circle_Dots_1.jpg,left,691.5500000030734,true,low,NA,NA,NA,NA,NA,NA,NA,false
3jKaBjw3,3ni0wfppjctpbx4ya2wphz5gism608,39owyr0epo4ke5roa5f4sh84awvyfr,3jKaBjw3,2020-0188,2020-06-04,11:59:01,13:00:36,NA,incomplete,100,shape,1,1,left,Purple_Triangle_Chess_2.jpg,Red_Triangle_Dots_3.jpg,Green_Star_Grid_2.jpg,left,813.3550000055693,true,low,NA,NA,NA,NA,NA,NA,NA,false
3jKaBjw3,3ni0wfppjctpbx4ya2wphz5gism608,39owyr0epo4ke5roa5f4sh84awvyfr,3jKaBjw3,2020-0188,2020-06-04,11:59:01,13:00:36,NA,incomplete,101,shape,1,1,right,Purple_Triangle_Grid_4.jpg,Green_Circle_Dots_4.jpg,Red_Triangle_Chess_2.jpg,right,645.9599999943748,true,low,NA,NA,NA,NA,NA,NA,NA,false
3jKaBjw3,3ni0wfppjctpbx4ya2wphz5gism608,39owyr0epo4ke5roa5f4sh84awvyfr,3jKaBjw3,2020-0188,2020-06-04,11:59:01,13:00:36,NA,incomplete,102,shape,1,1,left,Green_Triangle_Grid_3.jpg,Red_Triangle_Dots_2.jpg,Blue_Star_Stripes_3.jpg,left,885.1549999960698,true,low,NA,NA,NA,NA,NA,NA,NA,false
3jKaBjw3,3ni0wfppjctpbx4ya2wphz5gism608,39owyr0epo4ke5roa5f4sh84awvyfr,3jKaBjw3,2020-0188,2020-06-04,11:59:01,13:00:36,NA,incomplete,103,shape,1,1,right,Red_Circle_Dots_3.jpg,Blue_Plus_Grid_3.jpg,Green_Circle_Chess_1.jpg,right,650.9650000077672,true,low,NA,NA,NA,NA,NA,NA,NA,false
3jKaBjw3,3ni0wfppjctpbx4ya2wphz5gism608,39owyr0epo4ke5roa5f4sh84awvyfr,3jKaBjw3,2020-0188,2020-06-04,11:59:01,13:00:36,NA,incomplete,104,shape,1,1,right,Green_Circle_Grid_1.jpg,Purple_Star_Dots_1.jpg,Blue_Circle_Stripes_2.jpg,right,704.3399999965914,true,low,NA,NA,NA,NA,NA,NA,NA,false
3jKaBjw3,3ni0wfppjctpbx4ya2wphz5gism608,39owyr0epo4ke5roa5f4sh84awvyfr,3jKaBjw3,2020-0188,2020-06-04,11:59:01,13:00:36,NA,incomplete,105,shape,1,1,right,Purple_Plus_Chess_3.jpg,Blue_Star_Dots_3.jpg,Green_Plus_Stripes_4.jpg,right,766.4249999942258,true,low,NA,NA,NA,NA,NA,NA,NA,false
3jKaBjw3,3ni0wfppjctpbx4ya2wphz5gism608,39owyr0epo4ke5roa5f4sh84awvyfr,3jKaBjw3,2020-0188,2020-06-04,11:59:01,13:00:36,NA,incomplete,106,shape,1,1,left,Blue_Triangle_Stripes_1.jpg,Green_Triangle_Grid_2.jpg,Purple_Star_Dots_1.jpg,left,738.8999999966472,true,low,NA,NA,NA,NA,NA,NA,NA,false
3jKaBjw3,3ni0wfppjctpbx4ya2wphz5gism608,39owyr0epo4ke5roa5f4sh84awvyfr,3jKaBjw3,2020-0188,2020-06-04,11:59:01,13:00:36,NA,incomplete,107,shape,1,0,right,Purple_Plus_Stripes_3.jpg,Green_Circle_Grid_3.jpg,Blue_Plus_Dots_2.jpg,right,591.1400000043213,true,low,NA,NA,NA,NA,NA,NA,NA,false
3jKaBjw3,3ni0wfppjctpbx4ya2wphz5gism608,39owyr0epo4ke5roa5f4sh84awvyfr,3jKaBjw3,2020-0188,2020-06-04,11:59:01,13:00:36,NA,incomplete,108,shape,1,1,left,Purple_Plus_Dots_2.jpg,Green_Plus_Grid_1.jpg,Blue_Circle_Chess_2.jpg,left,663.3449999936856,true,low,NA,NA,NA,NA,NA,NA,NA,false
3jKaBjw3,3ni0wfppjctpbx4ya2wphz5gism608,39owyr0epo4ke5roa5f4sh84awvyfr,3jKaBjw3,2020-0188,2020-06-04,11:59:01,13:00:36,NA,incomplete,109,shape,1,1,right,Blue_Circle_Dots_3.jpg,Green_Triangle_Grid_3.jpg,Purple_Circle_Chess_4.jpg,right,615.1699999901466,true,low,NA,NA,NA,NA,NA,NA,NA,false
3jKaBjw3,3ni0wfppjctpbx4ya2wphz5gism608,39owyr0epo4ke5roa5f4sh84awvyfr,3jKaBjw3,2020-0188,2020-06-04,11:59:01,13:00:36,NA,incomplete,110,shape,1,1,right,Red_Star_Stripes_2.jpg,Purple_Triangle_Grid_2.jpg,Green_Star_Dots_1.jpg,right,569.6000000024214,true,low,NA,NA,NA,NA,NA,NA,NA,false
3jKaBjw3,3ni0wfppjctpbx4ya2wphz5gism608,39owyr0epo4ke5roa5f4sh84awvyfr,3jKaBjw3,2020-0188,2020-06-04,11:59:01,13:00:36,NA,incomplete,111,shape,1,1,left,Red_Plus_Dots_3.jpg,Blue_Plus_Stripes_4.jpg,Purple_Star_Grid_3.jpg,left,918.1600000010803,true,low,NA,NA,NA,NA,NA,NA,NA,false
3jKaBjw3,3ni0wfppjctpbx4ya2wphz5gism608,39owyr0epo4ke5roa5f4sh84awvyfr,3jKaBjw3,2020-0188,2020-06-04,11:59:01,13:00:36,NA,incomplete,112,shape,1,0,right,Green_Plus_Stripes_3.jpg,Blue_Star_Grid_3.jpg,Red_Plus_Dots_2.jpg,right,667.9399999994785,true,low,NA,NA,NA,NA,NA,NA,NA,false
3jKaBjw3,3ni0wfppjctpbx4ya2wphz5gism608,39owyr0epo4ke5roa5f4sh84awvyfr,3jKaBjw3,2020-0188,2020-06-04,11:59:01,13:00:36,NA,incomplete,113,shape,1,1,right,Red_Plus_Stripes_2.jpg,Green_Triangle_Chess_2.jpg,Purple_Plus_Dots_1.jpg,right,636.3299999940209,true,low,NA,NA,NA,NA,NA,NA,NA,false
3jKaBjw3,3ni0wfppjctpbx4ya2wphz5gism608,39owyr0epo4ke5roa5f4sh84awvyfr,3jKaBjw3,2020-0188,2020-06-04,11:59:01,13:00:36,NA,incomplete,114,shape,1,1,right,Green_Star_Grid_3.jpg,Red_Triangle_Dots_3.jpg,Blue_Star_Chess_1.jpg,right,623.9349999958649,true,low,NA,NA,NA,NA,NA,NA,NA,false
3jKaBjw3,3ni0wfppjctpbx4ya2wphz5gism608,39owyr0epo4ke5roa5f4sh84awvyfr,3jKaBjw3,2020-0188,2020-06-04,11:59:01,13:00:36,NA,incomplete,115,shape,1,0,right,Purple_Plus_Stripes_2.jpg,Green_Star_Chess_2.jpg,Blue_Plus_Grid_3.jpg,right,581.6499999924563,true,low,NA,NA,NA,NA,NA,NA,NA,false
3jKaBjw3,3ni0wfppjctpbx4ya2wphz5gism608,39owyr0epo4ke5roa5f4sh84awvyfr,3jKaBjw3,2020-0188,2020-06-04,11:59:01,13:00:36,NA,incomplete,116,shape,1,1,right,Green_Plus_Stripes_3.jpg,Red_Star_Dots_3.jpg,Blue_Plus_Chess_2.jpg,right,624.2900000070222,true,low,NA,NA,NA,NA,NA,NA,NA,false
3jKaBjw3,3ni0wfppjctpbx4ya2wphz5gism608,39owyr0epo4ke5roa5f4sh84awvyfr,3jKaBjw3,2020-0188,2020-06-04,11:59:01,13:00:36,NA,incomplete,117,shape,1,1,right,Green_Plus_Grid_1.jpg,Red_Circle_Dots_1.jpg,Blue_Plus_Chess_3.jpg,right,655.620000005234,true,low,NA,NA,NA,NA,NA,NA,NA,false
3jKaBjw3,3ni0wfppjctpbx4ya2wphz5gism608,39owyr0epo4ke5roa5f4sh84awvyfr,3jKaBjw3,2020-0188,2020-06-04,11:59:01,13:00:36,NA,incomplete,118,shape,1,1,right,Red_Plus_Stripes_2.jpg,Purple_Triangle_Grid_2.jpg,Blue_Plus_Dots_3.jpg,right,730.510000008624,true,low,NA,NA,NA,NA,NA,NA,NA,false
3jKaBjw3,3ni0wfppjctpbx4ya2wphz5gism608,39owyr0epo4ke5roa5f4sh84awvyfr,3jKaBjw3,2020-0188,2020-06-04,11:59:01,13:00:36,NA,incomplete,119,shape,1,1,right,Green_Triangle_Chess_4.jpg,Blue_Circle_Stripes_4.jpg,Purple_Triangle_Grid_2.jpg,right,691.5400000140071,true,low,NA,NA,NA,NA,NA,NA,NA,false
3jKaBjw3,3ni0wfppjctpbx4ya2wphz5gism608,39owyr0epo4ke5roa5f4sh84awvyfr,3jKaBjw3,2020-0188,2020-06-04,11:59:01,13:00:36,NA,incomplete,120,race,2,0,left,A_M_13.jpg,A_F_11.jpg,C_M_04.jpg,NA,NA,NA,low,NA,NA,NA,NA,NA,NA,NA,false
3jKaBjw3,3ni0wfppjctpbx4ya2wphz5gism608,39owyr0epo4ke5roa5f4sh84awvyfr,3jKaBjw3,2020-0188,2020-06-04,11:59:01,13:00:36,NA,incomplete,121,race,2,1,right,C_F_15.jpg,A_F_02.jpg,C_M_16.jpg,left,1333.5050000022165,false,low,NA,NA,NA,NA,NA,NA,NA,false
3jKaBjw3,3ni0wfppjctpbx4ya2wphz5gism608,39owyr0epo4ke5roa5f4sh84awvyfr,3jKaBjw3,2020-0188,2020-06-04,11:59:01,13:00:36,NA,incomplete,122,race,2,0,left,A_M_07.jpg,A_F_08.jpg,C_M_10.jpg,right,1163.8250000108965,false,low,NA,NA,NA,NA,NA,NA,NA,false
3jKaBjw3,3ni0wfppjctpbx4ya2wphz5gism608,39owyr0epo4ke5roa5f4sh84awvyfr,3jKaBjw3,2020-0188,2020-06-04,11:59:01,13:00:36,NA,incomplete,123,race,2,1,right,C_F_01.jpg,A_F_04.jpg,C_M_13.jpg,left,1318.4349999935366,false,low,NA,NA,NA,NA,NA,NA,NA,false
3jKaBjw3,3ni0wfppjctpbx4ya2wphz5gism608,39owyr0epo4ke5roa5f4sh84awvyfr,3jKaBjw3,2020-0188,2020-06-04,11:59:01,13:00:36,NA,incomplete,124,race,2,1,left,C_F_15.jpg,C_M_02.jpg,A_F_07.jpg,right,1001.5249999994412,false,low,NA,NA,NA,NA,NA,NA,NA,false
3jKaBjw3,3ni0wfppjctpbx4ya2wphz5gism608,39owyr0epo4ke5roa5f4sh84awvyfr,3jKaBjw3,2020-0188,2020-06-04,11:59:01,13:00:36,NA,incomplete,125,race,2,1,left,A_M_03.jpg,A_F_07.jpg,C_M_01.jpg,left,1118.6549999983981,true,low,NA,NA,NA,NA,NA,NA,NA,false
3jKaBjw3,3ni0wfppjctpbx4ya2wphz5gism608,39owyr0epo4ke5roa5f4sh84awvyfr,3jKaBjw3,2020-0188,2020-06-04,11:59:01,13:00:36,NA,incomplete,126,race,2,1,left,C_F_12.jpg,C_M_02.jpg,A_F_06.jpg,left,1223.664999997709,true,low,NA,NA,NA,NA,NA,NA,NA,false
3jKaBjw3,3ni0wfppjctpbx4ya2wphz5gism608,39owyr0epo4ke5roa5f4sh84awvyfr,3jKaBjw3,2020-0188,2020-06-04,11:59:01,13:00:36,NA,incomplete,127,race,2,1,right,A_M_04.jpg,C_M_15.jpg,A_F_10.jpg,right,907.9749999945052,true,low,NA,NA,NA,NA,NA,NA,NA,false
3jKaBjw3,3ni0wfppjctpbx4ya2wphz5gism608,39owyr0epo4ke5roa5f4sh84awvyfr,3jKaBjw3,2020-0188,2020-06-04,11:59:01,13:00:36,NA,incomplete,128,race,2,0,left,A_M_16.jpg,A_F_04.jpg,C_M_11.jpg,left,963.1099999970756,true,low,NA,NA,NA,NA,NA,NA,NA,false
3jKaBjw3,3ni0wfppjctpbx4ya2wphz5gism608,39owyr0epo4ke5roa5f4sh84awvyfr,3jKaBjw3,2020-0188,2020-06-04,11:59:01,13:00:36,NA,incomplete,129,race,2,1,left,C_F_04.jpg,C_M_01.jpg,A_F_05.jpg,left,1337.2849999871105,true,low,NA,NA,NA,NA,NA,NA,NA,false
3jKaBjw3,3ni0wfppjctpbx4ya2wphz5gism608,39owyr0epo4ke5roa5f4sh84awvyfr,3jKaBjw3,2020-0188,2020-06-04,11:59:01,13:00:36,NA,incomplete,130,race,2,1,right,A_M_09.jpg,C_M_06.jpg,A_F_05.jpg,right,1228.1550000044517,true,low,NA,NA,NA,NA,NA,NA,NA,false
3jKaBjw3,3ni0wfppjctpbx4ya2wphz5gism608,39owyr0epo4ke5roa5f4sh84awvyfr,3jKaBjw3,2020-0188,2020-06-04,11:59:01,13:00:36,NA,incomplete,131,race,2,1,right,A_F_14.jpg,C_F_07.jpg,A_M_15.jpg,right,1130.0550000015646,true,low,NA,NA,NA,NA,NA,NA,NA,false
3jKaBjw3,3ni0wfppjctpbx4ya2wphz5gism608,39owyr0epo4ke5roa5f4sh84awvyfr,3jKaBjw3,2020-0188,2020-06-04,11:59:01,13:00:36,NA,incomplete,132,race,2,1,left,C_F_09.jpg,C_M_11.jpg,A_F_01.jpg,left,1070.8949999972247,true,low,NA,NA,NA,NA,NA,NA,NA,false
3jKaBjw3,3ni0wfppjctpbx4ya2wphz5gism608,39owyr0epo4ke5roa5f4sh84awvyfr,3jKaBjw3,2020-0188,2020-06-04,11:59:01,13:00:36,NA,incomplete,133,race,2,1,right,A_M_13.jpg,C_M_03.jpg,A_F_02.jpg,right,868.0899999891408,true,low,NA,NA,NA,NA,NA,NA,NA,false
3jKaBjw3,3ni0wfppjctpbx4ya2wphz5gism608,39owyr0epo4ke5roa5f4sh84awvyfr,3jKaBjw3,2020-0188,2020-06-04,11:59:01,13:00:36,NA,incomplete,134,race,2,1,left,A_F_13.jpg,A_M_11.jpg,C_F_07.jpg,left,875.5250000101514,true,low,NA,NA,NA,NA,NA,NA,NA,false
3jKaBjw3,3ni0wfppjctpbx4ya2wphz5gism608,39owyr0epo4ke5roa5f4sh84awvyfr,3jKaBjw3,2020-0188,2020-06-04,11:59:01,13:00:36,NA,incomplete,135,race,2,1,left,C_M_01.jpg,C_F_10.jpg,A_M_14.jpg,left,914.6399999884889,true,low,NA,NA,NA,NA,NA,NA,NA,false
3jKaBjw3,3ni0wfppjctpbx4ya2wphz5gism608,39owyr0epo4ke5roa5f4sh84awvyfr,3jKaBjw3,2020-0188,2020-06-04,11:59:01,13:00:36,NA,incomplete,136,race,2,1,left,C_F_10.jpg,C_M_07.jpg,A_F_16.jpg,left,914.754999990575,true,low,NA,NA,NA,NA,NA,NA,NA,false
3jKaBjw3,3ni0wfppjctpbx4ya2wphz5gism608,39owyr0epo4ke5roa5f4sh84awvyfr,3jKaBjw3,2020-0188,2020-06-04,11:59:01,13:00:36,NA,incomplete,137,race,2,1,left,C_M_16.jpg,C_F_04.jpg,A_M_09.jpg,left,763.0500000086613,true,low,NA,NA,NA,NA,NA,NA,NA,false
3jKaBjw3,3ni0wfppjctpbx4ya2wphz5gism608,39owyr0epo4ke5roa5f4sh84awvyfr,3jKaBjw3,2020-0188,2020-06-04,11:59:01,13:00:36,NA,incomplete,138,race,2,1,right,A_M_02.jpg,C_M_12.jpg,A_F_01.jpg,right,996.4049999979325,true,low,NA,NA,NA,NA,NA,NA,NA,false
3jKaBjw3,3ni0wfppjctpbx4ya2wphz5gism608,39owyr0epo4ke5roa5f4sh84awvyfr,3jKaBjw3,2020-0188,2020-06-04,11:59:01,13:00:36,NA,incomplete,139,race,2,1,left,C_M_14.jpg,C_F_11.jpg,A_M_10.jpg,right,831.3249999918044,false,low,NA,NA,NA,NA,NA,NA,NA,false
3jKaBjw3,3ni0wfppjctpbx4ya2wphz5gism608,39owyr0epo4ke5roa5f4sh84awvyfr,3jKaBjw3,2020-0188,2020-06-04,11:59:01,13:00:36,NA,incomplete,140,gender,3,1,left,A_M_03.jpg,C_M_13.jpg,A_F_09.jpg,right,877.4049999918789,false,low,NA,NA,NA,NA,NA,NA,NA,false
3jKaBjw3,3ni0wfppjctpbx4ya2wphz5gism608,39owyr0epo4ke5roa5f4sh84awvyfr,3jKaBjw3,2020-0188,2020-06-04,11:59:01,13:00:36,NA,incomplete,141,gender,3,1,left,A_M_01.jpg,C_M_07.jpg,A_F_13.jpg,right,823.0049999984913,false,low,NA,NA,NA,NA,NA,NA,NA,false
3jKaBjw3,3ni0wfppjctpbx4ya2wphz5gism608,39owyr0epo4ke5roa5f4sh84awvyfr,3jKaBjw3,2020-0188,2020-06-04,11:59:01,13:00:36,NA,incomplete,142,gender,3,1,left,C_F_09.jpg,A_F_12.jpg,C_M_13.jpg,left,1045.6149999951012,true,low,NA,NA,NA,NA,NA,NA,NA,false
3jKaBjw3,3ni0wfppjctpbx4ya2wphz5gism608,39owyr0epo4ke5roa5f4sh84awvyfr,3jKaBjw3,2020-0188,2020-06-04,11:59:01,13:00:36,NA,incomplete,143,gender,3,0,left,A_M_09.jpg,C_M_12.jpg,A_F_01.jpg,right,869.295000011567,false,low,NA,NA,NA,NA,NA,NA,NA,false
3jKaBjw3,3ni0wfppjctpbx4ya2wphz5gism608,39owyr0epo4ke5roa5f4sh84awvyfr,3jKaBjw3,2020-0188,2020-06-04,11:59:01,13:00:36,NA,incomplete,144,gender,3,1,right,C_M_07.jpg,C_F_16.jpg,A_M_04.jpg,right,1025.0400000074878,true,low,NA,NA,NA,NA,NA,NA,NA,false
3jKaBjw3,3ni0wfppjctpbx4ya2wphz5gism608,39owyr0epo4ke5roa5f4sh84awvyfr,3jKaBjw3,2020-0188,2020-06-04,11:59:01,13:00:36,NA,incomplete,145,gender,3,1,left,A_M_14.jpg,C_M_02.jpg,A_F_08.jpg,right,1058.685000010766,false,low,NA,NA,NA,NA,NA,NA,NA,false
3jKaBjw3,3ni0wfppjctpbx4ya2wphz5gism608,39owyr0epo4ke5roa5f4sh84awvyfr,3jKaBjw3,2020-0188,2020-06-04,11:59:01,13:00:36,NA,incomplete,146,gender,3,1,left,A_M_03.jpg,C_M_04.jpg,A_F_07.jpg,left,1377.1700000069104,true,low,NA,NA,NA,NA,NA,NA,NA,false
3jKaBjw3,3ni0wfppjctpbx4ya2wphz5gism608,39owyr0epo4ke5roa5f4sh84awvyfr,3jKaBjw3,2020-0188,2020-06-04,11:59:01,13:00:36,NA,incomplete,147,gender,3,1,right,C_F_14.jpg,C_M_12.jpg,A_F_09.jpg,right,1220.100000005681,true,low,NA,NA,NA,NA,NA,NA,NA,false
3jKaBjw3,3ni0wfppjctpbx4ya2wphz5gism608,39owyr0epo4ke5roa5f4sh84awvyfr,3jKaBjw3,2020-0188,2020-06-04,11:59:01,13:00:36,NA,incomplete,148,gender,3,0,left,A_M_03.jpg,C_M_16.jpg,A_F_13.jpg,right,996.5649999938905,false,low,NA,NA,NA,NA,NA,NA,NA,false
3jKaBjw3,3ni0wfppjctpbx4ya2wphz5gism608,39owyr0epo4ke5roa5f4sh84awvyfr,3jKaBjw3,2020-0188,2020-06-04,11:59:01,13:00:36,NA,incomplete,149,gender,3,1,left,A_F_07.jpg,C_F_15.jpg,A_M_01.jpg,right,1096.56999999471,false,low,NA,NA,NA,NA,NA,NA,NA,false
3jKaBjw3,3ni0wfppjctpbx4ya2wphz5gism608,39owyr0epo4ke5roa5f4sh84awvyfr,3jKaBjw3,2020-0188,2020-06-04,11:59:01,13:00:36,NA,incomplete,150,gender,3,1,left,C_F_04.jpg,A_F_08.jpg,C_M_13.jpg,right,1232.9750000061467,false,low,NA,NA,NA,NA,NA,NA,NA,false
3jKaBjw3,3ni0wfppjctpbx4ya2wphz5gism608,39owyr0epo4ke5roa5f4sh84awvyfr,3jKaBjw3,2020-0188,2020-06-04,11:59:01,13:00:36,NA,incomplete,151,gender,3,1,right,C_F_01.jpg,C_M_15.jpg,A_F_10.jpg,left,1169.5200000102632,false,low,NA,NA,NA,NA,NA,NA,NA,false
3jKaBjw3,3ni0wfppjctpbx4ya2wphz5gism608,39owyr0epo4ke5roa5f4sh84awvyfr,3jKaBjw3,2020-0188,2020-06-04,11:59:01,13:00:36,NA,incomplete,152,gender,3,1,right,C_M_08.jpg,C_F_10.jpg,A_M_01.jpg,left,1170.8499999949709,false,low,NA,NA,NA,NA,NA,NA,NA,false
3jKaBjw3,3ni0wfppjctpbx4ya2wphz5gism608,39owyr0epo4ke5roa5f4sh84awvyfr,3jKaBjw3,2020-0188,2020-06-04,11:59:01,13:00:36,NA,incomplete,153,gender,3,0,left,C_F_14.jpg,A_F_02.jpg,C_M_12.jpg,right,979.3599999975413,false,low,NA,NA,NA,NA,NA,NA,NA,false
3jKaBjw3,3ni0wfppjctpbx4ya2wphz5gism608,39owyr0epo4ke5roa5f4sh84awvyfr,3jKaBjw3,2020-0188,2020-06-04,11:59:01,13:00:36,NA,incomplete,154,gender,3,1,right,A_M_13.jpg,A_F_03.jpg,C_M_04.jpg,left,1175.5300000077114,false,low,NA,NA,NA,NA,NA,NA,NA,false
3jKaBjw3,3ni0wfppjctpbx4ya2wphz5gism608,39owyr0epo4ke5roa5f4sh84awvyfr,3jKaBjw3,2020-0188,2020-06-04,11:59:01,13:00:36,NA,incomplete,155,gender,3,1,right,A_M_10.jpg,A_F_12.jpg,C_M_02.jpg,left,1278.0449999989942,false,low,NA,NA,NA,NA,NA,NA,NA,false
3jKaBjw3,3ni0wfppjctpbx4ya2wphz5gism608,39owyr0epo4ke5roa5f4sh84awvyfr,3jKaBjw3,2020-0188,2020-06-04,11:59:01,13:00:36,NA,incomplete,156,gender,3,0,right,A_F_08.jpg,A_M_04.jpg,C_F_09.jpg,left,1169.5899999905378,false,low,NA,NA,NA,NA,NA,NA,NA,false
3jKaBjw3,3ni0wfppjctpbx4ya2wphz5gism608,39owyr0epo4ke5roa5f4sh84awvyfr,3jKaBjw3,2020-0188,2020-06-04,11:59:01,13:00:36,NA,incomplete,157,gender,3,1,right,A_M_14.jpg,A_F_08.jpg,C_M_11.jpg,left,1291.8649999918416,false,low,NA,NA,NA,NA,NA,NA,NA,false
3jKaBjw3,3ni0wfppjctpbx4ya2wphz5gism608,39owyr0epo4ke5roa5f4sh84awvyfr,3jKaBjw3,2020-0188,2020-06-04,11:59:01,13:00:36,NA,incomplete,158,gender,3,1,right,C_F_12.jpg,C_M_04.jpg,A_F_09.jpg,left,1252.2800000007264,false,low,NA,NA,NA,NA,NA,NA,NA,false
3jKaBjw3,3ni0wfppjctpbx4ya2wphz5gism608,39owyr0epo4ke5roa5f4sh84awvyfr,3jKaBjw3,2020-0188,2020-06-04,11:59:01,13:00:36,NA,incomplete,159,gender,3,1,left,A_M_13.jpg,C_M_02.jpg,A_F_01.jpg,right,857.0649999892339,false,low,NA,NA,NA,NA,NA,NA,NA,false
3jKaBjw3,3ni0wfppjctpbx4ya2wphz5gism608,39owyr0epo4ke5roa5f4sh84awvyfr,3jKaBjw3,2020-0188,2020-06-04,11:59:01,13:00:36,NA,incomplete,160,race,2,1,left,C_M_04.jpg,C_F_03.jpg,A_M_13.jpg,left,1215.4599999920465,true,low,NA,NA,NA,NA,NA,NA,NA,false
3jKaBjw3,3ni0wfppjctpbx4ya2wphz5gism608,39owyr0epo4ke5roa5f4sh84awvyfr,3jKaBjw3,2020-0188,2020-06-04,11:59:01,13:00:36,NA,incomplete,161,race,2,1,right,A_M_01.jpg,C_M_08.jpg,A_F_12.jpg,left,1127.3950000032783,false,low,NA,NA,NA,NA,NA,NA,NA,false
3jKaBjw3,3ni0wfppjctpbx4ya2wphz5gism608,39owyr0epo4ke5roa5f4sh84awvyfr,3jKaBjw3,2020-0188,2020-06-04,11:59:01,13:00:36,NA,incomplete,162,race,2,1,right,A_F_07.jpg,C_F_13.jpg,A_M_08.jpg,right,1101.9200000008568,true,low,NA,NA,NA,NA,NA,NA,NA,false
3jKaBjw3,3ni0wfppjctpbx4ya2wphz5gism608,39owyr0epo4ke5roa5f4sh84awvyfr,3jKaBjw3,2020-0188,2020-06-04,11:59:01,13:00:36,NA,incomplete,163,race,2,1,left,C_F_12.jpg,C_M_07.jpg,A_F_03.jpg,left,847.4949999945238,true,low,NA,NA,NA,NA,NA,NA,NA,false
3jKaBjw3,3ni0wfppjctpbx4ya2wphz5gism608,39owyr0epo4ke5roa5f4sh84awvyfr,3jKaBjw3,2020-0188,2020-06-04,11:59:01,13:00:36,NA,incomplete,164,race,2,1,left,C_F_15.jpg,C_M_07.jpg,A_F_14.jpg,left,1051.684999998659,true,low,NA,NA,NA,NA,NA,NA,NA,false
3jKaBjw3,3ni0wfppjctpbx4ya2wphz5gism608,39owyr0epo4ke5roa5f4sh84awvyfr,3jKaBjw3,2020-0188,2020-06-04,11:59:01,13:00:36,NA,incomplete,165,race,2,1,right,A_M_03.jpg,C_M_02.jpg,A_F_11.jpg,right,1179.5600000042468,true,low,NA,NA,NA,NA,NA,NA,NA,false
3jKaBjw3,3ni0wfppjctpbx4ya2wphz5gism608,39owyr0epo4ke5roa5f4sh84awvyfr,3jKaBjw3,2020-0188,2020-06-04,11:59:01,13:00:36,NA,incomplete,166,race,2,1,right,C_F_16.jpg,A_F_05.jpg,C_M_08.jpg,right,837.4649999896064,true,low,NA,NA,NA,NA,NA,NA,NA,false
3jKaBjw3,3ni0wfppjctpbx4ya2wphz5gism608,39owyr0epo4ke5roa5f4sh84awvyfr,3jKaBjw3,2020-0188,2020-06-04,11:59:01,13:00:36,NA,incomplete,167,race,2,0,left,A_F_09.jpg,A_M_10.jpg,C_F_01.jpg,left,1284.3699999940582,true,low,NA,NA,NA,NA,NA,NA,NA,false
3jKaBjw3,3ni0wfppjctpbx4ya2wphz5gism608,39owyr0epo4ke5roa5f4sh84awvyfr,3jKaBjw3,2020-0188,2020-06-04,11:59:01,13:00:36,NA,incomplete,168,race,2,1,right,C_M_13.jpg,A_M_12.jpg,C_F_10.jpg,right,1211.7750000036322,true,low,NA,NA,NA,NA,NA,NA,NA,false
3jKaBjw3,3ni0wfppjctpbx4ya2wphz5gism608,39owyr0epo4ke5roa5f4sh84awvyfr,3jKaBjw3,2020-0188,2020-06-04,11:59:01,13:00:36,NA,incomplete,169,race,2,0,right,A_F_10.jpg,C_F_12.jpg,A_M_14.jpg,right,1002.745000005234,true,low,NA,NA,NA,NA,NA,NA,NA,false
3jKaBjw3,3ni0wfppjctpbx4ya2wphz5gism608,39owyr0epo4ke5roa5f4sh84awvyfr,3jKaBjw3,2020-0188,2020-06-04,11:59:01,13:00:36,NA,incomplete,170,race,2,1,right,A_F_11.jpg,C_F_05.jpg,A_M_08.jpg,right,976.5300000002608,true,low,NA,NA,NA,NA,NA,NA,NA,false
3jKaBjw3,3ni0wfppjctpbx4ya2wphz5gism608,39owyr0epo4ke5roa5f4sh84awvyfr,3jKaBjw3,2020-0188,2020-06-04,11:59:01,13:00:36,NA,incomplete,171,race,2,1,left,A_F_04.jpg,A_M_15.jpg,C_F_05.jpg,left,1121.2649999945424,true,low,NA,NA,NA,NA,NA,NA,NA,false
3jKaBjw3,3ni0wfppjctpbx4ya2wphz5gism608,39owyr0epo4ke5roa5f4sh84awvyfr,3jKaBjw3,2020-0188,2020-06-04,11:59:01,13:00:36,NA,incomplete,172,race,2,1,right,A_F_07.jpg,C_F_12.jpg,A_M_10.jpg,right,1111.7500000107102,true,low,NA,NA,NA,NA,NA,NA,NA,false
3jKaBjw3,3ni0wfppjctpbx4ya2wphz5gism608,39owyr0epo4ke5roa5f4sh84awvyfr,3jKaBjw3,2020-0188,2020-06-04,11:59:01,13:00:36,NA,incomplete,173,race,2,1,right,C_M_16.jpg,A_M_15.jpg,C_F_08.jpg,right,1038.2499999976717,true,low,NA,NA,NA,NA,NA,NA,NA,false
3jKaBjw3,3ni0wfppjctpbx4ya2wphz5gism608,39owyr0epo4ke5roa5f4sh84awvyfr,3jKaBjw3,2020-0188,2020-06-04,11:59:01,13:00:36,NA,incomplete,174,race,2,0,right,C_F_15.jpg,A_F_13.jpg,C_M_14.jpg,right,962.7650000043213,true,low,NA,NA,NA,NA,NA,NA,NA,false
3jKaBjw3,3ni0wfppjctpbx4ya2wphz5gism608,39owyr0epo4ke5roa5f4sh84awvyfr,3jKaBjw3,2020-0188,2020-06-04,11:59:01,13:00:36,NA,incomplete,175,race,2,1,right,A_M_13.jpg,C_M_08.jpg,A_F_06.jpg,left,1504.984999992419,false,low,NA,NA,NA,NA,NA,NA,NA,false
3jKaBjw3,3ni0wfppjctpbx4ya2wphz5gism608,39owyr0epo4ke5roa5f4sh84awvyfr,3jKaBjw3,2020-0188,2020-06-04,11:59:01,13:00:36,NA,incomplete,176,race,2,1,right,A_M_05.jpg,C_M_10.jpg,A_F_09.jpg,right,968.3500000103377,true,low,NA,NA,NA,NA,NA,NA,NA,false
3jKaBjw3,3ni0wfppjctpbx4ya2wphz5gism608,39owyr0epo4ke5roa5f4sh84awvyfr,3jKaBjw3,2020-0188,2020-06-04,11:59:01,13:00:36,NA,incomplete,177,race,2,1,left,A_M_11.jpg,A_F_04.jpg,C_M_10.jpg,left,812.84499999322,true,low,NA,NA,NA,NA,NA,NA,NA,false
3jKaBjw3,3ni0wfppjctpbx4ya2wphz5gism608,39owyr0epo4ke5roa5f4sh84awvyfr,3jKaBjw3,2020-0188,2020-06-04,11:59:01,13:00:36,NA,incomplete,178,race,2,1,left,C_M_03.jpg,C_F_05.jpg,A_M_16.jpg,right,875.7650000043213,false,low,NA,NA,NA,NA,NA,NA,NA,false
3jKaBjw3,3ni0wfppjctpbx4ya2wphz5gism608,39owyr0epo4ke5roa5f4sh84awvyfr,3jKaBjw3,2020-0188,2020-06-04,11:59:01,13:00:36,NA,incomplete,179,race,2,0,right,A_F_01.jpg,C_F_04.jpg,A_M_11.jpg,right,1086.085000002291,true,low,NA,NA,NA,NA,NA,NA,NA,false
3jKaBjw3,3ni0wfppjctpbx4ya2wphz5gism608,39owyr0epo4ke5roa5f4sh84awvyfr,3jKaBjw3,2020-0188,2020-06-04,11:59:01,13:00:36,NA,incomplete,180,gender,3,1,right,A_F_14.jpg,A_M_16.jpg,C_F_05.jpg,left,1161.6849999991246,false,low,NA,NA,NA,NA,NA,NA,NA,false
3jKaBjw3,3ni0wfppjctpbx4ya2wphz5gism608,39owyr0epo4ke5roa5f4sh84awvyfr,3jKaBjw3,2020-0188,2020-06-04,11:59:01,13:00:36,NA,incomplete,181,gender,3,1,left,C_F_11.jpg,A_F_02.jpg,C_M_03.jpg,right,1177.1449999944307,false,low,NA,NA,NA,NA,NA,NA,NA,false
3jKaBjw3,3ni0wfppjctpbx4ya2wphz5gism608,39owyr0epo4ke5roa5f4sh84awvyfr,3jKaBjw3,2020-0188,2020-06-04,11:59:01,13:00:36,NA,incomplete,182,gender,3,1,right,A_M_09.jpg,A_F_10.jpg,C_M_15.jpg,right,1357.3449999969453,true,low,NA,NA,NA,NA,NA,NA,NA,false
3jKaBjw3,3ni0wfppjctpbx4ya2wphz5gism608,39owyr0epo4ke5roa5f4sh84awvyfr,3jKaBjw3,2020-0188,2020-06-04,11:59:01,13:00:36,NA,incomplete,183,gender,3,0,right,A_M_07.jpg,A_F_10.jpg,C_M_14.jpg,left,1311.2950000069104,false,low,NA,NA,NA,NA,NA,NA,NA,false
3jKaBjw3,3ni0wfppjctpbx4ya2wphz5gism608,39owyr0epo4ke5roa5f4sh84awvyfr,3jKaBjw3,2020-0188,2020-06-04,11:59:01,13:00:36,NA,incomplete,184,gender,3,1,right,A_M_03.jpg,A_F_01.jpg,C_M_10.jpg,left,1005.7099999976344,false,low,NA,NA,NA,NA,NA,NA,NA,false
3jKaBjw3,3ni0wfppjctpbx4ya2wphz5gism608,39owyr0epo4ke5roa5f4sh84awvyfr,3jKaBjw3,2020-0188,2020-06-04,11:59:01,13:00:36,NA,incomplete,185,gender,3,0,right,A_F_05.jpg,A_M_03.jpg,C_F_02.jpg,right,1044.3599999998696,true,low,NA,NA,NA,NA,NA,NA,NA,false
3jKaBjw3,3ni0wfppjctpbx4ya2wphz5gism608,39owyr0epo4ke5roa5f4sh84awvyfr,3jKaBjw3,2020-0188,2020-06-04,11:59:01,13:00:36,NA,incomplete,186,gender,3,1,right,C_F_09.jpg,C_M_05.jpg,A_F_13.jpg,left,967.6550000002608,false,low,NA,NA,NA,NA,NA,NA,NA,false
3jKaBjw3,3ni0wfppjctpbx4ya2wphz5gism608,39owyr0epo4ke5roa5f4sh84awvyfr,3jKaBjw3,2020-0188,2020-06-04,11:59:01,13:00:36,NA,incomplete,187,gender,3,1,right,A_F_12.jpg,A_M_07.jpg,C_F_09.jpg,left,1467.015000001993,false,low,NA,NA,NA,NA,NA,NA,NA,false
3jKaBjw3,3ni0wfppjctpbx4ya2wphz5gism608,39owyr0epo4ke5roa5f4sh84awvyfr,3jKaBjw3,2020-0188,2020-06-04,11:59:01,13:00:36,NA,incomplete,188,gender,3,1,left,A_M_14.jpg,C_M_15.jpg,A_F_03.jpg,right,931.5250000073574,false,low,NA,NA,NA,NA,NA,NA,NA,false
3jKaBjw3,3ni0wfppjctpbx4ya2wphz5gism608,39owyr0epo4ke5roa5f4sh84awvyfr,3jKaBjw3,2020-0188,2020-06-04,11:59:01,13:00:36,NA,incomplete,189,gender,3,1,left,C_F_04.jpg,A_F_08.jpg,C_M_13.jpg,right,840.5250000068918,false,low,NA,NA,NA,NA,NA,NA,NA,false
3jKaBjw3,3ni0wfppjctpbx4ya2wphz5gism608,39owyr0epo4ke5roa5f4sh84awvyfr,3jKaBjw3,2020-0188,2020-06-04,11:59:01,13:00:36,NA,incomplete,190,gender,3,1,left,C_M_11.jpg,A_M_15.jpg,C_F_16.jpg,left,1049.6199999903329,true,low,NA,NA,NA,NA,NA,NA,NA,false
3jKaBjw3,3ni0wfppjctpbx4ya2wphz5gism608,39owyr0epo4ke5roa5f4sh84awvyfr,3jKaBjw3,2020-0188,2020-06-04,11:59:01,13:00:36,NA,incomplete,191,gender,3,0,left,A_M_01.jpg,C_M_14.jpg,A_F_11.jpg,right,1072.37999999756,false,low,NA,NA,NA,NA,NA,NA,NA,false
3jKaBjw3,3ni0wfppjctpbx4ya2wphz5gism608,39owyr0epo4ke5roa5f4sh84awvyfr,3jKaBjw3,2020-0188,2020-06-04,11:59:01,13:00:36,NA,incomplete,192,gender,3,1,right,C_F_15.jpg,C_M_10.jpg,A_F_12.jpg,left,985.2900000112131,false,low,NA,NA,NA,NA,NA,NA,NA,false
3jKaBjw3,3ni0wfppjctpbx4ya2wphz5gism608,39owyr0epo4ke5roa5f4sh84awvyfr,3jKaBjw3,2020-0188,2020-06-04,11:59:01,13:00:36,NA,incomplete,193,gender,3,1,left,A_M_07.jpg,C_M_06.jpg,A_F_04.jpg,right,1058.6599999950267,false,low,NA,NA,NA,NA,NA,NA,NA,false
3jKaBjw3,3ni0wfppjctpbx4ya2wphz5gism608,39owyr0epo4ke5roa5f4sh84awvyfr,3jKaBjw3,2020-0188,2020-06-04,11:59:01,13:00:36,NA,incomplete,194,gender,3,1,right,A_F_07.jpg,A_M_03.jpg,C_F_01.jpg,left,1470.4500000076368,false,low,NA,NA,NA,NA,NA,NA,NA,false
3jKaBjw3,3ni0wfppjctpbx4ya2wphz5gism608,39owyr0epo4ke5roa5f4sh84awvyfr,3jKaBjw3,2020-0188,2020-06-04,11:59:01,13:00:36,NA,incomplete,195,gender,3,1,left,A_M_06.jpg,C_M_04.jpg,A_F_01.jpg,right,941.9550000019372,false,low,NA,NA,NA,NA,NA,NA,NA,false
3jKaBjw3,3ni0wfppjctpbx4ya2wphz5gism608,39owyr0epo4ke5roa5f4sh84awvyfr,3jKaBjw3,2020-0188,2020-06-04,11:59:01,13:00:36,NA,incomplete,196,gender,3,0,left,A_F_03.jpg,C_F_11.jpg,A_M_01.jpg,right,1048.190000001341,false,low,NA,NA,NA,NA,NA,NA,NA,false
3jKaBjw3,3ni0wfppjctpbx4ya2wphz5gism608,39owyr0epo4ke5roa5f4sh84awvyfr,3jKaBjw3,2020-0188,2020-06-04,11:59:01,13:00:36,NA,incomplete,197,gender,3,1,left,C_F_03.jpg,A_F_06.jpg,C_M_05.jpg,right,918.7700000042096,false,low,NA,NA,NA,NA,NA,NA,NA,false
3jKaBjw3,3ni0wfppjctpbx4ya2wphz5gism608,39owyr0epo4ke5roa5f4sh84awvyfr,3jKaBjw3,2020-0188,2020-06-04,11:59:01,13:00:36,NA,incomplete,198,gender,3,0,right,C_M_02.jpg,C_F_10.jpg,A_M_11.jpg,right,1119.0400000051595,true,low,NA,NA,NA,NA,NA,NA,NA,false
3jKaBjw3,3ni0wfppjctpbx4ya2wphz5gism608,39owyr0epo4ke5roa5f4sh84awvyfr,3jKaBjw3,2020-0188,2020-06-04,11:59:01,13:00:36,NA,incomplete,199,gender,3,1,left,A_F_07.jpg,C_F_02.jpg,A_M_05.jpg,right,1007.964999997057,false,low,NA,NA,NA,NA,NA,NA,NA,false
3jKaBjw3,3ni0wfppjctpbx4ya2wphz5gism608,39owyr0epo4ke5roa5f4sh84awvyfr,3jKaBjw3,2020-0188,2020-06-04,11:59:01,13:00:36,NA,incomplete,200,race,2,1,left,C_F_03.jpg,C_M_04.jpg,A_F_07.jpg,left,1002.0749999969266,true,low,NA,NA,NA,NA,NA,NA,NA,false
3jKaBjw3,3ni0wfppjctpbx4ya2wphz5gism608,39owyr0epo4ke5roa5f4sh84awvyfr,3jKaBjw3,2020-0188,2020-06-04,11:59:01,13:00:36,NA,incomplete,201,race,2,0,right,A_M_08.jpg,C_M_06.jpg,A_F_03.jpg,right,870.3299999907613,true,low,NA,NA,NA,NA,NA,NA,NA,false
3jKaBjw3,3ni0wfppjctpbx4ya2wphz5gism608,39owyr0epo4ke5roa5f4sh84awvyfr,3jKaBjw3,2020-0188,2020-06-04,11:59:01,13:00:36,NA,incomplete,202,race,2,1,left,C_M_01.jpg,C_F_09.jpg,A_M_05.jpg,left,1090.2099999948405,true,low,NA,NA,NA,NA,NA,NA,NA,false
3jKaBjw3,3ni0wfppjctpbx4ya2wphz5gism608,39owyr0epo4ke5roa5f4sh84awvyfr,3jKaBjw3,2020-0188,2020-06-04,11:59:01,13:00:36,NA,incomplete,203,race,2,1,left,A_M_13.jpg,A_F_09.jpg,C_M_16.jpg,left,1122.5550000090152,true,low,NA,NA,NA,NA,NA,NA,NA,false
3jKaBjw3,3ni0wfppjctpbx4ya2wphz5gism608,39owyr0epo4ke5roa5f4sh84awvyfr,3jKaBjw3,2020-0188,2020-06-04,11:59:01,13:00:36,NA,incomplete,204,race,2,0,left,A_F_15.jpg,A_M_10.jpg,C_F_08.jpg,left,1383.920000007376,true,low,NA,NA,NA,NA,NA,NA,NA,false
3jKaBjw3,3ni0wfppjctpbx4ya2wphz5gism608,39owyr0epo4ke5roa5f4sh84awvyfr,3jKaBjw3,2020-0188,2020-06-04,11:59:01,13:00:36,NA,incomplete,205,race,2,1,left,C_M_08.jpg,C_F_01.jpg,A_M_03.jpg,right,880.1200000015087,false,low,NA,NA,NA,NA,NA,NA,NA,false
3jKaBjw3,3ni0wfppjctpbx4ya2wphz5gism608,39owyr0epo4ke5roa5f4sh84awvyfr,3jKaBjw3,2020-0188,2020-06-04,11:59:01,13:00:36,NA,incomplete,206,race,2,0,left,C_M_09.jpg,C_F_15.jpg,A_M_16.jpg,left,1074.6099999961443,true,low,NA,NA,NA,NA,NA,NA,NA,false
3jKaBjw3,3ni0wfppjctpbx4ya2wphz5gism608,39owyr0epo4ke5roa5f4sh84awvyfr,3jKaBjw3,2020-0188,2020-06-04,11:59:01,13:00:36,NA,incomplete,207,race,2,1,left,A_M_09.jpg,A_F_06.jpg,C_M_02.jpg,left,1324.2949999985285,true,low,NA,NA,NA,NA,NA,NA,NA,false
3jKaBjw3,3ni0wfppjctpbx4ya2wphz5gism608,39owyr0epo4ke5roa5f4sh84awvyfr,3jKaBjw3,2020-0188,2020-06-04,11:59:01,13:00:36,NA,incomplete,208,race,2,1,right,C_M_12.jpg,A_M_03.jpg,C_F_11.jpg,left,1205.3650000016205,false,low,NA,NA,NA,NA,NA,NA,NA,false
3jKaBjw3,3ni0wfppjctpbx4ya2wphz5gism608,39owyr0epo4ke5roa5f4sh84awvyfr,3jKaBjw3,2020-0188,2020-06-04,11:59:01,13:00:36,NA,incomplete,209,race,2,1,left,C_M_07.jpg,C_F_11.jpg,A_M_05.jpg,left,1364.7550000026822,true,low,NA,NA,NA,NA,NA,NA,NA,false
3jKaBjw3,3ni0wfppjctpbx4ya2wphz5gism608,39owyr0epo4ke5roa5f4sh84awvyfr,3jKaBjw3,2020-0188,2020-06-04,11:59:01,13:00:36,NA,incomplete,210,race,2,1,left,C_F_11.jpg,C_M_15.jpg,A_F_09.jpg,right,1275.8800000008196,false,low,NA,NA,NA,NA,NA,NA,NA,false
3jKaBjw3,3ni0wfppjctpbx4ya2wphz5gism608,39owyr0epo4ke5roa5f4sh84awvyfr,3jKaBjw3,2020-0188,2020-06-04,11:59:01,13:00:36,NA,incomplete,211,race,2,1,left,A_M_06.jpg,A_F_03.jpg,C_M_02.jpg,left,843.5849999953061,true,low,NA,NA,NA,NA,NA,NA,NA,false
3jKaBjw3,3ni0wfppjctpbx4ya2wphz5gism608,39owyr0epo4ke5roa5f4sh84awvyfr,3jKaBjw3,2020-0188,2020-06-04,11:59:01,13:00:36,NA,incomplete,212,race,2,1,left,A_F_11.jpg,A_M_15.jpg,C_F_03.jpg,left,780.0750000025146,true,low,NA,NA,NA,NA,NA,NA,NA,false
3jKaBjw3,3ni0wfppjctpbx4ya2wphz5gism608,39owyr0epo4ke5roa5f4sh84awvyfr,3jKaBjw3,2020-0188,2020-06-04,11:59:01,13:00:36,NA,incomplete,213,race,2,1,right,A_M_05.jpg,C_M_10.jpg,A_F_13.jpg,right,767.5250000027008,true,low,NA,NA,NA,NA,NA,NA,NA,false
3jKaBjw3,3ni0wfppjctpbx4ya2wphz5gism608,39owyr0epo4ke5roa5f4sh84awvyfr,3jKaBjw3,2020-0188,2020-06-04,11:59:01,13:00:36,NA,incomplete,214,race,2,1,right,C_F_05.jpg,A_F_08.jpg,C_M_03.jpg,left,825.6249999976717,false,low,NA,NA,NA,NA,NA,NA,NA,false
3jKaBjw3,3ni0wfppjctpbx4ya2wphz5gism608,39owyr0epo4ke5roa5f4sh84awvyfr,3jKaBjw3,2020-0188,2020-06-04,11:59:01,13:00:36,NA,incomplete,215,race,2,1,right,C_F_01.jpg,A_F_08.jpg,C_M_13.jpg,right,897.8749999948777,true,low,NA,NA,NA,NA,NA,NA,NA,false
3jKaBjw3,3ni0wfppjctpbx4ya2wphz5gism608,39owyr0epo4ke5roa5f4sh84awvyfr,3jKaBjw3,2020-0188,2020-06-04,11:59:01,13:00:36,NA,incomplete,216,race,2,0,left,A_F_06.jpg,A_M_04.jpg,C_F_05.jpg,left,784.4450000124052,true,low,NA,NA,NA,NA,NA,NA,NA,false
3jKaBjw3,3ni0wfppjctpbx4ya2wphz5gism608,39owyr0epo4ke5roa5f4sh84awvyfr,3jKaBjw3,2020-0188,2020-06-04,11:59:01,13:00:36,NA,incomplete,217,race,2,1,right,A_F_11.jpg,C_F_15.jpg,A_M_05.jpg,right,736.055000001099,true,low,NA,NA,NA,NA,NA,NA,NA,false
3jKaBjw3,3ni0wfppjctpbx4ya2wphz5gism608,39owyr0epo4ke5roa5f4sh84awvyfr,3jKaBjw3,2020-0188,2020-06-04,11:59:01,13:00:36,NA,incomplete,218,race,2,0,left,C_M_14.jpg,C_F_04.jpg,A_M_16.jpg,right,767.6000000066124,false,low,NA,NA,NA,NA,NA,NA,NA,false
3jKaBjw3,3ni0wfppjctpbx4ya2wphz5gism608,39owyr0epo4ke5roa5f4sh84awvyfr,3jKaBjw3,2020-0188,2020-06-04,11:59:01,13:00:36,NA,incomplete,219,race,2,1,left,A_F_08.jpg,A_M_12.jpg,C_F_02.jpg,left,699.3550000041723,true,low,NA,NA,NA,NA,NA,NA,NA,false
3jKaBjw3,3ni0wfppjctpbx4ya2wphz5gism608,39owyr0epo4ke5roa5f4sh84awvyfr,3jKaBjw3,2020-0188,2020-06-04,11:59:01,13:00:36,NA,incomplete,220,gender,3,1,left,A_F_02.jpg,C_F_05.jpg,A_M_15.jpg,right,726.0650000101887,false,low,NA,NA,NA,NA,NA,NA,NA,false
3jKaBjw3,3ni0wfppjctpbx4ya2wphz5gism608,39owyr0epo4ke5roa5f4sh84awvyfr,3jKaBjw3,2020-0188,2020-06-04,11:59:01,13:00:36,NA,incomplete,221,gender,3,1,left,A_F_13.jpg,C_F_16.jpg,A_M_10.jpg,right,777.1199999987148,false,low,NA,NA,NA,NA,NA,NA,NA,false
3jKaBjw3,3ni0wfppjctpbx4ya2wphz5gism608,39owyr0epo4ke5roa5f4sh84awvyfr,3jKaBjw3,2020-0188,2020-06-04,11:59:01,13:00:36,NA,incomplete,222,gender,3,0,left,C_F_02.jpg,A_F_12.jpg,C_M_03.jpg,right,1037.299999996554,false,low,NA,NA,NA,NA,NA,NA,NA,false
3jKaBjw3,3ni0wfppjctpbx4ya2wphz5gism608,39owyr0epo4ke5roa5f4sh84awvyfr,3jKaBjw3,2020-0188,2020-06-04,11:59:01,13:00:36,NA,incomplete,223,gender,3,1,left,A_F_02.jpg,C_F_08.jpg,A_M_13.jpg,right,924.9300000085495,false,low,NA,NA,NA,NA,NA,NA,NA,false
3jKaBjw3,3ni0wfppjctpbx4ya2wphz5gism608,39owyr0epo4ke5roa5f4sh84awvyfr,3jKaBjw3,2020-0188,2020-06-04,11:59:01,13:00:36,NA,incomplete,224,gender,3,1,left,C_M_14.jpg,A_M_01.jpg,C_F_15.jpg,right,860.0799999986775,false,low,NA,NA,NA,NA,NA,NA,NA,false
3jKaBjw3,3ni0wfppjctpbx4ya2wphz5gism608,39owyr0epo4ke5roa5f4sh84awvyfr,3jKaBjw3,2020-0188,2020-06-04,11:59:01,13:00:36,NA,incomplete,225,gender,3,1,left,A_M_07.jpg,C_M_14.jpg,A_F_12.jpg,left,1234.175000004936,true,low,NA,NA,NA,NA,NA,NA,NA,false
3jKaBjw3,3ni0wfppjctpbx4ya2wphz5gism608,39owyr0epo4ke5roa5f4sh84awvyfr,3jKaBjw3,2020-0188,2020-06-04,11:59:01,13:00:36,NA,incomplete,226,gender,3,1,left,C_F_07.jpg,A_F_05.jpg,C_M_03.jpg,right,740.2849999926984,false,low,NA,NA,NA,NA,NA,NA,NA,false
3jKaBjw3,3ni0wfppjctpbx4ya2wphz5gism608,39owyr0epo4ke5roa5f4sh84awvyfr,3jKaBjw3,2020-0188,2020-06-04,11:59:01,13:00:36,NA,incomplete,227,gender,3,0,right,A_M_15.jpg,A_F_04.jpg,C_M_03.jpg,left,776.7749999910593,false,low,NA,NA,NA,NA,NA,NA,NA,false
3jKaBjw3,3ni0wfppjctpbx4ya2wphz5gism608,39owyr0epo4ke5roa5f4sh84awvyfr,3jKaBjw3,2020-0188,2020-06-04,11:59:01,13:00:36,NA,incomplete,228,gender,3,1,left,C_F_09.jpg,A_F_04.jpg,C_M_10.jpg,right,933.3750000079162,false,low,NA,NA,NA,NA,NA,NA,NA,false
3jKaBjw3,3ni0wfppjctpbx4ya2wphz5gism608,39owyr0epo4ke5roa5f4sh84awvyfr,3jKaBjw3,2020-0188,2020-06-04,11:59:01,13:00:36,NA,incomplete,229,gender,3,1,right,A_M_06.jpg,A_F_03.jpg,C_M_15.jpg,left,1141.5149999959394,false,low,NA,NA,NA,NA,NA,NA,NA,false
3jKaBjw3,3ni0wfppjctpbx4ya2wphz5gism608,39owyr0epo4ke5roa5f4sh84awvyfr,3jKaBjw3,2020-0188,2020-06-04,11:59:01,13:00:36,NA,incomplete,230,gender,3,1,left,A_F_05.jpg,C_F_15.jpg,A_M_07.jpg,left,930.4949999931268,true,low,NA,NA,NA,NA,NA,NA,NA,false
3jKaBjw3,3ni0wfppjctpbx4ya2wphz5gism608,39owyr0epo4ke5roa5f4sh84awvyfr,3jKaBjw3,2020-0188,2020-06-04,11:59:01,13:00:36,NA,incomplete,231,gender,3,1,right,C_F_05.jpg,C_M_03.jpg,A_F_06.jpg,right,933.4150000070222,true,low,NA,NA,NA,NA,NA,NA,NA,false
3jKaBjw3,3ni0wfppjctpbx4ya2wphz5gism608,39owyr0epo4ke5roa5f4sh84awvyfr,3jKaBjw3,2020-0188,2020-06-04,11:59:01,13:00:36,NA,incomplete,232,gender,3,1,right,C_F_05.jpg,C_M_16.jpg,A_F_12.jpg,right,756.7500000004657,true,low,NA,NA,NA,NA,NA,NA,NA,false
3jKaBjw3,3ni0wfppjctpbx4ya2wphz5gism608,39owyr0epo4ke5roa5f4sh84awvyfr,3jKaBjw3,2020-0188,2020-06-04,11:59:01,13:00:36,NA,incomplete,233,gender,3,0,right,A_F_02.jpg,A_M_11.jpg,C_F_05.jpg,right,780.0799999972805,true,low,NA,NA,NA,NA,NA,NA,NA,false
3jKaBjw3,3ni0wfppjctpbx4ya2wphz5gism608,39owyr0epo4ke5roa5f4sh84awvyfr,3jKaBjw3,2020-0188,2020-06-04,11:59:01,13:00:36,NA,incomplete,234,gender,3,1,right,C_M_01.jpg,C_F_06.jpg,A_M_13.jpg,right,1104.370000001043,true,low,NA,NA,NA,NA,NA,NA,NA,false
3jKaBjw3,3ni0wfppjctpbx4ya2wphz5gism608,39owyr0epo4ke5roa5f4sh84awvyfr,3jKaBjw3,2020-0188,2020-06-04,11:59:01,13:00:36,NA,incomplete,235,gender,3,1,left,A_M_15.jpg,C_M_06.jpg,A_F_11.jpg,right,1125.4249999909662,false,low,NA,NA,NA,NA,NA,NA,NA,false
3jKaBjw3,3ni0wfppjctpbx4ya2wphz5gism608,39owyr0epo4ke5roa5f4sh84awvyfr,3jKaBjw3,2020-0188,2020-06-04,11:59:01,13:00:36,NA,incomplete,236,gender,3,1,right,C_F_02.jpg,C_M_16.jpg,A_F_14.jpg,right,1106.4749999931082,true,low,NA,NA,NA,NA,NA,NA,NA,false
3jKaBjw3,3ni0wfppjctpbx4ya2wphz5gism608,39owyr0epo4ke5roa5f4sh84awvyfr,3jKaBjw3,2020-0188,2020-06-04,11:59:01,13:00:36,NA,incomplete,237,gender,3,1,left,C_F_05.jpg,A_F_12.jpg,C_M_10.jpg,left,783.890000006184,true,low,NA,NA,NA,NA,NA,NA,NA,false
3jKaBjw3,3ni0wfppjctpbx4ya2wphz5gism608,39owyr0epo4ke5roa5f4sh84awvyfr,3jKaBjw3,2020-0188,2020-06-04,11:59:01,13:00:36,NA,incomplete,238,gender,3,1,right,C_M_12.jpg,C_F_10.jpg,A_M_06.jpg,right,983.8899999884889,true,low,NA,NA,NA,NA,NA,NA,NA,false
3jKaBjw3,3ni0wfppjctpbx4ya2wphz5gism608,39owyr0epo4ke5roa5f4sh84awvyfr,3jKaBjw3,2020-0188,2020-06-04,11:59:01,13:00:36,NA,incomplete,239,gender,3,1,right,A_F_09.jpg,A_M_04.jpg,C_F_01.jpg,left,1041.019999989774,false,low,NA,NA,NA,NA,NA,NA,NA,false
3jKaBjw3,3ni0wfppjctpbx4ya2wphz5gism608,39owyr0epo4ke5roa5f4sh84awvyfr,3jKaBjw3,2020-0188,2020-06-04,11:59:01,13:00:36,NA,NA,instruction example,number,NA,NA,NA,Green_Triangle_Stripes_1.jpg,Purple_Circle_Grid_1.jpg,Blue_Triangle_Dots_4.jpg,NA,NA,NA,NA,NA,NA,NA,NA,NA,NA,NA,undefined
3jKaBjw3,3ni0wfppjctpbx4ya2wphz5gism608,39owyr0epo4ke5roa5f4sh84awvyfr,3jKaBjw3,2020-0188,2020-06-04,11:59:01,13:00:36,NA,NA,instruction example,number,NA,NA,NA,Purple_Plus_Grid_4.jpg,Red_Plus_Stripes_3.jpg,Green_Circle_Dots_4.jpg,NA,NA,NA,NA,NA,NA,NA,NA,NA,NA,NA,undefined
3jKaBjw3,3ni0wfppjctpbx4ya2wphz5gism608,39owyr0epo4ke5roa5f4sh84awvyfr,3jKaBjw3,2020-0188,2020-06-04,11:59:01,13:00:36,NA,NA,instruction example,number,NA,NA,NA,A_M_15.jpg,A_F_06.jpg,C_M_04.jpg,NA,NA,NA,NA,NA,NA,NA,NA,NA,NA,NA,undefined
3jKaBjw3,3ni0wfppjctpbx4ya2wphz5gism608,39owyr0epo4ke5roa5f4sh84awvyfr,3jKaBjw3,2020-0188,2020-06-04,11:59:01,13:00:36,NA,NA,instruction example,number,NA,NA,NA,A_M_09.jpg,C_M_06.jpg,A_F_07.jpg,NA,NA,NA,NA,NA,NA,NA,NA,NA,NA,NA,undefined
3jKaBjw3,3ni0wfppjctpbx4ya2wphz5gism608,39owyr0epo4ke5roa5f4sh84awvyfr,3jKaBjw3,2020-0188,2020-06-04,11:59:01,13:00:36,3635893.01,3696294.345000002,NA,NA,NA,NA,NA,NA,NA,NA,NA,NA,NA,NA,53,Black/African American,Female,Black,no,no,no,undefined
