workerId,hitId,assignmentId,subject,studyid,exp_date,exp_start,exp_end,time_start,time_end,trial,type,sequence,reward_validity,answer,image_top,image_left,image_right,response,response_time,response_acc,volatility,age,race,gender,ethnicity,color,vision,neuro,practice
kKOd4igh,3oplmf3ev80afezcyc4phujqmmslnu,39u1bhvtdp4th7c1g4r3jrrtofut3u,kKOd4igh,2020-0188,2020-11-16,20:18:54,20:37:27,NA,incomplete,0,number,0,1,left,Green_Triangle_Stripes_4.jpg,Red_Star_Grid_4.jpg,Purple_Triangle_Dots_3.jpg,left,1335.3899999929126,true,NA,NA,NA,NA,NA,NA,NA,NA,true
kKOd4igh,3oplmf3ev80afezcyc4phujqmmslnu,39u1bhvtdp4th7c1g4r3jrrtofut3u,kKOd4igh,2020-0188,2020-11-16,20:18:54,20:37:27,NA,incomplete,1,number,0,1,right,Red_Triangle_Dots_2.jpg,Purple_Triangle_Stripes_3.jpg,Green_Plus_Grid_2.jpg,right,1285.6550000142306,true,NA,NA,NA,NA,NA,NA,NA,NA,true
kKOd4igh,3oplmf3ev80afezcyc4phujqmmslnu,39u1bhvtdp4th7c1g4r3jrrtofut3u,kKOd4igh,2020-0188,2020-11-16,20:18:54,20:37:27,NA,incomplete,2,number,0,1,right,Blue_Star_Chess_2.jpg,Red_Star_Grid_1.jpg,Purple_Plus_Stripes_2.jpg,right,901.0800000105519,true,NA,NA,NA,NA,NA,NA,NA,NA,true
kKOd4igh,3oplmf3ev80afezcyc4phujqmmslnu,39u1bhvtdp4th7c1g4r3jrrtofut3u,kKOd4igh,2020-0188,2020-11-16,20:18:54,20:37:27,NA,incomplete,3,number,0,1,left,Purple_Circle_Grid_3.jpg,Red_Star_Dots_3.jpg,Blue_Circle_Stripes_1.jpg,left,923.2250000059139,true,NA,NA,NA,NA,NA,NA,NA,NA,true
kKOd4igh,3oplmf3ev80afezcyc4phujqmmslnu,39u1bhvtdp4th7c1g4r3jrrtofut3u,kKOd4igh,2020-0188,2020-11-16,20:18:54,20:37:27,NA,incomplete,4,number,0,1,right,Green_Star_Dots_1.jpg,Purple_Star_Grid_2.jpg,Red_Circle_Stripes_1.jpg,right,857.2500000009313,true,NA,NA,NA,NA,NA,NA,NA,NA,true
kKOd4igh,3oplmf3ev80afezcyc4phujqmmslnu,39u1bhvtdp4th7c1g4r3jrrtofut3u,kKOd4igh,2020-0188,2020-11-16,20:18:54,20:37:27,NA,incomplete,5,number,0,0,left,Blue_Plus_Stripes_2.jpg,Red_Triangle_Dots_2.jpg,Green_Plus_Chess_3.jpg,left,798.0199999874458,true,NA,NA,NA,NA,NA,NA,NA,NA,true
kKOd4igh,3oplmf3ev80afezcyc4phujqmmslnu,39u1bhvtdp4th7c1g4r3jrrtofut3u,kKOd4igh,2020-0188,2020-11-16,20:18:54,20:37:27,NA,incomplete,6,number,0,1,right,Blue_Circle_Stripes_3.jpg,Green_Circle_Chess_4.jpg,Red_Star_Dots_3.jpg,right,1050.2850000048056,true,NA,NA,NA,NA,NA,NA,NA,NA,true
kKOd4igh,3oplmf3ev80afezcyc4phujqmmslnu,39u1bhvtdp4th7c1g4r3jrrtofut3u,kKOd4igh,2020-0188,2020-11-16,20:18:54,20:37:27,NA,incomplete,7,number,0,1,right,Blue_Star_Dots_2.jpg,Red_Star_Chess_3.jpg,Purple_Plus_Stripes_2.jpg,right,890.369999979157,true,NA,NA,NA,NA,NA,NA,NA,NA,true
kKOd4igh,3oplmf3ev80afezcyc4phujqmmslnu,39u1bhvtdp4th7c1g4r3jrrtofut3u,kKOd4igh,2020-0188,2020-11-16,20:18:54,20:37:27,NA,incomplete,8,number,0,1,right,Green_Plus_Grid_4.jpg,Red_Plus_Stripes_1.jpg,Purple_Star_Dots_4.jpg,right,898.1450000137556,true,NA,NA,NA,NA,NA,NA,NA,NA,true
kKOd4igh,3oplmf3ev80afezcyc4phujqmmslnu,39u1bhvtdp4th7c1g4r3jrrtofut3u,kKOd4igh,2020-0188,2020-11-16,20:18:54,20:37:27,NA,incomplete,9,number,0,1,right,Green_Circle_Dots_3.jpg,Blue_Circle_Chess_4.jpg,Purple_Star_Stripes_3.jpg,left,1245.4500000167172,false,NA,NA,NA,NA,NA,NA,NA,NA,true
kKOd4igh,3oplmf3ev80afezcyc4phujqmmslnu,39u1bhvtdp4th7c1g4r3jrrtofut3u,kKOd4igh,2020-0188,2020-11-16,20:18:54,20:37:27,NA,incomplete,10,number,0,0,right,Purple_Star_Dots_4.jpg,Red_Star_Stripes_1.jpg,Green_Circle_Chess_4.jpg,right,924.8500000103377,true,NA,NA,NA,NA,NA,NA,NA,NA,true
kKOd4igh,3oplmf3ev80afezcyc4phujqmmslnu,39u1bhvtdp4th7c1g4r3jrrtofut3u,kKOd4igh,2020-0188,2020-11-16,20:18:54,20:37:27,NA,incomplete,11,number,0,0,right,Blue_Circle_Chess_4.jpg,Green_Circle_Stripes_2.jpg,Purple_Star_Grid_4.jpg,right,1245.31000002753,true,NA,NA,NA,NA,NA,NA,NA,NA,true
kKOd4igh,3oplmf3ev80afezcyc4phujqmmslnu,39u1bhvtdp4th7c1g4r3jrrtofut3u,kKOd4igh,2020-0188,2020-11-16,20:18:54,20:37:27,NA,incomplete,12,number,0,1,left,Green_Circle_Dots_1.jpg,Blue_Triangle_Stripes_1.jpg,Purple_Circle_Grid_3.jpg,left,1110.1950000156648,true,NA,NA,NA,NA,NA,NA,NA,NA,true
kKOd4igh,3oplmf3ev80afezcyc4phujqmmslnu,39u1bhvtdp4th7c1g4r3jrrtofut3u,kKOd4igh,2020-0188,2020-11-16,20:18:54,20:37:27,NA,incomplete,13,number,0,1,right,Green_Plus_Stripes_3.jpg,Red_Plus_Chess_1.jpg,Blue_Triangle_Grid_3.jpg,right,956.7699999897741,true,NA,NA,NA,NA,NA,NA,NA,NA,true
kKOd4igh,3oplmf3ev80afezcyc4phujqmmslnu,39u1bhvtdp4th7c1g4r3jrrtofut3u,kKOd4igh,2020-0188,2020-11-16,20:18:54,20:37:27,NA,incomplete,14,number,0,1,right,Blue_Circle_Grid_2.jpg,Red_Circle_Stripes_1.jpg,Green_Star_Chess_2.jpg,right,939.4600000232458,true,NA,NA,NA,NA,NA,NA,NA,NA,true
kKOd4igh,3oplmf3ev80afezcyc4phujqmmslnu,39u1bhvtdp4th7c1g4r3jrrtofut3u,kKOd4igh,2020-0188,2020-11-16,20:18:54,20:37:27,NA,incomplete,15,number,0,1,right,Blue_Circle_Grid_2.jpg,Purple_Circle_Dots_1.jpg,Green_Plus_Chess_2.jpg,right,899.7400000225753,true,NA,NA,NA,NA,NA,NA,NA,NA,true
kKOd4igh,3oplmf3ev80afezcyc4phujqmmslnu,39u1bhvtdp4th7c1g4r3jrrtofut3u,kKOd4igh,2020-0188,2020-11-16,20:18:54,20:37:27,NA,incomplete,16,number,0,1,right,Purple_Plus_Grid_1.jpg,Blue_Plus_Stripes_2.jpg,Green_Star_Chess_1.jpg,left,890.4550000152085,false,NA,NA,NA,NA,NA,NA,NA,NA,true
kKOd4igh,3oplmf3ev80afezcyc4phujqmmslnu,39u1bhvtdp4th7c1g4r3jrrtofut3u,kKOd4igh,2020-0188,2020-11-16,20:18:54,20:37:27,NA,incomplete,17,number,0,0,right,Purple_Circle_Stripes_4.jpg,Green_Circle_Grid_3.jpg,Blue_Plus_Chess_4.jpg,right,1118.6600000073668,true,NA,NA,NA,NA,NA,NA,NA,NA,true
kKOd4igh,3oplmf3ev80afezcyc4phujqmmslnu,39u1bhvtdp4th7c1g4r3jrrtofut3u,kKOd4igh,2020-0188,2020-11-16,20:18:54,20:37:27,NA,incomplete,18,number,0,1,right,Red_Plus_Stripes_4.jpg,Blue_Plus_Chess_2.jpg,Green_Star_Grid_4.jpg,right,1084.1199999849778,true,NA,NA,NA,NA,NA,NA,NA,NA,true
kKOd4igh,3oplmf3ev80afezcyc4phujqmmslnu,39u1bhvtdp4th7c1g4r3jrrtofut3u,kKOd4igh,2020-0188,2020-11-16,20:18:54,20:37:27,NA,incomplete,19,number,0,1,right,Red_Plus_Dots_4.jpg,Purple_Plus_Grid_2.jpg,Green_Circle_Stripes_4.jpg,right,895.8749999874271,true,NA,NA,NA,NA,NA,NA,NA,NA,true
kKOd4igh,3oplmf3ev80afezcyc4phujqmmslnu,39u1bhvtdp4th7c1g4r3jrrtofut3u,kKOd4igh,2020-0188,2020-11-16,20:18:54,20:37:27,NA,incomplete,20,shape,1,1,right,Blue_Circle_Chess_4.jpg,Purple_Star_Grid_4.jpg,Red_Circle_Dots_3.jpg,right,1063.834999979008,true,NA,NA,NA,NA,NA,NA,NA,NA,true
kKOd4igh,3oplmf3ev80afezcyc4phujqmmslnu,39u1bhvtdp4th7c1g4r3jrrtofut3u,kKOd4igh,2020-0188,2020-11-16,20:18:54,20:37:27,NA,incomplete,21,shape,1,1,right,Blue_Star_Chess_4.jpg,Purple_Plus_Dots_4.jpg,Green_Star_Grid_2.jpg,left,1363.2700000016484,false,NA,NA,NA,NA,NA,NA,NA,NA,true
kKOd4igh,3oplmf3ev80afezcyc4phujqmmslnu,39u1bhvtdp4th7c1g4r3jrrtofut3u,kKOd4igh,2020-0188,2020-11-16,20:18:54,20:37:27,NA,incomplete,22,shape,1,1,right,Purple_Star_Stripes_4.jpg,Red_Circle_Dots_4.jpg,Blue_Star_Grid_3.jpg,right,880.4050000035204,true,NA,NA,NA,NA,NA,NA,NA,NA,true
kKOd4igh,3oplmf3ev80afezcyc4phujqmmslnu,39u1bhvtdp4th7c1g4r3jrrtofut3u,kKOd4igh,2020-0188,2020-11-16,20:18:54,20:37:27,NA,incomplete,23,shape,1,1,right,Purple_Star_Grid_2.jpg,Red_Circle_Chess_2.jpg,Blue_Star_Stripes_1.jpg,right,702.1900000108872,true,NA,NA,NA,NA,NA,NA,NA,NA,true
kKOd4igh,3oplmf3ev80afezcyc4phujqmmslnu,39u1bhvtdp4th7c1g4r3jrrtofut3u,kKOd4igh,2020-0188,2020-11-16,20:18:54,20:37:27,NA,incomplete,24,shape,1,1,right,Purple_Triangle_Stripes_3.jpg,Blue_Star_Dots_3.jpg,Red_Triangle_Chess_1.jpg,right,690.7350000110455,true,NA,NA,NA,NA,NA,NA,NA,NA,true
kKOd4igh,3oplmf3ev80afezcyc4phujqmmslnu,39u1bhvtdp4th7c1g4r3jrrtofut3u,kKOd4igh,2020-0188,2020-11-16,20:18:54,20:37:27,NA,incomplete,25,shape,1,1,right,Green_Circle_Grid_3.jpg,Red_Triangle_Stripes_3.jpg,Purple_Circle_Chess_1.jpg,right,696.9550000212621,true,NA,NA,NA,NA,NA,NA,NA,NA,true
kKOd4igh,3oplmf3ev80afezcyc4phujqmmslnu,39u1bhvtdp4th7c1g4r3jrrtofut3u,kKOd4igh,2020-0188,2020-11-16,20:18:54,20:37:27,NA,incomplete,26,shape,1,1,left,Red_Triangle_Stripes_2.jpg,Purple_Triangle_Grid_1.jpg,Green_Circle_Dots_2.jpg,left,868.2350000017323,true,NA,NA,NA,NA,NA,NA,NA,NA,true
kKOd4igh,3oplmf3ev80afezcyc4phujqmmslnu,39u1bhvtdp4th7c1g4r3jrrtofut3u,kKOd4igh,2020-0188,2020-11-16,20:18:54,20:37:27,NA,incomplete,27,shape,1,0,right,Green_Star_Grid_3.jpg,Blue_Circle_Stripes_3.jpg,Purple_Star_Chess_1.jpg,right,743.6149999848567,true,NA,NA,NA,NA,NA,NA,NA,NA,true
kKOd4igh,3oplmf3ev80afezcyc4phujqmmslnu,39u1bhvtdp4th7c1g4r3jrrtofut3u,kKOd4igh,2020-0188,2020-11-16,20:18:54,20:37:27,NA,incomplete,28,shape,1,1,right,Green_Plus_Grid_3.jpg,Blue_Triangle_Dots_3.jpg,Red_Plus_Stripes_1.jpg,right,831.9600000104401,true,NA,NA,NA,NA,NA,NA,NA,NA,true
kKOd4igh,3oplmf3ev80afezcyc4phujqmmslnu,39u1bhvtdp4th7c1g4r3jrrtofut3u,kKOd4igh,2020-0188,2020-11-16,20:18:54,20:37:27,NA,incomplete,29,shape,1,1,right,Green_Triangle_Grid_2.jpg,Blue_Plus_Chess_2.jpg,Purple_Triangle_Dots_3.jpg,right,710.4050000198185,true,NA,NA,NA,NA,NA,NA,NA,NA,true
kKOd4igh,3oplmf3ev80afezcyc4phujqmmslnu,39u1bhvtdp4th7c1g4r3jrrtofut3u,kKOd4igh,2020-0188,2020-11-16,20:18:54,20:37:27,NA,incomplete,30,shape,1,0,left,Purple_Plus_Stripes_4.jpg,Green_Plus_Dots_2.jpg,Blue_Star_Grid_4.jpg,left,867.339999997057,true,NA,NA,NA,NA,NA,NA,NA,NA,true
kKOd4igh,3oplmf3ev80afezcyc4phujqmmslnu,39u1bhvtdp4th7c1g4r3jrrtofut3u,kKOd4igh,2020-0188,2020-11-16,20:18:54,20:37:27,NA,incomplete,31,shape,1,1,left,Green_Circle_Stripes_3.jpg,Red_Circle_Chess_1.jpg,Purple_Plus_Grid_3.jpg,left,1045.7049999968149,true,NA,NA,NA,NA,NA,NA,NA,NA,true
kKOd4igh,3oplmf3ev80afezcyc4phujqmmslnu,39u1bhvtdp4th7c1g4r3jrrtofut3u,kKOd4igh,2020-0188,2020-11-16,20:18:54,20:37:27,NA,incomplete,32,shape,1,1,right,Red_Triangle_Grid_3.jpg,Purple_Star_Stripes_3.jpg,Green_Triangle_Dots_2.jpg,right,925.6250000034925,true,NA,NA,NA,NA,NA,NA,NA,NA,true
kKOd4igh,3oplmf3ev80afezcyc4phujqmmslnu,39u1bhvtdp4th7c1g4r3jrrtofut3u,kKOd4igh,2020-0188,2020-11-16,20:18:54,20:37:27,NA,incomplete,33,shape,1,1,left,Blue_Circle_Grid_1.jpg,Red_Circle_Stripes_2.jpg,Green_Star_Dots_1.jpg,left,717.12500002468,true,NA,NA,NA,NA,NA,NA,NA,NA,true
kKOd4igh,3oplmf3ev80afezcyc4phujqmmslnu,39u1bhvtdp4th7c1g4r3jrrtofut3u,kKOd4igh,2020-0188,2020-11-16,20:18:54,20:37:27,NA,incomplete,34,shape,1,0,left,Blue_Plus_Dots_1.jpg,Red_Plus_Stripes_2.jpg,Purple_Star_Grid_1.jpg,left,786.4549999940209,true,NA,NA,NA,NA,NA,NA,NA,NA,true
kKOd4igh,3oplmf3ev80afezcyc4phujqmmslnu,39u1bhvtdp4th7c1g4r3jrrtofut3u,kKOd4igh,2020-0188,2020-11-16,20:18:54,20:37:27,NA,incomplete,35,shape,1,1,right,Green_Star_Grid_4.jpg,Blue_Circle_Chess_4.jpg,Purple_Star_Stripes_1.jpg,right,709.9300000118092,true,NA,NA,NA,NA,NA,NA,NA,NA,true
kKOd4igh,3oplmf3ev80afezcyc4phujqmmslnu,39u1bhvtdp4th7c1g4r3jrrtofut3u,kKOd4igh,2020-0188,2020-11-16,20:18:54,20:37:27,NA,incomplete,36,shape,1,1,right,Purple_Circle_Stripes_1.jpg,Red_Triangle_Dots_1.jpg,Blue_Circle_Grid_4.jpg,right,801.0599999979604,true,NA,NA,NA,NA,NA,NA,NA,NA,true
kKOd4igh,3oplmf3ev80afezcyc4phujqmmslnu,39u1bhvtdp4th7c1g4r3jrrtofut3u,kKOd4igh,2020-0188,2020-11-16,20:18:54,20:37:27,NA,incomplete,37,shape,1,1,right,Blue_Star_Grid_4.jpg,Green_Plus_Dots_4.jpg,Purple_Star_Chess_1.jpg,right,733.0950000032317,true,NA,NA,NA,NA,NA,NA,NA,NA,true
kKOd4igh,3oplmf3ev80afezcyc4phujqmmslnu,39u1bhvtdp4th7c1g4r3jrrtofut3u,kKOd4igh,2020-0188,2020-11-16,20:18:54,20:37:27,NA,incomplete,38,shape,1,0,left,Red_Plus_Chess_4.jpg,Blue_Plus_Grid_2.jpg,Green_Star_Dots_4.jpg,left,858.1349999876693,true,NA,NA,NA,NA,NA,NA,NA,NA,true
kKOd4igh,3oplmf3ev80afezcyc4phujqmmslnu,39u1bhvtdp4th7c1g4r3jrrtofut3u,kKOd4igh,2020-0188,2020-11-16,20:18:54,20:37:27,NA,incomplete,39,shape,1,1,right,Green_Star_Stripes_2.jpg,Blue_Circle_Grid_2.jpg,Red_Star_Chess_3.jpg,right,690.0800000003073,true,NA,NA,NA,NA,NA,NA,NA,NA,true
kKOd4igh,3oplmf3ev80afezcyc4phujqmmslnu,39u1bhvtdp4th7c1g4r3jrrtofut3u,kKOd4igh,2020-0188,2020-11-16,20:18:54,20:37:27,NA,incomplete,0,number,0,1,right,Red_Circle_Chess_3.jpg,Purple_Circle_Grid_2.jpg,Green_Plus_Dots_3.jpg,left,935.2400000207126,false,high,NA,NA,NA,NA,NA,NA,NA,false
kKOd4igh,3oplmf3ev80afezcyc4phujqmmslnu,39u1bhvtdp4th7c1g4r3jrrtofut3u,kKOd4igh,2020-0188,2020-11-16,20:18:54,20:37:27,NA,incomplete,1,number,0,1,left,Red_Circle_Stripes_1.jpg,Blue_Plus_Grid_1.jpg,Green_Circle_Dots_3.jpg,right,564.5699999877252,false,high,NA,NA,NA,NA,NA,NA,NA,false
kKOd4igh,3oplmf3ev80afezcyc4phujqmmslnu,39u1bhvtdp4th7c1g4r3jrrtofut3u,kKOd4igh,2020-0188,2020-11-16,20:18:54,20:37:27,NA,incomplete,2,number,0,1,right,Red_Circle_Chess_2.jpg,Purple_Circle_Dots_4.jpg,Blue_Star_Stripes_2.jpg,left,598.7650000024587,false,high,NA,NA,NA,NA,NA,NA,NA,false
kKOd4igh,3oplmf3ev80afezcyc4phujqmmslnu,39u1bhvtdp4th7c1g4r3jrrtofut3u,kKOd4igh,2020-0188,2020-11-16,20:18:54,20:37:27,NA,incomplete,3,number,0,1,left,Blue_Circle_Dots_3.jpg,Purple_Plus_Chess_3.jpg,Red_Circle_Stripes_2.jpg,left,923.1100000033621,true,high,NA,NA,NA,NA,NA,NA,NA,false
kKOd4igh,3oplmf3ev80afezcyc4phujqmmslnu,39u1bhvtdp4th7c1g4r3jrrtofut3u,kKOd4igh,2020-0188,2020-11-16,20:18:54,20:37:27,NA,incomplete,4,number,0,1,left,Blue_Star_Dots_3.jpg,Green_Plus_Stripes_3.jpg,Red_Star_Grid_1.jpg,left,1097.024999995483,true,high,NA,NA,NA,NA,NA,NA,NA,false
kKOd4igh,3oplmf3ev80afezcyc4phujqmmslnu,39u1bhvtdp4th7c1g4r3jrrtofut3u,kKOd4igh,2020-0188,2020-11-16,20:18:54,20:37:27,NA,incomplete,5,number,0,1,right,Purple_Plus_Stripes_1.jpg,Green_Plus_Chess_2.jpg,Blue_Circle_Dots_1.jpg,right,1110.3650000004563,true,high,NA,NA,NA,NA,NA,NA,NA,false
kKOd4igh,3oplmf3ev80afezcyc4phujqmmslnu,39u1bhvtdp4th7c1g4r3jrrtofut3u,kKOd4igh,2020-0188,2020-11-16,20:18:54,20:37:27,NA,incomplete,6,number,0,1,left,Red_Triangle_Grid_1.jpg,Green_Circle_Stripes_1.jpg,Blue_Triangle_Dots_4.jpg,left,727.7949999843258,true,high,NA,NA,NA,NA,NA,NA,NA,false
kKOd4igh,3oplmf3ev80afezcyc4phujqmmslnu,39u1bhvtdp4th7c1g4r3jrrtofut3u,kKOd4igh,2020-0188,2020-11-16,20:18:54,20:37:27,NA,incomplete,7,number,0,1,right,Red_Star_Grid_4.jpg,Purple_Star_Stripes_3.jpg,Green_Plus_Chess_4.jpg,right,1135.054999991553,true,high,NA,NA,NA,NA,NA,NA,NA,false
kKOd4igh,3oplmf3ev80afezcyc4phujqmmslnu,39u1bhvtdp4th7c1g4r3jrrtofut3u,kKOd4igh,2020-0188,2020-11-16,20:18:54,20:37:27,NA,incomplete,8,number,0,1,right,Green_Plus_Stripes_4.jpg,Blue_Plus_Chess_1.jpg,Purple_Triangle_Dots_4.jpg,right,705.229999992298,true,high,NA,NA,NA,NA,NA,NA,NA,false
kKOd4igh,3oplmf3ev80afezcyc4phujqmmslnu,39u1bhvtdp4th7c1g4r3jrrtofut3u,kKOd4igh,2020-0188,2020-11-16,20:18:54,20:37:27,NA,incomplete,9,number,0,0,left,Blue_Circle_Chess_1.jpg,Green_Plus_Grid_1.jpg,Purple_Circle_Dots_2.jpg,left,812.8299999807496,true,high,NA,NA,NA,NA,NA,NA,NA,false
kKOd4igh,3oplmf3ev80afezcyc4phujqmmslnu,39u1bhvtdp4th7c1g4r3jrrtofut3u,kKOd4igh,2020-0188,2020-11-16,20:18:54,20:37:27,NA,incomplete,10,shape,1,1,left,Green_Plus_Chess_3.jpg,Blue_Plus_Stripes_2.jpg,Red_Triangle_Dots_3.jpg,right,995.5750000081025,false,high,NA,NA,NA,NA,NA,NA,NA,false
kKOd4igh,3oplmf3ev80afezcyc4phujqmmslnu,39u1bhvtdp4th7c1g4r3jrrtofut3u,kKOd4igh,2020-0188,2020-11-16,20:18:54,20:37:27,NA,incomplete,11,shape,1,1,right,Green_Plus_Dots_3.jpg,Blue_Circle_Stripes_3.jpg,Purple_Plus_Chess_2.jpg,right,683.500000013737,true,high,NA,NA,NA,NA,NA,NA,NA,false
kKOd4igh,3oplmf3ev80afezcyc4phujqmmslnu,39u1bhvtdp4th7c1g4r3jrrtofut3u,kKOd4igh,2020-0188,2020-11-16,20:18:54,20:37:27,NA,incomplete,12,shape,1,1,right,Red_Plus_Dots_4.jpg,Blue_Circle_Chess_4.jpg,Green_Plus_Stripes_1.jpg,right,685.5299999879207,true,high,NA,NA,NA,NA,NA,NA,NA,false
kKOd4igh,3oplmf3ev80afezcyc4phujqmmslnu,39u1bhvtdp4th7c1g4r3jrrtofut3u,kKOd4igh,2020-0188,2020-11-16,20:18:54,20:37:27,NA,incomplete,13,shape,1,1,right,Blue_Circle_Dots_3.jpg,Purple_Plus_Stripes_3.jpg,Red_Circle_Grid_4.jpg,right,696.8700000143144,true,high,NA,NA,NA,NA,NA,NA,NA,false
kKOd4igh,3oplmf3ev80afezcyc4phujqmmslnu,39u1bhvtdp4th7c1g4r3jrrtofut3u,kKOd4igh,2020-0188,2020-11-16,20:18:54,20:37:27,NA,incomplete,14,shape,1,1,right,Purple_Triangle_Grid_2.jpg,Red_Circle_Chess_2.jpg,Green_Triangle_Stripes_4.jpg,right,1209.289999998873,true,high,NA,NA,NA,NA,NA,NA,NA,false
kKOd4igh,3oplmf3ev80afezcyc4phujqmmslnu,39u1bhvtdp4th7c1g4r3jrrtofut3u,kKOd4igh,2020-0188,2020-11-16,20:18:54,20:37:27,NA,incomplete,15,shape,1,1,right,Purple_Star_Chess_4.jpg,Green_Plus_Grid_4.jpg,Red_Star_Stripes_3.jpg,right,794.6349999983795,true,high,NA,NA,NA,NA,NA,NA,NA,false
kKOd4igh,3oplmf3ev80afezcyc4phujqmmslnu,39u1bhvtdp4th7c1g4r3jrrtofut3u,kKOd4igh,2020-0188,2020-11-16,20:18:54,20:37:27,NA,incomplete,16,shape,1,0,left,Purple_Plus_Dots_2.jpg,Red_Plus_Chess_4.jpg,Blue_Triangle_Grid_2.jpg,left,758.2849999889731,true,high,NA,NA,NA,NA,NA,NA,NA,false
kKOd4igh,3oplmf3ev80afezcyc4phujqmmslnu,39u1bhvtdp4th7c1g4r3jrrtofut3u,kKOd4igh,2020-0188,2020-11-16,20:18:54,20:37:27,NA,incomplete,17,shape,1,0,left,Green_Circle_Stripes_4.jpg,Blue_Circle_Chess_1.jpg,Red_Triangle_Grid_4.jpg,left,842.4099999829195,true,high,NA,NA,NA,NA,NA,NA,NA,false
kKOd4igh,3oplmf3ev80afezcyc4phujqmmslnu,39u1bhvtdp4th7c1g4r3jrrtofut3u,kKOd4igh,2020-0188,2020-11-16,20:18:54,20:37:27,NA,incomplete,18,shape,1,1,left,Purple_Triangle_Chess_1.jpg,Blue_Triangle_Grid_3.jpg,Green_Circle_Dots_1.jpg,right,897.3199999891222,false,high,NA,NA,NA,NA,NA,NA,NA,false
kKOd4igh,3oplmf3ev80afezcyc4phujqmmslnu,39u1bhvtdp4th7c1g4r3jrrtofut3u,kKOd4igh,2020-0188,2020-11-16,20:18:54,20:37:27,NA,incomplete,19,shape,1,0,left,Green_Plus_Grid_4.jpg,Red_Plus_Dots_3.jpg,Purple_Star_Stripes_4.jpg,right,1189.1199999954551,false,high,NA,NA,NA,NA,NA,NA,NA,false
kKOd4igh,3oplmf3ev80afezcyc4phujqmmslnu,39u1bhvtdp4th7c1g4r3jrrtofut3u,kKOd4igh,2020-0188,2020-11-16,20:18:54,20:37:27,NA,incomplete,20,number,0,1,right,Blue_Star_Stripes_1.jpg,Purple_Star_Grid_2.jpg,Red_Circle_Dots_1.jpg,right,1538.4749999793712,true,high,NA,NA,NA,NA,NA,NA,NA,false
kKOd4igh,3oplmf3ev80afezcyc4phujqmmslnu,39u1bhvtdp4th7c1g4r3jrrtofut3u,kKOd4igh,2020-0188,2020-11-16,20:18:54,20:37:27,NA,incomplete,21,number,0,1,left,Blue_Plus_Stripes_3.jpg,Green_Triangle_Dots_3.jpg,Purple_Plus_Chess_2.jpg,left,850.8600000059232,true,high,NA,NA,NA,NA,NA,NA,NA,false
kKOd4igh,3oplmf3ev80afezcyc4phujqmmslnu,39u1bhvtdp4th7c1g4r3jrrtofut3u,kKOd4igh,2020-0188,2020-11-16,20:18:54,20:37:27,NA,incomplete,22,number,0,1,right,Green_Plus_Dots_2.jpg,Red_Plus_Stripes_3.jpg,Purple_Circle_Chess_2.jpg,right,1257.5450000003912,true,high,NA,NA,NA,NA,NA,NA,NA,false
kKOd4igh,3oplmf3ev80afezcyc4phujqmmslnu,39u1bhvtdp4th7c1g4r3jrrtofut3u,kKOd4igh,2020-0188,2020-11-16,20:18:54,20:37:27,NA,incomplete,23,number,0,1,left,Green_Plus_Dots_2.jpg,Purple_Star_Chess_2.jpg,Blue_Plus_Stripes_4.jpg,left,771.630000002915,true,high,NA,NA,NA,NA,NA,NA,NA,false
kKOd4igh,3oplmf3ev80afezcyc4phujqmmslnu,39u1bhvtdp4th7c1g4r3jrrtofut3u,kKOd4igh,2020-0188,2020-11-16,20:18:54,20:37:27,NA,incomplete,24,number,0,1,right,Green_Plus_Stripes_1.jpg,Purple_Plus_Dots_4.jpg,Blue_Star_Grid_1.jpg,right,870.5250000057276,true,high,NA,NA,NA,NA,NA,NA,NA,false
kKOd4igh,3oplmf3ev80afezcyc4phujqmmslnu,39u1bhvtdp4th7c1g4r3jrrtofut3u,kKOd4igh,2020-0188,2020-11-16,20:18:54,20:37:27,NA,incomplete,25,number,0,0,right,Blue_Circle_Chess_3.jpg,Red_Circle_Stripes_1.jpg,Green_Star_Dots_3.jpg,left,713.7449999863748,false,high,NA,NA,NA,NA,NA,NA,NA,false
kKOd4igh,3oplmf3ev80afezcyc4phujqmmslnu,39u1bhvtdp4th7c1g4r3jrrtofut3u,kKOd4igh,2020-0188,2020-11-16,20:18:54,20:37:27,NA,incomplete,26,number,0,0,left,Blue_Plus_Stripes_2.jpg,Red_Triangle_Dots_2.jpg,Green_Plus_Grid_3.jpg,left,1096.4899999962654,true,high,NA,NA,NA,NA,NA,NA,NA,false
kKOd4igh,3oplmf3ev80afezcyc4phujqmmslnu,39u1bhvtdp4th7c1g4r3jrrtofut3u,kKOd4igh,2020-0188,2020-11-16,20:18:54,20:37:27,NA,incomplete,27,number,0,1,left,Purple_Circle_Stripes_4.jpg,Red_Plus_Grid_4.jpg,Green_Circle_Chess_1.jpg,right,754.914999997709,false,high,NA,NA,NA,NA,NA,NA,NA,false
kKOd4igh,3oplmf3ev80afezcyc4phujqmmslnu,39u1bhvtdp4th7c1g4r3jrrtofut3u,kKOd4igh,2020-0188,2020-11-16,20:18:54,20:37:27,NA,incomplete,28,number,0,1,left,Red_Star_Chess_3.jpg,Purple_Circle_Grid_3.jpg,Blue_Star_Dots_1.jpg,right,955.8649999962654,false,high,NA,NA,NA,NA,NA,NA,NA,false
kKOd4igh,3oplmf3ev80afezcyc4phujqmmslnu,39u1bhvtdp4th7c1g4r3jrrtofut3u,kKOd4igh,2020-0188,2020-11-16,20:18:54,20:37:27,NA,incomplete,29,number,0,1,left,Blue_Circle_Dots_2.jpg,Red_Plus_Chess_2.jpg,Green_Circle_Grid_4.jpg,left,987.330000003567,true,high,NA,NA,NA,NA,NA,NA,NA,false
kKOd4igh,3oplmf3ev80afezcyc4phujqmmslnu,39u1bhvtdp4th7c1g4r3jrrtofut3u,kKOd4igh,2020-0188,2020-11-16,20:18:54,20:37:27,NA,incomplete,30,shape,1,1,left,Blue_Star_Chess_4.jpg,Red_Star_Dots_3.jpg,Purple_Triangle_Grid_4.jpg,right,1290.1499999861699,false,high,NA,NA,NA,NA,NA,NA,NA,false
kKOd4igh,3oplmf3ev80afezcyc4phujqmmslnu,39u1bhvtdp4th7c1g4r3jrrtofut3u,kKOd4igh,2020-0188,2020-11-16,20:18:54,20:37:27,NA,incomplete,31,shape,1,1,right,Blue_Triangle_Dots_4.jpg,Purple_Circle_Grid_4.jpg,Green_Triangle_Stripes_3.jpg,left,975.3649999911431,false,high,NA,NA,NA,NA,NA,NA,NA,false
kKOd4igh,3oplmf3ev80afezcyc4phujqmmslnu,39u1bhvtdp4th7c1g4r3jrrtofut3u,kKOd4igh,2020-0188,2020-11-16,20:18:54,20:37:27,NA,incomplete,32,shape,1,1,left,Purple_Plus_Dots_3.jpg,Blue_Plus_Grid_1.jpg,Red_Triangle_Chess_3.jpg,left,1068.1999999796972,true,high,NA,NA,NA,NA,NA,NA,NA,false
kKOd4igh,3oplmf3ev80afezcyc4phujqmmslnu,39u1bhvtdp4th7c1g4r3jrrtofut3u,kKOd4igh,2020-0188,2020-11-16,20:18:54,20:37:27,NA,incomplete,33,shape,1,1,right,Green_Triangle_Grid_3.jpg,Blue_Star_Chess_3.jpg,Purple_Triangle_Dots_2.jpg,right,1084.3999999924563,true,high,NA,NA,NA,NA,NA,NA,NA,false
kKOd4igh,3oplmf3ev80afezcyc4phujqmmslnu,39u1bhvtdp4th7c1g4r3jrrtofut3u,kKOd4igh,2020-0188,2020-11-16,20:18:54,20:37:27,NA,incomplete,34,shape,1,1,left,Purple_Triangle_Stripes_2.jpg,Red_Triangle_Dots_1.jpg,Green_Plus_Grid_2.jpg,left,1005.154999991646,true,high,NA,NA,NA,NA,NA,NA,NA,false
kKOd4igh,3oplmf3ev80afezcyc4phujqmmslnu,39u1bhvtdp4th7c1g4r3jrrtofut3u,kKOd4igh,2020-0188,2020-11-16,20:18:54,20:37:27,NA,incomplete,35,shape,1,1,right,Blue_Circle_Chess_4.jpg,Red_Plus_Grid_4.jpg,Purple_Circle_Stripes_1.jpg,right,715.6299999915063,true,high,NA,NA,NA,NA,NA,NA,NA,false
kKOd4igh,3oplmf3ev80afezcyc4phujqmmslnu,39u1bhvtdp4th7c1g4r3jrrtofut3u,kKOd4igh,2020-0188,2020-11-16,20:18:54,20:37:27,NA,incomplete,36,shape,1,1,right,Green_Triangle_Stripes_4.jpg,Red_Star_Grid_4.jpg,Blue_Triangle_Dots_1.jpg,right,692.1750000037719,true,high,NA,NA,NA,NA,NA,NA,NA,false
kKOd4igh,3oplmf3ev80afezcyc4phujqmmslnu,39u1bhvtdp4th7c1g4r3jrrtofut3u,kKOd4igh,2020-0188,2020-11-16,20:18:54,20:37:27,NA,incomplete,37,shape,1,1,right,Red_Plus_Dots_2.jpg,Purple_Triangle_Chess_2.jpg,Blue_Plus_Grid_3.jpg,right,738.2349999970756,true,high,NA,NA,NA,NA,NA,NA,NA,false
kKOd4igh,3oplmf3ev80afezcyc4phujqmmslnu,39u1bhvtdp4th7c1g4r3jrrtofut3u,kKOd4igh,2020-0188,2020-11-16,20:18:54,20:37:27,NA,incomplete,38,shape,1,1,right,Blue_Star_Grid_4.jpg,Green_Circle_Stripes_4.jpg,Red_Star_Dots_3.jpg,right,775.2650000038557,true,high,NA,NA,NA,NA,NA,NA,NA,false
kKOd4igh,3oplmf3ev80afezcyc4phujqmmslnu,39u1bhvtdp4th7c1g4r3jrrtofut3u,kKOd4igh,2020-0188,2020-11-16,20:18:54,20:37:27,NA,incomplete,39,shape,1,1,right,Red_Plus_Chess_4.jpg,Purple_Circle_Dots_4.jpg,Green_Plus_Grid_3.jpg,right,734.6850000030827,true,high,NA,NA,NA,NA,NA,NA,NA,false
kKOd4igh,3oplmf3ev80afezcyc4phujqmmslnu,39u1bhvtdp4th7c1g4r3jrrtofut3u,kKOd4igh,2020-0188,2020-11-16,20:18:54,20:37:27,NA,incomplete,40,number,0,1,left,Blue_Star_Stripes_1.jpg,Purple_Circle_Dots_1.jpg,Red_Star_Grid_4.jpg,right,665.500000002794,false,high,NA,NA,NA,NA,NA,NA,NA,false
kKOd4igh,3oplmf3ev80afezcyc4phujqmmslnu,39u1bhvtdp4th7c1g4r3jrrtofut3u,kKOd4igh,2020-0188,2020-11-16,20:18:54,20:37:27,NA,incomplete,41,number,0,0,right,Green_Star_Grid_4.jpg,Red_Star_Dots_1.jpg,Blue_Triangle_Stripes_4.jpg,right,929.2900000000373,true,high,NA,NA,NA,NA,NA,NA,NA,false
kKOd4igh,3oplmf3ev80afezcyc4phujqmmslnu,39u1bhvtdp4th7c1g4r3jrrtofut3u,kKOd4igh,2020-0188,2020-11-16,20:18:54,20:37:27,NA,incomplete,42,number,0,0,left,Green_Triangle_Grid_3.jpg,Purple_Plus_Chess_3.jpg,Blue_Triangle_Stripes_2.jpg,left,1265.3700000082608,true,high,NA,NA,NA,NA,NA,NA,NA,false
kKOd4igh,3oplmf3ev80afezcyc4phujqmmslnu,39u1bhvtdp4th7c1g4r3jrrtofut3u,kKOd4igh,2020-0188,2020-11-16,20:18:54,20:37:27,NA,incomplete,43,number,0,0,right,Purple_Circle_Dots_4.jpg,Blue_Circle_Chess_3.jpg,Red_Plus_Grid_4.jpg,left,1292.2700000053737,false,high,NA,NA,NA,NA,NA,NA,NA,false
kKOd4igh,3oplmf3ev80afezcyc4phujqmmslnu,39u1bhvtdp4th7c1g4r3jrrtofut3u,kKOd4igh,2020-0188,2020-11-16,20:18:54,20:37:27,NA,incomplete,44,number,0,1,right,Blue_Circle_Chess_2.jpg,Red_Circle_Stripes_3.jpg,Purple_Triangle_Grid_2.jpg,left,714.4599999883212,false,high,NA,NA,NA,NA,NA,NA,NA,false
kKOd4igh,3oplmf3ev80afezcyc4phujqmmslnu,39u1bhvtdp4th7c1g4r3jrrtofut3u,kKOd4igh,2020-0188,2020-11-16,20:18:54,20:37:27,NA,incomplete,45,number,0,0,right,Red_Plus_Grid_1.jpg,Blue_Plus_Chess_3.jpg,Green_Circle_Dots_1.jpg,left,745.0450000178535,false,high,NA,NA,NA,NA,NA,NA,NA,false
kKOd4igh,3oplmf3ev80afezcyc4phujqmmslnu,39u1bhvtdp4th7c1g4r3jrrtofut3u,kKOd4igh,2020-0188,2020-11-16,20:18:54,20:37:27,NA,incomplete,46,number,0,0,left,Blue_Star_Chess_3.jpg,Red_Triangle_Grid_3.jpg,Green_Star_Stripes_4.jpg,left,898.814999993192,true,high,NA,NA,NA,NA,NA,NA,NA,false
kKOd4igh,3oplmf3ev80afezcyc4phujqmmslnu,39u1bhvtdp4th7c1g4r3jrrtofut3u,kKOd4igh,2020-0188,2020-11-16,20:18:54,20:37:27,NA,incomplete,47,number,0,1,right,Green_Star_Grid_4.jpg,Purple_Star_Chess_1.jpg,Blue_Triangle_Stripes_4.jpg,left,675.1950000179932,false,high,NA,NA,NA,NA,NA,NA,NA,false
kKOd4igh,3oplmf3ev80afezcyc4phujqmmslnu,39u1bhvtdp4th7c1g4r3jrrtofut3u,kKOd4igh,2020-0188,2020-11-16,20:18:54,20:37:27,NA,incomplete,48,number,0,1,left,Green_Triangle_Dots_1.jpg,Blue_Circle_Chess_1.jpg,Purple_Triangle_Grid_4.jpg,right,1086.3700000045355,false,high,NA,NA,NA,NA,NA,NA,NA,false
kKOd4igh,3oplmf3ev80afezcyc4phujqmmslnu,39u1bhvtdp4th7c1g4r3jrrtofut3u,kKOd4igh,2020-0188,2020-11-16,20:18:54,20:37:27,NA,incomplete,49,number,0,1,left,Purple_Circle_Dots_2.jpg,Red_Triangle_Chess_2.jpg,Blue_Circle_Stripes_1.jpg,left,739.2149999795947,true,high,NA,NA,NA,NA,NA,NA,NA,false
kKOd4igh,3oplmf3ev80afezcyc4phujqmmslnu,39u1bhvtdp4th7c1g4r3jrrtofut3u,kKOd4igh,2020-0188,2020-11-16,20:18:54,20:37:27,NA,incomplete,50,shape,1,0,right,Blue_Star_Dots_4.jpg,Red_Circle_Stripes_4.jpg,Green_Star_Chess_1.jpg,left,1178.4800000023097,false,high,NA,NA,NA,NA,NA,NA,NA,false
kKOd4igh,3oplmf3ev80afezcyc4phujqmmslnu,39u1bhvtdp4th7c1g4r3jrrtofut3u,kKOd4igh,2020-0188,2020-11-16,20:18:54,20:37:27,NA,incomplete,51,shape,1,1,right,Red_Star_Grid_3.jpg,Purple_Triangle_Stripes_3.jpg,Green_Star_Chess_4.jpg,left,1044.0900000103284,false,high,NA,NA,NA,NA,NA,NA,NA,false
kKOd4igh,3oplmf3ev80afezcyc4phujqmmslnu,39u1bhvtdp4th7c1g4r3jrrtofut3u,kKOd4igh,2020-0188,2020-11-16,20:18:54,20:37:27,NA,incomplete,52,shape,1,1,left,Blue_Star_Chess_3.jpg,Purple_Star_Grid_1.jpg,Red_Triangle_Dots_3.jpg,right,647.8700000152458,false,high,NA,NA,NA,NA,NA,NA,NA,false
kKOd4igh,3oplmf3ev80afezcyc4phujqmmslnu,39u1bhvtdp4th7c1g4r3jrrtofut3u,kKOd4igh,2020-0188,2020-11-16,20:18:54,20:37:27,NA,incomplete,53,shape,1,1,right,Red_Circle_Grid_4.jpg,Purple_Plus_Stripes_4.jpg,Blue_Circle_Dots_1.jpg,right,840.4549999977462,true,high,NA,NA,NA,NA,NA,NA,NA,false
kKOd4igh,3oplmf3ev80afezcyc4phujqmmslnu,39u1bhvtdp4th7c1g4r3jrrtofut3u,kKOd4igh,2020-0188,2020-11-16,20:18:54,20:37:27,NA,incomplete,54,shape,1,1,left,Purple_Star_Grid_4.jpg,Red_Star_Dots_2.jpg,Blue_Triangle_Stripes_4.jpg,left,628.3049999910872,true,high,NA,NA,NA,NA,NA,NA,NA,false
kKOd4igh,3oplmf3ev80afezcyc4phujqmmslnu,39u1bhvtdp4th7c1g4r3jrrtofut3u,kKOd4igh,2020-0188,2020-11-16,20:18:54,20:37:27,NA,incomplete,55,shape,1,1,right,Red_Triangle_Grid_2.jpg,Purple_Circle_Dots_2.jpg,Blue_Triangle_Chess_1.jpg,right,1003.5250000073574,true,high,NA,NA,NA,NA,NA,NA,NA,false
kKOd4igh,3oplmf3ev80afezcyc4phujqmmslnu,39u1bhvtdp4th7c1g4r3jrrtofut3u,kKOd4igh,2020-0188,2020-11-16,20:18:54,20:37:27,NA,incomplete,56,shape,1,0,left,Blue_Triangle_Stripes_2.jpg,Green_Triangle_Grid_4.jpg,Red_Star_Dots_2.jpg,left,745.744999992894,true,high,NA,NA,NA,NA,NA,NA,NA,false
kKOd4igh,3oplmf3ev80afezcyc4phujqmmslnu,39u1bhvtdp4th7c1g4r3jrrtofut3u,kKOd4igh,2020-0188,2020-11-16,20:18:54,20:37:27,NA,incomplete,57,shape,1,1,right,Red_Plus_Dots_2.jpg,Blue_Star_Stripes_2.jpg,Green_Plus_Grid_3.jpg,right,915.4400000115857,true,high,NA,NA,NA,NA,NA,NA,NA,false
kKOd4igh,3oplmf3ev80afezcyc4phujqmmslnu,39u1bhvtdp4th7c1g4r3jrrtofut3u,kKOd4igh,2020-0188,2020-11-16,20:18:54,20:37:27,NA,incomplete,58,shape,1,0,left,Blue_Circle_Chess_2.jpg,Green_Circle_Grid_4.jpg,Red_Triangle_Dots_2.jpg,left,825.394999992568,true,high,NA,NA,NA,NA,NA,NA,NA,false
kKOd4igh,3oplmf3ev80afezcyc4phujqmmslnu,39u1bhvtdp4th7c1g4r3jrrtofut3u,kKOd4igh,2020-0188,2020-11-16,20:18:54,20:37:27,NA,incomplete,59,shape,1,1,left,Purple_Triangle_Chess_4.jpg,Green_Triangle_Stripes_1.jpg,Red_Circle_Grid_4.jpg,left,761.0749999876134,true,high,NA,NA,NA,NA,NA,NA,NA,false
kKOd4igh,3oplmf3ev80afezcyc4phujqmmslnu,39u1bhvtdp4th7c1g4r3jrrtofut3u,kKOd4igh,2020-0188,2020-11-16,20:18:54,20:37:27,NA,incomplete,60,number,0,1,right,Purple_Star_Chess_2.jpg,Blue_Star_Grid_4.jpg,Red_Plus_Stripes_2.jpg,left,674.5249999803491,false,high,NA,NA,NA,NA,NA,NA,NA,false
kKOd4igh,3oplmf3ev80afezcyc4phujqmmslnu,39u1bhvtdp4th7c1g4r3jrrtofut3u,kKOd4igh,2020-0188,2020-11-16,20:18:54,20:37:27,NA,incomplete,61,number,0,0,right,Blue_Plus_Chess_4.jpg,Green_Plus_Stripes_3.jpg,Red_Triangle_Grid_4.jpg,right,1077.1749999839813,true,high,NA,NA,NA,NA,NA,NA,NA,false
kKOd4igh,3oplmf3ev80afezcyc4phujqmmslnu,39u1bhvtdp4th7c1g4r3jrrtofut3u,kKOd4igh,2020-0188,2020-11-16,20:18:54,20:37:27,NA,incomplete,62,number,0,1,left,Blue_Circle_Dots_1.jpg,Green_Plus_Chess_1.jpg,Red_Circle_Grid_2.jpg,right,1026.2950000178535,false,high,NA,NA,NA,NA,NA,NA,NA,false
kKOd4igh,3oplmf3ev80afezcyc4phujqmmslnu,39u1bhvtdp4th7c1g4r3jrrtofut3u,kKOd4igh,2020-0188,2020-11-16,20:18:54,20:37:27,NA,incomplete,63,number,0,1,right,Red_Star_Chess_3.jpg,Green_Star_Dots_2.jpg,Purple_Circle_Grid_3.jpg,right,975.4200000024866,true,high,NA,NA,NA,NA,NA,NA,NA,false
kKOd4igh,3oplmf3ev80afezcyc4phujqmmslnu,39u1bhvtdp4th7c1g4r3jrrtofut3u,kKOd4igh,2020-0188,2020-11-16,20:18:54,20:37:27,NA,incomplete,64,number,0,1,left,Red_Circle_Chess_1.jpg,Blue_Triangle_Grid_1.jpg,Green_Circle_Dots_2.jpg,left,947.9899999860208,true,high,NA,NA,NA,NA,NA,NA,NA,false
kKOd4igh,3oplmf3ev80afezcyc4phujqmmslnu,39u1bhvtdp4th7c1g4r3jrrtofut3u,kKOd4igh,2020-0188,2020-11-16,20:18:54,20:37:27,NA,incomplete,65,number,0,1,right,Blue_Circle_Grid_3.jpg,Green_Circle_Chess_4.jpg,Purple_Plus_Dots_3.jpg,right,848.0849999759812,true,high,NA,NA,NA,NA,NA,NA,NA,false
kKOd4igh,3oplmf3ev80afezcyc4phujqmmslnu,39u1bhvtdp4th7c1g4r3jrrtofut3u,kKOd4igh,2020-0188,2020-11-16,20:18:54,20:37:27,NA,incomplete,66,number,0,1,left,Red_Plus_Dots_2.jpg,Green_Triangle_Grid_2.jpg,Purple_Plus_Chess_1.jpg,left,831.5599999914411,true,high,NA,NA,NA,NA,NA,NA,NA,false
kKOd4igh,3oplmf3ev80afezcyc4phujqmmslnu,39u1bhvtdp4th7c1g4r3jrrtofut3u,kKOd4igh,2020-0188,2020-11-16,20:18:54,20:37:27,NA,incomplete,67,number,0,1,left,Red_Circle_Stripes_3.jpg,Green_Triangle_Dots_3.jpg,Blue_Circle_Chess_2.jpg,left,788.2800000079442,true,high,NA,NA,NA,NA,NA,NA,NA,false
kKOd4igh,3oplmf3ev80afezcyc4phujqmmslnu,39u1bhvtdp4th7c1g4r3jrrtofut3u,kKOd4igh,2020-0188,2020-11-16,20:18:54,20:37:27,NA,incomplete,68,number,0,1,left,Green_Plus_Stripes_1.jpg,Purple_Triangle_Dots_1.jpg,Red_Plus_Grid_4.jpg,left,691.7399999802001,true,high,NA,NA,NA,NA,NA,NA,NA,false
kKOd4igh,3oplmf3ev80afezcyc4phujqmmslnu,39u1bhvtdp4th7c1g4r3jrrtofut3u,kKOd4igh,2020-0188,2020-11-16,20:18:54,20:37:27,NA,incomplete,69,number,0,1,right,Red_Circle_Stripes_4.jpg,Blue_Circle_Chess_3.jpg,Green_Triangle_Dots_4.jpg,right,1247.624999989057,true,high,NA,NA,NA,NA,NA,NA,NA,false
kKOd4igh,3oplmf3ev80afezcyc4phujqmmslnu,39u1bhvtdp4th7c1g4r3jrrtofut3u,kKOd4igh,2020-0188,2020-11-16,20:18:54,20:37:27,NA,incomplete,70,shape,1,1,left,Green_Star_Stripes_2.jpg,Purple_Star_Dots_4.jpg,Blue_Circle_Grid_2.jpg,right,772.4649999872781,false,high,NA,NA,NA,NA,NA,NA,NA,false
kKOd4igh,3oplmf3ev80afezcyc4phujqmmslnu,39u1bhvtdp4th7c1g4r3jrrtofut3u,kKOd4igh,2020-0188,2020-11-16,20:18:54,20:37:27,NA,incomplete,71,shape,1,1,left,Blue_Star_Dots_2.jpg,Purple_Star_Chess_4.jpg,Red_Plus_Grid_2.jpg,right,817.0650000101887,false,high,NA,NA,NA,NA,NA,NA,NA,false
kKOd4igh,3oplmf3ev80afezcyc4phujqmmslnu,39u1bhvtdp4th7c1g4r3jrrtofut3u,kKOd4igh,2020-0188,2020-11-16,20:18:54,20:37:27,NA,incomplete,72,shape,1,1,right,Purple_Plus_Chess_4.jpg,Red_Circle_Stripes_4.jpg,Green_Plus_Grid_3.jpg,right,874.9550000065938,true,high,NA,NA,NA,NA,NA,NA,NA,false
kKOd4igh,3oplmf3ev80afezcyc4phujqmmslnu,39u1bhvtdp4th7c1g4r3jrrtofut3u,kKOd4igh,2020-0188,2020-11-16,20:18:54,20:37:27,NA,incomplete,73,shape,1,1,left,Purple_Triangle_Chess_1.jpg,Blue_Triangle_Dots_2.jpg,Green_Circle_Grid_1.jpg,left,819.6899999747984,true,high,NA,NA,NA,NA,NA,NA,NA,false
kKOd4igh,3oplmf3ev80afezcyc4phujqmmslnu,39u1bhvtdp4th7c1g4r3jrrtofut3u,kKOd4igh,2020-0188,2020-11-16,20:18:54,20:37:27,NA,incomplete,74,shape,1,1,right,Purple_Star_Stripes_4.jpg,Blue_Triangle_Dots_4.jpg,Green_Star_Chess_1.jpg,right,966.4150000025984,true,high,NA,NA,NA,NA,NA,NA,NA,false
kKOd4igh,3oplmf3ev80afezcyc4phujqmmslnu,39u1bhvtdp4th7c1g4r3jrrtofut3u,kKOd4igh,2020-0188,2020-11-16,20:18:54,20:37:27,NA,incomplete,75,shape,1,1,right,Blue_Circle_Stripes_1.jpg,Purple_Plus_Dots_1.jpg,Red_Circle_Grid_2.jpg,right,817.6249999960419,true,high,NA,NA,NA,NA,NA,NA,NA,false
kKOd4igh,3oplmf3ev80afezcyc4phujqmmslnu,39u1bhvtdp4th7c1g4r3jrrtofut3u,kKOd4igh,2020-0188,2020-11-16,20:18:54,20:37:27,NA,incomplete,76,shape,1,1,left,Green_Star_Stripes_1.jpg,Blue_Star_Chess_3.jpg,Red_Circle_Grid_1.jpg,left,580.2599999879021,true,high,NA,NA,NA,NA,NA,NA,NA,false
kKOd4igh,3oplmf3ev80afezcyc4phujqmmslnu,39u1bhvtdp4th7c1g4r3jrrtofut3u,kKOd4igh,2020-0188,2020-11-16,20:18:54,20:37:27,NA,incomplete,77,shape,1,0,left,Purple_Star_Dots_4.jpg,Red_Star_Chess_1.jpg,Blue_Circle_Stripes_4.jpg,left,762.4599999981001,true,high,NA,NA,NA,NA,NA,NA,NA,false
kKOd4igh,3oplmf3ev80afezcyc4phujqmmslnu,39u1bhvtdp4th7c1g4r3jrrtofut3u,kKOd4igh,2020-0188,2020-11-16,20:18:54,20:37:27,NA,incomplete,78,shape,1,1,right,Purple_Triangle_Stripes_1.jpg,Blue_Circle_Dots_1.jpg,Red_Triangle_Chess_4.jpg,right,835.0849999987986,true,high,NA,NA,NA,NA,NA,NA,NA,false
kKOd4igh,3oplmf3ev80afezcyc4phujqmmslnu,39u1bhvtdp4th7c1g4r3jrrtofut3u,kKOd4igh,2020-0188,2020-11-16,20:18:54,20:37:27,NA,incomplete,79,shape,1,1,left,Purple_Circle_Chess_4.jpg,Red_Circle_Stripes_3.jpg,Blue_Plus_Dots_4.jpg,left,557.3000000149477,true,high,NA,NA,NA,NA,NA,NA,NA,false
kKOd4igh,3oplmf3ev80afezcyc4phujqmmslnu,39u1bhvtdp4th7c1g4r3jrrtofut3u,kKOd4igh,2020-0188,2020-11-16,20:18:54,20:37:27,NA,incomplete,80,number,0,0,right,Green_Circle_Dots_3.jpg,Red_Circle_Chess_2.jpg,Purple_Star_Grid_3.jpg,left,626.5399999974761,false,high,NA,NA,NA,NA,NA,NA,NA,false
kKOd4igh,3oplmf3ev80afezcyc4phujqmmslnu,39u1bhvtdp4th7c1g4r3jrrtofut3u,kKOd4igh,2020-0188,2020-11-16,20:18:54,20:37:27,NA,incomplete,81,number,0,0,left,Green_Star_Dots_3.jpg,Blue_Triangle_Chess_3.jpg,Red_Star_Stripes_4.jpg,right,748.4150000091176,false,high,NA,NA,NA,NA,NA,NA,NA,false
kKOd4igh,3oplmf3ev80afezcyc4phujqmmslnu,39u1bhvtdp4th7c1g4r3jrrtofut3u,kKOd4igh,2020-0188,2020-11-16,20:18:54,20:37:27,NA,incomplete,82,number,0,1,left,Blue_Circle_Grid_1.jpg,Red_Star_Dots_1.jpg,Green_Circle_Chess_2.jpg,right,919.4250000000466,false,high,NA,NA,NA,NA,NA,NA,NA,false
kKOd4igh,3oplmf3ev80afezcyc4phujqmmslnu,39u1bhvtdp4th7c1g4r3jrrtofut3u,kKOd4igh,2020-0188,2020-11-16,20:18:54,20:37:27,NA,incomplete,83,number,0,1,right,Blue_Star_Dots_3.jpg,Purple_Star_Stripes_4.jpg,Red_Triangle_Chess_3.jpg,left,795.060000004014,false,high,NA,NA,NA,NA,NA,NA,NA,false
kKOd4igh,3oplmf3ev80afezcyc4phujqmmslnu,39u1bhvtdp4th7c1g4r3jrrtofut3u,kKOd4igh,2020-0188,2020-11-16,20:18:54,20:37:27,NA,incomplete,84,number,0,1,right,Purple_Star_Stripes_4.jpg,Blue_Star_Chess_1.jpg,Red_Plus_Dots_4.jpg,right,773.0850000225473,true,high,NA,NA,NA,NA,NA,NA,NA,false
kKOd4igh,3oplmf3ev80afezcyc4phujqmmslnu,39u1bhvtdp4th7c1g4r3jrrtofut3u,kKOd4igh,2020-0188,2020-11-16,20:18:54,20:37:27,NA,incomplete,85,number,0,1,left,Purple_Triangle_Stripes_1.jpg,Red_Star_Chess_1.jpg,Green_Triangle_Dots_2.jpg,left,819.5149999810383,true,high,NA,NA,NA,NA,NA,NA,NA,false
kKOd4igh,3oplmf3ev80afezcyc4phujqmmslnu,39u1bhvtdp4th7c1g4r3jrrtofut3u,kKOd4igh,2020-0188,2020-11-16,20:18:54,20:37:27,NA,incomplete,86,number,0,1,right,Red_Star_Stripes_4.jpg,Purple_Star_Dots_3.jpg,Green_Circle_Chess_4.jpg,right,828.5249999898952,true,high,NA,NA,NA,NA,NA,NA,NA,false
kKOd4igh,3oplmf3ev80afezcyc4phujqmmslnu,39u1bhvtdp4th7c1g4r3jrrtofut3u,kKOd4igh,2020-0188,2020-11-16,20:18:54,20:37:27,NA,incomplete,87,number,0,1,right,Purple_Plus_Stripes_3.jpg,Red_Plus_Dots_1.jpg,Blue_Triangle_Grid_3.jpg,right,744.0499999793246,true,high,NA,NA,NA,NA,NA,NA,NA,false
kKOd4igh,3oplmf3ev80afezcyc4phujqmmslnu,39u1bhvtdp4th7c1g4r3jrrtofut3u,kKOd4igh,2020-0188,2020-11-16,20:18:54,20:37:27,NA,incomplete,88,number,0,0,left,Purple_Star_Stripes_3.jpg,Green_Triangle_Dots_3.jpg,Blue_Star_Chess_2.jpg,right,1130.4199999722186,false,high,NA,NA,NA,NA,NA,NA,NA,false
kKOd4igh,3oplmf3ev80afezcyc4phujqmmslnu,39u1bhvtdp4th7c1g4r3jrrtofut3u,kKOd4igh,2020-0188,2020-11-16,20:18:54,20:37:27,NA,incomplete,89,number,0,1,left,Green_Star_Grid_1.jpg,Red_Triangle_Chess_1.jpg,Blue_Star_Dots_3.jpg,left,1360.0550000264775,true,high,NA,NA,NA,NA,NA,NA,NA,false
kKOd4igh,3oplmf3ev80afezcyc4phujqmmslnu,39u1bhvtdp4th7c1g4r3jrrtofut3u,kKOd4igh,2020-0188,2020-11-16,20:18:54,20:37:27,NA,incomplete,90,shape,1,1,right,Purple_Star_Dots_3.jpg,Red_Triangle_Grid_3.jpg,Green_Star_Stripes_1.jpg,left,1215.4049999953713,false,high,NA,NA,NA,NA,NA,NA,NA,false
kKOd4igh,3oplmf3ev80afezcyc4phujqmmslnu,39u1bhvtdp4th7c1g4r3jrrtofut3u,kKOd4igh,2020-0188,2020-11-16,20:18:54,20:37:27,NA,incomplete,91,shape,1,1,left,Blue_Star_Stripes_3.jpg,Green_Star_Chess_4.jpg,Purple_Circle_Grid_3.jpg,right,1109.8250000213739,false,high,NA,NA,NA,NA,NA,NA,NA,false
kKOd4igh,3oplmf3ev80afezcyc4phujqmmslnu,39u1bhvtdp4th7c1g4r3jrrtofut3u,kKOd4igh,2020-0188,2020-11-16,20:18:54,20:37:27,NA,incomplete,92,shape,1,1,left,Purple_Plus_Dots_2.jpg,Green_Plus_Grid_3.jpg,Blue_Circle_Stripes_2.jpg,left,575.8100000093691,true,high,NA,NA,NA,NA,NA,NA,NA,false
kKOd4igh,3oplmf3ev80afezcyc4phujqmmslnu,39u1bhvtdp4th7c1g4r3jrrtofut3u,kKOd4igh,2020-0188,2020-11-16,20:18:54,20:37:27,NA,incomplete,93,shape,1,1,left,Red_Star_Grid_1.jpg,Blue_Star_Chess_2.jpg,Purple_Circle_Dots_1.jpg,left,977.6949999795761,true,high,NA,NA,NA,NA,NA,NA,NA,false
kKOd4igh,3oplmf3ev80afezcyc4phujqmmslnu,39u1bhvtdp4th7c1g4r3jrrtofut3u,kKOd4igh,2020-0188,2020-11-16,20:18:54,20:37:27,NA,incomplete,94,shape,1,1,left,Blue_Plus_Stripes_1.jpg,Green_Plus_Dots_2.jpg,Red_Star_Chess_1.jpg,left,606.4750000077765,true,high,NA,NA,NA,NA,NA,NA,NA,false
kKOd4igh,3oplmf3ev80afezcyc4phujqmmslnu,39u1bhvtdp4th7c1g4r3jrrtofut3u,kKOd4igh,2020-0188,2020-11-16,20:18:54,20:37:27,NA,incomplete,95,shape,1,1,right,Purple_Star_Dots_2.jpg,Green_Triangle_Stripes_2.jpg,Blue_Star_Chess_4.jpg,right,1294.9399999924935,true,high,NA,NA,NA,NA,NA,NA,NA,false
kKOd4igh,3oplmf3ev80afezcyc4phujqmmslnu,39u1bhvtdp4th7c1g4r3jrrtofut3u,kKOd4igh,2020-0188,2020-11-16,20:18:54,20:37:27,NA,incomplete,96,shape,1,1,right,Red_Circle_Stripes_3.jpg,Green_Star_Dots_3.jpg,Purple_Circle_Chess_1.jpg,right,986.4150000212248,true,high,NA,NA,NA,NA,NA,NA,NA,false
kKOd4igh,3oplmf3ev80afezcyc4phujqmmslnu,39u1bhvtdp4th7c1g4r3jrrtofut3u,kKOd4igh,2020-0188,2020-11-16,20:18:54,20:37:27,NA,incomplete,97,shape,1,1,left,Red_Triangle_Chess_3.jpg,Blue_Triangle_Grid_2.jpg,Purple_Circle_Dots_3.jpg,left,619.0399999904912,true,high,NA,NA,NA,NA,NA,NA,NA,false
kKOd4igh,3oplmf3ev80afezcyc4phujqmmslnu,39u1bhvtdp4th7c1g4r3jrrtofut3u,kKOd4igh,2020-0188,2020-11-16,20:18:54,20:37:27,NA,incomplete,98,shape,1,0,right,Purple_Triangle_Stripes_2.jpg,Blue_Plus_Grid_2.jpg,Red_Triangle_Dots_4.jpg,right,745.5450000124983,true,high,NA,NA,NA,NA,NA,NA,NA,false
kKOd4igh,3oplmf3ev80afezcyc4phujqmmslnu,39u1bhvtdp4th7c1g4r3jrrtofut3u,kKOd4igh,2020-0188,2020-11-16,20:18:54,20:37:27,NA,incomplete,99,shape,1,1,left,Blue_Circle_Grid_3.jpg,Red_Circle_Chess_2.jpg,Green_Star_Stripes_3.jpg,left,1039.630000013858,true,high,NA,NA,NA,NA,NA,NA,NA,false
kKOd4igh,3oplmf3ev80afezcyc4phujqmmslnu,39u1bhvtdp4th7c1g4r3jrrtofut3u,kKOd4igh,2020-0188,2020-11-16,20:18:54,20:37:27,NA,incomplete,100,number,0,1,right,Blue_Star_Dots_1.jpg,Purple_Star_Grid_3.jpg,Green_Plus_Chess_1.jpg,left,681.094999978086,false,high,NA,NA,NA,NA,NA,NA,NA,false
kKOd4igh,3oplmf3ev80afezcyc4phujqmmslnu,39u1bhvtdp4th7c1g4r3jrrtofut3u,kKOd4igh,2020-0188,2020-11-16,20:18:54,20:37:27,NA,incomplete,101,number,0,1,right,Green_Triangle_Grid_1.jpg,Blue_Triangle_Dots_4.jpg,Purple_Plus_Chess_1.jpg,left,696.2500000081491,false,high,NA,NA,NA,NA,NA,NA,NA,false
kKOd4igh,3oplmf3ev80afezcyc4phujqmmslnu,39u1bhvtdp4th7c1g4r3jrrtofut3u,kKOd4igh,2020-0188,2020-11-16,20:18:54,20:37:27,NA,incomplete,102,number,0,1,left,Red_Circle_Chess_2.jpg,Purple_Plus_Grid_2.jpg,Green_Circle_Dots_3.jpg,left,816.419999988284,true,high,NA,NA,NA,NA,NA,NA,NA,false
kKOd4igh,3oplmf3ev80afezcyc4phujqmmslnu,39u1bhvtdp4th7c1g4r3jrrtofut3u,kKOd4igh,2020-0188,2020-11-16,20:18:54,20:37:27,NA,incomplete,103,number,0,1,left,Green_Circle_Dots_2.jpg,Blue_Triangle_Chess_2.jpg,Red_Circle_Grid_1.jpg,left,742.1599999943282,true,high,NA,NA,NA,NA,NA,NA,NA,false
kKOd4igh,3oplmf3ev80afezcyc4phujqmmslnu,39u1bhvtdp4th7c1g4r3jrrtofut3u,kKOd4igh,2020-0188,2020-11-16,20:18:54,20:37:27,NA,incomplete,104,number,0,1,right,Blue_Circle_Dots_1.jpg,Red_Circle_Grid_2.jpg,Green_Star_Chess_1.jpg,left,505.6899999908637,false,high,NA,NA,NA,NA,NA,NA,NA,false
kKOd4igh,3oplmf3ev80afezcyc4phujqmmslnu,39u1bhvtdp4th7c1g4r3jrrtofut3u,kKOd4igh,2020-0188,2020-11-16,20:18:54,20:37:27,NA,incomplete,105,number,0,1,right,Red_Circle_Chess_1.jpg,Blue_Circle_Grid_2.jpg,Green_Star_Stripes_1.jpg,right,535.5700000072829,true,high,NA,NA,NA,NA,NA,NA,NA,false
kKOd4igh,3oplmf3ev80afezcyc4phujqmmslnu,39u1bhvtdp4th7c1g4r3jrrtofut3u,kKOd4igh,2020-0188,2020-11-16,20:18:54,20:37:27,NA,incomplete,106,number,0,0,right,Blue_Star_Stripes_3.jpg,Red_Star_Dots_1.jpg,Green_Plus_Chess_3.jpg,right,784.1699999989942,true,high,NA,NA,NA,NA,NA,NA,NA,false
kKOd4igh,3oplmf3ev80afezcyc4phujqmmslnu,39u1bhvtdp4th7c1g4r3jrrtofut3u,kKOd4igh,2020-0188,2020-11-16,20:18:54,20:37:27,NA,incomplete,107,number,0,0,right,Purple_Plus_Grid_3.jpg,Blue_Plus_Stripes_2.jpg,Green_Star_Dots_3.jpg,right,862.9350000119302,true,high,NA,NA,NA,NA,NA,NA,NA,false
kKOd4igh,3oplmf3ev80afezcyc4phujqmmslnu,39u1bhvtdp4th7c1g4r3jrrtofut3u,kKOd4igh,2020-0188,2020-11-16,20:18:54,20:37:27,NA,incomplete,108,number,0,1,left,Purple_Star_Stripes_1.jpg,Blue_Plus_Grid_1.jpg,Green_Star_Chess_3.jpg,right,986.0599999956321,false,high,NA,NA,NA,NA,NA,NA,NA,false
kKOd4igh,3oplmf3ev80afezcyc4phujqmmslnu,39u1bhvtdp4th7c1g4r3jrrtofut3u,kKOd4igh,2020-0188,2020-11-16,20:18:54,20:37:27,NA,incomplete,109,number,0,0,right,Purple_Triangle_Chess_3.jpg,Red_Triangle_Stripes_2.jpg,Blue_Circle_Grid_3.jpg,right,839.3199999991339,true,high,NA,NA,NA,NA,NA,NA,NA,false
kKOd4igh,3oplmf3ev80afezcyc4phujqmmslnu,39u1bhvtdp4th7c1g4r3jrrtofut3u,kKOd4igh,2020-0188,2020-11-16,20:18:54,20:37:27,NA,incomplete,110,shape,1,1,left,Blue_Star_Grid_3.jpg,Purple_Star_Dots_2.jpg,Red_Circle_Stripes_3.jpg,left,739.6299999963958,true,high,NA,NA,NA,NA,NA,NA,NA,false
kKOd4igh,3oplmf3ev80afezcyc4phujqmmslnu,39u1bhvtdp4th7c1g4r3jrrtofut3u,kKOd4igh,2020-0188,2020-11-16,20:18:54,20:37:27,NA,incomplete,111,shape,1,1,right,Blue_Circle_Chess_2.jpg,Green_Star_Dots_2.jpg,Purple_Circle_Stripes_1.jpg,right,1171.9949999824166,true,high,NA,NA,NA,NA,NA,NA,NA,false
kKOd4igh,3oplmf3ev80afezcyc4phujqmmslnu,39u1bhvtdp4th7c1g4r3jrrtofut3u,kKOd4igh,2020-0188,2020-11-16,20:18:54,20:37:27,NA,incomplete,112,shape,1,1,right,Red_Triangle_Dots_3.jpg,Blue_Circle_Grid_3.jpg,Green_Triangle_Chess_4.jpg,right,1152.8650000109337,true,high,NA,NA,NA,NA,NA,NA,NA,false
kKOd4igh,3oplmf3ev80afezcyc4phujqmmslnu,39u1bhvtdp4th7c1g4r3jrrtofut3u,kKOd4igh,2020-0188,2020-11-16,20:18:54,20:37:27,NA,incomplete,113,shape,1,1,right,Green_Triangle_Stripes_4.jpg,Blue_Plus_Grid_4.jpg,Red_Triangle_Chess_2.jpg,right,623.9650000061374,true,high,NA,NA,NA,NA,NA,NA,NA,false
kKOd4igh,3oplmf3ev80afezcyc4phujqmmslnu,39u1bhvtdp4th7c1g4r3jrrtofut3u,kKOd4igh,2020-0188,2020-11-16,20:18:54,20:37:27,NA,incomplete,114,shape,1,1,left,Purple_Circle_Stripes_4.jpg,Blue_Circle_Dots_1.jpg,Red_Star_Chess_4.jpg,left,755.3699999989476,true,high,NA,NA,NA,NA,NA,NA,NA,false
kKOd4igh,3oplmf3ev80afezcyc4phujqmmslnu,39u1bhvtdp4th7c1g4r3jrrtofut3u,kKOd4igh,2020-0188,2020-11-16,20:18:54,20:37:27,NA,incomplete,115,shape,1,1,right,Purple_Plus_Dots_3.jpg,Blue_Triangle_Stripes_3.jpg,Green_Plus_Chess_2.jpg,right,899.8350000183564,true,high,NA,NA,NA,NA,NA,NA,NA,false
kKOd4igh,3oplmf3ev80afezcyc4phujqmmslnu,39u1bhvtdp4th7c1g4r3jrrtofut3u,kKOd4igh,2020-0188,2020-11-16,20:18:54,20:37:27,NA,incomplete,116,shape,1,0,right,Purple_Star_Chess_2.jpg,Blue_Circle_Grid_2.jpg,Red_Star_Stripes_3.jpg,right,750.5500000261236,true,high,NA,NA,NA,NA,NA,NA,NA,false
kKOd4igh,3oplmf3ev80afezcyc4phujqmmslnu,39u1bhvtdp4th7c1g4r3jrrtofut3u,kKOd4igh,2020-0188,2020-11-16,20:18:54,20:37:27,NA,incomplete,117,shape,1,1,left,Blue_Star_Chess_4.jpg,Purple_Star_Stripes_1.jpg,Red_Plus_Grid_4.jpg,left,634.6649999904912,true,high,NA,NA,NA,NA,NA,NA,NA,false
kKOd4igh,3oplmf3ev80afezcyc4phujqmmslnu,39u1bhvtdp4th7c1g4r3jrrtofut3u,kKOd4igh,2020-0188,2020-11-16,20:18:54,20:37:27,NA,incomplete,118,shape,1,1,left,Red_Plus_Stripes_3.jpg,Purple_Plus_Grid_4.jpg,Green_Star_Dots_3.jpg,left,1045.524999994086,true,high,NA,NA,NA,NA,NA,NA,NA,false
kKOd4igh,3oplmf3ev80afezcyc4phujqmmslnu,39u1bhvtdp4th7c1g4r3jrrtofut3u,kKOd4igh,2020-0188,2020-11-16,20:18:54,20:37:27,NA,incomplete,119,shape,1,1,left,Green_Star_Stripes_4.jpg,Blue_Star_Dots_1.jpg,Red_Triangle_Chess_4.jpg,left,819.8899999842979,true,high,NA,NA,NA,NA,NA,NA,NA,false
kKOd4igh,3oplmf3ev80afezcyc4phujqmmslnu,39u1bhvtdp4th7c1g4r3jrrtofut3u,kKOd4igh,2020-0188,2020-11-16,20:18:54,20:37:27,NA,incomplete,120,race,2,1,right,A_F_03.jpg,C_F_06.jpg,A_M_11.jpg,NA,NA,NA,high,NA,NA,NA,NA,NA,NA,NA,false
kKOd4igh,3oplmf3ev80afezcyc4phujqmmslnu,39u1bhvtdp4th7c1g4r3jrrtofut3u,kKOd4igh,2020-0188,2020-11-16,20:18:54,20:37:27,NA,incomplete,121,race,2,1,left,C_F_11.jpg,C_M_15.jpg,A_F_12.jpg,right,1008.029999997234,false,high,NA,NA,NA,NA,NA,NA,NA,false
kKOd4igh,3oplmf3ev80afezcyc4phujqmmslnu,39u1bhvtdp4th7c1g4r3jrrtofut3u,kKOd4igh,2020-0188,2020-11-16,20:18:54,20:37:27,NA,incomplete,122,race,2,1,right,C_M_16.jpg,A_M_08.jpg,C_F_14.jpg,right,1233.6349999823142,true,high,NA,NA,NA,NA,NA,NA,NA,false
kKOd4igh,3oplmf3ev80afezcyc4phujqmmslnu,39u1bhvtdp4th7c1g4r3jrrtofut3u,kKOd4igh,2020-0188,2020-11-16,20:18:54,20:37:27,NA,incomplete,123,race,2,1,right,C_F_09.jpg,A_F_01.jpg,C_M_14.jpg,right,1133.8899999973364,true,high,NA,NA,NA,NA,NA,NA,NA,false
kKOd4igh,3oplmf3ev80afezcyc4phujqmmslnu,39u1bhvtdp4th7c1g4r3jrrtofut3u,kKOd4igh,2020-0188,2020-11-16,20:18:54,20:37:27,NA,incomplete,124,race,2,1,right,A_F_06.jpg,C_F_16.jpg,A_M_10.jpg,right,933.9200000104029,true,high,NA,NA,NA,NA,NA,NA,NA,false
kKOd4igh,3oplmf3ev80afezcyc4phujqmmslnu,39u1bhvtdp4th7c1g4r3jrrtofut3u,kKOd4igh,2020-0188,2020-11-16,20:18:54,20:37:27,NA,incomplete,125,race,2,1,right,C_M_05.jpg,A_M_06.jpg,C_F_02.jpg,right,1126.3699999835808,true,high,NA,NA,NA,NA,NA,NA,NA,false
kKOd4igh,3oplmf3ev80afezcyc4phujqmmslnu,39u1bhvtdp4th7c1g4r3jrrtofut3u,kKOd4igh,2020-0188,2020-11-16,20:18:54,20:37:27,NA,incomplete,126,race,2,1,right,A_F_01.jpg,C_F_14.jpg,A_M_04.jpg,right,884.4349999853875,true,high,NA,NA,NA,NA,NA,NA,NA,false
kKOd4igh,3oplmf3ev80afezcyc4phujqmmslnu,39u1bhvtdp4th7c1g4r3jrrtofut3u,kKOd4igh,2020-0188,2020-11-16,20:18:54,20:37:27,NA,incomplete,127,race,2,1,right,C_F_04.jpg,A_F_15.jpg,C_M_12.jpg,right,846.7950000194833,true,high,NA,NA,NA,NA,NA,NA,NA,false
kKOd4igh,3oplmf3ev80afezcyc4phujqmmslnu,39u1bhvtdp4th7c1g4r3jrrtofut3u,kKOd4igh,2020-0188,2020-11-16,20:18:54,20:37:27,NA,incomplete,128,race,2,1,right,C_F_13.jpg,A_F_07.jpg,C_M_05.jpg,right,1002.6450000004843,true,high,NA,NA,NA,NA,NA,NA,NA,false
kKOd4igh,3oplmf3ev80afezcyc4phujqmmslnu,39u1bhvtdp4th7c1g4r3jrrtofut3u,kKOd4igh,2020-0188,2020-11-16,20:18:54,20:37:27,NA,incomplete,129,race,2,1,left,A_F_11.jpg,A_M_09.jpg,C_F_03.jpg,left,795.8550000039395,true,high,NA,NA,NA,NA,NA,NA,NA,false
kKOd4igh,3oplmf3ev80afezcyc4phujqmmslnu,39u1bhvtdp4th7c1g4r3jrrtofut3u,kKOd4igh,2020-0188,2020-11-16,20:18:54,20:37:27,NA,incomplete,130,race,2,1,right,C_F_13.jpg,A_F_14.jpg,C_M_06.jpg,right,879.7150000173133,true,high,NA,NA,NA,NA,NA,NA,NA,false
kKOd4igh,3oplmf3ev80afezcyc4phujqmmslnu,39u1bhvtdp4th7c1g4r3jrrtofut3u,kKOd4igh,2020-0188,2020-11-16,20:18:54,20:37:27,NA,incomplete,131,race,2,1,left,A_F_01.jpg,A_M_16.jpg,C_F_02.jpg,left,739.560000016354,true,high,NA,NA,NA,NA,NA,NA,NA,false
kKOd4igh,3oplmf3ev80afezcyc4phujqmmslnu,39u1bhvtdp4th7c1g4r3jrrtofut3u,kKOd4igh,2020-0188,2020-11-16,20:18:54,20:37:27,NA,incomplete,132,race,2,1,right,A_M_06.jpg,C_M_09.jpg,A_F_03.jpg,right,857.1299999894109,true,high,NA,NA,NA,NA,NA,NA,NA,false
kKOd4igh,3oplmf3ev80afezcyc4phujqmmslnu,39u1bhvtdp4th7c1g4r3jrrtofut3u,kKOd4igh,2020-0188,2020-11-16,20:18:54,20:37:27,NA,incomplete,133,race,2,0,right,A_F_07.jpg,C_F_04.jpg,A_M_11.jpg,right,783.770000009099,true,high,NA,NA,NA,NA,NA,NA,NA,false
kKOd4igh,3oplmf3ev80afezcyc4phujqmmslnu,39u1bhvtdp4th7c1g4r3jrrtofut3u,kKOd4igh,2020-0188,2020-11-16,20:18:54,20:37:27,NA,incomplete,134,race,2,1,right,A_F_08.jpg,C_F_10.jpg,A_M_05.jpg,left,862.5349999929313,false,high,NA,NA,NA,NA,NA,NA,NA,false
kKOd4igh,3oplmf3ev80afezcyc4phujqmmslnu,39u1bhvtdp4th7c1g4r3jrrtofut3u,kKOd4igh,2020-0188,2020-11-16,20:18:54,20:37:27,NA,incomplete,135,race,2,1,right,A_M_16.jpg,C_M_06.jpg,A_F_08.jpg,left,941.8850000074599,false,high,NA,NA,NA,NA,NA,NA,NA,false
kKOd4igh,3oplmf3ev80afezcyc4phujqmmslnu,39u1bhvtdp4th7c1g4r3jrrtofut3u,kKOd4igh,2020-0188,2020-11-16,20:18:54,20:37:27,NA,incomplete,136,race,2,1,left,A_M_13.jpg,A_F_01.jpg,C_M_16.jpg,left,986.7450000019744,true,high,NA,NA,NA,NA,NA,NA,NA,false
kKOd4igh,3oplmf3ev80afezcyc4phujqmmslnu,39u1bhvtdp4th7c1g4r3jrrtofut3u,kKOd4igh,2020-0188,2020-11-16,20:18:54,20:37:27,NA,incomplete,137,race,2,1,right,A_F_01.jpg,C_F_08.jpg,A_M_02.jpg,right,922.2299999964889,true,high,NA,NA,NA,NA,NA,NA,NA,false
kKOd4igh,3oplmf3ev80afezcyc4phujqmmslnu,39u1bhvtdp4th7c1g4r3jrrtofut3u,kKOd4igh,2020-0188,2020-11-16,20:18:54,20:37:27,NA,incomplete,138,race,2,1,left,C_F_16.jpg,C_M_01.jpg,A_F_08.jpg,left,1250.9149999823421,true,high,NA,NA,NA,NA,NA,NA,NA,false
kKOd4igh,3oplmf3ev80afezcyc4phujqmmslnu,39u1bhvtdp4th7c1g4r3jrrtofut3u,kKOd4igh,2020-0188,2020-11-16,20:18:54,20:37:27,NA,incomplete,139,race,2,1,left,C_F_15.jpg,C_M_09.jpg,A_F_07.jpg,left,878.100000001723,true,high,NA,NA,NA,NA,NA,NA,NA,false
kKOd4igh,3oplmf3ev80afezcyc4phujqmmslnu,39u1bhvtdp4th7c1g4r3jrrtofut3u,kKOd4igh,2020-0188,2020-11-16,20:18:54,20:37:27,NA,incomplete,140,gender,3,0,right,C_M_14.jpg,C_F_01.jpg,A_M_03.jpg,left,1069.7899999795482,false,high,NA,NA,NA,NA,NA,NA,NA,false
kKOd4igh,3oplmf3ev80afezcyc4phujqmmslnu,39u1bhvtdp4th7c1g4r3jrrtofut3u,kKOd4igh,2020-0188,2020-11-16,20:18:54,20:37:27,NA,incomplete,141,gender,3,1,left,C_F_12.jpg,A_F_09.jpg,C_M_14.jpg,right,823.7749999971129,false,high,NA,NA,NA,NA,NA,NA,NA,false
kKOd4igh,3oplmf3ev80afezcyc4phujqmmslnu,39u1bhvtdp4th7c1g4r3jrrtofut3u,kKOd4igh,2020-0188,2020-11-16,20:18:54,20:37:27,NA,incomplete,142,gender,3,1,left,A_F_02.jpg,C_F_04.jpg,A_M_11.jpg,right,773.5849999880884,false,high,NA,NA,NA,NA,NA,NA,NA,false
kKOd4igh,3oplmf3ev80afezcyc4phujqmmslnu,39u1bhvtdp4th7c1g4r3jrrtofut3u,kKOd4igh,2020-0188,2020-11-16,20:18:54,20:37:27,NA,incomplete,143,gender,3,1,left,C_M_13.jpg,A_M_05.jpg,C_F_11.jpg,left,877.0249999943189,true,high,NA,NA,NA,NA,NA,NA,NA,false
kKOd4igh,3oplmf3ev80afezcyc4phujqmmslnu,39u1bhvtdp4th7c1g4r3jrrtofut3u,kKOd4igh,2020-0188,2020-11-16,20:18:54,20:37:27,NA,incomplete,144,gender,3,0,left,A_M_11.jpg,C_M_03.jpg,A_F_09.jpg,left,761.8350000120699,true,high,NA,NA,NA,NA,NA,NA,NA,false
kKOd4igh,3oplmf3ev80afezcyc4phujqmmslnu,39u1bhvtdp4th7c1g4r3jrrtofut3u,kKOd4igh,2020-0188,2020-11-16,20:18:54,20:37:27,NA,incomplete,145,gender,3,1,left,C_M_05.jpg,A_M_02.jpg,C_F_16.jpg,left,768.2750000094529,true,high,NA,NA,NA,NA,NA,NA,NA,false
kKOd4igh,3oplmf3ev80afezcyc4phujqmmslnu,39u1bhvtdp4th7c1g4r3jrrtofut3u,kKOd4igh,2020-0188,2020-11-16,20:18:54,20:37:27,NA,incomplete,146,gender,3,0,left,C_F_04.jpg,A_F_12.jpg,C_M_16.jpg,left,1012.6900000032037,true,high,NA,NA,NA,NA,NA,NA,NA,false
kKOd4igh,3oplmf3ev80afezcyc4phujqmmslnu,39u1bhvtdp4th7c1g4r3jrrtofut3u,kKOd4igh,2020-0188,2020-11-16,20:18:54,20:37:27,NA,incomplete,147,gender,3,1,left,C_M_16.jpg,A_M_12.jpg,C_F_11.jpg,left,793.5299999953713,true,high,NA,NA,NA,NA,NA,NA,NA,false
kKOd4igh,3oplmf3ev80afezcyc4phujqmmslnu,39u1bhvtdp4th7c1g4r3jrrtofut3u,kKOd4igh,2020-0188,2020-11-16,20:18:54,20:37:27,NA,incomplete,148,gender,3,1,left,A_F_12.jpg,C_F_01.jpg,A_M_09.jpg,left,775.2600000239909,true,high,NA,NA,NA,NA,NA,NA,NA,false
kKOd4igh,3oplmf3ev80afezcyc4phujqmmslnu,39u1bhvtdp4th7c1g4r3jrrtofut3u,kKOd4igh,2020-0188,2020-11-16,20:18:54,20:37:27,NA,incomplete,149,gender,3,0,left,A_F_05.jpg,C_F_14.jpg,A_M_16.jpg,left,749.5749999943655,true,high,NA,NA,NA,NA,NA,NA,NA,false
kKOd4igh,3oplmf3ev80afezcyc4phujqmmslnu,39u1bhvtdp4th7c1g4r3jrrtofut3u,kKOd4igh,2020-0188,2020-11-16,20:18:54,20:37:27,NA,incomplete,150,gender,3,1,left,A_F_16.jpg,C_F_03.jpg,A_M_15.jpg,left,703.4849999763537,true,high,NA,NA,NA,NA,NA,NA,NA,false
kKOd4igh,3oplmf3ev80afezcyc4phujqmmslnu,39u1bhvtdp4th7c1g4r3jrrtofut3u,kKOd4igh,2020-0188,2020-11-16,20:18:54,20:37:27,NA,incomplete,151,gender,3,1,right,C_M_13.jpg,C_F_04.jpg,A_M_03.jpg,right,1034.1949999856297,true,high,NA,NA,NA,NA,NA,NA,NA,false
kKOd4igh,3oplmf3ev80afezcyc4phujqmmslnu,39u1bhvtdp4th7c1g4r3jrrtofut3u,kKOd4igh,2020-0188,2020-11-16,20:18:54,20:37:27,NA,incomplete,152,gender,3,1,left,C_F_16.jpg,A_F_01.jpg,C_M_09.jpg,left,766.5700000070501,true,high,NA,NA,NA,NA,NA,NA,NA,false
kKOd4igh,3oplmf3ev80afezcyc4phujqmmslnu,39u1bhvtdp4th7c1g4r3jrrtofut3u,kKOd4igh,2020-0188,2020-11-16,20:18:54,20:37:27,NA,incomplete,153,gender,3,1,right,A_F_03.jpg,A_M_16.jpg,C_F_12.jpg,right,767.9349999816623,true,high,NA,NA,NA,NA,NA,NA,NA,false
kKOd4igh,3oplmf3ev80afezcyc4phujqmmslnu,39u1bhvtdp4th7c1g4r3jrrtofut3u,kKOd4igh,2020-0188,2020-11-16,20:18:54,20:37:27,NA,incomplete,154,gender,3,1,left,A_F_05.jpg,C_F_11.jpg,A_M_08.jpg,left,790.1299999793991,true,high,NA,NA,NA,NA,NA,NA,NA,false
kKOd4igh,3oplmf3ev80afezcyc4phujqmmslnu,39u1bhvtdp4th7c1g4r3jrrtofut3u,kKOd4igh,2020-0188,2020-11-16,20:18:54,20:37:27,NA,incomplete,155,gender,3,1,left,A_F_12.jpg,C_F_15.jpg,A_M_16.jpg,left,683.8850000058301,true,high,NA,NA,NA,NA,NA,NA,NA,false
kKOd4igh,3oplmf3ev80afezcyc4phujqmmslnu,39u1bhvtdp4th7c1g4r3jrrtofut3u,kKOd4igh,2020-0188,2020-11-16,20:18:54,20:37:27,NA,incomplete,156,gender,3,1,left,C_F_16.jpg,A_F_12.jpg,C_M_08.jpg,left,625.4400000034366,true,high,NA,NA,NA,NA,NA,NA,NA,false
kKOd4igh,3oplmf3ev80afezcyc4phujqmmslnu,39u1bhvtdp4th7c1g4r3jrrtofut3u,kKOd4igh,2020-0188,2020-11-16,20:18:54,20:37:27,NA,incomplete,157,gender,3,0,right,C_F_12.jpg,C_M_07.jpg,A_F_09.jpg,right,883.6850000079721,true,high,NA,NA,NA,NA,NA,NA,NA,false
kKOd4igh,3oplmf3ev80afezcyc4phujqmmslnu,39u1bhvtdp4th7c1g4r3jrrtofut3u,kKOd4igh,2020-0188,2020-11-16,20:18:54,20:37:27,NA,incomplete,158,gender,3,1,left,C_F_16.jpg,A_F_12.jpg,C_M_03.jpg,left,688.7350000033621,true,high,NA,NA,NA,NA,NA,NA,NA,false
kKOd4igh,3oplmf3ev80afezcyc4phujqmmslnu,39u1bhvtdp4th7c1g4r3jrrtofut3u,kKOd4igh,2020-0188,2020-11-16,20:18:54,20:37:27,NA,incomplete,159,gender,3,0,right,C_M_07.jpg,C_F_09.jpg,A_M_04.jpg,right,758.5499999986496,true,high,NA,NA,NA,NA,NA,NA,NA,false
kKOd4igh,3oplmf3ev80afezcyc4phujqmmslnu,39u1bhvtdp4th7c1g4r3jrrtofut3u,kKOd4igh,2020-0188,2020-11-16,20:18:54,20:37:27,NA,incomplete,160,race,2,1,right,A_M_12.jpg,C_M_02.jpg,A_F_03.jpg,left,679.904999997234,false,high,NA,NA,NA,NA,NA,NA,NA,false
kKOd4igh,3oplmf3ev80afezcyc4phujqmmslnu,39u1bhvtdp4th7c1g4r3jrrtofut3u,kKOd4igh,2020-0188,2020-11-16,20:18:54,20:37:27,NA,incomplete,161,race,2,0,right,C_F_14.jpg,A_F_02.jpg,C_M_12.jpg,right,966.9949999952223,true,high,NA,NA,NA,NA,NA,NA,NA,false
kKOd4igh,3oplmf3ev80afezcyc4phujqmmslnu,39u1bhvtdp4th7c1g4r3jrrtofut3u,kKOd4igh,2020-0188,2020-11-16,20:18:54,20:37:27,NA,incomplete,162,race,2,1,right,C_F_04.jpg,A_F_03.jpg,C_M_13.jpg,right,1005.635000008624,true,high,NA,NA,NA,NA,NA,NA,NA,false
kKOd4igh,3oplmf3ev80afezcyc4phujqmmslnu,39u1bhvtdp4th7c1g4r3jrrtofut3u,kKOd4igh,2020-0188,2020-11-16,20:18:54,20:37:27,NA,incomplete,163,race,2,1,right,A_M_09.jpg,C_M_07.jpg,A_F_02.jpg,right,832.2449999977835,true,high,NA,NA,NA,NA,NA,NA,NA,false
kKOd4igh,3oplmf3ev80afezcyc4phujqmmslnu,39u1bhvtdp4th7c1g4r3jrrtofut3u,kKOd4igh,2020-0188,2020-11-16,20:18:54,20:37:27,NA,incomplete,164,race,2,1,right,A_M_06.jpg,C_M_13.jpg,A_F_04.jpg,right,712.3450000071898,true,high,NA,NA,NA,NA,NA,NA,NA,false
kKOd4igh,3oplmf3ev80afezcyc4phujqmmslnu,39u1bhvtdp4th7c1g4r3jrrtofut3u,kKOd4igh,2020-0188,2020-11-16,20:18:54,20:37:27,NA,incomplete,165,race,2,0,left,C_M_05.jpg,C_F_11.jpg,A_M_03.jpg,left,975.8499999879859,true,high,NA,NA,NA,NA,NA,NA,NA,false
kKOd4igh,3oplmf3ev80afezcyc4phujqmmslnu,39u1bhvtdp4th7c1g4r3jrrtofut3u,kKOd4igh,2020-0188,2020-11-16,20:18:54,20:37:27,NA,incomplete,166,race,2,1,right,C_M_13.jpg,A_M_08.jpg,C_F_15.jpg,right,772.0299999928102,true,high,NA,NA,NA,NA,NA,NA,NA,false
kKOd4igh,3oplmf3ev80afezcyc4phujqmmslnu,39u1bhvtdp4th7c1g4r3jrrtofut3u,kKOd4igh,2020-0188,2020-11-16,20:18:54,20:37:27,NA,incomplete,167,race,2,1,left,A_F_02.jpg,A_M_07.jpg,C_F_05.jpg,left,918.4349999995902,true,high,NA,NA,NA,NA,NA,NA,NA,false
kKOd4igh,3oplmf3ev80afezcyc4phujqmmslnu,39u1bhvtdp4th7c1g4r3jrrtofut3u,kKOd4igh,2020-0188,2020-11-16,20:18:54,20:37:27,NA,incomplete,168,race,2,1,left,A_M_03.jpg,A_F_11.jpg,C_M_02.jpg,left,743.8449999899603,true,high,NA,NA,NA,NA,NA,NA,NA,false
kKOd4igh,3oplmf3ev80afezcyc4phujqmmslnu,39u1bhvtdp4th7c1g4r3jrrtofut3u,kKOd4igh,2020-0188,2020-11-16,20:18:54,20:37:27,NA,incomplete,169,race,2,1,right,A_F_08.jpg,C_F_09.jpg,A_M_03.jpg,right,875.1850000116974,true,high,NA,NA,NA,NA,NA,NA,NA,false
kKOd4igh,3oplmf3ev80afezcyc4phujqmmslnu,39u1bhvtdp4th7c1g4r3jrrtofut3u,kKOd4igh,2020-0188,2020-11-16,20:18:54,20:37:27,NA,incomplete,170,race,2,1,right,A_M_06.jpg,C_M_09.jpg,A_F_05.jpg,right,806.3400000100955,true,high,NA,NA,NA,NA,NA,NA,NA,false
kKOd4igh,3oplmf3ev80afezcyc4phujqmmslnu,39u1bhvtdp4th7c1g4r3jrrtofut3u,kKOd4igh,2020-0188,2020-11-16,20:18:54,20:37:27,NA,incomplete,171,race,2,0,left,C_M_07.jpg,C_F_03.jpg,A_M_05.jpg,left,1017.6900000078604,true,high,NA,NA,NA,NA,NA,NA,NA,false
kKOd4igh,3oplmf3ev80afezcyc4phujqmmslnu,39u1bhvtdp4th7c1g4r3jrrtofut3u,kKOd4igh,2020-0188,2020-11-16,20:18:54,20:37:27,NA,incomplete,172,race,2,1,left,A_M_04.jpg,A_F_08.jpg,C_M_14.jpg,left,634.0700000000652,true,high,NA,NA,NA,NA,NA,NA,NA,false
kKOd4igh,3oplmf3ev80afezcyc4phujqmmslnu,39u1bhvtdp4th7c1g4r3jrrtofut3u,kKOd4igh,2020-0188,2020-11-16,20:18:54,20:37:27,NA,incomplete,173,race,2,1,right,A_F_06.jpg,C_F_10.jpg,A_M_13.jpg,right,761.209999996936,true,high,NA,NA,NA,NA,NA,NA,NA,false
kKOd4igh,3oplmf3ev80afezcyc4phujqmmslnu,39u1bhvtdp4th7c1g4r3jrrtofut3u,kKOd4igh,2020-0188,2020-11-16,20:18:54,20:37:27,NA,incomplete,174,race,2,1,right,A_F_06.jpg,C_F_14.jpg,A_M_08.jpg,right,706.3800000178162,true,high,NA,NA,NA,NA,NA,NA,NA,false
kKOd4igh,3oplmf3ev80afezcyc4phujqmmslnu,39u1bhvtdp4th7c1g4r3jrrtofut3u,kKOd4igh,2020-0188,2020-11-16,20:18:54,20:37:27,NA,incomplete,175,race,2,1,left,C_F_03.jpg,C_M_05.jpg,A_F_09.jpg,left,1429.3799999868497,true,high,NA,NA,NA,NA,NA,NA,NA,false
kKOd4igh,3oplmf3ev80afezcyc4phujqmmslnu,39u1bhvtdp4th7c1g4r3jrrtofut3u,kKOd4igh,2020-0188,2020-11-16,20:18:54,20:37:27,NA,incomplete,176,race,2,1,right,A_M_04.jpg,C_M_12.jpg,A_F_09.jpg,right,942.9850000014994,true,high,NA,NA,NA,NA,NA,NA,NA,false
kKOd4igh,3oplmf3ev80afezcyc4phujqmmslnu,39u1bhvtdp4th7c1g4r3jrrtofut3u,kKOd4igh,2020-0188,2020-11-16,20:18:54,20:37:27,NA,incomplete,177,race,2,0,right,C_M_01.jpg,A_M_04.jpg,C_F_10.jpg,right,932.2699999902397,true,high,NA,NA,NA,NA,NA,NA,NA,false
kKOd4igh,3oplmf3ev80afezcyc4phujqmmslnu,39u1bhvtdp4th7c1g4r3jrrtofut3u,kKOd4igh,2020-0188,2020-11-16,20:18:54,20:37:27,NA,incomplete,178,race,2,1,left,C_F_08.jpg,C_M_14.jpg,A_F_10.jpg,left,766.4050000021234,true,high,NA,NA,NA,NA,NA,NA,NA,false
kKOd4igh,3oplmf3ev80afezcyc4phujqmmslnu,39u1bhvtdp4th7c1g4r3jrrtofut3u,kKOd4igh,2020-0188,2020-11-16,20:18:54,20:37:27,NA,incomplete,179,race,2,0,right,A_F_12.jpg,C_F_03.jpg,A_M_01.jpg,right,850.1549999928102,true,high,NA,NA,NA,NA,NA,NA,NA,false
kKOd4igh,3oplmf3ev80afezcyc4phujqmmslnu,39u1bhvtdp4th7c1g4r3jrrtofut3u,kKOd4igh,2020-0188,2020-11-16,20:18:54,20:37:27,NA,incomplete,180,gender,3,1,left,A_M_11.jpg,C_M_09.jpg,A_F_08.jpg,right,721.3200000114739,false,high,NA,NA,NA,NA,NA,NA,NA,false
kKOd4igh,3oplmf3ev80afezcyc4phujqmmslnu,39u1bhvtdp4th7c1g4r3jrrtofut3u,kKOd4igh,2020-0188,2020-11-16,20:18:54,20:37:27,NA,incomplete,181,gender,3,1,left,A_F_10.jpg,C_F_13.jpg,A_M_14.jpg,left,844.0249999985099,true,high,NA,NA,NA,NA,NA,NA,NA,false
kKOd4igh,3oplmf3ev80afezcyc4phujqmmslnu,39u1bhvtdp4th7c1g4r3jrrtofut3u,kKOd4igh,2020-0188,2020-11-16,20:18:54,20:37:27,NA,incomplete,182,gender,3,0,right,A_M_02.jpg,A_F_03.jpg,C_M_07.jpg,left,928.7100000074133,false,high,NA,NA,NA,NA,NA,NA,NA,false
kKOd4igh,3oplmf3ev80afezcyc4phujqmmslnu,39u1bhvtdp4th7c1g4r3jrrtofut3u,kKOd4igh,2020-0188,2020-11-16,20:18:54,20:37:27,NA,incomplete,183,gender,3,1,left,C_M_06.jpg,A_M_13.jpg,C_F_01.jpg,left,1126.9049999827985,true,high,NA,NA,NA,NA,NA,NA,NA,false
kKOd4igh,3oplmf3ev80afezcyc4phujqmmslnu,39u1bhvtdp4th7c1g4r3jrrtofut3u,kKOd4igh,2020-0188,2020-11-16,20:18:54,20:37:27,NA,incomplete,184,gender,3,1,right,A_M_05.jpg,A_F_09.jpg,C_M_02.jpg,right,832.1200000063982,true,high,NA,NA,NA,NA,NA,NA,NA,false
kKOd4igh,3oplmf3ev80afezcyc4phujqmmslnu,39u1bhvtdp4th7c1g4r3jrrtofut3u,kKOd4igh,2020-0188,2020-11-16,20:18:54,20:37:27,NA,incomplete,185,gender,3,0,right,C_M_14.jpg,C_F_11.jpg,A_M_10.jpg,right,839.159999974072,true,high,NA,NA,NA,NA,NA,NA,NA,false
kKOd4igh,3oplmf3ev80afezcyc4phujqmmslnu,39u1bhvtdp4th7c1g4r3jrrtofut3u,kKOd4igh,2020-0188,2020-11-16,20:18:54,20:37:27,NA,incomplete,186,gender,3,1,right,C_M_06.jpg,C_F_10.jpg,A_M_05.jpg,right,852.9450000205543,true,high,NA,NA,NA,NA,NA,NA,NA,false
kKOd4igh,3oplmf3ev80afezcyc4phujqmmslnu,39u1bhvtdp4th7c1g4r3jrrtofut3u,kKOd4igh,2020-0188,2020-11-16,20:18:54,20:37:27,NA,incomplete,187,gender,3,1,left,C_M_04.jpg,A_M_05.jpg,C_F_01.jpg,left,1036.4300000073854,true,high,NA,NA,NA,NA,NA,NA,NA,false
kKOd4igh,3oplmf3ev80afezcyc4phujqmmslnu,39u1bhvtdp4th7c1g4r3jrrtofut3u,kKOd4igh,2020-0188,2020-11-16,20:18:54,20:37:27,NA,incomplete,188,gender,3,1,right,A_M_12.jpg,A_F_02.jpg,C_M_09.jpg,right,784.4150000018999,true,high,NA,NA,NA,NA,NA,NA,NA,false
kKOd4igh,3oplmf3ev80afezcyc4phujqmmslnu,39u1bhvtdp4th7c1g4r3jrrtofut3u,kKOd4igh,2020-0188,2020-11-16,20:18:54,20:37:27,NA,incomplete,189,gender,3,1,right,A_M_04.jpg,A_F_16.jpg,C_M_01.jpg,right,787.8999999957159,true,high,NA,NA,NA,NA,NA,NA,NA,false
kKOd4igh,3oplmf3ev80afezcyc4phujqmmslnu,39u1bhvtdp4th7c1g4r3jrrtofut3u,kKOd4igh,2020-0188,2020-11-16,20:18:54,20:37:27,NA,incomplete,190,gender,3,1,right,A_M_14.jpg,A_F_08.jpg,C_M_07.jpg,right,735.9700000088196,true,high,NA,NA,NA,NA,NA,NA,NA,false
kKOd4igh,3oplmf3ev80afezcyc4phujqmmslnu,39u1bhvtdp4th7c1g4r3jrrtofut3u,kKOd4igh,2020-0188,2020-11-16,20:18:54,20:37:27,NA,incomplete,191,gender,3,1,left,C_F_03.jpg,A_F_02.jpg,C_M_01.jpg,left,771.1199999903329,true,high,NA,NA,NA,NA,NA,NA,NA,false
kKOd4igh,3oplmf3ev80afezcyc4phujqmmslnu,39u1bhvtdp4th7c1g4r3jrrtofut3u,kKOd4igh,2020-0188,2020-11-16,20:18:54,20:37:27,NA,incomplete,192,gender,3,0,left,C_F_16.jpg,A_F_02.jpg,C_M_05.jpg,left,849.6400000003632,true,high,NA,NA,NA,NA,NA,NA,NA,false
kKOd4igh,3oplmf3ev80afezcyc4phujqmmslnu,39u1bhvtdp4th7c1g4r3jrrtofut3u,kKOd4igh,2020-0188,2020-11-16,20:18:54,20:37:27,NA,incomplete,193,gender,3,1,right,C_F_09.jpg,C_M_12.jpg,A_F_04.jpg,right,671.0800000000745,true,high,NA,NA,NA,NA,NA,NA,NA,false
kKOd4igh,3oplmf3ev80afezcyc4phujqmmslnu,39u1bhvtdp4th7c1g4r3jrrtofut3u,kKOd4igh,2020-0188,2020-11-16,20:18:54,20:37:27,NA,incomplete,194,gender,3,1,left,C_M_05.jpg,A_M_03.jpg,C_F_14.jpg,left,753.5999999963678,true,high,NA,NA,NA,NA,NA,NA,NA,false
kKOd4igh,3oplmf3ev80afezcyc4phujqmmslnu,39u1bhvtdp4th7c1g4r3jrrtofut3u,kKOd4igh,2020-0188,2020-11-16,20:18:54,20:37:27,NA,incomplete,195,gender,3,1,left,C_M_04.jpg,A_M_08.jpg,C_F_01.jpg,left,1005.4099999833852,true,high,NA,NA,NA,NA,NA,NA,NA,false
kKOd4igh,3oplmf3ev80afezcyc4phujqmmslnu,39u1bhvtdp4th7c1g4r3jrrtofut3u,kKOd4igh,2020-0188,2020-11-16,20:18:54,20:37:27,NA,incomplete,196,gender,3,1,left,C_M_02.jpg,A_M_06.jpg,C_F_09.jpg,left,1085.3899999929126,true,high,NA,NA,NA,NA,NA,NA,NA,false
kKOd4igh,3oplmf3ev80afezcyc4phujqmmslnu,39u1bhvtdp4th7c1g4r3jrrtofut3u,kKOd4igh,2020-0188,2020-11-16,20:18:54,20:37:27,NA,incomplete,197,gender,3,1,left,C_F_11.jpg,A_F_09.jpg,C_M_12.jpg,left,783.3749999990687,true,high,NA,NA,NA,NA,NA,NA,NA,false
kKOd4igh,3oplmf3ev80afezcyc4phujqmmslnu,39u1bhvtdp4th7c1g4r3jrrtofut3u,kKOd4igh,2020-0188,2020-11-16,20:18:54,20:37:27,NA,incomplete,198,gender,3,1,right,C_M_02.jpg,C_F_07.jpg,A_M_16.jpg,right,729.3249999929685,true,high,NA,NA,NA,NA,NA,NA,NA,false
kKOd4igh,3oplmf3ev80afezcyc4phujqmmslnu,39u1bhvtdp4th7c1g4r3jrrtofut3u,kKOd4igh,2020-0188,2020-11-16,20:18:54,20:37:27,NA,incomplete,199,gender,3,1,left,C_M_10.jpg,A_M_16.jpg,C_F_02.jpg,left,740.2000000001863,true,high,NA,NA,NA,NA,NA,NA,NA,false
kKOd4igh,3oplmf3ev80afezcyc4phujqmmslnu,39u1bhvtdp4th7c1g4r3jrrtofut3u,kKOd4igh,2020-0188,2020-11-16,20:18:54,20:37:27,NA,incomplete,200,race,2,1,right,A_F_11.jpg,C_F_04.jpg,A_M_06.jpg,left,1313.9000000082888,false,high,NA,NA,NA,NA,NA,NA,NA,false
kKOd4igh,3oplmf3ev80afezcyc4phujqmmslnu,39u1bhvtdp4th7c1g4r3jrrtofut3u,kKOd4igh,2020-0188,2020-11-16,20:18:54,20:37:27,NA,incomplete,201,race,2,0,left,C_F_03.jpg,C_M_05.jpg,A_F_04.jpg,right,872.7399999916088,false,high,NA,NA,NA,NA,NA,NA,NA,false
kKOd4igh,3oplmf3ev80afezcyc4phujqmmslnu,39u1bhvtdp4th7c1g4r3jrrtofut3u,kKOd4igh,2020-0188,2020-11-16,20:18:54,20:37:27,NA,incomplete,202,race,2,1,right,A_M_15.jpg,C_M_05.jpg,A_F_08.jpg,left,1018.4149999986403,false,high,NA,NA,NA,NA,NA,NA,NA,false
kKOd4igh,3oplmf3ev80afezcyc4phujqmmslnu,39u1bhvtdp4th7c1g4r3jrrtofut3u,kKOd4igh,2020-0188,2020-11-16,20:18:54,20:37:27,NA,incomplete,203,race,2,1,right,A_F_08.jpg,C_F_09.jpg,A_M_11.jpg,left,1052.399999985937,false,high,NA,NA,NA,NA,NA,NA,NA,false
kKOd4igh,3oplmf3ev80afezcyc4phujqmmslnu,39u1bhvtdp4th7c1g4r3jrrtofut3u,kKOd4igh,2020-0188,2020-11-16,20:18:54,20:37:27,NA,incomplete,204,race,2,1,left,C_M_04.jpg,C_F_09.jpg,A_M_10.jpg,right,824.7750000155065,false,high,NA,NA,NA,NA,NA,NA,NA,false
kKOd4igh,3oplmf3ev80afezcyc4phujqmmslnu,39u1bhvtdp4th7c1g4r3jrrtofut3u,kKOd4igh,2020-0188,2020-11-16,20:18:54,20:37:27,NA,incomplete,205,race,2,0,right,A_M_06.jpg,C_M_15.jpg,A_F_10.jpg,right,893.0350000155158,true,high,NA,NA,NA,NA,NA,NA,NA,false
kKOd4igh,3oplmf3ev80afezcyc4phujqmmslnu,39u1bhvtdp4th7c1g4r3jrrtofut3u,kKOd4igh,2020-0188,2020-11-16,20:18:54,20:37:27,NA,incomplete,206,race,2,1,right,C_M_15.jpg,A_M_08.jpg,C_F_10.jpg,right,1285.6200000096578,true,high,NA,NA,NA,NA,NA,NA,NA,false
kKOd4igh,3oplmf3ev80afezcyc4phujqmmslnu,39u1bhvtdp4th7c1g4r3jrrtofut3u,kKOd4igh,2020-0188,2020-11-16,20:18:54,20:37:27,NA,incomplete,207,race,2,1,right,A_F_14.jpg,C_F_11.jpg,A_M_15.jpg,right,744.0349999815226,true,high,NA,NA,NA,NA,NA,NA,NA,false
kKOd4igh,3oplmf3ev80afezcyc4phujqmmslnu,39u1bhvtdp4th7c1g4r3jrrtofut3u,kKOd4igh,2020-0188,2020-11-16,20:18:54,20:37:27,NA,incomplete,208,race,2,1,right,A_F_05.jpg,C_F_09.jpg,A_M_02.jpg,right,682.5449999887496,true,high,NA,NA,NA,NA,NA,NA,NA,false
kKOd4igh,3oplmf3ev80afezcyc4phujqmmslnu,39u1bhvtdp4th7c1g4r3jrrtofut3u,kKOd4igh,2020-0188,2020-11-16,20:18:54,20:37:27,NA,incomplete,209,race,2,1,left,C_M_09.jpg,C_F_08.jpg,A_M_15.jpg,left,1301.355000003241,true,high,NA,NA,NA,NA,NA,NA,NA,false
kKOd4igh,3oplmf3ev80afezcyc4phujqmmslnu,39u1bhvtdp4th7c1g4r3jrrtofut3u,kKOd4igh,2020-0188,2020-11-16,20:18:54,20:37:27,NA,incomplete,210,race,2,1,right,A_F_16.jpg,C_F_08.jpg,A_M_10.jpg,right,1163.8049999892246,true,high,NA,NA,NA,NA,NA,NA,NA,false
kKOd4igh,3oplmf3ev80afezcyc4phujqmmslnu,39u1bhvtdp4th7c1g4r3jrrtofut3u,kKOd4igh,2020-0188,2020-11-16,20:18:54,20:37:27,NA,incomplete,211,race,2,0,left,A_F_04.jpg,A_M_08.jpg,C_F_16.jpg,left,984.8050000146031,true,high,NA,NA,NA,NA,NA,NA,NA,false
kKOd4igh,3oplmf3ev80afezcyc4phujqmmslnu,39u1bhvtdp4th7c1g4r3jrrtofut3u,kKOd4igh,2020-0188,2020-11-16,20:18:54,20:37:27,NA,incomplete,212,race,2,1,right,A_M_01.jpg,C_M_03.jpg,A_F_06.jpg,right,718.9100000250619,true,high,NA,NA,NA,NA,NA,NA,NA,false
kKOd4igh,3oplmf3ev80afezcyc4phujqmmslnu,39u1bhvtdp4th7c1g4r3jrrtofut3u,kKOd4igh,2020-0188,2020-11-16,20:18:54,20:37:27,NA,incomplete,213,race,2,1,right,A_F_07.jpg,C_F_14.jpg,A_M_13.jpg,right,732.9150000005029,true,high,NA,NA,NA,NA,NA,NA,NA,false
kKOd4igh,3oplmf3ev80afezcyc4phujqmmslnu,39u1bhvtdp4th7c1g4r3jrrtofut3u,kKOd4igh,2020-0188,2020-11-16,20:18:54,20:37:27,NA,incomplete,214,race,2,1,right,C_M_16.jpg,A_M_12.jpg,C_F_07.jpg,right,858.4099999861792,true,high,NA,NA,NA,NA,NA,NA,NA,false
kKOd4igh,3oplmf3ev80afezcyc4phujqmmslnu,39u1bhvtdp4th7c1g4r3jrrtofut3u,kKOd4igh,2020-0188,2020-11-16,20:18:54,20:37:27,NA,incomplete,215,race,2,1,right,A_F_11.jpg,C_F_02.jpg,A_M_12.jpg,right,788.7050000135787,true,high,NA,NA,NA,NA,NA,NA,NA,false
kKOd4igh,3oplmf3ev80afezcyc4phujqmmslnu,39u1bhvtdp4th7c1g4r3jrrtofut3u,kKOd4igh,2020-0188,2020-11-16,20:18:54,20:37:27,NA,incomplete,216,race,2,0,right,C_M_14.jpg,A_M_05.jpg,C_F_07.jpg,right,1056.2000000209082,true,high,NA,NA,NA,NA,NA,NA,NA,false
kKOd4igh,3oplmf3ev80afezcyc4phujqmmslnu,39u1bhvtdp4th7c1g4r3jrrtofut3u,kKOd4igh,2020-0188,2020-11-16,20:18:54,20:37:27,NA,incomplete,217,race,2,1,left,A_F_10.jpg,A_M_07.jpg,C_F_01.jpg,left,568.9500000153203,true,high,NA,NA,NA,NA,NA,NA,NA,false
kKOd4igh,3oplmf3ev80afezcyc4phujqmmslnu,39u1bhvtdp4th7c1g4r3jrrtofut3u,kKOd4igh,2020-0188,2020-11-16,20:18:54,20:37:27,NA,incomplete,218,race,2,1,right,C_M_05.jpg,A_M_15.jpg,C_F_06.jpg,right,723.3399999968242,true,high,NA,NA,NA,NA,NA,NA,NA,false
kKOd4igh,3oplmf3ev80afezcyc4phujqmmslnu,39u1bhvtdp4th7c1g4r3jrrtofut3u,kKOd4igh,2020-0188,2020-11-16,20:18:54,20:37:27,NA,incomplete,219,race,2,0,right,A_M_11.jpg,C_M_12.jpg,A_F_06.jpg,right,707.8900000196882,true,high,NA,NA,NA,NA,NA,NA,NA,false
kKOd4igh,3oplmf3ev80afezcyc4phujqmmslnu,39u1bhvtdp4th7c1g4r3jrrtofut3u,kKOd4igh,2020-0188,2020-11-16,20:18:54,20:37:27,NA,incomplete,220,gender,3,1,right,A_M_07.jpg,A_F_01.jpg,C_M_02.jpg,left,965.2300000016112,false,high,NA,NA,NA,NA,NA,NA,NA,false
kKOd4igh,3oplmf3ev80afezcyc4phujqmmslnu,39u1bhvtdp4th7c1g4r3jrrtofut3u,kKOd4igh,2020-0188,2020-11-16,20:18:54,20:37:27,NA,incomplete,221,gender,3,1,right,C_F_06.jpg,C_M_01.jpg,A_F_09.jpg,right,975.5099999892991,true,high,NA,NA,NA,NA,NA,NA,NA,false
kKOd4igh,3oplmf3ev80afezcyc4phujqmmslnu,39u1bhvtdp4th7c1g4r3jrrtofut3u,kKOd4igh,2020-0188,2020-11-16,20:18:54,20:37:27,NA,incomplete,222,gender,3,1,left,A_F_01.jpg,C_F_12.jpg,A_M_04.jpg,left,877.9400000057649,true,high,NA,NA,NA,NA,NA,NA,NA,false
kKOd4igh,3oplmf3ev80afezcyc4phujqmmslnu,39u1bhvtdp4th7c1g4r3jrrtofut3u,kKOd4igh,2020-0188,2020-11-16,20:18:54,20:37:27,NA,incomplete,223,gender,3,1,right,A_F_12.jpg,A_M_08.jpg,C_F_04.jpg,right,798.9649999944959,true,high,NA,NA,NA,NA,NA,NA,NA,false
kKOd4igh,3oplmf3ev80afezcyc4phujqmmslnu,39u1bhvtdp4th7c1g4r3jrrtofut3u,kKOd4igh,2020-0188,2020-11-16,20:18:54,20:37:27,NA,incomplete,224,gender,3,1,left,A_F_12.jpg,C_F_05.jpg,A_M_07.jpg,left,669.1899999859743,true,high,NA,NA,NA,NA,NA,NA,NA,false
kKOd4igh,3oplmf3ev80afezcyc4phujqmmslnu,39u1bhvtdp4th7c1g4r3jrrtofut3u,kKOd4igh,2020-0188,2020-11-16,20:18:54,20:37:27,NA,incomplete,225,gender,3,1,left,C_F_01.jpg,A_F_13.jpg,C_M_11.jpg,left,684.7249999991618,true,high,NA,NA,NA,NA,NA,NA,NA,false
kKOd4igh,3oplmf3ev80afezcyc4phujqmmslnu,39u1bhvtdp4th7c1g4r3jrrtofut3u,kKOd4igh,2020-0188,2020-11-16,20:18:54,20:37:27,NA,incomplete,226,gender,3,1,left,A_F_04.jpg,C_F_11.jpg,A_M_05.jpg,left,762.2800000244752,true,high,NA,NA,NA,NA,NA,NA,NA,false
kKOd4igh,3oplmf3ev80afezcyc4phujqmmslnu,39u1bhvtdp4th7c1g4r3jrrtofut3u,kKOd4igh,2020-0188,2020-11-16,20:18:54,20:37:27,NA,incomplete,227,gender,3,0,left,A_M_09.jpg,C_M_01.jpg,A_F_14.jpg,left,1097.749999986263,true,high,NA,NA,NA,NA,NA,NA,NA,false
kKOd4igh,3oplmf3ev80afezcyc4phujqmmslnu,39u1bhvtdp4th7c1g4r3jrrtofut3u,kKOd4igh,2020-0188,2020-11-16,20:18:54,20:37:27,NA,incomplete,228,gender,3,1,left,C_M_15.jpg,A_M_06.jpg,C_F_03.jpg,left,959.0800000005402,true,high,NA,NA,NA,NA,NA,NA,NA,false
kKOd4igh,3oplmf3ev80afezcyc4phujqmmslnu,39u1bhvtdp4th7c1g4r3jrrtofut3u,kKOd4igh,2020-0188,2020-11-16,20:18:54,20:37:27,NA,incomplete,229,gender,3,1,right,A_F_02.jpg,A_M_11.jpg,C_F_12.jpg,right,1024.0049999847542,true,high,NA,NA,NA,NA,NA,NA,NA,false
kKOd4igh,3oplmf3ev80afezcyc4phujqmmslnu,39u1bhvtdp4th7c1g4r3jrrtofut3u,kKOd4igh,2020-0188,2020-11-16,20:18:54,20:37:27,NA,incomplete,230,gender,3,1,right,C_F_07.jpg,C_M_08.jpg,A_F_01.jpg,right,812.5099999888334,true,high,NA,NA,NA,NA,NA,NA,NA,false
kKOd4igh,3oplmf3ev80afezcyc4phujqmmslnu,39u1bhvtdp4th7c1g4r3jrrtofut3u,kKOd4igh,2020-0188,2020-11-16,20:18:54,20:37:27,NA,incomplete,231,gender,3,1,right,C_M_03.jpg,C_F_13.jpg,A_M_09.jpg,right,973.4750000061467,true,high,NA,NA,NA,NA,NA,NA,NA,false
kKOd4igh,3oplmf3ev80afezcyc4phujqmmslnu,39u1bhvtdp4th7c1g4r3jrrtofut3u,kKOd4igh,2020-0188,2020-11-16,20:18:54,20:37:27,NA,incomplete,232,gender,3,1,left,C_M_02.jpg,A_M_05.jpg,C_F_01.jpg,left,855.9149999928195,true,high,NA,NA,NA,NA,NA,NA,NA,false
kKOd4igh,3oplmf3ev80afezcyc4phujqmmslnu,39u1bhvtdp4th7c1g4r3jrrtofut3u,kKOd4igh,2020-0188,2020-11-16,20:18:54,20:37:27,NA,incomplete,233,gender,3,1,right,A_F_05.jpg,A_M_13.jpg,C_F_15.jpg,right,674.9000000127126,true,high,NA,NA,NA,NA,NA,NA,NA,false
kKOd4igh,3oplmf3ev80afezcyc4phujqmmslnu,39u1bhvtdp4th7c1g4r3jrrtofut3u,kKOd4igh,2020-0188,2020-11-16,20:18:54,20:37:27,NA,incomplete,234,gender,3,0,right,C_M_12.jpg,C_F_04.jpg,A_M_10.jpg,right,727.485000010347,true,high,NA,NA,NA,NA,NA,NA,NA,false
kKOd4igh,3oplmf3ev80afezcyc4phujqmmslnu,39u1bhvtdp4th7c1g4r3jrrtofut3u,kKOd4igh,2020-0188,2020-11-16,20:18:54,20:37:27,NA,incomplete,235,gender,3,1,right,A_M_16.jpg,A_F_14.jpg,C_M_01.jpg,right,745.1000000000931,true,high,NA,NA,NA,NA,NA,NA,NA,false
kKOd4igh,3oplmf3ev80afezcyc4phujqmmslnu,39u1bhvtdp4th7c1g4r3jrrtofut3u,kKOd4igh,2020-0188,2020-11-16,20:18:54,20:37:27,NA,incomplete,236,gender,3,0,right,C_F_12.jpg,C_M_01.jpg,A_F_05.jpg,right,709.7599999979138,true,high,NA,NA,NA,NA,NA,NA,NA,false
kKOd4igh,3oplmf3ev80afezcyc4phujqmmslnu,39u1bhvtdp4th7c1g4r3jrrtofut3u,kKOd4igh,2020-0188,2020-11-16,20:18:54,20:37:27,NA,incomplete,237,gender,3,1,left,A_F_07.jpg,C_F_15.jpg,A_M_08.jpg,right,1029.2149999877438,false,high,NA,NA,NA,NA,NA,NA,NA,false
kKOd4igh,3oplmf3ev80afezcyc4phujqmmslnu,39u1bhvtdp4th7c1g4r3jrrtofut3u,kKOd4igh,2020-0188,2020-11-16,20:18:54,20:37:27,NA,incomplete,238,gender,3,0,right,A_F_03.jpg,A_M_09.jpg,C_F_10.jpg,left,1034.0950000099838,false,high,NA,NA,NA,NA,NA,NA,NA,false
kKOd4igh,3oplmf3ev80afezcyc4phujqmmslnu,39u1bhvtdp4th7c1g4r3jrrtofut3u,kKOd4igh,2020-0188,2020-11-16,20:18:54,20:37:27,NA,incomplete,239,gender,3,1,left,C_F_07.jpg,A_F_13.jpg,C_M_01.jpg,right,1248.8700000103563,false,high,NA,NA,NA,NA,NA,NA,NA,false
kKOd4igh,3oplmf3ev80afezcyc4phujqmmslnu,39u1bhvtdp4th7c1g4r3jrrtofut3u,kKOd4igh,2020-0188,2020-11-16,20:18:54,20:37:27,NA,NA,instruction example,number,NA,NA,NA,Purple_Circle_Dots_4.jpg,Green_Triangle_Grid_4.jpg,Blue_Circle_Chess_1.jpg,NA,NA,NA,NA,NA,NA,NA,NA,NA,NA,NA,undefined
kKOd4igh,3oplmf3ev80afezcyc4phujqmmslnu,39u1bhvtdp4th7c1g4r3jrrtofut3u,kKOd4igh,2020-0188,2020-11-16,20:18:54,20:37:27,NA,NA,instruction example,number,NA,NA,NA,Purple_Plus_Stripes_1.jpg,Green_Plus_Dots_4.jpg,Blue_Circle_Chess_1.jpg,NA,NA,NA,NA,NA,NA,NA,NA,NA,NA,NA,undefined
kKOd4igh,3oplmf3ev80afezcyc4phujqmmslnu,39u1bhvtdp4th7c1g4r3jrrtofut3u,kKOd4igh,2020-0188,2020-11-16,20:18:54,20:37:27,NA,NA,instruction example,number,NA,NA,NA,A_F_05.jpg,A_M_07.jpg,C_F_12.jpg,NA,NA,NA,NA,NA,NA,NA,NA,NA,NA,NA,undefined
kKOd4igh,3oplmf3ev80afezcyc4phujqmmslnu,39u1bhvtdp4th7c1g4r3jrrtofut3u,kKOd4igh,2020-0188,2020-11-16,20:18:54,20:37:27,NA,NA,instruction example,number,NA,NA,NA,A_F_01.jpg,C_F_09.jpg,A_M_13.jpg,NA,NA,NA,NA,NA,NA,NA,NA,NA,NA,NA,undefined
kKOd4igh,3oplmf3ev80afezcyc4phujqmmslnu,39u1bhvtdp4th7c1g4r3jrrtofut3u,kKOd4igh,2020-0188,2020-11-16,20:18:54,20:37:27,1096987.9950000031,1113818.0500000017,NA,NA,NA,NA,NA,NA,NA,NA,NA,NA,NA,NA,31,Black/African American,Female,black and white,no,yes,no,undefined
