workerId,hitId,assignmentId,subject,studyid,exp_date,exp_start,exp_end,time_start,time_end,trial,type,sequence,reward_validity,answer,image_top,image_left,image_right,response,response_time,response_acc,volatility,age,race,gender,ethnicity,color,vision,neuro,practice
maUzpPpV,3p7qk0gj4wyyvhrnruxexlrqk8i2zm,3aqf3rz55cvivlhi4mkc9qobdd66fn,maUzpPpV,2020-0188,2020-06-16,12:42:25,13:02:13,NA,incomplete,0,shape,0,1,left,Green_Triangle_Stripes_4.jpg,Red_Triangle_Grid_3.jpg,Green_Plus_Dots_2.jpg,none,0,false,NA,NA,NA,NA,NA,NA,NA,NA,true
maUzpPpV,3p7qk0gj4wyyvhrnruxexlrqk8i2zm,3aqf3rz55cvivlhi4mkc9qobdd66fn,maUzpPpV,2020-0188,2020-06-16,12:42:25,13:02:13,NA,incomplete,1,shape,0,1,left,Red_Triangle_Stripes_4.jpg,Purple_Triangle_Chess_3.jpg,Red_Plus_Dots_1.jpg,left,1060.05999998888,true,NA,NA,NA,NA,NA,NA,NA,NA,true
maUzpPpV,3p7qk0gj4wyyvhrnruxexlrqk8i2zm,3aqf3rz55cvivlhi4mkc9qobdd66fn,maUzpPpV,2020-0188,2020-06-16,12:42:25,13:02:13,NA,incomplete,2,shape,0,1,left,Purple_Circle_Stripes_1.jpg,Red_Circle_Dots_4.jpg,Purple_Plus_Chess_3.jpg,left,1153.9150000025984,true,NA,NA,NA,NA,NA,NA,NA,NA,true
maUzpPpV,3p7qk0gj4wyyvhrnruxexlrqk8i2zm,3aqf3rz55cvivlhi4mkc9qobdd66fn,maUzpPpV,2020-0188,2020-06-16,12:42:25,13:02:13,NA,incomplete,3,shape,0,0,left,Blue_Plus_Chess_4.jpg,Purple_Plus_Stripes_2.jpg,Blue_Star_Dots_3.jpg,left,1253.2899999932852,true,NA,NA,NA,NA,NA,NA,NA,NA,true
maUzpPpV,3p7qk0gj4wyyvhrnruxexlrqk8i2zm,3aqf3rz55cvivlhi4mkc9qobdd66fn,maUzpPpV,2020-0188,2020-06-16,12:42:25,13:02:13,NA,incomplete,4,shape,0,1,left,Purple_Plus_Grid_4.jpg,Green_Plus_Stripes_1.jpg,Purple_Star_Dots_2.jpg,left,1131.340000021737,true,NA,NA,NA,NA,NA,NA,NA,NA,true
maUzpPpV,3p7qk0gj4wyyvhrnruxexlrqk8i2zm,3aqf3rz55cvivlhi4mkc9qobdd66fn,maUzpPpV,2020-0188,2020-06-16,12:42:25,13:02:13,NA,incomplete,5,shape,0,0,left,Blue_Plus_Chess_3.jpg,Red_Plus_Grid_2.jpg,Blue_Star_Dots_1.jpg,left,801.8600000068545,true,NA,NA,NA,NA,NA,NA,NA,NA,true
maUzpPpV,3p7qk0gj4wyyvhrnruxexlrqk8i2zm,3aqf3rz55cvivlhi4mkc9qobdd66fn,maUzpPpV,2020-0188,2020-06-16,12:42:25,13:02:13,NA,incomplete,6,shape,0,1,right,Red_Plus_Stripes_3.jpg,Red_Triangle_Dots_4.jpg,Blue_Plus_Grid_1.jpg,right,895.1349999988452,true,NA,NA,NA,NA,NA,NA,NA,NA,true
maUzpPpV,3p7qk0gj4wyyvhrnruxexlrqk8i2zm,3aqf3rz55cvivlhi4mkc9qobdd66fn,maUzpPpV,2020-0188,2020-06-16,12:42:25,13:02:13,NA,incomplete,7,shape,0,1,left,Blue_Triangle_Stripes_2.jpg,Green_Triangle_Grid_4.jpg,Blue_Plus_Dots_3.jpg,left,779.6199999866076,true,NA,NA,NA,NA,NA,NA,NA,NA,true
maUzpPpV,3p7qk0gj4wyyvhrnruxexlrqk8i2zm,3aqf3rz55cvivlhi4mkc9qobdd66fn,maUzpPpV,2020-0188,2020-06-16,12:42:25,13:02:13,NA,incomplete,8,shape,0,1,left,Green_Circle_Stripes_2.jpg,Blue_Circle_Chess_4.jpg,Green_Plus_Dots_1.jpg,left,762.3299999977462,true,NA,NA,NA,NA,NA,NA,NA,NA,true
maUzpPpV,3p7qk0gj4wyyvhrnruxexlrqk8i2zm,3aqf3rz55cvivlhi4mkc9qobdd66fn,maUzpPpV,2020-0188,2020-06-16,12:42:25,13:02:13,NA,incomplete,9,shape,0,1,left,Purple_Triangle_Dots_2.jpg,Green_Triangle_Chess_4.jpg,Purple_Star_Stripes_3.jpg,left,694.5399999967776,true,NA,NA,NA,NA,NA,NA,NA,NA,true
maUzpPpV,3p7qk0gj4wyyvhrnruxexlrqk8i2zm,3aqf3rz55cvivlhi4mkc9qobdd66fn,maUzpPpV,2020-0188,2020-06-16,12:42:25,13:02:13,NA,incomplete,10,shape,0,1,left,Purple_Circle_Grid_4.jpg,Red_Circle_Chess_1.jpg,Purple_Triangle_Dots_3.jpg,left,816.0600000119302,true,NA,NA,NA,NA,NA,NA,NA,NA,true
maUzpPpV,3p7qk0gj4wyyvhrnruxexlrqk8i2zm,3aqf3rz55cvivlhi4mkc9qobdd66fn,maUzpPpV,2020-0188,2020-06-16,12:42:25,13:02:13,NA,incomplete,11,shape,0,1,left,Green_Plus_Stripes_2.jpg,Red_Plus_Dots_4.jpg,Green_Triangle_Grid_1.jpg,left,874.214999988908,true,NA,NA,NA,NA,NA,NA,NA,NA,true
maUzpPpV,3p7qk0gj4wyyvhrnruxexlrqk8i2zm,3aqf3rz55cvivlhi4mkc9qobdd66fn,maUzpPpV,2020-0188,2020-06-16,12:42:25,13:02:13,NA,incomplete,12,shape,0,1,left,Blue_Plus_Grid_2.jpg,Green_Plus_Dots_4.jpg,Blue_Triangle_Stripes_3.jpg,left,651.8750000104774,true,NA,NA,NA,NA,NA,NA,NA,NA,true
maUzpPpV,3p7qk0gj4wyyvhrnruxexlrqk8i2zm,3aqf3rz55cvivlhi4mkc9qobdd66fn,maUzpPpV,2020-0188,2020-06-16,12:42:25,13:02:13,NA,incomplete,13,shape,0,1,right,Red_Circle_Grid_2.jpg,Red_Star_Chess_1.jpg,Green_Circle_Dots_3.jpg,right,769.2500000121072,true,NA,NA,NA,NA,NA,NA,NA,NA,true
maUzpPpV,3p7qk0gj4wyyvhrnruxexlrqk8i2zm,3aqf3rz55cvivlhi4mkc9qobdd66fn,maUzpPpV,2020-0188,2020-06-16,12:42:25,13:02:13,NA,incomplete,14,shape,0,1,left,Green_Plus_Dots_2.jpg,Purple_Plus_Stripes_1.jpg,Green_Circle_Grid_3.jpg,left,792.8299999912269,true,NA,NA,NA,NA,NA,NA,NA,NA,true
maUzpPpV,3p7qk0gj4wyyvhrnruxexlrqk8i2zm,3aqf3rz55cvivlhi4mkc9qobdd66fn,maUzpPpV,2020-0188,2020-06-16,12:42:25,13:02:13,NA,incomplete,15,shape,0,1,left,Green_Star_Dots_4.jpg,Red_Star_Grid_3.jpg,Green_Triangle_Chess_1.jpg,left,672.0349999959581,true,NA,NA,NA,NA,NA,NA,NA,NA,true
maUzpPpV,3p7qk0gj4wyyvhrnruxexlrqk8i2zm,3aqf3rz55cvivlhi4mkc9qobdd66fn,maUzpPpV,2020-0188,2020-06-16,12:42:25,13:02:13,NA,incomplete,16,shape,0,1,left,Green_Circle_Stripes_2.jpg,Purple_Circle_Chess_1.jpg,Green_Triangle_Dots_3.jpg,left,628.3599999733269,true,NA,NA,NA,NA,NA,NA,NA,NA,true
maUzpPpV,3p7qk0gj4wyyvhrnruxexlrqk8i2zm,3aqf3rz55cvivlhi4mkc9qobdd66fn,maUzpPpV,2020-0188,2020-06-16,12:42:25,13:02:13,NA,incomplete,17,shape,0,1,right,Green_Plus_Stripes_2.jpg,Green_Circle_Chess_1.jpg,Purple_Plus_Dots_4.jpg,right,621.0750000027474,true,NA,NA,NA,NA,NA,NA,NA,NA,true
maUzpPpV,3p7qk0gj4wyyvhrnruxexlrqk8i2zm,3aqf3rz55cvivlhi4mkc9qobdd66fn,maUzpPpV,2020-0188,2020-06-16,12:42:25,13:02:13,NA,incomplete,18,shape,0,1,right,Blue_Star_Chess_2.jpg,Blue_Circle_Dots_1.jpg,Red_Star_Stripes_4.jpg,right,703.6150000058115,true,NA,NA,NA,NA,NA,NA,NA,NA,true
maUzpPpV,3p7qk0gj4wyyvhrnruxexlrqk8i2zm,3aqf3rz55cvivlhi4mkc9qobdd66fn,maUzpPpV,2020-0188,2020-06-16,12:42:25,13:02:13,NA,incomplete,19,shape,0,1,right,Blue_Star_Chess_4.jpg,Blue_Plus_Grid_1.jpg,Green_Star_Stripes_3.jpg,right,789.2850000062026,true,NA,NA,NA,NA,NA,NA,NA,NA,true
maUzpPpV,3p7qk0gj4wyyvhrnruxexlrqk8i2zm,3aqf3rz55cvivlhi4mkc9qobdd66fn,maUzpPpV,2020-0188,2020-06-16,12:42:25,13:02:13,NA,incomplete,20,color,1,0,left,Blue_Star_Stripes_3.jpg,Blue_Circle_Grid_1.jpg,Red_Star_Chess_4.jpg,left,719.890000007581,true,NA,NA,NA,NA,NA,NA,NA,NA,true
maUzpPpV,3p7qk0gj4wyyvhrnruxexlrqk8i2zm,3aqf3rz55cvivlhi4mkc9qobdd66fn,maUzpPpV,2020-0188,2020-06-16,12:42:25,13:02:13,NA,incomplete,21,color,1,1,right,Green_Star_Dots_2.jpg,Red_Star_Chess_4.jpg,Green_Plus_Stripes_3.jpg,right,759.619999997085,true,NA,NA,NA,NA,NA,NA,NA,NA,true
maUzpPpV,3p7qk0gj4wyyvhrnruxexlrqk8i2zm,3aqf3rz55cvivlhi4mkc9qobdd66fn,maUzpPpV,2020-0188,2020-06-16,12:42:25,13:02:13,NA,incomplete,22,color,1,1,left,Green_Circle_Dots_4.jpg,Green_Triangle_Chess_3.jpg,Blue_Circle_Stripes_2.jpg,left,658.9900000253692,true,NA,NA,NA,NA,NA,NA,NA,NA,true
maUzpPpV,3p7qk0gj4wyyvhrnruxexlrqk8i2zm,3aqf3rz55cvivlhi4mkc9qobdd66fn,maUzpPpV,2020-0188,2020-06-16,12:42:25,13:02:13,NA,incomplete,23,color,1,1,right,Blue_Plus_Grid_1.jpg,Red_Plus_Dots_3.jpg,Blue_Circle_Chess_4.jpg,right,548.5249999910593,true,NA,NA,NA,NA,NA,NA,NA,NA,true
maUzpPpV,3p7qk0gj4wyyvhrnruxexlrqk8i2zm,3aqf3rz55cvivlhi4mkc9qobdd66fn,maUzpPpV,2020-0188,2020-06-16,12:42:25,13:02:13,NA,incomplete,24,color,1,1,right,Blue_Plus_Chess_1.jpg,Green_Plus_Stripes_3.jpg,Blue_Star_Grid_4.jpg,right,511.80000000749715,true,NA,NA,NA,NA,NA,NA,NA,NA,true
maUzpPpV,3p7qk0gj4wyyvhrnruxexlrqk8i2zm,3aqf3rz55cvivlhi4mkc9qobdd66fn,maUzpPpV,2020-0188,2020-06-16,12:42:25,13:02:13,NA,incomplete,25,color,1,1,right,Green_Triangle_Chess_3.jpg,Red_Triangle_Dots_4.jpg,Green_Star_Grid_1.jpg,right,542.0800000138115,true,NA,NA,NA,NA,NA,NA,NA,NA,true
maUzpPpV,3p7qk0gj4wyyvhrnruxexlrqk8i2zm,3aqf3rz55cvivlhi4mkc9qobdd66fn,maUzpPpV,2020-0188,2020-06-16,12:42:25,13:02:13,NA,incomplete,26,color,1,0,left,Blue_Plus_Grid_4.jpg,Blue_Triangle_Chess_3.jpg,Red_Plus_Dots_2.jpg,left,482.0800000161398,true,NA,NA,NA,NA,NA,NA,NA,NA,true
maUzpPpV,3p7qk0gj4wyyvhrnruxexlrqk8i2zm,3aqf3rz55cvivlhi4mkc9qobdd66fn,maUzpPpV,2020-0188,2020-06-16,12:42:25,13:02:13,NA,incomplete,27,color,1,0,right,Green_Circle_Dots_1.jpg,Blue_Circle_Chess_2.jpg,Green_Plus_Grid_3.jpg,right,529.7199999913573,true,NA,NA,NA,NA,NA,NA,NA,NA,true
maUzpPpV,3p7qk0gj4wyyvhrnruxexlrqk8i2zm,3aqf3rz55cvivlhi4mkc9qobdd66fn,maUzpPpV,2020-0188,2020-06-16,12:42:25,13:02:13,NA,incomplete,28,color,1,1,left,Blue_Triangle_Grid_2.jpg,Blue_Star_Dots_3.jpg,Green_Triangle_Stripes_4.jpg,left,515.4899999906775,true,NA,NA,NA,NA,NA,NA,NA,NA,true
maUzpPpV,3p7qk0gj4wyyvhrnruxexlrqk8i2zm,3aqf3rz55cvivlhi4mkc9qobdd66fn,maUzpPpV,2020-0188,2020-06-16,12:42:25,13:02:13,NA,incomplete,29,color,1,1,left,Green_Circle_Grid_3.jpg,Green_Triangle_Dots_4.jpg,Red_Circle_Chess_1.jpg,left,495.53000001469627,true,NA,NA,NA,NA,NA,NA,NA,NA,true
maUzpPpV,3p7qk0gj4wyyvhrnruxexlrqk8i2zm,3aqf3rz55cvivlhi4mkc9qobdd66fn,maUzpPpV,2020-0188,2020-06-16,12:42:25,13:02:13,NA,incomplete,30,color,1,0,left,Purple_Plus_Grid_2.jpg,Purple_Star_Chess_1.jpg,Red_Plus_Stripes_4.jpg,left,493.9099999901373,true,NA,NA,NA,NA,NA,NA,NA,NA,true
maUzpPpV,3p7qk0gj4wyyvhrnruxexlrqk8i2zm,3aqf3rz55cvivlhi4mkc9qobdd66fn,maUzpPpV,2020-0188,2020-06-16,12:42:25,13:02:13,NA,incomplete,31,color,1,1,right,Green_Triangle_Chess_1.jpg,Red_Triangle_Stripes_4.jpg,Green_Circle_Grid_3.jpg,right,487.62500000884756,true,NA,NA,NA,NA,NA,NA,NA,NA,true
maUzpPpV,3p7qk0gj4wyyvhrnruxexlrqk8i2zm,3aqf3rz55cvivlhi4mkc9qobdd66fn,maUzpPpV,2020-0188,2020-06-16,12:42:25,13:02:13,NA,incomplete,32,color,1,1,left,Purple_Circle_Dots_1.jpg,Purple_Plus_Chess_3.jpg,Blue_Circle_Stripes_4.jpg,left,522.4049999960698,true,NA,NA,NA,NA,NA,NA,NA,NA,true
maUzpPpV,3p7qk0gj4wyyvhrnruxexlrqk8i2zm,3aqf3rz55cvivlhi4mkc9qobdd66fn,maUzpPpV,2020-0188,2020-06-16,12:42:25,13:02:13,NA,incomplete,33,color,1,1,left,Green_Triangle_Chess_3.jpg,Green_Star_Stripes_1.jpg,Blue_Triangle_Dots_4.jpg,left,617.7350000070874,true,NA,NA,NA,NA,NA,NA,NA,NA,true
maUzpPpV,3p7qk0gj4wyyvhrnruxexlrqk8i2zm,3aqf3rz55cvivlhi4mkc9qobdd66fn,maUzpPpV,2020-0188,2020-06-16,12:42:25,13:02:13,NA,incomplete,34,color,1,1,left,Red_Plus_Dots_1.jpg,Red_Circle_Grid_3.jpg,Blue_Plus_Stripes_4.jpg,left,511.46500001777895,true,NA,NA,NA,NA,NA,NA,NA,NA,true
maUzpPpV,3p7qk0gj4wyyvhrnruxexlrqk8i2zm,3aqf3rz55cvivlhi4mkc9qobdd66fn,maUzpPpV,2020-0188,2020-06-16,12:42:25,13:02:13,NA,incomplete,35,color,1,1,right,Red_Circle_Dots_3.jpg,Green_Circle_Stripes_2.jpg,Red_Star_Grid_4.jpg,right,482.66499998862855,true,NA,NA,NA,NA,NA,NA,NA,NA,true
maUzpPpV,3p7qk0gj4wyyvhrnruxexlrqk8i2zm,3aqf3rz55cvivlhi4mkc9qobdd66fn,maUzpPpV,2020-0188,2020-06-16,12:42:25,13:02:13,NA,incomplete,36,color,1,1,right,Green_Star_Chess_2.jpg,Blue_Star_Grid_4.jpg,Green_Triangle_Stripes_1.jpg,right,543.615000002319,true,NA,NA,NA,NA,NA,NA,NA,NA,true
maUzpPpV,3p7qk0gj4wyyvhrnruxexlrqk8i2zm,3aqf3rz55cvivlhi4mkc9qobdd66fn,maUzpPpV,2020-0188,2020-06-16,12:42:25,13:02:13,NA,incomplete,37,color,1,0,right,Purple_Star_Dots_2.jpg,Green_Star_Grid_3.jpg,Purple_Circle_Stripes_4.jpg,right,551.4949999924283,true,NA,NA,NA,NA,NA,NA,NA,NA,true
maUzpPpV,3p7qk0gj4wyyvhrnruxexlrqk8i2zm,3aqf3rz55cvivlhi4mkc9qobdd66fn,maUzpPpV,2020-0188,2020-06-16,12:42:25,13:02:13,NA,incomplete,38,color,1,1,right,Red_Triangle_Stripes_3.jpg,Blue_Triangle_Dots_4.jpg,Red_Star_Grid_1.jpg,right,609.6749999851454,true,NA,NA,NA,NA,NA,NA,NA,NA,true
maUzpPpV,3p7qk0gj4wyyvhrnruxexlrqk8i2zm,3aqf3rz55cvivlhi4mkc9qobdd66fn,maUzpPpV,2020-0188,2020-06-16,12:42:25,13:02:13,NA,incomplete,39,color,1,0,left,Purple_Triangle_Chess_2.jpg,Purple_Circle_Grid_4.jpg,Green_Triangle_Stripes_1.jpg,left,486.9250000047032,true,NA,NA,NA,NA,NA,NA,NA,NA,true
maUzpPpV,3p7qk0gj4wyyvhrnruxexlrqk8i2zm,3aqf3rz55cvivlhi4mkc9qobdd66fn,maUzpPpV,2020-0188,2020-06-16,12:42:25,13:02:13,NA,incomplete,0,shape,0,1,right,Green_Plus_Dots_1.jpg,Green_Circle_Stripes_2.jpg,Blue_Plus_Grid_3.jpg,left,1207.4200000206474,false,high,NA,NA,NA,NA,NA,NA,NA,false
maUzpPpV,3p7qk0gj4wyyvhrnruxexlrqk8i2zm,3aqf3rz55cvivlhi4mkc9qobdd66fn,maUzpPpV,2020-0188,2020-06-16,12:42:25,13:02:13,NA,incomplete,1,shape,0,1,right,Green_Plus_Stripes_4.jpg,Green_Star_Dots_2.jpg,Purple_Plus_Grid_1.jpg,left,603.4799999906681,false,high,NA,NA,NA,NA,NA,NA,NA,false
maUzpPpV,3p7qk0gj4wyyvhrnruxexlrqk8i2zm,3aqf3rz55cvivlhi4mkc9qobdd66fn,maUzpPpV,2020-0188,2020-06-16,12:42:25,13:02:13,NA,incomplete,2,shape,0,1,right,Red_Star_Grid_2.jpg,Red_Circle_Dots_4.jpg,Blue_Star_Stripes_3.jpg,left,502.30500000179745,false,high,NA,NA,NA,NA,NA,NA,NA,false
maUzpPpV,3p7qk0gj4wyyvhrnruxexlrqk8i2zm,3aqf3rz55cvivlhi4mkc9qobdd66fn,maUzpPpV,2020-0188,2020-06-16,12:42:25,13:02:13,NA,incomplete,3,shape,0,1,left,Red_Triangle_Grid_2.jpg,Purple_Triangle_Dots_4.jpg,Red_Plus_Chess_1.jpg,left,612.8199999802746,true,high,NA,NA,NA,NA,NA,NA,NA,false
maUzpPpV,3p7qk0gj4wyyvhrnruxexlrqk8i2zm,3aqf3rz55cvivlhi4mkc9qobdd66fn,maUzpPpV,2020-0188,2020-06-16,12:42:25,13:02:13,NA,incomplete,4,shape,0,1,left,Green_Star_Dots_3.jpg,Red_Star_Grid_1.jpg,Green_Plus_Chess_4.jpg,left,830.0750000053085,true,high,NA,NA,NA,NA,NA,NA,NA,false
maUzpPpV,3p7qk0gj4wyyvhrnruxexlrqk8i2zm,3aqf3rz55cvivlhi4mkc9qobdd66fn,maUzpPpV,2020-0188,2020-06-16,12:42:25,13:02:13,NA,incomplete,5,shape,0,1,right,Green_Triangle_Stripes_1.jpg,Green_Plus_Grid_3.jpg,Red_Triangle_Chess_2.jpg,right,665.1249999995343,true,high,NA,NA,NA,NA,NA,NA,NA,false
maUzpPpV,3p7qk0gj4wyyvhrnruxexlrqk8i2zm,3aqf3rz55cvivlhi4mkc9qobdd66fn,maUzpPpV,2020-0188,2020-06-16,12:42:25,13:02:13,NA,incomplete,6,shape,0,0,right,Red_Plus_Stripes_4.jpg,Red_Star_Grid_3.jpg,Purple_Plus_Chess_1.jpg,right,758.2149999798276,true,high,NA,NA,NA,NA,NA,NA,NA,false
maUzpPpV,3p7qk0gj4wyyvhrnruxexlrqk8i2zm,3aqf3rz55cvivlhi4mkc9qobdd66fn,maUzpPpV,2020-0188,2020-06-16,12:42:25,13:02:13,NA,incomplete,7,shape,0,1,left,Blue_Triangle_Grid_2.jpg,Purple_Triangle_Dots_1.jpg,Blue_Circle_Stripes_3.jpg,left,575.5600000265986,true,high,NA,NA,NA,NA,NA,NA,NA,false
maUzpPpV,3p7qk0gj4wyyvhrnruxexlrqk8i2zm,3aqf3rz55cvivlhi4mkc9qobdd66fn,maUzpPpV,2020-0188,2020-06-16,12:42:25,13:02:13,NA,incomplete,8,shape,0,1,right,Purple_Triangle_Stripes_3.jpg,Purple_Circle_Dots_4.jpg,Green_Triangle_Chess_2.jpg,right,631.7949999938719,true,high,NA,NA,NA,NA,NA,NA,NA,false
maUzpPpV,3p7qk0gj4wyyvhrnruxexlrqk8i2zm,3aqf3rz55cvivlhi4mkc9qobdd66fn,maUzpPpV,2020-0188,2020-06-16,12:42:25,13:02:13,NA,incomplete,9,shape,0,1,left,Blue_Plus_Grid_1.jpg,Green_Plus_Stripes_4.jpg,Blue_Star_Dots_3.jpg,left,566.4050000195857,true,high,NA,NA,NA,NA,NA,NA,NA,false
maUzpPpV,3p7qk0gj4wyyvhrnruxexlrqk8i2zm,3aqf3rz55cvivlhi4mkc9qobdd66fn,maUzpPpV,2020-0188,2020-06-16,12:42:25,13:02:13,NA,incomplete,10,color,1,1,right,Green_Plus_Grid_1.jpg,Red_Plus_Chess_4.jpg,Green_Star_Dots_2.jpg,left,503.2049999863375,false,high,NA,NA,NA,NA,NA,NA,NA,false
maUzpPpV,3p7qk0gj4wyyvhrnruxexlrqk8i2zm,3aqf3rz55cvivlhi4mkc9qobdd66fn,maUzpPpV,2020-0188,2020-06-16,12:42:25,13:02:13,NA,incomplete,11,color,1,1,left,Red_Triangle_Grid_4.jpg,Red_Star_Dots_1.jpg,Blue_Triangle_Stripes_2.jpg,right,577.0299999858253,false,high,NA,NA,NA,NA,NA,NA,NA,false
maUzpPpV,3p7qk0gj4wyyvhrnruxexlrqk8i2zm,3aqf3rz55cvivlhi4mkc9qobdd66fn,maUzpPpV,2020-0188,2020-06-16,12:42:25,13:02:13,NA,incomplete,12,color,1,0,left,Green_Circle_Chess_1.jpg,Green_Star_Stripes_2.jpg,Purple_Circle_Grid_4.jpg,right,687.0499999786261,false,high,NA,NA,NA,NA,NA,NA,NA,false
maUzpPpV,3p7qk0gj4wyyvhrnruxexlrqk8i2zm,3aqf3rz55cvivlhi4mkc9qobdd66fn,maUzpPpV,2020-0188,2020-06-16,12:42:25,13:02:13,NA,incomplete,13,color,1,1,right,Blue_Plus_Stripes_2.jpg,Red_Plus_Chess_1.jpg,Blue_Star_Grid_4.jpg,left,523.0250000022352,false,high,NA,NA,NA,NA,NA,NA,NA,false
maUzpPpV,3p7qk0gj4wyyvhrnruxexlrqk8i2zm,3aqf3rz55cvivlhi4mkc9qobdd66fn,maUzpPpV,2020-0188,2020-06-16,12:42:25,13:02:13,NA,incomplete,14,color,1,1,left,Green_Circle_Dots_3.jpg,Green_Star_Stripes_2.jpg,Blue_Circle_Chess_4.jpg,right,610.4800000030082,false,high,NA,NA,NA,NA,NA,NA,NA,false
maUzpPpV,3p7qk0gj4wyyvhrnruxexlrqk8i2zm,3aqf3rz55cvivlhi4mkc9qobdd66fn,maUzpPpV,2020-0188,2020-06-16,12:42:25,13:02:13,NA,incomplete,15,color,1,1,left,Blue_Star_Chess_3.jpg,Blue_Circle_Grid_4.jpg,Purple_Star_Stripes_2.jpg,right,669.8750000214204,false,high,NA,NA,NA,NA,NA,NA,NA,false
maUzpPpV,3p7qk0gj4wyyvhrnruxexlrqk8i2zm,3aqf3rz55cvivlhi4mkc9qobdd66fn,maUzpPpV,2020-0188,2020-06-16,12:42:25,13:02:13,NA,incomplete,16,color,1,1,left,Blue_Plus_Dots_3.jpg,Blue_Circle_Stripes_1.jpg,Red_Plus_Chess_4.jpg,left,658.4600000060163,true,high,NA,NA,NA,NA,NA,NA,NA,false
maUzpPpV,3p7qk0gj4wyyvhrnruxexlrqk8i2zm,3aqf3rz55cvivlhi4mkc9qobdd66fn,maUzpPpV,2020-0188,2020-06-16,12:42:25,13:02:13,NA,incomplete,17,color,1,1,right,Purple_Star_Stripes_3.jpg,Blue_Star_Grid_2.jpg,Purple_Circle_Chess_1.jpg,right,984.9249999970198,true,high,NA,NA,NA,NA,NA,NA,NA,false
maUzpPpV,3p7qk0gj4wyyvhrnruxexlrqk8i2zm,3aqf3rz55cvivlhi4mkc9qobdd66fn,maUzpPpV,2020-0188,2020-06-16,12:42:25,13:02:13,NA,incomplete,18,color,1,1,left,Blue_Plus_Grid_2.jpg,Blue_Star_Dots_3.jpg,Green_Plus_Stripes_1.jpg,right,666.5550000034273,false,high,NA,NA,NA,NA,NA,NA,NA,false
maUzpPpV,3p7qk0gj4wyyvhrnruxexlrqk8i2zm,3aqf3rz55cvivlhi4mkc9qobdd66fn,maUzpPpV,2020-0188,2020-06-16,12:42:25,13:02:13,NA,incomplete,19,color,1,0,left,Red_Star_Chess_2.jpg,Red_Circle_Stripes_1.jpg,Blue_Star_Dots_3.jpg,left,1103.2549999945331,true,high,NA,NA,NA,NA,NA,NA,NA,false
maUzpPpV,3p7qk0gj4wyyvhrnruxexlrqk8i2zm,3aqf3rz55cvivlhi4mkc9qobdd66fn,maUzpPpV,2020-0188,2020-06-16,12:42:25,13:02:13,NA,incomplete,20,shape,0,1,right,Red_Triangle_Dots_1.jpg,Red_Circle_Chess_3.jpg,Green_Triangle_Grid_2.jpg,left,587.1700000134297,false,high,NA,NA,NA,NA,NA,NA,NA,false
maUzpPpV,3p7qk0gj4wyyvhrnruxexlrqk8i2zm,3aqf3rz55cvivlhi4mkc9qobdd66fn,maUzpPpV,2020-0188,2020-06-16,12:42:25,13:02:13,NA,incomplete,21,shape,0,1,left,Blue_Triangle_Grid_1.jpg,Purple_Triangle_Chess_2.jpg,Blue_Plus_Dots_4.jpg,right,819.1400000068825,false,high,NA,NA,NA,NA,NA,NA,NA,false
maUzpPpV,3p7qk0gj4wyyvhrnruxexlrqk8i2zm,3aqf3rz55cvivlhi4mkc9qobdd66fn,maUzpPpV,2020-0188,2020-06-16,12:42:25,13:02:13,NA,incomplete,22,shape,0,0,right,Green_Triangle_Grid_3.jpg,Green_Circle_Dots_1.jpg,Red_Triangle_Chess_4.jpg,right,1166.2450000003446,true,high,NA,NA,NA,NA,NA,NA,NA,false
maUzpPpV,3p7qk0gj4wyyvhrnruxexlrqk8i2zm,3aqf3rz55cvivlhi4mkc9qobdd66fn,maUzpPpV,2020-0188,2020-06-16,12:42:25,13:02:13,NA,incomplete,23,shape,0,1,right,Red_Triangle_Dots_4.jpg,Red_Star_Chess_2.jpg,Green_Triangle_Grid_3.jpg,right,660.2350000175647,true,high,NA,NA,NA,NA,NA,NA,NA,false
maUzpPpV,3p7qk0gj4wyyvhrnruxexlrqk8i2zm,3aqf3rz55cvivlhi4mkc9qobdd66fn,maUzpPpV,2020-0188,2020-06-16,12:42:25,13:02:13,NA,incomplete,24,shape,0,1,left,Purple_Plus_Grid_3.jpg,Red_Plus_Dots_4.jpg,Purple_Circle_Stripes_1.jpg,left,669.9349999835249,true,high,NA,NA,NA,NA,NA,NA,NA,false
maUzpPpV,3p7qk0gj4wyyvhrnruxexlrqk8i2zm,3aqf3rz55cvivlhi4mkc9qobdd66fn,maUzpPpV,2020-0188,2020-06-16,12:42:25,13:02:13,NA,incomplete,25,shape,0,0,left,Green_Circle_Grid_2.jpg,Purple_Circle_Stripes_4.jpg,Green_Plus_Dots_1.jpg,left,630.6449999974575,true,high,NA,NA,NA,NA,NA,NA,NA,false
maUzpPpV,3p7qk0gj4wyyvhrnruxexlrqk8i2zm,3aqf3rz55cvivlhi4mkc9qobdd66fn,maUzpPpV,2020-0188,2020-06-16,12:42:25,13:02:13,NA,incomplete,26,shape,0,1,right,Red_Circle_Chess_4.jpg,Red_Triangle_Stripes_3.jpg,Purple_Circle_Dots_1.jpg,right,640.9649999986868,true,high,NA,NA,NA,NA,NA,NA,NA,false
maUzpPpV,3p7qk0gj4wyyvhrnruxexlrqk8i2zm,3aqf3rz55cvivlhi4mkc9qobdd66fn,maUzpPpV,2020-0188,2020-06-16,12:42:25,13:02:13,NA,incomplete,27,shape,0,1,right,Purple_Triangle_Grid_4.jpg,Purple_Star_Dots_1.jpg,Red_Triangle_Chess_3.jpg,right,666.4150000142399,true,high,NA,NA,NA,NA,NA,NA,NA,false
maUzpPpV,3p7qk0gj4wyyvhrnruxexlrqk8i2zm,3aqf3rz55cvivlhi4mkc9qobdd66fn,maUzpPpV,2020-0188,2020-06-16,12:42:25,13:02:13,NA,incomplete,28,shape,0,1,right,Green_Star_Dots_3.jpg,Green_Triangle_Grid_2.jpg,Blue_Star_Chess_1.jpg,right,707.5699999986682,true,high,NA,NA,NA,NA,NA,NA,NA,false
maUzpPpV,3p7qk0gj4wyyvhrnruxexlrqk8i2zm,3aqf3rz55cvivlhi4mkc9qobdd66fn,maUzpPpV,2020-0188,2020-06-16,12:42:25,13:02:13,NA,incomplete,29,shape,0,1,left,Green_Plus_Dots_3.jpg,Blue_Plus_Grid_1.jpg,Green_Circle_Chess_2.jpg,left,620.2599999960512,true,high,NA,NA,NA,NA,NA,NA,NA,false
maUzpPpV,3p7qk0gj4wyyvhrnruxexlrqk8i2zm,3aqf3rz55cvivlhi4mkc9qobdd66fn,maUzpPpV,2020-0188,2020-06-16,12:42:25,13:02:13,NA,incomplete,30,color,1,1,right,Blue_Circle_Stripes_1.jpg,Green_Circle_Chess_4.jpg,Blue_Star_Grid_3.jpg,left,745.8450000267476,false,high,NA,NA,NA,NA,NA,NA,NA,false
maUzpPpV,3p7qk0gj4wyyvhrnruxexlrqk8i2zm,3aqf3rz55cvivlhi4mkc9qobdd66fn,maUzpPpV,2020-0188,2020-06-16,12:42:25,13:02:13,NA,incomplete,31,color,1,1,left,Purple_Plus_Dots_3.jpg,Purple_Triangle_Chess_4.jpg,Green_Plus_Grid_2.jpg,right,540.8549999992829,false,high,NA,NA,NA,NA,NA,NA,NA,false
maUzpPpV,3p7qk0gj4wyyvhrnruxexlrqk8i2zm,3aqf3rz55cvivlhi4mkc9qobdd66fn,maUzpPpV,2020-0188,2020-06-16,12:42:25,13:02:13,NA,incomplete,32,color,1,0,right,Purple_Plus_Dots_1.jpg,Blue_Plus_Chess_2.jpg,Purple_Circle_Grid_4.jpg,left,532.630000001518,false,high,NA,NA,NA,NA,NA,NA,NA,false
maUzpPpV,3p7qk0gj4wyyvhrnruxexlrqk8i2zm,3aqf3rz55cvivlhi4mkc9qobdd66fn,maUzpPpV,2020-0188,2020-06-16,12:42:25,13:02:13,NA,incomplete,33,color,1,1,right,Purple_Plus_Grid_3.jpg,Green_Plus_Chess_4.jpg,Purple_Circle_Stripes_1.jpg,left,674.2899999953806,false,high,NA,NA,NA,NA,NA,NA,NA,false
maUzpPpV,3p7qk0gj4wyyvhrnruxexlrqk8i2zm,3aqf3rz55cvivlhi4mkc9qobdd66fn,maUzpPpV,2020-0188,2020-06-16,12:42:25,13:02:13,NA,incomplete,34,color,1,1,right,Blue_Star_Dots_2.jpg,Green_Star_Grid_3.jpg,Blue_Triangle_Stripes_1.jpg,left,642.5400000007357,false,high,NA,NA,NA,NA,NA,NA,NA,false
maUzpPpV,3p7qk0gj4wyyvhrnruxexlrqk8i2zm,3aqf3rz55cvivlhi4mkc9qobdd66fn,maUzpPpV,2020-0188,2020-06-16,12:42:25,13:02:13,NA,incomplete,35,color,1,1,right,Purple_Star_Stripes_1.jpg,Green_Star_Chess_4.jpg,Purple_Plus_Dots_3.jpg,left,663.3450000081211,false,high,NA,NA,NA,NA,NA,NA,NA,false
maUzpPpV,3p7qk0gj4wyyvhrnruxexlrqk8i2zm,3aqf3rz55cvivlhi4mkc9qobdd66fn,maUzpPpV,2020-0188,2020-06-16,12:42:25,13:02:13,NA,incomplete,36,color,1,1,right,Red_Plus_Chess_1.jpg,Green_Plus_Stripes_2.jpg,Red_Circle_Dots_3.jpg,right,573.340000002645,true,high,NA,NA,NA,NA,NA,NA,NA,false
maUzpPpV,3p7qk0gj4wyyvhrnruxexlrqk8i2zm,3aqf3rz55cvivlhi4mkc9qobdd66fn,maUzpPpV,2020-0188,2020-06-16,12:42:25,13:02:13,NA,incomplete,37,color,1,1,left,Green_Circle_Stripes_1.jpg,Green_Plus_Dots_4.jpg,Blue_Circle_Chess_2.jpg,left,642.5150000141002,true,high,NA,NA,NA,NA,NA,NA,NA,false
maUzpPpV,3p7qk0gj4wyyvhrnruxexlrqk8i2zm,3aqf3rz55cvivlhi4mkc9qobdd66fn,maUzpPpV,2020-0188,2020-06-16,12:42:25,13:02:13,NA,incomplete,38,color,1,1,right,Red_Triangle_Stripes_1.jpg,Green_Triangle_Grid_3.jpg,Red_Circle_Dots_4.jpg,right,740.3749999939464,true,high,NA,NA,NA,NA,NA,NA,NA,false
maUzpPpV,3p7qk0gj4wyyvhrnruxexlrqk8i2zm,3aqf3rz55cvivlhi4mkc9qobdd66fn,maUzpPpV,2020-0188,2020-06-16,12:42:25,13:02:13,NA,incomplete,39,color,1,1,left,Green_Star_Stripes_2.jpg,Green_Circle_Dots_1.jpg,Purple_Star_Grid_4.jpg,left,404.59499999997206,true,high,NA,NA,NA,NA,NA,NA,NA,false
maUzpPpV,3p7qk0gj4wyyvhrnruxexlrqk8i2zm,3aqf3rz55cvivlhi4mkc9qobdd66fn,maUzpPpV,2020-0188,2020-06-16,12:42:25,13:02:13,NA,incomplete,40,shape,0,0,right,Green_Plus_Stripes_2.jpg,Green_Triangle_Grid_4.jpg,Purple_Plus_Chess_3.jpg,left,501.8250000139233,false,high,NA,NA,NA,NA,NA,NA,NA,false
maUzpPpV,3p7qk0gj4wyyvhrnruxexlrqk8i2zm,3aqf3rz55cvivlhi4mkc9qobdd66fn,maUzpPpV,2020-0188,2020-06-16,12:42:25,13:02:13,NA,incomplete,41,shape,0,1,right,Green_Star_Dots_1.jpg,Green_Triangle_Grid_2.jpg,Red_Star_Stripes_3.jpg,left,620.1599999913014,false,high,NA,NA,NA,NA,NA,NA,NA,false
maUzpPpV,3p7qk0gj4wyyvhrnruxexlrqk8i2zm,3aqf3rz55cvivlhi4mkc9qobdd66fn,maUzpPpV,2020-0188,2020-06-16,12:42:25,13:02:13,NA,incomplete,42,shape,0,1,left,Green_Star_Chess_1.jpg,Purple_Star_Dots_3.jpg,Green_Plus_Grid_4.jpg,right,378.0200000037439,false,high,NA,NA,NA,NA,NA,NA,NA,false
maUzpPpV,3p7qk0gj4wyyvhrnruxexlrqk8i2zm,3aqf3rz55cvivlhi4mkc9qobdd66fn,maUzpPpV,2020-0188,2020-06-16,12:42:25,13:02:13,NA,incomplete,43,shape,0,1,right,Blue_Triangle_Grid_2.jpg,Blue_Circle_Stripes_4.jpg,Purple_Triangle_Dots_3.jpg,left,580.7649999915157,false,high,NA,NA,NA,NA,NA,NA,NA,false
maUzpPpV,3p7qk0gj4wyyvhrnruxexlrqk8i2zm,3aqf3rz55cvivlhi4mkc9qobdd66fn,maUzpPpV,2020-0188,2020-06-16,12:42:25,13:02:13,NA,incomplete,44,shape,0,1,right,Blue_Star_Grid_1.jpg,Blue_Triangle_Stripes_2.jpg,Red_Star_Dots_3.jpg,right,779.70999997342,true,high,NA,NA,NA,NA,NA,NA,NA,false
maUzpPpV,3p7qk0gj4wyyvhrnruxexlrqk8i2zm,3aqf3rz55cvivlhi4mkc9qobdd66fn,maUzpPpV,2020-0188,2020-06-16,12:42:25,13:02:13,NA,incomplete,45,shape,0,1,right,Green_Star_Grid_4.jpg,Green_Circle_Stripes_3.jpg,Purple_Star_Dots_2.jpg,right,653.4899999969639,true,high,NA,NA,NA,NA,NA,NA,NA,false
maUzpPpV,3p7qk0gj4wyyvhrnruxexlrqk8i2zm,3aqf3rz55cvivlhi4mkc9qobdd66fn,maUzpPpV,2020-0188,2020-06-16,12:42:25,13:02:13,NA,incomplete,46,shape,0,1,right,Green_Plus_Dots_2.jpg,Green_Star_Grid_3.jpg,Blue_Plus_Chess_1.jpg,right,711.0500000126194,true,high,NA,NA,NA,NA,NA,NA,NA,false
maUzpPpV,3p7qk0gj4wyyvhrnruxexlrqk8i2zm,3aqf3rz55cvivlhi4mkc9qobdd66fn,maUzpPpV,2020-0188,2020-06-16,12:42:25,13:02:13,NA,incomplete,47,shape,0,0,right,Red_Circle_Grid_2.jpg,Red_Star_Chess_3.jpg,Purple_Circle_Stripes_1.jpg,right,624.3550000071991,true,high,NA,NA,NA,NA,NA,NA,NA,false
maUzpPpV,3p7qk0gj4wyyvhrnruxexlrqk8i2zm,3aqf3rz55cvivlhi4mkc9qobdd66fn,maUzpPpV,2020-0188,2020-06-16,12:42:25,13:02:13,NA,incomplete,48,shape,0,1,left,Purple_Circle_Dots_3.jpg,Red_Circle_Grid_1.jpg,Purple_Triangle_Chess_2.jpg,left,661.3849999848753,true,high,NA,NA,NA,NA,NA,NA,NA,false
maUzpPpV,3p7qk0gj4wyyvhrnruxexlrqk8i2zm,3aqf3rz55cvivlhi4mkc9qobdd66fn,maUzpPpV,2020-0188,2020-06-16,12:42:25,13:02:13,NA,incomplete,49,shape,0,1,right,Blue_Plus_Dots_4.jpg,Blue_Star_Chess_2.jpg,Red_Plus_Grid_1.jpg,right,650.839999987511,true,high,NA,NA,NA,NA,NA,NA,NA,false
maUzpPpV,3p7qk0gj4wyyvhrnruxexlrqk8i2zm,3aqf3rz55cvivlhi4mkc9qobdd66fn,maUzpPpV,2020-0188,2020-06-16,12:42:25,13:02:13,NA,incomplete,50,color,1,1,right,Green_Circle_Chess_1.jpg,Purple_Circle_Dots_4.jpg,Green_Triangle_Grid_2.jpg,left,769.1950000007637,false,high,NA,NA,NA,NA,NA,NA,NA,false
maUzpPpV,3p7qk0gj4wyyvhrnruxexlrqk8i2zm,3aqf3rz55cvivlhi4mkc9qobdd66fn,maUzpPpV,2020-0188,2020-06-16,12:42:25,13:02:13,NA,incomplete,51,color,1,0,right,Purple_Circle_Stripes_4.jpg,Red_Circle_Dots_1.jpg,Purple_Triangle_Grid_2.jpg,left,541.0900000133552,false,high,NA,NA,NA,NA,NA,NA,NA,false
maUzpPpV,3p7qk0gj4wyyvhrnruxexlrqk8i2zm,3aqf3rz55cvivlhi4mkc9qobdd66fn,maUzpPpV,2020-0188,2020-06-16,12:42:25,13:02:13,NA,incomplete,52,color,1,0,right,Purple_Plus_Chess_3.jpg,Red_Plus_Grid_1.jpg,Purple_Triangle_Dots_4.jpg,left,692.6450000028126,false,high,NA,NA,NA,NA,NA,NA,NA,false
maUzpPpV,3p7qk0gj4wyyvhrnruxexlrqk8i2zm,3aqf3rz55cvivlhi4mkc9qobdd66fn,maUzpPpV,2020-0188,2020-06-16,12:42:25,13:02:13,NA,incomplete,53,color,1,1,left,Red_Circle_Chess_2.jpg,Red_Triangle_Grid_4.jpg,Purple_Circle_Stripes_3.jpg,right,754.2499999981374,false,high,NA,NA,NA,NA,NA,NA,NA,false
maUzpPpV,3p7qk0gj4wyyvhrnruxexlrqk8i2zm,3aqf3rz55cvivlhi4mkc9qobdd66fn,maUzpPpV,2020-0188,2020-06-16,12:42:25,13:02:13,NA,incomplete,54,color,1,1,left,Red_Star_Dots_4.jpg,Red_Circle_Chess_2.jpg,Blue_Star_Grid_3.jpg,right,940.4349999967963,false,high,NA,NA,NA,NA,NA,NA,NA,false
maUzpPpV,3p7qk0gj4wyyvhrnruxexlrqk8i2zm,3aqf3rz55cvivlhi4mkc9qobdd66fn,maUzpPpV,2020-0188,2020-06-16,12:42:25,13:02:13,NA,incomplete,55,color,1,1,left,Green_Triangle_Chess_4.jpg,Green_Star_Dots_1.jpg,Blue_Triangle_Grid_2.jpg,right,716.2349999998696,false,high,NA,NA,NA,NA,NA,NA,NA,false
maUzpPpV,3p7qk0gj4wyyvhrnruxexlrqk8i2zm,3aqf3rz55cvivlhi4mkc9qobdd66fn,maUzpPpV,2020-0188,2020-06-16,12:42:25,13:02:13,NA,incomplete,56,color,1,0,right,Purple_Circle_Stripes_2.jpg,Red_Circle_Chess_4.jpg,Purple_Star_Dots_3.jpg,right,1098.4449999814387,true,high,NA,NA,NA,NA,NA,NA,NA,false
maUzpPpV,3p7qk0gj4wyyvhrnruxexlrqk8i2zm,3aqf3rz55cvivlhi4mkc9qobdd66fn,maUzpPpV,2020-0188,2020-06-16,12:42:25,13:02:13,NA,incomplete,57,color,1,0,left,Blue_Plus_Stripes_3.jpg,Blue_Star_Chess_2.jpg,Red_Plus_Dots_1.jpg,left,641.2950000085402,true,high,NA,NA,NA,NA,NA,NA,NA,false
maUzpPpV,3p7qk0gj4wyyvhrnruxexlrqk8i2zm,3aqf3rz55cvivlhi4mkc9qobdd66fn,maUzpPpV,2020-0188,2020-06-16,12:42:25,13:02:13,NA,incomplete,58,color,1,1,right,Green_Circle_Chess_3.jpg,Purple_Circle_Grid_4.jpg,Green_Triangle_Stripes_2.jpg,right,606.0050000087358,true,high,NA,NA,NA,NA,NA,NA,NA,false
maUzpPpV,3p7qk0gj4wyyvhrnruxexlrqk8i2zm,3aqf3rz55cvivlhi4mkc9qobdd66fn,maUzpPpV,2020-0188,2020-06-16,12:42:25,13:02:13,NA,incomplete,59,color,1,1,right,Blue_Star_Stripes_3.jpg,Red_Star_Chess_1.jpg,Blue_Circle_Dots_2.jpg,right,697.2299999906681,true,high,NA,NA,NA,NA,NA,NA,NA,false
maUzpPpV,3p7qk0gj4wyyvhrnruxexlrqk8i2zm,3aqf3rz55cvivlhi4mkc9qobdd66fn,maUzpPpV,2020-0188,2020-06-16,12:42:25,13:02:13,NA,incomplete,60,shape,0,1,right,Blue_Plus_Stripes_1.jpg,Blue_Star_Dots_3.jpg,Purple_Plus_Grid_4.jpg,left,665.8100000058766,false,high,NA,NA,NA,NA,NA,NA,NA,false
maUzpPpV,3p7qk0gj4wyyvhrnruxexlrqk8i2zm,3aqf3rz55cvivlhi4mkc9qobdd66fn,maUzpPpV,2020-0188,2020-06-16,12:42:25,13:02:13,NA,incomplete,61,shape,0,1,left,Purple_Triangle_Stripes_1.jpg,Green_Triangle_Dots_2.jpg,Purple_Star_Grid_3.jpg,right,627.3649999930058,false,high,NA,NA,NA,NA,NA,NA,NA,false
maUzpPpV,3p7qk0gj4wyyvhrnruxexlrqk8i2zm,3aqf3rz55cvivlhi4mkc9qobdd66fn,maUzpPpV,2020-0188,2020-06-16,12:42:25,13:02:13,NA,incomplete,62,shape,0,1,right,Green_Triangle_Stripes_3.jpg,Green_Circle_Chess_1.jpg,Blue_Triangle_Grid_2.jpg,right,700.6800000090152,true,high,NA,NA,NA,NA,NA,NA,NA,false
maUzpPpV,3p7qk0gj4wyyvhrnruxexlrqk8i2zm,3aqf3rz55cvivlhi4mkc9qobdd66fn,maUzpPpV,2020-0188,2020-06-16,12:42:25,13:02:13,NA,incomplete,63,shape,0,1,left,Red_Triangle_Stripes_1.jpg,Green_Triangle_Grid_2.jpg,Red_Star_Chess_4.jpg,left,555.770000006305,true,high,NA,NA,NA,NA,NA,NA,NA,false
maUzpPpV,3p7qk0gj4wyyvhrnruxexlrqk8i2zm,3aqf3rz55cvivlhi4mkc9qobdd66fn,maUzpPpV,2020-0188,2020-06-16,12:42:25,13:02:13,NA,incomplete,64,shape,0,1,right,Blue_Circle_Grid_2.jpg,Blue_Triangle_Chess_1.jpg,Green_Circle_Dots_3.jpg,right,690.9699999960139,true,high,NA,NA,NA,NA,NA,NA,NA,false
maUzpPpV,3p7qk0gj4wyyvhrnruxexlrqk8i2zm,3aqf3rz55cvivlhi4mkc9qobdd66fn,maUzpPpV,2020-0188,2020-06-16,12:42:25,13:02:13,NA,incomplete,65,shape,0,1,right,Purple_Star_Grid_3.jpg,Purple_Circle_Dots_2.jpg,Green_Star_Chess_4.jpg,right,600.2349999907892,true,high,NA,NA,NA,NA,NA,NA,NA,false
maUzpPpV,3p7qk0gj4wyyvhrnruxexlrqk8i2zm,3aqf3rz55cvivlhi4mkc9qobdd66fn,maUzpPpV,2020-0188,2020-06-16,12:42:25,13:02:13,NA,incomplete,66,shape,0,1,right,Purple_Circle_Dots_4.jpg,Purple_Star_Stripes_2.jpg,Red_Circle_Grid_3.jpg,right,610.709999979008,true,high,NA,NA,NA,NA,NA,NA,NA,false
maUzpPpV,3p7qk0gj4wyyvhrnruxexlrqk8i2zm,3aqf3rz55cvivlhi4mkc9qobdd66fn,maUzpPpV,2020-0188,2020-06-16,12:42:25,13:02:13,NA,incomplete,67,shape,0,0,left,Green_Star_Grid_4.jpg,Blue_Star_Stripes_3.jpg,Green_Circle_Dots_1.jpg,left,852.3449999920558,true,high,NA,NA,NA,NA,NA,NA,NA,false
maUzpPpV,3p7qk0gj4wyyvhrnruxexlrqk8i2zm,3aqf3rz55cvivlhi4mkc9qobdd66fn,maUzpPpV,2020-0188,2020-06-16,12:42:25,13:02:13,NA,incomplete,68,shape,0,1,left,Green_Circle_Dots_2.jpg,Blue_Circle_Grid_3.jpg,Green_Triangle_Stripes_1.jpg,left,576.839999994263,true,high,NA,NA,NA,NA,NA,NA,NA,false
maUzpPpV,3p7qk0gj4wyyvhrnruxexlrqk8i2zm,3aqf3rz55cvivlhi4mkc9qobdd66fn,maUzpPpV,2020-0188,2020-06-16,12:42:25,13:02:13,NA,incomplete,69,shape,0,0,left,Purple_Star_Stripes_4.jpg,Green_Star_Dots_3.jpg,Purple_Triangle_Chess_2.jpg,left,833.5450000013225,true,high,NA,NA,NA,NA,NA,NA,NA,false
maUzpPpV,3p7qk0gj4wyyvhrnruxexlrqk8i2zm,3aqf3rz55cvivlhi4mkc9qobdd66fn,maUzpPpV,2020-0188,2020-06-16,12:42:25,13:02:13,NA,incomplete,70,color,1,1,right,Blue_Triangle_Dots_4.jpg,Red_Triangle_Stripes_2.jpg,Blue_Plus_Chess_3.jpg,left,665.3149999910966,false,high,NA,NA,NA,NA,NA,NA,NA,false
maUzpPpV,3p7qk0gj4wyyvhrnruxexlrqk8i2zm,3aqf3rz55cvivlhi4mkc9qobdd66fn,maUzpPpV,2020-0188,2020-06-16,12:42:25,13:02:13,NA,incomplete,71,color,1,1,right,Green_Triangle_Chess_2.jpg,Red_Triangle_Grid_4.jpg,Green_Plus_Dots_1.jpg,left,941.6949999867938,false,high,NA,NA,NA,NA,NA,NA,NA,false
maUzpPpV,3p7qk0gj4wyyvhrnruxexlrqk8i2zm,3aqf3rz55cvivlhi4mkc9qobdd66fn,maUzpPpV,2020-0188,2020-06-16,12:42:25,13:02:13,NA,incomplete,72,color,1,1,left,Blue_Triangle_Dots_2.jpg,Blue_Plus_Chess_4.jpg,Purple_Triangle_Grid_1.jpg,left,555.1550000091083,true,high,NA,NA,NA,NA,NA,NA,NA,false
maUzpPpV,3p7qk0gj4wyyvhrnruxexlrqk8i2zm,3aqf3rz55cvivlhi4mkc9qobdd66fn,maUzpPpV,2020-0188,2020-06-16,12:42:25,13:02:13,NA,incomplete,73,color,1,0,left,Green_Circle_Grid_4.jpg,Green_Plus_Chess_2.jpg,Blue_Circle_Stripes_1.jpg,left,662.0750000001863,true,high,NA,NA,NA,NA,NA,NA,NA,false
maUzpPpV,3p7qk0gj4wyyvhrnruxexlrqk8i2zm,3aqf3rz55cvivlhi4mkc9qobdd66fn,maUzpPpV,2020-0188,2020-06-16,12:42:25,13:02:13,NA,incomplete,74,color,1,0,left,Blue_Star_Grid_1.jpg,Blue_Circle_Stripes_2.jpg,Red_Star_Dots_3.jpg,left,812.1650000102818,true,high,NA,NA,NA,NA,NA,NA,NA,false
maUzpPpV,3p7qk0gj4wyyvhrnruxexlrqk8i2zm,3aqf3rz55cvivlhi4mkc9qobdd66fn,maUzpPpV,2020-0188,2020-06-16,12:42:25,13:02:13,NA,incomplete,75,color,1,1,left,Green_Triangle_Stripes_4.jpg,Green_Plus_Grid_2.jpg,Blue_Triangle_Chess_3.jpg,left,683.4500000113621,true,high,NA,NA,NA,NA,NA,NA,NA,false
maUzpPpV,3p7qk0gj4wyyvhrnruxexlrqk8i2zm,3aqf3rz55cvivlhi4mkc9qobdd66fn,maUzpPpV,2020-0188,2020-06-16,12:42:25,13:02:13,NA,incomplete,76,color,1,1,left,Red_Star_Stripes_1.jpg,Red_Triangle_Dots_3.jpg,Blue_Star_Grid_4.jpg,left,564.394999993965,true,high,NA,NA,NA,NA,NA,NA,NA,false
maUzpPpV,3p7qk0gj4wyyvhrnruxexlrqk8i2zm,3aqf3rz55cvivlhi4mkc9qobdd66fn,maUzpPpV,2020-0188,2020-06-16,12:42:25,13:02:13,NA,incomplete,77,color,1,0,right,Blue_Circle_Chess_3.jpg,Red_Circle_Grid_4.jpg,Blue_Triangle_Stripes_2.jpg,right,567.1300000103656,true,high,NA,NA,NA,NA,NA,NA,NA,false
maUzpPpV,3p7qk0gj4wyyvhrnruxexlrqk8i2zm,3aqf3rz55cvivlhi4mkc9qobdd66fn,maUzpPpV,2020-0188,2020-06-16,12:42:25,13:02:13,NA,incomplete,78,color,1,1,right,Blue_Star_Grid_2.jpg,Green_Star_Stripes_3.jpg,Blue_Triangle_Chess_1.jpg,right,574.800000002142,true,high,NA,NA,NA,NA,NA,NA,NA,false
maUzpPpV,3p7qk0gj4wyyvhrnruxexlrqk8i2zm,3aqf3rz55cvivlhi4mkc9qobdd66fn,maUzpPpV,2020-0188,2020-06-16,12:42:25,13:02:13,NA,incomplete,79,color,1,1,left,Purple_Triangle_Chess_3.jpg,Purple_Circle_Stripes_2.jpg,Red_Triangle_Grid_4.jpg,left,669.7250000142958,true,high,NA,NA,NA,NA,NA,NA,NA,false
maUzpPpV,3p7qk0gj4wyyvhrnruxexlrqk8i2zm,3aqf3rz55cvivlhi4mkc9qobdd66fn,maUzpPpV,2020-0188,2020-06-16,12:42:25,13:02:13,NA,incomplete,80,shape,0,1,left,Green_Circle_Chess_1.jpg,Red_Circle_Stripes_3.jpg,Green_Triangle_Grid_2.jpg,right,554.0900000196416,false,high,NA,NA,NA,NA,NA,NA,NA,false
maUzpPpV,3p7qk0gj4wyyvhrnruxexlrqk8i2zm,3aqf3rz55cvivlhi4mkc9qobdd66fn,maUzpPpV,2020-0188,2020-06-16,12:42:25,13:02:13,NA,incomplete,81,shape,0,1,left,Red_Plus_Grid_3.jpg,Green_Plus_Chess_2.jpg,Red_Circle_Stripes_4.jpg,right,721.7999999993481,false,high,NA,NA,NA,NA,NA,NA,NA,false
maUzpPpV,3p7qk0gj4wyyvhrnruxexlrqk8i2zm,3aqf3rz55cvivlhi4mkc9qobdd66fn,maUzpPpV,2020-0188,2020-06-16,12:42:25,13:02:13,NA,incomplete,82,shape,0,1,right,Purple_Circle_Stripes_2.jpg,Purple_Triangle_Dots_3.jpg,Blue_Circle_Grid_1.jpg,left,843.4649999835528,false,high,NA,NA,NA,NA,NA,NA,NA,false
maUzpPpV,3p7qk0gj4wyyvhrnruxexlrqk8i2zm,3aqf3rz55cvivlhi4mkc9qobdd66fn,maUzpPpV,2020-0188,2020-06-16,12:42:25,13:02:13,NA,incomplete,83,shape,0,1,right,Blue_Star_Dots_4.jpg,Blue_Plus_Grid_3.jpg,Red_Star_Stripes_1.jpg,right,722.7450000063982,true,high,NA,NA,NA,NA,NA,NA,NA,false
maUzpPpV,3p7qk0gj4wyyvhrnruxexlrqk8i2zm,3aqf3rz55cvivlhi4mkc9qobdd66fn,maUzpPpV,2020-0188,2020-06-16,12:42:25,13:02:13,NA,incomplete,84,shape,0,0,right,Purple_Plus_Dots_1.jpg,Purple_Triangle_Grid_3.jpg,Blue_Plus_Chess_2.jpg,right,933.4150000067893,true,high,NA,NA,NA,NA,NA,NA,NA,false
maUzpPpV,3p7qk0gj4wyyvhrnruxexlrqk8i2zm,3aqf3rz55cvivlhi4mkc9qobdd66fn,maUzpPpV,2020-0188,2020-06-16,12:42:25,13:02:13,NA,incomplete,85,shape,0,1,left,Green_Plus_Stripes_3.jpg,Purple_Plus_Chess_1.jpg,Green_Circle_Grid_2.jpg,left,1068.5749999829568,true,high,NA,NA,NA,NA,NA,NA,NA,false
maUzpPpV,3p7qk0gj4wyyvhrnruxexlrqk8i2zm,3aqf3rz55cvivlhi4mkc9qobdd66fn,maUzpPpV,2020-0188,2020-06-16,12:42:25,13:02:13,NA,incomplete,86,shape,0,0,left,Blue_Triangle_Stripes_2.jpg,Red_Triangle_Chess_4.jpg,Blue_Circle_Dots_1.jpg,left,630.0500000070315,true,high,NA,NA,NA,NA,NA,NA,NA,false
maUzpPpV,3p7qk0gj4wyyvhrnruxexlrqk8i2zm,3aqf3rz55cvivlhi4mkc9qobdd66fn,maUzpPpV,2020-0188,2020-06-16,12:42:25,13:02:13,NA,incomplete,87,shape,0,1,right,Purple_Star_Grid_2.jpg,Purple_Circle_Stripes_3.jpg,Green_Star_Dots_1.jpg,right,897.224999993341,true,high,NA,NA,NA,NA,NA,NA,NA,false
maUzpPpV,3p7qk0gj4wyyvhrnruxexlrqk8i2zm,3aqf3rz55cvivlhi4mkc9qobdd66fn,maUzpPpV,2020-0188,2020-06-16,12:42:25,13:02:13,NA,incomplete,88,shape,0,1,left,Red_Plus_Grid_4.jpg,Purple_Plus_Dots_3.jpg,Red_Circle_Chess_2.jpg,left,913.8249999959953,true,high,NA,NA,NA,NA,NA,NA,NA,false
maUzpPpV,3p7qk0gj4wyyvhrnruxexlrqk8i2zm,3aqf3rz55cvivlhi4mkc9qobdd66fn,maUzpPpV,2020-0188,2020-06-16,12:42:25,13:02:13,NA,incomplete,89,shape,0,1,right,Blue_Circle_Chess_2.jpg,Blue_Plus_Stripes_3.jpg,Green_Circle_Grid_1.jpg,right,851.8500000063796,true,high,NA,NA,NA,NA,NA,NA,NA,false
maUzpPpV,3p7qk0gj4wyyvhrnruxexlrqk8i2zm,3aqf3rz55cvivlhi4mkc9qobdd66fn,maUzpPpV,2020-0188,2020-06-16,12:42:25,13:02:13,NA,incomplete,90,color,1,0,right,Blue_Star_Stripes_2.jpg,Green_Star_Grid_4.jpg,Blue_Triangle_Dots_3.jpg,left,599.3449999950826,false,high,NA,NA,NA,NA,NA,NA,NA,false
maUzpPpV,3p7qk0gj4wyyvhrnruxexlrqk8i2zm,3aqf3rz55cvivlhi4mkc9qobdd66fn,maUzpPpV,2020-0188,2020-06-16,12:42:25,13:02:13,NA,incomplete,91,color,1,1,left,Blue_Plus_Grid_4.jpg,Blue_Star_Chess_1.jpg,Purple_Plus_Stripes_3.jpg,right,829.8699999868404,false,high,NA,NA,NA,NA,NA,NA,NA,false
maUzpPpV,3p7qk0gj4wyyvhrnruxexlrqk8i2zm,3aqf3rz55cvivlhi4mkc9qobdd66fn,maUzpPpV,2020-0188,2020-06-16,12:42:25,13:02:13,NA,incomplete,92,color,1,1,left,Blue_Plus_Grid_2.jpg,Blue_Circle_Stripes_1.jpg,Green_Plus_Dots_4.jpg,right,779.8499999917112,false,high,NA,NA,NA,NA,NA,NA,NA,false
maUzpPpV,3p7qk0gj4wyyvhrnruxexlrqk8i2zm,3aqf3rz55cvivlhi4mkc9qobdd66fn,maUzpPpV,2020-0188,2020-06-16,12:42:25,13:02:13,NA,incomplete,93,color,1,1,right,Red_Triangle_Chess_3.jpg,Green_Triangle_Dots_4.jpg,Red_Plus_Grid_1.jpg,left,998.4600000025239,false,high,NA,NA,NA,NA,NA,NA,NA,false
maUzpPpV,3p7qk0gj4wyyvhrnruxexlrqk8i2zm,3aqf3rz55cvivlhi4mkc9qobdd66fn,maUzpPpV,2020-0188,2020-06-16,12:42:25,13:02:13,NA,incomplete,94,color,1,1,left,Red_Star_Grid_2.jpg,Red_Circle_Stripes_3.jpg,Purple_Star_Dots_4.jpg,left,1055.1700000069104,true,high,NA,NA,NA,NA,NA,NA,NA,false
maUzpPpV,3p7qk0gj4wyyvhrnruxexlrqk8i2zm,3aqf3rz55cvivlhi4mkc9qobdd66fn,maUzpPpV,2020-0188,2020-06-16,12:42:25,13:02:13,NA,incomplete,95,color,1,1,right,Green_Triangle_Chess_2.jpg,Purple_Triangle_Stripes_4.jpg,Green_Circle_Grid_3.jpg,right,572.1450000128243,true,high,NA,NA,NA,NA,NA,NA,NA,false
maUzpPpV,3p7qk0gj4wyyvhrnruxexlrqk8i2zm,3aqf3rz55cvivlhi4mkc9qobdd66fn,maUzpPpV,2020-0188,2020-06-16,12:42:25,13:02:13,NA,incomplete,96,color,1,1,right,Blue_Plus_Grid_1.jpg,Green_Plus_Dots_2.jpg,Blue_Triangle_Chess_4.jpg,right,1081.5200000070035,true,high,NA,NA,NA,NA,NA,NA,NA,false
maUzpPpV,3p7qk0gj4wyyvhrnruxexlrqk8i2zm,3aqf3rz55cvivlhi4mkc9qobdd66fn,maUzpPpV,2020-0188,2020-06-16,12:42:25,13:02:13,NA,incomplete,97,color,1,1,left,Blue_Circle_Grid_4.jpg,Blue_Star_Dots_3.jpg,Green_Circle_Stripes_1.jpg,left,962.0700000086799,true,high,NA,NA,NA,NA,NA,NA,NA,false
maUzpPpV,3p7qk0gj4wyyvhrnruxexlrqk8i2zm,3aqf3rz55cvivlhi4mkc9qobdd66fn,maUzpPpV,2020-0188,2020-06-16,12:42:25,13:02:13,NA,incomplete,98,color,1,1,left,Purple_Plus_Grid_4.jpg,Purple_Triangle_Chess_2.jpg,Green_Plus_Stripes_1.jpg,left,694.4500000099652,true,high,NA,NA,NA,NA,NA,NA,NA,false
maUzpPpV,3p7qk0gj4wyyvhrnruxexlrqk8i2zm,3aqf3rz55cvivlhi4mkc9qobdd66fn,maUzpPpV,2020-0188,2020-06-16,12:42:25,13:02:13,NA,incomplete,99,color,1,1,left,Red_Circle_Stripes_4.jpg,Red_Plus_Grid_3.jpg,Green_Circle_Dots_2.jpg,left,545.4050000116695,true,high,NA,NA,NA,NA,NA,NA,NA,false
maUzpPpV,3p7qk0gj4wyyvhrnruxexlrqk8i2zm,3aqf3rz55cvivlhi4mkc9qobdd66fn,maUzpPpV,2020-0188,2020-06-16,12:42:25,13:02:13,NA,incomplete,100,shape,0,1,left,Green_Circle_Chess_4.jpg,Red_Circle_Grid_1.jpg,Green_Plus_Dots_3.jpg,right,834.4250000081956,false,high,NA,NA,NA,NA,NA,NA,NA,false
maUzpPpV,3p7qk0gj4wyyvhrnruxexlrqk8i2zm,3aqf3rz55cvivlhi4mkc9qobdd66fn,maUzpPpV,2020-0188,2020-06-16,12:42:25,13:02:13,NA,incomplete,101,shape,0,1,right,Purple_Triangle_Dots_2.jpg,Purple_Star_Stripes_4.jpg,Red_Triangle_Chess_1.jpg,left,795.734999992419,false,high,NA,NA,NA,NA,NA,NA,NA,false
maUzpPpV,3p7qk0gj4wyyvhrnruxexlrqk8i2zm,3aqf3rz55cvivlhi4mkc9qobdd66fn,maUzpPpV,2020-0188,2020-06-16,12:42:25,13:02:13,NA,incomplete,102,shape,0,0,left,Purple_Plus_Stripes_1.jpg,Blue_Plus_Chess_3.jpg,Purple_Circle_Grid_2.jpg,right,593.7600000179373,false,high,NA,NA,NA,NA,NA,NA,NA,false
maUzpPpV,3p7qk0gj4wyyvhrnruxexlrqk8i2zm,3aqf3rz55cvivlhi4mkc9qobdd66fn,maUzpPpV,2020-0188,2020-06-16,12:42:25,13:02:13,NA,incomplete,103,shape,0,1,right,Purple_Plus_Stripes_4.jpg,Purple_Circle_Dots_2.jpg,Red_Plus_Grid_3.jpg,left,554.8950000084005,false,high,NA,NA,NA,NA,NA,NA,NA,false
maUzpPpV,3p7qk0gj4wyyvhrnruxexlrqk8i2zm,3aqf3rz55cvivlhi4mkc9qobdd66fn,maUzpPpV,2020-0188,2020-06-16,12:42:25,13:02:13,NA,incomplete,104,shape,0,1,right,Red_Triangle_Dots_2.jpg,Red_Plus_Grid_1.jpg,Purple_Triangle_Chess_3.jpg,left,722.4349999742117,false,high,NA,NA,NA,NA,NA,NA,NA,false
maUzpPpV,3p7qk0gj4wyyvhrnruxexlrqk8i2zm,3aqf3rz55cvivlhi4mkc9qobdd66fn,maUzpPpV,2020-0188,2020-06-16,12:42:25,13:02:13,NA,incomplete,105,shape,0,1,right,Green_Circle_Grid_2.jpg,Green_Plus_Dots_1.jpg,Blue_Circle_Stripes_3.jpg,right,676.7500000132713,true,high,NA,NA,NA,NA,NA,NA,NA,false
maUzpPpV,3p7qk0gj4wyyvhrnruxexlrqk8i2zm,3aqf3rz55cvivlhi4mkc9qobdd66fn,maUzpPpV,2020-0188,2020-06-16,12:42:25,13:02:13,NA,incomplete,106,shape,0,1,left,Red_Triangle_Dots_1.jpg,Purple_Triangle_Grid_4.jpg,Red_Circle_Stripes_3.jpg,left,1022.7250000170898,true,high,NA,NA,NA,NA,NA,NA,NA,false
maUzpPpV,3p7qk0gj4wyyvhrnruxexlrqk8i2zm,3aqf3rz55cvivlhi4mkc9qobdd66fn,maUzpPpV,2020-0188,2020-06-16,12:42:25,13:02:13,NA,incomplete,107,shape,0,1,left,Green_Triangle_Dots_4.jpg,Blue_Triangle_Grid_2.jpg,Green_Star_Stripes_3.jpg,left,792.025000002468,true,high,NA,NA,NA,NA,NA,NA,NA,false
maUzpPpV,3p7qk0gj4wyyvhrnruxexlrqk8i2zm,3aqf3rz55cvivlhi4mkc9qobdd66fn,maUzpPpV,2020-0188,2020-06-16,12:42:25,13:02:13,NA,incomplete,108,shape,0,1,left,Blue_Triangle_Grid_2.jpg,Red_Triangle_Dots_4.jpg,Blue_Plus_Stripes_1.jpg,left,768.2600000116508,true,high,NA,NA,NA,NA,NA,NA,NA,false
maUzpPpV,3p7qk0gj4wyyvhrnruxexlrqk8i2zm,3aqf3rz55cvivlhi4mkc9qobdd66fn,maUzpPpV,2020-0188,2020-06-16,12:42:25,13:02:13,NA,incomplete,109,shape,0,0,right,Green_Star_Chess_2.jpg,Green_Circle_Grid_3.jpg,Blue_Star_Dots_4.jpg,right,780.0100000167731,true,high,NA,NA,NA,NA,NA,NA,NA,false
maUzpPpV,3p7qk0gj4wyyvhrnruxexlrqk8i2zm,3aqf3rz55cvivlhi4mkc9qobdd66fn,maUzpPpV,2020-0188,2020-06-16,12:42:25,13:02:13,NA,incomplete,110,color,1,1,right,Red_Triangle_Grid_3.jpg,Blue_Triangle_Chess_1.jpg,Red_Circle_Dots_2.jpg,left,616.0099999979138,false,high,NA,NA,NA,NA,NA,NA,NA,false
maUzpPpV,3p7qk0gj4wyyvhrnruxexlrqk8i2zm,3aqf3rz55cvivlhi4mkc9qobdd66fn,maUzpPpV,2020-0188,2020-06-16,12:42:25,13:02:13,NA,incomplete,111,color,1,0,right,Purple_Star_Dots_4.jpg,Blue_Star_Chess_2.jpg,Purple_Circle_Stripes_3.jpg,left,1004.5350000145845,false,high,NA,NA,NA,NA,NA,NA,NA,false
maUzpPpV,3p7qk0gj4wyyvhrnruxexlrqk8i2zm,3aqf3rz55cvivlhi4mkc9qobdd66fn,maUzpPpV,2020-0188,2020-06-16,12:42:25,13:02:13,NA,incomplete,112,color,1,1,left,Purple_Plus_Chess_2.jpg,Purple_Triangle_Grid_1.jpg,Blue_Plus_Dots_3.jpg,right,712.0299999951385,false,high,NA,NA,NA,NA,NA,NA,NA,false
maUzpPpV,3p7qk0gj4wyyvhrnruxexlrqk8i2zm,3aqf3rz55cvivlhi4mkc9qobdd66fn,maUzpPpV,2020-0188,2020-06-16,12:42:25,13:02:13,NA,incomplete,113,color,1,1,left,Green_Star_Grid_4.jpg,Green_Circle_Stripes_1.jpg,Blue_Star_Dots_2.jpg,left,1084.8150000092573,true,high,NA,NA,NA,NA,NA,NA,NA,false
maUzpPpV,3p7qk0gj4wyyvhrnruxexlrqk8i2zm,3aqf3rz55cvivlhi4mkc9qobdd66fn,maUzpPpV,2020-0188,2020-06-16,12:42:25,13:02:13,NA,incomplete,114,color,1,1,left,Red_Triangle_Stripes_4.jpg,Red_Plus_Grid_3.jpg,Blue_Triangle_Dots_1.jpg,left,601.8649999750778,true,high,NA,NA,NA,NA,NA,NA,NA,false
maUzpPpV,3p7qk0gj4wyyvhrnruxexlrqk8i2zm,3aqf3rz55cvivlhi4mkc9qobdd66fn,maUzpPpV,2020-0188,2020-06-16,12:42:25,13:02:13,NA,incomplete,115,color,1,1,right,Purple_Star_Grid_4.jpg,Green_Star_Chess_2.jpg,Purple_Circle_Dots_1.jpg,right,1187.290000001667,true,high,NA,NA,NA,NA,NA,NA,NA,false
maUzpPpV,3p7qk0gj4wyyvhrnruxexlrqk8i2zm,3aqf3rz55cvivlhi4mkc9qobdd66fn,maUzpPpV,2020-0188,2020-06-16,12:42:25,13:02:13,NA,incomplete,116,color,1,1,right,Green_Plus_Dots_1.jpg,Red_Plus_Grid_3.jpg,Green_Triangle_Stripes_4.jpg,right,660.3250000043772,true,high,NA,NA,NA,NA,NA,NA,NA,false
maUzpPpV,3p7qk0gj4wyyvhrnruxexlrqk8i2zm,3aqf3rz55cvivlhi4mkc9qobdd66fn,maUzpPpV,2020-0188,2020-06-16,12:42:25,13:02:13,NA,incomplete,117,color,1,1,left,Purple_Triangle_Dots_4.jpg,Purple_Plus_Chess_2.jpg,Blue_Triangle_Stripes_1.jpg,left,684.3099999823608,true,high,NA,NA,NA,NA,NA,NA,NA,false
maUzpPpV,3p7qk0gj4wyyvhrnruxexlrqk8i2zm,3aqf3rz55cvivlhi4mkc9qobdd66fn,maUzpPpV,2020-0188,2020-06-16,12:42:25,13:02:13,NA,incomplete,118,color,1,1,right,Red_Plus_Grid_4.jpg,Blue_Plus_Chess_3.jpg,Red_Star_Stripes_2.jpg,right,608.3899999794085,true,high,NA,NA,NA,NA,NA,NA,NA,false
maUzpPpV,3p7qk0gj4wyyvhrnruxexlrqk8i2zm,3aqf3rz55cvivlhi4mkc9qobdd66fn,maUzpPpV,2020-0188,2020-06-16,12:42:25,13:02:13,NA,incomplete,119,color,1,0,right,Red_Circle_Dots_1.jpg,Blue_Circle_Chess_2.jpg,Red_Plus_Stripes_4.jpg,right,551.4300000213552,true,high,NA,NA,NA,NA,NA,NA,NA,false
maUzpPpV,3p7qk0gj4wyyvhrnruxexlrqk8i2zm,3aqf3rz55cvivlhi4mkc9qobdd66fn,maUzpPpV,2020-0188,2020-06-16,12:42:25,13:02:13,NA,incomplete,120,gender,2,1,left,A_F_09.jpg,C_F_06.jpg,A_M_07.jpg,NA,NA,NA,high,NA,NA,NA,NA,NA,NA,NA,false
maUzpPpV,3p7qk0gj4wyyvhrnruxexlrqk8i2zm,3aqf3rz55cvivlhi4mkc9qobdd66fn,maUzpPpV,2020-0188,2020-06-16,12:42:25,13:02:13,NA,incomplete,121,gender,2,1,left,C_F_16.jpg,A_F_04.jpg,C_M_13.jpg,right,1230.1699999952689,false,high,NA,NA,NA,NA,NA,NA,NA,false
maUzpPpV,3p7qk0gj4wyyvhrnruxexlrqk8i2zm,3aqf3rz55cvivlhi4mkc9qobdd66fn,maUzpPpV,2020-0188,2020-06-16,12:42:25,13:02:13,NA,incomplete,122,gender,2,1,left,A_M_14.jpg,C_M_12.jpg,A_F_10.jpg,right,1006.6499999957159,false,high,NA,NA,NA,NA,NA,NA,NA,false
maUzpPpV,3p7qk0gj4wyyvhrnruxexlrqk8i2zm,3aqf3rz55cvivlhi4mkc9qobdd66fn,maUzpPpV,2020-0188,2020-06-16,12:42:25,13:02:13,NA,incomplete,123,gender,2,1,right,C_F_12.jpg,C_M_07.jpg,A_F_14.jpg,right,930.1599999889731,true,high,NA,NA,NA,NA,NA,NA,NA,false
maUzpPpV,3p7qk0gj4wyyvhrnruxexlrqk8i2zm,3aqf3rz55cvivlhi4mkc9qobdd66fn,maUzpPpV,2020-0188,2020-06-16,12:42:25,13:02:13,NA,incomplete,124,gender,2,0,right,C_F_03.jpg,C_M_14.jpg,A_F_08.jpg,right,674.7499999764841,true,high,NA,NA,NA,NA,NA,NA,NA,false
maUzpPpV,3p7qk0gj4wyyvhrnruxexlrqk8i2zm,3aqf3rz55cvivlhi4mkc9qobdd66fn,maUzpPpV,2020-0188,2020-06-16,12:42:25,13:02:13,NA,incomplete,125,gender,2,1,left,C_F_12.jpg,A_F_08.jpg,C_M_11.jpg,left,640.095000009751,true,high,NA,NA,NA,NA,NA,NA,NA,false
maUzpPpV,3p7qk0gj4wyyvhrnruxexlrqk8i2zm,3aqf3rz55cvivlhi4mkc9qobdd66fn,maUzpPpV,2020-0188,2020-06-16,12:42:25,13:02:13,NA,incomplete,126,gender,2,1,right,C_M_06.jpg,C_F_13.jpg,A_M_01.jpg,right,785.5550000094809,true,high,NA,NA,NA,NA,NA,NA,NA,false
maUzpPpV,3p7qk0gj4wyyvhrnruxexlrqk8i2zm,3aqf3rz55cvivlhi4mkc9qobdd66fn,maUzpPpV,2020-0188,2020-06-16,12:42:25,13:02:13,NA,incomplete,127,gender,2,0,left,A_F_16.jpg,C_F_06.jpg,A_M_13.jpg,left,671.4899999788031,true,high,NA,NA,NA,NA,NA,NA,NA,false
maUzpPpV,3p7qk0gj4wyyvhrnruxexlrqk8i2zm,3aqf3rz55cvivlhi4mkc9qobdd66fn,maUzpPpV,2020-0188,2020-06-16,12:42:25,13:02:13,NA,incomplete,128,gender,2,1,right,A_M_01.jpg,A_F_11.jpg,C_M_13.jpg,right,1056.4500000036787,true,high,NA,NA,NA,NA,NA,NA,NA,false
maUzpPpV,3p7qk0gj4wyyvhrnruxexlrqk8i2zm,3aqf3rz55cvivlhi4mkc9qobdd66fn,maUzpPpV,2020-0188,2020-06-16,12:42:25,13:02:13,NA,incomplete,129,gender,2,1,right,C_F_14.jpg,C_M_05.jpg,A_F_01.jpg,right,715.490000002319,true,high,NA,NA,NA,NA,NA,NA,NA,false
maUzpPpV,3p7qk0gj4wyyvhrnruxexlrqk8i2zm,3aqf3rz55cvivlhi4mkc9qobdd66fn,maUzpPpV,2020-0188,2020-06-16,12:42:25,13:02:13,NA,incomplete,130,gender,2,1,right,A_M_01.jpg,A_F_07.jpg,C_M_14.jpg,right,831.6399999894202,true,high,NA,NA,NA,NA,NA,NA,NA,false
maUzpPpV,3p7qk0gj4wyyvhrnruxexlrqk8i2zm,3aqf3rz55cvivlhi4mkc9qobdd66fn,maUzpPpV,2020-0188,2020-06-16,12:42:25,13:02:13,NA,incomplete,131,gender,2,1,left,A_F_15.jpg,C_F_12.jpg,A_M_04.jpg,left,893.6150000081398,true,high,NA,NA,NA,NA,NA,NA,NA,false
maUzpPpV,3p7qk0gj4wyyvhrnruxexlrqk8i2zm,3aqf3rz55cvivlhi4mkc9qobdd66fn,maUzpPpV,2020-0188,2020-06-16,12:42:25,13:02:13,NA,incomplete,132,gender,2,1,right,C_F_08.jpg,C_M_09.jpg,A_F_14.jpg,right,701.7950000008568,true,high,NA,NA,NA,NA,NA,NA,NA,false
maUzpPpV,3p7qk0gj4wyyvhrnruxexlrqk8i2zm,3aqf3rz55cvivlhi4mkc9qobdd66fn,maUzpPpV,2020-0188,2020-06-16,12:42:25,13:02:13,NA,incomplete,133,gender,2,1,left,C_M_11.jpg,A_M_03.jpg,C_F_08.jpg,left,1207.9000000085216,true,high,NA,NA,NA,NA,NA,NA,NA,false
maUzpPpV,3p7qk0gj4wyyvhrnruxexlrqk8i2zm,3aqf3rz55cvivlhi4mkc9qobdd66fn,maUzpPpV,2020-0188,2020-06-16,12:42:25,13:02:13,NA,incomplete,134,gender,2,1,left,C_F_16.jpg,A_F_05.jpg,C_M_13.jpg,left,991.8849999958184,true,high,NA,NA,NA,NA,NA,NA,NA,false
maUzpPpV,3p7qk0gj4wyyvhrnruxexlrqk8i2zm,3aqf3rz55cvivlhi4mkc9qobdd66fn,maUzpPpV,2020-0188,2020-06-16,12:42:25,13:02:13,NA,incomplete,135,gender,2,1,left,A_F_16.jpg,C_F_05.jpg,A_M_06.jpg,left,670.0150000106078,true,high,NA,NA,NA,NA,NA,NA,NA,false
maUzpPpV,3p7qk0gj4wyyvhrnruxexlrqk8i2zm,3aqf3rz55cvivlhi4mkc9qobdd66fn,maUzpPpV,2020-0188,2020-06-16,12:42:25,13:02:13,NA,incomplete,136,gender,2,0,left,A_F_10.jpg,C_F_14.jpg,A_M_16.jpg,left,651.1200000240933,true,high,NA,NA,NA,NA,NA,NA,NA,false
maUzpPpV,3p7qk0gj4wyyvhrnruxexlrqk8i2zm,3aqf3rz55cvivlhi4mkc9qobdd66fn,maUzpPpV,2020-0188,2020-06-16,12:42:25,13:02:13,NA,incomplete,137,gender,2,1,left,C_F_11.jpg,A_F_09.jpg,C_M_04.jpg,left,1345.0299999967683,true,high,NA,NA,NA,NA,NA,NA,NA,false
maUzpPpV,3p7qk0gj4wyyvhrnruxexlrqk8i2zm,3aqf3rz55cvivlhi4mkc9qobdd66fn,maUzpPpV,2020-0188,2020-06-16,12:42:25,13:02:13,NA,incomplete,138,gender,2,0,right,A_M_07.jpg,A_F_06.jpg,C_M_08.jpg,right,1005.1899999962188,true,high,NA,NA,NA,NA,NA,NA,NA,false
maUzpPpV,3p7qk0gj4wyyvhrnruxexlrqk8i2zm,3aqf3rz55cvivlhi4mkc9qobdd66fn,maUzpPpV,2020-0188,2020-06-16,12:42:25,13:02:13,NA,incomplete,139,gender,2,1,right,C_F_03.jpg,C_M_16.jpg,A_F_11.jpg,right,910.8899999991991,true,high,NA,NA,NA,NA,NA,NA,NA,false
maUzpPpV,3p7qk0gj4wyyvhrnruxexlrqk8i2zm,3aqf3rz55cvivlhi4mkc9qobdd66fn,maUzpPpV,2020-0188,2020-06-16,12:42:25,13:02:13,NA,incomplete,140,race,3,0,left,C_M_11.jpg,C_F_12.jpg,A_M_08.jpg,right,839.3999999971129,false,high,NA,NA,NA,NA,NA,NA,NA,false
maUzpPpV,3p7qk0gj4wyyvhrnruxexlrqk8i2zm,3aqf3rz55cvivlhi4mkc9qobdd66fn,maUzpPpV,2020-0188,2020-06-16,12:42:25,13:02:13,NA,incomplete,141,race,3,1,left,A_F_02.jpg,A_M_11.jpg,C_F_10.jpg,right,848.519999999553,false,high,NA,NA,NA,NA,NA,NA,NA,false
maUzpPpV,3p7qk0gj4wyyvhrnruxexlrqk8i2zm,3aqf3rz55cvivlhi4mkc9qobdd66fn,maUzpPpV,2020-0188,2020-06-16,12:42:25,13:02:13,NA,incomplete,142,race,3,1,left,A_M_10.jpg,A_F_16.jpg,C_M_01.jpg,right,967.5400000123773,false,high,NA,NA,NA,NA,NA,NA,NA,false
maUzpPpV,3p7qk0gj4wyyvhrnruxexlrqk8i2zm,3aqf3rz55cvivlhi4mkc9qobdd66fn,maUzpPpV,2020-0188,2020-06-16,12:42:25,13:02:13,NA,incomplete,143,race,3,1,right,A_F_09.jpg,C_F_05.jpg,A_M_10.jpg,right,1226.009999983944,true,high,NA,NA,NA,NA,NA,NA,NA,false
maUzpPpV,3p7qk0gj4wyyvhrnruxexlrqk8i2zm,3aqf3rz55cvivlhi4mkc9qobdd66fn,maUzpPpV,2020-0188,2020-06-16,12:42:25,13:02:13,NA,incomplete,144,race,3,1,left,C_M_07.jpg,C_F_13.jpg,A_M_03.jpg,left,977.6150000107009,true,high,NA,NA,NA,NA,NA,NA,NA,false
maUzpPpV,3p7qk0gj4wyyvhrnruxexlrqk8i2zm,3aqf3rz55cvivlhi4mkc9qobdd66fn,maUzpPpV,2020-0188,2020-06-16,12:42:25,13:02:13,NA,incomplete,145,race,3,1,left,A_F_04.jpg,A_M_12.jpg,C_F_14.jpg,left,1127.054999989923,true,high,NA,NA,NA,NA,NA,NA,NA,false
maUzpPpV,3p7qk0gj4wyyvhrnruxexlrqk8i2zm,3aqf3rz55cvivlhi4mkc9qobdd66fn,maUzpPpV,2020-0188,2020-06-16,12:42:25,13:02:13,NA,incomplete,146,race,3,1,right,C_F_08.jpg,A_F_10.jpg,C_M_09.jpg,right,832.829999999376,true,high,NA,NA,NA,NA,NA,NA,NA,false
maUzpPpV,3p7qk0gj4wyyvhrnruxexlrqk8i2zm,3aqf3rz55cvivlhi4mkc9qobdd66fn,maUzpPpV,2020-0188,2020-06-16,12:42:25,13:02:13,NA,incomplete,147,race,3,1,right,C_M_13.jpg,A_M_05.jpg,C_F_06.jpg,right,797.4300000059884,true,high,NA,NA,NA,NA,NA,NA,NA,false
maUzpPpV,3p7qk0gj4wyyvhrnruxexlrqk8i2zm,3aqf3rz55cvivlhi4mkc9qobdd66fn,maUzpPpV,2020-0188,2020-06-16,12:42:25,13:02:13,NA,incomplete,148,race,3,0,right,A_M_10.jpg,C_M_07.jpg,A_F_02.jpg,right,763.8749999750871,true,high,NA,NA,NA,NA,NA,NA,NA,false
maUzpPpV,3p7qk0gj4wyyvhrnruxexlrqk8i2zm,3aqf3rz55cvivlhi4mkc9qobdd66fn,maUzpPpV,2020-0188,2020-06-16,12:42:25,13:02:13,NA,incomplete,149,race,3,1,right,C_M_10.jpg,A_M_08.jpg,C_F_06.jpg,right,1375.6850000063423,true,high,NA,NA,NA,NA,NA,NA,NA,false
maUzpPpV,3p7qk0gj4wyyvhrnruxexlrqk8i2zm,3aqf3rz55cvivlhi4mkc9qobdd66fn,maUzpPpV,2020-0188,2020-06-16,12:42:25,13:02:13,NA,incomplete,150,race,3,1,left,C_F_12.jpg,C_M_13.jpg,A_F_08.jpg,left,794.2700000130571,true,high,NA,NA,NA,NA,NA,NA,NA,false
maUzpPpV,3p7qk0gj4wyyvhrnruxexlrqk8i2zm,3aqf3rz55cvivlhi4mkc9qobdd66fn,maUzpPpV,2020-0188,2020-06-16,12:42:25,13:02:13,NA,incomplete,151,race,3,1,left,C_F_12.jpg,C_M_01.jpg,A_F_05.jpg,left,750.0299999956042,true,high,NA,NA,NA,NA,NA,NA,NA,false
maUzpPpV,3p7qk0gj4wyyvhrnruxexlrqk8i2zm,3aqf3rz55cvivlhi4mkc9qobdd66fn,maUzpPpV,2020-0188,2020-06-16,12:42:25,13:02:13,NA,incomplete,152,race,3,1,right,C_F_10.jpg,A_F_12.jpg,C_M_15.jpg,right,853.625000017928,true,high,NA,NA,NA,NA,NA,NA,NA,false
maUzpPpV,3p7qk0gj4wyyvhrnruxexlrqk8i2zm,3aqf3rz55cvivlhi4mkc9qobdd66fn,maUzpPpV,2020-0188,2020-06-16,12:42:25,13:02:13,NA,incomplete,153,race,3,1,left,A_F_04.jpg,A_M_13.jpg,C_F_10.jpg,left,961.4350000047125,true,high,NA,NA,NA,NA,NA,NA,NA,false
maUzpPpV,3p7qk0gj4wyyvhrnruxexlrqk8i2zm,3aqf3rz55cvivlhi4mkc9qobdd66fn,maUzpPpV,2020-0188,2020-06-16,12:42:25,13:02:13,NA,incomplete,154,race,3,1,right,C_F_10.jpg,A_F_06.jpg,C_M_08.jpg,right,723.31000000122,true,high,NA,NA,NA,NA,NA,NA,NA,false
maUzpPpV,3p7qk0gj4wyyvhrnruxexlrqk8i2zm,3aqf3rz55cvivlhi4mkc9qobdd66fn,maUzpPpV,2020-0188,2020-06-16,12:42:25,13:02:13,NA,incomplete,155,race,3,0,left,C_F_10.jpg,C_M_12.jpg,A_F_01.jpg,left,954.3999999877997,true,high,NA,NA,NA,NA,NA,NA,NA,false
maUzpPpV,3p7qk0gj4wyyvhrnruxexlrqk8i2zm,3aqf3rz55cvivlhi4mkc9qobdd66fn,maUzpPpV,2020-0188,2020-06-16,12:42:25,13:02:13,NA,incomplete,156,race,3,1,right,A_M_14.jpg,C_M_13.jpg,A_F_09.jpg,right,1028.115000022808,true,high,NA,NA,NA,NA,NA,NA,NA,false
maUzpPpV,3p7qk0gj4wyyvhrnruxexlrqk8i2zm,3aqf3rz55cvivlhi4mkc9qobdd66fn,maUzpPpV,2020-0188,2020-06-16,12:42:25,13:02:13,NA,incomplete,157,race,3,0,right,A_M_03.jpg,C_M_09.jpg,A_F_15.jpg,right,761.2499999813735,true,high,NA,NA,NA,NA,NA,NA,NA,false
maUzpPpV,3p7qk0gj4wyyvhrnruxexlrqk8i2zm,3aqf3rz55cvivlhi4mkc9qobdd66fn,maUzpPpV,2020-0188,2020-06-16,12:42:25,13:02:13,NA,incomplete,158,race,3,1,right,C_F_02.jpg,A_F_11.jpg,C_M_16.jpg,right,821.3400000240654,true,high,NA,NA,NA,NA,NA,NA,NA,false
maUzpPpV,3p7qk0gj4wyyvhrnruxexlrqk8i2zm,3aqf3rz55cvivlhi4mkc9qobdd66fn,maUzpPpV,2020-0188,2020-06-16,12:42:25,13:02:13,NA,incomplete,159,race,3,1,right,C_F_12.jpg,A_F_14.jpg,C_M_09.jpg,right,730.0650000106543,true,high,NA,NA,NA,NA,NA,NA,NA,false
maUzpPpV,3p7qk0gj4wyyvhrnruxexlrqk8i2zm,3aqf3rz55cvivlhi4mkc9qobdd66fn,maUzpPpV,2020-0188,2020-06-16,12:42:25,13:02:13,NA,incomplete,160,gender,2,1,left,A_M_06.jpg,C_M_05.jpg,A_F_13.jpg,right,746.1699999985285,false,high,NA,NA,NA,NA,NA,NA,NA,false
maUzpPpV,3p7qk0gj4wyyvhrnruxexlrqk8i2zm,3aqf3rz55cvivlhi4mkc9qobdd66fn,maUzpPpV,2020-0188,2020-06-16,12:42:25,13:02:13,NA,incomplete,161,gender,2,0,right,A_M_03.jpg,A_F_15.jpg,C_M_08.jpg,left,918.3149999880698,false,high,NA,NA,NA,NA,NA,NA,NA,false
maUzpPpV,3p7qk0gj4wyyvhrnruxexlrqk8i2zm,3aqf3rz55cvivlhi4mkc9qobdd66fn,maUzpPpV,2020-0188,2020-06-16,12:42:25,13:02:13,NA,incomplete,162,gender,2,1,right,C_M_09.jpg,C_F_07.jpg,A_M_10.jpg,left,918.6899999913294,false,high,NA,NA,NA,NA,NA,NA,NA,false
maUzpPpV,3p7qk0gj4wyyvhrnruxexlrqk8i2zm,3aqf3rz55cvivlhi4mkc9qobdd66fn,maUzpPpV,2020-0188,2020-06-16,12:42:25,13:02:13,NA,incomplete,163,gender,2,0,right,C_M_12.jpg,C_F_01.jpg,A_M_11.jpg,right,1321.590000006836,true,high,NA,NA,NA,NA,NA,NA,NA,false
maUzpPpV,3p7qk0gj4wyyvhrnruxexlrqk8i2zm,3aqf3rz55cvivlhi4mkc9qobdd66fn,maUzpPpV,2020-0188,2020-06-16,12:42:25,13:02:13,NA,incomplete,164,gender,2,1,right,A_F_12.jpg,A_M_04.jpg,C_F_13.jpg,left,1279.5099999930244,false,high,NA,NA,NA,NA,NA,NA,NA,false
maUzpPpV,3p7qk0gj4wyyvhrnruxexlrqk8i2zm,3aqf3rz55cvivlhi4mkc9qobdd66fn,maUzpPpV,2020-0188,2020-06-16,12:42:25,13:02:13,NA,incomplete,165,gender,2,1,left,A_F_02.jpg,C_F_03.jpg,A_M_13.jpg,right,1082.8050000127405,false,high,NA,NA,NA,NA,NA,NA,NA,false
maUzpPpV,3p7qk0gj4wyyvhrnruxexlrqk8i2zm,3aqf3rz55cvivlhi4mkc9qobdd66fn,maUzpPpV,2020-0188,2020-06-16,12:42:25,13:02:13,NA,incomplete,166,gender,2,0,right,C_M_05.jpg,C_F_03.jpg,A_M_04.jpg,right,833.0149999819696,true,high,NA,NA,NA,NA,NA,NA,NA,false
maUzpPpV,3p7qk0gj4wyyvhrnruxexlrqk8i2zm,3aqf3rz55cvivlhi4mkc9qobdd66fn,maUzpPpV,2020-0188,2020-06-16,12:42:25,13:02:13,NA,incomplete,167,gender,2,1,right,A_M_15.jpg,A_F_05.jpg,C_M_12.jpg,right,964.2100000055507,true,high,NA,NA,NA,NA,NA,NA,NA,false
maUzpPpV,3p7qk0gj4wyyvhrnruxexlrqk8i2zm,3aqf3rz55cvivlhi4mkc9qobdd66fn,maUzpPpV,2020-0188,2020-06-16,12:42:25,13:02:13,NA,incomplete,168,gender,2,1,left,C_F_03.jpg,A_F_04.jpg,C_M_07.jpg,left,681.7499999888241,true,high,NA,NA,NA,NA,NA,NA,NA,false
maUzpPpV,3p7qk0gj4wyyvhrnruxexlrqk8i2zm,3aqf3rz55cvivlhi4mkc9qobdd66fn,maUzpPpV,2020-0188,2020-06-16,12:42:25,13:02:13,NA,incomplete,169,gender,2,1,right,A_M_03.jpg,A_F_04.jpg,C_M_06.jpg,right,1092.7999999839813,true,high,NA,NA,NA,NA,NA,NA,NA,false
maUzpPpV,3p7qk0gj4wyyvhrnruxexlrqk8i2zm,3aqf3rz55cvivlhi4mkc9qobdd66fn,maUzpPpV,2020-0188,2020-06-16,12:42:25,13:02:13,NA,incomplete,170,gender,2,1,left,C_F_05.jpg,A_F_02.jpg,C_M_14.jpg,left,1126.4800000062678,true,high,NA,NA,NA,NA,NA,NA,NA,false
maUzpPpV,3p7qk0gj4wyyvhrnruxexlrqk8i2zm,3aqf3rz55cvivlhi4mkc9qobdd66fn,maUzpPpV,2020-0188,2020-06-16,12:42:25,13:02:13,NA,incomplete,171,gender,2,1,left,C_F_07.jpg,A_F_10.jpg,C_M_01.jpg,left,745.2349999803118,true,high,NA,NA,NA,NA,NA,NA,NA,false
maUzpPpV,3p7qk0gj4wyyvhrnruxexlrqk8i2zm,3aqf3rz55cvivlhi4mkc9qobdd66fn,maUzpPpV,2020-0188,2020-06-16,12:42:25,13:02:13,NA,incomplete,172,gender,2,1,right,A_F_07.jpg,A_M_16.jpg,C_F_03.jpg,right,778.0199999979232,true,high,NA,NA,NA,NA,NA,NA,NA,false
maUzpPpV,3p7qk0gj4wyyvhrnruxexlrqk8i2zm,3aqf3rz55cvivlhi4mkc9qobdd66fn,maUzpPpV,2020-0188,2020-06-16,12:42:25,13:02:13,NA,incomplete,173,gender,2,1,left,A_F_01.jpg,C_F_06.jpg,A_M_05.jpg,left,653.2700000097975,true,high,NA,NA,NA,NA,NA,NA,NA,false
maUzpPpV,3p7qk0gj4wyyvhrnruxexlrqk8i2zm,3aqf3rz55cvivlhi4mkc9qobdd66fn,maUzpPpV,2020-0188,2020-06-16,12:42:25,13:02:13,NA,incomplete,174,gender,2,1,right,C_M_03.jpg,C_F_13.jpg,A_M_15.jpg,right,788.7449999980163,true,high,NA,NA,NA,NA,NA,NA,NA,false
maUzpPpV,3p7qk0gj4wyyvhrnruxexlrqk8i2zm,3aqf3rz55cvivlhi4mkc9qobdd66fn,maUzpPpV,2020-0188,2020-06-16,12:42:25,13:02:13,NA,incomplete,175,gender,2,1,right,C_M_09.jpg,C_F_11.jpg,A_M_14.jpg,right,929.839999997057,true,high,NA,NA,NA,NA,NA,NA,NA,false
maUzpPpV,3p7qk0gj4wyyvhrnruxexlrqk8i2zm,3aqf3rz55cvivlhi4mkc9qobdd66fn,maUzpPpV,2020-0188,2020-06-16,12:42:25,13:02:13,NA,incomplete,176,gender,2,1,right,C_M_14.jpg,C_F_05.jpg,A_M_02.jpg,right,910.9400000015739,true,high,NA,NA,NA,NA,NA,NA,NA,false
maUzpPpV,3p7qk0gj4wyyvhrnruxexlrqk8i2zm,3aqf3rz55cvivlhi4mkc9qobdd66fn,maUzpPpV,2020-0188,2020-06-16,12:42:25,13:02:13,NA,incomplete,177,gender,2,1,right,C_F_01.jpg,C_M_05.jpg,A_F_06.jpg,left,1437.0800000033341,false,high,NA,NA,NA,NA,NA,NA,NA,false
maUzpPpV,3p7qk0gj4wyyvhrnruxexlrqk8i2zm,3aqf3rz55cvivlhi4mkc9qobdd66fn,maUzpPpV,2020-0188,2020-06-16,12:42:25,13:02:13,NA,incomplete,178,gender,2,0,left,A_F_15.jpg,C_F_09.jpg,A_M_13.jpg,left,709.4600000127684,true,high,NA,NA,NA,NA,NA,NA,NA,false
maUzpPpV,3p7qk0gj4wyyvhrnruxexlrqk8i2zm,3aqf3rz55cvivlhi4mkc9qobdd66fn,maUzpPpV,2020-0188,2020-06-16,12:42:25,13:02:13,NA,incomplete,179,gender,2,1,right,A_F_01.jpg,A_M_15.jpg,C_F_06.jpg,right,573.385000025155,true,high,NA,NA,NA,NA,NA,NA,NA,false
maUzpPpV,3p7qk0gj4wyyvhrnruxexlrqk8i2zm,3aqf3rz55cvivlhi4mkc9qobdd66fn,maUzpPpV,2020-0188,2020-06-16,12:42:25,13:02:13,NA,incomplete,180,race,3,1,right,C_M_03.jpg,A_M_04.jpg,C_F_11.jpg,left,728.8050000206567,false,high,NA,NA,NA,NA,NA,NA,NA,false
maUzpPpV,3p7qk0gj4wyyvhrnruxexlrqk8i2zm,3aqf3rz55cvivlhi4mkc9qobdd66fn,maUzpPpV,2020-0188,2020-06-16,12:42:25,13:02:13,NA,incomplete,181,race,3,1,left,C_M_07.jpg,C_F_08.jpg,A_M_04.jpg,right,686.9749999896158,false,high,NA,NA,NA,NA,NA,NA,NA,false
maUzpPpV,3p7qk0gj4wyyvhrnruxexlrqk8i2zm,3aqf3rz55cvivlhi4mkc9qobdd66fn,maUzpPpV,2020-0188,2020-06-16,12:42:25,13:02:13,NA,incomplete,182,race,3,0,left,A_F_15.jpg,A_M_02.jpg,C_F_10.jpg,left,785.329999984242,true,high,NA,NA,NA,NA,NA,NA,NA,false
maUzpPpV,3p7qk0gj4wyyvhrnruxexlrqk8i2zm,3aqf3rz55cvivlhi4mkc9qobdd66fn,maUzpPpV,2020-0188,2020-06-16,12:42:25,13:02:13,NA,incomplete,183,race,3,1,right,C_M_10.jpg,A_M_13.jpg,C_F_12.jpg,right,1156.264999997802,true,high,NA,NA,NA,NA,NA,NA,NA,false
maUzpPpV,3p7qk0gj4wyyvhrnruxexlrqk8i2zm,3aqf3rz55cvivlhi4mkc9qobdd66fn,maUzpPpV,2020-0188,2020-06-16,12:42:25,13:02:13,NA,incomplete,184,race,3,0,left,C_F_14.jpg,C_M_04.jpg,A_F_08.jpg,left,775.7949999941047,true,high,NA,NA,NA,NA,NA,NA,NA,false
maUzpPpV,3p7qk0gj4wyyvhrnruxexlrqk8i2zm,3aqf3rz55cvivlhi4mkc9qobdd66fn,maUzpPpV,2020-0188,2020-06-16,12:42:25,13:02:13,NA,incomplete,185,race,3,1,left,C_M_16.jpg,C_F_06.jpg,A_M_08.jpg,left,1023.9849999779835,true,high,NA,NA,NA,NA,NA,NA,NA,false
maUzpPpV,3p7qk0gj4wyyvhrnruxexlrqk8i2zm,3aqf3rz55cvivlhi4mkc9qobdd66fn,maUzpPpV,2020-0188,2020-06-16,12:42:25,13:02:13,NA,incomplete,186,race,3,0,right,C_F_08.jpg,A_F_10.jpg,C_M_13.jpg,right,820.5949999974109,true,high,NA,NA,NA,NA,NA,NA,NA,false
maUzpPpV,3p7qk0gj4wyyvhrnruxexlrqk8i2zm,3aqf3rz55cvivlhi4mkc9qobdd66fn,maUzpPpV,2020-0188,2020-06-16,12:42:25,13:02:13,NA,incomplete,187,race,3,1,left,A_M_06.jpg,A_F_10.jpg,C_M_03.jpg,left,957.8800000017509,true,high,NA,NA,NA,NA,NA,NA,NA,false
maUzpPpV,3p7qk0gj4wyyvhrnruxexlrqk8i2zm,3aqf3rz55cvivlhi4mkc9qobdd66fn,maUzpPpV,2020-0188,2020-06-16,12:42:25,13:02:13,NA,incomplete,188,race,3,1,right,C_F_14.jpg,A_F_12.jpg,C_M_08.jpg,right,785.8800000103656,true,high,NA,NA,NA,NA,NA,NA,NA,false
maUzpPpV,3p7qk0gj4wyyvhrnruxexlrqk8i2zm,3aqf3rz55cvivlhi4mkc9qobdd66fn,maUzpPpV,2020-0188,2020-06-16,12:42:25,13:02:13,NA,incomplete,189,race,3,1,right,C_F_14.jpg,A_F_02.jpg,C_M_05.jpg,right,880.5450000218116,true,high,NA,NA,NA,NA,NA,NA,NA,false
maUzpPpV,3p7qk0gj4wyyvhrnruxexlrqk8i2zm,3aqf3rz55cvivlhi4mkc9qobdd66fn,maUzpPpV,2020-0188,2020-06-16,12:42:25,13:02:13,NA,incomplete,190,race,3,1,right,A_F_12.jpg,C_F_08.jpg,A_M_11.jpg,right,932.4999999953434,true,high,NA,NA,NA,NA,NA,NA,NA,false
maUzpPpV,3p7qk0gj4wyyvhrnruxexlrqk8i2zm,3aqf3rz55cvivlhi4mkc9qobdd66fn,maUzpPpV,2020-0188,2020-06-16,12:42:25,13:02:13,NA,incomplete,191,race,3,1,right,C_F_05.jpg,A_F_13.jpg,C_M_16.jpg,right,1056.5650000062305,true,high,NA,NA,NA,NA,NA,NA,NA,false
maUzpPpV,3p7qk0gj4wyyvhrnruxexlrqk8i2zm,3aqf3rz55cvivlhi4mkc9qobdd66fn,maUzpPpV,2020-0188,2020-06-16,12:42:25,13:02:13,NA,incomplete,192,race,3,1,right,A_F_11.jpg,C_F_06.jpg,A_M_07.jpg,right,937.5700000091456,true,high,NA,NA,NA,NA,NA,NA,NA,false
maUzpPpV,3p7qk0gj4wyyvhrnruxexlrqk8i2zm,3aqf3rz55cvivlhi4mkc9qobdd66fn,maUzpPpV,2020-0188,2020-06-16,12:42:25,13:02:13,NA,incomplete,193,race,3,0,right,A_M_04.jpg,C_M_12.jpg,A_F_16.jpg,right,845.6949999963399,true,high,NA,NA,NA,NA,NA,NA,NA,false
maUzpPpV,3p7qk0gj4wyyvhrnruxexlrqk8i2zm,3aqf3rz55cvivlhi4mkc9qobdd66fn,maUzpPpV,2020-0188,2020-06-16,12:42:25,13:02:13,NA,incomplete,194,race,3,1,left,A_F_11.jpg,A_M_03.jpg,C_F_10.jpg,left,1104.940000019269,true,high,NA,NA,NA,NA,NA,NA,NA,false
maUzpPpV,3p7qk0gj4wyyvhrnruxexlrqk8i2zm,3aqf3rz55cvivlhi4mkc9qobdd66fn,maUzpPpV,2020-0188,2020-06-16,12:42:25,13:02:13,NA,incomplete,195,race,3,1,left,A_M_15.jpg,A_F_13.jpg,C_M_16.jpg,left,810.8999999822117,true,high,NA,NA,NA,NA,NA,NA,NA,false
maUzpPpV,3p7qk0gj4wyyvhrnruxexlrqk8i2zm,3aqf3rz55cvivlhi4mkc9qobdd66fn,maUzpPpV,2020-0188,2020-06-16,12:42:25,13:02:13,NA,incomplete,196,race,3,1,right,C_F_11.jpg,A_F_01.jpg,C_M_03.jpg,right,1081.8049999943469,true,high,NA,NA,NA,NA,NA,NA,NA,false
maUzpPpV,3p7qk0gj4wyyvhrnruxexlrqk8i2zm,3aqf3rz55cvivlhi4mkc9qobdd66fn,maUzpPpV,2020-0188,2020-06-16,12:42:25,13:02:13,NA,incomplete,197,race,3,1,right,C_F_04.jpg,A_F_02.jpg,C_M_06.jpg,right,860.080000013113,true,high,NA,NA,NA,NA,NA,NA,NA,false
maUzpPpV,3p7qk0gj4wyyvhrnruxexlrqk8i2zm,3aqf3rz55cvivlhi4mkc9qobdd66fn,maUzpPpV,2020-0188,2020-06-16,12:42:25,13:02:13,NA,incomplete,198,race,3,1,right,C_M_06.jpg,A_M_11.jpg,C_F_16.jpg,right,934.2950000136625,true,high,NA,NA,NA,NA,NA,NA,NA,false
maUzpPpV,3p7qk0gj4wyyvhrnruxexlrqk8i2zm,3aqf3rz55cvivlhi4mkc9qobdd66fn,maUzpPpV,2020-0188,2020-06-16,12:42:25,13:02:13,NA,incomplete,199,race,3,1,right,C_F_15.jpg,A_F_02.jpg,C_M_05.jpg,right,919.6899999806192,true,high,NA,NA,NA,NA,NA,NA,NA,false
maUzpPpV,3p7qk0gj4wyyvhrnruxexlrqk8i2zm,3aqf3rz55cvivlhi4mkc9qobdd66fn,maUzpPpV,2020-0188,2020-06-16,12:42:25,13:02:13,NA,incomplete,200,gender,2,1,right,C_M_16.jpg,C_F_14.jpg,A_M_04.jpg,left,733.2950000127312,false,high,NA,NA,NA,NA,NA,NA,NA,false
maUzpPpV,3p7qk0gj4wyyvhrnruxexlrqk8i2zm,3aqf3rz55cvivlhi4mkc9qobdd66fn,maUzpPpV,2020-0188,2020-06-16,12:42:25,13:02:13,NA,incomplete,201,gender,2,1,right,C_M_08.jpg,C_F_09.jpg,A_M_01.jpg,left,991.6800000064541,false,high,NA,NA,NA,NA,NA,NA,NA,false
maUzpPpV,3p7qk0gj4wyyvhrnruxexlrqk8i2zm,3aqf3rz55cvivlhi4mkc9qobdd66fn,maUzpPpV,2020-0188,2020-06-16,12:42:25,13:02:13,NA,incomplete,202,gender,2,1,left,A_F_13.jpg,C_F_16.jpg,A_M_02.jpg,left,1216.3900000159629,true,high,NA,NA,NA,NA,NA,NA,NA,false
maUzpPpV,3p7qk0gj4wyyvhrnruxexlrqk8i2zm,3aqf3rz55cvivlhi4mkc9qobdd66fn,maUzpPpV,2020-0188,2020-06-16,12:42:25,13:02:13,NA,incomplete,203,gender,2,1,right,C_F_16.jpg,C_M_05.jpg,A_F_08.jpg,right,848.1549999851268,true,high,NA,NA,NA,NA,NA,NA,NA,false
maUzpPpV,3p7qk0gj4wyyvhrnruxexlrqk8i2zm,3aqf3rz55cvivlhi4mkc9qobdd66fn,maUzpPpV,2020-0188,2020-06-16,12:42:25,13:02:13,NA,incomplete,204,gender,2,1,right,C_F_01.jpg,C_M_16.jpg,A_F_14.jpg,right,776.590000023134,true,high,NA,NA,NA,NA,NA,NA,NA,false
maUzpPpV,3p7qk0gj4wyyvhrnruxexlrqk8i2zm,3aqf3rz55cvivlhi4mkc9qobdd66fn,maUzpPpV,2020-0188,2020-06-16,12:42:25,13:02:13,NA,incomplete,205,gender,2,1,right,A_F_09.jpg,A_M_12.jpg,C_F_06.jpg,right,1453.2450000115205,true,high,NA,NA,NA,NA,NA,NA,NA,false
maUzpPpV,3p7qk0gj4wyyvhrnruxexlrqk8i2zm,3aqf3rz55cvivlhi4mkc9qobdd66fn,maUzpPpV,2020-0188,2020-06-16,12:42:25,13:02:13,NA,incomplete,206,gender,2,0,left,A_M_12.jpg,C_M_16.jpg,A_F_07.jpg,left,1423.5150000022259,true,high,NA,NA,NA,NA,NA,NA,NA,false
maUzpPpV,3p7qk0gj4wyyvhrnruxexlrqk8i2zm,3aqf3rz55cvivlhi4mkc9qobdd66fn,maUzpPpV,2020-0188,2020-06-16,12:42:25,13:02:13,NA,incomplete,207,gender,2,1,left,C_F_02.jpg,A_F_08.jpg,C_M_04.jpg,left,1324.8899999889545,true,high,NA,NA,NA,NA,NA,NA,NA,false
maUzpPpV,3p7qk0gj4wyyvhrnruxexlrqk8i2zm,3aqf3rz55cvivlhi4mkc9qobdd66fn,maUzpPpV,2020-0188,2020-06-16,12:42:25,13:02:13,NA,incomplete,208,gender,2,0,right,A_M_13.jpg,A_F_15.jpg,C_M_11.jpg,right,743.0049999966286,true,high,NA,NA,NA,NA,NA,NA,NA,false
maUzpPpV,3p7qk0gj4wyyvhrnruxexlrqk8i2zm,3aqf3rz55cvivlhi4mkc9qobdd66fn,maUzpPpV,2020-0188,2020-06-16,12:42:25,13:02:13,NA,incomplete,209,gender,2,1,right,C_M_04.jpg,C_F_11.jpg,A_M_15.jpg,right,1009.0350000245962,true,high,NA,NA,NA,NA,NA,NA,NA,false
maUzpPpV,3p7qk0gj4wyyvhrnruxexlrqk8i2zm,3aqf3rz55cvivlhi4mkc9qobdd66fn,maUzpPpV,2020-0188,2020-06-16,12:42:25,13:02:13,NA,incomplete,210,gender,2,0,right,C_M_06.jpg,C_F_05.jpg,A_M_01.jpg,right,1046.5599999879487,true,high,NA,NA,NA,NA,NA,NA,NA,false
maUzpPpV,3p7qk0gj4wyyvhrnruxexlrqk8i2zm,3aqf3rz55cvivlhi4mkc9qobdd66fn,maUzpPpV,2020-0188,2020-06-16,12:42:25,13:02:13,NA,incomplete,211,gender,2,1,left,A_F_01.jpg,C_F_07.jpg,A_M_05.jpg,left,1206.5350000048056,true,high,NA,NA,NA,NA,NA,NA,NA,false
maUzpPpV,3p7qk0gj4wyyvhrnruxexlrqk8i2zm,3aqf3rz55cvivlhi4mkc9qobdd66fn,maUzpPpV,2020-0188,2020-06-16,12:42:25,13:02:13,NA,incomplete,212,gender,2,1,left,C_M_16.jpg,A_M_01.jpg,C_F_13.jpg,left,818.1949999998324,true,high,NA,NA,NA,NA,NA,NA,NA,false
maUzpPpV,3p7qk0gj4wyyvhrnruxexlrqk8i2zm,3aqf3rz55cvivlhi4mkc9qobdd66fn,maUzpPpV,2020-0188,2020-06-16,12:42:25,13:02:13,NA,incomplete,213,gender,2,1,right,C_M_03.jpg,C_F_09.jpg,A_M_05.jpg,right,677.5550000020303,true,high,NA,NA,NA,NA,NA,NA,NA,false
maUzpPpV,3p7qk0gj4wyyvhrnruxexlrqk8i2zm,3aqf3rz55cvivlhi4mkc9qobdd66fn,maUzpPpV,2020-0188,2020-06-16,12:42:25,13:02:13,NA,incomplete,214,gender,2,1,right,A_F_06.jpg,A_M_10.jpg,C_F_04.jpg,right,820.754999993369,true,high,NA,NA,NA,NA,NA,NA,NA,false
maUzpPpV,3p7qk0gj4wyyvhrnruxexlrqk8i2zm,3aqf3rz55cvivlhi4mkc9qobdd66fn,maUzpPpV,2020-0188,2020-06-16,12:42:25,13:02:13,NA,incomplete,215,gender,2,0,left,A_M_13.jpg,C_M_11.jpg,A_F_02.jpg,left,646.8150000146125,true,high,NA,NA,NA,NA,NA,NA,NA,false
maUzpPpV,3p7qk0gj4wyyvhrnruxexlrqk8i2zm,3aqf3rz55cvivlhi4mkc9qobdd66fn,maUzpPpV,2020-0188,2020-06-16,12:42:25,13:02:13,NA,incomplete,216,gender,2,1,right,A_M_09.jpg,A_F_06.jpg,C_M_07.jpg,right,836.4950000250246,true,high,NA,NA,NA,NA,NA,NA,NA,false
maUzpPpV,3p7qk0gj4wyyvhrnruxexlrqk8i2zm,3aqf3rz55cvivlhi4mkc9qobdd66fn,maUzpPpV,2020-0188,2020-06-16,12:42:25,13:02:13,NA,incomplete,217,gender,2,1,right,A_M_06.jpg,A_F_15.jpg,C_M_16.jpg,right,742.2699999879114,true,high,NA,NA,NA,NA,NA,NA,NA,false
maUzpPpV,3p7qk0gj4wyyvhrnruxexlrqk8i2zm,3aqf3rz55cvivlhi4mkc9qobdd66fn,maUzpPpV,2020-0188,2020-06-16,12:42:25,13:02:13,NA,incomplete,218,gender,2,1,left,C_F_15.jpg,A_F_12.jpg,C_M_03.jpg,left,573.4800000209361,true,high,NA,NA,NA,NA,NA,NA,NA,false
maUzpPpV,3p7qk0gj4wyyvhrnruxexlrqk8i2zm,3aqf3rz55cvivlhi4mkc9qobdd66fn,maUzpPpV,2020-0188,2020-06-16,12:42:25,13:02:13,NA,incomplete,219,gender,2,1,right,C_M_12.jpg,C_F_02.jpg,A_M_09.jpg,right,975.4050000046846,true,high,NA,NA,NA,NA,NA,NA,NA,false
maUzpPpV,3p7qk0gj4wyyvhrnruxexlrqk8i2zm,3aqf3rz55cvivlhi4mkc9qobdd66fn,maUzpPpV,2020-0188,2020-06-16,12:42:25,13:02:13,NA,incomplete,220,race,3,0,left,A_M_08.jpg,A_F_05.jpg,C_M_09.jpg,right,738.6500000138767,false,high,NA,NA,NA,NA,NA,NA,NA,false
maUzpPpV,3p7qk0gj4wyyvhrnruxexlrqk8i2zm,3aqf3rz55cvivlhi4mkc9qobdd66fn,maUzpPpV,2020-0188,2020-06-16,12:42:25,13:02:13,NA,incomplete,221,race,3,1,right,A_M_13.jpg,C_M_14.jpg,A_F_05.jpg,left,637.9200000083074,false,high,NA,NA,NA,NA,NA,NA,NA,false
maUzpPpV,3p7qk0gj4wyyvhrnruxexlrqk8i2zm,3aqf3rz55cvivlhi4mkc9qobdd66fn,maUzpPpV,2020-0188,2020-06-16,12:42:25,13:02:13,NA,incomplete,222,race,3,1,right,C_F_09.jpg,A_F_14.jpg,C_M_03.jpg,left,1022.4199999938719,false,high,NA,NA,NA,NA,NA,NA,NA,false
maUzpPpV,3p7qk0gj4wyyvhrnruxexlrqk8i2zm,3aqf3rz55cvivlhi4mkc9qobdd66fn,maUzpPpV,2020-0188,2020-06-16,12:42:25,13:02:13,NA,incomplete,223,race,3,1,left,C_F_07.jpg,C_M_05.jpg,A_F_02.jpg,left,1131.599999993341,true,high,NA,NA,NA,NA,NA,NA,NA,false
maUzpPpV,3p7qk0gj4wyyvhrnruxexlrqk8i2zm,3aqf3rz55cvivlhi4mkc9qobdd66fn,maUzpPpV,2020-0188,2020-06-16,12:42:25,13:02:13,NA,incomplete,224,race,3,1,right,A_M_08.jpg,C_M_05.jpg,A_F_07.jpg,right,984.0099999855738,true,high,NA,NA,NA,NA,NA,NA,NA,false
maUzpPpV,3p7qk0gj4wyyvhrnruxexlrqk8i2zm,3aqf3rz55cvivlhi4mkc9qobdd66fn,maUzpPpV,2020-0188,2020-06-16,12:42:25,13:02:13,NA,incomplete,225,race,3,1,right,A_M_05.jpg,C_M_12.jpg,A_F_13.jpg,right,987.634999997681,true,high,NA,NA,NA,NA,NA,NA,NA,false
maUzpPpV,3p7qk0gj4wyyvhrnruxexlrqk8i2zm,3aqf3rz55cvivlhi4mkc9qobdd66fn,maUzpPpV,2020-0188,2020-06-16,12:42:25,13:02:13,NA,incomplete,226,race,3,0,left,C_M_02.jpg,C_F_10.jpg,A_M_08.jpg,left,1608.8950000121258,true,high,NA,NA,NA,NA,NA,NA,NA,false
maUzpPpV,3p7qk0gj4wyyvhrnruxexlrqk8i2zm,3aqf3rz55cvivlhi4mkc9qobdd66fn,maUzpPpV,2020-0188,2020-06-16,12:42:25,13:02:13,NA,incomplete,227,race,3,1,left,A_F_14.jpg,A_M_13.jpg,C_F_12.jpg,left,741.7000000132248,true,high,NA,NA,NA,NA,NA,NA,NA,false
maUzpPpV,3p7qk0gj4wyyvhrnruxexlrqk8i2zm,3aqf3rz55cvivlhi4mkc9qobdd66fn,maUzpPpV,2020-0188,2020-06-16,12:42:25,13:02:13,NA,incomplete,228,race,3,1,right,C_F_02.jpg,A_F_10.jpg,C_M_04.jpg,right,812.2999999905005,true,high,NA,NA,NA,NA,NA,NA,NA,false
maUzpPpV,3p7qk0gj4wyyvhrnruxexlrqk8i2zm,3aqf3rz55cvivlhi4mkc9qobdd66fn,maUzpPpV,2020-0188,2020-06-16,12:42:25,13:02:13,NA,incomplete,229,race,3,1,right,C_M_14.jpg,A_M_02.jpg,C_F_07.jpg,right,831.2249999726191,true,high,NA,NA,NA,NA,NA,NA,NA,false
maUzpPpV,3p7qk0gj4wyyvhrnruxexlrqk8i2zm,3aqf3rz55cvivlhi4mkc9qobdd66fn,maUzpPpV,2020-0188,2020-06-16,12:42:25,13:02:13,NA,incomplete,230,race,3,1,right,C_F_11.jpg,A_F_06.jpg,C_M_09.jpg,right,1139.7700000088662,true,high,NA,NA,NA,NA,NA,NA,NA,false
maUzpPpV,3p7qk0gj4wyyvhrnruxexlrqk8i2zm,3aqf3rz55cvivlhi4mkc9qobdd66fn,maUzpPpV,2020-0188,2020-06-16,12:42:25,13:02:13,NA,incomplete,231,race,3,1,right,C_F_06.jpg,A_F_11.jpg,C_M_01.jpg,left,865.1449999888428,false,high,NA,NA,NA,NA,NA,NA,NA,false
maUzpPpV,3p7qk0gj4wyyvhrnruxexlrqk8i2zm,3aqf3rz55cvivlhi4mkc9qobdd66fn,maUzpPpV,2020-0188,2020-06-16,12:42:25,13:02:13,NA,incomplete,232,race,3,1,left,C_M_06.jpg,C_F_02.jpg,A_M_13.jpg,left,1449.6100000105798,true,high,NA,NA,NA,NA,NA,NA,NA,false
maUzpPpV,3p7qk0gj4wyyvhrnruxexlrqk8i2zm,3aqf3rz55cvivlhi4mkc9qobdd66fn,maUzpPpV,2020-0188,2020-06-16,12:42:25,13:02:13,NA,incomplete,233,race,3,1,right,A_F_05.jpg,C_F_09.jpg,A_M_13.jpg,right,1033.8650000048801,true,high,NA,NA,NA,NA,NA,NA,NA,false
maUzpPpV,3p7qk0gj4wyyvhrnruxexlrqk8i2zm,3aqf3rz55cvivlhi4mkc9qobdd66fn,maUzpPpV,2020-0188,2020-06-16,12:42:25,13:02:13,NA,incomplete,234,race,3,1,right,A_M_06.jpg,C_M_14.jpg,A_F_05.jpg,right,880.1600000006147,true,high,NA,NA,NA,NA,NA,NA,NA,false
maUzpPpV,3p7qk0gj4wyyvhrnruxexlrqk8i2zm,3aqf3rz55cvivlhi4mkc9qobdd66fn,maUzpPpV,2020-0188,2020-06-16,12:42:25,13:02:13,NA,incomplete,235,race,3,1,left,A_M_03.jpg,A_F_07.jpg,C_M_04.jpg,left,895.3099999926053,true,high,NA,NA,NA,NA,NA,NA,NA,false
maUzpPpV,3p7qk0gj4wyyvhrnruxexlrqk8i2zm,3aqf3rz55cvivlhi4mkc9qobdd66fn,maUzpPpV,2020-0188,2020-06-16,12:42:25,13:02:13,NA,incomplete,236,race,3,0,right,C_M_06.jpg,A_M_12.jpg,C_F_02.jpg,right,884.0900000068359,true,high,NA,NA,NA,NA,NA,NA,NA,false
maUzpPpV,3p7qk0gj4wyyvhrnruxexlrqk8i2zm,3aqf3rz55cvivlhi4mkc9qobdd66fn,maUzpPpV,2020-0188,2020-06-16,12:42:25,13:02:13,NA,incomplete,237,race,3,1,right,A_M_09.jpg,C_M_13.jpg,A_F_16.jpg,right,1056.6600000020117,true,high,NA,NA,NA,NA,NA,NA,NA,false
maUzpPpV,3p7qk0gj4wyyvhrnruxexlrqk8i2zm,3aqf3rz55cvivlhi4mkc9qobdd66fn,maUzpPpV,2020-0188,2020-06-16,12:42:25,13:02:13,NA,incomplete,238,race,3,0,right,A_F_04.jpg,C_F_14.jpg,A_M_01.jpg,right,1308.0400000035297,true,high,NA,NA,NA,NA,NA,NA,NA,false
maUzpPpV,3p7qk0gj4wyyvhrnruxexlrqk8i2zm,3aqf3rz55cvivlhi4mkc9qobdd66fn,maUzpPpV,2020-0188,2020-06-16,12:42:25,13:02:13,NA,incomplete,239,race,3,1,right,A_F_13.jpg,C_F_03.jpg,A_M_11.jpg,right,902.7050000149757,true,high,NA,NA,NA,NA,NA,NA,NA,false
maUzpPpV,3p7qk0gj4wyyvhrnruxexlrqk8i2zm,3aqf3rz55cvivlhi4mkc9qobdd66fn,maUzpPpV,2020-0188,2020-06-16,12:42:25,13:02:13,NA,NA,instruction example,shape,NA,NA,NA,Red_Triangle_Dots_3.jpg,Green_Triangle_Grid_1.jpg,Red_Star_Stripes_2.jpg,NA,NA,NA,NA,NA,NA,NA,NA,NA,NA,NA,undefined
maUzpPpV,3p7qk0gj4wyyvhrnruxexlrqk8i2zm,3aqf3rz55cvivlhi4mkc9qobdd66fn,maUzpPpV,2020-0188,2020-06-16,12:42:25,13:02:13,NA,NA,instruction example,shape,NA,NA,NA,Green_Circle_Stripes_1.jpg,Green_Star_Grid_3.jpg,Purple_Circle_Dots_4.jpg,NA,NA,NA,NA,NA,NA,NA,NA,NA,NA,NA,undefined
maUzpPpV,3p7qk0gj4wyyvhrnruxexlrqk8i2zm,3aqf3rz55cvivlhi4mkc9qobdd66fn,maUzpPpV,2020-0188,2020-06-16,12:42:25,13:02:13,NA,NA,instruction example,shape,NA,NA,NA,A_F_02.jpg,C_F_09.jpg,A_M_15.jpg,NA,NA,NA,NA,NA,NA,NA,NA,NA,NA,NA,undefined
maUzpPpV,3p7qk0gj4wyyvhrnruxexlrqk8i2zm,3aqf3rz55cvivlhi4mkc9qobdd66fn,maUzpPpV,2020-0188,2020-06-16,12:42:25,13:02:13,NA,NA,instruction example,shape,NA,NA,NA,C_F_07.jpg,C_M_15.jpg,A_F_13.jpg,NA,NA,NA,NA,NA,NA,NA,NA,NA,NA,NA,undefined
maUzpPpV,3p7qk0gj4wyyvhrnruxexlrqk8i2zm,3aqf3rz55cvivlhi4mkc9qobdd66fn,maUzpPpV,2020-0188,2020-06-16,12:42:25,13:02:13,1138481.5050000034,1189057.3900000018,NA,NA,NA,NA,NA,NA,NA,NA,NA,NA,NA,NA,36,White/Caucasian,Male,White,no,no,no,undefined
