workerId,hitId,assignmentId,subject,studyid,exp_date,exp_start,exp_end,time_start,time_end,trial,type,sequence,reward_validity,answer,image_top,image_left,image_right,response,response_time,response_acc,volatility,age,race,gender,ethnicity,color,vision,neuro,practice
fegGF7uT,3y3czjszan6hsnojzw5z9ps3vnar5b,3azhrg4cu8xs1yfai23tzgpnvu303d,fegGF7uT,2020-0188,2020-06-04,14:22:07,14:52:12,NA,incomplete,0,color,0,1,right,Green_Star_Stripes_2.jpg,Purple_Circle_Stripes_3.jpg,Green_Triangle_Dots_1.jpg,right,1162.5549999880604,true,NA,NA,NA,NA,NA,NA,NA,NA,true
fegGF7uT,3y3czjszan6hsnojzw5z9ps3vnar5b,3azhrg4cu8xs1yfai23tzgpnvu303d,fegGF7uT,2020-0188,2020-06-04,14:22:07,14:52:12,NA,incomplete,1,color,0,1,left,Red_Triangle_Dots_1.jpg,Red_Plus_Chess_2.jpg,Purple_Circle_Dots_3.jpg,left,674.7749999631196,true,NA,NA,NA,NA,NA,NA,NA,NA,true
fegGF7uT,3y3czjszan6hsnojzw5z9ps3vnar5b,3azhrg4cu8xs1yfai23tzgpnvu303d,fegGF7uT,2020-0188,2020-06-04,14:22:07,14:52:12,NA,incomplete,2,color,0,0,left,Blue_Triangle_Chess_2.jpg,Blue_Circle_Grid_1.jpg,Green_Plus_Chess_4.jpg,left,642.3700000159442,true,NA,NA,NA,NA,NA,NA,NA,NA,true
fegGF7uT,3y3czjszan6hsnojzw5z9ps3vnar5b,3azhrg4cu8xs1yfai23tzgpnvu303d,fegGF7uT,2020-0188,2020-06-04,14:22:07,14:52:12,NA,incomplete,3,color,0,1,right,Purple_Triangle_Grid_1.jpg,Blue_Plus_Grid_4.jpg,Purple_Circle_Chess_3.jpg,right,679.7699999879114,true,NA,NA,NA,NA,NA,NA,NA,NA,true
fegGF7uT,3y3czjszan6hsnojzw5z9ps3vnar5b,3azhrg4cu8xs1yfai23tzgpnvu303d,fegGF7uT,2020-0188,2020-06-04,14:22:07,14:52:12,NA,incomplete,4,color,0,1,left,Purple_Star_Dots_1.jpg,Purple_Plus_Chess_4.jpg,Green_Circle_Dots_2.jpg,left,454.48999997461215,true,NA,NA,NA,NA,NA,NA,NA,NA,true
fegGF7uT,3y3czjszan6hsnojzw5z9ps3vnar5b,3azhrg4cu8xs1yfai23tzgpnvu303d,fegGF7uT,2020-0188,2020-06-04,14:22:07,14:52:12,NA,incomplete,5,color,0,1,right,Blue_Plus_Grid_1.jpg,Red_Triangle_Grid_4.jpg,Blue_Circle_Stripes_3.jpg,right,400.07500001229346,true,NA,NA,NA,NA,NA,NA,NA,NA,true
fegGF7uT,3y3czjszan6hsnojzw5z9ps3vnar5b,3azhrg4cu8xs1yfai23tzgpnvu303d,fegGF7uT,2020-0188,2020-06-04,14:22:07,14:52:12,NA,incomplete,6,color,0,1,right,Blue_Circle_Grid_3.jpg,Green_Plus_Grid_4.jpg,Blue_Star_Chess_2.jpg,right,531.539999996312,true,NA,NA,NA,NA,NA,NA,NA,NA,true
fegGF7uT,3y3czjszan6hsnojzw5z9ps3vnar5b,3azhrg4cu8xs1yfai23tzgpnvu303d,fegGF7uT,2020-0188,2020-06-04,14:22:07,14:52:12,NA,incomplete,7,color,0,0,right,Blue_Plus_Chess_4.jpg,Green_Star_Chess_3.jpg,Blue_Triangle_Dots_1.jpg,right,710.8500000322238,true,NA,NA,NA,NA,NA,NA,NA,NA,true
fegGF7uT,3y3czjszan6hsnojzw5z9ps3vnar5b,3azhrg4cu8xs1yfai23tzgpnvu303d,fegGF7uT,2020-0188,2020-06-04,14:22:07,14:52:12,NA,incomplete,8,color,0,0,right,Red_Circle_Grid_2.jpg,Blue_Triangle_Grid_4.jpg,Red_Plus_Chess_3.jpg,right,548.5849999822676,true,NA,NA,NA,NA,NA,NA,NA,NA,true
fegGF7uT,3y3czjszan6hsnojzw5z9ps3vnar5b,3azhrg4cu8xs1yfai23tzgpnvu303d,fegGF7uT,2020-0188,2020-06-04,14:22:07,14:52:12,NA,incomplete,9,color,0,1,right,Purple_Circle_Dots_2.jpg,Red_Triangle_Dots_4.jpg,Purple_Star_Chess_1.jpg,right,605.565000034403,true,NA,NA,NA,NA,NA,NA,NA,NA,true
fegGF7uT,3y3czjszan6hsnojzw5z9ps3vnar5b,3azhrg4cu8xs1yfai23tzgpnvu303d,fegGF7uT,2020-0188,2020-06-04,14:22:07,14:52:12,NA,incomplete,10,color,0,0,right,Green_Triangle_Stripes_2.jpg,Red_Plus_Stripes_3.jpg,Green_Circle_Grid_4.jpg,right,702.2899999865331,true,NA,NA,NA,NA,NA,NA,NA,NA,true
fegGF7uT,3y3czjszan6hsnojzw5z9ps3vnar5b,3azhrg4cu8xs1yfai23tzgpnvu303d,fegGF7uT,2020-0188,2020-06-04,14:22:07,14:52:12,NA,incomplete,11,color,0,0,right,Red_Star_Stripes_3.jpg,Purple_Plus_Stripes_1.jpg,Red_Triangle_Dots_2.jpg,right,790.6749999965541,true,NA,NA,NA,NA,NA,NA,NA,NA,true
fegGF7uT,3y3czjszan6hsnojzw5z9ps3vnar5b,3azhrg4cu8xs1yfai23tzgpnvu303d,fegGF7uT,2020-0188,2020-06-04,14:22:07,14:52:12,NA,incomplete,12,color,0,1,left,Red_Circle_Chess_3.jpg,Red_Plus_Stripes_2.jpg,Green_Triangle_Chess_1.jpg,left,1125.2250000252388,true,NA,NA,NA,NA,NA,NA,NA,NA,true
fegGF7uT,3y3czjszan6hsnojzw5z9ps3vnar5b,3azhrg4cu8xs1yfai23tzgpnvu303d,fegGF7uT,2020-0188,2020-06-04,14:22:07,14:52:12,NA,incomplete,13,color,0,0,right,Blue_Plus_Stripes_1.jpg,Red_Circle_Stripes_4.jpg,Blue_Triangle_Dots_2.jpg,right,951.6200000070967,true,NA,NA,NA,NA,NA,NA,NA,NA,true
fegGF7uT,3y3czjszan6hsnojzw5z9ps3vnar5b,3azhrg4cu8xs1yfai23tzgpnvu303d,fegGF7uT,2020-0188,2020-06-04,14:22:07,14:52:12,NA,incomplete,14,color,0,1,left,Blue_Triangle_Dots_1.jpg,Blue_Star_Grid_4.jpg,Red_Circle_Dots_2.jpg,left,772.7300000260584,true,NA,NA,NA,NA,NA,NA,NA,NA,true
fegGF7uT,3y3czjszan6hsnojzw5z9ps3vnar5b,3azhrg4cu8xs1yfai23tzgpnvu303d,fegGF7uT,2020-0188,2020-06-04,14:22:07,14:52:12,NA,incomplete,15,color,0,1,right,Red_Star_Grid_3.jpg,Green_Triangle_Grid_2.jpg,Red_Circle_Stripes_1.jpg,right,490.3799999738112,true,NA,NA,NA,NA,NA,NA,NA,NA,true
fegGF7uT,3y3czjszan6hsnojzw5z9ps3vnar5b,3azhrg4cu8xs1yfai23tzgpnvu303d,fegGF7uT,2020-0188,2020-06-04,14:22:07,14:52:12,NA,incomplete,16,color,0,1,left,Blue_Triangle_Dots_1.jpg,Blue_Star_Chess_2.jpg,Purple_Circle_Dots_3.jpg,left,630.9650000184774,true,NA,NA,NA,NA,NA,NA,NA,NA,true
fegGF7uT,3y3czjszan6hsnojzw5z9ps3vnar5b,3azhrg4cu8xs1yfai23tzgpnvu303d,fegGF7uT,2020-0188,2020-06-04,14:22:07,14:52:12,NA,incomplete,17,color,0,1,right,Red_Star_Chess_3.jpg,Purple_Triangle_Chess_2.jpg,Red_Circle_Stripes_4.jpg,right,417.0799999847077,true,NA,NA,NA,NA,NA,NA,NA,NA,true
fegGF7uT,3y3czjszan6hsnojzw5z9ps3vnar5b,3azhrg4cu8xs1yfai23tzgpnvu303d,fegGF7uT,2020-0188,2020-06-04,14:22:07,14:52:12,NA,incomplete,18,color,0,1,left,Blue_Circle_Chess_3.jpg,Blue_Star_Grid_4.jpg,Purple_Triangle_Chess_2.jpg,left,490.40499998955056,true,NA,NA,NA,NA,NA,NA,NA,NA,true
fegGF7uT,3y3czjszan6hsnojzw5z9ps3vnar5b,3azhrg4cu8xs1yfai23tzgpnvu303d,fegGF7uT,2020-0188,2020-06-04,14:22:07,14:52:12,NA,incomplete,19,color,0,1,left,Purple_Plus_Grid_4.jpg,Purple_Star_Chess_2.jpg,Green_Triangle_Grid_3.jpg,left,554.5399999828078,true,NA,NA,NA,NA,NA,NA,NA,NA,true
fegGF7uT,3y3czjszan6hsnojzw5z9ps3vnar5b,3azhrg4cu8xs1yfai23tzgpnvu303d,fegGF7uT,2020-0188,2020-06-04,14:22:07,14:52:12,NA,incomplete,20,filling,1,1,right,Red_Plus_Dots_2.jpg,Red_Star_Stripes_4.jpg,Green_Circle_Dots_3.jpg,left,463.0749999778345,false,NA,NA,NA,NA,NA,NA,NA,NA,true
fegGF7uT,3y3czjszan6hsnojzw5z9ps3vnar5b,3azhrg4cu8xs1yfai23tzgpnvu303d,fegGF7uT,2020-0188,2020-06-04,14:22:07,14:52:12,NA,incomplete,21,filling,1,1,right,Blue_Triangle_Dots_3.jpg,Blue_Star_Chess_1.jpg,Purple_Plus_Dots_2.jpg,right,732.8550000092946,true,NA,NA,NA,NA,NA,NA,NA,NA,true
fegGF7uT,3y3czjszan6hsnojzw5z9ps3vnar5b,3azhrg4cu8xs1yfai23tzgpnvu303d,fegGF7uT,2020-0188,2020-06-04,14:22:07,14:52:12,NA,incomplete,22,filling,1,1,right,Blue_Circle_Grid_1.jpg,Blue_Star_Chess_2.jpg,Green_Plus_Grid_3.jpg,right,781.9149999995716,true,NA,NA,NA,NA,NA,NA,NA,NA,true
fegGF7uT,3y3czjszan6hsnojzw5z9ps3vnar5b,3azhrg4cu8xs1yfai23tzgpnvu303d,fegGF7uT,2020-0188,2020-06-04,14:22:07,14:52:12,NA,incomplete,23,filling,1,1,right,Red_Triangle_Grid_4.jpg,Red_Circle_Dots_2.jpg,Blue_Star_Grid_1.jpg,right,889.3800000078045,true,NA,NA,NA,NA,NA,NA,NA,NA,true
fegGF7uT,3y3czjszan6hsnojzw5z9ps3vnar5b,3azhrg4cu8xs1yfai23tzgpnvu303d,fegGF7uT,2020-0188,2020-06-04,14:22:07,14:52:12,NA,incomplete,24,filling,1,1,left,Red_Plus_Chess_1.jpg,Purple_Circle_Chess_4.jpg,Red_Triangle_Stripes_3.jpg,left,1111.0749999643303,true,NA,NA,NA,NA,NA,NA,NA,NA,true
fegGF7uT,3y3czjszan6hsnojzw5z9ps3vnar5b,3azhrg4cu8xs1yfai23tzgpnvu303d,fegGF7uT,2020-0188,2020-06-04,14:22:07,14:52:12,NA,incomplete,25,filling,1,1,left,Red_Plus_Stripes_3.jpg,Purple_Circle_Stripes_4.jpg,Red_Triangle_Dots_2.jpg,left,1111.7100000265054,true,NA,NA,NA,NA,NA,NA,NA,NA,true
fegGF7uT,3y3czjszan6hsnojzw5z9ps3vnar5b,3azhrg4cu8xs1yfai23tzgpnvu303d,fegGF7uT,2020-0188,2020-06-04,14:22:07,14:52:12,NA,incomplete,26,filling,1,1,right,Red_Triangle_Dots_4.jpg,Red_Circle_Stripes_3.jpg,Purple_Plus_Dots_2.jpg,right,1754.5200000167824,true,NA,NA,NA,NA,NA,NA,NA,NA,true
fegGF7uT,3y3czjszan6hsnojzw5z9ps3vnar5b,3azhrg4cu8xs1yfai23tzgpnvu303d,fegGF7uT,2020-0188,2020-06-04,14:22:07,14:52:12,NA,incomplete,27,filling,1,1,right,Green_Circle_Chess_2.jpg,Green_Star_Stripes_1.jpg,Purple_Triangle_Chess_4.jpg,right,1125.5399999790825,true,NA,NA,NA,NA,NA,NA,NA,NA,true
fegGF7uT,3y3czjszan6hsnojzw5z9ps3vnar5b,3azhrg4cu8xs1yfai23tzgpnvu303d,fegGF7uT,2020-0188,2020-06-04,14:22:07,14:52:12,NA,incomplete,28,filling,1,0,right,Green_Triangle_Stripes_1.jpg,Green_Circle_Dots_3.jpg,Blue_Star_Stripes_4.jpg,right,753.9249999681488,true,NA,NA,NA,NA,NA,NA,NA,NA,true
fegGF7uT,3y3czjszan6hsnojzw5z9ps3vnar5b,3azhrg4cu8xs1yfai23tzgpnvu303d,fegGF7uT,2020-0188,2020-06-04,14:22:07,14:52:12,NA,incomplete,29,filling,1,1,right,Blue_Star_Grid_1.jpg,Blue_Circle_Dots_4.jpg,Red_Plus_Grid_2.jpg,right,963.3299999986775,true,NA,NA,NA,NA,NA,NA,NA,NA,true
fegGF7uT,3y3czjszan6hsnojzw5z9ps3vnar5b,3azhrg4cu8xs1yfai23tzgpnvu303d,fegGF7uT,2020-0188,2020-06-04,14:22:07,14:52:12,NA,incomplete,30,filling,1,0,right,Red_Plus_Chess_4.jpg,Red_Triangle_Grid_3.jpg,Blue_Star_Chess_2.jpg,right,776.1299999547191,true,NA,NA,NA,NA,NA,NA,NA,NA,true
fegGF7uT,3y3czjszan6hsnojzw5z9ps3vnar5b,3azhrg4cu8xs1yfai23tzgpnvu303d,fegGF7uT,2020-0188,2020-06-04,14:22:07,14:52:12,NA,incomplete,31,filling,1,1,right,Purple_Triangle_Stripes_2.jpg,Purple_Circle_Dots_3.jpg,Blue_Plus_Stripes_4.jpg,right,801.6000000061467,true,NA,NA,NA,NA,NA,NA,NA,NA,true
fegGF7uT,3y3czjszan6hsnojzw5z9ps3vnar5b,3azhrg4cu8xs1yfai23tzgpnvu303d,fegGF7uT,2020-0188,2020-06-04,14:22:07,14:52:12,NA,incomplete,32,filling,1,1,left,Green_Plus_Stripes_3.jpg,Purple_Star_Stripes_2.jpg,Green_Circle_Chess_4.jpg,left,776.2999999686144,true,NA,NA,NA,NA,NA,NA,NA,NA,true
fegGF7uT,3y3czjszan6hsnojzw5z9ps3vnar5b,3azhrg4cu8xs1yfai23tzgpnvu303d,fegGF7uT,2020-0188,2020-06-04,14:22:07,14:52:12,NA,incomplete,33,filling,1,1,right,Red_Circle_Stripes_1.jpg,Red_Star_Grid_2.jpg,Purple_Triangle_Stripes_3.jpg,right,657.1600000024773,true,NA,NA,NA,NA,NA,NA,NA,NA,true
fegGF7uT,3y3czjszan6hsnojzw5z9ps3vnar5b,3azhrg4cu8xs1yfai23tzgpnvu303d,fegGF7uT,2020-0188,2020-06-04,14:22:07,14:52:12,NA,incomplete,34,filling,1,1,left,Red_Circle_Grid_2.jpg,Blue_Triangle_Grid_3.jpg,Red_Star_Chess_1.jpg,left,725.3799999598414,true,NA,NA,NA,NA,NA,NA,NA,NA,true
fegGF7uT,3y3czjszan6hsnojzw5z9ps3vnar5b,3azhrg4cu8xs1yfai23tzgpnvu303d,fegGF7uT,2020-0188,2020-06-04,14:22:07,14:52:12,NA,incomplete,35,filling,1,1,left,Purple_Triangle_Stripes_3.jpg,Red_Plus_Stripes_1.jpg,Purple_Circle_Dots_4.jpg,left,777.5750000146218,true,NA,NA,NA,NA,NA,NA,NA,NA,true
fegGF7uT,3y3czjszan6hsnojzw5z9ps3vnar5b,3azhrg4cu8xs1yfai23tzgpnvu303d,fegGF7uT,2020-0188,2020-06-04,14:22:07,14:52:12,NA,incomplete,36,filling,1,1,right,Red_Circle_Grid_4.jpg,Red_Star_Stripes_2.jpg,Purple_Plus_Grid_1.jpg,right,701.8050000187941,true,NA,NA,NA,NA,NA,NA,NA,NA,true
fegGF7uT,3y3czjszan6hsnojzw5z9ps3vnar5b,3azhrg4cu8xs1yfai23tzgpnvu303d,fegGF7uT,2020-0188,2020-06-04,14:22:07,14:52:12,NA,incomplete,37,filling,1,1,left,Purple_Circle_Dots_4.jpg,Green_Triangle_Dots_3.jpg,Purple_Star_Grid_1.jpg,left,711.6149999783374,true,NA,NA,NA,NA,NA,NA,NA,NA,true
fegGF7uT,3y3czjszan6hsnojzw5z9ps3vnar5b,3azhrg4cu8xs1yfai23tzgpnvu303d,fegGF7uT,2020-0188,2020-06-04,14:22:07,14:52:12,NA,incomplete,38,filling,1,1,right,Red_Star_Chess_4.jpg,Red_Triangle_Grid_1.jpg,Green_Plus_Chess_3.jpg,right,623.8349999766797,true,NA,NA,NA,NA,NA,NA,NA,NA,true
fegGF7uT,3y3czjszan6hsnojzw5z9ps3vnar5b,3azhrg4cu8xs1yfai23tzgpnvu303d,fegGF7uT,2020-0188,2020-06-04,14:22:07,14:52:12,NA,incomplete,39,filling,1,1,left,Purple_Plus_Chess_4.jpg,Red_Star_Chess_3.jpg,Purple_Triangle_Grid_1.jpg,right,661.835000035353,false,NA,NA,NA,NA,NA,NA,NA,NA,true
fegGF7uT,3y3czjszan6hsnojzw5z9ps3vnar5b,3azhrg4cu8xs1yfai23tzgpnvu303d,fegGF7uT,2020-0188,2020-06-04,14:22:07,14:52:12,NA,incomplete,0,color,0,1,right,Red_Star_Grid_3.jpg,Purple_Triangle_Grid_4.jpg,Red_Circle_Chess_2.jpg,left,1089.5349999773316,false,high,NA,NA,NA,NA,NA,NA,NA,false
fegGF7uT,3y3czjszan6hsnojzw5z9ps3vnar5b,3azhrg4cu8xs1yfai23tzgpnvu303d,fegGF7uT,2020-0188,2020-06-04,14:22:07,14:52:12,NA,incomplete,1,color,0,1,right,Purple_Plus_Stripes_3.jpg,Green_Circle_Stripes_4.jpg,Purple_Star_Grid_2.jpg,left,967.9849999956787,false,high,NA,NA,NA,NA,NA,NA,NA,false
fegGF7uT,3y3czjszan6hsnojzw5z9ps3vnar5b,3azhrg4cu8xs1yfai23tzgpnvu303d,fegGF7uT,2020-0188,2020-06-04,14:22:07,14:52:12,NA,incomplete,2,color,0,1,right,Green_Triangle_Chess_1.jpg,Red_Star_Chess_2.jpg,Green_Circle_Stripes_4.jpg,left,707.0850000018254,false,high,NA,NA,NA,NA,NA,NA,NA,false
fegGF7uT,3y3czjszan6hsnojzw5z9ps3vnar5b,3azhrg4cu8xs1yfai23tzgpnvu303d,fegGF7uT,2020-0188,2020-06-04,14:22:07,14:52:12,NA,incomplete,3,color,0,1,left,Blue_Star_Stripes_3.jpg,Blue_Circle_Grid_1.jpg,Red_Plus_Stripes_4.jpg,left,836.0850000171922,true,high,NA,NA,NA,NA,NA,NA,NA,false
fegGF7uT,3y3czjszan6hsnojzw5z9ps3vnar5b,3azhrg4cu8xs1yfai23tzgpnvu303d,fegGF7uT,2020-0188,2020-06-04,14:22:07,14:52:12,NA,incomplete,4,color,0,1,right,Blue_Plus_Dots_3.jpg,Red_Star_Dots_4.jpg,Blue_Triangle_Stripes_2.jpg,right,411.9100000243634,true,high,NA,NA,NA,NA,NA,NA,NA,false
fegGF7uT,3y3czjszan6hsnojzw5z9ps3vnar5b,3azhrg4cu8xs1yfai23tzgpnvu303d,fegGF7uT,2020-0188,2020-06-04,14:22:07,14:52:12,NA,incomplete,5,color,0,1,left,Red_Star_Chess_4.jpg,Red_Triangle_Dots_3.jpg,Blue_Circle_Chess_2.jpg,left,373.4650000114925,true,high,NA,NA,NA,NA,NA,NA,NA,false
fegGF7uT,3y3czjszan6hsnojzw5z9ps3vnar5b,3azhrg4cu8xs1yfai23tzgpnvu303d,fegGF7uT,2020-0188,2020-06-04,14:22:07,14:52:12,NA,incomplete,6,color,0,1,right,Blue_Triangle_Dots_3.jpg,Purple_Star_Dots_1.jpg,Blue_Circle_Chess_2.jpg,right,390.8200000296347,true,high,NA,NA,NA,NA,NA,NA,NA,false
fegGF7uT,3y3czjszan6hsnojzw5z9ps3vnar5b,3azhrg4cu8xs1yfai23tzgpnvu303d,fegGF7uT,2020-0188,2020-06-04,14:22:07,14:52:12,NA,incomplete,7,color,0,1,left,Blue_Star_Dots_2.jpg,Blue_Circle_Stripes_1.jpg,Purple_Plus_Dots_4.jpg,left,391.2150000105612,true,high,NA,NA,NA,NA,NA,NA,NA,false
fegGF7uT,3y3czjszan6hsnojzw5z9ps3vnar5b,3azhrg4cu8xs1yfai23tzgpnvu303d,fegGF7uT,2020-0188,2020-06-04,14:22:07,14:52:12,NA,incomplete,8,color,0,1,right,Blue_Circle_Stripes_2.jpg,Green_Plus_Stripes_1.jpg,Blue_Star_Chess_4.jpg,right,362.749999971129,true,high,NA,NA,NA,NA,NA,NA,NA,false
fegGF7uT,3y3czjszan6hsnojzw5z9ps3vnar5b,3azhrg4cu8xs1yfai23tzgpnvu303d,fegGF7uT,2020-0188,2020-06-04,14:22:07,14:52:12,NA,incomplete,9,color,0,1,right,Blue_Circle_Grid_2.jpg,Purple_Star_Grid_1.jpg,Blue_Plus_Chess_3.jpg,right,346.29499999573454,true,high,NA,NA,NA,NA,NA,NA,NA,false
fegGF7uT,3y3czjszan6hsnojzw5z9ps3vnar5b,3azhrg4cu8xs1yfai23tzgpnvu303d,fegGF7uT,2020-0188,2020-06-04,14:22:07,14:52:12,NA,incomplete,10,filling,1,1,left,Purple_Circle_Chess_1.jpg,Red_Triangle_Chess_4.jpg,Purple_Plus_Grid_3.jpg,right,424.66499999864027,false,high,NA,NA,NA,NA,NA,NA,NA,false
fegGF7uT,3y3czjszan6hsnojzw5z9ps3vnar5b,3azhrg4cu8xs1yfai23tzgpnvu303d,fegGF7uT,2020-0188,2020-06-04,14:22:07,14:52:12,NA,incomplete,11,filling,1,1,right,Blue_Circle_Grid_2.jpg,Blue_Star_Chess_4.jpg,Green_Plus_Grid_1.jpg,left,391.93499996326864,false,high,NA,NA,NA,NA,NA,NA,NA,false
fegGF7uT,3y3czjszan6hsnojzw5z9ps3vnar5b,3azhrg4cu8xs1yfai23tzgpnvu303d,fegGF7uT,2020-0188,2020-06-04,14:22:07,14:52:12,NA,incomplete,12,filling,1,1,right,Purple_Star_Grid_3.jpg,Purple_Triangle_Stripes_2.jpg,Green_Plus_Grid_1.jpg,left,620.2749999938533,false,high,NA,NA,NA,NA,NA,NA,NA,false
fegGF7uT,3y3czjszan6hsnojzw5z9ps3vnar5b,3azhrg4cu8xs1yfai23tzgpnvu303d,fegGF7uT,2020-0188,2020-06-04,14:22:07,14:52:12,NA,incomplete,13,filling,1,1,left,Blue_Star_Chess_4.jpg,Purple_Circle_Chess_3.jpg,Blue_Plus_Grid_1.jpg,right,528.2250000163913,false,high,NA,NA,NA,NA,NA,NA,NA,false
fegGF7uT,3y3czjszan6hsnojzw5z9ps3vnar5b,3azhrg4cu8xs1yfai23tzgpnvu303d,fegGF7uT,2020-0188,2020-06-04,14:22:07,14:52:12,NA,incomplete,14,filling,1,0,right,Blue_Plus_Grid_3.jpg,Blue_Circle_Stripes_1.jpg,Green_Triangle_Grid_2.jpg,right,857.5849999906495,true,high,NA,NA,NA,NA,NA,NA,NA,false
fegGF7uT,3y3czjszan6hsnojzw5z9ps3vnar5b,3azhrg4cu8xs1yfai23tzgpnvu303d,fegGF7uT,2020-0188,2020-06-04,14:22:07,14:52:12,NA,incomplete,15,filling,1,1,right,Purple_Triangle_Dots_1.jpg,Purple_Circle_Stripes_3.jpg,Red_Star_Dots_4.jpg,right,771.7199999606237,true,high,NA,NA,NA,NA,NA,NA,NA,false
fegGF7uT,3y3czjszan6hsnojzw5z9ps3vnar5b,3azhrg4cu8xs1yfai23tzgpnvu303d,fegGF7uT,2020-0188,2020-06-04,14:22:07,14:52:12,NA,incomplete,16,filling,1,0,right,Green_Plus_Grid_3.jpg,Green_Circle_Stripes_1.jpg,Purple_Triangle_Grid_2.jpg,right,1058.614999987185,true,high,NA,NA,NA,NA,NA,NA,NA,false
fegGF7uT,3y3czjszan6hsnojzw5z9ps3vnar5b,3azhrg4cu8xs1yfai23tzgpnvu303d,fegGF7uT,2020-0188,2020-06-04,14:22:07,14:52:12,NA,incomplete,17,filling,1,1,right,Blue_Circle_Grid_3.jpg,Blue_Triangle_Stripes_4.jpg,Red_Plus_Grid_2.jpg,right,1096.369999984745,true,high,NA,NA,NA,NA,NA,NA,NA,false
fegGF7uT,3y3czjszan6hsnojzw5z9ps3vnar5b,3azhrg4cu8xs1yfai23tzgpnvu303d,fegGF7uT,2020-0188,2020-06-04,14:22:07,14:52:12,NA,incomplete,18,filling,1,0,right,Purple_Plus_Chess_1.jpg,Purple_Triangle_Grid_4.jpg,Blue_Circle_Chess_3.jpg,right,761.0350000322796,true,high,NA,NA,NA,NA,NA,NA,NA,false
fegGF7uT,3y3czjszan6hsnojzw5z9ps3vnar5b,3azhrg4cu8xs1yfai23tzgpnvu303d,fegGF7uT,2020-0188,2020-06-04,14:22:07,14:52:12,NA,incomplete,19,filling,1,1,right,Purple_Plus_Chess_4.jpg,Purple_Circle_Grid_2.jpg,Red_Triangle_Chess_3.jpg,right,823.789999994915,true,high,NA,NA,NA,NA,NA,NA,NA,false
fegGF7uT,3y3czjszan6hsnojzw5z9ps3vnar5b,3azhrg4cu8xs1yfai23tzgpnvu303d,fegGF7uT,2020-0188,2020-06-04,14:22:07,14:52:12,NA,incomplete,20,color,0,0,left,Green_Plus_Chess_3.jpg,Green_Triangle_Stripes_2.jpg,Purple_Star_Chess_1.jpg,right,831.319999997504,false,high,NA,NA,NA,NA,NA,NA,NA,false
fegGF7uT,3y3czjszan6hsnojzw5z9ps3vnar5b,3azhrg4cu8xs1yfai23tzgpnvu303d,fegGF7uT,2020-0188,2020-06-04,14:22:07,14:52:12,NA,incomplete,21,color,0,1,right,Red_Plus_Stripes_1.jpg,Purple_Star_Stripes_2.jpg,Red_Circle_Grid_3.jpg,left,836.3750000135042,false,high,NA,NA,NA,NA,NA,NA,NA,false
fegGF7uT,3y3czjszan6hsnojzw5z9ps3vnar5b,3azhrg4cu8xs1yfai23tzgpnvu303d,fegGF7uT,2020-0188,2020-06-04,14:22:07,14:52:12,NA,incomplete,22,color,0,0,right,Green_Circle_Stripes_1.jpg,Blue_Plus_Stripes_2.jpg,Green_Triangle_Dots_4.jpg,left,657.0300000021234,false,high,NA,NA,NA,NA,NA,NA,NA,false
fegGF7uT,3y3czjszan6hsnojzw5z9ps3vnar5b,3azhrg4cu8xs1yfai23tzgpnvu303d,fegGF7uT,2020-0188,2020-06-04,14:22:07,14:52:12,NA,incomplete,23,color,0,1,left,Purple_Triangle_Dots_2.jpg,Purple_Circle_Grid_1.jpg,Red_Star_Dots_4.jpg,right,783.6750000133179,false,high,NA,NA,NA,NA,NA,NA,NA,false
fegGF7uT,3y3czjszan6hsnojzw5z9ps3vnar5b,3azhrg4cu8xs1yfai23tzgpnvu303d,fegGF7uT,2020-0188,2020-06-04,14:22:07,14:52:12,NA,incomplete,24,color,0,0,left,Purple_Plus_Grid_3.jpg,Purple_Star_Dots_1.jpg,Red_Triangle_Grid_4.jpg,right,613.820000027772,false,high,NA,NA,NA,NA,NA,NA,NA,false
fegGF7uT,3y3czjszan6hsnojzw5z9ps3vnar5b,3azhrg4cu8xs1yfai23tzgpnvu303d,fegGF7uT,2020-0188,2020-06-04,14:22:07,14:52:12,NA,incomplete,25,color,0,1,right,Purple_Triangle_Chess_4.jpg,Green_Star_Chess_1.jpg,Purple_Circle_Dots_2.jpg,left,646.8250000034459,false,high,NA,NA,NA,NA,NA,NA,NA,false
fegGF7uT,3y3czjszan6hsnojzw5z9ps3vnar5b,3azhrg4cu8xs1yfai23tzgpnvu303d,fegGF7uT,2020-0188,2020-06-04,14:22:07,14:52:12,NA,incomplete,26,color,0,1,left,Red_Circle_Stripes_4.jpg,Red_Triangle_Dots_1.jpg,Blue_Plus_Stripes_2.jpg,right,676.0399999911897,false,high,NA,NA,NA,NA,NA,NA,NA,false
fegGF7uT,3y3czjszan6hsnojzw5z9ps3vnar5b,3azhrg4cu8xs1yfai23tzgpnvu303d,fegGF7uT,2020-0188,2020-06-04,14:22:07,14:52:12,NA,incomplete,27,color,0,1,left,Purple_Plus_Stripes_2.jpg,Purple_Star_Grid_1.jpg,Red_Circle_Stripes_4.jpg,left,992.919999989681,true,high,NA,NA,NA,NA,NA,NA,NA,false
fegGF7uT,3y3czjszan6hsnojzw5z9ps3vnar5b,3azhrg4cu8xs1yfai23tzgpnvu303d,fegGF7uT,2020-0188,2020-06-04,14:22:07,14:52:12,NA,incomplete,28,color,0,0,left,Purple_Star_Dots_2.jpg,Purple_Triangle_Grid_1.jpg,Red_Plus_Dots_3.jpg,left,439.43500000750646,true,high,NA,NA,NA,NA,NA,NA,NA,false
fegGF7uT,3y3czjszan6hsnojzw5z9ps3vnar5b,3azhrg4cu8xs1yfai23tzgpnvu303d,fegGF7uT,2020-0188,2020-06-04,14:22:07,14:52:12,NA,incomplete,29,color,0,1,right,Purple_Circle_Dots_4.jpg,Blue_Plus_Dots_2.jpg,Purple_Star_Chess_1.jpg,right,444.03500005137175,true,high,NA,NA,NA,NA,NA,NA,NA,false
fegGF7uT,3y3czjszan6hsnojzw5z9ps3vnar5b,3azhrg4cu8xs1yfai23tzgpnvu303d,fegGF7uT,2020-0188,2020-06-04,14:22:07,14:52:12,NA,incomplete,30,filling,1,1,left,Green_Plus_Stripes_1.jpg,Red_Triangle_Stripes_3.jpg,Green_Star_Dots_2.jpg,right,368.0700000259094,false,high,NA,NA,NA,NA,NA,NA,NA,false
fegGF7uT,3y3czjszan6hsnojzw5z9ps3vnar5b,3azhrg4cu8xs1yfai23tzgpnvu303d,fegGF7uT,2020-0188,2020-06-04,14:22:07,14:52:12,NA,incomplete,31,filling,1,0,left,Red_Star_Grid_4.jpg,Purple_Circle_Grid_1.jpg,Red_Plus_Stripes_3.jpg,right,406.7750000394881,false,high,NA,NA,NA,NA,NA,NA,NA,false
fegGF7uT,3y3czjszan6hsnojzw5z9ps3vnar5b,3azhrg4cu8xs1yfai23tzgpnvu303d,fegGF7uT,2020-0188,2020-06-04,14:22:07,14:52:12,NA,incomplete,32,filling,1,1,right,Red_Circle_Chess_1.jpg,Red_Star_Grid_3.jpg,Purple_Plus_Chess_2.jpg,left,361.77499999757856,false,high,NA,NA,NA,NA,NA,NA,NA,false
fegGF7uT,3y3czjszan6hsnojzw5z9ps3vnar5b,3azhrg4cu8xs1yfai23tzgpnvu303d,fegGF7uT,2020-0188,2020-06-04,14:22:07,14:52:12,NA,incomplete,33,filling,1,1,left,Red_Triangle_Grid_3.jpg,Green_Plus_Grid_1.jpg,Red_Star_Dots_2.jpg,right,647.6099999854341,false,high,NA,NA,NA,NA,NA,NA,NA,false
fegGF7uT,3y3czjszan6hsnojzw5z9ps3vnar5b,3azhrg4cu8xs1yfai23tzgpnvu303d,fegGF7uT,2020-0188,2020-06-04,14:22:07,14:52:12,NA,incomplete,34,filling,1,0,right,Green_Plus_Chess_3.jpg,Green_Star_Stripes_1.jpg,Red_Triangle_Chess_4.jpg,right,745.1749999891035,true,high,NA,NA,NA,NA,NA,NA,NA,false
fegGF7uT,3y3czjszan6hsnojzw5z9ps3vnar5b,3azhrg4cu8xs1yfai23tzgpnvu303d,fegGF7uT,2020-0188,2020-06-04,14:22:07,14:52:12,NA,incomplete,35,filling,1,1,left,Red_Plus_Grid_3.jpg,Blue_Triangle_Grid_2.jpg,Red_Star_Dots_4.jpg,left,776.0750000015832,true,high,NA,NA,NA,NA,NA,NA,NA,false
fegGF7uT,3y3czjszan6hsnojzw5z9ps3vnar5b,3azhrg4cu8xs1yfai23tzgpnvu303d,fegGF7uT,2020-0188,2020-06-04,14:22:07,14:52:12,NA,incomplete,36,filling,1,1,left,Green_Triangle_Stripes_1.jpg,Red_Circle_Stripes_3.jpg,Green_Star_Chess_4.jpg,left,1158.8249999913387,true,high,NA,NA,NA,NA,NA,NA,NA,false
fegGF7uT,3y3czjszan6hsnojzw5z9ps3vnar5b,3azhrg4cu8xs1yfai23tzgpnvu303d,fegGF7uT,2020-0188,2020-06-04,14:22:07,14:52:12,NA,incomplete,37,filling,1,1,right,Purple_Star_Dots_3.jpg,Purple_Triangle_Stripes_2.jpg,Blue_Plus_Dots_1.jpg,right,780.7299999985844,true,high,NA,NA,NA,NA,NA,NA,NA,false
fegGF7uT,3y3czjszan6hsnojzw5z9ps3vnar5b,3azhrg4cu8xs1yfai23tzgpnvu303d,fegGF7uT,2020-0188,2020-06-04,14:22:07,14:52:12,NA,incomplete,38,filling,1,1,left,Green_Triangle_Stripes_1.jpg,Blue_Star_Stripes_4.jpg,Green_Circle_Chess_3.jpg,left,913.9450000366196,true,high,NA,NA,NA,NA,NA,NA,NA,false
fegGF7uT,3y3czjszan6hsnojzw5z9ps3vnar5b,3azhrg4cu8xs1yfai23tzgpnvu303d,fegGF7uT,2020-0188,2020-06-04,14:22:07,14:52:12,NA,incomplete,39,filling,1,1,right,Red_Triangle_Stripes_1.jpg,Red_Star_Dots_4.jpg,Green_Plus_Stripes_2.jpg,right,786.0299999592826,true,high,NA,NA,NA,NA,NA,NA,NA,false
fegGF7uT,3y3czjszan6hsnojzw5z9ps3vnar5b,3azhrg4cu8xs1yfai23tzgpnvu303d,fegGF7uT,2020-0188,2020-06-04,14:22:07,14:52:12,NA,incomplete,40,color,0,0,right,Blue_Triangle_Stripes_4.jpg,Green_Star_Stripes_3.jpg,Blue_Plus_Chess_1.jpg,left,686.9099999894388,false,high,NA,NA,NA,NA,NA,NA,NA,false
fegGF7uT,3y3czjszan6hsnojzw5z9ps3vnar5b,3azhrg4cu8xs1yfai23tzgpnvu303d,fegGF7uT,2020-0188,2020-06-04,14:22:07,14:52:12,NA,incomplete,41,color,0,1,left,Blue_Star_Chess_2.jpg,Blue_Circle_Stripes_3.jpg,Green_Triangle_Chess_4.jpg,right,903.9800000027753,false,high,NA,NA,NA,NA,NA,NA,NA,false
fegGF7uT,3y3czjszan6hsnojzw5z9ps3vnar5b,3azhrg4cu8xs1yfai23tzgpnvu303d,fegGF7uT,2020-0188,2020-06-04,14:22:07,14:52:12,NA,incomplete,42,color,0,0,left,Purple_Circle_Dots_4.jpg,Purple_Star_Grid_3.jpg,Green_Plus_Dots_1.jpg,right,781.6899999743327,false,high,NA,NA,NA,NA,NA,NA,NA,false
fegGF7uT,3y3czjszan6hsnojzw5z9ps3vnar5b,3azhrg4cu8xs1yfai23tzgpnvu303d,fegGF7uT,2020-0188,2020-06-04,14:22:07,14:52:12,NA,incomplete,43,color,0,0,right,Blue_Circle_Chess_1.jpg,Green_Triangle_Chess_2.jpg,Blue_Star_Grid_3.jpg,left,844.1100000054576,false,high,NA,NA,NA,NA,NA,NA,NA,false
fegGF7uT,3y3czjszan6hsnojzw5z9ps3vnar5b,3azhrg4cu8xs1yfai23tzgpnvu303d,fegGF7uT,2020-0188,2020-06-04,14:22:07,14:52:12,NA,incomplete,44,color,0,1,left,Purple_Triangle_Stripes_1.jpg,Purple_Plus_Chess_4.jpg,Blue_Circle_Stripes_3.jpg,right,790.4899999848567,false,high,NA,NA,NA,NA,NA,NA,NA,false
fegGF7uT,3y3czjszan6hsnojzw5z9ps3vnar5b,3azhrg4cu8xs1yfai23tzgpnvu303d,fegGF7uT,2020-0188,2020-06-04,14:22:07,14:52:12,NA,incomplete,45,color,0,1,left,Green_Circle_Chess_4.jpg,Green_Plus_Stripes_1.jpg,Red_Star_Chess_3.jpg,right,834.4949999591336,false,high,NA,NA,NA,NA,NA,NA,NA,false
fegGF7uT,3y3czjszan6hsnojzw5z9ps3vnar5b,3azhrg4cu8xs1yfai23tzgpnvu303d,fegGF7uT,2020-0188,2020-06-04,14:22:07,14:52:12,NA,incomplete,46,color,0,1,left,Red_Star_Chess_3.jpg,Red_Plus_Grid_2.jpg,Blue_Circle_Chess_4.jpg,right,902.8050000197254,false,high,NA,NA,NA,NA,NA,NA,NA,false
fegGF7uT,3y3czjszan6hsnojzw5z9ps3vnar5b,3azhrg4cu8xs1yfai23tzgpnvu303d,fegGF7uT,2020-0188,2020-06-04,14:22:07,14:52:12,NA,incomplete,47,color,0,1,left,Blue_Circle_Grid_3.jpg,Blue_Plus_Chess_1.jpg,Green_Triangle_Grid_2.jpg,left,487.1049999492243,true,high,NA,NA,NA,NA,NA,NA,NA,false
fegGF7uT,3y3czjszan6hsnojzw5z9ps3vnar5b,3azhrg4cu8xs1yfai23tzgpnvu303d,fegGF7uT,2020-0188,2020-06-04,14:22:07,14:52:12,NA,incomplete,48,color,0,1,left,Purple_Circle_Chess_2.jpg,Purple_Plus_Dots_3.jpg,Red_Star_Chess_4.jpg,left,461.06499998131767,true,high,NA,NA,NA,NA,NA,NA,NA,false
fegGF7uT,3y3czjszan6hsnojzw5z9ps3vnar5b,3azhrg4cu8xs1yfai23tzgpnvu303d,fegGF7uT,2020-0188,2020-06-04,14:22:07,14:52:12,NA,incomplete,49,color,0,1,left,Red_Star_Chess_2.jpg,Red_Plus_Grid_4.jpg,Purple_Triangle_Chess_3.jpg,left,545.9450000198558,true,high,NA,NA,NA,NA,NA,NA,NA,false
fegGF7uT,3y3czjszan6hsnojzw5z9ps3vnar5b,3azhrg4cu8xs1yfai23tzgpnvu303d,fegGF7uT,2020-0188,2020-06-04,14:22:07,14:52:12,NA,incomplete,50,filling,1,1,right,Purple_Plus_Grid_3.jpg,Purple_Triangle_Dots_2.jpg,Blue_Star_Grid_4.jpg,left,404.8649999895133,false,high,NA,NA,NA,NA,NA,NA,NA,false
fegGF7uT,3y3czjszan6hsnojzw5z9ps3vnar5b,3azhrg4cu8xs1yfai23tzgpnvu303d,fegGF7uT,2020-0188,2020-06-04,14:22:07,14:52:12,NA,incomplete,51,filling,1,1,right,Green_Star_Stripes_2.jpg,Green_Triangle_Dots_3.jpg,Blue_Plus_Stripes_1.jpg,left,368.52999997790903,false,high,NA,NA,NA,NA,NA,NA,NA,false
fegGF7uT,3y3czjszan6hsnojzw5z9ps3vnar5b,3azhrg4cu8xs1yfai23tzgpnvu303d,fegGF7uT,2020-0188,2020-06-04,14:22:07,14:52:12,NA,incomplete,52,filling,1,1,left,Green_Plus_Stripes_1.jpg,Purple_Triangle_Stripes_2.jpg,Green_Circle_Chess_3.jpg,right,470.8499999833293,false,high,NA,NA,NA,NA,NA,NA,NA,false
fegGF7uT,3y3czjszan6hsnojzw5z9ps3vnar5b,3azhrg4cu8xs1yfai23tzgpnvu303d,fegGF7uT,2020-0188,2020-06-04,14:22:07,14:52:12,NA,incomplete,53,filling,1,1,left,Purple_Circle_Dots_1.jpg,Blue_Star_Dots_3.jpg,Purple_Triangle_Stripes_4.jpg,right,595.7349999807775,false,high,NA,NA,NA,NA,NA,NA,NA,false
fegGF7uT,3y3czjszan6hsnojzw5z9ps3vnar5b,3azhrg4cu8xs1yfai23tzgpnvu303d,fegGF7uT,2020-0188,2020-06-04,14:22:07,14:52:12,NA,incomplete,54,filling,1,0,left,Blue_Triangle_Dots_4.jpg,Purple_Plus_Dots_3.jpg,Blue_Circle_Stripes_2.jpg,left,774.1050000186078,true,high,NA,NA,NA,NA,NA,NA,NA,false
fegGF7uT,3y3czjszan6hsnojzw5z9ps3vnar5b,3azhrg4cu8xs1yfai23tzgpnvu303d,fegGF7uT,2020-0188,2020-06-04,14:22:07,14:52:12,NA,incomplete,55,filling,1,1,left,Blue_Star_Grid_3.jpg,Purple_Plus_Grid_1.jpg,Blue_Triangle_Stripes_2.jpg,left,1296.0549999843352,true,high,NA,NA,NA,NA,NA,NA,NA,false
fegGF7uT,3y3czjszan6hsnojzw5z9ps3vnar5b,3azhrg4cu8xs1yfai23tzgpnvu303d,fegGF7uT,2020-0188,2020-06-04,14:22:07,14:52:12,NA,incomplete,56,filling,1,1,right,Purple_Triangle_Dots_4.jpg,Purple_Circle_Stripes_3.jpg,Blue_Star_Dots_2.jpg,right,706.0549999587238,true,high,NA,NA,NA,NA,NA,NA,NA,false
fegGF7uT,3y3czjszan6hsnojzw5z9ps3vnar5b,3azhrg4cu8xs1yfai23tzgpnvu303d,fegGF7uT,2020-0188,2020-06-04,14:22:07,14:52:12,NA,incomplete,57,filling,1,1,left,Green_Star_Chess_4.jpg,Blue_Plus_Chess_1.jpg,Green_Triangle_Grid_2.jpg,left,770.1200000010431,true,high,NA,NA,NA,NA,NA,NA,NA,false
fegGF7uT,3y3czjszan6hsnojzw5z9ps3vnar5b,3azhrg4cu8xs1yfai23tzgpnvu303d,fegGF7uT,2020-0188,2020-06-04,14:22:07,14:52:12,NA,incomplete,58,filling,1,1,right,Green_Circle_Stripes_3.jpg,Green_Star_Grid_2.jpg,Red_Triangle_Stripes_1.jpg,right,742.3949999501929,true,high,NA,NA,NA,NA,NA,NA,NA,false
fegGF7uT,3y3czjszan6hsnojzw5z9ps3vnar5b,3azhrg4cu8xs1yfai23tzgpnvu303d,fegGF7uT,2020-0188,2020-06-04,14:22:07,14:52:12,NA,incomplete,59,filling,1,0,right,Purple_Circle_Chess_1.jpg,Purple_Triangle_Dots_4.jpg,Red_Plus_Chess_2.jpg,right,633.7400000193156,true,high,NA,NA,NA,NA,NA,NA,NA,false
fegGF7uT,3y3czjszan6hsnojzw5z9ps3vnar5b,3azhrg4cu8xs1yfai23tzgpnvu303d,fegGF7uT,2020-0188,2020-06-04,14:22:07,14:52:12,NA,incomplete,60,color,0,1,right,Red_Plus_Chess_2.jpg,Blue_Triangle_Chess_4.jpg,Red_Circle_Stripes_1.jpg,left,695.8500000182539,false,high,NA,NA,NA,NA,NA,NA,NA,false
fegGF7uT,3y3czjszan6hsnojzw5z9ps3vnar5b,3azhrg4cu8xs1yfai23tzgpnvu303d,fegGF7uT,2020-0188,2020-06-04,14:22:07,14:52:12,NA,incomplete,61,color,0,1,left,Green_Star_Grid_3.jpg,Green_Circle_Chess_1.jpg,Red_Plus_Grid_2.jpg,right,751.9050000119023,false,high,NA,NA,NA,NA,NA,NA,NA,false
fegGF7uT,3y3czjszan6hsnojzw5z9ps3vnar5b,3azhrg4cu8xs1yfai23tzgpnvu303d,fegGF7uT,2020-0188,2020-06-04,14:22:07,14:52:12,NA,incomplete,62,color,0,0,left,Red_Plus_Grid_2.jpg,Red_Star_Chess_3.jpg,Blue_Circle_Grid_4.jpg,right,685.8549999888055,false,high,NA,NA,NA,NA,NA,NA,NA,false
fegGF7uT,3y3czjszan6hsnojzw5z9ps3vnar5b,3azhrg4cu8xs1yfai23tzgpnvu303d,fegGF7uT,2020-0188,2020-06-04,14:22:07,14:52:12,NA,incomplete,63,color,0,1,right,Red_Plus_Dots_2.jpg,Blue_Triangle_Dots_1.jpg,Red_Circle_Chess_3.jpg,left,974.2950000218116,false,high,NA,NA,NA,NA,NA,NA,NA,false
fegGF7uT,3y3czjszan6hsnojzw5z9ps3vnar5b,3azhrg4cu8xs1yfai23tzgpnvu303d,fegGF7uT,2020-0188,2020-06-04,14:22:07,14:52:12,NA,incomplete,64,color,0,1,left,Green_Star_Grid_1.jpg,Green_Plus_Dots_3.jpg,Purple_Circle_Grid_2.jpg,left,431.4400000148453,true,high,NA,NA,NA,NA,NA,NA,NA,false
fegGF7uT,3y3czjszan6hsnojzw5z9ps3vnar5b,3azhrg4cu8xs1yfai23tzgpnvu303d,fegGF7uT,2020-0188,2020-06-04,14:22:07,14:52:12,NA,incomplete,65,color,0,1,right,Green_Triangle_Stripes_2.jpg,Blue_Plus_Stripes_3.jpg,Green_Circle_Chess_4.jpg,right,348.0900000431575,true,high,NA,NA,NA,NA,NA,NA,NA,false
fegGF7uT,3y3czjszan6hsnojzw5z9ps3vnar5b,3azhrg4cu8xs1yfai23tzgpnvu303d,fegGF7uT,2020-0188,2020-06-04,14:22:07,14:52:12,NA,incomplete,66,color,0,0,left,Blue_Circle_Dots_2.jpg,Blue_Triangle_Stripes_3.jpg,Red_Plus_Dots_4.jpg,left,378.3300000359304,true,high,NA,NA,NA,NA,NA,NA,NA,false
fegGF7uT,3y3czjszan6hsnojzw5z9ps3vnar5b,3azhrg4cu8xs1yfai23tzgpnvu303d,fegGF7uT,2020-0188,2020-06-04,14:22:07,14:52:12,NA,incomplete,67,color,0,1,left,Red_Triangle_Grid_4.jpg,Red_Circle_Dots_1.jpg,Purple_Star_Grid_3.jpg,left,580.4749999660999,true,high,NA,NA,NA,NA,NA,NA,NA,false
fegGF7uT,3y3czjszan6hsnojzw5z9ps3vnar5b,3azhrg4cu8xs1yfai23tzgpnvu303d,fegGF7uT,2020-0188,2020-06-04,14:22:07,14:52:12,NA,incomplete,68,color,0,1,right,Purple_Star_Dots_1.jpg,Red_Triangle_Dots_3.jpg,Purple_Plus_Stripes_4.jpg,right,400.94500000122935,true,high,NA,NA,NA,NA,NA,NA,NA,false
fegGF7uT,3y3czjszan6hsnojzw5z9ps3vnar5b,3azhrg4cu8xs1yfai23tzgpnvu303d,fegGF7uT,2020-0188,2020-06-04,14:22:07,14:52:12,NA,incomplete,69,color,0,1,right,Blue_Circle_Stripes_2.jpg,Purple_Star_Stripes_4.jpg,Blue_Plus_Chess_3.jpg,right,436.78500002715737,true,high,NA,NA,NA,NA,NA,NA,NA,false
fegGF7uT,3y3czjszan6hsnojzw5z9ps3vnar5b,3azhrg4cu8xs1yfai23tzgpnvu303d,fegGF7uT,2020-0188,2020-06-04,14:22:07,14:52:12,NA,incomplete,70,filling,1,1,right,Green_Circle_Stripes_2.jpg,Green_Plus_Chess_3.jpg,Red_Star_Stripes_4.jpg,left,367.1400000457652,false,high,NA,NA,NA,NA,NA,NA,NA,false
fegGF7uT,3y3czjszan6hsnojzw5z9ps3vnar5b,3azhrg4cu8xs1yfai23tzgpnvu303d,fegGF7uT,2020-0188,2020-06-04,14:22:07,14:52:12,NA,incomplete,71,filling,1,1,right,Red_Star_Dots_2.jpg,Red_Circle_Stripes_3.jpg,Blue_Triangle_Dots_4.jpg,left,461.3699999754317,false,high,NA,NA,NA,NA,NA,NA,NA,false
fegGF7uT,3y3czjszan6hsnojzw5z9ps3vnar5b,3azhrg4cu8xs1yfai23tzgpnvu303d,fegGF7uT,2020-0188,2020-06-04,14:22:07,14:52:12,NA,incomplete,72,filling,1,1,left,Red_Triangle_Stripes_1.jpg,Green_Circle_Stripes_2.jpg,Red_Star_Chess_4.jpg,right,360.964999999851,false,high,NA,NA,NA,NA,NA,NA,NA,false
fegGF7uT,3y3czjszan6hsnojzw5z9ps3vnar5b,3azhrg4cu8xs1yfai23tzgpnvu303d,fegGF7uT,2020-0188,2020-06-04,14:22:07,14:52:12,NA,incomplete,73,filling,1,1,left,Red_Triangle_Chess_3.jpg,Green_Star_Chess_2.jpg,Red_Circle_Grid_4.jpg,right,359.9149999790825,false,high,NA,NA,NA,NA,NA,NA,NA,false
fegGF7uT,3y3czjszan6hsnojzw5z9ps3vnar5b,3azhrg4cu8xs1yfai23tzgpnvu303d,fegGF7uT,2020-0188,2020-06-04,14:22:07,14:52:12,NA,incomplete,74,filling,1,0,right,Red_Star_Dots_2.jpg,Red_Circle_Grid_1.jpg,Blue_Triangle_Dots_4.jpg,left,376.7750000115484,false,high,NA,NA,NA,NA,NA,NA,NA,false
fegGF7uT,3y3czjszan6hsnojzw5z9ps3vnar5b,3azhrg4cu8xs1yfai23tzgpnvu303d,fegGF7uT,2020-0188,2020-06-04,14:22:07,14:52:12,NA,incomplete,75,filling,1,1,right,Blue_Plus_Dots_2.jpg,Blue_Triangle_Grid_3.jpg,Red_Circle_Dots_4.jpg,left,338.019999966491,false,high,NA,NA,NA,NA,NA,NA,NA,false
fegGF7uT,3y3czjszan6hsnojzw5z9ps3vnar5b,3azhrg4cu8xs1yfai23tzgpnvu303d,fegGF7uT,2020-0188,2020-06-04,14:22:07,14:52:12,NA,incomplete,76,filling,1,1,left,Purple_Star_Chess_2.jpg,Red_Triangle_Chess_1.jpg,Purple_Plus_Stripes_3.jpg,right,405.62999999383464,false,high,NA,NA,NA,NA,NA,NA,NA,false
fegGF7uT,3y3czjszan6hsnojzw5z9ps3vnar5b,3azhrg4cu8xs1yfai23tzgpnvu303d,fegGF7uT,2020-0188,2020-06-04,14:22:07,14:52:12,NA,incomplete,77,filling,1,1,left,Red_Triangle_Stripes_3.jpg,Purple_Plus_Stripes_2.jpg,Red_Star_Chess_1.jpg,right,534.9050000077114,false,high,NA,NA,NA,NA,NA,NA,NA,false
fegGF7uT,3y3czjszan6hsnojzw5z9ps3vnar5b,3azhrg4cu8xs1yfai23tzgpnvu303d,fegGF7uT,2020-0188,2020-06-04,14:22:07,14:52:12,NA,incomplete,78,filling,1,0,right,Blue_Triangle_Dots_4.jpg,Blue_Star_Stripes_1.jpg,Red_Circle_Dots_2.jpg,left,406.9949999684468,false,high,NA,NA,NA,NA,NA,NA,NA,false
fegGF7uT,3y3czjszan6hsnojzw5z9ps3vnar5b,3azhrg4cu8xs1yfai23tzgpnvu303d,fegGF7uT,2020-0188,2020-06-04,14:22:07,14:52:12,NA,incomplete,79,filling,1,1,right,Purple_Star_Dots_2.jpg,Purple_Circle_Chess_1.jpg,Green_Triangle_Dots_4.jpg,left,490.8900000154972,false,high,NA,NA,NA,NA,NA,NA,NA,false
fegGF7uT,3y3czjszan6hsnojzw5z9ps3vnar5b,3azhrg4cu8xs1yfai23tzgpnvu303d,fegGF7uT,2020-0188,2020-06-04,14:22:07,14:52:12,NA,incomplete,80,color,0,0,left,Red_Plus_Stripes_2.jpg,Red_Star_Grid_4.jpg,Purple_Triangle_Stripes_3.jpg,left,374.4849999784492,true,high,NA,NA,NA,NA,NA,NA,NA,false
fegGF7uT,3y3czjszan6hsnojzw5z9ps3vnar5b,3azhrg4cu8xs1yfai23tzgpnvu303d,fegGF7uT,2020-0188,2020-06-04,14:22:07,14:52:12,NA,incomplete,81,color,0,0,right,Purple_Circle_Chess_1.jpg,Blue_Triangle_Chess_2.jpg,Purple_Plus_Grid_4.jpg,right,394.43999994546175,true,high,NA,NA,NA,NA,NA,NA,NA,false
fegGF7uT,3y3czjszan6hsnojzw5z9ps3vnar5b,3azhrg4cu8xs1yfai23tzgpnvu303d,fegGF7uT,2020-0188,2020-06-04,14:22:07,14:52:12,NA,incomplete,82,color,0,1,right,Blue_Triangle_Dots_2.jpg,Green_Star_Dots_1.jpg,Blue_Plus_Chess_3.jpg,left,754.3200000072829,false,high,NA,NA,NA,NA,NA,NA,NA,false
fegGF7uT,3y3czjszan6hsnojzw5z9ps3vnar5b,3azhrg4cu8xs1yfai23tzgpnvu303d,fegGF7uT,2020-0188,2020-06-04,14:22:07,14:52:12,NA,incomplete,83,color,0,1,right,Purple_Star_Dots_2.jpg,Red_Plus_Dots_1.jpg,Purple_Triangle_Stripes_4.jpg,left,748.4849999891594,false,high,NA,NA,NA,NA,NA,NA,NA,false
fegGF7uT,3y3czjszan6hsnojzw5z9ps3vnar5b,3azhrg4cu8xs1yfai23tzgpnvu303d,fegGF7uT,2020-0188,2020-06-04,14:22:07,14:52:12,NA,incomplete,84,color,0,1,right,Green_Plus_Stripes_1.jpg,Purple_Star_Stripes_4.jpg,Green_Circle_Dots_2.jpg,left,685.8249999932013,false,high,NA,NA,NA,NA,NA,NA,NA,false
fegGF7uT,3y3czjszan6hsnojzw5z9ps3vnar5b,3azhrg4cu8xs1yfai23tzgpnvu303d,fegGF7uT,2020-0188,2020-06-04,14:22:07,14:52:12,NA,incomplete,85,color,0,1,right,Purple_Star_Dots_2.jpg,Red_Circle_Dots_1.jpg,Purple_Plus_Grid_3.jpg,right,408.2349999807775,true,high,NA,NA,NA,NA,NA,NA,NA,false
fegGF7uT,3y3czjszan6hsnojzw5z9ps3vnar5b,3azhrg4cu8xs1yfai23tzgpnvu303d,fegGF7uT,2020-0188,2020-06-04,14:22:07,14:52:12,NA,incomplete,86,color,0,1,right,Purple_Triangle_Stripes_2.jpg,Green_Circle_Stripes_3.jpg,Purple_Star_Grid_1.jpg,right,382.13000004179776,true,high,NA,NA,NA,NA,NA,NA,NA,false
fegGF7uT,3y3czjszan6hsnojzw5z9ps3vnar5b,3azhrg4cu8xs1yfai23tzgpnvu303d,fegGF7uT,2020-0188,2020-06-04,14:22:07,14:52:12,NA,incomplete,87,color,0,1,right,Purple_Triangle_Dots_3.jpg,Red_Star_Dots_2.jpg,Purple_Plus_Stripes_4.jpg,right,400.4499999573454,true,high,NA,NA,NA,NA,NA,NA,NA,false
fegGF7uT,3y3czjszan6hsnojzw5z9ps3vnar5b,3azhrg4cu8xs1yfai23tzgpnvu303d,fegGF7uT,2020-0188,2020-06-04,14:22:07,14:52:12,NA,incomplete,88,color,0,1,left,Purple_Star_Grid_2.jpg,Purple_Circle_Stripes_1.jpg,Red_Plus_Grid_3.jpg,left,394.0350000048056,true,high,NA,NA,NA,NA,NA,NA,NA,false
fegGF7uT,3y3czjszan6hsnojzw5z9ps3vnar5b,3azhrg4cu8xs1yfai23tzgpnvu303d,fegGF7uT,2020-0188,2020-06-04,14:22:07,14:52:12,NA,incomplete,89,color,0,1,left,Blue_Star_Grid_3.jpg,Blue_Circle_Stripes_2.jpg,Red_Triangle_Grid_4.jpg,left,417.8649999666959,true,high,NA,NA,NA,NA,NA,NA,NA,false
fegGF7uT,3y3czjszan6hsnojzw5z9ps3vnar5b,3azhrg4cu8xs1yfai23tzgpnvu303d,fegGF7uT,2020-0188,2020-06-04,14:22:07,14:52:12,NA,incomplete,90,filling,1,1,right,Green_Star_Chess_1.jpg,Green_Plus_Dots_3.jpg,Blue_Circle_Chess_2.jpg,left,343.0899999802932,false,high,NA,NA,NA,NA,NA,NA,NA,false
fegGF7uT,3y3czjszan6hsnojzw5z9ps3vnar5b,3azhrg4cu8xs1yfai23tzgpnvu303d,fegGF7uT,2020-0188,2020-06-04,14:22:07,14:52:12,NA,incomplete,91,filling,1,1,left,Purple_Circle_Chess_3.jpg,Red_Star_Chess_4.jpg,Purple_Plus_Grid_1.jpg,right,521.4350000023842,false,high,NA,NA,NA,NA,NA,NA,NA,false
fegGF7uT,3y3czjszan6hsnojzw5z9ps3vnar5b,3azhrg4cu8xs1yfai23tzgpnvu303d,fegGF7uT,2020-0188,2020-06-04,14:22:07,14:52:12,NA,incomplete,92,filling,1,1,left,Red_Plus_Grid_4.jpg,Green_Triangle_Grid_2.jpg,Red_Star_Dots_1.jpg,right,511.850000009872,false,high,NA,NA,NA,NA,NA,NA,NA,false
fegGF7uT,3y3czjszan6hsnojzw5z9ps3vnar5b,3azhrg4cu8xs1yfai23tzgpnvu303d,fegGF7uT,2020-0188,2020-06-04,14:22:07,14:52:12,NA,incomplete,93,filling,1,1,left,Blue_Star_Dots_4.jpg,Red_Triangle_Dots_3.jpg,Blue_Circle_Grid_2.jpg,right,607.724999950733,false,high,NA,NA,NA,NA,NA,NA,NA,false
fegGF7uT,3y3czjszan6hsnojzw5z9ps3vnar5b,3azhrg4cu8xs1yfai23tzgpnvu303d,fegGF7uT,2020-0188,2020-06-04,14:22:07,14:52:12,NA,incomplete,94,filling,1,1,right,Green_Triangle_Stripes_3.jpg,Green_Star_Dots_2.jpg,Purple_Circle_Stripes_4.jpg,left,491.6450000018813,false,high,NA,NA,NA,NA,NA,NA,NA,false
fegGF7uT,3y3czjszan6hsnojzw5z9ps3vnar5b,3azhrg4cu8xs1yfai23tzgpnvu303d,fegGF7uT,2020-0188,2020-06-04,14:22:07,14:52:12,NA,incomplete,95,filling,1,1,left,Purple_Circle_Stripes_1.jpg,Green_Plus_Stripes_2.jpg,Purple_Star_Grid_4.jpg,right,491.6150000062771,false,high,NA,NA,NA,NA,NA,NA,NA,false
fegGF7uT,3y3czjszan6hsnojzw5z9ps3vnar5b,3azhrg4cu8xs1yfai23tzgpnvu303d,fegGF7uT,2020-0188,2020-06-04,14:22:07,14:52:12,NA,incomplete,96,filling,1,1,right,Purple_Circle_Dots_1.jpg,Purple_Triangle_Chess_4.jpg,Red_Star_Dots_2.jpg,left,617.9099999717437,false,high,NA,NA,NA,NA,NA,NA,NA,false
fegGF7uT,3y3czjszan6hsnojzw5z9ps3vnar5b,3azhrg4cu8xs1yfai23tzgpnvu303d,fegGF7uT,2020-0188,2020-06-04,14:22:07,14:52:12,NA,incomplete,97,filling,1,1,right,Purple_Plus_Chess_4.jpg,Purple_Star_Grid_1.jpg,Blue_Triangle_Chess_2.jpg,right,946.9150000368245,true,high,NA,NA,NA,NA,NA,NA,NA,false
fegGF7uT,3y3czjszan6hsnojzw5z9ps3vnar5b,3azhrg4cu8xs1yfai23tzgpnvu303d,fegGF7uT,2020-0188,2020-06-04,14:22:07,14:52:12,NA,incomplete,98,filling,1,0,right,Purple_Triangle_Grid_3.jpg,Purple_Circle_Stripes_4.jpg,Green_Plus_Grid_1.jpg,right,887.8350000013597,true,high,NA,NA,NA,NA,NA,NA,NA,false
fegGF7uT,3y3czjszan6hsnojzw5z9ps3vnar5b,3azhrg4cu8xs1yfai23tzgpnvu303d,fegGF7uT,2020-0188,2020-06-04,14:22:07,14:52:12,NA,incomplete,99,filling,1,1,left,Red_Plus_Grid_2.jpg,Blue_Triangle_Grid_1.jpg,Red_Star_Chess_4.jpg,left,841.0450000083074,true,high,NA,NA,NA,NA,NA,NA,NA,false
fegGF7uT,3y3czjszan6hsnojzw5z9ps3vnar5b,3azhrg4cu8xs1yfai23tzgpnvu303d,fegGF7uT,2020-0188,2020-06-04,14:22:07,14:52:12,NA,incomplete,100,color,0,1,right,Purple_Star_Dots_2.jpg,Green_Triangle_Dots_3.jpg,Purple_Plus_Chess_1.jpg,left,694.9499999755062,false,high,NA,NA,NA,NA,NA,NA,NA,false
fegGF7uT,3y3czjszan6hsnojzw5z9ps3vnar5b,3azhrg4cu8xs1yfai23tzgpnvu303d,fegGF7uT,2020-0188,2020-06-04,14:22:07,14:52:12,NA,incomplete,101,color,0,1,left,Red_Circle_Stripes_1.jpg,Red_Triangle_Grid_2.jpg,Green_Star_Stripes_4.jpg,right,655.1150000304915,false,high,NA,NA,NA,NA,NA,NA,NA,false
fegGF7uT,3y3czjszan6hsnojzw5z9ps3vnar5b,3azhrg4cu8xs1yfai23tzgpnvu303d,fegGF7uT,2020-0188,2020-06-04,14:22:07,14:52:12,NA,incomplete,102,color,0,1,left,Blue_Star_Dots_1.jpg,Blue_Circle_Chess_3.jpg,Purple_Plus_Dots_4.jpg,right,648.9449999644421,false,high,NA,NA,NA,NA,NA,NA,NA,false
fegGF7uT,3y3czjszan6hsnojzw5z9ps3vnar5b,3azhrg4cu8xs1yfai23tzgpnvu303d,fegGF7uT,2020-0188,2020-06-04,14:22:07,14:52:12,NA,incomplete,103,color,0,1,right,Blue_Circle_Chess_1.jpg,Green_Plus_Chess_4.jpg,Blue_Triangle_Stripes_2.jpg,right,395.72999998927116,true,high,NA,NA,NA,NA,NA,NA,NA,false
fegGF7uT,3y3czjszan6hsnojzw5z9ps3vnar5b,3azhrg4cu8xs1yfai23tzgpnvu303d,fegGF7uT,2020-0188,2020-06-04,14:22:07,14:52:12,NA,incomplete,104,color,0,1,left,Purple_Triangle_Stripes_3.jpg,Purple_Star_Grid_2.jpg,Green_Circle_Stripes_1.jpg,left,397.1550000132993,true,high,NA,NA,NA,NA,NA,NA,NA,false
fegGF7uT,3y3czjszan6hsnojzw5z9ps3vnar5b,3azhrg4cu8xs1yfai23tzgpnvu303d,fegGF7uT,2020-0188,2020-06-04,14:22:07,14:52:12,NA,incomplete,105,color,0,1,left,Blue_Plus_Stripes_2.jpg,Blue_Circle_Chess_3.jpg,Green_Triangle_Stripes_1.jpg,left,390.74499998241663,true,high,NA,NA,NA,NA,NA,NA,NA,false
fegGF7uT,3y3czjszan6hsnojzw5z9ps3vnar5b,3azhrg4cu8xs1yfai23tzgpnvu303d,fegGF7uT,2020-0188,2020-06-04,14:22:07,14:52:12,NA,incomplete,106,color,0,1,left,Blue_Triangle_Stripes_3.jpg,Blue_Plus_Dots_2.jpg,Red_Circle_Stripes_1.jpg,left,407.6999999815598,true,high,NA,NA,NA,NA,NA,NA,NA,false
fegGF7uT,3y3czjszan6hsnojzw5z9ps3vnar5b,3azhrg4cu8xs1yfai23tzgpnvu303d,fegGF7uT,2020-0188,2020-06-04,14:22:07,14:52:12,NA,incomplete,107,color,0,1,left,Red_Triangle_Chess_3.jpg,Red_Plus_Dots_1.jpg,Green_Star_Chess_2.jpg,right,359.3649999820627,false,high,NA,NA,NA,NA,NA,NA,NA,false
fegGF7uT,3y3czjszan6hsnojzw5z9ps3vnar5b,3azhrg4cu8xs1yfai23tzgpnvu303d,fegGF7uT,2020-0188,2020-06-04,14:22:07,14:52:12,NA,incomplete,108,color,0,1,left,Red_Triangle_Chess_2.jpg,Red_Plus_Dots_4.jpg,Purple_Star_Chess_3.jpg,left,358.1150000100024,true,high,NA,NA,NA,NA,NA,NA,NA,false
fegGF7uT,3y3czjszan6hsnojzw5z9ps3vnar5b,3azhrg4cu8xs1yfai23tzgpnvu303d,fegGF7uT,2020-0188,2020-06-04,14:22:07,14:52:12,NA,incomplete,109,color,0,0,left,Purple_Star_Chess_4.jpg,Purple_Circle_Stripes_1.jpg,Red_Triangle_Chess_2.jpg,left,415.8949999837205,true,high,NA,NA,NA,NA,NA,NA,NA,false
fegGF7uT,3y3czjszan6hsnojzw5z9ps3vnar5b,3azhrg4cu8xs1yfai23tzgpnvu303d,fegGF7uT,2020-0188,2020-06-04,14:22:07,14:52:12,NA,incomplete,110,filling,1,1,right,Red_Triangle_Stripes_4.jpg,Red_Circle_Dots_1.jpg,Purple_Star_Stripes_2.jpg,left,514.969999960158,false,high,NA,NA,NA,NA,NA,NA,NA,false
fegGF7uT,3y3czjszan6hsnojzw5z9ps3vnar5b,3azhrg4cu8xs1yfai23tzgpnvu303d,fegGF7uT,2020-0188,2020-06-04,14:22:07,14:52:12,NA,incomplete,111,filling,1,1,right,Purple_Plus_Chess_2.jpg,Purple_Star_Grid_1.jpg,Red_Triangle_Chess_3.jpg,left,413.8800000073388,false,high,NA,NA,NA,NA,NA,NA,NA,false
fegGF7uT,3y3czjszan6hsnojzw5z9ps3vnar5b,3azhrg4cu8xs1yfai23tzgpnvu303d,fegGF7uT,2020-0188,2020-06-04,14:22:07,14:52:12,NA,incomplete,112,filling,1,1,right,Purple_Triangle_Grid_4.jpg,Purple_Star_Dots_2.jpg,Blue_Circle_Grid_3.jpg,right,654.2550000012852,true,high,NA,NA,NA,NA,NA,NA,NA,false
fegGF7uT,3y3czjszan6hsnojzw5z9ps3vnar5b,3azhrg4cu8xs1yfai23tzgpnvu303d,fegGF7uT,2020-0188,2020-06-04,14:22:07,14:52:12,NA,incomplete,113,filling,1,1,left,Red_Star_Grid_2.jpg,Blue_Triangle_Grid_4.jpg,Red_Plus_Stripes_3.jpg,left,634.5299999811687,true,high,NA,NA,NA,NA,NA,NA,NA,false
fegGF7uT,3y3czjszan6hsnojzw5z9ps3vnar5b,3azhrg4cu8xs1yfai23tzgpnvu303d,fegGF7uT,2020-0188,2020-06-04,14:22:07,14:52:12,NA,incomplete,114,filling,1,1,left,Green_Triangle_Chess_4.jpg,Red_Plus_Chess_2.jpg,Green_Circle_Grid_3.jpg,left,647.069999948144,true,high,NA,NA,NA,NA,NA,NA,NA,false
fegGF7uT,3y3czjszan6hsnojzw5z9ps3vnar5b,3azhrg4cu8xs1yfai23tzgpnvu303d,fegGF7uT,2020-0188,2020-06-04,14:22:07,14:52:12,NA,incomplete,115,filling,1,0,left,Green_Plus_Stripes_2.jpg,Purple_Circle_Stripes_1.jpg,Green_Star_Grid_4.jpg,left,677.6800000225194,true,high,NA,NA,NA,NA,NA,NA,NA,false
fegGF7uT,3y3czjszan6hsnojzw5z9ps3vnar5b,3azhrg4cu8xs1yfai23tzgpnvu303d,fegGF7uT,2020-0188,2020-06-04,14:22:07,14:52:12,NA,incomplete,116,filling,1,0,right,Blue_Star_Grid_2.jpg,Blue_Plus_Dots_1.jpg,Red_Circle_Grid_3.jpg,left,664.0300000435673,false,high,NA,NA,NA,NA,NA,NA,NA,false
fegGF7uT,3y3czjszan6hsnojzw5z9ps3vnar5b,3azhrg4cu8xs1yfai23tzgpnvu303d,fegGF7uT,2020-0188,2020-06-04,14:22:07,14:52:12,NA,incomplete,117,filling,1,1,right,Purple_Star_Dots_4.jpg,Purple_Circle_Grid_3.jpg,Red_Plus_Dots_1.jpg,left,808.4249999956228,false,high,NA,NA,NA,NA,NA,NA,NA,false
fegGF7uT,3y3czjszan6hsnojzw5z9ps3vnar5b,3azhrg4cu8xs1yfai23tzgpnvu303d,fegGF7uT,2020-0188,2020-06-04,14:22:07,14:52:12,NA,incomplete,118,filling,1,1,left,Red_Plus_Chess_4.jpg,Green_Circle_Chess_1.jpg,Red_Triangle_Stripes_2.jpg,right,582.6349999988452,false,high,NA,NA,NA,NA,NA,NA,NA,false
fegGF7uT,3y3czjszan6hsnojzw5z9ps3vnar5b,3azhrg4cu8xs1yfai23tzgpnvu303d,fegGF7uT,2020-0188,2020-06-04,14:22:07,14:52:12,NA,incomplete,119,filling,1,1,left,Blue_Star_Dots_1.jpg,Red_Plus_Dots_3.jpg,Blue_Triangle_Grid_4.jpg,left,703.9699999731965,true,high,NA,NA,NA,NA,NA,NA,NA,false
fegGF7uT,3y3czjszan6hsnojzw5z9ps3vnar5b,3azhrg4cu8xs1yfai23tzgpnvu303d,fegGF7uT,2020-0188,2020-06-04,14:22:07,14:52:12,NA,incomplete,120,race,2,1,right,A_F_01.jpg,C_F_07.jpg,A_M_15.jpg,NA,NA,NA,high,NA,NA,NA,NA,NA,NA,NA,false
fegGF7uT,3y3czjszan6hsnojzw5z9ps3vnar5b,3azhrg4cu8xs1yfai23tzgpnvu303d,fegGF7uT,2020-0188,2020-06-04,14:22:07,14:52:12,NA,incomplete,121,race,2,1,left,C_F_13.jpg,C_M_08.jpg,A_F_06.jpg,right,1526.5950000029989,false,high,NA,NA,NA,NA,NA,NA,NA,false
fegGF7uT,3y3czjszan6hsnojzw5z9ps3vnar5b,3azhrg4cu8xs1yfai23tzgpnvu303d,fegGF7uT,2020-0188,2020-06-04,14:22:07,14:52:12,NA,incomplete,122,race,2,0,left,C_M_13.jpg,C_F_12.jpg,A_M_01.jpg,right,889.2249999917112,false,high,NA,NA,NA,NA,NA,NA,NA,false
fegGF7uT,3y3czjszan6hsnojzw5z9ps3vnar5b,3azhrg4cu8xs1yfai23tzgpnvu303d,fegGF7uT,2020-0188,2020-06-04,14:22:07,14:52:12,NA,incomplete,123,race,2,1,right,A_F_07.jpg,C_F_11.jpg,A_M_14.jpg,left,835.7550000073388,false,high,NA,NA,NA,NA,NA,NA,NA,false
fegGF7uT,3y3czjszan6hsnojzw5z9ps3vnar5b,3azhrg4cu8xs1yfai23tzgpnvu303d,fegGF7uT,2020-0188,2020-06-04,14:22:07,14:52:12,NA,incomplete,124,race,2,1,left,C_F_07.jpg,C_M_03.jpg,A_F_10.jpg,right,834.4299999880604,false,high,NA,NA,NA,NA,NA,NA,NA,false
fegGF7uT,3y3czjszan6hsnojzw5z9ps3vnar5b,3azhrg4cu8xs1yfai23tzgpnvu303d,fegGF7uT,2020-0188,2020-06-04,14:22:07,14:52:12,NA,incomplete,125,race,2,1,left,A_M_12.jpg,A_F_03.jpg,C_M_11.jpg,left,1094.2250000080094,true,high,NA,NA,NA,NA,NA,NA,NA,false
fegGF7uT,3y3czjszan6hsnojzw5z9ps3vnar5b,3azhrg4cu8xs1yfai23tzgpnvu303d,fegGF7uT,2020-0188,2020-06-04,14:22:07,14:52:12,NA,incomplete,126,race,2,0,right,A_M_03.jpg,C_M_05.jpg,A_F_09.jpg,left,754.7650000196882,false,high,NA,NA,NA,NA,NA,NA,NA,false
fegGF7uT,3y3czjszan6hsnojzw5z9ps3vnar5b,3azhrg4cu8xs1yfai23tzgpnvu303d,fegGF7uT,2020-0188,2020-06-04,14:22:07,14:52:12,NA,incomplete,127,race,2,1,right,C_F_13.jpg,A_F_07.jpg,C_M_16.jpg,left,1493.354999984149,false,high,NA,NA,NA,NA,NA,NA,NA,false
fegGF7uT,3y3czjszan6hsnojzw5z9ps3vnar5b,3azhrg4cu8xs1yfai23tzgpnvu303d,fegGF7uT,2020-0188,2020-06-04,14:22:07,14:52:12,NA,incomplete,128,race,2,0,left,C_M_01.jpg,C_F_02.jpg,A_M_06.jpg,left,1009.699999995064,true,high,NA,NA,NA,NA,NA,NA,NA,false
fegGF7uT,3y3czjszan6hsnojzw5z9ps3vnar5b,3azhrg4cu8xs1yfai23tzgpnvu303d,fegGF7uT,2020-0188,2020-06-04,14:22:07,14:52:12,NA,incomplete,129,race,2,1,right,A_M_11.jpg,C_M_07.jpg,A_F_12.jpg,right,998.0649999924935,true,high,NA,NA,NA,NA,NA,NA,NA,false
fegGF7uT,3y3czjszan6hsnojzw5z9ps3vnar5b,3azhrg4cu8xs1yfai23tzgpnvu303d,fegGF7uT,2020-0188,2020-06-04,14:22:07,14:52:12,NA,incomplete,130,race,2,0,left,C_F_02.jpg,C_M_04.jpg,A_F_11.jpg,left,922.5899999728426,true,high,NA,NA,NA,NA,NA,NA,NA,false
fegGF7uT,3y3czjszan6hsnojzw5z9ps3vnar5b,3azhrg4cu8xs1yfai23tzgpnvu303d,fegGF7uT,2020-0188,2020-06-04,14:22:07,14:52:12,NA,incomplete,131,race,2,1,left,C_F_06.jpg,C_M_13.jpg,A_F_15.jpg,left,874.3350000004284,true,high,NA,NA,NA,NA,NA,NA,NA,false
fegGF7uT,3y3czjszan6hsnojzw5z9ps3vnar5b,3azhrg4cu8xs1yfai23tzgpnvu303d,fegGF7uT,2020-0188,2020-06-04,14:22:07,14:52:12,NA,incomplete,132,race,2,1,left,A_M_07.jpg,A_F_03.jpg,C_M_12.jpg,left,1011.4550000289455,true,high,NA,NA,NA,NA,NA,NA,NA,false
fegGF7uT,3y3czjszan6hsnojzw5z9ps3vnar5b,3azhrg4cu8xs1yfai23tzgpnvu303d,fegGF7uT,2020-0188,2020-06-04,14:22:07,14:52:12,NA,incomplete,133,race,2,1,right,C_M_07.jpg,A_M_06.jpg,C_F_09.jpg,left,1556.2149999896064,false,high,NA,NA,NA,NA,NA,NA,NA,false
fegGF7uT,3y3czjszan6hsnojzw5z9ps3vnar5b,3azhrg4cu8xs1yfai23tzgpnvu303d,fegGF7uT,2020-0188,2020-06-04,14:22:07,14:52:12,NA,incomplete,134,race,2,1,left,C_M_06.jpg,C_F_09.jpg,A_M_13.jpg,left,934.3400000361726,true,high,NA,NA,NA,NA,NA,NA,NA,false
fegGF7uT,3y3czjszan6hsnojzw5z9ps3vnar5b,3azhrg4cu8xs1yfai23tzgpnvu303d,fegGF7uT,2020-0188,2020-06-04,14:22:07,14:52:12,NA,incomplete,135,race,2,1,left,A_M_07.jpg,A_F_04.jpg,C_M_12.jpg,left,844.7499999892898,true,high,NA,NA,NA,NA,NA,NA,NA,false
fegGF7uT,3y3czjszan6hsnojzw5z9ps3vnar5b,3azhrg4cu8xs1yfai23tzgpnvu303d,fegGF7uT,2020-0188,2020-06-04,14:22:07,14:52:12,NA,incomplete,136,race,2,1,left,C_M_14.jpg,C_F_05.jpg,A_M_06.jpg,left,882.4200000381097,true,high,NA,NA,NA,NA,NA,NA,NA,false
fegGF7uT,3y3czjszan6hsnojzw5z9ps3vnar5b,3azhrg4cu8xs1yfai23tzgpnvu303d,fegGF7uT,2020-0188,2020-06-04,14:22:07,14:52:12,NA,incomplete,137,race,2,0,left,A_M_01.jpg,A_F_16.jpg,C_M_11.jpg,left,748.7449999898672,true,high,NA,NA,NA,NA,NA,NA,NA,false
fegGF7uT,3y3czjszan6hsnojzw5z9ps3vnar5b,3azhrg4cu8xs1yfai23tzgpnvu303d,fegGF7uT,2020-0188,2020-06-04,14:22:07,14:52:12,NA,incomplete,138,race,2,1,left,A_F_03.jpg,A_M_16.jpg,C_F_10.jpg,left,1126.8149999668822,true,high,NA,NA,NA,NA,NA,NA,NA,false
fegGF7uT,3y3czjszan6hsnojzw5z9ps3vnar5b,3azhrg4cu8xs1yfai23tzgpnvu303d,fegGF7uT,2020-0188,2020-06-04,14:22:07,14:52:12,NA,incomplete,139,race,2,1,right,C_M_14.jpg,A_M_11.jpg,C_F_02.jpg,right,827.3599999956787,true,high,NA,NA,NA,NA,NA,NA,NA,false
fegGF7uT,3y3czjszan6hsnojzw5z9ps3vnar5b,3azhrg4cu8xs1yfai23tzgpnvu303d,fegGF7uT,2020-0188,2020-06-04,14:22:07,14:52:12,NA,incomplete,140,gender,3,1,right,A_F_11.jpg,A_M_06.jpg,C_F_12.jpg,left,921.3500000187196,false,high,NA,NA,NA,NA,NA,NA,NA,false
fegGF7uT,3y3czjszan6hsnojzw5z9ps3vnar5b,3azhrg4cu8xs1yfai23tzgpnvu303d,fegGF7uT,2020-0188,2020-06-04,14:22:07,14:52:12,NA,incomplete,141,gender,3,1,right,A_M_16.jpg,A_F_11.jpg,C_M_04.jpg,left,1000.6750000175089,false,high,NA,NA,NA,NA,NA,NA,NA,false
fegGF7uT,3y3czjszan6hsnojzw5z9ps3vnar5b,3azhrg4cu8xs1yfai23tzgpnvu303d,fegGF7uT,2020-0188,2020-06-04,14:22:07,14:52:12,NA,incomplete,142,gender,3,0,right,A_F_11.jpg,A_M_04.jpg,C_F_06.jpg,right,921.570000005886,true,high,NA,NA,NA,NA,NA,NA,NA,false
fegGF7uT,3y3czjszan6hsnojzw5z9ps3vnar5b,3azhrg4cu8xs1yfai23tzgpnvu303d,fegGF7uT,2020-0188,2020-06-04,14:22:07,14:52:12,NA,incomplete,143,gender,3,1,right,A_F_10.jpg,A_M_15.jpg,C_F_09.jpg,right,854.2299999971874,true,high,NA,NA,NA,NA,NA,NA,NA,false
fegGF7uT,3y3czjszan6hsnojzw5z9ps3vnar5b,3azhrg4cu8xs1yfai23tzgpnvu303d,fegGF7uT,2020-0188,2020-06-04,14:22:07,14:52:12,NA,incomplete,144,gender,3,1,left,C_M_14.jpg,A_M_05.jpg,C_F_11.jpg,left,1134.9100000225008,true,high,NA,NA,NA,NA,NA,NA,NA,false
fegGF7uT,3y3czjszan6hsnojzw5z9ps3vnar5b,3azhrg4cu8xs1yfai23tzgpnvu303d,fegGF7uT,2020-0188,2020-06-04,14:22:07,14:52:12,NA,incomplete,145,gender,3,1,right,A_F_11.jpg,A_M_13.jpg,C_F_06.jpg,right,696.0350000299513,true,high,NA,NA,NA,NA,NA,NA,NA,false
fegGF7uT,3y3czjszan6hsnojzw5z9ps3vnar5b,3azhrg4cu8xs1yfai23tzgpnvu303d,fegGF7uT,2020-0188,2020-06-04,14:22:07,14:52:12,NA,incomplete,146,gender,3,1,right,A_M_14.jpg,A_F_12.jpg,C_M_01.jpg,right,821.6200000024401,true,high,NA,NA,NA,NA,NA,NA,NA,false
fegGF7uT,3y3czjszan6hsnojzw5z9ps3vnar5b,3azhrg4cu8xs1yfai23tzgpnvu303d,fegGF7uT,2020-0188,2020-06-04,14:22:07,14:52:12,NA,incomplete,147,gender,3,1,left,C_M_06.jpg,A_M_05.jpg,C_F_12.jpg,left,777.9999999911524,true,high,NA,NA,NA,NA,NA,NA,NA,false
fegGF7uT,3y3czjszan6hsnojzw5z9ps3vnar5b,3azhrg4cu8xs1yfai23tzgpnvu303d,fegGF7uT,2020-0188,2020-06-04,14:22:07,14:52:12,NA,incomplete,148,gender,3,0,right,A_M_01.jpg,A_F_02.jpg,C_M_08.jpg,right,1144.41499998793,true,high,NA,NA,NA,NA,NA,NA,NA,false
fegGF7uT,3y3czjszan6hsnojzw5z9ps3vnar5b,3azhrg4cu8xs1yfai23tzgpnvu303d,fegGF7uT,2020-0188,2020-06-04,14:22:07,14:52:12,NA,incomplete,149,gender,3,1,left,A_F_14.jpg,C_F_08.jpg,A_M_05.jpg,left,798.6549999914132,true,high,NA,NA,NA,NA,NA,NA,NA,false
fegGF7uT,3y3czjszan6hsnojzw5z9ps3vnar5b,3azhrg4cu8xs1yfai23tzgpnvu303d,fegGF7uT,2020-0188,2020-06-04,14:22:07,14:52:12,NA,incomplete,150,gender,3,1,right,A_M_11.jpg,A_F_14.jpg,C_M_02.jpg,right,1325.3050000057556,true,high,NA,NA,NA,NA,NA,NA,NA,false
fegGF7uT,3y3czjszan6hsnojzw5z9ps3vnar5b,3azhrg4cu8xs1yfai23tzgpnvu303d,fegGF7uT,2020-0188,2020-06-04,14:22:07,14:52:12,NA,incomplete,151,gender,3,1,right,A_F_02.jpg,A_M_12.jpg,C_F_11.jpg,right,1031.4500000094995,true,high,NA,NA,NA,NA,NA,NA,NA,false
fegGF7uT,3y3czjszan6hsnojzw5z9ps3vnar5b,3azhrg4cu8xs1yfai23tzgpnvu303d,fegGF7uT,2020-0188,2020-06-04,14:22:07,14:52:12,NA,incomplete,152,gender,3,0,right,C_M_01.jpg,C_F_06.jpg,A_M_15.jpg,right,802.7899999869987,true,high,NA,NA,NA,NA,NA,NA,NA,false
fegGF7uT,3y3czjszan6hsnojzw5z9ps3vnar5b,3azhrg4cu8xs1yfai23tzgpnvu303d,fegGF7uT,2020-0188,2020-06-04,14:22:07,14:52:12,NA,incomplete,153,gender,3,1,left,C_M_16.jpg,A_M_02.jpg,C_F_13.jpg,left,807.0300000254065,true,high,NA,NA,NA,NA,NA,NA,NA,false
fegGF7uT,3y3czjszan6hsnojzw5z9ps3vnar5b,3azhrg4cu8xs1yfai23tzgpnvu303d,fegGF7uT,2020-0188,2020-06-04,14:22:07,14:52:12,NA,incomplete,154,gender,3,1,left,C_M_14.jpg,A_M_07.jpg,C_F_04.jpg,left,676.3350000255741,true,high,NA,NA,NA,NA,NA,NA,NA,false
fegGF7uT,3y3czjszan6hsnojzw5z9ps3vnar5b,3azhrg4cu8xs1yfai23tzgpnvu303d,fegGF7uT,2020-0188,2020-06-04,14:22:07,14:52:12,NA,incomplete,155,gender,3,1,right,A_F_08.jpg,A_M_11.jpg,C_F_13.jpg,left,750.6099999882281,false,high,NA,NA,NA,NA,NA,NA,NA,false
fegGF7uT,3y3czjszan6hsnojzw5z9ps3vnar5b,3azhrg4cu8xs1yfai23tzgpnvu303d,fegGF7uT,2020-0188,2020-06-04,14:22:07,14:52:12,NA,incomplete,156,gender,3,0,right,C_M_06.jpg,C_F_05.jpg,A_M_04.jpg,right,716.3200000068173,true,high,NA,NA,NA,NA,NA,NA,NA,false
fegGF7uT,3y3czjszan6hsnojzw5z9ps3vnar5b,3azhrg4cu8xs1yfai23tzgpnvu303d,fegGF7uT,2020-0188,2020-06-04,14:22:07,14:52:12,NA,incomplete,157,gender,3,1,left,A_F_06.jpg,C_F_15.jpg,A_M_07.jpg,left,990.1200000313111,true,high,NA,NA,NA,NA,NA,NA,NA,false
fegGF7uT,3y3czjszan6hsnojzw5z9ps3vnar5b,3azhrg4cu8xs1yfai23tzgpnvu303d,fegGF7uT,2020-0188,2020-06-04,14:22:07,14:52:12,NA,incomplete,158,gender,3,1,left,A_M_08.jpg,C_M_14.jpg,A_F_06.jpg,left,1552.9500000411645,true,high,NA,NA,NA,NA,NA,NA,NA,false
fegGF7uT,3y3czjszan6hsnojzw5z9ps3vnar5b,3azhrg4cu8xs1yfai23tzgpnvu303d,fegGF7uT,2020-0188,2020-06-04,14:22:07,14:52:12,NA,incomplete,159,gender,3,1,left,A_M_16.jpg,C_M_08.jpg,A_F_05.jpg,left,624.7849999926984,true,high,NA,NA,NA,NA,NA,NA,NA,false
fegGF7uT,3y3czjszan6hsnojzw5z9ps3vnar5b,3azhrg4cu8xs1yfai23tzgpnvu303d,fegGF7uT,2020-0188,2020-06-04,14:22:07,14:52:12,NA,incomplete,160,race,2,0,left,C_F_05.jpg,C_M_10.jpg,A_F_06.jpg,right,1196.924999996554,false,high,NA,NA,NA,NA,NA,NA,NA,false
fegGF7uT,3y3czjszan6hsnojzw5z9ps3vnar5b,3azhrg4cu8xs1yfai23tzgpnvu303d,fegGF7uT,2020-0188,2020-06-04,14:22:07,14:52:12,NA,incomplete,161,race,2,1,right,C_F_03.jpg,A_F_06.jpg,C_M_05.jpg,left,1028.7200000020675,false,high,NA,NA,NA,NA,NA,NA,NA,false
fegGF7uT,3y3czjszan6hsnojzw5z9ps3vnar5b,3azhrg4cu8xs1yfai23tzgpnvu303d,fegGF7uT,2020-0188,2020-06-04,14:22:07,14:52:12,NA,incomplete,162,race,2,1,left,C_F_08.jpg,C_M_12.jpg,A_F_16.jpg,right,976.6900000395253,false,high,NA,NA,NA,NA,NA,NA,NA,false
fegGF7uT,3y3czjszan6hsnojzw5z9ps3vnar5b,3azhrg4cu8xs1yfai23tzgpnvu303d,fegGF7uT,2020-0188,2020-06-04,14:22:07,14:52:12,NA,incomplete,163,race,2,1,right,A_M_10.jpg,C_M_06.jpg,A_F_11.jpg,right,1087.3399999691173,true,high,NA,NA,NA,NA,NA,NA,NA,false
fegGF7uT,3y3czjszan6hsnojzw5z9ps3vnar5b,3azhrg4cu8xs1yfai23tzgpnvu303d,fegGF7uT,2020-0188,2020-06-04,14:22:07,14:52:12,NA,incomplete,164,race,2,1,left,A_F_10.jpg,A_M_08.jpg,C_F_14.jpg,left,641.3000000175089,true,high,NA,NA,NA,NA,NA,NA,NA,false
fegGF7uT,3y3czjszan6hsnojzw5z9ps3vnar5b,3azhrg4cu8xs1yfai23tzgpnvu303d,fegGF7uT,2020-0188,2020-06-04,14:22:07,14:52:12,NA,incomplete,165,race,2,1,left,A_M_04.jpg,A_F_13.jpg,C_M_11.jpg,left,856.1799999442883,true,high,NA,NA,NA,NA,NA,NA,NA,false
fegGF7uT,3y3czjszan6hsnojzw5z9ps3vnar5b,3azhrg4cu8xs1yfai23tzgpnvu303d,fegGF7uT,2020-0188,2020-06-04,14:22:07,14:52:12,NA,incomplete,166,race,2,1,right,C_F_04.jpg,A_F_16.jpg,C_M_10.jpg,right,859.7749999607913,true,high,NA,NA,NA,NA,NA,NA,NA,false
fegGF7uT,3y3czjszan6hsnojzw5z9ps3vnar5b,3azhrg4cu8xs1yfai23tzgpnvu303d,fegGF7uT,2020-0188,2020-06-04,14:22:07,14:52:12,NA,incomplete,167,race,2,1,right,C_M_02.jpg,A_M_07.jpg,C_F_04.jpg,right,1088.579999981448,true,high,NA,NA,NA,NA,NA,NA,NA,false
fegGF7uT,3y3czjszan6hsnojzw5z9ps3vnar5b,3azhrg4cu8xs1yfai23tzgpnvu303d,fegGF7uT,2020-0188,2020-06-04,14:22:07,14:52:12,NA,incomplete,168,race,2,1,right,A_F_12.jpg,C_F_07.jpg,A_M_06.jpg,left,943.520000029821,false,high,NA,NA,NA,NA,NA,NA,NA,false
fegGF7uT,3y3czjszan6hsnojzw5z9ps3vnar5b,3azhrg4cu8xs1yfai23tzgpnvu303d,fegGF7uT,2020-0188,2020-06-04,14:22:07,14:52:12,NA,incomplete,169,race,2,1,left,C_M_04.jpg,C_F_03.jpg,A_M_09.jpg,left,776.5450000297278,true,high,NA,NA,NA,NA,NA,NA,NA,false
fegGF7uT,3y3czjszan6hsnojzw5z9ps3vnar5b,3azhrg4cu8xs1yfai23tzgpnvu303d,fegGF7uT,2020-0188,2020-06-04,14:22:07,14:52:12,NA,incomplete,170,race,2,1,right,A_F_16.jpg,C_F_07.jpg,A_M_06.jpg,right,868.964999972377,true,high,NA,NA,NA,NA,NA,NA,NA,false
fegGF7uT,3y3czjszan6hsnojzw5z9ps3vnar5b,3azhrg4cu8xs1yfai23tzgpnvu303d,fegGF7uT,2020-0188,2020-06-04,14:22:07,14:52:12,NA,incomplete,171,race,2,1,left,A_M_10.jpg,A_F_14.jpg,C_M_11.jpg,left,673.2900000060908,true,high,NA,NA,NA,NA,NA,NA,NA,false
fegGF7uT,3y3czjszan6hsnojzw5z9ps3vnar5b,3azhrg4cu8xs1yfai23tzgpnvu303d,fegGF7uT,2020-0188,2020-06-04,14:22:07,14:52:12,NA,incomplete,172,race,2,1,left,C_M_02.jpg,C_F_16.jpg,A_M_04.jpg,left,992.4549999996088,true,high,NA,NA,NA,NA,NA,NA,NA,false
fegGF7uT,3y3czjszan6hsnojzw5z9ps3vnar5b,3azhrg4cu8xs1yfai23tzgpnvu303d,fegGF7uT,2020-0188,2020-06-04,14:22:07,14:52:12,NA,incomplete,173,race,2,1,left,A_M_14.jpg,A_F_07.jpg,C_M_03.jpg,left,1876.1700000031851,true,high,NA,NA,NA,NA,NA,NA,NA,false
fegGF7uT,3y3czjszan6hsnojzw5z9ps3vnar5b,3azhrg4cu8xs1yfai23tzgpnvu303d,fegGF7uT,2020-0188,2020-06-04,14:22:07,14:52:12,NA,incomplete,174,race,2,0,left,C_M_04.jpg,C_F_13.jpg,A_M_08.jpg,left,701.1500000371598,true,high,NA,NA,NA,NA,NA,NA,NA,false
fegGF7uT,3y3czjszan6hsnojzw5z9ps3vnar5b,3azhrg4cu8xs1yfai23tzgpnvu303d,fegGF7uT,2020-0188,2020-06-04,14:22:07,14:52:12,NA,incomplete,175,race,2,1,left,C_M_01.jpg,C_F_05.jpg,A_M_13.jpg,left,1062.7600000007078,true,high,NA,NA,NA,NA,NA,NA,NA,false
fegGF7uT,3y3czjszan6hsnojzw5z9ps3vnar5b,3azhrg4cu8xs1yfai23tzgpnvu303d,fegGF7uT,2020-0188,2020-06-04,14:22:07,14:52:12,NA,incomplete,176,race,2,1,right,A_M_06.jpg,C_M_15.jpg,A_F_16.jpg,right,886.7300000274554,true,high,NA,NA,NA,NA,NA,NA,NA,false
fegGF7uT,3y3czjszan6hsnojzw5z9ps3vnar5b,3azhrg4cu8xs1yfai23tzgpnvu303d,fegGF7uT,2020-0188,2020-06-04,14:22:07,14:52:12,NA,incomplete,177,race,2,0,right,C_M_10.jpg,A_M_09.jpg,C_F_14.jpg,right,1056.3400000100955,true,high,NA,NA,NA,NA,NA,NA,NA,false
fegGF7uT,3y3czjszan6hsnojzw5z9ps3vnar5b,3azhrg4cu8xs1yfai23tzgpnvu303d,fegGF7uT,2020-0188,2020-06-04,14:22:07,14:52:12,NA,incomplete,178,race,2,1,left,C_M_02.jpg,C_F_11.jpg,A_M_09.jpg,left,1073.534999974072,true,high,NA,NA,NA,NA,NA,NA,NA,false
fegGF7uT,3y3czjszan6hsnojzw5z9ps3vnar5b,3azhrg4cu8xs1yfai23tzgpnvu303d,fegGF7uT,2020-0188,2020-06-04,14:22:07,14:52:12,NA,incomplete,179,race,2,1,right,C_M_12.jpg,A_M_07.jpg,C_F_08.jpg,right,940.3199999942444,true,high,NA,NA,NA,NA,NA,NA,NA,false
fegGF7uT,3y3czjszan6hsnojzw5z9ps3vnar5b,3azhrg4cu8xs1yfai23tzgpnvu303d,fegGF7uT,2020-0188,2020-06-04,14:22:07,14:52:12,NA,incomplete,180,gender,3,1,left,A_M_03.jpg,C_M_10.jpg,A_F_13.jpg,right,695.9749999805354,false,high,NA,NA,NA,NA,NA,NA,NA,false
fegGF7uT,3y3czjszan6hsnojzw5z9ps3vnar5b,3azhrg4cu8xs1yfai23tzgpnvu303d,fegGF7uT,2020-0188,2020-06-04,14:22:07,14:52:12,NA,incomplete,181,gender,3,1,left,A_M_06.jpg,C_M_02.jpg,A_F_01.jpg,right,864.5900000119582,false,high,NA,NA,NA,NA,NA,NA,NA,false
fegGF7uT,3y3czjszan6hsnojzw5z9ps3vnar5b,3azhrg4cu8xs1yfai23tzgpnvu303d,fegGF7uT,2020-0188,2020-06-04,14:22:07,14:52:12,NA,incomplete,182,gender,3,1,right,C_M_12.jpg,C_F_07.jpg,A_M_03.jpg,right,798.41500002658,true,high,NA,NA,NA,NA,NA,NA,NA,false
fegGF7uT,3y3czjszan6hsnojzw5z9ps3vnar5b,3azhrg4cu8xs1yfai23tzgpnvu303d,fegGF7uT,2020-0188,2020-06-04,14:22:07,14:52:12,NA,incomplete,183,gender,3,1,left,A_M_03.jpg,C_M_07.jpg,A_F_13.jpg,left,718.2900000480004,true,high,NA,NA,NA,NA,NA,NA,NA,false
fegGF7uT,3y3czjszan6hsnojzw5z9ps3vnar5b,3azhrg4cu8xs1yfai23tzgpnvu303d,fegGF7uT,2020-0188,2020-06-04,14:22:07,14:52:12,NA,incomplete,184,gender,3,0,left,A_M_06.jpg,C_M_08.jpg,A_F_13.jpg,left,702.3250000202097,true,high,NA,NA,NA,NA,NA,NA,NA,false
fegGF7uT,3y3czjszan6hsnojzw5z9ps3vnar5b,3azhrg4cu8xs1yfai23tzgpnvu303d,fegGF7uT,2020-0188,2020-06-04,14:22:07,14:52:12,NA,incomplete,185,gender,3,1,right,C_M_11.jpg,C_F_16.jpg,A_M_15.jpg,right,659.8999999696389,true,high,NA,NA,NA,NA,NA,NA,NA,false
fegGF7uT,3y3czjszan6hsnojzw5z9ps3vnar5b,3azhrg4cu8xs1yfai23tzgpnvu303d,fegGF7uT,2020-0188,2020-06-04,14:22:07,14:52:12,NA,incomplete,186,gender,3,1,right,C_F_14.jpg,C_M_16.jpg,A_F_07.jpg,right,666.9999999576248,true,high,NA,NA,NA,NA,NA,NA,NA,false
fegGF7uT,3y3czjszan6hsnojzw5z9ps3vnar5b,3azhrg4cu8xs1yfai23tzgpnvu303d,fegGF7uT,2020-0188,2020-06-04,14:22:07,14:52:12,NA,incomplete,187,gender,3,1,right,A_F_06.jpg,A_M_07.jpg,C_F_11.jpg,right,605.6899999966845,true,high,NA,NA,NA,NA,NA,NA,NA,false
fegGF7uT,3y3czjszan6hsnojzw5z9ps3vnar5b,3azhrg4cu8xs1yfai23tzgpnvu303d,fegGF7uT,2020-0188,2020-06-04,14:22:07,14:52:12,NA,incomplete,188,gender,3,1,right,C_M_15.jpg,C_F_02.jpg,A_M_06.jpg,right,821.9649999518879,true,high,NA,NA,NA,NA,NA,NA,NA,false
fegGF7uT,3y3czjszan6hsnojzw5z9ps3vnar5b,3azhrg4cu8xs1yfai23tzgpnvu303d,fegGF7uT,2020-0188,2020-06-04,14:22:07,14:52:12,NA,incomplete,189,gender,3,1,right,C_F_13.jpg,C_M_02.jpg,A_F_03.jpg,right,1058.004999998957,true,high,NA,NA,NA,NA,NA,NA,NA,false
fegGF7uT,3y3czjszan6hsnojzw5z9ps3vnar5b,3azhrg4cu8xs1yfai23tzgpnvu303d,fegGF7uT,2020-0188,2020-06-04,14:22:07,14:52:12,NA,incomplete,190,gender,3,1,left,C_M_09.jpg,A_M_02.jpg,C_F_01.jpg,left,1034.7300000139512,true,high,NA,NA,NA,NA,NA,NA,NA,false
fegGF7uT,3y3czjszan6hsnojzw5z9ps3vnar5b,3azhrg4cu8xs1yfai23tzgpnvu303d,fegGF7uT,2020-0188,2020-06-04,14:22:07,14:52:12,NA,incomplete,191,gender,3,1,right,A_M_13.jpg,A_F_04.jpg,C_M_08.jpg,right,754.4999999809079,true,high,NA,NA,NA,NA,NA,NA,NA,false
fegGF7uT,3y3czjszan6hsnojzw5z9ps3vnar5b,3azhrg4cu8xs1yfai23tzgpnvu303d,fegGF7uT,2020-0188,2020-06-04,14:22:07,14:52:12,NA,incomplete,192,gender,3,1,left,C_M_02.jpg,A_M_05.jpg,C_F_10.jpg,left,584.4800000195391,true,high,NA,NA,NA,NA,NA,NA,NA,false
fegGF7uT,3y3czjszan6hsnojzw5z9ps3vnar5b,3azhrg4cu8xs1yfai23tzgpnvu303d,fegGF7uT,2020-0188,2020-06-04,14:22:07,14:52:12,NA,incomplete,193,gender,3,0,left,A_F_11.jpg,C_F_13.jpg,A_M_15.jpg,left,905.9999999590218,true,high,NA,NA,NA,NA,NA,NA,NA,false
fegGF7uT,3y3czjszan6hsnojzw5z9ps3vnar5b,3azhrg4cu8xs1yfai23tzgpnvu303d,fegGF7uT,2020-0188,2020-06-04,14:22:07,14:52:12,NA,incomplete,194,gender,3,1,left,C_M_14.jpg,A_M_08.jpg,C_F_15.jpg,left,629.6450000372715,true,high,NA,NA,NA,NA,NA,NA,NA,false
fegGF7uT,3y3czjszan6hsnojzw5z9ps3vnar5b,3azhrg4cu8xs1yfai23tzgpnvu303d,fegGF7uT,2020-0188,2020-06-04,14:22:07,14:52:12,NA,incomplete,195,gender,3,1,left,C_F_13.jpg,A_F_04.jpg,C_M_06.jpg,left,739.6650000009686,true,high,NA,NA,NA,NA,NA,NA,NA,false
fegGF7uT,3y3czjszan6hsnojzw5z9ps3vnar5b,3azhrg4cu8xs1yfai23tzgpnvu303d,fegGF7uT,2020-0188,2020-06-04,14:22:07,14:52:12,NA,incomplete,196,gender,3,1,right,C_M_12.jpg,C_F_06.jpg,A_M_11.jpg,right,722.3550000344403,true,high,NA,NA,NA,NA,NA,NA,NA,false
fegGF7uT,3y3czjszan6hsnojzw5z9ps3vnar5b,3azhrg4cu8xs1yfai23tzgpnvu303d,fegGF7uT,2020-0188,2020-06-04,14:22:07,14:52:12,NA,incomplete,197,gender,3,1,left,C_M_04.jpg,A_M_03.jpg,C_F_06.jpg,left,560.6000000261702,true,high,NA,NA,NA,NA,NA,NA,NA,false
fegGF7uT,3y3czjszan6hsnojzw5z9ps3vnar5b,3azhrg4cu8xs1yfai23tzgpnvu303d,fegGF7uT,2020-0188,2020-06-04,14:22:07,14:52:12,NA,incomplete,198,gender,3,1,left,A_F_09.jpg,C_F_06.jpg,A_M_07.jpg,right,644.9249999714084,false,high,NA,NA,NA,NA,NA,NA,NA,false
fegGF7uT,3y3czjszan6hsnojzw5z9ps3vnar5b,3azhrg4cu8xs1yfai23tzgpnvu303d,fegGF7uT,2020-0188,2020-06-04,14:22:07,14:52:12,NA,incomplete,199,gender,3,1,right,A_F_06.jpg,A_M_11.jpg,C_F_13.jpg,right,1195.7849999889731,true,high,NA,NA,NA,NA,NA,NA,NA,false
fegGF7uT,3y3czjszan6hsnojzw5z9ps3vnar5b,3azhrg4cu8xs1yfai23tzgpnvu303d,fegGF7uT,2020-0188,2020-06-04,14:22:07,14:52:12,NA,incomplete,200,race,2,1,right,A_F_13.jpg,C_F_10.jpg,A_M_03.jpg,left,645.9850000101142,false,high,NA,NA,NA,NA,NA,NA,NA,false
fegGF7uT,3y3czjszan6hsnojzw5z9ps3vnar5b,3azhrg4cu8xs1yfai23tzgpnvu303d,fegGF7uT,2020-0188,2020-06-04,14:22:07,14:52:12,NA,incomplete,201,race,2,1,right,A_M_03.jpg,C_M_13.jpg,A_F_02.jpg,left,796.245000034105,false,high,NA,NA,NA,NA,NA,NA,NA,false
fegGF7uT,3y3czjszan6hsnojzw5z9ps3vnar5b,3azhrg4cu8xs1yfai23tzgpnvu303d,fegGF7uT,2020-0188,2020-06-04,14:22:07,14:52:12,NA,incomplete,202,race,2,1,right,A_F_16.jpg,C_F_09.jpg,A_M_08.jpg,right,783.640000037849,true,high,NA,NA,NA,NA,NA,NA,NA,false
fegGF7uT,3y3czjszan6hsnojzw5z9ps3vnar5b,3azhrg4cu8xs1yfai23tzgpnvu303d,fegGF7uT,2020-0188,2020-06-04,14:22:07,14:52:12,NA,incomplete,203,race,2,1,left,A_M_15.jpg,A_F_08.jpg,C_M_01.jpg,left,777.1750000538304,true,high,NA,NA,NA,NA,NA,NA,NA,false
fegGF7uT,3y3czjszan6hsnojzw5z9ps3vnar5b,3azhrg4cu8xs1yfai23tzgpnvu303d,fegGF7uT,2020-0188,2020-06-04,14:22:07,14:52:12,NA,incomplete,204,race,2,0,left,C_M_10.jpg,C_F_04.jpg,A_M_16.jpg,left,719.0199999604374,true,high,NA,NA,NA,NA,NA,NA,NA,false
fegGF7uT,3y3czjszan6hsnojzw5z9ps3vnar5b,3azhrg4cu8xs1yfai23tzgpnvu303d,fegGF7uT,2020-0188,2020-06-04,14:22:07,14:52:12,NA,incomplete,205,race,2,1,right,A_F_06.jpg,C_F_03.jpg,A_M_12.jpg,right,919.2499999771826,true,high,NA,NA,NA,NA,NA,NA,NA,false
fegGF7uT,3y3czjszan6hsnojzw5z9ps3vnar5b,3azhrg4cu8xs1yfai23tzgpnvu303d,fegGF7uT,2020-0188,2020-06-04,14:22:07,14:52:12,NA,incomplete,206,race,2,1,left,A_M_10.jpg,A_F_06.jpg,C_M_11.jpg,left,871.4250000193715,true,high,NA,NA,NA,NA,NA,NA,NA,false
fegGF7uT,3y3czjszan6hsnojzw5z9ps3vnar5b,3azhrg4cu8xs1yfai23tzgpnvu303d,fegGF7uT,2020-0188,2020-06-04,14:22:07,14:52:12,NA,incomplete,207,race,2,0,right,C_M_03.jpg,A_M_06.jpg,C_F_12.jpg,right,868.1349999969825,true,high,NA,NA,NA,NA,NA,NA,NA,false
fegGF7uT,3y3czjszan6hsnojzw5z9ps3vnar5b,3azhrg4cu8xs1yfai23tzgpnvu303d,fegGF7uT,2020-0188,2020-06-04,14:22:07,14:52:12,NA,incomplete,208,race,2,1,right,A_M_10.jpg,C_M_12.jpg,A_F_01.jpg,right,1335.7100000139326,true,high,NA,NA,NA,NA,NA,NA,NA,false
fegGF7uT,3y3czjszan6hsnojzw5z9ps3vnar5b,3azhrg4cu8xs1yfai23tzgpnvu303d,fegGF7uT,2020-0188,2020-06-04,14:22:07,14:52:12,NA,incomplete,209,race,2,0,left,A_F_07.jpg,A_M_12.jpg,C_F_01.jpg,left,1001.4000000082888,true,high,NA,NA,NA,NA,NA,NA,NA,false
fegGF7uT,3y3czjszan6hsnojzw5z9ps3vnar5b,3azhrg4cu8xs1yfai23tzgpnvu303d,fegGF7uT,2020-0188,2020-06-04,14:22:07,14:52:12,NA,incomplete,210,race,2,1,right,A_F_15.jpg,C_F_04.jpg,A_M_08.jpg,right,823.099999979604,true,high,NA,NA,NA,NA,NA,NA,NA,false
fegGF7uT,3y3czjszan6hsnojzw5z9ps3vnar5b,3azhrg4cu8xs1yfai23tzgpnvu303d,fegGF7uT,2020-0188,2020-06-04,14:22:07,14:52:12,NA,incomplete,211,race,2,0,right,A_F_02.jpg,C_F_10.jpg,A_M_15.jpg,right,676.5350000350736,true,high,NA,NA,NA,NA,NA,NA,NA,false
fegGF7uT,3y3czjszan6hsnojzw5z9ps3vnar5b,3azhrg4cu8xs1yfai23tzgpnvu303d,fegGF7uT,2020-0188,2020-06-04,14:22:07,14:52:12,NA,incomplete,212,race,2,1,right,A_F_07.jpg,C_F_12.jpg,A_M_03.jpg,right,851.6899999813177,true,high,NA,NA,NA,NA,NA,NA,NA,false
fegGF7uT,3y3czjszan6hsnojzw5z9ps3vnar5b,3azhrg4cu8xs1yfai23tzgpnvu303d,fegGF7uT,2020-0188,2020-06-04,14:22:07,14:52:12,NA,incomplete,213,race,2,1,left,A_M_14.jpg,A_F_07.jpg,C_M_09.jpg,left,823.9399999729358,true,high,NA,NA,NA,NA,NA,NA,NA,false
fegGF7uT,3y3czjszan6hsnojzw5z9ps3vnar5b,3azhrg4cu8xs1yfai23tzgpnvu303d,fegGF7uT,2020-0188,2020-06-04,14:22:07,14:52:12,NA,incomplete,214,race,2,1,right,A_F_11.jpg,C_F_10.jpg,A_M_16.jpg,right,695.5700000398792,true,high,NA,NA,NA,NA,NA,NA,NA,false
fegGF7uT,3y3czjszan6hsnojzw5z9ps3vnar5b,3azhrg4cu8xs1yfai23tzgpnvu303d,fegGF7uT,2020-0188,2020-06-04,14:22:07,14:52:12,NA,incomplete,215,race,2,1,left,A_M_08.jpg,A_F_11.jpg,C_M_13.jpg,left,890.1300000143237,true,high,NA,NA,NA,NA,NA,NA,NA,false
fegGF7uT,3y3czjszan6hsnojzw5z9ps3vnar5b,3azhrg4cu8xs1yfai23tzgpnvu303d,fegGF7uT,2020-0188,2020-06-04,14:22:07,14:52:12,NA,incomplete,216,race,2,0,right,A_M_07.jpg,C_M_09.jpg,A_F_12.jpg,right,658.6450000177138,true,high,NA,NA,NA,NA,NA,NA,NA,false
fegGF7uT,3y3czjszan6hsnojzw5z9ps3vnar5b,3azhrg4cu8xs1yfai23tzgpnvu303d,fegGF7uT,2020-0188,2020-06-04,14:22:07,14:52:12,NA,incomplete,217,race,2,1,left,C_F_03.jpg,C_M_10.jpg,A_F_09.jpg,left,836.7699999944307,true,high,NA,NA,NA,NA,NA,NA,NA,false
fegGF7uT,3y3czjszan6hsnojzw5z9ps3vnar5b,3azhrg4cu8xs1yfai23tzgpnvu303d,fegGF7uT,2020-0188,2020-06-04,14:22:07,14:52:12,NA,incomplete,218,race,2,0,left,C_F_03.jpg,C_M_02.jpg,A_F_15.jpg,right,771.7500000144355,false,high,NA,NA,NA,NA,NA,NA,NA,false
fegGF7uT,3y3czjszan6hsnojzw5z9ps3vnar5b,3azhrg4cu8xs1yfai23tzgpnvu303d,fegGF7uT,2020-0188,2020-06-04,14:22:07,14:52:12,NA,incomplete,219,race,2,1,right,A_M_01.jpg,C_M_09.jpg,A_F_02.jpg,right,1171.715000004042,true,high,NA,NA,NA,NA,NA,NA,NA,false
fegGF7uT,3y3czjszan6hsnojzw5z9ps3vnar5b,3azhrg4cu8xs1yfai23tzgpnvu303d,fegGF7uT,2020-0188,2020-06-04,14:22:07,14:52:12,NA,incomplete,220,gender,3,1,right,C_F_10.jpg,C_M_12.jpg,A_F_11.jpg,right,1163.8200000161305,true,high,NA,NA,NA,NA,NA,NA,NA,false
fegGF7uT,3y3czjszan6hsnojzw5z9ps3vnar5b,3azhrg4cu8xs1yfai23tzgpnvu303d,fegGF7uT,2020-0188,2020-06-04,14:22:07,14:52:12,NA,incomplete,221,gender,3,1,left,A_F_11.jpg,C_F_10.jpg,A_M_04.jpg,right,1006.3850000151433,false,high,NA,NA,NA,NA,NA,NA,NA,false
fegGF7uT,3y3czjszan6hsnojzw5z9ps3vnar5b,3azhrg4cu8xs1yfai23tzgpnvu303d,fegGF7uT,2020-0188,2020-06-04,14:22:07,14:52:12,NA,incomplete,222,gender,3,1,left,C_M_08.jpg,A_M_14.jpg,C_F_15.jpg,right,1444.7299999883398,false,high,NA,NA,NA,NA,NA,NA,NA,false
fegGF7uT,3y3czjszan6hsnojzw5z9ps3vnar5b,3azhrg4cu8xs1yfai23tzgpnvu303d,fegGF7uT,2020-0188,2020-06-04,14:22:07,14:52:12,NA,incomplete,223,gender,3,0,left,A_M_06.jpg,C_M_02.jpg,A_F_11.jpg,left,603.1049999874085,true,high,NA,NA,NA,NA,NA,NA,NA,false
fegGF7uT,3y3czjszan6hsnojzw5z9ps3vnar5b,3azhrg4cu8xs1yfai23tzgpnvu303d,fegGF7uT,2020-0188,2020-06-04,14:22:07,14:52:12,NA,incomplete,224,gender,3,1,left,C_F_02.jpg,A_F_13.jpg,C_M_10.jpg,left,552.0000000251457,true,high,NA,NA,NA,NA,NA,NA,NA,false
fegGF7uT,3y3czjszan6hsnojzw5z9ps3vnar5b,3azhrg4cu8xs1yfai23tzgpnvu303d,fegGF7uT,2020-0188,2020-06-04,14:22:07,14:52:12,NA,incomplete,225,gender,3,1,right,A_M_14.jpg,A_F_16.jpg,C_M_10.jpg,right,860.5450000031851,true,high,NA,NA,NA,NA,NA,NA,NA,false
fegGF7uT,3y3czjszan6hsnojzw5z9ps3vnar5b,3azhrg4cu8xs1yfai23tzgpnvu303d,fegGF7uT,2020-0188,2020-06-04,14:22:07,14:52:12,NA,incomplete,226,gender,3,1,right,A_M_04.jpg,A_F_12.jpg,C_M_07.jpg,right,1084.519999974873,true,high,NA,NA,NA,NA,NA,NA,NA,false
fegGF7uT,3y3czjszan6hsnojzw5z9ps3vnar5b,3azhrg4cu8xs1yfai23tzgpnvu303d,fegGF7uT,2020-0188,2020-06-04,14:22:07,14:52:12,NA,incomplete,227,gender,3,1,right,C_M_04.jpg,C_F_10.jpg,A_M_13.jpg,right,600.525000016205,true,high,NA,NA,NA,NA,NA,NA,NA,false
fegGF7uT,3y3czjszan6hsnojzw5z9ps3vnar5b,3azhrg4cu8xs1yfai23tzgpnvu303d,fegGF7uT,2020-0188,2020-06-04,14:22:07,14:52:12,NA,incomplete,228,gender,3,1,left,A_F_04.jpg,C_F_02.jpg,A_M_09.jpg,left,578.9399999775924,true,high,NA,NA,NA,NA,NA,NA,NA,false
fegGF7uT,3y3czjszan6hsnojzw5z9ps3vnar5b,3azhrg4cu8xs1yfai23tzgpnvu303d,fegGF7uT,2020-0188,2020-06-04,14:22:07,14:52:12,NA,incomplete,229,gender,3,1,right,A_F_11.jpg,A_M_12.jpg,C_F_03.jpg,right,784.1149999876507,true,high,NA,NA,NA,NA,NA,NA,NA,false
fegGF7uT,3y3czjszan6hsnojzw5z9ps3vnar5b,3azhrg4cu8xs1yfai23tzgpnvu303d,fegGF7uT,2020-0188,2020-06-04,14:22:07,14:52:12,NA,incomplete,230,gender,3,1,right,A_F_13.jpg,A_M_12.jpg,C_F_07.jpg,right,1387.3949999688193,true,high,NA,NA,NA,NA,NA,NA,NA,false
fegGF7uT,3y3czjszan6hsnojzw5z9ps3vnar5b,3azhrg4cu8xs1yfai23tzgpnvu303d,fegGF7uT,2020-0188,2020-06-04,14:22:07,14:52:12,NA,incomplete,231,gender,3,1,left,A_M_06.jpg,C_M_10.jpg,A_F_14.jpg,right,834.9199999938719,false,high,NA,NA,NA,NA,NA,NA,NA,false
fegGF7uT,3y3czjszan6hsnojzw5z9ps3vnar5b,3azhrg4cu8xs1yfai23tzgpnvu303d,fegGF7uT,2020-0188,2020-06-04,14:22:07,14:52:12,NA,incomplete,232,gender,3,0,right,C_M_07.jpg,C_F_09.jpg,A_M_10.jpg,right,1294.7500000009313,true,high,NA,NA,NA,NA,NA,NA,NA,false
fegGF7uT,3y3czjszan6hsnojzw5z9ps3vnar5b,3azhrg4cu8xs1yfai23tzgpnvu303d,fegGF7uT,2020-0188,2020-06-04,14:22:07,14:52:12,NA,incomplete,233,gender,3,1,right,A_M_11.jpg,A_F_01.jpg,C_M_03.jpg,right,899.0700000431389,true,high,NA,NA,NA,NA,NA,NA,NA,false
fegGF7uT,3y3czjszan6hsnojzw5z9ps3vnar5b,3azhrg4cu8xs1yfai23tzgpnvu303d,fegGF7uT,2020-0188,2020-06-04,14:22:07,14:52:12,NA,incomplete,234,gender,3,1,right,A_F_01.jpg,A_M_12.jpg,C_F_14.jpg,right,723.3049999922514,true,high,NA,NA,NA,NA,NA,NA,NA,false
fegGF7uT,3y3czjszan6hsnojzw5z9ps3vnar5b,3azhrg4cu8xs1yfai23tzgpnvu303d,fegGF7uT,2020-0188,2020-06-04,14:22:07,14:52:12,NA,incomplete,235,gender,3,0,right,C_F_15.jpg,C_M_14.jpg,A_F_06.jpg,right,753.6899999831803,true,high,NA,NA,NA,NA,NA,NA,NA,false
fegGF7uT,3y3czjszan6hsnojzw5z9ps3vnar5b,3azhrg4cu8xs1yfai23tzgpnvu303d,fegGF7uT,2020-0188,2020-06-04,14:22:07,14:52:12,NA,incomplete,236,gender,3,1,right,A_M_06.jpg,A_F_13.jpg,C_M_02.jpg,right,644.6050000376999,true,high,NA,NA,NA,NA,NA,NA,NA,false
fegGF7uT,3y3czjszan6hsnojzw5z9ps3vnar5b,3azhrg4cu8xs1yfai23tzgpnvu303d,fegGF7uT,2020-0188,2020-06-04,14:22:07,14:52:12,NA,incomplete,237,gender,3,0,left,A_F_12.jpg,C_F_16.jpg,A_M_11.jpg,left,835.6450000428595,true,high,NA,NA,NA,NA,NA,NA,NA,false
fegGF7uT,3y3czjszan6hsnojzw5z9ps3vnar5b,3azhrg4cu8xs1yfai23tzgpnvu303d,fegGF7uT,2020-0188,2020-06-04,14:22:07,14:52:12,NA,incomplete,238,gender,3,1,left,C_F_12.jpg,A_F_14.jpg,C_M_16.jpg,left,605.5749999941327,true,high,NA,NA,NA,NA,NA,NA,NA,false
fegGF7uT,3y3czjszan6hsnojzw5z9ps3vnar5b,3azhrg4cu8xs1yfai23tzgpnvu303d,fegGF7uT,2020-0188,2020-06-04,14:22:07,14:52:12,NA,incomplete,239,gender,3,1,left,A_M_12.jpg,C_M_03.jpg,A_F_02.jpg,left,699.4449999765493,true,high,NA,NA,NA,NA,NA,NA,NA,false
fegGF7uT,3y3czjszan6hsnojzw5z9ps3vnar5b,3azhrg4cu8xs1yfai23tzgpnvu303d,fegGF7uT,2020-0188,2020-06-04,14:22:07,14:52:12,NA,NA,instruction example,color,NA,NA,NA,Red_Star_Grid_4.jpg,Red_Triangle_Dots_1.jpg,Purple_Plus_Grid_2.jpg,NA,NA,NA,NA,NA,NA,NA,NA,NA,NA,NA,undefined
fegGF7uT,3y3czjszan6hsnojzw5z9ps3vnar5b,3azhrg4cu8xs1yfai23tzgpnvu303d,fegGF7uT,2020-0188,2020-06-04,14:22:07,14:52:12,NA,NA,instruction example,color,NA,NA,NA,Blue_Plus_Grid_1.jpg,Green_Star_Grid_3.jpg,Blue_Circle_Stripes_4.jpg,NA,NA,NA,NA,NA,NA,NA,NA,NA,NA,NA,undefined
fegGF7uT,3y3czjszan6hsnojzw5z9ps3vnar5b,3azhrg4cu8xs1yfai23tzgpnvu303d,fegGF7uT,2020-0188,2020-06-04,14:22:07,14:52:12,NA,NA,instruction example,color,NA,NA,NA,A_F_10.jpg,A_M_08.jpg,C_F_13.jpg,NA,NA,NA,NA,NA,NA,NA,NA,NA,NA,NA,undefined
fegGF7uT,3y3czjszan6hsnojzw5z9ps3vnar5b,3azhrg4cu8xs1yfai23tzgpnvu303d,fegGF7uT,2020-0188,2020-06-04,14:22:07,14:52:12,NA,NA,instruction example,color,NA,NA,NA,A_F_15.jpg,C_F_09.jpg,A_M_03.jpg,NA,NA,NA,NA,NA,NA,NA,NA,NA,NA,NA,undefined
fegGF7uT,3y3czjszan6hsnojzw5z9ps3vnar5b,3azhrg4cu8xs1yfai23tzgpnvu303d,fegGF7uT,2020-0188,2020-06-04,14:22:07,14:52:12,1775360.944999964,1806376.9099999918,NA,NA,NA,NA,NA,NA,NA,NA,NA,NA,NA,NA,26,American Indian/Alaska Native,Female,Native American,no,no,no,undefined
