workerId,hitId,assignmentId,subject,studyid,exp_date,exp_start,exp_end,time_start,time_end,trial,type,sequence,reward_validity,answer,image_top,image_left,image_right,response,response_time,response_acc,volatility,age,race,gender,ethnicity,color,vision,neuro,practice
Y95tdPi3,3t5zxgo9eh1fn0t8t5nft3pt661qzj,3d4ch1lgee6br4fbddt6blfqygt9gl,Y95tdPi3,2020-0188,2020-11-17,10:08:50,10:27:39,NA,incomplete,0,filling,0,1,right,Green_Star_Grid_2.jpg,Green_Plus_Dots_1.jpg,Blue_Triangle_Grid_3.jpg,right,1078.9449999574572,true,NA,NA,NA,NA,NA,NA,NA,NA,true
Y95tdPi3,3t5zxgo9eh1fn0t8t5nft3pt661qzj,3d4ch1lgee6br4fbddt6blfqygt9gl,Y95tdPi3,2020-0188,2020-11-17,10:08:50,10:27:39,NA,incomplete,1,filling,0,1,right,Red_Plus_Dots_3.jpg,Red_Star_Chess_4.jpg,Blue_Circle_Dots_1.jpg,right,906.0950000421144,true,NA,NA,NA,NA,NA,NA,NA,NA,true
Y95tdPi3,3t5zxgo9eh1fn0t8t5nft3pt661qzj,3d4ch1lgee6br4fbddt6blfqygt9gl,Y95tdPi3,2020-0188,2020-11-17,10:08:50,10:27:39,NA,incomplete,2,filling,0,1,right,Red_Triangle_Chess_1.jpg,Red_Circle_Grid_4.jpg,Purple_Star_Chess_3.jpg,right,1194.6450000395998,true,NA,NA,NA,NA,NA,NA,NA,NA,true
Y95tdPi3,3t5zxgo9eh1fn0t8t5nft3pt661qzj,3d4ch1lgee6br4fbddt6blfqygt9gl,Y95tdPi3,2020-0188,2020-11-17,10:08:50,10:27:39,NA,incomplete,3,filling,0,1,right,Purple_Circle_Grid_2.jpg,Purple_Star_Stripes_3.jpg,Blue_Plus_Grid_1.jpg,left,812.9400000325404,false,NA,NA,NA,NA,NA,NA,NA,NA,true
Y95tdPi3,3t5zxgo9eh1fn0t8t5nft3pt661qzj,3d4ch1lgee6br4fbddt6blfqygt9gl,Y95tdPi3,2020-0188,2020-11-17,10:08:50,10:27:39,NA,incomplete,4,filling,0,1,right,Green_Triangle_Stripes_1.jpg,Green_Circle_Chess_4.jpg,Purple_Plus_Stripes_3.jpg,right,879.4699999853037,true,NA,NA,NA,NA,NA,NA,NA,NA,true
Y95tdPi3,3t5zxgo9eh1fn0t8t5nft3pt661qzj,3d4ch1lgee6br4fbddt6blfqygt9gl,Y95tdPi3,2020-0188,2020-11-17,10:08:50,10:27:39,NA,incomplete,5,filling,0,1,right,Blue_Star_Dots_4.jpg,Blue_Circle_Grid_2.jpg,Purple_Plus_Dots_3.jpg,right,982.9350000363775,true,NA,NA,NA,NA,NA,NA,NA,NA,true
Y95tdPi3,3t5zxgo9eh1fn0t8t5nft3pt661qzj,3d4ch1lgee6br4fbddt6blfqygt9gl,Y95tdPi3,2020-0188,2020-11-17,10:08:50,10:27:39,NA,incomplete,6,filling,0,0,right,Green_Triangle_Chess_1.jpg,Green_Plus_Grid_4.jpg,Purple_Circle_Chess_3.jpg,right,877.4950000224635,true,NA,NA,NA,NA,NA,NA,NA,NA,true
Y95tdPi3,3t5zxgo9eh1fn0t8t5nft3pt661qzj,3d4ch1lgee6br4fbddt6blfqygt9gl,Y95tdPi3,2020-0188,2020-11-17,10:08:50,10:27:39,NA,incomplete,7,filling,0,1,right,Red_Plus_Stripes_1.jpg,Red_Circle_Chess_3.jpg,Purple_Triangle_Stripes_4.jpg,right,850.8399999700487,true,NA,NA,NA,NA,NA,NA,NA,NA,true
Y95tdPi3,3t5zxgo9eh1fn0t8t5nft3pt661qzj,3d4ch1lgee6br4fbddt6blfqygt9gl,Y95tdPi3,2020-0188,2020-11-17,10:08:50,10:27:39,NA,incomplete,8,filling,0,1,left,Blue_Circle_Dots_4.jpg,Red_Triangle_Dots_2.jpg,Blue_Star_Chess_1.jpg,left,925.5750000011176,true,NA,NA,NA,NA,NA,NA,NA,NA,true
Y95tdPi3,3t5zxgo9eh1fn0t8t5nft3pt661qzj,3d4ch1lgee6br4fbddt6blfqygt9gl,Y95tdPi3,2020-0188,2020-11-17,10:08:50,10:27:39,NA,incomplete,9,filling,0,1,right,Green_Circle_Stripes_1.jpg,Green_Plus_Grid_2.jpg,Purple_Triangle_Stripes_3.jpg,right,754.1199999977835,true,NA,NA,NA,NA,NA,NA,NA,NA,true
Y95tdPi3,3t5zxgo9eh1fn0t8t5nft3pt661qzj,3d4ch1lgee6br4fbddt6blfqygt9gl,Y95tdPi3,2020-0188,2020-11-17,10:08:50,10:27:39,NA,incomplete,10,filling,0,1,left,Purple_Star_Chess_4.jpg,Green_Plus_Chess_1.jpg,Purple_Triangle_Stripes_3.jpg,left,842.1450000023469,true,NA,NA,NA,NA,NA,NA,NA,NA,true
Y95tdPi3,3t5zxgo9eh1fn0t8t5nft3pt661qzj,3d4ch1lgee6br4fbddt6blfqygt9gl,Y95tdPi3,2020-0188,2020-11-17,10:08:50,10:27:39,NA,incomplete,11,filling,0,1,left,Red_Circle_Chess_3.jpg,Green_Plus_Chess_4.jpg,Red_Star_Dots_2.jpg,left,821.0299999918789,true,NA,NA,NA,NA,NA,NA,NA,NA,true
Y95tdPi3,3t5zxgo9eh1fn0t8t5nft3pt661qzj,3d4ch1lgee6br4fbddt6blfqygt9gl,Y95tdPi3,2020-0188,2020-11-17,10:08:50,10:27:39,NA,incomplete,12,filling,0,0,left,Purple_Star_Dots_4.jpg,Blue_Triangle_Dots_2.jpg,Purple_Circle_Stripes_3.jpg,left,861.2199999624863,true,NA,NA,NA,NA,NA,NA,NA,NA,true
Y95tdPi3,3t5zxgo9eh1fn0t8t5nft3pt661qzj,3d4ch1lgee6br4fbddt6blfqygt9gl,Y95tdPi3,2020-0188,2020-11-17,10:08:50,10:27:39,NA,incomplete,13,filling,0,1,left,Purple_Triangle_Stripes_2.jpg,Green_Star_Stripes_1.jpg,Purple_Plus_Grid_4.jpg,left,839.1149999806657,true,NA,NA,NA,NA,NA,NA,NA,NA,true
Y95tdPi3,3t5zxgo9eh1fn0t8t5nft3pt661qzj,3d4ch1lgee6br4fbddt6blfqygt9gl,Y95tdPi3,2020-0188,2020-11-17,10:08:50,10:27:39,NA,incomplete,14,filling,0,1,left,Blue_Circle_Stripes_4.jpg,Red_Star_Stripes_1.jpg,Blue_Plus_Chess_3.jpg,left,845.4949999577366,true,NA,NA,NA,NA,NA,NA,NA,NA,true
Y95tdPi3,3t5zxgo9eh1fn0t8t5nft3pt661qzj,3d4ch1lgee6br4fbddt6blfqygt9gl,Y95tdPi3,2020-0188,2020-11-17,10:08:50,10:27:39,NA,incomplete,15,filling,0,1,right,Green_Triangle_Grid_1.jpg,Green_Plus_Stripes_4.jpg,Blue_Circle_Grid_3.jpg,right,1032.0749999955297,true,NA,NA,NA,NA,NA,NA,NA,NA,true
Y95tdPi3,3t5zxgo9eh1fn0t8t5nft3pt661qzj,3d4ch1lgee6br4fbddt6blfqygt9gl,Y95tdPi3,2020-0188,2020-11-17,10:08:50,10:27:39,NA,incomplete,16,filling,0,1,left,Blue_Triangle_Chess_2.jpg,Green_Circle_Chess_4.jpg,Blue_Star_Stripes_3.jpg,left,818.9400000264868,true,NA,NA,NA,NA,NA,NA,NA,NA,true
Y95tdPi3,3t5zxgo9eh1fn0t8t5nft3pt661qzj,3d4ch1lgee6br4fbddt6blfqygt9gl,Y95tdPi3,2020-0188,2020-11-17,10:08:50,10:27:39,NA,incomplete,17,filling,0,0,right,Green_Star_Stripes_3.jpg,Green_Triangle_Chess_2.jpg,Purple_Plus_Stripes_4.jpg,right,896.1899999994785,true,NA,NA,NA,NA,NA,NA,NA,NA,true
Y95tdPi3,3t5zxgo9eh1fn0t8t5nft3pt661qzj,3d4ch1lgee6br4fbddt6blfqygt9gl,Y95tdPi3,2020-0188,2020-11-17,10:08:50,10:27:39,NA,incomplete,18,filling,0,1,left,Purple_Triangle_Chess_1.jpg,Red_Plus_Chess_3.jpg,Purple_Circle_Grid_4.jpg,left,1072.0500000170432,true,NA,NA,NA,NA,NA,NA,NA,NA,true
Y95tdPi3,3t5zxgo9eh1fn0t8t5nft3pt661qzj,3d4ch1lgee6br4fbddt6blfqygt9gl,Y95tdPi3,2020-0188,2020-11-17,10:08:50,10:27:39,NA,incomplete,19,filling,0,1,right,Green_Plus_Stripes_4.jpg,Green_Star_Chess_2.jpg,Red_Circle_Stripes_3.jpg,right,925.4650000366382,true,NA,NA,NA,NA,NA,NA,NA,NA,true
Y95tdPi3,3t5zxgo9eh1fn0t8t5nft3pt661qzj,3d4ch1lgee6br4fbddt6blfqygt9gl,Y95tdPi3,2020-0188,2020-11-17,10:08:50,10:27:39,NA,incomplete,20,color,1,1,left,Purple_Star_Stripes_4.jpg,Purple_Triangle_Grid_1.jpg,Red_Plus_Stripes_2.jpg,left,810.3249999694526,true,NA,NA,NA,NA,NA,NA,NA,NA,true
Y95tdPi3,3t5zxgo9eh1fn0t8t5nft3pt661qzj,3d4ch1lgee6br4fbddt6blfqygt9gl,Y95tdPi3,2020-0188,2020-11-17,10:08:50,10:27:39,NA,incomplete,21,color,1,1,left,Blue_Triangle_Chess_4.jpg,Blue_Circle_Stripes_3.jpg,Green_Star_Chess_2.jpg,left,493.04999999003485,true,NA,NA,NA,NA,NA,NA,NA,NA,true
Y95tdPi3,3t5zxgo9eh1fn0t8t5nft3pt661qzj,3d4ch1lgee6br4fbddt6blfqygt9gl,Y95tdPi3,2020-0188,2020-11-17,10:08:50,10:27:39,NA,incomplete,22,color,1,1,right,Purple_Circle_Chess_2.jpg,Green_Plus_Chess_1.jpg,Purple_Star_Dots_4.jpg,right,722.0649999799207,true,NA,NA,NA,NA,NA,NA,NA,NA,true
Y95tdPi3,3t5zxgo9eh1fn0t8t5nft3pt661qzj,3d4ch1lgee6br4fbddt6blfqygt9gl,Y95tdPi3,2020-0188,2020-11-17,10:08:50,10:27:39,NA,incomplete,23,color,1,1,right,Red_Star_Grid_2.jpg,Purple_Circle_Grid_3.jpg,Red_Triangle_Stripes_1.jpg,right,550.0750000355765,true,NA,NA,NA,NA,NA,NA,NA,NA,true
Y95tdPi3,3t5zxgo9eh1fn0t8t5nft3pt661qzj,3d4ch1lgee6br4fbddt6blfqygt9gl,Y95tdPi3,2020-0188,2020-11-17,10:08:50,10:27:39,NA,incomplete,24,color,1,0,right,Blue_Star_Chess_3.jpg,Green_Plus_Chess_2.jpg,Blue_Circle_Stripes_4.jpg,right,621.4349999791011,true,NA,NA,NA,NA,NA,NA,NA,NA,true
Y95tdPi3,3t5zxgo9eh1fn0t8t5nft3pt661qzj,3d4ch1lgee6br4fbddt6blfqygt9gl,Y95tdPi3,2020-0188,2020-11-17,10:08:50,10:27:39,NA,incomplete,25,color,1,1,right,Red_Plus_Dots_3.jpg,Blue_Triangle_Dots_1.jpg,Red_Star_Grid_4.jpg,right,621.3499999721535,true,NA,NA,NA,NA,NA,NA,NA,NA,true
Y95tdPi3,3t5zxgo9eh1fn0t8t5nft3pt661qzj,3d4ch1lgee6br4fbddt6blfqygt9gl,Y95tdPi3,2020-0188,2020-11-17,10:08:50,10:27:39,NA,incomplete,26,color,1,1,right,Red_Star_Dots_3.jpg,Blue_Plus_Dots_4.jpg,Red_Triangle_Chess_1.jpg,right,564.7949999547563,true,NA,NA,NA,NA,NA,NA,NA,NA,true
Y95tdPi3,3t5zxgo9eh1fn0t8t5nft3pt661qzj,3d4ch1lgee6br4fbddt6blfqygt9gl,Y95tdPi3,2020-0188,2020-11-17,10:08:50,10:27:39,NA,incomplete,27,color,1,1,left,Purple_Circle_Chess_1.jpg,Purple_Triangle_Stripes_2.jpg,Blue_Plus_Chess_3.jpg,left,544.945000030566,true,NA,NA,NA,NA,NA,NA,NA,NA,true
Y95tdPi3,3t5zxgo9eh1fn0t8t5nft3pt661qzj,3d4ch1lgee6br4fbddt6blfqygt9gl,Y95tdPi3,2020-0188,2020-11-17,10:08:50,10:27:39,NA,incomplete,28,color,1,1,left,Green_Circle_Stripes_4.jpg,Green_Plus_Grid_3.jpg,Red_Star_Stripes_2.jpg,left,722.0499999821186,true,NA,NA,NA,NA,NA,NA,NA,NA,true
Y95tdPi3,3t5zxgo9eh1fn0t8t5nft3pt661qzj,3d4ch1lgee6br4fbddt6blfqygt9gl,Y95tdPi3,2020-0188,2020-11-17,10:08:50,10:27:39,NA,incomplete,29,color,1,0,left,Green_Circle_Chess_4.jpg,Green_Plus_Grid_1.jpg,Blue_Triangle_Chess_2.jpg,left,668.3249999769032,true,NA,NA,NA,NA,NA,NA,NA,NA,true
Y95tdPi3,3t5zxgo9eh1fn0t8t5nft3pt661qzj,3d4ch1lgee6br4fbddt6blfqygt9gl,Y95tdPi3,2020-0188,2020-11-17,10:08:50,10:27:39,NA,incomplete,30,color,1,1,right,Blue_Star_Dots_2.jpg,Purple_Triangle_Dots_3.jpg,Blue_Plus_Chess_1.jpg,right,769.0249999868684,true,NA,NA,NA,NA,NA,NA,NA,NA,true
Y95tdPi3,3t5zxgo9eh1fn0t8t5nft3pt661qzj,3d4ch1lgee6br4fbddt6blfqygt9gl,Y95tdPi3,2020-0188,2020-11-17,10:08:50,10:27:39,NA,incomplete,31,color,1,0,left,Green_Plus_Grid_2.jpg,Green_Star_Chess_3.jpg,Purple_Triangle_Grid_1.jpg,left,716.7800000170246,true,NA,NA,NA,NA,NA,NA,NA,NA,true
Y95tdPi3,3t5zxgo9eh1fn0t8t5nft3pt661qzj,3d4ch1lgee6br4fbddt6blfqygt9gl,Y95tdPi3,2020-0188,2020-11-17,10:08:50,10:27:39,NA,incomplete,32,color,1,1,right,Purple_Triangle_Stripes_2.jpg,Blue_Plus_Stripes_4.jpg,Purple_Star_Grid_1.jpg,right,651.3600000180304,true,NA,NA,NA,NA,NA,NA,NA,NA,true
Y95tdPi3,3t5zxgo9eh1fn0t8t5nft3pt661qzj,3d4ch1lgee6br4fbddt6blfqygt9gl,Y95tdPi3,2020-0188,2020-11-17,10:08:50,10:27:39,NA,incomplete,33,color,1,1,left,Green_Plus_Grid_4.jpg,Green_Star_Dots_1.jpg,Purple_Circle_Grid_3.jpg,left,564.5500000100583,true,NA,NA,NA,NA,NA,NA,NA,NA,true
Y95tdPi3,3t5zxgo9eh1fn0t8t5nft3pt661qzj,3d4ch1lgee6br4fbddt6blfqygt9gl,Y95tdPi3,2020-0188,2020-11-17,10:08:50,10:27:39,NA,incomplete,34,color,1,1,left,Purple_Plus_Stripes_2.jpg,Purple_Star_Dots_1.jpg,Red_Triangle_Stripes_3.jpg,left,676.3400000054389,true,NA,NA,NA,NA,NA,NA,NA,NA,true
Y95tdPi3,3t5zxgo9eh1fn0t8t5nft3pt661qzj,3d4ch1lgee6br4fbddt6blfqygt9gl,Y95tdPi3,2020-0188,2020-11-17,10:08:50,10:27:39,NA,incomplete,35,color,1,0,right,Blue_Triangle_Chess_2.jpg,Purple_Circle_Chess_1.jpg,Blue_Plus_Grid_4.jpg,right,649.0950000006706,true,NA,NA,NA,NA,NA,NA,NA,NA,true
Y95tdPi3,3t5zxgo9eh1fn0t8t5nft3pt661qzj,3d4ch1lgee6br4fbddt6blfqygt9gl,Y95tdPi3,2020-0188,2020-11-17,10:08:50,10:27:39,NA,incomplete,36,color,1,0,right,Green_Circle_Chess_4.jpg,Red_Star_Chess_1.jpg,Green_Triangle_Grid_2.jpg,right,546.7449999996461,true,NA,NA,NA,NA,NA,NA,NA,NA,true
Y95tdPi3,3t5zxgo9eh1fn0t8t5nft3pt661qzj,3d4ch1lgee6br4fbddt6blfqygt9gl,Y95tdPi3,2020-0188,2020-11-17,10:08:50,10:27:39,NA,incomplete,37,color,1,1,right,Blue_Triangle_Dots_2.jpg,Red_Circle_Dots_4.jpg,Blue_Star_Chess_3.jpg,right,692.1149999834597,true,NA,NA,NA,NA,NA,NA,NA,NA,true
Y95tdPi3,3t5zxgo9eh1fn0t8t5nft3pt661qzj,3d4ch1lgee6br4fbddt6blfqygt9gl,Y95tdPi3,2020-0188,2020-11-17,10:08:50,10:27:39,NA,incomplete,38,color,1,1,right,Blue_Circle_Chess_4.jpg,Red_Triangle_Chess_2.jpg,Blue_Star_Dots_3.jpg,right,590.7099999603815,true,NA,NA,NA,NA,NA,NA,NA,NA,true
Y95tdPi3,3t5zxgo9eh1fn0t8t5nft3pt661qzj,3d4ch1lgee6br4fbddt6blfqygt9gl,Y95tdPi3,2020-0188,2020-11-17,10:08:50,10:27:39,NA,incomplete,39,color,1,1,right,Red_Star_Stripes_2.jpg,Blue_Circle_Stripes_4.jpg,Red_Plus_Chess_3.jpg,right,612.2600000235252,true,NA,NA,NA,NA,NA,NA,NA,NA,true
Y95tdPi3,3t5zxgo9eh1fn0t8t5nft3pt661qzj,3d4ch1lgee6br4fbddt6blfqygt9gl,Y95tdPi3,2020-0188,2020-11-17,10:08:50,10:27:39,NA,incomplete,0,filling,0,1,left,Purple_Triangle_Grid_3.jpg,Green_Star_Grid_1.jpg,Purple_Circle_Stripes_2.jpg,right,1034.9699999787845,false,low,NA,NA,NA,NA,NA,NA,NA,false
Y95tdPi3,3t5zxgo9eh1fn0t8t5nft3pt661qzj,3d4ch1lgee6br4fbddt6blfqygt9gl,Y95tdPi3,2020-0188,2020-11-17,10:08:50,10:27:39,NA,incomplete,1,filling,0,1,right,Green_Triangle_Dots_2.jpg,Green_Star_Chess_3.jpg,Red_Plus_Dots_4.jpg,right,874.9800000223331,true,low,NA,NA,NA,NA,NA,NA,NA,false
Y95tdPi3,3t5zxgo9eh1fn0t8t5nft3pt661qzj,3d4ch1lgee6br4fbddt6blfqygt9gl,Y95tdPi3,2020-0188,2020-11-17,10:08:50,10:27:39,NA,incomplete,2,filling,0,1,right,Blue_Star_Grid_3.jpg,Blue_Triangle_Dots_4.jpg,Green_Circle_Grid_2.jpg,right,776.1699999682605,true,low,NA,NA,NA,NA,NA,NA,NA,false
Y95tdPi3,3t5zxgo9eh1fn0t8t5nft3pt661qzj,3d4ch1lgee6br4fbddt6blfqygt9gl,Y95tdPi3,2020-0188,2020-11-17,10:08:50,10:27:39,NA,incomplete,3,filling,0,0,left,Blue_Plus_Grid_2.jpg,Green_Circle_Grid_1.jpg,Blue_Triangle_Chess_4.jpg,left,930.640000035055,true,low,NA,NA,NA,NA,NA,NA,NA,false
Y95tdPi3,3t5zxgo9eh1fn0t8t5nft3pt661qzj,3d4ch1lgee6br4fbddt6blfqygt9gl,Y95tdPi3,2020-0188,2020-11-17,10:08:50,10:27:39,NA,incomplete,4,filling,0,0,right,Red_Circle_Grid_2.jpg,Red_Triangle_Stripes_3.jpg,Green_Star_Grid_4.jpg,right,961.3749999552965,true,low,NA,NA,NA,NA,NA,NA,NA,false
Y95tdPi3,3t5zxgo9eh1fn0t8t5nft3pt661qzj,3d4ch1lgee6br4fbddt6blfqygt9gl,Y95tdPi3,2020-0188,2020-11-17,10:08:50,10:27:39,NA,incomplete,5,filling,0,1,left,Green_Triangle_Dots_1.jpg,Blue_Circle_Dots_4.jpg,Green_Star_Stripes_3.jpg,right,502.8499999898486,false,low,NA,NA,NA,NA,NA,NA,NA,false
Y95tdPi3,3t5zxgo9eh1fn0t8t5nft3pt661qzj,3d4ch1lgee6br4fbddt6blfqygt9gl,Y95tdPi3,2020-0188,2020-11-17,10:08:50,10:27:39,NA,incomplete,6,filling,0,1,left,Blue_Circle_Dots_2.jpg,Purple_Plus_Dots_1.jpg,Blue_Triangle_Stripes_3.jpg,left,874.7499999590218,true,low,NA,NA,NA,NA,NA,NA,NA,false
Y95tdPi3,3t5zxgo9eh1fn0t8t5nft3pt661qzj,3d4ch1lgee6br4fbddt6blfqygt9gl,Y95tdPi3,2020-0188,2020-11-17,10:08:50,10:27:39,NA,incomplete,7,filling,0,0,right,Green_Plus_Dots_3.jpg,Green_Star_Grid_1.jpg,Blue_Triangle_Dots_4.jpg,right,909.6600000048056,true,low,NA,NA,NA,NA,NA,NA,NA,false
Y95tdPi3,3t5zxgo9eh1fn0t8t5nft3pt661qzj,3d4ch1lgee6br4fbddt6blfqygt9gl,Y95tdPi3,2020-0188,2020-11-17,10:08:50,10:27:39,NA,incomplete,8,filling,0,1,right,Purple_Triangle_Grid_4.jpg,Purple_Circle_Chess_3.jpg,Blue_Star_Grid_1.jpg,left,760.9950000187382,false,low,NA,NA,NA,NA,NA,NA,NA,false
Y95tdPi3,3t5zxgo9eh1fn0t8t5nft3pt661qzj,3d4ch1lgee6br4fbddt6blfqygt9gl,Y95tdPi3,2020-0188,2020-11-17,10:08:50,10:27:39,NA,incomplete,9,filling,0,0,left,Green_Circle_Dots_2.jpg,Red_Plus_Dots_4.jpg,Green_Triangle_Chess_1.jpg,left,943.8049999880604,true,low,NA,NA,NA,NA,NA,NA,NA,false
Y95tdPi3,3t5zxgo9eh1fn0t8t5nft3pt661qzj,3d4ch1lgee6br4fbddt6blfqygt9gl,Y95tdPi3,2020-0188,2020-11-17,10:08:50,10:27:39,NA,incomplete,10,color,1,1,left,Blue_Circle_Stripes_4.jpg,Blue_Triangle_Chess_1.jpg,Red_Star_Stripes_3.jpg,left,533.2800000323914,true,low,NA,NA,NA,NA,NA,NA,NA,false
Y95tdPi3,3t5zxgo9eh1fn0t8t5nft3pt661qzj,3d4ch1lgee6br4fbddt6blfqygt9gl,Y95tdPi3,2020-0188,2020-11-17,10:08:50,10:27:39,NA,incomplete,11,color,1,1,left,Green_Plus_Chess_2.jpg,Green_Triangle_Stripes_4.jpg,Red_Star_Chess_3.jpg,left,486.06999998446554,true,low,NA,NA,NA,NA,NA,NA,NA,false
Y95tdPi3,3t5zxgo9eh1fn0t8t5nft3pt661qzj,3d4ch1lgee6br4fbddt6blfqygt9gl,Y95tdPi3,2020-0188,2020-11-17,10:08:50,10:27:39,NA,incomplete,12,color,1,1,right,Purple_Triangle_Stripes_2.jpg,Green_Plus_Stripes_1.jpg,Purple_Star_Dots_4.jpg,right,510.950000025332,true,low,NA,NA,NA,NA,NA,NA,NA,false
Y95tdPi3,3t5zxgo9eh1fn0t8t5nft3pt661qzj,3d4ch1lgee6br4fbddt6blfqygt9gl,Y95tdPi3,2020-0188,2020-11-17,10:08:50,10:27:39,NA,incomplete,13,color,1,1,left,Green_Circle_Stripes_3.jpg,Green_Star_Chess_4.jpg,Purple_Triangle_Stripes_1.jpg,left,668.6650000046939,true,low,NA,NA,NA,NA,NA,NA,NA,false
Y95tdPi3,3t5zxgo9eh1fn0t8t5nft3pt661qzj,3d4ch1lgee6br4fbddt6blfqygt9gl,Y95tdPi3,2020-0188,2020-11-17,10:08:50,10:27:39,NA,incomplete,14,color,1,1,right,Red_Triangle_Chess_1.jpg,Blue_Circle_Chess_2.jpg,Red_Star_Grid_4.jpg,right,564.5449999719858,true,low,NA,NA,NA,NA,NA,NA,NA,false
Y95tdPi3,3t5zxgo9eh1fn0t8t5nft3pt661qzj,3d4ch1lgee6br4fbddt6blfqygt9gl,Y95tdPi3,2020-0188,2020-11-17,10:08:50,10:27:39,NA,incomplete,15,color,1,0,right,Red_Plus_Dots_1.jpg,Purple_Star_Dots_4.jpg,Red_Circle_Grid_3.jpg,right,634.3650000053458,true,low,NA,NA,NA,NA,NA,NA,NA,false
Y95tdPi3,3t5zxgo9eh1fn0t8t5nft3pt661qzj,3d4ch1lgee6br4fbddt6blfqygt9gl,Y95tdPi3,2020-0188,2020-11-17,10:08:50,10:27:39,NA,incomplete,16,color,1,1,left,Purple_Triangle_Stripes_1.jpg,Purple_Plus_Chess_3.jpg,Green_Circle_Stripes_4.jpg,left,605.3599999868311,true,low,NA,NA,NA,NA,NA,NA,NA,false
Y95tdPi3,3t5zxgo9eh1fn0t8t5nft3pt661qzj,3d4ch1lgee6br4fbddt6blfqygt9gl,Y95tdPi3,2020-0188,2020-11-17,10:08:50,10:27:39,NA,incomplete,17,color,1,0,left,Purple_Circle_Chess_4.jpg,Purple_Plus_Grid_1.jpg,Green_Triangle_Chess_2.jpg,left,567.6300000050105,true,low,NA,NA,NA,NA,NA,NA,NA,false
Y95tdPi3,3t5zxgo9eh1fn0t8t5nft3pt661qzj,3d4ch1lgee6br4fbddt6blfqygt9gl,Y95tdPi3,2020-0188,2020-11-17,10:08:50,10:27:39,NA,incomplete,18,color,1,1,left,Blue_Plus_Stripes_4.jpg,Blue_Triangle_Chess_2.jpg,Green_Star_Stripes_3.jpg,right,885.6549999909475,false,low,NA,NA,NA,NA,NA,NA,NA,false
Y95tdPi3,3t5zxgo9eh1fn0t8t5nft3pt661qzj,3d4ch1lgee6br4fbddt6blfqygt9gl,Y95tdPi3,2020-0188,2020-11-17,10:08:50,10:27:39,NA,incomplete,19,color,1,1,left,Red_Star_Chess_4.jpg,Red_Circle_Grid_2.jpg,Purple_Triangle_Chess_1.jpg,left,580.8349999715574,true,low,NA,NA,NA,NA,NA,NA,NA,false
Y95tdPi3,3t5zxgo9eh1fn0t8t5nft3pt661qzj,3d4ch1lgee6br4fbddt6blfqygt9gl,Y95tdPi3,2020-0188,2020-11-17,10:08:50,10:27:39,NA,incomplete,20,filling,0,1,right,Red_Triangle_Chess_2.jpg,Red_Circle_Grid_4.jpg,Purple_Plus_Chess_1.jpg,left,517.2350000357255,false,low,NA,NA,NA,NA,NA,NA,NA,false
Y95tdPi3,3t5zxgo9eh1fn0t8t5nft3pt661qzj,3d4ch1lgee6br4fbddt6blfqygt9gl,Y95tdPi3,2020-0188,2020-11-17,10:08:50,10:27:39,NA,incomplete,21,filling,0,0,right,Green_Triangle_Stripes_4.jpg,Green_Star_Chess_3.jpg,Blue_Plus_Stripes_1.jpg,left,508.74499999918044,false,low,NA,NA,NA,NA,NA,NA,NA,false
Y95tdPi3,3t5zxgo9eh1fn0t8t5nft3pt661qzj,3d4ch1lgee6br4fbddt6blfqygt9gl,Y95tdPi3,2020-0188,2020-11-17,10:08:50,10:27:39,NA,incomplete,22,filling,0,1,left,Blue_Triangle_Stripes_1.jpg,Red_Circle_Stripes_4.jpg,Blue_Plus_Grid_2.jpg,right,545.7099999766797,false,low,NA,NA,NA,NA,NA,NA,NA,false
Y95tdPi3,3t5zxgo9eh1fn0t8t5nft3pt661qzj,3d4ch1lgee6br4fbddt6blfqygt9gl,Y95tdPi3,2020-0188,2020-11-17,10:08:50,10:27:39,NA,incomplete,23,filling,0,0,left,Blue_Triangle_Chess_3.jpg,Red_Star_Chess_4.jpg,Blue_Circle_Dots_2.jpg,left,802.2600000258535,true,low,NA,NA,NA,NA,NA,NA,NA,false
Y95tdPi3,3t5zxgo9eh1fn0t8t5nft3pt661qzj,3d4ch1lgee6br4fbddt6blfqygt9gl,Y95tdPi3,2020-0188,2020-11-17,10:08:50,10:27:39,NA,incomplete,24,filling,0,1,left,Purple_Plus_Dots_4.jpg,Blue_Circle_Dots_3.jpg,Purple_Star_Stripes_1.jpg,right,535.135000012815,false,low,NA,NA,NA,NA,NA,NA,NA,false
Y95tdPi3,3t5zxgo9eh1fn0t8t5nft3pt661qzj,3d4ch1lgee6br4fbddt6blfqygt9gl,Y95tdPi3,2020-0188,2020-11-17,10:08:50,10:27:39,NA,incomplete,25,filling,0,1,right,Red_Triangle_Chess_3.jpg,Red_Plus_Dots_1.jpg,Green_Star_Chess_2.jpg,left,577.4450000026263,false,low,NA,NA,NA,NA,NA,NA,NA,false
Y95tdPi3,3t5zxgo9eh1fn0t8t5nft3pt661qzj,3d4ch1lgee6br4fbddt6blfqygt9gl,Y95tdPi3,2020-0188,2020-11-17,10:08:50,10:27:39,NA,incomplete,26,filling,0,1,left,Green_Star_Dots_4.jpg,Blue_Triangle_Dots_1.jpg,Green_Circle_Chess_2.jpg,left,838.3000000030734,true,low,NA,NA,NA,NA,NA,NA,NA,false
Y95tdPi3,3t5zxgo9eh1fn0t8t5nft3pt661qzj,3d4ch1lgee6br4fbddt6blfqygt9gl,Y95tdPi3,2020-0188,2020-11-17,10:08:50,10:27:39,NA,incomplete,27,filling,0,1,left,Red_Circle_Grid_2.jpg,Blue_Plus_Grid_1.jpg,Red_Star_Dots_4.jpg,left,842.9899999755435,true,low,NA,NA,NA,NA,NA,NA,NA,false
Y95tdPi3,3t5zxgo9eh1fn0t8t5nft3pt661qzj,3d4ch1lgee6br4fbddt6blfqygt9gl,Y95tdPi3,2020-0188,2020-11-17,10:08:50,10:27:39,NA,incomplete,28,filling,0,0,left,Blue_Triangle_Grid_4.jpg,Purple_Star_Grid_2.jpg,Blue_Circle_Chess_3.jpg,left,889.4300000392832,true,low,NA,NA,NA,NA,NA,NA,NA,false
Y95tdPi3,3t5zxgo9eh1fn0t8t5nft3pt661qzj,3d4ch1lgee6br4fbddt6blfqygt9gl,Y95tdPi3,2020-0188,2020-11-17,10:08:50,10:27:39,NA,incomplete,29,filling,0,0,right,Purple_Star_Grid_2.jpg,Purple_Circle_Stripes_1.jpg,Green_Triangle_Grid_4.jpg,right,1230.1450000377372,true,low,NA,NA,NA,NA,NA,NA,NA,false
Y95tdPi3,3t5zxgo9eh1fn0t8t5nft3pt661qzj,3d4ch1lgee6br4fbddt6blfqygt9gl,Y95tdPi3,2020-0188,2020-11-17,10:08:50,10:27:39,NA,incomplete,30,color,1,1,right,Purple_Triangle_Dots_2.jpg,Blue_Star_Dots_3.jpg,Purple_Circle_Grid_1.jpg,left,894.3950000102632,false,low,NA,NA,NA,NA,NA,NA,NA,false
Y95tdPi3,3t5zxgo9eh1fn0t8t5nft3pt661qzj,3d4ch1lgee6br4fbddt6blfqygt9gl,Y95tdPi3,2020-0188,2020-11-17,10:08:50,10:27:39,NA,incomplete,31,color,1,1,left,Green_Circle_Grid_2.jpg,Green_Star_Chess_3.jpg,Blue_Plus_Grid_1.jpg,left,487.51499998616055,true,low,NA,NA,NA,NA,NA,NA,NA,false
Y95tdPi3,3t5zxgo9eh1fn0t8t5nft3pt661qzj,3d4ch1lgee6br4fbddt6blfqygt9gl,Y95tdPi3,2020-0188,2020-11-17,10:08:50,10:27:39,NA,incomplete,32,color,1,1,right,Green_Circle_Dots_2.jpg,Red_Star_Dots_4.jpg,Green_Plus_Stripes_1.jpg,right,701.8900000257418,true,low,NA,NA,NA,NA,NA,NA,NA,false
Y95tdPi3,3t5zxgo9eh1fn0t8t5nft3pt661qzj,3d4ch1lgee6br4fbddt6blfqygt9gl,Y95tdPi3,2020-0188,2020-11-17,10:08:50,10:27:39,NA,incomplete,33,color,1,0,left,Blue_Triangle_Stripes_4.jpg,Blue_Star_Grid_1.jpg,Purple_Circle_Stripes_3.jpg,left,707.6300000189804,true,low,NA,NA,NA,NA,NA,NA,NA,false
Y95tdPi3,3t5zxgo9eh1fn0t8t5nft3pt661qzj,3d4ch1lgee6br4fbddt6blfqygt9gl,Y95tdPi3,2020-0188,2020-11-17,10:08:50,10:27:39,NA,incomplete,34,color,1,1,left,Blue_Circle_Stripes_2.jpg,Blue_Plus_Dots_4.jpg,Green_Triangle_Stripes_1.jpg,left,889.2650000052527,true,low,NA,NA,NA,NA,NA,NA,NA,false
Y95tdPi3,3t5zxgo9eh1fn0t8t5nft3pt661qzj,3d4ch1lgee6br4fbddt6blfqygt9gl,Y95tdPi3,2020-0188,2020-11-17,10:08:50,10:27:39,NA,incomplete,35,color,1,0,left,Blue_Star_Dots_1.jpg,Blue_Plus_Stripes_3.jpg,Purple_Circle_Dots_2.jpg,left,645.0549999717623,true,low,NA,NA,NA,NA,NA,NA,NA,false
Y95tdPi3,3t5zxgo9eh1fn0t8t5nft3pt661qzj,3d4ch1lgee6br4fbddt6blfqygt9gl,Y95tdPi3,2020-0188,2020-11-17,10:08:50,10:27:39,NA,incomplete,36,color,1,1,right,Blue_Plus_Chess_2.jpg,Red_Circle_Chess_3.jpg,Blue_Triangle_Dots_4.jpg,left,855.9099999838509,false,low,NA,NA,NA,NA,NA,NA,NA,false
Y95tdPi3,3t5zxgo9eh1fn0t8t5nft3pt661qzj,3d4ch1lgee6br4fbddt6blfqygt9gl,Y95tdPi3,2020-0188,2020-11-17,10:08:50,10:27:39,NA,incomplete,37,color,1,1,left,Blue_Plus_Stripes_1.jpg,Blue_Triangle_Chess_3.jpg,Purple_Star_Stripes_2.jpg,left,744.3500000517815,true,low,NA,NA,NA,NA,NA,NA,NA,false
Y95tdPi3,3t5zxgo9eh1fn0t8t5nft3pt661qzj,3d4ch1lgee6br4fbddt6blfqygt9gl,Y95tdPi3,2020-0188,2020-11-17,10:08:50,10:27:39,NA,incomplete,38,color,1,0,left,Purple_Plus_Grid_2.jpg,Purple_Circle_Chess_1.jpg,Red_Star_Grid_4.jpg,left,767.1649999683723,true,low,NA,NA,NA,NA,NA,NA,NA,false
Y95tdPi3,3t5zxgo9eh1fn0t8t5nft3pt661qzj,3d4ch1lgee6br4fbddt6blfqygt9gl,Y95tdPi3,2020-0188,2020-11-17,10:08:50,10:27:39,NA,incomplete,39,color,1,1,left,Blue_Triangle_Grid_1.jpg,Blue_Star_Stripes_2.jpg,Red_Circle_Grid_3.jpg,right,872.2299999790266,false,low,NA,NA,NA,NA,NA,NA,NA,false
Y95tdPi3,3t5zxgo9eh1fn0t8t5nft3pt661qzj,3d4ch1lgee6br4fbddt6blfqygt9gl,Y95tdPi3,2020-0188,2020-11-17,10:08:50,10:27:39,NA,incomplete,40,filling,0,1,left,Blue_Star_Stripes_3.jpg,Red_Triangle_Stripes_4.jpg,Blue_Plus_Dots_2.jpg,right,674.4799999869429,false,low,NA,NA,NA,NA,NA,NA,NA,false
Y95tdPi3,3t5zxgo9eh1fn0t8t5nft3pt661qzj,3d4ch1lgee6br4fbddt6blfqygt9gl,Y95tdPi3,2020-0188,2020-11-17,10:08:50,10:27:39,NA,incomplete,41,filling,0,1,right,Purple_Triangle_Grid_1.jpg,Purple_Plus_Dots_2.jpg,Red_Circle_Grid_3.jpg,right,781.3650000025518,true,low,NA,NA,NA,NA,NA,NA,NA,false
Y95tdPi3,3t5zxgo9eh1fn0t8t5nft3pt661qzj,3d4ch1lgee6br4fbddt6blfqygt9gl,Y95tdPi3,2020-0188,2020-11-17,10:08:50,10:27:39,NA,incomplete,42,filling,0,1,left,Green_Star_Chess_3.jpg,Blue_Triangle_Chess_2.jpg,Green_Circle_Stripes_4.jpg,left,1015.4499999480322,true,low,NA,NA,NA,NA,NA,NA,NA,false
Y95tdPi3,3t5zxgo9eh1fn0t8t5nft3pt661qzj,3d4ch1lgee6br4fbddt6blfqygt9gl,Y95tdPi3,2020-0188,2020-11-17,10:08:50,10:27:39,NA,incomplete,43,filling,0,1,right,Green_Star_Chess_3.jpg,Green_Triangle_Stripes_4.jpg,Purple_Circle_Chess_2.jpg,right,960.4599999729544,true,low,NA,NA,NA,NA,NA,NA,NA,false
Y95tdPi3,3t5zxgo9eh1fn0t8t5nft3pt661qzj,3d4ch1lgee6br4fbddt6blfqygt9gl,Y95tdPi3,2020-0188,2020-11-17,10:08:50,10:27:39,NA,incomplete,44,filling,0,1,right,Blue_Triangle_Dots_4.jpg,Blue_Star_Grid_1.jpg,Green_Plus_Dots_2.jpg,right,1046.005000011064,true,low,NA,NA,NA,NA,NA,NA,NA,false
Y95tdPi3,3t5zxgo9eh1fn0t8t5nft3pt661qzj,3d4ch1lgee6br4fbddt6blfqygt9gl,Y95tdPi3,2020-0188,2020-11-17,10:08:50,10:27:39,NA,incomplete,45,filling,0,1,right,Green_Star_Chess_2.jpg,Green_Plus_Grid_3.jpg,Purple_Triangle_Chess_4.jpg,right,1072.2449999884702,true,low,NA,NA,NA,NA,NA,NA,NA,false
Y95tdPi3,3t5zxgo9eh1fn0t8t5nft3pt661qzj,3d4ch1lgee6br4fbddt6blfqygt9gl,Y95tdPi3,2020-0188,2020-11-17,10:08:50,10:27:39,NA,incomplete,46,filling,0,1,left,Blue_Circle_Chess_2.jpg,Green_Star_Chess_1.jpg,Blue_Triangle_Dots_3.jpg,left,896.0250000236556,true,low,NA,NA,NA,NA,NA,NA,NA,false
Y95tdPi3,3t5zxgo9eh1fn0t8t5nft3pt661qzj,3d4ch1lgee6br4fbddt6blfqygt9gl,Y95tdPi3,2020-0188,2020-11-17,10:08:50,10:27:39,NA,incomplete,47,filling,0,1,right,Purple_Plus_Chess_1.jpg,Purple_Star_Grid_3.jpg,Red_Triangle_Chess_2.jpg,right,913.7000000337139,true,low,NA,NA,NA,NA,NA,NA,NA,false
Y95tdPi3,3t5zxgo9eh1fn0t8t5nft3pt661qzj,3d4ch1lgee6br4fbddt6blfqygt9gl,Y95tdPi3,2020-0188,2020-11-17,10:08:50,10:27:39,NA,incomplete,48,filling,0,0,right,Green_Star_Grid_2.jpg,Green_Triangle_Chess_4.jpg,Blue_Circle_Grid_3.jpg,right,912.9599999869242,true,low,NA,NA,NA,NA,NA,NA,NA,false
Y95tdPi3,3t5zxgo9eh1fn0t8t5nft3pt661qzj,3d4ch1lgee6br4fbddt6blfqygt9gl,Y95tdPi3,2020-0188,2020-11-17,10:08:50,10:27:39,NA,incomplete,49,filling,0,1,right,Purple_Plus_Stripes_3.jpg,Purple_Triangle_Chess_1.jpg,Blue_Star_Stripes_4.jpg,left,597.1900000004098,false,low,NA,NA,NA,NA,NA,NA,NA,false
Y95tdPi3,3t5zxgo9eh1fn0t8t5nft3pt661qzj,3d4ch1lgee6br4fbddt6blfqygt9gl,Y95tdPi3,2020-0188,2020-11-17,10:08:50,10:27:39,NA,incomplete,50,color,1,1,right,Purple_Plus_Grid_2.jpg,Blue_Triangle_Grid_1.jpg,Purple_Star_Chess_3.jpg,left,1127.474999986589,false,low,NA,NA,NA,NA,NA,NA,NA,false
Y95tdPi3,3t5zxgo9eh1fn0t8t5nft3pt661qzj,3d4ch1lgee6br4fbddt6blfqygt9gl,Y95tdPi3,2020-0188,2020-11-17,10:08:50,10:27:39,NA,incomplete,51,color,1,1,right,Blue_Star_Dots_2.jpg,Red_Plus_Dots_3.jpg,Blue_Triangle_Grid_1.jpg,right,542.9000000003725,true,low,NA,NA,NA,NA,NA,NA,NA,false
Y95tdPi3,3t5zxgo9eh1fn0t8t5nft3pt661qzj,3d4ch1lgee6br4fbddt6blfqygt9gl,Y95tdPi3,2020-0188,2020-11-17,10:08:50,10:27:39,NA,incomplete,52,color,1,1,right,Purple_Star_Stripes_4.jpg,Blue_Triangle_Stripes_1.jpg,Purple_Circle_Chess_2.jpg,right,526.0700000217184,true,low,NA,NA,NA,NA,NA,NA,NA,false
Y95tdPi3,3t5zxgo9eh1fn0t8t5nft3pt661qzj,3d4ch1lgee6br4fbddt6blfqygt9gl,Y95tdPi3,2020-0188,2020-11-17,10:08:50,10:27:39,NA,incomplete,53,color,1,1,left,Green_Triangle_Dots_4.jpg,Green_Plus_Grid_2.jpg,Purple_Star_Dots_1.jpg,left,479.445000004489,true,low,NA,NA,NA,NA,NA,NA,NA,false
Y95tdPi3,3t5zxgo9eh1fn0t8t5nft3pt661qzj,3d4ch1lgee6br4fbddt6blfqygt9gl,Y95tdPi3,2020-0188,2020-11-17,10:08:50,10:27:39,NA,incomplete,54,color,1,1,left,Purple_Triangle_Chess_4.jpg,Purple_Circle_Stripes_1.jpg,Blue_Star_Chess_3.jpg,left,880.7849999866448,true,low,NA,NA,NA,NA,NA,NA,NA,false
Y95tdPi3,3t5zxgo9eh1fn0t8t5nft3pt661qzj,3d4ch1lgee6br4fbddt6blfqygt9gl,Y95tdPi3,2020-0188,2020-11-17,10:08:50,10:27:39,NA,incomplete,55,color,1,1,right,Green_Triangle_Grid_4.jpg,Red_Plus_Grid_2.jpg,Green_Circle_Dots_3.jpg,right,525.9049999876879,true,low,NA,NA,NA,NA,NA,NA,NA,false
Y95tdPi3,3t5zxgo9eh1fn0t8t5nft3pt661qzj,3d4ch1lgee6br4fbddt6blfqygt9gl,Y95tdPi3,2020-0188,2020-11-17,10:08:50,10:27:39,NA,incomplete,56,color,1,1,right,Green_Plus_Grid_3.jpg,Purple_Circle_Grid_2.jpg,Green_Star_Chess_1.jpg,right,617.5050000310875,true,low,NA,NA,NA,NA,NA,NA,NA,false
Y95tdPi3,3t5zxgo9eh1fn0t8t5nft3pt661qzj,3d4ch1lgee6br4fbddt6blfqygt9gl,Y95tdPi3,2020-0188,2020-11-17,10:08:50,10:27:39,NA,incomplete,57,color,1,1,left,Green_Plus_Grid_3.jpg,Green_Star_Dots_2.jpg,Purple_Triangle_Grid_4.jpg,right,844.0200000186451,false,low,NA,NA,NA,NA,NA,NA,NA,false
Y95tdPi3,3t5zxgo9eh1fn0t8t5nft3pt661qzj,3d4ch1lgee6br4fbddt6blfqygt9gl,Y95tdPi3,2020-0188,2020-11-17,10:08:50,10:27:39,NA,incomplete,58,color,1,1,right,Red_Plus_Chess_1.jpg,Purple_Triangle_Chess_4.jpg,Red_Star_Stripes_2.jpg,right,477.29000000981614,true,low,NA,NA,NA,NA,NA,NA,NA,false
Y95tdPi3,3t5zxgo9eh1fn0t8t5nft3pt661qzj,3d4ch1lgee6br4fbddt6blfqygt9gl,Y95tdPi3,2020-0188,2020-11-17,10:08:50,10:27:39,NA,incomplete,59,color,1,0,left,Red_Triangle_Chess_2.jpg,Red_Star_Stripes_1.jpg,Purple_Plus_Chess_4.jpg,left,595.5150000518188,true,low,NA,NA,NA,NA,NA,NA,NA,false
Y95tdPi3,3t5zxgo9eh1fn0t8t5nft3pt661qzj,3d4ch1lgee6br4fbddt6blfqygt9gl,Y95tdPi3,2020-0188,2020-11-17,10:08:50,10:27:39,NA,incomplete,60,filling,0,1,right,Purple_Star_Stripes_1.jpg,Purple_Triangle_Chess_4.jpg,Green_Plus_Stripes_2.jpg,right,1192.9500000551343,true,low,NA,NA,NA,NA,NA,NA,NA,false
Y95tdPi3,3t5zxgo9eh1fn0t8t5nft3pt661qzj,3d4ch1lgee6br4fbddt6blfqygt9gl,Y95tdPi3,2020-0188,2020-11-17,10:08:50,10:27:39,NA,incomplete,61,filling,0,1,left,Green_Star_Stripes_1.jpg,Purple_Triangle_Stripes_2.jpg,Green_Circle_Dots_4.jpg,left,790.355000004638,true,low,NA,NA,NA,NA,NA,NA,NA,false
Y95tdPi3,3t5zxgo9eh1fn0t8t5nft3pt661qzj,3d4ch1lgee6br4fbddt6blfqygt9gl,Y95tdPi3,2020-0188,2020-11-17,10:08:50,10:27:39,NA,incomplete,62,filling,0,1,right,Green_Triangle_Dots_3.jpg,Green_Star_Chess_1.jpg,Red_Circle_Dots_2.jpg,right,1079.555000003893,true,low,NA,NA,NA,NA,NA,NA,NA,false
Y95tdPi3,3t5zxgo9eh1fn0t8t5nft3pt661qzj,3d4ch1lgee6br4fbddt6blfqygt9gl,Y95tdPi3,2020-0188,2020-11-17,10:08:50,10:27:39,NA,incomplete,63,filling,0,1,left,Purple_Plus_Chess_4.jpg,Green_Star_Chess_1.jpg,Purple_Triangle_Grid_2.jpg,left,842.0400000177324,true,low,NA,NA,NA,NA,NA,NA,NA,false
Y95tdPi3,3t5zxgo9eh1fn0t8t5nft3pt661qzj,3d4ch1lgee6br4fbddt6blfqygt9gl,Y95tdPi3,2020-0188,2020-11-17,10:08:50,10:27:39,NA,incomplete,64,filling,0,1,left,Blue_Triangle_Chess_2.jpg,Red_Plus_Chess_1.jpg,Blue_Circle_Dots_4.jpg,left,802.4999999906868,true,low,NA,NA,NA,NA,NA,NA,NA,false
Y95tdPi3,3t5zxgo9eh1fn0t8t5nft3pt661qzj,3d4ch1lgee6br4fbddt6blfqygt9gl,Y95tdPi3,2020-0188,2020-11-17,10:08:50,10:27:39,NA,incomplete,65,filling,0,0,left,Blue_Plus_Chess_3.jpg,Purple_Triangle_Chess_4.jpg,Blue_Circle_Dots_1.jpg,left,923.5950000002049,true,low,NA,NA,NA,NA,NA,NA,NA,false
Y95tdPi3,3t5zxgo9eh1fn0t8t5nft3pt661qzj,3d4ch1lgee6br4fbddt6blfqygt9gl,Y95tdPi3,2020-0188,2020-11-17,10:08:50,10:27:39,NA,incomplete,66,filling,0,1,left,Blue_Plus_Dots_3.jpg,Red_Star_Dots_1.jpg,Blue_Circle_Grid_2.jpg,left,865.7099999836646,true,low,NA,NA,NA,NA,NA,NA,NA,false
Y95tdPi3,3t5zxgo9eh1fn0t8t5nft3pt661qzj,3d4ch1lgee6br4fbddt6blfqygt9gl,Y95tdPi3,2020-0188,2020-11-17,10:08:50,10:27:39,NA,incomplete,67,filling,0,1,right,Purple_Circle_Stripes_3.jpg,Purple_Triangle_Chess_2.jpg,Red_Plus_Stripes_1.jpg,right,918.8950000097975,true,low,NA,NA,NA,NA,NA,NA,NA,false
Y95tdPi3,3t5zxgo9eh1fn0t8t5nft3pt661qzj,3d4ch1lgee6br4fbddt6blfqygt9gl,Y95tdPi3,2020-0188,2020-11-17,10:08:50,10:27:39,NA,incomplete,68,filling,0,0,right,Red_Plus_Grid_3.jpg,Red_Circle_Stripes_4.jpg,Purple_Star_Grid_2.jpg,right,1025.3900000243448,true,low,NA,NA,NA,NA,NA,NA,NA,false
Y95tdPi3,3t5zxgo9eh1fn0t8t5nft3pt661qzj,3d4ch1lgee6br4fbddt6blfqygt9gl,Y95tdPi3,2020-0188,2020-11-17,10:08:50,10:27:39,NA,incomplete,69,filling,0,1,left,Blue_Circle_Grid_4.jpg,Green_Triangle_Grid_1.jpg,Blue_Star_Dots_2.jpg,right,547.8449999936856,false,low,NA,NA,NA,NA,NA,NA,NA,false
Y95tdPi3,3t5zxgo9eh1fn0t8t5nft3pt661qzj,3d4ch1lgee6br4fbddt6blfqygt9gl,Y95tdPi3,2020-0188,2020-11-17,10:08:50,10:27:39,NA,incomplete,70,color,1,0,left,Purple_Plus_Chess_3.jpg,Purple_Triangle_Grid_4.jpg,Red_Circle_Chess_1.jpg,right,1002.1100000012666,false,low,NA,NA,NA,NA,NA,NA,NA,false
Y95tdPi3,3t5zxgo9eh1fn0t8t5nft3pt661qzj,3d4ch1lgee6br4fbddt6blfqygt9gl,Y95tdPi3,2020-0188,2020-11-17,10:08:50,10:27:39,NA,incomplete,71,color,1,1,right,Blue_Circle_Grid_3.jpg,Green_Plus_Grid_2.jpg,Blue_Star_Chess_1.jpg,left,797.9250000207685,false,low,NA,NA,NA,NA,NA,NA,NA,false
Y95tdPi3,3t5zxgo9eh1fn0t8t5nft3pt661qzj,3d4ch1lgee6br4fbddt6blfqygt9gl,Y95tdPi3,2020-0188,2020-11-17,10:08:50,10:27:39,NA,incomplete,72,color,1,1,right,Purple_Triangle_Stripes_4.jpg,Blue_Plus_Stripes_2.jpg,Purple_Circle_Grid_3.jpg,right,544.2500000353903,true,low,NA,NA,NA,NA,NA,NA,NA,false
Y95tdPi3,3t5zxgo9eh1fn0t8t5nft3pt661qzj,3d4ch1lgee6br4fbddt6blfqygt9gl,Y95tdPi3,2020-0188,2020-11-17,10:08:50,10:27:39,NA,incomplete,73,color,1,1,left,Green_Circle_Grid_2.jpg,Green_Plus_Dots_3.jpg,Purple_Triangle_Grid_4.jpg,left,515.2200000011362,true,low,NA,NA,NA,NA,NA,NA,NA,false
Y95tdPi3,3t5zxgo9eh1fn0t8t5nft3pt661qzj,3d4ch1lgee6br4fbddt6blfqygt9gl,Y95tdPi3,2020-0188,2020-11-17,10:08:50,10:27:39,NA,incomplete,74,color,1,1,left,Purple_Triangle_Chess_4.jpg,Purple_Plus_Dots_3.jpg,Blue_Circle_Chess_1.jpg,left,566.2800000282004,true,low,NA,NA,NA,NA,NA,NA,NA,false
Y95tdPi3,3t5zxgo9eh1fn0t8t5nft3pt661qzj,3d4ch1lgee6br4fbddt6blfqygt9gl,Y95tdPi3,2020-0188,2020-11-17,10:08:50,10:27:39,NA,incomplete,75,color,1,1,left,Blue_Circle_Stripes_4.jpg,Blue_Plus_Grid_1.jpg,Red_Triangle_Stripes_2.jpg,left,584.1000000364147,true,low,NA,NA,NA,NA,NA,NA,NA,false
Y95tdPi3,3t5zxgo9eh1fn0t8t5nft3pt661qzj,3d4ch1lgee6br4fbddt6blfqygt9gl,Y95tdPi3,2020-0188,2020-11-17,10:08:50,10:27:39,NA,incomplete,76,color,1,0,right,Blue_Circle_Chess_1.jpg,Red_Star_Chess_3.jpg,Blue_Triangle_Stripes_2.jpg,right,581.2450000084937,true,low,NA,NA,NA,NA,NA,NA,NA,false
Y95tdPi3,3t5zxgo9eh1fn0t8t5nft3pt661qzj,3d4ch1lgee6br4fbddt6blfqygt9gl,Y95tdPi3,2020-0188,2020-11-17,10:08:50,10:27:39,NA,incomplete,77,color,1,0,left,Blue_Plus_Stripes_2.jpg,Blue_Circle_Grid_1.jpg,Red_Triangle_Stripes_3.jpg,left,468.1649999693036,true,low,NA,NA,NA,NA,NA,NA,NA,false
Y95tdPi3,3t5zxgo9eh1fn0t8t5nft3pt661qzj,3d4ch1lgee6br4fbddt6blfqygt9gl,Y95tdPi3,2020-0188,2020-11-17,10:08:50,10:27:39,NA,incomplete,78,color,1,1,right,Blue_Circle_Grid_4.jpg,Green_Triangle_Grid_1.jpg,Blue_Plus_Dots_3.jpg,left,784.1149999876507,false,low,NA,NA,NA,NA,NA,NA,NA,false
Y95tdPi3,3t5zxgo9eh1fn0t8t5nft3pt661qzj,3d4ch1lgee6br4fbddt6blfqygt9gl,Y95tdPi3,2020-0188,2020-11-17,10:08:50,10:27:39,NA,incomplete,79,color,1,1,left,Red_Star_Dots_3.jpg,Red_Plus_Grid_4.jpg,Blue_Circle_Dots_1.jpg,right,1084.320000023581,false,low,NA,NA,NA,NA,NA,NA,NA,false
Y95tdPi3,3t5zxgo9eh1fn0t8t5nft3pt661qzj,3d4ch1lgee6br4fbddt6blfqygt9gl,Y95tdPi3,2020-0188,2020-11-17,10:08:50,10:27:39,NA,incomplete,80,filling,0,1,right,Blue_Star_Dots_4.jpg,Blue_Plus_Grid_2.jpg,Red_Triangle_Dots_3.jpg,left,462.5600000144914,false,low,NA,NA,NA,NA,NA,NA,NA,false
Y95tdPi3,3t5zxgo9eh1fn0t8t5nft3pt661qzj,3d4ch1lgee6br4fbddt6blfqygt9gl,Y95tdPi3,2020-0188,2020-11-17,10:08:50,10:27:39,NA,incomplete,81,filling,0,1,left,Blue_Star_Dots_3.jpg,Green_Circle_Dots_4.jpg,Blue_Plus_Stripes_1.jpg,left,847.2999999648891,true,low,NA,NA,NA,NA,NA,NA,NA,false
Y95tdPi3,3t5zxgo9eh1fn0t8t5nft3pt661qzj,3d4ch1lgee6br4fbddt6blfqygt9gl,Y95tdPi3,2020-0188,2020-11-17,10:08:50,10:27:39,NA,incomplete,82,filling,0,1,right,Green_Plus_Stripes_4.jpg,Green_Triangle_Grid_2.jpg,Purple_Circle_Stripes_1.jpg,right,1056.6749999998137,true,low,NA,NA,NA,NA,NA,NA,NA,false
Y95tdPi3,3t5zxgo9eh1fn0t8t5nft3pt661qzj,3d4ch1lgee6br4fbddt6blfqygt9gl,Y95tdPi3,2020-0188,2020-11-17,10:08:50,10:27:39,NA,incomplete,83,filling,0,1,right,Red_Plus_Grid_1.jpg,Red_Star_Stripes_2.jpg,Blue_Circle_Grid_4.jpg,right,1011.4449999528006,true,low,NA,NA,NA,NA,NA,NA,NA,false
Y95tdPi3,3t5zxgo9eh1fn0t8t5nft3pt661qzj,3d4ch1lgee6br4fbddt6blfqygt9gl,Y95tdPi3,2020-0188,2020-11-17,10:08:50,10:27:39,NA,incomplete,84,filling,0,1,left,Red_Circle_Dots_1.jpg,Blue_Triangle_Dots_4.jpg,Red_Star_Grid_2.jpg,left,778.3650000346825,true,low,NA,NA,NA,NA,NA,NA,NA,false
Y95tdPi3,3t5zxgo9eh1fn0t8t5nft3pt661qzj,3d4ch1lgee6br4fbddt6blfqygt9gl,Y95tdPi3,2020-0188,2020-11-17,10:08:50,10:27:39,NA,incomplete,85,filling,0,1,right,Green_Triangle_Stripes_2.jpg,Green_Circle_Chess_4.jpg,Purple_Plus_Stripes_1.jpg,right,854.6349999960512,true,low,NA,NA,NA,NA,NA,NA,NA,false
Y95tdPi3,3t5zxgo9eh1fn0t8t5nft3pt661qzj,3d4ch1lgee6br4fbddt6blfqygt9gl,Y95tdPi3,2020-0188,2020-11-17,10:08:50,10:27:39,NA,incomplete,86,filling,0,1,right,Red_Circle_Grid_3.jpg,Red_Star_Stripes_2.jpg,Green_Plus_Grid_4.jpg,right,1075.4949999973178,true,low,NA,NA,NA,NA,NA,NA,NA,false
Y95tdPi3,3t5zxgo9eh1fn0t8t5nft3pt661qzj,3d4ch1lgee6br4fbddt6blfqygt9gl,Y95tdPi3,2020-0188,2020-11-17,10:08:50,10:27:39,NA,incomplete,87,filling,0,1,left,Blue_Circle_Grid_2.jpg,Red_Triangle_Grid_4.jpg,Blue_Plus_Stripes_3.jpg,left,880.0549999577925,true,low,NA,NA,NA,NA,NA,NA,NA,false
Y95tdPi3,3t5zxgo9eh1fn0t8t5nft3pt661qzj,3d4ch1lgee6br4fbddt6blfqygt9gl,Y95tdPi3,2020-0188,2020-11-17,10:08:50,10:27:39,NA,incomplete,88,filling,0,0,left,Purple_Plus_Stripes_2.jpg,Green_Triangle_Stripes_3.jpg,Purple_Circle_Dots_1.jpg,left,963.7100000400096,true,low,NA,NA,NA,NA,NA,NA,NA,false
Y95tdPi3,3t5zxgo9eh1fn0t8t5nft3pt661qzj,3d4ch1lgee6br4fbddt6blfqygt9gl,Y95tdPi3,2020-0188,2020-11-17,10:08:50,10:27:39,NA,incomplete,89,filling,0,1,right,Purple_Circle_Dots_2.jpg,Purple_Star_Grid_4.jpg,Blue_Plus_Dots_3.jpg,left,501.700000022538,false,low,NA,NA,NA,NA,NA,NA,NA,false
Y95tdPi3,3t5zxgo9eh1fn0t8t5nft3pt661qzj,3d4ch1lgee6br4fbddt6blfqygt9gl,Y95tdPi3,2020-0188,2020-11-17,10:08:50,10:27:39,NA,incomplete,90,color,1,1,right,Blue_Plus_Grid_1.jpg,Red_Star_Grid_2.jpg,Blue_Circle_Chess_3.jpg,left,986.380000016652,false,low,NA,NA,NA,NA,NA,NA,NA,false
Y95tdPi3,3t5zxgo9eh1fn0t8t5nft3pt661qzj,3d4ch1lgee6br4fbddt6blfqygt9gl,Y95tdPi3,2020-0188,2020-11-17,10:08:50,10:27:39,NA,incomplete,91,color,1,1,right,Purple_Plus_Stripes_3.jpg,Red_Triangle_Stripes_2.jpg,Purple_Circle_Dots_1.jpg,right,554.7099999967031,true,low,NA,NA,NA,NA,NA,NA,NA,false
Y95tdPi3,3t5zxgo9eh1fn0t8t5nft3pt661qzj,3d4ch1lgee6br4fbddt6blfqygt9gl,Y95tdPi3,2020-0188,2020-11-17,10:08:50,10:27:39,NA,incomplete,92,color,1,1,right,Red_Plus_Dots_4.jpg,Purple_Triangle_Dots_3.jpg,Red_Circle_Chess_2.jpg,right,917.6100000040606,true,low,NA,NA,NA,NA,NA,NA,NA,false
Y95tdPi3,3t5zxgo9eh1fn0t8t5nft3pt661qzj,3d4ch1lgee6br4fbddt6blfqygt9gl,Y95tdPi3,2020-0188,2020-11-17,10:08:50,10:27:39,NA,incomplete,93,color,1,0,right,Red_Triangle_Grid_3.jpg,Blue_Circle_Grid_2.jpg,Red_Plus_Chess_4.jpg,right,456.6650000051595,true,low,NA,NA,NA,NA,NA,NA,NA,false
Y95tdPi3,3t5zxgo9eh1fn0t8t5nft3pt661qzj,3d4ch1lgee6br4fbddt6blfqygt9gl,Y95tdPi3,2020-0188,2020-11-17,10:08:50,10:27:39,NA,incomplete,94,color,1,1,left,Red_Plus_Grid_4.jpg,Red_Triangle_Chess_2.jpg,Purple_Circle_Grid_1.jpg,left,447.9150000261143,true,low,NA,NA,NA,NA,NA,NA,NA,false
Y95tdPi3,3t5zxgo9eh1fn0t8t5nft3pt661qzj,3d4ch1lgee6br4fbddt6blfqygt9gl,Y95tdPi3,2020-0188,2020-11-17,10:08:50,10:27:39,NA,incomplete,95,color,1,1,left,Blue_Plus_Dots_1.jpg,Blue_Triangle_Grid_2.jpg,Green_Star_Dots_3.jpg,left,569.1850000293925,true,low,NA,NA,NA,NA,NA,NA,NA,false
Y95tdPi3,3t5zxgo9eh1fn0t8t5nft3pt661qzj,3d4ch1lgee6br4fbddt6blfqygt9gl,Y95tdPi3,2020-0188,2020-11-17,10:08:50,10:27:39,NA,incomplete,96,color,1,1,right,Purple_Circle_Dots_3.jpg,Blue_Triangle_Dots_1.jpg,Purple_Star_Grid_4.jpg,right,589.9499999941327,true,low,NA,NA,NA,NA,NA,NA,NA,false
Y95tdPi3,3t5zxgo9eh1fn0t8t5nft3pt661qzj,3d4ch1lgee6br4fbddt6blfqygt9gl,Y95tdPi3,2020-0188,2020-11-17,10:08:50,10:27:39,NA,incomplete,97,color,1,1,right,Green_Triangle_Chess_1.jpg,Purple_Star_Chess_3.jpg,Green_Plus_Dots_2.jpg,right,874.3699999758974,true,low,NA,NA,NA,NA,NA,NA,NA,false
Y95tdPi3,3t5zxgo9eh1fn0t8t5nft3pt661qzj,3d4ch1lgee6br4fbddt6blfqygt9gl,Y95tdPi3,2020-0188,2020-11-17,10:08:50,10:27:39,NA,incomplete,98,color,1,1,right,Blue_Triangle_Dots_3.jpg,Red_Star_Dots_2.jpg,Blue_Circle_Stripes_1.jpg,right,885.5650000041351,true,low,NA,NA,NA,NA,NA,NA,NA,false
Y95tdPi3,3t5zxgo9eh1fn0t8t5nft3pt661qzj,3d4ch1lgee6br4fbddt6blfqygt9gl,Y95tdPi3,2020-0188,2020-11-17,10:08:50,10:27:39,NA,incomplete,99,color,1,1,right,Blue_Plus_Stripes_4.jpg,Red_Circle_Stripes_2.jpg,Blue_Star_Chess_3.jpg,right,443.0150000262074,true,low,NA,NA,NA,NA,NA,NA,NA,false
Y95tdPi3,3t5zxgo9eh1fn0t8t5nft3pt661qzj,3d4ch1lgee6br4fbddt6blfqygt9gl,Y95tdPi3,2020-0188,2020-11-17,10:08:50,10:27:39,NA,incomplete,100,filling,0,1,left,Green_Plus_Chess_4.jpg,Blue_Circle_Chess_3.jpg,Green_Star_Stripes_1.jpg,right,486.2800000119023,false,low,NA,NA,NA,NA,NA,NA,NA,false
Y95tdPi3,3t5zxgo9eh1fn0t8t5nft3pt661qzj,3d4ch1lgee6br4fbddt6blfqygt9gl,Y95tdPi3,2020-0188,2020-11-17,10:08:50,10:27:39,NA,incomplete,101,filling,0,1,left,Blue_Triangle_Chess_1.jpg,Purple_Plus_Chess_2.jpg,Blue_Star_Dots_4.jpg,right,511.2399999634363,false,low,NA,NA,NA,NA,NA,NA,NA,false
Y95tdPi3,3t5zxgo9eh1fn0t8t5nft3pt661qzj,3d4ch1lgee6br4fbddt6blfqygt9gl,Y95tdPi3,2020-0188,2020-11-17,10:08:50,10:27:39,NA,incomplete,102,filling,0,1,right,Purple_Star_Chess_4.jpg,Purple_Plus_Dots_3.jpg,Red_Triangle_Chess_2.jpg,right,855.5199999827892,true,low,NA,NA,NA,NA,NA,NA,NA,false
Y95tdPi3,3t5zxgo9eh1fn0t8t5nft3pt661qzj,3d4ch1lgee6br4fbddt6blfqygt9gl,Y95tdPi3,2020-0188,2020-11-17,10:08:50,10:27:39,NA,incomplete,103,filling,0,1,right,Red_Plus_Dots_3.jpg,Red_Triangle_Stripes_1.jpg,Blue_Circle_Dots_2.jpg,right,784.0699999942444,true,low,NA,NA,NA,NA,NA,NA,NA,false
Y95tdPi3,3t5zxgo9eh1fn0t8t5nft3pt661qzj,3d4ch1lgee6br4fbddt6blfqygt9gl,Y95tdPi3,2020-0188,2020-11-17,10:08:50,10:27:39,NA,incomplete,104,filling,0,1,left,Green_Star_Grid_4.jpg,Red_Circle_Grid_2.jpg,Green_Triangle_Chess_3.jpg,left,1142.3300000024028,true,low,NA,NA,NA,NA,NA,NA,NA,false
Y95tdPi3,3t5zxgo9eh1fn0t8t5nft3pt661qzj,3d4ch1lgee6br4fbddt6blfqygt9gl,Y95tdPi3,2020-0188,2020-11-17,10:08:50,10:27:39,NA,incomplete,105,filling,0,1,left,Blue_Star_Chess_4.jpg,Purple_Circle_Chess_2.jpg,Blue_Triangle_Grid_1.jpg,left,963.2199999759905,true,low,NA,NA,NA,NA,NA,NA,NA,false
Y95tdPi3,3t5zxgo9eh1fn0t8t5nft3pt661qzj,3d4ch1lgee6br4fbddt6blfqygt9gl,Y95tdPi3,2020-0188,2020-11-17,10:08:50,10:27:39,NA,incomplete,106,filling,0,1,right,Green_Plus_Chess_3.jpg,Green_Triangle_Grid_1.jpg,Purple_Circle_Chess_2.jpg,right,738.0950000369921,true,low,NA,NA,NA,NA,NA,NA,NA,false
Y95tdPi3,3t5zxgo9eh1fn0t8t5nft3pt661qzj,3d4ch1lgee6br4fbddt6blfqygt9gl,Y95tdPi3,2020-0188,2020-11-17,10:08:50,10:27:39,NA,incomplete,107,filling,0,1,left,Green_Plus_Dots_1.jpg,Purple_Star_Dots_4.jpg,Green_Triangle_Chess_2.jpg,left,875.0149999978021,true,low,NA,NA,NA,NA,NA,NA,NA,false
Y95tdPi3,3t5zxgo9eh1fn0t8t5nft3pt661qzj,3d4ch1lgee6br4fbddt6blfqygt9gl,Y95tdPi3,2020-0188,2020-11-17,10:08:50,10:27:39,NA,incomplete,108,filling,0,1,left,Blue_Star_Dots_1.jpg,Green_Circle_Dots_3.jpg,Blue_Triangle_Stripes_2.jpg,left,733.8350000209175,true,low,NA,NA,NA,NA,NA,NA,NA,false
Y95tdPi3,3t5zxgo9eh1fn0t8t5nft3pt661qzj,3d4ch1lgee6br4fbddt6blfqygt9gl,Y95tdPi3,2020-0188,2020-11-17,10:08:50,10:27:39,NA,incomplete,109,filling,0,1,right,Blue_Circle_Stripes_1.jpg,Blue_Star_Grid_4.jpg,Green_Triangle_Stripes_3.jpg,right,822.745000012219,true,low,NA,NA,NA,NA,NA,NA,NA,false
Y95tdPi3,3t5zxgo9eh1fn0t8t5nft3pt661qzj,3d4ch1lgee6br4fbddt6blfqygt9gl,Y95tdPi3,2020-0188,2020-11-17,10:08:50,10:27:39,NA,incomplete,110,color,1,1,right,Blue_Plus_Stripes_2.jpg,Purple_Circle_Stripes_1.jpg,Blue_Star_Chess_4.jpg,left,802.5950000155717,false,low,NA,NA,NA,NA,NA,NA,NA,false
Y95tdPi3,3t5zxgo9eh1fn0t8t5nft3pt661qzj,3d4ch1lgee6br4fbddt6blfqygt9gl,Y95tdPi3,2020-0188,2020-11-17,10:08:50,10:27:39,NA,incomplete,111,color,1,1,left,Blue_Triangle_Grid_4.jpg,Blue_Plus_Stripes_3.jpg,Green_Circle_Grid_1.jpg,right,942.7300000097603,false,low,NA,NA,NA,NA,NA,NA,NA,false
Y95tdPi3,3t5zxgo9eh1fn0t8t5nft3pt661qzj,3d4ch1lgee6br4fbddt6blfqygt9gl,Y95tdPi3,2020-0188,2020-11-17,10:08:50,10:27:39,NA,incomplete,112,color,1,1,left,Red_Triangle_Grid_2.jpg,Red_Star_Dots_1.jpg,Green_Circle_Grid_4.jpg,left,490.3899999917485,true,low,NA,NA,NA,NA,NA,NA,NA,false
Y95tdPi3,3t5zxgo9eh1fn0t8t5nft3pt661qzj,3d4ch1lgee6br4fbddt6blfqygt9gl,Y95tdPi3,2020-0188,2020-11-17,10:08:50,10:27:39,NA,incomplete,113,color,1,1,right,Purple_Triangle_Chess_1.jpg,Red_Plus_Chess_4.jpg,Purple_Star_Dots_2.jpg,right,650.9049999876879,true,low,NA,NA,NA,NA,NA,NA,NA,false
Y95tdPi3,3t5zxgo9eh1fn0t8t5nft3pt661qzj,3d4ch1lgee6br4fbddt6blfqygt9gl,Y95tdPi3,2020-0188,2020-11-17,10:08:50,10:27:39,NA,incomplete,114,color,1,1,right,Green_Plus_Dots_3.jpg,Blue_Triangle_Dots_4.jpg,Green_Star_Chess_1.jpg,right,547.8000000002794,true,low,NA,NA,NA,NA,NA,NA,NA,false
Y95tdPi3,3t5zxgo9eh1fn0t8t5nft3pt661qzj,3d4ch1lgee6br4fbddt6blfqygt9gl,Y95tdPi3,2020-0188,2020-11-17,10:08:50,10:27:39,NA,incomplete,115,color,1,1,left,Blue_Triangle_Grid_3.jpg,Blue_Circle_Stripes_2.jpg,Purple_Plus_Grid_1.jpg,left,459.83499998692423,true,low,NA,NA,NA,NA,NA,NA,NA,false
Y95tdPi3,3t5zxgo9eh1fn0t8t5nft3pt661qzj,3d4ch1lgee6br4fbddt6blfqygt9gl,Y95tdPi3,2020-0188,2020-11-17,10:08:50,10:27:39,NA,incomplete,116,color,1,1,right,Green_Circle_Grid_4.jpg,Blue_Plus_Grid_2.jpg,Green_Star_Chess_1.jpg,right,498.3549999888055,true,low,NA,NA,NA,NA,NA,NA,NA,false
Y95tdPi3,3t5zxgo9eh1fn0t8t5nft3pt661qzj,3d4ch1lgee6br4fbddt6blfqygt9gl,Y95tdPi3,2020-0188,2020-11-17,10:08:50,10:27:39,NA,incomplete,117,color,1,0,left,Purple_Plus_Stripes_4.jpg,Purple_Triangle_Dots_1.jpg,Blue_Star_Stripes_3.jpg,left,691.1350000300445,true,low,NA,NA,NA,NA,NA,NA,NA,false
Y95tdPi3,3t5zxgo9eh1fn0t8t5nft3pt661qzj,3d4ch1lgee6br4fbddt6blfqygt9gl,Y95tdPi3,2020-0188,2020-11-17,10:08:50,10:27:39,NA,incomplete,118,color,1,0,right,Red_Star_Stripes_1.jpg,Green_Circle_Stripes_4.jpg,Red_Triangle_Grid_2.jpg,right,522.1649999730289,true,low,NA,NA,NA,NA,NA,NA,NA,false
Y95tdPi3,3t5zxgo9eh1fn0t8t5nft3pt661qzj,3d4ch1lgee6br4fbddt6blfqygt9gl,Y95tdPi3,2020-0188,2020-11-17,10:08:50,10:27:39,NA,incomplete,119,color,1,1,left,Red_Circle_Grid_1.jpg,Red_Plus_Stripes_2.jpg,Green_Star_Grid_4.jpg,right,878.3200000179932,false,low,NA,NA,NA,NA,NA,NA,NA,false
Y95tdPi3,3t5zxgo9eh1fn0t8t5nft3pt661qzj,3d4ch1lgee6br4fbddt6blfqygt9gl,Y95tdPi3,2020-0188,2020-11-17,10:08:50,10:27:39,NA,incomplete,120,gender,2,1,left,C_F_04.jpg,A_F_08.jpg,C_M_03.jpg,NA,NA,NA,low,NA,NA,NA,NA,NA,NA,NA,false
Y95tdPi3,3t5zxgo9eh1fn0t8t5nft3pt661qzj,3d4ch1lgee6br4fbddt6blfqygt9gl,Y95tdPi3,2020-0188,2020-11-17,10:08:50,10:27:39,NA,incomplete,121,gender,2,1,left,C_M_05.jpg,A_M_12.jpg,C_F_03.jpg,left,1586.1400000285357,true,low,NA,NA,NA,NA,NA,NA,NA,false
Y95tdPi3,3t5zxgo9eh1fn0t8t5nft3pt661qzj,3d4ch1lgee6br4fbddt6blfqygt9gl,Y95tdPi3,2020-0188,2020-11-17,10:08:50,10:27:39,NA,incomplete,122,gender,2,0,right,A_M_07.jpg,A_F_14.jpg,C_M_05.jpg,right,771.2199999950826,true,low,NA,NA,NA,NA,NA,NA,NA,false
Y95tdPi3,3t5zxgo9eh1fn0t8t5nft3pt661qzj,3d4ch1lgee6br4fbddt6blfqygt9gl,Y95tdPi3,2020-0188,2020-11-17,10:08:50,10:27:39,NA,incomplete,123,gender,2,1,left,C_F_11.jpg,A_F_12.jpg,C_M_04.jpg,left,1062.0449999696575,true,low,NA,NA,NA,NA,NA,NA,NA,false
Y95tdPi3,3t5zxgo9eh1fn0t8t5nft3pt661qzj,3d4ch1lgee6br4fbddt6blfqygt9gl,Y95tdPi3,2020-0188,2020-11-17,10:08:50,10:27:39,NA,incomplete,124,gender,2,1,left,C_F_13.jpg,A_F_10.jpg,C_M_06.jpg,left,680.4150000098161,true,low,NA,NA,NA,NA,NA,NA,NA,false
Y95tdPi3,3t5zxgo9eh1fn0t8t5nft3pt661qzj,3d4ch1lgee6br4fbddt6blfqygt9gl,Y95tdPi3,2020-0188,2020-11-17,10:08:50,10:27:39,NA,incomplete,125,gender,2,1,right,C_F_10.jpg,C_M_07.jpg,A_F_05.jpg,right,869.1749999998137,true,low,NA,NA,NA,NA,NA,NA,NA,false
Y95tdPi3,3t5zxgo9eh1fn0t8t5nft3pt661qzj,3d4ch1lgee6br4fbddt6blfqygt9gl,Y95tdPi3,2020-0188,2020-11-17,10:08:50,10:27:39,NA,incomplete,126,gender,2,0,right,A_F_08.jpg,A_M_01.jpg,C_F_02.jpg,right,756.0599999851547,true,low,NA,NA,NA,NA,NA,NA,NA,false
Y95tdPi3,3t5zxgo9eh1fn0t8t5nft3pt661qzj,3d4ch1lgee6br4fbddt6blfqygt9gl,Y95tdPi3,2020-0188,2020-11-17,10:08:50,10:27:39,NA,incomplete,127,gender,2,1,left,A_M_02.jpg,C_M_14.jpg,A_F_04.jpg,left,1252.509999962058,true,low,NA,NA,NA,NA,NA,NA,NA,false
Y95tdPi3,3t5zxgo9eh1fn0t8t5nft3pt661qzj,3d4ch1lgee6br4fbddt6blfqygt9gl,Y95tdPi3,2020-0188,2020-11-17,10:08:50,10:27:39,NA,incomplete,128,gender,2,1,right,C_F_04.jpg,C_M_06.jpg,A_F_14.jpg,right,970.8300000056624,true,low,NA,NA,NA,NA,NA,NA,NA,false
Y95tdPi3,3t5zxgo9eh1fn0t8t5nft3pt661qzj,3d4ch1lgee6br4fbddt6blfqygt9gl,Y95tdPi3,2020-0188,2020-11-17,10:08:50,10:27:39,NA,incomplete,129,gender,2,1,right,C_M_12.jpg,C_F_10.jpg,A_M_16.jpg,right,749.4650000007823,true,low,NA,NA,NA,NA,NA,NA,NA,false
Y95tdPi3,3t5zxgo9eh1fn0t8t5nft3pt661qzj,3d4ch1lgee6br4fbddt6blfqygt9gl,Y95tdPi3,2020-0188,2020-11-17,10:08:50,10:27:39,NA,incomplete,130,gender,2,1,right,A_M_15.jpg,A_F_03.jpg,C_M_12.jpg,right,679.0199999813922,true,low,NA,NA,NA,NA,NA,NA,NA,false
Y95tdPi3,3t5zxgo9eh1fn0t8t5nft3pt661qzj,3d4ch1lgee6br4fbddt6blfqygt9gl,Y95tdPi3,2020-0188,2020-11-17,10:08:50,10:27:39,NA,incomplete,131,gender,2,1,left,C_F_11.jpg,A_F_13.jpg,C_M_05.jpg,left,979.6099999803118,true,low,NA,NA,NA,NA,NA,NA,NA,false
Y95tdPi3,3t5zxgo9eh1fn0t8t5nft3pt661qzj,3d4ch1lgee6br4fbddt6blfqygt9gl,Y95tdPi3,2020-0188,2020-11-17,10:08:50,10:27:39,NA,incomplete,132,gender,2,0,left,A_M_06.jpg,C_M_03.jpg,A_F_11.jpg,left,1033.49999996135,true,low,NA,NA,NA,NA,NA,NA,NA,false
Y95tdPi3,3t5zxgo9eh1fn0t8t5nft3pt661qzj,3d4ch1lgee6br4fbddt6blfqygt9gl,Y95tdPi3,2020-0188,2020-11-17,10:08:50,10:27:39,NA,incomplete,133,gender,2,1,left,A_F_13.jpg,C_F_02.jpg,A_M_06.jpg,left,828.0699999886565,true,low,NA,NA,NA,NA,NA,NA,NA,false
Y95tdPi3,3t5zxgo9eh1fn0t8t5nft3pt661qzj,3d4ch1lgee6br4fbddt6blfqygt9gl,Y95tdPi3,2020-0188,2020-11-17,10:08:50,10:27:39,NA,incomplete,134,gender,2,0,right,C_M_14.jpg,C_F_10.jpg,A_M_05.jpg,right,881.7600000184029,true,low,NA,NA,NA,NA,NA,NA,NA,false
Y95tdPi3,3t5zxgo9eh1fn0t8t5nft3pt661qzj,3d4ch1lgee6br4fbddt6blfqygt9gl,Y95tdPi3,2020-0188,2020-11-17,10:08:50,10:27:39,NA,incomplete,135,gender,2,1,right,A_F_14.jpg,A_M_09.jpg,C_F_07.jpg,right,813.7650000280701,true,low,NA,NA,NA,NA,NA,NA,NA,false
Y95tdPi3,3t5zxgo9eh1fn0t8t5nft3pt661qzj,3d4ch1lgee6br4fbddt6blfqygt9gl,Y95tdPi3,2020-0188,2020-11-17,10:08:50,10:27:39,NA,incomplete,136,gender,2,0,right,A_M_09.jpg,A_F_11.jpg,C_M_12.jpg,right,794.980000006035,true,low,NA,NA,NA,NA,NA,NA,NA,false
Y95tdPi3,3t5zxgo9eh1fn0t8t5nft3pt661qzj,3d4ch1lgee6br4fbddt6blfqygt9gl,Y95tdPi3,2020-0188,2020-11-17,10:08:50,10:27:39,NA,incomplete,137,gender,2,1,left,A_F_12.jpg,C_F_10.jpg,A_M_14.jpg,left,755.1450000028126,true,low,NA,NA,NA,NA,NA,NA,NA,false
Y95tdPi3,3t5zxgo9eh1fn0t8t5nft3pt661qzj,3d4ch1lgee6br4fbddt6blfqygt9gl,Y95tdPi3,2020-0188,2020-11-17,10:08:50,10:27:39,NA,incomplete,138,gender,2,1,left,A_M_11.jpg,C_M_14.jpg,A_F_07.jpg,right,1020.8599999896251,false,low,NA,NA,NA,NA,NA,NA,NA,false
Y95tdPi3,3t5zxgo9eh1fn0t8t5nft3pt661qzj,3d4ch1lgee6br4fbddt6blfqygt9gl,Y95tdPi3,2020-0188,2020-11-17,10:08:50,10:27:39,NA,incomplete,139,gender,2,1,right,C_F_07.jpg,C_M_03.jpg,A_F_05.jpg,right,939.7900000330992,true,low,NA,NA,NA,NA,NA,NA,NA,false
Y95tdPi3,3t5zxgo9eh1fn0t8t5nft3pt661qzj,3d4ch1lgee6br4fbddt6blfqygt9gl,Y95tdPi3,2020-0188,2020-11-17,10:08:50,10:27:39,NA,incomplete,140,race,3,1,left,A_F_12.jpg,A_M_06.jpg,C_F_10.jpg,right,710.9749999945052,false,low,NA,NA,NA,NA,NA,NA,NA,false
Y95tdPi3,3t5zxgo9eh1fn0t8t5nft3pt661qzj,3d4ch1lgee6br4fbddt6blfqygt9gl,Y95tdPi3,2020-0188,2020-11-17,10:08:50,10:27:39,NA,incomplete,141,race,3,0,right,A_F_06.jpg,C_F_13.jpg,A_M_03.jpg,right,1192.3999999999069,true,low,NA,NA,NA,NA,NA,NA,NA,false
Y95tdPi3,3t5zxgo9eh1fn0t8t5nft3pt661qzj,3d4ch1lgee6br4fbddt6blfqygt9gl,Y95tdPi3,2020-0188,2020-11-17,10:08:50,10:27:39,NA,incomplete,142,race,3,1,right,A_M_02.jpg,C_M_14.jpg,A_F_11.jpg,left,1092.5399999832734,false,low,NA,NA,NA,NA,NA,NA,NA,false
Y95tdPi3,3t5zxgo9eh1fn0t8t5nft3pt661qzj,3d4ch1lgee6br4fbddt6blfqygt9gl,Y95tdPi3,2020-0188,2020-11-17,10:08:50,10:27:39,NA,incomplete,143,race,3,1,right,A_F_16.jpg,C_F_02.jpg,A_M_14.jpg,right,1256.3699999591336,true,low,NA,NA,NA,NA,NA,NA,NA,false
Y95tdPi3,3t5zxgo9eh1fn0t8t5nft3pt661qzj,3d4ch1lgee6br4fbddt6blfqygt9gl,Y95tdPi3,2020-0188,2020-11-17,10:08:50,10:27:39,NA,incomplete,144,race,3,1,left,A_M_01.jpg,A_F_08.jpg,C_M_05.jpg,left,925.6549999699928,true,low,NA,NA,NA,NA,NA,NA,NA,false
Y95tdPi3,3t5zxgo9eh1fn0t8t5nft3pt661qzj,3d4ch1lgee6br4fbddt6blfqygt9gl,Y95tdPi3,2020-0188,2020-11-17,10:08:50,10:27:39,NA,incomplete,145,race,3,1,left,A_F_02.jpg,A_M_15.jpg,C_F_14.jpg,left,905.8400000212714,true,low,NA,NA,NA,NA,NA,NA,NA,false
Y95tdPi3,3t5zxgo9eh1fn0t8t5nft3pt661qzj,3d4ch1lgee6br4fbddt6blfqygt9gl,Y95tdPi3,2020-0188,2020-11-17,10:08:50,10:27:39,NA,incomplete,146,race,3,0,right,C_M_13.jpg,A_M_01.jpg,C_F_12.jpg,right,1118.5500000137836,true,low,NA,NA,NA,NA,NA,NA,NA,false
Y95tdPi3,3t5zxgo9eh1fn0t8t5nft3pt661qzj,3d4ch1lgee6br4fbddt6blfqygt9gl,Y95tdPi3,2020-0188,2020-11-17,10:08:50,10:27:39,NA,incomplete,147,race,3,1,right,C_M_09.jpg,A_M_08.jpg,C_F_05.jpg,right,964.7550000227056,true,low,NA,NA,NA,NA,NA,NA,NA,false
Y95tdPi3,3t5zxgo9eh1fn0t8t5nft3pt661qzj,3d4ch1lgee6br4fbddt6blfqygt9gl,Y95tdPi3,2020-0188,2020-11-17,10:08:50,10:27:39,NA,incomplete,148,race,3,1,left,C_M_02.jpg,C_F_03.jpg,A_M_15.jpg,left,1131.0899999807589,true,low,NA,NA,NA,NA,NA,NA,NA,false
Y95tdPi3,3t5zxgo9eh1fn0t8t5nft3pt661qzj,3d4ch1lgee6br4fbddt6blfqygt9gl,Y95tdPi3,2020-0188,2020-11-17,10:08:50,10:27:39,NA,incomplete,149,race,3,0,right,A_M_12.jpg,C_M_15.jpg,A_F_05.jpg,right,1233.760000031907,true,low,NA,NA,NA,NA,NA,NA,NA,false
Y95tdPi3,3t5zxgo9eh1fn0t8t5nft3pt661qzj,3d4ch1lgee6br4fbddt6blfqygt9gl,Y95tdPi3,2020-0188,2020-11-17,10:08:50,10:27:39,NA,incomplete,150,race,3,1,left,A_M_07.jpg,A_F_02.jpg,C_M_09.jpg,left,839.0150000341237,true,low,NA,NA,NA,NA,NA,NA,NA,false
Y95tdPi3,3t5zxgo9eh1fn0t8t5nft3pt661qzj,3d4ch1lgee6br4fbddt6blfqygt9gl,Y95tdPi3,2020-0188,2020-11-17,10:08:50,10:27:39,NA,incomplete,151,race,3,0,right,A_M_03.jpg,C_M_05.jpg,A_F_04.jpg,right,1247.1050000167452,true,low,NA,NA,NA,NA,NA,NA,NA,false
Y95tdPi3,3t5zxgo9eh1fn0t8t5nft3pt661qzj,3d4ch1lgee6br4fbddt6blfqygt9gl,Y95tdPi3,2020-0188,2020-11-17,10:08:50,10:27:39,NA,incomplete,152,race,3,1,right,A_M_05.jpg,C_M_01.jpg,A_F_03.jpg,right,893.6500000418164,true,low,NA,NA,NA,NA,NA,NA,NA,false
Y95tdPi3,3t5zxgo9eh1fn0t8t5nft3pt661qzj,3d4ch1lgee6br4fbddt6blfqygt9gl,Y95tdPi3,2020-0188,2020-11-17,10:08:50,10:27:39,NA,incomplete,153,race,3,1,left,C_F_04.jpg,C_M_10.jpg,A_F_07.jpg,left,1031.6900000325404,true,low,NA,NA,NA,NA,NA,NA,NA,false
Y95tdPi3,3t5zxgo9eh1fn0t8t5nft3pt661qzj,3d4ch1lgee6br4fbddt6blfqygt9gl,Y95tdPi3,2020-0188,2020-11-17,10:08:50,10:27:39,NA,incomplete,154,race,3,1,left,C_M_06.jpg,C_F_10.jpg,A_M_08.jpg,left,992.9100000299513,true,low,NA,NA,NA,NA,NA,NA,NA,false
Y95tdPi3,3t5zxgo9eh1fn0t8t5nft3pt661qzj,3d4ch1lgee6br4fbddt6blfqygt9gl,Y95tdPi3,2020-0188,2020-11-17,10:08:50,10:27:39,NA,incomplete,155,race,3,0,left,C_M_11.jpg,C_F_10.jpg,A_M_03.jpg,left,1023.2050000340678,true,low,NA,NA,NA,NA,NA,NA,NA,false
Y95tdPi3,3t5zxgo9eh1fn0t8t5nft3pt661qzj,3d4ch1lgee6br4fbddt6blfqygt9gl,Y95tdPi3,2020-0188,2020-11-17,10:08:50,10:27:39,NA,incomplete,156,race,3,1,left,A_F_14.jpg,A_M_16.jpg,C_F_07.jpg,right,895.3849999816157,false,low,NA,NA,NA,NA,NA,NA,NA,false
Y95tdPi3,3t5zxgo9eh1fn0t8t5nft3pt661qzj,3d4ch1lgee6br4fbddt6blfqygt9gl,Y95tdPi3,2020-0188,2020-11-17,10:08:50,10:27:39,NA,incomplete,157,race,3,1,left,A_M_02.jpg,A_F_10.jpg,C_M_09.jpg,left,1208.0049999640323,true,low,NA,NA,NA,NA,NA,NA,NA,false
Y95tdPi3,3t5zxgo9eh1fn0t8t5nft3pt661qzj,3d4ch1lgee6br4fbddt6blfqygt9gl,Y95tdPi3,2020-0188,2020-11-17,10:08:50,10:27:39,NA,incomplete,158,race,3,1,right,C_F_01.jpg,A_F_14.jpg,C_M_03.jpg,right,1146.260000008624,true,low,NA,NA,NA,NA,NA,NA,NA,false
Y95tdPi3,3t5zxgo9eh1fn0t8t5nft3pt661qzj,3d4ch1lgee6br4fbddt6blfqygt9gl,Y95tdPi3,2020-0188,2020-11-17,10:08:50,10:27:39,NA,incomplete,159,race,3,1,left,C_M_13.jpg,C_F_14.jpg,A_M_03.jpg,left,1114.865000010468,true,low,NA,NA,NA,NA,NA,NA,NA,false
Y95tdPi3,3t5zxgo9eh1fn0t8t5nft3pt661qzj,3d4ch1lgee6br4fbddt6blfqygt9gl,Y95tdPi3,2020-0188,2020-11-17,10:08:50,10:27:39,NA,incomplete,160,gender,2,0,left,C_F_07.jpg,A_F_04.jpg,C_M_09.jpg,right,870.8500000066124,false,low,NA,NA,NA,NA,NA,NA,NA,false
Y95tdPi3,3t5zxgo9eh1fn0t8t5nft3pt661qzj,3d4ch1lgee6br4fbddt6blfqygt9gl,Y95tdPi3,2020-0188,2020-11-17,10:08:50,10:27:39,NA,incomplete,161,gender,2,1,left,A_F_07.jpg,C_F_01.jpg,A_M_11.jpg,right,838.0900000338443,false,low,NA,NA,NA,NA,NA,NA,NA,false
Y95tdPi3,3t5zxgo9eh1fn0t8t5nft3pt661qzj,3d4ch1lgee6br4fbddt6blfqygt9gl,Y95tdPi3,2020-0188,2020-11-17,10:08:50,10:27:39,NA,incomplete,162,gender,2,1,right,A_F_06.jpg,A_M_14.jpg,C_F_16.jpg,left,692.1450000372715,false,low,NA,NA,NA,NA,NA,NA,NA,false
Y95tdPi3,3t5zxgo9eh1fn0t8t5nft3pt661qzj,3d4ch1lgee6br4fbddt6blfqygt9gl,Y95tdPi3,2020-0188,2020-11-17,10:08:50,10:27:39,NA,incomplete,163,gender,2,0,right,A_M_03.jpg,A_F_16.jpg,C_M_14.jpg,right,1034.2049999744631,true,low,NA,NA,NA,NA,NA,NA,NA,false
Y95tdPi3,3t5zxgo9eh1fn0t8t5nft3pt661qzj,3d4ch1lgee6br4fbddt6blfqygt9gl,Y95tdPi3,2020-0188,2020-11-17,10:08:50,10:27:39,NA,incomplete,164,gender,2,1,right,A_M_03.jpg,A_F_07.jpg,C_M_13.jpg,right,1437.4749999842606,true,low,NA,NA,NA,NA,NA,NA,NA,false
Y95tdPi3,3t5zxgo9eh1fn0t8t5nft3pt661qzj,3d4ch1lgee6br4fbddt6blfqygt9gl,Y95tdPi3,2020-0188,2020-11-17,10:08:50,10:27:39,NA,incomplete,165,gender,2,1,right,C_M_13.jpg,C_F_08.jpg,A_M_05.jpg,right,1081.3150000176392,true,low,NA,NA,NA,NA,NA,NA,NA,false
Y95tdPi3,3t5zxgo9eh1fn0t8t5nft3pt661qzj,3d4ch1lgee6br4fbddt6blfqygt9gl,Y95tdPi3,2020-0188,2020-11-17,10:08:50,10:27:39,NA,incomplete,166,gender,2,1,right,C_F_05.jpg,C_M_11.jpg,A_F_04.jpg,right,718.204999982845,true,low,NA,NA,NA,NA,NA,NA,NA,false
Y95tdPi3,3t5zxgo9eh1fn0t8t5nft3pt661qzj,3d4ch1lgee6br4fbddt6blfqygt9gl,Y95tdPi3,2020-0188,2020-11-17,10:08:50,10:27:39,NA,incomplete,167,gender,2,1,right,A_M_07.jpg,A_F_11.jpg,C_M_10.jpg,right,1230.4149999981746,true,low,NA,NA,NA,NA,NA,NA,NA,false
Y95tdPi3,3t5zxgo9eh1fn0t8t5nft3pt661qzj,3d4ch1lgee6br4fbddt6blfqygt9gl,Y95tdPi3,2020-0188,2020-11-17,10:08:50,10:27:39,NA,incomplete,168,gender,2,1,right,A_M_09.jpg,A_F_04.jpg,C_M_01.jpg,right,1022.8200000128709,true,low,NA,NA,NA,NA,NA,NA,NA,false
Y95tdPi3,3t5zxgo9eh1fn0t8t5nft3pt661qzj,3d4ch1lgee6br4fbddt6blfqygt9gl,Y95tdPi3,2020-0188,2020-11-17,10:08:50,10:27:39,NA,incomplete,169,gender,2,0,right,A_F_10.jpg,A_M_04.jpg,C_F_01.jpg,right,851.6599999857135,true,low,NA,NA,NA,NA,NA,NA,NA,false
Y95tdPi3,3t5zxgo9eh1fn0t8t5nft3pt661qzj,3d4ch1lgee6br4fbddt6blfqygt9gl,Y95tdPi3,2020-0188,2020-11-17,10:08:50,10:27:39,NA,incomplete,170,gender,2,1,left,C_M_06.jpg,A_M_07.jpg,C_F_04.jpg,left,686.0649999580346,true,low,NA,NA,NA,NA,NA,NA,NA,false
Y95tdPi3,3t5zxgo9eh1fn0t8t5nft3pt661qzj,3d4ch1lgee6br4fbddt6blfqygt9gl,Y95tdPi3,2020-0188,2020-11-17,10:08:50,10:27:39,NA,incomplete,171,gender,2,1,right,A_F_09.jpg,A_M_01.jpg,C_F_08.jpg,right,858.0850000143982,true,low,NA,NA,NA,NA,NA,NA,NA,false
Y95tdPi3,3t5zxgo9eh1fn0t8t5nft3pt661qzj,3d4ch1lgee6br4fbddt6blfqygt9gl,Y95tdPi3,2020-0188,2020-11-17,10:08:50,10:27:39,NA,incomplete,172,gender,2,1,left,C_M_05.jpg,A_M_13.jpg,C_F_10.jpg,left,810.8150000334717,true,low,NA,NA,NA,NA,NA,NA,NA,false
Y95tdPi3,3t5zxgo9eh1fn0t8t5nft3pt661qzj,3d4ch1lgee6br4fbddt6blfqygt9gl,Y95tdPi3,2020-0188,2020-11-17,10:08:50,10:27:39,NA,incomplete,173,gender,2,1,left,A_M_14.jpg,C_M_11.jpg,A_F_15.jpg,left,682.8699999605305,true,low,NA,NA,NA,NA,NA,NA,NA,false
Y95tdPi3,3t5zxgo9eh1fn0t8t5nft3pt661qzj,3d4ch1lgee6br4fbddt6blfqygt9gl,Y95tdPi3,2020-0188,2020-11-17,10:08:50,10:27:39,NA,incomplete,174,gender,2,1,right,A_M_05.jpg,A_F_08.jpg,C_M_16.jpg,right,770.0450000120327,true,low,NA,NA,NA,NA,NA,NA,NA,false
Y95tdPi3,3t5zxgo9eh1fn0t8t5nft3pt661qzj,3d4ch1lgee6br4fbddt6blfqygt9gl,Y95tdPi3,2020-0188,2020-11-17,10:08:50,10:27:39,NA,incomplete,175,gender,2,1,right,C_M_11.jpg,C_F_03.jpg,A_M_02.jpg,right,754.6699999948032,true,low,NA,NA,NA,NA,NA,NA,NA,false
Y95tdPi3,3t5zxgo9eh1fn0t8t5nft3pt661qzj,3d4ch1lgee6br4fbddt6blfqygt9gl,Y95tdPi3,2020-0188,2020-11-17,10:08:50,10:27:39,NA,incomplete,176,gender,2,1,left,A_M_09.jpg,C_M_15.jpg,A_F_11.jpg,right,707.3749999981374,false,low,NA,NA,NA,NA,NA,NA,NA,false
Y95tdPi3,3t5zxgo9eh1fn0t8t5nft3pt661qzj,3d4ch1lgee6br4fbddt6blfqygt9gl,Y95tdPi3,2020-0188,2020-11-17,10:08:50,10:27:39,NA,incomplete,177,gender,2,1,left,C_F_01.jpg,A_F_05.jpg,C_M_12.jpg,left,1039.6699999691918,true,low,NA,NA,NA,NA,NA,NA,NA,false
Y95tdPi3,3t5zxgo9eh1fn0t8t5nft3pt661qzj,3d4ch1lgee6br4fbddt6blfqygt9gl,Y95tdPi3,2020-0188,2020-11-17,10:08:50,10:27:39,NA,incomplete,178,gender,2,1,left,A_M_08.jpg,C_M_02.jpg,A_F_13.jpg,left,986.4799999631941,true,low,NA,NA,NA,NA,NA,NA,NA,false
Y95tdPi3,3t5zxgo9eh1fn0t8t5nft3pt661qzj,3d4ch1lgee6br4fbddt6blfqygt9gl,Y95tdPi3,2020-0188,2020-11-17,10:08:50,10:27:39,NA,incomplete,179,gender,2,0,right,A_M_15.jpg,A_F_04.jpg,C_M_06.jpg,right,813.8749999925494,true,low,NA,NA,NA,NA,NA,NA,NA,false
Y95tdPi3,3t5zxgo9eh1fn0t8t5nft3pt661qzj,3d4ch1lgee6br4fbddt6blfqygt9gl,Y95tdPi3,2020-0188,2020-11-17,10:08:50,10:27:39,NA,incomplete,180,race,3,1,right,C_F_15.jpg,A_F_02.jpg,C_M_11.jpg,left,737.5599999795668,false,low,NA,NA,NA,NA,NA,NA,NA,false
Y95tdPi3,3t5zxgo9eh1fn0t8t5nft3pt661qzj,3d4ch1lgee6br4fbddt6blfqygt9gl,Y95tdPi3,2020-0188,2020-11-17,10:08:50,10:27:39,NA,incomplete,181,race,3,1,right,C_F_02.jpg,A_F_16.jpg,C_M_04.jpg,right,783.835000009276,true,low,NA,NA,NA,NA,NA,NA,NA,false
Y95tdPi3,3t5zxgo9eh1fn0t8t5nft3pt661qzj,3d4ch1lgee6br4fbddt6blfqygt9gl,Y95tdPi3,2020-0188,2020-11-17,10:08:50,10:27:39,NA,incomplete,182,race,3,1,left,A_F_02.jpg,A_M_08.jpg,C_F_12.jpg,left,653.1349999713711,true,low,NA,NA,NA,NA,NA,NA,NA,false
Y95tdPi3,3t5zxgo9eh1fn0t8t5nft3pt661qzj,3d4ch1lgee6br4fbddt6blfqygt9gl,Y95tdPi3,2020-0188,2020-11-17,10:08:50,10:27:39,NA,incomplete,183,race,3,0,left,C_F_01.jpg,C_M_07.jpg,A_F_10.jpg,right,779.1799999540672,false,low,NA,NA,NA,NA,NA,NA,NA,false
Y95tdPi3,3t5zxgo9eh1fn0t8t5nft3pt661qzj,3d4ch1lgee6br4fbddt6blfqygt9gl,Y95tdPi3,2020-0188,2020-11-17,10:08:50,10:27:39,NA,incomplete,184,race,3,1,right,A_M_06.jpg,C_M_15.jpg,A_F_04.jpg,right,1205.8549999492243,true,low,NA,NA,NA,NA,NA,NA,NA,false
Y95tdPi3,3t5zxgo9eh1fn0t8t5nft3pt661qzj,3d4ch1lgee6br4fbddt6blfqygt9gl,Y95tdPi3,2020-0188,2020-11-17,10:08:50,10:27:39,NA,incomplete,185,race,3,1,left,A_M_02.jpg,A_F_01.jpg,C_M_08.jpg,left,884.1000000247732,true,low,NA,NA,NA,NA,NA,NA,NA,false
Y95tdPi3,3t5zxgo9eh1fn0t8t5nft3pt661qzj,3d4ch1lgee6br4fbddt6blfqygt9gl,Y95tdPi3,2020-0188,2020-11-17,10:08:50,10:27:39,NA,incomplete,186,race,3,1,right,C_M_03.jpg,A_M_06.jpg,C_F_08.jpg,right,833.0950000090525,true,low,NA,NA,NA,NA,NA,NA,NA,false
Y95tdPi3,3t5zxgo9eh1fn0t8t5nft3pt661qzj,3d4ch1lgee6br4fbddt6blfqygt9gl,Y95tdPi3,2020-0188,2020-11-17,10:08:50,10:27:39,NA,incomplete,187,race,3,1,left,C_F_11.jpg,C_M_10.jpg,A_F_01.jpg,right,869.7999999858439,false,low,NA,NA,NA,NA,NA,NA,NA,false
Y95tdPi3,3t5zxgo9eh1fn0t8t5nft3pt661qzj,3d4ch1lgee6br4fbddt6blfqygt9gl,Y95tdPi3,2020-0188,2020-11-17,10:08:50,10:27:39,NA,incomplete,188,race,3,1,right,A_M_06.jpg,C_M_14.jpg,A_F_07.jpg,right,960.4549999930896,true,low,NA,NA,NA,NA,NA,NA,NA,false
Y95tdPi3,3t5zxgo9eh1fn0t8t5nft3pt661qzj,3d4ch1lgee6br4fbddt6blfqygt9gl,Y95tdPi3,2020-0188,2020-11-17,10:08:50,10:27:39,NA,incomplete,189,race,3,1,left,A_F_04.jpg,A_M_16.jpg,C_F_05.jpg,left,1320.090000052005,true,low,NA,NA,NA,NA,NA,NA,NA,false
Y95tdPi3,3t5zxgo9eh1fn0t8t5nft3pt661qzj,3d4ch1lgee6br4fbddt6blfqygt9gl,Y95tdPi3,2020-0188,2020-11-17,10:08:50,10:27:39,NA,incomplete,190,race,3,1,left,C_F_10.jpg,C_M_09.jpg,A_F_15.jpg,left,809.899999992922,true,low,NA,NA,NA,NA,NA,NA,NA,false
Y95tdPi3,3t5zxgo9eh1fn0t8t5nft3pt661qzj,3d4ch1lgee6br4fbddt6blfqygt9gl,Y95tdPi3,2020-0188,2020-11-17,10:08:50,10:27:39,NA,incomplete,191,race,3,1,right,C_F_08.jpg,A_F_13.jpg,C_M_07.jpg,right,918.1600000010803,true,low,NA,NA,NA,NA,NA,NA,NA,false
Y95tdPi3,3t5zxgo9eh1fn0t8t5nft3pt661qzj,3d4ch1lgee6br4fbddt6blfqygt9gl,Y95tdPi3,2020-0188,2020-11-17,10:08:50,10:27:39,NA,incomplete,192,race,3,0,left,A_F_06.jpg,A_M_13.jpg,C_F_11.jpg,left,765.7599999802187,true,low,NA,NA,NA,NA,NA,NA,NA,false
Y95tdPi3,3t5zxgo9eh1fn0t8t5nft3pt661qzj,3d4ch1lgee6br4fbddt6blfqygt9gl,Y95tdPi3,2020-0188,2020-11-17,10:08:50,10:27:39,NA,incomplete,193,race,3,1,right,A_M_07.jpg,C_M_03.jpg,A_F_15.jpg,right,888.3600000408478,true,low,NA,NA,NA,NA,NA,NA,NA,false
Y95tdPi3,3t5zxgo9eh1fn0t8t5nft3pt661qzj,3d4ch1lgee6br4fbddt6blfqygt9gl,Y95tdPi3,2020-0188,2020-11-17,10:08:50,10:27:39,NA,incomplete,194,race,3,1,left,C_M_10.jpg,C_F_04.jpg,A_M_15.jpg,left,964.6500000380911,true,low,NA,NA,NA,NA,NA,NA,NA,false
Y95tdPi3,3t5zxgo9eh1fn0t8t5nft3pt661qzj,3d4ch1lgee6br4fbddt6blfqygt9gl,Y95tdPi3,2020-0188,2020-11-17,10:08:50,10:27:39,NA,incomplete,195,race,3,1,right,C_F_05.jpg,A_F_09.jpg,C_M_14.jpg,right,919.0749999834225,true,low,NA,NA,NA,NA,NA,NA,NA,false
Y95tdPi3,3t5zxgo9eh1fn0t8t5nft3pt661qzj,3d4ch1lgee6br4fbddt6blfqygt9gl,Y95tdPi3,2020-0188,2020-11-17,10:08:50,10:27:39,NA,incomplete,196,race,3,1,right,C_F_02.jpg,A_F_15.jpg,C_M_06.jpg,right,787.624999997206,true,low,NA,NA,NA,NA,NA,NA,NA,false
Y95tdPi3,3t5zxgo9eh1fn0t8t5nft3pt661qzj,3d4ch1lgee6br4fbddt6blfqygt9gl,Y95tdPi3,2020-0188,2020-11-17,10:08:50,10:27:39,NA,incomplete,197,race,3,1,right,C_F_03.jpg,A_F_07.jpg,C_M_10.jpg,right,790.2750000357628,true,low,NA,NA,NA,NA,NA,NA,NA,false
Y95tdPi3,3t5zxgo9eh1fn0t8t5nft3pt661qzj,3d4ch1lgee6br4fbddt6blfqygt9gl,Y95tdPi3,2020-0188,2020-11-17,10:08:50,10:27:39,NA,incomplete,198,race,3,0,left,A_F_12.jpg,A_M_09.jpg,C_F_03.jpg,right,1084.1500000096858,false,low,NA,NA,NA,NA,NA,NA,NA,false
Y95tdPi3,3t5zxgo9eh1fn0t8t5nft3pt661qzj,3d4ch1lgee6br4fbddt6blfqygt9gl,Y95tdPi3,2020-0188,2020-11-17,10:08:50,10:27:39,NA,incomplete,199,race,3,1,left,A_M_14.jpg,A_F_03.jpg,C_M_15.jpg,right,741.3899999810383,false,low,NA,NA,NA,NA,NA,NA,NA,false
Y95tdPi3,3t5zxgo9eh1fn0t8t5nft3pt661qzj,3d4ch1lgee6br4fbddt6blfqygt9gl,Y95tdPi3,2020-0188,2020-11-17,10:08:50,10:27:39,NA,incomplete,200,gender,2,1,left,C_F_04.jpg,A_F_15.jpg,C_M_06.jpg,right,1071.2000000057742,false,low,NA,NA,NA,NA,NA,NA,NA,false
Y95tdPi3,3t5zxgo9eh1fn0t8t5nft3pt661qzj,3d4ch1lgee6br4fbddt6blfqygt9gl,Y95tdPi3,2020-0188,2020-11-17,10:08:50,10:27:39,NA,incomplete,201,gender,2,0,left,C_F_11.jpg,A_F_13.jpg,C_M_09.jpg,left,1342.7950000041164,true,low,NA,NA,NA,NA,NA,NA,NA,false
Y95tdPi3,3t5zxgo9eh1fn0t8t5nft3pt661qzj,3d4ch1lgee6br4fbddt6blfqygt9gl,Y95tdPi3,2020-0188,2020-11-17,10:08:50,10:27:39,NA,incomplete,202,gender,2,1,left,A_M_11.jpg,C_M_07.jpg,A_F_15.jpg,right,922.2700000391342,false,low,NA,NA,NA,NA,NA,NA,NA,false
Y95tdPi3,3t5zxgo9eh1fn0t8t5nft3pt661qzj,3d4ch1lgee6br4fbddt6blfqygt9gl,Y95tdPi3,2020-0188,2020-11-17,10:08:50,10:27:39,NA,incomplete,203,gender,2,1,right,C_F_08.jpg,C_M_11.jpg,A_F_06.jpg,left,965.894999972079,false,low,NA,NA,NA,NA,NA,NA,NA,false
Y95tdPi3,3t5zxgo9eh1fn0t8t5nft3pt661qzj,3d4ch1lgee6br4fbddt6blfqygt9gl,Y95tdPi3,2020-0188,2020-11-17,10:08:50,10:27:39,NA,incomplete,204,gender,2,0,left,A_M_01.jpg,C_M_11.jpg,A_F_09.jpg,left,761.5099999820814,true,low,NA,NA,NA,NA,NA,NA,NA,false
Y95tdPi3,3t5zxgo9eh1fn0t8t5nft3pt661qzj,3d4ch1lgee6br4fbddt6blfqygt9gl,Y95tdPi3,2020-0188,2020-11-17,10:08:50,10:27:39,NA,incomplete,205,gender,2,1,right,A_M_16.jpg,A_F_07.jpg,C_M_14.jpg,right,1051.630000001751,true,low,NA,NA,NA,NA,NA,NA,NA,false
Y95tdPi3,3t5zxgo9eh1fn0t8t5nft3pt661qzj,3d4ch1lgee6br4fbddt6blfqygt9gl,Y95tdPi3,2020-0188,2020-11-17,10:08:50,10:27:39,NA,incomplete,206,gender,2,1,right,A_F_05.jpg,A_M_09.jpg,C_F_12.jpg,right,733.6199999554083,true,low,NA,NA,NA,NA,NA,NA,NA,false
Y95tdPi3,3t5zxgo9eh1fn0t8t5nft3pt661qzj,3d4ch1lgee6br4fbddt6blfqygt9gl,Y95tdPi3,2020-0188,2020-11-17,10:08:50,10:27:39,NA,incomplete,207,gender,2,1,left,A_M_13.jpg,C_M_16.jpg,A_F_08.jpg,left,916.2750000250526,true,low,NA,NA,NA,NA,NA,NA,NA,false
Y95tdPi3,3t5zxgo9eh1fn0t8t5nft3pt661qzj,3d4ch1lgee6br4fbddt6blfqygt9gl,Y95tdPi3,2020-0188,2020-11-17,10:08:50,10:27:39,NA,incomplete,208,gender,2,1,right,A_M_11.jpg,A_F_04.jpg,C_M_16.jpg,right,736.594999965746,true,low,NA,NA,NA,NA,NA,NA,NA,false
Y95tdPi3,3t5zxgo9eh1fn0t8t5nft3pt661qzj,3d4ch1lgee6br4fbddt6blfqygt9gl,Y95tdPi3,2020-0188,2020-11-17,10:08:50,10:27:39,NA,incomplete,209,gender,2,0,right,C_M_05.jpg,C_F_03.jpg,A_M_07.jpg,right,988.2650000508875,true,low,NA,NA,NA,NA,NA,NA,NA,false
Y95tdPi3,3t5zxgo9eh1fn0t8t5nft3pt661qzj,3d4ch1lgee6br4fbddt6blfqygt9gl,Y95tdPi3,2020-0188,2020-11-17,10:08:50,10:27:39,NA,incomplete,210,gender,2,1,right,A_M_06.jpg,A_F_01.jpg,C_M_03.jpg,right,710.9349999809638,true,low,NA,NA,NA,NA,NA,NA,NA,false
Y95tdPi3,3t5zxgo9eh1fn0t8t5nft3pt661qzj,3d4ch1lgee6br4fbddt6blfqygt9gl,Y95tdPi3,2020-0188,2020-11-17,10:08:50,10:27:39,NA,incomplete,211,gender,2,1,right,C_F_04.jpg,C_M_06.jpg,A_F_16.jpg,right,880.5900000152178,true,low,NA,NA,NA,NA,NA,NA,NA,false
Y95tdPi3,3t5zxgo9eh1fn0t8t5nft3pt661qzj,3d4ch1lgee6br4fbddt6blfqygt9gl,Y95tdPi3,2020-0188,2020-11-17,10:08:50,10:27:39,NA,incomplete,212,gender,2,1,left,A_F_10.jpg,C_F_03.jpg,A_M_05.jpg,left,822.8499999968335,true,low,NA,NA,NA,NA,NA,NA,NA,false
Y95tdPi3,3t5zxgo9eh1fn0t8t5nft3pt661qzj,3d4ch1lgee6br4fbddt6blfqygt9gl,Y95tdPi3,2020-0188,2020-11-17,10:08:50,10:27:39,NA,incomplete,213,gender,2,1,left,C_F_11.jpg,A_F_01.jpg,C_M_02.jpg,left,734.2749999952503,true,low,NA,NA,NA,NA,NA,NA,NA,false
Y95tdPi3,3t5zxgo9eh1fn0t8t5nft3pt661qzj,3d4ch1lgee6br4fbddt6blfqygt9gl,Y95tdPi3,2020-0188,2020-11-17,10:08:50,10:27:39,NA,incomplete,214,gender,2,1,left,C_F_08.jpg,A_F_13.jpg,C_M_16.jpg,left,785.0650000036694,true,low,NA,NA,NA,NA,NA,NA,NA,false
Y95tdPi3,3t5zxgo9eh1fn0t8t5nft3pt661qzj,3d4ch1lgee6br4fbddt6blfqygt9gl,Y95tdPi3,2020-0188,2020-11-17,10:08:50,10:27:39,NA,incomplete,215,gender,2,1,left,C_F_11.jpg,A_F_15.jpg,C_M_14.jpg,left,649.8549999669194,true,low,NA,NA,NA,NA,NA,NA,NA,false
Y95tdPi3,3t5zxgo9eh1fn0t8t5nft3pt661qzj,3d4ch1lgee6br4fbddt6blfqygt9gl,Y95tdPi3,2020-0188,2020-11-17,10:08:50,10:27:39,NA,incomplete,216,gender,2,1,right,C_M_13.jpg,C_F_06.jpg,A_M_07.jpg,right,791.1750000203028,true,low,NA,NA,NA,NA,NA,NA,NA,false
Y95tdPi3,3t5zxgo9eh1fn0t8t5nft3pt661qzj,3d4ch1lgee6br4fbddt6blfqygt9gl,Y95tdPi3,2020-0188,2020-11-17,10:08:50,10:27:39,NA,incomplete,217,gender,2,1,right,C_M_06.jpg,C_F_13.jpg,A_M_08.jpg,right,759.0150000178255,true,low,NA,NA,NA,NA,NA,NA,NA,false
Y95tdPi3,3t5zxgo9eh1fn0t8t5nft3pt661qzj,3d4ch1lgee6br4fbddt6blfqygt9gl,Y95tdPi3,2020-0188,2020-11-17,10:08:50,10:27:39,NA,incomplete,218,gender,2,1,right,C_M_01.jpg,C_F_07.jpg,A_M_02.jpg,right,975.574999989476,true,low,NA,NA,NA,NA,NA,NA,NA,false
Y95tdPi3,3t5zxgo9eh1fn0t8t5nft3pt661qzj,3d4ch1lgee6br4fbddt6blfqygt9gl,Y95tdPi3,2020-0188,2020-11-17,10:08:50,10:27:39,NA,incomplete,219,gender,2,1,right,C_M_05.jpg,C_F_04.jpg,A_M_09.jpg,right,702.9400000465102,true,low,NA,NA,NA,NA,NA,NA,NA,false
Y95tdPi3,3t5zxgo9eh1fn0t8t5nft3pt661qzj,3d4ch1lgee6br4fbddt6blfqygt9gl,Y95tdPi3,2020-0188,2020-11-17,10:08:50,10:27:39,NA,incomplete,220,race,3,1,left,A_M_16.jpg,A_F_02.jpg,C_M_04.jpg,right,670.5800000345334,false,low,NA,NA,NA,NA,NA,NA,NA,false
Y95tdPi3,3t5zxgo9eh1fn0t8t5nft3pt661qzj,3d4ch1lgee6br4fbddt6blfqygt9gl,Y95tdPi3,2020-0188,2020-11-17,10:08:50,10:27:39,NA,incomplete,221,race,3,1,left,A_M_04.jpg,A_F_03.jpg,C_M_14.jpg,right,699.460000032559,false,low,NA,NA,NA,NA,NA,NA,NA,false
Y95tdPi3,3t5zxgo9eh1fn0t8t5nft3pt661qzj,3d4ch1lgee6br4fbddt6blfqygt9gl,Y95tdPi3,2020-0188,2020-11-17,10:08:50,10:27:39,NA,incomplete,222,race,3,1,right,C_F_01.jpg,A_F_13.jpg,C_M_16.jpg,right,709.160000027623,true,low,NA,NA,NA,NA,NA,NA,NA,false
Y95tdPi3,3t5zxgo9eh1fn0t8t5nft3pt661qzj,3d4ch1lgee6br4fbddt6blfqygt9gl,Y95tdPi3,2020-0188,2020-11-17,10:08:50,10:27:39,NA,incomplete,223,race,3,1,left,C_F_05.jpg,C_M_03.jpg,A_F_06.jpg,left,822.1699999994598,true,low,NA,NA,NA,NA,NA,NA,NA,false
Y95tdPi3,3t5zxgo9eh1fn0t8t5nft3pt661qzj,3d4ch1lgee6br4fbddt6blfqygt9gl,Y95tdPi3,2020-0188,2020-11-17,10:08:50,10:27:39,NA,incomplete,224,race,3,0,right,C_M_05.jpg,A_M_09.jpg,C_F_15.jpg,right,799.0149999968708,true,low,NA,NA,NA,NA,NA,NA,NA,false
Y95tdPi3,3t5zxgo9eh1fn0t8t5nft3pt661qzj,3d4ch1lgee6br4fbddt6blfqygt9gl,Y95tdPi3,2020-0188,2020-11-17,10:08:50,10:27:39,NA,incomplete,225,race,3,1,left,C_M_08.jpg,C_F_02.jpg,A_M_15.jpg,left,829.2849999852479,true,low,NA,NA,NA,NA,NA,NA,NA,false
Y95tdPi3,3t5zxgo9eh1fn0t8t5nft3pt661qzj,3d4ch1lgee6br4fbddt6blfqygt9gl,Y95tdPi3,2020-0188,2020-11-17,10:08:50,10:27:39,NA,incomplete,226,race,3,1,left,C_F_03.jpg,C_M_06.jpg,A_F_14.jpg,left,950.3050000057556,true,low,NA,NA,NA,NA,NA,NA,NA,false
Y95tdPi3,3t5zxgo9eh1fn0t8t5nft3pt661qzj,3d4ch1lgee6br4fbddt6blfqygt9gl,Y95tdPi3,2020-0188,2020-11-17,10:08:50,10:27:39,NA,incomplete,227,race,3,1,left,A_F_03.jpg,A_M_10.jpg,C_F_02.jpg,left,1104.8050000099465,true,low,NA,NA,NA,NA,NA,NA,NA,false
Y95tdPi3,3t5zxgo9eh1fn0t8t5nft3pt661qzj,3d4ch1lgee6br4fbddt6blfqygt9gl,Y95tdPi3,2020-0188,2020-11-17,10:08:50,10:27:39,NA,incomplete,228,race,3,1,right,C_F_04.jpg,A_F_07.jpg,C_M_13.jpg,right,811.8699999758974,true,low,NA,NA,NA,NA,NA,NA,NA,false
Y95tdPi3,3t5zxgo9eh1fn0t8t5nft3pt661qzj,3d4ch1lgee6br4fbddt6blfqygt9gl,Y95tdPi3,2020-0188,2020-11-17,10:08:50,10:27:39,NA,incomplete,229,race,3,0,right,A_M_13.jpg,C_M_10.jpg,A_F_08.jpg,right,759.1900000115857,true,low,NA,NA,NA,NA,NA,NA,NA,false
Y95tdPi3,3t5zxgo9eh1fn0t8t5nft3pt661qzj,3d4ch1lgee6br4fbddt6blfqygt9gl,Y95tdPi3,2020-0188,2020-11-17,10:08:50,10:27:39,NA,incomplete,230,race,3,1,right,C_M_07.jpg,A_M_06.jpg,C_F_14.jpg,right,669.9350000126287,true,low,NA,NA,NA,NA,NA,NA,NA,false
Y95tdPi3,3t5zxgo9eh1fn0t8t5nft3pt661qzj,3d4ch1lgee6br4fbddt6blfqygt9gl,Y95tdPi3,2020-0188,2020-11-17,10:08:50,10:27:39,NA,incomplete,231,race,3,1,left,A_M_01.jpg,A_F_14.jpg,C_M_02.jpg,left,926.8950000405312,true,low,NA,NA,NA,NA,NA,NA,NA,false
Y95tdPi3,3t5zxgo9eh1fn0t8t5nft3pt661qzj,3d4ch1lgee6br4fbddt6blfqygt9gl,Y95tdPi3,2020-0188,2020-11-17,10:08:50,10:27:39,NA,incomplete,232,race,3,1,left,C_F_12.jpg,C_M_11.jpg,A_F_13.jpg,left,877.184999990277,true,low,NA,NA,NA,NA,NA,NA,NA,false
Y95tdPi3,3t5zxgo9eh1fn0t8t5nft3pt661qzj,3d4ch1lgee6br4fbddt6blfqygt9gl,Y95tdPi3,2020-0188,2020-11-17,10:08:50,10:27:39,NA,incomplete,233,race,3,1,right,C_M_15.jpg,A_M_12.jpg,C_F_01.jpg,right,866.6700000176206,true,low,NA,NA,NA,NA,NA,NA,NA,false
Y95tdPi3,3t5zxgo9eh1fn0t8t5nft3pt661qzj,3d4ch1lgee6br4fbddt6blfqygt9gl,Y95tdPi3,2020-0188,2020-11-17,10:08:50,10:27:39,NA,incomplete,234,race,3,1,right,C_M_09.jpg,A_M_07.jpg,C_F_14.jpg,right,834.5599999884143,true,low,NA,NA,NA,NA,NA,NA,NA,false
Y95tdPi3,3t5zxgo9eh1fn0t8t5nft3pt661qzj,3d4ch1lgee6br4fbddt6blfqygt9gl,Y95tdPi3,2020-0188,2020-11-17,10:08:50,10:27:39,NA,incomplete,235,race,3,0,right,A_M_12.jpg,C_M_14.jpg,A_F_08.jpg,right,793.7350000138395,true,low,NA,NA,NA,NA,NA,NA,NA,false
Y95tdPi3,3t5zxgo9eh1fn0t8t5nft3pt661qzj,3d4ch1lgee6br4fbddt6blfqygt9gl,Y95tdPi3,2020-0188,2020-11-17,10:08:50,10:27:39,NA,incomplete,236,race,3,1,right,A_M_15.jpg,C_M_03.jpg,A_F_12.jpg,right,942.3299999907613,true,low,NA,NA,NA,NA,NA,NA,NA,false
Y95tdPi3,3t5zxgo9eh1fn0t8t5nft3pt661qzj,3d4ch1lgee6br4fbddt6blfqygt9gl,Y95tdPi3,2020-0188,2020-11-17,10:08:50,10:27:39,NA,incomplete,237,race,3,1,left,C_M_08.jpg,C_F_07.jpg,A_M_02.jpg,left,993.1250000372529,true,low,NA,NA,NA,NA,NA,NA,NA,false
Y95tdPi3,3t5zxgo9eh1fn0t8t5nft3pt661qzj,3d4ch1lgee6br4fbddt6blfqygt9gl,Y95tdPi3,2020-0188,2020-11-17,10:08:50,10:27:39,NA,incomplete,238,race,3,0,right,C_F_14.jpg,A_F_07.jpg,C_M_09.jpg,left,876.9999999785796,false,low,NA,NA,NA,NA,NA,NA,NA,false
Y95tdPi3,3t5zxgo9eh1fn0t8t5nft3pt661qzj,3d4ch1lgee6br4fbddt6blfqygt9gl,Y95tdPi3,2020-0188,2020-11-17,10:08:50,10:27:39,NA,incomplete,239,race,3,1,left,C_M_03.jpg,C_F_15.jpg,A_M_06.jpg,right,686.1149999895133,false,low,NA,NA,NA,NA,NA,NA,NA,false
Y95tdPi3,3t5zxgo9eh1fn0t8t5nft3pt661qzj,3d4ch1lgee6br4fbddt6blfqygt9gl,Y95tdPi3,2020-0188,2020-11-17,10:08:50,10:27:39,NA,NA,instruction example,filling,NA,NA,NA,Green_Circle_Chess_3.jpg,Blue_Plus_Chess_2.jpg,Green_Triangle_Dots_4.jpg,NA,NA,NA,NA,NA,NA,NA,NA,NA,NA,NA,undefined
Y95tdPi3,3t5zxgo9eh1fn0t8t5nft3pt661qzj,3d4ch1lgee6br4fbddt6blfqygt9gl,Y95tdPi3,2020-0188,2020-11-17,10:08:50,10:27:39,NA,NA,instruction example,filling,NA,NA,NA,Blue_Plus_Stripes_4.jpg,Blue_Triangle_Grid_3.jpg,Red_Star_Stripes_2.jpg,NA,NA,NA,NA,NA,NA,NA,NA,NA,NA,NA,undefined
Y95tdPi3,3t5zxgo9eh1fn0t8t5nft3pt661qzj,3d4ch1lgee6br4fbddt6blfqygt9gl,Y95tdPi3,2020-0188,2020-11-17,10:08:50,10:27:39,NA,NA,instruction example,filling,NA,NA,NA,A_M_15.jpg,C_M_06.jpg,A_F_02.jpg,NA,NA,NA,NA,NA,NA,NA,NA,NA,NA,NA,undefined
Y95tdPi3,3t5zxgo9eh1fn0t8t5nft3pt661qzj,3d4ch1lgee6br4fbddt6blfqygt9gl,Y95tdPi3,2020-0188,2020-11-17,10:08:50,10:27:39,NA,NA,instruction example,filling,NA,NA,NA,C_M_01.jpg,C_F_08.jpg,A_M_07.jpg,NA,NA,NA,NA,NA,NA,NA,NA,NA,NA,NA,undefined
Y95tdPi3,3t5zxgo9eh1fn0t8t5nft3pt661qzj,3d4ch1lgee6br4fbddt6blfqygt9gl,Y95tdPi3,2020-0188,2020-11-17,10:08:50,10:27:39,1110322.9399999836,1129669.3300000043,NA,NA,NA,NA,NA,NA,NA,NA,NA,NA,NA,NA,33,White/Caucasian,Male,White,no,no,no,undefined
