workerId,hitId,assignmentId,subject,studyid,exp_date,exp_start,exp_end,time_start,time_end,trial,type,sequence,reward_validity,answer,image_top,image_left,image_right,response,response_time,response_acc,volatility,age,race,gender,ethnicity,color,vision,neuro,practice
2N43SgSP,3oplmf3ev80afezcyc4phujqmmslnu,3d4ch1lgee6br4fbddt6blfqyd2g9v,2N43SgSP,2020-0188,2020-11-16,20:11:36,20:32:50,NA,incomplete,0,color,0,1,left,Red_Circle_Dots_3.jpg,Red_Plus_Stripes_1.jpg,Purple_Triangle_Grid_3.jpg,left,1047,true,NA,NA,NA,NA,NA,NA,NA,NA,true
2N43SgSP,3oplmf3ev80afezcyc4phujqmmslnu,3d4ch1lgee6br4fbddt6blfqyd2g9v,2N43SgSP,2020-0188,2020-11-16,20:11:36,20:32:50,NA,incomplete,1,color,0,1,left,Red_Circle_Dots_2.jpg,Red_Plus_Grid_3.jpg,Green_Triangle_Chess_2.jpg,right,843,false,NA,NA,NA,NA,NA,NA,NA,NA,true
2N43SgSP,3oplmf3ev80afezcyc4phujqmmslnu,3d4ch1lgee6br4fbddt6blfqyd2g9v,2N43SgSP,2020-0188,2020-11-16,20:11:36,20:32:50,NA,incomplete,2,color,0,1,left,Red_Plus_Chess_1.jpg,Red_Triangle_Stripes_3.jpg,Blue_Circle_Grid_1.jpg,left,507,true,NA,NA,NA,NA,NA,NA,NA,NA,true
2N43SgSP,3oplmf3ev80afezcyc4phujqmmslnu,3d4ch1lgee6br4fbddt6blfqyd2g9v,2N43SgSP,2020-0188,2020-11-16,20:11:36,20:32:50,NA,incomplete,3,color,0,1,right,Green_Plus_Stripes_4.jpg,Red_Star_Chess_4.jpg,Green_Circle_Dots_2.jpg,right,630,true,NA,NA,NA,NA,NA,NA,NA,NA,true
2N43SgSP,3oplmf3ev80afezcyc4phujqmmslnu,3d4ch1lgee6br4fbddt6blfqyd2g9v,2N43SgSP,2020-0188,2020-11-16,20:11:36,20:32:50,NA,incomplete,4,color,0,1,left,Purple_Triangle_Chess_2.jpg,Purple_Circle_Stripes_4.jpg,Blue_Plus_Dots_2.jpg,left,632,true,NA,NA,NA,NA,NA,NA,NA,NA,true
2N43SgSP,3oplmf3ev80afezcyc4phujqmmslnu,3d4ch1lgee6br4fbddt6blfqyd2g9v,2N43SgSP,2020-0188,2020-11-16,20:11:36,20:32:50,NA,incomplete,5,color,0,1,right,Green_Triangle_Grid_1.jpg,Purple_Circle_Stripes_1.jpg,Green_Star_Dots_2.jpg,right,618,true,NA,NA,NA,NA,NA,NA,NA,NA,true
2N43SgSP,3oplmf3ev80afezcyc4phujqmmslnu,3d4ch1lgee6br4fbddt6blfqyd2g9v,2N43SgSP,2020-0188,2020-11-16,20:11:36,20:32:50,NA,incomplete,6,color,0,0,left,Green_Star_Grid_1.jpg,Green_Plus_Stripes_3.jpg,Purple_Triangle_Chess_1.jpg,left,544,true,NA,NA,NA,NA,NA,NA,NA,NA,true
2N43SgSP,3oplmf3ev80afezcyc4phujqmmslnu,3d4ch1lgee6br4fbddt6blfqyd2g9v,2N43SgSP,2020-0188,2020-11-16,20:11:36,20:32:50,NA,incomplete,7,color,0,0,right,Green_Plus_Dots_2.jpg,Purple_Circle_Grid_2.jpg,Green_Triangle_Chess_4.jpg,right,627,true,NA,NA,NA,NA,NA,NA,NA,NA,true
2N43SgSP,3oplmf3ev80afezcyc4phujqmmslnu,3d4ch1lgee6br4fbddt6blfqyd2g9v,2N43SgSP,2020-0188,2020-11-16,20:11:36,20:32:50,NA,incomplete,8,color,0,1,right,Purple_Star_Stripes_2.jpg,Blue_Circle_Grid_2.jpg,Purple_Plus_Dots_1.jpg,right,638,true,NA,NA,NA,NA,NA,NA,NA,NA,true
2N43SgSP,3oplmf3ev80afezcyc4phujqmmslnu,3d4ch1lgee6br4fbddt6blfqyd2g9v,2N43SgSP,2020-0188,2020-11-16,20:11:36,20:32:50,NA,incomplete,9,color,0,1,right,Purple_Circle_Dots_1.jpg,Green_Plus_Grid_1.jpg,Purple_Star_Stripes_4.jpg,right,624,true,NA,NA,NA,NA,NA,NA,NA,NA,true
2N43SgSP,3oplmf3ev80afezcyc4phujqmmslnu,3d4ch1lgee6br4fbddt6blfqyd2g9v,2N43SgSP,2020-0188,2020-11-16,20:11:36,20:32:50,NA,incomplete,10,color,0,1,right,Green_Plus_Chess_1.jpg,Blue_Circle_Dots_1.jpg,Green_Star_Grid_3.jpg,right,756,true,NA,NA,NA,NA,NA,NA,NA,NA,true
2N43SgSP,3oplmf3ev80afezcyc4phujqmmslnu,3d4ch1lgee6br4fbddt6blfqyd2g9v,2N43SgSP,2020-0188,2020-11-16,20:11:36,20:32:50,NA,incomplete,11,color,0,1,right,Red_Triangle_Grid_2.jpg,Blue_Plus_Dots_2.jpg,Red_Circle_Chess_3.jpg,right,619,true,NA,NA,NA,NA,NA,NA,NA,NA,true
2N43SgSP,3oplmf3ev80afezcyc4phujqmmslnu,3d4ch1lgee6br4fbddt6blfqyd2g9v,2N43SgSP,2020-0188,2020-11-16,20:11:36,20:32:50,NA,incomplete,12,color,0,0,left,Blue_Plus_Grid_3.jpg,Blue_Circle_Dots_4.jpg,Green_Star_Chess_3.jpg,left,517,true,NA,NA,NA,NA,NA,NA,NA,NA,true
2N43SgSP,3oplmf3ev80afezcyc4phujqmmslnu,3d4ch1lgee6br4fbddt6blfqyd2g9v,2N43SgSP,2020-0188,2020-11-16,20:11:36,20:32:50,NA,incomplete,13,color,0,1,right,Green_Triangle_Stripes_4.jpg,Blue_Circle_Chess_4.jpg,Green_Star_Grid_1.jpg,right,719,true,NA,NA,NA,NA,NA,NA,NA,NA,true
2N43SgSP,3oplmf3ev80afezcyc4phujqmmslnu,3d4ch1lgee6br4fbddt6blfqyd2g9v,2N43SgSP,2020-0188,2020-11-16,20:11:36,20:32:50,NA,incomplete,14,color,0,1,left,Red_Circle_Stripes_4.jpg,Red_Star_Dots_3.jpg,Purple_Plus_Grid_4.jpg,left,631,true,NA,NA,NA,NA,NA,NA,NA,NA,true
2N43SgSP,3oplmf3ev80afezcyc4phujqmmslnu,3d4ch1lgee6br4fbddt6blfqyd2g9v,2N43SgSP,2020-0188,2020-11-16,20:11:36,20:32:50,NA,incomplete,15,color,0,1,left,Green_Circle_Chess_1.jpg,Green_Plus_Stripes_2.jpg,Blue_Triangle_Dots_1.jpg,right,871,false,NA,NA,NA,NA,NA,NA,NA,NA,true
2N43SgSP,3oplmf3ev80afezcyc4phujqmmslnu,3d4ch1lgee6br4fbddt6blfqyd2g9v,2N43SgSP,2020-0188,2020-11-16,20:11:36,20:32:50,NA,incomplete,16,color,0,0,right,Green_Triangle_Grid_1.jpg,Red_Star_Chess_1.jpg,Green_Plus_Stripes_3.jpg,right,632,true,NA,NA,NA,NA,NA,NA,NA,NA,true
2N43SgSP,3oplmf3ev80afezcyc4phujqmmslnu,3d4ch1lgee6br4fbddt6blfqyd2g9v,2N43SgSP,2020-0188,2020-11-16,20:11:36,20:32:50,NA,incomplete,17,color,0,1,right,Red_Star_Grid_2.jpg,Green_Plus_Dots_2.jpg,Red_Triangle_Stripes_1.jpg,left,992,false,NA,NA,NA,NA,NA,NA,NA,NA,true
2N43SgSP,3oplmf3ev80afezcyc4phujqmmslnu,3d4ch1lgee6br4fbddt6blfqyd2g9v,2N43SgSP,2020-0188,2020-11-16,20:11:36,20:32:50,NA,incomplete,18,color,0,1,left,Purple_Triangle_Grid_2.jpg,Purple_Star_Chess_1.jpg,Blue_Plus_Dots_2.jpg,left,763,true,NA,NA,NA,NA,NA,NA,NA,NA,true
2N43SgSP,3oplmf3ev80afezcyc4phujqmmslnu,3d4ch1lgee6br4fbddt6blfqyd2g9v,2N43SgSP,2020-0188,2020-11-16,20:11:36,20:32:50,NA,incomplete,19,color,0,1,right,Blue_Circle_Grid_3.jpg,Red_Star_Stripes_3.jpg,Blue_Triangle_Chess_4.jpg,right,1006,true,NA,NA,NA,NA,NA,NA,NA,NA,true
2N43SgSP,3oplmf3ev80afezcyc4phujqmmslnu,3d4ch1lgee6br4fbddt6blfqyd2g9v,2N43SgSP,2020-0188,2020-11-16,20:11:36,20:32:50,NA,incomplete,20,number,1,1,right,Green_Plus_Grid_3.jpg,Green_Circle_Dots_4.jpg,Red_Triangle_Stripes_3.jpg,right,893,true,NA,NA,NA,NA,NA,NA,NA,NA,true
2N43SgSP,3oplmf3ev80afezcyc4phujqmmslnu,3d4ch1lgee6br4fbddt6blfqyd2g9v,2N43SgSP,2020-0188,2020-11-16,20:11:36,20:32:50,NA,incomplete,21,number,1,1,left,Red_Plus_Dots_2.jpg,Green_Circle_Grid_2.jpg,Red_Star_Chess_3.jpg,left,1342,true,NA,NA,NA,NA,NA,NA,NA,NA,true
2N43SgSP,3oplmf3ev80afezcyc4phujqmmslnu,3d4ch1lgee6br4fbddt6blfqyd2g9v,2N43SgSP,2020-0188,2020-11-16,20:11:36,20:32:50,NA,incomplete,22,number,1,1,right,Red_Triangle_Grid_2.jpg,Red_Star_Chess_1.jpg,Blue_Plus_Stripes_2.jpg,right,913,true,NA,NA,NA,NA,NA,NA,NA,NA,true
2N43SgSP,3oplmf3ev80afezcyc4phujqmmslnu,3d4ch1lgee6br4fbddt6blfqyd2g9v,2N43SgSP,2020-0188,2020-11-16,20:11:36,20:32:50,NA,incomplete,23,number,1,1,right,Red_Star_Stripes_1.jpg,Red_Plus_Chess_4.jpg,Blue_Circle_Grid_1.jpg,right,817,true,NA,NA,NA,NA,NA,NA,NA,NA,true
2N43SgSP,3oplmf3ev80afezcyc4phujqmmslnu,3d4ch1lgee6br4fbddt6blfqyd2g9v,2N43SgSP,2020-0188,2020-11-16,20:11:36,20:32:50,NA,incomplete,24,number,1,1,right,Blue_Plus_Stripes_1.jpg,Blue_Triangle_Dots_4.jpg,Purple_Circle_Grid_1.jpg,right,784,true,NA,NA,NA,NA,NA,NA,NA,NA,true
2N43SgSP,3oplmf3ev80afezcyc4phujqmmslnu,3d4ch1lgee6br4fbddt6blfqyd2g9v,2N43SgSP,2020-0188,2020-11-16,20:11:36,20:32:50,NA,incomplete,25,number,1,1,right,Green_Circle_Stripes_1.jpg,Green_Triangle_Dots_4.jpg,Blue_Plus_Chess_1.jpg,right,685,true,NA,NA,NA,NA,NA,NA,NA,NA,true
2N43SgSP,3oplmf3ev80afezcyc4phujqmmslnu,3d4ch1lgee6br4fbddt6blfqyd2g9v,2N43SgSP,2020-0188,2020-11-16,20:11:36,20:32:50,NA,incomplete,26,number,1,1,left,Green_Circle_Stripes_3.jpg,Purple_Plus_Grid_3.jpg,Green_Triangle_Chess_4.jpg,left,798,true,NA,NA,NA,NA,NA,NA,NA,NA,true
2N43SgSP,3oplmf3ev80afezcyc4phujqmmslnu,3d4ch1lgee6br4fbddt6blfqyd2g9v,2N43SgSP,2020-0188,2020-11-16,20:11:36,20:32:50,NA,incomplete,27,number,1,0,right,Blue_Triangle_Stripes_3.jpg,Blue_Circle_Dots_1.jpg,Purple_Plus_Chess_3.jpg,right,654,true,NA,NA,NA,NA,NA,NA,NA,NA,true
2N43SgSP,3oplmf3ev80afezcyc4phujqmmslnu,3d4ch1lgee6br4fbddt6blfqyd2g9v,2N43SgSP,2020-0188,2020-11-16,20:11:36,20:32:50,NA,incomplete,28,number,1,1,right,Blue_Plus_Grid_1.jpg,Blue_Triangle_Dots_2.jpg,Purple_Star_Chess_1.jpg,right,801,true,NA,NA,NA,NA,NA,NA,NA,NA,true
2N43SgSP,3oplmf3ev80afezcyc4phujqmmslnu,3d4ch1lgee6br4fbddt6blfqyd2g9v,2N43SgSP,2020-0188,2020-11-16,20:11:36,20:32:50,NA,incomplete,29,number,1,0,right,Red_Plus_Stripes_3.jpg,Red_Triangle_Grid_4.jpg,Purple_Circle_Chess_3.jpg,right,837,true,NA,NA,NA,NA,NA,NA,NA,NA,true
2N43SgSP,3oplmf3ev80afezcyc4phujqmmslnu,3d4ch1lgee6br4fbddt6blfqyd2g9v,2N43SgSP,2020-0188,2020-11-16,20:11:36,20:32:50,NA,incomplete,30,number,1,1,left,Green_Plus_Grid_1.jpg,Blue_Star_Stripes_1.jpg,Green_Circle_Chess_4.jpg,left,878,true,NA,NA,NA,NA,NA,NA,NA,NA,true
2N43SgSP,3oplmf3ev80afezcyc4phujqmmslnu,3d4ch1lgee6br4fbddt6blfqyd2g9v,2N43SgSP,2020-0188,2020-11-16,20:11:36,20:32:50,NA,incomplete,31,number,1,0,left,Blue_Plus_Grid_3.jpg,Red_Star_Stripes_3.jpg,Blue_Triangle_Dots_2.jpg,left,776,true,NA,NA,NA,NA,NA,NA,NA,NA,true
2N43SgSP,3oplmf3ev80afezcyc4phujqmmslnu,3d4ch1lgee6br4fbddt6blfqyd2g9v,2N43SgSP,2020-0188,2020-11-16,20:11:36,20:32:50,NA,incomplete,32,number,1,0,right,Purple_Circle_Dots_4.jpg,Purple_Plus_Grid_3.jpg,Blue_Triangle_Stripes_4.jpg,right,740,true,NA,NA,NA,NA,NA,NA,NA,NA,true
2N43SgSP,3oplmf3ev80afezcyc4phujqmmslnu,3d4ch1lgee6br4fbddt6blfqyd2g9v,2N43SgSP,2020-0188,2020-11-16,20:11:36,20:32:50,NA,incomplete,33,number,1,1,right,Blue_Triangle_Grid_3.jpg,Blue_Star_Dots_1.jpg,Green_Circle_Stripes_3.jpg,right,758,true,NA,NA,NA,NA,NA,NA,NA,NA,true
2N43SgSP,3oplmf3ev80afezcyc4phujqmmslnu,3d4ch1lgee6br4fbddt6blfqyd2g9v,2N43SgSP,2020-0188,2020-11-16,20:11:36,20:32:50,NA,incomplete,34,number,1,1,right,Red_Triangle_Grid_4.jpg,Red_Star_Dots_2.jpg,Blue_Plus_Stripes_4.jpg,right,793,true,NA,NA,NA,NA,NA,NA,NA,NA,true
2N43SgSP,3oplmf3ev80afezcyc4phujqmmslnu,3d4ch1lgee6br4fbddt6blfqyd2g9v,2N43SgSP,2020-0188,2020-11-16,20:11:36,20:32:50,NA,incomplete,35,number,1,1,left,Red_Star_Chess_4.jpg,Green_Plus_Stripes_4.jpg,Red_Triangle_Dots_1.jpg,left,632,true,NA,NA,NA,NA,NA,NA,NA,NA,true
2N43SgSP,3oplmf3ev80afezcyc4phujqmmslnu,3d4ch1lgee6br4fbddt6blfqyd2g9v,2N43SgSP,2020-0188,2020-11-16,20:11:36,20:32:50,NA,incomplete,36,number,1,1,right,Blue_Star_Stripes_1.jpg,Blue_Triangle_Grid_4.jpg,Green_Circle_Chess_1.jpg,right,740,true,NA,NA,NA,NA,NA,NA,NA,NA,true
2N43SgSP,3oplmf3ev80afezcyc4phujqmmslnu,3d4ch1lgee6br4fbddt6blfqyd2g9v,2N43SgSP,2020-0188,2020-11-16,20:11:36,20:32:50,NA,incomplete,37,number,1,1,right,Blue_Star_Grid_3.jpg,Blue_Triangle_Chess_1.jpg,Green_Plus_Dots_3.jpg,right,739,true,NA,NA,NA,NA,NA,NA,NA,NA,true
2N43SgSP,3oplmf3ev80afezcyc4phujqmmslnu,3d4ch1lgee6br4fbddt6blfqyd2g9v,2N43SgSP,2020-0188,2020-11-16,20:11:36,20:32:50,NA,incomplete,38,number,1,1,right,Purple_Circle_Chess_3.jpg,Purple_Plus_Stripes_4.jpg,Green_Star_Dots_3.jpg,right,705,true,NA,NA,NA,NA,NA,NA,NA,NA,true
2N43SgSP,3oplmf3ev80afezcyc4phujqmmslnu,3d4ch1lgee6br4fbddt6blfqyd2g9v,2N43SgSP,2020-0188,2020-11-16,20:11:36,20:32:50,NA,incomplete,39,number,1,1,left,Purple_Plus_Stripes_2.jpg,Green_Star_Dots_2.jpg,Purple_Circle_Chess_1.jpg,left,591,true,NA,NA,NA,NA,NA,NA,NA,NA,true
2N43SgSP,3oplmf3ev80afezcyc4phujqmmslnu,3d4ch1lgee6br4fbddt6blfqyd2g9v,2N43SgSP,2020-0188,2020-11-16,20:11:36,20:32:50,NA,incomplete,0,color,0,1,left,Red_Plus_Stripes_2.jpg,Red_Triangle_Grid_3.jpg,Green_Circle_Dots_2.jpg,left,1124,true,high,NA,NA,NA,NA,NA,NA,NA,false
2N43SgSP,3oplmf3ev80afezcyc4phujqmmslnu,3d4ch1lgee6br4fbddt6blfqyd2g9v,2N43SgSP,2020-0188,2020-11-16,20:11:36,20:32:50,NA,incomplete,1,color,0,1,left,Green_Triangle_Grid_4.jpg,Green_Circle_Stripes_2.jpg,Purple_Plus_Dots_4.jpg,left,654,true,high,NA,NA,NA,NA,NA,NA,NA,false
2N43SgSP,3oplmf3ev80afezcyc4phujqmmslnu,3d4ch1lgee6br4fbddt6blfqyd2g9v,2N43SgSP,2020-0188,2020-11-16,20:11:36,20:32:50,NA,incomplete,2,color,0,0,left,Purple_Triangle_Grid_2.jpg,Purple_Circle_Dots_1.jpg,Blue_Star_Stripes_2.jpg,left,476,true,high,NA,NA,NA,NA,NA,NA,NA,false
2N43SgSP,3oplmf3ev80afezcyc4phujqmmslnu,3d4ch1lgee6br4fbddt6blfqyd2g9v,2N43SgSP,2020-0188,2020-11-16,20:11:36,20:32:50,NA,incomplete,3,color,0,1,right,Red_Circle_Dots_4.jpg,Purple_Star_Grid_4.jpg,Red_Plus_Chess_2.jpg,right,454,true,high,NA,NA,NA,NA,NA,NA,NA,false
2N43SgSP,3oplmf3ev80afezcyc4phujqmmslnu,3d4ch1lgee6br4fbddt6blfqyd2g9v,2N43SgSP,2020-0188,2020-11-16,20:11:36,20:32:50,NA,incomplete,4,color,0,1,right,Blue_Star_Chess_1.jpg,Red_Circle_Dots_1.jpg,Blue_Triangle_Grid_2.jpg,right,552,true,high,NA,NA,NA,NA,NA,NA,NA,false
2N43SgSP,3oplmf3ev80afezcyc4phujqmmslnu,3d4ch1lgee6br4fbddt6blfqyd2g9v,2N43SgSP,2020-0188,2020-11-16,20:11:36,20:32:50,NA,incomplete,5,color,0,1,left,Blue_Triangle_Grid_3.jpg,Blue_Star_Stripes_4.jpg,Red_Plus_Chess_3.jpg,left,462,true,high,NA,NA,NA,NA,NA,NA,NA,false
2N43SgSP,3oplmf3ev80afezcyc4phujqmmslnu,3d4ch1lgee6br4fbddt6blfqyd2g9v,2N43SgSP,2020-0188,2020-11-16,20:11:36,20:32:50,NA,incomplete,6,color,0,1,left,Blue_Star_Chess_3.jpg,Blue_Triangle_Grid_2.jpg,Green_Circle_Dots_3.jpg,left,560,true,high,NA,NA,NA,NA,NA,NA,NA,false
2N43SgSP,3oplmf3ev80afezcyc4phujqmmslnu,3d4ch1lgee6br4fbddt6blfqyd2g9v,2N43SgSP,2020-0188,2020-11-16,20:11:36,20:32:50,NA,incomplete,7,color,0,0,right,Purple_Plus_Chess_4.jpg,Green_Star_Stripes_4.jpg,Purple_Circle_Dots_2.jpg,right,510,true,high,NA,NA,NA,NA,NA,NA,NA,false
2N43SgSP,3oplmf3ev80afezcyc4phujqmmslnu,3d4ch1lgee6br4fbddt6blfqyd2g9v,2N43SgSP,2020-0188,2020-11-16,20:11:36,20:32:50,NA,incomplete,8,color,0,1,right,Purple_Triangle_Stripes_3.jpg,Red_Star_Dots_3.jpg,Purple_Circle_Chess_1.jpg,right,462,true,high,NA,NA,NA,NA,NA,NA,NA,false
2N43SgSP,3oplmf3ev80afezcyc4phujqmmslnu,3d4ch1lgee6br4fbddt6blfqyd2g9v,2N43SgSP,2020-0188,2020-11-16,20:11:36,20:32:50,NA,incomplete,9,color,0,1,right,Green_Star_Dots_4.jpg,Blue_Circle_Grid_4.jpg,Green_Triangle_Chess_3.jpg,right,477,true,high,NA,NA,NA,NA,NA,NA,NA,false
2N43SgSP,3oplmf3ev80afezcyc4phujqmmslnu,3d4ch1lgee6br4fbddt6blfqyd2g9v,2N43SgSP,2020-0188,2020-11-16,20:11:36,20:32:50,NA,incomplete,10,number,1,0,left,Green_Circle_Grid_1.jpg,Purple_Star_Dots_1.jpg,Green_Triangle_Stripes_2.jpg,right,507,false,high,NA,NA,NA,NA,NA,NA,NA,false
2N43SgSP,3oplmf3ev80afezcyc4phujqmmslnu,3d4ch1lgee6br4fbddt6blfqyd2g9v,2N43SgSP,2020-0188,2020-11-16,20:11:36,20:32:50,NA,incomplete,11,number,1,1,right,Blue_Circle_Grid_4.jpg,Blue_Star_Dots_2.jpg,Purple_Triangle_Chess_4.jpg,left,489,false,high,NA,NA,NA,NA,NA,NA,NA,false
2N43SgSP,3oplmf3ev80afezcyc4phujqmmslnu,3d4ch1lgee6br4fbddt6blfqyd2g9v,2N43SgSP,2020-0188,2020-11-16,20:11:36,20:32:50,NA,incomplete,12,number,1,1,left,Blue_Plus_Stripes_3.jpg,Purple_Triangle_Chess_3.jpg,Blue_Star_Grid_1.jpg,right,515,false,high,NA,NA,NA,NA,NA,NA,NA,false
2N43SgSP,3oplmf3ev80afezcyc4phujqmmslnu,3d4ch1lgee6br4fbddt6blfqyd2g9v,2N43SgSP,2020-0188,2020-11-16,20:11:36,20:32:50,NA,incomplete,13,number,1,0,left,Blue_Plus_Stripes_1.jpg,Red_Triangle_Chess_1.jpg,Blue_Circle_Dots_3.jpg,right,482,false,high,NA,NA,NA,NA,NA,NA,NA,false
2N43SgSP,3oplmf3ev80afezcyc4phujqmmslnu,3d4ch1lgee6br4fbddt6blfqyd2g9v,2N43SgSP,2020-0188,2020-11-16,20:11:36,20:32:50,NA,incomplete,14,number,1,1,left,Blue_Plus_Grid_4.jpg,Red_Star_Chess_4.jpg,Blue_Triangle_Stripes_3.jpg,right,435,false,high,NA,NA,NA,NA,NA,NA,NA,false
2N43SgSP,3oplmf3ev80afezcyc4phujqmmslnu,3d4ch1lgee6br4fbddt6blfqyd2g9v,2N43SgSP,2020-0188,2020-11-16,20:11:36,20:32:50,NA,incomplete,15,number,1,1,left,Red_Circle_Grid_1.jpg,Purple_Star_Dots_1.jpg,Red_Triangle_Stripes_3.jpg,left,749,true,high,NA,NA,NA,NA,NA,NA,NA,false
2N43SgSP,3oplmf3ev80afezcyc4phujqmmslnu,3d4ch1lgee6br4fbddt6blfqyd2g9v,2N43SgSP,2020-0188,2020-11-16,20:11:36,20:32:50,NA,incomplete,16,number,1,1,right,Blue_Circle_Grid_1.jpg,Blue_Plus_Dots_3.jpg,Purple_Triangle_Chess_1.jpg,right,567,true,high,NA,NA,NA,NA,NA,NA,NA,false
2N43SgSP,3oplmf3ev80afezcyc4phujqmmslnu,3d4ch1lgee6br4fbddt6blfqyd2g9v,2N43SgSP,2020-0188,2020-11-16,20:11:36,20:32:50,NA,incomplete,17,number,1,1,right,Green_Plus_Dots_2.jpg,Green_Circle_Chess_4.jpg,Red_Star_Grid_2.jpg,right,716,true,high,NA,NA,NA,NA,NA,NA,NA,false
2N43SgSP,3oplmf3ev80afezcyc4phujqmmslnu,3d4ch1lgee6br4fbddt6blfqyd2g9v,2N43SgSP,2020-0188,2020-11-16,20:11:36,20:32:50,NA,incomplete,18,number,1,0,right,Blue_Star_Stripes_4.jpg,Blue_Plus_Chess_3.jpg,Purple_Triangle_Grid_4.jpg,right,887,true,high,NA,NA,NA,NA,NA,NA,NA,false
2N43SgSP,3oplmf3ev80afezcyc4phujqmmslnu,3d4ch1lgee6br4fbddt6blfqyd2g9v,2N43SgSP,2020-0188,2020-11-16,20:11:36,20:32:50,NA,incomplete,19,number,1,1,right,Blue_Circle_Grid_3.jpg,Blue_Star_Dots_1.jpg,Red_Plus_Chess_3.jpg,right,845,true,high,NA,NA,NA,NA,NA,NA,NA,false
2N43SgSP,3oplmf3ev80afezcyc4phujqmmslnu,3d4ch1lgee6br4fbddt6blfqyd2g9v,2N43SgSP,2020-0188,2020-11-16,20:11:36,20:32:50,NA,incomplete,20,color,0,1,right,Red_Triangle_Chess_3.jpg,Blue_Circle_Grid_3.jpg,Red_Plus_Stripes_4.jpg,left,654,false,high,NA,NA,NA,NA,NA,NA,NA,false
2N43SgSP,3oplmf3ev80afezcyc4phujqmmslnu,3d4ch1lgee6br4fbddt6blfqyd2g9v,2N43SgSP,2020-0188,2020-11-16,20:11:36,20:32:50,NA,incomplete,21,color,0,1,right,Red_Circle_Chess_3.jpg,Blue_Triangle_Stripes_3.jpg,Red_Star_Grid_2.jpg,left,728,false,high,NA,NA,NA,NA,NA,NA,NA,false
2N43SgSP,3oplmf3ev80afezcyc4phujqmmslnu,3d4ch1lgee6br4fbddt6blfqyd2g9v,2N43SgSP,2020-0188,2020-11-16,20:11:36,20:32:50,NA,incomplete,22,color,0,1,right,Green_Star_Stripes_2.jpg,Blue_Triangle_Chess_2.jpg,Green_Plus_Dots_4.jpg,right,1070,true,high,NA,NA,NA,NA,NA,NA,NA,false
2N43SgSP,3oplmf3ev80afezcyc4phujqmmslnu,3d4ch1lgee6br4fbddt6blfqyd2g9v,2N43SgSP,2020-0188,2020-11-16,20:11:36,20:32:50,NA,incomplete,23,color,0,1,right,Purple_Triangle_Chess_3.jpg,Blue_Star_Grid_3.jpg,Purple_Circle_Stripes_4.jpg,left,784,false,high,NA,NA,NA,NA,NA,NA,NA,false
2N43SgSP,3oplmf3ev80afezcyc4phujqmmslnu,3d4ch1lgee6br4fbddt6blfqyd2g9v,2N43SgSP,2020-0188,2020-11-16,20:11:36,20:32:50,NA,incomplete,24,color,0,1,left,Red_Triangle_Chess_2.jpg,Red_Star_Dots_3.jpg,Blue_Plus_Stripes_2.jpg,left,623,true,high,NA,NA,NA,NA,NA,NA,NA,false
2N43SgSP,3oplmf3ev80afezcyc4phujqmmslnu,3d4ch1lgee6br4fbddt6blfqyd2g9v,2N43SgSP,2020-0188,2020-11-16,20:11:36,20:32:50,NA,incomplete,25,color,0,0,left,Blue_Star_Stripes_3.jpg,Blue_Plus_Grid_1.jpg,Green_Circle_Dots_3.jpg,left,576,true,high,NA,NA,NA,NA,NA,NA,NA,false
2N43SgSP,3oplmf3ev80afezcyc4phujqmmslnu,3d4ch1lgee6br4fbddt6blfqyd2g9v,2N43SgSP,2020-0188,2020-11-16,20:11:36,20:32:50,NA,incomplete,26,color,0,1,right,Purple_Plus_Stripes_4.jpg,Blue_Circle_Grid_4.jpg,Purple_Triangle_Chess_1.jpg,right,964,true,high,NA,NA,NA,NA,NA,NA,NA,false
2N43SgSP,3oplmf3ev80afezcyc4phujqmmslnu,3d4ch1lgee6br4fbddt6blfqyd2g9v,2N43SgSP,2020-0188,2020-11-16,20:11:36,20:32:50,NA,incomplete,27,color,0,1,right,Blue_Circle_Grid_3.jpg,Red_Triangle_Dots_3.jpg,Blue_Star_Stripes_1.jpg,right,691,true,high,NA,NA,NA,NA,NA,NA,NA,false
2N43SgSP,3oplmf3ev80afezcyc4phujqmmslnu,3d4ch1lgee6br4fbddt6blfqyd2g9v,2N43SgSP,2020-0188,2020-11-16,20:11:36,20:32:50,NA,incomplete,28,color,0,1,right,Blue_Star_Stripes_3.jpg,Red_Triangle_Chess_3.jpg,Blue_Plus_Dots_4.jpg,right,677,true,high,NA,NA,NA,NA,NA,NA,NA,false
2N43SgSP,3oplmf3ev80afezcyc4phujqmmslnu,3d4ch1lgee6br4fbddt6blfqyd2g9v,2N43SgSP,2020-0188,2020-11-16,20:11:36,20:32:50,NA,incomplete,29,color,0,1,right,Green_Triangle_Stripes_1.jpg,Blue_Circle_Grid_1.jpg,Green_Plus_Chess_4.jpg,right,628,true,high,NA,NA,NA,NA,NA,NA,NA,false
2N43SgSP,3oplmf3ev80afezcyc4phujqmmslnu,3d4ch1lgee6br4fbddt6blfqyd2g9v,2N43SgSP,2020-0188,2020-11-16,20:11:36,20:32:50,NA,incomplete,30,number,1,1,right,Red_Star_Stripes_1.jpg,Red_Circle_Chess_2.jpg,Blue_Triangle_Grid_1.jpg,left,655,false,high,NA,NA,NA,NA,NA,NA,NA,false
2N43SgSP,3oplmf3ev80afezcyc4phujqmmslnu,3d4ch1lgee6br4fbddt6blfqyd2g9v,2N43SgSP,2020-0188,2020-11-16,20:11:36,20:32:50,NA,incomplete,31,number,1,1,right,Blue_Circle_Chess_4.jpg,Blue_Plus_Grid_2.jpg,Green_Triangle_Dots_4.jpg,right,892,true,high,NA,NA,NA,NA,NA,NA,NA,false
2N43SgSP,3oplmf3ev80afezcyc4phujqmmslnu,3d4ch1lgee6br4fbddt6blfqyd2g9v,2N43SgSP,2020-0188,2020-11-16,20:11:36,20:32:50,NA,incomplete,32,number,1,1,left,Green_Circle_Grid_4.jpg,Blue_Star_Dots_4.jpg,Green_Triangle_Stripes_3.jpg,left,835,true,high,NA,NA,NA,NA,NA,NA,NA,false
2N43SgSP,3oplmf3ev80afezcyc4phujqmmslnu,3d4ch1lgee6br4fbddt6blfqyd2g9v,2N43SgSP,2020-0188,2020-11-16,20:11:36,20:32:50,NA,incomplete,33,number,1,1,left,Purple_Triangle_Chess_4.jpg,Red_Plus_Grid_4.jpg,Purple_Star_Dots_2.jpg,left,645,true,high,NA,NA,NA,NA,NA,NA,NA,false
2N43SgSP,3oplmf3ev80afezcyc4phujqmmslnu,3d4ch1lgee6br4fbddt6blfqyd2g9v,2N43SgSP,2020-0188,2020-11-16,20:11:36,20:32:50,NA,incomplete,34,number,1,1,right,Purple_Plus_Dots_1.jpg,Purple_Triangle_Chess_2.jpg,Green_Star_Grid_1.jpg,right,930,true,high,NA,NA,NA,NA,NA,NA,NA,false
2N43SgSP,3oplmf3ev80afezcyc4phujqmmslnu,3d4ch1lgee6br4fbddt6blfqyd2g9v,2N43SgSP,2020-0188,2020-11-16,20:11:36,20:32:50,NA,incomplete,35,number,1,1,left,Red_Plus_Grid_3.jpg,Green_Star_Chess_3.jpg,Red_Triangle_Dots_2.jpg,left,741,true,high,NA,NA,NA,NA,NA,NA,NA,false
2N43SgSP,3oplmf3ev80afezcyc4phujqmmslnu,3d4ch1lgee6br4fbddt6blfqyd2g9v,2N43SgSP,2020-0188,2020-11-16,20:11:36,20:32:50,NA,incomplete,36,number,1,1,right,Purple_Circle_Chess_3.jpg,Purple_Triangle_Stripes_4.jpg,Green_Star_Grid_3.jpg,right,718,true,high,NA,NA,NA,NA,NA,NA,NA,false
2N43SgSP,3oplmf3ev80afezcyc4phujqmmslnu,3d4ch1lgee6br4fbddt6blfqyd2g9v,2N43SgSP,2020-0188,2020-11-16,20:11:36,20:32:50,NA,incomplete,37,number,1,1,left,Blue_Plus_Chess_4.jpg,Green_Star_Grid_4.jpg,Blue_Triangle_Dots_2.jpg,left,747,true,high,NA,NA,NA,NA,NA,NA,NA,false
2N43SgSP,3oplmf3ev80afezcyc4phujqmmslnu,3d4ch1lgee6br4fbddt6blfqyd2g9v,2N43SgSP,2020-0188,2020-11-16,20:11:36,20:32:50,NA,incomplete,38,number,1,1,left,Purple_Triangle_Chess_2.jpg,Blue_Circle_Stripes_2.jpg,Purple_Star_Dots_1.jpg,left,891,true,high,NA,NA,NA,NA,NA,NA,NA,false
2N43SgSP,3oplmf3ev80afezcyc4phujqmmslnu,3d4ch1lgee6br4fbddt6blfqyd2g9v,2N43SgSP,2020-0188,2020-11-16,20:11:36,20:32:50,NA,incomplete,39,number,1,0,right,Purple_Triangle_Stripes_1.jpg,Purple_Plus_Dots_4.jpg,Blue_Circle_Grid_1.jpg,right,1021,true,high,NA,NA,NA,NA,NA,NA,NA,false
2N43SgSP,3oplmf3ev80afezcyc4phujqmmslnu,3d4ch1lgee6br4fbddt6blfqyd2g9v,2N43SgSP,2020-0188,2020-11-16,20:11:36,20:32:50,NA,incomplete,40,color,0,1,left,Red_Star_Dots_4.jpg,Red_Circle_Grid_3.jpg,Green_Plus_Chess_4.jpg,right,807,false,high,NA,NA,NA,NA,NA,NA,NA,false
2N43SgSP,3oplmf3ev80afezcyc4phujqmmslnu,3d4ch1lgee6br4fbddt6blfqyd2g9v,2N43SgSP,2020-0188,2020-11-16,20:11:36,20:32:50,NA,incomplete,41,color,0,1,left,Purple_Circle_Stripes_3.jpg,Purple_Triangle_Chess_1.jpg,Red_Star_Dots_3.jpg,right,665,false,high,NA,NA,NA,NA,NA,NA,NA,false
2N43SgSP,3oplmf3ev80afezcyc4phujqmmslnu,3d4ch1lgee6br4fbddt6blfqyd2g9v,2N43SgSP,2020-0188,2020-11-16,20:11:36,20:32:50,NA,incomplete,42,color,0,1,right,Red_Triangle_Grid_1.jpg,Blue_Plus_Chess_1.jpg,Red_Star_Stripes_2.jpg,right,926,true,high,NA,NA,NA,NA,NA,NA,NA,false
2N43SgSP,3oplmf3ev80afezcyc4phujqmmslnu,3d4ch1lgee6br4fbddt6blfqyd2g9v,2N43SgSP,2020-0188,2020-11-16,20:11:36,20:32:50,NA,incomplete,43,color,0,1,right,Green_Triangle_Chess_2.jpg,Blue_Star_Stripes_2.jpg,Green_Plus_Grid_3.jpg,right,1147,true,high,NA,NA,NA,NA,NA,NA,NA,false
2N43SgSP,3oplmf3ev80afezcyc4phujqmmslnu,3d4ch1lgee6br4fbddt6blfqyd2g9v,2N43SgSP,2020-0188,2020-11-16,20:11:36,20:32:50,NA,incomplete,44,color,0,1,left,Purple_Circle_Grid_3.jpg,Purple_Star_Stripes_4.jpg,Red_Plus_Chess_3.jpg,left,893,true,high,NA,NA,NA,NA,NA,NA,NA,false
2N43SgSP,3oplmf3ev80afezcyc4phujqmmslnu,3d4ch1lgee6br4fbddt6blfqyd2g9v,2N43SgSP,2020-0188,2020-11-16,20:11:36,20:32:50,NA,incomplete,45,color,0,1,right,Red_Plus_Dots_3.jpg,Blue_Circle_Chess_3.jpg,Red_Triangle_Grid_1.jpg,right,565,true,high,NA,NA,NA,NA,NA,NA,NA,false
2N43SgSP,3oplmf3ev80afezcyc4phujqmmslnu,3d4ch1lgee6br4fbddt6blfqyd2g9v,2N43SgSP,2020-0188,2020-11-16,20:11:36,20:32:50,NA,incomplete,46,color,0,1,right,Purple_Star_Dots_3.jpg,Green_Circle_Chess_3.jpg,Purple_Triangle_Grid_4.jpg,right,671,true,high,NA,NA,NA,NA,NA,NA,NA,false
2N43SgSP,3oplmf3ev80afezcyc4phujqmmslnu,3d4ch1lgee6br4fbddt6blfqyd2g9v,2N43SgSP,2020-0188,2020-11-16,20:11:36,20:32:50,NA,incomplete,47,color,0,1,left,Green_Plus_Chess_2.jpg,Green_Circle_Grid_3.jpg,Purple_Star_Stripes_2.jpg,left,737,true,high,NA,NA,NA,NA,NA,NA,NA,false
2N43SgSP,3oplmf3ev80afezcyc4phujqmmslnu,3d4ch1lgee6br4fbddt6blfqyd2g9v,2N43SgSP,2020-0188,2020-11-16,20:11:36,20:32:50,NA,incomplete,48,color,0,1,right,Green_Triangle_Chess_1.jpg,Purple_Circle_Stripes_1.jpg,Green_Plus_Grid_3.jpg,right,618,true,high,NA,NA,NA,NA,NA,NA,NA,false
2N43SgSP,3oplmf3ev80afezcyc4phujqmmslnu,3d4ch1lgee6br4fbddt6blfqyd2g9v,2N43SgSP,2020-0188,2020-11-16,20:11:36,20:32:50,NA,incomplete,49,color,0,1,left,Green_Plus_Stripes_2.jpg,Green_Star_Dots_3.jpg,Blue_Triangle_Grid_2.jpg,left,620,true,high,NA,NA,NA,NA,NA,NA,NA,false
2N43SgSP,3oplmf3ev80afezcyc4phujqmmslnu,3d4ch1lgee6br4fbddt6blfqyd2g9v,2N43SgSP,2020-0188,2020-11-16,20:11:36,20:32:50,NA,incomplete,50,number,1,1,left,Red_Circle_Grid_3.jpg,Purple_Plus_Chess_3.jpg,Red_Triangle_Dots_2.jpg,left,711,true,high,NA,NA,NA,NA,NA,NA,NA,false
2N43SgSP,3oplmf3ev80afezcyc4phujqmmslnu,3d4ch1lgee6br4fbddt6blfqyd2g9v,2N43SgSP,2020-0188,2020-11-16,20:11:36,20:32:50,NA,incomplete,51,number,1,1,left,Green_Plus_Grid_3.jpg,Red_Circle_Dots_3.jpg,Green_Star_Stripes_4.jpg,right,1043,false,high,NA,NA,NA,NA,NA,NA,NA,false
2N43SgSP,3oplmf3ev80afezcyc4phujqmmslnu,3d4ch1lgee6br4fbddt6blfqyd2g9v,2N43SgSP,2020-0188,2020-11-16,20:11:36,20:32:50,NA,incomplete,52,number,1,0,left,Purple_Circle_Grid_2.jpg,Blue_Plus_Stripes_2.jpg,Purple_Triangle_Chess_1.jpg,left,652,true,high,NA,NA,NA,NA,NA,NA,NA,false
2N43SgSP,3oplmf3ev80afezcyc4phujqmmslnu,3d4ch1lgee6br4fbddt6blfqyd2g9v,2N43SgSP,2020-0188,2020-11-16,20:11:36,20:32:50,NA,incomplete,53,number,1,1,left,Purple_Circle_Grid_1.jpg,Green_Triangle_Stripes_1.jpg,Purple_Star_Dots_4.jpg,left,1007,true,high,NA,NA,NA,NA,NA,NA,NA,false
2N43SgSP,3oplmf3ev80afezcyc4phujqmmslnu,3d4ch1lgee6br4fbddt6blfqyd2g9v,2N43SgSP,2020-0188,2020-11-16,20:11:36,20:32:50,NA,incomplete,54,number,1,0,left,Green_Plus_Grid_2.jpg,Red_Triangle_Stripes_2.jpg,Green_Star_Dots_1.jpg,left,710,true,high,NA,NA,NA,NA,NA,NA,NA,false
2N43SgSP,3oplmf3ev80afezcyc4phujqmmslnu,3d4ch1lgee6br4fbddt6blfqyd2g9v,2N43SgSP,2020-0188,2020-11-16,20:11:36,20:32:50,NA,incomplete,55,number,1,1,right,Green_Star_Grid_1.jpg,Green_Circle_Dots_3.jpg,Red_Triangle_Stripes_1.jpg,left,695,false,high,NA,NA,NA,NA,NA,NA,NA,false
2N43SgSP,3oplmf3ev80afezcyc4phujqmmslnu,3d4ch1lgee6br4fbddt6blfqyd2g9v,2N43SgSP,2020-0188,2020-11-16,20:11:36,20:32:50,NA,incomplete,56,number,1,1,right,Red_Triangle_Grid_3.jpg,Red_Star_Dots_4.jpg,Green_Circle_Stripes_3.jpg,left,1106,false,high,NA,NA,NA,NA,NA,NA,NA,false
2N43SgSP,3oplmf3ev80afezcyc4phujqmmslnu,3d4ch1lgee6br4fbddt6blfqyd2g9v,2N43SgSP,2020-0188,2020-11-16,20:11:36,20:32:50,NA,incomplete,57,number,1,1,right,Green_Plus_Dots_3.jpg,Green_Star_Chess_4.jpg,Purple_Triangle_Grid_3.jpg,right,1005,true,high,NA,NA,NA,NA,NA,NA,NA,false
2N43SgSP,3oplmf3ev80afezcyc4phujqmmslnu,3d4ch1lgee6br4fbddt6blfqyd2g9v,2N43SgSP,2020-0188,2020-11-16,20:11:36,20:32:50,NA,incomplete,58,number,1,0,right,Purple_Circle_Grid_2.jpg,Purple_Plus_Stripes_1.jpg,Blue_Triangle_Dots_2.jpg,right,780,true,high,NA,NA,NA,NA,NA,NA,NA,false
2N43SgSP,3oplmf3ev80afezcyc4phujqmmslnu,3d4ch1lgee6br4fbddt6blfqyd2g9v,2N43SgSP,2020-0188,2020-11-16,20:11:36,20:32:50,NA,incomplete,59,number,1,1,left,Red_Plus_Stripes_2.jpg,Blue_Circle_Chess_2.jpg,Red_Triangle_Grid_3.jpg,left,831,true,high,NA,NA,NA,NA,NA,NA,NA,false
2N43SgSP,3oplmf3ev80afezcyc4phujqmmslnu,3d4ch1lgee6br4fbddt6blfqyd2g9v,2N43SgSP,2020-0188,2020-11-16,20:11:36,20:32:50,NA,incomplete,60,color,0,0,left,Red_Plus_Chess_1.jpg,Red_Triangle_Grid_3.jpg,Blue_Star_Dots_1.jpg,right,772,false,high,NA,NA,NA,NA,NA,NA,NA,false
2N43SgSP,3oplmf3ev80afezcyc4phujqmmslnu,3d4ch1lgee6br4fbddt6blfqyd2g9v,2N43SgSP,2020-0188,2020-11-16,20:11:36,20:32:50,NA,incomplete,61,color,0,0,right,Red_Circle_Dots_3.jpg,Green_Star_Stripes_3.jpg,Red_Plus_Chess_2.jpg,left,845,false,high,NA,NA,NA,NA,NA,NA,NA,false
2N43SgSP,3oplmf3ev80afezcyc4phujqmmslnu,3d4ch1lgee6br4fbddt6blfqyd2g9v,2N43SgSP,2020-0188,2020-11-16,20:11:36,20:32:50,NA,incomplete,62,color,0,1,left,Red_Triangle_Dots_3.jpg,Red_Star_Chess_2.jpg,Purple_Circle_Grid_3.jpg,right,819,false,high,NA,NA,NA,NA,NA,NA,NA,false
2N43SgSP,3oplmf3ev80afezcyc4phujqmmslnu,3d4ch1lgee6br4fbddt6blfqyd2g9v,2N43SgSP,2020-0188,2020-11-16,20:11:36,20:32:50,NA,incomplete,63,color,0,1,right,Purple_Circle_Stripes_3.jpg,Red_Plus_Dots_3.jpg,Purple_Triangle_Grid_1.jpg,right,1128,true,high,NA,NA,NA,NA,NA,NA,NA,false
2N43SgSP,3oplmf3ev80afezcyc4phujqmmslnu,3d4ch1lgee6br4fbddt6blfqyd2g9v,2N43SgSP,2020-0188,2020-11-16,20:11:36,20:32:50,NA,incomplete,64,color,0,1,left,Blue_Circle_Grid_4.jpg,Blue_Star_Stripes_3.jpg,Purple_Triangle_Dots_4.jpg,left,673,true,high,NA,NA,NA,NA,NA,NA,NA,false
2N43SgSP,3oplmf3ev80afezcyc4phujqmmslnu,3d4ch1lgee6br4fbddt6blfqyd2g9v,2N43SgSP,2020-0188,2020-11-16,20:11:36,20:32:50,NA,incomplete,65,color,0,1,right,Purple_Triangle_Dots_4.jpg,Green_Star_Chess_4.jpg,Purple_Circle_Stripes_2.jpg,left,664,false,high,NA,NA,NA,NA,NA,NA,NA,false
2N43SgSP,3oplmf3ev80afezcyc4phujqmmslnu,3d4ch1lgee6br4fbddt6blfqyd2g9v,2N43SgSP,2020-0188,2020-11-16,20:11:36,20:32:50,NA,incomplete,66,color,0,1,right,Green_Circle_Dots_2.jpg,Purple_Triangle_Chess_2.jpg,Green_Plus_Grid_4.jpg,right,1048,true,high,NA,NA,NA,NA,NA,NA,NA,false
2N43SgSP,3oplmf3ev80afezcyc4phujqmmslnu,3d4ch1lgee6br4fbddt6blfqyd2g9v,2N43SgSP,2020-0188,2020-11-16,20:11:36,20:32:50,NA,incomplete,67,color,0,1,right,Red_Circle_Grid_1.jpg,Green_Triangle_Stripes_1.jpg,Red_Plus_Dots_2.jpg,right,734,true,high,NA,NA,NA,NA,NA,NA,NA,false
2N43SgSP,3oplmf3ev80afezcyc4phujqmmslnu,3d4ch1lgee6br4fbddt6blfqyd2g9v,2N43SgSP,2020-0188,2020-11-16,20:11:36,20:32:50,NA,incomplete,68,color,0,1,left,Red_Triangle_Chess_2.jpg,Red_Circle_Dots_1.jpg,Purple_Star_Grid_2.jpg,left,853,true,high,NA,NA,NA,NA,NA,NA,NA,false
2N43SgSP,3oplmf3ev80afezcyc4phujqmmslnu,3d4ch1lgee6br4fbddt6blfqyd2g9v,2N43SgSP,2020-0188,2020-11-16,20:11:36,20:32:50,NA,incomplete,69,color,0,1,right,Red_Star_Chess_2.jpg,Green_Plus_Grid_2.jpg,Red_Triangle_Stripes_4.jpg,right,608,true,high,NA,NA,NA,NA,NA,NA,NA,false
2N43SgSP,3oplmf3ev80afezcyc4phujqmmslnu,3d4ch1lgee6br4fbddt6blfqyd2g9v,2N43SgSP,2020-0188,2020-11-16,20:11:36,20:32:50,NA,incomplete,70,number,1,1,right,Blue_Circle_Stripes_2.jpg,Blue_Triangle_Chess_1.jpg,Purple_Plus_Dots_2.jpg,right,697,true,high,NA,NA,NA,NA,NA,NA,NA,false
2N43SgSP,3oplmf3ev80afezcyc4phujqmmslnu,3d4ch1lgee6br4fbddt6blfqyd2g9v,2N43SgSP,2020-0188,2020-11-16,20:11:36,20:32:50,NA,incomplete,71,number,1,1,right,Blue_Triangle_Dots_3.jpg,Blue_Plus_Stripes_1.jpg,Red_Circle_Chess_3.jpg,right,1092,true,high,NA,NA,NA,NA,NA,NA,NA,false
2N43SgSP,3oplmf3ev80afezcyc4phujqmmslnu,3d4ch1lgee6br4fbddt6blfqyd2g9v,2N43SgSP,2020-0188,2020-11-16,20:11:36,20:32:50,NA,incomplete,72,number,1,0,right,Purple_Circle_Grid_2.jpg,Purple_Star_Stripes_1.jpg,Green_Plus_Dots_2.jpg,right,660,true,high,NA,NA,NA,NA,NA,NA,NA,false
2N43SgSP,3oplmf3ev80afezcyc4phujqmmslnu,3d4ch1lgee6br4fbddt6blfqyd2g9v,2N43SgSP,2020-0188,2020-11-16,20:11:36,20:32:50,NA,incomplete,73,number,1,1,left,Green_Circle_Stripes_4.jpg,Blue_Triangle_Grid_4.jpg,Green_Plus_Dots_2.jpg,left,838,true,high,NA,NA,NA,NA,NA,NA,NA,false
2N43SgSP,3oplmf3ev80afezcyc4phujqmmslnu,3d4ch1lgee6br4fbddt6blfqyd2g9v,2N43SgSP,2020-0188,2020-11-16,20:11:36,20:32:50,NA,incomplete,74,number,1,1,left,Green_Triangle_Grid_1.jpg,Purple_Plus_Dots_1.jpg,Green_Circle_Chess_4.jpg,left,688,true,high,NA,NA,NA,NA,NA,NA,NA,false
2N43SgSP,3oplmf3ev80afezcyc4phujqmmslnu,3d4ch1lgee6br4fbddt6blfqyd2g9v,2N43SgSP,2020-0188,2020-11-16,20:11:36,20:32:50,NA,incomplete,75,number,1,1,right,Blue_Circle_Stripes_1.jpg,Blue_Plus_Dots_2.jpg,Green_Star_Grid_1.jpg,right,670,true,high,NA,NA,NA,NA,NA,NA,NA,false
2N43SgSP,3oplmf3ev80afezcyc4phujqmmslnu,3d4ch1lgee6br4fbddt6blfqyd2g9v,2N43SgSP,2020-0188,2020-11-16,20:11:36,20:32:50,NA,incomplete,76,number,1,1,left,Purple_Plus_Chess_1.jpg,Green_Circle_Dots_1.jpg,Purple_Star_Grid_2.jpg,left,640,true,high,NA,NA,NA,NA,NA,NA,NA,false
2N43SgSP,3oplmf3ev80afezcyc4phujqmmslnu,3d4ch1lgee6br4fbddt6blfqyd2g9v,2N43SgSP,2020-0188,2020-11-16,20:11:36,20:32:50,NA,incomplete,77,number,1,1,right,Red_Plus_Dots_1.jpg,Red_Circle_Grid_4.jpg,Purple_Triangle_Stripes_1.jpg,right,882,true,high,NA,NA,NA,NA,NA,NA,NA,false
2N43SgSP,3oplmf3ev80afezcyc4phujqmmslnu,3d4ch1lgee6br4fbddt6blfqyd2g9v,2N43SgSP,2020-0188,2020-11-16,20:11:36,20:32:50,NA,incomplete,78,number,1,1,right,Blue_Circle_Stripes_1.jpg,Blue_Star_Chess_3.jpg,Green_Plus_Dots_1.jpg,right,667,true,high,NA,NA,NA,NA,NA,NA,NA,false
2N43SgSP,3oplmf3ev80afezcyc4phujqmmslnu,3d4ch1lgee6br4fbddt6blfqyd2g9v,2N43SgSP,2020-0188,2020-11-16,20:11:36,20:32:50,NA,incomplete,79,number,1,0,right,Blue_Circle_Dots_4.jpg,Blue_Plus_Stripes_1.jpg,Purple_Triangle_Grid_4.jpg,right,637,true,high,NA,NA,NA,NA,NA,NA,NA,false
2N43SgSP,3oplmf3ev80afezcyc4phujqmmslnu,3d4ch1lgee6br4fbddt6blfqyd2g9v,2N43SgSP,2020-0188,2020-11-16,20:11:36,20:32:50,NA,incomplete,80,color,0,1,left,Red_Plus_Grid_3.jpg,Red_Circle_Dots_4.jpg,Green_Star_Chess_3.jpg,left,804,true,high,NA,NA,NA,NA,NA,NA,NA,false
2N43SgSP,3oplmf3ev80afezcyc4phujqmmslnu,3d4ch1lgee6br4fbddt6blfqyd2g9v,2N43SgSP,2020-0188,2020-11-16,20:11:36,20:32:50,NA,incomplete,81,color,0,0,left,Red_Star_Chess_1.jpg,Red_Circle_Grid_4.jpg,Green_Triangle_Stripes_1.jpg,left,694,true,high,NA,NA,NA,NA,NA,NA,NA,false
2N43SgSP,3oplmf3ev80afezcyc4phujqmmslnu,3d4ch1lgee6br4fbddt6blfqyd2g9v,2N43SgSP,2020-0188,2020-11-16,20:11:36,20:32:50,NA,incomplete,82,color,0,1,left,Blue_Star_Grid_1.jpg,Blue_Plus_Stripes_4.jpg,Red_Circle_Chess_1.jpg,left,824,true,high,NA,NA,NA,NA,NA,NA,NA,false
2N43SgSP,3oplmf3ev80afezcyc4phujqmmslnu,3d4ch1lgee6br4fbddt6blfqyd2g9v,2N43SgSP,2020-0188,2020-11-16,20:11:36,20:32:50,NA,incomplete,83,color,0,1,right,Green_Plus_Stripes_2.jpg,Red_Star_Grid_2.jpg,Green_Triangle_Chess_1.jpg,left,855,false,high,NA,NA,NA,NA,NA,NA,NA,false
2N43SgSP,3oplmf3ev80afezcyc4phujqmmslnu,3d4ch1lgee6br4fbddt6blfqyd2g9v,2N43SgSP,2020-0188,2020-11-16,20:11:36,20:32:50,NA,incomplete,84,color,0,1,right,Green_Star_Chess_3.jpg,Blue_Triangle_Dots_3.jpg,Green_Circle_Grid_2.jpg,right,954,true,high,NA,NA,NA,NA,NA,NA,NA,false
2N43SgSP,3oplmf3ev80afezcyc4phujqmmslnu,3d4ch1lgee6br4fbddt6blfqyd2g9v,2N43SgSP,2020-0188,2020-11-16,20:11:36,20:32:50,NA,incomplete,85,color,0,1,right,Red_Plus_Stripes_4.jpg,Purple_Circle_Grid_4.jpg,Red_Triangle_Dots_2.jpg,left,912,false,high,NA,NA,NA,NA,NA,NA,NA,false
2N43SgSP,3oplmf3ev80afezcyc4phujqmmslnu,3d4ch1lgee6br4fbddt6blfqyd2g9v,2N43SgSP,2020-0188,2020-11-16,20:11:36,20:32:50,NA,incomplete,86,color,0,0,left,Green_Triangle_Stripes_1.jpg,Green_Circle_Chess_3.jpg,Red_Star_Grid_1.jpg,left,714,true,high,NA,NA,NA,NA,NA,NA,NA,false
2N43SgSP,3oplmf3ev80afezcyc4phujqmmslnu,3d4ch1lgee6br4fbddt6blfqyd2g9v,2N43SgSP,2020-0188,2020-11-16,20:11:36,20:32:50,NA,incomplete,87,color,0,1,left,Green_Star_Stripes_1.jpg,Green_Plus_Dots_4.jpg,Red_Triangle_Grid_1.jpg,right,632,false,high,NA,NA,NA,NA,NA,NA,NA,false
2N43SgSP,3oplmf3ev80afezcyc4phujqmmslnu,3d4ch1lgee6br4fbddt6blfqyd2g9v,2N43SgSP,2020-0188,2020-11-16,20:11:36,20:32:50,NA,incomplete,88,color,0,1,right,Red_Triangle_Stripes_2.jpg,Purple_Plus_Chess_2.jpg,Red_Star_Dots_3.jpg,right,1010,true,high,NA,NA,NA,NA,NA,NA,NA,false
2N43SgSP,3oplmf3ev80afezcyc4phujqmmslnu,3d4ch1lgee6br4fbddt6blfqyd2g9v,2N43SgSP,2020-0188,2020-11-16,20:11:36,20:32:50,NA,incomplete,89,color,0,0,left,Blue_Circle_Chess_4.jpg,Blue_Plus_Grid_2.jpg,Purple_Star_Stripes_4.jpg,left,576,true,high,NA,NA,NA,NA,NA,NA,NA,false
2N43SgSP,3oplmf3ev80afezcyc4phujqmmslnu,3d4ch1lgee6br4fbddt6blfqyd2g9v,2N43SgSP,2020-0188,2020-11-16,20:11:36,20:32:50,NA,incomplete,90,number,1,1,left,Red_Triangle_Stripes_4.jpg,Blue_Star_Dots_4.jpg,Red_Circle_Chess_3.jpg,left,844,true,high,NA,NA,NA,NA,NA,NA,NA,false
2N43SgSP,3oplmf3ev80afezcyc4phujqmmslnu,3d4ch1lgee6br4fbddt6blfqyd2g9v,2N43SgSP,2020-0188,2020-11-16,20:11:36,20:32:50,NA,incomplete,91,number,1,0,left,Purple_Star_Stripes_4.jpg,Red_Triangle_Grid_4.jpg,Purple_Plus_Dots_3.jpg,left,768,true,high,NA,NA,NA,NA,NA,NA,NA,false
2N43SgSP,3oplmf3ev80afezcyc4phujqmmslnu,3d4ch1lgee6br4fbddt6blfqyd2g9v,2N43SgSP,2020-0188,2020-11-16,20:11:36,20:32:50,NA,incomplete,92,number,1,1,left,Green_Triangle_Stripes_1.jpg,Red_Circle_Chess_1.jpg,Green_Plus_Grid_3.jpg,left,703,true,high,NA,NA,NA,NA,NA,NA,NA,false
2N43SgSP,3oplmf3ev80afezcyc4phujqmmslnu,3d4ch1lgee6br4fbddt6blfqyd2g9v,2N43SgSP,2020-0188,2020-11-16,20:11:36,20:32:50,NA,incomplete,93,number,1,0,left,Purple_Star_Grid_4.jpg,Blue_Circle_Chess_4.jpg,Purple_Plus_Dots_2.jpg,left,844,true,high,NA,NA,NA,NA,NA,NA,NA,false
2N43SgSP,3oplmf3ev80afezcyc4phujqmmslnu,3d4ch1lgee6br4fbddt6blfqyd2g9v,2N43SgSP,2020-0188,2020-11-16,20:11:36,20:32:50,NA,incomplete,94,number,1,0,left,Purple_Plus_Stripes_4.jpg,Red_Star_Dots_4.jpg,Purple_Triangle_Chess_2.jpg,left,853,true,high,NA,NA,NA,NA,NA,NA,NA,false
2N43SgSP,3oplmf3ev80afezcyc4phujqmmslnu,3d4ch1lgee6br4fbddt6blfqyd2g9v,2N43SgSP,2020-0188,2020-11-16,20:11:36,20:32:50,NA,incomplete,95,number,1,1,right,Blue_Star_Stripes_2.jpg,Blue_Plus_Chess_1.jpg,Green_Triangle_Dots_2.jpg,left,880,false,high,NA,NA,NA,NA,NA,NA,NA,false
2N43SgSP,3oplmf3ev80afezcyc4phujqmmslnu,3d4ch1lgee6br4fbddt6blfqyd2g9v,2N43SgSP,2020-0188,2020-11-16,20:11:36,20:32:50,NA,incomplete,96,number,1,1,right,Red_Star_Dots_3.jpg,Red_Triangle_Chess_1.jpg,Green_Plus_Stripes_3.jpg,left,768,false,high,NA,NA,NA,NA,NA,NA,NA,false
2N43SgSP,3oplmf3ev80afezcyc4phujqmmslnu,3d4ch1lgee6br4fbddt6blfqyd2g9v,2N43SgSP,2020-0188,2020-11-16,20:11:36,20:32:50,NA,incomplete,97,number,1,1,right,Blue_Star_Grid_3.jpg,Blue_Triangle_Chess_1.jpg,Red_Circle_Dots_3.jpg,left,749,false,high,NA,NA,NA,NA,NA,NA,NA,false
2N43SgSP,3oplmf3ev80afezcyc4phujqmmslnu,3d4ch1lgee6br4fbddt6blfqyd2g9v,2N43SgSP,2020-0188,2020-11-16,20:11:36,20:32:50,NA,incomplete,98,number,1,1,left,Purple_Circle_Stripes_3.jpg,Red_Triangle_Dots_3.jpg,Purple_Plus_Grid_4.jpg,left,999,true,high,NA,NA,NA,NA,NA,NA,NA,false
2N43SgSP,3oplmf3ev80afezcyc4phujqmmslnu,3d4ch1lgee6br4fbddt6blfqyd2g9v,2N43SgSP,2020-0188,2020-11-16,20:11:36,20:32:50,NA,incomplete,99,number,1,1,right,Blue_Circle_Dots_1.jpg,Blue_Triangle_Stripes_3.jpg,Green_Star_Chess_1.jpg,right,1151,true,high,NA,NA,NA,NA,NA,NA,NA,false
2N43SgSP,3oplmf3ev80afezcyc4phujqmmslnu,3d4ch1lgee6br4fbddt6blfqyd2g9v,2N43SgSP,2020-0188,2020-11-16,20:11:36,20:32:50,NA,incomplete,100,color,0,1,left,Red_Star_Stripes_1.jpg,Red_Triangle_Chess_2.jpg,Green_Circle_Grid_1.jpg,right,697,false,high,NA,NA,NA,NA,NA,NA,NA,false
2N43SgSP,3oplmf3ev80afezcyc4phujqmmslnu,3d4ch1lgee6br4fbddt6blfqyd2g9v,2N43SgSP,2020-0188,2020-11-16,20:11:36,20:32:50,NA,incomplete,101,color,0,1,left,Green_Triangle_Grid_4.jpg,Green_Plus_Stripes_2.jpg,Red_Circle_Chess_4.jpg,right,1246,false,high,NA,NA,NA,NA,NA,NA,NA,false
2N43SgSP,3oplmf3ev80afezcyc4phujqmmslnu,3d4ch1lgee6br4fbddt6blfqyd2g9v,2N43SgSP,2020-0188,2020-11-16,20:11:36,20:32:50,NA,incomplete,102,color,0,0,left,Purple_Plus_Dots_1.jpg,Purple_Star_Grid_3.jpg,Blue_Triangle_Stripes_1.jpg,right,785,false,high,NA,NA,NA,NA,NA,NA,NA,false
2N43SgSP,3oplmf3ev80afezcyc4phujqmmslnu,3d4ch1lgee6br4fbddt6blfqyd2g9v,2N43SgSP,2020-0188,2020-11-16,20:11:36,20:32:50,NA,incomplete,103,color,0,0,right,Purple_Star_Grid_2.jpg,Red_Triangle_Dots_2.jpg,Purple_Plus_Stripes_4.jpg,left,1184,false,high,NA,NA,NA,NA,NA,NA,NA,false
2N43SgSP,3oplmf3ev80afezcyc4phujqmmslnu,3d4ch1lgee6br4fbddt6blfqyd2g9v,2N43SgSP,2020-0188,2020-11-16,20:11:36,20:32:50,NA,incomplete,104,color,0,1,left,Green_Star_Dots_1.jpg,Green_Triangle_Grid_2.jpg,Blue_Plus_Chess_1.jpg,right,862,false,high,NA,NA,NA,NA,NA,NA,NA,false
2N43SgSP,3oplmf3ev80afezcyc4phujqmmslnu,3d4ch1lgee6br4fbddt6blfqyd2g9v,2N43SgSP,2020-0188,2020-11-16,20:11:36,20:32:50,NA,incomplete,105,color,0,0,left,Purple_Circle_Stripes_2.jpg,Purple_Star_Grid_1.jpg,Red_Triangle_Chess_2.jpg,right,692,false,high,NA,NA,NA,NA,NA,NA,NA,false
2N43SgSP,3oplmf3ev80afezcyc4phujqmmslnu,3d4ch1lgee6br4fbddt6blfqyd2g9v,2N43SgSP,2020-0188,2020-11-16,20:11:36,20:32:50,NA,incomplete,106,color,0,0,left,Green_Circle_Grid_4.jpg,Green_Plus_Chess_1.jpg,Blue_Star_Dots_4.jpg,right,716,false,high,NA,NA,NA,NA,NA,NA,NA,false
2N43SgSP,3oplmf3ev80afezcyc4phujqmmslnu,3d4ch1lgee6br4fbddt6blfqyd2g9v,2N43SgSP,2020-0188,2020-11-16,20:11:36,20:32:50,NA,incomplete,107,color,0,1,left,Blue_Triangle_Chess_1.jpg,Blue_Circle_Stripes_3.jpg,Red_Plus_Dots_1.jpg,right,670,false,high,NA,NA,NA,NA,NA,NA,NA,false
2N43SgSP,3oplmf3ev80afezcyc4phujqmmslnu,3d4ch1lgee6br4fbddt6blfqyd2g9v,2N43SgSP,2020-0188,2020-11-16,20:11:36,20:32:50,NA,incomplete,108,color,0,1,right,Blue_Triangle_Chess_4.jpg,Green_Circle_Grid_4.jpg,Blue_Star_Dots_1.jpg,left,721,false,high,NA,NA,NA,NA,NA,NA,NA,false
2N43SgSP,3oplmf3ev80afezcyc4phujqmmslnu,3d4ch1lgee6br4fbddt6blfqyd2g9v,2N43SgSP,2020-0188,2020-11-16,20:11:36,20:32:50,NA,incomplete,109,color,0,1,left,Green_Plus_Grid_1.jpg,Green_Star_Stripes_4.jpg,Purple_Triangle_Dots_1.jpg,right,670,false,high,NA,NA,NA,NA,NA,NA,NA,false
2N43SgSP,3oplmf3ev80afezcyc4phujqmmslnu,3d4ch1lgee6br4fbddt6blfqyd2g9v,2N43SgSP,2020-0188,2020-11-16,20:11:36,20:32:50,NA,incomplete,110,number,1,1,right,Red_Circle_Stripes_3.jpg,Red_Star_Grid_2.jpg,Blue_Plus_Dots_3.jpg,right,639,true,high,NA,NA,NA,NA,NA,NA,NA,false
2N43SgSP,3oplmf3ev80afezcyc4phujqmmslnu,3d4ch1lgee6br4fbddt6blfqyd2g9v,2N43SgSP,2020-0188,2020-11-16,20:11:36,20:32:50,NA,incomplete,111,number,1,1,left,Blue_Plus_Dots_3.jpg,Red_Circle_Grid_3.jpg,Blue_Star_Stripes_2.jpg,left,708,true,high,NA,NA,NA,NA,NA,NA,NA,false
2N43SgSP,3oplmf3ev80afezcyc4phujqmmslnu,3d4ch1lgee6br4fbddt6blfqyd2g9v,2N43SgSP,2020-0188,2020-11-16,20:11:36,20:32:50,NA,incomplete,112,number,1,1,right,Blue_Circle_Chess_3.jpg,Blue_Triangle_Grid_4.jpg,Red_Plus_Dots_3.jpg,right,673,true,high,NA,NA,NA,NA,NA,NA,NA,false
2N43SgSP,3oplmf3ev80afezcyc4phujqmmslnu,3d4ch1lgee6br4fbddt6blfqyd2g9v,2N43SgSP,2020-0188,2020-11-16,20:11:36,20:32:50,NA,incomplete,113,number,1,1,left,Purple_Star_Stripes_1.jpg,Blue_Plus_Chess_1.jpg,Purple_Triangle_Dots_3.jpg,right,610,false,high,NA,NA,NA,NA,NA,NA,NA,false
2N43SgSP,3oplmf3ev80afezcyc4phujqmmslnu,3d4ch1lgee6br4fbddt6blfqyd2g9v,2N43SgSP,2020-0188,2020-11-16,20:11:36,20:32:50,NA,incomplete,114,number,1,1,left,Blue_Star_Grid_3.jpg,Purple_Plus_Chess_3.jpg,Blue_Circle_Dots_1.jpg,left,569,true,high,NA,NA,NA,NA,NA,NA,NA,false
2N43SgSP,3oplmf3ev80afezcyc4phujqmmslnu,3d4ch1lgee6br4fbddt6blfqyd2g9v,2N43SgSP,2020-0188,2020-11-16,20:11:36,20:32:50,NA,incomplete,115,number,1,1,right,Blue_Circle_Stripes_2.jpg,Blue_Star_Chess_1.jpg,Red_Triangle_Dots_2.jpg,right,781,true,high,NA,NA,NA,NA,NA,NA,NA,false
2N43SgSP,3oplmf3ev80afezcyc4phujqmmslnu,3d4ch1lgee6br4fbddt6blfqyd2g9v,2N43SgSP,2020-0188,2020-11-16,20:11:36,20:32:50,NA,incomplete,116,number,1,1,right,Blue_Circle_Chess_3.jpg,Blue_Triangle_Grid_1.jpg,Purple_Plus_Dots_3.jpg,right,651,true,high,NA,NA,NA,NA,NA,NA,NA,false
2N43SgSP,3oplmf3ev80afezcyc4phujqmmslnu,3d4ch1lgee6br4fbddt6blfqyd2g9v,2N43SgSP,2020-0188,2020-11-16,20:11:36,20:32:50,NA,incomplete,117,number,1,1,left,Green_Triangle_Grid_3.jpg,Purple_Plus_Chess_3.jpg,Green_Star_Dots_2.jpg,left,644,true,high,NA,NA,NA,NA,NA,NA,NA,false
2N43SgSP,3oplmf3ev80afezcyc4phujqmmslnu,3d4ch1lgee6br4fbddt6blfqyd2g9v,2N43SgSP,2020-0188,2020-11-16,20:11:36,20:32:50,NA,incomplete,118,number,1,1,left,Purple_Plus_Grid_2.jpg,Blue_Circle_Stripes_2.jpg,Purple_Triangle_Dots_3.jpg,left,928,true,high,NA,NA,NA,NA,NA,NA,NA,false
2N43SgSP,3oplmf3ev80afezcyc4phujqmmslnu,3d4ch1lgee6br4fbddt6blfqyd2g9v,2N43SgSP,2020-0188,2020-11-16,20:11:36,20:32:50,NA,incomplete,119,number,1,1,right,Blue_Plus_Grid_1.jpg,Blue_Star_Chess_2.jpg,Green_Circle_Stripes_1.jpg,right,1204,true,high,NA,NA,NA,NA,NA,NA,NA,false
2N43SgSP,3oplmf3ev80afezcyc4phujqmmslnu,3d4ch1lgee6br4fbddt6blfqyd2g9v,2N43SgSP,2020-0188,2020-11-16,20:11:36,20:32:50,NA,incomplete,120,gender,2,1,left,C_F_04.jpg,A_F_06.jpg,C_M_11.jpg,NA,NA,NA,high,NA,NA,NA,NA,NA,NA,NA,false
2N43SgSP,3oplmf3ev80afezcyc4phujqmmslnu,3d4ch1lgee6br4fbddt6blfqyd2g9v,2N43SgSP,2020-0188,2020-11-16,20:11:36,20:32:50,NA,incomplete,121,gender,2,1,left,C_M_12.jpg,A_M_02.jpg,C_F_05.jpg,left,1292,true,high,NA,NA,NA,NA,NA,NA,NA,false
2N43SgSP,3oplmf3ev80afezcyc4phujqmmslnu,3d4ch1lgee6br4fbddt6blfqyd2g9v,2N43SgSP,2020-0188,2020-11-16,20:11:36,20:32:50,NA,incomplete,122,gender,2,1,right,C_M_16.jpg,C_F_15.jpg,A_M_06.jpg,right,589,true,high,NA,NA,NA,NA,NA,NA,NA,false
2N43SgSP,3oplmf3ev80afezcyc4phujqmmslnu,3d4ch1lgee6br4fbddt6blfqyd2g9v,2N43SgSP,2020-0188,2020-11-16,20:11:36,20:32:50,NA,incomplete,123,gender,2,1,left,C_M_11.jpg,A_M_14.jpg,C_F_04.jpg,left,682,true,high,NA,NA,NA,NA,NA,NA,NA,false
2N43SgSP,3oplmf3ev80afezcyc4phujqmmslnu,3d4ch1lgee6br4fbddt6blfqyd2g9v,2N43SgSP,2020-0188,2020-11-16,20:11:36,20:32:50,NA,incomplete,124,gender,2,1,left,C_F_16.jpg,A_F_07.jpg,C_M_15.jpg,left,719,true,high,NA,NA,NA,NA,NA,NA,NA,false
2N43SgSP,3oplmf3ev80afezcyc4phujqmmslnu,3d4ch1lgee6br4fbddt6blfqyd2g9v,2N43SgSP,2020-0188,2020-11-16,20:11:36,20:32:50,NA,incomplete,125,gender,2,1,right,A_M_01.jpg,A_F_14.jpg,C_M_04.jpg,right,712,true,high,NA,NA,NA,NA,NA,NA,NA,false
2N43SgSP,3oplmf3ev80afezcyc4phujqmmslnu,3d4ch1lgee6br4fbddt6blfqyd2g9v,2N43SgSP,2020-0188,2020-11-16,20:11:36,20:32:50,NA,incomplete,126,gender,2,1,right,A_F_16.jpg,A_M_09.jpg,C_F_02.jpg,right,763,true,high,NA,NA,NA,NA,NA,NA,NA,false
2N43SgSP,3oplmf3ev80afezcyc4phujqmmslnu,3d4ch1lgee6br4fbddt6blfqyd2g9v,2N43SgSP,2020-0188,2020-11-16,20:11:36,20:32:50,NA,incomplete,127,gender,2,1,left,C_F_16.jpg,A_F_02.jpg,C_M_01.jpg,left,896,true,high,NA,NA,NA,NA,NA,NA,NA,false
2N43SgSP,3oplmf3ev80afezcyc4phujqmmslnu,3d4ch1lgee6br4fbddt6blfqyd2g9v,2N43SgSP,2020-0188,2020-11-16,20:11:36,20:32:50,NA,incomplete,128,gender,2,0,right,C_M_07.jpg,C_F_04.jpg,A_M_16.jpg,right,799,true,high,NA,NA,NA,NA,NA,NA,NA,false
2N43SgSP,3oplmf3ev80afezcyc4phujqmmslnu,3d4ch1lgee6br4fbddt6blfqyd2g9v,2N43SgSP,2020-0188,2020-11-16,20:11:36,20:32:50,NA,incomplete,129,gender,2,1,left,C_F_10.jpg,A_F_03.jpg,C_M_06.jpg,left,727,true,high,NA,NA,NA,NA,NA,NA,NA,false
2N43SgSP,3oplmf3ev80afezcyc4phujqmmslnu,3d4ch1lgee6br4fbddt6blfqyd2g9v,2N43SgSP,2020-0188,2020-11-16,20:11:36,20:32:50,NA,incomplete,130,gender,2,1,right,C_M_05.jpg,C_F_11.jpg,A_M_12.jpg,right,755,true,high,NA,NA,NA,NA,NA,NA,NA,false
2N43SgSP,3oplmf3ev80afezcyc4phujqmmslnu,3d4ch1lgee6br4fbddt6blfqyd2g9v,2N43SgSP,2020-0188,2020-11-16,20:11:36,20:32:50,NA,incomplete,131,gender,2,1,left,A_F_03.jpg,C_F_01.jpg,A_M_13.jpg,left,851,true,high,NA,NA,NA,NA,NA,NA,NA,false
2N43SgSP,3oplmf3ev80afezcyc4phujqmmslnu,3d4ch1lgee6br4fbddt6blfqyd2g9v,2N43SgSP,2020-0188,2020-11-16,20:11:36,20:32:50,NA,incomplete,132,gender,2,0,left,C_F_09.jpg,A_F_07.jpg,C_M_13.jpg,right,787,false,high,NA,NA,NA,NA,NA,NA,NA,false
2N43SgSP,3oplmf3ev80afezcyc4phujqmmslnu,3d4ch1lgee6br4fbddt6blfqyd2g9v,2N43SgSP,2020-0188,2020-11-16,20:11:36,20:32:50,NA,incomplete,133,gender,2,1,right,A_M_06.jpg,A_F_05.jpg,C_M_10.jpg,right,880,true,high,NA,NA,NA,NA,NA,NA,NA,false
2N43SgSP,3oplmf3ev80afezcyc4phujqmmslnu,3d4ch1lgee6br4fbddt6blfqyd2g9v,2N43SgSP,2020-0188,2020-11-16,20:11:36,20:32:50,NA,incomplete,134,gender,2,1,right,A_F_05.jpg,A_M_04.jpg,C_F_13.jpg,right,757,true,high,NA,NA,NA,NA,NA,NA,NA,false
2N43SgSP,3oplmf3ev80afezcyc4phujqmmslnu,3d4ch1lgee6br4fbddt6blfqyd2g9v,2N43SgSP,2020-0188,2020-11-16,20:11:36,20:32:50,NA,incomplete,135,gender,2,0,left,C_M_05.jpg,A_M_04.jpg,C_F_12.jpg,left,1088,true,high,NA,NA,NA,NA,NA,NA,NA,false
2N43SgSP,3oplmf3ev80afezcyc4phujqmmslnu,3d4ch1lgee6br4fbddt6blfqyd2g9v,2N43SgSP,2020-0188,2020-11-16,20:11:36,20:32:50,NA,incomplete,136,gender,2,1,right,C_M_08.jpg,C_F_01.jpg,A_M_02.jpg,right,1017,true,high,NA,NA,NA,NA,NA,NA,NA,false
2N43SgSP,3oplmf3ev80afezcyc4phujqmmslnu,3d4ch1lgee6br4fbddt6blfqyd2g9v,2N43SgSP,2020-0188,2020-11-16,20:11:36,20:32:50,NA,incomplete,137,gender,2,1,left,C_F_04.jpg,A_F_16.jpg,C_M_02.jpg,left,819,true,high,NA,NA,NA,NA,NA,NA,NA,false
2N43SgSP,3oplmf3ev80afezcyc4phujqmmslnu,3d4ch1lgee6br4fbddt6blfqyd2g9v,2N43SgSP,2020-0188,2020-11-16,20:11:36,20:32:50,NA,incomplete,138,gender,2,0,left,A_M_09.jpg,C_M_11.jpg,A_F_03.jpg,left,722,true,high,NA,NA,NA,NA,NA,NA,NA,false
2N43SgSP,3oplmf3ev80afezcyc4phujqmmslnu,3d4ch1lgee6br4fbddt6blfqyd2g9v,2N43SgSP,2020-0188,2020-11-16,20:11:36,20:32:50,NA,incomplete,139,gender,2,1,right,C_M_04.jpg,C_F_07.jpg,A_M_06.jpg,right,793,true,high,NA,NA,NA,NA,NA,NA,NA,false
2N43SgSP,3oplmf3ev80afezcyc4phujqmmslnu,3d4ch1lgee6br4fbddt6blfqyd2g9v,2N43SgSP,2020-0188,2020-11-16,20:11:36,20:32:50,NA,incomplete,140,race,3,0,left,C_F_02.jpg,C_M_14.jpg,A_F_08.jpg,right,788,false,high,NA,NA,NA,NA,NA,NA,NA,false
2N43SgSP,3oplmf3ev80afezcyc4phujqmmslnu,3d4ch1lgee6br4fbddt6blfqyd2g9v,2N43SgSP,2020-0188,2020-11-16,20:11:36,20:32:50,NA,incomplete,141,race,3,1,left,C_F_10.jpg,C_M_15.jpg,A_F_16.jpg,right,751,false,high,NA,NA,NA,NA,NA,NA,NA,false
2N43SgSP,3oplmf3ev80afezcyc4phujqmmslnu,3d4ch1lgee6br4fbddt6blfqyd2g9v,2N43SgSP,2020-0188,2020-11-16,20:11:36,20:32:50,NA,incomplete,142,race,3,1,left,C_M_10.jpg,C_F_04.jpg,A_M_01.jpg,right,696,false,high,NA,NA,NA,NA,NA,NA,NA,false
2N43SgSP,3oplmf3ev80afezcyc4phujqmmslnu,3d4ch1lgee6br4fbddt6blfqyd2g9v,2N43SgSP,2020-0188,2020-11-16,20:11:36,20:32:50,NA,incomplete,143,race,3,0,right,A_F_03.jpg,C_F_09.jpg,A_M_05.jpg,left,1190,false,high,NA,NA,NA,NA,NA,NA,NA,false
2N43SgSP,3oplmf3ev80afezcyc4phujqmmslnu,3d4ch1lgee6br4fbddt6blfqyd2g9v,2N43SgSP,2020-0188,2020-11-16,20:11:36,20:32:50,NA,incomplete,144,race,3,1,left,A_F_11.jpg,A_M_09.jpg,C_F_16.jpg,right,826,false,high,NA,NA,NA,NA,NA,NA,NA,false
2N43SgSP,3oplmf3ev80afezcyc4phujqmmslnu,3d4ch1lgee6br4fbddt6blfqyd2g9v,2N43SgSP,2020-0188,2020-11-16,20:11:36,20:32:50,NA,incomplete,145,race,3,1,left,A_M_04.jpg,A_F_11.jpg,C_M_10.jpg,right,757,false,high,NA,NA,NA,NA,NA,NA,NA,false
2N43SgSP,3oplmf3ev80afezcyc4phujqmmslnu,3d4ch1lgee6br4fbddt6blfqyd2g9v,2N43SgSP,2020-0188,2020-11-16,20:11:36,20:32:50,NA,incomplete,146,race,3,1,left,A_M_06.jpg,A_F_03.jpg,C_M_13.jpg,left,1139,true,high,NA,NA,NA,NA,NA,NA,NA,false
2N43SgSP,3oplmf3ev80afezcyc4phujqmmslnu,3d4ch1lgee6br4fbddt6blfqyd2g9v,2N43SgSP,2020-0188,2020-11-16,20:11:36,20:32:50,NA,incomplete,147,race,3,1,right,C_F_09.jpg,A_F_14.jpg,C_M_07.jpg,right,885,true,high,NA,NA,NA,NA,NA,NA,NA,false
2N43SgSP,3oplmf3ev80afezcyc4phujqmmslnu,3d4ch1lgee6br4fbddt6blfqyd2g9v,2N43SgSP,2020-0188,2020-11-16,20:11:36,20:32:50,NA,incomplete,148,race,3,1,right,C_F_11.jpg,A_F_13.jpg,C_M_10.jpg,right,1325,true,high,NA,NA,NA,NA,NA,NA,NA,false
2N43SgSP,3oplmf3ev80afezcyc4phujqmmslnu,3d4ch1lgee6br4fbddt6blfqyd2g9v,2N43SgSP,2020-0188,2020-11-16,20:11:36,20:32:50,NA,incomplete,149,race,3,1,left,C_M_10.jpg,C_F_14.jpg,A_M_11.jpg,left,993,true,high,NA,NA,NA,NA,NA,NA,NA,false
2N43SgSP,3oplmf3ev80afezcyc4phujqmmslnu,3d4ch1lgee6br4fbddt6blfqyd2g9v,2N43SgSP,2020-0188,2020-11-16,20:11:36,20:32:50,NA,incomplete,150,race,3,0,right,C_F_11.jpg,A_F_09.jpg,C_M_15.jpg,right,1041,true,high,NA,NA,NA,NA,NA,NA,NA,false
2N43SgSP,3oplmf3ev80afezcyc4phujqmmslnu,3d4ch1lgee6br4fbddt6blfqyd2g9v,2N43SgSP,2020-0188,2020-11-16,20:11:36,20:32:50,NA,incomplete,151,race,3,1,right,C_M_09.jpg,A_M_13.jpg,C_F_14.jpg,right,1033,true,high,NA,NA,NA,NA,NA,NA,NA,false
2N43SgSP,3oplmf3ev80afezcyc4phujqmmslnu,3d4ch1lgee6br4fbddt6blfqyd2g9v,2N43SgSP,2020-0188,2020-11-16,20:11:36,20:32:50,NA,incomplete,152,race,3,0,left,C_F_03.jpg,C_M_05.jpg,A_F_06.jpg,left,987,true,high,NA,NA,NA,NA,NA,NA,NA,false
2N43SgSP,3oplmf3ev80afezcyc4phujqmmslnu,3d4ch1lgee6br4fbddt6blfqyd2g9v,2N43SgSP,2020-0188,2020-11-16,20:11:36,20:32:50,NA,incomplete,153,race,3,1,right,A_F_13.jpg,C_F_03.jpg,A_M_04.jpg,right,803,true,high,NA,NA,NA,NA,NA,NA,NA,false
2N43SgSP,3oplmf3ev80afezcyc4phujqmmslnu,3d4ch1lgee6br4fbddt6blfqyd2g9v,2N43SgSP,2020-0188,2020-11-16,20:11:36,20:32:50,NA,incomplete,154,race,3,1,left,C_F_15.jpg,C_M_02.jpg,A_F_01.jpg,right,878,false,high,NA,NA,NA,NA,NA,NA,NA,false
2N43SgSP,3oplmf3ev80afezcyc4phujqmmslnu,3d4ch1lgee6br4fbddt6blfqyd2g9v,2N43SgSP,2020-0188,2020-11-16,20:11:36,20:32:50,NA,incomplete,155,race,3,1,left,C_F_12.jpg,C_M_05.jpg,A_F_09.jpg,left,926,true,high,NA,NA,NA,NA,NA,NA,NA,false
2N43SgSP,3oplmf3ev80afezcyc4phujqmmslnu,3d4ch1lgee6br4fbddt6blfqyd2g9v,2N43SgSP,2020-0188,2020-11-16,20:11:36,20:32:50,NA,incomplete,156,race,3,1,left,C_M_03.jpg,C_F_10.jpg,A_M_13.jpg,left,963,true,high,NA,NA,NA,NA,NA,NA,NA,false
2N43SgSP,3oplmf3ev80afezcyc4phujqmmslnu,3d4ch1lgee6br4fbddt6blfqyd2g9v,2N43SgSP,2020-0188,2020-11-16,20:11:36,20:32:50,NA,incomplete,157,race,3,1,left,A_F_14.jpg,A_M_15.jpg,C_F_06.jpg,right,1143,false,high,NA,NA,NA,NA,NA,NA,NA,false
2N43SgSP,3oplmf3ev80afezcyc4phujqmmslnu,3d4ch1lgee6br4fbddt6blfqyd2g9v,2N43SgSP,2020-0188,2020-11-16,20:11:36,20:32:50,NA,incomplete,158,race,3,0,left,C_M_11.jpg,C_F_02.jpg,A_M_13.jpg,left,932,true,high,NA,NA,NA,NA,NA,NA,NA,false
2N43SgSP,3oplmf3ev80afezcyc4phujqmmslnu,3d4ch1lgee6br4fbddt6blfqyd2g9v,2N43SgSP,2020-0188,2020-11-16,20:11:36,20:32:50,NA,incomplete,159,race,3,1,left,A_M_06.jpg,A_F_09.jpg,C_M_04.jpg,right,1220,false,high,NA,NA,NA,NA,NA,NA,NA,false
2N43SgSP,3oplmf3ev80afezcyc4phujqmmslnu,3d4ch1lgee6br4fbddt6blfqyd2g9v,2N43SgSP,2020-0188,2020-11-16,20:11:36,20:32:50,NA,incomplete,160,gender,2,1,left,A_F_13.jpg,C_F_03.jpg,A_M_12.jpg,right,1069,false,high,NA,NA,NA,NA,NA,NA,NA,false
2N43SgSP,3oplmf3ev80afezcyc4phujqmmslnu,3d4ch1lgee6br4fbddt6blfqyd2g9v,2N43SgSP,2020-0188,2020-11-16,20:11:36,20:32:50,NA,incomplete,161,gender,2,1,left,C_M_05.jpg,A_M_14.jpg,C_F_08.jpg,right,899,false,high,NA,NA,NA,NA,NA,NA,NA,false
2N43SgSP,3oplmf3ev80afezcyc4phujqmmslnu,3d4ch1lgee6br4fbddt6blfqyd2g9v,2N43SgSP,2020-0188,2020-11-16,20:11:36,20:32:50,NA,incomplete,162,gender,2,1,right,A_M_08.jpg,A_F_07.jpg,C_M_16.jpg,right,752,true,high,NA,NA,NA,NA,NA,NA,NA,false
2N43SgSP,3oplmf3ev80afezcyc4phujqmmslnu,3d4ch1lgee6br4fbddt6blfqyd2g9v,2N43SgSP,2020-0188,2020-11-16,20:11:36,20:32:50,NA,incomplete,163,gender,2,1,right,A_M_06.jpg,A_F_15.jpg,C_M_14.jpg,right,743,true,high,NA,NA,NA,NA,NA,NA,NA,false
2N43SgSP,3oplmf3ev80afezcyc4phujqmmslnu,3d4ch1lgee6br4fbddt6blfqyd2g9v,2N43SgSP,2020-0188,2020-11-16,20:11:36,20:32:50,NA,incomplete,164,gender,2,1,left,C_M_01.jpg,A_M_04.jpg,C_F_10.jpg,left,874,true,high,NA,NA,NA,NA,NA,NA,NA,false
2N43SgSP,3oplmf3ev80afezcyc4phujqmmslnu,3d4ch1lgee6br4fbddt6blfqyd2g9v,2N43SgSP,2020-0188,2020-11-16,20:11:36,20:32:50,NA,incomplete,165,gender,2,1,left,C_M_15.jpg,A_M_06.jpg,C_F_07.jpg,left,973,true,high,NA,NA,NA,NA,NA,NA,NA,false
2N43SgSP,3oplmf3ev80afezcyc4phujqmmslnu,3d4ch1lgee6br4fbddt6blfqyd2g9v,2N43SgSP,2020-0188,2020-11-16,20:11:36,20:32:50,NA,incomplete,166,gender,2,0,right,A_F_13.jpg,A_M_05.jpg,C_F_04.jpg,right,875,true,high,NA,NA,NA,NA,NA,NA,NA,false
2N43SgSP,3oplmf3ev80afezcyc4phujqmmslnu,3d4ch1lgee6br4fbddt6blfqyd2g9v,2N43SgSP,2020-0188,2020-11-16,20:11:36,20:32:50,NA,incomplete,167,gender,2,1,left,C_M_03.jpg,A_M_05.jpg,C_F_01.jpg,left,899,true,high,NA,NA,NA,NA,NA,NA,NA,false
2N43SgSP,3oplmf3ev80afezcyc4phujqmmslnu,3d4ch1lgee6br4fbddt6blfqyd2g9v,2N43SgSP,2020-0188,2020-11-16,20:11:36,20:32:50,NA,incomplete,168,gender,2,1,left,C_M_07.jpg,A_M_03.jpg,C_F_05.jpg,left,745,true,high,NA,NA,NA,NA,NA,NA,NA,false
2N43SgSP,3oplmf3ev80afezcyc4phujqmmslnu,3d4ch1lgee6br4fbddt6blfqyd2g9v,2N43SgSP,2020-0188,2020-11-16,20:11:36,20:32:50,NA,incomplete,169,gender,2,1,right,C_M_13.jpg,C_F_01.jpg,A_M_09.jpg,right,842,true,high,NA,NA,NA,NA,NA,NA,NA,false
2N43SgSP,3oplmf3ev80afezcyc4phujqmmslnu,3d4ch1lgee6br4fbddt6blfqyd2g9v,2N43SgSP,2020-0188,2020-11-16,20:11:36,20:32:50,NA,incomplete,170,gender,2,1,left,A_M_10.jpg,C_M_08.jpg,A_F_13.jpg,left,836,true,high,NA,NA,NA,NA,NA,NA,NA,false
2N43SgSP,3oplmf3ev80afezcyc4phujqmmslnu,3d4ch1lgee6br4fbddt6blfqyd2g9v,2N43SgSP,2020-0188,2020-11-16,20:11:36,20:32:50,NA,incomplete,171,gender,2,1,right,C_M_01.jpg,C_F_04.jpg,A_M_12.jpg,right,1014,true,high,NA,NA,NA,NA,NA,NA,NA,false
2N43SgSP,3oplmf3ev80afezcyc4phujqmmslnu,3d4ch1lgee6br4fbddt6blfqyd2g9v,2N43SgSP,2020-0188,2020-11-16,20:11:36,20:32:50,NA,incomplete,172,gender,2,1,left,A_F_13.jpg,C_F_15.jpg,A_M_01.jpg,left,840,true,high,NA,NA,NA,NA,NA,NA,NA,false
2N43SgSP,3oplmf3ev80afezcyc4phujqmmslnu,3d4ch1lgee6br4fbddt6blfqyd2g9v,2N43SgSP,2020-0188,2020-11-16,20:11:36,20:32:50,NA,incomplete,173,gender,2,1,right,A_F_04.jpg,A_M_10.jpg,C_F_12.jpg,right,748,true,high,NA,NA,NA,NA,NA,NA,NA,false
2N43SgSP,3oplmf3ev80afezcyc4phujqmmslnu,3d4ch1lgee6br4fbddt6blfqyd2g9v,2N43SgSP,2020-0188,2020-11-16,20:11:36,20:32:50,NA,incomplete,174,gender,2,1,right,C_M_09.jpg,C_F_08.jpg,A_M_16.jpg,right,956,true,high,NA,NA,NA,NA,NA,NA,NA,false
2N43SgSP,3oplmf3ev80afezcyc4phujqmmslnu,3d4ch1lgee6br4fbddt6blfqyd2g9v,2N43SgSP,2020-0188,2020-11-16,20:11:36,20:32:50,NA,incomplete,175,gender,2,1,left,A_F_12.jpg,C_F_16.jpg,A_M_09.jpg,right,1176,false,high,NA,NA,NA,NA,NA,NA,NA,false
2N43SgSP,3oplmf3ev80afezcyc4phujqmmslnu,3d4ch1lgee6br4fbddt6blfqyd2g9v,2N43SgSP,2020-0188,2020-11-16,20:11:36,20:32:50,NA,incomplete,176,gender,2,1,left,C_F_04.jpg,A_F_13.jpg,C_M_01.jpg,left,753,true,high,NA,NA,NA,NA,NA,NA,NA,false
2N43SgSP,3oplmf3ev80afezcyc4phujqmmslnu,3d4ch1lgee6br4fbddt6blfqyd2g9v,2N43SgSP,2020-0188,2020-11-16,20:11:36,20:32:50,NA,incomplete,177,gender,2,0,left,C_M_06.jpg,A_M_02.jpg,C_F_01.jpg,left,771,true,high,NA,NA,NA,NA,NA,NA,NA,false
2N43SgSP,3oplmf3ev80afezcyc4phujqmmslnu,3d4ch1lgee6br4fbddt6blfqyd2g9v,2N43SgSP,2020-0188,2020-11-16,20:11:36,20:32:50,NA,incomplete,178,gender,2,1,right,C_M_09.jpg,C_F_13.jpg,A_M_02.jpg,right,689,true,high,NA,NA,NA,NA,NA,NA,NA,false
2N43SgSP,3oplmf3ev80afezcyc4phujqmmslnu,3d4ch1lgee6br4fbddt6blfqyd2g9v,2N43SgSP,2020-0188,2020-11-16,20:11:36,20:32:50,NA,incomplete,179,gender,2,1,left,A_M_13.jpg,C_M_01.jpg,A_F_02.jpg,left,732,true,high,NA,NA,NA,NA,NA,NA,NA,false
2N43SgSP,3oplmf3ev80afezcyc4phujqmmslnu,3d4ch1lgee6br4fbddt6blfqyd2g9v,2N43SgSP,2020-0188,2020-11-16,20:11:36,20:32:50,NA,incomplete,180,race,3,0,left,A_M_08.jpg,A_F_04.jpg,C_M_10.jpg,right,747,false,high,NA,NA,NA,NA,NA,NA,NA,false
2N43SgSP,3oplmf3ev80afezcyc4phujqmmslnu,3d4ch1lgee6br4fbddt6blfqyd2g9v,2N43SgSP,2020-0188,2020-11-16,20:11:36,20:32:50,NA,incomplete,181,race,3,1,left,C_M_13.jpg,C_F_16.jpg,A_M_06.jpg,right,705,false,high,NA,NA,NA,NA,NA,NA,NA,false
2N43SgSP,3oplmf3ev80afezcyc4phujqmmslnu,3d4ch1lgee6br4fbddt6blfqyd2g9v,2N43SgSP,2020-0188,2020-11-16,20:11:36,20:32:50,NA,incomplete,182,race,3,0,left,A_F_16.jpg,A_M_06.jpg,C_F_08.jpg,left,1161,true,high,NA,NA,NA,NA,NA,NA,NA,false
2N43SgSP,3oplmf3ev80afezcyc4phujqmmslnu,3d4ch1lgee6br4fbddt6blfqyd2g9v,2N43SgSP,2020-0188,2020-11-16,20:11:36,20:32:50,NA,incomplete,183,race,3,1,left,A_F_13.jpg,A_M_10.jpg,C_F_02.jpg,right,736,false,high,NA,NA,NA,NA,NA,NA,NA,false
2N43SgSP,3oplmf3ev80afezcyc4phujqmmslnu,3d4ch1lgee6br4fbddt6blfqyd2g9v,2N43SgSP,2020-0188,2020-11-16,20:11:36,20:32:50,NA,incomplete,184,race,3,1,left,A_F_02.jpg,A_M_06.jpg,C_F_07.jpg,right,590,false,high,NA,NA,NA,NA,NA,NA,NA,false
2N43SgSP,3oplmf3ev80afezcyc4phujqmmslnu,3d4ch1lgee6br4fbddt6blfqyd2g9v,2N43SgSP,2020-0188,2020-11-16,20:11:36,20:32:50,NA,incomplete,185,race,3,1,right,A_F_13.jpg,C_F_10.jpg,A_M_08.jpg,right,666,true,high,NA,NA,NA,NA,NA,NA,NA,false
2N43SgSP,3oplmf3ev80afezcyc4phujqmmslnu,3d4ch1lgee6br4fbddt6blfqyd2g9v,2N43SgSP,2020-0188,2020-11-16,20:11:36,20:32:50,NA,incomplete,186,race,3,1,left,C_F_04.jpg,C_M_16.jpg,A_F_10.jpg,left,916,true,high,NA,NA,NA,NA,NA,NA,NA,false
2N43SgSP,3oplmf3ev80afezcyc4phujqmmslnu,3d4ch1lgee6br4fbddt6blfqyd2g9v,2N43SgSP,2020-0188,2020-11-16,20:11:36,20:32:50,NA,incomplete,187,race,3,1,left,A_F_03.jpg,A_M_12.jpg,C_F_06.jpg,left,1068,true,high,NA,NA,NA,NA,NA,NA,NA,false
2N43SgSP,3oplmf3ev80afezcyc4phujqmmslnu,3d4ch1lgee6br4fbddt6blfqyd2g9v,2N43SgSP,2020-0188,2020-11-16,20:11:36,20:32:50,NA,incomplete,188,race,3,0,right,C_F_14.jpg,A_F_08.jpg,C_M_15.jpg,left,911,false,high,NA,NA,NA,NA,NA,NA,NA,false
2N43SgSP,3oplmf3ev80afezcyc4phujqmmslnu,3d4ch1lgee6br4fbddt6blfqyd2g9v,2N43SgSP,2020-0188,2020-11-16,20:11:36,20:32:50,NA,incomplete,189,race,3,1,left,A_M_16.jpg,A_F_04.jpg,C_M_02.jpg,left,1243,true,high,NA,NA,NA,NA,NA,NA,NA,false
2N43SgSP,3oplmf3ev80afezcyc4phujqmmslnu,3d4ch1lgee6br4fbddt6blfqyd2g9v,2N43SgSP,2020-0188,2020-11-16,20:11:36,20:32:50,NA,incomplete,190,race,3,1,right,A_F_08.jpg,C_F_14.jpg,A_M_09.jpg,right,1024,true,high,NA,NA,NA,NA,NA,NA,NA,false
2N43SgSP,3oplmf3ev80afezcyc4phujqmmslnu,3d4ch1lgee6br4fbddt6blfqyd2g9v,2N43SgSP,2020-0188,2020-11-16,20:11:36,20:32:50,NA,incomplete,191,race,3,1,left,C_M_06.jpg,C_F_13.jpg,A_M_14.jpg,right,1097,false,high,NA,NA,NA,NA,NA,NA,NA,false
2N43SgSP,3oplmf3ev80afezcyc4phujqmmslnu,3d4ch1lgee6br4fbddt6blfqyd2g9v,2N43SgSP,2020-0188,2020-11-16,20:11:36,20:32:50,NA,incomplete,192,race,3,1,right,A_M_01.jpg,C_M_11.jpg,A_F_12.jpg,right,849,true,high,NA,NA,NA,NA,NA,NA,NA,false
2N43SgSP,3oplmf3ev80afezcyc4phujqmmslnu,3d4ch1lgee6br4fbddt6blfqyd2g9v,2N43SgSP,2020-0188,2020-11-16,20:11:36,20:32:50,NA,incomplete,193,race,3,0,right,C_F_05.jpg,A_F_14.jpg,C_M_07.jpg,left,1238,false,high,NA,NA,NA,NA,NA,NA,NA,false
2N43SgSP,3oplmf3ev80afezcyc4phujqmmslnu,3d4ch1lgee6br4fbddt6blfqyd2g9v,2N43SgSP,2020-0188,2020-11-16,20:11:36,20:32:50,NA,incomplete,194,race,3,1,left,C_M_11.jpg,C_F_06.jpg,A_M_13.jpg,right,1161,false,high,NA,NA,NA,NA,NA,NA,NA,false
2N43SgSP,3oplmf3ev80afezcyc4phujqmmslnu,3d4ch1lgee6br4fbddt6blfqyd2g9v,2N43SgSP,2020-0188,2020-11-16,20:11:36,20:32:50,NA,incomplete,195,race,3,1,left,A_F_01.jpg,A_M_12.jpg,C_F_06.jpg,left,976,true,high,NA,NA,NA,NA,NA,NA,NA,false
2N43SgSP,3oplmf3ev80afezcyc4phujqmmslnu,3d4ch1lgee6br4fbddt6blfqyd2g9v,2N43SgSP,2020-0188,2020-11-16,20:11:36,20:32:50,NA,incomplete,196,race,3,1,right,A_F_09.jpg,C_F_01.jpg,A_M_12.jpg,left,963,false,high,NA,NA,NA,NA,NA,NA,NA,false
2N43SgSP,3oplmf3ev80afezcyc4phujqmmslnu,3d4ch1lgee6br4fbddt6blfqyd2g9v,2N43SgSP,2020-0188,2020-11-16,20:11:36,20:32:50,NA,incomplete,197,race,3,0,left,C_M_15.jpg,C_F_11.jpg,A_M_10.jpg,left,960,true,high,NA,NA,NA,NA,NA,NA,NA,false
2N43SgSP,3oplmf3ev80afezcyc4phujqmmslnu,3d4ch1lgee6br4fbddt6blfqyd2g9v,2N43SgSP,2020-0188,2020-11-16,20:11:36,20:32:50,NA,incomplete,198,race,3,1,left,A_F_11.jpg,A_M_03.jpg,C_F_15.jpg,left,934,true,high,NA,NA,NA,NA,NA,NA,NA,false
2N43SgSP,3oplmf3ev80afezcyc4phujqmmslnu,3d4ch1lgee6br4fbddt6blfqyd2g9v,2N43SgSP,2020-0188,2020-11-16,20:11:36,20:32:50,NA,incomplete,199,race,3,1,left,A_M_14.jpg,A_F_13.jpg,C_M_12.jpg,left,740,true,high,NA,NA,NA,NA,NA,NA,NA,false
2N43SgSP,3oplmf3ev80afezcyc4phujqmmslnu,3d4ch1lgee6br4fbddt6blfqyd2g9v,2N43SgSP,2020-0188,2020-11-16,20:11:36,20:32:50,NA,incomplete,200,gender,2,0,left,C_F_07.jpg,A_F_05.jpg,C_M_02.jpg,right,1330,false,high,NA,NA,NA,NA,NA,NA,NA,false
2N43SgSP,3oplmf3ev80afezcyc4phujqmmslnu,3d4ch1lgee6br4fbddt6blfqyd2g9v,2N43SgSP,2020-0188,2020-11-16,20:11:36,20:32:50,NA,incomplete,201,gender,2,1,right,C_F_11.jpg,C_M_13.jpg,A_F_09.jpg,left,1402,false,high,NA,NA,NA,NA,NA,NA,NA,false
2N43SgSP,3oplmf3ev80afezcyc4phujqmmslnu,3d4ch1lgee6br4fbddt6blfqyd2g9v,2N43SgSP,2020-0188,2020-11-16,20:11:36,20:32:50,NA,incomplete,202,gender,2,1,right,A_M_11.jpg,A_F_02.jpg,C_M_08.jpg,left,889,false,high,NA,NA,NA,NA,NA,NA,NA,false
2N43SgSP,3oplmf3ev80afezcyc4phujqmmslnu,3d4ch1lgee6br4fbddt6blfqyd2g9v,2N43SgSP,2020-0188,2020-11-16,20:11:36,20:32:50,NA,incomplete,203,gender,2,1,right,A_M_02.jpg,A_F_12.jpg,C_M_05.jpg,right,814,true,high,NA,NA,NA,NA,NA,NA,NA,false
2N43SgSP,3oplmf3ev80afezcyc4phujqmmslnu,3d4ch1lgee6br4fbddt6blfqyd2g9v,2N43SgSP,2020-0188,2020-11-16,20:11:36,20:32:50,NA,incomplete,204,gender,2,0,right,A_M_12.jpg,A_F_13.jpg,C_M_01.jpg,right,853,true,high,NA,NA,NA,NA,NA,NA,NA,false
2N43SgSP,3oplmf3ev80afezcyc4phujqmmslnu,3d4ch1lgee6br4fbddt6blfqyd2g9v,2N43SgSP,2020-0188,2020-11-16,20:11:36,20:32:50,NA,incomplete,205,gender,2,1,left,C_M_04.jpg,A_M_08.jpg,C_F_03.jpg,left,738,true,high,NA,NA,NA,NA,NA,NA,NA,false
2N43SgSP,3oplmf3ev80afezcyc4phujqmmslnu,3d4ch1lgee6br4fbddt6blfqyd2g9v,2N43SgSP,2020-0188,2020-11-16,20:11:36,20:32:50,NA,incomplete,206,gender,2,1,left,C_M_06.jpg,A_M_01.jpg,C_F_10.jpg,left,677,true,high,NA,NA,NA,NA,NA,NA,NA,false
2N43SgSP,3oplmf3ev80afezcyc4phujqmmslnu,3d4ch1lgee6br4fbddt6blfqyd2g9v,2N43SgSP,2020-0188,2020-11-16,20:11:36,20:32:50,NA,incomplete,207,gender,2,1,right,C_F_15.jpg,C_M_08.jpg,A_F_04.jpg,right,749,true,high,NA,NA,NA,NA,NA,NA,NA,false
2N43SgSP,3oplmf3ev80afezcyc4phujqmmslnu,3d4ch1lgee6br4fbddt6blfqyd2g9v,2N43SgSP,2020-0188,2020-11-16,20:11:36,20:32:50,NA,incomplete,208,gender,2,1,left,A_F_01.jpg,C_F_10.jpg,A_M_15.jpg,left,797,true,high,NA,NA,NA,NA,NA,NA,NA,false
2N43SgSP,3oplmf3ev80afezcyc4phujqmmslnu,3d4ch1lgee6br4fbddt6blfqyd2g9v,2N43SgSP,2020-0188,2020-11-16,20:11:36,20:32:50,NA,incomplete,209,gender,2,1,left,A_F_08.jpg,C_F_07.jpg,A_M_02.jpg,right,687,false,high,NA,NA,NA,NA,NA,NA,NA,false
2N43SgSP,3oplmf3ev80afezcyc4phujqmmslnu,3d4ch1lgee6br4fbddt6blfqyd2g9v,2N43SgSP,2020-0188,2020-11-16,20:11:36,20:32:50,NA,incomplete,210,gender,2,1,left,C_F_08.jpg,A_F_07.jpg,C_M_11.jpg,left,760,true,high,NA,NA,NA,NA,NA,NA,NA,false
2N43SgSP,3oplmf3ev80afezcyc4phujqmmslnu,3d4ch1lgee6br4fbddt6blfqyd2g9v,2N43SgSP,2020-0188,2020-11-16,20:11:36,20:32:50,NA,incomplete,211,gender,2,1,right,A_M_02.jpg,A_F_09.jpg,C_M_16.jpg,right,1296,true,high,NA,NA,NA,NA,NA,NA,NA,false
2N43SgSP,3oplmf3ev80afezcyc4phujqmmslnu,3d4ch1lgee6br4fbddt6blfqyd2g9v,2N43SgSP,2020-0188,2020-11-16,20:11:36,20:32:50,NA,incomplete,212,gender,2,1,left,A_M_04.jpg,C_M_01.jpg,A_F_15.jpg,left,934,true,high,NA,NA,NA,NA,NA,NA,NA,false
2N43SgSP,3oplmf3ev80afezcyc4phujqmmslnu,3d4ch1lgee6br4fbddt6blfqyd2g9v,2N43SgSP,2020-0188,2020-11-16,20:11:36,20:32:50,NA,incomplete,213,gender,2,0,left,C_F_04.jpg,A_F_14.jpg,C_M_13.jpg,left,1172,true,high,NA,NA,NA,NA,NA,NA,NA,false
2N43SgSP,3oplmf3ev80afezcyc4phujqmmslnu,3d4ch1lgee6br4fbddt6blfqyd2g9v,2N43SgSP,2020-0188,2020-11-16,20:11:36,20:32:50,NA,incomplete,214,gender,2,1,left,C_M_10.jpg,A_M_13.jpg,C_F_06.jpg,right,1012,false,high,NA,NA,NA,NA,NA,NA,NA,false
2N43SgSP,3oplmf3ev80afezcyc4phujqmmslnu,3d4ch1lgee6br4fbddt6blfqyd2g9v,2N43SgSP,2020-0188,2020-11-16,20:11:36,20:32:50,NA,incomplete,215,gender,2,1,left,A_M_03.jpg,C_M_02.jpg,A_F_09.jpg,left,910,true,high,NA,NA,NA,NA,NA,NA,NA,false
2N43SgSP,3oplmf3ev80afezcyc4phujqmmslnu,3d4ch1lgee6br4fbddt6blfqyd2g9v,2N43SgSP,2020-0188,2020-11-16,20:11:36,20:32:50,NA,incomplete,216,gender,2,1,left,A_M_10.jpg,C_M_13.jpg,A_F_16.jpg,left,845,true,high,NA,NA,NA,NA,NA,NA,NA,false
2N43SgSP,3oplmf3ev80afezcyc4phujqmmslnu,3d4ch1lgee6br4fbddt6blfqyd2g9v,2N43SgSP,2020-0188,2020-11-16,20:11:36,20:32:50,NA,incomplete,217,gender,2,1,left,C_F_02.jpg,A_F_13.jpg,C_M_10.jpg,left,1172,true,high,NA,NA,NA,NA,NA,NA,NA,false
2N43SgSP,3oplmf3ev80afezcyc4phujqmmslnu,3d4ch1lgee6br4fbddt6blfqyd2g9v,2N43SgSP,2020-0188,2020-11-16,20:11:36,20:32:50,NA,incomplete,218,gender,2,0,right,C_M_02.jpg,C_F_11.jpg,A_M_05.jpg,right,701,true,high,NA,NA,NA,NA,NA,NA,NA,false
2N43SgSP,3oplmf3ev80afezcyc4phujqmmslnu,3d4ch1lgee6br4fbddt6blfqyd2g9v,2N43SgSP,2020-0188,2020-11-16,20:11:36,20:32:50,NA,incomplete,219,gender,2,1,left,A_F_11.jpg,C_F_15.jpg,A_M_10.jpg,left,822,true,high,NA,NA,NA,NA,NA,NA,NA,false
2N43SgSP,3oplmf3ev80afezcyc4phujqmmslnu,3d4ch1lgee6br4fbddt6blfqyd2g9v,2N43SgSP,2020-0188,2020-11-16,20:11:36,20:32:50,NA,incomplete,220,race,3,1,left,A_F_06.jpg,A_M_02.jpg,C_F_15.jpg,right,642,false,high,NA,NA,NA,NA,NA,NA,NA,false
2N43SgSP,3oplmf3ev80afezcyc4phujqmmslnu,3d4ch1lgee6br4fbddt6blfqyd2g9v,2N43SgSP,2020-0188,2020-11-16,20:11:36,20:32:50,NA,incomplete,221,race,3,1,right,A_M_15.jpg,C_M_06.jpg,A_F_03.jpg,left,1133,false,high,NA,NA,NA,NA,NA,NA,NA,false
2N43SgSP,3oplmf3ev80afezcyc4phujqmmslnu,3d4ch1lgee6br4fbddt6blfqyd2g9v,2N43SgSP,2020-0188,2020-11-16,20:11:36,20:32:50,NA,incomplete,222,race,3,0,right,C_F_13.jpg,A_F_12.jpg,C_M_06.jpg,right,1078,true,high,NA,NA,NA,NA,NA,NA,NA,false
2N43SgSP,3oplmf3ev80afezcyc4phujqmmslnu,3d4ch1lgee6br4fbddt6blfqyd2g9v,2N43SgSP,2020-0188,2020-11-16,20:11:36,20:32:50,NA,incomplete,223,race,3,1,left,C_F_07.jpg,C_M_02.jpg,A_F_09.jpg,left,812,true,high,NA,NA,NA,NA,NA,NA,NA,false
2N43SgSP,3oplmf3ev80afezcyc4phujqmmslnu,3d4ch1lgee6br4fbddt6blfqyd2g9v,2N43SgSP,2020-0188,2020-11-16,20:11:36,20:32:50,NA,incomplete,224,race,3,1,right,A_M_05.jpg,C_M_08.jpg,A_F_01.jpg,right,1303,true,high,NA,NA,NA,NA,NA,NA,NA,false
2N43SgSP,3oplmf3ev80afezcyc4phujqmmslnu,3d4ch1lgee6br4fbddt6blfqyd2g9v,2N43SgSP,2020-0188,2020-11-16,20:11:36,20:32:50,NA,incomplete,225,race,3,0,right,C_M_09.jpg,A_M_10.jpg,C_F_06.jpg,right,968,true,high,NA,NA,NA,NA,NA,NA,NA,false
2N43SgSP,3oplmf3ev80afezcyc4phujqmmslnu,3d4ch1lgee6br4fbddt6blfqyd2g9v,2N43SgSP,2020-0188,2020-11-16,20:11:36,20:32:50,NA,incomplete,226,race,3,1,left,A_M_16.jpg,A_F_03.jpg,C_M_08.jpg,left,1364,true,high,NA,NA,NA,NA,NA,NA,NA,false
2N43SgSP,3oplmf3ev80afezcyc4phujqmmslnu,3d4ch1lgee6br4fbddt6blfqyd2g9v,2N43SgSP,2020-0188,2020-11-16,20:11:36,20:32:50,NA,incomplete,227,race,3,1,left,A_M_06.jpg,A_F_10.jpg,C_M_03.jpg,left,881,true,high,NA,NA,NA,NA,NA,NA,NA,false
2N43SgSP,3oplmf3ev80afezcyc4phujqmmslnu,3d4ch1lgee6br4fbddt6blfqyd2g9v,2N43SgSP,2020-0188,2020-11-16,20:11:36,20:32:50,NA,incomplete,228,race,3,1,right,C_M_03.jpg,A_M_07.jpg,C_F_11.jpg,right,1044,true,high,NA,NA,NA,NA,NA,NA,NA,false
2N43SgSP,3oplmf3ev80afezcyc4phujqmmslnu,3d4ch1lgee6br4fbddt6blfqyd2g9v,2N43SgSP,2020-0188,2020-11-16,20:11:36,20:32:50,NA,incomplete,229,race,3,1,left,A_M_13.jpg,A_F_04.jpg,C_M_14.jpg,left,1148,true,high,NA,NA,NA,NA,NA,NA,NA,false
2N43SgSP,3oplmf3ev80afezcyc4phujqmmslnu,3d4ch1lgee6br4fbddt6blfqyd2g9v,2N43SgSP,2020-0188,2020-11-16,20:11:36,20:32:50,NA,incomplete,230,race,3,1,left,C_F_06.jpg,C_M_15.jpg,A_F_10.jpg,left,1292,true,high,NA,NA,NA,NA,NA,NA,NA,false
2N43SgSP,3oplmf3ev80afezcyc4phujqmmslnu,3d4ch1lgee6br4fbddt6blfqyd2g9v,2N43SgSP,2020-0188,2020-11-16,20:11:36,20:32:50,NA,incomplete,231,race,3,1,right,C_F_08.jpg,A_F_02.jpg,C_M_14.jpg,right,1367,true,high,NA,NA,NA,NA,NA,NA,NA,false
2N43SgSP,3oplmf3ev80afezcyc4phujqmmslnu,3d4ch1lgee6br4fbddt6blfqyd2g9v,2N43SgSP,2020-0188,2020-11-16,20:11:36,20:32:50,NA,incomplete,232,race,3,0,left,C_M_04.jpg,C_F_15.jpg,A_M_08.jpg,left,1412,true,high,NA,NA,NA,NA,NA,NA,NA,false
2N43SgSP,3oplmf3ev80afezcyc4phujqmmslnu,3d4ch1lgee6br4fbddt6blfqyd2g9v,2N43SgSP,2020-0188,2020-11-16,20:11:36,20:32:50,NA,incomplete,233,race,3,1,right,C_M_05.jpg,A_M_15.jpg,C_F_11.jpg,right,1360,true,high,NA,NA,NA,NA,NA,NA,NA,false
2N43SgSP,3oplmf3ev80afezcyc4phujqmmslnu,3d4ch1lgee6br4fbddt6blfqyd2g9v,2N43SgSP,2020-0188,2020-11-16,20:11:36,20:32:50,NA,incomplete,234,race,3,1,right,A_M_07.jpg,C_M_06.jpg,A_F_05.jpg,right,1813,true,high,NA,NA,NA,NA,NA,NA,NA,false
2N43SgSP,3oplmf3ev80afezcyc4phujqmmslnu,3d4ch1lgee6br4fbddt6blfqyd2g9v,2N43SgSP,2020-0188,2020-11-16,20:11:36,20:32:50,NA,incomplete,235,race,3,1,left,A_F_10.jpg,A_M_13.jpg,C_F_16.jpg,left,1034,true,high,NA,NA,NA,NA,NA,NA,NA,false
2N43SgSP,3oplmf3ev80afezcyc4phujqmmslnu,3d4ch1lgee6br4fbddt6blfqyd2g9v,2N43SgSP,2020-0188,2020-11-16,20:11:36,20:32:50,NA,incomplete,236,race,3,1,right,A_M_01.jpg,C_M_14.jpg,A_F_13.jpg,right,1532,true,high,NA,NA,NA,NA,NA,NA,NA,false
2N43SgSP,3oplmf3ev80afezcyc4phujqmmslnu,3d4ch1lgee6br4fbddt6blfqyd2g9v,2N43SgSP,2020-0188,2020-11-16,20:11:36,20:32:50,NA,incomplete,237,race,3,0,left,C_M_16.jpg,C_F_14.jpg,A_M_08.jpg,left,1219,true,high,NA,NA,NA,NA,NA,NA,NA,false
2N43SgSP,3oplmf3ev80afezcyc4phujqmmslnu,3d4ch1lgee6br4fbddt6blfqyd2g9v,2N43SgSP,2020-0188,2020-11-16,20:11:36,20:32:50,NA,incomplete,238,race,3,1,left,C_M_04.jpg,C_F_16.jpg,A_M_07.jpg,left,1184,true,high,NA,NA,NA,NA,NA,NA,NA,false
2N43SgSP,3oplmf3ev80afezcyc4phujqmmslnu,3d4ch1lgee6br4fbddt6blfqyd2g9v,2N43SgSP,2020-0188,2020-11-16,20:11:36,20:32:50,NA,incomplete,239,race,3,1,left,C_M_10.jpg,C_F_08.jpg,A_M_13.jpg,left,1066,true,high,NA,NA,NA,NA,NA,NA,NA,false
2N43SgSP,3oplmf3ev80afezcyc4phujqmmslnu,3d4ch1lgee6br4fbddt6blfqyd2g9v,2N43SgSP,2020-0188,2020-11-16,20:11:36,20:32:50,NA,NA,instruction example,color,NA,NA,NA,Green_Plus_Dots_1.jpg,Green_Triangle_Stripes_3.jpg,Blue_Circle_Chess_1.jpg,NA,NA,NA,NA,NA,NA,NA,NA,NA,NA,NA,undefined
2N43SgSP,3oplmf3ev80afezcyc4phujqmmslnu,3d4ch1lgee6br4fbddt6blfqyd2g9v,2N43SgSP,2020-0188,2020-11-16,20:11:36,20:32:50,NA,NA,instruction example,color,NA,NA,NA,Green_Circle_Chess_2.jpg,Purple_Star_Dots_2.jpg,Green_Triangle_Grid_1.jpg,NA,NA,NA,NA,NA,NA,NA,NA,NA,NA,NA,undefined
2N43SgSP,3oplmf3ev80afezcyc4phujqmmslnu,3d4ch1lgee6br4fbddt6blfqyd2g9v,2N43SgSP,2020-0188,2020-11-16,20:11:36,20:32:50,NA,NA,instruction example,color,NA,NA,NA,C_F_10.jpg,A_F_14.jpg,C_M_04.jpg,NA,NA,NA,NA,NA,NA,NA,NA,NA,NA,NA,undefined
2N43SgSP,3oplmf3ev80afezcyc4phujqmmslnu,3d4ch1lgee6br4fbddt6blfqyd2g9v,2N43SgSP,2020-0188,2020-11-16,20:11:36,20:32:50,NA,NA,instruction example,color,NA,NA,NA,C_F_06.jpg,C_M_16.jpg,A_F_11.jpg,NA,NA,NA,NA,NA,NA,NA,NA,NA,NA,NA,undefined
2N43SgSP,3oplmf3ev80afezcyc4phujqmmslnu,3d4ch1lgee6br4fbddt6blfqyd2g9v,2N43SgSP,2020-0188,2020-11-16,20:11:36,20:32:50,1259922,1274714,NA,NA,NA,NA,NA,NA,NA,NA,NA,NA,NA,NA,29,Other,Male,Latino,no,yes,yes,undefined
