workerId,hitId,assignmentId,subject,studyid,exp_date,exp_start,exp_end,time_start,time_end,trial,type,sequence,reward_validity,answer,image_top,image_left,image_right,response,response_time,response_acc,volatility,practice
MqhWXdBH,3ha5odm5ld5arw3bkcnh3xryudvvsa,3dpnqgw4lps8x5ktk5otimrkmxi642,MqhWXdBH,2020-0188,2020-06-04,12:39:30,12:57:56,NA,incomplete,0,filling,0,0,right,Purple_Triangle_Stripes_1.jpg,Blue_Triangle_Chess_4.jpg,Red_Circle_Stripes_3.jpg,right,1206.795000000042,true,NA,true
MqhWXdBH,3ha5odm5ld5arw3bkcnh3xryudvvsa,3dpnqgw4lps8x5ktk5otimrkmxi642,MqhWXdBH,2020-0188,2020-06-04,12:39:30,12:57:56,NA,incomplete,1,filling,0,1,left,Purple_Plus_Chess_3.jpg,Blue_Circle_Chess_1.jpg,Green_Plus_Dots_4.jpg,left,1496.619999999908,true,NA,true
MqhWXdBH,3ha5odm5ld5arw3bkcnh3xryudvvsa,3dpnqgw4lps8x5ktk5otimrkmxi642,MqhWXdBH,2020-0188,2020-06-04,12:39:30,12:57:56,NA,incomplete,2,filling,0,1,left,Blue_Star_Dots_4.jpg,Green_Plus_Dots_1.jpg,Purple_Star_Chess_2.jpg,left,1241.600000001199,true,NA,true
MqhWXdBH,3ha5odm5ld5arw3bkcnh3xryudvvsa,3dpnqgw4lps8x5ktk5otimrkmxi642,MqhWXdBH,2020-0188,2020-06-04,12:39:30,12:57:56,NA,incomplete,3,filling,0,1,left,Red_Plus_Chess_3.jpg,Purple_Star_Chess_2.jpg,Green_Plus_Grid_4.jpg,left,1061.6150000005437,true,NA,true
MqhWXdBH,3ha5odm5ld5arw3bkcnh3xryudvvsa,3dpnqgw4lps8x5ktk5otimrkmxi642,MqhWXdBH,2020-0188,2020-06-04,12:39:30,12:57:56,NA,incomplete,4,filling,0,1,right,Blue_Plus_Chess_2.jpg,Red_Plus_Grid_1.jpg,Green_Star_Chess_4.jpg,right,1222.3099999992119,true,NA,true
MqhWXdBH,3ha5odm5ld5arw3bkcnh3xryudvvsa,3dpnqgw4lps8x5ktk5otimrkmxi642,MqhWXdBH,2020-0188,2020-06-04,12:39:30,12:57:56,NA,incomplete,5,filling,0,1,right,Purple_Circle_Stripes_3.jpg,Green_Circle_Chess_1.jpg,Blue_Star_Stripes_4.jpg,right,849.3600000002189,true,NA,true
MqhWXdBH,3ha5odm5ld5arw3bkcnh3xryudvvsa,3dpnqgw4lps8x5ktk5otimrkmxi642,MqhWXdBH,2020-0188,2020-06-04,12:39:30,12:57:56,NA,incomplete,6,filling,0,1,right,Green_Circle_Grid_1.jpg,Purple_Circle_Dots_4.jpg,Blue_Triangle_Grid_2.jpg,right,900.2849999996834,true,NA,true
MqhWXdBH,3ha5odm5ld5arw3bkcnh3xryudvvsa,3dpnqgw4lps8x5ktk5otimrkmxi642,MqhWXdBH,2020-0188,2020-06-04,12:39:30,12:57:56,NA,incomplete,7,filling,0,1,left,Blue_Triangle_Chess_1.jpg,Purple_Plus_Chess_4.jpg,Green_Triangle_Dots_3.jpg,left,820.054999998305,true,NA,true
MqhWXdBH,3ha5odm5ld5arw3bkcnh3xryudvvsa,3dpnqgw4lps8x5ktk5otimrkmxi642,MqhWXdBH,2020-0188,2020-06-04,12:39:30,12:57:56,NA,incomplete,8,filling,0,1,right,Blue_Star_Grid_1.jpg,Green_Star_Stripes_3.jpg,Purple_Triangle_Grid_4.jpg,right,992.0949999996228,true,NA,true
MqhWXdBH,3ha5odm5ld5arw3bkcnh3xryudvvsa,3dpnqgw4lps8x5ktk5otimrkmxi642,MqhWXdBH,2020-0188,2020-06-04,12:39:30,12:57:56,NA,incomplete,9,filling,0,0,left,Green_Star_Grid_1.jpg,Purple_Circle_Grid_3.jpg,Red_Star_Dots_2.jpg,left,1019.6599999999162,true,NA,true
MqhWXdBH,3ha5odm5ld5arw3bkcnh3xryudvvsa,3dpnqgw4lps8x5ktk5otimrkmxi642,MqhWXdBH,2020-0188,2020-06-04,12:39:30,12:57:56,NA,incomplete,10,filling,0,1,right,Green_Triangle_Dots_4.jpg,Blue_Triangle_Chess_1.jpg,Purple_Star_Dots_2.jpg,right,959.4149999993388,true,NA,true
MqhWXdBH,3ha5odm5ld5arw3bkcnh3xryudvvsa,3dpnqgw4lps8x5ktk5otimrkmxi642,MqhWXdBH,2020-0188,2020-06-04,12:39:30,12:57:56,NA,incomplete,11,filling,0,1,left,Red_Plus_Chess_1.jpg,Blue_Triangle_Chess_4.jpg,Green_Plus_Grid_3.jpg,left,869.4800000012037,true,NA,true
MqhWXdBH,3ha5odm5ld5arw3bkcnh3xryudvvsa,3dpnqgw4lps8x5ktk5otimrkmxi642,MqhWXdBH,2020-0188,2020-06-04,12:39:30,12:57:56,NA,incomplete,12,filling,0,1,right,Blue_Triangle_Chess_4.jpg,Green_Triangle_Stripes_2.jpg,Purple_Plus_Chess_1.jpg,right,846.2999999992899,true,NA,true
MqhWXdBH,3ha5odm5ld5arw3bkcnh3xryudvvsa,3dpnqgw4lps8x5ktk5otimrkmxi642,MqhWXdBH,2020-0188,2020-06-04,12:39:30,12:57:56,NA,incomplete,13,filling,0,0,right,Purple_Star_Dots_1.jpg,Blue_Star_Chess_3.jpg,Green_Circle_Dots_2.jpg,right,922.2999999983585,true,NA,true
MqhWXdBH,3ha5odm5ld5arw3bkcnh3xryudvvsa,3dpnqgw4lps8x5ktk5otimrkmxi642,MqhWXdBH,2020-0188,2020-06-04,12:39:30,12:57:56,NA,incomplete,14,filling,0,1,left,Blue_Triangle_Grid_3.jpg,Red_Star_Grid_1.jpg,Green_Triangle_Dots_2.jpg,left,823.8999999994412,true,NA,true
MqhWXdBH,3ha5odm5ld5arw3bkcnh3xryudvvsa,3dpnqgw4lps8x5ktk5otimrkmxi642,MqhWXdBH,2020-0188,2020-06-04,12:39:30,12:57:56,NA,incomplete,15,filling,0,1,right,Green_Circle_Stripes_4.jpg,Red_Circle_Chess_2.jpg,Blue_Triangle_Stripes_1.jpg,right,795.854999998468,true,NA,true
MqhWXdBH,3ha5odm5ld5arw3bkcnh3xryudvvsa,3dpnqgw4lps8x5ktk5otimrkmxi642,MqhWXdBH,2020-0188,2020-06-04,12:39:30,12:57:56,NA,incomplete,16,filling,0,0,right,Green_Plus_Chess_3.jpg,Red_Plus_Grid_1.jpg,Purple_Circle_Chess_2.jpg,right,807.7350000003353,true,NA,true
MqhWXdBH,3ha5odm5ld5arw3bkcnh3xryudvvsa,3dpnqgw4lps8x5ktk5otimrkmxi642,MqhWXdBH,2020-0188,2020-06-04,12:39:30,12:57:56,NA,incomplete,17,filling,0,0,left,Purple_Plus_Chess_3.jpg,Red_Circle_Chess_4.jpg,Blue_Plus_Grid_1.jpg,left,971.5199999991455,true,NA,true
MqhWXdBH,3ha5odm5ld5arw3bkcnh3xryudvvsa,3dpnqgw4lps8x5ktk5otimrkmxi642,MqhWXdBH,2020-0188,2020-06-04,12:39:30,12:57:56,NA,incomplete,18,filling,0,1,right,Red_Star_Stripes_3.jpg,Green_Star_Chess_2.jpg,Purple_Plus_Stripes_1.jpg,left,738.250000000291,false,NA,true
MqhWXdBH,3ha5odm5ld5arw3bkcnh3xryudvvsa,3dpnqgw4lps8x5ktk5otimrkmxi642,MqhWXdBH,2020-0188,2020-06-04,12:39:30,12:57:56,NA,incomplete,19,filling,0,1,right,Red_Plus_Grid_2.jpg,Purple_Plus_Dots_1.jpg,Green_Circle_Grid_4.jpg,right,808.24500000017,true,NA,true
MqhWXdBH,3ha5odm5ld5arw3bkcnh3xryudvvsa,3dpnqgw4lps8x5ktk5otimrkmxi642,MqhWXdBH,2020-0188,2020-06-04,12:39:30,12:57:56,NA,incomplete,20,shape,1,1,left,Green_Star_Chess_1.jpg,Red_Star_Stripes_2.jpg,Blue_Triangle_Chess_4.jpg,left,803.9300000000512,true,NA,true
MqhWXdBH,3ha5odm5ld5arw3bkcnh3xryudvvsa,3dpnqgw4lps8x5ktk5otimrkmxi642,MqhWXdBH,2020-0188,2020-06-04,12:39:30,12:57:56,NA,incomplete,21,shape,1,1,right,Blue_Triangle_Chess_4.jpg,Green_Star_Chess_2.jpg,Purple_Triangle_Stripes_3.jpg,right,728.0300000002026,true,NA,true
MqhWXdBH,3ha5odm5ld5arw3bkcnh3xryudvvsa,3dpnqgw4lps8x5ktk5otimrkmxi642,MqhWXdBH,2020-0188,2020-06-04,12:39:30,12:57:56,NA,incomplete,22,shape,1,1,right,Green_Plus_Dots_3.jpg,Blue_Circle_Dots_2.jpg,Red_Plus_Grid_1.jpg,right,630.9299999993527,true,NA,true
MqhWXdBH,3ha5odm5ld5arw3bkcnh3xryudvvsa,3dpnqgw4lps8x5ktk5otimrkmxi642,MqhWXdBH,2020-0188,2020-06-04,12:39:30,12:57:56,NA,incomplete,23,shape,1,1,left,Green_Star_Dots_4.jpg,Blue_Star_Chess_1.jpg,Purple_Triangle_Dots_2.jpg,left,699.7649999993737,true,NA,true
MqhWXdBH,3ha5odm5ld5arw3bkcnh3xryudvvsa,3dpnqgw4lps8x5ktk5otimrkmxi642,MqhWXdBH,2020-0188,2020-06-04,12:39:30,12:57:56,NA,incomplete,24,shape,1,1,right,Blue_Circle_Stripes_2.jpg,Green_Triangle_Stripes_4.jpg,Purple_Circle_Chess_3.jpg,left,898.7100000013015,false,NA,true
MqhWXdBH,3ha5odm5ld5arw3bkcnh3xryudvvsa,3dpnqgw4lps8x5ktk5otimrkmxi642,MqhWXdBH,2020-0188,2020-06-04,12:39:30,12:57:56,NA,incomplete,25,shape,1,1,right,Blue_Plus_Grid_3.jpg,Green_Triangle_Grid_4.jpg,Red_Plus_Chess_1.jpg,right,731.7149999999092,true,NA,true
MqhWXdBH,3ha5odm5ld5arw3bkcnh3xryudvvsa,3dpnqgw4lps8x5ktk5otimrkmxi642,MqhWXdBH,2020-0188,2020-06-04,12:39:30,12:57:56,NA,incomplete,26,shape,1,1,left,Red_Circle_Stripes_3.jpg,Green_Circle_Chess_2.jpg,Purple_Triangle_Stripes_4.jpg,left,531.4350000007544,true,NA,true
MqhWXdBH,3ha5odm5ld5arw3bkcnh3xryudvvsa,3dpnqgw4lps8x5ktk5otimrkmxi642,MqhWXdBH,2020-0188,2020-06-04,12:39:30,12:57:56,NA,incomplete,27,shape,1,0,left,Green_Circle_Chess_2.jpg,Red_Circle_Dots_1.jpg,Blue_Star_Chess_3.jpg,left,514.3699999990058,true,NA,true
MqhWXdBH,3ha5odm5ld5arw3bkcnh3xryudvvsa,3dpnqgw4lps8x5ktk5otimrkmxi642,MqhWXdBH,2020-0188,2020-06-04,12:39:30,12:57:56,NA,incomplete,28,shape,1,1,right,Blue_Triangle_Stripes_1.jpg,Purple_Circle_Stripes_3.jpg,Green_Triangle_Dots_4.jpg,right,643.1900000006426,true,NA,true
MqhWXdBH,3ha5odm5ld5arw3bkcnh3xryudvvsa,3dpnqgw4lps8x5ktk5otimrkmxi642,MqhWXdBH,2020-0188,2020-06-04,12:39:30,12:57:56,NA,incomplete,29,shape,1,1,left,Red_Circle_Stripes_3.jpg,Blue_Circle_Grid_1.jpg,Purple_Plus_Stripes_4.jpg,left,517.3149999991292,true,NA,true
MqhWXdBH,3ha5odm5ld5arw3bkcnh3xryudvvsa,3dpnqgw4lps8x5ktk5otimrkmxi642,MqhWXdBH,2020-0188,2020-06-04,12:39:30,12:57:56,NA,incomplete,30,shape,1,1,right,Red_Star_Grid_4.jpg,Purple_Plus_Grid_3.jpg,Green_Star_Chess_2.jpg,right,571.835000000603,true,NA,true
MqhWXdBH,3ha5odm5ld5arw3bkcnh3xryudvvsa,3dpnqgw4lps8x5ktk5otimrkmxi642,MqhWXdBH,2020-0188,2020-06-04,12:39:30,12:57:56,NA,incomplete,31,shape,1,1,left,Blue_Triangle_Stripes_1.jpg,Purple_Triangle_Dots_2.jpg,Red_Star_Stripes_3.jpg,left,609.8700000002282,true,NA,true
MqhWXdBH,3ha5odm5ld5arw3bkcnh3xryudvvsa,3dpnqgw4lps8x5ktk5otimrkmxi642,MqhWXdBH,2020-0188,2020-06-04,12:39:30,12:57:56,NA,incomplete,32,shape,1,1,right,Green_Triangle_Stripes_4.jpg,Blue_Star_Stripes_3.jpg,Red_Triangle_Grid_2.jpg,right,549.5750000008848,true,NA,true
MqhWXdBH,3ha5odm5ld5arw3bkcnh3xryudvvsa,3dpnqgw4lps8x5ktk5otimrkmxi642,MqhWXdBH,2020-0188,2020-06-04,12:39:30,12:57:56,NA,incomplete,33,shape,1,1,right,Green_Circle_Dots_2.jpg,Blue_Plus_Dots_1.jpg,Purple_Circle_Grid_4.jpg,right,572.6199999990058,true,NA,true
MqhWXdBH,3ha5odm5ld5arw3bkcnh3xryudvvsa,3dpnqgw4lps8x5ktk5otimrkmxi642,MqhWXdBH,2020-0188,2020-06-04,12:39:30,12:57:56,NA,incomplete,34,shape,1,1,right,Green_Star_Chess_2.jpg,Purple_Plus_Chess_4.jpg,Red_Star_Grid_3.jpg,right,585.3700000006938,true,NA,true
MqhWXdBH,3ha5odm5ld5arw3bkcnh3xryudvvsa,3dpnqgw4lps8x5ktk5otimrkmxi642,MqhWXdBH,2020-0188,2020-06-04,12:39:30,12:57:56,NA,incomplete,35,shape,1,1,left,Red_Circle_Dots_3.jpg,Green_Circle_Stripes_4.jpg,Blue_Triangle_Dots_2.jpg,left,678.4850000003935,true,NA,true
MqhWXdBH,3ha5odm5ld5arw3bkcnh3xryudvvsa,3dpnqgw4lps8x5ktk5otimrkmxi642,MqhWXdBH,2020-0188,2020-06-04,12:39:30,12:57:56,NA,incomplete,36,shape,1,0,left,Green_Triangle_Grid_3.jpg,Red_Triangle_Chess_1.jpg,Blue_Plus_Grid_4.jpg,left,575.0850000004284,true,NA,true
MqhWXdBH,3ha5odm5ld5arw3bkcnh3xryudvvsa,3dpnqgw4lps8x5ktk5otimrkmxi642,MqhWXdBH,2020-0188,2020-06-04,12:39:30,12:57:56,NA,incomplete,37,shape,1,1,right,Purple_Triangle_Chess_4.jpg,Blue_Circle_Chess_2.jpg,Green_Triangle_Grid_3.jpg,right,572.3050000014482,true,NA,true
MqhWXdBH,3ha5odm5ld5arw3bkcnh3xryudvvsa,3dpnqgw4lps8x5ktk5otimrkmxi642,MqhWXdBH,2020-0188,2020-06-04,12:39:30,12:57:56,NA,incomplete,38,shape,1,1,left,Green_Plus_Stripes_3.jpg,Purple_Plus_Grid_2.jpg,Blue_Triangle_Stripes_1.jpg,left,515.204999999667,true,NA,true
MqhWXdBH,3ha5odm5ld5arw3bkcnh3xryudvvsa,3dpnqgw4lps8x5ktk5otimrkmxi642,MqhWXdBH,2020-0188,2020-06-04,12:39:30,12:57:56,NA,incomplete,39,shape,1,0,left,Blue_Triangle_Chess_3.jpg,Purple_Triangle_Dots_2.jpg,Green_Star_Chess_4.jpg,left,745.8900000001886,true,NA,true
MqhWXdBH,3ha5odm5ld5arw3bkcnh3xryudvvsa,3dpnqgw4lps8x5ktk5otimrkmxi642,MqhWXdBH,2020-0188,2020-06-04,12:39:30,12:57:56,NA,incomplete,0,filling,0,1,left,Red_Circle_Dots_2.jpg,Blue_Star_Dots_1.jpg,Purple_Circle_Chess_4.jpg,none,0,false,low,false
MqhWXdBH,3ha5odm5ld5arw3bkcnh3xryudvvsa,3dpnqgw4lps8x5ktk5otimrkmxi642,MqhWXdBH,2020-0188,2020-06-04,12:39:30,12:57:56,NA,incomplete,1,filling,0,1,left,Blue_Triangle_Dots_4.jpg,Purple_Star_Dots_2.jpg,Green_Triangle_Chess_3.jpg,right,797.9699999996228,false,low,false
MqhWXdBH,3ha5odm5ld5arw3bkcnh3xryudvvsa,3dpnqgw4lps8x5ktk5otimrkmxi642,MqhWXdBH,2020-0188,2020-06-04,12:39:30,12:57:56,NA,incomplete,2,filling,0,1,right,Blue_Triangle_Grid_4.jpg,Red_Triangle_Stripes_1.jpg,Green_Star_Grid_2.jpg,left,554.9200000005076,false,low,false
MqhWXdBH,3ha5odm5ld5arw3bkcnh3xryudvvsa,3dpnqgw4lps8x5ktk5otimrkmxi642,MqhWXdBH,2020-0188,2020-06-04,12:39:30,12:57:56,NA,incomplete,3,filling,0,1,left,Green_Plus_Dots_1.jpg,Red_Triangle_Dots_4.jpg,Blue_Plus_Chess_2.jpg,right,656.8200000001816,false,low,false
MqhWXdBH,3ha5odm5ld5arw3bkcnh3xryudvvsa,3dpnqgw4lps8x5ktk5otimrkmxi642,MqhWXdBH,2020-0188,2020-06-04,12:39:30,12:57:56,NA,incomplete,4,filling,0,1,left,Purple_Circle_Grid_3.jpg,Red_Star_Grid_1.jpg,Blue_Circle_Stripes_4.jpg,left,883.9950000001118,true,low,false
MqhWXdBH,3ha5odm5ld5arw3bkcnh3xryudvvsa,3dpnqgw4lps8x5ktk5otimrkmxi642,MqhWXdBH,2020-0188,2020-06-04,12:39:30,12:57:56,NA,incomplete,5,filling,0,1,left,Blue_Circle_Chess_4.jpg,Green_Plus_Chess_2.jpg,Red_Circle_Grid_3.jpg,left,667.4800000000978,true,low,false
MqhWXdBH,3ha5odm5ld5arw3bkcnh3xryudvvsa,3dpnqgw4lps8x5ktk5otimrkmxi642,MqhWXdBH,2020-0188,2020-06-04,12:39:30,12:57:56,NA,incomplete,6,filling,0,1,left,Purple_Plus_Grid_3.jpg,Green_Circle_Grid_4.jpg,Red_Plus_Stripes_1.jpg,left,924.3599999990547,true,low,false
MqhWXdBH,3ha5odm5ld5arw3bkcnh3xryudvvsa,3dpnqgw4lps8x5ktk5otimrkmxi642,MqhWXdBH,2020-0188,2020-06-04,12:39:30,12:57:56,NA,incomplete,7,filling,0,1,left,Green_Star_Stripes_4.jpg,Purple_Triangle_Stripes_3.jpg,Blue_Star_Grid_1.jpg,left,659.5049999996554,true,low,false
MqhWXdBH,3ha5odm5ld5arw3bkcnh3xryudvvsa,3dpnqgw4lps8x5ktk5otimrkmxi642,MqhWXdBH,2020-0188,2020-06-04,12:39:30,12:57:56,NA,incomplete,8,filling,0,1,right,Purple_Star_Grid_1.jpg,Blue_Star_Dots_4.jpg,Red_Plus_Grid_3.jpg,right,678.1650000012014,true,low,false
MqhWXdBH,3ha5odm5ld5arw3bkcnh3xryudvvsa,3dpnqgw4lps8x5ktk5otimrkmxi642,MqhWXdBH,2020-0188,2020-06-04,12:39:30,12:57:56,NA,incomplete,9,filling,0,1,left,Blue_Triangle_Stripes_1.jpg,Green_Circle_Stripes_4.jpg,Red_Triangle_Grid_3.jpg,left,639.7899999993388,true,low,false
MqhWXdBH,3ha5odm5ld5arw3bkcnh3xryudvvsa,3dpnqgw4lps8x5ktk5otimrkmxi642,MqhWXdBH,2020-0188,2020-06-04,12:39:30,12:57:56,NA,incomplete,10,filling,0,1,right,Green_Plus_Chess_3.jpg,Purple_Plus_Dots_2.jpg,Blue_Star_Chess_4.jpg,right,745.8399999996182,true,low,false
MqhWXdBH,3ha5odm5ld5arw3bkcnh3xryudvvsa,3dpnqgw4lps8x5ktk5otimrkmxi642,MqhWXdBH,2020-0188,2020-06-04,12:39:30,12:57:56,NA,incomplete,11,filling,0,1,right,Purple_Star_Stripes_1.jpg,Green_Star_Chess_4.jpg,Red_Plus_Stripes_3.jpg,right,696.7700000004843,true,low,false
MqhWXdBH,3ha5odm5ld5arw3bkcnh3xryudvvsa,3dpnqgw4lps8x5ktk5otimrkmxi642,MqhWXdBH,2020-0188,2020-06-04,12:39:30,12:57:56,NA,incomplete,12,filling,0,1,right,Red_Star_Grid_4.jpg,Blue_Star_Dots_1.jpg,Green_Triangle_Grid_2.jpg,right,840.570000000298,true,low,false
MqhWXdBH,3ha5odm5ld5arw3bkcnh3xryudvvsa,3dpnqgw4lps8x5ktk5otimrkmxi642,MqhWXdBH,2020-0188,2020-06-04,12:39:30,12:57:56,NA,incomplete,13,filling,0,1,left,Red_Star_Stripes_4.jpg,Purple_Plus_Stripes_3.jpg,Blue_Star_Grid_1.jpg,right,699.604999999865,false,low,false
MqhWXdBH,3ha5odm5ld5arw3bkcnh3xryudvvsa,3dpnqgw4lps8x5ktk5otimrkmxi642,MqhWXdBH,2020-0188,2020-06-04,12:39:30,12:57:56,NA,incomplete,14,filling,0,1,left,Blue_Star_Stripes_4.jpg,Purple_Plus_Stripes_2.jpg,Red_Star_Dots_3.jpg,left,957.2550000011688,true,low,false
MqhWXdBH,3ha5odm5ld5arw3bkcnh3xryudvvsa,3dpnqgw4lps8x5ktk5otimrkmxi642,MqhWXdBH,2020-0188,2020-06-04,12:39:30,12:57:56,NA,incomplete,15,filling,0,1,right,Green_Star_Stripes_4.jpg,Purple_Star_Chess_3.jpg,Blue_Circle_Stripes_1.jpg,right,762.3300000013551,true,low,false
MqhWXdBH,3ha5odm5ld5arw3bkcnh3xryudvvsa,3dpnqgw4lps8x5ktk5otimrkmxi642,MqhWXdBH,2020-0188,2020-06-04,12:39:30,12:57:56,NA,incomplete,16,filling,0,1,right,Red_Star_Grid_4.jpg,Purple_Star_Dots_2.jpg,Blue_Circle_Grid_3.jpg,right,640.5149999990826,true,low,false
MqhWXdBH,3ha5odm5ld5arw3bkcnh3xryudvvsa,3dpnqgw4lps8x5ktk5otimrkmxi642,MqhWXdBH,2020-0188,2020-06-04,12:39:30,12:57:56,NA,incomplete,17,filling,0,1,right,Red_Plus_Dots_4.jpg,Purple_Plus_Stripes_3.jpg,Blue_Triangle_Dots_2.jpg,right,634.8699999998789,true,low,false
MqhWXdBH,3ha5odm5ld5arw3bkcnh3xryudvvsa,3dpnqgw4lps8x5ktk5otimrkmxi642,MqhWXdBH,2020-0188,2020-06-04,12:39:30,12:57:56,NA,incomplete,18,filling,0,0,left,Green_Star_Grid_1.jpg,Blue_Triangle_Grid_4.jpg,Purple_Star_Chess_3.jpg,left,909.0350000006147,true,low,false
MqhWXdBH,3ha5odm5ld5arw3bkcnh3xryudvvsa,3dpnqgw4lps8x5ktk5otimrkmxi642,MqhWXdBH,2020-0188,2020-06-04,12:39:30,12:57:56,NA,incomplete,19,filling,0,1,left,Blue_Plus_Dots_2.jpg,Purple_Circle_Dots_3.jpg,Red_Plus_Grid_1.jpg,left,798.6949999994831,true,low,false
MqhWXdBH,3ha5odm5ld5arw3bkcnh3xryudvvsa,3dpnqgw4lps8x5ktk5otimrkmxi642,MqhWXdBH,2020-0188,2020-06-04,12:39:30,12:57:56,NA,incomplete,20,filling,0,1,right,Red_Circle_Stripes_3.jpg,Purple_Circle_Chess_1.jpg,Blue_Plus_Stripes_4.jpg,right,601.9300000007497,true,low,false
MqhWXdBH,3ha5odm5ld5arw3bkcnh3xryudvvsa,3dpnqgw4lps8x5ktk5otimrkmxi642,MqhWXdBH,2020-0188,2020-06-04,12:39:30,12:57:56,NA,incomplete,21,filling,0,1,right,Blue_Star_Grid_2.jpg,Red_Star_Stripes_1.jpg,Green_Plus_Grid_3.jpg,right,685.5699999995995,true,low,false
MqhWXdBH,3ha5odm5ld5arw3bkcnh3xryudvvsa,3dpnqgw4lps8x5ktk5otimrkmxi642,MqhWXdBH,2020-0188,2020-06-04,12:39:30,12:57:56,NA,incomplete,22,filling,0,0,left,Purple_Plus_Grid_1.jpg,Blue_Star_Grid_3.jpg,Red_Plus_Stripes_4.jpg,left,662.3899999995483,true,low,false
MqhWXdBH,3ha5odm5ld5arw3bkcnh3xryudvvsa,3dpnqgw4lps8x5ktk5otimrkmxi642,MqhWXdBH,2020-0188,2020-06-04,12:39:30,12:57:56,NA,incomplete,23,filling,0,1,left,Blue_Triangle_Chess_3.jpg,Red_Star_Chess_1.jpg,Green_Triangle_Dots_2.jpg,left,720.3349999999627,true,low,false
MqhWXdBH,3ha5odm5ld5arw3bkcnh3xryudvvsa,3dpnqgw4lps8x5ktk5otimrkmxi642,MqhWXdBH,2020-0188,2020-06-04,12:39:30,12:57:56,NA,incomplete,24,filling,0,0,left,Blue_Plus_Dots_4.jpg,Purple_Circle_Dots_2.jpg,Red_Plus_Chess_1.jpg,left,801.2749999997905,true,low,false
MqhWXdBH,3ha5odm5ld5arw3bkcnh3xryudvvsa,3dpnqgw4lps8x5ktk5otimrkmxi642,MqhWXdBH,2020-0188,2020-06-04,12:39:30,12:57:56,NA,incomplete,25,filling,0,0,right,Blue_Star_Chess_2.jpg,Red_Star_Dots_1.jpg,Green_Circle_Chess_3.jpg,right,908.2100000013597,true,low,false
MqhWXdBH,3ha5odm5ld5arw3bkcnh3xryudvvsa,3dpnqgw4lps8x5ktk5otimrkmxi642,MqhWXdBH,2020-0188,2020-06-04,12:39:30,12:57:56,NA,incomplete,26,filling,0,0,left,Green_Star_Stripes_2.jpg,Red_Triangle_Stripes_1.jpg,Blue_Star_Chess_4.jpg,right,907.7799999995623,false,low,false
MqhWXdBH,3ha5odm5ld5arw3bkcnh3xryudvvsa,3dpnqgw4lps8x5ktk5otimrkmxi642,MqhWXdBH,2020-0188,2020-06-04,12:39:30,12:57:56,NA,incomplete,27,filling,0,1,left,Blue_Circle_Stripes_1.jpg,Green_Star_Stripes_2.jpg,Red_Circle_Dots_3.jpg,left,731.8900000009453,true,low,false
MqhWXdBH,3ha5odm5ld5arw3bkcnh3xryudvvsa,3dpnqgw4lps8x5ktk5otimrkmxi642,MqhWXdBH,2020-0188,2020-06-04,12:39:30,12:57:56,NA,incomplete,28,filling,0,1,right,Blue_Circle_Dots_3.jpg,Purple_Circle_Chess_2.jpg,Green_Plus_Dots_1.jpg,right,850.6049999996321,true,low,false
MqhWXdBH,3ha5odm5ld5arw3bkcnh3xryudvvsa,3dpnqgw4lps8x5ktk5otimrkmxi642,MqhWXdBH,2020-0188,2020-06-04,12:39:30,12:57:56,NA,incomplete,29,filling,0,0,left,Purple_Circle_Chess_2.jpg,Red_Triangle_Chess_1.jpg,Blue_Circle_Dots_3.jpg,left,661.5000000002328,true,low,false
MqhWXdBH,3ha5odm5ld5arw3bkcnh3xryudvvsa,3dpnqgw4lps8x5ktk5otimrkmxi642,MqhWXdBH,2020-0188,2020-06-04,12:39:30,12:57:56,NA,incomplete,30,shape,1,1,left,Blue_Plus_Stripes_4.jpg,Green_Plus_Grid_1.jpg,Purple_Triangle_Stripes_3.jpg,right,878.3849999998929,false,low,false
MqhWXdBH,3ha5odm5ld5arw3bkcnh3xryudvvsa,3dpnqgw4lps8x5ktk5otimrkmxi642,MqhWXdBH,2020-0188,2020-06-04,12:39:30,12:57:56,NA,incomplete,31,shape,1,1,right,Green_Circle_Dots_1.jpg,Blue_Plus_Dots_3.jpg,Red_Circle_Grid_2.jpg,right,664.3450000011362,true,low,false
MqhWXdBH,3ha5odm5ld5arw3bkcnh3xryudvvsa,3dpnqgw4lps8x5ktk5otimrkmxi642,MqhWXdBH,2020-0188,2020-06-04,12:39:30,12:57:56,NA,incomplete,32,shape,1,0,left,Blue_Star_Grid_4.jpg,Green_Star_Dots_1.jpg,Red_Plus_Grid_3.jpg,left,618.1799999994691,true,low,false
MqhWXdBH,3ha5odm5ld5arw3bkcnh3xryudvvsa,3dpnqgw4lps8x5ktk5otimrkmxi642,MqhWXdBH,2020-0188,2020-06-04,12:39:30,12:57:56,NA,incomplete,33,shape,1,1,left,Purple_Triangle_Chess_1.jpg,Blue_Triangle_Grid_4.jpg,Green_Star_Chess_2.jpg,right,756.9899999997579,false,low,false
MqhWXdBH,3ha5odm5ld5arw3bkcnh3xryudvvsa,3dpnqgw4lps8x5ktk5otimrkmxi642,MqhWXdBH,2020-0188,2020-06-04,12:39:30,12:57:56,NA,incomplete,34,shape,1,1,left,Red_Circle_Grid_1.jpg,Purple_Circle_Dots_2.jpg,Blue_Star_Grid_3.jpg,right,844.1800000000512,false,low,false
MqhWXdBH,3ha5odm5ld5arw3bkcnh3xryudvvsa,3dpnqgw4lps8x5ktk5otimrkmxi642,MqhWXdBH,2020-0188,2020-06-04,12:39:30,12:57:56,NA,incomplete,35,shape,1,1,left,Green_Plus_Chess_2.jpg,Blue_Plus_Dots_4.jpg,Purple_Star_Chess_3.jpg,left,1117.5499999991152,true,low,false
MqhWXdBH,3ha5odm5ld5arw3bkcnh3xryudvvsa,3dpnqgw4lps8x5ktk5otimrkmxi642,MqhWXdBH,2020-0188,2020-06-04,12:39:30,12:57:56,NA,incomplete,36,shape,1,1,right,Purple_Star_Grid_1.jpg,Red_Circle_Grid_4.jpg,Green_Star_Dots_3.jpg,right,605.7849999996834,true,low,false
MqhWXdBH,3ha5odm5ld5arw3bkcnh3xryudvvsa,3dpnqgw4lps8x5ktk5otimrkmxi642,MqhWXdBH,2020-0188,2020-06-04,12:39:30,12:57:56,NA,incomplete,37,shape,1,1,right,Blue_Circle_Dots_4.jpg,Green_Plus_Dots_2.jpg,Purple_Circle_Stripes_3.jpg,right,601.4999999988358,true,low,false
MqhWXdBH,3ha5odm5ld5arw3bkcnh3xryudvvsa,3dpnqgw4lps8x5ktk5otimrkmxi642,MqhWXdBH,2020-0188,2020-06-04,12:39:30,12:57:56,NA,incomplete,38,shape,1,1,right,Purple_Plus_Stripes_3.jpg,Green_Star_Stripes_4.jpg,Red_Plus_Dots_1.jpg,right,565.5700000006473,true,low,false
MqhWXdBH,3ha5odm5ld5arw3bkcnh3xryudvvsa,3dpnqgw4lps8x5ktk5otimrkmxi642,MqhWXdBH,2020-0188,2020-06-04,12:39:30,12:57:56,NA,incomplete,39,shape,1,1,right,Blue_Circle_Chess_3.jpg,Green_Triangle_Chess_2.jpg,Red_Circle_Grid_1.jpg,right,612.3900000002468,true,low,false
MqhWXdBH,3ha5odm5ld5arw3bkcnh3xryudvvsa,3dpnqgw4lps8x5ktk5otimrkmxi642,MqhWXdBH,2020-0188,2020-06-04,12:39:30,12:57:56,NA,incomplete,40,shape,1,1,left,Red_Star_Stripes_4.jpg,Blue_Star_Chess_1.jpg,Green_Triangle_Stripes_2.jpg,left,455.37499999953434,true,low,false
MqhWXdBH,3ha5odm5ld5arw3bkcnh3xryudvvsa,3dpnqgw4lps8x5ktk5otimrkmxi642,MqhWXdBH,2020-0188,2020-06-04,12:39:30,12:57:56,NA,incomplete,41,shape,1,1,left,Red_Star_Stripes_2.jpg,Blue_Star_Chess_1.jpg,Purple_Triangle_Stripes_4.jpg,left,505.0900000005495,true,low,false
MqhWXdBH,3ha5odm5ld5arw3bkcnh3xryudvvsa,3dpnqgw4lps8x5ktk5otimrkmxi642,MqhWXdBH,2020-0188,2020-06-04,12:39:30,12:57:56,NA,incomplete,42,shape,1,0,right,Blue_Circle_Grid_3.jpg,Green_Triangle_Grid_1.jpg,Red_Circle_Chess_2.jpg,right,400.9299999998184,true,low,false
MqhWXdBH,3ha5odm5ld5arw3bkcnh3xryudvvsa,3dpnqgw4lps8x5ktk5otimrkmxi642,MqhWXdBH,2020-0188,2020-06-04,12:39:30,12:57:56,NA,incomplete,43,shape,1,1,left,Red_Plus_Stripes_2.jpg,Purple_Plus_Grid_4.jpg,Green_Star_Stripes_1.jpg,left,436.9999999998836,true,low,false
MqhWXdBH,3ha5odm5ld5arw3bkcnh3xryudvvsa,3dpnqgw4lps8x5ktk5otimrkmxi642,MqhWXdBH,2020-0188,2020-06-04,12:39:30,12:57:56,NA,incomplete,44,shape,1,1,left,Blue_Star_Stripes_1.jpg,Red_Star_Dots_2.jpg,Purple_Plus_Stripes_3.jpg,left,543.6549999994459,true,low,false
MqhWXdBH,3ha5odm5ld5arw3bkcnh3xryudvvsa,3dpnqgw4lps8x5ktk5otimrkmxi642,MqhWXdBH,2020-0188,2020-06-04,12:39:30,12:57:56,NA,incomplete,45,shape,1,0,left,Green_Star_Dots_3.jpg,Blue_Star_Grid_1.jpg,Purple_Triangle_Dots_4.jpg,left,455.3300000006566,true,low,false
MqhWXdBH,3ha5odm5ld5arw3bkcnh3xryudvvsa,3dpnqgw4lps8x5ktk5otimrkmxi642,MqhWXdBH,2020-0188,2020-06-04,12:39:30,12:57:56,NA,incomplete,46,shape,1,1,left,Red_Plus_Dots_3.jpg,Green_Plus_Grid_4.jpg,Purple_Star_Dots_1.jpg,left,584.2800000009593,true,low,false
MqhWXdBH,3ha5odm5ld5arw3bkcnh3xryudvvsa,3dpnqgw4lps8x5ktk5otimrkmxi642,MqhWXdBH,2020-0188,2020-06-04,12:39:30,12:57:56,NA,incomplete,47,shape,1,0,right,Green_Star_Chess_3.jpg,Red_Circle_Chess_1.jpg,Purple_Star_Grid_4.jpg,right,421.2800000004936,true,low,false
MqhWXdBH,3ha5odm5ld5arw3bkcnh3xryudvvsa,3dpnqgw4lps8x5ktk5otimrkmxi642,MqhWXdBH,2020-0188,2020-06-04,12:39:30,12:57:56,NA,incomplete,48,shape,1,1,left,Blue_Plus_Dots_3.jpg,Red_Plus_Chess_1.jpg,Green_Circle_Dots_4.jpg,left,472.28499999979977,true,low,false
MqhWXdBH,3ha5odm5ld5arw3bkcnh3xryudvvsa,3dpnqgw4lps8x5ktk5otimrkmxi642,MqhWXdBH,2020-0188,2020-06-04,12:39:30,12:57:56,NA,incomplete,49,shape,1,1,left,Red_Plus_Chess_4.jpg,Green_Plus_Dots_2.jpg,Purple_Triangle_Chess_1.jpg,left,545.1450000000186,true,low,false
MqhWXdBH,3ha5odm5ld5arw3bkcnh3xryudvvsa,3dpnqgw4lps8x5ktk5otimrkmxi642,MqhWXdBH,2020-0188,2020-06-04,12:39:30,12:57:56,NA,incomplete,50,shape,1,1,left,Green_Plus_Grid_2.jpg,Blue_Plus_Chess_1.jpg,Red_Star_Grid_3.jpg,left,496.1199999997625,true,low,false
MqhWXdBH,3ha5odm5ld5arw3bkcnh3xryudvvsa,3dpnqgw4lps8x5ktk5otimrkmxi642,MqhWXdBH,2020-0188,2020-06-04,12:39:30,12:57:56,NA,incomplete,51,shape,1,1,right,Green_Circle_Stripes_3.jpg,Blue_Triangle_Stripes_1.jpg,Red_Circle_Chess_4.jpg,right,441.7100000010105,true,low,false
MqhWXdBH,3ha5odm5ld5arw3bkcnh3xryudvvsa,3dpnqgw4lps8x5ktk5otimrkmxi642,MqhWXdBH,2020-0188,2020-06-04,12:39:30,12:57:56,NA,incomplete,52,shape,1,0,right,Purple_Circle_Stripes_2.jpg,Red_Triangle_Stripes_4.jpg,Green_Circle_Chess_1.jpg,right,507.84000000020023,true,low,false
MqhWXdBH,3ha5odm5ld5arw3bkcnh3xryudvvsa,3dpnqgw4lps8x5ktk5otimrkmxi642,MqhWXdBH,2020-0188,2020-06-04,12:39:30,12:57:56,NA,incomplete,53,shape,1,1,left,Red_Plus_Dots_1.jpg,Green_Plus_Grid_2.jpg,Blue_Circle_Dots_3.jpg,left,467.490000000922,true,low,false
MqhWXdBH,3ha5odm5ld5arw3bkcnh3xryudvvsa,3dpnqgw4lps8x5ktk5otimrkmxi642,MqhWXdBH,2020-0188,2020-06-04,12:39:30,12:57:56,NA,incomplete,54,shape,1,1,right,Blue_Plus_Grid_2.jpg,Red_Star_Grid_4.jpg,Purple_Plus_Stripes_3.jpg,right,500.5550000006333,true,low,false
MqhWXdBH,3ha5odm5ld5arw3bkcnh3xryudvvsa,3dpnqgw4lps8x5ktk5otimrkmxi642,MqhWXdBH,2020-0188,2020-06-04,12:39:30,12:57:56,NA,incomplete,55,shape,1,1,left,Red_Circle_Stripes_3.jpg,Green_Circle_Dots_1.jpg,Blue_Plus_Stripes_2.jpg,left,404.3849999997765,true,low,false
MqhWXdBH,3ha5odm5ld5arw3bkcnh3xryudvvsa,3dpnqgw4lps8x5ktk5otimrkmxi642,MqhWXdBH,2020-0188,2020-06-04,12:39:30,12:57:56,NA,incomplete,56,shape,1,1,left,Red_Plus_Grid_4.jpg,Blue_Plus_Stripes_3.jpg,Purple_Triangle_Grid_1.jpg,left,448.3799999997718,true,low,false
MqhWXdBH,3ha5odm5ld5arw3bkcnh3xryudvvsa,3dpnqgw4lps8x5ktk5otimrkmxi642,MqhWXdBH,2020-0188,2020-06-04,12:39:30,12:57:56,NA,incomplete,57,shape,1,1,right,Red_Star_Stripes_4.jpg,Purple_Triangle_Stripes_3.jpg,Green_Star_Dots_2.jpg,right,484.27000000083353,true,low,false
MqhWXdBH,3ha5odm5ld5arw3bkcnh3xryudvvsa,3dpnqgw4lps8x5ktk5otimrkmxi642,MqhWXdBH,2020-0188,2020-06-04,12:39:30,12:57:56,NA,incomplete,58,shape,1,1,left,Green_Plus_Chess_3.jpg,Red_Plus_Grid_2.jpg,Blue_Circle_Chess_1.jpg,left,444.21499999950174,true,low,false
MqhWXdBH,3ha5odm5ld5arw3bkcnh3xryudvvsa,3dpnqgw4lps8x5ktk5otimrkmxi642,MqhWXdBH,2020-0188,2020-06-04,12:39:30,12:57:56,NA,incomplete,59,shape,1,1,right,Green_Plus_Dots_1.jpg,Purple_Triangle_Dots_4.jpg,Blue_Plus_Stripes_2.jpg,right,445.8450000002049,true,low,false
MqhWXdBH,3ha5odm5ld5arw3bkcnh3xryudvvsa,3dpnqgw4lps8x5ktk5otimrkmxi642,MqhWXdBH,2020-0188,2020-06-04,12:39:30,12:57:56,NA,incomplete,60,filling,0,1,right,Blue_Plus_Stripes_2.jpg,Purple_Plus_Chess_1.jpg,Red_Circle_Stripes_4.jpg,left,408.9699999985751,false,low,false
MqhWXdBH,3ha5odm5ld5arw3bkcnh3xryudvvsa,3dpnqgw4lps8x5ktk5otimrkmxi642,MqhWXdBH,2020-0188,2020-06-04,12:39:30,12:57:56,NA,incomplete,61,filling,0,0,right,Purple_Star_Grid_3.jpg,Blue_Star_Chess_4.jpg,Red_Plus_Grid_2.jpg,left,428.67499999923166,false,low,false
MqhWXdBH,3ha5odm5ld5arw3bkcnh3xryudvvsa,3dpnqgw4lps8x5ktk5otimrkmxi642,MqhWXdBH,2020-0188,2020-06-04,12:39:30,12:57:56,NA,incomplete,62,filling,0,0,right,Green_Triangle_Chess_1.jpg,Purple_Triangle_Stripes_2.jpg,Red_Plus_Chess_4.jpg,left,424.7699999996694,false,low,false
MqhWXdBH,3ha5odm5ld5arw3bkcnh3xryudvvsa,3dpnqgw4lps8x5ktk5otimrkmxi642,MqhWXdBH,2020-0188,2020-06-04,12:39:30,12:57:56,NA,incomplete,63,filling,0,1,right,Purple_Triangle_Grid_2.jpg,Red_Triangle_Chess_4.jpg,Blue_Circle_Grid_3.jpg,left,476.41000000108033,false,low,false
MqhWXdBH,3ha5odm5ld5arw3bkcnh3xryudvvsa,3dpnqgw4lps8x5ktk5otimrkmxi642,MqhWXdBH,2020-0188,2020-06-04,12:39:30,12:57:56,NA,incomplete,64,filling,0,1,left,Red_Star_Grid_4.jpg,Purple_Triangle_Grid_2.jpg,Green_Star_Stripes_1.jpg,right,556.6149999994086,false,low,false
MqhWXdBH,3ha5odm5ld5arw3bkcnh3xryudvvsa,3dpnqgw4lps8x5ktk5otimrkmxi642,MqhWXdBH,2020-0188,2020-06-04,12:39:30,12:57:56,NA,incomplete,65,filling,0,1,left,Purple_Circle_Grid_4.jpg,Blue_Triangle_Grid_1.jpg,Red_Circle_Dots_3.jpg,right,498.1600000009639,false,low,false
MqhWXdBH,3ha5odm5ld5arw3bkcnh3xryudvvsa,3dpnqgw4lps8x5ktk5otimrkmxi642,MqhWXdBH,2020-0188,2020-06-04,12:39:30,12:57:56,NA,incomplete,66,filling,0,0,right,Green_Circle_Stripes_1.jpg,Purple_Circle_Grid_2.jpg,Red_Triangle_Stripes_4.jpg,right,715.1499999999069,true,low,false
MqhWXdBH,3ha5odm5ld5arw3bkcnh3xryudvvsa,3dpnqgw4lps8x5ktk5otimrkmxi642,MqhWXdBH,2020-0188,2020-06-04,12:39:30,12:57:56,NA,incomplete,67,filling,0,1,right,Red_Triangle_Stripes_4.jpg,Blue_Triangle_Chess_3.jpg,Purple_Circle_Stripes_1.jpg,right,739.1750000006286,true,low,false
MqhWXdBH,3ha5odm5ld5arw3bkcnh3xryudvvsa,3dpnqgw4lps8x5ktk5otimrkmxi642,MqhWXdBH,2020-0188,2020-06-04,12:39:30,12:57:56,NA,incomplete,68,filling,0,1,right,Red_Circle_Dots_1.jpg,Green_Circle_Chess_4.jpg,Purple_Plus_Dots_3.jpg,right,731.195000000298,true,low,false
MqhWXdBH,3ha5odm5ld5arw3bkcnh3xryudvvsa,3dpnqgw4lps8x5ktk5otimrkmxi642,MqhWXdBH,2020-0188,2020-06-04,12:39:30,12:57:56,NA,incomplete,69,filling,0,1,left,Blue_Plus_Dots_2.jpg,Red_Star_Dots_1.jpg,Green_Plus_Chess_4.jpg,right,720.8200000004144,false,low,false
MqhWXdBH,3ha5odm5ld5arw3bkcnh3xryudvvsa,3dpnqgw4lps8x5ktk5otimrkmxi642,MqhWXdBH,2020-0188,2020-06-04,12:39:30,12:57:56,NA,incomplete,70,filling,0,1,left,Purple_Plus_Chess_2.jpg,Blue_Circle_Chess_3.jpg,Red_Plus_Grid_4.jpg,left,792.9050000001444,true,low,false
MqhWXdBH,3ha5odm5ld5arw3bkcnh3xryudvvsa,3dpnqgw4lps8x5ktk5otimrkmxi642,MqhWXdBH,2020-0188,2020-06-04,12:39:30,12:57:56,NA,incomplete,71,filling,0,1,left,Green_Triangle_Stripes_2.jpg,Blue_Circle_Stripes_1.jpg,Purple_Triangle_Grid_3.jpg,left,701.4600000001956,true,low,false
MqhWXdBH,3ha5odm5ld5arw3bkcnh3xryudvvsa,3dpnqgw4lps8x5ktk5otimrkmxi642,MqhWXdBH,2020-0188,2020-06-04,12:39:30,12:57:56,NA,incomplete,72,filling,0,0,right,Blue_Star_Stripes_3.jpg,Green_Star_Grid_1.jpg,Red_Circle_Stripes_4.jpg,right,749.4899999983609,true,low,false
MqhWXdBH,3ha5odm5ld5arw3bkcnh3xryudvvsa,3dpnqgw4lps8x5ktk5otimrkmxi642,MqhWXdBH,2020-0188,2020-06-04,12:39:30,12:57:56,NA,incomplete,73,filling,0,1,right,Red_Plus_Grid_1.jpg,Purple_Plus_Stripes_2.jpg,Blue_Triangle_Grid_4.jpg,right,892.2999999994645,true,low,false
MqhWXdBH,3ha5odm5ld5arw3bkcnh3xryudvvsa,3dpnqgw4lps8x5ktk5otimrkmxi642,MqhWXdBH,2020-0188,2020-06-04,12:39:30,12:57:56,NA,incomplete,74,filling,0,1,right,Blue_Star_Chess_4.jpg,Purple_Star_Stripes_3.jpg,Green_Plus_Chess_2.jpg,right,828.3200000005309,true,low,false
MqhWXdBH,3ha5odm5ld5arw3bkcnh3xryudvvsa,3dpnqgw4lps8x5ktk5otimrkmxi642,MqhWXdBH,2020-0188,2020-06-04,12:39:30,12:57:56,NA,incomplete,75,filling,0,1,left,Purple_Circle_Grid_4.jpg,Green_Triangle_Grid_1.jpg,Red_Circle_Dots_2.jpg,left,760.0849999999627,true,low,false
MqhWXdBH,3ha5odm5ld5arw3bkcnh3xryudvvsa,3dpnqgw4lps8x5ktk5otimrkmxi642,MqhWXdBH,2020-0188,2020-06-04,12:39:30,12:57:56,NA,incomplete,76,filling,0,1,right,Blue_Triangle_Stripes_1.jpg,Green_Triangle_Dots_2.jpg,Red_Circle_Stripes_4.jpg,right,685.9500000010012,true,low,false
MqhWXdBH,3ha5odm5ld5arw3bkcnh3xryudvvsa,3dpnqgw4lps8x5ktk5otimrkmxi642,MqhWXdBH,2020-0188,2020-06-04,12:39:30,12:57:56,NA,incomplete,77,filling,0,0,left,Blue_Triangle_Stripes_2.jpg,Purple_Plus_Stripes_1.jpg,Green_Triangle_Chess_3.jpg,left,638.0099999988452,true,low,false
MqhWXdBH,3ha5odm5ld5arw3bkcnh3xryudvvsa,3dpnqgw4lps8x5ktk5otimrkmxi642,MqhWXdBH,2020-0188,2020-06-04,12:39:30,12:57:56,NA,incomplete,78,filling,0,1,right,Blue_Triangle_Grid_4.jpg,Red_Triangle_Chess_1.jpg,Green_Star_Grid_2.jpg,right,785.7800000001444,true,low,false
MqhWXdBH,3ha5odm5ld5arw3bkcnh3xryudvvsa,3dpnqgw4lps8x5ktk5otimrkmxi642,MqhWXdBH,2020-0188,2020-06-04,12:39:30,12:57:56,NA,incomplete,79,filling,0,1,left,Blue_Triangle_Stripes_1.jpg,Purple_Star_Stripes_3.jpg,Red_Triangle_Dots_4.jpg,left,597.624999998603,true,low,false
MqhWXdBH,3ha5odm5ld5arw3bkcnh3xryudvvsa,3dpnqgw4lps8x5ktk5otimrkmxi642,MqhWXdBH,2020-0188,2020-06-04,12:39:30,12:57:56,NA,incomplete,80,filling,0,1,right,Red_Plus_Chess_3.jpg,Blue_Plus_Stripes_4.jpg,Purple_Star_Chess_1.jpg,right,690.5250000000233,true,low,false
MqhWXdBH,3ha5odm5ld5arw3bkcnh3xryudvvsa,3dpnqgw4lps8x5ktk5otimrkmxi642,MqhWXdBH,2020-0188,2020-06-04,12:39:30,12:57:56,NA,incomplete,81,filling,0,1,left,Purple_Circle_Stripes_4.jpg,Red_Star_Stripes_1.jpg,Green_Circle_Chess_3.jpg,left,666.1550000007264,true,low,false
MqhWXdBH,3ha5odm5ld5arw3bkcnh3xryudvvsa,3dpnqgw4lps8x5ktk5otimrkmxi642,MqhWXdBH,2020-0188,2020-06-04,12:39:30,12:57:56,NA,incomplete,82,filling,0,1,right,Green_Triangle_Grid_4.jpg,Purple_Triangle_Chess_3.jpg,Blue_Plus_Grid_1.jpg,right,588.4850000003353,true,low,false
MqhWXdBH,3ha5odm5ld5arw3bkcnh3xryudvvsa,3dpnqgw4lps8x5ktk5otimrkmxi642,MqhWXdBH,2020-0188,2020-06-04,12:39:30,12:57:56,NA,incomplete,83,filling,0,1,right,Purple_Plus_Chess_3.jpg,Blue_Plus_Grid_1.jpg,Red_Star_Chess_4.jpg,right,737.839999999851,true,low,false
MqhWXdBH,3ha5odm5ld5arw3bkcnh3xryudvvsa,3dpnqgw4lps8x5ktk5otimrkmxi642,MqhWXdBH,2020-0188,2020-06-04,12:39:30,12:57:56,NA,incomplete,84,filling,0,1,left,Purple_Circle_Dots_3.jpg,Green_Star_Dots_1.jpg,Blue_Circle_Stripes_2.jpg,left,599.0949999995064,true,low,false
MqhWXdBH,3ha5odm5ld5arw3bkcnh3xryudvvsa,3dpnqgw4lps8x5ktk5otimrkmxi642,MqhWXdBH,2020-0188,2020-06-04,12:39:30,12:57:56,NA,incomplete,85,filling,0,1,right,Blue_Triangle_Stripes_3.jpg,Green_Triangle_Dots_4.jpg,Purple_Circle_Stripes_2.jpg,right,635.8899999995483,true,low,false
MqhWXdBH,3ha5odm5ld5arw3bkcnh3xryudvvsa,3dpnqgw4lps8x5ktk5otimrkmxi642,MqhWXdBH,2020-0188,2020-06-04,12:39:30,12:57:56,NA,incomplete,86,filling,0,1,right,Red_Star_Stripes_1.jpg,Purple_Star_Grid_4.jpg,Green_Plus_Stripes_2.jpg,right,726.7649999994319,true,low,false
MqhWXdBH,3ha5odm5ld5arw3bkcnh3xryudvvsa,3dpnqgw4lps8x5ktk5otimrkmxi642,MqhWXdBH,2020-0188,2020-06-04,12:39:30,12:57:56,NA,incomplete,87,filling,0,1,left,Purple_Circle_Dots_2.jpg,Red_Plus_Dots_4.jpg,Green_Circle_Stripes_1.jpg,right,661.7000000005355,false,low,false
MqhWXdBH,3ha5odm5ld5arw3bkcnh3xryudvvsa,3dpnqgw4lps8x5ktk5otimrkmxi642,MqhWXdBH,2020-0188,2020-06-04,12:39:30,12:57:56,NA,incomplete,88,filling,0,0,right,Red_Triangle_Dots_1.jpg,Blue_Triangle_Grid_4.jpg,Green_Circle_Dots_2.jpg,right,744.4699999996228,true,low,false
MqhWXdBH,3ha5odm5ld5arw3bkcnh3xryudvvsa,3dpnqgw4lps8x5ktk5otimrkmxi642,MqhWXdBH,2020-0188,2020-06-04,12:39:30,12:57:56,NA,incomplete,89,filling,0,1,left,Red_Triangle_Grid_1.jpg,Purple_Circle_Grid_4.jpg,Blue_Triangle_Chess_2.jpg,left,782.4199999994598,true,low,false
MqhWXdBH,3ha5odm5ld5arw3bkcnh3xryudvvsa,3dpnqgw4lps8x5ktk5otimrkmxi642,MqhWXdBH,2020-0188,2020-06-04,12:39:30,12:57:56,NA,incomplete,90,shape,1,1,left,Purple_Star_Dots_3.jpg,Blue_Star_Stripes_4.jpg,Green_Plus_Dots_2.jpg,right,843.3850000001257,false,low,false
MqhWXdBH,3ha5odm5ld5arw3bkcnh3xryudvvsa,3dpnqgw4lps8x5ktk5otimrkmxi642,MqhWXdBH,2020-0188,2020-06-04,12:39:30,12:57:56,NA,incomplete,91,shape,1,1,left,Green_Circle_Chess_2.jpg,Blue_Circle_Stripes_1.jpg,Purple_Star_Chess_4.jpg,left,710.2150000010151,true,low,false
MqhWXdBH,3ha5odm5ld5arw3bkcnh3xryudvvsa,3dpnqgw4lps8x5ktk5otimrkmxi642,MqhWXdBH,2020-0188,2020-06-04,12:39:30,12:57:56,NA,incomplete,92,shape,1,1,left,Blue_Triangle_Dots_4.jpg,Purple_Triangle_Stripes_2.jpg,Green_Circle_Dots_1.jpg,left,533.7749999999069,true,low,false
MqhWXdBH,3ha5odm5ld5arw3bkcnh3xryudvvsa,3dpnqgw4lps8x5ktk5otimrkmxi642,MqhWXdBH,2020-0188,2020-06-04,12:39:30,12:57:56,NA,incomplete,93,shape,1,1,left,Red_Triangle_Grid_3.jpg,Blue_Triangle_Dots_1.jpg,Purple_Star_Grid_4.jpg,left,509.9850000005681,true,low,false
MqhWXdBH,3ha5odm5ld5arw3bkcnh3xryudvvsa,3dpnqgw4lps8x5ktk5otimrkmxi642,MqhWXdBH,2020-0188,2020-06-04,12:39:30,12:57:56,NA,incomplete,94,shape,1,1,left,Purple_Plus_Chess_2.jpg,Green_Plus_Dots_4.jpg,Blue_Circle_Chess_3.jpg,left,484.68500000133645,true,low,false
MqhWXdBH,3ha5odm5ld5arw3bkcnh3xryudvvsa,3dpnqgw4lps8x5ktk5otimrkmxi642,MqhWXdBH,2020-0188,2020-06-04,12:39:30,12:57:56,NA,incomplete,95,shape,1,1,left,Purple_Star_Grid_4.jpg,Red_Star_Stripes_1.jpg,Green_Circle_Grid_3.jpg,left,541.4300000012154,true,low,false
MqhWXdBH,3ha5odm5ld5arw3bkcnh3xryudvvsa,3dpnqgw4lps8x5ktk5otimrkmxi642,MqhWXdBH,2020-0188,2020-06-04,12:39:30,12:57:56,NA,incomplete,96,shape,1,0,left,Green_Circle_Stripes_2.jpg,Purple_Circle_Dots_3.jpg,Blue_Star_Stripes_1.jpg,left,620.7599999997765,true,low,false
MqhWXdBH,3ha5odm5ld5arw3bkcnh3xryudvvsa,3dpnqgw4lps8x5ktk5otimrkmxi642,MqhWXdBH,2020-0188,2020-06-04,12:39:30,12:57:56,NA,incomplete,97,shape,1,0,right,Purple_Triangle_Dots_1.jpg,Red_Circle_Dots_4.jpg,Blue_Triangle_Grid_3.jpg,right,479.42500000132713,true,low,false
MqhWXdBH,3ha5odm5ld5arw3bkcnh3xryudvvsa,3dpnqgw4lps8x5ktk5otimrkmxi642,MqhWXdBH,2020-0188,2020-06-04,12:39:30,12:57:56,NA,incomplete,98,shape,1,1,right,Green_Triangle_Dots_1.jpg,Blue_Circle_Dots_3.jpg,Purple_Triangle_Stripes_4.jpg,left,673.4249999991152,false,low,false
MqhWXdBH,3ha5odm5ld5arw3bkcnh3xryudvvsa,3dpnqgw4lps8x5ktk5otimrkmxi642,MqhWXdBH,2020-0188,2020-06-04,12:39:30,12:57:56,NA,incomplete,99,shape,1,1,right,Green_Plus_Stripes_2.jpg,Blue_Star_Stripes_3.jpg,Red_Plus_Dots_1.jpg,right,610.2499999996508,true,low,false
MqhWXdBH,3ha5odm5ld5arw3bkcnh3xryudvvsa,3dpnqgw4lps8x5ktk5otimrkmxi642,MqhWXdBH,2020-0188,2020-06-04,12:39:30,12:57:56,NA,incomplete,100,shape,1,1,right,Green_Circle_Dots_3.jpg,Red_Triangle_Dots_1.jpg,Blue_Circle_Stripes_2.jpg,right,605.9800000002142,true,low,false
MqhWXdBH,3ha5odm5ld5arw3bkcnh3xryudvvsa,3dpnqgw4lps8x5ktk5otimrkmxi642,MqhWXdBH,2020-0188,2020-06-04,12:39:30,12:57:56,NA,incomplete,101,shape,1,1,right,Green_Triangle_Stripes_3.jpg,Purple_Plus_Stripes_1.jpg,Red_Triangle_Chess_2.jpg,right,449.9899999991758,true,low,false
MqhWXdBH,3ha5odm5ld5arw3bkcnh3xryudvvsa,3dpnqgw4lps8x5ktk5otimrkmxi642,MqhWXdBH,2020-0188,2020-06-04,12:39:30,12:57:56,NA,incomplete,102,shape,1,1,left,Green_Star_Chess_1.jpg,Blue_Star_Grid_2.jpg,Red_Circle_Chess_4.jpg,left,516.7350000010338,true,low,false
MqhWXdBH,3ha5odm5ld5arw3bkcnh3xryudvvsa,3dpnqgw4lps8x5ktk5otimrkmxi642,MqhWXdBH,2020-0188,2020-06-04,12:39:30,12:57:56,NA,incomplete,103,shape,1,1,left,Green_Triangle_Stripes_2.jpg,Blue_Triangle_Grid_1.jpg,Purple_Star_Stripes_3.jpg,left,565.8249999996042,true,low,false
MqhWXdBH,3ha5odm5ld5arw3bkcnh3xryudvvsa,3dpnqgw4lps8x5ktk5otimrkmxi642,MqhWXdBH,2020-0188,2020-06-04,12:39:30,12:57:56,NA,incomplete,104,shape,1,1,right,Purple_Star_Chess_1.jpg,Red_Plus_Chess_3.jpg,Green_Star_Grid_2.jpg,right,466.3600000003353,true,low,false
MqhWXdBH,3ha5odm5ld5arw3bkcnh3xryudvvsa,3dpnqgw4lps8x5ktk5otimrkmxi642,MqhWXdBH,2020-0188,2020-06-04,12:39:30,12:57:56,NA,incomplete,105,shape,1,1,right,Blue_Plus_Grid_4.jpg,Green_Triangle_Grid_1.jpg,Purple_Plus_Dots_3.jpg,right,540.7300000005635,true,low,false
MqhWXdBH,3ha5odm5ld5arw3bkcnh3xryudvvsa,3dpnqgw4lps8x5ktk5otimrkmxi642,MqhWXdBH,2020-0188,2020-06-04,12:39:30,12:57:56,NA,incomplete,106,shape,1,0,left,Green_Triangle_Stripes_4.jpg,Purple_Triangle_Dots_1.jpg,Blue_Plus_Stripes_2.jpg,left,451.489999999525,true,low,false
MqhWXdBH,3ha5odm5ld5arw3bkcnh3xryudvvsa,3dpnqgw4lps8x5ktk5otimrkmxi642,MqhWXdBH,2020-0188,2020-06-04,12:39:30,12:57:56,NA,incomplete,107,shape,1,0,left,Red_Triangle_Dots_2.jpg,Purple_Triangle_Grid_3.jpg,Green_Star_Dots_1.jpg,left,533.2149999995017,true,low,false
MqhWXdBH,3ha5odm5ld5arw3bkcnh3xryudvvsa,3dpnqgw4lps8x5ktk5otimrkmxi642,MqhWXdBH,2020-0188,2020-06-04,12:39:30,12:57:56,NA,incomplete,108,shape,1,1,right,Purple_Plus_Dots_3.jpg,Green_Circle_Dots_1.jpg,Blue_Plus_Grid_2.jpg,right,548.0399999995716,true,low,false
MqhWXdBH,3ha5odm5ld5arw3bkcnh3xryudvvsa,3dpnqgw4lps8x5ktk5otimrkmxi642,MqhWXdBH,2020-0188,2020-06-04,12:39:30,12:57:56,NA,incomplete,109,shape,1,0,left,Blue_Plus_Chess_4.jpg,Red_Plus_Stripes_1.jpg,Green_Triangle_Chess_2.jpg,left,532.2100000012433,true,low,false
MqhWXdBH,3ha5odm5ld5arw3bkcnh3xryudvvsa,3dpnqgw4lps8x5ktk5otimrkmxi642,MqhWXdBH,2020-0188,2020-06-04,12:39:30,12:57:56,NA,incomplete,110,shape,1,1,right,Green_Star_Grid_1.jpg,Red_Plus_Grid_2.jpg,Blue_Star_Dots_3.jpg,right,529.9599999998463,true,low,false
MqhWXdBH,3ha5odm5ld5arw3bkcnh3xryudvvsa,3dpnqgw4lps8x5ktk5otimrkmxi642,MqhWXdBH,2020-0188,2020-06-04,12:39:30,12:57:56,NA,incomplete,111,shape,1,1,left,Green_Circle_Grid_4.jpg,Red_Circle_Chess_1.jpg,Blue_Triangle_Grid_2.jpg,left,441.89000000001397,true,low,false
MqhWXdBH,3ha5odm5ld5arw3bkcnh3xryudvvsa,3dpnqgw4lps8x5ktk5otimrkmxi642,MqhWXdBH,2020-0188,2020-06-04,12:39:30,12:57:56,NA,incomplete,112,shape,1,1,left,Blue_Circle_Chess_3.jpg,Green_Circle_Grid_2.jpg,Purple_Plus_Chess_1.jpg,left,451.7299999988172,true,low,false
MqhWXdBH,3ha5odm5ld5arw3bkcnh3xryudvvsa,3dpnqgw4lps8x5ktk5otimrkmxi642,MqhWXdBH,2020-0188,2020-06-04,12:39:30,12:57:56,NA,incomplete,113,shape,1,0,right,Purple_Triangle_Dots_4.jpg,Red_Star_Dots_3.jpg,Blue_Triangle_Grid_1.jpg,right,454.620000000461,true,low,false
MqhWXdBH,3ha5odm5ld5arw3bkcnh3xryudvvsa,3dpnqgw4lps8x5ktk5otimrkmxi642,MqhWXdBH,2020-0188,2020-06-04,12:39:30,12:57:56,NA,incomplete,114,shape,1,1,left,Blue_Circle_Grid_2.jpg,Purple_Circle_Stripes_1.jpg,Red_Triangle_Grid_3.jpg,left,496.44999999867287,true,low,false
MqhWXdBH,3ha5odm5ld5arw3bkcnh3xryudvvsa,3dpnqgw4lps8x5ktk5otimrkmxi642,MqhWXdBH,2020-0188,2020-06-04,12:39:30,12:57:56,NA,incomplete,115,shape,1,1,left,Red_Star_Stripes_4.jpg,Purple_Star_Chess_2.jpg,Green_Plus_Stripes_1.jpg,left,489.2650000001304,true,low,false
MqhWXdBH,3ha5odm5ld5arw3bkcnh3xryudvvsa,3dpnqgw4lps8x5ktk5otimrkmxi642,MqhWXdBH,2020-0188,2020-06-04,12:39:30,12:57:56,NA,incomplete,116,shape,1,1,right,Purple_Star_Dots_4.jpg,Green_Triangle_Dots_2.jpg,Blue_Star_Stripes_1.jpg,right,497.2799999996787,true,low,false
MqhWXdBH,3ha5odm5ld5arw3bkcnh3xryudvvsa,3dpnqgw4lps8x5ktk5otimrkmxi642,MqhWXdBH,2020-0188,2020-06-04,12:39:30,12:57:56,NA,incomplete,117,shape,1,1,left,Green_Circle_Grid_1.jpg,Blue_Circle_Stripes_4.jpg,Purple_Plus_Grid_3.jpg,left,402.3450000004377,true,low,false
MqhWXdBH,3ha5odm5ld5arw3bkcnh3xryudvvsa,3dpnqgw4lps8x5ktk5otimrkmxi642,MqhWXdBH,2020-0188,2020-06-04,12:39:30,12:57:56,NA,incomplete,118,shape,1,1,right,Blue_Star_Chess_4.jpg,Red_Triangle_Chess_3.jpg,Purple_Star_Dots_1.jpg,right,502.1100000012666,true,low,false
MqhWXdBH,3ha5odm5ld5arw3bkcnh3xryudvvsa,3dpnqgw4lps8x5ktk5otimrkmxi642,MqhWXdBH,2020-0188,2020-06-04,12:39:30,12:57:56,NA,incomplete,119,shape,1,0,left,Purple_Plus_Dots_3.jpg,Red_Plus_Grid_2.jpg,Green_Circle_Dots_1.jpg,left,422.02499999979045,true,low,false
MqhWXdBH,3ha5odm5ld5arw3bkcnh3xryudvvsa,3dpnqgw4lps8x5ktk5otimrkmxi642,MqhWXdBH,2020-0188,2020-06-04,12:39:30,12:57:56,NA,incomplete,120,race,2,0,right,C_F_16.jpg,A_F_02.jpg,C_M_09.jpg,NA,NA,NA,low,false
MqhWXdBH,3ha5odm5ld5arw3bkcnh3xryudvvsa,3dpnqgw4lps8x5ktk5otimrkmxi642,MqhWXdBH,2020-0188,2020-06-04,12:39:30,12:57:56,NA,incomplete,121,race,2,1,right,C_F_05.jpg,A_F_12.jpg,C_M_04.jpg,left,645.28000000061,false,low,false
MqhWXdBH,3ha5odm5ld5arw3bkcnh3xryudvvsa,3dpnqgw4lps8x5ktk5otimrkmxi642,MqhWXdBH,2020-0188,2020-06-04,12:39:30,12:57:56,NA,incomplete,122,race,2,1,right,A_F_01.jpg,C_F_16.jpg,A_M_04.jpg,left,694.2200000011362,false,low,false
MqhWXdBH,3ha5odm5ld5arw3bkcnh3xryudvvsa,3dpnqgw4lps8x5ktk5otimrkmxi642,MqhWXdBH,2020-0188,2020-06-04,12:39:30,12:57:56,NA,incomplete,123,race,2,0,right,A_M_13.jpg,C_M_16.jpg,A_F_01.jpg,left,695.319999998901,false,low,false
MqhWXdBH,3ha5odm5ld5arw3bkcnh3xryudvvsa,3dpnqgw4lps8x5ktk5otimrkmxi642,MqhWXdBH,2020-0188,2020-06-04,12:39:30,12:57:56,NA,incomplete,124,race,2,1,right,C_F_07.jpg,A_F_03.jpg,C_M_14.jpg,right,975.8700000002282,true,low,false
MqhWXdBH,3ha5odm5ld5arw3bkcnh3xryudvvsa,3dpnqgw4lps8x5ktk5otimrkmxi642,MqhWXdBH,2020-0188,2020-06-04,12:39:30,12:57:56,NA,incomplete,125,race,2,1,right,C_F_07.jpg,A_F_15.jpg,C_M_06.jpg,right,820.7099999999627,true,low,false
MqhWXdBH,3ha5odm5ld5arw3bkcnh3xryudvvsa,3dpnqgw4lps8x5ktk5otimrkmxi642,MqhWXdBH,2020-0188,2020-06-04,12:39:30,12:57:56,NA,incomplete,126,race,2,1,right,C_F_08.jpg,A_F_01.jpg,C_M_04.jpg,right,841.3699999999953,true,low,false
MqhWXdBH,3ha5odm5ld5arw3bkcnh3xryudvvsa,3dpnqgw4lps8x5ktk5otimrkmxi642,MqhWXdBH,2020-0188,2020-06-04,12:39:30,12:57:56,NA,incomplete,127,race,2,1,right,A_M_06.jpg,C_M_09.jpg,A_F_04.jpg,right,939.5000000003492,true,low,false
MqhWXdBH,3ha5odm5ld5arw3bkcnh3xryudvvsa,3dpnqgw4lps8x5ktk5otimrkmxi642,MqhWXdBH,2020-0188,2020-06-04,12:39:30,12:57:56,NA,incomplete,128,race,2,1,left,C_F_15.jpg,C_M_14.jpg,A_F_09.jpg,left,993.4350000004051,true,low,false
MqhWXdBH,3ha5odm5ld5arw3bkcnh3xryudvvsa,3dpnqgw4lps8x5ktk5otimrkmxi642,MqhWXdBH,2020-0188,2020-06-04,12:39:30,12:57:56,NA,incomplete,129,race,2,1,right,A_F_11.jpg,C_F_08.jpg,A_M_07.jpg,right,814.2399999997579,true,low,false
MqhWXdBH,3ha5odm5ld5arw3bkcnh3xryudvvsa,3dpnqgw4lps8x5ktk5otimrkmxi642,MqhWXdBH,2020-0188,2020-06-04,12:39:30,12:57:56,NA,incomplete,130,race,2,1,right,A_F_15.jpg,C_F_10.jpg,A_M_07.jpg,right,922.0449999993434,true,low,false
MqhWXdBH,3ha5odm5ld5arw3bkcnh3xryudvvsa,3dpnqgw4lps8x5ktk5otimrkmxi642,MqhWXdBH,2020-0188,2020-06-04,12:39:30,12:57:56,NA,incomplete,131,race,2,1,left,A_F_16.jpg,A_M_08.jpg,C_F_13.jpg,left,835.0799999989104,true,low,false
MqhWXdBH,3ha5odm5ld5arw3bkcnh3xryudvvsa,3dpnqgw4lps8x5ktk5otimrkmxi642,MqhWXdBH,2020-0188,2020-06-04,12:39:30,12:57:56,NA,incomplete,132,race,2,1,left,C_M_04.jpg,C_F_16.jpg,A_M_15.jpg,left,747.9750000002095,true,low,false
MqhWXdBH,3ha5odm5ld5arw3bkcnh3xryudvvsa,3dpnqgw4lps8x5ktk5otimrkmxi642,MqhWXdBH,2020-0188,2020-06-04,12:39:30,12:57:56,NA,incomplete,133,race,2,1,left,A_M_04.jpg,A_F_05.jpg,C_M_15.jpg,left,930.9250000006286,true,low,false
MqhWXdBH,3ha5odm5ld5arw3bkcnh3xryudvvsa,3dpnqgw4lps8x5ktk5otimrkmxi642,MqhWXdBH,2020-0188,2020-06-04,12:39:30,12:57:56,NA,incomplete,134,race,2,1,right,A_F_06.jpg,C_F_15.jpg,A_M_11.jpg,left,1089.5600000002887,false,low,false
MqhWXdBH,3ha5odm5ld5arw3bkcnh3xryudvvsa,3dpnqgw4lps8x5ktk5otimrkmxi642,MqhWXdBH,2020-0188,2020-06-04,12:39:30,12:57:56,NA,incomplete,135,race,2,0,right,C_F_14.jpg,A_F_02.jpg,C_M_12.jpg,right,1018.5500000007451,true,low,false
MqhWXdBH,3ha5odm5ld5arw3bkcnh3xryudvvsa,3dpnqgw4lps8x5ktk5otimrkmxi642,MqhWXdBH,2020-0188,2020-06-04,12:39:30,12:57:56,NA,incomplete,136,race,2,1,right,C_F_06.jpg,A_F_07.jpg,C_M_09.jpg,right,815.460000001709,true,low,false
MqhWXdBH,3ha5odm5ld5arw3bkcnh3xryudvvsa,3dpnqgw4lps8x5ktk5otimrkmxi642,MqhWXdBH,2020-0188,2020-06-04,12:39:30,12:57:56,NA,incomplete,137,race,2,1,left,C_F_03.jpg,C_M_08.jpg,A_F_06.jpg,left,890.2600000000093,true,low,false
MqhWXdBH,3ha5odm5ld5arw3bkcnh3xryudvvsa,3dpnqgw4lps8x5ktk5otimrkmxi642,MqhWXdBH,2020-0188,2020-06-04,12:39:30,12:57:56,NA,incomplete,138,race,2,1,right,C_F_10.jpg,A_F_02.jpg,C_M_13.jpg,right,1130.979999999865,true,low,false
MqhWXdBH,3ha5odm5ld5arw3bkcnh3xryudvvsa,3dpnqgw4lps8x5ktk5otimrkmxi642,MqhWXdBH,2020-0188,2020-06-04,12:39:30,12:57:56,NA,incomplete,139,race,2,1,right,C_F_12.jpg,A_F_14.jpg,C_M_07.jpg,right,913.8400000010151,true,low,false
MqhWXdBH,3ha5odm5ld5arw3bkcnh3xryudvvsa,3dpnqgw4lps8x5ktk5otimrkmxi642,MqhWXdBH,2020-0188,2020-06-04,12:39:30,12:57:56,NA,incomplete,140,gender,3,1,left,A_M_05.jpg,C_M_10.jpg,A_F_12.jpg,right,1154.6900000012247,false,low,false
MqhWXdBH,3ha5odm5ld5arw3bkcnh3xryudvvsa,3dpnqgw4lps8x5ktk5otimrkmxi642,MqhWXdBH,2020-0188,2020-06-04,12:39:30,12:57:56,NA,incomplete,141,gender,3,0,right,A_M_08.jpg,A_F_10.jpg,C_M_11.jpg,left,879.7549999998882,false,low,false
MqhWXdBH,3ha5odm5ld5arw3bkcnh3xryudvvsa,3dpnqgw4lps8x5ktk5otimrkmxi642,MqhWXdBH,2020-0188,2020-06-04,12:39:30,12:57:56,NA,incomplete,142,gender,3,1,left,C_F_04.jpg,A_F_05.jpg,C_M_08.jpg,right,721.5149999993155,false,low,false
MqhWXdBH,3ha5odm5ld5arw3bkcnh3xryudvvsa,3dpnqgw4lps8x5ktk5otimrkmxi642,MqhWXdBH,2020-0188,2020-06-04,12:39:30,12:57:56,NA,incomplete,143,gender,3,0,right,C_M_11.jpg,C_F_05.jpg,A_M_16.jpg,left,952.5200000007171,false,low,false
MqhWXdBH,3ha5odm5ld5arw3bkcnh3xryudvvsa,3dpnqgw4lps8x5ktk5otimrkmxi642,MqhWXdBH,2020-0188,2020-06-04,12:39:30,12:57:56,NA,incomplete,144,gender,3,1,left,A_F_07.jpg,C_F_11.jpg,A_M_15.jpg,left,886.3100000016857,true,low,false
MqhWXdBH,3ha5odm5ld5arw3bkcnh3xryudvvsa,3dpnqgw4lps8x5ktk5otimrkmxi642,MqhWXdBH,2020-0188,2020-06-04,12:39:30,12:57:56,NA,incomplete,145,gender,3,1,right,A_M_04.jpg,A_F_16.jpg,C_M_10.jpg,left,912.3699999999953,false,low,false
MqhWXdBH,3ha5odm5ld5arw3bkcnh3xryudvvsa,3dpnqgw4lps8x5ktk5otimrkmxi642,MqhWXdBH,2020-0188,2020-06-04,12:39:30,12:57:56,NA,incomplete,146,gender,3,1,right,A_M_01.jpg,A_F_06.jpg,C_M_09.jpg,right,782.8600000011502,true,low,false
MqhWXdBH,3ha5odm5ld5arw3bkcnh3xryudvvsa,3dpnqgw4lps8x5ktk5otimrkmxi642,MqhWXdBH,2020-0188,2020-06-04,12:39:30,12:57:56,NA,incomplete,147,gender,3,0,left,C_F_03.jpg,A_F_13.jpg,C_M_14.jpg,left,1004.0050000007031,true,low,false
MqhWXdBH,3ha5odm5ld5arw3bkcnh3xryudvvsa,3dpnqgw4lps8x5ktk5otimrkmxi642,MqhWXdBH,2020-0188,2020-06-04,12:39:30,12:57:56,NA,incomplete,148,gender,3,1,left,A_M_13.jpg,C_M_06.jpg,A_F_10.jpg,left,991.8399999986868,true,low,false
MqhWXdBH,3ha5odm5ld5arw3bkcnh3xryudvvsa,3dpnqgw4lps8x5ktk5otimrkmxi642,MqhWXdBH,2020-0188,2020-06-04,12:39:30,12:57:56,NA,incomplete,149,gender,3,1,left,C_F_13.jpg,A_F_08.jpg,C_M_10.jpg,left,660.5899999995017,true,low,false
MqhWXdBH,3ha5odm5ld5arw3bkcnh3xryudvvsa,3dpnqgw4lps8x5ktk5otimrkmxi642,MqhWXdBH,2020-0188,2020-06-04,12:39:30,12:57:56,NA,incomplete,150,gender,3,1,left,A_F_06.jpg,C_F_13.jpg,A_M_16.jpg,right,847.2349999991711,false,low,false
MqhWXdBH,3ha5odm5ld5arw3bkcnh3xryudvvsa,3dpnqgw4lps8x5ktk5otimrkmxi642,MqhWXdBH,2020-0188,2020-06-04,12:39:30,12:57:56,NA,incomplete,151,gender,3,1,right,A_M_16.jpg,A_F_10.jpg,C_M_02.jpg,right,689.3650000002235,true,low,false
MqhWXdBH,3ha5odm5ld5arw3bkcnh3xryudvvsa,3dpnqgw4lps8x5ktk5otimrkmxi642,MqhWXdBH,2020-0188,2020-06-04,12:39:30,12:57:56,NA,incomplete,152,gender,3,1,left,A_M_04.jpg,C_M_15.jpg,A_F_01.jpg,left,762.3149999999441,true,low,false
MqhWXdBH,3ha5odm5ld5arw3bkcnh3xryudvvsa,3dpnqgw4lps8x5ktk5otimrkmxi642,MqhWXdBH,2020-0188,2020-06-04,12:39:30,12:57:56,NA,incomplete,153,gender,3,1,left,A_F_08.jpg,C_F_09.jpg,A_M_13.jpg,left,736.5449999998091,true,low,false
MqhWXdBH,3ha5odm5ld5arw3bkcnh3xryudvvsa,3dpnqgw4lps8x5ktk5otimrkmxi642,MqhWXdBH,2020-0188,2020-06-04,12:39:30,12:57:56,NA,incomplete,154,gender,3,0,left,C_M_12.jpg,A_M_13.jpg,C_F_05.jpg,left,662.940000000177,true,low,false
MqhWXdBH,3ha5odm5ld5arw3bkcnh3xryudvvsa,3dpnqgw4lps8x5ktk5otimrkmxi642,MqhWXdBH,2020-0188,2020-06-04,12:39:30,12:57:56,NA,incomplete,155,gender,3,1,left,A_F_13.jpg,C_F_02.jpg,A_M_08.jpg,left,729.9999999995343,true,low,false
MqhWXdBH,3ha5odm5ld5arw3bkcnh3xryudvvsa,3dpnqgw4lps8x5ktk5otimrkmxi642,MqhWXdBH,2020-0188,2020-06-04,12:39:30,12:57:56,NA,incomplete,156,gender,3,1,right,C_M_04.jpg,C_F_16.jpg,A_M_07.jpg,right,631.4949999996461,true,low,false
MqhWXdBH,3ha5odm5ld5arw3bkcnh3xryudvvsa,3dpnqgw4lps8x5ktk5otimrkmxi642,MqhWXdBH,2020-0188,2020-06-04,12:39:30,12:57:56,NA,incomplete,157,gender,3,1,left,C_M_13.jpg,A_M_08.jpg,C_F_03.jpg,left,562.6549999997951,true,low,false
MqhWXdBH,3ha5odm5ld5arw3bkcnh3xryudvvsa,3dpnqgw4lps8x5ktk5otimrkmxi642,MqhWXdBH,2020-0188,2020-06-04,12:39:30,12:57:56,NA,incomplete,158,gender,3,1,left,C_F_08.jpg,A_F_05.jpg,C_M_12.jpg,left,577.5300000004936,true,low,false
MqhWXdBH,3ha5odm5ld5arw3bkcnh3xryudvvsa,3dpnqgw4lps8x5ktk5otimrkmxi642,MqhWXdBH,2020-0188,2020-06-04,12:39:30,12:57:56,NA,incomplete,159,gender,3,0,left,C_F_12.jpg,A_F_16.jpg,C_M_05.jpg,left,534.429999999702,true,low,false
MqhWXdBH,3ha5odm5ld5arw3bkcnh3xryudvvsa,3dpnqgw4lps8x5ktk5otimrkmxi642,MqhWXdBH,2020-0188,2020-06-04,12:39:30,12:57:56,NA,incomplete,160,race,2,1,right,A_F_04.jpg,C_F_02.jpg,A_M_07.jpg,left,590.2549999991897,false,low,false
MqhWXdBH,3ha5odm5ld5arw3bkcnh3xryudvvsa,3dpnqgw4lps8x5ktk5otimrkmxi642,MqhWXdBH,2020-0188,2020-06-04,12:39:30,12:57:56,NA,incomplete,161,race,2,0,left,A_F_02.jpg,A_M_07.jpg,C_F_09.jpg,right,737.2149999991525,false,low,false
MqhWXdBH,3ha5odm5ld5arw3bkcnh3xryudvvsa,3dpnqgw4lps8x5ktk5otimrkmxi642,MqhWXdBH,2020-0188,2020-06-04,12:39:30,12:57:56,NA,incomplete,162,race,2,1,left,C_F_11.jpg,C_M_04.jpg,A_F_09.jpg,right,599.9599999996135,false,low,false
MqhWXdBH,3ha5odm5ld5arw3bkcnh3xryudvvsa,3dpnqgw4lps8x5ktk5otimrkmxi642,MqhWXdBH,2020-0188,2020-06-04,12:39:30,12:57:56,NA,incomplete,163,race,2,1,right,A_M_09.jpg,C_M_15.jpg,A_F_01.jpg,left,868.9149999991059,false,low,false
MqhWXdBH,3ha5odm5ld5arw3bkcnh3xryudvvsa,3dpnqgw4lps8x5ktk5otimrkmxi642,MqhWXdBH,2020-0188,2020-06-04,12:39:30,12:57:56,NA,incomplete,164,race,2,1,left,A_M_06.jpg,A_F_08.jpg,C_M_07.jpg,left,1173.9000000015367,true,low,false
MqhWXdBH,3ha5odm5ld5arw3bkcnh3xryudvvsa,3dpnqgw4lps8x5ktk5otimrkmxi642,MqhWXdBH,2020-0188,2020-06-04,12:39:30,12:57:56,NA,incomplete,165,race,2,0,right,C_M_11.jpg,A_M_16.jpg,C_F_05.jpg,right,940.3650000003399,true,low,false
MqhWXdBH,3ha5odm5ld5arw3bkcnh3xryudvvsa,3dpnqgw4lps8x5ktk5otimrkmxi642,MqhWXdBH,2020-0188,2020-06-04,12:39:30,12:57:56,NA,incomplete,166,race,2,1,left,C_F_12.jpg,C_M_07.jpg,A_F_03.jpg,left,978.3750000005821,true,low,false
MqhWXdBH,3ha5odm5ld5arw3bkcnh3xryudvvsa,3dpnqgw4lps8x5ktk5otimrkmxi642,MqhWXdBH,2020-0188,2020-06-04,12:39:30,12:57:56,NA,incomplete,167,race,2,0,right,A_F_04.jpg,C_F_05.jpg,A_M_02.jpg,right,1591.0500000008615,true,low,false
MqhWXdBH,3ha5odm5ld5arw3bkcnh3xryudvvsa,3dpnqgw4lps8x5ktk5otimrkmxi642,MqhWXdBH,2020-0188,2020-06-04,12:39:30,12:57:56,NA,incomplete,168,race,2,1,left,A_M_02.jpg,A_F_10.jpg,C_M_07.jpg,left,900.050000000163,true,low,false
MqhWXdBH,3ha5odm5ld5arw3bkcnh3xryudvvsa,3dpnqgw4lps8x5ktk5otimrkmxi642,MqhWXdBH,2020-0188,2020-06-04,12:39:30,12:57:56,NA,incomplete,169,race,2,1,left,A_M_09.jpg,A_F_03.jpg,C_M_13.jpg,left,830.2049999984447,true,low,false
MqhWXdBH,3ha5odm5ld5arw3bkcnh3xryudvvsa,3dpnqgw4lps8x5ktk5otimrkmxi642,MqhWXdBH,2020-0188,2020-06-04,12:39:30,12:57:56,NA,incomplete,170,race,2,0,left,C_F_13.jpg,C_M_03.jpg,A_F_14.jpg,left,719.6949999998324,true,low,false
MqhWXdBH,3ha5odm5ld5arw3bkcnh3xryudvvsa,3dpnqgw4lps8x5ktk5otimrkmxi642,MqhWXdBH,2020-0188,2020-06-04,12:39:30,12:57:56,NA,incomplete,171,race,2,1,right,C_M_08.jpg,A_M_13.jpg,C_F_05.jpg,right,1022.5700000009965,true,low,false
MqhWXdBH,3ha5odm5ld5arw3bkcnh3xryudvvsa,3dpnqgw4lps8x5ktk5otimrkmxi642,MqhWXdBH,2020-0188,2020-06-04,12:39:30,12:57:56,NA,incomplete,172,race,2,0,left,C_M_13.jpg,C_F_02.jpg,A_M_11.jpg,left,650.5449999986449,true,low,false
MqhWXdBH,3ha5odm5ld5arw3bkcnh3xryudvvsa,3dpnqgw4lps8x5ktk5otimrkmxi642,MqhWXdBH,2020-0188,2020-06-04,12:39:30,12:57:56,NA,incomplete,173,race,2,1,left,C_F_01.jpg,C_M_15.jpg,A_F_03.jpg,right,836.3900000003632,false,low,false
MqhWXdBH,3ha5odm5ld5arw3bkcnh3xryudvvsa,3dpnqgw4lps8x5ktk5otimrkmxi642,MqhWXdBH,2020-0188,2020-06-04,12:39:30,12:57:56,NA,incomplete,174,race,2,1,left,C_F_04.jpg,C_M_16.jpg,A_F_14.jpg,left,1488.2999999989988,true,low,false
MqhWXdBH,3ha5odm5ld5arw3bkcnh3xryudvvsa,3dpnqgw4lps8x5ktk5otimrkmxi642,MqhWXdBH,2020-0188,2020-06-04,12:39:30,12:57:56,NA,incomplete,175,race,2,0,right,C_M_07.jpg,A_M_04.jpg,C_F_11.jpg,right,855.3000000010943,true,low,false
MqhWXdBH,3ha5odm5ld5arw3bkcnh3xryudvvsa,3dpnqgw4lps8x5ktk5otimrkmxi642,MqhWXdBH,2020-0188,2020-06-04,12:39:30,12:57:56,NA,incomplete,176,race,2,1,right,A_F_05.jpg,C_F_02.jpg,A_M_09.jpg,right,761.1550000001444,true,low,false
MqhWXdBH,3ha5odm5ld5arw3bkcnh3xryudvvsa,3dpnqgw4lps8x5ktk5otimrkmxi642,MqhWXdBH,2020-0188,2020-06-04,12:39:30,12:57:56,NA,incomplete,177,race,2,1,right,A_M_08.jpg,C_M_07.jpg,A_F_11.jpg,right,848.049999998766,true,low,false
MqhWXdBH,3ha5odm5ld5arw3bkcnh3xryudvvsa,3dpnqgw4lps8x5ktk5otimrkmxi642,MqhWXdBH,2020-0188,2020-06-04,12:39:30,12:57:56,NA,incomplete,178,race,2,1,right,A_M_05.jpg,C_M_07.jpg,A_F_04.jpg,left,753.7599999996601,false,low,false
MqhWXdBH,3ha5odm5ld5arw3bkcnh3xryudvvsa,3dpnqgw4lps8x5ktk5otimrkmxi642,MqhWXdBH,2020-0188,2020-06-04,12:39:30,12:57:56,NA,incomplete,179,race,2,1,left,A_M_14.jpg,A_F_09.jpg,C_M_06.jpg,right,1096.3499999997439,false,low,false
MqhWXdBH,3ha5odm5ld5arw3bkcnh3xryudvvsa,3dpnqgw4lps8x5ktk5otimrkmxi642,MqhWXdBH,2020-0188,2020-06-04,12:39:30,12:57:56,NA,incomplete,180,gender,3,1,right,A_M_15.jpg,A_F_04.jpg,C_M_13.jpg,right,1280.5550000012154,true,low,false
MqhWXdBH,3ha5odm5ld5arw3bkcnh3xryudvvsa,3dpnqgw4lps8x5ktk5otimrkmxi642,MqhWXdBH,2020-0188,2020-06-04,12:39:30,12:57:56,NA,incomplete,181,gender,3,1,right,A_M_14.jpg,A_F_03.jpg,C_M_15.jpg,right,1106.4000000006054,true,low,false
MqhWXdBH,3ha5odm5ld5arw3bkcnh3xryudvvsa,3dpnqgw4lps8x5ktk5otimrkmxi642,MqhWXdBH,2020-0188,2020-06-04,12:39:30,12:57:56,NA,incomplete,182,gender,3,0,right,C_F_06.jpg,C_M_04.jpg,A_F_01.jpg,right,762.3149999999441,true,low,false
MqhWXdBH,3ha5odm5ld5arw3bkcnh3xryudvvsa,3dpnqgw4lps8x5ktk5otimrkmxi642,MqhWXdBH,2020-0188,2020-06-04,12:39:30,12:57:56,NA,incomplete,183,gender,3,1,left,A_M_13.jpg,C_M_14.jpg,A_F_11.jpg,left,1201.2949999989942,true,low,false
MqhWXdBH,3ha5odm5ld5arw3bkcnh3xryudvvsa,3dpnqgw4lps8x5ktk5otimrkmxi642,MqhWXdBH,2020-0188,2020-06-04,12:39:30,12:57:56,NA,incomplete,184,gender,3,0,left,A_F_07.jpg,C_F_16.jpg,A_M_03.jpg,left,683.9350000009872,true,low,false
MqhWXdBH,3ha5odm5ld5arw3bkcnh3xryudvvsa,3dpnqgw4lps8x5ktk5otimrkmxi642,MqhWXdBH,2020-0188,2020-06-04,12:39:30,12:57:56,NA,incomplete,185,gender,3,1,left,C_M_14.jpg,A_M_07.jpg,C_F_13.jpg,right,964.6400000001304,false,low,false
MqhWXdBH,3ha5odm5ld5arw3bkcnh3xryudvvsa,3dpnqgw4lps8x5ktk5otimrkmxi642,MqhWXdBH,2020-0188,2020-06-04,12:39:30,12:57:56,NA,incomplete,186,gender,3,1,left,A_F_11.jpg,C_F_07.jpg,A_M_02.jpg,left,954.5749999997206,true,low,false
MqhWXdBH,3ha5odm5ld5arw3bkcnh3xryudvvsa,3dpnqgw4lps8x5ktk5otimrkmxi642,MqhWXdBH,2020-0188,2020-06-04,12:39:30,12:57:56,NA,incomplete,187,gender,3,1,left,A_M_13.jpg,C_M_11.jpg,A_F_14.jpg,left,664.4299999988871,true,low,false
MqhWXdBH,3ha5odm5ld5arw3bkcnh3xryudvvsa,3dpnqgw4lps8x5ktk5otimrkmxi642,MqhWXdBH,2020-0188,2020-06-04,12:39:30,12:57:56,NA,incomplete,188,gender,3,0,left,A_F_14.jpg,C_F_12.jpg,A_M_02.jpg,left,787.3799999997718,true,low,false
MqhWXdBH,3ha5odm5ld5arw3bkcnh3xryudvvsa,3dpnqgw4lps8x5ktk5otimrkmxi642,MqhWXdBH,2020-0188,2020-06-04,12:39:30,12:57:56,NA,incomplete,189,gender,3,1,left,A_F_03.jpg,C_F_12.jpg,A_M_14.jpg,left,647.3499999992782,true,low,false
MqhWXdBH,3ha5odm5ld5arw3bkcnh3xryudvvsa,3dpnqgw4lps8x5ktk5otimrkmxi642,MqhWXdBH,2020-0188,2020-06-04,12:39:30,12:57:56,NA,incomplete,190,gender,3,0,left,A_M_04.jpg,C_M_09.jpg,A_F_10.jpg,left,920.9200000005076,true,low,false
MqhWXdBH,3ha5odm5ld5arw3bkcnh3xryudvvsa,3dpnqgw4lps8x5ktk5otimrkmxi642,MqhWXdBH,2020-0188,2020-06-04,12:39:30,12:57:56,NA,incomplete,191,gender,3,1,right,C_M_07.jpg,C_F_02.jpg,A_M_09.jpg,right,689.1099999992875,true,low,false
MqhWXdBH,3ha5odm5ld5arw3bkcnh3xryudvvsa,3dpnqgw4lps8x5ktk5otimrkmxi642,MqhWXdBH,2020-0188,2020-06-04,12:39:30,12:57:56,NA,incomplete,192,gender,3,1,right,A_M_10.jpg,A_F_09.jpg,C_M_02.jpg,right,761.9300000005169,true,low,false
MqhWXdBH,3ha5odm5ld5arw3bkcnh3xryudvvsa,3dpnqgw4lps8x5ktk5otimrkmxi642,MqhWXdBH,2020-0188,2020-06-04,12:39:30,12:57:56,NA,incomplete,193,gender,3,1,left,C_F_09.jpg,A_F_07.jpg,C_M_12.jpg,left,512.6249999994179,true,low,false
MqhWXdBH,3ha5odm5ld5arw3bkcnh3xryudvvsa,3dpnqgw4lps8x5ktk5otimrkmxi642,MqhWXdBH,2020-0188,2020-06-04,12:39:30,12:57:56,NA,incomplete,194,gender,3,1,left,A_M_10.jpg,C_M_14.jpg,A_F_02.jpg,right,599.7299999999814,false,low,false
MqhWXdBH,3ha5odm5ld5arw3bkcnh3xryudvvsa,3dpnqgw4lps8x5ktk5otimrkmxi642,MqhWXdBH,2020-0188,2020-06-04,12:39:30,12:57:56,NA,incomplete,195,gender,3,1,left,A_M_14.jpg,C_M_13.jpg,A_F_07.jpg,left,779.6199999994133,true,low,false
MqhWXdBH,3ha5odm5ld5arw3bkcnh3xryudvvsa,3dpnqgw4lps8x5ktk5otimrkmxi642,MqhWXdBH,2020-0188,2020-06-04,12:39:30,12:57:56,NA,incomplete,196,gender,3,1,left,A_M_07.jpg,C_M_14.jpg,A_F_05.jpg,left,673.5800000005402,true,low,false
MqhWXdBH,3ha5odm5ld5arw3bkcnh3xryudvvsa,3dpnqgw4lps8x5ktk5otimrkmxi642,MqhWXdBH,2020-0188,2020-06-04,12:39:30,12:57:56,NA,incomplete,197,gender,3,0,left,A_F_14.jpg,C_F_16.jpg,A_M_09.jpg,left,706.1599999996834,true,low,false
MqhWXdBH,3ha5odm5ld5arw3bkcnh3xryudvvsa,3dpnqgw4lps8x5ktk5otimrkmxi642,MqhWXdBH,2020-0188,2020-06-04,12:39:30,12:57:56,NA,incomplete,198,gender,3,1,right,C_F_16.jpg,C_M_02.jpg,A_F_08.jpg,right,659.1000000006752,true,low,false
MqhWXdBH,3ha5odm5ld5arw3bkcnh3xryudvvsa,3dpnqgw4lps8x5ktk5otimrkmxi642,MqhWXdBH,2020-0188,2020-06-04,12:39:30,12:57:56,NA,incomplete,199,gender,3,1,left,A_M_07.jpg,C_M_09.jpg,A_F_02.jpg,left,667.890000000596,true,low,false
MqhWXdBH,3ha5odm5ld5arw3bkcnh3xryudvvsa,3dpnqgw4lps8x5ktk5otimrkmxi642,MqhWXdBH,2020-0188,2020-06-04,12:39:30,12:57:56,NA,incomplete,200,race,2,0,left,C_F_09.jpg,C_M_10.jpg,A_F_07.jpg,left,525.9050000003772,true,low,false
MqhWXdBH,3ha5odm5ld5arw3bkcnh3xryudvvsa,3dpnqgw4lps8x5ktk5otimrkmxi642,MqhWXdBH,2020-0188,2020-06-04,12:39:30,12:57:56,NA,incomplete,201,race,2,1,left,A_F_04.jpg,A_M_12.jpg,C_F_14.jpg,right,716.800000000163,false,low,false
MqhWXdBH,3ha5odm5ld5arw3bkcnh3xryudvvsa,3dpnqgw4lps8x5ktk5otimrkmxi642,MqhWXdBH,2020-0188,2020-06-04,12:39:30,12:57:56,NA,incomplete,202,race,2,1,left,C_M_05.jpg,C_F_14.jpg,A_M_16.jpg,right,636.7200000004377,false,low,false
MqhWXdBH,3ha5odm5ld5arw3bkcnh3xryudvvsa,3dpnqgw4lps8x5ktk5otimrkmxi642,MqhWXdBH,2020-0188,2020-06-04,12:39:30,12:57:56,NA,incomplete,203,race,2,1,left,A_M_03.jpg,A_F_10.jpg,C_M_09.jpg,right,663.3849999998929,false,low,false
MqhWXdBH,3ha5odm5ld5arw3bkcnh3xryudvvsa,3dpnqgw4lps8x5ktk5otimrkmxi642,MqhWXdBH,2020-0188,2020-06-04,12:39:30,12:57:56,NA,incomplete,204,race,2,1,left,A_F_13.jpg,A_M_16.jpg,C_F_03.jpg,left,1088.280000000028,true,low,false
MqhWXdBH,3ha5odm5ld5arw3bkcnh3xryudvvsa,3dpnqgw4lps8x5ktk5otimrkmxi642,MqhWXdBH,2020-0188,2020-06-04,12:39:30,12:57:56,NA,incomplete,205,race,2,1,left,A_F_06.jpg,A_M_11.jpg,C_F_08.jpg,left,1153.4049999990966,true,low,false
MqhWXdBH,3ha5odm5ld5arw3bkcnh3xryudvvsa,3dpnqgw4lps8x5ktk5otimrkmxi642,MqhWXdBH,2020-0188,2020-06-04,12:39:30,12:57:56,NA,incomplete,206,race,2,1,left,C_M_09.jpg,C_F_05.jpg,A_M_12.jpg,right,759.2999999996973,false,low,false
MqhWXdBH,3ha5odm5ld5arw3bkcnh3xryudvvsa,3dpnqgw4lps8x5ktk5otimrkmxi642,MqhWXdBH,2020-0188,2020-06-04,12:39:30,12:57:56,NA,incomplete,207,race,2,1,left,C_F_11.jpg,C_M_02.jpg,A_F_10.jpg,left,1342.2599999994272,true,low,false
MqhWXdBH,3ha5odm5ld5arw3bkcnh3xryudvvsa,3dpnqgw4lps8x5ktk5otimrkmxi642,MqhWXdBH,2020-0188,2020-06-04,12:39:30,12:57:56,NA,incomplete,208,race,2,1,right,A_M_16.jpg,C_M_08.jpg,A_F_10.jpg,right,747.6299999998882,true,low,false
MqhWXdBH,3ha5odm5ld5arw3bkcnh3xryudvvsa,3dpnqgw4lps8x5ktk5otimrkmxi642,MqhWXdBH,2020-0188,2020-06-04,12:39:30,12:57:56,NA,incomplete,209,race,2,1,left,C_M_05.jpg,C_F_09.jpg,A_M_03.jpg,left,1090.8899999995483,true,low,false
MqhWXdBH,3ha5odm5ld5arw3bkcnh3xryudvvsa,3dpnqgw4lps8x5ktk5otimrkmxi642,MqhWXdBH,2020-0188,2020-06-04,12:39:30,12:57:56,NA,incomplete,210,race,2,1,right,C_F_06.jpg,A_F_05.jpg,C_M_10.jpg,right,939.5750000003027,true,low,false
MqhWXdBH,3ha5odm5ld5arw3bkcnh3xryudvvsa,3dpnqgw4lps8x5ktk5otimrkmxi642,MqhWXdBH,2020-0188,2020-06-04,12:39:30,12:57:56,NA,incomplete,211,race,2,1,right,A_M_06.jpg,C_M_09.jpg,A_F_04.jpg,right,889.3699999989476,true,low,false
MqhWXdBH,3ha5odm5ld5arw3bkcnh3xryudvvsa,3dpnqgw4lps8x5ktk5otimrkmxi642,MqhWXdBH,2020-0188,2020-06-04,12:39:30,12:57:56,NA,incomplete,212,race,2,1,right,A_F_10.jpg,C_F_13.jpg,A_M_03.jpg,right,875.5150000015274,true,low,false
MqhWXdBH,3ha5odm5ld5arw3bkcnh3xryudvvsa,3dpnqgw4lps8x5ktk5otimrkmxi642,MqhWXdBH,2020-0188,2020-06-04,12:39:30,12:57:56,NA,incomplete,213,race,2,0,right,C_F_10.jpg,A_F_05.jpg,C_M_09.jpg,right,795.9899999987101,true,low,false
MqhWXdBH,3ha5odm5ld5arw3bkcnh3xryudvvsa,3dpnqgw4lps8x5ktk5otimrkmxi642,MqhWXdBH,2020-0188,2020-06-04,12:39:30,12:57:56,NA,incomplete,214,race,2,1,right,A_M_06.jpg,C_M_05.jpg,A_F_01.jpg,right,1008.240000000922,true,low,false
MqhWXdBH,3ha5odm5ld5arw3bkcnh3xryudvvsa,3dpnqgw4lps8x5ktk5otimrkmxi642,MqhWXdBH,2020-0188,2020-06-04,12:39:30,12:57:56,NA,incomplete,215,race,2,1,left,A_M_05.jpg,A_F_16.jpg,C_M_04.jpg,left,884.7699999987381,true,low,false
MqhWXdBH,3ha5odm5ld5arw3bkcnh3xryudvvsa,3dpnqgw4lps8x5ktk5otimrkmxi642,MqhWXdBH,2020-0188,2020-06-04,12:39:30,12:57:56,NA,incomplete,216,race,2,1,right,C_F_01.jpg,A_F_15.jpg,C_M_12.jpg,right,972.6850000007544,true,low,false
MqhWXdBH,3ha5odm5ld5arw3bkcnh3xryudvvsa,3dpnqgw4lps8x5ktk5otimrkmxi642,MqhWXdBH,2020-0188,2020-06-04,12:39:30,12:57:56,NA,incomplete,217,race,2,1,right,C_M_04.jpg,A_M_12.jpg,C_F_09.jpg,right,995.3850000001257,true,low,false
MqhWXdBH,3ha5odm5ld5arw3bkcnh3xryudvvsa,3dpnqgw4lps8x5ktk5otimrkmxi642,MqhWXdBH,2020-0188,2020-06-04,12:39:30,12:57:56,NA,incomplete,218,race,2,1,left,C_F_10.jpg,C_M_07.jpg,A_F_04.jpg,left,1142.440000001341,true,low,false
MqhWXdBH,3ha5odm5ld5arw3bkcnh3xryudvvsa,3dpnqgw4lps8x5ktk5otimrkmxi642,MqhWXdBH,2020-0188,2020-06-04,12:39:30,12:57:56,NA,incomplete,219,race,2,1,right,C_M_15.jpg,A_M_03.jpg,C_F_02.jpg,right,797.4199999989942,true,low,false
MqhWXdBH,3ha5odm5ld5arw3bkcnh3xryudvvsa,3dpnqgw4lps8x5ktk5otimrkmxi642,MqhWXdBH,2020-0188,2020-06-04,12:39:30,12:57:56,NA,incomplete,220,gender,3,1,right,C_F_10.jpg,C_M_01.jpg,A_F_05.jpg,left,1154.4400000002934,false,low,false
MqhWXdBH,3ha5odm5ld5arw3bkcnh3xryudvvsa,3dpnqgw4lps8x5ktk5otimrkmxi642,MqhWXdBH,2020-0188,2020-06-04,12:39:30,12:57:56,NA,incomplete,221,gender,3,1,right,A_F_14.jpg,A_M_07.jpg,C_F_06.jpg,left,977.2449999999953,false,low,false
MqhWXdBH,3ha5odm5ld5arw3bkcnh3xryudvvsa,3dpnqgw4lps8x5ktk5otimrkmxi642,MqhWXdBH,2020-0188,2020-06-04,12:39:30,12:57:56,NA,incomplete,222,gender,3,1,right,A_M_04.jpg,A_F_08.jpg,C_M_16.jpg,left,901.0500000003958,false,low,false
MqhWXdBH,3ha5odm5ld5arw3bkcnh3xryudvvsa,3dpnqgw4lps8x5ktk5otimrkmxi642,MqhWXdBH,2020-0188,2020-06-04,12:39:30,12:57:56,NA,incomplete,223,gender,3,1,right,C_M_13.jpg,C_F_06.jpg,A_M_07.jpg,right,709.9400000008754,true,low,false
MqhWXdBH,3ha5odm5ld5arw3bkcnh3xryudvvsa,3dpnqgw4lps8x5ktk5otimrkmxi642,MqhWXdBH,2020-0188,2020-06-04,12:39:30,12:57:56,NA,incomplete,224,gender,3,0,left,C_M_16.jpg,A_M_10.jpg,C_F_04.jpg,left,957.3999999992084,true,low,false
MqhWXdBH,3ha5odm5ld5arw3bkcnh3xryudvvsa,3dpnqgw4lps8x5ktk5otimrkmxi642,MqhWXdBH,2020-0188,2020-06-04,12:39:30,12:57:56,NA,incomplete,225,gender,3,1,left,C_M_14.jpg,A_M_11.jpg,C_F_09.jpg,left,811.619999998482,true,low,false
MqhWXdBH,3ha5odm5ld5arw3bkcnh3xryudvvsa,3dpnqgw4lps8x5ktk5otimrkmxi642,MqhWXdBH,2020-0188,2020-06-04,12:39:30,12:57:56,NA,incomplete,226,gender,3,1,left,A_M_06.jpg,C_M_16.jpg,A_F_12.jpg,left,1120.2399999999907,true,low,false
MqhWXdBH,3ha5odm5ld5arw3bkcnh3xryudvvsa,3dpnqgw4lps8x5ktk5otimrkmxi642,MqhWXdBH,2020-0188,2020-06-04,12:39:30,12:57:56,NA,incomplete,227,gender,3,0,right,A_F_04.jpg,A_M_16.jpg,C_F_11.jpg,right,1062.265000000596,true,low,false
MqhWXdBH,3ha5odm5ld5arw3bkcnh3xryudvvsa,3dpnqgw4lps8x5ktk5otimrkmxi642,MqhWXdBH,2020-0188,2020-06-04,12:39:30,12:57:56,NA,incomplete,228,gender,3,1,left,A_M_09.jpg,C_M_12.jpg,A_F_07.jpg,left,752.0600000007544,true,low,false
MqhWXdBH,3ha5odm5ld5arw3bkcnh3xryudvvsa,3dpnqgw4lps8x5ktk5otimrkmxi642,MqhWXdBH,2020-0188,2020-06-04,12:39:30,12:57:56,NA,incomplete,229,gender,3,1,right,C_F_11.jpg,C_M_15.jpg,A_F_08.jpg,right,494.0200000000186,true,low,false
MqhWXdBH,3ha5odm5ld5arw3bkcnh3xryudvvsa,3dpnqgw4lps8x5ktk5otimrkmxi642,MqhWXdBH,2020-0188,2020-06-04,12:39:30,12:57:56,NA,incomplete,230,gender,3,1,left,C_M_15.jpg,A_M_03.jpg,C_F_10.jpg,left,670.8600000001024,true,low,false
MqhWXdBH,3ha5odm5ld5arw3bkcnh3xryudvvsa,3dpnqgw4lps8x5ktk5otimrkmxi642,MqhWXdBH,2020-0188,2020-06-04,12:39:30,12:57:56,NA,incomplete,231,gender,3,1,left,C_M_10.jpg,A_M_04.jpg,C_F_16.jpg,left,721.7550000005867,true,low,false
MqhWXdBH,3ha5odm5ld5arw3bkcnh3xryudvvsa,3dpnqgw4lps8x5ktk5otimrkmxi642,MqhWXdBH,2020-0188,2020-06-04,12:39:30,12:57:56,NA,incomplete,232,gender,3,1,left,A_F_16.jpg,C_F_01.jpg,A_M_12.jpg,right,815.56499999878,false,low,false
MqhWXdBH,3ha5odm5ld5arw3bkcnh3xryudvvsa,3dpnqgw4lps8x5ktk5otimrkmxi642,MqhWXdBH,2020-0188,2020-06-04,12:39:30,12:57:56,NA,incomplete,233,gender,3,0,right,C_F_04.jpg,C_M_01.jpg,A_F_08.jpg,right,779.4400000004098,true,low,false
MqhWXdBH,3ha5odm5ld5arw3bkcnh3xryudvvsa,3dpnqgw4lps8x5ktk5otimrkmxi642,MqhWXdBH,2020-0188,2020-06-04,12:39:30,12:57:56,NA,incomplete,234,gender,3,1,right,C_F_15.jpg,C_M_07.jpg,A_F_02.jpg,right,881.4249999995809,true,low,false
MqhWXdBH,3ha5odm5ld5arw3bkcnh3xryudvvsa,3dpnqgw4lps8x5ktk5otimrkmxi642,MqhWXdBH,2020-0188,2020-06-04,12:39:30,12:57:56,NA,incomplete,235,gender,3,1,right,A_F_07.jpg,A_M_11.jpg,C_F_13.jpg,right,698.349999998929,true,low,false
MqhWXdBH,3ha5odm5ld5arw3bkcnh3xryudvvsa,3dpnqgw4lps8x5ktk5otimrkmxi642,MqhWXdBH,2020-0188,2020-06-04,12:39:30,12:57:56,NA,incomplete,236,gender,3,1,right,A_F_13.jpg,A_M_09.jpg,C_F_02.jpg,right,700.3149999999441,true,low,false
MqhWXdBH,3ha5odm5ld5arw3bkcnh3xryudvvsa,3dpnqgw4lps8x5ktk5otimrkmxi642,MqhWXdBH,2020-0188,2020-06-04,12:39:30,12:57:56,NA,incomplete,237,gender,3,1,left,A_F_07.jpg,C_F_10.jpg,A_M_03.jpg,left,691.1550000004936,true,low,false
MqhWXdBH,3ha5odm5ld5arw3bkcnh3xryudvvsa,3dpnqgw4lps8x5ktk5otimrkmxi642,MqhWXdBH,2020-0188,2020-06-04,12:39:30,12:57:56,NA,incomplete,238,gender,3,1,left,A_F_06.jpg,C_F_04.jpg,A_M_01.jpg,left,531.8449999995064,true,low,false
MqhWXdBH,3ha5odm5ld5arw3bkcnh3xryudvvsa,3dpnqgw4lps8x5ktk5otimrkmxi642,MqhWXdBH,2020-0188,2020-06-04,12:39:30,12:57:56,NA,incomplete,239,gender,3,1,right,C_F_13.jpg,C_M_03.jpg,A_F_02.jpg,right,602.9550000003073,true,low,false
MqhWXdBH,3ha5odm5ld5arw3bkcnh3xryudvvsa,3dpnqgw4lps8x5ktk5otimrkmxi642,MqhWXdBH,2020-0188,2020-06-04,12:39:30,12:57:56,NA,NA,instruction example,filling,NA,NA,NA,Red_Triangle_Chess_2.jpg,Blue_Star_Chess_4.jpg,Purple_Triangle_Dots_3.jpg,NA,NA,NA,NA,undefined
MqhWXdBH,3ha5odm5ld5arw3bkcnh3xryudvvsa,3dpnqgw4lps8x5ktk5otimrkmxi642,MqhWXdBH,2020-0188,2020-06-04,12:39:30,12:57:56,NA,NA,instruction example,filling,NA,NA,NA,Red_Circle_Grid_1.jpg,Blue_Circle_Dots_4.jpg,Green_Star_Grid_3.jpg,NA,NA,NA,NA,undefined
MqhWXdBH,3ha5odm5ld5arw3bkcnh3xryudvvsa,3dpnqgw4lps8x5ktk5otimrkmxi642,MqhWXdBH,2020-0188,2020-06-04,12:39:30,12:57:56,NA,NA,instruction example,filling,NA,NA,NA,A_F_08.jpg,A_M_09.jpg,C_F_11.jpg,NA,NA,NA,NA,undefined
MqhWXdBH,3ha5odm5ld5arw3bkcnh3xryudvvsa,3dpnqgw4lps8x5ktk5otimrkmxi642,MqhWXdBH,2020-0188,2020-06-04,12:39:30,12:57:56,NA,NA,instruction example,filling,NA,NA,NA,A_F_04.jpg,C_F_09.jpg,A_M_16.jpg,NA,NA,NA,NA,undefined
