workerId,hitId,assignmentId,subject,studyid,exp_date,exp_start,exp_end,time_start,time_end,trial,type,sequence,reward_validity,answer,image_top,image_left,image_right,response,response_time,response_acc,volatility,practice
OMniE2BM,3pgqrazx15xrvqygpna1awvsi04ysb,3efe17qcrgi7wf6l6pbfdgwh50ohso,OMniE2BM,2020-0188,2020-11-16,17:07:35,17:25:27,NA,incomplete,0,shape,0,1,right,Blue_Triangle_Chess_3.jpg,Red_Star_Stripes_3.jpg,Purple_Triangle_Grid_4.jpg,none,0,false,NA,true
OMniE2BM,3pgqrazx15xrvqygpna1awvsi04ysb,3efe17qcrgi7wf6l6pbfdgwh50ohso,OMniE2BM,2020-0188,2020-11-16,17:07:35,17:25:27,NA,incomplete,1,shape,0,1,right,Purple_Plus_Dots_3.jpg,Green_Circle_Chess_3.jpg,Blue_Plus_Stripes_2.jpg,right,1785.024999640882,true,NA,true
OMniE2BM,3pgqrazx15xrvqygpna1awvsi04ysb,3efe17qcrgi7wf6l6pbfdgwh50ohso,OMniE2BM,2020-0188,2020-11-16,17:07:35,17:25:27,NA,incomplete,2,shape,0,0,right,Purple_Star_Grid_1.jpg,Red_Triangle_Chess_1.jpg,Green_Star_Stripes_4.jpg,right,1315.0150002911687,true,NA,true
OMniE2BM,3pgqrazx15xrvqygpna1awvsi04ysb,3efe17qcrgi7wf6l6pbfdgwh50ohso,OMniE2BM,2020-0188,2020-11-16,17:07:35,17:25:27,NA,incomplete,3,shape,0,1,left,Purple_Plus_Grid_1.jpg,Green_Plus_Chess_2.jpg,Red_Circle_Stripes_1.jpg,left,1418.9100000075996,true,NA,true
OMniE2BM,3pgqrazx15xrvqygpna1awvsi04ysb,3efe17qcrgi7wf6l6pbfdgwh50ohso,OMniE2BM,2020-0188,2020-11-16,17:07:35,17:25:27,NA,incomplete,4,shape,0,0,right,Green_Circle_Chess_4.jpg,Blue_Plus_Grid_4.jpg,Purple_Circle_Stripes_3.jpg,right,1114.134999923408,true,NA,true
OMniE2BM,3pgqrazx15xrvqygpna1awvsi04ysb,3efe17qcrgi7wf6l6pbfdgwh50ohso,OMniE2BM,2020-0188,2020-11-16,17:07:35,17:25:27,NA,incomplete,5,shape,0,0,right,Blue_Star_Grid_3.jpg,Red_Triangle_Dots_3.jpg,Purple_Star_Chess_1.jpg,right,928.2100000418723,true,NA,true
OMniE2BM,3pgqrazx15xrvqygpna1awvsi04ysb,3efe17qcrgi7wf6l6pbfdgwh50ohso,OMniE2BM,2020-0188,2020-11-16,17:07:35,17:25:27,NA,incomplete,6,shape,0,0,right,Purple_Plus_Dots_4.jpg,Blue_Circle_Chess_4.jpg,Red_Plus_Grid_1.jpg,right,949.2799998261034,true,NA,true
OMniE2BM,3pgqrazx15xrvqygpna1awvsi04ysb,3efe17qcrgi7wf6l6pbfdgwh50ohso,OMniE2BM,2020-0188,2020-11-16,17:07:35,17:25:27,NA,incomplete,7,shape,0,1,right,Blue_Star_Chess_2.jpg,Green_Circle_Stripes_2.jpg,Purple_Star_Dots_1.jpg,right,850.0749999657273,true,NA,true
OMniE2BM,3pgqrazx15xrvqygpna1awvsi04ysb,3efe17qcrgi7wf6l6pbfdgwh50ohso,OMniE2BM,2020-0188,2020-11-16,17:07:35,17:25:27,NA,incomplete,8,shape,0,1,left,Blue_Circle_Grid_4.jpg,Red_Circle_Dots_1.jpg,Purple_Plus_Stripes_4.jpg,left,828.8600002415478,true,NA,true
OMniE2BM,3pgqrazx15xrvqygpna1awvsi04ysb,3efe17qcrgi7wf6l6pbfdgwh50ohso,OMniE2BM,2020-0188,2020-11-16,17:07:35,17:25:27,NA,incomplete,9,shape,0,1,right,Red_Star_Chess_1.jpg,Purple_Triangle_Dots_1.jpg,Green_Star_Grid_3.jpg,right,844.2949997261167,true,NA,true
OMniE2BM,3pgqrazx15xrvqygpna1awvsi04ysb,3efe17qcrgi7wf6l6pbfdgwh50ohso,OMniE2BM,2020-0188,2020-11-16,17:07:35,17:25:27,NA,incomplete,10,shape,0,1,left,Red_Triangle_Dots_3.jpg,Purple_Triangle_Chess_4.jpg,Green_Plus_Stripes_3.jpg,left,965.1099997572601,true,NA,true
OMniE2BM,3pgqrazx15xrvqygpna1awvsi04ysb,3efe17qcrgi7wf6l6pbfdgwh50ohso,OMniE2BM,2020-0188,2020-11-16,17:07:35,17:25:27,NA,incomplete,11,shape,0,1,left,Purple_Plus_Chess_4.jpg,Blue_Plus_Grid_3.jpg,Green_Circle_Dots_4.jpg,left,609.12000015378,true,NA,true
OMniE2BM,3pgqrazx15xrvqygpna1awvsi04ysb,3efe17qcrgi7wf6l6pbfdgwh50ohso,OMniE2BM,2020-0188,2020-11-16,17:07:35,17:25:27,NA,incomplete,12,shape,0,1,right,Purple_Circle_Grid_1.jpg,Red_Plus_Stripes_1.jpg,Blue_Circle_Dots_2.jpg,right,667.6050000824034,true,NA,true
OMniE2BM,3pgqrazx15xrvqygpna1awvsi04ysb,3efe17qcrgi7wf6l6pbfdgwh50ohso,OMniE2BM,2020-0188,2020-11-16,17:07:35,17:25:27,NA,incomplete,13,shape,0,1,right,Green_Star_Grid_1.jpg,Red_Circle_Chess_1.jpg,Purple_Star_Dots_4.jpg,right,709.0600002557039,true,NA,true
OMniE2BM,3pgqrazx15xrvqygpna1awvsi04ysb,3efe17qcrgi7wf6l6pbfdgwh50ohso,OMniE2BM,2020-0188,2020-11-16,17:07:35,17:25:27,NA,incomplete,14,shape,0,1,left,Green_Plus_Grid_4.jpg,Blue_Plus_Chess_3.jpg,Purple_Triangle_Stripes_4.jpg,left,705.350000411272,true,NA,true
OMniE2BM,3pgqrazx15xrvqygpna1awvsi04ysb,3efe17qcrgi7wf6l6pbfdgwh50ohso,OMniE2BM,2020-0188,2020-11-16,17:07:35,17:25:27,NA,incomplete,15,shape,0,1,left,Blue_Star_Grid_4.jpg,Green_Star_Dots_1.jpg,Red_Triangle_Stripes_4.jpg,left,679.3349999934435,true,NA,true
OMniE2BM,3pgqrazx15xrvqygpna1awvsi04ysb,3efe17qcrgi7wf6l6pbfdgwh50ohso,OMniE2BM,2020-0188,2020-11-16,17:07:35,17:25:27,NA,incomplete,16,shape,0,1,left,Red_Circle_Dots_4.jpg,Blue_Circle_Grid_2.jpg,Green_Plus_Chess_4.jpg,left,783.3549999631941,true,NA,true
OMniE2BM,3pgqrazx15xrvqygpna1awvsi04ysb,3efe17qcrgi7wf6l6pbfdgwh50ohso,OMniE2BM,2020-0188,2020-11-16,17:07:35,17:25:27,NA,incomplete,17,shape,0,0,left,Red_Star_Stripes_1.jpg,Green_Star_Dots_2.jpg,Purple_Triangle_Chess_1.jpg,left,754.6549998223782,true,NA,true
OMniE2BM,3pgqrazx15xrvqygpna1awvsi04ysb,3efe17qcrgi7wf6l6pbfdgwh50ohso,OMniE2BM,2020-0188,2020-11-16,17:07:35,17:25:27,NA,incomplete,18,shape,0,1,left,Green_Star_Stripes_2.jpg,Blue_Star_Chess_3.jpg,Red_Circle_Grid_2.jpg,left,800.8999996818602,true,NA,true
OMniE2BM,3pgqrazx15xrvqygpna1awvsi04ysb,3efe17qcrgi7wf6l6pbfdgwh50ohso,OMniE2BM,2020-0188,2020-11-16,17:07:35,17:25:27,NA,incomplete,19,shape,0,1,left,Green_Plus_Dots_2.jpg,Purple_Plus_Grid_4.jpg,Red_Triangle_Stripes_2.jpg,left,632.93999992311,true,NA,true
OMniE2BM,3pgqrazx15xrvqygpna1awvsi04ysb,3efe17qcrgi7wf6l6pbfdgwh50ohso,OMniE2BM,2020-0188,2020-11-16,17:07:35,17:25:27,NA,incomplete,20,number,1,1,right,Purple_Triangle_Chess_4.jpg,Green_Triangle_Grid_3.jpg,Red_Star_Stripes_4.jpg,left,786.3600002601743,false,NA,true
OMniE2BM,3pgqrazx15xrvqygpna1awvsi04ysb,3efe17qcrgi7wf6l6pbfdgwh50ohso,OMniE2BM,2020-0188,2020-11-16,17:07:35,17:25:27,NA,incomplete,21,number,1,1,left,Blue_Triangle_Stripes_3.jpg,Red_Star_Chess_3.jpg,Purple_Triangle_Grid_1.jpg,left,1077.2850001230836,true,NA,true
OMniE2BM,3pgqrazx15xrvqygpna1awvsi04ysb,3efe17qcrgi7wf6l6pbfdgwh50ohso,OMniE2BM,2020-0188,2020-11-16,17:07:35,17:25:27,NA,incomplete,22,number,1,1,left,Red_Circle_Chess_4.jpg,Green_Plus_Dots_4.jpg,Purple_Circle_Stripes_2.jpg,left,1092.970000114292,true,NA,true
OMniE2BM,3pgqrazx15xrvqygpna1awvsi04ysb,3efe17qcrgi7wf6l6pbfdgwh50ohso,OMniE2BM,2020-0188,2020-11-16,17:07:35,17:25:27,NA,incomplete,23,number,1,1,left,Green_Plus_Grid_1.jpg,Blue_Triangle_Stripes_1.jpg,Red_Plus_Dots_3.jpg,left,1021.4199996553361,true,NA,true
OMniE2BM,3pgqrazx15xrvqygpna1awvsi04ysb,3efe17qcrgi7wf6l6pbfdgwh50ohso,OMniE2BM,2020-0188,2020-11-16,17:07:35,17:25:27,NA,incomplete,24,number,1,0,right,Blue_Circle_Grid_1.jpg,Green_Circle_Stripes_3.jpg,Red_Star_Dots_1.jpg,right,900.5249999463558,true,NA,true
OMniE2BM,3pgqrazx15xrvqygpna1awvsi04ysb,3efe17qcrgi7wf6l6pbfdgwh50ohso,OMniE2BM,2020-0188,2020-11-16,17:07:35,17:25:27,NA,incomplete,25,number,1,1,left,Purple_Star_Stripes_3.jpg,Green_Plus_Chess_3.jpg,Blue_Star_Grid_4.jpg,left,731.374999973923,true,NA,true
OMniE2BM,3pgqrazx15xrvqygpna1awvsi04ysb,3efe17qcrgi7wf6l6pbfdgwh50ohso,OMniE2BM,2020-0188,2020-11-16,17:07:35,17:25:27,NA,incomplete,26,number,1,1,right,Blue_Star_Grid_2.jpg,Purple_Star_Stripes_1.jpg,Red_Circle_Dots_2.jpg,right,889.2100001685321,true,NA,true
OMniE2BM,3pgqrazx15xrvqygpna1awvsi04ysb,3efe17qcrgi7wf6l6pbfdgwh50ohso,OMniE2BM,2020-0188,2020-11-16,17:07:35,17:25:27,NA,incomplete,27,number,1,1,right,Red_Triangle_Chess_4.jpg,Green_Triangle_Grid_3.jpg,Blue_Star_Dots_4.jpg,right,775.9750001132488,true,NA,true
OMniE2BM,3pgqrazx15xrvqygpna1awvsi04ysb,3efe17qcrgi7wf6l6pbfdgwh50ohso,OMniE2BM,2020-0188,2020-11-16,17:07:35,17:25:27,NA,incomplete,28,number,1,0,right,Green_Triangle_Grid_2.jpg,Red_Triangle_Dots_3.jpg,Purple_Star_Chess_2.jpg,right,1133.1500001251698,true,NA,true
OMniE2BM,3pgqrazx15xrvqygpna1awvsi04ysb,3efe17qcrgi7wf6l6pbfdgwh50ohso,OMniE2BM,2020-0188,2020-11-16,17:07:35,17:25:27,NA,incomplete,29,number,1,1,left,Blue_Circle_Stripes_3.jpg,Red_Star_Grid_3.jpg,Green_Circle_Chess_1.jpg,left,584.5400001853704,true,NA,true
OMniE2BM,3pgqrazx15xrvqygpna1awvsi04ysb,3efe17qcrgi7wf6l6pbfdgwh50ohso,OMniE2BM,2020-0188,2020-11-16,17:07:35,17:25:27,NA,incomplete,30,number,1,1,right,Purple_Star_Chess_4.jpg,Green_Star_Stripes_3.jpg,Red_Plus_Grid_4.jpg,right,739.3600000068545,true,NA,true
OMniE2BM,3pgqrazx15xrvqygpna1awvsi04ysb,3efe17qcrgi7wf6l6pbfdgwh50ohso,OMniE2BM,2020-0188,2020-11-16,17:07:35,17:25:27,NA,incomplete,31,number,1,1,right,Purple_Triangle_Stripes_1.jpg,Green_Triangle_Grid_3.jpg,Blue_Plus_Dots_1.jpg,right,672.3699998110533,true,NA,true
OMniE2BM,3pgqrazx15xrvqygpna1awvsi04ysb,3efe17qcrgi7wf6l6pbfdgwh50ohso,OMniE2BM,2020-0188,2020-11-16,17:07:35,17:25:27,NA,incomplete,32,number,1,0,right,Red_Triangle_Grid_1.jpg,Purple_Triangle_Dots_3.jpg,Green_Star_Stripes_1.jpg,right,583.9949999935925,true,NA,true
OMniE2BM,3pgqrazx15xrvqygpna1awvsi04ysb,3efe17qcrgi7wf6l6pbfdgwh50ohso,OMniE2BM,2020-0188,2020-11-16,17:07:35,17:25:27,NA,incomplete,33,number,1,1,right,Blue_Triangle_Stripes_1.jpg,Green_Triangle_Chess_2.jpg,Red_Star_Dots_1.jpg,right,669.5550000295043,true,NA,true
OMniE2BM,3pgqrazx15xrvqygpna1awvsi04ysb,3efe17qcrgi7wf6l6pbfdgwh50ohso,OMniE2BM,2020-0188,2020-11-16,17:07:35,17:25:27,NA,incomplete,34,number,1,1,right,Green_Star_Stripes_2.jpg,Red_Star_Chess_4.jpg,Blue_Triangle_Dots_2.jpg,right,699.2999999783933,true,NA,true
OMniE2BM,3pgqrazx15xrvqygpna1awvsi04ysb,3efe17qcrgi7wf6l6pbfdgwh50ohso,OMniE2BM,2020-0188,2020-11-16,17:07:35,17:25:27,NA,incomplete,35,number,1,1,left,Purple_Circle_Chess_3.jpg,Blue_Star_Grid_3.jpg,Red_Circle_Stripes_4.jpg,left,746.3400000706315,true,NA,true
OMniE2BM,3pgqrazx15xrvqygpna1awvsi04ysb,3efe17qcrgi7wf6l6pbfdgwh50ohso,OMniE2BM,2020-0188,2020-11-16,17:07:35,17:25:27,NA,incomplete,36,number,1,1,right,Green_Circle_Chess_2.jpg,Blue_Circle_Dots_1.jpg,Red_Plus_Grid_2.jpg,right,703.4299997612834,true,NA,true
OMniE2BM,3pgqrazx15xrvqygpna1awvsi04ysb,3efe17qcrgi7wf6l6pbfdgwh50ohso,OMniE2BM,2020-0188,2020-11-16,17:07:35,17:25:27,NA,incomplete,37,number,1,1,left,Purple_Plus_Grid_2.jpg,Red_Circle_Dots_2.jpg,Blue_Plus_Chess_4.jpg,left,677.3000000976026,true,NA,true
OMniE2BM,3pgqrazx15xrvqygpna1awvsi04ysb,3efe17qcrgi7wf6l6pbfdgwh50ohso,OMniE2BM,2020-0188,2020-11-16,17:07:35,17:25:27,NA,incomplete,38,number,1,1,right,Green_Circle_Grid_3.jpg,Red_Circle_Stripes_4.jpg,Blue_Star_Chess_3.jpg,right,711.2100003287196,true,NA,true
OMniE2BM,3pgqrazx15xrvqygpna1awvsi04ysb,3efe17qcrgi7wf6l6pbfdgwh50ohso,OMniE2BM,2020-0188,2020-11-16,17:07:35,17:25:27,NA,incomplete,39,number,1,1,left,Blue_Star_Stripes_4.jpg,Purple_Circle_Chess_4.jpg,Red_Star_Grid_2.jpg,left,683.1299997866154,true,NA,true
OMniE2BM,3pgqrazx15xrvqygpna1awvsi04ysb,3efe17qcrgi7wf6l6pbfdgwh50ohso,OMniE2BM,2020-0188,2020-11-16,17:07:35,17:25:27,NA,incomplete,0,shape,0,1,right,Red_Plus_Grid_3.jpg,Blue_Triangle_Stripes_3.jpg,Purple_Plus_Chess_1.jpg,left,865.1749999262393,false,high,false
OMniE2BM,3pgqrazx15xrvqygpna1awvsi04ysb,3efe17qcrgi7wf6l6pbfdgwh50ohso,OMniE2BM,2020-0188,2020-11-16,17:07:35,17:25:27,NA,incomplete,1,shape,0,1,left,Blue_Plus_Grid_1.jpg,Purple_Plus_Stripes_3.jpg,Red_Star_Dots_1.jpg,left,609.1999998316169,true,high,false
OMniE2BM,3pgqrazx15xrvqygpna1awvsi04ysb,3efe17qcrgi7wf6l6pbfdgwh50ohso,OMniE2BM,2020-0188,2020-11-16,17:07:35,17:25:27,NA,incomplete,2,shape,0,1,right,Blue_Circle_Grid_3.jpg,Red_Star_Chess_3.jpg,Purple_Circle_Stripes_2.jpg,right,499.6899999678135,true,high,false
OMniE2BM,3pgqrazx15xrvqygpna1awvsi04ysb,3efe17qcrgi7wf6l6pbfdgwh50ohso,OMniE2BM,2020-0188,2020-11-16,17:07:35,17:25:27,NA,incomplete,3,shape,0,0,right,Green_Plus_Stripes_2.jpg,Purple_Star_Chess_2.jpg,Red_Plus_Dots_1.jpg,right,594.5749999955297,true,high,false
OMniE2BM,3pgqrazx15xrvqygpna1awvsi04ysb,3efe17qcrgi7wf6l6pbfdgwh50ohso,OMniE2BM,2020-0188,2020-11-16,17:07:35,17:25:27,NA,incomplete,4,shape,0,1,left,Green_Star_Dots_3.jpg,Purple_Star_Stripes_4.jpg,Blue_Circle_Grid_3.jpg,left,557.7350002713501,true,high,false
OMniE2BM,3pgqrazx15xrvqygpna1awvsi04ysb,3efe17qcrgi7wf6l6pbfdgwh50ohso,OMniE2BM,2020-0188,2020-11-16,17:07:35,17:25:27,NA,incomplete,5,shape,0,0,right,Red_Star_Chess_4.jpg,Purple_Circle_Dots_4.jpg,Blue_Star_Grid_1.jpg,right,548.0849999003112,true,high,false
OMniE2BM,3pgqrazx15xrvqygpna1awvsi04ysb,3efe17qcrgi7wf6l6pbfdgwh50ohso,OMniE2BM,2020-0188,2020-11-16,17:07:35,17:25:27,NA,incomplete,6,shape,0,0,right,Green_Star_Grid_1.jpg,Red_Plus_Stripes_1.jpg,Blue_Star_Dots_4.jpg,right,582.6900000683963,true,high,false
OMniE2BM,3pgqrazx15xrvqygpna1awvsi04ysb,3efe17qcrgi7wf6l6pbfdgwh50ohso,OMniE2BM,2020-0188,2020-11-16,17:07:35,17:25:27,NA,incomplete,7,shape,0,1,left,Red_Circle_Dots_2.jpg,Purple_Circle_Stripes_3.jpg,Blue_Triangle_Grid_2.jpg,right,690.9149996936321,false,high,false
OMniE2BM,3pgqrazx15xrvqygpna1awvsi04ysb,3efe17qcrgi7wf6l6pbfdgwh50ohso,OMniE2BM,2020-0188,2020-11-16,17:07:35,17:25:27,NA,incomplete,8,shape,0,1,right,Red_Plus_Dots_1.jpg,Purple_Star_Stripes_1.jpg,Blue_Plus_Chess_2.jpg,left,985.6549999676645,false,high,false
OMniE2BM,3pgqrazx15xrvqygpna1awvsi04ysb,3efe17qcrgi7wf6l6pbfdgwh50ohso,OMniE2BM,2020-0188,2020-11-16,17:07:35,17:25:27,NA,incomplete,9,shape,0,1,left,Blue_Star_Stripes_3.jpg,Green_Star_Chess_1.jpg,Red_Plus_Grid_3.jpg,left,916.3850001059473,true,high,false
OMniE2BM,3pgqrazx15xrvqygpna1awvsi04ysb,3efe17qcrgi7wf6l6pbfdgwh50ohso,OMniE2BM,2020-0188,2020-11-16,17:07:35,17:25:27,NA,incomplete,10,number,1,0,left,Purple_Star_Dots_2.jpg,Blue_Triangle_Chess_2.jpg,Green_Star_Stripes_1.jpg,right,532.3149999603629,false,high,false
OMniE2BM,3pgqrazx15xrvqygpna1awvsi04ysb,3efe17qcrgi7wf6l6pbfdgwh50ohso,OMniE2BM,2020-0188,2020-11-16,17:07:35,17:25:27,NA,incomplete,11,number,1,0,left,Red_Triangle_Chess_1.jpg,Green_Circle_Dots_1.jpg,Purple_Triangle_Stripes_2.jpg,right,584.0949998237193,false,high,false
OMniE2BM,3pgqrazx15xrvqygpna1awvsi04ysb,3efe17qcrgi7wf6l6pbfdgwh50ohso,OMniE2BM,2020-0188,2020-11-16,17:07:35,17:25:27,NA,incomplete,12,number,1,1,right,Green_Star_Chess_2.jpg,Purple_Star_Grid_1.jpg,Blue_Plus_Dots_2.jpg,left,539.215000346303,false,high,false
OMniE2BM,3pgqrazx15xrvqygpna1awvsi04ysb,3efe17qcrgi7wf6l6pbfdgwh50ohso,OMniE2BM,2020-0188,2020-11-16,17:07:35,17:25:27,NA,incomplete,13,number,1,0,left,Blue_Triangle_Dots_3.jpg,Red_Circle_Stripes_3.jpg,Purple_Triangle_Chess_1.jpg,right,559.5700000412762,false,high,false
OMniE2BM,3pgqrazx15xrvqygpna1awvsi04ysb,3efe17qcrgi7wf6l6pbfdgwh50ohso,OMniE2BM,2020-0188,2020-11-16,17:07:35,17:25:27,NA,incomplete,14,number,1,1,left,Blue_Plus_Grid_4.jpg,Green_Triangle_Dots_4.jpg,Red_Plus_Stripes_1.jpg,right,572.6550002582371,false,high,false
OMniE2BM,3pgqrazx15xrvqygpna1awvsi04ysb,3efe17qcrgi7wf6l6pbfdgwh50ohso,OMniE2BM,2020-0188,2020-11-16,17:07:35,17:25:27,NA,incomplete,15,number,1,1,right,Blue_Circle_Dots_2.jpg,Red_Circle_Grid_4.jpg,Green_Star_Stripes_2.jpg,left,538.2900000549853,false,high,false
OMniE2BM,3pgqrazx15xrvqygpna1awvsi04ysb,3efe17qcrgi7wf6l6pbfdgwh50ohso,OMniE2BM,2020-0188,2020-11-16,17:07:35,17:25:27,NA,incomplete,16,number,1,0,right,Purple_Triangle_Dots_1.jpg,Blue_Triangle_Grid_2.jpg,Red_Star_Stripes_1.jpg,right,565.4549999162555,true,high,false
OMniE2BM,3pgqrazx15xrvqygpna1awvsi04ysb,3efe17qcrgi7wf6l6pbfdgwh50ohso,OMniE2BM,2020-0188,2020-11-16,17:07:35,17:25:27,NA,incomplete,17,number,1,1,left,Purple_Circle_Dots_4.jpg,Blue_Triangle_Grid_4.jpg,Green_Circle_Stripes_1.jpg,right,681.7250000312924,false,high,false
OMniE2BM,3pgqrazx15xrvqygpna1awvsi04ysb,3efe17qcrgi7wf6l6pbfdgwh50ohso,OMniE2BM,2020-0188,2020-11-16,17:07:35,17:25:27,NA,incomplete,18,number,1,1,left,Purple_Star_Stripes_2.jpg,Red_Plus_Dots_2.jpg,Green_Star_Chess_3.jpg,left,841.5250000543892,true,high,false
OMniE2BM,3pgqrazx15xrvqygpna1awvsi04ysb,3efe17qcrgi7wf6l6pbfdgwh50ohso,OMniE2BM,2020-0188,2020-11-16,17:07:35,17:25:27,NA,incomplete,19,number,1,1,left,Green_Circle_Stripes_1.jpg,Red_Plus_Dots_1.jpg,Purple_Circle_Grid_2.jpg,left,834.0199999511242,true,high,false
OMniE2BM,3pgqrazx15xrvqygpna1awvsi04ysb,3efe17qcrgi7wf6l6pbfdgwh50ohso,OMniE2BM,2020-0188,2020-11-16,17:07:35,17:25:27,NA,incomplete,20,shape,0,1,left,Green_Triangle_Chess_3.jpg,Red_Triangle_Dots_1.jpg,Purple_Circle_Stripes_3.jpg,right,693.2999999262393,false,high,false
OMniE2BM,3pgqrazx15xrvqygpna1awvsi04ysb,3efe17qcrgi7wf6l6pbfdgwh50ohso,OMniE2BM,2020-0188,2020-11-16,17:07:35,17:25:27,NA,incomplete,21,shape,0,0,right,Red_Triangle_Chess_3.jpg,Green_Circle_Dots_3.jpg,Blue_Triangle_Stripes_2.jpg,left,578.644999768585,false,high,false
OMniE2BM,3pgqrazx15xrvqygpna1awvsi04ysb,3efe17qcrgi7wf6l6pbfdgwh50ohso,OMniE2BM,2020-0188,2020-11-16,17:07:35,17:25:27,NA,incomplete,22,shape,0,1,left,Purple_Circle_Chess_1.jpg,Red_Circle_Dots_4.jpg,Green_Triangle_Stripes_1.jpg,right,662.1500002220273,false,high,false
OMniE2BM,3pgqrazx15xrvqygpna1awvsi04ysb,3efe17qcrgi7wf6l6pbfdgwh50ohso,OMniE2BM,2020-0188,2020-11-16,17:07:35,17:25:27,NA,incomplete,23,shape,0,1,right,Blue_Plus_Chess_1.jpg,Green_Circle_Stripes_1.jpg,Red_Plus_Dots_3.jpg,left,622.4150001071393,false,high,false
OMniE2BM,3pgqrazx15xrvqygpna1awvsi04ysb,3efe17qcrgi7wf6l6pbfdgwh50ohso,OMniE2BM,2020-0188,2020-11-16,17:07:35,17:25:27,NA,incomplete,24,shape,0,1,right,Blue_Circle_Grid_2.jpg,Red_Plus_Chess_2.jpg,Green_Circle_Dots_3.jpg,left,768.6199997551739,false,high,false
OMniE2BM,3pgqrazx15xrvqygpna1awvsi04ysb,3efe17qcrgi7wf6l6pbfdgwh50ohso,OMniE2BM,2020-0188,2020-11-16,17:07:35,17:25:27,NA,incomplete,25,shape,0,1,right,Purple_Triangle_Stripes_2.jpg,Red_Circle_Dots_2.jpg,Blue_Triangle_Grid_4.jpg,right,965.7899998128414,true,high,false
OMniE2BM,3pgqrazx15xrvqygpna1awvsi04ysb,3efe17qcrgi7wf6l6pbfdgwh50ohso,OMniE2BM,2020-0188,2020-11-16,17:07:35,17:25:27,NA,incomplete,26,shape,0,1,left,Red_Star_Grid_4.jpg,Green_Star_Dots_1.jpg,Purple_Triangle_Chess_4.jpg,left,815.7049999572337,true,high,false
OMniE2BM,3pgqrazx15xrvqygpna1awvsi04ysb,3efe17qcrgi7wf6l6pbfdgwh50ohso,OMniE2BM,2020-0188,2020-11-16,17:07:35,17:25:27,NA,incomplete,27,shape,0,1,left,Green_Triangle_Grid_1.jpg,Blue_Triangle_Stripes_2.jpg,Purple_Plus_Dots_1.jpg,left,849.914999678731,true,high,false
OMniE2BM,3pgqrazx15xrvqygpna1awvsi04ysb,3efe17qcrgi7wf6l6pbfdgwh50ohso,OMniE2BM,2020-0188,2020-11-16,17:07:35,17:25:27,NA,incomplete,28,shape,0,0,left,Red_Star_Dots_1.jpg,Purple_Star_Grid_4.jpg,Green_Circle_Chess_1.jpg,left,682.7099998481572,true,high,false
OMniE2BM,3pgqrazx15xrvqygpna1awvsi04ysb,3efe17qcrgi7wf6l6pbfdgwh50ohso,OMniE2BM,2020-0188,2020-11-16,17:07:35,17:25:27,NA,incomplete,29,shape,0,1,left,Purple_Triangle_Stripes_2.jpg,Green_Triangle_Grid_4.jpg,Red_Plus_Chess_2.jpg,right,802.3149999789894,false,high,false
OMniE2BM,3pgqrazx15xrvqygpna1awvsi04ysb,3efe17qcrgi7wf6l6pbfdgwh50ohso,OMniE2BM,2020-0188,2020-11-16,17:07:35,17:25:27,NA,incomplete,30,number,1,1,left,Red_Circle_Grid_2.jpg,Blue_Triangle_Dots_2.jpg,Purple_Circle_Chess_1.jpg,right,558.530000038445,false,high,false
OMniE2BM,3pgqrazx15xrvqygpna1awvsi04ysb,3efe17qcrgi7wf6l6pbfdgwh50ohso,OMniE2BM,2020-0188,2020-11-16,17:07:35,17:25:27,NA,incomplete,31,number,1,0,right,Blue_Triangle_Chess_1.jpg,Green_Triangle_Stripes_2.jpg,Purple_Circle_Grid_1.jpg,left,952.690000180155,false,high,false
OMniE2BM,3pgqrazx15xrvqygpna1awvsi04ysb,3efe17qcrgi7wf6l6pbfdgwh50ohso,OMniE2BM,2020-0188,2020-11-16,17:07:35,17:25:27,NA,incomplete,32,number,1,0,right,Purple_Circle_Stripes_3.jpg,Green_Circle_Chess_2.jpg,Red_Plus_Dots_3.jpg,left,684.7299998626113,false,high,false
OMniE2BM,3pgqrazx15xrvqygpna1awvsi04ysb,3efe17qcrgi7wf6l6pbfdgwh50ohso,OMniE2BM,2020-0188,2020-11-16,17:07:35,17:25:27,NA,incomplete,33,number,1,1,right,Blue_Triangle_Grid_4.jpg,Green_Triangle_Chess_3.jpg,Purple_Plus_Stripes_4.jpg,left,843.6150001361966,false,high,false
OMniE2BM,3pgqrazx15xrvqygpna1awvsi04ysb,3efe17qcrgi7wf6l6pbfdgwh50ohso,OMniE2BM,2020-0188,2020-11-16,17:07:35,17:25:27,NA,incomplete,34,number,1,1,left,Green_Circle_Grid_4.jpg,Blue_Plus_Dots_4.jpg,Red_Circle_Chess_3.jpg,right,692.8650001063943,false,high,false
OMniE2BM,3pgqrazx15xrvqygpna1awvsi04ysb,3efe17qcrgi7wf6l6pbfdgwh50ohso,OMniE2BM,2020-0188,2020-11-16,17:07:35,17:25:27,NA,incomplete,35,number,1,1,left,Blue_Circle_Dots_2.jpg,Green_Star_Grid_2.jpg,Purple_Circle_Stripes_1.jpg,right,813.3099996484816,false,high,false
OMniE2BM,3pgqrazx15xrvqygpna1awvsi04ysb,3efe17qcrgi7wf6l6pbfdgwh50ohso,OMniE2BM,2020-0188,2020-11-16,17:07:35,17:25:27,NA,incomplete,36,number,1,1,right,Purple_Plus_Grid_2.jpg,Green_Plus_Chess_1.jpg,Blue_Circle_Stripes_2.jpg,right,837.5400002114475,true,high,false
OMniE2BM,3pgqrazx15xrvqygpna1awvsi04ysb,3efe17qcrgi7wf6l6pbfdgwh50ohso,OMniE2BM,2020-0188,2020-11-16,17:07:35,17:25:27,NA,incomplete,37,number,1,1,left,Green_Circle_Grid_2.jpg,Purple_Star_Stripes_2.jpg,Blue_Circle_Chess_3.jpg,left,734.54499989748,true,high,false
OMniE2BM,3pgqrazx15xrvqygpna1awvsi04ysb,3efe17qcrgi7wf6l6pbfdgwh50ohso,OMniE2BM,2020-0188,2020-11-16,17:07:35,17:25:27,NA,incomplete,38,number,1,1,left,Blue_Triangle_Stripes_4.jpg,Red_Plus_Grid_4.jpg,Green_Triangle_Dots_1.jpg,left,835.1250002160668,true,high,false
OMniE2BM,3pgqrazx15xrvqygpna1awvsi04ysb,3efe17qcrgi7wf6l6pbfdgwh50ohso,OMniE2BM,2020-0188,2020-11-16,17:07:35,17:25:27,NA,incomplete,39,number,1,0,right,Blue_Star_Grid_1.jpg,Green_Star_Dots_3.jpg,Purple_Triangle_Chess_1.jpg,right,604.0299995802343,true,high,false
OMniE2BM,3pgqrazx15xrvqygpna1awvsi04ysb,3efe17qcrgi7wf6l6pbfdgwh50ohso,OMniE2BM,2020-0188,2020-11-16,17:07:35,17:25:27,NA,incomplete,40,shape,0,0,right,Blue_Circle_Stripes_2.jpg,Purple_Triangle_Dots_2.jpg,Red_Circle_Grid_3.jpg,left,584.7549997270107,false,high,false
OMniE2BM,3pgqrazx15xrvqygpna1awvsi04ysb,3efe17qcrgi7wf6l6pbfdgwh50ohso,OMniE2BM,2020-0188,2020-11-16,17:07:35,17:25:27,NA,incomplete,41,shape,0,1,right,Blue_Triangle_Dots_2.jpg,Purple_Circle_Chess_2.jpg,Green_Triangle_Stripes_3.jpg,left,593.4450002387166,false,high,false
OMniE2BM,3pgqrazx15xrvqygpna1awvsi04ysb,3efe17qcrgi7wf6l6pbfdgwh50ohso,OMniE2BM,2020-0188,2020-11-16,17:07:35,17:25:27,NA,incomplete,42,shape,0,1,right,Blue_Star_Dots_2.jpg,Red_Triangle_Stripes_2.jpg,Purple_Star_Chess_4.jpg,left,932.4900000356138,false,high,false
OMniE2BM,3pgqrazx15xrvqygpna1awvsi04ysb,3efe17qcrgi7wf6l6pbfdgwh50ohso,OMniE2BM,2020-0188,2020-11-16,17:07:35,17:25:27,NA,incomplete,43,shape,0,1,right,Red_Circle_Chess_3.jpg,Purple_Triangle_Grid_3.jpg,Blue_Circle_Stripes_1.jpg,right,698.0500002391636,true,high,false
OMniE2BM,3pgqrazx15xrvqygpna1awvsi04ysb,3efe17qcrgi7wf6l6pbfdgwh50ohso,OMniE2BM,2020-0188,2020-11-16,17:07:35,17:25:27,NA,incomplete,44,shape,0,1,left,Blue_Triangle_Grid_2.jpg,Purple_Triangle_Stripes_4.jpg,Red_Plus_Dots_2.jpg,left,648.744999896735,true,high,false
OMniE2BM,3pgqrazx15xrvqygpna1awvsi04ysb,3efe17qcrgi7wf6l6pbfdgwh50ohso,OMniE2BM,2020-0188,2020-11-16,17:07:35,17:25:27,NA,incomplete,45,shape,0,1,right,Purple_Star_Dots_2.jpg,Blue_Circle_Grid_2.jpg,Green_Star_Chess_1.jpg,right,740.2399997226894,true,high,false
OMniE2BM,3pgqrazx15xrvqygpna1awvsi04ysb,3efe17qcrgi7wf6l6pbfdgwh50ohso,OMniE2BM,2020-0188,2020-11-16,17:07:35,17:25:27,NA,incomplete,46,shape,0,1,right,Purple_Triangle_Dots_2.jpg,Blue_Star_Chess_2.jpg,Red_Triangle_Grid_1.jpg,right,550.7249999791384,true,high,false
OMniE2BM,3pgqrazx15xrvqygpna1awvsi04ysb,3efe17qcrgi7wf6l6pbfdgwh50ohso,OMniE2BM,2020-0188,2020-11-16,17:07:35,17:25:27,NA,incomplete,47,shape,0,1,left,Green_Circle_Chess_1.jpg,Red_Circle_Stripes_4.jpg,Blue_Star_Dots_1.jpg,left,675.0249997712672,true,high,false
OMniE2BM,3pgqrazx15xrvqygpna1awvsi04ysb,3efe17qcrgi7wf6l6pbfdgwh50ohso,OMniE2BM,2020-0188,2020-11-16,17:07:35,17:25:27,NA,incomplete,48,shape,0,0,left,Green_Plus_Grid_4.jpg,Red_Plus_Stripes_3.jpg,Blue_Circle_Dots_4.jpg,left,674.4600003585219,true,high,false
OMniE2BM,3pgqrazx15xrvqygpna1awvsi04ysb,3efe17qcrgi7wf6l6pbfdgwh50ohso,OMniE2BM,2020-0188,2020-11-16,17:07:35,17:25:27,NA,incomplete,49,shape,0,1,right,Purple_Star_Dots_1.jpg,Green_Triangle_Stripes_1.jpg,Blue_Star_Grid_3.jpg,right,570.4149999655783,true,high,false
OMniE2BM,3pgqrazx15xrvqygpna1awvsi04ysb,3efe17qcrgi7wf6l6pbfdgwh50ohso,OMniE2BM,2020-0188,2020-11-16,17:07:35,17:25:27,NA,incomplete,50,number,1,1,right,Red_Circle_Chess_4.jpg,Purple_Circle_Grid_2.jpg,Blue_Star_Dots_4.jpg,left,503.89999989420176,false,high,false
OMniE2BM,3pgqrazx15xrvqygpna1awvsi04ysb,3efe17qcrgi7wf6l6pbfdgwh50ohso,OMniE2BM,2020-0188,2020-11-16,17:07:35,17:25:27,NA,incomplete,51,number,1,1,right,Red_Plus_Chess_3.jpg,Purple_Plus_Stripes_1.jpg,Green_Circle_Grid_3.jpg,left,732.1750000119209,false,high,false
OMniE2BM,3pgqrazx15xrvqygpna1awvsi04ysb,3efe17qcrgi7wf6l6pbfdgwh50ohso,OMniE2BM,2020-0188,2020-11-16,17:07:35,17:25:27,NA,incomplete,52,number,1,1,right,Green_Circle_Chess_4.jpg,Purple_Circle_Dots_3.jpg,Red_Plus_Stripes_4.jpg,right,921.79000005126,true,high,false
OMniE2BM,3pgqrazx15xrvqygpna1awvsi04ysb,3efe17qcrgi7wf6l6pbfdgwh50ohso,OMniE2BM,2020-0188,2020-11-16,17:07:35,17:25:27,NA,incomplete,53,number,1,1,right,Green_Circle_Dots_3.jpg,Purple_Circle_Stripes_2.jpg,Blue_Triangle_Grid_3.jpg,right,799.3250000290573,true,high,false
OMniE2BM,3pgqrazx15xrvqygpna1awvsi04ysb,3efe17qcrgi7wf6l6pbfdgwh50ohso,OMniE2BM,2020-0188,2020-11-16,17:07:35,17:25:27,NA,incomplete,54,number,1,1,left,Green_Star_Stripes_2.jpg,Purple_Plus_Grid_2.jpg,Red_Star_Chess_4.jpg,left,681.9700002670288,true,high,false
OMniE2BM,3pgqrazx15xrvqygpna1awvsi04ysb,3efe17qcrgi7wf6l6pbfdgwh50ohso,OMniE2BM,2020-0188,2020-11-16,17:07:35,17:25:27,NA,incomplete,55,number,1,0,right,Blue_Triangle_Chess_2.jpg,Green_Triangle_Grid_4.jpg,Red_Circle_Dots_2.jpg,right,547.8099999018013,true,high,false
OMniE2BM,3pgqrazx15xrvqygpna1awvsi04ysb,3efe17qcrgi7wf6l6pbfdgwh50ohso,OMniE2BM,2020-0188,2020-11-16,17:07:35,17:25:27,NA,incomplete,56,number,1,1,left,Red_Triangle_Stripes_4.jpg,Blue_Circle_Dots_4.jpg,Purple_Triangle_Grid_2.jpg,left,670.5599999986589,true,high,false
OMniE2BM,3pgqrazx15xrvqygpna1awvsi04ysb,3efe17qcrgi7wf6l6pbfdgwh50ohso,OMniE2BM,2020-0188,2020-11-16,17:07:35,17:25:27,NA,incomplete,57,number,1,1,left,Blue_Plus_Dots_4.jpg,Green_Triangle_Stripes_4.jpg,Red_Plus_Chess_1.jpg,left,534.0849999338388,true,high,false
OMniE2BM,3pgqrazx15xrvqygpna1awvsi04ysb,3efe17qcrgi7wf6l6pbfdgwh50ohso,OMniE2BM,2020-0188,2020-11-16,17:07:35,17:25:27,NA,incomplete,58,number,1,1,left,Red_Plus_Grid_1.jpg,Green_Circle_Stripes_1.jpg,Blue_Plus_Dots_2.jpg,left,595.8400000818074,true,high,false
OMniE2BM,3pgqrazx15xrvqygpna1awvsi04ysb,3efe17qcrgi7wf6l6pbfdgwh50ohso,OMniE2BM,2020-0188,2020-11-16,17:07:35,17:25:27,NA,incomplete,59,number,1,1,right,Green_Circle_Stripes_3.jpg,Blue_Circle_Chess_1.jpg,Purple_Triangle_Grid_3.jpg,right,598.4200001694262,true,high,false
OMniE2BM,3pgqrazx15xrvqygpna1awvsi04ysb,3efe17qcrgi7wf6l6pbfdgwh50ohso,OMniE2BM,2020-0188,2020-11-16,17:07:35,17:25:27,NA,incomplete,60,shape,0,1,right,Green_Circle_Grid_3.jpg,Red_Plus_Chess_3.jpg,Purple_Circle_Stripes_4.jpg,left,578.9950001053512,false,high,false
OMniE2BM,3pgqrazx15xrvqygpna1awvsi04ysb,3efe17qcrgi7wf6l6pbfdgwh50ohso,OMniE2BM,2020-0188,2020-11-16,17:07:35,17:25:27,NA,incomplete,61,shape,0,1,right,Green_Triangle_Dots_2.jpg,Red_Plus_Grid_2.jpg,Purple_Triangle_Chess_4.jpg,left,597.0750004053116,false,high,false
OMniE2BM,3pgqrazx15xrvqygpna1awvsi04ysb,3efe17qcrgi7wf6l6pbfdgwh50ohso,OMniE2BM,2020-0188,2020-11-16,17:07:35,17:25:27,NA,incomplete,62,shape,0,1,right,Blue_Triangle_Dots_2.jpg,Red_Star_Chess_2.jpg,Green_Triangle_Stripes_3.jpg,right,935.9400002285838,true,high,false
OMniE2BM,3pgqrazx15xrvqygpna1awvsi04ysb,3efe17qcrgi7wf6l6pbfdgwh50ohso,OMniE2BM,2020-0188,2020-11-16,17:07:35,17:25:27,NA,incomplete,63,shape,0,1,right,Green_Triangle_Dots_2.jpg,Red_Circle_Chess_2.jpg,Blue_Triangle_Grid_3.jpg,right,564.710000064224,true,high,false
OMniE2BM,3pgqrazx15xrvqygpna1awvsi04ysb,3efe17qcrgi7wf6l6pbfdgwh50ohso,OMniE2BM,2020-0188,2020-11-16,17:07:35,17:25:27,NA,incomplete,64,shape,0,1,right,Purple_Plus_Stripes_2.jpg,Red_Circle_Grid_2.jpg,Green_Plus_Chess_1.jpg,right,689.1100001521409,true,high,false
OMniE2BM,3pgqrazx15xrvqygpna1awvsi04ysb,3efe17qcrgi7wf6l6pbfdgwh50ohso,OMniE2BM,2020-0188,2020-11-16,17:07:35,17:25:27,NA,incomplete,65,shape,0,0,right,Purple_Circle_Chess_2.jpg,Blue_Plus_Stripes_2.jpg,Green_Circle_Grid_1.jpg,right,730.0200001336634,true,high,false
OMniE2BM,3pgqrazx15xrvqygpna1awvsi04ysb,3efe17qcrgi7wf6l6pbfdgwh50ohso,OMniE2BM,2020-0188,2020-11-16,17:07:35,17:25:27,NA,incomplete,66,shape,0,0,right,Purple_Plus_Grid_3.jpg,Blue_Circle_Chess_3.jpg,Red_Plus_Dots_2.jpg,right,645.8300002850592,true,high,false
OMniE2BM,3pgqrazx15xrvqygpna1awvsi04ysb,3efe17qcrgi7wf6l6pbfdgwh50ohso,OMniE2BM,2020-0188,2020-11-16,17:07:35,17:25:27,NA,incomplete,67,shape,0,1,right,Red_Star_Grid_2.jpg,Green_Triangle_Chess_2.jpg,Purple_Star_Stripes_1.jpg,left,630.7799997739494,false,high,false
OMniE2BM,3pgqrazx15xrvqygpna1awvsi04ysb,3efe17qcrgi7wf6l6pbfdgwh50ohso,OMniE2BM,2020-0188,2020-11-16,17:07:35,17:25:27,NA,incomplete,68,shape,0,1,right,Green_Triangle_Grid_4.jpg,Blue_Star_Dots_4.jpg,Purple_Triangle_Stripes_1.jpg,right,584.1700001619756,true,high,false
OMniE2BM,3pgqrazx15xrvqygpna1awvsi04ysb,3efe17qcrgi7wf6l6pbfdgwh50ohso,OMniE2BM,2020-0188,2020-11-16,17:07:35,17:25:27,NA,incomplete,69,shape,0,1,left,Purple_Plus_Grid_2.jpg,Red_Plus_Dots_1.jpg,Blue_Circle_Chess_2.jpg,left,515.8850001171231,true,high,false
OMniE2BM,3pgqrazx15xrvqygpna1awvsi04ysb,3efe17qcrgi7wf6l6pbfdgwh50ohso,OMniE2BM,2020-0188,2020-11-16,17:07:35,17:25:27,NA,incomplete,70,number,1,1,right,Blue_Star_Grid_3.jpg,Red_Star_Dots_2.jpg,Green_Triangle_Stripes_3.jpg,right,564.4700000993907,true,high,false
OMniE2BM,3pgqrazx15xrvqygpna1awvsi04ysb,3efe17qcrgi7wf6l6pbfdgwh50ohso,OMniE2BM,2020-0188,2020-11-16,17:07:35,17:25:27,NA,incomplete,71,number,1,1,left,Red_Circle_Grid_1.jpg,Purple_Star_Dots_1.jpg,Blue_Circle_Chess_3.jpg,right,726.8799999728799,false,high,false
OMniE2BM,3pgqrazx15xrvqygpna1awvsi04ysb,3efe17qcrgi7wf6l6pbfdgwh50ohso,OMniE2BM,2020-0188,2020-11-16,17:07:35,17:25:27,NA,incomplete,72,number,1,1,right,Blue_Triangle_Chess_3.jpg,Green_Triangle_Stripes_4.jpg,Purple_Circle_Dots_3.jpg,right,819.7649996727705,true,high,false
OMniE2BM,3pgqrazx15xrvqygpna1awvsi04ysb,3efe17qcrgi7wf6l6pbfdgwh50ohso,OMniE2BM,2020-0188,2020-11-16,17:07:35,17:25:27,NA,incomplete,73,number,1,1,right,Blue_Triangle_Chess_3.jpg,Red_Triangle_Stripes_4.jpg,Green_Circle_Grid_3.jpg,right,621.7549997381866,true,high,false
OMniE2BM,3pgqrazx15xrvqygpna1awvsi04ysb,3efe17qcrgi7wf6l6pbfdgwh50ohso,OMniE2BM,2020-0188,2020-11-16,17:07:35,17:25:27,NA,incomplete,74,number,1,1,left,Green_Plus_Stripes_1.jpg,Purple_Triangle_Dots_1.jpg,Red_Plus_Chess_2.jpg,left,559.3750001862645,true,high,false
OMniE2BM,3pgqrazx15xrvqygpna1awvsi04ysb,3efe17qcrgi7wf6l6pbfdgwh50ohso,OMniE2BM,2020-0188,2020-11-16,17:07:35,17:25:27,NA,incomplete,75,number,1,0,right,Green_Triangle_Dots_3.jpg,Blue_Triangle_Grid_4.jpg,Red_Star_Stripes_3.jpg,right,733.8950000703335,true,high,false
OMniE2BM,3pgqrazx15xrvqygpna1awvsi04ysb,3efe17qcrgi7wf6l6pbfdgwh50ohso,OMniE2BM,2020-0188,2020-11-16,17:07:35,17:25:27,NA,incomplete,76,number,1,0,left,Red_Star_Dots_3.jpg,Green_Circle_Chess_3.jpg,Purple_Star_Grid_1.jpg,left,577.3800001479685,true,high,false
OMniE2BM,3pgqrazx15xrvqygpna1awvsi04ysb,3efe17qcrgi7wf6l6pbfdgwh50ohso,OMniE2BM,2020-0188,2020-11-16,17:07:35,17:25:27,NA,incomplete,77,number,1,0,left,Blue_Plus_Grid_2.jpg,Purple_Triangle_Dots_2.jpg,Red_Plus_Stripes_4.jpg,right,861.0849999822676,false,high,false
OMniE2BM,3pgqrazx15xrvqygpna1awvsi04ysb,3efe17qcrgi7wf6l6pbfdgwh50ohso,OMniE2BM,2020-0188,2020-11-16,17:07:35,17:25:27,NA,incomplete,78,number,1,0,left,Red_Star_Dots_2.jpg,Blue_Triangle_Stripes_2.jpg,Purple_Star_Grid_1.jpg,right,581.0699998401105,false,high,false
OMniE2BM,3pgqrazx15xrvqygpna1awvsi04ysb,3efe17qcrgi7wf6l6pbfdgwh50ohso,OMniE2BM,2020-0188,2020-11-16,17:07:35,17:25:27,NA,incomplete,79,number,1,1,left,Green_Circle_Stripes_2.jpg,Blue_Star_Grid_2.jpg,Red_Circle_Chess_3.jpg,left,584.8799999803305,true,high,false
OMniE2BM,3pgqrazx15xrvqygpna1awvsi04ysb,3efe17qcrgi7wf6l6pbfdgwh50ohso,OMniE2BM,2020-0188,2020-11-16,17:07:35,17:25:27,NA,incomplete,80,shape,0,1,left,Green_Star_Grid_1.jpg,Purple_Star_Stripes_3.jpg,Red_Plus_Dots_1.jpg,left,637.5950002111495,true,high,false
OMniE2BM,3pgqrazx15xrvqygpna1awvsi04ysb,3efe17qcrgi7wf6l6pbfdgwh50ohso,OMniE2BM,2020-0188,2020-11-16,17:07:35,17:25:27,NA,incomplete,81,shape,0,1,right,Purple_Plus_Grid_3.jpg,Green_Circle_Stripes_3.jpg,Red_Plus_Chess_2.jpg,right,628.7549999542534,true,high,false
OMniE2BM,3pgqrazx15xrvqygpna1awvsi04ysb,3efe17qcrgi7wf6l6pbfdgwh50ohso,OMniE2BM,2020-0188,2020-11-16,17:07:35,17:25:27,NA,incomplete,82,shape,0,1,left,Red_Circle_Dots_1.jpg,Blue_Circle_Chess_3.jpg,Purple_Triangle_Stripes_1.jpg,left,654.2199999094009,true,high,false
OMniE2BM,3pgqrazx15xrvqygpna1awvsi04ysb,3efe17qcrgi7wf6l6pbfdgwh50ohso,OMniE2BM,2020-0188,2020-11-16,17:07:35,17:25:27,NA,incomplete,83,shape,0,1,right,Green_Circle_Stripes_2.jpg,Blue_Star_Chess_2.jpg,Red_Circle_Grid_3.jpg,right,542.3449999652803,true,high,false
OMniE2BM,3pgqrazx15xrvqygpna1awvsi04ysb,3efe17qcrgi7wf6l6pbfdgwh50ohso,OMniE2BM,2020-0188,2020-11-16,17:07:35,17:25:27,NA,incomplete,84,shape,0,1,left,Blue_Triangle_Stripes_4.jpg,Purple_Triangle_Chess_3.jpg,Red_Circle_Dots_4.jpg,left,611.6949999704957,true,high,false
OMniE2BM,3pgqrazx15xrvqygpna1awvsi04ysb,3efe17qcrgi7wf6l6pbfdgwh50ohso,OMniE2BM,2020-0188,2020-11-16,17:07:35,17:25:27,NA,incomplete,85,shape,0,1,right,Blue_Triangle_Stripes_2.jpg,Red_Plus_Dots_2.jpg,Purple_Triangle_Grid_3.jpg,right,464.49000015854836,true,high,false
OMniE2BM,3pgqrazx15xrvqygpna1awvsi04ysb,3efe17qcrgi7wf6l6pbfdgwh50ohso,OMniE2BM,2020-0188,2020-11-16,17:07:35,17:25:27,NA,incomplete,86,shape,0,0,left,Purple_Circle_Dots_2.jpg,Green_Circle_Chess_1.jpg,Red_Plus_Grid_2.jpg,left,526.480000000447,true,high,false
OMniE2BM,3pgqrazx15xrvqygpna1awvsi04ysb,3efe17qcrgi7wf6l6pbfdgwh50ohso,OMniE2BM,2020-0188,2020-11-16,17:07:35,17:25:27,NA,incomplete,87,shape,0,1,right,Red_Plus_Chess_1.jpg,Purple_Circle_Grid_1.jpg,Green_Plus_Dots_3.jpg,right,684.4250001013279,true,high,false
OMniE2BM,3pgqrazx15xrvqygpna1awvsi04ysb,3efe17qcrgi7wf6l6pbfdgwh50ohso,OMniE2BM,2020-0188,2020-11-16,17:07:35,17:25:27,NA,incomplete,88,shape,0,1,right,Blue_Circle_Stripes_4.jpg,Green_Plus_Dots_4.jpg,Purple_Circle_Chess_1.jpg,right,723.0099998414516,true,high,false
OMniE2BM,3pgqrazx15xrvqygpna1awvsi04ysb,3efe17qcrgi7wf6l6pbfdgwh50ohso,OMniE2BM,2020-0188,2020-11-16,17:07:35,17:25:27,NA,incomplete,89,shape,0,1,right,Red_Star_Stripes_4.jpg,Blue_Triangle_Grid_4.jpg,Purple_Star_Chess_3.jpg,right,496.6099997982383,true,high,false
OMniE2BM,3pgqrazx15xrvqygpna1awvsi04ysb,3efe17qcrgi7wf6l6pbfdgwh50ohso,OMniE2BM,2020-0188,2020-11-16,17:07:35,17:25:27,NA,incomplete,90,number,1,1,left,Purple_Plus_Stripes_4.jpg,Green_Triangle_Dots_4.jpg,Blue_Plus_Chess_2.jpg,right,538.109999615699,false,high,false
OMniE2BM,3pgqrazx15xrvqygpna1awvsi04ysb,3efe17qcrgi7wf6l6pbfdgwh50ohso,OMniE2BM,2020-0188,2020-11-16,17:07:35,17:25:27,NA,incomplete,91,number,1,0,right,Blue_Circle_Chess_4.jpg,Green_Circle_Stripes_2.jpg,Red_Star_Grid_4.jpg,left,532.9649997875094,false,high,false
OMniE2BM,3pgqrazx15xrvqygpna1awvsi04ysb,3efe17qcrgi7wf6l6pbfdgwh50ohso,OMniE2BM,2020-0188,2020-11-16,17:07:35,17:25:27,NA,incomplete,92,number,1,1,left,Purple_Triangle_Stripes_4.jpg,Green_Star_Chess_4.jpg,Red_Triangle_Grid_2.jpg,right,682.6700000092387,false,high,false
OMniE2BM,3pgqrazx15xrvqygpna1awvsi04ysb,3efe17qcrgi7wf6l6pbfdgwh50ohso,OMniE2BM,2020-0188,2020-11-16,17:07:35,17:25:27,NA,incomplete,93,number,1,1,right,Blue_Plus_Grid_4.jpg,Red_Plus_Chess_2.jpg,Green_Star_Stripes_4.jpg,left,522.0600003376603,false,high,false
OMniE2BM,3pgqrazx15xrvqygpna1awvsi04ysb,3efe17qcrgi7wf6l6pbfdgwh50ohso,OMniE2BM,2020-0188,2020-11-16,17:07:35,17:25:27,NA,incomplete,94,number,1,1,left,Blue_Plus_Grid_4.jpg,Purple_Triangle_Dots_4.jpg,Red_Plus_Chess_1.jpg,left,639.9599998258054,true,high,false
OMniE2BM,3pgqrazx15xrvqygpna1awvsi04ysb,3efe17qcrgi7wf6l6pbfdgwh50ohso,OMniE2BM,2020-0188,2020-11-16,17:07:35,17:25:27,NA,incomplete,95,number,1,1,right,Purple_Triangle_Dots_3.jpg,Red_Triangle_Chess_1.jpg,Green_Circle_Grid_3.jpg,right,874.9549998901784,true,high,false
OMniE2BM,3pgqrazx15xrvqygpna1awvsi04ysb,3efe17qcrgi7wf6l6pbfdgwh50ohso,OMniE2BM,2020-0188,2020-11-16,17:07:35,17:25:27,NA,incomplete,96,number,1,1,left,Purple_Circle_Chess_1.jpg,Blue_Star_Dots_1.jpg,Green_Circle_Stripes_4.jpg,left,711.864999961108,true,high,false
OMniE2BM,3pgqrazx15xrvqygpna1awvsi04ysb,3efe17qcrgi7wf6l6pbfdgwh50ohso,OMniE2BM,2020-0188,2020-11-16,17:07:35,17:25:27,NA,incomplete,97,number,1,1,right,Green_Plus_Grid_3.jpg,Red_Plus_Stripes_2.jpg,Blue_Triangle_Dots_3.jpg,right,606.5299999900162,true,high,false
OMniE2BM,3pgqrazx15xrvqygpna1awvsi04ysb,3efe17qcrgi7wf6l6pbfdgwh50ohso,OMniE2BM,2020-0188,2020-11-16,17:07:35,17:25:27,NA,incomplete,98,number,1,1,left,Blue_Star_Chess_2.jpg,Purple_Circle_Stripes_2.jpg,Red_Star_Grid_1.jpg,left,592.8400000557303,true,high,false
OMniE2BM,3pgqrazx15xrvqygpna1awvsi04ysb,3efe17qcrgi7wf6l6pbfdgwh50ohso,OMniE2BM,2020-0188,2020-11-16,17:07:35,17:25:27,NA,incomplete,99,number,1,1,right,Green_Circle_Grid_2.jpg,Blue_Circle_Chess_4.jpg,Purple_Plus_Stripes_2.jpg,right,635.8599998056889,true,high,false
OMniE2BM,3pgqrazx15xrvqygpna1awvsi04ysb,3efe17qcrgi7wf6l6pbfdgwh50ohso,OMniE2BM,2020-0188,2020-11-16,17:07:35,17:25:27,NA,incomplete,100,shape,0,1,left,Red_Star_Stripes_2.jpg,Blue_Star_Grid_4.jpg,Green_Circle_Dots_2.jpg,right,630.9650000184774,false,high,false
OMniE2BM,3pgqrazx15xrvqygpna1awvsi04ysb,3efe17qcrgi7wf6l6pbfdgwh50ohso,OMniE2BM,2020-0188,2020-11-16,17:07:35,17:25:27,NA,incomplete,101,shape,0,1,left,Purple_Star_Grid_2.jpg,Green_Star_Chess_3.jpg,Blue_Circle_Dots_2.jpg,right,870.5500001087785,false,high,false
OMniE2BM,3pgqrazx15xrvqygpna1awvsi04ysb,3efe17qcrgi7wf6l6pbfdgwh50ohso,OMniE2BM,2020-0188,2020-11-16,17:07:35,17:25:27,NA,incomplete,102,shape,0,1,right,Green_Circle_Dots_2.jpg,Blue_Star_Chess_2.jpg,Purple_Circle_Grid_1.jpg,right,597.8500000201166,true,high,false
OMniE2BM,3pgqrazx15xrvqygpna1awvsi04ysb,3efe17qcrgi7wf6l6pbfdgwh50ohso,OMniE2BM,2020-0188,2020-11-16,17:07:35,17:25:27,NA,incomplete,103,shape,0,1,right,Blue_Plus_Grid_3.jpg,Red_Triangle_Stripes_3.jpg,Green_Plus_Chess_1.jpg,right,577.165000140667,true,high,false
OMniE2BM,3pgqrazx15xrvqygpna1awvsi04ysb,3efe17qcrgi7wf6l6pbfdgwh50ohso,OMniE2BM,2020-0188,2020-11-16,17:07:35,17:25:27,NA,incomplete,104,shape,0,1,right,Green_Star_Chess_3.jpg,Purple_Plus_Stripes_3.jpg,Red_Star_Dots_4.jpg,right,676.6249998472631,true,high,false
OMniE2BM,3pgqrazx15xrvqygpna1awvsi04ysb,3efe17qcrgi7wf6l6pbfdgwh50ohso,OMniE2BM,2020-0188,2020-11-16,17:07:35,17:25:27,NA,incomplete,105,shape,0,1,left,Purple_Star_Stripes_4.jpg,Blue_Star_Chess_3.jpg,Green_Plus_Dots_4.jpg,left,757.9699996858835,true,high,false
OMniE2BM,3pgqrazx15xrvqygpna1awvsi04ysb,3efe17qcrgi7wf6l6pbfdgwh50ohso,OMniE2BM,2020-0188,2020-11-16,17:07:35,17:25:27,NA,incomplete,106,shape,0,1,right,Red_Star_Dots_1.jpg,Purple_Circle_Chess_1.jpg,Green_Star_Grid_4.jpg,right,576.2700000777841,true,high,false
OMniE2BM,3pgqrazx15xrvqygpna1awvsi04ysb,3efe17qcrgi7wf6l6pbfdgwh50ohso,OMniE2BM,2020-0188,2020-11-16,17:07:35,17:25:27,NA,incomplete,107,shape,0,1,right,Red_Circle_Chess_2.jpg,Blue_Plus_Stripes_2.jpg,Purple_Circle_Grid_1.jpg,right,532.1150003001094,true,high,false
OMniE2BM,3pgqrazx15xrvqygpna1awvsi04ysb,3efe17qcrgi7wf6l6pbfdgwh50ohso,OMniE2BM,2020-0188,2020-11-16,17:07:35,17:25:27,NA,incomplete,108,shape,0,1,left,Purple_Star_Grid_4.jpg,Green_Star_Chess_2.jpg,Red_Triangle_Dots_4.jpg,left,874.0900000557303,true,high,false
OMniE2BM,3pgqrazx15xrvqygpna1awvsi04ysb,3efe17qcrgi7wf6l6pbfdgwh50ohso,OMniE2BM,2020-0188,2020-11-16,17:07:35,17:25:27,NA,incomplete,109,shape,0,0,left,Green_Triangle_Chess_4.jpg,Blue_Triangle_Grid_1.jpg,Red_Circle_Dots_4.jpg,left,657.1549996733665,true,high,false
OMniE2BM,3pgqrazx15xrvqygpna1awvsi04ysb,3efe17qcrgi7wf6l6pbfdgwh50ohso,OMniE2BM,2020-0188,2020-11-16,17:07:35,17:25:27,NA,incomplete,110,number,1,1,right,Purple_Star_Stripes_3.jpg,Red_Star_Chess_2.jpg,Green_Triangle_Dots_3.jpg,left,627.4100001901388,false,high,false
OMniE2BM,3pgqrazx15xrvqygpna1awvsi04ysb,3efe17qcrgi7wf6l6pbfdgwh50ohso,OMniE2BM,2020-0188,2020-11-16,17:07:35,17:25:27,NA,incomplete,111,number,1,1,right,Red_Star_Dots_3.jpg,Blue_Star_Grid_4.jpg,Green_Plus_Stripes_3.jpg,right,683.1049998290837,true,high,false
OMniE2BM,3pgqrazx15xrvqygpna1awvsi04ysb,3efe17qcrgi7wf6l6pbfdgwh50ohso,OMniE2BM,2020-0188,2020-11-16,17:07:35,17:25:27,NA,incomplete,112,number,1,1,right,Green_Circle_Grid_2.jpg,Red_Circle_Dots_4.jpg,Purple_Triangle_Stripes_2.jpg,right,602.5849999859929,true,high,false
OMniE2BM,3pgqrazx15xrvqygpna1awvsi04ysb,3efe17qcrgi7wf6l6pbfdgwh50ohso,OMniE2BM,2020-0188,2020-11-16,17:07:35,17:25:27,NA,incomplete,113,number,1,1,right,Red_Triangle_Grid_2.jpg,Blue_Triangle_Chess_1.jpg,Purple_Star_Dots_2.jpg,right,597.0700001344085,true,high,false
OMniE2BM,3pgqrazx15xrvqygpna1awvsi04ysb,3efe17qcrgi7wf6l6pbfdgwh50ohso,OMniE2BM,2020-0188,2020-11-16,17:07:35,17:25:27,NA,incomplete,114,number,1,1,right,Blue_Circle_Grid_4.jpg,Purple_Circle_Dots_2.jpg,Red_Plus_Chess_4.jpg,right,576.1949997395277,true,high,false
OMniE2BM,3pgqrazx15xrvqygpna1awvsi04ysb,3efe17qcrgi7wf6l6pbfdgwh50ohso,OMniE2BM,2020-0188,2020-11-16,17:07:35,17:25:27,NA,incomplete,115,number,1,1,right,Red_Star_Dots_2.jpg,Green_Star_Stripes_4.jpg,Blue_Circle_Grid_2.jpg,right,605.8649998158216,true,high,false
OMniE2BM,3pgqrazx15xrvqygpna1awvsi04ysb,3efe17qcrgi7wf6l6pbfdgwh50ohso,OMniE2BM,2020-0188,2020-11-16,17:07:35,17:25:27,NA,incomplete,116,number,1,1,left,Purple_Plus_Chess_4.jpg,Blue_Triangle_Grid_4.jpg,Red_Plus_Stripes_2.jpg,left,582.1349998004735,true,high,false
OMniE2BM,3pgqrazx15xrvqygpna1awvsi04ysb,3efe17qcrgi7wf6l6pbfdgwh50ohso,OMniE2BM,2020-0188,2020-11-16,17:07:35,17:25:27,NA,incomplete,117,number,1,1,left,Red_Triangle_Dots_1.jpg,Blue_Star_Grid_1.jpg,Green_Triangle_Stripes_4.jpg,left,657.6499999500811,true,high,false
OMniE2BM,3pgqrazx15xrvqygpna1awvsi04ysb,3efe17qcrgi7wf6l6pbfdgwh50ohso,OMniE2BM,2020-0188,2020-11-16,17:07:35,17:25:27,NA,incomplete,118,number,1,1,left,Green_Triangle_Grid_2.jpg,Blue_Star_Stripes_2.jpg,Purple_Triangle_Chess_3.jpg,left,706.0899999924004,true,high,false
OMniE2BM,3pgqrazx15xrvqygpna1awvsi04ysb,3efe17qcrgi7wf6l6pbfdgwh50ohso,OMniE2BM,2020-0188,2020-11-16,17:07:35,17:25:27,NA,incomplete,119,number,1,1,left,Blue_Triangle_Stripes_1.jpg,Green_Circle_Chess_1.jpg,Purple_Triangle_Dots_3.jpg,left,624.2550001479685,true,high,false
OMniE2BM,3pgqrazx15xrvqygpna1awvsi04ysb,3efe17qcrgi7wf6l6pbfdgwh50ohso,OMniE2BM,2020-0188,2020-11-16,17:07:35,17:25:27,NA,incomplete,120,gender,2,0,left,A_M_01.jpg,C_M_08.jpg,A_F_07.jpg,NA,NA,NA,high,false
OMniE2BM,3pgqrazx15xrvqygpna1awvsi04ysb,3efe17qcrgi7wf6l6pbfdgwh50ohso,OMniE2BM,2020-0188,2020-11-16,17:07:35,17:25:27,NA,incomplete,121,gender,2,1,right,A_M_09.jpg,A_F_12.jpg,C_M_08.jpg,right,1074.33500001207,true,high,false
OMniE2BM,3pgqrazx15xrvqygpna1awvsi04ysb,3efe17qcrgi7wf6l6pbfdgwh50ohso,OMniE2BM,2020-0188,2020-11-16,17:07:35,17:25:27,NA,incomplete,122,gender,2,1,left,C_F_09.jpg,A_F_15.jpg,C_M_16.jpg,left,905.1299998536706,true,high,false
OMniE2BM,3pgqrazx15xrvqygpna1awvsi04ysb,3efe17qcrgi7wf6l6pbfdgwh50ohso,OMniE2BM,2020-0188,2020-11-16,17:07:35,17:25:27,NA,incomplete,123,gender,2,1,left,A_F_14.jpg,C_F_02.jpg,A_M_08.jpg,left,745.4200000502169,true,high,false
OMniE2BM,3pgqrazx15xrvqygpna1awvsi04ysb,3efe17qcrgi7wf6l6pbfdgwh50ohso,OMniE2BM,2020-0188,2020-11-16,17:07:35,17:25:27,NA,incomplete,124,gender,2,1,left,A_F_11.jpg,C_F_05.jpg,A_M_15.jpg,left,804.2599996551871,true,high,false
OMniE2BM,3pgqrazx15xrvqygpna1awvsi04ysb,3efe17qcrgi7wf6l6pbfdgwh50ohso,OMniE2BM,2020-0188,2020-11-16,17:07:35,17:25:27,NA,incomplete,125,gender,2,1,left,C_F_07.jpg,A_F_11.jpg,C_M_16.jpg,left,798.6399997025728,true,high,false
OMniE2BM,3pgqrazx15xrvqygpna1awvsi04ysb,3efe17qcrgi7wf6l6pbfdgwh50ohso,OMniE2BM,2020-0188,2020-11-16,17:07:35,17:25:27,NA,incomplete,126,gender,2,1,left,C_M_11.jpg,A_M_07.jpg,C_F_12.jpg,left,625.4300000146031,true,high,false
OMniE2BM,3pgqrazx15xrvqygpna1awvsi04ysb,3efe17qcrgi7wf6l6pbfdgwh50ohso,OMniE2BM,2020-0188,2020-11-16,17:07:35,17:25:27,NA,incomplete,127,gender,2,1,right,C_M_14.jpg,C_F_11.jpg,A_M_10.jpg,right,803.1199998222291,true,high,false
OMniE2BM,3pgqrazx15xrvqygpna1awvsi04ysb,3efe17qcrgi7wf6l6pbfdgwh50ohso,OMniE2BM,2020-0188,2020-11-16,17:07:35,17:25:27,NA,incomplete,128,gender,2,0,right,A_F_06.jpg,A_M_08.jpg,C_F_13.jpg,right,783.3000002428889,true,high,false
OMniE2BM,3pgqrazx15xrvqygpna1awvsi04ysb,3efe17qcrgi7wf6l6pbfdgwh50ohso,OMniE2BM,2020-0188,2020-11-16,17:07:35,17:25:27,NA,incomplete,129,gender,2,1,left,A_M_05.jpg,C_M_13.jpg,A_F_01.jpg,left,904.7350003384054,true,high,false
OMniE2BM,3pgqrazx15xrvqygpna1awvsi04ysb,3efe17qcrgi7wf6l6pbfdgwh50ohso,OMniE2BM,2020-0188,2020-11-16,17:07:35,17:25:27,NA,incomplete,130,gender,2,1,right,C_M_10.jpg,C_F_12.jpg,A_M_05.jpg,right,702.6349999941885,true,high,false
OMniE2BM,3pgqrazx15xrvqygpna1awvsi04ysb,3efe17qcrgi7wf6l6pbfdgwh50ohso,OMniE2BM,2020-0188,2020-11-16,17:07:35,17:25:27,NA,incomplete,131,gender,2,0,left,A_M_15.jpg,C_M_08.jpg,A_F_10.jpg,left,669.0999995917082,true,high,false
OMniE2BM,3pgqrazx15xrvqygpna1awvsi04ysb,3efe17qcrgi7wf6l6pbfdgwh50ohso,OMniE2BM,2020-0188,2020-11-16,17:07:35,17:25:27,NA,incomplete,132,gender,2,1,right,C_F_01.jpg,C_M_06.jpg,A_F_12.jpg,right,860.8300001360476,true,high,false
OMniE2BM,3pgqrazx15xrvqygpna1awvsi04ysb,3efe17qcrgi7wf6l6pbfdgwh50ohso,OMniE2BM,2020-0188,2020-11-16,17:07:35,17:25:27,NA,incomplete,133,gender,2,0,right,A_M_11.jpg,A_F_03.jpg,C_M_04.jpg,right,991.3300001062453,true,high,false
OMniE2BM,3pgqrazx15xrvqygpna1awvsi04ysb,3efe17qcrgi7wf6l6pbfdgwh50ohso,OMniE2BM,2020-0188,2020-11-16,17:07:35,17:25:27,NA,incomplete,134,gender,2,1,right,C_F_06.jpg,C_M_07.jpg,A_F_15.jpg,left,959.559999871999,false,high,false
OMniE2BM,3pgqrazx15xrvqygpna1awvsi04ysb,3efe17qcrgi7wf6l6pbfdgwh50ohso,OMniE2BM,2020-0188,2020-11-16,17:07:35,17:25:27,NA,incomplete,135,gender,2,1,right,A_F_10.jpg,A_M_01.jpg,C_F_12.jpg,right,699.5749999769032,true,high,false
OMniE2BM,3pgqrazx15xrvqygpna1awvsi04ysb,3efe17qcrgi7wf6l6pbfdgwh50ohso,OMniE2BM,2020-0188,2020-11-16,17:07:35,17:25:27,NA,incomplete,136,gender,2,1,left,C_M_11.jpg,A_M_03.jpg,C_F_05.jpg,left,674.4550000876188,true,high,false
OMniE2BM,3pgqrazx15xrvqygpna1awvsi04ysb,3efe17qcrgi7wf6l6pbfdgwh50ohso,OMniE2BM,2020-0188,2020-11-16,17:07:35,17:25:27,NA,incomplete,137,gender,2,1,left,C_F_14.jpg,A_F_06.jpg,C_M_08.jpg,left,817.625000141561,true,high,false
OMniE2BM,3pgqrazx15xrvqygpna1awvsi04ysb,3efe17qcrgi7wf6l6pbfdgwh50ohso,OMniE2BM,2020-0188,2020-11-16,17:07:35,17:25:27,NA,incomplete,138,gender,2,1,right,A_M_04.jpg,A_F_01.jpg,C_M_07.jpg,right,701.8250003457069,true,high,false
OMniE2BM,3pgqrazx15xrvqygpna1awvsi04ysb,3efe17qcrgi7wf6l6pbfdgwh50ohso,OMniE2BM,2020-0188,2020-11-16,17:07:35,17:25:27,NA,incomplete,139,gender,2,1,left,C_F_06.jpg,A_F_15.jpg,C_M_11.jpg,left,609.3450002372265,true,high,false
OMniE2BM,3pgqrazx15xrvqygpna1awvsi04ysb,3efe17qcrgi7wf6l6pbfdgwh50ohso,OMniE2BM,2020-0188,2020-11-16,17:07:35,17:25:27,NA,incomplete,140,race,3,0,right,A_F_02.jpg,C_F_05.jpg,A_M_12.jpg,left,644.1750000230968,false,high,false
OMniE2BM,3pgqrazx15xrvqygpna1awvsi04ysb,3efe17qcrgi7wf6l6pbfdgwh50ohso,OMniE2BM,2020-0188,2020-11-16,17:07:35,17:25:27,NA,incomplete,141,race,3,1,right,A_M_15.jpg,C_M_12.jpg,A_F_11.jpg,left,885.0150001235306,false,high,false
OMniE2BM,3pgqrazx15xrvqygpna1awvsi04ysb,3efe17qcrgi7wf6l6pbfdgwh50ohso,OMniE2BM,2020-0188,2020-11-16,17:07:35,17:25:27,NA,incomplete,142,race,3,1,right,A_F_01.jpg,C_F_09.jpg,A_M_07.jpg,left,675.860000308603,false,high,false
OMniE2BM,3pgqrazx15xrvqygpna1awvsi04ysb,3efe17qcrgi7wf6l6pbfdgwh50ohso,OMniE2BM,2020-0188,2020-11-16,17:07:35,17:25:27,NA,incomplete,143,race,3,1,right,A_F_03.jpg,C_F_10.jpg,A_M_14.jpg,right,805.4999997839332,true,high,false
OMniE2BM,3pgqrazx15xrvqygpna1awvsi04ysb,3efe17qcrgi7wf6l6pbfdgwh50ohso,OMniE2BM,2020-0188,2020-11-16,17:07:35,17:25:27,NA,incomplete,144,race,3,0,right,A_M_06.jpg,C_M_10.jpg,A_F_07.jpg,right,717.6850000396371,true,high,false
OMniE2BM,3pgqrazx15xrvqygpna1awvsi04ysb,3efe17qcrgi7wf6l6pbfdgwh50ohso,OMniE2BM,2020-0188,2020-11-16,17:07:35,17:25:27,NA,incomplete,145,race,3,1,right,A_F_08.jpg,C_F_13.jpg,A_M_14.jpg,right,731.2549999915063,true,high,false
OMniE2BM,3pgqrazx15xrvqygpna1awvsi04ysb,3efe17qcrgi7wf6l6pbfdgwh50ohso,OMniE2BM,2020-0188,2020-11-16,17:07:35,17:25:27,NA,incomplete,146,race,3,1,right,A_M_02.jpg,C_M_13.jpg,A_F_16.jpg,left,792.7449997514486,false,high,false
OMniE2BM,3pgqrazx15xrvqygpna1awvsi04ysb,3efe17qcrgi7wf6l6pbfdgwh50ohso,OMniE2BM,2020-0188,2020-11-16,17:07:35,17:25:27,NA,incomplete,147,race,3,1,left,C_F_02.jpg,C_M_09.jpg,A_F_05.jpg,left,1531.6449999809265,true,high,false
OMniE2BM,3pgqrazx15xrvqygpna1awvsi04ysb,3efe17qcrgi7wf6l6pbfdgwh50ohso,OMniE2BM,2020-0188,2020-11-16,17:07:35,17:25:27,NA,incomplete,148,race,3,0,left,A_F_14.jpg,A_M_13.jpg,C_F_02.jpg,left,930.4100000299513,true,high,false
OMniE2BM,3pgqrazx15xrvqygpna1awvsi04ysb,3efe17qcrgi7wf6l6pbfdgwh50ohso,OMniE2BM,2020-0188,2020-11-16,17:07:35,17:25:27,NA,incomplete,149,race,3,1,right,A_F_14.jpg,C_F_15.jpg,A_M_09.jpg,right,782.0200002752244,true,high,false
OMniE2BM,3pgqrazx15xrvqygpna1awvsi04ysb,3efe17qcrgi7wf6l6pbfdgwh50ohso,OMniE2BM,2020-0188,2020-11-16,17:07:35,17:25:27,NA,incomplete,150,race,3,1,right,C_F_04.jpg,A_F_05.jpg,C_M_09.jpg,right,768.8649999909103,true,high,false
OMniE2BM,3pgqrazx15xrvqygpna1awvsi04ysb,3efe17qcrgi7wf6l6pbfdgwh50ohso,OMniE2BM,2020-0188,2020-11-16,17:07:35,17:25:27,NA,incomplete,151,race,3,1,right,C_M_16.jpg,A_M_10.jpg,C_F_12.jpg,left,917.030000127852,false,high,false
OMniE2BM,3pgqrazx15xrvqygpna1awvsi04ysb,3efe17qcrgi7wf6l6pbfdgwh50ohso,OMniE2BM,2020-0188,2020-11-16,17:07:35,17:25:27,NA,incomplete,152,race,3,1,right,A_M_10.jpg,C_M_04.jpg,A_F_13.jpg,right,955.1749997772276,true,high,false
OMniE2BM,3pgqrazx15xrvqygpna1awvsi04ysb,3efe17qcrgi7wf6l6pbfdgwh50ohso,OMniE2BM,2020-0188,2020-11-16,17:07:35,17:25:27,NA,incomplete,153,race,3,1,right,C_F_03.jpg,A_F_11.jpg,C_M_07.jpg,right,961.4499998278916,true,high,false
OMniE2BM,3pgqrazx15xrvqygpna1awvsi04ysb,3efe17qcrgi7wf6l6pbfdgwh50ohso,OMniE2BM,2020-0188,2020-11-16,17:07:35,17:25:27,NA,incomplete,154,race,3,1,right,A_M_05.jpg,C_M_07.jpg,A_F_16.jpg,right,923.1400000862777,true,high,false
OMniE2BM,3pgqrazx15xrvqygpna1awvsi04ysb,3efe17qcrgi7wf6l6pbfdgwh50ohso,OMniE2BM,2020-0188,2020-11-16,17:07:35,17:25:27,NA,incomplete,155,race,3,1,right,A_M_04.jpg,C_M_03.jpg,A_F_11.jpg,right,1128.529999870807,true,high,false
OMniE2BM,3pgqrazx15xrvqygpna1awvsi04ysb,3efe17qcrgi7wf6l6pbfdgwh50ohso,OMniE2BM,2020-0188,2020-11-16,17:07:35,17:25:27,NA,incomplete,156,race,3,1,left,A_F_11.jpg,A_M_10.jpg,C_F_04.jpg,left,805.9450001455843,true,high,false
OMniE2BM,3pgqrazx15xrvqygpna1awvsi04ysb,3efe17qcrgi7wf6l6pbfdgwh50ohso,OMniE2BM,2020-0188,2020-11-16,17:07:35,17:25:27,NA,incomplete,157,race,3,0,left,C_M_13.jpg,C_F_14.jpg,A_M_07.jpg,left,815.9549999982119,true,high,false
OMniE2BM,3pgqrazx15xrvqygpna1awvsi04ysb,3efe17qcrgi7wf6l6pbfdgwh50ohso,OMniE2BM,2020-0188,2020-11-16,17:07:35,17:25:27,NA,incomplete,158,race,3,1,left,A_F_10.jpg,A_M_16.jpg,C_F_09.jpg,left,732.2899997234344,true,high,false
OMniE2BM,3pgqrazx15xrvqygpna1awvsi04ysb,3efe17qcrgi7wf6l6pbfdgwh50ohso,OMniE2BM,2020-0188,2020-11-16,17:07:35,17:25:27,NA,incomplete,159,race,3,1,right,C_M_10.jpg,A_M_11.jpg,C_F_08.jpg,right,1007.6399999670684,true,high,false
OMniE2BM,3pgqrazx15xrvqygpna1awvsi04ysb,3efe17qcrgi7wf6l6pbfdgwh50ohso,OMniE2BM,2020-0188,2020-11-16,17:07:35,17:25:27,NA,incomplete,160,gender,2,1,right,C_F_07.jpg,C_M_03.jpg,A_F_14.jpg,left,1009.6499999053776,false,high,false
OMniE2BM,3pgqrazx15xrvqygpna1awvsi04ysb,3efe17qcrgi7wf6l6pbfdgwh50ohso,OMniE2BM,2020-0188,2020-11-16,17:07:35,17:25:27,NA,incomplete,161,gender,2,1,right,C_M_03.jpg,C_F_01.jpg,A_M_06.jpg,left,819.6849999949336,false,high,false
OMniE2BM,3pgqrazx15xrvqygpna1awvsi04ysb,3efe17qcrgi7wf6l6pbfdgwh50ohso,OMniE2BM,2020-0188,2020-11-16,17:07:35,17:25:27,NA,incomplete,162,gender,2,0,left,C_M_04.jpg,A_M_06.jpg,C_F_01.jpg,left,1037.4950002878904,true,high,false
OMniE2BM,3pgqrazx15xrvqygpna1awvsi04ysb,3efe17qcrgi7wf6l6pbfdgwh50ohso,OMniE2BM,2020-0188,2020-11-16,17:07:35,17:25:27,NA,incomplete,163,gender,2,1,left,A_M_02.jpg,C_M_14.jpg,A_F_05.jpg,right,959.9000001326203,false,high,false
OMniE2BM,3pgqrazx15xrvqygpna1awvsi04ysb,3efe17qcrgi7wf6l6pbfdgwh50ohso,OMniE2BM,2020-0188,2020-11-16,17:07:35,17:25:27,NA,incomplete,164,gender,2,1,right,A_F_02.jpg,A_M_07.jpg,C_F_12.jpg,right,985.9199998900294,true,high,false
OMniE2BM,3pgqrazx15xrvqygpna1awvsi04ysb,3efe17qcrgi7wf6l6pbfdgwh50ohso,OMniE2BM,2020-0188,2020-11-16,17:07:35,17:25:27,NA,incomplete,165,gender,2,1,left,C_F_05.jpg,A_F_15.jpg,C_M_03.jpg,left,956.6349997185171,true,high,false
OMniE2BM,3pgqrazx15xrvqygpna1awvsi04ysb,3efe17qcrgi7wf6l6pbfdgwh50ohso,OMniE2BM,2020-0188,2020-11-16,17:07:35,17:25:27,NA,incomplete,166,gender,2,0,left,A_M_07.jpg,C_M_12.jpg,A_F_01.jpg,left,960.6800000183284,true,high,false
OMniE2BM,3pgqrazx15xrvqygpna1awvsi04ysb,3efe17qcrgi7wf6l6pbfdgwh50ohso,OMniE2BM,2020-0188,2020-11-16,17:07:35,17:25:27,NA,incomplete,167,gender,2,1,right,A_M_05.jpg,A_F_01.jpg,C_M_12.jpg,right,628.6549996584654,true,high,false
OMniE2BM,3pgqrazx15xrvqygpna1awvsi04ysb,3efe17qcrgi7wf6l6pbfdgwh50ohso,OMniE2BM,2020-0188,2020-11-16,17:07:35,17:25:27,NA,incomplete,168,gender,2,1,left,A_F_07.jpg,C_F_01.jpg,A_M_13.jpg,left,847.4799999967217,true,high,false
OMniE2BM,3pgqrazx15xrvqygpna1awvsi04ysb,3efe17qcrgi7wf6l6pbfdgwh50ohso,OMniE2BM,2020-0188,2020-11-16,17:07:35,17:25:27,NA,incomplete,169,gender,2,1,right,A_M_16.jpg,A_F_15.jpg,C_M_08.jpg,right,663.1100000813603,true,high,false
OMniE2BM,3pgqrazx15xrvqygpna1awvsi04ysb,3efe17qcrgi7wf6l6pbfdgwh50ohso,OMniE2BM,2020-0188,2020-11-16,17:07:35,17:25:27,NA,incomplete,170,gender,2,1,left,A_M_04.jpg,C_M_11.jpg,A_F_03.jpg,left,567.3750001005828,true,high,false
OMniE2BM,3pgqrazx15xrvqygpna1awvsi04ysb,3efe17qcrgi7wf6l6pbfdgwh50ohso,OMniE2BM,2020-0188,2020-11-16,17:07:35,17:25:27,NA,incomplete,171,gender,2,0,right,C_F_10.jpg,C_M_03.jpg,A_F_01.jpg,right,1035.8899999409914,true,high,false
OMniE2BM,3pgqrazx15xrvqygpna1awvsi04ysb,3efe17qcrgi7wf6l6pbfdgwh50ohso,OMniE2BM,2020-0188,2020-11-16,17:07:35,17:25:27,NA,incomplete,172,gender,2,1,left,A_M_10.jpg,C_M_11.jpg,A_F_16.jpg,left,652.3450003005564,true,high,false
OMniE2BM,3pgqrazx15xrvqygpna1awvsi04ysb,3efe17qcrgi7wf6l6pbfdgwh50ohso,OMniE2BM,2020-0188,2020-11-16,17:07:35,17:25:27,NA,incomplete,173,gender,2,1,right,C_M_14.jpg,C_F_10.jpg,A_M_13.jpg,right,862.6599996350706,true,high,false
OMniE2BM,3pgqrazx15xrvqygpna1awvsi04ysb,3efe17qcrgi7wf6l6pbfdgwh50ohso,OMniE2BM,2020-0188,2020-11-16,17:07:35,17:25:27,NA,incomplete,174,gender,2,1,right,A_M_12.jpg,A_F_08.jpg,C_M_07.jpg,right,644.7000000625849,true,high,false
OMniE2BM,3pgqrazx15xrvqygpna1awvsi04ysb,3efe17qcrgi7wf6l6pbfdgwh50ohso,OMniE2BM,2020-0188,2020-11-16,17:07:35,17:25:27,NA,incomplete,175,gender,2,1,left,C_F_15.jpg,A_F_16.jpg,C_M_10.jpg,left,701.7000000923872,true,high,false
OMniE2BM,3pgqrazx15xrvqygpna1awvsi04ysb,3efe17qcrgi7wf6l6pbfdgwh50ohso,OMniE2BM,2020-0188,2020-11-16,17:07:35,17:25:27,NA,incomplete,176,gender,2,0,left,A_F_05.jpg,C_F_16.jpg,A_M_01.jpg,left,755.9400000609457,true,high,false
OMniE2BM,3pgqrazx15xrvqygpna1awvsi04ysb,3efe17qcrgi7wf6l6pbfdgwh50ohso,OMniE2BM,2020-0188,2020-11-16,17:07:35,17:25:27,NA,incomplete,177,gender,2,1,right,A_M_16.jpg,A_F_02.jpg,C_M_05.jpg,right,704.3800000101328,true,high,false
OMniE2BM,3pgqrazx15xrvqygpna1awvsi04ysb,3efe17qcrgi7wf6l6pbfdgwh50ohso,OMniE2BM,2020-0188,2020-11-16,17:07:35,17:25:27,NA,incomplete,178,gender,2,0,left,C_M_05.jpg,A_M_16.jpg,C_F_01.jpg,left,632.1999998763204,true,high,false
OMniE2BM,3pgqrazx15xrvqygpna1awvsi04ysb,3efe17qcrgi7wf6l6pbfdgwh50ohso,OMniE2BM,2020-0188,2020-11-16,17:07:35,17:25:27,NA,incomplete,179,gender,2,1,right,A_M_03.jpg,A_F_15.jpg,C_M_01.jpg,right,592.0450002886355,true,high,false
OMniE2BM,3pgqrazx15xrvqygpna1awvsi04ysb,3efe17qcrgi7wf6l6pbfdgwh50ohso,OMniE2BM,2020-0188,2020-11-16,17:07:35,17:25:27,NA,incomplete,180,race,3,1,left,C_M_01.jpg,C_F_16.jpg,A_M_14.jpg,right,642.920000012964,false,high,false
OMniE2BM,3pgqrazx15xrvqygpna1awvsi04ysb,3efe17qcrgi7wf6l6pbfdgwh50ohso,OMniE2BM,2020-0188,2020-11-16,17:07:35,17:25:27,NA,incomplete,181,race,3,1,right,C_F_07.jpg,A_F_04.jpg,C_M_12.jpg,left,660.0649999454618,false,high,false
OMniE2BM,3pgqrazx15xrvqygpna1awvsi04ysb,3efe17qcrgi7wf6l6pbfdgwh50ohso,OMniE2BM,2020-0188,2020-11-16,17:07:35,17:25:27,NA,incomplete,182,race,3,1,right,A_F_03.jpg,C_F_13.jpg,A_M_16.jpg,right,764.3349999561906,true,high,false
OMniE2BM,3pgqrazx15xrvqygpna1awvsi04ysb,3efe17qcrgi7wf6l6pbfdgwh50ohso,OMniE2BM,2020-0188,2020-11-16,17:07:35,17:25:27,NA,incomplete,183,race,3,0,right,C_M_13.jpg,A_M_15.jpg,C_F_08.jpg,right,890.6399998813868,true,high,false
OMniE2BM,3pgqrazx15xrvqygpna1awvsi04ysb,3efe17qcrgi7wf6l6pbfdgwh50ohso,OMniE2BM,2020-0188,2020-11-16,17:07:35,17:25:27,NA,incomplete,184,race,3,1,left,A_M_16.jpg,A_F_15.jpg,C_M_07.jpg,left,863.2450001314282,true,high,false
OMniE2BM,3pgqrazx15xrvqygpna1awvsi04ysb,3efe17qcrgi7wf6l6pbfdgwh50ohso,OMniE2BM,2020-0188,2020-11-16,17:07:35,17:25:27,NA,incomplete,185,race,3,1,right,C_M_13.jpg,A_M_11.jpg,C_F_10.jpg,right,1143.2150001637638,true,high,false
OMniE2BM,3pgqrazx15xrvqygpna1awvsi04ysb,3efe17qcrgi7wf6l6pbfdgwh50ohso,OMniE2BM,2020-0188,2020-11-16,17:07:35,17:25:27,NA,incomplete,186,race,3,1,left,C_M_15.jpg,C_F_01.jpg,A_M_16.jpg,left,867.9550001397729,true,high,false
OMniE2BM,3pgqrazx15xrvqygpna1awvsi04ysb,3efe17qcrgi7wf6l6pbfdgwh50ohso,OMniE2BM,2020-0188,2020-11-16,17:07:35,17:25:27,NA,incomplete,187,race,3,0,right,A_M_05.jpg,C_M_13.jpg,A_F_14.jpg,right,772.1650004386902,true,high,false
OMniE2BM,3pgqrazx15xrvqygpna1awvsi04ysb,3efe17qcrgi7wf6l6pbfdgwh50ohso,OMniE2BM,2020-0188,2020-11-16,17:07:35,17:25:27,NA,incomplete,188,race,3,1,left,A_M_06.jpg,A_F_02.jpg,C_M_07.jpg,left,801.6399997286499,true,high,false
OMniE2BM,3pgqrazx15xrvqygpna1awvsi04ysb,3efe17qcrgi7wf6l6pbfdgwh50ohso,OMniE2BM,2020-0188,2020-11-16,17:07:35,17:25:27,NA,incomplete,189,race,3,1,left,C_F_07.jpg,C_M_06.jpg,A_F_15.jpg,left,857.6799998991191,true,high,false
OMniE2BM,3pgqrazx15xrvqygpna1awvsi04ysb,3efe17qcrgi7wf6l6pbfdgwh50ohso,OMniE2BM,2020-0188,2020-11-16,17:07:35,17:25:27,NA,incomplete,190,race,3,0,left,C_F_02.jpg,C_M_05.jpg,A_F_01.jpg,left,881.8899998441339,true,high,false
OMniE2BM,3pgqrazx15xrvqygpna1awvsi04ysb,3efe17qcrgi7wf6l6pbfdgwh50ohso,OMniE2BM,2020-0188,2020-11-16,17:07:35,17:25:27,NA,incomplete,191,race,3,1,right,A_M_03.jpg,C_M_05.jpg,A_F_07.jpg,right,665.3050002641976,true,high,false
OMniE2BM,3pgqrazx15xrvqygpna1awvsi04ysb,3efe17qcrgi7wf6l6pbfdgwh50ohso,OMniE2BM,2020-0188,2020-11-16,17:07:35,17:25:27,NA,incomplete,192,race,3,1,right,A_F_06.jpg,C_F_04.jpg,A_M_11.jpg,right,809.6949998289347,true,high,false
OMniE2BM,3pgqrazx15xrvqygpna1awvsi04ysb,3efe17qcrgi7wf6l6pbfdgwh50ohso,OMniE2BM,2020-0188,2020-11-16,17:07:35,17:25:27,NA,incomplete,193,race,3,1,right,A_M_07.jpg,C_M_05.jpg,A_F_04.jpg,right,726.0150001384318,true,high,false
OMniE2BM,3pgqrazx15xrvqygpna1awvsi04ysb,3efe17qcrgi7wf6l6pbfdgwh50ohso,OMniE2BM,2020-0188,2020-11-16,17:07:35,17:25:27,NA,incomplete,194,race,3,1,right,C_F_02.jpg,A_F_01.jpg,C_M_03.jpg,left,625.4549999721348,false,high,false
OMniE2BM,3pgqrazx15xrvqygpna1awvsi04ysb,3efe17qcrgi7wf6l6pbfdgwh50ohso,OMniE2BM,2020-0188,2020-11-16,17:07:35,17:25:27,NA,incomplete,195,race,3,1,left,A_F_11.jpg,A_M_12.jpg,C_F_05.jpg,left,914.9500001221895,true,high,false
OMniE2BM,3pgqrazx15xrvqygpna1awvsi04ysb,3efe17qcrgi7wf6l6pbfdgwh50ohso,OMniE2BM,2020-0188,2020-11-16,17:07:35,17:25:27,NA,incomplete,196,race,3,1,left,A_M_03.jpg,A_F_15.jpg,C_M_09.jpg,right,977.1549999713898,false,high,false
OMniE2BM,3pgqrazx15xrvqygpna1awvsi04ysb,3efe17qcrgi7wf6l6pbfdgwh50ohso,OMniE2BM,2020-0188,2020-11-16,17:07:35,17:25:27,NA,incomplete,197,race,3,1,left,C_M_03.jpg,C_F_01.jpg,A_M_15.jpg,left,1044.4600000046194,true,high,false
OMniE2BM,3pgqrazx15xrvqygpna1awvsi04ysb,3efe17qcrgi7wf6l6pbfdgwh50ohso,OMniE2BM,2020-0188,2020-11-16,17:07:35,17:25:27,NA,incomplete,198,race,3,1,right,C_M_05.jpg,A_M_06.jpg,C_F_10.jpg,right,831.0449998825788,true,high,false
OMniE2BM,3pgqrazx15xrvqygpna1awvsi04ysb,3efe17qcrgi7wf6l6pbfdgwh50ohso,OMniE2BM,2020-0188,2020-11-16,17:07:35,17:25:27,NA,incomplete,199,race,3,0,right,C_F_13.jpg,A_F_15.jpg,C_M_04.jpg,right,838.5149999521673,true,high,false
OMniE2BM,3pgqrazx15xrvqygpna1awvsi04ysb,3efe17qcrgi7wf6l6pbfdgwh50ohso,OMniE2BM,2020-0188,2020-11-16,17:07:35,17:25:27,NA,incomplete,200,gender,2,1,left,A_F_13.jpg,C_F_03.jpg,A_M_09.jpg,right,887.2050000354648,false,high,false
OMniE2BM,3pgqrazx15xrvqygpna1awvsi04ysb,3efe17qcrgi7wf6l6pbfdgwh50ohso,OMniE2BM,2020-0188,2020-11-16,17:07:35,17:25:27,NA,incomplete,201,gender,2,1,right,A_F_11.jpg,A_M_14.jpg,C_F_05.jpg,right,670.3949999064207,true,high,false
OMniE2BM,3pgqrazx15xrvqygpna1awvsi04ysb,3efe17qcrgi7wf6l6pbfdgwh50ohso,OMniE2BM,2020-0188,2020-11-16,17:07:35,17:25:27,NA,incomplete,202,gender,2,1,right,A_M_10.jpg,A_F_07.jpg,C_M_11.jpg,left,885.6800002977252,false,high,false
OMniE2BM,3pgqrazx15xrvqygpna1awvsi04ysb,3efe17qcrgi7wf6l6pbfdgwh50ohso,OMniE2BM,2020-0188,2020-11-16,17:07:35,17:25:27,NA,incomplete,203,gender,2,0,left,A_F_04.jpg,C_F_12.jpg,A_M_13.jpg,left,1038.500000257045,true,high,false
OMniE2BM,3pgqrazx15xrvqygpna1awvsi04ysb,3efe17qcrgi7wf6l6pbfdgwh50ohso,OMniE2BM,2020-0188,2020-11-16,17:07:35,17:25:27,NA,incomplete,204,gender,2,1,right,A_M_16.jpg,A_F_10.jpg,C_M_11.jpg,right,637.1499998494983,true,high,false
OMniE2BM,3pgqrazx15xrvqygpna1awvsi04ysb,3efe17qcrgi7wf6l6pbfdgwh50ohso,OMniE2BM,2020-0188,2020-11-16,17:07:35,17:25:27,NA,incomplete,205,gender,2,1,left,A_M_05.jpg,C_M_10.jpg,A_F_11.jpg,left,797.8250002488494,true,high,false
OMniE2BM,3pgqrazx15xrvqygpna1awvsi04ysb,3efe17qcrgi7wf6l6pbfdgwh50ohso,OMniE2BM,2020-0188,2020-11-16,17:07:35,17:25:27,NA,incomplete,206,gender,2,0,right,C_F_09.jpg,C_M_10.jpg,A_F_05.jpg,right,945.3450003638864,true,high,false
OMniE2BM,3pgqrazx15xrvqygpna1awvsi04ysb,3efe17qcrgi7wf6l6pbfdgwh50ohso,OMniE2BM,2020-0188,2020-11-16,17:07:35,17:25:27,NA,incomplete,207,gender,2,1,right,A_M_04.jpg,A_F_05.jpg,C_M_10.jpg,right,909.8450001329184,true,high,false
OMniE2BM,3pgqrazx15xrvqygpna1awvsi04ysb,3efe17qcrgi7wf6l6pbfdgwh50ohso,OMniE2BM,2020-0188,2020-11-16,17:07:35,17:25:27,NA,incomplete,208,gender,2,0,left,C_F_04.jpg,A_F_13.jpg,C_M_03.jpg,left,805.0750000402331,true,high,false
OMniE2BM,3pgqrazx15xrvqygpna1awvsi04ysb,3efe17qcrgi7wf6l6pbfdgwh50ohso,OMniE2BM,2020-0188,2020-11-16,17:07:35,17:25:27,NA,incomplete,209,gender,2,1,left,A_F_16.jpg,C_F_08.jpg,A_M_15.jpg,left,717.6650003530085,true,high,false
OMniE2BM,3pgqrazx15xrvqygpna1awvsi04ysb,3efe17qcrgi7wf6l6pbfdgwh50ohso,OMniE2BM,2020-0188,2020-11-16,17:07:35,17:25:27,NA,incomplete,210,gender,2,1,right,A_F_10.jpg,A_M_06.jpg,C_F_08.jpg,right,635.2799995802343,true,high,false
OMniE2BM,3pgqrazx15xrvqygpna1awvsi04ysb,3efe17qcrgi7wf6l6pbfdgwh50ohso,OMniE2BM,2020-0188,2020-11-16,17:07:35,17:25:27,NA,incomplete,211,gender,2,1,left,A_F_01.jpg,C_F_14.jpg,A_M_16.jpg,left,772.5449996069074,true,high,false
OMniE2BM,3pgqrazx15xrvqygpna1awvsi04ysb,3efe17qcrgi7wf6l6pbfdgwh50ohso,OMniE2BM,2020-0188,2020-11-16,17:07:35,17:25:27,NA,incomplete,212,gender,2,1,left,C_M_09.jpg,A_M_01.jpg,C_F_12.jpg,left,703.7649997510016,true,high,false
OMniE2BM,3pgqrazx15xrvqygpna1awvsi04ysb,3efe17qcrgi7wf6l6pbfdgwh50ohso,OMniE2BM,2020-0188,2020-11-16,17:07:35,17:25:27,NA,incomplete,213,gender,2,1,left,A_F_13.jpg,C_F_05.jpg,A_M_01.jpg,left,696.1400001309812,true,high,false
OMniE2BM,3pgqrazx15xrvqygpna1awvsi04ysb,3efe17qcrgi7wf6l6pbfdgwh50ohso,OMniE2BM,2020-0188,2020-11-16,17:07:35,17:25:27,NA,incomplete,214,gender,2,1,right,C_M_12.jpg,C_F_07.jpg,A_M_14.jpg,right,765.1399997994304,true,high,false
OMniE2BM,3pgqrazx15xrvqygpna1awvsi04ysb,3efe17qcrgi7wf6l6pbfdgwh50ohso,OMniE2BM,2020-0188,2020-11-16,17:07:35,17:25:27,NA,incomplete,215,gender,2,1,right,A_F_15.jpg,A_M_16.jpg,C_F_07.jpg,right,625.2399999648333,true,high,false
OMniE2BM,3pgqrazx15xrvqygpna1awvsi04ysb,3efe17qcrgi7wf6l6pbfdgwh50ohso,OMniE2BM,2020-0188,2020-11-16,17:07:35,17:25:27,NA,incomplete,216,gender,2,1,left,C_M_15.jpg,A_M_02.jpg,C_F_12.jpg,left,683.0899999476969,true,high,false
OMniE2BM,3pgqrazx15xrvqygpna1awvsi04ysb,3efe17qcrgi7wf6l6pbfdgwh50ohso,OMniE2BM,2020-0188,2020-11-16,17:07:35,17:25:27,NA,incomplete,217,gender,2,1,right,A_M_07.jpg,A_F_01.jpg,C_M_08.jpg,right,650.605000089854,true,high,false
OMniE2BM,3pgqrazx15xrvqygpna1awvsi04ysb,3efe17qcrgi7wf6l6pbfdgwh50ohso,OMniE2BM,2020-0188,2020-11-16,17:07:35,17:25:27,NA,incomplete,218,gender,2,1,right,C_M_04.jpg,C_F_16.jpg,A_M_12.jpg,right,637.820000294596,true,high,false
OMniE2BM,3pgqrazx15xrvqygpna1awvsi04ysb,3efe17qcrgi7wf6l6pbfdgwh50ohso,OMniE2BM,2020-0188,2020-11-16,17:07:35,17:25:27,NA,incomplete,219,gender,2,1,left,A_M_08.jpg,C_M_11.jpg,A_F_16.jpg,left,572.1899997442961,true,high,false
OMniE2BM,3pgqrazx15xrvqygpna1awvsi04ysb,3efe17qcrgi7wf6l6pbfdgwh50ohso,OMniE2BM,2020-0188,2020-11-16,17:07:35,17:25:27,NA,incomplete,220,race,3,1,right,C_F_08.jpg,A_F_05.jpg,C_M_14.jpg,left,944.2100003361702,false,high,false
OMniE2BM,3pgqrazx15xrvqygpna1awvsi04ysb,3efe17qcrgi7wf6l6pbfdgwh50ohso,OMniE2BM,2020-0188,2020-11-16,17:07:35,17:25:27,NA,incomplete,221,race,3,0,left,C_F_01.jpg,C_M_05.jpg,A_F_16.jpg,right,717.0949997380376,false,high,false
OMniE2BM,3pgqrazx15xrvqygpna1awvsi04ysb,3efe17qcrgi7wf6l6pbfdgwh50ohso,OMniE2BM,2020-0188,2020-11-16,17:07:35,17:25:27,NA,incomplete,222,race,3,1,right,A_F_04.jpg,C_F_15.jpg,A_M_06.jpg,left,650.9250001981854,false,high,false
OMniE2BM,3pgqrazx15xrvqygpna1awvsi04ysb,3efe17qcrgi7wf6l6pbfdgwh50ohso,OMniE2BM,2020-0188,2020-11-16,17:07:35,17:25:27,NA,incomplete,223,race,3,0,right,A_M_06.jpg,C_M_11.jpg,A_F_09.jpg,left,1342.2150001861155,false,high,false
OMniE2BM,3pgqrazx15xrvqygpna1awvsi04ysb,3efe17qcrgi7wf6l6pbfdgwh50ohso,OMniE2BM,2020-0188,2020-11-16,17:07:35,17:25:27,NA,incomplete,224,race,3,1,right,C_F_05.jpg,A_F_12.jpg,C_M_02.jpg,left,927.6749999262393,false,high,false
OMniE2BM,3pgqrazx15xrvqygpna1awvsi04ysb,3efe17qcrgi7wf6l6pbfdgwh50ohso,OMniE2BM,2020-0188,2020-11-16,17:07:35,17:25:27,NA,incomplete,225,race,3,1,left,A_M_14.jpg,A_F_06.jpg,C_M_01.jpg,left,941.2850001826882,true,high,false
OMniE2BM,3pgqrazx15xrvqygpna1awvsi04ysb,3efe17qcrgi7wf6l6pbfdgwh50ohso,OMniE2BM,2020-0188,2020-11-16,17:07:35,17:25:27,NA,incomplete,226,race,3,1,right,C_F_05.jpg,A_F_15.jpg,C_M_08.jpg,right,681.9449998438358,true,high,false
OMniE2BM,3pgqrazx15xrvqygpna1awvsi04ysb,3efe17qcrgi7wf6l6pbfdgwh50ohso,OMniE2BM,2020-0188,2020-11-16,17:07:35,17:25:27,NA,incomplete,227,race,3,0,right,A_M_14.jpg,C_M_15.jpg,A_F_04.jpg,right,929.4400000944734,true,high,false
OMniE2BM,3pgqrazx15xrvqygpna1awvsi04ysb,3efe17qcrgi7wf6l6pbfdgwh50ohso,OMniE2BM,2020-0188,2020-11-16,17:07:35,17:25:27,NA,incomplete,228,race,3,1,right,A_F_04.jpg,C_F_16.jpg,A_M_07.jpg,right,929.109999909997,true,high,false
OMniE2BM,3pgqrazx15xrvqygpna1awvsi04ysb,3efe17qcrgi7wf6l6pbfdgwh50ohso,OMniE2BM,2020-0188,2020-11-16,17:07:35,17:25:27,NA,incomplete,229,race,3,1,right,C_F_02.jpg,A_F_07.jpg,C_M_05.jpg,right,804.2800002731383,true,high,false
OMniE2BM,3pgqrazx15xrvqygpna1awvsi04ysb,3efe17qcrgi7wf6l6pbfdgwh50ohso,OMniE2BM,2020-0188,2020-11-16,17:07:35,17:25:27,NA,incomplete,230,race,3,1,left,C_M_08.jpg,C_F_01.jpg,A_M_02.jpg,left,782.4750002473593,true,high,false
OMniE2BM,3pgqrazx15xrvqygpna1awvsi04ysb,3efe17qcrgi7wf6l6pbfdgwh50ohso,OMniE2BM,2020-0188,2020-11-16,17:07:35,17:25:27,NA,incomplete,231,race,3,1,right,A_M_11.jpg,C_M_07.jpg,A_F_10.jpg,right,809.9899999797344,true,high,false
OMniE2BM,3pgqrazx15xrvqygpna1awvsi04ysb,3efe17qcrgi7wf6l6pbfdgwh50ohso,OMniE2BM,2020-0188,2020-11-16,17:07:35,17:25:27,NA,incomplete,232,race,3,1,left,C_F_10.jpg,C_M_16.jpg,A_F_07.jpg,right,804.1599998250604,false,high,false
OMniE2BM,3pgqrazx15xrvqygpna1awvsi04ysb,3efe17qcrgi7wf6l6pbfdgwh50ohso,OMniE2BM,2020-0188,2020-11-16,17:07:35,17:25:27,NA,incomplete,233,race,3,1,right,A_F_09.jpg,C_F_14.jpg,A_M_11.jpg,right,816.0100001841784,true,high,false
OMniE2BM,3pgqrazx15xrvqygpna1awvsi04ysb,3efe17qcrgi7wf6l6pbfdgwh50ohso,OMniE2BM,2020-0188,2020-11-16,17:07:35,17:25:27,NA,incomplete,234,race,3,1,right,C_F_05.jpg,A_F_08.jpg,C_M_03.jpg,right,832.3650001548231,true,high,false
OMniE2BM,3pgqrazx15xrvqygpna1awvsi04ysb,3efe17qcrgi7wf6l6pbfdgwh50ohso,OMniE2BM,2020-0188,2020-11-16,17:07:35,17:25:27,NA,incomplete,235,race,3,1,right,C_F_11.jpg,A_F_07.jpg,C_M_02.jpg,right,810.0450001657009,true,high,false
OMniE2BM,3pgqrazx15xrvqygpna1awvsi04ysb,3efe17qcrgi7wf6l6pbfdgwh50ohso,OMniE2BM,2020-0188,2020-11-16,17:07:35,17:25:27,NA,incomplete,236,race,3,1,left,C_F_03.jpg,C_M_01.jpg,A_F_05.jpg,left,844.014999922365,true,high,false
OMniE2BM,3pgqrazx15xrvqygpna1awvsi04ysb,3efe17qcrgi7wf6l6pbfdgwh50ohso,OMniE2BM,2020-0188,2020-11-16,17:07:35,17:25:27,NA,incomplete,237,race,3,1,right,A_F_10.jpg,C_F_02.jpg,A_M_16.jpg,right,1284.6450000070035,true,high,false
OMniE2BM,3pgqrazx15xrvqygpna1awvsi04ysb,3efe17qcrgi7wf6l6pbfdgwh50ohso,OMniE2BM,2020-0188,2020-11-16,17:07:35,17:25:27,NA,incomplete,238,race,3,0,right,A_F_14.jpg,C_F_05.jpg,A_M_01.jpg,right,925.1450002193451,true,high,false
OMniE2BM,3pgqrazx15xrvqygpna1awvsi04ysb,3efe17qcrgi7wf6l6pbfdgwh50ohso,OMniE2BM,2020-0188,2020-11-16,17:07:35,17:25:27,NA,incomplete,239,race,3,1,left,C_M_15.jpg,C_F_02.jpg,A_M_01.jpg,left,696.775000076741,true,high,false
OMniE2BM,3pgqrazx15xrvqygpna1awvsi04ysb,3efe17qcrgi7wf6l6pbfdgwh50ohso,OMniE2BM,2020-0188,2020-11-16,17:07:35,17:25:27,NA,NA,instruction example,shape,NA,NA,NA,Purple_Circle_Grid_2.jpg,Red_Circle_Chess_3.jpg,Green_Plus_Dots_2.jpg,NA,NA,NA,NA,undefined
OMniE2BM,3pgqrazx15xrvqygpna1awvsi04ysb,3efe17qcrgi7wf6l6pbfdgwh50ohso,OMniE2BM,2020-0188,2020-11-16,17:07:35,17:25:27,NA,NA,instruction example,shape,NA,NA,NA,Red_Circle_Dots_1.jpg,Purple_Plus_Grid_1.jpg,Green_Circle_Stripes_2.jpg,NA,NA,NA,NA,undefined
OMniE2BM,3pgqrazx15xrvqygpna1awvsi04ysb,3efe17qcrgi7wf6l6pbfdgwh50ohso,OMniE2BM,2020-0188,2020-11-16,17:07:35,17:25:27,NA,NA,instruction example,shape,NA,NA,NA,A_F_09.jpg,C_F_01.jpg,A_M_11.jpg,NA,NA,NA,NA,undefined
OMniE2BM,3pgqrazx15xrvqygpna1awvsi04ysb,3efe17qcrgi7wf6l6pbfdgwh50ohso,OMniE2BM,2020-0188,2020-11-16,17:07:35,17:25:27,NA,NA,instruction example,shape,NA,NA,NA,C_M_13.jpg,C_F_03.jpg,A_M_09.jpg,NA,NA,NA,NA,undefined
