workerId,hitId,assignmentId,subject,studyid,exp_date,exp_start,exp_end,time_start,time_end,trial,type,sequence,reward_validity,answer,image_top,image_left,image_right,response,response_time,response_acc,volatility,practice
UcxFeRiD,39tx062qy41yb4nrucnyjag7oeq3xx,3fijly1b6yhq5rznjijlfqft2axfpj,UcxFeRiD,2020-0188,2020-11-18,00:34:24,00:51:08,NA,incomplete,0,shape,0,1,left,Red_Circle_Dots_2.jpg,Blue_Circle_Chess_3.jpg,Green_Star_Grid_2.jpg,left,1314.9449999909848,true,NA,true
UcxFeRiD,39tx062qy41yb4nrucnyjag7oeq3xx,3fijly1b6yhq5rznjijlfqft2axfpj,UcxFeRiD,2020-0188,2020-11-18,00:34:24,00:51:08,NA,incomplete,1,shape,0,0,right,Blue_Plus_Stripes_3.jpg,Green_Triangle_Grid_3.jpg,Red_Plus_Dots_1.jpg,right,1310.994999948889,true,NA,true
UcxFeRiD,39tx062qy41yb4nrucnyjag7oeq3xx,3fijly1b6yhq5rznjijlfqft2axfpj,UcxFeRiD,2020-0188,2020-11-18,00:34:24,00:51:08,NA,incomplete,2,shape,0,1,right,Blue_Circle_Dots_1.jpg,Red_Star_Chess_1.jpg,Purple_Circle_Grid_2.jpg,right,1242.5499999662861,true,NA,true
UcxFeRiD,39tx062qy41yb4nrucnyjag7oeq3xx,3fijly1b6yhq5rznjijlfqft2axfpj,UcxFeRiD,2020-0188,2020-11-18,00:34:24,00:51:08,NA,incomplete,3,shape,0,1,right,Red_Star_Chess_4.jpg,Blue_Plus_Grid_4.jpg,Green_Star_Stripes_3.jpg,right,1070.1000000117347,true,NA,true
UcxFeRiD,39tx062qy41yb4nrucnyjag7oeq3xx,3fijly1b6yhq5rznjijlfqft2axfpj,UcxFeRiD,2020-0188,2020-11-18,00:34:24,00:51:08,NA,incomplete,4,shape,0,0,right,Purple_Plus_Dots_1.jpg,Blue_Circle_Grid_1.jpg,Green_Plus_Stripes_2.jpg,right,858.47500001546,true,NA,true
UcxFeRiD,39tx062qy41yb4nrucnyjag7oeq3xx,3fijly1b6yhq5rznjijlfqft2axfpj,UcxFeRiD,2020-0188,2020-11-18,00:34:24,00:51:08,NA,incomplete,5,shape,0,1,left,Purple_Plus_Stripes_4.jpg,Green_Plus_Dots_1.jpg,Red_Star_Grid_4.jpg,left,1617.8200000431389,true,NA,true
UcxFeRiD,39tx062qy41yb4nrucnyjag7oeq3xx,3fijly1b6yhq5rznjijlfqft2axfpj,UcxFeRiD,2020-0188,2020-11-18,00:34:24,00:51:08,NA,incomplete,6,shape,0,1,right,Green_Star_Dots_2.jpg,Blue_Circle_Chess_2.jpg,Red_Star_Stripes_3.jpg,right,805.3599999984726,true,NA,true
UcxFeRiD,39tx062qy41yb4nrucnyjag7oeq3xx,3fijly1b6yhq5rznjijlfqft2axfpj,UcxFeRiD,2020-0188,2020-11-18,00:34:24,00:51:08,NA,incomplete,7,shape,0,0,left,Green_Plus_Dots_3.jpg,Red_Plus_Chess_1.jpg,Blue_Star_Stripes_3.jpg,left,1081.3649999909103,true,NA,true
UcxFeRiD,39tx062qy41yb4nrucnyjag7oeq3xx,3fijly1b6yhq5rznjijlfqft2axfpj,UcxFeRiD,2020-0188,2020-11-18,00:34:24,00:51:08,NA,incomplete,8,shape,0,1,right,Green_Circle_Chess_1.jpg,Red_Plus_Stripes_1.jpg,Blue_Circle_Dots_3.jpg,right,881.1799999093637,true,NA,true
UcxFeRiD,39tx062qy41yb4nrucnyjag7oeq3xx,3fijly1b6yhq5rznjijlfqft2axfpj,UcxFeRiD,2020-0188,2020-11-18,00:34:24,00:51:08,NA,incomplete,9,shape,0,0,right,Green_Triangle_Stripes_4.jpg,Purple_Plus_Grid_4.jpg,Red_Triangle_Dots_3.jpg,right,795.174999977462,true,NA,true
UcxFeRiD,39tx062qy41yb4nrucnyjag7oeq3xx,3fijly1b6yhq5rznjijlfqft2axfpj,UcxFeRiD,2020-0188,2020-11-18,00:34:24,00:51:08,NA,incomplete,10,shape,0,1,right,Blue_Star_Chess_4.jpg,Red_Plus_Grid_4.jpg,Green_Star_Stripes_3.jpg,right,803.4549999283627,true,NA,true
UcxFeRiD,39tx062qy41yb4nrucnyjag7oeq3xx,3fijly1b6yhq5rznjijlfqft2axfpj,UcxFeRiD,2020-0188,2020-11-18,00:34:24,00:51:08,NA,incomplete,11,shape,0,0,left,Red_Star_Dots_3.jpg,Green_Star_Grid_2.jpg,Purple_Circle_Stripes_3.jpg,left,819.5500000147149,true,NA,true
UcxFeRiD,39tx062qy41yb4nrucnyjag7oeq3xx,3fijly1b6yhq5rznjijlfqft2axfpj,UcxFeRiD,2020-0188,2020-11-18,00:34:24,00:51:08,NA,incomplete,12,shape,0,1,right,Purple_Circle_Chess_2.jpg,Blue_Star_Grid_2.jpg,Green_Circle_Dots_4.jpg,right,1047.6600000401959,true,NA,true
UcxFeRiD,39tx062qy41yb4nrucnyjag7oeq3xx,3fijly1b6yhq5rznjijlfqft2axfpj,UcxFeRiD,2020-0188,2020-11-18,00:34:24,00:51:08,NA,incomplete,13,shape,0,1,left,Blue_Star_Stripes_4.jpg,Green_Star_Dots_3.jpg,Purple_Circle_Chess_4.jpg,left,865.8049999503419,true,NA,true
UcxFeRiD,39tx062qy41yb4nrucnyjag7oeq3xx,3fijly1b6yhq5rznjijlfqft2axfpj,UcxFeRiD,2020-0188,2020-11-18,00:34:24,00:51:08,NA,incomplete,14,shape,0,1,left,Blue_Triangle_Grid_1.jpg,Red_Triangle_Dots_4.jpg,Purple_Plus_Stripes_1.jpg,left,891.4649999933317,true,NA,true
UcxFeRiD,39tx062qy41yb4nrucnyjag7oeq3xx,3fijly1b6yhq5rznjijlfqft2axfpj,UcxFeRiD,2020-0188,2020-11-18,00:34:24,00:51:08,NA,incomplete,15,shape,0,1,right,Green_Plus_Chess_2.jpg,Red_Triangle_Grid_2.jpg,Purple_Plus_Stripes_3.jpg,right,788.5050000622869,true,NA,true
UcxFeRiD,39tx062qy41yb4nrucnyjag7oeq3xx,3fijly1b6yhq5rznjijlfqft2axfpj,UcxFeRiD,2020-0188,2020-11-18,00:34:24,00:51:08,NA,incomplete,16,shape,0,1,left,Red_Circle_Chess_3.jpg,Green_Circle_Stripes_1.jpg,Blue_Triangle_Dots_3.jpg,left,1011.2850000150502,true,NA,true
UcxFeRiD,39tx062qy41yb4nrucnyjag7oeq3xx,3fijly1b6yhq5rznjijlfqft2axfpj,UcxFeRiD,2020-0188,2020-11-18,00:34:24,00:51:08,NA,incomplete,17,shape,0,0,right,Red_Circle_Grid_4.jpg,Purple_Triangle_Stripes_4.jpg,Blue_Circle_Dots_1.jpg,right,613.6950000654906,true,NA,true
UcxFeRiD,39tx062qy41yb4nrucnyjag7oeq3xx,3fijly1b6yhq5rznjijlfqft2axfpj,UcxFeRiD,2020-0188,2020-11-18,00:34:24,00:51:08,NA,incomplete,18,shape,0,1,left,Purple_Triangle_Grid_2.jpg,Blue_Triangle_Stripes_3.jpg,Red_Circle_Chess_2.jpg,left,624.3150000227615,true,NA,true
UcxFeRiD,39tx062qy41yb4nrucnyjag7oeq3xx,3fijly1b6yhq5rznjijlfqft2axfpj,UcxFeRiD,2020-0188,2020-11-18,00:34:24,00:51:08,NA,incomplete,19,shape,0,1,left,Blue_Star_Stripes_1.jpg,Green_Star_Grid_2.jpg,Red_Circle_Chess_1.jpg,left,636.1500000348315,true,NA,true
UcxFeRiD,39tx062qy41yb4nrucnyjag7oeq3xx,3fijly1b6yhq5rznjijlfqft2axfpj,UcxFeRiD,2020-0188,2020-11-18,00:34:24,00:51:08,NA,incomplete,20,number,1,1,right,Red_Circle_Grid_3.jpg,Green_Circle_Chess_1.jpg,Blue_Star_Dots_3.jpg,left,1795.1600000960752,false,NA,true
UcxFeRiD,39tx062qy41yb4nrucnyjag7oeq3xx,3fijly1b6yhq5rznjijlfqft2axfpj,UcxFeRiD,2020-0188,2020-11-18,00:34:24,00:51:08,NA,incomplete,21,number,1,1,right,Purple_Star_Stripes_4.jpg,Blue_Star_Chess_1.jpg,Green_Circle_Grid_4.jpg,right,1448.8750000018626,true,NA,true
UcxFeRiD,39tx062qy41yb4nrucnyjag7oeq3xx,3fijly1b6yhq5rznjijlfqft2axfpj,UcxFeRiD,2020-0188,2020-11-18,00:34:24,00:51:08,NA,incomplete,22,number,1,1,right,Purple_Star_Grid_2.jpg,Green_Star_Chess_3.jpg,Blue_Triangle_Dots_2.jpg,right,945.8850000519305,true,NA,true
UcxFeRiD,39tx062qy41yb4nrucnyjag7oeq3xx,3fijly1b6yhq5rznjijlfqft2axfpj,UcxFeRiD,2020-0188,2020-11-18,00:34:24,00:51:08,NA,incomplete,23,number,1,1,right,Blue_Triangle_Chess_3.jpg,Red_Triangle_Grid_4.jpg,Purple_Star_Stripes_3.jpg,right,1081.1349999858066,true,NA,true
UcxFeRiD,39tx062qy41yb4nrucnyjag7oeq3xx,3fijly1b6yhq5rznjijlfqft2axfpj,UcxFeRiD,2020-0188,2020-11-18,00:34:24,00:51:08,NA,incomplete,24,number,1,1,right,Green_Triangle_Stripes_3.jpg,Purple_Triangle_Chess_1.jpg,Red_Circle_Grid_3.jpg,right,877.9700000304729,true,NA,true
UcxFeRiD,39tx062qy41yb4nrucnyjag7oeq3xx,3fijly1b6yhq5rznjijlfqft2axfpj,UcxFeRiD,2020-0188,2020-11-18,00:34:24,00:51:08,NA,incomplete,25,number,1,0,right,Blue_Star_Grid_3.jpg,Purple_Star_Stripes_4.jpg,Green_Circle_Dots_3.jpg,right,651.1250000912696,true,NA,true
UcxFeRiD,39tx062qy41yb4nrucnyjag7oeq3xx,3fijly1b6yhq5rznjijlfqft2axfpj,UcxFeRiD,2020-0188,2020-11-18,00:34:24,00:51:08,NA,incomplete,26,number,1,1,left,Red_Circle_Dots_4.jpg,Blue_Star_Grid_4.jpg,Purple_Circle_Stripes_2.jpg,left,1089.87500006333,true,NA,true
UcxFeRiD,39tx062qy41yb4nrucnyjag7oeq3xx,3fijly1b6yhq5rznjijlfqft2axfpj,UcxFeRiD,2020-0188,2020-11-18,00:34:24,00:51:08,NA,incomplete,27,number,1,1,right,Purple_Circle_Dots_1.jpg,Red_Circle_Grid_2.jpg,Blue_Plus_Stripes_1.jpg,right,974.8299999628216,true,NA,true
UcxFeRiD,39tx062qy41yb4nrucnyjag7oeq3xx,3fijly1b6yhq5rznjijlfqft2axfpj,UcxFeRiD,2020-0188,2020-11-18,00:34:24,00:51:08,NA,incomplete,28,number,1,1,right,Purple_Triangle_Stripes_1.jpg,Blue_Triangle_Chess_3.jpg,Red_Plus_Grid_1.jpg,right,695.27000002563,true,NA,true
UcxFeRiD,39tx062qy41yb4nrucnyjag7oeq3xx,3fijly1b6yhq5rznjijlfqft2axfpj,UcxFeRiD,2020-0188,2020-11-18,00:34:24,00:51:08,NA,incomplete,29,number,1,1,left,Purple_Triangle_Chess_1.jpg,Blue_Star_Grid_1.jpg,Red_Triangle_Dots_4.jpg,left,976.4649999560788,true,NA,true
UcxFeRiD,39tx062qy41yb4nrucnyjag7oeq3xx,3fijly1b6yhq5rznjijlfqft2axfpj,UcxFeRiD,2020-0188,2020-11-18,00:34:24,00:51:08,NA,incomplete,30,number,1,0,right,Green_Plus_Stripes_4.jpg,Blue_Plus_Grid_1.jpg,Purple_Star_Chess_4.jpg,right,769.194999942556,true,NA,true
UcxFeRiD,39tx062qy41yb4nrucnyjag7oeq3xx,3fijly1b6yhq5rznjijlfqft2axfpj,UcxFeRiD,2020-0188,2020-11-18,00:34:24,00:51:08,NA,incomplete,31,number,1,1,right,Purple_Plus_Grid_3.jpg,Green_Plus_Stripes_4.jpg,Red_Triangle_Dots_3.jpg,right,791.9000000692904,true,NA,true
UcxFeRiD,39tx062qy41yb4nrucnyjag7oeq3xx,3fijly1b6yhq5rznjijlfqft2axfpj,UcxFeRiD,2020-0188,2020-11-18,00:34:24,00:51:08,NA,incomplete,32,number,1,1,left,Blue_Circle_Dots_2.jpg,Red_Plus_Stripes_2.jpg,Green_Circle_Chess_1.jpg,left,707.3650000384077,true,NA,true
UcxFeRiD,39tx062qy41yb4nrucnyjag7oeq3xx,3fijly1b6yhq5rznjijlfqft2axfpj,UcxFeRiD,2020-0188,2020-11-18,00:34:24,00:51:08,NA,incomplete,33,number,1,1,left,Blue_Star_Dots_4.jpg,Green_Plus_Chess_4.jpg,Red_Star_Grid_1.jpg,left,687.5500000314787,true,NA,true
UcxFeRiD,39tx062qy41yb4nrucnyjag7oeq3xx,3fijly1b6yhq5rznjijlfqft2axfpj,UcxFeRiD,2020-0188,2020-11-18,00:34:24,00:51:08,NA,incomplete,34,number,1,1,left,Purple_Triangle_Stripes_3.jpg,Blue_Star_Chess_3.jpg,Green_Triangle_Dots_1.jpg,left,691.5349999908358,true,NA,true
UcxFeRiD,39tx062qy41yb4nrucnyjag7oeq3xx,3fijly1b6yhq5rznjijlfqft2axfpj,UcxFeRiD,2020-0188,2020-11-18,00:34:24,00:51:08,NA,incomplete,35,number,1,1,right,Blue_Circle_Stripes_2.jpg,Green_Circle_Chess_4.jpg,Purple_Triangle_Dots_2.jpg,right,697.0300000393763,true,NA,true
UcxFeRiD,39tx062qy41yb4nrucnyjag7oeq3xx,3fijly1b6yhq5rznjijlfqft2axfpj,UcxFeRiD,2020-0188,2020-11-18,00:34:24,00:51:08,NA,incomplete,36,number,1,1,left,Purple_Plus_Chess_4.jpg,Green_Circle_Grid_4.jpg,Blue_Plus_Stripes_3.jpg,left,1018.4600000502542,true,NA,true
UcxFeRiD,39tx062qy41yb4nrucnyjag7oeq3xx,3fijly1b6yhq5rznjijlfqft2axfpj,UcxFeRiD,2020-0188,2020-11-18,00:34:24,00:51:08,NA,incomplete,37,number,1,1,right,Blue_Circle_Stripes_4.jpg,Purple_Circle_Dots_1.jpg,Red_Star_Grid_4.jpg,right,709.1600000858307,true,NA,true
UcxFeRiD,39tx062qy41yb4nrucnyjag7oeq3xx,3fijly1b6yhq5rznjijlfqft2axfpj,UcxFeRiD,2020-0188,2020-11-18,00:34:24,00:51:08,NA,incomplete,38,number,1,1,left,Red_Plus_Dots_3.jpg,Purple_Star_Chess_3.jpg,Blue_Plus_Grid_2.jpg,left,1248.11500008218,true,NA,true
UcxFeRiD,39tx062qy41yb4nrucnyjag7oeq3xx,3fijly1b6yhq5rznjijlfqft2axfpj,UcxFeRiD,2020-0188,2020-11-18,00:34:24,00:51:08,NA,incomplete,39,number,1,1,right,Green_Circle_Dots_3.jpg,Blue_Circle_Grid_4.jpg,Red_Triangle_Stripes_3.jpg,right,875.5050000036135,true,NA,true
UcxFeRiD,39tx062qy41yb4nrucnyjag7oeq3xx,3fijly1b6yhq5rznjijlfqft2axfpj,UcxFeRiD,2020-0188,2020-11-18,00:34:24,00:51:08,NA,incomplete,0,shape,0,1,left,Red_Star_Dots_1.jpg,Purple_Star_Chess_2.jpg,Green_Circle_Grid_1.jpg,left,721.3200000114739,true,low,false
UcxFeRiD,39tx062qy41yb4nrucnyjag7oeq3xx,3fijly1b6yhq5rznjijlfqft2axfpj,UcxFeRiD,2020-0188,2020-11-18,00:34:24,00:51:08,NA,incomplete,1,shape,0,1,left,Purple_Plus_Dots_4.jpg,Blue_Plus_Grid_1.jpg,Green_Star_Stripes_4.jpg,right,788.7600000249222,false,low,false
UcxFeRiD,39tx062qy41yb4nrucnyjag7oeq3xx,3fijly1b6yhq5rznjijlfqft2axfpj,UcxFeRiD,2020-0188,2020-11-18,00:34:24,00:51:08,NA,incomplete,2,shape,0,1,left,Green_Triangle_Dots_2.jpg,Red_Triangle_Stripes_4.jpg,Purple_Star_Chess_2.jpg,right,1292.9549999535084,false,low,false
UcxFeRiD,39tx062qy41yb4nrucnyjag7oeq3xx,3fijly1b6yhq5rznjijlfqft2axfpj,UcxFeRiD,2020-0188,2020-11-18,00:34:24,00:51:08,NA,incomplete,3,shape,0,0,left,Blue_Star_Dots_2.jpg,Purple_Star_Grid_3.jpg,Green_Triangle_Stripes_2.jpg,left,1119.1800000378862,true,low,false
UcxFeRiD,39tx062qy41yb4nrucnyjag7oeq3xx,3fijly1b6yhq5rznjijlfqft2axfpj,UcxFeRiD,2020-0188,2020-11-18,00:34:24,00:51:08,NA,incomplete,4,shape,0,1,left,Purple_Star_Dots_4.jpg,Green_Star_Chess_1.jpg,Blue_Triangle_Grid_4.jpg,left,650.1899999566376,true,low,false
UcxFeRiD,39tx062qy41yb4nrucnyjag7oeq3xx,3fijly1b6yhq5rznjijlfqft2axfpj,UcxFeRiD,2020-0188,2020-11-18,00:34:24,00:51:08,NA,incomplete,5,shape,0,1,right,Green_Star_Grid_1.jpg,Purple_Triangle_Dots_1.jpg,Red_Star_Chess_2.jpg,right,675.9950000559911,true,low,false
UcxFeRiD,39tx062qy41yb4nrucnyjag7oeq3xx,3fijly1b6yhq5rznjijlfqft2axfpj,UcxFeRiD,2020-0188,2020-11-18,00:34:24,00:51:08,NA,incomplete,6,shape,0,1,left,Blue_Triangle_Chess_2.jpg,Red_Triangle_Grid_3.jpg,Purple_Plus_Dots_2.jpg,left,633.0649999435991,true,low,false
UcxFeRiD,39tx062qy41yb4nrucnyjag7oeq3xx,3fijly1b6yhq5rznjijlfqft2axfpj,UcxFeRiD,2020-0188,2020-11-18,00:34:24,00:51:08,NA,incomplete,7,shape,0,1,right,Blue_Star_Chess_3.jpg,Purple_Circle_Grid_3.jpg,Green_Star_Stripes_1.jpg,right,761.0100000165403,true,low,false
UcxFeRiD,39tx062qy41yb4nrucnyjag7oeq3xx,3fijly1b6yhq5rznjijlfqft2axfpj,UcxFeRiD,2020-0188,2020-11-18,00:34:24,00:51:08,NA,incomplete,8,shape,0,1,left,Purple_Triangle_Stripes_2.jpg,Green_Triangle_Grid_3.jpg,Blue_Circle_Chess_2.jpg,left,634.8350000334904,true,low,false
UcxFeRiD,39tx062qy41yb4nrucnyjag7oeq3xx,3fijly1b6yhq5rznjijlfqft2axfpj,UcxFeRiD,2020-0188,2020-11-18,00:34:24,00:51:08,NA,incomplete,9,shape,0,1,left,Red_Star_Stripes_2.jpg,Purple_Star_Dots_3.jpg,Blue_Circle_Grid_2.jpg,left,613.9449999900535,true,low,false
UcxFeRiD,39tx062qy41yb4nrucnyjag7oeq3xx,3fijly1b6yhq5rznjijlfqft2axfpj,UcxFeRiD,2020-0188,2020-11-18,00:34:24,00:51:08,NA,incomplete,10,number,1,1,left,Blue_Triangle_Chess_3.jpg,Red_Circle_Dots_3.jpg,Purple_Triangle_Grid_1.jpg,right,608.7599999736995,false,low,false
UcxFeRiD,39tx062qy41yb4nrucnyjag7oeq3xx,3fijly1b6yhq5rznjijlfqft2axfpj,UcxFeRiD,2020-0188,2020-11-18,00:34:24,00:51:08,NA,incomplete,11,number,1,1,right,Blue_Triangle_Chess_3.jpg,Purple_Triangle_Dots_4.jpg,Red_Star_Grid_3.jpg,left,618.1649999925867,false,low,false
UcxFeRiD,39tx062qy41yb4nrucnyjag7oeq3xx,3fijly1b6yhq5rznjijlfqft2axfpj,UcxFeRiD,2020-0188,2020-11-18,00:34:24,00:51:08,NA,incomplete,12,number,1,1,left,Green_Star_Stripes_1.jpg,Purple_Circle_Dots_1.jpg,Blue_Star_Grid_3.jpg,right,608.9149999897927,false,low,false
UcxFeRiD,39tx062qy41yb4nrucnyjag7oeq3xx,3fijly1b6yhq5rznjijlfqft2axfpj,UcxFeRiD,2020-0188,2020-11-18,00:34:24,00:51:08,NA,incomplete,13,number,1,1,left,Purple_Plus_Chess_1.jpg,Red_Triangle_Grid_1.jpg,Blue_Plus_Dots_4.jpg,right,784.8800000501797,false,low,false
UcxFeRiD,39tx062qy41yb4nrucnyjag7oeq3xx,3fijly1b6yhq5rznjijlfqft2axfpj,UcxFeRiD,2020-0188,2020-11-18,00:34:24,00:51:08,NA,incomplete,14,number,1,0,left,Blue_Triangle_Stripes_4.jpg,Red_Plus_Grid_4.jpg,Green_Triangle_Dots_1.jpg,right,702.5000000139698,false,low,false
UcxFeRiD,39tx062qy41yb4nrucnyjag7oeq3xx,3fijly1b6yhq5rznjijlfqft2axfpj,UcxFeRiD,2020-0188,2020-11-18,00:34:24,00:51:08,NA,incomplete,15,number,1,1,left,Green_Circle_Dots_4.jpg,Purple_Star_Grid_4.jpg,Red_Circle_Stripes_1.jpg,right,593.0450001033023,false,low,false
UcxFeRiD,39tx062qy41yb4nrucnyjag7oeq3xx,3fijly1b6yhq5rznjijlfqft2axfpj,UcxFeRiD,2020-0188,2020-11-18,00:34:24,00:51:08,NA,incomplete,16,number,1,1,left,Purple_Circle_Stripes_2.jpg,Red_Triangle_Grid_2.jpg,Blue_Circle_Chess_1.jpg,right,841.8349999701604,false,low,false
UcxFeRiD,39tx062qy41yb4nrucnyjag7oeq3xx,3fijly1b6yhq5rznjijlfqft2axfpj,UcxFeRiD,2020-0188,2020-11-18,00:34:24,00:51:08,NA,incomplete,17,number,1,1,left,Purple_Star_Stripes_4.jpg,Red_Triangle_Chess_4.jpg,Green_Star_Dots_2.jpg,left,1217.519999947399,true,low,false
UcxFeRiD,39tx062qy41yb4nrucnyjag7oeq3xx,3fijly1b6yhq5rznjijlfqft2axfpj,UcxFeRiD,2020-0188,2020-11-18,00:34:24,00:51:08,NA,incomplete,18,number,1,1,right,Purple_Plus_Grid_2.jpg,Green_Plus_Dots_4.jpg,Red_Circle_Stripes_2.jpg,left,1405.7950000278652,false,low,false
UcxFeRiD,39tx062qy41yb4nrucnyjag7oeq3xx,3fijly1b6yhq5rznjijlfqft2axfpj,UcxFeRiD,2020-0188,2020-11-18,00:34:24,00:51:08,NA,incomplete,19,number,1,1,right,Blue_Star_Grid_1.jpg,Purple_Star_Chess_4.jpg,Green_Circle_Stripes_1.jpg,right,1264.820000040345,true,low,false
UcxFeRiD,39tx062qy41yb4nrucnyjag7oeq3xx,3fijly1b6yhq5rznjijlfqft2axfpj,UcxFeRiD,2020-0188,2020-11-18,00:34:24,00:51:08,NA,incomplete,20,shape,0,0,left,Red_Circle_Stripes_2.jpg,Blue_Circle_Grid_4.jpg,Purple_Plus_Dots_2.jpg,right,970.7399999024346,false,low,false
UcxFeRiD,39tx062qy41yb4nrucnyjag7oeq3xx,3fijly1b6yhq5rznjijlfqft2axfpj,UcxFeRiD,2020-0188,2020-11-18,00:34:24,00:51:08,NA,incomplete,21,shape,0,0,left,Green_Plus_Stripes_1.jpg,Blue_Plus_Chess_3.jpg,Red_Triangle_Dots_1.jpg,right,820.1350000454113,false,low,false
UcxFeRiD,39tx062qy41yb4nrucnyjag7oeq3xx,3fijly1b6yhq5rznjijlfqft2axfpj,UcxFeRiD,2020-0188,2020-11-18,00:34:24,00:51:08,NA,incomplete,22,shape,0,1,right,Red_Circle_Grid_4.jpg,Purple_Plus_Dots_4.jpg,Blue_Circle_Chess_2.jpg,right,1659.6549999667332,true,low,false
UcxFeRiD,39tx062qy41yb4nrucnyjag7oeq3xx,3fijly1b6yhq5rznjijlfqft2axfpj,UcxFeRiD,2020-0188,2020-11-18,00:34:24,00:51:08,NA,incomplete,23,shape,0,0,right,Green_Star_Dots_3.jpg,Blue_Plus_Chess_3.jpg,Red_Star_Stripes_2.jpg,left,1737.4950000084937,false,low,false
UcxFeRiD,39tx062qy41yb4nrucnyjag7oeq3xx,3fijly1b6yhq5rznjijlfqft2axfpj,UcxFeRiD,2020-0188,2020-11-18,00:34:24,00:51:08,NA,incomplete,24,shape,0,1,right,Red_Star_Stripes_2.jpg,Green_Plus_Chess_2.jpg,Purple_Star_Grid_1.jpg,left,835.6199999107048,false,low,false
UcxFeRiD,39tx062qy41yb4nrucnyjag7oeq3xx,3fijly1b6yhq5rznjijlfqft2axfpj,UcxFeRiD,2020-0188,2020-11-18,00:34:24,00:51:08,NA,incomplete,25,shape,0,0,right,Green_Triangle_Grid_1.jpg,Red_Circle_Dots_1.jpg,Blue_Triangle_Chess_4.jpg,left,1370.9800000069663,false,low,false
UcxFeRiD,39tx062qy41yb4nrucnyjag7oeq3xx,3fijly1b6yhq5rznjijlfqft2axfpj,UcxFeRiD,2020-0188,2020-11-18,00:34:24,00:51:08,NA,incomplete,26,shape,0,1,left,Red_Star_Chess_4.jpg,Green_Star_Grid_1.jpg,Blue_Plus_Stripes_4.jpg,right,636.9049999630079,false,low,false
UcxFeRiD,39tx062qy41yb4nrucnyjag7oeq3xx,3fijly1b6yhq5rznjijlfqft2axfpj,UcxFeRiD,2020-0188,2020-11-18,00:34:24,00:51:08,NA,incomplete,27,shape,0,1,left,Green_Star_Stripes_2.jpg,Red_Star_Chess_3.jpg,Blue_Circle_Grid_2.jpg,right,947.1950000151992,false,low,false
UcxFeRiD,39tx062qy41yb4nrucnyjag7oeq3xx,3fijly1b6yhq5rznjijlfqft2axfpj,UcxFeRiD,2020-0188,2020-11-18,00:34:24,00:51:08,NA,incomplete,28,shape,0,1,left,Red_Circle_Stripes_3.jpg,Green_Circle_Chess_4.jpg,Blue_Triangle_Grid_3.jpg,left,857.1099999826401,true,low,false
UcxFeRiD,39tx062qy41yb4nrucnyjag7oeq3xx,3fijly1b6yhq5rznjijlfqft2axfpj,UcxFeRiD,2020-0188,2020-11-18,00:34:24,00:51:08,NA,incomplete,29,shape,0,1,right,Blue_Star_Grid_2.jpg,Red_Plus_Stripes_2.jpg,Purple_Star_Chess_3.jpg,right,807.4199999682605,true,low,false
UcxFeRiD,39tx062qy41yb4nrucnyjag7oeq3xx,3fijly1b6yhq5rznjijlfqft2axfpj,UcxFeRiD,2020-0188,2020-11-18,00:34:24,00:51:08,NA,incomplete,30,number,1,0,right,Green_Circle_Grid_2.jpg,Blue_Circle_Dots_1.jpg,Purple_Star_Chess_2.jpg,left,1183.599999989383,false,low,false
UcxFeRiD,39tx062qy41yb4nrucnyjag7oeq3xx,3fijly1b6yhq5rznjijlfqft2axfpj,UcxFeRiD,2020-0188,2020-11-18,00:34:24,00:51:08,NA,incomplete,31,number,1,1,left,Green_Star_Grid_3.jpg,Red_Triangle_Dots_3.jpg,Blue_Star_Stripes_4.jpg,right,1002.405000035651,false,low,false
UcxFeRiD,39tx062qy41yb4nrucnyjag7oeq3xx,3fijly1b6yhq5rznjijlfqft2axfpj,UcxFeRiD,2020-0188,2020-11-18,00:34:24,00:51:08,NA,incomplete,32,number,1,0,right,Red_Star_Dots_4.jpg,Blue_Star_Grid_3.jpg,Green_Circle_Chess_4.jpg,left,1027.6500000618398,false,low,false
UcxFeRiD,39tx062qy41yb4nrucnyjag7oeq3xx,3fijly1b6yhq5rznjijlfqft2axfpj,UcxFeRiD,2020-0188,2020-11-18,00:34:24,00:51:08,NA,incomplete,33,number,1,1,right,Purple_Star_Stripes_1.jpg,Blue_Star_Chess_4.jpg,Green_Plus_Dots_1.jpg,left,692.3299999907613,false,low,false
UcxFeRiD,39tx062qy41yb4nrucnyjag7oeq3xx,3fijly1b6yhq5rznjijlfqft2axfpj,UcxFeRiD,2020-0188,2020-11-18,00:34:24,00:51:08,NA,incomplete,34,number,1,1,left,Blue_Plus_Chess_1.jpg,Purple_Triangle_Stripes_1.jpg,Green_Plus_Grid_4.jpg,right,904.6350000426173,false,low,false
UcxFeRiD,39tx062qy41yb4nrucnyjag7oeq3xx,3fijly1b6yhq5rznjijlfqft2axfpj,UcxFeRiD,2020-0188,2020-11-18,00:34:24,00:51:08,NA,incomplete,35,number,1,1,right,Blue_Triangle_Dots_4.jpg,Purple_Triangle_Chess_2.jpg,Red_Circle_Grid_4.jpg,right,980.7999999029562,true,low,false
UcxFeRiD,39tx062qy41yb4nrucnyjag7oeq3xx,3fijly1b6yhq5rznjijlfqft2axfpj,UcxFeRiD,2020-0188,2020-11-18,00:34:24,00:51:08,NA,incomplete,36,number,1,0,right,Green_Triangle_Stripes_2.jpg,Red_Triangle_Chess_1.jpg,Purple_Star_Dots_2.jpg,right,858.1399999093264,true,low,false
UcxFeRiD,39tx062qy41yb4nrucnyjag7oeq3xx,3fijly1b6yhq5rznjijlfqft2axfpj,UcxFeRiD,2020-0188,2020-11-18,00:34:24,00:51:08,NA,incomplete,37,number,1,1,right,Purple_Triangle_Grid_4.jpg,Blue_Triangle_Stripes_3.jpg,Green_Circle_Dots_4.jpg,right,1056.609999970533,true,low,false
UcxFeRiD,39tx062qy41yb4nrucnyjag7oeq3xx,3fijly1b6yhq5rznjijlfqft2axfpj,UcxFeRiD,2020-0188,2020-11-18,00:34:24,00:51:08,NA,incomplete,38,number,1,1,right,Blue_Star_Dots_1.jpg,Purple_Star_Stripes_2.jpg,Red_Triangle_Chess_1.jpg,right,706.0099999653175,true,low,false
UcxFeRiD,39tx062qy41yb4nrucnyjag7oeq3xx,3fijly1b6yhq5rznjijlfqft2axfpj,UcxFeRiD,2020-0188,2020-11-18,00:34:24,00:51:08,NA,incomplete,39,number,1,1,left,Green_Triangle_Stripes_3.jpg,Purple_Star_Chess_3.jpg,Blue_Triangle_Dots_4.jpg,left,1437.9750000080094,true,low,false
UcxFeRiD,39tx062qy41yb4nrucnyjag7oeq3xx,3fijly1b6yhq5rznjijlfqft2axfpj,UcxFeRiD,2020-0188,2020-11-18,00:34:24,00:51:08,NA,incomplete,40,shape,0,1,left,Green_Star_Chess_4.jpg,Purple_Star_Grid_1.jpg,Red_Circle_Dots_4.jpg,right,824.6100000105798,false,low,false
UcxFeRiD,39tx062qy41yb4nrucnyjag7oeq3xx,3fijly1b6yhq5rznjijlfqft2axfpj,UcxFeRiD,2020-0188,2020-11-18,00:34:24,00:51:08,NA,incomplete,41,shape,0,1,right,Purple_Star_Dots_2.jpg,Red_Plus_Chess_2.jpg,Green_Star_Stripes_4.jpg,left,973.1899999314919,false,low,false
UcxFeRiD,39tx062qy41yb4nrucnyjag7oeq3xx,3fijly1b6yhq5rznjijlfqft2axfpj,UcxFeRiD,2020-0188,2020-11-18,00:34:24,00:51:08,NA,incomplete,42,shape,0,1,left,Purple_Triangle_Stripes_2.jpg,Blue_Triangle_Grid_3.jpg,Green_Circle_Chess_2.jpg,left,1018.694999977015,true,low,false
UcxFeRiD,39tx062qy41yb4nrucnyjag7oeq3xx,3fijly1b6yhq5rznjijlfqft2axfpj,UcxFeRiD,2020-0188,2020-11-18,00:34:24,00:51:08,NA,incomplete,43,shape,0,1,right,Blue_Triangle_Chess_4.jpg,Green_Star_Stripes_4.jpg,Purple_Triangle_Dots_3.jpg,right,1357.0249999174848,true,low,false
UcxFeRiD,39tx062qy41yb4nrucnyjag7oeq3xx,3fijly1b6yhq5rznjijlfqft2axfpj,UcxFeRiD,2020-0188,2020-11-18,00:34:24,00:51:08,NA,incomplete,44,shape,0,1,right,Green_Triangle_Dots_4.jpg,Purple_Plus_Chess_4.jpg,Red_Triangle_Stripes_3.jpg,right,751.6349999932572,true,low,false
UcxFeRiD,39tx062qy41yb4nrucnyjag7oeq3xx,3fijly1b6yhq5rznjijlfqft2axfpj,UcxFeRiD,2020-0188,2020-11-18,00:34:24,00:51:08,NA,incomplete,45,shape,0,1,left,Red_Star_Grid_2.jpg,Blue_Star_Chess_3.jpg,Purple_Triangle_Stripes_2.jpg,left,906.1550000915304,true,low,false
UcxFeRiD,39tx062qy41yb4nrucnyjag7oeq3xx,3fijly1b6yhq5rznjijlfqft2axfpj,UcxFeRiD,2020-0188,2020-11-18,00:34:24,00:51:08,NA,incomplete,46,shape,0,1,left,Green_Triangle_Stripes_4.jpg,Purple_Triangle_Grid_1.jpg,Blue_Plus_Chess_4.jpg,left,1191.4999999571592,true,low,false
UcxFeRiD,39tx062qy41yb4nrucnyjag7oeq3xx,3fijly1b6yhq5rznjijlfqft2axfpj,UcxFeRiD,2020-0188,2020-11-18,00:34:24,00:51:08,NA,incomplete,47,shape,0,1,right,Green_Plus_Stripes_3.jpg,Red_Triangle_Chess_3.jpg,Blue_Plus_Grid_2.jpg,right,1004.4200000120327,true,low,false
UcxFeRiD,39tx062qy41yb4nrucnyjag7oeq3xx,3fijly1b6yhq5rznjijlfqft2axfpj,UcxFeRiD,2020-0188,2020-11-18,00:34:24,00:51:08,NA,incomplete,48,shape,0,0,left,Green_Plus_Grid_4.jpg,Red_Plus_Dots_3.jpg,Blue_Circle_Chess_4.jpg,left,784.4700000714511,true,low,false
UcxFeRiD,39tx062qy41yb4nrucnyjag7oeq3xx,3fijly1b6yhq5rznjijlfqft2axfpj,UcxFeRiD,2020-0188,2020-11-18,00:34:24,00:51:08,NA,incomplete,49,shape,0,1,right,Blue_Circle_Stripes_1.jpg,Green_Star_Grid_1.jpg,Purple_Circle_Dots_2.jpg,right,862.4950000084937,true,low,false
UcxFeRiD,39tx062qy41yb4nrucnyjag7oeq3xx,3fijly1b6yhq5rznjijlfqft2axfpj,UcxFeRiD,2020-0188,2020-11-18,00:34:24,00:51:08,NA,incomplete,50,number,1,1,right,Green_Star_Grid_4.jpg,Blue_Star_Chess_2.jpg,Red_Triangle_Dots_4.jpg,left,1117.3699999926612,false,low,false
UcxFeRiD,39tx062qy41yb4nrucnyjag7oeq3xx,3fijly1b6yhq5rznjijlfqft2axfpj,UcxFeRiD,2020-0188,2020-11-18,00:34:24,00:51:08,NA,incomplete,51,number,1,1,right,Blue_Star_Stripes_2.jpg,Purple_Star_Grid_4.jpg,Red_Plus_Dots_2.jpg,left,1487.650000024587,false,low,false
UcxFeRiD,39tx062qy41yb4nrucnyjag7oeq3xx,3fijly1b6yhq5rznjijlfqft2axfpj,UcxFeRiD,2020-0188,2020-11-18,00:34:24,00:51:08,NA,incomplete,52,number,1,1,left,Red_Circle_Stripes_4.jpg,Purple_Star_Dots_4.jpg,Blue_Circle_Chess_2.jpg,left,1232.039999915287,true,low,false
UcxFeRiD,39tx062qy41yb4nrucnyjag7oeq3xx,3fijly1b6yhq5rznjijlfqft2axfpj,UcxFeRiD,2020-0188,2020-11-18,00:34:24,00:51:08,NA,incomplete,53,number,1,0,left,Purple_Circle_Dots_1.jpg,Red_Plus_Chess_1.jpg,Blue_Circle_Stripes_4.jpg,left,804.1700000176206,true,low,false
UcxFeRiD,39tx062qy41yb4nrucnyjag7oeq3xx,3fijly1b6yhq5rznjijlfqft2axfpj,UcxFeRiD,2020-0188,2020-11-18,00:34:24,00:51:08,NA,incomplete,54,number,1,1,right,Green_Triangle_Chess_3.jpg,Blue_Triangle_Stripes_2.jpg,Red_Plus_Dots_3.jpg,right,1036.4749999716878,true,low,false
UcxFeRiD,39tx062qy41yb4nrucnyjag7oeq3xx,3fijly1b6yhq5rznjijlfqft2axfpj,UcxFeRiD,2020-0188,2020-11-18,00:34:24,00:51:08,NA,incomplete,55,number,1,1,left,Green_Plus_Chess_1.jpg,Red_Circle_Stripes_1.jpg,Purple_Plus_Dots_3.jpg,left,690.8950000070035,true,low,false
UcxFeRiD,39tx062qy41yb4nrucnyjag7oeq3xx,3fijly1b6yhq5rznjijlfqft2axfpj,UcxFeRiD,2020-0188,2020-11-18,00:34:24,00:51:08,NA,incomplete,56,number,1,0,right,Purple_Star_Grid_2.jpg,Red_Star_Dots_3.jpg,Green_Triangle_Stripes_2.jpg,right,841.660000034608,true,low,false
UcxFeRiD,39tx062qy41yb4nrucnyjag7oeq3xx,3fijly1b6yhq5rznjijlfqft2axfpj,UcxFeRiD,2020-0188,2020-11-18,00:34:24,00:51:08,NA,incomplete,57,number,1,1,left,Red_Plus_Grid_1.jpg,Blue_Circle_Chess_1.jpg,Purple_Plus_Dots_2.jpg,left,1045.4949999693781,true,low,false
UcxFeRiD,39tx062qy41yb4nrucnyjag7oeq3xx,3fijly1b6yhq5rznjijlfqft2axfpj,UcxFeRiD,2020-0188,2020-11-18,00:34:24,00:51:08,NA,incomplete,58,number,1,1,left,Purple_Plus_Stripes_2.jpg,Blue_Triangle_Grid_2.jpg,Red_Plus_Dots_3.jpg,left,832.3749999981374,true,low,false
UcxFeRiD,39tx062qy41yb4nrucnyjag7oeq3xx,3fijly1b6yhq5rznjijlfqft2axfpj,UcxFeRiD,2020-0188,2020-11-18,00:34:24,00:51:08,NA,incomplete,59,number,1,1,right,Blue_Plus_Chess_4.jpg,Green_Plus_Dots_1.jpg,Purple_Triangle_Stripes_4.jpg,right,752.6649999199435,true,low,false
UcxFeRiD,39tx062qy41yb4nrucnyjag7oeq3xx,3fijly1b6yhq5rznjijlfqft2axfpj,UcxFeRiD,2020-0188,2020-11-18,00:34:24,00:51:08,NA,incomplete,60,shape,0,1,right,Green_Plus_Grid_3.jpg,Purple_Star_Dots_3.jpg,Blue_Plus_Chess_1.jpg,left,740.8650000579655,false,low,false
UcxFeRiD,39tx062qy41yb4nrucnyjag7oeq3xx,3fijly1b6yhq5rznjijlfqft2axfpj,UcxFeRiD,2020-0188,2020-11-18,00:34:24,00:51:08,NA,incomplete,61,shape,0,0,right,Blue_Plus_Chess_3.jpg,Purple_Star_Grid_3.jpg,Red_Plus_Stripes_1.jpg,left,904.1100000031292,false,low,false
UcxFeRiD,39tx062qy41yb4nrucnyjag7oeq3xx,3fijly1b6yhq5rznjijlfqft2axfpj,UcxFeRiD,2020-0188,2020-11-18,00:34:24,00:51:08,NA,incomplete,62,shape,0,1,left,Blue_Circle_Grid_4.jpg,Green_Circle_Dots_3.jpg,Red_Plus_Chess_4.jpg,right,796.0949999978766,false,low,false
UcxFeRiD,39tx062qy41yb4nrucnyjag7oeq3xx,3fijly1b6yhq5rznjijlfqft2axfpj,UcxFeRiD,2020-0188,2020-11-18,00:34:24,00:51:08,NA,incomplete,63,shape,0,1,right,Purple_Triangle_Dots_1.jpg,Green_Star_Chess_1.jpg,Blue_Triangle_Grid_3.jpg,left,636.2750000553206,false,low,false
UcxFeRiD,39tx062qy41yb4nrucnyjag7oeq3xx,3fijly1b6yhq5rznjijlfqft2axfpj,UcxFeRiD,2020-0188,2020-11-18,00:34:24,00:51:08,NA,incomplete,64,shape,0,1,right,Green_Triangle_Chess_2.jpg,Red_Star_Stripes_2.jpg,Purple_Triangle_Dots_3.jpg,right,812.2199999634176,true,low,false
UcxFeRiD,39tx062qy41yb4nrucnyjag7oeq3xx,3fijly1b6yhq5rznjijlfqft2axfpj,UcxFeRiD,2020-0188,2020-11-18,00:34:24,00:51:08,NA,incomplete,65,shape,0,1,right,Purple_Circle_Stripes_3.jpg,Green_Triangle_Chess_3.jpg,Blue_Circle_Dots_1.jpg,right,1195.905000087805,true,low,false
UcxFeRiD,39tx062qy41yb4nrucnyjag7oeq3xx,3fijly1b6yhq5rznjijlfqft2axfpj,UcxFeRiD,2020-0188,2020-11-18,00:34:24,00:51:08,NA,incomplete,66,shape,0,1,right,Red_Star_Chess_4.jpg,Green_Circle_Grid_4.jpg,Purple_Star_Stripes_2.jpg,right,988.175000064075,true,low,false
UcxFeRiD,39tx062qy41yb4nrucnyjag7oeq3xx,3fijly1b6yhq5rznjijlfqft2axfpj,UcxFeRiD,2020-0188,2020-11-18,00:34:24,00:51:08,NA,incomplete,67,shape,0,1,right,Red_Triangle_Chess_3.jpg,Blue_Circle_Dots_3.jpg,Purple_Triangle_Stripes_4.jpg,right,788.5650000534952,true,low,false
UcxFeRiD,39tx062qy41yb4nrucnyjag7oeq3xx,3fijly1b6yhq5rznjijlfqft2axfpj,UcxFeRiD,2020-0188,2020-11-18,00:34:24,00:51:08,NA,incomplete,68,shape,0,1,right,Blue_Triangle_Stripes_2.jpg,Green_Star_Dots_2.jpg,Red_Triangle_Chess_4.jpg,right,881.2700000125915,true,low,false
UcxFeRiD,39tx062qy41yb4nrucnyjag7oeq3xx,3fijly1b6yhq5rznjijlfqft2axfpj,UcxFeRiD,2020-0188,2020-11-18,00:34:24,00:51:08,NA,incomplete,69,shape,0,1,left,Green_Star_Chess_4.jpg,Blue_Star_Dots_1.jpg,Red_Plus_Grid_4.jpg,left,868.6350000789389,true,low,false
UcxFeRiD,39tx062qy41yb4nrucnyjag7oeq3xx,3fijly1b6yhq5rznjijlfqft2axfpj,UcxFeRiD,2020-0188,2020-11-18,00:34:24,00:51:08,NA,incomplete,70,number,1,0,right,Purple_Plus_Grid_2.jpg,Red_Plus_Dots_4.jpg,Blue_Circle_Stripes_2.jpg,left,679.9700000556186,false,low,false
UcxFeRiD,39tx062qy41yb4nrucnyjag7oeq3xx,3fijly1b6yhq5rznjijlfqft2axfpj,UcxFeRiD,2020-0188,2020-11-18,00:34:24,00:51:08,NA,incomplete,71,number,1,1,right,Red_Plus_Grid_3.jpg,Purple_Plus_Dots_2.jpg,Blue_Circle_Stripes_3.jpg,left,777.8799999505281,false,low,false
UcxFeRiD,39tx062qy41yb4nrucnyjag7oeq3xx,3fijly1b6yhq5rznjijlfqft2axfpj,UcxFeRiD,2020-0188,2020-11-18,00:34:24,00:51:08,NA,incomplete,72,number,1,1,right,Red_Circle_Grid_4.jpg,Purple_Circle_Chess_2.jpg,Blue_Plus_Dots_4.jpg,left,998.3599999686703,false,low,false
UcxFeRiD,39tx062qy41yb4nrucnyjag7oeq3xx,3fijly1b6yhq5rznjijlfqft2axfpj,UcxFeRiD,2020-0188,2020-11-18,00:34:24,00:51:08,NA,incomplete,73,number,1,1,left,Red_Circle_Dots_1.jpg,Purple_Triangle_Grid_1.jpg,Green_Circle_Chess_2.jpg,left,652.4500000523403,true,low,false
UcxFeRiD,39tx062qy41yb4nrucnyjag7oeq3xx,3fijly1b6yhq5rznjijlfqft2axfpj,UcxFeRiD,2020-0188,2020-11-18,00:34:24,00:51:08,NA,incomplete,74,number,1,1,right,Green_Circle_Stripes_1.jpg,Purple_Circle_Grid_3.jpg,Red_Plus_Chess_1.jpg,right,802.544999984093,true,low,false
UcxFeRiD,39tx062qy41yb4nrucnyjag7oeq3xx,3fijly1b6yhq5rznjijlfqft2axfpj,UcxFeRiD,2020-0188,2020-11-18,00:34:24,00:51:08,NA,incomplete,75,number,1,0,right,Purple_Circle_Chess_1.jpg,Green_Circle_Dots_4.jpg,Red_Triangle_Grid_1.jpg,right,765.6649999553338,true,low,false
UcxFeRiD,39tx062qy41yb4nrucnyjag7oeq3xx,3fijly1b6yhq5rznjijlfqft2axfpj,UcxFeRiD,2020-0188,2020-11-18,00:34:24,00:51:08,NA,incomplete,76,number,1,1,right,Blue_Triangle_Grid_1.jpg,Red_Triangle_Chess_3.jpg,Green_Circle_Dots_1.jpg,right,1247.0050000119954,true,low,false
UcxFeRiD,39tx062qy41yb4nrucnyjag7oeq3xx,3fijly1b6yhq5rznjijlfqft2axfpj,UcxFeRiD,2020-0188,2020-11-18,00:34:24,00:51:08,NA,incomplete,77,number,1,1,right,Blue_Circle_Stripes_4.jpg,Red_Circle_Chess_1.jpg,Green_Plus_Dots_4.jpg,right,890.5050000175834,true,low,false
UcxFeRiD,39tx062qy41yb4nrucnyjag7oeq3xx,3fijly1b6yhq5rznjijlfqft2axfpj,UcxFeRiD,2020-0188,2020-11-18,00:34:24,00:51:08,NA,incomplete,78,number,1,1,left,Red_Circle_Dots_3.jpg,Blue_Plus_Stripes_3.jpg,Purple_Circle_Chess_2.jpg,left,783.9300000341609,true,low,false
UcxFeRiD,39tx062qy41yb4nrucnyjag7oeq3xx,3fijly1b6yhq5rznjijlfqft2axfpj,UcxFeRiD,2020-0188,2020-11-18,00:34:24,00:51:08,NA,incomplete,79,number,1,1,left,Green_Plus_Dots_2.jpg,Red_Circle_Stripes_2.jpg,Blue_Plus_Chess_3.jpg,left,956.6150000318885,true,low,false
UcxFeRiD,39tx062qy41yb4nrucnyjag7oeq3xx,3fijly1b6yhq5rznjijlfqft2axfpj,UcxFeRiD,2020-0188,2020-11-18,00:34:24,00:51:08,NA,incomplete,80,shape,0,1,right,Purple_Circle_Chess_4.jpg,Red_Plus_Stripes_4.jpg,Blue_Circle_Dots_2.jpg,left,926.5799999702722,false,low,false
UcxFeRiD,39tx062qy41yb4nrucnyjag7oeq3xx,3fijly1b6yhq5rznjijlfqft2axfpj,UcxFeRiD,2020-0188,2020-11-18,00:34:24,00:51:08,NA,incomplete,81,shape,0,1,left,Green_Plus_Dots_1.jpg,Purple_Plus_Stripes_3.jpg,Red_Triangle_Chess_1.jpg,right,718.9350000116974,false,low,false
UcxFeRiD,39tx062qy41yb4nrucnyjag7oeq3xx,3fijly1b6yhq5rznjijlfqft2axfpj,UcxFeRiD,2020-0188,2020-11-18,00:34:24,00:51:08,NA,incomplete,82,shape,0,0,left,Red_Circle_Dots_1.jpg,Blue_Circle_Stripes_2.jpg,Purple_Triangle_Grid_1.jpg,left,621.2649999652058,true,low,false
UcxFeRiD,39tx062qy41yb4nrucnyjag7oeq3xx,3fijly1b6yhq5rznjijlfqft2axfpj,UcxFeRiD,2020-0188,2020-11-18,00:34:24,00:51:08,NA,incomplete,83,shape,0,0,right,Blue_Plus_Chess_2.jpg,Green_Triangle_Grid_2.jpg,Purple_Plus_Stripes_1.jpg,right,1152.5699999183416,true,low,false
UcxFeRiD,39tx062qy41yb4nrucnyjag7oeq3xx,3fijly1b6yhq5rznjijlfqft2axfpj,UcxFeRiD,2020-0188,2020-11-18,00:34:24,00:51:08,NA,incomplete,84,shape,0,1,left,Purple_Plus_Grid_1.jpg,Red_Plus_Stripes_4.jpg,Blue_Star_Dots_1.jpg,right,1546.5199999744073,false,low,false
UcxFeRiD,39tx062qy41yb4nrucnyjag7oeq3xx,3fijly1b6yhq5rznjijlfqft2axfpj,UcxFeRiD,2020-0188,2020-11-18,00:34:24,00:51:08,NA,incomplete,85,shape,0,1,right,Red_Plus_Chess_1.jpg,Purple_Star_Stripes_1.jpg,Green_Plus_Grid_2.jpg,right,1277.1600000560284,true,low,false
UcxFeRiD,39tx062qy41yb4nrucnyjag7oeq3xx,3fijly1b6yhq5rznjijlfqft2axfpj,UcxFeRiD,2020-0188,2020-11-18,00:34:24,00:51:08,NA,incomplete,86,shape,0,1,left,Red_Plus_Stripes_2.jpg,Purple_Plus_Grid_3.jpg,Blue_Circle_Chess_2.jpg,left,1137.6450000097975,true,low,false
UcxFeRiD,39tx062qy41yb4nrucnyjag7oeq3xx,3fijly1b6yhq5rznjijlfqft2axfpj,UcxFeRiD,2020-0188,2020-11-18,00:34:24,00:51:08,NA,incomplete,87,shape,0,1,right,Purple_Star_Dots_2.jpg,Red_Circle_Stripes_2.jpg,Blue_Star_Chess_4.jpg,right,1181.1549999983981,true,low,false
UcxFeRiD,39tx062qy41yb4nrucnyjag7oeq3xx,3fijly1b6yhq5rznjijlfqft2axfpj,UcxFeRiD,2020-0188,2020-11-18,00:34:24,00:51:08,NA,incomplete,88,shape,0,1,left,Purple_Plus_Chess_1.jpg,Blue_Plus_Grid_2.jpg,Green_Circle_Dots_1.jpg,left,854.8250000458211,true,low,false
UcxFeRiD,39tx062qy41yb4nrucnyjag7oeq3xx,3fijly1b6yhq5rznjijlfqft2axfpj,UcxFeRiD,2020-0188,2020-11-18,00:34:24,00:51:08,NA,incomplete,89,shape,0,0,right,Red_Plus_Grid_1.jpg,Blue_Circle_Dots_1.jpg,Purple_Plus_Stripes_4.jpg,right,612.7100000157952,true,low,false
UcxFeRiD,39tx062qy41yb4nrucnyjag7oeq3xx,3fijly1b6yhq5rznjijlfqft2axfpj,UcxFeRiD,2020-0188,2020-11-18,00:34:24,00:51:08,NA,incomplete,90,number,1,1,left,Blue_Plus_Dots_1.jpg,Purple_Star_Grid_1.jpg,Green_Plus_Stripes_3.jpg,right,1080.3300000261515,false,low,false
UcxFeRiD,39tx062qy41yb4nrucnyjag7oeq3xx,3fijly1b6yhq5rznjijlfqft2axfpj,UcxFeRiD,2020-0188,2020-11-18,00:34:24,00:51:08,NA,incomplete,91,number,1,1,right,Red_Plus_Chess_3.jpg,Blue_Plus_Stripes_4.jpg,Green_Circle_Grid_3.jpg,right,1330.5249999975786,true,low,false
UcxFeRiD,39tx062qy41yb4nrucnyjag7oeq3xx,3fijly1b6yhq5rznjijlfqft2axfpj,UcxFeRiD,2020-0188,2020-11-18,00:34:24,00:51:08,NA,incomplete,92,number,1,1,right,Purple_Circle_Chess_1.jpg,Blue_Circle_Grid_3.jpg,Red_Plus_Dots_1.jpg,right,612.3049999587238,true,low,false
UcxFeRiD,39tx062qy41yb4nrucnyjag7oeq3xx,3fijly1b6yhq5rznjijlfqft2axfpj,UcxFeRiD,2020-0188,2020-11-18,00:34:24,00:51:08,NA,incomplete,93,number,1,1,right,Blue_Triangle_Chess_1.jpg,Red_Triangle_Dots_3.jpg,Green_Star_Grid_1.jpg,right,502.29999993462116,true,low,false
UcxFeRiD,39tx062qy41yb4nrucnyjag7oeq3xx,3fijly1b6yhq5rznjijlfqft2axfpj,UcxFeRiD,2020-0188,2020-11-18,00:34:24,00:51:08,NA,incomplete,94,number,1,1,left,Blue_Triangle_Stripes_4.jpg,Purple_Star_Dots_4.jpg,Red_Triangle_Chess_1.jpg,right,757.4999999487773,false,low,false
UcxFeRiD,39tx062qy41yb4nrucnyjag7oeq3xx,3fijly1b6yhq5rznjijlfqft2axfpj,UcxFeRiD,2020-0188,2020-11-18,00:34:24,00:51:08,NA,incomplete,95,number,1,1,left,Blue_Plus_Chess_2.jpg,Green_Circle_Dots_2.jpg,Purple_Plus_Grid_1.jpg,left,975.014999974519,true,low,false
UcxFeRiD,39tx062qy41yb4nrucnyjag7oeq3xx,3fijly1b6yhq5rznjijlfqft2axfpj,UcxFeRiD,2020-0188,2020-11-18,00:34:24,00:51:08,NA,incomplete,96,number,1,1,left,Green_Triangle_Chess_3.jpg,Blue_Star_Grid_3.jpg,Purple_Triangle_Dots_4.jpg,left,793.0499999783933,true,low,false
UcxFeRiD,39tx062qy41yb4nrucnyjag7oeq3xx,3fijly1b6yhq5rznjijlfqft2axfpj,UcxFeRiD,2020-0188,2020-11-18,00:34:24,00:51:08,NA,incomplete,97,number,1,0,left,Blue_Triangle_Chess_2.jpg,Red_Star_Stripes_2.jpg,Purple_Triangle_Grid_3.jpg,left,724.3000000016764,true,low,false
UcxFeRiD,39tx062qy41yb4nrucnyjag7oeq3xx,3fijly1b6yhq5rznjijlfqft2axfpj,UcxFeRiD,2020-0188,2020-11-18,00:34:24,00:51:08,NA,incomplete,98,number,1,1,right,Red_Circle_Stripes_2.jpg,Green_Circle_Dots_4.jpg,Blue_Star_Grid_2.jpg,right,665.7650000415742,true,low,false
UcxFeRiD,39tx062qy41yb4nrucnyjag7oeq3xx,3fijly1b6yhq5rznjijlfqft2axfpj,UcxFeRiD,2020-0188,2020-11-18,00:34:24,00:51:08,NA,incomplete,99,number,1,1,left,Red_Star_Dots_4.jpg,Green_Circle_Chess_4.jpg,Purple_Star_Stripes_3.jpg,left,926.3499999651685,true,low,false
UcxFeRiD,39tx062qy41yb4nrucnyjag7oeq3xx,3fijly1b6yhq5rznjijlfqft2axfpj,UcxFeRiD,2020-0188,2020-11-18,00:34:24,00:51:08,NA,incomplete,100,shape,0,1,left,Red_Circle_Grid_3.jpg,Blue_Circle_Dots_1.jpg,Purple_Plus_Stripes_3.jpg,right,685.3300000075251,false,low,false
UcxFeRiD,39tx062qy41yb4nrucnyjag7oeq3xx,3fijly1b6yhq5rznjijlfqft2axfpj,UcxFeRiD,2020-0188,2020-11-18,00:34:24,00:51:08,NA,incomplete,101,shape,0,1,right,Blue_Triangle_Grid_4.jpg,Red_Plus_Stripes_4.jpg,Green_Triangle_Dots_3.jpg,right,1078.250000020489,true,low,false
UcxFeRiD,39tx062qy41yb4nrucnyjag7oeq3xx,3fijly1b6yhq5rznjijlfqft2axfpj,UcxFeRiD,2020-0188,2020-11-18,00:34:24,00:51:08,NA,incomplete,102,shape,0,1,right,Red_Star_Chess_4.jpg,Purple_Circle_Stripes_4.jpg,Green_Star_Dots_1.jpg,right,923.1950000394136,true,low,false
UcxFeRiD,39tx062qy41yb4nrucnyjag7oeq3xx,3fijly1b6yhq5rznjijlfqft2axfpj,UcxFeRiD,2020-0188,2020-11-18,00:34:24,00:51:08,NA,incomplete,103,shape,0,0,left,Blue_Circle_Chess_2.jpg,Purple_Circle_Dots_4.jpg,Red_Star_Grid_2.jpg,right,788.5249999817461,false,low,false
UcxFeRiD,39tx062qy41yb4nrucnyjag7oeq3xx,3fijly1b6yhq5rznjijlfqft2axfpj,UcxFeRiD,2020-0188,2020-11-18,00:34:24,00:51:08,NA,incomplete,104,shape,0,1,left,Green_Plus_Grid_4.jpg,Blue_Plus_Stripes_2.jpg,Red_Star_Chess_4.jpg,left,932.204999960959,true,low,false
UcxFeRiD,39tx062qy41yb4nrucnyjag7oeq3xx,3fijly1b6yhq5rznjijlfqft2axfpj,UcxFeRiD,2020-0188,2020-11-18,00:34:24,00:51:08,NA,incomplete,105,shape,0,1,left,Red_Plus_Stripes_1.jpg,Green_Plus_Chess_4.jpg,Blue_Circle_Grid_1.jpg,right,635.2999999653548,false,low,false
UcxFeRiD,39tx062qy41yb4nrucnyjag7oeq3xx,3fijly1b6yhq5rznjijlfqft2axfpj,UcxFeRiD,2020-0188,2020-11-18,00:34:24,00:51:08,NA,incomplete,106,shape,0,1,left,Blue_Circle_Stripes_2.jpg,Red_Circle_Dots_4.jpg,Green_Plus_Chess_2.jpg,right,1590.0400000391528,false,low,false
UcxFeRiD,39tx062qy41yb4nrucnyjag7oeq3xx,3fijly1b6yhq5rznjijlfqft2axfpj,UcxFeRiD,2020-0188,2020-11-18,00:34:24,00:51:08,NA,incomplete,107,shape,0,0,left,Red_Triangle_Dots_2.jpg,Green_Triangle_Grid_1.jpg,Blue_Star_Stripes_2.jpg,left,1211.2600000109524,true,low,false
UcxFeRiD,39tx062qy41yb4nrucnyjag7oeq3xx,3fijly1b6yhq5rznjijlfqft2axfpj,UcxFeRiD,2020-0188,2020-11-18,00:34:24,00:51:08,NA,incomplete,108,shape,0,0,right,Blue_Star_Chess_2.jpg,Green_Plus_Stripes_2.jpg,Red_Star_Dots_4.jpg,right,867.1600000234321,true,low,false
UcxFeRiD,39tx062qy41yb4nrucnyjag7oeq3xx,3fijly1b6yhq5rznjijlfqft2axfpj,UcxFeRiD,2020-0188,2020-11-18,00:34:24,00:51:08,NA,incomplete,109,shape,0,1,left,Purple_Star_Dots_1.jpg,Blue_Star_Grid_4.jpg,Green_Circle_Chess_1.jpg,right,640.5749999685213,false,low,false
UcxFeRiD,39tx062qy41yb4nrucnyjag7oeq3xx,3fijly1b6yhq5rznjijlfqft2axfpj,UcxFeRiD,2020-0188,2020-11-18,00:34:24,00:51:08,NA,incomplete,110,number,1,0,left,Green_Triangle_Chess_3.jpg,Purple_Star_Dots_3.jpg,Red_Triangle_Grid_4.jpg,left,1955.294999992475,true,low,false
UcxFeRiD,39tx062qy41yb4nrucnyjag7oeq3xx,3fijly1b6yhq5rznjijlfqft2axfpj,UcxFeRiD,2020-0188,2020-11-18,00:34:24,00:51:08,NA,incomplete,111,number,1,1,left,Blue_Star_Stripes_2.jpg,Purple_Triangle_Dots_2.jpg,Red_Star_Grid_3.jpg,left,1114.0550000127405,true,low,false
UcxFeRiD,39tx062qy41yb4nrucnyjag7oeq3xx,3fijly1b6yhq5rznjijlfqft2axfpj,UcxFeRiD,2020-0188,2020-11-18,00:34:24,00:51:08,NA,incomplete,112,number,1,1,left,Green_Circle_Dots_2.jpg,Purple_Triangle_Stripes_2.jpg,Red_Circle_Chess_1.jpg,left,1312.4100000131875,true,low,false
UcxFeRiD,39tx062qy41yb4nrucnyjag7oeq3xx,3fijly1b6yhq5rznjijlfqft2axfpj,UcxFeRiD,2020-0188,2020-11-18,00:34:24,00:51:08,NA,incomplete,113,number,1,1,right,Green_Triangle_Grid_2.jpg,Purple_Triangle_Chess_1.jpg,Blue_Plus_Stripes_2.jpg,right,725.3000000491738,true,low,false
UcxFeRiD,39tx062qy41yb4nrucnyjag7oeq3xx,3fijly1b6yhq5rznjijlfqft2axfpj,UcxFeRiD,2020-0188,2020-11-18,00:34:24,00:51:08,NA,incomplete,114,number,1,0,left,Red_Star_Grid_2.jpg,Purple_Triangle_Stripes_2.jpg,Green_Star_Dots_3.jpg,left,796.9349999912083,true,low,false
UcxFeRiD,39tx062qy41yb4nrucnyjag7oeq3xx,3fijly1b6yhq5rznjijlfqft2axfpj,UcxFeRiD,2020-0188,2020-11-18,00:34:24,00:51:08,NA,incomplete,115,number,1,1,left,Blue_Star_Dots_2.jpg,Green_Triangle_Chess_2.jpg,Purple_Star_Stripes_4.jpg,left,921.3349999627098,true,low,false
UcxFeRiD,39tx062qy41yb4nrucnyjag7oeq3xx,3fijly1b6yhq5rznjijlfqft2axfpj,UcxFeRiD,2020-0188,2020-11-18,00:34:24,00:51:08,NA,incomplete,116,number,1,1,right,Blue_Star_Chess_1.jpg,Red_Star_Grid_2.jpg,Purple_Plus_Dots_1.jpg,right,1296.5299999341369,true,low,false
UcxFeRiD,39tx062qy41yb4nrucnyjag7oeq3xx,3fijly1b6yhq5rznjijlfqft2axfpj,UcxFeRiD,2020-0188,2020-11-18,00:34:24,00:51:08,NA,incomplete,117,number,1,1,left,Red_Triangle_Chess_4.jpg,Blue_Star_Dots_4.jpg,Purple_Triangle_Grid_2.jpg,left,1005.754999932833,true,low,false
UcxFeRiD,39tx062qy41yb4nrucnyjag7oeq3xx,3fijly1b6yhq5rznjijlfqft2axfpj,UcxFeRiD,2020-0188,2020-11-18,00:34:24,00:51:08,NA,incomplete,118,number,1,1,left,Purple_Plus_Grid_3.jpg,Blue_Star_Chess_3.jpg,Green_Plus_Dots_1.jpg,left,660.8549999073148,true,low,false
UcxFeRiD,39tx062qy41yb4nrucnyjag7oeq3xx,3fijly1b6yhq5rznjijlfqft2axfpj,UcxFeRiD,2020-0188,2020-11-18,00:34:24,00:51:08,NA,incomplete,119,number,1,1,right,Blue_Star_Dots_1.jpg,Green_Star_Grid_3.jpg,Red_Circle_Chess_1.jpg,right,663.3750000037253,true,low,false
UcxFeRiD,39tx062qy41yb4nrucnyjag7oeq3xx,3fijly1b6yhq5rznjijlfqft2axfpj,UcxFeRiD,2020-0188,2020-11-18,00:34:24,00:51:08,NA,incomplete,120,race,2,1,left,C_M_09.jpg,C_F_03.jpg,A_M_08.jpg,NA,NA,NA,low,false
UcxFeRiD,39tx062qy41yb4nrucnyjag7oeq3xx,3fijly1b6yhq5rznjijlfqft2axfpj,UcxFeRiD,2020-0188,2020-11-18,00:34:24,00:51:08,NA,incomplete,121,race,2,1,left,A_M_04.jpg,A_F_15.jpg,C_M_14.jpg,right,1716.0750000039116,false,low,false
UcxFeRiD,39tx062qy41yb4nrucnyjag7oeq3xx,3fijly1b6yhq5rznjijlfqft2axfpj,UcxFeRiD,2020-0188,2020-11-18,00:34:24,00:51:08,NA,incomplete,122,race,2,0,left,C_M_13.jpg,C_F_15.jpg,A_M_16.jpg,right,1937.5349999172613,false,low,false
UcxFeRiD,39tx062qy41yb4nrucnyjag7oeq3xx,3fijly1b6yhq5rznjijlfqft2axfpj,UcxFeRiD,2020-0188,2020-11-18,00:34:24,00:51:08,NA,incomplete,123,race,2,1,right,C_M_03.jpg,A_M_13.jpg,C_F_07.jpg,left,978.9600000949576,false,low,false
UcxFeRiD,39tx062qy41yb4nrucnyjag7oeq3xx,3fijly1b6yhq5rznjijlfqft2axfpj,UcxFeRiD,2020-0188,2020-11-18,00:34:24,00:51:08,NA,incomplete,124,race,2,1,left,C_F_07.jpg,C_M_02.jpg,A_F_09.jpg,none,0,false,low,false
UcxFeRiD,39tx062qy41yb4nrucnyjag7oeq3xx,3fijly1b6yhq5rznjijlfqft2axfpj,UcxFeRiD,2020-0188,2020-11-18,00:34:24,00:51:08,NA,incomplete,125,race,2,1,left,A_M_03.jpg,A_F_13.jpg,C_M_01.jpg,right,1120.7200000062585,false,low,false
UcxFeRiD,39tx062qy41yb4nrucnyjag7oeq3xx,3fijly1b6yhq5rznjijlfqft2axfpj,UcxFeRiD,2020-0188,2020-11-18,00:34:24,00:51:08,NA,incomplete,126,race,2,1,right,C_F_09.jpg,A_F_11.jpg,C_M_10.jpg,left,1411.6500000236556,false,low,false
UcxFeRiD,39tx062qy41yb4nrucnyjag7oeq3xx,3fijly1b6yhq5rznjijlfqft2axfpj,UcxFeRiD,2020-0188,2020-11-18,00:34:24,00:51:08,NA,incomplete,127,race,2,0,left,C_F_04.jpg,C_M_06.jpg,A_F_11.jpg,left,1076.5449999598786,true,low,false
UcxFeRiD,39tx062qy41yb4nrucnyjag7oeq3xx,3fijly1b6yhq5rznjijlfqft2axfpj,UcxFeRiD,2020-0188,2020-11-18,00:34:24,00:51:08,NA,incomplete,128,race,2,1,left,C_F_03.jpg,C_M_09.jpg,A_F_11.jpg,left,1257.619999931194,true,low,false
UcxFeRiD,39tx062qy41yb4nrucnyjag7oeq3xx,3fijly1b6yhq5rznjijlfqft2axfpj,UcxFeRiD,2020-0188,2020-11-18,00:34:24,00:51:08,NA,incomplete,129,race,2,1,right,C_M_11.jpg,A_M_16.jpg,C_F_07.jpg,right,1463.2950000232086,true,low,false
UcxFeRiD,39tx062qy41yb4nrucnyjag7oeq3xx,3fijly1b6yhq5rznjijlfqft2axfpj,UcxFeRiD,2020-0188,2020-11-18,00:34:24,00:51:08,NA,incomplete,130,race,2,1,left,A_M_02.jpg,A_F_09.jpg,C_M_08.jpg,left,1278.52999989409,true,low,false
UcxFeRiD,39tx062qy41yb4nrucnyjag7oeq3xx,3fijly1b6yhq5rznjijlfqft2axfpj,UcxFeRiD,2020-0188,2020-11-18,00:34:24,00:51:08,NA,incomplete,131,race,2,0,right,A_M_11.jpg,C_M_03.jpg,A_F_09.jpg,right,1010.855000000447,true,low,false
UcxFeRiD,39tx062qy41yb4nrucnyjag7oeq3xx,3fijly1b6yhq5rznjijlfqft2axfpj,UcxFeRiD,2020-0188,2020-11-18,00:34:24,00:51:08,NA,incomplete,132,race,2,1,left,A_M_06.jpg,A_F_11.jpg,C_M_13.jpg,right,1243.1850000284612,false,low,false
UcxFeRiD,39tx062qy41yb4nrucnyjag7oeq3xx,3fijly1b6yhq5rznjijlfqft2axfpj,UcxFeRiD,2020-0188,2020-11-18,00:34:24,00:51:08,NA,incomplete,133,race,2,1,left,C_F_13.jpg,C_M_03.jpg,A_F_10.jpg,left,1386.034999974072,true,low,false
UcxFeRiD,39tx062qy41yb4nrucnyjag7oeq3xx,3fijly1b6yhq5rznjijlfqft2axfpj,UcxFeRiD,2020-0188,2020-11-18,00:34:24,00:51:08,NA,incomplete,134,race,2,0,left,A_M_10.jpg,A_F_14.jpg,C_M_15.jpg,left,1087.3849999625236,true,low,false
UcxFeRiD,39tx062qy41yb4nrucnyjag7oeq3xx,3fijly1b6yhq5rznjijlfqft2axfpj,UcxFeRiD,2020-0188,2020-11-18,00:34:24,00:51:08,NA,incomplete,135,race,2,1,left,C_F_05.jpg,C_M_06.jpg,A_F_03.jpg,right,1262.8999999724329,false,low,false
UcxFeRiD,39tx062qy41yb4nrucnyjag7oeq3xx,3fijly1b6yhq5rznjijlfqft2axfpj,UcxFeRiD,2020-0188,2020-11-18,00:34:24,00:51:08,NA,incomplete,136,race,2,0,right,A_M_11.jpg,C_M_03.jpg,A_F_09.jpg,left,1161.350000067614,false,low,false
UcxFeRiD,39tx062qy41yb4nrucnyjag7oeq3xx,3fijly1b6yhq5rznjijlfqft2axfpj,UcxFeRiD,2020-0188,2020-11-18,00:34:24,00:51:08,NA,incomplete,137,race,2,1,right,A_F_04.jpg,C_F_10.jpg,A_M_12.jpg,left,1294.995000003837,false,low,false
UcxFeRiD,39tx062qy41yb4nrucnyjag7oeq3xx,3fijly1b6yhq5rznjijlfqft2axfpj,UcxFeRiD,2020-0188,2020-11-18,00:34:24,00:51:08,NA,incomplete,138,race,2,0,right,A_F_12.jpg,C_F_06.jpg,A_M_10.jpg,right,1240.07000005804,true,low,false
UcxFeRiD,39tx062qy41yb4nrucnyjag7oeq3xx,3fijly1b6yhq5rznjijlfqft2axfpj,UcxFeRiD,2020-0188,2020-11-18,00:34:24,00:51:08,NA,incomplete,139,race,2,1,left,C_M_01.jpg,C_F_06.jpg,A_M_13.jpg,right,1054.3499999912456,false,low,false
UcxFeRiD,39tx062qy41yb4nrucnyjag7oeq3xx,3fijly1b6yhq5rznjijlfqft2axfpj,UcxFeRiD,2020-0188,2020-11-18,00:34:24,00:51:08,NA,incomplete,140,gender,3,1,right,A_M_10.jpg,A_F_03.jpg,C_M_11.jpg,right,1063.7499999720603,true,low,false
UcxFeRiD,39tx062qy41yb4nrucnyjag7oeq3xx,3fijly1b6yhq5rznjijlfqft2axfpj,UcxFeRiD,2020-0188,2020-11-18,00:34:24,00:51:08,NA,incomplete,141,gender,3,1,left,A_F_16.jpg,C_F_01.jpg,A_M_14.jpg,left,1010.2499999338761,true,low,false
UcxFeRiD,39tx062qy41yb4nrucnyjag7oeq3xx,3fijly1b6yhq5rznjijlfqft2axfpj,UcxFeRiD,2020-0188,2020-11-18,00:34:24,00:51:08,NA,incomplete,142,gender,3,1,right,A_F_07.jpg,A_M_05.jpg,C_F_13.jpg,right,918.6350000090897,true,low,false
UcxFeRiD,39tx062qy41yb4nrucnyjag7oeq3xx,3fijly1b6yhq5rznjijlfqft2axfpj,UcxFeRiD,2020-0188,2020-11-18,00:34:24,00:51:08,NA,incomplete,143,gender,3,0,left,A_F_11.jpg,C_F_05.jpg,A_M_15.jpg,left,977.8549999464303,true,low,false
UcxFeRiD,39tx062qy41yb4nrucnyjag7oeq3xx,3fijly1b6yhq5rznjijlfqft2axfpj,UcxFeRiD,2020-0188,2020-11-18,00:34:24,00:51:08,NA,incomplete,144,gender,3,1,left,C_F_15.jpg,A_F_10.jpg,C_M_09.jpg,left,852.6149999815971,true,low,false
UcxFeRiD,39tx062qy41yb4nrucnyjag7oeq3xx,3fijly1b6yhq5rznjijlfqft2axfpj,UcxFeRiD,2020-0188,2020-11-18,00:34:24,00:51:08,NA,incomplete,145,gender,3,0,right,C_M_15.jpg,C_F_04.jpg,A_M_07.jpg,right,1121.045000036247,true,low,false
UcxFeRiD,39tx062qy41yb4nrucnyjag7oeq3xx,3fijly1b6yhq5rznjijlfqft2axfpj,UcxFeRiD,2020-0188,2020-11-18,00:34:24,00:51:08,NA,incomplete,146,gender,3,1,left,A_F_08.jpg,C_F_15.jpg,A_M_13.jpg,left,1309.140000026673,true,low,false
UcxFeRiD,39tx062qy41yb4nrucnyjag7oeq3xx,3fijly1b6yhq5rznjijlfqft2axfpj,UcxFeRiD,2020-0188,2020-11-18,00:34:24,00:51:08,NA,incomplete,147,gender,3,1,right,A_F_09.jpg,A_M_03.jpg,C_F_01.jpg,right,1312.525000073947,true,low,false
UcxFeRiD,39tx062qy41yb4nrucnyjag7oeq3xx,3fijly1b6yhq5rznjijlfqft2axfpj,UcxFeRiD,2020-0188,2020-11-18,00:34:24,00:51:08,NA,incomplete,148,gender,3,1,right,C_M_03.jpg,C_F_10.jpg,A_M_15.jpg,right,1288.1300000008196,true,low,false
UcxFeRiD,39tx062qy41yb4nrucnyjag7oeq3xx,3fijly1b6yhq5rznjijlfqft2axfpj,UcxFeRiD,2020-0188,2020-11-18,00:34:24,00:51:08,NA,incomplete,149,gender,3,1,left,C_M_04.jpg,A_M_12.jpg,C_F_07.jpg,left,961.5449999691918,true,low,false
UcxFeRiD,39tx062qy41yb4nrucnyjag7oeq3xx,3fijly1b6yhq5rznjijlfqft2axfpj,UcxFeRiD,2020-0188,2020-11-18,00:34:24,00:51:08,NA,incomplete,150,gender,3,1,right,A_M_13.jpg,A_F_12.jpg,C_M_09.jpg,right,1068.9900000579655,true,low,false
UcxFeRiD,39tx062qy41yb4nrucnyjag7oeq3xx,3fijly1b6yhq5rznjijlfqft2axfpj,UcxFeRiD,2020-0188,2020-11-18,00:34:24,00:51:08,NA,incomplete,151,gender,3,0,left,A_M_14.jpg,C_M_04.jpg,A_F_01.jpg,left,1336.5500000072643,true,low,false
UcxFeRiD,39tx062qy41yb4nrucnyjag7oeq3xx,3fijly1b6yhq5rznjijlfqft2axfpj,UcxFeRiD,2020-0188,2020-11-18,00:34:24,00:51:08,NA,incomplete,152,gender,3,1,left,C_F_08.jpg,A_F_16.jpg,C_M_02.jpg,left,930.5799999274313,true,low,false
UcxFeRiD,39tx062qy41yb4nrucnyjag7oeq3xx,3fijly1b6yhq5rznjijlfqft2axfpj,UcxFeRiD,2020-0188,2020-11-18,00:34:24,00:51:08,NA,incomplete,153,gender,3,1,left,C_M_04.jpg,A_M_01.jpg,C_F_07.jpg,left,1086.98500005994,true,low,false
UcxFeRiD,39tx062qy41yb4nrucnyjag7oeq3xx,3fijly1b6yhq5rznjijlfqft2axfpj,UcxFeRiD,2020-0188,2020-11-18,00:34:24,00:51:08,NA,incomplete,154,gender,3,1,left,C_M_04.jpg,A_M_09.jpg,C_F_13.jpg,left,919.5950001012534,true,low,false
UcxFeRiD,39tx062qy41yb4nrucnyjag7oeq3xx,3fijly1b6yhq5rznjijlfqft2axfpj,UcxFeRiD,2020-0188,2020-11-18,00:34:24,00:51:08,NA,incomplete,155,gender,3,1,right,A_M_10.jpg,A_F_01.jpg,C_M_09.jpg,right,1091.0350000485778,true,low,false
UcxFeRiD,39tx062qy41yb4nrucnyjag7oeq3xx,3fijly1b6yhq5rznjijlfqft2axfpj,UcxFeRiD,2020-0188,2020-11-18,00:34:24,00:51:08,NA,incomplete,156,gender,3,1,right,C_M_08.jpg,C_F_15.jpg,A_M_03.jpg,right,951.0999999474734,true,low,false
UcxFeRiD,39tx062qy41yb4nrucnyjag7oeq3xx,3fijly1b6yhq5rznjijlfqft2axfpj,UcxFeRiD,2020-0188,2020-11-18,00:34:24,00:51:08,NA,incomplete,157,gender,3,1,right,C_F_05.jpg,C_M_07.jpg,A_F_04.jpg,right,1218.8649999443442,true,low,false
UcxFeRiD,39tx062qy41yb4nrucnyjag7oeq3xx,3fijly1b6yhq5rznjijlfqft2axfpj,UcxFeRiD,2020-0188,2020-11-18,00:34:24,00:51:08,NA,incomplete,158,gender,3,1,left,A_F_12.jpg,C_F_08.jpg,A_M_06.jpg,left,902.3199999937788,true,low,false
UcxFeRiD,39tx062qy41yb4nrucnyjag7oeq3xx,3fijly1b6yhq5rznjijlfqft2axfpj,UcxFeRiD,2020-0188,2020-11-18,00:34:24,00:51:08,NA,incomplete,159,gender,3,1,left,C_M_09.jpg,A_M_02.jpg,C_F_15.jpg,left,1033.629999961704,true,low,false
UcxFeRiD,39tx062qy41yb4nrucnyjag7oeq3xx,3fijly1b6yhq5rznjijlfqft2axfpj,UcxFeRiD,2020-0188,2020-11-18,00:34:24,00:51:08,NA,incomplete,160,race,2,1,right,A_F_03.jpg,C_F_04.jpg,A_M_06.jpg,left,996.1899999761954,false,low,false
UcxFeRiD,39tx062qy41yb4nrucnyjag7oeq3xx,3fijly1b6yhq5rznjijlfqft2axfpj,UcxFeRiD,2020-0188,2020-11-18,00:34:24,00:51:08,NA,incomplete,161,race,2,0,left,A_F_06.jpg,A_M_01.jpg,C_F_04.jpg,right,985.2999999420717,false,low,false
UcxFeRiD,39tx062qy41yb4nrucnyjag7oeq3xx,3fijly1b6yhq5rznjijlfqft2axfpj,UcxFeRiD,2020-0188,2020-11-18,00:34:24,00:51:08,NA,incomplete,162,race,2,1,right,C_M_10.jpg,A_M_09.jpg,C_F_01.jpg,left,881.1550000682473,false,low,false
UcxFeRiD,39tx062qy41yb4nrucnyjag7oeq3xx,3fijly1b6yhq5rznjijlfqft2axfpj,UcxFeRiD,2020-0188,2020-11-18,00:34:24,00:51:08,NA,incomplete,163,race,2,1,right,A_M_12.jpg,C_M_09.jpg,A_F_04.jpg,left,1342.945000040345,false,low,false
UcxFeRiD,39tx062qy41yb4nrucnyjag7oeq3xx,3fijly1b6yhq5rznjijlfqft2axfpj,UcxFeRiD,2020-0188,2020-11-18,00:34:24,00:51:08,NA,incomplete,164,race,2,0,right,A_M_04.jpg,C_M_13.jpg,A_F_10.jpg,left,1113.495000055991,false,low,false
UcxFeRiD,39tx062qy41yb4nrucnyjag7oeq3xx,3fijly1b6yhq5rznjijlfqft2axfpj,UcxFeRiD,2020-0188,2020-11-18,00:34:24,00:51:08,NA,incomplete,165,race,2,1,right,C_M_12.jpg,A_M_06.jpg,C_F_03.jpg,left,884.3949999427423,false,low,false
UcxFeRiD,39tx062qy41yb4nrucnyjag7oeq3xx,3fijly1b6yhq5rznjijlfqft2axfpj,UcxFeRiD,2020-0188,2020-11-18,00:34:24,00:51:08,NA,incomplete,166,race,2,1,left,A_F_11.jpg,A_M_09.jpg,C_F_16.jpg,right,1177.8649999760091,false,low,false
UcxFeRiD,39tx062qy41yb4nrucnyjag7oeq3xx,3fijly1b6yhq5rznjijlfqft2axfpj,UcxFeRiD,2020-0188,2020-11-18,00:34:24,00:51:08,NA,incomplete,167,race,2,0,left,A_F_05.jpg,A_M_13.jpg,C_F_12.jpg,left,1671.9300000695512,true,low,false
UcxFeRiD,39tx062qy41yb4nrucnyjag7oeq3xx,3fijly1b6yhq5rznjijlfqft2axfpj,UcxFeRiD,2020-0188,2020-11-18,00:34:24,00:51:08,NA,incomplete,168,race,2,1,left,A_M_09.jpg,A_F_11.jpg,C_M_02.jpg,left,1472.829999984242,true,low,false
UcxFeRiD,39tx062qy41yb4nrucnyjag7oeq3xx,3fijly1b6yhq5rznjijlfqft2axfpj,UcxFeRiD,2020-0188,2020-11-18,00:34:24,00:51:08,NA,incomplete,169,race,2,1,left,C_M_14.jpg,C_F_02.jpg,A_M_01.jpg,left,1265.5650000087917,true,low,false
UcxFeRiD,39tx062qy41yb4nrucnyjag7oeq3xx,3fijly1b6yhq5rznjijlfqft2axfpj,UcxFeRiD,2020-0188,2020-11-18,00:34:24,00:51:08,NA,incomplete,170,race,2,0,left,C_F_01.jpg,C_M_10.jpg,A_F_09.jpg,left,1727.5800000643358,true,low,false
UcxFeRiD,39tx062qy41yb4nrucnyjag7oeq3xx,3fijly1b6yhq5rznjijlfqft2axfpj,UcxFeRiD,2020-0188,2020-11-18,00:34:24,00:51:08,NA,incomplete,171,race,2,1,left,A_M_07.jpg,A_F_03.jpg,C_M_08.jpg,left,1476.3599999714643,true,low,false
UcxFeRiD,39tx062qy41yb4nrucnyjag7oeq3xx,3fijly1b6yhq5rznjijlfqft2axfpj,UcxFeRiD,2020-0188,2020-11-18,00:34:24,00:51:08,NA,incomplete,172,race,2,1,left,C_M_04.jpg,C_F_05.jpg,A_M_13.jpg,left,1308.0299999564886,true,low,false
UcxFeRiD,39tx062qy41yb4nrucnyjag7oeq3xx,3fijly1b6yhq5rznjijlfqft2axfpj,UcxFeRiD,2020-0188,2020-11-18,00:34:24,00:51:08,NA,incomplete,173,race,2,1,left,C_M_09.jpg,C_F_04.jpg,A_M_03.jpg,left,1153.2500000903383,true,low,false
UcxFeRiD,39tx062qy41yb4nrucnyjag7oeq3xx,3fijly1b6yhq5rznjijlfqft2axfpj,UcxFeRiD,2020-0188,2020-11-18,00:34:24,00:51:08,NA,incomplete,174,race,2,1,left,C_F_01.jpg,C_M_04.jpg,A_F_12.jpg,left,1734.180000028573,true,low,false
UcxFeRiD,39tx062qy41yb4nrucnyjag7oeq3xx,3fijly1b6yhq5rznjijlfqft2axfpj,UcxFeRiD,2020-0188,2020-11-18,00:34:24,00:51:08,NA,incomplete,175,race,2,1,left,A_F_07.jpg,A_M_16.jpg,C_F_05.jpg,left,1529.6849999576807,true,low,false
UcxFeRiD,39tx062qy41yb4nrucnyjag7oeq3xx,3fijly1b6yhq5rznjijlfqft2axfpj,UcxFeRiD,2020-0188,2020-11-18,00:34:24,00:51:08,NA,incomplete,176,race,2,1,right,C_F_13.jpg,A_F_06.jpg,C_M_15.jpg,right,1576.1400000192225,true,low,false
UcxFeRiD,39tx062qy41yb4nrucnyjag7oeq3xx,3fijly1b6yhq5rznjijlfqft2axfpj,UcxFeRiD,2020-0188,2020-11-18,00:34:24,00:51:08,NA,incomplete,177,race,2,1,left,A_M_02.jpg,A_F_10.jpg,C_M_12.jpg,left,1217.865000013262,true,low,false
UcxFeRiD,39tx062qy41yb4nrucnyjag7oeq3xx,3fijly1b6yhq5rznjijlfqft2axfpj,UcxFeRiD,2020-0188,2020-11-18,00:34:24,00:51:08,NA,incomplete,178,race,2,1,left,C_F_15.jpg,C_M_08.jpg,A_F_06.jpg,right,1569.7399999480695,false,low,false
UcxFeRiD,39tx062qy41yb4nrucnyjag7oeq3xx,3fijly1b6yhq5rznjijlfqft2axfpj,UcxFeRiD,2020-0188,2020-11-18,00:34:24,00:51:08,NA,incomplete,179,race,2,1,right,C_M_11.jpg,A_M_03.jpg,C_F_07.jpg,right,1395.699999993667,true,low,false
UcxFeRiD,39tx062qy41yb4nrucnyjag7oeq3xx,3fijly1b6yhq5rznjijlfqft2axfpj,UcxFeRiD,2020-0188,2020-11-18,00:34:24,00:51:08,NA,incomplete,180,gender,3,1,left,A_M_03.jpg,C_M_10.jpg,A_F_04.jpg,right,1478.5499999998137,false,low,false
UcxFeRiD,39tx062qy41yb4nrucnyjag7oeq3xx,3fijly1b6yhq5rznjijlfqft2axfpj,UcxFeRiD,2020-0188,2020-11-18,00:34:24,00:51:08,NA,incomplete,181,gender,3,1,left,C_F_03.jpg,A_F_12.jpg,C_M_04.jpg,right,1201.4150000177324,false,low,false
UcxFeRiD,39tx062qy41yb4nrucnyjag7oeq3xx,3fijly1b6yhq5rznjijlfqft2axfpj,UcxFeRiD,2020-0188,2020-11-18,00:34:24,00:51:08,NA,incomplete,182,gender,3,1,left,C_M_03.jpg,A_M_09.jpg,C_F_15.jpg,right,1044.3800000939518,false,low,false
UcxFeRiD,39tx062qy41yb4nrucnyjag7oeq3xx,3fijly1b6yhq5rznjijlfqft2axfpj,UcxFeRiD,2020-0188,2020-11-18,00:34:24,00:51:08,NA,incomplete,183,gender,3,0,right,C_F_04.jpg,C_M_10.jpg,A_F_09.jpg,right,992.2749999677762,true,low,false
UcxFeRiD,39tx062qy41yb4nrucnyjag7oeq3xx,3fijly1b6yhq5rznjijlfqft2axfpj,UcxFeRiD,2020-0188,2020-11-18,00:34:24,00:51:08,NA,incomplete,184,gender,3,1,left,C_F_15.jpg,A_F_07.jpg,C_M_04.jpg,left,1668.4750000713393,true,low,false
UcxFeRiD,39tx062qy41yb4nrucnyjag7oeq3xx,3fijly1b6yhq5rznjijlfqft2axfpj,UcxFeRiD,2020-0188,2020-11-18,00:34:24,00:51:08,NA,incomplete,185,gender,3,1,left,A_F_05.jpg,C_F_06.jpg,A_M_04.jpg,left,986.0950000584126,true,low,false
UcxFeRiD,39tx062qy41yb4nrucnyjag7oeq3xx,3fijly1b6yhq5rznjijlfqft2axfpj,UcxFeRiD,2020-0188,2020-11-18,00:34:24,00:51:08,NA,incomplete,186,gender,3,1,left,A_M_04.jpg,C_M_08.jpg,A_F_09.jpg,left,1290.0700001046062,true,low,false
UcxFeRiD,39tx062qy41yb4nrucnyjag7oeq3xx,3fijly1b6yhq5rznjijlfqft2axfpj,UcxFeRiD,2020-0188,2020-11-18,00:34:24,00:51:08,NA,incomplete,187,gender,3,1,right,A_F_16.jpg,A_M_11.jpg,C_F_02.jpg,right,811.8099999846891,true,low,false
UcxFeRiD,39tx062qy41yb4nrucnyjag7oeq3xx,3fijly1b6yhq5rznjijlfqft2axfpj,UcxFeRiD,2020-0188,2020-11-18,00:34:24,00:51:08,NA,incomplete,188,gender,3,1,right,C_M_15.jpg,C_F_01.jpg,A_M_10.jpg,right,990.5949999811128,true,low,false
UcxFeRiD,39tx062qy41yb4nrucnyjag7oeq3xx,3fijly1b6yhq5rznjijlfqft2axfpj,UcxFeRiD,2020-0188,2020-11-18,00:34:24,00:51:08,NA,incomplete,189,gender,3,1,right,A_M_15.jpg,A_F_13.jpg,C_M_12.jpg,right,747.5549998925999,true,low,false
UcxFeRiD,39tx062qy41yb4nrucnyjag7oeq3xx,3fijly1b6yhq5rznjijlfqft2axfpj,UcxFeRiD,2020-0188,2020-11-18,00:34:24,00:51:08,NA,incomplete,190,gender,3,0,left,C_F_10.jpg,A_F_05.jpg,C_M_03.jpg,left,769.8749999981374,true,low,false
UcxFeRiD,39tx062qy41yb4nrucnyjag7oeq3xx,3fijly1b6yhq5rznjijlfqft2axfpj,UcxFeRiD,2020-0188,2020-11-18,00:34:24,00:51:08,NA,incomplete,191,gender,3,1,left,C_F_07.jpg,A_F_08.jpg,C_M_11.jpg,left,1211.905000032857,true,low,false
UcxFeRiD,39tx062qy41yb4nrucnyjag7oeq3xx,3fijly1b6yhq5rznjijlfqft2axfpj,UcxFeRiD,2020-0188,2020-11-18,00:34:24,00:51:08,NA,incomplete,192,gender,3,1,left,A_F_05.jpg,C_F_15.jpg,A_M_16.jpg,left,836.659999913536,true,low,false
UcxFeRiD,39tx062qy41yb4nrucnyjag7oeq3xx,3fijly1b6yhq5rznjijlfqft2axfpj,UcxFeRiD,2020-0188,2020-11-18,00:34:24,00:51:08,NA,incomplete,193,gender,3,1,left,C_F_07.jpg,A_F_15.jpg,C_M_05.jpg,left,998.5549999400973,true,low,false
UcxFeRiD,39tx062qy41yb4nrucnyjag7oeq3xx,3fijly1b6yhq5rznjijlfqft2axfpj,UcxFeRiD,2020-0188,2020-11-18,00:34:24,00:51:08,NA,incomplete,194,gender,3,1,left,C_F_06.jpg,A_F_12.jpg,C_M_14.jpg,right,718.1799999671057,false,low,false
UcxFeRiD,39tx062qy41yb4nrucnyjag7oeq3xx,3fijly1b6yhq5rznjijlfqft2axfpj,UcxFeRiD,2020-0188,2020-11-18,00:34:24,00:51:08,NA,incomplete,195,gender,3,1,left,A_F_08.jpg,C_F_09.jpg,A_M_04.jpg,left,1761.339999968186,true,low,false
UcxFeRiD,39tx062qy41yb4nrucnyjag7oeq3xx,3fijly1b6yhq5rznjijlfqft2axfpj,UcxFeRiD,2020-0188,2020-11-18,00:34:24,00:51:08,NA,incomplete,196,gender,3,0,right,C_F_08.jpg,C_M_16.jpg,A_F_10.jpg,right,845.1099999947473,true,low,false
UcxFeRiD,39tx062qy41yb4nrucnyjag7oeq3xx,3fijly1b6yhq5rznjijlfqft2axfpj,UcxFeRiD,2020-0188,2020-11-18,00:34:24,00:51:08,NA,incomplete,197,gender,3,1,left,C_M_04.jpg,A_M_15.jpg,C_F_09.jpg,left,1163.5999999707565,true,low,false
UcxFeRiD,39tx062qy41yb4nrucnyjag7oeq3xx,3fijly1b6yhq5rznjijlfqft2axfpj,UcxFeRiD,2020-0188,2020-11-18,00:34:24,00:51:08,NA,incomplete,198,gender,3,1,right,A_M_01.jpg,A_F_06.jpg,C_M_14.jpg,right,1128.87499993667,true,low,false
UcxFeRiD,39tx062qy41yb4nrucnyjag7oeq3xx,3fijly1b6yhq5rznjijlfqft2axfpj,UcxFeRiD,2020-0188,2020-11-18,00:34:24,00:51:08,NA,incomplete,199,gender,3,1,right,C_F_09.jpg,C_M_05.jpg,A_F_03.jpg,right,1180.709999985993,true,low,false
UcxFeRiD,39tx062qy41yb4nrucnyjag7oeq3xx,3fijly1b6yhq5rznjijlfqft2axfpj,UcxFeRiD,2020-0188,2020-11-18,00:34:24,00:51:08,NA,incomplete,200,race,2,1,left,A_M_08.jpg,A_F_06.jpg,C_M_02.jpg,right,982.2799999965355,false,low,false
UcxFeRiD,39tx062qy41yb4nrucnyjag7oeq3xx,3fijly1b6yhq5rznjijlfqft2axfpj,UcxFeRiD,2020-0188,2020-11-18,00:34:24,00:51:08,NA,incomplete,201,race,2,1,left,A_M_04.jpg,A_F_02.jpg,C_M_07.jpg,right,982.579999952577,false,low,false
UcxFeRiD,39tx062qy41yb4nrucnyjag7oeq3xx,3fijly1b6yhq5rznjijlfqft2axfpj,UcxFeRiD,2020-0188,2020-11-18,00:34:24,00:51:08,NA,incomplete,202,race,2,0,left,A_M_12.jpg,A_F_11.jpg,C_M_08.jpg,right,889.545000041835,false,low,false
UcxFeRiD,39tx062qy41yb4nrucnyjag7oeq3xx,3fijly1b6yhq5rznjijlfqft2axfpj,UcxFeRiD,2020-0188,2020-11-18,00:34:24,00:51:08,NA,incomplete,203,race,2,1,right,C_F_16.jpg,A_F_08.jpg,C_M_03.jpg,left,996.5899999951944,false,low,false
UcxFeRiD,39tx062qy41yb4nrucnyjag7oeq3xx,3fijly1b6yhq5rznjijlfqft2axfpj,UcxFeRiD,2020-0188,2020-11-18,00:34:24,00:51:08,NA,incomplete,204,race,2,1,left,A_F_06.jpg,A_M_10.jpg,C_F_13.jpg,left,1798.6399999354035,true,low,false
UcxFeRiD,39tx062qy41yb4nrucnyjag7oeq3xx,3fijly1b6yhq5rznjijlfqft2axfpj,UcxFeRiD,2020-0188,2020-11-18,00:34:24,00:51:08,NA,incomplete,205,race,2,1,right,C_F_10.jpg,A_F_01.jpg,C_M_09.jpg,right,1409.1750000370666,true,low,false
UcxFeRiD,39tx062qy41yb4nrucnyjag7oeq3xx,3fijly1b6yhq5rznjijlfqft2axfpj,UcxFeRiD,2020-0188,2020-11-18,00:34:24,00:51:08,NA,incomplete,206,race,2,1,left,A_F_16.jpg,A_M_08.jpg,C_F_07.jpg,left,890.6649999553338,true,low,false
UcxFeRiD,39tx062qy41yb4nrucnyjag7oeq3xx,3fijly1b6yhq5rznjijlfqft2axfpj,UcxFeRiD,2020-0188,2020-11-18,00:34:24,00:51:08,NA,incomplete,207,race,2,0,left,C_F_06.jpg,C_M_08.jpg,A_F_04.jpg,left,1514.8800000315532,true,low,false
UcxFeRiD,39tx062qy41yb4nrucnyjag7oeq3xx,3fijly1b6yhq5rznjijlfqft2axfpj,UcxFeRiD,2020-0188,2020-11-18,00:34:24,00:51:08,NA,incomplete,208,race,2,1,left,A_F_06.jpg,A_M_14.jpg,C_F_01.jpg,left,852.0199999911711,true,low,false
UcxFeRiD,39tx062qy41yb4nrucnyjag7oeq3xx,3fijly1b6yhq5rznjijlfqft2axfpj,UcxFeRiD,2020-0188,2020-11-18,00:34:24,00:51:08,NA,incomplete,209,race,2,0,left,C_M_13.jpg,C_F_16.jpg,A_M_06.jpg,left,1161.1099999863654,true,low,false
UcxFeRiD,39tx062qy41yb4nrucnyjag7oeq3xx,3fijly1b6yhq5rznjijlfqft2axfpj,UcxFeRiD,2020-0188,2020-11-18,00:34:24,00:51:08,NA,incomplete,210,race,2,1,left,C_F_03.jpg,C_M_16.jpg,A_F_07.jpg,left,1218.2150000007823,true,low,false
UcxFeRiD,39tx062qy41yb4nrucnyjag7oeq3xx,3fijly1b6yhq5rznjijlfqft2axfpj,UcxFeRiD,2020-0188,2020-11-18,00:34:24,00:51:08,NA,incomplete,211,race,2,1,left,A_M_14.jpg,A_F_05.jpg,C_M_02.jpg,left,1322.634999989532,true,low,false
UcxFeRiD,39tx062qy41yb4nrucnyjag7oeq3xx,3fijly1b6yhq5rznjijlfqft2axfpj,UcxFeRiD,2020-0188,2020-11-18,00:34:24,00:51:08,NA,incomplete,212,race,2,1,left,C_M_16.jpg,C_F_07.jpg,A_M_06.jpg,left,1120.0749999843538,true,low,false
UcxFeRiD,39tx062qy41yb4nrucnyjag7oeq3xx,3fijly1b6yhq5rznjijlfqft2axfpj,UcxFeRiD,2020-0188,2020-11-18,00:34:24,00:51:08,NA,incomplete,213,race,2,1,left,A_F_10.jpg,A_M_06.jpg,C_F_11.jpg,left,1597.3499999381602,true,low,false
UcxFeRiD,39tx062qy41yb4nrucnyjag7oeq3xx,3fijly1b6yhq5rznjijlfqft2axfpj,UcxFeRiD,2020-0188,2020-11-18,00:34:24,00:51:08,NA,incomplete,214,race,2,0,right,C_F_02.jpg,A_F_01.jpg,C_M_15.jpg,right,1193.5100000118837,true,low,false
UcxFeRiD,39tx062qy41yb4nrucnyjag7oeq3xx,3fijly1b6yhq5rznjijlfqft2axfpj,UcxFeRiD,2020-0188,2020-11-18,00:34:24,00:51:08,NA,incomplete,215,race,2,1,left,C_M_08.jpg,C_F_10.jpg,A_M_01.jpg,left,1267.4750000005588,true,low,false
UcxFeRiD,39tx062qy41yb4nrucnyjag7oeq3xx,3fijly1b6yhq5rznjijlfqft2axfpj,UcxFeRiD,2020-0188,2020-11-18,00:34:24,00:51:08,NA,incomplete,216,race,2,1,right,C_M_07.jpg,A_M_10.jpg,C_F_13.jpg,right,1297.249999945052,true,low,false
UcxFeRiD,39tx062qy41yb4nrucnyjag7oeq3xx,3fijly1b6yhq5rznjijlfqft2axfpj,UcxFeRiD,2020-0188,2020-11-18,00:34:24,00:51:08,NA,incomplete,217,race,2,0,left,C_F_11.jpg,C_M_02.jpg,A_F_08.jpg,left,1234.0100000146776,true,low,false
UcxFeRiD,39tx062qy41yb4nrucnyjag7oeq3xx,3fijly1b6yhq5rznjijlfqft2axfpj,UcxFeRiD,2020-0188,2020-11-18,00:34:24,00:51:08,NA,incomplete,218,race,2,1,left,A_M_11.jpg,A_F_16.jpg,C_M_15.jpg,left,1396.3549999753013,true,low,false
UcxFeRiD,39tx062qy41yb4nrucnyjag7oeq3xx,3fijly1b6yhq5rznjijlfqft2axfpj,UcxFeRiD,2020-0188,2020-11-18,00:34:24,00:51:08,NA,incomplete,219,race,2,1,left,A_F_16.jpg,A_M_02.jpg,C_F_08.jpg,right,1517.1500000869855,false,low,false
UcxFeRiD,39tx062qy41yb4nrucnyjag7oeq3xx,3fijly1b6yhq5rznjijlfqft2axfpj,UcxFeRiD,2020-0188,2020-11-18,00:34:24,00:51:08,NA,incomplete,220,gender,3,1,right,A_F_02.jpg,A_M_12.jpg,C_F_05.jpg,left,1018.5650000348687,false,low,false
UcxFeRiD,39tx062qy41yb4nrucnyjag7oeq3xx,3fijly1b6yhq5rznjijlfqft2axfpj,UcxFeRiD,2020-0188,2020-11-18,00:34:24,00:51:08,NA,incomplete,221,gender,3,1,right,A_M_03.jpg,A_F_12.jpg,C_M_08.jpg,left,1812.1299999766052,false,low,false
UcxFeRiD,39tx062qy41yb4nrucnyjag7oeq3xx,3fijly1b6yhq5rznjijlfqft2axfpj,UcxFeRiD,2020-0188,2020-11-18,00:34:24,00:51:08,NA,incomplete,222,gender,3,1,right,A_M_01.jpg,A_F_09.jpg,C_M_14.jpg,left,1076.9699999364093,false,low,false
UcxFeRiD,39tx062qy41yb4nrucnyjag7oeq3xx,3fijly1b6yhq5rznjijlfqft2axfpj,UcxFeRiD,2020-0188,2020-11-18,00:34:24,00:51:08,NA,incomplete,223,gender,3,1,right,A_M_13.jpg,A_F_06.jpg,C_M_14.jpg,right,1041.7100000195205,true,low,false
UcxFeRiD,39tx062qy41yb4nrucnyjag7oeq3xx,3fijly1b6yhq5rznjijlfqft2axfpj,UcxFeRiD,2020-0188,2020-11-18,00:34:24,00:51:08,NA,incomplete,224,gender,3,1,left,C_F_11.jpg,A_F_07.jpg,C_M_04.jpg,left,941.6450000135228,true,low,false
UcxFeRiD,39tx062qy41yb4nrucnyjag7oeq3xx,3fijly1b6yhq5rznjijlfqft2axfpj,UcxFeRiD,2020-0188,2020-11-18,00:34:24,00:51:08,NA,incomplete,225,gender,3,1,right,C_M_15.jpg,C_F_07.jpg,A_M_11.jpg,right,1246.8749999534339,true,low,false
UcxFeRiD,39tx062qy41yb4nrucnyjag7oeq3xx,3fijly1b6yhq5rznjijlfqft2axfpj,UcxFeRiD,2020-0188,2020-11-18,00:34:24,00:51:08,NA,incomplete,226,gender,3,0,left,A_M_03.jpg,C_M_05.jpg,A_F_09.jpg,left,1062.1749999700114,true,low,false
UcxFeRiD,39tx062qy41yb4nrucnyjag7oeq3xx,3fijly1b6yhq5rznjijlfqft2axfpj,UcxFeRiD,2020-0188,2020-11-18,00:34:24,00:51:08,NA,incomplete,227,gender,3,1,left,C_F_11.jpg,A_F_10.jpg,C_M_15.jpg,left,1047.9599999962375,true,low,false
UcxFeRiD,39tx062qy41yb4nrucnyjag7oeq3xx,3fijly1b6yhq5rznjijlfqft2axfpj,UcxFeRiD,2020-0188,2020-11-18,00:34:24,00:51:08,NA,incomplete,228,gender,3,1,right,A_F_15.jpg,A_M_11.jpg,C_F_06.jpg,right,811.7099999217317,true,low,false
UcxFeRiD,39tx062qy41yb4nrucnyjag7oeq3xx,3fijly1b6yhq5rznjijlfqft2axfpj,UcxFeRiD,2020-0188,2020-11-18,00:34:24,00:51:08,NA,incomplete,229,gender,3,0,right,A_M_11.jpg,A_F_01.jpg,C_M_04.jpg,right,918.1349999271333,true,low,false
UcxFeRiD,39tx062qy41yb4nrucnyjag7oeq3xx,3fijly1b6yhq5rznjijlfqft2axfpj,UcxFeRiD,2020-0188,2020-11-18,00:34:24,00:51:08,NA,incomplete,230,gender,3,1,right,A_M_02.jpg,A_F_14.jpg,C_M_13.jpg,right,846.4549999916926,true,low,false
UcxFeRiD,39tx062qy41yb4nrucnyjag7oeq3xx,3fijly1b6yhq5rznjijlfqft2axfpj,UcxFeRiD,2020-0188,2020-11-18,00:34:24,00:51:08,NA,incomplete,231,gender,3,1,left,C_F_09.jpg,A_F_11.jpg,C_M_05.jpg,left,1140.4649999458343,true,low,false
UcxFeRiD,39tx062qy41yb4nrucnyjag7oeq3xx,3fijly1b6yhq5rznjijlfqft2axfpj,UcxFeRiD,2020-0188,2020-11-18,00:34:24,00:51:08,NA,incomplete,232,gender,3,1,right,C_M_05.jpg,C_F_03.jpg,A_M_08.jpg,right,747.6599999936298,true,low,false
UcxFeRiD,39tx062qy41yb4nrucnyjag7oeq3xx,3fijly1b6yhq5rznjijlfqft2axfpj,UcxFeRiD,2020-0188,2020-11-18,00:34:24,00:51:08,NA,incomplete,233,gender,3,1,right,A_M_09.jpg,A_F_01.jpg,C_M_12.jpg,right,770.7350000273436,true,low,false
UcxFeRiD,39tx062qy41yb4nrucnyjag7oeq3xx,3fijly1b6yhq5rznjijlfqft2axfpj,UcxFeRiD,2020-0188,2020-11-18,00:34:24,00:51:08,NA,incomplete,234,gender,3,1,left,C_F_09.jpg,A_F_01.jpg,C_M_04.jpg,left,923.5950000584126,true,low,false
UcxFeRiD,39tx062qy41yb4nrucnyjag7oeq3xx,3fijly1b6yhq5rznjijlfqft2axfpj,UcxFeRiD,2020-0188,2020-11-18,00:34:24,00:51:08,NA,incomplete,235,gender,3,1,left,A_M_03.jpg,C_M_06.jpg,A_F_05.jpg,left,998.3249999349937,true,low,false
UcxFeRiD,39tx062qy41yb4nrucnyjag7oeq3xx,3fijly1b6yhq5rznjijlfqft2axfpj,UcxFeRiD,2020-0188,2020-11-18,00:34:24,00:51:08,NA,incomplete,236,gender,3,0,right,A_F_03.jpg,A_M_15.jpg,C_F_02.jpg,right,1159.440000075847,true,low,false
UcxFeRiD,39tx062qy41yb4nrucnyjag7oeq3xx,3fijly1b6yhq5rznjijlfqft2axfpj,UcxFeRiD,2020-0188,2020-11-18,00:34:24,00:51:08,NA,incomplete,237,gender,3,1,right,C_M_05.jpg,C_F_06.jpg,A_M_10.jpg,right,1078.2149999868125,true,low,false
UcxFeRiD,39tx062qy41yb4nrucnyjag7oeq3xx,3fijly1b6yhq5rznjijlfqft2axfpj,UcxFeRiD,2020-0188,2020-11-18,00:34:24,00:51:08,NA,incomplete,238,gender,3,1,right,C_M_06.jpg,C_F_04.jpg,A_M_12.jpg,right,806.6899999976158,true,low,false
UcxFeRiD,39tx062qy41yb4nrucnyjag7oeq3xx,3fijly1b6yhq5rznjijlfqft2axfpj,UcxFeRiD,2020-0188,2020-11-18,00:34:24,00:51:08,NA,incomplete,239,gender,3,1,left,C_M_06.jpg,A_M_05.jpg,C_F_13.jpg,left,682.4150000466034,true,low,false
UcxFeRiD,39tx062qy41yb4nrucnyjag7oeq3xx,3fijly1b6yhq5rznjijlfqft2axfpj,UcxFeRiD,2020-0188,2020-11-18,00:34:24,00:51:08,NA,NA,instruction example,shape,NA,NA,NA,Purple_Plus_Grid_1.jpg,Blue_Plus_Chess_4.jpg,Green_Circle_Stripes_1.jpg,NA,NA,NA,NA,undefined
UcxFeRiD,39tx062qy41yb4nrucnyjag7oeq3xx,3fijly1b6yhq5rznjijlfqft2axfpj,UcxFeRiD,2020-0188,2020-11-18,00:34:24,00:51:08,NA,NA,instruction example,shape,NA,NA,NA,Red_Circle_Dots_4.jpg,Blue_Triangle_Chess_4.jpg,Green_Circle_Grid_3.jpg,NA,NA,NA,NA,undefined
UcxFeRiD,39tx062qy41yb4nrucnyjag7oeq3xx,3fijly1b6yhq5rznjijlfqft2axfpj,UcxFeRiD,2020-0188,2020-11-18,00:34:24,00:51:08,NA,NA,instruction example,shape,NA,NA,NA,A_M_16.jpg,A_F_02.jpg,C_M_13.jpg,NA,NA,NA,NA,undefined
UcxFeRiD,39tx062qy41yb4nrucnyjag7oeq3xx,3fijly1b6yhq5rznjijlfqft2axfpj,UcxFeRiD,2020-0188,2020-11-18,00:34:24,00:51:08,NA,NA,instruction example,shape,NA,NA,NA,C_M_11.jpg,A_M_16.jpg,C_F_12.jpg,NA,NA,NA,NA,undefined
