workerId,hitId,assignmentId,subject,studyid,exp_date,exp_start,exp_end,time_start,time_end,trial,type,sequence,reward_validity,answer,image_top,image_left,image_right,response,response_time,response_acc,volatility,practice
OMCyeGSg,3ha5odm5ld5arw3bkcnh3xryudvvsa,3ftop5warj13mchzlnvgfn6crp90j5,OMCyeGSg,2020-0188,2020-06-04,10:48:17,11:03:51,NA,incomplete,0,number,0,1,left,Green_Triangle_Stripes_1.jpg,Red_Circle_Dots_1.jpg,Green_Plus_Chess_4.jpg,left,1200.745000038296,true,NA,true
OMCyeGSg,3ha5odm5ld5arw3bkcnh3xryudvvsa,3ftop5warj13mchzlnvgfn6crp90j5,OMCyeGSg,2020-0188,2020-06-04,10:48:17,11:03:51,NA,incomplete,1,number,0,1,left,Red_Plus_Grid_2.jpg,Green_Star_Chess_2.jpg,Red_Triangle_Dots_1.jpg,left,923.3250000979751,true,NA,true
OMCyeGSg,3ha5odm5ld5arw3bkcnh3xryudvvsa,3ftop5warj13mchzlnvgfn6crp90j5,OMCyeGSg,2020-0188,2020-06-04,10:48:17,11:03:51,NA,incomplete,2,number,0,1,left,Red_Plus_Chess_2.jpg,Green_Star_Grid_2.jpg,Red_Circle_Stripes_1.jpg,left,642.9149999748915,true,NA,true
OMCyeGSg,3ha5odm5ld5arw3bkcnh3xryudvvsa,3ftop5warj13mchzlnvgfn6crp90j5,OMCyeGSg,2020-0188,2020-06-04,10:48:17,11:03:51,NA,incomplete,3,number,0,1,right,Green_Plus_Grid_4.jpg,Green_Star_Stripes_1.jpg,Blue_Circle_Dots_4.jpg,right,823.0199997778982,true,NA,true
OMCyeGSg,3ha5odm5ld5arw3bkcnh3xryudvvsa,3ftop5warj13mchzlnvgfn6crp90j5,OMCyeGSg,2020-0188,2020-06-04,10:48:17,11:03:51,NA,incomplete,4,number,0,1,right,Blue_Triangle_Dots_2.jpg,Blue_Circle_Chess_4.jpg,Green_Star_Stripes_2.jpg,right,670.5149998888373,true,NA,true
OMCyeGSg,3ha5odm5ld5arw3bkcnh3xryudvvsa,3ftop5warj13mchzlnvgfn6crp90j5,OMCyeGSg,2020-0188,2020-06-04,10:48:17,11:03:51,NA,incomplete,5,number,0,1,right,Red_Star_Dots_4.jpg,Red_Circle_Chess_2.jpg,Purple_Plus_Grid_4.jpg,right,703.9499999955297,true,NA,true
OMCyeGSg,3ha5odm5ld5arw3bkcnh3xryudvvsa,3ftop5warj13mchzlnvgfn6crp90j5,OMCyeGSg,2020-0188,2020-06-04,10:48:17,11:03:51,NA,incomplete,6,number,0,1,right,Green_Triangle_Stripes_2.jpg,Green_Circle_Grid_3.jpg,Red_Star_Chess_2.jpg,right,757.8099998645484,true,NA,true
OMCyeGSg,3ha5odm5ld5arw3bkcnh3xryudvvsa,3ftop5warj13mchzlnvgfn6crp90j5,OMCyeGSg,2020-0188,2020-06-04,10:48:17,11:03:51,NA,incomplete,7,number,0,1,left,Green_Circle_Stripes_1.jpg,Red_Triangle_Grid_1.jpg,Green_Plus_Dots_3.jpg,left,670.2550000045449,true,NA,true
OMCyeGSg,3ha5odm5ld5arw3bkcnh3xryudvvsa,3ftop5warj13mchzlnvgfn6crp90j5,OMCyeGSg,2020-0188,2020-06-04,10:48:17,11:03:51,NA,incomplete,8,number,0,1,left,Blue_Circle_Chess_1.jpg,Green_Plus_Dots_1.jpg,Blue_Star_Grid_3.jpg,left,765.6450001522899,true,NA,true
OMCyeGSg,3ha5odm5ld5arw3bkcnh3xryudvvsa,3ftop5warj13mchzlnvgfn6crp90j5,OMCyeGSg,2020-0188,2020-06-04,10:48:17,11:03:51,NA,incomplete,9,number,0,1,right,Blue_Triangle_Stripes_3.jpg,Blue_Circle_Grid_1.jpg,Purple_Star_Chess_3.jpg,right,690.0649999734014,true,NA,true
OMCyeGSg,3ha5odm5ld5arw3bkcnh3xryudvvsa,3ftop5warj13mchzlnvgfn6crp90j5,OMCyeGSg,2020-0188,2020-06-04,10:48:17,11:03:51,NA,incomplete,10,number,0,0,right,Green_Star_Grid_2.jpg,Green_Triangle_Dots_3.jpg,Purple_Plus_Chess_2.jpg,right,736.0650000628084,true,NA,true
OMCyeGSg,3ha5odm5ld5arw3bkcnh3xryudvvsa,3ftop5warj13mchzlnvgfn6crp90j5,OMCyeGSg,2020-0188,2020-06-04,10:48:17,11:03:51,NA,incomplete,11,number,0,1,left,Green_Triangle_Dots_2.jpg,Purple_Plus_Stripes_2.jpg,Green_Star_Grid_4.jpg,left,804.1599998250604,true,NA,true
OMCyeGSg,3ha5odm5ld5arw3bkcnh3xryudvvsa,3ftop5warj13mchzlnvgfn6crp90j5,OMCyeGSg,2020-0188,2020-06-04,10:48:17,11:03:51,NA,incomplete,12,number,0,1,left,Green_Triangle_Chess_3.jpg,Blue_Plus_Dots_3.jpg,Green_Star_Grid_4.jpg,left,1005.8049999643117,true,NA,true
OMCyeGSg,3ha5odm5ld5arw3bkcnh3xryudvvsa,3ftop5warj13mchzlnvgfn6crp90j5,OMCyeGSg,2020-0188,2020-06-04,10:48:17,11:03:51,NA,incomplete,13,number,0,0,right,Purple_Triangle_Grid_4.jpg,Purple_Star_Dots_2.jpg,Red_Plus_Stripes_4.jpg,right,737.5850002281368,true,NA,true
OMCyeGSg,3ha5odm5ld5arw3bkcnh3xryudvvsa,3ftop5warj13mchzlnvgfn6crp90j5,OMCyeGSg,2020-0188,2020-06-04,10:48:17,11:03:51,NA,incomplete,14,number,0,1,right,Red_Star_Dots_3.jpg,Red_Circle_Grid_1.jpg,Green_Plus_Chess_3.jpg,right,755.0350001547486,true,NA,true
OMCyeGSg,3ha5odm5ld5arw3bkcnh3xryudvvsa,3ftop5warj13mchzlnvgfn6crp90j5,OMCyeGSg,2020-0188,2020-06-04,10:48:17,11:03:51,NA,incomplete,15,number,0,1,right,Blue_Triangle_Dots_1.jpg,Blue_Star_Grid_4.jpg,Green_Plus_Chess_1.jpg,right,1054.3600001838058,true,NA,true
OMCyeGSg,3ha5odm5ld5arw3bkcnh3xryudvvsa,3ftop5warj13mchzlnvgfn6crp90j5,OMCyeGSg,2020-0188,2020-06-04,10:48:17,11:03:51,NA,incomplete,16,number,0,1,left,Green_Plus_Dots_2.jpg,Red_Circle_Stripes_2.jpg,Green_Triangle_Grid_3.jpg,left,717.4899999517947,true,NA,true
OMCyeGSg,3ha5odm5ld5arw3bkcnh3xryudvvsa,3ftop5warj13mchzlnvgfn6crp90j5,OMCyeGSg,2020-0188,2020-06-04,10:48:17,11:03:51,NA,incomplete,17,number,0,1,left,Green_Plus_Stripes_1.jpg,Purple_Circle_Grid_1.jpg,Green_Star_Dots_2.jpg,left,844.5550000760704,true,NA,true
OMCyeGSg,3ha5odm5ld5arw3bkcnh3xryudvvsa,3ftop5warj13mchzlnvgfn6crp90j5,OMCyeGSg,2020-0188,2020-06-04,10:48:17,11:03:51,NA,incomplete,18,number,0,1,left,Blue_Star_Grid_1.jpg,Green_Circle_Chess_1.jpg,Blue_Plus_Dots_2.jpg,left,1079.674999928102,true,NA,true
OMCyeGSg,3ha5odm5ld5arw3bkcnh3xryudvvsa,3ftop5warj13mchzlnvgfn6crp90j5,OMCyeGSg,2020-0188,2020-06-04,10:48:17,11:03:51,NA,incomplete,19,number,0,1,left,Blue_Circle_Chess_4.jpg,Red_Star_Dots_4.jpg,Blue_Triangle_Grid_3.jpg,left,957.2550000157207,true,NA,true
OMCyeGSg,3ha5odm5ld5arw3bkcnh3xryudvvsa,3ftop5warj13mchzlnvgfn6crp90j5,OMCyeGSg,2020-0188,2020-06-04,10:48:17,11:03:51,NA,incomplete,20,color,1,1,left,Red_Triangle_Grid_1.jpg,Red_Star_Dots_4.jpg,Blue_Circle_Chess_1.jpg,right,811.0849999357015,false,NA,true
OMCyeGSg,3ha5odm5ld5arw3bkcnh3xryudvvsa,3ftop5warj13mchzlnvgfn6crp90j5,OMCyeGSg,2020-0188,2020-06-04,10:48:17,11:03:51,NA,incomplete,21,color,1,0,right,Purple_Circle_Grid_2.jpg,Blue_Triangle_Dots_2.jpg,Purple_Plus_Stripes_1.jpg,left,936.1849999986589,false,NA,true
OMCyeGSg,3ha5odm5ld5arw3bkcnh3xryudvvsa,3ftop5warj13mchzlnvgfn6crp90j5,OMCyeGSg,2020-0188,2020-06-04,10:48:17,11:03:51,NA,incomplete,22,color,1,1,right,Red_Star_Grid_3.jpg,Green_Triangle_Stripes_3.jpg,Red_Plus_Chess_1.jpg,left,773.0549999978393,false,NA,true
OMCyeGSg,3ha5odm5ld5arw3bkcnh3xryudvvsa,3ftop5warj13mchzlnvgfn6crp90j5,OMCyeGSg,2020-0188,2020-06-04,10:48:17,11:03:51,NA,incomplete,23,color,1,1,left,Blue_Plus_Chess_3.jpg,Blue_Star_Dots_2.jpg,Red_Triangle_Stripes_3.jpg,left,722.770000109449,true,NA,true
OMCyeGSg,3ha5odm5ld5arw3bkcnh3xryudvvsa,3ftop5warj13mchzlnvgfn6crp90j5,OMCyeGSg,2020-0188,2020-06-04,10:48:17,11:03:51,NA,incomplete,24,color,1,1,right,Red_Triangle_Chess_2.jpg,Blue_Circle_Grid_2.jpg,Red_Plus_Dots_3.jpg,right,532.0200000423938,true,NA,true
OMCyeGSg,3ha5odm5ld5arw3bkcnh3xryudvvsa,3ftop5warj13mchzlnvgfn6crp90j5,OMCyeGSg,2020-0188,2020-06-04,10:48:17,11:03:51,NA,incomplete,25,color,1,1,left,Blue_Star_Chess_4.jpg,Blue_Circle_Dots_2.jpg,Green_Triangle_Stripes_4.jpg,left,683.0849999096245,true,NA,true
OMCyeGSg,3ha5odm5ld5arw3bkcnh3xryudvvsa,3ftop5warj13mchzlnvgfn6crp90j5,OMCyeGSg,2020-0188,2020-06-04,10:48:17,11:03:51,NA,incomplete,26,color,1,1,left,Blue_Triangle_Chess_2.jpg,Blue_Star_Stripes_4.jpg,Purple_Plus_Grid_2.jpg,left,590.9249999094754,true,NA,true
OMCyeGSg,3ha5odm5ld5arw3bkcnh3xryudvvsa,3ftop5warj13mchzlnvgfn6crp90j5,OMCyeGSg,2020-0188,2020-06-04,10:48:17,11:03:51,NA,incomplete,27,color,1,0,right,Green_Star_Grid_4.jpg,Blue_Circle_Chess_4.jpg,Green_Triangle_Dots_3.jpg,right,531.1400000937283,true,NA,true
OMCyeGSg,3ha5odm5ld5arw3bkcnh3xryudvvsa,3ftop5warj13mchzlnvgfn6crp90j5,OMCyeGSg,2020-0188,2020-06-04,10:48:17,11:03:51,NA,incomplete,28,color,1,0,right,Blue_Star_Chess_2.jpg,Red_Circle_Grid_2.jpg,Blue_Triangle_Dots_3.jpg,right,635.1100001484156,true,NA,true
OMCyeGSg,3ha5odm5ld5arw3bkcnh3xryudvvsa,3ftop5warj13mchzlnvgfn6crp90j5,OMCyeGSg,2020-0188,2020-06-04,10:48:17,11:03:51,NA,incomplete,29,color,1,1,right,Green_Circle_Dots_2.jpg,Purple_Star_Grid_2.jpg,Green_Triangle_Stripes_3.jpg,right,504.65499982237816,true,NA,true
OMCyeGSg,3ha5odm5ld5arw3bkcnh3xryudvvsa,3ftop5warj13mchzlnvgfn6crp90j5,OMCyeGSg,2020-0188,2020-06-04,10:48:17,11:03:51,NA,incomplete,30,color,1,1,left,Blue_Circle_Chess_2.jpg,Blue_Plus_Dots_1.jpg,Red_Triangle_Grid_2.jpg,left,531.8049998022616,true,NA,true
OMCyeGSg,3ha5odm5ld5arw3bkcnh3xryudvvsa,3ftop5warj13mchzlnvgfn6crp90j5,OMCyeGSg,2020-0188,2020-06-04,10:48:17,11:03:51,NA,incomplete,31,color,1,1,right,Purple_Circle_Grid_3.jpg,Green_Star_Chess_3.jpg,Purple_Triangle_Stripes_1.jpg,right,609.8400000482798,true,NA,true
OMCyeGSg,3ha5odm5ld5arw3bkcnh3xryudvvsa,3ftop5warj13mchzlnvgfn6crp90j5,OMCyeGSg,2020-0188,2020-06-04,10:48:17,11:03:51,NA,incomplete,32,color,1,0,left,Blue_Plus_Grid_4.jpg,Blue_Triangle_Chess_2.jpg,Green_Star_Dots_4.jpg,left,614.8699999321252,true,NA,true
OMCyeGSg,3ha5odm5ld5arw3bkcnh3xryudvvsa,3ftop5warj13mchzlnvgfn6crp90j5,OMCyeGSg,2020-0188,2020-06-04,10:48:17,11:03:51,NA,incomplete,33,color,1,1,right,Red_Triangle_Stripes_2.jpg,Green_Circle_Grid_2.jpg,Red_Plus_Chess_1.jpg,left,1167.2399998642504,false,NA,true
OMCyeGSg,3ha5odm5ld5arw3bkcnh3xryudvvsa,3ftop5warj13mchzlnvgfn6crp90j5,OMCyeGSg,2020-0188,2020-06-04,10:48:17,11:03:51,NA,incomplete,34,color,1,1,right,Blue_Triangle_Stripes_2.jpg,Red_Star_Chess_2.jpg,Blue_Plus_Dots_3.jpg,right,1216.9200000353158,true,NA,true
OMCyeGSg,3ha5odm5ld5arw3bkcnh3xryudvvsa,3ftop5warj13mchzlnvgfn6crp90j5,OMCyeGSg,2020-0188,2020-06-04,10:48:17,11:03:51,NA,incomplete,35,color,1,1,left,Red_Star_Stripes_4.jpg,Red_Triangle_Chess_3.jpg,Purple_Plus_Dots_4.jpg,left,1079.0599999018013,true,NA,true
OMCyeGSg,3ha5odm5ld5arw3bkcnh3xryudvvsa,3ftop5warj13mchzlnvgfn6crp90j5,OMCyeGSg,2020-0188,2020-06-04,10:48:17,11:03:51,NA,incomplete,36,color,1,0,right,Red_Star_Chess_1.jpg,Blue_Circle_Grid_1.jpg,Red_Plus_Dots_2.jpg,right,564.479999942705,true,NA,true
OMCyeGSg,3ha5odm5ld5arw3bkcnh3xryudvvsa,3ftop5warj13mchzlnvgfn6crp90j5,OMCyeGSg,2020-0188,2020-06-04,10:48:17,11:03:51,NA,incomplete,37,color,1,0,right,Blue_Star_Grid_2.jpg,Green_Circle_Dots_2.jpg,Blue_Triangle_Stripes_4.jpg,right,678.8500000257045,true,NA,true
OMCyeGSg,3ha5odm5ld5arw3bkcnh3xryudvvsa,3ftop5warj13mchzlnvgfn6crp90j5,OMCyeGSg,2020-0188,2020-06-04,10:48:17,11:03:51,NA,incomplete,38,color,1,1,left,Blue_Circle_Chess_1.jpg,Blue_Star_Grid_2.jpg,Red_Plus_Stripes_1.jpg,left,1127.0349998958409,true,NA,true
OMCyeGSg,3ha5odm5ld5arw3bkcnh3xryudvvsa,3ftop5warj13mchzlnvgfn6crp90j5,OMCyeGSg,2020-0188,2020-06-04,10:48:17,11:03:51,NA,incomplete,39,color,1,1,left,Green_Circle_Grid_2.jpg,Green_Triangle_Chess_4.jpg,Purple_Star_Dots_2.jpg,left,589.109999826178,true,NA,true
OMCyeGSg,3ha5odm5ld5arw3bkcnh3xryudvvsa,3ftop5warj13mchzlnvgfn6crp90j5,OMCyeGSg,2020-0188,2020-06-04,10:48:17,11:03:51,NA,incomplete,0,number,0,1,left,Green_Triangle_Chess_2.jpg,Red_Star_Stripes_2.jpg,Green_Plus_Dots_4.jpg,right,907.8949999529868,false,high,false
OMCyeGSg,3ha5odm5ld5arw3bkcnh3xryudvvsa,3ftop5warj13mchzlnvgfn6crp90j5,OMCyeGSg,2020-0188,2020-06-04,10:48:17,11:03:51,NA,incomplete,1,number,0,1,left,Green_Circle_Stripes_4.jpg,Blue_Star_Grid_4.jpg,Green_Triangle_Dots_2.jpg,right,1178.2200001180172,false,high,false
OMCyeGSg,3ha5odm5ld5arw3bkcnh3xryudvvsa,3ftop5warj13mchzlnvgfn6crp90j5,OMCyeGSg,2020-0188,2020-06-04,10:48:17,11:03:51,NA,incomplete,2,number,0,1,left,Blue_Circle_Stripes_4.jpg,Purple_Star_Dots_4.jpg,Blue_Plus_Chess_3.jpg,left,932.2549998760223,true,high,false
OMCyeGSg,3ha5odm5ld5arw3bkcnh3xryudvvsa,3ftop5warj13mchzlnvgfn6crp90j5,OMCyeGSg,2020-0188,2020-06-04,10:48:17,11:03:51,NA,incomplete,3,number,0,1,right,Purple_Star_Chess_4.jpg,Purple_Triangle_Stripes_1.jpg,Green_Plus_Dots_4.jpg,right,706.5300000831485,true,high,false
OMCyeGSg,3ha5odm5ld5arw3bkcnh3xryudvvsa,3ftop5warj13mchzlnvgfn6crp90j5,OMCyeGSg,2020-0188,2020-06-04,10:48:17,11:03:51,NA,incomplete,4,number,0,0,left,Green_Plus_Dots_4.jpg,Blue_Star_Grid_4.jpg,Green_Triangle_Stripes_3.jpg,left,694.6799999568611,true,high,false
OMCyeGSg,3ha5odm5ld5arw3bkcnh3xryudvvsa,3ftop5warj13mchzlnvgfn6crp90j5,OMCyeGSg,2020-0188,2020-06-04,10:48:17,11:03:51,NA,incomplete,5,number,0,0,left,Purple_Circle_Dots_1.jpg,Red_Star_Stripes_1.jpg,Purple_Plus_Grid_2.jpg,left,690.0500000920147,true,high,false
OMCyeGSg,3ha5odm5ld5arw3bkcnh3xryudvvsa,3ftop5warj13mchzlnvgfn6crp90j5,OMCyeGSg,2020-0188,2020-06-04,10:48:17,11:03:51,NA,incomplete,6,number,0,1,right,Blue_Triangle_Grid_3.jpg,Blue_Plus_Stripes_4.jpg,Purple_Star_Chess_3.jpg,right,725.5100000184029,true,high,false
OMCyeGSg,3ha5odm5ld5arw3bkcnh3xryudvvsa,3ftop5warj13mchzlnvgfn6crp90j5,OMCyeGSg,2020-0188,2020-06-04,10:48:17,11:03:51,NA,incomplete,7,number,0,0,right,Purple_Star_Dots_4.jpg,Purple_Plus_Chess_1.jpg,Green_Triangle_Stripes_4.jpg,right,665.8650001045316,true,high,false
OMCyeGSg,3ha5odm5ld5arw3bkcnh3xryudvvsa,3ftop5warj13mchzlnvgfn6crp90j5,OMCyeGSg,2020-0188,2020-06-04,10:48:17,11:03:51,NA,incomplete,8,number,0,1,right,Purple_Triangle_Chess_3.jpg,Purple_Circle_Stripes_2.jpg,Red_Plus_Dots_3.jpg,right,730.7049999944866,true,high,false
OMCyeGSg,3ha5odm5ld5arw3bkcnh3xryudvvsa,3ftop5warj13mchzlnvgfn6crp90j5,OMCyeGSg,2020-0188,2020-06-04,10:48:17,11:03:51,NA,incomplete,9,number,0,1,right,Blue_Triangle_Grid_1.jpg,Blue_Star_Dots_4.jpg,Red_Circle_Stripes_1.jpg,right,629.555000225082,true,high,false
OMCyeGSg,3ha5odm5ld5arw3bkcnh3xryudvvsa,3ftop5warj13mchzlnvgfn6crp90j5,OMCyeGSg,2020-0188,2020-06-04,10:48:17,11:03:51,NA,incomplete,10,color,1,1,left,Green_Star_Stripes_4.jpg,Green_Circle_Grid_1.jpg,Blue_Plus_Dots_4.jpg,right,610.5349999852479,false,high,false
OMCyeGSg,3ha5odm5ld5arw3bkcnh3xryudvvsa,3ftop5warj13mchzlnvgfn6crp90j5,OMCyeGSg,2020-0188,2020-06-04,10:48:17,11:03:51,NA,incomplete,11,color,1,1,left,Red_Circle_Stripes_3.jpg,Red_Star_Grid_2.jpg,Blue_Plus_Dots_3.jpg,right,765.9250001888722,false,high,false
OMCyeGSg,3ha5odm5ld5arw3bkcnh3xryudvvsa,3ftop5warj13mchzlnvgfn6crp90j5,OMCyeGSg,2020-0188,2020-06-04,10:48:17,11:03:51,NA,incomplete,12,color,1,0,right,Red_Plus_Chess_1.jpg,Green_Star_Stripes_1.jpg,Red_Triangle_Grid_4.jpg,right,521.0949999745935,true,high,false
OMCyeGSg,3ha5odm5ld5arw3bkcnh3xryudvvsa,3ftop5warj13mchzlnvgfn6crp90j5,OMCyeGSg,2020-0188,2020-06-04,10:48:17,11:03:51,NA,incomplete,13,color,1,1,right,Green_Plus_Chess_1.jpg,Blue_Star_Dots_1.jpg,Green_Triangle_Stripes_4.jpg,left,1117.4000001046807,false,high,false
OMCyeGSg,3ha5odm5ld5arw3bkcnh3xryudvvsa,3ftop5warj13mchzlnvgfn6crp90j5,OMCyeGSg,2020-0188,2020-06-04,10:48:17,11:03:51,NA,incomplete,14,color,1,1,right,Purple_Triangle_Dots_2.jpg,Blue_Plus_Chess_2.jpg,Purple_Star_Stripes_1.jpg,left,830.7149999309331,false,high,false
OMCyeGSg,3ha5odm5ld5arw3bkcnh3xryudvvsa,3ftop5warj13mchzlnvgfn6crp90j5,OMCyeGSg,2020-0188,2020-06-04,10:48:17,11:03:51,NA,incomplete,15,color,1,1,right,Purple_Circle_Stripes_3.jpg,Blue_Plus_Dots_3.jpg,Purple_Star_Chess_2.jpg,right,892.3550001345575,true,high,false
OMCyeGSg,3ha5odm5ld5arw3bkcnh3xryudvvsa,3ftop5warj13mchzlnvgfn6crp90j5,OMCyeGSg,2020-0188,2020-06-04,10:48:17,11:03:51,NA,incomplete,16,color,1,1,left,Purple_Triangle_Dots_1.jpg,Purple_Star_Grid_3.jpg,Green_Circle_Chess_1.jpg,left,584.159999853,true,high,false
OMCyeGSg,3ha5odm5ld5arw3bkcnh3xryudvvsa,3ftop5warj13mchzlnvgfn6crp90j5,OMCyeGSg,2020-0188,2020-06-04,10:48:17,11:03:51,NA,incomplete,17,color,1,0,right,Green_Star_Dots_1.jpg,Purple_Plus_Stripes_1.jpg,Green_Triangle_Grid_2.jpg,right,482.3300000280142,true,high,false
OMCyeGSg,3ha5odm5ld5arw3bkcnh3xryudvvsa,3ftop5warj13mchzlnvgfn6crp90j5,OMCyeGSg,2020-0188,2020-06-04,10:48:17,11:03:51,NA,incomplete,18,color,1,0,right,Blue_Circle_Chess_3.jpg,Red_Star_Dots_3.jpg,Blue_Plus_Stripes_2.jpg,right,519.5049999747425,true,high,false
OMCyeGSg,3ha5odm5ld5arw3bkcnh3xryudvvsa,3ftop5warj13mchzlnvgfn6crp90j5,OMCyeGSg,2020-0188,2020-06-04,10:48:17,11:03:51,NA,incomplete,19,color,1,1,left,Red_Star_Stripes_1.jpg,Red_Plus_Dots_2.jpg,Purple_Circle_Grid_1.jpg,left,636.5300000179559,true,high,false
OMCyeGSg,3ha5odm5ld5arw3bkcnh3xryudvvsa,3ftop5warj13mchzlnvgfn6crp90j5,OMCyeGSg,2020-0188,2020-06-04,10:48:17,11:03:51,NA,incomplete,20,number,0,0,left,Blue_Circle_Dots_4.jpg,Purple_Triangle_Stripes_4.jpg,Blue_Plus_Grid_3.jpg,right,557.7599999960512,false,high,false
OMCyeGSg,3ha5odm5ld5arw3bkcnh3xryudvvsa,3ftop5warj13mchzlnvgfn6crp90j5,OMCyeGSg,2020-0188,2020-06-04,10:48:17,11:03:51,NA,incomplete,21,number,0,1,left,Purple_Plus_Chess_3.jpg,Green_Circle_Dots_3.jpg,Purple_Star_Grid_4.jpg,right,571.2749999947846,false,high,false
OMCyeGSg,3ha5odm5ld5arw3bkcnh3xryudvvsa,3ftop5warj13mchzlnvgfn6crp90j5,OMCyeGSg,2020-0188,2020-06-04,10:48:17,11:03:51,NA,incomplete,22,number,0,1,left,Blue_Star_Dots_2.jpg,Red_Plus_Stripes_2.jpg,Blue_Triangle_Chess_1.jpg,right,1028.1850001774728,false,high,false
OMCyeGSg,3ha5odm5ld5arw3bkcnh3xryudvvsa,3ftop5warj13mchzlnvgfn6crp90j5,OMCyeGSg,2020-0188,2020-06-04,10:48:17,11:03:51,NA,incomplete,23,number,0,1,right,Purple_Triangle_Stripes_1.jpg,Purple_Star_Chess_3.jpg,Green_Plus_Grid_1.jpg,left,604.9299999140203,false,high,false
OMCyeGSg,3ha5odm5ld5arw3bkcnh3xryudvvsa,3ftop5warj13mchzlnvgfn6crp90j5,OMCyeGSg,2020-0188,2020-06-04,10:48:17,11:03:51,NA,incomplete,24,number,0,1,left,Blue_Plus_Grid_1.jpg,Purple_Circle_Stripes_1.jpg,Blue_Triangle_Dots_4.jpg,right,884.0099999215454,false,high,false
OMCyeGSg,3ha5odm5ld5arw3bkcnh3xryudvvsa,3ftop5warj13mchzlnvgfn6crp90j5,OMCyeGSg,2020-0188,2020-06-04,10:48:17,11:03:51,NA,incomplete,25,number,0,0,right,Red_Star_Dots_3.jpg,Red_Plus_Chess_2.jpg,Green_Circle_Stripes_3.jpg,right,1269.6050000377,true,high,false
OMCyeGSg,3ha5odm5ld5arw3bkcnh3xryudvvsa,3ftop5warj13mchzlnvgfn6crp90j5,OMCyeGSg,2020-0188,2020-06-04,10:48:17,11:03:51,NA,incomplete,26,number,0,0,left,Purple_Star_Chess_3.jpg,Blue_Plus_Dots_3.jpg,Purple_Triangle_Stripes_4.jpg,left,1115.1950000785291,true,high,false
OMCyeGSg,3ha5odm5ld5arw3bkcnh3xryudvvsa,3ftop5warj13mchzlnvgfn6crp90j5,OMCyeGSg,2020-0188,2020-06-04,10:48:17,11:03:51,NA,incomplete,27,number,0,0,left,Blue_Plus_Chess_4.jpg,Purple_Triangle_Stripes_4.jpg,Blue_Circle_Dots_3.jpg,right,594.8650001082569,false,high,false
OMCyeGSg,3ha5odm5ld5arw3bkcnh3xryudvvsa,3ftop5warj13mchzlnvgfn6crp90j5,OMCyeGSg,2020-0188,2020-06-04,10:48:17,11:03:51,NA,incomplete,28,number,0,1,left,Green_Circle_Grid_4.jpg,Purple_Triangle_Dots_4.jpg,Green_Star_Chess_3.jpg,right,729.750000173226,false,high,false
OMCyeGSg,3ha5odm5ld5arw3bkcnh3xryudvvsa,3ftop5warj13mchzlnvgfn6crp90j5,OMCyeGSg,2020-0188,2020-06-04,10:48:17,11:03:51,NA,incomplete,29,number,0,1,left,Red_Star_Dots_3.jpg,Green_Circle_Grid_3.jpg,Red_Triangle_Chess_4.jpg,right,642.8149999119341,false,high,false
OMCyeGSg,3ha5odm5ld5arw3bkcnh3xryudvvsa,3ftop5warj13mchzlnvgfn6crp90j5,OMCyeGSg,2020-0188,2020-06-04,10:48:17,11:03:51,NA,incomplete,30,color,1,1,left,Red_Triangle_Dots_1.jpg,Red_Plus_Chess_4.jpg,Green_Star_Grid_1.jpg,left,753.484999993816,true,high,false
OMCyeGSg,3ha5odm5ld5arw3bkcnh3xryudvvsa,3ftop5warj13mchzlnvgfn6crp90j5,OMCyeGSg,2020-0188,2020-06-04,10:48:17,11:03:51,NA,incomplete,31,color,1,1,left,Purple_Plus_Dots_3.jpg,Purple_Circle_Stripes_2.jpg,Green_Star_Chess_3.jpg,left,662.7200001385063,true,high,false
OMCyeGSg,3ha5odm5ld5arw3bkcnh3xryudvvsa,3ftop5warj13mchzlnvgfn6crp90j5,OMCyeGSg,2020-0188,2020-06-04,10:48:17,11:03:51,NA,incomplete,32,color,1,1,left,Blue_Triangle_Stripes_2.jpg,Blue_Star_Dots_3.jpg,Green_Circle_Grid_2.jpg,left,556.0099999420345,true,high,false
OMCyeGSg,3ha5odm5ld5arw3bkcnh3xryudvvsa,3ftop5warj13mchzlnvgfn6crp90j5,OMCyeGSg,2020-0188,2020-06-04,10:48:17,11:03:51,NA,incomplete,33,color,1,1,left,Green_Plus_Dots_2.jpg,Green_Triangle_Chess_3.jpg,Blue_Star_Grid_2.jpg,left,546.6750001069158,true,high,false
OMCyeGSg,3ha5odm5ld5arw3bkcnh3xryudvvsa,3ftop5warj13mchzlnvgfn6crp90j5,OMCyeGSg,2020-0188,2020-06-04,10:48:17,11:03:51,NA,incomplete,34,color,1,1,left,Purple_Plus_Chess_2.jpg,Purple_Circle_Grid_4.jpg,Red_Star_Dots_2.jpg,left,470.6599998753518,true,high,false
OMCyeGSg,3ha5odm5ld5arw3bkcnh3xryudvvsa,3ftop5warj13mchzlnvgfn6crp90j5,OMCyeGSg,2020-0188,2020-06-04,10:48:17,11:03:51,NA,incomplete,35,color,1,1,left,Red_Triangle_Stripes_4.jpg,Red_Star_Dots_1.jpg,Green_Circle_Grid_4.jpg,left,512.4349999241531,true,high,false
OMCyeGSg,3ha5odm5ld5arw3bkcnh3xryudvvsa,3ftop5warj13mchzlnvgfn6crp90j5,OMCyeGSg,2020-0188,2020-06-04,10:48:17,11:03:51,NA,incomplete,36,color,1,1,right,Red_Plus_Grid_2.jpg,Green_Triangle_Stripes_2.jpg,Red_Star_Dots_1.jpg,right,499.2499998770654,true,high,false
OMCyeGSg,3ha5odm5ld5arw3bkcnh3xryudvvsa,3ftop5warj13mchzlnvgfn6crp90j5,OMCyeGSg,2020-0188,2020-06-04,10:48:17,11:03:51,NA,incomplete,37,color,1,0,left,Blue_Plus_Dots_4.jpg,Blue_Circle_Grid_1.jpg,Red_Triangle_Stripes_4.jpg,left,659.6250000875443,true,high,false
OMCyeGSg,3ha5odm5ld5arw3bkcnh3xryudvvsa,3ftop5warj13mchzlnvgfn6crp90j5,OMCyeGSg,2020-0188,2020-06-04,10:48:17,11:03:51,NA,incomplete,38,color,1,0,right,Red_Triangle_Stripes_2.jpg,Purple_Circle_Dots_2.jpg,Red_Star_Grid_3.jpg,right,451.60500006750226,true,high,false
OMCyeGSg,3ha5odm5ld5arw3bkcnh3xryudvvsa,3ftop5warj13mchzlnvgfn6crp90j5,OMCyeGSg,2020-0188,2020-06-04,10:48:17,11:03:51,NA,incomplete,39,color,1,1,left,Red_Triangle_Chess_4.jpg,Red_Plus_Grid_2.jpg,Purple_Circle_Stripes_4.jpg,right,798.8550001755357,false,high,false
OMCyeGSg,3ha5odm5ld5arw3bkcnh3xryudvvsa,3ftop5warj13mchzlnvgfn6crp90j5,OMCyeGSg,2020-0188,2020-06-04,10:48:17,11:03:51,NA,incomplete,40,number,0,0,left,Green_Circle_Stripes_2.jpg,Blue_Triangle_Grid_2.jpg,Green_Plus_Dots_3.jpg,right,532.2050000540912,false,high,false
OMCyeGSg,3ha5odm5ld5arw3bkcnh3xryudvvsa,3ftop5warj13mchzlnvgfn6crp90j5,OMCyeGSg,2020-0188,2020-06-04,10:48:17,11:03:51,NA,incomplete,41,number,0,1,right,Purple_Triangle_Grid_3.jpg,Purple_Star_Chess_1.jpg,Blue_Circle_Stripes_3.jpg,left,557.8700001351535,false,high,false
OMCyeGSg,3ha5odm5ld5arw3bkcnh3xryudvvsa,3ftop5warj13mchzlnvgfn6crp90j5,OMCyeGSg,2020-0188,2020-06-04,10:48:17,11:03:51,NA,incomplete,42,number,0,1,left,Green_Plus_Chess_1.jpg,Red_Star_Stripes_1.jpg,Green_Circle_Grid_3.jpg,right,540.4599998146296,false,high,false
OMCyeGSg,3ha5odm5ld5arw3bkcnh3xryudvvsa,3ftop5warj13mchzlnvgfn6crp90j5,OMCyeGSg,2020-0188,2020-06-04,10:48:17,11:03:51,NA,incomplete,43,number,0,0,left,Purple_Star_Grid_3.jpg,Red_Circle_Stripes_3.jpg,Purple_Triangle_Dots_1.jpg,right,769.0449999645352,false,high,false
OMCyeGSg,3ha5odm5ld5arw3bkcnh3xryudvvsa,3ftop5warj13mchzlnvgfn6crp90j5,OMCyeGSg,2020-0188,2020-06-04,10:48:17,11:03:51,NA,incomplete,44,number,0,1,left,Red_Circle_Grid_2.jpg,Blue_Plus_Dots_2.jpg,Red_Star_Stripes_4.jpg,right,667.0150000136346,false,high,false
OMCyeGSg,3ha5odm5ld5arw3bkcnh3xryudvvsa,3ftop5warj13mchzlnvgfn6crp90j5,OMCyeGSg,2020-0188,2020-06-04,10:48:17,11:03:51,NA,incomplete,45,number,0,1,right,Purple_Star_Dots_2.jpg,Purple_Plus_Grid_4.jpg,Blue_Circle_Chess_2.jpg,left,554.6949999406934,false,high,false
OMCyeGSg,3ha5odm5ld5arw3bkcnh3xryudvvsa,3ftop5warj13mchzlnvgfn6crp90j5,OMCyeGSg,2020-0188,2020-06-04,10:48:17,11:03:51,NA,incomplete,46,number,0,0,right,Red_Star_Chess_4.jpg,Red_Triangle_Dots_3.jpg,Purple_Circle_Grid_4.jpg,right,934.1150000691414,true,high,false
OMCyeGSg,3ha5odm5ld5arw3bkcnh3xryudvvsa,3ftop5warj13mchzlnvgfn6crp90j5,OMCyeGSg,2020-0188,2020-06-04,10:48:17,11:03:51,NA,incomplete,47,number,0,1,right,Blue_Star_Dots_1.jpg,Blue_Plus_Stripes_4.jpg,Purple_Triangle_Grid_1.jpg,right,607.5850001070648,true,high,false
OMCyeGSg,3ha5odm5ld5arw3bkcnh3xryudvvsa,3ftop5warj13mchzlnvgfn6crp90j5,OMCyeGSg,2020-0188,2020-06-04,10:48:17,11:03:51,NA,incomplete,48,number,0,1,right,Green_Triangle_Dots_1.jpg,Green_Star_Stripes_2.jpg,Blue_Circle_Grid_1.jpg,right,765.9549999516457,true,high,false
OMCyeGSg,3ha5odm5ld5arw3bkcnh3xryudvvsa,3ftop5warj13mchzlnvgfn6crp90j5,OMCyeGSg,2020-0188,2020-06-04,10:48:17,11:03:51,NA,incomplete,49,number,0,1,left,Purple_Circle_Stripes_4.jpg,Green_Star_Chess_4.jpg,Purple_Triangle_Dots_1.jpg,left,690.8400000538677,true,high,false
OMCyeGSg,3ha5odm5ld5arw3bkcnh3xryudvvsa,3ftop5warj13mchzlnvgfn6crp90j5,OMCyeGSg,2020-0188,2020-06-04,10:48:17,11:03:51,NA,incomplete,50,color,1,1,left,Blue_Plus_Grid_1.jpg,Blue_Circle_Stripes_4.jpg,Green_Star_Chess_1.jpg,right,702.3750001098961,false,high,false
OMCyeGSg,3ha5odm5ld5arw3bkcnh3xryudvvsa,3ftop5warj13mchzlnvgfn6crp90j5,OMCyeGSg,2020-0188,2020-06-04,10:48:17,11:03:51,NA,incomplete,51,color,1,1,left,Purple_Triangle_Chess_2.jpg,Purple_Plus_Stripes_3.jpg,Blue_Circle_Dots_2.jpg,right,650.8499998599291,false,high,false
OMCyeGSg,3ha5odm5ld5arw3bkcnh3xryudvvsa,3ftop5warj13mchzlnvgfn6crp90j5,OMCyeGSg,2020-0188,2020-06-04,10:48:17,11:03:51,NA,incomplete,52,color,1,1,left,Purple_Star_Dots_1.jpg,Purple_Triangle_Grid_3.jpg,Red_Circle_Stripes_1.jpg,right,867.1249998733401,false,high,false
OMCyeGSg,3ha5odm5ld5arw3bkcnh3xryudvvsa,3ftop5warj13mchzlnvgfn6crp90j5,OMCyeGSg,2020-0188,2020-06-04,10:48:17,11:03:51,NA,incomplete,53,color,1,1,left,Blue_Star_Stripes_3.jpg,Blue_Circle_Chess_4.jpg,Red_Triangle_Grid_3.jpg,left,755.0449999980628,true,high,false
OMCyeGSg,3ha5odm5ld5arw3bkcnh3xryudvvsa,3ftop5warj13mchzlnvgfn6crp90j5,OMCyeGSg,2020-0188,2020-06-04,10:48:17,11:03:51,NA,incomplete,54,color,1,1,left,Green_Circle_Grid_1.jpg,Green_Star_Dots_2.jpg,Blue_Triangle_Stripes_1.jpg,left,546.2899999693036,true,high,false
OMCyeGSg,3ha5odm5ld5arw3bkcnh3xryudvvsa,3ftop5warj13mchzlnvgfn6crp90j5,OMCyeGSg,2020-0188,2020-06-04,10:48:17,11:03:51,NA,incomplete,55,color,1,0,left,Purple_Star_Grid_1.jpg,Purple_Plus_Stripes_2.jpg,Green_Circle_Chess_1.jpg,left,653.7949999328703,true,high,false
OMCyeGSg,3ha5odm5ld5arw3bkcnh3xryudvvsa,3ftop5warj13mchzlnvgfn6crp90j5,OMCyeGSg,2020-0188,2020-06-04,10:48:17,11:03:51,NA,incomplete,56,color,1,1,left,Blue_Triangle_Chess_3.jpg,Blue_Plus_Dots_1.jpg,Purple_Circle_Grid_3.jpg,right,776.7900000326335,false,high,false
OMCyeGSg,3ha5odm5ld5arw3bkcnh3xryudvvsa,3ftop5warj13mchzlnvgfn6crp90j5,OMCyeGSg,2020-0188,2020-06-04,10:48:17,11:03:51,NA,incomplete,57,color,1,1,left,Blue_Triangle_Grid_4.jpg,Blue_Star_Dots_1.jpg,Green_Plus_Chess_4.jpg,left,1228.7449999712408,true,high,false
OMCyeGSg,3ha5odm5ld5arw3bkcnh3xryudvvsa,3ftop5warj13mchzlnvgfn6crp90j5,OMCyeGSg,2020-0188,2020-06-04,10:48:17,11:03:51,NA,incomplete,58,color,1,1,left,Green_Circle_Grid_3.jpg,Green_Plus_Chess_4.jpg,Purple_Triangle_Dots_3.jpg,right,1130.7850000448525,false,high,false
OMCyeGSg,3ha5odm5ld5arw3bkcnh3xryudvvsa,3ftop5warj13mchzlnvgfn6crp90j5,OMCyeGSg,2020-0188,2020-06-04,10:48:17,11:03:51,NA,incomplete,59,color,1,0,right,Red_Star_Stripes_3.jpg,Green_Triangle_Grid_3.jpg,Red_Plus_Chess_2.jpg,right,685.1749999914318,true,high,false
OMCyeGSg,3ha5odm5ld5arw3bkcnh3xryudvvsa,3ftop5warj13mchzlnvgfn6crp90j5,OMCyeGSg,2020-0188,2020-06-04,10:48:17,11:03:51,NA,incomplete,60,number,0,1,left,Purple_Star_Stripes_4.jpg,Green_Circle_Chess_4.jpg,Purple_Plus_Grid_3.jpg,left,876.7750000115484,true,high,false
OMCyeGSg,3ha5odm5ld5arw3bkcnh3xryudvvsa,3ftop5warj13mchzlnvgfn6crp90j5,OMCyeGSg,2020-0188,2020-06-04,10:48:17,11:03:51,NA,incomplete,61,number,0,1,left,Blue_Circle_Dots_3.jpg,Red_Triangle_Grid_3.jpg,Blue_Plus_Chess_1.jpg,left,634.8200000356883,true,high,false
OMCyeGSg,3ha5odm5ld5arw3bkcnh3xryudvvsa,3ftop5warj13mchzlnvgfn6crp90j5,OMCyeGSg,2020-0188,2020-06-04,10:48:17,11:03:51,NA,incomplete,62,number,0,1,left,Purple_Star_Dots_2.jpg,Blue_Triangle_Chess_2.jpg,Purple_Plus_Stripes_3.jpg,left,624.3050000630319,true,high,false
OMCyeGSg,3ha5odm5ld5arw3bkcnh3xryudvvsa,3ftop5warj13mchzlnvgfn6crp90j5,OMCyeGSg,2020-0188,2020-06-04,10:48:17,11:03:51,NA,incomplete,63,number,0,1,left,Green_Triangle_Stripes_4.jpg,Blue_Plus_Dots_4.jpg,Green_Star_Grid_1.jpg,left,613.965000025928,true,high,false
OMCyeGSg,3ha5odm5ld5arw3bkcnh3xryudvvsa,3ftop5warj13mchzlnvgfn6crp90j5,OMCyeGSg,2020-0188,2020-06-04,10:48:17,11:03:51,NA,incomplete,64,number,0,1,left,Blue_Plus_Stripes_4.jpg,Red_Triangle_Chess_4.jpg,Blue_Star_Dots_1.jpg,left,615.9900000784546,true,high,false
OMCyeGSg,3ha5odm5ld5arw3bkcnh3xryudvvsa,3ftop5warj13mchzlnvgfn6crp90j5,OMCyeGSg,2020-0188,2020-06-04,10:48:17,11:03:51,NA,incomplete,65,number,0,1,left,Blue_Circle_Dots_4.jpg,Purple_Triangle_Chess_4.jpg,Blue_Star_Grid_3.jpg,left,640.9599999897182,true,high,false
OMCyeGSg,3ha5odm5ld5arw3bkcnh3xryudvvsa,3ftop5warj13mchzlnvgfn6crp90j5,OMCyeGSg,2020-0188,2020-06-04,10:48:17,11:03:51,NA,incomplete,66,number,0,1,right,Green_Triangle_Chess_1.jpg,Green_Circle_Grid_2.jpg,Purple_Plus_Stripes_1.jpg,right,656.1600000131875,true,high,false
OMCyeGSg,3ha5odm5ld5arw3bkcnh3xryudvvsa,3ftop5warj13mchzlnvgfn6crp90j5,OMCyeGSg,2020-0188,2020-06-04,10:48:17,11:03:51,NA,incomplete,67,number,0,1,right,Red_Circle_Chess_1.jpg,Red_Triangle_Grid_4.jpg,Green_Plus_Stripes_1.jpg,right,669.4549999665469,true,high,false
OMCyeGSg,3ha5odm5ld5arw3bkcnh3xryudvvsa,3ftop5warj13mchzlnvgfn6crp90j5,OMCyeGSg,2020-0188,2020-06-04,10:48:17,11:03:51,NA,incomplete,68,number,0,1,left,Purple_Star_Grid_4.jpg,Red_Plus_Dots_4.jpg,Purple_Circle_Stripes_1.jpg,left,602.6900000870228,true,high,false
OMCyeGSg,3ha5odm5ld5arw3bkcnh3xryudvvsa,3ftop5warj13mchzlnvgfn6crp90j5,OMCyeGSg,2020-0188,2020-06-04,10:48:17,11:03:51,NA,incomplete,69,number,0,1,left,Purple_Triangle_Stripes_4.jpg,Red_Circle_Grid_4.jpg,Purple_Plus_Dots_2.jpg,left,588.5250000283122,true,high,false
OMCyeGSg,3ha5odm5ld5arw3bkcnh3xryudvvsa,3ftop5warj13mchzlnvgfn6crp90j5,OMCyeGSg,2020-0188,2020-06-04,10:48:17,11:03:51,NA,incomplete,70,color,1,1,right,Blue_Triangle_Chess_3.jpg,Purple_Plus_Dots_3.jpg,Blue_Star_Stripes_2.jpg,left,730.0849999301136,false,high,false
OMCyeGSg,3ha5odm5ld5arw3bkcnh3xryudvvsa,3ftop5warj13mchzlnvgfn6crp90j5,OMCyeGSg,2020-0188,2020-06-04,10:48:17,11:03:51,NA,incomplete,71,color,1,1,right,Red_Circle_Stripes_1.jpg,Green_Plus_Grid_1.jpg,Red_Star_Dots_3.jpg,left,736.53499991633,false,high,false
OMCyeGSg,3ha5odm5ld5arw3bkcnh3xryudvvsa,3ftop5warj13mchzlnvgfn6crp90j5,OMCyeGSg,2020-0188,2020-06-04,10:48:17,11:03:51,NA,incomplete,72,color,1,1,left,Blue_Plus_Grid_1.jpg,Blue_Star_Chess_3.jpg,Red_Circle_Stripes_1.jpg,right,739.5949999336153,false,high,false
OMCyeGSg,3ha5odm5ld5arw3bkcnh3xryudvvsa,3ftop5warj13mchzlnvgfn6crp90j5,OMCyeGSg,2020-0188,2020-06-04,10:48:17,11:03:51,NA,incomplete,73,color,1,1,right,Green_Circle_Stripes_4.jpg,Red_Star_Grid_4.jpg,Green_Triangle_Chess_2.jpg,right,714.8500001057982,true,high,false
OMCyeGSg,3ha5odm5ld5arw3bkcnh3xryudvvsa,3ftop5warj13mchzlnvgfn6crp90j5,OMCyeGSg,2020-0188,2020-06-04,10:48:17,11:03:51,NA,incomplete,74,color,1,1,right,Purple_Circle_Stripes_2.jpg,Blue_Star_Chess_2.jpg,Purple_Plus_Grid_4.jpg,right,617.4399999435991,true,high,false
OMCyeGSg,3ha5odm5ld5arw3bkcnh3xryudvvsa,3ftop5warj13mchzlnvgfn6crp90j5,OMCyeGSg,2020-0188,2020-06-04,10:48:17,11:03:51,NA,incomplete,75,color,1,0,right,Green_Star_Stripes_3.jpg,Red_Plus_Dots_3.jpg,Green_Triangle_Grid_4.jpg,right,572.3149999976158,true,high,false
OMCyeGSg,3ha5odm5ld5arw3bkcnh3xryudvvsa,3ftop5warj13mchzlnvgfn6crp90j5,OMCyeGSg,2020-0188,2020-06-04,10:48:17,11:03:51,NA,incomplete,76,color,1,0,left,Blue_Circle_Chess_2.jpg,Blue_Triangle_Grid_1.jpg,Red_Star_Dots_2.jpg,left,518.5300000011921,true,high,false
OMCyeGSg,3ha5odm5ld5arw3bkcnh3xryudvvsa,3ftop5warj13mchzlnvgfn6crp90j5,OMCyeGSg,2020-0188,2020-06-04,10:48:17,11:03:51,NA,incomplete,77,color,1,0,left,Purple_Star_Chess_2.jpg,Purple_Plus_Dots_1.jpg,Green_Triangle_Grid_2.jpg,left,655.9299998916686,true,high,false
OMCyeGSg,3ha5odm5ld5arw3bkcnh3xryudvvsa,3ftop5warj13mchzlnvgfn6crp90j5,OMCyeGSg,2020-0188,2020-06-04,10:48:17,11:03:51,NA,incomplete,78,color,1,1,left,Blue_Circle_Chess_2.jpg,Blue_Plus_Dots_4.jpg,Purple_Triangle_Grid_2.jpg,right,693.4800001326948,false,high,false
OMCyeGSg,3ha5odm5ld5arw3bkcnh3xryudvvsa,3ftop5warj13mchzlnvgfn6crp90j5,OMCyeGSg,2020-0188,2020-06-04,10:48:17,11:03:51,NA,incomplete,79,color,1,1,left,Blue_Plus_Grid_1.jpg,Blue_Triangle_Chess_3.jpg,Green_Star_Dots_1.jpg,right,1231.3049999065697,false,high,false
OMCyeGSg,3ha5odm5ld5arw3bkcnh3xryudvvsa,3ftop5warj13mchzlnvgfn6crp90j5,OMCyeGSg,2020-0188,2020-06-04,10:48:17,11:03:51,NA,incomplete,80,number,0,1,right,Purple_Triangle_Chess_4.jpg,Purple_Star_Grid_2.jpg,Green_Plus_Dots_4.jpg,left,1018.8250001519918,false,high,false
OMCyeGSg,3ha5odm5ld5arw3bkcnh3xryudvvsa,3ftop5warj13mchzlnvgfn6crp90j5,OMCyeGSg,2020-0188,2020-06-04,10:48:17,11:03:51,NA,incomplete,81,number,0,1,right,Red_Circle_Stripes_3.jpg,Red_Star_Chess_1.jpg,Blue_Plus_Dots_3.jpg,left,1022.0500000286847,false,high,false
OMCyeGSg,3ha5odm5ld5arw3bkcnh3xryudvvsa,3ftop5warj13mchzlnvgfn6crp90j5,OMCyeGSg,2020-0188,2020-06-04,10:48:17,11:03:51,NA,incomplete,82,number,0,1,right,Red_Circle_Grid_3.jpg,Red_Triangle_Chess_1.jpg,Blue_Plus_Dots_3.jpg,right,678.4099999349564,true,high,false
OMCyeGSg,3ha5odm5ld5arw3bkcnh3xryudvvsa,3ftop5warj13mchzlnvgfn6crp90j5,OMCyeGSg,2020-0188,2020-06-04,10:48:17,11:03:51,NA,incomplete,83,number,0,1,left,Blue_Circle_Stripes_4.jpg,Purple_Star_Grid_4.jpg,Blue_Triangle_Dots_2.jpg,left,990.9000000916421,true,high,false
OMCyeGSg,3ha5odm5ld5arw3bkcnh3xryudvvsa,3ftop5warj13mchzlnvgfn6crp90j5,OMCyeGSg,2020-0188,2020-06-04,10:48:17,11:03:51,NA,incomplete,84,number,0,1,right,Blue_Plus_Chess_1.jpg,Blue_Triangle_Stripes_2.jpg,Red_Star_Grid_1.jpg,right,1290.9200000576675,true,high,false
OMCyeGSg,3ha5odm5ld5arw3bkcnh3xryudvvsa,3ftop5warj13mchzlnvgfn6crp90j5,OMCyeGSg,2020-0188,2020-06-04,10:48:17,11:03:51,NA,incomplete,85,number,0,1,right,Purple_Plus_Stripes_4.jpg,Purple_Circle_Dots_3.jpg,Blue_Star_Chess_4.jpg,right,698.4049999155104,true,high,false
OMCyeGSg,3ha5odm5ld5arw3bkcnh3xryudvvsa,3ftop5warj13mchzlnvgfn6crp90j5,OMCyeGSg,2020-0188,2020-06-04,10:48:17,11:03:51,NA,incomplete,86,number,0,1,left,Purple_Plus_Grid_1.jpg,Blue_Triangle_Dots_1.jpg,Purple_Circle_Chess_2.jpg,left,780.9750000014901,true,high,false
OMCyeGSg,3ha5odm5ld5arw3bkcnh3xryudvvsa,3ftop5warj13mchzlnvgfn6crp90j5,OMCyeGSg,2020-0188,2020-06-04,10:48:17,11:03:51,NA,incomplete,87,number,0,1,left,Red_Star_Chess_1.jpg,Purple_Circle_Stripes_1.jpg,Red_Triangle_Grid_4.jpg,left,682.3650000151247,true,high,false
OMCyeGSg,3ha5odm5ld5arw3bkcnh3xryudvvsa,3ftop5warj13mchzlnvgfn6crp90j5,OMCyeGSg,2020-0188,2020-06-04,10:48:17,11:03:51,NA,incomplete,88,number,0,1,left,Purple_Plus_Dots_3.jpg,Red_Circle_Grid_3.jpg,Purple_Triangle_Chess_1.jpg,left,669.5950001012534,true,high,false
OMCyeGSg,3ha5odm5ld5arw3bkcnh3xryudvvsa,3ftop5warj13mchzlnvgfn6crp90j5,OMCyeGSg,2020-0188,2020-06-04,10:48:17,11:03:51,NA,incomplete,89,number,0,0,left,Blue_Star_Stripes_3.jpg,Red_Plus_Chess_3.jpg,Blue_Circle_Dots_1.jpg,left,658.2150000613183,true,high,false
OMCyeGSg,3ha5odm5ld5arw3bkcnh3xryudvvsa,3ftop5warj13mchzlnvgfn6crp90j5,OMCyeGSg,2020-0188,2020-06-04,10:48:17,11:03:51,NA,incomplete,90,color,1,1,left,Blue_Triangle_Grid_1.jpg,Blue_Star_Dots_4.jpg,Green_Plus_Stripes_1.jpg,right,768.8199998810887,false,high,false
OMCyeGSg,3ha5odm5ld5arw3bkcnh3xryudvvsa,3ftop5warj13mchzlnvgfn6crp90j5,OMCyeGSg,2020-0188,2020-06-04,10:48:17,11:03:51,NA,incomplete,91,color,1,1,left,Purple_Star_Stripes_3.jpg,Purple_Triangle_Grid_2.jpg,Blue_Plus_Chess_3.jpg,left,621.6700000222772,true,high,false
OMCyeGSg,3ha5odm5ld5arw3bkcnh3xryudvvsa,3ftop5warj13mchzlnvgfn6crp90j5,OMCyeGSg,2020-0188,2020-06-04,10:48:17,11:03:51,NA,incomplete,92,color,1,1,right,Blue_Plus_Dots_4.jpg,Purple_Star_Chess_4.jpg,Blue_Circle_Stripes_2.jpg,right,577.2750000469387,true,high,false
OMCyeGSg,3ha5odm5ld5arw3bkcnh3xryudvvsa,3ftop5warj13mchzlnvgfn6crp90j5,OMCyeGSg,2020-0188,2020-06-04,10:48:17,11:03:51,NA,incomplete,93,color,1,1,right,Green_Star_Dots_2.jpg,Blue_Circle_Grid_2.jpg,Green_Plus_Chess_3.jpg,right,485.67500011995435,true,high,false
OMCyeGSg,3ha5odm5ld5arw3bkcnh3xryudvvsa,3ftop5warj13mchzlnvgfn6crp90j5,OMCyeGSg,2020-0188,2020-06-04,10:48:17,11:03:51,NA,incomplete,94,color,1,1,right,Red_Star_Dots_1.jpg,Green_Circle_Stripes_1.jpg,Red_Plus_Grid_3.jpg,right,552.7800000272691,true,high,false
OMCyeGSg,3ha5odm5ld5arw3bkcnh3xryudvvsa,3ftop5warj13mchzlnvgfn6crp90j5,OMCyeGSg,2020-0188,2020-06-04,10:48:17,11:03:51,NA,incomplete,95,color,1,1,right,Blue_Plus_Stripes_1.jpg,Red_Star_Dots_1.jpg,Blue_Triangle_Chess_3.jpg,right,580.0299998372793,true,high,false
OMCyeGSg,3ha5odm5ld5arw3bkcnh3xryudvvsa,3ftop5warj13mchzlnvgfn6crp90j5,OMCyeGSg,2020-0188,2020-06-04,10:48:17,11:03:51,NA,incomplete,96,color,1,1,right,Blue_Triangle_Grid_3.jpg,Purple_Circle_Dots_3.jpg,Blue_Star_Stripes_2.jpg,right,580.3349998313934,true,high,false
OMCyeGSg,3ha5odm5ld5arw3bkcnh3xryudvvsa,3ftop5warj13mchzlnvgfn6crp90j5,OMCyeGSg,2020-0188,2020-06-04,10:48:17,11:03:51,NA,incomplete,97,color,1,0,right,Red_Triangle_Dots_4.jpg,Blue_Circle_Chess_4.jpg,Red_Star_Grid_1.jpg,right,521.7100000008941,true,high,false
OMCyeGSg,3ha5odm5ld5arw3bkcnh3xryudvvsa,3ftop5warj13mchzlnvgfn6crp90j5,OMCyeGSg,2020-0188,2020-06-04,10:48:17,11:03:51,NA,incomplete,98,color,1,1,right,Purple_Triangle_Dots_3.jpg,Green_Star_Chess_3.jpg,Purple_Circle_Grid_2.jpg,right,593.7149999663234,true,high,false
OMCyeGSg,3ha5odm5ld5arw3bkcnh3xryudvvsa,3ftop5warj13mchzlnvgfn6crp90j5,OMCyeGSg,2020-0188,2020-06-04,10:48:17,11:03:51,NA,incomplete,99,color,1,0,right,Blue_Star_Stripes_1.jpg,Green_Circle_Dots_1.jpg,Blue_Triangle_Chess_3.jpg,right,578.7700000219047,true,high,false
OMCyeGSg,3ha5odm5ld5arw3bkcnh3xryudvvsa,3ftop5warj13mchzlnvgfn6crp90j5,OMCyeGSg,2020-0188,2020-06-04,10:48:17,11:03:51,NA,incomplete,100,number,0,1,right,Red_Circle_Grid_2.jpg,Red_Triangle_Chess_3.jpg,Blue_Plus_Stripes_2.jpg,left,618.7199999112636,false,high,false
OMCyeGSg,3ha5odm5ld5arw3bkcnh3xryudvvsa,3ftop5warj13mchzlnvgfn6crp90j5,OMCyeGSg,2020-0188,2020-06-04,10:48:17,11:03:51,NA,incomplete,101,number,0,1,right,Red_Triangle_Grid_2.jpg,Red_Plus_Chess_3.jpg,Purple_Star_Stripes_2.jpg,right,662.1449999511242,true,high,false
OMCyeGSg,3ha5odm5ld5arw3bkcnh3xryudvvsa,3ftop5warj13mchzlnvgfn6crp90j5,OMCyeGSg,2020-0188,2020-06-04,10:48:17,11:03:51,NA,incomplete,102,number,0,1,left,Blue_Circle_Grid_4.jpg,Green_Plus_Stripes_4.jpg,Blue_Triangle_Chess_1.jpg,left,1011.3299998920411,true,high,false
OMCyeGSg,3ha5odm5ld5arw3bkcnh3xryudvvsa,3ftop5warj13mchzlnvgfn6crp90j5,OMCyeGSg,2020-0188,2020-06-04,10:48:17,11:03:51,NA,incomplete,103,number,0,1,left,Green_Star_Grid_3.jpg,Purple_Plus_Dots_3.jpg,Green_Triangle_Stripes_4.jpg,left,1087.5049999449402,true,high,false
OMCyeGSg,3ha5odm5ld5arw3bkcnh3xryudvvsa,3ftop5warj13mchzlnvgfn6crp90j5,OMCyeGSg,2020-0188,2020-06-04,10:48:17,11:03:51,NA,incomplete,104,number,0,1,right,Red_Plus_Dots_3.jpg,Red_Circle_Stripes_2.jpg,Green_Star_Chess_3.jpg,right,759.7199999727309,true,high,false
OMCyeGSg,3ha5odm5ld5arw3bkcnh3xryudvvsa,3ftop5warj13mchzlnvgfn6crp90j5,OMCyeGSg,2020-0188,2020-06-04,10:48:17,11:03:51,NA,incomplete,105,number,0,1,left,Red_Circle_Grid_3.jpg,Blue_Triangle_Chess_3.jpg,Red_Star_Dots_4.jpg,left,778.3749999944121,true,high,false
OMCyeGSg,3ha5odm5ld5arw3bkcnh3xryudvvsa,3ftop5warj13mchzlnvgfn6crp90j5,OMCyeGSg,2020-0188,2020-06-04,10:48:17,11:03:51,NA,incomplete,106,number,0,1,right,Purple_Plus_Chess_1.jpg,Purple_Circle_Dots_4.jpg,Red_Star_Grid_1.jpg,right,641.1150000058115,true,high,false
OMCyeGSg,3ha5odm5ld5arw3bkcnh3xryudvvsa,3ftop5warj13mchzlnvgfn6crp90j5,OMCyeGSg,2020-0188,2020-06-04,10:48:17,11:03:51,NA,incomplete,107,number,0,1,right,Red_Star_Stripes_1.jpg,Red_Plus_Grid_3.jpg,Purple_Circle_Dots_1.jpg,right,504.11500013433397,true,high,false
OMCyeGSg,3ha5odm5ld5arw3bkcnh3xryudvvsa,3ftop5warj13mchzlnvgfn6crp90j5,OMCyeGSg,2020-0188,2020-06-04,10:48:17,11:03:51,NA,incomplete,108,number,0,1,left,Purple_Plus_Stripes_1.jpg,Blue_Circle_Chess_1.jpg,Purple_Star_Dots_2.jpg,left,944.4250001106411,true,high,false
OMCyeGSg,3ha5odm5ld5arw3bkcnh3xryudvvsa,3ftop5warj13mchzlnvgfn6crp90j5,OMCyeGSg,2020-0188,2020-06-04,10:48:17,11:03:51,NA,incomplete,109,number,0,1,right,Blue_Plus_Grid_1.jpg,Blue_Star_Stripes_3.jpg,Green_Triangle_Dots_1.jpg,right,1003.9250000845641,true,high,false
OMCyeGSg,3ha5odm5ld5arw3bkcnh3xryudvvsa,3ftop5warj13mchzlnvgfn6crp90j5,OMCyeGSg,2020-0188,2020-06-04,10:48:17,11:03:51,NA,incomplete,110,color,1,1,left,Purple_Star_Chess_2.jpg,Purple_Plus_Stripes_4.jpg,Blue_Triangle_Grid_2.jpg,right,631.1900001019239,false,high,false
OMCyeGSg,3ha5odm5ld5arw3bkcnh3xryudvvsa,3ftop5warj13mchzlnvgfn6crp90j5,OMCyeGSg,2020-0188,2020-06-04,10:48:17,11:03:51,NA,incomplete,111,color,1,1,right,Blue_Plus_Stripes_3.jpg,Red_Circle_Grid_3.jpg,Blue_Star_Dots_2.jpg,right,507.55999982357025,true,high,false
OMCyeGSg,3ha5odm5ld5arw3bkcnh3xryudvvsa,3ftop5warj13mchzlnvgfn6crp90j5,OMCyeGSg,2020-0188,2020-06-04,10:48:17,11:03:51,NA,incomplete,112,color,1,1,left,Red_Triangle_Dots_4.jpg,Red_Plus_Stripes_1.jpg,Purple_Circle_Grid_4.jpg,left,553.7800001911819,true,high,false
OMCyeGSg,3ha5odm5ld5arw3bkcnh3xryudvvsa,3ftop5warj13mchzlnvgfn6crp90j5,OMCyeGSg,2020-0188,2020-06-04,10:48:17,11:03:51,NA,incomplete,113,color,1,1,left,Red_Plus_Chess_2.jpg,Red_Circle_Dots_3.jpg,Green_Triangle_Stripes_2.jpg,left,583.454999839887,true,high,false
OMCyeGSg,3ha5odm5ld5arw3bkcnh3xryudvvsa,3ftop5warj13mchzlnvgfn6crp90j5,OMCyeGSg,2020-0188,2020-06-04,10:48:17,11:03:51,NA,incomplete,114,color,1,1,right,Red_Star_Stripes_3.jpg,Purple_Circle_Chess_3.jpg,Red_Plus_Dots_2.jpg,right,505.1750000566244,true,high,false
OMCyeGSg,3ha5odm5ld5arw3bkcnh3xryudvvsa,3ftop5warj13mchzlnvgfn6crp90j5,OMCyeGSg,2020-0188,2020-06-04,10:48:17,11:03:51,NA,incomplete,115,color,1,0,left,Red_Plus_Dots_3.jpg,Red_Triangle_Grid_1.jpg,Blue_Star_Stripes_3.jpg,left,600.7050001062453,true,high,false
OMCyeGSg,3ha5odm5ld5arw3bkcnh3xryudvvsa,3ftop5warj13mchzlnvgfn6crp90j5,OMCyeGSg,2020-0188,2020-06-04,10:48:17,11:03:51,NA,incomplete,116,color,1,1,left,Red_Plus_Stripes_1.jpg,Red_Star_Grid_3.jpg,Purple_Circle_Chess_1.jpg,right,710.97999997437,false,high,false
OMCyeGSg,3ha5odm5ld5arw3bkcnh3xryudvvsa,3ftop5warj13mchzlnvgfn6crp90j5,OMCyeGSg,2020-0188,2020-06-04,10:48:17,11:03:51,NA,incomplete,117,color,1,1,right,Purple_Star_Stripes_4.jpg,Blue_Circle_Grid_4.jpg,Purple_Triangle_Dots_1.jpg,right,1271.984999999404,true,high,false
OMCyeGSg,3ha5odm5ld5arw3bkcnh3xryudvvsa,3ftop5warj13mchzlnvgfn6crp90j5,OMCyeGSg,2020-0188,2020-06-04,10:48:17,11:03:51,NA,incomplete,118,color,1,1,right,Green_Circle_Chess_1.jpg,Blue_Plus_Dots_1.jpg,Green_Star_Stripes_4.jpg,right,525.9400000795722,true,high,false
OMCyeGSg,3ha5odm5ld5arw3bkcnh3xryudvvsa,3ftop5warj13mchzlnvgfn6crp90j5,OMCyeGSg,2020-0188,2020-06-04,10:48:17,11:03:51,NA,incomplete,119,color,1,1,right,Green_Plus_Grid_2.jpg,Purple_Triangle_Stripes_2.jpg,Green_Star_Dots_4.jpg,right,456.0799999162555,true,high,false
OMCyeGSg,3ha5odm5ld5arw3bkcnh3xryudvvsa,3ftop5warj13mchzlnvgfn6crp90j5,OMCyeGSg,2020-0188,2020-06-04,10:48:17,11:03:51,NA,incomplete,120,gender,2,1,left,A_F_09.jpg,C_F_13.jpg,A_M_04.jpg,NA,NA,NA,high,false
OMCyeGSg,3ha5odm5ld5arw3bkcnh3xryudvvsa,3ftop5warj13mchzlnvgfn6crp90j5,OMCyeGSg,2020-0188,2020-06-04,10:48:17,11:03:51,NA,incomplete,121,gender,2,1,right,A_F_08.jpg,A_M_11.jpg,C_F_13.jpg,right,1263.7699998449534,true,high,false
OMCyeGSg,3ha5odm5ld5arw3bkcnh3xryudvvsa,3ftop5warj13mchzlnvgfn6crp90j5,OMCyeGSg,2020-0188,2020-06-04,10:48:17,11:03:51,NA,incomplete,122,gender,2,1,right,C_M_12.jpg,C_F_04.jpg,A_M_07.jpg,right,913.3900001179427,true,high,false
OMCyeGSg,3ha5odm5ld5arw3bkcnh3xryudvvsa,3ftop5warj13mchzlnvgfn6crp90j5,OMCyeGSg,2020-0188,2020-06-04,10:48:17,11:03:51,NA,incomplete,123,gender,2,0,left,C_F_03.jpg,A_F_15.jpg,C_M_11.jpg,left,674.6149999089539,true,high,false
OMCyeGSg,3ha5odm5ld5arw3bkcnh3xryudvvsa,3ftop5warj13mchzlnvgfn6crp90j5,OMCyeGSg,2020-0188,2020-06-04,10:48:17,11:03:51,NA,incomplete,124,gender,2,1,left,A_F_04.jpg,C_F_09.jpg,A_M_01.jpg,left,826.1200000997633,true,high,false
OMCyeGSg,3ha5odm5ld5arw3bkcnh3xryudvvsa,3ftop5warj13mchzlnvgfn6crp90j5,OMCyeGSg,2020-0188,2020-06-04,10:48:17,11:03:51,NA,incomplete,125,gender,2,1,left,C_M_16.jpg,A_M_02.jpg,C_F_06.jpg,left,810.1600001100451,true,high,false
OMCyeGSg,3ha5odm5ld5arw3bkcnh3xryudvvsa,3ftop5warj13mchzlnvgfn6crp90j5,OMCyeGSg,2020-0188,2020-06-04,10:48:17,11:03:51,NA,incomplete,126,gender,2,1,right,C_F_06.jpg,C_M_07.jpg,A_F_13.jpg,right,931.2399998307228,true,high,false
OMCyeGSg,3ha5odm5ld5arw3bkcnh3xryudvvsa,3ftop5warj13mchzlnvgfn6crp90j5,OMCyeGSg,2020-0188,2020-06-04,10:48:17,11:03:51,NA,incomplete,127,gender,2,1,right,C_F_04.jpg,C_M_16.jpg,A_F_06.jpg,right,870.9400000516325,true,high,false
OMCyeGSg,3ha5odm5ld5arw3bkcnh3xryudvvsa,3ftop5warj13mchzlnvgfn6crp90j5,OMCyeGSg,2020-0188,2020-06-04,10:48:17,11:03:51,NA,incomplete,128,gender,2,1,right,C_F_16.jpg,C_M_12.jpg,A_F_08.jpg,left,816.2350000347942,false,high,false
OMCyeGSg,3ha5odm5ld5arw3bkcnh3xryudvvsa,3ftop5warj13mchzlnvgfn6crp90j5,OMCyeGSg,2020-0188,2020-06-04,10:48:17,11:03:51,NA,incomplete,129,gender,2,1,left,C_M_03.jpg,A_M_11.jpg,C_F_14.jpg,left,825.040000025183,true,high,false
OMCyeGSg,3ha5odm5ld5arw3bkcnh3xryudvvsa,3ftop5warj13mchzlnvgfn6crp90j5,OMCyeGSg,2020-0188,2020-06-04,10:48:17,11:03:51,NA,incomplete,130,gender,2,1,left,A_M_01.jpg,C_M_12.jpg,A_F_10.jpg,left,920.4699997790158,true,high,false
OMCyeGSg,3ha5odm5ld5arw3bkcnh3xryudvvsa,3ftop5warj13mchzlnvgfn6crp90j5,OMCyeGSg,2020-0188,2020-06-04,10:48:17,11:03:51,NA,incomplete,131,gender,2,0,left,C_M_08.jpg,A_M_10.jpg,C_F_16.jpg,left,1066.774999955669,true,high,false
OMCyeGSg,3ha5odm5ld5arw3bkcnh3xryudvvsa,3ftop5warj13mchzlnvgfn6crp90j5,OMCyeGSg,2020-0188,2020-06-04,10:48:17,11:03:51,NA,incomplete,132,gender,2,1,right,C_F_15.jpg,C_M_11.jpg,A_F_02.jpg,right,779.1300001554191,true,high,false
OMCyeGSg,3ha5odm5ld5arw3bkcnh3xryudvvsa,3ftop5warj13mchzlnvgfn6crp90j5,OMCyeGSg,2020-0188,2020-06-04,10:48:17,11:03:51,NA,incomplete,133,gender,2,1,left,C_M_04.jpg,A_M_07.jpg,C_F_12.jpg,left,667.115000076592,true,high,false
OMCyeGSg,3ha5odm5ld5arw3bkcnh3xryudvvsa,3ftop5warj13mchzlnvgfn6crp90j5,OMCyeGSg,2020-0188,2020-06-04,10:48:17,11:03:51,NA,incomplete,134,gender,2,1,left,C_M_01.jpg,A_M_08.jpg,C_F_10.jpg,left,921.7950000893325,true,high,false
OMCyeGSg,3ha5odm5ld5arw3bkcnh3xryudvvsa,3ftop5warj13mchzlnvgfn6crp90j5,OMCyeGSg,2020-0188,2020-06-04,10:48:17,11:03:51,NA,incomplete,135,gender,2,1,left,A_F_07.jpg,C_F_03.jpg,A_M_04.jpg,left,928.4099999349564,true,high,false
OMCyeGSg,3ha5odm5ld5arw3bkcnh3xryudvvsa,3ftop5warj13mchzlnvgfn6crp90j5,OMCyeGSg,2020-0188,2020-06-04,10:48:17,11:03:51,NA,incomplete,136,gender,2,0,right,C_M_06.jpg,C_F_09.jpg,A_M_03.jpg,right,801.2250000610948,true,high,false
OMCyeGSg,3ha5odm5ld5arw3bkcnh3xryudvvsa,3ftop5warj13mchzlnvgfn6crp90j5,OMCyeGSg,2020-0188,2020-06-04,10:48:17,11:03:51,NA,incomplete,137,gender,2,1,left,A_F_09.jpg,C_F_15.jpg,A_M_07.jpg,right,1190.4750000685453,false,high,false
OMCyeGSg,3ha5odm5ld5arw3bkcnh3xryudvvsa,3ftop5warj13mchzlnvgfn6crp90j5,OMCyeGSg,2020-0188,2020-06-04,10:48:17,11:03:51,NA,incomplete,138,gender,2,0,right,A_M_01.jpg,A_F_05.jpg,C_M_06.jpg,right,1005.7650001253933,true,high,false
OMCyeGSg,3ha5odm5ld5arw3bkcnh3xryudvvsa,3ftop5warj13mchzlnvgfn6crp90j5,OMCyeGSg,2020-0188,2020-06-04,10:48:17,11:03:51,NA,incomplete,139,gender,2,1,right,C_M_02.jpg,C_F_09.jpg,A_M_16.jpg,left,1393.4800000861287,false,high,false
OMCyeGSg,3ha5odm5ld5arw3bkcnh3xryudvvsa,3ftop5warj13mchzlnvgfn6crp90j5,OMCyeGSg,2020-0188,2020-06-04,10:48:17,11:03:51,NA,incomplete,140,race,3,1,right,A_M_02.jpg,C_M_03.jpg,A_F_07.jpg,right,1139.7149998228997,true,high,false
OMCyeGSg,3ha5odm5ld5arw3bkcnh3xryudvvsa,3ftop5warj13mchzlnvgfn6crp90j5,OMCyeGSg,2020-0188,2020-06-04,10:48:17,11:03:51,NA,incomplete,141,race,3,0,right,C_M_14.jpg,A_M_10.jpg,C_F_01.jpg,right,1018.0750000290573,true,high,false
OMCyeGSg,3ha5odm5ld5arw3bkcnh3xryudvvsa,3ftop5warj13mchzlnvgfn6crp90j5,OMCyeGSg,2020-0188,2020-06-04,10:48:17,11:03:51,NA,incomplete,142,race,3,1,right,A_M_16.jpg,C_M_13.jpg,A_F_09.jpg,left,1151.185000082478,false,high,false
OMCyeGSg,3ha5odm5ld5arw3bkcnh3xryudvvsa,3ftop5warj13mchzlnvgfn6crp90j5,OMCyeGSg,2020-0188,2020-06-04,10:48:17,11:03:51,NA,incomplete,143,race,3,1,left,A_M_15.jpg,A_F_10.jpg,C_M_06.jpg,left,1106.1499998904765,true,high,false
OMCyeGSg,3ha5odm5ld5arw3bkcnh3xryudvvsa,3ftop5warj13mchzlnvgfn6crp90j5,OMCyeGSg,2020-0188,2020-06-04,10:48:17,11:03:51,NA,incomplete,144,race,3,1,left,C_M_14.jpg,C_F_15.jpg,A_M_09.jpg,left,1023.5999999567866,true,high,false
OMCyeGSg,3ha5odm5ld5arw3bkcnh3xryudvvsa,3ftop5warj13mchzlnvgfn6crp90j5,OMCyeGSg,2020-0188,2020-06-04,10:48:17,11:03:51,NA,incomplete,145,race,3,1,right,A_F_01.jpg,C_F_14.jpg,A_M_06.jpg,right,1019.6549999527633,true,high,false
OMCyeGSg,3ha5odm5ld5arw3bkcnh3xryudvvsa,3ftop5warj13mchzlnvgfn6crp90j5,OMCyeGSg,2020-0188,2020-06-04,10:48:17,11:03:51,NA,incomplete,146,race,3,1,right,A_M_10.jpg,C_M_15.jpg,A_F_01.jpg,right,1061.784999910742,true,high,false
OMCyeGSg,3ha5odm5ld5arw3bkcnh3xryudvvsa,3ftop5warj13mchzlnvgfn6crp90j5,OMCyeGSg,2020-0188,2020-06-04,10:48:17,11:03:51,NA,incomplete,147,race,3,1,left,C_F_03.jpg,C_M_13.jpg,A_F_14.jpg,left,1536.1649999395013,true,high,false
OMCyeGSg,3ha5odm5ld5arw3bkcnh3xryudvvsa,3ftop5warj13mchzlnvgfn6crp90j5,OMCyeGSg,2020-0188,2020-06-04,10:48:17,11:03:51,NA,incomplete,148,race,3,1,left,A_F_16.jpg,A_M_12.jpg,C_F_02.jpg,left,973.9500000141561,true,high,false
OMCyeGSg,3ha5odm5ld5arw3bkcnh3xryudvvsa,3ftop5warj13mchzlnvgfn6crp90j5,OMCyeGSg,2020-0188,2020-06-04,10:48:17,11:03:51,NA,incomplete,149,race,3,1,left,A_M_15.jpg,A_F_06.jpg,C_M_01.jpg,right,1031.7100000102073,false,high,false
OMCyeGSg,3ha5odm5ld5arw3bkcnh3xryudvvsa,3ftop5warj13mchzlnvgfn6crp90j5,OMCyeGSg,2020-0188,2020-06-04,10:48:17,11:03:51,NA,incomplete,150,race,3,1,right,A_F_10.jpg,C_F_01.jpg,A_M_05.jpg,right,1134.970000013709,true,high,false
OMCyeGSg,3ha5odm5ld5arw3bkcnh3xryudvvsa,3ftop5warj13mchzlnvgfn6crp90j5,OMCyeGSg,2020-0188,2020-06-04,10:48:17,11:03:51,NA,incomplete,151,race,3,1,right,A_F_04.jpg,C_F_05.jpg,A_M_07.jpg,right,1160.8049999922514,true,high,false
OMCyeGSg,3ha5odm5ld5arw3bkcnh3xryudvvsa,3ftop5warj13mchzlnvgfn6crp90j5,OMCyeGSg,2020-0188,2020-06-04,10:48:17,11:03:51,NA,incomplete,152,race,3,1,right,A_M_11.jpg,C_M_10.jpg,A_F_09.jpg,right,914.9249999318272,true,high,false
OMCyeGSg,3ha5odm5ld5arw3bkcnh3xryudvvsa,3ftop5warj13mchzlnvgfn6crp90j5,OMCyeGSg,2020-0188,2020-06-04,10:48:17,11:03:51,NA,incomplete,153,race,3,1,right,A_M_06.jpg,C_M_12.jpg,A_F_03.jpg,right,1179.9449999816716,true,high,false
OMCyeGSg,3ha5odm5ld5arw3bkcnh3xryudvvsa,3ftop5warj13mchzlnvgfn6crp90j5,OMCyeGSg,2020-0188,2020-06-04,10:48:17,11:03:51,NA,incomplete,154,race,3,0,left,A_M_10.jpg,A_F_14.jpg,C_M_13.jpg,left,1019.3350000772625,true,high,false
OMCyeGSg,3ha5odm5ld5arw3bkcnh3xryudvvsa,3ftop5warj13mchzlnvgfn6crp90j5,OMCyeGSg,2020-0188,2020-06-04,10:48:17,11:03:51,NA,incomplete,155,race,3,1,left,A_M_06.jpg,A_F_01.jpg,C_M_03.jpg,left,1134.0700001455843,true,high,false
OMCyeGSg,3ha5odm5ld5arw3bkcnh3xryudvvsa,3ftop5warj13mchzlnvgfn6crp90j5,OMCyeGSg,2020-0188,2020-06-04,10:48:17,11:03:51,NA,incomplete,156,race,3,0,left,A_F_06.jpg,A_M_05.jpg,C_F_13.jpg,left,1020.8449999336153,true,high,false
OMCyeGSg,3ha5odm5ld5arw3bkcnh3xryudvvsa,3ftop5warj13mchzlnvgfn6crp90j5,OMCyeGSg,2020-0188,2020-06-04,10:48:17,11:03:51,NA,incomplete,157,race,3,1,left,A_M_15.jpg,A_F_09.jpg,C_M_10.jpg,left,960.4299999773502,true,high,false
OMCyeGSg,3ha5odm5ld5arw3bkcnh3xryudvvsa,3ftop5warj13mchzlnvgfn6crp90j5,OMCyeGSg,2020-0188,2020-06-04,10:48:17,11:03:51,NA,incomplete,158,race,3,1,right,A_F_02.jpg,C_F_11.jpg,A_M_04.jpg,right,1055.7049999479204,true,high,false
OMCyeGSg,3ha5odm5ld5arw3bkcnh3xryudvvsa,3ftop5warj13mchzlnvgfn6crp90j5,OMCyeGSg,2020-0188,2020-06-04,10:48:17,11:03:51,NA,incomplete,159,race,3,1,left,C_M_05.jpg,C_F_07.jpg,A_M_16.jpg,left,1106.184999924153,true,high,false
OMCyeGSg,3ha5odm5ld5arw3bkcnh3xryudvvsa,3ftop5warj13mchzlnvgfn6crp90j5,OMCyeGSg,2020-0188,2020-06-04,10:48:17,11:03:51,NA,incomplete,160,gender,2,0,left,C_M_08.jpg,A_M_14.jpg,C_F_15.jpg,right,933.649999788031,false,high,false
OMCyeGSg,3ha5odm5ld5arw3bkcnh3xryudvvsa,3ftop5warj13mchzlnvgfn6crp90j5,OMCyeGSg,2020-0188,2020-06-04,10:48:17,11:03:51,NA,incomplete,161,gender,2,1,right,C_M_07.jpg,C_F_04.jpg,A_M_02.jpg,left,951.2600000016391,false,high,false
OMCyeGSg,3ha5odm5ld5arw3bkcnh3xryudvvsa,3ftop5warj13mchzlnvgfn6crp90j5,OMCyeGSg,2020-0188,2020-06-04,10:48:17,11:03:51,NA,incomplete,162,gender,2,1,right,C_M_08.jpg,C_F_15.jpg,A_M_16.jpg,left,1083.9549999218434,false,high,false
OMCyeGSg,3ha5odm5ld5arw3bkcnh3xryudvvsa,3ftop5warj13mchzlnvgfn6crp90j5,OMCyeGSg,2020-0188,2020-06-04,10:48:17,11:03:51,NA,incomplete,163,gender,2,0,left,C_M_02.jpg,A_M_10.jpg,C_F_11.jpg,left,939.4849999807775,true,high,false
OMCyeGSg,3ha5odm5ld5arw3bkcnh3xryudvvsa,3ftop5warj13mchzlnvgfn6crp90j5,OMCyeGSg,2020-0188,2020-06-04,10:48:17,11:03:51,NA,incomplete,164,gender,2,1,left,C_M_12.jpg,A_M_14.jpg,C_F_15.jpg,right,857.8299998771399,false,high,false
OMCyeGSg,3ha5odm5ld5arw3bkcnh3xryudvvsa,3ftop5warj13mchzlnvgfn6crp90j5,OMCyeGSg,2020-0188,2020-06-04,10:48:17,11:03:51,NA,incomplete,165,gender,2,1,right,C_F_02.jpg,C_M_08.jpg,A_F_05.jpg,right,834.3799998983741,true,high,false
OMCyeGSg,3ha5odm5ld5arw3bkcnh3xryudvvsa,3ftop5warj13mchzlnvgfn6crp90j5,OMCyeGSg,2020-0188,2020-06-04,10:48:17,11:03:51,NA,incomplete,166,gender,2,0,right,A_F_06.jpg,A_M_11.jpg,C_F_09.jpg,right,881.8800000008196,true,high,false
OMCyeGSg,3ha5odm5ld5arw3bkcnh3xryudvvsa,3ftop5warj13mchzlnvgfn6crp90j5,OMCyeGSg,2020-0188,2020-06-04,10:48:17,11:03:51,NA,incomplete,167,gender,2,1,right,A_F_09.jpg,A_M_16.jpg,C_F_01.jpg,right,639.2500000074506,true,high,false
OMCyeGSg,3ha5odm5ld5arw3bkcnh3xryudvvsa,3ftop5warj13mchzlnvgfn6crp90j5,OMCyeGSg,2020-0188,2020-06-04,10:48:17,11:03:51,NA,incomplete,168,gender,2,1,right,C_F_09.jpg,C_M_12.jpg,A_F_02.jpg,right,640.2549999766052,true,high,false
OMCyeGSg,3ha5odm5ld5arw3bkcnh3xryudvvsa,3ftop5warj13mchzlnvgfn6crp90j5,OMCyeGSg,2020-0188,2020-06-04,10:48:17,11:03:51,NA,incomplete,169,gender,2,1,right,A_F_07.jpg,A_M_05.jpg,C_F_03.jpg,right,645.5399999395013,true,high,false
OMCyeGSg,3ha5odm5ld5arw3bkcnh3xryudvvsa,3ftop5warj13mchzlnvgfn6crp90j5,OMCyeGSg,2020-0188,2020-06-04,10:48:17,11:03:51,NA,incomplete,170,gender,2,1,right,C_M_14.jpg,C_F_16.jpg,A_M_08.jpg,right,704.765000147745,true,high,false
OMCyeGSg,3ha5odm5ld5arw3bkcnh3xryudvvsa,3ftop5warj13mchzlnvgfn6crp90j5,OMCyeGSg,2020-0188,2020-06-04,10:48:17,11:03:51,NA,incomplete,171,gender,2,1,right,C_F_13.jpg,C_M_11.jpg,A_F_07.jpg,right,503.4699998795986,true,high,false
OMCyeGSg,3ha5odm5ld5arw3bkcnh3xryudvvsa,3ftop5warj13mchzlnvgfn6crp90j5,OMCyeGSg,2020-0188,2020-06-04,10:48:17,11:03:51,NA,incomplete,172,gender,2,0,left,A_F_03.jpg,C_F_10.jpg,A_M_04.jpg,left,671.8850000761449,true,high,false
OMCyeGSg,3ha5odm5ld5arw3bkcnh3xryudvvsa,3ftop5warj13mchzlnvgfn6crp90j5,OMCyeGSg,2020-0188,2020-06-04,10:48:17,11:03:51,NA,incomplete,173,gender,2,1,right,C_F_09.jpg,C_M_13.jpg,A_F_04.jpg,right,719.6550001390278,true,high,false
OMCyeGSg,3ha5odm5ld5arw3bkcnh3xryudvvsa,3ftop5warj13mchzlnvgfn6crp90j5,OMCyeGSg,2020-0188,2020-06-04,10:48:17,11:03:51,NA,incomplete,174,gender,2,1,right,A_M_06.jpg,A_F_12.jpg,C_M_03.jpg,right,567.3400000669062,true,high,false
OMCyeGSg,3ha5odm5ld5arw3bkcnh3xryudvvsa,3ftop5warj13mchzlnvgfn6crp90j5,OMCyeGSg,2020-0188,2020-06-04,10:48:17,11:03:51,NA,incomplete,175,gender,2,1,right,C_F_09.jpg,C_M_14.jpg,A_F_01.jpg,left,519.1199998371303,false,high,false
OMCyeGSg,3ha5odm5ld5arw3bkcnh3xryudvvsa,3ftop5warj13mchzlnvgfn6crp90j5,OMCyeGSg,2020-0188,2020-06-04,10:48:17,11:03:51,NA,incomplete,176,gender,2,1,right,A_F_07.jpg,A_M_12.jpg,C_F_08.jpg,right,550.4999998956919,true,high,false
OMCyeGSg,3ha5odm5ld5arw3bkcnh3xryudvvsa,3ftop5warj13mchzlnvgfn6crp90j5,OMCyeGSg,2020-0188,2020-06-04,10:48:17,11:03:51,NA,incomplete,177,gender,2,1,left,A_M_13.jpg,C_M_11.jpg,A_F_07.jpg,right,527.6250001043081,false,high,false
OMCyeGSg,3ha5odm5ld5arw3bkcnh3xryudvvsa,3ftop5warj13mchzlnvgfn6crp90j5,OMCyeGSg,2020-0188,2020-06-04,10:48:17,11:03:51,NA,incomplete,178,gender,2,1,right,C_M_07.jpg,C_F_06.jpg,A_M_02.jpg,right,632.9999999143183,true,high,false
OMCyeGSg,3ha5odm5ld5arw3bkcnh3xryudvvsa,3ftop5warj13mchzlnvgfn6crp90j5,OMCyeGSg,2020-0188,2020-06-04,10:48:17,11:03:51,NA,incomplete,179,gender,2,1,right,A_F_04.jpg,A_M_01.jpg,C_F_09.jpg,left,570.4149999655783,false,high,false
OMCyeGSg,3ha5odm5ld5arw3bkcnh3xryudvvsa,3ftop5warj13mchzlnvgfn6crp90j5,OMCyeGSg,2020-0188,2020-06-04,10:48:17,11:03:51,NA,incomplete,180,race,3,1,left,C_F_11.jpg,C_M_02.jpg,A_F_07.jpg,right,588.1799999624491,false,high,false
OMCyeGSg,3ha5odm5ld5arw3bkcnh3xryudvvsa,3ftop5warj13mchzlnvgfn6crp90j5,OMCyeGSg,2020-0188,2020-06-04,10:48:17,11:03:51,NA,incomplete,181,race,3,0,left,A_F_08.jpg,A_M_06.jpg,C_F_05.jpg,right,626.7099999822676,false,high,false
OMCyeGSg,3ha5odm5ld5arw3bkcnh3xryudvvsa,3ftop5warj13mchzlnvgfn6crp90j5,OMCyeGSg,2020-0188,2020-06-04,10:48:17,11:03:51,NA,incomplete,182,race,3,1,left,A_F_01.jpg,A_M_13.jpg,C_F_06.jpg,right,617.1899999026209,false,high,false
OMCyeGSg,3ha5odm5ld5arw3bkcnh3xryudvvsa,3ftop5warj13mchzlnvgfn6crp90j5,OMCyeGSg,2020-0188,2020-06-04,10:48:17,11:03:51,NA,incomplete,183,race,3,1,right,C_F_05.jpg,A_F_07.jpg,C_M_14.jpg,right,584.4799999613315,true,high,false
OMCyeGSg,3ha5odm5ld5arw3bkcnh3xryudvvsa,3ftop5warj13mchzlnvgfn6crp90j5,OMCyeGSg,2020-0188,2020-06-04,10:48:17,11:03:51,NA,incomplete,184,race,3,1,left,C_M_04.jpg,C_F_13.jpg,A_M_15.jpg,right,564.8650000803173,false,high,false
OMCyeGSg,3ha5odm5ld5arw3bkcnh3xryudvvsa,3ftop5warj13mchzlnvgfn6crp90j5,OMCyeGSg,2020-0188,2020-06-04,10:48:17,11:03:51,NA,incomplete,185,race,3,1,left,A_M_04.jpg,A_F_12.jpg,C_M_07.jpg,left,783.9150000363588,true,high,false
OMCyeGSg,3ha5odm5ld5arw3bkcnh3xryudvvsa,3ftop5warj13mchzlnvgfn6crp90j5,OMCyeGSg,2020-0188,2020-06-04,10:48:17,11:03:51,NA,incomplete,186,race,3,1,right,C_M_04.jpg,A_M_10.jpg,C_F_07.jpg,left,769.7250000201166,false,high,false
OMCyeGSg,3ha5odm5ld5arw3bkcnh3xryudvvsa,3ftop5warj13mchzlnvgfn6crp90j5,OMCyeGSg,2020-0188,2020-06-04,10:48:17,11:03:51,NA,incomplete,187,race,3,0,left,A_F_03.jpg,A_M_05.jpg,C_F_07.jpg,left,1092.6299998536706,true,high,false
OMCyeGSg,3ha5odm5ld5arw3bkcnh3xryudvvsa,3ftop5warj13mchzlnvgfn6crp90j5,OMCyeGSg,2020-0188,2020-06-04,10:48:17,11:03:51,NA,incomplete,188,race,3,1,left,C_F_03.jpg,C_M_06.jpg,A_F_01.jpg,left,764.9250000249594,true,high,false
OMCyeGSg,3ha5odm5ld5arw3bkcnh3xryudvvsa,3ftop5warj13mchzlnvgfn6crp90j5,OMCyeGSg,2020-0188,2020-06-04,10:48:17,11:03:51,NA,incomplete,189,race,3,0,left,A_M_03.jpg,A_F_02.jpg,C_M_07.jpg,left,837.2049999888986,true,high,false
OMCyeGSg,3ha5odm5ld5arw3bkcnh3xryudvvsa,3ftop5warj13mchzlnvgfn6crp90j5,OMCyeGSg,2020-0188,2020-06-04,10:48:17,11:03:51,NA,incomplete,190,race,3,1,left,C_F_15.jpg,C_M_05.jpg,A_F_12.jpg,right,701.5050000045449,false,high,false
OMCyeGSg,3ha5odm5ld5arw3bkcnh3xryudvvsa,3ftop5warj13mchzlnvgfn6crp90j5,OMCyeGSg,2020-0188,2020-06-04,10:48:17,11:03:51,NA,incomplete,191,race,3,0,left,C_M_08.jpg,C_F_01.jpg,A_M_11.jpg,left,791.7349999770522,true,high,false
OMCyeGSg,3ha5odm5ld5arw3bkcnh3xryudvvsa,3ftop5warj13mchzlnvgfn6crp90j5,OMCyeGSg,2020-0188,2020-06-04,10:48:17,11:03:51,NA,incomplete,192,race,3,1,right,C_F_02.jpg,A_F_08.jpg,C_M_04.jpg,left,763.0450001452118,false,high,false
OMCyeGSg,3ha5odm5ld5arw3bkcnh3xryudvvsa,3ftop5warj13mchzlnvgfn6crp90j5,OMCyeGSg,2020-0188,2020-06-04,10:48:17,11:03:51,NA,incomplete,193,race,3,1,left,C_F_14.jpg,C_M_08.jpg,A_F_13.jpg,left,763.7899999972433,true,high,false
OMCyeGSg,3ha5odm5ld5arw3bkcnh3xryudvvsa,3ftop5warj13mchzlnvgfn6crp90j5,OMCyeGSg,2020-0188,2020-06-04,10:48:17,11:03:51,NA,incomplete,194,race,3,1,left,A_F_14.jpg,A_M_05.jpg,C_F_06.jpg,left,780.9949999209493,true,high,false
OMCyeGSg,3ha5odm5ld5arw3bkcnh3xryudvvsa,3ftop5warj13mchzlnvgfn6crp90j5,OMCyeGSg,2020-0188,2020-06-04,10:48:17,11:03:51,NA,incomplete,195,race,3,1,right,A_F_02.jpg,C_F_04.jpg,A_M_13.jpg,right,787.209999980405,true,high,false
OMCyeGSg,3ha5odm5ld5arw3bkcnh3xryudvvsa,3ftop5warj13mchzlnvgfn6crp90j5,OMCyeGSg,2020-0188,2020-06-04,10:48:17,11:03:51,NA,incomplete,196,race,3,0,left,A_F_06.jpg,A_M_15.jpg,C_F_01.jpg,left,886.1350000370294,true,high,false
OMCyeGSg,3ha5odm5ld5arw3bkcnh3xryudvvsa,3ftop5warj13mchzlnvgfn6crp90j5,OMCyeGSg,2020-0188,2020-06-04,10:48:17,11:03:51,NA,incomplete,197,race,3,1,right,A_F_13.jpg,C_F_12.jpg,A_M_11.jpg,right,726.3099998235703,true,high,false
OMCyeGSg,3ha5odm5ld5arw3bkcnh3xryudvvsa,3ftop5warj13mchzlnvgfn6crp90j5,OMCyeGSg,2020-0188,2020-06-04,10:48:17,11:03:51,NA,incomplete,198,race,3,0,left,A_M_07.jpg,A_F_11.jpg,C_M_09.jpg,left,602.2049998864532,true,high,false
OMCyeGSg,3ha5odm5ld5arw3bkcnh3xryudvvsa,3ftop5warj13mchzlnvgfn6crp90j5,OMCyeGSg,2020-0188,2020-06-04,10:48:17,11:03:51,NA,incomplete,199,race,3,1,right,A_F_16.jpg,C_F_06.jpg,A_M_13.jpg,right,611.6450000554323,true,high,false
OMCyeGSg,3ha5odm5ld5arw3bkcnh3xryudvvsa,3ftop5warj13mchzlnvgfn6crp90j5,OMCyeGSg,2020-0188,2020-06-04,10:48:17,11:03:51,NA,incomplete,200,gender,2,1,left,A_M_06.jpg,C_M_12.jpg,A_F_15.jpg,right,506.60000019706786,false,high,false
OMCyeGSg,3ha5odm5ld5arw3bkcnh3xryudvvsa,3ftop5warj13mchzlnvgfn6crp90j5,OMCyeGSg,2020-0188,2020-06-04,10:48:17,11:03:51,NA,incomplete,201,gender,2,1,left,A_F_13.jpg,C_F_07.jpg,A_M_01.jpg,left,672.0050000585616,true,high,false
OMCyeGSg,3ha5odm5ld5arw3bkcnh3xryudvvsa,3ftop5warj13mchzlnvgfn6crp90j5,OMCyeGSg,2020-0188,2020-06-04,10:48:17,11:03:51,NA,incomplete,202,gender,2,1,right,C_M_05.jpg,C_F_07.jpg,A_M_11.jpg,right,556.3500002026558,true,high,false
OMCyeGSg,3ha5odm5ld5arw3bkcnh3xryudvvsa,3ftop5warj13mchzlnvgfn6crp90j5,OMCyeGSg,2020-0188,2020-06-04,10:48:17,11:03:51,NA,incomplete,203,gender,2,0,right,C_F_03.jpg,C_M_02.jpg,A_F_10.jpg,left,504.8499999102205,false,high,false
OMCyeGSg,3ha5odm5ld5arw3bkcnh3xryudvvsa,3ftop5warj13mchzlnvgfn6crp90j5,OMCyeGSg,2020-0188,2020-06-04,10:48:17,11:03:51,NA,incomplete,204,gender,2,1,right,A_F_16.jpg,A_M_13.jpg,C_F_08.jpg,right,656.1849999707192,true,high,false
OMCyeGSg,3ha5odm5ld5arw3bkcnh3xryudvvsa,3ftop5warj13mchzlnvgfn6crp90j5,OMCyeGSg,2020-0188,2020-06-04,10:48:17,11:03:51,NA,incomplete,205,gender,2,1,left,A_F_07.jpg,C_F_02.jpg,A_M_03.jpg,left,645.615000044927,true,high,false
OMCyeGSg,3ha5odm5ld5arw3bkcnh3xryudvvsa,3ftop5warj13mchzlnvgfn6crp90j5,OMCyeGSg,2020-0188,2020-06-04,10:48:17,11:03:51,NA,incomplete,206,gender,2,1,right,C_F_06.jpg,C_M_09.jpg,A_F_04.jpg,right,644.1349999513477,true,high,false
OMCyeGSg,3ha5odm5ld5arw3bkcnh3xryudvvsa,3ftop5warj13mchzlnvgfn6crp90j5,OMCyeGSg,2020-0188,2020-06-04,10:48:17,11:03:51,NA,incomplete,207,gender,2,0,left,C_F_01.jpg,A_F_16.jpg,C_M_02.jpg,left,550.1850000582635,true,high,false
OMCyeGSg,3ha5odm5ld5arw3bkcnh3xryudvvsa,3ftop5warj13mchzlnvgfn6crp90j5,OMCyeGSg,2020-0188,2020-06-04,10:48:17,11:03:51,NA,incomplete,208,gender,2,1,left,A_M_02.jpg,C_M_08.jpg,A_F_04.jpg,left,714.0399999916553,true,high,false
OMCyeGSg,3ha5odm5ld5arw3bkcnh3xryudvvsa,3ftop5warj13mchzlnvgfn6crp90j5,OMCyeGSg,2020-0188,2020-06-04,10:48:17,11:03:51,NA,incomplete,209,gender,2,1,left,A_M_05.jpg,C_M_15.jpg,A_F_07.jpg,left,738.8850001152605,true,high,false
OMCyeGSg,3ha5odm5ld5arw3bkcnh3xryudvvsa,3ftop5warj13mchzlnvgfn6crp90j5,OMCyeGSg,2020-0188,2020-06-04,10:48:17,11:03:51,NA,incomplete,210,gender,2,1,left,A_F_07.jpg,C_F_01.jpg,A_M_05.jpg,left,647.0600001048297,true,high,false
OMCyeGSg,3ha5odm5ld5arw3bkcnh3xryudvvsa,3ftop5warj13mchzlnvgfn6crp90j5,OMCyeGSg,2020-0188,2020-06-04,10:48:17,11:03:51,NA,incomplete,211,gender,2,0,left,C_F_11.jpg,A_F_10.jpg,C_M_08.jpg,left,628.1500000040978,true,high,false
OMCyeGSg,3ha5odm5ld5arw3bkcnh3xryudvvsa,3ftop5warj13mchzlnvgfn6crp90j5,OMCyeGSg,2020-0188,2020-06-04,10:48:17,11:03:51,NA,incomplete,212,gender,2,1,right,C_F_03.jpg,C_M_10.jpg,A_F_11.jpg,left,691.9400000479072,false,high,false
OMCyeGSg,3ha5odm5ld5arw3bkcnh3xryudvvsa,3ftop5warj13mchzlnvgfn6crp90j5,OMCyeGSg,2020-0188,2020-06-04,10:48:17,11:03:51,NA,incomplete,213,gender,2,1,left,C_M_08.jpg,A_M_01.jpg,C_F_10.jpg,left,583.8800000492483,true,high,false
OMCyeGSg,3ha5odm5ld5arw3bkcnh3xryudvvsa,3ftop5warj13mchzlnvgfn6crp90j5,OMCyeGSg,2020-0188,2020-06-04,10:48:17,11:03:51,NA,incomplete,214,gender,2,1,left,A_M_08.jpg,C_M_05.jpg,A_F_13.jpg,left,656.4899999648333,true,high,false
OMCyeGSg,3ha5odm5ld5arw3bkcnh3xryudvvsa,3ftop5warj13mchzlnvgfn6crp90j5,OMCyeGSg,2020-0188,2020-06-04,10:48:17,11:03:51,NA,incomplete,215,gender,2,1,left,C_F_13.jpg,A_F_11.jpg,C_M_16.jpg,left,566.8399999849498,true,high,false
OMCyeGSg,3ha5odm5ld5arw3bkcnh3xryudvvsa,3ftop5warj13mchzlnvgfn6crp90j5,OMCyeGSg,2020-0188,2020-06-04,10:48:17,11:03:51,NA,incomplete,216,gender,2,1,left,A_M_16.jpg,C_M_11.jpg,A_F_08.jpg,left,657.5299999676645,true,high,false
OMCyeGSg,3ha5odm5ld5arw3bkcnh3xryudvvsa,3ftop5warj13mchzlnvgfn6crp90j5,OMCyeGSg,2020-0188,2020-06-04,10:48:17,11:03:51,NA,incomplete,217,gender,2,1,left,C_M_06.jpg,A_M_07.jpg,C_F_01.jpg,left,541.2699999287724,true,high,false
OMCyeGSg,3ha5odm5ld5arw3bkcnh3xryudvvsa,3ftop5warj13mchzlnvgfn6crp90j5,OMCyeGSg,2020-0188,2020-06-04,10:48:17,11:03:51,NA,incomplete,218,gender,2,1,right,A_M_08.jpg,A_F_05.jpg,C_M_02.jpg,left,516.7499999515712,false,high,false
OMCyeGSg,3ha5odm5ld5arw3bkcnh3xryudvvsa,3ftop5warj13mchzlnvgfn6crp90j5,OMCyeGSg,2020-0188,2020-06-04,10:48:17,11:03:51,NA,incomplete,219,gender,2,0,left,A_F_11.jpg,C_F_10.jpg,A_M_06.jpg,left,604.4399999082088,true,high,false
OMCyeGSg,3ha5odm5ld5arw3bkcnh3xryudvvsa,3ftop5warj13mchzlnvgfn6crp90j5,OMCyeGSg,2020-0188,2020-06-04,10:48:17,11:03:51,NA,incomplete,220,race,3,1,right,A_F_09.jpg,C_F_12.jpg,A_M_13.jpg,left,523.0600000359118,false,high,false
OMCyeGSg,3ha5odm5ld5arw3bkcnh3xryudvvsa,3ftop5warj13mchzlnvgfn6crp90j5,OMCyeGSg,2020-0188,2020-06-04,10:48:17,11:03:51,NA,incomplete,221,race,3,0,left,C_M_09.jpg,C_F_01.jpg,A_M_14.jpg,right,569.0250000916421,false,high,false
OMCyeGSg,3ha5odm5ld5arw3bkcnh3xryudvvsa,3ftop5warj13mchzlnvgfn6crp90j5,OMCyeGSg,2020-0188,2020-06-04,10:48:17,11:03:51,NA,incomplete,222,race,3,1,left,C_F_05.jpg,C_M_10.jpg,A_F_09.jpg,left,531.7900001537055,true,high,false
OMCyeGSg,3ha5odm5ld5arw3bkcnh3xryudvvsa,3ftop5warj13mchzlnvgfn6crp90j5,OMCyeGSg,2020-0188,2020-06-04,10:48:17,11:03:51,NA,incomplete,223,race,3,1,right,A_F_13.jpg,C_F_14.jpg,A_M_04.jpg,right,752.8499998152256,true,high,false
OMCyeGSg,3ha5odm5ld5arw3bkcnh3xryudvvsa,3ftop5warj13mchzlnvgfn6crp90j5,OMCyeGSg,2020-0188,2020-06-04,10:48:17,11:03:51,NA,incomplete,224,race,3,1,left,C_F_03.jpg,C_M_09.jpg,A_F_10.jpg,left,541.579999960959,true,high,false
OMCyeGSg,3ha5odm5ld5arw3bkcnh3xryudvvsa,3ftop5warj13mchzlnvgfn6crp90j5,OMCyeGSg,2020-0188,2020-06-04,10:48:17,11:03:51,NA,incomplete,225,race,3,1,right,C_M_04.jpg,A_M_15.jpg,C_F_08.jpg,right,681.7550000268966,true,high,false
OMCyeGSg,3ha5odm5ld5arw3bkcnh3xryudvvsa,3ftop5warj13mchzlnvgfn6crp90j5,OMCyeGSg,2020-0188,2020-06-04,10:48:17,11:03:51,NA,incomplete,226,race,3,1,left,A_F_16.jpg,A_M_02.jpg,C_F_12.jpg,left,619.0249999053776,true,high,false
OMCyeGSg,3ha5odm5ld5arw3bkcnh3xryudvvsa,3ftop5warj13mchzlnvgfn6crp90j5,OMCyeGSg,2020-0188,2020-06-04,10:48:17,11:03:51,NA,incomplete,227,race,3,1,left,A_M_10.jpg,A_F_02.jpg,C_M_12.jpg,left,828.0550001654774,true,high,false
OMCyeGSg,3ha5odm5ld5arw3bkcnh3xryudvvsa,3ftop5warj13mchzlnvgfn6crp90j5,OMCyeGSg,2020-0188,2020-06-04,10:48:17,11:03:51,NA,incomplete,228,race,3,0,left,C_M_13.jpg,C_F_11.jpg,A_M_05.jpg,right,692.9450000170618,false,high,false
OMCyeGSg,3ha5odm5ld5arw3bkcnh3xryudvvsa,3ftop5warj13mchzlnvgfn6crp90j5,OMCyeGSg,2020-0188,2020-06-04,10:48:17,11:03:51,NA,incomplete,229,race,3,1,right,C_F_16.jpg,A_F_07.jpg,C_M_12.jpg,left,612.0649999938905,false,high,false
OMCyeGSg,3ha5odm5ld5arw3bkcnh3xryudvvsa,3ftop5warj13mchzlnvgfn6crp90j5,OMCyeGSg,2020-0188,2020-06-04,10:48:17,11:03:51,NA,incomplete,230,race,3,1,right,C_F_07.jpg,A_F_15.jpg,C_M_16.jpg,right,741.3300001062453,true,high,false
OMCyeGSg,3ha5odm5ld5arw3bkcnh3xryudvvsa,3ftop5warj13mchzlnvgfn6crp90j5,OMCyeGSg,2020-0188,2020-06-04,10:48:17,11:03:51,NA,incomplete,231,race,3,1,left,A_F_10.jpg,A_M_03.jpg,C_F_16.jpg,left,654.6499999240041,true,high,false
OMCyeGSg,3ha5odm5ld5arw3bkcnh3xryudvvsa,3ftop5warj13mchzlnvgfn6crp90j5,OMCyeGSg,2020-0188,2020-06-04,10:48:17,11:03:51,NA,incomplete,232,race,3,0,right,A_M_04.jpg,C_M_10.jpg,A_F_03.jpg,right,690.6500000040978,true,high,false
OMCyeGSg,3ha5odm5ld5arw3bkcnh3xryudvvsa,3ftop5warj13mchzlnvgfn6crp90j5,OMCyeGSg,2020-0188,2020-06-04,10:48:17,11:03:51,NA,incomplete,233,race,3,1,right,A_M_12.jpg,C_M_07.jpg,A_F_14.jpg,right,838.9249998144805,true,high,false
OMCyeGSg,3ha5odm5ld5arw3bkcnh3xryudvvsa,3ftop5warj13mchzlnvgfn6crp90j5,OMCyeGSg,2020-0188,2020-06-04,10:48:17,11:03:51,NA,incomplete,234,race,3,1,left,A_F_01.jpg,A_M_15.jpg,C_F_13.jpg,left,778.9000000339001,true,high,false
OMCyeGSg,3ha5odm5ld5arw3bkcnh3xryudvvsa,3ftop5warj13mchzlnvgfn6crp90j5,OMCyeGSg,2020-0188,2020-06-04,10:48:17,11:03:51,NA,incomplete,235,race,3,1,left,C_M_13.jpg,C_F_04.jpg,A_M_05.jpg,left,857.6299999840558,true,high,false
OMCyeGSg,3ha5odm5ld5arw3bkcnh3xryudvvsa,3ftop5warj13mchzlnvgfn6crp90j5,OMCyeGSg,2020-0188,2020-06-04,10:48:17,11:03:51,NA,incomplete,236,race,3,1,left,A_F_16.jpg,A_M_15.jpg,C_F_12.jpg,left,767.4150001257658,true,high,false
OMCyeGSg,3ha5odm5ld5arw3bkcnh3xryudvvsa,3ftop5warj13mchzlnvgfn6crp90j5,OMCyeGSg,2020-0188,2020-06-04,10:48:17,11:03:51,NA,incomplete,237,race,3,1,right,C_F_02.jpg,A_F_11.jpg,C_M_15.jpg,right,818.7049999833107,true,high,false
OMCyeGSg,3ha5odm5ld5arw3bkcnh3xryudvvsa,3ftop5warj13mchzlnvgfn6crp90j5,OMCyeGSg,2020-0188,2020-06-04,10:48:17,11:03:51,NA,incomplete,238,race,3,1,right,A_M_03.jpg,C_M_01.jpg,A_F_12.jpg,right,730.8950000442564,true,high,false
OMCyeGSg,3ha5odm5ld5arw3bkcnh3xryudvvsa,3ftop5warj13mchzlnvgfn6crp90j5,OMCyeGSg,2020-0188,2020-06-04,10:48:17,11:03:51,NA,incomplete,239,race,3,1,right,A_F_12.jpg,C_F_11.jpg,A_M_16.jpg,right,866.8349999934435,true,high,false
OMCyeGSg,3ha5odm5ld5arw3bkcnh3xryudvvsa,3ftop5warj13mchzlnvgfn6crp90j5,OMCyeGSg,2020-0188,2020-06-04,10:48:17,11:03:51,NA,NA,instruction example,number,NA,NA,NA,Green_Star_Stripes_1.jpg,Purple_Plus_Dots_1.jpg,Green_Triangle_Chess_4.jpg,NA,NA,NA,NA,undefined
OMCyeGSg,3ha5odm5ld5arw3bkcnh3xryudvvsa,3ftop5warj13mchzlnvgfn6crp90j5,OMCyeGSg,2020-0188,2020-06-04,10:48:17,11:03:51,NA,NA,instruction example,number,NA,NA,NA,Purple_Plus_Grid_4.jpg,Purple_Circle_Dots_3.jpg,Red_Triangle_Stripes_4.jpg,NA,NA,NA,NA,undefined
OMCyeGSg,3ha5odm5ld5arw3bkcnh3xryudvvsa,3ftop5warj13mchzlnvgfn6crp90j5,OMCyeGSg,2020-0188,2020-06-04,10:48:17,11:03:51,NA,NA,instruction example,number,NA,NA,NA,C_M_03.jpg,A_M_04.jpg,C_F_02.jpg,NA,NA,NA,NA,undefined
OMCyeGSg,3ha5odm5ld5arw3bkcnh3xryudvvsa,3ftop5warj13mchzlnvgfn6crp90j5,OMCyeGSg,2020-0188,2020-06-04,10:48:17,11:03:51,NA,NA,instruction example,number,NA,NA,NA,C_M_16.jpg,C_F_04.jpg,A_M_11.jpg,NA,NA,NA,NA,undefined
