workerId,hitId,assignmentId,subject,studyid,exp_date,exp_start,exp_end,time_start,time_end,trial,type,sequence,reward_validity,answer,image_top,image_left,image_right,response,response_time,response_acc,volatility,age,race,gender,ethnicity,color,vision,neuro,practice
Xfvy5xwV,38f60ialbjuvdvfa6f4is9xu20x0td,3ftyuglfsyypex388xfhtk7q3dnd5p,Xfvy5xwV,2020-0188,2020-06-04,09:47:43,10:05:52,NA,incomplete,0,shape,0,1,left,Blue_Triangle_Chess_3.jpg,Red_Triangle_Dots_1.jpg,Green_Plus_Grid_3.jpg,none,0,false,NA,NA,NA,NA,NA,NA,NA,NA,true
Xfvy5xwV,38f60ialbjuvdvfa6f4is9xu20x0td,3ftyuglfsyypex388xfhtk7q3dnd5p,Xfvy5xwV,2020-0188,2020-06-04,09:47:43,10:05:52,NA,incomplete,1,shape,0,1,right,Green_Plus_Chess_3.jpg,Purple_Triangle_Dots_3.jpg,Blue_Plus_Grid_4.jpg,right,1000.3700000233948,true,NA,NA,NA,NA,NA,NA,NA,NA,true
Xfvy5xwV,38f60ialbjuvdvfa6f4is9xu20x0td,3ftyuglfsyypex388xfhtk7q3dnd5p,Xfvy5xwV,2020-0188,2020-06-04,09:47:43,10:05:52,NA,incomplete,2,shape,0,0,left,Red_Star_Chess_4.jpg,Blue_Star_Stripes_2.jpg,Green_Circle_Dots_4.jpg,left,976.7150001134723,true,NA,NA,NA,NA,NA,NA,NA,NA,true
Xfvy5xwV,38f60ialbjuvdvfa6f4is9xu20x0td,3ftyuglfsyypex388xfhtk7q3dnd5p,Xfvy5xwV,2020-0188,2020-06-04,09:47:43,10:05:52,NA,incomplete,3,shape,0,1,left,Red_Circle_Dots_2.jpg,Green_Circle_Grid_3.jpg,Blue_Triangle_Chess_2.jpg,left,1095.5699998885393,true,NA,NA,NA,NA,NA,NA,NA,NA,true
Xfvy5xwV,38f60ialbjuvdvfa6f4is9xu20x0td,3ftyuglfsyypex388xfhtk7q3dnd5p,Xfvy5xwV,2020-0188,2020-06-04,09:47:43,10:05:52,NA,incomplete,4,shape,0,0,right,Blue_Star_Chess_2.jpg,Green_Triangle_Grid_2.jpg,Purple_Star_Dots_4.jpg,right,846.5500001329929,true,NA,NA,NA,NA,NA,NA,NA,NA,true
Xfvy5xwV,38f60ialbjuvdvfa6f4is9xu20x0td,3ftyuglfsyypex388xfhtk7q3dnd5p,Xfvy5xwV,2020-0188,2020-06-04,09:47:43,10:05:52,NA,incomplete,5,shape,0,1,right,Green_Plus_Chess_2.jpg,Blue_Triangle_Stripes_2.jpg,Red_Plus_Dots_4.jpg,right,1022.2549999598414,true,NA,NA,NA,NA,NA,NA,NA,NA,true
Xfvy5xwV,38f60ialbjuvdvfa6f4is9xu20x0td,3ftyuglfsyypex388xfhtk7q3dnd5p,Xfvy5xwV,2020-0188,2020-06-04,09:47:43,10:05:52,NA,incomplete,6,shape,0,0,left,Blue_Star_Dots_1.jpg,Purple_Star_Chess_4.jpg,Red_Circle_Stripes_1.jpg,left,741.4700000081211,true,NA,NA,NA,NA,NA,NA,NA,NA,true
Xfvy5xwV,38f60ialbjuvdvfa6f4is9xu20x0td,3ftyuglfsyypex388xfhtk7q3dnd5p,Xfvy5xwV,2020-0188,2020-06-04,09:47:43,10:05:52,NA,incomplete,7,shape,0,1,right,Red_Circle_Grid_1.jpg,Green_Plus_Stripes_1.jpg,Purple_Circle_Dots_3.jpg,right,642.2749999910593,true,NA,NA,NA,NA,NA,NA,NA,NA,true
Xfvy5xwV,38f60ialbjuvdvfa6f4is9xu20x0td,3ftyuglfsyypex388xfhtk7q3dnd5p,Xfvy5xwV,2020-0188,2020-06-04,09:47:43,10:05:52,NA,incomplete,8,shape,0,1,right,Green_Plus_Dots_3.jpg,Red_Star_Chess_3.jpg,Blue_Plus_Stripes_2.jpg,right,813.8899998739362,true,NA,NA,NA,NA,NA,NA,NA,NA,true
Xfvy5xwV,38f60ialbjuvdvfa6f4is9xu20x0td,3ftyuglfsyypex388xfhtk7q3dnd5p,Xfvy5xwV,2020-0188,2020-06-04,09:47:43,10:05:52,NA,incomplete,9,shape,0,1,right,Green_Triangle_Grid_3.jpg,Blue_Star_Stripes_3.jpg,Purple_Triangle_Dots_4.jpg,right,1004.9600000493228,true,NA,NA,NA,NA,NA,NA,NA,NA,true
Xfvy5xwV,38f60ialbjuvdvfa6f4is9xu20x0td,3ftyuglfsyypex388xfhtk7q3dnd5p,Xfvy5xwV,2020-0188,2020-06-04,09:47:43,10:05:52,NA,incomplete,10,shape,0,1,right,Red_Star_Grid_3.jpg,Blue_Plus_Stripes_3.jpg,Green_Star_Chess_4.jpg,right,879.7299999278039,true,NA,NA,NA,NA,NA,NA,NA,NA,true
Xfvy5xwV,38f60ialbjuvdvfa6f4is9xu20x0td,3ftyuglfsyypex388xfhtk7q3dnd5p,Xfvy5xwV,2020-0188,2020-06-04,09:47:43,10:05:52,NA,incomplete,11,shape,0,0,left,Green_Circle_Grid_1.jpg,Purple_Circle_Dots_4.jpg,Blue_Triangle_Stripes_1.jpg,left,767.2200000379235,true,NA,NA,NA,NA,NA,NA,NA,NA,true
Xfvy5xwV,38f60ialbjuvdvfa6f4is9xu20x0td,3ftyuglfsyypex388xfhtk7q3dnd5p,Xfvy5xwV,2020-0188,2020-06-04,09:47:43,10:05:52,NA,incomplete,12,shape,0,1,left,Red_Star_Stripes_4.jpg,Green_Star_Chess_3.jpg,Purple_Circle_Grid_4.jpg,left,868.9850000664592,true,NA,NA,NA,NA,NA,NA,NA,NA,true
Xfvy5xwV,38f60ialbjuvdvfa6f4is9xu20x0td,3ftyuglfsyypex388xfhtk7q3dnd5p,Xfvy5xwV,2020-0188,2020-06-04,09:47:43,10:05:52,NA,incomplete,13,shape,0,1,left,Blue_Circle_Grid_4.jpg,Red_Circle_Chess_3.jpg,Purple_Triangle_Stripes_4.jpg,left,774.2149999830872,true,NA,NA,NA,NA,NA,NA,NA,NA,true
Xfvy5xwV,38f60ialbjuvdvfa6f4is9xu20x0td,3ftyuglfsyypex388xfhtk7q3dnd5p,Xfvy5xwV,2020-0188,2020-06-04,09:47:43,10:05:52,NA,incomplete,14,shape,0,1,left,Green_Circle_Stripes_4.jpg,Red_Circle_Chess_2.jpg,Blue_Triangle_Grid_4.jpg,left,619.21999999322,true,NA,NA,NA,NA,NA,NA,NA,NA,true
Xfvy5xwV,38f60ialbjuvdvfa6f4is9xu20x0td,3ftyuglfsyypex388xfhtk7q3dnd5p,Xfvy5xwV,2020-0188,2020-06-04,09:47:43,10:05:52,NA,incomplete,15,shape,0,1,left,Blue_Circle_Chess_4.jpg,Green_Circle_Dots_3.jpg,Purple_Star_Stripes_4.jpg,left,638.3600002154708,true,NA,NA,NA,NA,NA,NA,NA,NA,true
Xfvy5xwV,38f60ialbjuvdvfa6f4is9xu20x0td,3ftyuglfsyypex388xfhtk7q3dnd5p,Xfvy5xwV,2020-0188,2020-06-04,09:47:43,10:05:52,NA,incomplete,16,shape,0,1,right,Blue_Circle_Dots_4.jpg,Green_Plus_Stripes_4.jpg,Purple_Circle_Chess_3.jpg,right,686.8900000117719,true,NA,NA,NA,NA,NA,NA,NA,NA,true
Xfvy5xwV,38f60ialbjuvdvfa6f4is9xu20x0td,3ftyuglfsyypex388xfhtk7q3dnd5p,Xfvy5xwV,2020-0188,2020-06-04,09:47:43,10:05:52,NA,incomplete,17,shape,0,1,left,Green_Triangle_Chess_4.jpg,Purple_Triangle_Stripes_3.jpg,Blue_Plus_Grid_4.jpg,left,808.8749998714775,true,NA,NA,NA,NA,NA,NA,NA,NA,true
Xfvy5xwV,38f60ialbjuvdvfa6f4is9xu20x0td,3ftyuglfsyypex388xfhtk7q3dnd5p,Xfvy5xwV,2020-0188,2020-06-04,09:47:43,10:05:52,NA,incomplete,18,shape,0,1,left,Red_Plus_Dots_4.jpg,Purple_Plus_Grid_3.jpg,Blue_Triangle_Stripes_4.jpg,left,758.7049999274313,true,NA,NA,NA,NA,NA,NA,NA,NA,true
Xfvy5xwV,38f60ialbjuvdvfa6f4is9xu20x0td,3ftyuglfsyypex388xfhtk7q3dnd5p,Xfvy5xwV,2020-0188,2020-06-04,09:47:43,10:05:52,NA,incomplete,19,shape,0,1,right,Red_Star_Dots_3.jpg,Green_Triangle_Chess_3.jpg,Blue_Star_Stripes_2.jpg,right,654.4850000645965,true,NA,NA,NA,NA,NA,NA,NA,NA,true
Xfvy5xwV,38f60ialbjuvdvfa6f4is9xu20x0td,3ftyuglfsyypex388xfhtk7q3dnd5p,Xfvy5xwV,2020-0188,2020-06-04,09:47:43,10:05:52,NA,incomplete,20,number,1,1,left,Red_Plus_Dots_3.jpg,Green_Circle_Stripes_3.jpg,Purple_Plus_Grid_2.jpg,left,1248.6550000030547,true,NA,NA,NA,NA,NA,NA,NA,NA,true
Xfvy5xwV,38f60ialbjuvdvfa6f4is9xu20x0td,3ftyuglfsyypex388xfhtk7q3dnd5p,Xfvy5xwV,2020-0188,2020-06-04,09:47:43,10:05:52,NA,incomplete,21,number,1,1,right,Blue_Star_Chess_4.jpg,Green_Star_Dots_1.jpg,Purple_Plus_Grid_4.jpg,right,855.5199999827892,true,NA,NA,NA,NA,NA,NA,NA,NA,true
Xfvy5xwV,38f60ialbjuvdvfa6f4is9xu20x0td,3ftyuglfsyypex388xfhtk7q3dnd5p,Xfvy5xwV,2020-0188,2020-06-04,09:47:43,10:05:52,NA,incomplete,22,number,1,1,left,Red_Plus_Grid_1.jpg,Blue_Star_Stripes_1.jpg,Green_Plus_Dots_3.jpg,left,867.3699998762459,true,NA,NA,NA,NA,NA,NA,NA,NA,true
Xfvy5xwV,38f60ialbjuvdvfa6f4is9xu20x0td,3ftyuglfsyypex388xfhtk7q3dnd5p,Xfvy5xwV,2020-0188,2020-06-04,09:47:43,10:05:52,NA,incomplete,23,number,1,1,left,Purple_Plus_Grid_2.jpg,Green_Star_Chess_2.jpg,Blue_Plus_Dots_3.jpg,right,799.424999859184,false,NA,NA,NA,NA,NA,NA,NA,NA,true
Xfvy5xwV,38f60ialbjuvdvfa6f4is9xu20x0td,3ftyuglfsyypex388xfhtk7q3dnd5p,Xfvy5xwV,2020-0188,2020-06-04,09:47:43,10:05:52,NA,incomplete,24,number,1,0,left,Green_Star_Dots_4.jpg,Blue_Triangle_Stripes_4.jpg,Purple_Star_Chess_2.jpg,left,963.4000000078231,true,NA,NA,NA,NA,NA,NA,NA,NA,true
Xfvy5xwV,38f60ialbjuvdvfa6f4is9xu20x0td,3ftyuglfsyypex388xfhtk7q3dnd5p,Xfvy5xwV,2020-0188,2020-06-04,09:47:43,10:05:52,NA,incomplete,25,number,1,1,right,Purple_Star_Chess_3.jpg,Red_Star_Grid_1.jpg,Blue_Circle_Dots_3.jpg,right,950.4899999592453,true,NA,NA,NA,NA,NA,NA,NA,NA,true
Xfvy5xwV,38f60ialbjuvdvfa6f4is9xu20x0td,3ftyuglfsyypex388xfhtk7q3dnd5p,Xfvy5xwV,2020-0188,2020-06-04,09:47:43,10:05:52,NA,incomplete,26,number,1,1,right,Green_Plus_Dots_2.jpg,Red_Plus_Chess_3.jpg,Purple_Triangle_Grid_2.jpg,right,1130.69500005804,true,NA,NA,NA,NA,NA,NA,NA,NA,true
Xfvy5xwV,38f60ialbjuvdvfa6f4is9xu20x0td,3ftyuglfsyypex388xfhtk7q3dnd5p,Xfvy5xwV,2020-0188,2020-06-04,09:47:43,10:05:52,NA,incomplete,27,number,1,1,right,Purple_Star_Chess_1.jpg,Green_Star_Grid_4.jpg,Blue_Circle_Dots_1.jpg,right,900.4949999507517,true,NA,NA,NA,NA,NA,NA,NA,NA,true
Xfvy5xwV,38f60ialbjuvdvfa6f4is9xu20x0td,3ftyuglfsyypex388xfhtk7q3dnd5p,Xfvy5xwV,2020-0188,2020-06-04,09:47:43,10:05:52,NA,incomplete,28,number,1,0,left,Red_Triangle_Dots_1.jpg,Purple_Circle_Stripes_1.jpg,Blue_Triangle_Chess_3.jpg,left,708.9400000404567,true,NA,NA,NA,NA,NA,NA,NA,NA,true
Xfvy5xwV,38f60ialbjuvdvfa6f4is9xu20x0td,3ftyuglfsyypex388xfhtk7q3dnd5p,Xfvy5xwV,2020-0188,2020-06-04,09:47:43,10:05:52,NA,incomplete,29,number,1,1,left,Red_Circle_Stripes_4.jpg,Green_Triangle_Dots_4.jpg,Purple_Circle_Grid_2.jpg,left,971.3050001300871,true,NA,NA,NA,NA,NA,NA,NA,NA,true
Xfvy5xwV,38f60ialbjuvdvfa6f4is9xu20x0td,3ftyuglfsyypex388xfhtk7q3dnd5p,Xfvy5xwV,2020-0188,2020-06-04,09:47:43,10:05:52,NA,incomplete,30,number,1,1,right,Purple_Triangle_Stripes_2.jpg,Blue_Triangle_Grid_4.jpg,Green_Circle_Dots_2.jpg,right,868.070000084117,true,NA,NA,NA,NA,NA,NA,NA,NA,true
Xfvy5xwV,38f60ialbjuvdvfa6f4is9xu20x0td,3ftyuglfsyypex388xfhtk7q3dnd5p,Xfvy5xwV,2020-0188,2020-06-04,09:47:43,10:05:52,NA,incomplete,31,number,1,1,right,Green_Triangle_Chess_1.jpg,Red_Triangle_Grid_2.jpg,Blue_Star_Stripes_1.jpg,right,1034.3649999704212,true,NA,NA,NA,NA,NA,NA,NA,NA,true
Xfvy5xwV,38f60ialbjuvdvfa6f4is9xu20x0td,3ftyuglfsyypex388xfhtk7q3dnd5p,Xfvy5xwV,2020-0188,2020-06-04,09:47:43,10:05:52,NA,incomplete,32,number,1,1,left,Blue_Star_Grid_2.jpg,Red_Plus_Chess_2.jpg,Green_Star_Dots_4.jpg,left,893.0649999529123,true,NA,NA,NA,NA,NA,NA,NA,NA,true
Xfvy5xwV,38f60ialbjuvdvfa6f4is9xu20x0td,3ftyuglfsyypex388xfhtk7q3dnd5p,Xfvy5xwV,2020-0188,2020-06-04,09:47:43,10:05:52,NA,incomplete,33,number,1,0,left,Purple_Circle_Stripes_2.jpg,Green_Star_Dots_2.jpg,Red_Circle_Grid_1.jpg,left,1015.0099999736995,true,NA,NA,NA,NA,NA,NA,NA,NA,true
Xfvy5xwV,38f60ialbjuvdvfa6f4is9xu20x0td,3ftyuglfsyypex388xfhtk7q3dnd5p,Xfvy5xwV,2020-0188,2020-06-04,09:47:43,10:05:52,NA,incomplete,34,number,1,1,right,Purple_Plus_Dots_3.jpg,Green_Plus_Chess_2.jpg,Blue_Triangle_Grid_3.jpg,right,795.6250000279397,true,NA,NA,NA,NA,NA,NA,NA,NA,true
Xfvy5xwV,38f60ialbjuvdvfa6f4is9xu20x0td,3ftyuglfsyypex388xfhtk7q3dnd5p,Xfvy5xwV,2020-0188,2020-06-04,09:47:43,10:05:52,NA,incomplete,35,number,1,1,left,Purple_Star_Chess_1.jpg,Blue_Circle_Dots_1.jpg,Red_Star_Grid_2.jpg,left,794.2500000353903,true,NA,NA,NA,NA,NA,NA,NA,NA,true
Xfvy5xwV,38f60ialbjuvdvfa6f4is9xu20x0td,3ftyuglfsyypex388xfhtk7q3dnd5p,Xfvy5xwV,2020-0188,2020-06-04,09:47:43,10:05:52,NA,incomplete,36,number,1,1,left,Green_Plus_Grid_2.jpg,Purple_Triangle_Stripes_2.jpg,Blue_Plus_Chess_4.jpg,left,1071.6150000225753,true,NA,NA,NA,NA,NA,NA,NA,NA,true
Xfvy5xwV,38f60ialbjuvdvfa6f4is9xu20x0td,3ftyuglfsyypex388xfhtk7q3dnd5p,Xfvy5xwV,2020-0188,2020-06-04,09:47:43,10:05:52,NA,incomplete,37,number,1,1,left,Green_Triangle_Grid_3.jpg,Purple_Plus_Dots_3.jpg,Blue_Triangle_Stripes_4.jpg,left,755.0250000786036,true,NA,NA,NA,NA,NA,NA,NA,NA,true
Xfvy5xwV,38f60ialbjuvdvfa6f4is9xu20x0td,3ftyuglfsyypex388xfhtk7q3dnd5p,Xfvy5xwV,2020-0188,2020-06-04,09:47:43,10:05:52,NA,incomplete,38,number,1,1,right,Red_Triangle_Dots_3.jpg,Purple_Triangle_Stripes_1.jpg,Blue_Plus_Grid_3.jpg,right,672.9700001887977,true,NA,NA,NA,NA,NA,NA,NA,NA,true
Xfvy5xwV,38f60ialbjuvdvfa6f4is9xu20x0td,3ftyuglfsyypex388xfhtk7q3dnd5p,Xfvy5xwV,2020-0188,2020-06-04,09:47:43,10:05:52,NA,incomplete,39,number,1,0,left,Purple_Circle_Stripes_2.jpg,Red_Triangle_Dots_2.jpg,Green_Circle_Chess_3.jpg,left,793.135000159964,true,NA,NA,NA,NA,NA,NA,NA,NA,true
Xfvy5xwV,38f60ialbjuvdvfa6f4is9xu20x0td,3ftyuglfsyypex388xfhtk7q3dnd5p,Xfvy5xwV,2020-0188,2020-06-04,09:47:43,10:05:52,NA,incomplete,0,shape,0,1,left,Red_Star_Stripes_2.jpg,Purple_Star_Dots_3.jpg,Blue_Plus_Chess_2.jpg,right,997.2900000866503,false,high,NA,NA,NA,NA,NA,NA,NA,false
Xfvy5xwV,38f60ialbjuvdvfa6f4is9xu20x0td,3ftyuglfsyypex388xfhtk7q3dnd5p,Xfvy5xwV,2020-0188,2020-06-04,09:47:43,10:05:52,NA,incomplete,1,shape,0,1,right,Red_Triangle_Grid_4.jpg,Purple_Star_Dots_4.jpg,Green_Triangle_Chess_1.jpg,left,744.1149998921901,false,high,NA,NA,NA,NA,NA,NA,NA,false
Xfvy5xwV,38f60ialbjuvdvfa6f4is9xu20x0td,3ftyuglfsyypex388xfhtk7q3dnd5p,Xfvy5xwV,2020-0188,2020-06-04,09:47:43,10:05:52,NA,incomplete,2,shape,0,1,right,Purple_Star_Grid_1.jpg,Green_Plus_Dots_1.jpg,Red_Star_Stripes_4.jpg,left,575.8599999826401,false,high,NA,NA,NA,NA,NA,NA,NA,false
Xfvy5xwV,38f60ialbjuvdvfa6f4is9xu20x0td,3ftyuglfsyypex388xfhtk7q3dnd5p,Xfvy5xwV,2020-0188,2020-06-04,09:47:43,10:05:52,NA,incomplete,3,shape,0,1,right,Purple_Triangle_Stripes_4.jpg,Blue_Plus_Dots_4.jpg,Red_Triangle_Grid_3.jpg,right,808.6950001306832,true,high,NA,NA,NA,NA,NA,NA,NA,false
Xfvy5xwV,38f60ialbjuvdvfa6f4is9xu20x0td,3ftyuglfsyypex388xfhtk7q3dnd5p,Xfvy5xwV,2020-0188,2020-06-04,09:47:43,10:05:52,NA,incomplete,4,shape,0,1,left,Red_Triangle_Chess_1.jpg,Green_Triangle_Grid_4.jpg,Purple_Star_Stripes_1.jpg,right,811.8749998975545,false,high,NA,NA,NA,NA,NA,NA,NA,false
Xfvy5xwV,38f60ialbjuvdvfa6f4is9xu20x0td,3ftyuglfsyypex388xfhtk7q3dnd5p,Xfvy5xwV,2020-0188,2020-06-04,09:47:43,10:05:52,NA,incomplete,5,shape,0,1,left,Purple_Star_Grid_3.jpg,Blue_Star_Chess_2.jpg,Red_Circle_Dots_3.jpg,left,731.3050001394004,true,high,NA,NA,NA,NA,NA,NA,NA,false
Xfvy5xwV,38f60ialbjuvdvfa6f4is9xu20x0td,3ftyuglfsyypex388xfhtk7q3dnd5p,Xfvy5xwV,2020-0188,2020-06-04,09:47:43,10:05:52,NA,incomplete,6,shape,0,0,right,Green_Star_Stripes_2.jpg,Red_Circle_Dots_2.jpg,Purple_Star_Grid_3.jpg,right,618.3199998922646,true,high,NA,NA,NA,NA,NA,NA,NA,false
Xfvy5xwV,38f60ialbjuvdvfa6f4is9xu20x0td,3ftyuglfsyypex388xfhtk7q3dnd5p,Xfvy5xwV,2020-0188,2020-06-04,09:47:43,10:05:52,NA,incomplete,7,shape,0,1,right,Red_Star_Dots_4.jpg,Purple_Plus_Stripes_4.jpg,Blue_Star_Chess_2.jpg,left,687.4299999326468,false,high,NA,NA,NA,NA,NA,NA,NA,false
Xfvy5xwV,38f60ialbjuvdvfa6f4is9xu20x0td,3ftyuglfsyypex388xfhtk7q3dnd5p,Xfvy5xwV,2020-0188,2020-06-04,09:47:43,10:05:52,NA,incomplete,8,shape,0,1,left,Blue_Plus_Grid_3.jpg,Green_Plus_Chess_1.jpg,Purple_Triangle_Stripes_3.jpg,left,794.0849999431521,true,high,NA,NA,NA,NA,NA,NA,NA,false
Xfvy5xwV,38f60ialbjuvdvfa6f4is9xu20x0td,3ftyuglfsyypex388xfhtk7q3dnd5p,Xfvy5xwV,2020-0188,2020-06-04,09:47:43,10:05:52,NA,incomplete,9,shape,0,1,left,Red_Triangle_Stripes_3.jpg,Green_Triangle_Grid_4.jpg,Purple_Plus_Chess_3.jpg,left,633.4999999962747,true,high,NA,NA,NA,NA,NA,NA,NA,false
Xfvy5xwV,38f60ialbjuvdvfa6f4is9xu20x0td,3ftyuglfsyypex388xfhtk7q3dnd5p,Xfvy5xwV,2020-0188,2020-06-04,09:47:43,10:05:52,NA,incomplete,10,number,1,1,right,Red_Star_Dots_2.jpg,Blue_Star_Stripes_3.jpg,Green_Plus_Grid_2.jpg,left,731.764999916777,false,high,NA,NA,NA,NA,NA,NA,NA,false
Xfvy5xwV,38f60ialbjuvdvfa6f4is9xu20x0td,3ftyuglfsyypex388xfhtk7q3dnd5p,Xfvy5xwV,2020-0188,2020-06-04,09:47:43,10:05:52,NA,incomplete,11,number,1,1,left,Green_Triangle_Stripes_2.jpg,Red_Star_Dots_2.jpg,Blue_Triangle_Chess_1.jpg,right,759.0999999083579,false,high,NA,NA,NA,NA,NA,NA,NA,false
Xfvy5xwV,38f60ialbjuvdvfa6f4is9xu20x0td,3ftyuglfsyypex388xfhtk7q3dnd5p,Xfvy5xwV,2020-0188,2020-06-04,09:47:43,10:05:52,NA,incomplete,12,number,1,1,right,Green_Circle_Chess_4.jpg,Blue_Circle_Grid_1.jpg,Purple_Star_Stripes_4.jpg,left,648.4899998176843,false,high,NA,NA,NA,NA,NA,NA,NA,false
Xfvy5xwV,38f60ialbjuvdvfa6f4is9xu20x0td,3ftyuglfsyypex388xfhtk7q3dnd5p,Xfvy5xwV,2020-0188,2020-06-04,09:47:43,10:05:52,NA,incomplete,13,number,1,1,right,Purple_Triangle_Stripes_4.jpg,Green_Triangle_Grid_3.jpg,Red_Circle_Chess_4.jpg,left,630.4999999701977,false,high,NA,NA,NA,NA,NA,NA,NA,false
Xfvy5xwV,38f60ialbjuvdvfa6f4is9xu20x0td,3ftyuglfsyypex388xfhtk7q3dnd5p,Xfvy5xwV,2020-0188,2020-06-04,09:47:43,10:05:52,NA,incomplete,14,number,1,1,right,Blue_Triangle_Dots_3.jpg,Red_Triangle_Grid_4.jpg,Green_Plus_Chess_3.jpg,left,671.4300001040101,false,high,NA,NA,NA,NA,NA,NA,NA,false
Xfvy5xwV,38f60ialbjuvdvfa6f4is9xu20x0td,3ftyuglfsyypex388xfhtk7q3dnd5p,Xfvy5xwV,2020-0188,2020-06-04,09:47:43,10:05:52,NA,incomplete,15,number,1,1,left,Red_Circle_Grid_2.jpg,Green_Plus_Chess_2.jpg,Purple_Circle_Dots_1.jpg,right,645.6100000068545,false,high,NA,NA,NA,NA,NA,NA,NA,false
Xfvy5xwV,38f60ialbjuvdvfa6f4is9xu20x0td,3ftyuglfsyypex388xfhtk7q3dnd5p,Xfvy5xwV,2020-0188,2020-06-04,09:47:43,10:05:52,NA,incomplete,16,number,1,0,right,Purple_Triangle_Stripes_3.jpg,Red_Triangle_Chess_2.jpg,Green_Star_Dots_3.jpg,left,649.6999999508262,false,high,NA,NA,NA,NA,NA,NA,NA,false
Xfvy5xwV,38f60ialbjuvdvfa6f4is9xu20x0td,3ftyuglfsyypex388xfhtk7q3dnd5p,Xfvy5xwV,2020-0188,2020-06-04,09:47:43,10:05:52,NA,incomplete,17,number,1,1,right,Green_Triangle_Stripes_4.jpg,Purple_Triangle_Chess_2.jpg,Red_Circle_Dots_4.jpg,left,566.8899999000132,false,high,NA,NA,NA,NA,NA,NA,NA,false
Xfvy5xwV,38f60ialbjuvdvfa6f4is9xu20x0td,3ftyuglfsyypex388xfhtk7q3dnd5p,Xfvy5xwV,2020-0188,2020-06-04,09:47:43,10:05:52,NA,incomplete,18,number,1,1,left,Blue_Plus_Dots_4.jpg,Red_Circle_Chess_4.jpg,Purple_Plus_Grid_3.jpg,right,592.0900001656264,false,high,NA,NA,NA,NA,NA,NA,NA,false
Xfvy5xwV,38f60ialbjuvdvfa6f4is9xu20x0td,3ftyuglfsyypex388xfhtk7q3dnd5p,Xfvy5xwV,2020-0188,2020-06-04,09:47:43,10:05:52,NA,incomplete,19,number,1,1,left,Green_Plus_Stripes_4.jpg,Blue_Star_Dots_4.jpg,Purple_Plus_Grid_1.jpg,right,741.5350000374019,false,high,NA,NA,NA,NA,NA,NA,NA,false
Xfvy5xwV,38f60ialbjuvdvfa6f4is9xu20x0td,3ftyuglfsyypex388xfhtk7q3dnd5p,Xfvy5xwV,2020-0188,2020-06-04,09:47:43,10:05:52,NA,incomplete,20,shape,0,1,left,Green_Plus_Dots_3.jpg,Blue_Plus_Chess_2.jpg,Red_Triangle_Grid_3.jpg,left,677.57000005804,true,high,NA,NA,NA,NA,NA,NA,NA,false
Xfvy5xwV,38f60ialbjuvdvfa6f4is9xu20x0td,3ftyuglfsyypex388xfhtk7q3dnd5p,Xfvy5xwV,2020-0188,2020-06-04,09:47:43,10:05:52,NA,incomplete,21,shape,0,1,right,Red_Circle_Stripes_2.jpg,Purple_Star_Grid_2.jpg,Blue_Circle_Dots_3.jpg,right,565.7699999865144,true,high,NA,NA,NA,NA,NA,NA,NA,false
Xfvy5xwV,38f60ialbjuvdvfa6f4is9xu20x0td,3ftyuglfsyypex388xfhtk7q3dnd5p,Xfvy5xwV,2020-0188,2020-06-04,09:47:43,10:05:52,NA,incomplete,22,shape,0,0,right,Green_Plus_Dots_1.jpg,Blue_Triangle_Chess_1.jpg,Purple_Plus_Stripes_4.jpg,right,671.390000032261,true,high,NA,NA,NA,NA,NA,NA,NA,false
Xfvy5xwV,38f60ialbjuvdvfa6f4is9xu20x0td,3ftyuglfsyypex388xfhtk7q3dnd5p,Xfvy5xwV,2020-0188,2020-06-04,09:47:43,10:05:52,NA,incomplete,23,shape,0,1,right,Blue_Star_Chess_4.jpg,Purple_Triangle_Stripes_4.jpg,Red_Star_Dots_2.jpg,right,620.5499998759478,true,high,NA,NA,NA,NA,NA,NA,NA,false
Xfvy5xwV,38f60ialbjuvdvfa6f4is9xu20x0td,3ftyuglfsyypex388xfhtk7q3dnd5p,Xfvy5xwV,2020-0188,2020-06-04,09:47:43,10:05:52,NA,incomplete,24,shape,0,1,right,Red_Triangle_Chess_1.jpg,Green_Star_Dots_1.jpg,Purple_Triangle_Stripes_3.jpg,right,645.4549999907613,true,high,NA,NA,NA,NA,NA,NA,NA,false
Xfvy5xwV,38f60ialbjuvdvfa6f4is9xu20x0td,3ftyuglfsyypex388xfhtk7q3dnd5p,Xfvy5xwV,2020-0188,2020-06-04,09:47:43,10:05:52,NA,incomplete,25,shape,0,1,right,Red_Triangle_Grid_3.jpg,Green_Plus_Dots_3.jpg,Blue_Triangle_Chess_1.jpg,right,672.5750002078712,true,high,NA,NA,NA,NA,NA,NA,NA,false
Xfvy5xwV,38f60ialbjuvdvfa6f4is9xu20x0td,3ftyuglfsyypex388xfhtk7q3dnd5p,Xfvy5xwV,2020-0188,2020-06-04,09:47:43,10:05:52,NA,incomplete,26,shape,0,1,left,Red_Circle_Dots_4.jpg,Blue_Circle_Stripes_2.jpg,Green_Triangle_Grid_4.jpg,left,676.075000083074,true,high,NA,NA,NA,NA,NA,NA,NA,false
Xfvy5xwV,38f60ialbjuvdvfa6f4is9xu20x0td,3ftyuglfsyypex388xfhtk7q3dnd5p,Xfvy5xwV,2020-0188,2020-06-04,09:47:43,10:05:52,NA,incomplete,27,shape,0,1,left,Purple_Circle_Stripes_4.jpg,Blue_Circle_Chess_3.jpg,Red_Star_Grid_4.jpg,left,613.6549999937415,true,high,NA,NA,NA,NA,NA,NA,NA,false
Xfvy5xwV,38f60ialbjuvdvfa6f4is9xu20x0td,3ftyuglfsyypex388xfhtk7q3dnd5p,Xfvy5xwV,2020-0188,2020-06-04,09:47:43,10:05:52,NA,incomplete,28,shape,0,0,right,Blue_Star_Chess_4.jpg,Purple_Plus_Grid_4.jpg,Red_Star_Dots_1.jpg,right,574.1799999959767,true,high,NA,NA,NA,NA,NA,NA,NA,false
Xfvy5xwV,38f60ialbjuvdvfa6f4is9xu20x0td,3ftyuglfsyypex388xfhtk7q3dnd5p,Xfvy5xwV,2020-0188,2020-06-04,09:47:43,10:05:52,NA,incomplete,29,shape,0,0,left,Blue_Plus_Chess_4.jpg,Red_Plus_Dots_2.jpg,Purple_Triangle_Grid_4.jpg,left,831.5000000875443,true,high,NA,NA,NA,NA,NA,NA,NA,false
Xfvy5xwV,38f60ialbjuvdvfa6f4is9xu20x0td,3ftyuglfsyypex388xfhtk7q3dnd5p,Xfvy5xwV,2020-0188,2020-06-04,09:47:43,10:05:52,NA,incomplete,30,number,1,1,right,Blue_Triangle_Grid_2.jpg,Green_Triangle_Dots_1.jpg,Red_Circle_Chess_2.jpg,left,679.0299999993294,false,high,NA,NA,NA,NA,NA,NA,NA,false
Xfvy5xwV,38f60ialbjuvdvfa6f4is9xu20x0td,3ftyuglfsyypex388xfhtk7q3dnd5p,Xfvy5xwV,2020-0188,2020-06-04,09:47:43,10:05:52,NA,incomplete,31,number,1,1,left,Blue_Plus_Grid_3.jpg,Red_Triangle_Stripes_3.jpg,Purple_Plus_Dots_2.jpg,right,818.1100001093,false,high,NA,NA,NA,NA,NA,NA,NA,false
Xfvy5xwV,38f60ialbjuvdvfa6f4is9xu20x0td,3ftyuglfsyypex388xfhtk7q3dnd5p,Xfvy5xwV,2020-0188,2020-06-04,09:47:43,10:05:52,NA,incomplete,32,number,1,1,right,Green_Triangle_Chess_2.jpg,Blue_Triangle_Dots_1.jpg,Purple_Plus_Grid_2.jpg,right,897.4100002087653,true,high,NA,NA,NA,NA,NA,NA,NA,false
Xfvy5xwV,38f60ialbjuvdvfa6f4is9xu20x0td,3ftyuglfsyypex388xfhtk7q3dnd5p,Xfvy5xwV,2020-0188,2020-06-04,09:47:43,10:05:52,NA,incomplete,33,number,1,1,right,Blue_Star_Chess_4.jpg,Green_Star_Dots_1.jpg,Red_Triangle_Stripes_4.jpg,right,834.9850000813603,true,high,NA,NA,NA,NA,NA,NA,NA,false
Xfvy5xwV,38f60ialbjuvdvfa6f4is9xu20x0td,3ftyuglfsyypex388xfhtk7q3dnd5p,Xfvy5xwV,2020-0188,2020-06-04,09:47:43,10:05:52,NA,incomplete,34,number,1,1,right,Green_Star_Chess_3.jpg,Purple_Star_Grid_1.jpg,Red_Circle_Dots_3.jpg,right,732.5849998742342,true,high,NA,NA,NA,NA,NA,NA,NA,false
Xfvy5xwV,38f60ialbjuvdvfa6f4is9xu20x0td,3ftyuglfsyypex388xfhtk7q3dnd5p,Xfvy5xwV,2020-0188,2020-06-04,09:47:43,10:05:52,NA,incomplete,35,number,1,1,left,Red_Star_Dots_3.jpg,Blue_Circle_Grid_3.jpg,Green_Star_Stripes_4.jpg,left,889.3449997995049,true,high,NA,NA,NA,NA,NA,NA,NA,false
Xfvy5xwV,38f60ialbjuvdvfa6f4is9xu20x0td,3ftyuglfsyypex388xfhtk7q3dnd5p,Xfvy5xwV,2020-0188,2020-06-04,09:47:43,10:05:52,NA,incomplete,36,number,1,1,left,Blue_Triangle_Stripes_4.jpg,Purple_Plus_Dots_4.jpg,Green_Triangle_Grid_3.jpg,left,907.890000147745,true,high,NA,NA,NA,NA,NA,NA,NA,false
Xfvy5xwV,38f60ialbjuvdvfa6f4is9xu20x0td,3ftyuglfsyypex388xfhtk7q3dnd5p,Xfvy5xwV,2020-0188,2020-06-04,09:47:43,10:05:52,NA,incomplete,37,number,1,1,left,Red_Star_Stripes_2.jpg,Blue_Circle_Grid_2.jpg,Purple_Star_Chess_4.jpg,left,700.1849999651313,true,high,NA,NA,NA,NA,NA,NA,NA,false
Xfvy5xwV,38f60ialbjuvdvfa6f4is9xu20x0td,3ftyuglfsyypex388xfhtk7q3dnd5p,Xfvy5xwV,2020-0188,2020-06-04,09:47:43,10:05:52,NA,incomplete,38,number,1,0,left,Red_Star_Dots_3.jpg,Blue_Plus_Grid_3.jpg,Green_Star_Chess_2.jpg,left,665.2299999259412,true,high,NA,NA,NA,NA,NA,NA,NA,false
Xfvy5xwV,38f60ialbjuvdvfa6f4is9xu20x0td,3ftyuglfsyypex388xfhtk7q3dnd5p,Xfvy5xwV,2020-0188,2020-06-04,09:47:43,10:05:52,NA,incomplete,39,number,1,1,right,Purple_Plus_Chess_2.jpg,Blue_Plus_Dots_3.jpg,Green_Circle_Stripes_2.jpg,right,648.3399998396635,true,high,NA,NA,NA,NA,NA,NA,NA,false
Xfvy5xwV,38f60ialbjuvdvfa6f4is9xu20x0td,3ftyuglfsyypex388xfhtk7q3dnd5p,Xfvy5xwV,2020-0188,2020-06-04,09:47:43,10:05:52,NA,incomplete,40,shape,0,1,right,Green_Circle_Grid_4.jpg,Blue_Star_Stripes_4.jpg,Purple_Circle_Chess_3.jpg,left,804.8899997957051,false,high,NA,NA,NA,NA,NA,NA,NA,false
Xfvy5xwV,38f60ialbjuvdvfa6f4is9xu20x0td,3ftyuglfsyypex388xfhtk7q3dnd5p,Xfvy5xwV,2020-0188,2020-06-04,09:47:43,10:05:52,NA,incomplete,41,shape,0,1,left,Blue_Plus_Dots_2.jpg,Purple_Plus_Chess_4.jpg,Red_Star_Stripes_2.jpg,right,678.6800001282245,false,high,NA,NA,NA,NA,NA,NA,NA,false
Xfvy5xwV,38f60ialbjuvdvfa6f4is9xu20x0td,3ftyuglfsyypex388xfhtk7q3dnd5p,Xfvy5xwV,2020-0188,2020-06-04,09:47:43,10:05:52,NA,incomplete,42,shape,0,1,left,Blue_Star_Grid_2.jpg,Green_Star_Dots_3.jpg,Purple_Circle_Stripes_2.jpg,right,801.4350000303239,false,high,NA,NA,NA,NA,NA,NA,NA,false
Xfvy5xwV,38f60ialbjuvdvfa6f4is9xu20x0td,3ftyuglfsyypex388xfhtk7q3dnd5p,Xfvy5xwV,2020-0188,2020-06-04,09:47:43,10:05:52,NA,incomplete,43,shape,0,1,left,Red_Plus_Stripes_4.jpg,Blue_Plus_Dots_3.jpg,Purple_Triangle_Chess_4.jpg,left,734.7300001420081,true,high,NA,NA,NA,NA,NA,NA,NA,false
Xfvy5xwV,38f60ialbjuvdvfa6f4is9xu20x0td,3ftyuglfsyypex388xfhtk7q3dnd5p,Xfvy5xwV,2020-0188,2020-06-04,09:47:43,10:05:52,NA,incomplete,44,shape,0,1,right,Purple_Triangle_Dots_3.jpg,Green_Circle_Grid_3.jpg,Red_Triangle_Stripes_1.jpg,right,744.7349999565631,true,high,NA,NA,NA,NA,NA,NA,NA,false
Xfvy5xwV,38f60ialbjuvdvfa6f4is9xu20x0td,3ftyuglfsyypex388xfhtk7q3dnd5p,Xfvy5xwV,2020-0188,2020-06-04,09:47:43,10:05:52,NA,incomplete,45,shape,0,1,right,Green_Plus_Stripes_3.jpg,Red_Triangle_Grid_3.jpg,Blue_Plus_Chess_2.jpg,right,864.9299999233335,true,high,NA,NA,NA,NA,NA,NA,NA,false
Xfvy5xwV,38f60ialbjuvdvfa6f4is9xu20x0td,3ftyuglfsyypex388xfhtk7q3dnd5p,Xfvy5xwV,2020-0188,2020-06-04,09:47:43,10:05:52,NA,incomplete,46,shape,0,1,left,Red_Triangle_Stripes_2.jpg,Green_Triangle_Dots_1.jpg,Purple_Circle_Grid_2.jpg,left,646.8599999789149,true,high,NA,NA,NA,NA,NA,NA,NA,false
Xfvy5xwV,38f60ialbjuvdvfa6f4is9xu20x0td,3ftyuglfsyypex388xfhtk7q3dnd5p,Xfvy5xwV,2020-0188,2020-06-04,09:47:43,10:05:52,NA,incomplete,47,shape,0,1,left,Blue_Triangle_Stripes_3.jpg,Red_Triangle_Grid_1.jpg,Purple_Circle_Chess_3.jpg,left,628.3549999352545,true,high,NA,NA,NA,NA,NA,NA,NA,false
Xfvy5xwV,38f60ialbjuvdvfa6f4is9xu20x0td,3ftyuglfsyypex388xfhtk7q3dnd5p,Xfvy5xwV,2020-0188,2020-06-04,09:47:43,10:05:52,NA,incomplete,48,shape,0,1,right,Red_Triangle_Grid_3.jpg,Green_Plus_Chess_3.jpg,Purple_Triangle_Dots_2.jpg,right,845.5049998592585,true,high,NA,NA,NA,NA,NA,NA,NA,false
Xfvy5xwV,38f60ialbjuvdvfa6f4is9xu20x0td,3ftyuglfsyypex388xfhtk7q3dnd5p,Xfvy5xwV,2020-0188,2020-06-04,09:47:43,10:05:52,NA,incomplete,49,shape,0,1,right,Blue_Star_Dots_1.jpg,Purple_Plus_Stripes_1.jpg,Green_Star_Chess_4.jpg,right,734.2000000644475,true,high,NA,NA,NA,NA,NA,NA,NA,false
Xfvy5xwV,38f60ialbjuvdvfa6f4is9xu20x0td,3ftyuglfsyypex388xfhtk7q3dnd5p,Xfvy5xwV,2020-0188,2020-06-04,09:47:43,10:05:52,NA,incomplete,50,number,1,1,left,Green_Plus_Dots_2.jpg,Purple_Triangle_Chess_2.jpg,Red_Plus_Stripes_3.jpg,right,548.9700001198798,false,high,NA,NA,NA,NA,NA,NA,NA,false
Xfvy5xwV,38f60ialbjuvdvfa6f4is9xu20x0td,3ftyuglfsyypex388xfhtk7q3dnd5p,Xfvy5xwV,2020-0188,2020-06-04,09:47:43,10:05:52,NA,incomplete,51,number,1,1,right,Blue_Star_Chess_3.jpg,Green_Star_Stripes_1.jpg,Purple_Triangle_Dots_3.jpg,left,721.8599999323487,false,high,NA,NA,NA,NA,NA,NA,NA,false
Xfvy5xwV,38f60ialbjuvdvfa6f4is9xu20x0td,3ftyuglfsyypex388xfhtk7q3dnd5p,Xfvy5xwV,2020-0188,2020-06-04,09:47:43,10:05:52,NA,incomplete,52,number,1,1,left,Blue_Plus_Chess_2.jpg,Purple_Circle_Dots_2.jpg,Red_Plus_Grid_1.jpg,right,638.4549997746944,false,high,NA,NA,NA,NA,NA,NA,NA,false
Xfvy5xwV,38f60ialbjuvdvfa6f4is9xu20x0td,3ftyuglfsyypex388xfhtk7q3dnd5p,Xfvy5xwV,2020-0188,2020-06-04,09:47:43,10:05:52,NA,incomplete,53,number,1,1,right,Red_Star_Stripes_1.jpg,Blue_Star_Grid_2.jpg,Purple_Triangle_Chess_1.jpg,right,631.5500000491738,true,high,NA,NA,NA,NA,NA,NA,NA,false
Xfvy5xwV,38f60ialbjuvdvfa6f4is9xu20x0td,3ftyuglfsyypex388xfhtk7q3dnd5p,Xfvy5xwV,2020-0188,2020-06-04,09:47:43,10:05:52,NA,incomplete,54,number,1,1,right,Red_Triangle_Chess_2.jpg,Blue_Triangle_Stripes_4.jpg,Green_Plus_Dots_2.jpg,right,770.2450000215322,true,high,NA,NA,NA,NA,NA,NA,NA,false
Xfvy5xwV,38f60ialbjuvdvfa6f4is9xu20x0td,3ftyuglfsyypex388xfhtk7q3dnd5p,Xfvy5xwV,2020-0188,2020-06-04,09:47:43,10:05:52,NA,incomplete,55,number,1,0,left,Purple_Plus_Stripes_1.jpg,Red_Circle_Dots_1.jpg,Blue_Plus_Chess_4.jpg,left,702.5750000029802,true,high,NA,NA,NA,NA,NA,NA,NA,false
Xfvy5xwV,38f60ialbjuvdvfa6f4is9xu20x0td,3ftyuglfsyypex388xfhtk7q3dnd5p,Xfvy5xwV,2020-0188,2020-06-04,09:47:43,10:05:52,NA,incomplete,56,number,1,1,left,Purple_Circle_Stripes_3.jpg,Blue_Triangle_Chess_3.jpg,Red_Circle_Dots_1.jpg,right,776.975000044331,false,high,NA,NA,NA,NA,NA,NA,NA,false
Xfvy5xwV,38f60ialbjuvdvfa6f4is9xu20x0td,3ftyuglfsyypex388xfhtk7q3dnd5p,Xfvy5xwV,2020-0188,2020-06-04,09:47:43,10:05:52,NA,incomplete,57,number,1,1,right,Purple_Star_Dots_1.jpg,Blue_Star_Chess_2.jpg,Red_Circle_Stripes_1.jpg,right,677.6099998969585,true,high,NA,NA,NA,NA,NA,NA,NA,false
Xfvy5xwV,38f60ialbjuvdvfa6f4is9xu20x0td,3ftyuglfsyypex388xfhtk7q3dnd5p,Xfvy5xwV,2020-0188,2020-06-04,09:47:43,10:05:52,NA,incomplete,58,number,1,1,left,Blue_Circle_Chess_4.jpg,Green_Triangle_Grid_4.jpg,Purple_Circle_Stripes_1.jpg,left,692.6649999804795,true,high,NA,NA,NA,NA,NA,NA,NA,false
Xfvy5xwV,38f60ialbjuvdvfa6f4is9xu20x0td,3ftyuglfsyypex388xfhtk7q3dnd5p,Xfvy5xwV,2020-0188,2020-06-04,09:47:43,10:05:52,NA,incomplete,59,number,1,1,right,Purple_Triangle_Dots_2.jpg,Blue_Triangle_Chess_3.jpg,Green_Star_Grid_2.jpg,right,710.1549999788404,true,high,NA,NA,NA,NA,NA,NA,NA,false
Xfvy5xwV,38f60ialbjuvdvfa6f4is9xu20x0td,3ftyuglfsyypex388xfhtk7q3dnd5p,Xfvy5xwV,2020-0188,2020-06-04,09:47:43,10:05:52,NA,incomplete,60,shape,0,0,left,Blue_Triangle_Chess_3.jpg,Purple_Triangle_Dots_2.jpg,Red_Star_Grid_3.jpg,right,754.8899999819696,false,high,NA,NA,NA,NA,NA,NA,NA,false
Xfvy5xwV,38f60ialbjuvdvfa6f4is9xu20x0td,3ftyuglfsyypex388xfhtk7q3dnd5p,Xfvy5xwV,2020-0188,2020-06-04,09:47:43,10:05:52,NA,incomplete,61,shape,0,1,right,Purple_Circle_Stripes_1.jpg,Red_Plus_Chess_1.jpg,Blue_Circle_Grid_4.jpg,left,780.8799999766052,false,high,NA,NA,NA,NA,NA,NA,NA,false
Xfvy5xwV,38f60ialbjuvdvfa6f4is9xu20x0td,3ftyuglfsyypex388xfhtk7q3dnd5p,Xfvy5xwV,2020-0188,2020-06-04,09:47:43,10:05:52,NA,incomplete,62,shape,0,1,left,Green_Triangle_Grid_1.jpg,Red_Triangle_Dots_3.jpg,Purple_Star_Stripes_1.jpg,right,831.3400000333786,false,high,NA,NA,NA,NA,NA,NA,NA,false
Xfvy5xwV,38f60ialbjuvdvfa6f4is9xu20x0td,3ftyuglfsyypex388xfhtk7q3dnd5p,Xfvy5xwV,2020-0188,2020-06-04,09:47:43,10:05:52,NA,incomplete,63,shape,0,1,left,Green_Plus_Stripes_3.jpg,Blue_Plus_Grid_2.jpg,Purple_Star_Chess_3.jpg,right,727.3999999742955,false,high,NA,NA,NA,NA,NA,NA,NA,false
Xfvy5xwV,38f60ialbjuvdvfa6f4is9xu20x0td,3ftyuglfsyypex388xfhtk7q3dnd5p,Xfvy5xwV,2020-0188,2020-06-04,09:47:43,10:05:52,NA,incomplete,64,shape,0,1,left,Red_Triangle_Chess_2.jpg,Blue_Triangle_Dots_3.jpg,Green_Plus_Stripes_2.jpg,left,692.4449999351054,true,high,NA,NA,NA,NA,NA,NA,NA,false
Xfvy5xwV,38f60ialbjuvdvfa6f4is9xu20x0td,3ftyuglfsyypex388xfhtk7q3dnd5p,Xfvy5xwV,2020-0188,2020-06-04,09:47:43,10:05:52,NA,incomplete,65,shape,0,1,right,Blue_Plus_Stripes_2.jpg,Red_Triangle_Chess_2.jpg,Purple_Plus_Grid_3.jpg,right,716.75999998115,true,high,NA,NA,NA,NA,NA,NA,NA,false
Xfvy5xwV,38f60ialbjuvdvfa6f4is9xu20x0td,3ftyuglfsyypex388xfhtk7q3dnd5p,Xfvy5xwV,2020-0188,2020-06-04,09:47:43,10:05:52,NA,incomplete,66,shape,0,0,left,Purple_Plus_Stripes_1.jpg,Green_Plus_Grid_3.jpg,Red_Triangle_Chess_1.jpg,left,830.599999986589,true,high,NA,NA,NA,NA,NA,NA,NA,false
Xfvy5xwV,38f60ialbjuvdvfa6f4is9xu20x0td,3ftyuglfsyypex388xfhtk7q3dnd5p,Xfvy5xwV,2020-0188,2020-06-04,09:47:43,10:05:52,NA,incomplete,67,shape,0,1,left,Purple_Star_Grid_2.jpg,Green_Star_Stripes_3.jpg,Blue_Circle_Chess_2.jpg,left,867.1600001398474,true,high,NA,NA,NA,NA,NA,NA,NA,false
Xfvy5xwV,38f60ialbjuvdvfa6f4is9xu20x0td,3ftyuglfsyypex388xfhtk7q3dnd5p,Xfvy5xwV,2020-0188,2020-06-04,09:47:43,10:05:52,NA,incomplete,68,shape,0,1,left,Blue_Triangle_Grid_1.jpg,Red_Triangle_Stripes_4.jpg,Purple_Star_Dots_1.jpg,left,831.620000069961,true,high,NA,NA,NA,NA,NA,NA,NA,false
Xfvy5xwV,38f60ialbjuvdvfa6f4is9xu20x0td,3ftyuglfsyypex388xfhtk7q3dnd5p,Xfvy5xwV,2020-0188,2020-06-04,09:47:43,10:05:52,NA,incomplete,69,shape,0,1,right,Red_Circle_Chess_2.jpg,Green_Star_Stripes_2.jpg,Purple_Circle_Dots_4.jpg,right,544.579999987036,true,high,NA,NA,NA,NA,NA,NA,NA,false
Xfvy5xwV,38f60ialbjuvdvfa6f4is9xu20x0td,3ftyuglfsyypex388xfhtk7q3dnd5p,Xfvy5xwV,2020-0188,2020-06-04,09:47:43,10:05:52,NA,incomplete,70,number,1,1,left,Green_Star_Grid_1.jpg,Blue_Circle_Dots_1.jpg,Red_Star_Chess_4.jpg,right,702.0750001538545,false,high,NA,NA,NA,NA,NA,NA,NA,false
Xfvy5xwV,38f60ialbjuvdvfa6f4is9xu20x0td,3ftyuglfsyypex388xfhtk7q3dnd5p,Xfvy5xwV,2020-0188,2020-06-04,09:47:43,10:05:52,NA,incomplete,71,number,1,1,right,Red_Star_Grid_1.jpg,Green_Star_Stripes_4.jpg,Purple_Circle_Dots_1.jpg,left,533.9399999938905,false,high,NA,NA,NA,NA,NA,NA,NA,false
Xfvy5xwV,38f60ialbjuvdvfa6f4is9xu20x0td,3ftyuglfsyypex388xfhtk7q3dnd5p,Xfvy5xwV,2020-0188,2020-06-04,09:47:43,10:05:52,NA,incomplete,72,number,1,0,right,Blue_Triangle_Dots_3.jpg,Purple_Triangle_Grid_2.jpg,Green_Circle_Chess_3.jpg,left,588.0149998702109,false,high,NA,NA,NA,NA,NA,NA,NA,false
Xfvy5xwV,38f60ialbjuvdvfa6f4is9xu20x0td,3ftyuglfsyypex388xfhtk7q3dnd5p,Xfvy5xwV,2020-0188,2020-06-04,09:47:43,10:05:52,NA,incomplete,73,number,1,1,left,Green_Plus_Chess_3.jpg,Red_Star_Dots_3.jpg,Blue_Plus_Stripes_1.jpg,right,806.7550000268966,false,high,NA,NA,NA,NA,NA,NA,NA,false
Xfvy5xwV,38f60ialbjuvdvfa6f4is9xu20x0td,3ftyuglfsyypex388xfhtk7q3dnd5p,Xfvy5xwV,2020-0188,2020-06-04,09:47:43,10:05:52,NA,incomplete,74,number,1,1,left,Purple_Plus_Chess_2.jpg,Red_Circle_Stripes_2.jpg,Blue_Plus_Dots_3.jpg,right,683.784999884665,false,high,NA,NA,NA,NA,NA,NA,NA,false
Xfvy5xwV,38f60ialbjuvdvfa6f4is9xu20x0td,3ftyuglfsyypex388xfhtk7q3dnd5p,Xfvy5xwV,2020-0188,2020-06-04,09:47:43,10:05:52,NA,incomplete,75,number,1,1,right,Red_Circle_Chess_2.jpg,Purple_Circle_Grid_1.jpg,Blue_Triangle_Stripes_2.jpg,left,624.0449999459088,false,high,NA,NA,NA,NA,NA,NA,NA,false
Xfvy5xwV,38f60ialbjuvdvfa6f4is9xu20x0td,3ftyuglfsyypex388xfhtk7q3dnd5p,Xfvy5xwV,2020-0188,2020-06-04,09:47:43,10:05:52,NA,incomplete,76,number,1,1,right,Purple_Triangle_Dots_3.jpg,Blue_Triangle_Chess_1.jpg,Green_Plus_Stripes_3.jpg,right,648.2849998865277,true,high,NA,NA,NA,NA,NA,NA,NA,false
Xfvy5xwV,38f60ialbjuvdvfa6f4is9xu20x0td,3ftyuglfsyypex388xfhtk7q3dnd5p,Xfvy5xwV,2020-0188,2020-06-04,09:47:43,10:05:52,NA,incomplete,77,number,1,1,left,Blue_Circle_Stripes_4.jpg,Green_Plus_Dots_4.jpg,Red_Circle_Chess_1.jpg,left,614.7150001488626,true,high,NA,NA,NA,NA,NA,NA,NA,false
Xfvy5xwV,38f60ialbjuvdvfa6f4is9xu20x0td,3ftyuglfsyypex388xfhtk7q3dnd5p,Xfvy5xwV,2020-0188,2020-06-04,09:47:43,10:05:52,NA,incomplete,78,number,1,1,right,Blue_Plus_Dots_4.jpg,Purple_Plus_Grid_1.jpg,Red_Triangle_Stripes_4.jpg,right,580.4449999704957,true,high,NA,NA,NA,NA,NA,NA,NA,false
Xfvy5xwV,38f60ialbjuvdvfa6f4is9xu20x0td,3ftyuglfsyypex388xfhtk7q3dnd5p,Xfvy5xwV,2020-0188,2020-06-04,09:47:43,10:05:52,NA,incomplete,79,number,1,0,left,Purple_Circle_Grid_4.jpg,Blue_Star_Dots_4.jpg,Red_Circle_Chess_2.jpg,left,641.6100000496954,true,high,NA,NA,NA,NA,NA,NA,NA,false
Xfvy5xwV,38f60ialbjuvdvfa6f4is9xu20x0td,3ftyuglfsyypex388xfhtk7q3dnd5p,Xfvy5xwV,2020-0188,2020-06-04,09:47:43,10:05:52,NA,incomplete,80,shape,0,1,left,Red_Circle_Grid_4.jpg,Blue_Circle_Dots_3.jpg,Green_Triangle_Chess_4.jpg,right,744.1399998497218,false,high,NA,NA,NA,NA,NA,NA,NA,false
Xfvy5xwV,38f60ialbjuvdvfa6f4is9xu20x0td,3ftyuglfsyypex388xfhtk7q3dnd5p,Xfvy5xwV,2020-0188,2020-06-04,09:47:43,10:05:52,NA,incomplete,81,shape,0,0,right,Red_Plus_Chess_2.jpg,Blue_Star_Grid_2.jpg,Green_Plus_Dots_1.jpg,left,719.6800000965595,false,high,NA,NA,NA,NA,NA,NA,NA,false
Xfvy5xwV,38f60ialbjuvdvfa6f4is9xu20x0td,3ftyuglfsyypex388xfhtk7q3dnd5p,Xfvy5xwV,2020-0188,2020-06-04,09:47:43,10:05:52,NA,incomplete,82,shape,0,0,right,Blue_Circle_Stripes_2.jpg,Red_Plus_Grid_2.jpg,Green_Circle_Chess_3.jpg,left,873.0849998537451,false,high,NA,NA,NA,NA,NA,NA,NA,false
Xfvy5xwV,38f60ialbjuvdvfa6f4is9xu20x0td,3ftyuglfsyypex388xfhtk7q3dnd5p,Xfvy5xwV,2020-0188,2020-06-04,09:47:43,10:05:52,NA,incomplete,83,shape,0,0,left,Blue_Star_Stripes_4.jpg,Purple_Star_Dots_3.jpg,Red_Circle_Grid_4.jpg,right,755.2149998955429,false,high,NA,NA,NA,NA,NA,NA,NA,false
Xfvy5xwV,38f60ialbjuvdvfa6f4is9xu20x0td,3ftyuglfsyypex388xfhtk7q3dnd5p,Xfvy5xwV,2020-0188,2020-06-04,09:47:43,10:05:52,NA,incomplete,84,shape,0,1,left,Green_Circle_Dots_2.jpg,Red_Circle_Stripes_1.jpg,Purple_Star_Grid_2.jpg,right,855.3349999710917,false,high,NA,NA,NA,NA,NA,NA,NA,false
Xfvy5xwV,38f60ialbjuvdvfa6f4is9xu20x0td,3ftyuglfsyypex388xfhtk7q3dnd5p,Xfvy5xwV,2020-0188,2020-06-04,09:47:43,10:05:52,NA,incomplete,85,shape,0,1,left,Red_Star_Grid_3.jpg,Green_Star_Dots_4.jpg,Purple_Circle_Chess_3.jpg,right,1041.5100001264364,false,high,NA,NA,NA,NA,NA,NA,NA,false
Xfvy5xwV,38f60ialbjuvdvfa6f4is9xu20x0td,3ftyuglfsyypex388xfhtk7q3dnd5p,Xfvy5xwV,2020-0188,2020-06-04,09:47:43,10:05:52,NA,incomplete,86,shape,0,0,left,Red_Circle_Grid_4.jpg,Purple_Circle_Dots_3.jpg,Green_Plus_Chess_4.jpg,right,1207.6499999966472,false,high,NA,NA,NA,NA,NA,NA,NA,false
Xfvy5xwV,38f60ialbjuvdvfa6f4is9xu20x0td,3ftyuglfsyypex388xfhtk7q3dnd5p,Xfvy5xwV,2020-0188,2020-06-04,09:47:43,10:05:52,NA,incomplete,87,shape,0,0,right,Red_Circle_Stripes_3.jpg,Green_Triangle_Dots_3.jpg,Blue_Circle_Chess_1.jpg,left,674.1899999324232,false,high,NA,NA,NA,NA,NA,NA,NA,false
Xfvy5xwV,38f60ialbjuvdvfa6f4is9xu20x0td,3ftyuglfsyypex388xfhtk7q3dnd5p,Xfvy5xwV,2020-0188,2020-06-04,09:47:43,10:05:52,NA,incomplete,88,shape,0,0,left,Purple_Plus_Dots_2.jpg,Blue_Plus_Chess_4.jpg,Green_Triangle_Grid_2.jpg,right,892.1099998988211,false,high,NA,NA,NA,NA,NA,NA,NA,false
Xfvy5xwV,38f60ialbjuvdvfa6f4is9xu20x0td,3ftyuglfsyypex388xfhtk7q3dnd5p,Xfvy5xwV,2020-0188,2020-06-04,09:47:43,10:05:52,NA,incomplete,89,shape,0,1,left,Red_Star_Dots_3.jpg,Green_Star_Grid_1.jpg,Purple_Circle_Stripes_3.jpg,right,640.6999998725951,false,high,NA,NA,NA,NA,NA,NA,NA,false
Xfvy5xwV,38f60ialbjuvdvfa6f4is9xu20x0td,3ftyuglfsyypex388xfhtk7q3dnd5p,Xfvy5xwV,2020-0188,2020-06-04,09:47:43,10:05:52,NA,incomplete,90,number,1,1,right,Blue_Circle_Stripes_3.jpg,Red_Circle_Chess_4.jpg,Green_Triangle_Grid_3.jpg,right,610.1949999574572,true,high,NA,NA,NA,NA,NA,NA,NA,false
Xfvy5xwV,38f60ialbjuvdvfa6f4is9xu20x0td,3ftyuglfsyypex388xfhtk7q3dnd5p,Xfvy5xwV,2020-0188,2020-06-04,09:47:43,10:05:52,NA,incomplete,91,number,1,0,right,Blue_Plus_Chess_2.jpg,Green_Plus_Stripes_4.jpg,Red_Star_Dots_2.jpg,right,679.1050001047552,true,high,NA,NA,NA,NA,NA,NA,NA,false
Xfvy5xwV,38f60ialbjuvdvfa6f4is9xu20x0td,3ftyuglfsyypex388xfhtk7q3dnd5p,Xfvy5xwV,2020-0188,2020-06-04,09:47:43,10:05:52,NA,incomplete,92,number,1,1,left,Green_Circle_Stripes_1.jpg,Red_Plus_Grid_1.jpg,Purple_Circle_Chess_2.jpg,left,753.8999998942018,true,high,NA,NA,NA,NA,NA,NA,NA,false
Xfvy5xwV,38f60ialbjuvdvfa6f4is9xu20x0td,3ftyuglfsyypex388xfhtk7q3dnd5p,Xfvy5xwV,2020-0188,2020-06-04,09:47:43,10:05:52,NA,incomplete,93,number,1,1,right,Blue_Circle_Grid_2.jpg,Red_Circle_Stripes_3.jpg,Green_Star_Dots_2.jpg,right,762.4699999578297,true,high,NA,NA,NA,NA,NA,NA,NA,false
Xfvy5xwV,38f60ialbjuvdvfa6f4is9xu20x0td,3ftyuglfsyypex388xfhtk7q3dnd5p,Xfvy5xwV,2020-0188,2020-06-04,09:47:43,10:05:52,NA,incomplete,94,number,1,1,right,Blue_Circle_Dots_1.jpg,Purple_Circle_Chess_4.jpg,Green_Plus_Stripes_1.jpg,right,644.3499999586493,true,high,NA,NA,NA,NA,NA,NA,NA,false
Xfvy5xwV,38f60ialbjuvdvfa6f4is9xu20x0td,3ftyuglfsyypex388xfhtk7q3dnd5p,Xfvy5xwV,2020-0188,2020-06-04,09:47:43,10:05:52,NA,incomplete,95,number,1,1,right,Red_Plus_Stripes_1.jpg,Purple_Plus_Chess_3.jpg,Green_Star_Dots_1.jpg,right,604.9599999096245,true,high,NA,NA,NA,NA,NA,NA,NA,false
Xfvy5xwV,38f60ialbjuvdvfa6f4is9xu20x0td,3ftyuglfsyypex388xfhtk7q3dnd5p,Xfvy5xwV,2020-0188,2020-06-04,09:47:43,10:05:52,NA,incomplete,96,number,1,1,right,Green_Plus_Dots_1.jpg,Blue_Plus_Chess_2.jpg,Purple_Circle_Stripes_1.jpg,right,602.6200000196695,true,high,NA,NA,NA,NA,NA,NA,NA,false
Xfvy5xwV,38f60ialbjuvdvfa6f4is9xu20x0td,3ftyuglfsyypex388xfhtk7q3dnd5p,Xfvy5xwV,2020-0188,2020-06-04,09:47:43,10:05:52,NA,incomplete,97,number,1,1,right,Blue_Star_Chess_4.jpg,Green_Star_Stripes_1.jpg,Purple_Circle_Dots_4.jpg,right,1203.7999997846782,true,high,NA,NA,NA,NA,NA,NA,NA,false
Xfvy5xwV,38f60ialbjuvdvfa6f4is9xu20x0td,3ftyuglfsyypex388xfhtk7q3dnd5p,Xfvy5xwV,2020-0188,2020-06-04,09:47:43,10:05:52,NA,incomplete,98,number,1,0,right,Purple_Triangle_Dots_1.jpg,Red_Triangle_Grid_2.jpg,Green_Circle_Chess_1.jpg,right,609.2049998696893,true,high,NA,NA,NA,NA,NA,NA,NA,false
Xfvy5xwV,38f60ialbjuvdvfa6f4is9xu20x0td,3ftyuglfsyypex388xfhtk7q3dnd5p,Xfvy5xwV,2020-0188,2020-06-04,09:47:43,10:05:52,NA,incomplete,99,number,1,1,left,Green_Star_Chess_2.jpg,Purple_Triangle_Grid_2.jpg,Blue_Star_Stripes_4.jpg,left,896.7600001487881,true,high,NA,NA,NA,NA,NA,NA,NA,false
Xfvy5xwV,38f60ialbjuvdvfa6f4is9xu20x0td,3ftyuglfsyypex388xfhtk7q3dnd5p,Xfvy5xwV,2020-0188,2020-06-04,09:47:43,10:05:52,NA,incomplete,100,shape,0,1,left,Green_Circle_Stripes_2.jpg,Purple_Circle_Grid_1.jpg,Blue_Plus_Chess_2.jpg,right,715.5450000427663,false,high,NA,NA,NA,NA,NA,NA,NA,false
Xfvy5xwV,38f60ialbjuvdvfa6f4is9xu20x0td,3ftyuglfsyypex388xfhtk7q3dnd5p,Xfvy5xwV,2020-0188,2020-06-04,09:47:43,10:05:52,NA,incomplete,101,shape,0,1,right,Purple_Star_Grid_4.jpg,Blue_Plus_Dots_4.jpg,Green_Star_Chess_3.jpg,left,807.4350000824779,false,high,NA,NA,NA,NA,NA,NA,NA,false
Xfvy5xwV,38f60ialbjuvdvfa6f4is9xu20x0td,3ftyuglfsyypex388xfhtk7q3dnd5p,Xfvy5xwV,2020-0188,2020-06-04,09:47:43,10:05:52,NA,incomplete,102,shape,0,1,right,Green_Plus_Dots_1.jpg,Blue_Star_Stripes_1.jpg,Purple_Plus_Grid_3.jpg,left,628.8700001314282,false,high,NA,NA,NA,NA,NA,NA,NA,false
Xfvy5xwV,38f60ialbjuvdvfa6f4is9xu20x0td,3ftyuglfsyypex388xfhtk7q3dnd5p,Xfvy5xwV,2020-0188,2020-06-04,09:47:43,10:05:52,NA,incomplete,103,shape,0,1,right,Purple_Circle_Stripes_2.jpg,Green_Triangle_Chess_2.jpg,Blue_Circle_Dots_4.jpg,left,915.5099999625236,false,high,NA,NA,NA,NA,NA,NA,NA,false
Xfvy5xwV,38f60ialbjuvdvfa6f4is9xu20x0td,3ftyuglfsyypex388xfhtk7q3dnd5p,Xfvy5xwV,2020-0188,2020-06-04,09:47:43,10:05:52,NA,incomplete,104,shape,0,1,right,Blue_Circle_Dots_4.jpg,Green_Triangle_Stripes_4.jpg,Red_Circle_Grid_3.jpg,right,810.5399999767542,true,high,NA,NA,NA,NA,NA,NA,NA,false
Xfvy5xwV,38f60ialbjuvdvfa6f4is9xu20x0td,3ftyuglfsyypex388xfhtk7q3dnd5p,Xfvy5xwV,2020-0188,2020-06-04,09:47:43,10:05:52,NA,incomplete,105,shape,0,1,left,Blue_Plus_Grid_4.jpg,Red_Plus_Dots_1.jpg,Green_Circle_Chess_4.jpg,right,750.0299999956042,false,high,NA,NA,NA,NA,NA,NA,NA,false
Xfvy5xwV,38f60ialbjuvdvfa6f4is9xu20x0td,3ftyuglfsyypex388xfhtk7q3dnd5p,Xfvy5xwV,2020-0188,2020-06-04,09:47:43,10:05:52,NA,incomplete,106,shape,0,1,left,Red_Triangle_Chess_1.jpg,Green_Triangle_Dots_4.jpg,Purple_Star_Stripes_1.jpg,left,734.7600001376122,true,high,NA,NA,NA,NA,NA,NA,NA,false
Xfvy5xwV,38f60ialbjuvdvfa6f4is9xu20x0td,3ftyuglfsyypex388xfhtk7q3dnd5p,Xfvy5xwV,2020-0188,2020-06-04,09:47:43,10:05:52,NA,incomplete,107,shape,0,1,left,Purple_Plus_Grid_1.jpg,Blue_Plus_Stripes_3.jpg,Green_Circle_Chess_1.jpg,left,675.0600000377744,true,high,NA,NA,NA,NA,NA,NA,NA,false
Xfvy5xwV,38f60ialbjuvdvfa6f4is9xu20x0td,3ftyuglfsyypex388xfhtk7q3dnd5p,Xfvy5xwV,2020-0188,2020-06-04,09:47:43,10:05:52,NA,incomplete,108,shape,0,0,left,Purple_Star_Dots_4.jpg,Red_Star_Grid_3.jpg,Blue_Plus_Stripes_4.jpg,left,797.3699998110533,true,high,NA,NA,NA,NA,NA,NA,NA,false
Xfvy5xwV,38f60ialbjuvdvfa6f4is9xu20x0td,3ftyuglfsyypex388xfhtk7q3dnd5p,Xfvy5xwV,2020-0188,2020-06-04,09:47:43,10:05:52,NA,incomplete,109,shape,0,0,right,Blue_Triangle_Chess_4.jpg,Red_Plus_Stripes_4.jpg,Green_Triangle_Dots_3.jpg,right,761.1299999989569,true,high,NA,NA,NA,NA,NA,NA,NA,false
Xfvy5xwV,38f60ialbjuvdvfa6f4is9xu20x0td,3ftyuglfsyypex388xfhtk7q3dnd5p,Xfvy5xwV,2020-0188,2020-06-04,09:47:43,10:05:52,NA,incomplete,110,number,1,1,left,Red_Plus_Stripes_2.jpg,Blue_Star_Dots_2.jpg,Green_Plus_Grid_1.jpg,right,787.1100001502782,false,high,NA,NA,NA,NA,NA,NA,NA,false
Xfvy5xwV,38f60ialbjuvdvfa6f4is9xu20x0td,3ftyuglfsyypex388xfhtk7q3dnd5p,Xfvy5xwV,2020-0188,2020-06-04,09:47:43,10:05:52,NA,incomplete,111,number,1,1,right,Purple_Triangle_Grid_4.jpg,Blue_Triangle_Dots_1.jpg,Red_Plus_Chess_4.jpg,right,699.6799998451024,true,high,NA,NA,NA,NA,NA,NA,NA,false
Xfvy5xwV,38f60ialbjuvdvfa6f4is9xu20x0td,3ftyuglfsyypex388xfhtk7q3dnd5p,Xfvy5xwV,2020-0188,2020-06-04,09:47:43,10:05:52,NA,incomplete,112,number,1,1,left,Red_Circle_Chess_4.jpg,Purple_Plus_Grid_4.jpg,Blue_Circle_Stripes_1.jpg,left,675.1749999821186,true,high,NA,NA,NA,NA,NA,NA,NA,false
Xfvy5xwV,38f60ialbjuvdvfa6f4is9xu20x0td,3ftyuglfsyypex388xfhtk7q3dnd5p,Xfvy5xwV,2020-0188,2020-06-04,09:47:43,10:05:52,NA,incomplete,113,number,1,1,right,Blue_Star_Chess_4.jpg,Green_Star_Dots_1.jpg,Purple_Triangle_Stripes_4.jpg,right,690.6150002032518,true,high,NA,NA,NA,NA,NA,NA,NA,false
Xfvy5xwV,38f60ialbjuvdvfa6f4is9xu20x0td,3ftyuglfsyypex388xfhtk7q3dnd5p,Xfvy5xwV,2020-0188,2020-06-04,09:47:43,10:05:52,NA,incomplete,114,number,1,1,right,Blue_Plus_Stripes_2.jpg,Purple_Plus_Grid_3.jpg,Green_Triangle_Chess_2.jpg,right,810.7399998698384,true,high,NA,NA,NA,NA,NA,NA,NA,false
Xfvy5xwV,38f60ialbjuvdvfa6f4is9xu20x0td,3ftyuglfsyypex388xfhtk7q3dnd5p,Xfvy5xwV,2020-0188,2020-06-04,09:47:43,10:05:52,NA,incomplete,115,number,1,0,right,Green_Circle_Stripes_2.jpg,Red_Circle_Dots_1.jpg,Purple_Triangle_Chess_2.jpg,right,596.665000077337,true,high,NA,NA,NA,NA,NA,NA,NA,false
Xfvy5xwV,38f60ialbjuvdvfa6f4is9xu20x0td,3ftyuglfsyypex388xfhtk7q3dnd5p,Xfvy5xwV,2020-0188,2020-06-04,09:47:43,10:05:52,NA,incomplete,116,number,1,0,left,Purple_Star_Stripes_3.jpg,Green_Triangle_Chess_3.jpg,Red_Star_Dots_1.jpg,left,784.2000001110137,true,high,NA,NA,NA,NA,NA,NA,NA,false
Xfvy5xwV,38f60ialbjuvdvfa6f4is9xu20x0td,3ftyuglfsyypex388xfhtk7q3dnd5p,Xfvy5xwV,2020-0188,2020-06-04,09:47:43,10:05:52,NA,incomplete,117,number,1,1,left,Red_Star_Grid_2.jpg,Green_Plus_Dots_2.jpg,Purple_Star_Stripes_4.jpg,left,748.2299997936934,true,high,NA,NA,NA,NA,NA,NA,NA,false
Xfvy5xwV,38f60ialbjuvdvfa6f4is9xu20x0td,3ftyuglfsyypex388xfhtk7q3dnd5p,Xfvy5xwV,2020-0188,2020-06-04,09:47:43,10:05:52,NA,incomplete,118,number,1,1,right,Purple_Triangle_Chess_2.jpg,Green_Triangle_Stripes_3.jpg,Blue_Plus_Dots_2.jpg,right,659.0650000143796,true,high,NA,NA,NA,NA,NA,NA,NA,false
Xfvy5xwV,38f60ialbjuvdvfa6f4is9xu20x0td,3ftyuglfsyypex388xfhtk7q3dnd5p,Xfvy5xwV,2020-0188,2020-06-04,09:47:43,10:05:52,NA,incomplete,119,number,1,0,right,Red_Plus_Chess_2.jpg,Blue_Plus_Stripes_1.jpg,Purple_Circle_Dots_2.jpg,right,642.7400000393391,true,high,NA,NA,NA,NA,NA,NA,NA,false
Xfvy5xwV,38f60ialbjuvdvfa6f4is9xu20x0td,3ftyuglfsyypex388xfhtk7q3dnd5p,Xfvy5xwV,2020-0188,2020-06-04,09:47:43,10:05:52,NA,incomplete,120,race,2,1,right,A_F_07.jpg,C_F_02.jpg,A_M_13.jpg,NA,NA,NA,high,NA,NA,NA,NA,NA,NA,NA,false
Xfvy5xwV,38f60ialbjuvdvfa6f4is9xu20x0td,3ftyuglfsyypex388xfhtk7q3dnd5p,Xfvy5xwV,2020-0188,2020-06-04,09:47:43,10:05:52,NA,incomplete,121,race,2,1,right,A_F_09.jpg,C_F_14.jpg,A_M_12.jpg,left,913.365000160411,false,high,NA,NA,NA,NA,NA,NA,NA,false
Xfvy5xwV,38f60ialbjuvdvfa6f4is9xu20x0td,3ftyuglfsyypex388xfhtk7q3dnd5p,Xfvy5xwV,2020-0188,2020-06-04,09:47:43,10:05:52,NA,incomplete,122,race,2,1,left,C_M_04.jpg,C_F_16.jpg,A_M_02.jpg,right,704.094999935478,false,high,NA,NA,NA,NA,NA,NA,NA,false
Xfvy5xwV,38f60ialbjuvdvfa6f4is9xu20x0td,3ftyuglfsyypex388xfhtk7q3dnd5p,Xfvy5xwV,2020-0188,2020-06-04,09:47:43,10:05:52,NA,incomplete,123,race,2,0,left,A_M_16.jpg,A_F_09.jpg,C_M_01.jpg,right,715.7149999402463,false,high,NA,NA,NA,NA,NA,NA,NA,false
Xfvy5xwV,38f60ialbjuvdvfa6f4is9xu20x0td,3ftyuglfsyypex388xfhtk7q3dnd5p,Xfvy5xwV,2020-0188,2020-06-04,09:47:43,10:05:52,NA,incomplete,124,race,2,1,left,A_F_12.jpg,A_M_11.jpg,C_F_16.jpg,right,593.8550001010299,false,high,NA,NA,NA,NA,NA,NA,NA,false
Xfvy5xwV,38f60ialbjuvdvfa6f4is9xu20x0td,3ftyuglfsyypex388xfhtk7q3dnd5p,Xfvy5xwV,2020-0188,2020-06-04,09:47:43,10:05:52,NA,incomplete,125,race,2,1,right,C_F_16.jpg,A_F_15.jpg,C_M_11.jpg,left,614.8850000463426,false,high,NA,NA,NA,NA,NA,NA,NA,false
Xfvy5xwV,38f60ialbjuvdvfa6f4is9xu20x0td,3ftyuglfsyypex388xfhtk7q3dnd5p,Xfvy5xwV,2020-0188,2020-06-04,09:47:43,10:05:52,NA,incomplete,126,race,2,0,right,C_F_12.jpg,A_F_16.jpg,C_M_09.jpg,left,634.9599999375641,false,high,NA,NA,NA,NA,NA,NA,NA,false
Xfvy5xwV,38f60ialbjuvdvfa6f4is9xu20x0td,3ftyuglfsyypex388xfhtk7q3dnd5p,Xfvy5xwV,2020-0188,2020-06-04,09:47:43,10:05:52,NA,incomplete,127,race,2,1,right,C_F_05.jpg,A_F_07.jpg,C_M_16.jpg,left,645.3850001562387,false,high,NA,NA,NA,NA,NA,NA,NA,false
Xfvy5xwV,38f60ialbjuvdvfa6f4is9xu20x0td,3ftyuglfsyypex388xfhtk7q3dnd5p,Xfvy5xwV,2020-0188,2020-06-04,09:47:43,10:05:52,NA,incomplete,128,race,2,0,left,A_F_06.jpg,A_M_12.jpg,C_F_16.jpg,left,659.1250000055879,true,high,NA,NA,NA,NA,NA,NA,NA,false
Xfvy5xwV,38f60ialbjuvdvfa6f4is9xu20x0td,3ftyuglfsyypex388xfhtk7q3dnd5p,Xfvy5xwV,2020-0188,2020-06-04,09:47:43,10:05:52,NA,incomplete,129,race,2,1,left,C_M_11.jpg,C_F_14.jpg,A_M_05.jpg,right,785.7549998443574,false,high,NA,NA,NA,NA,NA,NA,NA,false
Xfvy5xwV,38f60ialbjuvdvfa6f4is9xu20x0td,3ftyuglfsyypex388xfhtk7q3dnd5p,Xfvy5xwV,2020-0188,2020-06-04,09:47:43,10:05:52,NA,incomplete,130,race,2,1,right,A_M_03.jpg,C_M_09.jpg,A_F_12.jpg,right,1053.8999999407679,true,high,NA,NA,NA,NA,NA,NA,NA,false
Xfvy5xwV,38f60ialbjuvdvfa6f4is9xu20x0td,3ftyuglfsyypex388xfhtk7q3dnd5p,Xfvy5xwV,2020-0188,2020-06-04,09:47:43,10:05:52,NA,incomplete,131,race,2,1,left,A_F_11.jpg,A_M_06.jpg,C_F_12.jpg,left,1098.5749999526888,true,high,NA,NA,NA,NA,NA,NA,NA,false
Xfvy5xwV,38f60ialbjuvdvfa6f4is9xu20x0td,3ftyuglfsyypex388xfhtk7q3dnd5p,Xfvy5xwV,2020-0188,2020-06-04,09:47:43,10:05:52,NA,incomplete,132,race,2,1,left,A_F_10.jpg,A_M_06.jpg,C_F_02.jpg,left,720.82499996759,true,high,NA,NA,NA,NA,NA,NA,NA,false
Xfvy5xwV,38f60ialbjuvdvfa6f4is9xu20x0td,3ftyuglfsyypex388xfhtk7q3dnd5p,Xfvy5xwV,2020-0188,2020-06-04,09:47:43,10:05:52,NA,incomplete,133,race,2,1,right,A_F_13.jpg,C_F_12.jpg,A_M_08.jpg,right,907.9149998724461,true,high,NA,NA,NA,NA,NA,NA,NA,false
Xfvy5xwV,38f60ialbjuvdvfa6f4is9xu20x0td,3ftyuglfsyypex388xfhtk7q3dnd5p,Xfvy5xwV,2020-0188,2020-06-04,09:47:43,10:05:52,NA,incomplete,134,race,2,1,right,A_M_13.jpg,C_M_08.jpg,A_F_05.jpg,right,1089.85499991104,true,high,NA,NA,NA,NA,NA,NA,NA,false
Xfvy5xwV,38f60ialbjuvdvfa6f4is9xu20x0td,3ftyuglfsyypex388xfhtk7q3dnd5p,Xfvy5xwV,2020-0188,2020-06-04,09:47:43,10:05:52,NA,incomplete,135,race,2,0,left,C_M_14.jpg,C_F_06.jpg,A_M_08.jpg,left,1033.1949999090284,true,high,NA,NA,NA,NA,NA,NA,NA,false
Xfvy5xwV,38f60ialbjuvdvfa6f4is9xu20x0td,3ftyuglfsyypex388xfhtk7q3dnd5p,Xfvy5xwV,2020-0188,2020-06-04,09:47:43,10:05:52,NA,incomplete,136,race,2,1,left,A_F_09.jpg,A_M_01.jpg,C_F_13.jpg,right,805.8599999640137,false,high,NA,NA,NA,NA,NA,NA,NA,false
Xfvy5xwV,38f60ialbjuvdvfa6f4is9xu20x0td,3ftyuglfsyypex388xfhtk7q3dnd5p,Xfvy5xwV,2020-0188,2020-06-04,09:47:43,10:05:52,NA,incomplete,137,race,2,1,right,A_F_09.jpg,C_F_06.jpg,A_M_05.jpg,right,885.3050000034273,true,high,NA,NA,NA,NA,NA,NA,NA,false
Xfvy5xwV,38f60ialbjuvdvfa6f4is9xu20x0td,3ftyuglfsyypex388xfhtk7q3dnd5p,Xfvy5xwV,2020-0188,2020-06-04,09:47:43,10:05:52,NA,incomplete,138,race,2,1,left,C_F_06.jpg,C_M_10.jpg,A_F_08.jpg,left,958.6899999994785,true,high,NA,NA,NA,NA,NA,NA,NA,false
Xfvy5xwV,38f60ialbjuvdvfa6f4is9xu20x0td,3ftyuglfsyypex388xfhtk7q3dnd5p,Xfvy5xwV,2020-0188,2020-06-04,09:47:43,10:05:52,NA,incomplete,139,race,2,0,right,A_F_04.jpg,C_F_07.jpg,A_M_05.jpg,right,868.6600001528859,true,high,NA,NA,NA,NA,NA,NA,NA,false
Xfvy5xwV,38f60ialbjuvdvfa6f4is9xu20x0td,3ftyuglfsyypex388xfhtk7q3dnd5p,Xfvy5xwV,2020-0188,2020-06-04,09:47:43,10:05:52,NA,incomplete,140,gender,3,1,right,A_F_04.jpg,A_M_08.jpg,C_F_13.jpg,left,911.2199998926371,false,high,NA,NA,NA,NA,NA,NA,NA,false
Xfvy5xwV,38f60ialbjuvdvfa6f4is9xu20x0td,3ftyuglfsyypex388xfhtk7q3dnd5p,Xfvy5xwV,2020-0188,2020-06-04,09:47:43,10:05:52,NA,incomplete,141,gender,3,1,left,A_M_05.jpg,C_M_11.jpg,A_F_13.jpg,right,877.9599999543279,false,high,NA,NA,NA,NA,NA,NA,NA,false
Xfvy5xwV,38f60ialbjuvdvfa6f4is9xu20x0td,3ftyuglfsyypex388xfhtk7q3dnd5p,Xfvy5xwV,2020-0188,2020-06-04,09:47:43,10:05:52,NA,incomplete,142,gender,3,1,left,A_M_09.jpg,C_M_16.jpg,A_F_04.jpg,left,663.9000000432134,true,high,NA,NA,NA,NA,NA,NA,NA,false
Xfvy5xwV,38f60ialbjuvdvfa6f4is9xu20x0td,3ftyuglfsyypex388xfhtk7q3dnd5p,Xfvy5xwV,2020-0188,2020-06-04,09:47:43,10:05:52,NA,incomplete,143,gender,3,1,left,C_F_01.jpg,A_F_05.jpg,C_M_15.jpg,left,873.8499998580664,true,high,NA,NA,NA,NA,NA,NA,NA,false
Xfvy5xwV,38f60ialbjuvdvfa6f4is9xu20x0td,3ftyuglfsyypex388xfhtk7q3dnd5p,Xfvy5xwV,2020-0188,2020-06-04,09:47:43,10:05:52,NA,incomplete,144,gender,3,1,left,C_F_10.jpg,A_F_14.jpg,C_M_13.jpg,left,842.4400000367314,true,high,NA,NA,NA,NA,NA,NA,NA,false
Xfvy5xwV,38f60ialbjuvdvfa6f4is9xu20x0td,3ftyuglfsyypex388xfhtk7q3dnd5p,Xfvy5xwV,2020-0188,2020-06-04,09:47:43,10:05:52,NA,incomplete,145,gender,3,1,right,C_F_05.jpg,C_M_08.jpg,A_F_09.jpg,right,705.7399998884648,true,high,NA,NA,NA,NA,NA,NA,NA,false
Xfvy5xwV,38f60ialbjuvdvfa6f4is9xu20x0td,3ftyuglfsyypex388xfhtk7q3dnd5p,Xfvy5xwV,2020-0188,2020-06-04,09:47:43,10:05:52,NA,incomplete,146,gender,3,1,right,C_F_06.jpg,C_M_01.jpg,A_F_14.jpg,right,764.9999998975545,true,high,NA,NA,NA,NA,NA,NA,NA,false
Xfvy5xwV,38f60ialbjuvdvfa6f4is9xu20x0td,3ftyuglfsyypex388xfhtk7q3dnd5p,Xfvy5xwV,2020-0188,2020-06-04,09:47:43,10:05:52,NA,incomplete,147,gender,3,0,left,A_F_13.jpg,C_F_01.jpg,A_M_11.jpg,left,707.315000006929,true,high,NA,NA,NA,NA,NA,NA,NA,false
Xfvy5xwV,38f60ialbjuvdvfa6f4is9xu20x0td,3ftyuglfsyypex388xfhtk7q3dnd5p,Xfvy5xwV,2020-0188,2020-06-04,09:47:43,10:05:52,NA,incomplete,148,gender,3,1,right,A_F_07.jpg,A_M_11.jpg,C_F_13.jpg,left,687.1499998960644,false,high,NA,NA,NA,NA,NA,NA,NA,false
Xfvy5xwV,38f60ialbjuvdvfa6f4is9xu20x0td,3ftyuglfsyypex388xfhtk7q3dnd5p,Xfvy5xwV,2020-0188,2020-06-04,09:47:43,10:05:52,NA,incomplete,149,gender,3,1,right,C_M_05.jpg,C_F_10.jpg,A_M_14.jpg,left,816.5700000245124,false,high,NA,NA,NA,NA,NA,NA,NA,false
Xfvy5xwV,38f60ialbjuvdvfa6f4is9xu20x0td,3ftyuglfsyypex388xfhtk7q3dnd5p,Xfvy5xwV,2020-0188,2020-06-04,09:47:43,10:05:52,NA,incomplete,150,gender,3,0,right,A_M_02.jpg,A_F_08.jpg,C_M_04.jpg,left,816.3250000216067,false,high,NA,NA,NA,NA,NA,NA,NA,false
Xfvy5xwV,38f60ialbjuvdvfa6f4is9xu20x0td,3ftyuglfsyypex388xfhtk7q3dnd5p,Xfvy5xwV,2020-0188,2020-06-04,09:47:43,10:05:52,NA,incomplete,151,gender,3,1,right,A_M_07.jpg,A_F_12.jpg,C_M_08.jpg,left,632.8099998645484,false,high,NA,NA,NA,NA,NA,NA,NA,false
Xfvy5xwV,38f60ialbjuvdvfa6f4is9xu20x0td,3ftyuglfsyypex388xfhtk7q3dnd5p,Xfvy5xwV,2020-0188,2020-06-04,09:47:43,10:05:52,NA,incomplete,152,gender,3,1,right,A_M_11.jpg,A_F_07.jpg,C_M_06.jpg,left,579.450000077486,false,high,NA,NA,NA,NA,NA,NA,NA,false
Xfvy5xwV,38f60ialbjuvdvfa6f4is9xu20x0td,3ftyuglfsyypex388xfhtk7q3dnd5p,Xfvy5xwV,2020-0188,2020-06-04,09:47:43,10:05:52,NA,incomplete,153,gender,3,1,left,A_M_08.jpg,C_M_05.jpg,A_F_03.jpg,right,964.4599999301136,false,high,NA,NA,NA,NA,NA,NA,NA,false
Xfvy5xwV,38f60ialbjuvdvfa6f4is9xu20x0td,3ftyuglfsyypex388xfhtk7q3dnd5p,Xfvy5xwV,2020-0188,2020-06-04,09:47:43,10:05:52,NA,incomplete,154,gender,3,1,left,A_M_06.jpg,C_M_08.jpg,A_F_05.jpg,left,614.0300000552088,true,high,NA,NA,NA,NA,NA,NA,NA,false
Xfvy5xwV,38f60ialbjuvdvfa6f4is9xu20x0td,3ftyuglfsyypex388xfhtk7q3dnd5p,Xfvy5xwV,2020-0188,2020-06-04,09:47:43,10:05:52,NA,incomplete,155,gender,3,1,left,A_M_07.jpg,C_M_12.jpg,A_F_16.jpg,left,607.5500000733882,true,high,NA,NA,NA,NA,NA,NA,NA,false
Xfvy5xwV,38f60ialbjuvdvfa6f4is9xu20x0td,3ftyuglfsyypex388xfhtk7q3dnd5p,Xfvy5xwV,2020-0188,2020-06-04,09:47:43,10:05:52,NA,incomplete,156,gender,3,1,right,C_M_15.jpg,C_F_06.jpg,A_M_03.jpg,right,591.3949999958277,true,high,NA,NA,NA,NA,NA,NA,NA,false
Xfvy5xwV,38f60ialbjuvdvfa6f4is9xu20x0td,3ftyuglfsyypex388xfhtk7q3dnd5p,Xfvy5xwV,2020-0188,2020-06-04,09:47:43,10:05:52,NA,incomplete,157,gender,3,1,right,C_F_03.jpg,C_M_15.jpg,A_F_14.jpg,right,1083.3300000522286,true,high,NA,NA,NA,NA,NA,NA,NA,false
Xfvy5xwV,38f60ialbjuvdvfa6f4is9xu20x0td,3ftyuglfsyypex388xfhtk7q3dnd5p,Xfvy5xwV,2020-0188,2020-06-04,09:47:43,10:05:52,NA,incomplete,158,gender,3,0,right,C_M_16.jpg,C_F_07.jpg,A_M_13.jpg,right,788.4100000374019,true,high,NA,NA,NA,NA,NA,NA,NA,false
Xfvy5xwV,38f60ialbjuvdvfa6f4is9xu20x0td,3ftyuglfsyypex388xfhtk7q3dnd5p,Xfvy5xwV,2020-0188,2020-06-04,09:47:43,10:05:52,NA,incomplete,159,gender,3,1,right,C_M_14.jpg,C_F_16.jpg,A_M_01.jpg,right,762.479999801144,true,high,NA,NA,NA,NA,NA,NA,NA,false
Xfvy5xwV,38f60ialbjuvdvfa6f4is9xu20x0td,3ftyuglfsyypex388xfhtk7q3dnd5p,Xfvy5xwV,2020-0188,2020-06-04,09:47:43,10:05:52,NA,incomplete,160,race,2,1,left,A_F_04.jpg,A_M_14.jpg,C_F_02.jpg,right,757.4800001457334,false,high,NA,NA,NA,NA,NA,NA,NA,false
Xfvy5xwV,38f60ialbjuvdvfa6f4is9xu20x0td,3ftyuglfsyypex388xfhtk7q3dnd5p,Xfvy5xwV,2020-0188,2020-06-04,09:47:43,10:05:52,NA,incomplete,161,race,2,1,right,A_F_01.jpg,C_F_07.jpg,A_M_14.jpg,left,816.8750000186265,false,high,NA,NA,NA,NA,NA,NA,NA,false
Xfvy5xwV,38f60ialbjuvdvfa6f4is9xu20x0td,3ftyuglfsyypex388xfhtk7q3dnd5p,Xfvy5xwV,2020-0188,2020-06-04,09:47:43,10:05:52,NA,incomplete,162,race,2,1,right,C_F_11.jpg,A_F_14.jpg,C_M_12.jpg,left,677.5599999818951,false,high,NA,NA,NA,NA,NA,NA,NA,false
Xfvy5xwV,38f60ialbjuvdvfa6f4is9xu20x0td,3ftyuglfsyypex388xfhtk7q3dnd5p,Xfvy5xwV,2020-0188,2020-06-04,09:47:43,10:05:52,NA,incomplete,163,race,2,1,left,C_F_09.jpg,C_M_14.jpg,A_F_07.jpg,left,1080.7049998547882,true,high,NA,NA,NA,NA,NA,NA,NA,false
Xfvy5xwV,38f60ialbjuvdvfa6f4is9xu20x0td,3ftyuglfsyypex388xfhtk7q3dnd5p,Xfvy5xwV,2020-0188,2020-06-04,09:47:43,10:05:52,NA,incomplete,164,race,2,1,left,A_M_10.jpg,A_F_12.jpg,C_M_03.jpg,left,967.8549999371171,true,high,NA,NA,NA,NA,NA,NA,NA,false
Xfvy5xwV,38f60ialbjuvdvfa6f4is9xu20x0td,3ftyuglfsyypex388xfhtk7q3dnd5p,Xfvy5xwV,2020-0188,2020-06-04,09:47:43,10:05:52,NA,incomplete,165,race,2,1,left,C_F_02.jpg,C_M_13.jpg,A_F_10.jpg,right,802.8450000565499,false,high,NA,NA,NA,NA,NA,NA,NA,false
Xfvy5xwV,38f60ialbjuvdvfa6f4is9xu20x0td,3ftyuglfsyypex388xfhtk7q3dnd5p,Xfvy5xwV,2020-0188,2020-06-04,09:47:43,10:05:52,NA,incomplete,166,race,2,1,left,A_M_07.jpg,A_F_12.jpg,C_M_13.jpg,left,760.2750000078231,true,high,NA,NA,NA,NA,NA,NA,NA,false
Xfvy5xwV,38f60ialbjuvdvfa6f4is9xu20x0td,3ftyuglfsyypex388xfhtk7q3dnd5p,Xfvy5xwV,2020-0188,2020-06-04,09:47:43,10:05:52,NA,incomplete,167,race,2,0,right,A_M_14.jpg,C_M_01.jpg,A_F_10.jpg,right,882.5799999758601,true,high,NA,NA,NA,NA,NA,NA,NA,false
Xfvy5xwV,38f60ialbjuvdvfa6f4is9xu20x0td,3ftyuglfsyypex388xfhtk7q3dnd5p,Xfvy5xwV,2020-0188,2020-06-04,09:47:43,10:05:52,NA,incomplete,168,race,2,1,left,C_F_13.jpg,C_M_06.jpg,A_F_14.jpg,right,682.6149998232722,false,high,NA,NA,NA,NA,NA,NA,NA,false
Xfvy5xwV,38f60ialbjuvdvfa6f4is9xu20x0td,3ftyuglfsyypex388xfhtk7q3dnd5p,Xfvy5xwV,2020-0188,2020-06-04,09:47:43,10:05:52,NA,incomplete,169,race,2,0,left,A_F_06.jpg,A_M_11.jpg,C_F_09.jpg,left,883.0050001852214,true,high,NA,NA,NA,NA,NA,NA,NA,false
Xfvy5xwV,38f60ialbjuvdvfa6f4is9xu20x0td,3ftyuglfsyypex388xfhtk7q3dnd5p,Xfvy5xwV,2020-0188,2020-06-04,09:47:43,10:05:52,NA,incomplete,170,race,2,1,right,A_M_04.jpg,C_M_02.jpg,A_F_07.jpg,right,870.0400001835078,true,high,NA,NA,NA,NA,NA,NA,NA,false
Xfvy5xwV,38f60ialbjuvdvfa6f4is9xu20x0td,3ftyuglfsyypex388xfhtk7q3dnd5p,Xfvy5xwV,2020-0188,2020-06-04,09:47:43,10:05:52,NA,incomplete,171,race,2,1,left,A_F_14.jpg,A_M_06.jpg,C_F_04.jpg,left,652.9599998611957,true,high,NA,NA,NA,NA,NA,NA,NA,false
Xfvy5xwV,38f60ialbjuvdvfa6f4is9xu20x0td,3ftyuglfsyypex388xfhtk7q3dnd5p,Xfvy5xwV,2020-0188,2020-06-04,09:47:43,10:05:52,NA,incomplete,172,race,2,1,right,C_M_04.jpg,A_M_13.jpg,C_F_08.jpg,right,1303.2299999613315,true,high,NA,NA,NA,NA,NA,NA,NA,false
Xfvy5xwV,38f60ialbjuvdvfa6f4is9xu20x0td,3ftyuglfsyypex388xfhtk7q3dnd5p,Xfvy5xwV,2020-0188,2020-06-04,09:47:43,10:05:52,NA,incomplete,173,race,2,0,left,A_F_13.jpg,A_M_05.jpg,C_F_15.jpg,left,727.7400000020862,true,high,NA,NA,NA,NA,NA,NA,NA,false
Xfvy5xwV,38f60ialbjuvdvfa6f4is9xu20x0td,3ftyuglfsyypex388xfhtk7q3dnd5p,Xfvy5xwV,2020-0188,2020-06-04,09:47:43,10:05:52,NA,incomplete,174,race,2,1,left,C_M_01.jpg,C_F_14.jpg,A_M_07.jpg,right,900.6049998570234,false,high,NA,NA,NA,NA,NA,NA,NA,false
Xfvy5xwV,38f60ialbjuvdvfa6f4is9xu20x0td,3ftyuglfsyypex388xfhtk7q3dnd5p,Xfvy5xwV,2020-0188,2020-06-04,09:47:43,10:05:52,NA,incomplete,175,race,2,1,left,A_M_13.jpg,A_F_03.jpg,C_M_06.jpg,left,962.6899999566376,true,high,NA,NA,NA,NA,NA,NA,NA,false
Xfvy5xwV,38f60ialbjuvdvfa6f4is9xu20x0td,3ftyuglfsyypex388xfhtk7q3dnd5p,Xfvy5xwV,2020-0188,2020-06-04,09:47:43,10:05:52,NA,incomplete,176,race,2,0,right,A_M_05.jpg,C_M_02.jpg,A_F_07.jpg,right,878.7799999117851,true,high,NA,NA,NA,NA,NA,NA,NA,false
Xfvy5xwV,38f60ialbjuvdvfa6f4is9xu20x0td,3ftyuglfsyypex388xfhtk7q3dnd5p,Xfvy5xwV,2020-0188,2020-06-04,09:47:43,10:05:52,NA,incomplete,177,race,2,1,left,A_F_08.jpg,A_M_01.jpg,C_F_07.jpg,right,822.9799999389797,false,high,NA,NA,NA,NA,NA,NA,NA,false
Xfvy5xwV,38f60ialbjuvdvfa6f4is9xu20x0td,3ftyuglfsyypex388xfhtk7q3dnd5p,Xfvy5xwV,2020-0188,2020-06-04,09:47:43,10:05:52,NA,incomplete,178,race,2,0,left,A_F_11.jpg,A_M_16.jpg,C_F_12.jpg,left,1082.6450001914054,true,high,NA,NA,NA,NA,NA,NA,NA,false
Xfvy5xwV,38f60ialbjuvdvfa6f4is9xu20x0td,3ftyuglfsyypex388xfhtk7q3dnd5p,Xfvy5xwV,2020-0188,2020-06-04,09:47:43,10:05:52,NA,incomplete,179,race,2,1,right,A_M_16.jpg,C_M_14.jpg,A_F_07.jpg,right,941.8800000566989,true,high,NA,NA,NA,NA,NA,NA,NA,false
Xfvy5xwV,38f60ialbjuvdvfa6f4is9xu20x0td,3ftyuglfsyypex388xfhtk7q3dnd5p,Xfvy5xwV,2020-0188,2020-06-04,09:47:43,10:05:52,NA,incomplete,180,gender,3,1,left,C_F_13.jpg,A_F_10.jpg,C_M_09.jpg,right,889.3550001084805,false,high,NA,NA,NA,NA,NA,NA,NA,false
Xfvy5xwV,38f60ialbjuvdvfa6f4is9xu20x0td,3ftyuglfsyypex388xfhtk7q3dnd5p,Xfvy5xwV,2020-0188,2020-06-04,09:47:43,10:05:52,NA,incomplete,181,gender,3,1,right,A_F_12.jpg,A_M_15.jpg,C_F_06.jpg,left,774.9149999581277,false,high,NA,NA,NA,NA,NA,NA,NA,false
Xfvy5xwV,38f60ialbjuvdvfa6f4is9xu20x0td,3ftyuglfsyypex388xfhtk7q3dnd5p,Xfvy5xwV,2020-0188,2020-06-04,09:47:43,10:05:52,NA,incomplete,182,gender,3,1,left,A_F_12.jpg,C_F_05.jpg,A_M_15.jpg,right,1082.8799998853356,false,high,NA,NA,NA,NA,NA,NA,NA,false
Xfvy5xwV,38f60ialbjuvdvfa6f4is9xu20x0td,3ftyuglfsyypex388xfhtk7q3dnd5p,Xfvy5xwV,2020-0188,2020-06-04,09:47:43,10:05:52,NA,incomplete,183,gender,3,1,right,A_M_13.jpg,A_F_01.jpg,C_M_02.jpg,right,598.5450001899153,true,high,NA,NA,NA,NA,NA,NA,NA,false
Xfvy5xwV,38f60ialbjuvdvfa6f4is9xu20x0td,3ftyuglfsyypex388xfhtk7q3dnd5p,Xfvy5xwV,2020-0188,2020-06-04,09:47:43,10:05:52,NA,incomplete,184,gender,3,0,right,C_M_09.jpg,C_F_13.jpg,A_M_07.jpg,right,548.6250000540167,true,high,NA,NA,NA,NA,NA,NA,NA,false
Xfvy5xwV,38f60ialbjuvdvfa6f4is9xu20x0td,3ftyuglfsyypex388xfhtk7q3dnd5p,Xfvy5xwV,2020-0188,2020-06-04,09:47:43,10:05:52,NA,incomplete,185,gender,3,1,right,C_M_09.jpg,C_F_13.jpg,A_M_07.jpg,right,505.34500018693507,true,high,NA,NA,NA,NA,NA,NA,NA,false
Xfvy5xwV,38f60ialbjuvdvfa6f4is9xu20x0td,3ftyuglfsyypex388xfhtk7q3dnd5p,Xfvy5xwV,2020-0188,2020-06-04,09:47:43,10:05:52,NA,incomplete,186,gender,3,1,right,C_M_01.jpg,C_F_12.jpg,A_M_07.jpg,right,520.8749999292195,true,high,NA,NA,NA,NA,NA,NA,NA,false
Xfvy5xwV,38f60ialbjuvdvfa6f4is9xu20x0td,3ftyuglfsyypex388xfhtk7q3dnd5p,Xfvy5xwV,2020-0188,2020-06-04,09:47:43,10:05:52,NA,incomplete,187,gender,3,1,left,C_M_16.jpg,A_M_10.jpg,C_F_08.jpg,left,583.6300000082701,true,high,NA,NA,NA,NA,NA,NA,NA,false
Xfvy5xwV,38f60ialbjuvdvfa6f4is9xu20x0td,3ftyuglfsyypex388xfhtk7q3dnd5p,Xfvy5xwV,2020-0188,2020-06-04,09:47:43,10:05:52,NA,incomplete,188,gender,3,1,right,C_F_09.jpg,C_M_01.jpg,A_F_03.jpg,right,1031.9250000175089,true,high,NA,NA,NA,NA,NA,NA,NA,false
Xfvy5xwV,38f60ialbjuvdvfa6f4is9xu20x0td,3ftyuglfsyypex388xfhtk7q3dnd5p,Xfvy5xwV,2020-0188,2020-06-04,09:47:43,10:05:52,NA,incomplete,189,gender,3,1,right,C_M_11.jpg,C_F_02.jpg,A_M_15.jpg,right,860.8250000979751,true,high,NA,NA,NA,NA,NA,NA,NA,false
Xfvy5xwV,38f60ialbjuvdvfa6f4is9xu20x0td,3ftyuglfsyypex388xfhtk7q3dnd5p,Xfvy5xwV,2020-0188,2020-06-04,09:47:43,10:05:52,NA,incomplete,190,gender,3,0,right,C_F_13.jpg,C_M_10.jpg,A_F_05.jpg,right,660.4150000493973,true,high,NA,NA,NA,NA,NA,NA,NA,false
Xfvy5xwV,38f60ialbjuvdvfa6f4is9xu20x0td,3ftyuglfsyypex388xfhtk7q3dnd5p,Xfvy5xwV,2020-0188,2020-06-04,09:47:43,10:05:52,NA,incomplete,191,gender,3,1,left,C_M_08.jpg,A_M_10.jpg,C_F_01.jpg,left,568.9550000242889,true,high,NA,NA,NA,NA,NA,NA,NA,false
Xfvy5xwV,38f60ialbjuvdvfa6f4is9xu20x0td,3ftyuglfsyypex388xfhtk7q3dnd5p,Xfvy5xwV,2020-0188,2020-06-04,09:47:43,10:05:52,NA,incomplete,192,gender,3,0,left,A_F_08.jpg,C_F_12.jpg,A_M_05.jpg,left,757.3799998499453,true,high,NA,NA,NA,NA,NA,NA,NA,false
Xfvy5xwV,38f60ialbjuvdvfa6f4is9xu20x0td,3ftyuglfsyypex388xfhtk7q3dnd5p,Xfvy5xwV,2020-0188,2020-06-04,09:47:43,10:05:52,NA,incomplete,193,gender,3,1,right,A_M_13.jpg,A_F_11.jpg,C_M_10.jpg,right,807.8099999111146,true,high,NA,NA,NA,NA,NA,NA,NA,false
Xfvy5xwV,38f60ialbjuvdvfa6f4is9xu20x0td,3ftyuglfsyypex388xfhtk7q3dnd5p,Xfvy5xwV,2020-0188,2020-06-04,09:47:43,10:05:52,NA,incomplete,194,gender,3,0,right,C_M_13.jpg,C_F_12.jpg,A_M_14.jpg,right,760.7100000604987,true,high,NA,NA,NA,NA,NA,NA,NA,false
Xfvy5xwV,38f60ialbjuvdvfa6f4is9xu20x0td,3ftyuglfsyypex388xfhtk7q3dnd5p,Xfvy5xwV,2020-0188,2020-06-04,09:47:43,10:05:52,NA,incomplete,195,gender,3,1,left,C_M_06.jpg,A_M_01.jpg,C_F_15.jpg,left,587.9900001455098,true,high,NA,NA,NA,NA,NA,NA,NA,false
Xfvy5xwV,38f60ialbjuvdvfa6f4is9xu20x0td,3ftyuglfsyypex388xfhtk7q3dnd5p,Xfvy5xwV,2020-0188,2020-06-04,09:47:43,10:05:52,NA,incomplete,196,gender,3,1,right,C_F_15.jpg,C_M_11.jpg,A_F_07.jpg,right,862.470000050962,true,high,NA,NA,NA,NA,NA,NA,NA,false
Xfvy5xwV,38f60ialbjuvdvfa6f4is9xu20x0td,3ftyuglfsyypex388xfhtk7q3dnd5p,Xfvy5xwV,2020-0188,2020-06-04,09:47:43,10:05:52,NA,incomplete,197,gender,3,1,left,C_F_08.jpg,A_F_15.jpg,C_M_16.jpg,left,500.8100001141429,true,high,NA,NA,NA,NA,NA,NA,NA,false
Xfvy5xwV,38f60ialbjuvdvfa6f4is9xu20x0td,3ftyuglfsyypex388xfhtk7q3dnd5p,Xfvy5xwV,2020-0188,2020-06-04,09:47:43,10:05:52,NA,incomplete,198,gender,3,0,left,C_M_14.jpg,A_M_06.jpg,C_F_04.jpg,left,742.4900000914931,true,high,NA,NA,NA,NA,NA,NA,NA,false
Xfvy5xwV,38f60ialbjuvdvfa6f4is9xu20x0td,3ftyuglfsyypex388xfhtk7q3dnd5p,Xfvy5xwV,2020-0188,2020-06-04,09:47:43,10:05:52,NA,incomplete,199,gender,3,1,right,A_M_04.jpg,A_F_03.jpg,C_M_13.jpg,right,824.8100001364946,true,high,NA,NA,NA,NA,NA,NA,NA,false
Xfvy5xwV,38f60ialbjuvdvfa6f4is9xu20x0td,3ftyuglfsyypex388xfhtk7q3dnd5p,Xfvy5xwV,2020-0188,2020-06-04,09:47:43,10:05:52,NA,incomplete,200,race,2,1,left,A_F_10.jpg,A_M_04.jpg,C_F_13.jpg,right,817.3650000244379,false,high,NA,NA,NA,NA,NA,NA,NA,false
Xfvy5xwV,38f60ialbjuvdvfa6f4is9xu20x0td,3ftyuglfsyypex388xfhtk7q3dnd5p,Xfvy5xwV,2020-0188,2020-06-04,09:47:43,10:05:52,NA,incomplete,201,race,2,0,right,C_M_15.jpg,A_M_03.jpg,C_F_08.jpg,left,605.8400000911206,false,high,NA,NA,NA,NA,NA,NA,NA,false
Xfvy5xwV,38f60ialbjuvdvfa6f4is9xu20x0td,3ftyuglfsyypex388xfhtk7q3dnd5p,Xfvy5xwV,2020-0188,2020-06-04,09:47:43,10:05:52,NA,incomplete,202,race,2,1,left,A_F_12.jpg,A_M_06.jpg,C_F_11.jpg,right,913.5249999817461,false,high,NA,NA,NA,NA,NA,NA,NA,false
Xfvy5xwV,38f60ialbjuvdvfa6f4is9xu20x0td,3ftyuglfsyypex388xfhtk7q3dnd5p,Xfvy5xwV,2020-0188,2020-06-04,09:47:43,10:05:52,NA,incomplete,203,race,2,0,right,A_M_14.jpg,C_M_16.jpg,A_F_11.jpg,left,760.9350001439452,false,high,NA,NA,NA,NA,NA,NA,NA,false
Xfvy5xwV,38f60ialbjuvdvfa6f4is9xu20x0td,3ftyuglfsyypex388xfhtk7q3dnd5p,Xfvy5xwV,2020-0188,2020-06-04,09:47:43,10:05:52,NA,incomplete,204,race,2,1,right,C_F_07.jpg,A_F_03.jpg,C_M_02.jpg,right,835.5100001208484,true,high,NA,NA,NA,NA,NA,NA,NA,false
Xfvy5xwV,38f60ialbjuvdvfa6f4is9xu20x0td,3ftyuglfsyypex388xfhtk7q3dnd5p,Xfvy5xwV,2020-0188,2020-06-04,09:47:43,10:05:52,NA,incomplete,205,race,2,0,right,C_M_09.jpg,A_M_04.jpg,C_F_06.jpg,right,853.6800001747906,true,high,NA,NA,NA,NA,NA,NA,NA,false
Xfvy5xwV,38f60ialbjuvdvfa6f4is9xu20x0td,3ftyuglfsyypex388xfhtk7q3dnd5p,Xfvy5xwV,2020-0188,2020-06-04,09:47:43,10:05:52,NA,incomplete,206,race,2,1,right,C_M_11.jpg,A_M_02.jpg,C_F_06.jpg,right,937.134999781847,true,high,NA,NA,NA,NA,NA,NA,NA,false
Xfvy5xwV,38f60ialbjuvdvfa6f4is9xu20x0td,3ftyuglfsyypex388xfhtk7q3dnd5p,Xfvy5xwV,2020-0188,2020-06-04,09:47:43,10:05:52,NA,incomplete,207,race,2,1,left,C_M_07.jpg,C_F_02.jpg,A_M_16.jpg,left,1091.5149999782443,true,high,NA,NA,NA,NA,NA,NA,NA,false
Xfvy5xwV,38f60ialbjuvdvfa6f4is9xu20x0td,3ftyuglfsyypex388xfhtk7q3dnd5p,Xfvy5xwV,2020-0188,2020-06-04,09:47:43,10:05:52,NA,incomplete,208,race,2,1,left,A_M_04.jpg,A_F_11.jpg,C_M_06.jpg,left,861.415000166744,true,high,NA,NA,NA,NA,NA,NA,NA,false
Xfvy5xwV,38f60ialbjuvdvfa6f4is9xu20x0td,3ftyuglfsyypex388xfhtk7q3dnd5p,Xfvy5xwV,2020-0188,2020-06-04,09:47:43,10:05:52,NA,incomplete,209,race,2,1,left,C_M_10.jpg,C_F_16.jpg,A_M_15.jpg,left,752.4349999148399,true,high,NA,NA,NA,NA,NA,NA,NA,false
Xfvy5xwV,38f60ialbjuvdvfa6f4is9xu20x0td,3ftyuglfsyypex388xfhtk7q3dnd5p,Xfvy5xwV,2020-0188,2020-06-04,09:47:43,10:05:52,NA,incomplete,210,race,2,1,left,A_F_08.jpg,A_M_12.jpg,C_F_02.jpg,left,673.9449999295175,true,high,NA,NA,NA,NA,NA,NA,NA,false
Xfvy5xwV,38f60ialbjuvdvfa6f4is9xu20x0td,3ftyuglfsyypex388xfhtk7q3dnd5p,Xfvy5xwV,2020-0188,2020-06-04,09:47:43,10:05:52,NA,incomplete,211,race,2,1,right,C_M_11.jpg,A_M_09.jpg,C_F_03.jpg,right,812.9050000570714,true,high,NA,NA,NA,NA,NA,NA,NA,false
Xfvy5xwV,38f60ialbjuvdvfa6f4is9xu20x0td,3ftyuglfsyypex388xfhtk7q3dnd5p,Xfvy5xwV,2020-0188,2020-06-04,09:47:43,10:05:52,NA,incomplete,212,race,2,1,left,A_F_14.jpg,A_M_02.jpg,C_F_10.jpg,left,700.5849999841303,true,high,NA,NA,NA,NA,NA,NA,NA,false
Xfvy5xwV,38f60ialbjuvdvfa6f4is9xu20x0td,3ftyuglfsyypex388xfhtk7q3dnd5p,Xfvy5xwV,2020-0188,2020-06-04,09:47:43,10:05:52,NA,incomplete,213,race,2,1,left,C_M_03.jpg,C_F_12.jpg,A_M_07.jpg,left,749.210000038147,true,high,NA,NA,NA,NA,NA,NA,NA,false
Xfvy5xwV,38f60ialbjuvdvfa6f4is9xu20x0td,3ftyuglfsyypex388xfhtk7q3dnd5p,Xfvy5xwV,2020-0188,2020-06-04,09:47:43,10:05:52,NA,incomplete,214,race,2,0,right,A_M_02.jpg,C_M_03.jpg,A_F_04.jpg,right,742.8399999625981,true,high,NA,NA,NA,NA,NA,NA,NA,false
Xfvy5xwV,38f60ialbjuvdvfa6f4is9xu20x0td,3ftyuglfsyypex388xfhtk7q3dnd5p,Xfvy5xwV,2020-0188,2020-06-04,09:47:43,10:05:52,NA,incomplete,215,race,2,1,right,C_M_07.jpg,A_M_01.jpg,C_F_04.jpg,right,1023.47999997437,true,high,NA,NA,NA,NA,NA,NA,NA,false
Xfvy5xwV,38f60ialbjuvdvfa6f4is9xu20x0td,3ftyuglfsyypex388xfhtk7q3dnd5p,Xfvy5xwV,2020-0188,2020-06-04,09:47:43,10:05:52,NA,incomplete,216,race,2,0,right,C_M_10.jpg,A_M_06.jpg,C_F_11.jpg,right,766.509999986738,true,high,NA,NA,NA,NA,NA,NA,NA,false
Xfvy5xwV,38f60ialbjuvdvfa6f4is9xu20x0td,3ftyuglfsyypex388xfhtk7q3dnd5p,Xfvy5xwV,2020-0188,2020-06-04,09:47:43,10:05:52,NA,incomplete,217,race,2,1,right,A_M_11.jpg,C_M_15.jpg,A_F_16.jpg,right,712.0550000108778,true,high,NA,NA,NA,NA,NA,NA,NA,false
Xfvy5xwV,38f60ialbjuvdvfa6f4is9xu20x0td,3ftyuglfsyypex388xfhtk7q3dnd5p,Xfvy5xwV,2020-0188,2020-06-04,09:47:43,10:05:52,NA,incomplete,218,race,2,1,left,C_F_06.jpg,C_M_08.jpg,A_F_02.jpg,left,928.2050000037998,true,high,NA,NA,NA,NA,NA,NA,NA,false
Xfvy5xwV,38f60ialbjuvdvfa6f4is9xu20x0td,3ftyuglfsyypex388xfhtk7q3dnd5p,Xfvy5xwV,2020-0188,2020-06-04,09:47:43,10:05:52,NA,incomplete,219,race,2,1,right,C_F_01.jpg,A_F_14.jpg,C_M_10.jpg,right,950.6200000178069,true,high,NA,NA,NA,NA,NA,NA,NA,false
Xfvy5xwV,38f60ialbjuvdvfa6f4is9xu20x0td,3ftyuglfsyypex388xfhtk7q3dnd5p,Xfvy5xwV,2020-0188,2020-06-04,09:47:43,10:05:52,NA,incomplete,220,gender,3,1,left,C_F_12.jpg,A_F_01.jpg,C_M_09.jpg,right,931.0449999757111,false,high,NA,NA,NA,NA,NA,NA,NA,false
Xfvy5xwV,38f60ialbjuvdvfa6f4is9xu20x0td,3ftyuglfsyypex388xfhtk7q3dnd5p,Xfvy5xwV,2020-0188,2020-06-04,09:47:43,10:05:52,NA,incomplete,221,gender,3,1,right,C_M_11.jpg,C_F_03.jpg,A_M_02.jpg,left,890.0500000454485,false,high,NA,NA,NA,NA,NA,NA,NA,false
Xfvy5xwV,38f60ialbjuvdvfa6f4is9xu20x0td,3ftyuglfsyypex388xfhtk7q3dnd5p,Xfvy5xwV,2020-0188,2020-06-04,09:47:43,10:05:52,NA,incomplete,222,gender,3,1,right,A_F_03.jpg,A_M_02.jpg,C_F_10.jpg,left,740.9900000784546,false,high,NA,NA,NA,NA,NA,NA,NA,false
Xfvy5xwV,38f60ialbjuvdvfa6f4is9xu20x0td,3ftyuglfsyypex388xfhtk7q3dnd5p,Xfvy5xwV,2020-0188,2020-06-04,09:47:43,10:05:52,NA,incomplete,223,gender,3,1,left,C_M_09.jpg,A_M_11.jpg,C_F_06.jpg,left,580.3750001359731,true,high,NA,NA,NA,NA,NA,NA,NA,false
Xfvy5xwV,38f60ialbjuvdvfa6f4is9xu20x0td,3ftyuglfsyypex388xfhtk7q3dnd5p,Xfvy5xwV,2020-0188,2020-06-04,09:47:43,10:05:52,NA,incomplete,224,gender,3,1,left,A_M_11.jpg,C_M_07.jpg,A_F_10.jpg,left,1011.2950000911951,true,high,NA,NA,NA,NA,NA,NA,NA,false
Xfvy5xwV,38f60ialbjuvdvfa6f4is9xu20x0td,3ftyuglfsyypex388xfhtk7q3dnd5p,Xfvy5xwV,2020-0188,2020-06-04,09:47:43,10:05:52,NA,incomplete,225,gender,3,1,right,A_M_04.jpg,A_F_09.jpg,C_M_06.jpg,right,670.2899998053908,true,high,NA,NA,NA,NA,NA,NA,NA,false
Xfvy5xwV,38f60ialbjuvdvfa6f4is9xu20x0td,3ftyuglfsyypex388xfhtk7q3dnd5p,Xfvy5xwV,2020-0188,2020-06-04,09:47:43,10:05:52,NA,incomplete,226,gender,3,1,left,C_M_12.jpg,A_M_07.jpg,C_F_16.jpg,left,583.6499999277294,true,high,NA,NA,NA,NA,NA,NA,NA,false
Xfvy5xwV,38f60ialbjuvdvfa6f4is9xu20x0td,3ftyuglfsyypex388xfhtk7q3dnd5p,Xfvy5xwV,2020-0188,2020-06-04,09:47:43,10:05:52,NA,incomplete,227,gender,3,1,left,C_M_09.jpg,A_M_04.jpg,C_F_01.jpg,left,535.3850000537932,true,high,NA,NA,NA,NA,NA,NA,NA,false
Xfvy5xwV,38f60ialbjuvdvfa6f4is9xu20x0td,3ftyuglfsyypex388xfhtk7q3dnd5p,Xfvy5xwV,2020-0188,2020-06-04,09:47:43,10:05:52,NA,incomplete,228,gender,3,0,right,A_F_06.jpg,A_M_01.jpg,C_F_03.jpg,right,826.5249999240041,true,high,NA,NA,NA,NA,NA,NA,NA,false
Xfvy5xwV,38f60ialbjuvdvfa6f4is9xu20x0td,3ftyuglfsyypex388xfhtk7q3dnd5p,Xfvy5xwV,2020-0188,2020-06-04,09:47:43,10:05:52,NA,incomplete,229,gender,3,1,left,A_M_14.jpg,C_M_10.jpg,A_F_09.jpg,left,866.7350001633167,true,high,NA,NA,NA,NA,NA,NA,NA,false
Xfvy5xwV,38f60ialbjuvdvfa6f4is9xu20x0td,3ftyuglfsyypex388xfhtk7q3dnd5p,Xfvy5xwV,2020-0188,2020-06-04,09:47:43,10:05:52,NA,incomplete,230,gender,3,1,right,A_F_15.jpg,A_M_13.jpg,C_F_02.jpg,right,1035.8949999790639,true,high,NA,NA,NA,NA,NA,NA,NA,false
Xfvy5xwV,38f60ialbjuvdvfa6f4is9xu20x0td,3ftyuglfsyypex388xfhtk7q3dnd5p,Xfvy5xwV,2020-0188,2020-06-04,09:47:43,10:05:52,NA,incomplete,231,gender,3,1,left,A_M_12.jpg,C_M_07.jpg,A_F_13.jpg,left,696.3500001002103,true,high,NA,NA,NA,NA,NA,NA,NA,false
Xfvy5xwV,38f60ialbjuvdvfa6f4is9xu20x0td,3ftyuglfsyypex388xfhtk7q3dnd5p,Xfvy5xwV,2020-0188,2020-06-04,09:47:43,10:05:52,NA,incomplete,232,gender,3,1,left,A_M_05.jpg,C_M_07.jpg,A_F_13.jpg,left,612.3699999880046,true,high,NA,NA,NA,NA,NA,NA,NA,false
Xfvy5xwV,38f60ialbjuvdvfa6f4is9xu20x0td,3ftyuglfsyypex388xfhtk7q3dnd5p,Xfvy5xwV,2020-0188,2020-06-04,09:47:43,10:05:52,NA,incomplete,233,gender,3,1,right,C_M_08.jpg,C_F_02.jpg,A_M_11.jpg,right,585.8450001105666,true,high,NA,NA,NA,NA,NA,NA,NA,false
Xfvy5xwV,38f60ialbjuvdvfa6f4is9xu20x0td,3ftyuglfsyypex388xfhtk7q3dnd5p,Xfvy5xwV,2020-0188,2020-06-04,09:47:43,10:05:52,NA,incomplete,234,gender,3,1,right,C_F_09.jpg,C_M_01.jpg,A_F_10.jpg,right,792.9149998817593,true,high,NA,NA,NA,NA,NA,NA,NA,false
Xfvy5xwV,38f60ialbjuvdvfa6f4is9xu20x0td,3ftyuglfsyypex388xfhtk7q3dnd5p,Xfvy5xwV,2020-0188,2020-06-04,09:47:43,10:05:52,NA,incomplete,235,gender,3,1,left,C_M_04.jpg,A_M_08.jpg,C_F_12.jpg,left,607.4449999723583,true,high,NA,NA,NA,NA,NA,NA,NA,false
Xfvy5xwV,38f60ialbjuvdvfa6f4is9xu20x0td,3ftyuglfsyypex388xfhtk7q3dnd5p,Xfvy5xwV,2020-0188,2020-06-04,09:47:43,10:05:52,NA,incomplete,236,gender,3,1,left,C_F_05.jpg,A_F_16.jpg,C_M_09.jpg,left,708.064999897033,true,high,NA,NA,NA,NA,NA,NA,NA,false
Xfvy5xwV,38f60ialbjuvdvfa6f4is9xu20x0td,3ftyuglfsyypex388xfhtk7q3dnd5p,Xfvy5xwV,2020-0188,2020-06-04,09:47:43,10:05:52,NA,incomplete,237,gender,3,1,left,A_F_13.jpg,C_F_10.jpg,A_M_03.jpg,left,626.0049999691546,true,high,NA,NA,NA,NA,NA,NA,NA,false
Xfvy5xwV,38f60ialbjuvdvfa6f4is9xu20x0td,3ftyuglfsyypex388xfhtk7q3dnd5p,Xfvy5xwV,2020-0188,2020-06-04,09:47:43,10:05:52,NA,incomplete,238,gender,3,1,left,C_F_06.jpg,A_F_16.jpg,C_M_04.jpg,left,595.2650001272559,true,high,NA,NA,NA,NA,NA,NA,NA,false
Xfvy5xwV,38f60ialbjuvdvfa6f4is9xu20x0td,3ftyuglfsyypex388xfhtk7q3dnd5p,Xfvy5xwV,2020-0188,2020-06-04,09:47:43,10:05:52,NA,incomplete,239,gender,3,1,right,C_M_12.jpg,C_F_10.jpg,A_M_05.jpg,right,570.039999904111,true,high,NA,NA,NA,NA,NA,NA,NA,false
Xfvy5xwV,38f60ialbjuvdvfa6f4is9xu20x0td,3ftyuglfsyypex388xfhtk7q3dnd5p,Xfvy5xwV,2020-0188,2020-06-04,09:47:43,10:05:52,NA,NA,instruction example,shape,NA,NA,NA,Purple_Circle_Dots_3.jpg,Green_Circle_Stripes_4.jpg,Red_Triangle_Chess_3.jpg,NA,NA,NA,NA,NA,NA,NA,NA,NA,NA,NA,undefined
Xfvy5xwV,38f60ialbjuvdvfa6f4is9xu20x0td,3ftyuglfsyypex388xfhtk7q3dnd5p,Xfvy5xwV,2020-0188,2020-06-04,09:47:43,10:05:52,NA,NA,instruction example,shape,NA,NA,NA,Green_Star_Stripes_4.jpg,Blue_Plus_Grid_4.jpg,Red_Star_Dots_3.jpg,NA,NA,NA,NA,NA,NA,NA,NA,NA,NA,NA,undefined
Xfvy5xwV,38f60ialbjuvdvfa6f4is9xu20x0td,3ftyuglfsyypex388xfhtk7q3dnd5p,Xfvy5xwV,2020-0188,2020-06-04,09:47:43,10:05:52,NA,NA,instruction example,shape,NA,NA,NA,C_F_05.jpg,C_M_11.jpg,A_F_04.jpg,NA,NA,NA,NA,NA,NA,NA,NA,NA,NA,NA,undefined
Xfvy5xwV,38f60ialbjuvdvfa6f4is9xu20x0td,3ftyuglfsyypex388xfhtk7q3dnd5p,Xfvy5xwV,2020-0188,2020-06-04,09:47:43,10:05:52,NA,NA,instruction example,shape,NA,NA,NA,A_F_14.jpg,C_F_09.jpg,A_M_05.jpg,NA,NA,NA,NA,NA,NA,NA,NA,NA,NA,NA,undefined
Xfvy5xwV,38f60ialbjuvdvfa6f4is9xu20x0td,3ftyuglfsyypex388xfhtk7q3dnd5p,Xfvy5xwV,2020-0188,2020-06-04,09:47:43,10:05:52,1052750.8900000248,1090862.775000045,NA,NA,NA,NA,NA,NA,NA,NA,NA,NA,NA,NA,46,White/Caucasian,Female,white/European,no,yes,no,undefined
