workerId,hitId,assignmentId,subject,studyid,exp_date,exp_start,exp_end,time_start,time_end,trial,type,sequence,reward_validity,answer,image_top,image_left,image_right,response,response_time,response_acc,volatility,age,race,gender,ethnicity,color,vision,neuro,practice
q4okTcwJ,3e9vauv7czrnvucm8noapw1mqoqyaq,3g5f9dbfotano7np0kgko3gn8xmvhz,q4okTcwJ,2020-0188,2020-06-04,18:18:11,18:44:34,NA,incomplete,0,number,0,1,right,Green_Plus_Dots_2.jpg,Red_Plus_Grid_3.jpg,Purple_Triangle_Stripes_2.jpg,none,0,false,NA,NA,NA,NA,NA,NA,NA,NA,true
q4okTcwJ,3e9vauv7czrnvucm8noapw1mqoqyaq,3g5f9dbfotano7np0kgko3gn8xmvhz,q4okTcwJ,2020-0188,2020-06-04,18:18:11,18:44:34,NA,incomplete,1,number,0,1,right,Green_Plus_Dots_2.jpg,Red_Plus_Chess_3.jpg,Purple_Circle_Stripes_2.jpg,right,1259,true,NA,NA,NA,NA,NA,NA,NA,NA,true
q4okTcwJ,3e9vauv7czrnvucm8noapw1mqoqyaq,3g5f9dbfotano7np0kgko3gn8xmvhz,q4okTcwJ,2020-0188,2020-06-04,18:18:11,18:44:34,NA,incomplete,2,number,0,1,right,Red_Star_Grid_3.jpg,Blue_Star_Dots_4.jpg,Purple_Circle_Stripes_3.jpg,right,1632,true,NA,NA,NA,NA,NA,NA,NA,NA,true
q4okTcwJ,3e9vauv7czrnvucm8noapw1mqoqyaq,3g5f9dbfotano7np0kgko3gn8xmvhz,q4okTcwJ,2020-0188,2020-06-04,18:18:11,18:44:34,NA,incomplete,3,number,0,0,right,Purple_Triangle_Chess_3.jpg,Red_Triangle_Grid_2.jpg,Green_Plus_Dots_3.jpg,right,1498,true,NA,NA,NA,NA,NA,NA,NA,NA,true
q4okTcwJ,3e9vauv7czrnvucm8noapw1mqoqyaq,3g5f9dbfotano7np0kgko3gn8xmvhz,q4okTcwJ,2020-0188,2020-06-04,18:18:11,18:44:34,NA,incomplete,4,number,0,1,right,Purple_Star_Chess_1.jpg,Green_Star_Stripes_3.jpg,Blue_Triangle_Grid_1.jpg,right,1108,true,NA,NA,NA,NA,NA,NA,NA,NA,true
q4okTcwJ,3e9vauv7czrnvucm8noapw1mqoqyaq,3g5f9dbfotano7np0kgko3gn8xmvhz,q4okTcwJ,2020-0188,2020-06-04,18:18:11,18:44:34,NA,incomplete,5,number,0,0,right,Blue_Circle_Stripes_1.jpg,Purple_Circle_Chess_3.jpg,Green_Plus_Grid_1.jpg,right,1045,true,NA,NA,NA,NA,NA,NA,NA,NA,true
q4okTcwJ,3e9vauv7czrnvucm8noapw1mqoqyaq,3g5f9dbfotano7np0kgko3gn8xmvhz,q4okTcwJ,2020-0188,2020-06-04,18:18:11,18:44:34,NA,incomplete,6,number,0,1,right,Blue_Triangle_Chess_4.jpg,Green_Triangle_Dots_3.jpg,Red_Star_Grid_4.jpg,right,1672,true,NA,NA,NA,NA,NA,NA,NA,NA,true
q4okTcwJ,3e9vauv7czrnvucm8noapw1mqoqyaq,3g5f9dbfotano7np0kgko3gn8xmvhz,q4okTcwJ,2020-0188,2020-06-04,18:18:11,18:44:34,NA,incomplete,7,number,0,1,right,Purple_Plus_Chess_3.jpg,Green_Plus_Dots_1.jpg,Blue_Circle_Stripes_3.jpg,right,1388,true,NA,NA,NA,NA,NA,NA,NA,NA,true
q4okTcwJ,3e9vauv7czrnvucm8noapw1mqoqyaq,3g5f9dbfotano7np0kgko3gn8xmvhz,q4okTcwJ,2020-0188,2020-06-04,18:18:11,18:44:34,NA,incomplete,8,number,0,0,left,Red_Circle_Stripes_3.jpg,Blue_Triangle_Dots_3.jpg,Purple_Circle_Chess_1.jpg,left,1409,true,NA,NA,NA,NA,NA,NA,NA,NA,true
q4okTcwJ,3e9vauv7czrnvucm8noapw1mqoqyaq,3g5f9dbfotano7np0kgko3gn8xmvhz,q4okTcwJ,2020-0188,2020-06-04,18:18:11,18:44:34,NA,incomplete,9,number,0,1,left,Blue_Star_Dots_3.jpg,Purple_Triangle_Stripes_3.jpg,Green_Star_Grid_1.jpg,left,1686,true,NA,NA,NA,NA,NA,NA,NA,NA,true
q4okTcwJ,3e9vauv7czrnvucm8noapw1mqoqyaq,3g5f9dbfotano7np0kgko3gn8xmvhz,q4okTcwJ,2020-0188,2020-06-04,18:18:11,18:44:34,NA,incomplete,10,number,0,0,right,Purple_Plus_Grid_2.jpg,Red_Plus_Chess_4.jpg,Blue_Triangle_Stripes_2.jpg,right,1135,true,NA,NA,NA,NA,NA,NA,NA,NA,true
q4okTcwJ,3e9vauv7czrnvucm8noapw1mqoqyaq,3g5f9dbfotano7np0kgko3gn8xmvhz,q4okTcwJ,2020-0188,2020-06-04,18:18:11,18:44:34,NA,incomplete,11,number,0,1,right,Blue_Star_Grid_3.jpg,Green_Star_Stripes_4.jpg,Purple_Plus_Dots_3.jpg,right,1041,true,NA,NA,NA,NA,NA,NA,NA,NA,true
q4okTcwJ,3e9vauv7czrnvucm8noapw1mqoqyaq,3g5f9dbfotano7np0kgko3gn8xmvhz,q4okTcwJ,2020-0188,2020-06-04,18:18:11,18:44:34,NA,incomplete,12,number,0,1,right,Green_Plus_Stripes_1.jpg,Blue_Plus_Grid_2.jpg,Red_Star_Dots_1.jpg,right,931,true,NA,NA,NA,NA,NA,NA,NA,NA,true
q4okTcwJ,3e9vauv7czrnvucm8noapw1mqoqyaq,3g5f9dbfotano7np0kgko3gn8xmvhz,q4okTcwJ,2020-0188,2020-06-04,18:18:11,18:44:34,NA,incomplete,13,number,0,1,right,Purple_Circle_Stripes_4.jpg,Red_Circle_Dots_2.jpg,Blue_Triangle_Grid_4.jpg,right,916,true,NA,NA,NA,NA,NA,NA,NA,NA,true
q4okTcwJ,3e9vauv7czrnvucm8noapw1mqoqyaq,3g5f9dbfotano7np0kgko3gn8xmvhz,q4okTcwJ,2020-0188,2020-06-04,18:18:11,18:44:34,NA,incomplete,14,number,0,1,right,Purple_Circle_Grid_4.jpg,Green_Circle_Dots_2.jpg,Blue_Star_Stripes_4.jpg,right,916,true,NA,NA,NA,NA,NA,NA,NA,NA,true
q4okTcwJ,3e9vauv7czrnvucm8noapw1mqoqyaq,3g5f9dbfotano7np0kgko3gn8xmvhz,q4okTcwJ,2020-0188,2020-06-04,18:18:11,18:44:34,NA,incomplete,15,number,0,1,left,Red_Triangle_Chess_1.jpg,Blue_Circle_Grid_1.jpg,Green_Triangle_Stripes_2.jpg,left,1272,true,NA,NA,NA,NA,NA,NA,NA,NA,true
q4okTcwJ,3e9vauv7czrnvucm8noapw1mqoqyaq,3g5f9dbfotano7np0kgko3gn8xmvhz,q4okTcwJ,2020-0188,2020-06-04,18:18:11,18:44:34,NA,incomplete,16,number,0,1,left,Green_Circle_Dots_4.jpg,Blue_Plus_Chess_4.jpg,Purple_Circle_Grid_1.jpg,left,871,true,NA,NA,NA,NA,NA,NA,NA,NA,true
q4okTcwJ,3e9vauv7czrnvucm8noapw1mqoqyaq,3g5f9dbfotano7np0kgko3gn8xmvhz,q4okTcwJ,2020-0188,2020-06-04,18:18:11,18:44:34,NA,incomplete,17,number,0,1,right,Green_Triangle_Stripes_4.jpg,Purple_Triangle_Dots_1.jpg,Red_Star_Chess_4.jpg,right,834,true,NA,NA,NA,NA,NA,NA,NA,NA,true
q4okTcwJ,3e9vauv7czrnvucm8noapw1mqoqyaq,3g5f9dbfotano7np0kgko3gn8xmvhz,q4okTcwJ,2020-0188,2020-06-04,18:18:11,18:44:34,NA,incomplete,18,number,0,1,left,Green_Star_Dots_2.jpg,Red_Circle_Chess_2.jpg,Blue_Star_Stripes_1.jpg,left,1124,true,NA,NA,NA,NA,NA,NA,NA,NA,true
q4okTcwJ,3e9vauv7czrnvucm8noapw1mqoqyaq,3g5f9dbfotano7np0kgko3gn8xmvhz,q4okTcwJ,2020-0188,2020-06-04,18:18:11,18:44:34,NA,incomplete,19,number,0,1,right,Blue_Circle_Dots_4.jpg,Green_Circle_Stripes_3.jpg,Red_Triangle_Chess_4.jpg,right,941,true,NA,NA,NA,NA,NA,NA,NA,NA,true
q4okTcwJ,3e9vauv7czrnvucm8noapw1mqoqyaq,3g5f9dbfotano7np0kgko3gn8xmvhz,q4okTcwJ,2020-0188,2020-06-04,18:18:11,18:44:34,NA,incomplete,20,shape,1,1,left,Green_Star_Chess_4.jpg,Blue_Star_Dots_1.jpg,Purple_Plus_Stripes_4.jpg,left,1525,true,NA,NA,NA,NA,NA,NA,NA,NA,true
q4okTcwJ,3e9vauv7czrnvucm8noapw1mqoqyaq,3g5f9dbfotano7np0kgko3gn8xmvhz,q4okTcwJ,2020-0188,2020-06-04,18:18:11,18:44:34,NA,incomplete,21,shape,1,0,left,Blue_Circle_Chess_3.jpg,Red_Circle_Stripes_1.jpg,Purple_Plus_Dots_3.jpg,left,1110,true,NA,NA,NA,NA,NA,NA,NA,NA,true
q4okTcwJ,3e9vauv7czrnvucm8noapw1mqoqyaq,3g5f9dbfotano7np0kgko3gn8xmvhz,q4okTcwJ,2020-0188,2020-06-04,18:18:11,18:44:34,NA,incomplete,22,shape,1,1,left,Red_Triangle_Stripes_2.jpg,Blue_Triangle_Dots_3.jpg,Green_Star_Chess_2.jpg,left,1006,true,NA,NA,NA,NA,NA,NA,NA,NA,true
q4okTcwJ,3e9vauv7czrnvucm8noapw1mqoqyaq,3g5f9dbfotano7np0kgko3gn8xmvhz,q4okTcwJ,2020-0188,2020-06-04,18:18:11,18:44:34,NA,incomplete,23,shape,1,1,right,Blue_Circle_Chess_4.jpg,Red_Star_Grid_4.jpg,Green_Circle_Dots_1.jpg,right,1067,true,NA,NA,NA,NA,NA,NA,NA,NA,true
q4okTcwJ,3e9vauv7czrnvucm8noapw1mqoqyaq,3g5f9dbfotano7np0kgko3gn8xmvhz,q4okTcwJ,2020-0188,2020-06-04,18:18:11,18:44:34,NA,incomplete,24,shape,1,1,right,Purple_Triangle_Stripes_4.jpg,Blue_Circle_Dots_4.jpg,Red_Triangle_Grid_3.jpg,right,1033,true,NA,NA,NA,NA,NA,NA,NA,NA,true
q4okTcwJ,3e9vauv7czrnvucm8noapw1mqoqyaq,3g5f9dbfotano7np0kgko3gn8xmvhz,q4okTcwJ,2020-0188,2020-06-04,18:18:11,18:44:34,NA,incomplete,25,shape,1,1,right,Red_Star_Chess_3.jpg,Purple_Plus_Stripes_3.jpg,Green_Star_Dots_4.jpg,right,1402,true,NA,NA,NA,NA,NA,NA,NA,NA,true
q4okTcwJ,3e9vauv7czrnvucm8noapw1mqoqyaq,3g5f9dbfotano7np0kgko3gn8xmvhz,q4okTcwJ,2020-0188,2020-06-04,18:18:11,18:44:34,NA,incomplete,26,shape,1,1,right,Red_Plus_Stripes_2.jpg,Green_Star_Dots_2.jpg,Blue_Plus_Chess_1.jpg,right,952,true,NA,NA,NA,NA,NA,NA,NA,NA,true
q4okTcwJ,3e9vauv7czrnvucm8noapw1mqoqyaq,3g5f9dbfotano7np0kgko3gn8xmvhz,q4okTcwJ,2020-0188,2020-06-04,18:18:11,18:44:34,NA,incomplete,27,shape,1,1,left,Red_Star_Dots_3.jpg,Green_Star_Chess_4.jpg,Blue_Plus_Stripes_3.jpg,left,1037,true,NA,NA,NA,NA,NA,NA,NA,NA,true
q4okTcwJ,3e9vauv7czrnvucm8noapw1mqoqyaq,3g5f9dbfotano7np0kgko3gn8xmvhz,q4okTcwJ,2020-0188,2020-06-04,18:18:11,18:44:34,NA,incomplete,28,shape,1,0,right,Green_Star_Dots_4.jpg,Red_Circle_Chess_4.jpg,Blue_Star_Stripes_3.jpg,right,1041,true,NA,NA,NA,NA,NA,NA,NA,NA,true
q4okTcwJ,3e9vauv7czrnvucm8noapw1mqoqyaq,3g5f9dbfotano7np0kgko3gn8xmvhz,q4okTcwJ,2020-0188,2020-06-04,18:18:11,18:44:34,NA,incomplete,29,shape,1,0,left,Red_Triangle_Dots_1.jpg,Blue_Triangle_Stripes_3.jpg,Green_Star_Grid_1.jpg,right,1205,false,NA,NA,NA,NA,NA,NA,NA,NA,true
q4okTcwJ,3e9vauv7czrnvucm8noapw1mqoqyaq,3g5f9dbfotano7np0kgko3gn8xmvhz,q4okTcwJ,2020-0188,2020-06-04,18:18:11,18:44:34,NA,incomplete,30,shape,1,1,left,Purple_Circle_Dots_3.jpg,Green_Circle_Stripes_4.jpg,Red_Star_Grid_3.jpg,left,1601,true,NA,NA,NA,NA,NA,NA,NA,NA,true
q4okTcwJ,3e9vauv7czrnvucm8noapw1mqoqyaq,3g5f9dbfotano7np0kgko3gn8xmvhz,q4okTcwJ,2020-0188,2020-06-04,18:18:11,18:44:34,NA,incomplete,31,shape,1,1,left,Purple_Circle_Grid_4.jpg,Green_Circle_Stripes_1.jpg,Red_Triangle_Dots_4.jpg,left,1063,true,NA,NA,NA,NA,NA,NA,NA,NA,true
q4okTcwJ,3e9vauv7czrnvucm8noapw1mqoqyaq,3g5f9dbfotano7np0kgko3gn8xmvhz,q4okTcwJ,2020-0188,2020-06-04,18:18:11,18:44:34,NA,incomplete,32,shape,1,1,left,Red_Circle_Stripes_3.jpg,Purple_Circle_Grid_2.jpg,Blue_Star_Dots_3.jpg,left,906,true,NA,NA,NA,NA,NA,NA,NA,NA,true
q4okTcwJ,3e9vauv7czrnvucm8noapw1mqoqyaq,3g5f9dbfotano7np0kgko3gn8xmvhz,q4okTcwJ,2020-0188,2020-06-04,18:18:11,18:44:34,NA,incomplete,33,shape,1,1,left,Blue_Plus_Dots_2.jpg,Green_Plus_Stripes_1.jpg,Purple_Circle_Chess_2.jpg,left,1082,true,NA,NA,NA,NA,NA,NA,NA,NA,true
q4okTcwJ,3e9vauv7czrnvucm8noapw1mqoqyaq,3g5f9dbfotano7np0kgko3gn8xmvhz,q4okTcwJ,2020-0188,2020-06-04,18:18:11,18:44:34,NA,incomplete,34,shape,1,1,right,Blue_Triangle_Chess_3.jpg,Purple_Star_Stripes_3.jpg,Green_Triangle_Grid_2.jpg,right,1236,true,NA,NA,NA,NA,NA,NA,NA,NA,true
q4okTcwJ,3e9vauv7czrnvucm8noapw1mqoqyaq,3g5f9dbfotano7np0kgko3gn8xmvhz,q4okTcwJ,2020-0188,2020-06-04,18:18:11,18:44:34,NA,incomplete,35,shape,1,0,left,Green_Plus_Chess_2.jpg,Purple_Plus_Dots_3.jpg,Red_Star_Stripes_2.jpg,left,954,true,NA,NA,NA,NA,NA,NA,NA,NA,true
q4okTcwJ,3e9vauv7czrnvucm8noapw1mqoqyaq,3g5f9dbfotano7np0kgko3gn8xmvhz,q4okTcwJ,2020-0188,2020-06-04,18:18:11,18:44:34,NA,incomplete,36,shape,1,1,left,Purple_Plus_Chess_1.jpg,Green_Plus_Dots_4.jpg,Red_Star_Grid_1.jpg,left,1119,true,NA,NA,NA,NA,NA,NA,NA,NA,true
q4okTcwJ,3e9vauv7czrnvucm8noapw1mqoqyaq,3g5f9dbfotano7np0kgko3gn8xmvhz,q4okTcwJ,2020-0188,2020-06-04,18:18:11,18:44:34,NA,incomplete,37,shape,1,1,left,Red_Star_Grid_1.jpg,Green_Star_Stripes_4.jpg,Purple_Triangle_Chess_1.jpg,left,973,true,NA,NA,NA,NA,NA,NA,NA,NA,true
q4okTcwJ,3e9vauv7czrnvucm8noapw1mqoqyaq,3g5f9dbfotano7np0kgko3gn8xmvhz,q4okTcwJ,2020-0188,2020-06-04,18:18:11,18:44:34,NA,incomplete,38,shape,1,1,left,Green_Plus_Dots_4.jpg,Purple_Plus_Chess_3.jpg,Blue_Triangle_Grid_4.jpg,left,1046,true,NA,NA,NA,NA,NA,NA,NA,NA,true
q4okTcwJ,3e9vauv7czrnvucm8noapw1mqoqyaq,3g5f9dbfotano7np0kgko3gn8xmvhz,q4okTcwJ,2020-0188,2020-06-04,18:18:11,18:44:34,NA,incomplete,39,shape,1,1,right,Purple_Star_Stripes_2.jpg,Blue_Plus_Chess_2.jpg,Red_Star_Dots_3.jpg,right,1235,true,NA,NA,NA,NA,NA,NA,NA,NA,true
q4okTcwJ,3e9vauv7czrnvucm8noapw1mqoqyaq,3g5f9dbfotano7np0kgko3gn8xmvhz,q4okTcwJ,2020-0188,2020-06-04,18:18:11,18:44:34,NA,incomplete,0,number,0,1,left,Blue_Circle_Dots_4.jpg,Green_Star_Chess_4.jpg,Red_Circle_Stripes_3.jpg,left,1564,true,high,NA,NA,NA,NA,NA,NA,NA,false
q4okTcwJ,3e9vauv7czrnvucm8noapw1mqoqyaq,3g5f9dbfotano7np0kgko3gn8xmvhz,q4okTcwJ,2020-0188,2020-06-04,18:18:11,18:44:34,NA,incomplete,1,number,0,1,right,Purple_Plus_Stripes_2.jpg,Green_Plus_Grid_1.jpg,Blue_Triangle_Dots_2.jpg,left,1108,false,high,NA,NA,NA,NA,NA,NA,NA,false
q4okTcwJ,3e9vauv7czrnvucm8noapw1mqoqyaq,3g5f9dbfotano7np0kgko3gn8xmvhz,q4okTcwJ,2020-0188,2020-06-04,18:18:11,18:44:34,NA,incomplete,2,number,0,0,right,Red_Plus_Stripes_1.jpg,Green_Plus_Dots_4.jpg,Purple_Star_Chess_1.jpg,left,1660,false,high,NA,NA,NA,NA,NA,NA,NA,false
q4okTcwJ,3e9vauv7czrnvucm8noapw1mqoqyaq,3g5f9dbfotano7np0kgko3gn8xmvhz,q4okTcwJ,2020-0188,2020-06-04,18:18:11,18:44:34,NA,incomplete,3,number,0,0,left,Red_Circle_Stripes_1.jpg,Blue_Star_Chess_1.jpg,Green_Circle_Dots_2.jpg,right,937,false,high,NA,NA,NA,NA,NA,NA,NA,false
q4okTcwJ,3e9vauv7czrnvucm8noapw1mqoqyaq,3g5f9dbfotano7np0kgko3gn8xmvhz,q4okTcwJ,2020-0188,2020-06-04,18:18:11,18:44:34,NA,incomplete,4,number,0,0,right,Purple_Circle_Stripes_4.jpg,Green_Circle_Grid_3.jpg,Red_Star_Chess_4.jpg,left,744,false,high,NA,NA,NA,NA,NA,NA,NA,false
q4okTcwJ,3e9vauv7czrnvucm8noapw1mqoqyaq,3g5f9dbfotano7np0kgko3gn8xmvhz,q4okTcwJ,2020-0188,2020-06-04,18:18:11,18:44:34,NA,incomplete,5,number,0,1,right,Green_Plus_Dots_4.jpg,Red_Plus_Chess_2.jpg,Purple_Circle_Stripes_4.jpg,left,823,false,high,NA,NA,NA,NA,NA,NA,NA,false
q4okTcwJ,3e9vauv7czrnvucm8noapw1mqoqyaq,3g5f9dbfotano7np0kgko3gn8xmvhz,q4okTcwJ,2020-0188,2020-06-04,18:18:11,18:44:34,NA,incomplete,6,number,0,1,right,Blue_Plus_Dots_4.jpg,Red_Plus_Chess_3.jpg,Purple_Circle_Stripes_4.jpg,left,756,false,high,NA,NA,NA,NA,NA,NA,NA,false
q4okTcwJ,3e9vauv7czrnvucm8noapw1mqoqyaq,3g5f9dbfotano7np0kgko3gn8xmvhz,q4okTcwJ,2020-0188,2020-06-04,18:18:11,18:44:34,NA,incomplete,7,number,0,1,right,Blue_Triangle_Chess_3.jpg,Purple_Triangle_Stripes_2.jpg,Green_Star_Grid_3.jpg,left,802,false,high,NA,NA,NA,NA,NA,NA,NA,false
q4okTcwJ,3e9vauv7czrnvucm8noapw1mqoqyaq,3g5f9dbfotano7np0kgko3gn8xmvhz,q4okTcwJ,2020-0188,2020-06-04,18:18:11,18:44:34,NA,incomplete,8,number,0,0,right,Green_Plus_Stripes_3.jpg,Blue_Plus_Dots_1.jpg,Purple_Circle_Chess_3.jpg,left,748,false,high,NA,NA,NA,NA,NA,NA,NA,false
q4okTcwJ,3e9vauv7czrnvucm8noapw1mqoqyaq,3g5f9dbfotano7np0kgko3gn8xmvhz,q4okTcwJ,2020-0188,2020-06-04,18:18:11,18:44:34,NA,incomplete,9,number,0,1,left,Red_Star_Dots_4.jpg,Purple_Circle_Grid_4.jpg,Green_Star_Chess_3.jpg,right,823,false,high,NA,NA,NA,NA,NA,NA,NA,false
q4okTcwJ,3e9vauv7czrnvucm8noapw1mqoqyaq,3g5f9dbfotano7np0kgko3gn8xmvhz,q4okTcwJ,2020-0188,2020-06-04,18:18:11,18:44:34,NA,incomplete,10,shape,1,0,left,Red_Circle_Stripes_1.jpg,Blue_Circle_Grid_3.jpg,Purple_Plus_Chess_1.jpg,left,707,true,high,NA,NA,NA,NA,NA,NA,NA,false
q4okTcwJ,3e9vauv7czrnvucm8noapw1mqoqyaq,3g5f9dbfotano7np0kgko3gn8xmvhz,q4okTcwJ,2020-0188,2020-06-04,18:18:11,18:44:34,NA,incomplete,11,shape,1,1,left,Blue_Star_Chess_3.jpg,Purple_Star_Stripes_1.jpg,Green_Plus_Grid_3.jpg,right,908,false,high,NA,NA,NA,NA,NA,NA,NA,false
q4okTcwJ,3e9vauv7czrnvucm8noapw1mqoqyaq,3g5f9dbfotano7np0kgko3gn8xmvhz,q4okTcwJ,2020-0188,2020-06-04,18:18:11,18:44:34,NA,incomplete,12,shape,1,0,right,Green_Circle_Dots_4.jpg,Blue_Star_Grid_4.jpg,Purple_Circle_Stripes_2.jpg,left,860,false,high,NA,NA,NA,NA,NA,NA,NA,false
q4okTcwJ,3e9vauv7czrnvucm8noapw1mqoqyaq,3g5f9dbfotano7np0kgko3gn8xmvhz,q4okTcwJ,2020-0188,2020-06-04,18:18:11,18:44:34,NA,incomplete,13,shape,1,1,left,Purple_Star_Dots_4.jpg,Blue_Star_Chess_2.jpg,Red_Plus_Stripes_4.jpg,right,842,false,high,NA,NA,NA,NA,NA,NA,NA,false
q4okTcwJ,3e9vauv7czrnvucm8noapw1mqoqyaq,3g5f9dbfotano7np0kgko3gn8xmvhz,q4okTcwJ,2020-0188,2020-06-04,18:18:11,18:44:34,NA,incomplete,14,shape,1,1,right,Purple_Triangle_Dots_3.jpg,Green_Plus_Grid_3.jpg,Blue_Triangle_Stripes_4.jpg,left,987,false,high,NA,NA,NA,NA,NA,NA,NA,false
q4okTcwJ,3e9vauv7czrnvucm8noapw1mqoqyaq,3g5f9dbfotano7np0kgko3gn8xmvhz,q4okTcwJ,2020-0188,2020-06-04,18:18:11,18:44:34,NA,incomplete,15,shape,1,1,right,Red_Triangle_Grid_3.jpg,Blue_Plus_Stripes_3.jpg,Purple_Triangle_Chess_2.jpg,left,1009,false,high,NA,NA,NA,NA,NA,NA,NA,false
q4okTcwJ,3e9vauv7czrnvucm8noapw1mqoqyaq,3g5f9dbfotano7np0kgko3gn8xmvhz,q4okTcwJ,2020-0188,2020-06-04,18:18:11,18:44:34,NA,incomplete,16,shape,1,1,left,Green_Star_Grid_4.jpg,Blue_Star_Dots_2.jpg,Purple_Triangle_Stripes_4.jpg,right,1013,false,high,NA,NA,NA,NA,NA,NA,NA,false
q4okTcwJ,3e9vauv7czrnvucm8noapw1mqoqyaq,3g5f9dbfotano7np0kgko3gn8xmvhz,q4okTcwJ,2020-0188,2020-06-04,18:18:11,18:44:34,NA,incomplete,17,shape,1,1,right,Blue_Plus_Grid_4.jpg,Green_Triangle_Stripes_4.jpg,Red_Plus_Dots_1.jpg,left,793,false,high,NA,NA,NA,NA,NA,NA,NA,false
q4okTcwJ,3e9vauv7czrnvucm8noapw1mqoqyaq,3g5f9dbfotano7np0kgko3gn8xmvhz,q4okTcwJ,2020-0188,2020-06-04,18:18:11,18:44:34,NA,incomplete,18,shape,1,0,left,Purple_Triangle_Stripes_1.jpg,Green_Triangle_Grid_4.jpg,Blue_Star_Chess_1.jpg,left,1240,true,high,NA,NA,NA,NA,NA,NA,NA,false
q4okTcwJ,3e9vauv7czrnvucm8noapw1mqoqyaq,3g5f9dbfotano7np0kgko3gn8xmvhz,q4okTcwJ,2020-0188,2020-06-04,18:18:11,18:44:34,NA,incomplete,19,shape,1,1,right,Purple_Plus_Dots_2.jpg,Green_Circle_Grid_2.jpg,Blue_Plus_Stripes_3.jpg,right,900,true,high,NA,NA,NA,NA,NA,NA,NA,false
q4okTcwJ,3e9vauv7czrnvucm8noapw1mqoqyaq,3g5f9dbfotano7np0kgko3gn8xmvhz,q4okTcwJ,2020-0188,2020-06-04,18:18:11,18:44:34,NA,incomplete,20,number,0,0,left,Red_Circle_Dots_2.jpg,Green_Star_Chess_2.jpg,Purple_Circle_Grid_1.jpg,right,861,false,high,NA,NA,NA,NA,NA,NA,NA,false
q4okTcwJ,3e9vauv7czrnvucm8noapw1mqoqyaq,3g5f9dbfotano7np0kgko3gn8xmvhz,q4okTcwJ,2020-0188,2020-06-04,18:18:11,18:44:34,NA,incomplete,21,number,0,1,left,Red_Circle_Stripes_4.jpg,Purple_Triangle_Grid_4.jpg,Green_Circle_Chess_3.jpg,right,776,false,high,NA,NA,NA,NA,NA,NA,NA,false
q4okTcwJ,3e9vauv7czrnvucm8noapw1mqoqyaq,3g5f9dbfotano7np0kgko3gn8xmvhz,q4okTcwJ,2020-0188,2020-06-04,18:18:11,18:44:34,NA,incomplete,22,number,0,0,right,Green_Triangle_Dots_3.jpg,Blue_Triangle_Chess_4.jpg,Purple_Circle_Stripes_3.jpg,left,846,false,high,NA,NA,NA,NA,NA,NA,NA,false
q4okTcwJ,3e9vauv7czrnvucm8noapw1mqoqyaq,3g5f9dbfotano7np0kgko3gn8xmvhz,q4okTcwJ,2020-0188,2020-06-04,18:18:11,18:44:34,NA,incomplete,23,number,0,1,right,Red_Plus_Dots_2.jpg,Blue_Plus_Chess_4.jpg,Purple_Star_Stripes_2.jpg,left,786,false,high,NA,NA,NA,NA,NA,NA,NA,false
q4okTcwJ,3e9vauv7czrnvucm8noapw1mqoqyaq,3g5f9dbfotano7np0kgko3gn8xmvhz,q4okTcwJ,2020-0188,2020-06-04,18:18:11,18:44:34,NA,incomplete,24,number,0,1,left,Blue_Circle_Stripes_4.jpg,Purple_Plus_Grid_4.jpg,Red_Circle_Chess_3.jpg,right,743,false,high,NA,NA,NA,NA,NA,NA,NA,false
q4okTcwJ,3e9vauv7czrnvucm8noapw1mqoqyaq,3g5f9dbfotano7np0kgko3gn8xmvhz,q4okTcwJ,2020-0188,2020-06-04,18:18:11,18:44:34,NA,incomplete,25,number,0,0,left,Red_Triangle_Chess_1.jpg,Blue_Circle_Grid_1.jpg,Green_Triangle_Dots_3.jpg,right,951,false,high,NA,NA,NA,NA,NA,NA,NA,false
q4okTcwJ,3e9vauv7czrnvucm8noapw1mqoqyaq,3g5f9dbfotano7np0kgko3gn8xmvhz,q4okTcwJ,2020-0188,2020-06-04,18:18:11,18:44:34,NA,incomplete,26,number,0,0,right,Purple_Star_Stripes_1.jpg,Blue_Star_Dots_3.jpg,Green_Circle_Grid_1.jpg,left,838,false,high,NA,NA,NA,NA,NA,NA,NA,false
q4okTcwJ,3e9vauv7czrnvucm8noapw1mqoqyaq,3g5f9dbfotano7np0kgko3gn8xmvhz,q4okTcwJ,2020-0188,2020-06-04,18:18:11,18:44:34,NA,incomplete,27,number,0,1,left,Red_Plus_Dots_1.jpg,Blue_Circle_Chess_1.jpg,Green_Plus_Stripes_2.jpg,right,803,false,high,NA,NA,NA,NA,NA,NA,NA,false
q4okTcwJ,3e9vauv7czrnvucm8noapw1mqoqyaq,3g5f9dbfotano7np0kgko3gn8xmvhz,q4okTcwJ,2020-0188,2020-06-04,18:18:11,18:44:34,NA,incomplete,28,number,0,1,right,Blue_Plus_Grid_2.jpg,Green_Plus_Dots_3.jpg,Red_Triangle_Chess_2.jpg,left,797,false,high,NA,NA,NA,NA,NA,NA,NA,false
q4okTcwJ,3e9vauv7czrnvucm8noapw1mqoqyaq,3g5f9dbfotano7np0kgko3gn8xmvhz,q4okTcwJ,2020-0188,2020-06-04,18:18:11,18:44:34,NA,incomplete,29,number,0,1,left,Purple_Plus_Chess_4.jpg,Green_Star_Stripes_4.jpg,Red_Plus_Grid_3.jpg,right,739,false,high,NA,NA,NA,NA,NA,NA,NA,false
q4okTcwJ,3e9vauv7czrnvucm8noapw1mqoqyaq,3g5f9dbfotano7np0kgko3gn8xmvhz,q4okTcwJ,2020-0188,2020-06-04,18:18:11,18:44:34,NA,incomplete,30,shape,1,0,left,Green_Triangle_Grid_2.jpg,Purple_Triangle_Chess_1.jpg,Blue_Plus_Dots_2.jpg,left,761,true,high,NA,NA,NA,NA,NA,NA,NA,false
q4okTcwJ,3e9vauv7czrnvucm8noapw1mqoqyaq,3g5f9dbfotano7np0kgko3gn8xmvhz,q4okTcwJ,2020-0188,2020-06-04,18:18:11,18:44:34,NA,incomplete,31,shape,1,1,left,Purple_Plus_Chess_3.jpg,Green_Plus_Grid_1.jpg,Blue_Triangle_Dots_3.jpg,left,970,true,high,NA,NA,NA,NA,NA,NA,NA,false
q4okTcwJ,3e9vauv7czrnvucm8noapw1mqoqyaq,3g5f9dbfotano7np0kgko3gn8xmvhz,q4okTcwJ,2020-0188,2020-06-04,18:18:11,18:44:34,NA,incomplete,32,shape,1,1,left,Red_Triangle_Dots_3.jpg,Green_Triangle_Stripes_2.jpg,Blue_Star_Grid_3.jpg,left,752,true,high,NA,NA,NA,NA,NA,NA,NA,false
q4okTcwJ,3e9vauv7czrnvucm8noapw1mqoqyaq,3g5f9dbfotano7np0kgko3gn8xmvhz,q4okTcwJ,2020-0188,2020-06-04,18:18:11,18:44:34,NA,incomplete,33,shape,1,1,left,Blue_Plus_Chess_4.jpg,Red_Plus_Stripes_1.jpg,Green_Circle_Dots_4.jpg,left,711,true,high,NA,NA,NA,NA,NA,NA,NA,false
q4okTcwJ,3e9vauv7czrnvucm8noapw1mqoqyaq,3g5f9dbfotano7np0kgko3gn8xmvhz,q4okTcwJ,2020-0188,2020-06-04,18:18:11,18:44:34,NA,incomplete,34,shape,1,1,left,Green_Star_Chess_4.jpg,Blue_Star_Stripes_1.jpg,Red_Circle_Dots_4.jpg,left,855,true,high,NA,NA,NA,NA,NA,NA,NA,false
q4okTcwJ,3e9vauv7czrnvucm8noapw1mqoqyaq,3g5f9dbfotano7np0kgko3gn8xmvhz,q4okTcwJ,2020-0188,2020-06-04,18:18:11,18:44:34,NA,incomplete,35,shape,1,1,right,Purple_Triangle_Dots_4.jpg,Blue_Star_Chess_4.jpg,Green_Triangle_Stripes_2.jpg,right,770,true,high,NA,NA,NA,NA,NA,NA,NA,false
q4okTcwJ,3e9vauv7czrnvucm8noapw1mqoqyaq,3g5f9dbfotano7np0kgko3gn8xmvhz,q4okTcwJ,2020-0188,2020-06-04,18:18:11,18:44:34,NA,incomplete,36,shape,1,1,right,Red_Star_Stripes_2.jpg,Green_Triangle_Grid_2.jpg,Blue_Star_Dots_1.jpg,right,1005,true,high,NA,NA,NA,NA,NA,NA,NA,false
q4okTcwJ,3e9vauv7czrnvucm8noapw1mqoqyaq,3g5f9dbfotano7np0kgko3gn8xmvhz,q4okTcwJ,2020-0188,2020-06-04,18:18:11,18:44:34,NA,incomplete,37,shape,1,1,right,Purple_Star_Stripes_1.jpg,Blue_Circle_Grid_1.jpg,Red_Star_Dots_4.jpg,right,958,true,high,NA,NA,NA,NA,NA,NA,NA,false
q4okTcwJ,3e9vauv7czrnvucm8noapw1mqoqyaq,3g5f9dbfotano7np0kgko3gn8xmvhz,q4okTcwJ,2020-0188,2020-06-04,18:18:11,18:44:34,NA,incomplete,38,shape,1,1,right,Blue_Plus_Chess_1.jpg,Purple_Star_Dots_1.jpg,Red_Plus_Stripes_4.jpg,right,797,true,high,NA,NA,NA,NA,NA,NA,NA,false
q4okTcwJ,3e9vauv7czrnvucm8noapw1mqoqyaq,3g5f9dbfotano7np0kgko3gn8xmvhz,q4okTcwJ,2020-0188,2020-06-04,18:18:11,18:44:34,NA,incomplete,39,shape,1,0,right,Green_Plus_Dots_1.jpg,Red_Triangle_Chess_1.jpg,Blue_Plus_Grid_4.jpg,right,658,true,high,NA,NA,NA,NA,NA,NA,NA,false
q4okTcwJ,3e9vauv7czrnvucm8noapw1mqoqyaq,3g5f9dbfotano7np0kgko3gn8xmvhz,q4okTcwJ,2020-0188,2020-06-04,18:18:11,18:44:34,NA,incomplete,40,number,0,1,right,Green_Triangle_Chess_2.jpg,Blue_Triangle_Grid_4.jpg,Purple_Star_Stripes_2.jpg,left,798,false,high,NA,NA,NA,NA,NA,NA,NA,false
q4okTcwJ,3e9vauv7czrnvucm8noapw1mqoqyaq,3g5f9dbfotano7np0kgko3gn8xmvhz,q4okTcwJ,2020-0188,2020-06-04,18:18:11,18:44:34,NA,incomplete,41,number,0,1,left,Blue_Triangle_Stripes_1.jpg,Purple_Plus_Dots_1.jpg,Red_Triangle_Grid_3.jpg,right,689,false,high,NA,NA,NA,NA,NA,NA,NA,false
q4okTcwJ,3e9vauv7czrnvucm8noapw1mqoqyaq,3g5f9dbfotano7np0kgko3gn8xmvhz,q4okTcwJ,2020-0188,2020-06-04,18:18:11,18:44:34,NA,incomplete,42,number,0,0,right,Green_Triangle_Chess_1.jpg,Purple_Triangle_Dots_4.jpg,Red_Plus_Grid_1.jpg,left,660,false,high,NA,NA,NA,NA,NA,NA,NA,false
q4okTcwJ,3e9vauv7czrnvucm8noapw1mqoqyaq,3g5f9dbfotano7np0kgko3gn8xmvhz,q4okTcwJ,2020-0188,2020-06-04,18:18:11,18:44:34,NA,incomplete,43,number,0,1,left,Blue_Plus_Stripes_2.jpg,Red_Triangle_Chess_2.jpg,Purple_Plus_Grid_1.jpg,right,818,false,high,NA,NA,NA,NA,NA,NA,NA,false
q4okTcwJ,3e9vauv7czrnvucm8noapw1mqoqyaq,3g5f9dbfotano7np0kgko3gn8xmvhz,q4okTcwJ,2020-0188,2020-06-04,18:18:11,18:44:34,NA,incomplete,44,number,0,1,left,Blue_Triangle_Grid_3.jpg,Red_Circle_Stripes_3.jpg,Green_Triangle_Dots_1.jpg,right,815,false,high,NA,NA,NA,NA,NA,NA,NA,false
q4okTcwJ,3e9vauv7czrnvucm8noapw1mqoqyaq,3g5f9dbfotano7np0kgko3gn8xmvhz,q4okTcwJ,2020-0188,2020-06-04,18:18:11,18:44:34,NA,incomplete,45,number,0,1,right,Purple_Star_Dots_4.jpg,Red_Star_Chess_3.jpg,Green_Circle_Grid_4.jpg,left,671,false,high,NA,NA,NA,NA,NA,NA,NA,false
q4okTcwJ,3e9vauv7czrnvucm8noapw1mqoqyaq,3g5f9dbfotano7np0kgko3gn8xmvhz,q4okTcwJ,2020-0188,2020-06-04,18:18:11,18:44:34,NA,incomplete,46,number,0,1,right,Green_Circle_Stripes_1.jpg,Red_Circle_Grid_4.jpg,Purple_Plus_Chess_1.jpg,left,794,false,high,NA,NA,NA,NA,NA,NA,NA,false
q4okTcwJ,3e9vauv7czrnvucm8noapw1mqoqyaq,3g5f9dbfotano7np0kgko3gn8xmvhz,q4okTcwJ,2020-0188,2020-06-04,18:18:11,18:44:34,NA,incomplete,47,number,0,1,left,Red_Circle_Dots_3.jpg,Purple_Plus_Grid_3.jpg,Green_Circle_Stripes_2.jpg,right,742,false,high,NA,NA,NA,NA,NA,NA,NA,false
q4okTcwJ,3e9vauv7czrnvucm8noapw1mqoqyaq,3g5f9dbfotano7np0kgko3gn8xmvhz,q4okTcwJ,2020-0188,2020-06-04,18:18:11,18:44:34,NA,incomplete,48,number,0,1,right,Red_Plus_Grid_3.jpg,Purple_Plus_Dots_1.jpg,Green_Triangle_Chess_3.jpg,left,774,false,high,NA,NA,NA,NA,NA,NA,NA,false
q4okTcwJ,3e9vauv7czrnvucm8noapw1mqoqyaq,3g5f9dbfotano7np0kgko3gn8xmvhz,q4okTcwJ,2020-0188,2020-06-04,18:18:11,18:44:34,NA,incomplete,49,number,0,1,left,Purple_Star_Stripes_2.jpg,Green_Circle_Grid_2.jpg,Red_Star_Dots_1.jpg,right,676,false,high,NA,NA,NA,NA,NA,NA,NA,false
q4okTcwJ,3e9vauv7czrnvucm8noapw1mqoqyaq,3g5f9dbfotano7np0kgko3gn8xmvhz,q4okTcwJ,2020-0188,2020-06-04,18:18:11,18:44:34,NA,incomplete,50,shape,1,1,right,Purple_Triangle_Dots_1.jpg,Red_Plus_Chess_1.jpg,Green_Triangle_Stripes_4.jpg,right,925,true,high,NA,NA,NA,NA,NA,NA,NA,false
q4okTcwJ,3e9vauv7czrnvucm8noapw1mqoqyaq,3g5f9dbfotano7np0kgko3gn8xmvhz,q4okTcwJ,2020-0188,2020-06-04,18:18:11,18:44:34,NA,incomplete,51,shape,1,1,right,Blue_Star_Dots_2.jpg,Purple_Triangle_Chess_2.jpg,Green_Star_Stripes_4.jpg,right,726,true,high,NA,NA,NA,NA,NA,NA,NA,false
q4okTcwJ,3e9vauv7czrnvucm8noapw1mqoqyaq,3g5f9dbfotano7np0kgko3gn8xmvhz,q4okTcwJ,2020-0188,2020-06-04,18:18:11,18:44:34,NA,incomplete,52,shape,1,1,left,Blue_Circle_Stripes_2.jpg,Red_Circle_Dots_4.jpg,Purple_Triangle_Grid_2.jpg,left,734,true,high,NA,NA,NA,NA,NA,NA,NA,false
q4okTcwJ,3e9vauv7czrnvucm8noapw1mqoqyaq,3g5f9dbfotano7np0kgko3gn8xmvhz,q4okTcwJ,2020-0188,2020-06-04,18:18:11,18:44:34,NA,incomplete,53,shape,1,1,left,Blue_Circle_Dots_2.jpg,Red_Circle_Grid_1.jpg,Green_Plus_Stripes_2.jpg,left,626,true,high,NA,NA,NA,NA,NA,NA,NA,false
q4okTcwJ,3e9vauv7czrnvucm8noapw1mqoqyaq,3g5f9dbfotano7np0kgko3gn8xmvhz,q4okTcwJ,2020-0188,2020-06-04,18:18:11,18:44:34,NA,incomplete,54,shape,1,0,left,Blue_Plus_Grid_4.jpg,Green_Plus_Dots_2.jpg,Red_Star_Stripes_4.jpg,left,826,true,high,NA,NA,NA,NA,NA,NA,NA,false
q4okTcwJ,3e9vauv7czrnvucm8noapw1mqoqyaq,3g5f9dbfotano7np0kgko3gn8xmvhz,q4okTcwJ,2020-0188,2020-06-04,18:18:11,18:44:34,NA,incomplete,55,shape,1,1,right,Green_Circle_Stripes_2.jpg,Blue_Plus_Dots_2.jpg,Red_Circle_Grid_4.jpg,right,702,true,high,NA,NA,NA,NA,NA,NA,NA,false
q4okTcwJ,3e9vauv7czrnvucm8noapw1mqoqyaq,3g5f9dbfotano7np0kgko3gn8xmvhz,q4okTcwJ,2020-0188,2020-06-04,18:18:11,18:44:34,NA,incomplete,56,shape,1,1,left,Red_Star_Chess_4.jpg,Purple_Star_Dots_3.jpg,Blue_Plus_Grid_4.jpg,left,761,true,high,NA,NA,NA,NA,NA,NA,NA,false
q4okTcwJ,3e9vauv7czrnvucm8noapw1mqoqyaq,3g5f9dbfotano7np0kgko3gn8xmvhz,q4okTcwJ,2020-0188,2020-06-04,18:18:11,18:44:34,NA,incomplete,57,shape,1,1,right,Green_Circle_Chess_3.jpg,Purple_Plus_Grid_3.jpg,Blue_Circle_Stripes_2.jpg,right,702,true,high,NA,NA,NA,NA,NA,NA,NA,false
q4okTcwJ,3e9vauv7czrnvucm8noapw1mqoqyaq,3g5f9dbfotano7np0kgko3gn8xmvhz,q4okTcwJ,2020-0188,2020-06-04,18:18:11,18:44:34,NA,incomplete,58,shape,1,0,left,Blue_Star_Grid_2.jpg,Green_Star_Dots_4.jpg,Red_Triangle_Stripes_2.jpg,left,836,true,high,NA,NA,NA,NA,NA,NA,NA,false
q4okTcwJ,3e9vauv7czrnvucm8noapw1mqoqyaq,3g5f9dbfotano7np0kgko3gn8xmvhz,q4okTcwJ,2020-0188,2020-06-04,18:18:11,18:44:34,NA,incomplete,59,shape,1,1,left,Purple_Plus_Dots_2.jpg,Red_Plus_Grid_4.jpg,Blue_Star_Stripes_2.jpg,left,768,true,high,NA,NA,NA,NA,NA,NA,NA,false
q4okTcwJ,3e9vauv7czrnvucm8noapw1mqoqyaq,3g5f9dbfotano7np0kgko3gn8xmvhz,q4okTcwJ,2020-0188,2020-06-04,18:18:11,18:44:34,NA,incomplete,60,number,0,1,right,Purple_Circle_Stripes_4.jpg,Red_Circle_Dots_3.jpg,Green_Triangle_Grid_4.jpg,left,705,false,high,NA,NA,NA,NA,NA,NA,NA,false
q4okTcwJ,3e9vauv7czrnvucm8noapw1mqoqyaq,3g5f9dbfotano7np0kgko3gn8xmvhz,q4okTcwJ,2020-0188,2020-06-04,18:18:11,18:44:34,NA,incomplete,61,number,0,1,right,Blue_Triangle_Dots_3.jpg,Red_Triangle_Grid_1.jpg,Purple_Plus_Chess_3.jpg,left,696,false,high,NA,NA,NA,NA,NA,NA,NA,false
q4okTcwJ,3e9vauv7czrnvucm8noapw1mqoqyaq,3g5f9dbfotano7np0kgko3gn8xmvhz,q4okTcwJ,2020-0188,2020-06-04,18:18:11,18:44:34,NA,incomplete,62,number,0,1,right,Green_Triangle_Dots_1.jpg,Blue_Triangle_Chess_4.jpg,Purple_Star_Grid_1.jpg,left,666,false,high,NA,NA,NA,NA,NA,NA,NA,false
q4okTcwJ,3e9vauv7czrnvucm8noapw1mqoqyaq,3g5f9dbfotano7np0kgko3gn8xmvhz,q4okTcwJ,2020-0188,2020-06-04,18:18:11,18:44:34,NA,incomplete,63,number,0,1,left,Green_Star_Dots_3.jpg,Red_Circle_Chess_3.jpg,Blue_Star_Grid_1.jpg,right,717,false,high,NA,NA,NA,NA,NA,NA,NA,false
q4okTcwJ,3e9vauv7czrnvucm8noapw1mqoqyaq,3g5f9dbfotano7np0kgko3gn8xmvhz,q4okTcwJ,2020-0188,2020-06-04,18:18:11,18:44:34,NA,incomplete,64,number,0,1,right,Green_Plus_Chess_3.jpg,Blue_Plus_Grid_2.jpg,Purple_Circle_Dots_3.jpg,left,1137,false,high,NA,NA,NA,NA,NA,NA,NA,false
q4okTcwJ,3e9vauv7czrnvucm8noapw1mqoqyaq,3g5f9dbfotano7np0kgko3gn8xmvhz,q4okTcwJ,2020-0188,2020-06-04,18:18:11,18:44:34,NA,incomplete,65,number,0,0,left,Purple_Circle_Dots_4.jpg,Green_Star_Stripes_4.jpg,Blue_Circle_Chess_2.jpg,left,812,true,high,NA,NA,NA,NA,NA,NA,NA,false
q4okTcwJ,3e9vauv7czrnvucm8noapw1mqoqyaq,3g5f9dbfotano7np0kgko3gn8xmvhz,q4okTcwJ,2020-0188,2020-06-04,18:18:11,18:44:34,NA,incomplete,66,number,0,1,right,Purple_Star_Grid_1.jpg,Green_Star_Stripes_4.jpg,Blue_Circle_Dots_1.jpg,right,807,true,high,NA,NA,NA,NA,NA,NA,NA,false
q4okTcwJ,3e9vauv7czrnvucm8noapw1mqoqyaq,3g5f9dbfotano7np0kgko3gn8xmvhz,q4okTcwJ,2020-0188,2020-06-04,18:18:11,18:44:34,NA,incomplete,67,number,0,1,right,Green_Triangle_Grid_1.jpg,Purple_Triangle_Dots_3.jpg,Red_Circle_Chess_1.jpg,right,733,true,high,NA,NA,NA,NA,NA,NA,NA,false
q4okTcwJ,3e9vauv7czrnvucm8noapw1mqoqyaq,3g5f9dbfotano7np0kgko3gn8xmvhz,q4okTcwJ,2020-0188,2020-06-04,18:18:11,18:44:34,NA,incomplete,68,number,0,1,right,Red_Triangle_Dots_2.jpg,Green_Triangle_Chess_1.jpg,Purple_Circle_Stripes_2.jpg,right,925,true,high,NA,NA,NA,NA,NA,NA,NA,false
q4okTcwJ,3e9vauv7czrnvucm8noapw1mqoqyaq,3g5f9dbfotano7np0kgko3gn8xmvhz,q4okTcwJ,2020-0188,2020-06-04,18:18:11,18:44:34,NA,incomplete,69,number,0,1,left,Blue_Plus_Dots_2.jpg,Red_Circle_Chess_2.jpg,Green_Plus_Grid_1.jpg,left,886,true,high,NA,NA,NA,NA,NA,NA,NA,false
q4okTcwJ,3e9vauv7czrnvucm8noapw1mqoqyaq,3g5f9dbfotano7np0kgko3gn8xmvhz,q4okTcwJ,2020-0188,2020-06-04,18:18:11,18:44:34,NA,incomplete,70,shape,1,1,right,Purple_Circle_Stripes_3.jpg,Red_Star_Chess_3.jpg,Blue_Circle_Dots_4.jpg,left,904,false,high,NA,NA,NA,NA,NA,NA,NA,false
q4okTcwJ,3e9vauv7czrnvucm8noapw1mqoqyaq,3g5f9dbfotano7np0kgko3gn8xmvhz,q4okTcwJ,2020-0188,2020-06-04,18:18:11,18:44:34,NA,incomplete,71,shape,1,0,right,Blue_Star_Stripes_1.jpg,Purple_Triangle_Grid_1.jpg,Green_Star_Chess_3.jpg,left,768,false,high,NA,NA,NA,NA,NA,NA,NA,false
q4okTcwJ,3e9vauv7czrnvucm8noapw1mqoqyaq,3g5f9dbfotano7np0kgko3gn8xmvhz,q4okTcwJ,2020-0188,2020-06-04,18:18:11,18:44:34,NA,incomplete,72,shape,1,1,left,Red_Triangle_Grid_2.jpg,Purple_Triangle_Chess_3.jpg,Green_Star_Stripes_2.jpg,right,789,false,high,NA,NA,NA,NA,NA,NA,NA,false
q4okTcwJ,3e9vauv7czrnvucm8noapw1mqoqyaq,3g5f9dbfotano7np0kgko3gn8xmvhz,q4okTcwJ,2020-0188,2020-06-04,18:18:11,18:44:34,NA,incomplete,73,shape,1,1,right,Blue_Star_Chess_3.jpg,Red_Triangle_Grid_3.jpg,Green_Star_Stripes_1.jpg,left,1153,false,high,NA,NA,NA,NA,NA,NA,NA,false
q4okTcwJ,3e9vauv7czrnvucm8noapw1mqoqyaq,3g5f9dbfotano7np0kgko3gn8xmvhz,q4okTcwJ,2020-0188,2020-06-04,18:18:11,18:44:34,NA,incomplete,74,shape,1,1,right,Blue_Star_Grid_3.jpg,Red_Circle_Dots_3.jpg,Green_Star_Chess_2.jpg,left,723,false,high,NA,NA,NA,NA,NA,NA,NA,false
q4okTcwJ,3e9vauv7czrnvucm8noapw1mqoqyaq,3g5f9dbfotano7np0kgko3gn8xmvhz,q4okTcwJ,2020-0188,2020-06-04,18:18:11,18:44:34,NA,incomplete,75,shape,1,0,right,Blue_Star_Dots_2.jpg,Green_Triangle_Chess_2.jpg,Red_Star_Grid_1.jpg,left,731,false,high,NA,NA,NA,NA,NA,NA,NA,false
q4okTcwJ,3e9vauv7czrnvucm8noapw1mqoqyaq,3g5f9dbfotano7np0kgko3gn8xmvhz,q4okTcwJ,2020-0188,2020-06-04,18:18:11,18:44:34,NA,incomplete,76,shape,1,1,right,Red_Plus_Stripes_3.jpg,Blue_Triangle_Dots_3.jpg,Purple_Plus_Grid_2.jpg,left,1004,false,high,NA,NA,NA,NA,NA,NA,NA,false
q4okTcwJ,3e9vauv7czrnvucm8noapw1mqoqyaq,3g5f9dbfotano7np0kgko3gn8xmvhz,q4okTcwJ,2020-0188,2020-06-04,18:18:11,18:44:34,NA,incomplete,77,shape,1,1,right,Purple_Triangle_Grid_3.jpg,Green_Circle_Dots_3.jpg,Red_Triangle_Stripes_2.jpg,left,790,false,high,NA,NA,NA,NA,NA,NA,NA,false
q4okTcwJ,3e9vauv7czrnvucm8noapw1mqoqyaq,3g5f9dbfotano7np0kgko3gn8xmvhz,q4okTcwJ,2020-0188,2020-06-04,18:18:11,18:44:34,NA,incomplete,78,shape,1,1,left,Purple_Triangle_Stripes_3.jpg,Blue_Triangle_Dots_1.jpg,Green_Circle_Chess_3.jpg,left,805,true,high,NA,NA,NA,NA,NA,NA,NA,false
q4okTcwJ,3e9vauv7czrnvucm8noapw1mqoqyaq,3g5f9dbfotano7np0kgko3gn8xmvhz,q4okTcwJ,2020-0188,2020-06-04,18:18:11,18:44:34,NA,incomplete,79,shape,1,1,left,Green_Plus_Chess_4.jpg,Purple_Plus_Stripes_3.jpg,Red_Triangle_Dots_4.jpg,left,858,true,high,NA,NA,NA,NA,NA,NA,NA,false
q4okTcwJ,3e9vauv7czrnvucm8noapw1mqoqyaq,3g5f9dbfotano7np0kgko3gn8xmvhz,q4okTcwJ,2020-0188,2020-06-04,18:18:11,18:44:34,NA,incomplete,80,number,0,1,left,Green_Triangle_Grid_1.jpg,Blue_Plus_Stripes_1.jpg,Red_Triangle_Dots_3.jpg,left,829,true,high,NA,NA,NA,NA,NA,NA,NA,false
q4okTcwJ,3e9vauv7czrnvucm8noapw1mqoqyaq,3g5f9dbfotano7np0kgko3gn8xmvhz,q4okTcwJ,2020-0188,2020-06-04,18:18:11,18:44:34,NA,incomplete,81,number,0,1,left,Red_Triangle_Grid_3.jpg,Green_Circle_Stripes_3.jpg,Blue_Triangle_Dots_4.jpg,right,819,false,high,NA,NA,NA,NA,NA,NA,NA,false
q4okTcwJ,3e9vauv7czrnvucm8noapw1mqoqyaq,3g5f9dbfotano7np0kgko3gn8xmvhz,q4okTcwJ,2020-0188,2020-06-04,18:18:11,18:44:34,NA,incomplete,82,number,0,1,right,Purple_Star_Dots_2.jpg,Blue_Star_Grid_1.jpg,Red_Triangle_Stripes_2.jpg,left,779,false,high,NA,NA,NA,NA,NA,NA,NA,false
q4okTcwJ,3e9vauv7czrnvucm8noapw1mqoqyaq,3g5f9dbfotano7np0kgko3gn8xmvhz,q4okTcwJ,2020-0188,2020-06-04,18:18:11,18:44:34,NA,incomplete,83,number,0,1,left,Green_Circle_Grid_1.jpg,Red_Star_Chess_1.jpg,Blue_Circle_Dots_4.jpg,right,996,false,high,NA,NA,NA,NA,NA,NA,NA,false
q4okTcwJ,3e9vauv7czrnvucm8noapw1mqoqyaq,3g5f9dbfotano7np0kgko3gn8xmvhz,q4okTcwJ,2020-0188,2020-06-04,18:18:11,18:44:34,NA,incomplete,84,number,0,0,right,Red_Triangle_Dots_4.jpg,Green_Triangle_Chess_2.jpg,Blue_Plus_Grid_4.jpg,left,737,false,high,NA,NA,NA,NA,NA,NA,NA,false
q4okTcwJ,3e9vauv7czrnvucm8noapw1mqoqyaq,3g5f9dbfotano7np0kgko3gn8xmvhz,q4okTcwJ,2020-0188,2020-06-04,18:18:11,18:44:34,NA,incomplete,85,number,0,1,right,Red_Star_Dots_3.jpg,Purple_Star_Stripes_2.jpg,Blue_Plus_Grid_3.jpg,left,865,false,high,NA,NA,NA,NA,NA,NA,NA,false
q4okTcwJ,3e9vauv7czrnvucm8noapw1mqoqyaq,3g5f9dbfotano7np0kgko3gn8xmvhz,q4okTcwJ,2020-0188,2020-06-04,18:18:11,18:44:34,NA,incomplete,86,number,0,1,left,Red_Star_Dots_4.jpg,Purple_Circle_Chess_4.jpg,Blue_Star_Grid_2.jpg,right,748,false,high,NA,NA,NA,NA,NA,NA,NA,false
q4okTcwJ,3e9vauv7czrnvucm8noapw1mqoqyaq,3g5f9dbfotano7np0kgko3gn8xmvhz,q4okTcwJ,2020-0188,2020-06-04,18:18:11,18:44:34,NA,incomplete,87,number,0,1,right,Red_Star_Stripes_1.jpg,Green_Star_Chess_2.jpg,Blue_Plus_Grid_1.jpg,left,764,false,high,NA,NA,NA,NA,NA,NA,NA,false
q4okTcwJ,3e9vauv7czrnvucm8noapw1mqoqyaq,3g5f9dbfotano7np0kgko3gn8xmvhz,q4okTcwJ,2020-0188,2020-06-04,18:18:11,18:44:34,NA,incomplete,88,number,0,1,right,Green_Star_Chess_2.jpg,Purple_Star_Grid_4.jpg,Red_Plus_Dots_2.jpg,left,738,false,high,NA,NA,NA,NA,NA,NA,NA,false
q4okTcwJ,3e9vauv7czrnvucm8noapw1mqoqyaq,3g5f9dbfotano7np0kgko3gn8xmvhz,q4okTcwJ,2020-0188,2020-06-04,18:18:11,18:44:34,NA,incomplete,89,number,0,1,left,Red_Star_Stripes_3.jpg,Blue_Plus_Grid_3.jpg,Purple_Star_Chess_1.jpg,right,946,false,high,NA,NA,NA,NA,NA,NA,NA,false
q4okTcwJ,3e9vauv7czrnvucm8noapw1mqoqyaq,3g5f9dbfotano7np0kgko3gn8xmvhz,q4okTcwJ,2020-0188,2020-06-04,18:18:11,18:44:34,NA,incomplete,90,shape,1,1,right,Green_Star_Grid_2.jpg,Red_Circle_Stripes_2.jpg,Blue_Star_Chess_4.jpg,left,785,false,high,NA,NA,NA,NA,NA,NA,NA,false
q4okTcwJ,3e9vauv7czrnvucm8noapw1mqoqyaq,3g5f9dbfotano7np0kgko3gn8xmvhz,q4okTcwJ,2020-0188,2020-06-04,18:18:11,18:44:34,NA,incomplete,91,shape,1,1,left,Green_Circle_Chess_4.jpg,Purple_Circle_Stripes_2.jpg,Red_Triangle_Dots_4.jpg,right,814,false,high,NA,NA,NA,NA,NA,NA,NA,false
q4okTcwJ,3e9vauv7czrnvucm8noapw1mqoqyaq,3g5f9dbfotano7np0kgko3gn8xmvhz,q4okTcwJ,2020-0188,2020-06-04,18:18:11,18:44:34,NA,incomplete,92,shape,1,1,right,Blue_Plus_Stripes_1.jpg,Red_Triangle_Chess_1.jpg,Purple_Plus_Dots_2.jpg,left,1091,false,high,NA,NA,NA,NA,NA,NA,NA,false
q4okTcwJ,3e9vauv7czrnvucm8noapw1mqoqyaq,3g5f9dbfotano7np0kgko3gn8xmvhz,q4okTcwJ,2020-0188,2020-06-04,18:18:11,18:44:34,NA,incomplete,93,shape,1,1,right,Purple_Star_Stripes_1.jpg,Green_Plus_Dots_1.jpg,Red_Star_Chess_2.jpg,right,1213,true,high,NA,NA,NA,NA,NA,NA,NA,false
q4okTcwJ,3e9vauv7czrnvucm8noapw1mqoqyaq,3g5f9dbfotano7np0kgko3gn8xmvhz,q4okTcwJ,2020-0188,2020-06-04,18:18:11,18:44:34,NA,incomplete,94,shape,1,1,right,Purple_Circle_Dots_2.jpg,Green_Star_Grid_2.jpg,Red_Circle_Stripes_3.jpg,right,851,true,high,NA,NA,NA,NA,NA,NA,NA,false
q4okTcwJ,3e9vauv7czrnvucm8noapw1mqoqyaq,3g5f9dbfotano7np0kgko3gn8xmvhz,q4okTcwJ,2020-0188,2020-06-04,18:18:11,18:44:34,NA,incomplete,95,shape,1,1,right,Red_Star_Chess_1.jpg,Blue_Plus_Dots_1.jpg,Green_Star_Stripes_2.jpg,right,1197,true,high,NA,NA,NA,NA,NA,NA,NA,false
q4okTcwJ,3e9vauv7czrnvucm8noapw1mqoqyaq,3g5f9dbfotano7np0kgko3gn8xmvhz,q4okTcwJ,2020-0188,2020-06-04,18:18:11,18:44:34,NA,incomplete,96,shape,1,0,left,Red_Circle_Chess_3.jpg,Blue_Circle_Grid_2.jpg,Green_Star_Stripes_3.jpg,left,755,true,high,NA,NA,NA,NA,NA,NA,NA,false
q4okTcwJ,3e9vauv7czrnvucm8noapw1mqoqyaq,3g5f9dbfotano7np0kgko3gn8xmvhz,q4okTcwJ,2020-0188,2020-06-04,18:18:11,18:44:34,NA,incomplete,97,shape,1,1,left,Red_Star_Dots_4.jpg,Purple_Star_Grid_3.jpg,Green_Circle_Stripes_4.jpg,left,730,true,high,NA,NA,NA,NA,NA,NA,NA,false
q4okTcwJ,3e9vauv7czrnvucm8noapw1mqoqyaq,3g5f9dbfotano7np0kgko3gn8xmvhz,q4okTcwJ,2020-0188,2020-06-04,18:18:11,18:44:34,NA,incomplete,98,shape,1,1,right,Blue_Circle_Grid_1.jpg,Purple_Triangle_Dots_1.jpg,Red_Circle_Stripes_3.jpg,right,758,true,high,NA,NA,NA,NA,NA,NA,NA,false
q4okTcwJ,3e9vauv7czrnvucm8noapw1mqoqyaq,3g5f9dbfotano7np0kgko3gn8xmvhz,q4okTcwJ,2020-0188,2020-06-04,18:18:11,18:44:34,NA,incomplete,99,shape,1,1,right,Blue_Star_Dots_3.jpg,Green_Triangle_Chess_3.jpg,Purple_Star_Stripes_4.jpg,right,856,true,high,NA,NA,NA,NA,NA,NA,NA,false
q4okTcwJ,3e9vauv7czrnvucm8noapw1mqoqyaq,3g5f9dbfotano7np0kgko3gn8xmvhz,q4okTcwJ,2020-0188,2020-06-04,18:18:11,18:44:34,NA,incomplete,100,number,0,1,right,Red_Plus_Dots_2.jpg,Purple_Plus_Grid_4.jpg,Blue_Triangle_Chess_2.jpg,left,746,false,high,NA,NA,NA,NA,NA,NA,NA,false
q4okTcwJ,3e9vauv7czrnvucm8noapw1mqoqyaq,3g5f9dbfotano7np0kgko3gn8xmvhz,q4okTcwJ,2020-0188,2020-06-04,18:18:11,18:44:34,NA,incomplete,101,number,0,1,left,Green_Plus_Stripes_3.jpg,Blue_Triangle_Grid_3.jpg,Red_Plus_Chess_4.jpg,right,818,false,high,NA,NA,NA,NA,NA,NA,NA,false
q4okTcwJ,3e9vauv7czrnvucm8noapw1mqoqyaq,3g5f9dbfotano7np0kgko3gn8xmvhz,q4okTcwJ,2020-0188,2020-06-04,18:18:11,18:44:34,NA,incomplete,102,number,0,1,left,Purple_Triangle_Chess_4.jpg,Blue_Star_Grid_4.jpg,Green_Triangle_Stripes_2.jpg,right,911,false,high,NA,NA,NA,NA,NA,NA,NA,false
q4okTcwJ,3e9vauv7czrnvucm8noapw1mqoqyaq,3g5f9dbfotano7np0kgko3gn8xmvhz,q4okTcwJ,2020-0188,2020-06-04,18:18:11,18:44:34,NA,incomplete,103,number,0,1,right,Red_Triangle_Chess_2.jpg,Blue_Triangle_Dots_3.jpg,Purple_Plus_Grid_2.jpg,left,766,false,high,NA,NA,NA,NA,NA,NA,NA,false
q4okTcwJ,3e9vauv7czrnvucm8noapw1mqoqyaq,3g5f9dbfotano7np0kgko3gn8xmvhz,q4okTcwJ,2020-0188,2020-06-04,18:18:11,18:44:34,NA,incomplete,104,number,0,1,left,Purple_Circle_Dots_2.jpg,Blue_Triangle_Grid_2.jpg,Green_Circle_Stripes_4.jpg,left,1167,true,high,NA,NA,NA,NA,NA,NA,NA,false
q4okTcwJ,3e9vauv7czrnvucm8noapw1mqoqyaq,3g5f9dbfotano7np0kgko3gn8xmvhz,q4okTcwJ,2020-0188,2020-06-04,18:18:11,18:44:34,NA,incomplete,105,number,0,1,left,Green_Triangle_Dots_1.jpg,Red_Star_Grid_1.jpg,Blue_Triangle_Chess_3.jpg,left,1141,true,high,NA,NA,NA,NA,NA,NA,NA,false
q4okTcwJ,3e9vauv7czrnvucm8noapw1mqoqyaq,3g5f9dbfotano7np0kgko3gn8xmvhz,q4okTcwJ,2020-0188,2020-06-04,18:18:11,18:44:34,NA,incomplete,106,number,0,1,right,Green_Plus_Grid_4.jpg,Blue_Plus_Chess_2.jpg,Purple_Star_Dots_4.jpg,right,1155,true,high,NA,NA,NA,NA,NA,NA,NA,false
q4okTcwJ,3e9vauv7czrnvucm8noapw1mqoqyaq,3g5f9dbfotano7np0kgko3gn8xmvhz,q4okTcwJ,2020-0188,2020-06-04,18:18:11,18:44:34,NA,incomplete,107,number,0,1,left,Red_Triangle_Chess_2.jpg,Purple_Circle_Stripes_2.jpg,Green_Triangle_Grid_4.jpg,left,755,true,high,NA,NA,NA,NA,NA,NA,NA,false
q4okTcwJ,3e9vauv7czrnvucm8noapw1mqoqyaq,3g5f9dbfotano7np0kgko3gn8xmvhz,q4okTcwJ,2020-0188,2020-06-04,18:18:11,18:44:34,NA,incomplete,108,number,0,1,right,Purple_Plus_Grid_4.jpg,Green_Plus_Stripes_1.jpg,Red_Circle_Dots_4.jpg,right,787,true,high,NA,NA,NA,NA,NA,NA,NA,false
q4okTcwJ,3e9vauv7czrnvucm8noapw1mqoqyaq,3g5f9dbfotano7np0kgko3gn8xmvhz,q4okTcwJ,2020-0188,2020-06-04,18:18:11,18:44:34,NA,incomplete,109,number,0,1,right,Purple_Plus_Chess_2.jpg,Red_Plus_Grid_4.jpg,Green_Circle_Stripes_2.jpg,right,807,true,high,NA,NA,NA,NA,NA,NA,NA,false
q4okTcwJ,3e9vauv7czrnvucm8noapw1mqoqyaq,3g5f9dbfotano7np0kgko3gn8xmvhz,q4okTcwJ,2020-0188,2020-06-04,18:18:11,18:44:34,NA,incomplete,110,shape,1,0,left,Green_Plus_Chess_1.jpg,Purple_Plus_Grid_4.jpg,Blue_Star_Stripes_1.jpg,right,785,false,high,NA,NA,NA,NA,NA,NA,NA,false
q4okTcwJ,3e9vauv7czrnvucm8noapw1mqoqyaq,3g5f9dbfotano7np0kgko3gn8xmvhz,q4okTcwJ,2020-0188,2020-06-04,18:18:11,18:44:34,NA,incomplete,111,shape,1,1,right,Green_Plus_Chess_3.jpg,Blue_Triangle_Dots_3.jpg,Red_Plus_Stripes_2.jpg,right,905,true,high,NA,NA,NA,NA,NA,NA,NA,false
q4okTcwJ,3e9vauv7czrnvucm8noapw1mqoqyaq,3g5f9dbfotano7np0kgko3gn8xmvhz,q4okTcwJ,2020-0188,2020-06-04,18:18:11,18:44:34,NA,incomplete,112,shape,1,1,left,Blue_Plus_Dots_4.jpg,Green_Plus_Grid_1.jpg,Red_Star_Chess_4.jpg,right,859,false,high,NA,NA,NA,NA,NA,NA,NA,false
q4okTcwJ,3e9vauv7czrnvucm8noapw1mqoqyaq,3g5f9dbfotano7np0kgko3gn8xmvhz,q4okTcwJ,2020-0188,2020-06-04,18:18:11,18:44:34,NA,incomplete,113,shape,1,1,right,Red_Circle_Chess_3.jpg,Blue_Triangle_Dots_3.jpg,Green_Circle_Grid_2.jpg,left,1029,false,high,NA,NA,NA,NA,NA,NA,NA,false
q4okTcwJ,3e9vauv7czrnvucm8noapw1mqoqyaq,3g5f9dbfotano7np0kgko3gn8xmvhz,q4okTcwJ,2020-0188,2020-06-04,18:18:11,18:44:34,NA,incomplete,114,shape,1,1,right,Red_Plus_Dots_2.jpg,Green_Star_Grid_2.jpg,Purple_Plus_Chess_1.jpg,right,1002,true,high,NA,NA,NA,NA,NA,NA,NA,false
q4okTcwJ,3e9vauv7czrnvucm8noapw1mqoqyaq,3g5f9dbfotano7np0kgko3gn8xmvhz,q4okTcwJ,2020-0188,2020-06-04,18:18:11,18:44:34,NA,incomplete,115,shape,1,0,left,Purple_Plus_Stripes_1.jpg,Green_Plus_Grid_2.jpg,Blue_Circle_Dots_1.jpg,left,758,true,high,NA,NA,NA,NA,NA,NA,NA,false
q4okTcwJ,3e9vauv7czrnvucm8noapw1mqoqyaq,3g5f9dbfotano7np0kgko3gn8xmvhz,q4okTcwJ,2020-0188,2020-06-04,18:18:11,18:44:34,NA,incomplete,116,shape,1,1,right,Purple_Triangle_Grid_2.jpg,Blue_Plus_Chess_2.jpg,Green_Triangle_Dots_3.jpg,left,1077,false,high,NA,NA,NA,NA,NA,NA,NA,false
q4okTcwJ,3e9vauv7czrnvucm8noapw1mqoqyaq,3g5f9dbfotano7np0kgko3gn8xmvhz,q4okTcwJ,2020-0188,2020-06-04,18:18:11,18:44:34,NA,incomplete,117,shape,1,0,left,Green_Star_Dots_4.jpg,Red_Star_Chess_1.jpg,Purple_Triangle_Stripes_4.jpg,left,1096,true,high,NA,NA,NA,NA,NA,NA,NA,false
q4okTcwJ,3e9vauv7czrnvucm8noapw1mqoqyaq,3g5f9dbfotano7np0kgko3gn8xmvhz,q4okTcwJ,2020-0188,2020-06-04,18:18:11,18:44:34,NA,incomplete,118,shape,1,1,right,Purple_Star_Dots_3.jpg,Red_Triangle_Stripes_3.jpg,Green_Star_Grid_2.jpg,right,835,true,high,NA,NA,NA,NA,NA,NA,NA,false
q4okTcwJ,3e9vauv7czrnvucm8noapw1mqoqyaq,3g5f9dbfotano7np0kgko3gn8xmvhz,q4okTcwJ,2020-0188,2020-06-04,18:18:11,18:44:34,NA,incomplete,119,shape,1,1,right,Purple_Plus_Grid_4.jpg,Green_Circle_Stripes_4.jpg,Red_Plus_Dots_2.jpg,right,940,true,high,NA,NA,NA,NA,NA,NA,NA,false
q4okTcwJ,3e9vauv7czrnvucm8noapw1mqoqyaq,3g5f9dbfotano7np0kgko3gn8xmvhz,q4okTcwJ,2020-0188,2020-06-04,18:18:11,18:44:34,NA,incomplete,120,gender,2,1,right,A_F_05.jpg,A_M_03.jpg,C_F_09.jpg,NA,NA,NA,high,NA,NA,NA,NA,NA,NA,NA,false
q4okTcwJ,3e9vauv7czrnvucm8noapw1mqoqyaq,3g5f9dbfotano7np0kgko3gn8xmvhz,q4okTcwJ,2020-0188,2020-06-04,18:18:11,18:44:34,NA,incomplete,121,gender,2,1,right,A_F_13.jpg,A_M_04.jpg,C_F_11.jpg,left,1036,false,high,NA,NA,NA,NA,NA,NA,NA,false
q4okTcwJ,3e9vauv7czrnvucm8noapw1mqoqyaq,3g5f9dbfotano7np0kgko3gn8xmvhz,q4okTcwJ,2020-0188,2020-06-04,18:18:11,18:44:34,NA,incomplete,122,gender,2,0,right,A_M_05.jpg,A_F_04.jpg,C_M_09.jpg,left,1205,false,high,NA,NA,NA,NA,NA,NA,NA,false
q4okTcwJ,3e9vauv7czrnvucm8noapw1mqoqyaq,3g5f9dbfotano7np0kgko3gn8xmvhz,q4okTcwJ,2020-0188,2020-06-04,18:18:11,18:44:34,NA,incomplete,123,gender,2,1,right,A_F_03.jpg,A_M_12.jpg,C_F_02.jpg,right,1114,true,high,NA,NA,NA,NA,NA,NA,NA,false
q4okTcwJ,3e9vauv7czrnvucm8noapw1mqoqyaq,3g5f9dbfotano7np0kgko3gn8xmvhz,q4okTcwJ,2020-0188,2020-06-04,18:18:11,18:44:34,NA,incomplete,124,gender,2,1,left,A_F_15.jpg,C_F_12.jpg,A_M_01.jpg,left,884,true,high,NA,NA,NA,NA,NA,NA,NA,false
q4okTcwJ,3e9vauv7czrnvucm8noapw1mqoqyaq,3g5f9dbfotano7np0kgko3gn8xmvhz,q4okTcwJ,2020-0188,2020-06-04,18:18:11,18:44:34,NA,incomplete,125,gender,2,1,right,A_M_02.jpg,A_F_01.jpg,C_M_08.jpg,right,1045,true,high,NA,NA,NA,NA,NA,NA,NA,false
q4okTcwJ,3e9vauv7czrnvucm8noapw1mqoqyaq,3g5f9dbfotano7np0kgko3gn8xmvhz,q4okTcwJ,2020-0188,2020-06-04,18:18:11,18:44:34,NA,incomplete,126,gender,2,1,left,A_F_08.jpg,C_F_14.jpg,A_M_09.jpg,left,1008,true,high,NA,NA,NA,NA,NA,NA,NA,false
q4okTcwJ,3e9vauv7czrnvucm8noapw1mqoqyaq,3g5f9dbfotano7np0kgko3gn8xmvhz,q4okTcwJ,2020-0188,2020-06-04,18:18:11,18:44:34,NA,incomplete,127,gender,2,0,right,A_M_11.jpg,A_F_04.jpg,C_M_10.jpg,right,1054,true,high,NA,NA,NA,NA,NA,NA,NA,false
q4okTcwJ,3e9vauv7czrnvucm8noapw1mqoqyaq,3g5f9dbfotano7np0kgko3gn8xmvhz,q4okTcwJ,2020-0188,2020-06-04,18:18:11,18:44:34,NA,incomplete,128,gender,2,1,right,A_F_07.jpg,A_M_10.jpg,C_F_15.jpg,right,1073,true,high,NA,NA,NA,NA,NA,NA,NA,false
q4okTcwJ,3e9vauv7czrnvucm8noapw1mqoqyaq,3g5f9dbfotano7np0kgko3gn8xmvhz,q4okTcwJ,2020-0188,2020-06-04,18:18:11,18:44:34,NA,incomplete,129,gender,2,1,left,A_M_09.jpg,C_M_01.jpg,A_F_13.jpg,left,1186,true,high,NA,NA,NA,NA,NA,NA,NA,false
q4okTcwJ,3e9vauv7czrnvucm8noapw1mqoqyaq,3g5f9dbfotano7np0kgko3gn8xmvhz,q4okTcwJ,2020-0188,2020-06-04,18:18:11,18:44:34,NA,incomplete,130,gender,2,1,right,C_M_15.jpg,C_F_03.jpg,A_M_04.jpg,left,1111,false,high,NA,NA,NA,NA,NA,NA,NA,false
q4okTcwJ,3e9vauv7czrnvucm8noapw1mqoqyaq,3g5f9dbfotano7np0kgko3gn8xmvhz,q4okTcwJ,2020-0188,2020-06-04,18:18:11,18:44:34,NA,incomplete,131,gender,2,0,right,C_M_07.jpg,C_F_01.jpg,A_M_13.jpg,right,959,true,high,NA,NA,NA,NA,NA,NA,NA,false
q4okTcwJ,3e9vauv7czrnvucm8noapw1mqoqyaq,3g5f9dbfotano7np0kgko3gn8xmvhz,q4okTcwJ,2020-0188,2020-06-04,18:18:11,18:44:34,NA,incomplete,132,gender,2,1,right,C_F_15.jpg,C_M_12.jpg,A_F_03.jpg,right,1264,true,high,NA,NA,NA,NA,NA,NA,NA,false
q4okTcwJ,3e9vauv7czrnvucm8noapw1mqoqyaq,3g5f9dbfotano7np0kgko3gn8xmvhz,q4okTcwJ,2020-0188,2020-06-04,18:18:11,18:44:34,NA,incomplete,133,gender,2,1,left,C_M_11.jpg,A_M_04.jpg,C_F_01.jpg,right,1314,false,high,NA,NA,NA,NA,NA,NA,NA,false
q4okTcwJ,3e9vauv7czrnvucm8noapw1mqoqyaq,3g5f9dbfotano7np0kgko3gn8xmvhz,q4okTcwJ,2020-0188,2020-06-04,18:18:11,18:44:34,NA,incomplete,134,gender,2,1,left,C_M_01.jpg,A_M_14.jpg,C_F_09.jpg,left,1124,true,high,NA,NA,NA,NA,NA,NA,NA,false
q4okTcwJ,3e9vauv7czrnvucm8noapw1mqoqyaq,3g5f9dbfotano7np0kgko3gn8xmvhz,q4okTcwJ,2020-0188,2020-06-04,18:18:11,18:44:34,NA,incomplete,135,gender,2,1,right,C_M_16.jpg,C_F_05.jpg,A_M_12.jpg,right,1012,true,high,NA,NA,NA,NA,NA,NA,NA,false
q4okTcwJ,3e9vauv7czrnvucm8noapw1mqoqyaq,3g5f9dbfotano7np0kgko3gn8xmvhz,q4okTcwJ,2020-0188,2020-06-04,18:18:11,18:44:34,NA,incomplete,136,gender,2,1,left,C_M_01.jpg,A_M_07.jpg,C_F_09.jpg,left,992,true,high,NA,NA,NA,NA,NA,NA,NA,false
q4okTcwJ,3e9vauv7czrnvucm8noapw1mqoqyaq,3g5f9dbfotano7np0kgko3gn8xmvhz,q4okTcwJ,2020-0188,2020-06-04,18:18:11,18:44:34,NA,incomplete,137,gender,2,1,left,C_M_13.jpg,A_M_05.jpg,C_F_16.jpg,left,1054,true,high,NA,NA,NA,NA,NA,NA,NA,false
q4okTcwJ,3e9vauv7czrnvucm8noapw1mqoqyaq,3g5f9dbfotano7np0kgko3gn8xmvhz,q4okTcwJ,2020-0188,2020-06-04,18:18:11,18:44:34,NA,incomplete,138,gender,2,0,left,A_F_16.jpg,C_F_02.jpg,A_M_13.jpg,left,1145,true,high,NA,NA,NA,NA,NA,NA,NA,false
q4okTcwJ,3e9vauv7czrnvucm8noapw1mqoqyaq,3g5f9dbfotano7np0kgko3gn8xmvhz,q4okTcwJ,2020-0188,2020-06-04,18:18:11,18:44:34,NA,incomplete,139,gender,2,1,left,C_F_01.jpg,A_F_04.jpg,C_M_02.jpg,left,984,true,high,NA,NA,NA,NA,NA,NA,NA,false
q4okTcwJ,3e9vauv7czrnvucm8noapw1mqoqyaq,3g5f9dbfotano7np0kgko3gn8xmvhz,q4okTcwJ,2020-0188,2020-06-04,18:18:11,18:44:34,NA,incomplete,140,race,3,1,right,C_M_09.jpg,A_M_08.jpg,C_F_15.jpg,left,1158,false,high,NA,NA,NA,NA,NA,NA,NA,false
q4okTcwJ,3e9vauv7czrnvucm8noapw1mqoqyaq,3g5f9dbfotano7np0kgko3gn8xmvhz,q4okTcwJ,2020-0188,2020-06-04,18:18:11,18:44:34,NA,incomplete,141,race,3,0,right,A_M_04.jpg,C_M_05.jpg,A_F_06.jpg,left,1230,false,high,NA,NA,NA,NA,NA,NA,NA,false
q4okTcwJ,3e9vauv7czrnvucm8noapw1mqoqyaq,3g5f9dbfotano7np0kgko3gn8xmvhz,q4okTcwJ,2020-0188,2020-06-04,18:18:11,18:44:34,NA,incomplete,142,race,3,1,left,A_F_04.jpg,A_M_07.jpg,C_F_09.jpg,right,1041,false,high,NA,NA,NA,NA,NA,NA,NA,false
q4okTcwJ,3e9vauv7czrnvucm8noapw1mqoqyaq,3g5f9dbfotano7np0kgko3gn8xmvhz,q4okTcwJ,2020-0188,2020-06-04,18:18:11,18:44:34,NA,incomplete,143,race,3,1,right,A_M_13.jpg,C_M_09.jpg,A_F_11.jpg,left,990,false,high,NA,NA,NA,NA,NA,NA,NA,false
q4okTcwJ,3e9vauv7czrnvucm8noapw1mqoqyaq,3g5f9dbfotano7np0kgko3gn8xmvhz,q4okTcwJ,2020-0188,2020-06-04,18:18:11,18:44:34,NA,incomplete,144,race,3,1,right,C_F_05.jpg,A_F_14.jpg,C_M_11.jpg,left,1210,false,high,NA,NA,NA,NA,NA,NA,NA,false
q4okTcwJ,3e9vauv7czrnvucm8noapw1mqoqyaq,3g5f9dbfotano7np0kgko3gn8xmvhz,q4okTcwJ,2020-0188,2020-06-04,18:18:11,18:44:34,NA,incomplete,145,race,3,1,left,A_F_01.jpg,A_M_07.jpg,C_F_16.jpg,right,1184,false,high,NA,NA,NA,NA,NA,NA,NA,false
q4okTcwJ,3e9vauv7czrnvucm8noapw1mqoqyaq,3g5f9dbfotano7np0kgko3gn8xmvhz,q4okTcwJ,2020-0188,2020-06-04,18:18:11,18:44:34,NA,incomplete,146,race,3,1,left,C_F_13.jpg,C_M_10.jpg,A_F_11.jpg,right,923,false,high,NA,NA,NA,NA,NA,NA,NA,false
q4okTcwJ,3e9vauv7czrnvucm8noapw1mqoqyaq,3g5f9dbfotano7np0kgko3gn8xmvhz,q4okTcwJ,2020-0188,2020-06-04,18:18:11,18:44:34,NA,incomplete,147,race,3,1,left,C_M_12.jpg,C_F_16.jpg,A_M_08.jpg,left,1013,true,high,NA,NA,NA,NA,NA,NA,NA,false
q4okTcwJ,3e9vauv7czrnvucm8noapw1mqoqyaq,3g5f9dbfotano7np0kgko3gn8xmvhz,q4okTcwJ,2020-0188,2020-06-04,18:18:11,18:44:34,NA,incomplete,148,race,3,1,right,A_M_13.jpg,C_M_04.jpg,A_F_14.jpg,right,1363,true,high,NA,NA,NA,NA,NA,NA,NA,false
q4okTcwJ,3e9vauv7czrnvucm8noapw1mqoqyaq,3g5f9dbfotano7np0kgko3gn8xmvhz,q4okTcwJ,2020-0188,2020-06-04,18:18:11,18:44:34,NA,incomplete,149,race,3,1,right,C_M_01.jpg,A_M_16.jpg,C_F_02.jpg,right,1250,true,high,NA,NA,NA,NA,NA,NA,NA,false
q4okTcwJ,3e9vauv7czrnvucm8noapw1mqoqyaq,3g5f9dbfotano7np0kgko3gn8xmvhz,q4okTcwJ,2020-0188,2020-06-04,18:18:11,18:44:34,NA,incomplete,150,race,3,0,right,A_F_02.jpg,C_F_13.jpg,A_M_05.jpg,right,1438,true,high,NA,NA,NA,NA,NA,NA,NA,false
q4okTcwJ,3e9vauv7czrnvucm8noapw1mqoqyaq,3g5f9dbfotano7np0kgko3gn8xmvhz,q4okTcwJ,2020-0188,2020-06-04,18:18:11,18:44:34,NA,incomplete,151,race,3,1,left,C_M_16.jpg,C_F_12.jpg,A_M_02.jpg,left,1056,true,high,NA,NA,NA,NA,NA,NA,NA,false
q4okTcwJ,3e9vauv7czrnvucm8noapw1mqoqyaq,3g5f9dbfotano7np0kgko3gn8xmvhz,q4okTcwJ,2020-0188,2020-06-04,18:18:11,18:44:34,NA,incomplete,152,race,3,1,right,C_F_12.jpg,A_F_16.jpg,C_M_15.jpg,right,1226,true,high,NA,NA,NA,NA,NA,NA,NA,false
q4okTcwJ,3e9vauv7czrnvucm8noapw1mqoqyaq,3g5f9dbfotano7np0kgko3gn8xmvhz,q4okTcwJ,2020-0188,2020-06-04,18:18:11,18:44:34,NA,incomplete,153,race,3,0,right,A_M_03.jpg,C_M_04.jpg,A_F_15.jpg,right,1224,true,high,NA,NA,NA,NA,NA,NA,NA,false
q4okTcwJ,3e9vauv7czrnvucm8noapw1mqoqyaq,3g5f9dbfotano7np0kgko3gn8xmvhz,q4okTcwJ,2020-0188,2020-06-04,18:18:11,18:44:34,NA,incomplete,154,race,3,1,right,C_M_06.jpg,A_M_04.jpg,C_F_14.jpg,right,1180,true,high,NA,NA,NA,NA,NA,NA,NA,false
q4okTcwJ,3e9vauv7czrnvucm8noapw1mqoqyaq,3g5f9dbfotano7np0kgko3gn8xmvhz,q4okTcwJ,2020-0188,2020-06-04,18:18:11,18:44:34,NA,incomplete,155,race,3,0,right,C_M_06.jpg,A_M_02.jpg,C_F_12.jpg,right,1306,true,high,NA,NA,NA,NA,NA,NA,NA,false
q4okTcwJ,3e9vauv7czrnvucm8noapw1mqoqyaq,3g5f9dbfotano7np0kgko3gn8xmvhz,q4okTcwJ,2020-0188,2020-06-04,18:18:11,18:44:34,NA,incomplete,156,race,3,1,left,C_M_08.jpg,C_F_02.jpg,A_M_06.jpg,left,1044,true,high,NA,NA,NA,NA,NA,NA,NA,false
q4okTcwJ,3e9vauv7czrnvucm8noapw1mqoqyaq,3g5f9dbfotano7np0kgko3gn8xmvhz,q4okTcwJ,2020-0188,2020-06-04,18:18:11,18:44:34,NA,incomplete,157,race,3,1,right,A_M_04.jpg,C_M_05.jpg,A_F_11.jpg,right,1288,true,high,NA,NA,NA,NA,NA,NA,NA,false
q4okTcwJ,3e9vauv7czrnvucm8noapw1mqoqyaq,3g5f9dbfotano7np0kgko3gn8xmvhz,q4okTcwJ,2020-0188,2020-06-04,18:18:11,18:44:34,NA,incomplete,158,race,3,1,left,A_F_16.jpg,A_M_04.jpg,C_F_02.jpg,left,1183,true,high,NA,NA,NA,NA,NA,NA,NA,false
q4okTcwJ,3e9vauv7czrnvucm8noapw1mqoqyaq,3g5f9dbfotano7np0kgko3gn8xmvhz,q4okTcwJ,2020-0188,2020-06-04,18:18:11,18:44:34,NA,incomplete,159,race,3,0,right,A_F_02.jpg,C_F_01.jpg,A_M_15.jpg,right,1120,true,high,NA,NA,NA,NA,NA,NA,NA,false
q4okTcwJ,3e9vauv7czrnvucm8noapw1mqoqyaq,3g5f9dbfotano7np0kgko3gn8xmvhz,q4okTcwJ,2020-0188,2020-06-04,18:18:11,18:44:34,NA,incomplete,160,gender,2,1,left,C_M_08.jpg,A_M_06.jpg,C_F_14.jpg,right,1050,false,high,NA,NA,NA,NA,NA,NA,NA,false
q4okTcwJ,3e9vauv7czrnvucm8noapw1mqoqyaq,3g5f9dbfotano7np0kgko3gn8xmvhz,q4okTcwJ,2020-0188,2020-06-04,18:18:11,18:44:34,NA,incomplete,161,gender,2,1,left,A_M_05.jpg,C_M_16.jpg,A_F_06.jpg,right,1201,false,high,NA,NA,NA,NA,NA,NA,NA,false
q4okTcwJ,3e9vauv7czrnvucm8noapw1mqoqyaq,3g5f9dbfotano7np0kgko3gn8xmvhz,q4okTcwJ,2020-0188,2020-06-04,18:18:11,18:44:34,NA,incomplete,162,gender,2,1,left,A_M_01.jpg,C_M_14.jpg,A_F_07.jpg,left,1119,true,high,NA,NA,NA,NA,NA,NA,NA,false
q4okTcwJ,3e9vauv7czrnvucm8noapw1mqoqyaq,3g5f9dbfotano7np0kgko3gn8xmvhz,q4okTcwJ,2020-0188,2020-06-04,18:18:11,18:44:34,NA,incomplete,163,gender,2,1,left,A_F_13.jpg,C_F_03.jpg,A_M_01.jpg,left,1258,true,high,NA,NA,NA,NA,NA,NA,NA,false
q4okTcwJ,3e9vauv7czrnvucm8noapw1mqoqyaq,3g5f9dbfotano7np0kgko3gn8xmvhz,q4okTcwJ,2020-0188,2020-06-04,18:18:11,18:44:34,NA,incomplete,164,gender,2,1,left,C_M_05.jpg,A_M_16.jpg,C_F_02.jpg,left,1320,true,high,NA,NA,NA,NA,NA,NA,NA,false
q4okTcwJ,3e9vauv7czrnvucm8noapw1mqoqyaq,3g5f9dbfotano7np0kgko3gn8xmvhz,q4okTcwJ,2020-0188,2020-06-04,18:18:11,18:44:34,NA,incomplete,165,gender,2,1,right,A_M_06.jpg,A_F_15.jpg,C_M_07.jpg,left,1578,false,high,NA,NA,NA,NA,NA,NA,NA,false
q4okTcwJ,3e9vauv7czrnvucm8noapw1mqoqyaq,3g5f9dbfotano7np0kgko3gn8xmvhz,q4okTcwJ,2020-0188,2020-06-04,18:18:11,18:44:34,NA,incomplete,166,gender,2,1,right,C_M_15.jpg,C_F_04.jpg,A_M_06.jpg,right,1273,true,high,NA,NA,NA,NA,NA,NA,NA,false
q4okTcwJ,3e9vauv7czrnvucm8noapw1mqoqyaq,3g5f9dbfotano7np0kgko3gn8xmvhz,q4okTcwJ,2020-0188,2020-06-04,18:18:11,18:44:34,NA,incomplete,167,gender,2,1,right,A_M_01.jpg,A_F_03.jpg,C_M_05.jpg,right,1115,true,high,NA,NA,NA,NA,NA,NA,NA,false
q4okTcwJ,3e9vauv7czrnvucm8noapw1mqoqyaq,3g5f9dbfotano7np0kgko3gn8xmvhz,q4okTcwJ,2020-0188,2020-06-04,18:18:11,18:44:34,NA,incomplete,168,gender,2,0,left,A_F_09.jpg,C_F_06.jpg,A_M_14.jpg,left,1093,true,high,NA,NA,NA,NA,NA,NA,NA,false
q4okTcwJ,3e9vauv7czrnvucm8noapw1mqoqyaq,3g5f9dbfotano7np0kgko3gn8xmvhz,q4okTcwJ,2020-0188,2020-06-04,18:18:11,18:44:34,NA,incomplete,169,gender,2,1,left,A_F_03.jpg,C_F_11.jpg,A_M_16.jpg,left,1077,true,high,NA,NA,NA,NA,NA,NA,NA,false
q4okTcwJ,3e9vauv7czrnvucm8noapw1mqoqyaq,3g5f9dbfotano7np0kgko3gn8xmvhz,q4okTcwJ,2020-0188,2020-06-04,18:18:11,18:44:34,NA,incomplete,170,gender,2,1,left,C_F_14.jpg,A_F_05.jpg,C_M_06.jpg,left,1009,true,high,NA,NA,NA,NA,NA,NA,NA,false
q4okTcwJ,3e9vauv7czrnvucm8noapw1mqoqyaq,3g5f9dbfotano7np0kgko3gn8xmvhz,q4okTcwJ,2020-0188,2020-06-04,18:18:11,18:44:34,NA,incomplete,171,gender,2,1,left,A_M_11.jpg,C_M_08.jpg,A_F_03.jpg,left,1142,true,high,NA,NA,NA,NA,NA,NA,NA,false
q4okTcwJ,3e9vauv7czrnvucm8noapw1mqoqyaq,3g5f9dbfotano7np0kgko3gn8xmvhz,q4okTcwJ,2020-0188,2020-06-04,18:18:11,18:44:34,NA,incomplete,172,gender,2,0,left,C_M_11.jpg,A_M_04.jpg,C_F_10.jpg,left,1125,true,high,NA,NA,NA,NA,NA,NA,NA,false
q4okTcwJ,3e9vauv7czrnvucm8noapw1mqoqyaq,3g5f9dbfotano7np0kgko3gn8xmvhz,q4okTcwJ,2020-0188,2020-06-04,18:18:11,18:44:34,NA,incomplete,173,gender,2,1,left,A_F_16.jpg,C_F_13.jpg,A_M_04.jpg,left,989,true,high,NA,NA,NA,NA,NA,NA,NA,false
q4okTcwJ,3e9vauv7czrnvucm8noapw1mqoqyaq,3g5f9dbfotano7np0kgko3gn8xmvhz,q4okTcwJ,2020-0188,2020-06-04,18:18:11,18:44:34,NA,incomplete,174,gender,2,1,left,C_F_15.jpg,A_F_14.jpg,C_M_12.jpg,left,1178,true,high,NA,NA,NA,NA,NA,NA,NA,false
q4okTcwJ,3e9vauv7czrnvucm8noapw1mqoqyaq,3g5f9dbfotano7np0kgko3gn8xmvhz,q4okTcwJ,2020-0188,2020-06-04,18:18:11,18:44:34,NA,incomplete,175,gender,2,1,left,C_F_08.jpg,A_F_12.jpg,C_M_11.jpg,left,1049,true,high,NA,NA,NA,NA,NA,NA,NA,false
q4okTcwJ,3e9vauv7czrnvucm8noapw1mqoqyaq,3g5f9dbfotano7np0kgko3gn8xmvhz,q4okTcwJ,2020-0188,2020-06-04,18:18:11,18:44:34,NA,incomplete,176,gender,2,1,right,C_F_15.jpg,C_M_14.jpg,A_F_09.jpg,right,1412,true,high,NA,NA,NA,NA,NA,NA,NA,false
q4okTcwJ,3e9vauv7czrnvucm8noapw1mqoqyaq,3g5f9dbfotano7np0kgko3gn8xmvhz,q4okTcwJ,2020-0188,2020-06-04,18:18:11,18:44:34,NA,incomplete,177,gender,2,1,left,C_F_07.jpg,A_F_10.jpg,C_M_01.jpg,left,1816,true,high,NA,NA,NA,NA,NA,NA,NA,false
q4okTcwJ,3e9vauv7czrnvucm8noapw1mqoqyaq,3g5f9dbfotano7np0kgko3gn8xmvhz,q4okTcwJ,2020-0188,2020-06-04,18:18:11,18:44:34,NA,incomplete,178,gender,2,1,right,A_M_06.jpg,A_F_03.jpg,C_M_15.jpg,right,1445,true,high,NA,NA,NA,NA,NA,NA,NA,false
q4okTcwJ,3e9vauv7czrnvucm8noapw1mqoqyaq,3g5f9dbfotano7np0kgko3gn8xmvhz,q4okTcwJ,2020-0188,2020-06-04,18:18:11,18:44:34,NA,incomplete,179,gender,2,1,right,A_M_11.jpg,A_F_08.jpg,C_M_07.jpg,right,1323,true,high,NA,NA,NA,NA,NA,NA,NA,false
q4okTcwJ,3e9vauv7czrnvucm8noapw1mqoqyaq,3g5f9dbfotano7np0kgko3gn8xmvhz,q4okTcwJ,2020-0188,2020-06-04,18:18:11,18:44:34,NA,incomplete,180,race,3,0,left,C_F_16.jpg,C_M_09.jpg,A_F_15.jpg,right,1284,false,high,NA,NA,NA,NA,NA,NA,NA,false
q4okTcwJ,3e9vauv7czrnvucm8noapw1mqoqyaq,3g5f9dbfotano7np0kgko3gn8xmvhz,q4okTcwJ,2020-0188,2020-06-04,18:18:11,18:44:34,NA,incomplete,181,race,3,1,right,A_M_07.jpg,C_M_02.jpg,A_F_01.jpg,left,972,false,high,NA,NA,NA,NA,NA,NA,NA,false
q4okTcwJ,3e9vauv7czrnvucm8noapw1mqoqyaq,3g5f9dbfotano7np0kgko3gn8xmvhz,q4okTcwJ,2020-0188,2020-06-04,18:18:11,18:44:34,NA,incomplete,182,race,3,0,left,A_M_15.jpg,A_F_03.jpg,C_M_07.jpg,right,1018,false,high,NA,NA,NA,NA,NA,NA,NA,false
q4okTcwJ,3e9vauv7czrnvucm8noapw1mqoqyaq,3g5f9dbfotano7np0kgko3gn8xmvhz,q4okTcwJ,2020-0188,2020-06-04,18:18:11,18:44:34,NA,incomplete,183,race,3,1,left,A_M_04.jpg,A_F_03.jpg,C_M_11.jpg,right,1152,false,high,NA,NA,NA,NA,NA,NA,NA,false
q4okTcwJ,3e9vauv7czrnvucm8noapw1mqoqyaq,3g5f9dbfotano7np0kgko3gn8xmvhz,q4okTcwJ,2020-0188,2020-06-04,18:18:11,18:44:34,NA,incomplete,184,race,3,1,left,A_M_14.jpg,A_F_02.jpg,C_M_05.jpg,right,1085,false,high,NA,NA,NA,NA,NA,NA,NA,false
q4okTcwJ,3e9vauv7czrnvucm8noapw1mqoqyaq,3g5f9dbfotano7np0kgko3gn8xmvhz,q4okTcwJ,2020-0188,2020-06-04,18:18:11,18:44:34,NA,incomplete,185,race,3,0,left,A_M_05.jpg,A_F_01.jpg,C_M_07.jpg,right,992,false,high,NA,NA,NA,NA,NA,NA,NA,false
q4okTcwJ,3e9vauv7czrnvucm8noapw1mqoqyaq,3g5f9dbfotano7np0kgko3gn8xmvhz,q4okTcwJ,2020-0188,2020-06-04,18:18:11,18:44:34,NA,incomplete,186,race,3,1,left,C_F_07.jpg,C_M_13.jpg,A_F_02.jpg,left,1069,true,high,NA,NA,NA,NA,NA,NA,NA,false
q4okTcwJ,3e9vauv7czrnvucm8noapw1mqoqyaq,3g5f9dbfotano7np0kgko3gn8xmvhz,q4okTcwJ,2020-0188,2020-06-04,18:18:11,18:44:34,NA,incomplete,187,race,3,0,left,C_F_14.jpg,C_M_13.jpg,A_F_08.jpg,left,1144,true,high,NA,NA,NA,NA,NA,NA,NA,false
q4okTcwJ,3e9vauv7czrnvucm8noapw1mqoqyaq,3g5f9dbfotano7np0kgko3gn8xmvhz,q4okTcwJ,2020-0188,2020-06-04,18:18:11,18:44:34,NA,incomplete,188,race,3,1,left,A_M_12.jpg,A_F_07.jpg,C_M_01.jpg,right,1384,false,high,NA,NA,NA,NA,NA,NA,NA,false
q4okTcwJ,3e9vauv7czrnvucm8noapw1mqoqyaq,3g5f9dbfotano7np0kgko3gn8xmvhz,q4okTcwJ,2020-0188,2020-06-04,18:18:11,18:44:34,NA,incomplete,189,race,3,1,left,C_F_05.jpg,C_M_02.jpg,A_F_15.jpg,right,1204,false,high,NA,NA,NA,NA,NA,NA,NA,false
q4okTcwJ,3e9vauv7czrnvucm8noapw1mqoqyaq,3g5f9dbfotano7np0kgko3gn8xmvhz,q4okTcwJ,2020-0188,2020-06-04,18:18:11,18:44:34,NA,incomplete,190,race,3,0,left,A_M_04.jpg,A_F_13.jpg,C_M_08.jpg,right,1128,false,high,NA,NA,NA,NA,NA,NA,NA,false
q4okTcwJ,3e9vauv7czrnvucm8noapw1mqoqyaq,3g5f9dbfotano7np0kgko3gn8xmvhz,q4okTcwJ,2020-0188,2020-06-04,18:18:11,18:44:34,NA,incomplete,191,race,3,1,left,C_F_02.jpg,C_M_16.jpg,A_F_12.jpg,right,1090,false,high,NA,NA,NA,NA,NA,NA,NA,false
q4okTcwJ,3e9vauv7czrnvucm8noapw1mqoqyaq,3g5f9dbfotano7np0kgko3gn8xmvhz,q4okTcwJ,2020-0188,2020-06-04,18:18:11,18:44:34,NA,incomplete,192,race,3,1,left,C_M_10.jpg,C_F_09.jpg,A_M_11.jpg,right,1332,false,high,NA,NA,NA,NA,NA,NA,NA,false
q4okTcwJ,3e9vauv7czrnvucm8noapw1mqoqyaq,3g5f9dbfotano7np0kgko3gn8xmvhz,q4okTcwJ,2020-0188,2020-06-04,18:18:11,18:44:34,NA,incomplete,193,race,3,1,left,C_F_10.jpg,C_M_14.jpg,A_F_06.jpg,left,1282,true,high,NA,NA,NA,NA,NA,NA,NA,false
q4okTcwJ,3e9vauv7czrnvucm8noapw1mqoqyaq,3g5f9dbfotano7np0kgko3gn8xmvhz,q4okTcwJ,2020-0188,2020-06-04,18:18:11,18:44:34,NA,incomplete,194,race,3,1,right,A_F_15.jpg,C_F_13.jpg,A_M_01.jpg,right,1273,true,high,NA,NA,NA,NA,NA,NA,NA,false
q4okTcwJ,3e9vauv7czrnvucm8noapw1mqoqyaq,3g5f9dbfotano7np0kgko3gn8xmvhz,q4okTcwJ,2020-0188,2020-06-04,18:18:11,18:44:34,NA,incomplete,195,race,3,1,right,C_M_13.jpg,A_M_07.jpg,C_F_12.jpg,right,1208,true,high,NA,NA,NA,NA,NA,NA,NA,false
q4okTcwJ,3e9vauv7czrnvucm8noapw1mqoqyaq,3g5f9dbfotano7np0kgko3gn8xmvhz,q4okTcwJ,2020-0188,2020-06-04,18:18:11,18:44:34,NA,incomplete,196,race,3,1,right,A_M_13.jpg,C_M_15.jpg,A_F_04.jpg,right,1367,true,high,NA,NA,NA,NA,NA,NA,NA,false
q4okTcwJ,3e9vauv7czrnvucm8noapw1mqoqyaq,3g5f9dbfotano7np0kgko3gn8xmvhz,q4okTcwJ,2020-0188,2020-06-04,18:18:11,18:44:34,NA,incomplete,197,race,3,1,right,C_M_15.jpg,A_M_13.jpg,C_F_12.jpg,right,1291,true,high,NA,NA,NA,NA,NA,NA,NA,false
q4okTcwJ,3e9vauv7czrnvucm8noapw1mqoqyaq,3g5f9dbfotano7np0kgko3gn8xmvhz,q4okTcwJ,2020-0188,2020-06-04,18:18:11,18:44:34,NA,incomplete,198,race,3,1,left,A_F_15.jpg,A_M_13.jpg,C_F_12.jpg,left,1196,true,high,NA,NA,NA,NA,NA,NA,NA,false
q4okTcwJ,3e9vauv7czrnvucm8noapw1mqoqyaq,3g5f9dbfotano7np0kgko3gn8xmvhz,q4okTcwJ,2020-0188,2020-06-04,18:18:11,18:44:34,NA,incomplete,199,race,3,1,right,C_M_07.jpg,A_M_08.jpg,C_F_13.jpg,right,1292,true,high,NA,NA,NA,NA,NA,NA,NA,false
q4okTcwJ,3e9vauv7czrnvucm8noapw1mqoqyaq,3g5f9dbfotano7np0kgko3gn8xmvhz,q4okTcwJ,2020-0188,2020-06-04,18:18:11,18:44:34,NA,incomplete,200,gender,2,1,left,C_F_12.jpg,A_F_05.jpg,C_M_01.jpg,right,1556,false,high,NA,NA,NA,NA,NA,NA,NA,false
q4okTcwJ,3e9vauv7czrnvucm8noapw1mqoqyaq,3g5f9dbfotano7np0kgko3gn8xmvhz,q4okTcwJ,2020-0188,2020-06-04,18:18:11,18:44:34,NA,incomplete,201,gender,2,1,right,C_F_13.jpg,C_M_09.jpg,A_F_02.jpg,left,1299,false,high,NA,NA,NA,NA,NA,NA,NA,false
q4okTcwJ,3e9vauv7czrnvucm8noapw1mqoqyaq,3g5f9dbfotano7np0kgko3gn8xmvhz,q4okTcwJ,2020-0188,2020-06-04,18:18:11,18:44:34,NA,incomplete,202,gender,2,1,left,C_M_16.jpg,A_M_06.jpg,C_F_02.jpg,right,1118,false,high,NA,NA,NA,NA,NA,NA,NA,false
q4okTcwJ,3e9vauv7czrnvucm8noapw1mqoqyaq,3g5f9dbfotano7np0kgko3gn8xmvhz,q4okTcwJ,2020-0188,2020-06-04,18:18:11,18:44:34,NA,incomplete,203,gender,2,1,left,A_F_16.jpg,C_F_09.jpg,A_M_08.jpg,left,1701,true,high,NA,NA,NA,NA,NA,NA,NA,false
q4okTcwJ,3e9vauv7czrnvucm8noapw1mqoqyaq,3g5f9dbfotano7np0kgko3gn8xmvhz,q4okTcwJ,2020-0188,2020-06-04,18:18:11,18:44:34,NA,incomplete,204,gender,2,1,left,A_M_14.jpg,C_M_07.jpg,A_F_04.jpg,left,1087,true,high,NA,NA,NA,NA,NA,NA,NA,false
q4okTcwJ,3e9vauv7czrnvucm8noapw1mqoqyaq,3g5f9dbfotano7np0kgko3gn8xmvhz,q4okTcwJ,2020-0188,2020-06-04,18:18:11,18:44:34,NA,incomplete,205,gender,2,1,left,A_F_03.jpg,C_F_15.jpg,A_M_08.jpg,left,1560,true,high,NA,NA,NA,NA,NA,NA,NA,false
q4okTcwJ,3e9vauv7czrnvucm8noapw1mqoqyaq,3g5f9dbfotano7np0kgko3gn8xmvhz,q4okTcwJ,2020-0188,2020-06-04,18:18:11,18:44:34,NA,incomplete,206,gender,2,1,left,A_M_14.jpg,C_M_13.jpg,A_F_15.jpg,left,1656,true,high,NA,NA,NA,NA,NA,NA,NA,false
q4okTcwJ,3e9vauv7czrnvucm8noapw1mqoqyaq,3g5f9dbfotano7np0kgko3gn8xmvhz,q4okTcwJ,2020-0188,2020-06-04,18:18:11,18:44:34,NA,incomplete,207,gender,2,0,right,A_F_03.jpg,A_M_08.jpg,C_F_12.jpg,right,1275,true,high,NA,NA,NA,NA,NA,NA,NA,false
q4okTcwJ,3e9vauv7czrnvucm8noapw1mqoqyaq,3g5f9dbfotano7np0kgko3gn8xmvhz,q4okTcwJ,2020-0188,2020-06-04,18:18:11,18:44:34,NA,incomplete,208,gender,2,1,right,A_M_10.jpg,A_F_06.jpg,C_M_04.jpg,right,1238,true,high,NA,NA,NA,NA,NA,NA,NA,false
q4okTcwJ,3e9vauv7czrnvucm8noapw1mqoqyaq,3g5f9dbfotano7np0kgko3gn8xmvhz,q4okTcwJ,2020-0188,2020-06-04,18:18:11,18:44:34,NA,incomplete,209,gender,2,1,right,A_F_01.jpg,A_M_07.jpg,C_F_06.jpg,right,1265,true,high,NA,NA,NA,NA,NA,NA,NA,false
q4okTcwJ,3e9vauv7czrnvucm8noapw1mqoqyaq,3g5f9dbfotano7np0kgko3gn8xmvhz,q4okTcwJ,2020-0188,2020-06-04,18:18:11,18:44:34,NA,incomplete,210,gender,2,1,right,A_M_07.jpg,A_F_04.jpg,C_M_12.jpg,right,1442,true,high,NA,NA,NA,NA,NA,NA,NA,false
q4okTcwJ,3e9vauv7czrnvucm8noapw1mqoqyaq,3g5f9dbfotano7np0kgko3gn8xmvhz,q4okTcwJ,2020-0188,2020-06-04,18:18:11,18:44:34,NA,incomplete,211,gender,2,0,right,A_F_08.jpg,A_M_13.jpg,C_F_12.jpg,right,1329,true,high,NA,NA,NA,NA,NA,NA,NA,false
q4okTcwJ,3e9vauv7czrnvucm8noapw1mqoqyaq,3g5f9dbfotano7np0kgko3gn8xmvhz,q4okTcwJ,2020-0188,2020-06-04,18:18:11,18:44:34,NA,incomplete,212,gender,2,1,right,A_M_03.jpg,A_F_02.jpg,C_M_01.jpg,right,1272,true,high,NA,NA,NA,NA,NA,NA,NA,false
q4okTcwJ,3e9vauv7czrnvucm8noapw1mqoqyaq,3g5f9dbfotano7np0kgko3gn8xmvhz,q4okTcwJ,2020-0188,2020-06-04,18:18:11,18:44:34,NA,incomplete,213,gender,2,1,right,C_F_07.jpg,C_M_12.jpg,A_F_11.jpg,left,1569,false,high,NA,NA,NA,NA,NA,NA,NA,false
q4okTcwJ,3e9vauv7czrnvucm8noapw1mqoqyaq,3g5f9dbfotano7np0kgko3gn8xmvhz,q4okTcwJ,2020-0188,2020-06-04,18:18:11,18:44:34,NA,incomplete,214,gender,2,1,right,C_F_06.jpg,C_M_11.jpg,A_F_16.jpg,right,1161,true,high,NA,NA,NA,NA,NA,NA,NA,false
q4okTcwJ,3e9vauv7czrnvucm8noapw1mqoqyaq,3g5f9dbfotano7np0kgko3gn8xmvhz,q4okTcwJ,2020-0188,2020-06-04,18:18:11,18:44:34,NA,incomplete,215,gender,2,0,right,C_F_13.jpg,C_M_06.jpg,A_F_08.jpg,right,1232,true,high,NA,NA,NA,NA,NA,NA,NA,false
q4okTcwJ,3e9vauv7czrnvucm8noapw1mqoqyaq,3g5f9dbfotano7np0kgko3gn8xmvhz,q4okTcwJ,2020-0188,2020-06-04,18:18:11,18:44:34,NA,incomplete,216,gender,2,1,left,C_M_11.jpg,A_M_03.jpg,C_F_16.jpg,left,1037,true,high,NA,NA,NA,NA,NA,NA,NA,false
q4okTcwJ,3e9vauv7czrnvucm8noapw1mqoqyaq,3g5f9dbfotano7np0kgko3gn8xmvhz,q4okTcwJ,2020-0188,2020-06-04,18:18:11,18:44:34,NA,incomplete,217,gender,2,1,right,C_M_15.jpg,C_F_13.jpg,A_M_08.jpg,right,1134,true,high,NA,NA,NA,NA,NA,NA,NA,false
q4okTcwJ,3e9vauv7czrnvucm8noapw1mqoqyaq,3g5f9dbfotano7np0kgko3gn8xmvhz,q4okTcwJ,2020-0188,2020-06-04,18:18:11,18:44:34,NA,incomplete,218,gender,2,1,left,C_M_04.jpg,A_M_14.jpg,C_F_10.jpg,left,1206,true,high,NA,NA,NA,NA,NA,NA,NA,false
q4okTcwJ,3e9vauv7czrnvucm8noapw1mqoqyaq,3g5f9dbfotano7np0kgko3gn8xmvhz,q4okTcwJ,2020-0188,2020-06-04,18:18:11,18:44:34,NA,incomplete,219,gender,2,0,right,C_M_02.jpg,C_F_15.jpg,A_M_04.jpg,right,1148,true,high,NA,NA,NA,NA,NA,NA,NA,false
q4okTcwJ,3e9vauv7czrnvucm8noapw1mqoqyaq,3g5f9dbfotano7np0kgko3gn8xmvhz,q4okTcwJ,2020-0188,2020-06-04,18:18:11,18:44:34,NA,incomplete,220,race,3,1,left,C_M_12.jpg,C_F_02.jpg,A_M_07.jpg,right,1060,false,high,NA,NA,NA,NA,NA,NA,NA,false
q4okTcwJ,3e9vauv7czrnvucm8noapw1mqoqyaq,3g5f9dbfotano7np0kgko3gn8xmvhz,q4okTcwJ,2020-0188,2020-06-04,18:18:11,18:44:34,NA,incomplete,221,race,3,1,right,A_M_11.jpg,C_M_12.jpg,A_F_06.jpg,right,1187,true,high,NA,NA,NA,NA,NA,NA,NA,false
q4okTcwJ,3e9vauv7czrnvucm8noapw1mqoqyaq,3g5f9dbfotano7np0kgko3gn8xmvhz,q4okTcwJ,2020-0188,2020-06-04,18:18:11,18:44:34,NA,incomplete,222,race,3,1,right,A_M_08.jpg,C_M_07.jpg,A_F_02.jpg,right,1261,true,high,NA,NA,NA,NA,NA,NA,NA,false
q4okTcwJ,3e9vauv7czrnvucm8noapw1mqoqyaq,3g5f9dbfotano7np0kgko3gn8xmvhz,q4okTcwJ,2020-0188,2020-06-04,18:18:11,18:44:34,NA,incomplete,223,race,3,1,right,A_F_07.jpg,C_F_11.jpg,A_M_01.jpg,left,1462,false,high,NA,NA,NA,NA,NA,NA,NA,false
q4okTcwJ,3e9vauv7czrnvucm8noapw1mqoqyaq,3g5f9dbfotano7np0kgko3gn8xmvhz,q4okTcwJ,2020-0188,2020-06-04,18:18:11,18:44:34,NA,incomplete,224,race,3,0,left,A_F_01.jpg,A_M_07.jpg,C_F_08.jpg,left,1298,true,high,NA,NA,NA,NA,NA,NA,NA,false
q4okTcwJ,3e9vauv7czrnvucm8noapw1mqoqyaq,3g5f9dbfotano7np0kgko3gn8xmvhz,q4okTcwJ,2020-0188,2020-06-04,18:18:11,18:44:34,NA,incomplete,225,race,3,1,left,C_M_06.jpg,C_F_05.jpg,A_M_16.jpg,left,1316,true,high,NA,NA,NA,NA,NA,NA,NA,false
q4okTcwJ,3e9vauv7czrnvucm8noapw1mqoqyaq,3g5f9dbfotano7np0kgko3gn8xmvhz,q4okTcwJ,2020-0188,2020-06-04,18:18:11,18:44:34,NA,incomplete,226,race,3,1,right,C_F_10.jpg,A_F_08.jpg,C_M_15.jpg,right,1204,true,high,NA,NA,NA,NA,NA,NA,NA,false
q4okTcwJ,3e9vauv7czrnvucm8noapw1mqoqyaq,3g5f9dbfotano7np0kgko3gn8xmvhz,q4okTcwJ,2020-0188,2020-06-04,18:18:11,18:44:34,NA,incomplete,227,race,3,0,right,C_F_02.jpg,A_F_13.jpg,C_M_16.jpg,right,1299,true,high,NA,NA,NA,NA,NA,NA,NA,false
q4okTcwJ,3e9vauv7czrnvucm8noapw1mqoqyaq,3g5f9dbfotano7np0kgko3gn8xmvhz,q4okTcwJ,2020-0188,2020-06-04,18:18:11,18:44:34,NA,incomplete,228,race,3,1,right,A_M_10.jpg,C_M_16.jpg,A_F_15.jpg,right,1275,true,high,NA,NA,NA,NA,NA,NA,NA,false
q4okTcwJ,3e9vauv7czrnvucm8noapw1mqoqyaq,3g5f9dbfotano7np0kgko3gn8xmvhz,q4okTcwJ,2020-0188,2020-06-04,18:18:11,18:44:34,NA,incomplete,229,race,3,0,left,C_M_02.jpg,C_F_14.jpg,A_M_16.jpg,left,1310,true,high,NA,NA,NA,NA,NA,NA,NA,false
q4okTcwJ,3e9vauv7czrnvucm8noapw1mqoqyaq,3g5f9dbfotano7np0kgko3gn8xmvhz,q4okTcwJ,2020-0188,2020-06-04,18:18:11,18:44:34,NA,incomplete,230,race,3,1,right,C_M_02.jpg,A_M_04.jpg,C_F_06.jpg,right,1407,true,high,NA,NA,NA,NA,NA,NA,NA,false
q4okTcwJ,3e9vauv7czrnvucm8noapw1mqoqyaq,3g5f9dbfotano7np0kgko3gn8xmvhz,q4okTcwJ,2020-0188,2020-06-04,18:18:11,18:44:34,NA,incomplete,231,race,3,1,right,C_F_06.jpg,A_F_04.jpg,C_M_14.jpg,right,1513,true,high,NA,NA,NA,NA,NA,NA,NA,false
q4okTcwJ,3e9vauv7czrnvucm8noapw1mqoqyaq,3g5f9dbfotano7np0kgko3gn8xmvhz,q4okTcwJ,2020-0188,2020-06-04,18:18:11,18:44:34,NA,incomplete,232,race,3,1,right,A_M_10.jpg,C_M_13.jpg,A_F_01.jpg,right,1364,true,high,NA,NA,NA,NA,NA,NA,NA,false
q4okTcwJ,3e9vauv7czrnvucm8noapw1mqoqyaq,3g5f9dbfotano7np0kgko3gn8xmvhz,q4okTcwJ,2020-0188,2020-06-04,18:18:11,18:44:34,NA,incomplete,233,race,3,1,right,A_M_11.jpg,C_M_15.jpg,A_F_04.jpg,left,1384,false,high,NA,NA,NA,NA,NA,NA,NA,false
q4okTcwJ,3e9vauv7czrnvucm8noapw1mqoqyaq,3g5f9dbfotano7np0kgko3gn8xmvhz,q4okTcwJ,2020-0188,2020-06-04,18:18:11,18:44:34,NA,incomplete,234,race,3,1,left,A_M_15.jpg,A_F_16.jpg,C_M_12.jpg,left,1290,true,high,NA,NA,NA,NA,NA,NA,NA,false
q4okTcwJ,3e9vauv7czrnvucm8noapw1mqoqyaq,3g5f9dbfotano7np0kgko3gn8xmvhz,q4okTcwJ,2020-0188,2020-06-04,18:18:11,18:44:34,NA,incomplete,235,race,3,0,right,A_M_06.jpg,C_M_03.jpg,A_F_14.jpg,right,1275,true,high,NA,NA,NA,NA,NA,NA,NA,false
q4okTcwJ,3e9vauv7czrnvucm8noapw1mqoqyaq,3g5f9dbfotano7np0kgko3gn8xmvhz,q4okTcwJ,2020-0188,2020-06-04,18:18:11,18:44:34,NA,incomplete,236,race,3,1,right,C_F_03.jpg,A_F_08.jpg,C_M_06.jpg,right,1108,true,high,NA,NA,NA,NA,NA,NA,NA,false
q4okTcwJ,3e9vauv7czrnvucm8noapw1mqoqyaq,3g5f9dbfotano7np0kgko3gn8xmvhz,q4okTcwJ,2020-0188,2020-06-04,18:18:11,18:44:34,NA,incomplete,237,race,3,1,right,A_M_06.jpg,C_M_14.jpg,A_F_05.jpg,right,1247,true,high,NA,NA,NA,NA,NA,NA,NA,false
q4okTcwJ,3e9vauv7czrnvucm8noapw1mqoqyaq,3g5f9dbfotano7np0kgko3gn8xmvhz,q4okTcwJ,2020-0188,2020-06-04,18:18:11,18:44:34,NA,incomplete,238,race,3,1,right,C_F_12.jpg,A_F_07.jpg,C_M_11.jpg,right,1258,true,high,NA,NA,NA,NA,NA,NA,NA,false
q4okTcwJ,3e9vauv7czrnvucm8noapw1mqoqyaq,3g5f9dbfotano7np0kgko3gn8xmvhz,q4okTcwJ,2020-0188,2020-06-04,18:18:11,18:44:34,NA,incomplete,239,race,3,1,left,A_M_07.jpg,A_F_03.jpg,C_M_02.jpg,left,1238,true,high,NA,NA,NA,NA,NA,NA,NA,false
q4okTcwJ,3e9vauv7czrnvucm8noapw1mqoqyaq,3g5f9dbfotano7np0kgko3gn8xmvhz,q4okTcwJ,2020-0188,2020-06-04,18:18:11,18:44:34,NA,NA,instruction example,number,NA,NA,NA,Green_Plus_Chess_3.jpg,Red_Circle_Stripes_3.jpg,Blue_Plus_Grid_2.jpg,NA,NA,NA,NA,NA,NA,NA,NA,NA,NA,NA,undefined
q4okTcwJ,3e9vauv7czrnvucm8noapw1mqoqyaq,3g5f9dbfotano7np0kgko3gn8xmvhz,q4okTcwJ,2020-0188,2020-06-04,18:18:11,18:44:34,NA,NA,instruction example,number,NA,NA,NA,Red_Star_Chess_2.jpg,Green_Star_Stripes_4.jpg,Purple_Triangle_Dots_2.jpg,NA,NA,NA,NA,NA,NA,NA,NA,NA,NA,NA,undefined
q4okTcwJ,3e9vauv7czrnvucm8noapw1mqoqyaq,3g5f9dbfotano7np0kgko3gn8xmvhz,q4okTcwJ,2020-0188,2020-06-04,18:18:11,18:44:34,NA,NA,instruction example,number,NA,NA,NA,C_F_02.jpg,A_F_12.jpg,C_M_11.jpg,NA,NA,NA,NA,NA,NA,NA,NA,NA,NA,NA,undefined
q4okTcwJ,3e9vauv7czrnvucm8noapw1mqoqyaq,3g5f9dbfotano7np0kgko3gn8xmvhz,q4okTcwJ,2020-0188,2020-06-04,18:18:11,18:44:34,NA,NA,instruction example,number,NA,NA,NA,C_F_04.jpg,C_M_03.jpg,A_F_13.jpg,NA,NA,NA,NA,NA,NA,NA,NA,NA,NA,NA,undefined
q4okTcwJ,3e9vauv7czrnvucm8noapw1mqoqyaq,3g5f9dbfotano7np0kgko3gn8xmvhz,q4okTcwJ,2020-0188,2020-06-04,18:18:11,18:44:34,1533246,1586203,NA,NA,NA,NA,NA,NA,NA,NA,NA,NA,NA,NA,24,White/Caucasian,Male,White,no,yes,no,undefined
