workerId,hitId,assignmentId,subject,studyid,exp_date,exp_start,exp_end,time_start,time_end,trial,type,sequence,reward_validity,answer,image_top,image_left,image_right,response,response_time,response_acc,volatility,age,race,gender,ethnicity,color,vision,neuro,practice
j3YKEnJM,3headtgn3s5yqh3y5nncdnm28bcvrm,3gdtjdapvyob59snjolnou4behg8m4,j3YKEnJM,2020-0188,2020-06-04,11:17:35,11:34:51,NA,incomplete,0,filling,0,0,right,Blue_Plus_Chess_4.jpg,Blue_Star_Grid_1.jpg,Green_Triangle_Chess_3.jpg,left,1491.1050000000396,false,NA,NA,NA,NA,NA,NA,NA,NA,true
j3YKEnJM,3headtgn3s5yqh3y5nncdnm28bcvrm,3gdtjdapvyob59snjolnou4behg8m4,j3YKEnJM,2020-0188,2020-06-04,11:17:35,11:34:51,NA,incomplete,1,filling,0,1,left,Blue_Circle_Stripes_4.jpg,Green_Plus_Stripes_1.jpg,Blue_Star_Chess_3.jpg,left,1228.5999999994528,true,NA,NA,NA,NA,NA,NA,NA,NA,true
j3YKEnJM,3headtgn3s5yqh3y5nncdnm28bcvrm,3gdtjdapvyob59snjolnou4behg8m4,j3YKEnJM,2020-0188,2020-06-04,11:17:35,11:34:51,NA,incomplete,2,filling,0,1,right,Green_Star_Dots_3.jpg,Green_Circle_Chess_4.jpg,Red_Triangle_Dots_2.jpg,right,1393.3050000005169,true,NA,NA,NA,NA,NA,NA,NA,NA,true
j3YKEnJM,3headtgn3s5yqh3y5nncdnm28bcvrm,3gdtjdapvyob59snjolnou4behg8m4,j3YKEnJM,2020-0188,2020-06-04,11:17:35,11:34:51,NA,incomplete,3,filling,0,1,left,Blue_Circle_Stripes_4.jpg,Green_Star_Stripes_2.jpg,Blue_Plus_Grid_3.jpg,left,1334.6700000001583,true,NA,NA,NA,NA,NA,NA,NA,NA,true
j3YKEnJM,3headtgn3s5yqh3y5nncdnm28bcvrm,3gdtjdapvyob59snjolnou4behg8m4,j3YKEnJM,2020-0188,2020-06-04,11:17:35,11:34:51,NA,incomplete,4,filling,0,1,right,Blue_Triangle_Stripes_1.jpg,Blue_Plus_Grid_3.jpg,Purple_Star_Stripes_4.jpg,right,1238.1549999999697,true,NA,NA,NA,NA,NA,NA,NA,NA,true
j3YKEnJM,3headtgn3s5yqh3y5nncdnm28bcvrm,3gdtjdapvyob59snjolnou4behg8m4,j3YKEnJM,2020-0188,2020-06-04,11:17:35,11:34:51,NA,incomplete,5,filling,0,1,left,Purple_Circle_Stripes_3.jpg,Green_Plus_Stripes_2.jpg,Purple_Star_Dots_4.jpg,left,1137.7100000008359,true,NA,NA,NA,NA,NA,NA,NA,NA,true
j3YKEnJM,3headtgn3s5yqh3y5nncdnm28bcvrm,3gdtjdapvyob59snjolnou4behg8m4,j3YKEnJM,2020-0188,2020-06-04,11:17:35,11:34:51,NA,incomplete,6,filling,0,1,left,Blue_Plus_Stripes_2.jpg,Purple_Triangle_Stripes_4.jpg,Blue_Star_Dots_1.jpg,left,1129.9349999999395,true,NA,NA,NA,NA,NA,NA,NA,NA,true
j3YKEnJM,3headtgn3s5yqh3y5nncdnm28bcvrm,3gdtjdapvyob59snjolnou4behg8m4,j3YKEnJM,2020-0188,2020-06-04,11:17:35,11:34:51,NA,incomplete,7,filling,0,1,left,Red_Star_Stripes_4.jpg,Blue_Circle_Stripes_2.jpg,Red_Plus_Chess_1.jpg,left,1137.3349999994389,true,NA,NA,NA,NA,NA,NA,NA,NA,true
j3YKEnJM,3headtgn3s5yqh3y5nncdnm28bcvrm,3gdtjdapvyob59snjolnou4behg8m4,j3YKEnJM,2020-0188,2020-06-04,11:17:35,11:34:51,NA,incomplete,8,filling,0,1,left,Blue_Plus_Grid_3.jpg,Red_Triangle_Grid_2.jpg,Blue_Circle_Stripes_4.jpg,left,1561.200000000128,true,NA,NA,NA,NA,NA,NA,NA,NA,true
j3YKEnJM,3headtgn3s5yqh3y5nncdnm28bcvrm,3gdtjdapvyob59snjolnou4behg8m4,j3YKEnJM,2020-0188,2020-06-04,11:17:35,11:34:51,NA,incomplete,9,filling,0,1,left,Purple_Star_Dots_3.jpg,Green_Plus_Dots_4.jpg,Purple_Circle_Stripes_2.jpg,none,0,false,NA,NA,NA,NA,NA,NA,NA,NA,true
j3YKEnJM,3headtgn3s5yqh3y5nncdnm28bcvrm,3gdtjdapvyob59snjolnou4behg8m4,j3YKEnJM,2020-0188,2020-06-04,11:17:35,11:34:51,NA,incomplete,10,filling,0,1,right,Purple_Circle_Dots_4.jpg,Purple_Triangle_Grid_3.jpg,Blue_Plus_Dots_1.jpg,right,1252.0450000001583,true,NA,NA,NA,NA,NA,NA,NA,NA,true
j3YKEnJM,3headtgn3s5yqh3y5nncdnm28bcvrm,3gdtjdapvyob59snjolnou4behg8m4,j3YKEnJM,2020-0188,2020-06-04,11:17:35,11:34:51,NA,incomplete,11,filling,0,1,right,Blue_Star_Dots_2.jpg,Blue_Triangle_Chess_4.jpg,Purple_Plus_Dots_1.jpg,right,1150.9400000004098,true,NA,NA,NA,NA,NA,NA,NA,NA,true
j3YKEnJM,3headtgn3s5yqh3y5nncdnm28bcvrm,3gdtjdapvyob59snjolnou4behg8m4,j3YKEnJM,2020-0188,2020-06-04,11:17:35,11:34:51,NA,incomplete,12,filling,0,1,left,Purple_Plus_Stripes_1.jpg,Red_Circle_Stripes_4.jpg,Purple_Star_Dots_2.jpg,left,869.9050000004936,true,NA,NA,NA,NA,NA,NA,NA,NA,true
j3YKEnJM,3headtgn3s5yqh3y5nncdnm28bcvrm,3gdtjdapvyob59snjolnou4behg8m4,j3YKEnJM,2020-0188,2020-06-04,11:17:35,11:34:51,NA,incomplete,13,filling,0,0,right,Green_Circle_Dots_2.jpg,Green_Triangle_Grid_1.jpg,Blue_Star_Dots_3.jpg,right,1416.215000000142,true,NA,NA,NA,NA,NA,NA,NA,NA,true
j3YKEnJM,3headtgn3s5yqh3y5nncdnm28bcvrm,3gdtjdapvyob59snjolnou4behg8m4,j3YKEnJM,2020-0188,2020-06-04,11:17:35,11:34:51,NA,incomplete,14,filling,0,0,left,Green_Circle_Stripes_3.jpg,Purple_Plus_Stripes_4.jpg,Green_Star_Dots_2.jpg,left,917.7049999998417,true,NA,NA,NA,NA,NA,NA,NA,NA,true
j3YKEnJM,3headtgn3s5yqh3y5nncdnm28bcvrm,3gdtjdapvyob59snjolnou4behg8m4,j3YKEnJM,2020-0188,2020-06-04,11:17:35,11:34:51,NA,incomplete,15,filling,0,1,left,Purple_Circle_Dots_1.jpg,Blue_Triangle_Dots_4.jpg,Purple_Star_Stripes_2.jpg,left,1509.0900000004913,true,NA,NA,NA,NA,NA,NA,NA,NA,true
j3YKEnJM,3headtgn3s5yqh3y5nncdnm28bcvrm,3gdtjdapvyob59snjolnou4behg8m4,j3YKEnJM,2020-0188,2020-06-04,11:17:35,11:34:51,NA,incomplete,16,filling,0,1,right,Purple_Star_Grid_3.jpg,Purple_Plus_Stripes_4.jpg,Blue_Triangle_Grid_1.jpg,right,1174.2950000006822,true,NA,NA,NA,NA,NA,NA,NA,NA,true
j3YKEnJM,3headtgn3s5yqh3y5nncdnm28bcvrm,3gdtjdapvyob59snjolnou4behg8m4,j3YKEnJM,2020-0188,2020-06-04,11:17:35,11:34:51,NA,incomplete,17,filling,0,0,right,Blue_Plus_Grid_1.jpg,Blue_Star_Dots_2.jpg,Red_Circle_Grid_4.jpg,right,1108.3849999995437,true,NA,NA,NA,NA,NA,NA,NA,NA,true
j3YKEnJM,3headtgn3s5yqh3y5nncdnm28bcvrm,3gdtjdapvyob59snjolnou4behg8m4,j3YKEnJM,2020-0188,2020-06-04,11:17:35,11:34:51,NA,incomplete,18,filling,0,1,right,Red_Star_Stripes_1.jpg,Red_Triangle_Chess_4.jpg,Green_Plus_Stripes_2.jpg,right,1157.815000000468,true,NA,NA,NA,NA,NA,NA,NA,NA,true
j3YKEnJM,3headtgn3s5yqh3y5nncdnm28bcvrm,3gdtjdapvyob59snjolnou4behg8m4,j3YKEnJM,2020-0188,2020-06-04,11:17:35,11:34:51,NA,incomplete,19,filling,0,1,left,Blue_Circle_Grid_1.jpg,Red_Triangle_Grid_4.jpg,Blue_Star_Chess_3.jpg,left,1108.365000000049,true,NA,NA,NA,NA,NA,NA,NA,NA,true
j3YKEnJM,3headtgn3s5yqh3y5nncdnm28bcvrm,3gdtjdapvyob59snjolnou4behg8m4,j3YKEnJM,2020-0188,2020-06-04,11:17:35,11:34:51,NA,incomplete,20,color,1,0,left,Purple_Plus_Stripes_4.jpg,Purple_Triangle_Chess_3.jpg,Blue_Circle_Stripes_2.jpg,left,685.0599999997648,true,NA,NA,NA,NA,NA,NA,NA,NA,true
j3YKEnJM,3headtgn3s5yqh3y5nncdnm28bcvrm,3gdtjdapvyob59snjolnou4behg8m4,j3YKEnJM,2020-0188,2020-06-04,11:17:35,11:34:51,NA,incomplete,21,color,1,1,right,Purple_Triangle_Chess_1.jpg,Red_Star_Chess_4.jpg,Purple_Circle_Dots_2.jpg,right,638.5199999994948,true,NA,NA,NA,NA,NA,NA,NA,NA,true
j3YKEnJM,3headtgn3s5yqh3y5nncdnm28bcvrm,3gdtjdapvyob59snjolnou4behg8m4,j3YKEnJM,2020-0188,2020-06-04,11:17:35,11:34:51,NA,incomplete,22,color,1,1,left,Blue_Circle_Chess_4.jpg,Blue_Triangle_Dots_1.jpg,Purple_Plus_Chess_3.jpg,left,617.7950000001001,true,NA,NA,NA,NA,NA,NA,NA,NA,true
j3YKEnJM,3headtgn3s5yqh3y5nncdnm28bcvrm,3gdtjdapvyob59snjolnou4behg8m4,j3YKEnJM,2020-0188,2020-06-04,11:17:35,11:34:51,NA,incomplete,23,color,1,1,right,Red_Star_Dots_1.jpg,Purple_Plus_Dots_2.jpg,Red_Circle_Chess_3.jpg,right,518.4949999993551,true,NA,NA,NA,NA,NA,NA,NA,NA,true
j3YKEnJM,3headtgn3s5yqh3y5nncdnm28bcvrm,3gdtjdapvyob59snjolnou4behg8m4,j3YKEnJM,2020-0188,2020-06-04,11:17:35,11:34:51,NA,incomplete,24,color,1,1,right,Green_Plus_Chess_4.jpg,Red_Circle_Chess_2.jpg,Green_Triangle_Grid_1.jpg,right,565.974999999511,true,NA,NA,NA,NA,NA,NA,NA,NA,true
j3YKEnJM,3headtgn3s5yqh3y5nncdnm28bcvrm,3gdtjdapvyob59snjolnou4behg8m4,j3YKEnJM,2020-0188,2020-06-04,11:17:35,11:34:51,NA,incomplete,25,color,1,0,right,Green_Triangle_Stripes_3.jpg,Blue_Plus_Stripes_1.jpg,Green_Circle_Grid_4.jpg,right,588.5950000002049,true,NA,NA,NA,NA,NA,NA,NA,NA,true
j3YKEnJM,3headtgn3s5yqh3y5nncdnm28bcvrm,3gdtjdapvyob59snjolnou4behg8m4,j3YKEnJM,2020-0188,2020-06-04,11:17:35,11:34:51,NA,incomplete,26,color,1,1,left,Purple_Circle_Dots_1.jpg,Purple_Star_Grid_3.jpg,Blue_Plus_Dots_2.jpg,left,593.9550000003073,true,NA,NA,NA,NA,NA,NA,NA,NA,true
j3YKEnJM,3headtgn3s5yqh3y5nncdnm28bcvrm,3gdtjdapvyob59snjolnou4behg8m4,j3YKEnJM,2020-0188,2020-06-04,11:17:35,11:34:51,NA,incomplete,27,color,1,0,right,Blue_Triangle_Dots_4.jpg,Purple_Star_Dots_2.jpg,Blue_Circle_Stripes_3.jpg,right,455.4250000001048,true,NA,NA,NA,NA,NA,NA,NA,NA,true
j3YKEnJM,3headtgn3s5yqh3y5nncdnm28bcvrm,3gdtjdapvyob59snjolnou4behg8m4,j3YKEnJM,2020-0188,2020-06-04,11:17:35,11:34:51,NA,incomplete,28,color,1,1,right,Purple_Star_Stripes_3.jpg,Blue_Triangle_Stripes_4.jpg,Purple_Circle_Grid_1.jpg,right,482.6800000000512,true,NA,NA,NA,NA,NA,NA,NA,NA,true
j3YKEnJM,3headtgn3s5yqh3y5nncdnm28bcvrm,3gdtjdapvyob59snjolnou4behg8m4,j3YKEnJM,2020-0188,2020-06-04,11:17:35,11:34:51,NA,incomplete,29,color,1,1,right,Green_Star_Grid_4.jpg,Blue_Circle_Grid_1.jpg,Green_Triangle_Chess_2.jpg,right,492.08499999990454,true,NA,NA,NA,NA,NA,NA,NA,NA,true
j3YKEnJM,3headtgn3s5yqh3y5nncdnm28bcvrm,3gdtjdapvyob59snjolnou4behg8m4,j3YKEnJM,2020-0188,2020-06-04,11:17:35,11:34:51,NA,incomplete,30,color,1,1,right,Red_Star_Grid_2.jpg,Purple_Triangle_Grid_3.jpg,Red_Plus_Chess_1.jpg,right,477.39000000001397,true,NA,NA,NA,NA,NA,NA,NA,NA,true
j3YKEnJM,3headtgn3s5yqh3y5nncdnm28bcvrm,3gdtjdapvyob59snjolnou4behg8m4,j3YKEnJM,2020-0188,2020-06-04,11:17:35,11:34:51,NA,incomplete,31,color,1,1,right,Purple_Triangle_Dots_2.jpg,Green_Plus_Dots_4.jpg,Purple_Star_Chess_3.jpg,right,463.44999999925494,true,NA,NA,NA,NA,NA,NA,NA,NA,true
j3YKEnJM,3headtgn3s5yqh3y5nncdnm28bcvrm,3gdtjdapvyob59snjolnou4behg8m4,j3YKEnJM,2020-0188,2020-06-04,11:17:35,11:34:51,NA,incomplete,32,color,1,1,right,Red_Star_Grid_4.jpg,Green_Plus_Grid_2.jpg,Red_Triangle_Dots_1.jpg,right,410.0000000007567,true,NA,NA,NA,NA,NA,NA,NA,NA,true
j3YKEnJM,3headtgn3s5yqh3y5nncdnm28bcvrm,3gdtjdapvyob59snjolnou4behg8m4,j3YKEnJM,2020-0188,2020-06-04,11:17:35,11:34:51,NA,incomplete,33,color,1,1,left,Green_Star_Stripes_4.jpg,Green_Circle_Grid_3.jpg,Red_Plus_Stripes_2.jpg,left,350.6850000003469,true,NA,NA,NA,NA,NA,NA,NA,NA,true
j3YKEnJM,3headtgn3s5yqh3y5nncdnm28bcvrm,3gdtjdapvyob59snjolnou4behg8m4,j3YKEnJM,2020-0188,2020-06-04,11:17:35,11:34:51,NA,incomplete,34,color,1,1,left,Blue_Star_Dots_3.jpg,Blue_Triangle_Grid_2.jpg,Green_Plus_Dots_4.jpg,left,389.68000000022585,true,NA,NA,NA,NA,NA,NA,NA,NA,true
j3YKEnJM,3headtgn3s5yqh3y5nncdnm28bcvrm,3gdtjdapvyob59snjolnou4behg8m4,j3YKEnJM,2020-0188,2020-06-04,11:17:35,11:34:51,NA,incomplete,35,color,1,0,right,Purple_Plus_Stripes_2.jpg,Green_Circle_Stripes_4.jpg,Purple_Star_Grid_3.jpg,right,394.6400000004214,true,NA,NA,NA,NA,NA,NA,NA,NA,true
j3YKEnJM,3headtgn3s5yqh3y5nncdnm28bcvrm,3gdtjdapvyob59snjolnou4behg8m4,j3YKEnJM,2020-0188,2020-06-04,11:17:35,11:34:51,NA,incomplete,36,color,1,1,right,Blue_Plus_Stripes_4.jpg,Purple_Triangle_Stripes_2.jpg,Blue_Circle_Chess_1.jpg,right,439.9199999998091,true,NA,NA,NA,NA,NA,NA,NA,NA,true
j3YKEnJM,3headtgn3s5yqh3y5nncdnm28bcvrm,3gdtjdapvyob59snjolnou4behg8m4,j3YKEnJM,2020-0188,2020-06-04,11:17:35,11:34:51,NA,incomplete,37,color,1,1,left,Purple_Plus_Chess_3.jpg,Purple_Star_Stripes_4.jpg,Red_Circle_Chess_2.jpg,left,531.2999999996391,true,NA,NA,NA,NA,NA,NA,NA,NA,true
j3YKEnJM,3headtgn3s5yqh3y5nncdnm28bcvrm,3gdtjdapvyob59snjolnou4behg8m4,j3YKEnJM,2020-0188,2020-06-04,11:17:35,11:34:51,NA,incomplete,38,color,1,1,left,Red_Star_Grid_4.jpg,Red_Triangle_Dots_3.jpg,Green_Plus_Grid_1.jpg,left,467.26000000035856,true,NA,NA,NA,NA,NA,NA,NA,NA,true
j3YKEnJM,3headtgn3s5yqh3y5nncdnm28bcvrm,3gdtjdapvyob59snjolnou4behg8m4,j3YKEnJM,2020-0188,2020-06-04,11:17:35,11:34:51,NA,incomplete,39,color,1,1,right,Blue_Star_Dots_3.jpg,Purple_Triangle_Dots_4.jpg,Blue_Circle_Grid_1.jpg,right,381.175000000454,true,NA,NA,NA,NA,NA,NA,NA,NA,true
j3YKEnJM,3headtgn3s5yqh3y5nncdnm28bcvrm,3gdtjdapvyob59snjolnou4behg8m4,j3YKEnJM,2020-0188,2020-06-04,11:17:35,11:34:51,NA,incomplete,0,filling,0,1,left,Blue_Plus_Stripes_4.jpg,Green_Triangle_Stripes_3.jpg,Blue_Star_Chess_2.jpg,right,693.9100000009057,false,high,NA,NA,NA,NA,NA,NA,NA,false
j3YKEnJM,3headtgn3s5yqh3y5nncdnm28bcvrm,3gdtjdapvyob59snjolnou4behg8m4,j3YKEnJM,2020-0188,2020-06-04,11:17:35,11:34:51,NA,incomplete,1,filling,0,1,right,Red_Star_Chess_2.jpg,Red_Triangle_Grid_4.jpg,Purple_Plus_Chess_1.jpg,left,463.03499999974156,false,high,NA,NA,NA,NA,NA,NA,NA,false
j3YKEnJM,3headtgn3s5yqh3y5nncdnm28bcvrm,3gdtjdapvyob59snjolnou4behg8m4,j3YKEnJM,2020-0188,2020-06-04,11:17:35,11:34:51,NA,incomplete,2,filling,0,1,left,Purple_Circle_Stripes_2.jpg,Red_Plus_Stripes_4.jpg,Purple_Triangle_Chess_3.jpg,right,545.7799999995041,false,high,NA,NA,NA,NA,NA,NA,NA,false
j3YKEnJM,3headtgn3s5yqh3y5nncdnm28bcvrm,3gdtjdapvyob59snjolnou4behg8m4,j3YKEnJM,2020-0188,2020-06-04,11:17:35,11:34:51,NA,incomplete,3,filling,0,0,left,Red_Circle_Dots_4.jpg,Purple_Plus_Dots_1.jpg,Red_Triangle_Chess_2.jpg,left,617.2800000004354,true,high,NA,NA,NA,NA,NA,NA,NA,false
j3YKEnJM,3headtgn3s5yqh3y5nncdnm28bcvrm,3gdtjdapvyob59snjolnou4behg8m4,j3YKEnJM,2020-0188,2020-06-04,11:17:35,11:34:51,NA,incomplete,4,filling,0,1,right,Purple_Circle_Chess_4.jpg,Purple_Plus_Stripes_3.jpg,Red_Triangle_Chess_1.jpg,left,565.1250000000582,false,high,NA,NA,NA,NA,NA,NA,NA,false
j3YKEnJM,3headtgn3s5yqh3y5nncdnm28bcvrm,3gdtjdapvyob59snjolnou4behg8m4,j3YKEnJM,2020-0188,2020-06-04,11:17:35,11:34:51,NA,incomplete,5,filling,0,1,left,Green_Plus_Grid_1.jpg,Purple_Star_Grid_3.jpg,Green_Circle_Stripes_4.jpg,left,932.5650000000605,true,high,NA,NA,NA,NA,NA,NA,NA,false
j3YKEnJM,3headtgn3s5yqh3y5nncdnm28bcvrm,3gdtjdapvyob59snjolnou4behg8m4,j3YKEnJM,2020-0188,2020-06-04,11:17:35,11:34:51,NA,incomplete,6,filling,0,1,left,Blue_Triangle_Chess_1.jpg,Red_Plus_Chess_4.jpg,Blue_Circle_Stripes_3.jpg,left,828.0899999999674,true,high,NA,NA,NA,NA,NA,NA,NA,false
j3YKEnJM,3headtgn3s5yqh3y5nncdnm28bcvrm,3gdtjdapvyob59snjolnou4behg8m4,j3YKEnJM,2020-0188,2020-06-04,11:17:35,11:34:51,NA,incomplete,7,filling,0,0,left,Green_Star_Chess_1.jpg,Blue_Triangle_Chess_4.jpg,Green_Plus_Dots_3.jpg,left,688.2199999999721,true,high,NA,NA,NA,NA,NA,NA,NA,false
j3YKEnJM,3headtgn3s5yqh3y5nncdnm28bcvrm,3gdtjdapvyob59snjolnou4behg8m4,j3YKEnJM,2020-0188,2020-06-04,11:17:35,11:34:51,NA,incomplete,8,filling,0,0,left,Red_Circle_Dots_4.jpg,Blue_Star_Dots_1.jpg,Red_Plus_Chess_2.jpg,left,633.6500000006636,true,high,NA,NA,NA,NA,NA,NA,NA,false
j3YKEnJM,3headtgn3s5yqh3y5nncdnm28bcvrm,3gdtjdapvyob59snjolnou4behg8m4,j3YKEnJM,2020-0188,2020-06-04,11:17:35,11:34:51,NA,incomplete,9,filling,0,0,left,Blue_Plus_Stripes_2.jpg,Red_Star_Stripes_1.jpg,Blue_Triangle_Grid_3.jpg,left,725.015000000014,true,high,NA,NA,NA,NA,NA,NA,NA,false
j3YKEnJM,3headtgn3s5yqh3y5nncdnm28bcvrm,3gdtjdapvyob59snjolnou4behg8m4,j3YKEnJM,2020-0188,2020-06-04,11:17:35,11:34:51,NA,incomplete,10,color,1,1,right,Red_Triangle_Chess_3.jpg,Purple_Star_Chess_2.jpg,Red_Plus_Grid_1.jpg,left,717.6200000004028,false,high,NA,NA,NA,NA,NA,NA,NA,false
j3YKEnJM,3headtgn3s5yqh3y5nncdnm28bcvrm,3gdtjdapvyob59snjolnou4behg8m4,j3YKEnJM,2020-0188,2020-06-04,11:17:35,11:34:51,NA,incomplete,11,color,1,1,left,Red_Star_Grid_2.jpg,Red_Plus_Stripes_4.jpg,Purple_Triangle_Grid_1.jpg,left,597.2000000001863,true,high,NA,NA,NA,NA,NA,NA,NA,false
j3YKEnJM,3headtgn3s5yqh3y5nncdnm28bcvrm,3gdtjdapvyob59snjolnou4behg8m4,j3YKEnJM,2020-0188,2020-06-04,11:17:35,11:34:51,NA,incomplete,12,color,1,1,right,Purple_Plus_Dots_1.jpg,Green_Triangle_Dots_3.jpg,Purple_Star_Stripes_2.jpg,right,490.6449999997858,true,high,NA,NA,NA,NA,NA,NA,NA,false
j3YKEnJM,3headtgn3s5yqh3y5nncdnm28bcvrm,3gdtjdapvyob59snjolnou4behg8m4,j3YKEnJM,2020-0188,2020-06-04,11:17:35,11:34:51,NA,incomplete,13,color,1,1,left,Green_Star_Grid_2.jpg,Green_Plus_Chess_1.jpg,Blue_Circle_Grid_3.jpg,left,451.9399999999441,true,high,NA,NA,NA,NA,NA,NA,NA,false
j3YKEnJM,3headtgn3s5yqh3y5nncdnm28bcvrm,3gdtjdapvyob59snjolnou4behg8m4,j3YKEnJM,2020-0188,2020-06-04,11:17:35,11:34:51,NA,incomplete,14,color,1,1,left,Blue_Triangle_Grid_3.jpg,Blue_Plus_Chess_2.jpg,Green_Star_Grid_1.jpg,left,462.48499999998603,true,high,NA,NA,NA,NA,NA,NA,NA,false
j3YKEnJM,3headtgn3s5yqh3y5nncdnm28bcvrm,3gdtjdapvyob59snjolnou4behg8m4,j3YKEnJM,2020-0188,2020-06-04,11:17:35,11:34:51,NA,incomplete,15,color,1,0,right,Blue_Triangle_Grid_2.jpg,Red_Circle_Grid_1.jpg,Blue_Plus_Stripes_3.jpg,right,481.27000000025146,true,high,NA,NA,NA,NA,NA,NA,NA,false
j3YKEnJM,3headtgn3s5yqh3y5nncdnm28bcvrm,3gdtjdapvyob59snjolnou4behg8m4,j3YKEnJM,2020-0188,2020-06-04,11:17:35,11:34:51,NA,incomplete,16,color,1,1,left,Blue_Plus_Chess_3.jpg,Blue_Star_Dots_1.jpg,Red_Triangle_Chess_4.jpg,left,427.7549999996554,true,high,NA,NA,NA,NA,NA,NA,NA,false
j3YKEnJM,3headtgn3s5yqh3y5nncdnm28bcvrm,3gdtjdapvyob59snjolnou4behg8m4,j3YKEnJM,2020-0188,2020-06-04,11:17:35,11:34:51,NA,incomplete,17,color,1,1,left,Red_Plus_Dots_2.jpg,Red_Circle_Grid_4.jpg,Purple_Triangle_Dots_3.jpg,left,439.30999999970663,true,high,NA,NA,NA,NA,NA,NA,NA,false
j3YKEnJM,3headtgn3s5yqh3y5nncdnm28bcvrm,3gdtjdapvyob59snjolnou4behg8m4,j3YKEnJM,2020-0188,2020-06-04,11:17:35,11:34:51,NA,incomplete,18,color,1,1,right,Purple_Star_Stripes_2.jpg,Red_Circle_Stripes_4.jpg,Purple_Plus_Grid_1.jpg,right,338.53000000002794,true,high,NA,NA,NA,NA,NA,NA,NA,false
j3YKEnJM,3headtgn3s5yqh3y5nncdnm28bcvrm,3gdtjdapvyob59snjolnou4behg8m4,j3YKEnJM,2020-0188,2020-06-04,11:17:35,11:34:51,NA,incomplete,19,color,1,0,right,Red_Triangle_Chess_2.jpg,Green_Plus_Chess_1.jpg,Red_Star_Grid_3.jpg,right,353.8500000004424,true,high,NA,NA,NA,NA,NA,NA,NA,false
j3YKEnJM,3headtgn3s5yqh3y5nncdnm28bcvrm,3gdtjdapvyob59snjolnou4behg8m4,j3YKEnJM,2020-0188,2020-06-04,11:17:35,11:34:51,NA,incomplete,20,filling,0,1,right,Purple_Star_Chess_2.jpg,Purple_Triangle_Stripes_1.jpg,Blue_Plus_Chess_3.jpg,left,448.28500000038184,false,high,NA,NA,NA,NA,NA,NA,NA,false
j3YKEnJM,3headtgn3s5yqh3y5nncdnm28bcvrm,3gdtjdapvyob59snjolnou4behg8m4,j3YKEnJM,2020-0188,2020-06-04,11:17:35,11:34:51,NA,incomplete,21,filling,0,1,left,Green_Circle_Stripes_4.jpg,Red_Plus_Stripes_1.jpg,Green_Star_Chess_2.jpg,right,387.8199999999488,false,high,NA,NA,NA,NA,NA,NA,NA,false
j3YKEnJM,3headtgn3s5yqh3y5nncdnm28bcvrm,3gdtjdapvyob59snjolnou4behg8m4,j3YKEnJM,2020-0188,2020-06-04,11:17:35,11:34:51,NA,incomplete,22,filling,0,1,right,Red_Circle_Grid_1.jpg,Red_Plus_Chess_4.jpg,Green_Star_Grid_2.jpg,right,705.6450000000186,true,high,NA,NA,NA,NA,NA,NA,NA,false
j3YKEnJM,3headtgn3s5yqh3y5nncdnm28bcvrm,3gdtjdapvyob59snjolnou4behg8m4,j3YKEnJM,2020-0188,2020-06-04,11:17:35,11:34:51,NA,incomplete,23,filling,0,0,left,Purple_Plus_Chess_2.jpg,Blue_Star_Chess_1.jpg,Purple_Triangle_Grid_3.jpg,left,481.69500000041444,true,high,NA,NA,NA,NA,NA,NA,NA,false
j3YKEnJM,3headtgn3s5yqh3y5nncdnm28bcvrm,3gdtjdapvyob59snjolnou4behg8m4,j3YKEnJM,2020-0188,2020-06-04,11:17:35,11:34:51,NA,incomplete,24,filling,0,1,right,Red_Triangle_Stripes_1.jpg,Red_Plus_Dots_4.jpg,Green_Circle_Stripes_3.jpg,left,571.8299999998417,false,high,NA,NA,NA,NA,NA,NA,NA,false
j3YKEnJM,3headtgn3s5yqh3y5nncdnm28bcvrm,3gdtjdapvyob59snjolnou4behg8m4,j3YKEnJM,2020-0188,2020-06-04,11:17:35,11:34:51,NA,incomplete,25,filling,0,1,right,Red_Plus_Dots_3.jpg,Red_Star_Grid_4.jpg,Green_Triangle_Dots_2.jpg,right,553.8049999995856,true,high,NA,NA,NA,NA,NA,NA,NA,false
j3YKEnJM,3headtgn3s5yqh3y5nncdnm28bcvrm,3gdtjdapvyob59snjolnou4behg8m4,j3YKEnJM,2020-0188,2020-06-04,11:17:35,11:34:51,NA,incomplete,26,filling,0,1,left,Green_Circle_Grid_1.jpg,Blue_Triangle_Grid_3.jpg,Green_Plus_Stripes_4.jpg,left,416.6400000003632,true,high,NA,NA,NA,NA,NA,NA,NA,false
j3YKEnJM,3headtgn3s5yqh3y5nncdnm28bcvrm,3gdtjdapvyob59snjolnou4behg8m4,j3YKEnJM,2020-0188,2020-06-04,11:17:35,11:34:51,NA,incomplete,27,filling,0,1,left,Red_Triangle_Grid_1.jpg,Blue_Plus_Grid_3.jpg,Red_Circle_Stripes_4.jpg,left,501.210000000312,true,high,NA,NA,NA,NA,NA,NA,NA,false
j3YKEnJM,3headtgn3s5yqh3y5nncdnm28bcvrm,3gdtjdapvyob59snjolnou4behg8m4,j3YKEnJM,2020-0188,2020-06-04,11:17:35,11:34:51,NA,incomplete,28,filling,0,1,left,Red_Triangle_Stripes_4.jpg,Blue_Plus_Stripes_2.jpg,Red_Star_Dots_3.jpg,left,494.3499999999767,true,high,NA,NA,NA,NA,NA,NA,NA,false
j3YKEnJM,3headtgn3s5yqh3y5nncdnm28bcvrm,3gdtjdapvyob59snjolnou4behg8m4,j3YKEnJM,2020-0188,2020-06-04,11:17:35,11:34:51,NA,incomplete,29,filling,0,0,right,Green_Plus_Stripes_1.jpg,Green_Circle_Chess_4.jpg,Blue_Triangle_Stripes_2.jpg,right,575.2649999995483,true,high,NA,NA,NA,NA,NA,NA,NA,false
j3YKEnJM,3headtgn3s5yqh3y5nncdnm28bcvrm,3gdtjdapvyob59snjolnou4behg8m4,j3YKEnJM,2020-0188,2020-06-04,11:17:35,11:34:51,NA,incomplete,30,color,1,1,left,Blue_Plus_Stripes_4.jpg,Blue_Circle_Grid_2.jpg,Red_Triangle_Stripes_3.jpg,right,557.324999999837,false,high,NA,NA,NA,NA,NA,NA,NA,false
j3YKEnJM,3headtgn3s5yqh3y5nncdnm28bcvrm,3gdtjdapvyob59snjolnou4behg8m4,j3YKEnJM,2020-0188,2020-06-04,11:17:35,11:34:51,NA,incomplete,31,color,1,1,left,Blue_Circle_Stripes_4.jpg,Blue_Triangle_Dots_2.jpg,Green_Plus_Stripes_1.jpg,right,524.0199999997858,false,high,NA,NA,NA,NA,NA,NA,NA,false
j3YKEnJM,3headtgn3s5yqh3y5nncdnm28bcvrm,3gdtjdapvyob59snjolnou4behg8m4,j3YKEnJM,2020-0188,2020-06-04,11:17:35,11:34:51,NA,incomplete,32,color,1,1,left,Red_Plus_Chess_1.jpg,Red_Triangle_Stripes_3.jpg,Green_Circle_Chess_4.jpg,left,475.9699999995064,true,high,NA,NA,NA,NA,NA,NA,NA,false
j3YKEnJM,3headtgn3s5yqh3y5nncdnm28bcvrm,3gdtjdapvyob59snjolnou4behg8m4,j3YKEnJM,2020-0188,2020-06-04,11:17:35,11:34:51,NA,incomplete,33,color,1,1,right,Green_Plus_Grid_3.jpg,Blue_Triangle_Grid_2.jpg,Green_Star_Chess_4.jpg,right,982.5900000005495,true,high,NA,NA,NA,NA,NA,NA,NA,false
j3YKEnJM,3headtgn3s5yqh3y5nncdnm28bcvrm,3gdtjdapvyob59snjolnou4behg8m4,j3YKEnJM,2020-0188,2020-06-04,11:17:35,11:34:51,NA,incomplete,34,color,1,1,right,Blue_Triangle_Dots_4.jpg,Green_Plus_Dots_1.jpg,Blue_Circle_Grid_3.jpg,right,532.3050000006333,true,high,NA,NA,NA,NA,NA,NA,NA,false
j3YKEnJM,3headtgn3s5yqh3y5nncdnm28bcvrm,3gdtjdapvyob59snjolnou4behg8m4,j3YKEnJM,2020-0188,2020-06-04,11:17:35,11:34:51,NA,incomplete,35,color,1,0,left,Green_Star_Chess_2.jpg,Green_Plus_Dots_3.jpg,Purple_Triangle_Chess_1.jpg,left,420.1999999996042,true,high,NA,NA,NA,NA,NA,NA,NA,false
j3YKEnJM,3headtgn3s5yqh3y5nncdnm28bcvrm,3gdtjdapvyob59snjolnou4behg8m4,j3YKEnJM,2020-0188,2020-06-04,11:17:35,11:34:51,NA,incomplete,36,color,1,1,right,Green_Star_Grid_1.jpg,Red_Plus_Grid_2.jpg,Green_Triangle_Chess_3.jpg,right,352.214999999851,true,high,NA,NA,NA,NA,NA,NA,NA,false
j3YKEnJM,3headtgn3s5yqh3y5nncdnm28bcvrm,3gdtjdapvyob59snjolnou4behg8m4,j3YKEnJM,2020-0188,2020-06-04,11:17:35,11:34:51,NA,incomplete,37,color,1,1,right,Red_Triangle_Grid_1.jpg,Green_Star_Grid_4.jpg,Red_Plus_Dots_2.jpg,right,502.83000000030734,true,high,NA,NA,NA,NA,NA,NA,NA,false
j3YKEnJM,3headtgn3s5yqh3y5nncdnm28bcvrm,3gdtjdapvyob59snjolnou4behg8m4,j3YKEnJM,2020-0188,2020-06-04,11:17:35,11:34:51,NA,incomplete,38,color,1,1,left,Purple_Triangle_Chess_2.jpg,Purple_Star_Grid_4.jpg,Red_Circle_Chess_3.jpg,left,415.4950000002282,true,high,NA,NA,NA,NA,NA,NA,NA,false
j3YKEnJM,3headtgn3s5yqh3y5nncdnm28bcvrm,3gdtjdapvyob59snjolnou4behg8m4,j3YKEnJM,2020-0188,2020-06-04,11:17:35,11:34:51,NA,incomplete,39,color,1,1,right,Purple_Star_Stripes_3.jpg,Green_Plus_Stripes_1.jpg,Purple_Circle_Dots_2.jpg,right,420.6999999996042,true,high,NA,NA,NA,NA,NA,NA,NA,false
j3YKEnJM,3headtgn3s5yqh3y5nncdnm28bcvrm,3gdtjdapvyob59snjolnou4behg8m4,j3YKEnJM,2020-0188,2020-06-04,11:17:35,11:34:51,NA,incomplete,40,filling,0,1,left,Purple_Plus_Dots_4.jpg,Green_Star_Dots_1.jpg,Purple_Triangle_Grid_2.jpg,right,520.1950000000652,false,high,NA,NA,NA,NA,NA,NA,NA,false
j3YKEnJM,3headtgn3s5yqh3y5nncdnm28bcvrm,3gdtjdapvyob59snjolnou4behg8m4,j3YKEnJM,2020-0188,2020-06-04,11:17:35,11:34:51,NA,incomplete,41,filling,0,1,right,Blue_Circle_Chess_3.jpg,Blue_Triangle_Stripes_4.jpg,Green_Star_Chess_2.jpg,left,400.1099999996368,false,high,NA,NA,NA,NA,NA,NA,NA,false
j3YKEnJM,3headtgn3s5yqh3y5nncdnm28bcvrm,3gdtjdapvyob59snjolnou4behg8m4,j3YKEnJM,2020-0188,2020-06-04,11:17:35,11:34:51,NA,incomplete,42,filling,0,1,right,Purple_Star_Dots_3.jpg,Purple_Plus_Stripes_4.jpg,Blue_Circle_Dots_1.jpg,left,380.9000000001397,false,high,NA,NA,NA,NA,NA,NA,NA,false
j3YKEnJM,3headtgn3s5yqh3y5nncdnm28bcvrm,3gdtjdapvyob59snjolnou4behg8m4,j3YKEnJM,2020-0188,2020-06-04,11:17:35,11:34:51,NA,incomplete,43,filling,0,1,left,Green_Star_Chess_4.jpg,Red_Circle_Chess_2.jpg,Green_Plus_Dots_3.jpg,right,482.75500000000466,false,high,NA,NA,NA,NA,NA,NA,NA,false
j3YKEnJM,3headtgn3s5yqh3y5nncdnm28bcvrm,3gdtjdapvyob59snjolnou4behg8m4,j3YKEnJM,2020-0188,2020-06-04,11:17:35,11:34:51,NA,incomplete,44,filling,0,1,right,Green_Circle_Chess_2.jpg,Green_Star_Grid_3.jpg,Red_Triangle_Chess_1.jpg,right,428.68499999993946,true,high,NA,NA,NA,NA,NA,NA,NA,false
j3YKEnJM,3headtgn3s5yqh3y5nncdnm28bcvrm,3gdtjdapvyob59snjolnou4behg8m4,j3YKEnJM,2020-0188,2020-06-04,11:17:35,11:34:51,NA,incomplete,45,filling,0,1,left,Green_Circle_Stripes_1.jpg,Red_Plus_Stripes_3.jpg,Green_Triangle_Chess_4.jpg,left,401.1949999993667,true,high,NA,NA,NA,NA,NA,NA,NA,false
j3YKEnJM,3headtgn3s5yqh3y5nncdnm28bcvrm,3gdtjdapvyob59snjolnou4behg8m4,j3YKEnJM,2020-0188,2020-06-04,11:17:35,11:34:51,NA,incomplete,46,filling,0,1,left,Green_Triangle_Grid_3.jpg,Purple_Circle_Grid_1.jpg,Green_Plus_Chess_2.jpg,left,381.3650000002235,true,high,NA,NA,NA,NA,NA,NA,NA,false
j3YKEnJM,3headtgn3s5yqh3y5nncdnm28bcvrm,3gdtjdapvyob59snjolnou4behg8m4,j3YKEnJM,2020-0188,2020-06-04,11:17:35,11:34:51,NA,incomplete,47,filling,0,0,right,Blue_Circle_Dots_4.jpg,Blue_Star_Chess_2.jpg,Red_Triangle_Dots_3.jpg,right,435.4549999998417,true,high,NA,NA,NA,NA,NA,NA,NA,false
j3YKEnJM,3headtgn3s5yqh3y5nncdnm28bcvrm,3gdtjdapvyob59snjolnou4behg8m4,j3YKEnJM,2020-0188,2020-06-04,11:17:35,11:34:51,NA,incomplete,48,filling,0,1,right,Blue_Triangle_Dots_1.jpg,Blue_Plus_Grid_4.jpg,Purple_Circle_Dots_2.jpg,right,542.7750000008382,true,high,NA,NA,NA,NA,NA,NA,NA,false
j3YKEnJM,3headtgn3s5yqh3y5nncdnm28bcvrm,3gdtjdapvyob59snjolnou4behg8m4,j3YKEnJM,2020-0188,2020-06-04,11:17:35,11:34:51,NA,incomplete,49,filling,0,1,left,Blue_Plus_Chess_4.jpg,Green_Triangle_Chess_3.jpg,Blue_Star_Grid_1.jpg,left,526.0250000001397,true,high,NA,NA,NA,NA,NA,NA,NA,false
j3YKEnJM,3headtgn3s5yqh3y5nncdnm28bcvrm,3gdtjdapvyob59snjolnou4behg8m4,j3YKEnJM,2020-0188,2020-06-04,11:17:35,11:34:51,NA,incomplete,50,color,1,1,left,Purple_Triangle_Dots_4.jpg,Purple_Plus_Chess_1.jpg,Red_Star_Dots_2.jpg,right,518.0899999996182,false,high,NA,NA,NA,NA,NA,NA,NA,false
j3YKEnJM,3headtgn3s5yqh3y5nncdnm28bcvrm,3gdtjdapvyob59snjolnou4behg8m4,j3YKEnJM,2020-0188,2020-06-04,11:17:35,11:34:51,NA,incomplete,51,color,1,0,right,Blue_Star_Grid_2.jpg,Red_Triangle_Grid_1.jpg,Blue_Plus_Dots_3.jpg,left,430.57499999937136,false,high,NA,NA,NA,NA,NA,NA,NA,false
j3YKEnJM,3headtgn3s5yqh3y5nncdnm28bcvrm,3gdtjdapvyob59snjolnou4behg8m4,j3YKEnJM,2020-0188,2020-06-04,11:17:35,11:34:51,NA,incomplete,52,color,1,1,left,Purple_Triangle_Dots_1.jpg,Purple_Star_Grid_4.jpg,Green_Circle_Dots_3.jpg,right,554.2100000001956,false,high,NA,NA,NA,NA,NA,NA,NA,false
j3YKEnJM,3headtgn3s5yqh3y5nncdnm28bcvrm,3gdtjdapvyob59snjolnou4behg8m4,j3YKEnJM,2020-0188,2020-06-04,11:17:35,11:34:51,NA,incomplete,53,color,1,0,right,Blue_Star_Grid_2.jpg,Green_Circle_Grid_4.jpg,Blue_Plus_Chess_1.jpg,left,728.8100000005215,false,high,NA,NA,NA,NA,NA,NA,NA,false
j3YKEnJM,3headtgn3s5yqh3y5nncdnm28bcvrm,3gdtjdapvyob59snjolnou4behg8m4,j3YKEnJM,2020-0188,2020-06-04,11:17:35,11:34:51,NA,incomplete,54,color,1,1,left,Purple_Star_Stripes_2.jpg,Purple_Plus_Chess_1.jpg,Red_Triangle_Stripes_4.jpg,right,560.8850000007078,false,high,NA,NA,NA,NA,NA,NA,NA,false
j3YKEnJM,3headtgn3s5yqh3y5nncdnm28bcvrm,3gdtjdapvyob59snjolnou4behg8m4,j3YKEnJM,2020-0188,2020-06-04,11:17:35,11:34:51,NA,incomplete,55,color,1,0,left,Red_Plus_Grid_4.jpg,Red_Circle_Chess_3.jpg,Purple_Star_Grid_1.jpg,right,543.5649999999441,false,high,NA,NA,NA,NA,NA,NA,NA,false
j3YKEnJM,3headtgn3s5yqh3y5nncdnm28bcvrm,3gdtjdapvyob59snjolnou4behg8m4,j3YKEnJM,2020-0188,2020-06-04,11:17:35,11:34:51,NA,incomplete,56,color,1,1,left,Blue_Star_Chess_2.jpg,Blue_Triangle_Dots_1.jpg,Red_Plus_Chess_4.jpg,right,567.4650000000838,false,high,NA,NA,NA,NA,NA,NA,NA,false
j3YKEnJM,3headtgn3s5yqh3y5nncdnm28bcvrm,3gdtjdapvyob59snjolnou4behg8m4,j3YKEnJM,2020-0188,2020-06-04,11:17:35,11:34:51,NA,incomplete,57,color,1,1,left,Green_Triangle_Chess_3.jpg,Green_Plus_Stripes_1.jpg,Red_Star_Chess_4.jpg,right,549.0399999999208,false,high,NA,NA,NA,NA,NA,NA,NA,false
j3YKEnJM,3headtgn3s5yqh3y5nncdnm28bcvrm,3gdtjdapvyob59snjolnou4behg8m4,j3YKEnJM,2020-0188,2020-06-04,11:17:35,11:34:51,NA,incomplete,58,color,1,1,left,Green_Star_Chess_2.jpg,Green_Circle_Stripes_4.jpg,Blue_Plus_Chess_1.jpg,right,524.1800000004005,false,high,NA,NA,NA,NA,NA,NA,NA,false
j3YKEnJM,3headtgn3s5yqh3y5nncdnm28bcvrm,3gdtjdapvyob59snjolnou4behg8m4,j3YKEnJM,2020-0188,2020-06-04,11:17:35,11:34:51,NA,incomplete,59,color,1,1,right,Purple_Circle_Chess_1.jpg,Blue_Plus_Chess_2.jpg,Purple_Triangle_Stripes_3.jpg,left,628.4599999999627,false,high,NA,NA,NA,NA,NA,NA,NA,false
j3YKEnJM,3headtgn3s5yqh3y5nncdnm28bcvrm,3gdtjdapvyob59snjolnou4behg8m4,j3YKEnJM,2020-0188,2020-06-04,11:17:35,11:34:51,NA,incomplete,60,filling,0,1,right,Blue_Star_Grid_2.jpg,Blue_Circle_Dots_1.jpg,Green_Triangle_Grid_3.jpg,left,552.3999999995576,false,high,NA,NA,NA,NA,NA,NA,NA,false
j3YKEnJM,3headtgn3s5yqh3y5nncdnm28bcvrm,3gdtjdapvyob59snjolnou4behg8m4,j3YKEnJM,2020-0188,2020-06-04,11:17:35,11:34:51,NA,incomplete,61,filling,0,1,left,Purple_Triangle_Chess_2.jpg,Blue_Circle_Chess_1.jpg,Purple_Plus_Grid_4.jpg,right,519.5200000007171,false,high,NA,NA,NA,NA,NA,NA,NA,false
j3YKEnJM,3headtgn3s5yqh3y5nncdnm28bcvrm,3gdtjdapvyob59snjolnou4behg8m4,j3YKEnJM,2020-0188,2020-06-04,11:17:35,11:34:51,NA,incomplete,62,filling,0,1,left,Green_Circle_Chess_4.jpg,Blue_Plus_Chess_1.jpg,Green_Star_Stripes_2.jpg,right,519.0599999995902,false,high,NA,NA,NA,NA,NA,NA,NA,false
j3YKEnJM,3headtgn3s5yqh3y5nncdnm28bcvrm,3gdtjdapvyob59snjolnou4behg8m4,j3YKEnJM,2020-0188,2020-06-04,11:17:35,11:34:51,NA,incomplete,63,filling,0,1,right,Green_Circle_Stripes_2.jpg,Green_Star_Dots_3.jpg,Blue_Plus_Stripes_4.jpg,right,535.2050000001909,true,high,NA,NA,NA,NA,NA,NA,NA,false
j3YKEnJM,3headtgn3s5yqh3y5nncdnm28bcvrm,3gdtjdapvyob59snjolnou4behg8m4,j3YKEnJM,2020-0188,2020-06-04,11:17:35,11:34:51,NA,incomplete,64,filling,0,1,right,Blue_Plus_Grid_3.jpg,Blue_Triangle_Chess_2.jpg,Green_Circle_Grid_4.jpg,right,806.5649999998277,true,high,NA,NA,NA,NA,NA,NA,NA,false
j3YKEnJM,3headtgn3s5yqh3y5nncdnm28bcvrm,3gdtjdapvyob59snjolnou4behg8m4,j3YKEnJM,2020-0188,2020-06-04,11:17:35,11:34:51,NA,incomplete,65,filling,0,1,left,Green_Star_Dots_1.jpg,Red_Circle_Dots_4.jpg,Green_Triangle_Stripes_3.jpg,left,587.3149999998277,true,high,NA,NA,NA,NA,NA,NA,NA,false
j3YKEnJM,3headtgn3s5yqh3y5nncdnm28bcvrm,3gdtjdapvyob59snjolnou4behg8m4,j3YKEnJM,2020-0188,2020-06-04,11:17:35,11:34:51,NA,incomplete,66,filling,0,1,right,Green_Star_Chess_3.jpg,Green_Circle_Stripes_2.jpg,Blue_Triangle_Chess_4.jpg,right,457.1950000008801,true,high,NA,NA,NA,NA,NA,NA,NA,false
j3YKEnJM,3headtgn3s5yqh3y5nncdnm28bcvrm,3gdtjdapvyob59snjolnou4behg8m4,j3YKEnJM,2020-0188,2020-06-04,11:17:35,11:34:51,NA,incomplete,67,filling,0,1,left,Blue_Plus_Chess_4.jpg,Red_Circle_Chess_2.jpg,Blue_Triangle_Stripes_3.jpg,left,531.3799999994226,true,high,NA,NA,NA,NA,NA,NA,NA,false
j3YKEnJM,3headtgn3s5yqh3y5nncdnm28bcvrm,3gdtjdapvyob59snjolnou4behg8m4,j3YKEnJM,2020-0188,2020-06-04,11:17:35,11:34:51,NA,incomplete,68,filling,0,1,right,Blue_Plus_Dots_4.jpg,Blue_Circle_Stripes_1.jpg,Green_Triangle_Dots_2.jpg,right,555.3999999993248,true,high,NA,NA,NA,NA,NA,NA,NA,false
j3YKEnJM,3headtgn3s5yqh3y5nncdnm28bcvrm,3gdtjdapvyob59snjolnou4behg8m4,j3YKEnJM,2020-0188,2020-06-04,11:17:35,11:34:51,NA,incomplete,69,filling,0,1,left,Red_Star_Grid_1.jpg,Green_Circle_Grid_2.jpg,Red_Plus_Stripes_4.jpg,right,626.1300000005867,false,high,NA,NA,NA,NA,NA,NA,NA,false
j3YKEnJM,3headtgn3s5yqh3y5nncdnm28bcvrm,3gdtjdapvyob59snjolnou4behg8m4,j3YKEnJM,2020-0188,2020-06-04,11:17:35,11:34:51,NA,incomplete,70,color,1,0,left,Red_Triangle_Stripes_1.jpg,Red_Star_Grid_4.jpg,Purple_Plus_Stripes_3.jpg,right,542.2250000000931,false,high,NA,NA,NA,NA,NA,NA,NA,false
j3YKEnJM,3headtgn3s5yqh3y5nncdnm28bcvrm,3gdtjdapvyob59snjolnou4behg8m4,j3YKEnJM,2020-0188,2020-06-04,11:17:35,11:34:51,NA,incomplete,71,color,1,1,right,Blue_Triangle_Chess_1.jpg,Red_Circle_Chess_3.jpg,Blue_Star_Grid_4.jpg,left,830.1150000006892,false,high,NA,NA,NA,NA,NA,NA,NA,false
j3YKEnJM,3headtgn3s5yqh3y5nncdnm28bcvrm,3gdtjdapvyob59snjolnou4behg8m4,j3YKEnJM,2020-0188,2020-06-04,11:17:35,11:34:51,NA,incomplete,72,color,1,1,left,Green_Star_Stripes_1.jpg,Green_Triangle_Dots_2.jpg,Blue_Circle_Stripes_4.jpg,right,729.5299999995623,false,high,NA,NA,NA,NA,NA,NA,NA,false
j3YKEnJM,3headtgn3s5yqh3y5nncdnm28bcvrm,3gdtjdapvyob59snjolnou4behg8m4,j3YKEnJM,2020-0188,2020-06-04,11:17:35,11:34:51,NA,incomplete,73,color,1,1,left,Purple_Star_Dots_4.jpg,Purple_Plus_Chess_2.jpg,Red_Triangle_Dots_1.jpg,right,521.7299999993993,false,high,NA,NA,NA,NA,NA,NA,NA,false
j3YKEnJM,3headtgn3s5yqh3y5nncdnm28bcvrm,3gdtjdapvyob59snjolnou4behg8m4,j3YKEnJM,2020-0188,2020-06-04,11:17:35,11:34:51,NA,incomplete,74,color,1,1,right,Purple_Circle_Chess_4.jpg,Green_Star_Chess_3.jpg,Purple_Plus_Dots_2.jpg,right,617.7550000002375,true,high,NA,NA,NA,NA,NA,NA,NA,false
j3YKEnJM,3headtgn3s5yqh3y5nncdnm28bcvrm,3gdtjdapvyob59snjolnou4behg8m4,j3YKEnJM,2020-0188,2020-06-04,11:17:35,11:34:51,NA,incomplete,75,color,1,1,right,Green_Star_Chess_1.jpg,Red_Circle_Chess_3.jpg,Green_Triangle_Dots_4.jpg,right,701.8450000005541,true,high,NA,NA,NA,NA,NA,NA,NA,false
j3YKEnJM,3headtgn3s5yqh3y5nncdnm28bcvrm,3gdtjdapvyob59snjolnou4behg8m4,j3YKEnJM,2020-0188,2020-06-04,11:17:35,11:34:51,NA,incomplete,76,color,1,0,right,Green_Star_Grid_1.jpg,Red_Triangle_Grid_4.jpg,Green_Plus_Stripes_3.jpg,right,654.9999999996508,true,high,NA,NA,NA,NA,NA,NA,NA,false
j3YKEnJM,3headtgn3s5yqh3y5nncdnm28bcvrm,3gdtjdapvyob59snjolnou4behg8m4,j3YKEnJM,2020-0188,2020-06-04,11:17:35,11:34:51,NA,incomplete,77,color,1,1,left,Blue_Star_Stripes_3.jpg,Blue_Circle_Grid_4.jpg,Purple_Plus_Stripes_2.jpg,left,441.3099999993574,true,high,NA,NA,NA,NA,NA,NA,NA,false
j3YKEnJM,3headtgn3s5yqh3y5nncdnm28bcvrm,3gdtjdapvyob59snjolnou4behg8m4,j3YKEnJM,2020-0188,2020-06-04,11:17:35,11:34:51,NA,incomplete,78,color,1,1,right,Blue_Triangle_Grid_1.jpg,Purple_Plus_Grid_3.jpg,Blue_Circle_Dots_4.jpg,right,700.7800000001444,true,high,NA,NA,NA,NA,NA,NA,NA,false
j3YKEnJM,3headtgn3s5yqh3y5nncdnm28bcvrm,3gdtjdapvyob59snjolnou4behg8m4,j3YKEnJM,2020-0188,2020-06-04,11:17:35,11:34:51,NA,incomplete,79,color,1,0,left,Red_Star_Stripes_4.jpg,Red_Plus_Chess_1.jpg,Blue_Triangle_Stripes_3.jpg,left,557.3650000005728,true,high,NA,NA,NA,NA,NA,NA,NA,false
j3YKEnJM,3headtgn3s5yqh3y5nncdnm28bcvrm,3gdtjdapvyob59snjolnou4behg8m4,j3YKEnJM,2020-0188,2020-06-04,11:17:35,11:34:51,NA,incomplete,80,filling,0,1,right,Red_Triangle_Dots_4.jpg,Red_Star_Chess_2.jpg,Blue_Circle_Dots_1.jpg,left,492.0950000004377,false,high,NA,NA,NA,NA,NA,NA,NA,false
j3YKEnJM,3headtgn3s5yqh3y5nncdnm28bcvrm,3gdtjdapvyob59snjolnou4behg8m4,j3YKEnJM,2020-0188,2020-06-04,11:17:35,11:34:51,NA,incomplete,81,filling,0,1,right,Purple_Circle_Grid_2.jpg,Purple_Plus_Dots_1.jpg,Green_Star_Grid_4.jpg,right,477.94500000053085,true,high,NA,NA,NA,NA,NA,NA,NA,false
j3YKEnJM,3headtgn3s5yqh3y5nncdnm28bcvrm,3gdtjdapvyob59snjolnou4behg8m4,j3YKEnJM,2020-0188,2020-06-04,11:17:35,11:34:51,NA,incomplete,82,filling,0,1,left,Purple_Plus_Dots_4.jpg,Red_Circle_Dots_3.jpg,Purple_Triangle_Stripes_2.jpg,left,663.4050000002608,true,high,NA,NA,NA,NA,NA,NA,NA,false
j3YKEnJM,3headtgn3s5yqh3y5nncdnm28bcvrm,3gdtjdapvyob59snjolnou4behg8m4,j3YKEnJM,2020-0188,2020-06-04,11:17:35,11:34:51,NA,incomplete,83,filling,0,1,left,Blue_Triangle_Dots_2.jpg,Red_Star_Dots_1.jpg,Blue_Circle_Stripes_4.jpg,left,674.0300000001444,true,high,NA,NA,NA,NA,NA,NA,NA,false
j3YKEnJM,3headtgn3s5yqh3y5nncdnm28bcvrm,3gdtjdapvyob59snjolnou4behg8m4,j3YKEnJM,2020-0188,2020-06-04,11:17:35,11:34:51,NA,incomplete,84,filling,0,1,right,Blue_Plus_Grid_2.jpg,Blue_Triangle_Dots_4.jpg,Red_Star_Grid_1.jpg,right,492.32500000018626,true,high,NA,NA,NA,NA,NA,NA,NA,false
j3YKEnJM,3headtgn3s5yqh3y5nncdnm28bcvrm,3gdtjdapvyob59snjolnou4behg8m4,j3YKEnJM,2020-0188,2020-06-04,11:17:35,11:34:51,NA,incomplete,85,filling,0,1,left,Purple_Star_Grid_1.jpg,Blue_Plus_Grid_4.jpg,Purple_Circle_Stripes_3.jpg,left,541.4950000003446,true,high,NA,NA,NA,NA,NA,NA,NA,false
j3YKEnJM,3headtgn3s5yqh3y5nncdnm28bcvrm,3gdtjdapvyob59snjolnou4behg8m4,j3YKEnJM,2020-0188,2020-06-04,11:17:35,11:34:51,NA,incomplete,86,filling,0,1,right,Purple_Triangle_Chess_2.jpg,Purple_Star_Dots_1.jpg,Green_Plus_Chess_3.jpg,right,525.2750000000233,true,high,NA,NA,NA,NA,NA,NA,NA,false
j3YKEnJM,3headtgn3s5yqh3y5nncdnm28bcvrm,3gdtjdapvyob59snjolnou4behg8m4,j3YKEnJM,2020-0188,2020-06-04,11:17:35,11:34:51,NA,incomplete,87,filling,0,1,left,Red_Triangle_Stripes_4.jpg,Blue_Star_Stripes_2.jpg,Red_Plus_Grid_1.jpg,left,597.0050000005867,true,high,NA,NA,NA,NA,NA,NA,NA,false
j3YKEnJM,3headtgn3s5yqh3y5nncdnm28bcvrm,3gdtjdapvyob59snjolnou4behg8m4,j3YKEnJM,2020-0188,2020-06-04,11:17:35,11:34:51,NA,incomplete,88,filling,0,1,left,Red_Circle_Grid_1.jpg,Green_Triangle_Grid_4.jpg,Red_Plus_Dots_2.jpg,left,698.309999999823,true,high,NA,NA,NA,NA,NA,NA,NA,false
j3YKEnJM,3headtgn3s5yqh3y5nncdnm28bcvrm,3gdtjdapvyob59snjolnou4behg8m4,j3YKEnJM,2020-0188,2020-06-04,11:17:35,11:34:51,NA,incomplete,89,filling,0,1,left,Green_Triangle_Chess_3.jpg,Blue_Plus_Chess_1.jpg,Green_Star_Grid_4.jpg,left,411.65999999968335,true,high,NA,NA,NA,NA,NA,NA,NA,false
j3YKEnJM,3headtgn3s5yqh3y5nncdnm28bcvrm,3gdtjdapvyob59snjolnou4behg8m4,j3YKEnJM,2020-0188,2020-06-04,11:17:35,11:34:51,NA,incomplete,90,color,1,1,right,Red_Star_Grid_2.jpg,Green_Circle_Grid_1.jpg,Red_Plus_Stripes_3.jpg,left,456.28000000026077,false,high,NA,NA,NA,NA,NA,NA,NA,false
j3YKEnJM,3headtgn3s5yqh3y5nncdnm28bcvrm,3gdtjdapvyob59snjolnou4behg8m4,j3YKEnJM,2020-0188,2020-06-04,11:17:35,11:34:51,NA,incomplete,91,color,1,1,right,Blue_Plus_Dots_2.jpg,Green_Star_Dots_1.jpg,Blue_Triangle_Stripes_3.jpg,left,539.4200000001583,false,high,NA,NA,NA,NA,NA,NA,NA,false
j3YKEnJM,3headtgn3s5yqh3y5nncdnm28bcvrm,3gdtjdapvyob59snjolnou4behg8m4,j3YKEnJM,2020-0188,2020-06-04,11:17:35,11:34:51,NA,incomplete,92,color,1,1,right,Purple_Star_Chess_1.jpg,Green_Triangle_Chess_2.jpg,Purple_Plus_Stripes_3.jpg,right,386.2799999996787,true,high,NA,NA,NA,NA,NA,NA,NA,false
j3YKEnJM,3headtgn3s5yqh3y5nncdnm28bcvrm,3gdtjdapvyob59snjolnou4behg8m4,j3YKEnJM,2020-0188,2020-06-04,11:17:35,11:34:51,NA,incomplete,93,color,1,1,right,Purple_Triangle_Dots_2.jpg,Red_Star_Dots_1.jpg,Purple_Circle_Grid_4.jpg,right,399.7300000000978,true,high,NA,NA,NA,NA,NA,NA,NA,false
j3YKEnJM,3headtgn3s5yqh3y5nncdnm28bcvrm,3gdtjdapvyob59snjolnou4behg8m4,j3YKEnJM,2020-0188,2020-06-04,11:17:35,11:34:51,NA,incomplete,94,color,1,1,right,Blue_Star_Grid_2.jpg,Green_Circle_Grid_3.jpg,Blue_Triangle_Stripes_4.jpg,right,349.37499999976717,true,high,NA,NA,NA,NA,NA,NA,NA,false
j3YKEnJM,3headtgn3s5yqh3y5nncdnm28bcvrm,3gdtjdapvyob59snjolnou4behg8m4,j3YKEnJM,2020-0188,2020-06-04,11:17:35,11:34:51,NA,incomplete,95,color,1,1,right,Purple_Star_Grid_3.jpg,Red_Plus_Grid_2.jpg,Purple_Circle_Chess_1.jpg,right,444.2599999993108,true,high,NA,NA,NA,NA,NA,NA,NA,false
j3YKEnJM,3headtgn3s5yqh3y5nncdnm28bcvrm,3gdtjdapvyob59snjolnou4behg8m4,j3YKEnJM,2020-0188,2020-06-04,11:17:35,11:34:51,NA,incomplete,96,color,1,1,right,Blue_Plus_Grid_4.jpg,Purple_Triangle_Grid_3.jpg,Blue_Star_Stripes_1.jpg,right,567.6849999999395,true,high,NA,NA,NA,NA,NA,NA,NA,false
j3YKEnJM,3headtgn3s5yqh3y5nncdnm28bcvrm,3gdtjdapvyob59snjolnou4behg8m4,j3YKEnJM,2020-0188,2020-06-04,11:17:35,11:34:51,NA,incomplete,97,color,1,1,right,Red_Circle_Stripes_3.jpg,Purple_Star_Stripes_2.jpg,Red_Triangle_Chess_4.jpg,right,382.11500000033993,true,high,NA,NA,NA,NA,NA,NA,NA,false
j3YKEnJM,3headtgn3s5yqh3y5nncdnm28bcvrm,3gdtjdapvyob59snjolnou4behg8m4,j3YKEnJM,2020-0188,2020-06-04,11:17:35,11:34:51,NA,incomplete,98,color,1,1,right,Red_Circle_Stripes_4.jpg,Blue_Plus_Stripes_2.jpg,Red_Triangle_Chess_3.jpg,right,363.6399999995483,true,high,NA,NA,NA,NA,NA,NA,NA,false
j3YKEnJM,3headtgn3s5yqh3y5nncdnm28bcvrm,3gdtjdapvyob59snjolnou4behg8m4,j3YKEnJM,2020-0188,2020-06-04,11:17:35,11:34:51,NA,incomplete,99,color,1,1,left,Blue_Star_Dots_1.jpg,Blue_Plus_Chess_3.jpg,Purple_Triangle_Dots_4.jpg,left,410.34000000031665,true,high,NA,NA,NA,NA,NA,NA,NA,false
j3YKEnJM,3headtgn3s5yqh3y5nncdnm28bcvrm,3gdtjdapvyob59snjolnou4behg8m4,j3YKEnJM,2020-0188,2020-06-04,11:17:35,11:34:51,NA,incomplete,100,filling,0,1,right,Purple_Star_Dots_1.jpg,Purple_Plus_Grid_4.jpg,Green_Triangle_Dots_2.jpg,left,382.78000000084285,false,high,NA,NA,NA,NA,NA,NA,NA,false
j3YKEnJM,3headtgn3s5yqh3y5nncdnm28bcvrm,3gdtjdapvyob59snjolnou4behg8m4,j3YKEnJM,2020-0188,2020-06-04,11:17:35,11:34:51,NA,incomplete,101,filling,0,1,left,Purple_Triangle_Stripes_1.jpg,Green_Star_Stripes_4.jpg,Purple_Plus_Chess_3.jpg,right,348.925000000163,false,high,NA,NA,NA,NA,NA,NA,NA,false
j3YKEnJM,3headtgn3s5yqh3y5nncdnm28bcvrm,3gdtjdapvyob59snjolnou4behg8m4,j3YKEnJM,2020-0188,2020-06-04,11:17:35,11:34:51,NA,incomplete,102,filling,0,1,left,Red_Star_Stripes_3.jpg,Purple_Triangle_Stripes_2.jpg,Red_Circle_Chess_1.jpg,right,476.11999999929685,false,high,NA,NA,NA,NA,NA,NA,NA,false
j3YKEnJM,3headtgn3s5yqh3y5nncdnm28bcvrm,3gdtjdapvyob59snjolnou4behg8m4,j3YKEnJM,2020-0188,2020-06-04,11:17:35,11:34:51,NA,incomplete,103,filling,0,1,right,Green_Plus_Stripes_2.jpg,Green_Triangle_Dots_1.jpg,Purple_Star_Stripes_3.jpg,right,414.6199999995297,true,high,NA,NA,NA,NA,NA,NA,NA,false
j3YKEnJM,3headtgn3s5yqh3y5nncdnm28bcvrm,3gdtjdapvyob59snjolnou4behg8m4,j3YKEnJM,2020-0188,2020-06-04,11:17:35,11:34:51,NA,incomplete,104,filling,0,1,left,Red_Circle_Stripes_1.jpg,Green_Triangle_Stripes_2.jpg,Red_Star_Dots_4.jpg,left,514.8450000005541,true,high,NA,NA,NA,NA,NA,NA,NA,false
j3YKEnJM,3headtgn3s5yqh3y5nncdnm28bcvrm,3gdtjdapvyob59snjolnou4behg8m4,j3YKEnJM,2020-0188,2020-06-04,11:17:35,11:34:51,NA,incomplete,105,filling,0,0,right,Purple_Plus_Stripes_1.jpg,Purple_Circle_Chess_4.jpg,Green_Star_Stripes_3.jpg,right,603.5200000006007,true,high,NA,NA,NA,NA,NA,NA,NA,false
j3YKEnJM,3headtgn3s5yqh3y5nncdnm28bcvrm,3gdtjdapvyob59snjolnou4behg8m4,j3YKEnJM,2020-0188,2020-06-04,11:17:35,11:34:51,NA,incomplete,106,filling,0,1,right,Green_Plus_Dots_1.jpg,Green_Circle_Grid_3.jpg,Purple_Triangle_Dots_2.jpg,right,680.2899999993388,true,high,NA,NA,NA,NA,NA,NA,NA,false
j3YKEnJM,3headtgn3s5yqh3y5nncdnm28bcvrm,3gdtjdapvyob59snjolnou4behg8m4,j3YKEnJM,2020-0188,2020-06-04,11:17:35,11:34:51,NA,incomplete,107,filling,0,1,left,Blue_Triangle_Stripes_1.jpg,Green_Circle_Stripes_2.jpg,Blue_Plus_Grid_4.jpg,left,594.2899999999208,true,high,NA,NA,NA,NA,NA,NA,NA,false
j3YKEnJM,3headtgn3s5yqh3y5nncdnm28bcvrm,3gdtjdapvyob59snjolnou4behg8m4,j3YKEnJM,2020-0188,2020-06-04,11:17:35,11:34:51,NA,incomplete,108,filling,0,1,left,Purple_Star_Grid_2.jpg,Blue_Triangle_Grid_1.jpg,Purple_Plus_Dots_3.jpg,left,528.1450000002515,true,high,NA,NA,NA,NA,NA,NA,NA,false
j3YKEnJM,3headtgn3s5yqh3y5nncdnm28bcvrm,3gdtjdapvyob59snjolnou4behg8m4,j3YKEnJM,2020-0188,2020-06-04,11:17:35,11:34:51,NA,incomplete,109,filling,0,1,right,Blue_Star_Dots_4.jpg,Blue_Plus_Stripes_3.jpg,Purple_Circle_Dots_2.jpg,right,479.76000000012573,true,high,NA,NA,NA,NA,NA,NA,NA,false
j3YKEnJM,3headtgn3s5yqh3y5nncdnm28bcvrm,3gdtjdapvyob59snjolnou4behg8m4,j3YKEnJM,2020-0188,2020-06-04,11:17:35,11:34:51,NA,incomplete,110,color,1,0,right,Blue_Plus_Grid_3.jpg,Purple_Triangle_Grid_2.jpg,Blue_Star_Dots_4.jpg,left,505.74000000057276,false,high,NA,NA,NA,NA,NA,NA,NA,false
j3YKEnJM,3headtgn3s5yqh3y5nncdnm28bcvrm,3gdtjdapvyob59snjolnou4behg8m4,j3YKEnJM,2020-0188,2020-06-04,11:17:35,11:34:51,NA,incomplete,111,color,1,1,right,Red_Triangle_Chess_3.jpg,Blue_Plus_Chess_1.jpg,Red_Circle_Grid_4.jpg,left,650.4850000001024,false,high,NA,NA,NA,NA,NA,NA,NA,false
j3YKEnJM,3headtgn3s5yqh3y5nncdnm28bcvrm,3gdtjdapvyob59snjolnou4behg8m4,j3YKEnJM,2020-0188,2020-06-04,11:17:35,11:34:51,NA,incomplete,112,color,1,1,left,Purple_Circle_Dots_3.jpg,Purple_Triangle_Chess_1.jpg,Green_Plus_Dots_4.jpg,right,485.1349999998929,false,high,NA,NA,NA,NA,NA,NA,NA,false
j3YKEnJM,3headtgn3s5yqh3y5nncdnm28bcvrm,3gdtjdapvyob59snjolnou4behg8m4,j3YKEnJM,2020-0188,2020-06-04,11:17:35,11:34:51,NA,incomplete,113,color,1,0,left,Green_Star_Stripes_1.jpg,Green_Plus_Chess_4.jpg,Blue_Circle_Stripes_3.jpg,left,614.9599999998463,true,high,NA,NA,NA,NA,NA,NA,NA,false
j3YKEnJM,3headtgn3s5yqh3y5nncdnm28bcvrm,3gdtjdapvyob59snjolnou4behg8m4,j3YKEnJM,2020-0188,2020-06-04,11:17:35,11:34:51,NA,incomplete,114,color,1,0,left,Red_Plus_Grid_2.jpg,Red_Star_Stripes_4.jpg,Purple_Triangle_Grid_3.jpg,left,451.10999999998603,true,high,NA,NA,NA,NA,NA,NA,NA,false
j3YKEnJM,3headtgn3s5yqh3y5nncdnm28bcvrm,3gdtjdapvyob59snjolnou4behg8m4,j3YKEnJM,2020-0188,2020-06-04,11:17:35,11:34:51,NA,incomplete,115,color,1,1,right,Blue_Circle_Chess_4.jpg,Red_Plus_Chess_3.jpg,Blue_Star_Grid_2.jpg,left,565.7600000003586,false,high,NA,NA,NA,NA,NA,NA,NA,false
j3YKEnJM,3headtgn3s5yqh3y5nncdnm28bcvrm,3gdtjdapvyob59snjolnou4behg8m4,j3YKEnJM,2020-0188,2020-06-04,11:17:35,11:34:51,NA,incomplete,116,color,1,0,left,Red_Star_Dots_1.jpg,Red_Triangle_Stripes_4.jpg,Purple_Circle_Dots_3.jpg,right,476.4899999999907,false,high,NA,NA,NA,NA,NA,NA,NA,false
j3YKEnJM,3headtgn3s5yqh3y5nncdnm28bcvrm,3gdtjdapvyob59snjolnou4behg8m4,j3YKEnJM,2020-0188,2020-06-04,11:17:35,11:34:51,NA,incomplete,117,color,1,0,left,Red_Plus_Chess_4.jpg,Red_Circle_Dots_2.jpg,Green_Star_Chess_1.jpg,right,462.4549999998417,false,high,NA,NA,NA,NA,NA,NA,NA,false
j3YKEnJM,3headtgn3s5yqh3y5nncdnm28bcvrm,3gdtjdapvyob59snjolnou4behg8m4,j3YKEnJM,2020-0188,2020-06-04,11:17:35,11:34:51,NA,incomplete,118,color,1,0,left,Red_Star_Chess_4.jpg,Red_Plus_Grid_2.jpg,Blue_Triangle_Chess_1.jpg,right,393.28999999992084,false,high,NA,NA,NA,NA,NA,NA,NA,false
j3YKEnJM,3headtgn3s5yqh3y5nncdnm28bcvrm,3gdtjdapvyob59snjolnou4behg8m4,j3YKEnJM,2020-0188,2020-06-04,11:17:35,11:34:51,NA,incomplete,119,color,1,0,left,Red_Circle_Grid_2.jpg,Red_Plus_Stripes_1.jpg,Purple_Star_Grid_3.jpg,right,422.99499999999534,false,high,NA,NA,NA,NA,NA,NA,NA,false
j3YKEnJM,3headtgn3s5yqh3y5nncdnm28bcvrm,3gdtjdapvyob59snjolnou4behg8m4,j3YKEnJM,2020-0188,2020-06-04,11:17:35,11:34:51,NA,incomplete,120,gender,2,0,right,C_M_02.jpg,C_F_04.jpg,A_M_12.jpg,NA,NA,NA,high,NA,NA,NA,NA,NA,NA,NA,false
j3YKEnJM,3headtgn3s5yqh3y5nncdnm28bcvrm,3gdtjdapvyob59snjolnou4behg8m4,j3YKEnJM,2020-0188,2020-06-04,11:17:35,11:34:51,NA,incomplete,121,gender,2,1,right,C_F_10.jpg,C_M_14.jpg,A_F_15.jpg,left,781.7300000005635,false,high,NA,NA,NA,NA,NA,NA,NA,false
j3YKEnJM,3headtgn3s5yqh3y5nncdnm28bcvrm,3gdtjdapvyob59snjolnou4behg8m4,j3YKEnJM,2020-0188,2020-06-04,11:17:35,11:34:51,NA,incomplete,122,gender,2,1,right,A_M_06.jpg,A_F_09.jpg,C_M_03.jpg,right,803.8999999999069,true,high,NA,NA,NA,NA,NA,NA,NA,false
j3YKEnJM,3headtgn3s5yqh3y5nncdnm28bcvrm,3gdtjdapvyob59snjolnou4behg8m4,j3YKEnJM,2020-0188,2020-06-04,11:17:35,11:34:51,NA,incomplete,123,gender,2,1,left,C_M_02.jpg,A_M_05.jpg,C_F_06.jpg,left,585.0749999999534,true,high,NA,NA,NA,NA,NA,NA,NA,false
j3YKEnJM,3headtgn3s5yqh3y5nncdnm28bcvrm,3gdtjdapvyob59snjolnou4behg8m4,j3YKEnJM,2020-0188,2020-06-04,11:17:35,11:34:51,NA,incomplete,124,gender,2,0,left,A_M_01.jpg,C_M_13.jpg,A_F_16.jpg,left,709.9449999995995,true,high,NA,NA,NA,NA,NA,NA,NA,false
j3YKEnJM,3headtgn3s5yqh3y5nncdnm28bcvrm,3gdtjdapvyob59snjolnou4behg8m4,j3YKEnJM,2020-0188,2020-06-04,11:17:35,11:34:51,NA,incomplete,125,gender,2,1,left,C_F_16.jpg,A_F_14.jpg,C_M_11.jpg,left,654.7049999998417,true,high,NA,NA,NA,NA,NA,NA,NA,false
j3YKEnJM,3headtgn3s5yqh3y5nncdnm28bcvrm,3gdtjdapvyob59snjolnou4behg8m4,j3YKEnJM,2020-0188,2020-06-04,11:17:35,11:34:51,NA,incomplete,126,gender,2,0,right,A_F_08.jpg,A_M_11.jpg,C_F_02.jpg,right,569.2849999996834,true,high,NA,NA,NA,NA,NA,NA,NA,false
j3YKEnJM,3headtgn3s5yqh3y5nncdnm28bcvrm,3gdtjdapvyob59snjolnou4behg8m4,j3YKEnJM,2020-0188,2020-06-04,11:17:35,11:34:51,NA,incomplete,127,gender,2,1,left,C_M_16.jpg,A_M_14.jpg,C_F_10.jpg,left,743.4649999995017,true,high,NA,NA,NA,NA,NA,NA,NA,false
j3YKEnJM,3headtgn3s5yqh3y5nncdnm28bcvrm,3gdtjdapvyob59snjolnou4behg8m4,j3YKEnJM,2020-0188,2020-06-04,11:17:35,11:34:51,NA,incomplete,128,gender,2,1,left,C_F_12.jpg,A_F_07.jpg,C_M_03.jpg,left,527.3999999999069,true,high,NA,NA,NA,NA,NA,NA,NA,false
j3YKEnJM,3headtgn3s5yqh3y5nncdnm28bcvrm,3gdtjdapvyob59snjolnou4behg8m4,j3YKEnJM,2020-0188,2020-06-04,11:17:35,11:34:51,NA,incomplete,129,gender,2,1,left,C_F_03.jpg,A_F_15.jpg,C_M_06.jpg,left,550.8700000001118,true,high,NA,NA,NA,NA,NA,NA,NA,false
j3YKEnJM,3headtgn3s5yqh3y5nncdnm28bcvrm,3gdtjdapvyob59snjolnou4behg8m4,j3YKEnJM,2020-0188,2020-06-04,11:17:35,11:34:51,NA,incomplete,130,gender,2,1,right,A_M_15.jpg,A_F_10.jpg,C_M_16.jpg,right,733.6500000001397,true,high,NA,NA,NA,NA,NA,NA,NA,false
j3YKEnJM,3headtgn3s5yqh3y5nncdnm28bcvrm,3gdtjdapvyob59snjolnou4behg8m4,j3YKEnJM,2020-0188,2020-06-04,11:17:35,11:34:51,NA,incomplete,131,gender,2,1,right,A_F_07.jpg,A_M_01.jpg,C_F_09.jpg,right,661,true,high,NA,NA,NA,NA,NA,NA,NA,false
j3YKEnJM,3headtgn3s5yqh3y5nncdnm28bcvrm,3gdtjdapvyob59snjolnou4behg8m4,j3YKEnJM,2020-0188,2020-06-04,11:17:35,11:34:51,NA,incomplete,132,gender,2,1,right,C_M_11.jpg,C_F_15.jpg,A_M_02.jpg,right,631.8649999994086,true,high,NA,NA,NA,NA,NA,NA,NA,false
j3YKEnJM,3headtgn3s5yqh3y5nncdnm28bcvrm,3gdtjdapvyob59snjolnou4behg8m4,j3YKEnJM,2020-0188,2020-06-04,11:17:35,11:34:51,NA,incomplete,133,gender,2,1,left,A_M_05.jpg,C_M_01.jpg,A_F_12.jpg,left,548.3150000000605,true,high,NA,NA,NA,NA,NA,NA,NA,false
j3YKEnJM,3headtgn3s5yqh3y5nncdnm28bcvrm,3gdtjdapvyob59snjolnou4behg8m4,j3YKEnJM,2020-0188,2020-06-04,11:17:35,11:34:51,NA,incomplete,134,gender,2,1,right,A_F_06.jpg,A_M_08.jpg,C_F_02.jpg,right,595.2100000004284,true,high,NA,NA,NA,NA,NA,NA,NA,false
j3YKEnJM,3headtgn3s5yqh3y5nncdnm28bcvrm,3gdtjdapvyob59snjolnou4behg8m4,j3YKEnJM,2020-0188,2020-06-04,11:17:35,11:34:51,NA,incomplete,135,gender,2,1,left,C_M_06.jpg,A_M_05.jpg,C_F_07.jpg,left,592.5099999995437,true,high,NA,NA,NA,NA,NA,NA,NA,false
j3YKEnJM,3headtgn3s5yqh3y5nncdnm28bcvrm,3gdtjdapvyob59snjolnou4behg8m4,j3YKEnJM,2020-0188,2020-06-04,11:17:35,11:34:51,NA,incomplete,136,gender,2,1,right,C_M_09.jpg,C_F_05.jpg,A_M_03.jpg,right,638.0250000002561,true,high,NA,NA,NA,NA,NA,NA,NA,false
j3YKEnJM,3headtgn3s5yqh3y5nncdnm28bcvrm,3gdtjdapvyob59snjolnou4behg8m4,j3YKEnJM,2020-0188,2020-06-04,11:17:35,11:34:51,NA,incomplete,137,gender,2,1,right,A_M_03.jpg,A_F_04.jpg,C_M_01.jpg,right,609.3600000004517,true,high,NA,NA,NA,NA,NA,NA,NA,false
j3YKEnJM,3headtgn3s5yqh3y5nncdnm28bcvrm,3gdtjdapvyob59snjolnou4behg8m4,j3YKEnJM,2020-0188,2020-06-04,11:17:35,11:34:51,NA,incomplete,138,gender,2,1,left,C_M_10.jpg,A_M_13.jpg,C_F_11.jpg,left,574.5250000000233,true,high,NA,NA,NA,NA,NA,NA,NA,false
j3YKEnJM,3headtgn3s5yqh3y5nncdnm28bcvrm,3gdtjdapvyob59snjolnou4behg8m4,j3YKEnJM,2020-0188,2020-06-04,11:17:35,11:34:51,NA,incomplete,139,gender,2,1,left,C_F_14.jpg,A_F_12.jpg,C_M_02.jpg,left,524.0400000002701,true,high,NA,NA,NA,NA,NA,NA,NA,false
j3YKEnJM,3headtgn3s5yqh3y5nncdnm28bcvrm,3gdtjdapvyob59snjolnou4behg8m4,j3YKEnJM,2020-0188,2020-06-04,11:17:35,11:34:51,NA,incomplete,140,race,3,1,right,C_M_08.jpg,A_M_14.jpg,C_F_01.jpg,left,580.2899999998044,false,high,NA,NA,NA,NA,NA,NA,NA,false
j3YKEnJM,3headtgn3s5yqh3y5nncdnm28bcvrm,3gdtjdapvyob59snjolnou4behg8m4,j3YKEnJM,2020-0188,2020-06-04,11:17:35,11:34:51,NA,incomplete,141,race,3,1,right,A_F_12.jpg,C_F_04.jpg,A_M_16.jpg,left,610.0900000000838,false,high,NA,NA,NA,NA,NA,NA,NA,false
j3YKEnJM,3headtgn3s5yqh3y5nncdnm28bcvrm,3gdtjdapvyob59snjolnou4behg8m4,j3YKEnJM,2020-0188,2020-06-04,11:17:35,11:34:51,NA,incomplete,142,race,3,1,left,C_M_06.jpg,C_F_08.jpg,A_M_10.jpg,left,807.2649999994319,true,high,NA,NA,NA,NA,NA,NA,NA,false
j3YKEnJM,3headtgn3s5yqh3y5nncdnm28bcvrm,3gdtjdapvyob59snjolnou4behg8m4,j3YKEnJM,2020-0188,2020-06-04,11:17:35,11:34:51,NA,incomplete,143,race,3,1,left,A_F_15.jpg,A_M_11.jpg,C_F_13.jpg,left,732.2099999992643,true,high,NA,NA,NA,NA,NA,NA,NA,false
j3YKEnJM,3headtgn3s5yqh3y5nncdnm28bcvrm,3gdtjdapvyob59snjolnou4behg8m4,j3YKEnJM,2020-0188,2020-06-04,11:17:35,11:34:51,NA,incomplete,144,race,3,1,left,A_F_11.jpg,A_M_15.jpg,C_F_08.jpg,left,771.8049999993527,true,high,NA,NA,NA,NA,NA,NA,NA,false
j3YKEnJM,3headtgn3s5yqh3y5nncdnm28bcvrm,3gdtjdapvyob59snjolnou4behg8m4,j3YKEnJM,2020-0188,2020-06-04,11:17:35,11:34:51,NA,incomplete,145,race,3,1,right,A_M_07.jpg,C_M_11.jpg,A_F_01.jpg,right,817.8399999997346,true,high,NA,NA,NA,NA,NA,NA,NA,false
j3YKEnJM,3headtgn3s5yqh3y5nncdnm28bcvrm,3gdtjdapvyob59snjolnou4behg8m4,j3YKEnJM,2020-0188,2020-06-04,11:17:35,11:34:51,NA,incomplete,146,race,3,0,left,A_F_13.jpg,A_M_11.jpg,C_F_05.jpg,right,813.8800000005867,false,high,NA,NA,NA,NA,NA,NA,NA,false
j3YKEnJM,3headtgn3s5yqh3y5nncdnm28bcvrm,3gdtjdapvyob59snjolnou4behg8m4,j3YKEnJM,2020-0188,2020-06-04,11:17:35,11:34:51,NA,incomplete,147,race,3,1,left,C_M_06.jpg,C_F_16.jpg,A_M_12.jpg,left,994.7950000005076,true,high,NA,NA,NA,NA,NA,NA,NA,false
j3YKEnJM,3headtgn3s5yqh3y5nncdnm28bcvrm,3gdtjdapvyob59snjolnou4behg8m4,j3YKEnJM,2020-0188,2020-06-04,11:17:35,11:34:51,NA,incomplete,148,race,3,1,left,C_M_07.jpg,C_F_12.jpg,A_M_05.jpg,left,848.9000000000233,true,high,NA,NA,NA,NA,NA,NA,NA,false
j3YKEnJM,3headtgn3s5yqh3y5nncdnm28bcvrm,3gdtjdapvyob59snjolnou4behg8m4,j3YKEnJM,2020-0188,2020-06-04,11:17:35,11:34:51,NA,incomplete,149,race,3,1,left,C_F_01.jpg,C_M_06.jpg,A_F_16.jpg,left,907.7649999998976,true,high,NA,NA,NA,NA,NA,NA,NA,false
j3YKEnJM,3headtgn3s5yqh3y5nncdnm28bcvrm,3gdtjdapvyob59snjolnou4behg8m4,j3YKEnJM,2020-0188,2020-06-04,11:17:35,11:34:51,NA,incomplete,150,race,3,1,right,C_F_13.jpg,A_F_01.jpg,C_M_15.jpg,right,748.4850000001024,true,high,NA,NA,NA,NA,NA,NA,NA,false
j3YKEnJM,3headtgn3s5yqh3y5nncdnm28bcvrm,3gdtjdapvyob59snjolnou4behg8m4,j3YKEnJM,2020-0188,2020-06-04,11:17:35,11:34:51,NA,incomplete,151,race,3,1,right,A_M_03.jpg,C_M_13.jpg,A_F_07.jpg,right,1052.094999999972,true,high,NA,NA,NA,NA,NA,NA,NA,false
j3YKEnJM,3headtgn3s5yqh3y5nncdnm28bcvrm,3gdtjdapvyob59snjolnou4behg8m4,j3YKEnJM,2020-0188,2020-06-04,11:17:35,11:34:51,NA,incomplete,152,race,3,0,right,A_M_09.jpg,C_M_11.jpg,A_F_10.jpg,right,886.8800000000047,true,high,NA,NA,NA,NA,NA,NA,NA,false
j3YKEnJM,3headtgn3s5yqh3y5nncdnm28bcvrm,3gdtjdapvyob59snjolnou4behg8m4,j3YKEnJM,2020-0188,2020-06-04,11:17:35,11:34:51,NA,incomplete,153,race,3,1,left,C_M_04.jpg,C_F_02.jpg,A_M_05.jpg,left,801.1049999995157,true,high,NA,NA,NA,NA,NA,NA,NA,false
j3YKEnJM,3headtgn3s5yqh3y5nncdnm28bcvrm,3gdtjdapvyob59snjolnou4behg8m4,j3YKEnJM,2020-0188,2020-06-04,11:17:35,11:34:51,NA,incomplete,154,race,3,1,right,C_M_05.jpg,A_M_01.jpg,C_F_12.jpg,right,1085.1849999999395,true,high,NA,NA,NA,NA,NA,NA,NA,false
j3YKEnJM,3headtgn3s5yqh3y5nncdnm28bcvrm,3gdtjdapvyob59snjolnou4behg8m4,j3YKEnJM,2020-0188,2020-06-04,11:17:35,11:34:51,NA,incomplete,155,race,3,1,right,A_M_08.jpg,C_M_13.jpg,A_F_06.jpg,right,1262.670000000042,true,high,NA,NA,NA,NA,NA,NA,NA,false
j3YKEnJM,3headtgn3s5yqh3y5nncdnm28bcvrm,3gdtjdapvyob59snjolnou4behg8m4,j3YKEnJM,2020-0188,2020-06-04,11:17:35,11:34:51,NA,incomplete,156,race,3,1,left,C_M_06.jpg,C_F_09.jpg,A_M_05.jpg,left,865.5950000002049,true,high,NA,NA,NA,NA,NA,NA,NA,false
j3YKEnJM,3headtgn3s5yqh3y5nncdnm28bcvrm,3gdtjdapvyob59snjolnou4behg8m4,j3YKEnJM,2020-0188,2020-06-04,11:17:35,11:34:51,NA,incomplete,157,race,3,1,left,A_F_01.jpg,A_M_15.jpg,C_F_12.jpg,left,692.535000000149,true,high,NA,NA,NA,NA,NA,NA,NA,false
j3YKEnJM,3headtgn3s5yqh3y5nncdnm28bcvrm,3gdtjdapvyob59snjolnou4behg8m4,j3YKEnJM,2020-0188,2020-06-04,11:17:35,11:34:51,NA,incomplete,158,race,3,1,left,A_M_16.jpg,A_F_03.jpg,C_M_10.jpg,left,830.3450000003213,true,high,NA,NA,NA,NA,NA,NA,NA,false
j3YKEnJM,3headtgn3s5yqh3y5nncdnm28bcvrm,3gdtjdapvyob59snjolnou4behg8m4,j3YKEnJM,2020-0188,2020-06-04,11:17:35,11:34:51,NA,incomplete,159,race,3,1,right,A_F_16.jpg,C_F_02.jpg,A_M_06.jpg,right,833.9100000002654,true,high,NA,NA,NA,NA,NA,NA,NA,false
j3YKEnJM,3headtgn3s5yqh3y5nncdnm28bcvrm,3gdtjdapvyob59snjolnou4behg8m4,j3YKEnJM,2020-0188,2020-06-04,11:17:35,11:34:51,NA,incomplete,160,gender,2,1,right,C_M_09.jpg,C_F_01.jpg,A_M_16.jpg,left,981.3649999996414,false,high,NA,NA,NA,NA,NA,NA,NA,false
j3YKEnJM,3headtgn3s5yqh3y5nncdnm28bcvrm,3gdtjdapvyob59snjolnou4behg8m4,j3YKEnJM,2020-0188,2020-06-04,11:17:35,11:34:51,NA,incomplete,161,gender,2,0,right,C_M_09.jpg,C_F_04.jpg,A_M_08.jpg,left,875.6250000005821,false,high,NA,NA,NA,NA,NA,NA,NA,false
j3YKEnJM,3headtgn3s5yqh3y5nncdnm28bcvrm,3gdtjdapvyob59snjolnou4behg8m4,j3YKEnJM,2020-0188,2020-06-04,11:17:35,11:34:51,NA,incomplete,162,gender,2,1,left,A_M_05.jpg,C_M_09.jpg,A_F_16.jpg,right,885.774999999674,false,high,NA,NA,NA,NA,NA,NA,NA,false
j3YKEnJM,3headtgn3s5yqh3y5nncdnm28bcvrm,3gdtjdapvyob59snjolnou4behg8m4,j3YKEnJM,2020-0188,2020-06-04,11:17:35,11:34:51,NA,incomplete,163,gender,2,1,right,A_M_05.jpg,A_F_11.jpg,C_M_03.jpg,right,847.9399999997113,true,high,NA,NA,NA,NA,NA,NA,NA,false
j3YKEnJM,3headtgn3s5yqh3y5nncdnm28bcvrm,3gdtjdapvyob59snjolnou4behg8m4,j3YKEnJM,2020-0188,2020-06-04,11:17:35,11:34:51,NA,incomplete,164,gender,2,0,right,C_M_16.jpg,C_F_13.jpg,A_M_08.jpg,right,682.6849999997066,true,high,NA,NA,NA,NA,NA,NA,NA,false
j3YKEnJM,3headtgn3s5yqh3y5nncdnm28bcvrm,3gdtjdapvyob59snjolnou4behg8m4,j3YKEnJM,2020-0188,2020-06-04,11:17:35,11:34:51,NA,incomplete,165,gender,2,1,left,C_F_03.jpg,A_F_08.jpg,C_M_01.jpg,left,772.7899999999208,true,high,NA,NA,NA,NA,NA,NA,NA,false
j3YKEnJM,3headtgn3s5yqh3y5nncdnm28bcvrm,3gdtjdapvyob59snjolnou4behg8m4,j3YKEnJM,2020-0188,2020-06-04,11:17:35,11:34:51,NA,incomplete,166,gender,2,1,left,A_M_11.jpg,C_M_10.jpg,A_F_07.jpg,left,698.890000000596,true,high,NA,NA,NA,NA,NA,NA,NA,false
j3YKEnJM,3headtgn3s5yqh3y5nncdnm28bcvrm,3gdtjdapvyob59snjolnou4behg8m4,j3YKEnJM,2020-0188,2020-06-04,11:17:35,11:34:51,NA,incomplete,167,gender,2,0,right,A_M_13.jpg,A_F_02.jpg,C_M_12.jpg,right,660.2099999999627,true,high,NA,NA,NA,NA,NA,NA,NA,false
j3YKEnJM,3headtgn3s5yqh3y5nncdnm28bcvrm,3gdtjdapvyob59snjolnou4behg8m4,j3YKEnJM,2020-0188,2020-06-04,11:17:35,11:34:51,NA,incomplete,168,gender,2,1,right,C_M_07.jpg,C_F_01.jpg,A_M_14.jpg,right,775.4299999995856,true,high,NA,NA,NA,NA,NA,NA,NA,false
j3YKEnJM,3headtgn3s5yqh3y5nncdnm28bcvrm,3gdtjdapvyob59snjolnou4behg8m4,j3YKEnJM,2020-0188,2020-06-04,11:17:35,11:34:51,NA,incomplete,169,gender,2,1,left,C_M_10.jpg,A_M_12.jpg,C_F_11.jpg,left,717.0900000000838,true,high,NA,NA,NA,NA,NA,NA,NA,false
j3YKEnJM,3headtgn3s5yqh3y5nncdnm28bcvrm,3gdtjdapvyob59snjolnou4behg8m4,j3YKEnJM,2020-0188,2020-06-04,11:17:35,11:34:51,NA,incomplete,170,gender,2,0,right,A_F_03.jpg,A_M_11.jpg,C_F_10.jpg,right,613.2349999997532,true,high,NA,NA,NA,NA,NA,NA,NA,false
j3YKEnJM,3headtgn3s5yqh3y5nncdnm28bcvrm,3gdtjdapvyob59snjolnou4behg8m4,j3YKEnJM,2020-0188,2020-06-04,11:17:35,11:34:51,NA,incomplete,171,gender,2,1,left,C_M_09.jpg,A_M_02.jpg,C_F_13.jpg,left,649.9450000000652,true,high,NA,NA,NA,NA,NA,NA,NA,false
j3YKEnJM,3headtgn3s5yqh3y5nncdnm28bcvrm,3gdtjdapvyob59snjolnou4behg8m4,j3YKEnJM,2020-0188,2020-06-04,11:17:35,11:34:51,NA,incomplete,172,gender,2,1,right,C_M_09.jpg,C_F_04.jpg,A_M_05.jpg,right,669.1549999995623,true,high,NA,NA,NA,NA,NA,NA,NA,false
j3YKEnJM,3headtgn3s5yqh3y5nncdnm28bcvrm,3gdtjdapvyob59snjolnou4behg8m4,j3YKEnJM,2020-0188,2020-06-04,11:17:35,11:34:51,NA,incomplete,173,gender,2,1,left,C_M_04.jpg,A_M_10.jpg,C_F_03.jpg,left,607.9499999997206,true,high,NA,NA,NA,NA,NA,NA,NA,false
j3YKEnJM,3headtgn3s5yqh3y5nncdnm28bcvrm,3gdtjdapvyob59snjolnou4behg8m4,j3YKEnJM,2020-0188,2020-06-04,11:17:35,11:34:51,NA,incomplete,174,gender,2,0,right,C_M_02.jpg,C_F_12.jpg,A_M_15.jpg,right,548.0950000000885,true,high,NA,NA,NA,NA,NA,NA,NA,false
j3YKEnJM,3headtgn3s5yqh3y5nncdnm28bcvrm,3gdtjdapvyob59snjolnou4behg8m4,j3YKEnJM,2020-0188,2020-06-04,11:17:35,11:34:51,NA,incomplete,175,gender,2,1,right,A_F_09.jpg,A_M_16.jpg,C_F_02.jpg,right,795.7200000000885,true,high,NA,NA,NA,NA,NA,NA,NA,false
j3YKEnJM,3headtgn3s5yqh3y5nncdnm28bcvrm,3gdtjdapvyob59snjolnou4behg8m4,j3YKEnJM,2020-0188,2020-06-04,11:17:35,11:34:51,NA,incomplete,176,gender,2,1,left,A_F_16.jpg,C_F_13.jpg,A_M_09.jpg,left,704.9550000000745,true,high,NA,NA,NA,NA,NA,NA,NA,false
j3YKEnJM,3headtgn3s5yqh3y5nncdnm28bcvrm,3gdtjdapvyob59snjolnou4behg8m4,j3YKEnJM,2020-0188,2020-06-04,11:17:35,11:34:51,NA,incomplete,177,gender,2,0,right,C_M_09.jpg,C_F_03.jpg,A_M_04.jpg,right,569.6250000001164,true,high,NA,NA,NA,NA,NA,NA,NA,false
j3YKEnJM,3headtgn3s5yqh3y5nncdnm28bcvrm,3gdtjdapvyob59snjolnou4behg8m4,j3YKEnJM,2020-0188,2020-06-04,11:17:35,11:34:51,NA,incomplete,178,gender,2,1,left,C_F_13.jpg,A_F_07.jpg,C_M_08.jpg,left,592.1200000002282,true,high,NA,NA,NA,NA,NA,NA,NA,false
j3YKEnJM,3headtgn3s5yqh3y5nncdnm28bcvrm,3gdtjdapvyob59snjolnou4behg8m4,j3YKEnJM,2020-0188,2020-06-04,11:17:35,11:34:51,NA,incomplete,179,gender,2,0,right,C_F_09.jpg,C_M_06.jpg,A_F_04.jpg,right,628.9299999998184,true,high,NA,NA,NA,NA,NA,NA,NA,false
j3YKEnJM,3headtgn3s5yqh3y5nncdnm28bcvrm,3gdtjdapvyob59snjolnou4behg8m4,j3YKEnJM,2020-0188,2020-06-04,11:17:35,11:34:51,NA,incomplete,180,race,3,1,right,A_F_15.jpg,C_F_10.jpg,A_M_01.jpg,right,777.1149999998743,true,high,NA,NA,NA,NA,NA,NA,NA,false
j3YKEnJM,3headtgn3s5yqh3y5nncdnm28bcvrm,3gdtjdapvyob59snjolnou4behg8m4,j3YKEnJM,2020-0188,2020-06-04,11:17:35,11:34:51,NA,incomplete,181,race,3,1,right,A_M_02.jpg,C_M_11.jpg,A_F_05.jpg,right,767.1549999995623,true,high,NA,NA,NA,NA,NA,NA,NA,false
j3YKEnJM,3headtgn3s5yqh3y5nncdnm28bcvrm,3gdtjdapvyob59snjolnou4behg8m4,j3YKEnJM,2020-0188,2020-06-04,11:17:35,11:34:51,NA,incomplete,182,race,3,1,right,A_M_15.jpg,C_M_01.jpg,A_F_14.jpg,right,677.2650000002468,true,high,NA,NA,NA,NA,NA,NA,NA,false
j3YKEnJM,3headtgn3s5yqh3y5nncdnm28bcvrm,3gdtjdapvyob59snjolnou4behg8m4,j3YKEnJM,2020-0188,2020-06-04,11:17:35,11:34:51,NA,incomplete,183,race,3,0,right,C_F_01.jpg,A_F_10.jpg,C_M_12.jpg,right,695.8999999997905,true,high,NA,NA,NA,NA,NA,NA,NA,false
j3YKEnJM,3headtgn3s5yqh3y5nncdnm28bcvrm,3gdtjdapvyob59snjolnou4behg8m4,j3YKEnJM,2020-0188,2020-06-04,11:17:35,11:34:51,NA,incomplete,184,race,3,1,left,C_M_10.jpg,C_F_07.jpg,A_M_05.jpg,left,768.8149999994785,true,high,NA,NA,NA,NA,NA,NA,NA,false
j3YKEnJM,3headtgn3s5yqh3y5nncdnm28bcvrm,3gdtjdapvyob59snjolnou4behg8m4,j3YKEnJM,2020-0188,2020-06-04,11:17:35,11:34:51,NA,incomplete,185,race,3,1,right,A_F_03.jpg,C_F_05.jpg,A_M_08.jpg,right,655.1899999994785,true,high,NA,NA,NA,NA,NA,NA,NA,false
j3YKEnJM,3headtgn3s5yqh3y5nncdnm28bcvrm,3gdtjdapvyob59snjolnou4behg8m4,j3YKEnJM,2020-0188,2020-06-04,11:17:35,11:34:51,NA,incomplete,186,race,3,1,left,C_M_06.jpg,C_F_10.jpg,A_M_04.jpg,left,705.6799999999348,true,high,NA,NA,NA,NA,NA,NA,NA,false
j3YKEnJM,3headtgn3s5yqh3y5nncdnm28bcvrm,3gdtjdapvyob59snjolnou4behg8m4,j3YKEnJM,2020-0188,2020-06-04,11:17:35,11:34:51,NA,incomplete,187,race,3,1,right,A_M_16.jpg,C_M_04.jpg,A_F_05.jpg,right,682.3499999999767,true,high,NA,NA,NA,NA,NA,NA,NA,false
j3YKEnJM,3headtgn3s5yqh3y5nncdnm28bcvrm,3gdtjdapvyob59snjolnou4behg8m4,j3YKEnJM,2020-0188,2020-06-04,11:17:35,11:34:51,NA,incomplete,188,race,3,0,right,C_F_09.jpg,A_F_13.jpg,C_M_15.jpg,right,813.0099999997765,true,high,NA,NA,NA,NA,NA,NA,NA,false
j3YKEnJM,3headtgn3s5yqh3y5nncdnm28bcvrm,3gdtjdapvyob59snjolnou4behg8m4,j3YKEnJM,2020-0188,2020-06-04,11:17:35,11:34:51,NA,incomplete,189,race,3,1,right,C_M_11.jpg,A_M_14.jpg,C_F_01.jpg,right,745.2999999995809,true,high,NA,NA,NA,NA,NA,NA,NA,false
j3YKEnJM,3headtgn3s5yqh3y5nncdnm28bcvrm,3gdtjdapvyob59snjolnou4behg8m4,j3YKEnJM,2020-0188,2020-06-04,11:17:35,11:34:51,NA,incomplete,190,race,3,0,left,A_F_11.jpg,A_M_04.jpg,C_F_05.jpg,left,984.8250000005355,true,high,NA,NA,NA,NA,NA,NA,NA,false
j3YKEnJM,3headtgn3s5yqh3y5nncdnm28bcvrm,3gdtjdapvyob59snjolnou4behg8m4,j3YKEnJM,2020-0188,2020-06-04,11:17:35,11:34:51,NA,incomplete,191,race,3,1,right,C_F_12.jpg,A_F_03.jpg,C_M_01.jpg,left,766.2199999995064,false,high,NA,NA,NA,NA,NA,NA,NA,false
j3YKEnJM,3headtgn3s5yqh3y5nncdnm28bcvrm,3gdtjdapvyob59snjolnou4behg8m4,j3YKEnJM,2020-0188,2020-06-04,11:17:35,11:34:51,NA,incomplete,192,race,3,1,right,A_F_04.jpg,C_F_01.jpg,A_M_10.jpg,left,685.0400000003865,false,high,NA,NA,NA,NA,NA,NA,NA,false
j3YKEnJM,3headtgn3s5yqh3y5nncdnm28bcvrm,3gdtjdapvyob59snjolnou4behg8m4,j3YKEnJM,2020-0188,2020-06-04,11:17:35,11:34:51,NA,incomplete,193,race,3,1,left,A_M_08.jpg,A_F_11.jpg,C_M_03.jpg,left,686.984999999404,true,high,NA,NA,NA,NA,NA,NA,NA,false
j3YKEnJM,3headtgn3s5yqh3y5nncdnm28bcvrm,3gdtjdapvyob59snjolnou4behg8m4,j3YKEnJM,2020-0188,2020-06-04,11:17:35,11:34:51,NA,incomplete,194,race,3,1,left,A_M_15.jpg,A_F_09.jpg,C_M_06.jpg,left,735.7350000002189,true,high,NA,NA,NA,NA,NA,NA,NA,false
j3YKEnJM,3headtgn3s5yqh3y5nncdnm28bcvrm,3gdtjdapvyob59snjolnou4behg8m4,j3YKEnJM,2020-0188,2020-06-04,11:17:35,11:34:51,NA,incomplete,195,race,3,1,right,A_F_02.jpg,C_F_01.jpg,A_M_05.jpg,left,711.1750000003958,false,high,NA,NA,NA,NA,NA,NA,NA,false
j3YKEnJM,3headtgn3s5yqh3y5nncdnm28bcvrm,3gdtjdapvyob59snjolnou4behg8m4,j3YKEnJM,2020-0188,2020-06-04,11:17:35,11:34:51,NA,incomplete,196,race,3,0,right,C_M_12.jpg,A_M_16.jpg,C_F_03.jpg,right,703.9549999999581,true,high,NA,NA,NA,NA,NA,NA,NA,false
j3YKEnJM,3headtgn3s5yqh3y5nncdnm28bcvrm,3gdtjdapvyob59snjolnou4behg8m4,j3YKEnJM,2020-0188,2020-06-04,11:17:35,11:34:51,NA,incomplete,197,race,3,1,left,C_M_14.jpg,C_F_16.jpg,A_M_13.jpg,left,744.8199999999488,true,high,NA,NA,NA,NA,NA,NA,NA,false
j3YKEnJM,3headtgn3s5yqh3y5nncdnm28bcvrm,3gdtjdapvyob59snjolnou4behg8m4,j3YKEnJM,2020-0188,2020-06-04,11:17:35,11:34:51,NA,incomplete,198,race,3,1,right,A_F_03.jpg,C_F_14.jpg,A_M_11.jpg,right,817.0049999998882,true,high,NA,NA,NA,NA,NA,NA,NA,false
j3YKEnJM,3headtgn3s5yqh3y5nncdnm28bcvrm,3gdtjdapvyob59snjolnou4behg8m4,j3YKEnJM,2020-0188,2020-06-04,11:17:35,11:34:51,NA,incomplete,199,race,3,1,left,C_F_13.jpg,C_M_07.jpg,A_F_14.jpg,left,828.3249999994878,true,high,NA,NA,NA,NA,NA,NA,NA,false
j3YKEnJM,3headtgn3s5yqh3y5nncdnm28bcvrm,3gdtjdapvyob59snjolnou4behg8m4,j3YKEnJM,2020-0188,2020-06-04,11:17:35,11:34:51,NA,incomplete,200,gender,2,1,left,C_F_02.jpg,A_F_01.jpg,C_M_06.jpg,right,904.4000000003725,false,high,NA,NA,NA,NA,NA,NA,NA,false
j3YKEnJM,3headtgn3s5yqh3y5nncdnm28bcvrm,3gdtjdapvyob59snjolnou4behg8m4,j3YKEnJM,2020-0188,2020-06-04,11:17:35,11:34:51,NA,incomplete,201,gender,2,0,right,C_F_08.jpg,C_M_06.jpg,A_F_02.jpg,left,681.2850000006147,false,high,NA,NA,NA,NA,NA,NA,NA,false
j3YKEnJM,3headtgn3s5yqh3y5nncdnm28bcvrm,3gdtjdapvyob59snjolnou4behg8m4,j3YKEnJM,2020-0188,2020-06-04,11:17:35,11:34:51,NA,incomplete,202,gender,2,1,right,A_M_06.jpg,A_F_03.jpg,C_M_01.jpg,left,667.2950000002747,false,high,NA,NA,NA,NA,NA,NA,NA,false
j3YKEnJM,3headtgn3s5yqh3y5nncdnm28bcvrm,3gdtjdapvyob59snjolnou4behg8m4,j3YKEnJM,2020-0188,2020-06-04,11:17:35,11:34:51,NA,incomplete,203,gender,2,1,right,A_F_01.jpg,A_M_07.jpg,C_F_02.jpg,right,653.9299999994691,true,high,NA,NA,NA,NA,NA,NA,NA,false
j3YKEnJM,3headtgn3s5yqh3y5nncdnm28bcvrm,3gdtjdapvyob59snjolnou4behg8m4,j3YKEnJM,2020-0188,2020-06-04,11:17:35,11:34:51,NA,incomplete,204,gender,2,0,right,C_M_07.jpg,C_F_16.jpg,A_M_03.jpg,right,648.0750000000698,true,high,NA,NA,NA,NA,NA,NA,NA,false
j3YKEnJM,3headtgn3s5yqh3y5nncdnm28bcvrm,3gdtjdapvyob59snjolnou4behg8m4,j3YKEnJM,2020-0188,2020-06-04,11:17:35,11:34:51,NA,incomplete,205,gender,2,1,right,C_F_06.jpg,C_M_07.jpg,A_F_04.jpg,right,707.6150000002235,true,high,NA,NA,NA,NA,NA,NA,NA,false
j3YKEnJM,3headtgn3s5yqh3y5nncdnm28bcvrm,3gdtjdapvyob59snjolnou4behg8m4,j3YKEnJM,2020-0188,2020-06-04,11:17:35,11:34:51,NA,incomplete,206,gender,2,1,right,C_F_12.jpg,C_M_06.jpg,A_F_07.jpg,right,1092.300000000163,true,high,NA,NA,NA,NA,NA,NA,NA,false
j3YKEnJM,3headtgn3s5yqh3y5nncdnm28bcvrm,3gdtjdapvyob59snjolnou4behg8m4,j3YKEnJM,2020-0188,2020-06-04,11:17:35,11:34:51,NA,incomplete,207,gender,2,1,right,A_F_12.jpg,A_M_11.jpg,C_F_08.jpg,right,645.819999999716,true,high,NA,NA,NA,NA,NA,NA,NA,false
j3YKEnJM,3headtgn3s5yqh3y5nncdnm28bcvrm,3gdtjdapvyob59snjolnou4behg8m4,j3YKEnJM,2020-0188,2020-06-04,11:17:35,11:34:51,NA,incomplete,208,gender,2,1,left,A_F_11.jpg,C_F_02.jpg,A_M_03.jpg,left,545.7150000002002,true,high,NA,NA,NA,NA,NA,NA,NA,false
j3YKEnJM,3headtgn3s5yqh3y5nncdnm28bcvrm,3gdtjdapvyob59snjolnou4behg8m4,j3YKEnJM,2020-0188,2020-06-04,11:17:35,11:34:51,NA,incomplete,209,gender,2,1,right,C_F_14.jpg,C_M_13.jpg,A_F_08.jpg,right,592.5550000001676,true,high,NA,NA,NA,NA,NA,NA,NA,false
j3YKEnJM,3headtgn3s5yqh3y5nncdnm28bcvrm,3gdtjdapvyob59snjolnou4behg8m4,j3YKEnJM,2020-0188,2020-06-04,11:17:35,11:34:51,NA,incomplete,210,gender,2,1,right,A_M_12.jpg,A_F_02.jpg,C_M_14.jpg,left,573.8700000002282,false,high,NA,NA,NA,NA,NA,NA,NA,false
j3YKEnJM,3headtgn3s5yqh3y5nncdnm28bcvrm,3gdtjdapvyob59snjolnou4behg8m4,j3YKEnJM,2020-0188,2020-06-04,11:17:35,11:34:51,NA,incomplete,211,gender,2,1,right,A_M_06.jpg,A_F_12.jpg,C_M_14.jpg,right,707.9599999997299,true,high,NA,NA,NA,NA,NA,NA,NA,false
j3YKEnJM,3headtgn3s5yqh3y5nncdnm28bcvrm,3gdtjdapvyob59snjolnou4behg8m4,j3YKEnJM,2020-0188,2020-06-04,11:17:35,11:34:51,NA,incomplete,212,gender,2,1,right,A_M_16.jpg,A_F_06.jpg,C_M_12.jpg,right,668.7149999997346,true,high,NA,NA,NA,NA,NA,NA,NA,false
j3YKEnJM,3headtgn3s5yqh3y5nncdnm28bcvrm,3gdtjdapvyob59snjolnou4behg8m4,j3YKEnJM,2020-0188,2020-06-04,11:17:35,11:34:51,NA,incomplete,213,gender,2,1,left,A_F_04.jpg,C_F_02.jpg,A_M_16.jpg,left,463.3700000003446,true,high,NA,NA,NA,NA,NA,NA,NA,false
j3YKEnJM,3headtgn3s5yqh3y5nncdnm28bcvrm,3gdtjdapvyob59snjolnou4behg8m4,j3YKEnJM,2020-0188,2020-06-04,11:17:35,11:34:51,NA,incomplete,214,gender,2,1,right,C_F_16.jpg,C_M_13.jpg,A_F_14.jpg,right,881.765000000014,true,high,NA,NA,NA,NA,NA,NA,NA,false
j3YKEnJM,3headtgn3s5yqh3y5nncdnm28bcvrm,3gdtjdapvyob59snjolnou4behg8m4,j3YKEnJM,2020-0188,2020-06-04,11:17:35,11:34:51,NA,incomplete,215,gender,2,0,right,C_F_08.jpg,C_M_04.jpg,A_F_05.jpg,right,563.7049999994924,true,high,NA,NA,NA,NA,NA,NA,NA,false
j3YKEnJM,3headtgn3s5yqh3y5nncdnm28bcvrm,3gdtjdapvyob59snjolnou4behg8m4,j3YKEnJM,2020-0188,2020-06-04,11:17:35,11:34:51,NA,incomplete,216,gender,2,1,right,A_F_13.jpg,A_M_06.jpg,C_F_12.jpg,right,538.2600000002421,true,high,NA,NA,NA,NA,NA,NA,NA,false
j3YKEnJM,3headtgn3s5yqh3y5nncdnm28bcvrm,3gdtjdapvyob59snjolnou4behg8m4,j3YKEnJM,2020-0188,2020-06-04,11:17:35,11:34:51,NA,incomplete,217,gender,2,0,left,C_F_06.jpg,A_F_10.jpg,C_M_05.jpg,left,521.6849999997066,true,high,NA,NA,NA,NA,NA,NA,NA,false
j3YKEnJM,3headtgn3s5yqh3y5nncdnm28bcvrm,3gdtjdapvyob59snjolnou4behg8m4,j3YKEnJM,2020-0188,2020-06-04,11:17:35,11:34:51,NA,incomplete,218,gender,2,1,right,C_F_03.jpg,C_M_08.jpg,A_F_07.jpg,right,978.1899999998277,true,high,NA,NA,NA,NA,NA,NA,NA,false
j3YKEnJM,3headtgn3s5yqh3y5nncdnm28bcvrm,3gdtjdapvyob59snjolnou4behg8m4,j3YKEnJM,2020-0188,2020-06-04,11:17:35,11:34:51,NA,incomplete,219,gender,2,0,right,A_F_03.jpg,A_M_11.jpg,C_F_12.jpg,right,615.8599999998696,true,high,NA,NA,NA,NA,NA,NA,NA,false
j3YKEnJM,3headtgn3s5yqh3y5nncdnm28bcvrm,3gdtjdapvyob59snjolnou4behg8m4,j3YKEnJM,2020-0188,2020-06-04,11:17:35,11:34:51,NA,incomplete,220,race,3,1,right,A_M_01.jpg,C_M_11.jpg,A_F_06.jpg,right,1292.6649999999208,true,high,NA,NA,NA,NA,NA,NA,NA,false
j3YKEnJM,3headtgn3s5yqh3y5nncdnm28bcvrm,3gdtjdapvyob59snjolnou4behg8m4,j3YKEnJM,2020-0188,2020-06-04,11:17:35,11:34:51,NA,incomplete,221,race,3,0,right,C_F_11.jpg,A_F_06.jpg,C_M_09.jpg,right,718.2100000000792,true,high,NA,NA,NA,NA,NA,NA,NA,false
j3YKEnJM,3headtgn3s5yqh3y5nncdnm28bcvrm,3gdtjdapvyob59snjolnou4behg8m4,j3YKEnJM,2020-0188,2020-06-04,11:17:35,11:34:51,NA,incomplete,222,race,3,1,right,A_M_11.jpg,C_M_04.jpg,A_F_14.jpg,right,910.4150000002701,true,high,NA,NA,NA,NA,NA,NA,NA,false
j3YKEnJM,3headtgn3s5yqh3y5nncdnm28bcvrm,3gdtjdapvyob59snjolnou4behg8m4,j3YKEnJM,2020-0188,2020-06-04,11:17:35,11:34:51,NA,incomplete,223,race,3,1,left,A_M_15.jpg,A_F_09.jpg,C_M_14.jpg,left,1031.609999999986,true,high,NA,NA,NA,NA,NA,NA,NA,false
j3YKEnJM,3headtgn3s5yqh3y5nncdnm28bcvrm,3gdtjdapvyob59snjolnou4behg8m4,j3YKEnJM,2020-0188,2020-06-04,11:17:35,11:34:51,NA,incomplete,224,race,3,0,left,A_F_07.jpg,A_M_03.jpg,C_F_05.jpg,left,715.2850000002654,true,high,NA,NA,NA,NA,NA,NA,NA,false
j3YKEnJM,3headtgn3s5yqh3y5nncdnm28bcvrm,3gdtjdapvyob59snjolnou4behg8m4,j3YKEnJM,2020-0188,2020-06-04,11:17:35,11:34:51,NA,incomplete,225,race,3,1,right,A_M_08.jpg,C_M_14.jpg,A_F_07.jpg,right,668.0799999994924,true,high,NA,NA,NA,NA,NA,NA,NA,false
j3YKEnJM,3headtgn3s5yqh3y5nncdnm28bcvrm,3gdtjdapvyob59snjolnou4behg8m4,j3YKEnJM,2020-0188,2020-06-04,11:17:35,11:34:51,NA,incomplete,226,race,3,1,left,A_M_03.jpg,A_F_07.jpg,C_M_13.jpg,left,662.1100000001024,true,high,NA,NA,NA,NA,NA,NA,NA,false
j3YKEnJM,3headtgn3s5yqh3y5nncdnm28bcvrm,3gdtjdapvyob59snjolnou4behg8m4,j3YKEnJM,2020-0188,2020-06-04,11:17:35,11:34:51,NA,incomplete,227,race,3,1,right,C_M_16.jpg,A_M_12.jpg,C_F_02.jpg,right,848.8999999999069,true,high,NA,NA,NA,NA,NA,NA,NA,false
j3YKEnJM,3headtgn3s5yqh3y5nncdnm28bcvrm,3gdtjdapvyob59snjolnou4behg8m4,j3YKEnJM,2020-0188,2020-06-04,11:17:35,11:34:51,NA,incomplete,228,race,3,1,left,A_F_03.jpg,A_M_07.jpg,C_F_12.jpg,left,556.789999999688,true,high,NA,NA,NA,NA,NA,NA,NA,false
j3YKEnJM,3headtgn3s5yqh3y5nncdnm28bcvrm,3gdtjdapvyob59snjolnou4behg8m4,j3YKEnJM,2020-0188,2020-06-04,11:17:35,11:34:51,NA,incomplete,229,race,3,1,right,A_F_01.jpg,C_F_03.jpg,A_M_07.jpg,right,650.9999999998836,true,high,NA,NA,NA,NA,NA,NA,NA,false
j3YKEnJM,3headtgn3s5yqh3y5nncdnm28bcvrm,3gdtjdapvyob59snjolnou4behg8m4,j3YKEnJM,2020-0188,2020-06-04,11:17:35,11:34:51,NA,incomplete,230,race,3,1,left,C_M_15.jpg,C_F_05.jpg,A_M_16.jpg,left,645.8000000002794,true,high,NA,NA,NA,NA,NA,NA,NA,false
j3YKEnJM,3headtgn3s5yqh3y5nncdnm28bcvrm,3gdtjdapvyob59snjolnou4behg8m4,j3YKEnJM,2020-0188,2020-06-04,11:17:35,11:34:51,NA,incomplete,231,race,3,1,left,A_M_13.jpg,A_F_02.jpg,C_M_11.jpg,left,625.1149999998743,true,high,NA,NA,NA,NA,NA,NA,NA,false
j3YKEnJM,3headtgn3s5yqh3y5nncdnm28bcvrm,3gdtjdapvyob59snjolnou4behg8m4,j3YKEnJM,2020-0188,2020-06-04,11:17:35,11:34:51,NA,incomplete,232,race,3,1,left,A_M_04.jpg,A_F_01.jpg,C_M_10.jpg,left,589.0849999996135,true,high,NA,NA,NA,NA,NA,NA,NA,false
j3YKEnJM,3headtgn3s5yqh3y5nncdnm28bcvrm,3gdtjdapvyob59snjolnou4behg8m4,j3YKEnJM,2020-0188,2020-06-04,11:17:35,11:34:51,NA,incomplete,233,race,3,1,left,C_M_09.jpg,C_F_15.jpg,A_M_03.jpg,left,594.9999999993015,true,high,NA,NA,NA,NA,NA,NA,NA,false
j3YKEnJM,3headtgn3s5yqh3y5nncdnm28bcvrm,3gdtjdapvyob59snjolnou4behg8m4,j3YKEnJM,2020-0188,2020-06-04,11:17:35,11:34:51,NA,incomplete,234,race,3,0,right,C_M_02.jpg,A_M_11.jpg,C_F_12.jpg,right,583.9850000001024,true,high,NA,NA,NA,NA,NA,NA,NA,false
j3YKEnJM,3headtgn3s5yqh3y5nncdnm28bcvrm,3gdtjdapvyob59snjolnou4behg8m4,j3YKEnJM,2020-0188,2020-06-04,11:17:35,11:34:51,NA,incomplete,235,race,3,1,right,A_M_05.jpg,C_M_16.jpg,A_F_01.jpg,right,501.3099999995902,true,high,NA,NA,NA,NA,NA,NA,NA,false
j3YKEnJM,3headtgn3s5yqh3y5nncdnm28bcvrm,3gdtjdapvyob59snjolnou4behg8m4,j3YKEnJM,2020-0188,2020-06-04,11:17:35,11:34:51,NA,incomplete,236,race,3,1,left,C_F_11.jpg,C_M_09.jpg,A_F_13.jpg,left,565.8850000000093,true,high,NA,NA,NA,NA,NA,NA,NA,false
j3YKEnJM,3headtgn3s5yqh3y5nncdnm28bcvrm,3gdtjdapvyob59snjolnou4behg8m4,j3YKEnJM,2020-0188,2020-06-04,11:17:35,11:34:51,NA,incomplete,237,race,3,1,left,A_F_04.jpg,A_M_01.jpg,C_F_09.jpg,right,876.7099999996135,false,high,NA,NA,NA,NA,NA,NA,NA,false
j3YKEnJM,3headtgn3s5yqh3y5nncdnm28bcvrm,3gdtjdapvyob59snjolnou4behg8m4,j3YKEnJM,2020-0188,2020-06-04,11:17:35,11:34:51,NA,incomplete,238,race,3,1,right,A_M_08.jpg,C_M_09.jpg,A_F_12.jpg,right,599.2699999996694,true,high,NA,NA,NA,NA,NA,NA,NA,false
j3YKEnJM,3headtgn3s5yqh3y5nncdnm28bcvrm,3gdtjdapvyob59snjolnou4behg8m4,j3YKEnJM,2020-0188,2020-06-04,11:17:35,11:34:51,NA,incomplete,239,race,3,1,right,C_F_09.jpg,A_F_08.jpg,C_M_03.jpg,right,732.2199999998556,true,high,NA,NA,NA,NA,NA,NA,NA,false
j3YKEnJM,3headtgn3s5yqh3y5nncdnm28bcvrm,3gdtjdapvyob59snjolnou4behg8m4,j3YKEnJM,2020-0188,2020-06-04,11:17:35,11:34:51,NA,NA,instruction example,filling,NA,NA,NA,Blue_Star_Dots_2.jpg,Purple_Triangle_Dots_4.jpg,Blue_Plus_Grid_3.jpg,NA,NA,NA,NA,NA,NA,NA,NA,NA,NA,NA,undefined
j3YKEnJM,3headtgn3s5yqh3y5nncdnm28bcvrm,3gdtjdapvyob59snjolnou4behg8m4,j3YKEnJM,2020-0188,2020-06-04,11:17:35,11:34:51,NA,NA,instruction example,filling,NA,NA,NA,Blue_Star_Chess_4.jpg,Blue_Plus_Stripes_3.jpg,Red_Triangle_Chess_2.jpg,NA,NA,NA,NA,NA,NA,NA,NA,NA,NA,NA,undefined
j3YKEnJM,3headtgn3s5yqh3y5nncdnm28bcvrm,3gdtjdapvyob59snjolnou4behg8m4,j3YKEnJM,2020-0188,2020-06-04,11:17:35,11:34:51,NA,NA,instruction example,filling,NA,NA,NA,C_F_01.jpg,A_F_11.jpg,C_M_08.jpg,NA,NA,NA,NA,NA,NA,NA,NA,NA,NA,NA,undefined
j3YKEnJM,3headtgn3s5yqh3y5nncdnm28bcvrm,3gdtjdapvyob59snjolnou4behg8m4,j3YKEnJM,2020-0188,2020-06-04,11:17:35,11:34:51,NA,NA,instruction example,filling,NA,NA,NA,C_M_09.jpg,C_F_10.jpg,A_M_01.jpg,NA,NA,NA,NA,NA,NA,NA,NA,NA,NA,NA,undefined
j3YKEnJM,3headtgn3s5yqh3y5nncdnm28bcvrm,3gdtjdapvyob59snjolnou4behg8m4,j3YKEnJM,2020-0188,2020-06-04,11:17:35,11:34:51,1024391.4500000005,1037560.4749999997,NA,NA,NA,NA,NA,NA,NA,NA,NA,NA,NA,NA,29,White/Caucasian,Male,White,no,yes,no,undefined
