workerId,hitId,assignmentId,subject,studyid,exp_date,exp_start,exp_end,time_start,time_end,trial,type,sequence,reward_validity,answer,image_top,image_left,image_right,response,response_time,response_acc,volatility,age,race,gender,ethnicity,color,vision,neuro,practice
Hml3iLk2,3ba7sxog2m30f57lxuc2l92uxdc8rv,3gs6s824suasds95tsgtfpwx1f0nw7,Hml3iLk2,2020-0188,2020-06-04,08:09:22,08:30:40,NA,incomplete,0,shape,0,1,right,Blue_Circle_Grid_4.jpg,Blue_Triangle_Chess_1.jpg,Purple_Circle_Dots_2.jpg,right,1432.8199999872595,true,NA,NA,NA,NA,NA,NA,NA,NA,true
Hml3iLk2,3ba7sxog2m30f57lxuc2l92uxdc8rv,3gs6s824suasds95tsgtfpwx1f0nw7,Hml3iLk2,2020-0188,2020-06-04,08:09:22,08:30:40,NA,incomplete,1,shape,0,1,right,Blue_Star_Grid_2.jpg,Blue_Circle_Stripes_4.jpg,Purple_Star_Dots_1.jpg,right,1208.3300000522286,true,NA,NA,NA,NA,NA,NA,NA,NA,true
Hml3iLk2,3ba7sxog2m30f57lxuc2l92uxdc8rv,3gs6s824suasds95tsgtfpwx1f0nw7,Hml3iLk2,2020-0188,2020-06-04,08:09:22,08:30:40,NA,incomplete,2,shape,0,0,left,Red_Circle_Dots_4.jpg,Purple_Circle_Stripes_3.jpg,Red_Star_Grid_2.jpg,left,1140.7599999802187,true,NA,NA,NA,NA,NA,NA,NA,NA,true
Hml3iLk2,3ba7sxog2m30f57lxuc2l92uxdc8rv,3gs6s824suasds95tsgtfpwx1f0nw7,Hml3iLk2,2020-0188,2020-06-04,08:09:22,08:30:40,NA,incomplete,3,shape,0,1,left,Green_Circle_Stripes_2.jpg,Red_Circle_Dots_3.jpg,Green_Triangle_Chess_1.jpg,left,1224.945000023581,true,NA,NA,NA,NA,NA,NA,NA,NA,true
Hml3iLk2,3ba7sxog2m30f57lxuc2l92uxdc8rv,3gs6s824suasds95tsgtfpwx1f0nw7,Hml3iLk2,2020-0188,2020-06-04,08:09:22,08:30:40,NA,incomplete,4,shape,0,1,right,Red_Triangle_Chess_2.jpg,Red_Plus_Dots_3.jpg,Blue_Triangle_Grid_1.jpg,right,990.0599999818951,true,NA,NA,NA,NA,NA,NA,NA,NA,true
Hml3iLk2,3ba7sxog2m30f57lxuc2l92uxdc8rv,3gs6s824suasds95tsgtfpwx1f0nw7,Hml3iLk2,2020-0188,2020-06-04,08:09:22,08:30:40,NA,incomplete,5,shape,0,1,right,Blue_Plus_Stripes_4.jpg,Blue_Star_Dots_2.jpg,Purple_Plus_Chess_3.jpg,right,1464.2450000392273,true,NA,NA,NA,NA,NA,NA,NA,NA,true
Hml3iLk2,3ba7sxog2m30f57lxuc2l92uxdc8rv,3gs6s824suasds95tsgtfpwx1f0nw7,Hml3iLk2,2020-0188,2020-06-04,08:09:22,08:30:40,NA,incomplete,6,shape,0,0,left,Green_Circle_Stripes_4.jpg,Red_Circle_Chess_3.jpg,Green_Star_Grid_2.jpg,left,1082.9200000735,true,NA,NA,NA,NA,NA,NA,NA,NA,true
Hml3iLk2,3ba7sxog2m30f57lxuc2l92uxdc8rv,3gs6s824suasds95tsgtfpwx1f0nw7,Hml3iLk2,2020-0188,2020-06-04,08:09:22,08:30:40,NA,incomplete,7,shape,0,1,left,Purple_Circle_Grid_4.jpg,Red_Circle_Chess_1.jpg,Purple_Plus_Dots_3.jpg,left,1407.7099999412894,true,NA,NA,NA,NA,NA,NA,NA,NA,true
Hml3iLk2,3ba7sxog2m30f57lxuc2l92uxdc8rv,3gs6s824suasds95tsgtfpwx1f0nw7,Hml3iLk2,2020-0188,2020-06-04,08:09:22,08:30:40,NA,incomplete,8,shape,0,1,right,Green_Plus_Stripes_4.jpg,Green_Star_Grid_1.jpg,Blue_Plus_Chess_2.jpg,right,1580.5050000781193,true,NA,NA,NA,NA,NA,NA,NA,NA,true
Hml3iLk2,3ba7sxog2m30f57lxuc2l92uxdc8rv,3gs6s824suasds95tsgtfpwx1f0nw7,Hml3iLk2,2020-0188,2020-06-04,08:09:22,08:30:40,NA,incomplete,9,shape,0,1,right,Green_Triangle_Dots_4.jpg,Green_Plus_Grid_2.jpg,Blue_Triangle_Stripes_3.jpg,right,861.8349999887869,true,NA,NA,NA,NA,NA,NA,NA,NA,true
Hml3iLk2,3ba7sxog2m30f57lxuc2l92uxdc8rv,3gs6s824suasds95tsgtfpwx1f0nw7,Hml3iLk2,2020-0188,2020-06-04,08:09:22,08:30:40,NA,incomplete,10,shape,0,1,right,Blue_Triangle_Dots_1.jpg,Blue_Star_Grid_2.jpg,Red_Triangle_Chess_4.jpg,left,1272.980000008829,false,NA,NA,NA,NA,NA,NA,NA,NA,true
Hml3iLk2,3ba7sxog2m30f57lxuc2l92uxdc8rv,3gs6s824suasds95tsgtfpwx1f0nw7,Hml3iLk2,2020-0188,2020-06-04,08:09:22,08:30:40,NA,incomplete,11,shape,0,1,left,Green_Circle_Stripes_2.jpg,Blue_Circle_Dots_3.jpg,Green_Triangle_Chess_1.jpg,left,945.9950000746176,true,NA,NA,NA,NA,NA,NA,NA,NA,true
Hml3iLk2,3ba7sxog2m30f57lxuc2l92uxdc8rv,3gs6s824suasds95tsgtfpwx1f0nw7,Hml3iLk2,2020-0188,2020-06-04,08:09:22,08:30:40,NA,incomplete,12,shape,0,1,left,Purple_Star_Chess_4.jpg,Red_Star_Dots_3.jpg,Purple_Plus_Grid_1.jpg,left,1332.6249999227002,true,NA,NA,NA,NA,NA,NA,NA,NA,true
Hml3iLk2,3ba7sxog2m30f57lxuc2l92uxdc8rv,3gs6s824suasds95tsgtfpwx1f0nw7,Hml3iLk2,2020-0188,2020-06-04,08:09:22,08:30:40,NA,incomplete,13,shape,0,0,right,Blue_Plus_Dots_1.jpg,Blue_Star_Grid_4.jpg,Green_Plus_Chess_2.jpg,right,1002.1799999522045,true,NA,NA,NA,NA,NA,NA,NA,NA,true
Hml3iLk2,3ba7sxog2m30f57lxuc2l92uxdc8rv,3gs6s824suasds95tsgtfpwx1f0nw7,Hml3iLk2,2020-0188,2020-06-04,08:09:22,08:30:40,NA,incomplete,14,shape,0,1,left,Purple_Star_Dots_1.jpg,Red_Star_Chess_2.jpg,Purple_Plus_Stripes_3.jpg,left,1143.6499999836087,true,NA,NA,NA,NA,NA,NA,NA,NA,true
Hml3iLk2,3ba7sxog2m30f57lxuc2l92uxdc8rv,3gs6s824suasds95tsgtfpwx1f0nw7,Hml3iLk2,2020-0188,2020-06-04,08:09:22,08:30:40,NA,incomplete,15,shape,0,0,left,Purple_Triangle_Dots_2.jpg,Red_Triangle_Grid_4.jpg,Purple_Circle_Stripes_3.jpg,left,1346.8949999660254,true,NA,NA,NA,NA,NA,NA,NA,NA,true
Hml3iLk2,3ba7sxog2m30f57lxuc2l92uxdc8rv,3gs6s824suasds95tsgtfpwx1f0nw7,Hml3iLk2,2020-0188,2020-06-04,08:09:22,08:30:40,NA,incomplete,16,shape,0,1,left,Red_Circle_Stripes_1.jpg,Purple_Circle_Dots_2.jpg,Red_Star_Grid_3.jpg,left,1738.4799999417737,true,NA,NA,NA,NA,NA,NA,NA,NA,true
Hml3iLk2,3ba7sxog2m30f57lxuc2l92uxdc8rv,3gs6s824suasds95tsgtfpwx1f0nw7,Hml3iLk2,2020-0188,2020-06-04,08:09:22,08:30:40,NA,incomplete,17,shape,0,1,left,Purple_Triangle_Stripes_4.jpg,Blue_Triangle_Chess_2.jpg,Purple_Circle_Grid_3.jpg,left,1173.7349999602884,true,NA,NA,NA,NA,NA,NA,NA,NA,true
Hml3iLk2,3ba7sxog2m30f57lxuc2l92uxdc8rv,3gs6s824suasds95tsgtfpwx1f0nw7,Hml3iLk2,2020-0188,2020-06-04,08:09:22,08:30:40,NA,incomplete,18,shape,0,1,left,Green_Triangle_Grid_2.jpg,Purple_Triangle_Chess_1.jpg,Green_Star_Stripes_3.jpg,left,1719.014999922365,true,NA,NA,NA,NA,NA,NA,NA,NA,true
Hml3iLk2,3ba7sxog2m30f57lxuc2l92uxdc8rv,3gs6s824suasds95tsgtfpwx1f0nw7,Hml3iLk2,2020-0188,2020-06-04,08:09:22,08:30:40,NA,incomplete,19,shape,0,1,right,Red_Star_Stripes_4.jpg,Red_Circle_Dots_3.jpg,Blue_Star_Grid_1.jpg,right,1471.4099999982864,true,NA,NA,NA,NA,NA,NA,NA,NA,true
Hml3iLk2,3ba7sxog2m30f57lxuc2l92uxdc8rv,3gs6s824suasds95tsgtfpwx1f0nw7,Hml3iLk2,2020-0188,2020-06-04,08:09:22,08:30:40,NA,incomplete,20,color,1,0,left,Red_Circle_Chess_2.jpg,Red_Triangle_Grid_4.jpg,Green_Circle_Stripes_3.jpg,right,720.255000051111,false,NA,NA,NA,NA,NA,NA,NA,NA,true
Hml3iLk2,3ba7sxog2m30f57lxuc2l92uxdc8rv,3gs6s824suasds95tsgtfpwx1f0nw7,Hml3iLk2,2020-0188,2020-06-04,08:09:22,08:30:40,NA,incomplete,21,color,1,0,right,Red_Circle_Stripes_4.jpg,Blue_Circle_Chess_1.jpg,Red_Star_Grid_2.jpg,right,1281.5450000343844,true,NA,NA,NA,NA,NA,NA,NA,NA,true
Hml3iLk2,3ba7sxog2m30f57lxuc2l92uxdc8rv,3gs6s824suasds95tsgtfpwx1f0nw7,Hml3iLk2,2020-0188,2020-06-04,08:09:22,08:30:40,NA,incomplete,22,color,1,1,left,Green_Plus_Grid_3.jpg,Green_Triangle_Stripes_1.jpg,Red_Plus_Dots_2.jpg,left,1566.4349999278784,true,NA,NA,NA,NA,NA,NA,NA,NA,true
Hml3iLk2,3ba7sxog2m30f57lxuc2l92uxdc8rv,3gs6s824suasds95tsgtfpwx1f0nw7,Hml3iLk2,2020-0188,2020-06-04,08:09:22,08:30:40,NA,incomplete,23,color,1,1,left,Green_Star_Dots_3.jpg,Green_Circle_Chess_4.jpg,Blue_Star_Stripes_1.jpg,left,1534.5349999843165,true,NA,NA,NA,NA,NA,NA,NA,NA,true
Hml3iLk2,3ba7sxog2m30f57lxuc2l92uxdc8rv,3gs6s824suasds95tsgtfpwx1f0nw7,Hml3iLk2,2020-0188,2020-06-04,08:09:22,08:30:40,NA,incomplete,24,color,1,1,left,Purple_Triangle_Dots_2.jpg,Purple_Plus_Stripes_3.jpg,Blue_Triangle_Chess_4.jpg,left,1214.6499999798834,true,NA,NA,NA,NA,NA,NA,NA,NA,true
Hml3iLk2,3ba7sxog2m30f57lxuc2l92uxdc8rv,3gs6s824suasds95tsgtfpwx1f0nw7,Hml3iLk2,2020-0188,2020-06-04,08:09:22,08:30:40,NA,incomplete,25,color,1,1,left,Red_Circle_Dots_4.jpg,Red_Star_Chess_1.jpg,Blue_Circle_Stripes_2.jpg,left,994.9999999953434,true,NA,NA,NA,NA,NA,NA,NA,NA,true
Hml3iLk2,3ba7sxog2m30f57lxuc2l92uxdc8rv,3gs6s824suasds95tsgtfpwx1f0nw7,Hml3iLk2,2020-0188,2020-06-04,08:09:22,08:30:40,NA,incomplete,26,color,1,1,right,Blue_Triangle_Dots_1.jpg,Red_Triangle_Stripes_2.jpg,Blue_Plus_Grid_4.jpg,right,926.9999999087304,true,NA,NA,NA,NA,NA,NA,NA,NA,true
Hml3iLk2,3ba7sxog2m30f57lxuc2l92uxdc8rv,3gs6s824suasds95tsgtfpwx1f0nw7,Hml3iLk2,2020-0188,2020-06-04,08:09:22,08:30:40,NA,incomplete,27,color,1,1,right,Blue_Plus_Grid_1.jpg,Red_Plus_Stripes_4.jpg,Blue_Star_Chess_2.jpg,right,945.4599999589846,true,NA,NA,NA,NA,NA,NA,NA,NA,true
Hml3iLk2,3ba7sxog2m30f57lxuc2l92uxdc8rv,3gs6s824suasds95tsgtfpwx1f0nw7,Hml3iLk2,2020-0188,2020-06-04,08:09:22,08:30:40,NA,incomplete,28,color,1,1,right,Blue_Circle_Stripes_2.jpg,Purple_Circle_Chess_3.jpg,Blue_Plus_Grid_1.jpg,right,1023.8149999640882,true,NA,NA,NA,NA,NA,NA,NA,NA,true
Hml3iLk2,3ba7sxog2m30f57lxuc2l92uxdc8rv,3gs6s824suasds95tsgtfpwx1f0nw7,Hml3iLk2,2020-0188,2020-06-04,08:09:22,08:30:40,NA,incomplete,29,color,1,1,left,Red_Circle_Grid_1.jpg,Red_Triangle_Stripes_3.jpg,Purple_Circle_Dots_2.jpg,left,956.525000045076,true,NA,NA,NA,NA,NA,NA,NA,NA,true
Hml3iLk2,3ba7sxog2m30f57lxuc2l92uxdc8rv,3gs6s824suasds95tsgtfpwx1f0nw7,Hml3iLk2,2020-0188,2020-06-04,08:09:22,08:30:40,NA,incomplete,30,color,1,1,left,Green_Circle_Dots_1.jpg,Green_Star_Stripes_2.jpg,Purple_Circle_Chess_3.jpg,left,1021.0850000148639,true,NA,NA,NA,NA,NA,NA,NA,NA,true
Hml3iLk2,3ba7sxog2m30f57lxuc2l92uxdc8rv,3gs6s824suasds95tsgtfpwx1f0nw7,Hml3iLk2,2020-0188,2020-06-04,08:09:22,08:30:40,NA,incomplete,31,color,1,1,right,Green_Circle_Chess_3.jpg,Purple_Circle_Dots_4.jpg,Green_Star_Grid_1.jpg,right,1154.5799999730662,true,NA,NA,NA,NA,NA,NA,NA,NA,true
Hml3iLk2,3ba7sxog2m30f57lxuc2l92uxdc8rv,3gs6s824suasds95tsgtfpwx1f0nw7,Hml3iLk2,2020-0188,2020-06-04,08:09:22,08:30:40,NA,incomplete,32,color,1,0,left,Red_Circle_Chess_4.jpg,Red_Triangle_Stripes_1.jpg,Purple_Circle_Grid_3.jpg,left,937.099999981001,true,NA,NA,NA,NA,NA,NA,NA,NA,true
Hml3iLk2,3ba7sxog2m30f57lxuc2l92uxdc8rv,3gs6s824suasds95tsgtfpwx1f0nw7,Hml3iLk2,2020-0188,2020-06-04,08:09:22,08:30:40,NA,incomplete,33,color,1,1,right,Green_Star_Stripes_1.jpg,Red_Star_Dots_3.jpg,Green_Triangle_Grid_2.jpg,right,1070.3150000190362,true,NA,NA,NA,NA,NA,NA,NA,NA,true
Hml3iLk2,3ba7sxog2m30f57lxuc2l92uxdc8rv,3gs6s824suasds95tsgtfpwx1f0nw7,Hml3iLk2,2020-0188,2020-06-04,08:09:22,08:30:40,NA,incomplete,34,color,1,1,right,Blue_Circle_Chess_1.jpg,Green_Circle_Dots_3.jpg,Blue_Triangle_Stripes_4.jpg,right,1129.769999999553,true,NA,NA,NA,NA,NA,NA,NA,NA,true
Hml3iLk2,3ba7sxog2m30f57lxuc2l92uxdc8rv,3gs6s824suasds95tsgtfpwx1f0nw7,Hml3iLk2,2020-0188,2020-06-04,08:09:22,08:30:40,NA,incomplete,35,color,1,1,right,Purple_Triangle_Grid_4.jpg,Blue_Triangle_Dots_1.jpg,Purple_Star_Stripes_2.jpg,right,1099.9200000660494,true,NA,NA,NA,NA,NA,NA,NA,NA,true
Hml3iLk2,3ba7sxog2m30f57lxuc2l92uxdc8rv,3gs6s824suasds95tsgtfpwx1f0nw7,Hml3iLk2,2020-0188,2020-06-04,08:09:22,08:30:40,NA,incomplete,36,color,1,1,left,Blue_Plus_Chess_4.jpg,Blue_Triangle_Grid_2.jpg,Purple_Plus_Stripes_3.jpg,left,1027.6300000259653,true,NA,NA,NA,NA,NA,NA,NA,NA,true
Hml3iLk2,3ba7sxog2m30f57lxuc2l92uxdc8rv,3gs6s824suasds95tsgtfpwx1f0nw7,Hml3iLk2,2020-0188,2020-06-04,08:09:22,08:30:40,NA,incomplete,37,color,1,0,left,Blue_Plus_Stripes_3.jpg,Blue_Star_Dots_1.jpg,Red_Plus_Chess_2.jpg,right,1160.4150000493973,false,NA,NA,NA,NA,NA,NA,NA,NA,true
Hml3iLk2,3ba7sxog2m30f57lxuc2l92uxdc8rv,3gs6s824suasds95tsgtfpwx1f0nw7,Hml3iLk2,2020-0188,2020-06-04,08:09:22,08:30:40,NA,incomplete,38,color,1,1,right,Purple_Plus_Chess_2.jpg,Green_Plus_Stripes_3.jpg,Purple_Star_Grid_4.jpg,right,756.1650000279769,true,NA,NA,NA,NA,NA,NA,NA,NA,true
Hml3iLk2,3ba7sxog2m30f57lxuc2l92uxdc8rv,3gs6s824suasds95tsgtfpwx1f0nw7,Hml3iLk2,2020-0188,2020-06-04,08:09:22,08:30:40,NA,incomplete,39,color,1,1,left,Purple_Triangle_Chess_2.jpg,Purple_Plus_Grid_4.jpg,Green_Triangle_Stripes_1.jpg,left,931.6499999258667,true,NA,NA,NA,NA,NA,NA,NA,NA,true
Hml3iLk2,3ba7sxog2m30f57lxuc2l92uxdc8rv,3gs6s824suasds95tsgtfpwx1f0nw7,Hml3iLk2,2020-0188,2020-06-04,08:09:22,08:30:40,NA,incomplete,0,shape,0,0,right,Blue_Circle_Dots_2.jpg,Blue_Star_Chess_3.jpg,Purple_Circle_Stripes_4.jpg,left,1096.4399999938905,false,low,NA,NA,NA,NA,NA,NA,NA,false
Hml3iLk2,3ba7sxog2m30f57lxuc2l92uxdc8rv,3gs6s824suasds95tsgtfpwx1f0nw7,Hml3iLk2,2020-0188,2020-06-04,08:09:22,08:30:40,NA,incomplete,1,shape,0,1,right,Green_Triangle_Dots_1.jpg,Green_Plus_Grid_3.jpg,Blue_Triangle_Stripes_2.jpg,left,910.2349999593571,false,low,NA,NA,NA,NA,NA,NA,NA,false
Hml3iLk2,3ba7sxog2m30f57lxuc2l92uxdc8rv,3gs6s824suasds95tsgtfpwx1f0nw7,Hml3iLk2,2020-0188,2020-06-04,08:09:22,08:30:40,NA,incomplete,2,shape,0,1,right,Purple_Triangle_Dots_2.jpg,Purple_Plus_Stripes_1.jpg,Red_Triangle_Grid_4.jpg,right,1035.719999927096,true,low,NA,NA,NA,NA,NA,NA,NA,false
Hml3iLk2,3ba7sxog2m30f57lxuc2l92uxdc8rv,3gs6s824suasds95tsgtfpwx1f0nw7,Hml3iLk2,2020-0188,2020-06-04,08:09:22,08:30:40,NA,incomplete,3,shape,0,0,right,Blue_Triangle_Dots_2.jpg,Blue_Plus_Grid_3.jpg,Purple_Triangle_Stripes_1.jpg,left,835.5150000425056,false,low,NA,NA,NA,NA,NA,NA,NA,false
Hml3iLk2,3ba7sxog2m30f57lxuc2l92uxdc8rv,3gs6s824suasds95tsgtfpwx1f0nw7,Hml3iLk2,2020-0188,2020-06-04,08:09:22,08:30:40,NA,incomplete,4,shape,0,1,left,Blue_Star_Chess_2.jpg,Red_Star_Grid_1.jpg,Blue_Triangle_Stripes_4.jpg,right,724.7049999423325,false,low,NA,NA,NA,NA,NA,NA,NA,false
Hml3iLk2,3ba7sxog2m30f57lxuc2l92uxdc8rv,3gs6s824suasds95tsgtfpwx1f0nw7,Hml3iLk2,2020-0188,2020-06-04,08:09:22,08:30:40,NA,incomplete,5,shape,0,0,left,Purple_Star_Dots_4.jpg,Red_Star_Stripes_2.jpg,Purple_Circle_Chess_1.jpg,left,1445.9550000028685,true,low,NA,NA,NA,NA,NA,NA,NA,false
Hml3iLk2,3ba7sxog2m30f57lxuc2l92uxdc8rv,3gs6s824suasds95tsgtfpwx1f0nw7,Hml3iLk2,2020-0188,2020-06-04,08:09:22,08:30:40,NA,incomplete,6,shape,0,1,right,Green_Plus_Grid_2.jpg,Green_Circle_Stripes_4.jpg,Purple_Plus_Chess_1.jpg,left,617.1800000593066,false,low,NA,NA,NA,NA,NA,NA,NA,false
Hml3iLk2,3ba7sxog2m30f57lxuc2l92uxdc8rv,3gs6s824suasds95tsgtfpwx1f0nw7,Hml3iLk2,2020-0188,2020-06-04,08:09:22,08:30:40,NA,incomplete,7,shape,0,1,left,Red_Triangle_Chess_4.jpg,Blue_Triangle_Dots_3.jpg,Red_Circle_Grid_2.jpg,left,965.0049998890609,true,low,NA,NA,NA,NA,NA,NA,NA,false
Hml3iLk2,3ba7sxog2m30f57lxuc2l92uxdc8rv,3gs6s824suasds95tsgtfpwx1f0nw7,Hml3iLk2,2020-0188,2020-06-04,08:09:22,08:30:40,NA,incomplete,8,shape,0,1,right,Purple_Star_Grid_3.jpg,Purple_Plus_Stripes_4.jpg,Red_Star_Dots_2.jpg,left,816.9550000457093,false,low,NA,NA,NA,NA,NA,NA,NA,false
Hml3iLk2,3ba7sxog2m30f57lxuc2l92uxdc8rv,3gs6s824suasds95tsgtfpwx1f0nw7,Hml3iLk2,2020-0188,2020-06-04,08:09:22,08:30:40,NA,incomplete,9,shape,0,1,right,Purple_Plus_Stripes_2.jpg,Purple_Star_Grid_1.jpg,Green_Plus_Chess_4.jpg,right,822.929999907501,true,low,NA,NA,NA,NA,NA,NA,NA,false
Hml3iLk2,3ba7sxog2m30f57lxuc2l92uxdc8rv,3gs6s824suasds95tsgtfpwx1f0nw7,Hml3iLk2,2020-0188,2020-06-04,08:09:22,08:30:40,NA,incomplete,10,shape,0,1,left,Purple_Plus_Stripes_2.jpg,Blue_Plus_Chess_4.jpg,Purple_Triangle_Grid_3.jpg,left,1373.1350000016391,true,low,NA,NA,NA,NA,NA,NA,NA,false
Hml3iLk2,3ba7sxog2m30f57lxuc2l92uxdc8rv,3gs6s824suasds95tsgtfpwx1f0nw7,Hml3iLk2,2020-0188,2020-06-04,08:09:22,08:30:40,NA,incomplete,11,shape,0,1,right,Purple_Plus_Dots_1.jpg,Purple_Star_Grid_2.jpg,Blue_Plus_Stripes_4.jpg,left,886.6400000406429,false,low,NA,NA,NA,NA,NA,NA,NA,false
Hml3iLk2,3ba7sxog2m30f57lxuc2l92uxdc8rv,3gs6s824suasds95tsgtfpwx1f0nw7,Hml3iLk2,2020-0188,2020-06-04,08:09:22,08:30:40,NA,incomplete,12,shape,0,1,right,Green_Circle_Stripes_2.jpg,Green_Plus_Dots_3.jpg,Red_Circle_Chess_1.jpg,right,994.1150000086054,true,low,NA,NA,NA,NA,NA,NA,NA,false
Hml3iLk2,3ba7sxog2m30f57lxuc2l92uxdc8rv,3gs6s824suasds95tsgtfpwx1f0nw7,Hml3iLk2,2020-0188,2020-06-04,08:09:22,08:30:40,NA,incomplete,13,shape,0,0,left,Blue_Star_Stripes_2.jpg,Purple_Star_Dots_4.jpg,Blue_Triangle_Grid_3.jpg,left,1249.9500000849366,true,low,NA,NA,NA,NA,NA,NA,NA,false
Hml3iLk2,3ba7sxog2m30f57lxuc2l92uxdc8rv,3gs6s824suasds95tsgtfpwx1f0nw7,Hml3iLk2,2020-0188,2020-06-04,08:09:22,08:30:40,NA,incomplete,14,shape,0,1,right,Green_Triangle_Stripes_2.jpg,Green_Star_Dots_1.jpg,Red_Triangle_Grid_3.jpg,right,836.87999995891,true,low,NA,NA,NA,NA,NA,NA,NA,false
Hml3iLk2,3ba7sxog2m30f57lxuc2l92uxdc8rv,3gs6s824suasds95tsgtfpwx1f0nw7,Hml3iLk2,2020-0188,2020-06-04,08:09:22,08:30:40,NA,incomplete,15,shape,0,1,left,Purple_Plus_Chess_4.jpg,Green_Plus_Stripes_2.jpg,Purple_Star_Grid_3.jpg,left,1500.010000076145,true,low,NA,NA,NA,NA,NA,NA,NA,false
Hml3iLk2,3ba7sxog2m30f57lxuc2l92uxdc8rv,3gs6s824suasds95tsgtfpwx1f0nw7,Hml3iLk2,2020-0188,2020-06-04,08:09:22,08:30:40,NA,incomplete,16,shape,0,1,right,Red_Triangle_Chess_3.jpg,Red_Star_Dots_1.jpg,Blue_Triangle_Stripes_2.jpg,right,846.0799999302253,true,low,NA,NA,NA,NA,NA,NA,NA,false
Hml3iLk2,3ba7sxog2m30f57lxuc2l92uxdc8rv,3gs6s824suasds95tsgtfpwx1f0nw7,Hml3iLk2,2020-0188,2020-06-04,08:09:22,08:30:40,NA,incomplete,17,shape,0,1,right,Red_Triangle_Chess_4.jpg,Red_Plus_Stripes_1.jpg,Purple_Triangle_Dots_3.jpg,right,981.5700000617653,true,low,NA,NA,NA,NA,NA,NA,NA,false
Hml3iLk2,3ba7sxog2m30f57lxuc2l92uxdc8rv,3gs6s824suasds95tsgtfpwx1f0nw7,Hml3iLk2,2020-0188,2020-06-04,08:09:22,08:30:40,NA,incomplete,18,shape,0,1,right,Red_Circle_Grid_4.jpg,Red_Triangle_Stripes_2.jpg,Green_Circle_Chess_1.jpg,right,1333.4150000009686,true,low,NA,NA,NA,NA,NA,NA,NA,false
Hml3iLk2,3ba7sxog2m30f57lxuc2l92uxdc8rv,3gs6s824suasds95tsgtfpwx1f0nw7,Hml3iLk2,2020-0188,2020-06-04,08:09:22,08:30:40,NA,incomplete,19,shape,0,1,left,Red_Plus_Dots_3.jpg,Green_Plus_Stripes_1.jpg,Red_Circle_Grid_4.jpg,left,768.9199999440461,true,low,NA,NA,NA,NA,NA,NA,NA,false
Hml3iLk2,3ba7sxog2m30f57lxuc2l92uxdc8rv,3gs6s824suasds95tsgtfpwx1f0nw7,Hml3iLk2,2020-0188,2020-06-04,08:09:22,08:30:40,NA,incomplete,20,shape,0,0,right,Green_Circle_Chess_3.jpg,Green_Star_Stripes_1.jpg,Red_Circle_Grid_4.jpg,right,1097.3050000611693,true,low,NA,NA,NA,NA,NA,NA,NA,false
Hml3iLk2,3ba7sxog2m30f57lxuc2l92uxdc8rv,3gs6s824suasds95tsgtfpwx1f0nw7,Hml3iLk2,2020-0188,2020-06-04,08:09:22,08:30:40,NA,incomplete,21,shape,0,0,right,Purple_Circle_Dots_4.jpg,Purple_Triangle_Chess_2.jpg,Red_Circle_Grid_3.jpg,right,1557.730000000447,true,low,NA,NA,NA,NA,NA,NA,NA,false
Hml3iLk2,3ba7sxog2m30f57lxuc2l92uxdc8rv,3gs6s824suasds95tsgtfpwx1f0nw7,Hml3iLk2,2020-0188,2020-06-04,08:09:22,08:30:40,NA,incomplete,22,shape,0,0,left,Green_Triangle_Grid_1.jpg,Blue_Triangle_Chess_3.jpg,Green_Star_Stripes_2.jpg,right,1435.920000076294,false,low,NA,NA,NA,NA,NA,NA,NA,false
Hml3iLk2,3ba7sxog2m30f57lxuc2l92uxdc8rv,3gs6s824suasds95tsgtfpwx1f0nw7,Hml3iLk2,2020-0188,2020-06-04,08:09:22,08:30:40,NA,incomplete,23,shape,0,1,right,Blue_Star_Chess_1.jpg,Blue_Plus_Stripes_3.jpg,Red_Star_Dots_2.jpg,left,866.6100000264123,false,low,NA,NA,NA,NA,NA,NA,NA,false
Hml3iLk2,3ba7sxog2m30f57lxuc2l92uxdc8rv,3gs6s824suasds95tsgtfpwx1f0nw7,Hml3iLk2,2020-0188,2020-06-04,08:09:22,08:30:40,NA,incomplete,24,shape,0,0,left,Red_Plus_Grid_4.jpg,Green_Plus_Stripes_1.jpg,Red_Star_Chess_2.jpg,right,1368.0950000416487,false,low,NA,NA,NA,NA,NA,NA,NA,false
Hml3iLk2,3ba7sxog2m30f57lxuc2l92uxdc8rv,3gs6s824suasds95tsgtfpwx1f0nw7,Hml3iLk2,2020-0188,2020-06-04,08:09:22,08:30:40,NA,incomplete,25,shape,0,0,right,Purple_Triangle_Chess_1.jpg,Purple_Circle_Grid_4.jpg,Blue_Triangle_Dots_2.jpg,right,1119.8650000151247,true,low,NA,NA,NA,NA,NA,NA,NA,false
Hml3iLk2,3ba7sxog2m30f57lxuc2l92uxdc8rv,3gs6s824suasds95tsgtfpwx1f0nw7,Hml3iLk2,2020-0188,2020-06-04,08:09:22,08:30:40,NA,incomplete,26,shape,0,1,right,Purple_Star_Stripes_1.jpg,Purple_Triangle_Dots_2.jpg,Red_Star_Chess_4.jpg,left,1693.55500000529,false,low,NA,NA,NA,NA,NA,NA,NA,false
Hml3iLk2,3ba7sxog2m30f57lxuc2l92uxdc8rv,3gs6s824suasds95tsgtfpwx1f0nw7,Hml3iLk2,2020-0188,2020-06-04,08:09:22,08:30:40,NA,incomplete,27,shape,0,1,right,Purple_Star_Dots_2.jpg,Purple_Triangle_Chess_3.jpg,Red_Star_Stripes_1.jpg,left,957.1049999212846,false,low,NA,NA,NA,NA,NA,NA,NA,false
Hml3iLk2,3ba7sxog2m30f57lxuc2l92uxdc8rv,3gs6s824suasds95tsgtfpwx1f0nw7,Hml3iLk2,2020-0188,2020-06-04,08:09:22,08:30:40,NA,incomplete,28,shape,0,1,left,Purple_Triangle_Dots_2.jpg,Blue_Triangle_Chess_4.jpg,Purple_Circle_Grid_1.jpg,left,1069.4099999964237,true,low,NA,NA,NA,NA,NA,NA,NA,false
Hml3iLk2,3ba7sxog2m30f57lxuc2l92uxdc8rv,3gs6s824suasds95tsgtfpwx1f0nw7,Hml3iLk2,2020-0188,2020-06-04,08:09:22,08:30:40,NA,incomplete,29,shape,0,1,right,Purple_Triangle_Stripes_3.jpg,Purple_Star_Dots_4.jpg,Red_Triangle_Grid_1.jpg,right,1007.3900000425056,true,low,NA,NA,NA,NA,NA,NA,NA,false
Hml3iLk2,3ba7sxog2m30f57lxuc2l92uxdc8rv,3gs6s824suasds95tsgtfpwx1f0nw7,Hml3iLk2,2020-0188,2020-06-04,08:09:22,08:30:40,NA,incomplete,30,color,1,1,left,Green_Triangle_Dots_3.jpg,Green_Star_Chess_2.jpg,Blue_Triangle_Stripes_4.jpg,right,1087.8650000086054,false,low,NA,NA,NA,NA,NA,NA,NA,false
Hml3iLk2,3ba7sxog2m30f57lxuc2l92uxdc8rv,3gs6s824suasds95tsgtfpwx1f0nw7,Hml3iLk2,2020-0188,2020-06-04,08:09:22,08:30:40,NA,incomplete,31,color,1,1,right,Purple_Star_Chess_2.jpg,Green_Star_Grid_1.jpg,Purple_Plus_Stripes_3.jpg,left,1022.6849999744445,false,low,NA,NA,NA,NA,NA,NA,NA,false
Hml3iLk2,3ba7sxog2m30f57lxuc2l92uxdc8rv,3gs6s824suasds95tsgtfpwx1f0nw7,Hml3iLk2,2020-0188,2020-06-04,08:09:22,08:30:40,NA,incomplete,32,color,1,1,left,Purple_Plus_Grid_4.jpg,Purple_Triangle_Chess_3.jpg,Blue_Plus_Dots_2.jpg,left,1401.8599999835715,true,low,NA,NA,NA,NA,NA,NA,NA,false
Hml3iLk2,3ba7sxog2m30f57lxuc2l92uxdc8rv,3gs6s824suasds95tsgtfpwx1f0nw7,Hml3iLk2,2020-0188,2020-06-04,08:09:22,08:30:40,NA,incomplete,33,color,1,1,right,Green_Plus_Dots_2.jpg,Blue_Plus_Grid_4.jpg,Green_Triangle_Chess_1.jpg,left,922.9300000006333,false,low,NA,NA,NA,NA,NA,NA,NA,false
Hml3iLk2,3ba7sxog2m30f57lxuc2l92uxdc8rv,3gs6s824suasds95tsgtfpwx1f0nw7,Hml3iLk2,2020-0188,2020-06-04,08:09:22,08:30:40,NA,incomplete,34,color,1,1,left,Purple_Circle_Grid_4.jpg,Purple_Triangle_Dots_3.jpg,Green_Circle_Stripes_1.jpg,left,1385.0600000005215,true,low,NA,NA,NA,NA,NA,NA,NA,false
Hml3iLk2,3ba7sxog2m30f57lxuc2l92uxdc8rv,3gs6s824suasds95tsgtfpwx1f0nw7,Hml3iLk2,2020-0188,2020-06-04,08:09:22,08:30:40,NA,incomplete,35,color,1,1,right,Purple_Plus_Stripes_2.jpg,Green_Plus_Grid_4.jpg,Purple_Star_Chess_3.jpg,right,1461.1199999926612,true,low,NA,NA,NA,NA,NA,NA,NA,false
Hml3iLk2,3ba7sxog2m30f57lxuc2l92uxdc8rv,3gs6s824suasds95tsgtfpwx1f0nw7,Hml3iLk2,2020-0188,2020-06-04,08:09:22,08:30:40,NA,incomplete,36,color,1,1,right,Green_Plus_Dots_4.jpg,Red_Plus_Stripes_3.jpg,Green_Star_Chess_2.jpg,right,1183.130000019446,true,low,NA,NA,NA,NA,NA,NA,NA,false
Hml3iLk2,3ba7sxog2m30f57lxuc2l92uxdc8rv,3gs6s824suasds95tsgtfpwx1f0nw7,Hml3iLk2,2020-0188,2020-06-04,08:09:22,08:30:40,NA,incomplete,37,color,1,1,right,Blue_Plus_Grid_1.jpg,Purple_Plus_Dots_3.jpg,Blue_Triangle_Chess_4.jpg,left,1183.5750000318512,false,low,NA,NA,NA,NA,NA,NA,NA,false
Hml3iLk2,3ba7sxog2m30f57lxuc2l92uxdc8rv,3gs6s824suasds95tsgtfpwx1f0nw7,Hml3iLk2,2020-0188,2020-06-04,08:09:22,08:30:40,NA,incomplete,38,color,1,1,right,Purple_Circle_Stripes_3.jpg,Blue_Circle_Chess_2.jpg,Purple_Star_Dots_4.jpg,right,1030.680000083521,true,low,NA,NA,NA,NA,NA,NA,NA,false
Hml3iLk2,3ba7sxog2m30f57lxuc2l92uxdc8rv,3gs6s824suasds95tsgtfpwx1f0nw7,Hml3iLk2,2020-0188,2020-06-04,08:09:22,08:30:40,NA,incomplete,39,color,1,1,left,Blue_Circle_Chess_4.jpg,Blue_Plus_Dots_2.jpg,Green_Circle_Grid_3.jpg,right,796.1099999956787,false,low,NA,NA,NA,NA,NA,NA,NA,false
Hml3iLk2,3ba7sxog2m30f57lxuc2l92uxdc8rv,3gs6s824suasds95tsgtfpwx1f0nw7,Hml3iLk2,2020-0188,2020-06-04,08:09:22,08:30:40,NA,incomplete,40,color,1,1,left,Blue_Plus_Dots_4.jpg,Blue_Circle_Grid_2.jpg,Green_Plus_Chess_3.jpg,left,1398.4700000146404,true,low,NA,NA,NA,NA,NA,NA,NA,false
Hml3iLk2,3ba7sxog2m30f57lxuc2l92uxdc8rv,3gs6s824suasds95tsgtfpwx1f0nw7,Hml3iLk2,2020-0188,2020-06-04,08:09:22,08:30:40,NA,incomplete,41,color,1,1,right,Purple_Star_Chess_2.jpg,Blue_Star_Dots_1.jpg,Purple_Triangle_Stripes_3.jpg,right,500.89000002481043,true,low,NA,NA,NA,NA,NA,NA,NA,false
Hml3iLk2,3ba7sxog2m30f57lxuc2l92uxdc8rv,3gs6s824suasds95tsgtfpwx1f0nw7,Hml3iLk2,2020-0188,2020-06-04,08:09:22,08:30:40,NA,incomplete,42,color,1,1,left,Blue_Circle_Chess_1.jpg,Blue_Plus_Stripes_3.jpg,Green_Circle_Dots_4.jpg,left,586.3949999911711,true,low,NA,NA,NA,NA,NA,NA,NA,false
Hml3iLk2,3ba7sxog2m30f57lxuc2l92uxdc8rv,3gs6s824suasds95tsgtfpwx1f0nw7,Hml3iLk2,2020-0188,2020-06-04,08:09:22,08:30:40,NA,incomplete,43,color,1,1,right,Blue_Triangle_Chess_1.jpg,Green_Triangle_Grid_2.jpg,Blue_Circle_Stripes_3.jpg,right,758.1950000021607,true,low,NA,NA,NA,NA,NA,NA,NA,false
Hml3iLk2,3ba7sxog2m30f57lxuc2l92uxdc8rv,3gs6s824suasds95tsgtfpwx1f0nw7,Hml3iLk2,2020-0188,2020-06-04,08:09:22,08:30:40,NA,incomplete,44,color,1,1,right,Red_Star_Chess_2.jpg,Green_Star_Dots_3.jpg,Red_Plus_Stripes_1.jpg,right,719.1200000233948,true,low,NA,NA,NA,NA,NA,NA,NA,false
Hml3iLk2,3ba7sxog2m30f57lxuc2l92uxdc8rv,3gs6s824suasds95tsgtfpwx1f0nw7,Hml3iLk2,2020-0188,2020-06-04,08:09:22,08:30:40,NA,incomplete,45,color,1,1,right,Red_Circle_Grid_4.jpg,Green_Circle_Dots_2.jpg,Red_Triangle_Chess_1.jpg,right,674.1650000913069,true,low,NA,NA,NA,NA,NA,NA,NA,false
Hml3iLk2,3ba7sxog2m30f57lxuc2l92uxdc8rv,3gs6s824suasds95tsgtfpwx1f0nw7,Hml3iLk2,2020-0188,2020-06-04,08:09:22,08:30:40,NA,incomplete,46,color,1,1,left,Purple_Triangle_Stripes_2.jpg,Purple_Circle_Chess_3.jpg,Green_Triangle_Dots_4.jpg,left,668.5600000200793,true,low,NA,NA,NA,NA,NA,NA,NA,false
Hml3iLk2,3ba7sxog2m30f57lxuc2l92uxdc8rv,3gs6s824suasds95tsgtfpwx1f0nw7,Hml3iLk2,2020-0188,2020-06-04,08:09:22,08:30:40,NA,incomplete,47,color,1,0,left,Green_Star_Chess_4.jpg,Green_Triangle_Grid_3.jpg,Purple_Star_Stripes_1.jpg,left,581.4399999799207,true,low,NA,NA,NA,NA,NA,NA,NA,false
Hml3iLk2,3ba7sxog2m30f57lxuc2l92uxdc8rv,3gs6s824suasds95tsgtfpwx1f0nw7,Hml3iLk2,2020-0188,2020-06-04,08:09:22,08:30:40,NA,incomplete,48,color,1,1,left,Red_Star_Stripes_1.jpg,Red_Triangle_Chess_3.jpg,Blue_Star_Grid_4.jpg,left,788.5750000132248,true,low,NA,NA,NA,NA,NA,NA,NA,false
Hml3iLk2,3ba7sxog2m30f57lxuc2l92uxdc8rv,3gs6s824suasds95tsgtfpwx1f0nw7,Hml3iLk2,2020-0188,2020-06-04,08:09:22,08:30:40,NA,incomplete,49,color,1,0,right,Red_Triangle_Stripes_4.jpg,Purple_Triangle_Chess_2.jpg,Red_Star_Grid_1.jpg,right,1020.215000025928,true,low,NA,NA,NA,NA,NA,NA,NA,false
Hml3iLk2,3ba7sxog2m30f57lxuc2l92uxdc8rv,3gs6s824suasds95tsgtfpwx1f0nw7,Hml3iLk2,2020-0188,2020-06-04,08:09:22,08:30:40,NA,incomplete,50,color,1,1,right,Green_Circle_Stripes_3.jpg,Blue_Circle_Grid_2.jpg,Green_Star_Dots_4.jpg,left,1189.0350000467151,false,low,NA,NA,NA,NA,NA,NA,NA,false
Hml3iLk2,3ba7sxog2m30f57lxuc2l92uxdc8rv,3gs6s824suasds95tsgtfpwx1f0nw7,Hml3iLk2,2020-0188,2020-06-04,08:09:22,08:30:40,NA,incomplete,51,color,1,1,left,Green_Triangle_Chess_1.jpg,Green_Plus_Stripes_2.jpg,Blue_Triangle_Dots_4.jpg,left,935.9050000784919,true,low,NA,NA,NA,NA,NA,NA,NA,false
Hml3iLk2,3ba7sxog2m30f57lxuc2l92uxdc8rv,3gs6s824suasds95tsgtfpwx1f0nw7,Hml3iLk2,2020-0188,2020-06-04,08:09:22,08:30:40,NA,incomplete,52,color,1,1,left,Red_Plus_Chess_4.jpg,Red_Star_Grid_3.jpg,Purple_Plus_Dots_2.jpg,left,724.5249999687076,true,low,NA,NA,NA,NA,NA,NA,NA,false
Hml3iLk2,3ba7sxog2m30f57lxuc2l92uxdc8rv,3gs6s824suasds95tsgtfpwx1f0nw7,Hml3iLk2,2020-0188,2020-06-04,08:09:22,08:30:40,NA,incomplete,53,color,1,1,right,Purple_Triangle_Grid_3.jpg,Red_Triangle_Stripes_2.jpg,Purple_Star_Dots_1.jpg,right,609.0300000505522,true,low,NA,NA,NA,NA,NA,NA,NA,false
Hml3iLk2,3ba7sxog2m30f57lxuc2l92uxdc8rv,3gs6s824suasds95tsgtfpwx1f0nw7,Hml3iLk2,2020-0188,2020-06-04,08:09:22,08:30:40,NA,incomplete,54,color,1,1,right,Purple_Plus_Grid_1.jpg,Red_Plus_Chess_2.jpg,Purple_Triangle_Stripes_3.jpg,right,531.8750001024455,true,low,NA,NA,NA,NA,NA,NA,NA,false
Hml3iLk2,3ba7sxog2m30f57lxuc2l92uxdc8rv,3gs6s824suasds95tsgtfpwx1f0nw7,Hml3iLk2,2020-0188,2020-06-04,08:09:22,08:30:40,NA,incomplete,55,color,1,1,left,Red_Circle_Chess_4.jpg,Red_Triangle_Grid_2.jpg,Green_Circle_Dots_1.jpg,left,540.9399999771267,true,low,NA,NA,NA,NA,NA,NA,NA,false
Hml3iLk2,3ba7sxog2m30f57lxuc2l92uxdc8rv,3gs6s824suasds95tsgtfpwx1f0nw7,Hml3iLk2,2020-0188,2020-06-04,08:09:22,08:30:40,NA,incomplete,56,color,1,1,right,Blue_Plus_Stripes_3.jpg,Purple_Plus_Dots_4.jpg,Blue_Star_Chess_2.jpg,right,630.4600000148639,true,low,NA,NA,NA,NA,NA,NA,NA,false
Hml3iLk2,3ba7sxog2m30f57lxuc2l92uxdc8rv,3gs6s824suasds95tsgtfpwx1f0nw7,Hml3iLk2,2020-0188,2020-06-04,08:09:22,08:30:40,NA,incomplete,57,color,1,1,right,Purple_Plus_Grid_2.jpg,Green_Plus_Stripes_1.jpg,Purple_Star_Chess_4.jpg,right,459.56999994814396,true,low,NA,NA,NA,NA,NA,NA,NA,false
Hml3iLk2,3ba7sxog2m30f57lxuc2l92uxdc8rv,3gs6s824suasds95tsgtfpwx1f0nw7,Hml3iLk2,2020-0188,2020-06-04,08:09:22,08:30:40,NA,incomplete,58,color,1,1,left,Green_Circle_Stripes_1.jpg,Green_Triangle_Dots_4.jpg,Red_Circle_Grid_3.jpg,left,526.9449999323115,true,low,NA,NA,NA,NA,NA,NA,NA,false
Hml3iLk2,3ba7sxog2m30f57lxuc2l92uxdc8rv,3gs6s824suasds95tsgtfpwx1f0nw7,Hml3iLk2,2020-0188,2020-06-04,08:09:22,08:30:40,NA,incomplete,59,color,1,1,left,Purple_Circle_Grid_4.jpg,Purple_Star_Chess_3.jpg,Green_Circle_Dots_2.jpg,left,1042.009999975562,true,low,NA,NA,NA,NA,NA,NA,NA,false
Hml3iLk2,3ba7sxog2m30f57lxuc2l92uxdc8rv,3gs6s824suasds95tsgtfpwx1f0nw7,Hml3iLk2,2020-0188,2020-06-04,08:09:22,08:30:40,NA,incomplete,60,shape,0,1,right,Red_Star_Dots_2.jpg,Red_Circle_Stripes_4.jpg,Purple_Star_Chess_3.jpg,left,684.0050000464544,false,low,NA,NA,NA,NA,NA,NA,NA,false
Hml3iLk2,3ba7sxog2m30f57lxuc2l92uxdc8rv,3gs6s824suasds95tsgtfpwx1f0nw7,Hml3iLk2,2020-0188,2020-06-04,08:09:22,08:30:40,NA,incomplete,61,shape,0,0,right,Blue_Plus_Grid_2.jpg,Blue_Star_Stripes_4.jpg,Purple_Plus_Dots_3.jpg,left,466.0949999233708,false,low,NA,NA,NA,NA,NA,NA,NA,false
Hml3iLk2,3ba7sxog2m30f57lxuc2l92uxdc8rv,3gs6s824suasds95tsgtfpwx1f0nw7,Hml3iLk2,2020-0188,2020-06-04,08:09:22,08:30:40,NA,incomplete,62,shape,0,1,right,Purple_Plus_Stripes_1.jpg,Purple_Star_Chess_3.jpg,Red_Plus_Dots_4.jpg,left,544.9700000463054,false,low,NA,NA,NA,NA,NA,NA,NA,false
Hml3iLk2,3ba7sxog2m30f57lxuc2l92uxdc8rv,3gs6s824suasds95tsgtfpwx1f0nw7,Hml3iLk2,2020-0188,2020-06-04,08:09:22,08:30:40,NA,incomplete,63,shape,0,0,left,Red_Triangle_Grid_1.jpg,Green_Triangle_Stripes_2.jpg,Red_Circle_Chess_4.jpg,right,1194.3450000835583,false,low,NA,NA,NA,NA,NA,NA,NA,false
Hml3iLk2,3ba7sxog2m30f57lxuc2l92uxdc8rv,3gs6s824suasds95tsgtfpwx1f0nw7,Hml3iLk2,2020-0188,2020-06-04,08:09:22,08:30:40,NA,incomplete,64,shape,0,1,right,Red_Triangle_Chess_2.jpg,Red_Circle_Stripes_1.jpg,Green_Triangle_Dots_3.jpg,left,1060.5849999701604,false,low,NA,NA,NA,NA,NA,NA,NA,false
Hml3iLk2,3ba7sxog2m30f57lxuc2l92uxdc8rv,3gs6s824suasds95tsgtfpwx1f0nw7,Hml3iLk2,2020-0188,2020-06-04,08:09:22,08:30:40,NA,incomplete,65,shape,0,0,left,Green_Plus_Dots_1.jpg,Blue_Plus_Stripes_3.jpg,Green_Star_Grid_4.jpg,right,693.8800000352785,false,low,NA,NA,NA,NA,NA,NA,NA,false
Hml3iLk2,3ba7sxog2m30f57lxuc2l92uxdc8rv,3gs6s824suasds95tsgtfpwx1f0nw7,Hml3iLk2,2020-0188,2020-06-04,08:09:22,08:30:40,NA,incomplete,66,shape,0,1,left,Purple_Triangle_Grid_1.jpg,Blue_Triangle_Chess_2.jpg,Purple_Circle_Dots_3.jpg,right,687.0799999451265,false,low,NA,NA,NA,NA,NA,NA,NA,false
Hml3iLk2,3ba7sxog2m30f57lxuc2l92uxdc8rv,3gs6s824suasds95tsgtfpwx1f0nw7,Hml3iLk2,2020-0188,2020-06-04,08:09:22,08:30:40,NA,incomplete,67,shape,0,1,right,Blue_Star_Grid_2.jpg,Blue_Triangle_Stripes_3.jpg,Purple_Star_Chess_1.jpg,right,1348.0499999132007,true,low,NA,NA,NA,NA,NA,NA,NA,false
Hml3iLk2,3ba7sxog2m30f57lxuc2l92uxdc8rv,3gs6s824suasds95tsgtfpwx1f0nw7,Hml3iLk2,2020-0188,2020-06-04,08:09:22,08:30:40,NA,incomplete,68,shape,0,1,left,Blue_Circle_Chess_1.jpg,Green_Circle_Grid_2.jpg,Blue_Triangle_Stripes_3.jpg,left,1051.770000020042,true,low,NA,NA,NA,NA,NA,NA,NA,false
Hml3iLk2,3ba7sxog2m30f57lxuc2l92uxdc8rv,3gs6s824suasds95tsgtfpwx1f0nw7,Hml3iLk2,2020-0188,2020-06-04,08:09:22,08:30:40,NA,incomplete,69,shape,0,0,left,Purple_Plus_Dots_1.jpg,Red_Plus_Chess_2.jpg,Purple_Circle_Grid_4.jpg,left,681.6100000869483,true,low,NA,NA,NA,NA,NA,NA,NA,false
Hml3iLk2,3ba7sxog2m30f57lxuc2l92uxdc8rv,3gs6s824suasds95tsgtfpwx1f0nw7,Hml3iLk2,2020-0188,2020-06-04,08:09:22,08:30:40,NA,incomplete,70,shape,0,1,left,Blue_Plus_Grid_1.jpg,Purple_Plus_Stripes_3.jpg,Blue_Triangle_Dots_4.jpg,left,801.8800000427291,true,low,NA,NA,NA,NA,NA,NA,NA,false
Hml3iLk2,3ba7sxog2m30f57lxuc2l92uxdc8rv,3gs6s824suasds95tsgtfpwx1f0nw7,Hml3iLk2,2020-0188,2020-06-04,08:09:22,08:30:40,NA,incomplete,71,shape,0,1,right,Green_Triangle_Stripes_3.jpg,Green_Star_Chess_2.jpg,Red_Triangle_Dots_1.jpg,right,1813.2299999706447,true,low,NA,NA,NA,NA,NA,NA,NA,false
Hml3iLk2,3ba7sxog2m30f57lxuc2l92uxdc8rv,3gs6s824suasds95tsgtfpwx1f0nw7,Hml3iLk2,2020-0188,2020-06-04,08:09:22,08:30:40,NA,incomplete,72,shape,0,1,left,Blue_Plus_Dots_4.jpg,Red_Plus_Stripes_1.jpg,Blue_Star_Grid_3.jpg,left,831.4000000245869,true,low,NA,NA,NA,NA,NA,NA,NA,false
Hml3iLk2,3ba7sxog2m30f57lxuc2l92uxdc8rv,3gs6s824suasds95tsgtfpwx1f0nw7,Hml3iLk2,2020-0188,2020-06-04,08:09:22,08:30:40,NA,incomplete,73,shape,0,1,right,Blue_Plus_Stripes_4.jpg,Blue_Triangle_Chess_2.jpg,Green_Plus_Dots_1.jpg,right,708.6850000778213,true,low,NA,NA,NA,NA,NA,NA,NA,false
Hml3iLk2,3ba7sxog2m30f57lxuc2l92uxdc8rv,3gs6s824suasds95tsgtfpwx1f0nw7,Hml3iLk2,2020-0188,2020-06-04,08:09:22,08:30:40,NA,incomplete,74,shape,0,1,right,Red_Star_Chess_1.jpg,Red_Plus_Stripes_3.jpg,Blue_Star_Grid_4.jpg,right,727.33500006143,true,low,NA,NA,NA,NA,NA,NA,NA,false
Hml3iLk2,3ba7sxog2m30f57lxuc2l92uxdc8rv,3gs6s824suasds95tsgtfpwx1f0nw7,Hml3iLk2,2020-0188,2020-06-04,08:09:22,08:30:40,NA,incomplete,75,shape,0,1,right,Green_Triangle_Chess_3.jpg,Green_Circle_Dots_4.jpg,Blue_Triangle_Stripes_2.jpg,right,769.4549999432638,true,low,NA,NA,NA,NA,NA,NA,NA,false
Hml3iLk2,3ba7sxog2m30f57lxuc2l92uxdc8rv,3gs6s824suasds95tsgtfpwx1f0nw7,Hml3iLk2,2020-0188,2020-06-04,08:09:22,08:30:40,NA,incomplete,76,shape,0,1,right,Red_Star_Grid_3.jpg,Red_Triangle_Chess_1.jpg,Blue_Star_Dots_4.jpg,right,926.8300000112504,true,low,NA,NA,NA,NA,NA,NA,NA,false
Hml3iLk2,3ba7sxog2m30f57lxuc2l92uxdc8rv,3gs6s824suasds95tsgtfpwx1f0nw7,Hml3iLk2,2020-0188,2020-06-04,08:09:22,08:30:40,NA,incomplete,77,shape,0,1,left,Blue_Plus_Grid_2.jpg,Purple_Plus_Chess_4.jpg,Blue_Circle_Dots_1.jpg,left,578.6200000438839,true,low,NA,NA,NA,NA,NA,NA,NA,false
Hml3iLk2,3ba7sxog2m30f57lxuc2l92uxdc8rv,3gs6s824suasds95tsgtfpwx1f0nw7,Hml3iLk2,2020-0188,2020-06-04,08:09:22,08:30:40,NA,incomplete,78,shape,0,0,right,Red_Triangle_Dots_2.jpg,Red_Star_Grid_3.jpg,Green_Triangle_Stripes_1.jpg,right,831.0100000817329,true,low,NA,NA,NA,NA,NA,NA,NA,false
Hml3iLk2,3ba7sxog2m30f57lxuc2l92uxdc8rv,3gs6s824suasds95tsgtfpwx1f0nw7,Hml3iLk2,2020-0188,2020-06-04,08:09:22,08:30:40,NA,incomplete,79,shape,0,1,right,Blue_Plus_Chess_1.jpg,Blue_Star_Grid_4.jpg,Purple_Plus_Dots_2.jpg,right,777.9449999798089,true,low,NA,NA,NA,NA,NA,NA,NA,false
Hml3iLk2,3ba7sxog2m30f57lxuc2l92uxdc8rv,3gs6s824suasds95tsgtfpwx1f0nw7,Hml3iLk2,2020-0188,2020-06-04,08:09:22,08:30:40,NA,incomplete,80,shape,0,1,right,Blue_Circle_Stripes_4.jpg,Blue_Star_Chess_1.jpg,Purple_Circle_Grid_2.jpg,right,830.5399999953806,true,low,NA,NA,NA,NA,NA,NA,NA,false
Hml3iLk2,3ba7sxog2m30f57lxuc2l92uxdc8rv,3gs6s824suasds95tsgtfpwx1f0nw7,Hml3iLk2,2020-0188,2020-06-04,08:09:22,08:30:40,NA,incomplete,81,shape,0,1,left,Red_Star_Grid_2.jpg,Blue_Star_Dots_3.jpg,Red_Triangle_Chess_1.jpg,left,732.2799999965355,true,low,NA,NA,NA,NA,NA,NA,NA,false
Hml3iLk2,3ba7sxog2m30f57lxuc2l92uxdc8rv,3gs6s824suasds95tsgtfpwx1f0nw7,Hml3iLk2,2020-0188,2020-06-04,08:09:22,08:30:40,NA,incomplete,82,shape,0,1,left,Red_Circle_Chess_1.jpg,Green_Circle_Grid_4.jpg,Red_Plus_Dots_2.jpg,left,746.4999998919666,true,low,NA,NA,NA,NA,NA,NA,NA,false
Hml3iLk2,3ba7sxog2m30f57lxuc2l92uxdc8rv,3gs6s824suasds95tsgtfpwx1f0nw7,Hml3iLk2,2020-0188,2020-06-04,08:09:22,08:30:40,NA,incomplete,83,shape,0,1,right,Blue_Plus_Dots_1.jpg,Blue_Circle_Grid_4.jpg,Green_Plus_Stripes_2.jpg,right,653.27500004787,true,low,NA,NA,NA,NA,NA,NA,NA,false
Hml3iLk2,3ba7sxog2m30f57lxuc2l92uxdc8rv,3gs6s824suasds95tsgtfpwx1f0nw7,Hml3iLk2,2020-0188,2020-06-04,08:09:22,08:30:40,NA,incomplete,84,shape,0,1,left,Blue_Star_Dots_3.jpg,Red_Star_Grid_4.jpg,Blue_Circle_Chess_1.jpg,left,746.8449999578297,true,low,NA,NA,NA,NA,NA,NA,NA,false
Hml3iLk2,3ba7sxog2m30f57lxuc2l92uxdc8rv,3gs6s824suasds95tsgtfpwx1f0nw7,Hml3iLk2,2020-0188,2020-06-04,08:09:22,08:30:40,NA,incomplete,85,shape,0,1,left,Green_Star_Stripes_2.jpg,Blue_Star_Dots_4.jpg,Green_Triangle_Chess_1.jpg,left,691.4650000398979,true,low,NA,NA,NA,NA,NA,NA,NA,false
Hml3iLk2,3ba7sxog2m30f57lxuc2l92uxdc8rv,3gs6s824suasds95tsgtfpwx1f0nw7,Hml3iLk2,2020-0188,2020-06-04,08:09:22,08:30:40,NA,incomplete,86,shape,0,1,left,Green_Star_Dots_1.jpg,Red_Star_Stripes_3.jpg,Green_Circle_Chess_4.jpg,left,645.7449999870732,true,low,NA,NA,NA,NA,NA,NA,NA,false
Hml3iLk2,3ba7sxog2m30f57lxuc2l92uxdc8rv,3gs6s824suasds95tsgtfpwx1f0nw7,Hml3iLk2,2020-0188,2020-06-04,08:09:22,08:30:40,NA,incomplete,87,shape,0,1,right,Red_Circle_Grid_2.jpg,Red_Star_Chess_1.jpg,Purple_Circle_Stripes_4.jpg,right,644.5800000801682,true,low,NA,NA,NA,NA,NA,NA,NA,false
Hml3iLk2,3ba7sxog2m30f57lxuc2l92uxdc8rv,3gs6s824suasds95tsgtfpwx1f0nw7,Hml3iLk2,2020-0188,2020-06-04,08:09:22,08:30:40,NA,incomplete,88,shape,0,1,right,Green_Circle_Stripes_1.jpg,Green_Plus_Chess_2.jpg,Blue_Circle_Grid_4.jpg,right,665.5400000745431,true,low,NA,NA,NA,NA,NA,NA,NA,false
Hml3iLk2,3ba7sxog2m30f57lxuc2l92uxdc8rv,3gs6s824suasds95tsgtfpwx1f0nw7,Hml3iLk2,2020-0188,2020-06-04,08:09:22,08:30:40,NA,incomplete,89,shape,0,0,left,Purple_Plus_Dots_1.jpg,Red_Plus_Stripes_2.jpg,Purple_Triangle_Grid_4.jpg,left,834.5549999503419,true,low,NA,NA,NA,NA,NA,NA,NA,false
Hml3iLk2,3ba7sxog2m30f57lxuc2l92uxdc8rv,3gs6s824suasds95tsgtfpwx1f0nw7,Hml3iLk2,2020-0188,2020-06-04,08:09:22,08:30:40,NA,incomplete,90,color,1,0,right,Red_Triangle_Stripes_2.jpg,Purple_Triangle_Grid_3.jpg,Red_Star_Chess_1.jpg,left,792.3799999989569,false,low,NA,NA,NA,NA,NA,NA,NA,false
Hml3iLk2,3ba7sxog2m30f57lxuc2l92uxdc8rv,3gs6s824suasds95tsgtfpwx1f0nw7,Hml3iLk2,2020-0188,2020-06-04,08:09:22,08:30:40,NA,incomplete,91,color,1,1,right,Red_Star_Stripes_1.jpg,Green_Star_Chess_3.jpg,Red_Circle_Dots_4.jpg,left,856.9500000448897,false,low,NA,NA,NA,NA,NA,NA,NA,false
Hml3iLk2,3ba7sxog2m30f57lxuc2l92uxdc8rv,3gs6s824suasds95tsgtfpwx1f0nw7,Hml3iLk2,2020-0188,2020-06-04,08:09:22,08:30:40,NA,incomplete,92,color,1,1,right,Blue_Plus_Grid_1.jpg,Green_Plus_Chess_3.jpg,Blue_Triangle_Stripes_4.jpg,left,1242.9149999516085,false,low,NA,NA,NA,NA,NA,NA,NA,false
Hml3iLk2,3ba7sxog2m30f57lxuc2l92uxdc8rv,3gs6s824suasds95tsgtfpwx1f0nw7,Hml3iLk2,2020-0188,2020-06-04,08:09:22,08:30:40,NA,incomplete,93,color,1,1,right,Green_Star_Stripes_2.jpg,Purple_Star_Dots_3.jpg,Green_Circle_Grid_1.jpg,right,776.8449999857694,true,low,NA,NA,NA,NA,NA,NA,NA,false
Hml3iLk2,3ba7sxog2m30f57lxuc2l92uxdc8rv,3gs6s824suasds95tsgtfpwx1f0nw7,Hml3iLk2,2020-0188,2020-06-04,08:09:22,08:30:40,NA,incomplete,94,color,1,1,left,Red_Circle_Grid_2.jpg,Red_Plus_Stripes_1.jpg,Blue_Circle_Chess_4.jpg,left,1012.7999999094754,true,low,NA,NA,NA,NA,NA,NA,NA,false
Hml3iLk2,3ba7sxog2m30f57lxuc2l92uxdc8rv,3gs6s824suasds95tsgtfpwx1f0nw7,Hml3iLk2,2020-0188,2020-06-04,08:09:22,08:30:40,NA,incomplete,95,color,1,1,right,Blue_Star_Dots_2.jpg,Green_Star_Grid_4.jpg,Blue_Circle_Stripes_3.jpg,left,800.1250000670552,false,low,NA,NA,NA,NA,NA,NA,NA,false
Hml3iLk2,3ba7sxog2m30f57lxuc2l92uxdc8rv,3gs6s824suasds95tsgtfpwx1f0nw7,Hml3iLk2,2020-0188,2020-06-04,08:09:22,08:30:40,NA,incomplete,96,color,1,1,left,Blue_Plus_Grid_3.jpg,Blue_Star_Dots_1.jpg,Red_Plus_Chess_4.jpg,left,550.2799999667332,true,low,NA,NA,NA,NA,NA,NA,NA,false
Hml3iLk2,3ba7sxog2m30f57lxuc2l92uxdc8rv,3gs6s824suasds95tsgtfpwx1f0nw7,Hml3iLk2,2020-0188,2020-06-04,08:09:22,08:30:40,NA,incomplete,97,color,1,1,right,Blue_Circle_Dots_2.jpg,Red_Circle_Stripes_4.jpg,Blue_Star_Chess_3.jpg,right,613.395000109449,true,low,NA,NA,NA,NA,NA,NA,NA,false
Hml3iLk2,3ba7sxog2m30f57lxuc2l92uxdc8rv,3gs6s824suasds95tsgtfpwx1f0nw7,Hml3iLk2,2020-0188,2020-06-04,08:09:22,08:30:40,NA,incomplete,98,color,1,1,left,Purple_Circle_Stripes_1.jpg,Purple_Plus_Dots_2.jpg,Green_Circle_Chess_3.jpg,left,863.8199999695644,true,low,NA,NA,NA,NA,NA,NA,NA,false
Hml3iLk2,3ba7sxog2m30f57lxuc2l92uxdc8rv,3gs6s824suasds95tsgtfpwx1f0nw7,Hml3iLk2,2020-0188,2020-06-04,08:09:22,08:30:40,NA,incomplete,99,color,1,1,right,Purple_Plus_Grid_3.jpg,Red_Plus_Stripes_1.jpg,Purple_Star_Chess_2.jpg,right,684.6999999834225,true,low,NA,NA,NA,NA,NA,NA,NA,false
Hml3iLk2,3ba7sxog2m30f57lxuc2l92uxdc8rv,3gs6s824suasds95tsgtfpwx1f0nw7,Hml3iLk2,2020-0188,2020-06-04,08:09:22,08:30:40,NA,incomplete,100,color,1,1,left,Blue_Star_Grid_4.jpg,Blue_Triangle_Chess_1.jpg,Purple_Star_Stripes_3.jpg,right,733.0599999986589,false,low,NA,NA,NA,NA,NA,NA,NA,false
Hml3iLk2,3ba7sxog2m30f57lxuc2l92uxdc8rv,3gs6s824suasds95tsgtfpwx1f0nw7,Hml3iLk2,2020-0188,2020-06-04,08:09:22,08:30:40,NA,incomplete,101,color,1,1,right,Blue_Star_Stripes_2.jpg,Purple_Star_Dots_1.jpg,Blue_Circle_Chess_3.jpg,right,809.4199999468401,true,low,NA,NA,NA,NA,NA,NA,NA,false
Hml3iLk2,3ba7sxog2m30f57lxuc2l92uxdc8rv,3gs6s824suasds95tsgtfpwx1f0nw7,Hml3iLk2,2020-0188,2020-06-04,08:09:22,08:30:40,NA,incomplete,102,color,1,1,left,Purple_Plus_Dots_1.jpg,Purple_Star_Stripes_4.jpg,Red_Plus_Chess_2.jpg,left,532.1199999889359,true,low,NA,NA,NA,NA,NA,NA,NA,false
Hml3iLk2,3ba7sxog2m30f57lxuc2l92uxdc8rv,3gs6s824suasds95tsgtfpwx1f0nw7,Hml3iLk2,2020-0188,2020-06-04,08:09:22,08:30:40,NA,incomplete,103,color,1,1,right,Red_Circle_Grid_2.jpg,Purple_Circle_Chess_1.jpg,Red_Star_Stripes_4.jpg,right,564.2500000540167,true,low,NA,NA,NA,NA,NA,NA,NA,false
Hml3iLk2,3ba7sxog2m30f57lxuc2l92uxdc8rv,3gs6s824suasds95tsgtfpwx1f0nw7,Hml3iLk2,2020-0188,2020-06-04,08:09:22,08:30:40,NA,incomplete,104,color,1,1,left,Purple_Circle_Chess_2.jpg,Purple_Triangle_Stripes_3.jpg,Blue_Circle_Grid_1.jpg,left,474.56500004045665,true,low,NA,NA,NA,NA,NA,NA,NA,false
Hml3iLk2,3ba7sxog2m30f57lxuc2l92uxdc8rv,3gs6s824suasds95tsgtfpwx1f0nw7,Hml3iLk2,2020-0188,2020-06-04,08:09:22,08:30:40,NA,incomplete,105,color,1,1,right,Blue_Plus_Stripes_3.jpg,Red_Plus_Chess_1.jpg,Blue_Circle_Grid_4.jpg,right,512.4899999937043,true,low,NA,NA,NA,NA,NA,NA,NA,false
Hml3iLk2,3ba7sxog2m30f57lxuc2l92uxdc8rv,3gs6s824suasds95tsgtfpwx1f0nw7,Hml3iLk2,2020-0188,2020-06-04,08:09:22,08:30:40,NA,incomplete,106,color,1,1,right,Blue_Star_Chess_4.jpg,Red_Star_Grid_1.jpg,Blue_Triangle_Stripes_2.jpg,right,470.9850000217557,true,low,NA,NA,NA,NA,NA,NA,NA,false
Hml3iLk2,3ba7sxog2m30f57lxuc2l92uxdc8rv,3gs6s824suasds95tsgtfpwx1f0nw7,Hml3iLk2,2020-0188,2020-06-04,08:09:22,08:30:40,NA,incomplete,107,color,1,1,right,Red_Triangle_Dots_3.jpg,Purple_Triangle_Chess_2.jpg,Red_Plus_Grid_4.jpg,right,649.680000031367,true,low,NA,NA,NA,NA,NA,NA,NA,false
Hml3iLk2,3ba7sxog2m30f57lxuc2l92uxdc8rv,3gs6s824suasds95tsgtfpwx1f0nw7,Hml3iLk2,2020-0188,2020-06-04,08:09:22,08:30:40,NA,incomplete,108,color,1,0,left,Purple_Star_Dots_1.jpg,Purple_Triangle_Grid_2.jpg,Red_Star_Stripes_4.jpg,left,897.7099999319762,true,low,NA,NA,NA,NA,NA,NA,NA,false
Hml3iLk2,3ba7sxog2m30f57lxuc2l92uxdc8rv,3gs6s824suasds95tsgtfpwx1f0nw7,Hml3iLk2,2020-0188,2020-06-04,08:09:22,08:30:40,NA,incomplete,109,color,1,1,left,Blue_Triangle_Grid_3.jpg,Blue_Plus_Stripes_4.jpg,Green_Triangle_Dots_2.jpg,left,703.1499999575317,true,low,NA,NA,NA,NA,NA,NA,NA,false
Hml3iLk2,3ba7sxog2m30f57lxuc2l92uxdc8rv,3gs6s824suasds95tsgtfpwx1f0nw7,Hml3iLk2,2020-0188,2020-06-04,08:09:22,08:30:40,NA,incomplete,110,color,1,0,right,Purple_Circle_Dots_1.jpg,Green_Circle_Chess_2.jpg,Purple_Plus_Stripes_4.jpg,right,662.2650000499561,true,low,NA,NA,NA,NA,NA,NA,NA,false
Hml3iLk2,3ba7sxog2m30f57lxuc2l92uxdc8rv,3gs6s824suasds95tsgtfpwx1f0nw7,Hml3iLk2,2020-0188,2020-06-04,08:09:22,08:30:40,NA,incomplete,111,color,1,0,right,Red_Star_Stripes_1.jpg,Blue_Star_Dots_3.jpg,Red_Circle_Chess_2.jpg,left,1242.5900000380352,false,low,NA,NA,NA,NA,NA,NA,NA,false
Hml3iLk2,3ba7sxog2m30f57lxuc2l92uxdc8rv,3gs6s824suasds95tsgtfpwx1f0nw7,Hml3iLk2,2020-0188,2020-06-04,08:09:22,08:30:40,NA,incomplete,112,color,1,1,right,Red_Plus_Dots_1.jpg,Blue_Plus_Stripes_4.jpg,Red_Triangle_Grid_3.jpg,right,1432.3500000173226,true,low,NA,NA,NA,NA,NA,NA,NA,false
Hml3iLk2,3ba7sxog2m30f57lxuc2l92uxdc8rv,3gs6s824suasds95tsgtfpwx1f0nw7,Hml3iLk2,2020-0188,2020-06-04,08:09:22,08:30:40,NA,incomplete,113,color,1,0,right,Purple_Circle_Stripes_2.jpg,Red_Circle_Dots_4.jpg,Purple_Star_Grid_1.jpg,right,677.4199999636039,true,low,NA,NA,NA,NA,NA,NA,NA,false
Hml3iLk2,3ba7sxog2m30f57lxuc2l92uxdc8rv,3gs6s824suasds95tsgtfpwx1f0nw7,Hml3iLk2,2020-0188,2020-06-04,08:09:22,08:30:40,NA,incomplete,114,color,1,1,right,Blue_Circle_Stripes_4.jpg,Green_Circle_Chess_3.jpg,Blue_Plus_Grid_1.jpg,right,1060.6350000016391,true,low,NA,NA,NA,NA,NA,NA,NA,false
Hml3iLk2,3ba7sxog2m30f57lxuc2l92uxdc8rv,3gs6s824suasds95tsgtfpwx1f0nw7,Hml3iLk2,2020-0188,2020-06-04,08:09:22,08:30:40,NA,incomplete,115,color,1,1,left,Green_Star_Grid_4.jpg,Green_Plus_Chess_2.jpg,Red_Star_Stripes_3.jpg,left,772.2999999532476,true,low,NA,NA,NA,NA,NA,NA,NA,false
Hml3iLk2,3ba7sxog2m30f57lxuc2l92uxdc8rv,3gs6s824suasds95tsgtfpwx1f0nw7,Hml3iLk2,2020-0188,2020-06-04,08:09:22,08:30:40,NA,incomplete,116,color,1,1,right,Green_Triangle_Grid_2.jpg,Blue_Triangle_Stripes_1.jpg,Green_Plus_Chess_3.jpg,right,671.7600000556558,true,low,NA,NA,NA,NA,NA,NA,NA,false
Hml3iLk2,3ba7sxog2m30f57lxuc2l92uxdc8rv,3gs6s824suasds95tsgtfpwx1f0nw7,Hml3iLk2,2020-0188,2020-06-04,08:09:22,08:30:40,NA,incomplete,117,color,1,0,right,Red_Circle_Chess_2.jpg,Purple_Circle_Stripes_4.jpg,Red_Plus_Grid_1.jpg,right,829.8299999441952,true,low,NA,NA,NA,NA,NA,NA,NA,false
Hml3iLk2,3ba7sxog2m30f57lxuc2l92uxdc8rv,3gs6s824suasds95tsgtfpwx1f0nw7,Hml3iLk2,2020-0188,2020-06-04,08:09:22,08:30:40,NA,incomplete,118,color,1,0,right,Green_Triangle_Grid_4.jpg,Purple_Triangle_Chess_3.jpg,Green_Circle_Stripes_1.jpg,right,796.8700000783429,true,low,NA,NA,NA,NA,NA,NA,NA,false
Hml3iLk2,3ba7sxog2m30f57lxuc2l92uxdc8rv,3gs6s824suasds95tsgtfpwx1f0nw7,Hml3iLk2,2020-0188,2020-06-04,08:09:22,08:30:40,NA,incomplete,119,color,1,1,right,Red_Triangle_Stripes_3.jpg,Blue_Triangle_Grid_2.jpg,Red_Star_Dots_1.jpg,left,913.03500009235,false,low,NA,NA,NA,NA,NA,NA,NA,false
Hml3iLk2,3ba7sxog2m30f57lxuc2l92uxdc8rv,3gs6s824suasds95tsgtfpwx1f0nw7,Hml3iLk2,2020-0188,2020-06-04,08:09:22,08:30:40,NA,incomplete,120,race,2,1,left,A_F_14.jpg,A_M_13.jpg,C_F_03.jpg,NA,NA,NA,low,NA,NA,NA,NA,NA,NA,NA,false
Hml3iLk2,3ba7sxog2m30f57lxuc2l92uxdc8rv,3gs6s824suasds95tsgtfpwx1f0nw7,Hml3iLk2,2020-0188,2020-06-04,08:09:22,08:30:40,NA,incomplete,121,race,2,1,right,C_F_02.jpg,A_F_11.jpg,C_M_01.jpg,left,1358.1349999876693,false,low,NA,NA,NA,NA,NA,NA,NA,false
Hml3iLk2,3ba7sxog2m30f57lxuc2l92uxdc8rv,3gs6s824suasds95tsgtfpwx1f0nw7,Hml3iLk2,2020-0188,2020-06-04,08:09:22,08:30:40,NA,incomplete,122,race,2,0,left,C_F_04.jpg,C_M_12.jpg,A_F_03.jpg,left,1269.1999999806285,true,low,NA,NA,NA,NA,NA,NA,NA,false
Hml3iLk2,3ba7sxog2m30f57lxuc2l92uxdc8rv,3gs6s824suasds95tsgtfpwx1f0nw7,Hml3iLk2,2020-0188,2020-06-04,08:09:22,08:30:40,NA,incomplete,123,race,2,1,left,C_M_03.jpg,C_F_06.jpg,A_M_11.jpg,right,1785.0200000684708,false,low,NA,NA,NA,NA,NA,NA,NA,false
Hml3iLk2,3ba7sxog2m30f57lxuc2l92uxdc8rv,3gs6s824suasds95tsgtfpwx1f0nw7,Hml3iLk2,2020-0188,2020-06-04,08:09:22,08:30:40,NA,incomplete,124,race,2,1,right,A_F_13.jpg,C_F_15.jpg,A_M_05.jpg,left,940.5900000128895,false,low,NA,NA,NA,NA,NA,NA,NA,false
Hml3iLk2,3ba7sxog2m30f57lxuc2l92uxdc8rv,3gs6s824suasds95tsgtfpwx1f0nw7,Hml3iLk2,2020-0188,2020-06-04,08:09:22,08:30:40,NA,incomplete,125,race,2,1,right,C_M_12.jpg,A_M_11.jpg,C_F_03.jpg,left,1325.7699999958277,false,low,NA,NA,NA,NA,NA,NA,NA,false
Hml3iLk2,3ba7sxog2m30f57lxuc2l92uxdc8rv,3gs6s824suasds95tsgtfpwx1f0nw7,Hml3iLk2,2020-0188,2020-06-04,08:09:22,08:30:40,NA,incomplete,126,race,2,1,right,A_M_08.jpg,C_M_16.jpg,A_F_15.jpg,right,802.9699999606237,true,low,NA,NA,NA,NA,NA,NA,NA,false
Hml3iLk2,3ba7sxog2m30f57lxuc2l92uxdc8rv,3gs6s824suasds95tsgtfpwx1f0nw7,Hml3iLk2,2020-0188,2020-06-04,08:09:22,08:30:40,NA,incomplete,127,race,2,1,left,C_M_02.jpg,C_F_09.jpg,A_M_07.jpg,left,1091.0000000149012,true,low,NA,NA,NA,NA,NA,NA,NA,false
Hml3iLk2,3ba7sxog2m30f57lxuc2l92uxdc8rv,3gs6s824suasds95tsgtfpwx1f0nw7,Hml3iLk2,2020-0188,2020-06-04,08:09:22,08:30:40,NA,incomplete,128,race,2,0,right,C_F_13.jpg,A_F_08.jpg,C_M_14.jpg,right,1353.095000027679,true,low,NA,NA,NA,NA,NA,NA,NA,false
Hml3iLk2,3ba7sxog2m30f57lxuc2l92uxdc8rv,3gs6s824suasds95tsgtfpwx1f0nw7,Hml3iLk2,2020-0188,2020-06-04,08:09:22,08:30:40,NA,incomplete,129,race,2,1,left,A_M_14.jpg,A_F_11.jpg,C_M_03.jpg,left,1230.2200000267476,true,low,NA,NA,NA,NA,NA,NA,NA,false
Hml3iLk2,3ba7sxog2m30f57lxuc2l92uxdc8rv,3gs6s824suasds95tsgtfpwx1f0nw7,Hml3iLk2,2020-0188,2020-06-04,08:09:22,08:30:40,NA,incomplete,130,race,2,1,left,C_F_06.jpg,C_M_15.jpg,A_F_01.jpg,left,972.9749999241903,true,low,NA,NA,NA,NA,NA,NA,NA,false
Hml3iLk2,3ba7sxog2m30f57lxuc2l92uxdc8rv,3gs6s824suasds95tsgtfpwx1f0nw7,Hml3iLk2,2020-0188,2020-06-04,08:09:22,08:30:40,NA,incomplete,131,race,2,0,right,A_M_11.jpg,C_M_10.jpg,A_F_14.jpg,right,970.6699999514967,true,low,NA,NA,NA,NA,NA,NA,NA,false
Hml3iLk2,3ba7sxog2m30f57lxuc2l92uxdc8rv,3gs6s824suasds95tsgtfpwx1f0nw7,Hml3iLk2,2020-0188,2020-06-04,08:09:22,08:30:40,NA,incomplete,132,race,2,1,left,A_M_14.jpg,A_F_06.jpg,C_M_02.jpg,left,1212.3249999713153,true,low,NA,NA,NA,NA,NA,NA,NA,false
Hml3iLk2,3ba7sxog2m30f57lxuc2l92uxdc8rv,3gs6s824suasds95tsgtfpwx1f0nw7,Hml3iLk2,2020-0188,2020-06-04,08:09:22,08:30:40,NA,incomplete,133,race,2,1,right,A_M_13.jpg,C_M_06.jpg,A_F_04.jpg,right,1467.1899999957532,true,low,NA,NA,NA,NA,NA,NA,NA,false
Hml3iLk2,3ba7sxog2m30f57lxuc2l92uxdc8rv,3gs6s824suasds95tsgtfpwx1f0nw7,Hml3iLk2,2020-0188,2020-06-04,08:09:22,08:30:40,NA,incomplete,134,race,2,0,right,C_M_13.jpg,A_M_05.jpg,C_F_15.jpg,right,1868.5249999398366,true,low,NA,NA,NA,NA,NA,NA,NA,false
Hml3iLk2,3ba7sxog2m30f57lxuc2l92uxdc8rv,3gs6s824suasds95tsgtfpwx1f0nw7,Hml3iLk2,2020-0188,2020-06-04,08:09:22,08:30:40,NA,incomplete,135,race,2,1,right,C_F_01.jpg,A_F_05.jpg,C_M_12.jpg,left,1471.434999955818,false,low,NA,NA,NA,NA,NA,NA,NA,false
Hml3iLk2,3ba7sxog2m30f57lxuc2l92uxdc8rv,3gs6s824suasds95tsgtfpwx1f0nw7,Hml3iLk2,2020-0188,2020-06-04,08:09:22,08:30:40,NA,incomplete,136,race,2,1,right,A_F_16.jpg,C_F_11.jpg,A_M_09.jpg,right,1372.3800000734627,true,low,NA,NA,NA,NA,NA,NA,NA,false
Hml3iLk2,3ba7sxog2m30f57lxuc2l92uxdc8rv,3gs6s824suasds95tsgtfpwx1f0nw7,Hml3iLk2,2020-0188,2020-06-04,08:09:22,08:30:40,NA,incomplete,137,race,2,0,left,A_M_09.jpg,A_F_10.jpg,C_M_08.jpg,left,1075.055000022985,true,low,NA,NA,NA,NA,NA,NA,NA,false
Hml3iLk2,3ba7sxog2m30f57lxuc2l92uxdc8rv,3gs6s824suasds95tsgtfpwx1f0nw7,Hml3iLk2,2020-0188,2020-06-04,08:09:22,08:30:40,NA,incomplete,138,race,2,1,right,C_F_12.jpg,A_F_04.jpg,C_M_13.jpg,right,1302.8599999379367,true,low,NA,NA,NA,NA,NA,NA,NA,false
Hml3iLk2,3ba7sxog2m30f57lxuc2l92uxdc8rv,3gs6s824suasds95tsgtfpwx1f0nw7,Hml3iLk2,2020-0188,2020-06-04,08:09:22,08:30:40,NA,incomplete,139,race,2,1,right,C_F_13.jpg,A_F_08.jpg,C_M_09.jpg,right,1519.8450000025332,true,low,NA,NA,NA,NA,NA,NA,NA,false
Hml3iLk2,3ba7sxog2m30f57lxuc2l92uxdc8rv,3gs6s824suasds95tsgtfpwx1f0nw7,Hml3iLk2,2020-0188,2020-06-04,08:09:22,08:30:40,NA,incomplete,140,gender,3,1,right,A_F_06.jpg,A_M_09.jpg,C_F_08.jpg,left,840.8199999248609,false,low,NA,NA,NA,NA,NA,NA,NA,false
Hml3iLk2,3ba7sxog2m30f57lxuc2l92uxdc8rv,3gs6s824suasds95tsgtfpwx1f0nw7,Hml3iLk2,2020-0188,2020-06-04,08:09:22,08:30:40,NA,incomplete,141,gender,3,1,left,A_M_02.jpg,C_M_14.jpg,A_F_13.jpg,right,951.9349999027327,false,low,NA,NA,NA,NA,NA,NA,NA,false
Hml3iLk2,3ba7sxog2m30f57lxuc2l92uxdc8rv,3gs6s824suasds95tsgtfpwx1f0nw7,Hml3iLk2,2020-0188,2020-06-04,08:09:22,08:30:40,NA,incomplete,142,gender,3,1,left,C_F_05.jpg,A_F_01.jpg,C_M_16.jpg,right,972.4150000838563,false,low,NA,NA,NA,NA,NA,NA,NA,false
Hml3iLk2,3ba7sxog2m30f57lxuc2l92uxdc8rv,3gs6s824suasds95tsgtfpwx1f0nw7,Hml3iLk2,2020-0188,2020-06-04,08:09:22,08:30:40,NA,incomplete,143,gender,3,1,left,C_M_11.jpg,A_M_01.jpg,C_F_13.jpg,right,1587.870000046678,false,low,NA,NA,NA,NA,NA,NA,NA,false
Hml3iLk2,3ba7sxog2m30f57lxuc2l92uxdc8rv,3gs6s824suasds95tsgtfpwx1f0nw7,Hml3iLk2,2020-0188,2020-06-04,08:09:22,08:30:40,NA,incomplete,144,gender,3,1,left,A_M_03.jpg,C_M_08.jpg,A_F_06.jpg,left,1122.3250000039116,true,low,NA,NA,NA,NA,NA,NA,NA,false
Hml3iLk2,3ba7sxog2m30f57lxuc2l92uxdc8rv,3gs6s824suasds95tsgtfpwx1f0nw7,Hml3iLk2,2020-0188,2020-06-04,08:09:22,08:30:40,NA,incomplete,145,gender,3,1,right,A_F_13.jpg,A_M_09.jpg,C_F_03.jpg,right,947.649999987334,true,low,NA,NA,NA,NA,NA,NA,NA,false
Hml3iLk2,3ba7sxog2m30f57lxuc2l92uxdc8rv,3gs6s824suasds95tsgtfpwx1f0nw7,Hml3iLk2,2020-0188,2020-06-04,08:09:22,08:30:40,NA,incomplete,146,gender,3,1,left,C_M_09.jpg,A_M_04.jpg,C_F_12.jpg,left,882.0500000147149,true,low,NA,NA,NA,NA,NA,NA,NA,false
Hml3iLk2,3ba7sxog2m30f57lxuc2l92uxdc8rv,3gs6s824suasds95tsgtfpwx1f0nw7,Hml3iLk2,2020-0188,2020-06-04,08:09:22,08:30:40,NA,incomplete,147,gender,3,1,right,A_F_05.jpg,A_M_03.jpg,C_F_09.jpg,left,1530.4000000469387,false,low,NA,NA,NA,NA,NA,NA,NA,false
Hml3iLk2,3ba7sxog2m30f57lxuc2l92uxdc8rv,3gs6s824suasds95tsgtfpwx1f0nw7,Hml3iLk2,2020-0188,2020-06-04,08:09:22,08:30:40,NA,incomplete,148,gender,3,1,right,C_M_15.jpg,C_F_08.jpg,A_M_14.jpg,right,995.0899999821559,true,low,NA,NA,NA,NA,NA,NA,NA,false
Hml3iLk2,3ba7sxog2m30f57lxuc2l92uxdc8rv,3gs6s824suasds95tsgtfpwx1f0nw7,Hml3iLk2,2020-0188,2020-06-04,08:09:22,08:30:40,NA,incomplete,149,gender,3,0,right,A_F_05.jpg,A_M_16.jpg,C_F_06.jpg,right,1054.6399999875575,true,low,NA,NA,NA,NA,NA,NA,NA,false
Hml3iLk2,3ba7sxog2m30f57lxuc2l92uxdc8rv,3gs6s824suasds95tsgtfpwx1f0nw7,Hml3iLk2,2020-0188,2020-06-04,08:09:22,08:30:40,NA,incomplete,150,gender,3,1,right,C_M_09.jpg,C_F_11.jpg,A_M_16.jpg,right,928.4350000089034,true,low,NA,NA,NA,NA,NA,NA,NA,false
Hml3iLk2,3ba7sxog2m30f57lxuc2l92uxdc8rv,3gs6s824suasds95tsgtfpwx1f0nw7,Hml3iLk2,2020-0188,2020-06-04,08:09:22,08:30:40,NA,incomplete,151,gender,3,1,right,A_M_04.jpg,A_F_16.jpg,C_M_08.jpg,left,873.8400000147521,false,low,NA,NA,NA,NA,NA,NA,NA,false
Hml3iLk2,3ba7sxog2m30f57lxuc2l92uxdc8rv,3gs6s824suasds95tsgtfpwx1f0nw7,Hml3iLk2,2020-0188,2020-06-04,08:09:22,08:30:40,NA,incomplete,152,gender,3,0,right,A_M_12.jpg,A_F_07.jpg,C_M_09.jpg,right,909.3300000531599,true,low,NA,NA,NA,NA,NA,NA,NA,false
Hml3iLk2,3ba7sxog2m30f57lxuc2l92uxdc8rv,3gs6s824suasds95tsgtfpwx1f0nw7,Hml3iLk2,2020-0188,2020-06-04,08:09:22,08:30:40,NA,incomplete,153,gender,3,1,right,A_F_01.jpg,A_M_06.jpg,C_F_04.jpg,right,1303.264999995008,true,low,NA,NA,NA,NA,NA,NA,NA,false
Hml3iLk2,3ba7sxog2m30f57lxuc2l92uxdc8rv,3gs6s824suasds95tsgtfpwx1f0nw7,Hml3iLk2,2020-0188,2020-06-04,08:09:22,08:30:40,NA,incomplete,154,gender,3,1,right,A_F_11.jpg,A_M_10.jpg,C_F_05.jpg,right,789.9250000482425,true,low,NA,NA,NA,NA,NA,NA,NA,false
Hml3iLk2,3ba7sxog2m30f57lxuc2l92uxdc8rv,3gs6s824suasds95tsgtfpwx1f0nw7,Hml3iLk2,2020-0188,2020-06-04,08:09:22,08:30:40,NA,incomplete,155,gender,3,0,right,C_F_06.jpg,C_M_07.jpg,A_F_08.jpg,right,966.2599998991936,true,low,NA,NA,NA,NA,NA,NA,NA,false
Hml3iLk2,3ba7sxog2m30f57lxuc2l92uxdc8rv,3gs6s824suasds95tsgtfpwx1f0nw7,Hml3iLk2,2020-0188,2020-06-04,08:09:22,08:30:40,NA,incomplete,156,gender,3,1,left,C_M_06.jpg,A_M_12.jpg,C_F_01.jpg,left,1273.39500002563,true,low,NA,NA,NA,NA,NA,NA,NA,false
Hml3iLk2,3ba7sxog2m30f57lxuc2l92uxdc8rv,3gs6s824suasds95tsgtfpwx1f0nw7,Hml3iLk2,2020-0188,2020-06-04,08:09:22,08:30:40,NA,incomplete,157,gender,3,0,left,C_M_01.jpg,A_M_16.jpg,C_F_09.jpg,left,934.7650000127032,true,low,NA,NA,NA,NA,NA,NA,NA,false
Hml3iLk2,3ba7sxog2m30f57lxuc2l92uxdc8rv,3gs6s824suasds95tsgtfpwx1f0nw7,Hml3iLk2,2020-0188,2020-06-04,08:09:22,08:30:40,NA,incomplete,158,gender,3,1,right,C_M_14.jpg,C_F_07.jpg,A_M_16.jpg,none,0,false,low,NA,NA,NA,NA,NA,NA,NA,false
Hml3iLk2,3ba7sxog2m30f57lxuc2l92uxdc8rv,3gs6s824suasds95tsgtfpwx1f0nw7,Hml3iLk2,2020-0188,2020-06-04,08:09:22,08:30:40,NA,incomplete,159,gender,3,1,right,A_F_04.jpg,A_M_09.jpg,C_F_01.jpg,right,958.6450000060722,true,low,NA,NA,NA,NA,NA,NA,NA,false
Hml3iLk2,3ba7sxog2m30f57lxuc2l92uxdc8rv,3gs6s824suasds95tsgtfpwx1f0nw7,Hml3iLk2,2020-0188,2020-06-04,08:09:22,08:30:40,NA,incomplete,160,race,2,1,left,C_M_07.jpg,C_F_03.jpg,A_M_05.jpg,right,670.1549999415874,false,low,NA,NA,NA,NA,NA,NA,NA,false
Hml3iLk2,3ba7sxog2m30f57lxuc2l92uxdc8rv,3gs6s824suasds95tsgtfpwx1f0nw7,Hml3iLk2,2020-0188,2020-06-04,08:09:22,08:30:40,NA,incomplete,161,race,2,1,left,A_M_16.jpg,A_F_05.jpg,C_M_06.jpg,right,811.9449999649078,false,low,NA,NA,NA,NA,NA,NA,NA,false
Hml3iLk2,3ba7sxog2m30f57lxuc2l92uxdc8rv,3gs6s824suasds95tsgtfpwx1f0nw7,Hml3iLk2,2020-0188,2020-06-04,08:09:22,08:30:40,NA,incomplete,162,race,2,1,left,A_F_11.jpg,A_M_08.jpg,C_F_05.jpg,none,0,false,low,NA,NA,NA,NA,NA,NA,NA,false
Hml3iLk2,3ba7sxog2m30f57lxuc2l92uxdc8rv,3gs6s824suasds95tsgtfpwx1f0nw7,Hml3iLk2,2020-0188,2020-06-04,08:09:22,08:30:40,NA,incomplete,163,race,2,1,left,A_M_05.jpg,A_F_14.jpg,C_M_16.jpg,left,855.2800000179559,true,low,NA,NA,NA,NA,NA,NA,NA,false
Hml3iLk2,3ba7sxog2m30f57lxuc2l92uxdc8rv,3gs6s824suasds95tsgtfpwx1f0nw7,Hml3iLk2,2020-0188,2020-06-04,08:09:22,08:30:40,NA,incomplete,164,race,2,1,left,A_F_04.jpg,A_M_01.jpg,C_F_08.jpg,right,1888.8249999145046,false,low,NA,NA,NA,NA,NA,NA,NA,false
Hml3iLk2,3ba7sxog2m30f57lxuc2l92uxdc8rv,3gs6s824suasds95tsgtfpwx1f0nw7,Hml3iLk2,2020-0188,2020-06-04,08:09:22,08:30:40,NA,incomplete,165,race,2,1,right,A_F_05.jpg,C_F_04.jpg,A_M_08.jpg,right,874.8049999121577,true,low,NA,NA,NA,NA,NA,NA,NA,false
Hml3iLk2,3ba7sxog2m30f57lxuc2l92uxdc8rv,3gs6s824suasds95tsgtfpwx1f0nw7,Hml3iLk2,2020-0188,2020-06-04,08:09:22,08:30:40,NA,incomplete,166,race,2,1,right,C_M_07.jpg,A_M_09.jpg,C_F_12.jpg,none,0,false,low,NA,NA,NA,NA,NA,NA,NA,false
Hml3iLk2,3ba7sxog2m30f57lxuc2l92uxdc8rv,3gs6s824suasds95tsgtfpwx1f0nw7,Hml3iLk2,2020-0188,2020-06-04,08:09:22,08:30:40,NA,incomplete,167,race,2,1,left,A_F_03.jpg,A_M_09.jpg,C_F_11.jpg,left,1338.8049999484792,true,low,NA,NA,NA,NA,NA,NA,NA,false
Hml3iLk2,3ba7sxog2m30f57lxuc2l92uxdc8rv,3gs6s824suasds95tsgtfpwx1f0nw7,Hml3iLk2,2020-0188,2020-06-04,08:09:22,08:30:40,NA,incomplete,168,race,2,0,right,A_M_02.jpg,C_M_04.jpg,A_F_12.jpg,right,985.4899999918416,true,low,NA,NA,NA,NA,NA,NA,NA,false
Hml3iLk2,3ba7sxog2m30f57lxuc2l92uxdc8rv,3gs6s824suasds95tsgtfpwx1f0nw7,Hml3iLk2,2020-0188,2020-06-04,08:09:22,08:30:40,NA,incomplete,169,race,2,1,left,C_F_15.jpg,C_M_16.jpg,A_F_01.jpg,left,1246.735000051558,true,low,NA,NA,NA,NA,NA,NA,NA,false
Hml3iLk2,3ba7sxog2m30f57lxuc2l92uxdc8rv,3gs6s824suasds95tsgtfpwx1f0nw7,Hml3iLk2,2020-0188,2020-06-04,08:09:22,08:30:40,NA,incomplete,170,race,2,1,left,A_M_02.jpg,A_F_07.jpg,C_M_11.jpg,left,810.0550000090152,true,low,NA,NA,NA,NA,NA,NA,NA,false
Hml3iLk2,3ba7sxog2m30f57lxuc2l92uxdc8rv,3gs6s824suasds95tsgtfpwx1f0nw7,Hml3iLk2,2020-0188,2020-06-04,08:09:22,08:30:40,NA,incomplete,171,race,2,1,right,C_M_12.jpg,A_M_16.jpg,C_F_09.jpg,left,1014.045000076294,false,low,NA,NA,NA,NA,NA,NA,NA,false
Hml3iLk2,3ba7sxog2m30f57lxuc2l92uxdc8rv,3gs6s824suasds95tsgtfpwx1f0nw7,Hml3iLk2,2020-0188,2020-06-04,08:09:22,08:30:40,NA,incomplete,172,race,2,0,left,C_F_02.jpg,C_M_01.jpg,A_F_13.jpg,left,1511.3450000062585,true,low,NA,NA,NA,NA,NA,NA,NA,false
Hml3iLk2,3ba7sxog2m30f57lxuc2l92uxdc8rv,3gs6s824suasds95tsgtfpwx1f0nw7,Hml3iLk2,2020-0188,2020-06-04,08:09:22,08:30:40,NA,incomplete,173,race,2,1,right,C_F_09.jpg,A_F_04.jpg,C_M_06.jpg,right,1317.10500002373,true,low,NA,NA,NA,NA,NA,NA,NA,false
Hml3iLk2,3ba7sxog2m30f57lxuc2l92uxdc8rv,3gs6s824suasds95tsgtfpwx1f0nw7,Hml3iLk2,2020-0188,2020-06-04,08:09:22,08:30:40,NA,incomplete,174,race,2,0,left,A_F_02.jpg,A_M_06.jpg,C_F_10.jpg,left,1042.2249999828637,true,low,NA,NA,NA,NA,NA,NA,NA,false
Hml3iLk2,3ba7sxog2m30f57lxuc2l92uxdc8rv,3gs6s824suasds95tsgtfpwx1f0nw7,Hml3iLk2,2020-0188,2020-06-04,08:09:22,08:30:40,NA,incomplete,175,race,2,1,right,A_F_04.jpg,C_F_07.jpg,A_M_02.jpg,right,1428.734999964945,true,low,NA,NA,NA,NA,NA,NA,NA,false
Hml3iLk2,3ba7sxog2m30f57lxuc2l92uxdc8rv,3gs6s824suasds95tsgtfpwx1f0nw7,Hml3iLk2,2020-0188,2020-06-04,08:09:22,08:30:40,NA,incomplete,176,race,2,1,right,C_M_15.jpg,A_M_16.jpg,C_F_09.jpg,left,1235.7499999925494,false,low,NA,NA,NA,NA,NA,NA,NA,false
Hml3iLk2,3ba7sxog2m30f57lxuc2l92uxdc8rv,3gs6s824suasds95tsgtfpwx1f0nw7,Hml3iLk2,2020-0188,2020-06-04,08:09:22,08:30:40,NA,incomplete,177,race,2,1,left,C_M_07.jpg,C_F_02.jpg,A_M_03.jpg,left,1418.8200000207871,true,low,NA,NA,NA,NA,NA,NA,NA,false
Hml3iLk2,3ba7sxog2m30f57lxuc2l92uxdc8rv,3gs6s824suasds95tsgtfpwx1f0nw7,Hml3iLk2,2020-0188,2020-06-04,08:09:22,08:30:40,NA,incomplete,178,race,2,1,right,A_M_16.jpg,C_M_06.jpg,A_F_07.jpg,right,1025.4649999551475,true,low,NA,NA,NA,NA,NA,NA,NA,false
Hml3iLk2,3ba7sxog2m30f57lxuc2l92uxdc8rv,3gs6s824suasds95tsgtfpwx1f0nw7,Hml3iLk2,2020-0188,2020-06-04,08:09:22,08:30:40,NA,incomplete,179,race,2,1,left,A_F_15.jpg,A_M_02.jpg,C_F_03.jpg,left,1056.6049999324605,true,low,NA,NA,NA,NA,NA,NA,NA,false
Hml3iLk2,3ba7sxog2m30f57lxuc2l92uxdc8rv,3gs6s824suasds95tsgtfpwx1f0nw7,Hml3iLk2,2020-0188,2020-06-04,08:09:22,08:30:40,NA,incomplete,180,gender,3,1,left,C_M_08.jpg,A_M_11.jpg,C_F_12.jpg,right,932.7800000319257,false,low,NA,NA,NA,NA,NA,NA,NA,false
Hml3iLk2,3ba7sxog2m30f57lxuc2l92uxdc8rv,3gs6s824suasds95tsgtfpwx1f0nw7,Hml3iLk2,2020-0188,2020-06-04,08:09:22,08:30:40,NA,incomplete,181,gender,3,1,right,A_M_07.jpg,A_F_13.jpg,C_M_01.jpg,left,1820.3200000571087,false,low,NA,NA,NA,NA,NA,NA,NA,false
Hml3iLk2,3ba7sxog2m30f57lxuc2l92uxdc8rv,3gs6s824suasds95tsgtfpwx1f0nw7,Hml3iLk2,2020-0188,2020-06-04,08:09:22,08:30:40,NA,incomplete,182,gender,3,0,right,C_F_02.jpg,C_M_01.jpg,A_F_14.jpg,right,1912.7399999415502,true,low,NA,NA,NA,NA,NA,NA,NA,false
Hml3iLk2,3ba7sxog2m30f57lxuc2l92uxdc8rv,3gs6s824suasds95tsgtfpwx1f0nw7,Hml3iLk2,2020-0188,2020-06-04,08:09:22,08:30:40,NA,incomplete,183,gender,3,1,left,A_M_08.jpg,C_M_03.jpg,A_F_04.jpg,right,1090.3449999168515,false,low,NA,NA,NA,NA,NA,NA,NA,false
Hml3iLk2,3ba7sxog2m30f57lxuc2l92uxdc8rv,3gs6s824suasds95tsgtfpwx1f0nw7,Hml3iLk2,2020-0188,2020-06-04,08:09:22,08:30:40,NA,incomplete,184,gender,3,0,right,A_M_10.jpg,A_F_13.jpg,C_M_07.jpg,left,1392.1349999727681,false,low,NA,NA,NA,NA,NA,NA,NA,false
Hml3iLk2,3ba7sxog2m30f57lxuc2l92uxdc8rv,3gs6s824suasds95tsgtfpwx1f0nw7,Hml3iLk2,2020-0188,2020-06-04,08:09:22,08:30:40,NA,incomplete,185,gender,3,1,left,A_M_06.jpg,C_M_14.jpg,A_F_15.jpg,right,1091.6199999628589,false,low,NA,NA,NA,NA,NA,NA,NA,false
Hml3iLk2,3ba7sxog2m30f57lxuc2l92uxdc8rv,3gs6s824suasds95tsgtfpwx1f0nw7,Hml3iLk2,2020-0188,2020-06-04,08:09:22,08:30:40,NA,incomplete,186,gender,3,1,left,C_F_13.jpg,A_F_14.jpg,C_M_10.jpg,right,1458.0699999351054,false,low,NA,NA,NA,NA,NA,NA,NA,false
Hml3iLk2,3ba7sxog2m30f57lxuc2l92uxdc8rv,3gs6s824suasds95tsgtfpwx1f0nw7,Hml3iLk2,2020-0188,2020-06-04,08:09:22,08:30:40,NA,incomplete,187,gender,3,1,right,A_M_03.jpg,A_F_10.jpg,C_M_09.jpg,right,1195.1250000856817,true,low,NA,NA,NA,NA,NA,NA,NA,false
Hml3iLk2,3ba7sxog2m30f57lxuc2l92uxdc8rv,3gs6s824suasds95tsgtfpwx1f0nw7,Hml3iLk2,2020-0188,2020-06-04,08:09:22,08:30:40,NA,incomplete,188,gender,3,1,right,C_F_11.jpg,C_M_14.jpg,A_F_09.jpg,right,881.8800000008196,true,low,NA,NA,NA,NA,NA,NA,NA,false
Hml3iLk2,3ba7sxog2m30f57lxuc2l92uxdc8rv,3gs6s824suasds95tsgtfpwx1f0nw7,Hml3iLk2,2020-0188,2020-06-04,08:09:22,08:30:40,NA,incomplete,189,gender,3,1,left,A_M_01.jpg,C_M_09.jpg,A_F_08.jpg,left,1024.284999934025,true,low,NA,NA,NA,NA,NA,NA,NA,false
Hml3iLk2,3ba7sxog2m30f57lxuc2l92uxdc8rv,3gs6s824suasds95tsgtfpwx1f0nw7,Hml3iLk2,2020-0188,2020-06-04,08:09:22,08:30:40,NA,incomplete,190,gender,3,1,left,A_M_10.jpg,C_M_02.jpg,A_F_06.jpg,left,815.6500000040978,true,low,NA,NA,NA,NA,NA,NA,NA,false
Hml3iLk2,3ba7sxog2m30f57lxuc2l92uxdc8rv,3gs6s824suasds95tsgtfpwx1f0nw7,Hml3iLk2,2020-0188,2020-06-04,08:09:22,08:30:40,NA,incomplete,191,gender,3,1,right,C_F_02.jpg,C_M_05.jpg,A_F_15.jpg,right,882.2200000286102,true,low,NA,NA,NA,NA,NA,NA,NA,false
Hml3iLk2,3ba7sxog2m30f57lxuc2l92uxdc8rv,3gs6s824suasds95tsgtfpwx1f0nw7,Hml3iLk2,2020-0188,2020-06-04,08:09:22,08:30:40,NA,incomplete,192,gender,3,0,right,C_M_03.jpg,C_F_05.jpg,A_M_08.jpg,right,806.6349999280646,true,low,NA,NA,NA,NA,NA,NA,NA,false
Hml3iLk2,3ba7sxog2m30f57lxuc2l92uxdc8rv,3gs6s824suasds95tsgtfpwx1f0nw7,Hml3iLk2,2020-0188,2020-06-04,08:09:22,08:30:40,NA,incomplete,193,gender,3,1,left,A_M_08.jpg,C_M_12.jpg,A_F_07.jpg,left,1026.5450000297278,true,low,NA,NA,NA,NA,NA,NA,NA,false
Hml3iLk2,3ba7sxog2m30f57lxuc2l92uxdc8rv,3gs6s824suasds95tsgtfpwx1f0nw7,Hml3iLk2,2020-0188,2020-06-04,08:09:22,08:30:40,NA,incomplete,194,gender,3,1,right,C_F_08.jpg,C_M_16.jpg,A_F_15.jpg,right,673.4850000357255,true,low,NA,NA,NA,NA,NA,NA,NA,false
Hml3iLk2,3ba7sxog2m30f57lxuc2l92uxdc8rv,3gs6s824suasds95tsgtfpwx1f0nw7,Hml3iLk2,2020-0188,2020-06-04,08:09:22,08:30:40,NA,incomplete,195,gender,3,1,right,C_M_16.jpg,C_F_14.jpg,A_M_09.jpg,right,1272.0899999840185,true,low,NA,NA,NA,NA,NA,NA,NA,false
Hml3iLk2,3ba7sxog2m30f57lxuc2l92uxdc8rv,3gs6s824suasds95tsgtfpwx1f0nw7,Hml3iLk2,2020-0188,2020-06-04,08:09:22,08:30:40,NA,incomplete,196,gender,3,1,left,A_F_07.jpg,C_F_09.jpg,A_M_14.jpg,left,1152.3199999937788,true,low,NA,NA,NA,NA,NA,NA,NA,false
Hml3iLk2,3ba7sxog2m30f57lxuc2l92uxdc8rv,3gs6s824suasds95tsgtfpwx1f0nw7,Hml3iLk2,2020-0188,2020-06-04,08:09:22,08:30:40,NA,incomplete,197,gender,3,0,left,C_M_12.jpg,A_M_08.jpg,C_F_10.jpg,left,756.5650000469759,true,low,NA,NA,NA,NA,NA,NA,NA,false
Hml3iLk2,3ba7sxog2m30f57lxuc2l92uxdc8rv,3gs6s824suasds95tsgtfpwx1f0nw7,Hml3iLk2,2020-0188,2020-06-04,08:09:22,08:30:40,NA,incomplete,198,gender,3,1,left,A_M_06.jpg,C_M_04.jpg,A_F_02.jpg,left,608.1949999788776,true,low,NA,NA,NA,NA,NA,NA,NA,false
Hml3iLk2,3ba7sxog2m30f57lxuc2l92uxdc8rv,3gs6s824suasds95tsgtfpwx1f0nw7,Hml3iLk2,2020-0188,2020-06-04,08:09:22,08:30:40,NA,incomplete,199,gender,3,1,right,A_M_01.jpg,A_F_15.jpg,C_M_07.jpg,right,851.4650000724941,true,low,NA,NA,NA,NA,NA,NA,NA,false
Hml3iLk2,3ba7sxog2m30f57lxuc2l92uxdc8rv,3gs6s824suasds95tsgtfpwx1f0nw7,Hml3iLk2,2020-0188,2020-06-04,08:09:22,08:30:40,NA,incomplete,200,race,2,0,right,A_M_05.jpg,C_M_01.jpg,A_F_04.jpg,left,670.4150000587106,false,low,NA,NA,NA,NA,NA,NA,NA,false
Hml3iLk2,3ba7sxog2m30f57lxuc2l92uxdc8rv,3gs6s824suasds95tsgtfpwx1f0nw7,Hml3iLk2,2020-0188,2020-06-04,08:09:22,08:30:40,NA,incomplete,201,race,2,1,right,C_M_04.jpg,A_M_14.jpg,C_F_07.jpg,left,1118.9000000013039,false,low,NA,NA,NA,NA,NA,NA,NA,false
Hml3iLk2,3ba7sxog2m30f57lxuc2l92uxdc8rv,3gs6s824suasds95tsgtfpwx1f0nw7,Hml3iLk2,2020-0188,2020-06-04,08:09:22,08:30:40,NA,incomplete,202,race,2,1,left,C_F_15.jpg,C_M_06.jpg,A_F_08.jpg,right,842.4700000323355,false,low,NA,NA,NA,NA,NA,NA,NA,false
Hml3iLk2,3ba7sxog2m30f57lxuc2l92uxdc8rv,3gs6s824suasds95tsgtfpwx1f0nw7,Hml3iLk2,2020-0188,2020-06-04,08:09:22,08:30:40,NA,incomplete,203,race,2,0,right,C_F_04.jpg,A_F_06.jpg,C_M_02.jpg,right,1028.9649999467656,true,low,NA,NA,NA,NA,NA,NA,NA,false
Hml3iLk2,3ba7sxog2m30f57lxuc2l92uxdc8rv,3gs6s824suasds95tsgtfpwx1f0nw7,Hml3iLk2,2020-0188,2020-06-04,08:09:22,08:30:40,NA,incomplete,204,race,2,1,right,C_F_03.jpg,A_F_07.jpg,C_M_02.jpg,left,1509.624999947846,false,low,NA,NA,NA,NA,NA,NA,NA,false
Hml3iLk2,3ba7sxog2m30f57lxuc2l92uxdc8rv,3gs6s824suasds95tsgtfpwx1f0nw7,Hml3iLk2,2020-0188,2020-06-04,08:09:22,08:30:40,NA,incomplete,205,race,2,1,right,C_M_05.jpg,A_M_03.jpg,C_F_14.jpg,right,1547.9999999515712,true,low,NA,NA,NA,NA,NA,NA,NA,false
Hml3iLk2,3ba7sxog2m30f57lxuc2l92uxdc8rv,3gs6s824suasds95tsgtfpwx1f0nw7,Hml3iLk2,2020-0188,2020-06-04,08:09:22,08:30:40,NA,incomplete,206,race,2,1,right,A_M_07.jpg,C_M_10.jpg,A_F_05.jpg,right,857.6049999101087,true,low,NA,NA,NA,NA,NA,NA,NA,false
Hml3iLk2,3ba7sxog2m30f57lxuc2l92uxdc8rv,3gs6s824suasds95tsgtfpwx1f0nw7,Hml3iLk2,2020-0188,2020-06-04,08:09:22,08:30:40,NA,incomplete,207,race,2,1,left,A_F_15.jpg,A_M_14.jpg,C_F_09.jpg,right,820.4799999948591,false,low,NA,NA,NA,NA,NA,NA,NA,false
Hml3iLk2,3ba7sxog2m30f57lxuc2l92uxdc8rv,3gs6s824suasds95tsgtfpwx1f0nw7,Hml3iLk2,2020-0188,2020-06-04,08:09:22,08:30:40,NA,incomplete,208,race,2,1,right,C_M_04.jpg,A_M_03.jpg,C_F_01.jpg,left,1794.7149999672547,false,low,NA,NA,NA,NA,NA,NA,NA,false
Hml3iLk2,3ba7sxog2m30f57lxuc2l92uxdc8rv,3gs6s824suasds95tsgtfpwx1f0nw7,Hml3iLk2,2020-0188,2020-06-04,08:09:22,08:30:40,NA,incomplete,209,race,2,1,left,C_F_04.jpg,C_M_13.jpg,A_F_16.jpg,left,955.710000009276,true,low,NA,NA,NA,NA,NA,NA,NA,false
Hml3iLk2,3ba7sxog2m30f57lxuc2l92uxdc8rv,3gs6s824suasds95tsgtfpwx1f0nw7,Hml3iLk2,2020-0188,2020-06-04,08:09:22,08:30:40,NA,incomplete,210,race,2,1,right,A_M_02.jpg,C_M_05.jpg,A_F_12.jpg,left,1578.789999941364,false,low,NA,NA,NA,NA,NA,NA,NA,false
Hml3iLk2,3ba7sxog2m30f57lxuc2l92uxdc8rv,3gs6s824suasds95tsgtfpwx1f0nw7,Hml3iLk2,2020-0188,2020-06-04,08:09:22,08:30:40,NA,incomplete,211,race,2,1,right,C_M_11.jpg,A_M_12.jpg,C_F_01.jpg,left,693.2149999774992,false,low,NA,NA,NA,NA,NA,NA,NA,false
Hml3iLk2,3ba7sxog2m30f57lxuc2l92uxdc8rv,3gs6s824suasds95tsgtfpwx1f0nw7,Hml3iLk2,2020-0188,2020-06-04,08:09:22,08:30:40,NA,incomplete,212,race,2,1,right,C_M_11.jpg,A_M_13.jpg,C_F_12.jpg,right,1284.4699999550357,true,low,NA,NA,NA,NA,NA,NA,NA,false
Hml3iLk2,3ba7sxog2m30f57lxuc2l92uxdc8rv,3gs6s824suasds95tsgtfpwx1f0nw7,Hml3iLk2,2020-0188,2020-06-04,08:09:22,08:30:40,NA,incomplete,213,race,2,1,right,A_F_09.jpg,C_F_03.jpg,A_M_02.jpg,right,1489.9300000397488,true,low,NA,NA,NA,NA,NA,NA,NA,false
Hml3iLk2,3ba7sxog2m30f57lxuc2l92uxdc8rv,3gs6s824suasds95tsgtfpwx1f0nw7,Hml3iLk2,2020-0188,2020-06-04,08:09:22,08:30:40,NA,incomplete,214,race,2,1,left,A_M_06.jpg,A_F_08.jpg,C_M_13.jpg,left,1064.115000073798,true,low,NA,NA,NA,NA,NA,NA,NA,false
Hml3iLk2,3ba7sxog2m30f57lxuc2l92uxdc8rv,3gs6s824suasds95tsgtfpwx1f0nw7,Hml3iLk2,2020-0188,2020-06-04,08:09:22,08:30:40,NA,incomplete,215,race,2,1,right,A_M_09.jpg,C_M_01.jpg,A_F_07.jpg,right,1002.3649999639019,true,low,NA,NA,NA,NA,NA,NA,NA,false
Hml3iLk2,3ba7sxog2m30f57lxuc2l92uxdc8rv,3gs6s824suasds95tsgtfpwx1f0nw7,Hml3iLk2,2020-0188,2020-06-04,08:09:22,08:30:40,NA,incomplete,216,race,2,1,left,C_F_09.jpg,C_M_13.jpg,A_F_05.jpg,right,1047.1749999560416,false,low,NA,NA,NA,NA,NA,NA,NA,false
Hml3iLk2,3ba7sxog2m30f57lxuc2l92uxdc8rv,3gs6s824suasds95tsgtfpwx1f0nw7,Hml3iLk2,2020-0188,2020-06-04,08:09:22,08:30:40,NA,incomplete,217,race,2,1,right,A_M_12.jpg,C_M_07.jpg,A_F_03.jpg,right,840.0550000369549,true,low,NA,NA,NA,NA,NA,NA,NA,false
Hml3iLk2,3ba7sxog2m30f57lxuc2l92uxdc8rv,3gs6s824suasds95tsgtfpwx1f0nw7,Hml3iLk2,2020-0188,2020-06-04,08:09:22,08:30:40,NA,incomplete,218,race,2,1,left,C_M_14.jpg,C_F_07.jpg,A_M_13.jpg,left,1990.830000024289,true,low,NA,NA,NA,NA,NA,NA,NA,false
Hml3iLk2,3ba7sxog2m30f57lxuc2l92uxdc8rv,3gs6s824suasds95tsgtfpwx1f0nw7,Hml3iLk2,2020-0188,2020-06-04,08:09:22,08:30:40,NA,incomplete,219,race,2,1,right,A_M_07.jpg,C_M_10.jpg,A_F_05.jpg,right,1314.754999941215,true,low,NA,NA,NA,NA,NA,NA,NA,false
Hml3iLk2,3ba7sxog2m30f57lxuc2l92uxdc8rv,3gs6s824suasds95tsgtfpwx1f0nw7,Hml3iLk2,2020-0188,2020-06-04,08:09:22,08:30:40,NA,incomplete,220,gender,3,0,left,A_F_08.jpg,C_F_02.jpg,A_M_01.jpg,right,1581.3599999528378,false,low,NA,NA,NA,NA,NA,NA,NA,false
Hml3iLk2,3ba7sxog2m30f57lxuc2l92uxdc8rv,3gs6s824suasds95tsgtfpwx1f0nw7,Hml3iLk2,2020-0188,2020-06-04,08:09:22,08:30:40,NA,incomplete,221,gender,3,1,left,A_F_11.jpg,C_F_13.jpg,A_M_10.jpg,right,1227.2900000680238,false,low,NA,NA,NA,NA,NA,NA,NA,false
Hml3iLk2,3ba7sxog2m30f57lxuc2l92uxdc8rv,3gs6s824suasds95tsgtfpwx1f0nw7,Hml3iLk2,2020-0188,2020-06-04,08:09:22,08:30:40,NA,incomplete,222,gender,3,0,left,C_F_14.jpg,A_F_16.jpg,C_M_01.jpg,left,1574.2850000970066,true,low,NA,NA,NA,NA,NA,NA,NA,false
Hml3iLk2,3ba7sxog2m30f57lxuc2l92uxdc8rv,3gs6s824suasds95tsgtfpwx1f0nw7,Hml3iLk2,2020-0188,2020-06-04,08:09:22,08:30:40,NA,incomplete,223,gender,3,1,right,C_M_14.jpg,C_F_13.jpg,A_M_08.jpg,none,0,false,low,NA,NA,NA,NA,NA,NA,NA,false
Hml3iLk2,3ba7sxog2m30f57lxuc2l92uxdc8rv,3gs6s824suasds95tsgtfpwx1f0nw7,Hml3iLk2,2020-0188,2020-06-04,08:09:22,08:30:40,NA,incomplete,224,gender,3,1,left,C_F_06.jpg,A_F_01.jpg,C_M_05.jpg,left,1089.4149999367073,true,low,NA,NA,NA,NA,NA,NA,NA,false
Hml3iLk2,3ba7sxog2m30f57lxuc2l92uxdc8rv,3gs6s824suasds95tsgtfpwx1f0nw7,Hml3iLk2,2020-0188,2020-06-04,08:09:22,08:30:40,NA,incomplete,225,gender,3,1,left,C_F_05.jpg,A_F_02.jpg,C_M_11.jpg,right,1568.739999900572,false,low,NA,NA,NA,NA,NA,NA,NA,false
Hml3iLk2,3ba7sxog2m30f57lxuc2l92uxdc8rv,3gs6s824suasds95tsgtfpwx1f0nw7,Hml3iLk2,2020-0188,2020-06-04,08:09:22,08:30:40,NA,incomplete,226,gender,3,0,right,C_F_03.jpg,C_M_13.jpg,A_F_08.jpg,left,1331.5700000384822,false,low,NA,NA,NA,NA,NA,NA,NA,false
Hml3iLk2,3ba7sxog2m30f57lxuc2l92uxdc8rv,3gs6s824suasds95tsgtfpwx1f0nw7,Hml3iLk2,2020-0188,2020-06-04,08:09:22,08:30:40,NA,incomplete,227,gender,3,1,left,A_F_04.jpg,C_F_07.jpg,A_M_09.jpg,right,1392.024999950081,false,low,NA,NA,NA,NA,NA,NA,NA,false
Hml3iLk2,3ba7sxog2m30f57lxuc2l92uxdc8rv,3gs6s824suasds95tsgtfpwx1f0nw7,Hml3iLk2,2020-0188,2020-06-04,08:09:22,08:30:40,NA,incomplete,228,gender,3,1,right,A_F_06.jpg,A_M_10.jpg,C_F_15.jpg,left,1542.9449999937788,false,low,NA,NA,NA,NA,NA,NA,NA,false
Hml3iLk2,3ba7sxog2m30f57lxuc2l92uxdc8rv,3gs6s824suasds95tsgtfpwx1f0nw7,Hml3iLk2,2020-0188,2020-06-04,08:09:22,08:30:40,NA,incomplete,229,gender,3,1,right,C_F_02.jpg,C_M_13.jpg,A_F_12.jpg,left,1379.6299999812618,false,low,NA,NA,NA,NA,NA,NA,NA,false
Hml3iLk2,3ba7sxog2m30f57lxuc2l92uxdc8rv,3gs6s824suasds95tsgtfpwx1f0nw7,Hml3iLk2,2020-0188,2020-06-04,08:09:22,08:30:40,NA,incomplete,230,gender,3,1,right,A_M_12.jpg,A_F_14.jpg,C_M_16.jpg,left,1362.665000022389,false,low,NA,NA,NA,NA,NA,NA,NA,false
Hml3iLk2,3ba7sxog2m30f57lxuc2l92uxdc8rv,3gs6s824suasds95tsgtfpwx1f0nw7,Hml3iLk2,2020-0188,2020-06-04,08:09:22,08:30:40,NA,incomplete,231,gender,3,1,left,A_F_08.jpg,C_F_15.jpg,A_M_07.jpg,left,693.5500000836328,true,low,NA,NA,NA,NA,NA,NA,NA,false
Hml3iLk2,3ba7sxog2m30f57lxuc2l92uxdc8rv,3gs6s824suasds95tsgtfpwx1f0nw7,Hml3iLk2,2020-0188,2020-06-04,08:09:22,08:30:40,NA,incomplete,232,gender,3,0,right,A_F_08.jpg,A_M_12.jpg,C_F_04.jpg,right,1059.084999957122,true,low,NA,NA,NA,NA,NA,NA,NA,false
Hml3iLk2,3ba7sxog2m30f57lxuc2l92uxdc8rv,3gs6s824suasds95tsgtfpwx1f0nw7,Hml3iLk2,2020-0188,2020-06-04,08:09:22,08:30:40,NA,incomplete,233,gender,3,1,left,C_M_09.jpg,A_M_08.jpg,C_F_01.jpg,left,1130.1199999870732,true,low,NA,NA,NA,NA,NA,NA,NA,false
Hml3iLk2,3ba7sxog2m30f57lxuc2l92uxdc8rv,3gs6s824suasds95tsgtfpwx1f0nw7,Hml3iLk2,2020-0188,2020-06-04,08:09:22,08:30:40,NA,incomplete,234,gender,3,1,right,C_F_02.jpg,C_M_09.jpg,A_F_04.jpg,right,1032.4950000504032,true,low,NA,NA,NA,NA,NA,NA,NA,false
Hml3iLk2,3ba7sxog2m30f57lxuc2l92uxdc8rv,3gs6s824suasds95tsgtfpwx1f0nw7,Hml3iLk2,2020-0188,2020-06-04,08:09:22,08:30:40,NA,incomplete,235,gender,3,0,right,C_M_14.jpg,C_F_03.jpg,A_M_04.jpg,right,865.15500000678,true,low,NA,NA,NA,NA,NA,NA,NA,false
Hml3iLk2,3ba7sxog2m30f57lxuc2l92uxdc8rv,3gs6s824suasds95tsgtfpwx1f0nw7,Hml3iLk2,2020-0188,2020-06-04,08:09:22,08:30:40,NA,incomplete,236,gender,3,1,right,C_M_09.jpg,C_F_02.jpg,A_M_14.jpg,right,902.8049999615178,true,low,NA,NA,NA,NA,NA,NA,NA,false
Hml3iLk2,3ba7sxog2m30f57lxuc2l92uxdc8rv,3gs6s824suasds95tsgtfpwx1f0nw7,Hml3iLk2,2020-0188,2020-06-04,08:09:22,08:30:40,NA,incomplete,237,gender,3,0,right,A_F_05.jpg,A_M_13.jpg,C_F_12.jpg,right,974.214999936521,true,low,NA,NA,NA,NA,NA,NA,NA,false
Hml3iLk2,3ba7sxog2m30f57lxuc2l92uxdc8rv,3gs6s824suasds95tsgtfpwx1f0nw7,Hml3iLk2,2020-0188,2020-06-04,08:09:22,08:30:40,NA,incomplete,238,gender,3,1,left,A_F_09.jpg,C_F_02.jpg,A_M_03.jpg,left,1222.2299999557436,true,low,NA,NA,NA,NA,NA,NA,NA,false
Hml3iLk2,3ba7sxog2m30f57lxuc2l92uxdc8rv,3gs6s824suasds95tsgtfpwx1f0nw7,Hml3iLk2,2020-0188,2020-06-04,08:09:22,08:30:40,NA,incomplete,239,gender,3,1,left,A_F_10.jpg,C_F_03.jpg,A_M_14.jpg,left,899.1549999918789,true,low,NA,NA,NA,NA,NA,NA,NA,false
Hml3iLk2,3ba7sxog2m30f57lxuc2l92uxdc8rv,3gs6s824suasds95tsgtfpwx1f0nw7,Hml3iLk2,2020-0188,2020-06-04,08:09:22,08:30:40,NA,NA,instruction example,shape,NA,NA,NA,Red_Plus_Chess_4.jpg,Purple_Plus_Grid_1.jpg,Red_Circle_Dots_2.jpg,NA,NA,NA,NA,NA,NA,NA,NA,NA,NA,NA,undefined
Hml3iLk2,3ba7sxog2m30f57lxuc2l92uxdc8rv,3gs6s824suasds95tsgtfpwx1f0nw7,Hml3iLk2,2020-0188,2020-06-04,08:09:22,08:30:40,NA,NA,instruction example,shape,NA,NA,NA,Green_Circle_Grid_1.jpg,Green_Triangle_Chess_2.jpg,Blue_Circle_Dots_4.jpg,NA,NA,NA,NA,NA,NA,NA,NA,NA,NA,NA,undefined
Hml3iLk2,3ba7sxog2m30f57lxuc2l92uxdc8rv,3gs6s824suasds95tsgtfpwx1f0nw7,Hml3iLk2,2020-0188,2020-06-04,08:09:22,08:30:40,NA,NA,instruction example,shape,NA,NA,NA,C_F_04.jpg,C_M_06.jpg,A_F_15.jpg,NA,NA,NA,NA,NA,NA,NA,NA,NA,NA,NA,undefined
Hml3iLk2,3ba7sxog2m30f57lxuc2l92uxdc8rv,3gs6s824suasds95tsgtfpwx1f0nw7,Hml3iLk2,2020-0188,2020-06-04,08:09:22,08:30:40,NA,NA,instruction example,shape,NA,NA,NA,A_F_08.jpg,C_F_14.jpg,A_M_07.jpg,NA,NA,NA,NA,NA,NA,NA,NA,NA,NA,NA,undefined
Hml3iLk2,3ba7sxog2m30f57lxuc2l92uxdc8rv,3gs6s824suasds95tsgtfpwx1f0nw7,Hml3iLk2,2020-0188,2020-06-04,08:09:22,08:30:40,1248276.7649999587,1279630.8049999643,NA,NA,NA,NA,NA,NA,NA,NA,NA,NA,NA,NA,37,Do not wish to reply,Do not wish to reply,Do not wish to reply,no,no,no,undefined
