workerId,hitId,assignmentId,subject,studyid,exp_date,exp_start,exp_end,time_start,time_end,trial,type,sequence,reward_validity,answer,image_top,image_left,image_right,response,response_time,response_acc,volatility,age,race,gender,ethnicity,color,vision,neuro,practice
p40TdzWb,3mdwe879vkfdd3966pwqlqs1zxrb9a,3h7z272lxbkc5j9j5tmja3kc3mqlpz,p40TdzWb,2020-0188,2020-06-04,07:53:38,08:10:29,NA,incomplete,0,color,0,1,left,Green_Star_Chess_1.jpg,Green_Plus_Grid_4.jpg,Red_Triangle_Stripes_1.jpg,right,696.300000010524,false,NA,NA,NA,NA,NA,NA,NA,NA,true
p40TdzWb,3mdwe879vkfdd3966pwqlqs1zxrb9a,3h7z272lxbkc5j9j5tmja3kc3mqlpz,p40TdzWb,2020-0188,2020-06-04,07:53:38,08:10:29,NA,incomplete,1,color,0,1,right,Green_Triangle_Dots_3.jpg,Blue_Plus_Grid_3.jpg,Green_Circle_Stripes_2.jpg,left,667.7350000245497,false,NA,NA,NA,NA,NA,NA,NA,NA,true
p40TdzWb,3mdwe879vkfdd3966pwqlqs1zxrb9a,3h7z272lxbkc5j9j5tmja3kc3mqlpz,p40TdzWb,2020-0188,2020-06-04,07:53:38,08:10:29,NA,incomplete,2,color,0,1,left,Blue_Plus_Dots_4.jpg,Blue_Triangle_Grid_1.jpg,Purple_Star_Chess_4.jpg,left,699.5350000215694,true,NA,NA,NA,NA,NA,NA,NA,NA,true
p40TdzWb,3mdwe879vkfdd3966pwqlqs1zxrb9a,3h7z272lxbkc5j9j5tmja3kc3mqlpz,p40TdzWb,2020-0188,2020-06-04,07:53:38,08:10:29,NA,incomplete,3,color,0,1,left,Red_Circle_Chess_4.jpg,Red_Triangle_Grid_1.jpg,Purple_Star_Dots_4.jpg,left,619.7200000169687,true,NA,NA,NA,NA,NA,NA,NA,NA,true
p40TdzWb,3mdwe879vkfdd3966pwqlqs1zxrb9a,3h7z272lxbkc5j9j5tmja3kc3mqlpz,p40TdzWb,2020-0188,2020-06-04,07:53:38,08:10:29,NA,incomplete,4,color,0,1,right,Red_Star_Chess_3.jpg,Purple_Plus_Grid_3.jpg,Red_Triangle_Dots_1.jpg,right,647.3499999847263,true,NA,NA,NA,NA,NA,NA,NA,NA,true
p40TdzWb,3mdwe879vkfdd3966pwqlqs1zxrb9a,3h7z272lxbkc5j9j5tmja3kc3mqlpz,p40TdzWb,2020-0188,2020-06-04,07:53:38,08:10:29,NA,incomplete,5,color,0,0,right,Blue_Plus_Chess_1.jpg,Green_Triangle_Stripes_1.jpg,Blue_Star_Grid_2.jpg,right,585.0999999674968,true,NA,NA,NA,NA,NA,NA,NA,NA,true
p40TdzWb,3mdwe879vkfdd3966pwqlqs1zxrb9a,3h7z272lxbkc5j9j5tmja3kc3mqlpz,p40TdzWb,2020-0188,2020-06-04,07:53:38,08:10:29,NA,incomplete,6,color,0,1,right,Blue_Star_Chess_2.jpg,Red_Circle_Grid_2.jpg,Blue_Plus_Dots_3.jpg,right,502.54000001586974,true,NA,NA,NA,NA,NA,NA,NA,NA,true
p40TdzWb,3mdwe879vkfdd3966pwqlqs1zxrb9a,3h7z272lxbkc5j9j5tmja3kc3mqlpz,p40TdzWb,2020-0188,2020-06-04,07:53:38,08:10:29,NA,incomplete,7,color,0,0,left,Red_Plus_Grid_2.jpg,Red_Star_Chess_1.jpg,Blue_Triangle_Dots_2.jpg,left,599.3400000152178,true,NA,NA,NA,NA,NA,NA,NA,NA,true
p40TdzWb,3mdwe879vkfdd3966pwqlqs1zxrb9a,3h7z272lxbkc5j9j5tmja3kc3mqlpz,p40TdzWb,2020-0188,2020-06-04,07:53:38,08:10:29,NA,incomplete,8,color,0,1,left,Red_Plus_Chess_2.jpg,Red_Triangle_Dots_4.jpg,Green_Star_Stripes_2.jpg,left,642.0100000104867,true,NA,NA,NA,NA,NA,NA,NA,NA,true
p40TdzWb,3mdwe879vkfdd3966pwqlqs1zxrb9a,3h7z272lxbkc5j9j5tmja3kc3mqlpz,p40TdzWb,2020-0188,2020-06-04,07:53:38,08:10:29,NA,incomplete,9,color,0,1,left,Blue_Circle_Grid_1.jpg,Blue_Star_Stripes_4.jpg,Purple_Plus_Dots_1.jpg,left,615.7300000195391,true,NA,NA,NA,NA,NA,NA,NA,NA,true
p40TdzWb,3mdwe879vkfdd3966pwqlqs1zxrb9a,3h7z272lxbkc5j9j5tmja3kc3mqlpz,p40TdzWb,2020-0188,2020-06-04,07:53:38,08:10:29,NA,incomplete,10,color,0,0,right,Blue_Star_Stripes_3.jpg,Red_Triangle_Dots_3.jpg,Blue_Plus_Grid_2.jpg,right,563.1900000153109,true,NA,NA,NA,NA,NA,NA,NA,NA,true
p40TdzWb,3mdwe879vkfdd3966pwqlqs1zxrb9a,3h7z272lxbkc5j9j5tmja3kc3mqlpz,p40TdzWb,2020-0188,2020-06-04,07:53:38,08:10:29,NA,incomplete,11,color,0,1,left,Green_Circle_Chess_2.jpg,Green_Star_Dots_3.jpg,Blue_Plus_Stripes_2.jpg,left,679.085000010673,true,NA,NA,NA,NA,NA,NA,NA,NA,true
p40TdzWb,3mdwe879vkfdd3966pwqlqs1zxrb9a,3h7z272lxbkc5j9j5tmja3kc3mqlpz,p40TdzWb,2020-0188,2020-06-04,07:53:38,08:10:29,NA,incomplete,12,color,0,1,left,Purple_Circle_Chess_2.jpg,Purple_Triangle_Stripes_1.jpg,Blue_Star_Dots_2.jpg,left,544.579999987036,true,NA,NA,NA,NA,NA,NA,NA,NA,true
p40TdzWb,3mdwe879vkfdd3966pwqlqs1zxrb9a,3h7z272lxbkc5j9j5tmja3kc3mqlpz,p40TdzWb,2020-0188,2020-06-04,07:53:38,08:10:29,NA,incomplete,13,color,0,1,left,Red_Star_Dots_2.jpg,Red_Plus_Stripes_3.jpg,Blue_Triangle_Chess_2.jpg,left,688.1999999750406,true,NA,NA,NA,NA,NA,NA,NA,NA,true
p40TdzWb,3mdwe879vkfdd3966pwqlqs1zxrb9a,3h7z272lxbkc5j9j5tmja3kc3mqlpz,p40TdzWb,2020-0188,2020-06-04,07:53:38,08:10:29,NA,incomplete,14,color,0,1,left,Blue_Circle_Dots_2.jpg,Blue_Triangle_Grid_4.jpg,Red_Plus_Stripes_2.jpg,right,665.0350000127219,false,NA,NA,NA,NA,NA,NA,NA,NA,true
p40TdzWb,3mdwe879vkfdd3966pwqlqs1zxrb9a,3h7z272lxbkc5j9j5tmja3kc3mqlpz,p40TdzWb,2020-0188,2020-06-04,07:53:38,08:10:29,NA,incomplete,15,color,0,1,left,Red_Plus_Stripes_3.jpg,Red_Star_Dots_2.jpg,Blue_Triangle_Grid_3.jpg,left,585.8199999784119,true,NA,NA,NA,NA,NA,NA,NA,NA,true
p40TdzWb,3mdwe879vkfdd3966pwqlqs1zxrb9a,3h7z272lxbkc5j9j5tmja3kc3mqlpz,p40TdzWb,2020-0188,2020-06-04,07:53:38,08:10:29,NA,incomplete,16,color,0,1,left,Red_Circle_Chess_3.jpg,Red_Star_Dots_1.jpg,Blue_Plus_Stripes_3.jpg,left,582.4900000006892,true,NA,NA,NA,NA,NA,NA,NA,NA,true
p40TdzWb,3mdwe879vkfdd3966pwqlqs1zxrb9a,3h7z272lxbkc5j9j5tmja3kc3mqlpz,p40TdzWb,2020-0188,2020-06-04,07:53:38,08:10:29,NA,incomplete,17,color,0,0,left,Purple_Star_Grid_1.jpg,Purple_Plus_Chess_3.jpg,Red_Triangle_Dots_1.jpg,left,539.5949999801815,true,NA,NA,NA,NA,NA,NA,NA,NA,true
p40TdzWb,3mdwe879vkfdd3966pwqlqs1zxrb9a,3h7z272lxbkc5j9j5tmja3kc3mqlpz,p40TdzWb,2020-0188,2020-06-04,07:53:38,08:10:29,NA,incomplete,18,color,0,1,left,Green_Star_Stripes_2.jpg,Green_Plus_Grid_3.jpg,Blue_Triangle_Chess_2.jpg,left,538.4649999905378,true,NA,NA,NA,NA,NA,NA,NA,NA,true
p40TdzWb,3mdwe879vkfdd3966pwqlqs1zxrb9a,3h7z272lxbkc5j9j5tmja3kc3mqlpz,p40TdzWb,2020-0188,2020-06-04,07:53:38,08:10:29,NA,incomplete,19,color,0,0,left,Red_Star_Grid_3.jpg,Red_Circle_Stripes_2.jpg,Green_Plus_Chess_3.jpg,left,529.804999998305,true,NA,NA,NA,NA,NA,NA,NA,NA,true
p40TdzWb,3mdwe879vkfdd3966pwqlqs1zxrb9a,3h7z272lxbkc5j9j5tmja3kc3mqlpz,p40TdzWb,2020-0188,2020-06-04,07:53:38,08:10:29,NA,incomplete,20,number,1,1,left,Red_Triangle_Chess_3.jpg,Blue_Star_Grid_3.jpg,Red_Circle_Dots_1.jpg,left,759.810000017751,true,NA,NA,NA,NA,NA,NA,NA,NA,true
p40TdzWb,3mdwe879vkfdd3966pwqlqs1zxrb9a,3h7z272lxbkc5j9j5tmja3kc3mqlpz,p40TdzWb,2020-0188,2020-06-04,07:53:38,08:10:29,NA,incomplete,21,number,1,1,right,Green_Triangle_Dots_3.jpg,Green_Circle_Chess_2.jpg,Purple_Plus_Grid_3.jpg,right,846.4249999960884,true,NA,NA,NA,NA,NA,NA,NA,NA,true
p40TdzWb,3mdwe879vkfdd3966pwqlqs1zxrb9a,3h7z272lxbkc5j9j5tmja3kc3mqlpz,p40TdzWb,2020-0188,2020-06-04,07:53:38,08:10:29,NA,incomplete,22,number,1,1,left,Green_Triangle_Grid_3.jpg,Red_Star_Chess_3.jpg,Green_Plus_Stripes_2.jpg,left,721.4249999960884,true,NA,NA,NA,NA,NA,NA,NA,NA,true
p40TdzWb,3mdwe879vkfdd3966pwqlqs1zxrb9a,3h7z272lxbkc5j9j5tmja3kc3mqlpz,p40TdzWb,2020-0188,2020-06-04,07:53:38,08:10:29,NA,incomplete,23,number,1,1,right,Red_Plus_Dots_3.jpg,Red_Triangle_Chess_2.jpg,Purple_Star_Grid_3.jpg,right,664.3800000310875,true,NA,NA,NA,NA,NA,NA,NA,NA,true
p40TdzWb,3mdwe879vkfdd3966pwqlqs1zxrb9a,3h7z272lxbkc5j9j5tmja3kc3mqlpz,p40TdzWb,2020-0188,2020-06-04,07:53:38,08:10:29,NA,incomplete,24,number,1,1,right,Red_Plus_Chess_1.jpg,Red_Circle_Dots_2.jpg,Blue_Triangle_Stripes_1.jpg,left,722.6399999926798,false,NA,NA,NA,NA,NA,NA,NA,NA,true
p40TdzWb,3mdwe879vkfdd3966pwqlqs1zxrb9a,3h7z272lxbkc5j9j5tmja3kc3mqlpz,p40TdzWb,2020-0188,2020-06-04,07:53:38,08:10:29,NA,incomplete,25,number,1,0,left,Blue_Circle_Grid_2.jpg,Green_Star_Chess_2.jpg,Blue_Triangle_Stripes_1.jpg,left,770.4950000043027,true,NA,NA,NA,NA,NA,NA,NA,NA,true
p40TdzWb,3mdwe879vkfdd3966pwqlqs1zxrb9a,3h7z272lxbkc5j9j5tmja3kc3mqlpz,p40TdzWb,2020-0188,2020-06-04,07:53:38,08:10:29,NA,incomplete,26,number,1,1,left,Green_Triangle_Dots_1.jpg,Purple_Plus_Stripes_1.jpg,Green_Circle_Grid_4.jpg,left,719.6600000024773,true,NA,NA,NA,NA,NA,NA,NA,NA,true
p40TdzWb,3mdwe879vkfdd3966pwqlqs1zxrb9a,3h7z272lxbkc5j9j5tmja3kc3mqlpz,p40TdzWb,2020-0188,2020-06-04,07:53:38,08:10:29,NA,incomplete,27,number,1,1,right,Red_Circle_Stripes_1.jpg,Red_Triangle_Grid_4.jpg,Purple_Plus_Dots_1.jpg,right,648.8900000113063,true,NA,NA,NA,NA,NA,NA,NA,NA,true
p40TdzWb,3mdwe879vkfdd3966pwqlqs1zxrb9a,3h7z272lxbkc5j9j5tmja3kc3mqlpz,p40TdzWb,2020-0188,2020-06-04,07:53:38,08:10:29,NA,incomplete,28,number,1,1,right,Blue_Star_Grid_4.jpg,Blue_Triangle_Stripes_3.jpg,Green_Circle_Dots_4.jpg,right,755.4649999947287,true,NA,NA,NA,NA,NA,NA,NA,NA,true
p40TdzWb,3mdwe879vkfdd3966pwqlqs1zxrb9a,3h7z272lxbkc5j9j5tmja3kc3mqlpz,p40TdzWb,2020-0188,2020-06-04,07:53:38,08:10:29,NA,incomplete,29,number,1,1,right,Red_Star_Grid_1.jpg,Red_Circle_Dots_2.jpg,Blue_Plus_Stripes_1.jpg,right,711.7749999742955,true,NA,NA,NA,NA,NA,NA,NA,NA,true
p40TdzWb,3mdwe879vkfdd3966pwqlqs1zxrb9a,3h7z272lxbkc5j9j5tmja3kc3mqlpz,p40TdzWb,2020-0188,2020-06-04,07:53:38,08:10:29,NA,incomplete,30,number,1,1,right,Green_Star_Chess_3.jpg,Green_Triangle_Dots_4.jpg,Blue_Plus_Stripes_3.jpg,right,694.580000010319,true,NA,NA,NA,NA,NA,NA,NA,NA,true
p40TdzWb,3mdwe879vkfdd3966pwqlqs1zxrb9a,3h7z272lxbkc5j9j5tmja3kc3mqlpz,p40TdzWb,2020-0188,2020-06-04,07:53:38,08:10:29,NA,incomplete,31,number,1,1,right,Blue_Circle_Dots_2.jpg,Blue_Star_Chess_3.jpg,Green_Triangle_Grid_2.jpg,right,663.5200000018813,true,NA,NA,NA,NA,NA,NA,NA,NA,true
p40TdzWb,3mdwe879vkfdd3966pwqlqs1zxrb9a,3h7z272lxbkc5j9j5tmja3kc3mqlpz,p40TdzWb,2020-0188,2020-06-04,07:53:38,08:10:29,NA,incomplete,32,number,1,1,right,Green_Star_Chess_4.jpg,Green_Plus_Stripes_2.jpg,Blue_Triangle_Dots_4.jpg,right,737.569999997504,true,NA,NA,NA,NA,NA,NA,NA,NA,true
p40TdzWb,3mdwe879vkfdd3966pwqlqs1zxrb9a,3h7z272lxbkc5j9j5tmja3kc3mqlpz,p40TdzWb,2020-0188,2020-06-04,07:53:38,08:10:29,NA,incomplete,33,number,1,1,right,Red_Circle_Grid_1.jpg,Red_Plus_Dots_2.jpg,Blue_Triangle_Stripes_1.jpg,right,712.0149999973364,true,NA,NA,NA,NA,NA,NA,NA,NA,true
p40TdzWb,3mdwe879vkfdd3966pwqlqs1zxrb9a,3h7z272lxbkc5j9j5tmja3kc3mqlpz,p40TdzWb,2020-0188,2020-06-04,07:53:38,08:10:29,NA,incomplete,34,number,1,0,right,Green_Plus_Chess_3.jpg,Green_Triangle_Grid_4.jpg,Purple_Circle_Dots_3.jpg,right,706.3600000110455,true,NA,NA,NA,NA,NA,NA,NA,NA,true
p40TdzWb,3mdwe879vkfdd3966pwqlqs1zxrb9a,3h7z272lxbkc5j9j5tmja3kc3mqlpz,p40TdzWb,2020-0188,2020-06-04,07:53:38,08:10:29,NA,incomplete,35,number,1,0,left,Green_Plus_Dots_3.jpg,Blue_Circle_Chess_3.jpg,Green_Triangle_Stripes_1.jpg,left,696.0000000544824,true,NA,NA,NA,NA,NA,NA,NA,NA,true
p40TdzWb,3mdwe879vkfdd3966pwqlqs1zxrb9a,3h7z272lxbkc5j9j5tmja3kc3mqlpz,p40TdzWb,2020-0188,2020-06-04,07:53:38,08:10:29,NA,incomplete,36,number,1,1,left,Green_Star_Stripes_3.jpg,Red_Triangle_Chess_3.jpg,Green_Plus_Grid_4.jpg,left,960.7250000117347,true,NA,NA,NA,NA,NA,NA,NA,NA,true
p40TdzWb,3mdwe879vkfdd3966pwqlqs1zxrb9a,3h7z272lxbkc5j9j5tmja3kc3mqlpz,p40TdzWb,2020-0188,2020-06-04,07:53:38,08:10:29,NA,incomplete,37,number,1,1,right,Red_Circle_Chess_3.jpg,Red_Star_Dots_1.jpg,Green_Triangle_Stripes_3.jpg,right,622.6100000203587,true,NA,NA,NA,NA,NA,NA,NA,NA,true
p40TdzWb,3mdwe879vkfdd3966pwqlqs1zxrb9a,3h7z272lxbkc5j9j5tmja3kc3mqlpz,p40TdzWb,2020-0188,2020-06-04,07:53:38,08:10:29,NA,incomplete,38,number,1,1,left,Green_Triangle_Stripes_1.jpg,Blue_Circle_Chess_1.jpg,Green_Plus_Grid_3.jpg,left,729.2899999883957,true,NA,NA,NA,NA,NA,NA,NA,NA,true
p40TdzWb,3mdwe879vkfdd3966pwqlqs1zxrb9a,3h7z272lxbkc5j9j5tmja3kc3mqlpz,p40TdzWb,2020-0188,2020-06-04,07:53:38,08:10:29,NA,incomplete,39,number,1,1,left,Green_Star_Chess_4.jpg,Purple_Plus_Grid_4.jpg,Green_Circle_Stripes_2.jpg,left,649.1299999761395,true,NA,NA,NA,NA,NA,NA,NA,NA,true
p40TdzWb,3mdwe879vkfdd3966pwqlqs1zxrb9a,3h7z272lxbkc5j9j5tmja3kc3mqlpz,p40TdzWb,2020-0188,2020-06-04,07:53:38,08:10:29,NA,incomplete,0,color,0,1,right,Purple_Circle_Chess_2.jpg,Green_Plus_Dots_2.jpg,Purple_Star_Grid_3.jpg,left,657.9950000159442,false,high,NA,NA,NA,NA,NA,NA,NA,false
p40TdzWb,3mdwe879vkfdd3966pwqlqs1zxrb9a,3h7z272lxbkc5j9j5tmja3kc3mqlpz,p40TdzWb,2020-0188,2020-06-04,07:53:38,08:10:29,NA,incomplete,1,color,0,1,left,Red_Circle_Grid_1.jpg,Red_Triangle_Chess_3.jpg,Blue_Plus_Dots_1.jpg,left,547.4199999589473,true,high,NA,NA,NA,NA,NA,NA,NA,false
p40TdzWb,3mdwe879vkfdd3966pwqlqs1zxrb9a,3h7z272lxbkc5j9j5tmja3kc3mqlpz,p40TdzWb,2020-0188,2020-06-04,07:53:38,08:10:29,NA,incomplete,2,color,0,0,right,Purple_Plus_Grid_1.jpg,Blue_Triangle_Chess_1.jpg,Purple_Star_Stripes_4.jpg,right,522.9750000289641,true,high,NA,NA,NA,NA,NA,NA,NA,false
p40TdzWb,3mdwe879vkfdd3966pwqlqs1zxrb9a,3h7z272lxbkc5j9j5tmja3kc3mqlpz,p40TdzWb,2020-0188,2020-06-04,07:53:38,08:10:29,NA,incomplete,3,color,0,1,right,Purple_Circle_Stripes_1.jpg,Blue_Plus_Grid_1.jpg,Purple_Triangle_Chess_4.jpg,right,577.8850000351667,true,high,NA,NA,NA,NA,NA,NA,NA,false
p40TdzWb,3mdwe879vkfdd3966pwqlqs1zxrb9a,3h7z272lxbkc5j9j5tmja3kc3mqlpz,p40TdzWb,2020-0188,2020-06-04,07:53:38,08:10:29,NA,incomplete,4,color,0,1,right,Blue_Plus_Chess_2.jpg,Red_Circle_Grid_2.jpg,Blue_Triangle_Dots_1.jpg,right,506.3300000037998,true,high,NA,NA,NA,NA,NA,NA,NA,false
p40TdzWb,3mdwe879vkfdd3966pwqlqs1zxrb9a,3h7z272lxbkc5j9j5tmja3kc3mqlpz,p40TdzWb,2020-0188,2020-06-04,07:53:38,08:10:29,NA,incomplete,5,color,0,1,right,Blue_Star_Grid_3.jpg,Green_Plus_Dots_3.jpg,Blue_Circle_Chess_2.jpg,left,600.1199999591336,false,high,NA,NA,NA,NA,NA,NA,NA,false
p40TdzWb,3mdwe879vkfdd3966pwqlqs1zxrb9a,3h7z272lxbkc5j9j5tmja3kc3mqlpz,p40TdzWb,2020-0188,2020-06-04,07:53:38,08:10:29,NA,incomplete,6,color,0,1,left,Blue_Star_Stripes_4.jpg,Blue_Circle_Chess_2.jpg,Green_Triangle_Grid_4.jpg,left,612.6250000088476,true,high,NA,NA,NA,NA,NA,NA,NA,false
p40TdzWb,3mdwe879vkfdd3966pwqlqs1zxrb9a,3h7z272lxbkc5j9j5tmja3kc3mqlpz,p40TdzWb,2020-0188,2020-06-04,07:53:38,08:10:29,NA,incomplete,7,color,0,0,right,Green_Plus_Chess_4.jpg,Purple_Triangle_Stripes_4.jpg,Green_Star_Grid_3.jpg,right,591.6799999540672,true,high,NA,NA,NA,NA,NA,NA,NA,false
p40TdzWb,3mdwe879vkfdd3966pwqlqs1zxrb9a,3h7z272lxbkc5j9j5tmja3kc3mqlpz,p40TdzWb,2020-0188,2020-06-04,07:53:38,08:10:29,NA,incomplete,8,color,0,0,right,Red_Circle_Stripes_4.jpg,Purple_Triangle_Chess_4.jpg,Red_Star_Dots_1.jpg,right,516.2649999838322,true,high,NA,NA,NA,NA,NA,NA,NA,false
p40TdzWb,3mdwe879vkfdd3966pwqlqs1zxrb9a,3h7z272lxbkc5j9j5tmja3kc3mqlpz,p40TdzWb,2020-0188,2020-06-04,07:53:38,08:10:29,NA,incomplete,9,color,0,1,left,Blue_Triangle_Stripes_4.jpg,Blue_Circle_Dots_3.jpg,Red_Plus_Grid_4.jpg,left,716.6000000433996,true,high,NA,NA,NA,NA,NA,NA,NA,false
p40TdzWb,3mdwe879vkfdd3966pwqlqs1zxrb9a,3h7z272lxbkc5j9j5tmja3kc3mqlpz,p40TdzWb,2020-0188,2020-06-04,07:53:38,08:10:29,NA,incomplete,10,number,1,1,right,Red_Star_Stripes_3.jpg,Red_Triangle_Chess_4.jpg,Purple_Circle_Dots_3.jpg,left,550.3150000004098,false,high,NA,NA,NA,NA,NA,NA,NA,false
p40TdzWb,3mdwe879vkfdd3966pwqlqs1zxrb9a,3h7z272lxbkc5j9j5tmja3kc3mqlpz,p40TdzWb,2020-0188,2020-06-04,07:53:38,08:10:29,NA,incomplete,11,number,1,1,left,Green_Star_Grid_1.jpg,Red_Triangle_Dots_1.jpg,Green_Circle_Stripes_4.jpg,right,626.2750000460073,false,high,NA,NA,NA,NA,NA,NA,NA,false
p40TdzWb,3mdwe879vkfdd3966pwqlqs1zxrb9a,3h7z272lxbkc5j9j5tmja3kc3mqlpz,p40TdzWb,2020-0188,2020-06-04,07:53:38,08:10:29,NA,incomplete,12,number,1,1,right,Red_Triangle_Grid_2.jpg,Red_Plus_Chess_1.jpg,Purple_Circle_Dots_2.jpg,right,638.9650000492111,true,high,NA,NA,NA,NA,NA,NA,NA,false
p40TdzWb,3mdwe879vkfdd3966pwqlqs1zxrb9a,3h7z272lxbkc5j9j5tmja3kc3mqlpz,p40TdzWb,2020-0188,2020-06-04,07:53:38,08:10:29,NA,incomplete,13,number,1,1,left,Purple_Plus_Stripes_4.jpg,Red_Circle_Grid_4.jpg,Purple_Star_Dots_1.jpg,left,671.8799999798648,true,high,NA,NA,NA,NA,NA,NA,NA,false
p40TdzWb,3mdwe879vkfdd3966pwqlqs1zxrb9a,3h7z272lxbkc5j9j5tmja3kc3mqlpz,p40TdzWb,2020-0188,2020-06-04,07:53:38,08:10:29,NA,incomplete,14,number,1,1,left,Purple_Plus_Stripes_2.jpg,Green_Circle_Chess_2.jpg,Purple_Triangle_Dots_4.jpg,left,609.2799999751151,true,high,NA,NA,NA,NA,NA,NA,NA,false
p40TdzWb,3mdwe879vkfdd3966pwqlqs1zxrb9a,3h7z272lxbkc5j9j5tmja3kc3mqlpz,p40TdzWb,2020-0188,2020-06-04,07:53:38,08:10:29,NA,incomplete,15,number,1,1,right,Purple_Plus_Stripes_1.jpg,Purple_Triangle_Grid_4.jpg,Blue_Star_Chess_1.jpg,right,614.289999997709,true,high,NA,NA,NA,NA,NA,NA,NA,false
p40TdzWb,3mdwe879vkfdd3966pwqlqs1zxrb9a,3h7z272lxbkc5j9j5tmja3kc3mqlpz,p40TdzWb,2020-0188,2020-06-04,07:53:38,08:10:29,NA,incomplete,16,number,1,1,right,Purple_Triangle_Chess_4.jpg,Purple_Star_Dots_1.jpg,Green_Plus_Stripes_4.jpg,right,601.2449999689125,true,high,NA,NA,NA,NA,NA,NA,NA,false
p40TdzWb,3mdwe879vkfdd3966pwqlqs1zxrb9a,3h7z272lxbkc5j9j5tmja3kc3mqlpz,p40TdzWb,2020-0188,2020-06-04,07:53:38,08:10:29,NA,incomplete,17,number,1,1,right,Purple_Plus_Stripes_1.jpg,Purple_Star_Dots_3.jpg,Red_Circle_Chess_1.jpg,right,581.1349999858066,true,high,NA,NA,NA,NA,NA,NA,NA,false
p40TdzWb,3mdwe879vkfdd3966pwqlqs1zxrb9a,3h7z272lxbkc5j9j5tmja3kc3mqlpz,p40TdzWb,2020-0188,2020-06-04,07:53:38,08:10:29,NA,incomplete,18,number,1,1,right,Red_Plus_Dots_4.jpg,Red_Circle_Chess_1.jpg,Green_Triangle_Grid_4.jpg,right,482.5999999884516,true,high,NA,NA,NA,NA,NA,NA,NA,false
p40TdzWb,3mdwe879vkfdd3966pwqlqs1zxrb9a,3h7z272lxbkc5j9j5tmja3kc3mqlpz,p40TdzWb,2020-0188,2020-06-04,07:53:38,08:10:29,NA,incomplete,19,number,1,1,left,Red_Plus_Grid_2.jpg,Blue_Triangle_Dots_2.jpg,Red_Circle_Stripes_3.jpg,left,668.1450000032783,true,high,NA,NA,NA,NA,NA,NA,NA,false
p40TdzWb,3mdwe879vkfdd3966pwqlqs1zxrb9a,3h7z272lxbkc5j9j5tmja3kc3mqlpz,p40TdzWb,2020-0188,2020-06-04,07:53:38,08:10:29,NA,incomplete,20,color,0,1,left,Red_Circle_Chess_1.jpg,Red_Star_Dots_4.jpg,Blue_Triangle_Stripes_1.jpg,right,645.4200000152923,false,high,NA,NA,NA,NA,NA,NA,NA,false
p40TdzWb,3mdwe879vkfdd3966pwqlqs1zxrb9a,3h7z272lxbkc5j9j5tmja3kc3mqlpz,p40TdzWb,2020-0188,2020-06-04,07:53:38,08:10:29,NA,incomplete,21,color,0,1,right,Purple_Triangle_Stripes_1.jpg,Red_Plus_Chess_1.jpg,Purple_Star_Grid_4.jpg,left,602.7549999998882,false,high,NA,NA,NA,NA,NA,NA,NA,false
p40TdzWb,3mdwe879vkfdd3966pwqlqs1zxrb9a,3h7z272lxbkc5j9j5tmja3kc3mqlpz,p40TdzWb,2020-0188,2020-06-04,07:53:38,08:10:29,NA,incomplete,22,color,0,1,left,Green_Triangle_Dots_4.jpg,Green_Star_Chess_2.jpg,Blue_Circle_Grid_4.jpg,left,980.6949999765493,true,high,NA,NA,NA,NA,NA,NA,NA,false
p40TdzWb,3mdwe879vkfdd3966pwqlqs1zxrb9a,3h7z272lxbkc5j9j5tmja3kc3mqlpz,p40TdzWb,2020-0188,2020-06-04,07:53:38,08:10:29,NA,incomplete,23,color,0,1,left,Purple_Circle_Chess_3.jpg,Purple_Star_Stripes_2.jpg,Red_Plus_Grid_3.jpg,left,552.8899999917485,true,high,NA,NA,NA,NA,NA,NA,NA,false
p40TdzWb,3mdwe879vkfdd3966pwqlqs1zxrb9a,3h7z272lxbkc5j9j5tmja3kc3mqlpz,p40TdzWb,2020-0188,2020-06-04,07:53:38,08:10:29,NA,incomplete,24,color,0,0,right,Blue_Triangle_Chess_4.jpg,Red_Circle_Dots_4.jpg,Blue_Star_Stripes_3.jpg,left,870.9849999868311,false,high,NA,NA,NA,NA,NA,NA,NA,false
p40TdzWb,3mdwe879vkfdd3966pwqlqs1zxrb9a,3h7z272lxbkc5j9j5tmja3kc3mqlpz,p40TdzWb,2020-0188,2020-06-04,07:53:38,08:10:29,NA,incomplete,25,color,0,1,left,Blue_Star_Grid_4.jpg,Blue_Circle_Stripes_2.jpg,Purple_Plus_Chess_4.jpg,right,595.2249999972992,false,high,NA,NA,NA,NA,NA,NA,NA,false
p40TdzWb,3mdwe879vkfdd3966pwqlqs1zxrb9a,3h7z272lxbkc5j9j5tmja3kc3mqlpz,p40TdzWb,2020-0188,2020-06-04,07:53:38,08:10:29,NA,incomplete,26,color,0,1,left,Blue_Triangle_Grid_2.jpg,Blue_Star_Dots_3.jpg,Red_Plus_Stripes_2.jpg,left,660.8949999790639,true,high,NA,NA,NA,NA,NA,NA,NA,false
p40TdzWb,3mdwe879vkfdd3966pwqlqs1zxrb9a,3h7z272lxbkc5j9j5tmja3kc3mqlpz,p40TdzWb,2020-0188,2020-06-04,07:53:38,08:10:29,NA,incomplete,27,color,0,0,right,Blue_Triangle_Chess_2.jpg,Purple_Star_Dots_2.jpg,Blue_Circle_Grid_1.jpg,left,647.510000038892,false,high,NA,NA,NA,NA,NA,NA,NA,false
p40TdzWb,3mdwe879vkfdd3966pwqlqs1zxrb9a,3h7z272lxbkc5j9j5tmja3kc3mqlpz,p40TdzWb,2020-0188,2020-06-04,07:53:38,08:10:29,NA,incomplete,28,color,0,1,right,Green_Circle_Chess_2.jpg,Red_Plus_Dots_2.jpg,Green_Triangle_Grid_4.jpg,left,705.5099999997765,false,high,NA,NA,NA,NA,NA,NA,NA,false
p40TdzWb,3mdwe879vkfdd3966pwqlqs1zxrb9a,3h7z272lxbkc5j9j5tmja3kc3mqlpz,p40TdzWb,2020-0188,2020-06-04,07:53:38,08:10:29,NA,incomplete,29,color,0,0,left,Green_Circle_Stripes_3.jpg,Green_Triangle_Grid_2.jpg,Red_Star_Chess_3.jpg,right,745.6499999971129,false,high,NA,NA,NA,NA,NA,NA,NA,false
p40TdzWb,3mdwe879vkfdd3966pwqlqs1zxrb9a,3h7z272lxbkc5j9j5tmja3kc3mqlpz,p40TdzWb,2020-0188,2020-06-04,07:53:38,08:10:29,NA,incomplete,30,number,1,0,left,Purple_Star_Grid_4.jpg,Red_Triangle_Stripes_4.jpg,Purple_Plus_Chess_1.jpg,left,583.6300000082701,true,high,NA,NA,NA,NA,NA,NA,NA,false
p40TdzWb,3mdwe879vkfdd3966pwqlqs1zxrb9a,3h7z272lxbkc5j9j5tmja3kc3mqlpz,p40TdzWb,2020-0188,2020-06-04,07:53:38,08:10:29,NA,incomplete,31,number,1,1,left,Blue_Star_Dots_3.jpg,Purple_Circle_Stripes_3.jpg,Blue_Triangle_Chess_4.jpg,left,605.9649999951944,true,high,NA,NA,NA,NA,NA,NA,NA,false
p40TdzWb,3mdwe879vkfdd3966pwqlqs1zxrb9a,3h7z272lxbkc5j9j5tmja3kc3mqlpz,p40TdzWb,2020-0188,2020-06-04,07:53:38,08:10:29,NA,incomplete,32,number,1,1,left,Green_Triangle_Stripes_1.jpg,Blue_Star_Grid_1.jpg,Green_Plus_Chess_3.jpg,left,601.1449999641627,true,high,NA,NA,NA,NA,NA,NA,NA,false
p40TdzWb,3mdwe879vkfdd3966pwqlqs1zxrb9a,3h7z272lxbkc5j9j5tmja3kc3mqlpz,p40TdzWb,2020-0188,2020-06-04,07:53:38,08:10:29,NA,incomplete,33,number,1,0,left,Blue_Star_Stripes_1.jpg,Purple_Circle_Grid_1.jpg,Blue_Plus_Chess_2.jpg,left,588.880000053905,true,high,NA,NA,NA,NA,NA,NA,NA,false
p40TdzWb,3mdwe879vkfdd3966pwqlqs1zxrb9a,3h7z272lxbkc5j9j5tmja3kc3mqlpz,p40TdzWb,2020-0188,2020-06-04,07:53:38,08:10:29,NA,incomplete,34,number,1,0,left,Blue_Star_Grid_3.jpg,Red_Circle_Dots_3.jpg,Blue_Triangle_Stripes_4.jpg,right,620.9800000069663,false,high,NA,NA,NA,NA,NA,NA,NA,false
p40TdzWb,3mdwe879vkfdd3966pwqlqs1zxrb9a,3h7z272lxbkc5j9j5tmja3kc3mqlpz,p40TdzWb,2020-0188,2020-06-04,07:53:38,08:10:29,NA,incomplete,35,number,1,1,right,Purple_Star_Grid_1.jpg,Purple_Circle_Dots_4.jpg,Green_Plus_Stripes_1.jpg,left,597.150000045076,false,high,NA,NA,NA,NA,NA,NA,NA,false
p40TdzWb,3mdwe879vkfdd3966pwqlqs1zxrb9a,3h7z272lxbkc5j9j5tmja3kc3mqlpz,p40TdzWb,2020-0188,2020-06-04,07:53:38,08:10:29,NA,incomplete,36,number,1,1,right,Purple_Circle_Chess_1.jpg,Purple_Triangle_Grid_3.jpg,Blue_Plus_Dots_1.jpg,left,681.7400000290945,false,high,NA,NA,NA,NA,NA,NA,NA,false
p40TdzWb,3mdwe879vkfdd3966pwqlqs1zxrb9a,3h7z272lxbkc5j9j5tmja3kc3mqlpz,p40TdzWb,2020-0188,2020-06-04,07:53:38,08:10:29,NA,incomplete,37,number,1,1,right,Blue_Circle_Grid_1.jpg,Blue_Plus_Stripes_3.jpg,Green_Triangle_Chess_1.jpg,right,667.2799999942072,true,high,NA,NA,NA,NA,NA,NA,NA,false
p40TdzWb,3mdwe879vkfdd3966pwqlqs1zxrb9a,3h7z272lxbkc5j9j5tmja3kc3mqlpz,p40TdzWb,2020-0188,2020-06-04,07:53:38,08:10:29,NA,incomplete,38,number,1,1,right,Blue_Star_Grid_4.jpg,Blue_Plus_Chess_2.jpg,Purple_Triangle_Dots_4.jpg,right,659.8549999762326,true,high,NA,NA,NA,NA,NA,NA,NA,false
p40TdzWb,3mdwe879vkfdd3966pwqlqs1zxrb9a,3h7z272lxbkc5j9j5tmja3kc3mqlpz,p40TdzWb,2020-0188,2020-06-04,07:53:38,08:10:29,NA,incomplete,39,number,1,1,right,Green_Triangle_Grid_2.jpg,Green_Circle_Stripes_4.jpg,Blue_Plus_Dots_2.jpg,right,607.0149999577552,true,high,NA,NA,NA,NA,NA,NA,NA,false
p40TdzWb,3mdwe879vkfdd3966pwqlqs1zxrb9a,3h7z272lxbkc5j9j5tmja3kc3mqlpz,p40TdzWb,2020-0188,2020-06-04,07:53:38,08:10:29,NA,incomplete,40,color,0,0,right,Red_Plus_Stripes_1.jpg,Green_Triangle_Dots_1.jpg,Red_Circle_Chess_2.jpg,left,602.9199999757111,false,high,NA,NA,NA,NA,NA,NA,NA,false
p40TdzWb,3mdwe879vkfdd3966pwqlqs1zxrb9a,3h7z272lxbkc5j9j5tmja3kc3mqlpz,p40TdzWb,2020-0188,2020-06-04,07:53:38,08:10:29,NA,incomplete,41,color,0,1,left,Purple_Triangle_Stripes_3.jpg,Purple_Circle_Chess_1.jpg,Blue_Plus_Grid_3.jpg,left,846.1450000177138,true,high,NA,NA,NA,NA,NA,NA,NA,false
p40TdzWb,3mdwe879vkfdd3966pwqlqs1zxrb9a,3h7z272lxbkc5j9j5tmja3kc3mqlpz,p40TdzWb,2020-0188,2020-06-04,07:53:38,08:10:29,NA,incomplete,42,color,0,1,right,Purple_Triangle_Dots_2.jpg,Green_Circle_Grid_2.jpg,Purple_Plus_Chess_3.jpg,right,576.764999947045,true,high,NA,NA,NA,NA,NA,NA,NA,false
p40TdzWb,3mdwe879vkfdd3966pwqlqs1zxrb9a,3h7z272lxbkc5j9j5tmja3kc3mqlpz,p40TdzWb,2020-0188,2020-06-04,07:53:38,08:10:29,NA,incomplete,43,color,0,1,left,Blue_Circle_Grid_2.jpg,Blue_Triangle_Stripes_4.jpg,Green_Star_Chess_2.jpg,left,503.38000000920147,true,high,NA,NA,NA,NA,NA,NA,NA,false
p40TdzWb,3mdwe879vkfdd3966pwqlqs1zxrb9a,3h7z272lxbkc5j9j5tmja3kc3mqlpz,p40TdzWb,2020-0188,2020-06-04,07:53:38,08:10:29,NA,incomplete,44,color,0,1,right,Blue_Plus_Chess_3.jpg,Green_Triangle_Grid_3.jpg,Blue_Star_Stripes_2.jpg,left,632.5850000139326,false,high,NA,NA,NA,NA,NA,NA,NA,false
p40TdzWb,3mdwe879vkfdd3966pwqlqs1zxrb9a,3h7z272lxbkc5j9j5tmja3kc3mqlpz,p40TdzWb,2020-0188,2020-06-04,07:53:38,08:10:29,NA,incomplete,45,color,0,1,left,Green_Circle_Chess_3.jpg,Green_Star_Stripes_2.jpg,Purple_Plus_Dots_3.jpg,left,634.1350000002421,true,high,NA,NA,NA,NA,NA,NA,NA,false
p40TdzWb,3mdwe879vkfdd3966pwqlqs1zxrb9a,3h7z272lxbkc5j9j5tmja3kc3mqlpz,p40TdzWb,2020-0188,2020-06-04,07:53:38,08:10:29,NA,incomplete,46,color,0,1,left,Blue_Star_Grid_1.jpg,Blue_Plus_Chess_4.jpg,Purple_Triangle_Stripes_1.jpg,left,540.4800000251271,true,high,NA,NA,NA,NA,NA,NA,NA,false
p40TdzWb,3mdwe879vkfdd3966pwqlqs1zxrb9a,3h7z272lxbkc5j9j5tmja3kc3mqlpz,p40TdzWb,2020-0188,2020-06-04,07:53:38,08:10:29,NA,incomplete,47,color,0,1,left,Red_Circle_Stripes_2.jpg,Red_Star_Dots_3.jpg,Green_Triangle_Chess_2.jpg,left,556.4399999566376,true,high,NA,NA,NA,NA,NA,NA,NA,false
p40TdzWb,3mdwe879vkfdd3966pwqlqs1zxrb9a,3h7z272lxbkc5j9j5tmja3kc3mqlpz,p40TdzWb,2020-0188,2020-06-04,07:53:38,08:10:29,NA,incomplete,48,color,0,0,left,Purple_Plus_Chess_1.jpg,Purple_Circle_Stripes_4.jpg,Red_Star_Dots_1.jpg,left,440.9200000227429,true,high,NA,NA,NA,NA,NA,NA,NA,false
p40TdzWb,3mdwe879vkfdd3966pwqlqs1zxrb9a,3h7z272lxbkc5j9j5tmja3kc3mqlpz,p40TdzWb,2020-0188,2020-06-04,07:53:38,08:10:29,NA,incomplete,49,color,0,1,left,Red_Plus_Dots_4.jpg,Red_Triangle_Chess_1.jpg,Purple_Star_Stripes_4.jpg,left,579.4549999991432,true,high,NA,NA,NA,NA,NA,NA,NA,false
p40TdzWb,3mdwe879vkfdd3966pwqlqs1zxrb9a,3h7z272lxbkc5j9j5tmja3kc3mqlpz,p40TdzWb,2020-0188,2020-06-04,07:53:38,08:10:29,NA,incomplete,50,number,1,1,left,Blue_Star_Stripes_4.jpg,Red_Circle_Chess_4.jpg,Blue_Plus_Dots_3.jpg,left,802.3350000148639,true,high,NA,NA,NA,NA,NA,NA,NA,false
p40TdzWb,3mdwe879vkfdd3966pwqlqs1zxrb9a,3h7z272lxbkc5j9j5tmja3kc3mqlpz,p40TdzWb,2020-0188,2020-06-04,07:53:38,08:10:29,NA,incomplete,51,number,1,1,left,Red_Star_Grid_3.jpg,Green_Triangle_Stripes_3.jpg,Red_Plus_Chess_4.jpg,left,701.790000020992,true,high,NA,NA,NA,NA,NA,NA,NA,false
p40TdzWb,3mdwe879vkfdd3966pwqlqs1zxrb9a,3h7z272lxbkc5j9j5tmja3kc3mqlpz,p40TdzWb,2020-0188,2020-06-04,07:53:38,08:10:29,NA,incomplete,52,number,1,0,left,Blue_Circle_Dots_3.jpg,Purple_Star_Grid_3.jpg,Blue_Triangle_Stripes_4.jpg,left,620.7099999883212,true,high,NA,NA,NA,NA,NA,NA,NA,false
p40TdzWb,3mdwe879vkfdd3966pwqlqs1zxrb9a,3h7z272lxbkc5j9j5tmja3kc3mqlpz,p40TdzWb,2020-0188,2020-06-04,07:53:38,08:10:29,NA,incomplete,53,number,1,1,right,Blue_Star_Stripes_1.jpg,Blue_Circle_Chess_2.jpg,Green_Triangle_Dots_1.jpg,right,728.0250000185333,true,high,NA,NA,NA,NA,NA,NA,NA,false
p40TdzWb,3mdwe879vkfdd3966pwqlqs1zxrb9a,3h7z272lxbkc5j9j5tmja3kc3mqlpz,p40TdzWb,2020-0188,2020-06-04,07:53:38,08:10:29,NA,incomplete,54,number,1,1,right,Green_Triangle_Stripes_3.jpg,Green_Circle_Dots_2.jpg,Red_Star_Chess_3.jpg,right,615.2349999756552,true,high,NA,NA,NA,NA,NA,NA,NA,false
p40TdzWb,3mdwe879vkfdd3966pwqlqs1zxrb9a,3h7z272lxbkc5j9j5tmja3kc3mqlpz,p40TdzWb,2020-0188,2020-06-04,07:53:38,08:10:29,NA,incomplete,55,number,1,1,right,Red_Circle_Chess_4.jpg,Red_Triangle_Grid_1.jpg,Purple_Star_Dots_4.jpg,right,597.9449999867938,true,high,NA,NA,NA,NA,NA,NA,NA,false
p40TdzWb,3mdwe879vkfdd3966pwqlqs1zxrb9a,3h7z272lxbkc5j9j5tmja3kc3mqlpz,p40TdzWb,2020-0188,2020-06-04,07:53:38,08:10:29,NA,incomplete,56,number,1,1,right,Blue_Star_Dots_1.jpg,Blue_Circle_Chess_4.jpg,Purple_Plus_Stripes_1.jpg,right,575.7400000002235,true,high,NA,NA,NA,NA,NA,NA,NA,false
p40TdzWb,3mdwe879vkfdd3966pwqlqs1zxrb9a,3h7z272lxbkc5j9j5tmja3kc3mqlpz,p40TdzWb,2020-0188,2020-06-04,07:53:38,08:10:29,NA,incomplete,57,number,1,1,right,Red_Plus_Chess_4.jpg,Red_Circle_Stripes_1.jpg,Purple_Star_Grid_4.jpg,right,582.7799999970011,true,high,NA,NA,NA,NA,NA,NA,NA,false
p40TdzWb,3mdwe879vkfdd3966pwqlqs1zxrb9a,3h7z272lxbkc5j9j5tmja3kc3mqlpz,p40TdzWb,2020-0188,2020-06-04,07:53:38,08:10:29,NA,incomplete,58,number,1,1,right,Red_Plus_Dots_4.jpg,Red_Circle_Grid_2.jpg,Purple_Star_Stripes_4.jpg,left,522.4900000030175,false,high,NA,NA,NA,NA,NA,NA,NA,false
p40TdzWb,3mdwe879vkfdd3966pwqlqs1zxrb9a,3h7z272lxbkc5j9j5tmja3kc3mqlpz,p40TdzWb,2020-0188,2020-06-04,07:53:38,08:10:29,NA,incomplete,59,number,1,1,left,Red_Plus_Grid_2.jpg,Purple_Star_Stripes_2.jpg,Red_Circle_Chess_1.jpg,left,577.3599999956787,true,high,NA,NA,NA,NA,NA,NA,NA,false
p40TdzWb,3mdwe879vkfdd3966pwqlqs1zxrb9a,3h7z272lxbkc5j9j5tmja3kc3mqlpz,p40TdzWb,2020-0188,2020-06-04,07:53:38,08:10:29,NA,incomplete,60,color,0,1,right,Green_Star_Grid_3.jpg,Red_Triangle_Chess_3.jpg,Green_Plus_Stripes_2.jpg,left,647.690000012517,false,high,NA,NA,NA,NA,NA,NA,NA,false
p40TdzWb,3mdwe879vkfdd3966pwqlqs1zxrb9a,3h7z272lxbkc5j9j5tmja3kc3mqlpz,p40TdzWb,2020-0188,2020-06-04,07:53:38,08:10:29,NA,incomplete,61,color,0,1,right,Blue_Star_Stripes_3.jpg,Purple_Circle_Dots_3.jpg,Blue_Triangle_Chess_1.jpg,left,642.6099999807775,false,high,NA,NA,NA,NA,NA,NA,NA,false
p40TdzWb,3mdwe879vkfdd3966pwqlqs1zxrb9a,3h7z272lxbkc5j9j5tmja3kc3mqlpz,p40TdzWb,2020-0188,2020-06-04,07:53:38,08:10:29,NA,incomplete,62,color,0,1,left,Green_Circle_Dots_2.jpg,Green_Triangle_Chess_1.jpg,Red_Star_Grid_2.jpg,left,540.0199999567121,true,high,NA,NA,NA,NA,NA,NA,NA,false
p40TdzWb,3mdwe879vkfdd3966pwqlqs1zxrb9a,3h7z272lxbkc5j9j5tmja3kc3mqlpz,p40TdzWb,2020-0188,2020-06-04,07:53:38,08:10:29,NA,incomplete,63,color,0,0,right,Green_Plus_Chess_2.jpg,Blue_Star_Stripes_2.jpg,Green_Triangle_Grid_1.jpg,right,523.0999999912456,true,high,NA,NA,NA,NA,NA,NA,NA,false
p40TdzWb,3mdwe879vkfdd3966pwqlqs1zxrb9a,3h7z272lxbkc5j9j5tmja3kc3mqlpz,p40TdzWb,2020-0188,2020-06-04,07:53:38,08:10:29,NA,incomplete,64,color,0,1,left,Blue_Star_Stripes_4.jpg,Blue_Triangle_Dots_3.jpg,Green_Plus_Chess_4.jpg,left,978.3199999947101,true,high,NA,NA,NA,NA,NA,NA,NA,false
p40TdzWb,3mdwe879vkfdd3966pwqlqs1zxrb9a,3h7z272lxbkc5j9j5tmja3kc3mqlpz,p40TdzWb,2020-0188,2020-06-04,07:53:38,08:10:29,NA,incomplete,65,color,0,0,left,Purple_Circle_Chess_1.jpg,Purple_Triangle_Grid_2.jpg,Green_Plus_Dots_1.jpg,left,512.9799999995157,true,high,NA,NA,NA,NA,NA,NA,NA,false
p40TdzWb,3mdwe879vkfdd3966pwqlqs1zxrb9a,3h7z272lxbkc5j9j5tmja3kc3mqlpz,p40TdzWb,2020-0188,2020-06-04,07:53:38,08:10:29,NA,incomplete,66,color,0,1,left,Blue_Star_Dots_3.jpg,Blue_Triangle_Stripes_4.jpg,Red_Plus_Grid_3.jpg,left,935.1000000024214,true,high,NA,NA,NA,NA,NA,NA,NA,false
p40TdzWb,3mdwe879vkfdd3966pwqlqs1zxrb9a,3h7z272lxbkc5j9j5tmja3kc3mqlpz,p40TdzWb,2020-0188,2020-06-04,07:53:38,08:10:29,NA,incomplete,67,color,0,0,left,Green_Star_Dots_4.jpg,Green_Triangle_Stripes_2.jpg,Red_Circle_Grid_4.jpg,left,670.9549999795854,true,high,NA,NA,NA,NA,NA,NA,NA,false
p40TdzWb,3mdwe879vkfdd3966pwqlqs1zxrb9a,3h7z272lxbkc5j9j5tmja3kc3mqlpz,p40TdzWb,2020-0188,2020-06-04,07:53:38,08:10:29,NA,incomplete,68,color,0,1,right,Blue_Star_Dots_1.jpg,Red_Circle_Chess_1.jpg,Blue_Plus_Grid_3.jpg,right,592.8249999997206,true,high,NA,NA,NA,NA,NA,NA,NA,false
p40TdzWb,3mdwe879vkfdd3966pwqlqs1zxrb9a,3h7z272lxbkc5j9j5tmja3kc3mqlpz,p40TdzWb,2020-0188,2020-06-04,07:53:38,08:10:29,NA,incomplete,69,color,0,1,right,Purple_Circle_Chess_1.jpg,Blue_Star_Dots_1.jpg,Purple_Plus_Grid_2.jpg,right,644.4200000260025,true,high,NA,NA,NA,NA,NA,NA,NA,false
p40TdzWb,3mdwe879vkfdd3966pwqlqs1zxrb9a,3h7z272lxbkc5j9j5tmja3kc3mqlpz,p40TdzWb,2020-0188,2020-06-04,07:53:38,08:10:29,NA,incomplete,70,number,1,0,left,Purple_Triangle_Stripes_1.jpg,Green_Star_Dots_1.jpg,Purple_Plus_Chess_4.jpg,right,639.6200000308454,false,high,NA,NA,NA,NA,NA,NA,NA,false
p40TdzWb,3mdwe879vkfdd3966pwqlqs1zxrb9a,3h7z272lxbkc5j9j5tmja3kc3mqlpz,p40TdzWb,2020-0188,2020-06-04,07:53:38,08:10:29,NA,incomplete,71,number,1,0,left,Purple_Circle_Grid_3.jpg,Red_Triangle_Chess_3.jpg,Purple_Star_Dots_4.jpg,right,850.0900000217371,false,high,NA,NA,NA,NA,NA,NA,NA,false
p40TdzWb,3mdwe879vkfdd3966pwqlqs1zxrb9a,3h7z272lxbkc5j9j5tmja3kc3mqlpz,p40TdzWb,2020-0188,2020-06-04,07:53:38,08:10:29,NA,incomplete,72,number,1,1,left,Green_Star_Chess_4.jpg,Red_Circle_Dots_4.jpg,Green_Triangle_Grid_3.jpg,right,750.2399999648333,false,high,NA,NA,NA,NA,NA,NA,NA,false
p40TdzWb,3mdwe879vkfdd3966pwqlqs1zxrb9a,3h7z272lxbkc5j9j5tmja3kc3mqlpz,p40TdzWb,2020-0188,2020-06-04,07:53:38,08:10:29,NA,incomplete,73,number,1,1,left,Red_Triangle_Chess_4.jpg,Green_Plus_Stripes_4.jpg,Red_Circle_Grid_1.jpg,right,948.5850000055507,false,high,NA,NA,NA,NA,NA,NA,NA,false
p40TdzWb,3mdwe879vkfdd3966pwqlqs1zxrb9a,3h7z272lxbkc5j9j5tmja3kc3mqlpz,p40TdzWb,2020-0188,2020-06-04,07:53:38,08:10:29,NA,incomplete,74,number,1,1,left,Red_Star_Chess_4.jpg,Purple_Plus_Grid_4.jpg,Red_Circle_Stripes_2.jpg,left,604.639999975916,true,high,NA,NA,NA,NA,NA,NA,NA,false
p40TdzWb,3mdwe879vkfdd3966pwqlqs1zxrb9a,3h7z272lxbkc5j9j5tmja3kc3mqlpz,p40TdzWb,2020-0188,2020-06-04,07:53:38,08:10:29,NA,incomplete,75,number,1,1,left,Purple_Triangle_Stripes_2.jpg,Blue_Star_Chess_2.jpg,Purple_Circle_Grid_1.jpg,left,646.5099999913946,true,high,NA,NA,NA,NA,NA,NA,NA,false
p40TdzWb,3mdwe879vkfdd3966pwqlqs1zxrb9a,3h7z272lxbkc5j9j5tmja3kc3mqlpz,p40TdzWb,2020-0188,2020-06-04,07:53:38,08:10:29,NA,incomplete,76,number,1,1,left,Blue_Circle_Stripes_1.jpg,Green_Plus_Chess_1.jpg,Blue_Star_Dots_3.jpg,left,650.2200000104494,true,high,NA,NA,NA,NA,NA,NA,NA,false
p40TdzWb,3mdwe879vkfdd3966pwqlqs1zxrb9a,3h7z272lxbkc5j9j5tmja3kc3mqlpz,p40TdzWb,2020-0188,2020-06-04,07:53:38,08:10:29,NA,incomplete,77,number,1,1,left,Red_Triangle_Stripes_2.jpg,Purple_Plus_Dots_2.jpg,Red_Star_Chess_1.jpg,left,677.6200000313111,true,high,NA,NA,NA,NA,NA,NA,NA,false
p40TdzWb,3mdwe879vkfdd3966pwqlqs1zxrb9a,3h7z272lxbkc5j9j5tmja3kc3mqlpz,p40TdzWb,2020-0188,2020-06-04,07:53:38,08:10:29,NA,incomplete,78,number,1,1,left,Blue_Circle_Dots_3.jpg,Purple_Star_Grid_3.jpg,Blue_Plus_Chess_4.jpg,left,643.9750000135973,true,high,NA,NA,NA,NA,NA,NA,NA,false
p40TdzWb,3mdwe879vkfdd3966pwqlqs1zxrb9a,3h7z272lxbkc5j9j5tmja3kc3mqlpz,p40TdzWb,2020-0188,2020-06-04,07:53:38,08:10:29,NA,incomplete,79,number,1,0,left,Blue_Plus_Stripes_2.jpg,Green_Triangle_Dots_2.jpg,Blue_Circle_Grid_3.jpg,left,591.6250000009313,true,high,NA,NA,NA,NA,NA,NA,NA,false
p40TdzWb,3mdwe879vkfdd3966pwqlqs1zxrb9a,3h7z272lxbkc5j9j5tmja3kc3mqlpz,p40TdzWb,2020-0188,2020-06-04,07:53:38,08:10:29,NA,incomplete,80,color,0,1,right,Blue_Circle_Grid_4.jpg,Green_Plus_Dots_4.jpg,Blue_Triangle_Stripes_2.jpg,left,579.9650000408292,false,high,NA,NA,NA,NA,NA,NA,NA,false
p40TdzWb,3mdwe879vkfdd3966pwqlqs1zxrb9a,3h7z272lxbkc5j9j5tmja3kc3mqlpz,p40TdzWb,2020-0188,2020-06-04,07:53:38,08:10:29,NA,incomplete,81,color,0,1,left,Blue_Triangle_Grid_4.jpg,Blue_Star_Stripes_3.jpg,Green_Plus_Dots_4.jpg,left,504.929999995511,true,high,NA,NA,NA,NA,NA,NA,NA,false
p40TdzWb,3mdwe879vkfdd3966pwqlqs1zxrb9a,3h7z272lxbkc5j9j5tmja3kc3mqlpz,p40TdzWb,2020-0188,2020-06-04,07:53:38,08:10:29,NA,incomplete,82,color,0,1,right,Green_Plus_Stripes_3.jpg,Purple_Star_Dots_3.jpg,Green_Triangle_Chess_1.jpg,right,576.7200000118464,true,high,NA,NA,NA,NA,NA,NA,NA,false
p40TdzWb,3mdwe879vkfdd3966pwqlqs1zxrb9a,3h7z272lxbkc5j9j5tmja3kc3mqlpz,p40TdzWb,2020-0188,2020-06-04,07:53:38,08:10:29,NA,incomplete,83,color,0,0,right,Red_Plus_Grid_1.jpg,Blue_Triangle_Stripes_1.jpg,Red_Star_Dots_2.jpg,left,592.8450000355951,false,high,NA,NA,NA,NA,NA,NA,NA,false
p40TdzWb,3mdwe879vkfdd3966pwqlqs1zxrb9a,3h7z272lxbkc5j9j5tmja3kc3mqlpz,p40TdzWb,2020-0188,2020-06-04,07:53:38,08:10:29,NA,incomplete,84,color,0,1,left,Red_Star_Grid_2.jpg,Red_Circle_Dots_1.jpg,Purple_Triangle_Chess_2.jpg,right,714.5299999974668,false,high,NA,NA,NA,NA,NA,NA,NA,false
p40TdzWb,3mdwe879vkfdd3966pwqlqs1zxrb9a,3h7z272lxbkc5j9j5tmja3kc3mqlpz,p40TdzWb,2020-0188,2020-06-04,07:53:38,08:10:29,NA,incomplete,85,color,0,1,right,Green_Star_Stripes_3.jpg,Blue_Plus_Grid_3.jpg,Green_Triangle_Chess_4.jpg,left,875.2949999761768,false,high,NA,NA,NA,NA,NA,NA,NA,false
p40TdzWb,3mdwe879vkfdd3966pwqlqs1zxrb9a,3h7z272lxbkc5j9j5tmja3kc3mqlpz,p40TdzWb,2020-0188,2020-06-04,07:53:38,08:10:29,NA,incomplete,86,color,0,1,left,Purple_Triangle_Grid_3.jpg,Purple_Star_Dots_2.jpg,Green_Circle_Chess_3.jpg,left,636.11000002129,true,high,NA,NA,NA,NA,NA,NA,NA,false
p40TdzWb,3mdwe879vkfdd3966pwqlqs1zxrb9a,3h7z272lxbkc5j9j5tmja3kc3mqlpz,p40TdzWb,2020-0188,2020-06-04,07:53:38,08:10:29,NA,incomplete,87,color,0,1,right,Purple_Star_Grid_4.jpg,Blue_Plus_Stripes_4.jpg,Purple_Triangle_Chess_1.jpg,right,622.6499999756925,true,high,NA,NA,NA,NA,NA,NA,NA,false
p40TdzWb,3mdwe879vkfdd3966pwqlqs1zxrb9a,3h7z272lxbkc5j9j5tmja3kc3mqlpz,p40TdzWb,2020-0188,2020-06-04,07:53:38,08:10:29,NA,incomplete,88,color,0,1,right,Blue_Triangle_Grid_2.jpg,Green_Star_Chess_2.jpg,Blue_Circle_Dots_3.jpg,right,995.1749999891035,true,high,NA,NA,NA,NA,NA,NA,NA,false
p40TdzWb,3mdwe879vkfdd3966pwqlqs1zxrb9a,3h7z272lxbkc5j9j5tmja3kc3mqlpz,p40TdzWb,2020-0188,2020-06-04,07:53:38,08:10:29,NA,incomplete,89,color,0,1,right,Red_Star_Stripes_1.jpg,Blue_Plus_Dots_1.jpg,Red_Triangle_Grid_3.jpg,right,446.6499999980442,true,high,NA,NA,NA,NA,NA,NA,NA,false
p40TdzWb,3mdwe879vkfdd3966pwqlqs1zxrb9a,3h7z272lxbkc5j9j5tmja3kc3mqlpz,p40TdzWb,2020-0188,2020-06-04,07:53:38,08:10:29,NA,incomplete,90,number,1,1,right,Purple_Star_Grid_2.jpg,Purple_Circle_Chess_3.jpg,Red_Triangle_Stripes_2.jpg,left,585.7950000208803,false,high,NA,NA,NA,NA,NA,NA,NA,false
p40TdzWb,3mdwe879vkfdd3966pwqlqs1zxrb9a,3h7z272lxbkc5j9j5tmja3kc3mqlpz,p40TdzWb,2020-0188,2020-06-04,07:53:38,08:10:29,NA,incomplete,91,number,1,1,left,Red_Star_Grid_2.jpg,Purple_Plus_Stripes_2.jpg,Red_Triangle_Dots_3.jpg,left,735.1949999574572,true,high,NA,NA,NA,NA,NA,NA,NA,false
p40TdzWb,3mdwe879vkfdd3966pwqlqs1zxrb9a,3h7z272lxbkc5j9j5tmja3kc3mqlpz,p40TdzWb,2020-0188,2020-06-04,07:53:38,08:10:29,NA,incomplete,92,number,1,1,right,Purple_Star_Dots_4.jpg,Purple_Circle_Grid_1.jpg,Blue_Plus_Chess_4.jpg,right,563.7900000438094,true,high,NA,NA,NA,NA,NA,NA,NA,false
p40TdzWb,3mdwe879vkfdd3966pwqlqs1zxrb9a,3h7z272lxbkc5j9j5tmja3kc3mqlpz,p40TdzWb,2020-0188,2020-06-04,07:53:38,08:10:29,NA,incomplete,93,number,1,1,right,Green_Triangle_Dots_4.jpg,Green_Star_Chess_1.jpg,Blue_Circle_Stripes_4.jpg,right,565.4700000304729,true,high,NA,NA,NA,NA,NA,NA,NA,false
p40TdzWb,3mdwe879vkfdd3966pwqlqs1zxrb9a,3h7z272lxbkc5j9j5tmja3kc3mqlpz,p40TdzWb,2020-0188,2020-06-04,07:53:38,08:10:29,NA,incomplete,94,number,1,1,left,Purple_Star_Dots_4.jpg,Red_Plus_Chess_4.jpg,Purple_Circle_Stripes_2.jpg,left,632.4600000516511,true,high,NA,NA,NA,NA,NA,NA,NA,false
p40TdzWb,3mdwe879vkfdd3966pwqlqs1zxrb9a,3h7z272lxbkc5j9j5tmja3kc3mqlpz,p40TdzWb,2020-0188,2020-06-04,07:53:38,08:10:29,NA,incomplete,95,number,1,1,right,Green_Plus_Grid_2.jpg,Green_Circle_Stripes_1.jpg,Purple_Star_Chess_2.jpg,right,605.4749999893829,true,high,NA,NA,NA,NA,NA,NA,NA,false
p40TdzWb,3mdwe879vkfdd3966pwqlqs1zxrb9a,3h7z272lxbkc5j9j5tmja3kc3mqlpz,p40TdzWb,2020-0188,2020-06-04,07:53:38,08:10:29,NA,incomplete,96,number,1,1,left,Purple_Plus_Dots_3.jpg,Red_Star_Grid_3.jpg,Purple_Circle_Chess_2.jpg,left,609.070000005886,true,high,NA,NA,NA,NA,NA,NA,NA,false
p40TdzWb,3mdwe879vkfdd3966pwqlqs1zxrb9a,3h7z272lxbkc5j9j5tmja3kc3mqlpz,p40TdzWb,2020-0188,2020-06-04,07:53:38,08:10:29,NA,incomplete,97,number,1,0,left,Blue_Triangle_Chess_3.jpg,Green_Plus_Stripes_3.jpg,Blue_Circle_Dots_2.jpg,left,860.0600000354461,true,high,NA,NA,NA,NA,NA,NA,NA,false
p40TdzWb,3mdwe879vkfdd3966pwqlqs1zxrb9a,3h7z272lxbkc5j9j5tmja3kc3mqlpz,p40TdzWb,2020-0188,2020-06-04,07:53:38,08:10:29,NA,incomplete,98,number,1,1,right,Purple_Plus_Grid_4.jpg,Purple_Triangle_Dots_3.jpg,Red_Star_Chess_4.jpg,left,494.96499996166676,false,high,NA,NA,NA,NA,NA,NA,NA,false
p40TdzWb,3mdwe879vkfdd3966pwqlqs1zxrb9a,3h7z272lxbkc5j9j5tmja3kc3mqlpz,p40TdzWb,2020-0188,2020-06-04,07:53:38,08:10:29,NA,incomplete,99,number,1,1,right,Purple_Circle_Stripes_4.jpg,Purple_Star_Dots_3.jpg,Blue_Triangle_Grid_4.jpg,right,918.695000000298,true,high,NA,NA,NA,NA,NA,NA,NA,false
p40TdzWb,3mdwe879vkfdd3966pwqlqs1zxrb9a,3h7z272lxbkc5j9j5tmja3kc3mqlpz,p40TdzWb,2020-0188,2020-06-04,07:53:38,08:10:29,NA,incomplete,100,color,0,1,left,Blue_Plus_Dots_3.jpg,Blue_Star_Chess_2.jpg,Purple_Circle_Grid_3.jpg,right,680.3749999962747,false,high,NA,NA,NA,NA,NA,NA,NA,false
p40TdzWb,3mdwe879vkfdd3966pwqlqs1zxrb9a,3h7z272lxbkc5j9j5tmja3kc3mqlpz,p40TdzWb,2020-0188,2020-06-04,07:53:38,08:10:29,NA,incomplete,101,color,0,1,left,Green_Star_Chess_3.jpg,Green_Triangle_Stripes_1.jpg,Blue_Plus_Dots_3.jpg,left,591.3199999486096,true,high,NA,NA,NA,NA,NA,NA,NA,false
p40TdzWb,3mdwe879vkfdd3966pwqlqs1zxrb9a,3h7z272lxbkc5j9j5tmja3kc3mqlpz,p40TdzWb,2020-0188,2020-06-04,07:53:38,08:10:29,NA,incomplete,102,color,0,0,left,Red_Plus_Grid_2.jpg,Red_Star_Chess_4.jpg,Green_Circle_Dots_2.jpg,left,534.8899999517016,true,high,NA,NA,NA,NA,NA,NA,NA,false
p40TdzWb,3mdwe879vkfdd3966pwqlqs1zxrb9a,3h7z272lxbkc5j9j5tmja3kc3mqlpz,p40TdzWb,2020-0188,2020-06-04,07:53:38,08:10:29,NA,incomplete,103,color,0,1,left,Blue_Circle_Dots_4.jpg,Blue_Star_Grid_3.jpg,Purple_Triangle_Chess_4.jpg,left,596.9049999839626,true,high,NA,NA,NA,NA,NA,NA,NA,false
p40TdzWb,3mdwe879vkfdd3966pwqlqs1zxrb9a,3h7z272lxbkc5j9j5tmja3kc3mqlpz,p40TdzWb,2020-0188,2020-06-04,07:53:38,08:10:29,NA,incomplete,104,color,0,1,right,Red_Plus_Stripes_3.jpg,Blue_Triangle_Dots_3.jpg,Red_Star_Chess_1.jpg,right,567.2300000442192,true,high,NA,NA,NA,NA,NA,NA,NA,false
p40TdzWb,3mdwe879vkfdd3966pwqlqs1zxrb9a,3h7z272lxbkc5j9j5tmja3kc3mqlpz,p40TdzWb,2020-0188,2020-06-04,07:53:38,08:10:29,NA,incomplete,105,color,0,1,left,Purple_Star_Grid_4.jpg,Purple_Circle_Dots_1.jpg,Green_Triangle_Chess_4.jpg,left,660.8299999497831,true,high,NA,NA,NA,NA,NA,NA,NA,false
p40TdzWb,3mdwe879vkfdd3966pwqlqs1zxrb9a,3h7z272lxbkc5j9j5tmja3kc3mqlpz,p40TdzWb,2020-0188,2020-06-04,07:53:38,08:10:29,NA,incomplete,106,color,0,1,left,Green_Circle_Dots_4.jpg,Green_Triangle_Grid_1.jpg,Purple_Plus_Stripes_4.jpg,left,581.9899999769405,true,high,NA,NA,NA,NA,NA,NA,NA,false
p40TdzWb,3mdwe879vkfdd3966pwqlqs1zxrb9a,3h7z272lxbkc5j9j5tmja3kc3mqlpz,p40TdzWb,2020-0188,2020-06-04,07:53:38,08:10:29,NA,incomplete,107,color,0,1,right,Red_Triangle_Stripes_4.jpg,Blue_Plus_Grid_4.jpg,Red_Star_Dots_2.jpg,right,635.2300000144169,true,high,NA,NA,NA,NA,NA,NA,NA,false
p40TdzWb,3mdwe879vkfdd3966pwqlqs1zxrb9a,3h7z272lxbkc5j9j5tmja3kc3mqlpz,p40TdzWb,2020-0188,2020-06-04,07:53:38,08:10:29,NA,incomplete,108,color,0,0,right,Blue_Triangle_Grid_3.jpg,Red_Star_Chess_3.jpg,Blue_Circle_Dots_1.jpg,left,670.0650000129826,false,high,NA,NA,NA,NA,NA,NA,NA,false
p40TdzWb,3mdwe879vkfdd3966pwqlqs1zxrb9a,3h7z272lxbkc5j9j5tmja3kc3mqlpz,p40TdzWb,2020-0188,2020-06-04,07:53:38,08:10:29,NA,incomplete,109,color,0,0,left,Green_Plus_Stripes_1.jpg,Green_Circle_Grid_4.jpg,Red_Star_Chess_1.jpg,right,615.7599999569356,false,high,NA,NA,NA,NA,NA,NA,NA,false
p40TdzWb,3mdwe879vkfdd3966pwqlqs1zxrb9a,3h7z272lxbkc5j9j5tmja3kc3mqlpz,p40TdzWb,2020-0188,2020-06-04,07:53:38,08:10:29,NA,incomplete,110,number,1,1,right,Blue_Triangle_Stripes_1.jpg,Blue_Plus_Grid_3.jpg,Purple_Circle_Dots_1.jpg,right,629.114999959711,true,high,NA,NA,NA,NA,NA,NA,NA,false
p40TdzWb,3mdwe879vkfdd3966pwqlqs1zxrb9a,3h7z272lxbkc5j9j5tmja3kc3mqlpz,p40TdzWb,2020-0188,2020-06-04,07:53:38,08:10:29,NA,incomplete,111,number,1,1,right,Purple_Star_Dots_1.jpg,Purple_Circle_Stripes_4.jpg,Blue_Triangle_Grid_1.jpg,right,615.189999982249,true,high,NA,NA,NA,NA,NA,NA,NA,false
p40TdzWb,3mdwe879vkfdd3966pwqlqs1zxrb9a,3h7z272lxbkc5j9j5tmja3kc3mqlpz,p40TdzWb,2020-0188,2020-06-04,07:53:38,08:10:29,NA,incomplete,112,number,1,1,left,Blue_Triangle_Grid_2.jpg,Purple_Star_Stripes_2.jpg,Blue_Circle_Chess_1.jpg,left,691.7550000362098,true,high,NA,NA,NA,NA,NA,NA,NA,false
p40TdzWb,3mdwe879vkfdd3966pwqlqs1zxrb9a,3h7z272lxbkc5j9j5tmja3kc3mqlpz,p40TdzWb,2020-0188,2020-06-04,07:53:38,08:10:29,NA,incomplete,113,number,1,0,left,Purple_Circle_Dots_4.jpg,Blue_Plus_Stripes_4.jpg,Purple_Triangle_Grid_3.jpg,left,891.6899999603629,true,high,NA,NA,NA,NA,NA,NA,NA,false
p40TdzWb,3mdwe879vkfdd3966pwqlqs1zxrb9a,3h7z272lxbkc5j9j5tmja3kc3mqlpz,p40TdzWb,2020-0188,2020-06-04,07:53:38,08:10:29,NA,incomplete,114,number,1,1,left,Blue_Triangle_Stripes_1.jpg,Purple_Plus_Dots_1.jpg,Blue_Circle_Chess_4.jpg,left,582.1900000446476,true,high,NA,NA,NA,NA,NA,NA,NA,false
p40TdzWb,3mdwe879vkfdd3966pwqlqs1zxrb9a,3h7z272lxbkc5j9j5tmja3kc3mqlpz,p40TdzWb,2020-0188,2020-06-04,07:53:38,08:10:29,NA,incomplete,115,number,1,1,left,Blue_Circle_Dots_1.jpg,Purple_Triangle_Stripes_1.jpg,Blue_Star_Grid_2.jpg,left,529.8750000074506,true,high,NA,NA,NA,NA,NA,NA,NA,false
p40TdzWb,3mdwe879vkfdd3966pwqlqs1zxrb9a,3h7z272lxbkc5j9j5tmja3kc3mqlpz,p40TdzWb,2020-0188,2020-06-04,07:53:38,08:10:29,NA,incomplete,116,number,1,1,right,Purple_Circle_Dots_2.jpg,Purple_Plus_Chess_3.jpg,Green_Star_Grid_2.jpg,right,800.7900000084192,true,high,NA,NA,NA,NA,NA,NA,NA,false
p40TdzWb,3mdwe879vkfdd3966pwqlqs1zxrb9a,3h7z272lxbkc5j9j5tmja3kc3mqlpz,p40TdzWb,2020-0188,2020-06-04,07:53:38,08:10:29,NA,incomplete,117,number,1,1,right,Red_Triangle_Chess_2.jpg,Red_Circle_Dots_3.jpg,Purple_Plus_Grid_2.jpg,right,668.329999956768,true,high,NA,NA,NA,NA,NA,NA,NA,false
p40TdzWb,3mdwe879vkfdd3966pwqlqs1zxrb9a,3h7z272lxbkc5j9j5tmja3kc3mqlpz,p40TdzWb,2020-0188,2020-06-04,07:53:38,08:10:29,NA,incomplete,118,number,1,1,left,Red_Plus_Grid_1.jpg,Green_Triangle_Dots_1.jpg,Red_Circle_Chess_2.jpg,left,757.7750000054948,true,high,NA,NA,NA,NA,NA,NA,NA,false
p40TdzWb,3mdwe879vkfdd3966pwqlqs1zxrb9a,3h7z272lxbkc5j9j5tmja3kc3mqlpz,p40TdzWb,2020-0188,2020-06-04,07:53:38,08:10:29,NA,incomplete,119,number,1,1,right,Red_Plus_Grid_2.jpg,Red_Triangle_Chess_4.jpg,Purple_Circle_Stripes_2.jpg,right,611.3749999785796,true,high,NA,NA,NA,NA,NA,NA,NA,false
p40TdzWb,3mdwe879vkfdd3966pwqlqs1zxrb9a,3h7z272lxbkc5j9j5tmja3kc3mqlpz,p40TdzWb,2020-0188,2020-06-04,07:53:38,08:10:29,NA,incomplete,120,gender,2,1,left,C_F_06.jpg,A_F_03.jpg,C_M_09.jpg,NA,NA,NA,high,NA,NA,NA,NA,NA,NA,NA,false
p40TdzWb,3mdwe879vkfdd3966pwqlqs1zxrb9a,3h7z272lxbkc5j9j5tmja3kc3mqlpz,p40TdzWb,2020-0188,2020-06-04,07:53:38,08:10:29,NA,incomplete,121,gender,2,1,left,A_F_09.jpg,C_F_02.jpg,A_M_15.jpg,left,747.3899999749847,true,high,NA,NA,NA,NA,NA,NA,NA,false
p40TdzWb,3mdwe879vkfdd3966pwqlqs1zxrb9a,3h7z272lxbkc5j9j5tmja3kc3mqlpz,p40TdzWb,2020-0188,2020-06-04,07:53:38,08:10:29,NA,incomplete,122,gender,2,1,left,A_F_15.jpg,C_F_14.jpg,A_M_04.jpg,left,940.5050000059418,true,high,NA,NA,NA,NA,NA,NA,NA,false
p40TdzWb,3mdwe879vkfdd3966pwqlqs1zxrb9a,3h7z272lxbkc5j9j5tmja3kc3mqlpz,p40TdzWb,2020-0188,2020-06-04,07:53:38,08:10:29,NA,incomplete,123,gender,2,1,right,A_F_15.jpg,A_M_11.jpg,C_F_12.jpg,right,744.6149999741465,true,high,NA,NA,NA,NA,NA,NA,NA,false
p40TdzWb,3mdwe879vkfdd3966pwqlqs1zxrb9a,3h7z272lxbkc5j9j5tmja3kc3mqlpz,p40TdzWb,2020-0188,2020-06-04,07:53:38,08:10:29,NA,incomplete,124,gender,2,1,right,C_M_11.jpg,C_F_08.jpg,A_M_14.jpg,right,993.8349999720231,true,high,NA,NA,NA,NA,NA,NA,NA,false
p40TdzWb,3mdwe879vkfdd3966pwqlqs1zxrb9a,3h7z272lxbkc5j9j5tmja3kc3mqlpz,p40TdzWb,2020-0188,2020-06-04,07:53:38,08:10:29,NA,incomplete,125,gender,2,1,left,C_M_04.jpg,A_M_09.jpg,C_F_14.jpg,left,710.1949999923818,true,high,NA,NA,NA,NA,NA,NA,NA,false
p40TdzWb,3mdwe879vkfdd3966pwqlqs1zxrb9a,3h7z272lxbkc5j9j5tmja3kc3mqlpz,p40TdzWb,2020-0188,2020-06-04,07:53:38,08:10:29,NA,incomplete,126,gender,2,1,right,C_F_05.jpg,C_M_03.jpg,A_F_11.jpg,right,835.2900000172667,true,high,NA,NA,NA,NA,NA,NA,NA,false
p40TdzWb,3mdwe879vkfdd3966pwqlqs1zxrb9a,3h7z272lxbkc5j9j5tmja3kc3mqlpz,p40TdzWb,2020-0188,2020-06-04,07:53:38,08:10:29,NA,incomplete,127,gender,2,1,left,C_F_11.jpg,A_F_02.jpg,C_M_16.jpg,left,646.3399999774992,true,high,NA,NA,NA,NA,NA,NA,NA,false
p40TdzWb,3mdwe879vkfdd3966pwqlqs1zxrb9a,3h7z272lxbkc5j9j5tmja3kc3mqlpz,p40TdzWb,2020-0188,2020-06-04,07:53:38,08:10:29,NA,incomplete,128,gender,2,0,right,A_M_10.jpg,A_F_07.jpg,C_M_14.jpg,right,977.1799999871291,true,high,NA,NA,NA,NA,NA,NA,NA,false
p40TdzWb,3mdwe879vkfdd3966pwqlqs1zxrb9a,3h7z272lxbkc5j9j5tmja3kc3mqlpz,p40TdzWb,2020-0188,2020-06-04,07:53:38,08:10:29,NA,incomplete,129,gender,2,1,left,A_F_15.jpg,C_F_04.jpg,A_M_07.jpg,right,1006.8900000187568,false,high,NA,NA,NA,NA,NA,NA,NA,false
p40TdzWb,3mdwe879vkfdd3966pwqlqs1zxrb9a,3h7z272lxbkc5j9j5tmja3kc3mqlpz,p40TdzWb,2020-0188,2020-06-04,07:53:38,08:10:29,NA,incomplete,130,gender,2,1,left,C_M_15.jpg,A_M_08.jpg,C_F_13.jpg,left,884.4999999855645,true,high,NA,NA,NA,NA,NA,NA,NA,false
p40TdzWb,3mdwe879vkfdd3966pwqlqs1zxrb9a,3h7z272lxbkc5j9j5tmja3kc3mqlpz,p40TdzWb,2020-0188,2020-06-04,07:53:38,08:10:29,NA,incomplete,131,gender,2,1,left,A_M_04.jpg,C_M_11.jpg,A_F_12.jpg,left,778.8999999756925,true,high,NA,NA,NA,NA,NA,NA,NA,false
p40TdzWb,3mdwe879vkfdd3966pwqlqs1zxrb9a,3h7z272lxbkc5j9j5tmja3kc3mqlpz,p40TdzWb,2020-0188,2020-06-04,07:53:38,08:10:29,NA,incomplete,132,gender,2,0,left,A_F_16.jpg,C_F_09.jpg,A_M_11.jpg,left,784.5300000044517,true,high,NA,NA,NA,NA,NA,NA,NA,false
p40TdzWb,3mdwe879vkfdd3966pwqlqs1zxrb9a,3h7z272lxbkc5j9j5tmja3kc3mqlpz,p40TdzWb,2020-0188,2020-06-04,07:53:38,08:10:29,NA,incomplete,133,gender,2,1,right,A_M_11.jpg,A_F_13.jpg,C_M_09.jpg,right,804.9950000131503,true,high,NA,NA,NA,NA,NA,NA,NA,false
p40TdzWb,3mdwe879vkfdd3966pwqlqs1zxrb9a,3h7z272lxbkc5j9j5tmja3kc3mqlpz,p40TdzWb,2020-0188,2020-06-04,07:53:38,08:10:29,NA,incomplete,134,gender,2,1,left,C_M_02.jpg,A_M_04.jpg,C_F_16.jpg,left,680.8549999841489,true,high,NA,NA,NA,NA,NA,NA,NA,false
p40TdzWb,3mdwe879vkfdd3966pwqlqs1zxrb9a,3h7z272lxbkc5j9j5tmja3kc3mqlpz,p40TdzWb,2020-0188,2020-06-04,07:53:38,08:10:29,NA,incomplete,135,gender,2,0,left,C_M_09.jpg,A_M_05.jpg,C_F_13.jpg,left,730.8199999970384,true,high,NA,NA,NA,NA,NA,NA,NA,false
p40TdzWb,3mdwe879vkfdd3966pwqlqs1zxrb9a,3h7z272lxbkc5j9j5tmja3kc3mqlpz,p40TdzWb,2020-0188,2020-06-04,07:53:38,08:10:29,NA,incomplete,136,gender,2,1,right,A_F_02.jpg,A_M_04.jpg,C_F_14.jpg,right,675.7499999948777,true,high,NA,NA,NA,NA,NA,NA,NA,false
p40TdzWb,3mdwe879vkfdd3966pwqlqs1zxrb9a,3h7z272lxbkc5j9j5tmja3kc3mqlpz,p40TdzWb,2020-0188,2020-06-04,07:53:38,08:10:29,NA,incomplete,137,gender,2,1,right,C_M_02.jpg,C_F_05.jpg,A_M_16.jpg,right,843.0349999689497,true,high,NA,NA,NA,NA,NA,NA,NA,false
p40TdzWb,3mdwe879vkfdd3966pwqlqs1zxrb9a,3h7z272lxbkc5j9j5tmja3kc3mqlpz,p40TdzWb,2020-0188,2020-06-04,07:53:38,08:10:29,NA,incomplete,138,gender,2,1,left,C_F_11.jpg,A_F_08.jpg,C_M_02.jpg,left,653.2599999918602,true,high,NA,NA,NA,NA,NA,NA,NA,false
p40TdzWb,3mdwe879vkfdd3966pwqlqs1zxrb9a,3h7z272lxbkc5j9j5tmja3kc3mqlpz,p40TdzWb,2020-0188,2020-06-04,07:53:38,08:10:29,NA,incomplete,139,gender,2,1,right,C_F_12.jpg,C_M_05.jpg,A_F_01.jpg,right,630.7200000155717,true,high,NA,NA,NA,NA,NA,NA,NA,false
p40TdzWb,3mdwe879vkfdd3966pwqlqs1zxrb9a,3h7z272lxbkc5j9j5tmja3kc3mqlpz,p40TdzWb,2020-0188,2020-06-04,07:53:38,08:10:29,NA,incomplete,140,race,3,0,right,C_M_04.jpg,A_M_13.jpg,C_F_16.jpg,left,707.2999999509193,false,high,NA,NA,NA,NA,NA,NA,NA,false
p40TdzWb,3mdwe879vkfdd3966pwqlqs1zxrb9a,3h7z272lxbkc5j9j5tmja3kc3mqlpz,p40TdzWb,2020-0188,2020-06-04,07:53:38,08:10:29,NA,incomplete,141,race,3,1,right,A_F_07.jpg,C_F_05.jpg,A_M_14.jpg,left,738.1300000124611,false,high,NA,NA,NA,NA,NA,NA,NA,false
p40TdzWb,3mdwe879vkfdd3966pwqlqs1zxrb9a,3h7z272lxbkc5j9j5tmja3kc3mqlpz,p40TdzWb,2020-0188,2020-06-04,07:53:38,08:10:29,NA,incomplete,142,race,3,1,right,C_F_07.jpg,A_F_06.jpg,C_M_04.jpg,left,729.334999981802,false,high,NA,NA,NA,NA,NA,NA,NA,false
p40TdzWb,3mdwe879vkfdd3966pwqlqs1zxrb9a,3h7z272lxbkc5j9j5tmja3kc3mqlpz,p40TdzWb,2020-0188,2020-06-04,07:53:38,08:10:29,NA,incomplete,143,race,3,1,left,A_M_15.jpg,A_F_07.jpg,C_M_02.jpg,left,824.8449999955483,true,high,NA,NA,NA,NA,NA,NA,NA,false
p40TdzWb,3mdwe879vkfdd3966pwqlqs1zxrb9a,3h7z272lxbkc5j9j5tmja3kc3mqlpz,p40TdzWb,2020-0188,2020-06-04,07:53:38,08:10:29,NA,incomplete,144,race,3,1,right,A_F_09.jpg,C_F_10.jpg,A_M_04.jpg,right,868.0649999878369,true,high,NA,NA,NA,NA,NA,NA,NA,false
p40TdzWb,3mdwe879vkfdd3966pwqlqs1zxrb9a,3h7z272lxbkc5j9j5tmja3kc3mqlpz,p40TdzWb,2020-0188,2020-06-04,07:53:38,08:10:29,NA,incomplete,145,race,3,0,left,A_M_06.jpg,A_F_05.jpg,C_M_07.jpg,left,957.8750000218861,true,high,NA,NA,NA,NA,NA,NA,NA,false
p40TdzWb,3mdwe879vkfdd3966pwqlqs1zxrb9a,3h7z272lxbkc5j9j5tmja3kc3mqlpz,p40TdzWb,2020-0188,2020-06-04,07:53:38,08:10:29,NA,incomplete,146,race,3,1,left,A_F_16.jpg,A_M_03.jpg,C_F_04.jpg,left,1043.3450000127777,true,high,NA,NA,NA,NA,NA,NA,NA,false
p40TdzWb,3mdwe879vkfdd3966pwqlqs1zxrb9a,3h7z272lxbkc5j9j5tmja3kc3mqlpz,p40TdzWb,2020-0188,2020-06-04,07:53:38,08:10:29,NA,incomplete,147,race,3,1,right,C_M_12.jpg,A_M_11.jpg,C_F_14.jpg,right,694.1550000337884,true,high,NA,NA,NA,NA,NA,NA,NA,false
p40TdzWb,3mdwe879vkfdd3966pwqlqs1zxrb9a,3h7z272lxbkc5j9j5tmja3kc3mqlpz,p40TdzWb,2020-0188,2020-06-04,07:53:38,08:10:29,NA,incomplete,148,race,3,0,right,C_M_13.jpg,A_M_04.jpg,C_F_15.jpg,right,847.0549999619834,true,high,NA,NA,NA,NA,NA,NA,NA,false
p40TdzWb,3mdwe879vkfdd3966pwqlqs1zxrb9a,3h7z272lxbkc5j9j5tmja3kc3mqlpz,p40TdzWb,2020-0188,2020-06-04,07:53:38,08:10:29,NA,incomplete,149,race,3,1,right,C_M_09.jpg,A_M_15.jpg,C_F_10.jpg,left,729.4300000066869,false,high,NA,NA,NA,NA,NA,NA,NA,false
p40TdzWb,3mdwe879vkfdd3966pwqlqs1zxrb9a,3h7z272lxbkc5j9j5tmja3kc3mqlpz,p40TdzWb,2020-0188,2020-06-04,07:53:38,08:10:29,NA,incomplete,150,race,3,1,right,C_M_08.jpg,A_M_07.jpg,C_F_11.jpg,left,858.7900000275113,false,high,NA,NA,NA,NA,NA,NA,NA,false
p40TdzWb,3mdwe879vkfdd3966pwqlqs1zxrb9a,3h7z272lxbkc5j9j5tmja3kc3mqlpz,p40TdzWb,2020-0188,2020-06-04,07:53:38,08:10:29,NA,incomplete,151,race,3,1,left,A_F_10.jpg,A_M_08.jpg,C_F_09.jpg,left,938.5649999603629,true,high,NA,NA,NA,NA,NA,NA,NA,false
p40TdzWb,3mdwe879vkfdd3966pwqlqs1zxrb9a,3h7z272lxbkc5j9j5tmja3kc3mqlpz,p40TdzWb,2020-0188,2020-06-04,07:53:38,08:10:29,NA,incomplete,152,race,3,1,left,A_F_05.jpg,A_M_08.jpg,C_F_03.jpg,left,753.4199999645352,true,high,NA,NA,NA,NA,NA,NA,NA,false
p40TdzWb,3mdwe879vkfdd3966pwqlqs1zxrb9a,3h7z272lxbkc5j9j5tmja3kc3mqlpz,p40TdzWb,2020-0188,2020-06-04,07:53:38,08:10:29,NA,incomplete,153,race,3,1,right,A_F_04.jpg,C_F_02.jpg,A_M_16.jpg,right,839.2400000011548,true,high,NA,NA,NA,NA,NA,NA,NA,false
p40TdzWb,3mdwe879vkfdd3966pwqlqs1zxrb9a,3h7z272lxbkc5j9j5tmja3kc3mqlpz,p40TdzWb,2020-0188,2020-06-04,07:53:38,08:10:29,NA,incomplete,154,race,3,1,right,C_M_05.jpg,A_M_08.jpg,C_F_16.jpg,right,811.1299999873154,true,high,NA,NA,NA,NA,NA,NA,NA,false
p40TdzWb,3mdwe879vkfdd3966pwqlqs1zxrb9a,3h7z272lxbkc5j9j5tmja3kc3mqlpz,p40TdzWb,2020-0188,2020-06-04,07:53:38,08:10:29,NA,incomplete,155,race,3,1,left,C_F_16.jpg,C_M_03.jpg,A_F_02.jpg,left,742.484999995213,true,high,NA,NA,NA,NA,NA,NA,NA,false
p40TdzWb,3mdwe879vkfdd3966pwqlqs1zxrb9a,3h7z272lxbkc5j9j5tmja3kc3mqlpz,p40TdzWb,2020-0188,2020-06-04,07:53:38,08:10:29,NA,incomplete,156,race,3,0,left,C_F_06.jpg,C_M_08.jpg,A_F_16.jpg,left,820.1199999894015,true,high,NA,NA,NA,NA,NA,NA,NA,false
p40TdzWb,3mdwe879vkfdd3966pwqlqs1zxrb9a,3h7z272lxbkc5j9j5tmja3kc3mqlpz,p40TdzWb,2020-0188,2020-06-04,07:53:38,08:10:29,NA,incomplete,157,race,3,1,right,C_M_03.jpg,A_M_13.jpg,C_F_06.jpg,left,702.6250000344589,false,high,NA,NA,NA,NA,NA,NA,NA,false
p40TdzWb,3mdwe879vkfdd3966pwqlqs1zxrb9a,3h7z272lxbkc5j9j5tmja3kc3mqlpz,p40TdzWb,2020-0188,2020-06-04,07:53:38,08:10:29,NA,incomplete,158,race,3,1,right,A_M_08.jpg,C_M_15.jpg,A_F_14.jpg,right,1034.975000016857,true,high,NA,NA,NA,NA,NA,NA,NA,false
p40TdzWb,3mdwe879vkfdd3966pwqlqs1zxrb9a,3h7z272lxbkc5j9j5tmja3kc3mqlpz,p40TdzWb,2020-0188,2020-06-04,07:53:38,08:10:29,NA,incomplete,159,race,3,1,right,A_F_02.jpg,C_F_14.jpg,A_M_07.jpg,right,738.8400000054389,true,high,NA,NA,NA,NA,NA,NA,NA,false
p40TdzWb,3mdwe879vkfdd3966pwqlqs1zxrb9a,3h7z272lxbkc5j9j5tmja3kc3mqlpz,p40TdzWb,2020-0188,2020-06-04,07:53:38,08:10:29,NA,incomplete,160,gender,2,1,right,C_M_03.jpg,C_F_13.jpg,A_M_15.jpg,left,1340.8550000167452,false,high,NA,NA,NA,NA,NA,NA,NA,false
p40TdzWb,3mdwe879vkfdd3966pwqlqs1zxrb9a,3h7z272lxbkc5j9j5tmja3kc3mqlpz,p40TdzWb,2020-0188,2020-06-04,07:53:38,08:10:29,NA,incomplete,161,gender,2,0,left,A_F_03.jpg,C_F_04.jpg,A_M_11.jpg,left,1098.615000024438,true,high,NA,NA,NA,NA,NA,NA,NA,false
p40TdzWb,3mdwe879vkfdd3966pwqlqs1zxrb9a,3h7z272lxbkc5j9j5tmja3kc3mqlpz,p40TdzWb,2020-0188,2020-06-04,07:53:38,08:10:29,NA,incomplete,162,gender,2,1,left,C_F_10.jpg,A_F_04.jpg,C_M_12.jpg,right,1056.0399999958463,false,high,NA,NA,NA,NA,NA,NA,NA,false
p40TdzWb,3mdwe879vkfdd3966pwqlqs1zxrb9a,3h7z272lxbkc5j9j5tmja3kc3mqlpz,p40TdzWb,2020-0188,2020-06-04,07:53:38,08:10:29,NA,incomplete,163,gender,2,1,right,A_M_02.jpg,A_F_14.jpg,C_M_06.jpg,right,1042.490000021644,true,high,NA,NA,NA,NA,NA,NA,NA,false
p40TdzWb,3mdwe879vkfdd3966pwqlqs1zxrb9a,3h7z272lxbkc5j9j5tmja3kc3mqlpz,p40TdzWb,2020-0188,2020-06-04,07:53:38,08:10:29,NA,incomplete,164,gender,2,1,right,A_F_03.jpg,A_M_11.jpg,C_F_10.jpg,right,700.780000013765,true,high,NA,NA,NA,NA,NA,NA,NA,false
p40TdzWb,3mdwe879vkfdd3966pwqlqs1zxrb9a,3h7z272lxbkc5j9j5tmja3kc3mqlpz,p40TdzWb,2020-0188,2020-06-04,07:53:38,08:10:29,NA,incomplete,165,gender,2,1,left,A_M_16.jpg,C_M_12.jpg,A_F_11.jpg,right,814.8350000265054,false,high,NA,NA,NA,NA,NA,NA,NA,false
p40TdzWb,3mdwe879vkfdd3966pwqlqs1zxrb9a,3h7z272lxbkc5j9j5tmja3kc3mqlpz,p40TdzWb,2020-0188,2020-06-04,07:53:38,08:10:29,NA,incomplete,166,gender,2,0,right,C_F_14.jpg,C_M_03.jpg,A_F_08.jpg,right,880.7600000291131,true,high,NA,NA,NA,NA,NA,NA,NA,false
p40TdzWb,3mdwe879vkfdd3966pwqlqs1zxrb9a,3h7z272lxbkc5j9j5tmja3kc3mqlpz,p40TdzWb,2020-0188,2020-06-04,07:53:38,08:10:29,NA,incomplete,167,gender,2,1,right,C_M_13.jpg,C_F_08.jpg,A_M_10.jpg,right,987.6299999887124,true,high,NA,NA,NA,NA,NA,NA,NA,false
p40TdzWb,3mdwe879vkfdd3966pwqlqs1zxrb9a,3h7z272lxbkc5j9j5tmja3kc3mqlpz,p40TdzWb,2020-0188,2020-06-04,07:53:38,08:10:29,NA,incomplete,168,gender,2,0,right,A_F_11.jpg,A_M_13.jpg,C_F_05.jpg,left,1032.0700000156648,false,high,NA,NA,NA,NA,NA,NA,NA,false
p40TdzWb,3mdwe879vkfdd3966pwqlqs1zxrb9a,3h7z272lxbkc5j9j5tmja3kc3mqlpz,p40TdzWb,2020-0188,2020-06-04,07:53:38,08:10:29,NA,incomplete,169,gender,2,1,left,C_F_09.jpg,A_F_14.jpg,C_M_10.jpg,right,850.1049999613315,false,high,NA,NA,NA,NA,NA,NA,NA,false
p40TdzWb,3mdwe879vkfdd3966pwqlqs1zxrb9a,3h7z272lxbkc5j9j5tmja3kc3mqlpz,p40TdzWb,2020-0188,2020-06-04,07:53:38,08:10:29,NA,incomplete,170,gender,2,0,left,C_M_07.jpg,A_M_09.jpg,C_F_12.jpg,right,1068.3549999957904,false,high,NA,NA,NA,NA,NA,NA,NA,false
p40TdzWb,3mdwe879vkfdd3966pwqlqs1zxrb9a,3h7z272lxbkc5j9j5tmja3kc3mqlpz,p40TdzWb,2020-0188,2020-06-04,07:53:38,08:10:29,NA,incomplete,171,gender,2,1,right,C_M_03.jpg,C_F_08.jpg,A_M_05.jpg,right,727.1799999871291,true,high,NA,NA,NA,NA,NA,NA,NA,false
p40TdzWb,3mdwe879vkfdd3966pwqlqs1zxrb9a,3h7z272lxbkc5j9j5tmja3kc3mqlpz,p40TdzWb,2020-0188,2020-06-04,07:53:38,08:10:29,NA,incomplete,172,gender,2,1,left,A_F_13.jpg,C_F_06.jpg,A_M_10.jpg,left,644.3699999945238,true,high,NA,NA,NA,NA,NA,NA,NA,false
p40TdzWb,3mdwe879vkfdd3966pwqlqs1zxrb9a,3h7z272lxbkc5j9j5tmja3kc3mqlpz,p40TdzWb,2020-0188,2020-06-04,07:53:38,08:10:29,NA,incomplete,173,gender,2,1,left,A_M_13.jpg,C_M_03.jpg,A_F_08.jpg,left,719.1250000032596,true,high,NA,NA,NA,NA,NA,NA,NA,false
p40TdzWb,3mdwe879vkfdd3966pwqlqs1zxrb9a,3h7z272lxbkc5j9j5tmja3kc3mqlpz,p40TdzWb,2020-0188,2020-06-04,07:53:38,08:10:29,NA,incomplete,174,gender,2,1,left,C_M_01.jpg,A_M_02.jpg,C_F_15.jpg,left,775.0849999720231,true,high,NA,NA,NA,NA,NA,NA,NA,false
p40TdzWb,3mdwe879vkfdd3966pwqlqs1zxrb9a,3h7z272lxbkc5j9j5tmja3kc3mqlpz,p40TdzWb,2020-0188,2020-06-04,07:53:38,08:10:29,NA,incomplete,175,gender,2,1,right,C_F_08.jpg,C_M_07.jpg,A_F_10.jpg,right,612.4650000128895,true,high,NA,NA,NA,NA,NA,NA,NA,false
p40TdzWb,3mdwe879vkfdd3966pwqlqs1zxrb9a,3h7z272lxbkc5j9j5tmja3kc3mqlpz,p40TdzWb,2020-0188,2020-06-04,07:53:38,08:10:29,NA,incomplete,176,gender,2,1,right,A_F_08.jpg,A_M_09.jpg,C_F_10.jpg,left,639.7500000311993,false,high,NA,NA,NA,NA,NA,NA,NA,false
p40TdzWb,3mdwe879vkfdd3966pwqlqs1zxrb9a,3h7z272lxbkc5j9j5tmja3kc3mqlpz,p40TdzWb,2020-0188,2020-06-04,07:53:38,08:10:29,NA,incomplete,177,gender,2,1,right,A_F_03.jpg,A_M_16.jpg,C_F_08.jpg,right,818.6499999719672,true,high,NA,NA,NA,NA,NA,NA,NA,false
p40TdzWb,3mdwe879vkfdd3966pwqlqs1zxrb9a,3h7z272lxbkc5j9j5tmja3kc3mqlpz,p40TdzWb,2020-0188,2020-06-04,07:53:38,08:10:29,NA,incomplete,178,gender,2,0,left,A_M_16.jpg,C_M_14.jpg,A_F_12.jpg,left,783.0899999826215,true,high,NA,NA,NA,NA,NA,NA,NA,false
p40TdzWb,3mdwe879vkfdd3966pwqlqs1zxrb9a,3h7z272lxbkc5j9j5tmja3kc3mqlpz,p40TdzWb,2020-0188,2020-06-04,07:53:38,08:10:29,NA,incomplete,179,gender,2,1,right,A_M_13.jpg,A_F_08.jpg,C_M_04.jpg,right,739.6849999786355,true,high,NA,NA,NA,NA,NA,NA,NA,false
p40TdzWb,3mdwe879vkfdd3966pwqlqs1zxrb9a,3h7z272lxbkc5j9j5tmja3kc3mqlpz,p40TdzWb,2020-0188,2020-06-04,07:53:38,08:10:29,NA,incomplete,180,race,3,1,right,A_M_01.jpg,C_M_11.jpg,A_F_10.jpg,left,646.1950000375509,false,high,NA,NA,NA,NA,NA,NA,NA,false
p40TdzWb,3mdwe879vkfdd3966pwqlqs1zxrb9a,3h7z272lxbkc5j9j5tmja3kc3mqlpz,p40TdzWb,2020-0188,2020-06-04,07:53:38,08:10:29,NA,incomplete,181,race,3,1,right,C_M_04.jpg,A_M_06.jpg,C_F_02.jpg,left,652.3750000051223,false,high,NA,NA,NA,NA,NA,NA,NA,false
p40TdzWb,3mdwe879vkfdd3966pwqlqs1zxrb9a,3h7z272lxbkc5j9j5tmja3kc3mqlpz,p40TdzWb,2020-0188,2020-06-04,07:53:38,08:10:29,NA,incomplete,182,race,3,1,left,C_M_01.jpg,C_F_16.jpg,A_M_08.jpg,left,1038.799999980256,true,high,NA,NA,NA,NA,NA,NA,NA,false
p40TdzWb,3mdwe879vkfdd3966pwqlqs1zxrb9a,3h7z272lxbkc5j9j5tmja3kc3mqlpz,p40TdzWb,2020-0188,2020-06-04,07:53:38,08:10:29,NA,incomplete,183,race,3,1,right,C_M_10.jpg,A_M_06.jpg,C_F_01.jpg,right,868.3249999885447,true,high,NA,NA,NA,NA,NA,NA,NA,false
p40TdzWb,3mdwe879vkfdd3966pwqlqs1zxrb9a,3h7z272lxbkc5j9j5tmja3kc3mqlpz,p40TdzWb,2020-0188,2020-06-04,07:53:38,08:10:29,NA,incomplete,184,race,3,0,left,C_F_10.jpg,C_M_06.jpg,A_F_16.jpg,left,1106.469999998808,true,high,NA,NA,NA,NA,NA,NA,NA,false
p40TdzWb,3mdwe879vkfdd3966pwqlqs1zxrb9a,3h7z272lxbkc5j9j5tmja3kc3mqlpz,p40TdzWb,2020-0188,2020-06-04,07:53:38,08:10:29,NA,incomplete,185,race,3,1,right,C_F_03.jpg,A_F_13.jpg,C_M_10.jpg,right,738.4750000201166,true,high,NA,NA,NA,NA,NA,NA,NA,false
p40TdzWb,3mdwe879vkfdd3966pwqlqs1zxrb9a,3h7z272lxbkc5j9j5tmja3kc3mqlpz,p40TdzWb,2020-0188,2020-06-04,07:53:38,08:10:29,NA,incomplete,186,race,3,0,right,A_M_15.jpg,C_M_06.jpg,A_F_02.jpg,right,961.5700000431389,true,high,NA,NA,NA,NA,NA,NA,NA,false
p40TdzWb,3mdwe879vkfdd3966pwqlqs1zxrb9a,3h7z272lxbkc5j9j5tmja3kc3mqlpz,p40TdzWb,2020-0188,2020-06-04,07:53:38,08:10:29,NA,incomplete,187,race,3,1,right,A_M_08.jpg,C_M_11.jpg,A_F_03.jpg,right,983.1750000012107,true,high,NA,NA,NA,NA,NA,NA,NA,false
p40TdzWb,3mdwe879vkfdd3966pwqlqs1zxrb9a,3h7z272lxbkc5j9j5tmja3kc3mqlpz,p40TdzWb,2020-0188,2020-06-04,07:53:38,08:10:29,NA,incomplete,188,race,3,0,right,A_F_12.jpg,C_F_07.jpg,A_M_01.jpg,right,972.6599999703467,true,high,NA,NA,NA,NA,NA,NA,NA,false
p40TdzWb,3mdwe879vkfdd3966pwqlqs1zxrb9a,3h7z272lxbkc5j9j5tmja3kc3mqlpz,p40TdzWb,2020-0188,2020-06-04,07:53:38,08:10:29,NA,incomplete,189,race,3,1,right,C_M_15.jpg,A_M_02.jpg,C_F_07.jpg,right,897.6949999923818,true,high,NA,NA,NA,NA,NA,NA,NA,false
p40TdzWb,3mdwe879vkfdd3966pwqlqs1zxrb9a,3h7z272lxbkc5j9j5tmja3kc3mqlpz,p40TdzWb,2020-0188,2020-06-04,07:53:38,08:10:29,NA,incomplete,190,race,3,1,left,C_F_01.jpg,C_M_02.jpg,A_F_14.jpg,right,1162.6600000308827,false,high,NA,NA,NA,NA,NA,NA,NA,false
p40TdzWb,3mdwe879vkfdd3966pwqlqs1zxrb9a,3h7z272lxbkc5j9j5tmja3kc3mqlpz,p40TdzWb,2020-0188,2020-06-04,07:53:38,08:10:29,NA,incomplete,191,race,3,0,right,A_F_16.jpg,C_F_03.jpg,A_M_04.jpg,right,801.9900000072084,true,high,NA,NA,NA,NA,NA,NA,NA,false
p40TdzWb,3mdwe879vkfdd3966pwqlqs1zxrb9a,3h7z272lxbkc5j9j5tmja3kc3mqlpz,p40TdzWb,2020-0188,2020-06-04,07:53:38,08:10:29,NA,incomplete,192,race,3,1,left,C_F_13.jpg,C_M_15.jpg,A_F_11.jpg,right,1084.4200000283308,false,high,NA,NA,NA,NA,NA,NA,NA,false
p40TdzWb,3mdwe879vkfdd3966pwqlqs1zxrb9a,3h7z272lxbkc5j9j5tmja3kc3mqlpz,p40TdzWb,2020-0188,2020-06-04,07:53:38,08:10:29,NA,incomplete,193,race,3,1,right,A_F_06.jpg,C_F_09.jpg,A_M_02.jpg,right,1092.3449999536388,true,high,NA,NA,NA,NA,NA,NA,NA,false
p40TdzWb,3mdwe879vkfdd3966pwqlqs1zxrb9a,3h7z272lxbkc5j9j5tmja3kc3mqlpz,p40TdzWb,2020-0188,2020-06-04,07:53:38,08:10:29,NA,incomplete,194,race,3,1,right,A_M_02.jpg,C_M_05.jpg,A_F_16.jpg,right,893.3800000231713,true,high,NA,NA,NA,NA,NA,NA,NA,false
p40TdzWb,3mdwe879vkfdd3966pwqlqs1zxrb9a,3h7z272lxbkc5j9j5tmja3kc3mqlpz,p40TdzWb,2020-0188,2020-06-04,07:53:38,08:10:29,NA,incomplete,195,race,3,0,left,A_M_08.jpg,A_F_07.jpg,C_M_15.jpg,left,839.1299999784678,true,high,NA,NA,NA,NA,NA,NA,NA,false
p40TdzWb,3mdwe879vkfdd3966pwqlqs1zxrb9a,3h7z272lxbkc5j9j5tmja3kc3mqlpz,p40TdzWb,2020-0188,2020-06-04,07:53:38,08:10:29,NA,incomplete,196,race,3,1,right,A_F_16.jpg,C_F_12.jpg,A_M_10.jpg,right,976.4900000300258,true,high,NA,NA,NA,NA,NA,NA,NA,false
p40TdzWb,3mdwe879vkfdd3966pwqlqs1zxrb9a,3h7z272lxbkc5j9j5tmja3kc3mqlpz,p40TdzWb,2020-0188,2020-06-04,07:53:38,08:10:29,NA,incomplete,197,race,3,1,right,C_F_13.jpg,A_F_02.jpg,C_M_06.jpg,right,679.439999978058,true,high,NA,NA,NA,NA,NA,NA,NA,false
p40TdzWb,3mdwe879vkfdd3966pwqlqs1zxrb9a,3h7z272lxbkc5j9j5tmja3kc3mqlpz,p40TdzWb,2020-0188,2020-06-04,07:53:38,08:10:29,NA,incomplete,198,race,3,1,left,A_M_13.jpg,A_F_16.jpg,C_M_07.jpg,left,718.4250000282191,true,high,NA,NA,NA,NA,NA,NA,NA,false
p40TdzWb,3mdwe879vkfdd3966pwqlqs1zxrb9a,3h7z272lxbkc5j9j5tmja3kc3mqlpz,p40TdzWb,2020-0188,2020-06-04,07:53:38,08:10:29,NA,incomplete,199,race,3,1,left,C_F_12.jpg,C_M_13.jpg,A_F_10.jpg,left,815.1599999982864,true,high,NA,NA,NA,NA,NA,NA,NA,false
p40TdzWb,3mdwe879vkfdd3966pwqlqs1zxrb9a,3h7z272lxbkc5j9j5tmja3kc3mqlpz,p40TdzWb,2020-0188,2020-06-04,07:53:38,08:10:29,NA,incomplete,200,gender,2,1,left,C_F_08.jpg,A_F_10.jpg,C_M_09.jpg,right,843.204999982845,false,high,NA,NA,NA,NA,NA,NA,NA,false
p40TdzWb,3mdwe879vkfdd3966pwqlqs1zxrb9a,3h7z272lxbkc5j9j5tmja3kc3mqlpz,p40TdzWb,2020-0188,2020-06-04,07:53:38,08:10:29,NA,incomplete,201,gender,2,1,right,C_M_16.jpg,C_F_08.jpg,A_M_03.jpg,left,887.0549999992363,false,high,NA,NA,NA,NA,NA,NA,NA,false
p40TdzWb,3mdwe879vkfdd3966pwqlqs1zxrb9a,3h7z272lxbkc5j9j5tmja3kc3mqlpz,p40TdzWb,2020-0188,2020-06-04,07:53:38,08:10:29,NA,incomplete,202,gender,2,1,right,C_M_11.jpg,C_F_14.jpg,A_M_07.jpg,right,685.5799999902956,true,high,NA,NA,NA,NA,NA,NA,NA,false
p40TdzWb,3mdwe879vkfdd3966pwqlqs1zxrb9a,3h7z272lxbkc5j9j5tmja3kc3mqlpz,p40TdzWb,2020-0188,2020-06-04,07:53:38,08:10:29,NA,incomplete,203,gender,2,1,right,A_F_10.jpg,A_M_03.jpg,C_F_04.jpg,right,711.7250000010245,true,high,NA,NA,NA,NA,NA,NA,NA,false
p40TdzWb,3mdwe879vkfdd3966pwqlqs1zxrb9a,3h7z272lxbkc5j9j5tmja3kc3mqlpz,p40TdzWb,2020-0188,2020-06-04,07:53:38,08:10:29,NA,incomplete,204,gender,2,1,left,C_M_16.jpg,A_M_03.jpg,C_F_04.jpg,left,638.7949999771081,true,high,NA,NA,NA,NA,NA,NA,NA,false
p40TdzWb,3mdwe879vkfdd3966pwqlqs1zxrb9a,3h7z272lxbkc5j9j5tmja3kc3mqlpz,p40TdzWb,2020-0188,2020-06-04,07:53:38,08:10:29,NA,incomplete,205,gender,2,1,right,A_F_02.jpg,A_M_05.jpg,C_F_03.jpg,right,749.1300000110641,true,high,NA,NA,NA,NA,NA,NA,NA,false
p40TdzWb,3mdwe879vkfdd3966pwqlqs1zxrb9a,3h7z272lxbkc5j9j5tmja3kc3mqlpz,p40TdzWb,2020-0188,2020-06-04,07:53:38,08:10:29,NA,incomplete,206,gender,2,1,left,C_M_06.jpg,A_M_01.jpg,C_F_03.jpg,left,744.0550000173971,true,high,NA,NA,NA,NA,NA,NA,NA,false
p40TdzWb,3mdwe879vkfdd3966pwqlqs1zxrb9a,3h7z272lxbkc5j9j5tmja3kc3mqlpz,p40TdzWb,2020-0188,2020-06-04,07:53:38,08:10:29,NA,incomplete,207,gender,2,1,left,C_M_01.jpg,A_M_02.jpg,C_F_11.jpg,left,814.0349999885075,true,high,NA,NA,NA,NA,NA,NA,NA,false
p40TdzWb,3mdwe879vkfdd3966pwqlqs1zxrb9a,3h7z272lxbkc5j9j5tmja3kc3mqlpz,p40TdzWb,2020-0188,2020-06-04,07:53:38,08:10:29,NA,incomplete,208,gender,2,1,left,A_F_03.jpg,C_F_11.jpg,A_M_06.jpg,left,652.0449999952689,true,high,NA,NA,NA,NA,NA,NA,NA,false
p40TdzWb,3mdwe879vkfdd3966pwqlqs1zxrb9a,3h7z272lxbkc5j9j5tmja3kc3mqlpz,p40TdzWb,2020-0188,2020-06-04,07:53:38,08:10:29,NA,incomplete,209,gender,2,1,right,A_F_03.jpg,A_M_04.jpg,C_F_16.jpg,right,676.7999999574386,true,high,NA,NA,NA,NA,NA,NA,NA,false
p40TdzWb,3mdwe879vkfdd3966pwqlqs1zxrb9a,3h7z272lxbkc5j9j5tmja3kc3mqlpz,p40TdzWb,2020-0188,2020-06-04,07:53:38,08:10:29,NA,incomplete,210,gender,2,0,left,C_M_13.jpg,A_M_08.jpg,C_F_15.jpg,left,662.8749999799766,true,high,NA,NA,NA,NA,NA,NA,NA,false
p40TdzWb,3mdwe879vkfdd3966pwqlqs1zxrb9a,3h7z272lxbkc5j9j5tmja3kc3mqlpz,p40TdzWb,2020-0188,2020-06-04,07:53:38,08:10:29,NA,incomplete,211,gender,2,1,right,C_F_08.jpg,C_M_07.jpg,A_F_14.jpg,right,639.9099999689497,true,high,NA,NA,NA,NA,NA,NA,NA,false
p40TdzWb,3mdwe879vkfdd3966pwqlqs1zxrb9a,3h7z272lxbkc5j9j5tmja3kc3mqlpz,p40TdzWb,2020-0188,2020-06-04,07:53:38,08:10:29,NA,incomplete,212,gender,2,0,left,C_M_03.jpg,A_M_05.jpg,C_F_01.jpg,left,578.3100000116974,true,high,NA,NA,NA,NA,NA,NA,NA,false
p40TdzWb,3mdwe879vkfdd3966pwqlqs1zxrb9a,3h7z272lxbkc5j9j5tmja3kc3mqlpz,p40TdzWb,2020-0188,2020-06-04,07:53:38,08:10:29,NA,incomplete,213,gender,2,1,right,C_M_06.jpg,C_F_11.jpg,A_M_09.jpg,right,695.9099999512546,true,high,NA,NA,NA,NA,NA,NA,NA,false
p40TdzWb,3mdwe879vkfdd3966pwqlqs1zxrb9a,3h7z272lxbkc5j9j5tmja3kc3mqlpz,p40TdzWb,2020-0188,2020-06-04,07:53:38,08:10:29,NA,incomplete,214,gender,2,0,left,A_M_02.jpg,C_M_09.jpg,A_F_12.jpg,left,664.8149999673478,true,high,NA,NA,NA,NA,NA,NA,NA,false
p40TdzWb,3mdwe879vkfdd3966pwqlqs1zxrb9a,3h7z272lxbkc5j9j5tmja3kc3mqlpz,p40TdzWb,2020-0188,2020-06-04,07:53:38,08:10:29,NA,incomplete,215,gender,2,1,right,A_M_10.jpg,A_F_16.jpg,C_M_05.jpg,right,570.9500000230037,true,high,NA,NA,NA,NA,NA,NA,NA,false
p40TdzWb,3mdwe879vkfdd3966pwqlqs1zxrb9a,3h7z272lxbkc5j9j5tmja3kc3mqlpz,p40TdzWb,2020-0188,2020-06-04,07:53:38,08:10:29,NA,incomplete,216,gender,2,1,right,C_F_10.jpg,C_M_04.jpg,A_F_06.jpg,left,551.6500000376254,false,high,NA,NA,NA,NA,NA,NA,NA,false
p40TdzWb,3mdwe879vkfdd3966pwqlqs1zxrb9a,3h7z272lxbkc5j9j5tmja3kc3mqlpz,p40TdzWb,2020-0188,2020-06-04,07:53:38,08:10:29,NA,incomplete,217,gender,2,1,left,C_F_07.jpg,A_F_02.jpg,C_M_13.jpg,left,957.8350000083447,true,high,NA,NA,NA,NA,NA,NA,NA,false
p40TdzWb,3mdwe879vkfdd3966pwqlqs1zxrb9a,3h7z272lxbkc5j9j5tmja3kc3mqlpz,p40TdzWb,2020-0188,2020-06-04,07:53:38,08:10:29,NA,incomplete,218,gender,2,0,left,A_F_15.jpg,C_F_16.jpg,A_M_05.jpg,left,659.9399999831803,true,high,NA,NA,NA,NA,NA,NA,NA,false
p40TdzWb,3mdwe879vkfdd3966pwqlqs1zxrb9a,3h7z272lxbkc5j9j5tmja3kc3mqlpz,p40TdzWb,2020-0188,2020-06-04,07:53:38,08:10:29,NA,incomplete,219,gender,2,1,left,A_F_13.jpg,C_F_15.jpg,A_M_14.jpg,left,576.1750000528991,true,high,NA,NA,NA,NA,NA,NA,NA,false
p40TdzWb,3mdwe879vkfdd3966pwqlqs1zxrb9a,3h7z272lxbkc5j9j5tmja3kc3mqlpz,p40TdzWb,2020-0188,2020-06-04,07:53:38,08:10:29,NA,incomplete,220,race,3,1,right,C_M_09.jpg,A_M_14.jpg,C_F_06.jpg,left,747.5649999687448,false,high,NA,NA,NA,NA,NA,NA,NA,false
p40TdzWb,3mdwe879vkfdd3966pwqlqs1zxrb9a,3h7z272lxbkc5j9j5tmja3kc3mqlpz,p40TdzWb,2020-0188,2020-06-04,07:53:38,08:10:29,NA,incomplete,221,race,3,1,right,C_M_04.jpg,A_M_08.jpg,C_F_07.jpg,right,1052.6299999910407,true,high,NA,NA,NA,NA,NA,NA,NA,false
p40TdzWb,3mdwe879vkfdd3966pwqlqs1zxrb9a,3h7z272lxbkc5j9j5tmja3kc3mqlpz,p40TdzWb,2020-0188,2020-06-04,07:53:38,08:10:29,NA,incomplete,222,race,3,1,left,C_M_08.jpg,C_F_15.jpg,A_M_12.jpg,left,730.7400000281632,true,high,NA,NA,NA,NA,NA,NA,NA,false
p40TdzWb,3mdwe879vkfdd3966pwqlqs1zxrb9a,3h7z272lxbkc5j9j5tmja3kc3mqlpz,p40TdzWb,2020-0188,2020-06-04,07:53:38,08:10:29,NA,incomplete,223,race,3,1,right,A_F_11.jpg,C_F_10.jpg,A_M_13.jpg,right,666.6949999635108,true,high,NA,NA,NA,NA,NA,NA,NA,false
p40TdzWb,3mdwe879vkfdd3966pwqlqs1zxrb9a,3h7z272lxbkc5j9j5tmja3kc3mqlpz,p40TdzWb,2020-0188,2020-06-04,07:53:38,08:10:29,NA,incomplete,224,race,3,1,right,C_F_09.jpg,A_F_13.jpg,C_M_16.jpg,right,748.9400000195019,true,high,NA,NA,NA,NA,NA,NA,NA,false
p40TdzWb,3mdwe879vkfdd3966pwqlqs1zxrb9a,3h7z272lxbkc5j9j5tmja3kc3mqlpz,p40TdzWb,2020-0188,2020-06-04,07:53:38,08:10:29,NA,incomplete,225,race,3,0,left,A_F_03.jpg,A_M_11.jpg,C_F_15.jpg,left,1037.804999970831,true,high,NA,NA,NA,NA,NA,NA,NA,false
p40TdzWb,3mdwe879vkfdd3966pwqlqs1zxrb9a,3h7z272lxbkc5j9j5tmja3kc3mqlpz,p40TdzWb,2020-0188,2020-06-04,07:53:38,08:10:29,NA,incomplete,226,race,3,1,left,A_F_04.jpg,A_M_09.jpg,C_F_06.jpg,left,741.9850000296719,true,high,NA,NA,NA,NA,NA,NA,NA,false
p40TdzWb,3mdwe879vkfdd3966pwqlqs1zxrb9a,3h7z272lxbkc5j9j5tmja3kc3mqlpz,p40TdzWb,2020-0188,2020-06-04,07:53:38,08:10:29,NA,incomplete,227,race,3,1,right,A_M_04.jpg,C_M_11.jpg,A_F_08.jpg,right,900.519999966491,true,high,NA,NA,NA,NA,NA,NA,NA,false
p40TdzWb,3mdwe879vkfdd3966pwqlqs1zxrb9a,3h7z272lxbkc5j9j5tmja3kc3mqlpz,p40TdzWb,2020-0188,2020-06-04,07:53:38,08:10:29,NA,incomplete,228,race,3,1,right,C_F_10.jpg,A_F_12.jpg,C_M_13.jpg,right,661.2800000002608,true,high,NA,NA,NA,NA,NA,NA,NA,false
p40TdzWb,3mdwe879vkfdd3966pwqlqs1zxrb9a,3h7z272lxbkc5j9j5tmja3kc3mqlpz,p40TdzWb,2020-0188,2020-06-04,07:53:38,08:10:29,NA,incomplete,229,race,3,1,left,C_F_13.jpg,C_M_05.jpg,A_F_06.jpg,left,758.960000006482,true,high,NA,NA,NA,NA,NA,NA,NA,false
p40TdzWb,3mdwe879vkfdd3966pwqlqs1zxrb9a,3h7z272lxbkc5j9j5tmja3kc3mqlpz,p40TdzWb,2020-0188,2020-06-04,07:53:38,08:10:29,NA,incomplete,230,race,3,0,right,C_F_10.jpg,A_F_05.jpg,C_M_08.jpg,right,709.1399999917485,true,high,NA,NA,NA,NA,NA,NA,NA,false
p40TdzWb,3mdwe879vkfdd3966pwqlqs1zxrb9a,3h7z272lxbkc5j9j5tmja3kc3mqlpz,p40TdzWb,2020-0188,2020-06-04,07:53:38,08:10:29,NA,incomplete,231,race,3,1,right,A_F_04.jpg,C_F_01.jpg,A_M_14.jpg,right,700.2850000280887,true,high,NA,NA,NA,NA,NA,NA,NA,false
p40TdzWb,3mdwe879vkfdd3966pwqlqs1zxrb9a,3h7z272lxbkc5j9j5tmja3kc3mqlpz,p40TdzWb,2020-0188,2020-06-04,07:53:38,08:10:29,NA,incomplete,232,race,3,0,right,C_F_09.jpg,A_F_06.jpg,C_M_04.jpg,right,868.3150000288151,true,high,NA,NA,NA,NA,NA,NA,NA,false
p40TdzWb,3mdwe879vkfdd3966pwqlqs1zxrb9a,3h7z272lxbkc5j9j5tmja3kc3mqlpz,p40TdzWb,2020-0188,2020-06-04,07:53:38,08:10:29,NA,incomplete,233,race,3,1,left,A_F_06.jpg,A_M_09.jpg,C_F_13.jpg,left,862.5550000579096,true,high,NA,NA,NA,NA,NA,NA,NA,false
p40TdzWb,3mdwe879vkfdd3966pwqlqs1zxrb9a,3h7z272lxbkc5j9j5tmja3kc3mqlpz,p40TdzWb,2020-0188,2020-06-04,07:53:38,08:10:29,NA,incomplete,234,race,3,1,right,C_F_06.jpg,A_F_10.jpg,C_M_13.jpg,right,919.5299999555573,true,high,NA,NA,NA,NA,NA,NA,NA,false
p40TdzWb,3mdwe879vkfdd3966pwqlqs1zxrb9a,3h7z272lxbkc5j9j5tmja3kc3mqlpz,p40TdzWb,2020-0188,2020-06-04,07:53:38,08:10:29,NA,incomplete,235,race,3,1,left,A_M_13.jpg,A_F_02.jpg,C_M_08.jpg,left,1016.5999999735504,true,high,NA,NA,NA,NA,NA,NA,NA,false
p40TdzWb,3mdwe879vkfdd3966pwqlqs1zxrb9a,3h7z272lxbkc5j9j5tmja3kc3mqlpz,p40TdzWb,2020-0188,2020-06-04,07:53:38,08:10:29,NA,incomplete,236,race,3,1,right,C_F_03.jpg,A_F_12.jpg,C_M_14.jpg,right,723.3699999633245,true,high,NA,NA,NA,NA,NA,NA,NA,false
p40TdzWb,3mdwe879vkfdd3966pwqlqs1zxrb9a,3h7z272lxbkc5j9j5tmja3kc3mqlpz,p40TdzWb,2020-0188,2020-06-04,07:53:38,08:10:29,NA,incomplete,237,race,3,1,left,A_M_16.jpg,A_F_11.jpg,C_M_08.jpg,left,634.6550000016578,true,high,NA,NA,NA,NA,NA,NA,NA,false
p40TdzWb,3mdwe879vkfdd3966pwqlqs1zxrb9a,3h7z272lxbkc5j9j5tmja3kc3mqlpz,p40TdzWb,2020-0188,2020-06-04,07:53:38,08:10:29,NA,incomplete,238,race,3,1,left,C_F_04.jpg,C_M_02.jpg,A_F_11.jpg,left,716.965000028722,true,high,NA,NA,NA,NA,NA,NA,NA,false
p40TdzWb,3mdwe879vkfdd3966pwqlqs1zxrb9a,3h7z272lxbkc5j9j5tmja3kc3mqlpz,p40TdzWb,2020-0188,2020-06-04,07:53:38,08:10:29,NA,incomplete,239,race,3,1,right,C_F_03.jpg,A_F_02.jpg,C_M_04.jpg,right,789.1750000417233,true,high,NA,NA,NA,NA,NA,NA,NA,false
p40TdzWb,3mdwe879vkfdd3966pwqlqs1zxrb9a,3h7z272lxbkc5j9j5tmja3kc3mqlpz,p40TdzWb,2020-0188,2020-06-04,07:53:38,08:10:29,NA,NA,instruction example,color,NA,NA,NA,Purple_Plus_Dots_1.jpg,Purple_Circle_Grid_2.jpg,Blue_Triangle_Chess_1.jpg,NA,NA,NA,NA,NA,NA,NA,NA,NA,NA,NA,undefined
p40TdzWb,3mdwe879vkfdd3966pwqlqs1zxrb9a,3h7z272lxbkc5j9j5tmja3kc3mqlpz,p40TdzWb,2020-0188,2020-06-04,07:53:38,08:10:29,NA,NA,instruction example,color,NA,NA,NA,Purple_Star_Dots_4.jpg,Red_Plus_Grid_4.jpg,Purple_Triangle_Stripes_3.jpg,NA,NA,NA,NA,NA,NA,NA,NA,NA,NA,NA,undefined
p40TdzWb,3mdwe879vkfdd3966pwqlqs1zxrb9a,3h7z272lxbkc5j9j5tmja3kc3mqlpz,p40TdzWb,2020-0188,2020-06-04,07:53:38,08:10:29,NA,NA,instruction example,color,NA,NA,NA,C_F_13.jpg,A_F_06.jpg,C_M_02.jpg,NA,NA,NA,NA,NA,NA,NA,NA,NA,NA,NA,undefined
p40TdzWb,3mdwe879vkfdd3966pwqlqs1zxrb9a,3h7z272lxbkc5j9j5tmja3kc3mqlpz,p40TdzWb,2020-0188,2020-06-04,07:53:38,08:10:29,NA,NA,instruction example,color,NA,NA,NA,C_F_09.jpg,C_M_07.jpg,A_F_14.jpg,NA,NA,NA,NA,NA,NA,NA,NA,NA,NA,NA,undefined
p40TdzWb,3mdwe879vkfdd3966pwqlqs1zxrb9a,3h7z272lxbkc5j9j5tmja3kc3mqlpz,p40TdzWb,2020-0188,2020-06-04,07:53:38,08:10:29,977016.9749999768,1012588.609999977,NA,NA,NA,NA,NA,NA,NA,NA,NA,NA,NA,NA,36,White/Caucasian,Male,caucasian,no,no,no,undefined
