workerId,hitId,assignmentId,subject,studyid,exp_date,exp_start,exp_end,time_start,time_end,trial,type,sequence,reward_validity,answer,image_top,image_left,image_right,response,response_time,response_acc,volatility,practice
GREFqkJN,3r6rzgk0yip7nifkjif6ljfzh4yvyd,3hmvi3qicn5toqxg360j3f4b5x01y1,GREFqkJN,2020-0188,2020-11-16,17:57:56,18:16:45,NA,incomplete,0,filling,0,1,right,Blue_Triangle_Chess_4.jpg,Green_Triangle_Dots_3.jpg,Purple_Star_Chess_2.jpg,left,1145.3200000105426,false,NA,true
GREFqkJN,3r6rzgk0yip7nifkjif6ljfzh4yvyd,3hmvi3qicn5toqxg360j3f4b5x01y1,GREFqkJN,2020-0188,2020-11-16,17:57:56,18:16:45,NA,incomplete,1,filling,0,1,right,Blue_Plus_Dots_2.jpg,Purple_Plus_Stripes_4.jpg,Red_Star_Dots_1.jpg,right,1191.369999985909,true,NA,true
GREFqkJN,3r6rzgk0yip7nifkjif6ljfzh4yvyd,3hmvi3qicn5toqxg360j3f4b5x01y1,GREFqkJN,2020-0188,2020-11-16,17:57:56,18:16:45,NA,incomplete,2,filling,0,1,left,Red_Plus_Dots_3.jpg,Blue_Triangle_Dots_4.jpg,Green_Plus_Grid_2.jpg,left,1306.7549999977928,true,NA,true
GREFqkJN,3r6rzgk0yip7nifkjif6ljfzh4yvyd,3hmvi3qicn5toqxg360j3f4b5x01y1,GREFqkJN,2020-0188,2020-11-16,17:57:56,18:16:45,NA,incomplete,3,filling,0,1,right,Purple_Triangle_Stripes_1.jpg,Green_Triangle_Chess_4.jpg,Red_Plus_Stripes_3.jpg,right,1162.92999999132,true,NA,true
GREFqkJN,3r6rzgk0yip7nifkjif6ljfzh4yvyd,3hmvi3qicn5toqxg360j3f4b5x01y1,GREFqkJN,2020-0188,2020-11-16,17:57:56,18:16:45,NA,incomplete,4,filling,0,1,right,Red_Circle_Grid_2.jpg,Blue_Circle_Stripes_3.jpg,Green_Plus_Grid_1.jpg,right,1160.5250000138767,true,NA,true
GREFqkJN,3r6rzgk0yip7nifkjif6ljfzh4yvyd,3hmvi3qicn5toqxg360j3f4b5x01y1,GREFqkJN,2020-0188,2020-11-16,17:57:56,18:16:45,NA,incomplete,5,filling,0,1,left,Red_Plus_Dots_3.jpg,Blue_Star_Dots_2.jpg,Purple_Plus_Stripes_4.jpg,left,1174.494999984745,true,NA,true
GREFqkJN,3r6rzgk0yip7nifkjif6ljfzh4yvyd,3hmvi3qicn5toqxg360j3f4b5x01y1,GREFqkJN,2020-0188,2020-11-16,17:57:56,18:16:45,NA,incomplete,6,filling,0,0,left,Blue_Star_Dots_1.jpg,Green_Triangle_Dots_2.jpg,Purple_Star_Stripes_4.jpg,left,1115.7550000061747,true,NA,true
GREFqkJN,3r6rzgk0yip7nifkjif6ljfzh4yvyd,3hmvi3qicn5toqxg360j3f4b5x01y1,GREFqkJN,2020-0188,2020-11-16,17:57:56,18:16:45,NA,incomplete,7,filling,0,1,left,Purple_Circle_Grid_4.jpg,Blue_Triangle_Grid_3.jpg,Green_Circle_Stripes_1.jpg,left,1150.2749999926891,true,NA,true
GREFqkJN,3r6rzgk0yip7nifkjif6ljfzh4yvyd,3hmvi3qicn5toqxg360j3f4b5x01y1,GREFqkJN,2020-0188,2020-11-16,17:57:56,18:16:45,NA,incomplete,8,filling,0,1,right,Purple_Plus_Grid_3.jpg,Blue_Plus_Stripes_1.jpg,Red_Star_Grid_4.jpg,right,1307.809999998426,true,NA,true
GREFqkJN,3r6rzgk0yip7nifkjif6ljfzh4yvyd,3hmvi3qicn5toqxg360j3f4b5x01y1,GREFqkJN,2020-0188,2020-11-16,17:57:56,18:16:45,NA,incomplete,9,filling,0,1,right,Purple_Plus_Grid_2.jpg,Blue_Plus_Chess_1.jpg,Red_Star_Grid_3.jpg,right,1300.0599999795668,true,NA,true
GREFqkJN,3r6rzgk0yip7nifkjif6ljfzh4yvyd,3hmvi3qicn5toqxg360j3f4b5x01y1,GREFqkJN,2020-0188,2020-11-16,17:57:56,18:16:45,NA,incomplete,10,filling,0,1,right,Red_Circle_Stripes_3.jpg,Green_Circle_Dots_4.jpg,Purple_Plus_Stripes_2.jpg,right,1155.6149999960326,true,NA,true
GREFqkJN,3r6rzgk0yip7nifkjif6ljfzh4yvyd,3hmvi3qicn5toqxg360j3f4b5x01y1,GREFqkJN,2020-0188,2020-11-16,17:57:56,18:16:45,NA,incomplete,11,filling,0,1,left,Red_Plus_Chess_3.jpg,Purple_Circle_Chess_1.jpg,Green_Plus_Stripes_4.jpg,left,1203.0749999976251,true,NA,true
GREFqkJN,3r6rzgk0yip7nifkjif6ljfzh4yvyd,3hmvi3qicn5toqxg360j3f4b5x01y1,GREFqkJN,2020-0188,2020-11-16,17:57:56,18:16:45,NA,incomplete,12,filling,0,1,right,Red_Triangle_Grid_1.jpg,Green_Triangle_Stripes_3.jpg,Purple_Plus_Grid_2.jpg,right,1140.7800000160933,true,NA,true
GREFqkJN,3r6rzgk0yip7nifkjif6ljfzh4yvyd,3hmvi3qicn5toqxg360j3f4b5x01y1,GREFqkJN,2020-0188,2020-11-16,17:57:56,18:16:45,NA,incomplete,13,filling,0,0,left,Purple_Triangle_Grid_4.jpg,Red_Plus_Grid_1.jpg,Blue_Triangle_Stripes_3.jpg,left,1275.2800000016578,true,NA,true
GREFqkJN,3r6rzgk0yip7nifkjif6ljfzh4yvyd,3hmvi3qicn5toqxg360j3f4b5x01y1,GREFqkJN,2020-0188,2020-11-16,17:57:56,18:16:45,NA,incomplete,14,filling,0,1,right,Green_Star_Chess_2.jpg,Purple_Star_Grid_3.jpg,Blue_Circle_Chess_1.jpg,right,1388.7399999948684,true,NA,true
GREFqkJN,3r6rzgk0yip7nifkjif6ljfzh4yvyd,3hmvi3qicn5toqxg360j3f4b5x01y1,GREFqkJN,2020-0188,2020-11-16,17:57:56,18:16:45,NA,incomplete,15,filling,0,1,right,Purple_Star_Dots_2.jpg,Red_Star_Grid_3.jpg,Blue_Plus_Dots_4.jpg,right,1369.6249999920838,true,NA,true
GREFqkJN,3r6rzgk0yip7nifkjif6ljfzh4yvyd,3hmvi3qicn5toqxg360j3f4b5x01y1,GREFqkJN,2020-0188,2020-11-16,17:57:56,18:16:45,NA,incomplete,16,filling,0,1,left,Red_Plus_Grid_2.jpg,Purple_Circle_Grid_1.jpg,Blue_Plus_Stripes_4.jpg,left,1318.3150000113528,true,NA,true
GREFqkJN,3r6rzgk0yip7nifkjif6ljfzh4yvyd,3hmvi3qicn5toqxg360j3f4b5x01y1,GREFqkJN,2020-0188,2020-11-16,17:57:56,18:16:45,NA,incomplete,17,filling,0,1,left,Purple_Plus_Chess_2.jpg,Blue_Star_Chess_4.jpg,Red_Plus_Dots_3.jpg,left,1134.1599999868777,true,NA,true
GREFqkJN,3r6rzgk0yip7nifkjif6ljfzh4yvyd,3hmvi3qicn5toqxg360j3f4b5x01y1,GREFqkJN,2020-0188,2020-11-16,17:57:56,18:16:45,NA,incomplete,18,filling,0,1,left,Red_Circle_Dots_4.jpg,Purple_Star_Dots_1.jpg,Blue_Circle_Chess_2.jpg,left,1308.5050000227056,true,NA,true
GREFqkJN,3r6rzgk0yip7nifkjif6ljfzh4yvyd,3hmvi3qicn5toqxg360j3f4b5x01y1,GREFqkJN,2020-0188,2020-11-16,17:57:56,18:16:45,NA,incomplete,19,filling,0,0,right,Blue_Triangle_Grid_3.jpg,Purple_Triangle_Dots_2.jpg,Red_Plus_Grid_4.jpg,right,1013.360000011744,true,NA,true
GREFqkJN,3r6rzgk0yip7nifkjif6ljfzh4yvyd,3hmvi3qicn5toqxg360j3f4b5x01y1,GREFqkJN,2020-0188,2020-11-16,17:57:56,18:16:45,NA,incomplete,20,shape,1,0,right,Red_Triangle_Stripes_3.jpg,Blue_Plus_Stripes_4.jpg,Green_Triangle_Dots_1.jpg,left,1266.6900000185706,false,NA,true
GREFqkJN,3r6rzgk0yip7nifkjif6ljfzh4yvyd,3hmvi3qicn5toqxg360j3f4b5x01y1,GREFqkJN,2020-0188,2020-11-16,17:57:56,18:16:45,NA,incomplete,21,shape,1,0,left,Purple_Star_Grid_2.jpg,Red_Star_Chess_1.jpg,Green_Plus_Grid_4.jpg,left,1011.9899999990594,true,NA,true
GREFqkJN,3r6rzgk0yip7nifkjif6ljfzh4yvyd,3hmvi3qicn5toqxg360j3f4b5x01y1,GREFqkJN,2020-0188,2020-11-16,17:57:56,18:16:45,NA,incomplete,22,shape,1,1,left,Green_Star_Grid_1.jpg,Red_Star_Dots_2.jpg,Purple_Circle_Grid_3.jpg,left,1695.7649999822024,true,NA,true
GREFqkJN,3r6rzgk0yip7nifkjif6ljfzh4yvyd,3hmvi3qicn5toqxg360j3f4b5x01y1,GREFqkJN,2020-0188,2020-11-16,17:57:56,18:16:45,NA,incomplete,23,shape,1,1,right,Red_Plus_Chess_4.jpg,Blue_Circle_Chess_2.jpg,Purple_Plus_Dots_1.jpg,right,1217.6299999991897,true,NA,true
GREFqkJN,3r6rzgk0yip7nifkjif6ljfzh4yvyd,3hmvi3qicn5toqxg360j3f4b5x01y1,GREFqkJN,2020-0188,2020-11-16,17:57:56,18:16:45,NA,incomplete,24,shape,1,1,left,Purple_Plus_Dots_3.jpg,Blue_Plus_Grid_2.jpg,Red_Circle_Dots_4.jpg,left,1043.0700000142679,true,NA,true
GREFqkJN,3r6rzgk0yip7nifkjif6ljfzh4yvyd,3hmvi3qicn5toqxg360j3f4b5x01y1,GREFqkJN,2020-0188,2020-11-16,17:57:56,18:16:45,NA,incomplete,25,shape,1,1,left,Blue_Star_Stripes_3.jpg,Green_Star_Chess_2.jpg,Purple_Plus_Stripes_1.jpg,left,1141.2800000107381,true,NA,true
GREFqkJN,3r6rzgk0yip7nifkjif6ljfzh4yvyd,3hmvi3qicn5toqxg360j3f4b5x01y1,GREFqkJN,2020-0188,2020-11-16,17:57:56,18:16:45,NA,incomplete,26,shape,1,1,right,Red_Triangle_Chess_3.jpg,Blue_Star_Chess_2.jpg,Green_Triangle_Stripes_1.jpg,right,1140.0699999940116,true,NA,true
GREFqkJN,3r6rzgk0yip7nifkjif6ljfzh4yvyd,3hmvi3qicn5toqxg360j3f4b5x01y1,GREFqkJN,2020-0188,2020-11-16,17:57:56,18:16:45,NA,incomplete,27,shape,1,1,right,Blue_Star_Chess_3.jpg,Red_Circle_Chess_1.jpg,Purple_Star_Grid_2.jpg,right,963.675000006333,true,NA,true
GREFqkJN,3r6rzgk0yip7nifkjif6ljfzh4yvyd,3hmvi3qicn5toqxg360j3f4b5x01y1,GREFqkJN,2020-0188,2020-11-16,17:57:56,18:16:45,NA,incomplete,28,shape,1,0,right,Purple_Plus_Dots_2.jpg,Green_Triangle_Dots_4.jpg,Blue_Plus_Grid_1.jpg,right,1162.465000001248,true,NA,true
GREFqkJN,3r6rzgk0yip7nifkjif6ljfzh4yvyd,3hmvi3qicn5toqxg360j3f4b5x01y1,GREFqkJN,2020-0188,2020-11-16,17:57:56,18:16:45,NA,incomplete,29,shape,1,1,left,Purple_Circle_Grid_3.jpg,Green_Circle_Stripes_2.jpg,Red_Star_Grid_1.jpg,left,982.7950000180863,true,NA,true
GREFqkJN,3r6rzgk0yip7nifkjif6ljfzh4yvyd,3hmvi3qicn5toqxg360j3f4b5x01y1,GREFqkJN,2020-0188,2020-11-16,17:57:56,18:16:45,NA,incomplete,30,shape,1,0,left,Purple_Triangle_Dots_4.jpg,Green_Triangle_Stripes_2.jpg,Blue_Star_Dots_3.jpg,left,1461.3900000113063,true,NA,true
GREFqkJN,3r6rzgk0yip7nifkjif6ljfzh4yvyd,3hmvi3qicn5toqxg360j3f4b5x01y1,GREFqkJN,2020-0188,2020-11-16,17:57:56,18:16:45,NA,incomplete,31,shape,1,1,left,Red_Star_Chess_4.jpg,Blue_Star_Grid_2.jpg,Green_Triangle_Chess_3.jpg,left,1623.265000001993,true,NA,true
GREFqkJN,3r6rzgk0yip7nifkjif6ljfzh4yvyd,3hmvi3qicn5toqxg360j3f4b5x01y1,GREFqkJN,2020-0188,2020-11-16,17:57:56,18:16:45,NA,incomplete,32,shape,1,1,left,Red_Triangle_Stripes_3.jpg,Purple_Triangle_Dots_2.jpg,Blue_Star_Stripes_4.jpg,left,1369.539999985136,true,NA,true
GREFqkJN,3r6rzgk0yip7nifkjif6ljfzh4yvyd,3hmvi3qicn5toqxg360j3f4b5x01y1,GREFqkJN,2020-0188,2020-11-16,17:57:56,18:16:45,NA,incomplete,33,shape,1,1,left,Red_Star_Dots_3.jpg,Purple_Star_Chess_2.jpg,Green_Circle_Dots_1.jpg,left,1166.7449999949895,true,NA,true
GREFqkJN,3r6rzgk0yip7nifkjif6ljfzh4yvyd,3hmvi3qicn5toqxg360j3f4b5x01y1,GREFqkJN,2020-0188,2020-11-16,17:57:56,18:16:45,NA,incomplete,34,shape,1,1,left,Blue_Circle_Chess_3.jpg,Red_Circle_Stripes_1.jpg,Purple_Plus_Chess_4.jpg,left,1260.5900000198744,true,NA,true
GREFqkJN,3r6rzgk0yip7nifkjif6ljfzh4yvyd,3hmvi3qicn5toqxg360j3f4b5x01y1,GREFqkJN,2020-0188,2020-11-16,17:57:56,18:16:45,NA,incomplete,35,shape,1,1,right,Red_Circle_Chess_1.jpg,Blue_Star_Chess_2.jpg,Purple_Circle_Dots_3.jpg,right,958.4800000011455,true,NA,true
GREFqkJN,3r6rzgk0yip7nifkjif6ljfzh4yvyd,3hmvi3qicn5toqxg360j3f4b5x01y1,GREFqkJN,2020-0188,2020-11-16,17:57:56,18:16:45,NA,incomplete,36,shape,1,1,left,Green_Plus_Grid_3.jpg,Purple_Plus_Chess_2.jpg,Blue_Circle_Grid_4.jpg,left,1244.3250000069384,true,NA,true
GREFqkJN,3r6rzgk0yip7nifkjif6ljfzh4yvyd,3hmvi3qicn5toqxg360j3f4b5x01y1,GREFqkJN,2020-0188,2020-11-16,17:57:56,18:16:45,NA,incomplete,37,shape,1,1,left,Green_Plus_Stripes_4.jpg,Purple_Plus_Chess_1.jpg,Blue_Star_Stripes_2.jpg,left,1062.915000016801,true,NA,true
GREFqkJN,3r6rzgk0yip7nifkjif6ljfzh4yvyd,3hmvi3qicn5toqxg360j3f4b5x01y1,GREFqkJN,2020-0188,2020-11-16,17:57:56,18:16:45,NA,incomplete,38,shape,1,1,left,Green_Star_Chess_4.jpg,Red_Star_Stripes_2.jpg,Purple_Circle_Chess_3.jpg,left,1266.0449999966659,true,NA,true
GREFqkJN,3r6rzgk0yip7nifkjif6ljfzh4yvyd,3hmvi3qicn5toqxg360j3f4b5x01y1,GREFqkJN,2020-0188,2020-11-16,17:57:56,18:16:45,NA,incomplete,39,shape,1,0,left,Purple_Plus_Stripes_1.jpg,Red_Plus_Grid_2.jpg,Blue_Circle_Stripes_3.jpg,left,908.8249999913387,true,NA,true
GREFqkJN,3r6rzgk0yip7nifkjif6ljfzh4yvyd,3hmvi3qicn5toqxg360j3f4b5x01y1,GREFqkJN,2020-0188,2020-11-16,17:57:56,18:16:45,NA,incomplete,0,filling,0,1,left,Green_Plus_Stripes_4.jpg,Red_Star_Stripes_2.jpg,Purple_Plus_Dots_3.jpg,right,1364.4550000026356,false,high,false
GREFqkJN,3r6rzgk0yip7nifkjif6ljfzh4yvyd,3hmvi3qicn5toqxg360j3f4b5x01y1,GREFqkJN,2020-0188,2020-11-16,17:57:56,18:16:45,NA,incomplete,1,filling,0,1,left,Green_Star_Grid_1.jpg,Purple_Plus_Grid_4.jpg,Red_Star_Dots_3.jpg,right,946.4699999953154,false,high,false
GREFqkJN,3r6rzgk0yip7nifkjif6ljfzh4yvyd,3hmvi3qicn5toqxg360j3f4b5x01y1,GREFqkJN,2020-0188,2020-11-16,17:57:56,18:16:45,NA,incomplete,2,filling,0,1,left,Red_Triangle_Chess_3.jpg,Blue_Plus_Chess_4.jpg,Purple_Triangle_Dots_2.jpg,left,1280.2450000017416,true,high,false
GREFqkJN,3r6rzgk0yip7nifkjif6ljfzh4yvyd,3hmvi3qicn5toqxg360j3f4b5x01y1,GREFqkJN,2020-0188,2020-11-16,17:57:56,18:16:45,NA,incomplete,3,filling,0,1,right,Purple_Star_Chess_2.jpg,Red_Star_Stripes_1.jpg,Green_Triangle_Chess_4.jpg,right,993.7199999985751,true,high,false
GREFqkJN,3r6rzgk0yip7nifkjif6ljfzh4yvyd,3hmvi3qicn5toqxg360j3f4b5x01y1,GREFqkJN,2020-0188,2020-11-16,17:57:56,18:16:45,NA,incomplete,4,filling,0,1,left,Purple_Triangle_Chess_1.jpg,Blue_Plus_Chess_4.jpg,Red_Triangle_Grid_3.jpg,left,984.0550000080839,true,high,false
GREFqkJN,3r6rzgk0yip7nifkjif6ljfzh4yvyd,3hmvi3qicn5toqxg360j3f4b5x01y1,GREFqkJN,2020-0188,2020-11-16,17:57:56,18:16:45,NA,incomplete,5,filling,0,1,right,Green_Triangle_Stripes_4.jpg,Red_Triangle_Dots_2.jpg,Blue_Star_Stripes_1.jpg,right,1076.2699999904726,true,high,false
GREFqkJN,3r6rzgk0yip7nifkjif6ljfzh4yvyd,3hmvi3qicn5toqxg360j3f4b5x01y1,GREFqkJN,2020-0188,2020-11-16,17:57:56,18:16:45,NA,incomplete,6,filling,0,1,right,Green_Star_Dots_2.jpg,Red_Star_Chess_3.jpg,Purple_Plus_Dots_4.jpg,right,1228.9049999963026,true,high,false
GREFqkJN,3r6rzgk0yip7nifkjif6ljfzh4yvyd,3hmvi3qicn5toqxg360j3f4b5x01y1,GREFqkJN,2020-0188,2020-11-16,17:57:56,18:16:45,NA,incomplete,7,filling,0,1,left,Green_Star_Grid_1.jpg,Red_Plus_Grid_4.jpg,Blue_Star_Chess_3.jpg,left,1024.9299999850336,true,high,false
GREFqkJN,3r6rzgk0yip7nifkjif6ljfzh4yvyd,3hmvi3qicn5toqxg360j3f4b5x01y1,GREFqkJN,2020-0188,2020-11-16,17:57:56,18:16:45,NA,incomplete,8,filling,0,1,left,Green_Plus_Dots_3.jpg,Blue_Circle_Dots_4.jpg,Red_Plus_Chess_1.jpg,left,955.1100000098813,true,high,false
GREFqkJN,3r6rzgk0yip7nifkjif6ljfzh4yvyd,3hmvi3qicn5toqxg360j3f4b5x01y1,GREFqkJN,2020-0188,2020-11-16,17:57:56,18:16:45,NA,incomplete,9,filling,0,1,left,Red_Plus_Grid_4.jpg,Purple_Star_Grid_1.jpg,Green_Plus_Chess_3.jpg,left,992.789999989327,true,high,false
GREFqkJN,3r6rzgk0yip7nifkjif6ljfzh4yvyd,3hmvi3qicn5toqxg360j3f4b5x01y1,GREFqkJN,2020-0188,2020-11-16,17:57:56,18:16:45,NA,incomplete,10,shape,1,1,right,Blue_Plus_Grid_3.jpg,Red_Star_Grid_2.jpg,Purple_Plus_Dots_1.jpg,left,1005.0800000026356,false,high,false
GREFqkJN,3r6rzgk0yip7nifkjif6ljfzh4yvyd,3hmvi3qicn5toqxg360j3f4b5x01y1,GREFqkJN,2020-0188,2020-11-16,17:57:56,18:16:45,NA,incomplete,11,shape,1,1,right,Blue_Star_Dots_2.jpg,Green_Plus_Dots_4.jpg,Purple_Star_Stripes_3.jpg,left,994.0599999972619,false,high,false
GREFqkJN,3r6rzgk0yip7nifkjif6ljfzh4yvyd,3hmvi3qicn5toqxg360j3f4b5x01y1,GREFqkJN,2020-0188,2020-11-16,17:57:56,18:16:45,NA,incomplete,12,shape,1,0,left,Red_Star_Chess_2.jpg,Blue_Star_Grid_1.jpg,Green_Circle_Chess_3.jpg,right,1127.8699999966193,false,high,false
GREFqkJN,3r6rzgk0yip7nifkjif6ljfzh4yvyd,3hmvi3qicn5toqxg360j3f4b5x01y1,GREFqkJN,2020-0188,2020-11-16,17:57:56,18:16:45,NA,incomplete,13,shape,1,1,right,Green_Star_Stripes_1.jpg,Blue_Triangle_Stripes_2.jpg,Red_Star_Dots_4.jpg,left,1006.8500000052154,false,high,false
GREFqkJN,3r6rzgk0yip7nifkjif6ljfzh4yvyd,3hmvi3qicn5toqxg360j3f4b5x01y1,GREFqkJN,2020-0188,2020-11-16,17:57:56,18:16:45,NA,incomplete,14,shape,1,1,left,Red_Triangle_Chess_2.jpg,Green_Triangle_Dots_1.jpg,Blue_Star_Chess_4.jpg,left,721.270000009099,true,high,false
GREFqkJN,3r6rzgk0yip7nifkjif6ljfzh4yvyd,3hmvi3qicn5toqxg360j3f4b5x01y1,GREFqkJN,2020-0188,2020-11-16,17:57:56,18:16:45,NA,incomplete,15,shape,1,1,left,Blue_Triangle_Stripes_1.jpg,Green_Triangle_Grid_2.jpg,Red_Plus_Stripes_3.jpg,left,1360.4399999894667,true,high,false
GREFqkJN,3r6rzgk0yip7nifkjif6ljfzh4yvyd,3hmvi3qicn5toqxg360j3f4b5x01y1,GREFqkJN,2020-0188,2020-11-16,17:57:56,18:16:45,NA,incomplete,16,shape,1,1,left,Green_Plus_Dots_3.jpg,Blue_Plus_Stripes_4.jpg,Purple_Circle_Dots_1.jpg,left,734.5849999983329,true,high,false
GREFqkJN,3r6rzgk0yip7nifkjif6ljfzh4yvyd,3hmvi3qicn5toqxg360j3f4b5x01y1,GREFqkJN,2020-0188,2020-11-16,17:57:56,18:16:45,NA,incomplete,17,shape,1,1,right,Purple_Star_Dots_2.jpg,Green_Circle_Dots_1.jpg,Blue_Star_Stripes_4.jpg,right,767.7550000080373,true,high,false
GREFqkJN,3r6rzgk0yip7nifkjif6ljfzh4yvyd,3hmvi3qicn5toqxg360j3f4b5x01y1,GREFqkJN,2020-0188,2020-11-16,17:57:56,18:16:45,NA,incomplete,18,shape,1,0,right,Blue_Triangle_Grid_1.jpg,Red_Plus_Grid_2.jpg,Green_Triangle_Dots_4.jpg,right,773.4499999787658,true,high,false
GREFqkJN,3r6rzgk0yip7nifkjif6ljfzh4yvyd,3hmvi3qicn5toqxg360j3f4b5x01y1,GREFqkJN,2020-0188,2020-11-16,17:57:56,18:16:45,NA,incomplete,19,shape,1,1,left,Red_Circle_Chess_2.jpg,Purple_Circle_Stripes_3.jpg,Blue_Triangle_Chess_4.jpg,left,679.9900000041816,true,high,false
GREFqkJN,3r6rzgk0yip7nifkjif6ljfzh4yvyd,3hmvi3qicn5toqxg360j3f4b5x01y1,GREFqkJN,2020-0188,2020-11-16,17:57:56,18:16:45,NA,incomplete,20,filling,0,1,left,Blue_Triangle_Chess_2.jpg,Red_Star_Chess_4.jpg,Green_Triangle_Stripes_3.jpg,right,698.6299999989569,false,high,false
GREFqkJN,3r6rzgk0yip7nifkjif6ljfzh4yvyd,3hmvi3qicn5toqxg360j3f4b5x01y1,GREFqkJN,2020-0188,2020-11-16,17:57:56,18:16:45,NA,incomplete,21,filling,0,1,right,Blue_Triangle_Dots_4.jpg,Green_Triangle_Stripes_3.jpg,Purple_Circle_Dots_2.jpg,left,739.785000012489,false,high,false
GREFqkJN,3r6rzgk0yip7nifkjif6ljfzh4yvyd,3hmvi3qicn5toqxg360j3f4b5x01y1,GREFqkJN,2020-0188,2020-11-16,17:57:56,18:16:45,NA,incomplete,22,filling,0,1,left,Purple_Triangle_Stripes_2.jpg,Green_Plus_Stripes_4.jpg,Blue_Triangle_Dots_3.jpg,right,1227.4299999990035,false,high,false
GREFqkJN,3r6rzgk0yip7nifkjif6ljfzh4yvyd,3hmvi3qicn5toqxg360j3f4b5x01y1,GREFqkJN,2020-0188,2020-11-16,17:57:56,18:16:45,NA,incomplete,23,filling,0,1,right,Red_Plus_Dots_4.jpg,Purple_Plus_Stripes_1.jpg,Green_Circle_Dots_3.jpg,right,1237.554999999702,true,high,false
GREFqkJN,3r6rzgk0yip7nifkjif6ljfzh4yvyd,3hmvi3qicn5toqxg360j3f4b5x01y1,GREFqkJN,2020-0188,2020-11-16,17:57:56,18:16:45,NA,incomplete,24,filling,0,1,left,Purple_Plus_Dots_4.jpg,Red_Star_Dots_1.jpg,Blue_Plus_Grid_3.jpg,left,1102.87000000244,true,high,false
GREFqkJN,3r6rzgk0yip7nifkjif6ljfzh4yvyd,3hmvi3qicn5toqxg360j3f4b5x01y1,GREFqkJN,2020-0188,2020-11-16,17:57:56,18:16:45,NA,incomplete,25,filling,0,1,right,Blue_Plus_Chess_1.jpg,Purple_Plus_Stripes_2.jpg,Green_Circle_Chess_4.jpg,right,1014.6700000041164,true,high,false
GREFqkJN,3r6rzgk0yip7nifkjif6ljfzh4yvyd,3hmvi3qicn5toqxg360j3f4b5x01y1,GREFqkJN,2020-0188,2020-11-16,17:57:56,18:16:45,NA,incomplete,26,filling,0,1,left,Red_Triangle_Dots_1.jpg,Green_Plus_Dots_4.jpg,Blue_Triangle_Chess_3.jpg,left,1226.9700000179,true,high,false
GREFqkJN,3r6rzgk0yip7nifkjif6ljfzh4yvyd,3hmvi3qicn5toqxg360j3f4b5x01y1,GREFqkJN,2020-0188,2020-11-16,17:57:56,18:16:45,NA,incomplete,27,filling,0,0,right,Purple_Triangle_Stripes_3.jpg,Blue_Triangle_Dots_4.jpg,Red_Star_Stripes_2.jpg,right,950.3299999923911,true,high,false
GREFqkJN,3r6rzgk0yip7nifkjif6ljfzh4yvyd,3hmvi3qicn5toqxg360j3f4b5x01y1,GREFqkJN,2020-0188,2020-11-16,17:57:56,18:16:45,NA,incomplete,28,filling,0,1,right,Green_Circle_Grid_2.jpg,Purple_Circle_Dots_3.jpg,Blue_Star_Grid_1.jpg,left,725.2650000154972,false,high,false
GREFqkJN,3r6rzgk0yip7nifkjif6ljfzh4yvyd,3hmvi3qicn5toqxg360j3f4b5x01y1,GREFqkJN,2020-0188,2020-11-16,17:57:56,18:16:45,NA,incomplete,29,filling,0,1,left,Green_Circle_Grid_1.jpg,Purple_Star_Grid_4.jpg,Blue_Circle_Chess_3.jpg,right,555.3099999960978,false,high,false
GREFqkJN,3r6rzgk0yip7nifkjif6ljfzh4yvyd,3hmvi3qicn5toqxg360j3f4b5x01y1,GREFqkJN,2020-0188,2020-11-16,17:57:56,18:16:45,NA,incomplete,30,shape,1,1,left,Purple_Triangle_Grid_1.jpg,Green_Triangle_Chess_2.jpg,Red_Plus_Grid_3.jpg,right,960.9350000100676,false,high,false
GREFqkJN,3r6rzgk0yip7nifkjif6ljfzh4yvyd,3hmvi3qicn5toqxg360j3f4b5x01y1,GREFqkJN,2020-0188,2020-11-16,17:57:56,18:16:45,NA,incomplete,31,shape,1,0,right,Green_Plus_Dots_2.jpg,Red_Circle_Dots_4.jpg,Purple_Plus_Grid_3.jpg,left,1031.5499999851454,false,high,false
GREFqkJN,3r6rzgk0yip7nifkjif6ljfzh4yvyd,3hmvi3qicn5toqxg360j3f4b5x01y1,GREFqkJN,2020-0188,2020-11-16,17:57:56,18:16:45,NA,incomplete,32,shape,1,1,left,Blue_Plus_Chess_2.jpg,Green_Plus_Grid_1.jpg,Red_Triangle_Chess_4.jpg,right,1068.4650000184774,false,high,false
GREFqkJN,3r6rzgk0yip7nifkjif6ljfzh4yvyd,3hmvi3qicn5toqxg360j3f4b5x01y1,GREFqkJN,2020-0188,2020-11-16,17:57:56,18:16:45,NA,incomplete,33,shape,1,1,left,Green_Circle_Grid_3.jpg,Red_Circle_Chess_4.jpg,Purple_Triangle_Grid_1.jpg,left,1252.3649999930058,true,high,false
GREFqkJN,3r6rzgk0yip7nifkjif6ljfzh4yvyd,3hmvi3qicn5toqxg360j3f4b5x01y1,GREFqkJN,2020-0188,2020-11-16,17:57:56,18:16:45,NA,incomplete,34,shape,1,1,left,Blue_Star_Grid_1.jpg,Green_Star_Dots_4.jpg,Red_Triangle_Grid_3.jpg,left,870.8000000042375,true,high,false
GREFqkJN,3r6rzgk0yip7nifkjif6ljfzh4yvyd,3hmvi3qicn5toqxg360j3f4b5x01y1,GREFqkJN,2020-0188,2020-11-16,17:57:56,18:16:45,NA,incomplete,35,shape,1,1,right,Purple_Triangle_Dots_3.jpg,Red_Plus_Dots_2.jpg,Blue_Triangle_Grid_4.jpg,right,647.0850000041537,true,high,false
GREFqkJN,3r6rzgk0yip7nifkjif6ljfzh4yvyd,3hmvi3qicn5toqxg360j3f4b5x01y1,GREFqkJN,2020-0188,2020-11-16,17:57:56,18:16:45,NA,incomplete,36,shape,1,1,left,Blue_Triangle_Dots_2.jpg,Red_Triangle_Grid_3.jpg,Green_Circle_Dots_1.jpg,left,721.4699999894947,true,high,false
GREFqkJN,3r6rzgk0yip7nifkjif6ljfzh4yvyd,3hmvi3qicn5toqxg360j3f4b5x01y1,GREFqkJN,2020-0188,2020-11-16,17:57:56,18:16:45,NA,incomplete,37,shape,1,1,right,Purple_Triangle_Stripes_3.jpg,Green_Circle_Stripes_4.jpg,Blue_Triangle_Chess_1.jpg,right,1042.989999987185,true,high,false
GREFqkJN,3r6rzgk0yip7nifkjif6ljfzh4yvyd,3hmvi3qicn5toqxg360j3f4b5x01y1,GREFqkJN,2020-0188,2020-11-16,17:57:56,18:16:45,NA,incomplete,38,shape,1,0,left,Green_Plus_Grid_4.jpg,Blue_Plus_Chess_3.jpg,Red_Star_Grid_2.jpg,left,948.3600000094157,true,high,false
GREFqkJN,3r6rzgk0yip7nifkjif6ljfzh4yvyd,3hmvi3qicn5toqxg360j3f4b5x01y1,GREFqkJN,2020-0188,2020-11-16,17:57:56,18:16:45,NA,incomplete,39,shape,1,1,right,Blue_Plus_Dots_1.jpg,Purple_Star_Dots_4.jpg,Red_Plus_Grid_3.jpg,right,618.2150000240654,true,high,false
GREFqkJN,3r6rzgk0yip7nifkjif6ljfzh4yvyd,3hmvi3qicn5toqxg360j3f4b5x01y1,GREFqkJN,2020-0188,2020-11-16,17:57:56,18:16:45,NA,incomplete,40,filling,0,1,right,Red_Triangle_Chess_4.jpg,Purple_Triangle_Dots_2.jpg,Blue_Star_Chess_3.jpg,left,781.3100000203121,false,high,false
GREFqkJN,3r6rzgk0yip7nifkjif6ljfzh4yvyd,3hmvi3qicn5toqxg360j3f4b5x01y1,GREFqkJN,2020-0188,2020-11-16,17:57:56,18:16:45,NA,incomplete,41,filling,0,1,left,Blue_Plus_Stripes_3.jpg,Green_Circle_Stripes_4.jpg,Purple_Plus_Dots_2.jpg,left,938.8949999993201,true,high,false
GREFqkJN,3r6rzgk0yip7nifkjif6ljfzh4yvyd,3hmvi3qicn5toqxg360j3f4b5x01y1,GREFqkJN,2020-0188,2020-11-16,17:57:56,18:16:45,NA,incomplete,42,filling,0,0,left,Red_Triangle_Chess_3.jpg,Green_Star_Chess_4.jpg,Blue_Triangle_Dots_2.jpg,left,882.6899999985471,true,high,false
GREFqkJN,3r6rzgk0yip7nifkjif6ljfzh4yvyd,3hmvi3qicn5toqxg360j3f4b5x01y1,GREFqkJN,2020-0188,2020-11-16,17:57:56,18:16:45,NA,incomplete,43,filling,0,1,right,Purple_Circle_Stripes_2.jpg,Blue_Circle_Grid_3.jpg,Green_Triangle_Stripes_1.jpg,right,876.3049999834038,true,high,false
GREFqkJN,3r6rzgk0yip7nifkjif6ljfzh4yvyd,3hmvi3qicn5toqxg360j3f4b5x01y1,GREFqkJN,2020-0188,2020-11-16,17:57:56,18:16:45,NA,incomplete,44,filling,0,1,right,Blue_Triangle_Stripes_4.jpg,Green_Triangle_Grid_3.jpg,Purple_Circle_Stripes_2.jpg,right,795.8400000061374,true,high,false
GREFqkJN,3r6rzgk0yip7nifkjif6ljfzh4yvyd,3hmvi3qicn5toqxg360j3f4b5x01y1,GREFqkJN,2020-0188,2020-11-16,17:57:56,18:16:45,NA,incomplete,45,filling,0,1,left,Green_Triangle_Grid_1.jpg,Purple_Plus_Grid_3.jpg,Red_Triangle_Dots_2.jpg,left,888.5050000099,true,high,false
GREFqkJN,3r6rzgk0yip7nifkjif6ljfzh4yvyd,3hmvi3qicn5toqxg360j3f4b5x01y1,GREFqkJN,2020-0188,2020-11-16,17:57:56,18:16:45,NA,incomplete,46,filling,0,1,left,Purple_Circle_Stripes_4.jpg,Blue_Triangle_Stripes_1.jpg,Red_Circle_Chess_2.jpg,left,1042.2450000187382,true,high,false
GREFqkJN,3r6rzgk0yip7nifkjif6ljfzh4yvyd,3hmvi3qicn5toqxg360j3f4b5x01y1,GREFqkJN,2020-0188,2020-11-16,17:57:56,18:16:45,NA,incomplete,47,filling,0,1,left,Red_Plus_Dots_3.jpg,Purple_Circle_Dots_4.jpg,Green_Plus_Chess_2.jpg,left,1124.7499999881256,true,high,false
GREFqkJN,3r6rzgk0yip7nifkjif6ljfzh4yvyd,3hmvi3qicn5toqxg360j3f4b5x01y1,GREFqkJN,2020-0188,2020-11-16,17:57:56,18:16:45,NA,incomplete,48,filling,0,1,left,Green_Triangle_Chess_3.jpg,Purple_Star_Chess_4.jpg,Blue_Triangle_Dots_2.jpg,left,828.2799999869894,true,high,false
GREFqkJN,3r6rzgk0yip7nifkjif6ljfzh4yvyd,3hmvi3qicn5toqxg360j3f4b5x01y1,GREFqkJN,2020-0188,2020-11-16,17:57:56,18:16:45,NA,incomplete,49,filling,0,1,right,Purple_Plus_Grid_4.jpg,Blue_Plus_Chess_2.jpg,Green_Triangle_Grid_1.jpg,right,870.519999996759,true,high,false
GREFqkJN,3r6rzgk0yip7nifkjif6ljfzh4yvyd,3hmvi3qicn5toqxg360j3f4b5x01y1,GREFqkJN,2020-0188,2020-11-16,17:57:56,18:16:45,NA,incomplete,50,shape,1,1,right,Red_Star_Dots_3.jpg,Purple_Plus_Dots_4.jpg,Blue_Star_Chess_2.jpg,left,735.7900000060908,false,high,false
GREFqkJN,3r6rzgk0yip7nifkjif6ljfzh4yvyd,3hmvi3qicn5toqxg360j3f4b5x01y1,GREFqkJN,2020-0188,2020-11-16,17:57:56,18:16:45,NA,incomplete,51,shape,1,1,right,Blue_Triangle_Stripes_4.jpg,Purple_Circle_Stripes_1.jpg,Green_Triangle_Dots_2.jpg,left,792.1649999916553,false,high,false
GREFqkJN,3r6rzgk0yip7nifkjif6ljfzh4yvyd,3hmvi3qicn5toqxg360j3f4b5x01y1,GREFqkJN,2020-0188,2020-11-16,17:57:56,18:16:45,NA,incomplete,52,shape,1,1,right,Green_Star_Stripes_3.jpg,Purple_Circle_Stripes_1.jpg,Red_Star_Dots_4.jpg,right,708.5800000058953,true,high,false
GREFqkJN,3r6rzgk0yip7nifkjif6ljfzh4yvyd,3hmvi3qicn5toqxg360j3f4b5x01y1,GREFqkJN,2020-0188,2020-11-16,17:57:56,18:16:45,NA,incomplete,53,shape,1,1,right,Purple_Triangle_Stripes_3.jpg,Red_Circle_Stripes_2.jpg,Green_Triangle_Dots_4.jpg,right,986.9450000114739,true,high,false
GREFqkJN,3r6rzgk0yip7nifkjif6ljfzh4yvyd,3hmvi3qicn5toqxg360j3f4b5x01y1,GREFqkJN,2020-0188,2020-11-16,17:57:56,18:16:45,NA,incomplete,54,shape,1,1,right,Blue_Plus_Stripes_1.jpg,Purple_Circle_Stripes_3.jpg,Green_Plus_Grid_4.jpg,right,687.3999999952503,true,high,false
GREFqkJN,3r6rzgk0yip7nifkjif6ljfzh4yvyd,3hmvi3qicn5toqxg360j3f4b5x01y1,GREFqkJN,2020-0188,2020-11-16,17:57:56,18:16:45,NA,incomplete,55,shape,1,1,left,Blue_Plus_Chess_3.jpg,Green_Plus_Grid_4.jpg,Purple_Circle_Chess_1.jpg,left,664.4000000087544,true,high,false
GREFqkJN,3r6rzgk0yip7nifkjif6ljfzh4yvyd,3hmvi3qicn5toqxg360j3f4b5x01y1,GREFqkJN,2020-0188,2020-11-16,17:57:56,18:16:45,NA,incomplete,56,shape,1,1,right,Blue_Plus_Dots_2.jpg,Purple_Triangle_Dots_4.jpg,Green_Plus_Chess_1.jpg,right,764.4100000034086,true,high,false
GREFqkJN,3r6rzgk0yip7nifkjif6ljfzh4yvyd,3hmvi3qicn5toqxg360j3f4b5x01y1,GREFqkJN,2020-0188,2020-11-16,17:57:56,18:16:45,NA,incomplete,57,shape,1,0,right,Purple_Triangle_Chess_3.jpg,Green_Plus_Chess_1.jpg,Blue_Triangle_Stripes_2.jpg,right,840.1749999902677,true,high,false
GREFqkJN,3r6rzgk0yip7nifkjif6ljfzh4yvyd,3hmvi3qicn5toqxg360j3f4b5x01y1,GREFqkJN,2020-0188,2020-11-16,17:57:56,18:16:45,NA,incomplete,58,shape,1,1,right,Green_Plus_Grid_3.jpg,Purple_Star_Grid_2.jpg,Red_Plus_Chess_4.jpg,right,634.4149999786168,true,high,false
GREFqkJN,3r6rzgk0yip7nifkjif6ljfzh4yvyd,3hmvi3qicn5toqxg360j3f4b5x01y1,GREFqkJN,2020-0188,2020-11-16,17:57:56,18:16:45,NA,incomplete,59,shape,1,1,left,Green_Circle_Stripes_2.jpg,Purple_Circle_Chess_3.jpg,Blue_Star_Stripes_4.jpg,left,558.3650000044145,true,high,false
GREFqkJN,3r6rzgk0yip7nifkjif6ljfzh4yvyd,3hmvi3qicn5toqxg360j3f4b5x01y1,GREFqkJN,2020-0188,2020-11-16,17:57:56,18:16:45,NA,incomplete,60,filling,0,1,left,Blue_Triangle_Dots_2.jpg,Green_Circle_Dots_3.jpg,Red_Triangle_Chess_4.jpg,right,924.1800000017975,false,high,false
GREFqkJN,3r6rzgk0yip7nifkjif6ljfzh4yvyd,3hmvi3qicn5toqxg360j3f4b5x01y1,GREFqkJN,2020-0188,2020-11-16,17:57:56,18:16:45,NA,incomplete,61,filling,0,1,right,Blue_Triangle_Stripes_2.jpg,Red_Triangle_Grid_1.jpg,Purple_Plus_Stripes_3.jpg,right,898.9500000025146,true,high,false
GREFqkJN,3r6rzgk0yip7nifkjif6ljfzh4yvyd,3hmvi3qicn5toqxg360j3f4b5x01y1,GREFqkJN,2020-0188,2020-11-16,17:57:56,18:16:45,NA,incomplete,62,filling,0,1,left,Purple_Star_Grid_1.jpg,Red_Triangle_Grid_4.jpg,Green_Star_Chess_3.jpg,left,1011.079999996582,true,high,false
GREFqkJN,3r6rzgk0yip7nifkjif6ljfzh4yvyd,3hmvi3qicn5toqxg360j3f4b5x01y1,GREFqkJN,2020-0188,2020-11-16,17:57:56,18:16:45,NA,incomplete,63,filling,0,1,left,Green_Circle_Stripes_3.jpg,Blue_Triangle_Stripes_4.jpg,Red_Circle_Dots_1.jpg,left,999.2300000158139,true,high,false
GREFqkJN,3r6rzgk0yip7nifkjif6ljfzh4yvyd,3hmvi3qicn5toqxg360j3f4b5x01y1,GREFqkJN,2020-0188,2020-11-16,17:57:56,18:16:45,NA,incomplete,64,filling,0,0,left,Red_Triangle_Chess_3.jpg,Purple_Star_Chess_4.jpg,Green_Triangle_Dots_2.jpg,left,1029.0300000051502,true,high,false
GREFqkJN,3r6rzgk0yip7nifkjif6ljfzh4yvyd,3hmvi3qicn5toqxg360j3f4b5x01y1,GREFqkJN,2020-0188,2020-11-16,17:57:56,18:16:45,NA,incomplete,65,filling,0,1,left,Green_Star_Chess_1.jpg,Blue_Triangle_Chess_3.jpg,Purple_Star_Stripes_4.jpg,left,880.8750000025611,true,high,false
GREFqkJN,3r6rzgk0yip7nifkjif6ljfzh4yvyd,3hmvi3qicn5toqxg360j3f4b5x01y1,GREFqkJN,2020-0188,2020-11-16,17:57:56,18:16:45,NA,incomplete,66,filling,0,1,left,Blue_Circle_Chess_2.jpg,Green_Star_Chess_4.jpg,Purple_Circle_Stripes_3.jpg,left,896.5900000184774,true,high,false
GREFqkJN,3r6rzgk0yip7nifkjif6ljfzh4yvyd,3hmvi3qicn5toqxg360j3f4b5x01y1,GREFqkJN,2020-0188,2020-11-16,17:57:56,18:16:45,NA,incomplete,67,filling,0,1,right,Green_Triangle_Stripes_2.jpg,Purple_Triangle_Chess_4.jpg,Blue_Circle_Stripes_3.jpg,right,888.9400000043679,true,high,false
GREFqkJN,3r6rzgk0yip7nifkjif6ljfzh4yvyd,3hmvi3qicn5toqxg360j3f4b5x01y1,GREFqkJN,2020-0188,2020-11-16,17:57:56,18:16:45,NA,incomplete,68,filling,0,1,left,Green_Triangle_Stripes_2.jpg,Blue_Circle_Stripes_3.jpg,Purple_Triangle_Dots_1.jpg,left,778.3350000099745,true,high,false
GREFqkJN,3r6rzgk0yip7nifkjif6ljfzh4yvyd,3hmvi3qicn5toqxg360j3f4b5x01y1,GREFqkJN,2020-0188,2020-11-16,17:57:56,18:16:45,NA,incomplete,69,filling,0,0,right,Red_Triangle_Chess_2.jpg,Blue_Triangle_Dots_1.jpg,Green_Plus_Chess_4.jpg,right,807.9749999742489,true,high,false
GREFqkJN,3r6rzgk0yip7nifkjif6ljfzh4yvyd,3hmvi3qicn5toqxg360j3f4b5x01y1,GREFqkJN,2020-0188,2020-11-16,17:57:56,18:16:45,NA,incomplete,70,shape,1,1,left,Purple_Star_Chess_2.jpg,Red_Star_Grid_4.jpg,Green_Plus_Chess_1.jpg,right,971.895000024233,false,high,false
GREFqkJN,3r6rzgk0yip7nifkjif6ljfzh4yvyd,3hmvi3qicn5toqxg360j3f4b5x01y1,GREFqkJN,2020-0188,2020-11-16,17:57:56,18:16:45,NA,incomplete,71,shape,1,0,left,Green_Circle_Chess_4.jpg,Purple_Circle_Dots_2.jpg,Blue_Plus_Chess_1.jpg,left,648.4500000078697,true,high,false
GREFqkJN,3r6rzgk0yip7nifkjif6ljfzh4yvyd,3hmvi3qicn5toqxg360j3f4b5x01y1,GREFqkJN,2020-0188,2020-11-16,17:57:56,18:16:45,NA,incomplete,72,shape,1,1,left,Blue_Triangle_Dots_2.jpg,Purple_Triangle_Chess_4.jpg,Red_Plus_Dots_1.jpg,left,762.2700000065379,true,high,false
GREFqkJN,3r6rzgk0yip7nifkjif6ljfzh4yvyd,3hmvi3qicn5toqxg360j3f4b5x01y1,GREFqkJN,2020-0188,2020-11-16,17:57:56,18:16:45,NA,incomplete,73,shape,1,0,right,Blue_Triangle_Chess_4.jpg,Green_Star_Chess_2.jpg,Purple_Triangle_Grid_3.jpg,right,569.1999999980908,true,high,false
GREFqkJN,3r6rzgk0yip7nifkjif6ljfzh4yvyd,3hmvi3qicn5toqxg360j3f4b5x01y1,GREFqkJN,2020-0188,2020-11-16,17:57:56,18:16:45,NA,incomplete,74,shape,1,1,right,Red_Circle_Dots_1.jpg,Blue_Triangle_Dots_4.jpg,Green_Circle_Grid_2.jpg,right,590.1100000191946,true,high,false
GREFqkJN,3r6rzgk0yip7nifkjif6ljfzh4yvyd,3hmvi3qicn5toqxg360j3f4b5x01y1,GREFqkJN,2020-0188,2020-11-16,17:57:56,18:16:45,NA,incomplete,75,shape,1,1,left,Green_Plus_Chess_4.jpg,Red_Plus_Dots_3.jpg,Blue_Star_Chess_1.jpg,left,722.6299999747425,true,high,false
GREFqkJN,3r6rzgk0yip7nifkjif6ljfzh4yvyd,3hmvi3qicn5toqxg360j3f4b5x01y1,GREFqkJN,2020-0188,2020-11-16,17:57:56,18:16:45,NA,incomplete,76,shape,1,1,left,Purple_Plus_Stripes_4.jpg,Blue_Plus_Chess_3.jpg,Green_Circle_Stripes_2.jpg,left,707.8249999904074,true,high,false
GREFqkJN,3r6rzgk0yip7nifkjif6ljfzh4yvyd,3hmvi3qicn5toqxg360j3f4b5x01y1,GREFqkJN,2020-0188,2020-11-16,17:57:56,18:16:45,NA,incomplete,77,shape,1,1,right,Red_Triangle_Stripes_2.jpg,Purple_Circle_Stripes_3.jpg,Green_Triangle_Dots_4.jpg,right,610.7849999971222,true,high,false
GREFqkJN,3r6rzgk0yip7nifkjif6ljfzh4yvyd,3hmvi3qicn5toqxg360j3f4b5x01y1,GREFqkJN,2020-0188,2020-11-16,17:57:56,18:16:45,NA,incomplete,78,shape,1,1,right,Purple_Triangle_Chess_3.jpg,Blue_Circle_Chess_4.jpg,Red_Triangle_Grid_1.jpg,right,645.9749999921769,true,high,false
GREFqkJN,3r6rzgk0yip7nifkjif6ljfzh4yvyd,3hmvi3qicn5toqxg360j3f4b5x01y1,GREFqkJN,2020-0188,2020-11-16,17:57:56,18:16:45,NA,incomplete,79,shape,1,1,left,Blue_Star_Chess_4.jpg,Purple_Star_Stripes_1.jpg,Green_Plus_Chess_2.jpg,left,808.4400000225287,true,high,false
GREFqkJN,3r6rzgk0yip7nifkjif6ljfzh4yvyd,3hmvi3qicn5toqxg360j3f4b5x01y1,GREFqkJN,2020-0188,2020-11-16,17:57:56,18:16:45,NA,incomplete,80,filling,0,1,left,Purple_Triangle_Chess_4.jpg,Blue_Star_Chess_2.jpg,Red_Triangle_Dots_3.jpg,right,549.1299999994226,false,high,false
GREFqkJN,3r6rzgk0yip7nifkjif6ljfzh4yvyd,3hmvi3qicn5toqxg360j3f4b5x01y1,GREFqkJN,2020-0188,2020-11-16,17:57:56,18:16:45,NA,incomplete,81,filling,0,1,left,Purple_Star_Dots_4.jpg,Green_Triangle_Dots_1.jpg,Red_Star_Grid_2.jpg,left,988.8900000078138,true,high,false
GREFqkJN,3r6rzgk0yip7nifkjif6ljfzh4yvyd,3hmvi3qicn5toqxg360j3f4b5x01y1,GREFqkJN,2020-0188,2020-11-16,17:57:56,18:16:45,NA,incomplete,82,filling,0,1,left,Purple_Circle_Grid_4.jpg,Green_Plus_Grid_3.jpg,Red_Circle_Stripes_1.jpg,left,951.8349999852944,true,high,false
GREFqkJN,3r6rzgk0yip7nifkjif6ljfzh4yvyd,3hmvi3qicn5toqxg360j3f4b5x01y1,GREFqkJN,2020-0188,2020-11-16,17:57:56,18:16:45,NA,incomplete,83,filling,0,1,right,Green_Circle_Grid_1.jpg,Blue_Circle_Chess_4.jpg,Purple_Triangle_Grid_2.jpg,right,909.4749999931082,true,high,false
GREFqkJN,3r6rzgk0yip7nifkjif6ljfzh4yvyd,3hmvi3qicn5toqxg360j3f4b5x01y1,GREFqkJN,2020-0188,2020-11-16,17:57:56,18:16:45,NA,incomplete,84,filling,0,1,left,Green_Triangle_Stripes_1.jpg,Purple_Plus_Stripes_4.jpg,Blue_Triangle_Grid_3.jpg,left,999.3850000028033,true,high,false
GREFqkJN,3r6rzgk0yip7nifkjif6ljfzh4yvyd,3hmvi3qicn5toqxg360j3f4b5x01y1,GREFqkJN,2020-0188,2020-11-16,17:57:56,18:16:45,NA,incomplete,85,filling,0,1,right,Blue_Circle_Grid_2.jpg,Purple_Circle_Chess_4.jpg,Red_Plus_Grid_3.jpg,right,899.4200000015553,true,high,false
GREFqkJN,3r6rzgk0yip7nifkjif6ljfzh4yvyd,3hmvi3qicn5toqxg360j3f4b5x01y1,GREFqkJN,2020-0188,2020-11-16,17:57:56,18:16:45,NA,incomplete,86,filling,0,1,right,Purple_Circle_Dots_1.jpg,Blue_Circle_Stripes_3.jpg,Green_Plus_Dots_4.jpg,right,916.319999989355,true,high,false
GREFqkJN,3r6rzgk0yip7nifkjif6ljfzh4yvyd,3hmvi3qicn5toqxg360j3f4b5x01y1,GREFqkJN,2020-0188,2020-11-16,17:57:56,18:16:45,NA,incomplete,87,filling,0,0,left,Green_Plus_Chess_2.jpg,Purple_Circle_Chess_1.jpg,Blue_Plus_Grid_3.jpg,left,1114.914999983739,true,high,false
GREFqkJN,3r6rzgk0yip7nifkjif6ljfzh4yvyd,3hmvi3qicn5toqxg360j3f4b5x01y1,GREFqkJN,2020-0188,2020-11-16,17:57:56,18:16:45,NA,incomplete,88,filling,0,1,left,Red_Triangle_Chess_1.jpg,Green_Star_Chess_3.jpg,Purple_Triangle_Dots_4.jpg,left,914.7799999918789,true,high,false
GREFqkJN,3r6rzgk0yip7nifkjif6ljfzh4yvyd,3hmvi3qicn5toqxg360j3f4b5x01y1,GREFqkJN,2020-0188,2020-11-16,17:57:56,18:16:45,NA,incomplete,89,filling,0,1,right,Red_Circle_Chess_4.jpg,Purple_Circle_Dots_1.jpg,Blue_Plus_Chess_2.jpg,right,828.6099999968428,true,high,false
GREFqkJN,3r6rzgk0yip7nifkjif6ljfzh4yvyd,3hmvi3qicn5toqxg360j3f4b5x01y1,GREFqkJN,2020-0188,2020-11-16,17:57:56,18:16:45,NA,incomplete,90,shape,1,0,left,Blue_Circle_Stripes_3.jpg,Green_Circle_Dots_2.jpg,Red_Triangle_Stripes_1.jpg,right,951.8300000054296,false,high,false
GREFqkJN,3r6rzgk0yip7nifkjif6ljfzh4yvyd,3hmvi3qicn5toqxg360j3f4b5x01y1,GREFqkJN,2020-0188,2020-11-16,17:57:56,18:16:45,NA,incomplete,91,shape,1,0,right,Purple_Star_Chess_3.jpg,Red_Circle_Chess_2.jpg,Blue_Star_Stripes_4.jpg,left,1110.9699999797158,false,high,false
GREFqkJN,3r6rzgk0yip7nifkjif6ljfzh4yvyd,3hmvi3qicn5toqxg360j3f4b5x01y1,GREFqkJN,2020-0188,2020-11-16,17:57:56,18:16:45,NA,incomplete,92,shape,1,0,left,Red_Plus_Grid_3.jpg,Green_Plus_Stripes_2.jpg,Blue_Circle_Grid_1.jpg,right,1117.4800000153482,false,high,false
GREFqkJN,3r6rzgk0yip7nifkjif6ljfzh4yvyd,3hmvi3qicn5toqxg360j3f4b5x01y1,GREFqkJN,2020-0188,2020-11-16,17:57:56,18:16:45,NA,incomplete,93,shape,1,1,right,Red_Star_Grid_1.jpg,Purple_Circle_Grid_2.jpg,Green_Star_Dots_4.jpg,left,1012.0349999924656,false,high,false
GREFqkJN,3r6rzgk0yip7nifkjif6ljfzh4yvyd,3hmvi3qicn5toqxg360j3f4b5x01y1,GREFqkJN,2020-0188,2020-11-16,17:57:56,18:16:45,NA,incomplete,94,shape,1,0,left,Red_Triangle_Grid_1.jpg,Blue_Triangle_Dots_3.jpg,Purple_Star_Grid_4.jpg,left,695.9049999713898,true,high,false
GREFqkJN,3r6rzgk0yip7nifkjif6ljfzh4yvyd,3hmvi3qicn5toqxg360j3f4b5x01y1,GREFqkJN,2020-0188,2020-11-16,17:57:56,18:16:45,NA,incomplete,95,shape,1,1,right,Purple_Triangle_Chess_4.jpg,Blue_Circle_Chess_1.jpg,Green_Triangle_Grid_3.jpg,right,754.2649999959394,true,high,false
GREFqkJN,3r6rzgk0yip7nifkjif6ljfzh4yvyd,3hmvi3qicn5toqxg360j3f4b5x01y1,GREFqkJN,2020-0188,2020-11-16,17:57:56,18:16:45,NA,incomplete,96,shape,1,1,right,Red_Triangle_Grid_2.jpg,Green_Circle_Grid_3.jpg,Blue_Triangle_Chess_1.jpg,right,680.6349999969825,true,high,false
GREFqkJN,3r6rzgk0yip7nifkjif6ljfzh4yvyd,3hmvi3qicn5toqxg360j3f4b5x01y1,GREFqkJN,2020-0188,2020-11-16,17:57:56,18:16:45,NA,incomplete,97,shape,1,1,right,Blue_Triangle_Dots_1.jpg,Red_Star_Dots_4.jpg,Purple_Triangle_Grid_3.jpg,right,607.8699999779928,true,high,false
GREFqkJN,3r6rzgk0yip7nifkjif6ljfzh4yvyd,3hmvi3qicn5toqxg360j3f4b5x01y1,GREFqkJN,2020-0188,2020-11-16,17:57:56,18:16:45,NA,incomplete,98,shape,1,1,right,Purple_Circle_Grid_2.jpg,Blue_Star_Grid_4.jpg,Red_Circle_Stripes_3.jpg,right,819.5500000147149,true,high,false
GREFqkJN,3r6rzgk0yip7nifkjif6ljfzh4yvyd,3hmvi3qicn5toqxg360j3f4b5x01y1,GREFqkJN,2020-0188,2020-11-16,17:57:56,18:16:45,NA,incomplete,99,shape,1,0,left,Red_Plus_Chess_3.jpg,Purple_Plus_Grid_1.jpg,Green_Star_Chess_4.jpg,left,960.2049999812152,true,high,false
GREFqkJN,3r6rzgk0yip7nifkjif6ljfzh4yvyd,3hmvi3qicn5toqxg360j3f4b5x01y1,GREFqkJN,2020-0188,2020-11-16,17:57:56,18:16:45,NA,incomplete,100,filling,0,0,left,Red_Plus_Grid_4.jpg,Green_Triangle_Grid_1.jpg,Purple_Plus_Chess_2.jpg,right,509.52500000130385,false,high,false
GREFqkJN,3r6rzgk0yip7nifkjif6ljfzh4yvyd,3hmvi3qicn5toqxg360j3f4b5x01y1,GREFqkJN,2020-0188,2020-11-16,17:57:56,18:16:45,NA,incomplete,101,filling,0,0,left,Purple_Star_Stripes_4.jpg,Blue_Circle_Stripes_3.jpg,Green_Star_Grid_2.jpg,right,748.7100000143982,false,high,false
GREFqkJN,3r6rzgk0yip7nifkjif6ljfzh4yvyd,3hmvi3qicn5toqxg360j3f4b5x01y1,GREFqkJN,2020-0188,2020-11-16,17:57:56,18:16:45,NA,incomplete,102,filling,0,1,right,Red_Triangle_Chess_3.jpg,Blue_Triangle_Stripes_4.jpg,Green_Circle_Chess_1.jpg,left,644.9799999827519,false,high,false
GREFqkJN,3r6rzgk0yip7nifkjif6ljfzh4yvyd,3hmvi3qicn5toqxg360j3f4b5x01y1,GREFqkJN,2020-0188,2020-11-16,17:57:56,18:16:45,NA,incomplete,103,filling,0,0,right,Red_Circle_Dots_4.jpg,Blue_Circle_Stripes_3.jpg,Green_Triangle_Dots_2.jpg,left,646.80999997654,false,high,false
GREFqkJN,3r6rzgk0yip7nifkjif6ljfzh4yvyd,3hmvi3qicn5toqxg360j3f4b5x01y1,GREFqkJN,2020-0188,2020-11-16,17:57:56,18:16:45,NA,incomplete,104,filling,0,0,right,Green_Triangle_Chess_1.jpg,Red_Triangle_Grid_2.jpg,Blue_Circle_Chess_3.jpg,left,632.9599999880884,false,high,false
GREFqkJN,3r6rzgk0yip7nifkjif6ljfzh4yvyd,3hmvi3qicn5toqxg360j3f4b5x01y1,GREFqkJN,2020-0188,2020-11-16,17:57:56,18:16:45,NA,incomplete,105,filling,0,1,right,Red_Star_Dots_1.jpg,Blue_Star_Grid_2.jpg,Green_Plus_Dots_3.jpg,left,732.1649999939837,false,high,false
GREFqkJN,3r6rzgk0yip7nifkjif6ljfzh4yvyd,3hmvi3qicn5toqxg360j3f4b5x01y1,GREFqkJN,2020-0188,2020-11-16,17:57:56,18:16:45,NA,incomplete,106,filling,0,1,left,Green_Star_Dots_1.jpg,Red_Circle_Dots_4.jpg,Blue_Star_Chess_2.jpg,left,836.6799999785144,true,high,false
GREFqkJN,3r6rzgk0yip7nifkjif6ljfzh4yvyd,3hmvi3qicn5toqxg360j3f4b5x01y1,GREFqkJN,2020-0188,2020-11-16,17:57:56,18:16:45,NA,incomplete,107,filling,0,1,left,Red_Star_Grid_2.jpg,Blue_Circle_Grid_4.jpg,Green_Star_Chess_1.jpg,left,798.3600000152364,true,high,false
GREFqkJN,3r6rzgk0yip7nifkjif6ljfzh4yvyd,3hmvi3qicn5toqxg360j3f4b5x01y1,GREFqkJN,2020-0188,2020-11-16,17:57:56,18:16:45,NA,incomplete,108,filling,0,1,left,Purple_Triangle_Dots_1.jpg,Green_Plus_Dots_4.jpg,Blue_Triangle_Chess_2.jpg,left,922.7449999889359,true,high,false
GREFqkJN,3r6rzgk0yip7nifkjif6ljfzh4yvyd,3hmvi3qicn5toqxg360j3f4b5x01y1,GREFqkJN,2020-0188,2020-11-16,17:57:56,18:16:45,NA,incomplete,109,filling,0,1,right,Purple_Circle_Grid_2.jpg,Green_Circle_Chess_1.jpg,Blue_Triangle_Grid_4.jpg,right,833.5999999835622,true,high,false
GREFqkJN,3r6rzgk0yip7nifkjif6ljfzh4yvyd,3hmvi3qicn5toqxg360j3f4b5x01y1,GREFqkJN,2020-0188,2020-11-16,17:57:56,18:16:45,NA,incomplete,110,shape,1,1,right,Blue_Plus_Chess_2.jpg,Purple_Triangle_Chess_3.jpg,Red_Plus_Stripes_4.jpg,left,1052.5699999998324,false,high,false
GREFqkJN,3r6rzgk0yip7nifkjif6ljfzh4yvyd,3hmvi3qicn5toqxg360j3f4b5x01y1,GREFqkJN,2020-0188,2020-11-16,17:57:56,18:16:45,NA,incomplete,111,shape,1,0,right,Green_Plus_Dots_4.jpg,Red_Circle_Dots_1.jpg,Blue_Plus_Chess_2.jpg,left,800.0449999817647,false,high,false
GREFqkJN,3r6rzgk0yip7nifkjif6ljfzh4yvyd,3hmvi3qicn5toqxg360j3f4b5x01y1,GREFqkJN,2020-0188,2020-11-16,17:57:56,18:16:45,NA,incomplete,112,shape,1,0,right,Red_Star_Chess_2.jpg,Purple_Plus_Chess_4.jpg,Green_Star_Dots_3.jpg,left,836.425000015879,false,high,false
GREFqkJN,3r6rzgk0yip7nifkjif6ljfzh4yvyd,3hmvi3qicn5toqxg360j3f4b5x01y1,GREFqkJN,2020-0188,2020-11-16,17:57:56,18:16:45,NA,incomplete,113,shape,1,1,left,Green_Triangle_Dots_4.jpg,Red_Triangle_Grid_1.jpg,Purple_Circle_Dots_3.jpg,right,845.9450000082143,false,high,false
GREFqkJN,3r6rzgk0yip7nifkjif6ljfzh4yvyd,3hmvi3qicn5toqxg360j3f4b5x01y1,GREFqkJN,2020-0188,2020-11-16,17:57:56,18:16:45,NA,incomplete,114,shape,1,1,right,Purple_Triangle_Stripes_2.jpg,Green_Star_Stripes_4.jpg,Red_Triangle_Grid_1.jpg,right,976.0499999974854,true,high,false
GREFqkJN,3r6rzgk0yip7nifkjif6ljfzh4yvyd,3hmvi3qicn5toqxg360j3f4b5x01y1,GREFqkJN,2020-0188,2020-11-16,17:57:56,18:16:45,NA,incomplete,115,shape,1,1,right,Blue_Circle_Dots_2.jpg,Green_Plus_Dots_1.jpg,Purple_Circle_Stripes_4.jpg,right,662.6499999838416,true,high,false
GREFqkJN,3r6rzgk0yip7nifkjif6ljfzh4yvyd,3hmvi3qicn5toqxg360j3f4b5x01y1,GREFqkJN,2020-0188,2020-11-16,17:57:56,18:16:45,NA,incomplete,116,shape,1,1,left,Green_Star_Stripes_1.jpg,Blue_Star_Chess_3.jpg,Red_Circle_Stripes_4.jpg,left,657.1250000270084,true,high,false
GREFqkJN,3r6rzgk0yip7nifkjif6ljfzh4yvyd,3hmvi3qicn5toqxg360j3f4b5x01y1,GREFqkJN,2020-0188,2020-11-16,17:57:56,18:16:45,NA,incomplete,117,shape,1,1,right,Blue_Triangle_Chess_3.jpg,Red_Star_Chess_4.jpg,Green_Triangle_Grid_1.jpg,right,793.839999998454,true,high,false
GREFqkJN,3r6rzgk0yip7nifkjif6ljfzh4yvyd,3hmvi3qicn5toqxg360j3f4b5x01y1,GREFqkJN,2020-0188,2020-11-16,17:57:56,18:16:45,NA,incomplete,118,shape,1,1,right,Red_Circle_Dots_3.jpg,Green_Plus_Dots_4.jpg,Blue_Circle_Stripes_2.jpg,right,694.1299999889452,true,high,false
GREFqkJN,3r6rzgk0yip7nifkjif6ljfzh4yvyd,3hmvi3qicn5toqxg360j3f4b5x01y1,GREFqkJN,2020-0188,2020-11-16,17:57:56,18:16:45,NA,incomplete,119,shape,1,0,left,Red_Triangle_Grid_1.jpg,Blue_Triangle_Chess_3.jpg,Green_Star_Grid_2.jpg,left,617.2300000034738,true,high,false
GREFqkJN,3r6rzgk0yip7nifkjif6ljfzh4yvyd,3hmvi3qicn5toqxg360j3f4b5x01y1,GREFqkJN,2020-0188,2020-11-16,17:57:56,18:16:45,NA,incomplete,120,race,2,1,left,A_F_04.jpg,A_M_14.jpg,C_F_01.jpg,NA,NA,NA,high,false
GREFqkJN,3r6rzgk0yip7nifkjif6ljfzh4yvyd,3hmvi3qicn5toqxg360j3f4b5x01y1,GREFqkJN,2020-0188,2020-11-16,17:57:56,18:16:45,NA,incomplete,121,race,2,1,left,A_M_06.jpg,A_F_11.jpg,C_M_04.jpg,left,1387.9550000128802,true,high,false
GREFqkJN,3r6rzgk0yip7nifkjif6ljfzh4yvyd,3hmvi3qicn5toqxg360j3f4b5x01y1,GREFqkJN,2020-0188,2020-11-16,17:57:56,18:16:45,NA,incomplete,122,race,2,1,right,A_F_02.jpg,C_F_09.jpg,A_M_14.jpg,left,904.6300000045449,false,high,false
GREFqkJN,3r6rzgk0yip7nifkjif6ljfzh4yvyd,3hmvi3qicn5toqxg360j3f4b5x01y1,GREFqkJN,2020-0188,2020-11-16,17:57:56,18:16:45,NA,incomplete,123,race,2,0,right,A_M_13.jpg,C_M_07.jpg,A_F_09.jpg,right,1040.7549999945331,true,high,false
GREFqkJN,3r6rzgk0yip7nifkjif6ljfzh4yvyd,3hmvi3qicn5toqxg360j3f4b5x01y1,GREFqkJN,2020-0188,2020-11-16,17:57:56,18:16:45,NA,incomplete,124,race,2,1,left,C_F_12.jpg,C_M_01.jpg,A_F_15.jpg,right,907.6399999903515,false,high,false
GREFqkJN,3r6rzgk0yip7nifkjif6ljfzh4yvyd,3hmvi3qicn5toqxg360j3f4b5x01y1,GREFqkJN,2020-0188,2020-11-16,17:57:56,18:16:45,NA,incomplete,125,race,2,1,right,A_F_07.jpg,C_F_04.jpg,A_M_13.jpg,left,1156.1100000108127,false,high,false
GREFqkJN,3r6rzgk0yip7nifkjif6ljfzh4yvyd,3hmvi3qicn5toqxg360j3f4b5x01y1,GREFqkJN,2020-0188,2020-11-16,17:57:56,18:16:45,NA,incomplete,126,race,2,1,left,C_F_09.jpg,C_M_13.jpg,A_F_06.jpg,right,1043.0550000164658,false,high,false
GREFqkJN,3r6rzgk0yip7nifkjif6ljfzh4yvyd,3hmvi3qicn5toqxg360j3f4b5x01y1,GREFqkJN,2020-0188,2020-11-16,17:57:56,18:16:45,NA,incomplete,127,race,2,0,right,A_M_08.jpg,C_M_13.jpg,A_F_06.jpg,right,1259.9449999979697,true,high,false
GREFqkJN,3r6rzgk0yip7nifkjif6ljfzh4yvyd,3hmvi3qicn5toqxg360j3f4b5x01y1,GREFqkJN,2020-0188,2020-11-16,17:57:56,18:16:45,NA,incomplete,128,race,2,1,right,A_M_02.jpg,C_M_01.jpg,A_F_13.jpg,left,981.7700000130571,false,high,false
GREFqkJN,3r6rzgk0yip7nifkjif6ljfzh4yvyd,3hmvi3qicn5toqxg360j3f4b5x01y1,GREFqkJN,2020-0188,2020-11-16,17:57:56,18:16:45,NA,incomplete,129,race,2,0,right,A_M_15.jpg,C_M_07.jpg,A_F_16.jpg,left,1002.7950000076089,false,high,false
GREFqkJN,3r6rzgk0yip7nifkjif6ljfzh4yvyd,3hmvi3qicn5toqxg360j3f4b5x01y1,GREFqkJN,2020-0188,2020-11-16,17:57:56,18:16:45,NA,incomplete,130,race,2,1,left,C_M_08.jpg,C_F_10.jpg,A_M_09.jpg,right,840.2749999950174,false,high,false
GREFqkJN,3r6rzgk0yip7nifkjif6ljfzh4yvyd,3hmvi3qicn5toqxg360j3f4b5x01y1,GREFqkJN,2020-0188,2020-11-16,17:57:56,18:16:45,NA,incomplete,131,race,2,1,right,A_F_10.jpg,C_F_13.jpg,A_M_16.jpg,right,1097.8250000043772,true,high,false
GREFqkJN,3r6rzgk0yip7nifkjif6ljfzh4yvyd,3hmvi3qicn5toqxg360j3f4b5x01y1,GREFqkJN,2020-0188,2020-11-16,17:57:56,18:16:45,NA,incomplete,132,race,2,1,left,C_F_12.jpg,C_M_05.jpg,A_F_07.jpg,left,1292.1600000117905,true,high,false
GREFqkJN,3r6rzgk0yip7nifkjif6ljfzh4yvyd,3hmvi3qicn5toqxg360j3f4b5x01y1,GREFqkJN,2020-0188,2020-11-16,17:57:56,18:16:45,NA,incomplete,133,race,2,1,left,A_M_11.jpg,A_F_09.jpg,C_M_12.jpg,left,1116.7350000177976,true,high,false
GREFqkJN,3r6rzgk0yip7nifkjif6ljfzh4yvyd,3hmvi3qicn5toqxg360j3f4b5x01y1,GREFqkJN,2020-0188,2020-11-16,17:57:56,18:16:45,NA,incomplete,134,race,2,1,right,C_F_06.jpg,A_F_05.jpg,C_M_04.jpg,right,1082.8100000217091,true,high,false
GREFqkJN,3r6rzgk0yip7nifkjif6ljfzh4yvyd,3hmvi3qicn5toqxg360j3f4b5x01y1,GREFqkJN,2020-0188,2020-11-16,17:57:56,18:16:45,NA,incomplete,135,race,2,1,right,A_F_09.jpg,C_F_10.jpg,A_M_02.jpg,right,1075.845000013942,true,high,false
GREFqkJN,3r6rzgk0yip7nifkjif6ljfzh4yvyd,3hmvi3qicn5toqxg360j3f4b5x01y1,GREFqkJN,2020-0188,2020-11-16,17:57:56,18:16:45,NA,incomplete,136,race,2,1,left,C_M_15.jpg,C_F_11.jpg,A_M_01.jpg,left,1157.454999978654,true,high,false
GREFqkJN,3r6rzgk0yip7nifkjif6ljfzh4yvyd,3hmvi3qicn5toqxg360j3f4b5x01y1,GREFqkJN,2020-0188,2020-11-16,17:57:56,18:16:45,NA,incomplete,137,race,2,1,left,C_F_01.jpg,C_M_02.jpg,A_F_04.jpg,right,1035.2949999796692,false,high,false
GREFqkJN,3r6rzgk0yip7nifkjif6ljfzh4yvyd,3hmvi3qicn5toqxg360j3f4b5x01y1,GREFqkJN,2020-0188,2020-11-16,17:57:56,18:16:45,NA,incomplete,138,race,2,1,right,C_M_10.jpg,A_M_01.jpg,C_F_08.jpg,right,967.3300000140443,true,high,false
GREFqkJN,3r6rzgk0yip7nifkjif6ljfzh4yvyd,3hmvi3qicn5toqxg360j3f4b5x01y1,GREFqkJN,2020-0188,2020-11-16,17:57:56,18:16:45,NA,incomplete,139,race,2,1,left,C_M_12.jpg,C_F_03.jpg,A_M_02.jpg,left,948.6050000123214,true,high,false
GREFqkJN,3r6rzgk0yip7nifkjif6ljfzh4yvyd,3hmvi3qicn5toqxg360j3f4b5x01y1,GREFqkJN,2020-0188,2020-11-16,17:57:56,18:16:45,NA,incomplete,140,gender,3,0,left,C_F_15.jpg,A_F_03.jpg,C_M_06.jpg,left,1226.8099999928381,true,high,false
GREFqkJN,3r6rzgk0yip7nifkjif6ljfzh4yvyd,3hmvi3qicn5toqxg360j3f4b5x01y1,GREFqkJN,2020-0188,2020-11-16,17:57:56,18:16:45,NA,incomplete,141,gender,3,1,left,A_F_01.jpg,C_F_16.jpg,A_M_04.jpg,right,917.9050000093412,false,high,false
GREFqkJN,3r6rzgk0yip7nifkjif6ljfzh4yvyd,3hmvi3qicn5toqxg360j3f4b5x01y1,GREFqkJN,2020-0188,2020-11-16,17:57:56,18:16:45,NA,incomplete,142,gender,3,1,left,A_M_11.jpg,C_M_03.jpg,A_F_12.jpg,right,1092.9400000022724,false,high,false
GREFqkJN,3r6rzgk0yip7nifkjif6ljfzh4yvyd,3hmvi3qicn5toqxg360j3f4b5x01y1,GREFqkJN,2020-0188,2020-11-16,17:57:56,18:16:45,NA,incomplete,143,gender,3,0,right,A_F_09.jpg,A_M_12.jpg,C_F_06.jpg,right,726.7700000084005,true,high,false
GREFqkJN,3r6rzgk0yip7nifkjif6ljfzh4yvyd,3hmvi3qicn5toqxg360j3f4b5x01y1,GREFqkJN,2020-0188,2020-11-16,17:57:56,18:16:45,NA,incomplete,144,gender,3,1,left,A_M_05.jpg,C_M_16.jpg,A_F_12.jpg,left,734.8049999854993,true,high,false
GREFqkJN,3r6rzgk0yip7nifkjif6ljfzh4yvyd,3hmvi3qicn5toqxg360j3f4b5x01y1,GREFqkJN,2020-0188,2020-11-16,17:57:56,18:16:45,NA,incomplete,145,gender,3,1,left,C_F_10.jpg,A_F_13.jpg,C_M_11.jpg,left,894.029999995837,true,high,false
GREFqkJN,3r6rzgk0yip7nifkjif6ljfzh4yvyd,3hmvi3qicn5toqxg360j3f4b5x01y1,GREFqkJN,2020-0188,2020-11-16,17:57:56,18:16:45,NA,incomplete,146,gender,3,1,right,C_F_02.jpg,C_M_04.jpg,A_F_13.jpg,right,852.0100000023376,true,high,false
GREFqkJN,3r6rzgk0yip7nifkjif6ljfzh4yvyd,3hmvi3qicn5toqxg360j3f4b5x01y1,GREFqkJN,2020-0188,2020-11-16,17:57:56,18:16:45,NA,incomplete,147,gender,3,0,left,C_F_01.jpg,A_F_10.jpg,C_M_12.jpg,left,854.2100000195205,true,high,false
GREFqkJN,3r6rzgk0yip7nifkjif6ljfzh4yvyd,3hmvi3qicn5toqxg360j3f4b5x01y1,GREFqkJN,2020-0188,2020-11-16,17:57:56,18:16:45,NA,incomplete,148,gender,3,1,right,A_F_12.jpg,A_M_01.jpg,C_F_11.jpg,right,656.539999996312,true,high,false
GREFqkJN,3r6rzgk0yip7nifkjif6ljfzh4yvyd,3hmvi3qicn5toqxg360j3f4b5x01y1,GREFqkJN,2020-0188,2020-11-16,17:57:56,18:16:45,NA,incomplete,149,gender,3,1,right,C_M_01.jpg,C_F_12.jpg,A_M_14.jpg,right,754.9599999911152,true,high,false
GREFqkJN,3r6rzgk0yip7nifkjif6ljfzh4yvyd,3hmvi3qicn5toqxg360j3f4b5x01y1,GREFqkJN,2020-0188,2020-11-16,17:57:56,18:16:45,NA,incomplete,150,gender,3,1,left,C_F_16.jpg,A_F_10.jpg,C_M_01.jpg,left,799.9650000128895,true,high,false
GREFqkJN,3r6rzgk0yip7nifkjif6ljfzh4yvyd,3hmvi3qicn5toqxg360j3f4b5x01y1,GREFqkJN,2020-0188,2020-11-16,17:57:56,18:16:45,NA,incomplete,151,gender,3,0,left,A_M_08.jpg,C_M_07.jpg,A_F_14.jpg,left,1027.830000006361,true,high,false
GREFqkJN,3r6rzgk0yip7nifkjif6ljfzh4yvyd,3hmvi3qicn5toqxg360j3f4b5x01y1,GREFqkJN,2020-0188,2020-11-16,17:57:56,18:16:45,NA,incomplete,152,gender,3,1,left,C_F_03.jpg,A_F_16.jpg,C_M_09.jpg,left,751.62499997532,true,high,false
GREFqkJN,3r6rzgk0yip7nifkjif6ljfzh4yvyd,3hmvi3qicn5toqxg360j3f4b5x01y1,GREFqkJN,2020-0188,2020-11-16,17:57:56,18:16:45,NA,incomplete,153,gender,3,1,right,C_F_02.jpg,C_M_05.jpg,A_F_11.jpg,right,694.0900000045076,true,high,false
GREFqkJN,3r6rzgk0yip7nifkjif6ljfzh4yvyd,3hmvi3qicn5toqxg360j3f4b5x01y1,GREFqkJN,2020-0188,2020-11-16,17:57:56,18:16:45,NA,incomplete,154,gender,3,1,left,A_F_16.jpg,C_F_05.jpg,A_M_13.jpg,left,733.9499999943655,true,high,false
GREFqkJN,3r6rzgk0yip7nifkjif6ljfzh4yvyd,3hmvi3qicn5toqxg360j3f4b5x01y1,GREFqkJN,2020-0188,2020-11-16,17:57:56,18:16:45,NA,incomplete,155,gender,3,1,right,A_F_09.jpg,A_M_08.jpg,C_F_04.jpg,right,796.6050000104588,true,high,false
GREFqkJN,3r6rzgk0yip7nifkjif6ljfzh4yvyd,3hmvi3qicn5toqxg360j3f4b5x01y1,GREFqkJN,2020-0188,2020-11-16,17:57:56,18:16:45,NA,incomplete,156,gender,3,1,right,C_M_08.jpg,C_F_06.jpg,A_M_05.jpg,right,1035.3849999955855,true,high,false
GREFqkJN,3r6rzgk0yip7nifkjif6ljfzh4yvyd,3hmvi3qicn5toqxg360j3f4b5x01y1,GREFqkJN,2020-0188,2020-11-16,17:57:56,18:16:45,NA,incomplete,157,gender,3,0,right,A_F_03.jpg,A_M_10.jpg,C_F_12.jpg,right,1060.670000006212,true,high,false
GREFqkJN,3r6rzgk0yip7nifkjif6ljfzh4yvyd,3hmvi3qicn5toqxg360j3f4b5x01y1,GREFqkJN,2020-0188,2020-11-16,17:57:56,18:16:45,NA,incomplete,158,gender,3,1,right,A_F_01.jpg,A_M_14.jpg,C_F_04.jpg,right,750.0050000089686,true,high,false
GREFqkJN,3r6rzgk0yip7nifkjif6ljfzh4yvyd,3hmvi3qicn5toqxg360j3f4b5x01y1,GREFqkJN,2020-0188,2020-11-16,17:57:56,18:16:45,NA,incomplete,159,gender,3,1,left,A_F_14.jpg,C_F_02.jpg,A_M_09.jpg,left,660.6200000096578,true,high,false
GREFqkJN,3r6rzgk0yip7nifkjif6ljfzh4yvyd,3hmvi3qicn5toqxg360j3f4b5x01y1,GREFqkJN,2020-0188,2020-11-16,17:57:56,18:16:45,NA,incomplete,160,race,2,1,right,C_M_01.jpg,A_M_16.jpg,C_F_06.jpg,left,966.4049999846611,false,high,false
GREFqkJN,3r6rzgk0yip7nifkjif6ljfzh4yvyd,3hmvi3qicn5toqxg360j3f4b5x01y1,GREFqkJN,2020-0188,2020-11-16,17:57:56,18:16:45,NA,incomplete,161,race,2,1,right,C_M_10.jpg,A_M_07.jpg,C_F_11.jpg,left,925.7849999994505,false,high,false
GREFqkJN,3r6rzgk0yip7nifkjif6ljfzh4yvyd,3hmvi3qicn5toqxg360j3f4b5x01y1,GREFqkJN,2020-0188,2020-11-16,17:57:56,18:16:45,NA,incomplete,162,race,2,0,left,C_M_14.jpg,C_F_16.jpg,A_M_04.jpg,left,900.4150000109803,true,high,false
GREFqkJN,3r6rzgk0yip7nifkjif6ljfzh4yvyd,3hmvi3qicn5toqxg360j3f4b5x01y1,GREFqkJN,2020-0188,2020-11-16,17:57:56,18:16:45,NA,incomplete,163,race,2,1,right,C_M_15.jpg,A_M_07.jpg,C_F_14.jpg,right,956.2650000152644,true,high,false
GREFqkJN,3r6rzgk0yip7nifkjif6ljfzh4yvyd,3hmvi3qicn5toqxg360j3f4b5x01y1,GREFqkJN,2020-0188,2020-11-16,17:57:56,18:16:45,NA,incomplete,164,race,2,0,left,C_F_05.jpg,C_M_07.jpg,A_F_14.jpg,right,1074.1649999981746,false,high,false
GREFqkJN,3r6rzgk0yip7nifkjif6ljfzh4yvyd,3hmvi3qicn5toqxg360j3f4b5x01y1,GREFqkJN,2020-0188,2020-11-16,17:57:56,18:16:45,NA,incomplete,165,race,2,1,right,A_F_06.jpg,C_F_16.jpg,A_M_08.jpg,right,1339.63999999105,true,high,false
GREFqkJN,3r6rzgk0yip7nifkjif6ljfzh4yvyd,3hmvi3qicn5toqxg360j3f4b5x01y1,GREFqkJN,2020-0188,2020-11-16,17:57:56,18:16:45,NA,incomplete,166,race,2,1,right,A_F_02.jpg,C_F_09.jpg,A_M_07.jpg,right,937.9750000080094,true,high,false
GREFqkJN,3r6rzgk0yip7nifkjif6ljfzh4yvyd,3hmvi3qicn5toqxg360j3f4b5x01y1,GREFqkJN,2020-0188,2020-11-16,17:57:56,18:16:45,NA,incomplete,167,race,2,1,left,C_M_06.jpg,C_F_15.jpg,A_M_12.jpg,left,890.255000005709,true,high,false
GREFqkJN,3r6rzgk0yip7nifkjif6ljfzh4yvyd,3hmvi3qicn5toqxg360j3f4b5x01y1,GREFqkJN,2020-0188,2020-11-16,17:57:56,18:16:45,NA,incomplete,168,race,2,1,left,C_F_08.jpg,C_M_11.jpg,A_F_12.jpg,left,1082.6049999741372,true,high,false
GREFqkJN,3r6rzgk0yip7nifkjif6ljfzh4yvyd,3hmvi3qicn5toqxg360j3f4b5x01y1,GREFqkJN,2020-0188,2020-11-16,17:57:56,18:16:45,NA,incomplete,169,race,2,0,left,C_M_06.jpg,C_F_03.jpg,A_M_07.jpg,left,1140.7250000047497,true,high,false
GREFqkJN,3r6rzgk0yip7nifkjif6ljfzh4yvyd,3hmvi3qicn5toqxg360j3f4b5x01y1,GREFqkJN,2020-0188,2020-11-16,17:57:56,18:16:45,NA,incomplete,170,race,2,1,right,C_M_13.jpg,A_M_16.jpg,C_F_04.jpg,right,913.2550000213087,true,high,false
GREFqkJN,3r6rzgk0yip7nifkjif6ljfzh4yvyd,3hmvi3qicn5toqxg360j3f4b5x01y1,GREFqkJN,2020-0188,2020-11-16,17:57:56,18:16:45,NA,incomplete,171,race,2,0,left,A_M_11.jpg,A_F_08.jpg,C_M_16.jpg,left,1041.029999993043,true,high,false
GREFqkJN,3r6rzgk0yip7nifkjif6ljfzh4yvyd,3hmvi3qicn5toqxg360j3f4b5x01y1,GREFqkJN,2020-0188,2020-11-16,17:57:56,18:16:45,NA,incomplete,172,race,2,1,left,A_M_04.jpg,A_F_01.jpg,C_M_13.jpg,left,827.5199999916367,true,high,false
GREFqkJN,3r6rzgk0yip7nifkjif6ljfzh4yvyd,3hmvi3qicn5toqxg360j3f4b5x01y1,GREFqkJN,2020-0188,2020-11-16,17:57:56,18:16:45,NA,incomplete,173,race,2,1,left,C_F_03.jpg,C_M_11.jpg,A_F_02.jpg,left,1016.2700000219047,true,high,false
GREFqkJN,3r6rzgk0yip7nifkjif6ljfzh4yvyd,3hmvi3qicn5toqxg360j3f4b5x01y1,GREFqkJN,2020-0188,2020-11-16,17:57:56,18:16:45,NA,incomplete,174,race,2,0,right,C_M_14.jpg,A_M_03.jpg,C_F_07.jpg,right,1005.5649999994785,true,high,false
GREFqkJN,3r6rzgk0yip7nifkjif6ljfzh4yvyd,3hmvi3qicn5toqxg360j3f4b5x01y1,GREFqkJN,2020-0188,2020-11-16,17:57:56,18:16:45,NA,incomplete,175,race,2,1,left,A_M_16.jpg,A_F_09.jpg,C_M_01.jpg,left,1135.1450000074692,true,high,false
GREFqkJN,3r6rzgk0yip7nifkjif6ljfzh4yvyd,3hmvi3qicn5toqxg360j3f4b5x01y1,GREFqkJN,2020-0188,2020-11-16,17:57:56,18:16:45,NA,incomplete,176,race,2,0,right,A_F_02.jpg,C_F_01.jpg,A_M_10.jpg,right,1069.3350000074133,true,high,false
GREFqkJN,3r6rzgk0yip7nifkjif6ljfzh4yvyd,3hmvi3qicn5toqxg360j3f4b5x01y1,GREFqkJN,2020-0188,2020-11-16,17:57:56,18:16:45,NA,incomplete,177,race,2,1,left,C_M_11.jpg,C_F_04.jpg,A_M_08.jpg,left,1166.655000008177,true,high,false
GREFqkJN,3r6rzgk0yip7nifkjif6ljfzh4yvyd,3hmvi3qicn5toqxg360j3f4b5x01y1,GREFqkJN,2020-0188,2020-11-16,17:57:56,18:16:45,NA,incomplete,178,race,2,0,right,A_F_10.jpg,C_F_09.jpg,A_M_08.jpg,right,946.395000006305,true,high,false
GREFqkJN,3r6rzgk0yip7nifkjif6ljfzh4yvyd,3hmvi3qicn5toqxg360j3f4b5x01y1,GREFqkJN,2020-0188,2020-11-16,17:57:56,18:16:45,NA,incomplete,179,race,2,1,right,C_M_07.jpg,A_M_13.jpg,C_F_09.jpg,right,1298.7300000095274,true,high,false
GREFqkJN,3r6rzgk0yip7nifkjif6ljfzh4yvyd,3hmvi3qicn5toqxg360j3f4b5x01y1,GREFqkJN,2020-0188,2020-11-16,17:57:56,18:16:45,NA,incomplete,180,gender,3,1,left,C_M_11.jpg,A_M_12.jpg,C_F_13.jpg,left,1491.8150000157766,true,high,false
GREFqkJN,3r6rzgk0yip7nifkjif6ljfzh4yvyd,3hmvi3qicn5toqxg360j3f4b5x01y1,GREFqkJN,2020-0188,2020-11-16,17:57:56,18:16:45,NA,incomplete,181,gender,3,1,left,C_M_01.jpg,A_M_15.jpg,C_F_12.jpg,left,764.709999988554,true,high,false
GREFqkJN,3r6rzgk0yip7nifkjif6ljfzh4yvyd,3hmvi3qicn5toqxg360j3f4b5x01y1,GREFqkJN,2020-0188,2020-11-16,17:57:56,18:16:45,NA,incomplete,182,gender,3,1,right,C_M_14.jpg,C_F_09.jpg,A_M_13.jpg,right,964.3750000104774,true,high,false
GREFqkJN,3r6rzgk0yip7nifkjif6ljfzh4yvyd,3hmvi3qicn5toqxg360j3f4b5x01y1,GREFqkJN,2020-0188,2020-11-16,17:57:56,18:16:45,NA,incomplete,183,gender,3,0,left,C_F_07.jpg,A_F_14.jpg,C_M_08.jpg,left,1056.0650000115857,true,high,false
GREFqkJN,3r6rzgk0yip7nifkjif6ljfzh4yvyd,3hmvi3qicn5toqxg360j3f4b5x01y1,GREFqkJN,2020-0188,2020-11-16,17:57:56,18:16:45,NA,incomplete,184,gender,3,1,right,A_M_10.jpg,A_F_06.jpg,C_M_07.jpg,right,1433.8449999922886,true,high,false
GREFqkJN,3r6rzgk0yip7nifkjif6ljfzh4yvyd,3hmvi3qicn5toqxg360j3f4b5x01y1,GREFqkJN,2020-0188,2020-11-16,17:57:56,18:16:45,NA,incomplete,185,gender,3,1,right,A_M_16.jpg,A_F_05.jpg,C_M_09.jpg,right,836.3050000043586,true,high,false
GREFqkJN,3r6rzgk0yip7nifkjif6ljfzh4yvyd,3hmvi3qicn5toqxg360j3f4b5x01y1,GREFqkJN,2020-0188,2020-11-16,17:57:56,18:16:45,NA,incomplete,186,gender,3,1,left,C_F_12.jpg,A_F_01.jpg,C_M_14.jpg,left,1055.2300000272226,true,high,false
GREFqkJN,3r6rzgk0yip7nifkjif6ljfzh4yvyd,3hmvi3qicn5toqxg360j3f4b5x01y1,GREFqkJN,2020-0188,2020-11-16,17:57:56,18:16:45,NA,incomplete,187,gender,3,1,right,A_F_14.jpg,A_M_10.jpg,C_F_02.jpg,left,1257.4800000002142,false,high,false
GREFqkJN,3r6rzgk0yip7nifkjif6ljfzh4yvyd,3hmvi3qicn5toqxg360j3f4b5x01y1,GREFqkJN,2020-0188,2020-11-16,17:57:56,18:16:45,NA,incomplete,188,gender,3,1,left,C_F_02.jpg,A_F_08.jpg,C_M_11.jpg,left,1084.579999995185,true,high,false
GREFqkJN,3r6rzgk0yip7nifkjif6ljfzh4yvyd,3hmvi3qicn5toqxg360j3f4b5x01y1,GREFqkJN,2020-0188,2020-11-16,17:57:56,18:16:45,NA,incomplete,189,gender,3,1,right,A_F_15.jpg,A_M_08.jpg,C_F_01.jpg,right,934.175000002142,true,high,false
GREFqkJN,3r6rzgk0yip7nifkjif6ljfzh4yvyd,3hmvi3qicn5toqxg360j3f4b5x01y1,GREFqkJN,2020-0188,2020-11-16,17:57:56,18:16:45,NA,incomplete,190,gender,3,1,right,C_F_07.jpg,C_M_01.jpg,A_F_03.jpg,right,907.2100000048522,true,high,false
GREFqkJN,3r6rzgk0yip7nifkjif6ljfzh4yvyd,3hmvi3qicn5toqxg360j3f4b5x01y1,GREFqkJN,2020-0188,2020-11-16,17:57:56,18:16:45,NA,incomplete,191,gender,3,1,left,A_F_03.jpg,C_F_01.jpg,A_M_14.jpg,left,618.7650000210851,true,high,false
GREFqkJN,3r6rzgk0yip7nifkjif6ljfzh4yvyd,3hmvi3qicn5toqxg360j3f4b5x01y1,GREFqkJN,2020-0188,2020-11-16,17:57:56,18:16:45,NA,incomplete,192,gender,3,0,right,A_F_12.jpg,A_M_04.jpg,C_F_11.jpg,right,734.150000003865,true,high,false
GREFqkJN,3r6rzgk0yip7nifkjif6ljfzh4yvyd,3hmvi3qicn5toqxg360j3f4b5x01y1,GREFqkJN,2020-0188,2020-11-16,17:57:56,18:16:45,NA,incomplete,193,gender,3,1,left,C_M_15.jpg,A_M_07.jpg,C_F_16.jpg,left,966.1699999996927,true,high,false
GREFqkJN,3r6rzgk0yip7nifkjif6ljfzh4yvyd,3hmvi3qicn5toqxg360j3f4b5x01y1,GREFqkJN,2020-0188,2020-11-16,17:57:56,18:16:45,NA,incomplete,194,gender,3,1,right,A_M_02.jpg,A_F_03.jpg,C_M_07.jpg,right,810.9200000180863,true,high,false
GREFqkJN,3r6rzgk0yip7nifkjif6ljfzh4yvyd,3hmvi3qicn5toqxg360j3f4b5x01y1,GREFqkJN,2020-0188,2020-11-16,17:57:56,18:16:45,NA,incomplete,195,gender,3,1,left,A_F_13.jpg,C_F_10.jpg,A_M_16.jpg,left,1030.8149999764282,true,high,false
GREFqkJN,3r6rzgk0yip7nifkjif6ljfzh4yvyd,3hmvi3qicn5toqxg360j3f4b5x01y1,GREFqkJN,2020-0188,2020-11-16,17:57:56,18:16:45,NA,incomplete,196,gender,3,1,right,A_F_05.jpg,A_M_03.jpg,C_F_11.jpg,right,642.6550000032876,true,high,false
GREFqkJN,3r6rzgk0yip7nifkjif6ljfzh4yvyd,3hmvi3qicn5toqxg360j3f4b5x01y1,GREFqkJN,2020-0188,2020-11-16,17:57:56,18:16:45,NA,incomplete,197,gender,3,1,left,C_M_03.jpg,A_M_01.jpg,C_F_09.jpg,left,805.4400000255555,true,high,false
GREFqkJN,3r6rzgk0yip7nifkjif6ljfzh4yvyd,3hmvi3qicn5toqxg360j3f4b5x01y1,GREFqkJN,2020-0188,2020-11-16,17:57:56,18:16:45,NA,incomplete,198,gender,3,1,right,C_F_06.jpg,C_M_16.jpg,A_F_02.jpg,right,760.7650000136346,true,high,false
GREFqkJN,3r6rzgk0yip7nifkjif6ljfzh4yvyd,3hmvi3qicn5toqxg360j3f4b5x01y1,GREFqkJN,2020-0188,2020-11-16,17:57:56,18:16:45,NA,incomplete,199,gender,3,1,left,C_F_05.jpg,A_F_11.jpg,C_M_07.jpg,left,662.6350000151433,true,high,false
GREFqkJN,3r6rzgk0yip7nifkjif6ljfzh4yvyd,3hmvi3qicn5toqxg360j3f4b5x01y1,GREFqkJN,2020-0188,2020-11-16,17:57:56,18:16:45,NA,incomplete,200,race,2,1,left,A_F_11.jpg,A_M_05.jpg,C_F_12.jpg,right,1104.8099999898113,false,high,false
GREFqkJN,3r6rzgk0yip7nifkjif6ljfzh4yvyd,3hmvi3qicn5toqxg360j3f4b5x01y1,GREFqkJN,2020-0188,2020-11-16,17:57:56,18:16:45,NA,incomplete,201,race,2,1,right,C_F_12.jpg,A_F_10.jpg,C_M_13.jpg,left,762.0350000215694,false,high,false
GREFqkJN,3r6rzgk0yip7nifkjif6ljfzh4yvyd,3hmvi3qicn5toqxg360j3f4b5x01y1,GREFqkJN,2020-0188,2020-11-16,17:57:56,18:16:45,NA,incomplete,202,race,2,0,right,C_M_07.jpg,A_M_06.jpg,C_F_02.jpg,right,897.7350000059232,true,high,false
GREFqkJN,3r6rzgk0yip7nifkjif6ljfzh4yvyd,3hmvi3qicn5toqxg360j3f4b5x01y1,GREFqkJN,2020-0188,2020-11-16,17:57:56,18:16:45,NA,incomplete,203,race,2,1,right,A_F_04.jpg,C_F_16.jpg,A_M_11.jpg,left,983.299999992596,false,high,false
GREFqkJN,3r6rzgk0yip7nifkjif6ljfzh4yvyd,3hmvi3qicn5toqxg360j3f4b5x01y1,GREFqkJN,2020-0188,2020-11-16,17:57:56,18:16:45,NA,incomplete,204,race,2,1,right,C_F_16.jpg,A_F_13.jpg,C_M_15.jpg,right,1100.1549999928102,true,high,false
GREFqkJN,3r6rzgk0yip7nifkjif6ljfzh4yvyd,3hmvi3qicn5toqxg360j3f4b5x01y1,GREFqkJN,2020-0188,2020-11-16,17:57:56,18:16:45,NA,incomplete,205,race,2,1,left,A_M_05.jpg,A_F_07.jpg,C_M_02.jpg,left,764.6200000017416,true,high,false
GREFqkJN,3r6rzgk0yip7nifkjif6ljfzh4yvyd,3hmvi3qicn5toqxg360j3f4b5x01y1,GREFqkJN,2020-0188,2020-11-16,17:57:56,18:16:45,NA,incomplete,206,race,2,0,left,A_F_09.jpg,A_M_05.jpg,C_F_06.jpg,left,1228.1300000031479,true,high,false
GREFqkJN,3r6rzgk0yip7nifkjif6ljfzh4yvyd,3hmvi3qicn5toqxg360j3f4b5x01y1,GREFqkJN,2020-0188,2020-11-16,17:57:56,18:16:45,NA,incomplete,207,race,2,1,right,C_F_03.jpg,A_F_07.jpg,C_M_02.jpg,right,872.4199999996927,true,high,false
GREFqkJN,3r6rzgk0yip7nifkjif6ljfzh4yvyd,3hmvi3qicn5toqxg360j3f4b5x01y1,GREFqkJN,2020-0188,2020-11-16,17:57:56,18:16:45,NA,incomplete,208,race,2,1,left,A_M_10.jpg,A_F_07.jpg,C_M_12.jpg,left,823.5299999942072,true,high,false
GREFqkJN,3r6rzgk0yip7nifkjif6ljfzh4yvyd,3hmvi3qicn5toqxg360j3f4b5x01y1,GREFqkJN,2020-0188,2020-11-16,17:57:56,18:16:45,NA,incomplete,209,race,2,1,left,A_M_02.jpg,A_F_10.jpg,C_M_06.jpg,left,753.9849999884609,true,high,false
GREFqkJN,3r6rzgk0yip7nifkjif6ljfzh4yvyd,3hmvi3qicn5toqxg360j3f4b5x01y1,GREFqkJN,2020-0188,2020-11-16,17:57:56,18:16:45,NA,incomplete,210,race,2,1,left,A_F_08.jpg,A_M_07.jpg,C_F_04.jpg,left,714.4000000262167,true,high,false
GREFqkJN,3r6rzgk0yip7nifkjif6ljfzh4yvyd,3hmvi3qicn5toqxg360j3f4b5x01y1,GREFqkJN,2020-0188,2020-11-16,17:57:56,18:16:45,NA,incomplete,211,race,2,0,left,C_F_09.jpg,C_M_16.jpg,A_F_04.jpg,left,777.58999998332,true,high,false
GREFqkJN,3r6rzgk0yip7nifkjif6ljfzh4yvyd,3hmvi3qicn5toqxg360j3f4b5x01y1,GREFqkJN,2020-0188,2020-11-16,17:57:56,18:16:45,NA,incomplete,212,race,2,1,right,C_F_12.jpg,A_F_09.jpg,C_M_06.jpg,right,926.0950000025332,true,high,false
GREFqkJN,3r6rzgk0yip7nifkjif6ljfzh4yvyd,3hmvi3qicn5toqxg360j3f4b5x01y1,GREFqkJN,2020-0188,2020-11-16,17:57:56,18:16:45,NA,incomplete,213,race,2,1,left,A_F_03.jpg,A_M_16.jpg,C_F_07.jpg,left,804.7650000080466,true,high,false
GREFqkJN,3r6rzgk0yip7nifkjif6ljfzh4yvyd,3hmvi3qicn5toqxg360j3f4b5x01y1,GREFqkJN,2020-0188,2020-11-16,17:57:56,18:16:45,NA,incomplete,214,race,2,1,left,C_M_05.jpg,C_F_11.jpg,A_M_13.jpg,left,976.490000000922,true,high,false
GREFqkJN,3r6rzgk0yip7nifkjif6ljfzh4yvyd,3hmvi3qicn5toqxg360j3f4b5x01y1,GREFqkJN,2020-0188,2020-11-16,17:57:56,18:16:45,NA,incomplete,215,race,2,1,left,A_F_07.jpg,A_M_15.jpg,C_F_04.jpg,left,854.9400000192691,true,high,false
GREFqkJN,3r6rzgk0yip7nifkjif6ljfzh4yvyd,3hmvi3qicn5toqxg360j3f4b5x01y1,GREFqkJN,2020-0188,2020-11-16,17:57:56,18:16:45,NA,incomplete,216,race,2,1,left,C_F_02.jpg,C_M_04.jpg,A_F_10.jpg,left,912.1900000027381,true,high,false
GREFqkJN,3r6rzgk0yip7nifkjif6ljfzh4yvyd,3hmvi3qicn5toqxg360j3f4b5x01y1,GREFqkJN,2020-0188,2020-11-16,17:57:56,18:16:45,NA,incomplete,217,race,2,1,right,A_M_15.jpg,C_M_03.jpg,A_F_11.jpg,right,880.9999999939464,true,high,false
GREFqkJN,3r6rzgk0yip7nifkjif6ljfzh4yvyd,3hmvi3qicn5toqxg360j3f4b5x01y1,GREFqkJN,2020-0188,2020-11-16,17:57:56,18:16:45,NA,incomplete,218,race,2,1,left,C_M_01.jpg,C_F_12.jpg,A_M_13.jpg,left,985.1849999977276,true,high,false
GREFqkJN,3r6rzgk0yip7nifkjif6ljfzh4yvyd,3hmvi3qicn5toqxg360j3f4b5x01y1,GREFqkJN,2020-0188,2020-11-16,17:57:56,18:16:45,NA,incomplete,219,race,2,1,left,A_M_15.jpg,A_F_05.jpg,C_M_13.jpg,left,989.770000014687,true,high,false
GREFqkJN,3r6rzgk0yip7nifkjif6ljfzh4yvyd,3hmvi3qicn5toqxg360j3f4b5x01y1,GREFqkJN,2020-0188,2020-11-16,17:57:56,18:16:45,NA,incomplete,220,gender,3,1,right,C_F_08.jpg,C_M_11.jpg,A_F_05.jpg,right,1242.4300000129733,true,high,false
GREFqkJN,3r6rzgk0yip7nifkjif6ljfzh4yvyd,3hmvi3qicn5toqxg360j3f4b5x01y1,GREFqkJN,2020-0188,2020-11-16,17:57:56,18:16:45,NA,incomplete,221,gender,3,1,left,C_M_04.jpg,A_M_05.jpg,C_F_03.jpg,right,1158.0350000003818,false,high,false
GREFqkJN,3r6rzgk0yip7nifkjif6ljfzh4yvyd,3hmvi3qicn5toqxg360j3f4b5x01y1,GREFqkJN,2020-0188,2020-11-16,17:57:56,18:16:45,NA,incomplete,222,gender,3,1,left,C_F_11.jpg,A_F_02.jpg,C_M_15.jpg,right,1028.1749999849126,false,high,false
GREFqkJN,3r6rzgk0yip7nifkjif6ljfzh4yvyd,3hmvi3qicn5toqxg360j3f4b5x01y1,GREFqkJN,2020-0188,2020-11-16,17:57:56,18:16:45,NA,incomplete,223,gender,3,1,left,C_M_04.jpg,A_M_10.jpg,C_F_05.jpg,left,1007.7149999851827,true,high,false
GREFqkJN,3r6rzgk0yip7nifkjif6ljfzh4yvyd,3hmvi3qicn5toqxg360j3f4b5x01y1,GREFqkJN,2020-0188,2020-11-16,17:57:56,18:16:45,NA,incomplete,224,gender,3,1,right,A_F_15.jpg,A_M_06.jpg,C_F_12.jpg,right,802.4699999950826,true,high,false
GREFqkJN,3r6rzgk0yip7nifkjif6ljfzh4yvyd,3hmvi3qicn5toqxg360j3f4b5x01y1,GREFqkJN,2020-0188,2020-11-16,17:57:56,18:16:45,NA,incomplete,225,gender,3,0,left,A_F_02.jpg,C_F_15.jpg,A_M_12.jpg,left,710.6550000025891,true,high,false
GREFqkJN,3r6rzgk0yip7nifkjif6ljfzh4yvyd,3hmvi3qicn5toqxg360j3f4b5x01y1,GREFqkJN,2020-0188,2020-11-16,17:57:56,18:16:45,NA,incomplete,226,gender,3,1,right,C_M_09.jpg,C_F_08.jpg,A_M_11.jpg,right,551.4050000056159,true,high,false
GREFqkJN,3r6rzgk0yip7nifkjif6ljfzh4yvyd,3hmvi3qicn5toqxg360j3f4b5x01y1,GREFqkJN,2020-0188,2020-11-16,17:57:56,18:16:45,NA,incomplete,227,gender,3,1,left,A_F_02.jpg,C_F_16.jpg,A_M_12.jpg,left,876.494999974966,true,high,false
GREFqkJN,3r6rzgk0yip7nifkjif6ljfzh4yvyd,3hmvi3qicn5toqxg360j3f4b5x01y1,GREFqkJN,2020-0188,2020-11-16,17:57:56,18:16:45,NA,incomplete,228,gender,3,1,right,C_F_15.jpg,C_M_10.jpg,A_F_08.jpg,right,765.4699999839067,true,high,false
GREFqkJN,3r6rzgk0yip7nifkjif6ljfzh4yvyd,3hmvi3qicn5toqxg360j3f4b5x01y1,GREFqkJN,2020-0188,2020-11-16,17:57:56,18:16:45,NA,incomplete,229,gender,3,0,left,C_F_04.jpg,A_F_11.jpg,C_M_02.jpg,left,747.2700000216719,true,high,false
GREFqkJN,3r6rzgk0yip7nifkjif6ljfzh4yvyd,3hmvi3qicn5toqxg360j3f4b5x01y1,GREFqkJN,2020-0188,2020-11-16,17:57:56,18:16:45,NA,incomplete,230,gender,3,1,right,C_M_07.jpg,C_F_04.jpg,A_M_14.jpg,right,827.7600000146776,true,high,false
GREFqkJN,3r6rzgk0yip7nifkjif6ljfzh4yvyd,3hmvi3qicn5toqxg360j3f4b5x01y1,GREFqkJN,2020-0188,2020-11-16,17:57:56,18:16:45,NA,incomplete,231,gender,3,1,left,C_F_02.jpg,A_F_10.jpg,C_M_07.jpg,left,277.3799999849871,true,high,false
GREFqkJN,3r6rzgk0yip7nifkjif6ljfzh4yvyd,3hmvi3qicn5toqxg360j3f4b5x01y1,GREFqkJN,2020-0188,2020-11-16,17:57:56,18:16:45,NA,incomplete,232,gender,3,0,left,A_M_03.jpg,C_M_06.jpg,A_F_01.jpg,left,750.3800000122283,true,high,false
GREFqkJN,3r6rzgk0yip7nifkjif6ljfzh4yvyd,3hmvi3qicn5toqxg360j3f4b5x01y1,GREFqkJN,2020-0188,2020-11-16,17:57:56,18:16:45,NA,incomplete,233,gender,3,1,left,C_F_05.jpg,A_F_07.jpg,C_M_03.jpg,left,732.8050000069197,true,high,false
GREFqkJN,3r6rzgk0yip7nifkjif6ljfzh4yvyd,3hmvi3qicn5toqxg360j3f4b5x01y1,GREFqkJN,2020-0188,2020-11-16,17:57:56,18:16:45,NA,incomplete,234,gender,3,1,right,A_M_13.jpg,A_F_01.jpg,C_M_06.jpg,right,1318.200000008801,true,high,false
GREFqkJN,3r6rzgk0yip7nifkjif6ljfzh4yvyd,3hmvi3qicn5toqxg360j3f4b5x01y1,GREFqkJN,2020-0188,2020-11-16,17:57:56,18:16:45,NA,incomplete,235,gender,3,1,left,A_M_10.jpg,C_M_07.jpg,A_F_16.jpg,left,740.300000004936,true,high,false
GREFqkJN,3r6rzgk0yip7nifkjif6ljfzh4yvyd,3hmvi3qicn5toqxg360j3f4b5x01y1,GREFqkJN,2020-0188,2020-11-16,17:57:56,18:16:45,NA,incomplete,236,gender,3,1,left,A_M_09.jpg,C_M_10.jpg,A_F_14.jpg,left,753.8749999948777,true,high,false
GREFqkJN,3r6rzgk0yip7nifkjif6ljfzh4yvyd,3hmvi3qicn5toqxg360j3f4b5x01y1,GREFqkJN,2020-0188,2020-11-16,17:57:56,18:16:45,NA,incomplete,237,gender,3,0,right,A_F_10.jpg,A_M_15.jpg,C_F_09.jpg,right,719.7699999960605,true,high,false
GREFqkJN,3r6rzgk0yip7nifkjif6ljfzh4yvyd,3hmvi3qicn5toqxg360j3f4b5x01y1,GREFqkJN,2020-0188,2020-11-16,17:57:56,18:16:45,NA,incomplete,238,gender,3,1,left,A_F_11.jpg,C_F_07.jpg,A_M_05.jpg,left,790.9799999906681,true,high,false
GREFqkJN,3r6rzgk0yip7nifkjif6ljfzh4yvyd,3hmvi3qicn5toqxg360j3f4b5x01y1,GREFqkJN,2020-0188,2020-11-16,17:57:56,18:16:45,NA,incomplete,239,gender,3,1,left,A_M_10.jpg,C_M_16.jpg,A_F_15.jpg,left,1093.0950000183657,true,high,false
GREFqkJN,3r6rzgk0yip7nifkjif6ljfzh4yvyd,3hmvi3qicn5toqxg360j3f4b5x01y1,GREFqkJN,2020-0188,2020-11-16,17:57:56,18:16:45,NA,NA,instruction example,filling,NA,NA,NA,Green_Triangle_Chess_1.jpg,Purple_Plus_Chess_3.jpg,Blue_Triangle_Dots_4.jpg,NA,NA,NA,NA,undefined
GREFqkJN,3r6rzgk0yip7nifkjif6ljfzh4yvyd,3hmvi3qicn5toqxg360j3f4b5x01y1,GREFqkJN,2020-0188,2020-11-16,17:57:56,18:16:45,NA,NA,instruction example,filling,NA,NA,NA,Green_Triangle_Stripes_2.jpg,Blue_Triangle_Chess_1.jpg,Red_Star_Stripes_3.jpg,NA,NA,NA,NA,undefined
GREFqkJN,3r6rzgk0yip7nifkjif6ljfzh4yvyd,3hmvi3qicn5toqxg360j3f4b5x01y1,GREFqkJN,2020-0188,2020-11-16,17:57:56,18:16:45,NA,NA,instruction example,filling,NA,NA,NA,C_F_14.jpg,C_M_02.jpg,A_F_10.jpg,NA,NA,NA,NA,undefined
GREFqkJN,3r6rzgk0yip7nifkjif6ljfzh4yvyd,3hmvi3qicn5toqxg360j3f4b5x01y1,GREFqkJN,2020-0188,2020-11-16,17:57:56,18:16:45,NA,NA,instruction example,filling,NA,NA,NA,A_F_13.jpg,C_F_02.jpg,A_M_16.jpg,NA,NA,NA,NA,undefined
