workerId,hitId,assignmentId,subject,studyid,exp_date,exp_start,exp_end,time_start,time_end,trial,type,sequence,reward_validity,answer,image_top,image_left,image_right,response,response_time,response_acc,volatility,practice
eI7D9FKk,32204agabep2jqz0kncwzihmy16hgu,3ifs6q0hjmw7sah5c7t0dsxvbwiis3,eI7D9FKk,2020-0188,2020-06-16,17:57:36,18:11:18,NA,incomplete,0,shape,0,1,right,Green_Triangle_Dots_4.jpg,Green_Star_Stripes_3.jpg,Purple_Triangle_Grid_2.jpg,left,1390.415000030771,false,NA,true
eI7D9FKk,32204agabep2jqz0kncwzihmy16hgu,3ifs6q0hjmw7sah5c7t0dsxvbwiis3,eI7D9FKk,2020-0188,2020-06-16,17:57:36,18:11:18,NA,incomplete,1,shape,0,1,right,Green_Star_Grid_2.jpg,Green_Plus_Dots_4.jpg,Purple_Star_Chess_1.jpg,right,1586.745000036899,true,NA,true
eI7D9FKk,32204agabep2jqz0kncwzihmy16hgu,3ifs6q0hjmw7sah5c7t0dsxvbwiis3,eI7D9FKk,2020-0188,2020-06-16,17:57:36,18:11:18,NA,incomplete,2,shape,0,1,right,Blue_Plus_Dots_2.jpg,Blue_Circle_Grid_1.jpg,Green_Plus_Chess_4.jpg,right,920.2649999642745,true,NA,true
eI7D9FKk,32204agabep2jqz0kncwzihmy16hgu,3ifs6q0hjmw7sah5c7t0dsxvbwiis3,eI7D9FKk,2020-0188,2020-06-16,17:57:36,18:11:18,NA,incomplete,3,shape,0,1,right,Green_Triangle_Dots_3.jpg,Green_Plus_Chess_2.jpg,Blue_Triangle_Grid_1.jpg,right,1033.054999948945,true,NA,true
eI7D9FKk,32204agabep2jqz0kncwzihmy16hgu,3ifs6q0hjmw7sah5c7t0dsxvbwiis3,eI7D9FKk,2020-0188,2020-06-16,17:57:36,18:11:18,NA,incomplete,4,shape,0,0,right,Red_Plus_Grid_1.jpg,Red_Triangle_Dots_4.jpg,Purple_Plus_Stripes_2.jpg,right,1325.0500000431202,true,NA,true
eI7D9FKk,32204agabep2jqz0kncwzihmy16hgu,3ifs6q0hjmw7sah5c7t0dsxvbwiis3,eI7D9FKk,2020-0188,2020-06-16,17:57:36,18:11:18,NA,incomplete,5,shape,0,1,right,Purple_Triangle_Chess_4.jpg,Purple_Star_Stripes_3.jpg,Blue_Triangle_Dots_1.jpg,right,1400.4899999708869,true,NA,true
eI7D9FKk,32204agabep2jqz0kncwzihmy16hgu,3ifs6q0hjmw7sah5c7t0dsxvbwiis3,eI7D9FKk,2020-0188,2020-06-16,17:57:36,18:11:18,NA,incomplete,6,shape,0,1,right,Purple_Star_Dots_4.jpg,Purple_Triangle_Chess_2.jpg,Green_Star_Stripes_3.jpg,right,1110.1450000423938,true,NA,true
eI7D9FKk,32204agabep2jqz0kncwzihmy16hgu,3ifs6q0hjmw7sah5c7t0dsxvbwiis3,eI7D9FKk,2020-0188,2020-06-16,17:57:36,18:11:18,NA,incomplete,7,shape,0,1,left,Green_Circle_Stripes_1.jpg,Red_Circle_Dots_4.jpg,Green_Star_Grid_3.jpg,left,1381.180000025779,true,NA,true
eI7D9FKk,32204agabep2jqz0kncwzihmy16hgu,3ifs6q0hjmw7sah5c7t0dsxvbwiis3,eI7D9FKk,2020-0188,2020-06-16,17:57:36,18:11:18,NA,incomplete,8,shape,0,1,left,Green_Triangle_Grid_2.jpg,Purple_Triangle_Stripes_3.jpg,Green_Plus_Chess_1.jpg,left,1099.3000000016764,true,NA,true
eI7D9FKk,32204agabep2jqz0kncwzihmy16hgu,3ifs6q0hjmw7sah5c7t0dsxvbwiis3,eI7D9FKk,2020-0188,2020-06-16,17:57:36,18:11:18,NA,incomplete,9,shape,0,1,right,Green_Circle_Dots_3.jpg,Green_Plus_Stripes_4.jpg,Blue_Circle_Chess_2.jpg,right,1131.4000000129454,true,NA,true
eI7D9FKk,32204agabep2jqz0kncwzihmy16hgu,3ifs6q0hjmw7sah5c7t0dsxvbwiis3,eI7D9FKk,2020-0188,2020-06-16,17:57:36,18:11:18,NA,incomplete,10,shape,0,0,left,Green_Triangle_Stripes_4.jpg,Purple_Triangle_Chess_1.jpg,Green_Plus_Grid_3.jpg,left,1178.5800000070594,true,NA,true
eI7D9FKk,32204agabep2jqz0kncwzihmy16hgu,3ifs6q0hjmw7sah5c7t0dsxvbwiis3,eI7D9FKk,2020-0188,2020-06-16,17:57:36,18:11:18,NA,incomplete,11,shape,0,1,right,Purple_Circle_Stripes_3.jpg,Purple_Triangle_Chess_1.jpg,Blue_Circle_Grid_4.jpg,right,1144.5900000398979,true,NA,true
eI7D9FKk,32204agabep2jqz0kncwzihmy16hgu,3ifs6q0hjmw7sah5c7t0dsxvbwiis3,eI7D9FKk,2020-0188,2020-06-16,17:57:36,18:11:18,NA,incomplete,12,shape,0,1,left,Purple_Star_Chess_2.jpg,Red_Star_Dots_4.jpg,Purple_Plus_Grid_1.jpg,left,1038.5950000490993,true,NA,true
eI7D9FKk,32204agabep2jqz0kncwzihmy16hgu,3ifs6q0hjmw7sah5c7t0dsxvbwiis3,eI7D9FKk,2020-0188,2020-06-16,17:57:36,18:11:18,NA,incomplete,13,shape,0,1,right,Red_Plus_Stripes_1.jpg,Red_Triangle_Chess_2.jpg,Blue_Plus_Grid_3.jpg,right,1185.4300000122748,true,NA,true
eI7D9FKk,32204agabep2jqz0kncwzihmy16hgu,3ifs6q0hjmw7sah5c7t0dsxvbwiis3,eI7D9FKk,2020-0188,2020-06-16,17:57:36,18:11:18,NA,incomplete,14,shape,0,1,right,Blue_Triangle_Chess_2.jpg,Blue_Plus_Dots_1.jpg,Green_Triangle_Stripes_3.jpg,right,1177.075000014156,true,NA,true
eI7D9FKk,32204agabep2jqz0kncwzihmy16hgu,3ifs6q0hjmw7sah5c7t0dsxvbwiis3,eI7D9FKk,2020-0188,2020-06-16,17:57:36,18:11:18,NA,incomplete,15,shape,0,1,right,Green_Star_Chess_4.jpg,Green_Circle_Dots_3.jpg,Blue_Star_Stripes_1.jpg,right,1276.7150000436231,true,NA,true
eI7D9FKk,32204agabep2jqz0kncwzihmy16hgu,3ifs6q0hjmw7sah5c7t0dsxvbwiis3,eI7D9FKk,2020-0188,2020-06-16,17:57:36,18:11:18,NA,incomplete,16,shape,0,1,left,Purple_Triangle_Stripes_2.jpg,Red_Triangle_Grid_1.jpg,Purple_Star_Chess_3.jpg,right,1181.8199999979697,false,NA,true
eI7D9FKk,32204agabep2jqz0kncwzihmy16hgu,3ifs6q0hjmw7sah5c7t0dsxvbwiis3,eI7D9FKk,2020-0188,2020-06-16,17:57:36,18:11:18,NA,incomplete,17,shape,0,1,right,Blue_Star_Stripes_2.jpg,Blue_Circle_Dots_3.jpg,Purple_Star_Chess_4.jpg,right,1058.1349999993108,true,NA,true
eI7D9FKk,32204agabep2jqz0kncwzihmy16hgu,3ifs6q0hjmw7sah5c7t0dsxvbwiis3,eI7D9FKk,2020-0188,2020-06-16,17:57:36,18:11:18,NA,incomplete,18,shape,0,1,right,Purple_Triangle_Chess_3.jpg,Purple_Plus_Grid_4.jpg,Green_Triangle_Stripes_2.jpg,right,1151.8599999835715,true,NA,true
eI7D9FKk,32204agabep2jqz0kncwzihmy16hgu,3ifs6q0hjmw7sah5c7t0dsxvbwiis3,eI7D9FKk,2020-0188,2020-06-16,17:57:36,18:11:18,NA,incomplete,19,shape,0,0,left,Purple_Circle_Stripes_1.jpg,Red_Circle_Chess_3.jpg,Purple_Plus_Dots_2.jpg,left,1015.9599999897182,true,NA,true
eI7D9FKk,32204agabep2jqz0kncwzihmy16hgu,3ifs6q0hjmw7sah5c7t0dsxvbwiis3,eI7D9FKk,2020-0188,2020-06-16,17:57:36,18:11:18,NA,incomplete,20,color,1,1,right,Purple_Circle_Dots_1.jpg,Green_Circle_Chess_3.jpg,Purple_Star_Grid_2.jpg,right,1253.9200000464916,true,NA,true
eI7D9FKk,32204agabep2jqz0kncwzihmy16hgu,3ifs6q0hjmw7sah5c7t0dsxvbwiis3,eI7D9FKk,2020-0188,2020-06-16,17:57:36,18:11:18,NA,incomplete,21,color,1,0,left,Blue_Plus_Stripes_2.jpg,Blue_Triangle_Chess_4.jpg,Red_Plus_Dots_3.jpg,left,1337.3849999625236,true,NA,true
eI7D9FKk,32204agabep2jqz0kncwzihmy16hgu,3ifs6q0hjmw7sah5c7t0dsxvbwiis3,eI7D9FKk,2020-0188,2020-06-16,17:57:36,18:11:18,NA,incomplete,22,color,1,0,left,Green_Circle_Stripes_2.jpg,Green_Star_Dots_3.jpg,Purple_Circle_Chess_4.jpg,left,1328.0300000333227,true,NA,true
eI7D9FKk,32204agabep2jqz0kncwzihmy16hgu,3ifs6q0hjmw7sah5c7t0dsxvbwiis3,eI7D9FKk,2020-0188,2020-06-16,17:57:36,18:11:18,NA,incomplete,23,color,1,0,right,Blue_Star_Grid_2.jpg,Red_Star_Dots_1.jpg,Blue_Plus_Stripes_4.jpg,right,862.8150000004098,true,NA,true
eI7D9FKk,32204agabep2jqz0kncwzihmy16hgu,3ifs6q0hjmw7sah5c7t0dsxvbwiis3,eI7D9FKk,2020-0188,2020-06-16,17:57:36,18:11:18,NA,incomplete,24,color,1,0,left,Purple_Plus_Chess_4.jpg,Purple_Star_Dots_2.jpg,Green_Plus_Stripes_3.jpg,left,1296.970000024885,true,NA,true
eI7D9FKk,32204agabep2jqz0kncwzihmy16hgu,3ifs6q0hjmw7sah5c7t0dsxvbwiis3,eI7D9FKk,2020-0188,2020-06-16,17:57:36,18:11:18,NA,incomplete,25,color,1,1,right,Green_Triangle_Grid_1.jpg,Purple_Triangle_Chess_2.jpg,Green_Circle_Dots_3.jpg,right,1162.499999976717,true,NA,true
eI7D9FKk,32204agabep2jqz0kncwzihmy16hgu,3ifs6q0hjmw7sah5c7t0dsxvbwiis3,eI7D9FKk,2020-0188,2020-06-16,17:57:36,18:11:18,NA,incomplete,26,color,1,1,left,Red_Plus_Grid_2.jpg,Red_Triangle_Chess_3.jpg,Blue_Plus_Dots_1.jpg,left,895.7800000207499,true,NA,true
eI7D9FKk,32204agabep2jqz0kncwzihmy16hgu,3ifs6q0hjmw7sah5c7t0dsxvbwiis3,eI7D9FKk,2020-0188,2020-06-16,17:57:36,18:11:18,NA,incomplete,27,color,1,1,left,Green_Triangle_Stripes_2.jpg,Green_Plus_Grid_1.jpg,Purple_Triangle_Chess_3.jpg,right,912.5249999924563,false,NA,true
eI7D9FKk,32204agabep2jqz0kncwzihmy16hgu,3ifs6q0hjmw7sah5c7t0dsxvbwiis3,eI7D9FKk,2020-0188,2020-06-16,17:57:36,18:11:18,NA,incomplete,28,color,1,1,left,Blue_Circle_Stripes_1.jpg,Blue_Star_Grid_4.jpg,Purple_Circle_Dots_3.jpg,left,1456.194999977015,true,NA,true
eI7D9FKk,32204agabep2jqz0kncwzihmy16hgu,3ifs6q0hjmw7sah5c7t0dsxvbwiis3,eI7D9FKk,2020-0188,2020-06-16,17:57:36,18:11:18,NA,incomplete,29,color,1,1,right,Red_Plus_Grid_3.jpg,Purple_Plus_Chess_2.jpg,Red_Circle_Dots_4.jpg,right,1194.7849999996834,true,NA,true
eI7D9FKk,32204agabep2jqz0kncwzihmy16hgu,3ifs6q0hjmw7sah5c7t0dsxvbwiis3,eI7D9FKk,2020-0188,2020-06-16,17:57:36,18:11:18,NA,incomplete,30,color,1,1,left,Red_Star_Grid_1.jpg,Red_Triangle_Stripes_3.jpg,Blue_Star_Chess_2.jpg,left,1328.235000022687,true,NA,true
eI7D9FKk,32204agabep2jqz0kncwzihmy16hgu,3ifs6q0hjmw7sah5c7t0dsxvbwiis3,eI7D9FKk,2020-0188,2020-06-16,17:57:36,18:11:18,NA,incomplete,31,color,1,1,right,Green_Triangle_Stripes_3.jpg,Red_Triangle_Chess_1.jpg,Green_Plus_Dots_4.jpg,right,1032.500000030268,true,NA,true
eI7D9FKk,32204agabep2jqz0kncwzihmy16hgu,3ifs6q0hjmw7sah5c7t0dsxvbwiis3,eI7D9FKk,2020-0188,2020-06-16,17:57:36,18:11:18,NA,incomplete,32,color,1,1,left,Blue_Plus_Stripes_4.jpg,Blue_Circle_Chess_1.jpg,Purple_Plus_Dots_2.jpg,left,1273.6199999926612,true,NA,true
eI7D9FKk,32204agabep2jqz0kncwzihmy16hgu,3ifs6q0hjmw7sah5c7t0dsxvbwiis3,eI7D9FKk,2020-0188,2020-06-16,17:57:36,18:11:18,NA,incomplete,33,color,1,0,right,Red_Plus_Stripes_2.jpg,Purple_Plus_Chess_3.jpg,Red_Star_Grid_4.jpg,right,1020.8049999782816,true,NA,true
eI7D9FKk,32204agabep2jqz0kncwzihmy16hgu,3ifs6q0hjmw7sah5c7t0dsxvbwiis3,eI7D9FKk,2020-0188,2020-06-16,17:57:36,18:11:18,NA,incomplete,34,color,1,1,left,Blue_Circle_Dots_1.jpg,Blue_Triangle_Chess_4.jpg,Purple_Circle_Grid_3.jpg,left,1279.4899999862537,true,NA,true
eI7D9FKk,32204agabep2jqz0kncwzihmy16hgu,3ifs6q0hjmw7sah5c7t0dsxvbwiis3,eI7D9FKk,2020-0188,2020-06-16,17:57:36,18:11:18,NA,incomplete,35,color,1,1,right,Blue_Triangle_Grid_2.jpg,Green_Triangle_Stripes_3.jpg,Blue_Plus_Dots_4.jpg,right,978.739999991376,true,NA,true
eI7D9FKk,32204agabep2jqz0kncwzihmy16hgu,3ifs6q0hjmw7sah5c7t0dsxvbwiis3,eI7D9FKk,2020-0188,2020-06-16,17:57:36,18:11:18,NA,incomplete,36,color,1,1,right,Red_Circle_Chess_3.jpg,Purple_Circle_Stripes_2.jpg,Red_Star_Grid_1.jpg,right,1621.0250000003725,true,NA,true
eI7D9FKk,32204agabep2jqz0kncwzihmy16hgu,3ifs6q0hjmw7sah5c7t0dsxvbwiis3,eI7D9FKk,2020-0188,2020-06-16,17:57:36,18:11:18,NA,incomplete,37,color,1,1,left,Blue_Star_Stripes_2.jpg,Blue_Circle_Grid_3.jpg,Purple_Star_Chess_1.jpg,left,1240.445000003092,true,NA,true
eI7D9FKk,32204agabep2jqz0kncwzihmy16hgu,3ifs6q0hjmw7sah5c7t0dsxvbwiis3,eI7D9FKk,2020-0188,2020-06-16,17:57:36,18:11:18,NA,incomplete,38,color,1,1,right,Green_Plus_Stripes_1.jpg,Red_Plus_Chess_4.jpg,Green_Triangle_Grid_2.jpg,right,1044.095000019297,true,NA,true
eI7D9FKk,32204agabep2jqz0kncwzihmy16hgu,3ifs6q0hjmw7sah5c7t0dsxvbwiis3,eI7D9FKk,2020-0188,2020-06-16,17:57:36,18:11:18,NA,incomplete,39,color,1,1,left,Purple_Plus_Stripes_3.jpg,Purple_Star_Dots_4.jpg,Blue_Plus_Chess_1.jpg,left,986.5349999745376,true,NA,true
eI7D9FKk,32204agabep2jqz0kncwzihmy16hgu,3ifs6q0hjmw7sah5c7t0dsxvbwiis3,eI7D9FKk,2020-0188,2020-06-16,17:57:36,18:11:18,NA,incomplete,0,shape,0,0,right,Blue_Triangle_Dots_2.jpg,Blue_Plus_Stripes_3.jpg,Purple_Triangle_Chess_4.jpg,right,936.199999996461,true,high,false
eI7D9FKk,32204agabep2jqz0kncwzihmy16hgu,3ifs6q0hjmw7sah5c7t0dsxvbwiis3,eI7D9FKk,2020-0188,2020-06-16,17:57:36,18:11:18,NA,incomplete,1,shape,0,1,right,Red_Circle_Dots_1.jpg,Red_Star_Chess_3.jpg,Green_Circle_Stripes_2.jpg,right,1199.8900000471622,true,high,false
eI7D9FKk,32204agabep2jqz0kncwzihmy16hgu,3ifs6q0hjmw7sah5c7t0dsxvbwiis3,eI7D9FKk,2020-0188,2020-06-16,17:57:36,18:11:18,NA,incomplete,2,shape,0,1,left,Green_Triangle_Stripes_4.jpg,Blue_Triangle_Chess_2.jpg,Green_Plus_Dots_3.jpg,left,1118.0900000035763,true,high,false
eI7D9FKk,32204agabep2jqz0kncwzihmy16hgu,3ifs6q0hjmw7sah5c7t0dsxvbwiis3,eI7D9FKk,2020-0188,2020-06-16,17:57:36,18:11:18,NA,incomplete,3,shape,0,1,left,Blue_Triangle_Chess_2.jpg,Green_Triangle_Dots_1.jpg,Blue_Circle_Stripes_4.jpg,left,932.024999987334,true,high,false
eI7D9FKk,32204agabep2jqz0kncwzihmy16hgu,3ifs6q0hjmw7sah5c7t0dsxvbwiis3,eI7D9FKk,2020-0188,2020-06-16,17:57:36,18:11:18,NA,incomplete,4,shape,0,1,left,Red_Triangle_Dots_1.jpg,Green_Triangle_Chess_2.jpg,Red_Circle_Stripes_3.jpg,left,963.835000002291,true,high,false
eI7D9FKk,32204agabep2jqz0kncwzihmy16hgu,3ifs6q0hjmw7sah5c7t0dsxvbwiis3,eI7D9FKk,2020-0188,2020-06-16,17:57:36,18:11:18,NA,incomplete,5,shape,0,1,left,Blue_Triangle_Chess_2.jpg,Red_Triangle_Dots_3.jpg,Blue_Star_Stripes_1.jpg,left,1253.2800000044517,true,high,false
eI7D9FKk,32204agabep2jqz0kncwzihmy16hgu,3ifs6q0hjmw7sah5c7t0dsxvbwiis3,eI7D9FKk,2020-0188,2020-06-16,17:57:36,18:11:18,NA,incomplete,6,shape,0,1,right,Green_Plus_Stripes_1.jpg,Green_Star_Chess_2.jpg,Blue_Plus_Dots_3.jpg,right,898.2899999828078,true,high,false
eI7D9FKk,32204agabep2jqz0kncwzihmy16hgu,3ifs6q0hjmw7sah5c7t0dsxvbwiis3,eI7D9FKk,2020-0188,2020-06-16,17:57:36,18:11:18,NA,incomplete,7,shape,0,0,right,Purple_Star_Grid_4.jpg,Purple_Triangle_Stripes_3.jpg,Blue_Star_Chess_1.jpg,right,1011.3600000040606,true,high,false
eI7D9FKk,32204agabep2jqz0kncwzihmy16hgu,3ifs6q0hjmw7sah5c7t0dsxvbwiis3,eI7D9FKk,2020-0188,2020-06-16,17:57:36,18:11:18,NA,incomplete,8,shape,0,1,left,Green_Plus_Chess_4.jpg,Blue_Plus_Stripes_1.jpg,Green_Triangle_Dots_3.jpg,left,944.054999970831,true,high,false
eI7D9FKk,32204agabep2jqz0kncwzihmy16hgu,3ifs6q0hjmw7sah5c7t0dsxvbwiis3,eI7D9FKk,2020-0188,2020-06-16,17:57:36,18:11:18,NA,incomplete,9,shape,0,0,right,Green_Triangle_Chess_3.jpg,Green_Circle_Grid_4.jpg,Blue_Triangle_Dots_2.jpg,right,902.3750000051223,true,high,false
eI7D9FKk,32204agabep2jqz0kncwzihmy16hgu,3ifs6q0hjmw7sah5c7t0dsxvbwiis3,eI7D9FKk,2020-0188,2020-06-16,17:57:36,18:11:18,NA,incomplete,10,color,1,0,right,Purple_Star_Stripes_3.jpg,Blue_Star_Chess_2.jpg,Purple_Circle_Dots_4.jpg,left,865.4300000052899,false,high,false
eI7D9FKk,32204agabep2jqz0kncwzihmy16hgu,3ifs6q0hjmw7sah5c7t0dsxvbwiis3,eI7D9FKk,2020-0188,2020-06-16,17:57:36,18:11:18,NA,incomplete,11,color,1,1,right,Purple_Plus_Stripes_4.jpg,Blue_Plus_Grid_1.jpg,Purple_Star_Chess_2.jpg,left,1044.930000032764,false,high,false
eI7D9FKk,32204agabep2jqz0kncwzihmy16hgu,3ifs6q0hjmw7sah5c7t0dsxvbwiis3,eI7D9FKk,2020-0188,2020-06-16,17:57:36,18:11:18,NA,incomplete,12,color,1,1,left,Green_Triangle_Grid_4.jpg,Green_Plus_Stripes_1.jpg,Red_Triangle_Chess_3.jpg,right,899.425000010524,false,high,false
eI7D9FKk,32204agabep2jqz0kncwzihmy16hgu,3ifs6q0hjmw7sah5c7t0dsxvbwiis3,eI7D9FKk,2020-0188,2020-06-16,17:57:36,18:11:18,NA,incomplete,13,color,1,1,left,Green_Triangle_Stripes_4.jpg,Green_Star_Chess_3.jpg,Purple_Triangle_Dots_2.jpg,left,1140.0650000432506,true,high,false
eI7D9FKk,32204agabep2jqz0kncwzihmy16hgu,3ifs6q0hjmw7sah5c7t0dsxvbwiis3,eI7D9FKk,2020-0188,2020-06-16,17:57:36,18:11:18,NA,incomplete,14,color,1,1,right,Red_Circle_Grid_3.jpg,Green_Circle_Dots_2.jpg,Red_Triangle_Stripes_4.jpg,right,947.1199999679811,true,high,false
eI7D9FKk,32204agabep2jqz0kncwzihmy16hgu,3ifs6q0hjmw7sah5c7t0dsxvbwiis3,eI7D9FKk,2020-0188,2020-06-16,17:57:36,18:11:18,NA,incomplete,15,color,1,1,left,Red_Circle_Chess_4.jpg,Red_Plus_Stripes_3.jpg,Green_Circle_Dots_1.jpg,left,904.4799999683164,true,high,false
eI7D9FKk,32204agabep2jqz0kncwzihmy16hgu,3ifs6q0hjmw7sah5c7t0dsxvbwiis3,eI7D9FKk,2020-0188,2020-06-16,17:57:36,18:11:18,NA,incomplete,16,color,1,0,left,Blue_Circle_Stripes_2.jpg,Blue_Star_Chess_1.jpg,Red_Circle_Dots_3.jpg,left,952.8600000194274,true,high,false
eI7D9FKk,32204agabep2jqz0kncwzihmy16hgu,3ifs6q0hjmw7sah5c7t0dsxvbwiis3,eI7D9FKk,2020-0188,2020-06-16,17:57:36,18:11:18,NA,incomplete,17,color,1,1,left,Purple_Plus_Dots_3.jpg,Purple_Star_Chess_1.jpg,Red_Plus_Stripes_4.jpg,left,871.7949999845587,true,high,false
eI7D9FKk,32204agabep2jqz0kncwzihmy16hgu,3ifs6q0hjmw7sah5c7t0dsxvbwiis3,eI7D9FKk,2020-0188,2020-06-16,17:57:36,18:11:18,NA,incomplete,18,color,1,1,right,Blue_Plus_Dots_2.jpg,Purple_Plus_Chess_3.jpg,Blue_Star_Grid_1.jpg,right,1480.905000003986,true,high,false
eI7D9FKk,32204agabep2jqz0kncwzihmy16hgu,3ifs6q0hjmw7sah5c7t0dsxvbwiis3,eI7D9FKk,2020-0188,2020-06-16,17:57:36,18:11:18,NA,incomplete,19,color,1,1,left,Red_Circle_Grid_4.jpg,Red_Triangle_Dots_3.jpg,Green_Circle_Chess_2.jpg,left,964.7850000183098,true,high,false
eI7D9FKk,32204agabep2jqz0kncwzihmy16hgu,3ifs6q0hjmw7sah5c7t0dsxvbwiis3,eI7D9FKk,2020-0188,2020-06-16,17:57:36,18:11:18,NA,incomplete,20,shape,0,1,right,Blue_Circle_Chess_1.jpg,Blue_Star_Grid_4.jpg,Purple_Circle_Stripes_3.jpg,left,929.8650000127964,false,high,false
eI7D9FKk,32204agabep2jqz0kncwzihmy16hgu,3ifs6q0hjmw7sah5c7t0dsxvbwiis3,eI7D9FKk,2020-0188,2020-06-16,17:57:36,18:11:18,NA,incomplete,21,shape,0,1,right,Purple_Circle_Dots_2.jpg,Purple_Triangle_Chess_4.jpg,Green_Circle_Grid_3.jpg,left,768.370000005234,false,high,false
eI7D9FKk,32204agabep2jqz0kncwzihmy16hgu,3ifs6q0hjmw7sah5c7t0dsxvbwiis3,eI7D9FKk,2020-0188,2020-06-16,17:57:36,18:11:18,NA,incomplete,22,shape,0,1,right,Purple_Triangle_Dots_1.jpg,Purple_Plus_Grid_2.jpg,Blue_Triangle_Chess_3.jpg,right,790.0800000061281,true,high,false
eI7D9FKk,32204agabep2jqz0kncwzihmy16hgu,3ifs6q0hjmw7sah5c7t0dsxvbwiis3,eI7D9FKk,2020-0188,2020-06-16,17:57:36,18:11:18,NA,incomplete,23,shape,0,1,right,Green_Star_Stripes_2.jpg,Green_Circle_Chess_3.jpg,Blue_Star_Grid_1.jpg,right,857.6800000155345,true,high,false
eI7D9FKk,32204agabep2jqz0kncwzihmy16hgu,3ifs6q0hjmw7sah5c7t0dsxvbwiis3,eI7D9FKk,2020-0188,2020-06-16,17:57:36,18:11:18,NA,incomplete,24,shape,0,1,left,Green_Plus_Stripes_4.jpg,Red_Plus_Grid_1.jpg,Green_Triangle_Dots_3.jpg,left,1103.4699999727309,true,high,false
eI7D9FKk,32204agabep2jqz0kncwzihmy16hgu,3ifs6q0hjmw7sah5c7t0dsxvbwiis3,eI7D9FKk,2020-0188,2020-06-16,17:57:36,18:11:18,NA,incomplete,25,shape,0,0,left,Red_Plus_Grid_1.jpg,Green_Plus_Chess_3.jpg,Red_Star_Dots_4.jpg,left,835.674999980256,true,high,false
eI7D9FKk,32204agabep2jqz0kncwzihmy16hgu,3ifs6q0hjmw7sah5c7t0dsxvbwiis3,eI7D9FKk,2020-0188,2020-06-16,17:57:36,18:11:18,NA,incomplete,26,shape,0,1,left,Purple_Star_Dots_4.jpg,Green_Star_Stripes_2.jpg,Purple_Triangle_Grid_1.jpg,left,1053.4450000268407,true,high,false
eI7D9FKk,32204agabep2jqz0kncwzihmy16hgu,3ifs6q0hjmw7sah5c7t0dsxvbwiis3,eI7D9FKk,2020-0188,2020-06-16,17:57:36,18:11:18,NA,incomplete,27,shape,0,0,right,Green_Triangle_Chess_2.jpg,Green_Plus_Grid_3.jpg,Purple_Triangle_Stripes_1.jpg,right,856.1399999889545,true,high,false
eI7D9FKk,32204agabep2jqz0kncwzihmy16hgu,3ifs6q0hjmw7sah5c7t0dsxvbwiis3,eI7D9FKk,2020-0188,2020-06-16,17:57:36,18:11:18,NA,incomplete,28,shape,0,1,right,Green_Circle_Grid_3.jpg,Green_Plus_Chess_4.jpg,Purple_Circle_Stripes_1.jpg,right,1061.954999982845,true,high,false
eI7D9FKk,32204agabep2jqz0kncwzihmy16hgu,3ifs6q0hjmw7sah5c7t0dsxvbwiis3,eI7D9FKk,2020-0188,2020-06-16,17:57:36,18:11:18,NA,incomplete,29,shape,0,1,right,Blue_Triangle_Chess_1.jpg,Blue_Plus_Dots_4.jpg,Green_Triangle_Grid_2.jpg,right,796.6899999883026,true,high,false
eI7D9FKk,32204agabep2jqz0kncwzihmy16hgu,3ifs6q0hjmw7sah5c7t0dsxvbwiis3,eI7D9FKk,2020-0188,2020-06-16,17:57:36,18:11:18,NA,incomplete,30,color,1,1,left,Green_Plus_Stripes_4.jpg,Green_Star_Dots_2.jpg,Red_Plus_Grid_1.jpg,right,897.4299999536015,false,high,false
eI7D9FKk,32204agabep2jqz0kncwzihmy16hgu,3ifs6q0hjmw7sah5c7t0dsxvbwiis3,eI7D9FKk,2020-0188,2020-06-16,17:57:36,18:11:18,NA,incomplete,31,color,1,1,left,Purple_Triangle_Dots_1.jpg,Purple_Star_Grid_2.jpg,Blue_Triangle_Stripes_3.jpg,right,1053.505000018049,false,high,false
eI7D9FKk,32204agabep2jqz0kncwzihmy16hgu,3ifs6q0hjmw7sah5c7t0dsxvbwiis3,eI7D9FKk,2020-0188,2020-06-16,17:57:36,18:11:18,NA,incomplete,32,color,1,1,left,Red_Circle_Chess_1.jpg,Red_Plus_Stripes_3.jpg,Purple_Circle_Grid_2.jpg,left,786.6849999991246,true,high,false
eI7D9FKk,32204agabep2jqz0kncwzihmy16hgu,3ifs6q0hjmw7sah5c7t0dsxvbwiis3,eI7D9FKk,2020-0188,2020-06-16,17:57:36,18:11:18,NA,incomplete,33,color,1,1,right,Purple_Plus_Chess_2.jpg,Green_Plus_Dots_1.jpg,Purple_Circle_Grid_4.jpg,right,1088.7299999594688,true,high,false
eI7D9FKk,32204agabep2jqz0kncwzihmy16hgu,3ifs6q0hjmw7sah5c7t0dsxvbwiis3,eI7D9FKk,2020-0188,2020-06-16,17:57:36,18:11:18,NA,incomplete,34,color,1,1,right,Red_Star_Chess_3.jpg,Green_Star_Stripes_1.jpg,Red_Plus_Grid_4.jpg,right,808.4099999978207,true,high,false
eI7D9FKk,32204agabep2jqz0kncwzihmy16hgu,3ifs6q0hjmw7sah5c7t0dsxvbwiis3,eI7D9FKk,2020-0188,2020-06-16,17:57:36,18:11:18,NA,incomplete,35,color,1,1,left,Green_Circle_Grid_3.jpg,Green_Star_Stripes_4.jpg,Blue_Circle_Dots_1.jpg,left,644.1699999850243,true,high,false
eI7D9FKk,32204agabep2jqz0kncwzihmy16hgu,3ifs6q0hjmw7sah5c7t0dsxvbwiis3,eI7D9FKk,2020-0188,2020-06-16,17:57:36,18:11:18,NA,incomplete,36,color,1,0,left,Purple_Star_Grid_4.jpg,Purple_Circle_Chess_1.jpg,Green_Star_Dots_2.jpg,left,775.6350000272505,true,high,false
eI7D9FKk,32204agabep2jqz0kncwzihmy16hgu,3ifs6q0hjmw7sah5c7t0dsxvbwiis3,eI7D9FKk,2020-0188,2020-06-16,17:57:36,18:11:18,NA,incomplete,37,color,1,1,right,Blue_Star_Stripes_1.jpg,Red_Star_Grid_3.jpg,Blue_Plus_Dots_2.jpg,right,940.5750000150874,true,high,false
eI7D9FKk,32204agabep2jqz0kncwzihmy16hgu,3ifs6q0hjmw7sah5c7t0dsxvbwiis3,eI7D9FKk,2020-0188,2020-06-16,17:57:36,18:11:18,NA,incomplete,38,color,1,1,left,Purple_Triangle_Stripes_4.jpg,Purple_Circle_Grid_2.jpg,Red_Triangle_Chess_3.jpg,left,875.5649999948218,true,high,false
eI7D9FKk,32204agabep2jqz0kncwzihmy16hgu,3ifs6q0hjmw7sah5c7t0dsxvbwiis3,eI7D9FKk,2020-0188,2020-06-16,17:57:36,18:11:18,NA,incomplete,39,color,1,1,left,Purple_Circle_Stripes_1.jpg,Purple_Triangle_Dots_4.jpg,Blue_Circle_Grid_3.jpg,left,901.2949999887496,true,high,false
eI7D9FKk,32204agabep2jqz0kncwzihmy16hgu,3ifs6q0hjmw7sah5c7t0dsxvbwiis3,eI7D9FKk,2020-0188,2020-06-16,17:57:36,18:11:18,NA,incomplete,40,shape,0,0,left,Purple_Plus_Stripes_3.jpg,Green_Plus_Dots_1.jpg,Purple_Triangle_Chess_2.jpg,right,756.5499999909662,false,high,false
eI7D9FKk,32204agabep2jqz0kncwzihmy16hgu,3ifs6q0hjmw7sah5c7t0dsxvbwiis3,eI7D9FKk,2020-0188,2020-06-16,17:57:36,18:11:18,NA,incomplete,41,shape,0,1,left,Green_Plus_Dots_1.jpg,Red_Plus_Grid_3.jpg,Green_Circle_Chess_4.jpg,right,882.6999999582767,false,high,false
eI7D9FKk,32204agabep2jqz0kncwzihmy16hgu,3ifs6q0hjmw7sah5c7t0dsxvbwiis3,eI7D9FKk,2020-0188,2020-06-16,17:57:36,18:11:18,NA,incomplete,42,shape,0,1,right,Blue_Triangle_Grid_2.jpg,Blue_Circle_Dots_4.jpg,Red_Triangle_Stripes_3.jpg,left,732.8299999935552,false,high,false
eI7D9FKk,32204agabep2jqz0kncwzihmy16hgu,3ifs6q0hjmw7sah5c7t0dsxvbwiis3,eI7D9FKk,2020-0188,2020-06-16,17:57:36,18:11:18,NA,incomplete,43,shape,0,1,left,Purple_Plus_Grid_2.jpg,Red_Plus_Dots_3.jpg,Purple_Circle_Stripes_1.jpg,left,917.2600000165403,true,high,false
eI7D9FKk,32204agabep2jqz0kncwzihmy16hgu,3ifs6q0hjmw7sah5c7t0dsxvbwiis3,eI7D9FKk,2020-0188,2020-06-16,17:57:36,18:11:18,NA,incomplete,44,shape,0,0,left,Red_Star_Dots_1.jpg,Purple_Star_Stripes_4.jpg,Red_Plus_Grid_2.jpg,left,1139.0599999576807,true,high,false
eI7D9FKk,32204agabep2jqz0kncwzihmy16hgu,3ifs6q0hjmw7sah5c7t0dsxvbwiis3,eI7D9FKk,2020-0188,2020-06-16,17:57:36,18:11:18,NA,incomplete,45,shape,0,1,right,Green_Star_Dots_3.jpg,Green_Triangle_Stripes_4.jpg,Red_Star_Grid_2.jpg,right,761.6100000450388,true,high,false
eI7D9FKk,32204agabep2jqz0kncwzihmy16hgu,3ifs6q0hjmw7sah5c7t0dsxvbwiis3,eI7D9FKk,2020-0188,2020-06-16,17:57:36,18:11:18,NA,incomplete,46,shape,0,1,right,Green_Triangle_Stripes_1.jpg,Green_Star_Grid_2.jpg,Red_Triangle_Dots_3.jpg,right,829.4650000170805,true,high,false
eI7D9FKk,32204agabep2jqz0kncwzihmy16hgu,3ifs6q0hjmw7sah5c7t0dsxvbwiis3,eI7D9FKk,2020-0188,2020-06-16,17:57:36,18:11:18,NA,incomplete,47,shape,0,1,left,Purple_Triangle_Dots_3.jpg,Red_Triangle_Chess_4.jpg,Purple_Plus_Grid_1.jpg,left,914.9999999790452,true,high,false
eI7D9FKk,32204agabep2jqz0kncwzihmy16hgu,3ifs6q0hjmw7sah5c7t0dsxvbwiis3,eI7D9FKk,2020-0188,2020-06-16,17:57:36,18:11:18,NA,incomplete,48,shape,0,1,left,Red_Triangle_Grid_2.jpg,Purple_Triangle_Dots_4.jpg,Red_Circle_Chess_1.jpg,left,1189.1150000155903,true,high,false
eI7D9FKk,32204agabep2jqz0kncwzihmy16hgu,3ifs6q0hjmw7sah5c7t0dsxvbwiis3,eI7D9FKk,2020-0188,2020-06-16,17:57:36,18:11:18,NA,incomplete,49,shape,0,1,right,Red_Circle_Chess_4.jpg,Red_Star_Stripes_1.jpg,Purple_Circle_Grid_2.jpg,right,951.7600000253879,true,high,false
eI7D9FKk,32204agabep2jqz0kncwzihmy16hgu,3ifs6q0hjmw7sah5c7t0dsxvbwiis3,eI7D9FKk,2020-0188,2020-06-16,17:57:36,18:11:18,NA,incomplete,50,color,1,1,left,Red_Star_Stripes_2.jpg,Red_Plus_Dots_4.jpg,Blue_Star_Chess_3.jpg,right,830.4399999906309,false,high,false
eI7D9FKk,32204agabep2jqz0kncwzihmy16hgu,3ifs6q0hjmw7sah5c7t0dsxvbwiis3,eI7D9FKk,2020-0188,2020-06-16,17:57:36,18:11:18,NA,incomplete,51,color,1,1,right,Blue_Triangle_Stripes_1.jpg,Green_Triangle_Chess_3.jpg,Blue_Circle_Grid_2.jpg,left,1018.2400000048801,false,high,false
eI7D9FKk,32204agabep2jqz0kncwzihmy16hgu,3ifs6q0hjmw7sah5c7t0dsxvbwiis3,eI7D9FKk,2020-0188,2020-06-16,17:57:36,18:11:18,NA,incomplete,52,color,1,1,left,Green_Star_Grid_2.jpg,Green_Plus_Stripes_4.jpg,Red_Star_Chess_1.jpg,left,756.1599999899045,true,high,false
eI7D9FKk,32204agabep2jqz0kncwzihmy16hgu,3ifs6q0hjmw7sah5c7t0dsxvbwiis3,eI7D9FKk,2020-0188,2020-06-16,17:57:36,18:11:18,NA,incomplete,53,color,1,0,left,Red_Triangle_Stripes_4.jpg,Red_Plus_Chess_3.jpg,Blue_Triangle_Grid_2.jpg,left,746.4799999725074,true,high,false
eI7D9FKk,32204agabep2jqz0kncwzihmy16hgu,3ifs6q0hjmw7sah5c7t0dsxvbwiis3,eI7D9FKk,2020-0188,2020-06-16,17:57:36,18:11:18,NA,incomplete,54,color,1,1,left,Purple_Plus_Stripes_3.jpg,Purple_Circle_Chess_2.jpg,Green_Plus_Grid_4.jpg,right,793.184999958612,false,high,false
eI7D9FKk,32204agabep2jqz0kncwzihmy16hgu,3ifs6q0hjmw7sah5c7t0dsxvbwiis3,eI7D9FKk,2020-0188,2020-06-16,17:57:36,18:11:18,NA,incomplete,55,color,1,1,left,Green_Star_Stripes_4.jpg,Green_Triangle_Grid_3.jpg,Purple_Star_Chess_1.jpg,left,1653.6299999570474,true,high,false
eI7D9FKk,32204agabep2jqz0kncwzihmy16hgu,3ifs6q0hjmw7sah5c7t0dsxvbwiis3,eI7D9FKk,2020-0188,2020-06-16,17:57:36,18:11:18,NA,incomplete,56,color,1,1,left,Purple_Triangle_Dots_3.jpg,Purple_Plus_Stripes_2.jpg,Red_Triangle_Chess_1.jpg,left,719.8699999717064,true,high,false
eI7D9FKk,32204agabep2jqz0kncwzihmy16hgu,3ifs6q0hjmw7sah5c7t0dsxvbwiis3,eI7D9FKk,2020-0188,2020-06-16,17:57:36,18:11:18,NA,incomplete,57,color,1,1,left,Green_Star_Stripes_4.jpg,Green_Plus_Chess_3.jpg,Red_Star_Grid_2.jpg,left,911.3350000116043,true,high,false
eI7D9FKk,32204agabep2jqz0kncwzihmy16hgu,3ifs6q0hjmw7sah5c7t0dsxvbwiis3,eI7D9FKk,2020-0188,2020-06-16,17:57:36,18:11:18,NA,incomplete,58,color,1,0,left,Purple_Circle_Dots_3.jpg,Purple_Triangle_Grid_4.jpg,Green_Circle_Stripes_1.jpg,left,1038.349999987986,true,high,false
eI7D9FKk,32204agabep2jqz0kncwzihmy16hgu,3ifs6q0hjmw7sah5c7t0dsxvbwiis3,eI7D9FKk,2020-0188,2020-06-16,17:57:36,18:11:18,NA,incomplete,59,color,1,1,left,Blue_Triangle_Chess_3.jpg,Blue_Circle_Dots_1.jpg,Red_Triangle_Stripes_2.jpg,left,1290.8349999925122,true,high,false
eI7D9FKk,32204agabep2jqz0kncwzihmy16hgu,3ifs6q0hjmw7sah5c7t0dsxvbwiis3,eI7D9FKk,2020-0188,2020-06-16,17:57:36,18:11:18,NA,incomplete,60,shape,0,1,right,Blue_Circle_Stripes_2.jpg,Blue_Triangle_Grid_4.jpg,Green_Circle_Dots_3.jpg,left,906.1450000153854,false,high,false
eI7D9FKk,32204agabep2jqz0kncwzihmy16hgu,3ifs6q0hjmw7sah5c7t0dsxvbwiis3,eI7D9FKk,2020-0188,2020-06-16,17:57:36,18:11:18,NA,incomplete,61,shape,0,1,right,Green_Star_Grid_2.jpg,Green_Triangle_Stripes_1.jpg,Blue_Star_Dots_4.jpg,left,1754.8350000288337,false,high,false
eI7D9FKk,32204agabep2jqz0kncwzihmy16hgu,3ifs6q0hjmw7sah5c7t0dsxvbwiis3,eI7D9FKk,2020-0188,2020-06-16,17:57:36,18:11:18,NA,incomplete,62,shape,0,1,left,Green_Plus_Stripes_4.jpg,Red_Plus_Grid_1.jpg,Green_Circle_Chess_2.jpg,left,1250.754999986384,true,high,false
eI7D9FKk,32204agabep2jqz0kncwzihmy16hgu,3ifs6q0hjmw7sah5c7t0dsxvbwiis3,eI7D9FKk,2020-0188,2020-06-16,17:57:36,18:11:18,NA,incomplete,63,shape,0,0,right,Purple_Plus_Dots_2.jpg,Purple_Triangle_Grid_3.jpg,Green_Plus_Stripes_1.jpg,right,931.3100000144914,true,high,false
eI7D9FKk,32204agabep2jqz0kncwzihmy16hgu,3ifs6q0hjmw7sah5c7t0dsxvbwiis3,eI7D9FKk,2020-0188,2020-06-16,17:57:36,18:11:18,NA,incomplete,64,shape,0,0,left,Green_Triangle_Stripes_1.jpg,Purple_Triangle_Grid_3.jpg,Green_Circle_Chess_2.jpg,left,1116.0599999711849,true,high,false
eI7D9FKk,32204agabep2jqz0kncwzihmy16hgu,3ifs6q0hjmw7sah5c7t0dsxvbwiis3,eI7D9FKk,2020-0188,2020-06-16,17:57:36,18:11:18,NA,incomplete,65,shape,0,1,right,Red_Triangle_Stripes_1.jpg,Red_Star_Grid_2.jpg,Green_Triangle_Chess_3.jpg,right,989.000000001397,true,high,false
eI7D9FKk,32204agabep2jqz0kncwzihmy16hgu,3ifs6q0hjmw7sah5c7t0dsxvbwiis3,eI7D9FKk,2020-0188,2020-06-16,17:57:36,18:11:18,NA,incomplete,66,shape,0,1,left,Red_Star_Dots_4.jpg,Blue_Star_Stripes_3.jpg,Red_Triangle_Chess_2.jpg,left,871.0549999959767,true,high,false
eI7D9FKk,32204agabep2jqz0kncwzihmy16hgu,3ifs6q0hjmw7sah5c7t0dsxvbwiis3,eI7D9FKk,2020-0188,2020-06-16,17:57:36,18:11:18,NA,incomplete,67,shape,0,1,left,Green_Star_Stripes_4.jpg,Red_Star_Dots_1.jpg,Green_Plus_Chess_3.jpg,left,888.2500000181608,true,high,false
eI7D9FKk,32204agabep2jqz0kncwzihmy16hgu,3ifs6q0hjmw7sah5c7t0dsxvbwiis3,eI7D9FKk,2020-0188,2020-06-16,17:57:36,18:11:18,NA,incomplete,68,shape,0,1,left,Blue_Circle_Grid_4.jpg,Purple_Circle_Dots_2.jpg,Blue_Star_Chess_3.jpg,left,872.9450000100769,true,high,false
eI7D9FKk,32204agabep2jqz0kncwzihmy16hgu,3ifs6q0hjmw7sah5c7t0dsxvbwiis3,eI7D9FKk,2020-0188,2020-06-16,17:57:36,18:11:18,NA,incomplete,69,shape,0,0,right,Purple_Triangle_Dots_3.jpg,Purple_Plus_Chess_1.jpg,Red_Triangle_Stripes_2.jpg,right,906.6400000010617,true,high,false
eI7D9FKk,32204agabep2jqz0kncwzihmy16hgu,3ifs6q0hjmw7sah5c7t0dsxvbwiis3,eI7D9FKk,2020-0188,2020-06-16,17:57:36,18:11:18,NA,incomplete,70,color,1,1,left,Green_Triangle_Stripes_3.jpg,Green_Circle_Grid_4.jpg,Red_Triangle_Chess_1.jpg,right,803.444999968633,false,high,false
eI7D9FKk,32204agabep2jqz0kncwzihmy16hgu,3ifs6q0hjmw7sah5c7t0dsxvbwiis3,eI7D9FKk,2020-0188,2020-06-16,17:57:36,18:11:18,NA,incomplete,71,color,1,1,right,Blue_Plus_Dots_4.jpg,Purple_Plus_Chess_3.jpg,Blue_Triangle_Stripes_1.jpg,right,1096.6500000213273,true,high,false
eI7D9FKk,32204agabep2jqz0kncwzihmy16hgu,3ifs6q0hjmw7sah5c7t0dsxvbwiis3,eI7D9FKk,2020-0188,2020-06-16,17:57:36,18:11:18,NA,incomplete,72,color,1,1,left,Blue_Circle_Chess_3.jpg,Blue_Star_Stripes_4.jpg,Green_Circle_Dots_2.jpg,left,1063.5499999625608,true,high,false
eI7D9FKk,32204agabep2jqz0kncwzihmy16hgu,3ifs6q0hjmw7sah5c7t0dsxvbwiis3,eI7D9FKk,2020-0188,2020-06-16,17:57:36,18:11:18,NA,incomplete,73,color,1,1,right,Blue_Plus_Stripes_4.jpg,Green_Plus_Dots_3.jpg,Blue_Star_Grid_2.jpg,right,1064.925000013318,true,high,false
eI7D9FKk,32204agabep2jqz0kncwzihmy16hgu,3ifs6q0hjmw7sah5c7t0dsxvbwiis3,eI7D9FKk,2020-0188,2020-06-16,17:57:36,18:11:18,NA,incomplete,74,color,1,1,left,Green_Circle_Stripes_2.jpg,Green_Star_Dots_1.jpg,Purple_Circle_Grid_4.jpg,left,1199.3200000142679,true,high,false
eI7D9FKk,32204agabep2jqz0kncwzihmy16hgu,3ifs6q0hjmw7sah5c7t0dsxvbwiis3,eI7D9FKk,2020-0188,2020-06-16,17:57:36,18:11:18,NA,incomplete,75,color,1,1,left,Red_Circle_Dots_1.jpg,Red_Triangle_Chess_3.jpg,Green_Circle_Stripes_4.jpg,left,1039.7649999940768,true,high,false
eI7D9FKk,32204agabep2jqz0kncwzihmy16hgu,3ifs6q0hjmw7sah5c7t0dsxvbwiis3,eI7D9FKk,2020-0188,2020-06-16,17:57:36,18:11:18,NA,incomplete,76,color,1,1,left,Blue_Circle_Stripes_1.jpg,Blue_Plus_Grid_3.jpg,Red_Circle_Chess_2.jpg,left,851.3199999579228,true,high,false
eI7D9FKk,32204agabep2jqz0kncwzihmy16hgu,3ifs6q0hjmw7sah5c7t0dsxvbwiis3,eI7D9FKk,2020-0188,2020-06-16,17:57:36,18:11:18,NA,incomplete,77,color,1,1,right,Green_Star_Chess_3.jpg,Purple_Star_Grid_2.jpg,Green_Triangle_Dots_1.jpg,right,1021.6699999873526,true,high,false
eI7D9FKk,32204agabep2jqz0kncwzihmy16hgu,3ifs6q0hjmw7sah5c7t0dsxvbwiis3,eI7D9FKk,2020-0188,2020-06-16,17:57:36,18:11:18,NA,incomplete,78,color,1,1,right,Purple_Circle_Stripes_1.jpg,Blue_Circle_Chess_2.jpg,Purple_Plus_Grid_4.jpg,right,1013.7049999902956,true,high,false
eI7D9FKk,32204agabep2jqz0kncwzihmy16hgu,3ifs6q0hjmw7sah5c7t0dsxvbwiis3,eI7D9FKk,2020-0188,2020-06-16,17:57:36,18:11:18,NA,incomplete,79,color,1,1,right,Green_Plus_Stripes_2.jpg,Red_Plus_Grid_4.jpg,Green_Star_Dots_1.jpg,right,940.2750000008382,true,high,false
eI7D9FKk,32204agabep2jqz0kncwzihmy16hgu,3ifs6q0hjmw7sah5c7t0dsxvbwiis3,eI7D9FKk,2020-0188,2020-06-16,17:57:36,18:11:18,NA,incomplete,80,shape,0,1,right,Green_Plus_Grid_4.jpg,Green_Star_Chess_2.jpg,Purple_Plus_Stripes_1.jpg,left,930.3349999827333,false,high,false
eI7D9FKk,32204agabep2jqz0kncwzihmy16hgu,3ifs6q0hjmw7sah5c7t0dsxvbwiis3,eI7D9FKk,2020-0188,2020-06-16,17:57:36,18:11:18,NA,incomplete,81,shape,0,1,left,Green_Plus_Chess_1.jpg,Red_Plus_Grid_4.jpg,Green_Circle_Stripes_3.jpg,right,776.8099999520928,false,high,false
eI7D9FKk,32204agabep2jqz0kncwzihmy16hgu,3ifs6q0hjmw7sah5c7t0dsxvbwiis3,eI7D9FKk,2020-0188,2020-06-16,17:57:36,18:11:18,NA,incomplete,82,shape,0,1,right,Red_Circle_Dots_2.jpg,Red_Triangle_Chess_1.jpg,Purple_Circle_Stripes_4.jpg,right,1383.5099999560043,true,high,false
eI7D9FKk,32204agabep2jqz0kncwzihmy16hgu,3ifs6q0hjmw7sah5c7t0dsxvbwiis3,eI7D9FKk,2020-0188,2020-06-16,17:57:36,18:11:18,NA,incomplete,83,shape,0,1,right,Green_Triangle_Grid_1.jpg,Green_Circle_Dots_4.jpg,Red_Triangle_Chess_3.jpg,right,772.1850000089034,true,high,false
eI7D9FKk,32204agabep2jqz0kncwzihmy16hgu,3ifs6q0hjmw7sah5c7t0dsxvbwiis3,eI7D9FKk,2020-0188,2020-06-16,17:57:36,18:11:18,NA,incomplete,84,shape,0,1,right,Green_Triangle_Dots_2.jpg,Green_Plus_Grid_3.jpg,Purple_Triangle_Chess_1.jpg,right,611.1649999511428,true,high,false
eI7D9FKk,32204agabep2jqz0kncwzihmy16hgu,3ifs6q0hjmw7sah5c7t0dsxvbwiis3,eI7D9FKk,2020-0188,2020-06-16,17:57:36,18:11:18,NA,incomplete,85,shape,0,0,left,Blue_Circle_Stripes_3.jpg,Red_Circle_Grid_1.jpg,Blue_Triangle_Chess_2.jpg,left,870.0400000088848,true,high,false
eI7D9FKk,32204agabep2jqz0kncwzihmy16hgu,3ifs6q0hjmw7sah5c7t0dsxvbwiis3,eI7D9FKk,2020-0188,2020-06-16,17:57:36,18:11:18,NA,incomplete,86,shape,0,1,right,Green_Star_Grid_4.jpg,Green_Plus_Chess_1.jpg,Purple_Star_Dots_3.jpg,right,791.7250000173226,true,high,false
eI7D9FKk,32204agabep2jqz0kncwzihmy16hgu,3ifs6q0hjmw7sah5c7t0dsxvbwiis3,eI7D9FKk,2020-0188,2020-06-16,17:57:36,18:11:18,NA,incomplete,87,shape,0,1,left,Blue_Star_Chess_1.jpg,Green_Star_Dots_4.jpg,Blue_Circle_Grid_3.jpg,left,937.9949999856763,true,high,false
eI7D9FKk,32204agabep2jqz0kncwzihmy16hgu,3ifs6q0hjmw7sah5c7t0dsxvbwiis3,eI7D9FKk,2020-0188,2020-06-16,17:57:36,18:11:18,NA,incomplete,88,shape,0,0,left,Blue_Star_Dots_3.jpg,Red_Star_Grid_1.jpg,Blue_Circle_Stripes_4.jpg,left,906.3150000292808,true,high,false
eI7D9FKk,32204agabep2jqz0kncwzihmy16hgu,3ifs6q0hjmw7sah5c7t0dsxvbwiis3,eI7D9FKk,2020-0188,2020-06-16,17:57:36,18:11:18,NA,incomplete,89,shape,0,1,right,Purple_Circle_Grid_4.jpg,Purple_Triangle_Stripes_2.jpg,Blue_Circle_Dots_1.jpg,right,894.3149999831803,true,high,false
eI7D9FKk,32204agabep2jqz0kncwzihmy16hgu,3ifs6q0hjmw7sah5c7t0dsxvbwiis3,eI7D9FKk,2020-0188,2020-06-16,17:57:36,18:11:18,NA,incomplete,90,color,1,0,right,Purple_Circle_Stripes_3.jpg,Red_Circle_Dots_1.jpg,Purple_Star_Chess_4.jpg,left,811.1299999873154,false,high,false
eI7D9FKk,32204agabep2jqz0kncwzihmy16hgu,3ifs6q0hjmw7sah5c7t0dsxvbwiis3,eI7D9FKk,2020-0188,2020-06-16,17:57:36,18:11:18,NA,incomplete,91,color,1,1,right,Blue_Triangle_Stripes_4.jpg,Purple_Triangle_Grid_3.jpg,Blue_Plus_Chess_1.jpg,left,838.8000000268221,false,high,false
eI7D9FKk,32204agabep2jqz0kncwzihmy16hgu,3ifs6q0hjmw7sah5c7t0dsxvbwiis3,eI7D9FKk,2020-0188,2020-06-16,17:57:36,18:11:18,NA,incomplete,92,color,1,1,left,Purple_Star_Dots_2.jpg,Purple_Triangle_Stripes_1.jpg,Green_Star_Chess_4.jpg,right,1203.2899999758229,false,high,false
eI7D9FKk,32204agabep2jqz0kncwzihmy16hgu,3ifs6q0hjmw7sah5c7t0dsxvbwiis3,eI7D9FKk,2020-0188,2020-06-16,17:57:36,18:11:18,NA,incomplete,93,color,1,1,left,Blue_Star_Grid_1.jpg,Blue_Circle_Dots_2.jpg,Purple_Star_Stripes_3.jpg,left,1158.5499999928288,true,high,false
eI7D9FKk,32204agabep2jqz0kncwzihmy16hgu,3ifs6q0hjmw7sah5c7t0dsxvbwiis3,eI7D9FKk,2020-0188,2020-06-16,17:57:36,18:11:18,NA,incomplete,94,color,1,1,left,Blue_Star_Dots_4.jpg,Blue_Plus_Grid_2.jpg,Red_Star_Chess_1.jpg,left,1102.5099999969825,true,high,false
eI7D9FKk,32204agabep2jqz0kncwzihmy16hgu,3ifs6q0hjmw7sah5c7t0dsxvbwiis3,eI7D9FKk,2020-0188,2020-06-16,17:57:36,18:11:18,NA,incomplete,95,color,1,1,left,Green_Circle_Chess_4.jpg,Green_Plus_Stripes_1.jpg,Red_Circle_Grid_3.jpg,left,724.0350000211038,true,high,false
eI7D9FKk,32204agabep2jqz0kncwzihmy16hgu,3ifs6q0hjmw7sah5c7t0dsxvbwiis3,eI7D9FKk,2020-0188,2020-06-16,17:57:36,18:11:18,NA,incomplete,96,color,1,1,left,Purple_Star_Stripes_1.jpg,Purple_Plus_Grid_4.jpg,Red_Star_Dots_3.jpg,left,898.0050000245683,true,high,false
eI7D9FKk,32204agabep2jqz0kncwzihmy16hgu,3ifs6q0hjmw7sah5c7t0dsxvbwiis3,eI7D9FKk,2020-0188,2020-06-16,17:57:36,18:11:18,NA,incomplete,97,color,1,1,right,Red_Circle_Chess_3.jpg,Green_Circle_Dots_1.jpg,Red_Star_Grid_4.jpg,right,907.9899999778718,true,high,false
eI7D9FKk,32204agabep2jqz0kncwzihmy16hgu,3ifs6q0hjmw7sah5c7t0dsxvbwiis3,eI7D9FKk,2020-0188,2020-06-16,17:57:36,18:11:18,NA,incomplete,98,color,1,0,left,Green_Star_Grid_1.jpg,Green_Circle_Dots_3.jpg,Purple_Star_Chess_2.jpg,left,1124.130000011064,true,high,false
eI7D9FKk,32204agabep2jqz0kncwzihmy16hgu,3ifs6q0hjmw7sah5c7t0dsxvbwiis3,eI7D9FKk,2020-0188,2020-06-16,17:57:36,18:11:18,NA,incomplete,99,color,1,1,left,Blue_Circle_Stripes_3.jpg,Blue_Plus_Grid_1.jpg,Purple_Circle_Chess_2.jpg,left,1019.5749999838881,true,high,false
eI7D9FKk,32204agabep2jqz0kncwzihmy16hgu,3ifs6q0hjmw7sah5c7t0dsxvbwiis3,eI7D9FKk,2020-0188,2020-06-16,17:57:36,18:11:18,NA,incomplete,100,shape,0,1,right,Purple_Plus_Stripes_2.jpg,Purple_Circle_Grid_3.jpg,Red_Plus_Chess_1.jpg,left,1014.339999994263,false,high,false
eI7D9FKk,32204agabep2jqz0kncwzihmy16hgu,3ifs6q0hjmw7sah5c7t0dsxvbwiis3,eI7D9FKk,2020-0188,2020-06-16,17:57:36,18:11:18,NA,incomplete,101,shape,0,1,left,Blue_Circle_Chess_3.jpg,Red_Circle_Dots_4.jpg,Blue_Plus_Stripes_1.jpg,right,1002.5800000294112,false,high,false
eI7D9FKk,32204agabep2jqz0kncwzihmy16hgu,3ifs6q0hjmw7sah5c7t0dsxvbwiis3,eI7D9FKk,2020-0188,2020-06-16,17:57:36,18:11:18,NA,incomplete,102,shape,0,1,left,Red_Triangle_Grid_1.jpg,Purple_Triangle_Dots_3.jpg,Red_Star_Stripes_2.jpg,left,1175.3899999894202,true,high,false
eI7D9FKk,32204agabep2jqz0kncwzihmy16hgu,3ifs6q0hjmw7sah5c7t0dsxvbwiis3,eI7D9FKk,2020-0188,2020-06-16,17:57:36,18:11:18,NA,incomplete,103,shape,0,1,right,Purple_Plus_Chess_2.jpg,Purple_Triangle_Grid_3.jpg,Green_Plus_Dots_1.jpg,right,1341.0000000149012,true,high,false
eI7D9FKk,32204agabep2jqz0kncwzihmy16hgu,3ifs6q0hjmw7sah5c7t0dsxvbwiis3,eI7D9FKk,2020-0188,2020-06-16,17:57:36,18:11:18,NA,incomplete,104,shape,0,1,right,Red_Plus_Chess_3.jpg,Red_Triangle_Dots_1.jpg,Green_Plus_Stripes_2.jpg,right,892.180000024382,true,high,false
eI7D9FKk,32204agabep2jqz0kncwzihmy16hgu,3ifs6q0hjmw7sah5c7t0dsxvbwiis3,eI7D9FKk,2020-0188,2020-06-16,17:57:36,18:11:18,NA,incomplete,105,shape,0,1,right,Blue_Plus_Grid_3.jpg,Blue_Triangle_Dots_1.jpg,Green_Plus_Chess_4.jpg,right,765.7100000069477,true,high,false
eI7D9FKk,32204agabep2jqz0kncwzihmy16hgu,3ifs6q0hjmw7sah5c7t0dsxvbwiis3,eI7D9FKk,2020-0188,2020-06-16,17:57:36,18:11:18,NA,incomplete,106,shape,0,1,left,Green_Star_Dots_2.jpg,Purple_Star_Grid_3.jpg,Green_Circle_Chess_1.jpg,left,857.5350000173785,true,high,false
eI7D9FKk,32204agabep2jqz0kncwzihmy16hgu,3ifs6q0hjmw7sah5c7t0dsxvbwiis3,eI7D9FKk,2020-0188,2020-06-16,17:57:36,18:11:18,NA,incomplete,107,shape,0,1,right,Green_Plus_Dots_1.jpg,Green_Star_Chess_4.jpg,Red_Plus_Stripes_2.jpg,right,787.4599999631755,true,high,false
eI7D9FKk,32204agabep2jqz0kncwzihmy16hgu,3ifs6q0hjmw7sah5c7t0dsxvbwiis3,eI7D9FKk,2020-0188,2020-06-16,17:57:36,18:11:18,NA,incomplete,108,shape,0,1,left,Blue_Triangle_Dots_2.jpg,Purple_Triangle_Chess_1.jpg,Blue_Star_Stripes_3.jpg,left,1152.414999960456,true,high,false
eI7D9FKk,32204agabep2jqz0kncwzihmy16hgu,3ifs6q0hjmw7sah5c7t0dsxvbwiis3,eI7D9FKk,2020-0188,2020-06-16,17:57:36,18:11:18,NA,incomplete,109,shape,0,0,right,Red_Triangle_Grid_2.jpg,Red_Circle_Stripes_1.jpg,Purple_Triangle_Dots_3.jpg,right,807.6200000359677,true,high,false
eI7D9FKk,32204agabep2jqz0kncwzihmy16hgu,3ifs6q0hjmw7sah5c7t0dsxvbwiis3,eI7D9FKk,2020-0188,2020-06-16,17:57:36,18:11:18,NA,incomplete,110,color,1,0,right,Red_Triangle_Grid_2.jpg,Blue_Triangle_Stripes_1.jpg,Red_Star_Dots_4.jpg,right,1544.9900000239722,true,high,false
eI7D9FKk,32204agabep2jqz0kncwzihmy16hgu,3ifs6q0hjmw7sah5c7t0dsxvbwiis3,eI7D9FKk,2020-0188,2020-06-16,17:57:36,18:11:18,NA,incomplete,111,color,1,1,right,Blue_Triangle_Chess_4.jpg,Green_Triangle_Stripes_3.jpg,Blue_Circle_Grid_2.jpg,right,1696.6450000181794,true,high,false
eI7D9FKk,32204agabep2jqz0kncwzihmy16hgu,3ifs6q0hjmw7sah5c7t0dsxvbwiis3,eI7D9FKk,2020-0188,2020-06-16,17:57:36,18:11:18,NA,incomplete,112,color,1,1,right,Purple_Circle_Grid_1.jpg,Green_Circle_Dots_4.jpg,Purple_Star_Stripes_2.jpg,right,1378.5250000073574,true,high,false
eI7D9FKk,32204agabep2jqz0kncwzihmy16hgu,3ifs6q0hjmw7sah5c7t0dsxvbwiis3,eI7D9FKk,2020-0188,2020-06-16,17:57:36,18:11:18,NA,incomplete,113,color,1,1,left,Blue_Triangle_Dots_3.jpg,Blue_Plus_Chess_1.jpg,Green_Triangle_Stripes_4.jpg,left,974.0200000233017,true,high,false
eI7D9FKk,32204agabep2jqz0kncwzihmy16hgu,3ifs6q0hjmw7sah5c7t0dsxvbwiis3,eI7D9FKk,2020-0188,2020-06-16,17:57:36,18:11:18,NA,incomplete,114,color,1,0,left,Green_Star_Stripes_4.jpg,Green_Triangle_Chess_2.jpg,Purple_Star_Grid_3.jpg,left,1163.7249999912456,true,high,false
eI7D9FKk,32204agabep2jqz0kncwzihmy16hgu,3ifs6q0hjmw7sah5c7t0dsxvbwiis3,eI7D9FKk,2020-0188,2020-06-16,17:57:36,18:11:18,NA,incomplete,115,color,1,1,right,Purple_Circle_Chess_3.jpg,Green_Circle_Grid_2.jpg,Purple_Plus_Dots_1.jpg,right,818.1099999928847,true,high,false
eI7D9FKk,32204agabep2jqz0kncwzihmy16hgu,3ifs6q0hjmw7sah5c7t0dsxvbwiis3,eI7D9FKk,2020-0188,2020-06-16,17:57:36,18:11:18,NA,incomplete,116,color,1,0,left,Red_Triangle_Grid_4.jpg,Red_Star_Chess_1.jpg,Purple_Triangle_Stripes_2.jpg,left,1077.4399999645539,true,high,false
eI7D9FKk,32204agabep2jqz0kncwzihmy16hgu,3ifs6q0hjmw7sah5c7t0dsxvbwiis3,eI7D9FKk,2020-0188,2020-06-16,17:57:36,18:11:18,NA,incomplete,117,color,1,1,right,Purple_Triangle_Stripes_1.jpg,Blue_Triangle_Grid_3.jpg,Purple_Circle_Dots_4.jpg,right,1168.4700000332668,true,high,false
eI7D9FKk,32204agabep2jqz0kncwzihmy16hgu,3ifs6q0hjmw7sah5c7t0dsxvbwiis3,eI7D9FKk,2020-0188,2020-06-16,17:57:36,18:11:18,NA,incomplete,118,color,1,1,left,Purple_Star_Dots_2.jpg,Purple_Circle_Stripes_4.jpg,Blue_Star_Chess_1.jpg,left,628.1749999616295,true,high,false
eI7D9FKk,32204agabep2jqz0kncwzihmy16hgu,3ifs6q0hjmw7sah5c7t0dsxvbwiis3,eI7D9FKk,2020-0188,2020-06-16,17:57:36,18:11:18,NA,incomplete,119,color,1,0,right,Purple_Triangle_Grid_1.jpg,Green_Triangle_Chess_4.jpg,Purple_Star_Stripes_2.jpg,right,1168.680000002496,true,high,false
eI7D9FKk,32204agabep2jqz0kncwzihmy16hgu,3ifs6q0hjmw7sah5c7t0dsxvbwiis3,eI7D9FKk,2020-0188,2020-06-16,17:57:36,18:11:18,NA,incomplete,120,gender,2,1,right,A_F_10.jpg,A_M_08.jpg,C_F_06.jpg,NA,NA,NA,high,false
eI7D9FKk,32204agabep2jqz0kncwzihmy16hgu,3ifs6q0hjmw7sah5c7t0dsxvbwiis3,eI7D9FKk,2020-0188,2020-06-16,17:57:36,18:11:18,NA,incomplete,121,gender,2,1,right,C_M_12.jpg,C_F_03.jpg,A_M_10.jpg,right,1158.6000000243075,true,high,false
eI7D9FKk,32204agabep2jqz0kncwzihmy16hgu,3ifs6q0hjmw7sah5c7t0dsxvbwiis3,eI7D9FKk,2020-0188,2020-06-16,17:57:36,18:11:18,NA,incomplete,122,gender,2,0,left,C_M_01.jpg,A_M_14.jpg,C_F_08.jpg,left,1124.1399999707937,true,high,false
eI7D9FKk,32204agabep2jqz0kncwzihmy16hgu,3ifs6q0hjmw7sah5c7t0dsxvbwiis3,eI7D9FKk,2020-0188,2020-06-16,17:57:36,18:11:18,NA,incomplete,123,gender,2,1,right,C_M_06.jpg,C_F_04.jpg,A_M_07.jpg,right,963.7199999997392,true,high,false
eI7D9FKk,32204agabep2jqz0kncwzihmy16hgu,3ifs6q0hjmw7sah5c7t0dsxvbwiis3,eI7D9FKk,2020-0188,2020-06-16,17:57:36,18:11:18,NA,incomplete,124,gender,2,0,right,A_M_02.jpg,A_F_13.jpg,C_M_10.jpg,right,1461.2749999505468,true,high,false
eI7D9FKk,32204agabep2jqz0kncwzihmy16hgu,3ifs6q0hjmw7sah5c7t0dsxvbwiis3,eI7D9FKk,2020-0188,2020-06-16,17:57:36,18:11:18,NA,incomplete,125,gender,2,1,right,C_F_06.jpg,C_M_16.jpg,A_F_10.jpg,right,1179.5700000366196,true,high,false
eI7D9FKk,32204agabep2jqz0kncwzihmy16hgu,3ifs6q0hjmw7sah5c7t0dsxvbwiis3,eI7D9FKk,2020-0188,2020-06-16,17:57:36,18:11:18,NA,incomplete,126,gender,2,1,left,C_F_02.jpg,A_F_16.jpg,C_M_05.jpg,left,1010.115000011865,true,high,false
eI7D9FKk,32204agabep2jqz0kncwzihmy16hgu,3ifs6q0hjmw7sah5c7t0dsxvbwiis3,eI7D9FKk,2020-0188,2020-06-16,17:57:36,18:11:18,NA,incomplete,127,gender,2,1,right,A_M_05.jpg,A_F_03.jpg,C_M_01.jpg,right,1093.8249999890104,true,high,false
eI7D9FKk,32204agabep2jqz0kncwzihmy16hgu,3ifs6q0hjmw7sah5c7t0dsxvbwiis3,eI7D9FKk,2020-0188,2020-06-16,17:57:36,18:11:18,NA,incomplete,128,gender,2,1,right,A_F_09.jpg,A_M_13.jpg,C_F_15.jpg,right,1119.890000030864,true,high,false
eI7D9FKk,32204agabep2jqz0kncwzihmy16hgu,3ifs6q0hjmw7sah5c7t0dsxvbwiis3,eI7D9FKk,2020-0188,2020-06-16,17:57:36,18:11:18,NA,incomplete,129,gender,2,1,right,C_F_16.jpg,C_M_05.jpg,A_F_10.jpg,right,992.7800000295974,true,high,false
eI7D9FKk,32204agabep2jqz0kncwzihmy16hgu,3ifs6q0hjmw7sah5c7t0dsxvbwiis3,eI7D9FKk,2020-0188,2020-06-16,17:57:36,18:11:18,NA,incomplete,130,gender,2,1,left,A_M_06.jpg,C_M_14.jpg,A_F_02.jpg,left,1177.6299999910407,true,high,false
eI7D9FKk,32204agabep2jqz0kncwzihmy16hgu,3ifs6q0hjmw7sah5c7t0dsxvbwiis3,eI7D9FKk,2020-0188,2020-06-16,17:57:36,18:11:18,NA,incomplete,131,gender,2,1,left,C_F_13.jpg,A_F_11.jpg,C_M_06.jpg,left,1359.249999979511,true,high,false
eI7D9FKk,32204agabep2jqz0kncwzihmy16hgu,3ifs6q0hjmw7sah5c7t0dsxvbwiis3,eI7D9FKk,2020-0188,2020-06-16,17:57:36,18:11:18,NA,incomplete,132,gender,2,1,right,C_M_06.jpg,C_F_09.jpg,A_M_15.jpg,right,1111.1849999870174,true,high,false
eI7D9FKk,32204agabep2jqz0kncwzihmy16hgu,3ifs6q0hjmw7sah5c7t0dsxvbwiis3,eI7D9FKk,2020-0188,2020-06-16,17:57:36,18:11:18,NA,incomplete,133,gender,2,1,right,A_M_13.jpg,A_F_01.jpg,C_M_11.jpg,right,958.4650000324473,true,high,false
eI7D9FKk,32204agabep2jqz0kncwzihmy16hgu,3ifs6q0hjmw7sah5c7t0dsxvbwiis3,eI7D9FKk,2020-0188,2020-06-16,17:57:36,18:11:18,NA,incomplete,134,gender,2,1,right,A_M_12.jpg,A_F_08.jpg,C_M_15.jpg,right,971.3800000026822,true,high,false
eI7D9FKk,32204agabep2jqz0kncwzihmy16hgu,3ifs6q0hjmw7sah5c7t0dsxvbwiis3,eI7D9FKk,2020-0188,2020-06-16,17:57:36,18:11:18,NA,incomplete,135,gender,2,1,left,C_F_16.jpg,A_F_06.jpg,C_M_01.jpg,left,1050.5950000369921,true,high,false
eI7D9FKk,32204agabep2jqz0kncwzihmy16hgu,3ifs6q0hjmw7sah5c7t0dsxvbwiis3,eI7D9FKk,2020-0188,2020-06-16,17:57:36,18:11:18,NA,incomplete,136,gender,2,0,left,A_M_02.jpg,C_M_04.jpg,A_F_10.jpg,left,915.2250000042841,true,high,false
eI7D9FKk,32204agabep2jqz0kncwzihmy16hgu,3ifs6q0hjmw7sah5c7t0dsxvbwiis3,eI7D9FKk,2020-0188,2020-06-16,17:57:36,18:11:18,NA,incomplete,137,gender,2,1,right,C_M_04.jpg,C_F_08.jpg,A_M_03.jpg,right,964.1700000502169,true,high,false
eI7D9FKk,32204agabep2jqz0kncwzihmy16hgu,3ifs6q0hjmw7sah5c7t0dsxvbwiis3,eI7D9FKk,2020-0188,2020-06-16,17:57:36,18:11:18,NA,incomplete,138,gender,2,0,right,A_M_10.jpg,A_F_16.jpg,C_M_08.jpg,right,1009.650000021793,true,high,false
eI7D9FKk,32204agabep2jqz0kncwzihmy16hgu,3ifs6q0hjmw7sah5c7t0dsxvbwiis3,eI7D9FKk,2020-0188,2020-06-16,17:57:36,18:11:18,NA,incomplete,139,gender,2,1,right,A_F_12.jpg,A_M_14.jpg,C_F_08.jpg,right,973.8149999757297,true,high,false
eI7D9FKk,32204agabep2jqz0kncwzihmy16hgu,3ifs6q0hjmw7sah5c7t0dsxvbwiis3,eI7D9FKk,2020-0188,2020-06-16,17:57:36,18:11:18,NA,incomplete,140,race,3,1,left,C_M_16.jpg,C_F_01.jpg,A_M_08.jpg,left,1155.6599999894388,true,high,false
eI7D9FKk,32204agabep2jqz0kncwzihmy16hgu,3ifs6q0hjmw7sah5c7t0dsxvbwiis3,eI7D9FKk,2020-0188,2020-06-16,17:57:36,18:11:18,NA,incomplete,141,race,3,1,right,C_M_03.jpg,A_M_07.jpg,C_F_14.jpg,left,944.9550000135787,false,high,false
eI7D9FKk,32204agabep2jqz0kncwzihmy16hgu,3ifs6q0hjmw7sah5c7t0dsxvbwiis3,eI7D9FKk,2020-0188,2020-06-16,17:57:36,18:11:18,NA,incomplete,142,race,3,1,left,A_F_12.jpg,A_M_10.jpg,C_F_02.jpg,right,921.9499999890104,false,high,false
eI7D9FKk,32204agabep2jqz0kncwzihmy16hgu,3ifs6q0hjmw7sah5c7t0dsxvbwiis3,eI7D9FKk,2020-0188,2020-06-16,17:57:36,18:11:18,NA,incomplete,143,race,3,0,left,A_M_08.jpg,A_F_06.jpg,C_M_16.jpg,left,1151.0250000283122,true,high,false
eI7D9FKk,32204agabep2jqz0kncwzihmy16hgu,3ifs6q0hjmw7sah5c7t0dsxvbwiis3,eI7D9FKk,2020-0188,2020-06-16,17:57:36,18:11:18,NA,incomplete,144,race,3,1,left,C_M_02.jpg,C_F_06.jpg,A_M_05.jpg,right,1429.3049999978393,false,high,false
eI7D9FKk,32204agabep2jqz0kncwzihmy16hgu,3ifs6q0hjmw7sah5c7t0dsxvbwiis3,eI7D9FKk,2020-0188,2020-06-16,17:57:36,18:11:18,NA,incomplete,145,race,3,0,right,A_M_08.jpg,C_M_12.jpg,A_F_04.jpg,right,952.6100000366569,true,high,false
eI7D9FKk,32204agabep2jqz0kncwzihmy16hgu,3ifs6q0hjmw7sah5c7t0dsxvbwiis3,eI7D9FKk,2020-0188,2020-06-16,17:57:36,18:11:18,NA,incomplete,146,race,3,1,left,C_F_02.jpg,C_M_15.jpg,A_F_10.jpg,left,952.0599999814294,true,high,false
eI7D9FKk,32204agabep2jqz0kncwzihmy16hgu,3ifs6q0hjmw7sah5c7t0dsxvbwiis3,eI7D9FKk,2020-0188,2020-06-16,17:57:36,18:11:18,NA,incomplete,147,race,3,0,right,A_M_03.jpg,C_M_11.jpg,A_F_15.jpg,right,1139.969999960158,true,high,false
eI7D9FKk,32204agabep2jqz0kncwzihmy16hgu,3ifs6q0hjmw7sah5c7t0dsxvbwiis3,eI7D9FKk,2020-0188,2020-06-16,17:57:36,18:11:18,NA,incomplete,148,race,3,1,right,A_F_10.jpg,C_F_16.jpg,A_M_05.jpg,right,883.6000000010245,true,high,false
eI7D9FKk,32204agabep2jqz0kncwzihmy16hgu,3ifs6q0hjmw7sah5c7t0dsxvbwiis3,eI7D9FKk,2020-0188,2020-06-16,17:57:36,18:11:18,NA,incomplete,149,race,3,0,right,C_F_01.jpg,A_F_05.jpg,C_M_08.jpg,right,1148.5949999769218,true,high,false
eI7D9FKk,32204agabep2jqz0kncwzihmy16hgu,3ifs6q0hjmw7sah5c7t0dsxvbwiis3,eI7D9FKk,2020-0188,2020-06-16,17:57:36,18:11:18,NA,incomplete,150,race,3,1,right,C_M_11.jpg,A_M_09.jpg,C_F_14.jpg,right,1118.4849999845028,true,high,false
eI7D9FKk,32204agabep2jqz0kncwzihmy16hgu,3ifs6q0hjmw7sah5c7t0dsxvbwiis3,eI7D9FKk,2020-0188,2020-06-16,17:57:36,18:11:18,NA,incomplete,151,race,3,1,right,C_M_16.jpg,A_M_02.jpg,C_F_03.jpg,right,954.9450000049546,true,high,false
eI7D9FKk,32204agabep2jqz0kncwzihmy16hgu,3ifs6q0hjmw7sah5c7t0dsxvbwiis3,eI7D9FKk,2020-0188,2020-06-16,17:57:36,18:11:18,NA,incomplete,152,race,3,0,left,A_M_16.jpg,A_F_02.jpg,C_M_03.jpg,left,1017.1850000042468,true,high,false
eI7D9FKk,32204agabep2jqz0kncwzihmy16hgu,3ifs6q0hjmw7sah5c7t0dsxvbwiis3,eI7D9FKk,2020-0188,2020-06-16,17:57:36,18:11:18,NA,incomplete,153,race,3,1,right,A_M_09.jpg,C_M_02.jpg,A_F_06.jpg,right,1130.635000008624,true,high,false
eI7D9FKk,32204agabep2jqz0kncwzihmy16hgu,3ifs6q0hjmw7sah5c7t0dsxvbwiis3,eI7D9FKk,2020-0188,2020-06-16,17:57:36,18:11:18,NA,incomplete,154,race,3,1,right,C_M_16.jpg,A_M_12.jpg,C_F_15.jpg,right,932.2799999499694,true,high,false
eI7D9FKk,32204agabep2jqz0kncwzihmy16hgu,3ifs6q0hjmw7sah5c7t0dsxvbwiis3,eI7D9FKk,2020-0188,2020-06-16,17:57:36,18:11:18,NA,incomplete,155,race,3,1,left,C_M_07.jpg,C_F_15.jpg,A_M_03.jpg,left,1083.2999999984168,true,high,false
eI7D9FKk,32204agabep2jqz0kncwzihmy16hgu,3ifs6q0hjmw7sah5c7t0dsxvbwiis3,eI7D9FKk,2020-0188,2020-06-16,17:57:36,18:11:18,NA,incomplete,156,race,3,1,left,C_M_12.jpg,C_F_09.jpg,A_M_07.jpg,left,1204.7650000313297,true,high,false
eI7D9FKk,32204agabep2jqz0kncwzihmy16hgu,3ifs6q0hjmw7sah5c7t0dsxvbwiis3,eI7D9FKk,2020-0188,2020-06-16,17:57:36,18:11:18,NA,incomplete,157,race,3,1,right,A_M_08.jpg,C_M_10.jpg,A_F_14.jpg,right,899.524999957066,true,high,false
eI7D9FKk,32204agabep2jqz0kncwzihmy16hgu,3ifs6q0hjmw7sah5c7t0dsxvbwiis3,eI7D9FKk,2020-0188,2020-06-16,17:57:36,18:11:18,NA,incomplete,158,race,3,1,right,A_F_03.jpg,C_F_15.jpg,A_M_16.jpg,right,882.4000000022352,true,high,false
eI7D9FKk,32204agabep2jqz0kncwzihmy16hgu,3ifs6q0hjmw7sah5c7t0dsxvbwiis3,eI7D9FKk,2020-0188,2020-06-16,17:57:36,18:11:18,NA,incomplete,159,race,3,1,left,C_F_02.jpg,C_M_06.jpg,A_F_15.jpg,left,907.4649999965914,true,high,false
eI7D9FKk,32204agabep2jqz0kncwzihmy16hgu,3ifs6q0hjmw7sah5c7t0dsxvbwiis3,eI7D9FKk,2020-0188,2020-06-16,17:57:36,18:11:18,NA,incomplete,160,gender,2,1,left,C_F_03.jpg,A_F_07.jpg,C_M_06.jpg,right,1004.1449999553151,false,high,false
eI7D9FKk,32204agabep2jqz0kncwzihmy16hgu,3ifs6q0hjmw7sah5c7t0dsxvbwiis3,eI7D9FKk,2020-0188,2020-06-16,17:57:36,18:11:18,NA,incomplete,161,gender,2,1,left,A_F_03.jpg,C_F_06.jpg,A_M_15.jpg,right,1270.8550000097603,false,high,false
eI7D9FKk,32204agabep2jqz0kncwzihmy16hgu,3ifs6q0hjmw7sah5c7t0dsxvbwiis3,eI7D9FKk,2020-0188,2020-06-16,17:57:36,18:11:18,NA,incomplete,162,gender,2,0,right,A_F_12.jpg,A_M_08.jpg,C_F_16.jpg,right,799.8999999836087,true,high,false
eI7D9FKk,32204agabep2jqz0kncwzihmy16hgu,3ifs6q0hjmw7sah5c7t0dsxvbwiis3,eI7D9FKk,2020-0188,2020-06-16,17:57:36,18:11:18,NA,incomplete,163,gender,2,1,left,C_F_02.jpg,A_F_01.jpg,C_M_07.jpg,left,755.7249999954365,true,high,false
eI7D9FKk,32204agabep2jqz0kncwzihmy16hgu,3ifs6q0hjmw7sah5c7t0dsxvbwiis3,eI7D9FKk,2020-0188,2020-06-16,17:57:36,18:11:18,NA,incomplete,164,gender,2,1,left,C_M_13.jpg,A_M_02.jpg,C_F_05.jpg,left,1020.6299999845214,true,high,false
eI7D9FKk,32204agabep2jqz0kncwzihmy16hgu,3ifs6q0hjmw7sah5c7t0dsxvbwiis3,eI7D9FKk,2020-0188,2020-06-16,17:57:36,18:11:18,NA,incomplete,165,gender,2,1,left,A_M_01.jpg,C_M_02.jpg,A_F_16.jpg,left,758.6100000189617,true,high,false
eI7D9FKk,32204agabep2jqz0kncwzihmy16hgu,3ifs6q0hjmw7sah5c7t0dsxvbwiis3,eI7D9FKk,2020-0188,2020-06-16,17:57:36,18:11:18,NA,incomplete,166,gender,2,1,right,A_M_13.jpg,A_F_09.jpg,C_M_12.jpg,right,893.3950000209734,true,high,false
eI7D9FKk,32204agabep2jqz0kncwzihmy16hgu,3ifs6q0hjmw7sah5c7t0dsxvbwiis3,eI7D9FKk,2020-0188,2020-06-16,17:57:36,18:11:18,NA,incomplete,167,gender,2,1,right,A_M_05.jpg,A_F_08.jpg,C_M_16.jpg,right,917.1550000319257,true,high,false
eI7D9FKk,32204agabep2jqz0kncwzihmy16hgu,3ifs6q0hjmw7sah5c7t0dsxvbwiis3,eI7D9FKk,2020-0188,2020-06-16,17:57:36,18:11:18,NA,incomplete,168,gender,2,1,left,A_M_13.jpg,C_M_15.jpg,A_F_06.jpg,left,851.7799999681301,true,high,false
eI7D9FKk,32204agabep2jqz0kncwzihmy16hgu,3ifs6q0hjmw7sah5c7t0dsxvbwiis3,eI7D9FKk,2020-0188,2020-06-16,17:57:36,18:11:18,NA,incomplete,169,gender,2,1,left,C_M_15.jpg,A_M_05.jpg,C_F_16.jpg,left,678.5150000359863,true,high,false
eI7D9FKk,32204agabep2jqz0kncwzihmy16hgu,3ifs6q0hjmw7sah5c7t0dsxvbwiis3,eI7D9FKk,2020-0188,2020-06-16,17:57:36,18:11:18,NA,incomplete,170,gender,2,1,right,A_M_13.jpg,A_F_02.jpg,C_M_05.jpg,right,807.509999955073,true,high,false
eI7D9FKk,32204agabep2jqz0kncwzihmy16hgu,3ifs6q0hjmw7sah5c7t0dsxvbwiis3,eI7D9FKk,2020-0188,2020-06-16,17:57:36,18:11:18,NA,incomplete,171,gender,2,1,left,A_M_12.jpg,C_M_10.jpg,A_F_06.jpg,left,759.6949999569915,true,high,false
eI7D9FKk,32204agabep2jqz0kncwzihmy16hgu,3ifs6q0hjmw7sah5c7t0dsxvbwiis3,eI7D9FKk,2020-0188,2020-06-16,17:57:36,18:11:18,NA,incomplete,172,gender,2,1,right,C_M_12.jpg,C_F_03.jpg,A_M_16.jpg,right,825.6200000178069,true,high,false
eI7D9FKk,32204agabep2jqz0kncwzihmy16hgu,3ifs6q0hjmw7sah5c7t0dsxvbwiis3,eI7D9FKk,2020-0188,2020-06-16,17:57:36,18:11:18,NA,incomplete,173,gender,2,1,left,A_F_09.jpg,C_F_02.jpg,A_M_11.jpg,left,759.8899999866262,true,high,false
eI7D9FKk,32204agabep2jqz0kncwzihmy16hgu,3ifs6q0hjmw7sah5c7t0dsxvbwiis3,eI7D9FKk,2020-0188,2020-06-16,17:57:36,18:11:18,NA,incomplete,174,gender,2,1,left,C_F_04.jpg,A_F_02.jpg,C_M_07.jpg,left,717.5750000169501,true,high,false
eI7D9FKk,32204agabep2jqz0kncwzihmy16hgu,3ifs6q0hjmw7sah5c7t0dsxvbwiis3,eI7D9FKk,2020-0188,2020-06-16,17:57:36,18:11:18,NA,incomplete,175,gender,2,1,right,C_F_11.jpg,C_M_06.jpg,A_F_02.jpg,right,763.2599999778904,true,high,false
eI7D9FKk,32204agabep2jqz0kncwzihmy16hgu,3ifs6q0hjmw7sah5c7t0dsxvbwiis3,eI7D9FKk,2020-0188,2020-06-16,17:57:36,18:11:18,NA,incomplete,176,gender,2,1,right,A_M_09.jpg,A_F_02.jpg,C_M_06.jpg,right,914.5600000047125,true,high,false
eI7D9FKk,32204agabep2jqz0kncwzihmy16hgu,3ifs6q0hjmw7sah5c7t0dsxvbwiis3,eI7D9FKk,2020-0188,2020-06-16,17:57:36,18:11:18,NA,incomplete,177,gender,2,0,left,C_F_14.jpg,A_F_02.jpg,C_M_12.jpg,left,1035.0549999857321,true,high,false
eI7D9FKk,32204agabep2jqz0kncwzihmy16hgu,3ifs6q0hjmw7sah5c7t0dsxvbwiis3,eI7D9FKk,2020-0188,2020-06-16,17:57:36,18:11:18,NA,incomplete,178,gender,2,1,right,C_F_01.jpg,C_M_12.jpg,A_F_08.jpg,right,947.6900000008754,true,high,false
eI7D9FKk,32204agabep2jqz0kncwzihmy16hgu,3ifs6q0hjmw7sah5c7t0dsxvbwiis3,eI7D9FKk,2020-0188,2020-06-16,17:57:36,18:11:18,NA,incomplete,179,gender,2,0,right,A_F_06.jpg,A_M_13.jpg,C_F_05.jpg,right,922.4049999611452,true,high,false
eI7D9FKk,32204agabep2jqz0kncwzihmy16hgu,3ifs6q0hjmw7sah5c7t0dsxvbwiis3,eI7D9FKk,2020-0188,2020-06-16,17:57:36,18:11:18,NA,incomplete,180,race,3,1,right,A_F_02.jpg,C_F_10.jpg,A_M_15.jpg,left,794.019999972079,false,high,false
eI7D9FKk,32204agabep2jqz0kncwzihmy16hgu,3ifs6q0hjmw7sah5c7t0dsxvbwiis3,eI7D9FKk,2020-0188,2020-06-16,17:57:36,18:11:18,NA,incomplete,181,race,3,1,left,C_M_11.jpg,C_F_01.jpg,A_M_15.jpg,right,1023.0050000245683,false,high,false
eI7D9FKk,32204agabep2jqz0kncwzihmy16hgu,3ifs6q0hjmw7sah5c7t0dsxvbwiis3,eI7D9FKk,2020-0188,2020-06-16,17:57:36,18:11:18,NA,incomplete,182,race,3,1,right,A_F_13.jpg,C_F_10.jpg,A_M_12.jpg,right,1297.9500000365078,true,high,false
eI7D9FKk,32204agabep2jqz0kncwzihmy16hgu,3ifs6q0hjmw7sah5c7t0dsxvbwiis3,eI7D9FKk,2020-0188,2020-06-16,17:57:36,18:11:18,NA,incomplete,183,race,3,1,left,A_M_02.jpg,A_F_09.jpg,C_M_14.jpg,left,935.3549999650568,true,high,false
eI7D9FKk,32204agabep2jqz0kncwzihmy16hgu,3ifs6q0hjmw7sah5c7t0dsxvbwiis3,eI7D9FKk,2020-0188,2020-06-16,17:57:36,18:11:18,NA,incomplete,184,race,3,0,right,C_M_13.jpg,A_M_10.jpg,C_F_01.jpg,right,1097.9900000384077,true,high,false
eI7D9FKk,32204agabep2jqz0kncwzihmy16hgu,3ifs6q0hjmw7sah5c7t0dsxvbwiis3,eI7D9FKk,2020-0188,2020-06-16,17:57:36,18:11:18,NA,incomplete,185,race,3,1,left,A_M_04.jpg,A_F_01.jpg,C_M_08.jpg,left,1004.079999984242,true,high,false
eI7D9FKk,32204agabep2jqz0kncwzihmy16hgu,3ifs6q0hjmw7sah5c7t0dsxvbwiis3,eI7D9FKk,2020-0188,2020-06-16,17:57:36,18:11:18,NA,incomplete,186,race,3,0,right,C_M_07.jpg,A_M_10.jpg,C_F_09.jpg,left,1062.5649999710731,false,high,false
eI7D9FKk,32204agabep2jqz0kncwzihmy16hgu,3ifs6q0hjmw7sah5c7t0dsxvbwiis3,eI7D9FKk,2020-0188,2020-06-16,17:57:36,18:11:18,NA,incomplete,187,race,3,1,right,A_M_16.jpg,C_M_04.jpg,A_F_11.jpg,right,920.685000019148,true,high,false
eI7D9FKk,32204agabep2jqz0kncwzihmy16hgu,3ifs6q0hjmw7sah5c7t0dsxvbwiis3,eI7D9FKk,2020-0188,2020-06-16,17:57:36,18:11:18,NA,incomplete,188,race,3,1,right,A_F_06.jpg,C_F_12.jpg,A_M_03.jpg,right,904.8150000162423,true,high,false
eI7D9FKk,32204agabep2jqz0kncwzihmy16hgu,3ifs6q0hjmw7sah5c7t0dsxvbwiis3,eI7D9FKk,2020-0188,2020-06-16,17:57:36,18:11:18,NA,incomplete,189,race,3,0,left,C_M_08.jpg,C_F_16.jpg,A_M_12.jpg,left,935.8249999932013,true,high,false
eI7D9FKk,32204agabep2jqz0kncwzihmy16hgu,3ifs6q0hjmw7sah5c7t0dsxvbwiis3,eI7D9FKk,2020-0188,2020-06-16,17:57:36,18:11:18,NA,incomplete,190,race,3,1,right,C_F_12.jpg,A_F_11.jpg,C_M_02.jpg,right,1126.8500000005588,true,high,false
eI7D9FKk,32204agabep2jqz0kncwzihmy16hgu,3ifs6q0hjmw7sah5c7t0dsxvbwiis3,eI7D9FKk,2020-0188,2020-06-16,17:57:36,18:11:18,NA,incomplete,191,race,3,1,right,A_M_15.jpg,C_M_04.jpg,A_F_08.jpg,right,878.5050000296906,true,high,false
eI7D9FKk,32204agabep2jqz0kncwzihmy16hgu,3ifs6q0hjmw7sah5c7t0dsxvbwiis3,eI7D9FKk,2020-0188,2020-06-16,17:57:36,18:11:18,NA,incomplete,192,race,3,1,left,A_F_03.jpg,A_M_10.jpg,C_F_12.jpg,left,1000.7949999999255,true,high,false
eI7D9FKk,32204agabep2jqz0kncwzihmy16hgu,3ifs6q0hjmw7sah5c7t0dsxvbwiis3,eI7D9FKk,2020-0188,2020-06-16,17:57:36,18:11:18,NA,incomplete,193,race,3,0,left,A_F_02.jpg,A_M_11.jpg,C_F_06.jpg,left,901.1499999905936,true,high,false
eI7D9FKk,32204agabep2jqz0kncwzihmy16hgu,3ifs6q0hjmw7sah5c7t0dsxvbwiis3,eI7D9FKk,2020-0188,2020-06-16,17:57:36,18:11:18,NA,incomplete,194,race,3,1,left,A_F_09.jpg,A_M_01.jpg,C_F_12.jpg,left,773.5799999791197,true,high,false
eI7D9FKk,32204agabep2jqz0kncwzihmy16hgu,3ifs6q0hjmw7sah5c7t0dsxvbwiis3,eI7D9FKk,2020-0188,2020-06-16,17:57:36,18:11:18,NA,incomplete,195,race,3,1,left,C_M_16.jpg,C_F_10.jpg,A_M_08.jpg,left,907.0550000178628,true,high,false
eI7D9FKk,32204agabep2jqz0kncwzihmy16hgu,3ifs6q0hjmw7sah5c7t0dsxvbwiis3,eI7D9FKk,2020-0188,2020-06-16,17:57:36,18:11:18,NA,incomplete,196,race,3,1,left,C_M_04.jpg,C_F_07.jpg,A_M_03.jpg,left,1009.5399999991059,true,high,false
eI7D9FKk,32204agabep2jqz0kncwzihmy16hgu,3ifs6q0hjmw7sah5c7t0dsxvbwiis3,eI7D9FKk,2020-0188,2020-06-16,17:57:36,18:11:18,NA,incomplete,197,race,3,1,right,C_M_11.jpg,A_M_05.jpg,C_F_04.jpg,right,879.5750000281259,true,high,false
eI7D9FKk,32204agabep2jqz0kncwzihmy16hgu,3ifs6q0hjmw7sah5c7t0dsxvbwiis3,eI7D9FKk,2020-0188,2020-06-16,17:57:36,18:11:18,NA,incomplete,198,race,3,1,right,C_F_05.jpg,A_F_10.jpg,C_M_11.jpg,right,895.1200000010431,true,high,false
eI7D9FKk,32204agabep2jqz0kncwzihmy16hgu,3ifs6q0hjmw7sah5c7t0dsxvbwiis3,eI7D9FKk,2020-0188,2020-06-16,17:57:36,18:11:18,NA,incomplete,199,race,3,1,left,A_M_09.jpg,A_F_10.jpg,C_M_01.jpg,left,768.9399999799207,true,high,false
eI7D9FKk,32204agabep2jqz0kncwzihmy16hgu,3ifs6q0hjmw7sah5c7t0dsxvbwiis3,eI7D9FKk,2020-0188,2020-06-16,17:57:36,18:11:18,NA,incomplete,200,gender,2,1,right,C_F_06.jpg,C_M_16.jpg,A_F_05.jpg,left,854.7850000322796,false,high,false
eI7D9FKk,32204agabep2jqz0kncwzihmy16hgu,3ifs6q0hjmw7sah5c7t0dsxvbwiis3,eI7D9FKk,2020-0188,2020-06-16,17:57:36,18:11:18,NA,incomplete,201,gender,2,1,right,C_F_12.jpg,C_M_07.jpg,A_F_04.jpg,left,805.6649999925867,false,high,false
eI7D9FKk,32204agabep2jqz0kncwzihmy16hgu,3ifs6q0hjmw7sah5c7t0dsxvbwiis3,eI7D9FKk,2020-0188,2020-06-16,17:57:36,18:11:18,NA,incomplete,202,gender,2,0,right,A_M_16.jpg,A_F_14.jpg,C_M_01.jpg,right,761.2150000059046,true,high,false
eI7D9FKk,32204agabep2jqz0kncwzihmy16hgu,3ifs6q0hjmw7sah5c7t0dsxvbwiis3,eI7D9FKk,2020-0188,2020-06-16,17:57:36,18:11:18,NA,incomplete,203,gender,2,1,left,A_F_04.jpg,C_F_13.jpg,A_M_03.jpg,left,1040.770000021439,true,high,false
eI7D9FKk,32204agabep2jqz0kncwzihmy16hgu,3ifs6q0hjmw7sah5c7t0dsxvbwiis3,eI7D9FKk,2020-0188,2020-06-16,17:57:36,18:11:18,NA,incomplete,204,gender,2,1,left,C_M_16.jpg,A_M_03.jpg,C_F_14.jpg,left,791.0249999840744,true,high,false
eI7D9FKk,32204agabep2jqz0kncwzihmy16hgu,3ifs6q0hjmw7sah5c7t0dsxvbwiis3,eI7D9FKk,2020-0188,2020-06-16,17:57:36,18:11:18,NA,incomplete,205,gender,2,0,right,C_F_09.jpg,C_M_03.jpg,A_F_02.jpg,right,727.965000027325,true,high,false
eI7D9FKk,32204agabep2jqz0kncwzihmy16hgu,3ifs6q0hjmw7sah5c7t0dsxvbwiis3,eI7D9FKk,2020-0188,2020-06-16,17:57:36,18:11:18,NA,incomplete,206,gender,2,1,left,C_F_16.jpg,A_F_13.jpg,C_M_15.jpg,left,951.1899999924935,true,high,false
eI7D9FKk,32204agabep2jqz0kncwzihmy16hgu,3ifs6q0hjmw7sah5c7t0dsxvbwiis3,eI7D9FKk,2020-0188,2020-06-16,17:57:36,18:11:18,NA,incomplete,207,gender,2,1,right,A_M_04.jpg,A_F_11.jpg,C_M_12.jpg,right,845.2650000108406,true,high,false
eI7D9FKk,32204agabep2jqz0kncwzihmy16hgu,3ifs6q0hjmw7sah5c7t0dsxvbwiis3,eI7D9FKk,2020-0188,2020-06-16,17:57:36,18:11:18,NA,incomplete,208,gender,2,1,right,C_M_05.jpg,C_F_03.jpg,A_M_04.jpg,right,823.1399999931455,true,high,false
eI7D9FKk,32204agabep2jqz0kncwzihmy16hgu,3ifs6q0hjmw7sah5c7t0dsxvbwiis3,eI7D9FKk,2020-0188,2020-06-16,17:57:36,18:11:18,NA,incomplete,209,gender,2,1,right,A_F_07.jpg,A_M_15.jpg,C_F_11.jpg,right,882.4349999777041,true,high,false
eI7D9FKk,32204agabep2jqz0kncwzihmy16hgu,3ifs6q0hjmw7sah5c7t0dsxvbwiis3,eI7D9FKk,2020-0188,2020-06-16,17:57:36,18:11:18,NA,incomplete,210,gender,2,1,right,A_F_16.jpg,A_M_14.jpg,C_F_10.jpg,right,780.4100000066683,true,high,false
eI7D9FKk,32204agabep2jqz0kncwzihmy16hgu,3ifs6q0hjmw7sah5c7t0dsxvbwiis3,eI7D9FKk,2020-0188,2020-06-16,17:57:36,18:11:18,NA,incomplete,211,gender,2,1,left,C_F_11.jpg,A_F_02.jpg,C_M_09.jpg,left,769.2900000256486,true,high,false
eI7D9FKk,32204agabep2jqz0kncwzihmy16hgu,3ifs6q0hjmw7sah5c7t0dsxvbwiis3,eI7D9FKk,2020-0188,2020-06-16,17:57:36,18:11:18,NA,incomplete,212,gender,2,1,right,A_F_04.jpg,A_M_16.jpg,C_F_14.jpg,right,704.2549999896437,true,high,false
eI7D9FKk,32204agabep2jqz0kncwzihmy16hgu,3ifs6q0hjmw7sah5c7t0dsxvbwiis3,eI7D9FKk,2020-0188,2020-06-16,17:57:36,18:11:18,NA,incomplete,213,gender,2,1,left,C_F_08.jpg,A_F_09.jpg,C_M_13.jpg,left,846.2550000404008,true,high,false
eI7D9FKk,32204agabep2jqz0kncwzihmy16hgu,3ifs6q0hjmw7sah5c7t0dsxvbwiis3,eI7D9FKk,2020-0188,2020-06-16,17:57:36,18:11:18,NA,incomplete,214,gender,2,1,right,A_F_12.jpg,A_M_14.jpg,C_F_07.jpg,right,810.155000013765,true,high,false
eI7D9FKk,32204agabep2jqz0kncwzihmy16hgu,3ifs6q0hjmw7sah5c7t0dsxvbwiis3,eI7D9FKk,2020-0188,2020-06-16,17:57:36,18:11:18,NA,incomplete,215,gender,2,1,right,A_M_10.jpg,A_F_02.jpg,C_M_08.jpg,right,792.1550000319257,true,high,false
eI7D9FKk,32204agabep2jqz0kncwzihmy16hgu,3ifs6q0hjmw7sah5c7t0dsxvbwiis3,eI7D9FKk,2020-0188,2020-06-16,17:57:36,18:11:18,NA,incomplete,216,gender,2,1,right,A_F_12.jpg,A_M_11.jpg,C_F_16.jpg,right,674.4650000473484,true,high,false
eI7D9FKk,32204agabep2jqz0kncwzihmy16hgu,3ifs6q0hjmw7sah5c7t0dsxvbwiis3,eI7D9FKk,2020-0188,2020-06-16,17:57:36,18:11:18,NA,incomplete,217,gender,2,1,left,A_F_09.jpg,C_F_12.jpg,A_M_01.jpg,left,891.7350000119768,true,high,false
eI7D9FKk,32204agabep2jqz0kncwzihmy16hgu,3ifs6q0hjmw7sah5c7t0dsxvbwiis3,eI7D9FKk,2020-0188,2020-06-16,17:57:36,18:11:18,NA,incomplete,218,gender,2,1,right,C_M_03.jpg,C_F_13.jpg,A_M_15.jpg,right,797.5299999816343,true,high,false
eI7D9FKk,32204agabep2jqz0kncwzihmy16hgu,3ifs6q0hjmw7sah5c7t0dsxvbwiis3,eI7D9FKk,2020-0188,2020-06-16,17:57:36,18:11:18,NA,incomplete,219,gender,2,0,left,C_F_05.jpg,A_F_03.jpg,C_M_07.jpg,left,832.4399999692105,true,high,false
eI7D9FKk,32204agabep2jqz0kncwzihmy16hgu,3ifs6q0hjmw7sah5c7t0dsxvbwiis3,eI7D9FKk,2020-0188,2020-06-16,17:57:36,18:11:18,NA,incomplete,220,race,3,1,left,A_M_14.jpg,A_F_02.jpg,C_M_16.jpg,right,748.9899999927729,false,high,false
eI7D9FKk,32204agabep2jqz0kncwzihmy16hgu,3ifs6q0hjmw7sah5c7t0dsxvbwiis3,eI7D9FKk,2020-0188,2020-06-16,17:57:36,18:11:18,NA,incomplete,221,race,3,0,left,C_F_08.jpg,C_M_10.jpg,A_F_16.jpg,left,763.875000004191,true,high,false
eI7D9FKk,32204agabep2jqz0kncwzihmy16hgu,3ifs6q0hjmw7sah5c7t0dsxvbwiis3,eI7D9FKk,2020-0188,2020-06-16,17:57:36,18:11:18,NA,incomplete,222,race,3,1,left,A_F_08.jpg,A_M_04.jpg,C_F_13.jpg,left,960.7549999491312,true,high,false
eI7D9FKk,32204agabep2jqz0kncwzihmy16hgu,3ifs6q0hjmw7sah5c7t0dsxvbwiis3,eI7D9FKk,2020-0188,2020-06-16,17:57:36,18:11:18,NA,incomplete,223,race,3,0,left,C_M_13.jpg,C_F_02.jpg,A_M_07.jpg,left,903.7949999910779,true,high,false
eI7D9FKk,32204agabep2jqz0kncwzihmy16hgu,3ifs6q0hjmw7sah5c7t0dsxvbwiis3,eI7D9FKk,2020-0188,2020-06-16,17:57:36,18:11:18,NA,incomplete,224,race,3,1,left,A_F_04.jpg,A_M_08.jpg,C_F_15.jpg,left,782.5700000394136,true,high,false
eI7D9FKk,32204agabep2jqz0kncwzihmy16hgu,3ifs6q0hjmw7sah5c7t0dsxvbwiis3,eI7D9FKk,2020-0188,2020-06-16,17:57:36,18:11:18,NA,incomplete,225,race,3,1,left,A_F_09.jpg,A_M_10.jpg,C_F_04.jpg,left,924.6249999850988,true,high,false
eI7D9FKk,32204agabep2jqz0kncwzihmy16hgu,3ifs6q0hjmw7sah5c7t0dsxvbwiis3,eI7D9FKk,2020-0188,2020-06-16,17:57:36,18:11:18,NA,incomplete,226,race,3,1,right,A_M_09.jpg,C_M_11.jpg,A_F_05.jpg,right,915.3999999980442,true,high,false
eI7D9FKk,32204agabep2jqz0kncwzihmy16hgu,3ifs6q0hjmw7sah5c7t0dsxvbwiis3,eI7D9FKk,2020-0188,2020-06-16,17:57:36,18:11:18,NA,incomplete,227,race,3,0,left,C_F_16.jpg,C_M_05.jpg,A_F_11.jpg,left,853.5549999796785,true,high,false
eI7D9FKk,32204agabep2jqz0kncwzihmy16hgu,3ifs6q0hjmw7sah5c7t0dsxvbwiis3,eI7D9FKk,2020-0188,2020-06-16,17:57:36,18:11:18,NA,incomplete,228,race,3,1,right,A_M_05.jpg,C_M_11.jpg,A_F_13.jpg,right,781.5249999985099,true,high,false
eI7D9FKk,32204agabep2jqz0kncwzihmy16hgu,3ifs6q0hjmw7sah5c7t0dsxvbwiis3,eI7D9FKk,2020-0188,2020-06-16,17:57:36,18:11:18,NA,incomplete,229,race,3,1,left,A_M_15.jpg,A_F_11.jpg,C_M_06.jpg,left,970.3750000335276,true,high,false
eI7D9FKk,32204agabep2jqz0kncwzihmy16hgu,3ifs6q0hjmw7sah5c7t0dsxvbwiis3,eI7D9FKk,2020-0188,2020-06-16,17:57:36,18:11:18,NA,incomplete,230,race,3,1,right,A_F_08.jpg,C_F_16.jpg,A_M_07.jpg,right,753.435000020545,true,high,false
eI7D9FKk,32204agabep2jqz0kncwzihmy16hgu,3ifs6q0hjmw7sah5c7t0dsxvbwiis3,eI7D9FKk,2020-0188,2020-06-16,17:57:36,18:11:18,NA,incomplete,231,race,3,0,right,A_M_14.jpg,C_M_13.jpg,A_F_07.jpg,right,837.5399999786168,true,high,false
eI7D9FKk,32204agabep2jqz0kncwzihmy16hgu,3ifs6q0hjmw7sah5c7t0dsxvbwiis3,eI7D9FKk,2020-0188,2020-06-16,17:57:36,18:11:18,NA,incomplete,232,race,3,1,right,A_M_05.jpg,C_M_15.jpg,A_F_03.jpg,right,704.6600000467151,true,high,false
eI7D9FKk,32204agabep2jqz0kncwzihmy16hgu,3ifs6q0hjmw7sah5c7t0dsxvbwiis3,eI7D9FKk,2020-0188,2020-06-16,17:57:36,18:11:18,NA,incomplete,233,race,3,1,right,C_M_06.jpg,A_M_01.jpg,C_F_08.jpg,right,1017.2449999954551,true,high,false
eI7D9FKk,32204agabep2jqz0kncwzihmy16hgu,3ifs6q0hjmw7sah5c7t0dsxvbwiis3,eI7D9FKk,2020-0188,2020-06-16,17:57:36,18:11:18,NA,incomplete,234,race,3,0,right,C_M_01.jpg,A_M_13.jpg,C_F_08.jpg,right,910.7250000233762,true,high,false
eI7D9FKk,32204agabep2jqz0kncwzihmy16hgu,3ifs6q0hjmw7sah5c7t0dsxvbwiis3,eI7D9FKk,2020-0188,2020-06-16,17:57:36,18:11:18,NA,incomplete,235,race,3,1,left,C_M_09.jpg,C_F_05.jpg,A_M_14.jpg,left,836.8849999969825,true,high,false
eI7D9FKk,32204agabep2jqz0kncwzihmy16hgu,3ifs6q0hjmw7sah5c7t0dsxvbwiis3,eI7D9FKk,2020-0188,2020-06-16,17:57:36,18:11:18,NA,incomplete,236,race,3,1,right,C_F_12.jpg,A_F_13.jpg,C_M_15.jpg,right,911.7899999837391,true,high,false
eI7D9FKk,32204agabep2jqz0kncwzihmy16hgu,3ifs6q0hjmw7sah5c7t0dsxvbwiis3,eI7D9FKk,2020-0188,2020-06-16,17:57:36,18:11:18,NA,incomplete,237,race,3,1,left,C_F_05.jpg,C_M_09.jpg,A_F_16.jpg,left,998.665000020992,true,high,false
eI7D9FKk,32204agabep2jqz0kncwzihmy16hgu,3ifs6q0hjmw7sah5c7t0dsxvbwiis3,eI7D9FKk,2020-0188,2020-06-16,17:57:36,18:11:18,NA,incomplete,238,race,3,1,left,C_M_05.jpg,C_F_16.jpg,A_M_15.jpg,left,811.3850000081584,true,high,false
eI7D9FKk,32204agabep2jqz0kncwzihmy16hgu,3ifs6q0hjmw7sah5c7t0dsxvbwiis3,eI7D9FKk,2020-0188,2020-06-16,17:57:36,18:11:18,NA,incomplete,239,race,3,1,right,A_F_05.jpg,C_F_10.jpg,A_M_01.jpg,right,877.5199999799952,true,high,false
eI7D9FKk,32204agabep2jqz0kncwzihmy16hgu,3ifs6q0hjmw7sah5c7t0dsxvbwiis3,eI7D9FKk,2020-0188,2020-06-16,17:57:36,18:11:18,NA,NA,instruction example,shape,NA,NA,NA,Blue_Star_Chess_1.jpg,Red_Star_Stripes_3.jpg,Blue_Plus_Grid_4.jpg,NA,NA,NA,NA,undefined
eI7D9FKk,32204agabep2jqz0kncwzihmy16hgu,3ifs6q0hjmw7sah5c7t0dsxvbwiis3,eI7D9FKk,2020-0188,2020-06-16,17:57:36,18:11:18,NA,NA,instruction example,shape,NA,NA,NA,Red_Triangle_Grid_3.jpg,Red_Star_Stripes_2.jpg,Purple_Triangle_Dots_4.jpg,NA,NA,NA,NA,undefined
eI7D9FKk,32204agabep2jqz0kncwzihmy16hgu,3ifs6q0hjmw7sah5c7t0dsxvbwiis3,eI7D9FKk,2020-0188,2020-06-16,17:57:36,18:11:18,NA,NA,instruction example,shape,NA,NA,NA,C_F_06.jpg,A_F_14.jpg,C_M_10.jpg,NA,NA,NA,NA,undefined
eI7D9FKk,32204agabep2jqz0kncwzihmy16hgu,3ifs6q0hjmw7sah5c7t0dsxvbwiis3,eI7D9FKk,2020-0188,2020-06-16,17:57:36,18:11:18,NA,NA,instruction example,shape,NA,NA,NA,A_M_02.jpg,A_F_08.jpg,C_M_01.jpg,NA,NA,NA,NA,undefined
