workerId,hitId,assignmentId,subject,studyid,exp_date,exp_start,exp_end,time_start,time_end,trial,type,sequence,reward_validity,answer,image_top,image_left,image_right,response,response_time,response_acc,volatility,practice
DZzY4lSp,3e9vauv7czrnvucm8noapw1mqoqyaq,3ijxv6uz11wvrvhsxitvniszn0kira,DZzY4lSp,2020-0188,2020-06-04,10:37:45,11:19:55,NA,incomplete,0,color,0,1,right,Purple_Circle_Chess_1.jpg,Green_Plus_Chess_2.jpg,Purple_Triangle_Dots_4.jpg,right,1979.009999999078,true,NA,true
DZzY4lSp,3e9vauv7czrnvucm8noapw1mqoqyaq,3ijxv6uz11wvrvhsxitvniszn0kira,DZzY4lSp,2020-0188,2020-06-04,10:37:45,11:19:55,NA,incomplete,1,color,0,1,right,Blue_Plus_Grid_4.jpg,Green_Star_Grid_3.jpg,Blue_Triangle_Chess_1.jpg,right,1021.4699999997392,true,NA,true
DZzY4lSp,3e9vauv7czrnvucm8noapw1mqoqyaq,3ijxv6uz11wvrvhsxitvniszn0kira,DZzY4lSp,2020-0188,2020-06-04,10:37:45,11:19:55,NA,incomplete,2,color,0,1,left,Red_Circle_Dots_4.jpg,Red_Triangle_Stripes_2.jpg,Green_Star_Dots_3.jpg,left,1192.4600000001956,true,NA,true
DZzY4lSp,3e9vauv7czrnvucm8noapw1mqoqyaq,3ijxv6uz11wvrvhsxitvniszn0kira,DZzY4lSp,2020-0188,2020-06-04,10:37:45,11:19:55,NA,incomplete,3,color,0,1,left,Purple_Circle_Stripes_2.jpg,Purple_Star_Grid_3.jpg,Red_Plus_Stripes_4.jpg,left,1215.0350000010803,true,NA,true
DZzY4lSp,3e9vauv7czrnvucm8noapw1mqoqyaq,3ijxv6uz11wvrvhsxitvniszn0kira,DZzY4lSp,2020-0188,2020-06-04,10:37:45,11:19:55,NA,incomplete,4,color,0,1,right,Blue_Triangle_Dots_2.jpg,Green_Plus_Dots_1.jpg,Blue_Circle_Chess_3.jpg,right,1025.7599999986123,true,NA,true
DZzY4lSp,3e9vauv7czrnvucm8noapw1mqoqyaq,3ijxv6uz11wvrvhsxitvniszn0kira,DZzY4lSp,2020-0188,2020-06-04,10:37:45,11:19:55,NA,incomplete,5,color,0,1,right,Purple_Star_Chess_1.jpg,Blue_Circle_Chess_3.jpg,Purple_Triangle_Grid_2.jpg,right,1037.2349999996368,true,NA,true
DZzY4lSp,3e9vauv7czrnvucm8noapw1mqoqyaq,3ijxv6uz11wvrvhsxitvniszn0kira,DZzY4lSp,2020-0188,2020-06-04,10:37:45,11:19:55,NA,incomplete,6,color,0,1,left,Green_Triangle_Dots_4.jpg,Green_Plus_Stripes_1.jpg,Purple_Star_Dots_2.jpg,left,1174.1949999995995,true,NA,true
DZzY4lSp,3e9vauv7czrnvucm8noapw1mqoqyaq,3ijxv6uz11wvrvhsxitvniszn0kira,DZzY4lSp,2020-0188,2020-06-04,10:37:45,11:19:55,NA,incomplete,7,color,0,1,left,Purple_Star_Chess_4.jpg,Purple_Circle_Dots_3.jpg,Blue_Plus_Chess_2.jpg,left,1244.2399999999907,true,NA,true
DZzY4lSp,3e9vauv7czrnvucm8noapw1mqoqyaq,3ijxv6uz11wvrvhsxitvniszn0kira,DZzY4lSp,2020-0188,2020-06-04,10:37:45,11:19:55,NA,incomplete,8,color,0,0,left,Blue_Triangle_Dots_2.jpg,Blue_Plus_Stripes_3.jpg,Purple_Star_Dots_4.jpg,left,1068.9399999990128,true,NA,true
DZzY4lSp,3e9vauv7czrnvucm8noapw1mqoqyaq,3ijxv6uz11wvrvhsxitvniszn0kira,DZzY4lSp,2020-0188,2020-06-04,10:37:45,11:19:55,NA,incomplete,9,color,0,1,right,Purple_Circle_Chess_1.jpg,Red_Star_Chess_2.jpg,Purple_Triangle_Dots_4.jpg,right,1128.5149999985006,true,NA,true
DZzY4lSp,3e9vauv7czrnvucm8noapw1mqoqyaq,3ijxv6uz11wvrvhsxitvniszn0kira,DZzY4lSp,2020-0188,2020-06-04,10:37:45,11:19:55,NA,incomplete,10,color,0,0,right,Green_Plus_Stripes_1.jpg,Red_Star_Stripes_4.jpg,Green_Triangle_Grid_2.jpg,right,1050.6499999992084,true,NA,true
DZzY4lSp,3e9vauv7czrnvucm8noapw1mqoqyaq,3ijxv6uz11wvrvhsxitvniszn0kira,DZzY4lSp,2020-0188,2020-06-04,10:37:45,11:19:55,NA,incomplete,11,color,0,1,left,Red_Triangle_Dots_4.jpg,Red_Star_Chess_3.jpg,Green_Plus_Dots_1.jpg,left,1393.3950000011828,true,NA,true
DZzY4lSp,3e9vauv7czrnvucm8noapw1mqoqyaq,3ijxv6uz11wvrvhsxitvniszn0kira,DZzY4lSp,2020-0188,2020-06-04,10:37:45,11:19:55,NA,incomplete,12,color,0,1,right,Blue_Triangle_Dots_2.jpg,Purple_Star_Dots_4.jpg,Blue_Plus_Stripes_1.jpg,right,1002.6249999990687,true,NA,true
DZzY4lSp,3e9vauv7czrnvucm8noapw1mqoqyaq,3ijxv6uz11wvrvhsxitvniszn0kira,DZzY4lSp,2020-0188,2020-06-04,10:37:45,11:19:55,NA,incomplete,13,color,0,1,right,Purple_Plus_Dots_3.jpg,Green_Star_Dots_2.jpg,Purple_Circle_Stripes_4.jpg,right,997.3750000009313,true,NA,true
DZzY4lSp,3e9vauv7czrnvucm8noapw1mqoqyaq,3ijxv6uz11wvrvhsxitvniszn0kira,DZzY4lSp,2020-0188,2020-06-04,10:37:45,11:19:55,NA,incomplete,14,color,0,1,right,Green_Star_Grid_1.jpg,Blue_Triangle_Grid_2.jpg,Green_Circle_Stripes_4.jpg,right,1151.0899999993853,true,NA,true
DZzY4lSp,3e9vauv7czrnvucm8noapw1mqoqyaq,3ijxv6uz11wvrvhsxitvniszn0kira,DZzY4lSp,2020-0188,2020-06-04,10:37:45,11:19:55,NA,incomplete,15,color,0,1,right,Green_Star_Stripes_1.jpg,Blue_Triangle_Stripes_2.jpg,Green_Plus_Grid_3.jpg,right,884.3450000002049,true,NA,true
DZzY4lSp,3e9vauv7czrnvucm8noapw1mqoqyaq,3ijxv6uz11wvrvhsxitvniszn0kira,DZzY4lSp,2020-0188,2020-06-04,10:37:45,11:19:55,NA,incomplete,16,color,0,1,left,Purple_Plus_Chess_3.jpg,Purple_Triangle_Dots_1.jpg,Red_Star_Chess_2.jpg,left,1184.8600000012666,true,NA,true
DZzY4lSp,3e9vauv7czrnvucm8noapw1mqoqyaq,3ijxv6uz11wvrvhsxitvniszn0kira,DZzY4lSp,2020-0188,2020-06-04,10:37:45,11:19:55,NA,incomplete,17,color,0,1,left,Red_Circle_Dots_3.jpg,Red_Star_Chess_2.jpg,Purple_Plus_Dots_4.jpg,right,1679.2999999998137,false,NA,true
DZzY4lSp,3e9vauv7czrnvucm8noapw1mqoqyaq,3ijxv6uz11wvrvhsxitvniszn0kira,DZzY4lSp,2020-0188,2020-06-04,10:37:45,11:19:55,NA,incomplete,18,color,0,0,right,Green_Triangle_Chess_1.jpg,Blue_Plus_Chess_4.jpg,Green_Circle_Grid_3.jpg,right,1178.719999999972,true,NA,true
DZzY4lSp,3e9vauv7czrnvucm8noapw1mqoqyaq,3ijxv6uz11wvrvhsxitvniszn0kira,DZzY4lSp,2020-0188,2020-06-04,10:37:45,11:19:55,NA,incomplete,19,color,0,1,left,Green_Circle_Dots_1.jpg,Green_Triangle_Stripes_4.jpg,Red_Star_Dots_3.jpg,right,1474.1250000006985,false,NA,true
DZzY4lSp,3e9vauv7czrnvucm8noapw1mqoqyaq,3ijxv6uz11wvrvhsxitvniszn0kira,DZzY4lSp,2020-0188,2020-06-04,10:37:45,11:19:55,NA,incomplete,20,filling,1,1,left,Red_Plus_Stripes_4.jpg,Blue_Circle_Stripes_3.jpg,Red_Star_Dots_1.jpg,left,1297.914999999106,true,NA,true
DZzY4lSp,3e9vauv7czrnvucm8noapw1mqoqyaq,3ijxv6uz11wvrvhsxitvniszn0kira,DZzY4lSp,2020-0188,2020-06-04,10:37:45,11:19:55,NA,incomplete,21,filling,1,1,right,Green_Plus_Dots_2.jpg,Green_Star_Chess_1.jpg,Blue_Triangle_Dots_4.jpg,right,1704.5449999985285,true,NA,true
DZzY4lSp,3e9vauv7czrnvucm8noapw1mqoqyaq,3ijxv6uz11wvrvhsxitvniszn0kira,DZzY4lSp,2020-0188,2020-06-04,10:37:45,11:19:55,NA,incomplete,22,filling,1,0,left,Green_Triangle_Chess_1.jpg,Blue_Star_Chess_4.jpg,Green_Circle_Stripes_3.jpg,left,1340.7050000005402,true,NA,true
DZzY4lSp,3e9vauv7czrnvucm8noapw1mqoqyaq,3ijxv6uz11wvrvhsxitvniszn0kira,DZzY4lSp,2020-0188,2020-06-04,10:37:45,11:19:55,NA,incomplete,23,filling,1,1,left,Red_Plus_Stripes_2.jpg,Purple_Circle_Stripes_4.jpg,Red_Triangle_Chess_1.jpg,right,1293.5649999999441,false,NA,true
DZzY4lSp,3e9vauv7czrnvucm8noapw1mqoqyaq,3ijxv6uz11wvrvhsxitvniszn0kira,DZzY4lSp,2020-0188,2020-06-04,10:37:45,11:19:55,NA,incomplete,24,filling,1,0,right,Red_Plus_Dots_1.jpg,Red_Triangle_Stripes_3.jpg,Blue_Circle_Dots_2.jpg,right,1183.9650000003166,true,NA,true
DZzY4lSp,3e9vauv7czrnvucm8noapw1mqoqyaq,3ijxv6uz11wvrvhsxitvniszn0kira,DZzY4lSp,2020-0188,2020-06-04,10:37:45,11:19:55,NA,incomplete,25,filling,1,1,left,Red_Plus_Chess_4.jpg,Blue_Circle_Chess_1.jpg,Red_Star_Grid_2.jpg,right,1120.9250000012107,false,NA,true
DZzY4lSp,3e9vauv7czrnvucm8noapw1mqoqyaq,3ijxv6uz11wvrvhsxitvniszn0kira,DZzY4lSp,2020-0188,2020-06-04,10:37:45,11:19:55,NA,incomplete,26,filling,1,1,right,Green_Triangle_Grid_3.jpg,Green_Star_Dots_1.jpg,Purple_Circle_Grid_4.jpg,right,1420.2999999998137,true,NA,true
DZzY4lSp,3e9vauv7czrnvucm8noapw1mqoqyaq,3ijxv6uz11wvrvhsxitvniszn0kira,DZzY4lSp,2020-0188,2020-06-04,10:37:45,11:19:55,NA,incomplete,27,filling,1,1,left,Blue_Star_Chess_2.jpg,Purple_Circle_Chess_1.jpg,Blue_Triangle_Stripes_3.jpg,left,1290.9799999997485,true,NA,true
DZzY4lSp,3e9vauv7czrnvucm8noapw1mqoqyaq,3ijxv6uz11wvrvhsxitvniszn0kira,DZzY4lSp,2020-0188,2020-06-04,10:37:45,11:19:55,NA,incomplete,28,filling,1,1,left,Blue_Star_Dots_3.jpg,Purple_Triangle_Dots_1.jpg,Blue_Circle_Stripes_2.jpg,left,1480.4850000001024,true,NA,true
DZzY4lSp,3e9vauv7czrnvucm8noapw1mqoqyaq,3ijxv6uz11wvrvhsxitvniszn0kira,DZzY4lSp,2020-0188,2020-06-04,10:37:45,11:19:55,NA,incomplete,29,filling,1,1,left,Green_Star_Stripes_4.jpg,Purple_Plus_Stripes_1.jpg,Green_Circle_Chess_3.jpg,right,1149.3099999988917,false,NA,true
DZzY4lSp,3e9vauv7czrnvucm8noapw1mqoqyaq,3ijxv6uz11wvrvhsxitvniszn0kira,DZzY4lSp,2020-0188,2020-06-04,10:37:45,11:19:55,NA,incomplete,30,filling,1,0,right,Purple_Star_Stripes_1.jpg,Purple_Plus_Grid_3.jpg,Green_Triangle_Stripes_4.jpg,right,1273.794999999227,true,NA,true
DZzY4lSp,3e9vauv7czrnvucm8noapw1mqoqyaq,3ijxv6uz11wvrvhsxitvniszn0kira,DZzY4lSp,2020-0188,2020-06-04,10:37:45,11:19:55,NA,incomplete,31,filling,1,1,right,Red_Plus_Stripes_1.jpg,Red_Triangle_Grid_4.jpg,Blue_Star_Stripes_3.jpg,left,1461.6349999995437,false,NA,true
DZzY4lSp,3e9vauv7czrnvucm8noapw1mqoqyaq,3ijxv6uz11wvrvhsxitvniszn0kira,DZzY4lSp,2020-0188,2020-06-04,10:37:45,11:19:55,NA,incomplete,32,filling,1,0,right,Blue_Triangle_Dots_4.jpg,Blue_Circle_Stripes_1.jpg,Purple_Plus_Dots_3.jpg,right,1332.9250000005122,true,NA,true
DZzY4lSp,3e9vauv7czrnvucm8noapw1mqoqyaq,3ijxv6uz11wvrvhsxitvniszn0kira,DZzY4lSp,2020-0188,2020-06-04,10:37:45,11:19:55,NA,incomplete,33,filling,1,1,left,Blue_Plus_Chess_3.jpg,Green_Triangle_Chess_4.jpg,Blue_Star_Grid_2.jpg,right,1098.7650000008289,false,NA,true
DZzY4lSp,3e9vauv7czrnvucm8noapw1mqoqyaq,3ijxv6uz11wvrvhsxitvniszn0kira,DZzY4lSp,2020-0188,2020-06-04,10:37:45,11:19:55,NA,incomplete,34,filling,1,1,left,Green_Plus_Grid_1.jpg,Blue_Star_Grid_2.jpg,Green_Circle_Stripes_4.jpg,left,1594.1099999998696,true,NA,true
DZzY4lSp,3e9vauv7czrnvucm8noapw1mqoqyaq,3ijxv6uz11wvrvhsxitvniszn0kira,DZzY4lSp,2020-0188,2020-06-04,10:37:45,11:19:55,NA,incomplete,35,filling,1,1,right,Red_Plus_Dots_3.jpg,Red_Triangle_Stripes_1.jpg,Blue_Star_Dots_4.jpg,right,1249.0100000014063,true,NA,true
DZzY4lSp,3e9vauv7czrnvucm8noapw1mqoqyaq,3ijxv6uz11wvrvhsxitvniszn0kira,DZzY4lSp,2020-0188,2020-06-04,10:37:45,11:19:55,NA,incomplete,36,filling,1,1,left,Red_Star_Dots_1.jpg,Green_Plus_Dots_3.jpg,Red_Triangle_Chess_4.jpg,left,1615.1350000000093,true,NA,true
DZzY4lSp,3e9vauv7czrnvucm8noapw1mqoqyaq,3ijxv6uz11wvrvhsxitvniszn0kira,DZzY4lSp,2020-0188,2020-06-04,10:37:45,11:19:55,NA,incomplete,37,filling,1,1,right,Green_Circle_Grid_1.jpg,Green_Triangle_Dots_4.jpg,Red_Star_Grid_2.jpg,right,1474.8600000003353,true,NA,true
DZzY4lSp,3e9vauv7czrnvucm8noapw1mqoqyaq,3ijxv6uz11wvrvhsxitvniszn0kira,DZzY4lSp,2020-0188,2020-06-04,10:37:45,11:19:55,NA,incomplete,38,filling,1,1,right,Blue_Star_Dots_3.jpg,Blue_Plus_Chess_2.jpg,Red_Circle_Dots_1.jpg,none,0,false,NA,true
DZzY4lSp,3e9vauv7czrnvucm8noapw1mqoqyaq,3ijxv6uz11wvrvhsxitvniszn0kira,DZzY4lSp,2020-0188,2020-06-04,10:37:45,11:19:55,NA,incomplete,39,filling,1,0,right,Red_Plus_Grid_4.jpg,Red_Star_Stripes_1.jpg,Blue_Circle_Grid_3.jpg,none,0,false,NA,true
DZzY4lSp,3e9vauv7czrnvucm8noapw1mqoqyaq,3ijxv6uz11wvrvhsxitvniszn0kira,DZzY4lSp,2020-0188,2020-06-04,10:37:45,11:19:55,NA,incomplete,0,color,0,1,right,Green_Star_Chess_1.jpg,Red_Circle_Chess_3.jpg,Green_Triangle_Grid_2.jpg,none,0,false,high,false
DZzY4lSp,3e9vauv7czrnvucm8noapw1mqoqyaq,3ijxv6uz11wvrvhsxitvniszn0kira,DZzY4lSp,2020-0188,2020-06-04,10:37:45,11:19:55,NA,incomplete,1,color,0,1,left,Red_Star_Grid_2.jpg,Red_Triangle_Dots_3.jpg,Blue_Circle_Grid_4.jpg,left,1375.3299999991432,true,high,false
DZzY4lSp,3e9vauv7czrnvucm8noapw1mqoqyaq,3ijxv6uz11wvrvhsxitvniszn0kira,DZzY4lSp,2020-0188,2020-06-04,10:37:45,11:19:55,NA,incomplete,2,color,0,1,left,Red_Triangle_Chess_2.jpg,Red_Plus_Grid_1.jpg,Blue_Star_Chess_4.jpg,right,1142.9350000000559,false,high,false
DZzY4lSp,3e9vauv7czrnvucm8noapw1mqoqyaq,3ijxv6uz11wvrvhsxitvniszn0kira,DZzY4lSp,2020-0188,2020-06-04,10:37:45,11:19:55,NA,incomplete,3,color,0,1,left,Blue_Star_Chess_2.jpg,Blue_Circle_Dots_3.jpg,Green_Triangle_Chess_1.jpg,left,1604.6349999995437,true,high,false
DZzY4lSp,3e9vauv7czrnvucm8noapw1mqoqyaq,3ijxv6uz11wvrvhsxitvniszn0kira,DZzY4lSp,2020-0188,2020-06-04,10:37:45,11:19:55,NA,incomplete,4,color,0,1,right,Blue_Star_Stripes_3.jpg,Green_Circle_Stripes_2.jpg,Blue_Triangle_Dots_4.jpg,right,1734.4949999987148,true,high,false
DZzY4lSp,3e9vauv7czrnvucm8noapw1mqoqyaq,3ijxv6uz11wvrvhsxitvniszn0kira,DZzY4lSp,2020-0188,2020-06-04,10:37:45,11:19:55,NA,incomplete,5,color,0,1,left,Green_Circle_Grid_3.jpg,Green_Triangle_Dots_2.jpg,Purple_Plus_Grid_4.jpg,left,1078.4099999999162,true,high,false
DZzY4lSp,3e9vauv7czrnvucm8noapw1mqoqyaq,3ijxv6uz11wvrvhsxitvniszn0kira,DZzY4lSp,2020-0188,2020-06-04,10:37:45,11:19:55,NA,incomplete,6,color,0,0,left,Red_Circle_Grid_1.jpg,Red_Star_Stripes_3.jpg,Blue_Triangle_Grid_4.jpg,left,1257.175000000745,true,high,false
DZzY4lSp,3e9vauv7czrnvucm8noapw1mqoqyaq,3ijxv6uz11wvrvhsxitvniszn0kira,DZzY4lSp,2020-0188,2020-06-04,10:37:45,11:19:55,NA,incomplete,7,color,0,1,left,Blue_Triangle_Grid_1.jpg,Blue_Star_Chess_2.jpg,Purple_Plus_Grid_3.jpg,left,994.9049999997951,true,high,false
DZzY4lSp,3e9vauv7czrnvucm8noapw1mqoqyaq,3ijxv6uz11wvrvhsxitvniszn0kira,DZzY4lSp,2020-0188,2020-06-04,10:37:45,11:19:55,NA,incomplete,8,color,0,1,right,Green_Plus_Grid_2.jpg,Blue_Star_Grid_4.jpg,Green_Triangle_Stripes_1.jpg,right,1144.8500000007916,true,high,false
DZzY4lSp,3e9vauv7czrnvucm8noapw1mqoqyaq,3ijxv6uz11wvrvhsxitvniszn0kira,DZzY4lSp,2020-0188,2020-06-04,10:37:45,11:19:55,NA,incomplete,9,color,0,0,right,Red_Triangle_Grid_1.jpg,Blue_Plus_Grid_2.jpg,Red_Star_Dots_3.jpg,right,1183.9799999997485,true,high,false
DZzY4lSp,3e9vauv7czrnvucm8noapw1mqoqyaq,3ijxv6uz11wvrvhsxitvniszn0kira,DZzY4lSp,2020-0188,2020-06-04,10:37:45,11:19:55,NA,incomplete,10,filling,1,1,right,Red_Circle_Grid_3.jpg,Red_Star_Dots_1.jpg,Blue_Plus_Grid_4.jpg,right,1227.25,true,high,false
DZzY4lSp,3e9vauv7czrnvucm8noapw1mqoqyaq,3ijxv6uz11wvrvhsxitvniszn0kira,DZzY4lSp,2020-0188,2020-06-04,10:37:45,11:19:55,NA,incomplete,11,filling,1,1,right,Red_Circle_Chess_4.jpg,Red_Star_Grid_3.jpg,Blue_Plus_Chess_1.jpg,right,1415.600000000326,true,high,false
DZzY4lSp,3e9vauv7czrnvucm8noapw1mqoqyaq,3ijxv6uz11wvrvhsxitvniszn0kira,DZzY4lSp,2020-0188,2020-06-04,10:37:45,11:19:55,NA,incomplete,12,filling,1,1,left,Purple_Triangle_Chess_3.jpg,Blue_Circle_Chess_1.jpg,Purple_Plus_Stripes_4.jpg,left,1339.3649999997579,true,high,false
DZzY4lSp,3e9vauv7czrnvucm8noapw1mqoqyaq,3ijxv6uz11wvrvhsxitvniszn0kira,DZzY4lSp,2020-0188,2020-06-04,10:37:45,11:19:55,NA,incomplete,13,filling,1,1,right,Red_Circle_Stripes_2.jpg,Red_Triangle_Chess_3.jpg,Blue_Star_Stripes_4.jpg,right,1403.9950000005774,true,high,false
DZzY4lSp,3e9vauv7czrnvucm8noapw1mqoqyaq,3ijxv6uz11wvrvhsxitvniszn0kira,DZzY4lSp,2020-0188,2020-06-04,10:37:45,11:19:55,NA,incomplete,14,filling,1,1,right,Purple_Triangle_Dots_4.jpg,Purple_Circle_Grid_3.jpg,Green_Plus_Dots_2.jpg,left,1128.8850000002421,false,high,false
DZzY4lSp,3e9vauv7czrnvucm8noapw1mqoqyaq,3ijxv6uz11wvrvhsxitvniszn0kira,DZzY4lSp,2020-0188,2020-06-04,10:37:45,11:19:55,NA,incomplete,15,filling,1,0,right,Purple_Star_Grid_2.jpg,Purple_Plus_Stripes_3.jpg,Blue_Circle_Grid_1.jpg,right,1277.9099999989849,true,high,false
DZzY4lSp,3e9vauv7czrnvucm8noapw1mqoqyaq,3ijxv6uz11wvrvhsxitvniszn0kira,DZzY4lSp,2020-0188,2020-06-04,10:37:45,11:19:55,NA,incomplete,16,filling,1,1,right,Purple_Circle_Stripes_4.jpg,Purple_Star_Grid_2.jpg,Red_Triangle_Stripes_1.jpg,right,1290.885000000475,true,high,false
DZzY4lSp,3e9vauv7czrnvucm8noapw1mqoqyaq,3ijxv6uz11wvrvhsxitvniszn0kira,DZzY4lSp,2020-0188,2020-06-04,10:37:45,11:19:55,NA,incomplete,17,filling,1,1,left,Red_Plus_Dots_2.jpg,Blue_Circle_Dots_4.jpg,Red_Triangle_Stripes_3.jpg,left,1420.4200000003912,true,high,false
DZzY4lSp,3e9vauv7czrnvucm8noapw1mqoqyaq,3ijxv6uz11wvrvhsxitvniszn0kira,DZzY4lSp,2020-0188,2020-06-04,10:37:45,11:19:55,NA,incomplete,18,filling,1,1,left,Green_Star_Stripes_1.jpg,Purple_Plus_Stripes_3.jpg,Green_Circle_Dots_4.jpg,left,1268.2249999998603,true,high,false
DZzY4lSp,3e9vauv7czrnvucm8noapw1mqoqyaq,3ijxv6uz11wvrvhsxitvniszn0kira,DZzY4lSp,2020-0188,2020-06-04,10:37:45,11:19:55,NA,incomplete,19,filling,1,1,right,Red_Star_Chess_2.jpg,Red_Circle_Grid_4.jpg,Green_Triangle_Chess_3.jpg,right,1458.4199999989942,true,high,false
DZzY4lSp,3e9vauv7czrnvucm8noapw1mqoqyaq,3ijxv6uz11wvrvhsxitvniszn0kira,DZzY4lSp,2020-0188,2020-06-04,10:37:45,11:19:55,NA,incomplete,20,color,0,1,right,Blue_Plus_Stripes_1.jpg,Green_Circle_Stripes_2.jpg,Blue_Triangle_Chess_4.jpg,left,1328.22999999905,false,high,false
DZzY4lSp,3e9vauv7czrnvucm8noapw1mqoqyaq,3ijxv6uz11wvrvhsxitvniszn0kira,DZzY4lSp,2020-0188,2020-06-04,10:37:45,11:19:55,NA,incomplete,21,color,0,1,right,Green_Plus_Grid_4.jpg,Red_Circle_Grid_2.jpg,Green_Triangle_Stripes_3.jpg,right,1001.7299999999814,true,high,false
DZzY4lSp,3e9vauv7czrnvucm8noapw1mqoqyaq,3ijxv6uz11wvrvhsxitvniszn0kira,DZzY4lSp,2020-0188,2020-06-04,10:37:45,11:19:55,NA,incomplete,22,color,0,0,right,Purple_Triangle_Chess_3.jpg,Red_Star_Chess_1.jpg,Purple_Circle_Grid_4.jpg,left,1547.199999999022,false,high,false
DZzY4lSp,3e9vauv7czrnvucm8noapw1mqoqyaq,3ijxv6uz11wvrvhsxitvniszn0kira,DZzY4lSp,2020-0188,2020-06-04,10:37:45,11:19:55,NA,incomplete,23,color,0,1,left,Purple_Star_Dots_4.jpg,Purple_Plus_Grid_1.jpg,Green_Circle_Dots_2.jpg,left,1225.5649999990128,true,high,false
DZzY4lSp,3e9vauv7czrnvucm8noapw1mqoqyaq,3ijxv6uz11wvrvhsxitvniszn0kira,DZzY4lSp,2020-0188,2020-06-04,10:37:45,11:19:55,NA,incomplete,24,color,0,1,left,Green_Plus_Chess_4.jpg,Green_Star_Dots_3.jpg,Blue_Circle_Chess_2.jpg,left,1831.1150000006892,true,high,false
DZzY4lSp,3e9vauv7czrnvucm8noapw1mqoqyaq,3ijxv6uz11wvrvhsxitvniszn0kira,DZzY4lSp,2020-0188,2020-06-04,10:37:45,11:19:55,NA,incomplete,25,color,0,1,left,Red_Plus_Chess_2.jpg,Red_Triangle_Dots_3.jpg,Purple_Star_Chess_4.jpg,right,1139.1600000006147,false,high,false
DZzY4lSp,3e9vauv7czrnvucm8noapw1mqoqyaq,3ijxv6uz11wvrvhsxitvniszn0kira,DZzY4lSp,2020-0188,2020-06-04,10:37:45,11:19:55,NA,incomplete,26,color,0,0,left,Purple_Star_Grid_4.jpg,Purple_Plus_Dots_1.jpg,Red_Triangle_Grid_3.jpg,left,866.0249999992084,true,high,false
DZzY4lSp,3e9vauv7czrnvucm8noapw1mqoqyaq,3ijxv6uz11wvrvhsxitvniszn0kira,DZzY4lSp,2020-0188,2020-06-04,10:37:45,11:19:55,NA,incomplete,27,color,0,1,right,Green_Star_Dots_1.jpg,Blue_Plus_Dots_4.jpg,Green_Circle_Stripes_3.jpg,right,1004.1299999991897,true,high,false
DZzY4lSp,3e9vauv7czrnvucm8noapw1mqoqyaq,3ijxv6uz11wvrvhsxitvniszn0kira,DZzY4lSp,2020-0188,2020-06-04,10:37:45,11:19:55,NA,incomplete,28,color,0,1,left,Green_Circle_Dots_2.jpg,Green_Star_Chess_4.jpg,Red_Plus_Dots_3.jpg,left,1139.235000000568,true,high,false
DZzY4lSp,3e9vauv7czrnvucm8noapw1mqoqyaq,3ijxv6uz11wvrvhsxitvniszn0kira,DZzY4lSp,2020-0188,2020-06-04,10:37:45,11:19:55,NA,incomplete,29,color,0,1,left,Red_Star_Dots_2.jpg,Red_Circle_Chess_3.jpg,Green_Triangle_Dots_1.jpg,left,1164.789999998873,true,high,false
DZzY4lSp,3e9vauv7czrnvucm8noapw1mqoqyaq,3ijxv6uz11wvrvhsxitvniszn0kira,DZzY4lSp,2020-0188,2020-06-04,10:37:45,11:19:55,NA,incomplete,30,filling,1,1,left,Blue_Circle_Stripes_3.jpg,Green_Triangle_Stripes_2.jpg,Blue_Plus_Grid_1.jpg,right,999.1550000011921,false,high,false
DZzY4lSp,3e9vauv7czrnvucm8noapw1mqoqyaq,3ijxv6uz11wvrvhsxitvniszn0kira,DZzY4lSp,2020-0188,2020-06-04,10:37:45,11:19:55,NA,incomplete,31,filling,1,1,right,Green_Triangle_Chess_3.jpg,Green_Circle_Dots_2.jpg,Purple_Plus_Chess_1.jpg,left,1241.065000000177,false,high,false
DZzY4lSp,3e9vauv7czrnvucm8noapw1mqoqyaq,3ijxv6uz11wvrvhsxitvniszn0kira,DZzY4lSp,2020-0188,2020-06-04,10:37:45,11:19:55,NA,incomplete,32,filling,1,1,left,Green_Plus_Stripes_2.jpg,Blue_Circle_Stripes_4.jpg,Green_Triangle_Chess_1.jpg,right,1166.574999999255,false,high,false
DZzY4lSp,3e9vauv7czrnvucm8noapw1mqoqyaq,3ijxv6uz11wvrvhsxitvniszn0kira,DZzY4lSp,2020-0188,2020-06-04,10:37:45,11:19:55,NA,incomplete,33,filling,1,1,right,Purple_Star_Stripes_4.jpg,Purple_Triangle_Grid_2.jpg,Red_Plus_Stripes_1.jpg,left,1316.730000000447,false,high,false
DZzY4lSp,3e9vauv7czrnvucm8noapw1mqoqyaq,3ijxv6uz11wvrvhsxitvniszn0kira,DZzY4lSp,2020-0188,2020-06-04,10:37:45,11:19:55,NA,incomplete,34,filling,1,1,left,Blue_Star_Chess_4.jpg,Red_Circle_Chess_2.jpg,Blue_Plus_Dots_3.jpg,left,1767.1149999988265,true,high,false
DZzY4lSp,3e9vauv7czrnvucm8noapw1mqoqyaq,3ijxv6uz11wvrvhsxitvniszn0kira,DZzY4lSp,2020-0188,2020-06-04,10:37:45,11:19:55,NA,incomplete,35,filling,1,0,left,Red_Triangle_Dots_4.jpg,Blue_Plus_Dots_2.jpg,Red_Star_Chess_1.jpg,left,1482.214999999851,true,high,false
DZzY4lSp,3e9vauv7czrnvucm8noapw1mqoqyaq,3ijxv6uz11wvrvhsxitvniszn0kira,DZzY4lSp,2020-0188,2020-06-04,10:37:45,11:19:55,NA,incomplete,36,filling,1,1,right,Green_Triangle_Stripes_3.jpg,Green_Star_Dots_4.jpg,Red_Plus_Stripes_1.jpg,left,1327.2849999994505,false,high,false
DZzY4lSp,3e9vauv7czrnvucm8noapw1mqoqyaq,3ijxv6uz11wvrvhsxitvniszn0kira,DZzY4lSp,2020-0188,2020-06-04,10:37:45,11:19:55,NA,incomplete,37,filling,1,1,right,Green_Star_Dots_3.jpg,Green_Plus_Grid_4.jpg,Purple_Triangle_Dots_1.jpg,right,1467.5150000003632,true,high,false
DZzY4lSp,3e9vauv7czrnvucm8noapw1mqoqyaq,3ijxv6uz11wvrvhsxitvniszn0kira,DZzY4lSp,2020-0188,2020-06-04,10:37:45,11:19:55,NA,incomplete,38,filling,1,1,right,Purple_Triangle_Grid_1.jpg,Purple_Plus_Stripes_2.jpg,Red_Star_Grid_3.jpg,none,0,false,high,false
DZzY4lSp,3e9vauv7czrnvucm8noapw1mqoqyaq,3ijxv6uz11wvrvhsxitvniszn0kira,DZzY4lSp,2020-0188,2020-06-04,10:37:45,11:19:55,NA,incomplete,39,filling,1,0,left,Red_Star_Dots_2.jpg,Blue_Plus_Dots_1.jpg,Red_Triangle_Stripes_3.jpg,right,817.3550000011455,false,high,false
DZzY4lSp,3e9vauv7czrnvucm8noapw1mqoqyaq,3ijxv6uz11wvrvhsxitvniszn0kira,DZzY4lSp,2020-0188,2020-06-04,10:37:45,11:19:55,NA,incomplete,40,color,0,0,right,Red_Plus_Grid_3.jpg,Green_Star_Grid_1.jpg,Red_Circle_Dots_2.jpg,left,386.28999999840744,false,high,false
DZzY4lSp,3e9vauv7czrnvucm8noapw1mqoqyaq,3ijxv6uz11wvrvhsxitvniszn0kira,DZzY4lSp,2020-0188,2020-06-04,10:37:45,11:19:55,NA,incomplete,41,color,0,1,right,Red_Plus_Grid_3.jpg,Blue_Circle_Grid_2.jpg,Red_Triangle_Stripes_4.jpg,right,1249.8850000011735,true,high,false
DZzY4lSp,3e9vauv7czrnvucm8noapw1mqoqyaq,3ijxv6uz11wvrvhsxitvniszn0kira,DZzY4lSp,2020-0188,2020-06-04,10:37:45,11:19:55,NA,incomplete,42,color,0,1,right,Purple_Star_Chess_4.jpg,Red_Circle_Chess_1.jpg,Purple_Plus_Stripes_2.jpg,right,1114.410000000149,true,high,false
DZzY4lSp,3e9vauv7czrnvucm8noapw1mqoqyaq,3ijxv6uz11wvrvhsxitvniszn0kira,DZzY4lSp,2020-0188,2020-06-04,10:37:45,11:19:55,NA,incomplete,43,color,0,0,left,Blue_Triangle_Stripes_1.jpg,Blue_Circle_Grid_2.jpg,Green_Plus_Stripes_4.jpg,left,1149.6149999983609,true,high,false
DZzY4lSp,3e9vauv7czrnvucm8noapw1mqoqyaq,3ijxv6uz11wvrvhsxitvniszn0kira,DZzY4lSp,2020-0188,2020-06-04,10:37:45,11:19:55,NA,incomplete,44,color,0,1,right,Red_Plus_Dots_1.jpg,Purple_Star_Dots_3.jpg,Red_Circle_Chess_2.jpg,right,1082.29000000027,true,high,false
DZzY4lSp,3e9vauv7czrnvucm8noapw1mqoqyaq,3ijxv6uz11wvrvhsxitvniszn0kira,DZzY4lSp,2020-0188,2020-06-04,10:37:45,11:19:55,NA,incomplete,45,color,0,1,right,Red_Star_Dots_2.jpg,Purple_Plus_Dots_1.jpg,Red_Circle_Chess_3.jpg,right,1057.5900000003166,true,high,false
DZzY4lSp,3e9vauv7czrnvucm8noapw1mqoqyaq,3ijxv6uz11wvrvhsxitvniszn0kira,DZzY4lSp,2020-0188,2020-06-04,10:37:45,11:19:55,NA,incomplete,46,color,0,1,left,Red_Plus_Chess_4.jpg,Red_Star_Stripes_3.jpg,Green_Triangle_Chess_1.jpg,left,1067.924999999348,true,high,false
DZzY4lSp,3e9vauv7czrnvucm8noapw1mqoqyaq,3ijxv6uz11wvrvhsxitvniszn0kira,DZzY4lSp,2020-0188,2020-06-04,10:37:45,11:19:55,NA,incomplete,47,color,0,1,right,Green_Star_Stripes_1.jpg,Purple_Circle_Stripes_3.jpg,Green_Triangle_Dots_2.jpg,right,1028.5400000012014,true,high,false
DZzY4lSp,3e9vauv7czrnvucm8noapw1mqoqyaq,3ijxv6uz11wvrvhsxitvniszn0kira,DZzY4lSp,2020-0188,2020-06-04,10:37:45,11:19:55,NA,incomplete,48,color,0,0,left,Red_Star_Stripes_4.jpg,Red_Plus_Grid_2.jpg,Purple_Circle_Stripes_1.jpg,left,1052.6250000002328,true,high,false
DZzY4lSp,3e9vauv7czrnvucm8noapw1mqoqyaq,3ijxv6uz11wvrvhsxitvniszn0kira,DZzY4lSp,2020-0188,2020-06-04,10:37:45,11:19:55,NA,incomplete,49,color,0,1,right,Red_Plus_Chess_1.jpg,Green_Star_Chess_4.jpg,Red_Circle_Grid_3.jpg,right,896.2150000005495,true,high,false
DZzY4lSp,3e9vauv7czrnvucm8noapw1mqoqyaq,3ijxv6uz11wvrvhsxitvniszn0kira,DZzY4lSp,2020-0188,2020-06-04,10:37:45,11:19:55,NA,incomplete,50,filling,1,0,right,Green_Triangle_Dots_3.jpg,Green_Star_Chess_2.jpg,Blue_Plus_Dots_4.jpg,left,1066.1399999989662,false,high,false
DZzY4lSp,3e9vauv7czrnvucm8noapw1mqoqyaq,3ijxv6uz11wvrvhsxitvniszn0kira,DZzY4lSp,2020-0188,2020-06-04,10:37:45,11:19:55,NA,incomplete,51,filling,1,1,left,Green_Plus_Dots_4.jpg,Blue_Triangle_Dots_3.jpg,Green_Circle_Stripes_1.jpg,right,879.8100000002887,false,high,false
DZzY4lSp,3e9vauv7czrnvucm8noapw1mqoqyaq,3ijxv6uz11wvrvhsxitvniszn0kira,DZzY4lSp,2020-0188,2020-06-04,10:37:45,11:19:55,NA,incomplete,52,filling,1,1,right,Blue_Circle_Chess_2.jpg,Blue_Star_Grid_3.jpg,Green_Triangle_Chess_4.jpg,left,801.579999999376,false,high,false
DZzY4lSp,3e9vauv7czrnvucm8noapw1mqoqyaq,3ijxv6uz11wvrvhsxitvniszn0kira,DZzY4lSp,2020-0188,2020-06-04,10:37:45,11:19:55,NA,incomplete,53,filling,1,0,right,Purple_Circle_Dots_3.jpg,Purple_Triangle_Stripes_2.jpg,Red_Star_Dots_4.jpg,right,1754.7749999994412,true,high,false
DZzY4lSp,3e9vauv7czrnvucm8noapw1mqoqyaq,3ijxv6uz11wvrvhsxitvniszn0kira,DZzY4lSp,2020-0188,2020-06-04,10:37:45,11:19:55,NA,incomplete,54,filling,1,1,right,Green_Circle_Grid_3.jpg,Green_Plus_Dots_4.jpg,Blue_Triangle_Grid_1.jpg,right,1228.8699999991804,true,high,false
DZzY4lSp,3e9vauv7czrnvucm8noapw1mqoqyaq,3ijxv6uz11wvrvhsxitvniszn0kira,DZzY4lSp,2020-0188,2020-06-04,10:37:45,11:19:55,NA,incomplete,55,filling,1,1,left,Purple_Star_Dots_2.jpg,Blue_Plus_Dots_3.jpg,Purple_Circle_Chess_1.jpg,left,1347.949999999255,true,high,false
DZzY4lSp,3e9vauv7czrnvucm8noapw1mqoqyaq,3ijxv6uz11wvrvhsxitvniszn0kira,DZzY4lSp,2020-0188,2020-06-04,10:37:45,11:19:55,NA,incomplete,56,filling,1,1,right,Green_Triangle_Stripes_2.jpg,Green_Plus_Grid_4.jpg,Blue_Star_Stripes_3.jpg,right,1339.1949999986682,true,high,false
DZzY4lSp,3e9vauv7czrnvucm8noapw1mqoqyaq,3ijxv6uz11wvrvhsxitvniszn0kira,DZzY4lSp,2020-0188,2020-06-04,10:37:45,11:19:55,NA,incomplete,57,filling,1,1,right,Blue_Star_Dots_3.jpg,Blue_Circle_Stripes_2.jpg,Red_Triangle_Dots_1.jpg,left,1335.7400000004563,false,high,false
DZzY4lSp,3e9vauv7czrnvucm8noapw1mqoqyaq,3ijxv6uz11wvrvhsxitvniszn0kira,DZzY4lSp,2020-0188,2020-06-04,10:37:45,11:19:55,NA,incomplete,58,filling,1,1,left,Green_Plus_Stripes_2.jpg,Purple_Triangle_Stripes_1.jpg,Green_Circle_Chess_3.jpg,left,1319.8699999994133,true,high,false
DZzY4lSp,3e9vauv7czrnvucm8noapw1mqoqyaq,3ijxv6uz11wvrvhsxitvniszn0kira,DZzY4lSp,2020-0188,2020-06-04,10:37:45,11:19:55,NA,incomplete,59,filling,1,1,right,Blue_Triangle_Chess_4.jpg,Blue_Circle_Grid_2.jpg,Green_Star_Chess_1.jpg,right,1433.6649999986403,true,high,false
DZzY4lSp,3e9vauv7czrnvucm8noapw1mqoqyaq,3ijxv6uz11wvrvhsxitvniszn0kira,DZzY4lSp,2020-0188,2020-06-04,10:37:45,11:19:55,NA,incomplete,60,color,0,0,left,Blue_Triangle_Chess_3.jpg,Blue_Circle_Grid_4.jpg,Purple_Star_Chess_1.jpg,right,1664.3850000000093,false,high,false
DZzY4lSp,3e9vauv7czrnvucm8noapw1mqoqyaq,3ijxv6uz11wvrvhsxitvniszn0kira,DZzY4lSp,2020-0188,2020-06-04,10:37:45,11:19:55,NA,incomplete,61,color,0,0,right,Red_Triangle_Stripes_2.jpg,Green_Plus_Stripes_3.jpg,Red_Circle_Dots_4.jpg,left,1412.2999999998137,false,high,false
DZzY4lSp,3e9vauv7czrnvucm8noapw1mqoqyaq,3ijxv6uz11wvrvhsxitvniszn0kira,DZzY4lSp,2020-0188,2020-06-04,10:37:45,11:19:55,NA,incomplete,62,color,0,1,right,Purple_Plus_Stripes_2.jpg,Green_Circle_Stripes_4.jpg,Purple_Star_Dots_1.jpg,left,1544.7950000017881,false,high,false
DZzY4lSp,3e9vauv7czrnvucm8noapw1mqoqyaq,3ijxv6uz11wvrvhsxitvniszn0kira,DZzY4lSp,2020-0188,2020-06-04,10:37:45,11:19:55,NA,incomplete,63,color,0,1,left,Red_Star_Chess_3.jpg,Red_Plus_Grid_2.jpg,Blue_Circle_Chess_4.jpg,right,1377.505000000354,false,high,false
DZzY4lSp,3e9vauv7czrnvucm8noapw1mqoqyaq,3ijxv6uz11wvrvhsxitvniszn0kira,DZzY4lSp,2020-0188,2020-06-04,10:37:45,11:19:55,NA,incomplete,64,color,0,1,right,Purple_Triangle_Stripes_4.jpg,Green_Circle_Stripes_2.jpg,Purple_Plus_Chess_3.jpg,right,1161.2299999997485,true,high,false
DZzY4lSp,3e9vauv7czrnvucm8noapw1mqoqyaq,3ijxv6uz11wvrvhsxitvniszn0kira,DZzY4lSp,2020-0188,2020-06-04,10:37:45,11:19:55,NA,incomplete,65,color,0,1,right,Blue_Triangle_Stripes_4.jpg,Purple_Star_Stripes_3.jpg,Blue_Circle_Chess_1.jpg,right,1386.8000000002794,true,high,false
DZzY4lSp,3e9vauv7czrnvucm8noapw1mqoqyaq,3ijxv6uz11wvrvhsxitvniszn0kira,DZzY4lSp,2020-0188,2020-06-04,10:37:45,11:19:55,NA,incomplete,66,color,0,1,left,Red_Triangle_Stripes_3.jpg,Red_Star_Grid_2.jpg,Purple_Circle_Stripes_1.jpg,left,1143.745000001276,true,high,false
DZzY4lSp,3e9vauv7czrnvucm8noapw1mqoqyaq,3ijxv6uz11wvrvhsxitvniszn0kira,DZzY4lSp,2020-0188,2020-06-04,10:37:45,11:19:55,NA,incomplete,67,color,0,1,right,Red_Circle_Grid_3.jpg,Blue_Plus_Grid_2.jpg,Red_Star_Dots_1.jpg,left,1165.8399999996182,false,high,false
DZzY4lSp,3e9vauv7czrnvucm8noapw1mqoqyaq,3ijxv6uz11wvrvhsxitvniszn0kira,DZzY4lSp,2020-0188,2020-06-04,10:37:45,11:19:55,NA,incomplete,68,color,0,1,left,Red_Star_Grid_1.jpg,Red_Circle_Dots_4.jpg,Purple_Plus_Grid_2.jpg,none,0,false,high,false
DZzY4lSp,3e9vauv7czrnvucm8noapw1mqoqyaq,3ijxv6uz11wvrvhsxitvniszn0kira,DZzY4lSp,2020-0188,2020-06-04,10:37:45,11:19:55,NA,incomplete,69,color,0,1,left,Green_Plus_Grid_2.jpg,Green_Star_Stripes_3.jpg,Purple_Circle_Grid_1.jpg,none,0,false,high,false
DZzY4lSp,3e9vauv7czrnvucm8noapw1mqoqyaq,3ijxv6uz11wvrvhsxitvniszn0kira,DZzY4lSp,2020-0188,2020-06-04,10:37:45,11:19:55,NA,incomplete,70,filling,1,1,left,Purple_Star_Chess_4.jpg,Green_Plus_Chess_2.jpg,Purple_Circle_Grid_3.jpg,none,0,false,high,false
DZzY4lSp,3e9vauv7czrnvucm8noapw1mqoqyaq,3ijxv6uz11wvrvhsxitvniszn0kira,DZzY4lSp,2020-0188,2020-06-04,10:37:45,11:19:55,NA,incomplete,71,filling,1,1,left,Blue_Plus_Dots_4.jpg,Green_Triangle_Dots_2.jpg,Blue_Circle_Grid_1.jpg,none,0,false,high,false
DZzY4lSp,3e9vauv7czrnvucm8noapw1mqoqyaq,3ijxv6uz11wvrvhsxitvniszn0kira,DZzY4lSp,2020-0188,2020-06-04,10:37:45,11:19:55,NA,incomplete,72,filling,1,1,left,Blue_Star_Stripes_4.jpg,Purple_Plus_Stripes_3.jpg,Blue_Triangle_Dots_1.jpg,none,0,false,high,false
DZzY4lSp,3e9vauv7czrnvucm8noapw1mqoqyaq,3ijxv6uz11wvrvhsxitvniszn0kira,DZzY4lSp,2020-0188,2020-06-04,10:37:45,11:19:55,NA,incomplete,73,filling,1,1,left,Green_Triangle_Grid_4.jpg,Red_Plus_Grid_2.jpg,Green_Circle_Dots_1.jpg,left,827.8200000005309,true,high,false
DZzY4lSp,3e9vauv7czrnvucm8noapw1mqoqyaq,3ijxv6uz11wvrvhsxitvniszn0kira,DZzY4lSp,2020-0188,2020-06-04,10:37:45,11:19:55,NA,incomplete,74,filling,1,1,left,Red_Triangle_Stripes_1.jpg,Green_Plus_Stripes_3.jpg,Red_Star_Grid_4.jpg,right,1068.994999999646,false,high,false
DZzY4lSp,3e9vauv7czrnvucm8noapw1mqoqyaq,3ijxv6uz11wvrvhsxitvniszn0kira,DZzY4lSp,2020-0188,2020-06-04,10:37:45,11:19:55,NA,incomplete,75,filling,1,1,right,Red_Circle_Grid_1.jpg,Red_Plus_Chess_2.jpg,Blue_Star_Grid_4.jpg,left,936.7450000008103,false,high,false
DZzY4lSp,3e9vauv7czrnvucm8noapw1mqoqyaq,3ijxv6uz11wvrvhsxitvniszn0kira,DZzY4lSp,2020-0188,2020-06-04,10:37:45,11:19:55,NA,incomplete,76,filling,1,1,left,Green_Triangle_Dots_1.jpg,Red_Star_Dots_4.jpg,Green_Plus_Chess_2.jpg,left,1335.380000000354,true,high,false
DZzY4lSp,3e9vauv7czrnvucm8noapw1mqoqyaq,3ijxv6uz11wvrvhsxitvniszn0kira,DZzY4lSp,2020-0188,2020-06-04,10:37:45,11:19:55,NA,incomplete,77,filling,1,1,right,Purple_Star_Stripes_1.jpg,Purple_Circle_Grid_3.jpg,Blue_Triangle_Stripes_4.jpg,left,798.4249999991152,false,high,false
DZzY4lSp,3e9vauv7czrnvucm8noapw1mqoqyaq,3ijxv6uz11wvrvhsxitvniszn0kira,DZzY4lSp,2020-0188,2020-06-04,10:37:45,11:19:55,NA,incomplete,78,filling,1,0,left,Purple_Circle_Dots_4.jpg,Green_Triangle_Dots_1.jpg,Purple_Plus_Grid_2.jpg,left,1516.534999998752,true,high,false
DZzY4lSp,3e9vauv7czrnvucm8noapw1mqoqyaq,3ijxv6uz11wvrvhsxitvniszn0kira,DZzY4lSp,2020-0188,2020-06-04,10:37:45,11:19:55,NA,incomplete,79,filling,1,1,right,Green_Triangle_Grid_2.jpg,Green_Star_Stripes_1.jpg,Red_Circle_Grid_3.jpg,right,1533.9249999998137,true,high,false
DZzY4lSp,3e9vauv7czrnvucm8noapw1mqoqyaq,3ijxv6uz11wvrvhsxitvniszn0kira,DZzY4lSp,2020-0188,2020-06-04,10:37:45,11:19:55,NA,incomplete,80,color,0,0,right,Blue_Star_Stripes_1.jpg,Red_Plus_Stripes_4.jpg,Blue_Circle_Grid_3.jpg,none,0,false,high,false
DZzY4lSp,3e9vauv7czrnvucm8noapw1mqoqyaq,3ijxv6uz11wvrvhsxitvniszn0kira,DZzY4lSp,2020-0188,2020-06-04,10:37:45,11:19:55,NA,incomplete,81,color,0,1,right,Purple_Plus_Dots_4.jpg,Green_Circle_Dots_3.jpg,Purple_Triangle_Stripes_1.jpg,none,0,false,high,false
DZzY4lSp,3e9vauv7czrnvucm8noapw1mqoqyaq,3ijxv6uz11wvrvhsxitvniszn0kira,DZzY4lSp,2020-0188,2020-06-04,10:37:45,11:19:55,NA,incomplete,82,color,0,1,left,Purple_Plus_Grid_3.jpg,Purple_Triangle_Chess_4.jpg,Green_Circle_Grid_1.jpg,left,1271.795000000624,true,high,false
DZzY4lSp,3e9vauv7czrnvucm8noapw1mqoqyaq,3ijxv6uz11wvrvhsxitvniszn0kira,DZzY4lSp,2020-0188,2020-06-04,10:37:45,11:19:55,NA,incomplete,83,color,0,1,right,Red_Plus_Dots_2.jpg,Green_Star_Dots_1.jpg,Red_Circle_Stripes_4.jpg,right,1138.3400000014808,true,high,false
DZzY4lSp,3e9vauv7czrnvucm8noapw1mqoqyaq,3ijxv6uz11wvrvhsxitvniszn0kira,DZzY4lSp,2020-0188,2020-06-04,10:37:45,11:19:55,NA,incomplete,84,color,0,0,right,Red_Triangle_Grid_3.jpg,Purple_Circle_Grid_1.jpg,Red_Star_Dots_4.jpg,left,1465.4700000009034,false,high,false
DZzY4lSp,3e9vauv7czrnvucm8noapw1mqoqyaq,3ijxv6uz11wvrvhsxitvniszn0kira,DZzY4lSp,2020-0188,2020-06-04,10:37:45,11:19:55,NA,incomplete,85,color,0,1,left,Red_Star_Grid_3.jpg,Red_Circle_Dots_2.jpg,Purple_Triangle_Grid_4.jpg,right,1816.4599999999627,false,high,false
DZzY4lSp,3e9vauv7czrnvucm8noapw1mqoqyaq,3ijxv6uz11wvrvhsxitvniszn0kira,DZzY4lSp,2020-0188,2020-06-04,10:37:45,11:19:55,NA,incomplete,86,color,0,0,left,Red_Triangle_Stripes_4.jpg,Red_Star_Grid_1.jpg,Green_Circle_Stripes_2.jpg,left,1004.0750000008848,true,high,false
DZzY4lSp,3e9vauv7czrnvucm8noapw1mqoqyaq,3ijxv6uz11wvrvhsxitvniszn0kira,DZzY4lSp,2020-0188,2020-06-04,10:37:45,11:19:55,NA,incomplete,87,color,0,1,right,Purple_Star_Dots_4.jpg,Blue_Plus_Dots_1.jpg,Purple_Triangle_Chess_3.jpg,right,652.4250000002794,true,high,false
DZzY4lSp,3e9vauv7czrnvucm8noapw1mqoqyaq,3ijxv6uz11wvrvhsxitvniszn0kira,DZzY4lSp,2020-0188,2020-06-04,10:37:45,11:19:55,NA,incomplete,88,color,0,1,left,Green_Triangle_Grid_1.jpg,Green_Circle_Chess_4.jpg,Blue_Plus_Grid_3.jpg,left,1127.8500000007916,true,high,false
DZzY4lSp,3e9vauv7czrnvucm8noapw1mqoqyaq,3ijxv6uz11wvrvhsxitvniszn0kira,DZzY4lSp,2020-0188,2020-06-04,10:37:45,11:19:55,NA,incomplete,89,color,0,1,left,Blue_Circle_Grid_2.jpg,Blue_Star_Stripes_3.jpg,Purple_Plus_Grid_4.jpg,right,1545.920000000624,false,high,false
DZzY4lSp,3e9vauv7czrnvucm8noapw1mqoqyaq,3ijxv6uz11wvrvhsxitvniszn0kira,DZzY4lSp,2020-0188,2020-06-04,10:37:45,11:19:55,NA,incomplete,90,filling,1,1,left,Blue_Triangle_Chess_3.jpg,Red_Circle_Chess_4.jpg,Blue_Star_Dots_2.jpg,right,1838.1549999995623,false,high,false
DZzY4lSp,3e9vauv7czrnvucm8noapw1mqoqyaq,3ijxv6uz11wvrvhsxitvniszn0kira,DZzY4lSp,2020-0188,2020-06-04,10:37:45,11:19:55,NA,incomplete,91,filling,1,1,right,Red_Plus_Stripes_4.jpg,Red_Circle_Chess_1.jpg,Blue_Triangle_Stripes_3.jpg,left,1462.085000001127,false,high,false
DZzY4lSp,3e9vauv7czrnvucm8noapw1mqoqyaq,3ijxv6uz11wvrvhsxitvniszn0kira,DZzY4lSp,2020-0188,2020-06-04,10:37:45,11:19:55,NA,incomplete,92,filling,1,1,right,Purple_Plus_Stripes_4.jpg,Purple_Circle_Chess_2.jpg,Blue_Triangle_Stripes_3.jpg,right,1064.2050000005402,true,high,false
DZzY4lSp,3e9vauv7czrnvucm8noapw1mqoqyaq,3ijxv6uz11wvrvhsxitvniszn0kira,DZzY4lSp,2020-0188,2020-06-04,10:37:45,11:19:55,NA,incomplete,93,filling,1,1,right,Blue_Triangle_Chess_3.jpg,Blue_Star_Stripes_2.jpg,Red_Circle_Chess_4.jpg,right,1316.0749999987893,true,high,false
DZzY4lSp,3e9vauv7czrnvucm8noapw1mqoqyaq,3ijxv6uz11wvrvhsxitvniszn0kira,DZzY4lSp,2020-0188,2020-06-04,10:37:45,11:19:55,NA,incomplete,94,filling,1,1,right,Green_Plus_Chess_2.jpg,Green_Circle_Stripes_1.jpg,Purple_Star_Chess_4.jpg,right,1147.865000000922,true,high,false
DZzY4lSp,3e9vauv7czrnvucm8noapw1mqoqyaq,3ijxv6uz11wvrvhsxitvniszn0kira,DZzY4lSp,2020-0188,2020-06-04,10:37:45,11:19:55,NA,incomplete,95,filling,1,1,right,Purple_Triangle_Stripes_4.jpg,Purple_Star_Chess_1.jpg,Green_Circle_Stripes_2.jpg,right,845.8250000001863,true,high,false
DZzY4lSp,3e9vauv7czrnvucm8noapw1mqoqyaq,3ijxv6uz11wvrvhsxitvniszn0kira,DZzY4lSp,2020-0188,2020-06-04,10:37:45,11:19:55,NA,incomplete,96,filling,1,1,left,Green_Circle_Stripes_2.jpg,Purple_Star_Stripes_3.jpg,Green_Plus_Grid_1.jpg,right,1372.9399999992456,false,high,false
DZzY4lSp,3e9vauv7czrnvucm8noapw1mqoqyaq,3ijxv6uz11wvrvhsxitvniszn0kira,DZzY4lSp,2020-0188,2020-06-04,10:37:45,11:19:55,NA,incomplete,97,filling,1,0,left,Red_Circle_Grid_3.jpg,Purple_Plus_Grid_2.jpg,Red_Triangle_Dots_1.jpg,left,758.3400000003166,true,high,false
DZzY4lSp,3e9vauv7czrnvucm8noapw1mqoqyaq,3ijxv6uz11wvrvhsxitvniszn0kira,DZzY4lSp,2020-0188,2020-06-04,10:37:45,11:19:55,NA,incomplete,98,filling,1,1,left,Green_Plus_Dots_4.jpg,Purple_Star_Dots_1.jpg,Green_Circle_Grid_3.jpg,right,856.2000000001863,false,high,false
DZzY4lSp,3e9vauv7czrnvucm8noapw1mqoqyaq,3ijxv6uz11wvrvhsxitvniszn0kira,DZzY4lSp,2020-0188,2020-06-04,10:37:45,11:19:55,NA,incomplete,99,filling,1,1,right,Purple_Star_Chess_3.jpg,Purple_Plus_Grid_4.jpg,Red_Triangle_Chess_1.jpg,right,415.30999999842606,true,high,false
DZzY4lSp,3e9vauv7czrnvucm8noapw1mqoqyaq,3ijxv6uz11wvrvhsxitvniszn0kira,DZzY4lSp,2020-0188,2020-06-04,10:37:45,11:19:55,NA,incomplete,100,color,0,0,right,Blue_Circle_Dots_4.jpg,Green_Triangle_Dots_1.jpg,Blue_Star_Grid_3.jpg,right,1310.4050000002608,true,high,false
DZzY4lSp,3e9vauv7czrnvucm8noapw1mqoqyaq,3ijxv6uz11wvrvhsxitvniszn0kira,DZzY4lSp,2020-0188,2020-06-04,10:37:45,11:19:55,NA,incomplete,101,color,0,1,left,Blue_Circle_Grid_2.jpg,Blue_Triangle_Dots_4.jpg,Green_Star_Grid_1.jpg,left,1421.4499999997206,true,high,false
DZzY4lSp,3e9vauv7czrnvucm8noapw1mqoqyaq,3ijxv6uz11wvrvhsxitvniszn0kira,DZzY4lSp,2020-0188,2020-06-04,10:37:45,11:19:55,NA,incomplete,102,color,0,1,right,Red_Plus_Chess_4.jpg,Purple_Triangle_Chess_2.jpg,Red_Circle_Dots_3.jpg,left,1559.4899999997579,false,high,false
DZzY4lSp,3e9vauv7czrnvucm8noapw1mqoqyaq,3ijxv6uz11wvrvhsxitvniszn0kira,DZzY4lSp,2020-0188,2020-06-04,10:37:45,11:19:55,NA,incomplete,103,color,0,1,left,Blue_Plus_Dots_4.jpg,Blue_Circle_Chess_2.jpg,Red_Star_Dots_3.jpg,left,1429.5000000002328,true,high,false
DZzY4lSp,3e9vauv7czrnvucm8noapw1mqoqyaq,3ijxv6uz11wvrvhsxitvniszn0kira,DZzY4lSp,2020-0188,2020-06-04,10:37:45,11:19:55,NA,incomplete,104,color,0,1,right,Red_Star_Stripes_3.jpg,Purple_Triangle_Stripes_4.jpg,Red_Circle_Dots_2.jpg,right,1102.6500000008382,true,high,false
DZzY4lSp,3e9vauv7czrnvucm8noapw1mqoqyaq,3ijxv6uz11wvrvhsxitvniszn0kira,DZzY4lSp,2020-0188,2020-06-04,10:37:45,11:19:55,NA,incomplete,105,color,0,0,right,Green_Star_Stripes_1.jpg,Blue_Triangle_Stripes_3.jpg,Green_Circle_Grid_2.jpg,right,1481.0849999992643,true,high,false
DZzY4lSp,3e9vauv7czrnvucm8noapw1mqoqyaq,3ijxv6uz11wvrvhsxitvniszn0kira,DZzY4lSp,2020-0188,2020-06-04,10:37:45,11:19:55,NA,incomplete,106,color,0,1,right,Purple_Plus_Dots_2.jpg,Red_Circle_Dots_3.jpg,Purple_Triangle_Chess_1.jpg,right,1511.9799999992829,true,high,false
DZzY4lSp,3e9vauv7czrnvucm8noapw1mqoqyaq,3ijxv6uz11wvrvhsxitvniszn0kira,DZzY4lSp,2020-0188,2020-06-04,10:37:45,11:19:55,NA,incomplete,107,color,0,0,left,Red_Star_Stripes_4.jpg,Red_Circle_Grid_2.jpg,Blue_Plus_Stripes_3.jpg,left,1185.3400000000838,true,high,false
DZzY4lSp,3e9vauv7czrnvucm8noapw1mqoqyaq,3ijxv6uz11wvrvhsxitvniszn0kira,DZzY4lSp,2020-0188,2020-06-04,10:37:45,11:19:55,NA,incomplete,108,color,0,1,right,Red_Plus_Dots_2.jpg,Blue_Star_Dots_3.jpg,Red_Circle_Chess_1.jpg,left,1293.040000000503,false,high,false
DZzY4lSp,3e9vauv7czrnvucm8noapw1mqoqyaq,3ijxv6uz11wvrvhsxitvniszn0kira,DZzY4lSp,2020-0188,2020-06-04,10:37:45,11:19:55,NA,incomplete,109,color,0,1,left,Purple_Circle_Grid_1.jpg,Purple_Plus_Dots_2.jpg,Green_Star_Grid_4.jpg,right,956.0599999986589,false,high,false
DZzY4lSp,3e9vauv7czrnvucm8noapw1mqoqyaq,3ijxv6uz11wvrvhsxitvniszn0kira,DZzY4lSp,2020-0188,2020-06-04,10:37:45,11:19:55,NA,incomplete,110,filling,1,1,left,Red_Circle_Stripes_1.jpg,Purple_Triangle_Stripes_3.jpg,Red_Plus_Chess_4.jpg,right,1334.9450000005309,false,high,false
DZzY4lSp,3e9vauv7czrnvucm8noapw1mqoqyaq,3ijxv6uz11wvrvhsxitvniszn0kira,DZzY4lSp,2020-0188,2020-06-04,10:37:45,11:19:55,NA,incomplete,111,filling,1,1,right,Red_Plus_Chess_3.jpg,Red_Triangle_Stripes_1.jpg,Blue_Circle_Chess_4.jpg,right,1957.9650000014808,true,high,false
DZzY4lSp,3e9vauv7czrnvucm8noapw1mqoqyaq,3ijxv6uz11wvrvhsxitvniszn0kira,DZzY4lSp,2020-0188,2020-06-04,10:37:45,11:19:55,NA,incomplete,112,filling,1,0,left,Purple_Star_Stripes_4.jpg,Red_Circle_Stripes_3.jpg,Purple_Plus_Grid_2.jpg,right,62.91499999840744,false,high,false
DZzY4lSp,3e9vauv7czrnvucm8noapw1mqoqyaq,3ijxv6uz11wvrvhsxitvniszn0kira,DZzY4lSp,2020-0188,2020-06-04,10:37:45,11:19:55,NA,incomplete,113,filling,1,1,right,Blue_Plus_Stripes_2.jpg,Blue_Triangle_Chess_1.jpg,Red_Circle_Stripes_3.jpg,right,1467.8299999996088,true,high,false
DZzY4lSp,3e9vauv7czrnvucm8noapw1mqoqyaq,3ijxv6uz11wvrvhsxitvniszn0kira,DZzY4lSp,2020-0188,2020-06-04,10:37:45,11:19:55,NA,incomplete,114,filling,1,1,left,Purple_Circle_Chess_1.jpg,Blue_Plus_Chess_2.jpg,Purple_Triangle_Dots_4.jpg,right,1790.6299999994226,false,high,false
DZzY4lSp,3e9vauv7czrnvucm8noapw1mqoqyaq,3ijxv6uz11wvrvhsxitvniszn0kira,DZzY4lSp,2020-0188,2020-06-04,10:37:45,11:19:55,NA,incomplete,115,filling,1,1,left,Purple_Plus_Stripes_3.jpg,Red_Circle_Stripes_4.jpg,Purple_Star_Chess_2.jpg,left,1918.0899999991525,true,high,false
DZzY4lSp,3e9vauv7czrnvucm8noapw1mqoqyaq,3ijxv6uz11wvrvhsxitvniszn0kira,DZzY4lSp,2020-0188,2020-06-04,10:37:45,11:19:55,NA,incomplete,116,filling,1,0,right,Red_Plus_Chess_4.jpg,Red_Star_Stripes_1.jpg,Blue_Triangle_Chess_2.jpg,left,1469.4650000000838,false,high,false
DZzY4lSp,3e9vauv7czrnvucm8noapw1mqoqyaq,3ijxv6uz11wvrvhsxitvniszn0kira,DZzY4lSp,2020-0188,2020-06-04,10:37:45,11:19:55,NA,incomplete,117,filling,1,1,right,Purple_Plus_Dots_2.jpg,Purple_Circle_Chess_4.jpg,Red_Star_Dots_3.jpg,right,917.2649999998976,true,high,false
DZzY4lSp,3e9vauv7czrnvucm8noapw1mqoqyaq,3ijxv6uz11wvrvhsxitvniszn0kira,DZzY4lSp,2020-0188,2020-06-04,10:37:45,11:19:55,NA,incomplete,118,filling,1,1,right,Green_Circle_Grid_1.jpg,Green_Star_Stripes_3.jpg,Purple_Triangle_Grid_4.jpg,left,1610.005000000354,false,high,false
DZzY4lSp,3e9vauv7czrnvucm8noapw1mqoqyaq,3ijxv6uz11wvrvhsxitvniszn0kira,DZzY4lSp,2020-0188,2020-06-04,10:37:45,11:19:55,NA,incomplete,119,filling,1,1,left,Red_Triangle_Grid_4.jpg,Green_Circle_Grid_2.jpg,Red_Star_Dots_1.jpg,left,1288.2699999990873,true,high,false
DZzY4lSp,3e9vauv7czrnvucm8noapw1mqoqyaq,3ijxv6uz11wvrvhsxitvniszn0kira,DZzY4lSp,2020-0188,2020-06-04,10:37:45,11:19:55,NA,incomplete,120,gender,2,1,left,C_F_07.jpg,A_F_03.jpg,C_M_16.jpg,NA,NA,NA,high,false
DZzY4lSp,3e9vauv7czrnvucm8noapw1mqoqyaq,3ijxv6uz11wvrvhsxitvniszn0kira,DZzY4lSp,2020-0188,2020-06-04,10:37:45,11:19:55,NA,incomplete,121,gender,2,1,left,A_F_04.jpg,C_F_01.jpg,A_M_10.jpg,right,1950.7599999997765,false,high,false
DZzY4lSp,3e9vauv7czrnvucm8noapw1mqoqyaq,3ijxv6uz11wvrvhsxitvniszn0kira,DZzY4lSp,2020-0188,2020-06-04,10:37:45,11:19:55,NA,incomplete,122,gender,2,0,left,A_M_04.jpg,C_M_10.jpg,A_F_11.jpg,left,1688.2900000000373,true,high,false
DZzY4lSp,3e9vauv7czrnvucm8noapw1mqoqyaq,3ijxv6uz11wvrvhsxitvniszn0kira,DZzY4lSp,2020-0188,2020-06-04,10:37:45,11:19:55,NA,incomplete,123,gender,2,1,right,A_F_02.jpg,A_M_12.jpg,C_F_10.jpg,none,0,false,high,false
DZzY4lSp,3e9vauv7czrnvucm8noapw1mqoqyaq,3ijxv6uz11wvrvhsxitvniszn0kira,DZzY4lSp,2020-0188,2020-06-04,10:37:45,11:19:55,NA,incomplete,124,gender,2,1,right,C_F_06.jpg,C_M_16.jpg,A_F_13.jpg,right,1970.0549999999348,true,high,false
DZzY4lSp,3e9vauv7czrnvucm8noapw1mqoqyaq,3ijxv6uz11wvrvhsxitvniszn0kira,DZzY4lSp,2020-0188,2020-06-04,10:37:45,11:19:55,NA,incomplete,125,gender,2,0,right,C_M_01.jpg,C_F_09.jpg,A_M_04.jpg,right,1747.7450000005774,true,high,false
DZzY4lSp,3e9vauv7czrnvucm8noapw1mqoqyaq,3ijxv6uz11wvrvhsxitvniszn0kira,DZzY4lSp,2020-0188,2020-06-04,10:37:45,11:19:55,NA,incomplete,126,gender,2,1,right,C_F_11.jpg,C_M_16.jpg,A_F_15.jpg,none,0,false,high,false
DZzY4lSp,3e9vauv7czrnvucm8noapw1mqoqyaq,3ijxv6uz11wvrvhsxitvniszn0kira,DZzY4lSp,2020-0188,2020-06-04,10:37:45,11:19:55,NA,incomplete,127,gender,2,0,right,A_F_13.jpg,A_M_04.jpg,C_F_01.jpg,right,1593.809999998426,true,high,false
DZzY4lSp,3e9vauv7czrnvucm8noapw1mqoqyaq,3ijxv6uz11wvrvhsxitvniszn0kira,DZzY4lSp,2020-0188,2020-06-04,10:37:45,11:19:55,NA,incomplete,128,gender,2,1,right,A_M_11.jpg,A_F_09.jpg,C_M_13.jpg,left,1464.065000000177,false,high,false
DZzY4lSp,3e9vauv7czrnvucm8noapw1mqoqyaq,3ijxv6uz11wvrvhsxitvniszn0kira,DZzY4lSp,2020-0188,2020-06-04,10:37:45,11:19:55,NA,incomplete,129,gender,2,1,right,C_M_07.jpg,C_F_09.jpg,A_M_12.jpg,right,1609.1249999990687,true,high,false
DZzY4lSp,3e9vauv7czrnvucm8noapw1mqoqyaq,3ijxv6uz11wvrvhsxitvniszn0kira,DZzY4lSp,2020-0188,2020-06-04,10:37:45,11:19:55,NA,incomplete,130,gender,2,1,left,C_M_05.jpg,A_M_02.jpg,C_F_08.jpg,right,1709.2399999999907,false,high,false
DZzY4lSp,3e9vauv7czrnvucm8noapw1mqoqyaq,3ijxv6uz11wvrvhsxitvniszn0kira,DZzY4lSp,2020-0188,2020-06-04,10:37:45,11:19:55,NA,incomplete,131,gender,2,0,left,C_F_14.jpg,A_F_08.jpg,C_M_04.jpg,left,1578.7049999998417,true,high,false
DZzY4lSp,3e9vauv7czrnvucm8noapw1mqoqyaq,3ijxv6uz11wvrvhsxitvniszn0kira,DZzY4lSp,2020-0188,2020-06-04,10:37:45,11:19:55,NA,incomplete,132,gender,2,1,left,C_M_03.jpg,A_M_07.jpg,C_F_13.jpg,right,1429.6649999995716,false,high,false
DZzY4lSp,3e9vauv7czrnvucm8noapw1mqoqyaq,3ijxv6uz11wvrvhsxitvniszn0kira,DZzY4lSp,2020-0188,2020-06-04,10:37:45,11:19:55,NA,incomplete,133,gender,2,1,right,C_F_03.jpg,C_M_16.jpg,A_F_02.jpg,left,1126.7800000007264,false,high,false
DZzY4lSp,3e9vauv7czrnvucm8noapw1mqoqyaq,3ijxv6uz11wvrvhsxitvniszn0kira,DZzY4lSp,2020-0188,2020-06-04,10:37:45,11:19:55,NA,incomplete,134,gender,2,0,left,C_M_09.jpg,A_M_03.jpg,C_F_08.jpg,left,958.1949999991339,true,high,false
DZzY4lSp,3e9vauv7czrnvucm8noapw1mqoqyaq,3ijxv6uz11wvrvhsxitvniszn0kira,DZzY4lSp,2020-0188,2020-06-04,10:37:45,11:19:55,NA,incomplete,135,gender,2,1,left,C_M_09.jpg,A_M_06.jpg,C_F_10.jpg,right,1124.9100000003818,false,high,false
DZzY4lSp,3e9vauv7czrnvucm8noapw1mqoqyaq,3ijxv6uz11wvrvhsxitvniszn0kira,DZzY4lSp,2020-0188,2020-06-04,10:37:45,11:19:55,NA,incomplete,136,gender,2,1,left,A_F_01.jpg,C_F_04.jpg,A_M_06.jpg,left,1679.050000000745,true,high,false
DZzY4lSp,3e9vauv7czrnvucm8noapw1mqoqyaq,3ijxv6uz11wvrvhsxitvniszn0kira,DZzY4lSp,2020-0188,2020-06-04,10:37:45,11:19:55,NA,incomplete,137,gender,2,1,left,A_F_08.jpg,C_F_16.jpg,A_M_11.jpg,right,1375.830000000773,false,high,false
DZzY4lSp,3e9vauv7czrnvucm8noapw1mqoqyaq,3ijxv6uz11wvrvhsxitvniszn0kira,DZzY4lSp,2020-0188,2020-06-04,10:37:45,11:19:55,NA,incomplete,138,gender,2,1,right,A_F_11.jpg,A_M_15.jpg,C_F_06.jpg,right,1200.8199999998324,true,high,false
DZzY4lSp,3e9vauv7czrnvucm8noapw1mqoqyaq,3ijxv6uz11wvrvhsxitvniszn0kira,DZzY4lSp,2020-0188,2020-06-04,10:37:45,11:19:55,NA,incomplete,139,gender,2,1,left,A_M_03.jpg,C_M_09.jpg,A_F_06.jpg,right,1237.4349999991246,false,high,false
DZzY4lSp,3e9vauv7czrnvucm8noapw1mqoqyaq,3ijxv6uz11wvrvhsxitvniszn0kira,DZzY4lSp,2020-0188,2020-06-04,10:37:45,11:19:55,NA,incomplete,140,race,3,1,left,A_F_03.jpg,A_M_02.jpg,C_F_16.jpg,right,1478.600000000326,false,high,false
DZzY4lSp,3e9vauv7czrnvucm8noapw1mqoqyaq,3ijxv6uz11wvrvhsxitvniszn0kira,DZzY4lSp,2020-0188,2020-06-04,10:37:45,11:19:55,NA,incomplete,141,race,3,1,right,C_F_13.jpg,A_F_10.jpg,C_M_15.jpg,right,1737.3249999999534,true,high,false
DZzY4lSp,3e9vauv7czrnvucm8noapw1mqoqyaq,3ijxv6uz11wvrvhsxitvniszn0kira,DZzY4lSp,2020-0188,2020-06-04,10:37:45,11:19:55,NA,incomplete,142,race,3,1,left,C_M_12.jpg,C_F_16.jpg,A_M_10.jpg,left,1261.0999999996275,true,high,false
DZzY4lSp,3e9vauv7czrnvucm8noapw1mqoqyaq,3ijxv6uz11wvrvhsxitvniszn0kira,DZzY4lSp,2020-0188,2020-06-04,10:37:45,11:19:55,NA,incomplete,143,race,3,1,right,A_F_15.jpg,C_F_08.jpg,A_M_10.jpg,left,1589.1950000005309,false,high,false
DZzY4lSp,3e9vauv7czrnvucm8noapw1mqoqyaq,3ijxv6uz11wvrvhsxitvniszn0kira,DZzY4lSp,2020-0188,2020-06-04,10:37:45,11:19:55,NA,incomplete,144,race,3,0,left,C_F_08.jpg,C_M_05.jpg,A_F_04.jpg,none,0,false,high,false
DZzY4lSp,3e9vauv7czrnvucm8noapw1mqoqyaq,3ijxv6uz11wvrvhsxitvniszn0kira,DZzY4lSp,2020-0188,2020-06-04,10:37:45,11:19:55,NA,incomplete,145,race,3,1,left,A_F_11.jpg,A_M_06.jpg,C_F_01.jpg,right,1696.8050000013318,false,high,false
DZzY4lSp,3e9vauv7czrnvucm8noapw1mqoqyaq,3ijxv6uz11wvrvhsxitvniszn0kira,DZzY4lSp,2020-0188,2020-06-04,10:37:45,11:19:55,NA,incomplete,146,race,3,1,right,C_M_03.jpg,A_M_04.jpg,C_F_13.jpg,left,905.340000001248,false,high,false
DZzY4lSp,3e9vauv7czrnvucm8noapw1mqoqyaq,3ijxv6uz11wvrvhsxitvniszn0kira,DZzY4lSp,2020-0188,2020-06-04,10:37:45,11:19:55,NA,incomplete,147,race,3,1,left,C_M_03.jpg,C_F_01.jpg,A_M_12.jpg,right,1474.1049999995157,false,high,false
DZzY4lSp,3e9vauv7czrnvucm8noapw1mqoqyaq,3ijxv6uz11wvrvhsxitvniszn0kira,DZzY4lSp,2020-0188,2020-06-04,10:37:45,11:19:55,NA,incomplete,148,race,3,1,left,C_M_03.jpg,C_F_05.jpg,A_M_11.jpg,left,1339.4550000012387,true,high,false
DZzY4lSp,3e9vauv7czrnvucm8noapw1mqoqyaq,3ijxv6uz11wvrvhsxitvniszn0kira,DZzY4lSp,2020-0188,2020-06-04,10:37:45,11:19:55,NA,incomplete,149,race,3,1,left,A_F_16.jpg,A_M_02.jpg,C_F_06.jpg,left,1548.160000000149,true,high,false
DZzY4lSp,3e9vauv7czrnvucm8noapw1mqoqyaq,3ijxv6uz11wvrvhsxitvniszn0kira,DZzY4lSp,2020-0188,2020-06-04,10:37:45,11:19:55,NA,incomplete,150,race,3,1,right,A_M_01.jpg,C_M_03.jpg,A_F_02.jpg,left,1742.6799999994691,false,high,false
DZzY4lSp,3e9vauv7czrnvucm8noapw1mqoqyaq,3ijxv6uz11wvrvhsxitvniszn0kira,DZzY4lSp,2020-0188,2020-06-04,10:37:45,11:19:55,NA,incomplete,151,race,3,1,right,C_M_02.jpg,A_M_08.jpg,C_F_09.jpg,left,1510.4500000015832,false,high,false
DZzY4lSp,3e9vauv7czrnvucm8noapw1mqoqyaq,3ijxv6uz11wvrvhsxitvniszn0kira,DZzY4lSp,2020-0188,2020-06-04,10:37:45,11:19:55,NA,incomplete,152,race,3,1,right,A_M_02.jpg,C_M_11.jpg,A_F_08.jpg,right,1690.0000000006985,true,high,false
DZzY4lSp,3e9vauv7czrnvucm8noapw1mqoqyaq,3ijxv6uz11wvrvhsxitvniszn0kira,DZzY4lSp,2020-0188,2020-06-04,10:37:45,11:19:55,NA,incomplete,153,race,3,1,right,A_F_07.jpg,C_F_08.jpg,A_M_04.jpg,right,1519.6250000009313,true,high,false
DZzY4lSp,3e9vauv7czrnvucm8noapw1mqoqyaq,3ijxv6uz11wvrvhsxitvniszn0kira,DZzY4lSp,2020-0188,2020-06-04,10:37:45,11:19:55,NA,incomplete,154,race,3,1,right,C_M_16.jpg,A_M_05.jpg,C_F_12.jpg,right,1509.460000001127,true,high,false
DZzY4lSp,3e9vauv7czrnvucm8noapw1mqoqyaq,3ijxv6uz11wvrvhsxitvniszn0kira,DZzY4lSp,2020-0188,2020-06-04,10:37:45,11:19:55,NA,incomplete,155,race,3,1,right,C_F_08.jpg,A_F_13.jpg,C_M_11.jpg,right,1902.2199999997392,true,high,false
DZzY4lSp,3e9vauv7czrnvucm8noapw1mqoqyaq,3ijxv6uz11wvrvhsxitvniszn0kira,DZzY4lSp,2020-0188,2020-06-04,10:37:45,11:19:55,NA,incomplete,156,race,3,1,left,C_F_02.jpg,C_M_15.jpg,A_F_14.jpg,none,0,false,high,false
DZzY4lSp,3e9vauv7czrnvucm8noapw1mqoqyaq,3ijxv6uz11wvrvhsxitvniszn0kira,DZzY4lSp,2020-0188,2020-06-04,10:37:45,11:19:55,NA,incomplete,157,race,3,1,left,C_F_10.jpg,C_M_14.jpg,A_F_13.jpg,right,1272.9999999993015,false,high,false
DZzY4lSp,3e9vauv7czrnvucm8noapw1mqoqyaq,3ijxv6uz11wvrvhsxitvniszn0kira,DZzY4lSp,2020-0188,2020-06-04,10:37:45,11:19:55,NA,incomplete,158,race,3,1,left,C_M_14.jpg,C_F_06.jpg,A_M_10.jpg,right,1271.3100000000559,false,high,false
DZzY4lSp,3e9vauv7czrnvucm8noapw1mqoqyaq,3ijxv6uz11wvrvhsxitvniszn0kira,DZzY4lSp,2020-0188,2020-06-04,10:37:45,11:19:55,NA,incomplete,159,race,3,1,right,C_M_06.jpg,A_M_08.jpg,C_F_09.jpg,left,947.0199999997858,false,high,false
DZzY4lSp,3e9vauv7czrnvucm8noapw1mqoqyaq,3ijxv6uz11wvrvhsxitvniszn0kira,DZzY4lSp,2020-0188,2020-06-04,10:37:45,11:19:55,NA,incomplete,160,gender,2,0,right,C_M_08.jpg,C_F_06.jpg,A_M_02.jpg,left,1304.2100000001956,false,high,false
DZzY4lSp,3e9vauv7czrnvucm8noapw1mqoqyaq,3ijxv6uz11wvrvhsxitvniszn0kira,DZzY4lSp,2020-0188,2020-06-04,10:37:45,11:19:55,NA,incomplete,161,gender,2,1,left,A_F_09.jpg,C_F_16.jpg,A_M_02.jpg,left,1751.7800000004936,true,high,false
DZzY4lSp,3e9vauv7czrnvucm8noapw1mqoqyaq,3ijxv6uz11wvrvhsxitvniszn0kira,DZzY4lSp,2020-0188,2020-06-04,10:37:45,11:19:55,NA,incomplete,162,gender,2,1,right,C_F_01.jpg,C_M_12.jpg,A_F_10.jpg,left,1458.0699999986682,false,high,false
DZzY4lSp,3e9vauv7czrnvucm8noapw1mqoqyaq,3ijxv6uz11wvrvhsxitvniszn0kira,DZzY4lSp,2020-0188,2020-06-04,10:37:45,11:19:55,NA,incomplete,163,gender,2,1,left,C_F_16.jpg,A_F_08.jpg,C_M_13.jpg,left,871.9350000009872,true,high,false
DZzY4lSp,3e9vauv7czrnvucm8noapw1mqoqyaq,3ijxv6uz11wvrvhsxitvniszn0kira,DZzY4lSp,2020-0188,2020-06-04,10:37:45,11:19:55,NA,incomplete,164,gender,2,1,left,A_M_09.jpg,C_M_13.jpg,A_F_05.jpg,left,1062.4000000008382,true,high,false
DZzY4lSp,3e9vauv7czrnvucm8noapw1mqoqyaq,3ijxv6uz11wvrvhsxitvniszn0kira,DZzY4lSp,2020-0188,2020-06-04,10:37:45,11:19:55,NA,incomplete,165,gender,2,1,left,A_M_06.jpg,C_M_14.jpg,A_F_04.jpg,left,879.1750000000466,true,high,false
DZzY4lSp,3e9vauv7czrnvucm8noapw1mqoqyaq,3ijxv6uz11wvrvhsxitvniszn0kira,DZzY4lSp,2020-0188,2020-06-04,10:37:45,11:19:55,NA,incomplete,166,gender,2,1,left,A_F_13.jpg,C_F_10.jpg,A_M_12.jpg,none,0,false,high,false
DZzY4lSp,3e9vauv7czrnvucm8noapw1mqoqyaq,3ijxv6uz11wvrvhsxitvniszn0kira,DZzY4lSp,2020-0188,2020-06-04,10:37:45,11:19:55,NA,incomplete,167,gender,2,0,left,C_M_16.jpg,A_M_15.jpg,C_F_08.jpg,right,1008.5649999999441,false,high,false
DZzY4lSp,3e9vauv7czrnvucm8noapw1mqoqyaq,3ijxv6uz11wvrvhsxitvniszn0kira,DZzY4lSp,2020-0188,2020-06-04,10:37:45,11:19:55,NA,incomplete,168,gender,2,1,right,A_M_05.jpg,A_F_12.jpg,C_M_06.jpg,left,806.7150000007823,false,high,false
DZzY4lSp,3e9vauv7czrnvucm8noapw1mqoqyaq,3ijxv6uz11wvrvhsxitvniszn0kira,DZzY4lSp,2020-0188,2020-06-04,10:37:45,11:19:55,NA,incomplete,169,gender,2,1,right,C_M_13.jpg,C_F_05.jpg,A_M_06.jpg,right,944.8700000010431,true,high,false
DZzY4lSp,3e9vauv7czrnvucm8noapw1mqoqyaq,3ijxv6uz11wvrvhsxitvniszn0kira,DZzY4lSp,2020-0188,2020-06-04,10:37:45,11:19:55,NA,incomplete,170,gender,2,1,right,C_M_10.jpg,C_F_06.jpg,A_M_12.jpg,right,934.6650000009686,true,high,false
DZzY4lSp,3e9vauv7czrnvucm8noapw1mqoqyaq,3ijxv6uz11wvrvhsxitvniszn0kira,DZzY4lSp,2020-0188,2020-06-04,10:37:45,11:19:55,NA,incomplete,171,gender,2,1,left,A_F_15.jpg,C_F_05.jpg,A_M_07.jpg,right,1246.0249999985099,false,high,false
DZzY4lSp,3e9vauv7czrnvucm8noapw1mqoqyaq,3ijxv6uz11wvrvhsxitvniszn0kira,DZzY4lSp,2020-0188,2020-06-04,10:37:45,11:19:55,NA,incomplete,172,gender,2,1,right,A_F_09.jpg,A_M_11.jpg,C_F_06.jpg,left,830.5400000009686,false,high,false
DZzY4lSp,3e9vauv7czrnvucm8noapw1mqoqyaq,3ijxv6uz11wvrvhsxitvniszn0kira,DZzY4lSp,2020-0188,2020-06-04,10:37:45,11:19:55,NA,incomplete,173,gender,2,1,left,A_F_07.jpg,C_F_12.jpg,A_M_11.jpg,right,646.8249999997206,false,high,false
DZzY4lSp,3e9vauv7czrnvucm8noapw1mqoqyaq,3ijxv6uz11wvrvhsxitvniszn0kira,DZzY4lSp,2020-0188,2020-06-04,10:37:45,11:19:55,NA,incomplete,174,gender,2,1,right,C_F_02.jpg,C_M_12.jpg,A_F_06.jpg,left,910.9249999998137,false,high,false
DZzY4lSp,3e9vauv7czrnvucm8noapw1mqoqyaq,3ijxv6uz11wvrvhsxitvniszn0kira,DZzY4lSp,2020-0188,2020-06-04,10:37:45,11:19:55,NA,incomplete,175,gender,2,0,right,A_F_03.jpg,A_M_09.jpg,C_F_07.jpg,right,151.24499999918044,true,high,false
DZzY4lSp,3e9vauv7czrnvucm8noapw1mqoqyaq,3ijxv6uz11wvrvhsxitvniszn0kira,DZzY4lSp,2020-0188,2020-06-04,10:37:45,11:19:55,NA,incomplete,176,gender,2,1,left,A_M_14.jpg,C_M_16.jpg,A_F_05.jpg,right,1301.2650000001304,false,high,false
DZzY4lSp,3e9vauv7czrnvucm8noapw1mqoqyaq,3ijxv6uz11wvrvhsxitvniszn0kira,DZzY4lSp,2020-0188,2020-06-04,10:37:45,11:19:55,NA,incomplete,177,gender,2,0,right,A_M_07.jpg,A_F_16.jpg,C_M_05.jpg,left,108.74999999953434,false,high,false
DZzY4lSp,3e9vauv7czrnvucm8noapw1mqoqyaq,3ijxv6uz11wvrvhsxitvniszn0kira,DZzY4lSp,2020-0188,2020-06-04,10:37:45,11:19:55,NA,incomplete,178,gender,2,1,right,C_F_06.jpg,C_M_02.jpg,A_F_05.jpg,left,623.7650000001304,false,high,false
DZzY4lSp,3e9vauv7czrnvucm8noapw1mqoqyaq,3ijxv6uz11wvrvhsxitvniszn0kira,DZzY4lSp,2020-0188,2020-06-04,10:37:45,11:19:55,NA,incomplete,179,gender,2,1,left,C_F_15.jpg,A_F_07.jpg,C_M_14.jpg,right,1304.2550000008196,false,high,false
DZzY4lSp,3e9vauv7czrnvucm8noapw1mqoqyaq,3ijxv6uz11wvrvhsxitvniszn0kira,DZzY4lSp,2020-0188,2020-06-04,10:37:45,11:19:55,NA,incomplete,180,race,3,1,right,C_F_16.jpg,A_F_07.jpg,C_M_15.jpg,right,1224.8199999993667,true,high,false
DZzY4lSp,3e9vauv7czrnvucm8noapw1mqoqyaq,3ijxv6uz11wvrvhsxitvniszn0kira,DZzY4lSp,2020-0188,2020-06-04,10:37:45,11:19:55,NA,incomplete,181,race,3,0,left,C_M_16.jpg,C_F_14.jpg,A_M_03.jpg,left,1442.800000000745,true,high,false
DZzY4lSp,3e9vauv7czrnvucm8noapw1mqoqyaq,3ijxv6uz11wvrvhsxitvniszn0kira,DZzY4lSp,2020-0188,2020-06-04,10:37:45,11:19:55,NA,incomplete,182,race,3,1,right,C_F_09.jpg,A_F_01.jpg,C_M_13.jpg,right,1150.6900000004098,true,high,false
DZzY4lSp,3e9vauv7czrnvucm8noapw1mqoqyaq,3ijxv6uz11wvrvhsxitvniszn0kira,DZzY4lSp,2020-0188,2020-06-04,10:37:45,11:19:55,NA,incomplete,183,race,3,1,right,C_M_15.jpg,A_M_05.jpg,C_F_03.jpg,right,1278.4800000009127,true,high,false
DZzY4lSp,3e9vauv7czrnvucm8noapw1mqoqyaq,3ijxv6uz11wvrvhsxitvniszn0kira,DZzY4lSp,2020-0188,2020-06-04,10:37:45,11:19:55,NA,incomplete,184,race,3,1,left,A_M_01.jpg,A_F_06.jpg,C_M_14.jpg,right,1138.4199999994598,false,high,false
DZzY4lSp,3e9vauv7czrnvucm8noapw1mqoqyaq,3ijxv6uz11wvrvhsxitvniszn0kira,DZzY4lSp,2020-0188,2020-06-04,10:37:45,11:19:55,NA,incomplete,185,race,3,1,right,C_M_10.jpg,A_M_06.jpg,C_F_13.jpg,left,1097.8349999990314,false,high,false
DZzY4lSp,3e9vauv7czrnvucm8noapw1mqoqyaq,3ijxv6uz11wvrvhsxitvniszn0kira,DZzY4lSp,2020-0188,2020-06-04,10:37:45,11:19:55,NA,incomplete,186,race,3,1,left,A_M_15.jpg,A_F_14.jpg,C_M_05.jpg,right,858.2900000000373,false,high,false
DZzY4lSp,3e9vauv7czrnvucm8noapw1mqoqyaq,3ijxv6uz11wvrvhsxitvniszn0kira,DZzY4lSp,2020-0188,2020-06-04,10:37:45,11:19:55,NA,incomplete,187,race,3,1,right,A_M_04.jpg,C_M_13.jpg,A_F_12.jpg,right,941.1149999992922,true,high,false
DZzY4lSp,3e9vauv7czrnvucm8noapw1mqoqyaq,3ijxv6uz11wvrvhsxitvniszn0kira,DZzY4lSp,2020-0188,2020-06-04,10:37:45,11:19:55,NA,incomplete,188,race,3,0,right,A_M_03.jpg,C_M_14.jpg,A_F_09.jpg,right,1293.514999999199,true,high,false
DZzY4lSp,3e9vauv7czrnvucm8noapw1mqoqyaq,3ijxv6uz11wvrvhsxitvniszn0kira,DZzY4lSp,2020-0188,2020-06-04,10:37:45,11:19:55,NA,incomplete,189,race,3,1,left,A_M_07.jpg,A_F_06.jpg,C_M_10.jpg,left,693.1049999999814,true,high,false
DZzY4lSp,3e9vauv7czrnvucm8noapw1mqoqyaq,3ijxv6uz11wvrvhsxitvniszn0kira,DZzY4lSp,2020-0188,2020-06-04,10:37:45,11:19:55,NA,incomplete,190,race,3,0,right,C_M_11.jpg,A_M_09.jpg,C_F_01.jpg,left,1120.8700000005774,false,high,false
DZzY4lSp,3e9vauv7czrnvucm8noapw1mqoqyaq,3ijxv6uz11wvrvhsxitvniszn0kira,DZzY4lSp,2020-0188,2020-06-04,10:37:45,11:19:55,NA,incomplete,191,race,3,1,right,C_M_14.jpg,A_M_06.jpg,C_F_10.jpg,left,771.589999998454,false,high,false
DZzY4lSp,3e9vauv7czrnvucm8noapw1mqoqyaq,3ijxv6uz11wvrvhsxitvniszn0kira,DZzY4lSp,2020-0188,2020-06-04,10:37:45,11:19:55,NA,incomplete,192,race,3,0,right,C_M_12.jpg,A_M_13.jpg,C_F_14.jpg,right,994.9999999990687,true,high,false
DZzY4lSp,3e9vauv7czrnvucm8noapw1mqoqyaq,3ijxv6uz11wvrvhsxitvniszn0kira,DZzY4lSp,2020-0188,2020-06-04,10:37:45,11:19:55,NA,incomplete,193,race,3,1,left,C_F_09.jpg,C_M_12.jpg,A_F_08.jpg,left,993.140000000596,true,high,false
DZzY4lSp,3e9vauv7czrnvucm8noapw1mqoqyaq,3ijxv6uz11wvrvhsxitvniszn0kira,DZzY4lSp,2020-0188,2020-06-04,10:37:45,11:19:55,NA,incomplete,194,race,3,0,left,A_M_01.jpg,A_F_04.jpg,C_M_12.jpg,left,1204.39500000095,true,high,false
DZzY4lSp,3e9vauv7czrnvucm8noapw1mqoqyaq,3ijxv6uz11wvrvhsxitvniszn0kira,DZzY4lSp,2020-0188,2020-06-04,10:37:45,11:19:55,NA,incomplete,195,race,3,1,left,C_F_06.jpg,C_M_12.jpg,A_F_13.jpg,right,668.5349999992177,false,high,false
DZzY4lSp,3e9vauv7czrnvucm8noapw1mqoqyaq,3ijxv6uz11wvrvhsxitvniszn0kira,DZzY4lSp,2020-0188,2020-06-04,10:37:45,11:19:55,NA,incomplete,196,race,3,1,left,A_M_13.jpg,A_F_07.jpg,C_M_09.jpg,left,894.304999999702,true,high,false
DZzY4lSp,3e9vauv7czrnvucm8noapw1mqoqyaq,3ijxv6uz11wvrvhsxitvniszn0kira,DZzY4lSp,2020-0188,2020-06-04,10:37:45,11:19:55,NA,incomplete,197,race,3,1,left,A_M_07.jpg,A_F_01.jpg,C_M_10.jpg,none,0,false,high,false
DZzY4lSp,3e9vauv7czrnvucm8noapw1mqoqyaq,3ijxv6uz11wvrvhsxitvniszn0kira,DZzY4lSp,2020-0188,2020-06-04,10:37:45,11:19:55,NA,incomplete,198,race,3,1,left,A_M_05.jpg,A_F_14.jpg,C_M_01.jpg,left,1058.1749999998137,true,high,false
DZzY4lSp,3e9vauv7czrnvucm8noapw1mqoqyaq,3ijxv6uz11wvrvhsxitvniszn0kira,DZzY4lSp,2020-0188,2020-06-04,10:37:45,11:19:55,NA,incomplete,199,race,3,1,left,C_F_16.jpg,C_M_11.jpg,A_F_10.jpg,none,0,false,high,false
DZzY4lSp,3e9vauv7czrnvucm8noapw1mqoqyaq,3ijxv6uz11wvrvhsxitvniszn0kira,DZzY4lSp,2020-0188,2020-06-04,10:37:45,11:19:55,NA,incomplete,200,gender,2,1,left,A_M_04.jpg,C_M_02.jpg,A_F_06.jpg,none,0,false,high,false
DZzY4lSp,3e9vauv7czrnvucm8noapw1mqoqyaq,3ijxv6uz11wvrvhsxitvniszn0kira,DZzY4lSp,2020-0188,2020-06-04,10:37:45,11:19:55,NA,incomplete,201,gender,2,1,right,C_F_14.jpg,C_M_01.jpg,A_F_04.jpg,right,1069.4549999986775,true,high,false
DZzY4lSp,3e9vauv7czrnvucm8noapw1mqoqyaq,3ijxv6uz11wvrvhsxitvniszn0kira,DZzY4lSp,2020-0188,2020-06-04,10:37:45,11:19:55,NA,incomplete,202,gender,2,1,right,A_M_01.jpg,A_F_05.jpg,C_M_02.jpg,left,1325.4350000005215,false,high,false
DZzY4lSp,3e9vauv7czrnvucm8noapw1mqoqyaq,3ijxv6uz11wvrvhsxitvniszn0kira,DZzY4lSp,2020-0188,2020-06-04,10:37:45,11:19:55,NA,incomplete,203,gender,2,1,right,A_F_05.jpg,A_M_03.jpg,C_F_11.jpg,right,1539.6500000008382,true,high,false
DZzY4lSp,3e9vauv7czrnvucm8noapw1mqoqyaq,3ijxv6uz11wvrvhsxitvniszn0kira,DZzY4lSp,2020-0188,2020-06-04,10:37:45,11:19:55,NA,incomplete,204,gender,2,1,left,C_M_10.jpg,A_M_11.jpg,C_F_12.jpg,left,1064.4049999993294,true,high,false
DZzY4lSp,3e9vauv7czrnvucm8noapw1mqoqyaq,3ijxv6uz11wvrvhsxitvniszn0kira,DZzY4lSp,2020-0188,2020-06-04,10:37:45,11:19:55,NA,incomplete,205,gender,2,1,left,A_F_02.jpg,C_F_01.jpg,A_M_11.jpg,left,1038.7650000015274,true,high,false
DZzY4lSp,3e9vauv7czrnvucm8noapw1mqoqyaq,3ijxv6uz11wvrvhsxitvniszn0kira,DZzY4lSp,2020-0188,2020-06-04,10:37:45,11:19:55,NA,incomplete,206,gender,2,1,left,C_F_07.jpg,A_F_01.jpg,C_M_03.jpg,left,1250.7799999988638,true,high,false
DZzY4lSp,3e9vauv7czrnvucm8noapw1mqoqyaq,3ijxv6uz11wvrvhsxitvniszn0kira,DZzY4lSp,2020-0188,2020-06-04,10:37:45,11:19:55,NA,incomplete,207,gender,2,0,right,C_M_06.jpg,C_F_09.jpg,A_M_07.jpg,right,1063.7999999998137,true,high,false
DZzY4lSp,3e9vauv7czrnvucm8noapw1mqoqyaq,3ijxv6uz11wvrvhsxitvniszn0kira,DZzY4lSp,2020-0188,2020-06-04,10:37:45,11:19:55,NA,incomplete,208,gender,2,1,right,C_F_09.jpg,C_M_12.jpg,A_F_05.jpg,right,1120.870000001043,true,high,false
DZzY4lSp,3e9vauv7czrnvucm8noapw1mqoqyaq,3ijxv6uz11wvrvhsxitvniszn0kira,DZzY4lSp,2020-0188,2020-06-04,10:37:45,11:19:55,NA,incomplete,209,gender,2,1,right,A_M_07.jpg,A_F_02.jpg,C_M_15.jpg,left,1722.6949999984354,false,high,false
DZzY4lSp,3e9vauv7czrnvucm8noapw1mqoqyaq,3ijxv6uz11wvrvhsxitvniszn0kira,DZzY4lSp,2020-0188,2020-06-04,10:37:45,11:19:55,NA,incomplete,210,gender,2,0,left,C_M_01.jpg,A_M_16.jpg,C_F_07.jpg,right,1431.529999999795,false,high,false
DZzY4lSp,3e9vauv7czrnvucm8noapw1mqoqyaq,3ijxv6uz11wvrvhsxitvniszn0kira,DZzY4lSp,2020-0188,2020-06-04,10:37:45,11:19:55,NA,incomplete,211,gender,2,1,right,C_F_02.jpg,C_M_14.jpg,A_F_15.jpg,left,1379.25,false,high,false
DZzY4lSp,3e9vauv7czrnvucm8noapw1mqoqyaq,3ijxv6uz11wvrvhsxitvniszn0kira,DZzY4lSp,2020-0188,2020-06-04,10:37:45,11:19:55,NA,incomplete,212,gender,2,0,left,C_F_12.jpg,A_F_15.jpg,C_M_03.jpg,right,1464.9300000001676,false,high,false
DZzY4lSp,3e9vauv7czrnvucm8noapw1mqoqyaq,3ijxv6uz11wvrvhsxitvniszn0kira,DZzY4lSp,2020-0188,2020-06-04,10:37:45,11:19:55,NA,incomplete,213,gender,2,1,right,A_F_16.jpg,A_M_04.jpg,C_F_09.jpg,right,1163.0400000014342,true,high,false
DZzY4lSp,3e9vauv7czrnvucm8noapw1mqoqyaq,3ijxv6uz11wvrvhsxitvniszn0kira,DZzY4lSp,2020-0188,2020-06-04,10:37:45,11:19:55,NA,incomplete,214,gender,2,0,right,A_M_03.jpg,A_F_13.jpg,C_M_07.jpg,right,1387.7349999998696,true,high,false
DZzY4lSp,3e9vauv7czrnvucm8noapw1mqoqyaq,3ijxv6uz11wvrvhsxitvniszn0kira,DZzY4lSp,2020-0188,2020-06-04,10:37:45,11:19:55,NA,incomplete,215,gender,2,1,left,A_F_11.jpg,C_F_07.jpg,A_M_04.jpg,left,1163.9550000000745,true,high,false
DZzY4lSp,3e9vauv7czrnvucm8noapw1mqoqyaq,3ijxv6uz11wvrvhsxitvniszn0kira,DZzY4lSp,2020-0188,2020-06-04,10:37:45,11:19:55,NA,incomplete,216,gender,2,1,right,A_F_13.jpg,A_M_03.jpg,C_F_10.jpg,right,1144.1350000002421,true,high,false
DZzY4lSp,3e9vauv7czrnvucm8noapw1mqoqyaq,3ijxv6uz11wvrvhsxitvniszn0kira,DZzY4lSp,2020-0188,2020-06-04,10:37:45,11:19:55,NA,incomplete,217,gender,2,1,left,A_F_03.jpg,C_F_01.jpg,A_M_05.jpg,right,1195.929999999702,false,high,false
DZzY4lSp,3e9vauv7czrnvucm8noapw1mqoqyaq,3ijxv6uz11wvrvhsxitvniszn0kira,DZzY4lSp,2020-0188,2020-06-04,10:37:45,11:19:55,NA,incomplete,218,gender,2,0,left,A_M_16.jpg,C_M_11.jpg,A_F_01.jpg,left,1338.7199999997392,true,high,false
DZzY4lSp,3e9vauv7czrnvucm8noapw1mqoqyaq,3ijxv6uz11wvrvhsxitvniszn0kira,DZzY4lSp,2020-0188,2020-06-04,10:37:45,11:19:55,NA,incomplete,219,gender,2,1,right,C_M_07.jpg,C_F_16.jpg,A_M_11.jpg,right,1201.6600000006147,true,high,false
DZzY4lSp,3e9vauv7czrnvucm8noapw1mqoqyaq,3ijxv6uz11wvrvhsxitvniszn0kira,DZzY4lSp,2020-0188,2020-06-04,10:37:45,11:19:55,NA,incomplete,220,race,3,1,left,C_M_02.jpg,C_F_06.jpg,A_M_07.jpg,right,1178.1200000005774,false,high,false
DZzY4lSp,3e9vauv7czrnvucm8noapw1mqoqyaq,3ijxv6uz11wvrvhsxitvniszn0kira,DZzY4lSp,2020-0188,2020-06-04,10:37:45,11:19:55,NA,incomplete,221,race,3,1,right,A_M_07.jpg,C_M_06.jpg,A_F_11.jpg,left,1331.154999999795,false,high,false
DZzY4lSp,3e9vauv7czrnvucm8noapw1mqoqyaq,3ijxv6uz11wvrvhsxitvniszn0kira,DZzY4lSp,2020-0188,2020-06-04,10:37:45,11:19:55,NA,incomplete,222,race,3,1,right,C_M_09.jpg,A_M_03.jpg,C_F_11.jpg,right,1151.5049999994226,true,high,false
DZzY4lSp,3e9vauv7czrnvucm8noapw1mqoqyaq,3ijxv6uz11wvrvhsxitvniszn0kira,DZzY4lSp,2020-0188,2020-06-04,10:37:45,11:19:55,NA,incomplete,223,race,3,1,left,A_M_09.jpg,A_F_10.jpg,C_M_06.jpg,left,1312.7700000004843,true,high,false
DZzY4lSp,3e9vauv7czrnvucm8noapw1mqoqyaq,3ijxv6uz11wvrvhsxitvniszn0kira,DZzY4lSp,2020-0188,2020-06-04,10:37:45,11:19:55,NA,incomplete,224,race,3,1,right,C_M_10.jpg,A_M_04.jpg,C_F_01.jpg,right,1437.0949999992736,true,high,false
DZzY4lSp,3e9vauv7czrnvucm8noapw1mqoqyaq,3ijxv6uz11wvrvhsxitvniszn0kira,DZzY4lSp,2020-0188,2020-06-04,10:37:45,11:19:55,NA,incomplete,225,race,3,0,left,A_M_08.jpg,A_F_16.jpg,C_M_02.jpg,right,1259.1000000014901,false,high,false
DZzY4lSp,3e9vauv7czrnvucm8noapw1mqoqyaq,3ijxv6uz11wvrvhsxitvniszn0kira,DZzY4lSp,2020-0188,2020-06-04,10:37:45,11:19:55,NA,incomplete,226,race,3,1,left,A_F_03.jpg,A_M_16.jpg,C_F_04.jpg,left,1629.054999999702,true,high,false
DZzY4lSp,3e9vauv7czrnvucm8noapw1mqoqyaq,3ijxv6uz11wvrvhsxitvniszn0kira,DZzY4lSp,2020-0188,2020-06-04,10:37:45,11:19:55,NA,incomplete,227,race,3,1,right,C_M_09.jpg,A_M_02.jpg,C_F_06.jpg,right,1451.9400000008754,true,high,false
DZzY4lSp,3e9vauv7czrnvucm8noapw1mqoqyaq,3ijxv6uz11wvrvhsxitvniszn0kira,DZzY4lSp,2020-0188,2020-06-04,10:37:45,11:19:55,NA,incomplete,228,race,3,1,left,A_F_10.jpg,A_M_05.jpg,C_F_09.jpg,right,1337.5499999984168,false,high,false
DZzY4lSp,3e9vauv7czrnvucm8noapw1mqoqyaq,3ijxv6uz11wvrvhsxitvniszn0kira,DZzY4lSp,2020-0188,2020-06-04,10:37:45,11:19:55,NA,incomplete,229,race,3,0,left,C_F_02.jpg,C_M_05.jpg,A_F_03.jpg,right,1321.249999998603,false,high,false
DZzY4lSp,3e9vauv7czrnvucm8noapw1mqoqyaq,3ijxv6uz11wvrvhsxitvniszn0kira,DZzY4lSp,2020-0188,2020-06-04,10:37:45,11:19:55,NA,incomplete,230,race,3,1,right,A_M_03.jpg,C_M_07.jpg,A_F_10.jpg,left,1499.4549999991432,false,high,false
DZzY4lSp,3e9vauv7czrnvucm8noapw1mqoqyaq,3ijxv6uz11wvrvhsxitvniszn0kira,DZzY4lSp,2020-0188,2020-06-04,10:37:45,11:19:55,NA,incomplete,231,race,3,1,left,A_M_16.jpg,A_F_11.jpg,C_M_07.jpg,right,1542.605000000447,false,high,false
DZzY4lSp,3e9vauv7czrnvucm8noapw1mqoqyaq,3ijxv6uz11wvrvhsxitvniszn0kira,DZzY4lSp,2020-0188,2020-06-04,10:37:45,11:19:55,NA,incomplete,232,race,3,1,left,A_F_14.jpg,A_M_10.jpg,C_F_12.jpg,left,1833.6749999998137,true,high,false
DZzY4lSp,3e9vauv7czrnvucm8noapw1mqoqyaq,3ijxv6uz11wvrvhsxitvniszn0kira,DZzY4lSp,2020-0188,2020-06-04,10:37:45,11:19:55,NA,incomplete,233,race,3,1,left,C_F_07.jpg,C_M_05.jpg,A_F_13.jpg,right,1312.5099999997765,false,high,false
DZzY4lSp,3e9vauv7czrnvucm8noapw1mqoqyaq,3ijxv6uz11wvrvhsxitvniszn0kira,DZzY4lSp,2020-0188,2020-06-04,10:37:45,11:19:55,NA,incomplete,234,race,3,1,right,C_M_08.jpg,A_M_12.jpg,C_F_06.jpg,right,1428.3599999998696,true,high,false
DZzY4lSp,3e9vauv7czrnvucm8noapw1mqoqyaq,3ijxv6uz11wvrvhsxitvniszn0kira,DZzY4lSp,2020-0188,2020-06-04,10:37:45,11:19:55,NA,incomplete,235,race,3,0,right,A_M_14.jpg,C_M_09.jpg,A_F_02.jpg,right,1446.3799999994226,true,high,false
DZzY4lSp,3e9vauv7czrnvucm8noapw1mqoqyaq,3ijxv6uz11wvrvhsxitvniszn0kira,DZzY4lSp,2020-0188,2020-06-04,10:37:45,11:19:55,NA,incomplete,236,race,3,1,right,A_M_15.jpg,C_M_04.jpg,A_F_12.jpg,right,1652.819999998901,true,high,false
DZzY4lSp,3e9vauv7czrnvucm8noapw1mqoqyaq,3ijxv6uz11wvrvhsxitvniszn0kira,DZzY4lSp,2020-0188,2020-06-04,10:37:45,11:19:55,NA,incomplete,237,race,3,0,left,C_F_03.jpg,C_M_06.jpg,A_F_04.jpg,left,1435.910000000149,true,high,false
DZzY4lSp,3e9vauv7czrnvucm8noapw1mqoqyaq,3ijxv6uz11wvrvhsxitvniszn0kira,DZzY4lSp,2020-0188,2020-06-04,10:37:45,11:19:55,NA,incomplete,238,race,3,1,left,C_M_06.jpg,C_F_03.jpg,A_M_11.jpg,right,1010.7950000003912,false,high,false
DZzY4lSp,3e9vauv7czrnvucm8noapw1mqoqyaq,3ijxv6uz11wvrvhsxitvniszn0kira,DZzY4lSp,2020-0188,2020-06-04,10:37:45,11:19:55,NA,incomplete,239,race,3,1,right,C_F_01.jpg,A_F_15.jpg,C_M_10.jpg,right,1514.7049999996088,true,high,false
DZzY4lSp,3e9vauv7czrnvucm8noapw1mqoqyaq,3ijxv6uz11wvrvhsxitvniszn0kira,DZzY4lSp,2020-0188,2020-06-04,10:37:45,11:19:55,NA,NA,instruction example,color,NA,NA,NA,Red_Star_Stripes_2.jpg,Red_Triangle_Dots_1.jpg,Blue_Circle_Stripes_4.jpg,NA,NA,NA,NA,undefined
DZzY4lSp,3e9vauv7czrnvucm8noapw1mqoqyaq,3ijxv6uz11wvrvhsxitvniszn0kira,DZzY4lSp,2020-0188,2020-06-04,10:37:45,11:19:55,NA,NA,instruction example,color,NA,NA,NA,Purple_Star_Dots_4.jpg,Red_Circle_Dots_2.jpg,Purple_Triangle_Stripes_1.jpg,NA,NA,NA,NA,undefined
DZzY4lSp,3e9vauv7czrnvucm8noapw1mqoqyaq,3ijxv6uz11wvrvhsxitvniszn0kira,DZzY4lSp,2020-0188,2020-06-04,10:37:45,11:19:55,NA,NA,instruction example,color,NA,NA,NA,A_F_16.jpg,C_F_04.jpg,A_M_14.jpg,NA,NA,NA,NA,undefined
DZzY4lSp,3e9vauv7czrnvucm8noapw1mqoqyaq,3ijxv6uz11wvrvhsxitvniszn0kira,DZzY4lSp,2020-0188,2020-06-04,10:37:45,11:19:55,NA,NA,instruction example,color,NA,NA,NA,A_M_12.jpg,A_F_13.jpg,C_M_05.jpg,NA,NA,NA,NA,undefined
