workerId,hitId,assignmentId,subject,studyid,exp_date,exp_start,exp_end,time_start,time_end,trial,type,sequence,reward_validity,answer,image_top,image_left,image_right,response,response_time,response_acc,volatility,age,race,gender,ethnicity,color,vision,neuro,practice
rOcDOGnL,31mcue39cnznpis152nuvogcfi93g2,3io1lgzlkda9g67vw8e6zy7poip68i,rOcDOGnL,2020-0188,2020-06-04,12:33:37,12:54:55,NA,incomplete,0,color,0,0,left,Red_Plus_Dots_1.jpg,Red_Star_Stripes_4.jpg,Blue_Circle_Dots_3.jpg,left,1064,true,NA,NA,NA,NA,NA,NA,NA,NA,true
rOcDOGnL,31mcue39cnznpis152nuvogcfi93g2,3io1lgzlkda9g67vw8e6zy7poip68i,rOcDOGnL,2020-0188,2020-06-04,12:33:37,12:54:55,NA,incomplete,1,color,0,0,left,Purple_Circle_Dots_2.jpg,Purple_Triangle_Chess_4.jpg,Green_Star_Dots_1.jpg,left,753,true,NA,NA,NA,NA,NA,NA,NA,NA,true
rOcDOGnL,31mcue39cnznpis152nuvogcfi93g2,3io1lgzlkda9g67vw8e6zy7poip68i,rOcDOGnL,2020-0188,2020-06-04,12:33:37,12:54:55,NA,incomplete,2,color,0,1,left,Green_Star_Chess_4.jpg,Green_Triangle_Grid_3.jpg,Red_Circle_Chess_1.jpg,left,680,true,NA,NA,NA,NA,NA,NA,NA,NA,true
rOcDOGnL,31mcue39cnznpis152nuvogcfi93g2,3io1lgzlkda9g67vw8e6zy7poip68i,rOcDOGnL,2020-0188,2020-06-04,12:33:37,12:54:55,NA,incomplete,3,color,0,1,right,Red_Star_Grid_4.jpg,Green_Circle_Grid_2.jpg,Red_Triangle_Dots_3.jpg,right,601,true,NA,NA,NA,NA,NA,NA,NA,NA,true
rOcDOGnL,31mcue39cnznpis152nuvogcfi93g2,3io1lgzlkda9g67vw8e6zy7poip68i,rOcDOGnL,2020-0188,2020-06-04,12:33:37,12:54:55,NA,incomplete,4,color,0,1,right,Purple_Triangle_Stripes_2.jpg,Red_Circle_Stripes_3.jpg,Purple_Star_Grid_4.jpg,right,768,true,NA,NA,NA,NA,NA,NA,NA,NA,true
rOcDOGnL,31mcue39cnznpis152nuvogcfi93g2,3io1lgzlkda9g67vw8e6zy7poip68i,rOcDOGnL,2020-0188,2020-06-04,12:33:37,12:54:55,NA,incomplete,5,color,0,1,left,Blue_Plus_Dots_1.jpg,Blue_Triangle_Grid_4.jpg,Red_Circle_Dots_3.jpg,left,628,true,NA,NA,NA,NA,NA,NA,NA,NA,true
rOcDOGnL,31mcue39cnznpis152nuvogcfi93g2,3io1lgzlkda9g67vw8e6zy7poip68i,rOcDOGnL,2020-0188,2020-06-04,12:33:37,12:54:55,NA,incomplete,6,color,0,0,left,Purple_Triangle_Grid_1.jpg,Purple_Star_Stripes_4.jpg,Green_Circle_Grid_2.jpg,left,545,true,NA,NA,NA,NA,NA,NA,NA,NA,true
rOcDOGnL,31mcue39cnznpis152nuvogcfi93g2,3io1lgzlkda9g67vw8e6zy7poip68i,rOcDOGnL,2020-0188,2020-06-04,12:33:37,12:54:55,NA,incomplete,7,color,0,1,right,Purple_Plus_Dots_1.jpg,Red_Circle_Dots_3.jpg,Purple_Star_Grid_4.jpg,right,543,true,NA,NA,NA,NA,NA,NA,NA,NA,true
rOcDOGnL,31mcue39cnznpis152nuvogcfi93g2,3io1lgzlkda9g67vw8e6zy7poip68i,rOcDOGnL,2020-0188,2020-06-04,12:33:37,12:54:55,NA,incomplete,8,color,0,1,left,Red_Circle_Dots_2.jpg,Red_Star_Stripes_1.jpg,Purple_Plus_Dots_3.jpg,left,672,true,NA,NA,NA,NA,NA,NA,NA,NA,true
rOcDOGnL,31mcue39cnznpis152nuvogcfi93g2,3io1lgzlkda9g67vw8e6zy7poip68i,rOcDOGnL,2020-0188,2020-06-04,12:33:37,12:54:55,NA,incomplete,9,color,0,1,left,Green_Triangle_Grid_3.jpg,Green_Star_Dots_2.jpg,Purple_Plus_Grid_4.jpg,left,537,true,NA,NA,NA,NA,NA,NA,NA,NA,true
rOcDOGnL,31mcue39cnznpis152nuvogcfi93g2,3io1lgzlkda9g67vw8e6zy7poip68i,rOcDOGnL,2020-0188,2020-06-04,12:33:37,12:54:55,NA,incomplete,10,color,0,1,left,Green_Plus_Dots_3.jpg,Green_Triangle_Chess_4.jpg,Blue_Star_Dots_1.jpg,left,736,true,NA,NA,NA,NA,NA,NA,NA,NA,true
rOcDOGnL,31mcue39cnznpis152nuvogcfi93g2,3io1lgzlkda9g67vw8e6zy7poip68i,rOcDOGnL,2020-0188,2020-06-04,12:33:37,12:54:55,NA,incomplete,11,color,0,1,right,Red_Triangle_Chess_3.jpg,Green_Star_Chess_1.jpg,Red_Circle_Dots_2.jpg,right,447,true,NA,NA,NA,NA,NA,NA,NA,NA,true
rOcDOGnL,31mcue39cnznpis152nuvogcfi93g2,3io1lgzlkda9g67vw8e6zy7poip68i,rOcDOGnL,2020-0188,2020-06-04,12:33:37,12:54:55,NA,incomplete,12,color,0,1,left,Green_Star_Grid_2.jpg,Green_Triangle_Dots_4.jpg,Blue_Circle_Grid_3.jpg,left,491,true,NA,NA,NA,NA,NA,NA,NA,NA,true
rOcDOGnL,31mcue39cnznpis152nuvogcfi93g2,3io1lgzlkda9g67vw8e6zy7poip68i,rOcDOGnL,2020-0188,2020-06-04,12:33:37,12:54:55,NA,incomplete,13,color,0,1,right,Purple_Circle_Chess_3.jpg,Red_Plus_Chess_2.jpg,Purple_Star_Dots_1.jpg,right,524,true,NA,NA,NA,NA,NA,NA,NA,NA,true
rOcDOGnL,31mcue39cnznpis152nuvogcfi93g2,3io1lgzlkda9g67vw8e6zy7poip68i,rOcDOGnL,2020-0188,2020-06-04,12:33:37,12:54:55,NA,incomplete,14,color,0,1,right,Blue_Star_Stripes_1.jpg,Green_Triangle_Stripes_2.jpg,Blue_Circle_Dots_4.jpg,right,652,true,NA,NA,NA,NA,NA,NA,NA,NA,true
rOcDOGnL,31mcue39cnznpis152nuvogcfi93g2,3io1lgzlkda9g67vw8e6zy7poip68i,rOcDOGnL,2020-0188,2020-06-04,12:33:37,12:54:55,NA,incomplete,15,color,0,1,right,Purple_Plus_Grid_3.jpg,Red_Star_Grid_4.jpg,Purple_Circle_Stripes_2.jpg,right,528,true,NA,NA,NA,NA,NA,NA,NA,NA,true
rOcDOGnL,31mcue39cnznpis152nuvogcfi93g2,3io1lgzlkda9g67vw8e6zy7poip68i,rOcDOGnL,2020-0188,2020-06-04,12:33:37,12:54:55,NA,incomplete,16,color,0,1,right,Purple_Triangle_Chess_1.jpg,Green_Star_Chess_4.jpg,Purple_Circle_Stripes_2.jpg,right,463,true,NA,NA,NA,NA,NA,NA,NA,NA,true
rOcDOGnL,31mcue39cnznpis152nuvogcfi93g2,3io1lgzlkda9g67vw8e6zy7poip68i,rOcDOGnL,2020-0188,2020-06-04,12:33:37,12:54:55,NA,incomplete,17,color,0,1,left,Red_Plus_Grid_1.jpg,Red_Star_Stripes_2.jpg,Blue_Triangle_Grid_3.jpg,left,609,true,NA,NA,NA,NA,NA,NA,NA,NA,true
rOcDOGnL,31mcue39cnznpis152nuvogcfi93g2,3io1lgzlkda9g67vw8e6zy7poip68i,rOcDOGnL,2020-0188,2020-06-04,12:33:37,12:54:55,NA,incomplete,18,color,0,1,right,Green_Star_Stripes_2.jpg,Red_Circle_Stripes_1.jpg,Green_Plus_Dots_4.jpg,right,533,true,NA,NA,NA,NA,NA,NA,NA,NA,true
rOcDOGnL,31mcue39cnznpis152nuvogcfi93g2,3io1lgzlkda9g67vw8e6zy7poip68i,rOcDOGnL,2020-0188,2020-06-04,12:33:37,12:54:55,NA,incomplete,19,color,0,1,left,Purple_Plus_Chess_2.jpg,Purple_Circle_Stripes_1.jpg,Blue_Star_Chess_3.jpg,left,509,true,NA,NA,NA,NA,NA,NA,NA,NA,true
rOcDOGnL,31mcue39cnznpis152nuvogcfi93g2,3io1lgzlkda9g67vw8e6zy7poip68i,rOcDOGnL,2020-0188,2020-06-04,12:33:37,12:54:55,NA,incomplete,20,filling,1,0,left,Purple_Star_Chess_3.jpg,Red_Triangle_Chess_2.jpg,Purple_Circle_Dots_1.jpg,right,716,false,NA,NA,NA,NA,NA,NA,NA,NA,true
rOcDOGnL,31mcue39cnznpis152nuvogcfi93g2,3io1lgzlkda9g67vw8e6zy7poip68i,rOcDOGnL,2020-0188,2020-06-04,12:33:37,12:54:55,NA,incomplete,21,filling,1,1,left,Green_Plus_Dots_1.jpg,Red_Star_Dots_4.jpg,Green_Circle_Chess_3.jpg,left,622,true,NA,NA,NA,NA,NA,NA,NA,NA,true
rOcDOGnL,31mcue39cnznpis152nuvogcfi93g2,3io1lgzlkda9g67vw8e6zy7poip68i,rOcDOGnL,2020-0188,2020-06-04,12:33:37,12:54:55,NA,incomplete,22,filling,1,1,right,Green_Plus_Grid_1.jpg,Green_Triangle_Dots_3.jpg,Purple_Star_Grid_4.jpg,right,714,true,NA,NA,NA,NA,NA,NA,NA,NA,true
rOcDOGnL,31mcue39cnznpis152nuvogcfi93g2,3io1lgzlkda9g67vw8e6zy7poip68i,rOcDOGnL,2020-0188,2020-06-04,12:33:37,12:54:55,NA,incomplete,23,filling,1,1,left,Blue_Star_Stripes_3.jpg,Red_Circle_Stripes_2.jpg,Blue_Plus_Dots_1.jpg,left,779,true,NA,NA,NA,NA,NA,NA,NA,NA,true
rOcDOGnL,31mcue39cnznpis152nuvogcfi93g2,3io1lgzlkda9g67vw8e6zy7poip68i,rOcDOGnL,2020-0188,2020-06-04,12:33:37,12:54:55,NA,incomplete,24,filling,1,1,right,Blue_Circle_Chess_3.jpg,Blue_Triangle_Grid_4.jpg,Purple_Plus_Chess_1.jpg,right,897,true,NA,NA,NA,NA,NA,NA,NA,NA,true
rOcDOGnL,31mcue39cnznpis152nuvogcfi93g2,3io1lgzlkda9g67vw8e6zy7poip68i,rOcDOGnL,2020-0188,2020-06-04,12:33:37,12:54:55,NA,incomplete,25,filling,1,1,right,Green_Triangle_Dots_3.jpg,Green_Star_Stripes_2.jpg,Blue_Plus_Dots_4.jpg,left,626,false,NA,NA,NA,NA,NA,NA,NA,NA,true
rOcDOGnL,31mcue39cnznpis152nuvogcfi93g2,3io1lgzlkda9g67vw8e6zy7poip68i,rOcDOGnL,2020-0188,2020-06-04,12:33:37,12:54:55,NA,incomplete,26,filling,1,0,left,Purple_Star_Chess_4.jpg,Green_Circle_Chess_3.jpg,Purple_Triangle_Dots_1.jpg,left,894,true,NA,NA,NA,NA,NA,NA,NA,NA,true
rOcDOGnL,31mcue39cnznpis152nuvogcfi93g2,3io1lgzlkda9g67vw8e6zy7poip68i,rOcDOGnL,2020-0188,2020-06-04,12:33:37,12:54:55,NA,incomplete,27,filling,1,0,right,Green_Star_Stripes_2.jpg,Green_Triangle_Dots_4.jpg,Purple_Circle_Stripes_3.jpg,right,887,true,NA,NA,NA,NA,NA,NA,NA,NA,true
rOcDOGnL,31mcue39cnznpis152nuvogcfi93g2,3io1lgzlkda9g67vw8e6zy7poip68i,rOcDOGnL,2020-0188,2020-06-04,12:33:37,12:54:55,NA,incomplete,28,filling,1,1,right,Green_Circle_Chess_4.jpg,Green_Triangle_Grid_2.jpg,Purple_Star_Chess_3.jpg,right,855,true,NA,NA,NA,NA,NA,NA,NA,NA,true
rOcDOGnL,31mcue39cnznpis152nuvogcfi93g2,3io1lgzlkda9g67vw8e6zy7poip68i,rOcDOGnL,2020-0188,2020-06-04,12:33:37,12:54:55,NA,incomplete,29,filling,1,1,left,Blue_Plus_Stripes_1.jpg,Purple_Star_Stripes_4.jpg,Blue_Circle_Dots_2.jpg,left,860,true,NA,NA,NA,NA,NA,NA,NA,NA,true
rOcDOGnL,31mcue39cnznpis152nuvogcfi93g2,3io1lgzlkda9g67vw8e6zy7poip68i,rOcDOGnL,2020-0188,2020-06-04,12:33:37,12:54:55,NA,incomplete,30,filling,1,1,right,Blue_Triangle_Chess_1.jpg,Blue_Star_Dots_2.jpg,Purple_Plus_Chess_3.jpg,right,756,true,NA,NA,NA,NA,NA,NA,NA,NA,true
rOcDOGnL,31mcue39cnznpis152nuvogcfi93g2,3io1lgzlkda9g67vw8e6zy7poip68i,rOcDOGnL,2020-0188,2020-06-04,12:33:37,12:54:55,NA,incomplete,31,filling,1,1,left,Red_Triangle_Grid_3.jpg,Purple_Star_Grid_1.jpg,Red_Plus_Chess_2.jpg,left,996,true,NA,NA,NA,NA,NA,NA,NA,NA,true
rOcDOGnL,31mcue39cnznpis152nuvogcfi93g2,3io1lgzlkda9g67vw8e6zy7poip68i,rOcDOGnL,2020-0188,2020-06-04,12:33:37,12:54:55,NA,incomplete,32,filling,1,1,left,Blue_Plus_Dots_2.jpg,Red_Triangle_Dots_3.jpg,Blue_Star_Grid_1.jpg,right,1003,false,NA,NA,NA,NA,NA,NA,NA,NA,true
rOcDOGnL,31mcue39cnznpis152nuvogcfi93g2,3io1lgzlkda9g67vw8e6zy7poip68i,rOcDOGnL,2020-0188,2020-06-04,12:33:37,12:54:55,NA,incomplete,33,filling,1,1,left,Red_Plus_Chess_1.jpg,Purple_Circle_Chess_3.jpg,Red_Triangle_Grid_4.jpg,left,904,true,NA,NA,NA,NA,NA,NA,NA,NA,true
rOcDOGnL,31mcue39cnznpis152nuvogcfi93g2,3io1lgzlkda9g67vw8e6zy7poip68i,rOcDOGnL,2020-0188,2020-06-04,12:33:37,12:54:55,NA,incomplete,34,filling,1,1,left,Blue_Triangle_Chess_1.jpg,Green_Star_Chess_2.jpg,Blue_Circle_Stripes_3.jpg,left,1056,true,NA,NA,NA,NA,NA,NA,NA,NA,true
rOcDOGnL,31mcue39cnznpis152nuvogcfi93g2,3io1lgzlkda9g67vw8e6zy7poip68i,rOcDOGnL,2020-0188,2020-06-04,12:33:37,12:54:55,NA,incomplete,35,filling,1,1,left,Red_Star_Dots_1.jpg,Green_Triangle_Dots_4.jpg,Red_Plus_Chess_3.jpg,left,842,true,NA,NA,NA,NA,NA,NA,NA,NA,true
rOcDOGnL,31mcue39cnznpis152nuvogcfi93g2,3io1lgzlkda9g67vw8e6zy7poip68i,rOcDOGnL,2020-0188,2020-06-04,12:33:37,12:54:55,NA,incomplete,36,filling,1,1,right,Purple_Triangle_Grid_3.jpg,Purple_Circle_Chess_4.jpg,Blue_Star_Grid_2.jpg,right,973,true,NA,NA,NA,NA,NA,NA,NA,NA,true
rOcDOGnL,31mcue39cnznpis152nuvogcfi93g2,3io1lgzlkda9g67vw8e6zy7poip68i,rOcDOGnL,2020-0188,2020-06-04,12:33:37,12:54:55,NA,incomplete,37,filling,1,0,left,Green_Circle_Dots_1.jpg,Purple_Triangle_Dots_2.jpg,Green_Star_Chess_3.jpg,left,884,true,NA,NA,NA,NA,NA,NA,NA,NA,true
rOcDOGnL,31mcue39cnznpis152nuvogcfi93g2,3io1lgzlkda9g67vw8e6zy7poip68i,rOcDOGnL,2020-0188,2020-06-04,12:33:37,12:54:55,NA,incomplete,38,filling,1,1,left,Purple_Circle_Grid_4.jpg,Green_Plus_Grid_3.jpg,Purple_Star_Dots_1.jpg,left,846,true,NA,NA,NA,NA,NA,NA,NA,NA,true
rOcDOGnL,31mcue39cnznpis152nuvogcfi93g2,3io1lgzlkda9g67vw8e6zy7poip68i,rOcDOGnL,2020-0188,2020-06-04,12:33:37,12:54:55,NA,incomplete,39,filling,1,0,left,Green_Circle_Dots_3.jpg,Blue_Plus_Dots_4.jpg,Green_Star_Chess_2.jpg,left,977,true,NA,NA,NA,NA,NA,NA,NA,NA,true
rOcDOGnL,31mcue39cnznpis152nuvogcfi93g2,3io1lgzlkda9g67vw8e6zy7poip68i,rOcDOGnL,2020-0188,2020-06-04,12:33:37,12:54:55,NA,incomplete,0,color,0,1,left,Red_Star_Grid_3.jpg,Red_Plus_Chess_1.jpg,Green_Triangle_Grid_4.jpg,left,676,true,low,NA,NA,NA,NA,NA,NA,NA,false
rOcDOGnL,31mcue39cnznpis152nuvogcfi93g2,3io1lgzlkda9g67vw8e6zy7poip68i,rOcDOGnL,2020-0188,2020-06-04,12:33:37,12:54:55,NA,incomplete,1,color,0,1,right,Purple_Plus_Dots_4.jpg,Green_Circle_Dots_3.jpg,Purple_Triangle_Grid_2.jpg,right,543,true,low,NA,NA,NA,NA,NA,NA,NA,false
rOcDOGnL,31mcue39cnznpis152nuvogcfi93g2,3io1lgzlkda9g67vw8e6zy7poip68i,rOcDOGnL,2020-0188,2020-06-04,12:33:37,12:54:55,NA,incomplete,2,color,0,1,right,Green_Plus_Chess_2.jpg,Purple_Triangle_Chess_3.jpg,Green_Star_Dots_4.jpg,right,652,true,low,NA,NA,NA,NA,NA,NA,NA,false
rOcDOGnL,31mcue39cnznpis152nuvogcfi93g2,3io1lgzlkda9g67vw8e6zy7poip68i,rOcDOGnL,2020-0188,2020-06-04,12:33:37,12:54:55,NA,incomplete,3,color,0,1,left,Red_Circle_Dots_3.jpg,Red_Triangle_Chess_4.jpg,Purple_Star_Dots_1.jpg,left,495,true,low,NA,NA,NA,NA,NA,NA,NA,false
rOcDOGnL,31mcue39cnznpis152nuvogcfi93g2,3io1lgzlkda9g67vw8e6zy7poip68i,rOcDOGnL,2020-0188,2020-06-04,12:33:37,12:54:55,NA,incomplete,4,color,0,0,right,Red_Circle_Dots_3.jpg,Blue_Triangle_Dots_4.jpg,Red_Plus_Chess_2.jpg,right,408,true,low,NA,NA,NA,NA,NA,NA,NA,false
rOcDOGnL,31mcue39cnznpis152nuvogcfi93g2,3io1lgzlkda9g67vw8e6zy7poip68i,rOcDOGnL,2020-0188,2020-06-04,12:33:37,12:54:55,NA,incomplete,5,color,0,1,left,Green_Star_Chess_2.jpg,Green_Circle_Dots_1.jpg,Red_Plus_Chess_3.jpg,left,461,true,low,NA,NA,NA,NA,NA,NA,NA,false
rOcDOGnL,31mcue39cnznpis152nuvogcfi93g2,3io1lgzlkda9g67vw8e6zy7poip68i,rOcDOGnL,2020-0188,2020-06-04,12:33:37,12:54:55,NA,incomplete,6,color,0,1,right,Blue_Circle_Chess_4.jpg,Red_Plus_Chess_2.jpg,Blue_Triangle_Stripes_3.jpg,right,558,true,low,NA,NA,NA,NA,NA,NA,NA,false
rOcDOGnL,31mcue39cnznpis152nuvogcfi93g2,3io1lgzlkda9g67vw8e6zy7poip68i,rOcDOGnL,2020-0188,2020-06-04,12:33:37,12:54:55,NA,incomplete,7,color,0,1,right,Red_Star_Grid_3.jpg,Blue_Plus_Grid_2.jpg,Red_Circle_Chess_4.jpg,right,488,true,low,NA,NA,NA,NA,NA,NA,NA,false
rOcDOGnL,31mcue39cnznpis152nuvogcfi93g2,3io1lgzlkda9g67vw8e6zy7poip68i,rOcDOGnL,2020-0188,2020-06-04,12:33:37,12:54:55,NA,incomplete,8,color,0,1,left,Red_Triangle_Chess_4.jpg,Red_Plus_Dots_1.jpg,Green_Star_Chess_2.jpg,left,519,true,low,NA,NA,NA,NA,NA,NA,NA,false
rOcDOGnL,31mcue39cnznpis152nuvogcfi93g2,3io1lgzlkda9g67vw8e6zy7poip68i,rOcDOGnL,2020-0188,2020-06-04,12:33:37,12:54:55,NA,incomplete,9,color,0,1,left,Purple_Plus_Stripes_4.jpg,Purple_Star_Dots_3.jpg,Red_Circle_Stripes_2.jpg,left,510,true,low,NA,NA,NA,NA,NA,NA,NA,false
rOcDOGnL,31mcue39cnznpis152nuvogcfi93g2,3io1lgzlkda9g67vw8e6zy7poip68i,rOcDOGnL,2020-0188,2020-06-04,12:33:37,12:54:55,NA,incomplete,10,color,0,1,left,Red_Plus_Stripes_3.jpg,Red_Star_Grid_2.jpg,Blue_Triangle_Stripes_4.jpg,left,638,true,low,NA,NA,NA,NA,NA,NA,NA,false
rOcDOGnL,31mcue39cnznpis152nuvogcfi93g2,3io1lgzlkda9g67vw8e6zy7poip68i,rOcDOGnL,2020-0188,2020-06-04,12:33:37,12:54:55,NA,incomplete,11,color,0,1,left,Red_Circle_Grid_1.jpg,Red_Triangle_Dots_2.jpg,Purple_Star_Grid_3.jpg,left,483,true,low,NA,NA,NA,NA,NA,NA,NA,false
rOcDOGnL,31mcue39cnznpis152nuvogcfi93g2,3io1lgzlkda9g67vw8e6zy7poip68i,rOcDOGnL,2020-0188,2020-06-04,12:33:37,12:54:55,NA,incomplete,12,color,0,1,right,Green_Circle_Grid_4.jpg,Purple_Triangle_Grid_2.jpg,Green_Star_Chess_1.jpg,right,477,true,low,NA,NA,NA,NA,NA,NA,NA,false
rOcDOGnL,31mcue39cnznpis152nuvogcfi93g2,3io1lgzlkda9g67vw8e6zy7poip68i,rOcDOGnL,2020-0188,2020-06-04,12:33:37,12:54:55,NA,incomplete,13,color,0,1,left,Purple_Triangle_Chess_2.jpg,Purple_Star_Dots_4.jpg,Blue_Plus_Chess_1.jpg,left,463,true,low,NA,NA,NA,NA,NA,NA,NA,false
rOcDOGnL,31mcue39cnznpis152nuvogcfi93g2,3io1lgzlkda9g67vw8e6zy7poip68i,rOcDOGnL,2020-0188,2020-06-04,12:33:37,12:54:55,NA,incomplete,14,color,0,1,right,Purple_Circle_Chess_4.jpg,Green_Triangle_Chess_2.jpg,Purple_Plus_Stripes_1.jpg,right,680,true,low,NA,NA,NA,NA,NA,NA,NA,false
rOcDOGnL,31mcue39cnznpis152nuvogcfi93g2,3io1lgzlkda9g67vw8e6zy7poip68i,rOcDOGnL,2020-0188,2020-06-04,12:33:37,12:54:55,NA,incomplete,15,color,0,1,left,Green_Plus_Grid_2.jpg,Green_Star_Chess_4.jpg,Blue_Triangle_Grid_3.jpg,left,627,true,low,NA,NA,NA,NA,NA,NA,NA,false
rOcDOGnL,31mcue39cnznpis152nuvogcfi93g2,3io1lgzlkda9g67vw8e6zy7poip68i,rOcDOGnL,2020-0188,2020-06-04,12:33:37,12:54:55,NA,incomplete,16,color,0,1,right,Purple_Circle_Dots_4.jpg,Red_Plus_Dots_1.jpg,Purple_Star_Chess_2.jpg,right,551,true,low,NA,NA,NA,NA,NA,NA,NA,false
rOcDOGnL,31mcue39cnznpis152nuvogcfi93g2,3io1lgzlkda9g67vw8e6zy7poip68i,rOcDOGnL,2020-0188,2020-06-04,12:33:37,12:54:55,NA,incomplete,17,color,0,0,right,Green_Star_Dots_3.jpg,Purple_Plus_Dots_1.jpg,Green_Circle_Grid_2.jpg,right,509,true,low,NA,NA,NA,NA,NA,NA,NA,false
rOcDOGnL,31mcue39cnznpis152nuvogcfi93g2,3io1lgzlkda9g67vw8e6zy7poip68i,rOcDOGnL,2020-0188,2020-06-04,12:33:37,12:54:55,NA,incomplete,18,color,0,1,left,Red_Star_Chess_1.jpg,Red_Plus_Stripes_3.jpg,Blue_Triangle_Chess_4.jpg,left,479,true,low,NA,NA,NA,NA,NA,NA,NA,false
rOcDOGnL,31mcue39cnznpis152nuvogcfi93g2,3io1lgzlkda9g67vw8e6zy7poip68i,rOcDOGnL,2020-0188,2020-06-04,12:33:37,12:54:55,NA,incomplete,19,color,0,0,right,Green_Triangle_Chess_3.jpg,Blue_Circle_Chess_1.jpg,Green_Plus_Stripes_4.jpg,right,441,true,low,NA,NA,NA,NA,NA,NA,NA,false
rOcDOGnL,31mcue39cnznpis152nuvogcfi93g2,3io1lgzlkda9g67vw8e6zy7poip68i,rOcDOGnL,2020-0188,2020-06-04,12:33:37,12:54:55,NA,incomplete,20,color,0,1,left,Red_Triangle_Grid_1.jpg,Red_Plus_Chess_3.jpg,Purple_Star_Grid_4.jpg,left,571,true,low,NA,NA,NA,NA,NA,NA,NA,false
rOcDOGnL,31mcue39cnznpis152nuvogcfi93g2,3io1lgzlkda9g67vw8e6zy7poip68i,rOcDOGnL,2020-0188,2020-06-04,12:33:37,12:54:55,NA,incomplete,21,color,0,1,right,Blue_Plus_Chess_4.jpg,Red_Star_Chess_1.jpg,Blue_Circle_Dots_2.jpg,right,501,true,low,NA,NA,NA,NA,NA,NA,NA,false
rOcDOGnL,31mcue39cnznpis152nuvogcfi93g2,3io1lgzlkda9g67vw8e6zy7poip68i,rOcDOGnL,2020-0188,2020-06-04,12:33:37,12:54:55,NA,incomplete,22,color,0,1,right,Red_Plus_Grid_2.jpg,Green_Triangle_Grid_3.jpg,Red_Star_Stripes_4.jpg,right,559,true,low,NA,NA,NA,NA,NA,NA,NA,false
rOcDOGnL,31mcue39cnznpis152nuvogcfi93g2,3io1lgzlkda9g67vw8e6zy7poip68i,rOcDOGnL,2020-0188,2020-06-04,12:33:37,12:54:55,NA,incomplete,23,color,0,0,right,Blue_Circle_Grid_3.jpg,Red_Star_Grid_4.jpg,Blue_Plus_Dots_2.jpg,right,417,true,low,NA,NA,NA,NA,NA,NA,NA,false
rOcDOGnL,31mcue39cnznpis152nuvogcfi93g2,3io1lgzlkda9g67vw8e6zy7poip68i,rOcDOGnL,2020-0188,2020-06-04,12:33:37,12:54:55,NA,incomplete,24,color,0,1,left,Green_Circle_Chess_1.jpg,Green_Star_Dots_2.jpg,Blue_Triangle_Chess_4.jpg,left,606,true,low,NA,NA,NA,NA,NA,NA,NA,false
rOcDOGnL,31mcue39cnznpis152nuvogcfi93g2,3io1lgzlkda9g67vw8e6zy7poip68i,rOcDOGnL,2020-0188,2020-06-04,12:33:37,12:54:55,NA,incomplete,25,color,0,0,left,Green_Triangle_Dots_4.jpg,Green_Circle_Stripes_2.jpg,Red_Star_Dots_1.jpg,left,450,true,low,NA,NA,NA,NA,NA,NA,NA,false
rOcDOGnL,31mcue39cnznpis152nuvogcfi93g2,3io1lgzlkda9g67vw8e6zy7poip68i,rOcDOGnL,2020-0188,2020-06-04,12:33:37,12:54:55,NA,incomplete,26,color,0,1,left,Green_Plus_Chess_1.jpg,Green_Star_Grid_3.jpg,Purple_Circle_Chess_2.jpg,left,493,true,low,NA,NA,NA,NA,NA,NA,NA,false
rOcDOGnL,31mcue39cnznpis152nuvogcfi93g2,3io1lgzlkda9g67vw8e6zy7poip68i,rOcDOGnL,2020-0188,2020-06-04,12:33:37,12:54:55,NA,incomplete,27,color,0,1,right,Blue_Star_Grid_1.jpg,Red_Triangle_Grid_2.jpg,Blue_Plus_Stripes_3.jpg,right,422,true,low,NA,NA,NA,NA,NA,NA,NA,false
rOcDOGnL,31mcue39cnznpis152nuvogcfi93g2,3io1lgzlkda9g67vw8e6zy7poip68i,rOcDOGnL,2020-0188,2020-06-04,12:33:37,12:54:55,NA,incomplete,28,color,0,1,left,Green_Plus_Stripes_1.jpg,Green_Triangle_Dots_4.jpg,Blue_Circle_Stripes_3.jpg,left,515,true,low,NA,NA,NA,NA,NA,NA,NA,false
rOcDOGnL,31mcue39cnznpis152nuvogcfi93g2,3io1lgzlkda9g67vw8e6zy7poip68i,rOcDOGnL,2020-0188,2020-06-04,12:33:37,12:54:55,NA,incomplete,29,color,0,1,left,Purple_Plus_Chess_4.jpg,Purple_Star_Dots_1.jpg,Red_Triangle_Chess_3.jpg,right,410,false,low,NA,NA,NA,NA,NA,NA,NA,false
rOcDOGnL,31mcue39cnznpis152nuvogcfi93g2,3io1lgzlkda9g67vw8e6zy7poip68i,rOcDOGnL,2020-0188,2020-06-04,12:33:37,12:54:55,NA,incomplete,30,filling,1,0,right,Blue_Circle_Chess_1.jpg,Blue_Triangle_Dots_4.jpg,Green_Plus_Chess_2.jpg,left,447,false,low,NA,NA,NA,NA,NA,NA,NA,false
rOcDOGnL,31mcue39cnznpis152nuvogcfi93g2,3io1lgzlkda9g67vw8e6zy7poip68i,rOcDOGnL,2020-0188,2020-06-04,12:33:37,12:54:55,NA,incomplete,31,filling,1,0,left,Green_Star_Chess_4.jpg,Purple_Plus_Chess_3.jpg,Green_Triangle_Stripes_2.jpg,right,1354,false,low,NA,NA,NA,NA,NA,NA,NA,false
rOcDOGnL,31mcue39cnznpis152nuvogcfi93g2,3io1lgzlkda9g67vw8e6zy7poip68i,rOcDOGnL,2020-0188,2020-06-04,12:33:37,12:54:55,NA,incomplete,32,filling,1,1,left,Red_Plus_Stripes_2.jpg,Blue_Triangle_Stripes_4.jpg,Red_Circle_Dots_3.jpg,right,432,false,low,NA,NA,NA,NA,NA,NA,NA,false
rOcDOGnL,31mcue39cnznpis152nuvogcfi93g2,3io1lgzlkda9g67vw8e6zy7poip68i,rOcDOGnL,2020-0188,2020-06-04,12:33:37,12:54:55,NA,incomplete,33,filling,1,1,left,Red_Plus_Dots_2.jpg,Blue_Circle_Dots_3.jpg,Red_Triangle_Stripes_4.jpg,right,540,false,low,NA,NA,NA,NA,NA,NA,NA,false
rOcDOGnL,31mcue39cnznpis152nuvogcfi93g2,3io1lgzlkda9g67vw8e6zy7poip68i,rOcDOGnL,2020-0188,2020-06-04,12:33:37,12:54:55,NA,incomplete,34,filling,1,1,left,Green_Triangle_Stripes_2.jpg,Purple_Plus_Stripes_1.jpg,Green_Circle_Grid_4.jpg,left,595,true,low,NA,NA,NA,NA,NA,NA,NA,false
rOcDOGnL,31mcue39cnznpis152nuvogcfi93g2,3io1lgzlkda9g67vw8e6zy7poip68i,rOcDOGnL,2020-0188,2020-06-04,12:33:37,12:54:55,NA,incomplete,35,filling,1,1,right,Green_Circle_Grid_3.jpg,Green_Plus_Dots_2.jpg,Red_Star_Grid_4.jpg,right,529,true,low,NA,NA,NA,NA,NA,NA,NA,false
rOcDOGnL,31mcue39cnznpis152nuvogcfi93g2,3io1lgzlkda9g67vw8e6zy7poip68i,rOcDOGnL,2020-0188,2020-06-04,12:33:37,12:54:55,NA,incomplete,36,filling,1,0,right,Red_Plus_Grid_1.jpg,Red_Triangle_Dots_4.jpg,Blue_Star_Grid_3.jpg,right,497,true,low,NA,NA,NA,NA,NA,NA,NA,false
rOcDOGnL,31mcue39cnznpis152nuvogcfi93g2,3io1lgzlkda9g67vw8e6zy7poip68i,rOcDOGnL,2020-0188,2020-06-04,12:33:37,12:54:55,NA,incomplete,37,filling,1,1,left,Purple_Triangle_Stripes_2.jpg,Red_Star_Stripes_1.jpg,Purple_Circle_Chess_4.jpg,left,1050,true,low,NA,NA,NA,NA,NA,NA,NA,false
rOcDOGnL,31mcue39cnznpis152nuvogcfi93g2,3io1lgzlkda9g67vw8e6zy7poip68i,rOcDOGnL,2020-0188,2020-06-04,12:33:37,12:54:55,NA,incomplete,38,filling,1,0,right,Purple_Star_Chess_4.jpg,Purple_Plus_Dots_1.jpg,Blue_Triangle_Chess_2.jpg,right,814,true,low,NA,NA,NA,NA,NA,NA,NA,false
rOcDOGnL,31mcue39cnznpis152nuvogcfi93g2,3io1lgzlkda9g67vw8e6zy7poip68i,rOcDOGnL,2020-0188,2020-06-04,12:33:37,12:54:55,NA,incomplete,39,filling,1,1,right,Purple_Triangle_Dots_2.jpg,Purple_Circle_Stripes_1.jpg,Red_Plus_Dots_3.jpg,right,969,true,low,NA,NA,NA,NA,NA,NA,NA,false
rOcDOGnL,31mcue39cnznpis152nuvogcfi93g2,3io1lgzlkda9g67vw8e6zy7poip68i,rOcDOGnL,2020-0188,2020-06-04,12:33:37,12:54:55,NA,incomplete,40,filling,1,1,right,Purple_Star_Stripes_2.jpg,Purple_Circle_Dots_4.jpg,Green_Plus_Stripes_3.jpg,right,825,true,low,NA,NA,NA,NA,NA,NA,NA,false
rOcDOGnL,31mcue39cnznpis152nuvogcfi93g2,3io1lgzlkda9g67vw8e6zy7poip68i,rOcDOGnL,2020-0188,2020-06-04,12:33:37,12:54:55,NA,incomplete,41,filling,1,1,left,Purple_Triangle_Stripes_4.jpg,Green_Plus_Stripes_2.jpg,Purple_Circle_Grid_1.jpg,left,1723,true,low,NA,NA,NA,NA,NA,NA,NA,false
rOcDOGnL,31mcue39cnznpis152nuvogcfi93g2,3io1lgzlkda9g67vw8e6zy7poip68i,rOcDOGnL,2020-0188,2020-06-04,12:33:37,12:54:55,NA,incomplete,42,filling,1,1,right,Green_Plus_Grid_4.jpg,Green_Triangle_Chess_3.jpg,Purple_Circle_Grid_2.jpg,right,500,true,low,NA,NA,NA,NA,NA,NA,NA,false
rOcDOGnL,31mcue39cnznpis152nuvogcfi93g2,3io1lgzlkda9g67vw8e6zy7poip68i,rOcDOGnL,2020-0188,2020-06-04,12:33:37,12:54:55,NA,incomplete,43,filling,1,1,right,Red_Plus_Grid_4.jpg,Red_Star_Stripes_3.jpg,Blue_Circle_Grid_1.jpg,right,453,true,low,NA,NA,NA,NA,NA,NA,NA,false
rOcDOGnL,31mcue39cnznpis152nuvogcfi93g2,3io1lgzlkda9g67vw8e6zy7poip68i,rOcDOGnL,2020-0188,2020-06-04,12:33:37,12:54:55,NA,incomplete,44,filling,1,1,right,Green_Star_Chess_4.jpg,Green_Circle_Grid_1.jpg,Purple_Triangle_Chess_2.jpg,right,553,true,low,NA,NA,NA,NA,NA,NA,NA,false
rOcDOGnL,31mcue39cnznpis152nuvogcfi93g2,3io1lgzlkda9g67vw8e6zy7poip68i,rOcDOGnL,2020-0188,2020-06-04,12:33:37,12:54:55,NA,incomplete,45,filling,1,0,right,Purple_Star_Dots_2.jpg,Purple_Triangle_Chess_4.jpg,Red_Plus_Dots_3.jpg,right,542,true,low,NA,NA,NA,NA,NA,NA,NA,false
rOcDOGnL,31mcue39cnznpis152nuvogcfi93g2,3io1lgzlkda9g67vw8e6zy7poip68i,rOcDOGnL,2020-0188,2020-06-04,12:33:37,12:54:55,NA,incomplete,46,filling,1,1,right,Blue_Triangle_Stripes_4.jpg,Blue_Star_Chess_1.jpg,Red_Circle_Stripes_2.jpg,right,798,true,low,NA,NA,NA,NA,NA,NA,NA,false
rOcDOGnL,31mcue39cnznpis152nuvogcfi93g2,3io1lgzlkda9g67vw8e6zy7poip68i,rOcDOGnL,2020-0188,2020-06-04,12:33:37,12:54:55,NA,incomplete,47,filling,1,1,right,Blue_Plus_Grid_4.jpg,Blue_Circle_Dots_1.jpg,Red_Triangle_Grid_2.jpg,right,515,true,low,NA,NA,NA,NA,NA,NA,NA,false
rOcDOGnL,31mcue39cnznpis152nuvogcfi93g2,3io1lgzlkda9g67vw8e6zy7poip68i,rOcDOGnL,2020-0188,2020-06-04,12:33:37,12:54:55,NA,incomplete,48,filling,1,1,right,Blue_Plus_Dots_1.jpg,Blue_Circle_Grid_2.jpg,Purple_Triangle_Dots_4.jpg,right,1068,true,low,NA,NA,NA,NA,NA,NA,NA,false
rOcDOGnL,31mcue39cnznpis152nuvogcfi93g2,3io1lgzlkda9g67vw8e6zy7poip68i,rOcDOGnL,2020-0188,2020-06-04,12:33:37,12:54:55,NA,incomplete,49,filling,1,1,right,Purple_Plus_Stripes_1.jpg,Purple_Triangle_Chess_2.jpg,Green_Star_Stripes_4.jpg,right,462,true,low,NA,NA,NA,NA,NA,NA,NA,false
rOcDOGnL,31mcue39cnznpis152nuvogcfi93g2,3io1lgzlkda9g67vw8e6zy7poip68i,rOcDOGnL,2020-0188,2020-06-04,12:33:37,12:54:55,NA,incomplete,50,filling,1,0,left,Green_Circle_Stripes_3.jpg,Blue_Triangle_Stripes_4.jpg,Green_Star_Dots_1.jpg,left,969,true,low,NA,NA,NA,NA,NA,NA,NA,false
rOcDOGnL,31mcue39cnznpis152nuvogcfi93g2,3io1lgzlkda9g67vw8e6zy7poip68i,rOcDOGnL,2020-0188,2020-06-04,12:33:37,12:54:55,NA,incomplete,51,filling,1,0,left,Green_Plus_Chess_4.jpg,Red_Circle_Chess_1.jpg,Green_Star_Grid_2.jpg,left,885,true,low,NA,NA,NA,NA,NA,NA,NA,false
rOcDOGnL,31mcue39cnznpis152nuvogcfi93g2,3io1lgzlkda9g67vw8e6zy7poip68i,rOcDOGnL,2020-0188,2020-06-04,12:33:37,12:54:55,NA,incomplete,52,filling,1,1,left,Green_Star_Stripes_3.jpg,Red_Circle_Stripes_1.jpg,Green_Plus_Grid_2.jpg,right,398,false,low,NA,NA,NA,NA,NA,NA,NA,false
rOcDOGnL,31mcue39cnznpis152nuvogcfi93g2,3io1lgzlkda9g67vw8e6zy7poip68i,rOcDOGnL,2020-0188,2020-06-04,12:33:37,12:54:55,NA,incomplete,53,filling,1,1,left,Blue_Star_Grid_4.jpg,Purple_Triangle_Grid_3.jpg,Blue_Plus_Chess_1.jpg,right,589,false,low,NA,NA,NA,NA,NA,NA,NA,false
rOcDOGnL,31mcue39cnznpis152nuvogcfi93g2,3io1lgzlkda9g67vw8e6zy7poip68i,rOcDOGnL,2020-0188,2020-06-04,12:33:37,12:54:55,NA,incomplete,54,filling,1,1,left,Blue_Circle_Chess_2.jpg,Green_Star_Chess_4.jpg,Blue_Plus_Dots_1.jpg,left,697,true,low,NA,NA,NA,NA,NA,NA,NA,false
rOcDOGnL,31mcue39cnznpis152nuvogcfi93g2,3io1lgzlkda9g67vw8e6zy7poip68i,rOcDOGnL,2020-0188,2020-06-04,12:33:37,12:54:55,NA,incomplete,55,filling,1,1,left,Blue_Star_Chess_3.jpg,Red_Plus_Chess_1.jpg,Blue_Triangle_Dots_2.jpg,left,531,true,low,NA,NA,NA,NA,NA,NA,NA,false
rOcDOGnL,31mcue39cnznpis152nuvogcfi93g2,3io1lgzlkda9g67vw8e6zy7poip68i,rOcDOGnL,2020-0188,2020-06-04,12:33:37,12:54:55,NA,incomplete,56,filling,1,0,left,Blue_Triangle_Chess_3.jpg,Green_Plus_Chess_2.jpg,Blue_Circle_Grid_4.jpg,left,459,true,low,NA,NA,NA,NA,NA,NA,NA,false
rOcDOGnL,31mcue39cnznpis152nuvogcfi93g2,3io1lgzlkda9g67vw8e6zy7poip68i,rOcDOGnL,2020-0188,2020-06-04,12:33:37,12:54:55,NA,incomplete,57,filling,1,1,left,Red_Triangle_Stripes_4.jpg,Green_Plus_Stripes_3.jpg,Red_Circle_Dots_1.jpg,left,749,true,low,NA,NA,NA,NA,NA,NA,NA,false
rOcDOGnL,31mcue39cnznpis152nuvogcfi93g2,3io1lgzlkda9g67vw8e6zy7poip68i,rOcDOGnL,2020-0188,2020-06-04,12:33:37,12:54:55,NA,incomplete,58,filling,1,1,left,Purple_Star_Grid_3.jpg,Red_Circle_Grid_4.jpg,Purple_Triangle_Dots_2.jpg,left,455,true,low,NA,NA,NA,NA,NA,NA,NA,false
rOcDOGnL,31mcue39cnznpis152nuvogcfi93g2,3io1lgzlkda9g67vw8e6zy7poip68i,rOcDOGnL,2020-0188,2020-06-04,12:33:37,12:54:55,NA,incomplete,59,filling,1,0,right,Blue_Circle_Dots_1.jpg,Blue_Star_Stripes_2.jpg,Green_Plus_Dots_3.jpg,right,554,true,low,NA,NA,NA,NA,NA,NA,NA,false
rOcDOGnL,31mcue39cnznpis152nuvogcfi93g2,3io1lgzlkda9g67vw8e6zy7poip68i,rOcDOGnL,2020-0188,2020-06-04,12:33:37,12:54:55,NA,incomplete,60,color,0,1,left,Red_Circle_Grid_3.jpg,Red_Star_Stripes_4.jpg,Purple_Triangle_Grid_2.jpg,right,512,false,low,NA,NA,NA,NA,NA,NA,NA,false
rOcDOGnL,31mcue39cnznpis152nuvogcfi93g2,3io1lgzlkda9g67vw8e6zy7poip68i,rOcDOGnL,2020-0188,2020-06-04,12:33:37,12:54:55,NA,incomplete,61,color,0,1,right,Green_Star_Stripes_3.jpg,Red_Plus_Stripes_4.jpg,Green_Circle_Chess_2.jpg,right,462,true,low,NA,NA,NA,NA,NA,NA,NA,false
rOcDOGnL,31mcue39cnznpis152nuvogcfi93g2,3io1lgzlkda9g67vw8e6zy7poip68i,rOcDOGnL,2020-0188,2020-06-04,12:33:37,12:54:55,NA,incomplete,62,color,0,1,right,Green_Triangle_Grid_4.jpg,Red_Star_Grid_1.jpg,Green_Plus_Dots_3.jpg,right,410,true,low,NA,NA,NA,NA,NA,NA,NA,false
rOcDOGnL,31mcue39cnznpis152nuvogcfi93g2,3io1lgzlkda9g67vw8e6zy7poip68i,rOcDOGnL,2020-0188,2020-06-04,12:33:37,12:54:55,NA,incomplete,63,color,0,1,left,Blue_Triangle_Stripes_2.jpg,Blue_Plus_Chess_1.jpg,Purple_Circle_Stripes_3.jpg,left,463,true,low,NA,NA,NA,NA,NA,NA,NA,false
rOcDOGnL,31mcue39cnznpis152nuvogcfi93g2,3io1lgzlkda9g67vw8e6zy7poip68i,rOcDOGnL,2020-0188,2020-06-04,12:33:37,12:54:55,NA,incomplete,64,color,0,0,left,Blue_Circle_Grid_1.jpg,Blue_Plus_Dots_2.jpg,Red_Triangle_Grid_4.jpg,left,456,true,low,NA,NA,NA,NA,NA,NA,NA,false
rOcDOGnL,31mcue39cnznpis152nuvogcfi93g2,3io1lgzlkda9g67vw8e6zy7poip68i,rOcDOGnL,2020-0188,2020-06-04,12:33:37,12:54:55,NA,incomplete,65,color,0,1,left,Purple_Star_Stripes_3.jpg,Purple_Circle_Dots_2.jpg,Green_Triangle_Stripes_1.jpg,left,547,true,low,NA,NA,NA,NA,NA,NA,NA,false
rOcDOGnL,31mcue39cnznpis152nuvogcfi93g2,3io1lgzlkda9g67vw8e6zy7poip68i,rOcDOGnL,2020-0188,2020-06-04,12:33:37,12:54:55,NA,incomplete,66,color,0,1,right,Green_Plus_Chess_4.jpg,Purple_Circle_Chess_3.jpg,Green_Star_Dots_2.jpg,right,554,true,low,NA,NA,NA,NA,NA,NA,NA,false
rOcDOGnL,31mcue39cnznpis152nuvogcfi93g2,3io1lgzlkda9g67vw8e6zy7poip68i,rOcDOGnL,2020-0188,2020-06-04,12:33:37,12:54:55,NA,incomplete,67,color,0,1,left,Red_Plus_Chess_3.jpg,Red_Triangle_Grid_1.jpg,Green_Star_Chess_2.jpg,left,882,true,low,NA,NA,NA,NA,NA,NA,NA,false
rOcDOGnL,31mcue39cnznpis152nuvogcfi93g2,3io1lgzlkda9g67vw8e6zy7poip68i,rOcDOGnL,2020-0188,2020-06-04,12:33:37,12:54:55,NA,incomplete,68,color,0,0,left,Purple_Plus_Dots_1.jpg,Purple_Circle_Chess_3.jpg,Green_Star_Dots_4.jpg,left,539,true,low,NA,NA,NA,NA,NA,NA,NA,false
rOcDOGnL,31mcue39cnznpis152nuvogcfi93g2,3io1lgzlkda9g67vw8e6zy7poip68i,rOcDOGnL,2020-0188,2020-06-04,12:33:37,12:54:55,NA,incomplete,69,color,0,1,left,Red_Star_Dots_1.jpg,Red_Circle_Chess_4.jpg,Blue_Triangle_Dots_3.jpg,left,449,true,low,NA,NA,NA,NA,NA,NA,NA,false
rOcDOGnL,31mcue39cnznpis152nuvogcfi93g2,3io1lgzlkda9g67vw8e6zy7poip68i,rOcDOGnL,2020-0188,2020-06-04,12:33:37,12:54:55,NA,incomplete,70,color,0,1,left,Green_Circle_Stripes_4.jpg,Green_Plus_Grid_3.jpg,Purple_Triangle_Stripes_1.jpg,left,333,true,low,NA,NA,NA,NA,NA,NA,NA,false
rOcDOGnL,31mcue39cnznpis152nuvogcfi93g2,3io1lgzlkda9g67vw8e6zy7poip68i,rOcDOGnL,2020-0188,2020-06-04,12:33:37,12:54:55,NA,incomplete,71,color,0,1,right,Red_Circle_Chess_2.jpg,Green_Star_Chess_1.jpg,Red_Triangle_Stripes_4.jpg,right,613,true,low,NA,NA,NA,NA,NA,NA,NA,false
rOcDOGnL,31mcue39cnznpis152nuvogcfi93g2,3io1lgzlkda9g67vw8e6zy7poip68i,rOcDOGnL,2020-0188,2020-06-04,12:33:37,12:54:55,NA,incomplete,72,color,0,1,left,Red_Triangle_Stripes_4.jpg,Red_Plus_Grid_3.jpg,Purple_Circle_Stripes_2.jpg,left,449,true,low,NA,NA,NA,NA,NA,NA,NA,false
rOcDOGnL,31mcue39cnznpis152nuvogcfi93g2,3io1lgzlkda9g67vw8e6zy7poip68i,rOcDOGnL,2020-0188,2020-06-04,12:33:37,12:54:55,NA,incomplete,73,color,0,1,right,Purple_Circle_Stripes_1.jpg,Green_Triangle_Stripes_3.jpg,Purple_Plus_Dots_4.jpg,right,636,true,low,NA,NA,NA,NA,NA,NA,NA,false
rOcDOGnL,31mcue39cnznpis152nuvogcfi93g2,3io1lgzlkda9g67vw8e6zy7poip68i,rOcDOGnL,2020-0188,2020-06-04,12:33:37,12:54:55,NA,incomplete,74,color,0,1,left,Blue_Circle_Chess_2.jpg,Blue_Star_Grid_3.jpg,Purple_Triangle_Chess_1.jpg,left,439,true,low,NA,NA,NA,NA,NA,NA,NA,false
rOcDOGnL,31mcue39cnznpis152nuvogcfi93g2,3io1lgzlkda9g67vw8e6zy7poip68i,rOcDOGnL,2020-0188,2020-06-04,12:33:37,12:54:55,NA,incomplete,75,color,0,1,left,Green_Circle_Chess_4.jpg,Green_Triangle_Dots_1.jpg,Red_Plus_Chess_3.jpg,left,477,true,low,NA,NA,NA,NA,NA,NA,NA,false
rOcDOGnL,31mcue39cnznpis152nuvogcfi93g2,3io1lgzlkda9g67vw8e6zy7poip68i,rOcDOGnL,2020-0188,2020-06-04,12:33:37,12:54:55,NA,incomplete,76,color,0,1,left,Blue_Circle_Grid_4.jpg,Blue_Triangle_Chess_3.jpg,Green_Plus_Grid_1.jpg,left,349,true,low,NA,NA,NA,NA,NA,NA,NA,false
rOcDOGnL,31mcue39cnznpis152nuvogcfi93g2,3io1lgzlkda9g67vw8e6zy7poip68i,rOcDOGnL,2020-0188,2020-06-04,12:33:37,12:54:55,NA,incomplete,77,color,0,1,left,Green_Plus_Stripes_3.jpg,Green_Circle_Dots_2.jpg,Red_Star_Stripes_1.jpg,left,428,true,low,NA,NA,NA,NA,NA,NA,NA,false
rOcDOGnL,31mcue39cnznpis152nuvogcfi93g2,3io1lgzlkda9g67vw8e6zy7poip68i,rOcDOGnL,2020-0188,2020-06-04,12:33:37,12:54:55,NA,incomplete,78,color,0,1,right,Green_Circle_Grid_3.jpg,Purple_Triangle_Grid_1.jpg,Green_Plus_Stripes_4.jpg,left,272,false,low,NA,NA,NA,NA,NA,NA,NA,false
rOcDOGnL,31mcue39cnznpis152nuvogcfi93g2,3io1lgzlkda9g67vw8e6zy7poip68i,rOcDOGnL,2020-0188,2020-06-04,12:33:37,12:54:55,NA,incomplete,79,color,0,1,right,Purple_Triangle_Chess_1.jpg,Blue_Circle_Chess_4.jpg,Purple_Star_Dots_2.jpg,right,618,true,low,NA,NA,NA,NA,NA,NA,NA,false
rOcDOGnL,31mcue39cnznpis152nuvogcfi93g2,3io1lgzlkda9g67vw8e6zy7poip68i,rOcDOGnL,2020-0188,2020-06-04,12:33:37,12:54:55,NA,incomplete,80,color,0,1,left,Red_Plus_Chess_3.jpg,Red_Circle_Dots_4.jpg,Purple_Star_Chess_2.jpg,left,615,true,low,NA,NA,NA,NA,NA,NA,NA,false
rOcDOGnL,31mcue39cnznpis152nuvogcfi93g2,3io1lgzlkda9g67vw8e6zy7poip68i,rOcDOGnL,2020-0188,2020-06-04,12:33:37,12:54:55,NA,incomplete,81,color,0,1,right,Red_Circle_Stripes_2.jpg,Purple_Triangle_Stripes_3.jpg,Red_Star_Dots_1.jpg,right,716,true,low,NA,NA,NA,NA,NA,NA,NA,false
rOcDOGnL,31mcue39cnznpis152nuvogcfi93g2,3io1lgzlkda9g67vw8e6zy7poip68i,rOcDOGnL,2020-0188,2020-06-04,12:33:37,12:54:55,NA,incomplete,82,color,0,1,right,Blue_Circle_Stripes_2.jpg,Purple_Star_Stripes_3.jpg,Blue_Plus_Grid_4.jpg,right,403,true,low,NA,NA,NA,NA,NA,NA,NA,false
rOcDOGnL,31mcue39cnznpis152nuvogcfi93g2,3io1lgzlkda9g67vw8e6zy7poip68i,rOcDOGnL,2020-0188,2020-06-04,12:33:37,12:54:55,NA,incomplete,83,color,0,0,right,Green_Star_Grid_3.jpg,Blue_Circle_Grid_1.jpg,Green_Triangle_Dots_2.jpg,right,407,true,low,NA,NA,NA,NA,NA,NA,NA,false
rOcDOGnL,31mcue39cnznpis152nuvogcfi93g2,3io1lgzlkda9g67vw8e6zy7poip68i,rOcDOGnL,2020-0188,2020-06-04,12:33:37,12:54:55,NA,incomplete,84,color,0,1,left,Red_Plus_Chess_3.jpg,Red_Triangle_Stripes_2.jpg,Green_Star_Chess_1.jpg,left,558,true,low,NA,NA,NA,NA,NA,NA,NA,false
rOcDOGnL,31mcue39cnznpis152nuvogcfi93g2,3io1lgzlkda9g67vw8e6zy7poip68i,rOcDOGnL,2020-0188,2020-06-04,12:33:37,12:54:55,NA,incomplete,85,color,0,1,right,Green_Circle_Grid_4.jpg,Purple_Star_Grid_3.jpg,Green_Triangle_Dots_2.jpg,right,522,true,low,NA,NA,NA,NA,NA,NA,NA,false
rOcDOGnL,31mcue39cnznpis152nuvogcfi93g2,3io1lgzlkda9g67vw8e6zy7poip68i,rOcDOGnL,2020-0188,2020-06-04,12:33:37,12:54:55,NA,incomplete,86,color,0,0,right,Purple_Triangle_Stripes_3.jpg,Red_Circle_Stripes_1.jpg,Purple_Plus_Chess_4.jpg,right,466,true,low,NA,NA,NA,NA,NA,NA,NA,false
rOcDOGnL,31mcue39cnznpis152nuvogcfi93g2,3io1lgzlkda9g67vw8e6zy7poip68i,rOcDOGnL,2020-0188,2020-06-04,12:33:37,12:54:55,NA,incomplete,87,color,0,0,left,Purple_Plus_Dots_3.jpg,Purple_Triangle_Grid_1.jpg,Blue_Circle_Dots_2.jpg,left,541,true,low,NA,NA,NA,NA,NA,NA,NA,false
rOcDOGnL,31mcue39cnznpis152nuvogcfi93g2,3io1lgzlkda9g67vw8e6zy7poip68i,rOcDOGnL,2020-0188,2020-06-04,12:33:37,12:54:55,NA,incomplete,88,color,0,1,left,Blue_Triangle_Dots_2.jpg,Blue_Circle_Stripes_1.jpg,Purple_Star_Dots_3.jpg,right,565,false,low,NA,NA,NA,NA,NA,NA,NA,false
rOcDOGnL,31mcue39cnznpis152nuvogcfi93g2,3io1lgzlkda9g67vw8e6zy7poip68i,rOcDOGnL,2020-0188,2020-06-04,12:33:37,12:54:55,NA,incomplete,89,color,0,1,left,Green_Plus_Stripes_4.jpg,Green_Star_Dots_1.jpg,Purple_Triangle_Stripes_2.jpg,right,468,false,low,NA,NA,NA,NA,NA,NA,NA,false
rOcDOGnL,31mcue39cnznpis152nuvogcfi93g2,3io1lgzlkda9g67vw8e6zy7poip68i,rOcDOGnL,2020-0188,2020-06-04,12:33:37,12:54:55,NA,incomplete,90,filling,1,1,left,Purple_Plus_Grid_1.jpg,Blue_Circle_Grid_2.jpg,Purple_Triangle_Stripes_4.jpg,left,679,true,low,NA,NA,NA,NA,NA,NA,NA,false
rOcDOGnL,31mcue39cnznpis152nuvogcfi93g2,3io1lgzlkda9g67vw8e6zy7poip68i,rOcDOGnL,2020-0188,2020-06-04,12:33:37,12:54:55,NA,incomplete,91,filling,1,1,right,Green_Circle_Grid_1.jpg,Green_Plus_Chess_3.jpg,Red_Triangle_Grid_2.jpg,right,489,true,low,NA,NA,NA,NA,NA,NA,NA,false
rOcDOGnL,31mcue39cnznpis152nuvogcfi93g2,3io1lgzlkda9g67vw8e6zy7poip68i,rOcDOGnL,2020-0188,2020-06-04,12:33:37,12:54:55,NA,incomplete,92,filling,1,1,right,Blue_Circle_Grid_1.jpg,Blue_Star_Stripes_4.jpg,Green_Triangle_Grid_2.jpg,right,497,true,low,NA,NA,NA,NA,NA,NA,NA,false
rOcDOGnL,31mcue39cnznpis152nuvogcfi93g2,3io1lgzlkda9g67vw8e6zy7poip68i,rOcDOGnL,2020-0188,2020-06-04,12:33:37,12:54:55,NA,incomplete,93,filling,1,0,right,Green_Triangle_Grid_1.jpg,Green_Plus_Dots_3.jpg,Blue_Star_Grid_4.jpg,left,634,false,low,NA,NA,NA,NA,NA,NA,NA,false
rOcDOGnL,31mcue39cnznpis152nuvogcfi93g2,3io1lgzlkda9g67vw8e6zy7poip68i,rOcDOGnL,2020-0188,2020-06-04,12:33:37,12:54:55,NA,incomplete,94,filling,1,0,left,Green_Plus_Stripes_1.jpg,Blue_Star_Stripes_2.jpg,Green_Circle_Dots_4.jpg,right,567,false,low,NA,NA,NA,NA,NA,NA,NA,false
rOcDOGnL,31mcue39cnznpis152nuvogcfi93g2,3io1lgzlkda9g67vw8e6zy7poip68i,rOcDOGnL,2020-0188,2020-06-04,12:33:37,12:54:55,NA,incomplete,95,filling,1,1,left,Red_Plus_Stripes_3.jpg,Purple_Star_Stripes_4.jpg,Red_Triangle_Grid_1.jpg,right,453,false,low,NA,NA,NA,NA,NA,NA,NA,false
rOcDOGnL,31mcue39cnznpis152nuvogcfi93g2,3io1lgzlkda9g67vw8e6zy7poip68i,rOcDOGnL,2020-0188,2020-06-04,12:33:37,12:54:55,NA,incomplete,96,filling,1,1,right,Red_Triangle_Stripes_4.jpg,Red_Plus_Grid_1.jpg,Green_Circle_Stripes_3.jpg,left,463,false,low,NA,NA,NA,NA,NA,NA,NA,false
rOcDOGnL,31mcue39cnznpis152nuvogcfi93g2,3io1lgzlkda9g67vw8e6zy7poip68i,rOcDOGnL,2020-0188,2020-06-04,12:33:37,12:54:55,NA,incomplete,97,filling,1,1,right,Green_Star_Chess_1.jpg,Green_Circle_Dots_3.jpg,Blue_Plus_Chess_4.jpg,right,448,true,low,NA,NA,NA,NA,NA,NA,NA,false
rOcDOGnL,31mcue39cnznpis152nuvogcfi93g2,3io1lgzlkda9g67vw8e6zy7poip68i,rOcDOGnL,2020-0188,2020-06-04,12:33:37,12:54:55,NA,incomplete,98,filling,1,1,right,Blue_Star_Stripes_3.jpg,Blue_Plus_Grid_1.jpg,Red_Circle_Stripes_4.jpg,right,771,true,low,NA,NA,NA,NA,NA,NA,NA,false
rOcDOGnL,31mcue39cnznpis152nuvogcfi93g2,3io1lgzlkda9g67vw8e6zy7poip68i,rOcDOGnL,2020-0188,2020-06-04,12:33:37,12:54:55,NA,incomplete,99,filling,1,1,right,Purple_Star_Grid_1.jpg,Purple_Plus_Chess_2.jpg,Green_Triangle_Grid_3.jpg,right,667,true,low,NA,NA,NA,NA,NA,NA,NA,false
rOcDOGnL,31mcue39cnznpis152nuvogcfi93g2,3io1lgzlkda9g67vw8e6zy7poip68i,rOcDOGnL,2020-0188,2020-06-04,12:33:37,12:54:55,NA,incomplete,100,filling,1,1,left,Blue_Plus_Dots_2.jpg,Red_Circle_Dots_1.jpg,Blue_Triangle_Grid_4.jpg,left,563,true,low,NA,NA,NA,NA,NA,NA,NA,false
rOcDOGnL,31mcue39cnznpis152nuvogcfi93g2,3io1lgzlkda9g67vw8e6zy7poip68i,rOcDOGnL,2020-0188,2020-06-04,12:33:37,12:54:55,NA,incomplete,101,filling,1,1,left,Blue_Plus_Grid_3.jpg,Red_Circle_Grid_1.jpg,Blue_Triangle_Stripes_2.jpg,left,428,true,low,NA,NA,NA,NA,NA,NA,NA,false
rOcDOGnL,31mcue39cnznpis152nuvogcfi93g2,3io1lgzlkda9g67vw8e6zy7poip68i,rOcDOGnL,2020-0188,2020-06-04,12:33:37,12:54:55,NA,incomplete,102,filling,1,1,right,Blue_Star_Dots_2.jpg,Blue_Plus_Stripes_3.jpg,Green_Triangle_Dots_1.jpg,right,456,true,low,NA,NA,NA,NA,NA,NA,NA,false
rOcDOGnL,31mcue39cnznpis152nuvogcfi93g2,3io1lgzlkda9g67vw8e6zy7poip68i,rOcDOGnL,2020-0188,2020-06-04,12:33:37,12:54:55,NA,incomplete,103,filling,1,1,right,Blue_Triangle_Chess_2.jpg,Blue_Plus_Dots_1.jpg,Purple_Circle_Chess_4.jpg,left,530,false,low,NA,NA,NA,NA,NA,NA,NA,false
rOcDOGnL,31mcue39cnznpis152nuvogcfi93g2,3io1lgzlkda9g67vw8e6zy7poip68i,rOcDOGnL,2020-0188,2020-06-04,12:33:37,12:54:55,NA,incomplete,104,filling,1,0,right,Purple_Triangle_Chess_1.jpg,Purple_Star_Dots_4.jpg,Red_Plus_Chess_3.jpg,right,505,true,low,NA,NA,NA,NA,NA,NA,NA,false
rOcDOGnL,31mcue39cnznpis152nuvogcfi93g2,3io1lgzlkda9g67vw8e6zy7poip68i,rOcDOGnL,2020-0188,2020-06-04,12:33:37,12:54:55,NA,incomplete,105,filling,1,1,left,Purple_Circle_Dots_3.jpg,Green_Triangle_Dots_1.jpg,Purple_Star_Grid_2.jpg,left,619,true,low,NA,NA,NA,NA,NA,NA,NA,false
rOcDOGnL,31mcue39cnznpis152nuvogcfi93g2,3io1lgzlkda9g67vw8e6zy7poip68i,rOcDOGnL,2020-0188,2020-06-04,12:33:37,12:54:55,NA,incomplete,106,filling,1,1,left,Purple_Circle_Stripes_2.jpg,Green_Triangle_Stripes_3.jpg,Purple_Plus_Grid_1.jpg,left,519,true,low,NA,NA,NA,NA,NA,NA,NA,false
rOcDOGnL,31mcue39cnznpis152nuvogcfi93g2,3io1lgzlkda9g67vw8e6zy7poip68i,rOcDOGnL,2020-0188,2020-06-04,12:33:37,12:54:55,NA,incomplete,107,filling,1,1,right,Red_Plus_Stripes_2.jpg,Red_Star_Grid_1.jpg,Blue_Triangle_Stripes_4.jpg,right,989,true,low,NA,NA,NA,NA,NA,NA,NA,false
rOcDOGnL,31mcue39cnznpis152nuvogcfi93g2,3io1lgzlkda9g67vw8e6zy7poip68i,rOcDOGnL,2020-0188,2020-06-04,12:33:37,12:54:55,NA,incomplete,108,filling,1,0,left,Green_Triangle_Stripes_1.jpg,Red_Plus_Stripes_3.jpg,Green_Circle_Grid_4.jpg,left,796,true,low,NA,NA,NA,NA,NA,NA,NA,false
rOcDOGnL,31mcue39cnznpis152nuvogcfi93g2,3io1lgzlkda9g67vw8e6zy7poip68i,rOcDOGnL,2020-0188,2020-06-04,12:33:37,12:54:55,NA,incomplete,109,filling,1,1,left,Red_Plus_Stripes_3.jpg,Blue_Circle_Stripes_1.jpg,Red_Triangle_Grid_4.jpg,left,496,true,low,NA,NA,NA,NA,NA,NA,NA,false
rOcDOGnL,31mcue39cnznpis152nuvogcfi93g2,3io1lgzlkda9g67vw8e6zy7poip68i,rOcDOGnL,2020-0188,2020-06-04,12:33:37,12:54:55,NA,incomplete,110,filling,1,0,right,Blue_Circle_Chess_2.jpg,Blue_Triangle_Stripes_1.jpg,Red_Star_Chess_3.jpg,right,737,true,low,NA,NA,NA,NA,NA,NA,NA,false
rOcDOGnL,31mcue39cnznpis152nuvogcfi93g2,3io1lgzlkda9g67vw8e6zy7poip68i,rOcDOGnL,2020-0188,2020-06-04,12:33:37,12:54:55,NA,incomplete,111,filling,1,1,left,Blue_Circle_Stripes_4.jpg,Green_Star_Stripes_2.jpg,Blue_Plus_Chess_1.jpg,right,456,false,low,NA,NA,NA,NA,NA,NA,NA,false
rOcDOGnL,31mcue39cnznpis152nuvogcfi93g2,3io1lgzlkda9g67vw8e6zy7poip68i,rOcDOGnL,2020-0188,2020-06-04,12:33:37,12:54:55,NA,incomplete,112,filling,1,1,left,Purple_Plus_Chess_1.jpg,Green_Star_Chess_2.jpg,Purple_Circle_Stripes_3.jpg,left,484,true,low,NA,NA,NA,NA,NA,NA,NA,false
rOcDOGnL,31mcue39cnznpis152nuvogcfi93g2,3io1lgzlkda9g67vw8e6zy7poip68i,rOcDOGnL,2020-0188,2020-06-04,12:33:37,12:54:55,NA,incomplete,113,filling,1,1,left,Blue_Star_Dots_2.jpg,Green_Plus_Dots_3.jpg,Blue_Circle_Grid_4.jpg,left,549,true,low,NA,NA,NA,NA,NA,NA,NA,false
rOcDOGnL,31mcue39cnznpis152nuvogcfi93g2,3io1lgzlkda9g67vw8e6zy7poip68i,rOcDOGnL,2020-0188,2020-06-04,12:33:37,12:54:55,NA,incomplete,114,filling,1,1,left,Blue_Circle_Grid_3.jpg,Purple_Plus_Grid_2.jpg,Blue_Star_Stripes_4.jpg,left,811,true,low,NA,NA,NA,NA,NA,NA,NA,false
rOcDOGnL,31mcue39cnznpis152nuvogcfi93g2,3io1lgzlkda9g67vw8e6zy7poip68i,rOcDOGnL,2020-0188,2020-06-04,12:33:37,12:54:55,NA,incomplete,115,filling,1,1,right,Green_Star_Dots_2.jpg,Green_Triangle_Stripes_3.jpg,Purple_Circle_Dots_1.jpg,right,480,true,low,NA,NA,NA,NA,NA,NA,NA,false
rOcDOGnL,31mcue39cnznpis152nuvogcfi93g2,3io1lgzlkda9g67vw8e6zy7poip68i,rOcDOGnL,2020-0188,2020-06-04,12:33:37,12:54:55,NA,incomplete,116,filling,1,1,right,Purple_Triangle_Stripes_3.jpg,Purple_Plus_Dots_2.jpg,Red_Circle_Stripes_1.jpg,right,474,true,low,NA,NA,NA,NA,NA,NA,NA,false
rOcDOGnL,31mcue39cnznpis152nuvogcfi93g2,3io1lgzlkda9g67vw8e6zy7poip68i,rOcDOGnL,2020-0188,2020-06-04,12:33:37,12:54:55,NA,incomplete,117,filling,1,1,left,Purple_Circle_Chess_1.jpg,Green_Plus_Chess_4.jpg,Purple_Star_Grid_2.jpg,left,779,true,low,NA,NA,NA,NA,NA,NA,NA,false
rOcDOGnL,31mcue39cnznpis152nuvogcfi93g2,3io1lgzlkda9g67vw8e6zy7poip68i,rOcDOGnL,2020-0188,2020-06-04,12:33:37,12:54:55,NA,incomplete,118,filling,1,1,left,Green_Triangle_Grid_3.jpg,Red_Circle_Grid_1.jpg,Green_Plus_Stripes_4.jpg,right,386,false,low,NA,NA,NA,NA,NA,NA,NA,false
rOcDOGnL,31mcue39cnznpis152nuvogcfi93g2,3io1lgzlkda9g67vw8e6zy7poip68i,rOcDOGnL,2020-0188,2020-06-04,12:33:37,12:54:55,NA,incomplete,119,filling,1,1,left,Purple_Plus_Chess_1.jpg,Blue_Triangle_Chess_4.jpg,Purple_Circle_Grid_2.jpg,left,865,true,low,NA,NA,NA,NA,NA,NA,NA,false
rOcDOGnL,31mcue39cnznpis152nuvogcfi93g2,3io1lgzlkda9g67vw8e6zy7poip68i,rOcDOGnL,2020-0188,2020-06-04,12:33:37,12:54:55,NA,incomplete,120,gender,2,1,left,A_F_01.jpg,C_F_08.jpg,A_M_03.jpg,NA,NA,NA,low,NA,NA,NA,NA,NA,NA,NA,false
rOcDOGnL,31mcue39cnznpis152nuvogcfi93g2,3io1lgzlkda9g67vw8e6zy7poip68i,rOcDOGnL,2020-0188,2020-06-04,12:33:37,12:54:55,NA,incomplete,121,gender,2,0,left,A_M_09.jpg,C_M_04.jpg,A_F_06.jpg,left,1218,true,low,NA,NA,NA,NA,NA,NA,NA,false
rOcDOGnL,31mcue39cnznpis152nuvogcfi93g2,3io1lgzlkda9g67vw8e6zy7poip68i,rOcDOGnL,2020-0188,2020-06-04,12:33:37,12:54:55,NA,incomplete,122,gender,2,1,right,A_F_04.jpg,A_M_15.jpg,C_F_07.jpg,left,1182,false,low,NA,NA,NA,NA,NA,NA,NA,false
rOcDOGnL,31mcue39cnznpis152nuvogcfi93g2,3io1lgzlkda9g67vw8e6zy7poip68i,rOcDOGnL,2020-0188,2020-06-04,12:33:37,12:54:55,NA,incomplete,123,gender,2,1,right,A_M_13.jpg,A_F_15.jpg,C_M_03.jpg,left,1101,false,low,NA,NA,NA,NA,NA,NA,NA,false
rOcDOGnL,31mcue39cnznpis152nuvogcfi93g2,3io1lgzlkda9g67vw8e6zy7poip68i,rOcDOGnL,2020-0188,2020-06-04,12:33:37,12:54:55,NA,incomplete,124,gender,2,1,left,C_M_15.jpg,A_M_09.jpg,C_F_10.jpg,left,805,true,low,NA,NA,NA,NA,NA,NA,NA,false
rOcDOGnL,31mcue39cnznpis152nuvogcfi93g2,3io1lgzlkda9g67vw8e6zy7poip68i,rOcDOGnL,2020-0188,2020-06-04,12:33:37,12:54:55,NA,incomplete,125,gender,2,1,right,C_M_04.jpg,C_F_12.jpg,A_M_15.jpg,right,842,true,low,NA,NA,NA,NA,NA,NA,NA,false
rOcDOGnL,31mcue39cnznpis152nuvogcfi93g2,3io1lgzlkda9g67vw8e6zy7poip68i,rOcDOGnL,2020-0188,2020-06-04,12:33:37,12:54:55,NA,incomplete,126,gender,2,1,left,A_F_15.jpg,C_F_14.jpg,A_M_11.jpg,left,621,true,low,NA,NA,NA,NA,NA,NA,NA,false
rOcDOGnL,31mcue39cnznpis152nuvogcfi93g2,3io1lgzlkda9g67vw8e6zy7poip68i,rOcDOGnL,2020-0188,2020-06-04,12:33:37,12:54:55,NA,incomplete,127,gender,2,1,left,A_F_04.jpg,C_F_02.jpg,A_M_13.jpg,left,473,true,low,NA,NA,NA,NA,NA,NA,NA,false
rOcDOGnL,31mcue39cnznpis152nuvogcfi93g2,3io1lgzlkda9g67vw8e6zy7poip68i,rOcDOGnL,2020-0188,2020-06-04,12:33:37,12:54:55,NA,incomplete,128,gender,2,1,right,A_F_16.jpg,A_M_12.jpg,C_F_15.jpg,right,571,true,low,NA,NA,NA,NA,NA,NA,NA,false
rOcDOGnL,31mcue39cnznpis152nuvogcfi93g2,3io1lgzlkda9g67vw8e6zy7poip68i,rOcDOGnL,2020-0188,2020-06-04,12:33:37,12:54:55,NA,incomplete,129,gender,2,1,left,C_F_02.jpg,A_F_12.jpg,C_M_10.jpg,left,552,true,low,NA,NA,NA,NA,NA,NA,NA,false
rOcDOGnL,31mcue39cnznpis152nuvogcfi93g2,3io1lgzlkda9g67vw8e6zy7poip68i,rOcDOGnL,2020-0188,2020-06-04,12:33:37,12:54:55,NA,incomplete,130,gender,2,1,left,C_F_15.jpg,A_F_07.jpg,C_M_16.jpg,left,518,true,low,NA,NA,NA,NA,NA,NA,NA,false
rOcDOGnL,31mcue39cnznpis152nuvogcfi93g2,3io1lgzlkda9g67vw8e6zy7poip68i,rOcDOGnL,2020-0188,2020-06-04,12:33:37,12:54:55,NA,incomplete,131,gender,2,1,right,A_F_02.jpg,A_M_08.jpg,C_F_10.jpg,right,814,true,low,NA,NA,NA,NA,NA,NA,NA,false
rOcDOGnL,31mcue39cnznpis152nuvogcfi93g2,3io1lgzlkda9g67vw8e6zy7poip68i,rOcDOGnL,2020-0188,2020-06-04,12:33:37,12:54:55,NA,incomplete,132,gender,2,0,left,C_M_04.jpg,A_M_09.jpg,C_F_08.jpg,left,708,true,low,NA,NA,NA,NA,NA,NA,NA,false
rOcDOGnL,31mcue39cnznpis152nuvogcfi93g2,3io1lgzlkda9g67vw8e6zy7poip68i,rOcDOGnL,2020-0188,2020-06-04,12:33:37,12:54:55,NA,incomplete,133,gender,2,1,left,A_F_05.jpg,C_F_03.jpg,A_M_14.jpg,left,732,true,low,NA,NA,NA,NA,NA,NA,NA,false
rOcDOGnL,31mcue39cnznpis152nuvogcfi93g2,3io1lgzlkda9g67vw8e6zy7poip68i,rOcDOGnL,2020-0188,2020-06-04,12:33:37,12:54:55,NA,incomplete,134,gender,2,1,right,A_M_13.jpg,A_F_15.jpg,C_M_08.jpg,right,692,true,low,NA,NA,NA,NA,NA,NA,NA,false
rOcDOGnL,31mcue39cnznpis152nuvogcfi93g2,3io1lgzlkda9g67vw8e6zy7poip68i,rOcDOGnL,2020-0188,2020-06-04,12:33:37,12:54:55,NA,incomplete,135,gender,2,1,right,A_F_11.jpg,A_M_15.jpg,C_F_10.jpg,left,620,false,low,NA,NA,NA,NA,NA,NA,NA,false
rOcDOGnL,31mcue39cnznpis152nuvogcfi93g2,3io1lgzlkda9g67vw8e6zy7poip68i,rOcDOGnL,2020-0188,2020-06-04,12:33:37,12:54:55,NA,incomplete,136,gender,2,0,right,C_M_01.jpg,C_F_12.jpg,A_M_10.jpg,right,1105,true,low,NA,NA,NA,NA,NA,NA,NA,false
rOcDOGnL,31mcue39cnznpis152nuvogcfi93g2,3io1lgzlkda9g67vw8e6zy7poip68i,rOcDOGnL,2020-0188,2020-06-04,12:33:37,12:54:55,NA,incomplete,137,gender,2,1,left,C_F_16.jpg,A_F_09.jpg,C_M_15.jpg,left,945,true,low,NA,NA,NA,NA,NA,NA,NA,false
rOcDOGnL,31mcue39cnznpis152nuvogcfi93g2,3io1lgzlkda9g67vw8e6zy7poip68i,rOcDOGnL,2020-0188,2020-06-04,12:33:37,12:54:55,NA,incomplete,138,gender,2,0,left,C_M_13.jpg,A_M_02.jpg,C_F_01.jpg,left,1345,true,low,NA,NA,NA,NA,NA,NA,NA,false
rOcDOGnL,31mcue39cnznpis152nuvogcfi93g2,3io1lgzlkda9g67vw8e6zy7poip68i,rOcDOGnL,2020-0188,2020-06-04,12:33:37,12:54:55,NA,incomplete,139,gender,2,1,left,C_M_04.jpg,A_M_16.jpg,C_F_01.jpg,right,1975,false,low,NA,NA,NA,NA,NA,NA,NA,false
rOcDOGnL,31mcue39cnznpis152nuvogcfi93g2,3io1lgzlkda9g67vw8e6zy7poip68i,rOcDOGnL,2020-0188,2020-06-04,12:33:37,12:54:55,NA,incomplete,140,race,3,1,left,A_M_10.jpg,A_F_01.jpg,C_M_02.jpg,left,968,true,low,NA,NA,NA,NA,NA,NA,NA,false
rOcDOGnL,31mcue39cnznpis152nuvogcfi93g2,3io1lgzlkda9g67vw8e6zy7poip68i,rOcDOGnL,2020-0188,2020-06-04,12:33:37,12:54:55,NA,incomplete,141,race,3,1,right,A_M_12.jpg,C_M_10.jpg,A_F_05.jpg,right,1254,true,low,NA,NA,NA,NA,NA,NA,NA,false
rOcDOGnL,31mcue39cnznpis152nuvogcfi93g2,3io1lgzlkda9g67vw8e6zy7poip68i,rOcDOGnL,2020-0188,2020-06-04,12:33:37,12:54:55,NA,incomplete,142,race,3,1,left,A_F_04.jpg,A_M_12.jpg,C_F_09.jpg,left,927,true,low,NA,NA,NA,NA,NA,NA,NA,false
rOcDOGnL,31mcue39cnznpis152nuvogcfi93g2,3io1lgzlkda9g67vw8e6zy7poip68i,rOcDOGnL,2020-0188,2020-06-04,12:33:37,12:54:55,NA,incomplete,143,race,3,1,left,A_F_04.jpg,A_M_07.jpg,C_F_08.jpg,left,854,true,low,NA,NA,NA,NA,NA,NA,NA,false
rOcDOGnL,31mcue39cnznpis152nuvogcfi93g2,3io1lgzlkda9g67vw8e6zy7poip68i,rOcDOGnL,2020-0188,2020-06-04,12:33:37,12:54:55,NA,incomplete,144,race,3,0,left,C_M_04.jpg,C_F_05.jpg,A_M_01.jpg,right,907,false,low,NA,NA,NA,NA,NA,NA,NA,false
rOcDOGnL,31mcue39cnznpis152nuvogcfi93g2,3io1lgzlkda9g67vw8e6zy7poip68i,rOcDOGnL,2020-0188,2020-06-04,12:33:37,12:54:55,NA,incomplete,145,race,3,1,left,A_F_12.jpg,A_M_07.jpg,C_F_10.jpg,right,979,false,low,NA,NA,NA,NA,NA,NA,NA,false
rOcDOGnL,31mcue39cnznpis152nuvogcfi93g2,3io1lgzlkda9g67vw8e6zy7poip68i,rOcDOGnL,2020-0188,2020-06-04,12:33:37,12:54:55,NA,incomplete,146,race,3,1,right,A_F_14.jpg,C_F_09.jpg,A_M_06.jpg,left,1192,false,low,NA,NA,NA,NA,NA,NA,NA,false
rOcDOGnL,31mcue39cnznpis152nuvogcfi93g2,3io1lgzlkda9g67vw8e6zy7poip68i,rOcDOGnL,2020-0188,2020-06-04,12:33:37,12:54:55,NA,incomplete,147,race,3,1,left,A_F_15.jpg,A_M_07.jpg,C_F_02.jpg,left,614,true,low,NA,NA,NA,NA,NA,NA,NA,false
rOcDOGnL,31mcue39cnznpis152nuvogcfi93g2,3io1lgzlkda9g67vw8e6zy7poip68i,rOcDOGnL,2020-0188,2020-06-04,12:33:37,12:54:55,NA,incomplete,148,race,3,1,left,C_M_02.jpg,C_F_10.jpg,A_M_07.jpg,left,1052,true,low,NA,NA,NA,NA,NA,NA,NA,false
rOcDOGnL,31mcue39cnznpis152nuvogcfi93g2,3io1lgzlkda9g67vw8e6zy7poip68i,rOcDOGnL,2020-0188,2020-06-04,12:33:37,12:54:55,NA,incomplete,149,race,3,1,left,A_F_03.jpg,A_M_07.jpg,C_F_08.jpg,left,725,true,low,NA,NA,NA,NA,NA,NA,NA,false
rOcDOGnL,31mcue39cnznpis152nuvogcfi93g2,3io1lgzlkda9g67vw8e6zy7poip68i,rOcDOGnL,2020-0188,2020-06-04,12:33:37,12:54:55,NA,incomplete,150,race,3,0,left,C_F_14.jpg,C_M_06.jpg,A_F_15.jpg,right,965,false,low,NA,NA,NA,NA,NA,NA,NA,false
rOcDOGnL,31mcue39cnznpis152nuvogcfi93g2,3io1lgzlkda9g67vw8e6zy7poip68i,rOcDOGnL,2020-0188,2020-06-04,12:33:37,12:54:55,NA,incomplete,151,race,3,1,left,C_M_03.jpg,C_F_08.jpg,A_M_02.jpg,right,1085,false,low,NA,NA,NA,NA,NA,NA,NA,false
rOcDOGnL,31mcue39cnznpis152nuvogcfi93g2,3io1lgzlkda9g67vw8e6zy7poip68i,rOcDOGnL,2020-0188,2020-06-04,12:33:37,12:54:55,NA,incomplete,152,race,3,0,right,A_F_14.jpg,C_F_05.jpg,A_M_13.jpg,left,885,false,low,NA,NA,NA,NA,NA,NA,NA,false
rOcDOGnL,31mcue39cnznpis152nuvogcfi93g2,3io1lgzlkda9g67vw8e6zy7poip68i,rOcDOGnL,2020-0188,2020-06-04,12:33:37,12:54:55,NA,incomplete,153,race,3,1,left,C_F_11.jpg,C_M_04.jpg,A_F_12.jpg,right,887,false,low,NA,NA,NA,NA,NA,NA,NA,false
rOcDOGnL,31mcue39cnznpis152nuvogcfi93g2,3io1lgzlkda9g67vw8e6zy7poip68i,rOcDOGnL,2020-0188,2020-06-04,12:33:37,12:54:55,NA,incomplete,154,race,3,0,right,A_F_01.jpg,C_F_02.jpg,A_M_13.jpg,right,1007,true,low,NA,NA,NA,NA,NA,NA,NA,false
rOcDOGnL,31mcue39cnznpis152nuvogcfi93g2,3io1lgzlkda9g67vw8e6zy7poip68i,rOcDOGnL,2020-0188,2020-06-04,12:33:37,12:54:55,NA,incomplete,155,race,3,1,right,A_M_03.jpg,C_M_10.jpg,A_F_01.jpg,left,813,false,low,NA,NA,NA,NA,NA,NA,NA,false
rOcDOGnL,31mcue39cnznpis152nuvogcfi93g2,3io1lgzlkda9g67vw8e6zy7poip68i,rOcDOGnL,2020-0188,2020-06-04,12:33:37,12:54:55,NA,incomplete,156,race,3,1,right,C_M_16.jpg,A_M_01.jpg,C_F_14.jpg,left,1059,false,low,NA,NA,NA,NA,NA,NA,NA,false
rOcDOGnL,31mcue39cnznpis152nuvogcfi93g2,3io1lgzlkda9g67vw8e6zy7poip68i,rOcDOGnL,2020-0188,2020-06-04,12:33:37,12:54:55,NA,incomplete,157,race,3,1,left,C_F_16.jpg,C_M_06.jpg,A_F_05.jpg,left,1164,true,low,NA,NA,NA,NA,NA,NA,NA,false
rOcDOGnL,31mcue39cnznpis152nuvogcfi93g2,3io1lgzlkda9g67vw8e6zy7poip68i,rOcDOGnL,2020-0188,2020-06-04,12:33:37,12:54:55,NA,incomplete,158,race,3,1,left,C_F_11.jpg,C_M_01.jpg,A_F_15.jpg,left,1010,true,low,NA,NA,NA,NA,NA,NA,NA,false
rOcDOGnL,31mcue39cnznpis152nuvogcfi93g2,3io1lgzlkda9g67vw8e6zy7poip68i,rOcDOGnL,2020-0188,2020-06-04,12:33:37,12:54:55,NA,incomplete,159,race,3,1,right,C_M_01.jpg,A_M_09.jpg,C_F_06.jpg,right,1320,true,low,NA,NA,NA,NA,NA,NA,NA,false
rOcDOGnL,31mcue39cnznpis152nuvogcfi93g2,3io1lgzlkda9g67vw8e6zy7poip68i,rOcDOGnL,2020-0188,2020-06-04,12:33:37,12:54:55,NA,incomplete,160,gender,2,1,right,A_F_08.jpg,A_M_04.jpg,C_F_03.jpg,left,1063,false,low,NA,NA,NA,NA,NA,NA,NA,false
rOcDOGnL,31mcue39cnznpis152nuvogcfi93g2,3io1lgzlkda9g67vw8e6zy7poip68i,rOcDOGnL,2020-0188,2020-06-04,12:33:37,12:54:55,NA,incomplete,161,gender,2,1,right,A_F_07.jpg,A_M_02.jpg,C_F_06.jpg,left,935,false,low,NA,NA,NA,NA,NA,NA,NA,false
rOcDOGnL,31mcue39cnznpis152nuvogcfi93g2,3io1lgzlkda9g67vw8e6zy7poip68i,rOcDOGnL,2020-0188,2020-06-04,12:33:37,12:54:55,NA,incomplete,162,gender,2,1,right,C_F_01.jpg,C_M_16.jpg,A_F_04.jpg,right,739,true,low,NA,NA,NA,NA,NA,NA,NA,false
rOcDOGnL,31mcue39cnznpis152nuvogcfi93g2,3io1lgzlkda9g67vw8e6zy7poip68i,rOcDOGnL,2020-0188,2020-06-04,12:33:37,12:54:55,NA,incomplete,163,gender,2,1,right,A_F_08.jpg,A_M_15.jpg,C_F_10.jpg,right,816,true,low,NA,NA,NA,NA,NA,NA,NA,false
rOcDOGnL,31mcue39cnznpis152nuvogcfi93g2,3io1lgzlkda9g67vw8e6zy7poip68i,rOcDOGnL,2020-0188,2020-06-04,12:33:37,12:54:55,NA,incomplete,164,gender,2,1,left,A_M_15.jpg,C_M_09.jpg,A_F_10.jpg,left,1302,true,low,NA,NA,NA,NA,NA,NA,NA,false
rOcDOGnL,31mcue39cnznpis152nuvogcfi93g2,3io1lgzlkda9g67vw8e6zy7poip68i,rOcDOGnL,2020-0188,2020-06-04,12:33:37,12:54:55,NA,incomplete,165,gender,2,0,right,C_M_16.jpg,C_F_14.jpg,A_M_02.jpg,right,1038,true,low,NA,NA,NA,NA,NA,NA,NA,false
rOcDOGnL,31mcue39cnznpis152nuvogcfi93g2,3io1lgzlkda9g67vw8e6zy7poip68i,rOcDOGnL,2020-0188,2020-06-04,12:33:37,12:54:55,NA,incomplete,166,gender,2,1,left,A_M_05.jpg,C_M_06.jpg,A_F_12.jpg,left,744,true,low,NA,NA,NA,NA,NA,NA,NA,false
rOcDOGnL,31mcue39cnznpis152nuvogcfi93g2,3io1lgzlkda9g67vw8e6zy7poip68i,rOcDOGnL,2020-0188,2020-06-04,12:33:37,12:54:55,NA,incomplete,167,gender,2,1,left,C_F_01.jpg,A_F_07.jpg,C_M_12.jpg,left,1120,true,low,NA,NA,NA,NA,NA,NA,NA,false
rOcDOGnL,31mcue39cnznpis152nuvogcfi93g2,3io1lgzlkda9g67vw8e6zy7poip68i,rOcDOGnL,2020-0188,2020-06-04,12:33:37,12:54:55,NA,incomplete,168,gender,2,0,right,A_F_11.jpg,A_M_05.jpg,C_F_07.jpg,right,963,true,low,NA,NA,NA,NA,NA,NA,NA,false
rOcDOGnL,31mcue39cnznpis152nuvogcfi93g2,3io1lgzlkda9g67vw8e6zy7poip68i,rOcDOGnL,2020-0188,2020-06-04,12:33:37,12:54:55,NA,incomplete,169,gender,2,1,right,A_F_07.jpg,A_M_01.jpg,C_F_02.jpg,right,783,true,low,NA,NA,NA,NA,NA,NA,NA,false
rOcDOGnL,31mcue39cnznpis152nuvogcfi93g2,3io1lgzlkda9g67vw8e6zy7poip68i,rOcDOGnL,2020-0188,2020-06-04,12:33:37,12:54:55,NA,incomplete,170,gender,2,1,left,A_M_04.jpg,C_M_08.jpg,A_F_05.jpg,left,662,true,low,NA,NA,NA,NA,NA,NA,NA,false
rOcDOGnL,31mcue39cnznpis152nuvogcfi93g2,3io1lgzlkda9g67vw8e6zy7poip68i,rOcDOGnL,2020-0188,2020-06-04,12:33:37,12:54:55,NA,incomplete,171,gender,2,0,left,A_F_09.jpg,C_F_03.jpg,A_M_15.jpg,left,816,true,low,NA,NA,NA,NA,NA,NA,NA,false
rOcDOGnL,31mcue39cnznpis152nuvogcfi93g2,3io1lgzlkda9g67vw8e6zy7poip68i,rOcDOGnL,2020-0188,2020-06-04,12:33:37,12:54:55,NA,incomplete,172,gender,2,1,right,A_M_14.jpg,A_F_10.jpg,C_M_07.jpg,right,1253,true,low,NA,NA,NA,NA,NA,NA,NA,false
rOcDOGnL,31mcue39cnznpis152nuvogcfi93g2,3io1lgzlkda9g67vw8e6zy7poip68i,rOcDOGnL,2020-0188,2020-06-04,12:33:37,12:54:55,NA,incomplete,173,gender,2,1,right,A_M_08.jpg,A_F_15.jpg,C_M_01.jpg,right,734,true,low,NA,NA,NA,NA,NA,NA,NA,false
rOcDOGnL,31mcue39cnznpis152nuvogcfi93g2,3io1lgzlkda9g67vw8e6zy7poip68i,rOcDOGnL,2020-0188,2020-06-04,12:33:37,12:54:55,NA,incomplete,174,gender,2,1,left,A_M_04.jpg,C_M_15.jpg,A_F_03.jpg,left,991,true,low,NA,NA,NA,NA,NA,NA,NA,false
rOcDOGnL,31mcue39cnznpis152nuvogcfi93g2,3io1lgzlkda9g67vw8e6zy7poip68i,rOcDOGnL,2020-0188,2020-06-04,12:33:37,12:54:55,NA,incomplete,175,gender,2,1,right,C_M_14.jpg,C_F_02.jpg,A_M_12.jpg,right,796,true,low,NA,NA,NA,NA,NA,NA,NA,false
rOcDOGnL,31mcue39cnznpis152nuvogcfi93g2,3io1lgzlkda9g67vw8e6zy7poip68i,rOcDOGnL,2020-0188,2020-06-04,12:33:37,12:54:55,NA,incomplete,176,gender,2,0,right,C_M_07.jpg,C_F_14.jpg,A_M_16.jpg,right,578,true,low,NA,NA,NA,NA,NA,NA,NA,false
rOcDOGnL,31mcue39cnznpis152nuvogcfi93g2,3io1lgzlkda9g67vw8e6zy7poip68i,rOcDOGnL,2020-0188,2020-06-04,12:33:37,12:54:55,NA,incomplete,177,gender,2,1,left,A_M_03.jpg,C_M_14.jpg,A_F_06.jpg,left,831,true,low,NA,NA,NA,NA,NA,NA,NA,false
rOcDOGnL,31mcue39cnznpis152nuvogcfi93g2,3io1lgzlkda9g67vw8e6zy7poip68i,rOcDOGnL,2020-0188,2020-06-04,12:33:37,12:54:55,NA,incomplete,178,gender,2,1,right,A_F_05.jpg,A_M_08.jpg,C_F_09.jpg,right,947,true,low,NA,NA,NA,NA,NA,NA,NA,false
rOcDOGnL,31mcue39cnznpis152nuvogcfi93g2,3io1lgzlkda9g67vw8e6zy7poip68i,rOcDOGnL,2020-0188,2020-06-04,12:33:37,12:54:55,NA,incomplete,179,gender,2,1,left,C_M_13.jpg,A_M_03.jpg,C_F_12.jpg,left,690,true,low,NA,NA,NA,NA,NA,NA,NA,false
rOcDOGnL,31mcue39cnznpis152nuvogcfi93g2,3io1lgzlkda9g67vw8e6zy7poip68i,rOcDOGnL,2020-0188,2020-06-04,12:33:37,12:54:55,NA,incomplete,180,race,3,1,right,C_M_11.jpg,A_M_04.jpg,C_F_03.jpg,left,714,false,low,NA,NA,NA,NA,NA,NA,NA,false
rOcDOGnL,31mcue39cnznpis152nuvogcfi93g2,3io1lgzlkda9g67vw8e6zy7poip68i,rOcDOGnL,2020-0188,2020-06-04,12:33:37,12:54:55,NA,incomplete,181,race,3,1,left,C_M_15.jpg,C_F_11.jpg,A_M_03.jpg,right,828,false,low,NA,NA,NA,NA,NA,NA,NA,false
rOcDOGnL,31mcue39cnznpis152nuvogcfi93g2,3io1lgzlkda9g67vw8e6zy7poip68i,rOcDOGnL,2020-0188,2020-06-04,12:33:37,12:54:55,NA,incomplete,182,race,3,1,left,C_F_16.jpg,C_M_01.jpg,A_F_07.jpg,left,799,true,low,NA,NA,NA,NA,NA,NA,NA,false
rOcDOGnL,31mcue39cnznpis152nuvogcfi93g2,3io1lgzlkda9g67vw8e6zy7poip68i,rOcDOGnL,2020-0188,2020-06-04,12:33:37,12:54:55,NA,incomplete,183,race,3,1,left,C_F_12.jpg,C_M_06.jpg,A_F_05.jpg,right,860,false,low,NA,NA,NA,NA,NA,NA,NA,false
rOcDOGnL,31mcue39cnznpis152nuvogcfi93g2,3io1lgzlkda9g67vw8e6zy7poip68i,rOcDOGnL,2020-0188,2020-06-04,12:33:37,12:54:55,NA,incomplete,184,race,3,1,right,A_F_02.jpg,C_F_09.jpg,A_M_11.jpg,right,1311,true,low,NA,NA,NA,NA,NA,NA,NA,false
rOcDOGnL,31mcue39cnznpis152nuvogcfi93g2,3io1lgzlkda9g67vw8e6zy7poip68i,rOcDOGnL,2020-0188,2020-06-04,12:33:37,12:54:55,NA,incomplete,185,race,3,0,right,C_M_11.jpg,A_M_09.jpg,C_F_07.jpg,right,992,true,low,NA,NA,NA,NA,NA,NA,NA,false
rOcDOGnL,31mcue39cnznpis152nuvogcfi93g2,3io1lgzlkda9g67vw8e6zy7poip68i,rOcDOGnL,2020-0188,2020-06-04,12:33:37,12:54:55,NA,incomplete,186,race,3,1,right,A_F_16.jpg,C_F_08.jpg,A_M_10.jpg,right,1223,true,low,NA,NA,NA,NA,NA,NA,NA,false
rOcDOGnL,31mcue39cnznpis152nuvogcfi93g2,3io1lgzlkda9g67vw8e6zy7poip68i,rOcDOGnL,2020-0188,2020-06-04,12:33:37,12:54:55,NA,incomplete,187,race,3,1,left,A_M_08.jpg,A_F_12.jpg,C_M_09.jpg,left,777,true,low,NA,NA,NA,NA,NA,NA,NA,false
rOcDOGnL,31mcue39cnznpis152nuvogcfi93g2,3io1lgzlkda9g67vw8e6zy7poip68i,rOcDOGnL,2020-0188,2020-06-04,12:33:37,12:54:55,NA,incomplete,188,race,3,1,right,A_M_07.jpg,C_M_02.jpg,A_F_10.jpg,right,960,true,low,NA,NA,NA,NA,NA,NA,NA,false
rOcDOGnL,31mcue39cnznpis152nuvogcfi93g2,3io1lgzlkda9g67vw8e6zy7poip68i,rOcDOGnL,2020-0188,2020-06-04,12:33:37,12:54:55,NA,incomplete,189,race,3,0,left,C_M_09.jpg,C_F_07.jpg,A_M_04.jpg,left,1120,true,low,NA,NA,NA,NA,NA,NA,NA,false
rOcDOGnL,31mcue39cnznpis152nuvogcfi93g2,3io1lgzlkda9g67vw8e6zy7poip68i,rOcDOGnL,2020-0188,2020-06-04,12:33:37,12:54:55,NA,incomplete,190,race,3,1,left,C_M_08.jpg,C_F_13.jpg,A_M_09.jpg,left,1334,true,low,NA,NA,NA,NA,NA,NA,NA,false
rOcDOGnL,31mcue39cnznpis152nuvogcfi93g2,3io1lgzlkda9g67vw8e6zy7poip68i,rOcDOGnL,2020-0188,2020-06-04,12:33:37,12:54:55,NA,incomplete,191,race,3,1,right,C_F_03.jpg,A_F_12.jpg,C_M_10.jpg,right,1062,true,low,NA,NA,NA,NA,NA,NA,NA,false
rOcDOGnL,31mcue39cnznpis152nuvogcfi93g2,3io1lgzlkda9g67vw8e6zy7poip68i,rOcDOGnL,2020-0188,2020-06-04,12:33:37,12:54:55,NA,incomplete,192,race,3,1,left,C_M_05.jpg,C_F_14.jpg,A_M_02.jpg,left,730,true,low,NA,NA,NA,NA,NA,NA,NA,false
rOcDOGnL,31mcue39cnznpis152nuvogcfi93g2,3io1lgzlkda9g67vw8e6zy7poip68i,rOcDOGnL,2020-0188,2020-06-04,12:33:37,12:54:55,NA,incomplete,193,race,3,1,left,A_F_10.jpg,A_M_14.jpg,C_F_09.jpg,left,929,true,low,NA,NA,NA,NA,NA,NA,NA,false
rOcDOGnL,31mcue39cnznpis152nuvogcfi93g2,3io1lgzlkda9g67vw8e6zy7poip68i,rOcDOGnL,2020-0188,2020-06-04,12:33:37,12:54:55,NA,incomplete,194,race,3,1,left,C_M_13.jpg,C_F_09.jpg,A_M_10.jpg,left,1152,true,low,NA,NA,NA,NA,NA,NA,NA,false
rOcDOGnL,31mcue39cnznpis152nuvogcfi93g2,3io1lgzlkda9g67vw8e6zy7poip68i,rOcDOGnL,2020-0188,2020-06-04,12:33:37,12:54:55,NA,incomplete,195,race,3,0,left,C_M_08.jpg,C_F_01.jpg,A_M_16.jpg,left,1008,true,low,NA,NA,NA,NA,NA,NA,NA,false
rOcDOGnL,31mcue39cnznpis152nuvogcfi93g2,3io1lgzlkda9g67vw8e6zy7poip68i,rOcDOGnL,2020-0188,2020-06-04,12:33:37,12:54:55,NA,incomplete,196,race,3,1,right,C_F_08.jpg,A_F_11.jpg,C_M_13.jpg,right,1771,true,low,NA,NA,NA,NA,NA,NA,NA,false
rOcDOGnL,31mcue39cnznpis152nuvogcfi93g2,3io1lgzlkda9g67vw8e6zy7poip68i,rOcDOGnL,2020-0188,2020-06-04,12:33:37,12:54:55,NA,incomplete,197,race,3,0,right,A_F_09.jpg,C_F_14.jpg,A_M_10.jpg,right,1012,true,low,NA,NA,NA,NA,NA,NA,NA,false
rOcDOGnL,31mcue39cnznpis152nuvogcfi93g2,3io1lgzlkda9g67vw8e6zy7poip68i,rOcDOGnL,2020-0188,2020-06-04,12:33:37,12:54:55,NA,incomplete,198,race,3,1,right,A_F_08.jpg,C_F_16.jpg,A_M_01.jpg,right,863,true,low,NA,NA,NA,NA,NA,NA,NA,false
rOcDOGnL,31mcue39cnznpis152nuvogcfi93g2,3io1lgzlkda9g67vw8e6zy7poip68i,rOcDOGnL,2020-0188,2020-06-04,12:33:37,12:54:55,NA,incomplete,199,race,3,0,left,A_M_11.jpg,A_F_04.jpg,C_M_14.jpg,left,1091,true,low,NA,NA,NA,NA,NA,NA,NA,false
rOcDOGnL,31mcue39cnznpis152nuvogcfi93g2,3io1lgzlkda9g67vw8e6zy7poip68i,rOcDOGnL,2020-0188,2020-06-04,12:33:37,12:54:55,NA,incomplete,200,gender,2,1,right,C_M_07.jpg,C_F_08.jpg,A_M_03.jpg,right,1282,true,low,NA,NA,NA,NA,NA,NA,NA,false
rOcDOGnL,31mcue39cnznpis152nuvogcfi93g2,3io1lgzlkda9g67vw8e6zy7poip68i,rOcDOGnL,2020-0188,2020-06-04,12:33:37,12:54:55,NA,incomplete,201,gender,2,1,right,A_F_04.jpg,A_M_01.jpg,C_F_02.jpg,right,678,true,low,NA,NA,NA,NA,NA,NA,NA,false
rOcDOGnL,31mcue39cnznpis152nuvogcfi93g2,3io1lgzlkda9g67vw8e6zy7poip68i,rOcDOGnL,2020-0188,2020-06-04,12:33:37,12:54:55,NA,incomplete,202,gender,2,1,right,C_M_02.jpg,C_F_11.jpg,A_M_06.jpg,left,1319,false,low,NA,NA,NA,NA,NA,NA,NA,false
rOcDOGnL,31mcue39cnznpis152nuvogcfi93g2,3io1lgzlkda9g67vw8e6zy7poip68i,rOcDOGnL,2020-0188,2020-06-04,12:33:37,12:54:55,NA,incomplete,203,gender,2,1,left,A_F_11.jpg,C_F_10.jpg,A_M_02.jpg,left,1008,true,low,NA,NA,NA,NA,NA,NA,NA,false
rOcDOGnL,31mcue39cnznpis152nuvogcfi93g2,3io1lgzlkda9g67vw8e6zy7poip68i,rOcDOGnL,2020-0188,2020-06-04,12:33:37,12:54:55,NA,incomplete,204,gender,2,1,left,C_M_09.jpg,A_M_13.jpg,C_F_05.jpg,left,1373,true,low,NA,NA,NA,NA,NA,NA,NA,false
rOcDOGnL,31mcue39cnznpis152nuvogcfi93g2,3io1lgzlkda9g67vw8e6zy7poip68i,rOcDOGnL,2020-0188,2020-06-04,12:33:37,12:54:55,NA,incomplete,205,gender,2,1,left,A_F_16.jpg,C_F_14.jpg,A_M_15.jpg,right,821,false,low,NA,NA,NA,NA,NA,NA,NA,false
rOcDOGnL,31mcue39cnznpis152nuvogcfi93g2,3io1lgzlkda9g67vw8e6zy7poip68i,rOcDOGnL,2020-0188,2020-06-04,12:33:37,12:54:55,NA,incomplete,206,gender,2,1,right,C_M_07.jpg,C_F_01.jpg,A_M_16.jpg,right,1327,true,low,NA,NA,NA,NA,NA,NA,NA,false
rOcDOGnL,31mcue39cnznpis152nuvogcfi93g2,3io1lgzlkda9g67vw8e6zy7poip68i,rOcDOGnL,2020-0188,2020-06-04,12:33:37,12:54:55,NA,incomplete,207,gender,2,1,right,A_F_08.jpg,A_M_13.jpg,C_F_03.jpg,right,895,true,low,NA,NA,NA,NA,NA,NA,NA,false
rOcDOGnL,31mcue39cnznpis152nuvogcfi93g2,3io1lgzlkda9g67vw8e6zy7poip68i,rOcDOGnL,2020-0188,2020-06-04,12:33:37,12:54:55,NA,incomplete,208,gender,2,1,left,C_M_06.jpg,A_M_03.jpg,C_F_02.jpg,left,690,true,low,NA,NA,NA,NA,NA,NA,NA,false
rOcDOGnL,31mcue39cnznpis152nuvogcfi93g2,3io1lgzlkda9g67vw8e6zy7poip68i,rOcDOGnL,2020-0188,2020-06-04,12:33:37,12:54:55,NA,incomplete,209,gender,2,1,left,C_F_08.jpg,A_F_10.jpg,C_M_11.jpg,right,1585,false,low,NA,NA,NA,NA,NA,NA,NA,false
rOcDOGnL,31mcue39cnznpis152nuvogcfi93g2,3io1lgzlkda9g67vw8e6zy7poip68i,rOcDOGnL,2020-0188,2020-06-04,12:33:37,12:54:55,NA,incomplete,210,gender,2,1,left,A_F_10.jpg,C_F_08.jpg,A_M_15.jpg,left,798,true,low,NA,NA,NA,NA,NA,NA,NA,false
rOcDOGnL,31mcue39cnznpis152nuvogcfi93g2,3io1lgzlkda9g67vw8e6zy7poip68i,rOcDOGnL,2020-0188,2020-06-04,12:33:37,12:54:55,NA,incomplete,211,gender,2,0,left,C_M_04.jpg,A_M_03.jpg,C_F_01.jpg,none,0,false,low,NA,NA,NA,NA,NA,NA,NA,false
rOcDOGnL,31mcue39cnznpis152nuvogcfi93g2,3io1lgzlkda9g67vw8e6zy7poip68i,rOcDOGnL,2020-0188,2020-06-04,12:33:37,12:54:55,NA,incomplete,212,gender,2,1,left,C_F_13.jpg,A_F_04.jpg,C_M_09.jpg,left,663,true,low,NA,NA,NA,NA,NA,NA,NA,false
rOcDOGnL,31mcue39cnznpis152nuvogcfi93g2,3io1lgzlkda9g67vw8e6zy7poip68i,rOcDOGnL,2020-0188,2020-06-04,12:33:37,12:54:55,NA,incomplete,213,gender,2,1,right,A_F_04.jpg,A_M_03.jpg,C_F_06.jpg,right,513,true,low,NA,NA,NA,NA,NA,NA,NA,false
rOcDOGnL,31mcue39cnznpis152nuvogcfi93g2,3io1lgzlkda9g67vw8e6zy7poip68i,rOcDOGnL,2020-0188,2020-06-04,12:33:37,12:54:55,NA,incomplete,214,gender,2,1,left,A_F_09.jpg,C_F_08.jpg,A_M_14.jpg,left,643,true,low,NA,NA,NA,NA,NA,NA,NA,false
rOcDOGnL,31mcue39cnznpis152nuvogcfi93g2,3io1lgzlkda9g67vw8e6zy7poip68i,rOcDOGnL,2020-0188,2020-06-04,12:33:37,12:54:55,NA,incomplete,215,gender,2,1,right,C_M_10.jpg,C_F_07.jpg,A_M_02.jpg,right,1341,true,low,NA,NA,NA,NA,NA,NA,NA,false
rOcDOGnL,31mcue39cnznpis152nuvogcfi93g2,3io1lgzlkda9g67vw8e6zy7poip68i,rOcDOGnL,2020-0188,2020-06-04,12:33:37,12:54:55,NA,incomplete,216,gender,2,1,left,C_M_12.jpg,A_M_03.jpg,C_F_04.jpg,left,551,true,low,NA,NA,NA,NA,NA,NA,NA,false
rOcDOGnL,31mcue39cnznpis152nuvogcfi93g2,3io1lgzlkda9g67vw8e6zy7poip68i,rOcDOGnL,2020-0188,2020-06-04,12:33:37,12:54:55,NA,incomplete,217,gender,2,1,left,A_M_03.jpg,C_M_05.jpg,A_F_07.jpg,left,540,true,low,NA,NA,NA,NA,NA,NA,NA,false
rOcDOGnL,31mcue39cnznpis152nuvogcfi93g2,3io1lgzlkda9g67vw8e6zy7poip68i,rOcDOGnL,2020-0188,2020-06-04,12:33:37,12:54:55,NA,incomplete,218,gender,2,0,left,A_M_15.jpg,C_M_03.jpg,A_F_07.jpg,left,492,true,low,NA,NA,NA,NA,NA,NA,NA,false
rOcDOGnL,31mcue39cnznpis152nuvogcfi93g2,3io1lgzlkda9g67vw8e6zy7poip68i,rOcDOGnL,2020-0188,2020-06-04,12:33:37,12:54:55,NA,incomplete,219,gender,2,1,right,C_M_05.jpg,C_F_16.jpg,A_M_02.jpg,right,798,true,low,NA,NA,NA,NA,NA,NA,NA,false
rOcDOGnL,31mcue39cnznpis152nuvogcfi93g2,3io1lgzlkda9g67vw8e6zy7poip68i,rOcDOGnL,2020-0188,2020-06-04,12:33:37,12:54:55,NA,incomplete,220,race,3,0,right,A_F_06.jpg,C_F_16.jpg,A_M_03.jpg,left,722,false,low,NA,NA,NA,NA,NA,NA,NA,false
rOcDOGnL,31mcue39cnznpis152nuvogcfi93g2,3io1lgzlkda9g67vw8e6zy7poip68i,rOcDOGnL,2020-0188,2020-06-04,12:33:37,12:54:55,NA,incomplete,221,race,3,1,left,A_M_08.jpg,A_F_16.jpg,C_M_12.jpg,right,520,false,low,NA,NA,NA,NA,NA,NA,NA,false
rOcDOGnL,31mcue39cnznpis152nuvogcfi93g2,3io1lgzlkda9g67vw8e6zy7poip68i,rOcDOGnL,2020-0188,2020-06-04,12:33:37,12:54:55,NA,incomplete,222,race,3,1,right,C_M_15.jpg,A_M_13.jpg,C_F_06.jpg,right,1177,true,low,NA,NA,NA,NA,NA,NA,NA,false
rOcDOGnL,31mcue39cnznpis152nuvogcfi93g2,3io1lgzlkda9g67vw8e6zy7poip68i,rOcDOGnL,2020-0188,2020-06-04,12:33:37,12:54:55,NA,incomplete,223,race,3,0,left,A_F_12.jpg,A_M_09.jpg,C_F_07.jpg,right,744,false,low,NA,NA,NA,NA,NA,NA,NA,false
rOcDOGnL,31mcue39cnznpis152nuvogcfi93g2,3io1lgzlkda9g67vw8e6zy7poip68i,rOcDOGnL,2020-0188,2020-06-04,12:33:37,12:54:55,NA,incomplete,224,race,3,1,right,A_F_11.jpg,C_F_03.jpg,A_M_14.jpg,left,543,false,low,NA,NA,NA,NA,NA,NA,NA,false
rOcDOGnL,31mcue39cnznpis152nuvogcfi93g2,3io1lgzlkda9g67vw8e6zy7poip68i,rOcDOGnL,2020-0188,2020-06-04,12:33:37,12:54:55,NA,incomplete,225,race,3,1,right,A_M_11.jpg,C_M_02.jpg,A_F_15.jpg,right,1015,true,low,NA,NA,NA,NA,NA,NA,NA,false
rOcDOGnL,31mcue39cnznpis152nuvogcfi93g2,3io1lgzlkda9g67vw8e6zy7poip68i,rOcDOGnL,2020-0188,2020-06-04,12:33:37,12:54:55,NA,incomplete,226,race,3,1,left,C_M_05.jpg,C_F_12.jpg,A_M_08.jpg,right,970,false,low,NA,NA,NA,NA,NA,NA,NA,false
rOcDOGnL,31mcue39cnznpis152nuvogcfi93g2,3io1lgzlkda9g67vw8e6zy7poip68i,rOcDOGnL,2020-0188,2020-06-04,12:33:37,12:54:55,NA,incomplete,227,race,3,1,right,C_M_16.jpg,A_M_08.jpg,C_F_10.jpg,left,881,false,low,NA,NA,NA,NA,NA,NA,NA,false
rOcDOGnL,31mcue39cnznpis152nuvogcfi93g2,3io1lgzlkda9g67vw8e6zy7poip68i,rOcDOGnL,2020-0188,2020-06-04,12:33:37,12:54:55,NA,incomplete,228,race,3,1,left,A_M_08.jpg,A_F_13.jpg,C_M_15.jpg,left,1677,true,low,NA,NA,NA,NA,NA,NA,NA,false
rOcDOGnL,31mcue39cnznpis152nuvogcfi93g2,3io1lgzlkda9g67vw8e6zy7poip68i,rOcDOGnL,2020-0188,2020-06-04,12:33:37,12:54:55,NA,incomplete,229,race,3,0,right,A_F_04.jpg,C_F_12.jpg,A_M_11.jpg,left,1045,false,low,NA,NA,NA,NA,NA,NA,NA,false
rOcDOGnL,31mcue39cnznpis152nuvogcfi93g2,3io1lgzlkda9g67vw8e6zy7poip68i,rOcDOGnL,2020-0188,2020-06-04,12:33:37,12:54:55,NA,incomplete,230,race,3,1,right,A_F_13.jpg,C_F_14.jpg,A_M_07.jpg,right,761,true,low,NA,NA,NA,NA,NA,NA,NA,false
rOcDOGnL,31mcue39cnznpis152nuvogcfi93g2,3io1lgzlkda9g67vw8e6zy7poip68i,rOcDOGnL,2020-0188,2020-06-04,12:33:37,12:54:55,NA,incomplete,231,race,3,1,right,C_M_12.jpg,A_M_10.jpg,C_F_06.jpg,left,1303,false,low,NA,NA,NA,NA,NA,NA,NA,false
rOcDOGnL,31mcue39cnznpis152nuvogcfi93g2,3io1lgzlkda9g67vw8e6zy7poip68i,rOcDOGnL,2020-0188,2020-06-04,12:33:37,12:54:55,NA,incomplete,232,race,3,1,left,A_M_15.jpg,A_F_13.jpg,C_M_06.jpg,left,824,true,low,NA,NA,NA,NA,NA,NA,NA,false
rOcDOGnL,31mcue39cnznpis152nuvogcfi93g2,3io1lgzlkda9g67vw8e6zy7poip68i,rOcDOGnL,2020-0188,2020-06-04,12:33:37,12:54:55,NA,incomplete,233,race,3,0,left,C_F_12.jpg,C_M_06.jpg,A_F_08.jpg,left,1387,true,low,NA,NA,NA,NA,NA,NA,NA,false
rOcDOGnL,31mcue39cnznpis152nuvogcfi93g2,3io1lgzlkda9g67vw8e6zy7poip68i,rOcDOGnL,2020-0188,2020-06-04,12:33:37,12:54:55,NA,incomplete,234,race,3,1,right,C_F_01.jpg,A_F_15.jpg,C_M_10.jpg,right,1241,true,low,NA,NA,NA,NA,NA,NA,NA,false
rOcDOGnL,31mcue39cnznpis152nuvogcfi93g2,3io1lgzlkda9g67vw8e6zy7poip68i,rOcDOGnL,2020-0188,2020-06-04,12:33:37,12:54:55,NA,incomplete,235,race,3,1,left,C_M_05.jpg,C_F_02.jpg,A_M_14.jpg,left,1189,true,low,NA,NA,NA,NA,NA,NA,NA,false
rOcDOGnL,31mcue39cnznpis152nuvogcfi93g2,3io1lgzlkda9g67vw8e6zy7poip68i,rOcDOGnL,2020-0188,2020-06-04,12:33:37,12:54:55,NA,incomplete,236,race,3,1,left,A_F_14.jpg,A_M_09.jpg,C_F_01.jpg,left,779,true,low,NA,NA,NA,NA,NA,NA,NA,false
rOcDOGnL,31mcue39cnznpis152nuvogcfi93g2,3io1lgzlkda9g67vw8e6zy7poip68i,rOcDOGnL,2020-0188,2020-06-04,12:33:37,12:54:55,NA,incomplete,237,race,3,1,left,C_M_07.jpg,C_F_16.jpg,A_M_14.jpg,left,960,true,low,NA,NA,NA,NA,NA,NA,NA,false
rOcDOGnL,31mcue39cnznpis152nuvogcfi93g2,3io1lgzlkda9g67vw8e6zy7poip68i,rOcDOGnL,2020-0188,2020-06-04,12:33:37,12:54:55,NA,incomplete,238,race,3,0,right,C_F_03.jpg,A_F_04.jpg,C_M_02.jpg,right,1054,true,low,NA,NA,NA,NA,NA,NA,NA,false
rOcDOGnL,31mcue39cnznpis152nuvogcfi93g2,3io1lgzlkda9g67vw8e6zy7poip68i,rOcDOGnL,2020-0188,2020-06-04,12:33:37,12:54:55,NA,incomplete,239,race,3,1,right,C_F_09.jpg,A_F_12.jpg,C_M_10.jpg,right,946,true,low,NA,NA,NA,NA,NA,NA,NA,false
rOcDOGnL,31mcue39cnznpis152nuvogcfi93g2,3io1lgzlkda9g67vw8e6zy7poip68i,rOcDOGnL,2020-0188,2020-06-04,12:33:37,12:54:55,NA,NA,instruction example,color,NA,NA,NA,Blue_Plus_Stripes_3.jpg,Blue_Triangle_Grid_1.jpg,Green_Circle_Stripes_2.jpg,NA,NA,NA,NA,NA,NA,NA,NA,NA,NA,NA,undefined
rOcDOGnL,31mcue39cnznpis152nuvogcfi93g2,3io1lgzlkda9g67vw8e6zy7poip68i,rOcDOGnL,2020-0188,2020-06-04,12:33:37,12:54:55,NA,NA,instruction example,color,NA,NA,NA,Blue_Triangle_Grid_4.jpg,Purple_Plus_Grid_1.jpg,Blue_Circle_Stripes_2.jpg,NA,NA,NA,NA,NA,NA,NA,NA,NA,NA,NA,undefined
rOcDOGnL,31mcue39cnznpis152nuvogcfi93g2,3io1lgzlkda9g67vw8e6zy7poip68i,rOcDOGnL,2020-0188,2020-06-04,12:33:37,12:54:55,NA,NA,instruction example,color,NA,NA,NA,C_M_06.jpg,A_M_09.jpg,C_F_05.jpg,NA,NA,NA,NA,NA,NA,NA,NA,NA,NA,NA,undefined
rOcDOGnL,31mcue39cnznpis152nuvogcfi93g2,3io1lgzlkda9g67vw8e6zy7poip68i,rOcDOGnL,2020-0188,2020-06-04,12:33:37,12:54:55,NA,NA,instruction example,color,NA,NA,NA,A_F_16.jpg,A_M_02.jpg,C_F_12.jpg,NA,NA,NA,NA,NA,NA,NA,NA,NA,NA,NA,undefined
rOcDOGnL,31mcue39cnznpis152nuvogcfi93g2,3io1lgzlkda9g67vw8e6zy7poip68i,rOcDOGnL,2020-0188,2020-06-04,12:33:37,12:54:55,1240717,1279025,NA,NA,NA,NA,NA,NA,NA,NA,NA,NA,NA,NA,36,White/Caucasian,Female,American,no,no,no,undefined
