workerId,hitId,assignmentId,subject,studyid,exp_date,exp_start,exp_end,time_start,time_end,trial,type,sequence,reward_validity,answer,image_top,image_left,image_right,response,response_time,response_acc,volatility,age,race,gender,ethnicity,color,vision,neuro,practice
dQTbqUVm,39tx062qy41yb4nrucnyjag7oeq3xx,3ixeico796wseqzjz6p1qu3dy9t6tg,dQTbqUVm,2020-0188,2020-11-17,09:56:45,10:16:22,NA,incomplete,0,filling,0,1,right,Blue_Star_Chess_3.jpg,Purple_Star_Grid_4.jpg,Green_Plus_Chess_1.jpg,none,0,false,NA,NA,NA,NA,NA,NA,NA,NA,true
dQTbqUVm,39tx062qy41yb4nrucnyjag7oeq3xx,3ixeico796wseqzjz6p1qu3dy9t6tg,dQTbqUVm,2020-0188,2020-11-17,09:56:45,10:16:22,NA,incomplete,1,filling,0,1,right,Green_Circle_Stripes_1.jpg,Blue_Circle_Dots_2.jpg,Purple_Plus_Stripes_4.jpg,right,1572.2049999749288,true,NA,NA,NA,NA,NA,NA,NA,NA,true
dQTbqUVm,39tx062qy41yb4nrucnyjag7oeq3xx,3ixeico796wseqzjz6p1qu3dy9t6tg,dQTbqUVm,2020-0188,2020-11-17,09:56:45,10:16:22,NA,incomplete,2,filling,0,1,left,Red_Circle_Stripes_4.jpg,Blue_Plus_Stripes_1.jpg,Purple_Circle_Grid_2.jpg,left,1862.7250000135973,true,NA,NA,NA,NA,NA,NA,NA,NA,true
dQTbqUVm,39tx062qy41yb4nrucnyjag7oeq3xx,3ixeico796wseqzjz6p1qu3dy9t6tg,dQTbqUVm,2020-0188,2020-11-17,09:56:45,10:16:22,NA,incomplete,3,filling,0,1,left,Green_Circle_Dots_3.jpg,Blue_Plus_Dots_1.jpg,Purple_Circle_Stripes_2.jpg,left,1332.750000001397,true,NA,NA,NA,NA,NA,NA,NA,NA,true
dQTbqUVm,39tx062qy41yb4nrucnyjag7oeq3xx,3ixeico796wseqzjz6p1qu3dy9t6tg,dQTbqUVm,2020-0188,2020-11-17,09:56:45,10:16:22,NA,incomplete,4,filling,0,1,right,Blue_Circle_Dots_3.jpg,Green_Circle_Grid_4.jpg,Red_Plus_Dots_1.jpg,right,1098.4849999658763,true,NA,NA,NA,NA,NA,NA,NA,NA,true
dQTbqUVm,39tx062qy41yb4nrucnyjag7oeq3xx,3ixeico796wseqzjz6p1qu3dy9t6tg,dQTbqUVm,2020-0188,2020-11-17,09:56:45,10:16:22,NA,incomplete,5,filling,0,0,right,Green_Circle_Grid_4.jpg,Purple_Circle_Chess_3.jpg,Red_Triangle_Grid_1.jpg,right,1813.605000032112,true,NA,NA,NA,NA,NA,NA,NA,NA,true
dQTbqUVm,39tx062qy41yb4nrucnyjag7oeq3xx,3ixeico796wseqzjz6p1qu3dy9t6tg,dQTbqUVm,2020-0188,2020-11-17,09:56:45,10:16:22,NA,incomplete,6,filling,0,1,left,Red_Circle_Chess_3.jpg,Blue_Triangle_Chess_1.jpg,Purple_Circle_Stripes_4.jpg,left,1677.0699999760836,true,NA,NA,NA,NA,NA,NA,NA,NA,true
dQTbqUVm,39tx062qy41yb4nrucnyjag7oeq3xx,3ixeico796wseqzjz6p1qu3dy9t6tg,dQTbqUVm,2020-0188,2020-11-17,09:56:45,10:16:22,NA,incomplete,7,filling,0,1,left,Purple_Triangle_Stripes_3.jpg,Red_Plus_Stripes_4.jpg,Blue_Triangle_Grid_1.jpg,left,1765.0049999938346,true,NA,NA,NA,NA,NA,NA,NA,NA,true
dQTbqUVm,39tx062qy41yb4nrucnyjag7oeq3xx,3ixeico796wseqzjz6p1qu3dy9t6tg,dQTbqUVm,2020-0188,2020-11-17,09:56:45,10:16:22,NA,incomplete,8,filling,0,1,right,Green_Triangle_Stripes_3.jpg,Purple_Triangle_Chess_4.jpg,Blue_Circle_Stripes_2.jpg,right,1555.7300000218675,true,NA,NA,NA,NA,NA,NA,NA,NA,true
dQTbqUVm,39tx062qy41yb4nrucnyjag7oeq3xx,3ixeico796wseqzjz6p1qu3dy9t6tg,dQTbqUVm,2020-0188,2020-11-17,09:56:45,10:16:22,NA,incomplete,9,filling,0,1,left,Blue_Star_Chess_1.jpg,Green_Plus_Chess_4.jpg,Red_Star_Stripes_3.jpg,left,1294.419999991078,true,NA,NA,NA,NA,NA,NA,NA,NA,true
dQTbqUVm,39tx062qy41yb4nrucnyjag7oeq3xx,3ixeico796wseqzjz6p1qu3dy9t6tg,dQTbqUVm,2020-0188,2020-11-17,09:56:45,10:16:22,NA,incomplete,10,filling,0,0,left,Green_Triangle_Chess_2.jpg,Red_Plus_Chess_3.jpg,Blue_Triangle_Dots_4.jpg,left,1127.2849999950267,true,NA,NA,NA,NA,NA,NA,NA,NA,true
dQTbqUVm,39tx062qy41yb4nrucnyjag7oeq3xx,3ixeico796wseqzjz6p1qu3dy9t6tg,dQTbqUVm,2020-0188,2020-11-17,09:56:45,10:16:22,NA,incomplete,11,filling,0,1,right,Purple_Circle_Chess_4.jpg,Green_Circle_Dots_2.jpg,Red_Triangle_Chess_3.jpg,right,1374.0649999817833,true,NA,NA,NA,NA,NA,NA,NA,NA,true
dQTbqUVm,39tx062qy41yb4nrucnyjag7oeq3xx,3ixeico796wseqzjz6p1qu3dy9t6tg,dQTbqUVm,2020-0188,2020-11-17,09:56:45,10:16:22,NA,incomplete,12,filling,0,1,left,Green_Circle_Grid_1.jpg,Red_Triangle_Grid_4.jpg,Blue_Circle_Dots_2.jpg,left,1214.2649999586865,true,NA,NA,NA,NA,NA,NA,NA,NA,true
dQTbqUVm,39tx062qy41yb4nrucnyjag7oeq3xx,3ixeico796wseqzjz6p1qu3dy9t6tg,dQTbqUVm,2020-0188,2020-11-17,09:56:45,10:16:22,NA,incomplete,13,filling,0,1,left,Green_Triangle_Dots_4.jpg,Blue_Plus_Dots_2.jpg,Red_Triangle_Chess_3.jpg,left,1256.8650000030175,true,NA,NA,NA,NA,NA,NA,NA,NA,true
dQTbqUVm,39tx062qy41yb4nrucnyjag7oeq3xx,3ixeico796wseqzjz6p1qu3dy9t6tg,dQTbqUVm,2020-0188,2020-11-17,09:56:45,10:16:22,NA,incomplete,14,filling,0,1,left,Blue_Triangle_Chess_2.jpg,Green_Star_Chess_1.jpg,Purple_Triangle_Dots_4.jpg,left,1670.7250000326894,true,NA,NA,NA,NA,NA,NA,NA,NA,true
dQTbqUVm,39tx062qy41yb4nrucnyjag7oeq3xx,3ixeico796wseqzjz6p1qu3dy9t6tg,dQTbqUVm,2020-0188,2020-11-17,09:56:45,10:16:22,NA,incomplete,15,filling,0,0,left,Red_Plus_Grid_4.jpg,Blue_Star_Grid_1.jpg,Green_Plus_Chess_2.jpg,left,1895.0949999853037,true,NA,NA,NA,NA,NA,NA,NA,NA,true
dQTbqUVm,39tx062qy41yb4nrucnyjag7oeq3xx,3ixeico796wseqzjz6p1qu3dy9t6tg,dQTbqUVm,2020-0188,2020-11-17,09:56:45,10:16:22,NA,incomplete,16,filling,0,1,left,Green_Circle_Dots_3.jpg,Red_Star_Dots_1.jpg,Purple_Circle_Grid_2.jpg,left,1399.7700000181794,true,NA,NA,NA,NA,NA,NA,NA,NA,true
dQTbqUVm,39tx062qy41yb4nrucnyjag7oeq3xx,3ixeico796wseqzjz6p1qu3dy9t6tg,dQTbqUVm,2020-0188,2020-11-17,09:56:45,10:16:22,NA,incomplete,17,filling,0,1,right,Purple_Plus_Dots_3.jpg,Blue_Plus_Chess_1.jpg,Red_Circle_Dots_2.jpg,right,1924.1549999569543,true,NA,NA,NA,NA,NA,NA,NA,NA,true
dQTbqUVm,39tx062qy41yb4nrucnyjag7oeq3xx,3ixeico796wseqzjz6p1qu3dy9t6tg,dQTbqUVm,2020-0188,2020-11-17,09:56:45,10:16:22,NA,incomplete,18,filling,0,1,left,Green_Star_Stripes_3.jpg,Blue_Triangle_Stripes_1.jpg,Red_Star_Grid_2.jpg,left,1504.720000026282,true,NA,NA,NA,NA,NA,NA,NA,NA,true
dQTbqUVm,39tx062qy41yb4nrucnyjag7oeq3xx,3ixeico796wseqzjz6p1qu3dy9t6tg,dQTbqUVm,2020-0188,2020-11-17,09:56:45,10:16:22,NA,incomplete,19,filling,0,0,right,Blue_Plus_Grid_2.jpg,Red_Plus_Dots_4.jpg,Green_Triangle_Grid_1.jpg,right,1540.4799999669194,true,NA,NA,NA,NA,NA,NA,NA,NA,true
dQTbqUVm,39tx062qy41yb4nrucnyjag7oeq3xx,3ixeico796wseqzjz6p1qu3dy9t6tg,dQTbqUVm,2020-0188,2020-11-17,09:56:45,10:16:22,NA,incomplete,20,shape,1,1,right,Green_Star_Chess_3.jpg,Red_Circle_Chess_2.jpg,Purple_Star_Grid_1.jpg,right,1527.6300000259653,true,NA,NA,NA,NA,NA,NA,NA,NA,true
dQTbqUVm,39tx062qy41yb4nrucnyjag7oeq3xx,3ixeico796wseqzjz6p1qu3dy9t6tg,dQTbqUVm,2020-0188,2020-11-17,09:56:45,10:16:22,NA,incomplete,21,shape,1,0,left,Red_Circle_Dots_4.jpg,Blue_Circle_Grid_3.jpg,Green_Plus_Dots_1.jpg,left,1117.2099999967031,true,NA,NA,NA,NA,NA,NA,NA,NA,true
dQTbqUVm,39tx062qy41yb4nrucnyjag7oeq3xx,3ixeico796wseqzjz6p1qu3dy9t6tg,dQTbqUVm,2020-0188,2020-11-17,09:56:45,10:16:22,NA,incomplete,22,shape,1,0,right,Blue_Circle_Dots_2.jpg,Purple_Plus_Dots_1.jpg,Green_Circle_Chess_3.jpg,right,1758.7349999812432,true,NA,NA,NA,NA,NA,NA,NA,NA,true
dQTbqUVm,39tx062qy41yb4nrucnyjag7oeq3xx,3ixeico796wseqzjz6p1qu3dy9t6tg,dQTbqUVm,2020-0188,2020-11-17,09:56:45,10:16:22,NA,incomplete,23,shape,1,1,left,Purple_Plus_Chess_2.jpg,Blue_Plus_Grid_3.jpg,Red_Triangle_Chess_1.jpg,left,1060.799999977462,true,NA,NA,NA,NA,NA,NA,NA,NA,true
dQTbqUVm,39tx062qy41yb4nrucnyjag7oeq3xx,3ixeico796wseqzjz6p1qu3dy9t6tg,dQTbqUVm,2020-0188,2020-11-17,09:56:45,10:16:22,NA,incomplete,24,shape,1,0,right,Purple_Triangle_Stripes_4.jpg,Green_Star_Stripes_2.jpg,Red_Triangle_Grid_3.jpg,right,1460.6350000249222,true,NA,NA,NA,NA,NA,NA,NA,NA,true
dQTbqUVm,39tx062qy41yb4nrucnyjag7oeq3xx,3ixeico796wseqzjz6p1qu3dy9t6tg,dQTbqUVm,2020-0188,2020-11-17,09:56:45,10:16:22,NA,incomplete,25,shape,1,1,right,Blue_Star_Grid_1.jpg,Purple_Plus_Grid_2.jpg,Red_Star_Stripes_3.jpg,right,1562.4149999930523,true,NA,NA,NA,NA,NA,NA,NA,NA,true
dQTbqUVm,39tx062qy41yb4nrucnyjag7oeq3xx,3ixeico796wseqzjz6p1qu3dy9t6tg,dQTbqUVm,2020-0188,2020-11-17,09:56:45,10:16:22,NA,incomplete,26,shape,1,0,left,Green_Circle_Dots_4.jpg,Purple_Circle_Chess_1.jpg,Red_Star_Dots_3.jpg,left,1293.0150000029244,true,NA,NA,NA,NA,NA,NA,NA,NA,true
dQTbqUVm,39tx062qy41yb4nrucnyjag7oeq3xx,3ixeico796wseqzjz6p1qu3dy9t6tg,dQTbqUVm,2020-0188,2020-11-17,09:56:45,10:16:22,NA,incomplete,27,shape,1,1,left,Purple_Triangle_Stripes_4.jpg,Red_Triangle_Dots_1.jpg,Green_Star_Stripes_3.jpg,left,1323.4050000319257,true,NA,NA,NA,NA,NA,NA,NA,NA,true
dQTbqUVm,39tx062qy41yb4nrucnyjag7oeq3xx,3ixeico796wseqzjz6p1qu3dy9t6tg,dQTbqUVm,2020-0188,2020-11-17,09:56:45,10:16:22,NA,incomplete,28,shape,1,1,right,Red_Star_Chess_3.jpg,Purple_Circle_Chess_1.jpg,Green_Star_Dots_2.jpg,right,1259.3999999808148,true,NA,NA,NA,NA,NA,NA,NA,NA,true
dQTbqUVm,39tx062qy41yb4nrucnyjag7oeq3xx,3ixeico796wseqzjz6p1qu3dy9t6tg,dQTbqUVm,2020-0188,2020-11-17,09:56:45,10:16:22,NA,incomplete,29,shape,1,1,right,Green_Plus_Chess_4.jpg,Blue_Triangle_Chess_1.jpg,Purple_Plus_Stripes_3.jpg,right,1277.379999984987,true,NA,NA,NA,NA,NA,NA,NA,NA,true
dQTbqUVm,39tx062qy41yb4nrucnyjag7oeq3xx,3ixeico796wseqzjz6p1qu3dy9t6tg,dQTbqUVm,2020-0188,2020-11-17,09:56:45,10:16:22,NA,incomplete,30,shape,1,1,left,Blue_Plus_Dots_4.jpg,Green_Plus_Chess_2.jpg,Purple_Circle_Dots_3.jpg,left,1038.0199999781325,true,NA,NA,NA,NA,NA,NA,NA,NA,true
dQTbqUVm,39tx062qy41yb4nrucnyjag7oeq3xx,3ixeico796wseqzjz6p1qu3dy9t6tg,dQTbqUVm,2020-0188,2020-11-17,09:56:45,10:16:22,NA,incomplete,31,shape,1,1,left,Purple_Plus_Grid_4.jpg,Blue_Plus_Stripes_1.jpg,Green_Circle_Grid_2.jpg,left,1034.2949999612756,true,NA,NA,NA,NA,NA,NA,NA,NA,true
dQTbqUVm,39tx062qy41yb4nrucnyjag7oeq3xx,3ixeico796wseqzjz6p1qu3dy9t6tg,dQTbqUVm,2020-0188,2020-11-17,09:56:45,10:16:22,NA,incomplete,32,shape,1,1,right,Blue_Triangle_Stripes_1.jpg,Purple_Star_Stripes_3.jpg,Green_Triangle_Dots_4.jpg,right,876.4849999570288,true,NA,NA,NA,NA,NA,NA,NA,NA,true
dQTbqUVm,39tx062qy41yb4nrucnyjag7oeq3xx,3ixeico796wseqzjz6p1qu3dy9t6tg,dQTbqUVm,2020-0188,2020-11-17,09:56:45,10:16:22,NA,incomplete,33,shape,1,1,left,Blue_Circle_Stripes_2.jpg,Green_Circle_Dots_4.jpg,Red_Triangle_Stripes_3.jpg,left,927.5950000155717,true,NA,NA,NA,NA,NA,NA,NA,NA,true
dQTbqUVm,39tx062qy41yb4nrucnyjag7oeq3xx,3ixeico796wseqzjz6p1qu3dy9t6tg,dQTbqUVm,2020-0188,2020-11-17,09:56:45,10:16:22,NA,incomplete,34,shape,1,1,left,Blue_Star_Stripes_3.jpg,Red_Star_Chess_4.jpg,Purple_Circle_Stripes_1.jpg,left,793.5149999684654,true,NA,NA,NA,NA,NA,NA,NA,NA,true
dQTbqUVm,39tx062qy41yb4nrucnyjag7oeq3xx,3ixeico796wseqzjz6p1qu3dy9t6tg,dQTbqUVm,2020-0188,2020-11-17,09:56:45,10:16:22,NA,incomplete,35,shape,1,1,right,Red_Plus_Chess_4.jpg,Green_Star_Chess_3.jpg,Blue_Plus_Dots_1.jpg,right,1013.0600000265986,true,NA,NA,NA,NA,NA,NA,NA,NA,true
dQTbqUVm,39tx062qy41yb4nrucnyjag7oeq3xx,3ixeico796wseqzjz6p1qu3dy9t6tg,dQTbqUVm,2020-0188,2020-11-17,09:56:45,10:16:22,NA,incomplete,36,shape,1,1,right,Green_Star_Chess_2.jpg,Blue_Plus_Chess_1.jpg,Red_Star_Stripes_4.jpg,right,944.3050000118092,true,NA,NA,NA,NA,NA,NA,NA,NA,true
dQTbqUVm,39tx062qy41yb4nrucnyjag7oeq3xx,3ixeico796wseqzjz6p1qu3dy9t6tg,dQTbqUVm,2020-0188,2020-11-17,09:56:45,10:16:22,NA,incomplete,37,shape,1,1,right,Purple_Plus_Grid_3.jpg,Red_Triangle_Grid_4.jpg,Green_Plus_Stripes_1.jpg,right,1217.1249999664724,true,NA,NA,NA,NA,NA,NA,NA,NA,true
dQTbqUVm,39tx062qy41yb4nrucnyjag7oeq3xx,3ixeico796wseqzjz6p1qu3dy9t6tg,dQTbqUVm,2020-0188,2020-11-17,09:56:45,10:16:22,NA,incomplete,38,shape,1,1,right,Red_Triangle_Grid_2.jpg,Green_Star_Grid_1.jpg,Purple_Triangle_Stripes_4.jpg,right,1180.4099999717437,true,NA,NA,NA,NA,NA,NA,NA,NA,true
dQTbqUVm,39tx062qy41yb4nrucnyjag7oeq3xx,3ixeico796wseqzjz6p1qu3dy9t6tg,dQTbqUVm,2020-0188,2020-11-17,09:56:45,10:16:22,NA,incomplete,39,shape,1,1,left,Purple_Star_Stripes_2.jpg,Green_Star_Chess_3.jpg,Blue_Triangle_Stripes_1.jpg,left,1023.0950000113808,true,NA,NA,NA,NA,NA,NA,NA,NA,true
dQTbqUVm,39tx062qy41yb4nrucnyjag7oeq3xx,3ixeico796wseqzjz6p1qu3dy9t6tg,dQTbqUVm,2020-0188,2020-11-17,09:56:45,10:16:22,NA,incomplete,0,filling,0,0,left,Green_Triangle_Dots_2.jpg,Blue_Circle_Dots_4.jpg,Red_Triangle_Grid_1.jpg,left,1297.4800000083633,true,low,NA,NA,NA,NA,NA,NA,NA,false
dQTbqUVm,39tx062qy41yb4nrucnyjag7oeq3xx,3ixeico796wseqzjz6p1qu3dy9t6tg,dQTbqUVm,2020-0188,2020-11-17,09:56:45,10:16:22,NA,incomplete,1,filling,0,1,right,Red_Plus_Dots_2.jpg,Green_Plus_Chess_4.jpg,Blue_Circle_Dots_3.jpg,left,893.7149999546818,false,low,NA,NA,NA,NA,NA,NA,NA,false
dQTbqUVm,39tx062qy41yb4nrucnyjag7oeq3xx,3ixeico796wseqzjz6p1qu3dy9t6tg,dQTbqUVm,2020-0188,2020-11-17,09:56:45,10:16:22,NA,incomplete,2,filling,0,1,right,Purple_Star_Stripes_2.jpg,Red_Star_Chess_3.jpg,Blue_Plus_Stripes_1.jpg,right,989.449999993667,true,low,NA,NA,NA,NA,NA,NA,NA,false
dQTbqUVm,39tx062qy41yb4nrucnyjag7oeq3xx,3ixeico796wseqzjz6p1qu3dy9t6tg,dQTbqUVm,2020-0188,2020-11-17,09:56:45,10:16:22,NA,incomplete,3,filling,0,0,right,Green_Circle_Chess_1.jpg,Purple_Circle_Stripes_2.jpg,Blue_Star_Chess_4.jpg,right,1057.7399999601766,true,low,NA,NA,NA,NA,NA,NA,NA,false
dQTbqUVm,39tx062qy41yb4nrucnyjag7oeq3xx,3ixeico796wseqzjz6p1qu3dy9t6tg,dQTbqUVm,2020-0188,2020-11-17,09:56:45,10:16:22,NA,incomplete,4,filling,0,1,left,Blue_Triangle_Stripes_4.jpg,Green_Circle_Stripes_1.jpg,Red_Triangle_Chess_3.jpg,left,1137.2950000222772,true,low,NA,NA,NA,NA,NA,NA,NA,false
dQTbqUVm,39tx062qy41yb4nrucnyjag7oeq3xx,3ixeico796wseqzjz6p1qu3dy9t6tg,dQTbqUVm,2020-0188,2020-11-17,09:56:45,10:16:22,NA,incomplete,5,filling,0,1,right,Blue_Star_Chess_2.jpg,Green_Star_Stripes_3.jpg,Red_Circle_Chess_4.jpg,right,1008.2999999867752,true,low,NA,NA,NA,NA,NA,NA,NA,false
dQTbqUVm,39tx062qy41yb4nrucnyjag7oeq3xx,3ixeico796wseqzjz6p1qu3dy9t6tg,dQTbqUVm,2020-0188,2020-11-17,09:56:45,10:16:22,NA,incomplete,6,filling,0,1,right,Blue_Star_Dots_1.jpg,Red_Star_Grid_2.jpg,Green_Triangle_Dots_3.jpg,right,1489.3400000291876,true,low,NA,NA,NA,NA,NA,NA,NA,false
dQTbqUVm,39tx062qy41yb4nrucnyjag7oeq3xx,3ixeico796wseqzjz6p1qu3dy9t6tg,dQTbqUVm,2020-0188,2020-11-17,09:56:45,10:16:22,NA,incomplete,7,filling,0,1,left,Purple_Circle_Stripes_4.jpg,Blue_Star_Stripes_2.jpg,Red_Circle_Grid_3.jpg,left,1137.1149999904446,true,low,NA,NA,NA,NA,NA,NA,NA,false
dQTbqUVm,39tx062qy41yb4nrucnyjag7oeq3xx,3ixeico796wseqzjz6p1qu3dy9t6tg,dQTbqUVm,2020-0188,2020-11-17,09:56:45,10:16:22,NA,incomplete,8,filling,0,1,left,Purple_Star_Dots_1.jpg,Blue_Plus_Dots_3.jpg,Red_Star_Chess_4.jpg,left,1196.6499999980442,true,low,NA,NA,NA,NA,NA,NA,NA,false
dQTbqUVm,39tx062qy41yb4nrucnyjag7oeq3xx,3ixeico796wseqzjz6p1qu3dy9t6tg,dQTbqUVm,2020-0188,2020-11-17,09:56:45,10:16:22,NA,incomplete,9,filling,0,1,left,Blue_Star_Stripes_2.jpg,Green_Circle_Stripes_4.jpg,Purple_Star_Chess_1.jpg,left,1055.5049999966286,true,low,NA,NA,NA,NA,NA,NA,NA,false
dQTbqUVm,39tx062qy41yb4nrucnyjag7oeq3xx,3ixeico796wseqzjz6p1qu3dy9t6tg,dQTbqUVm,2020-0188,2020-11-17,09:56:45,10:16:22,NA,incomplete,10,shape,1,1,left,Blue_Plus_Grid_3.jpg,Red_Plus_Stripes_1.jpg,Purple_Triangle_Grid_4.jpg,right,1146.0199999855831,false,low,NA,NA,NA,NA,NA,NA,NA,false
dQTbqUVm,39tx062qy41yb4nrucnyjag7oeq3xx,3ixeico796wseqzjz6p1qu3dy9t6tg,dQTbqUVm,2020-0188,2020-11-17,09:56:45,10:16:22,NA,incomplete,11,shape,1,1,left,Green_Plus_Dots_2.jpg,Red_Plus_Chess_4.jpg,Blue_Triangle_Dots_1.jpg,right,1327.8949999948964,false,low,NA,NA,NA,NA,NA,NA,NA,false
dQTbqUVm,39tx062qy41yb4nrucnyjag7oeq3xx,3ixeico796wseqzjz6p1qu3dy9t6tg,dQTbqUVm,2020-0188,2020-11-17,09:56:45,10:16:22,NA,incomplete,12,shape,1,1,right,Purple_Circle_Grid_1.jpg,Green_Plus_Grid_3.jpg,Red_Circle_Stripes_2.jpg,right,721.8700000084937,true,low,NA,NA,NA,NA,NA,NA,NA,false
dQTbqUVm,39tx062qy41yb4nrucnyjag7oeq3xx,3ixeico796wseqzjz6p1qu3dy9t6tg,dQTbqUVm,2020-0188,2020-11-17,09:56:45,10:16:22,NA,incomplete,13,shape,1,0,right,Green_Star_Chess_2.jpg,Blue_Plus_Chess_4.jpg,Red_Star_Dots_3.jpg,right,779.1650000144728,true,low,NA,NA,NA,NA,NA,NA,NA,false
dQTbqUVm,39tx062qy41yb4nrucnyjag7oeq3xx,3ixeico796wseqzjz6p1qu3dy9t6tg,dQTbqUVm,2020-0188,2020-11-17,09:56:45,10:16:22,NA,incomplete,14,shape,1,1,left,Blue_Plus_Grid_3.jpg,Red_Plus_Chess_4.jpg,Green_Triangle_Grid_2.jpg,left,833.4700000123121,true,low,NA,NA,NA,NA,NA,NA,NA,false
dQTbqUVm,39tx062qy41yb4nrucnyjag7oeq3xx,3ixeico796wseqzjz6p1qu3dy9t6tg,dQTbqUVm,2020-0188,2020-11-17,09:56:45,10:16:22,NA,incomplete,15,shape,1,1,right,Purple_Triangle_Dots_4.jpg,Green_Plus_Dots_2.jpg,Blue_Triangle_Chess_1.jpg,right,738.7699999962933,true,low,NA,NA,NA,NA,NA,NA,NA,false
dQTbqUVm,39tx062qy41yb4nrucnyjag7oeq3xx,3ixeico796wseqzjz6p1qu3dy9t6tg,dQTbqUVm,2020-0188,2020-11-17,09:56:45,10:16:22,NA,incomplete,16,shape,1,1,left,Blue_Plus_Chess_2.jpg,Purple_Plus_Stripes_4.jpg,Green_Circle_Chess_3.jpg,left,847.1000000135973,true,low,NA,NA,NA,NA,NA,NA,NA,false
dQTbqUVm,39tx062qy41yb4nrucnyjag7oeq3xx,3ixeico796wseqzjz6p1qu3dy9t6tg,dQTbqUVm,2020-0188,2020-11-17,09:56:45,10:16:22,NA,incomplete,17,shape,1,1,left,Blue_Plus_Dots_2.jpg,Purple_Plus_Stripes_3.jpg,Green_Star_Dots_1.jpg,left,805.7350000017323,true,low,NA,NA,NA,NA,NA,NA,NA,false
dQTbqUVm,39tx062qy41yb4nrucnyjag7oeq3xx,3ixeico796wseqzjz6p1qu3dy9t6tg,dQTbqUVm,2020-0188,2020-11-17,09:56:45,10:16:22,NA,incomplete,18,shape,1,0,left,Blue_Triangle_Chess_3.jpg,Green_Triangle_Dots_4.jpg,Purple_Plus_Chess_2.jpg,left,865.5600000056438,true,low,NA,NA,NA,NA,NA,NA,NA,false
dQTbqUVm,39tx062qy41yb4nrucnyjag7oeq3xx,3ixeico796wseqzjz6p1qu3dy9t6tg,dQTbqUVm,2020-0188,2020-11-17,09:56:45,10:16:22,NA,incomplete,19,shape,1,0,left,Purple_Circle_Chess_2.jpg,Red_Circle_Grid_1.jpg,Blue_Star_Chess_4.jpg,right,1346.8050000374205,false,low,NA,NA,NA,NA,NA,NA,NA,false
dQTbqUVm,39tx062qy41yb4nrucnyjag7oeq3xx,3ixeico796wseqzjz6p1qu3dy9t6tg,dQTbqUVm,2020-0188,2020-11-17,09:56:45,10:16:22,NA,incomplete,20,filling,0,1,left,Green_Plus_Grid_2.jpg,Purple_Triangle_Grid_3.jpg,Red_Plus_Chess_1.jpg,left,1006.0850000008941,true,low,NA,NA,NA,NA,NA,NA,NA,false
dQTbqUVm,39tx062qy41yb4nrucnyjag7oeq3xx,3ixeico796wseqzjz6p1qu3dy9t6tg,dQTbqUVm,2020-0188,2020-11-17,09:56:45,10:16:22,NA,incomplete,21,filling,0,1,right,Red_Circle_Dots_4.jpg,Purple_Circle_Stripes_3.jpg,Blue_Triangle_Dots_1.jpg,right,1106.3149999827147,true,low,NA,NA,NA,NA,NA,NA,NA,false
dQTbqUVm,39tx062qy41yb4nrucnyjag7oeq3xx,3ixeico796wseqzjz6p1qu3dy9t6tg,dQTbqUVm,2020-0188,2020-11-17,09:56:45,10:16:22,NA,incomplete,22,filling,0,1,right,Blue_Plus_Dots_2.jpg,Red_Plus_Chess_3.jpg,Green_Star_Dots_4.jpg,right,1396.729999978561,true,low,NA,NA,NA,NA,NA,NA,NA,false
dQTbqUVm,39tx062qy41yb4nrucnyjag7oeq3xx,3ixeico796wseqzjz6p1qu3dy9t6tg,dQTbqUVm,2020-0188,2020-11-17,09:56:45,10:16:22,NA,incomplete,23,filling,0,1,right,Red_Triangle_Grid_1.jpg,Blue_Triangle_Stripes_2.jpg,Purple_Star_Grid_4.jpg,right,1121.1849999963306,true,low,NA,NA,NA,NA,NA,NA,NA,false
dQTbqUVm,39tx062qy41yb4nrucnyjag7oeq3xx,3ixeico796wseqzjz6p1qu3dy9t6tg,dQTbqUVm,2020-0188,2020-11-17,09:56:45,10:16:22,NA,incomplete,24,filling,0,1,left,Green_Triangle_Dots_1.jpg,Purple_Star_Dots_4.jpg,Blue_Triangle_Grid_3.jpg,left,1193.520000029821,true,low,NA,NA,NA,NA,NA,NA,NA,false
dQTbqUVm,39tx062qy41yb4nrucnyjag7oeq3xx,3ixeico796wseqzjz6p1qu3dy9t6tg,dQTbqUVm,2020-0188,2020-11-17,09:56:45,10:16:22,NA,incomplete,25,filling,0,0,right,Purple_Plus_Dots_4.jpg,Blue_Plus_Grid_2.jpg,Red_Triangle_Dots_1.jpg,right,1143.335000029765,true,low,NA,NA,NA,NA,NA,NA,NA,false
dQTbqUVm,39tx062qy41yb4nrucnyjag7oeq3xx,3ixeico796wseqzjz6p1qu3dy9t6tg,dQTbqUVm,2020-0188,2020-11-17,09:56:45,10:16:22,NA,incomplete,26,filling,0,1,left,Blue_Plus_Grid_3.jpg,Red_Triangle_Grid_2.jpg,Green_Plus_Dots_1.jpg,right,829.7599999932572,false,low,NA,NA,NA,NA,NA,NA,NA,false
dQTbqUVm,39tx062qy41yb4nrucnyjag7oeq3xx,3ixeico796wseqzjz6p1qu3dy9t6tg,dQTbqUVm,2020-0188,2020-11-17,09:56:45,10:16:22,NA,incomplete,27,filling,0,1,right,Purple_Circle_Chess_3.jpg,Green_Circle_Stripes_4.jpg,Blue_Triangle_Chess_1.jpg,left,938.5250000050291,false,low,NA,NA,NA,NA,NA,NA,NA,false
dQTbqUVm,39tx062qy41yb4nrucnyjag7oeq3xx,3ixeico796wseqzjz6p1qu3dy9t6tg,dQTbqUVm,2020-0188,2020-11-17,09:56:45,10:16:22,NA,incomplete,28,filling,0,1,left,Red_Circle_Grid_4.jpg,Green_Plus_Grid_3.jpg,Purple_Circle_Chess_2.jpg,left,1220.575000043027,true,low,NA,NA,NA,NA,NA,NA,NA,false
dQTbqUVm,39tx062qy41yb4nrucnyjag7oeq3xx,3ixeico796wseqzjz6p1qu3dy9t6tg,dQTbqUVm,2020-0188,2020-11-17,09:56:45,10:16:22,NA,incomplete,29,filling,0,0,left,Green_Star_Dots_1.jpg,Blue_Triangle_Dots_3.jpg,Purple_Star_Chess_4.jpg,left,1299.5750000118278,true,low,NA,NA,NA,NA,NA,NA,NA,false
dQTbqUVm,39tx062qy41yb4nrucnyjag7oeq3xx,3ixeico796wseqzjz6p1qu3dy9t6tg,dQTbqUVm,2020-0188,2020-11-17,09:56:45,10:16:22,NA,incomplete,30,shape,1,1,right,Green_Circle_Stripes_1.jpg,Purple_Plus_Stripes_2.jpg,Red_Circle_Chess_3.jpg,left,1075.5999999819323,false,low,NA,NA,NA,NA,NA,NA,NA,false
dQTbqUVm,39tx062qy41yb4nrucnyjag7oeq3xx,3ixeico796wseqzjz6p1qu3dy9t6tg,dQTbqUVm,2020-0188,2020-11-17,09:56:45,10:16:22,NA,incomplete,31,shape,1,1,right,Blue_Star_Stripes_2.jpg,Green_Circle_Stripes_3.jpg,Red_Star_Grid_4.jpg,right,704.5400000060908,true,low,NA,NA,NA,NA,NA,NA,NA,false
dQTbqUVm,39tx062qy41yb4nrucnyjag7oeq3xx,3ixeico796wseqzjz6p1qu3dy9t6tg,dQTbqUVm,2020-0188,2020-11-17,09:56:45,10:16:22,NA,incomplete,32,shape,1,1,right,Green_Circle_Stripes_3.jpg,Purple_Plus_Stripes_2.jpg,Blue_Circle_Grid_1.jpg,right,725.559999991674,true,low,NA,NA,NA,NA,NA,NA,NA,false
dQTbqUVm,39tx062qy41yb4nrucnyjag7oeq3xx,3ixeico796wseqzjz6p1qu3dy9t6tg,dQTbqUVm,2020-0188,2020-11-17,09:56:45,10:16:22,NA,incomplete,33,shape,1,1,right,Blue_Circle_Dots_4.jpg,Green_Plus_Dots_3.jpg,Purple_Circle_Chess_2.jpg,right,671.585000003688,true,low,NA,NA,NA,NA,NA,NA,NA,false
dQTbqUVm,39tx062qy41yb4nrucnyjag7oeq3xx,3ixeico796wseqzjz6p1qu3dy9t6tg,dQTbqUVm,2020-0188,2020-11-17,09:56:45,10:16:22,NA,incomplete,34,shape,1,1,left,Purple_Triangle_Chess_2.jpg,Green_Triangle_Grid_4.jpg,Blue_Circle_Chess_1.jpg,left,777.620000008028,true,low,NA,NA,NA,NA,NA,NA,NA,false
dQTbqUVm,39tx062qy41yb4nrucnyjag7oeq3xx,3ixeico796wseqzjz6p1qu3dy9t6tg,dQTbqUVm,2020-0188,2020-11-17,09:56:45,10:16:22,NA,incomplete,35,shape,1,1,left,Blue_Plus_Grid_3.jpg,Purple_Plus_Dots_2.jpg,Green_Circle_Grid_4.jpg,left,704.0649999980815,true,low,NA,NA,NA,NA,NA,NA,NA,false
dQTbqUVm,39tx062qy41yb4nrucnyjag7oeq3xx,3ixeico796wseqzjz6p1qu3dy9t6tg,dQTbqUVm,2020-0188,2020-11-17,09:56:45,10:16:22,NA,incomplete,36,shape,1,1,right,Purple_Triangle_Dots_4.jpg,Blue_Plus_Dots_2.jpg,Red_Triangle_Grid_1.jpg,right,691.6999999666587,true,low,NA,NA,NA,NA,NA,NA,NA,false
dQTbqUVm,39tx062qy41yb4nrucnyjag7oeq3xx,3ixeico796wseqzjz6p1qu3dy9t6tg,dQTbqUVm,2020-0188,2020-11-17,09:56:45,10:16:22,NA,incomplete,37,shape,1,0,left,Blue_Plus_Stripes_2.jpg,Purple_Plus_Dots_3.jpg,Red_Circle_Stripes_1.jpg,left,697.5749999983236,true,low,NA,NA,NA,NA,NA,NA,NA,false
dQTbqUVm,39tx062qy41yb4nrucnyjag7oeq3xx,3ixeico796wseqzjz6p1qu3dy9t6tg,dQTbqUVm,2020-0188,2020-11-17,09:56:45,10:16:22,NA,incomplete,38,shape,1,1,left,Red_Star_Dots_2.jpg,Purple_Star_Chess_3.jpg,Blue_Plus_Dots_4.jpg,right,1230.6899999966845,false,low,NA,NA,NA,NA,NA,NA,NA,false
dQTbqUVm,39tx062qy41yb4nrucnyjag7oeq3xx,3ixeico796wseqzjz6p1qu3dy9t6tg,dQTbqUVm,2020-0188,2020-11-17,09:56:45,10:16:22,NA,incomplete,39,shape,1,1,right,Purple_Star_Stripes_2.jpg,Red_Circle_Stripes_1.jpg,Blue_Star_Chess_3.jpg,right,808.6100000073202,true,low,NA,NA,NA,NA,NA,NA,NA,false
dQTbqUVm,39tx062qy41yb4nrucnyjag7oeq3xx,3ixeico796wseqzjz6p1qu3dy9t6tg,dQTbqUVm,2020-0188,2020-11-17,09:56:45,10:16:22,NA,incomplete,40,filling,0,0,right,Purple_Triangle_Stripes_3.jpg,Blue_Triangle_Dots_1.jpg,Red_Star_Stripes_2.jpg,left,876.9650000031106,false,low,NA,NA,NA,NA,NA,NA,NA,false
dQTbqUVm,39tx062qy41yb4nrucnyjag7oeq3xx,3ixeico796wseqzjz6p1qu3dy9t6tg,dQTbqUVm,2020-0188,2020-11-17,09:56:45,10:16:22,NA,incomplete,41,filling,0,0,right,Blue_Star_Chess_1.jpg,Purple_Star_Grid_4.jpg,Red_Triangle_Chess_2.jpg,left,845.6899999873713,false,low,NA,NA,NA,NA,NA,NA,NA,false
dQTbqUVm,39tx062qy41yb4nrucnyjag7oeq3xx,3ixeico796wseqzjz6p1qu3dy9t6tg,dQTbqUVm,2020-0188,2020-11-17,09:56:45,10:16:22,NA,incomplete,42,filling,0,0,right,Red_Triangle_Stripes_1.jpg,Blue_Triangle_Grid_4.jpg,Green_Circle_Stripes_2.jpg,left,870.4900000011548,false,low,NA,NA,NA,NA,NA,NA,NA,false
dQTbqUVm,39tx062qy41yb4nrucnyjag7oeq3xx,3ixeico796wseqzjz6p1qu3dy9t6tg,dQTbqUVm,2020-0188,2020-11-17,09:56:45,10:16:22,NA,incomplete,43,filling,0,1,left,Green_Plus_Chess_1.jpg,Red_Triangle_Chess_2.jpg,Blue_Plus_Stripes_4.jpg,right,961.9500000262633,false,low,NA,NA,NA,NA,NA,NA,NA,false
dQTbqUVm,39tx062qy41yb4nrucnyjag7oeq3xx,3ixeico796wseqzjz6p1qu3dy9t6tg,dQTbqUVm,2020-0188,2020-11-17,09:56:45,10:16:22,NA,incomplete,44,filling,0,1,left,Green_Star_Grid_3.jpg,Purple_Circle_Grid_4.jpg,Blue_Star_Stripes_1.jpg,left,1031.3899999600835,true,low,NA,NA,NA,NA,NA,NA,NA,false
dQTbqUVm,39tx062qy41yb4nrucnyjag7oeq3xx,3ixeico796wseqzjz6p1qu3dy9t6tg,dQTbqUVm,2020-0188,2020-11-17,09:56:45,10:16:22,NA,incomplete,45,filling,0,1,left,Purple_Circle_Grid_1.jpg,Red_Star_Grid_2.jpg,Blue_Circle_Chess_4.jpg,left,1109.9249999970198,true,low,NA,NA,NA,NA,NA,NA,NA,false
dQTbqUVm,39tx062qy41yb4nrucnyjag7oeq3xx,3ixeico796wseqzjz6p1qu3dy9t6tg,dQTbqUVm,2020-0188,2020-11-17,09:56:45,10:16:22,NA,incomplete,46,filling,0,1,right,Green_Circle_Dots_2.jpg,Blue_Circle_Stripes_1.jpg,Red_Triangle_Dots_3.jpg,right,1205.919999978505,true,low,NA,NA,NA,NA,NA,NA,NA,false
dQTbqUVm,39tx062qy41yb4nrucnyjag7oeq3xx,3ixeico796wseqzjz6p1qu3dy9t6tg,dQTbqUVm,2020-0188,2020-11-17,09:56:45,10:16:22,NA,incomplete,47,filling,0,1,left,Red_Circle_Dots_3.jpg,Green_Plus_Dots_1.jpg,Blue_Circle_Stripes_4.jpg,left,1531.6950000124052,true,low,NA,NA,NA,NA,NA,NA,NA,false
dQTbqUVm,39tx062qy41yb4nrucnyjag7oeq3xx,3ixeico796wseqzjz6p1qu3dy9t6tg,dQTbqUVm,2020-0188,2020-11-17,09:56:45,10:16:22,NA,incomplete,48,filling,0,0,right,Green_Circle_Grid_3.jpg,Red_Circle_Chess_1.jpg,Purple_Triangle_Grid_4.jpg,right,1132.3949999641627,true,low,NA,NA,NA,NA,NA,NA,NA,false
dQTbqUVm,39tx062qy41yb4nrucnyjag7oeq3xx,3ixeico796wseqzjz6p1qu3dy9t6tg,dQTbqUVm,2020-0188,2020-11-17,09:56:45,10:16:22,NA,incomplete,49,filling,0,1,right,Green_Triangle_Chess_4.jpg,Purple_Triangle_Dots_1.jpg,Blue_Circle_Chess_2.jpg,right,1046.15000000922,true,low,NA,NA,NA,NA,NA,NA,NA,false
dQTbqUVm,39tx062qy41yb4nrucnyjag7oeq3xx,3ixeico796wseqzjz6p1qu3dy9t6tg,dQTbqUVm,2020-0188,2020-11-17,09:56:45,10:16:22,NA,incomplete,50,shape,1,1,right,Blue_Plus_Stripes_4.jpg,Purple_Star_Stripes_2.jpg,Green_Plus_Chess_1.jpg,left,1066.0849999985658,false,low,NA,NA,NA,NA,NA,NA,NA,false
dQTbqUVm,39tx062qy41yb4nrucnyjag7oeq3xx,3ixeico796wseqzjz6p1qu3dy9t6tg,dQTbqUVm,2020-0188,2020-11-17,09:56:45,10:16:22,NA,incomplete,51,shape,1,0,left,Green_Star_Stripes_3.jpg,Blue_Star_Dots_4.jpg,Purple_Plus_Stripes_1.jpg,left,846.8449999927543,true,low,NA,NA,NA,NA,NA,NA,NA,false
dQTbqUVm,39tx062qy41yb4nrucnyjag7oeq3xx,3ixeico796wseqzjz6p1qu3dy9t6tg,dQTbqUVm,2020-0188,2020-11-17,09:56:45,10:16:22,NA,incomplete,52,shape,1,1,left,Blue_Triangle_Chess_3.jpg,Green_Triangle_Stripes_4.jpg,Red_Circle_Chess_1.jpg,right,1014.2650000052527,false,low,NA,NA,NA,NA,NA,NA,NA,false
dQTbqUVm,39tx062qy41yb4nrucnyjag7oeq3xx,3ixeico796wseqzjz6p1qu3dy9t6tg,dQTbqUVm,2020-0188,2020-11-17,09:56:45,10:16:22,NA,incomplete,53,shape,1,0,left,Blue_Circle_Chess_3.jpg,Green_Circle_Stripes_4.jpg,Purple_Triangle_Chess_1.jpg,left,676.099999982398,true,low,NA,NA,NA,NA,NA,NA,NA,false
dQTbqUVm,39tx062qy41yb4nrucnyjag7oeq3xx,3ixeico796wseqzjz6p1qu3dy9t6tg,dQTbqUVm,2020-0188,2020-11-17,09:56:45,10:16:22,NA,incomplete,54,shape,1,1,left,Purple_Star_Grid_1.jpg,Green_Star_Dots_2.jpg,Red_Plus_Grid_4.jpg,right,1002.3049999726936,false,low,NA,NA,NA,NA,NA,NA,NA,false
dQTbqUVm,39tx062qy41yb4nrucnyjag7oeq3xx,3ixeico796wseqzjz6p1qu3dy9t6tg,dQTbqUVm,2020-0188,2020-11-17,09:56:45,10:16:22,NA,incomplete,55,shape,1,1,left,Blue_Plus_Chess_4.jpg,Purple_Plus_Grid_2.jpg,Green_Triangle_Chess_3.jpg,right,1189.9949999642558,false,low,NA,NA,NA,NA,NA,NA,NA,false
dQTbqUVm,39tx062qy41yb4nrucnyjag7oeq3xx,3ixeico796wseqzjz6p1qu3dy9t6tg,dQTbqUVm,2020-0188,2020-11-17,09:56:45,10:16:22,NA,incomplete,56,shape,1,1,right,Purple_Star_Grid_2.jpg,Red_Circle_Grid_1.jpg,Green_Star_Dots_4.jpg,right,739.2099999706261,true,low,NA,NA,NA,NA,NA,NA,NA,false
dQTbqUVm,39tx062qy41yb4nrucnyjag7oeq3xx,3ixeico796wseqzjz6p1qu3dy9t6tg,dQTbqUVm,2020-0188,2020-11-17,09:56:45,10:16:22,NA,incomplete,57,shape,1,1,left,Red_Plus_Chess_3.jpg,Purple_Plus_Grid_1.jpg,Blue_Circle_Chess_2.jpg,left,830.2850000327453,true,low,NA,NA,NA,NA,NA,NA,NA,false
dQTbqUVm,39tx062qy41yb4nrucnyjag7oeq3xx,3ixeico796wseqzjz6p1qu3dy9t6tg,dQTbqUVm,2020-0188,2020-11-17,09:56:45,10:16:22,NA,incomplete,58,shape,1,1,left,Red_Triangle_Grid_4.jpg,Blue_Triangle_Dots_1.jpg,Purple_Circle_Grid_3.jpg,left,854.9250000505708,true,low,NA,NA,NA,NA,NA,NA,NA,false
dQTbqUVm,39tx062qy41yb4nrucnyjag7oeq3xx,3ixeico796wseqzjz6p1qu3dy9t6tg,dQTbqUVm,2020-0188,2020-11-17,09:56:45,10:16:22,NA,incomplete,59,shape,1,0,left,Green_Plus_Dots_3.jpg,Red_Plus_Chess_1.jpg,Purple_Triangle_Dots_2.jpg,left,967.6500000059605,true,low,NA,NA,NA,NA,NA,NA,NA,false
dQTbqUVm,39tx062qy41yb4nrucnyjag7oeq3xx,3ixeico796wseqzjz6p1qu3dy9t6tg,dQTbqUVm,2020-0188,2020-11-17,09:56:45,10:16:22,NA,incomplete,60,filling,0,1,right,Red_Plus_Dots_3.jpg,Blue_Plus_Grid_1.jpg,Purple_Star_Dots_2.jpg,left,784.1550000011921,false,low,NA,NA,NA,NA,NA,NA,NA,false
dQTbqUVm,39tx062qy41yb4nrucnyjag7oeq3xx,3ixeico796wseqzjz6p1qu3dy9t6tg,dQTbqUVm,2020-0188,2020-11-17,09:56:45,10:16:22,NA,incomplete,61,filling,0,1,left,Purple_Plus_Chess_4.jpg,Red_Star_Chess_2.jpg,Green_Plus_Dots_1.jpg,left,1023.0099999462254,true,low,NA,NA,NA,NA,NA,NA,NA,false
dQTbqUVm,39tx062qy41yb4nrucnyjag7oeq3xx,3ixeico796wseqzjz6p1qu3dy9t6tg,dQTbqUVm,2020-0188,2020-11-17,09:56:45,10:16:22,NA,incomplete,62,filling,0,1,left,Blue_Circle_Chess_2.jpg,Green_Triangle_Chess_3.jpg,Purple_Circle_Grid_4.jpg,left,1067.6550000207499,true,low,NA,NA,NA,NA,NA,NA,NA,false
dQTbqUVm,39tx062qy41yb4nrucnyjag7oeq3xx,3ixeico796wseqzjz6p1qu3dy9t6tg,dQTbqUVm,2020-0188,2020-11-17,09:56:45,10:16:22,NA,incomplete,63,filling,0,1,left,Purple_Plus_Grid_3.jpg,Red_Circle_Grid_1.jpg,Blue_Plus_Dots_4.jpg,left,1233.0399999627843,true,low,NA,NA,NA,NA,NA,NA,NA,false
dQTbqUVm,39tx062qy41yb4nrucnyjag7oeq3xx,3ixeico796wseqzjz6p1qu3dy9t6tg,dQTbqUVm,2020-0188,2020-11-17,09:56:45,10:16:22,NA,incomplete,64,filling,0,1,right,Blue_Circle_Grid_3.jpg,Green_Circle_Stripes_1.jpg,Purple_Plus_Grid_4.jpg,right,1159.1900000348687,true,low,NA,NA,NA,NA,NA,NA,NA,false
dQTbqUVm,39tx062qy41yb4nrucnyjag7oeq3xx,3ixeico796wseqzjz6p1qu3dy9t6tg,dQTbqUVm,2020-0188,2020-11-17,09:56:45,10:16:22,NA,incomplete,65,filling,0,1,left,Purple_Circle_Chess_2.jpg,Green_Star_Chess_4.jpg,Blue_Circle_Dots_3.jpg,left,885.2549999719486,true,low,NA,NA,NA,NA,NA,NA,NA,false
dQTbqUVm,39tx062qy41yb4nrucnyjag7oeq3xx,3ixeico796wseqzjz6p1qu3dy9t6tg,dQTbqUVm,2020-0188,2020-11-17,09:56:45,10:16:22,NA,incomplete,66,filling,0,1,right,Red_Star_Dots_4.jpg,Purple_Star_Grid_2.jpg,Blue_Plus_Dots_1.jpg,right,1234.8200000124052,true,low,NA,NA,NA,NA,NA,NA,NA,false
dQTbqUVm,39tx062qy41yb4nrucnyjag7oeq3xx,3ixeico796wseqzjz6p1qu3dy9t6tg,dQTbqUVm,2020-0188,2020-11-17,09:56:45,10:16:22,NA,incomplete,67,filling,0,1,left,Green_Plus_Stripes_2.jpg,Blue_Triangle_Stripes_1.jpg,Red_Plus_Dots_4.jpg,left,733.1949999788776,true,low,NA,NA,NA,NA,NA,NA,NA,false
dQTbqUVm,39tx062qy41yb4nrucnyjag7oeq3xx,3ixeico796wseqzjz6p1qu3dy9t6tg,dQTbqUVm,2020-0188,2020-11-17,09:56:45,10:16:22,NA,incomplete,68,filling,0,1,right,Red_Triangle_Chess_2.jpg,Blue_Triangle_Dots_4.jpg,Green_Circle_Chess_3.jpg,right,787.2900000074878,true,low,NA,NA,NA,NA,NA,NA,NA,false
dQTbqUVm,39tx062qy41yb4nrucnyjag7oeq3xx,3ixeico796wseqzjz6p1qu3dy9t6tg,dQTbqUVm,2020-0188,2020-11-17,09:56:45,10:16:22,NA,incomplete,69,filling,0,1,left,Green_Triangle_Chess_1.jpg,Red_Circle_Chess_3.jpg,Blue_Triangle_Grid_2.jpg,left,781.4099999959581,true,low,NA,NA,NA,NA,NA,NA,NA,false
dQTbqUVm,39tx062qy41yb4nrucnyjag7oeq3xx,3ixeico796wseqzjz6p1qu3dy9t6tg,dQTbqUVm,2020-0188,2020-11-17,09:56:45,10:16:22,NA,incomplete,70,shape,1,1,left,Purple_Star_Grid_2.jpg,Blue_Star_Chess_4.jpg,Green_Circle_Grid_3.jpg,right,924.6299999649636,false,low,NA,NA,NA,NA,NA,NA,NA,false
dQTbqUVm,39tx062qy41yb4nrucnyjag7oeq3xx,3ixeico796wseqzjz6p1qu3dy9t6tg,dQTbqUVm,2020-0188,2020-11-17,09:56:45,10:16:22,NA,incomplete,71,shape,1,0,left,Green_Circle_Dots_3.jpg,Red_Circle_Grid_2.jpg,Blue_Plus_Dots_4.jpg,left,754.3900000164285,true,low,NA,NA,NA,NA,NA,NA,NA,false
dQTbqUVm,39tx062qy41yb4nrucnyjag7oeq3xx,3ixeico796wseqzjz6p1qu3dy9t6tg,dQTbqUVm,2020-0188,2020-11-17,09:56:45,10:16:22,NA,incomplete,72,shape,1,1,left,Purple_Triangle_Chess_2.jpg,Green_Triangle_Stripes_3.jpg,Blue_Star_Chess_1.jpg,right,1398.6649999860674,false,low,NA,NA,NA,NA,NA,NA,NA,false
dQTbqUVm,39tx062qy41yb4nrucnyjag7oeq3xx,3ixeico796wseqzjz6p1qu3dy9t6tg,dQTbqUVm,2020-0188,2020-11-17,09:56:45,10:16:22,NA,incomplete,73,shape,1,0,left,Green_Triangle_Stripes_1.jpg,Red_Triangle_Dots_3.jpg,Purple_Star_Stripes_2.jpg,right,1030.8850000146776,false,low,NA,NA,NA,NA,NA,NA,NA,false
dQTbqUVm,39tx062qy41yb4nrucnyjag7oeq3xx,3ixeico796wseqzjz6p1qu3dy9t6tg,dQTbqUVm,2020-0188,2020-11-17,09:56:45,10:16:22,NA,incomplete,74,shape,1,1,right,Green_Triangle_Stripes_1.jpg,Red_Plus_Stripes_3.jpg,Blue_Triangle_Chess_2.jpg,left,1099.1100000101142,false,low,NA,NA,NA,NA,NA,NA,NA,false
dQTbqUVm,39tx062qy41yb4nrucnyjag7oeq3xx,3ixeico796wseqzjz6p1qu3dy9t6tg,dQTbqUVm,2020-0188,2020-11-17,09:56:45,10:16:22,NA,incomplete,75,shape,1,1,left,Green_Circle_Dots_2.jpg,Red_Circle_Grid_3.jpg,Purple_Triangle_Dots_1.jpg,right,1007.7799999853596,false,low,NA,NA,NA,NA,NA,NA,NA,false
dQTbqUVm,39tx062qy41yb4nrucnyjag7oeq3xx,3ixeico796wseqzjz6p1qu3dy9t6tg,dQTbqUVm,2020-0188,2020-11-17,09:56:45,10:16:22,NA,incomplete,76,shape,1,1,right,Red_Star_Stripes_3.jpg,Purple_Circle_Stripes_1.jpg,Green_Star_Grid_2.jpg,right,814.5450000301935,true,low,NA,NA,NA,NA,NA,NA,NA,false
dQTbqUVm,39tx062qy41yb4nrucnyjag7oeq3xx,3ixeico796wseqzjz6p1qu3dy9t6tg,dQTbqUVm,2020-0188,2020-11-17,09:56:45,10:16:22,NA,incomplete,77,shape,1,1,right,Green_Plus_Grid_2.jpg,Blue_Circle_Grid_4.jpg,Purple_Plus_Dots_1.jpg,right,830.130000016652,true,low,NA,NA,NA,NA,NA,NA,NA,false
dQTbqUVm,39tx062qy41yb4nrucnyjag7oeq3xx,3ixeico796wseqzjz6p1qu3dy9t6tg,dQTbqUVm,2020-0188,2020-11-17,09:56:45,10:16:22,NA,incomplete,78,shape,1,0,right,Purple_Star_Grid_1.jpg,Red_Triangle_Grid_2.jpg,Blue_Star_Stripes_4.jpg,right,723.0100000160746,true,low,NA,NA,NA,NA,NA,NA,NA,false
dQTbqUVm,39tx062qy41yb4nrucnyjag7oeq3xx,3ixeico796wseqzjz6p1qu3dy9t6tg,dQTbqUVm,2020-0188,2020-11-17,09:56:45,10:16:22,NA,incomplete,79,shape,1,1,right,Blue_Star_Stripes_4.jpg,Purple_Triangle_Stripes_2.jpg,Green_Star_Dots_3.jpg,left,1051.0699999867938,false,low,NA,NA,NA,NA,NA,NA,NA,false
dQTbqUVm,39tx062qy41yb4nrucnyjag7oeq3xx,3ixeico796wseqzjz6p1qu3dy9t6tg,dQTbqUVm,2020-0188,2020-11-17,09:56:45,10:16:22,NA,incomplete,80,filling,0,1,right,Blue_Star_Grid_2.jpg,Purple_Star_Chess_3.jpg,Green_Plus_Grid_1.jpg,left,711.8650000193156,false,low,NA,NA,NA,NA,NA,NA,NA,false
dQTbqUVm,39tx062qy41yb4nrucnyjag7oeq3xx,3ixeico796wseqzjz6p1qu3dy9t6tg,dQTbqUVm,2020-0188,2020-11-17,09:56:45,10:16:22,NA,incomplete,81,filling,0,1,right,Green_Plus_Stripes_3.jpg,Purple_Plus_Dots_1.jpg,Red_Star_Stripes_4.jpg,left,1190.7999999821186,false,low,NA,NA,NA,NA,NA,NA,NA,false
dQTbqUVm,39tx062qy41yb4nrucnyjag7oeq3xx,3ixeico796wseqzjz6p1qu3dy9t6tg,dQTbqUVm,2020-0188,2020-11-17,09:56:45,10:16:22,NA,incomplete,82,filling,0,1,left,Red_Circle_Dots_4.jpg,Green_Star_Dots_1.jpg,Blue_Circle_Grid_3.jpg,left,1049.3349999887869,true,low,NA,NA,NA,NA,NA,NA,NA,false
dQTbqUVm,39tx062qy41yb4nrucnyjag7oeq3xx,3ixeico796wseqzjz6p1qu3dy9t6tg,dQTbqUVm,2020-0188,2020-11-17,09:56:45,10:16:22,NA,incomplete,83,filling,0,0,left,Purple_Star_Stripes_2.jpg,Green_Plus_Stripes_3.jpg,Blue_Star_Grid_4.jpg,left,1105.329999991227,true,low,NA,NA,NA,NA,NA,NA,NA,false
dQTbqUVm,39tx062qy41yb4nrucnyjag7oeq3xx,3ixeico796wseqzjz6p1qu3dy9t6tg,dQTbqUVm,2020-0188,2020-11-17,09:56:45,10:16:22,NA,incomplete,84,filling,0,0,right,Blue_Star_Chess_2.jpg,Purple_Star_Grid_4.jpg,Green_Circle_Chess_3.jpg,right,972.3750000121072,true,low,NA,NA,NA,NA,NA,NA,NA,false
dQTbqUVm,39tx062qy41yb4nrucnyjag7oeq3xx,3ixeico796wseqzjz6p1qu3dy9t6tg,dQTbqUVm,2020-0188,2020-11-17,09:56:45,10:16:22,NA,incomplete,85,filling,0,1,left,Red_Circle_Grid_1.jpg,Green_Triangle_Grid_2.jpg,Blue_Circle_Dots_4.jpg,right,706.8449999787845,false,low,NA,NA,NA,NA,NA,NA,NA,false
dQTbqUVm,39tx062qy41yb4nrucnyjag7oeq3xx,3ixeico796wseqzjz6p1qu3dy9t6tg,dQTbqUVm,2020-0188,2020-11-17,09:56:45,10:16:22,NA,incomplete,86,filling,0,0,left,Purple_Star_Dots_3.jpg,Blue_Triangle_Dots_1.jpg,Red_Star_Stripes_4.jpg,left,1225.3349999664351,true,low,NA,NA,NA,NA,NA,NA,NA,false
dQTbqUVm,39tx062qy41yb4nrucnyjag7oeq3xx,3ixeico796wseqzjz6p1qu3dy9t6tg,dQTbqUVm,2020-0188,2020-11-17,09:56:45,10:16:22,NA,incomplete,87,filling,0,1,right,Red_Star_Grid_2.jpg,Green_Star_Stripes_1.jpg,Purple_Circle_Grid_4.jpg,left,938.1900000153109,false,low,NA,NA,NA,NA,NA,NA,NA,false
dQTbqUVm,39tx062qy41yb4nrucnyjag7oeq3xx,3ixeico796wseqzjz6p1qu3dy9t6tg,dQTbqUVm,2020-0188,2020-11-17,09:56:45,10:16:22,NA,incomplete,88,filling,0,1,left,Red_Circle_Chess_3.jpg,Purple_Plus_Chess_1.jpg,Green_Circle_Stripes_2.jpg,right,1325.0499999849126,false,low,NA,NA,NA,NA,NA,NA,NA,false
dQTbqUVm,39tx062qy41yb4nrucnyjag7oeq3xx,3ixeico796wseqzjz6p1qu3dy9t6tg,dQTbqUVm,2020-0188,2020-11-17,09:56:45,10:16:22,NA,incomplete,89,filling,0,1,left,Red_Circle_Chess_2.jpg,Green_Plus_Chess_1.jpg,Purple_Circle_Stripes_3.jpg,left,1105.8549999725074,true,low,NA,NA,NA,NA,NA,NA,NA,false
dQTbqUVm,39tx062qy41yb4nrucnyjag7oeq3xx,3ixeico796wseqzjz6p1qu3dy9t6tg,dQTbqUVm,2020-0188,2020-11-17,09:56:45,10:16:22,NA,incomplete,90,shape,1,1,left,Blue_Star_Stripes_1.jpg,Purple_Star_Dots_3.jpg,Green_Circle_Stripes_4.jpg,right,861.4400000078604,false,low,NA,NA,NA,NA,NA,NA,NA,false
dQTbqUVm,39tx062qy41yb4nrucnyjag7oeq3xx,3ixeico796wseqzjz6p1qu3dy9t6tg,dQTbqUVm,2020-0188,2020-11-17,09:56:45,10:16:22,NA,incomplete,91,shape,1,1,left,Green_Circle_Dots_2.jpg,Purple_Circle_Grid_3.jpg,Red_Plus_Dots_4.jpg,right,1472.0949999755248,false,low,NA,NA,NA,NA,NA,NA,NA,false
dQTbqUVm,39tx062qy41yb4nrucnyjag7oeq3xx,3ixeico796wseqzjz6p1qu3dy9t6tg,dQTbqUVm,2020-0188,2020-11-17,09:56:45,10:16:22,NA,incomplete,92,shape,1,1,right,Red_Plus_Dots_2.jpg,Purple_Star_Dots_1.jpg,Green_Plus_Stripes_4.jpg,right,1569.3899999605492,true,low,NA,NA,NA,NA,NA,NA,NA,false
dQTbqUVm,39tx062qy41yb4nrucnyjag7oeq3xx,3ixeico796wseqzjz6p1qu3dy9t6tg,dQTbqUVm,2020-0188,2020-11-17,09:56:45,10:16:22,NA,incomplete,93,shape,1,1,left,Green_Plus_Dots_1.jpg,Red_Plus_Grid_2.jpg,Purple_Star_Dots_4.jpg,right,1158.4649999858811,false,low,NA,NA,NA,NA,NA,NA,NA,false
dQTbqUVm,39tx062qy41yb4nrucnyjag7oeq3xx,3ixeico796wseqzjz6p1qu3dy9t6tg,dQTbqUVm,2020-0188,2020-11-17,09:56:45,10:16:22,NA,incomplete,94,shape,1,1,left,Blue_Circle_Chess_3.jpg,Purple_Circle_Grid_2.jpg,Red_Plus_Chess_1.jpg,left,793.6650000046939,true,low,NA,NA,NA,NA,NA,NA,NA,false
dQTbqUVm,39tx062qy41yb4nrucnyjag7oeq3xx,3ixeico796wseqzjz6p1qu3dy9t6tg,dQTbqUVm,2020-0188,2020-11-17,09:56:45,10:16:22,NA,incomplete,95,shape,1,1,left,Purple_Circle_Chess_2.jpg,Blue_Circle_Grid_3.jpg,Red_Triangle_Chess_4.jpg,left,1101.7599999904633,true,low,NA,NA,NA,NA,NA,NA,NA,false
dQTbqUVm,39tx062qy41yb4nrucnyjag7oeq3xx,3ixeico796wseqzjz6p1qu3dy9t6tg,dQTbqUVm,2020-0188,2020-11-17,09:56:45,10:16:22,NA,incomplete,96,shape,1,0,left,Purple_Circle_Chess_2.jpg,Blue_Circle_Stripes_3.jpg,Red_Plus_Chess_4.jpg,left,714.719999989029,true,low,NA,NA,NA,NA,NA,NA,NA,false
dQTbqUVm,39tx062qy41yb4nrucnyjag7oeq3xx,3ixeico796wseqzjz6p1qu3dy9t6tg,dQTbqUVm,2020-0188,2020-11-17,09:56:45,10:16:22,NA,incomplete,97,shape,1,1,right,Purple_Triangle_Stripes_1.jpg,Green_Plus_Stripes_2.jpg,Blue_Triangle_Chess_4.jpg,right,854.0250000078231,true,low,NA,NA,NA,NA,NA,NA,NA,false
dQTbqUVm,39tx062qy41yb4nrucnyjag7oeq3xx,3ixeico796wseqzjz6p1qu3dy9t6tg,dQTbqUVm,2020-0188,2020-11-17,09:56:45,10:16:22,NA,incomplete,98,shape,1,1,left,Red_Triangle_Dots_3.jpg,Green_Triangle_Grid_1.jpg,Blue_Circle_Dots_4.jpg,left,880.0449999980628,true,low,NA,NA,NA,NA,NA,NA,NA,false
dQTbqUVm,39tx062qy41yb4nrucnyjag7oeq3xx,3ixeico796wseqzjz6p1qu3dy9t6tg,dQTbqUVm,2020-0188,2020-11-17,09:56:45,10:16:22,NA,incomplete,99,shape,1,1,right,Blue_Circle_Dots_4.jpg,Purple_Star_Dots_2.jpg,Green_Circle_Grid_3.jpg,right,929.8650000127964,true,low,NA,NA,NA,NA,NA,NA,NA,false
dQTbqUVm,39tx062qy41yb4nrucnyjag7oeq3xx,3ixeico796wseqzjz6p1qu3dy9t6tg,dQTbqUVm,2020-0188,2020-11-17,09:56:45,10:16:22,NA,incomplete,100,filling,0,1,left,Green_Triangle_Chess_2.jpg,Purple_Circle_Chess_4.jpg,Red_Triangle_Stripes_1.jpg,right,928.8899999810383,false,low,NA,NA,NA,NA,NA,NA,NA,false
dQTbqUVm,39tx062qy41yb4nrucnyjag7oeq3xx,3ixeico796wseqzjz6p1qu3dy9t6tg,dQTbqUVm,2020-0188,2020-11-17,09:56:45,10:16:22,NA,incomplete,101,filling,0,1,left,Green_Star_Chess_3.jpg,Red_Plus_Chess_2.jpg,Blue_Star_Stripes_4.jpg,left,1590.0400000391528,true,low,NA,NA,NA,NA,NA,NA,NA,false
dQTbqUVm,39tx062qy41yb4nrucnyjag7oeq3xx,3ixeico796wseqzjz6p1qu3dy9t6tg,dQTbqUVm,2020-0188,2020-11-17,09:56:45,10:16:22,NA,incomplete,102,filling,0,1,left,Blue_Star_Stripes_4.jpg,Purple_Triangle_Stripes_1.jpg,Red_Star_Dots_2.jpg,left,986.3400000031106,true,low,NA,NA,NA,NA,NA,NA,NA,false
dQTbqUVm,39tx062qy41yb4nrucnyjag7oeq3xx,3ixeico796wseqzjz6p1qu3dy9t6tg,dQTbqUVm,2020-0188,2020-11-17,09:56:45,10:16:22,NA,incomplete,103,filling,0,1,left,Green_Star_Chess_3.jpg,Blue_Circle_Chess_1.jpg,Red_Star_Dots_2.jpg,left,1008.4650000208057,true,low,NA,NA,NA,NA,NA,NA,NA,false
dQTbqUVm,39tx062qy41yb4nrucnyjag7oeq3xx,3ixeico796wseqzjz6p1qu3dy9t6tg,dQTbqUVm,2020-0188,2020-11-17,09:56:45,10:16:22,NA,incomplete,104,filling,0,1,right,Purple_Triangle_Dots_3.jpg,Red_Triangle_Stripes_2.jpg,Green_Star_Dots_1.jpg,right,1166.7349999770522,true,low,NA,NA,NA,NA,NA,NA,NA,false
dQTbqUVm,39tx062qy41yb4nrucnyjag7oeq3xx,3ixeico796wseqzjz6p1qu3dy9t6tg,dQTbqUVm,2020-0188,2020-11-17,09:56:45,10:16:22,NA,incomplete,105,filling,0,1,left,Blue_Triangle_Chess_2.jpg,Green_Star_Chess_1.jpg,Red_Triangle_Dots_3.jpg,left,818.7449999968521,true,low,NA,NA,NA,NA,NA,NA,NA,false
dQTbqUVm,39tx062qy41yb4nrucnyjag7oeq3xx,3ixeico796wseqzjz6p1qu3dy9t6tg,dQTbqUVm,2020-0188,2020-11-17,09:56:45,10:16:22,NA,incomplete,106,filling,0,1,left,Purple_Plus_Chess_2.jpg,Blue_Star_Chess_4.jpg,Green_Plus_Grid_3.jpg,left,914.2749999882653,true,low,NA,NA,NA,NA,NA,NA,NA,false
dQTbqUVm,39tx062qy41yb4nrucnyjag7oeq3xx,3ixeico796wseqzjz6p1qu3dy9t6tg,dQTbqUVm,2020-0188,2020-11-17,09:56:45,10:16:22,NA,incomplete,107,filling,0,1,right,Green_Star_Dots_1.jpg,Blue_Star_Stripes_4.jpg,Purple_Circle_Dots_3.jpg,right,1322.1250000060536,true,low,NA,NA,NA,NA,NA,NA,NA,false
dQTbqUVm,39tx062qy41yb4nrucnyjag7oeq3xx,3ixeico796wseqzjz6p1qu3dy9t6tg,dQTbqUVm,2020-0188,2020-11-17,09:56:45,10:16:22,NA,incomplete,108,filling,0,1,left,Green_Plus_Dots_3.jpg,Blue_Circle_Dots_4.jpg,Purple_Plus_Chess_1.jpg,left,1244.5000000298023,true,low,NA,NA,NA,NA,NA,NA,NA,false
dQTbqUVm,39tx062qy41yb4nrucnyjag7oeq3xx,3ixeico796wseqzjz6p1qu3dy9t6tg,dQTbqUVm,2020-0188,2020-11-17,09:56:45,10:16:22,NA,incomplete,109,filling,0,1,left,Red_Star_Chess_4.jpg,Purple_Plus_Chess_3.jpg,Green_Star_Grid_1.jpg,left,946.8200000119396,true,low,NA,NA,NA,NA,NA,NA,NA,false
dQTbqUVm,39tx062qy41yb4nrucnyjag7oeq3xx,3ixeico796wseqzjz6p1qu3dy9t6tg,dQTbqUVm,2020-0188,2020-11-17,09:56:45,10:16:22,NA,incomplete,110,shape,1,1,left,Red_Star_Dots_4.jpg,Green_Star_Grid_3.jpg,Purple_Plus_Dots_2.jpg,right,1085.8700000098906,false,low,NA,NA,NA,NA,NA,NA,NA,false
dQTbqUVm,39tx062qy41yb4nrucnyjag7oeq3xx,3ixeico796wseqzjz6p1qu3dy9t6tg,dQTbqUVm,2020-0188,2020-11-17,09:56:45,10:16:22,NA,incomplete,111,shape,1,0,left,Green_Star_Dots_3.jpg,Blue_Star_Stripes_4.jpg,Purple_Triangle_Dots_2.jpg,left,718.9599999692291,true,low,NA,NA,NA,NA,NA,NA,NA,false
dQTbqUVm,39tx062qy41yb4nrucnyjag7oeq3xx,3ixeico796wseqzjz6p1qu3dy9t6tg,dQTbqUVm,2020-0188,2020-11-17,09:56:45,10:16:22,NA,incomplete,112,shape,1,1,left,Purple_Triangle_Dots_4.jpg,Blue_Triangle_Grid_2.jpg,Red_Circle_Dots_1.jpg,right,966.9850000063889,false,low,NA,NA,NA,NA,NA,NA,NA,false
dQTbqUVm,39tx062qy41yb4nrucnyjag7oeq3xx,3ixeico796wseqzjz6p1qu3dy9t6tg,dQTbqUVm,2020-0188,2020-11-17,09:56:45,10:16:22,NA,incomplete,113,shape,1,0,left,Purple_Plus_Chess_1.jpg,Green_Plus_Dots_3.jpg,Red_Circle_Chess_2.jpg,left,806.3250000122935,true,low,NA,NA,NA,NA,NA,NA,NA,false
dQTbqUVm,39tx062qy41yb4nrucnyjag7oeq3xx,3ixeico796wseqzjz6p1qu3dy9t6tg,dQTbqUVm,2020-0188,2020-11-17,09:56:45,10:16:22,NA,incomplete,114,shape,1,1,left,Red_Circle_Stripes_3.jpg,Purple_Circle_Dots_4.jpg,Blue_Triangle_Stripes_2.jpg,left,1311.7000000202097,true,low,NA,NA,NA,NA,NA,NA,NA,false
dQTbqUVm,39tx062qy41yb4nrucnyjag7oeq3xx,3ixeico796wseqzjz6p1qu3dy9t6tg,dQTbqUVm,2020-0188,2020-11-17,09:56:45,10:16:22,NA,incomplete,115,shape,1,1,right,Green_Triangle_Dots_4.jpg,Purple_Star_Dots_2.jpg,Red_Triangle_Chess_1.jpg,left,1114.5399999804795,false,low,NA,NA,NA,NA,NA,NA,NA,false
dQTbqUVm,39tx062qy41yb4nrucnyjag7oeq3xx,3ixeico796wseqzjz6p1qu3dy9t6tg,dQTbqUVm,2020-0188,2020-11-17,09:56:45,10:16:22,NA,incomplete,116,shape,1,1,right,Red_Triangle_Grid_3.jpg,Purple_Plus_Grid_4.jpg,Blue_Triangle_Chess_1.jpg,right,692.1900000306778,true,low,NA,NA,NA,NA,NA,NA,NA,false
dQTbqUVm,39tx062qy41yb4nrucnyjag7oeq3xx,3ixeico796wseqzjz6p1qu3dy9t6tg,dQTbqUVm,2020-0188,2020-11-17,09:56:45,10:16:22,NA,incomplete,117,shape,1,1,right,Purple_Circle_Chess_4.jpg,Green_Triangle_Chess_3.jpg,Blue_Circle_Grid_1.jpg,right,1659.5800000359304,true,low,NA,NA,NA,NA,NA,NA,NA,false
dQTbqUVm,39tx062qy41yb4nrucnyjag7oeq3xx,3ixeico796wseqzjz6p1qu3dy9t6tg,dQTbqUVm,2020-0188,2020-11-17,09:56:45,10:16:22,NA,incomplete,118,shape,1,1,right,Purple_Triangle_Dots_1.jpg,Blue_Circle_Dots_4.jpg,Red_Triangle_Grid_2.jpg,right,1069.3050000118092,true,low,NA,NA,NA,NA,NA,NA,NA,false
dQTbqUVm,39tx062qy41yb4nrucnyjag7oeq3xx,3ixeico796wseqzjz6p1qu3dy9t6tg,dQTbqUVm,2020-0188,2020-11-17,09:56:45,10:16:22,NA,incomplete,119,shape,1,1,left,Green_Triangle_Grid_1.jpg,Blue_Triangle_Dots_2.jpg,Red_Star_Grid_4.jpg,left,790.7199999899603,true,low,NA,NA,NA,NA,NA,NA,NA,false
dQTbqUVm,39tx062qy41yb4nrucnyjag7oeq3xx,3ixeico796wseqzjz6p1qu3dy9t6tg,dQTbqUVm,2020-0188,2020-11-17,09:56:45,10:16:22,NA,incomplete,120,gender,2,1,right,A_M_06.jpg,A_F_07.jpg,C_M_09.jpg,NA,NA,NA,low,NA,NA,NA,NA,NA,NA,NA,false
dQTbqUVm,39tx062qy41yb4nrucnyjag7oeq3xx,3ixeico796wseqzjz6p1qu3dy9t6tg,dQTbqUVm,2020-0188,2020-11-17,09:56:45,10:16:22,NA,incomplete,121,gender,2,0,right,A_F_10.jpg,A_M_05.jpg,C_F_02.jpg,left,1548.754999996163,false,low,NA,NA,NA,NA,NA,NA,NA,false
dQTbqUVm,39tx062qy41yb4nrucnyjag7oeq3xx,3ixeico796wseqzjz6p1qu3dy9t6tg,dQTbqUVm,2020-0188,2020-11-17,09:56:45,10:16:22,NA,incomplete,122,gender,2,1,left,A_F_10.jpg,C_F_02.jpg,A_M_08.jpg,right,837.5600000144914,false,low,NA,NA,NA,NA,NA,NA,NA,false
dQTbqUVm,39tx062qy41yb4nrucnyjag7oeq3xx,3ixeico796wseqzjz6p1qu3dy9t6tg,dQTbqUVm,2020-0188,2020-11-17,09:56:45,10:16:22,NA,incomplete,123,gender,2,1,left,C_M_06.jpg,A_M_07.jpg,C_F_14.jpg,left,1151.670000050217,true,low,NA,NA,NA,NA,NA,NA,NA,false
dQTbqUVm,39tx062qy41yb4nrucnyjag7oeq3xx,3ixeico796wseqzjz6p1qu3dy9t6tg,dQTbqUVm,2020-0188,2020-11-17,09:56:45,10:16:22,NA,incomplete,124,gender,2,1,right,C_F_07.jpg,C_M_06.jpg,A_F_03.jpg,right,992.8299999446608,true,low,NA,NA,NA,NA,NA,NA,NA,false
dQTbqUVm,39tx062qy41yb4nrucnyjag7oeq3xx,3ixeico796wseqzjz6p1qu3dy9t6tg,dQTbqUVm,2020-0188,2020-11-17,09:56:45,10:16:22,NA,incomplete,125,gender,2,1,right,C_M_12.jpg,C_F_11.jpg,A_M_02.jpg,right,1219.005000020843,true,low,NA,NA,NA,NA,NA,NA,NA,false
dQTbqUVm,39tx062qy41yb4nrucnyjag7oeq3xx,3ixeico796wseqzjz6p1qu3dy9t6tg,dQTbqUVm,2020-0188,2020-11-17,09:56:45,10:16:22,NA,incomplete,126,gender,2,1,right,C_M_15.jpg,C_F_12.jpg,A_M_10.jpg,right,870.9050000179559,true,low,NA,NA,NA,NA,NA,NA,NA,false
dQTbqUVm,39tx062qy41yb4nrucnyjag7oeq3xx,3ixeico796wseqzjz6p1qu3dy9t6tg,dQTbqUVm,2020-0188,2020-11-17,09:56:45,10:16:22,NA,incomplete,127,gender,2,1,left,A_F_07.jpg,C_F_16.jpg,A_M_02.jpg,left,740.0800000177696,true,low,NA,NA,NA,NA,NA,NA,NA,false
dQTbqUVm,39tx062qy41yb4nrucnyjag7oeq3xx,3ixeico796wseqzjz6p1qu3dy9t6tg,dQTbqUVm,2020-0188,2020-11-17,09:56:45,10:16:22,NA,incomplete,128,gender,2,1,right,C_F_10.jpg,C_M_13.jpg,A_F_06.jpg,right,989.884999988135,true,low,NA,NA,NA,NA,NA,NA,NA,false
dQTbqUVm,39tx062qy41yb4nrucnyjag7oeq3xx,3ixeico796wseqzjz6p1qu3dy9t6tg,dQTbqUVm,2020-0188,2020-11-17,09:56:45,10:16:22,NA,incomplete,129,gender,2,0,left,C_M_11.jpg,A_M_06.jpg,C_F_03.jpg,left,884.9900000495836,true,low,NA,NA,NA,NA,NA,NA,NA,false
dQTbqUVm,39tx062qy41yb4nrucnyjag7oeq3xx,3ixeico796wseqzjz6p1qu3dy9t6tg,dQTbqUVm,2020-0188,2020-11-17,09:56:45,10:16:22,NA,incomplete,130,gender,2,1,right,C_F_05.jpg,C_M_12.jpg,A_F_13.jpg,left,1305.194999964442,false,low,NA,NA,NA,NA,NA,NA,NA,false
dQTbqUVm,39tx062qy41yb4nrucnyjag7oeq3xx,3ixeico796wseqzjz6p1qu3dy9t6tg,dQTbqUVm,2020-0188,2020-11-17,09:56:45,10:16:22,NA,incomplete,131,gender,2,1,right,A_F_08.jpg,A_M_07.jpg,C_F_16.jpg,right,851.810000021942,true,low,NA,NA,NA,NA,NA,NA,NA,false
dQTbqUVm,39tx062qy41yb4nrucnyjag7oeq3xx,3ixeico796wseqzjz6p1qu3dy9t6tg,dQTbqUVm,2020-0188,2020-11-17,09:56:45,10:16:22,NA,incomplete,132,gender,2,0,right,A_M_09.jpg,A_F_10.jpg,C_M_06.jpg,right,1075.089999998454,true,low,NA,NA,NA,NA,NA,NA,NA,false
dQTbqUVm,39tx062qy41yb4nrucnyjag7oeq3xx,3ixeico796wseqzjz6p1qu3dy9t6tg,dQTbqUVm,2020-0188,2020-11-17,09:56:45,10:16:22,NA,incomplete,133,gender,2,1,left,C_F_02.jpg,A_F_10.jpg,C_M_09.jpg,right,1129.9500000313856,false,low,NA,NA,NA,NA,NA,NA,NA,false
dQTbqUVm,39tx062qy41yb4nrucnyjag7oeq3xx,3ixeico796wseqzjz6p1qu3dy9t6tg,dQTbqUVm,2020-0188,2020-11-17,09:56:45,10:16:22,NA,incomplete,134,gender,2,0,right,A_M_01.jpg,A_F_14.jpg,C_M_07.jpg,right,1466.3949999958277,true,low,NA,NA,NA,NA,NA,NA,NA,false
dQTbqUVm,39tx062qy41yb4nrucnyjag7oeq3xx,3ixeico796wseqzjz6p1qu3dy9t6tg,dQTbqUVm,2020-0188,2020-11-17,09:56:45,10:16:22,NA,incomplete,135,gender,2,1,right,C_F_01.jpg,C_M_11.jpg,A_F_03.jpg,right,958.9649999979883,true,low,NA,NA,NA,NA,NA,NA,NA,false
dQTbqUVm,39tx062qy41yb4nrucnyjag7oeq3xx,3ixeico796wseqzjz6p1qu3dy9t6tg,dQTbqUVm,2020-0188,2020-11-17,09:56:45,10:16:22,NA,incomplete,136,gender,2,1,right,A_F_04.jpg,A_M_06.jpg,C_F_12.jpg,right,777.799999981653,true,low,NA,NA,NA,NA,NA,NA,NA,false
dQTbqUVm,39tx062qy41yb4nrucnyjag7oeq3xx,3ixeico796wseqzjz6p1qu3dy9t6tg,dQTbqUVm,2020-0188,2020-11-17,09:56:45,10:16:22,NA,incomplete,137,gender,2,0,left,A_M_15.jpg,C_M_12.jpg,A_F_07.jpg,left,976.6149999923073,true,low,NA,NA,NA,NA,NA,NA,NA,false
dQTbqUVm,39tx062qy41yb4nrucnyjag7oeq3xx,3ixeico796wseqzjz6p1qu3dy9t6tg,dQTbqUVm,2020-0188,2020-11-17,09:56:45,10:16:22,NA,incomplete,138,gender,2,1,left,C_M_04.jpg,A_M_02.jpg,C_F_01.jpg,right,1168.8049999647774,false,low,NA,NA,NA,NA,NA,NA,NA,false
dQTbqUVm,39tx062qy41yb4nrucnyjag7oeq3xx,3ixeico796wseqzjz6p1qu3dy9t6tg,dQTbqUVm,2020-0188,2020-11-17,09:56:45,10:16:22,NA,incomplete,139,gender,2,1,left,C_F_06.jpg,A_F_02.jpg,C_M_03.jpg,left,985.7699999702163,true,low,NA,NA,NA,NA,NA,NA,NA,false
dQTbqUVm,39tx062qy41yb4nrucnyjag7oeq3xx,3ixeico796wseqzjz6p1qu3dy9t6tg,dQTbqUVm,2020-0188,2020-11-17,09:56:45,10:16:22,NA,incomplete,140,race,3,1,right,C_F_14.jpg,A_F_07.jpg,C_M_01.jpg,left,1025.4649999551475,false,low,NA,NA,NA,NA,NA,NA,NA,false
dQTbqUVm,39tx062qy41yb4nrucnyjag7oeq3xx,3ixeico796wseqzjz6p1qu3dy9t6tg,dQTbqUVm,2020-0188,2020-11-17,09:56:45,10:16:22,NA,incomplete,141,race,3,1,left,C_F_07.jpg,C_M_09.jpg,A_F_14.jpg,right,1061.0349999624304,false,low,NA,NA,NA,NA,NA,NA,NA,false
dQTbqUVm,39tx062qy41yb4nrucnyjag7oeq3xx,3ixeico796wseqzjz6p1qu3dy9t6tg,dQTbqUVm,2020-0188,2020-11-17,09:56:45,10:16:22,NA,incomplete,142,race,3,1,left,C_F_09.jpg,C_M_13.jpg,A_F_06.jpg,left,1014.9049999890849,true,low,NA,NA,NA,NA,NA,NA,NA,false
dQTbqUVm,39tx062qy41yb4nrucnyjag7oeq3xx,3ixeico796wseqzjz6p1qu3dy9t6tg,dQTbqUVm,2020-0188,2020-11-17,09:56:45,10:16:22,NA,incomplete,143,race,3,1,right,A_F_03.jpg,C_F_15.jpg,A_M_16.jpg,right,948.8850000197999,true,low,NA,NA,NA,NA,NA,NA,NA,false
dQTbqUVm,39tx062qy41yb4nrucnyjag7oeq3xx,3ixeico796wseqzjz6p1qu3dy9t6tg,dQTbqUVm,2020-0188,2020-11-17,09:56:45,10:16:22,NA,incomplete,144,race,3,1,right,C_M_16.jpg,A_M_15.jpg,C_F_10.jpg,right,1012.4850000138395,true,low,NA,NA,NA,NA,NA,NA,NA,false
dQTbqUVm,39tx062qy41yb4nrucnyjag7oeq3xx,3ixeico796wseqzjz6p1qu3dy9t6tg,dQTbqUVm,2020-0188,2020-11-17,09:56:45,10:16:22,NA,incomplete,145,race,3,1,left,C_F_12.jpg,C_M_16.jpg,A_F_03.jpg,right,930.1650000270456,false,low,NA,NA,NA,NA,NA,NA,NA,false
dQTbqUVm,39tx062qy41yb4nrucnyjag7oeq3xx,3ixeico796wseqzjz6p1qu3dy9t6tg,dQTbqUVm,2020-0188,2020-11-17,09:56:45,10:16:22,NA,incomplete,146,race,3,1,left,C_M_16.jpg,C_F_04.jpg,A_M_05.jpg,left,1217.1649999800138,true,low,NA,NA,NA,NA,NA,NA,NA,false
dQTbqUVm,39tx062qy41yb4nrucnyjag7oeq3xx,3ixeico796wseqzjz6p1qu3dy9t6tg,dQTbqUVm,2020-0188,2020-11-17,09:56:45,10:16:22,NA,incomplete,147,race,3,1,right,C_F_16.jpg,A_F_14.jpg,C_M_01.jpg,right,1015.2200000011362,true,low,NA,NA,NA,NA,NA,NA,NA,false
dQTbqUVm,39tx062qy41yb4nrucnyjag7oeq3xx,3ixeico796wseqzjz6p1qu3dy9t6tg,dQTbqUVm,2020-0188,2020-11-17,09:56:45,10:16:22,NA,incomplete,148,race,3,1,left,A_M_01.jpg,A_F_16.jpg,C_M_14.jpg,left,911.0600000130944,true,low,NA,NA,NA,NA,NA,NA,NA,false
dQTbqUVm,39tx062qy41yb4nrucnyjag7oeq3xx,3ixeico796wseqzjz6p1qu3dy9t6tg,dQTbqUVm,2020-0188,2020-11-17,09:56:45,10:16:22,NA,incomplete,149,race,3,0,right,A_M_09.jpg,C_M_06.jpg,A_F_14.jpg,right,1178.2550000352785,true,low,NA,NA,NA,NA,NA,NA,NA,false
dQTbqUVm,39tx062qy41yb4nrucnyjag7oeq3xx,3ixeico796wseqzjz6p1qu3dy9t6tg,dQTbqUVm,2020-0188,2020-11-17,09:56:45,10:16:22,NA,incomplete,150,race,3,1,left,A_M_11.jpg,A_F_01.jpg,C_M_13.jpg,right,1373.9100000238977,false,low,NA,NA,NA,NA,NA,NA,NA,false
dQTbqUVm,39tx062qy41yb4nrucnyjag7oeq3xx,3ixeico796wseqzjz6p1qu3dy9t6tg,dQTbqUVm,2020-0188,2020-11-17,09:56:45,10:16:22,NA,incomplete,151,race,3,1,left,A_F_07.jpg,A_M_14.jpg,C_F_08.jpg,left,1168.1299999472685,true,low,NA,NA,NA,NA,NA,NA,NA,false
dQTbqUVm,39tx062qy41yb4nrucnyjag7oeq3xx,3ixeico796wseqzjz6p1qu3dy9t6tg,dQTbqUVm,2020-0188,2020-11-17,09:56:45,10:16:22,NA,incomplete,152,race,3,0,left,C_F_09.jpg,C_M_05.jpg,A_F_12.jpg,left,1236.6049999836832,true,low,NA,NA,NA,NA,NA,NA,NA,false
dQTbqUVm,39tx062qy41yb4nrucnyjag7oeq3xx,3ixeico796wseqzjz6p1qu3dy9t6tg,dQTbqUVm,2020-0188,2020-11-17,09:56:45,10:16:22,NA,incomplete,153,race,3,1,right,C_F_08.jpg,A_F_03.jpg,C_M_15.jpg,left,1143.7549999682233,false,low,NA,NA,NA,NA,NA,NA,NA,false
dQTbqUVm,39tx062qy41yb4nrucnyjag7oeq3xx,3ixeico796wseqzjz6p1qu3dy9t6tg,dQTbqUVm,2020-0188,2020-11-17,09:56:45,10:16:22,NA,incomplete,154,race,3,1,right,C_F_11.jpg,A_F_08.jpg,C_M_07.jpg,right,1507.1999999927357,true,low,NA,NA,NA,NA,NA,NA,NA,false
dQTbqUVm,39tx062qy41yb4nrucnyjag7oeq3xx,3ixeico796wseqzjz6p1qu3dy9t6tg,dQTbqUVm,2020-0188,2020-11-17,09:56:45,10:16:22,NA,incomplete,155,race,3,1,left,C_M_16.jpg,C_F_09.jpg,A_M_15.jpg,left,1265.4449999681674,true,low,NA,NA,NA,NA,NA,NA,NA,false
dQTbqUVm,39tx062qy41yb4nrucnyjag7oeq3xx,3ixeico796wseqzjz6p1qu3dy9t6tg,dQTbqUVm,2020-0188,2020-11-17,09:56:45,10:16:22,NA,incomplete,156,race,3,1,right,A_F_02.jpg,C_F_15.jpg,A_M_14.jpg,right,1128.0050000059418,true,low,NA,NA,NA,NA,NA,NA,NA,false
dQTbqUVm,39tx062qy41yb4nrucnyjag7oeq3xx,3ixeico796wseqzjz6p1qu3dy9t6tg,dQTbqUVm,2020-0188,2020-11-17,09:56:45,10:16:22,NA,incomplete,157,race,3,1,right,C_M_12.jpg,A_M_05.jpg,C_F_02.jpg,right,1068.7749999924563,true,low,NA,NA,NA,NA,NA,NA,NA,false
dQTbqUVm,39tx062qy41yb4nrucnyjag7oeq3xx,3ixeico796wseqzjz6p1qu3dy9t6tg,dQTbqUVm,2020-0188,2020-11-17,09:56:45,10:16:22,NA,incomplete,158,race,3,1,left,A_F_03.jpg,A_M_16.jpg,C_F_09.jpg,left,1227.7849999954924,true,low,NA,NA,NA,NA,NA,NA,NA,false
dQTbqUVm,39tx062qy41yb4nrucnyjag7oeq3xx,3ixeico796wseqzjz6p1qu3dy9t6tg,dQTbqUVm,2020-0188,2020-11-17,09:56:45,10:16:22,NA,incomplete,159,race,3,1,left,A_F_15.jpg,A_M_12.jpg,C_F_13.jpg,left,1598.885000043083,true,low,NA,NA,NA,NA,NA,NA,NA,false
dQTbqUVm,39tx062qy41yb4nrucnyjag7oeq3xx,3ixeico796wseqzjz6p1qu3dy9t6tg,dQTbqUVm,2020-0188,2020-11-17,09:56:45,10:16:22,NA,incomplete,160,gender,2,1,right,C_M_14.jpg,C_F_02.jpg,A_M_12.jpg,left,1000.1850000116974,false,low,NA,NA,NA,NA,NA,NA,NA,false
dQTbqUVm,39tx062qy41yb4nrucnyjag7oeq3xx,3ixeico796wseqzjz6p1qu3dy9t6tg,dQTbqUVm,2020-0188,2020-11-17,09:56:45,10:16:22,NA,incomplete,161,gender,2,1,left,C_M_08.jpg,A_M_07.jpg,C_F_15.jpg,right,1476.9199999864213,false,low,NA,NA,NA,NA,NA,NA,NA,false
dQTbqUVm,39tx062qy41yb4nrucnyjag7oeq3xx,3ixeico796wseqzjz6p1qu3dy9t6tg,dQTbqUVm,2020-0188,2020-11-17,09:56:45,10:16:22,NA,incomplete,162,gender,2,1,right,A_M_12.jpg,A_F_13.jpg,C_M_02.jpg,right,1081.9699999992736,true,low,NA,NA,NA,NA,NA,NA,NA,false
dQTbqUVm,39tx062qy41yb4nrucnyjag7oeq3xx,3ixeico796wseqzjz6p1qu3dy9t6tg,dQTbqUVm,2020-0188,2020-11-17,09:56:45,10:16:22,NA,incomplete,163,gender,2,1,right,C_M_12.jpg,C_F_06.jpg,A_M_04.jpg,right,994.0950000309385,true,low,NA,NA,NA,NA,NA,NA,NA,false
dQTbqUVm,39tx062qy41yb4nrucnyjag7oeq3xx,3ixeico796wseqzjz6p1qu3dy9t6tg,dQTbqUVm,2020-0188,2020-11-17,09:56:45,10:16:22,NA,incomplete,164,gender,2,1,right,A_M_03.jpg,A_F_05.jpg,C_M_06.jpg,right,908.1500000320375,true,low,NA,NA,NA,NA,NA,NA,NA,false
dQTbqUVm,39tx062qy41yb4nrucnyjag7oeq3xx,3ixeico796wseqzjz6p1qu3dy9t6tg,dQTbqUVm,2020-0188,2020-11-17,09:56:45,10:16:22,NA,incomplete,165,gender,2,1,right,C_M_15.jpg,C_F_16.jpg,A_M_04.jpg,right,885.1650000433438,true,low,NA,NA,NA,NA,NA,NA,NA,false
dQTbqUVm,39tx062qy41yb4nrucnyjag7oeq3xx,3ixeico796wseqzjz6p1qu3dy9t6tg,dQTbqUVm,2020-0188,2020-11-17,09:56:45,10:16:22,NA,incomplete,166,gender,2,1,right,A_F_02.jpg,A_M_12.jpg,C_F_16.jpg,right,1015.1099999784492,true,low,NA,NA,NA,NA,NA,NA,NA,false
dQTbqUVm,39tx062qy41yb4nrucnyjag7oeq3xx,3ixeico796wseqzjz6p1qu3dy9t6tg,dQTbqUVm,2020-0188,2020-11-17,09:56:45,10:16:22,NA,incomplete,167,gender,2,1,left,C_F_14.jpg,A_F_16.jpg,C_M_09.jpg,left,850.3200000268407,true,low,NA,NA,NA,NA,NA,NA,NA,false
dQTbqUVm,39tx062qy41yb4nrucnyjag7oeq3xx,3ixeico796wseqzjz6p1qu3dy9t6tg,dQTbqUVm,2020-0188,2020-11-17,09:56:45,10:16:22,NA,incomplete,168,gender,2,1,right,A_F_15.jpg,A_M_14.jpg,C_F_10.jpg,right,707.2350000380538,true,low,NA,NA,NA,NA,NA,NA,NA,false
dQTbqUVm,39tx062qy41yb4nrucnyjag7oeq3xx,3ixeico796wseqzjz6p1qu3dy9t6tg,dQTbqUVm,2020-0188,2020-11-17,09:56:45,10:16:22,NA,incomplete,169,gender,2,1,left,C_F_12.jpg,A_F_01.jpg,C_M_03.jpg,left,892.8050000104122,true,low,NA,NA,NA,NA,NA,NA,NA,false
dQTbqUVm,39tx062qy41yb4nrucnyjag7oeq3xx,3ixeico796wseqzjz6p1qu3dy9t6tg,dQTbqUVm,2020-0188,2020-11-17,09:56:45,10:16:22,NA,incomplete,170,gender,2,1,right,C_M_04.jpg,C_F_14.jpg,A_M_11.jpg,right,1032.4999999720603,true,low,NA,NA,NA,NA,NA,NA,NA,false
dQTbqUVm,39tx062qy41yb4nrucnyjag7oeq3xx,3ixeico796wseqzjz6p1qu3dy9t6tg,dQTbqUVm,2020-0188,2020-11-17,09:56:45,10:16:22,NA,incomplete,171,gender,2,1,left,A_M_10.jpg,C_M_12.jpg,A_F_16.jpg,left,838.9750000205822,true,low,NA,NA,NA,NA,NA,NA,NA,false
dQTbqUVm,39tx062qy41yb4nrucnyjag7oeq3xx,3ixeico796wseqzjz6p1qu3dy9t6tg,dQTbqUVm,2020-0188,2020-11-17,09:56:45,10:16:22,NA,incomplete,172,gender,2,0,right,C_F_03.jpg,C_M_14.jpg,A_F_12.jpg,right,1232.6600000378676,true,low,NA,NA,NA,NA,NA,NA,NA,false
dQTbqUVm,39tx062qy41yb4nrucnyjag7oeq3xx,3ixeico796wseqzjz6p1qu3dy9t6tg,dQTbqUVm,2020-0188,2020-11-17,09:56:45,10:16:22,NA,incomplete,173,gender,2,1,right,A_M_09.jpg,A_F_03.jpg,C_M_11.jpg,left,1303.8200000301003,false,low,NA,NA,NA,NA,NA,NA,NA,false
dQTbqUVm,39tx062qy41yb4nrucnyjag7oeq3xx,3ixeico796wseqzjz6p1qu3dy9t6tg,dQTbqUVm,2020-0188,2020-11-17,09:56:45,10:16:22,NA,incomplete,174,gender,2,1,left,C_M_09.jpg,A_M_14.jpg,C_F_08.jpg,left,1076.0349999764003,true,low,NA,NA,NA,NA,NA,NA,NA,false
dQTbqUVm,39tx062qy41yb4nrucnyjag7oeq3xx,3ixeico796wseqzjz6p1qu3dy9t6tg,dQTbqUVm,2020-0188,2020-11-17,09:56:45,10:16:22,NA,incomplete,175,gender,2,1,left,A_M_13.jpg,C_M_15.jpg,A_F_01.jpg,left,899.7199999867007,true,low,NA,NA,NA,NA,NA,NA,NA,false
dQTbqUVm,39tx062qy41yb4nrucnyjag7oeq3xx,3ixeico796wseqzjz6p1qu3dy9t6tg,dQTbqUVm,2020-0188,2020-11-17,09:56:45,10:16:22,NA,incomplete,176,gender,2,0,right,A_M_07.jpg,A_F_01.jpg,C_M_08.jpg,right,892.6200000569224,true,low,NA,NA,NA,NA,NA,NA,NA,false
dQTbqUVm,39tx062qy41yb4nrucnyjag7oeq3xx,3ixeico796wseqzjz6p1qu3dy9t6tg,dQTbqUVm,2020-0188,2020-11-17,09:56:45,10:16:22,NA,incomplete,177,gender,2,1,left,C_F_14.jpg,A_F_15.jpg,C_M_07.jpg,left,1427.7700000093319,true,low,NA,NA,NA,NA,NA,NA,NA,false
dQTbqUVm,39tx062qy41yb4nrucnyjag7oeq3xx,3ixeico796wseqzjz6p1qu3dy9t6tg,dQTbqUVm,2020-0188,2020-11-17,09:56:45,10:16:22,NA,incomplete,178,gender,2,1,right,A_F_01.jpg,A_M_06.jpg,C_F_08.jpg,right,846.9250000198372,true,low,NA,NA,NA,NA,NA,NA,NA,false
dQTbqUVm,39tx062qy41yb4nrucnyjag7oeq3xx,3ixeico796wseqzjz6p1qu3dy9t6tg,dQTbqUVm,2020-0188,2020-11-17,09:56:45,10:16:22,NA,incomplete,179,gender,2,0,left,C_F_10.jpg,A_F_03.jpg,C_M_16.jpg,left,1361.0249999910593,true,low,NA,NA,NA,NA,NA,NA,NA,false
dQTbqUVm,39tx062qy41yb4nrucnyjag7oeq3xx,3ixeico796wseqzjz6p1qu3dy9t6tg,dQTbqUVm,2020-0188,2020-11-17,09:56:45,10:16:22,NA,incomplete,180,race,3,1,left,C_M_06.jpg,C_F_13.jpg,A_M_15.jpg,right,992.9399999673478,false,low,NA,NA,NA,NA,NA,NA,NA,false
dQTbqUVm,39tx062qy41yb4nrucnyjag7oeq3xx,3ixeico796wseqzjz6p1qu3dy9t6tg,dQTbqUVm,2020-0188,2020-11-17,09:56:45,10:16:22,NA,incomplete,181,race,3,1,right,C_F_14.jpg,A_F_07.jpg,C_M_05.jpg,right,1191.5600000065751,true,low,NA,NA,NA,NA,NA,NA,NA,false
dQTbqUVm,39tx062qy41yb4nrucnyjag7oeq3xx,3ixeico796wseqzjz6p1qu3dy9t6tg,dQTbqUVm,2020-0188,2020-11-17,09:56:45,10:16:22,NA,incomplete,182,race,3,1,left,C_F_08.jpg,C_M_07.jpg,A_F_09.jpg,right,1056.6499999840744,false,low,NA,NA,NA,NA,NA,NA,NA,false
dQTbqUVm,39tx062qy41yb4nrucnyjag7oeq3xx,3ixeico796wseqzjz6p1qu3dy9t6tg,dQTbqUVm,2020-0188,2020-11-17,09:56:45,10:16:22,NA,incomplete,183,race,3,1,right,A_F_03.jpg,C_F_14.jpg,A_M_07.jpg,right,960.9000000054948,true,low,NA,NA,NA,NA,NA,NA,NA,false
dQTbqUVm,39tx062qy41yb4nrucnyjag7oeq3xx,3ixeico796wseqzjz6p1qu3dy9t6tg,dQTbqUVm,2020-0188,2020-11-17,09:56:45,10:16:22,NA,incomplete,184,race,3,1,left,C_M_07.jpg,C_F_11.jpg,A_M_14.jpg,left,1247.6249999599531,true,low,NA,NA,NA,NA,NA,NA,NA,false
dQTbqUVm,39tx062qy41yb4nrucnyjag7oeq3xx,3ixeico796wseqzjz6p1qu3dy9t6tg,dQTbqUVm,2020-0188,2020-11-17,09:56:45,10:16:22,NA,incomplete,185,race,3,1,right,A_M_07.jpg,C_M_11.jpg,A_F_15.jpg,right,939.5650000078604,true,low,NA,NA,NA,NA,NA,NA,NA,false
dQTbqUVm,39tx062qy41yb4nrucnyjag7oeq3xx,3ixeico796wseqzjz6p1qu3dy9t6tg,dQTbqUVm,2020-0188,2020-11-17,09:56:45,10:16:22,NA,incomplete,186,race,3,0,right,A_M_05.jpg,C_M_08.jpg,A_F_03.jpg,right,1007.3149999952875,true,low,NA,NA,NA,NA,NA,NA,NA,false
dQTbqUVm,39tx062qy41yb4nrucnyjag7oeq3xx,3ixeico796wseqzjz6p1qu3dy9t6tg,dQTbqUVm,2020-0188,2020-11-17,09:56:45,10:16:22,NA,incomplete,187,race,3,1,right,A_F_04.jpg,C_F_02.jpg,A_M_14.jpg,right,1059.110000031069,true,low,NA,NA,NA,NA,NA,NA,NA,false
dQTbqUVm,39tx062qy41yb4nrucnyjag7oeq3xx,3ixeico796wseqzjz6p1qu3dy9t6tg,dQTbqUVm,2020-0188,2020-11-17,09:56:45,10:16:22,NA,incomplete,188,race,3,0,left,C_M_08.jpg,C_F_03.jpg,A_M_15.jpg,left,914.1299999901094,true,low,NA,NA,NA,NA,NA,NA,NA,false
dQTbqUVm,39tx062qy41yb4nrucnyjag7oeq3xx,3ixeico796wseqzjz6p1qu3dy9t6tg,dQTbqUVm,2020-0188,2020-11-17,09:56:45,10:16:22,NA,incomplete,189,race,3,1,right,C_M_09.jpg,A_M_16.jpg,C_F_11.jpg,right,1366.6550000198185,true,low,NA,NA,NA,NA,NA,NA,NA,false
dQTbqUVm,39tx062qy41yb4nrucnyjag7oeq3xx,3ixeico796wseqzjz6p1qu3dy9t6tg,dQTbqUVm,2020-0188,2020-11-17,09:56:45,10:16:22,NA,incomplete,190,race,3,0,left,C_F_07.jpg,C_M_16.jpg,A_F_08.jpg,left,1524.2899999720976,true,low,NA,NA,NA,NA,NA,NA,NA,false
dQTbqUVm,39tx062qy41yb4nrucnyjag7oeq3xx,3ixeico796wseqzjz6p1qu3dy9t6tg,dQTbqUVm,2020-0188,2020-11-17,09:56:45,10:16:22,NA,incomplete,191,race,3,1,left,C_F_11.jpg,C_M_07.jpg,A_F_12.jpg,left,1277.9349999618717,true,low,NA,NA,NA,NA,NA,NA,NA,false
dQTbqUVm,39tx062qy41yb4nrucnyjag7oeq3xx,3ixeico796wseqzjz6p1qu3dy9t6tg,dQTbqUVm,2020-0188,2020-11-17,09:56:45,10:16:22,NA,incomplete,192,race,3,1,left,A_F_14.jpg,A_M_16.jpg,C_F_08.jpg,left,1114.4300000160001,true,low,NA,NA,NA,NA,NA,NA,NA,false
dQTbqUVm,39tx062qy41yb4nrucnyjag7oeq3xx,3ixeico796wseqzjz6p1qu3dy9t6tg,dQTbqUVm,2020-0188,2020-11-17,09:56:45,10:16:22,NA,incomplete,193,race,3,0,right,A_M_16.jpg,C_M_14.jpg,A_F_07.jpg,right,1229.7050000051968,true,low,NA,NA,NA,NA,NA,NA,NA,false
dQTbqUVm,39tx062qy41yb4nrucnyjag7oeq3xx,3ixeico796wseqzjz6p1qu3dy9t6tg,dQTbqUVm,2020-0188,2020-11-17,09:56:45,10:16:22,NA,incomplete,194,race,3,1,left,C_M_15.jpg,C_F_16.jpg,A_M_06.jpg,left,956.9250000058673,true,low,NA,NA,NA,NA,NA,NA,NA,false
dQTbqUVm,39tx062qy41yb4nrucnyjag7oeq3xx,3ixeico796wseqzjz6p1qu3dy9t6tg,dQTbqUVm,2020-0188,2020-11-17,09:56:45,10:16:22,NA,incomplete,195,race,3,1,right,C_F_03.jpg,A_F_06.jpg,C_M_01.jpg,right,1550.054999999702,true,low,NA,NA,NA,NA,NA,NA,NA,false
dQTbqUVm,39tx062qy41yb4nrucnyjag7oeq3xx,3ixeico796wseqzjz6p1qu3dy9t6tg,dQTbqUVm,2020-0188,2020-11-17,09:56:45,10:16:22,NA,incomplete,196,race,3,1,left,C_M_14.jpg,C_F_03.jpg,A_M_04.jpg,left,1146.2900000042282,true,low,NA,NA,NA,NA,NA,NA,NA,false
dQTbqUVm,39tx062qy41yb4nrucnyjag7oeq3xx,3ixeico796wseqzjz6p1qu3dy9t6tg,dQTbqUVm,2020-0188,2020-11-17,09:56:45,10:16:22,NA,incomplete,197,race,3,1,left,C_M_11.jpg,C_F_09.jpg,A_M_04.jpg,left,1052.2299999720417,true,low,NA,NA,NA,NA,NA,NA,NA,false
dQTbqUVm,39tx062qy41yb4nrucnyjag7oeq3xx,3ixeico796wseqzjz6p1qu3dy9t6tg,dQTbqUVm,2020-0188,2020-11-17,09:56:45,10:16:22,NA,incomplete,198,race,3,1,right,A_M_04.jpg,C_M_13.jpg,A_F_15.jpg,right,853.2199999899603,true,low,NA,NA,NA,NA,NA,NA,NA,false
dQTbqUVm,39tx062qy41yb4nrucnyjag7oeq3xx,3ixeico796wseqzjz6p1qu3dy9t6tg,dQTbqUVm,2020-0188,2020-11-17,09:56:45,10:16:22,NA,incomplete,199,race,3,1,left,C_M_04.jpg,C_F_09.jpg,A_M_16.jpg,left,999.4750000187196,true,low,NA,NA,NA,NA,NA,NA,NA,false
dQTbqUVm,39tx062qy41yb4nrucnyjag7oeq3xx,3ixeico796wseqzjz6p1qu3dy9t6tg,dQTbqUVm,2020-0188,2020-11-17,09:56:45,10:16:22,NA,incomplete,200,gender,2,0,right,A_F_15.jpg,A_M_05.jpg,C_F_16.jpg,left,917.0099999755621,false,low,NA,NA,NA,NA,NA,NA,NA,false
dQTbqUVm,39tx062qy41yb4nrucnyjag7oeq3xx,3ixeico796wseqzjz6p1qu3dy9t6tg,dQTbqUVm,2020-0188,2020-11-17,09:56:45,10:16:22,NA,incomplete,201,gender,2,1,left,A_M_08.jpg,C_M_04.jpg,A_F_16.jpg,right,934.4350000028498,false,low,NA,NA,NA,NA,NA,NA,NA,false
dQTbqUVm,39tx062qy41yb4nrucnyjag7oeq3xx,3ixeico796wseqzjz6p1qu3dy9t6tg,dQTbqUVm,2020-0188,2020-11-17,09:56:45,10:16:22,NA,incomplete,202,gender,2,1,left,C_M_04.jpg,A_M_13.jpg,C_F_14.jpg,right,1153.3899999922141,false,low,NA,NA,NA,NA,NA,NA,NA,false
dQTbqUVm,39tx062qy41yb4nrucnyjag7oeq3xx,3ixeico796wseqzjz6p1qu3dy9t6tg,dQTbqUVm,2020-0188,2020-11-17,09:56:45,10:16:22,NA,incomplete,203,gender,2,1,right,A_M_09.jpg,A_F_01.jpg,C_M_05.jpg,right,1268.3199999737553,true,low,NA,NA,NA,NA,NA,NA,NA,false
dQTbqUVm,39tx062qy41yb4nrucnyjag7oeq3xx,3ixeico796wseqzjz6p1qu3dy9t6tg,dQTbqUVm,2020-0188,2020-11-17,09:56:45,10:16:22,NA,incomplete,204,gender,2,1,left,A_F_15.jpg,C_F_13.jpg,A_M_03.jpg,left,1494.5049999514595,true,low,NA,NA,NA,NA,NA,NA,NA,false
dQTbqUVm,39tx062qy41yb4nrucnyjag7oeq3xx,3ixeico796wseqzjz6p1qu3dy9t6tg,dQTbqUVm,2020-0188,2020-11-17,09:56:45,10:16:22,NA,incomplete,205,gender,2,1,right,A_F_01.jpg,A_M_08.jpg,C_F_12.jpg,right,1688.2100000511855,true,low,NA,NA,NA,NA,NA,NA,NA,false
dQTbqUVm,39tx062qy41yb4nrucnyjag7oeq3xx,3ixeico796wseqzjz6p1qu3dy9t6tg,dQTbqUVm,2020-0188,2020-11-17,09:56:45,10:16:22,NA,incomplete,206,gender,2,1,right,C_F_15.jpg,C_M_08.jpg,A_F_09.jpg,left,1401.6200000187382,false,low,NA,NA,NA,NA,NA,NA,NA,false
dQTbqUVm,39tx062qy41yb4nrucnyjag7oeq3xx,3ixeico796wseqzjz6p1qu3dy9t6tg,dQTbqUVm,2020-0188,2020-11-17,09:56:45,10:16:22,NA,incomplete,207,gender,2,0,left,A_M_15.jpg,C_M_01.jpg,A_F_13.jpg,left,1048.8950000144541,true,low,NA,NA,NA,NA,NA,NA,NA,false
dQTbqUVm,39tx062qy41yb4nrucnyjag7oeq3xx,3ixeico796wseqzjz6p1qu3dy9t6tg,dQTbqUVm,2020-0188,2020-11-17,09:56:45,10:16:22,NA,incomplete,208,gender,2,1,right,A_F_04.jpg,A_M_12.jpg,C_F_09.jpg,right,906.9099999614991,true,low,NA,NA,NA,NA,NA,NA,NA,false
dQTbqUVm,39tx062qy41yb4nrucnyjag7oeq3xx,3ixeico796wseqzjz6p1qu3dy9t6tg,dQTbqUVm,2020-0188,2020-11-17,09:56:45,10:16:22,NA,incomplete,209,gender,2,1,right,A_M_04.jpg,A_F_11.jpg,C_M_13.jpg,right,1430.1899999845773,true,low,NA,NA,NA,NA,NA,NA,NA,false
dQTbqUVm,39tx062qy41yb4nrucnyjag7oeq3xx,3ixeico796wseqzjz6p1qu3dy9t6tg,dQTbqUVm,2020-0188,2020-11-17,09:56:45,10:16:22,NA,incomplete,210,gender,2,0,left,C_M_07.jpg,A_M_10.jpg,C_F_06.jpg,left,1384.7749999840744,true,low,NA,NA,NA,NA,NA,NA,NA,false
dQTbqUVm,39tx062qy41yb4nrucnyjag7oeq3xx,3ixeico796wseqzjz6p1qu3dy9t6tg,dQTbqUVm,2020-0188,2020-11-17,09:56:45,10:16:22,NA,incomplete,211,gender,2,1,right,C_F_11.jpg,C_M_05.jpg,A_F_02.jpg,right,917.4149999744259,true,low,NA,NA,NA,NA,NA,NA,NA,false
dQTbqUVm,39tx062qy41yb4nrucnyjag7oeq3xx,3ixeico796wseqzjz6p1qu3dy9t6tg,dQTbqUVm,2020-0188,2020-11-17,09:56:45,10:16:22,NA,incomplete,212,gender,2,1,right,A_M_04.jpg,A_F_16.jpg,C_M_09.jpg,right,851.1350000044331,true,low,NA,NA,NA,NA,NA,NA,NA,false
dQTbqUVm,39tx062qy41yb4nrucnyjag7oeq3xx,3ixeico796wseqzjz6p1qu3dy9t6tg,dQTbqUVm,2020-0188,2020-11-17,09:56:45,10:16:22,NA,incomplete,213,gender,2,0,left,C_M_06.jpg,A_M_08.jpg,C_F_11.jpg,left,1146.85499999905,true,low,NA,NA,NA,NA,NA,NA,NA,false
dQTbqUVm,39tx062qy41yb4nrucnyjag7oeq3xx,3ixeico796wseqzjz6p1qu3dy9t6tg,dQTbqUVm,2020-0188,2020-11-17,09:56:45,10:16:22,NA,incomplete,214,gender,2,1,left,C_M_12.jpg,A_M_01.jpg,C_F_16.jpg,left,890.0500000454485,true,low,NA,NA,NA,NA,NA,NA,NA,false
dQTbqUVm,39tx062qy41yb4nrucnyjag7oeq3xx,3ixeico796wseqzjz6p1qu3dy9t6tg,dQTbqUVm,2020-0188,2020-11-17,09:56:45,10:16:22,NA,incomplete,215,gender,2,0,right,C_M_02.jpg,C_F_15.jpg,A_M_13.jpg,right,729.4799999799579,true,low,NA,NA,NA,NA,NA,NA,NA,false
dQTbqUVm,39tx062qy41yb4nrucnyjag7oeq3xx,3ixeico796wseqzjz6p1qu3dy9t6tg,dQTbqUVm,2020-0188,2020-11-17,09:56:45,10:16:22,NA,incomplete,216,gender,2,1,left,A_M_03.jpg,C_M_04.jpg,A_F_06.jpg,right,1486.3299999851733,false,low,NA,NA,NA,NA,NA,NA,NA,false
dQTbqUVm,39tx062qy41yb4nrucnyjag7oeq3xx,3ixeico796wseqzjz6p1qu3dy9t6tg,dQTbqUVm,2020-0188,2020-11-17,09:56:45,10:16:22,NA,incomplete,217,gender,2,1,right,A_F_08.jpg,A_M_07.jpg,C_F_09.jpg,right,898.6950000398792,true,low,NA,NA,NA,NA,NA,NA,NA,false
dQTbqUVm,39tx062qy41yb4nrucnyjag7oeq3xx,3ixeico796wseqzjz6p1qu3dy9t6tg,dQTbqUVm,2020-0188,2020-11-17,09:56:45,10:16:22,NA,incomplete,218,gender,2,1,left,C_F_07.jpg,A_F_03.jpg,C_M_06.jpg,left,746.9350000028498,true,low,NA,NA,NA,NA,NA,NA,NA,false
dQTbqUVm,39tx062qy41yb4nrucnyjag7oeq3xx,3ixeico796wseqzjz6p1qu3dy9t6tg,dQTbqUVm,2020-0188,2020-11-17,09:56:45,10:16:22,NA,incomplete,219,gender,2,1,right,A_M_14.jpg,A_F_03.jpg,C_M_16.jpg,left,1089.7700000205077,false,low,NA,NA,NA,NA,NA,NA,NA,false
dQTbqUVm,39tx062qy41yb4nrucnyjag7oeq3xx,3ixeico796wseqzjz6p1qu3dy9t6tg,dQTbqUVm,2020-0188,2020-11-17,09:56:45,10:16:22,NA,incomplete,220,race,3,1,left,A_F_16.jpg,A_M_07.jpg,C_F_03.jpg,right,889.4100000034086,false,low,NA,NA,NA,NA,NA,NA,NA,false
dQTbqUVm,39tx062qy41yb4nrucnyjag7oeq3xx,3ixeico796wseqzjz6p1qu3dy9t6tg,dQTbqUVm,2020-0188,2020-11-17,09:56:45,10:16:22,NA,incomplete,221,race,3,1,left,C_M_15.jpg,C_F_13.jpg,A_M_01.jpg,right,775.290000019595,false,low,NA,NA,NA,NA,NA,NA,NA,false
dQTbqUVm,39tx062qy41yb4nrucnyjag7oeq3xx,3ixeico796wseqzjz6p1qu3dy9t6tg,dQTbqUVm,2020-0188,2020-11-17,09:56:45,10:16:22,NA,incomplete,222,race,3,1,right,C_F_01.jpg,A_F_13.jpg,C_M_03.jpg,right,1192.0199999585748,true,low,NA,NA,NA,NA,NA,NA,NA,false
dQTbqUVm,39tx062qy41yb4nrucnyjag7oeq3xx,3ixeico796wseqzjz6p1qu3dy9t6tg,dQTbqUVm,2020-0188,2020-11-17,09:56:45,10:16:22,NA,incomplete,223,race,3,0,left,A_M_14.jpg,A_F_09.jpg,C_M_08.jpg,left,996.3950000237674,true,low,NA,NA,NA,NA,NA,NA,NA,false
dQTbqUVm,39tx062qy41yb4nrucnyjag7oeq3xx,3ixeico796wseqzjz6p1qu3dy9t6tg,dQTbqUVm,2020-0188,2020-11-17,09:56:45,10:16:22,NA,incomplete,224,race,3,1,left,A_M_07.jpg,A_F_09.jpg,C_M_11.jpg,left,1064.4250000477768,true,low,NA,NA,NA,NA,NA,NA,NA,false
dQTbqUVm,39tx062qy41yb4nrucnyjag7oeq3xx,3ixeico796wseqzjz6p1qu3dy9t6tg,dQTbqUVm,2020-0188,2020-11-17,09:56:45,10:16:22,NA,incomplete,225,race,3,0,right,C_F_11.jpg,A_F_09.jpg,C_M_08.jpg,right,1126.9949999987148,true,low,NA,NA,NA,NA,NA,NA,NA,false
dQTbqUVm,39tx062qy41yb4nrucnyjag7oeq3xx,3ixeico796wseqzjz6p1qu3dy9t6tg,dQTbqUVm,2020-0188,2020-11-17,09:56:45,10:16:22,NA,incomplete,226,race,3,1,left,A_M_07.jpg,A_F_06.jpg,C_M_15.jpg,left,881.1749999877065,true,low,NA,NA,NA,NA,NA,NA,NA,false
dQTbqUVm,39tx062qy41yb4nrucnyjag7oeq3xx,3ixeico796wseqzjz6p1qu3dy9t6tg,dQTbqUVm,2020-0188,2020-11-17,09:56:45,10:16:22,NA,incomplete,227,race,3,1,left,C_F_09.jpg,C_M_11.jpg,A_F_16.jpg,left,1081.5900000161491,true,low,NA,NA,NA,NA,NA,NA,NA,false
dQTbqUVm,39tx062qy41yb4nrucnyjag7oeq3xx,3ixeico796wseqzjz6p1qu3dy9t6tg,dQTbqUVm,2020-0188,2020-11-17,09:56:45,10:16:22,NA,incomplete,228,race,3,1,left,C_M_07.jpg,C_F_16.jpg,A_M_06.jpg,left,1537.9700000048615,true,low,NA,NA,NA,NA,NA,NA,NA,false
dQTbqUVm,39tx062qy41yb4nrucnyjag7oeq3xx,3ixeico796wseqzjz6p1qu3dy9t6tg,dQTbqUVm,2020-0188,2020-11-17,09:56:45,10:16:22,NA,incomplete,229,race,3,1,right,C_F_13.jpg,A_F_07.jpg,C_M_08.jpg,right,1394.6949999663047,true,low,NA,NA,NA,NA,NA,NA,NA,false
dQTbqUVm,39tx062qy41yb4nrucnyjag7oeq3xx,3ixeico796wseqzjz6p1qu3dy9t6tg,dQTbqUVm,2020-0188,2020-11-17,09:56:45,10:16:22,NA,incomplete,230,race,3,0,left,A_F_07.jpg,A_M_15.jpg,C_F_02.jpg,left,1550.554999965243,true,low,NA,NA,NA,NA,NA,NA,NA,false
dQTbqUVm,39tx062qy41yb4nrucnyjag7oeq3xx,3ixeico796wseqzjz6p1qu3dy9t6tg,dQTbqUVm,2020-0188,2020-11-17,09:56:45,10:16:22,NA,incomplete,231,race,3,1,right,A_F_16.jpg,C_F_11.jpg,A_M_05.jpg,right,1078.2649999600835,true,low,NA,NA,NA,NA,NA,NA,NA,false
dQTbqUVm,39tx062qy41yb4nrucnyjag7oeq3xx,3ixeico796wseqzjz6p1qu3dy9t6tg,dQTbqUVm,2020-0188,2020-11-17,09:56:45,10:16:22,NA,incomplete,232,race,3,1,left,C_F_10.jpg,C_M_09.jpg,A_F_11.jpg,left,1016.730000032112,true,low,NA,NA,NA,NA,NA,NA,NA,false
dQTbqUVm,39tx062qy41yb4nrucnyjag7oeq3xx,3ixeico796wseqzjz6p1qu3dy9t6tg,dQTbqUVm,2020-0188,2020-11-17,09:56:45,10:16:22,NA,incomplete,233,race,3,1,right,A_M_03.jpg,C_M_06.jpg,A_F_13.jpg,right,1066.2049999809824,true,low,NA,NA,NA,NA,NA,NA,NA,false
dQTbqUVm,39tx062qy41yb4nrucnyjag7oeq3xx,3ixeico796wseqzjz6p1qu3dy9t6tg,dQTbqUVm,2020-0188,2020-11-17,09:56:45,10:16:22,NA,incomplete,234,race,3,1,left,C_M_11.jpg,C_F_02.jpg,A_M_15.jpg,left,1133.094999997411,true,low,NA,NA,NA,NA,NA,NA,NA,false
dQTbqUVm,39tx062qy41yb4nrucnyjag7oeq3xx,3ixeico796wseqzjz6p1qu3dy9t6tg,dQTbqUVm,2020-0188,2020-11-17,09:56:45,10:16:22,NA,incomplete,235,race,3,0,right,A_M_12.jpg,C_M_16.jpg,A_F_05.jpg,right,1080.214999965392,true,low,NA,NA,NA,NA,NA,NA,NA,false
dQTbqUVm,39tx062qy41yb4nrucnyjag7oeq3xx,3ixeico796wseqzjz6p1qu3dy9t6tg,dQTbqUVm,2020-0188,2020-11-17,09:56:45,10:16:22,NA,incomplete,236,race,3,1,left,C_F_16.jpg,C_M_08.jpg,A_F_14.jpg,left,1372.144999972079,true,low,NA,NA,NA,NA,NA,NA,NA,false
dQTbqUVm,39tx062qy41yb4nrucnyjag7oeq3xx,3ixeico796wseqzjz6p1qu3dy9t6tg,dQTbqUVm,2020-0188,2020-11-17,09:56:45,10:16:22,NA,incomplete,237,race,3,1,left,C_F_03.jpg,C_M_05.jpg,A_F_16.jpg,left,1191.8149999692105,true,low,NA,NA,NA,NA,NA,NA,NA,false
dQTbqUVm,39tx062qy41yb4nrucnyjag7oeq3xx,3ixeico796wseqzjz6p1qu3dy9t6tg,dQTbqUVm,2020-0188,2020-11-17,09:56:45,10:16:22,NA,incomplete,238,race,3,0,right,C_F_01.jpg,A_F_08.jpg,C_M_06.jpg,right,1260.4000000283122,true,low,NA,NA,NA,NA,NA,NA,NA,false
dQTbqUVm,39tx062qy41yb4nrucnyjag7oeq3xx,3ixeico796wseqzjz6p1qu3dy9t6tg,dQTbqUVm,2020-0188,2020-11-17,09:56:45,10:16:22,NA,incomplete,239,race,3,1,right,A_M_05.jpg,C_M_11.jpg,A_F_01.jpg,right,1140.2150000212714,true,low,NA,NA,NA,NA,NA,NA,NA,false
dQTbqUVm,39tx062qy41yb4nrucnyjag7oeq3xx,3ixeico796wseqzjz6p1qu3dy9t6tg,dQTbqUVm,2020-0188,2020-11-17,09:56:45,10:16:22,NA,NA,instruction example,filling,NA,NA,NA,Red_Plus_Stripes_2.jpg,Purple_Triangle_Stripes_1.jpg,Green_Plus_Dots_4.jpg,NA,NA,NA,NA,NA,NA,NA,NA,NA,NA,NA,undefined
dQTbqUVm,39tx062qy41yb4nrucnyjag7oeq3xx,3ixeico796wseqzjz6p1qu3dy9t6tg,dQTbqUVm,2020-0188,2020-11-17,09:56:45,10:16:22,NA,NA,instruction example,filling,NA,NA,NA,Purple_Triangle_Grid_3.jpg,Red_Triangle_Chess_1.jpg,Green_Circle_Grid_4.jpg,NA,NA,NA,NA,NA,NA,NA,NA,NA,NA,NA,undefined
dQTbqUVm,39tx062qy41yb4nrucnyjag7oeq3xx,3ixeico796wseqzjz6p1qu3dy9t6tg,dQTbqUVm,2020-0188,2020-11-17,09:56:45,10:16:22,NA,NA,instruction example,filling,NA,NA,NA,A_M_07.jpg,C_M_16.jpg,A_F_12.jpg,NA,NA,NA,NA,NA,NA,NA,NA,NA,NA,NA,undefined
dQTbqUVm,39tx062qy41yb4nrucnyjag7oeq3xx,3ixeico796wseqzjz6p1qu3dy9t6tg,dQTbqUVm,2020-0188,2020-11-17,09:56:45,10:16:22,NA,NA,instruction example,filling,NA,NA,NA,C_F_09.jpg,C_M_14.jpg,A_F_01.jpg,NA,NA,NA,NA,NA,NA,NA,NA,NA,NA,NA,undefined
dQTbqUVm,39tx062qy41yb4nrucnyjag7oeq3xx,3ixeico796wseqzjz6p1qu3dy9t6tg,dQTbqUVm,2020-0188,2020-11-17,09:56:45,10:16:22,1134679.1000000085,1178708.8149999618,NA,NA,NA,NA,NA,NA,NA,NA,NA,NA,NA,NA,44,White/Caucasian,Male,American,no,yes,no,undefined
