workerId,hitId,assignmentId,subject,studyid,exp_date,exp_start,exp_end,time_start,time_end,trial,type,sequence,reward_validity,answer,image_top,image_left,image_right,response,response_time,response_acc,volatility,practice
aBWLU16Q,32204agabep2jqz0kncwzihmy16hgu,3jc6vj2safwrgq0wonof3jzkk2sa58,aBWLU16Q,2020-0188,2020-06-16,12:17:44,12:35:30,NA,incomplete,0,shape,0,1,right,Green_Circle_Grid_3.jpg,Purple_Triangle_Dots_3.jpg,Red_Circle_Stripes_2.jpg,none,0,false,NA,true
aBWLU16Q,32204agabep2jqz0kncwzihmy16hgu,3jc6vj2safwrgq0wonof3jzkk2sa58,aBWLU16Q,2020-0188,2020-06-16,12:17:44,12:35:30,NA,incomplete,1,shape,0,1,left,Blue_Star_Dots_1.jpg,Red_Star_Chess_3.jpg,Purple_Circle_Grid_1.jpg,left,1323.0650001205504,true,NA,true
aBWLU16Q,32204agabep2jqz0kncwzihmy16hgu,3jc6vj2safwrgq0wonof3jzkk2sa58,aBWLU16Q,2020-0188,2020-06-16,12:17:44,12:35:30,NA,incomplete,2,shape,0,0,left,Green_Triangle_Chess_3.jpg,Purple_Triangle_Grid_4.jpg,Red_Circle_Dots_3.jpg,left,1132.0849999319762,true,NA,true
aBWLU16Q,32204agabep2jqz0kncwzihmy16hgu,3jc6vj2safwrgq0wonof3jzkk2sa58,aBWLU16Q,2020-0188,2020-06-16,12:17:44,12:35:30,NA,incomplete,3,shape,0,1,right,Purple_Circle_Grid_4.jpg,Green_Star_Chess_4.jpg,Blue_Circle_Stripes_3.jpg,right,974.6850000228733,true,NA,true
aBWLU16Q,32204agabep2jqz0kncwzihmy16hgu,3jc6vj2safwrgq0wonof3jzkk2sa58,aBWLU16Q,2020-0188,2020-06-16,12:17:44,12:35:30,NA,incomplete,4,shape,0,1,right,Green_Triangle_Grid_3.jpg,Red_Circle_Chess_3.jpg,Blue_Triangle_Dots_2.jpg,right,1124.2300001904368,true,NA,true
aBWLU16Q,32204agabep2jqz0kncwzihmy16hgu,3jc6vj2safwrgq0wonof3jzkk2sa58,aBWLU16Q,2020-0188,2020-06-16,12:17:44,12:35:30,NA,incomplete,5,shape,0,1,left,Green_Triangle_Chess_2.jpg,Purple_Triangle_Grid_1.jpg,Red_Circle_Stripes_2.jpg,left,870.7400001585484,true,NA,true
aBWLU16Q,32204agabep2jqz0kncwzihmy16hgu,3jc6vj2safwrgq0wonof3jzkk2sa58,aBWLU16Q,2020-0188,2020-06-16,12:17:44,12:35:30,NA,incomplete,6,shape,0,1,left,Blue_Plus_Chess_1.jpg,Red_Plus_Grid_2.jpg,Purple_Circle_Stripes_1.jpg,left,891.7950000613928,true,NA,true
aBWLU16Q,32204agabep2jqz0kncwzihmy16hgu,3jc6vj2safwrgq0wonof3jzkk2sa58,aBWLU16Q,2020-0188,2020-06-16,12:17:44,12:35:30,NA,incomplete,7,shape,0,1,left,Red_Triangle_Dots_1.jpg,Purple_Triangle_Stripes_3.jpg,Blue_Plus_Grid_1.jpg,left,789.6000000182539,true,NA,true
aBWLU16Q,32204agabep2jqz0kncwzihmy16hgu,3jc6vj2safwrgq0wonof3jzkk2sa58,aBWLU16Q,2020-0188,2020-06-16,12:17:44,12:35:30,NA,incomplete,8,shape,0,0,left,Blue_Circle_Stripes_4.jpg,Green_Circle_Grid_3.jpg,Red_Star_Chess_4.jpg,left,858.900000108406,true,NA,true
aBWLU16Q,32204agabep2jqz0kncwzihmy16hgu,3jc6vj2safwrgq0wonof3jzkk2sa58,aBWLU16Q,2020-0188,2020-06-16,12:17:44,12:35:30,NA,incomplete,9,shape,0,1,right,Purple_Star_Chess_4.jpg,Red_Triangle_Grid_4.jpg,Blue_Star_Stripes_3.jpg,right,1198.9150000736117,true,NA,true
aBWLU16Q,32204agabep2jqz0kncwzihmy16hgu,3jc6vj2safwrgq0wonof3jzkk2sa58,aBWLU16Q,2020-0188,2020-06-16,12:17:44,12:35:30,NA,incomplete,10,shape,0,1,right,Purple_Circle_Stripes_1.jpg,Green_Star_Dots_1.jpg,Red_Circle_Chess_2.jpg,right,1036.7449999321252,true,NA,true
aBWLU16Q,32204agabep2jqz0kncwzihmy16hgu,3jc6vj2safwrgq0wonof3jzkk2sa58,aBWLU16Q,2020-0188,2020-06-16,12:17:44,12:35:30,NA,incomplete,11,shape,0,1,left,Red_Triangle_Stripes_4.jpg,Blue_Triangle_Chess_3.jpg,Green_Plus_Dots_4.jpg,left,803.879999788478,true,NA,true
aBWLU16Q,32204agabep2jqz0kncwzihmy16hgu,3jc6vj2safwrgq0wonof3jzkk2sa58,aBWLU16Q,2020-0188,2020-06-16,12:17:44,12:35:30,NA,incomplete,12,shape,0,1,right,Blue_Triangle_Dots_1.jpg,Red_Plus_Chess_1.jpg,Purple_Triangle_Grid_3.jpg,right,780.3350000176579,true,NA,true
aBWLU16Q,32204agabep2jqz0kncwzihmy16hgu,3jc6vj2safwrgq0wonof3jzkk2sa58,aBWLU16Q,2020-0188,2020-06-16,12:17:44,12:35:30,NA,incomplete,13,shape,0,1,right,Red_Circle_Grid_1.jpg,Green_Plus_Dots_1.jpg,Purple_Circle_Chess_4.jpg,right,832.8549999278039,true,NA,true
aBWLU16Q,32204agabep2jqz0kncwzihmy16hgu,3jc6vj2safwrgq0wonof3jzkk2sa58,aBWLU16Q,2020-0188,2020-06-16,12:17:44,12:35:30,NA,incomplete,14,shape,0,1,left,Blue_Triangle_Grid_1.jpg,Green_Triangle_Dots_3.jpg,Purple_Plus_Stripes_1.jpg,left,713.4700000751764,true,NA,true
aBWLU16Q,32204agabep2jqz0kncwzihmy16hgu,3jc6vj2safwrgq0wonof3jzkk2sa58,aBWLU16Q,2020-0188,2020-06-16,12:17:44,12:35:30,NA,incomplete,15,shape,0,0,left,Blue_Plus_Grid_3.jpg,Red_Plus_Dots_2.jpg,Green_Triangle_Chess_3.jpg,left,890.6049998477101,true,NA,true
aBWLU16Q,32204agabep2jqz0kncwzihmy16hgu,3jc6vj2safwrgq0wonof3jzkk2sa58,aBWLU16Q,2020-0188,2020-06-16,12:17:44,12:35:30,NA,incomplete,16,shape,0,0,left,Green_Plus_Grid_2.jpg,Purple_Plus_Chess_3.jpg,Red_Circle_Stripes_2.jpg,left,1295.769999967888,true,NA,true
aBWLU16Q,32204agabep2jqz0kncwzihmy16hgu,3jc6vj2safwrgq0wonof3jzkk2sa58,aBWLU16Q,2020-0188,2020-06-16,12:17:44,12:35:30,NA,incomplete,17,shape,0,1,left,Green_Star_Dots_1.jpg,Purple_Star_Grid_2.jpg,Red_Circle_Stripes_1.jpg,left,1078.8100000936538,true,NA,true
aBWLU16Q,32204agabep2jqz0kncwzihmy16hgu,3jc6vj2safwrgq0wonof3jzkk2sa58,aBWLU16Q,2020-0188,2020-06-16,12:17:44,12:35:30,NA,incomplete,18,shape,0,1,right,Green_Triangle_Chess_1.jpg,Purple_Circle_Dots_1.jpg,Blue_Triangle_Grid_2.jpg,right,723.9399999380112,true,NA,true
aBWLU16Q,32204agabep2jqz0kncwzihmy16hgu,3jc6vj2safwrgq0wonof3jzkk2sa58,aBWLU16Q,2020-0188,2020-06-16,12:17:44,12:35:30,NA,incomplete,19,shape,0,1,right,Blue_Circle_Chess_1.jpg,Red_Star_Grid_1.jpg,Purple_Circle_Dots_4.jpg,right,1164.0550000593066,true,NA,true
aBWLU16Q,32204agabep2jqz0kncwzihmy16hgu,3jc6vj2safwrgq0wonof3jzkk2sa58,aBWLU16Q,2020-0188,2020-06-16,12:17:44,12:35:30,NA,incomplete,20,number,1,0,right,Blue_Triangle_Chess_1.jpg,Red_Triangle_Stripes_4.jpg,Purple_Circle_Grid_1.jpg,left,878.0549999792129,false,NA,true
aBWLU16Q,32204agabep2jqz0kncwzihmy16hgu,3jc6vj2safwrgq0wonof3jzkk2sa58,aBWLU16Q,2020-0188,2020-06-16,12:17:44,12:35:30,NA,incomplete,21,number,1,1,right,Green_Circle_Grid_3.jpg,Red_Circle_Chess_1.jpg,Purple_Star_Stripes_3.jpg,right,1787.335000000894,true,NA,true
aBWLU16Q,32204agabep2jqz0kncwzihmy16hgu,3jc6vj2safwrgq0wonof3jzkk2sa58,aBWLU16Q,2020-0188,2020-06-16,12:17:44,12:35:30,NA,incomplete,22,number,1,1,left,Green_Star_Dots_1.jpg,Purple_Plus_Chess_1.jpg,Blue_Star_Grid_3.jpg,right,1049.0550000686198,false,NA,true
aBWLU16Q,32204agabep2jqz0kncwzihmy16hgu,3jc6vj2safwrgq0wonof3jzkk2sa58,aBWLU16Q,2020-0188,2020-06-16,12:17:44,12:35:30,NA,incomplete,23,number,1,1,right,Green_Plus_Dots_1.jpg,Red_Plus_Chess_3.jpg,Purple_Triangle_Grid_1.jpg,left,1532.1849999018013,false,NA,true
aBWLU16Q,32204agabep2jqz0kncwzihmy16hgu,3jc6vj2safwrgq0wonof3jzkk2sa58,aBWLU16Q,2020-0188,2020-06-16,12:17:44,12:35:30,NA,incomplete,24,number,1,1,right,Purple_Circle_Chess_4.jpg,Blue_Circle_Dots_3.jpg,Red_Plus_Grid_4.jpg,right,1680.119999917224,true,NA,true
aBWLU16Q,32204agabep2jqz0kncwzihmy16hgu,3jc6vj2safwrgq0wonof3jzkk2sa58,aBWLU16Q,2020-0188,2020-06-16,12:17:44,12:35:30,NA,incomplete,25,number,1,1,right,Green_Triangle_Grid_3.jpg,Purple_Triangle_Stripes_2.jpg,Red_Plus_Chess_3.jpg,right,1201.1700000148267,true,NA,true
aBWLU16Q,32204agabep2jqz0kncwzihmy16hgu,3jc6vj2safwrgq0wonof3jzkk2sa58,aBWLU16Q,2020-0188,2020-06-16,12:17:44,12:35:30,NA,incomplete,26,number,1,1,left,Blue_Plus_Chess_4.jpg,Green_Circle_Dots_4.jpg,Red_Plus_Stripes_2.jpg,left,1232.8349999152124,true,NA,true
aBWLU16Q,32204agabep2jqz0kncwzihmy16hgu,3jc6vj2safwrgq0wonof3jzkk2sa58,aBWLU16Q,2020-0188,2020-06-16,12:17:44,12:35:30,NA,incomplete,27,number,1,0,right,Blue_Triangle_Stripes_3.jpg,Red_Triangle_Grid_4.jpg,Purple_Star_Chess_3.jpg,right,1116.8049999978393,true,NA,true
aBWLU16Q,32204agabep2jqz0kncwzihmy16hgu,3jc6vj2safwrgq0wonof3jzkk2sa58,aBWLU16Q,2020-0188,2020-06-16,12:17:44,12:35:30,NA,incomplete,28,number,1,1,right,Green_Star_Dots_2.jpg,Red_Star_Grid_3.jpg,Purple_Triangle_Stripes_2.jpg,right,1354.1149999946356,true,NA,true
aBWLU16Q,32204agabep2jqz0kncwzihmy16hgu,3jc6vj2safwrgq0wonof3jzkk2sa58,aBWLU16Q,2020-0188,2020-06-16,12:17:44,12:35:30,NA,incomplete,29,number,1,1,right,Purple_Triangle_Grid_3.jpg,Red_Triangle_Stripes_2.jpg,Green_Circle_Chess_3.jpg,right,1219.2250001244247,true,NA,true
aBWLU16Q,32204agabep2jqz0kncwzihmy16hgu,3jc6vj2safwrgq0wonof3jzkk2sa58,aBWLU16Q,2020-0188,2020-06-16,12:17:44,12:35:30,NA,incomplete,30,number,1,1,left,Purple_Star_Dots_2.jpg,Red_Circle_Grid_2.jpg,Blue_Star_Stripes_1.jpg,left,988.039999967441,true,NA,true
aBWLU16Q,32204agabep2jqz0kncwzihmy16hgu,3jc6vj2safwrgq0wonof3jzkk2sa58,aBWLU16Q,2020-0188,2020-06-16,12:17:44,12:35:30,NA,incomplete,31,number,1,1,left,Blue_Plus_Dots_1.jpg,Purple_Triangle_Grid_1.jpg,Green_Plus_Chess_2.jpg,left,960.2599998470396,true,NA,true
aBWLU16Q,32204agabep2jqz0kncwzihmy16hgu,3jc6vj2safwrgq0wonof3jzkk2sa58,aBWLU16Q,2020-0188,2020-06-16,12:17:44,12:35:30,NA,incomplete,32,number,1,1,right,Purple_Circle_Chess_2.jpg,Red_Circle_Grid_1.jpg,Blue_Triangle_Dots_2.jpg,right,809.9950000178069,true,NA,true
aBWLU16Q,32204agabep2jqz0kncwzihmy16hgu,3jc6vj2safwrgq0wonof3jzkk2sa58,aBWLU16Q,2020-0188,2020-06-16,12:17:44,12:35:30,NA,incomplete,33,number,1,0,right,Red_Triangle_Dots_1.jpg,Blue_Triangle_Stripes_4.jpg,Purple_Plus_Chess_1.jpg,right,1038.8200001325458,true,NA,true
aBWLU16Q,32204agabep2jqz0kncwzihmy16hgu,3jc6vj2safwrgq0wonof3jzkk2sa58,aBWLU16Q,2020-0188,2020-06-16,12:17:44,12:35:30,NA,incomplete,34,number,1,1,left,Blue_Plus_Stripes_2.jpg,Purple_Triangle_Grid_2.jpg,Green_Plus_Chess_1.jpg,left,1246.2899999227375,true,NA,true
aBWLU16Q,32204agabep2jqz0kncwzihmy16hgu,3jc6vj2safwrgq0wonof3jzkk2sa58,aBWLU16Q,2020-0188,2020-06-16,12:17:44,12:35:30,NA,incomplete,35,number,1,0,left,Blue_Star_Grid_3.jpg,Green_Plus_Dots_3.jpg,Purple_Star_Stripes_1.jpg,left,1177.909999853,true,NA,true
aBWLU16Q,32204agabep2jqz0kncwzihmy16hgu,3jc6vj2safwrgq0wonof3jzkk2sa58,aBWLU16Q,2020-0188,2020-06-16,12:17:44,12:35:30,NA,incomplete,36,number,1,1,left,Blue_Circle_Chess_1.jpg,Red_Triangle_Dots_1.jpg,Purple_Circle_Stripes_4.jpg,left,1159.9449999630451,true,NA,true
aBWLU16Q,32204agabep2jqz0kncwzihmy16hgu,3jc6vj2safwrgq0wonof3jzkk2sa58,aBWLU16Q,2020-0188,2020-06-16,12:17:44,12:35:30,NA,incomplete,37,number,1,1,left,Purple_Star_Stripes_1.jpg,Green_Circle_Dots_1.jpg,Blue_Star_Grid_4.jpg,left,878.4999998752028,true,NA,true
aBWLU16Q,32204agabep2jqz0kncwzihmy16hgu,3jc6vj2safwrgq0wonof3jzkk2sa58,aBWLU16Q,2020-0188,2020-06-16,12:17:44,12:35:30,NA,incomplete,38,number,1,1,right,Red_Circle_Dots_4.jpg,Purple_Circle_Chess_3.jpg,Green_Plus_Grid_4.jpg,right,1484.984999988228,true,NA,true
aBWLU16Q,32204agabep2jqz0kncwzihmy16hgu,3jc6vj2safwrgq0wonof3jzkk2sa58,aBWLU16Q,2020-0188,2020-06-16,12:17:44,12:35:30,NA,incomplete,39,number,1,1,left,Blue_Star_Chess_4.jpg,Red_Triangle_Grid_4.jpg,Green_Star_Dots_2.jpg,left,1019.5500000845641,true,NA,true
aBWLU16Q,32204agabep2jqz0kncwzihmy16hgu,3jc6vj2safwrgq0wonof3jzkk2sa58,aBWLU16Q,2020-0188,2020-06-16,12:17:44,12:35:30,NA,incomplete,0,shape,0,1,right,Red_Star_Dots_2.jpg,Purple_Triangle_Stripes_2.jpg,Green_Star_Chess_4.jpg,right,1158.1399999558926,true,high,false
aBWLU16Q,32204agabep2jqz0kncwzihmy16hgu,3jc6vj2safwrgq0wonof3jzkk2sa58,aBWLU16Q,2020-0188,2020-06-16,12:17:44,12:35:30,NA,incomplete,1,shape,0,0,right,Blue_Plus_Stripes_1.jpg,Red_Circle_Grid_1.jpg,Purple_Plus_Dots_4.jpg,right,833.7799999862909,true,high,false
aBWLU16Q,32204agabep2jqz0kncwzihmy16hgu,3jc6vj2safwrgq0wonof3jzkk2sa58,aBWLU16Q,2020-0188,2020-06-16,12:17:44,12:35:30,NA,incomplete,2,shape,0,1,right,Purple_Star_Stripes_4.jpg,Red_Circle_Grid_4.jpg,Green_Star_Chess_1.jpg,right,1167.8250001277775,true,high,false
aBWLU16Q,32204agabep2jqz0kncwzihmy16hgu,3jc6vj2safwrgq0wonof3jzkk2sa58,aBWLU16Q,2020-0188,2020-06-16,12:17:44,12:35:30,NA,incomplete,3,shape,0,1,right,Green_Circle_Dots_4.jpg,Purple_Triangle_Grid_4.jpg,Blue_Circle_Chess_3.jpg,right,1046.000000089407,true,high,false
aBWLU16Q,32204agabep2jqz0kncwzihmy16hgu,3jc6vj2safwrgq0wonof3jzkk2sa58,aBWLU16Q,2020-0188,2020-06-16,12:17:44,12:35:30,NA,incomplete,4,shape,0,1,left,Red_Triangle_Grid_4.jpg,Purple_Triangle_Dots_3.jpg,Green_Star_Stripes_4.jpg,left,1037.2800000477582,true,high,false
aBWLU16Q,32204agabep2jqz0kncwzihmy16hgu,3jc6vj2safwrgq0wonof3jzkk2sa58,aBWLU16Q,2020-0188,2020-06-16,12:17:44,12:35:30,NA,incomplete,5,shape,0,0,right,Red_Circle_Dots_1.jpg,Purple_Plus_Chess_1.jpg,Green_Circle_Stripes_4.jpg,right,1093.7100001610816,true,high,false
aBWLU16Q,32204agabep2jqz0kncwzihmy16hgu,3jc6vj2safwrgq0wonof3jzkk2sa58,aBWLU16Q,2020-0188,2020-06-16,12:17:44,12:35:30,NA,incomplete,6,shape,0,1,right,Green_Star_Chess_3.jpg,Blue_Triangle_Grid_3.jpg,Purple_Star_Stripes_4.jpg,right,1065.7399999909103,true,high,false
aBWLU16Q,32204agabep2jqz0kncwzihmy16hgu,3jc6vj2safwrgq0wonof3jzkk2sa58,aBWLU16Q,2020-0188,2020-06-16,12:17:44,12:35:30,NA,incomplete,7,shape,0,1,right,Blue_Triangle_Dots_3.jpg,Purple_Circle_Grid_3.jpg,Green_Triangle_Chess_2.jpg,right,1211.2700000870973,true,high,false
aBWLU16Q,32204agabep2jqz0kncwzihmy16hgu,3jc6vj2safwrgq0wonof3jzkk2sa58,aBWLU16Q,2020-0188,2020-06-16,12:17:44,12:35:30,NA,incomplete,8,shape,0,0,right,Red_Triangle_Chess_1.jpg,Blue_Plus_Grid_1.jpg,Purple_Triangle_Stripes_2.jpg,right,1136.5650000516325,true,high,false
aBWLU16Q,32204agabep2jqz0kncwzihmy16hgu,3jc6vj2safwrgq0wonof3jzkk2sa58,aBWLU16Q,2020-0188,2020-06-16,12:17:44,12:35:30,NA,incomplete,9,shape,0,1,right,Green_Triangle_Grid_3.jpg,Red_Circle_Stripes_3.jpg,Purple_Triangle_Dots_1.jpg,right,1689.4499999471009,true,high,false
aBWLU16Q,32204agabep2jqz0kncwzihmy16hgu,3jc6vj2safwrgq0wonof3jzkk2sa58,aBWLU16Q,2020-0188,2020-06-16,12:17:44,12:35:30,NA,incomplete,10,number,1,0,right,Blue_Circle_Stripes_3.jpg,Purple_Circle_Chess_4.jpg,Green_Triangle_Dots_3.jpg,right,762.0500000193715,true,high,false
aBWLU16Q,32204agabep2jqz0kncwzihmy16hgu,3jc6vj2safwrgq0wonof3jzkk2sa58,aBWLU16Q,2020-0188,2020-06-16,12:17:44,12:35:30,NA,incomplete,11,number,1,1,right,Green_Star_Stripes_3.jpg,Purple_Star_Dots_4.jpg,Red_Plus_Grid_3.jpg,left,1331.8600000347942,false,high,false
aBWLU16Q,32204agabep2jqz0kncwzihmy16hgu,3jc6vj2safwrgq0wonof3jzkk2sa58,aBWLU16Q,2020-0188,2020-06-16,12:17:44,12:35:30,NA,incomplete,12,number,1,0,left,Red_Triangle_Chess_3.jpg,Green_Circle_Dots_3.jpg,Purple_Triangle_Stripes_2.jpg,right,1457.4450000654906,false,high,false
aBWLU16Q,32204agabep2jqz0kncwzihmy16hgu,3jc6vj2safwrgq0wonof3jzkk2sa58,aBWLU16Q,2020-0188,2020-06-16,12:17:44,12:35:30,NA,incomplete,13,number,1,1,right,Green_Plus_Grid_3.jpg,Blue_Plus_Dots_4.jpg,Purple_Circle_Chess_3.jpg,left,1592.6749999634922,false,high,false
aBWLU16Q,32204agabep2jqz0kncwzihmy16hgu,3jc6vj2safwrgq0wonof3jzkk2sa58,aBWLU16Q,2020-0188,2020-06-16,12:17:44,12:35:30,NA,incomplete,14,number,1,1,left,Purple_Star_Chess_1.jpg,Red_Circle_Dots_1.jpg,Blue_Star_Grid_2.jpg,right,1154.6200001612306,false,high,false
aBWLU16Q,32204agabep2jqz0kncwzihmy16hgu,3jc6vj2safwrgq0wonof3jzkk2sa58,aBWLU16Q,2020-0188,2020-06-16,12:17:44,12:35:30,NA,incomplete,15,number,1,1,right,Red_Star_Chess_2.jpg,Blue_Star_Grid_4.jpg,Green_Plus_Dots_2.jpg,right,1231.7699999548495,true,high,false
aBWLU16Q,32204agabep2jqz0kncwzihmy16hgu,3jc6vj2safwrgq0wonof3jzkk2sa58,aBWLU16Q,2020-0188,2020-06-16,12:17:44,12:35:30,NA,incomplete,16,number,1,1,left,Red_Triangle_Grid_2.jpg,Purple_Star_Chess_2.jpg,Green_Triangle_Stripes_1.jpg,left,910.4999999981374,true,high,false
aBWLU16Q,32204agabep2jqz0kncwzihmy16hgu,3jc6vj2safwrgq0wonof3jzkk2sa58,aBWLU16Q,2020-0188,2020-06-16,12:17:44,12:35:30,NA,incomplete,17,number,1,1,right,Red_Triangle_Grid_1.jpg,Purple_Triangle_Chess_2.jpg,Green_Circle_Stripes_1.jpg,right,1931.5850001294166,true,high,false
aBWLU16Q,32204agabep2jqz0kncwzihmy16hgu,3jc6vj2safwrgq0wonof3jzkk2sa58,aBWLU16Q,2020-0188,2020-06-16,12:17:44,12:35:30,NA,incomplete,18,number,1,1,right,Red_Plus_Grid_2.jpg,Blue_Plus_Chess_4.jpg,Purple_Circle_Stripes_2.jpg,right,1331.5600000787526,true,high,false
aBWLU16Q,32204agabep2jqz0kncwzihmy16hgu,3jc6vj2safwrgq0wonof3jzkk2sa58,aBWLU16Q,2020-0188,2020-06-16,12:17:44,12:35:30,NA,incomplete,19,number,1,1,right,Purple_Plus_Grid_4.jpg,Blue_Plus_Stripes_1.jpg,Red_Star_Dots_4.jpg,right,1861.6750000510365,true,high,false
aBWLU16Q,32204agabep2jqz0kncwzihmy16hgu,3jc6vj2safwrgq0wonof3jzkk2sa58,aBWLU16Q,2020-0188,2020-06-16,12:17:44,12:35:30,NA,incomplete,20,shape,0,0,right,Blue_Plus_Chess_2.jpg,Purple_Circle_Grid_2.jpg,Red_Plus_Dots_1.jpg,left,1525.944999884814,false,high,false
aBWLU16Q,32204agabep2jqz0kncwzihmy16hgu,3jc6vj2safwrgq0wonof3jzkk2sa58,aBWLU16Q,2020-0188,2020-06-16,12:17:44,12:35:30,NA,incomplete,21,shape,0,1,right,Purple_Plus_Chess_2.jpg,Red_Circle_Dots_2.jpg,Green_Plus_Grid_1.jpg,left,1191.7200000025332,false,high,false
aBWLU16Q,32204agabep2jqz0kncwzihmy16hgu,3jc6vj2safwrgq0wonof3jzkk2sa58,aBWLU16Q,2020-0188,2020-06-16,12:17:44,12:35:30,NA,incomplete,22,shape,0,1,left,Blue_Triangle_Chess_3.jpg,Purple_Triangle_Grid_4.jpg,Green_Plus_Dots_3.jpg,right,1835.6449999846518,false,high,false
aBWLU16Q,32204agabep2jqz0kncwzihmy16hgu,3jc6vj2safwrgq0wonof3jzkk2sa58,aBWLU16Q,2020-0188,2020-06-16,12:17:44,12:35:30,NA,incomplete,23,shape,0,1,left,Green_Plus_Dots_3.jpg,Purple_Plus_Stripes_1.jpg,Blue_Circle_Chess_3.jpg,left,948.9500001072884,true,high,false
aBWLU16Q,32204agabep2jqz0kncwzihmy16hgu,3jc6vj2safwrgq0wonof3jzkk2sa58,aBWLU16Q,2020-0188,2020-06-16,12:17:44,12:35:30,NA,incomplete,24,shape,0,1,right,Blue_Plus_Chess_4.jpg,Red_Star_Grid_4.jpg,Purple_Plus_Dots_2.jpg,right,951.5899999532849,true,high,false
aBWLU16Q,32204agabep2jqz0kncwzihmy16hgu,3jc6vj2safwrgq0wonof3jzkk2sa58,aBWLU16Q,2020-0188,2020-06-16,12:17:44,12:35:30,NA,incomplete,25,shape,0,1,right,Red_Circle_Grid_4.jpg,Purple_Triangle_Chess_4.jpg,Blue_Circle_Dots_1.jpg,right,645.7249999511987,true,high,false
aBWLU16Q,32204agabep2jqz0kncwzihmy16hgu,3jc6vj2safwrgq0wonof3jzkk2sa58,aBWLU16Q,2020-0188,2020-06-16,12:17:44,12:35:30,NA,incomplete,26,shape,0,1,right,Blue_Star_Dots_1.jpg,Green_Triangle_Stripes_1.jpg,Purple_Star_Chess_2.jpg,right,1243.9949999097735,true,high,false
aBWLU16Q,32204agabep2jqz0kncwzihmy16hgu,3jc6vj2safwrgq0wonof3jzkk2sa58,aBWLU16Q,2020-0188,2020-06-16,12:17:44,12:35:30,NA,incomplete,27,shape,0,0,right,Blue_Triangle_Dots_3.jpg,Green_Plus_Chess_3.jpg,Red_Triangle_Stripes_4.jpg,right,1184.6400001086295,true,high,false
aBWLU16Q,32204agabep2jqz0kncwzihmy16hgu,3jc6vj2safwrgq0wonof3jzkk2sa58,aBWLU16Q,2020-0188,2020-06-16,12:17:44,12:35:30,NA,incomplete,28,shape,0,1,right,Blue_Plus_Dots_1.jpg,Green_Star_Chess_1.jpg,Purple_Plus_Grid_2.jpg,right,1673.2900000642985,true,high,false
aBWLU16Q,32204agabep2jqz0kncwzihmy16hgu,3jc6vj2safwrgq0wonof3jzkk2sa58,aBWLU16Q,2020-0188,2020-06-16,12:17:44,12:35:30,NA,incomplete,29,shape,0,0,right,Green_Triangle_Chess_3.jpg,Red_Star_Dots_3.jpg,Purple_Triangle_Grid_2.jpg,right,809.8350001964718,true,high,false
aBWLU16Q,32204agabep2jqz0kncwzihmy16hgu,3jc6vj2safwrgq0wonof3jzkk2sa58,aBWLU16Q,2020-0188,2020-06-16,12:17:44,12:35:30,NA,incomplete,30,number,1,0,right,Blue_Plus_Dots_4.jpg,Green_Plus_Stripes_3.jpg,Red_Star_Chess_4.jpg,left,957.5850002001971,false,high,false
aBWLU16Q,32204agabep2jqz0kncwzihmy16hgu,3jc6vj2safwrgq0wonof3jzkk2sa58,aBWLU16Q,2020-0188,2020-06-16,12:17:44,12:35:30,NA,incomplete,31,number,1,1,left,Red_Star_Dots_3.jpg,Purple_Circle_Grid_3.jpg,Blue_Star_Chess_1.jpg,right,795.4599999357015,false,high,false
aBWLU16Q,32204agabep2jqz0kncwzihmy16hgu,3jc6vj2safwrgq0wonof3jzkk2sa58,aBWLU16Q,2020-0188,2020-06-16,12:17:44,12:35:30,NA,incomplete,32,number,1,1,right,Red_Plus_Dots_2.jpg,Blue_Plus_Grid_1.jpg,Green_Circle_Chess_2.jpg,right,1518.7150000128895,true,high,false
aBWLU16Q,32204agabep2jqz0kncwzihmy16hgu,3jc6vj2safwrgq0wonof3jzkk2sa58,aBWLU16Q,2020-0188,2020-06-16,12:17:44,12:35:30,NA,incomplete,33,number,1,0,right,Purple_Plus_Stripes_2.jpg,Green_Plus_Chess_4.jpg,Red_Star_Grid_2.jpg,right,1143.8549999147654,true,high,false
aBWLU16Q,32204agabep2jqz0kncwzihmy16hgu,3jc6vj2safwrgq0wonof3jzkk2sa58,aBWLU16Q,2020-0188,2020-06-16,12:17:44,12:35:30,NA,incomplete,34,number,1,0,left,Red_Circle_Stripes_3.jpg,Purple_Star_Chess_3.jpg,Green_Circle_Grid_4.jpg,none,0,false,high,false
aBWLU16Q,32204agabep2jqz0kncwzihmy16hgu,3jc6vj2safwrgq0wonof3jzkk2sa58,aBWLU16Q,2020-0188,2020-06-16,12:17:44,12:35:30,NA,incomplete,35,number,1,1,left,Green_Plus_Grid_1.jpg,Purple_Circle_Stripes_1.jpg,Blue_Plus_Dots_2.jpg,right,837.9999999888241,false,high,false
aBWLU16Q,32204agabep2jqz0kncwzihmy16hgu,3jc6vj2safwrgq0wonof3jzkk2sa58,aBWLU16Q,2020-0188,2020-06-16,12:17:44,12:35:30,NA,incomplete,36,number,1,0,left,Green_Star_Stripes_4.jpg,Red_Circle_Chess_4.jpg,Purple_Star_Grid_1.jpg,left,1551.7749998252839,true,high,false
aBWLU16Q,32204agabep2jqz0kncwzihmy16hgu,3jc6vj2safwrgq0wonof3jzkk2sa58,aBWLU16Q,2020-0188,2020-06-16,12:17:44,12:35:30,NA,incomplete,37,number,1,1,right,Blue_Star_Chess_3.jpg,Purple_Star_Dots_1.jpg,Green_Circle_Stripes_3.jpg,left,1920.4400000162423,false,high,false
aBWLU16Q,32204agabep2jqz0kncwzihmy16hgu,3jc6vj2safwrgq0wonof3jzkk2sa58,aBWLU16Q,2020-0188,2020-06-16,12:17:44,12:35:30,NA,incomplete,38,number,1,1,left,Blue_Circle_Dots_2.jpg,Red_Triangle_Grid_2.jpg,Green_Circle_Chess_4.jpg,left,758.644999936223,true,high,false
aBWLU16Q,32204agabep2jqz0kncwzihmy16hgu,3jc6vj2safwrgq0wonof3jzkk2sa58,aBWLU16Q,2020-0188,2020-06-16,12:17:44,12:35:30,NA,incomplete,39,number,1,0,right,Green_Circle_Dots_1.jpg,Blue_Circle_Chess_2.jpg,Red_Plus_Stripes_1.jpg,left,870.7600000780076,false,high,false
aBWLU16Q,32204agabep2jqz0kncwzihmy16hgu,3jc6vj2safwrgq0wonof3jzkk2sa58,aBWLU16Q,2020-0188,2020-06-16,12:17:44,12:35:30,NA,incomplete,40,shape,0,1,left,Green_Plus_Stripes_1.jpg,Red_Plus_Chess_2.jpg,Purple_Star_Dots_1.jpg,right,1001.4450000599027,false,high,false
aBWLU16Q,32204agabep2jqz0kncwzihmy16hgu,3jc6vj2safwrgq0wonof3jzkk2sa58,aBWLU16Q,2020-0188,2020-06-16,12:17:44,12:35:30,NA,incomplete,41,shape,0,1,right,Green_Plus_Grid_1.jpg,Blue_Triangle_Stripes_1.jpg,Purple_Plus_Dots_2.jpg,right,1282.4499998241663,true,high,false
aBWLU16Q,32204agabep2jqz0kncwzihmy16hgu,3jc6vj2safwrgq0wonof3jzkk2sa58,aBWLU16Q,2020-0188,2020-06-16,12:17:44,12:35:30,NA,incomplete,42,shape,0,1,left,Green_Circle_Chess_3.jpg,Blue_Circle_Grid_1.jpg,Red_Triangle_Dots_3.jpg,right,1235.8899998944253,false,high,false
aBWLU16Q,32204agabep2jqz0kncwzihmy16hgu,3jc6vj2safwrgq0wonof3jzkk2sa58,aBWLU16Q,2020-0188,2020-06-16,12:17:44,12:35:30,NA,incomplete,43,shape,0,1,left,Blue_Star_Grid_2.jpg,Red_Star_Chess_1.jpg,Green_Triangle_Stripes_2.jpg,left,1012.7799999900162,true,high,false
aBWLU16Q,32204agabep2jqz0kncwzihmy16hgu,3jc6vj2safwrgq0wonof3jzkk2sa58,aBWLU16Q,2020-0188,2020-06-16,12:17:44,12:35:30,NA,incomplete,44,shape,0,1,right,Red_Triangle_Dots_3.jpg,Blue_Circle_Stripes_3.jpg,Purple_Triangle_Chess_1.jpg,right,942.6100000273436,true,high,false
aBWLU16Q,32204agabep2jqz0kncwzihmy16hgu,3jc6vj2safwrgq0wonof3jzkk2sa58,aBWLU16Q,2020-0188,2020-06-16,12:17:44,12:35:30,NA,incomplete,45,shape,0,1,right,Purple_Circle_Chess_1.jpg,Red_Plus_Stripes_1.jpg,Green_Circle_Dots_3.jpg,right,989.3350000493228,true,high,false
aBWLU16Q,32204agabep2jqz0kncwzihmy16hgu,3jc6vj2safwrgq0wonof3jzkk2sa58,aBWLU16Q,2020-0188,2020-06-16,12:17:44,12:35:30,NA,incomplete,46,shape,0,1,right,Purple_Plus_Stripes_2.jpg,Red_Triangle_Dots_2.jpg,Green_Plus_Chess_3.jpg,right,861.7700000759214,true,high,false
aBWLU16Q,32204agabep2jqz0kncwzihmy16hgu,3jc6vj2safwrgq0wonof3jzkk2sa58,aBWLU16Q,2020-0188,2020-06-16,12:17:44,12:35:30,NA,incomplete,47,shape,0,1,left,Green_Star_Chess_2.jpg,Red_Star_Dots_1.jpg,Purple_Triangle_Stripes_2.jpg,left,823.050000006333,true,high,false
aBWLU16Q,32204agabep2jqz0kncwzihmy16hgu,3jc6vj2safwrgq0wonof3jzkk2sa58,aBWLU16Q,2020-0188,2020-06-16,12:17:44,12:35:30,NA,incomplete,48,shape,0,1,left,Red_Star_Dots_4.jpg,Green_Star_Chess_3.jpg,Purple_Triangle_Grid_4.jpg,left,1336.8450000416487,true,high,false
aBWLU16Q,32204agabep2jqz0kncwzihmy16hgu,3jc6vj2safwrgq0wonof3jzkk2sa58,aBWLU16Q,2020-0188,2020-06-16,12:17:44,12:35:30,NA,incomplete,49,shape,0,1,right,Red_Star_Stripes_3.jpg,Blue_Plus_Chess_3.jpg,Green_Star_Grid_1.jpg,right,923.4050000086427,true,high,false
aBWLU16Q,32204agabep2jqz0kncwzihmy16hgu,3jc6vj2safwrgq0wonof3jzkk2sa58,aBWLU16Q,2020-0188,2020-06-16,12:17:44,12:35:30,NA,incomplete,50,number,1,0,left,Green_Circle_Grid_1.jpg,Red_Triangle_Stripes_1.jpg,Purple_Circle_Chess_3.jpg,right,779.8450000118464,false,high,false
aBWLU16Q,32204agabep2jqz0kncwzihmy16hgu,3jc6vj2safwrgq0wonof3jzkk2sa58,aBWLU16Q,2020-0188,2020-06-16,12:17:44,12:35:30,NA,incomplete,51,number,1,1,right,Purple_Triangle_Grid_1.jpg,Red_Triangle_Stripes_3.jpg,Blue_Plus_Dots_1.jpg,left,965.0699999183416,false,high,false
aBWLU16Q,32204agabep2jqz0kncwzihmy16hgu,3jc6vj2safwrgq0wonof3jzkk2sa58,aBWLU16Q,2020-0188,2020-06-16,12:17:44,12:35:30,NA,incomplete,52,number,1,1,right,Purple_Star_Grid_2.jpg,Green_Star_Dots_1.jpg,Blue_Triangle_Chess_2.jpg,right,1208.0800000112504,true,high,false
aBWLU16Q,32204agabep2jqz0kncwzihmy16hgu,3jc6vj2safwrgq0wonof3jzkk2sa58,aBWLU16Q,2020-0188,2020-06-16,12:17:44,12:35:30,NA,incomplete,53,number,1,1,left,Purple_Plus_Dots_1.jpg,Red_Circle_Chess_1.jpg,Green_Plus_Stripes_4.jpg,left,1681.6150001250207,true,high,false
aBWLU16Q,32204agabep2jqz0kncwzihmy16hgu,3jc6vj2safwrgq0wonof3jzkk2sa58,aBWLU16Q,2020-0188,2020-06-16,12:17:44,12:35:30,NA,incomplete,54,number,1,1,left,Green_Triangle_Stripes_3.jpg,Red_Star_Grid_3.jpg,Purple_Triangle_Chess_2.jpg,left,1667.7249998319894,true,high,false
aBWLU16Q,32204agabep2jqz0kncwzihmy16hgu,3jc6vj2safwrgq0wonof3jzkk2sa58,aBWLU16Q,2020-0188,2020-06-16,12:17:44,12:35:30,NA,incomplete,55,number,1,1,left,Blue_Circle_Grid_4.jpg,Purple_Plus_Chess_4.jpg,Red_Circle_Dots_1.jpg,left,1294.99000008218,true,high,false
aBWLU16Q,32204agabep2jqz0kncwzihmy16hgu,3jc6vj2safwrgq0wonof3jzkk2sa58,aBWLU16Q,2020-0188,2020-06-16,12:17:44,12:35:30,NA,incomplete,56,number,1,1,right,Green_Star_Chess_1.jpg,Red_Star_Dots_2.jpg,Purple_Plus_Grid_1.jpg,right,1486.3299999851733,true,high,false
aBWLU16Q,32204agabep2jqz0kncwzihmy16hgu,3jc6vj2safwrgq0wonof3jzkk2sa58,aBWLU16Q,2020-0188,2020-06-16,12:17:44,12:35:30,NA,incomplete,57,number,1,1,right,Red_Circle_Dots_3.jpg,Purple_Circle_Stripes_1.jpg,Blue_Star_Grid_3.jpg,right,1447.7250000927597,true,high,false
aBWLU16Q,32204agabep2jqz0kncwzihmy16hgu,3jc6vj2safwrgq0wonof3jzkk2sa58,aBWLU16Q,2020-0188,2020-06-16,12:17:44,12:35:30,NA,incomplete,58,number,1,1,right,Blue_Star_Grid_4.jpg,Purple_Star_Chess_2.jpg,Green_Circle_Stripes_4.jpg,right,1421.5899999253452,true,high,false
aBWLU16Q,32204agabep2jqz0kncwzihmy16hgu,3jc6vj2safwrgq0wonof3jzkk2sa58,aBWLU16Q,2020-0188,2020-06-16,12:17:44,12:35:30,NA,incomplete,59,number,1,1,right,Blue_Plus_Stripes_4.jpg,Red_Plus_Chess_1.jpg,Purple_Triangle_Dots_4.jpg,right,951.4699999708682,true,high,false
aBWLU16Q,32204agabep2jqz0kncwzihmy16hgu,3jc6vj2safwrgq0wonof3jzkk2sa58,aBWLU16Q,2020-0188,2020-06-16,12:17:44,12:35:30,NA,incomplete,60,shape,0,0,left,Blue_Circle_Chess_1.jpg,Red_Circle_Stripes_2.jpg,Purple_Star_Grid_1.jpg,right,1233.0000000074506,false,high,false
aBWLU16Q,32204agabep2jqz0kncwzihmy16hgu,3jc6vj2safwrgq0wonof3jzkk2sa58,aBWLU16Q,2020-0188,2020-06-16,12:17:44,12:35:30,NA,incomplete,61,shape,0,0,right,Red_Triangle_Stripes_2.jpg,Purple_Star_Grid_2.jpg,Green_Triangle_Dots_3.jpg,left,1387.5649999827147,false,high,false
aBWLU16Q,32204agabep2jqz0kncwzihmy16hgu,3jc6vj2safwrgq0wonof3jzkk2sa58,aBWLU16Q,2020-0188,2020-06-16,12:17:44,12:35:30,NA,incomplete,62,shape,0,1,left,Blue_Circle_Stripes_3.jpg,Purple_Circle_Dots_4.jpg,Green_Triangle_Chess_3.jpg,right,1191.1100000143051,false,high,false
aBWLU16Q,32204agabep2jqz0kncwzihmy16hgu,3jc6vj2safwrgq0wonof3jzkk2sa58,aBWLU16Q,2020-0188,2020-06-16,12:17:44,12:35:30,NA,incomplete,63,shape,0,1,right,Green_Triangle_Stripes_4.jpg,Blue_Plus_Dots_4.jpg,Purple_Triangle_Grid_1.jpg,right,1098.0849999468774,true,high,false
aBWLU16Q,32204agabep2jqz0kncwzihmy16hgu,3jc6vj2safwrgq0wonof3jzkk2sa58,aBWLU16Q,2020-0188,2020-06-16,12:17:44,12:35:30,NA,incomplete,64,shape,0,1,right,Green_Circle_Chess_4.jpg,Red_Star_Grid_4.jpg,Blue_Circle_Stripes_2.jpg,right,1125.5499999970198,true,high,false
aBWLU16Q,32204agabep2jqz0kncwzihmy16hgu,3jc6vj2safwrgq0wonof3jzkk2sa58,aBWLU16Q,2020-0188,2020-06-16,12:17:44,12:35:30,NA,incomplete,65,shape,0,1,right,Purple_Triangle_Dots_1.jpg,Red_Star_Stripes_1.jpg,Blue_Triangle_Chess_3.jpg,left,1177.5400000624359,false,high,false
aBWLU16Q,32204agabep2jqz0kncwzihmy16hgu,3jc6vj2safwrgq0wonof3jzkk2sa58,aBWLU16Q,2020-0188,2020-06-16,12:17:44,12:35:30,NA,incomplete,66,shape,0,0,left,Blue_Circle_Stripes_2.jpg,Green_Circle_Grid_4.jpg,Red_Triangle_Dots_2.jpg,left,828.2599998638034,true,high,false
aBWLU16Q,32204agabep2jqz0kncwzihmy16hgu,3jc6vj2safwrgq0wonof3jzkk2sa58,aBWLU16Q,2020-0188,2020-06-16,12:17:44,12:35:30,NA,incomplete,67,shape,0,1,right,Green_Circle_Grid_1.jpg,Purple_Plus_Stripes_1.jpg,Blue_Circle_Chess_3.jpg,right,756.2199998646975,true,high,false
aBWLU16Q,32204agabep2jqz0kncwzihmy16hgu,3jc6vj2safwrgq0wonof3jzkk2sa58,aBWLU16Q,2020-0188,2020-06-16,12:17:44,12:35:30,NA,incomplete,68,shape,0,1,left,Red_Triangle_Grid_2.jpg,Blue_Triangle_Stripes_4.jpg,Green_Plus_Chess_2.jpg,left,839.0999999828637,true,high,false
aBWLU16Q,32204agabep2jqz0kncwzihmy16hgu,3jc6vj2safwrgq0wonof3jzkk2sa58,aBWLU16Q,2020-0188,2020-06-16,12:17:44,12:35:30,NA,incomplete,69,shape,0,1,left,Blue_Circle_Dots_3.jpg,Purple_Circle_Grid_1.jpg,Red_Star_Chess_3.jpg,left,1072.7699999697506,true,high,false
aBWLU16Q,32204agabep2jqz0kncwzihmy16hgu,3jc6vj2safwrgq0wonof3jzkk2sa58,aBWLU16Q,2020-0188,2020-06-16,12:17:44,12:35:30,NA,incomplete,70,number,1,1,right,Red_Circle_Grid_1.jpg,Green_Circle_Chess_4.jpg,Blue_Plus_Dots_1.jpg,left,736.7849999573082,false,high,false
aBWLU16Q,32204agabep2jqz0kncwzihmy16hgu,3jc6vj2safwrgq0wonof3jzkk2sa58,aBWLU16Q,2020-0188,2020-06-16,12:17:44,12:35:30,NA,incomplete,71,number,1,1,left,Green_Triangle_Stripes_2.jpg,Purple_Star_Dots_2.jpg,Blue_Triangle_Grid_3.jpg,right,1765.8750000409782,false,high,false
aBWLU16Q,32204agabep2jqz0kncwzihmy16hgu,3jc6vj2safwrgq0wonof3jzkk2sa58,aBWLU16Q,2020-0188,2020-06-16,12:17:44,12:35:30,NA,incomplete,72,number,1,1,left,Red_Triangle_Grid_2.jpg,Green_Star_Stripes_2.jpg,Purple_Triangle_Dots_4.jpg,left,1543.9449998084456,true,high,false
aBWLU16Q,32204agabep2jqz0kncwzihmy16hgu,3jc6vj2safwrgq0wonof3jzkk2sa58,aBWLU16Q,2020-0188,2020-06-16,12:17:44,12:35:30,NA,incomplete,73,number,1,1,right,Green_Star_Dots_2.jpg,Purple_Star_Grid_3.jpg,Blue_Plus_Stripes_2.jpg,right,908.3000000100583,true,high,false
aBWLU16Q,32204agabep2jqz0kncwzihmy16hgu,3jc6vj2safwrgq0wonof3jzkk2sa58,aBWLU16Q,2020-0188,2020-06-16,12:17:44,12:35:30,NA,incomplete,74,number,1,0,left,Red_Triangle_Chess_2.jpg,Blue_Star_Grid_2.jpg,Purple_Triangle_Dots_3.jpg,left,650.3449999727309,true,high,false
aBWLU16Q,32204agabep2jqz0kncwzihmy16hgu,3jc6vj2safwrgq0wonof3jzkk2sa58,aBWLU16Q,2020-0188,2020-06-16,12:17:44,12:35:30,NA,incomplete,75,number,1,0,left,Purple_Plus_Grid_1.jpg,Blue_Circle_Dots_1.jpg,Green_Plus_Stripes_2.jpg,right,1002.6150001212955,false,high,false
aBWLU16Q,32204agabep2jqz0kncwzihmy16hgu,3jc6vj2safwrgq0wonof3jzkk2sa58,aBWLU16Q,2020-0188,2020-06-16,12:17:44,12:35:30,NA,incomplete,76,number,1,1,left,Purple_Circle_Chess_2.jpg,Green_Triangle_Grid_2.jpg,Blue_Circle_Stripes_4.jpg,right,1711.420000065118,false,high,false
aBWLU16Q,32204agabep2jqz0kncwzihmy16hgu,3jc6vj2safwrgq0wonof3jzkk2sa58,aBWLU16Q,2020-0188,2020-06-16,12:17:44,12:35:30,NA,incomplete,77,number,1,0,left,Blue_Circle_Chess_2.jpg,Purple_Plus_Stripes_2.jpg,Green_Circle_Grid_3.jpg,left,1219.285000115633,true,high,false
aBWLU16Q,32204agabep2jqz0kncwzihmy16hgu,3jc6vj2safwrgq0wonof3jzkk2sa58,aBWLU16Q,2020-0188,2020-06-16,12:17:44,12:35:30,NA,incomplete,78,number,1,1,right,Purple_Circle_Chess_1.jpg,Red_Circle_Stripes_2.jpg,Blue_Triangle_Dots_1.jpg,left,1036.7749999277294,false,high,false
aBWLU16Q,32204agabep2jqz0kncwzihmy16hgu,3jc6vj2safwrgq0wonof3jzkk2sa58,aBWLU16Q,2020-0188,2020-06-16,12:17:44,12:35:30,NA,incomplete,79,number,1,1,right,Green_Circle_Grid_4.jpg,Blue_Circle_Stripes_3.jpg,Purple_Star_Chess_4.jpg,right,1722.4850000347942,true,high,false
aBWLU16Q,32204agabep2jqz0kncwzihmy16hgu,3jc6vj2safwrgq0wonof3jzkk2sa58,aBWLU16Q,2020-0188,2020-06-16,12:17:44,12:35:30,NA,incomplete,80,shape,0,1,right,Green_Star_Grid_2.jpg,Red_Plus_Stripes_2.jpg,Purple_Star_Chess_1.jpg,left,1054.8350000753999,false,high,false
aBWLU16Q,32204agabep2jqz0kncwzihmy16hgu,3jc6vj2safwrgq0wonof3jzkk2sa58,aBWLU16Q,2020-0188,2020-06-16,12:17:44,12:35:30,NA,incomplete,81,shape,0,1,right,Red_Circle_Chess_3.jpg,Purple_Triangle_Grid_3.jpg,Green_Circle_Dots_4.jpg,left,1130.149999866262,false,high,false
aBWLU16Q,32204agabep2jqz0kncwzihmy16hgu,3jc6vj2safwrgq0wonof3jzkk2sa58,aBWLU16Q,2020-0188,2020-06-16,12:17:44,12:35:30,NA,incomplete,82,shape,0,1,left,Blue_Circle_Chess_3.jpg,Green_Circle_Stripes_1.jpg,Purple_Plus_Grid_3.jpg,none,0,false,high,false
aBWLU16Q,32204agabep2jqz0kncwzihmy16hgu,3jc6vj2safwrgq0wonof3jzkk2sa58,aBWLU16Q,2020-0188,2020-06-16,12:17:44,12:35:30,NA,incomplete,83,shape,0,1,left,Green_Circle_Grid_2.jpg,Blue_Circle_Chess_1.jpg,Red_Star_Stripes_2.jpg,left,900.9999998379499,true,high,false
aBWLU16Q,32204agabep2jqz0kncwzihmy16hgu,3jc6vj2safwrgq0wonof3jzkk2sa58,aBWLU16Q,2020-0188,2020-06-16,12:17:44,12:35:30,NA,incomplete,84,shape,0,1,left,Purple_Circle_Grid_2.jpg,Green_Circle_Stripes_1.jpg,Red_Plus_Dots_2.jpg,left,676.8449998926371,true,high,false
aBWLU16Q,32204agabep2jqz0kncwzihmy16hgu,3jc6vj2safwrgq0wonof3jzkk2sa58,aBWLU16Q,2020-0188,2020-06-16,12:17:44,12:35:30,NA,incomplete,85,shape,0,1,right,Blue_Circle_Chess_3.jpg,Purple_Triangle_Dots_3.jpg,Green_Circle_Grid_2.jpg,right,900.4900001455098,true,high,false
aBWLU16Q,32204agabep2jqz0kncwzihmy16hgu,3jc6vj2safwrgq0wonof3jzkk2sa58,aBWLU16Q,2020-0188,2020-06-16,12:17:44,12:35:30,NA,incomplete,86,shape,0,1,left,Purple_Star_Grid_2.jpg,Red_Star_Chess_4.jpg,Green_Plus_Dots_2.jpg,right,1012.1349999681115,false,high,false
aBWLU16Q,32204agabep2jqz0kncwzihmy16hgu,3jc6vj2safwrgq0wonof3jzkk2sa58,aBWLU16Q,2020-0188,2020-06-16,12:17:44,12:35:30,NA,incomplete,87,shape,0,1,left,Green_Plus_Dots_3.jpg,Red_Plus_Grid_2.jpg,Blue_Star_Chess_3.jpg,left,1060.0700001232326,true,high,false
aBWLU16Q,32204agabep2jqz0kncwzihmy16hgu,3jc6vj2safwrgq0wonof3jzkk2sa58,aBWLU16Q,2020-0188,2020-06-16,12:17:44,12:35:30,NA,incomplete,88,shape,0,1,left,Green_Circle_Dots_3.jpg,Purple_Circle_Grid_4.jpg,Blue_Triangle_Stripes_3.jpg,left,1300.844999961555,true,high,false
aBWLU16Q,32204agabep2jqz0kncwzihmy16hgu,3jc6vj2safwrgq0wonof3jzkk2sa58,aBWLU16Q,2020-0188,2020-06-16,12:17:44,12:35:30,NA,incomplete,89,shape,0,1,left,Purple_Circle_Stripes_4.jpg,Blue_Circle_Dots_3.jpg,Green_Star_Grid_4.jpg,left,778.4050002228469,true,high,false
aBWLU16Q,32204agabep2jqz0kncwzihmy16hgu,3jc6vj2safwrgq0wonof3jzkk2sa58,aBWLU16Q,2020-0188,2020-06-16,12:17:44,12:35:30,NA,incomplete,90,number,1,1,left,Blue_Star_Grid_2.jpg,Red_Plus_Stripes_2.jpg,Green_Star_Dots_4.jpg,right,950.3649999387562,false,high,false
aBWLU16Q,32204agabep2jqz0kncwzihmy16hgu,3jc6vj2safwrgq0wonof3jzkk2sa58,aBWLU16Q,2020-0188,2020-06-16,12:17:44,12:35:30,NA,incomplete,91,number,1,1,left,Blue_Triangle_Grid_4.jpg,Red_Star_Dots_4.jpg,Green_Triangle_Chess_2.jpg,left,848.8199999555945,true,high,false
aBWLU16Q,32204agabep2jqz0kncwzihmy16hgu,3jc6vj2safwrgq0wonof3jzkk2sa58,aBWLU16Q,2020-0188,2020-06-16,12:17:44,12:35:30,NA,incomplete,92,number,1,1,right,Red_Star_Dots_1.jpg,Purple_Star_Stripes_2.jpg,Green_Circle_Chess_1.jpg,left,972.6799998898059,false,high,false
aBWLU16Q,32204agabep2jqz0kncwzihmy16hgu,3jc6vj2safwrgq0wonof3jzkk2sa58,aBWLU16Q,2020-0188,2020-06-16,12:17:44,12:35:30,NA,incomplete,93,number,1,0,right,Red_Triangle_Grid_1.jpg,Blue_Triangle_Stripes_4.jpg,Purple_Plus_Chess_1.jpg,right,1540.0950000621378,true,high,false
aBWLU16Q,32204agabep2jqz0kncwzihmy16hgu,3jc6vj2safwrgq0wonof3jzkk2sa58,aBWLU16Q,2020-0188,2020-06-16,12:17:44,12:35:30,NA,incomplete,94,number,1,1,left,Blue_Triangle_Stripes_1.jpg,Red_Star_Grid_1.jpg,Purple_Triangle_Dots_4.jpg,left,1002.0299998577684,true,high,false
aBWLU16Q,32204agabep2jqz0kncwzihmy16hgu,3jc6vj2safwrgq0wonof3jzkk2sa58,aBWLU16Q,2020-0188,2020-06-16,12:17:44,12:35:30,NA,incomplete,95,number,1,1,left,Green_Triangle_Stripes_2.jpg,Purple_Star_Grid_2.jpg,Blue_Triangle_Dots_1.jpg,left,1357.7499999664724,true,high,false
aBWLU16Q,32204agabep2jqz0kncwzihmy16hgu,3jc6vj2safwrgq0wonof3jzkk2sa58,aBWLU16Q,2020-0188,2020-06-16,12:17:44,12:35:30,NA,incomplete,96,number,1,1,right,Blue_Plus_Grid_4.jpg,Purple_Plus_Dots_2.jpg,Red_Triangle_Chess_4.jpg,right,798.3599998988211,true,high,false
aBWLU16Q,32204agabep2jqz0kncwzihmy16hgu,3jc6vj2safwrgq0wonof3jzkk2sa58,aBWLU16Q,2020-0188,2020-06-16,12:17:44,12:35:30,NA,incomplete,97,number,1,1,left,Red_Plus_Dots_2.jpg,Purple_Triangle_Stripes_2.jpg,Blue_Plus_Chess_1.jpg,left,856.8299999460578,true,high,false
aBWLU16Q,32204agabep2jqz0kncwzihmy16hgu,3jc6vj2safwrgq0wonof3jzkk2sa58,aBWLU16Q,2020-0188,2020-06-16,12:17:44,12:35:30,NA,incomplete,98,number,1,1,left,Red_Plus_Chess_3.jpg,Purple_Star_Grid_3.jpg,Green_Plus_Dots_1.jpg,left,872.3300001583993,true,high,false
aBWLU16Q,32204agabep2jqz0kncwzihmy16hgu,3jc6vj2safwrgq0wonof3jzkk2sa58,aBWLU16Q,2020-0188,2020-06-16,12:17:44,12:35:30,NA,incomplete,99,number,1,1,left,Purple_Triangle_Chess_3.jpg,Blue_Plus_Grid_3.jpg,Green_Triangle_Stripes_1.jpg,left,749.1500000469387,true,high,false
aBWLU16Q,32204agabep2jqz0kncwzihmy16hgu,3jc6vj2safwrgq0wonof3jzkk2sa58,aBWLU16Q,2020-0188,2020-06-16,12:17:44,12:35:30,NA,incomplete,100,shape,0,1,right,Purple_Plus_Chess_4.jpg,Green_Triangle_Grid_4.jpg,Blue_Plus_Dots_2.jpg,left,1124.695000005886,false,high,false
aBWLU16Q,32204agabep2jqz0kncwzihmy16hgu,3jc6vj2safwrgq0wonof3jzkk2sa58,aBWLU16Q,2020-0188,2020-06-16,12:17:44,12:35:30,NA,incomplete,101,shape,0,1,right,Purple_Triangle_Chess_2.jpg,Green_Circle_Grid_2.jpg,Blue_Triangle_Dots_3.jpg,right,677.834999980405,true,high,false
aBWLU16Q,32204agabep2jqz0kncwzihmy16hgu,3jc6vj2safwrgq0wonof3jzkk2sa58,aBWLU16Q,2020-0188,2020-06-16,12:17:44,12:35:30,NA,incomplete,102,shape,0,1,left,Purple_Circle_Chess_2.jpg,Blue_Circle_Stripes_1.jpg,Red_Star_Grid_2.jpg,left,1030.5600001011044,true,high,false
aBWLU16Q,32204agabep2jqz0kncwzihmy16hgu,3jc6vj2safwrgq0wonof3jzkk2sa58,aBWLU16Q,2020-0188,2020-06-16,12:17:44,12:35:30,NA,incomplete,103,shape,0,1,left,Purple_Triangle_Chess_3.jpg,Blue_Triangle_Grid_2.jpg,Red_Circle_Dots_3.jpg,left,1098.6750000156462,true,high,false
aBWLU16Q,32204agabep2jqz0kncwzihmy16hgu,3jc6vj2safwrgq0wonof3jzkk2sa58,aBWLU16Q,2020-0188,2020-06-16,12:17:44,12:35:30,NA,incomplete,104,shape,0,1,left,Purple_Plus_Dots_2.jpg,Red_Plus_Grid_3.jpg,Green_Star_Chess_2.jpg,left,1613.6249999981374,true,high,false
aBWLU16Q,32204agabep2jqz0kncwzihmy16hgu,3jc6vj2safwrgq0wonof3jzkk2sa58,aBWLU16Q,2020-0188,2020-06-16,12:17:44,12:35:30,NA,incomplete,105,shape,0,1,left,Red_Star_Grid_4.jpg,Purple_Star_Dots_1.jpg,Blue_Plus_Stripes_4.jpg,left,970.0400000438094,true,high,false
aBWLU16Q,32204agabep2jqz0kncwzihmy16hgu,3jc6vj2safwrgq0wonof3jzkk2sa58,aBWLU16Q,2020-0188,2020-06-16,12:17:44,12:35:30,NA,incomplete,106,shape,0,1,right,Red_Star_Grid_3.jpg,Purple_Plus_Stripes_3.jpg,Green_Star_Chess_1.jpg,right,949.239999987185,true,high,false
aBWLU16Q,32204agabep2jqz0kncwzihmy16hgu,3jc6vj2safwrgq0wonof3jzkk2sa58,aBWLU16Q,2020-0188,2020-06-16,12:17:44,12:35:30,NA,incomplete,107,shape,0,1,right,Blue_Triangle_Dots_3.jpg,Green_Plus_Grid_3.jpg,Red_Triangle_Chess_1.jpg,right,728.9450000971556,true,high,false
aBWLU16Q,32204agabep2jqz0kncwzihmy16hgu,3jc6vj2safwrgq0wonof3jzkk2sa58,aBWLU16Q,2020-0188,2020-06-16,12:17:44,12:35:30,NA,incomplete,108,shape,0,0,left,Purple_Circle_Dots_1.jpg,Green_Circle_Grid_2.jpg,Red_Star_Chess_1.jpg,left,901.0049998760223,true,high,false
aBWLU16Q,32204agabep2jqz0kncwzihmy16hgu,3jc6vj2safwrgq0wonof3jzkk2sa58,aBWLU16Q,2020-0188,2020-06-16,12:17:44,12:35:30,NA,incomplete,109,shape,0,1,right,Purple_Star_Grid_2.jpg,Red_Triangle_Stripes_2.jpg,Blue_Star_Dots_4.jpg,left,964.8500001057982,false,high,false
aBWLU16Q,32204agabep2jqz0kncwzihmy16hgu,3jc6vj2safwrgq0wonof3jzkk2sa58,aBWLU16Q,2020-0188,2020-06-16,12:17:44,12:35:30,NA,incomplete,110,number,1,1,left,Red_Star_Stripes_2.jpg,Blue_Triangle_Dots_2.jpg,Purple_Star_Grid_4.jpg,left,1797.8149999398738,true,high,false
aBWLU16Q,32204agabep2jqz0kncwzihmy16hgu,3jc6vj2safwrgq0wonof3jzkk2sa58,aBWLU16Q,2020-0188,2020-06-16,12:17:44,12:35:30,NA,incomplete,111,number,1,0,right,Blue_Triangle_Dots_2.jpg,Purple_Triangle_Chess_1.jpg,Green_Star_Grid_2.jpg,right,1000.8149999193847,true,high,false
aBWLU16Q,32204agabep2jqz0kncwzihmy16hgu,3jc6vj2safwrgq0wonof3jzkk2sa58,aBWLU16Q,2020-0188,2020-06-16,12:17:44,12:35:30,NA,incomplete,112,number,1,1,left,Blue_Star_Grid_2.jpg,Green_Triangle_Dots_2.jpg,Red_Star_Stripes_3.jpg,right,1950.1649998128414,false,high,false
aBWLU16Q,32204agabep2jqz0kncwzihmy16hgu,3jc6vj2safwrgq0wonof3jzkk2sa58,aBWLU16Q,2020-0188,2020-06-16,12:17:44,12:35:30,NA,incomplete,113,number,1,1,left,Purple_Triangle_Stripes_4.jpg,Green_Circle_Dots_4.jpg,Blue_Triangle_Grid_3.jpg,left,973.2849998399615,true,high,false
aBWLU16Q,32204agabep2jqz0kncwzihmy16hgu,3jc6vj2safwrgq0wonof3jzkk2sa58,aBWLU16Q,2020-0188,2020-06-16,12:17:44,12:35:30,NA,incomplete,114,number,1,1,right,Red_Plus_Stripes_2.jpg,Blue_Plus_Chess_4.jpg,Green_Circle_Grid_2.jpg,right,850.8800000417978,true,high,false
aBWLU16Q,32204agabep2jqz0kncwzihmy16hgu,3jc6vj2safwrgq0wonof3jzkk2sa58,aBWLU16Q,2020-0188,2020-06-16,12:17:44,12:35:30,NA,incomplete,115,number,1,1,left,Purple_Circle_Grid_1.jpg,Blue_Star_Dots_1.jpg,Red_Circle_Stripes_2.jpg,left,954.4599999208003,true,high,false
aBWLU16Q,32204agabep2jqz0kncwzihmy16hgu,3jc6vj2safwrgq0wonof3jzkk2sa58,aBWLU16Q,2020-0188,2020-06-16,12:17:44,12:35:30,NA,incomplete,116,number,1,1,right,Red_Plus_Dots_4.jpg,Purple_Plus_Stripes_2.jpg,Green_Star_Grid_4.jpg,right,741.8100000359118,true,high,false
aBWLU16Q,32204agabep2jqz0kncwzihmy16hgu,3jc6vj2safwrgq0wonof3jzkk2sa58,aBWLU16Q,2020-0188,2020-06-16,12:17:44,12:35:30,NA,incomplete,117,number,1,1,right,Green_Circle_Chess_4.jpg,Purple_Circle_Grid_2.jpg,Red_Triangle_Stripes_4.jpg,right,780.0549999810755,true,high,false
aBWLU16Q,32204agabep2jqz0kncwzihmy16hgu,3jc6vj2safwrgq0wonof3jzkk2sa58,aBWLU16Q,2020-0188,2020-06-16,12:17:44,12:35:30,NA,incomplete,118,number,1,1,right,Green_Triangle_Grid_2.jpg,Red_Triangle_Stripes_4.jpg,Blue_Star_Chess_2.jpg,right,1229.6949999872595,true,high,false
aBWLU16Q,32204agabep2jqz0kncwzihmy16hgu,3jc6vj2safwrgq0wonof3jzkk2sa58,aBWLU16Q,2020-0188,2020-06-16,12:17:44,12:35:30,NA,incomplete,119,number,1,0,left,Blue_Star_Chess_4.jpg,Green_Triangle_Dots_4.jpg,Red_Star_Stripes_2.jpg,left,815.5200001783669,true,high,false
aBWLU16Q,32204agabep2jqz0kncwzihmy16hgu,3jc6vj2safwrgq0wonof3jzkk2sa58,aBWLU16Q,2020-0188,2020-06-16,12:17:44,12:35:30,NA,incomplete,120,race,2,1,right,A_M_16.jpg,C_M_04.jpg,A_F_06.jpg,NA,NA,NA,high,false
aBWLU16Q,32204agabep2jqz0kncwzihmy16hgu,3jc6vj2safwrgq0wonof3jzkk2sa58,aBWLU16Q,2020-0188,2020-06-16,12:17:44,12:35:30,NA,incomplete,121,race,2,1,left,C_F_16.jpg,C_M_06.jpg,A_F_12.jpg,right,923.7999999895692,false,high,false
aBWLU16Q,32204agabep2jqz0kncwzihmy16hgu,3jc6vj2safwrgq0wonof3jzkk2sa58,aBWLU16Q,2020-0188,2020-06-16,12:17:44,12:35:30,NA,incomplete,122,race,2,1,right,C_F_05.jpg,A_F_03.jpg,C_M_01.jpg,right,1251.2199999764562,true,high,false
aBWLU16Q,32204agabep2jqz0kncwzihmy16hgu,3jc6vj2safwrgq0wonof3jzkk2sa58,aBWLU16Q,2020-0188,2020-06-16,12:17:44,12:35:30,NA,incomplete,123,race,2,0,right,A_M_07.jpg,C_M_13.jpg,A_F_15.jpg,right,1064.4549999851733,true,high,false
aBWLU16Q,32204agabep2jqz0kncwzihmy16hgu,3jc6vj2safwrgq0wonof3jzkk2sa58,aBWLU16Q,2020-0188,2020-06-16,12:17:44,12:35:30,NA,incomplete,124,race,2,1,right,A_F_07.jpg,C_F_08.jpg,A_M_03.jpg,right,1370.0349999126047,true,high,false
aBWLU16Q,32204agabep2jqz0kncwzihmy16hgu,3jc6vj2safwrgq0wonof3jzkk2sa58,aBWLU16Q,2020-0188,2020-06-16,12:17:44,12:35:30,NA,incomplete,125,race,2,1,left,C_M_09.jpg,C_F_02.jpg,A_M_11.jpg,left,1061.6000001318753,true,high,false
aBWLU16Q,32204agabep2jqz0kncwzihmy16hgu,3jc6vj2safwrgq0wonof3jzkk2sa58,aBWLU16Q,2020-0188,2020-06-16,12:17:44,12:35:30,NA,incomplete,126,race,2,0,right,A_M_02.jpg,C_M_07.jpg,A_F_16.jpg,right,907.5399998109788,true,high,false
aBWLU16Q,32204agabep2jqz0kncwzihmy16hgu,3jc6vj2safwrgq0wonof3jzkk2sa58,aBWLU16Q,2020-0188,2020-06-16,12:17:44,12:35:30,NA,incomplete,127,race,2,1,left,A_F_04.jpg,A_M_14.jpg,C_F_11.jpg,right,1125.715000089258,false,high,false
aBWLU16Q,32204agabep2jqz0kncwzihmy16hgu,3jc6vj2safwrgq0wonof3jzkk2sa58,aBWLU16Q,2020-0188,2020-06-16,12:17:44,12:35:30,NA,incomplete,128,race,2,1,left,C_F_07.jpg,C_M_11.jpg,A_F_05.jpg,left,1638.6199998669326,true,high,false
aBWLU16Q,32204agabep2jqz0kncwzihmy16hgu,3jc6vj2safwrgq0wonof3jzkk2sa58,aBWLU16Q,2020-0188,2020-06-16,12:17:44,12:35:30,NA,incomplete,129,race,2,1,right,A_F_09.jpg,C_F_15.jpg,A_M_13.jpg,right,1490.2699999511242,true,high,false
aBWLU16Q,32204agabep2jqz0kncwzihmy16hgu,3jc6vj2safwrgq0wonof3jzkk2sa58,aBWLU16Q,2020-0188,2020-06-16,12:17:44,12:35:30,NA,incomplete,130,race,2,1,right,A_M_05.jpg,C_M_04.jpg,A_F_10.jpg,right,1040.7300000078976,true,high,false
aBWLU16Q,32204agabep2jqz0kncwzihmy16hgu,3jc6vj2safwrgq0wonof3jzkk2sa58,aBWLU16Q,2020-0188,2020-06-16,12:17:44,12:35:30,NA,incomplete,131,race,2,1,right,C_F_06.jpg,A_F_08.jpg,C_M_01.jpg,right,1324.3199998978525,true,high,false
aBWLU16Q,32204agabep2jqz0kncwzihmy16hgu,3jc6vj2safwrgq0wonof3jzkk2sa58,aBWLU16Q,2020-0188,2020-06-16,12:17:44,12:35:30,NA,incomplete,132,race,2,1,right,C_F_02.jpg,A_F_09.jpg,C_M_03.jpg,right,1189.3899999558926,true,high,false
aBWLU16Q,32204agabep2jqz0kncwzihmy16hgu,3jc6vj2safwrgq0wonof3jzkk2sa58,aBWLU16Q,2020-0188,2020-06-16,12:17:44,12:35:30,NA,incomplete,133,race,2,1,right,A_M_07.jpg,C_M_02.jpg,A_F_16.jpg,right,958.0250000581145,true,high,false
aBWLU16Q,32204agabep2jqz0kncwzihmy16hgu,3jc6vj2safwrgq0wonof3jzkk2sa58,aBWLU16Q,2020-0188,2020-06-16,12:17:44,12:35:30,NA,incomplete,134,race,2,1,left,C_F_08.jpg,C_M_02.jpg,A_F_07.jpg,left,1041.6299998760223,true,high,false
aBWLU16Q,32204agabep2jqz0kncwzihmy16hgu,3jc6vj2safwrgq0wonof3jzkk2sa58,aBWLU16Q,2020-0188,2020-06-16,12:17:44,12:35:30,NA,incomplete,135,race,2,0,left,C_M_15.jpg,C_F_03.jpg,A_M_11.jpg,left,1082.1249999571592,true,high,false
aBWLU16Q,32204agabep2jqz0kncwzihmy16hgu,3jc6vj2safwrgq0wonof3jzkk2sa58,aBWLU16Q,2020-0188,2020-06-16,12:17:44,12:35:30,NA,incomplete,136,race,2,1,right,A_F_14.jpg,C_F_15.jpg,A_M_12.jpg,left,1046.9049999956042,false,high,false
aBWLU16Q,32204agabep2jqz0kncwzihmy16hgu,3jc6vj2safwrgq0wonof3jzkk2sa58,aBWLU16Q,2020-0188,2020-06-16,12:17:44,12:35:30,NA,incomplete,137,race,2,1,left,A_F_03.jpg,A_M_15.jpg,C_F_16.jpg,right,1265.2500001713634,false,high,false
aBWLU16Q,32204agabep2jqz0kncwzihmy16hgu,3jc6vj2safwrgq0wonof3jzkk2sa58,aBWLU16Q,2020-0188,2020-06-16,12:17:44,12:35:30,NA,incomplete,138,race,2,1,left,A_F_04.jpg,A_M_01.jpg,C_F_05.jpg,left,1281.3049999531358,true,high,false
aBWLU16Q,32204agabep2jqz0kncwzihmy16hgu,3jc6vj2safwrgq0wonof3jzkk2sa58,aBWLU16Q,2020-0188,2020-06-16,12:17:44,12:35:30,NA,incomplete,139,race,2,1,right,A_M_15.jpg,C_M_03.jpg,A_F_06.jpg,right,1630.9100000653416,true,high,false
aBWLU16Q,32204agabep2jqz0kncwzihmy16hgu,3jc6vj2safwrgq0wonof3jzkk2sa58,aBWLU16Q,2020-0188,2020-06-16,12:17:44,12:35:30,NA,incomplete,140,gender,3,1,right,C_M_01.jpg,C_F_14.jpg,A_M_07.jpg,left,920.4750000499189,false,high,false
aBWLU16Q,32204agabep2jqz0kncwzihmy16hgu,3jc6vj2safwrgq0wonof3jzkk2sa58,aBWLU16Q,2020-0188,2020-06-16,12:17:44,12:35:30,NA,incomplete,141,gender,3,0,right,C_M_12.jpg,C_F_04.jpg,A_M_07.jpg,right,878.2249998766929,true,high,false
aBWLU16Q,32204agabep2jqz0kncwzihmy16hgu,3jc6vj2safwrgq0wonof3jzkk2sa58,aBWLU16Q,2020-0188,2020-06-16,12:17:44,12:35:30,NA,incomplete,142,gender,3,1,left,C_F_06.jpg,A_F_05.jpg,C_M_02.jpg,left,1899.995000101626,true,high,false
aBWLU16Q,32204agabep2jqz0kncwzihmy16hgu,3jc6vj2safwrgq0wonof3jzkk2sa58,aBWLU16Q,2020-0188,2020-06-16,12:17:44,12:35:30,NA,incomplete,143,gender,3,1,left,A_F_14.jpg,C_F_11.jpg,A_M_12.jpg,left,939.6399999968708,true,high,false
aBWLU16Q,32204agabep2jqz0kncwzihmy16hgu,3jc6vj2safwrgq0wonof3jzkk2sa58,aBWLU16Q,2020-0188,2020-06-16,12:17:44,12:35:30,NA,incomplete,144,gender,3,1,right,A_F_08.jpg,A_M_05.jpg,C_F_12.jpg,right,958.0600000917912,true,high,false
aBWLU16Q,32204agabep2jqz0kncwzihmy16hgu,3jc6vj2safwrgq0wonof3jzkk2sa58,aBWLU16Q,2020-0188,2020-06-16,12:17:44,12:35:30,NA,incomplete,145,gender,3,1,left,A_F_05.jpg,C_F_03.jpg,A_M_16.jpg,left,601.9950001500547,true,high,false
aBWLU16Q,32204agabep2jqz0kncwzihmy16hgu,3jc6vj2safwrgq0wonof3jzkk2sa58,aBWLU16Q,2020-0188,2020-06-16,12:17:44,12:35:30,NA,incomplete,146,gender,3,0,left,A_M_07.jpg,C_M_08.jpg,A_F_05.jpg,left,921.0399999283254,true,high,false
aBWLU16Q,32204agabep2jqz0kncwzihmy16hgu,3jc6vj2safwrgq0wonof3jzkk2sa58,aBWLU16Q,2020-0188,2020-06-16,12:17:44,12:35:30,NA,incomplete,147,gender,3,1,right,A_M_13.jpg,A_F_15.jpg,C_M_12.jpg,right,665.6150000635535,true,high,false
aBWLU16Q,32204agabep2jqz0kncwzihmy16hgu,3jc6vj2safwrgq0wonof3jzkk2sa58,aBWLU16Q,2020-0188,2020-06-16,12:17:44,12:35:30,NA,incomplete,148,gender,3,0,left,C_M_03.jpg,A_M_05.jpg,C_F_12.jpg,left,1248.5549999400973,true,high,false
aBWLU16Q,32204agabep2jqz0kncwzihmy16hgu,3jc6vj2safwrgq0wonof3jzkk2sa58,aBWLU16Q,2020-0188,2020-06-16,12:17:44,12:35:30,NA,incomplete,149,gender,3,1,left,A_F_06.jpg,C_F_16.jpg,A_M_15.jpg,left,1677.159999962896,true,high,false
aBWLU16Q,32204agabep2jqz0kncwzihmy16hgu,3jc6vj2safwrgq0wonof3jzkk2sa58,aBWLU16Q,2020-0188,2020-06-16,12:17:44,12:35:30,NA,incomplete,150,gender,3,0,right,A_F_13.jpg,A_M_01.jpg,C_F_07.jpg,right,1080.6149998679757,true,high,false
aBWLU16Q,32204agabep2jqz0kncwzihmy16hgu,3jc6vj2safwrgq0wonof3jzkk2sa58,aBWLU16Q,2020-0188,2020-06-16,12:17:44,12:35:30,NA,incomplete,151,gender,3,1,left,C_F_06.jpg,A_F_10.jpg,C_M_09.jpg,right,1385.2800000458956,false,high,false
aBWLU16Q,32204agabep2jqz0kncwzihmy16hgu,3jc6vj2safwrgq0wonof3jzkk2sa58,aBWLU16Q,2020-0188,2020-06-16,12:17:44,12:35:30,NA,incomplete,152,gender,3,1,right,A_M_02.jpg,A_F_15.jpg,C_M_03.jpg,right,1697.1250001806766,true,high,false
aBWLU16Q,32204agabep2jqz0kncwzihmy16hgu,3jc6vj2safwrgq0wonof3jzkk2sa58,aBWLU16Q,2020-0188,2020-06-16,12:17:44,12:35:30,NA,incomplete,153,gender,3,1,left,A_M_05.jpg,C_M_03.jpg,A_F_14.jpg,left,1088.05499994196,true,high,false
aBWLU16Q,32204agabep2jqz0kncwzihmy16hgu,3jc6vj2safwrgq0wonof3jzkk2sa58,aBWLU16Q,2020-0188,2020-06-16,12:17:44,12:35:30,NA,incomplete,154,gender,3,1,left,C_F_06.jpg,A_F_09.jpg,C_M_02.jpg,left,913.8650000095367,true,high,false
aBWLU16Q,32204agabep2jqz0kncwzihmy16hgu,3jc6vj2safwrgq0wonof3jzkk2sa58,aBWLU16Q,2020-0188,2020-06-16,12:17:44,12:35:30,NA,incomplete,155,gender,3,1,left,C_F_15.jpg,A_F_10.jpg,C_M_14.jpg,left,1107.9400000162423,true,high,false
aBWLU16Q,32204agabep2jqz0kncwzihmy16hgu,3jc6vj2safwrgq0wonof3jzkk2sa58,aBWLU16Q,2020-0188,2020-06-16,12:17:44,12:35:30,NA,incomplete,156,gender,3,0,right,A_F_07.jpg,A_M_03.jpg,C_F_10.jpg,right,608.5450001992285,true,high,false
aBWLU16Q,32204agabep2jqz0kncwzihmy16hgu,3jc6vj2safwrgq0wonof3jzkk2sa58,aBWLU16Q,2020-0188,2020-06-16,12:17:44,12:35:30,NA,incomplete,157,gender,3,1,left,A_F_12.jpg,C_F_16.jpg,A_M_05.jpg,right,1258.6050000973046,false,high,false
aBWLU16Q,32204agabep2jqz0kncwzihmy16hgu,3jc6vj2safwrgq0wonof3jzkk2sa58,aBWLU16Q,2020-0188,2020-06-16,12:17:44,12:35:30,NA,incomplete,158,gender,3,0,right,C_M_15.jpg,C_F_09.jpg,A_M_07.jpg,right,1513.0749999079853,true,high,false
aBWLU16Q,32204agabep2jqz0kncwzihmy16hgu,3jc6vj2safwrgq0wonof3jzkk2sa58,aBWLU16Q,2020-0188,2020-06-16,12:17:44,12:35:30,NA,incomplete,159,gender,3,1,right,C_F_15.jpg,C_M_13.jpg,A_F_14.jpg,left,1269.6199999190867,false,high,false
aBWLU16Q,32204agabep2jqz0kncwzihmy16hgu,3jc6vj2safwrgq0wonof3jzkk2sa58,aBWLU16Q,2020-0188,2020-06-16,12:17:44,12:35:30,NA,incomplete,160,race,2,1,right,C_F_03.jpg,A_F_01.jpg,C_M_09.jpg,right,1475.7350001018494,true,high,false
aBWLU16Q,32204agabep2jqz0kncwzihmy16hgu,3jc6vj2safwrgq0wonof3jzkk2sa58,aBWLU16Q,2020-0188,2020-06-16,12:17:44,12:35:30,NA,incomplete,161,race,2,0,left,C_F_07.jpg,C_M_03.jpg,A_F_06.jpg,left,1763.489999808371,true,high,false
aBWLU16Q,32204agabep2jqz0kncwzihmy16hgu,3jc6vj2safwrgq0wonof3jzkk2sa58,aBWLU16Q,2020-0188,2020-06-16,12:17:44,12:35:30,NA,incomplete,162,race,2,1,right,C_F_08.jpg,A_F_01.jpg,C_M_07.jpg,right,1269.2099998239428,true,high,false
aBWLU16Q,32204agabep2jqz0kncwzihmy16hgu,3jc6vj2safwrgq0wonof3jzkk2sa58,aBWLU16Q,2020-0188,2020-06-16,12:17:44,12:35:30,NA,incomplete,163,race,2,1,right,A_M_05.jpg,C_M_16.jpg,A_F_06.jpg,right,1655.3749998565763,true,high,false
aBWLU16Q,32204agabep2jqz0kncwzihmy16hgu,3jc6vj2safwrgq0wonof3jzkk2sa58,aBWLU16Q,2020-0188,2020-06-16,12:17:44,12:35:30,NA,incomplete,164,race,2,1,right,C_F_02.jpg,A_F_01.jpg,C_M_07.jpg,right,1685.0449999328703,true,high,false
aBWLU16Q,32204agabep2jqz0kncwzihmy16hgu,3jc6vj2safwrgq0wonof3jzkk2sa58,aBWLU16Q,2020-0188,2020-06-16,12:17:44,12:35:30,NA,incomplete,165,race,2,1,right,C_F_08.jpg,A_F_09.jpg,C_M_12.jpg,right,1341.7349997907877,true,high,false
aBWLU16Q,32204agabep2jqz0kncwzihmy16hgu,3jc6vj2safwrgq0wonof3jzkk2sa58,aBWLU16Q,2020-0188,2020-06-16,12:17:44,12:35:30,NA,incomplete,166,race,2,1,left,A_F_01.jpg,A_M_05.jpg,C_F_06.jpg,left,1278.340000193566,true,high,false
aBWLU16Q,32204agabep2jqz0kncwzihmy16hgu,3jc6vj2safwrgq0wonof3jzkk2sa58,aBWLU16Q,2020-0188,2020-06-16,12:17:44,12:35:30,NA,incomplete,167,race,2,0,right,A_F_15.jpg,C_F_12.jpg,A_M_11.jpg,right,870.6499999389052,true,high,false
aBWLU16Q,32204agabep2jqz0kncwzihmy16hgu,3jc6vj2safwrgq0wonof3jzkk2sa58,aBWLU16Q,2020-0188,2020-06-16,12:17:44,12:35:30,NA,incomplete,168,race,2,1,right,A_F_14.jpg,C_F_11.jpg,A_M_09.jpg,right,1385.6299999170005,true,high,false
aBWLU16Q,32204agabep2jqz0kncwzihmy16hgu,3jc6vj2safwrgq0wonof3jzkk2sa58,aBWLU16Q,2020-0188,2020-06-16,12:17:44,12:35:30,NA,incomplete,169,race,2,1,left,C_F_12.jpg,C_M_01.jpg,A_F_04.jpg,left,1378.8649998605251,true,high,false
aBWLU16Q,32204agabep2jqz0kncwzihmy16hgu,3jc6vj2safwrgq0wonof3jzkk2sa58,aBWLU16Q,2020-0188,2020-06-16,12:17:44,12:35:30,NA,incomplete,170,race,2,1,left,C_M_03.jpg,C_F_12.jpg,A_M_04.jpg,left,1621.6649999842048,true,high,false
aBWLU16Q,32204agabep2jqz0kncwzihmy16hgu,3jc6vj2safwrgq0wonof3jzkk2sa58,aBWLU16Q,2020-0188,2020-06-16,12:17:44,12:35:30,NA,incomplete,171,race,2,1,right,C_F_09.jpg,A_F_03.jpg,C_M_16.jpg,right,1396.1650000419468,true,high,false
aBWLU16Q,32204agabep2jqz0kncwzihmy16hgu,3jc6vj2safwrgq0wonof3jzkk2sa58,aBWLU16Q,2020-0188,2020-06-16,12:17:44,12:35:30,NA,incomplete,172,race,2,1,left,A_F_15.jpg,A_M_04.jpg,C_F_02.jpg,left,1246.650000102818,true,high,false
aBWLU16Q,32204agabep2jqz0kncwzihmy16hgu,3jc6vj2safwrgq0wonof3jzkk2sa58,aBWLU16Q,2020-0188,2020-06-16,12:17:44,12:35:30,NA,incomplete,173,race,2,0,left,A_M_15.jpg,A_F_11.jpg,C_M_13.jpg,left,1424.2150001227856,true,high,false
aBWLU16Q,32204agabep2jqz0kncwzihmy16hgu,3jc6vj2safwrgq0wonof3jzkk2sa58,aBWLU16Q,2020-0188,2020-06-16,12:17:44,12:35:30,NA,incomplete,174,race,2,1,left,A_M_04.jpg,A_F_02.jpg,C_M_06.jpg,left,1279.4250000733882,true,high,false
aBWLU16Q,32204agabep2jqz0kncwzihmy16hgu,3jc6vj2safwrgq0wonof3jzkk2sa58,aBWLU16Q,2020-0188,2020-06-16,12:17:44,12:35:30,NA,incomplete,175,race,2,0,right,C_F_13.jpg,A_F_03.jpg,C_M_06.jpg,left,1832.799999974668,false,high,false
aBWLU16Q,32204agabep2jqz0kncwzihmy16hgu,3jc6vj2safwrgq0wonof3jzkk2sa58,aBWLU16Q,2020-0188,2020-06-16,12:17:44,12:35:30,NA,incomplete,176,race,2,1,left,C_M_14.jpg,C_F_09.jpg,A_M_12.jpg,right,1055.655000032857,false,high,false
aBWLU16Q,32204agabep2jqz0kncwzihmy16hgu,3jc6vj2safwrgq0wonof3jzkk2sa58,aBWLU16Q,2020-0188,2020-06-16,12:17:44,12:35:30,NA,incomplete,177,race,2,0,right,A_M_07.jpg,C_M_13.jpg,A_F_05.jpg,right,1600.8000001311302,true,high,false
aBWLU16Q,32204agabep2jqz0kncwzihmy16hgu,3jc6vj2safwrgq0wonof3jzkk2sa58,aBWLU16Q,2020-0188,2020-06-16,12:17:44,12:35:30,NA,incomplete,178,race,2,1,right,C_M_15.jpg,A_M_10.jpg,C_F_02.jpg,right,1423.2150001917034,true,high,false
aBWLU16Q,32204agabep2jqz0kncwzihmy16hgu,3jc6vj2safwrgq0wonof3jzkk2sa58,aBWLU16Q,2020-0188,2020-06-16,12:17:44,12:35:30,NA,incomplete,179,race,2,1,left,C_F_07.jpg,C_M_14.jpg,A_F_11.jpg,left,1801.3449998106807,true,high,false
aBWLU16Q,32204agabep2jqz0kncwzihmy16hgu,3jc6vj2safwrgq0wonof3jzkk2sa58,aBWLU16Q,2020-0188,2020-06-16,12:17:44,12:35:30,NA,incomplete,180,gender,3,0,left,C_F_04.jpg,A_F_06.jpg,C_M_10.jpg,right,1739.2500001005828,false,high,false
aBWLU16Q,32204agabep2jqz0kncwzihmy16hgu,3jc6vj2safwrgq0wonof3jzkk2sa58,aBWLU16Q,2020-0188,2020-06-16,12:17:44,12:35:30,NA,incomplete,181,gender,3,1,left,A_M_13.jpg,C_M_05.jpg,A_F_02.jpg,right,1097.4850000347942,false,high,false
aBWLU16Q,32204agabep2jqz0kncwzihmy16hgu,3jc6vj2safwrgq0wonof3jzkk2sa58,aBWLU16Q,2020-0188,2020-06-16,12:17:44,12:35:30,NA,incomplete,182,gender,3,1,left,A_M_03.jpg,C_M_05.jpg,A_F_14.jpg,right,1059.5850001554936,false,high,false
aBWLU16Q,32204agabep2jqz0kncwzihmy16hgu,3jc6vj2safwrgq0wonof3jzkk2sa58,aBWLU16Q,2020-0188,2020-06-16,12:17:44,12:35:30,NA,incomplete,183,gender,3,1,right,A_F_15.jpg,A_M_08.jpg,C_F_13.jpg,left,1383.5549999494106,false,high,false
aBWLU16Q,32204agabep2jqz0kncwzihmy16hgu,3jc6vj2safwrgq0wonof3jzkk2sa58,aBWLU16Q,2020-0188,2020-06-16,12:17:44,12:35:30,NA,incomplete,184,gender,3,0,right,A_F_04.jpg,A_M_10.jpg,C_F_06.jpg,right,642.0599999837577,true,high,false
aBWLU16Q,32204agabep2jqz0kncwzihmy16hgu,3jc6vj2safwrgq0wonof3jzkk2sa58,aBWLU16Q,2020-0188,2020-06-16,12:17:44,12:35:30,NA,incomplete,185,gender,3,1,right,C_M_04.jpg,C_F_01.jpg,A_M_05.jpg,right,884.3999998643994,true,high,false
aBWLU16Q,32204agabep2jqz0kncwzihmy16hgu,3jc6vj2safwrgq0wonof3jzkk2sa58,aBWLU16Q,2020-0188,2020-06-16,12:17:44,12:35:30,NA,incomplete,186,gender,3,1,right,C_M_06.jpg,C_F_11.jpg,A_M_12.jpg,right,790.8150001894683,true,high,false
aBWLU16Q,32204agabep2jqz0kncwzihmy16hgu,3jc6vj2safwrgq0wonof3jzkk2sa58,aBWLU16Q,2020-0188,2020-06-16,12:17:44,12:35:30,NA,incomplete,187,gender,3,1,right,A_M_04.jpg,A_F_12.jpg,C_M_16.jpg,right,654.4200000353158,true,high,false
aBWLU16Q,32204agabep2jqz0kncwzihmy16hgu,3jc6vj2safwrgq0wonof3jzkk2sa58,aBWLU16Q,2020-0188,2020-06-16,12:17:44,12:35:30,NA,incomplete,188,gender,3,1,right,A_F_01.jpg,A_M_12.jpg,C_F_07.jpg,right,858.7199999019504,true,high,false
aBWLU16Q,32204agabep2jqz0kncwzihmy16hgu,3jc6vj2safwrgq0wonof3jzkk2sa58,aBWLU16Q,2020-0188,2020-06-16,12:17:44,12:35:30,NA,incomplete,189,gender,3,0,left,A_F_09.jpg,C_F_12.jpg,A_M_14.jpg,left,683.4100000560284,true,high,false
aBWLU16Q,32204agabep2jqz0kncwzihmy16hgu,3jc6vj2safwrgq0wonof3jzkk2sa58,aBWLU16Q,2020-0188,2020-06-16,12:17:44,12:35:30,NA,incomplete,190,gender,3,1,left,C_F_01.jpg,A_F_03.jpg,C_M_15.jpg,left,781.2200000043958,true,high,false
aBWLU16Q,32204agabep2jqz0kncwzihmy16hgu,3jc6vj2safwrgq0wonof3jzkk2sa58,aBWLU16Q,2020-0188,2020-06-16,12:17:44,12:35:30,NA,incomplete,191,gender,3,1,right,A_F_09.jpg,A_M_02.jpg,C_F_14.jpg,right,868.8450001645833,true,high,false
aBWLU16Q,32204agabep2jqz0kncwzihmy16hgu,3jc6vj2safwrgq0wonof3jzkk2sa58,aBWLU16Q,2020-0188,2020-06-16,12:17:44,12:35:30,NA,incomplete,192,gender,3,1,left,C_F_15.jpg,A_F_04.jpg,C_M_09.jpg,left,1053.4850000403821,true,high,false
aBWLU16Q,32204agabep2jqz0kncwzihmy16hgu,3jc6vj2safwrgq0wonof3jzkk2sa58,aBWLU16Q,2020-0188,2020-06-16,12:17:44,12:35:30,NA,incomplete,193,gender,3,1,right,A_M_15.jpg,A_F_13.jpg,C_M_03.jpg,right,1058.5900000296533,true,high,false
aBWLU16Q,32204agabep2jqz0kncwzihmy16hgu,3jc6vj2safwrgq0wonof3jzkk2sa58,aBWLU16Q,2020-0188,2020-06-16,12:17:44,12:35:30,NA,incomplete,194,gender,3,0,left,C_F_01.jpg,A_F_06.jpg,C_M_14.jpg,left,1674.3650001008064,true,high,false
aBWLU16Q,32204agabep2jqz0kncwzihmy16hgu,3jc6vj2safwrgq0wonof3jzkk2sa58,aBWLU16Q,2020-0188,2020-06-16,12:17:44,12:35:30,NA,incomplete,195,gender,3,1,left,A_M_04.jpg,C_M_10.jpg,A_F_13.jpg,right,906.1199999414384,false,high,false
aBWLU16Q,32204agabep2jqz0kncwzihmy16hgu,3jc6vj2safwrgq0wonof3jzkk2sa58,aBWLU16Q,2020-0188,2020-06-16,12:17:44,12:35:30,NA,incomplete,196,gender,3,1,right,C_M_14.jpg,C_F_02.jpg,A_M_04.jpg,right,1330.0950000993907,true,high,false
aBWLU16Q,32204agabep2jqz0kncwzihmy16hgu,3jc6vj2safwrgq0wonof3jzkk2sa58,aBWLU16Q,2020-0188,2020-06-16,12:17:44,12:35:30,NA,incomplete,197,gender,3,1,right,A_M_14.jpg,A_F_08.jpg,C_M_04.jpg,right,1371.9200000632554,true,high,false
aBWLU16Q,32204agabep2jqz0kncwzihmy16hgu,3jc6vj2safwrgq0wonof3jzkk2sa58,aBWLU16Q,2020-0188,2020-06-16,12:17:44,12:35:30,NA,incomplete,198,gender,3,0,right,A_F_16.jpg,A_M_12.jpg,C_F_01.jpg,right,873.2050000689924,true,high,false
aBWLU16Q,32204agabep2jqz0kncwzihmy16hgu,3jc6vj2safwrgq0wonof3jzkk2sa58,aBWLU16Q,2020-0188,2020-06-16,12:17:44,12:35:30,NA,incomplete,199,gender,3,1,left,A_F_09.jpg,C_F_11.jpg,A_M_03.jpg,left,901.4349998906255,true,high,false
aBWLU16Q,32204agabep2jqz0kncwzihmy16hgu,3jc6vj2safwrgq0wonof3jzkk2sa58,aBWLU16Q,2020-0188,2020-06-16,12:17:44,12:35:30,NA,incomplete,200,race,2,1,right,A_F_08.jpg,C_F_05.jpg,A_M_13.jpg,left,734.9199999589473,false,high,false
aBWLU16Q,32204agabep2jqz0kncwzihmy16hgu,3jc6vj2safwrgq0wonof3jzkk2sa58,aBWLU16Q,2020-0188,2020-06-16,12:17:44,12:35:30,NA,incomplete,201,race,2,0,left,A_M_09.jpg,A_F_12.jpg,C_M_15.jpg,right,1600.815000012517,false,high,false
aBWLU16Q,32204agabep2jqz0kncwzihmy16hgu,3jc6vj2safwrgq0wonof3jzkk2sa58,aBWLU16Q,2020-0188,2020-06-16,12:17:44,12:35:30,NA,incomplete,202,race,2,1,right,A_F_12.jpg,C_F_16.jpg,A_M_09.jpg,left,1027.7250001672655,false,high,false
aBWLU16Q,32204agabep2jqz0kncwzihmy16hgu,3jc6vj2safwrgq0wonof3jzkk2sa58,aBWLU16Q,2020-0188,2020-06-16,12:17:44,12:35:30,NA,incomplete,203,race,2,1,right,A_M_08.jpg,C_M_02.jpg,A_F_16.jpg,left,1336.4099999889731,false,high,false
aBWLU16Q,32204agabep2jqz0kncwzihmy16hgu,3jc6vj2safwrgq0wonof3jzkk2sa58,aBWLU16Q,2020-0188,2020-06-16,12:17:44,12:35:30,NA,incomplete,204,race,2,1,left,A_F_12.jpg,A_M_01.jpg,C_F_15.jpg,left,1297.0600000116974,true,high,false
aBWLU16Q,32204agabep2jqz0kncwzihmy16hgu,3jc6vj2safwrgq0wonof3jzkk2sa58,aBWLU16Q,2020-0188,2020-06-16,12:17:44,12:35:30,NA,incomplete,205,race,2,0,right,C_F_06.jpg,A_F_16.jpg,C_M_09.jpg,right,1168.8499997835606,true,high,false
aBWLU16Q,32204agabep2jqz0kncwzihmy16hgu,3jc6vj2safwrgq0wonof3jzkk2sa58,aBWLU16Q,2020-0188,2020-06-16,12:17:44,12:35:30,NA,incomplete,206,race,2,1,left,A_M_15.jpg,A_F_05.jpg,C_M_13.jpg,none,0,false,high,false
aBWLU16Q,32204agabep2jqz0kncwzihmy16hgu,3jc6vj2safwrgq0wonof3jzkk2sa58,aBWLU16Q,2020-0188,2020-06-16,12:17:44,12:35:30,NA,incomplete,207,race,2,0,left,C_M_14.jpg,C_F_04.jpg,A_M_12.jpg,left,947.7699999697506,true,high,false
aBWLU16Q,32204agabep2jqz0kncwzihmy16hgu,3jc6vj2safwrgq0wonof3jzkk2sa58,aBWLU16Q,2020-0188,2020-06-16,12:17:44,12:35:30,NA,incomplete,208,race,2,1,right,C_F_01.jpg,A_F_13.jpg,C_M_10.jpg,right,906.2850000336766,true,high,false
aBWLU16Q,32204agabep2jqz0kncwzihmy16hgu,3jc6vj2safwrgq0wonof3jzkk2sa58,aBWLU16Q,2020-0188,2020-06-16,12:17:44,12:35:30,NA,incomplete,209,race,2,1,right,C_M_10.jpg,A_M_07.jpg,C_F_08.jpg,right,1265.184999909252,true,high,false
aBWLU16Q,32204agabep2jqz0kncwzihmy16hgu,3jc6vj2safwrgq0wonof3jzkk2sa58,aBWLU16Q,2020-0188,2020-06-16,12:17:44,12:35:30,NA,incomplete,210,race,2,1,left,C_M_12.jpg,C_F_03.jpg,A_M_07.jpg,left,1013.1449999753386,true,high,false
aBWLU16Q,32204agabep2jqz0kncwzihmy16hgu,3jc6vj2safwrgq0wonof3jzkk2sa58,aBWLU16Q,2020-0188,2020-06-16,12:17:44,12:35:30,NA,incomplete,211,race,2,0,right,A_F_04.jpg,C_F_12.jpg,A_M_16.jpg,right,1128.0249999836087,true,high,false
aBWLU16Q,32204agabep2jqz0kncwzihmy16hgu,3jc6vj2safwrgq0wonof3jzkk2sa58,aBWLU16Q,2020-0188,2020-06-16,12:17:44,12:35:30,NA,incomplete,212,race,2,1,right,C_F_07.jpg,A_F_03.jpg,C_M_12.jpg,right,1526.7650000751019,true,high,false
aBWLU16Q,32204agabep2jqz0kncwzihmy16hgu,3jc6vj2safwrgq0wonof3jzkk2sa58,aBWLU16Q,2020-0188,2020-06-16,12:17:44,12:35:30,NA,incomplete,213,race,2,1,left,A_F_16.jpg,A_M_13.jpg,C_F_12.jpg,left,930.0899999216199,true,high,false
aBWLU16Q,32204agabep2jqz0kncwzihmy16hgu,3jc6vj2safwrgq0wonof3jzkk2sa58,aBWLU16Q,2020-0188,2020-06-16,12:17:44,12:35:30,NA,incomplete,214,race,2,1,left,A_M_01.jpg,A_F_02.jpg,C_M_09.jpg,left,1007.5949998572469,true,high,false
aBWLU16Q,32204agabep2jqz0kncwzihmy16hgu,3jc6vj2safwrgq0wonof3jzkk2sa58,aBWLU16Q,2020-0188,2020-06-16,12:17:44,12:35:30,NA,incomplete,215,race,2,1,left,C_F_12.jpg,C_M_16.jpg,A_F_03.jpg,left,1016.5400002151728,true,high,false
aBWLU16Q,32204agabep2jqz0kncwzihmy16hgu,3jc6vj2safwrgq0wonof3jzkk2sa58,aBWLU16Q,2020-0188,2020-06-16,12:17:44,12:35:30,NA,incomplete,216,race,2,1,right,A_M_07.jpg,C_M_08.jpg,A_F_10.jpg,right,986.5749999880791,true,high,false
aBWLU16Q,32204agabep2jqz0kncwzihmy16hgu,3jc6vj2safwrgq0wonof3jzkk2sa58,aBWLU16Q,2020-0188,2020-06-16,12:17:44,12:35:30,NA,incomplete,217,race,2,1,right,C_M_06.jpg,A_M_01.jpg,C_F_14.jpg,right,951.3700001407415,true,high,false
aBWLU16Q,32204agabep2jqz0kncwzihmy16hgu,3jc6vj2safwrgq0wonof3jzkk2sa58,aBWLU16Q,2020-0188,2020-06-16,12:17:44,12:35:30,NA,incomplete,218,race,2,1,left,A_M_01.jpg,A_F_13.jpg,C_M_09.jpg,left,1681.9350000005215,true,high,false
aBWLU16Q,32204agabep2jqz0kncwzihmy16hgu,3jc6vj2safwrgq0wonof3jzkk2sa58,aBWLU16Q,2020-0188,2020-06-16,12:17:44,12:35:30,NA,incomplete,219,race,2,1,left,A_M_06.jpg,A_F_15.jpg,C_M_03.jpg,left,1267.6500000525266,true,high,false
aBWLU16Q,32204agabep2jqz0kncwzihmy16hgu,3jc6vj2safwrgq0wonof3jzkk2sa58,aBWLU16Q,2020-0188,2020-06-16,12:17:44,12:35:30,NA,incomplete,220,gender,3,1,left,A_M_12.jpg,C_M_11.jpg,A_F_08.jpg,right,1081.135000102222,false,high,false
aBWLU16Q,32204agabep2jqz0kncwzihmy16hgu,3jc6vj2safwrgq0wonof3jzkk2sa58,aBWLU16Q,2020-0188,2020-06-16,12:17:44,12:35:30,NA,incomplete,221,gender,3,1,left,C_M_13.jpg,A_M_03.jpg,C_F_08.jpg,right,1127.169999992475,false,high,false
aBWLU16Q,32204agabep2jqz0kncwzihmy16hgu,3jc6vj2safwrgq0wonof3jzkk2sa58,aBWLU16Q,2020-0188,2020-06-16,12:17:44,12:35:30,NA,incomplete,222,gender,3,1,right,C_M_16.jpg,C_F_10.jpg,A_M_07.jpg,left,1315.995000069961,false,high,false
aBWLU16Q,32204agabep2jqz0kncwzihmy16hgu,3jc6vj2safwrgq0wonof3jzkk2sa58,aBWLU16Q,2020-0188,2020-06-16,12:17:44,12:35:30,NA,incomplete,223,gender,3,0,right,C_F_02.jpg,C_M_10.jpg,A_F_07.jpg,right,967.2050001099706,true,high,false
aBWLU16Q,32204agabep2jqz0kncwzihmy16hgu,3jc6vj2safwrgq0wonof3jzkk2sa58,aBWLU16Q,2020-0188,2020-06-16,12:17:44,12:35:30,NA,incomplete,224,gender,3,1,right,A_M_14.jpg,A_F_01.jpg,C_M_02.jpg,left,1034.775000065565,false,high,false
aBWLU16Q,32204agabep2jqz0kncwzihmy16hgu,3jc6vj2safwrgq0wonof3jzkk2sa58,aBWLU16Q,2020-0188,2020-06-16,12:17:44,12:35:30,NA,incomplete,225,gender,3,1,left,A_F_08.jpg,C_F_04.jpg,A_M_03.jpg,left,1188.7100001331419,true,high,false
aBWLU16Q,32204agabep2jqz0kncwzihmy16hgu,3jc6vj2safwrgq0wonof3jzkk2sa58,aBWLU16Q,2020-0188,2020-06-16,12:17:44,12:35:30,NA,incomplete,226,gender,3,1,left,A_F_06.jpg,C_F_05.jpg,A_M_09.jpg,right,835.8499999158084,false,high,false
aBWLU16Q,32204agabep2jqz0kncwzihmy16hgu,3jc6vj2safwrgq0wonof3jzkk2sa58,aBWLU16Q,2020-0188,2020-06-16,12:17:44,12:35:30,NA,incomplete,227,gender,3,1,right,A_F_08.jpg,A_M_11.jpg,C_F_01.jpg,right,720.1849999837577,true,high,false
aBWLU16Q,32204agabep2jqz0kncwzihmy16hgu,3jc6vj2safwrgq0wonof3jzkk2sa58,aBWLU16Q,2020-0188,2020-06-16,12:17:44,12:35:30,NA,incomplete,228,gender,3,1,right,A_M_13.jpg,A_F_01.jpg,C_M_10.jpg,right,827.6649999897927,true,high,false
aBWLU16Q,32204agabep2jqz0kncwzihmy16hgu,3jc6vj2safwrgq0wonof3jzkk2sa58,aBWLU16Q,2020-0188,2020-06-16,12:17:44,12:35:30,NA,incomplete,229,gender,3,1,left,A_F_06.jpg,C_F_08.jpg,A_M_15.jpg,left,922.8900000452995,true,high,false
aBWLU16Q,32204agabep2jqz0kncwzihmy16hgu,3jc6vj2safwrgq0wonof3jzkk2sa58,aBWLU16Q,2020-0188,2020-06-16,12:17:44,12:35:30,NA,incomplete,230,gender,3,1,left,A_F_05.jpg,C_F_02.jpg,A_M_03.jpg,left,683.9900000486523,true,high,false
aBWLU16Q,32204agabep2jqz0kncwzihmy16hgu,3jc6vj2safwrgq0wonof3jzkk2sa58,aBWLU16Q,2020-0188,2020-06-16,12:17:44,12:35:30,NA,incomplete,231,gender,3,1,right,A_M_09.jpg,A_F_05.jpg,C_M_04.jpg,right,769.6449998766184,true,high,false
aBWLU16Q,32204agabep2jqz0kncwzihmy16hgu,3jc6vj2safwrgq0wonof3jzkk2sa58,aBWLU16Q,2020-0188,2020-06-16,12:17:44,12:35:30,NA,incomplete,232,gender,3,1,right,A_M_12.jpg,A_F_06.jpg,C_M_08.jpg,right,718.6249999795109,true,high,false
aBWLU16Q,32204agabep2jqz0kncwzihmy16hgu,3jc6vj2safwrgq0wonof3jzkk2sa58,aBWLU16Q,2020-0188,2020-06-16,12:17:44,12:35:30,NA,incomplete,233,gender,3,1,left,C_M_07.jpg,A_M_03.jpg,C_F_12.jpg,left,786.5199998486787,true,high,false
aBWLU16Q,32204agabep2jqz0kncwzihmy16hgu,3jc6vj2safwrgq0wonof3jzkk2sa58,aBWLU16Q,2020-0188,2020-06-16,12:17:44,12:35:30,NA,incomplete,234,gender,3,1,left,A_M_02.jpg,C_M_08.jpg,A_F_15.jpg,left,896.6099999379367,true,high,false
aBWLU16Q,32204agabep2jqz0kncwzihmy16hgu,3jc6vj2safwrgq0wonof3jzkk2sa58,aBWLU16Q,2020-0188,2020-06-16,12:17:44,12:35:30,NA,incomplete,235,gender,3,1,right,C_M_16.jpg,C_F_12.jpg,A_M_06.jpg,right,748.2100001070648,true,high,false
aBWLU16Q,32204agabep2jqz0kncwzihmy16hgu,3jc6vj2safwrgq0wonof3jzkk2sa58,aBWLU16Q,2020-0188,2020-06-16,12:17:44,12:35:30,NA,incomplete,236,gender,3,1,left,C_M_05.jpg,A_M_04.jpg,C_F_09.jpg,left,681.624999968335,true,high,false
aBWLU16Q,32204agabep2jqz0kncwzihmy16hgu,3jc6vj2safwrgq0wonof3jzkk2sa58,aBWLU16Q,2020-0188,2020-06-16,12:17:44,12:35:30,NA,incomplete,237,gender,3,1,right,A_M_11.jpg,A_F_10.jpg,C_M_04.jpg,right,656.2600000761449,true,high,false
aBWLU16Q,32204agabep2jqz0kncwzihmy16hgu,3jc6vj2safwrgq0wonof3jzkk2sa58,aBWLU16Q,2020-0188,2020-06-16,12:17:44,12:35:30,NA,incomplete,238,gender,3,1,right,A_F_05.jpg,A_M_07.jpg,C_F_11.jpg,right,881.935000186786,true,high,false
aBWLU16Q,32204agabep2jqz0kncwzihmy16hgu,3jc6vj2safwrgq0wonof3jzkk2sa58,aBWLU16Q,2020-0188,2020-06-16,12:17:44,12:35:30,NA,incomplete,239,gender,3,1,left,C_F_01.jpg,A_F_14.jpg,C_M_12.jpg,left,614.714999916032,true,high,false
aBWLU16Q,32204agabep2jqz0kncwzihmy16hgu,3jc6vj2safwrgq0wonof3jzkk2sa58,aBWLU16Q,2020-0188,2020-06-16,12:17:44,12:35:30,NA,NA,instruction example,shape,NA,NA,NA,Green_Plus_Grid_3.jpg,Purple_Plus_Dots_2.jpg,Blue_Triangle_Chess_3.jpg,NA,NA,NA,NA,undefined
aBWLU16Q,32204agabep2jqz0kncwzihmy16hgu,3jc6vj2safwrgq0wonof3jzkk2sa58,aBWLU16Q,2020-0188,2020-06-16,12:17:44,12:35:30,NA,NA,instruction example,shape,NA,NA,NA,Red_Star_Chess_1.jpg,Green_Plus_Grid_1.jpg,Blue_Star_Stripes_2.jpg,NA,NA,NA,NA,undefined
aBWLU16Q,32204agabep2jqz0kncwzihmy16hgu,3jc6vj2safwrgq0wonof3jzkk2sa58,aBWLU16Q,2020-0188,2020-06-16,12:17:44,12:35:30,NA,NA,instruction example,shape,NA,NA,NA,C_M_09.jpg,C_F_10.jpg,A_M_03.jpg,NA,NA,NA,NA,undefined
aBWLU16Q,32204agabep2jqz0kncwzihmy16hgu,3jc6vj2safwrgq0wonof3jzkk2sa58,aBWLU16Q,2020-0188,2020-06-16,12:17:44,12:35:30,NA,NA,instruction example,shape,NA,NA,NA,A_M_02.jpg,C_M_10.jpg,A_F_09.jpg,NA,NA,NA,NA,undefined
