workerId,hitId,assignmentId,subject,studyid,exp_date,exp_start,exp_end,time_start,time_end,trial,type,sequence,reward_validity,answer,image_top,image_left,image_right,response,response_time,response_acc,volatility,practice
H499Jksx,3oplmf3ev80afezcyc4phujqmmslnu,3jpsl1dz5wcv6f62snk1x0z756qna7,H499Jksx,2020-0188,2020-11-16,19:05:13,19:25:12,NA,incomplete,0,color,0,0,right,Purple_Star_Chess_1.jpg,Blue_Circle_Chess_3.jpg,Purple_Triangle_Dots_4.jpg,right,1195.6199999840464,true,NA,true
H499Jksx,3oplmf3ev80afezcyc4phujqmmslnu,3jpsl1dz5wcv6f62snk1x0z756qna7,H499Jksx,2020-0188,2020-11-16,19:05:13,19:25:12,NA,incomplete,1,color,0,1,right,Red_Plus_Dots_2.jpg,Purple_Triangle_Dots_4.jpg,Red_Star_Grid_3.jpg,right,1554.4949999894015,true,NA,true
H499Jksx,3oplmf3ev80afezcyc4phujqmmslnu,3jpsl1dz5wcv6f62snk1x0z756qna7,H499Jksx,2020-0188,2020-11-16,19:05:13,19:25:12,NA,incomplete,2,color,0,1,left,Purple_Circle_Dots_3.jpg,Purple_Star_Chess_1.jpg,Red_Plus_Dots_4.jpg,left,1070.1849999895785,true,NA,true
H499Jksx,3oplmf3ev80afezcyc4phujqmmslnu,3jpsl1dz5wcv6f62snk1x0z756qna7,H499Jksx,2020-0188,2020-11-16,19:05:13,19:25:12,NA,incomplete,3,color,0,1,right,Red_Circle_Grid_4.jpg,Blue_Star_Grid_2.jpg,Red_Triangle_Chess_1.jpg,right,1042.0600000070408,true,NA,true
H499Jksx,3oplmf3ev80afezcyc4phujqmmslnu,3jpsl1dz5wcv6f62snk1x0z756qna7,H499Jksx,2020-0188,2020-11-16,19:05:13,19:25:12,NA,incomplete,4,color,0,0,right,Green_Star_Stripes_1.jpg,Red_Triangle_Stripes_2.jpg,Green_Plus_Grid_4.jpg,right,1068.2549999910407,true,NA,true
H499Jksx,3oplmf3ev80afezcyc4phujqmmslnu,3jpsl1dz5wcv6f62snk1x0z756qna7,H499Jksx,2020-0188,2020-11-16,19:05:13,19:25:12,NA,incomplete,5,color,0,1,left,Green_Circle_Stripes_3.jpg,Green_Star_Chess_1.jpg,Red_Triangle_Stripes_4.jpg,left,1117.5349999975879,true,NA,true
H499Jksx,3oplmf3ev80afezcyc4phujqmmslnu,3jpsl1dz5wcv6f62snk1x0z756qna7,H499Jksx,2020-0188,2020-11-16,19:05:13,19:25:12,NA,incomplete,6,color,0,1,left,Purple_Triangle_Stripes_4.jpg,Purple_Star_Grid_3.jpg,Red_Plus_Stripes_1.jpg,left,932.2699999902397,true,NA,true
H499Jksx,3oplmf3ev80afezcyc4phujqmmslnu,3jpsl1dz5wcv6f62snk1x0z756qna7,H499Jksx,2020-0188,2020-11-16,19:05:13,19:25:12,NA,incomplete,7,color,0,1,left,Blue_Plus_Dots_4.jpg,Blue_Triangle_Chess_1.jpg,Red_Circle_Dots_3.jpg,left,884.9950000003446,true,NA,true
H499Jksx,3oplmf3ev80afezcyc4phujqmmslnu,3jpsl1dz5wcv6f62snk1x0z756qna7,H499Jksx,2020-0188,2020-11-16,19:05:13,19:25:12,NA,incomplete,8,color,0,1,left,Blue_Plus_Stripes_1.jpg,Blue_Star_Grid_4.jpg,Purple_Circle_Stripes_3.jpg,left,1039.0649999899324,true,NA,true
H499Jksx,3oplmf3ev80afezcyc4phujqmmslnu,3jpsl1dz5wcv6f62snk1x0z756qna7,H499Jksx,2020-0188,2020-11-16,19:05:13,19:25:12,NA,incomplete,9,color,0,1,left,Red_Star_Stripes_1.jpg,Red_Plus_Grid_2.jpg,Green_Circle_Stripes_4.jpg,left,928.090000001248,true,NA,true
H499Jksx,3oplmf3ev80afezcyc4phujqmmslnu,3jpsl1dz5wcv6f62snk1x0z756qna7,H499Jksx,2020-0188,2020-11-16,19:05:13,19:25:12,NA,incomplete,10,color,0,1,left,Blue_Plus_Stripes_4.jpg,Blue_Star_Chess_3.jpg,Red_Circle_Stripes_1.jpg,left,711.3299999909941,true,NA,true
H499Jksx,3oplmf3ev80afezcyc4phujqmmslnu,3jpsl1dz5wcv6f62snk1x0z756qna7,H499Jksx,2020-0188,2020-11-16,19:05:13,19:25:12,NA,incomplete,11,color,0,1,left,Green_Star_Chess_2.jpg,Green_Circle_Dots_4.jpg,Red_Triangle_Chess_3.jpg,left,831.865000014659,true,NA,true
H499Jksx,3oplmf3ev80afezcyc4phujqmmslnu,3jpsl1dz5wcv6f62snk1x0z756qna7,H499Jksx,2020-0188,2020-11-16,19:05:13,19:25:12,NA,incomplete,12,color,0,0,left,Blue_Circle_Dots_2.jpg,Blue_Star_Stripes_4.jpg,Red_Triangle_Dots_3.jpg,left,803.5950000048615,true,NA,true
H499Jksx,3oplmf3ev80afezcyc4phujqmmslnu,3jpsl1dz5wcv6f62snk1x0z756qna7,H499Jksx,2020-0188,2020-11-16,19:05:13,19:25:12,NA,incomplete,13,color,0,1,right,Red_Star_Grid_4.jpg,Green_Plus_Grid_3.jpg,Red_Triangle_Dots_1.jpg,right,793.1099999987055,true,NA,true
H499Jksx,3oplmf3ev80afezcyc4phujqmmslnu,3jpsl1dz5wcv6f62snk1x0z756qna7,H499Jksx,2020-0188,2020-11-16,19:05:13,19:25:12,NA,incomplete,14,color,0,1,left,Purple_Plus_Grid_2.jpg,Purple_Star_Dots_4.jpg,Blue_Triangle_Grid_3.jpg,left,684.3150000204332,true,NA,true
H499Jksx,3oplmf3ev80afezcyc4phujqmmslnu,3jpsl1dz5wcv6f62snk1x0z756qna7,H499Jksx,2020-0188,2020-11-16,19:05:13,19:25:12,NA,incomplete,15,color,0,1,left,Green_Triangle_Chess_3.jpg,Green_Circle_Dots_4.jpg,Purple_Star_Chess_1.jpg,left,804.8650000127964,true,NA,true
H499Jksx,3oplmf3ev80afezcyc4phujqmmslnu,3jpsl1dz5wcv6f62snk1x0z756qna7,H499Jksx,2020-0188,2020-11-16,19:05:13,19:25:12,NA,incomplete,16,color,0,1,left,Red_Triangle_Grid_2.jpg,Red_Star_Stripes_3.jpg,Green_Plus_Grid_1.jpg,left,593.8449999957811,true,NA,true
H499Jksx,3oplmf3ev80afezcyc4phujqmmslnu,3jpsl1dz5wcv6f62snk1x0z756qna7,H499Jksx,2020-0188,2020-11-16,19:05:13,19:25:12,NA,incomplete,17,color,0,1,left,Purple_Star_Chess_4.jpg,Purple_Triangle_Stripes_1.jpg,Green_Plus_Chess_2.jpg,left,886.3649999839254,true,NA,true
H499Jksx,3oplmf3ev80afezcyc4phujqmmslnu,3jpsl1dz5wcv6f62snk1x0z756qna7,H499Jksx,2020-0188,2020-11-16,19:05:13,19:25:12,NA,incomplete,18,color,0,1,right,Purple_Star_Chess_1.jpg,Red_Plus_Chess_3.jpg,Purple_Triangle_Stripes_2.jpg,right,786.4549999940209,true,NA,true
H499Jksx,3oplmf3ev80afezcyc4phujqmmslnu,3jpsl1dz5wcv6f62snk1x0z756qna7,H499Jksx,2020-0188,2020-11-16,19:05:13,19:25:12,NA,incomplete,19,color,0,0,left,Blue_Circle_Chess_1.jpg,Blue_Triangle_Stripes_2.jpg,Purple_Star_Chess_4.jpg,left,836.089999997057,true,NA,true
H499Jksx,3oplmf3ev80afezcyc4phujqmmslnu,3jpsl1dz5wcv6f62snk1x0z756qna7,H499Jksx,2020-0188,2020-11-16,19:05:13,19:25:12,NA,incomplete,20,filling,1,1,right,Blue_Star_Dots_3.jpg,Blue_Triangle_Chess_4.jpg,Red_Plus_Dots_2.jpg,left,751.4050000172574,false,NA,true
H499Jksx,3oplmf3ev80afezcyc4phujqmmslnu,3jpsl1dz5wcv6f62snk1x0z756qna7,H499Jksx,2020-0188,2020-11-16,19:05:13,19:25:12,NA,incomplete,21,filling,1,1,left,Purple_Plus_Grid_4.jpg,Blue_Triangle_Grid_2.jpg,Purple_Star_Dots_1.jpg,right,1437.6499999780208,false,NA,true
H499Jksx,3oplmf3ev80afezcyc4phujqmmslnu,3jpsl1dz5wcv6f62snk1x0z756qna7,H499Jksx,2020-0188,2020-11-16,19:05:13,19:25:12,NA,incomplete,22,filling,1,1,right,Green_Star_Chess_3.jpg,Green_Circle_Grid_2.jpg,Blue_Triangle_Chess_4.jpg,right,1145.4500000108965,true,NA,true
H499Jksx,3oplmf3ev80afezcyc4phujqmmslnu,3jpsl1dz5wcv6f62snk1x0z756qna7,H499Jksx,2020-0188,2020-11-16,19:05:13,19:25:12,NA,incomplete,23,filling,1,1,left,Green_Plus_Chess_1.jpg,Blue_Star_Chess_4.jpg,Green_Circle_Grid_2.jpg,left,1169.8700000124518,true,NA,true
H499Jksx,3oplmf3ev80afezcyc4phujqmmslnu,3jpsl1dz5wcv6f62snk1x0z756qna7,H499Jksx,2020-0188,2020-11-16,19:05:13,19:25:12,NA,incomplete,24,filling,1,1,left,Red_Circle_Grid_4.jpg,Purple_Triangle_Grid_3.jpg,Red_Star_Dots_1.jpg,right,1252.6550000184216,false,NA,true
H499Jksx,3oplmf3ev80afezcyc4phujqmmslnu,3jpsl1dz5wcv6f62snk1x0z756qna7,H499Jksx,2020-0188,2020-11-16,19:05:13,19:25:12,NA,incomplete,25,filling,1,1,right,Blue_Plus_Dots_4.jpg,Blue_Circle_Grid_1.jpg,Green_Star_Dots_2.jpg,right,1261.3949999795295,true,NA,true
H499Jksx,3oplmf3ev80afezcyc4phujqmmslnu,3jpsl1dz5wcv6f62snk1x0z756qna7,H499Jksx,2020-0188,2020-11-16,19:05:13,19:25:12,NA,incomplete,26,filling,1,1,left,Red_Triangle_Grid_1.jpg,Green_Star_Grid_3.jpg,Red_Circle_Stripes_2.jpg,left,1545.2450000157114,true,NA,true
H499Jksx,3oplmf3ev80afezcyc4phujqmmslnu,3jpsl1dz5wcv6f62snk1x0z756qna7,H499Jksx,2020-0188,2020-11-16,19:05:13,19:25:12,NA,incomplete,27,filling,1,0,left,Blue_Star_Chess_1.jpg,Green_Plus_Chess_2.jpg,Blue_Circle_Dots_4.jpg,left,1744.650000007823,true,NA,true
H499Jksx,3oplmf3ev80afezcyc4phujqmmslnu,3jpsl1dz5wcv6f62snk1x0z756qna7,H499Jksx,2020-0188,2020-11-16,19:05:13,19:25:12,NA,incomplete,28,filling,1,1,right,Green_Plus_Chess_3.jpg,Green_Triangle_Stripes_2.jpg,Red_Circle_Chess_1.jpg,right,1554.3699999980163,true,NA,true
H499Jksx,3oplmf3ev80afezcyc4phujqmmslnu,3jpsl1dz5wcv6f62snk1x0z756qna7,H499Jksx,2020-0188,2020-11-16,19:05:13,19:25:12,NA,incomplete,29,filling,1,1,right,Purple_Plus_Stripes_2.jpg,Purple_Circle_Chess_1.jpg,Blue_Star_Stripes_4.jpg,right,1140.9350000030827,true,NA,true
H499Jksx,3oplmf3ev80afezcyc4phujqmmslnu,3jpsl1dz5wcv6f62snk1x0z756qna7,H499Jksx,2020-0188,2020-11-16,19:05:13,19:25:12,NA,incomplete,30,filling,1,1,right,Blue_Circle_Stripes_3.jpg,Blue_Plus_Grid_2.jpg,Red_Triangle_Stripes_1.jpg,right,1397.5700000009965,true,NA,true
H499Jksx,3oplmf3ev80afezcyc4phujqmmslnu,3jpsl1dz5wcv6f62snk1x0z756qna7,H499Jksx,2020-0188,2020-11-16,19:05:13,19:25:12,NA,incomplete,31,filling,1,0,left,Green_Triangle_Dots_4.jpg,Red_Star_Dots_1.jpg,Green_Circle_Grid_2.jpg,left,1160.7099999964703,true,NA,true
H499Jksx,3oplmf3ev80afezcyc4phujqmmslnu,3jpsl1dz5wcv6f62snk1x0z756qna7,H499Jksx,2020-0188,2020-11-16,19:05:13,19:25:12,NA,incomplete,32,filling,1,1,right,Red_Plus_Stripes_2.jpg,Red_Circle_Grid_3.jpg,Purple_Triangle_Stripes_1.jpg,right,1511.1200000101235,true,NA,true
H499Jksx,3oplmf3ev80afezcyc4phujqmmslnu,3jpsl1dz5wcv6f62snk1x0z756qna7,H499Jksx,2020-0188,2020-11-16,19:05:13,19:25:12,NA,incomplete,33,filling,1,1,left,Purple_Star_Chess_3.jpg,Blue_Circle_Chess_4.jpg,Purple_Plus_Dots_2.jpg,left,1455.404999986058,true,NA,true
H499Jksx,3oplmf3ev80afezcyc4phujqmmslnu,3jpsl1dz5wcv6f62snk1x0z756qna7,H499Jksx,2020-0188,2020-11-16,19:05:13,19:25:12,NA,incomplete,34,filling,1,1,right,Green_Star_Chess_3.jpg,Green_Plus_Dots_4.jpg,Blue_Triangle_Chess_1.jpg,right,1195.0500000093598,true,NA,true
H499Jksx,3oplmf3ev80afezcyc4phujqmmslnu,3jpsl1dz5wcv6f62snk1x0z756qna7,H499Jksx,2020-0188,2020-11-16,19:05:13,19:25:12,NA,incomplete,35,filling,1,1,left,Blue_Triangle_Dots_3.jpg,Red_Star_Dots_1.jpg,Blue_Plus_Chess_2.jpg,left,1087.0149999973364,true,NA,true
H499Jksx,3oplmf3ev80afezcyc4phujqmmslnu,3jpsl1dz5wcv6f62snk1x0z756qna7,H499Jksx,2020-0188,2020-11-16,19:05:13,19:25:12,NA,incomplete,36,filling,1,0,left,Green_Circle_Dots_4.jpg,Red_Plus_Dots_1.jpg,Green_Star_Grid_2.jpg,left,1311.7250000068452,true,NA,true
H499Jksx,3oplmf3ev80afezcyc4phujqmmslnu,3jpsl1dz5wcv6f62snk1x0z756qna7,H499Jksx,2020-0188,2020-11-16,19:05:13,19:25:12,NA,incomplete,37,filling,1,1,right,Red_Plus_Dots_3.jpg,Red_Circle_Chess_2.jpg,Purple_Triangle_Dots_1.jpg,left,1512.1349999972153,false,NA,true
H499Jksx,3oplmf3ev80afezcyc4phujqmmslnu,3jpsl1dz5wcv6f62snk1x0z756qna7,H499Jksx,2020-0188,2020-11-16,19:05:13,19:25:12,NA,incomplete,38,filling,1,0,right,Blue_Triangle_Stripes_3.jpg,Blue_Plus_Grid_4.jpg,Purple_Circle_Stripes_2.jpg,right,1375.9199999913108,true,NA,true
H499Jksx,3oplmf3ev80afezcyc4phujqmmslnu,3jpsl1dz5wcv6f62snk1x0z756qna7,H499Jksx,2020-0188,2020-11-16,19:05:13,19:25:12,NA,incomplete,39,filling,1,1,left,Blue_Star_Grid_4.jpg,Green_Triangle_Grid_2.jpg,Blue_Circle_Dots_1.jpg,left,1205.1400000054855,true,NA,true
H499Jksx,3oplmf3ev80afezcyc4phujqmmslnu,3jpsl1dz5wcv6f62snk1x0z756qna7,H499Jksx,2020-0188,2020-11-16,19:05:13,19:25:12,NA,incomplete,0,color,0,1,right,Red_Star_Chess_4.jpg,Blue_Circle_Chess_1.jpg,Red_Triangle_Dots_3.jpg,right,788.8699999894015,true,high,false
H499Jksx,3oplmf3ev80afezcyc4phujqmmslnu,3jpsl1dz5wcv6f62snk1x0z756qna7,H499Jksx,2020-0188,2020-11-16,19:05:13,19:25:12,NA,incomplete,1,color,0,1,right,Purple_Triangle_Grid_1.jpg,Green_Circle_Grid_2.jpg,Purple_Plus_Dots_3.jpg,right,649.7549999912735,true,high,false
H499Jksx,3oplmf3ev80afezcyc4phujqmmslnu,3jpsl1dz5wcv6f62snk1x0z756qna7,H499Jksx,2020-0188,2020-11-16,19:05:13,19:25:12,NA,incomplete,2,color,0,0,right,Purple_Plus_Grid_3.jpg,Red_Circle_Grid_2.jpg,Purple_Triangle_Chess_1.jpg,right,876.3949999993201,true,high,false
H499Jksx,3oplmf3ev80afezcyc4phujqmmslnu,3jpsl1dz5wcv6f62snk1x0z756qna7,H499Jksx,2020-0188,2020-11-16,19:05:13,19:25:12,NA,incomplete,3,color,0,1,left,Blue_Triangle_Chess_4.jpg,Blue_Circle_Grid_3.jpg,Red_Star_Chess_1.jpg,left,717.7249999949709,true,high,false
H499Jksx,3oplmf3ev80afezcyc4phujqmmslnu,3jpsl1dz5wcv6f62snk1x0z756qna7,H499Jksx,2020-0188,2020-11-16,19:05:13,19:25:12,NA,incomplete,4,color,0,1,right,Blue_Plus_Dots_3.jpg,Red_Circle_Dots_2.jpg,Blue_Star_Stripes_4.jpg,right,710.9100000234321,true,high,false
H499Jksx,3oplmf3ev80afezcyc4phujqmmslnu,3jpsl1dz5wcv6f62snk1x0z756qna7,H499Jksx,2020-0188,2020-11-16,19:05:13,19:25:12,NA,incomplete,5,color,0,1,right,Green_Plus_Chess_2.jpg,Purple_Circle_Chess_4.jpg,Green_Star_Dots_3.jpg,right,621.1550000007264,true,high,false
H499Jksx,3oplmf3ev80afezcyc4phujqmmslnu,3jpsl1dz5wcv6f62snk1x0z756qna7,H499Jksx,2020-0188,2020-11-16,19:05:13,19:25:12,NA,incomplete,6,color,0,1,right,Red_Triangle_Dots_3.jpg,Purple_Circle_Dots_1.jpg,Red_Plus_Chess_4.jpg,right,864.5350000006147,true,high,false
H499Jksx,3oplmf3ev80afezcyc4phujqmmslnu,3jpsl1dz5wcv6f62snk1x0z756qna7,H499Jksx,2020-0188,2020-11-16,19:05:13,19:25:12,NA,incomplete,7,color,0,1,left,Blue_Plus_Grid_1.jpg,Blue_Circle_Chess_2.jpg,Purple_Triangle_Grid_3.jpg,left,811.6350000200327,true,high,false
H499Jksx,3oplmf3ev80afezcyc4phujqmmslnu,3jpsl1dz5wcv6f62snk1x0z756qna7,H499Jksx,2020-0188,2020-11-16,19:05:13,19:25:12,NA,incomplete,8,color,0,1,left,Green_Star_Chess_4.jpg,Green_Circle_Stripes_3.jpg,Blue_Triangle_Chess_1.jpg,left,663.7550000159536,true,high,false
H499Jksx,3oplmf3ev80afezcyc4phujqmmslnu,3jpsl1dz5wcv6f62snk1x0z756qna7,H499Jksx,2020-0188,2020-11-16,19:05:13,19:25:12,NA,incomplete,9,color,0,1,left,Blue_Star_Stripes_3.jpg,Blue_Plus_Chess_1.jpg,Red_Triangle_Stripes_2.jpg,left,699.0100000111852,true,high,false
H499Jksx,3oplmf3ev80afezcyc4phujqmmslnu,3jpsl1dz5wcv6f62snk1x0z756qna7,H499Jksx,2020-0188,2020-11-16,19:05:13,19:25:12,NA,incomplete,10,filling,1,1,left,Green_Circle_Dots_1.jpg,Purple_Plus_Dots_3.jpg,Green_Triangle_Stripes_2.jpg,right,842.2349999891594,false,high,false
H499Jksx,3oplmf3ev80afezcyc4phujqmmslnu,3jpsl1dz5wcv6f62snk1x0z756qna7,H499Jksx,2020-0188,2020-11-16,19:05:13,19:25:12,NA,incomplete,11,filling,1,0,right,Blue_Plus_Grid_4.jpg,Blue_Triangle_Stripes_3.jpg,Green_Circle_Grid_1.jpg,left,868.9650000014808,false,high,false
H499Jksx,3oplmf3ev80afezcyc4phujqmmslnu,3jpsl1dz5wcv6f62snk1x0z756qna7,H499Jksx,2020-0188,2020-11-16,19:05:13,19:25:12,NA,incomplete,12,filling,1,0,left,Purple_Circle_Stripes_2.jpg,Red_Plus_Stripes_1.jpg,Purple_Star_Chess_3.jpg,right,751.5200000198092,false,high,false
H499Jksx,3oplmf3ev80afezcyc4phujqmmslnu,3jpsl1dz5wcv6f62snk1x0z756qna7,H499Jksx,2020-0188,2020-11-16,19:05:13,19:25:12,NA,incomplete,13,filling,1,1,left,Green_Triangle_Grid_3.jpg,Purple_Star_Grid_1.jpg,Green_Circle_Dots_4.jpg,right,788.9950000098906,false,high,false
H499Jksx,3oplmf3ev80afezcyc4phujqmmslnu,3jpsl1dz5wcv6f62snk1x0z756qna7,H499Jksx,2020-0188,2020-11-16,19:05:13,19:25:12,NA,incomplete,14,filling,1,1,left,Red_Plus_Grid_2.jpg,Purple_Triangle_Grid_3.jpg,Red_Star_Stripes_1.jpg,right,620.5099999788217,false,high,false
H499Jksx,3oplmf3ev80afezcyc4phujqmmslnu,3jpsl1dz5wcv6f62snk1x0z756qna7,H499Jksx,2020-0188,2020-11-16,19:05:13,19:25:12,NA,incomplete,15,filling,1,1,left,Green_Plus_Grid_1.jpg,Blue_Triangle_Grid_2.jpg,Green_Star_Stripes_3.jpg,right,781.3450000248849,false,high,false
H499Jksx,3oplmf3ev80afezcyc4phujqmmslnu,3jpsl1dz5wcv6f62snk1x0z756qna7,H499Jksx,2020-0188,2020-11-16,19:05:13,19:25:12,NA,incomplete,16,filling,1,0,right,Blue_Triangle_Dots_2.jpg,Blue_Plus_Chess_4.jpg,Purple_Star_Dots_3.jpg,right,1162.7750000043306,true,high,false
H499Jksx,3oplmf3ev80afezcyc4phujqmmslnu,3jpsl1dz5wcv6f62snk1x0z756qna7,H499Jksx,2020-0188,2020-11-16,19:05:13,19:25:12,NA,incomplete,17,filling,1,1,right,Purple_Triangle_Stripes_1.jpg,Purple_Star_Dots_3.jpg,Green_Plus_Stripes_2.jpg,left,1664.9000000033993,false,high,false
H499Jksx,3oplmf3ev80afezcyc4phujqmmslnu,3jpsl1dz5wcv6f62snk1x0z756qna7,H499Jksx,2020-0188,2020-11-16,19:05:13,19:25:12,NA,incomplete,18,filling,1,1,left,Red_Plus_Stripes_2.jpg,Blue_Star_Stripes_4.jpg,Red_Circle_Grid_1.jpg,right,933.2200000062585,false,high,false
H499Jksx,3oplmf3ev80afezcyc4phujqmmslnu,3jpsl1dz5wcv6f62snk1x0z756qna7,H499Jksx,2020-0188,2020-11-16,19:05:13,19:25:12,NA,incomplete,19,filling,1,1,left,Red_Triangle_Dots_1.jpg,Blue_Circle_Dots_3.jpg,Red_Star_Chess_4.jpg,left,1435.8749999955762,true,high,false
H499Jksx,3oplmf3ev80afezcyc4phujqmmslnu,3jpsl1dz5wcv6f62snk1x0z756qna7,H499Jksx,2020-0188,2020-11-16,19:05:13,19:25:12,NA,incomplete,20,color,0,1,right,Purple_Plus_Dots_4.jpg,Green_Triangle_Dots_2.jpg,Purple_Circle_Grid_1.jpg,right,1221.8050000083167,true,high,false
H499Jksx,3oplmf3ev80afezcyc4phujqmmslnu,3jpsl1dz5wcv6f62snk1x0z756qna7,H499Jksx,2020-0188,2020-11-16,19:05:13,19:25:12,NA,incomplete,21,color,0,1,left,Red_Star_Chess_4.jpg,Red_Triangle_Dots_1.jpg,Purple_Plus_Chess_2.jpg,left,713.8250000134576,true,high,false
H499Jksx,3oplmf3ev80afezcyc4phujqmmslnu,3jpsl1dz5wcv6f62snk1x0z756qna7,H499Jksx,2020-0188,2020-11-16,19:05:13,19:25:12,NA,incomplete,22,color,0,1,right,Red_Plus_Stripes_1.jpg,Purple_Star_Stripes_3.jpg,Red_Triangle_Chess_4.jpg,right,714.7000000113621,true,high,false
H499Jksx,3oplmf3ev80afezcyc4phujqmmslnu,3jpsl1dz5wcv6f62snk1x0z756qna7,H499Jksx,2020-0188,2020-11-16,19:05:13,19:25:12,NA,incomplete,23,color,0,1,left,Purple_Triangle_Stripes_4.jpg,Purple_Star_Dots_1.jpg,Blue_Circle_Stripes_2.jpg,left,618.110000010347,true,high,false
H499Jksx,3oplmf3ev80afezcyc4phujqmmslnu,3jpsl1dz5wcv6f62snk1x0z756qna7,H499Jksx,2020-0188,2020-11-16,19:05:13,19:25:12,NA,incomplete,24,color,0,1,right,Green_Star_Grid_3.jpg,Purple_Triangle_Grid_2.jpg,Green_Plus_Stripes_4.jpg,right,805.3399999917019,true,high,false
H499Jksx,3oplmf3ev80afezcyc4phujqmmslnu,3jpsl1dz5wcv6f62snk1x0z756qna7,H499Jksx,2020-0188,2020-11-16,19:05:13,19:25:12,NA,incomplete,25,color,0,1,left,Purple_Circle_Stripes_1.jpg,Purple_Triangle_Chess_3.jpg,Blue_Plus_Stripes_2.jpg,left,697.2700000042096,true,high,false
H499Jksx,3oplmf3ev80afezcyc4phujqmmslnu,3jpsl1dz5wcv6f62snk1x0z756qna7,H499Jksx,2020-0188,2020-11-16,19:05:13,19:25:12,NA,incomplete,26,color,0,1,left,Purple_Triangle_Dots_3.jpg,Purple_Star_Chess_2.jpg,Blue_Plus_Dots_1.jpg,left,850.5400000140071,true,high,false
H499Jksx,3oplmf3ev80afezcyc4phujqmmslnu,3jpsl1dz5wcv6f62snk1x0z756qna7,H499Jksx,2020-0188,2020-11-16,19:05:13,19:25:12,NA,incomplete,27,color,0,1,left,Red_Triangle_Dots_1.jpg,Red_Star_Stripes_2.jpg,Purple_Plus_Dots_4.jpg,left,677.7399999846239,true,high,false
H499Jksx,3oplmf3ev80afezcyc4phujqmmslnu,3jpsl1dz5wcv6f62snk1x0z756qna7,H499Jksx,2020-0188,2020-11-16,19:05:13,19:25:12,NA,incomplete,28,color,0,1,left,Purple_Triangle_Grid_2.jpg,Purple_Star_Dots_4.jpg,Red_Plus_Grid_1.jpg,left,718.3049999875948,true,high,false
H499Jksx,3oplmf3ev80afezcyc4phujqmmslnu,3jpsl1dz5wcv6f62snk1x0z756qna7,H499Jksx,2020-0188,2020-11-16,19:05:13,19:25:12,NA,incomplete,29,color,0,1,left,Green_Circle_Dots_1.jpg,Green_Plus_Stripes_3.jpg,Purple_Triangle_Dots_2.jpg,left,845.7700000144541,true,high,false
H499Jksx,3oplmf3ev80afezcyc4phujqmmslnu,3jpsl1dz5wcv6f62snk1x0z756qna7,H499Jksx,2020-0188,2020-11-16,19:05:13,19:25:12,NA,incomplete,30,filling,1,1,right,Purple_Triangle_Stripes_2.jpg,Purple_Star_Dots_3.jpg,Green_Plus_Stripes_1.jpg,left,752.9749999812339,false,high,false
H499Jksx,3oplmf3ev80afezcyc4phujqmmslnu,3jpsl1dz5wcv6f62snk1x0z756qna7,H499Jksx,2020-0188,2020-11-16,19:05:13,19:25:12,NA,incomplete,31,filling,1,1,left,Blue_Star_Grid_2.jpg,Green_Plus_Grid_4.jpg,Blue_Circle_Stripes_3.jpg,left,983.345000015106,true,high,false
H499Jksx,3oplmf3ev80afezcyc4phujqmmslnu,3jpsl1dz5wcv6f62snk1x0z756qna7,H499Jksx,2020-0188,2020-11-16,19:05:13,19:25:12,NA,incomplete,32,filling,1,1,left,Blue_Plus_Chess_3.jpg,Red_Triangle_Chess_1.jpg,Blue_Star_Dots_2.jpg,left,1045.094999979483,true,high,false
H499Jksx,3oplmf3ev80afezcyc4phujqmmslnu,3jpsl1dz5wcv6f62snk1x0z756qna7,H499Jksx,2020-0188,2020-11-16,19:05:13,19:25:12,NA,incomplete,33,filling,1,1,right,Purple_Star_Chess_4.jpg,Purple_Circle_Grid_3.jpg,Green_Plus_Chess_1.jpg,right,1158.0149999936111,true,high,false
H499Jksx,3oplmf3ev80afezcyc4phujqmmslnu,3jpsl1dz5wcv6f62snk1x0z756qna7,H499Jksx,2020-0188,2020-11-16,19:05:13,19:25:12,NA,incomplete,34,filling,1,1,left,Blue_Star_Grid_2.jpg,Purple_Triangle_Grid_3.jpg,Blue_Circle_Stripes_1.jpg,left,1357.2350000031292,true,high,false
H499Jksx,3oplmf3ev80afezcyc4phujqmmslnu,3jpsl1dz5wcv6f62snk1x0z756qna7,H499Jksx,2020-0188,2020-11-16,19:05:13,19:25:12,NA,incomplete,35,filling,1,0,right,Blue_Plus_Dots_3.jpg,Blue_Star_Grid_2.jpg,Red_Triangle_Dots_4.jpg,right,1355.5449999985285,true,high,false
H499Jksx,3oplmf3ev80afezcyc4phujqmmslnu,3jpsl1dz5wcv6f62snk1x0z756qna7,H499Jksx,2020-0188,2020-11-16,19:05:13,19:25:12,NA,incomplete,36,filling,1,1,right,Green_Triangle_Dots_3.jpg,Green_Plus_Stripes_2.jpg,Red_Circle_Dots_4.jpg,left,659.1499999922235,false,high,false
H499Jksx,3oplmf3ev80afezcyc4phujqmmslnu,3jpsl1dz5wcv6f62snk1x0z756qna7,H499Jksx,2020-0188,2020-11-16,19:05:13,19:25:12,NA,incomplete,37,filling,1,1,right,Green_Star_Grid_1.jpg,Green_Plus_Stripes_4.jpg,Red_Circle_Grid_2.jpg,right,1091.3300000247546,true,high,false
H499Jksx,3oplmf3ev80afezcyc4phujqmmslnu,3jpsl1dz5wcv6f62snk1x0z756qna7,H499Jksx,2020-0188,2020-11-16,19:05:13,19:25:12,NA,incomplete,38,filling,1,1,right,Red_Circle_Stripes_1.jpg,Red_Triangle_Chess_4.jpg,Purple_Star_Stripes_3.jpg,left,1404.5850000111386,false,high,false
H499Jksx,3oplmf3ev80afezcyc4phujqmmslnu,3jpsl1dz5wcv6f62snk1x0z756qna7,H499Jksx,2020-0188,2020-11-16,19:05:13,19:25:12,NA,incomplete,39,filling,1,1,right,Purple_Triangle_Stripes_4.jpg,Purple_Circle_Dots_1.jpg,Blue_Star_Stripes_3.jpg,left,712.5300000188872,false,high,false
H499Jksx,3oplmf3ev80afezcyc4phujqmmslnu,3jpsl1dz5wcv6f62snk1x0z756qna7,H499Jksx,2020-0188,2020-11-16,19:05:13,19:25:12,NA,incomplete,40,color,0,0,right,Blue_Triangle_Chess_1.jpg,Green_Circle_Chess_3.jpg,Blue_Star_Grid_4.jpg,left,1216.8499999970663,false,high,false
H499Jksx,3oplmf3ev80afezcyc4phujqmmslnu,3jpsl1dz5wcv6f62snk1x0z756qna7,H499Jksx,2020-0188,2020-11-16,19:05:13,19:25:12,NA,incomplete,41,color,0,1,right,Purple_Triangle_Chess_4.jpg,Blue_Circle_Chess_1.jpg,Purple_Star_Stripes_3.jpg,left,1036.225000018021,false,high,false
H499Jksx,3oplmf3ev80afezcyc4phujqmmslnu,3jpsl1dz5wcv6f62snk1x0z756qna7,H499Jksx,2020-0188,2020-11-16,19:05:13,19:25:12,NA,incomplete,42,color,0,0,left,Red_Plus_Dots_2.jpg,Red_Star_Chess_4.jpg,Blue_Circle_Dots_1.jpg,right,1127.6200000138488,false,high,false
H499Jksx,3oplmf3ev80afezcyc4phujqmmslnu,3jpsl1dz5wcv6f62snk1x0z756qna7,H499Jksx,2020-0188,2020-11-16,19:05:13,19:25:12,NA,incomplete,43,color,0,0,right,Blue_Star_Grid_3.jpg,Red_Triangle_Grid_2.jpg,Blue_Circle_Dots_1.jpg,right,1045.9199999750126,true,high,false
H499Jksx,3oplmf3ev80afezcyc4phujqmmslnu,3jpsl1dz5wcv6f62snk1x0z756qna7,H499Jksx,2020-0188,2020-11-16,19:05:13,19:25:12,NA,incomplete,44,color,0,1,left,Purple_Circle_Chess_1.jpg,Purple_Plus_Stripes_3.jpg,Green_Star_Chess_4.jpg,right,979.2650000017602,false,high,false
H499Jksx,3oplmf3ev80afezcyc4phujqmmslnu,3jpsl1dz5wcv6f62snk1x0z756qna7,H499Jksx,2020-0188,2020-11-16,19:05:13,19:25:12,NA,incomplete,45,color,0,1,left,Green_Plus_Stripes_2.jpg,Green_Circle_Chess_1.jpg,Blue_Star_Stripes_4.jpg,right,1158.9650000096299,false,high,false
H499Jksx,3oplmf3ev80afezcyc4phujqmmslnu,3jpsl1dz5wcv6f62snk1x0z756qna7,H499Jksx,2020-0188,2020-11-16,19:05:13,19:25:12,NA,incomplete,46,color,0,1,left,Green_Triangle_Dots_4.jpg,Green_Plus_Stripes_1.jpg,Blue_Circle_Dots_3.jpg,right,1565.8150000090245,false,high,false
H499Jksx,3oplmf3ev80afezcyc4phujqmmslnu,3jpsl1dz5wcv6f62snk1x0z756qna7,H499Jksx,2020-0188,2020-11-16,19:05:13,19:25:12,NA,incomplete,47,color,0,1,left,Purple_Triangle_Stripes_2.jpg,Purple_Star_Chess_3.jpg,Blue_Plus_Stripes_4.jpg,left,307.024999987334,true,high,false
H499Jksx,3oplmf3ev80afezcyc4phujqmmslnu,3jpsl1dz5wcv6f62snk1x0z756qna7,H499Jksx,2020-0188,2020-11-16,19:05:13,19:25:12,NA,incomplete,48,color,0,1,left,Blue_Plus_Chess_1.jpg,Blue_Triangle_Grid_2.jpg,Green_Circle_Chess_3.jpg,left,667.3199999786448,true,high,false
H499Jksx,3oplmf3ev80afezcyc4phujqmmslnu,3jpsl1dz5wcv6f62snk1x0z756qna7,H499Jksx,2020-0188,2020-11-16,19:05:13,19:25:12,NA,incomplete,49,color,0,1,left,Purple_Star_Chess_3.jpg,Purple_Triangle_Stripes_2.jpg,Blue_Plus_Chess_1.jpg,left,766.8350000167266,true,high,false
H499Jksx,3oplmf3ev80afezcyc4phujqmmslnu,3jpsl1dz5wcv6f62snk1x0z756qna7,H499Jksx,2020-0188,2020-11-16,19:05:13,19:25:12,NA,incomplete,50,filling,1,0,left,Blue_Plus_Grid_2.jpg,Green_Triangle_Grid_4.jpg,Blue_Star_Dots_3.jpg,right,979.8000000009779,false,high,false
H499Jksx,3oplmf3ev80afezcyc4phujqmmslnu,3jpsl1dz5wcv6f62snk1x0z756qna7,H499Jksx,2020-0188,2020-11-16,19:05:13,19:25:12,NA,incomplete,51,filling,1,1,right,Red_Plus_Chess_4.jpg,Red_Triangle_Grid_2.jpg,Purple_Circle_Chess_3.jpg,left,760.7300000090618,false,high,false
H499Jksx,3oplmf3ev80afezcyc4phujqmmslnu,3jpsl1dz5wcv6f62snk1x0z756qna7,H499Jksx,2020-0188,2020-11-16,19:05:13,19:25:12,NA,incomplete,52,filling,1,1,right,Red_Plus_Grid_4.jpg,Red_Star_Stripes_3.jpg,Blue_Circle_Grid_2.jpg,left,666.8449999997392,false,high,false
H499Jksx,3oplmf3ev80afezcyc4phujqmmslnu,3jpsl1dz5wcv6f62snk1x0z756qna7,H499Jksx,2020-0188,2020-11-16,19:05:13,19:25:12,NA,incomplete,53,filling,1,1,right,Blue_Star_Grid_4.jpg,Blue_Plus_Chess_3.jpg,Purple_Triangle_Grid_1.jpg,right,1328.2099999778438,true,high,false
H499Jksx,3oplmf3ev80afezcyc4phujqmmslnu,3jpsl1dz5wcv6f62snk1x0z756qna7,H499Jksx,2020-0188,2020-11-16,19:05:13,19:25:12,NA,incomplete,54,filling,1,0,left,Red_Star_Grid_4.jpg,Purple_Circle_Grid_1.jpg,Red_Plus_Stripes_2.jpg,left,1274.455000006128,true,high,false
H499Jksx,3oplmf3ev80afezcyc4phujqmmslnu,3jpsl1dz5wcv6f62snk1x0z756qna7,H499Jksx,2020-0188,2020-11-16,19:05:13,19:25:12,NA,incomplete,55,filling,1,1,right,Blue_Circle_Dots_2.jpg,Blue_Plus_Chess_4.jpg,Purple_Triangle_Dots_1.jpg,right,1137.9000000015367,true,high,false
H499Jksx,3oplmf3ev80afezcyc4phujqmmslnu,3jpsl1dz5wcv6f62snk1x0z756qna7,H499Jksx,2020-0188,2020-11-16,19:05:13,19:25:12,NA,incomplete,56,filling,1,0,left,Blue_Triangle_Dots_1.jpg,Purple_Circle_Dots_2.jpg,Blue_Star_Grid_4.jpg,left,952.3950000002515,true,high,false
H499Jksx,3oplmf3ev80afezcyc4phujqmmslnu,3jpsl1dz5wcv6f62snk1x0z756qna7,H499Jksx,2020-0188,2020-11-16,19:05:13,19:25:12,NA,incomplete,57,filling,1,1,left,Green_Circle_Chess_3.jpg,Purple_Star_Chess_2.jpg,Green_Plus_Grid_1.jpg,right,687.019999983022,false,high,false
H499Jksx,3oplmf3ev80afezcyc4phujqmmslnu,3jpsl1dz5wcv6f62snk1x0z756qna7,H499Jksx,2020-0188,2020-11-16,19:05:13,19:25:12,NA,incomplete,58,filling,1,1,right,Blue_Triangle_Grid_3.jpg,Blue_Plus_Dots_2.jpg,Purple_Star_Grid_4.jpg,left,943.6799999966752,false,high,false
H499Jksx,3oplmf3ev80afezcyc4phujqmmslnu,3jpsl1dz5wcv6f62snk1x0z756qna7,H499Jksx,2020-0188,2020-11-16,19:05:13,19:25:12,NA,incomplete,59,filling,1,1,left,Red_Triangle_Dots_1.jpg,Green_Star_Dots_3.jpg,Red_Circle_Grid_2.jpg,right,896.7650000122376,false,high,false
H499Jksx,3oplmf3ev80afezcyc4phujqmmslnu,3jpsl1dz5wcv6f62snk1x0z756qna7,H499Jksx,2020-0188,2020-11-16,19:05:13,19:25:12,NA,incomplete,60,color,0,1,left,Blue_Circle_Chess_1.jpg,Blue_Plus_Grid_3.jpg,Purple_Star_Chess_4.jpg,left,983.7849999894388,true,high,false
H499Jksx,3oplmf3ev80afezcyc4phujqmmslnu,3jpsl1dz5wcv6f62snk1x0z756qna7,H499Jksx,2020-0188,2020-11-16,19:05:13,19:25:12,NA,incomplete,61,color,0,0,left,Blue_Plus_Grid_1.jpg,Blue_Star_Chess_4.jpg,Green_Triangle_Grid_3.jpg,left,709.2649999831337,true,high,false
H499Jksx,3oplmf3ev80afezcyc4phujqmmslnu,3jpsl1dz5wcv6f62snk1x0z756qna7,H499Jksx,2020-0188,2020-11-16,19:05:13,19:25:12,NA,incomplete,62,color,0,1,left,Red_Plus_Chess_4.jpg,Red_Star_Grid_2.jpg,Purple_Triangle_Chess_1.jpg,left,941.1400000099093,true,high,false
H499Jksx,3oplmf3ev80afezcyc4phujqmmslnu,3jpsl1dz5wcv6f62snk1x0z756qna7,H499Jksx,2020-0188,2020-11-16,19:05:13,19:25:12,NA,incomplete,63,color,0,1,right,Purple_Circle_Chess_3.jpg,Red_Triangle_Chess_1.jpg,Purple_Star_Grid_2.jpg,right,668.6700000136625,true,high,false
H499Jksx,3oplmf3ev80afezcyc4phujqmmslnu,3jpsl1dz5wcv6f62snk1x0z756qna7,H499Jksx,2020-0188,2020-11-16,19:05:13,19:25:12,NA,incomplete,64,color,0,1,left,Red_Plus_Dots_3.jpg,Red_Triangle_Chess_1.jpg,Green_Circle_Dots_2.jpg,left,798.8999999943189,true,high,false
H499Jksx,3oplmf3ev80afezcyc4phujqmmslnu,3jpsl1dz5wcv6f62snk1x0z756qna7,H499Jksx,2020-0188,2020-11-16,19:05:13,19:25:12,NA,incomplete,65,color,0,1,right,Purple_Triangle_Grid_2.jpg,Green_Plus_Grid_1.jpg,Purple_Star_Stripes_3.jpg,right,786.7750000150409,true,high,false
H499Jksx,3oplmf3ev80afezcyc4phujqmmslnu,3jpsl1dz5wcv6f62snk1x0z756qna7,H499Jksx,2020-0188,2020-11-16,19:05:13,19:25:12,NA,incomplete,66,color,0,0,right,Blue_Circle_Dots_3.jpg,Red_Triangle_Dots_2.jpg,Blue_Star_Stripes_1.jpg,right,918.4449999884237,true,high,false
H499Jksx,3oplmf3ev80afezcyc4phujqmmslnu,3jpsl1dz5wcv6f62snk1x0z756qna7,H499Jksx,2020-0188,2020-11-16,19:05:13,19:25:12,NA,incomplete,67,color,0,1,right,Purple_Circle_Dots_3.jpg,Red_Triangle_Dots_4.jpg,Purple_Plus_Chess_2.jpg,right,798.064999980852,true,high,false
H499Jksx,3oplmf3ev80afezcyc4phujqmmslnu,3jpsl1dz5wcv6f62snk1x0z756qna7,H499Jksx,2020-0188,2020-11-16,19:05:13,19:25:12,NA,incomplete,68,color,0,0,left,Red_Star_Stripes_2.jpg,Red_Circle_Grid_4.jpg,Purple_Plus_Stripes_3.jpg,left,811.3550000125542,true,high,false
H499Jksx,3oplmf3ev80afezcyc4phujqmmslnu,3jpsl1dz5wcv6f62snk1x0z756qna7,H499Jksx,2020-0188,2020-11-16,19:05:13,19:25:12,NA,incomplete,69,color,0,1,left,Purple_Plus_Chess_2.jpg,Purple_Star_Dots_3.jpg,Blue_Circle_Chess_1.jpg,left,969.5849999843631,true,high,false
H499Jksx,3oplmf3ev80afezcyc4phujqmmslnu,3jpsl1dz5wcv6f62snk1x0z756qna7,H499Jksx,2020-0188,2020-11-16,19:05:13,19:25:12,NA,incomplete,70,filling,1,1,right,Red_Circle_Grid_1.jpg,Red_Plus_Chess_2.jpg,Purple_Star_Grid_4.jpg,left,669.0349999989849,false,high,false
H499Jksx,3oplmf3ev80afezcyc4phujqmmslnu,3jpsl1dz5wcv6f62snk1x0z756qna7,H499Jksx,2020-0188,2020-11-16,19:05:13,19:25:12,NA,incomplete,71,filling,1,1,left,Blue_Triangle_Chess_1.jpg,Purple_Plus_Chess_3.jpg,Blue_Star_Stripes_4.jpg,left,1182.9750000033528,true,high,false
H499Jksx,3oplmf3ev80afezcyc4phujqmmslnu,3jpsl1dz5wcv6f62snk1x0z756qna7,H499Jksx,2020-0188,2020-11-16,19:05:13,19:25:12,NA,incomplete,72,filling,1,1,left,Blue_Triangle_Grid_2.jpg,Red_Circle_Grid_1.jpg,Blue_Plus_Stripes_3.jpg,left,1403.344999998808,true,high,false
H499Jksx,3oplmf3ev80afezcyc4phujqmmslnu,3jpsl1dz5wcv6f62snk1x0z756qna7,H499Jksx,2020-0188,2020-11-16,19:05:13,19:25:12,NA,incomplete,73,filling,1,1,left,Blue_Plus_Grid_3.jpg,Purple_Triangle_Grid_4.jpg,Blue_Star_Dots_2.jpg,left,1177.0699999760836,true,high,false
H499Jksx,3oplmf3ev80afezcyc4phujqmmslnu,3jpsl1dz5wcv6f62snk1x0z756qna7,H499Jksx,2020-0188,2020-11-16,19:05:13,19:25:12,NA,incomplete,74,filling,1,1,left,Blue_Star_Chess_3.jpg,Green_Plus_Chess_1.jpg,Blue_Triangle_Grid_2.jpg,left,1325.6950000068173,true,high,false
H499Jksx,3oplmf3ev80afezcyc4phujqmmslnu,3jpsl1dz5wcv6f62snk1x0z756qna7,H499Jksx,2020-0188,2020-11-16,19:05:13,19:25:12,NA,incomplete,75,filling,1,1,right,Purple_Triangle_Chess_1.jpg,Purple_Circle_Grid_2.jpg,Green_Plus_Chess_3.jpg,right,1140.4500000062399,true,high,false
H499Jksx,3oplmf3ev80afezcyc4phujqmmslnu,3jpsl1dz5wcv6f62snk1x0z756qna7,H499Jksx,2020-0188,2020-11-16,19:05:13,19:25:12,NA,incomplete,76,filling,1,1,left,Blue_Plus_Chess_1.jpg,Green_Circle_Chess_2.jpg,Blue_Star_Stripes_3.jpg,left,956.2800000130665,true,high,false
H499Jksx,3oplmf3ev80afezcyc4phujqmmslnu,3jpsl1dz5wcv6f62snk1x0z756qna7,H499Jksx,2020-0188,2020-11-16,19:05:13,19:25:12,NA,incomplete,77,filling,1,1,left,Purple_Circle_Chess_4.jpg,Red_Triangle_Chess_1.jpg,Purple_Plus_Dots_3.jpg,left,1131.2700000125915,true,high,false
H499Jksx,3oplmf3ev80afezcyc4phujqmmslnu,3jpsl1dz5wcv6f62snk1x0z756qna7,H499Jksx,2020-0188,2020-11-16,19:05:13,19:25:12,NA,incomplete,78,filling,1,1,right,Green_Plus_Stripes_4.jpg,Green_Triangle_Grid_2.jpg,Purple_Star_Stripes_1.jpg,right,1441.1250000121072,true,high,false
H499Jksx,3oplmf3ev80afezcyc4phujqmmslnu,3jpsl1dz5wcv6f62snk1x0z756qna7,H499Jksx,2020-0188,2020-11-16,19:05:13,19:25:12,NA,incomplete,79,filling,1,1,left,Red_Triangle_Chess_1.jpg,Green_Plus_Chess_4.jpg,Red_Star_Stripes_2.jpg,left,1076.2800000084098,true,high,false
H499Jksx,3oplmf3ev80afezcyc4phujqmmslnu,3jpsl1dz5wcv6f62snk1x0z756qna7,H499Jksx,2020-0188,2020-11-16,19:05:13,19:25:12,NA,incomplete,80,color,0,1,left,Purple_Triangle_Grid_3.jpg,Purple_Star_Dots_2.jpg,Blue_Circle_Grid_4.jpg,right,1326.295000006212,false,high,false
H499Jksx,3oplmf3ev80afezcyc4phujqmmslnu,3jpsl1dz5wcv6f62snk1x0z756qna7,H499Jksx,2020-0188,2020-11-16,19:05:13,19:25:12,NA,incomplete,81,color,0,0,right,Purple_Star_Chess_4.jpg,Red_Plus_Chess_2.jpg,Purple_Triangle_Stripes_1.jpg,left,1078.479999996489,false,high,false
H499Jksx,3oplmf3ev80afezcyc4phujqmmslnu,3jpsl1dz5wcv6f62snk1x0z756qna7,H499Jksx,2020-0188,2020-11-16,19:05:13,19:25:12,NA,incomplete,82,color,0,1,left,Green_Circle_Grid_4.jpg,Green_Plus_Stripes_2.jpg,Purple_Triangle_Grid_3.jpg,right,1142.9300000017975,false,high,false
H499Jksx,3oplmf3ev80afezcyc4phujqmmslnu,3jpsl1dz5wcv6f62snk1x0z756qna7,H499Jksx,2020-0188,2020-11-16,19:05:13,19:25:12,NA,incomplete,83,color,0,0,left,Purple_Circle_Grid_4.jpg,Purple_Triangle_Stripes_2.jpg,Red_Plus_Grid_1.jpg,right,1262.1349999972153,false,high,false
H499Jksx,3oplmf3ev80afezcyc4phujqmmslnu,3jpsl1dz5wcv6f62snk1x0z756qna7,H499Jksx,2020-0188,2020-11-16,19:05:13,19:25:12,NA,incomplete,84,color,0,1,left,Purple_Plus_Dots_3.jpg,Purple_Star_Chess_2.jpg,Red_Triangle_Dots_4.jpg,right,1375.0749999890104,false,high,false
H499Jksx,3oplmf3ev80afezcyc4phujqmmslnu,3jpsl1dz5wcv6f62snk1x0z756qna7,H499Jksx,2020-0188,2020-11-16,19:05:13,19:25:12,NA,incomplete,85,color,0,1,left,Red_Triangle_Dots_1.jpg,Red_Circle_Grid_2.jpg,Purple_Plus_Dots_3.jpg,left,1070.9449999849312,true,high,false
H499Jksx,3oplmf3ev80afezcyc4phujqmmslnu,3jpsl1dz5wcv6f62snk1x0z756qna7,H499Jksx,2020-0188,2020-11-16,19:05:13,19:25:12,NA,incomplete,86,color,0,1,left,Blue_Circle_Grid_3.jpg,Blue_Plus_Stripes_1.jpg,Purple_Triangle_Grid_2.jpg,left,686.7450000136159,true,high,false
H499Jksx,3oplmf3ev80afezcyc4phujqmmslnu,3jpsl1dz5wcv6f62snk1x0z756qna7,H499Jksx,2020-0188,2020-11-16,19:05:13,19:25:12,NA,incomplete,87,color,0,1,right,Purple_Triangle_Grid_2.jpg,Green_Star_Grid_3.jpg,Purple_Circle_Stripes_4.jpg,right,895.1949999900535,true,high,false
H499Jksx,3oplmf3ev80afezcyc4phujqmmslnu,3jpsl1dz5wcv6f62snk1x0z756qna7,H499Jksx,2020-0188,2020-11-16,19:05:13,19:25:12,NA,incomplete,88,color,0,1,right,Blue_Plus_Stripes_3.jpg,Purple_Star_Stripes_2.jpg,Blue_Circle_Chess_1.jpg,right,602.2050000028685,true,high,false
H499Jksx,3oplmf3ev80afezcyc4phujqmmslnu,3jpsl1dz5wcv6f62snk1x0z756qna7,H499Jksx,2020-0188,2020-11-16,19:05:13,19:25:12,NA,incomplete,89,color,0,0,left,Purple_Plus_Stripes_2.jpg,Purple_Triangle_Dots_1.jpg,Green_Star_Stripes_4.jpg,left,829.0300000226125,true,high,false
H499Jksx,3oplmf3ev80afezcyc4phujqmmslnu,3jpsl1dz5wcv6f62snk1x0z756qna7,H499Jksx,2020-0188,2020-11-16,19:05:13,19:25:12,NA,incomplete,90,filling,1,1,right,Purple_Triangle_Grid_4.jpg,Purple_Circle_Chess_3.jpg,Blue_Star_Grid_2.jpg,left,608.3949999883771,false,high,false
H499Jksx,3oplmf3ev80afezcyc4phujqmmslnu,3jpsl1dz5wcv6f62snk1x0z756qna7,H499Jksx,2020-0188,2020-11-16,19:05:13,19:25:12,NA,incomplete,91,filling,1,1,left,Green_Circle_Chess_4.jpg,Red_Plus_Chess_3.jpg,Green_Star_Stripes_1.jpg,right,636.6300000227056,false,high,false
H499Jksx,3oplmf3ev80afezcyc4phujqmmslnu,3jpsl1dz5wcv6f62snk1x0z756qna7,H499Jksx,2020-0188,2020-11-16,19:05:13,19:25:12,NA,incomplete,92,filling,1,1,right,Red_Plus_Stripes_1.jpg,Red_Triangle_Grid_2.jpg,Green_Star_Stripes_3.jpg,right,1158.2950000010896,true,high,false
H499Jksx,3oplmf3ev80afezcyc4phujqmmslnu,3jpsl1dz5wcv6f62snk1x0z756qna7,H499Jksx,2020-0188,2020-11-16,19:05:13,19:25:12,NA,incomplete,93,filling,1,1,right,Red_Triangle_Dots_2.jpg,Red_Star_Stripes_1.jpg,Blue_Plus_Dots_4.jpg,right,1429.9299999838695,true,high,false
H499Jksx,3oplmf3ev80afezcyc4phujqmmslnu,3jpsl1dz5wcv6f62snk1x0z756qna7,H499Jksx,2020-0188,2020-11-16,19:05:13,19:25:12,NA,incomplete,94,filling,1,1,right,Blue_Star_Dots_3.jpg,Blue_Triangle_Stripes_1.jpg,Green_Circle_Dots_2.jpg,left,970.4149999888614,false,high,false
H499Jksx,3oplmf3ev80afezcyc4phujqmmslnu,3jpsl1dz5wcv6f62snk1x0z756qna7,H499Jksx,2020-0188,2020-11-16,19:05:13,19:25:12,NA,incomplete,95,filling,1,1,right,Green_Plus_Dots_4.jpg,Green_Circle_Chess_3.jpg,Blue_Triangle_Dots_1.jpg,right,919.4100000022445,true,high,false
H499Jksx,3oplmf3ev80afezcyc4phujqmmslnu,3jpsl1dz5wcv6f62snk1x0z756qna7,H499Jksx,2020-0188,2020-11-16,19:05:13,19:25:12,NA,incomplete,96,filling,1,0,right,Purple_Circle_Stripes_1.jpg,Purple_Star_Dots_3.jpg,Blue_Plus_Stripes_4.jpg,right,1151.0699999926146,true,high,false
H499Jksx,3oplmf3ev80afezcyc4phujqmmslnu,3jpsl1dz5wcv6f62snk1x0z756qna7,H499Jksx,2020-0188,2020-11-16,19:05:13,19:25:12,NA,incomplete,97,filling,1,1,left,Purple_Triangle_Dots_2.jpg,Green_Plus_Dots_1.jpg,Purple_Star_Grid_4.jpg,left,1052.575000008801,true,high,false
H499Jksx,3oplmf3ev80afezcyc4phujqmmslnu,3jpsl1dz5wcv6f62snk1x0z756qna7,H499Jksx,2020-0188,2020-11-16,19:05:13,19:25:12,NA,incomplete,98,filling,1,1,right,Purple_Triangle_Chess_2.jpg,Purple_Star_Stripes_3.jpg,Red_Circle_Chess_4.jpg,right,920.364999998128,true,high,false
H499Jksx,3oplmf3ev80afezcyc4phujqmmslnu,3jpsl1dz5wcv6f62snk1x0z756qna7,H499Jksx,2020-0188,2020-11-16,19:05:13,19:25:12,NA,incomplete,99,filling,1,1,left,Purple_Circle_Stripes_2.jpg,Red_Star_Stripes_1.jpg,Purple_Triangle_Chess_3.jpg,left,1053.55499999132,true,high,false
H499Jksx,3oplmf3ev80afezcyc4phujqmmslnu,3jpsl1dz5wcv6f62snk1x0z756qna7,H499Jksx,2020-0188,2020-11-16,19:05:13,19:25:12,NA,incomplete,100,color,0,0,left,Green_Circle_Chess_4.jpg,Green_Plus_Grid_2.jpg,Purple_Triangle_Chess_1.jpg,right,752.8750000055879,false,high,false
H499Jksx,3oplmf3ev80afezcyc4phujqmmslnu,3jpsl1dz5wcv6f62snk1x0z756qna7,H499Jksx,2020-0188,2020-11-16,19:05:13,19:25:12,NA,incomplete,101,color,0,0,left,Green_Star_Dots_1.jpg,Green_Circle_Stripes_2.jpg,Blue_Plus_Dots_4.jpg,right,878.6850000033155,false,high,false
H499Jksx,3oplmf3ev80afezcyc4phujqmmslnu,3jpsl1dz5wcv6f62snk1x0z756qna7,H499Jksx,2020-0188,2020-11-16,19:05:13,19:25:12,NA,incomplete,102,color,0,1,left,Red_Triangle_Dots_2.jpg,Red_Star_Grid_3.jpg,Purple_Plus_Dots_1.jpg,right,959.755000018049,false,high,false
H499Jksx,3oplmf3ev80afezcyc4phujqmmslnu,3jpsl1dz5wcv6f62snk1x0z756qna7,H499Jksx,2020-0188,2020-11-16,19:05:13,19:25:12,NA,incomplete,103,color,0,1,left,Blue_Circle_Chess_4.jpg,Blue_Plus_Grid_3.jpg,Red_Triangle_Chess_2.jpg,right,1327.7799999923445,false,high,false
H499Jksx,3oplmf3ev80afezcyc4phujqmmslnu,3jpsl1dz5wcv6f62snk1x0z756qna7,H499Jksx,2020-0188,2020-11-16,19:05:13,19:25:12,NA,incomplete,104,color,0,1,left,Green_Triangle_Grid_4.jpg,Green_Star_Dots_2.jpg,Blue_Plus_Grid_3.jpg,left,653.4950000059325,true,high,false
H499Jksx,3oplmf3ev80afezcyc4phujqmmslnu,3jpsl1dz5wcv6f62snk1x0z756qna7,H499Jksx,2020-0188,2020-11-16,19:05:13,19:25:12,NA,incomplete,105,color,0,1,right,Red_Triangle_Grid_1.jpg,Blue_Star_Grid_2.jpg,Red_Circle_Stripes_3.jpg,right,888.5449999943376,true,high,false
H499Jksx,3oplmf3ev80afezcyc4phujqmmslnu,3jpsl1dz5wcv6f62snk1x0z756qna7,H499Jksx,2020-0188,2020-11-16,19:05:13,19:25:12,NA,incomplete,106,color,0,1,right,Purple_Triangle_Stripes_1.jpg,Red_Plus_Stripes_3.jpg,Purple_Circle_Chess_4.jpg,right,1177.1249999874271,true,high,false
H499Jksx,3oplmf3ev80afezcyc4phujqmmslnu,3jpsl1dz5wcv6f62snk1x0z756qna7,H499Jksx,2020-0188,2020-11-16,19:05:13,19:25:12,NA,incomplete,107,color,0,0,right,Red_Triangle_Grid_1.jpg,Purple_Plus_Grid_4.jpg,Red_Star_Dots_2.jpg,right,757.7450000098906,true,high,false
H499Jksx,3oplmf3ev80afezcyc4phujqmmslnu,3jpsl1dz5wcv6f62snk1x0z756qna7,H499Jksx,2020-0188,2020-11-16,19:05:13,19:25:12,NA,incomplete,108,color,0,1,right,Purple_Circle_Stripes_1.jpg,Red_Triangle_Stripes_4.jpg,Purple_Star_Grid_2.jpg,left,1021.3199999998324,false,high,false
H499Jksx,3oplmf3ev80afezcyc4phujqmmslnu,3jpsl1dz5wcv6f62snk1x0z756qna7,H499Jksx,2020-0188,2020-11-16,19:05:13,19:25:12,NA,incomplete,109,color,0,0,left,Purple_Star_Grid_2.jpg,Purple_Triangle_Stripes_4.jpg,Red_Circle_Grid_1.jpg,left,712.1900000202004,true,high,false
H499Jksx,3oplmf3ev80afezcyc4phujqmmslnu,3jpsl1dz5wcv6f62snk1x0z756qna7,H499Jksx,2020-0188,2020-11-16,19:05:13,19:25:12,NA,incomplete,110,filling,1,1,right,Red_Star_Dots_2.jpg,Red_Circle_Chess_1.jpg,Blue_Plus_Dots_3.jpg,right,800.6600000080653,true,high,false
H499Jksx,3oplmf3ev80afezcyc4phujqmmslnu,3jpsl1dz5wcv6f62snk1x0z756qna7,H499Jksx,2020-0188,2020-11-16,19:05:13,19:25:12,NA,incomplete,111,filling,1,0,right,Blue_Plus_Chess_1.jpg,Blue_Triangle_Stripes_4.jpg,Green_Star_Chess_3.jpg,right,940.8199999888893,true,high,false
H499Jksx,3oplmf3ev80afezcyc4phujqmmslnu,3jpsl1dz5wcv6f62snk1x0z756qna7,H499Jksx,2020-0188,2020-11-16,19:05:13,19:25:12,NA,incomplete,112,filling,1,1,right,Red_Star_Dots_4.jpg,Red_Circle_Grid_1.jpg,Purple_Triangle_Dots_3.jpg,right,1371.0699999937788,true,high,false
H499Jksx,3oplmf3ev80afezcyc4phujqmmslnu,3jpsl1dz5wcv6f62snk1x0z756qna7,H499Jksx,2020-0188,2020-11-16,19:05:13,19:25:12,NA,incomplete,113,filling,1,1,right,Green_Triangle_Stripes_4.jpg,Green_Star_Chess_2.jpg,Red_Plus_Stripes_1.jpg,right,1553.9700000081211,true,high,false
H499Jksx,3oplmf3ev80afezcyc4phujqmmslnu,3jpsl1dz5wcv6f62snk1x0z756qna7,H499Jksx,2020-0188,2020-11-16,19:05:13,19:25:12,NA,incomplete,114,filling,1,1,left,Red_Circle_Dots_2.jpg,Blue_Triangle_Dots_3.jpg,Red_Plus_Stripes_1.jpg,left,1007.0350000169128,true,high,false
H499Jksx,3oplmf3ev80afezcyc4phujqmmslnu,3jpsl1dz5wcv6f62snk1x0z756qna7,H499Jksx,2020-0188,2020-11-16,19:05:13,19:25:12,NA,incomplete,115,filling,1,0,left,Purple_Star_Grid_1.jpg,Red_Circle_Grid_3.jpg,Purple_Triangle_Stripes_4.jpg,left,1420.6349999876693,true,high,false
H499Jksx,3oplmf3ev80afezcyc4phujqmmslnu,3jpsl1dz5wcv6f62snk1x0z756qna7,H499Jksx,2020-0188,2020-11-16,19:05:13,19:25:12,NA,incomplete,116,filling,1,1,left,Red_Star_Dots_3.jpg,Blue_Triangle_Dots_2.jpg,Red_Circle_Stripes_1.jpg,left,1390.784999995958,true,high,false
H499Jksx,3oplmf3ev80afezcyc4phujqmmslnu,3jpsl1dz5wcv6f62snk1x0z756qna7,H499Jksx,2020-0188,2020-11-16,19:05:13,19:25:12,NA,incomplete,117,filling,1,1,left,Purple_Circle_Grid_3.jpg,Red_Plus_Grid_1.jpg,Purple_Star_Dots_2.jpg,left,996.4249999902677,true,high,false
H499Jksx,3oplmf3ev80afezcyc4phujqmmslnu,3jpsl1dz5wcv6f62snk1x0z756qna7,H499Jksx,2020-0188,2020-11-16,19:05:13,19:25:12,NA,incomplete,118,filling,1,1,right,Purple_Plus_Grid_2.jpg,Purple_Circle_Stripes_4.jpg,Blue_Star_Grid_3.jpg,right,1128.2049999863375,true,high,false
H499Jksx,3oplmf3ev80afezcyc4phujqmmslnu,3jpsl1dz5wcv6f62snk1x0z756qna7,H499Jksx,2020-0188,2020-11-16,19:05:13,19:25:12,NA,incomplete,119,filling,1,1,right,Blue_Star_Grid_3.jpg,Blue_Plus_Stripes_2.jpg,Red_Triangle_Grid_1.jpg,right,1288.1350000097882,true,high,false
H499Jksx,3oplmf3ev80afezcyc4phujqmmslnu,3jpsl1dz5wcv6f62snk1x0z756qna7,H499Jksx,2020-0188,2020-11-16,19:05:13,19:25:12,NA,incomplete,120,gender,2,1,left,A_M_15.jpg,C_M_06.jpg,A_F_08.jpg,NA,NA,NA,high,false
H499Jksx,3oplmf3ev80afezcyc4phujqmmslnu,3jpsl1dz5wcv6f62snk1x0z756qna7,H499Jksx,2020-0188,2020-11-16,19:05:13,19:25:12,NA,incomplete,121,gender,2,1,right,A_F_08.jpg,A_M_06.jpg,C_F_12.jpg,left,1253.5400000051595,false,high,false
H499Jksx,3oplmf3ev80afezcyc4phujqmmslnu,3jpsl1dz5wcv6f62snk1x0z756qna7,H499Jksx,2020-0188,2020-11-16,19:05:13,19:25:12,NA,incomplete,122,gender,2,1,right,C_F_05.jpg,C_M_03.jpg,A_F_11.jpg,right,1053.0000000144355,true,high,false
H499Jksx,3oplmf3ev80afezcyc4phujqmmslnu,3jpsl1dz5wcv6f62snk1x0z756qna7,H499Jksx,2020-0188,2020-11-16,19:05:13,19:25:12,NA,incomplete,123,gender,2,1,left,A_F_04.jpg,C_F_07.jpg,A_M_08.jpg,left,1063.84999997681,true,high,false
H499Jksx,3oplmf3ev80afezcyc4phujqmmslnu,3jpsl1dz5wcv6f62snk1x0z756qna7,H499Jksx,2020-0188,2020-11-16,19:05:13,19:25:12,NA,incomplete,124,gender,2,1,right,C_F_11.jpg,C_M_16.jpg,A_F_01.jpg,right,939.1250000044238,true,high,false
H499Jksx,3oplmf3ev80afezcyc4phujqmmslnu,3jpsl1dz5wcv6f62snk1x0z756qna7,H499Jksx,2020-0188,2020-11-16,19:05:13,19:25:12,NA,incomplete,125,gender,2,0,right,C_M_16.jpg,C_F_10.jpg,A_M_01.jpg,right,1035.8700000215322,true,high,false
H499Jksx,3oplmf3ev80afezcyc4phujqmmslnu,3jpsl1dz5wcv6f62snk1x0z756qna7,H499Jksx,2020-0188,2020-11-16,19:05:13,19:25:12,NA,incomplete,126,gender,2,1,right,A_F_07.jpg,A_M_03.jpg,C_F_10.jpg,right,1244.1849999886472,true,high,false
H499Jksx,3oplmf3ev80afezcyc4phujqmmslnu,3jpsl1dz5wcv6f62snk1x0z756qna7,H499Jksx,2020-0188,2020-11-16,19:05:13,19:25:12,NA,incomplete,127,gender,2,1,right,A_F_08.jpg,A_M_11.jpg,C_F_14.jpg,right,1070.5300000263378,true,high,false
H499Jksx,3oplmf3ev80afezcyc4phujqmmslnu,3jpsl1dz5wcv6f62snk1x0z756qna7,H499Jksx,2020-0188,2020-11-16,19:05:13,19:25:12,NA,incomplete,128,gender,2,0,left,C_F_06.jpg,A_F_01.jpg,C_M_14.jpg,left,1153.4999999857973,true,high,false
H499Jksx,3oplmf3ev80afezcyc4phujqmmslnu,3jpsl1dz5wcv6f62snk1x0z756qna7,H499Jksx,2020-0188,2020-11-16,19:05:13,19:25:12,NA,incomplete,129,gender,2,1,left,A_M_16.jpg,C_M_08.jpg,A_F_05.jpg,right,1759.7999999998137,false,high,false
H499Jksx,3oplmf3ev80afezcyc4phujqmmslnu,3jpsl1dz5wcv6f62snk1x0z756qna7,H499Jksx,2020-0188,2020-11-16,19:05:13,19:25:12,NA,incomplete,130,gender,2,1,right,A_F_15.jpg,A_M_11.jpg,C_F_13.jpg,right,1133.6449999944307,true,high,false
H499Jksx,3oplmf3ev80afezcyc4phujqmmslnu,3jpsl1dz5wcv6f62snk1x0z756qna7,H499Jksx,2020-0188,2020-11-16,19:05:13,19:25:12,NA,incomplete,131,gender,2,1,right,C_M_12.jpg,C_F_02.jpg,A_M_10.jpg,right,1124.6100000280421,true,high,false
H499Jksx,3oplmf3ev80afezcyc4phujqmmslnu,3jpsl1dz5wcv6f62snk1x0z756qna7,H499Jksx,2020-0188,2020-11-16,19:05:13,19:25:12,NA,incomplete,132,gender,2,1,right,C_F_08.jpg,C_M_15.jpg,A_F_14.jpg,right,1486.590000014985,true,high,false
H499Jksx,3oplmf3ev80afezcyc4phujqmmslnu,3jpsl1dz5wcv6f62snk1x0z756qna7,H499Jksx,2020-0188,2020-11-16,19:05:13,19:25:12,NA,incomplete,133,gender,2,1,right,A_F_10.jpg,A_M_02.jpg,C_F_12.jpg,right,1261.705000011716,true,high,false
H499Jksx,3oplmf3ev80afezcyc4phujqmmslnu,3jpsl1dz5wcv6f62snk1x0z756qna7,H499Jksx,2020-0188,2020-11-16,19:05:13,19:25:12,NA,incomplete,134,gender,2,1,right,C_F_03.jpg,C_M_01.jpg,A_F_08.jpg,right,1216.3299999956507,true,high,false
H499Jksx,3oplmf3ev80afezcyc4phujqmmslnu,3jpsl1dz5wcv6f62snk1x0z756qna7,H499Jksx,2020-0188,2020-11-16,19:05:13,19:25:12,NA,incomplete,135,gender,2,1,left,A_F_02.jpg,C_F_13.jpg,A_M_03.jpg,left,1084.195000003092,true,high,false
H499Jksx,3oplmf3ev80afezcyc4phujqmmslnu,3jpsl1dz5wcv6f62snk1x0z756qna7,H499Jksx,2020-0188,2020-11-16,19:05:13,19:25:12,NA,incomplete,136,gender,2,1,right,A_M_07.jpg,A_F_10.jpg,C_M_06.jpg,right,1454.2450000008103,true,high,false
H499Jksx,3oplmf3ev80afezcyc4phujqmmslnu,3jpsl1dz5wcv6f62snk1x0z756qna7,H499Jksx,2020-0188,2020-11-16,19:05:13,19:25:12,NA,incomplete,137,gender,2,1,left,A_F_16.jpg,C_F_13.jpg,A_M_15.jpg,left,1151.4649999735411,true,high,false
H499Jksx,3oplmf3ev80afezcyc4phujqmmslnu,3jpsl1dz5wcv6f62snk1x0z756qna7,H499Jksx,2020-0188,2020-11-16,19:05:13,19:25:12,NA,incomplete,138,gender,2,0,right,C_F_16.jpg,C_M_10.jpg,A_F_01.jpg,right,1171.4149999897927,true,high,false
H499Jksx,3oplmf3ev80afezcyc4phujqmmslnu,3jpsl1dz5wcv6f62snk1x0z756qna7,H499Jksx,2020-0188,2020-11-16,19:05:13,19:25:12,NA,incomplete,139,gender,2,1,left,C_F_12.jpg,A_F_08.jpg,C_M_11.jpg,left,986.5349999745376,true,high,false
H499Jksx,3oplmf3ev80afezcyc4phujqmmslnu,3jpsl1dz5wcv6f62snk1x0z756qna7,H499Jksx,2020-0188,2020-11-16,19:05:13,19:25:12,NA,incomplete,140,race,3,0,left,A_F_12.jpg,A_M_09.jpg,C_F_06.jpg,right,1064.3899999849964,false,high,false
H499Jksx,3oplmf3ev80afezcyc4phujqmmslnu,3jpsl1dz5wcv6f62snk1x0z756qna7,H499Jksx,2020-0188,2020-11-16,19:05:13,19:25:12,NA,incomplete,141,race,3,1,right,C_F_03.jpg,A_F_05.jpg,C_M_09.jpg,left,1105.9750000131316,false,high,false
H499Jksx,3oplmf3ev80afezcyc4phujqmmslnu,3jpsl1dz5wcv6f62snk1x0z756qna7,H499Jksx,2020-0188,2020-11-16,19:05:13,19:25:12,NA,incomplete,142,race,3,1,right,C_F_11.jpg,A_F_04.jpg,C_M_15.jpg,left,921.360000007553,false,high,false
H499Jksx,3oplmf3ev80afezcyc4phujqmmslnu,3jpsl1dz5wcv6f62snk1x0z756qna7,H499Jksx,2020-0188,2020-11-16,19:05:13,19:25:12,NA,incomplete,143,race,3,1,right,C_M_10.jpg,A_M_04.jpg,C_F_06.jpg,right,1121.9400000118185,true,high,false
H499Jksx,3oplmf3ev80afezcyc4phujqmmslnu,3jpsl1dz5wcv6f62snk1x0z756qna7,H499Jksx,2020-0188,2020-11-16,19:05:13,19:25:12,NA,incomplete,144,race,3,1,left,A_F_03.jpg,A_M_02.jpg,C_F_07.jpg,left,1473.8199999846984,true,high,false
H499Jksx,3oplmf3ev80afezcyc4phujqmmslnu,3jpsl1dz5wcv6f62snk1x0z756qna7,H499Jksx,2020-0188,2020-11-16,19:05:13,19:25:12,NA,incomplete,145,race,3,0,right,A_M_09.jpg,C_M_10.jpg,A_F_16.jpg,right,1362.1449999918696,true,high,false
H499Jksx,3oplmf3ev80afezcyc4phujqmmslnu,3jpsl1dz5wcv6f62snk1x0z756qna7,H499Jksx,2020-0188,2020-11-16,19:05:13,19:25:12,NA,incomplete,146,race,3,1,left,C_M_16.jpg,C_F_13.jpg,A_M_07.jpg,right,1624.2550000024494,false,high,false
H499Jksx,3oplmf3ev80afezcyc4phujqmmslnu,3jpsl1dz5wcv6f62snk1x0z756qna7,H499Jksx,2020-0188,2020-11-16,19:05:13,19:25:12,NA,incomplete,147,race,3,1,right,A_M_16.jpg,C_M_07.jpg,A_F_06.jpg,right,1292.8350000001956,true,high,false
H499Jksx,3oplmf3ev80afezcyc4phujqmmslnu,3jpsl1dz5wcv6f62snk1x0z756qna7,H499Jksx,2020-0188,2020-11-16,19:05:13,19:25:12,NA,incomplete,148,race,3,1,left,A_M_06.jpg,A_F_05.jpg,C_M_16.jpg,left,1790.0099999969825,true,high,false
H499Jksx,3oplmf3ev80afezcyc4phujqmmslnu,3jpsl1dz5wcv6f62snk1x0z756qna7,H499Jksx,2020-0188,2020-11-16,19:05:13,19:25:12,NA,incomplete,149,race,3,1,right,A_F_01.jpg,C_F_04.jpg,A_M_08.jpg,right,1721.1499999975786,true,high,false
H499Jksx,3oplmf3ev80afezcyc4phujqmmslnu,3jpsl1dz5wcv6f62snk1x0z756qna7,H499Jksx,2020-0188,2020-11-16,19:05:13,19:25:12,NA,incomplete,150,race,3,1,right,A_M_05.jpg,C_M_10.jpg,A_F_09.jpg,left,1472.3500000254717,false,high,false
H499Jksx,3oplmf3ev80afezcyc4phujqmmslnu,3jpsl1dz5wcv6f62snk1x0z756qna7,H499Jksx,2020-0188,2020-11-16,19:05:13,19:25:12,NA,incomplete,151,race,3,0,right,A_F_12.jpg,C_F_07.jpg,A_M_09.jpg,left,1546.7099999950733,false,high,false
H499Jksx,3oplmf3ev80afezcyc4phujqmmslnu,3jpsl1dz5wcv6f62snk1x0z756qna7,H499Jksx,2020-0188,2020-11-16,19:05:13,19:25:12,NA,incomplete,152,race,3,1,right,A_M_04.jpg,C_M_05.jpg,A_F_13.jpg,right,1129.3399999849498,true,high,false
H499Jksx,3oplmf3ev80afezcyc4phujqmmslnu,3jpsl1dz5wcv6f62snk1x0z756qna7,H499Jksx,2020-0188,2020-11-16,19:05:13,19:25:12,NA,incomplete,153,race,3,1,left,C_M_16.jpg,C_F_01.jpg,A_M_12.jpg,left,1425.149999995483,true,high,false
H499Jksx,3oplmf3ev80afezcyc4phujqmmslnu,3jpsl1dz5wcv6f62snk1x0z756qna7,H499Jksx,2020-0188,2020-11-16,19:05:13,19:25:12,NA,incomplete,154,race,3,0,left,A_M_03.jpg,A_F_10.jpg,C_M_16.jpg,left,1459.9750000052154,true,high,false
H499Jksx,3oplmf3ev80afezcyc4phujqmmslnu,3jpsl1dz5wcv6f62snk1x0z756qna7,H499Jksx,2020-0188,2020-11-16,19:05:13,19:25:12,NA,incomplete,155,race,3,1,left,A_F_01.jpg,A_M_16.jpg,C_F_14.jpg,right,1455.1100000098813,false,high,false
H499Jksx,3oplmf3ev80afezcyc4phujqmmslnu,3jpsl1dz5wcv6f62snk1x0z756qna7,H499Jksx,2020-0188,2020-11-16,19:05:13,19:25:12,NA,incomplete,156,race,3,0,left,C_M_06.jpg,C_F_09.jpg,A_M_05.jpg,right,1226.234999980079,false,high,false
H499Jksx,3oplmf3ev80afezcyc4phujqmmslnu,3jpsl1dz5wcv6f62snk1x0z756qna7,H499Jksx,2020-0188,2020-11-16,19:05:13,19:25:12,NA,incomplete,157,race,3,1,left,C_F_10.jpg,C_M_15.jpg,A_F_09.jpg,none,0,false,high,false
H499Jksx,3oplmf3ev80afezcyc4phujqmmslnu,3jpsl1dz5wcv6f62snk1x0z756qna7,H499Jksx,2020-0188,2020-11-16,19:05:13,19:25:12,NA,incomplete,158,race,3,1,right,A_M_12.jpg,C_M_13.jpg,A_F_04.jpg,left,1374.5699999853969,false,high,false
H499Jksx,3oplmf3ev80afezcyc4phujqmmslnu,3jpsl1dz5wcv6f62snk1x0z756qna7,H499Jksx,2020-0188,2020-11-16,19:05:13,19:25:12,NA,incomplete,159,race,3,1,left,C_M_01.jpg,C_F_13.jpg,A_M_15.jpg,left,1443.2049999886658,true,high,false
H499Jksx,3oplmf3ev80afezcyc4phujqmmslnu,3jpsl1dz5wcv6f62snk1x0z756qna7,H499Jksx,2020-0188,2020-11-16,19:05:13,19:25:12,NA,incomplete,160,gender,2,1,left,A_M_01.jpg,C_M_15.jpg,A_F_05.jpg,right,1319.0300000132993,false,high,false
H499Jksx,3oplmf3ev80afezcyc4phujqmmslnu,3jpsl1dz5wcv6f62snk1x0z756qna7,H499Jksx,2020-0188,2020-11-16,19:05:13,19:25:12,NA,incomplete,161,gender,2,1,left,A_F_04.jpg,C_F_05.jpg,A_M_06.jpg,left,1478.6500000045635,true,high,false
H499Jksx,3oplmf3ev80afezcyc4phujqmmslnu,3jpsl1dz5wcv6f62snk1x0z756qna7,H499Jksx,2020-0188,2020-11-16,19:05:13,19:25:12,NA,incomplete,162,gender,2,0,left,A_F_14.jpg,C_F_12.jpg,A_M_11.jpg,right,1231.93499998888,false,high,false
H499Jksx,3oplmf3ev80afezcyc4phujqmmslnu,3jpsl1dz5wcv6f62snk1x0z756qna7,H499Jksx,2020-0188,2020-11-16,19:05:13,19:25:12,NA,incomplete,163,gender,2,1,right,A_M_06.jpg,A_F_04.jpg,C_M_16.jpg,left,1347.0200000156183,false,high,false
H499Jksx,3oplmf3ev80afezcyc4phujqmmslnu,3jpsl1dz5wcv6f62snk1x0z756qna7,H499Jksx,2020-0188,2020-11-16,19:05:13,19:25:12,NA,incomplete,164,gender,2,0,left,C_M_11.jpg,A_M_10.jpg,C_F_13.jpg,left,963.2799999963026,true,high,false
H499Jksx,3oplmf3ev80afezcyc4phujqmmslnu,3jpsl1dz5wcv6f62snk1x0z756qna7,H499Jksx,2020-0188,2020-11-16,19:05:13,19:25:12,NA,incomplete,165,gender,2,1,left,A_M_13.jpg,C_M_16.jpg,A_F_06.jpg,right,1407.2800000139978,false,high,false
H499Jksx,3oplmf3ev80afezcyc4phujqmmslnu,3jpsl1dz5wcv6f62snk1x0z756qna7,H499Jksx,2020-0188,2020-11-16,19:05:13,19:25:12,NA,incomplete,166,gender,2,1,left,C_M_04.jpg,A_M_02.jpg,C_F_12.jpg,right,1284.0699999942444,false,high,false
H499Jksx,3oplmf3ev80afezcyc4phujqmmslnu,3jpsl1dz5wcv6f62snk1x0z756qna7,H499Jksx,2020-0188,2020-11-16,19:05:13,19:25:12,NA,incomplete,167,gender,2,1,left,C_M_10.jpg,A_M_06.jpg,C_F_08.jpg,left,1173.0999999854248,true,high,false
H499Jksx,3oplmf3ev80afezcyc4phujqmmslnu,3jpsl1dz5wcv6f62snk1x0z756qna7,H499Jksx,2020-0188,2020-11-16,19:05:13,19:25:12,NA,incomplete,168,gender,2,0,left,A_M_04.jpg,C_M_09.jpg,A_F_12.jpg,left,1155.7199999806471,true,high,false
H499Jksx,3oplmf3ev80afezcyc4phujqmmslnu,3jpsl1dz5wcv6f62snk1x0z756qna7,H499Jksx,2020-0188,2020-11-16,19:05:13,19:25:12,NA,incomplete,169,gender,2,1,right,A_F_04.jpg,A_M_12.jpg,C_F_01.jpg,right,1628.7200000078883,true,high,false
H499Jksx,3oplmf3ev80afezcyc4phujqmmslnu,3jpsl1dz5wcv6f62snk1x0z756qna7,H499Jksx,2020-0188,2020-11-16,19:05:13,19:25:12,NA,incomplete,170,gender,2,1,right,A_M_06.jpg,A_F_12.jpg,C_M_14.jpg,right,1260.4749999882188,true,high,false
H499Jksx,3oplmf3ev80afezcyc4phujqmmslnu,3jpsl1dz5wcv6f62snk1x0z756qna7,H499Jksx,2020-0188,2020-11-16,19:05:13,19:25:12,NA,incomplete,171,gender,2,1,right,C_F_08.jpg,C_M_13.jpg,A_F_12.jpg,right,1357.9500000050757,true,high,false
H499Jksx,3oplmf3ev80afezcyc4phujqmmslnu,3jpsl1dz5wcv6f62snk1x0z756qna7,H499Jksx,2020-0188,2020-11-16,19:05:13,19:25:12,NA,incomplete,172,gender,2,1,left,C_F_07.jpg,A_F_15.jpg,C_M_16.jpg,left,1022.1049999818206,true,high,false
H499Jksx,3oplmf3ev80afezcyc4phujqmmslnu,3jpsl1dz5wcv6f62snk1x0z756qna7,H499Jksx,2020-0188,2020-11-16,19:05:13,19:25:12,NA,incomplete,173,gender,2,1,left,A_F_11.jpg,C_F_07.jpg,A_M_09.jpg,left,904.3400000082329,true,high,false
H499Jksx,3oplmf3ev80afezcyc4phujqmmslnu,3jpsl1dz5wcv6f62snk1x0z756qna7,H499Jksx,2020-0188,2020-11-16,19:05:13,19:25:12,NA,incomplete,174,gender,2,0,right,C_M_09.jpg,C_F_01.jpg,A_M_11.jpg,right,1056.7100000043865,true,high,false
H499Jksx,3oplmf3ev80afezcyc4phujqmmslnu,3jpsl1dz5wcv6f62snk1x0z756qna7,H499Jksx,2020-0188,2020-11-16,19:05:13,19:25:12,NA,incomplete,175,gender,2,1,left,C_M_12.jpg,A_M_03.jpg,C_F_02.jpg,left,1706.8900000012945,true,high,false
H499Jksx,3oplmf3ev80afezcyc4phujqmmslnu,3jpsl1dz5wcv6f62snk1x0z756qna7,H499Jksx,2020-0188,2020-11-16,19:05:13,19:25:12,NA,incomplete,176,gender,2,1,right,C_F_16.jpg,C_M_04.jpg,A_F_06.jpg,right,1356.3450000074226,true,high,false
H499Jksx,3oplmf3ev80afezcyc4phujqmmslnu,3jpsl1dz5wcv6f62snk1x0z756qna7,H499Jksx,2020-0188,2020-11-16,19:05:13,19:25:12,NA,incomplete,177,gender,2,0,left,C_M_03.jpg,A_M_09.jpg,C_F_02.jpg,left,1089.0700000163633,true,high,false
H499Jksx,3oplmf3ev80afezcyc4phujqmmslnu,3jpsl1dz5wcv6f62snk1x0z756qna7,H499Jksx,2020-0188,2020-11-16,19:05:13,19:25:12,NA,incomplete,178,gender,2,1,right,C_F_16.jpg,C_M_14.jpg,A_F_05.jpg,right,1265.5899999954272,true,high,false
H499Jksx,3oplmf3ev80afezcyc4phujqmmslnu,3jpsl1dz5wcv6f62snk1x0z756qna7,H499Jksx,2020-0188,2020-11-16,19:05:13,19:25:12,NA,incomplete,179,gender,2,1,left,A_M_11.jpg,C_M_08.jpg,A_F_04.jpg,left,1091.5100000274833,true,high,false
H499Jksx,3oplmf3ev80afezcyc4phujqmmslnu,3jpsl1dz5wcv6f62snk1x0z756qna7,H499Jksx,2020-0188,2020-11-16,19:05:13,19:25:12,NA,incomplete,180,race,3,1,right,A_F_12.jpg,C_F_15.jpg,A_M_09.jpg,left,1797.8299999958836,false,high,false
H499Jksx,3oplmf3ev80afezcyc4phujqmmslnu,3jpsl1dz5wcv6f62snk1x0z756qna7,H499Jksx,2020-0188,2020-11-16,19:05:13,19:25:12,NA,incomplete,181,race,3,0,left,A_F_06.jpg,A_M_08.jpg,C_F_15.jpg,right,1810.7350000063889,false,high,false
H499Jksx,3oplmf3ev80afezcyc4phujqmmslnu,3jpsl1dz5wcv6f62snk1x0z756qna7,H499Jksx,2020-0188,2020-11-16,19:05:13,19:25:12,NA,incomplete,182,race,3,1,right,A_F_14.jpg,C_F_10.jpg,A_M_16.jpg,left,1325.314999994589,false,high,false
H499Jksx,3oplmf3ev80afezcyc4phujqmmslnu,3jpsl1dz5wcv6f62snk1x0z756qna7,H499Jksx,2020-0188,2020-11-16,19:05:13,19:25:12,NA,incomplete,183,race,3,1,right,C_M_02.jpg,A_M_16.jpg,C_F_05.jpg,left,1213.6199999949895,false,high,false
H499Jksx,3oplmf3ev80afezcyc4phujqmmslnu,3jpsl1dz5wcv6f62snk1x0z756qna7,H499Jksx,2020-0188,2020-11-16,19:05:13,19:25:12,NA,incomplete,184,race,3,1,left,C_F_07.jpg,C_M_06.jpg,A_F_09.jpg,left,1171.7399999906775,true,high,false
H499Jksx,3oplmf3ev80afezcyc4phujqmmslnu,3jpsl1dz5wcv6f62snk1x0z756qna7,H499Jksx,2020-0188,2020-11-16,19:05:13,19:25:12,NA,incomplete,185,race,3,0,left,A_F_02.jpg,A_M_09.jpg,C_F_06.jpg,left,1246.3949999946635,true,high,false
H499Jksx,3oplmf3ev80afezcyc4phujqmmslnu,3jpsl1dz5wcv6f62snk1x0z756qna7,H499Jksx,2020-0188,2020-11-16,19:05:13,19:25:12,NA,incomplete,186,race,3,1,left,C_M_04.jpg,C_F_06.jpg,A_M_13.jpg,left,1344.8300000163727,true,high,false
H499Jksx,3oplmf3ev80afezcyc4phujqmmslnu,3jpsl1dz5wcv6f62snk1x0z756qna7,H499Jksx,2020-0188,2020-11-16,19:05:13,19:25:12,NA,incomplete,187,race,3,0,right,C_M_08.jpg,A_M_05.jpg,C_F_01.jpg,right,1296.5650000260212,true,high,false
H499Jksx,3oplmf3ev80afezcyc4phujqmmslnu,3jpsl1dz5wcv6f62snk1x0z756qna7,H499Jksx,2020-0188,2020-11-16,19:05:13,19:25:12,NA,incomplete,188,race,3,1,left,A_M_08.jpg,A_F_09.jpg,C_M_12.jpg,right,1074.880000000121,false,high,false
H499Jksx,3oplmf3ev80afezcyc4phujqmmslnu,3jpsl1dz5wcv6f62snk1x0z756qna7,H499Jksx,2020-0188,2020-11-16,19:05:13,19:25:12,NA,incomplete,189,race,3,1,right,C_F_04.jpg,A_F_02.jpg,C_M_13.jpg,right,1314.3100000161212,true,high,false
H499Jksx,3oplmf3ev80afezcyc4phujqmmslnu,3jpsl1dz5wcv6f62snk1x0z756qna7,H499Jksx,2020-0188,2020-11-16,19:05:13,19:25:12,NA,incomplete,190,race,3,1,left,A_M_09.jpg,A_F_08.jpg,C_M_06.jpg,left,1178.5300000046846,true,high,false
H499Jksx,3oplmf3ev80afezcyc4phujqmmslnu,3jpsl1dz5wcv6f62snk1x0z756qna7,H499Jksx,2020-0188,2020-11-16,19:05:13,19:25:12,NA,incomplete,191,race,3,1,left,A_F_15.jpg,A_M_10.jpg,C_F_08.jpg,right,1160.1549999904819,false,high,false
H499Jksx,3oplmf3ev80afezcyc4phujqmmslnu,3jpsl1dz5wcv6f62snk1x0z756qna7,H499Jksx,2020-0188,2020-11-16,19:05:13,19:25:12,NA,incomplete,192,race,3,0,left,A_M_08.jpg,A_F_13.jpg,C_M_05.jpg,left,1311.8649999960326,true,high,false
H499Jksx,3oplmf3ev80afezcyc4phujqmmslnu,3jpsl1dz5wcv6f62snk1x0z756qna7,H499Jksx,2020-0188,2020-11-16,19:05:13,19:25:12,NA,incomplete,193,race,3,1,left,C_F_03.jpg,C_M_08.jpg,A_F_07.jpg,right,1334.0449999959674,false,high,false
H499Jksx,3oplmf3ev80afezcyc4phujqmmslnu,3jpsl1dz5wcv6f62snk1x0z756qna7,H499Jksx,2020-0188,2020-11-16,19:05:13,19:25:12,NA,incomplete,194,race,3,0,right,A_F_07.jpg,C_F_04.jpg,A_M_03.jpg,right,1189.379999996163,true,high,false
H499Jksx,3oplmf3ev80afezcyc4phujqmmslnu,3jpsl1dz5wcv6f62snk1x0z756qna7,H499Jksx,2020-0188,2020-11-16,19:05:13,19:25:12,NA,incomplete,195,race,3,1,right,A_F_09.jpg,C_F_16.jpg,A_M_01.jpg,left,1018.7499999883585,false,high,false
H499Jksx,3oplmf3ev80afezcyc4phujqmmslnu,3jpsl1dz5wcv6f62snk1x0z756qna7,H499Jksx,2020-0188,2020-11-16,19:05:13,19:25:12,NA,incomplete,196,race,3,1,right,A_M_08.jpg,C_M_01.jpg,A_F_07.jpg,left,1327.6099999784492,false,high,false
H499Jksx,3oplmf3ev80afezcyc4phujqmmslnu,3jpsl1dz5wcv6f62snk1x0z756qna7,H499Jksx,2020-0188,2020-11-16,19:05:13,19:25:12,NA,incomplete,197,race,3,1,left,A_F_14.jpg,A_M_09.jpg,C_F_13.jpg,right,973.1749999918975,false,high,false
H499Jksx,3oplmf3ev80afezcyc4phujqmmslnu,3jpsl1dz5wcv6f62snk1x0z756qna7,H499Jksx,2020-0188,2020-11-16,19:05:13,19:25:12,NA,incomplete,198,race,3,1,left,A_M_01.jpg,A_F_04.jpg,C_M_07.jpg,left,1243.7599999830127,true,high,false
H499Jksx,3oplmf3ev80afezcyc4phujqmmslnu,3jpsl1dz5wcv6f62snk1x0z756qna7,H499Jksx,2020-0188,2020-11-16,19:05:13,19:25:12,NA,incomplete,199,race,3,0,left,C_M_02.jpg,C_F_15.jpg,A_M_01.jpg,left,1525.629999989178,true,high,false
H499Jksx,3oplmf3ev80afezcyc4phujqmmslnu,3jpsl1dz5wcv6f62snk1x0z756qna7,H499Jksx,2020-0188,2020-11-16,19:05:13,19:25:12,NA,incomplete,200,gender,2,1,left,A_M_11.jpg,C_M_05.jpg,A_F_09.jpg,right,1367.2500000102445,false,high,false
H499Jksx,3oplmf3ev80afezcyc4phujqmmslnu,3jpsl1dz5wcv6f62snk1x0z756qna7,H499Jksx,2020-0188,2020-11-16,19:05:13,19:25:12,NA,incomplete,201,gender,2,1,right,A_F_03.jpg,A_M_07.jpg,C_F_04.jpg,right,1051.594999997178,true,high,false
H499Jksx,3oplmf3ev80afezcyc4phujqmmslnu,3jpsl1dz5wcv6f62snk1x0z756qna7,H499Jksx,2020-0188,2020-11-16,19:05:13,19:25:12,NA,incomplete,202,gender,2,0,left,C_M_16.jpg,A_M_04.jpg,C_F_15.jpg,left,1533.9199999871198,true,high,false
H499Jksx,3oplmf3ev80afezcyc4phujqmmslnu,3jpsl1dz5wcv6f62snk1x0z756qna7,H499Jksx,2020-0188,2020-11-16,19:05:13,19:25:12,NA,incomplete,203,gender,2,1,right,A_M_06.jpg,A_F_15.jpg,C_M_07.jpg,left,1437.6950000005309,false,high,false
H499Jksx,3oplmf3ev80afezcyc4phujqmmslnu,3jpsl1dz5wcv6f62snk1x0z756qna7,H499Jksx,2020-0188,2020-11-16,19:05:13,19:25:12,NA,incomplete,204,gender,2,1,right,A_F_05.jpg,A_M_10.jpg,C_F_01.jpg,right,1178.2850000017788,true,high,false
H499Jksx,3oplmf3ev80afezcyc4phujqmmslnu,3jpsl1dz5wcv6f62snk1x0z756qna7,H499Jksx,2020-0188,2020-11-16,19:05:13,19:25:12,NA,incomplete,205,gender,2,1,left,A_M_12.jpg,C_M_13.jpg,A_F_10.jpg,left,1335.1799999945797,true,high,false
H499Jksx,3oplmf3ev80afezcyc4phujqmmslnu,3jpsl1dz5wcv6f62snk1x0z756qna7,H499Jksx,2020-0188,2020-11-16,19:05:13,19:25:12,NA,incomplete,206,gender,2,1,left,A_F_08.jpg,C_F_06.jpg,A_M_10.jpg,left,974.2249999835622,true,high,false
H499Jksx,3oplmf3ev80afezcyc4phujqmmslnu,3jpsl1dz5wcv6f62snk1x0z756qna7,H499Jksx,2020-0188,2020-11-16,19:05:13,19:25:12,NA,incomplete,207,gender,2,0,left,A_F_12.jpg,C_F_07.jpg,A_M_14.jpg,left,1283.869999984745,true,high,false
H499Jksx,3oplmf3ev80afezcyc4phujqmmslnu,3jpsl1dz5wcv6f62snk1x0z756qna7,H499Jksx,2020-0188,2020-11-16,19:05:13,19:25:12,NA,incomplete,208,gender,2,1,left,A_F_05.jpg,C_F_15.jpg,A_M_09.jpg,left,934.3700000026729,true,high,false
H499Jksx,3oplmf3ev80afezcyc4phujqmmslnu,3jpsl1dz5wcv6f62snk1x0z756qna7,H499Jksx,2020-0188,2020-11-16,19:05:13,19:25:12,NA,incomplete,209,gender,2,1,right,A_M_07.jpg,A_F_12.jpg,C_M_01.jpg,right,1284.1199999966193,true,high,false
H499Jksx,3oplmf3ev80afezcyc4phujqmmslnu,3jpsl1dz5wcv6f62snk1x0z756qna7,H499Jksx,2020-0188,2020-11-16,19:05:13,19:25:12,NA,incomplete,210,gender,2,0,left,C_M_04.jpg,A_M_09.jpg,C_F_03.jpg,right,1230.1399999996647,false,high,false
H499Jksx,3oplmf3ev80afezcyc4phujqmmslnu,3jpsl1dz5wcv6f62snk1x0z756qna7,H499Jksx,2020-0188,2020-11-16,19:05:13,19:25:12,NA,incomplete,211,gender,2,1,left,A_F_03.jpg,C_F_04.jpg,A_M_16.jpg,left,1248.8049999810755,true,high,false
H499Jksx,3oplmf3ev80afezcyc4phujqmmslnu,3jpsl1dz5wcv6f62snk1x0z756qna7,H499Jksx,2020-0188,2020-11-16,19:05:13,19:25:12,NA,incomplete,212,gender,2,1,right,A_F_15.jpg,A_M_14.jpg,C_F_08.jpg,right,1309.3550000048708,true,high,false
H499Jksx,3oplmf3ev80afezcyc4phujqmmslnu,3jpsl1dz5wcv6f62snk1x0z756qna7,H499Jksx,2020-0188,2020-11-16,19:05:13,19:25:12,NA,incomplete,213,gender,2,1,left,C_F_11.jpg,A_F_04.jpg,C_M_02.jpg,right,1427.1799999987707,false,high,false
H499Jksx,3oplmf3ev80afezcyc4phujqmmslnu,3jpsl1dz5wcv6f62snk1x0z756qna7,H499Jksx,2020-0188,2020-11-16,19:05:13,19:25:12,NA,incomplete,214,gender,2,1,left,C_M_02.jpg,A_M_05.jpg,C_F_04.jpg,left,1208.4850000101142,true,high,false
H499Jksx,3oplmf3ev80afezcyc4phujqmmslnu,3jpsl1dz5wcv6f62snk1x0z756qna7,H499Jksx,2020-0188,2020-11-16,19:05:13,19:25:12,NA,incomplete,215,gender,2,1,right,C_M_12.jpg,C_F_16.jpg,A_M_09.jpg,right,1171.4950000168756,true,high,false
H499Jksx,3oplmf3ev80afezcyc4phujqmmslnu,3jpsl1dz5wcv6f62snk1x0z756qna7,H499Jksx,2020-0188,2020-11-16,19:05:13,19:25:12,NA,incomplete,216,gender,2,1,left,C_M_09.jpg,A_M_11.jpg,C_F_15.jpg,left,1050.2299999934621,true,high,false
H499Jksx,3oplmf3ev80afezcyc4phujqmmslnu,3jpsl1dz5wcv6f62snk1x0z756qna7,H499Jksx,2020-0188,2020-11-16,19:05:13,19:25:12,NA,incomplete,217,gender,2,1,right,C_F_04.jpg,C_M_08.jpg,A_F_09.jpg,right,1107.960000023013,true,high,false
H499Jksx,3oplmf3ev80afezcyc4phujqmmslnu,3jpsl1dz5wcv6f62snk1x0z756qna7,H499Jksx,2020-0188,2020-11-16,19:05:13,19:25:12,NA,incomplete,218,gender,2,1,right,C_F_05.jpg,C_M_07.jpg,A_F_04.jpg,right,997.189999994589,true,high,false
H499Jksx,3oplmf3ev80afezcyc4phujqmmslnu,3jpsl1dz5wcv6f62snk1x0z756qna7,H499Jksx,2020-0188,2020-11-16,19:05:13,19:25:12,NA,incomplete,219,gender,2,1,left,A_M_01.jpg,C_M_13.jpg,A_F_09.jpg,left,1385.4199999768753,true,high,false
H499Jksx,3oplmf3ev80afezcyc4phujqmmslnu,3jpsl1dz5wcv6f62snk1x0z756qna7,H499Jksx,2020-0188,2020-11-16,19:05:13,19:25:12,NA,incomplete,220,race,3,1,left,C_F_06.jpg,C_M_09.jpg,A_F_15.jpg,right,967.225000000326,false,high,false
H499Jksx,3oplmf3ev80afezcyc4phujqmmslnu,3jpsl1dz5wcv6f62snk1x0z756qna7,H499Jksx,2020-0188,2020-11-16,19:05:13,19:25:12,NA,incomplete,221,race,3,1,left,C_F_05.jpg,C_M_02.jpg,A_F_14.jpg,right,1036.1700000066776,false,high,false
H499Jksx,3oplmf3ev80afezcyc4phujqmmslnu,3jpsl1dz5wcv6f62snk1x0z756qna7,H499Jksx,2020-0188,2020-11-16,19:05:13,19:25:12,NA,incomplete,222,race,3,1,right,A_F_02.jpg,C_F_12.jpg,A_M_05.jpg,right,1102.645000006305,true,high,false
H499Jksx,3oplmf3ev80afezcyc4phujqmmslnu,3jpsl1dz5wcv6f62snk1x0z756qna7,H499Jksx,2020-0188,2020-11-16,19:05:13,19:25:12,NA,incomplete,223,race,3,1,left,A_F_11.jpg,A_M_15.jpg,C_F_12.jpg,left,1119.7549999924377,true,high,false
H499Jksx,3oplmf3ev80afezcyc4phujqmmslnu,3jpsl1dz5wcv6f62snk1x0z756qna7,H499Jksx,2020-0188,2020-11-16,19:05:13,19:25:12,NA,incomplete,224,race,3,1,right,C_F_16.jpg,A_F_04.jpg,C_M_01.jpg,right,1304.1350000130478,true,high,false
H499Jksx,3oplmf3ev80afezcyc4phujqmmslnu,3jpsl1dz5wcv6f62snk1x0z756qna7,H499Jksx,2020-0188,2020-11-16,19:05:13,19:25:12,NA,incomplete,225,race,3,1,right,C_M_06.jpg,A_M_04.jpg,C_F_08.jpg,right,1310.6049999769311,true,high,false
H499Jksx,3oplmf3ev80afezcyc4phujqmmslnu,3jpsl1dz5wcv6f62snk1x0z756qna7,H499Jksx,2020-0188,2020-11-16,19:05:13,19:25:12,NA,incomplete,226,race,3,1,left,C_M_12.jpg,C_F_11.jpg,A_M_15.jpg,left,1255.654999986291,true,high,false
H499Jksx,3oplmf3ev80afezcyc4phujqmmslnu,3jpsl1dz5wcv6f62snk1x0z756qna7,H499Jksx,2020-0188,2020-11-16,19:05:13,19:25:12,NA,incomplete,227,race,3,1,left,C_F_12.jpg,C_M_03.jpg,A_F_13.jpg,left,1187.1600000013132,true,high,false
H499Jksx,3oplmf3ev80afezcyc4phujqmmslnu,3jpsl1dz5wcv6f62snk1x0z756qna7,H499Jksx,2020-0188,2020-11-16,19:05:13,19:25:12,NA,incomplete,228,race,3,1,right,C_M_01.jpg,A_M_10.jpg,C_F_07.jpg,right,1247.4849999998696,true,high,false
H499Jksx,3oplmf3ev80afezcyc4phujqmmslnu,3jpsl1dz5wcv6f62snk1x0z756qna7,H499Jksx,2020-0188,2020-11-16,19:05:13,19:25:12,NA,incomplete,229,race,3,1,left,C_F_01.jpg,C_M_15.jpg,A_F_10.jpg,left,1089.269999996759,true,high,false
H499Jksx,3oplmf3ev80afezcyc4phujqmmslnu,3jpsl1dz5wcv6f62snk1x0z756qna7,H499Jksx,2020-0188,2020-11-16,19:05:13,19:25:12,NA,incomplete,230,race,3,0,left,A_M_16.jpg,A_F_03.jpg,C_M_01.jpg,left,1081.7450000031386,true,high,false
H499Jksx,3oplmf3ev80afezcyc4phujqmmslnu,3jpsl1dz5wcv6f62snk1x0z756qna7,H499Jksx,2020-0188,2020-11-16,19:05:13,19:25:12,NA,incomplete,231,race,3,1,left,C_M_05.jpg,C_F_02.jpg,A_M_14.jpg,right,912.1000000159256,false,high,false
H499Jksx,3oplmf3ev80afezcyc4phujqmmslnu,3jpsl1dz5wcv6f62snk1x0z756qna7,H499Jksx,2020-0188,2020-11-16,19:05:13,19:25:12,NA,incomplete,232,race,3,1,left,C_F_15.jpg,C_M_11.jpg,A_F_10.jpg,left,1404.9700000032317,true,high,false
H499Jksx,3oplmf3ev80afezcyc4phujqmmslnu,3jpsl1dz5wcv6f62snk1x0z756qna7,H499Jksx,2020-0188,2020-11-16,19:05:13,19:25:12,NA,incomplete,233,race,3,1,left,A_F_13.jpg,A_M_10.jpg,C_F_11.jpg,left,1551.6450000286568,true,high,false
H499Jksx,3oplmf3ev80afezcyc4phujqmmslnu,3jpsl1dz5wcv6f62snk1x0z756qna7,H499Jksx,2020-0188,2020-11-16,19:05:13,19:25:12,NA,incomplete,234,race,3,1,left,A_F_03.jpg,A_M_10.jpg,C_F_04.jpg,left,1461.684999987483,true,high,false
H499Jksx,3oplmf3ev80afezcyc4phujqmmslnu,3jpsl1dz5wcv6f62snk1x0z756qna7,H499Jksx,2020-0188,2020-11-16,19:05:13,19:25:12,NA,incomplete,235,race,3,0,left,C_F_12.jpg,C_M_06.jpg,A_F_07.jpg,left,1344.0199999895412,true,high,false
H499Jksx,3oplmf3ev80afezcyc4phujqmmslnu,3jpsl1dz5wcv6f62snk1x0z756qna7,H499Jksx,2020-0188,2020-11-16,19:05:13,19:25:12,NA,incomplete,236,race,3,1,right,A_M_10.jpg,C_M_01.jpg,A_F_12.jpg,left,1256.8549999850802,false,high,false
H499Jksx,3oplmf3ev80afezcyc4phujqmmslnu,3jpsl1dz5wcv6f62snk1x0z756qna7,H499Jksx,2020-0188,2020-11-16,19:05:13,19:25:12,NA,incomplete,237,race,3,1,left,A_M_11.jpg,A_F_16.jpg,C_M_05.jpg,left,1128.9450000040233,true,high,false
H499Jksx,3oplmf3ev80afezcyc4phujqmmslnu,3jpsl1dz5wcv6f62snk1x0z756qna7,H499Jksx,2020-0188,2020-11-16,19:05:13,19:25:12,NA,incomplete,238,race,3,1,left,C_M_14.jpg,C_F_06.jpg,A_M_09.jpg,left,1457.5800000166055,true,high,false
H499Jksx,3oplmf3ev80afezcyc4phujqmmslnu,3jpsl1dz5wcv6f62snk1x0z756qna7,H499Jksx,2020-0188,2020-11-16,19:05:13,19:25:12,NA,incomplete,239,race,3,1,left,A_F_03.jpg,A_M_06.jpg,C_F_14.jpg,right,1491.6700000176206,false,high,false
H499Jksx,3oplmf3ev80afezcyc4phujqmmslnu,3jpsl1dz5wcv6f62snk1x0z756qna7,H499Jksx,2020-0188,2020-11-16,19:05:13,19:25:12,NA,NA,instruction example,color,NA,NA,NA,Blue_Star_Chess_3.jpg,Blue_Plus_Stripes_1.jpg,Purple_Circle_Chess_4.jpg,NA,NA,NA,NA,undefined
H499Jksx,3oplmf3ev80afezcyc4phujqmmslnu,3jpsl1dz5wcv6f62snk1x0z756qna7,H499Jksx,2020-0188,2020-11-16,19:05:13,19:25:12,NA,NA,instruction example,color,NA,NA,NA,Blue_Plus_Stripes_1.jpg,Purple_Triangle_Stripes_3.jpg,Blue_Star_Grid_2.jpg,NA,NA,NA,NA,undefined
H499Jksx,3oplmf3ev80afezcyc4phujqmmslnu,3jpsl1dz5wcv6f62snk1x0z756qna7,H499Jksx,2020-0188,2020-11-16,19:05:13,19:25:12,NA,NA,instruction example,color,NA,NA,NA,C_F_06.jpg,A_F_14.jpg,C_M_05.jpg,NA,NA,NA,NA,undefined
H499Jksx,3oplmf3ev80afezcyc4phujqmmslnu,3jpsl1dz5wcv6f62snk1x0z756qna7,H499Jksx,2020-0188,2020-11-16,19:05:13,19:25:12,NA,NA,instruction example,color,NA,NA,NA,A_F_05.jpg,A_M_06.jpg,C_F_14.jpg,NA,NA,NA,NA,undefined
