workerId,hitId,assignmentId,subject,studyid,exp_date,exp_start,exp_end,time_start,time_end,trial,type,sequence,reward_validity,answer,image_top,image_left,image_right,response,response_time,response_acc,volatility,practice
4rdDBc2c,3e9vauv7czrnvucm8noapw1mqoqyaq,3jrjswsmqlyrsou4q928k5rrpwx3eo,4rdDBc2c,2020-0188,2020-06-04,15:45:53,16:06:41,NA,incomplete,0,filling,0,0,left,Green_Star_Chess_3.jpg,Purple_Plus_Chess_2.jpg,Blue_Circle_Grid_3.jpg,left,1305.8899999996647,true,NA,true
4rdDBc2c,3e9vauv7czrnvucm8noapw1mqoqyaq,3jrjswsmqlyrsou4q928k5rrpwx3eo,4rdDBc2c,2020-0188,2020-06-04,15:45:53,16:06:41,NA,incomplete,1,filling,0,1,left,Red_Triangle_Stripes_2.jpg,Purple_Star_Stripes_3.jpg,Blue_Circle_Dots_2.jpg,left,1143.5100000003586,true,NA,true
4rdDBc2c,3e9vauv7czrnvucm8noapw1mqoqyaq,3jrjswsmqlyrsou4q928k5rrpwx3eo,4rdDBc2c,2020-0188,2020-06-04,15:45:53,16:06:41,NA,incomplete,2,filling,0,1,right,Green_Star_Stripes_2.jpg,Red_Triangle_Chess_2.jpg,Purple_Circle_Stripes_4.jpg,right,1019.2499999998254,true,NA,true
4rdDBc2c,3e9vauv7czrnvucm8noapw1mqoqyaq,3jrjswsmqlyrsou4q928k5rrpwx3eo,4rdDBc2c,2020-0188,2020-06-04,15:45:53,16:06:41,NA,incomplete,3,filling,0,1,left,Green_Star_Chess_2.jpg,Red_Plus_Chess_1.jpg,Blue_Circle_Dots_2.jpg,left,860.5350000002072,true,NA,true
4rdDBc2c,3e9vauv7czrnvucm8noapw1mqoqyaq,3jrjswsmqlyrsou4q928k5rrpwx3eo,4rdDBc2c,2020-0188,2020-06-04,15:45:53,16:06:41,NA,incomplete,4,filling,0,1,left,Blue_Triangle_Dots_1.jpg,Green_Circle_Dots_4.jpg,Purple_Plus_Grid_1.jpg,left,1115.2150000002584,true,NA,true
4rdDBc2c,3e9vauv7czrnvucm8noapw1mqoqyaq,3jrjswsmqlyrsou4q928k5rrpwx3eo,4rdDBc2c,2020-0188,2020-06-04,15:45:53,16:06:41,NA,incomplete,5,filling,0,1,right,Red_Star_Stripes_1.jpg,Blue_Plus_Chess_1.jpg,Purple_Circle_Stripes_3.jpg,right,817.7100000002538,true,NA,true
4rdDBc2c,3e9vauv7czrnvucm8noapw1mqoqyaq,3jrjswsmqlyrsou4q928k5rrpwx3eo,4rdDBc2c,2020-0188,2020-06-04,15:45:53,16:06:41,NA,incomplete,6,filling,0,0,left,Red_Plus_Dots_4.jpg,Green_Triangle_Dots_3.jpg,Blue_Star_Chess_4.jpg,left,994.1050000002142,true,NA,true
4rdDBc2c,3e9vauv7czrnvucm8noapw1mqoqyaq,3jrjswsmqlyrsou4q928k5rrpwx3eo,4rdDBc2c,2020-0188,2020-06-04,15:45:53,16:06:41,NA,incomplete,7,filling,0,1,right,Green_Circle_Stripes_3.jpg,Red_Plus_Grid_3.jpg,Purple_Triangle_Stripes_2.jpg,right,812.4249999996391,true,NA,true
4rdDBc2c,3e9vauv7czrnvucm8noapw1mqoqyaq,3jrjswsmqlyrsou4q928k5rrpwx3eo,4rdDBc2c,2020-0188,2020-06-04,15:45:53,16:06:41,NA,incomplete,8,filling,0,1,left,Purple_Star_Dots_2.jpg,Green_Plus_Dots_4.jpg,Red_Triangle_Grid_2.jpg,left,967.0449999998673,true,NA,true
4rdDBc2c,3e9vauv7czrnvucm8noapw1mqoqyaq,3jrjswsmqlyrsou4q928k5rrpwx3eo,4rdDBc2c,2020-0188,2020-06-04,15:45:53,16:06:41,NA,incomplete,9,filling,0,1,right,Red_Triangle_Chess_2.jpg,Green_Plus_Grid_2.jpg,Blue_Circle_Chess_1.jpg,right,890.0250000001397,true,NA,true
4rdDBc2c,3e9vauv7czrnvucm8noapw1mqoqyaq,3jrjswsmqlyrsou4q928k5rrpwx3eo,4rdDBc2c,2020-0188,2020-06-04,15:45:53,16:06:41,NA,incomplete,10,filling,0,1,left,Green_Plus_Dots_4.jpg,Red_Star_Dots_2.jpg,Blue_Circle_Grid_4.jpg,left,927.6549999999697,true,NA,true
4rdDBc2c,3e9vauv7czrnvucm8noapw1mqoqyaq,3jrjswsmqlyrsou4q928k5rrpwx3eo,4rdDBc2c,2020-0188,2020-06-04,15:45:53,16:06:41,NA,incomplete,11,filling,0,1,left,Purple_Star_Grid_3.jpg,Blue_Plus_Grid_2.jpg,Green_Circle_Chess_3.jpg,left,909.6449999997276,true,NA,true
4rdDBc2c,3e9vauv7czrnvucm8noapw1mqoqyaq,3jrjswsmqlyrsou4q928k5rrpwx3eo,4rdDBc2c,2020-0188,2020-06-04,15:45:53,16:06:41,NA,incomplete,12,filling,0,1,right,Blue_Star_Stripes_4.jpg,Red_Triangle_Chess_4.jpg,Purple_Circle_Stripes_1.jpg,right,971.6199999998207,true,NA,true
4rdDBc2c,3e9vauv7czrnvucm8noapw1mqoqyaq,3jrjswsmqlyrsou4q928k5rrpwx3eo,4rdDBc2c,2020-0188,2020-06-04,15:45:53,16:06:41,NA,incomplete,13,filling,0,0,left,Purple_Star_Grid_4.jpg,Red_Plus_Grid_2.jpg,Blue_Triangle_Stripes_4.jpg,left,828.605000000156,true,NA,true
4rdDBc2c,3e9vauv7czrnvucm8noapw1mqoqyaq,3jrjswsmqlyrsou4q928k5rrpwx3eo,4rdDBc2c,2020-0188,2020-06-04,15:45:53,16:06:41,NA,incomplete,14,filling,0,1,left,Blue_Plus_Grid_3.jpg,Green_Triangle_Grid_4.jpg,Purple_Star_Stripes_3.jpg,left,1086.1500000000815,true,NA,true
4rdDBc2c,3e9vauv7czrnvucm8noapw1mqoqyaq,3jrjswsmqlyrsou4q928k5rrpwx3eo,4rdDBc2c,2020-0188,2020-06-04,15:45:53,16:06:41,NA,incomplete,15,filling,0,1,left,Blue_Circle_Stripes_2.jpg,Green_Star_Stripes_4.jpg,Red_Plus_Chess_2.jpg,left,1052.8349999999627,true,NA,true
4rdDBc2c,3e9vauv7czrnvucm8noapw1mqoqyaq,3jrjswsmqlyrsou4q928k5rrpwx3eo,4rdDBc2c,2020-0188,2020-06-04,15:45:53,16:06:41,NA,incomplete,16,filling,0,1,left,Green_Star_Chess_3.jpg,Blue_Circle_Chess_2.jpg,Red_Triangle_Grid_3.jpg,left,1156.3449999998556,true,NA,true
4rdDBc2c,3e9vauv7czrnvucm8noapw1mqoqyaq,3jrjswsmqlyrsou4q928k5rrpwx3eo,4rdDBc2c,2020-0188,2020-06-04,15:45:53,16:06:41,NA,incomplete,17,filling,0,1,right,Red_Triangle_Dots_3.jpg,Blue_Plus_Chess_3.jpg,Green_Star_Dots_4.jpg,right,1078.8550000002142,true,NA,true
4rdDBc2c,3e9vauv7czrnvucm8noapw1mqoqyaq,3jrjswsmqlyrsou4q928k5rrpwx3eo,4rdDBc2c,2020-0188,2020-06-04,15:45:53,16:06:41,NA,incomplete,18,filling,0,1,right,Blue_Star_Chess_4.jpg,Red_Circle_Dots_4.jpg,Green_Plus_Chess_1.jpg,right,1318.829999999667,true,NA,true
4rdDBc2c,3e9vauv7czrnvucm8noapw1mqoqyaq,3jrjswsmqlyrsou4q928k5rrpwx3eo,4rdDBc2c,2020-0188,2020-06-04,15:45:53,16:06:41,NA,incomplete,19,filling,0,1,left,Purple_Triangle_Dots_3.jpg,Red_Plus_Dots_1.jpg,Blue_Star_Chess_3.jpg,left,1067.7000000000698,true,NA,true
4rdDBc2c,3e9vauv7czrnvucm8noapw1mqoqyaq,3jrjswsmqlyrsou4q928k5rrpwx3eo,4rdDBc2c,2020-0188,2020-06-04,15:45:53,16:06:41,NA,incomplete,20,number,1,0,left,Purple_Star_Chess_2.jpg,Red_Plus_Stripes_2.jpg,Blue_Triangle_Chess_1.jpg,right,1065.8149999999441,false,NA,true
4rdDBc2c,3e9vauv7czrnvucm8noapw1mqoqyaq,3jrjswsmqlyrsou4q928k5rrpwx3eo,4rdDBc2c,2020-0188,2020-06-04,15:45:53,16:06:41,NA,incomplete,21,number,1,1,right,Red_Triangle_Dots_3.jpg,Green_Star_Dots_1.jpg,Purple_Circle_Stripes_3.jpg,left,1153.4099999999162,false,NA,true
4rdDBc2c,3e9vauv7czrnvucm8noapw1mqoqyaq,3jrjswsmqlyrsou4q928k5rrpwx3eo,4rdDBc2c,2020-0188,2020-06-04,15:45:53,16:06:41,NA,incomplete,22,number,1,1,left,Blue_Plus_Chess_4.jpg,Purple_Triangle_Grid_4.jpg,Green_Circle_Chess_1.jpg,left,1054.3100000004051,true,NA,true
4rdDBc2c,3e9vauv7czrnvucm8noapw1mqoqyaq,3jrjswsmqlyrsou4q928k5rrpwx3eo,4rdDBc2c,2020-0188,2020-06-04,15:45:53,16:06:41,NA,incomplete,23,number,1,1,right,Green_Triangle_Stripes_4.jpg,Purple_Circle_Stripes_1.jpg,Blue_Plus_Dots_4.jpg,right,804.8600000002189,true,NA,true
4rdDBc2c,3e9vauv7czrnvucm8noapw1mqoqyaq,3jrjswsmqlyrsou4q928k5rrpwx3eo,4rdDBc2c,2020-0188,2020-06-04,15:45:53,16:06:41,NA,incomplete,24,number,1,1,left,Purple_Circle_Chess_3.jpg,Blue_Star_Stripes_3.jpg,Green_Triangle_Chess_1.jpg,left,918.7900000001537,true,NA,true
4rdDBc2c,3e9vauv7czrnvucm8noapw1mqoqyaq,3jrjswsmqlyrsou4q928k5rrpwx3eo,4rdDBc2c,2020-0188,2020-06-04,15:45:53,16:06:41,NA,incomplete,25,number,1,1,right,Purple_Circle_Stripes_4.jpg,Green_Star_Stripes_2.jpg,Blue_Triangle_Dots_4.jpg,right,1330.8900000002468,true,NA,true
4rdDBc2c,3e9vauv7czrnvucm8noapw1mqoqyaq,3jrjswsmqlyrsou4q928k5rrpwx3eo,4rdDBc2c,2020-0188,2020-06-04,15:45:53,16:06:41,NA,incomplete,26,number,1,0,left,Red_Triangle_Stripes_2.jpg,Green_Circle_Chess_2.jpg,Purple_Plus_Stripes_1.jpg,left,640.089999999851,true,NA,true
4rdDBc2c,3e9vauv7czrnvucm8noapw1mqoqyaq,3jrjswsmqlyrsou4q928k5rrpwx3eo,4rdDBc2c,2020-0188,2020-06-04,15:45:53,16:06:41,NA,incomplete,27,number,1,1,right,Red_Triangle_Dots_1.jpg,Purple_Plus_Dots_4.jpg,Blue_Circle_Stripes_1.jpg,right,663.929999999702,true,NA,true
4rdDBc2c,3e9vauv7czrnvucm8noapw1mqoqyaq,3jrjswsmqlyrsou4q928k5rrpwx3eo,4rdDBc2c,2020-0188,2020-06-04,15:45:53,16:06:41,NA,incomplete,28,number,1,1,right,Blue_Circle_Stripes_4.jpg,Green_Star_Stripes_2.jpg,Purple_Triangle_Dots_4.jpg,right,913.3400000000838,true,NA,true
4rdDBc2c,3e9vauv7czrnvucm8noapw1mqoqyaq,3jrjswsmqlyrsou4q928k5rrpwx3eo,4rdDBc2c,2020-0188,2020-06-04,15:45:53,16:06:41,NA,incomplete,29,number,1,1,left,Red_Circle_Stripes_4.jpg,Purple_Plus_Grid_4.jpg,Blue_Star_Stripes_2.jpg,left,725.9900000004563,true,NA,true
4rdDBc2c,3e9vauv7czrnvucm8noapw1mqoqyaq,3jrjswsmqlyrsou4q928k5rrpwx3eo,4rdDBc2c,2020-0188,2020-06-04,15:45:53,16:06:41,NA,incomplete,30,number,1,1,right,Red_Star_Stripes_3.jpg,Blue_Triangle_Stripes_2.jpg,Purple_Plus_Grid_3.jpg,right,674.6350000003586,true,NA,true
4rdDBc2c,3e9vauv7czrnvucm8noapw1mqoqyaq,3jrjswsmqlyrsou4q928k5rrpwx3eo,4rdDBc2c,2020-0188,2020-06-04,15:45:53,16:06:41,NA,incomplete,31,number,1,1,left,Green_Triangle_Grid_3.jpg,Purple_Plus_Dots_3.jpg,Red_Circle_Grid_2.jpg,left,587.2450000002282,true,NA,true
4rdDBc2c,3e9vauv7czrnvucm8noapw1mqoqyaq,3jrjswsmqlyrsou4q928k5rrpwx3eo,4rdDBc2c,2020-0188,2020-06-04,15:45:53,16:06:41,NA,incomplete,32,number,1,1,right,Green_Plus_Dots_2.jpg,Purple_Star_Dots_1.jpg,Blue_Triangle_Grid_2.jpg,right,588.304999999702,true,NA,true
4rdDBc2c,3e9vauv7czrnvucm8noapw1mqoqyaq,3jrjswsmqlyrsou4q928k5rrpwx3eo,4rdDBc2c,2020-0188,2020-06-04,15:45:53,16:06:41,NA,incomplete,33,number,1,1,right,Green_Triangle_Chess_3.jpg,Red_Circle_Chess_1.jpg,Purple_Star_Dots_3.jpg,right,592.0149999997811,true,NA,true
4rdDBc2c,3e9vauv7czrnvucm8noapw1mqoqyaq,3jrjswsmqlyrsou4q928k5rrpwx3eo,4rdDBc2c,2020-0188,2020-06-04,15:45:53,16:06:41,NA,incomplete,34,number,1,0,right,Red_Plus_Dots_1.jpg,Green_Star_Dots_3.jpg,Blue_Circle_Chess_1.jpg,right,730.3999999999069,true,NA,true
4rdDBc2c,3e9vauv7czrnvucm8noapw1mqoqyaq,3jrjswsmqlyrsou4q928k5rrpwx3eo,4rdDBc2c,2020-0188,2020-06-04,15:45:53,16:06:41,NA,incomplete,35,number,1,1,left,Green_Triangle_Stripes_3.jpg,Blue_Star_Chess_3.jpg,Red_Plus_Stripes_1.jpg,left,656.3450000003213,true,NA,true
4rdDBc2c,3e9vauv7czrnvucm8noapw1mqoqyaq,3jrjswsmqlyrsou4q928k5rrpwx3eo,4rdDBc2c,2020-0188,2020-06-04,15:45:53,16:06:41,NA,incomplete,36,number,1,0,left,Purple_Star_Stripes_1.jpg,Green_Plus_Grid_1.jpg,Blue_Triangle_Stripes_3.jpg,left,798.5749999997206,true,NA,true
4rdDBc2c,3e9vauv7czrnvucm8noapw1mqoqyaq,3jrjswsmqlyrsou4q928k5rrpwx3eo,4rdDBc2c,2020-0188,2020-06-04,15:45:53,16:06:41,NA,incomplete,37,number,1,0,right,Purple_Triangle_Stripes_4.jpg,Blue_Star_Stripes_3.jpg,Green_Plus_Dots_4.jpg,right,953.6849999999395,true,NA,true
4rdDBc2c,3e9vauv7czrnvucm8noapw1mqoqyaq,3jrjswsmqlyrsou4q928k5rrpwx3eo,4rdDBc2c,2020-0188,2020-06-04,15:45:53,16:06:41,NA,incomplete,38,number,1,1,right,Green_Triangle_Stripes_2.jpg,Red_Circle_Stripes_4.jpg,Purple_Star_Chess_2.jpg,left,900.6600000002654,false,NA,true
4rdDBc2c,3e9vauv7czrnvucm8noapw1mqoqyaq,3jrjswsmqlyrsou4q928k5rrpwx3eo,4rdDBc2c,2020-0188,2020-06-04,15:45:53,16:06:41,NA,incomplete,39,number,1,1,right,Purple_Star_Stripes_4.jpg,Green_Plus_Stripes_2.jpg,Red_Circle_Chess_4.jpg,left,947.0849999998463,false,NA,true
4rdDBc2c,3e9vauv7czrnvucm8noapw1mqoqyaq,3jrjswsmqlyrsou4q928k5rrpwx3eo,4rdDBc2c,2020-0188,2020-06-04,15:45:53,16:06:41,NA,incomplete,0,filling,0,1,right,Green_Triangle_Grid_2.jpg,Red_Plus_Stripes_2.jpg,Blue_Star_Grid_1.jpg,left,977.9949999996461,false,low,false
4rdDBc2c,3e9vauv7czrnvucm8noapw1mqoqyaq,3jrjswsmqlyrsou4q928k5rrpwx3eo,4rdDBc2c,2020-0188,2020-06-04,15:45:53,16:06:41,NA,incomplete,1,filling,0,1,right,Red_Triangle_Stripes_2.jpg,Green_Plus_Grid_2.jpg,Purple_Circle_Stripes_1.jpg,right,828.6250000001164,true,low,false
4rdDBc2c,3e9vauv7czrnvucm8noapw1mqoqyaq,3jrjswsmqlyrsou4q928k5rrpwx3eo,4rdDBc2c,2020-0188,2020-06-04,15:45:53,16:06:41,NA,incomplete,2,filling,0,1,right,Blue_Plus_Grid_3.jpg,Red_Triangle_Stripes_3.jpg,Green_Circle_Grid_4.jpg,right,996.4399999998277,true,low,false
4rdDBc2c,3e9vauv7czrnvucm8noapw1mqoqyaq,3jrjswsmqlyrsou4q928k5rrpwx3eo,4rdDBc2c,2020-0188,2020-06-04,15:45:53,16:06:41,NA,incomplete,3,filling,0,1,right,Red_Plus_Grid_1.jpg,Green_Triangle_Dots_1.jpg,Blue_Circle_Grid_3.jpg,right,896.7000000001863,true,low,false
4rdDBc2c,3e9vauv7czrnvucm8noapw1mqoqyaq,3jrjswsmqlyrsou4q928k5rrpwx3eo,4rdDBc2c,2020-0188,2020-06-04,15:45:53,16:06:41,NA,incomplete,4,filling,0,1,left,Red_Plus_Stripes_4.jpg,Purple_Circle_Stripes_1.jpg,Blue_Star_Grid_4.jpg,left,774.0050000002375,true,low,false
4rdDBc2c,3e9vauv7czrnvucm8noapw1mqoqyaq,3jrjswsmqlyrsou4q928k5rrpwx3eo,4rdDBc2c,2020-0188,2020-06-04,15:45:53,16:06:41,NA,incomplete,5,filling,0,0,left,Purple_Star_Chess_1.jpg,Red_Plus_Chess_4.jpg,Green_Circle_Stripes_1.jpg,left,912.7000000003027,true,low,false
4rdDBc2c,3e9vauv7czrnvucm8noapw1mqoqyaq,3jrjswsmqlyrsou4q928k5rrpwx3eo,4rdDBc2c,2020-0188,2020-06-04,15:45:53,16:06:41,NA,incomplete,6,filling,0,0,right,Red_Circle_Stripes_1.jpg,Blue_Triangle_Chess_1.jpg,Green_Star_Stripes_4.jpg,right,911.410000000149,true,low,false
4rdDBc2c,3e9vauv7czrnvucm8noapw1mqoqyaq,3jrjswsmqlyrsou4q928k5rrpwx3eo,4rdDBc2c,2020-0188,2020-06-04,15:45:53,16:06:41,NA,incomplete,7,filling,0,1,left,Red_Triangle_Dots_2.jpg,Green_Circle_Dots_1.jpg,Purple_Star_Grid_2.jpg,right,828.675000000163,false,low,false
4rdDBc2c,3e9vauv7czrnvucm8noapw1mqoqyaq,3jrjswsmqlyrsou4q928k5rrpwx3eo,4rdDBc2c,2020-0188,2020-06-04,15:45:53,16:06:41,NA,incomplete,8,filling,0,1,left,Purple_Star_Stripes_1.jpg,Green_Plus_Stripes_3.jpg,Blue_Triangle_Dots_1.jpg,right,908.9200000002747,false,low,false
4rdDBc2c,3e9vauv7czrnvucm8noapw1mqoqyaq,3jrjswsmqlyrsou4q928k5rrpwx3eo,4rdDBc2c,2020-0188,2020-06-04,15:45:53,16:06:41,NA,incomplete,9,filling,0,1,left,Red_Plus_Stripes_1.jpg,Blue_Triangle_Stripes_2.jpg,Green_Star_Grid_1.jpg,left,906.2400000002235,true,low,false
4rdDBc2c,3e9vauv7czrnvucm8noapw1mqoqyaq,3jrjswsmqlyrsou4q928k5rrpwx3eo,4rdDBc2c,2020-0188,2020-06-04,15:45:53,16:06:41,NA,incomplete,10,filling,0,1,right,Red_Plus_Chess_3.jpg,Blue_Circle_Stripes_3.jpg,Purple_Star_Chess_1.jpg,right,904.2100000001956,true,low,false
4rdDBc2c,3e9vauv7czrnvucm8noapw1mqoqyaq,3jrjswsmqlyrsou4q928k5rrpwx3eo,4rdDBc2c,2020-0188,2020-06-04,15:45:53,16:06:41,NA,incomplete,11,filling,0,1,left,Green_Plus_Stripes_4.jpg,Purple_Triangle_Stripes_3.jpg,Blue_Circle_Chess_4.jpg,left,958.5250000000233,true,low,false
4rdDBc2c,3e9vauv7czrnvucm8noapw1mqoqyaq,3jrjswsmqlyrsou4q928k5rrpwx3eo,4rdDBc2c,2020-0188,2020-06-04,15:45:53,16:06:41,NA,incomplete,12,filling,0,1,left,Red_Plus_Chess_4.jpg,Purple_Triangle_Chess_1.jpg,Blue_Star_Grid_4.jpg,left,873.3400000002002,true,low,false
4rdDBc2c,3e9vauv7czrnvucm8noapw1mqoqyaq,3jrjswsmqlyrsou4q928k5rrpwx3eo,4rdDBc2c,2020-0188,2020-06-04,15:45:53,16:06:41,NA,incomplete,13,filling,0,1,left,Green_Star_Dots_2.jpg,Red_Circle_Dots_3.jpg,Blue_Triangle_Grid_2.jpg,left,1000.3150000002934,true,low,false
4rdDBc2c,3e9vauv7czrnvucm8noapw1mqoqyaq,3jrjswsmqlyrsou4q928k5rrpwx3eo,4rdDBc2c,2020-0188,2020-06-04,15:45:53,16:06:41,NA,incomplete,14,filling,0,1,left,Red_Circle_Dots_1.jpg,Purple_Triangle_Dots_3.jpg,Green_Plus_Grid_1.jpg,left,873.8449999999721,true,low,false
4rdDBc2c,3e9vauv7czrnvucm8noapw1mqoqyaq,3jrjswsmqlyrsou4q928k5rrpwx3eo,4rdDBc2c,2020-0188,2020-06-04,15:45:53,16:06:41,NA,incomplete,15,filling,0,1,left,Purple_Plus_Chess_2.jpg,Red_Triangle_Chess_3.jpg,Green_Circle_Dots_2.jpg,left,929.4100000002654,true,low,false
4rdDBc2c,3e9vauv7czrnvucm8noapw1mqoqyaq,3jrjswsmqlyrsou4q928k5rrpwx3eo,4rdDBc2c,2020-0188,2020-06-04,15:45:53,16:06:41,NA,incomplete,16,filling,0,1,left,Blue_Circle_Dots_2.jpg,Purple_Star_Dots_3.jpg,Red_Triangle_Chess_2.jpg,left,918.7899999998044,true,low,false
4rdDBc2c,3e9vauv7czrnvucm8noapw1mqoqyaq,3jrjswsmqlyrsou4q928k5rrpwx3eo,4rdDBc2c,2020-0188,2020-06-04,15:45:53,16:06:41,NA,incomplete,17,filling,0,0,right,Blue_Triangle_Dots_1.jpg,Purple_Circle_Stripes_1.jpg,Red_Star_Dots_3.jpg,right,956.2600000000093,true,low,false
4rdDBc2c,3e9vauv7czrnvucm8noapw1mqoqyaq,3jrjswsmqlyrsou4q928k5rrpwx3eo,4rdDBc2c,2020-0188,2020-06-04,15:45:53,16:06:41,NA,incomplete,18,filling,0,1,left,Purple_Circle_Dots_4.jpg,Green_Triangle_Dots_3.jpg,Red_Star_Chess_4.jpg,left,823.6299999998882,true,low,false
4rdDBc2c,3e9vauv7czrnvucm8noapw1mqoqyaq,3jrjswsmqlyrsou4q928k5rrpwx3eo,4rdDBc2c,2020-0188,2020-06-04,15:45:53,16:06:41,NA,incomplete,19,filling,0,1,left,Green_Circle_Stripes_1.jpg,Blue_Plus_Stripes_2.jpg,Purple_Triangle_Chess_1.jpg,right,863.7749999997905,false,low,false
4rdDBc2c,3e9vauv7czrnvucm8noapw1mqoqyaq,3jrjswsmqlyrsou4q928k5rrpwx3eo,4rdDBc2c,2020-0188,2020-06-04,15:45:53,16:06:41,NA,incomplete,20,filling,0,0,right,Blue_Circle_Chess_2.jpg,Red_Plus_Grid_2.jpg,Green_Star_Chess_1.jpg,right,1055.6500000002561,true,low,false
4rdDBc2c,3e9vauv7czrnvucm8noapw1mqoqyaq,3jrjswsmqlyrsou4q928k5rrpwx3eo,4rdDBc2c,2020-0188,2020-06-04,15:45:53,16:06:41,NA,incomplete,21,filling,0,1,left,Blue_Circle_Grid_3.jpg,Purple_Star_Grid_4.jpg,Green_Plus_Chess_3.jpg,left,1047.3399999999674,true,low,false
4rdDBc2c,3e9vauv7czrnvucm8noapw1mqoqyaq,3jrjswsmqlyrsou4q928k5rrpwx3eo,4rdDBc2c,2020-0188,2020-06-04,15:45:53,16:06:41,NA,incomplete,22,filling,0,1,left,Purple_Circle_Grid_4.jpg,Green_Star_Grid_3.jpg,Red_Triangle_Chess_4.jpg,left,1119.4599999998463,true,low,false
4rdDBc2c,3e9vauv7czrnvucm8noapw1mqoqyaq,3jrjswsmqlyrsou4q928k5rrpwx3eo,4rdDBc2c,2020-0188,2020-06-04,15:45:53,16:06:41,NA,incomplete,23,filling,0,1,right,Blue_Plus_Dots_1.jpg,Red_Star_Chess_1.jpg,Green_Circle_Dots_4.jpg,right,883.574999999837,true,low,false
4rdDBc2c,3e9vauv7czrnvucm8noapw1mqoqyaq,3jrjswsmqlyrsou4q928k5rrpwx3eo,4rdDBc2c,2020-0188,2020-06-04,15:45:53,16:06:41,NA,incomplete,24,filling,0,1,left,Blue_Plus_Chess_2.jpg,Purple_Circle_Chess_1.jpg,Red_Triangle_Grid_2.jpg,left,1018.3649999999907,true,low,false
4rdDBc2c,3e9vauv7czrnvucm8noapw1mqoqyaq,3jrjswsmqlyrsou4q928k5rrpwx3eo,4rdDBc2c,2020-0188,2020-06-04,15:45:53,16:06:41,NA,incomplete,25,filling,0,1,right,Purple_Circle_Chess_2.jpg,Green_Star_Stripes_2.jpg,Blue_Triangle_Chess_4.jpg,right,874.2950000000419,true,low,false
4rdDBc2c,3e9vauv7czrnvucm8noapw1mqoqyaq,3jrjswsmqlyrsou4q928k5rrpwx3eo,4rdDBc2c,2020-0188,2020-06-04,15:45:53,16:06:41,NA,incomplete,26,filling,0,0,right,Purple_Triangle_Stripes_2.jpg,Red_Star_Grid_2.jpg,Blue_Plus_Stripes_3.jpg,right,1002.4749999998603,true,low,false
4rdDBc2c,3e9vauv7czrnvucm8noapw1mqoqyaq,3jrjswsmqlyrsou4q928k5rrpwx3eo,4rdDBc2c,2020-0188,2020-06-04,15:45:53,16:06:41,NA,incomplete,27,filling,0,1,left,Red_Triangle_Stripes_1.jpg,Blue_Circle_Stripes_3.jpg,Green_Plus_Dots_1.jpg,left,701.0300000002608,true,low,false
4rdDBc2c,3e9vauv7czrnvucm8noapw1mqoqyaq,3jrjswsmqlyrsou4q928k5rrpwx3eo,4rdDBc2c,2020-0188,2020-06-04,15:45:53,16:06:41,NA,incomplete,28,filling,0,1,left,Purple_Circle_Grid_1.jpg,Red_Star_Grid_2.jpg,Green_Triangle_Dots_1.jpg,left,843.0750000003027,true,low,false
4rdDBc2c,3e9vauv7czrnvucm8noapw1mqoqyaq,3jrjswsmqlyrsou4q928k5rrpwx3eo,4rdDBc2c,2020-0188,2020-06-04,15:45:53,16:06:41,NA,incomplete,29,filling,0,1,left,Red_Star_Dots_3.jpg,Green_Plus_Dots_2.jpg,Blue_Circle_Stripes_3.jpg,left,923.6900000000605,true,low,false
4rdDBc2c,3e9vauv7czrnvucm8noapw1mqoqyaq,3jrjswsmqlyrsou4q928k5rrpwx3eo,4rdDBc2c,2020-0188,2020-06-04,15:45:53,16:06:41,NA,incomplete,30,number,1,1,right,Purple_Triangle_Dots_1.jpg,Green_Star_Dots_3.jpg,Blue_Circle_Chess_1.jpg,left,960.2049999998417,false,low,false
4rdDBc2c,3e9vauv7czrnvucm8noapw1mqoqyaq,3jrjswsmqlyrsou4q928k5rrpwx3eo,4rdDBc2c,2020-0188,2020-06-04,15:45:53,16:06:41,NA,incomplete,31,number,1,1,left,Red_Triangle_Stripes_3.jpg,Purple_Circle_Chess_3.jpg,Blue_Star_Stripes_1.jpg,right,963.0949999996228,false,low,false
4rdDBc2c,3e9vauv7czrnvucm8noapw1mqoqyaq,3jrjswsmqlyrsou4q928k5rrpwx3eo,4rdDBc2c,2020-0188,2020-06-04,15:45:53,16:06:41,NA,incomplete,32,number,1,0,right,Blue_Plus_Stripes_1.jpg,Purple_Circle_Stripes_4.jpg,Red_Triangle_Grid_1.jpg,right,1160.0600000001723,true,low,false
4rdDBc2c,3e9vauv7czrnvucm8noapw1mqoqyaq,3jrjswsmqlyrsou4q928k5rrpwx3eo,4rdDBc2c,2020-0188,2020-06-04,15:45:53,16:06:41,NA,incomplete,33,number,1,0,left,Blue_Circle_Stripes_1.jpg,Purple_Triangle_Dots_1.jpg,Green_Star_Stripes_3.jpg,left,1041.9499999997206,true,low,false
4rdDBc2c,3e9vauv7czrnvucm8noapw1mqoqyaq,3jrjswsmqlyrsou4q928k5rrpwx3eo,4rdDBc2c,2020-0188,2020-06-04,15:45:53,16:06:41,NA,incomplete,34,number,1,1,right,Blue_Triangle_Chess_2.jpg,Green_Plus_Chess_3.jpg,Red_Circle_Dots_2.jpg,left,939.024999999674,false,low,false
4rdDBc2c,3e9vauv7czrnvucm8noapw1mqoqyaq,3jrjswsmqlyrsou4q928k5rrpwx3eo,4rdDBc2c,2020-0188,2020-06-04,15:45:53,16:06:41,NA,incomplete,35,number,1,0,left,Green_Plus_Dots_2.jpg,Blue_Triangle_Stripes_2.jpg,Red_Star_Dots_4.jpg,right,966.800000000163,false,low,false
4rdDBc2c,3e9vauv7czrnvucm8noapw1mqoqyaq,3jrjswsmqlyrsou4q928k5rrpwx3eo,4rdDBc2c,2020-0188,2020-06-04,15:45:53,16:06:41,NA,incomplete,36,number,1,1,left,Blue_Circle_Stripes_2.jpg,Red_Plus_Dots_2.jpg,Green_Star_Stripes_4.jpg,right,921.4799999999814,false,low,false
4rdDBc2c,3e9vauv7czrnvucm8noapw1mqoqyaq,3jrjswsmqlyrsou4q928k5rrpwx3eo,4rdDBc2c,2020-0188,2020-06-04,15:45:53,16:06:41,NA,incomplete,37,number,1,1,left,Green_Triangle_Stripes_2.jpg,Red_Circle_Dots_2.jpg,Purple_Plus_Stripes_3.jpg,right,944.0549999999348,false,low,false
4rdDBc2c,3e9vauv7czrnvucm8noapw1mqoqyaq,3jrjswsmqlyrsou4q928k5rrpwx3eo,4rdDBc2c,2020-0188,2020-06-04,15:45:53,16:06:41,NA,incomplete,38,number,1,1,right,Red_Circle_Grid_2.jpg,Blue_Plus_Grid_3.jpg,Purple_Star_Dots_2.jpg,right,932.4799999999814,true,low,false
4rdDBc2c,3e9vauv7czrnvucm8noapw1mqoqyaq,3jrjswsmqlyrsou4q928k5rrpwx3eo,4rdDBc2c,2020-0188,2020-06-04,15:45:53,16:06:41,NA,incomplete,39,number,1,0,right,Green_Plus_Dots_2.jpg,Red_Triangle_Dots_4.jpg,Blue_Circle_Stripes_2.jpg,right,895.9950000003446,true,low,false
4rdDBc2c,3e9vauv7czrnvucm8noapw1mqoqyaq,3jrjswsmqlyrsou4q928k5rrpwx3eo,4rdDBc2c,2020-0188,2020-06-04,15:45:53,16:06:41,NA,incomplete,40,number,1,1,left,Blue_Triangle_Grid_2.jpg,Red_Star_Dots_2.jpg,Purple_Plus_Grid_3.jpg,left,582.3649999997579,true,low,false
4rdDBc2c,3e9vauv7czrnvucm8noapw1mqoqyaq,3jrjswsmqlyrsou4q928k5rrpwx3eo,4rdDBc2c,2020-0188,2020-06-04,15:45:53,16:06:41,NA,incomplete,41,number,1,1,right,Blue_Triangle_Dots_3.jpg,Purple_Star_Dots_1.jpg,Green_Plus_Stripes_3.jpg,right,674.0049999998882,true,low,false
4rdDBc2c,3e9vauv7czrnvucm8noapw1mqoqyaq,3jrjswsmqlyrsou4q928k5rrpwx3eo,4rdDBc2c,2020-0188,2020-06-04,15:45:53,16:06:41,NA,incomplete,42,number,1,1,left,Purple_Plus_Chess_2.jpg,Blue_Triangle_Stripes_2.jpg,Red_Circle_Chess_1.jpg,left,673.5200000003679,true,low,false
4rdDBc2c,3e9vauv7czrnvucm8noapw1mqoqyaq,3jrjswsmqlyrsou4q928k5rrpwx3eo,4rdDBc2c,2020-0188,2020-06-04,15:45:53,16:06:41,NA,incomplete,43,number,1,1,right,Red_Circle_Stripes_1.jpg,Green_Star_Stripes_4.jpg,Blue_Triangle_Dots_1.jpg,right,648.6600000003818,true,low,false
4rdDBc2c,3e9vauv7czrnvucm8noapw1mqoqyaq,3jrjswsmqlyrsou4q928k5rrpwx3eo,4rdDBc2c,2020-0188,2020-06-04,15:45:53,16:06:41,NA,incomplete,44,number,1,1,left,Purple_Triangle_Dots_4.jpg,Blue_Star_Chess_4.jpg,Red_Plus_Dots_1.jpg,left,665.4499999999534,true,low,false
4rdDBc2c,3e9vauv7czrnvucm8noapw1mqoqyaq,3jrjswsmqlyrsou4q928k5rrpwx3eo,4rdDBc2c,2020-0188,2020-06-04,15:45:53,16:06:41,NA,incomplete,45,number,1,1,left,Green_Triangle_Stripes_1.jpg,Blue_Plus_Grid_1.jpg,Purple_Star_Stripes_4.jpg,left,672.9099999997998,true,low,false
4rdDBc2c,3e9vauv7czrnvucm8noapw1mqoqyaq,3jrjswsmqlyrsou4q928k5rrpwx3eo,4rdDBc2c,2020-0188,2020-06-04,15:45:53,16:06:41,NA,incomplete,46,number,1,1,right,Green_Plus_Chess_2.jpg,Red_Star_Chess_3.jpg,Purple_Triangle_Dots_2.jpg,right,654.6750000002794,true,low,false
4rdDBc2c,3e9vauv7czrnvucm8noapw1mqoqyaq,3jrjswsmqlyrsou4q928k5rrpwx3eo,4rdDBc2c,2020-0188,2020-06-04,15:45:53,16:06:41,NA,incomplete,47,number,1,1,left,Blue_Plus_Stripes_3.jpg,Red_Circle_Grid_3.jpg,Purple_Star_Stripes_4.jpg,right,679.3649999999907,false,low,false
4rdDBc2c,3e9vauv7czrnvucm8noapw1mqoqyaq,3jrjswsmqlyrsou4q928k5rrpwx3eo,4rdDBc2c,2020-0188,2020-06-04,15:45:53,16:06:41,NA,incomplete,48,number,1,1,left,Blue_Circle_Grid_1.jpg,Purple_Plus_Stripes_1.jpg,Red_Star_Grid_2.jpg,left,615.3600000002189,true,low,false
4rdDBc2c,3e9vauv7czrnvucm8noapw1mqoqyaq,3jrjswsmqlyrsou4q928k5rrpwx3eo,4rdDBc2c,2020-0188,2020-06-04,15:45:53,16:06:41,NA,incomplete,49,number,1,1,right,Green_Star_Chess_1.jpg,Red_Circle_Chess_4.jpg,Purple_Triangle_Grid_1.jpg,right,784.899999999674,true,low,false
4rdDBc2c,3e9vauv7czrnvucm8noapw1mqoqyaq,3jrjswsmqlyrsou4q928k5rrpwx3eo,4rdDBc2c,2020-0188,2020-06-04,15:45:53,16:06:41,NA,incomplete,50,number,1,1,right,Blue_Plus_Grid_3.jpg,Red_Circle_Grid_2.jpg,Purple_Star_Stripes_3.jpg,right,659.6199999998789,true,low,false
4rdDBc2c,3e9vauv7czrnvucm8noapw1mqoqyaq,3jrjswsmqlyrsou4q928k5rrpwx3eo,4rdDBc2c,2020-0188,2020-06-04,15:45:53,16:06:41,NA,incomplete,51,number,1,1,right,Green_Triangle_Chess_2.jpg,Purple_Circle_Chess_3.jpg,Red_Plus_Grid_2.jpg,right,730.3550000000978,true,low,false
4rdDBc2c,3e9vauv7czrnvucm8noapw1mqoqyaq,3jrjswsmqlyrsou4q928k5rrpwx3eo,4rdDBc2c,2020-0188,2020-06-04,15:45:53,16:06:41,NA,incomplete,52,number,1,0,left,Purple_Triangle_Chess_4.jpg,Blue_Circle_Stripes_4.jpg,Green_Plus_Chess_1.jpg,left,598.7500000001164,true,low,false
4rdDBc2c,3e9vauv7czrnvucm8noapw1mqoqyaq,3jrjswsmqlyrsou4q928k5rrpwx3eo,4rdDBc2c,2020-0188,2020-06-04,15:45:53,16:06:41,NA,incomplete,53,number,1,1,right,Red_Triangle_Chess_2.jpg,Blue_Star_Chess_1.jpg,Green_Circle_Grid_2.jpg,right,619.4650000003166,true,low,false
4rdDBc2c,3e9vauv7czrnvucm8noapw1mqoqyaq,3jrjswsmqlyrsou4q928k5rrpwx3eo,4rdDBc2c,2020-0188,2020-06-04,15:45:53,16:06:41,NA,incomplete,54,number,1,1,left,Purple_Plus_Grid_2.jpg,Blue_Star_Stripes_2.jpg,Red_Triangle_Grid_1.jpg,left,564.140000000014,true,low,false
4rdDBc2c,3e9vauv7czrnvucm8noapw1mqoqyaq,3jrjswsmqlyrsou4q928k5rrpwx3eo,4rdDBc2c,2020-0188,2020-06-04,15:45:53,16:06:41,NA,incomplete,55,number,1,0,right,Green_Circle_Dots_4.jpg,Purple_Plus_Dots_2.jpg,Red_Star_Chess_4.jpg,right,607.7100000001956,true,low,false
4rdDBc2c,3e9vauv7czrnvucm8noapw1mqoqyaq,3jrjswsmqlyrsou4q928k5rrpwx3eo,4rdDBc2c,2020-0188,2020-06-04,15:45:53,16:06:41,NA,incomplete,56,number,1,1,right,Purple_Star_Chess_2.jpg,Red_Plus_Chess_3.jpg,Blue_Triangle_Dots_2.jpg,right,641.1049999996321,true,low,false
4rdDBc2c,3e9vauv7czrnvucm8noapw1mqoqyaq,3jrjswsmqlyrsou4q928k5rrpwx3eo,4rdDBc2c,2020-0188,2020-06-04,15:45:53,16:06:41,NA,incomplete,57,number,1,1,left,Purple_Star_Stripes_2.jpg,Red_Triangle_Grid_2.jpg,Green_Plus_Stripes_3.jpg,left,602.1249999998836,true,low,false
4rdDBc2c,3e9vauv7czrnvucm8noapw1mqoqyaq,3jrjswsmqlyrsou4q928k5rrpwx3eo,4rdDBc2c,2020-0188,2020-06-04,15:45:53,16:06:41,NA,incomplete,58,number,1,0,left,Blue_Star_Grid_4.jpg,Red_Circle_Chess_4.jpg,Purple_Plus_Grid_1.jpg,left,581.1049999997485,true,low,false
4rdDBc2c,3e9vauv7czrnvucm8noapw1mqoqyaq,3jrjswsmqlyrsou4q928k5rrpwx3eo,4rdDBc2c,2020-0188,2020-06-04,15:45:53,16:06:41,NA,incomplete,59,number,1,1,right,Blue_Star_Dots_2.jpg,Purple_Triangle_Dots_3.jpg,Red_Circle_Chess_2.jpg,right,631.0450000000419,true,low,false
4rdDBc2c,3e9vauv7czrnvucm8noapw1mqoqyaq,3jrjswsmqlyrsou4q928k5rrpwx3eo,4rdDBc2c,2020-0188,2020-06-04,15:45:53,16:06:41,NA,incomplete,60,filling,0,1,left,Red_Plus_Grid_3.jpg,Green_Circle_Grid_1.jpg,Purple_Star_Chess_3.jpg,right,639.5000000002328,false,low,false
4rdDBc2c,3e9vauv7czrnvucm8noapw1mqoqyaq,3jrjswsmqlyrsou4q928k5rrpwx3eo,4rdDBc2c,2020-0188,2020-06-04,15:45:53,16:06:41,NA,incomplete,61,filling,0,1,left,Purple_Circle_Stripes_3.jpg,Blue_Plus_Stripes_2.jpg,Green_Triangle_Dots_3.jpg,right,633.2849999999162,false,low,false
4rdDBc2c,3e9vauv7czrnvucm8noapw1mqoqyaq,3jrjswsmqlyrsou4q928k5rrpwx3eo,4rdDBc2c,2020-0188,2020-06-04,15:45:53,16:06:41,NA,incomplete,62,filling,0,1,right,Blue_Triangle_Stripes_4.jpg,Red_Star_Chess_4.jpg,Green_Plus_Stripes_1.jpg,right,986.3000000000466,true,low,false
4rdDBc2c,3e9vauv7czrnvucm8noapw1mqoqyaq,3jrjswsmqlyrsou4q928k5rrpwx3eo,4rdDBc2c,2020-0188,2020-06-04,15:45:53,16:06:41,NA,incomplete,63,filling,0,1,right,Green_Circle_Grid_2.jpg,Red_Triangle_Chess_2.jpg,Blue_Star_Grid_1.jpg,right,876.815000000177,true,low,false
4rdDBc2c,3e9vauv7czrnvucm8noapw1mqoqyaq,3jrjswsmqlyrsou4q928k5rrpwx3eo,4rdDBc2c,2020-0188,2020-06-04,15:45:53,16:06:41,NA,incomplete,64,filling,0,0,left,Blue_Star_Grid_2.jpg,Purple_Circle_Grid_3.jpg,Green_Triangle_Stripes_2.jpg,left,812.1350000001257,true,low,false
4rdDBc2c,3e9vauv7czrnvucm8noapw1mqoqyaq,3jrjswsmqlyrsou4q928k5rrpwx3eo,4rdDBc2c,2020-0188,2020-06-04,15:45:53,16:06:41,NA,incomplete,65,filling,0,1,right,Green_Plus_Dots_1.jpg,Blue_Star_Grid_1.jpg,Red_Triangle_Dots_3.jpg,right,805.4000000001397,true,low,false
4rdDBc2c,3e9vauv7czrnvucm8noapw1mqoqyaq,3jrjswsmqlyrsou4q928k5rrpwx3eo,4rdDBc2c,2020-0188,2020-06-04,15:45:53,16:06:41,NA,incomplete,66,filling,0,1,right,Blue_Plus_Chess_2.jpg,Purple_Triangle_Grid_2.jpg,Red_Circle_Chess_1.jpg,right,974.9500000001863,true,low,false
4rdDBc2c,3e9vauv7czrnvucm8noapw1mqoqyaq,3jrjswsmqlyrsou4q928k5rrpwx3eo,4rdDBc2c,2020-0188,2020-06-04,15:45:53,16:06:41,NA,incomplete,67,filling,0,1,left,Blue_Circle_Dots_2.jpg,Purple_Star_Dots_4.jpg,Green_Plus_Stripes_2.jpg,left,794.5300000001444,true,low,false
4rdDBc2c,3e9vauv7czrnvucm8noapw1mqoqyaq,3jrjswsmqlyrsou4q928k5rrpwx3eo,4rdDBc2c,2020-0188,2020-06-04,15:45:53,16:06:41,NA,incomplete,68,filling,0,1,right,Red_Circle_Dots_4.jpg,Green_Star_Grid_4.jpg,Purple_Triangle_Dots_2.jpg,right,787.3199999999488,true,low,false
4rdDBc2c,3e9vauv7czrnvucm8noapw1mqoqyaq,3jrjswsmqlyrsou4q928k5rrpwx3eo,4rdDBc2c,2020-0188,2020-06-04,15:45:53,16:06:41,NA,incomplete,69,filling,0,1,right,Purple_Triangle_Stripes_4.jpg,Green_Plus_Dots_4.jpg,Blue_Star_Stripes_3.jpg,right,918.1250000001164,true,low,false
4rdDBc2c,3e9vauv7czrnvucm8noapw1mqoqyaq,3jrjswsmqlyrsou4q928k5rrpwx3eo,4rdDBc2c,2020-0188,2020-06-04,15:45:53,16:06:41,NA,incomplete,70,filling,0,0,left,Purple_Plus_Stripes_4.jpg,Blue_Triangle_Stripes_1.jpg,Green_Star_Grid_4.jpg,right,827.4050000000279,false,low,false
4rdDBc2c,3e9vauv7czrnvucm8noapw1mqoqyaq,3jrjswsmqlyrsou4q928k5rrpwx3eo,4rdDBc2c,2020-0188,2020-06-04,15:45:53,16:06:41,NA,incomplete,71,filling,0,0,right,Blue_Triangle_Chess_3.jpg,Green_Star_Stripes_3.jpg,Red_Plus_Chess_1.jpg,right,1228.7250000004424,true,low,false
4rdDBc2c,3e9vauv7czrnvucm8noapw1mqoqyaq,3jrjswsmqlyrsou4q928k5rrpwx3eo,4rdDBc2c,2020-0188,2020-06-04,15:45:53,16:06:41,NA,incomplete,72,filling,0,1,right,Red_Star_Grid_1.jpg,Blue_Circle_Chess_1.jpg,Green_Triangle_Grid_3.jpg,right,1085.359999999986,true,low,false
4rdDBc2c,3e9vauv7czrnvucm8noapw1mqoqyaq,3jrjswsmqlyrsou4q928k5rrpwx3eo,4rdDBc2c,2020-0188,2020-06-04,15:45:53,16:06:41,NA,incomplete,73,filling,0,1,left,Red_Star_Dots_3.jpg,Green_Triangle_Dots_4.jpg,Purple_Circle_Grid_3.jpg,left,980.7399999999907,true,low,false
4rdDBc2c,3e9vauv7czrnvucm8noapw1mqoqyaq,3jrjswsmqlyrsou4q928k5rrpwx3eo,4rdDBc2c,2020-0188,2020-06-04,15:45:53,16:06:41,NA,incomplete,74,filling,0,1,right,Blue_Plus_Grid_3.jpg,Red_Star_Stripes_3.jpg,Purple_Triangle_Grid_1.jpg,right,999.5750000003027,true,low,false
4rdDBc2c,3e9vauv7czrnvucm8noapw1mqoqyaq,3jrjswsmqlyrsou4q928k5rrpwx3eo,4rdDBc2c,2020-0188,2020-06-04,15:45:53,16:06:41,NA,incomplete,75,filling,0,1,right,Green_Star_Stripes_1.jpg,Purple_Circle_Chess_1.jpg,Red_Triangle_Stripes_2.jpg,right,793.3749999997672,true,low,false
4rdDBc2c,3e9vauv7czrnvucm8noapw1mqoqyaq,3jrjswsmqlyrsou4q928k5rrpwx3eo,4rdDBc2c,2020-0188,2020-06-04,15:45:53,16:06:41,NA,incomplete,76,filling,0,1,left,Green_Star_Chess_2.jpg,Purple_Circle_Chess_1.jpg,Blue_Triangle_Grid_2.jpg,left,834.6850000002887,true,low,false
4rdDBc2c,3e9vauv7czrnvucm8noapw1mqoqyaq,3jrjswsmqlyrsou4q928k5rrpwx3eo,4rdDBc2c,2020-0188,2020-06-04,15:45:53,16:06:41,NA,incomplete,77,filling,0,1,left,Red_Triangle_Dots_3.jpg,Purple_Circle_Dots_1.jpg,Green_Star_Grid_3.jpg,left,1122.9649999999674,true,low,false
4rdDBc2c,3e9vauv7czrnvucm8noapw1mqoqyaq,3jrjswsmqlyrsou4q928k5rrpwx3eo,4rdDBc2c,2020-0188,2020-06-04,15:45:53,16:06:41,NA,incomplete,78,filling,0,1,right,Blue_Star_Grid_2.jpg,Red_Circle_Chess_2.jpg,Green_Triangle_Grid_4.jpg,left,1089.0700000000652,false,low,false
4rdDBc2c,3e9vauv7czrnvucm8noapw1mqoqyaq,3jrjswsmqlyrsou4q928k5rrpwx3eo,4rdDBc2c,2020-0188,2020-06-04,15:45:53,16:06:41,NA,incomplete,79,filling,0,1,left,Red_Circle_Dots_4.jpg,Purple_Star_Dots_2.jpg,Green_Plus_Stripes_4.jpg,left,1063.119999999879,true,low,false
4rdDBc2c,3e9vauv7czrnvucm8noapw1mqoqyaq,3jrjswsmqlyrsou4q928k5rrpwx3eo,4rdDBc2c,2020-0188,2020-06-04,15:45:53,16:06:41,NA,incomplete,80,filling,0,0,right,Blue_Triangle_Chess_4.jpg,Red_Plus_Stripes_4.jpg,Green_Star_Chess_1.jpg,right,1006.5449999998091,true,low,false
4rdDBc2c,3e9vauv7czrnvucm8noapw1mqoqyaq,3jrjswsmqlyrsou4q928k5rrpwx3eo,4rdDBc2c,2020-0188,2020-06-04,15:45:53,16:06:41,NA,incomplete,81,filling,0,1,right,Green_Star_Grid_2.jpg,Blue_Triangle_Stripes_2.jpg,Purple_Plus_Grid_3.jpg,right,976.2949999999255,true,low,false
4rdDBc2c,3e9vauv7czrnvucm8noapw1mqoqyaq,3jrjswsmqlyrsou4q928k5rrpwx3eo,4rdDBc2c,2020-0188,2020-06-04,15:45:53,16:06:41,NA,incomplete,82,filling,0,1,left,Green_Triangle_Stripes_3.jpg,Red_Circle_Stripes_4.jpg,Blue_Star_Grid_3.jpg,left,969.6100000001024,true,low,false
4rdDBc2c,3e9vauv7czrnvucm8noapw1mqoqyaq,3jrjswsmqlyrsou4q928k5rrpwx3eo,4rdDBc2c,2020-0188,2020-06-04,15:45:53,16:06:41,NA,incomplete,83,filling,0,1,right,Red_Triangle_Dots_4.jpg,Green_Star_Grid_4.jpg,Purple_Circle_Dots_2.jpg,right,877.9300000000512,true,low,false
4rdDBc2c,3e9vauv7czrnvucm8noapw1mqoqyaq,3jrjswsmqlyrsou4q928k5rrpwx3eo,4rdDBc2c,2020-0188,2020-06-04,15:45:53,16:06:41,NA,incomplete,84,filling,0,1,right,Green_Triangle_Chess_3.jpg,Purple_Star_Dots_3.jpg,Blue_Circle_Chess_2.jpg,right,778.6199999999953,true,low,false
4rdDBc2c,3e9vauv7czrnvucm8noapw1mqoqyaq,3jrjswsmqlyrsou4q928k5rrpwx3eo,4rdDBc2c,2020-0188,2020-06-04,15:45:53,16:06:41,NA,incomplete,85,filling,0,1,right,Red_Star_Grid_1.jpg,Blue_Plus_Chess_1.jpg,Green_Triangle_Grid_2.jpg,right,1023.0550000000512,true,low,false
4rdDBc2c,3e9vauv7czrnvucm8noapw1mqoqyaq,3jrjswsmqlyrsou4q928k5rrpwx3eo,4rdDBc2c,2020-0188,2020-06-04,15:45:53,16:06:41,NA,incomplete,86,filling,0,1,left,Red_Circle_Stripes_3.jpg,Blue_Star_Stripes_2.jpg,Purple_Plus_Dots_3.jpg,left,864.475000000326,true,low,false
4rdDBc2c,3e9vauv7czrnvucm8noapw1mqoqyaq,3jrjswsmqlyrsou4q928k5rrpwx3eo,4rdDBc2c,2020-0188,2020-06-04,15:45:53,16:06:41,NA,incomplete,87,filling,0,1,right,Blue_Circle_Dots_4.jpg,Purple_Plus_Stripes_4.jpg,Green_Star_Dots_3.jpg,right,919.1599999999162,true,low,false
4rdDBc2c,3e9vauv7czrnvucm8noapw1mqoqyaq,3jrjswsmqlyrsou4q928k5rrpwx3eo,4rdDBc2c,2020-0188,2020-06-04,15:45:53,16:06:41,NA,incomplete,88,filling,0,1,right,Purple_Plus_Stripes_4.jpg,Blue_Triangle_Grid_4.jpg,Red_Star_Stripes_3.jpg,right,949.2199999999721,true,low,false
4rdDBc2c,3e9vauv7czrnvucm8noapw1mqoqyaq,3jrjswsmqlyrsou4q928k5rrpwx3eo,4rdDBc2c,2020-0188,2020-06-04,15:45:53,16:06:41,NA,incomplete,89,filling,0,1,right,Purple_Triangle_Grid_3.jpg,Blue_Plus_Stripes_3.jpg,Green_Circle_Grid_1.jpg,right,896.0400000000373,true,low,false
4rdDBc2c,3e9vauv7czrnvucm8noapw1mqoqyaq,3jrjswsmqlyrsou4q928k5rrpwx3eo,4rdDBc2c,2020-0188,2020-06-04,15:45:53,16:06:41,NA,incomplete,90,number,1,1,left,Red_Plus_Chess_4.jpg,Purple_Circle_Stripes_4.jpg,Green_Triangle_Chess_3.jpg,right,871.0649999998277,false,low,false
4rdDBc2c,3e9vauv7czrnvucm8noapw1mqoqyaq,3jrjswsmqlyrsou4q928k5rrpwx3eo,4rdDBc2c,2020-0188,2020-06-04,15:45:53,16:06:41,NA,incomplete,91,number,1,0,left,Green_Triangle_Dots_4.jpg,Red_Circle_Chess_4.jpg,Purple_Plus_Dots_1.jpg,right,1094.805000000284,false,low,false
4rdDBc2c,3e9vauv7czrnvucm8noapw1mqoqyaq,3jrjswsmqlyrsou4q928k5rrpwx3eo,4rdDBc2c,2020-0188,2020-06-04,15:45:53,16:06:41,NA,incomplete,92,number,1,1,left,Red_Plus_Dots_4.jpg,Blue_Triangle_Chess_4.jpg,Green_Star_Dots_3.jpg,right,996.0900000000838,false,low,false
4rdDBc2c,3e9vauv7czrnvucm8noapw1mqoqyaq,3jrjswsmqlyrsou4q928k5rrpwx3eo,4rdDBc2c,2020-0188,2020-06-04,15:45:53,16:06:41,NA,incomplete,93,number,1,1,right,Red_Circle_Chess_4.jpg,Purple_Triangle_Chess_3.jpg,Blue_Plus_Grid_4.jpg,left,1013.1349999997765,false,low,false
4rdDBc2c,3e9vauv7czrnvucm8noapw1mqoqyaq,3jrjswsmqlyrsou4q928k5rrpwx3eo,4rdDBc2c,2020-0188,2020-06-04,15:45:53,16:06:41,NA,incomplete,94,number,1,1,right,Purple_Triangle_Grid_4.jpg,Green_Star_Grid_2.jpg,Blue_Circle_Chess_4.jpg,right,672.3750000001164,true,low,false
4rdDBc2c,3e9vauv7czrnvucm8noapw1mqoqyaq,3jrjswsmqlyrsou4q928k5rrpwx3eo,4rdDBc2c,2020-0188,2020-06-04,15:45:53,16:06:41,NA,incomplete,95,number,1,1,right,Blue_Plus_Grid_1.jpg,Green_Circle_Grid_4.jpg,Red_Triangle_Dots_1.jpg,right,734.8699999997625,true,low,false
4rdDBc2c,3e9vauv7czrnvucm8noapw1mqoqyaq,3jrjswsmqlyrsou4q928k5rrpwx3eo,4rdDBc2c,2020-0188,2020-06-04,15:45:53,16:06:41,NA,incomplete,96,number,1,0,right,Red_Star_Grid_1.jpg,Blue_Circle_Grid_3.jpg,Green_Plus_Dots_1.jpg,right,819.3849999997765,true,low,false
4rdDBc2c,3e9vauv7czrnvucm8noapw1mqoqyaq,3jrjswsmqlyrsou4q928k5rrpwx3eo,4rdDBc2c,2020-0188,2020-06-04,15:45:53,16:06:41,NA,incomplete,97,number,1,0,left,Red_Circle_Chess_1.jpg,Green_Star_Dots_1.jpg,Purple_Plus_Chess_4.jpg,left,557.2750000000233,true,low,false
4rdDBc2c,3e9vauv7czrnvucm8noapw1mqoqyaq,3jrjswsmqlyrsou4q928k5rrpwx3eo,4rdDBc2c,2020-0188,2020-06-04,15:45:53,16:06:41,NA,incomplete,98,number,1,1,left,Purple_Star_Dots_1.jpg,Blue_Triangle_Stripes_1.jpg,Green_Plus_Dots_4.jpg,left,553.1300000002375,true,low,false
4rdDBc2c,3e9vauv7czrnvucm8noapw1mqoqyaq,3jrjswsmqlyrsou4q928k5rrpwx3eo,4rdDBc2c,2020-0188,2020-06-04,15:45:53,16:06:41,NA,incomplete,99,number,1,1,right,Purple_Circle_Stripes_1.jpg,Blue_Star_Stripes_4.jpg,Green_Triangle_Dots_1.jpg,right,597.0999999999767,true,low,false
4rdDBc2c,3e9vauv7czrnvucm8noapw1mqoqyaq,3jrjswsmqlyrsou4q928k5rrpwx3eo,4rdDBc2c,2020-0188,2020-06-04,15:45:53,16:06:41,NA,incomplete,100,number,1,1,left,Red_Star_Stripes_4.jpg,Purple_Plus_Chess_4.jpg,Green_Circle_Stripes_3.jpg,left,934.1699999999255,true,low,false
4rdDBc2c,3e9vauv7czrnvucm8noapw1mqoqyaq,3jrjswsmqlyrsou4q928k5rrpwx3eo,4rdDBc2c,2020-0188,2020-06-04,15:45:53,16:06:41,NA,incomplete,101,number,1,1,left,Red_Triangle_Stripes_2.jpg,Green_Circle_Chess_2.jpg,Blue_Star_Stripes_1.jpg,left,619.6249999998836,true,low,false
4rdDBc2c,3e9vauv7czrnvucm8noapw1mqoqyaq,3jrjswsmqlyrsou4q928k5rrpwx3eo,4rdDBc2c,2020-0188,2020-06-04,15:45:53,16:06:41,NA,incomplete,102,number,1,1,right,Blue_Plus_Stripes_3.jpg,Red_Circle_Stripes_2.jpg,Green_Triangle_Dots_3.jpg,right,595.5199999997858,true,low,false
4rdDBc2c,3e9vauv7czrnvucm8noapw1mqoqyaq,3jrjswsmqlyrsou4q928k5rrpwx3eo,4rdDBc2c,2020-0188,2020-06-04,15:45:53,16:06:41,NA,incomplete,103,number,1,1,right,Green_Circle_Grid_4.jpg,Purple_Star_Grid_3.jpg,Blue_Triangle_Stripes_4.jpg,right,950.8000000000466,true,low,false
4rdDBc2c,3e9vauv7czrnvucm8noapw1mqoqyaq,3jrjswsmqlyrsou4q928k5rrpwx3eo,4rdDBc2c,2020-0188,2020-06-04,15:45:53,16:06:41,NA,incomplete,104,number,1,1,left,Purple_Triangle_Stripes_2.jpg,Red_Plus_Chess_2.jpg,Green_Circle_Stripes_3.jpg,left,650.9550000000745,true,low,false
4rdDBc2c,3e9vauv7czrnvucm8noapw1mqoqyaq,3jrjswsmqlyrsou4q928k5rrpwx3eo,4rdDBc2c,2020-0188,2020-06-04,15:45:53,16:06:41,NA,incomplete,105,number,1,1,left,Red_Star_Grid_4.jpg,Green_Plus_Stripes_4.jpg,Purple_Triangle_Grid_1.jpg,left,619.7799999999115,true,low,false
4rdDBc2c,3e9vauv7czrnvucm8noapw1mqoqyaq,3jrjswsmqlyrsou4q928k5rrpwx3eo,4rdDBc2c,2020-0188,2020-06-04,15:45:53,16:06:41,NA,incomplete,106,number,1,1,left,Green_Star_Grid_2.jpg,Purple_Circle_Chess_2.jpg,Blue_Triangle_Grid_4.jpg,left,669.214999999851,true,low,false
4rdDBc2c,3e9vauv7czrnvucm8noapw1mqoqyaq,3jrjswsmqlyrsou4q928k5rrpwx3eo,4rdDBc2c,2020-0188,2020-06-04,15:45:53,16:06:41,NA,incomplete,107,number,1,0,left,Red_Star_Grid_2.jpg,Green_Triangle_Dots_2.jpg,Purple_Circle_Grid_3.jpg,left,627.3249999999534,true,low,false
4rdDBc2c,3e9vauv7czrnvucm8noapw1mqoqyaq,3jrjswsmqlyrsou4q928k5rrpwx3eo,4rdDBc2c,2020-0188,2020-06-04,15:45:53,16:06:41,NA,incomplete,108,number,1,1,right,Red_Star_Chess_3.jpg,Blue_Plus_Chess_4.jpg,Purple_Circle_Grid_3.jpg,right,700.8849999997765,true,low,false
4rdDBc2c,3e9vauv7czrnvucm8noapw1mqoqyaq,3jrjswsmqlyrsou4q928k5rrpwx3eo,4rdDBc2c,2020-0188,2020-06-04,15:45:53,16:06:41,NA,incomplete,109,number,1,1,right,Green_Circle_Stripes_1.jpg,Blue_Triangle_Stripes_2.jpg,Red_Plus_Chess_1.jpg,right,722.949999999837,true,low,false
4rdDBc2c,3e9vauv7czrnvucm8noapw1mqoqyaq,3jrjswsmqlyrsou4q928k5rrpwx3eo,4rdDBc2c,2020-0188,2020-06-04,15:45:53,16:06:41,NA,incomplete,110,number,1,0,left,Blue_Star_Stripes_4.jpg,Red_Circle_Chess_4.jpg,Green_Triangle_Stripes_1.jpg,left,662.8900000001304,true,low,false
4rdDBc2c,3e9vauv7czrnvucm8noapw1mqoqyaq,3jrjswsmqlyrsou4q928k5rrpwx3eo,4rdDBc2c,2020-0188,2020-06-04,15:45:53,16:06:41,NA,incomplete,111,number,1,1,right,Red_Triangle_Dots_3.jpg,Blue_Star_Dots_1.jpg,Purple_Plus_Grid_3.jpg,right,583.3499999998603,true,low,false
4rdDBc2c,3e9vauv7czrnvucm8noapw1mqoqyaq,3jrjswsmqlyrsou4q928k5rrpwx3eo,4rdDBc2c,2020-0188,2020-06-04,15:45:53,16:06:41,NA,incomplete,112,number,1,0,left,Purple_Triangle_Stripes_1.jpg,Red_Star_Dots_1.jpg,Green_Circle_Stripes_2.jpg,left,595.3499999999767,true,low,false
4rdDBc2c,3e9vauv7czrnvucm8noapw1mqoqyaq,3jrjswsmqlyrsou4q928k5rrpwx3eo,4rdDBc2c,2020-0188,2020-06-04,15:45:53,16:06:41,NA,incomplete,113,number,1,1,right,Purple_Star_Grid_3.jpg,Red_Plus_Grid_4.jpg,Blue_Circle_Stripes_3.jpg,right,724.6700000000419,true,low,false
4rdDBc2c,3e9vauv7czrnvucm8noapw1mqoqyaq,3jrjswsmqlyrsou4q928k5rrpwx3eo,4rdDBc2c,2020-0188,2020-06-04,15:45:53,16:06:41,NA,incomplete,114,number,1,0,left,Red_Plus_Chess_3.jpg,Blue_Triangle_Grid_3.jpg,Green_Circle_Chess_4.jpg,left,698.9349999999395,true,low,false
4rdDBc2c,3e9vauv7czrnvucm8noapw1mqoqyaq,3jrjswsmqlyrsou4q928k5rrpwx3eo,4rdDBc2c,2020-0188,2020-06-04,15:45:53,16:06:41,NA,incomplete,115,number,1,1,left,Green_Triangle_Chess_4.jpg,Red_Plus_Grid_4.jpg,Purple_Circle_Chess_1.jpg,left,593.815000000177,true,low,false
4rdDBc2c,3e9vauv7czrnvucm8noapw1mqoqyaq,3jrjswsmqlyrsou4q928k5rrpwx3eo,4rdDBc2c,2020-0188,2020-06-04,15:45:53,16:06:41,NA,incomplete,116,number,1,1,right,Green_Plus_Stripes_1.jpg,Blue_Circle_Stripes_2.jpg,Purple_Triangle_Grid_1.jpg,right,707.1199999999953,true,low,false
4rdDBc2c,3e9vauv7czrnvucm8noapw1mqoqyaq,3jrjswsmqlyrsou4q928k5rrpwx3eo,4rdDBc2c,2020-0188,2020-06-04,15:45:53,16:06:41,NA,incomplete,117,number,1,0,right,Red_Triangle_Chess_3.jpg,Green_Plus_Chess_4.jpg,Purple_Star_Grid_3.jpg,right,961.6599999999162,true,low,false
4rdDBc2c,3e9vauv7czrnvucm8noapw1mqoqyaq,3jrjswsmqlyrsou4q928k5rrpwx3eo,4rdDBc2c,2020-0188,2020-06-04,15:45:53,16:06:41,NA,incomplete,118,number,1,1,left,Red_Star_Grid_1.jpg,Purple_Circle_Dots_1.jpg,Blue_Plus_Grid_3.jpg,left,717.3350000001956,true,low,false
4rdDBc2c,3e9vauv7czrnvucm8noapw1mqoqyaq,3jrjswsmqlyrsou4q928k5rrpwx3eo,4rdDBc2c,2020-0188,2020-06-04,15:45:53,16:06:41,NA,incomplete,119,number,1,1,right,Green_Triangle_Dots_3.jpg,Purple_Star_Dots_1.jpg,Blue_Plus_Grid_3.jpg,right,753.8799999997718,true,low,false
4rdDBc2c,3e9vauv7czrnvucm8noapw1mqoqyaq,3jrjswsmqlyrsou4q928k5rrpwx3eo,4rdDBc2c,2020-0188,2020-06-04,15:45:53,16:06:41,NA,incomplete,120,race,2,0,left,A_M_01.jpg,A_F_05.jpg,C_M_15.jpg,NA,NA,NA,low,false
4rdDBc2c,3e9vauv7czrnvucm8noapw1mqoqyaq,3jrjswsmqlyrsou4q928k5rrpwx3eo,4rdDBc2c,2020-0188,2020-06-04,15:45:53,16:06:41,NA,incomplete,121,race,2,1,right,C_M_13.jpg,A_M_10.jpg,C_F_01.jpg,right,841.2699999999022,true,low,false
4rdDBc2c,3e9vauv7czrnvucm8noapw1mqoqyaq,3jrjswsmqlyrsou4q928k5rrpwx3eo,4rdDBc2c,2020-0188,2020-06-04,15:45:53,16:06:41,NA,incomplete,122,race,2,1,left,C_F_14.jpg,C_M_02.jpg,A_F_05.jpg,left,969.7949999999255,true,low,false
4rdDBc2c,3e9vauv7czrnvucm8noapw1mqoqyaq,3jrjswsmqlyrsou4q928k5rrpwx3eo,4rdDBc2c,2020-0188,2020-06-04,15:45:53,16:06:41,NA,incomplete,123,race,2,1,left,A_F_14.jpg,A_M_04.jpg,C_F_07.jpg,left,899.7899999999208,true,low,false
4rdDBc2c,3e9vauv7czrnvucm8noapw1mqoqyaq,3jrjswsmqlyrsou4q928k5rrpwx3eo,4rdDBc2c,2020-0188,2020-06-04,15:45:53,16:06:41,NA,incomplete,124,race,2,1,right,C_F_04.jpg,A_F_15.jpg,C_M_13.jpg,right,795.539999999688,true,low,false
4rdDBc2c,3e9vauv7czrnvucm8noapw1mqoqyaq,3jrjswsmqlyrsou4q928k5rrpwx3eo,4rdDBc2c,2020-0188,2020-06-04,15:45:53,16:06:41,NA,incomplete,125,race,2,0,right,A_M_07.jpg,C_M_05.jpg,A_F_09.jpg,right,892.9050000001444,true,low,false
4rdDBc2c,3e9vauv7czrnvucm8noapw1mqoqyaq,3jrjswsmqlyrsou4q928k5rrpwx3eo,4rdDBc2c,2020-0188,2020-06-04,15:45:53,16:06:41,NA,incomplete,126,race,2,1,left,C_F_09.jpg,C_M_01.jpg,A_F_08.jpg,left,739.9099999997998,true,low,false
4rdDBc2c,3e9vauv7czrnvucm8noapw1mqoqyaq,3jrjswsmqlyrsou4q928k5rrpwx3eo,4rdDBc2c,2020-0188,2020-06-04,15:45:53,16:06:41,NA,incomplete,127,race,2,0,left,C_F_01.jpg,C_M_10.jpg,A_F_09.jpg,left,960.4349999999395,true,low,false
4rdDBc2c,3e9vauv7czrnvucm8noapw1mqoqyaq,3jrjswsmqlyrsou4q928k5rrpwx3eo,4rdDBc2c,2020-0188,2020-06-04,15:45:53,16:06:41,NA,incomplete,128,race,2,1,left,C_F_06.jpg,C_M_03.jpg,A_F_12.jpg,left,874.714999999851,true,low,false
4rdDBc2c,3e9vauv7czrnvucm8noapw1mqoqyaq,3jrjswsmqlyrsou4q928k5rrpwx3eo,4rdDBc2c,2020-0188,2020-06-04,15:45:53,16:06:41,NA,incomplete,129,race,2,1,left,C_F_01.jpg,C_M_09.jpg,A_F_15.jpg,left,898.6099999997532,true,low,false
4rdDBc2c,3e9vauv7czrnvucm8noapw1mqoqyaq,3jrjswsmqlyrsou4q928k5rrpwx3eo,4rdDBc2c,2020-0188,2020-06-04,15:45:53,16:06:41,NA,incomplete,130,race,2,0,right,A_M_09.jpg,C_M_05.jpg,A_F_16.jpg,right,1088.240000000107,true,low,false
4rdDBc2c,3e9vauv7czrnvucm8noapw1mqoqyaq,3jrjswsmqlyrsou4q928k5rrpwx3eo,4rdDBc2c,2020-0188,2020-06-04,15:45:53,16:06:41,NA,incomplete,131,race,2,1,right,C_F_13.jpg,A_F_16.jpg,C_M_01.jpg,right,1126.0999999998603,true,low,false
4rdDBc2c,3e9vauv7czrnvucm8noapw1mqoqyaq,3jrjswsmqlyrsou4q928k5rrpwx3eo,4rdDBc2c,2020-0188,2020-06-04,15:45:53,16:06:41,NA,incomplete,132,race,2,1,right,C_M_08.jpg,A_M_12.jpg,C_F_15.jpg,right,940.4050000002608,true,low,false
4rdDBc2c,3e9vauv7czrnvucm8noapw1mqoqyaq,3jrjswsmqlyrsou4q928k5rrpwx3eo,4rdDBc2c,2020-0188,2020-06-04,15:45:53,16:06:41,NA,incomplete,133,race,2,1,left,A_F_12.jpg,A_M_05.jpg,C_F_13.jpg,left,1032.3249999997206,true,low,false
4rdDBc2c,3e9vauv7czrnvucm8noapw1mqoqyaq,3jrjswsmqlyrsou4q928k5rrpwx3eo,4rdDBc2c,2020-0188,2020-06-04,15:45:53,16:06:41,NA,incomplete,134,race,2,0,right,C_F_08.jpg,A_F_09.jpg,C_M_06.jpg,right,967.7850000002654,true,low,false
4rdDBc2c,3e9vauv7czrnvucm8noapw1mqoqyaq,3jrjswsmqlyrsou4q928k5rrpwx3eo,4rdDBc2c,2020-0188,2020-06-04,15:45:53,16:06:41,NA,incomplete,135,race,2,1,left,A_F_07.jpg,A_M_06.jpg,C_F_13.jpg,left,851.9949999999953,true,low,false
4rdDBc2c,3e9vauv7czrnvucm8noapw1mqoqyaq,3jrjswsmqlyrsou4q928k5rrpwx3eo,4rdDBc2c,2020-0188,2020-06-04,15:45:53,16:06:41,NA,incomplete,136,race,2,1,right,C_M_12.jpg,A_M_01.jpg,C_F_13.jpg,right,956.0500000002794,true,low,false
4rdDBc2c,3e9vauv7czrnvucm8noapw1mqoqyaq,3jrjswsmqlyrsou4q928k5rrpwx3eo,4rdDBc2c,2020-0188,2020-06-04,15:45:53,16:06:41,NA,incomplete,137,race,2,0,right,A_F_01.jpg,C_F_03.jpg,A_M_11.jpg,right,886.3800000003539,true,low,false
4rdDBc2c,3e9vauv7czrnvucm8noapw1mqoqyaq,3jrjswsmqlyrsou4q928k5rrpwx3eo,4rdDBc2c,2020-0188,2020-06-04,15:45:53,16:06:41,NA,incomplete,138,race,2,1,left,C_M_05.jpg,C_F_03.jpg,A_M_09.jpg,left,837.1649999999208,true,low,false
4rdDBc2c,3e9vauv7czrnvucm8noapw1mqoqyaq,3jrjswsmqlyrsou4q928k5rrpwx3eo,4rdDBc2c,2020-0188,2020-06-04,15:45:53,16:06:41,NA,incomplete,139,race,2,0,right,A_F_02.jpg,C_F_15.jpg,A_M_03.jpg,right,838.2300000003306,true,low,false
4rdDBc2c,3e9vauv7czrnvucm8noapw1mqoqyaq,3jrjswsmqlyrsou4q928k5rrpwx3eo,4rdDBc2c,2020-0188,2020-06-04,15:45:53,16:06:41,NA,incomplete,140,gender,3,1,right,C_F_08.jpg,C_M_05.jpg,A_F_13.jpg,left,982.2700000000186,false,low,false
4rdDBc2c,3e9vauv7czrnvucm8noapw1mqoqyaq,3jrjswsmqlyrsou4q928k5rrpwx3eo,4rdDBc2c,2020-0188,2020-06-04,15:45:53,16:06:41,NA,incomplete,141,gender,3,0,right,C_F_06.jpg,C_M_07.jpg,A_F_14.jpg,right,880.6250000002328,true,low,false
4rdDBc2c,3e9vauv7czrnvucm8noapw1mqoqyaq,3jrjswsmqlyrsou4q928k5rrpwx3eo,4rdDBc2c,2020-0188,2020-06-04,15:45:53,16:06:41,NA,incomplete,142,gender,3,1,right,C_F_05.jpg,C_M_02.jpg,A_F_16.jpg,left,855.5150000001304,false,low,false
4rdDBc2c,3e9vauv7czrnvucm8noapw1mqoqyaq,3jrjswsmqlyrsou4q928k5rrpwx3eo,4rdDBc2c,2020-0188,2020-06-04,15:45:53,16:06:41,NA,incomplete,143,gender,3,1,left,C_M_10.jpg,A_M_13.jpg,C_F_14.jpg,right,976.1349999997765,false,low,false
4rdDBc2c,3e9vauv7czrnvucm8noapw1mqoqyaq,3jrjswsmqlyrsou4q928k5rrpwx3eo,4rdDBc2c,2020-0188,2020-06-04,15:45:53,16:06:41,NA,incomplete,144,gender,3,1,right,C_F_05.jpg,C_M_08.jpg,A_F_16.jpg,right,730.1799999999348,true,low,false
4rdDBc2c,3e9vauv7czrnvucm8noapw1mqoqyaq,3jrjswsmqlyrsou4q928k5rrpwx3eo,4rdDBc2c,2020-0188,2020-06-04,15:45:53,16:06:41,NA,incomplete,145,gender,3,1,right,A_F_10.jpg,A_M_11.jpg,C_F_13.jpg,right,919.0499999999302,true,low,false
4rdDBc2c,3e9vauv7czrnvucm8noapw1mqoqyaq,3jrjswsmqlyrsou4q928k5rrpwx3eo,4rdDBc2c,2020-0188,2020-06-04,15:45:53,16:06:41,NA,incomplete,146,gender,3,1,left,A_F_05.jpg,C_F_15.jpg,A_M_13.jpg,left,829.194999999716,true,low,false
4rdDBc2c,3e9vauv7czrnvucm8noapw1mqoqyaq,3jrjswsmqlyrsou4q928k5rrpwx3eo,4rdDBc2c,2020-0188,2020-06-04,15:45:53,16:06:41,NA,incomplete,147,gender,3,1,left,C_M_03.jpg,A_M_09.jpg,C_F_12.jpg,left,1037.7600000001257,true,low,false
4rdDBc2c,3e9vauv7czrnvucm8noapw1mqoqyaq,3jrjswsmqlyrsou4q928k5rrpwx3eo,4rdDBc2c,2020-0188,2020-06-04,15:45:53,16:06:41,NA,incomplete,148,gender,3,1,left,C_F_02.jpg,A_F_12.jpg,C_M_03.jpg,left,749.4999999998836,true,low,false
4rdDBc2c,3e9vauv7czrnvucm8noapw1mqoqyaq,3jrjswsmqlyrsou4q928k5rrpwx3eo,4rdDBc2c,2020-0188,2020-06-04,15:45:53,16:06:41,NA,incomplete,149,gender,3,1,right,A_M_16.jpg,A_F_14.jpg,C_M_04.jpg,right,577.9050000001444,true,low,false
4rdDBc2c,3e9vauv7czrnvucm8noapw1mqoqyaq,3jrjswsmqlyrsou4q928k5rrpwx3eo,4rdDBc2c,2020-0188,2020-06-04,15:45:53,16:06:41,NA,incomplete,150,gender,3,1,left,A_F_10.jpg,C_F_14.jpg,A_M_15.jpg,left,549.7050000003073,true,low,false
4rdDBc2c,3e9vauv7czrnvucm8noapw1mqoqyaq,3jrjswsmqlyrsou4q928k5rrpwx3eo,4rdDBc2c,2020-0188,2020-06-04,15:45:53,16:06:41,NA,incomplete,151,gender,3,1,right,C_F_13.jpg,C_M_08.jpg,A_F_02.jpg,right,578.0100000002421,true,low,false
4rdDBc2c,3e9vauv7czrnvucm8noapw1mqoqyaq,3jrjswsmqlyrsou4q928k5rrpwx3eo,4rdDBc2c,2020-0188,2020-06-04,15:45:53,16:06:41,NA,incomplete,152,gender,3,1,left,A_M_15.jpg,C_M_04.jpg,A_F_12.jpg,left,748.9900000001071,true,low,false
4rdDBc2c,3e9vauv7czrnvucm8noapw1mqoqyaq,3jrjswsmqlyrsou4q928k5rrpwx3eo,4rdDBc2c,2020-0188,2020-06-04,15:45:53,16:06:41,NA,incomplete,153,gender,3,1,right,C_F_11.jpg,C_M_08.jpg,A_F_04.jpg,right,889.2550000001211,true,low,false
4rdDBc2c,3e9vauv7czrnvucm8noapw1mqoqyaq,3jrjswsmqlyrsou4q928k5rrpwx3eo,4rdDBc2c,2020-0188,2020-06-04,15:45:53,16:06:41,NA,incomplete,154,gender,3,1,left,A_M_07.jpg,C_M_04.jpg,A_F_10.jpg,left,791.5450000000419,true,low,false
4rdDBc2c,3e9vauv7czrnvucm8noapw1mqoqyaq,3jrjswsmqlyrsou4q928k5rrpwx3eo,4rdDBc2c,2020-0188,2020-06-04,15:45:53,16:06:41,NA,incomplete,155,gender,3,0,left,A_F_06.jpg,C_F_08.jpg,A_M_10.jpg,left,753.5400000001537,true,low,false
4rdDBc2c,3e9vauv7czrnvucm8noapw1mqoqyaq,3jrjswsmqlyrsou4q928k5rrpwx3eo,4rdDBc2c,2020-0188,2020-06-04,15:45:53,16:06:41,NA,incomplete,156,gender,3,1,left,A_M_15.jpg,C_M_02.jpg,A_F_06.jpg,left,677.8400000003166,true,low,false
4rdDBc2c,3e9vauv7czrnvucm8noapw1mqoqyaq,3jrjswsmqlyrsou4q928k5rrpwx3eo,4rdDBc2c,2020-0188,2020-06-04,15:45:53,16:06:41,NA,incomplete,157,gender,3,1,left,A_F_14.jpg,C_F_04.jpg,A_M_01.jpg,left,814.2150000003166,true,low,false
4rdDBc2c,3e9vauv7czrnvucm8noapw1mqoqyaq,3jrjswsmqlyrsou4q928k5rrpwx3eo,4rdDBc2c,2020-0188,2020-06-04,15:45:53,16:06:41,NA,incomplete,158,gender,3,0,left,A_F_05.jpg,C_F_02.jpg,A_M_15.jpg,left,711.5899999999674,true,low,false
4rdDBc2c,3e9vauv7czrnvucm8noapw1mqoqyaq,3jrjswsmqlyrsou4q928k5rrpwx3eo,4rdDBc2c,2020-0188,2020-06-04,15:45:53,16:06:41,NA,incomplete,159,gender,3,1,left,C_F_16.jpg,A_F_09.jpg,C_M_07.jpg,left,899.7599999997765,true,low,false
4rdDBc2c,3e9vauv7czrnvucm8noapw1mqoqyaq,3jrjswsmqlyrsou4q928k5rrpwx3eo,4rdDBc2c,2020-0188,2020-06-04,15:45:53,16:06:41,NA,incomplete,160,race,2,0,left,C_F_15.jpg,C_M_05.jpg,A_F_02.jpg,right,833.4700000000885,false,low,false
4rdDBc2c,3e9vauv7czrnvucm8noapw1mqoqyaq,3jrjswsmqlyrsou4q928k5rrpwx3eo,4rdDBc2c,2020-0188,2020-06-04,15:45:53,16:06:41,NA,incomplete,161,race,2,1,left,A_M_16.jpg,A_F_14.jpg,C_M_09.jpg,right,827.1350000000093,false,low,false
4rdDBc2c,3e9vauv7czrnvucm8noapw1mqoqyaq,3jrjswsmqlyrsou4q928k5rrpwx3eo,4rdDBc2c,2020-0188,2020-06-04,15:45:53,16:06:41,NA,incomplete,162,race,2,1,left,C_M_07.jpg,C_F_13.jpg,A_M_15.jpg,right,749.5650000000605,false,low,false
4rdDBc2c,3e9vauv7czrnvucm8noapw1mqoqyaq,3jrjswsmqlyrsou4q928k5rrpwx3eo,4rdDBc2c,2020-0188,2020-06-04,15:45:53,16:06:41,NA,incomplete,163,race,2,1,left,A_M_10.jpg,A_F_11.jpg,C_M_13.jpg,left,704.774999999674,true,low,false
4rdDBc2c,3e9vauv7czrnvucm8noapw1mqoqyaq,3jrjswsmqlyrsou4q928k5rrpwx3eo,4rdDBc2c,2020-0188,2020-06-04,15:45:53,16:06:41,NA,incomplete,164,race,2,0,right,C_M_08.jpg,A_M_06.jpg,C_F_09.jpg,right,630.4749999999767,true,low,false
4rdDBc2c,3e9vauv7czrnvucm8noapw1mqoqyaq,3jrjswsmqlyrsou4q928k5rrpwx3eo,4rdDBc2c,2020-0188,2020-06-04,15:45:53,16:06:41,NA,incomplete,165,race,2,1,right,A_M_01.jpg,C_M_10.jpg,A_F_15.jpg,right,623.6250000002328,true,low,false
4rdDBc2c,3e9vauv7czrnvucm8noapw1mqoqyaq,3jrjswsmqlyrsou4q928k5rrpwx3eo,4rdDBc2c,2020-0188,2020-06-04,15:45:53,16:06:41,NA,incomplete,166,race,2,1,right,C_M_08.jpg,A_M_05.jpg,C_F_07.jpg,right,849.1800000001676,true,low,false
4rdDBc2c,3e9vauv7czrnvucm8noapw1mqoqyaq,3jrjswsmqlyrsou4q928k5rrpwx3eo,4rdDBc2c,2020-0188,2020-06-04,15:45:53,16:06:41,NA,incomplete,167,race,2,0,right,A_F_02.jpg,C_F_04.jpg,A_M_09.jpg,right,617.4050000000279,true,low,false
4rdDBc2c,3e9vauv7czrnvucm8noapw1mqoqyaq,3jrjswsmqlyrsou4q928k5rrpwx3eo,4rdDBc2c,2020-0188,2020-06-04,15:45:53,16:06:41,NA,incomplete,168,race,2,1,left,A_F_16.jpg,A_M_02.jpg,C_F_09.jpg,left,697.9949999999953,true,low,false
4rdDBc2c,3e9vauv7czrnvucm8noapw1mqoqyaq,3jrjswsmqlyrsou4q928k5rrpwx3eo,4rdDBc2c,2020-0188,2020-06-04,15:45:53,16:06:41,NA,incomplete,169,race,2,1,left,C_F_14.jpg,C_M_02.jpg,A_F_13.jpg,right,839.9699999999721,false,low,false
4rdDBc2c,3e9vauv7czrnvucm8noapw1mqoqyaq,3jrjswsmqlyrsou4q928k5rrpwx3eo,4rdDBc2c,2020-0188,2020-06-04,15:45:53,16:06:41,NA,incomplete,170,race,2,1,right,A_F_05.jpg,C_F_06.jpg,A_M_16.jpg,right,1090.2600000003586,true,low,false
4rdDBc2c,3e9vauv7czrnvucm8noapw1mqoqyaq,3jrjswsmqlyrsou4q928k5rrpwx3eo,4rdDBc2c,2020-0188,2020-06-04,15:45:53,16:06:41,NA,incomplete,171,race,2,1,left,C_M_04.jpg,C_F_09.jpg,A_M_07.jpg,right,790.9850000001024,false,low,false
4rdDBc2c,3e9vauv7czrnvucm8noapw1mqoqyaq,3jrjswsmqlyrsou4q928k5rrpwx3eo,4rdDBc2c,2020-0188,2020-06-04,15:45:53,16:06:41,NA,incomplete,172,race,2,1,right,A_F_12.jpg,C_F_05.jpg,A_M_08.jpg,left,857.2850000000326,false,low,false
4rdDBc2c,3e9vauv7czrnvucm8noapw1mqoqyaq,3jrjswsmqlyrsou4q928k5rrpwx3eo,4rdDBc2c,2020-0188,2020-06-04,15:45:53,16:06:41,NA,incomplete,173,race,2,1,right,A_F_03.jpg,C_F_14.jpg,A_M_01.jpg,right,1008.9699999998556,true,low,false
4rdDBc2c,3e9vauv7czrnvucm8noapw1mqoqyaq,3jrjswsmqlyrsou4q928k5rrpwx3eo,4rdDBc2c,2020-0188,2020-06-04,15:45:53,16:06:41,NA,incomplete,174,race,2,1,left,A_M_06.jpg,A_F_13.jpg,C_M_01.jpg,left,803.2449999999953,true,low,false
4rdDBc2c,3e9vauv7czrnvucm8noapw1mqoqyaq,3jrjswsmqlyrsou4q928k5rrpwx3eo,4rdDBc2c,2020-0188,2020-06-04,15:45:53,16:06:41,NA,incomplete,175,race,2,1,right,C_F_08.jpg,A_F_07.jpg,C_M_09.jpg,right,716.3550000000978,true,low,false
4rdDBc2c,3e9vauv7czrnvucm8noapw1mqoqyaq,3jrjswsmqlyrsou4q928k5rrpwx3eo,4rdDBc2c,2020-0188,2020-06-04,15:45:53,16:06:41,NA,incomplete,176,race,2,0,left,A_M_06.jpg,A_F_12.jpg,C_M_07.jpg,left,914.5450000000419,true,low,false
4rdDBc2c,3e9vauv7czrnvucm8noapw1mqoqyaq,3jrjswsmqlyrsou4q928k5rrpwx3eo,4rdDBc2c,2020-0188,2020-06-04,15:45:53,16:06:41,NA,incomplete,177,race,2,1,left,A_F_02.jpg,A_M_11.jpg,C_F_10.jpg,left,848.2850000000326,true,low,false
4rdDBc2c,3e9vauv7czrnvucm8noapw1mqoqyaq,3jrjswsmqlyrsou4q928k5rrpwx3eo,4rdDBc2c,2020-0188,2020-06-04,15:45:53,16:06:41,NA,incomplete,178,race,2,1,right,A_M_10.jpg,C_M_04.jpg,A_F_05.jpg,right,855.3849999997765,true,low,false
4rdDBc2c,3e9vauv7czrnvucm8noapw1mqoqyaq,3jrjswsmqlyrsou4q928k5rrpwx3eo,4rdDBc2c,2020-0188,2020-06-04,15:45:53,16:06:41,NA,incomplete,179,race,2,1,left,C_F_16.jpg,C_M_11.jpg,A_F_03.jpg,left,903.1399999998976,true,low,false
4rdDBc2c,3e9vauv7czrnvucm8noapw1mqoqyaq,3jrjswsmqlyrsou4q928k5rrpwx3eo,4rdDBc2c,2020-0188,2020-06-04,15:45:53,16:06:41,NA,incomplete,180,gender,3,1,right,C_M_03.jpg,C_F_10.jpg,A_M_14.jpg,left,894.4399999999441,false,low,false
4rdDBc2c,3e9vauv7czrnvucm8noapw1mqoqyaq,3jrjswsmqlyrsou4q928k5rrpwx3eo,4rdDBc2c,2020-0188,2020-06-04,15:45:53,16:06:41,NA,incomplete,181,gender,3,1,right,A_M_12.jpg,A_F_08.jpg,C_M_02.jpg,left,1083.520000000135,false,low,false
4rdDBc2c,3e9vauv7czrnvucm8noapw1mqoqyaq,3jrjswsmqlyrsou4q928k5rrpwx3eo,4rdDBc2c,2020-0188,2020-06-04,15:45:53,16:06:41,NA,incomplete,182,gender,3,1,left,A_F_12.jpg,C_F_11.jpg,A_M_13.jpg,left,1130.2299999997485,true,low,false
4rdDBc2c,3e9vauv7czrnvucm8noapw1mqoqyaq,3jrjswsmqlyrsou4q928k5rrpwx3eo,4rdDBc2c,2020-0188,2020-06-04,15:45:53,16:06:41,NA,incomplete,183,gender,3,1,right,C_F_02.jpg,C_M_03.jpg,A_F_14.jpg,left,1215.5999999998603,false,low,false
4rdDBc2c,3e9vauv7czrnvucm8noapw1mqoqyaq,3jrjswsmqlyrsou4q928k5rrpwx3eo,4rdDBc2c,2020-0188,2020-06-04,15:45:53,16:06:41,NA,incomplete,184,gender,3,1,right,A_M_15.jpg,A_F_13.jpg,C_M_01.jpg,left,888.5549999999348,false,low,false
4rdDBc2c,3e9vauv7czrnvucm8noapw1mqoqyaq,3jrjswsmqlyrsou4q928k5rrpwx3eo,4rdDBc2c,2020-0188,2020-06-04,15:45:53,16:06:41,NA,incomplete,185,gender,3,1,right,A_M_01.jpg,A_F_03.jpg,C_M_12.jpg,left,943.0799999998417,false,low,false
4rdDBc2c,3e9vauv7czrnvucm8noapw1mqoqyaq,3jrjswsmqlyrsou4q928k5rrpwx3eo,4rdDBc2c,2020-0188,2020-06-04,15:45:53,16:06:41,NA,incomplete,186,gender,3,0,right,C_M_14.jpg,C_F_10.jpg,A_M_09.jpg,left,923.4000000001397,false,low,false
4rdDBc2c,3e9vauv7czrnvucm8noapw1mqoqyaq,3jrjswsmqlyrsou4q928k5rrpwx3eo,4rdDBc2c,2020-0188,2020-06-04,15:45:53,16:06:41,NA,incomplete,187,gender,3,1,left,C_M_05.jpg,A_M_03.jpg,C_F_10.jpg,right,1193.1499999999069,false,low,false
4rdDBc2c,3e9vauv7czrnvucm8noapw1mqoqyaq,3jrjswsmqlyrsou4q928k5rrpwx3eo,4rdDBc2c,2020-0188,2020-06-04,15:45:53,16:06:41,NA,incomplete,188,gender,3,1,left,C_M_02.jpg,A_M_04.jpg,C_F_10.jpg,right,666.875,false,low,false
4rdDBc2c,3e9vauv7czrnvucm8noapw1mqoqyaq,3jrjswsmqlyrsou4q928k5rrpwx3eo,4rdDBc2c,2020-0188,2020-06-04,15:45:53,16:06:41,NA,incomplete,189,gender,3,1,left,A_M_06.jpg,C_M_12.jpg,A_F_11.jpg,right,914.4700000002049,false,low,false
4rdDBc2c,3e9vauv7czrnvucm8noapw1mqoqyaq,3jrjswsmqlyrsou4q928k5rrpwx3eo,4rdDBc2c,2020-0188,2020-06-04,15:45:53,16:06:41,NA,incomplete,190,gender,3,0,right,C_M_13.jpg,C_F_11.jpg,A_M_03.jpg,right,856.6300000003539,true,low,false
4rdDBc2c,3e9vauv7czrnvucm8noapw1mqoqyaq,3jrjswsmqlyrsou4q928k5rrpwx3eo,4rdDBc2c,2020-0188,2020-06-04,15:45:53,16:06:41,NA,incomplete,191,gender,3,1,left,A_F_08.jpg,C_F_14.jpg,A_M_16.jpg,left,1078.594999999972,true,low,false
4rdDBc2c,3e9vauv7czrnvucm8noapw1mqoqyaq,3jrjswsmqlyrsou4q928k5rrpwx3eo,4rdDBc2c,2020-0188,2020-06-04,15:45:53,16:06:41,NA,incomplete,192,gender,3,1,left,A_M_07.jpg,C_M_04.jpg,A_F_03.jpg,left,933.8800000001211,true,low,false
4rdDBc2c,3e9vauv7czrnvucm8noapw1mqoqyaq,3jrjswsmqlyrsou4q928k5rrpwx3eo,4rdDBc2c,2020-0188,2020-06-04,15:45:53,16:06:41,NA,incomplete,193,gender,3,1,left,C_F_08.jpg,A_F_04.jpg,C_M_01.jpg,left,882.7450000001118,true,low,false
4rdDBc2c,3e9vauv7czrnvucm8noapw1mqoqyaq,3jrjswsmqlyrsou4q928k5rrpwx3eo,4rdDBc2c,2020-0188,2020-06-04,15:45:53,16:06:41,NA,incomplete,194,gender,3,1,right,A_M_03.jpg,A_F_10.jpg,C_M_11.jpg,right,856.7650000001304,true,low,false
4rdDBc2c,3e9vauv7czrnvucm8noapw1mqoqyaq,3jrjswsmqlyrsou4q928k5rrpwx3eo,4rdDBc2c,2020-0188,2020-06-04,15:45:53,16:06:41,NA,incomplete,195,gender,3,0,left,A_M_03.jpg,C_M_11.jpg,A_F_09.jpg,left,969.0499999995809,true,low,false
4rdDBc2c,3e9vauv7czrnvucm8noapw1mqoqyaq,3jrjswsmqlyrsou4q928k5rrpwx3eo,4rdDBc2c,2020-0188,2020-06-04,15:45:53,16:06:41,NA,incomplete,196,gender,3,1,left,A_M_15.jpg,C_M_04.jpg,A_F_05.jpg,left,691.8850000000093,true,low,false
4rdDBc2c,3e9vauv7czrnvucm8noapw1mqoqyaq,3jrjswsmqlyrsou4q928k5rrpwx3eo,4rdDBc2c,2020-0188,2020-06-04,15:45:53,16:06:41,NA,incomplete,197,gender,3,1,left,C_M_03.jpg,A_M_04.jpg,C_F_14.jpg,left,754.5500000002794,true,low,false
4rdDBc2c,3e9vauv7czrnvucm8noapw1mqoqyaq,3jrjswsmqlyrsou4q928k5rrpwx3eo,4rdDBc2c,2020-0188,2020-06-04,15:45:53,16:06:41,NA,incomplete,198,gender,3,1,left,A_F_07.jpg,C_F_14.jpg,A_M_05.jpg,left,885.7699999997858,true,low,false
4rdDBc2c,3e9vauv7czrnvucm8noapw1mqoqyaq,3jrjswsmqlyrsou4q928k5rrpwx3eo,4rdDBc2c,2020-0188,2020-06-04,15:45:53,16:06:41,NA,incomplete,199,gender,3,0,left,C_F_06.jpg,A_F_07.jpg,C_M_11.jpg,left,651.2299999999814,true,low,false
4rdDBc2c,3e9vauv7czrnvucm8noapw1mqoqyaq,3jrjswsmqlyrsou4q928k5rrpwx3eo,4rdDBc2c,2020-0188,2020-06-04,15:45:53,16:06:41,NA,incomplete,200,race,2,1,left,C_F_09.jpg,C_M_08.jpg,A_F_15.jpg,right,595.6999999999534,false,low,false
4rdDBc2c,3e9vauv7czrnvucm8noapw1mqoqyaq,3jrjswsmqlyrsou4q928k5rrpwx3eo,4rdDBc2c,2020-0188,2020-06-04,15:45:53,16:06:41,NA,incomplete,201,race,2,1,left,C_M_06.jpg,C_F_10.jpg,A_M_11.jpg,left,646.7049999998417,true,low,false
4rdDBc2c,3e9vauv7czrnvucm8noapw1mqoqyaq,3jrjswsmqlyrsou4q928k5rrpwx3eo,4rdDBc2c,2020-0188,2020-06-04,15:45:53,16:06:41,NA,incomplete,202,race,2,1,right,A_M_12.jpg,C_M_10.jpg,A_F_04.jpg,right,991.8049999999348,true,low,false
4rdDBc2c,3e9vauv7czrnvucm8noapw1mqoqyaq,3jrjswsmqlyrsou4q928k5rrpwx3eo,4rdDBc2c,2020-0188,2020-06-04,15:45:53,16:06:41,NA,incomplete,203,race,2,1,right,C_M_12.jpg,A_M_07.jpg,C_F_15.jpg,right,952.3850000000093,true,low,false
4rdDBc2c,3e9vauv7czrnvucm8noapw1mqoqyaq,3jrjswsmqlyrsou4q928k5rrpwx3eo,4rdDBc2c,2020-0188,2020-06-04,15:45:53,16:06:41,NA,incomplete,204,race,2,1,left,A_M_12.jpg,A_F_13.jpg,C_M_08.jpg,left,741.7249999998603,true,low,false
4rdDBc2c,3e9vauv7czrnvucm8noapw1mqoqyaq,3jrjswsmqlyrsou4q928k5rrpwx3eo,4rdDBc2c,2020-0188,2020-06-04,15:45:53,16:06:41,NA,incomplete,205,race,2,1,right,C_M_03.jpg,A_M_14.jpg,C_F_09.jpg,right,930.3149999999441,true,low,false
4rdDBc2c,3e9vauv7czrnvucm8noapw1mqoqyaq,3jrjswsmqlyrsou4q928k5rrpwx3eo,4rdDBc2c,2020-0188,2020-06-04,15:45:53,16:06:41,NA,incomplete,206,race,2,1,left,A_F_01.jpg,A_M_13.jpg,C_F_06.jpg,right,893.2449999998789,false,low,false
4rdDBc2c,3e9vauv7czrnvucm8noapw1mqoqyaq,3jrjswsmqlyrsou4q928k5rrpwx3eo,4rdDBc2c,2020-0188,2020-06-04,15:45:53,16:06:41,NA,incomplete,207,race,2,0,right,A_F_02.jpg,C_F_08.jpg,A_M_16.jpg,right,843.6099999998696,true,low,false
4rdDBc2c,3e9vauv7czrnvucm8noapw1mqoqyaq,3jrjswsmqlyrsou4q928k5rrpwx3eo,4rdDBc2c,2020-0188,2020-06-04,15:45:53,16:06:41,NA,incomplete,208,race,2,1,right,A_M_11.jpg,C_M_07.jpg,A_F_08.jpg,right,852.75,true,low,false
4rdDBc2c,3e9vauv7czrnvucm8noapw1mqoqyaq,3jrjswsmqlyrsou4q928k5rrpwx3eo,4rdDBc2c,2020-0188,2020-06-04,15:45:53,16:06:41,NA,incomplete,209,race,2,1,right,C_M_05.jpg,A_M_14.jpg,C_F_15.jpg,right,885.1749999998137,true,low,false
4rdDBc2c,3e9vauv7czrnvucm8noapw1mqoqyaq,3jrjswsmqlyrsou4q928k5rrpwx3eo,4rdDBc2c,2020-0188,2020-06-04,15:45:53,16:06:41,NA,incomplete,210,race,2,1,right,A_F_06.jpg,C_F_16.jpg,A_M_02.jpg,right,851.0100000002421,true,low,false
4rdDBc2c,3e9vauv7czrnvucm8noapw1mqoqyaq,3jrjswsmqlyrsou4q928k5rrpwx3eo,4rdDBc2c,2020-0188,2020-06-04,15:45:53,16:06:41,NA,incomplete,211,race,2,1,right,C_F_05.jpg,A_F_04.jpg,C_M_09.jpg,right,946.9050000002608,true,low,false
4rdDBc2c,3e9vauv7czrnvucm8noapw1mqoqyaq,3jrjswsmqlyrsou4q928k5rrpwx3eo,4rdDBc2c,2020-0188,2020-06-04,15:45:53,16:06:41,NA,incomplete,212,race,2,1,left,C_F_05.jpg,C_M_10.jpg,A_F_15.jpg,left,904.2700000000186,true,low,false
4rdDBc2c,3e9vauv7czrnvucm8noapw1mqoqyaq,3jrjswsmqlyrsou4q928k5rrpwx3eo,4rdDBc2c,2020-0188,2020-06-04,15:45:53,16:06:41,NA,incomplete,213,race,2,0,left,C_M_05.jpg,C_F_08.jpg,A_M_01.jpg,left,901.4849999998696,true,low,false
4rdDBc2c,3e9vauv7czrnvucm8noapw1mqoqyaq,3jrjswsmqlyrsou4q928k5rrpwx3eo,4rdDBc2c,2020-0188,2020-06-04,15:45:53,16:06:41,NA,incomplete,214,race,2,1,right,C_M_09.jpg,A_M_15.jpg,C_F_14.jpg,right,818.3050000004005,true,low,false
4rdDBc2c,3e9vauv7czrnvucm8noapw1mqoqyaq,3jrjswsmqlyrsou4q928k5rrpwx3eo,4rdDBc2c,2020-0188,2020-06-04,15:45:53,16:06:41,NA,incomplete,215,race,2,1,right,C_F_12.jpg,A_F_15.jpg,C_M_01.jpg,right,836.3349999999627,true,low,false
4rdDBc2c,3e9vauv7czrnvucm8noapw1mqoqyaq,3jrjswsmqlyrsou4q928k5rrpwx3eo,4rdDBc2c,2020-0188,2020-06-04,15:45:53,16:06:41,NA,incomplete,216,race,2,1,left,A_F_15.jpg,A_M_11.jpg,C_F_12.jpg,left,772.4499999997206,true,low,false
4rdDBc2c,3e9vauv7czrnvucm8noapw1mqoqyaq,3jrjswsmqlyrsou4q928k5rrpwx3eo,4rdDBc2c,2020-0188,2020-06-04,15:45:53,16:06:41,NA,incomplete,217,race,2,1,right,C_M_06.jpg,A_M_15.jpg,C_F_02.jpg,right,743.9800000002142,true,low,false
4rdDBc2c,3e9vauv7czrnvucm8noapw1mqoqyaq,3jrjswsmqlyrsou4q928k5rrpwx3eo,4rdDBc2c,2020-0188,2020-06-04,15:45:53,16:06:41,NA,incomplete,218,race,2,1,left,C_M_05.jpg,C_F_08.jpg,A_M_12.jpg,left,941.0800000000745,true,low,false
4rdDBc2c,3e9vauv7czrnvucm8noapw1mqoqyaq,3jrjswsmqlyrsou4q928k5rrpwx3eo,4rdDBc2c,2020-0188,2020-06-04,15:45:53,16:06:41,NA,incomplete,219,race,2,1,right,A_F_11.jpg,C_F_10.jpg,A_M_05.jpg,right,833.125,true,low,false
4rdDBc2c,3e9vauv7czrnvucm8noapw1mqoqyaq,3jrjswsmqlyrsou4q928k5rrpwx3eo,4rdDBc2c,2020-0188,2020-06-04,15:45:53,16:06:41,NA,incomplete,220,gender,3,1,right,A_M_10.jpg,A_F_03.jpg,C_M_15.jpg,left,768.820000000298,false,low,false
4rdDBc2c,3e9vauv7czrnvucm8noapw1mqoqyaq,3jrjswsmqlyrsou4q928k5rrpwx3eo,4rdDBc2c,2020-0188,2020-06-04,15:45:53,16:06:41,NA,incomplete,221,gender,3,1,left,C_F_08.jpg,A_F_04.jpg,C_M_02.jpg,right,692.3900000003632,false,low,false
4rdDBc2c,3e9vauv7czrnvucm8noapw1mqoqyaq,3jrjswsmqlyrsou4q928k5rrpwx3eo,4rdDBc2c,2020-0188,2020-06-04,15:45:53,16:06:41,NA,incomplete,222,gender,3,1,right,A_M_02.jpg,A_F_12.jpg,C_M_08.jpg,right,803.7300000002142,true,low,false
4rdDBc2c,3e9vauv7czrnvucm8noapw1mqoqyaq,3jrjswsmqlyrsou4q928k5rrpwx3eo,4rdDBc2c,2020-0188,2020-06-04,15:45:53,16:06:41,NA,incomplete,223,gender,3,0,right,C_F_03.jpg,C_M_01.jpg,A_F_12.jpg,right,972.6200000001118,true,low,false
4rdDBc2c,3e9vauv7czrnvucm8noapw1mqoqyaq,3jrjswsmqlyrsou4q928k5rrpwx3eo,4rdDBc2c,2020-0188,2020-06-04,15:45:53,16:06:41,NA,incomplete,224,gender,3,1,left,A_M_16.jpg,C_M_05.jpg,A_F_14.jpg,left,735.2550000001211,true,low,false
4rdDBc2c,3e9vauv7czrnvucm8noapw1mqoqyaq,3jrjswsmqlyrsou4q928k5rrpwx3eo,4rdDBc2c,2020-0188,2020-06-04,15:45:53,16:06:41,NA,incomplete,225,gender,3,1,right,C_M_03.jpg,C_F_15.jpg,A_M_14.jpg,right,715.1499999999069,true,low,false
4rdDBc2c,3e9vauv7czrnvucm8noapw1mqoqyaq,3jrjswsmqlyrsou4q928k5rrpwx3eo,4rdDBc2c,2020-0188,2020-06-04,15:45:53,16:06:41,NA,incomplete,226,gender,3,1,left,C_F_16.jpg,A_F_02.jpg,C_M_04.jpg,left,770.5999999998603,true,low,false
4rdDBc2c,3e9vauv7czrnvucm8noapw1mqoqyaq,3jrjswsmqlyrsou4q928k5rrpwx3eo,4rdDBc2c,2020-0188,2020-06-04,15:45:53,16:06:41,NA,incomplete,227,gender,3,1,left,A_M_11.jpg,C_M_13.jpg,A_F_09.jpg,left,917.6699999996927,true,low,false
4rdDBc2c,3e9vauv7czrnvucm8noapw1mqoqyaq,3jrjswsmqlyrsou4q928k5rrpwx3eo,4rdDBc2c,2020-0188,2020-06-04,15:45:53,16:06:41,NA,incomplete,228,gender,3,1,right,A_M_03.jpg,A_F_16.jpg,C_M_13.jpg,right,1250.6800000001676,true,low,false
4rdDBc2c,3e9vauv7czrnvucm8noapw1mqoqyaq,3jrjswsmqlyrsou4q928k5rrpwx3eo,4rdDBc2c,2020-0188,2020-06-04,15:45:53,16:06:41,NA,incomplete,229,gender,3,1,right,A_F_12.jpg,A_M_02.jpg,C_F_04.jpg,right,801.440000000177,true,low,false
4rdDBc2c,3e9vauv7czrnvucm8noapw1mqoqyaq,3jrjswsmqlyrsou4q928k5rrpwx3eo,4rdDBc2c,2020-0188,2020-06-04,15:45:53,16:06:41,NA,incomplete,230,gender,3,0,left,A_M_11.jpg,C_M_07.jpg,A_F_10.jpg,left,852.7749999999069,true,low,false
4rdDBc2c,3e9vauv7czrnvucm8noapw1mqoqyaq,3jrjswsmqlyrsou4q928k5rrpwx3eo,4rdDBc2c,2020-0188,2020-06-04,15:45:53,16:06:41,NA,incomplete,231,gender,3,1,left,C_F_02.jpg,A_F_09.jpg,C_M_13.jpg,right,892.1399999998976,false,low,false
4rdDBc2c,3e9vauv7czrnvucm8noapw1mqoqyaq,3jrjswsmqlyrsou4q928k5rrpwx3eo,4rdDBc2c,2020-0188,2020-06-04,15:45:53,16:06:41,NA,incomplete,232,gender,3,1,left,C_M_14.jpg,A_M_03.jpg,C_F_09.jpg,left,1089.7649999996647,true,low,false
4rdDBc2c,3e9vauv7czrnvucm8noapw1mqoqyaq,3jrjswsmqlyrsou4q928k5rrpwx3eo,4rdDBc2c,2020-0188,2020-06-04,15:45:53,16:06:41,NA,incomplete,233,gender,3,1,right,A_F_15.jpg,A_M_03.jpg,C_F_09.jpg,right,735.4549999998417,true,low,false
4rdDBc2c,3e9vauv7czrnvucm8noapw1mqoqyaq,3jrjswsmqlyrsou4q928k5rrpwx3eo,4rdDBc2c,2020-0188,2020-06-04,15:45:53,16:06:41,NA,incomplete,234,gender,3,0,right,C_F_03.jpg,C_M_08.jpg,A_F_11.jpg,right,861.1949999998324,true,low,false
4rdDBc2c,3e9vauv7czrnvucm8noapw1mqoqyaq,3jrjswsmqlyrsou4q928k5rrpwx3eo,4rdDBc2c,2020-0188,2020-06-04,15:45:53,16:06:41,NA,incomplete,235,gender,3,1,left,A_M_03.jpg,C_M_12.jpg,A_F_08.jpg,left,692.0399999998044,true,low,false
4rdDBc2c,3e9vauv7czrnvucm8noapw1mqoqyaq,3jrjswsmqlyrsou4q928k5rrpwx3eo,4rdDBc2c,2020-0188,2020-06-04,15:45:53,16:06:41,NA,incomplete,236,gender,3,0,left,A_M_06.jpg,C_M_04.jpg,A_F_11.jpg,left,794.3600000003353,true,low,false
4rdDBc2c,3e9vauv7czrnvucm8noapw1mqoqyaq,3jrjswsmqlyrsou4q928k5rrpwx3eo,4rdDBc2c,2020-0188,2020-06-04,15:45:53,16:06:41,NA,incomplete,237,gender,3,1,left,C_M_13.jpg,A_M_01.jpg,C_F_12.jpg,left,988.0349999996834,true,low,false
4rdDBc2c,3e9vauv7czrnvucm8noapw1mqoqyaq,3jrjswsmqlyrsou4q928k5rrpwx3eo,4rdDBc2c,2020-0188,2020-06-04,15:45:53,16:06:41,NA,incomplete,238,gender,3,1,left,C_M_09.jpg,A_M_10.jpg,C_F_04.jpg,left,775.5100000000093,true,low,false
4rdDBc2c,3e9vauv7czrnvucm8noapw1mqoqyaq,3jrjswsmqlyrsou4q928k5rrpwx3eo,4rdDBc2c,2020-0188,2020-06-04,15:45:53,16:06:41,NA,incomplete,239,gender,3,1,right,C_F_03.jpg,C_M_01.jpg,A_F_16.jpg,right,706.9699999997392,true,low,false
4rdDBc2c,3e9vauv7czrnvucm8noapw1mqoqyaq,3jrjswsmqlyrsou4q928k5rrpwx3eo,4rdDBc2c,2020-0188,2020-06-04,15:45:53,16:06:41,NA,NA,instruction example,filling,NA,NA,NA,Purple_Circle_Chess_1.jpg,Blue_Triangle_Chess_2.jpg,Green_Star_Grid_1.jpg,NA,NA,NA,NA,undefined
4rdDBc2c,3e9vauv7czrnvucm8noapw1mqoqyaq,3jrjswsmqlyrsou4q928k5rrpwx3eo,4rdDBc2c,2020-0188,2020-06-04,15:45:53,16:06:41,NA,NA,instruction example,filling,NA,NA,NA,Purple_Plus_Grid_1.jpg,Blue_Triangle_Dots_1.jpg,Green_Circle_Grid_4.jpg,NA,NA,NA,NA,undefined
4rdDBc2c,3e9vauv7czrnvucm8noapw1mqoqyaq,3jrjswsmqlyrsou4q928k5rrpwx3eo,4rdDBc2c,2020-0188,2020-06-04,15:45:53,16:06:41,NA,NA,instruction example,filling,NA,NA,NA,A_M_03.jpg,A_F_14.jpg,C_M_13.jpg,NA,NA,NA,NA,undefined
4rdDBc2c,3e9vauv7czrnvucm8noapw1mqoqyaq,3jrjswsmqlyrsou4q928k5rrpwx3eo,4rdDBc2c,2020-0188,2020-06-04,15:45:53,16:06:41,NA,NA,instruction example,filling,NA,NA,NA,C_F_13.jpg,A_F_06.jpg,C_M_16.jpg,NA,NA,NA,NA,undefined
