workerId,hitId,assignmentId,subject,studyid,exp_date,exp_start,exp_end,time_start,time_end,trial,type,sequence,reward_validity,answer,image_top,image_left,image_right,response,response_time,response_acc,volatility,age,race,gender,ethnicity,color,vision,neuro,practice
gcacSrP3,3y3czjszan6hsnojzw5z9ps3vnar5b,3kakfy4pgyf38twqmssz5kpjhof3i6,gcacSrP3,2020-0188,2020-06-04,13:49:43,14:09:35,NA,incomplete,0,shape,0,1,right,Green_Star_Grid_3.jpg,Green_Triangle_Stripes_1.jpg,Purple_Star_Dots_4.jpg,none,0,false,NA,NA,NA,NA,NA,NA,NA,NA,true
gcacSrP3,3y3czjszan6hsnojzw5z9ps3vnar5b,3kakfy4pgyf38twqmssz5kpjhof3i6,gcacSrP3,2020-0188,2020-06-04,13:49:43,14:09:35,NA,incomplete,1,shape,0,1,left,Blue_Triangle_Grid_4.jpg,Green_Triangle_Chess_1.jpg,Blue_Star_Dots_3.jpg,left,1418.3800000027986,true,NA,NA,NA,NA,NA,NA,NA,NA,true
gcacSrP3,3y3czjszan6hsnojzw5z9ps3vnar5b,3kakfy4pgyf38twqmssz5kpjhof3i6,gcacSrP3,2020-0188,2020-06-04,13:49:43,14:09:35,NA,incomplete,2,shape,0,1,left,Blue_Star_Stripes_2.jpg,Red_Star_Dots_3.jpg,Blue_Triangle_Chess_4.jpg,left,1248.9100000020699,true,NA,NA,NA,NA,NA,NA,NA,NA,true
gcacSrP3,3y3czjszan6hsnojzw5z9ps3vnar5b,3kakfy4pgyf38twqmssz5kpjhof3i6,gcacSrP3,2020-0188,2020-06-04,13:49:43,14:09:35,NA,incomplete,3,shape,0,0,left,Blue_Plus_Stripes_1.jpg,Purple_Plus_Dots_3.jpg,Blue_Circle_Grid_4.jpg,left,1275.2550000004703,true,NA,NA,NA,NA,NA,NA,NA,NA,true
gcacSrP3,3y3czjszan6hsnojzw5z9ps3vnar5b,3kakfy4pgyf38twqmssz5kpjhof3i6,gcacSrP3,2020-0188,2020-06-04,13:49:43,14:09:35,NA,incomplete,4,shape,0,1,right,Red_Star_Stripes_2.jpg,Red_Circle_Grid_1.jpg,Blue_Star_Dots_3.jpg,right,1146.51999999478,true,NA,NA,NA,NA,NA,NA,NA,NA,true
gcacSrP3,3y3czjszan6hsnojzw5z9ps3vnar5b,3kakfy4pgyf38twqmssz5kpjhof3i6,gcacSrP3,2020-0188,2020-06-04,13:49:43,14:09:35,NA,incomplete,5,shape,0,0,right,Green_Star_Dots_2.jpg,Green_Circle_Grid_1.jpg,Red_Star_Stripes_4.jpg,right,943.6449999993783,true,NA,NA,NA,NA,NA,NA,NA,NA,true
gcacSrP3,3y3czjszan6hsnojzw5z9ps3vnar5b,3kakfy4pgyf38twqmssz5kpjhof3i6,gcacSrP3,2020-0188,2020-06-04,13:49:43,14:09:35,NA,incomplete,6,shape,0,1,left,Purple_Circle_Grid_4.jpg,Red_Circle_Chess_1.jpg,Purple_Triangle_Dots_2.jpg,right,1680.4849999971339,false,NA,NA,NA,NA,NA,NA,NA,NA,true
gcacSrP3,3y3czjszan6hsnojzw5z9ps3vnar5b,3kakfy4pgyf38twqmssz5kpjhof3i6,gcacSrP3,2020-0188,2020-06-04,13:49:43,14:09:35,NA,incomplete,7,shape,0,0,right,Red_Plus_Dots_4.jpg,Red_Triangle_Grid_3.jpg,Purple_Plus_Chess_1.jpg,right,1275.4100000020117,true,NA,NA,NA,NA,NA,NA,NA,NA,true
gcacSrP3,3y3czjszan6hsnojzw5z9ps3vnar5b,3kakfy4pgyf38twqmssz5kpjhof3i6,gcacSrP3,2020-0188,2020-06-04,13:49:43,14:09:35,NA,incomplete,8,shape,0,0,left,Blue_Star_Dots_2.jpg,Purple_Star_Grid_1.jpg,Blue_Circle_Stripes_3.jpg,left,1456.7150000002584,true,NA,NA,NA,NA,NA,NA,NA,NA,true
gcacSrP3,3y3czjszan6hsnojzw5z9ps3vnar5b,3kakfy4pgyf38twqmssz5kpjhof3i6,gcacSrP3,2020-0188,2020-06-04,13:49:43,14:09:35,NA,incomplete,9,shape,0,1,left,Blue_Star_Dots_1.jpg,Red_Star_Chess_2.jpg,Blue_Circle_Grid_3.jpg,left,1019.7850000040489,true,NA,NA,NA,NA,NA,NA,NA,NA,true
gcacSrP3,3y3czjszan6hsnojzw5z9ps3vnar5b,3kakfy4pgyf38twqmssz5kpjhof3i6,gcacSrP3,2020-0188,2020-06-04,13:49:43,14:09:35,NA,incomplete,10,shape,0,1,left,Green_Plus_Dots_2.jpg,Blue_Plus_Chess_1.jpg,Green_Star_Stripes_4.jpg,left,767.0950000028824,true,NA,NA,NA,NA,NA,NA,NA,NA,true
gcacSrP3,3y3czjszan6hsnojzw5z9ps3vnar5b,3kakfy4pgyf38twqmssz5kpjhof3i6,gcacSrP3,2020-0188,2020-06-04,13:49:43,14:09:35,NA,incomplete,11,shape,0,1,left,Red_Star_Stripes_1.jpg,Purple_Star_Chess_3.jpg,Red_Circle_Dots_2.jpg,left,731.579999999667,true,NA,NA,NA,NA,NA,NA,NA,NA,true
gcacSrP3,3y3czjszan6hsnojzw5z9ps3vnar5b,3kakfy4pgyf38twqmssz5kpjhof3i6,gcacSrP3,2020-0188,2020-06-04,13:49:43,14:09:35,NA,incomplete,12,shape,0,0,left,Blue_Plus_Grid_2.jpg,Purple_Plus_Stripes_3.jpg,Blue_Star_Dots_4.jpg,left,715.1899999953457,true,NA,NA,NA,NA,NA,NA,NA,NA,true
gcacSrP3,3y3czjszan6hsnojzw5z9ps3vnar5b,3kakfy4pgyf38twqmssz5kpjhof3i6,gcacSrP3,2020-0188,2020-06-04,13:49:43,14:09:35,NA,incomplete,13,shape,0,1,right,Green_Triangle_Chess_2.jpg,Green_Circle_Stripes_1.jpg,Purple_Triangle_Dots_3.jpg,right,1033.6449999958859,true,NA,NA,NA,NA,NA,NA,NA,NA,true
gcacSrP3,3y3czjszan6hsnojzw5z9ps3vnar5b,3kakfy4pgyf38twqmssz5kpjhof3i6,gcacSrP3,2020-0188,2020-06-04,13:49:43,14:09:35,NA,incomplete,14,shape,0,1,left,Red_Triangle_Chess_3.jpg,Green_Triangle_Dots_1.jpg,Red_Plus_Grid_2.jpg,right,770.8800000036717,false,NA,NA,NA,NA,NA,NA,NA,NA,true
gcacSrP3,3y3czjszan6hsnojzw5z9ps3vnar5b,3kakfy4pgyf38twqmssz5kpjhof3i6,gcacSrP3,2020-0188,2020-06-04,13:49:43,14:09:35,NA,incomplete,15,shape,0,1,right,Green_Triangle_Dots_2.jpg,Green_Circle_Chess_4.jpg,Purple_Triangle_Grid_1.jpg,right,1447.9149999970105,true,NA,NA,NA,NA,NA,NA,NA,NA,true
gcacSrP3,3y3czjszan6hsnojzw5z9ps3vnar5b,3kakfy4pgyf38twqmssz5kpjhof3i6,gcacSrP3,2020-0188,2020-06-04,13:49:43,14:09:35,NA,incomplete,16,shape,0,1,right,Purple_Star_Dots_4.jpg,Purple_Plus_Chess_1.jpg,Blue_Star_Grid_2.jpg,right,1277.669999995851,true,NA,NA,NA,NA,NA,NA,NA,NA,true
gcacSrP3,3y3czjszan6hsnojzw5z9ps3vnar5b,3kakfy4pgyf38twqmssz5kpjhof3i6,gcacSrP3,2020-0188,2020-06-04,13:49:43,14:09:35,NA,incomplete,17,shape,0,0,right,Purple_Circle_Grid_1.jpg,Purple_Star_Dots_2.jpg,Red_Circle_Stripes_4.jpg,right,1250.210000005609,true,NA,NA,NA,NA,NA,NA,NA,NA,true
gcacSrP3,3y3czjszan6hsnojzw5z9ps3vnar5b,3kakfy4pgyf38twqmssz5kpjhof3i6,gcacSrP3,2020-0188,2020-06-04,13:49:43,14:09:35,NA,incomplete,18,shape,0,1,right,Blue_Star_Stripes_1.jpg,Blue_Triangle_Grid_3.jpg,Green_Star_Dots_2.jpg,right,1030.044999999518,true,NA,NA,NA,NA,NA,NA,NA,NA,true
gcacSrP3,3y3czjszan6hsnojzw5z9ps3vnar5b,3kakfy4pgyf38twqmssz5kpjhof3i6,gcacSrP3,2020-0188,2020-06-04,13:49:43,14:09:35,NA,incomplete,19,shape,0,1,right,Green_Star_Dots_4.jpg,Green_Plus_Grid_1.jpg,Red_Star_Chess_2.jpg,right,1083.8999999978114,true,NA,NA,NA,NA,NA,NA,NA,NA,true
gcacSrP3,3y3czjszan6hsnojzw5z9ps3vnar5b,3kakfy4pgyf38twqmssz5kpjhof3i6,gcacSrP3,2020-0188,2020-06-04,13:49:43,14:09:35,NA,incomplete,20,color,1,1,right,Purple_Circle_Dots_4.jpg,Red_Circle_Grid_2.jpg,Purple_Triangle_Stripes_1.jpg,right,1057.0850000003702,true,NA,NA,NA,NA,NA,NA,NA,NA,true
gcacSrP3,3y3czjszan6hsnojzw5z9ps3vnar5b,3kakfy4pgyf38twqmssz5kpjhof3i6,gcacSrP3,2020-0188,2020-06-04,13:49:43,14:09:35,NA,incomplete,21,color,1,0,left,Red_Triangle_Stripes_4.jpg,Red_Plus_Grid_2.jpg,Blue_Triangle_Dots_1.jpg,left,1145.0299999996787,true,NA,NA,NA,NA,NA,NA,NA,NA,true
gcacSrP3,3y3czjszan6hsnojzw5z9ps3vnar5b,3kakfy4pgyf38twqmssz5kpjhof3i6,gcacSrP3,2020-0188,2020-06-04,13:49:43,14:09:35,NA,incomplete,22,color,1,1,left,Purple_Circle_Stripes_1.jpg,Purple_Plus_Dots_4.jpg,Green_Circle_Chess_2.jpg,left,1394.2899999965448,true,NA,NA,NA,NA,NA,NA,NA,NA,true
gcacSrP3,3y3czjszan6hsnojzw5z9ps3vnar5b,3kakfy4pgyf38twqmssz5kpjhof3i6,gcacSrP3,2020-0188,2020-06-04,13:49:43,14:09:35,NA,incomplete,23,color,1,0,left,Purple_Star_Chess_1.jpg,Purple_Triangle_Dots_3.jpg,Red_Star_Stripes_4.jpg,left,1048.9349999988917,true,NA,NA,NA,NA,NA,NA,NA,NA,true
gcacSrP3,3y3czjszan6hsnojzw5z9ps3vnar5b,3kakfy4pgyf38twqmssz5kpjhof3i6,gcacSrP3,2020-0188,2020-06-04,13:49:43,14:09:35,NA,incomplete,24,color,1,1,right,Blue_Star_Stripes_3.jpg,Green_Star_Dots_4.jpg,Blue_Plus_Chess_1.jpg,right,1221.6200000038953,true,NA,NA,NA,NA,NA,NA,NA,NA,true
gcacSrP3,3y3czjszan6hsnojzw5z9ps3vnar5b,3kakfy4pgyf38twqmssz5kpjhof3i6,gcacSrP3,2020-0188,2020-06-04,13:49:43,14:09:35,NA,incomplete,25,color,1,1,left,Blue_Circle_Dots_4.jpg,Blue_Plus_Chess_2.jpg,Red_Circle_Grid_1.jpg,left,1227.4650000035763,true,NA,NA,NA,NA,NA,NA,NA,NA,true
gcacSrP3,3y3czjszan6hsnojzw5z9ps3vnar5b,3kakfy4pgyf38twqmssz5kpjhof3i6,gcacSrP3,2020-0188,2020-06-04,13:49:43,14:09:35,NA,incomplete,26,color,1,1,right,Red_Circle_Chess_4.jpg,Blue_Circle_Stripes_3.jpg,Red_Star_Grid_2.jpg,left,1001.4500000033877,false,NA,NA,NA,NA,NA,NA,NA,NA,true
gcacSrP3,3y3czjszan6hsnojzw5z9ps3vnar5b,3kakfy4pgyf38twqmssz5kpjhof3i6,gcacSrP3,2020-0188,2020-06-04,13:49:43,14:09:35,NA,incomplete,27,color,1,1,right,Purple_Triangle_Stripes_4.jpg,Green_Triangle_Dots_3.jpg,Purple_Circle_Grid_1.jpg,right,1284.3399999983376,true,NA,NA,NA,NA,NA,NA,NA,NA,true
gcacSrP3,3y3czjszan6hsnojzw5z9ps3vnar5b,3kakfy4pgyf38twqmssz5kpjhof3i6,gcacSrP3,2020-0188,2020-06-04,13:49:43,14:09:35,NA,incomplete,28,color,1,1,right,Green_Plus_Dots_2.jpg,Red_Plus_Grid_3.jpg,Green_Triangle_Stripes_1.jpg,right,843.9450000005309,true,NA,NA,NA,NA,NA,NA,NA,NA,true
gcacSrP3,3y3czjszan6hsnojzw5z9ps3vnar5b,3kakfy4pgyf38twqmssz5kpjhof3i6,gcacSrP3,2020-0188,2020-06-04,13:49:43,14:09:35,NA,incomplete,29,color,1,1,left,Green_Plus_Dots_4.jpg,Green_Triangle_Stripes_2.jpg,Purple_Plus_Grid_1.jpg,left,997.9850000017905,true,NA,NA,NA,NA,NA,NA,NA,NA,true
gcacSrP3,3y3czjszan6hsnojzw5z9ps3vnar5b,3kakfy4pgyf38twqmssz5kpjhof3i6,gcacSrP3,2020-0188,2020-06-04,13:49:43,14:09:35,NA,incomplete,30,color,1,1,left,Blue_Triangle_Dots_4.jpg,Blue_Plus_Stripes_2.jpg,Purple_Triangle_Grid_3.jpg,left,811.585000003106,true,NA,NA,NA,NA,NA,NA,NA,NA,true
gcacSrP3,3y3czjszan6hsnojzw5z9ps3vnar5b,3kakfy4pgyf38twqmssz5kpjhof3i6,gcacSrP3,2020-0188,2020-06-04,13:49:43,14:09:35,NA,incomplete,31,color,1,1,right,Blue_Star_Grid_3.jpg,Green_Star_Stripes_1.jpg,Blue_Plus_Dots_4.jpg,right,725.8399999991525,true,NA,NA,NA,NA,NA,NA,NA,NA,true
gcacSrP3,3y3czjszan6hsnojzw5z9ps3vnar5b,3kakfy4pgyf38twqmssz5kpjhof3i6,gcacSrP3,2020-0188,2020-06-04,13:49:43,14:09:35,NA,incomplete,32,color,1,1,left,Green_Plus_Stripes_2.jpg,Green_Star_Grid_1.jpg,Blue_Plus_Chess_4.jpg,left,873.3449999999721,true,NA,NA,NA,NA,NA,NA,NA,NA,true
gcacSrP3,3y3czjszan6hsnojzw5z9ps3vnar5b,3kakfy4pgyf38twqmssz5kpjhof3i6,gcacSrP3,2020-0188,2020-06-04,13:49:43,14:09:35,NA,incomplete,33,color,1,1,left,Purple_Triangle_Chess_4.jpg,Purple_Plus_Stripes_2.jpg,Blue_Triangle_Dots_1.jpg,left,984.0449999974226,true,NA,NA,NA,NA,NA,NA,NA,NA,true
gcacSrP3,3y3czjszan6hsnojzw5z9ps3vnar5b,3kakfy4pgyf38twqmssz5kpjhof3i6,gcacSrP3,2020-0188,2020-06-04,13:49:43,14:09:35,NA,incomplete,34,color,1,1,right,Green_Plus_Dots_4.jpg,Red_Plus_Stripes_1.jpg,Green_Circle_Grid_3.jpg,right,916.8400000053225,true,NA,NA,NA,NA,NA,NA,NA,NA,true
gcacSrP3,3y3czjszan6hsnojzw5z9ps3vnar5b,3kakfy4pgyf38twqmssz5kpjhof3i6,gcacSrP3,2020-0188,2020-06-04,13:49:43,14:09:35,NA,incomplete,35,color,1,1,left,Purple_Circle_Grid_3.jpg,Purple_Star_Dots_2.jpg,Blue_Circle_Chess_1.jpg,left,903.664999998,true,NA,NA,NA,NA,NA,NA,NA,NA,true
gcacSrP3,3y3czjszan6hsnojzw5z9ps3vnar5b,3kakfy4pgyf38twqmssz5kpjhof3i6,gcacSrP3,2020-0188,2020-06-04,13:49:43,14:09:35,NA,incomplete,36,color,1,1,right,Purple_Star_Stripes_4.jpg,Green_Star_Chess_1.jpg,Purple_Circle_Dots_3.jpg,right,771.005000002333,true,NA,NA,NA,NA,NA,NA,NA,NA,true
gcacSrP3,3y3czjszan6hsnojzw5z9ps3vnar5b,3kakfy4pgyf38twqmssz5kpjhof3i6,gcacSrP3,2020-0188,2020-06-04,13:49:43,14:09:35,NA,incomplete,37,color,1,1,left,Green_Triangle_Chess_2.jpg,Green_Star_Stripes_4.jpg,Purple_Triangle_Dots_3.jpg,left,775.0050000031479,true,NA,NA,NA,NA,NA,NA,NA,NA,true
gcacSrP3,3y3czjszan6hsnojzw5z9ps3vnar5b,3kakfy4pgyf38twqmssz5kpjhof3i6,gcacSrP3,2020-0188,2020-06-04,13:49:43,14:09:35,NA,incomplete,38,color,1,1,right,Red_Star_Stripes_2.jpg,Green_Star_Grid_4.jpg,Red_Plus_Chess_1.jpg,right,762.7849999989849,true,NA,NA,NA,NA,NA,NA,NA,NA,true
gcacSrP3,3y3czjszan6hsnojzw5z9ps3vnar5b,3kakfy4pgyf38twqmssz5kpjhof3i6,gcacSrP3,2020-0188,2020-06-04,13:49:43,14:09:35,NA,incomplete,39,color,1,1,right,Blue_Triangle_Stripes_4.jpg,Green_Triangle_Chess_3.jpg,Blue_Circle_Dots_2.jpg,right,897.835000003397,true,NA,NA,NA,NA,NA,NA,NA,NA,true
gcacSrP3,3y3czjszan6hsnojzw5z9ps3vnar5b,3kakfy4pgyf38twqmssz5kpjhof3i6,gcacSrP3,2020-0188,2020-06-04,13:49:43,14:09:35,NA,incomplete,0,shape,0,1,right,Blue_Plus_Stripes_2.jpg,Blue_Star_Grid_3.jpg,Purple_Plus_Dots_1.jpg,left,1304.1699999957928,false,high,NA,NA,NA,NA,NA,NA,NA,false
gcacSrP3,3y3czjszan6hsnojzw5z9ps3vnar5b,3kakfy4pgyf38twqmssz5kpjhof3i6,gcacSrP3,2020-0188,2020-06-04,13:49:43,14:09:35,NA,incomplete,1,shape,0,1,left,Purple_Plus_Chess_1.jpg,Blue_Plus_Stripes_3.jpg,Purple_Triangle_Dots_4.jpg,right,701.0250000021188,false,high,NA,NA,NA,NA,NA,NA,NA,false
gcacSrP3,3y3czjszan6hsnojzw5z9ps3vnar5b,3kakfy4pgyf38twqmssz5kpjhof3i6,gcacSrP3,2020-0188,2020-06-04,13:49:43,14:09:35,NA,incomplete,2,shape,0,1,right,Purple_Plus_Chess_3.jpg,Purple_Circle_Grid_4.jpg,Red_Plus_Dots_1.jpg,right,1064.1100000066217,true,high,NA,NA,NA,NA,NA,NA,NA,false
gcacSrP3,3y3czjszan6hsnojzw5z9ps3vnar5b,3kakfy4pgyf38twqmssz5kpjhof3i6,gcacSrP3,2020-0188,2020-06-04,13:49:43,14:09:35,NA,incomplete,3,shape,0,1,left,Blue_Star_Stripes_3.jpg,Red_Star_Dots_2.jpg,Blue_Plus_Chess_4.jpg,left,903.4249999967869,true,high,NA,NA,NA,NA,NA,NA,NA,false
gcacSrP3,3y3czjszan6hsnojzw5z9ps3vnar5b,3kakfy4pgyf38twqmssz5kpjhof3i6,gcacSrP3,2020-0188,2020-06-04,13:49:43,14:09:35,NA,incomplete,4,shape,0,1,left,Blue_Circle_Chess_3.jpg,Green_Circle_Dots_2.jpg,Blue_Triangle_Stripes_1.jpg,left,1473.1399999946007,true,high,NA,NA,NA,NA,NA,NA,NA,false
gcacSrP3,3y3czjszan6hsnojzw5z9ps3vnar5b,3kakfy4pgyf38twqmssz5kpjhof3i6,gcacSrP3,2020-0188,2020-06-04,13:49:43,14:09:35,NA,incomplete,5,shape,0,1,right,Purple_Triangle_Stripes_2.jpg,Purple_Plus_Chess_1.jpg,Red_Triangle_Grid_4.jpg,right,1059.5250000042142,true,high,NA,NA,NA,NA,NA,NA,NA,false
gcacSrP3,3y3czjszan6hsnojzw5z9ps3vnar5b,3kakfy4pgyf38twqmssz5kpjhof3i6,gcacSrP3,2020-0188,2020-06-04,13:49:43,14:09:35,NA,incomplete,6,shape,0,1,left,Purple_Circle_Chess_1.jpg,Red_Circle_Stripes_4.jpg,Purple_Triangle_Dots_2.jpg,left,914.584999998624,true,high,NA,NA,NA,NA,NA,NA,NA,false
gcacSrP3,3y3czjszan6hsnojzw5z9ps3vnar5b,3kakfy4pgyf38twqmssz5kpjhof3i6,gcacSrP3,2020-0188,2020-06-04,13:49:43,14:09:35,NA,incomplete,7,shape,0,0,left,Green_Circle_Chess_3.jpg,Blue_Circle_Dots_4.jpg,Green_Plus_Stripes_1.jpg,left,787.5700000004144,true,high,NA,NA,NA,NA,NA,NA,NA,false
gcacSrP3,3y3czjszan6hsnojzw5z9ps3vnar5b,3kakfy4pgyf38twqmssz5kpjhof3i6,gcacSrP3,2020-0188,2020-06-04,13:49:43,14:09:35,NA,incomplete,8,shape,0,1,left,Blue_Plus_Stripes_4.jpg,Purple_Plus_Dots_3.jpg,Blue_Star_Chess_1.jpg,right,656.0150000004796,false,high,NA,NA,NA,NA,NA,NA,NA,false
gcacSrP3,3y3czjszan6hsnojzw5z9ps3vnar5b,3kakfy4pgyf38twqmssz5kpjhof3i6,gcacSrP3,2020-0188,2020-06-04,13:49:43,14:09:35,NA,incomplete,9,shape,0,1,left,Red_Star_Stripes_2.jpg,Purple_Star_Dots_3.jpg,Red_Plus_Chess_1.jpg,left,818.5650000013993,true,high,NA,NA,NA,NA,NA,NA,NA,false
gcacSrP3,3y3czjszan6hsnojzw5z9ps3vnar5b,3kakfy4pgyf38twqmssz5kpjhof3i6,gcacSrP3,2020-0188,2020-06-04,13:49:43,14:09:35,NA,incomplete,10,color,1,0,right,Green_Plus_Stripes_1.jpg,Blue_Plus_Chess_4.jpg,Green_Star_Dots_3.jpg,left,1060.3550000014366,false,high,NA,NA,NA,NA,NA,NA,NA,false
gcacSrP3,3y3czjszan6hsnojzw5z9ps3vnar5b,3kakfy4pgyf38twqmssz5kpjhof3i6,gcacSrP3,2020-0188,2020-06-04,13:49:43,14:09:35,NA,incomplete,11,color,1,1,left,Purple_Triangle_Grid_2.jpg,Purple_Star_Chess_1.jpg,Green_Triangle_Stripes_3.jpg,right,1132.144999995944,false,high,NA,NA,NA,NA,NA,NA,NA,false
gcacSrP3,3y3czjszan6hsnojzw5z9ps3vnar5b,3kakfy4pgyf38twqmssz5kpjhof3i6,gcacSrP3,2020-0188,2020-06-04,13:49:43,14:09:35,NA,incomplete,12,color,1,0,right,Purple_Triangle_Chess_2.jpg,Blue_Triangle_Grid_4.jpg,Purple_Plus_Dots_3.jpg,none,0,false,high,NA,NA,NA,NA,NA,NA,NA,false
gcacSrP3,3y3czjszan6hsnojzw5z9ps3vnar5b,3kakfy4pgyf38twqmssz5kpjhof3i6,gcacSrP3,2020-0188,2020-06-04,13:49:43,14:09:35,NA,incomplete,13,color,1,1,right,Red_Star_Grid_1.jpg,Purple_Star_Chess_4.jpg,Red_Circle_Stripes_2.jpg,left,762.2799999953713,false,high,NA,NA,NA,NA,NA,NA,NA,false
gcacSrP3,3y3czjszan6hsnojzw5z9ps3vnar5b,3kakfy4pgyf38twqmssz5kpjhof3i6,gcacSrP3,2020-0188,2020-06-04,13:49:43,14:09:35,NA,incomplete,14,color,1,1,left,Red_Triangle_Grid_2.jpg,Red_Plus_Stripes_3.jpg,Blue_Triangle_Dots_1.jpg,right,1038.025000001653,false,high,NA,NA,NA,NA,NA,NA,NA,false
gcacSrP3,3y3czjszan6hsnojzw5z9ps3vnar5b,3kakfy4pgyf38twqmssz5kpjhof3i6,gcacSrP3,2020-0188,2020-06-04,13:49:43,14:09:35,NA,incomplete,15,color,1,1,left,Blue_Star_Dots_1.jpg,Blue_Plus_Stripes_2.jpg,Red_Star_Chess_4.jpg,left,727.3799999966286,true,high,NA,NA,NA,NA,NA,NA,NA,false
gcacSrP3,3y3czjszan6hsnojzw5z9ps3vnar5b,3kakfy4pgyf38twqmssz5kpjhof3i6,gcacSrP3,2020-0188,2020-06-04,13:49:43,14:09:35,NA,incomplete,16,color,1,0,left,Green_Plus_Stripes_1.jpg,Green_Triangle_Dots_4.jpg,Red_Plus_Chess_3.jpg,left,688.2099999929778,true,high,NA,NA,NA,NA,NA,NA,NA,false
gcacSrP3,3y3czjszan6hsnojzw5z9ps3vnar5b,3kakfy4pgyf38twqmssz5kpjhof3i6,gcacSrP3,2020-0188,2020-06-04,13:49:43,14:09:35,NA,incomplete,17,color,1,1,left,Blue_Plus_Chess_3.jpg,Blue_Circle_Dots_2.jpg,Purple_Plus_Stripes_1.jpg,left,622.7099999960046,true,high,NA,NA,NA,NA,NA,NA,NA,false
gcacSrP3,3y3czjszan6hsnojzw5z9ps3vnar5b,3kakfy4pgyf38twqmssz5kpjhof3i6,gcacSrP3,2020-0188,2020-06-04,13:49:43,14:09:35,NA,incomplete,18,color,1,1,left,Green_Plus_Stripes_4.jpg,Green_Circle_Dots_1.jpg,Red_Plus_Chess_3.jpg,left,666.9800000017858,true,high,NA,NA,NA,NA,NA,NA,NA,false
gcacSrP3,3y3czjszan6hsnojzw5z9ps3vnar5b,3kakfy4pgyf38twqmssz5kpjhof3i6,gcacSrP3,2020-0188,2020-06-04,13:49:43,14:09:35,NA,incomplete,19,color,1,1,left,Green_Circle_Chess_1.jpg,Green_Triangle_Stripes_2.jpg,Purple_Circle_Dots_4.jpg,left,531.3800000003539,true,high,NA,NA,NA,NA,NA,NA,NA,false
gcacSrP3,3y3czjszan6hsnojzw5z9ps3vnar5b,3kakfy4pgyf38twqmssz5kpjhof3i6,gcacSrP3,2020-0188,2020-06-04,13:49:43,14:09:35,NA,incomplete,20,shape,0,1,left,Red_Circle_Stripes_1.jpg,Blue_Circle_Grid_3.jpg,Red_Triangle_Dots_4.jpg,right,527.1450000000186,false,high,NA,NA,NA,NA,NA,NA,NA,false
gcacSrP3,3y3czjszan6hsnojzw5z9ps3vnar5b,3kakfy4pgyf38twqmssz5kpjhof3i6,gcacSrP3,2020-0188,2020-06-04,13:49:43,14:09:35,NA,incomplete,21,shape,0,1,right,Blue_Circle_Grid_1.jpg,Blue_Plus_Chess_4.jpg,Purple_Circle_Stripes_2.jpg,left,835.3299999944284,false,high,NA,NA,NA,NA,NA,NA,NA,false
gcacSrP3,3y3czjszan6hsnojzw5z9ps3vnar5b,3kakfy4pgyf38twqmssz5kpjhof3i6,gcacSrP3,2020-0188,2020-06-04,13:49:43,14:09:35,NA,incomplete,22,shape,0,0,left,Blue_Triangle_Dots_2.jpg,Purple_Triangle_Grid_3.jpg,Blue_Plus_Stripes_4.jpg,right,672.3449999990407,false,high,NA,NA,NA,NA,NA,NA,NA,false
gcacSrP3,3y3czjszan6hsnojzw5z9ps3vnar5b,3kakfy4pgyf38twqmssz5kpjhof3i6,gcacSrP3,2020-0188,2020-06-04,13:49:43,14:09:35,NA,incomplete,23,shape,0,1,right,Green_Triangle_Dots_4.jpg,Green_Plus_Grid_2.jpg,Purple_Triangle_Stripes_1.jpg,right,830.3000000014435,true,high,NA,NA,NA,NA,NA,NA,NA,false
gcacSrP3,3y3czjszan6hsnojzw5z9ps3vnar5b,3kakfy4pgyf38twqmssz5kpjhof3i6,gcacSrP3,2020-0188,2020-06-04,13:49:43,14:09:35,NA,incomplete,24,shape,0,1,right,Purple_Circle_Chess_4.jpg,Purple_Triangle_Dots_3.jpg,Red_Circle_Stripes_1.jpg,left,725.4850000026636,false,high,NA,NA,NA,NA,NA,NA,NA,false
gcacSrP3,3y3czjszan6hsnojzw5z9ps3vnar5b,3kakfy4pgyf38twqmssz5kpjhof3i6,gcacSrP3,2020-0188,2020-06-04,13:49:43,14:09:35,NA,incomplete,25,shape,0,1,right,Blue_Star_Stripes_2.jpg,Blue_Plus_Grid_4.jpg,Green_Star_Dots_1.jpg,left,583.6450000060722,false,high,NA,NA,NA,NA,NA,NA,NA,false
gcacSrP3,3y3czjszan6hsnojzw5z9ps3vnar5b,3kakfy4pgyf38twqmssz5kpjhof3i6,gcacSrP3,2020-0188,2020-06-04,13:49:43,14:09:35,NA,incomplete,26,shape,0,1,left,Red_Plus_Chess_2.jpg,Green_Plus_Stripes_1.jpg,Red_Star_Dots_4.jpg,right,704.4850000020233,false,high,NA,NA,NA,NA,NA,NA,NA,false
gcacSrP3,3y3czjszan6hsnojzw5z9ps3vnar5b,3kakfy4pgyf38twqmssz5kpjhof3i6,gcacSrP3,2020-0188,2020-06-04,13:49:43,14:09:35,NA,incomplete,27,shape,0,0,left,Red_Triangle_Grid_3.jpg,Green_Triangle_Stripes_2.jpg,Red_Plus_Dots_1.jpg,left,1107.270000000426,true,high,NA,NA,NA,NA,NA,NA,NA,false
gcacSrP3,3y3czjszan6hsnojzw5z9ps3vnar5b,3kakfy4pgyf38twqmssz5kpjhof3i6,gcacSrP3,2020-0188,2020-06-04,13:49:43,14:09:35,NA,incomplete,28,shape,0,1,right,Purple_Triangle_Dots_4.jpg,Purple_Circle_Chess_3.jpg,Blue_Triangle_Stripes_2.jpg,left,1046.0049999965122,false,high,NA,NA,NA,NA,NA,NA,NA,false
gcacSrP3,3y3czjszan6hsnojzw5z9ps3vnar5b,3kakfy4pgyf38twqmssz5kpjhof3i6,gcacSrP3,2020-0188,2020-06-04,13:49:43,14:09:35,NA,incomplete,29,shape,0,1,left,Blue_Triangle_Stripes_4.jpg,Red_Triangle_Chess_1.jpg,Blue_Circle_Dots_2.jpg,left,1299.8850000003586,true,high,NA,NA,NA,NA,NA,NA,NA,false
gcacSrP3,3y3czjszan6hsnojzw5z9ps3vnar5b,3kakfy4pgyf38twqmssz5kpjhof3i6,gcacSrP3,2020-0188,2020-06-04,13:49:43,14:09:35,NA,incomplete,30,color,1,0,left,Green_Star_Stripes_1.jpg,Green_Plus_Grid_4.jpg,Purple_Star_Chess_2.jpg,right,833.7000000029802,false,high,NA,NA,NA,NA,NA,NA,NA,false
gcacSrP3,3y3czjszan6hsnojzw5z9ps3vnar5b,3kakfy4pgyf38twqmssz5kpjhof3i6,gcacSrP3,2020-0188,2020-06-04,13:49:43,14:09:35,NA,incomplete,31,color,1,1,left,Red_Circle_Grid_2.jpg,Red_Plus_Stripes_1.jpg,Green_Circle_Dots_3.jpg,right,1218.3099999965634,false,high,NA,NA,NA,NA,NA,NA,NA,false
gcacSrP3,3y3czjszan6hsnojzw5z9ps3vnar5b,3kakfy4pgyf38twqmssz5kpjhof3i6,gcacSrP3,2020-0188,2020-06-04,13:49:43,14:09:35,NA,incomplete,32,color,1,1,right,Green_Plus_Grid_1.jpg,Purple_Plus_Chess_2.jpg,Green_Circle_Dots_4.jpg,left,1085.5050000027986,false,high,NA,NA,NA,NA,NA,NA,NA,false
gcacSrP3,3y3czjszan6hsnojzw5z9ps3vnar5b,3kakfy4pgyf38twqmssz5kpjhof3i6,gcacSrP3,2020-0188,2020-06-04,13:49:43,14:09:35,NA,incomplete,33,color,1,0,left,Green_Star_Grid_1.jpg,Green_Circle_Stripes_3.jpg,Red_Star_Chess_2.jpg,left,800.4450000007637,true,high,NA,NA,NA,NA,NA,NA,NA,false
gcacSrP3,3y3czjszan6hsnojzw5z9ps3vnar5b,3kakfy4pgyf38twqmssz5kpjhof3i6,gcacSrP3,2020-0188,2020-06-04,13:49:43,14:09:35,NA,incomplete,34,color,1,1,right,Blue_Star_Chess_3.jpg,Purple_Star_Grid_2.jpg,Blue_Triangle_Dots_4.jpg,left,1377.9250000006286,false,high,NA,NA,NA,NA,NA,NA,NA,false
gcacSrP3,3y3czjszan6hsnojzw5z9ps3vnar5b,3kakfy4pgyf38twqmssz5kpjhof3i6,gcacSrP3,2020-0188,2020-06-04,13:49:43,14:09:35,NA,incomplete,35,color,1,1,right,Blue_Star_Chess_3.jpg,Green_Star_Grid_1.jpg,Blue_Triangle_Stripes_2.jpg,right,716.0349999975879,true,high,NA,NA,NA,NA,NA,NA,NA,false
gcacSrP3,3y3czjszan6hsnojzw5z9ps3vnar5b,3kakfy4pgyf38twqmssz5kpjhof3i6,gcacSrP3,2020-0188,2020-06-04,13:49:43,14:09:35,NA,incomplete,36,color,1,1,right,Green_Star_Stripes_2.jpg,Blue_Star_Dots_4.jpg,Green_Circle_Grid_1.jpg,right,731.1399999962887,true,high,NA,NA,NA,NA,NA,NA,NA,false
gcacSrP3,3y3czjszan6hsnojzw5z9ps3vnar5b,3kakfy4pgyf38twqmssz5kpjhof3i6,gcacSrP3,2020-0188,2020-06-04,13:49:43,14:09:35,NA,incomplete,37,color,1,1,left,Green_Circle_Grid_4.jpg,Green_Star_Chess_1.jpg,Purple_Circle_Dots_3.jpg,left,878.294999995036,true,high,NA,NA,NA,NA,NA,NA,NA,false
gcacSrP3,3y3czjszan6hsnojzw5z9ps3vnar5b,3kakfy4pgyf38twqmssz5kpjhof3i6,gcacSrP3,2020-0188,2020-06-04,13:49:43,14:09:35,NA,incomplete,38,color,1,1,left,Red_Circle_Dots_4.jpg,Red_Plus_Stripes_3.jpg,Blue_Circle_Chess_2.jpg,left,724.0149999997811,true,high,NA,NA,NA,NA,NA,NA,NA,false
gcacSrP3,3y3czjszan6hsnojzw5z9ps3vnar5b,3kakfy4pgyf38twqmssz5kpjhof3i6,gcacSrP3,2020-0188,2020-06-04,13:49:43,14:09:35,NA,incomplete,39,color,1,1,left,Red_Circle_Grid_4.jpg,Red_Plus_Chess_3.jpg,Purple_Circle_Dots_1.jpg,left,557.24499999627,true,high,NA,NA,NA,NA,NA,NA,NA,false
gcacSrP3,3y3czjszan6hsnojzw5z9ps3vnar5b,3kakfy4pgyf38twqmssz5kpjhof3i6,gcacSrP3,2020-0188,2020-06-04,13:49:43,14:09:35,NA,incomplete,40,shape,0,1,right,Green_Triangle_Grid_1.jpg,Green_Circle_Dots_3.jpg,Red_Triangle_Stripes_2.jpg,left,666.8550000030082,false,high,NA,NA,NA,NA,NA,NA,NA,false
gcacSrP3,3y3czjszan6hsnojzw5z9ps3vnar5b,3kakfy4pgyf38twqmssz5kpjhof3i6,gcacSrP3,2020-0188,2020-06-04,13:49:43,14:09:35,NA,incomplete,41,shape,0,1,right,Red_Star_Stripes_4.jpg,Red_Triangle_Chess_1.jpg,Blue_Star_Dots_3.jpg,right,841.0950000034645,true,high,NA,NA,NA,NA,NA,NA,NA,false
gcacSrP3,3y3czjszan6hsnojzw5z9ps3vnar5b,3kakfy4pgyf38twqmssz5kpjhof3i6,gcacSrP3,2020-0188,2020-06-04,13:49:43,14:09:35,NA,incomplete,42,shape,0,1,right,Red_Triangle_Grid_2.jpg,Red_Plus_Dots_3.jpg,Purple_Triangle_Chess_1.jpg,right,1240.5950000028824,true,high,NA,NA,NA,NA,NA,NA,NA,false
gcacSrP3,3y3czjszan6hsnojzw5z9ps3vnar5b,3kakfy4pgyf38twqmssz5kpjhof3i6,gcacSrP3,2020-0188,2020-06-04,13:49:43,14:09:35,NA,incomplete,43,shape,0,1,left,Blue_Triangle_Dots_3.jpg,Green_Triangle_Stripes_4.jpg,Blue_Star_Grid_1.jpg,left,1144.7950000001583,true,high,NA,NA,NA,NA,NA,NA,NA,false
gcacSrP3,3y3czjszan6hsnojzw5z9ps3vnar5b,3kakfy4pgyf38twqmssz5kpjhof3i6,gcacSrP3,2020-0188,2020-06-04,13:49:43,14:09:35,NA,incomplete,44,shape,0,1,right,Green_Triangle_Grid_3.jpg,Green_Plus_Dots_2.jpg,Purple_Triangle_Stripes_1.jpg,right,842.2299999948591,true,high,NA,NA,NA,NA,NA,NA,NA,false
gcacSrP3,3y3czjszan6hsnojzw5z9ps3vnar5b,3kakfy4pgyf38twqmssz5kpjhof3i6,gcacSrP3,2020-0188,2020-06-04,13:49:43,14:09:35,NA,incomplete,45,shape,0,1,right,Red_Triangle_Stripes_3.jpg,Red_Plus_Chess_1.jpg,Blue_Triangle_Dots_2.jpg,right,940.0549999990035,true,high,NA,NA,NA,NA,NA,NA,NA,false
gcacSrP3,3y3czjszan6hsnojzw5z9ps3vnar5b,3kakfy4pgyf38twqmssz5kpjhof3i6,gcacSrP3,2020-0188,2020-06-04,13:49:43,14:09:35,NA,incomplete,46,shape,0,1,left,Green_Circle_Grid_1.jpg,Purple_Circle_Dots_3.jpg,Green_Star_Chess_2.jpg,left,722.5949999992736,true,high,NA,NA,NA,NA,NA,NA,NA,false
gcacSrP3,3y3czjszan6hsnojzw5z9ps3vnar5b,3kakfy4pgyf38twqmssz5kpjhof3i6,gcacSrP3,2020-0188,2020-06-04,13:49:43,14:09:35,NA,incomplete,47,shape,0,1,left,Purple_Triangle_Stripes_4.jpg,Green_Triangle_Grid_2.jpg,Purple_Circle_Chess_3.jpg,left,841.6500000020023,true,high,NA,NA,NA,NA,NA,NA,NA,false
gcacSrP3,3y3czjszan6hsnojzw5z9ps3vnar5b,3kakfy4pgyf38twqmssz5kpjhof3i6,gcacSrP3,2020-0188,2020-06-04,13:49:43,14:09:35,NA,incomplete,48,shape,0,1,right,Red_Star_Chess_4.jpg,Red_Plus_Grid_3.jpg,Green_Star_Dots_1.jpg,right,844.6299999996554,true,high,NA,NA,NA,NA,NA,NA,NA,false
gcacSrP3,3y3czjszan6hsnojzw5z9ps3vnar5b,3kakfy4pgyf38twqmssz5kpjhof3i6,gcacSrP3,2020-0188,2020-06-04,13:49:43,14:09:35,NA,incomplete,49,shape,0,1,left,Purple_Plus_Dots_1.jpg,Red_Plus_Stripes_4.jpg,Purple_Circle_Grid_3.jpg,left,672.5949999962468,true,high,NA,NA,NA,NA,NA,NA,NA,false
gcacSrP3,3y3czjszan6hsnojzw5z9ps3vnar5b,3kakfy4pgyf38twqmssz5kpjhof3i6,gcacSrP3,2020-0188,2020-06-04,13:49:43,14:09:35,NA,incomplete,50,color,1,1,left,Purple_Triangle_Dots_2.jpg,Purple_Star_Chess_3.jpg,Red_Triangle_Grid_1.jpg,right,718.1249999993015,false,high,NA,NA,NA,NA,NA,NA,NA,false
gcacSrP3,3y3czjszan6hsnojzw5z9ps3vnar5b,3kakfy4pgyf38twqmssz5kpjhof3i6,gcacSrP3,2020-0188,2020-06-04,13:49:43,14:09:35,NA,incomplete,51,color,1,1,right,Blue_Star_Stripes_4.jpg,Purple_Star_Chess_1.jpg,Blue_Circle_Grid_3.jpg,right,811.6100000042934,true,high,NA,NA,NA,NA,NA,NA,NA,false
gcacSrP3,3y3czjszan6hsnojzw5z9ps3vnar5b,3kakfy4pgyf38twqmssz5kpjhof3i6,gcacSrP3,2020-0188,2020-06-04,13:49:43,14:09:35,NA,incomplete,52,color,1,1,left,Green_Star_Stripes_4.jpg,Green_Triangle_Grid_3.jpg,Red_Star_Dots_2.jpg,left,567.5750000008848,true,high,NA,NA,NA,NA,NA,NA,NA,false
gcacSrP3,3y3czjszan6hsnojzw5z9ps3vnar5b,3kakfy4pgyf38twqmssz5kpjhof3i6,gcacSrP3,2020-0188,2020-06-04,13:49:43,14:09:35,NA,incomplete,53,color,1,1,left,Green_Plus_Dots_1.jpg,Green_Star_Stripes_4.jpg,Red_Plus_Chess_3.jpg,left,621.2100000048522,true,high,NA,NA,NA,NA,NA,NA,NA,false
gcacSrP3,3y3czjszan6hsnojzw5z9ps3vnar5b,3kakfy4pgyf38twqmssz5kpjhof3i6,gcacSrP3,2020-0188,2020-06-04,13:49:43,14:09:35,NA,incomplete,54,color,1,0,left,Red_Circle_Grid_3.jpg,Red_Plus_Dots_2.jpg,Blue_Circle_Chess_1.jpg,left,617.214999998454,true,high,NA,NA,NA,NA,NA,NA,NA,false
gcacSrP3,3y3czjszan6hsnojzw5z9ps3vnar5b,3kakfy4pgyf38twqmssz5kpjhof3i6,gcacSrP3,2020-0188,2020-06-04,13:49:43,14:09:35,NA,incomplete,55,color,1,1,right,Green_Plus_Chess_1.jpg,Purple_Plus_Dots_3.jpg,Green_Star_Grid_2.jpg,left,1443.2799999994459,false,high,NA,NA,NA,NA,NA,NA,NA,false
gcacSrP3,3y3czjszan6hsnojzw5z9ps3vnar5b,3kakfy4pgyf38twqmssz5kpjhof3i6,gcacSrP3,2020-0188,2020-06-04,13:49:43,14:09:35,NA,incomplete,56,color,1,1,right,Purple_Circle_Stripes_3.jpg,Blue_Circle_Dots_1.jpg,Purple_Triangle_Chess_4.jpg,right,740.5800000050804,true,high,NA,NA,NA,NA,NA,NA,NA,false
gcacSrP3,3y3czjszan6hsnojzw5z9ps3vnar5b,3kakfy4pgyf38twqmssz5kpjhof3i6,gcacSrP3,2020-0188,2020-06-04,13:49:43,14:09:35,NA,incomplete,57,color,1,0,right,Purple_Triangle_Dots_3.jpg,Blue_Triangle_Stripes_1.jpg,Purple_Circle_Chess_2.jpg,right,675.054999999702,true,high,NA,NA,NA,NA,NA,NA,NA,false
gcacSrP3,3y3czjszan6hsnojzw5z9ps3vnar5b,3kakfy4pgyf38twqmssz5kpjhof3i6,gcacSrP3,2020-0188,2020-06-04,13:49:43,14:09:35,NA,incomplete,58,color,1,1,left,Purple_Triangle_Stripes_2.jpg,Purple_Plus_Grid_1.jpg,Green_Triangle_Dots_4.jpg,right,1226.7700000011828,false,high,NA,NA,NA,NA,NA,NA,NA,false
gcacSrP3,3y3czjszan6hsnojzw5z9ps3vnar5b,3kakfy4pgyf38twqmssz5kpjhof3i6,gcacSrP3,2020-0188,2020-06-04,13:49:43,14:09:35,NA,incomplete,59,color,1,1,right,Purple_Star_Grid_4.jpg,Blue_Star_Stripes_2.jpg,Purple_Triangle_Chess_1.jpg,right,975.5100000039674,true,high,NA,NA,NA,NA,NA,NA,NA,false
gcacSrP3,3y3czjszan6hsnojzw5z9ps3vnar5b,3kakfy4pgyf38twqmssz5kpjhof3i6,gcacSrP3,2020-0188,2020-06-04,13:49:43,14:09:35,NA,incomplete,60,shape,0,1,left,Green_Circle_Dots_3.jpg,Purple_Circle_Chess_4.jpg,Green_Plus_Stripes_2.jpg,right,734.1799999994691,false,high,NA,NA,NA,NA,NA,NA,NA,false
gcacSrP3,3y3czjszan6hsnojzw5z9ps3vnar5b,3kakfy4pgyf38twqmssz5kpjhof3i6,gcacSrP3,2020-0188,2020-06-04,13:49:43,14:09:35,NA,incomplete,61,shape,0,0,right,Green_Star_Dots_3.jpg,Green_Plus_Stripes_4.jpg,Red_Star_Grid_1.jpg,left,1287.4549999978626,false,high,NA,NA,NA,NA,NA,NA,NA,false
gcacSrP3,3y3czjszan6hsnojzw5z9ps3vnar5b,3kakfy4pgyf38twqmssz5kpjhof3i6,gcacSrP3,2020-0188,2020-06-04,13:49:43,14:09:35,NA,incomplete,62,shape,0,1,right,Green_Star_Chess_3.jpg,Green_Plus_Stripes_2.jpg,Red_Star_Dots_4.jpg,right,1056.429999996908,true,high,NA,NA,NA,NA,NA,NA,NA,false
gcacSrP3,3y3czjszan6hsnojzw5z9ps3vnar5b,3kakfy4pgyf38twqmssz5kpjhof3i6,gcacSrP3,2020-0188,2020-06-04,13:49:43,14:09:35,NA,incomplete,63,shape,0,1,right,Purple_Star_Stripes_4.jpg,Purple_Triangle_Chess_1.jpg,Red_Star_Grid_3.jpg,left,1014.035000000149,false,high,NA,NA,NA,NA,NA,NA,NA,false
gcacSrP3,3y3czjszan6hsnojzw5z9ps3vnar5b,3kakfy4pgyf38twqmssz5kpjhof3i6,gcacSrP3,2020-0188,2020-06-04,13:49:43,14:09:35,NA,incomplete,64,shape,0,1,right,Green_Circle_Stripes_1.jpg,Green_Triangle_Dots_3.jpg,Blue_Circle_Grid_2.jpg,left,1264.3749999988358,false,high,NA,NA,NA,NA,NA,NA,NA,false
gcacSrP3,3y3czjszan6hsnojzw5z9ps3vnar5b,3kakfy4pgyf38twqmssz5kpjhof3i6,gcacSrP3,2020-0188,2020-06-04,13:49:43,14:09:35,NA,incomplete,65,shape,0,1,left,Blue_Circle_Grid_3.jpg,Green_Circle_Dots_2.jpg,Blue_Triangle_Chess_4.jpg,left,1233.7550000010524,true,high,NA,NA,NA,NA,NA,NA,NA,false
gcacSrP3,3y3czjszan6hsnojzw5z9ps3vnar5b,3kakfy4pgyf38twqmssz5kpjhof3i6,gcacSrP3,2020-0188,2020-06-04,13:49:43,14:09:35,NA,incomplete,66,shape,0,0,left,Green_Plus_Grid_3.jpg,Blue_Plus_Dots_4.jpg,Green_Star_Stripes_1.jpg,left,1188.900000001071,true,high,NA,NA,NA,NA,NA,NA,NA,false
gcacSrP3,3y3czjszan6hsnojzw5z9ps3vnar5b,3kakfy4pgyf38twqmssz5kpjhof3i6,gcacSrP3,2020-0188,2020-06-04,13:49:43,14:09:35,NA,incomplete,67,shape,0,1,right,Green_Plus_Chess_2.jpg,Green_Triangle_Grid_4.jpg,Blue_Plus_Stripes_3.jpg,left,1817.6800000001676,false,high,NA,NA,NA,NA,NA,NA,NA,false
gcacSrP3,3y3czjszan6hsnojzw5z9ps3vnar5b,3kakfy4pgyf38twqmssz5kpjhof3i6,gcacSrP3,2020-0188,2020-06-04,13:49:43,14:09:35,NA,incomplete,68,shape,0,1,left,Blue_Circle_Chess_4.jpg,Red_Circle_Stripes_2.jpg,Blue_Star_Grid_3.jpg,right,1233.619999999064,false,high,NA,NA,NA,NA,NA,NA,NA,false
gcacSrP3,3y3czjszan6hsnojzw5z9ps3vnar5b,3kakfy4pgyf38twqmssz5kpjhof3i6,gcacSrP3,2020-0188,2020-06-04,13:49:43,14:09:35,NA,incomplete,69,shape,0,1,right,Green_Triangle_Dots_1.jpg,Green_Star_Grid_2.jpg,Purple_Triangle_Stripes_4.jpg,right,1296.7799999970011,true,high,NA,NA,NA,NA,NA,NA,NA,false
gcacSrP3,3y3czjszan6hsnojzw5z9ps3vnar5b,3kakfy4pgyf38twqmssz5kpjhof3i6,gcacSrP3,2020-0188,2020-06-04,13:49:43,14:09:35,NA,incomplete,70,color,1,1,right,Blue_Plus_Grid_1.jpg,Green_Plus_Chess_2.jpg,Blue_Triangle_Stripes_4.jpg,right,1393.9000000027008,true,high,NA,NA,NA,NA,NA,NA,NA,false
gcacSrP3,3y3czjszan6hsnojzw5z9ps3vnar5b,3kakfy4pgyf38twqmssz5kpjhof3i6,gcacSrP3,2020-0188,2020-06-04,13:49:43,14:09:35,NA,incomplete,71,color,1,1,right,Blue_Plus_Grid_2.jpg,Green_Plus_Stripes_3.jpg,Blue_Circle_Chess_4.jpg,left,1042.8699999975506,false,high,NA,NA,NA,NA,NA,NA,NA,false
gcacSrP3,3y3czjszan6hsnojzw5z9ps3vnar5b,3kakfy4pgyf38twqmssz5kpjhof3i6,gcacSrP3,2020-0188,2020-06-04,13:49:43,14:09:35,NA,incomplete,72,color,1,1,left,Blue_Plus_Stripes_4.jpg,Blue_Triangle_Chess_2.jpg,Red_Plus_Dots_3.jpg,left,1784.0800000048475,true,high,NA,NA,NA,NA,NA,NA,NA,false
gcacSrP3,3y3czjszan6hsnojzw5z9ps3vnar5b,3kakfy4pgyf38twqmssz5kpjhof3i6,gcacSrP3,2020-0188,2020-06-04,13:49:43,14:09:35,NA,incomplete,73,color,1,0,left,Green_Circle_Stripes_3.jpg,Green_Plus_Chess_2.jpg,Purple_Circle_Grid_4.jpg,left,900.3850000008242,true,high,NA,NA,NA,NA,NA,NA,NA,false
gcacSrP3,3y3czjszan6hsnojzw5z9ps3vnar5b,3kakfy4pgyf38twqmssz5kpjhof3i6,gcacSrP3,2020-0188,2020-06-04,13:49:43,14:09:35,NA,incomplete,74,color,1,1,left,Green_Circle_Dots_4.jpg,Green_Star_Grid_2.jpg,Purple_Circle_Stripes_3.jpg,right,1275.2249999976484,false,high,NA,NA,NA,NA,NA,NA,NA,false
gcacSrP3,3y3czjszan6hsnojzw5z9ps3vnar5b,3kakfy4pgyf38twqmssz5kpjhof3i6,gcacSrP3,2020-0188,2020-06-04,13:49:43,14:09:35,NA,incomplete,75,color,1,1,left,Purple_Star_Stripes_2.jpg,Purple_Triangle_Chess_4.jpg,Blue_Star_Dots_1.jpg,left,1784.0900000010151,true,high,NA,NA,NA,NA,NA,NA,NA,false
gcacSrP3,3y3czjszan6hsnojzw5z9ps3vnar5b,3kakfy4pgyf38twqmssz5kpjhof3i6,gcacSrP3,2020-0188,2020-06-04,13:49:43,14:09:35,NA,incomplete,76,color,1,1,right,Red_Circle_Stripes_2.jpg,Purple_Circle_Dots_3.jpg,Red_Plus_Grid_1.jpg,left,1278.9800000027753,false,high,NA,NA,NA,NA,NA,NA,NA,false
gcacSrP3,3y3czjszan6hsnojzw5z9ps3vnar5b,3kakfy4pgyf38twqmssz5kpjhof3i6,gcacSrP3,2020-0188,2020-06-04,13:49:43,14:09:35,NA,incomplete,77,color,1,1,right,Green_Star_Chess_2.jpg,Blue_Star_Grid_3.jpg,Green_Circle_Stripes_1.jpg,left,1826.7400000039488,false,high,NA,NA,NA,NA,NA,NA,NA,false
gcacSrP3,3y3czjszan6hsnojzw5z9ps3vnar5b,3kakfy4pgyf38twqmssz5kpjhof3i6,gcacSrP3,2020-0188,2020-06-04,13:49:43,14:09:35,NA,incomplete,78,color,1,0,left,Green_Plus_Dots_4.jpg,Green_Circle_Chess_3.jpg,Red_Plus_Stripes_2.jpg,right,942.7450000002282,false,high,NA,NA,NA,NA,NA,NA,NA,false
gcacSrP3,3y3czjszan6hsnojzw5z9ps3vnar5b,3kakfy4pgyf38twqmssz5kpjhof3i6,gcacSrP3,2020-0188,2020-06-04,13:49:43,14:09:35,NA,incomplete,79,color,1,0,left,Purple_Star_Dots_4.jpg,Purple_Triangle_Stripes_2.jpg,Blue_Star_Chess_3.jpg,left,1429.6449999965262,true,high,NA,NA,NA,NA,NA,NA,NA,false
gcacSrP3,3y3czjszan6hsnojzw5z9ps3vnar5b,3kakfy4pgyf38twqmssz5kpjhof3i6,gcacSrP3,2020-0188,2020-06-04,13:49:43,14:09:35,NA,incomplete,80,shape,0,1,left,Red_Star_Stripes_1.jpg,Green_Star_Chess_3.jpg,Red_Circle_Dots_2.jpg,right,1225.9350000021514,false,high,NA,NA,NA,NA,NA,NA,NA,false
gcacSrP3,3y3czjszan6hsnojzw5z9ps3vnar5b,3kakfy4pgyf38twqmssz5kpjhof3i6,gcacSrP3,2020-0188,2020-06-04,13:49:43,14:09:35,NA,incomplete,81,shape,0,0,left,Red_Plus_Grid_2.jpg,Blue_Plus_Stripes_1.jpg,Red_Triangle_Dots_4.jpg,left,934.339999999851,true,high,NA,NA,NA,NA,NA,NA,NA,false
gcacSrP3,3y3czjszan6hsnojzw5z9ps3vnar5b,3kakfy4pgyf38twqmssz5kpjhof3i6,gcacSrP3,2020-0188,2020-06-04,13:49:43,14:09:35,NA,incomplete,82,shape,0,0,left,Red_Circle_Dots_2.jpg,Purple_Circle_Stripes_1.jpg,Red_Plus_Grid_3.jpg,right,1183.4600000001956,false,high,NA,NA,NA,NA,NA,NA,NA,false
gcacSrP3,3y3czjszan6hsnojzw5z9ps3vnar5b,3kakfy4pgyf38twqmssz5kpjhof3i6,gcacSrP3,2020-0188,2020-06-04,13:49:43,14:09:35,NA,incomplete,83,shape,0,0,right,Green_Plus_Grid_3.jpg,Green_Star_Dots_1.jpg,Red_Plus_Stripes_2.jpg,left,766.624999996624,false,high,NA,NA,NA,NA,NA,NA,NA,false
gcacSrP3,3y3czjszan6hsnojzw5z9ps3vnar5b,3kakfy4pgyf38twqmssz5kpjhof3i6,gcacSrP3,2020-0188,2020-06-04,13:49:43,14:09:35,NA,incomplete,84,shape,0,1,right,Purple_Circle_Grid_2.jpg,Purple_Plus_Stripes_3.jpg,Green_Circle_Dots_4.jpg,left,668.2749999964144,false,high,NA,NA,NA,NA,NA,NA,NA,false
gcacSrP3,3y3czjszan6hsnojzw5z9ps3vnar5b,3kakfy4pgyf38twqmssz5kpjhof3i6,gcacSrP3,2020-0188,2020-06-04,13:49:43,14:09:35,NA,incomplete,85,shape,0,1,right,Red_Triangle_Grid_1.jpg,Red_Circle_Dots_2.jpg,Purple_Triangle_Stripes_3.jpg,left,730.4750000038184,false,high,NA,NA,NA,NA,NA,NA,NA,false
gcacSrP3,3y3czjszan6hsnojzw5z9ps3vnar5b,3kakfy4pgyf38twqmssz5kpjhof3i6,gcacSrP3,2020-0188,2020-06-04,13:49:43,14:09:35,NA,incomplete,86,shape,0,0,left,Red_Star_Stripes_4.jpg,Green_Star_Grid_1.jpg,Red_Triangle_Dots_2.jpg,right,637.9749999978812,false,high,NA,NA,NA,NA,NA,NA,NA,false
gcacSrP3,3y3czjszan6hsnojzw5z9ps3vnar5b,3kakfy4pgyf38twqmssz5kpjhof3i6,gcacSrP3,2020-0188,2020-06-04,13:49:43,14:09:35,NA,incomplete,87,shape,0,1,left,Red_Star_Grid_4.jpg,Purple_Star_Dots_1.jpg,Red_Plus_Chess_3.jpg,right,1013.424999997369,false,high,NA,NA,NA,NA,NA,NA,NA,false
gcacSrP3,3y3czjszan6hsnojzw5z9ps3vnar5b,3kakfy4pgyf38twqmssz5kpjhof3i6,gcacSrP3,2020-0188,2020-06-04,13:49:43,14:09:35,NA,incomplete,88,shape,0,1,right,Purple_Triangle_Grid_3.jpg,Purple_Circle_Chess_4.jpg,Green_Triangle_Dots_2.jpg,left,1505.6200000036042,false,high,NA,NA,NA,NA,NA,NA,NA,false
gcacSrP3,3y3czjszan6hsnojzw5z9ps3vnar5b,3kakfy4pgyf38twqmssz5kpjhof3i6,gcacSrP3,2020-0188,2020-06-04,13:49:43,14:09:35,NA,incomplete,89,shape,0,1,right,Red_Triangle_Dots_3.jpg,Red_Plus_Grid_4.jpg,Purple_Triangle_Stripes_1.jpg,right,1061.0749999977415,true,high,NA,NA,NA,NA,NA,NA,NA,false
gcacSrP3,3y3czjszan6hsnojzw5z9ps3vnar5b,3kakfy4pgyf38twqmssz5kpjhof3i6,gcacSrP3,2020-0188,2020-06-04,13:49:43,14:09:35,NA,incomplete,90,color,1,1,right,Blue_Plus_Stripes_3.jpg,Green_Plus_Dots_1.jpg,Blue_Star_Grid_2.jpg,right,1011.1050000049872,true,high,NA,NA,NA,NA,NA,NA,NA,false
gcacSrP3,3y3czjszan6hsnojzw5z9ps3vnar5b,3kakfy4pgyf38twqmssz5kpjhof3i6,gcacSrP3,2020-0188,2020-06-04,13:49:43,14:09:35,NA,incomplete,91,color,1,1,left,Green_Plus_Stripes_4.jpg,Green_Star_Grid_1.jpg,Red_Plus_Dots_2.jpg,left,936.5250000045635,true,high,NA,NA,NA,NA,NA,NA,NA,false
gcacSrP3,3y3czjszan6hsnojzw5z9ps3vnar5b,3kakfy4pgyf38twqmssz5kpjhof3i6,gcacSrP3,2020-0188,2020-06-04,13:49:43,14:09:35,NA,incomplete,92,color,1,0,right,Red_Star_Stripes_1.jpg,Green_Star_Chess_4.jpg,Red_Plus_Dots_3.jpg,right,931.9600000015926,true,high,NA,NA,NA,NA,NA,NA,NA,false
gcacSrP3,3y3czjszan6hsnojzw5z9ps3vnar5b,3kakfy4pgyf38twqmssz5kpjhof3i6,gcacSrP3,2020-0188,2020-06-04,13:49:43,14:09:35,NA,incomplete,93,color,1,1,right,Green_Plus_Dots_3.jpg,Blue_Plus_Chess_2.jpg,Green_Triangle_Stripes_4.jpg,left,1170.399999995483,false,high,NA,NA,NA,NA,NA,NA,NA,false
gcacSrP3,3y3czjszan6hsnojzw5z9ps3vnar5b,3kakfy4pgyf38twqmssz5kpjhof3i6,gcacSrP3,2020-0188,2020-06-04,13:49:43,14:09:35,NA,incomplete,94,color,1,1,right,Purple_Plus_Grid_3.jpg,Blue_Plus_Chess_4.jpg,Purple_Star_Stripes_1.jpg,right,674.5900000024121,true,high,NA,NA,NA,NA,NA,NA,NA,false
gcacSrP3,3y3czjszan6hsnojzw5z9ps3vnar5b,3kakfy4pgyf38twqmssz5kpjhof3i6,gcacSrP3,2020-0188,2020-06-04,13:49:43,14:09:35,NA,incomplete,95,color,1,1,left,Blue_Star_Grid_4.jpg,Blue_Triangle_Dots_1.jpg,Green_Star_Stripes_3.jpg,left,780.9349999951664,true,high,NA,NA,NA,NA,NA,NA,NA,false
gcacSrP3,3y3czjszan6hsnojzw5z9ps3vnar5b,3kakfy4pgyf38twqmssz5kpjhof3i6,gcacSrP3,2020-0188,2020-06-04,13:49:43,14:09:35,NA,incomplete,96,color,1,1,right,Purple_Triangle_Stripes_1.jpg,Blue_Triangle_Chess_2.jpg,Purple_Plus_Grid_4.jpg,right,816.9350000025006,true,high,NA,NA,NA,NA,NA,NA,NA,false
gcacSrP3,3y3czjszan6hsnojzw5z9ps3vnar5b,3kakfy4pgyf38twqmssz5kpjhof3i6,gcacSrP3,2020-0188,2020-06-04,13:49:43,14:09:35,NA,incomplete,97,color,1,1,left,Red_Star_Grid_3.jpg,Red_Plus_Stripes_4.jpg,Blue_Star_Dots_1.jpg,left,891.729999995674,true,high,NA,NA,NA,NA,NA,NA,NA,false
gcacSrP3,3y3czjszan6hsnojzw5z9ps3vnar5b,3kakfy4pgyf38twqmssz5kpjhof3i6,gcacSrP3,2020-0188,2020-06-04,13:49:43,14:09:35,NA,incomplete,98,color,1,1,left,Green_Triangle_Chess_1.jpg,Green_Circle_Dots_2.jpg,Blue_Triangle_Stripes_4.jpg,left,851.9749999977648,true,high,NA,NA,NA,NA,NA,NA,NA,false
gcacSrP3,3y3czjszan6hsnojzw5z9ps3vnar5b,3kakfy4pgyf38twqmssz5kpjhof3i6,gcacSrP3,2020-0188,2020-06-04,13:49:43,14:09:35,NA,incomplete,99,color,1,1,right,Red_Circle_Chess_2.jpg,Blue_Circle_Dots_3.jpg,Red_Triangle_Grid_1.jpg,right,886.7400000016205,true,high,NA,NA,NA,NA,NA,NA,NA,false
gcacSrP3,3y3czjszan6hsnojzw5z9ps3vnar5b,3kakfy4pgyf38twqmssz5kpjhof3i6,gcacSrP3,2020-0188,2020-06-04,13:49:43,14:09:35,NA,incomplete,100,shape,0,1,right,Purple_Circle_Stripes_4.jpg,Purple_Plus_Chess_2.jpg,Green_Circle_Grid_1.jpg,left,683.4199999939883,false,high,NA,NA,NA,NA,NA,NA,NA,false
gcacSrP3,3y3czjszan6hsnojzw5z9ps3vnar5b,3kakfy4pgyf38twqmssz5kpjhof3i6,gcacSrP3,2020-0188,2020-06-04,13:49:43,14:09:35,NA,incomplete,101,shape,0,1,right,Purple_Star_Dots_3.jpg,Purple_Plus_Grid_2.jpg,Blue_Star_Stripes_4.jpg,left,795.0500000006286,false,high,NA,NA,NA,NA,NA,NA,NA,false
gcacSrP3,3y3czjszan6hsnojzw5z9ps3vnar5b,3kakfy4pgyf38twqmssz5kpjhof3i6,gcacSrP3,2020-0188,2020-06-04,13:49:43,14:09:35,NA,incomplete,102,shape,0,1,left,Blue_Plus_Stripes_4.jpg,Red_Plus_Dots_2.jpg,Blue_Star_Grid_1.jpg,left,950.6949999995995,true,high,NA,NA,NA,NA,NA,NA,NA,false
gcacSrP3,3y3czjszan6hsnojzw5z9ps3vnar5b,3kakfy4pgyf38twqmssz5kpjhof3i6,gcacSrP3,2020-0188,2020-06-04,13:49:43,14:09:35,NA,incomplete,103,shape,0,1,right,Red_Triangle_Stripes_2.jpg,Red_Plus_Grid_3.jpg,Blue_Triangle_Chess_1.jpg,right,1349.2100000004284,true,high,NA,NA,NA,NA,NA,NA,NA,false
gcacSrP3,3y3czjszan6hsnojzw5z9ps3vnar5b,3kakfy4pgyf38twqmssz5kpjhof3i6,gcacSrP3,2020-0188,2020-06-04,13:49:43,14:09:35,NA,incomplete,104,shape,0,0,left,Red_Circle_Dots_1.jpg,Purple_Circle_Chess_2.jpg,Red_Star_Grid_3.jpg,left,990.6750000008615,true,high,NA,NA,NA,NA,NA,NA,NA,false
gcacSrP3,3y3czjszan6hsnojzw5z9ps3vnar5b,3kakfy4pgyf38twqmssz5kpjhof3i6,gcacSrP3,2020-0188,2020-06-04,13:49:43,14:09:35,NA,incomplete,105,shape,0,0,left,Red_Triangle_Dots_2.jpg,Purple_Triangle_Chess_4.jpg,Red_Star_Grid_1.jpg,right,995.6500000044471,false,high,NA,NA,NA,NA,NA,NA,NA,false
gcacSrP3,3y3czjszan6hsnojzw5z9ps3vnar5b,3kakfy4pgyf38twqmssz5kpjhof3i6,gcacSrP3,2020-0188,2020-06-04,13:49:43,14:09:35,NA,incomplete,106,shape,0,1,left,Red_Triangle_Chess_3.jpg,Green_Triangle_Grid_2.jpg,Red_Star_Stripes_1.jpg,right,793.4999999997672,false,high,NA,NA,NA,NA,NA,NA,NA,false
gcacSrP3,3y3czjszan6hsnojzw5z9ps3vnar5b,3kakfy4pgyf38twqmssz5kpjhof3i6,gcacSrP3,2020-0188,2020-06-04,13:49:43,14:09:35,NA,incomplete,107,shape,0,0,right,Red_Star_Stripes_4.jpg,Red_Circle_Chess_1.jpg,Blue_Star_Grid_2.jpg,left,761.3800000034971,false,high,NA,NA,NA,NA,NA,NA,NA,false
gcacSrP3,3y3czjszan6hsnojzw5z9ps3vnar5b,3kakfy4pgyf38twqmssz5kpjhof3i6,gcacSrP3,2020-0188,2020-06-04,13:49:43,14:09:35,NA,incomplete,108,shape,0,1,right,Red_Plus_Grid_2.jpg,Red_Triangle_Chess_3.jpg,Blue_Plus_Stripes_4.jpg,left,700.7900000025984,false,high,NA,NA,NA,NA,NA,NA,NA,false
gcacSrP3,3y3czjszan6hsnojzw5z9ps3vnar5b,3kakfy4pgyf38twqmssz5kpjhof3i6,gcacSrP3,2020-0188,2020-06-04,13:49:43,14:09:35,NA,incomplete,109,shape,0,1,left,Green_Triangle_Chess_4.jpg,Purple_Triangle_Stripes_3.jpg,Green_Circle_Grid_2.jpg,right,1028.5900000017136,false,high,NA,NA,NA,NA,NA,NA,NA,false
gcacSrP3,3y3czjszan6hsnojzw5z9ps3vnar5b,3kakfy4pgyf38twqmssz5kpjhof3i6,gcacSrP3,2020-0188,2020-06-04,13:49:43,14:09:35,NA,incomplete,110,color,1,1,left,Blue_Plus_Grid_2.jpg,Blue_Star_Chess_1.jpg,Green_Plus_Dots_3.jpg,right,1435.3750000009313,false,high,NA,NA,NA,NA,NA,NA,NA,false
gcacSrP3,3y3czjszan6hsnojzw5z9ps3vnar5b,3kakfy4pgyf38twqmssz5kpjhof3i6,gcacSrP3,2020-0188,2020-06-04,13:49:43,14:09:35,NA,incomplete,111,color,1,1,left,Purple_Plus_Grid_4.jpg,Purple_Circle_Dots_2.jpg,Green_Plus_Stripes_1.jpg,left,668.0649999979651,true,high,NA,NA,NA,NA,NA,NA,NA,false
gcacSrP3,3y3czjszan6hsnojzw5z9ps3vnar5b,3kakfy4pgyf38twqmssz5kpjhof3i6,gcacSrP3,2020-0188,2020-06-04,13:49:43,14:09:35,NA,incomplete,112,color,1,1,right,Purple_Circle_Chess_3.jpg,Green_Circle_Dots_1.jpg,Purple_Star_Stripes_4.jpg,right,586.1349999977974,true,high,NA,NA,NA,NA,NA,NA,NA,false
gcacSrP3,3y3czjszan6hsnojzw5z9ps3vnar5b,3kakfy4pgyf38twqmssz5kpjhof3i6,gcacSrP3,2020-0188,2020-06-04,13:49:43,14:09:35,NA,incomplete,113,color,1,1,left,Red_Star_Chess_2.jpg,Red_Plus_Stripes_1.jpg,Green_Star_Dots_3.jpg,left,915.2549999998882,true,high,NA,NA,NA,NA,NA,NA,NA,false
gcacSrP3,3y3czjszan6hsnojzw5z9ps3vnar5b,3kakfy4pgyf38twqmssz5kpjhof3i6,gcacSrP3,2020-0188,2020-06-04,13:49:43,14:09:35,NA,incomplete,114,color,1,1,right,Red_Triangle_Chess_4.jpg,Purple_Triangle_Dots_3.jpg,Red_Circle_Grid_2.jpg,right,754.4249999992317,true,high,NA,NA,NA,NA,NA,NA,NA,false
gcacSrP3,3y3czjszan6hsnojzw5z9ps3vnar5b,3kakfy4pgyf38twqmssz5kpjhof3i6,gcacSrP3,2020-0188,2020-06-04,13:49:43,14:09:35,NA,incomplete,115,color,1,1,left,Red_Circle_Dots_4.jpg,Red_Plus_Stripes_3.jpg,Blue_Circle_Chess_1.jpg,left,626.7749999968801,true,high,NA,NA,NA,NA,NA,NA,NA,false
gcacSrP3,3y3czjszan6hsnojzw5z9ps3vnar5b,3kakfy4pgyf38twqmssz5kpjhof3i6,gcacSrP3,2020-0188,2020-06-04,13:49:43,14:09:35,NA,incomplete,116,color,1,1,left,Red_Triangle_Grid_2.jpg,Red_Circle_Dots_1.jpg,Purple_Triangle_Chess_4.jpg,left,622.5449999982957,true,high,NA,NA,NA,NA,NA,NA,NA,false
gcacSrP3,3y3czjszan6hsnojzw5z9ps3vnar5b,3kakfy4pgyf38twqmssz5kpjhof3i6,gcacSrP3,2020-0188,2020-06-04,13:49:43,14:09:35,NA,incomplete,117,color,1,1,right,Purple_Circle_Dots_3.jpg,Red_Circle_Grid_2.jpg,Purple_Triangle_Stripes_1.jpg,right,728.5800000026356,true,high,NA,NA,NA,NA,NA,NA,NA,false
gcacSrP3,3y3czjszan6hsnojzw5z9ps3vnar5b,3kakfy4pgyf38twqmssz5kpjhof3i6,gcacSrP3,2020-0188,2020-06-04,13:49:43,14:09:35,NA,incomplete,118,color,1,0,left,Purple_Circle_Grid_3.jpg,Purple_Triangle_Chess_1.jpg,Red_Circle_Stripes_4.jpg,left,683.5350000037579,true,high,NA,NA,NA,NA,NA,NA,NA,false
gcacSrP3,3y3czjszan6hsnojzw5z9ps3vnar5b,3kakfy4pgyf38twqmssz5kpjhof3i6,gcacSrP3,2020-0188,2020-06-04,13:49:43,14:09:35,NA,incomplete,119,color,1,1,left,Purple_Circle_Dots_4.jpg,Purple_Triangle_Stripes_3.jpg,Red_Circle_Chess_2.jpg,left,586.5699999995995,true,high,NA,NA,NA,NA,NA,NA,NA,false
gcacSrP3,3y3czjszan6hsnojzw5z9ps3vnar5b,3kakfy4pgyf38twqmssz5kpjhof3i6,gcacSrP3,2020-0188,2020-06-04,13:49:43,14:09:35,NA,incomplete,120,race,2,1,left,A_M_04.jpg,A_F_05.jpg,C_M_02.jpg,NA,NA,NA,high,NA,NA,NA,NA,NA,NA,NA,false
gcacSrP3,3y3czjszan6hsnojzw5z9ps3vnar5b,3kakfy4pgyf38twqmssz5kpjhof3i6,gcacSrP3,2020-0188,2020-06-04,13:49:43,14:09:35,NA,incomplete,121,race,2,1,right,C_M_05.jpg,A_M_07.jpg,C_F_13.jpg,left,1029.7100000025239,false,high,NA,NA,NA,NA,NA,NA,NA,false
gcacSrP3,3y3czjszan6hsnojzw5z9ps3vnar5b,3kakfy4pgyf38twqmssz5kpjhof3i6,gcacSrP3,2020-0188,2020-06-04,13:49:43,14:09:35,NA,incomplete,122,race,2,0,left,A_F_12.jpg,A_M_14.jpg,C_F_05.jpg,right,1004.3799999984913,false,high,NA,NA,NA,NA,NA,NA,NA,false
gcacSrP3,3y3czjszan6hsnojzw5z9ps3vnar5b,3kakfy4pgyf38twqmssz5kpjhof3i6,gcacSrP3,2020-0188,2020-06-04,13:49:43,14:09:35,NA,incomplete,123,race,2,1,left,C_M_02.jpg,C_F_03.jpg,A_M_16.jpg,right,1458.4550000000745,false,high,NA,NA,NA,NA,NA,NA,NA,false
gcacSrP3,3y3czjszan6hsnojzw5z9ps3vnar5b,3kakfy4pgyf38twqmssz5kpjhof3i6,gcacSrP3,2020-0188,2020-06-04,13:49:43,14:09:35,NA,incomplete,124,race,2,0,left,C_F_16.jpg,C_M_03.jpg,A_F_13.jpg,none,0,false,high,NA,NA,NA,NA,NA,NA,NA,false
gcacSrP3,3y3czjszan6hsnojzw5z9ps3vnar5b,3kakfy4pgyf38twqmssz5kpjhof3i6,gcacSrP3,2020-0188,2020-06-04,13:49:43,14:09:35,NA,incomplete,125,race,2,1,right,C_M_04.jpg,A_M_16.jpg,C_F_13.jpg,left,802.604999997071,false,high,NA,NA,NA,NA,NA,NA,NA,false
gcacSrP3,3y3czjszan6hsnojzw5z9ps3vnar5b,3kakfy4pgyf38twqmssz5kpjhof3i6,gcacSrP3,2020-0188,2020-06-04,13:49:43,14:09:35,NA,incomplete,126,race,2,1,right,C_F_08.jpg,A_F_02.jpg,C_M_11.jpg,right,1578.6149999984773,true,high,NA,NA,NA,NA,NA,NA,NA,false
gcacSrP3,3y3czjszan6hsnojzw5z9ps3vnar5b,3kakfy4pgyf38twqmssz5kpjhof3i6,gcacSrP3,2020-0188,2020-06-04,13:49:43,14:09:35,NA,incomplete,127,race,2,1,left,C_F_15.jpg,C_M_14.jpg,A_F_04.jpg,left,1187.58499999973,true,high,NA,NA,NA,NA,NA,NA,NA,false
gcacSrP3,3y3czjszan6hsnojzw5z9ps3vnar5b,3kakfy4pgyf38twqmssz5kpjhof3i6,gcacSrP3,2020-0188,2020-06-04,13:49:43,14:09:35,NA,incomplete,128,race,2,1,right,C_F_01.jpg,A_F_05.jpg,C_M_10.jpg,right,1307.8150000000605,true,high,NA,NA,NA,NA,NA,NA,NA,false
gcacSrP3,3y3czjszan6hsnojzw5z9ps3vnar5b,3kakfy4pgyf38twqmssz5kpjhof3i6,gcacSrP3,2020-0188,2020-06-04,13:49:43,14:09:35,NA,incomplete,129,race,2,1,left,A_M_08.jpg,A_F_11.jpg,C_M_07.jpg,left,834.9149999994552,true,high,NA,NA,NA,NA,NA,NA,NA,false
gcacSrP3,3y3czjszan6hsnojzw5z9ps3vnar5b,3kakfy4pgyf38twqmssz5kpjhof3i6,gcacSrP3,2020-0188,2020-06-04,13:49:43,14:09:35,NA,incomplete,130,race,2,1,left,A_F_15.jpg,A_M_05.jpg,C_F_07.jpg,left,968.7400000038324,true,high,NA,NA,NA,NA,NA,NA,NA,false
gcacSrP3,3y3czjszan6hsnojzw5z9ps3vnar5b,3kakfy4pgyf38twqmssz5kpjhof3i6,gcacSrP3,2020-0188,2020-06-04,13:49:43,14:09:35,NA,incomplete,131,race,2,0,left,A_F_08.jpg,A_M_10.jpg,C_F_04.jpg,left,889.6200000017416,true,high,NA,NA,NA,NA,NA,NA,NA,false
gcacSrP3,3y3czjszan6hsnojzw5z9ps3vnar5b,3kakfy4pgyf38twqmssz5kpjhof3i6,gcacSrP3,2020-0188,2020-06-04,13:49:43,14:09:35,NA,incomplete,132,race,2,1,left,C_F_01.jpg,C_M_06.jpg,A_F_04.jpg,left,1288.5949999981094,true,high,NA,NA,NA,NA,NA,NA,NA,false
gcacSrP3,3y3czjszan6hsnojzw5z9ps3vnar5b,3kakfy4pgyf38twqmssz5kpjhof3i6,gcacSrP3,2020-0188,2020-06-04,13:49:43,14:09:35,NA,incomplete,133,race,2,0,right,A_M_12.jpg,C_M_01.jpg,A_F_06.jpg,right,904.625000002794,true,high,NA,NA,NA,NA,NA,NA,NA,false
gcacSrP3,3y3czjszan6hsnojzw5z9ps3vnar5b,3kakfy4pgyf38twqmssz5kpjhof3i6,gcacSrP3,2020-0188,2020-06-04,13:49:43,14:09:35,NA,incomplete,134,race,2,1,left,A_F_03.jpg,A_M_14.jpg,C_F_16.jpg,left,1421.1999999969266,true,high,NA,NA,NA,NA,NA,NA,NA,false
gcacSrP3,3y3czjszan6hsnojzw5z9ps3vnar5b,3kakfy4pgyf38twqmssz5kpjhof3i6,gcacSrP3,2020-0188,2020-06-04,13:49:43,14:09:35,NA,incomplete,135,race,2,1,right,C_M_12.jpg,A_M_08.jpg,C_F_15.jpg,right,1058.0650000047171,true,high,NA,NA,NA,NA,NA,NA,NA,false
gcacSrP3,3y3czjszan6hsnojzw5z9ps3vnar5b,3kakfy4pgyf38twqmssz5kpjhof3i6,gcacSrP3,2020-0188,2020-06-04,13:49:43,14:09:35,NA,incomplete,136,race,2,0,right,C_F_09.jpg,A_F_13.jpg,C_M_01.jpg,right,1201.2549999998882,true,high,NA,NA,NA,NA,NA,NA,NA,false
gcacSrP3,3y3czjszan6hsnojzw5z9ps3vnar5b,3kakfy4pgyf38twqmssz5kpjhof3i6,gcacSrP3,2020-0188,2020-06-04,13:49:43,14:09:35,NA,incomplete,137,race,2,1,right,C_M_16.jpg,A_M_12.jpg,C_F_11.jpg,right,1764.3699999972014,true,high,NA,NA,NA,NA,NA,NA,NA,false
gcacSrP3,3y3czjszan6hsnojzw5z9ps3vnar5b,3kakfy4pgyf38twqmssz5kpjhof3i6,gcacSrP3,2020-0188,2020-06-04,13:49:43,14:09:35,NA,incomplete,138,race,2,1,right,C_F_04.jpg,A_F_12.jpg,C_M_10.jpg,right,1576.4300000009825,true,high,NA,NA,NA,NA,NA,NA,NA,false
gcacSrP3,3y3czjszan6hsnojzw5z9ps3vnar5b,3kakfy4pgyf38twqmssz5kpjhof3i6,gcacSrP3,2020-0188,2020-06-04,13:49:43,14:09:35,NA,incomplete,139,race,2,1,right,C_F_15.jpg,A_F_05.jpg,C_M_01.jpg,right,944.8249999985565,true,high,NA,NA,NA,NA,NA,NA,NA,false
gcacSrP3,3y3czjszan6hsnojzw5z9ps3vnar5b,3kakfy4pgyf38twqmssz5kpjhof3i6,gcacSrP3,2020-0188,2020-06-04,13:49:43,14:09:35,NA,incomplete,140,gender,3,1,right,A_F_07.jpg,A_M_13.jpg,C_F_16.jpg,right,1460.630000001518,true,high,NA,NA,NA,NA,NA,NA,NA,false
gcacSrP3,3y3czjszan6hsnojzw5z9ps3vnar5b,3kakfy4pgyf38twqmssz5kpjhof3i6,gcacSrP3,2020-0188,2020-06-04,13:49:43,14:09:35,NA,incomplete,141,gender,3,0,right,C_F_11.jpg,C_M_05.jpg,A_F_10.jpg,left,1750.139999996405,false,high,NA,NA,NA,NA,NA,NA,NA,false
gcacSrP3,3y3czjszan6hsnojzw5z9ps3vnar5b,3kakfy4pgyf38twqmssz5kpjhof3i6,gcacSrP3,2020-0188,2020-06-04,13:49:43,14:09:35,NA,incomplete,142,gender,3,1,left,A_F_08.jpg,C_F_05.jpg,A_M_14.jpg,right,1640.6550000029383,false,high,NA,NA,NA,NA,NA,NA,NA,false
gcacSrP3,3y3czjszan6hsnojzw5z9ps3vnar5b,3kakfy4pgyf38twqmssz5kpjhof3i6,gcacSrP3,2020-0188,2020-06-04,13:49:43,14:09:35,NA,incomplete,143,gender,3,1,left,C_F_15.jpg,A_F_07.jpg,C_M_02.jpg,right,1152.0849999943748,false,high,NA,NA,NA,NA,NA,NA,NA,false
gcacSrP3,3y3czjszan6hsnojzw5z9ps3vnar5b,3kakfy4pgyf38twqmssz5kpjhof3i6,gcacSrP3,2020-0188,2020-06-04,13:49:43,14:09:35,NA,incomplete,144,gender,3,1,right,C_F_06.jpg,C_M_04.jpg,A_F_13.jpg,left,1313.6650000014342,false,high,NA,NA,NA,NA,NA,NA,NA,false
gcacSrP3,3y3czjszan6hsnojzw5z9ps3vnar5b,3kakfy4pgyf38twqmssz5kpjhof3i6,gcacSrP3,2020-0188,2020-06-04,13:49:43,14:09:35,NA,incomplete,145,gender,3,0,right,A_M_05.jpg,A_F_16.jpg,C_M_10.jpg,left,1309.9050000018906,false,high,NA,NA,NA,NA,NA,NA,NA,false
gcacSrP3,3y3czjszan6hsnojzw5z9ps3vnar5b,3kakfy4pgyf38twqmssz5kpjhof3i6,gcacSrP3,2020-0188,2020-06-04,13:49:43,14:09:35,NA,incomplete,146,gender,3,1,left,C_F_04.jpg,A_F_16.jpg,C_M_09.jpg,right,915.0200000004843,false,high,NA,NA,NA,NA,NA,NA,NA,false
gcacSrP3,3y3czjszan6hsnojzw5z9ps3vnar5b,3kakfy4pgyf38twqmssz5kpjhof3i6,gcacSrP3,2020-0188,2020-06-04,13:49:43,14:09:35,NA,incomplete,147,gender,3,1,right,A_M_13.jpg,A_F_08.jpg,C_M_06.jpg,right,1883.014999999432,true,high,NA,NA,NA,NA,NA,NA,NA,false
gcacSrP3,3y3czjszan6hsnojzw5z9ps3vnar5b,3kakfy4pgyf38twqmssz5kpjhof3i6,gcacSrP3,2020-0188,2020-06-04,13:49:43,14:09:35,NA,incomplete,148,gender,3,1,left,A_M_11.jpg,C_M_14.jpg,A_F_16.jpg,left,1234.380000001751,true,high,NA,NA,NA,NA,NA,NA,NA,false
gcacSrP3,3y3czjszan6hsnojzw5z9ps3vnar5b,3kakfy4pgyf38twqmssz5kpjhof3i6,gcacSrP3,2020-0188,2020-06-04,13:49:43,14:09:35,NA,incomplete,149,gender,3,0,left,C_M_14.jpg,A_M_05.jpg,C_F_01.jpg,left,1010.0899999961257,true,high,NA,NA,NA,NA,NA,NA,NA,false
gcacSrP3,3y3czjszan6hsnojzw5z9ps3vnar5b,3kakfy4pgyf38twqmssz5kpjhof3i6,gcacSrP3,2020-0188,2020-06-04,13:49:43,14:09:35,NA,incomplete,150,gender,3,1,left,A_M_02.jpg,C_M_12.jpg,A_F_05.jpg,right,1106.629999994766,false,high,NA,NA,NA,NA,NA,NA,NA,false
gcacSrP3,3y3czjszan6hsnojzw5z9ps3vnar5b,3kakfy4pgyf38twqmssz5kpjhof3i6,gcacSrP3,2020-0188,2020-06-04,13:49:43,14:09:35,NA,incomplete,151,gender,3,1,right,A_F_01.jpg,A_M_15.jpg,C_F_08.jpg,left,1438.4849999988219,false,high,NA,NA,NA,NA,NA,NA,NA,false
gcacSrP3,3y3czjszan6hsnojzw5z9ps3vnar5b,3kakfy4pgyf38twqmssz5kpjhof3i6,gcacSrP3,2020-0188,2020-06-04,13:49:43,14:09:35,NA,incomplete,152,gender,3,1,right,C_F_16.jpg,C_M_01.jpg,A_F_14.jpg,right,1147.0850000041537,true,high,NA,NA,NA,NA,NA,NA,NA,false
gcacSrP3,3y3czjszan6hsnojzw5z9ps3vnar5b,3kakfy4pgyf38twqmssz5kpjhof3i6,gcacSrP3,2020-0188,2020-06-04,13:49:43,14:09:35,NA,incomplete,153,gender,3,1,left,C_F_03.jpg,A_F_09.jpg,C_M_01.jpg,left,1239.949999995646,true,high,NA,NA,NA,NA,NA,NA,NA,false
gcacSrP3,3y3czjszan6hsnojzw5z9ps3vnar5b,3kakfy4pgyf38twqmssz5kpjhof3i6,gcacSrP3,2020-0188,2020-06-04,13:49:43,14:09:35,NA,incomplete,154,gender,3,0,right,C_M_14.jpg,C_F_12.jpg,A_M_04.jpg,right,1146.0599999991246,true,high,NA,NA,NA,NA,NA,NA,NA,false
gcacSrP3,3y3czjszan6hsnojzw5z9ps3vnar5b,3kakfy4pgyf38twqmssz5kpjhof3i6,gcacSrP3,2020-0188,2020-06-04,13:49:43,14:09:35,NA,incomplete,155,gender,3,1,left,A_F_04.jpg,C_F_14.jpg,A_M_07.jpg,left,1023.9050000017742,true,high,NA,NA,NA,NA,NA,NA,NA,false
gcacSrP3,3y3czjszan6hsnojzw5z9ps3vnar5b,3kakfy4pgyf38twqmssz5kpjhof3i6,gcacSrP3,2020-0188,2020-06-04,13:49:43,14:09:35,NA,incomplete,156,gender,3,1,left,A_F_15.jpg,C_F_09.jpg,A_M_14.jpg,left,898.1100000019651,true,high,NA,NA,NA,NA,NA,NA,NA,false
gcacSrP3,3y3czjszan6hsnojzw5z9ps3vnar5b,3kakfy4pgyf38twqmssz5kpjhof3i6,gcacSrP3,2020-0188,2020-06-04,13:49:43,14:09:35,NA,incomplete,157,gender,3,0,right,A_M_11.jpg,A_F_04.jpg,C_M_15.jpg,right,1094.7700000032783,true,high,NA,NA,NA,NA,NA,NA,NA,false
gcacSrP3,3y3czjszan6hsnojzw5z9ps3vnar5b,3kakfy4pgyf38twqmssz5kpjhof3i6,gcacSrP3,2020-0188,2020-06-04,13:49:43,14:09:35,NA,incomplete,158,gender,3,1,right,C_F_09.jpg,C_M_02.jpg,A_F_13.jpg,right,1450.2950000023702,true,high,NA,NA,NA,NA,NA,NA,NA,false
gcacSrP3,3y3czjszan6hsnojzw5z9ps3vnar5b,3kakfy4pgyf38twqmssz5kpjhof3i6,gcacSrP3,2020-0188,2020-06-04,13:49:43,14:09:35,NA,incomplete,159,gender,3,1,left,C_F_06.jpg,A_F_16.jpg,C_M_02.jpg,left,1046.744999999646,true,high,NA,NA,NA,NA,NA,NA,NA,false
gcacSrP3,3y3czjszan6hsnojzw5z9ps3vnar5b,3kakfy4pgyf38twqmssz5kpjhof3i6,gcacSrP3,2020-0188,2020-06-04,13:49:43,14:09:35,NA,incomplete,160,race,2,1,right,C_F_12.jpg,A_F_03.jpg,C_M_15.jpg,left,830.4749999952037,false,high,NA,NA,NA,NA,NA,NA,NA,false
gcacSrP3,3y3czjszan6hsnojzw5z9ps3vnar5b,3kakfy4pgyf38twqmssz5kpjhof3i6,gcacSrP3,2020-0188,2020-06-04,13:49:43,14:09:35,NA,incomplete,161,race,2,0,left,C_F_01.jpg,C_M_07.jpg,A_F_06.jpg,right,869.0349999960745,false,high,NA,NA,NA,NA,NA,NA,NA,false
gcacSrP3,3y3czjszan6hsnojzw5z9ps3vnar5b,3kakfy4pgyf38twqmssz5kpjhof3i6,gcacSrP3,2020-0188,2020-06-04,13:49:43,14:09:35,NA,incomplete,162,race,2,1,left,A_F_09.jpg,A_M_05.jpg,C_F_07.jpg,right,869.4049999976996,false,high,NA,NA,NA,NA,NA,NA,NA,false
gcacSrP3,3y3czjszan6hsnojzw5z9ps3vnar5b,3kakfy4pgyf38twqmssz5kpjhof3i6,gcacSrP3,2020-0188,2020-06-04,13:49:43,14:09:35,NA,incomplete,163,race,2,1,left,C_F_11.jpg,C_M_06.jpg,A_F_08.jpg,right,649.7999999993481,false,high,NA,NA,NA,NA,NA,NA,NA,false
gcacSrP3,3y3czjszan6hsnojzw5z9ps3vnar5b,3kakfy4pgyf38twqmssz5kpjhof3i6,gcacSrP3,2020-0188,2020-06-04,13:49:43,14:09:35,NA,incomplete,164,race,2,1,right,C_F_12.jpg,A_F_04.jpg,C_M_11.jpg,right,1271.2299999985844,true,high,NA,NA,NA,NA,NA,NA,NA,false
gcacSrP3,3y3czjszan6hsnojzw5z9ps3vnar5b,3kakfy4pgyf38twqmssz5kpjhof3i6,gcacSrP3,2020-0188,2020-06-04,13:49:43,14:09:35,NA,incomplete,165,race,2,1,right,C_F_10.jpg,A_F_16.jpg,C_M_04.jpg,right,979.3649999991758,true,high,NA,NA,NA,NA,NA,NA,NA,false
gcacSrP3,3y3czjszan6hsnojzw5z9ps3vnar5b,3kakfy4pgyf38twqmssz5kpjhof3i6,gcacSrP3,2020-0188,2020-06-04,13:49:43,14:09:35,NA,incomplete,166,race,2,0,left,A_M_08.jpg,A_F_05.jpg,C_M_07.jpg,left,852.4249999972526,true,high,NA,NA,NA,NA,NA,NA,NA,false
gcacSrP3,3y3czjszan6hsnojzw5z9ps3vnar5b,3kakfy4pgyf38twqmssz5kpjhof3i6,gcacSrP3,2020-0188,2020-06-04,13:49:43,14:09:35,NA,incomplete,167,race,2,1,right,C_M_07.jpg,A_M_15.jpg,C_F_12.jpg,right,1302.7599999987287,true,high,NA,NA,NA,NA,NA,NA,NA,false
gcacSrP3,3y3czjszan6hsnojzw5z9ps3vnar5b,3kakfy4pgyf38twqmssz5kpjhof3i6,gcacSrP3,2020-0188,2020-06-04,13:49:43,14:09:35,NA,incomplete,168,race,2,1,left,C_F_10.jpg,C_M_13.jpg,A_F_04.jpg,left,1295.539999999106,true,high,NA,NA,NA,NA,NA,NA,NA,false
gcacSrP3,3y3czjszan6hsnojzw5z9ps3vnar5b,3kakfy4pgyf38twqmssz5kpjhof3i6,gcacSrP3,2020-0188,2020-06-04,13:49:43,14:09:35,NA,incomplete,169,race,2,1,right,C_F_16.jpg,A_F_05.jpg,C_M_03.jpg,right,1218.2049999975134,true,high,NA,NA,NA,NA,NA,NA,NA,false
gcacSrP3,3y3czjszan6hsnojzw5z9ps3vnar5b,3kakfy4pgyf38twqmssz5kpjhof3i6,gcacSrP3,2020-0188,2020-06-04,13:49:43,14:09:35,NA,incomplete,170,race,2,1,right,C_F_03.jpg,A_F_02.jpg,C_M_06.jpg,right,766.755000004312,true,high,NA,NA,NA,NA,NA,NA,NA,false
gcacSrP3,3y3czjszan6hsnojzw5z9ps3vnar5b,3kakfy4pgyf38twqmssz5kpjhof3i6,gcacSrP3,2020-0188,2020-06-04,13:49:43,14:09:35,NA,incomplete,171,race,2,1,right,C_M_01.jpg,A_M_13.jpg,C_F_10.jpg,right,1408.799999997369,true,high,NA,NA,NA,NA,NA,NA,NA,false
gcacSrP3,3y3czjszan6hsnojzw5z9ps3vnar5b,3kakfy4pgyf38twqmssz5kpjhof3i6,gcacSrP3,2020-0188,2020-06-04,13:49:43,14:09:35,NA,incomplete,172,race,2,1,right,C_F_01.jpg,A_F_06.jpg,C_M_05.jpg,right,826.0150000060676,true,high,NA,NA,NA,NA,NA,NA,NA,false
gcacSrP3,3y3czjszan6hsnojzw5z9ps3vnar5b,3kakfy4pgyf38twqmssz5kpjhof3i6,gcacSrP3,2020-0188,2020-06-04,13:49:43,14:09:35,NA,incomplete,173,race,2,0,left,C_M_01.jpg,C_F_07.jpg,A_M_03.jpg,left,1252.115000002901,true,high,NA,NA,NA,NA,NA,NA,NA,false
gcacSrP3,3y3czjszan6hsnojzw5z9ps3vnar5b,3kakfy4pgyf38twqmssz5kpjhof3i6,gcacSrP3,2020-0188,2020-06-04,13:49:43,14:09:35,NA,incomplete,174,race,2,1,left,C_F_06.jpg,C_M_16.jpg,A_F_15.jpg,left,720.5600000015693,true,high,NA,NA,NA,NA,NA,NA,NA,false
gcacSrP3,3y3czjszan6hsnojzw5z9ps3vnar5b,3kakfy4pgyf38twqmssz5kpjhof3i6,gcacSrP3,2020-0188,2020-06-04,13:49:43,14:09:35,NA,incomplete,175,race,2,0,right,C_F_11.jpg,A_F_16.jpg,C_M_13.jpg,right,1557.6149999978952,true,high,NA,NA,NA,NA,NA,NA,NA,false
gcacSrP3,3y3czjszan6hsnojzw5z9ps3vnar5b,3kakfy4pgyf38twqmssz5kpjhof3i6,gcacSrP3,2020-0188,2020-06-04,13:49:43,14:09:35,NA,incomplete,176,race,2,1,left,C_F_05.jpg,C_M_16.jpg,A_F_11.jpg,left,1398.544999996433,true,high,NA,NA,NA,NA,NA,NA,NA,false
gcacSrP3,3y3czjszan6hsnojzw5z9ps3vnar5b,3kakfy4pgyf38twqmssz5kpjhof3i6,gcacSrP3,2020-0188,2020-06-04,13:49:43,14:09:35,NA,incomplete,177,race,2,0,right,A_F_15.jpg,C_F_10.jpg,A_M_12.jpg,right,1309.2049999977462,true,high,NA,NA,NA,NA,NA,NA,NA,false
gcacSrP3,3y3czjszan6hsnojzw5z9ps3vnar5b,3kakfy4pgyf38twqmssz5kpjhof3i6,gcacSrP3,2020-0188,2020-06-04,13:49:43,14:09:35,NA,incomplete,178,race,2,1,right,A_F_02.jpg,C_F_01.jpg,A_M_03.jpg,right,1267.005000001518,true,high,NA,NA,NA,NA,NA,NA,NA,false
gcacSrP3,3y3czjszan6hsnojzw5z9ps3vnar5b,3kakfy4pgyf38twqmssz5kpjhof3i6,gcacSrP3,2020-0188,2020-06-04,13:49:43,14:09:35,NA,incomplete,179,race,2,1,left,C_M_08.jpg,C_F_10.jpg,A_M_03.jpg,left,967.9399999950547,true,high,NA,NA,NA,NA,NA,NA,NA,false
gcacSrP3,3y3czjszan6hsnojzw5z9ps3vnar5b,3kakfy4pgyf38twqmssz5kpjhof3i6,gcacSrP3,2020-0188,2020-06-04,13:49:43,14:09:35,NA,incomplete,180,gender,3,1,right,A_M_09.jpg,A_F_05.jpg,C_M_01.jpg,right,1857.899999995483,true,high,NA,NA,NA,NA,NA,NA,NA,false
gcacSrP3,3y3czjszan6hsnojzw5z9ps3vnar5b,3kakfy4pgyf38twqmssz5kpjhof3i6,gcacSrP3,2020-0188,2020-06-04,13:49:43,14:09:35,NA,incomplete,181,gender,3,1,right,C_M_16.jpg,C_F_07.jpg,A_M_08.jpg,right,1112.1600000041071,true,high,NA,NA,NA,NA,NA,NA,NA,false
gcacSrP3,3y3czjszan6hsnojzw5z9ps3vnar5b,3kakfy4pgyf38twqmssz5kpjhof3i6,gcacSrP3,2020-0188,2020-06-04,13:49:43,14:09:35,NA,incomplete,182,gender,3,0,left,C_F_02.jpg,A_F_12.jpg,C_M_10.jpg,left,1222.734999995795,true,high,NA,NA,NA,NA,NA,NA,NA,false
gcacSrP3,3y3czjszan6hsnojzw5z9ps3vnar5b,3kakfy4pgyf38twqmssz5kpjhof3i6,gcacSrP3,2020-0188,2020-06-04,13:49:43,14:09:35,NA,incomplete,183,gender,3,1,left,A_M_11.jpg,C_M_04.jpg,A_F_12.jpg,right,1625.7849999965401,false,high,NA,NA,NA,NA,NA,NA,NA,false
gcacSrP3,3y3czjszan6hsnojzw5z9ps3vnar5b,3kakfy4pgyf38twqmssz5kpjhof3i6,gcacSrP3,2020-0188,2020-06-04,13:49:43,14:09:35,NA,incomplete,184,gender,3,1,right,C_M_06.jpg,C_F_07.jpg,A_M_11.jpg,right,1171.7149999967078,true,high,NA,NA,NA,NA,NA,NA,NA,false
gcacSrP3,3y3czjszan6hsnojzw5z9ps3vnar5b,3kakfy4pgyf38twqmssz5kpjhof3i6,gcacSrP3,2020-0188,2020-06-04,13:49:43,14:09:35,NA,incomplete,185,gender,3,1,right,C_F_01.jpg,C_M_10.jpg,A_F_15.jpg,right,1207.8450000045123,true,high,NA,NA,NA,NA,NA,NA,NA,false
gcacSrP3,3y3czjszan6hsnojzw5z9ps3vnar5b,3kakfy4pgyf38twqmssz5kpjhof3i6,gcacSrP3,2020-0188,2020-06-04,13:49:43,14:09:35,NA,incomplete,186,gender,3,1,left,C_F_06.jpg,A_F_16.jpg,C_M_03.jpg,left,834.2199999970617,true,high,NA,NA,NA,NA,NA,NA,NA,false
gcacSrP3,3y3czjszan6hsnojzw5z9ps3vnar5b,3kakfy4pgyf38twqmssz5kpjhof3i6,gcacSrP3,2020-0188,2020-06-04,13:49:43,14:09:35,NA,incomplete,187,gender,3,1,right,A_M_08.jpg,A_F_01.jpg,C_M_15.jpg,right,1191.6800000035437,true,high,NA,NA,NA,NA,NA,NA,NA,false
gcacSrP3,3y3czjszan6hsnojzw5z9ps3vnar5b,3kakfy4pgyf38twqmssz5kpjhof3i6,gcacSrP3,2020-0188,2020-06-04,13:49:43,14:09:35,NA,incomplete,188,gender,3,1,left,C_M_06.jpg,A_M_16.jpg,C_F_14.jpg,left,901.7499999973224,true,high,NA,NA,NA,NA,NA,NA,NA,false
gcacSrP3,3y3czjszan6hsnojzw5z9ps3vnar5b,3kakfy4pgyf38twqmssz5kpjhof3i6,gcacSrP3,2020-0188,2020-06-04,13:49:43,14:09:35,NA,incomplete,189,gender,3,1,right,C_F_11.jpg,C_M_15.jpg,A_F_08.jpg,right,1002.794999993057,true,high,NA,NA,NA,NA,NA,NA,NA,false
gcacSrP3,3y3czjszan6hsnojzw5z9ps3vnar5b,3kakfy4pgyf38twqmssz5kpjhof3i6,gcacSrP3,2020-0188,2020-06-04,13:49:43,14:09:35,NA,incomplete,190,gender,3,1,right,A_M_06.jpg,A_F_07.jpg,C_M_13.jpg,right,1158.9499999973923,true,high,NA,NA,NA,NA,NA,NA,NA,false
gcacSrP3,3y3czjszan6hsnojzw5z9ps3vnar5b,3kakfy4pgyf38twqmssz5kpjhof3i6,gcacSrP3,2020-0188,2020-06-04,13:49:43,14:09:35,NA,incomplete,191,gender,3,0,right,C_M_03.jpg,C_F_02.jpg,A_M_12.jpg,right,963.7749999965308,true,high,NA,NA,NA,NA,NA,NA,NA,false
gcacSrP3,3y3czjszan6hsnojzw5z9ps3vnar5b,3kakfy4pgyf38twqmssz5kpjhof3i6,gcacSrP3,2020-0188,2020-06-04,13:49:43,14:09:35,NA,incomplete,192,gender,3,1,right,A_M_04.jpg,A_F_02.jpg,C_M_16.jpg,right,957.640000000596,true,high,NA,NA,NA,NA,NA,NA,NA,false
gcacSrP3,3y3czjszan6hsnojzw5z9ps3vnar5b,3kakfy4pgyf38twqmssz5kpjhof3i6,gcacSrP3,2020-0188,2020-06-04,13:49:43,14:09:35,NA,incomplete,193,gender,3,0,right,A_F_07.jpg,A_M_02.jpg,C_F_04.jpg,right,1098.1099999989383,true,high,NA,NA,NA,NA,NA,NA,NA,false
gcacSrP3,3y3czjszan6hsnojzw5z9ps3vnar5b,3kakfy4pgyf38twqmssz5kpjhof3i6,gcacSrP3,2020-0188,2020-06-04,13:49:43,14:09:35,NA,incomplete,194,gender,3,1,right,C_M_13.jpg,C_F_06.jpg,A_M_16.jpg,left,1258.1700000010896,false,high,NA,NA,NA,NA,NA,NA,NA,false
gcacSrP3,3y3czjszan6hsnojzw5z9ps3vnar5b,3kakfy4pgyf38twqmssz5kpjhof3i6,gcacSrP3,2020-0188,2020-06-04,13:49:43,14:09:35,NA,incomplete,195,gender,3,1,right,C_F_05.jpg,C_M_14.jpg,A_F_12.jpg,right,838.2449999989476,true,high,NA,NA,NA,NA,NA,NA,NA,false
gcacSrP3,3y3czjszan6hsnojzw5z9ps3vnar5b,3kakfy4pgyf38twqmssz5kpjhof3i6,gcacSrP3,2020-0188,2020-06-04,13:49:43,14:09:35,NA,incomplete,196,gender,3,1,right,C_F_05.jpg,C_M_10.jpg,A_F_03.jpg,right,789.3699999985984,true,high,NA,NA,NA,NA,NA,NA,NA,false
gcacSrP3,3y3czjszan6hsnojzw5z9ps3vnar5b,3kakfy4pgyf38twqmssz5kpjhof3i6,gcacSrP3,2020-0188,2020-06-04,13:49:43,14:09:35,NA,incomplete,197,gender,3,1,right,A_M_03.jpg,A_F_10.jpg,C_M_04.jpg,right,1011.0150000038557,true,high,NA,NA,NA,NA,NA,NA,NA,false
gcacSrP3,3y3czjszan6hsnojzw5z9ps3vnar5b,3kakfy4pgyf38twqmssz5kpjhof3i6,gcacSrP3,2020-0188,2020-06-04,13:49:43,14:09:35,NA,incomplete,198,gender,3,1,right,A_F_07.jpg,A_M_15.jpg,C_F_14.jpg,right,949.8949999979232,true,high,NA,NA,NA,NA,NA,NA,NA,false
gcacSrP3,3y3czjszan6hsnojzw5z9ps3vnar5b,3kakfy4pgyf38twqmssz5kpjhof3i6,gcacSrP3,2020-0188,2020-06-04,13:49:43,14:09:35,NA,incomplete,199,gender,3,1,right,A_M_01.jpg,A_F_13.jpg,C_M_07.jpg,left,925.7700000014156,false,high,NA,NA,NA,NA,NA,NA,NA,false
gcacSrP3,3y3czjszan6hsnojzw5z9ps3vnar5b,3kakfy4pgyf38twqmssz5kpjhof3i6,gcacSrP3,2020-0188,2020-06-04,13:49:43,14:09:35,NA,incomplete,200,race,2,0,left,A_M_09.jpg,A_F_11.jpg,C_M_02.jpg,right,1226.445000000298,false,high,NA,NA,NA,NA,NA,NA,NA,false
gcacSrP3,3y3czjszan6hsnojzw5z9ps3vnar5b,3kakfy4pgyf38twqmssz5kpjhof3i6,gcacSrP3,2020-0188,2020-06-04,13:49:43,14:09:35,NA,incomplete,201,race,2,1,right,A_M_03.jpg,C_M_16.jpg,A_F_07.jpg,left,1037.8950000014156,false,high,NA,NA,NA,NA,NA,NA,NA,false
gcacSrP3,3y3czjszan6hsnojzw5z9ps3vnar5b,3kakfy4pgyf38twqmssz5kpjhof3i6,gcacSrP3,2020-0188,2020-06-04,13:49:43,14:09:35,NA,incomplete,202,race,2,1,right,A_F_12.jpg,C_F_05.jpg,A_M_08.jpg,left,1052.4499999955297,false,high,NA,NA,NA,NA,NA,NA,NA,false
gcacSrP3,3y3czjszan6hsnojzw5z9ps3vnar5b,3kakfy4pgyf38twqmssz5kpjhof3i6,gcacSrP3,2020-0188,2020-06-04,13:49:43,14:09:35,NA,incomplete,203,race,2,1,left,A_M_16.jpg,A_F_09.jpg,C_M_06.jpg,left,1787.9499999980908,true,high,NA,NA,NA,NA,NA,NA,NA,false
gcacSrP3,3y3czjszan6hsnojzw5z9ps3vnar5b,3kakfy4pgyf38twqmssz5kpjhof3i6,gcacSrP3,2020-0188,2020-06-04,13:49:43,14:09:35,NA,incomplete,204,race,2,1,left,C_F_08.jpg,C_M_04.jpg,A_F_13.jpg,right,1702.1000000021886,false,high,NA,NA,NA,NA,NA,NA,NA,false
gcacSrP3,3y3czjszan6hsnojzw5z9ps3vnar5b,3kakfy4pgyf38twqmssz5kpjhof3i6,gcacSrP3,2020-0188,2020-06-04,13:49:43,14:09:35,NA,incomplete,205,race,2,1,left,A_F_13.jpg,A_M_10.jpg,C_F_12.jpg,left,1153.5450000010896,true,high,NA,NA,NA,NA,NA,NA,NA,false
gcacSrP3,3y3czjszan6hsnojzw5z9ps3vnar5b,3kakfy4pgyf38twqmssz5kpjhof3i6,gcacSrP3,2020-0188,2020-06-04,13:49:43,14:09:35,NA,incomplete,206,race,2,1,left,A_F_09.jpg,A_M_01.jpg,C_F_08.jpg,left,979.3599999975413,true,high,NA,NA,NA,NA,NA,NA,NA,false
gcacSrP3,3y3czjszan6hsnojzw5z9ps3vnar5b,3kakfy4pgyf38twqmssz5kpjhof3i6,gcacSrP3,2020-0188,2020-06-04,13:49:43,14:09:35,NA,incomplete,207,race,2,1,right,C_F_16.jpg,A_F_04.jpg,C_M_05.jpg,right,964.9100000024773,true,high,NA,NA,NA,NA,NA,NA,NA,false
gcacSrP3,3y3czjszan6hsnojzw5z9ps3vnar5b,3kakfy4pgyf38twqmssz5kpjhof3i6,gcacSrP3,2020-0188,2020-06-04,13:49:43,14:09:35,NA,incomplete,208,race,2,1,right,C_M_06.jpg,A_M_16.jpg,C_F_05.jpg,right,986.3400000031106,true,high,NA,NA,NA,NA,NA,NA,NA,false
gcacSrP3,3y3czjszan6hsnojzw5z9ps3vnar5b,3kakfy4pgyf38twqmssz5kpjhof3i6,gcacSrP3,2020-0188,2020-06-04,13:49:43,14:09:35,NA,incomplete,209,race,2,1,left,C_M_06.jpg,C_F_15.jpg,A_M_10.jpg,left,1156.43999999878,true,high,NA,NA,NA,NA,NA,NA,NA,false
gcacSrP3,3y3czjszan6hsnojzw5z9ps3vnar5b,3kakfy4pgyf38twqmssz5kpjhof3i6,gcacSrP3,2020-0188,2020-06-04,13:49:43,14:09:35,NA,incomplete,210,race,2,1,right,C_M_07.jpg,A_M_15.jpg,C_F_12.jpg,right,1060.4549999989104,true,high,NA,NA,NA,NA,NA,NA,NA,false
gcacSrP3,3y3czjszan6hsnojzw5z9ps3vnar5b,3kakfy4pgyf38twqmssz5kpjhof3i6,gcacSrP3,2020-0188,2020-06-04,13:49:43,14:09:35,NA,incomplete,211,race,2,0,right,C_F_03.jpg,A_F_07.jpg,C_M_06.jpg,right,1349.2250000054482,true,high,NA,NA,NA,NA,NA,NA,NA,false
gcacSrP3,3y3czjszan6hsnojzw5z9ps3vnar5b,3kakfy4pgyf38twqmssz5kpjhof3i6,gcacSrP3,2020-0188,2020-06-04,13:49:43,14:09:35,NA,incomplete,212,race,2,1,left,A_F_13.jpg,A_M_14.jpg,C_F_02.jpg,left,817.2150000028778,true,high,NA,NA,NA,NA,NA,NA,NA,false
gcacSrP3,3y3czjszan6hsnojzw5z9ps3vnar5b,3kakfy4pgyf38twqmssz5kpjhof3i6,gcacSrP3,2020-0188,2020-06-04,13:49:43,14:09:35,NA,incomplete,213,race,2,1,right,A_M_06.jpg,C_M_11.jpg,A_F_09.jpg,right,1189.139999995008,true,high,NA,NA,NA,NA,NA,NA,NA,false
gcacSrP3,3y3czjszan6hsnojzw5z9ps3vnar5b,3kakfy4pgyf38twqmssz5kpjhof3i6,gcacSrP3,2020-0188,2020-06-04,13:49:43,14:09:35,NA,incomplete,214,race,2,1,right,C_M_16.jpg,A_M_05.jpg,C_F_13.jpg,right,1100.4499999983236,true,high,NA,NA,NA,NA,NA,NA,NA,false
gcacSrP3,3y3czjszan6hsnojzw5z9ps3vnar5b,3kakfy4pgyf38twqmssz5kpjhof3i6,gcacSrP3,2020-0188,2020-06-04,13:49:43,14:09:35,NA,incomplete,215,race,2,1,right,C_M_09.jpg,A_M_04.jpg,C_F_06.jpg,right,1023.7850000048056,true,high,NA,NA,NA,NA,NA,NA,NA,false
gcacSrP3,3y3czjszan6hsnojzw5z9ps3vnar5b,3kakfy4pgyf38twqmssz5kpjhof3i6,gcacSrP3,2020-0188,2020-06-04,13:49:43,14:09:35,NA,incomplete,216,race,2,1,right,A_M_14.jpg,C_M_05.jpg,A_F_01.jpg,right,1526.9199999966659,true,high,NA,NA,NA,NA,NA,NA,NA,false
gcacSrP3,3y3czjszan6hsnojzw5z9ps3vnar5b,3kakfy4pgyf38twqmssz5kpjhof3i6,gcacSrP3,2020-0188,2020-06-04,13:49:43,14:09:35,NA,incomplete,217,race,2,1,left,A_M_03.jpg,A_F_13.jpg,C_M_15.jpg,left,724.9149999988731,true,high,NA,NA,NA,NA,NA,NA,NA,false
gcacSrP3,3y3czjszan6hsnojzw5z9ps3vnar5b,3kakfy4pgyf38twqmssz5kpjhof3i6,gcacSrP3,2020-0188,2020-06-04,13:49:43,14:09:35,NA,incomplete,218,race,2,1,left,A_M_13.jpg,A_F_04.jpg,C_M_10.jpg,left,712.3550000034738,true,high,NA,NA,NA,NA,NA,NA,NA,false
gcacSrP3,3y3czjszan6hsnojzw5z9ps3vnar5b,3kakfy4pgyf38twqmssz5kpjhof3i6,gcacSrP3,2020-0188,2020-06-04,13:49:43,14:09:35,NA,incomplete,219,race,2,1,left,A_F_11.jpg,A_M_04.jpg,C_F_14.jpg,left,755.1549999990966,true,high,NA,NA,NA,NA,NA,NA,NA,false
gcacSrP3,3y3czjszan6hsnojzw5z9ps3vnar5b,3kakfy4pgyf38twqmssz5kpjhof3i6,gcacSrP3,2020-0188,2020-06-04,13:49:43,14:09:35,NA,incomplete,220,gender,3,0,right,A_M_06.jpg,A_F_03.jpg,C_M_07.jpg,left,780.0050000005867,false,high,NA,NA,NA,NA,NA,NA,NA,false
gcacSrP3,3y3czjszan6hsnojzw5z9ps3vnar5b,3kakfy4pgyf38twqmssz5kpjhof3i6,gcacSrP3,2020-0188,2020-06-04,13:49:43,14:09:35,NA,incomplete,221,gender,3,1,left,C_F_15.jpg,A_F_02.jpg,C_M_13.jpg,right,724.8849999960512,false,high,NA,NA,NA,NA,NA,NA,NA,false
gcacSrP3,3y3czjszan6hsnojzw5z9ps3vnar5b,3kakfy4pgyf38twqmssz5kpjhof3i6,gcacSrP3,2020-0188,2020-06-04,13:49:43,14:09:35,NA,incomplete,222,gender,3,1,left,A_F_13.jpg,C_F_10.jpg,A_M_07.jpg,right,917.3999999985099,false,high,NA,NA,NA,NA,NA,NA,NA,false
gcacSrP3,3y3czjszan6hsnojzw5z9ps3vnar5b,3kakfy4pgyf38twqmssz5kpjhof3i6,gcacSrP3,2020-0188,2020-06-04,13:49:43,14:09:35,NA,incomplete,223,gender,3,0,left,C_F_16.jpg,A_F_08.jpg,C_M_06.jpg,left,820.9100000022445,true,high,NA,NA,NA,NA,NA,NA,NA,false
gcacSrP3,3y3czjszan6hsnojzw5z9ps3vnar5b,3kakfy4pgyf38twqmssz5kpjhof3i6,gcacSrP3,2020-0188,2020-06-04,13:49:43,14:09:35,NA,incomplete,224,gender,3,1,left,A_M_15.jpg,C_M_12.jpg,A_F_11.jpg,right,1009.6100000010338,false,high,NA,NA,NA,NA,NA,NA,NA,false
gcacSrP3,3y3czjszan6hsnojzw5z9ps3vnar5b,3kakfy4pgyf38twqmssz5kpjhof3i6,gcacSrP3,2020-0188,2020-06-04,13:49:43,14:09:35,NA,incomplete,225,gender,3,0,right,A_M_05.jpg,A_F_14.jpg,C_M_09.jpg,left,1373.6700000008568,false,high,NA,NA,NA,NA,NA,NA,NA,false
gcacSrP3,3y3czjszan6hsnojzw5z9ps3vnar5b,3kakfy4pgyf38twqmssz5kpjhof3i6,gcacSrP3,2020-0188,2020-06-04,13:49:43,14:09:35,NA,incomplete,226,gender,3,1,left,C_F_01.jpg,A_F_09.jpg,C_M_15.jpg,right,1407.800000000978,false,high,NA,NA,NA,NA,NA,NA,NA,false
gcacSrP3,3y3czjszan6hsnojzw5z9ps3vnar5b,3kakfy4pgyf38twqmssz5kpjhof3i6,gcacSrP3,2020-0188,2020-06-04,13:49:43,14:09:35,NA,incomplete,227,gender,3,0,left,C_M_02.jpg,A_M_08.jpg,C_F_10.jpg,right,1500.3599999982398,false,high,NA,NA,NA,NA,NA,NA,NA,false
gcacSrP3,3y3czjszan6hsnojzw5z9ps3vnar5b,3kakfy4pgyf38twqmssz5kpjhof3i6,gcacSrP3,2020-0188,2020-06-04,13:49:43,14:09:35,NA,incomplete,228,gender,3,1,right,A_F_05.jpg,A_M_03.jpg,C_F_09.jpg,right,1156.295000000624,true,high,NA,NA,NA,NA,NA,NA,NA,false
gcacSrP3,3y3czjszan6hsnojzw5z9ps3vnar5b,3kakfy4pgyf38twqmssz5kpjhof3i6,gcacSrP3,2020-0188,2020-06-04,13:49:43,14:09:35,NA,incomplete,229,gender,3,1,left,C_F_12.jpg,A_F_07.jpg,C_M_05.jpg,none,0,false,high,NA,NA,NA,NA,NA,NA,NA,false
gcacSrP3,3y3czjszan6hsnojzw5z9ps3vnar5b,3kakfy4pgyf38twqmssz5kpjhof3i6,gcacSrP3,2020-0188,2020-06-04,13:49:43,14:09:35,NA,incomplete,230,gender,3,1,left,A_M_08.jpg,C_M_12.jpg,A_F_01.jpg,right,476.1300000026822,false,high,NA,NA,NA,NA,NA,NA,NA,false
gcacSrP3,3y3czjszan6hsnojzw5z9ps3vnar5b,3kakfy4pgyf38twqmssz5kpjhof3i6,gcacSrP3,2020-0188,2020-06-04,13:49:43,14:09:35,NA,incomplete,231,gender,3,1,left,C_M_01.jpg,A_M_14.jpg,C_F_13.jpg,left,741.8200000028592,true,high,NA,NA,NA,NA,NA,NA,NA,false
gcacSrP3,3y3czjszan6hsnojzw5z9ps3vnar5b,3kakfy4pgyf38twqmssz5kpjhof3i6,gcacSrP3,2020-0188,2020-06-04,13:49:43,14:09:35,NA,incomplete,232,gender,3,1,left,C_M_05.jpg,A_M_11.jpg,C_F_14.jpg,left,643.3549999999814,true,high,NA,NA,NA,NA,NA,NA,NA,false
gcacSrP3,3y3czjszan6hsnojzw5z9ps3vnar5b,3kakfy4pgyf38twqmssz5kpjhof3i6,gcacSrP3,2020-0188,2020-06-04,13:49:43,14:09:35,NA,incomplete,233,gender,3,1,left,A_M_13.jpg,C_M_12.jpg,A_F_04.jpg,left,570.1149999948684,true,high,NA,NA,NA,NA,NA,NA,NA,false
gcacSrP3,3y3czjszan6hsnojzw5z9ps3vnar5b,3kakfy4pgyf38twqmssz5kpjhof3i6,gcacSrP3,2020-0188,2020-06-04,13:49:43,14:09:35,NA,incomplete,234,gender,3,1,right,A_F_02.jpg,A_M_09.jpg,C_F_04.jpg,right,733.4699999990407,true,high,NA,NA,NA,NA,NA,NA,NA,false
gcacSrP3,3y3czjszan6hsnojzw5z9ps3vnar5b,3kakfy4pgyf38twqmssz5kpjhof3i6,gcacSrP3,2020-0188,2020-06-04,13:49:43,14:09:35,NA,incomplete,235,gender,3,1,right,C_F_06.jpg,C_M_01.jpg,A_F_14.jpg,right,682.9550000037998,true,high,NA,NA,NA,NA,NA,NA,NA,false
gcacSrP3,3y3czjszan6hsnojzw5z9ps3vnar5b,3kakfy4pgyf38twqmssz5kpjhof3i6,gcacSrP3,2020-0188,2020-06-04,13:49:43,14:09:35,NA,incomplete,236,gender,3,1,right,A_F_12.jpg,A_M_08.jpg,C_F_09.jpg,right,820.0949999955483,true,high,NA,NA,NA,NA,NA,NA,NA,false
gcacSrP3,3y3czjszan6hsnojzw5z9ps3vnar5b,3kakfy4pgyf38twqmssz5kpjhof3i6,gcacSrP3,2020-0188,2020-06-04,13:49:43,14:09:35,NA,incomplete,237,gender,3,1,left,C_F_05.jpg,A_F_08.jpg,C_M_07.jpg,left,728.6099999984726,true,high,NA,NA,NA,NA,NA,NA,NA,false
gcacSrP3,3y3czjszan6hsnojzw5z9ps3vnar5b,3kakfy4pgyf38twqmssz5kpjhof3i6,gcacSrP3,2020-0188,2020-06-04,13:49:43,14:09:35,NA,incomplete,238,gender,3,1,right,C_F_03.jpg,C_M_12.jpg,A_F_14.jpg,right,933.6450000044424,true,high,NA,NA,NA,NA,NA,NA,NA,false
gcacSrP3,3y3czjszan6hsnojzw5z9ps3vnar5b,3kakfy4pgyf38twqmssz5kpjhof3i6,gcacSrP3,2020-0188,2020-06-04,13:49:43,14:09:35,NA,incomplete,239,gender,3,1,right,A_F_16.jpg,A_M_06.jpg,C_F_14.jpg,right,696.3949999990873,true,high,NA,NA,NA,NA,NA,NA,NA,false
gcacSrP3,3y3czjszan6hsnojzw5z9ps3vnar5b,3kakfy4pgyf38twqmssz5kpjhof3i6,gcacSrP3,2020-0188,2020-06-04,13:49:43,14:09:35,NA,NA,instruction example,shape,NA,NA,NA,Purple_Star_Chess_3.jpg,Blue_Star_Grid_1.jpg,Purple_Plus_Stripes_2.jpg,NA,NA,NA,NA,NA,NA,NA,NA,NA,NA,NA,undefined
gcacSrP3,3y3czjszan6hsnojzw5z9ps3vnar5b,3kakfy4pgyf38twqmssz5kpjhof3i6,gcacSrP3,2020-0188,2020-06-04,13:49:43,14:09:35,NA,NA,instruction example,shape,NA,NA,NA,Purple_Star_Grid_1.jpg,Purple_Triangle_Stripes_3.jpg,Red_Star_Dots_2.jpg,NA,NA,NA,NA,NA,NA,NA,NA,NA,NA,NA,undefined
gcacSrP3,3y3czjszan6hsnojzw5z9ps3vnar5b,3kakfy4pgyf38twqmssz5kpjhof3i6,gcacSrP3,2020-0188,2020-06-04,13:49:43,14:09:35,NA,NA,instruction example,shape,NA,NA,NA,A_M_03.jpg,A_F_15.jpg,C_M_13.jpg,NA,NA,NA,NA,NA,NA,NA,NA,NA,NA,NA,undefined
gcacSrP3,3y3czjszan6hsnojzw5z9ps3vnar5b,3kakfy4pgyf38twqmssz5kpjhof3i6,gcacSrP3,2020-0188,2020-06-04,13:49:43,14:09:35,NA,NA,instruction example,shape,NA,NA,NA,C_F_01.jpg,A_F_14.jpg,C_M_08.jpg,NA,NA,NA,NA,NA,NA,NA,NA,NA,NA,NA,undefined
gcacSrP3,3y3czjszan6hsnojzw5z9ps3vnar5b,3kakfy4pgyf38twqmssz5kpjhof3i6,gcacSrP3,2020-0188,2020-06-04,13:49:43,14:09:35,1163414.1149999995,1193605.975000006,NA,NA,NA,NA,NA,NA,NA,NA,NA,NA,NA,NA,50,Black/African American,Female,african american,no,no,no,undefined
