workerId,hitId,assignmentId,subject,studyid,exp_date,exp_start,exp_end,time_start,time_end,trial,type,sequence,reward_validity,answer,image_top,image_left,image_right,response,response_time,response_acc,volatility,practice
mfMGbpWM,3ha5odm5ld5arw3bkcnh3xryudvvsa,3kakfy4pgyf38twqmssz5kpjhm43ir,mfMGbpWM,2020-0188,2020-06-04,10:44:43,11:03:14,NA,incomplete,0,shape,0,1,left,Red_Circle_Grid_2.jpg,Green_Circle_Dots_1.jpg,Blue_Star_Chess_2.jpg,left,1126.3099999923725,true,NA,true
mfMGbpWM,3ha5odm5ld5arw3bkcnh3xryudvvsa,3kakfy4pgyf38twqmssz5kpjhm43ir,mfMGbpWM,2020-0188,2020-06-04,10:44:43,11:03:14,NA,incomplete,1,shape,0,0,left,Blue_Triangle_Chess_1.jpg,Purple_Triangle_Grid_2.jpg,Green_Circle_Dots_1.jpg,left,1017.8500000038184,true,NA,true
mfMGbpWM,3ha5odm5ld5arw3bkcnh3xryudvvsa,3kakfy4pgyf38twqmssz5kpjhm43ir,mfMGbpWM,2020-0188,2020-06-04,10:44:43,11:03:14,NA,incomplete,2,shape,0,1,left,Red_Triangle_Grid_2.jpg,Blue_Triangle_Chess_4.jpg,Green_Circle_Dots_2.jpg,left,972.8349999932107,true,NA,true
mfMGbpWM,3ha5odm5ld5arw3bkcnh3xryudvvsa,3kakfy4pgyf38twqmssz5kpjhm43ir,mfMGbpWM,2020-0188,2020-06-04,10:44:43,11:03:14,NA,incomplete,3,shape,0,1,left,Blue_Star_Grid_1.jpg,Red_Star_Dots_2.jpg,Purple_Circle_Chess_1.jpg,left,967.3149999871384,true,NA,true
mfMGbpWM,3ha5odm5ld5arw3bkcnh3xryudvvsa,3kakfy4pgyf38twqmssz5kpjhm43ir,mfMGbpWM,2020-0188,2020-06-04,10:44:43,11:03:14,NA,incomplete,4,shape,0,1,left,Red_Triangle_Stripes_1.jpg,Blue_Triangle_Grid_2.jpg,Purple_Plus_Chess_1.jpg,left,782.6100000238512,true,NA,true
mfMGbpWM,3ha5odm5ld5arw3bkcnh3xryudvvsa,3kakfy4pgyf38twqmssz5kpjhm43ir,mfMGbpWM,2020-0188,2020-06-04,10:44:43,11:03:14,NA,incomplete,5,shape,0,1,left,Green_Triangle_Chess_2.jpg,Blue_Triangle_Stripes_3.jpg,Red_Plus_Grid_2.jpg,left,796.8300000065938,true,NA,true
mfMGbpWM,3ha5odm5ld5arw3bkcnh3xryudvvsa,3kakfy4pgyf38twqmssz5kpjhm43ir,mfMGbpWM,2020-0188,2020-06-04,10:44:43,11:03:14,NA,incomplete,6,shape,0,0,left,Purple_Plus_Dots_1.jpg,Red_Plus_Stripes_4.jpg,Blue_Circle_Chess_1.jpg,left,1211.8999999947846,true,NA,true
mfMGbpWM,3ha5odm5ld5arw3bkcnh3xryudvvsa,3kakfy4pgyf38twqmssz5kpjhm43ir,mfMGbpWM,2020-0188,2020-06-04,10:44:43,11:03:14,NA,incomplete,7,shape,0,0,right,Red_Circle_Stripes_4.jpg,Blue_Triangle_Grid_4.jpg,Purple_Circle_Chess_1.jpg,right,943.0149999971036,true,NA,true
mfMGbpWM,3ha5odm5ld5arw3bkcnh3xryudvvsa,3kakfy4pgyf38twqmssz5kpjhm43ir,mfMGbpWM,2020-0188,2020-06-04,10:44:43,11:03:14,NA,incomplete,8,shape,0,1,right,Green_Circle_Stripes_2.jpg,Blue_Star_Dots_2.jpg,Red_Circle_Grid_3.jpg,right,902.4849999987055,true,NA,true
mfMGbpWM,3ha5odm5ld5arw3bkcnh3xryudvvsa,3kakfy4pgyf38twqmssz5kpjhm43ir,mfMGbpWM,2020-0188,2020-06-04,10:44:43,11:03:14,NA,incomplete,9,shape,0,1,right,Blue_Star_Chess_3.jpg,Green_Triangle_Stripes_3.jpg,Red_Star_Grid_1.jpg,right,771.2649999884889,true,NA,true
mfMGbpWM,3ha5odm5ld5arw3bkcnh3xryudvvsa,3kakfy4pgyf38twqmssz5kpjhm43ir,mfMGbpWM,2020-0188,2020-06-04,10:44:43,11:03:14,NA,incomplete,10,shape,0,1,right,Purple_Plus_Dots_3.jpg,Red_Circle_Grid_3.jpg,Blue_Plus_Stripes_1.jpg,right,678.2150000217371,true,NA,true
mfMGbpWM,3ha5odm5ld5arw3bkcnh3xryudvvsa,3kakfy4pgyf38twqmssz5kpjhm43ir,mfMGbpWM,2020-0188,2020-06-04,10:44:43,11:03:14,NA,incomplete,11,shape,0,1,right,Blue_Plus_Stripes_3.jpg,Red_Star_Chess_3.jpg,Purple_Plus_Grid_4.jpg,right,861.6699999838602,true,NA,true
mfMGbpWM,3ha5odm5ld5arw3bkcnh3xryudvvsa,3kakfy4pgyf38twqmssz5kpjhm43ir,mfMGbpWM,2020-0188,2020-06-04,10:44:43,11:03:14,NA,incomplete,12,shape,0,1,left,Red_Triangle_Grid_1.jpg,Green_Triangle_Stripes_3.jpg,Purple_Circle_Chess_1.jpg,left,717.9699999978766,true,NA,true
mfMGbpWM,3ha5odm5ld5arw3bkcnh3xryudvvsa,3kakfy4pgyf38twqmssz5kpjhm43ir,mfMGbpWM,2020-0188,2020-06-04,10:44:43,11:03:14,NA,incomplete,13,shape,0,1,left,Red_Triangle_Grid_2.jpg,Blue_Triangle_Stripes_1.jpg,Purple_Circle_Dots_2.jpg,left,878.33999999566,true,NA,true
mfMGbpWM,3ha5odm5ld5arw3bkcnh3xryudvvsa,3kakfy4pgyf38twqmssz5kpjhm43ir,mfMGbpWM,2020-0188,2020-06-04,10:44:43,11:03:14,NA,incomplete,14,shape,0,1,left,Green_Triangle_Grid_3.jpg,Purple_Triangle_Chess_1.jpg,Red_Circle_Stripes_3.jpg,left,739.289999997709,true,NA,true
mfMGbpWM,3ha5odm5ld5arw3bkcnh3xryudvvsa,3kakfy4pgyf38twqmssz5kpjhm43ir,mfMGbpWM,2020-0188,2020-06-04,10:44:43,11:03:14,NA,incomplete,15,shape,0,1,left,Purple_Plus_Dots_4.jpg,Blue_Plus_Stripes_2.jpg,Red_Triangle_Grid_4.jpg,left,960.9999999811407,true,NA,true
mfMGbpWM,3ha5odm5ld5arw3bkcnh3xryudvvsa,3kakfy4pgyf38twqmssz5kpjhm43ir,mfMGbpWM,2020-0188,2020-06-04,10:44:43,11:03:14,NA,incomplete,16,shape,0,0,left,Purple_Circle_Dots_2.jpg,Green_Circle_Chess_1.jpg,Blue_Plus_Grid_2.jpg,left,715.8999999810476,true,NA,true
mfMGbpWM,3ha5odm5ld5arw3bkcnh3xryudvvsa,3kakfy4pgyf38twqmssz5kpjhm43ir,mfMGbpWM,2020-0188,2020-06-04,10:44:43,11:03:14,NA,incomplete,17,shape,0,1,left,Green_Triangle_Chess_3.jpg,Blue_Triangle_Stripes_1.jpg,Red_Circle_Grid_3.jpg,left,678.3899999863934,true,NA,true
mfMGbpWM,3ha5odm5ld5arw3bkcnh3xryudvvsa,3kakfy4pgyf38twqmssz5kpjhm43ir,mfMGbpWM,2020-0188,2020-06-04,10:44:43,11:03:14,NA,incomplete,18,shape,0,1,left,Purple_Triangle_Chess_3.jpg,Blue_Triangle_Dots_4.jpg,Red_Star_Grid_3.jpg,left,738.2400000060443,true,NA,true
mfMGbpWM,3ha5odm5ld5arw3bkcnh3xryudvvsa,3kakfy4pgyf38twqmssz5kpjhm43ir,mfMGbpWM,2020-0188,2020-06-04,10:44:43,11:03:14,NA,incomplete,19,shape,0,1,right,Blue_Plus_Grid_1.jpg,Red_Star_Stripes_1.jpg,Green_Plus_Chess_2.jpg,right,1032.4300000211224,true,NA,true
mfMGbpWM,3ha5odm5ld5arw3bkcnh3xryudvvsa,3kakfy4pgyf38twqmssz5kpjhm43ir,mfMGbpWM,2020-0188,2020-06-04,10:44:43,11:03:14,NA,incomplete,20,number,1,1,right,Purple_Star_Stripes_2.jpg,Blue_Star_Chess_1.jpg,Red_Circle_Dots_2.jpg,left,688.3600000001024,false,NA,true
mfMGbpWM,3ha5odm5ld5arw3bkcnh3xryudvvsa,3kakfy4pgyf38twqmssz5kpjhm43ir,mfMGbpWM,2020-0188,2020-06-04,10:44:43,11:03:14,NA,incomplete,21,number,1,1,left,Purple_Plus_Chess_4.jpg,Blue_Triangle_Stripes_4.jpg,Green_Plus_Grid_3.jpg,right,1063.7600000191014,false,NA,true
mfMGbpWM,3ha5odm5ld5arw3bkcnh3xryudvvsa,3kakfy4pgyf38twqmssz5kpjhm43ir,mfMGbpWM,2020-0188,2020-06-04,10:44:43,11:03:14,NA,incomplete,22,number,1,0,left,Blue_Star_Grid_4.jpg,Purple_Circle_Dots_4.jpg,Red_Star_Chess_1.jpg,left,1307.6599999913014,true,NA,true
mfMGbpWM,3ha5odm5ld5arw3bkcnh3xryudvvsa,3kakfy4pgyf38twqmssz5kpjhm43ir,mfMGbpWM,2020-0188,2020-06-04,10:44:43,11:03:14,NA,incomplete,23,number,1,1,right,Blue_Plus_Grid_1.jpg,Red_Plus_Stripes_3.jpg,Green_Star_Chess_1.jpg,left,1128.4400000004098,false,NA,true
mfMGbpWM,3ha5odm5ld5arw3bkcnh3xryudvvsa,3kakfy4pgyf38twqmssz5kpjhm43ir,mfMGbpWM,2020-0188,2020-06-04,10:44:43,11:03:14,NA,incomplete,24,number,1,1,right,Red_Circle_Stripes_1.jpg,Green_Circle_Dots_4.jpg,Blue_Plus_Grid_1.jpg,right,1449.6649999928195,true,NA,true
mfMGbpWM,3ha5odm5ld5arw3bkcnh3xryudvvsa,3kakfy4pgyf38twqmssz5kpjhm43ir,mfMGbpWM,2020-0188,2020-06-04,10:44:43,11:03:14,NA,incomplete,25,number,1,1,right,Red_Circle_Chess_1.jpg,Green_Circle_Stripes_3.jpg,Blue_Plus_Dots_1.jpg,right,890.8349999983329,true,NA,true
mfMGbpWM,3ha5odm5ld5arw3bkcnh3xryudvvsa,3kakfy4pgyf38twqmssz5kpjhm43ir,mfMGbpWM,2020-0188,2020-06-04,10:44:43,11:03:14,NA,incomplete,26,number,1,1,left,Purple_Plus_Stripes_3.jpg,Red_Star_Grid_3.jpg,Blue_Plus_Dots_1.jpg,left,872.1649999788497,true,NA,true
mfMGbpWM,3ha5odm5ld5arw3bkcnh3xryudvvsa,3kakfy4pgyf38twqmssz5kpjhm43ir,mfMGbpWM,2020-0188,2020-06-04,10:44:43,11:03:14,NA,incomplete,27,number,1,1,right,Purple_Circle_Dots_2.jpg,Blue_Circle_Chess_1.jpg,Red_Star_Stripes_2.jpg,right,1437.4750000133645,true,NA,true
mfMGbpWM,3ha5odm5ld5arw3bkcnh3xryudvvsa,3kakfy4pgyf38twqmssz5kpjhm43ir,mfMGbpWM,2020-0188,2020-06-04,10:44:43,11:03:14,NA,incomplete,28,number,1,1,right,Green_Triangle_Stripes_1.jpg,Purple_Triangle_Dots_4.jpg,Blue_Circle_Chess_1.jpg,right,988.7049999961164,true,NA,true
mfMGbpWM,3ha5odm5ld5arw3bkcnh3xryudvvsa,3kakfy4pgyf38twqmssz5kpjhm43ir,mfMGbpWM,2020-0188,2020-06-04,10:44:43,11:03:14,NA,incomplete,29,number,1,0,right,Green_Star_Chess_4.jpg,Purple_Star_Grid_3.jpg,Red_Circle_Dots_4.jpg,right,1273.574999999255,true,NA,true
mfMGbpWM,3ha5odm5ld5arw3bkcnh3xryudvvsa,3kakfy4pgyf38twqmssz5kpjhm43ir,mfMGbpWM,2020-0188,2020-06-04,10:44:43,11:03:14,NA,incomplete,30,number,1,0,right,Purple_Plus_Chess_2.jpg,Green_Plus_Dots_4.jpg,Red_Star_Grid_2.jpg,right,935.5499999946915,true,NA,true
mfMGbpWM,3ha5odm5ld5arw3bkcnh3xryudvvsa,3kakfy4pgyf38twqmssz5kpjhm43ir,mfMGbpWM,2020-0188,2020-06-04,10:44:43,11:03:14,NA,incomplete,31,number,1,1,left,Blue_Triangle_Chess_1.jpg,Purple_Star_Stripes_1.jpg,Red_Triangle_Grid_2.jpg,left,897.1850000089034,true,NA,true
mfMGbpWM,3ha5odm5ld5arw3bkcnh3xryudvvsa,3kakfy4pgyf38twqmssz5kpjhm43ir,mfMGbpWM,2020-0188,2020-06-04,10:44:43,11:03:14,NA,incomplete,32,number,1,1,left,Red_Plus_Stripes_3.jpg,Purple_Triangle_Dots_3.jpg,Green_Plus_Grid_4.jpg,left,1182.3399999993853,true,NA,true
mfMGbpWM,3ha5odm5ld5arw3bkcnh3xryudvvsa,3kakfy4pgyf38twqmssz5kpjhm43ir,mfMGbpWM,2020-0188,2020-06-04,10:44:43,11:03:14,NA,incomplete,33,number,1,1,left,Green_Triangle_Grid_4.jpg,Red_Circle_Dots_4.jpg,Blue_Triangle_Chess_2.jpg,left,1024.3849999969825,true,NA,true
mfMGbpWM,3ha5odm5ld5arw3bkcnh3xryudvvsa,3kakfy4pgyf38twqmssz5kpjhm43ir,mfMGbpWM,2020-0188,2020-06-04,10:44:43,11:03:14,NA,incomplete,34,number,1,1,left,Red_Plus_Grid_4.jpg,Green_Triangle_Chess_4.jpg,Blue_Plus_Stripes_3.jpg,left,1004.0900000021793,true,NA,true
mfMGbpWM,3ha5odm5ld5arw3bkcnh3xryudvvsa,3kakfy4pgyf38twqmssz5kpjhm43ir,mfMGbpWM,2020-0188,2020-06-04,10:44:43,11:03:14,NA,incomplete,35,number,1,1,right,Green_Triangle_Dots_4.jpg,Red_Triangle_Grid_3.jpg,Purple_Star_Stripes_4.jpg,right,1172.6849999977276,true,NA,true
mfMGbpWM,3ha5odm5ld5arw3bkcnh3xryudvvsa,3kakfy4pgyf38twqmssz5kpjhm43ir,mfMGbpWM,2020-0188,2020-06-04,10:44:43,11:03:14,NA,incomplete,36,number,1,1,right,Blue_Plus_Chess_2.jpg,Green_Plus_Stripes_1.jpg,Purple_Triangle_Grid_2.jpg,right,1269.7050000133459,true,NA,true
mfMGbpWM,3ha5odm5ld5arw3bkcnh3xryudvvsa,3kakfy4pgyf38twqmssz5kpjhm43ir,mfMGbpWM,2020-0188,2020-06-04,10:44:43,11:03:14,NA,incomplete,37,number,1,0,right,Green_Triangle_Stripes_4.jpg,Purple_Triangle_Dots_2.jpg,Blue_Star_Chess_4.jpg,right,1069.2250000138301,true,NA,true
mfMGbpWM,3ha5odm5ld5arw3bkcnh3xryudvvsa,3kakfy4pgyf38twqmssz5kpjhm43ir,mfMGbpWM,2020-0188,2020-06-04,10:44:43,11:03:14,NA,incomplete,38,number,1,1,left,Purple_Triangle_Dots_4.jpg,Green_Plus_Chess_4.jpg,Red_Triangle_Grid_2.jpg,left,1260.275000007823,true,NA,true
mfMGbpWM,3ha5odm5ld5arw3bkcnh3xryudvvsa,3kakfy4pgyf38twqmssz5kpjhm43ir,mfMGbpWM,2020-0188,2020-06-04,10:44:43,11:03:14,NA,incomplete,39,number,1,1,left,Red_Plus_Stripes_2.jpg,Blue_Triangle_Dots_2.jpg,Green_Plus_Grid_4.jpg,left,1172.115000023041,true,NA,true
mfMGbpWM,3ha5odm5ld5arw3bkcnh3xryudvvsa,3kakfy4pgyf38twqmssz5kpjhm43ir,mfMGbpWM,2020-0188,2020-06-04,10:44:43,11:03:14,NA,incomplete,0,shape,0,1,right,Red_Triangle_Grid_1.jpg,Green_Star_Chess_1.jpg,Blue_Triangle_Stripes_3.jpg,left,914.9699999834411,false,high,false
mfMGbpWM,3ha5odm5ld5arw3bkcnh3xryudvvsa,3kakfy4pgyf38twqmssz5kpjhm43ir,mfMGbpWM,2020-0188,2020-06-04,10:44:43,11:03:14,NA,incomplete,1,shape,0,1,right,Green_Plus_Grid_1.jpg,Purple_Triangle_Chess_1.jpg,Red_Plus_Dots_4.jpg,right,1190.2750000008382,true,high,false
mfMGbpWM,3ha5odm5ld5arw3bkcnh3xryudvvsa,3kakfy4pgyf38twqmssz5kpjhm43ir,mfMGbpWM,2020-0188,2020-06-04,10:44:43,11:03:14,NA,incomplete,2,shape,0,1,left,Red_Circle_Chess_4.jpg,Purple_Circle_Dots_2.jpg,Green_Plus_Grid_4.jpg,left,1166.2150000047404,true,high,false
mfMGbpWM,3ha5odm5ld5arw3bkcnh3xryudvvsa,3kakfy4pgyf38twqmssz5kpjhm43ir,mfMGbpWM,2020-0188,2020-06-04,10:44:43,11:03:14,NA,incomplete,3,shape,0,1,right,Red_Triangle_Dots_3.jpg,Purple_Plus_Stripes_3.jpg,Blue_Triangle_Chess_4.jpg,right,1093.3849999855738,true,high,false
mfMGbpWM,3ha5odm5ld5arw3bkcnh3xryudvvsa,3kakfy4pgyf38twqmssz5kpjhm43ir,mfMGbpWM,2020-0188,2020-06-04,10:44:43,11:03:14,NA,incomplete,4,shape,0,0,right,Green_Triangle_Dots_3.jpg,Red_Plus_Chess_3.jpg,Blue_Triangle_Grid_4.jpg,right,834.6500000043306,true,high,false
mfMGbpWM,3ha5odm5ld5arw3bkcnh3xryudvvsa,3kakfy4pgyf38twqmssz5kpjhm43ir,mfMGbpWM,2020-0188,2020-06-04,10:44:43,11:03:14,NA,incomplete,5,shape,0,1,right,Green_Plus_Dots_2.jpg,Red_Triangle_Stripes_2.jpg,Blue_Plus_Chess_3.jpg,right,1021.100000012666,true,high,false
mfMGbpWM,3ha5odm5ld5arw3bkcnh3xryudvvsa,3kakfy4pgyf38twqmssz5kpjhm43ir,mfMGbpWM,2020-0188,2020-06-04,10:44:43,11:03:14,NA,incomplete,6,shape,0,1,left,Red_Circle_Dots_4.jpg,Green_Circle_Grid_2.jpg,Purple_Star_Stripes_4.jpg,left,1002.4300000222865,true,high,false
mfMGbpWM,3ha5odm5ld5arw3bkcnh3xryudvvsa,3kakfy4pgyf38twqmssz5kpjhm43ir,mfMGbpWM,2020-0188,2020-06-04,10:44:43,11:03:14,NA,incomplete,7,shape,0,1,left,Blue_Star_Stripes_4.jpg,Red_Star_Chess_1.jpg,Purple_Plus_Grid_4.jpg,left,1073.0949999997392,true,high,false
mfMGbpWM,3ha5odm5ld5arw3bkcnh3xryudvvsa,3kakfy4pgyf38twqmssz5kpjhm43ir,mfMGbpWM,2020-0188,2020-06-04,10:44:43,11:03:14,NA,incomplete,8,shape,0,1,left,Purple_Triangle_Grid_2.jpg,Red_Triangle_Dots_3.jpg,Blue_Star_Stripes_2.jpg,left,1073.4450000163633,true,high,false
mfMGbpWM,3ha5odm5ld5arw3bkcnh3xryudvvsa,3kakfy4pgyf38twqmssz5kpjhm43ir,mfMGbpWM,2020-0188,2020-06-04,10:44:43,11:03:14,NA,incomplete,9,shape,0,1,right,Purple_Plus_Grid_1.jpg,Blue_Star_Chess_1.jpg,Green_Plus_Stripes_2.jpg,right,1418.4699999750592,true,high,false
mfMGbpWM,3ha5odm5ld5arw3bkcnh3xryudvvsa,3kakfy4pgyf38twqmssz5kpjhm43ir,mfMGbpWM,2020-0188,2020-06-04,10:44:43,11:03:14,NA,incomplete,10,number,1,1,left,Purple_Plus_Dots_1.jpg,Green_Circle_Grid_1.jpg,Red_Plus_Stripes_3.jpg,right,968.204999982845,false,high,false
mfMGbpWM,3ha5odm5ld5arw3bkcnh3xryudvvsa,3kakfy4pgyf38twqmssz5kpjhm43ir,mfMGbpWM,2020-0188,2020-06-04,10:44:43,11:03:14,NA,incomplete,11,number,1,0,right,Red_Circle_Chess_3.jpg,Purple_Circle_Grid_2.jpg,Blue_Triangle_Stripes_3.jpg,left,849.709999980405,false,high,false
mfMGbpWM,3ha5odm5ld5arw3bkcnh3xryudvvsa,3kakfy4pgyf38twqmssz5kpjhm43ir,mfMGbpWM,2020-0188,2020-06-04,10:44:43,11:03:14,NA,incomplete,12,number,1,1,right,Red_Circle_Chess_4.jpg,Purple_Circle_Stripes_1.jpg,Blue_Star_Dots_4.jpg,left,884.8049999796785,false,high,false
mfMGbpWM,3ha5odm5ld5arw3bkcnh3xryudvvsa,3kakfy4pgyf38twqmssz5kpjhm43ir,mfMGbpWM,2020-0188,2020-06-04,10:44:43,11:03:14,NA,incomplete,13,number,1,1,left,Green_Circle_Dots_1.jpg,Blue_Plus_Stripes_1.jpg,Purple_Circle_Chess_4.jpg,right,851.1699999799021,false,high,false
mfMGbpWM,3ha5odm5ld5arw3bkcnh3xryudvvsa,3kakfy4pgyf38twqmssz5kpjhm43ir,mfMGbpWM,2020-0188,2020-06-04,10:44:43,11:03:14,NA,incomplete,14,number,1,1,left,Blue_Circle_Chess_2.jpg,Red_Plus_Dots_2.jpg,Purple_Circle_Stripes_1.jpg,right,902.4100000096951,false,high,false
mfMGbpWM,3ha5odm5ld5arw3bkcnh3xryudvvsa,3kakfy4pgyf38twqmssz5kpjhm43ir,mfMGbpWM,2020-0188,2020-06-04,10:44:43,11:03:14,NA,incomplete,15,number,1,0,left,Blue_Plus_Chess_4.jpg,Purple_Triangle_Stripes_4.jpg,Green_Plus_Grid_2.jpg,left,1111.7749999975786,true,high,false
mfMGbpWM,3ha5odm5ld5arw3bkcnh3xryudvvsa,3kakfy4pgyf38twqmssz5kpjhm43ir,mfMGbpWM,2020-0188,2020-06-04,10:44:43,11:03:14,NA,incomplete,16,number,1,1,right,Blue_Triangle_Grid_2.jpg,Purple_Triangle_Stripes_4.jpg,Red_Plus_Dots_2.jpg,right,1498.535000020638,true,high,false
mfMGbpWM,3ha5odm5ld5arw3bkcnh3xryudvvsa,3kakfy4pgyf38twqmssz5kpjhm43ir,mfMGbpWM,2020-0188,2020-06-04,10:44:43,11:03:14,NA,incomplete,17,number,1,1,left,Green_Triangle_Stripes_4.jpg,Blue_Star_Dots_4.jpg,Purple_Triangle_Chess_3.jpg,left,1408.1899999873713,true,high,false
mfMGbpWM,3ha5odm5ld5arw3bkcnh3xryudvvsa,3kakfy4pgyf38twqmssz5kpjhm43ir,mfMGbpWM,2020-0188,2020-06-04,10:44:43,11:03:14,NA,incomplete,18,number,1,1,left,Red_Circle_Stripes_4.jpg,Purple_Star_Chess_4.jpg,Green_Circle_Grid_2.jpg,left,824.4750000012573,true,high,false
mfMGbpWM,3ha5odm5ld5arw3bkcnh3xryudvvsa,3kakfy4pgyf38twqmssz5kpjhm43ir,mfMGbpWM,2020-0188,2020-06-04,10:44:43,11:03:14,NA,incomplete,19,number,1,1,right,Blue_Circle_Chess_1.jpg,Purple_Circle_Grid_4.jpg,Red_Triangle_Dots_1.jpg,right,882.6700000208803,true,high,false
mfMGbpWM,3ha5odm5ld5arw3bkcnh3xryudvvsa,3kakfy4pgyf38twqmssz5kpjhm43ir,mfMGbpWM,2020-0188,2020-06-04,10:44:43,11:03:14,NA,incomplete,20,shape,0,1,left,Green_Plus_Chess_2.jpg,Purple_Plus_Dots_3.jpg,Blue_Triangle_Stripes_2.jpg,right,893.8800000178162,false,high,false
mfMGbpWM,3ha5odm5ld5arw3bkcnh3xryudvvsa,3kakfy4pgyf38twqmssz5kpjhm43ir,mfMGbpWM,2020-0188,2020-06-04,10:44:43,11:03:14,NA,incomplete,21,shape,0,1,left,Red_Plus_Dots_3.jpg,Blue_Plus_Chess_1.jpg,Green_Star_Stripes_3.jpg,right,886.0350000031758,false,high,false
mfMGbpWM,3ha5odm5ld5arw3bkcnh3xryudvvsa,3kakfy4pgyf38twqmssz5kpjhm43ir,mfMGbpWM,2020-0188,2020-06-04,10:44:43,11:03:14,NA,incomplete,22,shape,0,1,left,Red_Circle_Dots_4.jpg,Purple_Circle_Stripes_3.jpg,Blue_Triangle_Chess_4.jpg,right,1771.5099999913946,false,high,false
mfMGbpWM,3ha5odm5ld5arw3bkcnh3xryudvvsa,3kakfy4pgyf38twqmssz5kpjhm43ir,mfMGbpWM,2020-0188,2020-06-04,10:44:43,11:03:14,NA,incomplete,23,shape,0,1,left,Green_Triangle_Grid_3.jpg,Purple_Triangle_Dots_4.jpg,Red_Star_Stripes_3.jpg,left,1033.1850000075065,true,high,false
mfMGbpWM,3ha5odm5ld5arw3bkcnh3xryudvvsa,3kakfy4pgyf38twqmssz5kpjhm43ir,mfMGbpWM,2020-0188,2020-06-04,10:44:43,11:03:14,NA,incomplete,24,shape,0,1,left,Blue_Star_Dots_3.jpg,Green_Star_Grid_4.jpg,Red_Triangle_Stripes_3.jpg,right,1663.604999979725,false,high,false
mfMGbpWM,3ha5odm5ld5arw3bkcnh3xryudvvsa,3kakfy4pgyf38twqmssz5kpjhm43ir,mfMGbpWM,2020-0188,2020-06-04,10:44:43,11:03:14,NA,incomplete,25,shape,0,0,left,Blue_Circle_Stripes_4.jpg,Red_Circle_Chess_1.jpg,Purple_Triangle_Grid_4.jpg,left,1005.6800000020303,true,high,false
mfMGbpWM,3ha5odm5ld5arw3bkcnh3xryudvvsa,3kakfy4pgyf38twqmssz5kpjhm43ir,mfMGbpWM,2020-0188,2020-06-04,10:44:43,11:03:14,NA,incomplete,26,shape,0,1,right,Purple_Triangle_Stripes_2.jpg,Red_Plus_Dots_2.jpg,Green_Triangle_Grid_3.jpg,left,1073.2549999956973,false,high,false
mfMGbpWM,3ha5odm5ld5arw3bkcnh3xryudvvsa,3kakfy4pgyf38twqmssz5kpjhm43ir,mfMGbpWM,2020-0188,2020-06-04,10:44:43,11:03:14,NA,incomplete,27,shape,0,0,left,Red_Plus_Stripes_2.jpg,Purple_Plus_Chess_4.jpg,Green_Circle_Grid_2.jpg,left,989.3400000000838,true,high,false
mfMGbpWM,3ha5odm5ld5arw3bkcnh3xryudvvsa,3kakfy4pgyf38twqmssz5kpjhm43ir,mfMGbpWM,2020-0188,2020-06-04,10:44:43,11:03:14,NA,incomplete,28,shape,0,1,right,Blue_Plus_Dots_1.jpg,Red_Star_Stripes_1.jpg,Green_Plus_Grid_4.jpg,right,1114.899999985937,true,high,false
mfMGbpWM,3ha5odm5ld5arw3bkcnh3xryudvvsa,3kakfy4pgyf38twqmssz5kpjhm43ir,mfMGbpWM,2020-0188,2020-06-04,10:44:43,11:03:14,NA,incomplete,29,shape,0,1,right,Purple_Star_Grid_2.jpg,Blue_Plus_Chess_2.jpg,Green_Star_Dots_3.jpg,right,1568.2099999976344,true,high,false
mfMGbpWM,3ha5odm5ld5arw3bkcnh3xryudvvsa,3kakfy4pgyf38twqmssz5kpjhm43ir,mfMGbpWM,2020-0188,2020-06-04,10:44:43,11:03:14,NA,incomplete,30,number,1,1,right,Blue_Circle_Stripes_1.jpg,Green_Circle_Grid_4.jpg,Purple_Plus_Dots_1.jpg,left,972.5549999857321,false,high,false
mfMGbpWM,3ha5odm5ld5arw3bkcnh3xryudvvsa,3kakfy4pgyf38twqmssz5kpjhm43ir,mfMGbpWM,2020-0188,2020-06-04,10:44:43,11:03:14,NA,incomplete,31,number,1,1,left,Green_Triangle_Dots_3.jpg,Purple_Star_Chess_3.jpg,Red_Triangle_Stripes_4.jpg,left,1157.4100000143517,true,high,false
mfMGbpWM,3ha5odm5ld5arw3bkcnh3xryudvvsa,3kakfy4pgyf38twqmssz5kpjhm43ir,mfMGbpWM,2020-0188,2020-06-04,10:44:43,11:03:14,NA,incomplete,32,number,1,0,left,Red_Star_Dots_3.jpg,Green_Circle_Chess_3.jpg,Purple_Star_Grid_4.jpg,left,1612.2700000123587,true,high,false
mfMGbpWM,3ha5odm5ld5arw3bkcnh3xryudvvsa,3kakfy4pgyf38twqmssz5kpjhm43ir,mfMGbpWM,2020-0188,2020-06-04,10:44:43,11:03:14,NA,incomplete,33,number,1,1,left,Blue_Circle_Dots_2.jpg,Green_Star_Grid_2.jpg,Red_Circle_Chess_3.jpg,right,931.6249999974389,false,high,false
mfMGbpWM,3ha5odm5ld5arw3bkcnh3xryudvvsa,3kakfy4pgyf38twqmssz5kpjhm43ir,mfMGbpWM,2020-0188,2020-06-04,10:44:43,11:03:14,NA,incomplete,34,number,1,1,right,Blue_Circle_Stripes_3.jpg,Purple_Circle_Dots_4.jpg,Green_Star_Grid_3.jpg,right,1535.9750000061467,true,high,false
mfMGbpWM,3ha5odm5ld5arw3bkcnh3xryudvvsa,3kakfy4pgyf38twqmssz5kpjhm43ir,mfMGbpWM,2020-0188,2020-06-04,10:44:43,11:03:14,NA,incomplete,35,number,1,1,right,Green_Circle_Stripes_4.jpg,Purple_Circle_Dots_3.jpg,Blue_Star_Grid_4.jpg,right,925.6750000058673,true,high,false
mfMGbpWM,3ha5odm5ld5arw3bkcnh3xryudvvsa,3kakfy4pgyf38twqmssz5kpjhm43ir,mfMGbpWM,2020-0188,2020-06-04,10:44:43,11:03:14,NA,incomplete,36,number,1,0,right,Red_Star_Chess_2.jpg,Purple_Star_Grid_4.jpg,Green_Triangle_Stripes_2.jpg,right,1155.0599999900442,true,high,false
mfMGbpWM,3ha5odm5ld5arw3bkcnh3xryudvvsa,3kakfy4pgyf38twqmssz5kpjhm43ir,mfMGbpWM,2020-0188,2020-06-04,10:44:43,11:03:14,NA,incomplete,37,number,1,1,right,Blue_Triangle_Stripes_3.jpg,Purple_Triangle_Dots_4.jpg,Red_Star_Grid_3.jpg,left,954.1899999894667,false,high,false
mfMGbpWM,3ha5odm5ld5arw3bkcnh3xryudvvsa,3kakfy4pgyf38twqmssz5kpjhm43ir,mfMGbpWM,2020-0188,2020-06-04,10:44:43,11:03:14,NA,incomplete,38,number,1,1,right,Purple_Circle_Chess_1.jpg,Blue_Circle_Dots_3.jpg,Red_Triangle_Stripes_1.jpg,right,743.3300000266172,true,high,false
mfMGbpWM,3ha5odm5ld5arw3bkcnh3xryudvvsa,3kakfy4pgyf38twqmssz5kpjhm43ir,mfMGbpWM,2020-0188,2020-06-04,10:44:43,11:03:14,NA,incomplete,39,number,1,1,right,Purple_Circle_Grid_1.jpg,Red_Circle_Dots_3.jpg,Green_Plus_Chess_1.jpg,right,756.2399999878835,true,high,false
mfMGbpWM,3ha5odm5ld5arw3bkcnh3xryudvvsa,3kakfy4pgyf38twqmssz5kpjhm43ir,mfMGbpWM,2020-0188,2020-06-04,10:44:43,11:03:14,NA,incomplete,40,shape,0,1,left,Blue_Star_Dots_2.jpg,Green_Star_Grid_3.jpg,Purple_Circle_Stripes_2.jpg,right,1247.7549999894109,false,high,false
mfMGbpWM,3ha5odm5ld5arw3bkcnh3xryudvvsa,3kakfy4pgyf38twqmssz5kpjhm43ir,mfMGbpWM,2020-0188,2020-06-04,10:44:43,11:03:14,NA,incomplete,41,shape,0,1,left,Blue_Star_Grid_4.jpg,Red_Star_Chess_2.jpg,Green_Triangle_Stripes_4.jpg,right,882.290000008652,false,high,false
mfMGbpWM,3ha5odm5ld5arw3bkcnh3xryudvvsa,3kakfy4pgyf38twqmssz5kpjhm43ir,mfMGbpWM,2020-0188,2020-06-04,10:44:43,11:03:14,NA,incomplete,42,shape,0,1,left,Purple_Triangle_Grid_2.jpg,Blue_Triangle_Stripes_4.jpg,Red_Star_Dots_2.jpg,right,786.7249999835622,false,high,false
mfMGbpWM,3ha5odm5ld5arw3bkcnh3xryudvvsa,3kakfy4pgyf38twqmssz5kpjhm43ir,mfMGbpWM,2020-0188,2020-06-04,10:44:43,11:03:14,NA,incomplete,43,shape,0,0,right,Red_Plus_Stripes_1.jpg,Green_Star_Chess_1.jpg,Blue_Plus_Dots_2.jpg,right,1854.9300000013318,true,high,false
mfMGbpWM,3ha5odm5ld5arw3bkcnh3xryudvvsa,3kakfy4pgyf38twqmssz5kpjhm43ir,mfMGbpWM,2020-0188,2020-06-04,10:44:43,11:03:14,NA,incomplete,44,shape,0,1,left,Blue_Star_Grid_4.jpg,Purple_Star_Stripes_3.jpg,Red_Plus_Chess_4.jpg,right,1269.880000007106,false,high,false
mfMGbpWM,3ha5odm5ld5arw3bkcnh3xryudvvsa,3kakfy4pgyf38twqmssz5kpjhm43ir,mfMGbpWM,2020-0188,2020-06-04,10:44:43,11:03:14,NA,incomplete,45,shape,0,1,left,Blue_Triangle_Stripes_3.jpg,Purple_Triangle_Grid_4.jpg,Red_Circle_Chess_3.jpg,right,1226.6950000193901,false,high,false
mfMGbpWM,3ha5odm5ld5arw3bkcnh3xryudvvsa,3kakfy4pgyf38twqmssz5kpjhm43ir,mfMGbpWM,2020-0188,2020-06-04,10:44:43,11:03:14,NA,incomplete,46,shape,0,1,right,Green_Circle_Dots_3.jpg,Red_Plus_Stripes_3.jpg,Purple_Circle_Chess_1.jpg,left,1026.465000002645,false,high,false
mfMGbpWM,3ha5odm5ld5arw3bkcnh3xryudvvsa,3kakfy4pgyf38twqmssz5kpjhm43ir,mfMGbpWM,2020-0188,2020-06-04,10:44:43,11:03:14,NA,incomplete,47,shape,0,1,right,Red_Plus_Dots_4.jpg,Blue_Triangle_Grid_4.jpg,Purple_Plus_Stripes_3.jpg,right,877.1899999992456,true,high,false
mfMGbpWM,3ha5odm5ld5arw3bkcnh3xryudvvsa,3kakfy4pgyf38twqmssz5kpjhm43ir,mfMGbpWM,2020-0188,2020-06-04,10:44:43,11:03:14,NA,incomplete,48,shape,0,1,right,Blue_Star_Stripes_1.jpg,Green_Triangle_Grid_1.jpg,Red_Star_Dots_4.jpg,right,1037.3399999807589,true,high,false
mfMGbpWM,3ha5odm5ld5arw3bkcnh3xryudvvsa,3kakfy4pgyf38twqmssz5kpjhm43ir,mfMGbpWM,2020-0188,2020-06-04,10:44:43,11:03:14,NA,incomplete,49,shape,0,1,right,Blue_Star_Grid_2.jpg,Purple_Triangle_Stripes_2.jpg,Red_Star_Dots_4.jpg,left,1054.3699999980163,false,high,false
mfMGbpWM,3ha5odm5ld5arw3bkcnh3xryudvvsa,3kakfy4pgyf38twqmssz5kpjhm43ir,mfMGbpWM,2020-0188,2020-06-04,10:44:43,11:03:14,NA,incomplete,50,number,1,1,left,Green_Plus_Stripes_3.jpg,Purple_Circle_Grid_3.jpg,Red_Plus_Dots_4.jpg,right,961.9299999903888,false,high,false
mfMGbpWM,3ha5odm5ld5arw3bkcnh3xryudvvsa,3kakfy4pgyf38twqmssz5kpjhm43ir,mfMGbpWM,2020-0188,2020-06-04,10:44:43,11:03:14,NA,incomplete,51,number,1,1,left,Purple_Triangle_Stripes_1.jpg,Blue_Circle_Dots_1.jpg,Green_Triangle_Grid_3.jpg,left,954.6250000130385,true,high,false
mfMGbpWM,3ha5odm5ld5arw3bkcnh3xryudvvsa,3kakfy4pgyf38twqmssz5kpjhm43ir,mfMGbpWM,2020-0188,2020-06-04,10:44:43,11:03:14,NA,incomplete,52,number,1,1,left,Red_Star_Chess_4.jpg,Green_Circle_Grid_4.jpg,Blue_Star_Stripes_2.jpg,left,1477.9949999938253,true,high,false
mfMGbpWM,3ha5odm5ld5arw3bkcnh3xryudvvsa,3kakfy4pgyf38twqmssz5kpjhm43ir,mfMGbpWM,2020-0188,2020-06-04,10:44:43,11:03:14,NA,incomplete,53,number,1,1,right,Blue_Star_Grid_1.jpg,Red_Star_Stripes_3.jpg,Green_Triangle_Chess_1.jpg,right,1486.8399999977555,true,high,false
mfMGbpWM,3ha5odm5ld5arw3bkcnh3xryudvvsa,3kakfy4pgyf38twqmssz5kpjhm43ir,mfMGbpWM,2020-0188,2020-06-04,10:44:43,11:03:14,NA,incomplete,54,number,1,1,left,Purple_Triangle_Stripes_2.jpg,Blue_Circle_Chess_2.jpg,Red_Triangle_Grid_3.jpg,left,1201.1399999901187,true,high,false
mfMGbpWM,3ha5odm5ld5arw3bkcnh3xryudvvsa,3kakfy4pgyf38twqmssz5kpjhm43ir,mfMGbpWM,2020-0188,2020-06-04,10:44:43,11:03:14,NA,incomplete,55,number,1,0,right,Red_Plus_Stripes_1.jpg,Purple_Plus_Dots_2.jpg,Blue_Circle_Chess_1.jpg,right,930.2900000184309,true,high,false
mfMGbpWM,3ha5odm5ld5arw3bkcnh3xryudvvsa,3kakfy4pgyf38twqmssz5kpjhm43ir,mfMGbpWM,2020-0188,2020-06-04,10:44:43,11:03:14,NA,incomplete,56,number,1,1,left,Blue_Star_Grid_4.jpg,Purple_Plus_Chess_4.jpg,Green_Star_Stripes_3.jpg,right,1039.1799999924842,false,high,false
mfMGbpWM,3ha5odm5ld5arw3bkcnh3xryudvvsa,3kakfy4pgyf38twqmssz5kpjhm43ir,mfMGbpWM,2020-0188,2020-06-04,10:44:43,11:03:14,NA,incomplete,57,number,1,1,right,Red_Plus_Chess_4.jpg,Blue_Plus_Dots_3.jpg,Purple_Circle_Grid_4.jpg,right,1198.5949999943841,true,high,false
mfMGbpWM,3ha5odm5ld5arw3bkcnh3xryudvvsa,3kakfy4pgyf38twqmssz5kpjhm43ir,mfMGbpWM,2020-0188,2020-06-04,10:44:43,11:03:14,NA,incomplete,58,number,1,1,right,Green_Triangle_Chess_2.jpg,Blue_Triangle_Dots_4.jpg,Purple_Circle_Stripes_2.jpg,right,974.4850000133738,true,high,false
mfMGbpWM,3ha5odm5ld5arw3bkcnh3xryudvvsa,3kakfy4pgyf38twqmssz5kpjhm43ir,mfMGbpWM,2020-0188,2020-06-04,10:44:43,11:03:14,NA,incomplete,59,number,1,1,left,Red_Plus_Grid_2.jpg,Blue_Circle_Stripes_2.jpg,Purple_Plus_Dots_3.jpg,left,919.9099999968894,true,high,false
mfMGbpWM,3ha5odm5ld5arw3bkcnh3xryudvvsa,3kakfy4pgyf38twqmssz5kpjhm43ir,mfMGbpWM,2020-0188,2020-06-04,10:44:43,11:03:14,NA,incomplete,60,shape,0,1,right,Blue_Plus_Chess_2.jpg,Green_Circle_Grid_2.jpg,Red_Plus_Stripes_4.jpg,left,855.8550000016112,false,high,false
mfMGbpWM,3ha5odm5ld5arw3bkcnh3xryudvvsa,3kakfy4pgyf38twqmssz5kpjhm43ir,mfMGbpWM,2020-0188,2020-06-04,10:44:43,11:03:14,NA,incomplete,61,shape,0,0,right,Red_Triangle_Grid_2.jpg,Purple_Circle_Chess_2.jpg,Green_Triangle_Dots_4.jpg,right,1060.700000001816,true,high,false
mfMGbpWM,3ha5odm5ld5arw3bkcnh3xryudvvsa,3kakfy4pgyf38twqmssz5kpjhm43ir,mfMGbpWM,2020-0188,2020-06-04,10:44:43,11:03:14,NA,incomplete,62,shape,0,1,left,Red_Circle_Chess_1.jpg,Green_Circle_Stripes_2.jpg,Blue_Triangle_Grid_1.jpg,right,974.8949999921024,false,high,false
mfMGbpWM,3ha5odm5ld5arw3bkcnh3xryudvvsa,3kakfy4pgyf38twqmssz5kpjhm43ir,mfMGbpWM,2020-0188,2020-06-04,10:44:43,11:03:14,NA,incomplete,63,shape,0,1,left,Red_Triangle_Grid_2.jpg,Purple_Triangle_Chess_4.jpg,Blue_Star_Dots_2.jpg,right,913.3750000037253,false,high,false
mfMGbpWM,3ha5odm5ld5arw3bkcnh3xryudvvsa,3kakfy4pgyf38twqmssz5kpjhm43ir,mfMGbpWM,2020-0188,2020-06-04,10:44:43,11:03:14,NA,incomplete,64,shape,0,0,left,Green_Triangle_Chess_4.jpg,Blue_Triangle_Grid_2.jpg,Purple_Circle_Stripes_4.jpg,left,846.224999986589,true,high,false
mfMGbpWM,3ha5odm5ld5arw3bkcnh3xryudvvsa,3kakfy4pgyf38twqmssz5kpjhm43ir,mfMGbpWM,2020-0188,2020-06-04,10:44:43,11:03:14,NA,incomplete,65,shape,0,1,right,Red_Circle_Dots_1.jpg,Green_Star_Stripes_1.jpg,Blue_Circle_Chess_4.jpg,left,870.5499999923632,false,high,false
mfMGbpWM,3ha5odm5ld5arw3bkcnh3xryudvvsa,3kakfy4pgyf38twqmssz5kpjhm43ir,mfMGbpWM,2020-0188,2020-06-04,10:44:43,11:03:14,NA,incomplete,66,shape,0,1,left,Red_Plus_Grid_1.jpg,Purple_Plus_Stripes_4.jpg,Green_Triangle_Dots_1.jpg,left,1044.965000008233,true,high,false
mfMGbpWM,3ha5odm5ld5arw3bkcnh3xryudvvsa,3kakfy4pgyf38twqmssz5kpjhm43ir,mfMGbpWM,2020-0188,2020-06-04,10:44:43,11:03:14,NA,incomplete,67,shape,0,1,left,Green_Plus_Dots_4.jpg,Red_Plus_Chess_1.jpg,Blue_Triangle_Grid_4.jpg,left,875.7349999796133,true,high,false
mfMGbpWM,3ha5odm5ld5arw3bkcnh3xryudvvsa,3kakfy4pgyf38twqmssz5kpjhm43ir,mfMGbpWM,2020-0188,2020-06-04,10:44:43,11:03:14,NA,incomplete,68,shape,0,1,left,Red_Star_Dots_1.jpg,Blue_Star_Stripes_3.jpg,Green_Triangle_Chess_1.jpg,left,946.1800000281073,true,high,false
mfMGbpWM,3ha5odm5ld5arw3bkcnh3xryudvvsa,3kakfy4pgyf38twqmssz5kpjhm43ir,mfMGbpWM,2020-0188,2020-06-04,10:44:43,11:03:14,NA,incomplete,69,shape,0,1,left,Blue_Circle_Stripes_1.jpg,Purple_Circle_Chess_2.jpg,Green_Plus_Dots_1.jpg,left,891.6350000072271,true,high,false
mfMGbpWM,3ha5odm5ld5arw3bkcnh3xryudvvsa,3kakfy4pgyf38twqmssz5kpjhm43ir,mfMGbpWM,2020-0188,2020-06-04,10:44:43,11:03:14,NA,incomplete,70,number,1,1,left,Green_Circle_Grid_3.jpg,Red_Triangle_Dots_3.jpg,Blue_Circle_Stripes_2.jpg,right,1068.5600000142585,false,high,false
mfMGbpWM,3ha5odm5ld5arw3bkcnh3xryudvvsa,3kakfy4pgyf38twqmssz5kpjhm43ir,mfMGbpWM,2020-0188,2020-06-04,10:44:43,11:03:14,NA,incomplete,71,number,1,0,right,Green_Triangle_Stripes_4.jpg,Blue_Triangle_Grid_3.jpg,Red_Circle_Chess_4.jpg,right,1430.1500000001397,true,high,false
mfMGbpWM,3ha5odm5ld5arw3bkcnh3xryudvvsa,3kakfy4pgyf38twqmssz5kpjhm43ir,mfMGbpWM,2020-0188,2020-06-04,10:44:43,11:03:14,NA,incomplete,72,number,1,0,right,Purple_Circle_Grid_3.jpg,Green_Circle_Chess_2.jpg,Blue_Star_Stripes_3.jpg,none,0,false,high,false
mfMGbpWM,3ha5odm5ld5arw3bkcnh3xryudvvsa,3kakfy4pgyf38twqmssz5kpjhm43ir,mfMGbpWM,2020-0188,2020-06-04,10:44:43,11:03:14,NA,incomplete,73,number,1,1,left,Blue_Circle_Chess_3.jpg,Green_Triangle_Stripes_3.jpg,Red_Circle_Dots_2.jpg,right,799.4699999981094,false,high,false
mfMGbpWM,3ha5odm5ld5arw3bkcnh3xryudvvsa,3kakfy4pgyf38twqmssz5kpjhm43ir,mfMGbpWM,2020-0188,2020-06-04,10:44:43,11:03:14,NA,incomplete,74,number,1,0,right,Purple_Plus_Stripes_3.jpg,Blue_Plus_Grid_1.jpg,Red_Triangle_Chess_3.jpg,right,750.7899999909569,true,high,false
mfMGbpWM,3ha5odm5ld5arw3bkcnh3xryudvvsa,3kakfy4pgyf38twqmssz5kpjhm43ir,mfMGbpWM,2020-0188,2020-06-04,10:44:43,11:03:14,NA,incomplete,75,number,1,1,left,Green_Triangle_Dots_2.jpg,Blue_Circle_Grid_2.jpg,Purple_Triangle_Chess_1.jpg,right,1025.2850000106264,false,high,false
mfMGbpWM,3ha5odm5ld5arw3bkcnh3xryudvvsa,3kakfy4pgyf38twqmssz5kpjhm43ir,mfMGbpWM,2020-0188,2020-06-04,10:44:43,11:03:14,NA,incomplete,76,number,1,0,left,Green_Circle_Stripes_1.jpg,Purple_Plus_Grid_1.jpg,Blue_Circle_Dots_3.jpg,left,1311.5150000085123,true,high,false
mfMGbpWM,3ha5odm5ld5arw3bkcnh3xryudvvsa,3kakfy4pgyf38twqmssz5kpjhm43ir,mfMGbpWM,2020-0188,2020-06-04,10:44:43,11:03:14,NA,incomplete,77,number,1,1,left,Green_Circle_Stripes_2.jpg,Purple_Star_Grid_2.jpg,Red_Circle_Chess_1.jpg,left,883.9349999907427,true,high,false
mfMGbpWM,3ha5odm5ld5arw3bkcnh3xryudvvsa,3kakfy4pgyf38twqmssz5kpjhm43ir,mfMGbpWM,2020-0188,2020-06-04,10:44:43,11:03:14,NA,incomplete,78,number,1,0,left,Purple_Triangle_Dots_2.jpg,Red_Star_Stripes_2.jpg,Green_Triangle_Chess_4.jpg,left,886.930000007851,true,high,false
mfMGbpWM,3ha5odm5ld5arw3bkcnh3xryudvvsa,3kakfy4pgyf38twqmssz5kpjhm43ir,mfMGbpWM,2020-0188,2020-06-04,10:44:43,11:03:14,NA,incomplete,79,number,1,1,left,Purple_Circle_Chess_4.jpg,Blue_Star_Stripes_4.jpg,Red_Circle_Grid_2.jpg,left,1112.3049999878276,true,high,false
mfMGbpWM,3ha5odm5ld5arw3bkcnh3xryudvvsa,3kakfy4pgyf38twqmssz5kpjhm43ir,mfMGbpWM,2020-0188,2020-06-04,10:44:43,11:03:14,NA,incomplete,80,shape,0,1,right,Green_Star_Dots_1.jpg,Blue_Plus_Stripes_1.jpg,Red_Star_Chess_3.jpg,left,737.6649999932852,false,high,false
mfMGbpWM,3ha5odm5ld5arw3bkcnh3xryudvvsa,3kakfy4pgyf38twqmssz5kpjhm43ir,mfMGbpWM,2020-0188,2020-06-04,10:44:43,11:03:14,NA,incomplete,81,shape,0,1,left,Blue_Triangle_Chess_3.jpg,Red_Triangle_Stripes_1.jpg,Purple_Plus_Grid_3.jpg,right,747.2300000081304,false,high,false
mfMGbpWM,3ha5odm5ld5arw3bkcnh3xryudvvsa,3kakfy4pgyf38twqmssz5kpjhm43ir,mfMGbpWM,2020-0188,2020-06-04,10:44:43,11:03:14,NA,incomplete,82,shape,0,1,right,Red_Circle_Dots_2.jpg,Green_Triangle_Chess_2.jpg,Blue_Circle_Stripes_3.jpg,left,1136.529999988852,false,high,false
mfMGbpWM,3ha5odm5ld5arw3bkcnh3xryudvvsa,3kakfy4pgyf38twqmssz5kpjhm43ir,mfMGbpWM,2020-0188,2020-06-04,10:44:43,11:03:14,NA,incomplete,83,shape,0,1,right,Red_Circle_Dots_1.jpg,Green_Star_Stripes_1.jpg,Blue_Circle_Grid_3.jpg,left,835.2899999881629,false,high,false
mfMGbpWM,3ha5odm5ld5arw3bkcnh3xryudvvsa,3kakfy4pgyf38twqmssz5kpjhm43ir,mfMGbpWM,2020-0188,2020-06-04,10:44:43,11:03:14,NA,incomplete,84,shape,0,0,right,Green_Circle_Chess_2.jpg,Red_Star_Stripes_2.jpg,Blue_Circle_Grid_4.jpg,left,1024.5900000154506,false,high,false
mfMGbpWM,3ha5odm5ld5arw3bkcnh3xryudvvsa,3kakfy4pgyf38twqmssz5kpjhm43ir,mfMGbpWM,2020-0188,2020-06-04,10:44:43,11:03:14,NA,incomplete,85,shape,0,0,left,Red_Circle_Dots_3.jpg,Purple_Circle_Chess_1.jpg,Blue_Plus_Grid_3.jpg,right,785.1899999950547,false,high,false
mfMGbpWM,3ha5odm5ld5arw3bkcnh3xryudvvsa,3kakfy4pgyf38twqmssz5kpjhm43ir,mfMGbpWM,2020-0188,2020-06-04,10:44:43,11:03:14,NA,incomplete,86,shape,0,1,right,Red_Triangle_Dots_4.jpg,Green_Plus_Chess_4.jpg,Purple_Triangle_Stripes_1.jpg,left,757.6699999917764,false,high,false
mfMGbpWM,3ha5odm5ld5arw3bkcnh3xryudvvsa,3kakfy4pgyf38twqmssz5kpjhm43ir,mfMGbpWM,2020-0188,2020-06-04,10:44:43,11:03:14,NA,incomplete,87,shape,0,1,right,Purple_Triangle_Grid_3.jpg,Green_Plus_Stripes_3.jpg,Red_Triangle_Chess_4.jpg,left,823.9049999974668,false,high,false
mfMGbpWM,3ha5odm5ld5arw3bkcnh3xryudvvsa,3kakfy4pgyf38twqmssz5kpjhm43ir,mfMGbpWM,2020-0188,2020-06-04,10:44:43,11:03:14,NA,incomplete,88,shape,0,1,left,Green_Star_Stripes_1.jpg,Blue_Star_Dots_4.jpg,Red_Triangle_Chess_1.jpg,right,804.3400000024121,false,high,false
mfMGbpWM,3ha5odm5ld5arw3bkcnh3xryudvvsa,3kakfy4pgyf38twqmssz5kpjhm43ir,mfMGbpWM,2020-0188,2020-06-04,10:44:43,11:03:14,NA,incomplete,89,shape,0,1,left,Purple_Triangle_Chess_3.jpg,Green_Triangle_Grid_4.jpg,Red_Circle_Stripes_3.jpg,left,760.3349999990314,true,high,false
mfMGbpWM,3ha5odm5ld5arw3bkcnh3xryudvvsa,3kakfy4pgyf38twqmssz5kpjhm43ir,mfMGbpWM,2020-0188,2020-06-04,10:44:43,11:03:14,NA,incomplete,90,number,1,1,left,Purple_Triangle_Dots_1.jpg,Red_Circle_Grid_1.jpg,Blue_Triangle_Stripes_4.jpg,right,1170.285000000149,false,high,false
mfMGbpWM,3ha5odm5ld5arw3bkcnh3xryudvvsa,3kakfy4pgyf38twqmssz5kpjhm43ir,mfMGbpWM,2020-0188,2020-06-04,10:44:43,11:03:14,NA,incomplete,91,number,1,1,left,Blue_Circle_Grid_4.jpg,Red_Plus_Dots_4.jpg,Purple_Circle_Stripes_1.jpg,right,669.8349999787752,false,high,false
mfMGbpWM,3ha5odm5ld5arw3bkcnh3xryudvvsa,3kakfy4pgyf38twqmssz5kpjhm43ir,mfMGbpWM,2020-0188,2020-06-04,10:44:43,11:03:14,NA,incomplete,92,number,1,1,left,Red_Circle_Grid_1.jpg,Blue_Plus_Dots_1.jpg,Green_Circle_Chess_2.jpg,left,555.2150000003166,true,high,false
mfMGbpWM,3ha5odm5ld5arw3bkcnh3xryudvvsa,3kakfy4pgyf38twqmssz5kpjhm43ir,mfMGbpWM,2020-0188,2020-06-04,10:44:43,11:03:14,NA,incomplete,93,number,1,1,left,Red_Triangle_Stripes_1.jpg,Blue_Star_Grid_1.jpg,Green_Triangle_Dots_4.jpg,right,564.7850000241306,false,high,false
mfMGbpWM,3ha5odm5ld5arw3bkcnh3xryudvvsa,3kakfy4pgyf38twqmssz5kpjhm43ir,mfMGbpWM,2020-0188,2020-06-04,10:44:43,11:03:14,NA,incomplete,94,number,1,1,left,Green_Circle_Dots_3.jpg,Blue_Star_Grid_3.jpg,Red_Circle_Stripes_1.jpg,left,556.2199999985751,true,high,false
mfMGbpWM,3ha5odm5ld5arw3bkcnh3xryudvvsa,3kakfy4pgyf38twqmssz5kpjhm43ir,mfMGbpWM,2020-0188,2020-06-04,10:44:43,11:03:14,NA,incomplete,95,number,1,1,right,Purple_Circle_Stripes_4.jpg,Green_Circle_Grid_1.jpg,Red_Star_Chess_4.jpg,right,598.2150000054389,true,high,false
mfMGbpWM,3ha5odm5ld5arw3bkcnh3xryudvvsa,3kakfy4pgyf38twqmssz5kpjhm43ir,mfMGbpWM,2020-0188,2020-06-04,10:44:43,11:03:14,NA,incomplete,96,number,1,0,right,Blue_Circle_Grid_2.jpg,Purple_Circle_Stripes_1.jpg,Green_Plus_Dots_2.jpg,right,627.7999999874737,true,high,false
mfMGbpWM,3ha5odm5ld5arw3bkcnh3xryudvvsa,3kakfy4pgyf38twqmssz5kpjhm43ir,mfMGbpWM,2020-0188,2020-06-04,10:44:43,11:03:14,NA,incomplete,97,number,1,1,left,Green_Triangle_Chess_4.jpg,Blue_Circle_Dots_4.jpg,Purple_Triangle_Grid_3.jpg,left,888.0599999974947,true,high,false
mfMGbpWM,3ha5odm5ld5arw3bkcnh3xryudvvsa,3kakfy4pgyf38twqmssz5kpjhm43ir,mfMGbpWM,2020-0188,2020-06-04,10:44:43,11:03:14,NA,incomplete,98,number,1,1,right,Blue_Star_Grid_1.jpg,Purple_Star_Stripes_3.jpg,Green_Circle_Chess_1.jpg,right,700.5899999930989,true,high,false
mfMGbpWM,3ha5odm5ld5arw3bkcnh3xryudvvsa,3kakfy4pgyf38twqmssz5kpjhm43ir,mfMGbpWM,2020-0188,2020-06-04,10:44:43,11:03:14,NA,incomplete,99,number,1,1,right,Purple_Star_Chess_1.jpg,Red_Star_Dots_2.jpg,Green_Triangle_Stripes_1.jpg,right,761.5200000000186,true,high,false
mfMGbpWM,3ha5odm5ld5arw3bkcnh3xryudvvsa,3kakfy4pgyf38twqmssz5kpjhm43ir,mfMGbpWM,2020-0188,2020-06-04,10:44:43,11:03:14,NA,incomplete,100,shape,0,1,right,Red_Triangle_Stripes_1.jpg,Green_Plus_Chess_1.jpg,Purple_Triangle_Grid_2.jpg,left,835.6300000159536,false,high,false
mfMGbpWM,3ha5odm5ld5arw3bkcnh3xryudvvsa,3kakfy4pgyf38twqmssz5kpjhm43ir,mfMGbpWM,2020-0188,2020-06-04,10:44:43,11:03:14,NA,incomplete,101,shape,0,1,right,Green_Plus_Chess_3.jpg,Purple_Triangle_Grid_3.jpg,Blue_Plus_Stripes_2.jpg,left,1161.7049999767914,false,high,false
mfMGbpWM,3ha5odm5ld5arw3bkcnh3xryudvvsa,3kakfy4pgyf38twqmssz5kpjhm43ir,mfMGbpWM,2020-0188,2020-06-04,10:44:43,11:03:14,NA,incomplete,102,shape,0,1,right,Green_Plus_Chess_3.jpg,Blue_Circle_Grid_3.jpg,Red_Plus_Dots_1.jpg,left,883.5400000098161,false,high,false
mfMGbpWM,3ha5odm5ld5arw3bkcnh3xryudvvsa,3kakfy4pgyf38twqmssz5kpjhm43ir,mfMGbpWM,2020-0188,2020-06-04,10:44:43,11:03:14,NA,incomplete,103,shape,0,0,left,Blue_Circle_Dots_4.jpg,Red_Circle_Grid_3.jpg,Green_Plus_Stripes_4.jpg,right,931.76500001573,false,high,false
mfMGbpWM,3ha5odm5ld5arw3bkcnh3xryudvvsa,3kakfy4pgyf38twqmssz5kpjhm43ir,mfMGbpWM,2020-0188,2020-06-04,10:44:43,11:03:14,NA,incomplete,104,shape,0,1,left,Green_Plus_Stripes_3.jpg,Red_Plus_Grid_4.jpg,Blue_Circle_Chess_3.jpg,right,859.7500000032596,false,high,false
mfMGbpWM,3ha5odm5ld5arw3bkcnh3xryudvvsa,3kakfy4pgyf38twqmssz5kpjhm43ir,mfMGbpWM,2020-0188,2020-06-04,10:44:43,11:03:14,NA,incomplete,105,shape,0,1,left,Purple_Circle_Chess_4.jpg,Blue_Circle_Stripes_1.jpg,Green_Plus_Dots_4.jpg,left,981.5250000101514,true,high,false
mfMGbpWM,3ha5odm5ld5arw3bkcnh3xryudvvsa,3kakfy4pgyf38twqmssz5kpjhm43ir,mfMGbpWM,2020-0188,2020-06-04,10:44:43,11:03:14,NA,incomplete,106,shape,0,1,right,Green_Triangle_Chess_1.jpg,Blue_Circle_Stripes_1.jpg,Purple_Triangle_Dots_2.jpg,right,764.7049999795854,true,high,false
mfMGbpWM,3ha5odm5ld5arw3bkcnh3xryudvvsa,3kakfy4pgyf38twqmssz5kpjhm43ir,mfMGbpWM,2020-0188,2020-06-04,10:44:43,11:03:14,NA,incomplete,107,shape,0,1,right,Purple_Circle_Stripes_4.jpg,Red_Triangle_Dots_4.jpg,Blue_Circle_Grid_1.jpg,right,1213.2150000252295,true,high,false
mfMGbpWM,3ha5odm5ld5arw3bkcnh3xryudvvsa,3kakfy4pgyf38twqmssz5kpjhm43ir,mfMGbpWM,2020-0188,2020-06-04,10:44:43,11:03:14,NA,incomplete,108,shape,0,0,right,Purple_Plus_Grid_1.jpg,Green_Star_Stripes_1.jpg,Red_Plus_Chess_4.jpg,right,1020.5000000132713,true,high,false
mfMGbpWM,3ha5odm5ld5arw3bkcnh3xryudvvsa,3kakfy4pgyf38twqmssz5kpjhm43ir,mfMGbpWM,2020-0188,2020-06-04,10:44:43,11:03:14,NA,incomplete,109,shape,0,1,left,Green_Triangle_Grid_2.jpg,Purple_Triangle_Stripes_1.jpg,Blue_Star_Dots_2.jpg,right,871.8250000092667,false,high,false
mfMGbpWM,3ha5odm5ld5arw3bkcnh3xryudvvsa,3kakfy4pgyf38twqmssz5kpjhm43ir,mfMGbpWM,2020-0188,2020-06-04,10:44:43,11:03:14,NA,incomplete,110,number,1,1,right,Green_Star_Dots_4.jpg,Blue_Star_Stripes_3.jpg,Red_Triangle_Chess_4.jpg,left,1035.3499999910127,false,high,false
mfMGbpWM,3ha5odm5ld5arw3bkcnh3xryudvvsa,3kakfy4pgyf38twqmssz5kpjhm43ir,mfMGbpWM,2020-0188,2020-06-04,10:44:43,11:03:14,NA,incomplete,111,number,1,1,right,Red_Triangle_Chess_4.jpg,Purple_Triangle_Stripes_1.jpg,Blue_Star_Grid_4.jpg,right,954.6050000062678,true,high,false
mfMGbpWM,3ha5odm5ld5arw3bkcnh3xryudvvsa,3kakfy4pgyf38twqmssz5kpjhm43ir,mfMGbpWM,2020-0188,2020-06-04,10:44:43,11:03:14,NA,incomplete,112,number,1,1,right,Blue_Star_Chess_1.jpg,Purple_Star_Dots_3.jpg,Red_Triangle_Stripes_1.jpg,right,804.2900000000373,true,high,false
mfMGbpWM,3ha5odm5ld5arw3bkcnh3xryudvvsa,3kakfy4pgyf38twqmssz5kpjhm43ir,mfMGbpWM,2020-0188,2020-06-04,10:44:43,11:03:14,NA,incomplete,113,number,1,1,right,Red_Plus_Dots_4.jpg,Blue_Plus_Grid_2.jpg,Green_Triangle_Chess_4.jpg,right,1027.525000012247,true,high,false
mfMGbpWM,3ha5odm5ld5arw3bkcnh3xryudvvsa,3kakfy4pgyf38twqmssz5kpjhm43ir,mfMGbpWM,2020-0188,2020-06-04,10:44:43,11:03:14,NA,incomplete,114,number,1,0,right,Red_Plus_Stripes_4.jpg,Green_Plus_Grid_1.jpg,Purple_Star_Chess_4.jpg,right,804.759999999078,true,high,false
mfMGbpWM,3ha5odm5ld5arw3bkcnh3xryudvvsa,3kakfy4pgyf38twqmssz5kpjhm43ir,mfMGbpWM,2020-0188,2020-06-04,10:44:43,11:03:14,NA,incomplete,115,number,1,0,right,Blue_Plus_Grid_1.jpg,Red_Plus_Chess_2.jpg,Purple_Star_Dots_1.jpg,right,840.9950000059325,true,high,false
mfMGbpWM,3ha5odm5ld5arw3bkcnh3xryudvvsa,3kakfy4pgyf38twqmssz5kpjhm43ir,mfMGbpWM,2020-0188,2020-06-04,10:44:43,11:03:14,NA,incomplete,116,number,1,0,left,Blue_Star_Stripes_1.jpg,Green_Circle_Grid_1.jpg,Red_Star_Chess_4.jpg,left,800.9750000201166,true,high,false
mfMGbpWM,3ha5odm5ld5arw3bkcnh3xryudvvsa,3kakfy4pgyf38twqmssz5kpjhm43ir,mfMGbpWM,2020-0188,2020-06-04,10:44:43,11:03:14,NA,incomplete,117,number,1,1,right,Blue_Triangle_Grid_1.jpg,Red_Triangle_Dots_3.jpg,Green_Circle_Chess_1.jpg,left,876.1949999898206,false,high,false
mfMGbpWM,3ha5odm5ld5arw3bkcnh3xryudvvsa,3kakfy4pgyf38twqmssz5kpjhm43ir,mfMGbpWM,2020-0188,2020-06-04,10:44:43,11:03:14,NA,incomplete,118,number,1,1,right,Green_Star_Stripes_4.jpg,Purple_Star_Grid_2.jpg,Blue_Circle_Dots_4.jpg,left,1003.0549999792129,false,high,false
mfMGbpWM,3ha5odm5ld5arw3bkcnh3xryudvvsa,3kakfy4pgyf38twqmssz5kpjhm43ir,mfMGbpWM,2020-0188,2020-06-04,10:44:43,11:03:14,NA,incomplete,119,number,1,1,left,Blue_Circle_Chess_2.jpg,Purple_Triangle_Grid_2.jpg,Green_Circle_Stripes_4.jpg,right,915.515000000596,false,high,false
mfMGbpWM,3ha5odm5ld5arw3bkcnh3xryudvvsa,3kakfy4pgyf38twqmssz5kpjhm43ir,mfMGbpWM,2020-0188,2020-06-04,10:44:43,11:03:14,NA,incomplete,120,gender,2,1,right,A_F_07.jpg,A_M_01.jpg,C_F_09.jpg,NA,NA,NA,high,false
mfMGbpWM,3ha5odm5ld5arw3bkcnh3xryudvvsa,3kakfy4pgyf38twqmssz5kpjhm43ir,mfMGbpWM,2020-0188,2020-06-04,10:44:43,11:03:14,NA,incomplete,121,gender,2,1,right,C_F_01.jpg,C_M_10.jpg,A_F_09.jpg,right,759.7700000042096,true,high,false
mfMGbpWM,3ha5odm5ld5arw3bkcnh3xryudvvsa,3kakfy4pgyf38twqmssz5kpjhm43ir,mfMGbpWM,2020-0188,2020-06-04,10:44:43,11:03:14,NA,incomplete,122,gender,2,0,right,A_F_04.jpg,A_M_03.jpg,C_F_06.jpg,right,963.4200000145938,true,high,false
mfMGbpWM,3ha5odm5ld5arw3bkcnh3xryudvvsa,3kakfy4pgyf38twqmssz5kpjhm43ir,mfMGbpWM,2020-0188,2020-06-04,10:44:43,11:03:14,NA,incomplete,123,gender,2,1,right,A_F_13.jpg,A_M_12.jpg,C_F_02.jpg,left,446.17000001017004,false,high,false
mfMGbpWM,3ha5odm5ld5arw3bkcnh3xryudvvsa,3kakfy4pgyf38twqmssz5kpjhm43ir,mfMGbpWM,2020-0188,2020-06-04,10:44:43,11:03:14,NA,incomplete,124,gender,2,1,left,C_M_09.jpg,A_M_05.jpg,C_F_13.jpg,left,903.9849999826401,true,high,false
mfMGbpWM,3ha5odm5ld5arw3bkcnh3xryudvvsa,3kakfy4pgyf38twqmssz5kpjhm43ir,mfMGbpWM,2020-0188,2020-06-04,10:44:43,11:03:14,NA,incomplete,125,gender,2,1,right,C_F_14.jpg,C_M_07.jpg,A_F_06.jpg,right,668.0999999807682,true,high,false
mfMGbpWM,3ha5odm5ld5arw3bkcnh3xryudvvsa,3kakfy4pgyf38twqmssz5kpjhm43ir,mfMGbpWM,2020-0188,2020-06-04,10:44:43,11:03:14,NA,incomplete,126,gender,2,1,left,C_M_15.jpg,A_M_16.jpg,C_F_10.jpg,left,551.1949999781791,true,high,false
mfMGbpWM,3ha5odm5ld5arw3bkcnh3xryudvvsa,3kakfy4pgyf38twqmssz5kpjhm43ir,mfMGbpWM,2020-0188,2020-06-04,10:44:43,11:03:14,NA,incomplete,127,gender,2,0,right,A_F_09.jpg,A_M_15.jpg,C_F_07.jpg,right,984.3899999978021,true,high,false
mfMGbpWM,3ha5odm5ld5arw3bkcnh3xryudvvsa,3kakfy4pgyf38twqmssz5kpjhm43ir,mfMGbpWM,2020-0188,2020-06-04,10:44:43,11:03:14,NA,incomplete,128,gender,2,1,right,C_F_11.jpg,C_M_13.jpg,A_F_06.jpg,left,1102.500000008149,false,high,false
mfMGbpWM,3ha5odm5ld5arw3bkcnh3xryudvvsa,3kakfy4pgyf38twqmssz5kpjhm43ir,mfMGbpWM,2020-0188,2020-06-04,10:44:43,11:03:14,NA,incomplete,129,gender,2,0,left,A_F_03.jpg,C_F_14.jpg,A_M_02.jpg,left,909.9949999945238,true,high,false
mfMGbpWM,3ha5odm5ld5arw3bkcnh3xryudvvsa,3kakfy4pgyf38twqmssz5kpjhm43ir,mfMGbpWM,2020-0188,2020-06-04,10:44:43,11:03:14,NA,incomplete,130,gender,2,1,right,A_M_10.jpg,A_F_11.jpg,C_M_03.jpg,left,1181.8199999979697,false,high,false
mfMGbpWM,3ha5odm5ld5arw3bkcnh3xryudvvsa,3kakfy4pgyf38twqmssz5kpjhm43ir,mfMGbpWM,2020-0188,2020-06-04,10:44:43,11:03:14,NA,incomplete,131,gender,2,1,right,A_F_13.jpg,A_M_15.jpg,C_F_01.jpg,right,1025.4000000131782,true,high,false
mfMGbpWM,3ha5odm5ld5arw3bkcnh3xryudvvsa,3kakfy4pgyf38twqmssz5kpjhm43ir,mfMGbpWM,2020-0188,2020-06-04,10:44:43,11:03:14,NA,incomplete,132,gender,2,1,right,A_M_06.jpg,A_F_02.jpg,C_M_05.jpg,left,1156.3749999913853,false,high,false
mfMGbpWM,3ha5odm5ld5arw3bkcnh3xryudvvsa,3kakfy4pgyf38twqmssz5kpjhm43ir,mfMGbpWM,2020-0188,2020-06-04,10:44:43,11:03:14,NA,incomplete,133,gender,2,1,right,C_F_02.jpg,C_M_03.jpg,A_F_11.jpg,right,847.4700000078883,true,high,false
mfMGbpWM,3ha5odm5ld5arw3bkcnh3xryudvvsa,3kakfy4pgyf38twqmssz5kpjhm43ir,mfMGbpWM,2020-0188,2020-06-04,10:44:43,11:03:14,NA,incomplete,134,gender,2,0,left,C_M_13.jpg,A_M_15.jpg,C_F_09.jpg,left,884.5349999901373,true,high,false
mfMGbpWM,3ha5odm5ld5arw3bkcnh3xryudvvsa,3kakfy4pgyf38twqmssz5kpjhm43ir,mfMGbpWM,2020-0188,2020-06-04,10:44:43,11:03:14,NA,incomplete,135,gender,2,1,left,A_M_02.jpg,C_M_13.jpg,A_F_04.jpg,right,1350.864999985788,false,high,false
mfMGbpWM,3ha5odm5ld5arw3bkcnh3xryudvvsa,3kakfy4pgyf38twqmssz5kpjhm43ir,mfMGbpWM,2020-0188,2020-06-04,10:44:43,11:03:14,NA,incomplete,136,gender,2,0,left,C_F_11.jpg,A_F_12.jpg,C_M_15.jpg,left,1000.4450000124052,true,high,false
mfMGbpWM,3ha5odm5ld5arw3bkcnh3xryudvvsa,3kakfy4pgyf38twqmssz5kpjhm43ir,mfMGbpWM,2020-0188,2020-06-04,10:44:43,11:03:14,NA,incomplete,137,gender,2,1,right,A_F_11.jpg,A_M_06.jpg,C_F_01.jpg,left,1029.5400000177324,false,high,false
mfMGbpWM,3ha5odm5ld5arw3bkcnh3xryudvvsa,3kakfy4pgyf38twqmssz5kpjhm43ir,mfMGbpWM,2020-0188,2020-06-04,10:44:43,11:03:14,NA,incomplete,138,gender,2,1,right,C_F_02.jpg,C_M_03.jpg,A_F_08.jpg,right,799.8549999902025,true,high,false
mfMGbpWM,3ha5odm5ld5arw3bkcnh3xryudvvsa,3kakfy4pgyf38twqmssz5kpjhm43ir,mfMGbpWM,2020-0188,2020-06-04,10:44:43,11:03:14,NA,incomplete,139,gender,2,1,left,A_M_15.jpg,C_M_16.jpg,A_F_03.jpg,left,727.775000006659,true,high,false
mfMGbpWM,3ha5odm5ld5arw3bkcnh3xryudvvsa,3kakfy4pgyf38twqmssz5kpjhm43ir,mfMGbpWM,2020-0188,2020-06-04,10:44:43,11:03:14,NA,incomplete,140,race,3,1,left,A_M_03.jpg,A_F_08.jpg,C_M_10.jpg,right,833.3600000187289,false,high,false
mfMGbpWM,3ha5odm5ld5arw3bkcnh3xryudvvsa,3kakfy4pgyf38twqmssz5kpjhm43ir,mfMGbpWM,2020-0188,2020-06-04,10:44:43,11:03:14,NA,incomplete,141,race,3,0,left,C_F_16.jpg,C_M_08.jpg,A_F_13.jpg,right,1206.2299999815878,false,high,false
mfMGbpWM,3ha5odm5ld5arw3bkcnh3xryudvvsa,3kakfy4pgyf38twqmssz5kpjhm43ir,mfMGbpWM,2020-0188,2020-06-04,10:44:43,11:03:14,NA,incomplete,142,race,3,1,left,A_M_03.jpg,A_F_11.jpg,C_M_05.jpg,right,1430.4399999964517,false,high,false
mfMGbpWM,3ha5odm5ld5arw3bkcnh3xryudvvsa,3kakfy4pgyf38twqmssz5kpjhm43ir,mfMGbpWM,2020-0188,2020-06-04,10:44:43,11:03:14,NA,incomplete,143,race,3,0,left,C_F_02.jpg,C_M_15.jpg,A_F_09.jpg,right,830.6099999754224,false,high,false
mfMGbpWM,3ha5odm5ld5arw3bkcnh3xryudvvsa,3kakfy4pgyf38twqmssz5kpjhm43ir,mfMGbpWM,2020-0188,2020-06-04,10:44:43,11:03:14,NA,incomplete,144,race,3,1,left,A_M_06.jpg,A_F_05.jpg,C_M_03.jpg,left,965.9800000081304,true,high,false
mfMGbpWM,3ha5odm5ld5arw3bkcnh3xryudvvsa,3kakfy4pgyf38twqmssz5kpjhm43ir,mfMGbpWM,2020-0188,2020-06-04,10:44:43,11:03:14,NA,incomplete,145,race,3,1,right,C_M_01.jpg,A_M_02.jpg,C_F_07.jpg,left,1134.0100000088569,false,high,false
mfMGbpWM,3ha5odm5ld5arw3bkcnh3xryudvvsa,3kakfy4pgyf38twqmssz5kpjhm43ir,mfMGbpWM,2020-0188,2020-06-04,10:44:43,11:03:14,NA,incomplete,146,race,3,1,left,A_M_14.jpg,A_F_01.jpg,C_M_05.jpg,right,837.7500000060536,false,high,false
mfMGbpWM,3ha5odm5ld5arw3bkcnh3xryudvvsa,3kakfy4pgyf38twqmssz5kpjhm43ir,mfMGbpWM,2020-0188,2020-06-04,10:44:43,11:03:14,NA,incomplete,147,race,3,1,right,C_M_16.jpg,A_M_01.jpg,C_F_06.jpg,left,906.9449999951757,false,high,false
mfMGbpWM,3ha5odm5ld5arw3bkcnh3xryudvvsa,3kakfy4pgyf38twqmssz5kpjhm43ir,mfMGbpWM,2020-0188,2020-06-04,10:44:43,11:03:14,NA,incomplete,148,race,3,1,left,C_M_16.jpg,C_F_11.jpg,A_M_06.jpg,left,1211.4650000003166,true,high,false
mfMGbpWM,3ha5odm5ld5arw3bkcnh3xryudvvsa,3kakfy4pgyf38twqmssz5kpjhm43ir,mfMGbpWM,2020-0188,2020-06-04,10:44:43,11:03:14,NA,incomplete,149,race,3,1,left,C_M_10.jpg,C_F_03.jpg,A_M_11.jpg,left,1016.1599999992177,true,high,false
mfMGbpWM,3ha5odm5ld5arw3bkcnh3xryudvvsa,3kakfy4pgyf38twqmssz5kpjhm43ir,mfMGbpWM,2020-0188,2020-06-04,10:44:43,11:03:14,NA,incomplete,150,race,3,1,left,A_F_04.jpg,A_M_07.jpg,C_F_09.jpg,right,1120.824999990873,false,high,false
mfMGbpWM,3ha5odm5ld5arw3bkcnh3xryudvvsa,3kakfy4pgyf38twqmssz5kpjhm43ir,mfMGbpWM,2020-0188,2020-06-04,10:44:43,11:03:14,NA,incomplete,151,race,3,1,right,A_F_01.jpg,C_F_03.jpg,A_M_10.jpg,right,917.8899999824353,true,high,false
mfMGbpWM,3ha5odm5ld5arw3bkcnh3xryudvvsa,3kakfy4pgyf38twqmssz5kpjhm43ir,mfMGbpWM,2020-0188,2020-06-04,10:44:43,11:03:14,NA,incomplete,152,race,3,0,left,C_F_10.jpg,C_M_05.jpg,A_F_08.jpg,right,1132.8750000102445,false,high,false
mfMGbpWM,3ha5odm5ld5arw3bkcnh3xryudvvsa,3kakfy4pgyf38twqmssz5kpjhm43ir,mfMGbpWM,2020-0188,2020-06-04,10:44:43,11:03:14,NA,incomplete,153,race,3,1,right,A_M_12.jpg,C_M_13.jpg,A_F_10.jpg,right,978.5149999952409,true,high,false
mfMGbpWM,3ha5odm5ld5arw3bkcnh3xryudvvsa,3kakfy4pgyf38twqmssz5kpjhm43ir,mfMGbpWM,2020-0188,2020-06-04,10:44:43,11:03:14,NA,incomplete,154,race,3,1,right,C_M_03.jpg,A_M_12.jpg,C_F_13.jpg,left,939.5149999763817,false,high,false
mfMGbpWM,3ha5odm5ld5arw3bkcnh3xryudvvsa,3kakfy4pgyf38twqmssz5kpjhm43ir,mfMGbpWM,2020-0188,2020-06-04,10:44:43,11:03:14,NA,incomplete,155,race,3,1,right,C_M_06.jpg,A_M_02.jpg,C_F_04.jpg,left,998.440000024857,false,high,false
mfMGbpWM,3ha5odm5ld5arw3bkcnh3xryudvvsa,3kakfy4pgyf38twqmssz5kpjhm43ir,mfMGbpWM,2020-0188,2020-06-04,10:44:43,11:03:14,NA,incomplete,156,race,3,1,right,A_F_16.jpg,C_F_11.jpg,A_M_13.jpg,left,1208.2850000006147,false,high,false
mfMGbpWM,3ha5odm5ld5arw3bkcnh3xryudvvsa,3kakfy4pgyf38twqmssz5kpjhm43ir,mfMGbpWM,2020-0188,2020-06-04,10:44:43,11:03:14,NA,incomplete,157,race,3,1,left,C_F_02.jpg,C_M_11.jpg,A_F_13.jpg,right,796.2700000207406,false,high,false
mfMGbpWM,3ha5odm5ld5arw3bkcnh3xryudvvsa,3kakfy4pgyf38twqmssz5kpjhm43ir,mfMGbpWM,2020-0188,2020-06-04,10:44:43,11:03:14,NA,incomplete,158,race,3,1,right,A_F_07.jpg,C_F_06.jpg,A_M_05.jpg,right,907.4799999943934,true,high,false
mfMGbpWM,3ha5odm5ld5arw3bkcnh3xryudvvsa,3kakfy4pgyf38twqmssz5kpjhm43ir,mfMGbpWM,2020-0188,2020-06-04,10:44:43,11:03:14,NA,incomplete,159,race,3,1,right,A_F_09.jpg,C_F_01.jpg,A_M_05.jpg,right,1557.8500000119675,true,high,false
mfMGbpWM,3ha5odm5ld5arw3bkcnh3xryudvvsa,3kakfy4pgyf38twqmssz5kpjhm43ir,mfMGbpWM,2020-0188,2020-06-04,10:44:43,11:03:14,NA,incomplete,160,gender,2,0,left,C_M_07.jpg,A_M_09.jpg,C_F_10.jpg,left,1300.2249999844935,true,high,false
mfMGbpWM,3ha5odm5ld5arw3bkcnh3xryudvvsa,3kakfy4pgyf38twqmssz5kpjhm43ir,mfMGbpWM,2020-0188,2020-06-04,10:44:43,11:03:14,NA,incomplete,161,gender,2,1,left,A_M_04.jpg,C_M_07.jpg,A_F_01.jpg,left,1015.1799999875948,true,high,false
mfMGbpWM,3ha5odm5ld5arw3bkcnh3xryudvvsa,3kakfy4pgyf38twqmssz5kpjhm43ir,mfMGbpWM,2020-0188,2020-06-04,10:44:43,11:03:14,NA,incomplete,162,gender,2,1,right,C_M_07.jpg,C_F_15.jpg,A_M_16.jpg,right,900.2550000150222,true,high,false
mfMGbpWM,3ha5odm5ld5arw3bkcnh3xryudvvsa,3kakfy4pgyf38twqmssz5kpjhm43ir,mfMGbpWM,2020-0188,2020-06-04,10:44:43,11:03:14,NA,incomplete,163,gender,2,1,left,C_F_05.jpg,A_F_02.jpg,C_M_06.jpg,right,1437.1399999945424,false,high,false
mfMGbpWM,3ha5odm5ld5arw3bkcnh3xryudvvsa,3kakfy4pgyf38twqmssz5kpjhm43ir,mfMGbpWM,2020-0188,2020-06-04,10:44:43,11:03:14,NA,incomplete,164,gender,2,1,right,A_F_05.jpg,A_M_11.jpg,C_F_15.jpg,left,1000.7949999999255,false,high,false
mfMGbpWM,3ha5odm5ld5arw3bkcnh3xryudvvsa,3kakfy4pgyf38twqmssz5kpjhm43ir,mfMGbpWM,2020-0188,2020-06-04,10:44:43,11:03:14,NA,incomplete,165,gender,2,1,left,A_M_13.jpg,C_M_03.jpg,A_F_16.jpg,left,840.3049999906216,true,high,false
mfMGbpWM,3ha5odm5ld5arw3bkcnh3xryudvvsa,3kakfy4pgyf38twqmssz5kpjhm43ir,mfMGbpWM,2020-0188,2020-06-04,10:44:43,11:03:14,NA,incomplete,166,gender,2,1,left,C_M_04.jpg,A_M_01.jpg,C_F_11.jpg,right,740.525000001071,false,high,false
mfMGbpWM,3ha5odm5ld5arw3bkcnh3xryudvvsa,3kakfy4pgyf38twqmssz5kpjhm43ir,mfMGbpWM,2020-0188,2020-06-04,10:44:43,11:03:14,NA,incomplete,167,gender,2,1,right,C_M_08.jpg,C_F_15.jpg,A_M_13.jpg,right,770.7999999984168,true,high,false
mfMGbpWM,3ha5odm5ld5arw3bkcnh3xryudvvsa,3kakfy4pgyf38twqmssz5kpjhm43ir,mfMGbpWM,2020-0188,2020-06-04,10:44:43,11:03:14,NA,incomplete,168,gender,2,1,left,A_M_12.jpg,C_M_01.jpg,A_F_09.jpg,right,723.150000005262,false,high,false
mfMGbpWM,3ha5odm5ld5arw3bkcnh3xryudvvsa,3kakfy4pgyf38twqmssz5kpjhm43ir,mfMGbpWM,2020-0188,2020-06-04,10:44:43,11:03:14,NA,incomplete,169,gender,2,1,left,C_M_04.jpg,A_M_05.jpg,C_F_13.jpg,right,511.3349999883212,false,high,false
mfMGbpWM,3ha5odm5ld5arw3bkcnh3xryudvvsa,3kakfy4pgyf38twqmssz5kpjhm43ir,mfMGbpWM,2020-0188,2020-06-04,10:44:43,11:03:14,NA,incomplete,170,gender,2,1,left,A_F_13.jpg,C_F_09.jpg,A_M_14.jpg,left,1196.7100000183564,true,high,false
mfMGbpWM,3ha5odm5ld5arw3bkcnh3xryudvvsa,3kakfy4pgyf38twqmssz5kpjhm43ir,mfMGbpWM,2020-0188,2020-06-04,10:44:43,11:03:14,NA,incomplete,171,gender,2,1,right,C_M_06.jpg,C_F_15.jpg,A_M_02.jpg,right,900.1649999991059,true,high,false
mfMGbpWM,3ha5odm5ld5arw3bkcnh3xryudvvsa,3kakfy4pgyf38twqmssz5kpjhm43ir,mfMGbpWM,2020-0188,2020-06-04,10:44:43,11:03:14,NA,incomplete,172,gender,2,1,right,A_M_14.jpg,A_F_10.jpg,C_M_02.jpg,right,806.574999995064,true,high,false
mfMGbpWM,3ha5odm5ld5arw3bkcnh3xryudvvsa,3kakfy4pgyf38twqmssz5kpjhm43ir,mfMGbpWM,2020-0188,2020-06-04,10:44:43,11:03:14,NA,incomplete,173,gender,2,1,left,C_M_08.jpg,A_M_16.jpg,C_F_09.jpg,left,1107.320000010077,true,high,false
mfMGbpWM,3ha5odm5ld5arw3bkcnh3xryudvvsa,3kakfy4pgyf38twqmssz5kpjhm43ir,mfMGbpWM,2020-0188,2020-06-04,10:44:43,11:03:14,NA,incomplete,174,gender,2,1,left,C_F_11.jpg,A_F_10.jpg,C_M_03.jpg,left,1057.5599999865517,true,high,false
mfMGbpWM,3ha5odm5ld5arw3bkcnh3xryudvvsa,3kakfy4pgyf38twqmssz5kpjhm43ir,mfMGbpWM,2020-0188,2020-06-04,10:44:43,11:03:14,NA,incomplete,175,gender,2,0,left,A_F_14.jpg,C_F_11.jpg,A_M_02.jpg,left,772.5499999942258,true,high,false
mfMGbpWM,3ha5odm5ld5arw3bkcnh3xryudvvsa,3kakfy4pgyf38twqmssz5kpjhm43ir,mfMGbpWM,2020-0188,2020-06-04,10:44:43,11:03:14,NA,incomplete,176,gender,2,1,left,A_F_10.jpg,C_F_09.jpg,A_M_15.jpg,right,1132.3450000199955,false,high,false
mfMGbpWM,3ha5odm5ld5arw3bkcnh3xryudvvsa,3kakfy4pgyf38twqmssz5kpjhm43ir,mfMGbpWM,2020-0188,2020-06-04,10:44:43,11:03:14,NA,incomplete,177,gender,2,0,right,A_M_03.jpg,A_F_12.jpg,C_M_06.jpg,right,893.774999974994,true,high,false
mfMGbpWM,3ha5odm5ld5arw3bkcnh3xryudvvsa,3kakfy4pgyf38twqmssz5kpjhm43ir,mfMGbpWM,2020-0188,2020-06-04,10:44:43,11:03:14,NA,incomplete,178,gender,2,1,left,C_M_11.jpg,A_M_07.jpg,C_F_02.jpg,left,990.9049999841955,true,high,false
mfMGbpWM,3ha5odm5ld5arw3bkcnh3xryudvvsa,3kakfy4pgyf38twqmssz5kpjhm43ir,mfMGbpWM,2020-0188,2020-06-04,10:44:43,11:03:14,NA,incomplete,179,gender,2,1,right,A_F_13.jpg,A_M_06.jpg,C_F_04.jpg,right,969.6300000068732,true,high,false
mfMGbpWM,3ha5odm5ld5arw3bkcnh3xryudvvsa,3kakfy4pgyf38twqmssz5kpjhm43ir,mfMGbpWM,2020-0188,2020-06-04,10:44:43,11:03:14,NA,incomplete,180,race,3,1,left,C_F_02.jpg,C_M_11.jpg,A_F_05.jpg,right,1202.8050000080839,false,high,false
mfMGbpWM,3ha5odm5ld5arw3bkcnh3xryudvvsa,3kakfy4pgyf38twqmssz5kpjhm43ir,mfMGbpWM,2020-0188,2020-06-04,10:44:43,11:03:14,NA,incomplete,181,race,3,1,left,A_F_13.jpg,A_M_08.jpg,C_F_11.jpg,right,1118.7100000097416,false,high,false
mfMGbpWM,3ha5odm5ld5arw3bkcnh3xryudvvsa,3kakfy4pgyf38twqmssz5kpjhm43ir,mfMGbpWM,2020-0188,2020-06-04,10:44:43,11:03:14,NA,incomplete,182,race,3,1,left,A_F_10.jpg,A_M_03.jpg,C_F_15.jpg,left,851.0500000265893,true,high,false
mfMGbpWM,3ha5odm5ld5arw3bkcnh3xryudvvsa,3kakfy4pgyf38twqmssz5kpjhm43ir,mfMGbpWM,2020-0188,2020-06-04,10:44:43,11:03:14,NA,incomplete,183,race,3,1,right,A_M_05.jpg,C_M_04.jpg,A_F_03.jpg,right,1436.5749999997206,true,high,false
mfMGbpWM,3ha5odm5ld5arw3bkcnh3xryudvvsa,3kakfy4pgyf38twqmssz5kpjhm43ir,mfMGbpWM,2020-0188,2020-06-04,10:44:43,11:03:14,NA,incomplete,184,race,3,1,left,C_M_08.jpg,C_F_06.jpg,A_M_16.jpg,right,902.6299999968614,false,high,false
mfMGbpWM,3ha5odm5ld5arw3bkcnh3xryudvvsa,3kakfy4pgyf38twqmssz5kpjhm43ir,mfMGbpWM,2020-0188,2020-06-04,10:44:43,11:03:14,NA,incomplete,185,race,3,0,left,A_M_09.jpg,A_F_03.jpg,C_M_04.jpg,left,963.3699999831151,true,high,false
mfMGbpWM,3ha5odm5ld5arw3bkcnh3xryudvvsa,3kakfy4pgyf38twqmssz5kpjhm43ir,mfMGbpWM,2020-0188,2020-06-04,10:44:43,11:03:14,NA,incomplete,186,race,3,1,left,C_F_06.jpg,C_M_16.jpg,A_F_08.jpg,right,1049.010000017006,false,high,false
mfMGbpWM,3ha5odm5ld5arw3bkcnh3xryudvvsa,3kakfy4pgyf38twqmssz5kpjhm43ir,mfMGbpWM,2020-0188,2020-06-04,10:44:43,11:03:14,NA,incomplete,187,race,3,1,left,C_M_05.jpg,C_F_15.jpg,A_M_13.jpg,right,803.6950000096112,false,high,false
mfMGbpWM,3ha5odm5ld5arw3bkcnh3xryudvvsa,3kakfy4pgyf38twqmssz5kpjhm43ir,mfMGbpWM,2020-0188,2020-06-04,10:44:43,11:03:14,NA,incomplete,188,race,3,1,right,C_F_12.jpg,A_F_04.jpg,C_M_09.jpg,left,685.5050000012852,false,high,false
mfMGbpWM,3ha5odm5ld5arw3bkcnh3xryudvvsa,3kakfy4pgyf38twqmssz5kpjhm43ir,mfMGbpWM,2020-0188,2020-06-04,10:44:43,11:03:14,NA,incomplete,189,race,3,1,right,A_F_05.jpg,C_F_04.jpg,A_M_07.jpg,right,760.8750000072177,true,high,false
mfMGbpWM,3ha5odm5ld5arw3bkcnh3xryudvvsa,3kakfy4pgyf38twqmssz5kpjhm43ir,mfMGbpWM,2020-0188,2020-06-04,10:44:43,11:03:14,NA,incomplete,190,race,3,1,right,A_M_04.jpg,C_M_11.jpg,A_F_16.jpg,left,828.2700000272598,false,high,false
mfMGbpWM,3ha5odm5ld5arw3bkcnh3xryudvvsa,3kakfy4pgyf38twqmssz5kpjhm43ir,mfMGbpWM,2020-0188,2020-06-04,10:44:43,11:03:14,NA,incomplete,191,race,3,1,right,C_M_06.jpg,A_M_11.jpg,C_F_10.jpg,right,298.66499998024665,true,high,false
mfMGbpWM,3ha5odm5ld5arw3bkcnh3xryudvvsa,3kakfy4pgyf38twqmssz5kpjhm43ir,mfMGbpWM,2020-0188,2020-06-04,10:44:43,11:03:14,NA,incomplete,192,race,3,0,right,A_M_07.jpg,C_M_16.jpg,A_F_12.jpg,left,658.3749999990687,false,high,false
mfMGbpWM,3ha5odm5ld5arw3bkcnh3xryudvvsa,3kakfy4pgyf38twqmssz5kpjhm43ir,mfMGbpWM,2020-0188,2020-06-04,10:44:43,11:03:14,NA,incomplete,193,race,3,1,right,C_M_12.jpg,A_M_06.jpg,C_F_04.jpg,none,0,false,high,false
mfMGbpWM,3ha5odm5ld5arw3bkcnh3xryudvvsa,3kakfy4pgyf38twqmssz5kpjhm43ir,mfMGbpWM,2020-0188,2020-06-04,10:44:43,11:03:14,NA,incomplete,194,race,3,1,right,A_F_09.jpg,C_F_06.jpg,A_M_05.jpg,right,722.8449999820441,true,high,false
mfMGbpWM,3ha5odm5ld5arw3bkcnh3xryudvvsa,3kakfy4pgyf38twqmssz5kpjhm43ir,mfMGbpWM,2020-0188,2020-06-04,10:44:43,11:03:14,NA,incomplete,195,race,3,0,left,C_M_03.jpg,C_F_15.jpg,A_M_07.jpg,right,769.064999971306,false,high,false
mfMGbpWM,3ha5odm5ld5arw3bkcnh3xryudvvsa,3kakfy4pgyf38twqmssz5kpjhm43ir,mfMGbpWM,2020-0188,2020-06-04,10:44:43,11:03:14,NA,incomplete,196,race,3,1,left,C_M_13.jpg,C_F_11.jpg,A_M_12.jpg,right,865.0550000020303,false,high,false
mfMGbpWM,3ha5odm5ld5arw3bkcnh3xryudvvsa,3kakfy4pgyf38twqmssz5kpjhm43ir,mfMGbpWM,2020-0188,2020-06-04,10:44:43,11:03:14,NA,incomplete,197,race,3,0,left,A_M_10.jpg,A_F_13.jpg,C_M_15.jpg,left,586.0499999835156,true,high,false
mfMGbpWM,3ha5odm5ld5arw3bkcnh3xryudvvsa,3kakfy4pgyf38twqmssz5kpjhm43ir,mfMGbpWM,2020-0188,2020-06-04,10:44:43,11:03:14,NA,incomplete,198,race,3,1,right,C_M_16.jpg,A_M_10.jpg,C_F_11.jpg,left,896.4900000137277,false,high,false
mfMGbpWM,3ha5odm5ld5arw3bkcnh3xryudvvsa,3kakfy4pgyf38twqmssz5kpjhm43ir,mfMGbpWM,2020-0188,2020-06-04,10:44:43,11:03:14,NA,incomplete,199,race,3,1,left,C_M_03.jpg,C_F_08.jpg,A_M_16.jpg,right,1342.624999990221,false,high,false
mfMGbpWM,3ha5odm5ld5arw3bkcnh3xryudvvsa,3kakfy4pgyf38twqmssz5kpjhm43ir,mfMGbpWM,2020-0188,2020-06-04,10:44:43,11:03:14,NA,incomplete,200,gender,2,0,left,A_M_14.jpg,C_M_13.jpg,A_F_15.jpg,left,843.2999999786261,true,high,false
mfMGbpWM,3ha5odm5ld5arw3bkcnh3xryudvvsa,3kakfy4pgyf38twqmssz5kpjhm43ir,mfMGbpWM,2020-0188,2020-06-04,10:44:43,11:03:14,NA,incomplete,201,gender,2,1,left,C_M_12.jpg,A_M_08.jpg,C_F_02.jpg,right,562.614999973448,false,high,false
mfMGbpWM,3ha5odm5ld5arw3bkcnh3xryudvvsa,3kakfy4pgyf38twqmssz5kpjhm43ir,mfMGbpWM,2020-0188,2020-06-04,10:44:43,11:03:14,NA,incomplete,202,gender,2,1,left,C_F_09.jpg,A_F_14.jpg,C_M_11.jpg,left,720.8049999899231,true,high,false
mfMGbpWM,3ha5odm5ld5arw3bkcnh3xryudvvsa,3kakfy4pgyf38twqmssz5kpjhm43ir,mfMGbpWM,2020-0188,2020-06-04,10:44:43,11:03:14,NA,incomplete,203,gender,2,1,left,C_M_11.jpg,A_M_02.jpg,C_F_12.jpg,left,771.5299999981653,true,high,false
mfMGbpWM,3ha5odm5ld5arw3bkcnh3xryudvvsa,3kakfy4pgyf38twqmssz5kpjhm43ir,mfMGbpWM,2020-0188,2020-06-04,10:44:43,11:03:14,NA,incomplete,204,gender,2,1,right,C_F_05.jpg,C_M_06.jpg,A_F_09.jpg,right,641.105000016978,true,high,false
mfMGbpWM,3ha5odm5ld5arw3bkcnh3xryudvvsa,3kakfy4pgyf38twqmssz5kpjhm43ir,mfMGbpWM,2020-0188,2020-06-04,10:44:43,11:03:14,NA,incomplete,205,gender,2,1,right,C_M_09.jpg,C_F_12.jpg,A_M_13.jpg,right,912.6199999882374,true,high,false
mfMGbpWM,3ha5odm5ld5arw3bkcnh3xryudvvsa,3kakfy4pgyf38twqmssz5kpjhm43ir,mfMGbpWM,2020-0188,2020-06-04,10:44:43,11:03:14,NA,incomplete,206,gender,2,1,left,C_M_10.jpg,A_M_15.jpg,C_F_01.jpg,left,767.1149999951012,true,high,false
mfMGbpWM,3ha5odm5ld5arw3bkcnh3xryudvvsa,3kakfy4pgyf38twqmssz5kpjhm43ir,mfMGbpWM,2020-0188,2020-06-04,10:44:43,11:03:14,NA,incomplete,207,gender,2,1,right,A_F_09.jpg,A_M_01.jpg,C_F_11.jpg,right,738.2900000084192,true,high,false
mfMGbpWM,3ha5odm5ld5arw3bkcnh3xryudvvsa,3kakfy4pgyf38twqmssz5kpjhm43ir,mfMGbpWM,2020-0188,2020-06-04,10:44:43,11:03:14,NA,incomplete,208,gender,2,1,right,A_F_09.jpg,A_M_12.jpg,C_F_13.jpg,left,816.2149999989197,false,high,false
mfMGbpWM,3ha5odm5ld5arw3bkcnh3xryudvvsa,3kakfy4pgyf38twqmssz5kpjhm43ir,mfMGbpWM,2020-0188,2020-06-04,10:44:43,11:03:14,NA,incomplete,209,gender,2,0,left,A_M_06.jpg,C_M_12.jpg,A_F_03.jpg,left,893.7300000106916,true,high,false
mfMGbpWM,3ha5odm5ld5arw3bkcnh3xryudvvsa,3kakfy4pgyf38twqmssz5kpjhm43ir,mfMGbpWM,2020-0188,2020-06-04,10:44:43,11:03:14,NA,incomplete,210,gender,2,1,left,C_F_07.jpg,A_F_05.jpg,C_M_12.jpg,left,1205.0549999985378,true,high,false
mfMGbpWM,3ha5odm5ld5arw3bkcnh3xryudvvsa,3kakfy4pgyf38twqmssz5kpjhm43ir,mfMGbpWM,2020-0188,2020-06-04,10:44:43,11:03:14,NA,incomplete,211,gender,2,1,left,A_M_04.jpg,C_M_07.jpg,A_F_13.jpg,left,1102.2850000008475,true,high,false
mfMGbpWM,3ha5odm5ld5arw3bkcnh3xryudvvsa,3kakfy4pgyf38twqmssz5kpjhm43ir,mfMGbpWM,2020-0188,2020-06-04,10:44:43,11:03:14,NA,incomplete,212,gender,2,0,right,A_M_16.jpg,A_F_08.jpg,C_M_03.jpg,right,1035.7249999942724,true,high,false
mfMGbpWM,3ha5odm5ld5arw3bkcnh3xryudvvsa,3kakfy4pgyf38twqmssz5kpjhm43ir,mfMGbpWM,2020-0188,2020-06-04,10:44:43,11:03:14,NA,incomplete,213,gender,2,1,left,C_F_15.jpg,A_F_09.jpg,C_M_10.jpg,left,1084.949999989476,true,high,false
mfMGbpWM,3ha5odm5ld5arw3bkcnh3xryudvvsa,3kakfy4pgyf38twqmssz5kpjhm43ir,mfMGbpWM,2020-0188,2020-06-04,10:44:43,11:03:14,NA,incomplete,214,gender,2,0,left,A_F_07.jpg,C_F_13.jpg,A_M_05.jpg,left,1235.1849999977276,true,high,false
mfMGbpWM,3ha5odm5ld5arw3bkcnh3xryudvvsa,3kakfy4pgyf38twqmssz5kpjhm43ir,mfMGbpWM,2020-0188,2020-06-04,10:44:43,11:03:14,NA,incomplete,215,gender,2,1,left,C_F_14.jpg,A_F_02.jpg,C_M_06.jpg,left,761.6249999846332,true,high,false
mfMGbpWM,3ha5odm5ld5arw3bkcnh3xryudvvsa,3kakfy4pgyf38twqmssz5kpjhm43ir,mfMGbpWM,2020-0188,2020-06-04,10:44:43,11:03:14,NA,incomplete,216,gender,2,1,right,C_F_14.jpg,C_M_03.jpg,A_F_04.jpg,right,995.824999990873,true,high,false
mfMGbpWM,3ha5odm5ld5arw3bkcnh3xryudvvsa,3kakfy4pgyf38twqmssz5kpjhm43ir,mfMGbpWM,2020-0188,2020-06-04,10:44:43,11:03:14,NA,incomplete,217,gender,2,1,right,A_F_05.jpg,A_M_16.jpg,C_F_15.jpg,right,765.1600000099279,true,high,false
mfMGbpWM,3ha5odm5ld5arw3bkcnh3xryudvvsa,3kakfy4pgyf38twqmssz5kpjhm43ir,mfMGbpWM,2020-0188,2020-06-04,10:44:43,11:03:14,NA,incomplete,218,gender,2,1,right,C_M_03.jpg,C_F_04.jpg,A_M_14.jpg,right,862.1750000165775,true,high,false
mfMGbpWM,3ha5odm5ld5arw3bkcnh3xryudvvsa,3kakfy4pgyf38twqmssz5kpjhm43ir,mfMGbpWM,2020-0188,2020-06-04,10:44:43,11:03:14,NA,incomplete,219,gender,2,1,right,A_F_05.jpg,A_M_03.jpg,C_F_02.jpg,left,953.7349999882281,false,high,false
mfMGbpWM,3ha5odm5ld5arw3bkcnh3xryudvvsa,3kakfy4pgyf38twqmssz5kpjhm43ir,mfMGbpWM,2020-0188,2020-06-04,10:44:43,11:03:14,NA,incomplete,220,race,3,1,right,A_M_14.jpg,C_M_03.jpg,A_F_09.jpg,right,817.06000000122,true,high,false
mfMGbpWM,3ha5odm5ld5arw3bkcnh3xryudvvsa,3kakfy4pgyf38twqmssz5kpjhm43ir,mfMGbpWM,2020-0188,2020-06-04,10:44:43,11:03:14,NA,incomplete,221,race,3,0,left,A_F_14.jpg,A_M_16.jpg,C_F_11.jpg,right,907.8100000042468,false,high,false
mfMGbpWM,3ha5odm5ld5arw3bkcnh3xryudvvsa,3kakfy4pgyf38twqmssz5kpjhm43ir,mfMGbpWM,2020-0188,2020-06-04,10:44:43,11:03:14,NA,incomplete,222,race,3,1,right,A_M_16.jpg,C_M_02.jpg,A_F_08.jpg,right,1214.030000002822,true,high,false
mfMGbpWM,3ha5odm5ld5arw3bkcnh3xryudvvsa,3kakfy4pgyf38twqmssz5kpjhm43ir,mfMGbpWM,2020-0188,2020-06-04,10:44:43,11:03:14,NA,incomplete,223,race,3,1,right,A_F_14.jpg,C_F_16.jpg,A_M_12.jpg,left,1062.5600000203121,false,high,false
mfMGbpWM,3ha5odm5ld5arw3bkcnh3xryudvvsa,3kakfy4pgyf38twqmssz5kpjhm43ir,mfMGbpWM,2020-0188,2020-06-04,10:44:43,11:03:14,NA,incomplete,224,race,3,1,right,A_F_12.jpg,C_F_09.jpg,A_M_03.jpg,left,778.8200000068173,false,high,false
mfMGbpWM,3ha5odm5ld5arw3bkcnh3xryudvvsa,3kakfy4pgyf38twqmssz5kpjhm43ir,mfMGbpWM,2020-0188,2020-06-04,10:44:43,11:03:14,NA,incomplete,225,race,3,1,left,C_F_06.jpg,C_M_09.jpg,A_F_11.jpg,left,1110.3899999870919,true,high,false
mfMGbpWM,3ha5odm5ld5arw3bkcnh3xryudvvsa,3kakfy4pgyf38twqmssz5kpjhm43ir,mfMGbpWM,2020-0188,2020-06-04,10:44:43,11:03:14,NA,incomplete,226,race,3,0,left,A_M_16.jpg,A_F_03.jpg,C_M_04.jpg,left,959.6650000021327,true,high,false
mfMGbpWM,3ha5odm5ld5arw3bkcnh3xryudvvsa,3kakfy4pgyf38twqmssz5kpjhm43ir,mfMGbpWM,2020-0188,2020-06-04,10:44:43,11:03:14,NA,incomplete,227,race,3,1,left,A_F_02.jpg,A_M_11.jpg,C_F_07.jpg,right,748.7600000167731,false,high,false
mfMGbpWM,3ha5odm5ld5arw3bkcnh3xryudvvsa,3kakfy4pgyf38twqmssz5kpjhm43ir,mfMGbpWM,2020-0188,2020-06-04,10:44:43,11:03:14,NA,incomplete,228,race,3,1,right,C_F_10.jpg,A_F_08.jpg,C_M_05.jpg,right,725.9400000039022,true,high,false
mfMGbpWM,3ha5odm5ld5arw3bkcnh3xryudvvsa,3kakfy4pgyf38twqmssz5kpjhm43ir,mfMGbpWM,2020-0188,2020-06-04,10:44:43,11:03:14,NA,incomplete,229,race,3,0,right,A_F_02.jpg,C_F_05.jpg,A_M_03.jpg,left,821.0749999852851,false,high,false
mfMGbpWM,3ha5odm5ld5arw3bkcnh3xryudvvsa,3kakfy4pgyf38twqmssz5kpjhm43ir,mfMGbpWM,2020-0188,2020-06-04,10:44:43,11:03:14,NA,incomplete,230,race,3,1,right,C_M_03.jpg,A_M_01.jpg,C_F_12.jpg,left,727.0600000047125,false,high,false
mfMGbpWM,3ha5odm5ld5arw3bkcnh3xryudvvsa,3kakfy4pgyf38twqmssz5kpjhm43ir,mfMGbpWM,2020-0188,2020-06-04,10:44:43,11:03:14,NA,incomplete,231,race,3,1,right,C_F_10.jpg,A_F_08.jpg,C_M_11.jpg,left,828.9199999999255,false,high,false
mfMGbpWM,3ha5odm5ld5arw3bkcnh3xryudvvsa,3kakfy4pgyf38twqmssz5kpjhm43ir,mfMGbpWM,2020-0188,2020-06-04,10:44:43,11:03:14,NA,incomplete,232,race,3,1,right,C_F_12.jpg,A_F_11.jpg,C_M_06.jpg,left,811.0049999959301,false,high,false
mfMGbpWM,3ha5odm5ld5arw3bkcnh3xryudvvsa,3kakfy4pgyf38twqmssz5kpjhm43ir,mfMGbpWM,2020-0188,2020-06-04,10:44:43,11:03:14,NA,incomplete,233,race,3,1,left,C_F_03.jpg,C_M_07.jpg,A_F_08.jpg,right,1020.3050000127405,false,high,false
mfMGbpWM,3ha5odm5ld5arw3bkcnh3xryudvvsa,3kakfy4pgyf38twqmssz5kpjhm43ir,mfMGbpWM,2020-0188,2020-06-04,10:44:43,11:03:14,NA,incomplete,234,race,3,0,left,A_F_05.jpg,A_M_02.jpg,C_F_07.jpg,left,993.8300000212621,true,high,false
mfMGbpWM,3ha5odm5ld5arw3bkcnh3xryudvvsa,3kakfy4pgyf38twqmssz5kpjhm43ir,mfMGbpWM,2020-0188,2020-06-04,10:44:43,11:03:14,NA,incomplete,235,race,3,1,right,C_M_10.jpg,A_M_04.jpg,C_F_12.jpg,right,842.08000000217,true,high,false
mfMGbpWM,3ha5odm5ld5arw3bkcnh3xryudvvsa,3kakfy4pgyf38twqmssz5kpjhm43ir,mfMGbpWM,2020-0188,2020-06-04,10:44:43,11:03:14,NA,incomplete,236,race,3,1,right,A_M_01.jpg,C_M_15.jpg,A_F_10.jpg,right,853.3100000058766,true,high,false
mfMGbpWM,3ha5odm5ld5arw3bkcnh3xryudvvsa,3kakfy4pgyf38twqmssz5kpjhm43ir,mfMGbpWM,2020-0188,2020-06-04,10:44:43,11:03:14,NA,incomplete,237,race,3,1,right,A_F_08.jpg,C_F_10.jpg,A_M_06.jpg,right,832.1599999908358,true,high,false
mfMGbpWM,3ha5odm5ld5arw3bkcnh3xryudvvsa,3kakfy4pgyf38twqmssz5kpjhm43ir,mfMGbpWM,2020-0188,2020-06-04,10:44:43,11:03:14,NA,incomplete,238,race,3,0,right,C_M_02.jpg,A_M_12.jpg,C_F_07.jpg,right,1291.5199999988545,true,high,false
mfMGbpWM,3ha5odm5ld5arw3bkcnh3xryudvvsa,3kakfy4pgyf38twqmssz5kpjhm43ir,mfMGbpWM,2020-0188,2020-06-04,10:44:43,11:03:14,NA,incomplete,239,race,3,1,right,A_M_11.jpg,C_M_15.jpg,A_F_10.jpg,right,824.2599999939557,true,high,false
mfMGbpWM,3ha5odm5ld5arw3bkcnh3xryudvvsa,3kakfy4pgyf38twqmssz5kpjhm43ir,mfMGbpWM,2020-0188,2020-06-04,10:44:43,11:03:14,NA,NA,instruction example,shape,NA,NA,NA,Purple_Plus_Dots_2.jpg,Red_Plus_Stripes_1.jpg,Blue_Triangle_Chess_2.jpg,NA,NA,NA,NA,undefined
mfMGbpWM,3ha5odm5ld5arw3bkcnh3xryudvvsa,3kakfy4pgyf38twqmssz5kpjhm43ir,mfMGbpWM,2020-0188,2020-06-04,10:44:43,11:03:14,NA,NA,instruction example,shape,NA,NA,NA,Purple_Circle_Stripes_3.jpg,Red_Plus_Chess_3.jpg,Green_Circle_Grid_4.jpg,NA,NA,NA,NA,undefined
mfMGbpWM,3ha5odm5ld5arw3bkcnh3xryudvvsa,3kakfy4pgyf38twqmssz5kpjhm43ir,mfMGbpWM,2020-0188,2020-06-04,10:44:43,11:03:14,NA,NA,instruction example,shape,NA,NA,NA,A_M_01.jpg,C_M_16.jpg,A_F_04.jpg,NA,NA,NA,NA,undefined
mfMGbpWM,3ha5odm5ld5arw3bkcnh3xryudvvsa,3kakfy4pgyf38twqmssz5kpjhm43ir,mfMGbpWM,2020-0188,2020-06-04,10:44:43,11:03:14,NA,NA,instruction example,shape,NA,NA,NA,C_F_03.jpg,C_M_08.jpg,A_F_12.jpg,NA,NA,NA,NA,undefined
