workerId,hitId,assignmentId,subject,studyid,exp_date,exp_start,exp_end,time_start,time_end,trial,type,sequence,reward_validity,answer,image_top,image_left,image_right,response,response_time,response_acc,volatility,practice
gDGv2ouu,3xabxm4ak4i034slkfn2gjsp1ra8qu,3kopy89hmcfz34gw4adzhl4ju1t3j3,gDGv2ouu,2020-0188,2020-06-04,11:32:21,12:02:06,NA,incomplete,0,shape,0,1,right,Green_Plus_Chess_3.jpg,Purple_Star_Stripes_3.jpg,Red_Plus_Grid_2.jpg,none,0,false,NA,true
gDGv2ouu,3xabxm4ak4i034slkfn2gjsp1ra8qu,3kopy89hmcfz34gw4adzhl4ju1t3j3,gDGv2ouu,2020-0188,2020-06-04,11:32:21,12:02:06,NA,incomplete,1,shape,0,1,right,Red_Circle_Dots_3.jpg,Purple_Triangle_Grid_3.jpg,Green_Circle_Chess_1.jpg,right,1007.1650000009686,true,NA,true
gDGv2ouu,3xabxm4ak4i034slkfn2gjsp1ra8qu,3kopy89hmcfz34gw4adzhl4ju1t3j3,gDGv2ouu,2020-0188,2020-06-04,11:32:21,12:02:06,NA,incomplete,2,shape,0,0,left,Red_Circle_Grid_2.jpg,Purple_Circle_Dots_1.jpg,Green_Triangle_Chess_2.jpg,left,1225.9499999999534,true,NA,true
gDGv2ouu,3xabxm4ak4i034slkfn2gjsp1ra8qu,3kopy89hmcfz34gw4adzhl4ju1t3j3,gDGv2ouu,2020-0188,2020-06-04,11:32:21,12:02:06,NA,incomplete,3,shape,0,1,left,Red_Circle_Chess_1.jpg,Green_Circle_Stripes_3.jpg,Purple_Triangle_Dots_1.jpg,left,588.819999998901,true,NA,true
gDGv2ouu,3xabxm4ak4i034slkfn2gjsp1ra8qu,3kopy89hmcfz34gw4adzhl4ju1t3j3,gDGv2ouu,2020-0188,2020-06-04,11:32:21,12:02:06,NA,incomplete,4,shape,0,1,left,Green_Plus_Dots_4.jpg,Red_Plus_Grid_3.jpg,Blue_Star_Chess_4.jpg,left,833.1249999993015,true,NA,true
gDGv2ouu,3xabxm4ak4i034slkfn2gjsp1ra8qu,3kopy89hmcfz34gw4adzhl4ju1t3j3,gDGv2ouu,2020-0188,2020-06-04,11:32:21,12:02:06,NA,incomplete,5,shape,0,0,left,Green_Plus_Dots_4.jpg,Red_Plus_Stripes_2.jpg,Purple_Circle_Grid_4.jpg,left,724.0200000014156,true,NA,true
gDGv2ouu,3xabxm4ak4i034slkfn2gjsp1ra8qu,3kopy89hmcfz34gw4adzhl4ju1t3j3,gDGv2ouu,2020-0188,2020-06-04,11:32:21,12:02:06,NA,incomplete,6,shape,0,1,right,Green_Circle_Dots_3.jpg,Blue_Triangle_Grid_3.jpg,Purple_Circle_Chess_4.jpg,right,698.6100000012666,true,NA,true
gDGv2ouu,3xabxm4ak4i034slkfn2gjsp1ra8qu,3kopy89hmcfz34gw4adzhl4ju1t3j3,gDGv2ouu,2020-0188,2020-06-04,11:32:21,12:02:06,NA,incomplete,7,shape,0,1,right,Purple_Circle_Grid_2.jpg,Red_Plus_Stripes_2.jpg,Blue_Circle_Dots_4.jpg,right,714.785000000149,true,NA,true
gDGv2ouu,3xabxm4ak4i034slkfn2gjsp1ra8qu,3kopy89hmcfz34gw4adzhl4ju1t3j3,gDGv2ouu,2020-0188,2020-06-04,11:32:21,12:02:06,NA,incomplete,8,shape,0,1,left,Purple_Star_Grid_2.jpg,Blue_Star_Dots_3.jpg,Green_Circle_Chess_2.jpg,left,561.0949999992736,true,NA,true
gDGv2ouu,3xabxm4ak4i034slkfn2gjsp1ra8qu,3kopy89hmcfz34gw4adzhl4ju1t3j3,gDGv2ouu,2020-0188,2020-06-04,11:32:21,12:02:06,NA,incomplete,9,shape,0,1,left,Blue_Star_Stripes_3.jpg,Purple_Star_Chess_2.jpg,Red_Plus_Dots_3.jpg,left,798.9049999997951,true,NA,true
gDGv2ouu,3xabxm4ak4i034slkfn2gjsp1ra8qu,3kopy89hmcfz34gw4adzhl4ju1t3j3,gDGv2ouu,2020-0188,2020-06-04,11:32:21,12:02:06,NA,incomplete,10,shape,0,1,right,Red_Circle_Grid_4.jpg,Green_Star_Stripes_4.jpg,Purple_Circle_Dots_3.jpg,right,667.3699999991804,true,NA,true
gDGv2ouu,3xabxm4ak4i034slkfn2gjsp1ra8qu,3kopy89hmcfz34gw4adzhl4ju1t3j3,gDGv2ouu,2020-0188,2020-06-04,11:32:21,12:02:06,NA,incomplete,11,shape,0,1,left,Green_Plus_Stripes_3.jpg,Purple_Plus_Grid_4.jpg,Blue_Circle_Dots_3.jpg,left,819.6000000005588,true,NA,true
gDGv2ouu,3xabxm4ak4i034slkfn2gjsp1ra8qu,3kopy89hmcfz34gw4adzhl4ju1t3j3,gDGv2ouu,2020-0188,2020-06-04,11:32:21,12:02:06,NA,incomplete,12,shape,0,1,left,Green_Star_Dots_2.jpg,Blue_Star_Chess_1.jpg,Purple_Plus_Grid_2.jpg,left,687.1649999993388,true,NA,true
gDGv2ouu,3xabxm4ak4i034slkfn2gjsp1ra8qu,3kopy89hmcfz34gw4adzhl4ju1t3j3,gDGv2ouu,2020-0188,2020-06-04,11:32:21,12:02:06,NA,incomplete,13,shape,0,1,left,Red_Triangle_Grid_1.jpg,Purple_Triangle_Chess_4.jpg,Green_Star_Stripes_1.jpg,left,704.3750000011642,true,NA,true
gDGv2ouu,3xabxm4ak4i034slkfn2gjsp1ra8qu,3kopy89hmcfz34gw4adzhl4ju1t3j3,gDGv2ouu,2020-0188,2020-06-04,11:32:21,12:02:06,NA,incomplete,14,shape,0,1,left,Blue_Star_Grid_1.jpg,Green_Star_Stripes_3.jpg,Red_Plus_Dots_1.jpg,left,751.3200000012293,true,NA,true
gDGv2ouu,3xabxm4ak4i034slkfn2gjsp1ra8qu,3kopy89hmcfz34gw4adzhl4ju1t3j3,gDGv2ouu,2020-0188,2020-06-04,11:32:21,12:02:06,NA,incomplete,15,shape,0,1,right,Red_Star_Dots_3.jpg,Purple_Circle_Grid_3.jpg,Green_Star_Chess_4.jpg,right,766.1499999994412,true,NA,true
gDGv2ouu,3xabxm4ak4i034slkfn2gjsp1ra8qu,3kopy89hmcfz34gw4adzhl4ju1t3j3,gDGv2ouu,2020-0188,2020-06-04,11:32:21,12:02:06,NA,incomplete,16,shape,0,1,left,Blue_Star_Stripes_3.jpg,Red_Star_Grid_1.jpg,Green_Plus_Chess_3.jpg,left,785.1649999993388,true,NA,true
gDGv2ouu,3xabxm4ak4i034slkfn2gjsp1ra8qu,3kopy89hmcfz34gw4adzhl4ju1t3j3,gDGv2ouu,2020-0188,2020-06-04,11:32:21,12:02:06,NA,incomplete,17,shape,0,1,left,Purple_Star_Grid_1.jpg,Red_Star_Stripes_3.jpg,Green_Triangle_Dots_1.jpg,left,702.5400000000373,true,NA,true
gDGv2ouu,3xabxm4ak4i034slkfn2gjsp1ra8qu,3kopy89hmcfz34gw4adzhl4ju1t3j3,gDGv2ouu,2020-0188,2020-06-04,11:32:21,12:02:06,NA,incomplete,18,shape,0,1,right,Purple_Star_Chess_1.jpg,Green_Triangle_Grid_1.jpg,Red_Star_Dots_4.jpg,right,717.9049999995623,true,NA,true
gDGv2ouu,3xabxm4ak4i034slkfn2gjsp1ra8qu,3kopy89hmcfz34gw4adzhl4ju1t3j3,gDGv2ouu,2020-0188,2020-06-04,11:32:21,12:02:06,NA,incomplete,19,shape,0,1,left,Purple_Star_Dots_4.jpg,Green_Star_Grid_2.jpg,Blue_Circle_Stripes_4.jpg,left,709.6700000001583,true,NA,true
gDGv2ouu,3xabxm4ak4i034slkfn2gjsp1ra8qu,3kopy89hmcfz34gw4adzhl4ju1t3j3,gDGv2ouu,2020-0188,2020-06-04,11:32:21,12:02:06,NA,incomplete,20,number,1,1,left,Purple_Star_Chess_2.jpg,Green_Circle_Grid_2.jpg,Red_Star_Dots_4.jpg,right,756.2149999996182,false,NA,true
gDGv2ouu,3xabxm4ak4i034slkfn2gjsp1ra8qu,3kopy89hmcfz34gw4adzhl4ju1t3j3,gDGv2ouu,2020-0188,2020-06-04,11:32:21,12:02:06,NA,incomplete,21,number,1,0,left,Blue_Circle_Stripes_2.jpg,Green_Triangle_Dots_2.jpg,Red_Circle_Chess_1.jpg,right,977.8549999992829,false,NA,true
gDGv2ouu,3xabxm4ak4i034slkfn2gjsp1ra8qu,3kopy89hmcfz34gw4adzhl4ju1t3j3,gDGv2ouu,2020-0188,2020-06-04,11:32:21,12:02:06,NA,incomplete,22,number,1,1,right,Blue_Circle_Dots_1.jpg,Purple_Circle_Grid_4.jpg,Red_Plus_Stripes_1.jpg,right,1198.7399999997579,true,NA,true
gDGv2ouu,3xabxm4ak4i034slkfn2gjsp1ra8qu,3kopy89hmcfz34gw4adzhl4ju1t3j3,gDGv2ouu,2020-0188,2020-06-04,11:32:21,12:02:06,NA,incomplete,23,number,1,1,left,Green_Star_Dots_1.jpg,Red_Plus_Stripes_1.jpg,Purple_Star_Chess_3.jpg,left,611.5450000015553,true,NA,true
gDGv2ouu,3xabxm4ak4i034slkfn2gjsp1ra8qu,3kopy89hmcfz34gw4adzhl4ju1t3j3,gDGv2ouu,2020-0188,2020-06-04,11:32:21,12:02:06,NA,incomplete,24,number,1,0,left,Red_Circle_Stripes_4.jpg,Blue_Triangle_Grid_4.jpg,Purple_Circle_Dots_1.jpg,left,1158.4600000004284,true,NA,true
gDGv2ouu,3xabxm4ak4i034slkfn2gjsp1ra8qu,3kopy89hmcfz34gw4adzhl4ju1t3j3,gDGv2ouu,2020-0188,2020-06-04,11:32:21,12:02:06,NA,incomplete,25,number,1,1,left,Blue_Plus_Chess_2.jpg,Red_Circle_Grid_2.jpg,Purple_Plus_Stripes_1.jpg,left,1011.894999999553,true,NA,true
gDGv2ouu,3xabxm4ak4i034slkfn2gjsp1ra8qu,3kopy89hmcfz34gw4adzhl4ju1t3j3,gDGv2ouu,2020-0188,2020-06-04,11:32:21,12:02:06,NA,incomplete,26,number,1,1,right,Green_Star_Stripes_1.jpg,Red_Star_Dots_2.jpg,Blue_Circle_Grid_1.jpg,right,1334.9949999991804,true,NA,true
gDGv2ouu,3xabxm4ak4i034slkfn2gjsp1ra8qu,3kopy89hmcfz34gw4adzhl4ju1t3j3,gDGv2ouu,2020-0188,2020-06-04,11:32:21,12:02:06,NA,incomplete,27,number,1,1,left,Green_Star_Grid_4.jpg,Purple_Plus_Stripes_4.jpg,Red_Star_Dots_1.jpg,left,676.285000001546,true,NA,true
gDGv2ouu,3xabxm4ak4i034slkfn2gjsp1ra8qu,3kopy89hmcfz34gw4adzhl4ju1t3j3,gDGv2ouu,2020-0188,2020-06-04,11:32:21,12:02:06,NA,incomplete,28,number,1,1,right,Red_Star_Chess_3.jpg,Purple_Star_Dots_4.jpg,Green_Circle_Grid_3.jpg,right,1069.5949999990407,true,NA,true
gDGv2ouu,3xabxm4ak4i034slkfn2gjsp1ra8qu,3kopy89hmcfz34gw4adzhl4ju1t3j3,gDGv2ouu,2020-0188,2020-06-04,11:32:21,12:02:06,NA,incomplete,29,number,1,1,left,Red_Triangle_Grid_3.jpg,Purple_Plus_Stripes_3.jpg,Green_Triangle_Dots_2.jpg,left,726.1650000000373,true,NA,true
gDGv2ouu,3xabxm4ak4i034slkfn2gjsp1ra8qu,3kopy89hmcfz34gw4adzhl4ju1t3j3,gDGv2ouu,2020-0188,2020-06-04,11:32:21,12:02:06,NA,incomplete,30,number,1,0,right,Red_Star_Dots_4.jpg,Blue_Star_Grid_1.jpg,Purple_Circle_Chess_4.jpg,right,749.2450000008103,true,NA,true
gDGv2ouu,3xabxm4ak4i034slkfn2gjsp1ra8qu,3kopy89hmcfz34gw4adzhl4ju1t3j3,gDGv2ouu,2020-0188,2020-06-04,11:32:21,12:02:06,NA,incomplete,31,number,1,0,right,Blue_Star_Dots_4.jpg,Green_Star_Grid_2.jpg,Purple_Circle_Chess_4.jpg,right,611.8100000002887,true,NA,true
gDGv2ouu,3xabxm4ak4i034slkfn2gjsp1ra8qu,3kopy89hmcfz34gw4adzhl4ju1t3j3,gDGv2ouu,2020-0188,2020-06-04,11:32:21,12:02:06,NA,incomplete,32,number,1,0,right,Red_Plus_Stripes_2.jpg,Blue_Plus_Dots_1.jpg,Green_Circle_Chess_2.jpg,right,686.5600000000559,true,NA,true
gDGv2ouu,3xabxm4ak4i034slkfn2gjsp1ra8qu,3kopy89hmcfz34gw4adzhl4ju1t3j3,gDGv2ouu,2020-0188,2020-06-04,11:32:21,12:02:06,NA,incomplete,33,number,1,1,left,Blue_Triangle_Grid_1.jpg,Green_Star_Dots_1.jpg,Red_Triangle_Chess_3.jpg,left,735.1100000014994,true,NA,true
gDGv2ouu,3xabxm4ak4i034slkfn2gjsp1ra8qu,3kopy89hmcfz34gw4adzhl4ju1t3j3,gDGv2ouu,2020-0188,2020-06-04,11:32:21,12:02:06,NA,incomplete,34,number,1,1,left,Purple_Circle_Chess_3.jpg,Red_Plus_Stripes_3.jpg,Green_Circle_Grid_2.jpg,left,909.6199999987148,true,NA,true
gDGv2ouu,3xabxm4ak4i034slkfn2gjsp1ra8qu,3kopy89hmcfz34gw4adzhl4ju1t3j3,gDGv2ouu,2020-0188,2020-06-04,11:32:21,12:02:06,NA,incomplete,35,number,1,1,left,Green_Circle_Stripes_2.jpg,Red_Triangle_Grid_2.jpg,Blue_Circle_Dots_1.jpg,left,757.0250000008382,true,NA,true
gDGv2ouu,3xabxm4ak4i034slkfn2gjsp1ra8qu,3kopy89hmcfz34gw4adzhl4ju1t3j3,gDGv2ouu,2020-0188,2020-06-04,11:32:21,12:02:06,NA,incomplete,36,number,1,0,left,Red_Circle_Stripes_3.jpg,Green_Plus_Chess_3.jpg,Purple_Circle_Dots_2.jpg,left,745.8600000010338,true,NA,true
gDGv2ouu,3xabxm4ak4i034slkfn2gjsp1ra8qu,3kopy89hmcfz34gw4adzhl4ju1t3j3,gDGv2ouu,2020-0188,2020-06-04,11:32:21,12:02:06,NA,incomplete,37,number,1,1,left,Green_Circle_Grid_3.jpg,Purple_Star_Dots_3.jpg,Red_Circle_Chess_1.jpg,left,600.3899999994319,true,NA,true
gDGv2ouu,3xabxm4ak4i034slkfn2gjsp1ra8qu,3kopy89hmcfz34gw4adzhl4ju1t3j3,gDGv2ouu,2020-0188,2020-06-04,11:32:21,12:02:06,NA,incomplete,38,number,1,1,right,Blue_Triangle_Dots_4.jpg,Green_Triangle_Chess_3.jpg,Red_Plus_Grid_4.jpg,right,827.8400000000838,true,NA,true
gDGv2ouu,3xabxm4ak4i034slkfn2gjsp1ra8qu,3kopy89hmcfz34gw4adzhl4ju1t3j3,gDGv2ouu,2020-0188,2020-06-04,11:32:21,12:02:06,NA,incomplete,39,number,1,1,left,Purple_Triangle_Stripes_1.jpg,Green_Plus_Grid_1.jpg,Red_Triangle_Dots_4.jpg,left,742.5299999995623,true,NA,true
gDGv2ouu,3xabxm4ak4i034slkfn2gjsp1ra8qu,3kopy89hmcfz34gw4adzhl4ju1t3j3,gDGv2ouu,2020-0188,2020-06-04,11:32:21,12:02:06,NA,incomplete,0,shape,0,1,right,Green_Plus_Dots_2.jpg,Red_Star_Grid_2.jpg,Blue_Plus_Stripes_4.jpg,left,779.0349999996834,false,high,false
gDGv2ouu,3xabxm4ak4i034slkfn2gjsp1ra8qu,3kopy89hmcfz34gw4adzhl4ju1t3j3,gDGv2ouu,2020-0188,2020-06-04,11:32:21,12:02:06,NA,incomplete,1,shape,0,1,left,Red_Triangle_Stripes_1.jpg,Purple_Triangle_Chess_3.jpg,Green_Star_Grid_1.jpg,left,1319.155000001192,true,high,false
gDGv2ouu,3xabxm4ak4i034slkfn2gjsp1ra8qu,3kopy89hmcfz34gw4adzhl4ju1t3j3,gDGv2ouu,2020-0188,2020-06-04,11:32:21,12:02:06,NA,incomplete,2,shape,0,1,left,Blue_Star_Chess_4.jpg,Red_Star_Dots_1.jpg,Purple_Triangle_Stripes_4.jpg,left,1182.0000000006985,true,high,false
gDGv2ouu,3xabxm4ak4i034slkfn2gjsp1ra8qu,3kopy89hmcfz34gw4adzhl4ju1t3j3,gDGv2ouu,2020-0188,2020-06-04,11:32:21,12:02:06,NA,incomplete,3,shape,0,1,right,Blue_Circle_Stripes_1.jpg,Red_Star_Dots_1.jpg,Purple_Circle_Chess_3.jpg,right,770.5150000001304,true,high,false
gDGv2ouu,3xabxm4ak4i034slkfn2gjsp1ra8qu,3kopy89hmcfz34gw4adzhl4ju1t3j3,gDGv2ouu,2020-0188,2020-06-04,11:32:21,12:02:06,NA,incomplete,4,shape,0,1,left,Purple_Triangle_Chess_3.jpg,Blue_Triangle_Dots_4.jpg,Green_Star_Grid_3.jpg,left,790.9900000013877,true,high,false
gDGv2ouu,3xabxm4ak4i034slkfn2gjsp1ra8qu,3kopy89hmcfz34gw4adzhl4ju1t3j3,gDGv2ouu,2020-0188,2020-06-04,11:32:21,12:02:06,NA,incomplete,5,shape,0,1,right,Red_Triangle_Dots_4.jpg,Green_Plus_Stripes_4.jpg,Blue_Triangle_Grid_3.jpg,right,634.7900000000373,true,high,false
gDGv2ouu,3xabxm4ak4i034slkfn2gjsp1ra8qu,3kopy89hmcfz34gw4adzhl4ju1t3j3,gDGv2ouu,2020-0188,2020-06-04,11:32:21,12:02:06,NA,incomplete,6,shape,0,0,left,Red_Star_Chess_1.jpg,Purple_Star_Grid_4.jpg,Green_Triangle_Dots_1.jpg,left,870.6750000002794,true,high,false
gDGv2ouu,3xabxm4ak4i034slkfn2gjsp1ra8qu,3kopy89hmcfz34gw4adzhl4ju1t3j3,gDGv2ouu,2020-0188,2020-06-04,11:32:21,12:02:06,NA,incomplete,7,shape,0,1,left,Green_Star_Dots_3.jpg,Blue_Star_Stripes_2.jpg,Purple_Plus_Chess_3.jpg,left,708.8199999998324,true,high,false
gDGv2ouu,3xabxm4ak4i034slkfn2gjsp1ra8qu,3kopy89hmcfz34gw4adzhl4ju1t3j3,gDGv2ouu,2020-0188,2020-06-04,11:32:21,12:02:06,NA,incomplete,8,shape,0,1,right,Green_Circle_Chess_4.jpg,Red_Triangle_Stripes_4.jpg,Blue_Circle_Dots_2.jpg,right,716.7650000010617,true,high,false
gDGv2ouu,3xabxm4ak4i034slkfn2gjsp1ra8qu,3kopy89hmcfz34gw4adzhl4ju1t3j3,gDGv2ouu,2020-0188,2020-06-04,11:32:21,12:02:06,NA,incomplete,9,shape,0,1,left,Red_Triangle_Grid_3.jpg,Blue_Triangle_Stripes_1.jpg,Purple_Circle_Chess_3.jpg,left,692.6700000003912,true,high,false
gDGv2ouu,3xabxm4ak4i034slkfn2gjsp1ra8qu,3kopy89hmcfz34gw4adzhl4ju1t3j3,gDGv2ouu,2020-0188,2020-06-04,11:32:21,12:02:06,NA,incomplete,10,number,1,1,left,Purple_Plus_Dots_1.jpg,Red_Triangle_Chess_1.jpg,Green_Plus_Grid_4.jpg,right,675.6700000003912,false,high,false
gDGv2ouu,3xabxm4ak4i034slkfn2gjsp1ra8qu,3kopy89hmcfz34gw4adzhl4ju1t3j3,gDGv2ouu,2020-0188,2020-06-04,11:32:21,12:02:06,NA,incomplete,11,number,1,1,left,Blue_Triangle_Stripes_3.jpg,Red_Star_Grid_3.jpg,Purple_Triangle_Chess_2.jpg,right,653.6450000004843,false,high,false
gDGv2ouu,3xabxm4ak4i034slkfn2gjsp1ra8qu,3kopy89hmcfz34gw4adzhl4ju1t3j3,gDGv2ouu,2020-0188,2020-06-04,11:32:21,12:02:06,NA,incomplete,12,number,1,0,left,Blue_Circle_Chess_4.jpg,Red_Plus_Stripes_4.jpg,Purple_Circle_Grid_3.jpg,right,606.0950000009034,false,high,false
gDGv2ouu,3xabxm4ak4i034slkfn2gjsp1ra8qu,3kopy89hmcfz34gw4adzhl4ju1t3j3,gDGv2ouu,2020-0188,2020-06-04,11:32:21,12:02:06,NA,incomplete,13,number,1,1,left,Purple_Star_Stripes_3.jpg,Red_Triangle_Chess_3.jpg,Blue_Star_Dots_2.jpg,right,707.1099999991711,false,high,false
gDGv2ouu,3xabxm4ak4i034slkfn2gjsp1ra8qu,3kopy89hmcfz34gw4adzhl4ju1t3j3,gDGv2ouu,2020-0188,2020-06-04,11:32:21,12:02:06,NA,incomplete,14,number,1,1,left,Green_Triangle_Chess_1.jpg,Red_Star_Dots_1.jpg,Blue_Triangle_Stripes_3.jpg,left,762.5399999998044,true,high,false
gDGv2ouu,3xabxm4ak4i034slkfn2gjsp1ra8qu,3kopy89hmcfz34gw4adzhl4ju1t3j3,gDGv2ouu,2020-0188,2020-06-04,11:32:21,12:02:06,NA,incomplete,15,number,1,1,left,Blue_Star_Dots_2.jpg,Green_Plus_Stripes_2.jpg,Purple_Star_Chess_4.jpg,left,800.1149999999907,true,high,false
gDGv2ouu,3xabxm4ak4i034slkfn2gjsp1ra8qu,3kopy89hmcfz34gw4adzhl4ju1t3j3,gDGv2ouu,2020-0188,2020-06-04,11:32:21,12:02:06,NA,incomplete,16,number,1,1,right,Blue_Triangle_Chess_2.jpg,Purple_Triangle_Stripes_3.jpg,Red_Star_Dots_2.jpg,right,795.2349999996368,true,high,false
gDGv2ouu,3xabxm4ak4i034slkfn2gjsp1ra8qu,3kopy89hmcfz34gw4adzhl4ju1t3j3,gDGv2ouu,2020-0188,2020-06-04,11:32:21,12:02:06,NA,incomplete,17,number,1,1,left,Purple_Star_Chess_3.jpg,Blue_Plus_Stripes_3.jpg,Green_Star_Dots_1.jpg,left,983.1149999990594,true,high,false
gDGv2ouu,3xabxm4ak4i034slkfn2gjsp1ra8qu,3kopy89hmcfz34gw4adzhl4ju1t3j3,gDGv2ouu,2020-0188,2020-06-04,11:32:21,12:02:06,NA,incomplete,18,number,1,1,left,Red_Circle_Grid_4.jpg,Blue_Star_Dots_4.jpg,Green_Circle_Stripes_3.jpg,left,996.1399999991991,true,high,false
gDGv2ouu,3xabxm4ak4i034slkfn2gjsp1ra8qu,3kopy89hmcfz34gw4adzhl4ju1t3j3,gDGv2ouu,2020-0188,2020-06-04,11:32:21,12:02:06,NA,incomplete,19,number,1,1,left,Green_Star_Chess_1.jpg,Blue_Plus_Grid_1.jpg,Red_Star_Stripes_3.jpg,left,800.3349999999627,true,high,false
gDGv2ouu,3xabxm4ak4i034slkfn2gjsp1ra8qu,3kopy89hmcfz34gw4adzhl4ju1t3j3,gDGv2ouu,2020-0188,2020-06-04,11:32:21,12:02:06,NA,incomplete,20,shape,0,1,right,Purple_Star_Stripes_2.jpg,Red_Plus_Dots_2.jpg,Blue_Star_Grid_4.jpg,left,691.4300000006333,false,high,false
gDGv2ouu,3xabxm4ak4i034slkfn2gjsp1ra8qu,3kopy89hmcfz34gw4adzhl4ju1t3j3,gDGv2ouu,2020-0188,2020-06-04,11:32:21,12:02:06,NA,incomplete,21,shape,0,1,left,Red_Plus_Dots_2.jpg,Blue_Plus_Grid_1.jpg,Purple_Circle_Chess_2.jpg,right,844.724999998929,false,high,false
gDGv2ouu,3xabxm4ak4i034slkfn2gjsp1ra8qu,3kopy89hmcfz34gw4adzhl4ju1t3j3,gDGv2ouu,2020-0188,2020-06-04,11:32:21,12:02:06,NA,incomplete,22,shape,0,1,left,Purple_Plus_Chess_4.jpg,Blue_Plus_Grid_2.jpg,Red_Triangle_Stripes_4.jpg,right,1094.639999999432,false,high,false
gDGv2ouu,3xabxm4ak4i034slkfn2gjsp1ra8qu,3kopy89hmcfz34gw4adzhl4ju1t3j3,gDGv2ouu,2020-0188,2020-06-04,11:32:21,12:02:06,NA,incomplete,23,shape,0,0,right,Green_Circle_Grid_3.jpg,Blue_Plus_Stripes_3.jpg,Red_Circle_Dots_2.jpg,right,590.8949999993201,true,high,false
gDGv2ouu,3xabxm4ak4i034slkfn2gjsp1ra8qu,3kopy89hmcfz34gw4adzhl4ju1t3j3,gDGv2ouu,2020-0188,2020-06-04,11:32:21,12:02:06,NA,incomplete,24,shape,0,1,left,Green_Star_Dots_2.jpg,Blue_Star_Grid_4.jpg,Red_Circle_Stripes_2.jpg,left,841.6599999999162,true,high,false
gDGv2ouu,3xabxm4ak4i034slkfn2gjsp1ra8qu,3kopy89hmcfz34gw4adzhl4ju1t3j3,gDGv2ouu,2020-0188,2020-06-04,11:32:21,12:02:06,NA,incomplete,25,shape,0,1,left,Green_Plus_Stripes_3.jpg,Blue_Plus_Chess_1.jpg,Red_Star_Grid_3.jpg,left,1013.3100000002887,true,high,false
gDGv2ouu,3xabxm4ak4i034slkfn2gjsp1ra8qu,3kopy89hmcfz34gw4adzhl4ju1t3j3,gDGv2ouu,2020-0188,2020-06-04,11:32:21,12:02:06,NA,incomplete,26,shape,0,1,right,Blue_Star_Stripes_4.jpg,Green_Circle_Chess_4.jpg,Purple_Star_Grid_1.jpg,right,1016.7849999999162,true,high,false
gDGv2ouu,3xabxm4ak4i034slkfn2gjsp1ra8qu,3kopy89hmcfz34gw4adzhl4ju1t3j3,gDGv2ouu,2020-0188,2020-06-04,11:32:21,12:02:06,NA,incomplete,27,shape,0,1,left,Red_Star_Chess_1.jpg,Green_Star_Dots_3.jpg,Purple_Circle_Stripes_1.jpg,left,675.5649999994785,true,high,false
gDGv2ouu,3xabxm4ak4i034slkfn2gjsp1ra8qu,3kopy89hmcfz34gw4adzhl4ju1t3j3,gDGv2ouu,2020-0188,2020-06-04,11:32:21,12:02:06,NA,incomplete,28,shape,0,1,right,Purple_Circle_Dots_1.jpg,Green_Triangle_Stripes_1.jpg,Red_Circle_Chess_2.jpg,right,682.1099999996368,true,high,false
gDGv2ouu,3xabxm4ak4i034slkfn2gjsp1ra8qu,3kopy89hmcfz34gw4adzhl4ju1t3j3,gDGv2ouu,2020-0188,2020-06-04,11:32:21,12:02:06,NA,incomplete,29,shape,0,0,left,Green_Triangle_Chess_1.jpg,Purple_Triangle_Dots_3.jpg,Blue_Star_Stripes_1.jpg,left,636.4849999991711,true,high,false
gDGv2ouu,3xabxm4ak4i034slkfn2gjsp1ra8qu,3kopy89hmcfz34gw4adzhl4ju1t3j3,gDGv2ouu,2020-0188,2020-06-04,11:32:21,12:02:06,NA,incomplete,30,number,1,1,right,Purple_Plus_Chess_1.jpg,Green_Plus_Grid_3.jpg,Blue_Star_Dots_1.jpg,left,606.4500000011176,false,high,false
gDGv2ouu,3xabxm4ak4i034slkfn2gjsp1ra8qu,3kopy89hmcfz34gw4adzhl4ju1t3j3,gDGv2ouu,2020-0188,2020-06-04,11:32:21,12:02:06,NA,incomplete,31,number,1,1,right,Red_Circle_Dots_4.jpg,Green_Circle_Chess_2.jpg,Blue_Triangle_Stripes_4.jpg,left,817.3700000005774,false,high,false
gDGv2ouu,3xabxm4ak4i034slkfn2gjsp1ra8qu,3kopy89hmcfz34gw4adzhl4ju1t3j3,gDGv2ouu,2020-0188,2020-06-04,11:32:21,12:02:06,NA,incomplete,32,number,1,1,right,Green_Plus_Grid_2.jpg,Red_Plus_Stripes_1.jpg,Purple_Circle_Dots_2.jpg,right,822.0550000004005,true,high,false
gDGv2ouu,3xabxm4ak4i034slkfn2gjsp1ra8qu,3kopy89hmcfz34gw4adzhl4ju1t3j3,gDGv2ouu,2020-0188,2020-06-04,11:32:21,12:02:06,NA,incomplete,33,number,1,1,right,Purple_Star_Grid_3.jpg,Blue_Star_Chess_2.jpg,Red_Triangle_Dots_3.jpg,right,734.609999999404,true,high,false
gDGv2ouu,3xabxm4ak4i034slkfn2gjsp1ra8qu,3kopy89hmcfz34gw4adzhl4ju1t3j3,gDGv2ouu,2020-0188,2020-06-04,11:32:21,12:02:06,NA,incomplete,34,number,1,1,right,Green_Plus_Grid_2.jpg,Red_Plus_Chess_1.jpg,Blue_Star_Stripes_2.jpg,right,1027.869999999879,true,high,false
gDGv2ouu,3xabxm4ak4i034slkfn2gjsp1ra8qu,3kopy89hmcfz34gw4adzhl4ju1t3j3,gDGv2ouu,2020-0188,2020-06-04,11:32:21,12:02:06,NA,incomplete,35,number,1,1,right,Red_Star_Dots_3.jpg,Purple_Star_Stripes_1.jpg,Green_Plus_Chess_3.jpg,right,640.8799999991897,true,high,false
gDGv2ouu,3xabxm4ak4i034slkfn2gjsp1ra8qu,3kopy89hmcfz34gw4adzhl4ju1t3j3,gDGv2ouu,2020-0188,2020-06-04,11:32:21,12:02:06,NA,incomplete,36,number,1,1,right,Blue_Star_Grid_1.jpg,Red_Star_Dots_3.jpg,Green_Triangle_Stripes_1.jpg,right,704.7550000005867,true,high,false
gDGv2ouu,3xabxm4ak4i034slkfn2gjsp1ra8qu,3kopy89hmcfz34gw4adzhl4ju1t3j3,gDGv2ouu,2020-0188,2020-06-04,11:32:21,12:02:06,NA,incomplete,37,number,1,1,right,Green_Circle_Dots_2.jpg,Purple_Circle_Stripes_1.jpg,Red_Triangle_Chess_2.jpg,right,658.2049999996088,true,high,false
gDGv2ouu,3xabxm4ak4i034slkfn2gjsp1ra8qu,3kopy89hmcfz34gw4adzhl4ju1t3j3,gDGv2ouu,2020-0188,2020-06-04,11:32:21,12:02:06,NA,incomplete,38,number,1,0,left,Purple_Triangle_Dots_4.jpg,Blue_Star_Stripes_4.jpg,Green_Triangle_Grid_2.jpg,left,740.7299999995157,true,high,false
gDGv2ouu,3xabxm4ak4i034slkfn2gjsp1ra8qu,3kopy89hmcfz34gw4adzhl4ju1t3j3,gDGv2ouu,2020-0188,2020-06-04,11:32:21,12:02:06,NA,incomplete,39,number,1,1,left,Blue_Circle_Grid_4.jpg,Purple_Star_Dots_4.jpg,Green_Circle_Stripes_1.jpg,left,601.8950000016484,true,high,false
gDGv2ouu,3xabxm4ak4i034slkfn2gjsp1ra8qu,3kopy89hmcfz34gw4adzhl4ju1t3j3,gDGv2ouu,2020-0188,2020-06-04,11:32:21,12:02:06,NA,incomplete,40,shape,0,1,right,Red_Triangle_Grid_1.jpg,Green_Star_Chess_1.jpg,Purple_Triangle_Stripes_2.jpg,left,485.55999999912456,false,high,false
gDGv2ouu,3xabxm4ak4i034slkfn2gjsp1ra8qu,3kopy89hmcfz34gw4adzhl4ju1t3j3,gDGv2ouu,2020-0188,2020-06-04,11:32:21,12:02:06,NA,incomplete,41,shape,0,1,left,Purple_Star_Grid_1.jpg,Red_Star_Stripes_2.jpg,Green_Triangle_Chess_1.jpg,right,853.9049999997951,false,high,false
gDGv2ouu,3xabxm4ak4i034slkfn2gjsp1ra8qu,3kopy89hmcfz34gw4adzhl4ju1t3j3,gDGv2ouu,2020-0188,2020-06-04,11:32:21,12:02:06,NA,incomplete,42,shape,0,1,left,Green_Plus_Chess_4.jpg,Blue_Plus_Stripes_2.jpg,Purple_Circle_Grid_4.jpg,left,1342.9299999987707,true,high,false
gDGv2ouu,3xabxm4ak4i034slkfn2gjsp1ra8qu,3kopy89hmcfz34gw4adzhl4ju1t3j3,gDGv2ouu,2020-0188,2020-06-04,11:32:21,12:02:06,NA,incomplete,43,shape,0,1,left,Purple_Plus_Grid_4.jpg,Blue_Plus_Stripes_2.jpg,Green_Circle_Dots_4.jpg,left,796.9299999987707,true,high,false
gDGv2ouu,3xabxm4ak4i034slkfn2gjsp1ra8qu,3kopy89hmcfz34gw4adzhl4ju1t3j3,gDGv2ouu,2020-0188,2020-06-04,11:32:21,12:02:06,NA,incomplete,44,shape,0,1,left,Blue_Circle_Dots_1.jpg,Red_Circle_Stripes_4.jpg,Green_Star_Grid_1.jpg,left,625.4250000000466,true,high,false
gDGv2ouu,3xabxm4ak4i034slkfn2gjsp1ra8qu,3kopy89hmcfz34gw4adzhl4ju1t3j3,gDGv2ouu,2020-0188,2020-06-04,11:32:21,12:02:06,NA,incomplete,45,shape,0,1,right,Blue_Plus_Dots_1.jpg,Green_Circle_Stripes_1.jpg,Red_Plus_Chess_2.jpg,right,891.4400000011083,true,high,false
gDGv2ouu,3xabxm4ak4i034slkfn2gjsp1ra8qu,3kopy89hmcfz34gw4adzhl4ju1t3j3,gDGv2ouu,2020-0188,2020-06-04,11:32:21,12:02:06,NA,incomplete,46,shape,0,1,right,Purple_Circle_Stripes_3.jpg,Green_Star_Chess_3.jpg,Blue_Circle_Grid_2.jpg,right,1140.31499999878,true,high,false
gDGv2ouu,3xabxm4ak4i034slkfn2gjsp1ra8qu,3kopy89hmcfz34gw4adzhl4ju1t3j3,gDGv2ouu,2020-0188,2020-06-04,11:32:21,12:02:06,NA,incomplete,47,shape,0,1,left,Purple_Circle_Dots_4.jpg,Red_Circle_Stripes_1.jpg,Green_Triangle_Chess_4.jpg,left,649.464999998454,true,high,false
gDGv2ouu,3xabxm4ak4i034slkfn2gjsp1ra8qu,3kopy89hmcfz34gw4adzhl4ju1t3j3,gDGv2ouu,2020-0188,2020-06-04,11:32:21,12:02:06,NA,incomplete,48,shape,0,1,right,Red_Star_Dots_4.jpg,Green_Circle_Chess_4.jpg,Blue_Star_Grid_1.jpg,right,1043.5800000014715,true,high,false
gDGv2ouu,3xabxm4ak4i034slkfn2gjsp1ra8qu,3kopy89hmcfz34gw4adzhl4ju1t3j3,gDGv2ouu,2020-0188,2020-06-04,11:32:21,12:02:06,NA,incomplete,49,shape,0,1,right,Purple_Circle_Chess_1.jpg,Red_Plus_Dots_1.jpg,Blue_Circle_Grid_3.jpg,right,734.27000000095,true,high,false
gDGv2ouu,3xabxm4ak4i034slkfn2gjsp1ra8qu,3kopy89hmcfz34gw4adzhl4ju1t3j3,gDGv2ouu,2020-0188,2020-06-04,11:32:21,12:02:06,NA,incomplete,50,number,1,0,right,Green_Triangle_Stripes_3.jpg,Red_Triangle_Grid_4.jpg,Purple_Plus_Dots_3.jpg,left,923.8299999996088,false,high,false
gDGv2ouu,3xabxm4ak4i034slkfn2gjsp1ra8qu,3kopy89hmcfz34gw4adzhl4ju1t3j3,gDGv2ouu,2020-0188,2020-06-04,11:32:21,12:02:06,NA,incomplete,51,number,1,0,left,Blue_Circle_Grid_2.jpg,Red_Triangle_Chess_2.jpg,Green_Circle_Dots_1.jpg,right,593.8499999991618,false,high,false
gDGv2ouu,3xabxm4ak4i034slkfn2gjsp1ra8qu,3kopy89hmcfz34gw4adzhl4ju1t3j3,gDGv2ouu,2020-0188,2020-06-04,11:32:21,12:02:06,NA,incomplete,52,number,1,0,right,Purple_Triangle_Chess_3.jpg,Green_Triangle_Dots_1.jpg,Red_Circle_Grid_3.jpg,left,582.8149999997113,false,high,false
gDGv2ouu,3xabxm4ak4i034slkfn2gjsp1ra8qu,3kopy89hmcfz34gw4adzhl4ju1t3j3,gDGv2ouu,2020-0188,2020-06-04,11:32:21,12:02:06,NA,incomplete,53,number,1,0,left,Green_Plus_Chess_1.jpg,Blue_Circle_Dots_1.jpg,Red_Plus_Grid_2.jpg,right,627.6549999983981,false,high,false
gDGv2ouu,3xabxm4ak4i034slkfn2gjsp1ra8qu,3kopy89hmcfz34gw4adzhl4ju1t3j3,gDGv2ouu,2020-0188,2020-06-04,11:32:21,12:02:06,NA,incomplete,54,number,1,1,left,Purple_Star_Stripes_3.jpg,Blue_Circle_Chess_3.jpg,Green_Star_Dots_2.jpg,right,573.9850000008009,false,high,false
gDGv2ouu,3xabxm4ak4i034slkfn2gjsp1ra8qu,3kopy89hmcfz34gw4adzhl4ju1t3j3,gDGv2ouu,2020-0188,2020-06-04,11:32:21,12:02:06,NA,incomplete,55,number,1,0,right,Purple_Star_Stripes_1.jpg,Red_Star_Chess_2.jpg,Blue_Circle_Grid_1.jpg,left,611.6000000000931,false,high,false
gDGv2ouu,3xabxm4ak4i034slkfn2gjsp1ra8qu,3kopy89hmcfz34gw4adzhl4ju1t3j3,gDGv2ouu,2020-0188,2020-06-04,11:32:21,12:02:06,NA,incomplete,56,number,1,0,right,Blue_Circle_Stripes_3.jpg,Red_Circle_Grid_2.jpg,Purple_Star_Dots_3.jpg,left,750.5899999996182,false,high,false
gDGv2ouu,3xabxm4ak4i034slkfn2gjsp1ra8qu,3kopy89hmcfz34gw4adzhl4ju1t3j3,gDGv2ouu,2020-0188,2020-06-04,11:32:21,12:02:06,NA,incomplete,57,number,1,1,right,Green_Triangle_Stripes_4.jpg,Red_Triangle_Dots_3.jpg,Purple_Star_Chess_4.jpg,left,557.0849999985658,false,high,false
gDGv2ouu,3xabxm4ak4i034slkfn2gjsp1ra8qu,3kopy89hmcfz34gw4adzhl4ju1t3j3,gDGv2ouu,2020-0188,2020-06-04,11:32:21,12:02:06,NA,incomplete,58,number,1,0,left,Green_Circle_Dots_3.jpg,Red_Star_Chess_3.jpg,Blue_Circle_Stripes_2.jpg,right,946.2350000012666,false,high,false
gDGv2ouu,3xabxm4ak4i034slkfn2gjsp1ra8qu,3kopy89hmcfz34gw4adzhl4ju1t3j3,gDGv2ouu,2020-0188,2020-06-04,11:32:21,12:02:06,NA,incomplete,59,number,1,1,right,Green_Triangle_Dots_3.jpg,Blue_Triangle_Grid_2.jpg,Purple_Plus_Chess_3.jpg,left,585.1150000016205,false,high,false
gDGv2ouu,3xabxm4ak4i034slkfn2gjsp1ra8qu,3kopy89hmcfz34gw4adzhl4ju1t3j3,gDGv2ouu,2020-0188,2020-06-04,11:32:21,12:02:06,NA,incomplete,60,shape,0,1,left,Red_Plus_Grid_3.jpg,Purple_Plus_Stripes_2.jpg,Green_Circle_Chess_3.jpg,left,549.5499999998137,true,high,false
gDGv2ouu,3xabxm4ak4i034slkfn2gjsp1ra8qu,3kopy89hmcfz34gw4adzhl4ju1t3j3,gDGv2ouu,2020-0188,2020-06-04,11:32:21,12:02:06,NA,incomplete,61,shape,0,0,right,Blue_Circle_Dots_3.jpg,Red_Triangle_Chess_3.jpg,Green_Circle_Grid_1.jpg,right,777.9200000003912,true,high,false
gDGv2ouu,3xabxm4ak4i034slkfn2gjsp1ra8qu,3kopy89hmcfz34gw4adzhl4ju1t3j3,gDGv2ouu,2020-0188,2020-06-04,11:32:21,12:02:06,NA,incomplete,62,shape,0,1,left,Green_Triangle_Stripes_4.jpg,Purple_Triangle_Grid_2.jpg,Blue_Star_Chess_4.jpg,left,535.8850000011735,true,high,false
gDGv2ouu,3xabxm4ak4i034slkfn2gjsp1ra8qu,3kopy89hmcfz34gw4adzhl4ju1t3j3,gDGv2ouu,2020-0188,2020-06-04,11:32:21,12:02:06,NA,incomplete,63,shape,0,1,left,Green_Plus_Grid_4.jpg,Purple_Plus_Stripes_3.jpg,Blue_Star_Chess_4.jpg,left,614.5350000006147,true,high,false
gDGv2ouu,3xabxm4ak4i034slkfn2gjsp1ra8qu,3kopy89hmcfz34gw4adzhl4ju1t3j3,gDGv2ouu,2020-0188,2020-06-04,11:32:21,12:02:06,NA,incomplete,64,shape,0,1,left,Red_Triangle_Grid_1.jpg,Purple_Triangle_Dots_4.jpg,Green_Star_Chess_1.jpg,left,538.4550000000745,true,high,false
gDGv2ouu,3xabxm4ak4i034slkfn2gjsp1ra8qu,3kopy89hmcfz34gw4adzhl4ju1t3j3,gDGv2ouu,2020-0188,2020-06-04,11:32:21,12:02:06,NA,incomplete,65,shape,0,1,right,Blue_Triangle_Chess_3.jpg,Green_Circle_Stripes_3.jpg,Red_Triangle_Dots_1.jpg,right,544.4249999998137,true,high,false
gDGv2ouu,3xabxm4ak4i034slkfn2gjsp1ra8qu,3kopy89hmcfz34gw4adzhl4ju1t3j3,gDGv2ouu,2020-0188,2020-06-04,11:32:21,12:02:06,NA,incomplete,66,shape,0,0,right,Red_Plus_Grid_3.jpg,Green_Triangle_Chess_3.jpg,Blue_Plus_Stripes_4.jpg,right,612.5400000000373,true,high,false
gDGv2ouu,3xabxm4ak4i034slkfn2gjsp1ra8qu,3kopy89hmcfz34gw4adzhl4ju1t3j3,gDGv2ouu,2020-0188,2020-06-04,11:32:21,12:02:06,NA,incomplete,67,shape,0,1,right,Green_Circle_Grid_4.jpg,Blue_Triangle_Dots_4.jpg,Red_Circle_Chess_1.jpg,right,673.9350000005215,true,high,false
gDGv2ouu,3xabxm4ak4i034slkfn2gjsp1ra8qu,3kopy89hmcfz34gw4adzhl4ju1t3j3,gDGv2ouu,2020-0188,2020-06-04,11:32:21,12:02:06,NA,incomplete,68,shape,0,0,left,Red_Plus_Stripes_2.jpg,Green_Plus_Chess_3.jpg,Purple_Circle_Dots_2.jpg,left,593.769999999553,true,high,false
gDGv2ouu,3xabxm4ak4i034slkfn2gjsp1ra8qu,3kopy89hmcfz34gw4adzhl4ju1t3j3,gDGv2ouu,2020-0188,2020-06-04,11:32:21,12:02:06,NA,incomplete,69,shape,0,0,left,Red_Triangle_Dots_3.jpg,Purple_Triangle_Stripes_1.jpg,Green_Circle_Grid_3.jpg,left,503.29500000039116,true,high,false
gDGv2ouu,3xabxm4ak4i034slkfn2gjsp1ra8qu,3kopy89hmcfz34gw4adzhl4ju1t3j3,gDGv2ouu,2020-0188,2020-06-04,11:32:21,12:02:06,NA,incomplete,70,number,1,1,right,Red_Plus_Dots_2.jpg,Blue_Plus_Stripes_4.jpg,Green_Triangle_Chess_2.jpg,right,629.4699999997392,true,high,false
gDGv2ouu,3xabxm4ak4i034slkfn2gjsp1ra8qu,3kopy89hmcfz34gw4adzhl4ju1t3j3,gDGv2ouu,2020-0188,2020-06-04,11:32:21,12:02:06,NA,incomplete,71,number,1,1,left,Green_Triangle_Stripes_4.jpg,Purple_Circle_Grid_4.jpg,Blue_Triangle_Chess_1.jpg,left,600.9100000010803,true,high,false
gDGv2ouu,3xabxm4ak4i034slkfn2gjsp1ra8qu,3kopy89hmcfz34gw4adzhl4ju1t3j3,gDGv2ouu,2020-0188,2020-06-04,11:32:21,12:02:06,NA,incomplete,72,number,1,1,right,Purple_Triangle_Grid_1.jpg,Green_Triangle_Stripes_2.jpg,Red_Star_Dots_1.jpg,right,652.8750000016298,true,high,false
gDGv2ouu,3xabxm4ak4i034slkfn2gjsp1ra8qu,3kopy89hmcfz34gw4adzhl4ju1t3j3,gDGv2ouu,2020-0188,2020-06-04,11:32:21,12:02:06,NA,incomplete,73,number,1,1,right,Red_Triangle_Grid_3.jpg,Blue_Triangle_Chess_2.jpg,Green_Circle_Stripes_3.jpg,right,894.2700000007171,true,high,false
gDGv2ouu,3xabxm4ak4i034slkfn2gjsp1ra8qu,3kopy89hmcfz34gw4adzhl4ju1t3j3,gDGv2ouu,2020-0188,2020-06-04,11:32:21,12:02:06,NA,incomplete,74,number,1,1,left,Blue_Circle_Dots_1.jpg,Red_Plus_Chess_1.jpg,Purple_Circle_Grid_4.jpg,left,614.000000001397,true,high,false
gDGv2ouu,3xabxm4ak4i034slkfn2gjsp1ra8qu,3kopy89hmcfz34gw4adzhl4ju1t3j3,gDGv2ouu,2020-0188,2020-06-04,11:32:21,12:02:06,NA,incomplete,75,number,1,1,left,Green_Star_Chess_2.jpg,Purple_Circle_Grid_2.jpg,Red_Star_Stripes_4.jpg,left,681.2350000001024,true,high,false
gDGv2ouu,3xabxm4ak4i034slkfn2gjsp1ra8qu,3kopy89hmcfz34gw4adzhl4ju1t3j3,gDGv2ouu,2020-0188,2020-06-04,11:32:21,12:02:06,NA,incomplete,76,number,1,1,left,Green_Triangle_Grid_4.jpg,Purple_Star_Dots_4.jpg,Red_Triangle_Stripes_2.jpg,left,747.390000000596,true,high,false
gDGv2ouu,3xabxm4ak4i034slkfn2gjsp1ra8qu,3kopy89hmcfz34gw4adzhl4ju1t3j3,gDGv2ouu,2020-0188,2020-06-04,11:32:21,12:02:06,NA,incomplete,77,number,1,0,left,Purple_Triangle_Dots_4.jpg,Blue_Star_Grid_4.jpg,Red_Triangle_Chess_2.jpg,left,552.2249999993946,true,high,false
gDGv2ouu,3xabxm4ak4i034slkfn2gjsp1ra8qu,3kopy89hmcfz34gw4adzhl4ju1t3j3,gDGv2ouu,2020-0188,2020-06-04,11:32:21,12:02:06,NA,incomplete,78,number,1,1,right,Purple_Circle_Chess_3.jpg,Red_Circle_Dots_2.jpg,Green_Plus_Grid_3.jpg,right,606.3900000008289,true,high,false
gDGv2ouu,3xabxm4ak4i034slkfn2gjsp1ra8qu,3kopy89hmcfz34gw4adzhl4ju1t3j3,gDGv2ouu,2020-0188,2020-06-04,11:32:21,12:02:06,NA,incomplete,79,number,1,1,left,Green_Circle_Chess_3.jpg,Red_Triangle_Dots_3.jpg,Blue_Circle_Grid_4.jpg,left,617.4599999994971,true,high,false
gDGv2ouu,3xabxm4ak4i034slkfn2gjsp1ra8qu,3kopy89hmcfz34gw4adzhl4ju1t3j3,gDGv2ouu,2020-0188,2020-06-04,11:32:21,12:02:06,NA,incomplete,80,shape,0,1,left,Purple_Star_Chess_4.jpg,Green_Star_Stripes_2.jpg,Blue_Circle_Dots_4.jpg,right,645.7000000011176,false,high,false
gDGv2ouu,3xabxm4ak4i034slkfn2gjsp1ra8qu,3kopy89hmcfz34gw4adzhl4ju1t3j3,gDGv2ouu,2020-0188,2020-06-04,11:32:21,12:02:06,NA,incomplete,81,shape,0,1,right,Green_Triangle_Chess_2.jpg,Red_Plus_Stripes_2.jpg,Blue_Triangle_Grid_4.jpg,left,631.4399999992456,false,high,false
gDGv2ouu,3xabxm4ak4i034slkfn2gjsp1ra8qu,3kopy89hmcfz34gw4adzhl4ju1t3j3,gDGv2ouu,2020-0188,2020-06-04,11:32:21,12:02:06,NA,incomplete,82,shape,0,0,left,Blue_Triangle_Grid_4.jpg,Green_Triangle_Dots_3.jpg,Red_Circle_Chess_4.jpg,left,561.034999998752,true,high,false
gDGv2ouu,3xabxm4ak4i034slkfn2gjsp1ra8qu,3kopy89hmcfz34gw4adzhl4ju1t3j3,gDGv2ouu,2020-0188,2020-06-04,11:32:21,12:02:06,NA,incomplete,83,shape,0,0,left,Green_Circle_Chess_4.jpg,Red_Circle_Grid_3.jpg,Blue_Star_Stripes_4.jpg,left,632.0649999997113,true,high,false
gDGv2ouu,3xabxm4ak4i034slkfn2gjsp1ra8qu,3kopy89hmcfz34gw4adzhl4ju1t3j3,gDGv2ouu,2020-0188,2020-06-04,11:32:21,12:02:06,NA,incomplete,84,shape,0,1,right,Red_Circle_Grid_2.jpg,Blue_Star_Chess_2.jpg,Green_Circle_Stripes_4.jpg,left,626.4449999998324,false,high,false
gDGv2ouu,3xabxm4ak4i034slkfn2gjsp1ra8qu,3kopy89hmcfz34gw4adzhl4ju1t3j3,gDGv2ouu,2020-0188,2020-06-04,11:32:21,12:02:06,NA,incomplete,85,shape,0,1,left,Blue_Circle_Chess_4.jpg,Purple_Circle_Dots_1.jpg,Red_Plus_Stripes_4.jpg,right,1005.5649999994785,false,high,false
gDGv2ouu,3xabxm4ak4i034slkfn2gjsp1ra8qu,3kopy89hmcfz34gw4adzhl4ju1t3j3,gDGv2ouu,2020-0188,2020-06-04,11:32:21,12:02:06,NA,incomplete,86,shape,0,1,right,Blue_Circle_Chess_3.jpg,Green_Plus_Dots_3.jpg,Purple_Circle_Stripes_2.jpg,right,1160.214999999851,true,high,false
gDGv2ouu,3xabxm4ak4i034slkfn2gjsp1ra8qu,3kopy89hmcfz34gw4adzhl4ju1t3j3,gDGv2ouu,2020-0188,2020-06-04,11:32:21,12:02:06,NA,incomplete,87,shape,0,1,left,Red_Star_Grid_1.jpg,Purple_Star_Chess_2.jpg,Blue_Plus_Dots_1.jpg,left,677.3049999994691,true,high,false
gDGv2ouu,3xabxm4ak4i034slkfn2gjsp1ra8qu,3kopy89hmcfz34gw4adzhl4ju1t3j3,gDGv2ouu,2020-0188,2020-06-04,11:32:21,12:02:06,NA,incomplete,88,shape,0,1,right,Blue_Star_Chess_1.jpg,Purple_Triangle_Stripes_1.jpg,Red_Star_Dots_3.jpg,right,694.4249999998137,true,high,false
gDGv2ouu,3xabxm4ak4i034slkfn2gjsp1ra8qu,3kopy89hmcfz34gw4adzhl4ju1t3j3,gDGv2ouu,2020-0188,2020-06-04,11:32:21,12:02:06,NA,incomplete,89,shape,0,1,right,Green_Circle_Grid_3.jpg,Red_Triangle_Dots_3.jpg,Purple_Circle_Stripes_4.jpg,right,823.1500000001397,true,high,false
gDGv2ouu,3xabxm4ak4i034slkfn2gjsp1ra8qu,3kopy89hmcfz34gw4adzhl4ju1t3j3,gDGv2ouu,2020-0188,2020-06-04,11:32:21,12:02:06,NA,incomplete,90,number,1,1,right,Green_Circle_Grid_1.jpg,Purple_Circle_Stripes_2.jpg,Red_Plus_Chess_1.jpg,left,457.47499999939464,false,high,false
gDGv2ouu,3xabxm4ak4i034slkfn2gjsp1ra8qu,3kopy89hmcfz34gw4adzhl4ju1t3j3,gDGv2ouu,2020-0188,2020-06-04,11:32:21,12:02:06,NA,incomplete,91,number,1,1,right,Red_Star_Dots_2.jpg,Green_Star_Stripes_3.jpg,Blue_Circle_Grid_2.jpg,left,587.6150000004563,false,high,false
gDGv2ouu,3xabxm4ak4i034slkfn2gjsp1ra8qu,3kopy89hmcfz34gw4adzhl4ju1t3j3,gDGv2ouu,2020-0188,2020-06-04,11:32:21,12:02:06,NA,incomplete,92,number,1,0,right,Green_Plus_Dots_4.jpg,Purple_Plus_Chess_3.jpg,Blue_Star_Grid_4.jpg,left,790.9999999993015,false,high,false
gDGv2ouu,3xabxm4ak4i034slkfn2gjsp1ra8qu,3kopy89hmcfz34gw4adzhl4ju1t3j3,gDGv2ouu,2020-0188,2020-06-04,11:32:21,12:02:06,NA,incomplete,93,number,1,0,right,Purple_Plus_Stripes_1.jpg,Green_Plus_Dots_3.jpg,Blue_Star_Grid_1.jpg,left,507.8499999998603,false,high,false
gDGv2ouu,3xabxm4ak4i034slkfn2gjsp1ra8qu,3kopy89hmcfz34gw4adzhl4ju1t3j3,gDGv2ouu,2020-0188,2020-06-04,11:32:21,12:02:06,NA,incomplete,94,number,1,1,left,Purple_Plus_Stripes_3.jpg,Green_Triangle_Grid_3.jpg,Blue_Plus_Dots_4.jpg,right,690.634999999078,false,high,false
gDGv2ouu,3xabxm4ak4i034slkfn2gjsp1ra8qu,3kopy89hmcfz34gw4adzhl4ju1t3j3,gDGv2ouu,2020-0188,2020-06-04,11:32:21,12:02:06,NA,incomplete,95,number,1,1,left,Red_Star_Chess_3.jpg,Purple_Circle_Grid_3.jpg,Green_Star_Dots_1.jpg,right,738.4099999999162,false,high,false
gDGv2ouu,3xabxm4ak4i034slkfn2gjsp1ra8qu,3kopy89hmcfz34gw4adzhl4ju1t3j3,gDGv2ouu,2020-0188,2020-06-04,11:32:21,12:02:06,NA,incomplete,96,number,1,1,left,Green_Circle_Grid_4.jpg,Blue_Star_Dots_4.jpg,Red_Circle_Stripes_1.jpg,left,649.6299999998882,true,high,false
gDGv2ouu,3xabxm4ak4i034slkfn2gjsp1ra8qu,3kopy89hmcfz34gw4adzhl4ju1t3j3,gDGv2ouu,2020-0188,2020-06-04,11:32:21,12:02:06,NA,incomplete,97,number,1,1,left,Blue_Star_Chess_1.jpg,Green_Triangle_Dots_1.jpg,Purple_Star_Grid_2.jpg,left,755.7950000008568,true,high,false
gDGv2ouu,3xabxm4ak4i034slkfn2gjsp1ra8qu,3kopy89hmcfz34gw4adzhl4ju1t3j3,gDGv2ouu,2020-0188,2020-06-04,11:32:21,12:02:06,NA,incomplete,98,number,1,1,right,Red_Star_Grid_1.jpg,Green_Star_Chess_3.jpg,Blue_Plus_Dots_1.jpg,right,1000.8099999995902,true,high,false
gDGv2ouu,3xabxm4ak4i034slkfn2gjsp1ra8qu,3kopy89hmcfz34gw4adzhl4ju1t3j3,gDGv2ouu,2020-0188,2020-06-04,11:32:21,12:02:06,NA,incomplete,99,number,1,1,right,Purple_Triangle_Chess_2.jpg,Blue_Triangle_Stripes_3.jpg,Green_Star_Dots_2.jpg,right,707.0550000008661,true,high,false
gDGv2ouu,3xabxm4ak4i034slkfn2gjsp1ra8qu,3kopy89hmcfz34gw4adzhl4ju1t3j3,gDGv2ouu,2020-0188,2020-06-04,11:32:21,12:02:06,NA,incomplete,100,shape,0,0,right,Blue_Plus_Dots_3.jpg,Purple_Star_Chess_3.jpg,Red_Plus_Stripes_4.jpg,left,1203.0950000006706,false,high,false
gDGv2ouu,3xabxm4ak4i034slkfn2gjsp1ra8qu,3kopy89hmcfz34gw4adzhl4ju1t3j3,gDGv2ouu,2020-0188,2020-06-04,11:32:21,12:02:06,NA,incomplete,101,shape,0,1,left,Red_Plus_Grid_2.jpg,Purple_Plus_Chess_1.jpg,Green_Star_Stripes_2.jpg,left,527.0400000009686,true,high,false
gDGv2ouu,3xabxm4ak4i034slkfn2gjsp1ra8qu,3kopy89hmcfz34gw4adzhl4ju1t3j3,gDGv2ouu,2020-0188,2020-06-04,11:32:21,12:02:06,NA,incomplete,102,shape,0,1,left,Green_Triangle_Stripes_1.jpg,Purple_Triangle_Chess_4.jpg,Blue_Circle_Grid_1.jpg,right,830.3149999992456,false,high,false
gDGv2ouu,3xabxm4ak4i034slkfn2gjsp1ra8qu,3kopy89hmcfz34gw4adzhl4ju1t3j3,gDGv2ouu,2020-0188,2020-06-04,11:32:21,12:02:06,NA,incomplete,103,shape,0,1,left,Blue_Plus_Grid_4.jpg,Red_Plus_Dots_2.jpg,Purple_Circle_Stripes_4.jpg,left,609.0650000006426,true,high,false
gDGv2ouu,3xabxm4ak4i034slkfn2gjsp1ra8qu,3kopy89hmcfz34gw4adzhl4ju1t3j3,gDGv2ouu,2020-0188,2020-06-04,11:32:21,12:02:06,NA,incomplete,104,shape,0,1,right,Blue_Star_Stripes_2.jpg,Green_Triangle_Chess_2.jpg,Red_Star_Grid_4.jpg,right,788.9999999988358,true,high,false
gDGv2ouu,3xabxm4ak4i034slkfn2gjsp1ra8qu,3kopy89hmcfz34gw4adzhl4ju1t3j3,gDGv2ouu,2020-0188,2020-06-04,11:32:21,12:02:06,NA,incomplete,105,shape,0,1,left,Green_Circle_Dots_1.jpg,Purple_Circle_Stripes_2.jpg,Red_Plus_Chess_1.jpg,left,673.2599999997765,true,high,false
gDGv2ouu,3xabxm4ak4i034slkfn2gjsp1ra8qu,3kopy89hmcfz34gw4adzhl4ju1t3j3,gDGv2ouu,2020-0188,2020-06-04,11:32:21,12:02:06,NA,incomplete,106,shape,0,1,left,Blue_Plus_Grid_3.jpg,Green_Plus_Stripes_4.jpg,Red_Circle_Chess_3.jpg,left,576.930000001099,true,high,false
gDGv2ouu,3xabxm4ak4i034slkfn2gjsp1ra8qu,3kopy89hmcfz34gw4adzhl4ju1t3j3,gDGv2ouu,2020-0188,2020-06-04,11:32:21,12:02:06,NA,incomplete,107,shape,0,1,right,Blue_Triangle_Chess_2.jpg,Red_Plus_Dots_2.jpg,Purple_Triangle_Grid_3.jpg,right,701.774999999674,true,high,false
gDGv2ouu,3xabxm4ak4i034slkfn2gjsp1ra8qu,3kopy89hmcfz34gw4adzhl4ju1t3j3,gDGv2ouu,2020-0188,2020-06-04,11:32:21,12:02:06,NA,incomplete,108,shape,0,0,left,Purple_Triangle_Chess_1.jpg,Blue_Triangle_Stripes_3.jpg,Red_Circle_Grid_1.jpg,left,517.2800000000279,true,high,false
gDGv2ouu,3xabxm4ak4i034slkfn2gjsp1ra8qu,3kopy89hmcfz34gw4adzhl4ju1t3j3,gDGv2ouu,2020-0188,2020-06-04,11:32:21,12:02:06,NA,incomplete,109,shape,0,1,right,Purple_Plus_Stripes_2.jpg,Green_Circle_Chess_2.jpg,Red_Plus_Dots_3.jpg,right,620.9699999999721,true,high,false
gDGv2ouu,3xabxm4ak4i034slkfn2gjsp1ra8qu,3kopy89hmcfz34gw4adzhl4ju1t3j3,gDGv2ouu,2020-0188,2020-06-04,11:32:21,12:02:06,NA,incomplete,110,number,1,1,left,Blue_Triangle_Grid_4.jpg,Green_Circle_Stripes_4.jpg,Red_Triangle_Chess_1.jpg,right,590.7750000006054,false,high,false
gDGv2ouu,3xabxm4ak4i034slkfn2gjsp1ra8qu,3kopy89hmcfz34gw4adzhl4ju1t3j3,gDGv2ouu,2020-0188,2020-06-04,11:32:21,12:02:06,NA,incomplete,111,number,1,1,left,Red_Circle_Dots_1.jpg,Blue_Triangle_Grid_1.jpg,Green_Circle_Stripes_3.jpg,right,571.7700000004843,false,high,false
gDGv2ouu,3xabxm4ak4i034slkfn2gjsp1ra8qu,3kopy89hmcfz34gw4adzhl4ju1t3j3,gDGv2ouu,2020-0188,2020-06-04,11:32:21,12:02:06,NA,incomplete,112,number,1,1,left,Red_Triangle_Stripes_3.jpg,Green_Plus_Chess_3.jpg,Purple_Triangle_Dots_1.jpg,right,713.1049999988172,false,high,false
gDGv2ouu,3xabxm4ak4i034slkfn2gjsp1ra8qu,3kopy89hmcfz34gw4adzhl4ju1t3j3,gDGv2ouu,2020-0188,2020-06-04,11:32:21,12:02:06,NA,incomplete,113,number,1,0,right,Blue_Star_Chess_3.jpg,Red_Star_Grid_1.jpg,Purple_Circle_Stripes_3.jpg,left,567.7849999992177,false,high,false
gDGv2ouu,3xabxm4ak4i034slkfn2gjsp1ra8qu,3kopy89hmcfz34gw4adzhl4ju1t3j3,gDGv2ouu,2020-0188,2020-06-04,11:32:21,12:02:06,NA,incomplete,114,number,1,1,left,Purple_Triangle_Stripes_3.jpg,Blue_Plus_Grid_3.jpg,Red_Triangle_Dots_2.jpg,left,757.740000000922,true,high,false
gDGv2ouu,3xabxm4ak4i034slkfn2gjsp1ra8qu,3kopy89hmcfz34gw4adzhl4ju1t3j3,gDGv2ouu,2020-0188,2020-06-04,11:32:21,12:02:06,NA,incomplete,115,number,1,1,left,Red_Triangle_Chess_2.jpg,Purple_Circle_Grid_2.jpg,Green_Triangle_Dots_1.jpg,left,681.9549999998417,true,high,false
gDGv2ouu,3xabxm4ak4i034slkfn2gjsp1ra8qu,3kopy89hmcfz34gw4adzhl4ju1t3j3,gDGv2ouu,2020-0188,2020-06-04,11:32:21,12:02:06,NA,incomplete,116,number,1,1,left,Green_Plus_Dots_4.jpg,Blue_Star_Chess_4.jpg,Red_Plus_Grid_2.jpg,left,715.3300000010058,true,high,false
gDGv2ouu,3xabxm4ak4i034slkfn2gjsp1ra8qu,3kopy89hmcfz34gw4adzhl4ju1t3j3,gDGv2ouu,2020-0188,2020-06-04,11:32:21,12:02:06,NA,incomplete,117,number,1,1,right,Blue_Plus_Dots_3.jpg,Green_Plus_Chess_4.jpg,Red_Circle_Stripes_3.jpg,right,1282.4799999997485,true,high,false
gDGv2ouu,3xabxm4ak4i034slkfn2gjsp1ra8qu,3kopy89hmcfz34gw4adzhl4ju1t3j3,gDGv2ouu,2020-0188,2020-06-04,11:32:21,12:02:06,NA,incomplete,118,number,1,1,left,Blue_Star_Dots_4.jpg,Purple_Plus_Chess_4.jpg,Red_Star_Stripes_2.jpg,left,586.7749999999069,true,high,false
gDGv2ouu,3xabxm4ak4i034slkfn2gjsp1ra8qu,3kopy89hmcfz34gw4adzhl4ju1t3j3,gDGv2ouu,2020-0188,2020-06-04,11:32:21,12:02:06,NA,incomplete,119,number,1,1,right,Blue_Plus_Grid_2.jpg,Red_Plus_Stripes_1.jpg,Purple_Triangle_Dots_2.jpg,right,742.9049999993294,true,high,false
gDGv2ouu,3xabxm4ak4i034slkfn2gjsp1ra8qu,3kopy89hmcfz34gw4adzhl4ju1t3j3,gDGv2ouu,2020-0188,2020-06-04,11:32:21,12:02:06,NA,incomplete,120,gender,2,1,left,C_M_04.jpg,A_M_14.jpg,C_F_03.jpg,NA,NA,NA,high,false
gDGv2ouu,3xabxm4ak4i034slkfn2gjsp1ra8qu,3kopy89hmcfz34gw4adzhl4ju1t3j3,gDGv2ouu,2020-0188,2020-06-04,11:32:21,12:02:06,NA,incomplete,121,gender,2,0,left,A_F_13.jpg,C_F_03.jpg,A_M_12.jpg,right,1171.0000000002328,false,high,false
gDGv2ouu,3xabxm4ak4i034slkfn2gjsp1ra8qu,3kopy89hmcfz34gw4adzhl4ju1t3j3,gDGv2ouu,2020-0188,2020-06-04,11:32:21,12:02:06,NA,incomplete,122,gender,2,1,right,C_M_10.jpg,C_F_08.jpg,A_M_16.jpg,left,862.9200000013225,false,high,false
gDGv2ouu,3xabxm4ak4i034slkfn2gjsp1ra8qu,3kopy89hmcfz34gw4adzhl4ju1t3j3,gDGv2ouu,2020-0188,2020-06-04,11:32:21,12:02:06,NA,incomplete,123,gender,2,1,right,C_F_13.jpg,C_M_03.jpg,A_F_12.jpg,left,856.2949999994598,false,high,false
gDGv2ouu,3xabxm4ak4i034slkfn2gjsp1ra8qu,3kopy89hmcfz34gw4adzhl4ju1t3j3,gDGv2ouu,2020-0188,2020-06-04,11:32:21,12:02:06,NA,incomplete,124,gender,2,1,left,C_F_05.jpg,A_F_01.jpg,C_M_15.jpg,left,1385.6849999991246,true,high,false
gDGv2ouu,3xabxm4ak4i034slkfn2gjsp1ra8qu,3kopy89hmcfz34gw4adzhl4ju1t3j3,gDGv2ouu,2020-0188,2020-06-04,11:32:21,12:02:06,NA,incomplete,125,gender,2,1,left,C_M_06.jpg,A_M_09.jpg,C_F_02.jpg,left,590.0500000007451,true,high,false
gDGv2ouu,3xabxm4ak4i034slkfn2gjsp1ra8qu,3kopy89hmcfz34gw4adzhl4ju1t3j3,gDGv2ouu,2020-0188,2020-06-04,11:32:21,12:02:06,NA,incomplete,126,gender,2,1,right,A_M_08.jpg,A_F_06.jpg,C_M_15.jpg,left,481.97499999869615,false,high,false
gDGv2ouu,3xabxm4ak4i034slkfn2gjsp1ra8qu,3kopy89hmcfz34gw4adzhl4ju1t3j3,gDGv2ouu,2020-0188,2020-06-04,11:32:21,12:02:06,NA,incomplete,127,gender,2,1,right,A_F_09.jpg,A_M_08.jpg,C_F_12.jpg,right,707.2600000009406,true,high,false
gDGv2ouu,3xabxm4ak4i034slkfn2gjsp1ra8qu,3kopy89hmcfz34gw4adzhl4ju1t3j3,gDGv2ouu,2020-0188,2020-06-04,11:32:21,12:02:06,NA,incomplete,128,gender,2,1,right,A_M_02.jpg,A_F_16.jpg,C_M_13.jpg,right,802.8650000013877,true,high,false
gDGv2ouu,3xabxm4ak4i034slkfn2gjsp1ra8qu,3kopy89hmcfz34gw4adzhl4ju1t3j3,gDGv2ouu,2020-0188,2020-06-04,11:32:21,12:02:06,NA,incomplete,129,gender,2,1,right,A_F_14.jpg,A_M_11.jpg,C_F_07.jpg,right,758.3299999986775,true,high,false
gDGv2ouu,3xabxm4ak4i034slkfn2gjsp1ra8qu,3kopy89hmcfz34gw4adzhl4ju1t3j3,gDGv2ouu,2020-0188,2020-06-04,11:32:21,12:02:06,NA,incomplete,130,gender,2,0,right,A_M_16.jpg,A_F_02.jpg,C_M_14.jpg,left,779.8150000018068,false,high,false
gDGv2ouu,3xabxm4ak4i034slkfn2gjsp1ra8qu,3kopy89hmcfz34gw4adzhl4ju1t3j3,gDGv2ouu,2020-0188,2020-06-04,11:32:21,12:02:06,NA,incomplete,131,gender,2,1,left,C_M_16.jpg,A_M_06.jpg,C_F_03.jpg,left,680.1800000013318,true,high,false
gDGv2ouu,3xabxm4ak4i034slkfn2gjsp1ra8qu,3kopy89hmcfz34gw4adzhl4ju1t3j3,gDGv2ouu,2020-0188,2020-06-04,11:32:21,12:02:06,NA,incomplete,132,gender,2,1,right,A_M_06.jpg,A_F_12.jpg,C_M_14.jpg,right,816.8799999984913,true,high,false
gDGv2ouu,3xabxm4ak4i034slkfn2gjsp1ra8qu,3kopy89hmcfz34gw4adzhl4ju1t3j3,gDGv2ouu,2020-0188,2020-06-04,11:32:21,12:02:06,NA,incomplete,133,gender,2,1,left,C_M_08.jpg,A_M_06.jpg,C_F_16.jpg,left,556.4600000015926,true,high,false
gDGv2ouu,3xabxm4ak4i034slkfn2gjsp1ra8qu,3kopy89hmcfz34gw4adzhl4ju1t3j3,gDGv2ouu,2020-0188,2020-06-04,11:32:21,12:02:06,NA,incomplete,134,gender,2,0,left,C_F_10.jpg,A_F_12.jpg,C_M_06.jpg,left,768.7299999997485,true,high,false
gDGv2ouu,3xabxm4ak4i034slkfn2gjsp1ra8qu,3kopy89hmcfz34gw4adzhl4ju1t3j3,gDGv2ouu,2020-0188,2020-06-04,11:32:21,12:02:06,NA,incomplete,135,gender,2,1,right,A_M_04.jpg,A_F_11.jpg,C_M_08.jpg,right,845.3300000000745,true,high,false
gDGv2ouu,3xabxm4ak4i034slkfn2gjsp1ra8qu,3kopy89hmcfz34gw4adzhl4ju1t3j3,gDGv2ouu,2020-0188,2020-06-04,11:32:21,12:02:06,NA,incomplete,136,gender,2,1,left,C_F_11.jpg,A_F_02.jpg,C_M_12.jpg,left,616.4699999990407,true,high,false
gDGv2ouu,3xabxm4ak4i034slkfn2gjsp1ra8qu,3kopy89hmcfz34gw4adzhl4ju1t3j3,gDGv2ouu,2020-0188,2020-06-04,11:32:21,12:02:06,NA,incomplete,137,gender,2,1,right,A_F_03.jpg,A_M_11.jpg,C_F_13.jpg,right,1108.1000000012573,true,high,false
gDGv2ouu,3xabxm4ak4i034slkfn2gjsp1ra8qu,3kopy89hmcfz34gw4adzhl4ju1t3j3,gDGv2ouu,2020-0188,2020-06-04,11:32:21,12:02:06,NA,incomplete,138,gender,2,1,right,A_F_10.jpg,A_M_02.jpg,C_F_12.jpg,right,642.0450000003912,true,high,false
gDGv2ouu,3xabxm4ak4i034slkfn2gjsp1ra8qu,3kopy89hmcfz34gw4adzhl4ju1t3j3,gDGv2ouu,2020-0188,2020-06-04,11:32:21,12:02:06,NA,incomplete,139,gender,2,0,right,C_M_09.jpg,C_F_13.jpg,A_M_12.jpg,right,901.1849999988917,true,high,false
gDGv2ouu,3xabxm4ak4i034slkfn2gjsp1ra8qu,3kopy89hmcfz34gw4adzhl4ju1t3j3,gDGv2ouu,2020-0188,2020-06-04,11:32:21,12:02:06,NA,incomplete,140,race,3,1,left,C_F_01.jpg,C_M_12.jpg,A_F_11.jpg,right,1180.8999999994412,false,high,false
gDGv2ouu,3xabxm4ak4i034slkfn2gjsp1ra8qu,3kopy89hmcfz34gw4adzhl4ju1t3j3,gDGv2ouu,2020-0188,2020-06-04,11:32:21,12:02:06,NA,incomplete,141,race,3,0,right,A_F_02.jpg,C_F_12.jpg,A_M_09.jpg,left,584.6750000000466,false,high,false
gDGv2ouu,3xabxm4ak4i034slkfn2gjsp1ra8qu,3kopy89hmcfz34gw4adzhl4ju1t3j3,gDGv2ouu,2020-0188,2020-06-04,11:32:21,12:02:06,NA,incomplete,142,race,3,1,right,A_F_07.jpg,C_F_15.jpg,A_M_05.jpg,left,733.4599999994971,false,high,false
gDGv2ouu,3xabxm4ak4i034slkfn2gjsp1ra8qu,3kopy89hmcfz34gw4adzhl4ju1t3j3,gDGv2ouu,2020-0188,2020-06-04,11:32:21,12:02:06,NA,incomplete,143,race,3,1,left,C_M_06.jpg,C_F_14.jpg,A_M_09.jpg,left,716.6849999993574,true,high,false
gDGv2ouu,3xabxm4ak4i034slkfn2gjsp1ra8qu,3kopy89hmcfz34gw4adzhl4ju1t3j3,gDGv2ouu,2020-0188,2020-06-04,11:32:21,12:02:06,NA,incomplete,144,race,3,1,right,C_M_10.jpg,A_M_14.jpg,C_F_05.jpg,right,755.5949999985751,true,high,false
gDGv2ouu,3xabxm4ak4i034slkfn2gjsp1ra8qu,3kopy89hmcfz34gw4adzhl4ju1t3j3,gDGv2ouu,2020-0188,2020-06-04,11:32:21,12:02:06,NA,incomplete,145,race,3,1,right,A_M_08.jpg,C_M_10.jpg,A_F_09.jpg,right,839.9499999994878,true,high,false
gDGv2ouu,3xabxm4ak4i034slkfn2gjsp1ra8qu,3kopy89hmcfz34gw4adzhl4ju1t3j3,gDGv2ouu,2020-0188,2020-06-04,11:32:21,12:02:06,NA,incomplete,146,race,3,1,right,A_F_04.jpg,C_F_12.jpg,A_M_15.jpg,right,747.2250000007916,true,high,false
gDGv2ouu,3xabxm4ak4i034slkfn2gjsp1ra8qu,3kopy89hmcfz34gw4adzhl4ju1t3j3,gDGv2ouu,2020-0188,2020-06-04,11:32:21,12:02:06,NA,incomplete,147,race,3,1,left,C_M_02.jpg,C_F_05.jpg,A_M_04.jpg,right,850.0300000014249,false,high,false
gDGv2ouu,3xabxm4ak4i034slkfn2gjsp1ra8qu,3kopy89hmcfz34gw4adzhl4ju1t3j3,gDGv2ouu,2020-0188,2020-06-04,11:32:21,12:02:06,NA,incomplete,148,race,3,0,right,A_M_13.jpg,C_M_05.jpg,A_F_07.jpg,right,1178.7600000007078,true,high,false
gDGv2ouu,3xabxm4ak4i034slkfn2gjsp1ra8qu,3kopy89hmcfz34gw4adzhl4ju1t3j3,gDGv2ouu,2020-0188,2020-06-04,11:32:21,12:02:06,NA,incomplete,149,race,3,1,left,C_M_01.jpg,C_F_10.jpg,A_M_08.jpg,left,897.2200000006706,true,high,false
gDGv2ouu,3xabxm4ak4i034slkfn2gjsp1ra8qu,3kopy89hmcfz34gw4adzhl4ju1t3j3,gDGv2ouu,2020-0188,2020-06-04,11:32:21,12:02:06,NA,incomplete,150,race,3,1,left,A_F_08.jpg,A_M_16.jpg,C_F_03.jpg,left,815.9300000006333,true,high,false
gDGv2ouu,3xabxm4ak4i034slkfn2gjsp1ra8qu,3kopy89hmcfz34gw4adzhl4ju1t3j3,gDGv2ouu,2020-0188,2020-06-04,11:32:21,12:02:06,NA,incomplete,151,race,3,0,left,A_F_06.jpg,A_M_16.jpg,C_F_01.jpg,left,892.169999999227,true,high,false
gDGv2ouu,3xabxm4ak4i034slkfn2gjsp1ra8qu,3kopy89hmcfz34gw4adzhl4ju1t3j3,gDGv2ouu,2020-0188,2020-06-04,11:32:21,12:02:06,NA,incomplete,152,race,3,1,left,A_M_02.jpg,A_F_11.jpg,C_M_04.jpg,left,899.294999999227,true,high,false
gDGv2ouu,3xabxm4ak4i034slkfn2gjsp1ra8qu,3kopy89hmcfz34gw4adzhl4ju1t3j3,gDGv2ouu,2020-0188,2020-06-04,11:32:21,12:02:06,NA,incomplete,153,race,3,0,left,A_F_05.jpg,A_M_16.jpg,C_F_11.jpg,left,1139.7500000002328,true,high,false
gDGv2ouu,3xabxm4ak4i034slkfn2gjsp1ra8qu,3kopy89hmcfz34gw4adzhl4ju1t3j3,gDGv2ouu,2020-0188,2020-06-04,11:32:21,12:02:06,NA,incomplete,154,race,3,1,right,A_F_03.jpg,C_F_16.jpg,A_M_10.jpg,left,746.1500000008382,false,high,false
gDGv2ouu,3xabxm4ak4i034slkfn2gjsp1ra8qu,3kopy89hmcfz34gw4adzhl4ju1t3j3,gDGv2ouu,2020-0188,2020-06-04,11:32:21,12:02:06,NA,incomplete,155,race,3,1,right,A_F_02.jpg,C_F_16.jpg,A_M_05.jpg,left,952.054999999702,false,high,false
gDGv2ouu,3xabxm4ak4i034slkfn2gjsp1ra8qu,3kopy89hmcfz34gw4adzhl4ju1t3j3,gDGv2ouu,2020-0188,2020-06-04,11:32:21,12:02:06,NA,incomplete,156,race,3,1,left,A_M_05.jpg,A_F_10.jpg,C_M_02.jpg,left,941.9550000003073,true,high,false
gDGv2ouu,3xabxm4ak4i034slkfn2gjsp1ra8qu,3kopy89hmcfz34gw4adzhl4ju1t3j3,gDGv2ouu,2020-0188,2020-06-04,11:32:21,12:02:06,NA,incomplete,157,race,3,1,right,C_M_12.jpg,A_M_09.jpg,C_F_13.jpg,right,875.6299999984913,true,high,false
gDGv2ouu,3xabxm4ak4i034slkfn2gjsp1ra8qu,3kopy89hmcfz34gw4adzhl4ju1t3j3,gDGv2ouu,2020-0188,2020-06-04,11:32:21,12:02:06,NA,incomplete,158,race,3,1,right,C_F_03.jpg,A_F_12.jpg,C_M_13.jpg,right,925.3050000006333,true,high,false
gDGv2ouu,3xabxm4ak4i034slkfn2gjsp1ra8qu,3kopy89hmcfz34gw4adzhl4ju1t3j3,gDGv2ouu,2020-0188,2020-06-04,11:32:21,12:02:06,NA,incomplete,159,race,3,1,left,A_M_10.jpg,A_F_15.jpg,C_M_01.jpg,left,1451.3050000006333,true,high,false
gDGv2ouu,3xabxm4ak4i034slkfn2gjsp1ra8qu,3kopy89hmcfz34gw4adzhl4ju1t3j3,gDGv2ouu,2020-0188,2020-06-04,11:32:21,12:02:06,NA,incomplete,160,gender,2,1,right,A_M_03.jpg,A_F_05.jpg,C_M_09.jpg,left,773.3300000000745,false,high,false
gDGv2ouu,3xabxm4ak4i034slkfn2gjsp1ra8qu,3kopy89hmcfz34gw4adzhl4ju1t3j3,gDGv2ouu,2020-0188,2020-06-04,11:32:21,12:02:06,NA,incomplete,161,gender,2,0,right,C_F_04.jpg,C_M_16.jpg,A_F_02.jpg,left,696.5049999998882,false,high,false
gDGv2ouu,3xabxm4ak4i034slkfn2gjsp1ra8qu,3kopy89hmcfz34gw4adzhl4ju1t3j3,gDGv2ouu,2020-0188,2020-06-04,11:32:21,12:02:06,NA,incomplete,162,gender,2,1,left,C_M_04.jpg,A_M_03.jpg,C_F_12.jpg,right,842.3899999998976,false,high,false
gDGv2ouu,3xabxm4ak4i034slkfn2gjsp1ra8qu,3kopy89hmcfz34gw4adzhl4ju1t3j3,gDGv2ouu,2020-0188,2020-06-04,11:32:21,12:02:06,NA,incomplete,163,gender,2,1,left,A_F_08.jpg,C_F_15.jpg,A_M_14.jpg,right,761.8800000001211,false,high,false
gDGv2ouu,3xabxm4ak4i034slkfn2gjsp1ra8qu,3kopy89hmcfz34gw4adzhl4ju1t3j3,gDGv2ouu,2020-0188,2020-06-04,11:32:21,12:02:06,NA,incomplete,164,gender,2,0,right,C_M_15.jpg,C_F_04.jpg,A_M_02.jpg,left,889.0949999985751,false,high,false
gDGv2ouu,3xabxm4ak4i034slkfn2gjsp1ra8qu,3kopy89hmcfz34gw4adzhl4ju1t3j3,gDGv2ouu,2020-0188,2020-06-04,11:32:21,12:02:06,NA,incomplete,165,gender,2,1,left,C_F_12.jpg,A_F_08.jpg,C_M_06.jpg,right,897.399999999674,false,high,false
gDGv2ouu,3xabxm4ak4i034slkfn2gjsp1ra8qu,3kopy89hmcfz34gw4adzhl4ju1t3j3,gDGv2ouu,2020-0188,2020-06-04,11:32:21,12:02:06,NA,incomplete,166,gender,2,0,right,C_F_15.jpg,C_M_03.jpg,A_F_08.jpg,right,951.6249999997672,true,high,false
gDGv2ouu,3xabxm4ak4i034slkfn2gjsp1ra8qu,3kopy89hmcfz34gw4adzhl4ju1t3j3,gDGv2ouu,2020-0188,2020-06-04,11:32:21,12:02:06,NA,incomplete,167,gender,2,1,right,A_M_10.jpg,A_F_08.jpg,C_M_12.jpg,right,1061.960000000894,true,high,false
gDGv2ouu,3xabxm4ak4i034slkfn2gjsp1ra8qu,3kopy89hmcfz34gw4adzhl4ju1t3j3,gDGv2ouu,2020-0188,2020-06-04,11:32:21,12:02:06,NA,incomplete,168,gender,2,1,left,A_F_11.jpg,C_F_06.jpg,A_M_03.jpg,left,910.3699999996461,true,high,false
gDGv2ouu,3xabxm4ak4i034slkfn2gjsp1ra8qu,3kopy89hmcfz34gw4adzhl4ju1t3j3,gDGv2ouu,2020-0188,2020-06-04,11:32:21,12:02:06,NA,incomplete,169,gender,2,1,left,A_F_14.jpg,C_F_13.jpg,A_M_10.jpg,left,672.114999999525,true,high,false
gDGv2ouu,3xabxm4ak4i034slkfn2gjsp1ra8qu,3kopy89hmcfz34gw4adzhl4ju1t3j3,gDGv2ouu,2020-0188,2020-06-04,11:32:21,12:02:06,NA,incomplete,170,gender,2,1,right,C_F_11.jpg,C_M_07.jpg,A_F_01.jpg,right,928.3749999995343,true,high,false
gDGv2ouu,3xabxm4ak4i034slkfn2gjsp1ra8qu,3kopy89hmcfz34gw4adzhl4ju1t3j3,gDGv2ouu,2020-0188,2020-06-04,11:32:21,12:02:06,NA,incomplete,171,gender,2,1,right,A_F_13.jpg,A_M_16.jpg,C_F_14.jpg,left,727.4300000008661,false,high,false
gDGv2ouu,3xabxm4ak4i034slkfn2gjsp1ra8qu,3kopy89hmcfz34gw4adzhl4ju1t3j3,gDGv2ouu,2020-0188,2020-06-04,11:32:21,12:02:06,NA,incomplete,172,gender,2,1,right,A_M_11.jpg,A_F_14.jpg,C_M_06.jpg,right,941.580000000773,true,high,false
gDGv2ouu,3xabxm4ak4i034slkfn2gjsp1ra8qu,3kopy89hmcfz34gw4adzhl4ju1t3j3,gDGv2ouu,2020-0188,2020-06-04,11:32:21,12:02:06,NA,incomplete,173,gender,2,1,left,C_M_04.jpg,A_M_06.jpg,C_F_05.jpg,left,764.7450000003446,true,high,false
gDGv2ouu,3xabxm4ak4i034slkfn2gjsp1ra8qu,3kopy89hmcfz34gw4adzhl4ju1t3j3,gDGv2ouu,2020-0188,2020-06-04,11:32:21,12:02:06,NA,incomplete,174,gender,2,1,right,C_F_09.jpg,C_M_07.jpg,A_F_05.jpg,right,778.0849999999627,true,high,false
gDGv2ouu,3xabxm4ak4i034slkfn2gjsp1ra8qu,3kopy89hmcfz34gw4adzhl4ju1t3j3,gDGv2ouu,2020-0188,2020-06-04,11:32:21,12:02:06,NA,incomplete,175,gender,2,1,left,C_F_05.jpg,A_F_08.jpg,C_M_11.jpg,right,941.919999999227,false,high,false
gDGv2ouu,3xabxm4ak4i034slkfn2gjsp1ra8qu,3kopy89hmcfz34gw4adzhl4ju1t3j3,gDGv2ouu,2020-0188,2020-06-04,11:32:21,12:02:06,NA,incomplete,176,gender,2,1,right,C_M_03.jpg,C_F_06.jpg,A_M_13.jpg,right,829.0799999996088,true,high,false
gDGv2ouu,3xabxm4ak4i034slkfn2gjsp1ra8qu,3kopy89hmcfz34gw4adzhl4ju1t3j3,gDGv2ouu,2020-0188,2020-06-04,11:32:21,12:02:06,NA,incomplete,177,gender,2,1,left,A_F_04.jpg,C_F_06.jpg,A_M_09.jpg,left,750.8349999990314,true,high,false
gDGv2ouu,3xabxm4ak4i034slkfn2gjsp1ra8qu,3kopy89hmcfz34gw4adzhl4ju1t3j3,gDGv2ouu,2020-0188,2020-06-04,11:32:21,12:02:06,NA,incomplete,178,gender,2,0,right,C_M_09.jpg,C_F_07.jpg,A_M_08.jpg,left,933.6149999999907,false,high,false
gDGv2ouu,3xabxm4ak4i034slkfn2gjsp1ra8qu,3kopy89hmcfz34gw4adzhl4ju1t3j3,gDGv2ouu,2020-0188,2020-06-04,11:32:21,12:02:06,NA,incomplete,179,gender,2,1,left,C_F_09.jpg,A_F_02.jpg,C_M_13.jpg,right,851.8449999992736,false,high,false
gDGv2ouu,3xabxm4ak4i034slkfn2gjsp1ra8qu,3kopy89hmcfz34gw4adzhl4ju1t3j3,gDGv2ouu,2020-0188,2020-06-04,11:32:21,12:02:06,NA,incomplete,180,race,3,1,left,A_M_07.jpg,A_F_11.jpg,C_M_16.jpg,right,885.2200000002049,false,high,false
gDGv2ouu,3xabxm4ak4i034slkfn2gjsp1ra8qu,3kopy89hmcfz34gw4adzhl4ju1t3j3,gDGv2ouu,2020-0188,2020-06-04,11:32:21,12:02:06,NA,incomplete,181,race,3,1,left,C_F_04.jpg,C_M_08.jpg,A_F_07.jpg,right,853.7550000001211,false,high,false
gDGv2ouu,3xabxm4ak4i034slkfn2gjsp1ra8qu,3kopy89hmcfz34gw4adzhl4ju1t3j3,gDGv2ouu,2020-0188,2020-06-04,11:32:21,12:02:06,NA,incomplete,182,race,3,1,right,A_F_12.jpg,C_F_02.jpg,A_M_06.jpg,left,606.8949999990873,false,high,false
gDGv2ouu,3xabxm4ak4i034slkfn2gjsp1ra8qu,3kopy89hmcfz34gw4adzhl4ju1t3j3,gDGv2ouu,2020-0188,2020-06-04,11:32:21,12:02:06,NA,incomplete,183,race,3,1,right,A_F_13.jpg,C_F_15.jpg,A_M_09.jpg,right,697.635000000475,true,high,false
gDGv2ouu,3xabxm4ak4i034slkfn2gjsp1ra8qu,3kopy89hmcfz34gw4adzhl4ju1t3j3,gDGv2ouu,2020-0188,2020-06-04,11:32:21,12:02:06,NA,incomplete,184,race,3,1,right,C_F_13.jpg,A_F_15.jpg,C_M_16.jpg,right,801.7999999991152,true,high,false
gDGv2ouu,3xabxm4ak4i034slkfn2gjsp1ra8qu,3kopy89hmcfz34gw4adzhl4ju1t3j3,gDGv2ouu,2020-0188,2020-06-04,11:32:21,12:02:06,NA,incomplete,185,race,3,0,left,A_F_02.jpg,A_M_06.jpg,C_F_07.jpg,left,717.4549999998417,true,high,false
gDGv2ouu,3xabxm4ak4i034slkfn2gjsp1ra8qu,3kopy89hmcfz34gw4adzhl4ju1t3j3,gDGv2ouu,2020-0188,2020-06-04,11:32:21,12:02:06,NA,incomplete,186,race,3,1,left,C_F_10.jpg,C_M_02.jpg,A_F_15.jpg,left,772.5449999999255,true,high,false
gDGv2ouu,3xabxm4ak4i034slkfn2gjsp1ra8qu,3kopy89hmcfz34gw4adzhl4ju1t3j3,gDGv2ouu,2020-0188,2020-06-04,11:32:21,12:02:06,NA,incomplete,187,race,3,1,right,C_M_07.jpg,A_M_02.jpg,C_F_04.jpg,right,745.7450000003446,true,high,false
gDGv2ouu,3xabxm4ak4i034slkfn2gjsp1ra8qu,3kopy89hmcfz34gw4adzhl4ju1t3j3,gDGv2ouu,2020-0188,2020-06-04,11:32:21,12:02:06,NA,incomplete,188,race,3,0,right,A_M_09.jpg,C_M_08.jpg,A_F_03.jpg,right,847.5899999993853,true,high,false
gDGv2ouu,3xabxm4ak4i034slkfn2gjsp1ra8qu,3kopy89hmcfz34gw4adzhl4ju1t3j3,gDGv2ouu,2020-0188,2020-06-04,11:32:21,12:02:06,NA,incomplete,189,race,3,1,right,C_M_08.jpg,A_M_14.jpg,C_F_05.jpg,right,738.2699999997858,true,high,false
gDGv2ouu,3xabxm4ak4i034slkfn2gjsp1ra8qu,3kopy89hmcfz34gw4adzhl4ju1t3j3,gDGv2ouu,2020-0188,2020-06-04,11:32:21,12:02:06,NA,incomplete,190,race,3,0,left,C_M_04.jpg,C_F_11.jpg,A_M_13.jpg,left,872.2400000004563,true,high,false
gDGv2ouu,3xabxm4ak4i034slkfn2gjsp1ra8qu,3kopy89hmcfz34gw4adzhl4ju1t3j3,gDGv2ouu,2020-0188,2020-06-04,11:32:21,12:02:06,NA,incomplete,191,race,3,1,right,C_F_04.jpg,A_F_03.jpg,C_M_13.jpg,right,744.6549999983981,true,high,false
gDGv2ouu,3xabxm4ak4i034slkfn2gjsp1ra8qu,3kopy89hmcfz34gw4adzhl4ju1t3j3,gDGv2ouu,2020-0188,2020-06-04,11:32:21,12:02:06,NA,incomplete,192,race,3,1,left,C_F_12.jpg,C_M_01.jpg,A_F_10.jpg,left,614.8899999987334,true,high,false
gDGv2ouu,3xabxm4ak4i034slkfn2gjsp1ra8qu,3kopy89hmcfz34gw4adzhl4ju1t3j3,gDGv2ouu,2020-0188,2020-06-04,11:32:21,12:02:06,NA,incomplete,193,race,3,0,left,A_F_02.jpg,A_M_06.jpg,C_F_05.jpg,left,890.6549999993294,true,high,false
gDGv2ouu,3xabxm4ak4i034slkfn2gjsp1ra8qu,3kopy89hmcfz34gw4adzhl4ju1t3j3,gDGv2ouu,2020-0188,2020-06-04,11:32:21,12:02:06,NA,incomplete,194,race,3,1,left,A_M_08.jpg,A_F_13.jpg,C_M_16.jpg,left,706.8300000010058,true,high,false
gDGv2ouu,3xabxm4ak4i034slkfn2gjsp1ra8qu,3kopy89hmcfz34gw4adzhl4ju1t3j3,gDGv2ouu,2020-0188,2020-06-04,11:32:21,12:02:06,NA,incomplete,195,race,3,1,left,C_M_03.jpg,C_F_13.jpg,A_M_02.jpg,left,785.3699999996461,true,high,false
gDGv2ouu,3xabxm4ak4i034slkfn2gjsp1ra8qu,3kopy89hmcfz34gw4adzhl4ju1t3j3,gDGv2ouu,2020-0188,2020-06-04,11:32:21,12:02:06,NA,incomplete,196,race,3,1,left,C_F_15.jpg,C_M_06.jpg,A_F_04.jpg,left,1014.4750000000931,true,high,false
gDGv2ouu,3xabxm4ak4i034slkfn2gjsp1ra8qu,3kopy89hmcfz34gw4adzhl4ju1t3j3,gDGv2ouu,2020-0188,2020-06-04,11:32:21,12:02:06,NA,incomplete,197,race,3,0,left,A_F_16.jpg,A_M_07.jpg,C_F_10.jpg,left,905.1500000006054,true,high,false
gDGv2ouu,3xabxm4ak4i034slkfn2gjsp1ra8qu,3kopy89hmcfz34gw4adzhl4ju1t3j3,gDGv2ouu,2020-0188,2020-06-04,11:32:21,12:02:06,NA,incomplete,198,race,3,1,left,C_M_03.jpg,C_F_16.jpg,A_M_10.jpg,left,904.9499999983236,true,high,false
gDGv2ouu,3xabxm4ak4i034slkfn2gjsp1ra8qu,3kopy89hmcfz34gw4adzhl4ju1t3j3,gDGv2ouu,2020-0188,2020-06-04,11:32:21,12:02:06,NA,incomplete,199,race,3,1,left,A_F_03.jpg,A_M_08.jpg,C_F_06.jpg,left,839.9750000007916,true,high,false
gDGv2ouu,3xabxm4ak4i034slkfn2gjsp1ra8qu,3kopy89hmcfz34gw4adzhl4ju1t3j3,gDGv2ouu,2020-0188,2020-06-04,11:32:21,12:02:06,NA,incomplete,200,gender,2,1,right,C_M_04.jpg,C_F_01.jpg,A_M_12.jpg,left,818.0699999993667,false,high,false
gDGv2ouu,3xabxm4ak4i034slkfn2gjsp1ra8qu,3kopy89hmcfz34gw4adzhl4ju1t3j3,gDGv2ouu,2020-0188,2020-06-04,11:32:21,12:02:06,NA,incomplete,201,gender,2,1,left,C_M_05.jpg,A_M_07.jpg,C_F_11.jpg,left,603.1600000006147,true,high,false
gDGv2ouu,3xabxm4ak4i034slkfn2gjsp1ra8qu,3kopy89hmcfz34gw4adzhl4ju1t3j3,gDGv2ouu,2020-0188,2020-06-04,11:32:21,12:02:06,NA,incomplete,202,gender,2,1,right,C_F_06.jpg,C_M_16.jpg,A_F_04.jpg,left,751.8950000011828,false,high,false
gDGv2ouu,3xabxm4ak4i034slkfn2gjsp1ra8qu,3kopy89hmcfz34gw4adzhl4ju1t3j3,gDGv2ouu,2020-0188,2020-06-04,11:32:21,12:02:06,NA,incomplete,203,gender,2,1,left,A_M_16.jpg,C_M_01.jpg,A_F_06.jpg,right,766.4199999999255,false,high,false
gDGv2ouu,3xabxm4ak4i034slkfn2gjsp1ra8qu,3kopy89hmcfz34gw4adzhl4ju1t3j3,gDGv2ouu,2020-0188,2020-06-04,11:32:21,12:02:06,NA,incomplete,204,gender,2,0,right,A_M_02.jpg,A_F_11.jpg,C_M_12.jpg,left,628.2500000016298,false,high,false
gDGv2ouu,3xabxm4ak4i034slkfn2gjsp1ra8qu,3kopy89hmcfz34gw4adzhl4ju1t3j3,gDGv2ouu,2020-0188,2020-06-04,11:32:21,12:02:06,NA,incomplete,205,gender,2,1,left,A_M_10.jpg,C_M_14.jpg,A_F_16.jpg,left,1342.4099999992177,true,high,false
gDGv2ouu,3xabxm4ak4i034slkfn2gjsp1ra8qu,3kopy89hmcfz34gw4adzhl4ju1t3j3,gDGv2ouu,2020-0188,2020-06-04,11:32:21,12:02:06,NA,incomplete,206,gender,2,1,right,C_F_11.jpg,C_M_07.jpg,A_F_06.jpg,left,940.440000000177,false,high,false
gDGv2ouu,3xabxm4ak4i034slkfn2gjsp1ra8qu,3kopy89hmcfz34gw4adzhl4ju1t3j3,gDGv2ouu,2020-0188,2020-06-04,11:32:21,12:02:06,NA,incomplete,207,gender,2,1,left,A_F_11.jpg,C_F_03.jpg,A_M_04.jpg,right,1122.209999999497,false,high,false
gDGv2ouu,3xabxm4ak4i034slkfn2gjsp1ra8qu,3kopy89hmcfz34gw4adzhl4ju1t3j3,gDGv2ouu,2020-0188,2020-06-04,11:32:21,12:02:06,NA,incomplete,208,gender,2,1,left,A_F_10.jpg,C_F_09.jpg,A_M_01.jpg,left,760.5199999997858,true,high,false
gDGv2ouu,3xabxm4ak4i034slkfn2gjsp1ra8qu,3kopy89hmcfz34gw4adzhl4ju1t3j3,gDGv2ouu,2020-0188,2020-06-04,11:32:21,12:02:06,NA,incomplete,209,gender,2,0,right,A_F_05.jpg,A_M_13.jpg,C_F_02.jpg,left,734.3200000014622,false,high,false
gDGv2ouu,3xabxm4ak4i034slkfn2gjsp1ra8qu,3kopy89hmcfz34gw4adzhl4ju1t3j3,gDGv2ouu,2020-0188,2020-06-04,11:32:21,12:02:06,NA,incomplete,210,gender,2,1,left,C_M_14.jpg,A_M_02.jpg,C_F_15.jpg,left,837.0450000001583,true,high,false
gDGv2ouu,3xabxm4ak4i034slkfn2gjsp1ra8qu,3kopy89hmcfz34gw4adzhl4ju1t3j3,gDGv2ouu,2020-0188,2020-06-04,11:32:21,12:02:06,NA,incomplete,211,gender,2,1,left,C_M_14.jpg,A_M_01.jpg,C_F_05.jpg,left,734.4099999989849,true,high,false
gDGv2ouu,3xabxm4ak4i034slkfn2gjsp1ra8qu,3kopy89hmcfz34gw4adzhl4ju1t3j3,gDGv2ouu,2020-0188,2020-06-04,11:32:21,12:02:06,NA,incomplete,212,gender,2,1,right,A_M_07.jpg,A_F_08.jpg,C_M_04.jpg,right,867.3549999985844,true,high,false
gDGv2ouu,3xabxm4ak4i034slkfn2gjsp1ra8qu,3kopy89hmcfz34gw4adzhl4ju1t3j3,gDGv2ouu,2020-0188,2020-06-04,11:32:21,12:02:06,NA,incomplete,213,gender,2,1,left,C_M_05.jpg,A_M_16.jpg,C_F_08.jpg,left,750.5399999991059,true,high,false
gDGv2ouu,3xabxm4ak4i034slkfn2gjsp1ra8qu,3kopy89hmcfz34gw4adzhl4ju1t3j3,gDGv2ouu,2020-0188,2020-06-04,11:32:21,12:02:06,NA,incomplete,214,gender,2,0,right,C_F_01.jpg,C_M_08.jpg,A_F_04.jpg,right,884.214999999851,true,high,false
gDGv2ouu,3xabxm4ak4i034slkfn2gjsp1ra8qu,3kopy89hmcfz34gw4adzhl4ju1t3j3,gDGv2ouu,2020-0188,2020-06-04,11:32:21,12:02:06,NA,incomplete,215,gender,2,1,left,C_F_10.jpg,A_F_11.jpg,C_M_16.jpg,left,803.8450000004377,true,high,false
gDGv2ouu,3xabxm4ak4i034slkfn2gjsp1ra8qu,3kopy89hmcfz34gw4adzhl4ju1t3j3,gDGv2ouu,2020-0188,2020-06-04,11:32:21,12:02:06,NA,incomplete,216,gender,2,1,left,C_F_04.jpg,A_F_06.jpg,C_M_11.jpg,left,1231.9900000002235,true,high,false
gDGv2ouu,3xabxm4ak4i034slkfn2gjsp1ra8qu,3kopy89hmcfz34gw4adzhl4ju1t3j3,gDGv2ouu,2020-0188,2020-06-04,11:32:21,12:02:06,NA,incomplete,217,gender,2,1,left,C_F_07.jpg,A_F_01.jpg,C_M_03.jpg,left,689.2399999997579,true,high,false
gDGv2ouu,3xabxm4ak4i034slkfn2gjsp1ra8qu,3kopy89hmcfz34gw4adzhl4ju1t3j3,gDGv2ouu,2020-0188,2020-06-04,11:32:21,12:02:06,NA,incomplete,218,gender,2,1,left,A_M_16.jpg,C_M_13.jpg,A_F_01.jpg,left,777.9249999984168,true,high,false
gDGv2ouu,3xabxm4ak4i034slkfn2gjsp1ra8qu,3kopy89hmcfz34gw4adzhl4ju1t3j3,gDGv2ouu,2020-0188,2020-06-04,11:32:21,12:02:06,NA,incomplete,219,gender,2,0,left,A_M_10.jpg,C_M_02.jpg,A_F_01.jpg,left,686.6599999992177,true,high,false
gDGv2ouu,3xabxm4ak4i034slkfn2gjsp1ra8qu,3kopy89hmcfz34gw4adzhl4ju1t3j3,gDGv2ouu,2020-0188,2020-06-04,11:32:21,12:02:06,NA,incomplete,220,race,3,1,right,A_M_11.jpg,C_M_05.jpg,A_F_14.jpg,left,679.589999999851,false,high,false
gDGv2ouu,3xabxm4ak4i034slkfn2gjsp1ra8qu,3kopy89hmcfz34gw4adzhl4ju1t3j3,gDGv2ouu,2020-0188,2020-06-04,11:32:21,12:02:06,NA,incomplete,221,race,3,1,right,A_M_02.jpg,C_M_03.jpg,A_F_06.jpg,left,648.2049999996088,false,high,false
gDGv2ouu,3xabxm4ak4i034slkfn2gjsp1ra8qu,3kopy89hmcfz34gw4adzhl4ju1t3j3,gDGv2ouu,2020-0188,2020-06-04,11:32:21,12:02:06,NA,incomplete,222,race,3,1,left,C_M_15.jpg,C_F_07.jpg,A_M_08.jpg,left,858.9199999987613,true,high,false
gDGv2ouu,3xabxm4ak4i034slkfn2gjsp1ra8qu,3kopy89hmcfz34gw4adzhl4ju1t3j3,gDGv2ouu,2020-0188,2020-06-04,11:32:21,12:02:06,NA,incomplete,223,race,3,1,left,A_M_16.jpg,A_F_01.jpg,C_M_09.jpg,left,995.9999999993015,true,high,false
gDGv2ouu,3xabxm4ak4i034slkfn2gjsp1ra8qu,3kopy89hmcfz34gw4adzhl4ju1t3j3,gDGv2ouu,2020-0188,2020-06-04,11:32:21,12:02:06,NA,incomplete,224,race,3,1,left,A_M_01.jpg,A_F_15.jpg,C_M_09.jpg,left,750.2949999996927,true,high,false
gDGv2ouu,3xabxm4ak4i034slkfn2gjsp1ra8qu,3kopy89hmcfz34gw4adzhl4ju1t3j3,gDGv2ouu,2020-0188,2020-06-04,11:32:21,12:02:06,NA,incomplete,225,race,3,1,right,A_F_07.jpg,C_F_12.jpg,A_M_11.jpg,right,893.4950000001118,true,high,false
gDGv2ouu,3xabxm4ak4i034slkfn2gjsp1ra8qu,3kopy89hmcfz34gw4adzhl4ju1t3j3,gDGv2ouu,2020-0188,2020-06-04,11:32:21,12:02:06,NA,incomplete,226,race,3,1,right,A_M_15.jpg,C_M_07.jpg,A_F_05.jpg,right,973.565000000177,true,high,false
gDGv2ouu,3xabxm4ak4i034slkfn2gjsp1ra8qu,3kopy89hmcfz34gw4adzhl4ju1t3j3,gDGv2ouu,2020-0188,2020-06-04,11:32:21,12:02:06,NA,incomplete,227,race,3,1,left,A_F_05.jpg,A_M_14.jpg,C_F_03.jpg,left,1418.5500000005122,true,high,false
gDGv2ouu,3xabxm4ak4i034slkfn2gjsp1ra8qu,3kopy89hmcfz34gw4adzhl4ju1t3j3,gDGv2ouu,2020-0188,2020-06-04,11:32:21,12:02:06,NA,incomplete,228,race,3,0,right,A_M_16.jpg,C_M_09.jpg,A_F_04.jpg,right,1084.75,true,high,false
gDGv2ouu,3xabxm4ak4i034slkfn2gjsp1ra8qu,3kopy89hmcfz34gw4adzhl4ju1t3j3,gDGv2ouu,2020-0188,2020-06-04,11:32:21,12:02:06,NA,incomplete,229,race,3,1,right,C_F_10.jpg,A_F_03.jpg,C_M_04.jpg,right,1181.1500000003725,true,high,false
gDGv2ouu,3xabxm4ak4i034slkfn2gjsp1ra8qu,3kopy89hmcfz34gw4adzhl4ju1t3j3,gDGv2ouu,2020-0188,2020-06-04,11:32:21,12:02:06,NA,incomplete,230,race,3,1,right,C_M_13.jpg,A_M_06.jpg,C_F_14.jpg,right,786.2449999994133,true,high,false
gDGv2ouu,3xabxm4ak4i034slkfn2gjsp1ra8qu,3kopy89hmcfz34gw4adzhl4ju1t3j3,gDGv2ouu,2020-0188,2020-06-04,11:32:21,12:02:06,NA,incomplete,231,race,3,0,left,C_M_02.jpg,C_F_01.jpg,A_M_06.jpg,left,798.1350000009406,true,high,false
gDGv2ouu,3xabxm4ak4i034slkfn2gjsp1ra8qu,3kopy89hmcfz34gw4adzhl4ju1t3j3,gDGv2ouu,2020-0188,2020-06-04,11:32:21,12:02:06,NA,incomplete,232,race,3,1,left,C_F_06.jpg,C_M_02.jpg,A_F_09.jpg,right,778.4699999992736,false,high,false
gDGv2ouu,3xabxm4ak4i034slkfn2gjsp1ra8qu,3kopy89hmcfz34gw4adzhl4ju1t3j3,gDGv2ouu,2020-0188,2020-06-04,11:32:21,12:02:06,NA,incomplete,233,race,3,1,left,A_F_10.jpg,A_M_03.jpg,C_F_04.jpg,left,1216.0100000000093,true,high,false
gDGv2ouu,3xabxm4ak4i034slkfn2gjsp1ra8qu,3kopy89hmcfz34gw4adzhl4ju1t3j3,gDGv2ouu,2020-0188,2020-06-04,11:32:21,12:02:06,NA,incomplete,234,race,3,1,left,A_F_12.jpg,A_M_01.jpg,C_F_04.jpg,left,825.4099999994505,true,high,false
gDGv2ouu,3xabxm4ak4i034slkfn2gjsp1ra8qu,3kopy89hmcfz34gw4adzhl4ju1t3j3,gDGv2ouu,2020-0188,2020-06-04,11:32:21,12:02:06,NA,incomplete,235,race,3,1,left,C_M_10.jpg,C_F_09.jpg,A_M_12.jpg,left,1165.8649999990594,true,high,false
gDGv2ouu,3xabxm4ak4i034slkfn2gjsp1ra8qu,3kopy89hmcfz34gw4adzhl4ju1t3j3,gDGv2ouu,2020-0188,2020-06-04,11:32:21,12:02:06,NA,incomplete,236,race,3,1,left,C_M_08.jpg,C_F_01.jpg,A_M_12.jpg,right,843.3449999992736,false,high,false
gDGv2ouu,3xabxm4ak4i034slkfn2gjsp1ra8qu,3kopy89hmcfz34gw4adzhl4ju1t3j3,gDGv2ouu,2020-0188,2020-06-04,11:32:21,12:02:06,NA,incomplete,237,race,3,1,right,A_M_08.jpg,C_M_04.jpg,A_F_13.jpg,right,925.0900000005495,true,high,false
gDGv2ouu,3xabxm4ak4i034slkfn2gjsp1ra8qu,3kopy89hmcfz34gw4adzhl4ju1t3j3,gDGv2ouu,2020-0188,2020-06-04,11:32:21,12:02:06,NA,incomplete,238,race,3,0,left,C_M_08.jpg,C_F_14.jpg,A_M_11.jpg,left,817.4949999991804,true,high,false
gDGv2ouu,3xabxm4ak4i034slkfn2gjsp1ra8qu,3kopy89hmcfz34gw4adzhl4ju1t3j3,gDGv2ouu,2020-0188,2020-06-04,11:32:21,12:02:06,NA,incomplete,239,race,3,1,right,C_M_05.jpg,A_M_14.jpg,C_F_13.jpg,right,790.4549999984447,true,high,false
gDGv2ouu,3xabxm4ak4i034slkfn2gjsp1ra8qu,3kopy89hmcfz34gw4adzhl4ju1t3j3,gDGv2ouu,2020-0188,2020-06-04,11:32:21,12:02:06,NA,NA,instruction example,shape,NA,NA,NA,Purple_Triangle_Chess_4.jpg,Green_Triangle_Dots_2.jpg,Red_Circle_Stripes_4.jpg,NA,NA,NA,NA,undefined
gDGv2ouu,3xabxm4ak4i034slkfn2gjsp1ra8qu,3kopy89hmcfz34gw4adzhl4ju1t3j3,gDGv2ouu,2020-0188,2020-06-04,11:32:21,12:02:06,NA,NA,instruction example,shape,NA,NA,NA,Red_Star_Grid_2.jpg,Purple_Triangle_Chess_2.jpg,Green_Star_Stripes_3.jpg,NA,NA,NA,NA,undefined
gDGv2ouu,3xabxm4ak4i034slkfn2gjsp1ra8qu,3kopy89hmcfz34gw4adzhl4ju1t3j3,gDGv2ouu,2020-0188,2020-06-04,11:32:21,12:02:06,NA,NA,instruction example,shape,NA,NA,NA,C_F_04.jpg,A_F_13.jpg,C_M_02.jpg,NA,NA,NA,NA,undefined
gDGv2ouu,3xabxm4ak4i034slkfn2gjsp1ra8qu,3kopy89hmcfz34gw4adzhl4ju1t3j3,gDGv2ouu,2020-0188,2020-06-04,11:32:21,12:02:06,NA,NA,instruction example,shape,NA,NA,NA,A_F_10.jpg,A_M_03.jpg,C_F_15.jpg,NA,NA,NA,NA,undefined
