workerId,hitId,assignmentId,subject,studyid,exp_date,exp_start,exp_end,time_start,time_end,trial,type,sequence,reward_validity,answer,image_top,image_left,image_right,response,response_time,response_acc,volatility,practice
6VtRFwQ9,3mdwe879vkfdd3966pwqlqs1zxrb9a,3lbxntkx0v8mdqa12ntaz7fk5t09x0,6VtRFwQ9,2020-0188,2020-06-04,13:16:34,13:45:39,NA,incomplete,0,shape,0,1,left,Blue_Plus_Stripes_4.jpg,Red_Plus_Grid_1.jpg,Purple_Star_Stripes_3.jpg,left,1541.315000038594,true,NA,true
6VtRFwQ9,3mdwe879vkfdd3966pwqlqs1zxrb9a,3lbxntkx0v8mdqa12ntaz7fk5t09x0,6VtRFwQ9,2020-0188,2020-06-04,13:16:34,13:45:39,NA,incomplete,1,shape,0,1,right,Green_Plus_Chess_3.jpg,Blue_Circle_Chess_2.jpg,Red_Plus_Stripes_4.jpg,right,1100.3849999979138,true,NA,true
6VtRFwQ9,3mdwe879vkfdd3966pwqlqs1zxrb9a,3lbxntkx0v8mdqa12ntaz7fk5t09x0,6VtRFwQ9,2020-0188,2020-06-04,13:16:34,13:45:39,NA,incomplete,2,shape,0,1,left,Blue_Plus_Dots_3.jpg,Purple_Plus_Stripes_4.jpg,Green_Star_Dots_1.jpg,left,863.7050000252202,true,NA,true
6VtRFwQ9,3mdwe879vkfdd3966pwqlqs1zxrb9a,3lbxntkx0v8mdqa12ntaz7fk5t09x0,6VtRFwQ9,2020-0188,2020-06-04,13:16:34,13:45:39,NA,incomplete,3,shape,0,0,right,Blue_Plus_Grid_1.jpg,Red_Star_Grid_2.jpg,Green_Plus_Stripes_3.jpg,right,1051.9449999555945,true,NA,true
6VtRFwQ9,3mdwe879vkfdd3966pwqlqs1zxrb9a,3lbxntkx0v8mdqa12ntaz7fk5t09x0,6VtRFwQ9,2020-0188,2020-06-04,13:16:34,13:45:39,NA,incomplete,4,shape,0,1,left,Red_Triangle_Dots_1.jpg,Blue_Triangle_Chess_4.jpg,Purple_Circle_Dots_3.jpg,left,1035.03999998793,true,NA,true
6VtRFwQ9,3mdwe879vkfdd3966pwqlqs1zxrb9a,3lbxntkx0v8mdqa12ntaz7fk5t09x0,6VtRFwQ9,2020-0188,2020-06-04,13:16:34,13:45:39,NA,incomplete,5,shape,0,1,left,Red_Plus_Chess_1.jpg,Green_Plus_Grid_4.jpg,Purple_Triangle_Chess_2.jpg,left,1064.5099999383092,true,NA,true
6VtRFwQ9,3mdwe879vkfdd3966pwqlqs1zxrb9a,3lbxntkx0v8mdqa12ntaz7fk5t09x0,6VtRFwQ9,2020-0188,2020-06-04,13:16:34,13:45:39,NA,incomplete,6,shape,0,0,right,Green_Circle_Chess_3.jpg,Purple_Triangle_Chess_1.jpg,Red_Circle_Dots_4.jpg,right,942.9350000573322,true,NA,true
6VtRFwQ9,3mdwe879vkfdd3966pwqlqs1zxrb9a,3lbxntkx0v8mdqa12ntaz7fk5t09x0,6VtRFwQ9,2020-0188,2020-06-04,13:16:34,13:45:39,NA,incomplete,7,shape,0,1,left,Green_Circle_Dots_2.jpg,Red_Circle_Chess_4.jpg,Blue_Plus_Dots_1.jpg,left,888.1200000178069,true,NA,true
6VtRFwQ9,3mdwe879vkfdd3966pwqlqs1zxrb9a,3lbxntkx0v8mdqa12ntaz7fk5t09x0,6VtRFwQ9,2020-0188,2020-06-04,13:16:34,13:45:39,NA,incomplete,8,shape,0,1,right,Purple_Plus_Grid_1.jpg,Green_Triangle_Grid_3.jpg,Red_Plus_Chess_4.jpg,right,912.2900000074878,true,NA,true
6VtRFwQ9,3mdwe879vkfdd3966pwqlqs1zxrb9a,3lbxntkx0v8mdqa12ntaz7fk5t09x0,6VtRFwQ9,2020-0188,2020-06-04,13:16:34,13:45:39,NA,incomplete,9,shape,0,0,right,Purple_Triangle_Grid_3.jpg,Red_Circle_Grid_4.jpg,Blue_Triangle_Chess_2.jpg,right,935.8749999664724,true,NA,true
6VtRFwQ9,3mdwe879vkfdd3966pwqlqs1zxrb9a,3lbxntkx0v8mdqa12ntaz7fk5t09x0,6VtRFwQ9,2020-0188,2020-06-04,13:16:34,13:45:39,NA,incomplete,10,shape,0,0,right,Purple_Triangle_Dots_2.jpg,Green_Circle_Dots_1.jpg,Blue_Triangle_Chess_4.jpg,right,1064.0399999683723,true,NA,true
6VtRFwQ9,3mdwe879vkfdd3966pwqlqs1zxrb9a,3lbxntkx0v8mdqa12ntaz7fk5t09x0,6VtRFwQ9,2020-0188,2020-06-04,13:16:34,13:45:39,NA,incomplete,11,shape,0,1,left,Red_Circle_Chess_4.jpg,Blue_Circle_Stripes_2.jpg,Green_Plus_Chess_3.jpg,left,901.5949999447912,true,NA,true
6VtRFwQ9,3mdwe879vkfdd3966pwqlqs1zxrb9a,3lbxntkx0v8mdqa12ntaz7fk5t09x0,6VtRFwQ9,2020-0188,2020-06-04,13:16:34,13:45:39,NA,incomplete,12,shape,0,1,left,Red_Star_Chess_3.jpg,Purple_Star_Grid_4.jpg,Blue_Triangle_Chess_1.jpg,left,999.115000013262,true,NA,true
6VtRFwQ9,3mdwe879vkfdd3966pwqlqs1zxrb9a,3lbxntkx0v8mdqa12ntaz7fk5t09x0,6VtRFwQ9,2020-0188,2020-06-04,13:16:34,13:45:39,NA,incomplete,13,shape,0,1,left,Blue_Circle_Grid_1.jpg,Purple_Circle_Stripes_4.jpg,Green_Triangle_Grid_3.jpg,left,838.2800000254065,true,NA,true
6VtRFwQ9,3mdwe879vkfdd3966pwqlqs1zxrb9a,3lbxntkx0v8mdqa12ntaz7fk5t09x0,6VtRFwQ9,2020-0188,2020-06-04,13:16:34,13:45:39,NA,incomplete,14,shape,0,1,left,Blue_Star_Stripes_3.jpg,Green_Star_Dots_1.jpg,Purple_Circle_Stripes_4.jpg,left,1115.3899999335408,true,NA,true
6VtRFwQ9,3mdwe879vkfdd3966pwqlqs1zxrb9a,3lbxntkx0v8mdqa12ntaz7fk5t09x0,6VtRFwQ9,2020-0188,2020-06-04,13:16:34,13:45:39,NA,incomplete,15,shape,0,1,right,Red_Star_Dots_2.jpg,Green_Triangle_Dots_1.jpg,Purple_Star_Chess_4.jpg,right,820.1100000878796,true,NA,true
6VtRFwQ9,3mdwe879vkfdd3966pwqlqs1zxrb9a,3lbxntkx0v8mdqa12ntaz7fk5t09x0,6VtRFwQ9,2020-0188,2020-06-04,13:16:34,13:45:39,NA,incomplete,16,shape,0,1,left,Red_Plus_Dots_4.jpg,Green_Plus_Chess_1.jpg,Purple_Triangle_Dots_2.jpg,left,885.8750000363216,true,NA,true
6VtRFwQ9,3mdwe879vkfdd3966pwqlqs1zxrb9a,3lbxntkx0v8mdqa12ntaz7fk5t09x0,6VtRFwQ9,2020-0188,2020-06-04,13:16:34,13:45:39,NA,incomplete,17,shape,0,1,right,Purple_Triangle_Stripes_4.jpg,Green_Circle_Stripes_3.jpg,Blue_Triangle_Grid_1.jpg,right,814.2949999310076,true,NA,true
6VtRFwQ9,3mdwe879vkfdd3966pwqlqs1zxrb9a,3lbxntkx0v8mdqa12ntaz7fk5t09x0,6VtRFwQ9,2020-0188,2020-06-04,13:16:34,13:45:39,NA,incomplete,18,shape,0,1,right,Red_Plus_Chess_1.jpg,Green_Triangle_Chess_2.jpg,Blue_Plus_Grid_3.jpg,right,998.2549999840558,true,NA,true
6VtRFwQ9,3mdwe879vkfdd3966pwqlqs1zxrb9a,3lbxntkx0v8mdqa12ntaz7fk5t09x0,6VtRFwQ9,2020-0188,2020-06-04,13:16:34,13:45:39,NA,incomplete,19,shape,0,1,right,Purple_Plus_Grid_3.jpg,Green_Star_Grid_2.jpg,Red_Plus_Chess_4.jpg,left,1054.4549999758601,false,NA,true
6VtRFwQ9,3mdwe879vkfdd3966pwqlqs1zxrb9a,3lbxntkx0v8mdqa12ntaz7fk5t09x0,6VtRFwQ9,2020-0188,2020-06-04,13:16:34,13:45:39,NA,incomplete,20,filling,1,1,left,Blue_Circle_Grid_3.jpg,Purple_Triangle_Grid_2.jpg,Red_Circle_Dots_4.jpg,left,1565.3749998891726,true,NA,true
6VtRFwQ9,3mdwe879vkfdd3966pwqlqs1zxrb9a,3lbxntkx0v8mdqa12ntaz7fk5t09x0,6VtRFwQ9,2020-0188,2020-06-04,13:16:34,13:45:39,NA,incomplete,21,filling,1,1,right,Blue_Triangle_Dots_3.jpg,Purple_Triangle_Grid_4.jpg,Green_Plus_Dots_2.jpg,right,1564.530000090599,true,NA,true
6VtRFwQ9,3mdwe879vkfdd3966pwqlqs1zxrb9a,3lbxntkx0v8mdqa12ntaz7fk5t09x0,6VtRFwQ9,2020-0188,2020-06-04,13:16:34,13:45:39,NA,incomplete,22,filling,1,0,left,Red_Circle_Stripes_4.jpg,Green_Triangle_Stripes_3.jpg,Blue_Circle_Grid_1.jpg,right,1228.1899999361485,false,NA,true
6VtRFwQ9,3mdwe879vkfdd3966pwqlqs1zxrb9a,3lbxntkx0v8mdqa12ntaz7fk5t09x0,6VtRFwQ9,2020-0188,2020-06-04,13:16:34,13:45:39,NA,incomplete,23,filling,1,1,right,Purple_Triangle_Grid_3.jpg,Red_Triangle_Chess_1.jpg,Green_Plus_Grid_2.jpg,right,1130.5450000800192,true,NA,true
6VtRFwQ9,3mdwe879vkfdd3966pwqlqs1zxrb9a,3lbxntkx0v8mdqa12ntaz7fk5t09x0,6VtRFwQ9,2020-0188,2020-06-04,13:16:34,13:45:39,NA,incomplete,24,filling,1,1,right,Blue_Plus_Dots_4.jpg,Green_Plus_Chess_1.jpg,Purple_Circle_Dots_2.jpg,right,1347.4799999967217,true,NA,true
6VtRFwQ9,3mdwe879vkfdd3966pwqlqs1zxrb9a,3lbxntkx0v8mdqa12ntaz7fk5t09x0,6VtRFwQ9,2020-0188,2020-06-04,13:16:34,13:45:39,NA,incomplete,25,filling,1,1,right,Purple_Star_Dots_3.jpg,Blue_Star_Grid_4.jpg,Green_Triangle_Dots_1.jpg,right,1273.2550000073388,true,NA,true
6VtRFwQ9,3mdwe879vkfdd3966pwqlqs1zxrb9a,3lbxntkx0v8mdqa12ntaz7fk5t09x0,6VtRFwQ9,2020-0188,2020-06-04,13:16:34,13:45:39,NA,incomplete,26,filling,1,1,left,Purple_Star_Dots_2.jpg,Green_Circle_Dots_4.jpg,Blue_Star_Chess_1.jpg,left,1125.2450000029057,true,NA,true
6VtRFwQ9,3mdwe879vkfdd3966pwqlqs1zxrb9a,3lbxntkx0v8mdqa12ntaz7fk5t09x0,6VtRFwQ9,2020-0188,2020-06-04,13:16:34,13:45:39,NA,incomplete,27,filling,1,1,left,Purple_Triangle_Stripes_4.jpg,Green_Plus_Stripes_1.jpg,Blue_Triangle_Grid_3.jpg,left,1306.8950000451878,true,NA,true
6VtRFwQ9,3mdwe879vkfdd3966pwqlqs1zxrb9a,3lbxntkx0v8mdqa12ntaz7fk5t09x0,6VtRFwQ9,2020-0188,2020-06-04,13:16:34,13:45:39,NA,incomplete,28,filling,1,0,left,Green_Plus_Grid_3.jpg,Blue_Star_Grid_2.jpg,Red_Plus_Chess_4.jpg,left,1411.3000000361353,true,NA,true
6VtRFwQ9,3mdwe879vkfdd3966pwqlqs1zxrb9a,3lbxntkx0v8mdqa12ntaz7fk5t09x0,6VtRFwQ9,2020-0188,2020-06-04,13:16:34,13:45:39,NA,incomplete,29,filling,1,1,right,Purple_Triangle_Grid_4.jpg,Red_Triangle_Dots_3.jpg,Green_Plus_Grid_1.jpg,right,1485.964999999851,true,NA,true
6VtRFwQ9,3mdwe879vkfdd3966pwqlqs1zxrb9a,3lbxntkx0v8mdqa12ntaz7fk5t09x0,6VtRFwQ9,2020-0188,2020-06-04,13:16:34,13:45:39,NA,incomplete,30,filling,1,1,right,Green_Star_Stripes_2.jpg,Blue_Star_Grid_3.jpg,Red_Triangle_Stripes_4.jpg,right,1266.1850000731647,true,NA,true
6VtRFwQ9,3mdwe879vkfdd3966pwqlqs1zxrb9a,3lbxntkx0v8mdqa12ntaz7fk5t09x0,6VtRFwQ9,2020-0188,2020-06-04,13:16:34,13:45:39,NA,incomplete,31,filling,1,0,right,Red_Circle_Chess_4.jpg,Green_Circle_Grid_3.jpg,Purple_Star_Chess_1.jpg,right,1720.82499996759,true,NA,true
6VtRFwQ9,3mdwe879vkfdd3966pwqlqs1zxrb9a,3lbxntkx0v8mdqa12ntaz7fk5t09x0,6VtRFwQ9,2020-0188,2020-06-04,13:16:34,13:45:39,NA,incomplete,32,filling,1,1,left,Blue_Plus_Chess_4.jpg,Green_Circle_Chess_3.jpg,Purple_Plus_Stripes_1.jpg,left,1607.1699999738485,true,NA,true
6VtRFwQ9,3mdwe879vkfdd3966pwqlqs1zxrb9a,3lbxntkx0v8mdqa12ntaz7fk5t09x0,6VtRFwQ9,2020-0188,2020-06-04,13:16:34,13:45:39,NA,incomplete,33,filling,1,1,left,Red_Circle_Grid_1.jpg,Purple_Star_Grid_4.jpg,Blue_Circle_Chess_3.jpg,left,1386.7949999403208,true,NA,true
6VtRFwQ9,3mdwe879vkfdd3966pwqlqs1zxrb9a,3lbxntkx0v8mdqa12ntaz7fk5t09x0,6VtRFwQ9,2020-0188,2020-06-04,13:16:34,13:45:39,NA,incomplete,34,filling,1,0,left,Blue_Circle_Dots_3.jpg,Green_Plus_Dots_1.jpg,Purple_Circle_Chess_2.jpg,left,1428.2699999166653,true,NA,true
6VtRFwQ9,3mdwe879vkfdd3966pwqlqs1zxrb9a,3lbxntkx0v8mdqa12ntaz7fk5t09x0,6VtRFwQ9,2020-0188,2020-06-04,13:16:34,13:45:39,NA,incomplete,35,filling,1,1,left,Purple_Plus_Stripes_3.jpg,Red_Star_Stripes_4.jpg,Blue_Plus_Dots_2.jpg,left,1289.8300000233576,true,NA,true
6VtRFwQ9,3mdwe879vkfdd3966pwqlqs1zxrb9a,3lbxntkx0v8mdqa12ntaz7fk5t09x0,6VtRFwQ9,2020-0188,2020-06-04,13:16:34,13:45:39,NA,incomplete,36,filling,1,1,left,Red_Triangle_Stripes_4.jpg,Purple_Plus_Stripes_3.jpg,Blue_Triangle_Dots_1.jpg,left,1291.194999939762,true,NA,true
6VtRFwQ9,3mdwe879vkfdd3966pwqlqs1zxrb9a,3lbxntkx0v8mdqa12ntaz7fk5t09x0,6VtRFwQ9,2020-0188,2020-06-04,13:16:34,13:45:39,NA,incomplete,37,filling,1,1,right,Purple_Triangle_Grid_2.jpg,Blue_Triangle_Chess_1.jpg,Red_Plus_Grid_3.jpg,right,1127.390000037849,true,NA,true
6VtRFwQ9,3mdwe879vkfdd3966pwqlqs1zxrb9a,3lbxntkx0v8mdqa12ntaz7fk5t09x0,6VtRFwQ9,2020-0188,2020-06-04,13:16:34,13:45:39,NA,incomplete,38,filling,1,1,right,Red_Triangle_Dots_1.jpg,Purple_Triangle_Grid_4.jpg,Green_Star_Dots_2.jpg,right,1404.2999999364838,true,NA,true
6VtRFwQ9,3mdwe879vkfdd3966pwqlqs1zxrb9a,3lbxntkx0v8mdqa12ntaz7fk5t09x0,6VtRFwQ9,2020-0188,2020-06-04,13:16:34,13:45:39,NA,incomplete,39,filling,1,1,right,Red_Plus_Chess_1.jpg,Purple_Plus_Stripes_2.jpg,Green_Triangle_Chess_4.jpg,right,1320.285000023432,true,NA,true
6VtRFwQ9,3mdwe879vkfdd3966pwqlqs1zxrb9a,3lbxntkx0v8mdqa12ntaz7fk5t09x0,6VtRFwQ9,2020-0188,2020-06-04,13:16:34,13:45:39,NA,incomplete,0,shape,0,1,right,Purple_Circle_Chess_4.jpg,Blue_Star_Chess_3.jpg,Green_Circle_Dots_1.jpg,right,793.6899999622256,true,low,false
6VtRFwQ9,3mdwe879vkfdd3966pwqlqs1zxrb9a,3lbxntkx0v8mdqa12ntaz7fk5t09x0,6VtRFwQ9,2020-0188,2020-06-04,13:16:34,13:45:39,NA,incomplete,1,shape,0,1,left,Green_Star_Grid_2.jpg,Purple_Star_Dots_1.jpg,Blue_Circle_Grid_4.jpg,left,926.6700000735,true,low,false
6VtRFwQ9,3mdwe879vkfdd3966pwqlqs1zxrb9a,3lbxntkx0v8mdqa12ntaz7fk5t09x0,6VtRFwQ9,2020-0188,2020-06-04,13:16:34,13:45:39,NA,incomplete,2,shape,0,1,left,Blue_Circle_Chess_3.jpg,Red_Circle_Stripes_2.jpg,Purple_Plus_Chess_1.jpg,left,742.5649999640882,true,low,false
6VtRFwQ9,3mdwe879vkfdd3966pwqlqs1zxrb9a,3lbxntkx0v8mdqa12ntaz7fk5t09x0,6VtRFwQ9,2020-0188,2020-06-04,13:16:34,13:45:39,NA,incomplete,3,shape,0,0,right,Green_Circle_Chess_1.jpg,Blue_Plus_Chess_4.jpg,Purple_Circle_Dots_2.jpg,right,817.2450000420213,true,low,false
6VtRFwQ9,3mdwe879vkfdd3966pwqlqs1zxrb9a,3lbxntkx0v8mdqa12ntaz7fk5t09x0,6VtRFwQ9,2020-0188,2020-06-04,13:16:34,13:45:39,NA,incomplete,4,shape,0,1,left,Red_Star_Grid_4.jpg,Purple_Star_Dots_3.jpg,Green_Circle_Grid_2.jpg,left,681.9950001081452,true,low,false
6VtRFwQ9,3mdwe879vkfdd3966pwqlqs1zxrb9a,3lbxntkx0v8mdqa12ntaz7fk5t09x0,6VtRFwQ9,2020-0188,2020-06-04,13:16:34,13:45:39,NA,incomplete,5,shape,0,0,right,Blue_Circle_Dots_3.jpg,Green_Triangle_Dots_1.jpg,Purple_Circle_Stripes_4.jpg,right,600.2549999393523,true,low,false
6VtRFwQ9,3mdwe879vkfdd3966pwqlqs1zxrb9a,3lbxntkx0v8mdqa12ntaz7fk5t09x0,6VtRFwQ9,2020-0188,2020-06-04,13:16:34,13:45:39,NA,incomplete,6,shape,0,1,right,Purple_Triangle_Chess_2.jpg,Red_Star_Chess_1.jpg,Blue_Triangle_Stripes_3.jpg,right,728.0499999178573,true,low,false
6VtRFwQ9,3mdwe879vkfdd3966pwqlqs1zxrb9a,3lbxntkx0v8mdqa12ntaz7fk5t09x0,6VtRFwQ9,2020-0188,2020-06-04,13:16:34,13:45:39,NA,incomplete,7,shape,0,1,left,Red_Circle_Grid_1.jpg,Blue_Circle_Chess_2.jpg,Purple_Star_Grid_3.jpg,left,659.6900000004098,true,low,false
6VtRFwQ9,3mdwe879vkfdd3966pwqlqs1zxrb9a,3lbxntkx0v8mdqa12ntaz7fk5t09x0,6VtRFwQ9,2020-0188,2020-06-04,13:16:34,13:45:39,NA,incomplete,8,shape,0,1,right,Green_Plus_Grid_2.jpg,Purple_Triangle_Grid_4.jpg,Blue_Plus_Dots_1.jpg,right,872.6449999958277,true,low,false
6VtRFwQ9,3mdwe879vkfdd3966pwqlqs1zxrb9a,3lbxntkx0v8mdqa12ntaz7fk5t09x0,6VtRFwQ9,2020-0188,2020-06-04,13:16:34,13:45:39,NA,incomplete,9,shape,0,0,right,Blue_Circle_Dots_1.jpg,Green_Triangle_Dots_2.jpg,Red_Circle_Chess_3.jpg,right,750.7250000489876,true,low,false
6VtRFwQ9,3mdwe879vkfdd3966pwqlqs1zxrb9a,3lbxntkx0v8mdqa12ntaz7fk5t09x0,6VtRFwQ9,2020-0188,2020-06-04,13:16:34,13:45:39,NA,incomplete,10,shape,0,1,left,Purple_Circle_Grid_4.jpg,Green_Circle_Stripes_3.jpg,Blue_Plus_Grid_2.jpg,left,564.9999999441206,true,low,false
6VtRFwQ9,3mdwe879vkfdd3966pwqlqs1zxrb9a,3lbxntkx0v8mdqa12ntaz7fk5t09x0,6VtRFwQ9,2020-0188,2020-06-04,13:16:34,13:45:39,NA,incomplete,11,shape,0,1,left,Red_Star_Chess_1.jpg,Purple_Star_Grid_3.jpg,Blue_Triangle_Chess_4.jpg,left,696.5600000694394,true,low,false
6VtRFwQ9,3mdwe879vkfdd3966pwqlqs1zxrb9a,3lbxntkx0v8mdqa12ntaz7fk5t09x0,6VtRFwQ9,2020-0188,2020-06-04,13:16:34,13:45:39,NA,incomplete,12,shape,0,1,left,Purple_Circle_Stripes_3.jpg,Blue_Circle_Chess_4.jpg,Green_Star_Stripes_1.jpg,left,666.1300000268966,true,low,false
6VtRFwQ9,3mdwe879vkfdd3966pwqlqs1zxrb9a,3lbxntkx0v8mdqa12ntaz7fk5t09x0,6VtRFwQ9,2020-0188,2020-06-04,13:16:34,13:45:39,NA,incomplete,13,shape,0,1,left,Red_Triangle_Dots_3.jpg,Blue_Triangle_Grid_1.jpg,Green_Circle_Dots_4.jpg,left,706.7500000121072,true,low,false
6VtRFwQ9,3mdwe879vkfdd3966pwqlqs1zxrb9a,3lbxntkx0v8mdqa12ntaz7fk5t09x0,6VtRFwQ9,2020-0188,2020-06-04,13:16:34,13:45:39,NA,incomplete,14,shape,0,1,left,Purple_Triangle_Stripes_2.jpg,Blue_Triangle_Dots_1.jpg,Green_Circle_Stripes_3.jpg,left,592.1099999686703,true,low,false
6VtRFwQ9,3mdwe879vkfdd3966pwqlqs1zxrb9a,3lbxntkx0v8mdqa12ntaz7fk5t09x0,6VtRFwQ9,2020-0188,2020-06-04,13:16:34,13:45:39,NA,incomplete,15,shape,0,1,left,Purple_Plus_Chess_1.jpg,Red_Plus_Dots_2.jpg,Blue_Triangle_Chess_3.jpg,left,640.8400000073016,true,low,false
6VtRFwQ9,3mdwe879vkfdd3966pwqlqs1zxrb9a,3lbxntkx0v8mdqa12ntaz7fk5t09x0,6VtRFwQ9,2020-0188,2020-06-04,13:16:34,13:45:39,NA,incomplete,16,shape,0,1,right,Red_Plus_Stripes_2.jpg,Green_Star_Stripes_1.jpg,Purple_Plus_Chess_3.jpg,right,664.5950000965968,true,low,false
6VtRFwQ9,3mdwe879vkfdd3966pwqlqs1zxrb9a,3lbxntkx0v8mdqa12ntaz7fk5t09x0,6VtRFwQ9,2020-0188,2020-06-04,13:16:34,13:45:39,NA,incomplete,17,shape,0,1,left,Purple_Star_Dots_3.jpg,Red_Star_Grid_4.jpg,Green_Circle_Dots_2.jpg,left,611.4799999631941,true,low,false
6VtRFwQ9,3mdwe879vkfdd3966pwqlqs1zxrb9a,3lbxntkx0v8mdqa12ntaz7fk5t09x0,6VtRFwQ9,2020-0188,2020-06-04,13:16:34,13:45:39,NA,incomplete,18,shape,0,1,right,Red_Triangle_Chess_2.jpg,Blue_Star_Chess_3.jpg,Green_Triangle_Stripes_4.jpg,right,818.0449999636039,true,low,false
6VtRFwQ9,3mdwe879vkfdd3966pwqlqs1zxrb9a,3lbxntkx0v8mdqa12ntaz7fk5t09x0,6VtRFwQ9,2020-0188,2020-06-04,13:16:34,13:45:39,NA,incomplete,19,shape,0,1,right,Purple_Triangle_Dots_1.jpg,Blue_Star_Dots_2.jpg,Red_Triangle_Chess_4.jpg,right,584.6400000154972,true,low,false
6VtRFwQ9,3mdwe879vkfdd3966pwqlqs1zxrb9a,3lbxntkx0v8mdqa12ntaz7fk5t09x0,6VtRFwQ9,2020-0188,2020-06-04,13:16:34,13:45:39,NA,incomplete,20,shape,0,0,right,Red_Star_Stripes_2.jpg,Purple_Circle_Stripes_3.jpg,Green_Star_Dots_1.jpg,right,693.5799999628216,true,low,false
6VtRFwQ9,3mdwe879vkfdd3966pwqlqs1zxrb9a,3lbxntkx0v8mdqa12ntaz7fk5t09x0,6VtRFwQ9,2020-0188,2020-06-04,13:16:34,13:45:39,NA,incomplete,21,shape,0,0,right,Blue_Circle_Dots_1.jpg,Red_Star_Dots_3.jpg,Purple_Circle_Grid_2.jpg,right,562.0450000278652,true,low,false
6VtRFwQ9,3mdwe879vkfdd3966pwqlqs1zxrb9a,3lbxntkx0v8mdqa12ntaz7fk5t09x0,6VtRFwQ9,2020-0188,2020-06-04,13:16:34,13:45:39,NA,incomplete,22,shape,0,1,right,Green_Triangle_Stripes_1.jpg,Blue_Star_Stripes_2.jpg,Purple_Triangle_Chess_4.jpg,right,723.6950000515208,true,low,false
6VtRFwQ9,3mdwe879vkfdd3966pwqlqs1zxrb9a,3lbxntkx0v8mdqa12ntaz7fk5t09x0,6VtRFwQ9,2020-0188,2020-06-04,13:16:34,13:45:39,NA,incomplete,23,shape,0,1,left,Blue_Triangle_Chess_2.jpg,Red_Triangle_Grid_3.jpg,Green_Plus_Chess_1.jpg,left,583.3499999716878,true,low,false
6VtRFwQ9,3mdwe879vkfdd3966pwqlqs1zxrb9a,3lbxntkx0v8mdqa12ntaz7fk5t09x0,6VtRFwQ9,2020-0188,2020-06-04,13:16:34,13:45:39,NA,incomplete,24,shape,0,1,right,Purple_Triangle_Stripes_4.jpg,Green_Plus_Stripes_1.jpg,Blue_Triangle_Chess_2.jpg,right,698.1399999931455,true,low,false
6VtRFwQ9,3mdwe879vkfdd3966pwqlqs1zxrb9a,3lbxntkx0v8mdqa12ntaz7fk5t09x0,6VtRFwQ9,2020-0188,2020-06-04,13:16:34,13:45:39,NA,incomplete,25,shape,0,1,left,Blue_Plus_Chess_2.jpg,Red_Plus_Stripes_1.jpg,Purple_Triangle_Chess_4.jpg,left,649.4849999435246,true,low,false
6VtRFwQ9,3mdwe879vkfdd3966pwqlqs1zxrb9a,3lbxntkx0v8mdqa12ntaz7fk5t09x0,6VtRFwQ9,2020-0188,2020-06-04,13:16:34,13:45:39,NA,incomplete,26,shape,0,1,right,Red_Plus_Chess_3.jpg,Green_Circle_Chess_1.jpg,Blue_Plus_Stripes_4.jpg,right,668.5099999886006,true,low,false
6VtRFwQ9,3mdwe879vkfdd3966pwqlqs1zxrb9a,3lbxntkx0v8mdqa12ntaz7fk5t09x0,6VtRFwQ9,2020-0188,2020-06-04,13:16:34,13:45:39,NA,incomplete,27,shape,0,1,right,Red_Plus_Chess_2.jpg,Purple_Circle_Chess_4.jpg,Blue_Plus_Dots_3.jpg,right,644.4400000618771,true,low,false
6VtRFwQ9,3mdwe879vkfdd3966pwqlqs1zxrb9a,3lbxntkx0v8mdqa12ntaz7fk5t09x0,6VtRFwQ9,2020-0188,2020-06-04,13:16:34,13:45:39,NA,incomplete,28,shape,0,1,right,Blue_Circle_Chess_1.jpg,Purple_Triangle_Chess_2.jpg,Green_Circle_Stripes_4.jpg,right,677.1350000053644,true,low,false
6VtRFwQ9,3mdwe879vkfdd3966pwqlqs1zxrb9a,3lbxntkx0v8mdqa12ntaz7fk5t09x0,6VtRFwQ9,2020-0188,2020-06-04,13:16:34,13:45:39,NA,incomplete,29,shape,0,1,left,Blue_Circle_Chess_4.jpg,Green_Circle_Grid_2.jpg,Red_Plus_Chess_3.jpg,left,548.8449999829754,true,low,false
6VtRFwQ9,3mdwe879vkfdd3966pwqlqs1zxrb9a,3lbxntkx0v8mdqa12ntaz7fk5t09x0,6VtRFwQ9,2020-0188,2020-06-04,13:16:34,13:45:39,NA,incomplete,30,filling,1,1,right,Green_Circle_Chess_4.jpg,Red_Circle_Stripes_2.jpg,Blue_Star_Chess_3.jpg,left,566.054999944754,false,low,false
6VtRFwQ9,3mdwe879vkfdd3966pwqlqs1zxrb9a,3lbxntkx0v8mdqa12ntaz7fk5t09x0,6VtRFwQ9,2020-0188,2020-06-04,13:16:34,13:45:39,NA,incomplete,31,filling,1,1,left,Red_Circle_Dots_1.jpg,Blue_Triangle_Dots_2.jpg,Green_Circle_Grid_3.jpg,right,541.9600000604987,false,low,false
6VtRFwQ9,3mdwe879vkfdd3966pwqlqs1zxrb9a,3lbxntkx0v8mdqa12ntaz7fk5t09x0,6VtRFwQ9,2020-0188,2020-06-04,13:16:34,13:45:39,NA,incomplete,32,filling,1,1,left,Blue_Plus_Stripes_1.jpg,Green_Circle_Stripes_2.jpg,Purple_Plus_Grid_4.jpg,right,565.694999997504,false,low,false
6VtRFwQ9,3mdwe879vkfdd3966pwqlqs1zxrb9a,3lbxntkx0v8mdqa12ntaz7fk5t09x0,6VtRFwQ9,2020-0188,2020-06-04,13:16:34,13:45:39,NA,incomplete,33,filling,1,1,right,Red_Plus_Stripes_1.jpg,Purple_Plus_Chess_2.jpg,Green_Triangle_Stripes_4.jpg,right,933.5999999893829,true,low,false
6VtRFwQ9,3mdwe879vkfdd3966pwqlqs1zxrb9a,3lbxntkx0v8mdqa12ntaz7fk5t09x0,6VtRFwQ9,2020-0188,2020-06-04,13:16:34,13:45:39,NA,incomplete,34,filling,1,1,right,Purple_Star_Stripes_3.jpg,Blue_Star_Dots_4.jpg,Red_Plus_Stripes_1.jpg,right,829.0450000204146,true,low,false
6VtRFwQ9,3mdwe879vkfdd3966pwqlqs1zxrb9a,3lbxntkx0v8mdqa12ntaz7fk5t09x0,6VtRFwQ9,2020-0188,2020-06-04,13:16:34,13:45:39,NA,incomplete,35,filling,1,0,right,Blue_Triangle_Chess_2.jpg,Green_Triangle_Grid_3.jpg,Red_Plus_Chess_4.jpg,right,803.8800000213087,true,low,false
6VtRFwQ9,3mdwe879vkfdd3966pwqlqs1zxrb9a,3lbxntkx0v8mdqa12ntaz7fk5t09x0,6VtRFwQ9,2020-0188,2020-06-04,13:16:34,13:45:39,NA,incomplete,36,filling,1,1,right,Purple_Plus_Grid_1.jpg,Red_Plus_Stripes_4.jpg,Green_Triangle_Grid_2.jpg,right,1020.6600000383332,true,low,false
6VtRFwQ9,3mdwe879vkfdd3966pwqlqs1zxrb9a,3lbxntkx0v8mdqa12ntaz7fk5t09x0,6VtRFwQ9,2020-0188,2020-06-04,13:16:34,13:45:39,NA,incomplete,37,filling,1,0,right,Red_Circle_Dots_4.jpg,Green_Circle_Stripes_3.jpg,Purple_Plus_Dots_1.jpg,right,1142.6750000100583,true,low,false
6VtRFwQ9,3mdwe879vkfdd3966pwqlqs1zxrb9a,3lbxntkx0v8mdqa12ntaz7fk5t09x0,6VtRFwQ9,2020-0188,2020-06-04,13:16:34,13:45:39,NA,incomplete,38,filling,1,0,right,Red_Circle_Stripes_1.jpg,Purple_Circle_Dots_3.jpg,Blue_Star_Stripes_4.jpg,right,783.5249999770895,true,low,false
6VtRFwQ9,3mdwe879vkfdd3966pwqlqs1zxrb9a,3lbxntkx0v8mdqa12ntaz7fk5t09x0,6VtRFwQ9,2020-0188,2020-06-04,13:16:34,13:45:39,NA,incomplete,39,filling,1,1,right,Blue_Triangle_Stripes_3.jpg,Red_Triangle_Dots_1.jpg,Green_Star_Stripes_4.jpg,right,868.114999961108,true,low,false
6VtRFwQ9,3mdwe879vkfdd3966pwqlqs1zxrb9a,3lbxntkx0v8mdqa12ntaz7fk5t09x0,6VtRFwQ9,2020-0188,2020-06-04,13:16:34,13:45:39,NA,incomplete,40,filling,1,1,left,Blue_Star_Stripes_3.jpg,Purple_Triangle_Stripes_2.jpg,Green_Star_Grid_1.jpg,left,723.6949999351054,true,low,false
6VtRFwQ9,3mdwe879vkfdd3966pwqlqs1zxrb9a,3lbxntkx0v8mdqa12ntaz7fk5t09x0,6VtRFwQ9,2020-0188,2020-06-04,13:16:34,13:45:39,NA,incomplete,41,filling,1,0,right,Purple_Plus_Dots_4.jpg,Blue_Plus_Grid_1.jpg,Green_Triangle_Dots_2.jpg,right,913.3349999319762,true,low,false
6VtRFwQ9,3mdwe879vkfdd3966pwqlqs1zxrb9a,3lbxntkx0v8mdqa12ntaz7fk5t09x0,6VtRFwQ9,2020-0188,2020-06-04,13:16:34,13:45:39,NA,incomplete,42,filling,1,1,left,Purple_Star_Chess_3.jpg,Red_Circle_Chess_4.jpg,Blue_Star_Dots_2.jpg,left,908.1149999983609,true,low,false
6VtRFwQ9,3mdwe879vkfdd3966pwqlqs1zxrb9a,3lbxntkx0v8mdqa12ntaz7fk5t09x0,6VtRFwQ9,2020-0188,2020-06-04,13:16:34,13:45:39,NA,incomplete,43,filling,1,1,left,Purple_Circle_Grid_1.jpg,Blue_Star_Grid_2.jpg,Red_Circle_Stripes_4.jpg,left,1070.4299999633804,true,low,false
6VtRFwQ9,3mdwe879vkfdd3966pwqlqs1zxrb9a,3lbxntkx0v8mdqa12ntaz7fk5t09x0,6VtRFwQ9,2020-0188,2020-06-04,13:16:34,13:45:39,NA,incomplete,44,filling,1,1,right,Red_Plus_Grid_1.jpg,Green_Plus_Stripes_3.jpg,Blue_Star_Grid_2.jpg,right,1031.0100000351667,true,low,false
6VtRFwQ9,3mdwe879vkfdd3966pwqlqs1zxrb9a,3lbxntkx0v8mdqa12ntaz7fk5t09x0,6VtRFwQ9,2020-0188,2020-06-04,13:16:34,13:45:39,NA,incomplete,45,filling,1,1,left,Green_Star_Dots_4.jpg,Purple_Triangle_Dots_3.jpg,Blue_Star_Grid_2.jpg,left,1188.4700000518933,true,low,false
6VtRFwQ9,3mdwe879vkfdd3966pwqlqs1zxrb9a,3lbxntkx0v8mdqa12ntaz7fk5t09x0,6VtRFwQ9,2020-0188,2020-06-04,13:16:34,13:45:39,NA,incomplete,46,filling,1,1,left,Green_Star_Chess_1.jpg,Purple_Plus_Chess_2.jpg,Blue_Star_Dots_4.jpg,left,946.9650000100955,true,low,false
6VtRFwQ9,3mdwe879vkfdd3966pwqlqs1zxrb9a,3lbxntkx0v8mdqa12ntaz7fk5t09x0,6VtRFwQ9,2020-0188,2020-06-04,13:16:34,13:45:39,NA,incomplete,47,filling,1,1,right,Purple_Plus_Chess_1.jpg,Blue_Plus_Stripes_3.jpg,Green_Circle_Chess_4.jpg,right,890.914999996312,true,low,false
6VtRFwQ9,3mdwe879vkfdd3966pwqlqs1zxrb9a,3lbxntkx0v8mdqa12ntaz7fk5t09x0,6VtRFwQ9,2020-0188,2020-06-04,13:16:34,13:45:39,NA,incomplete,48,filling,1,1,left,Green_Circle_Stripes_3.jpg,Blue_Plus_Stripes_1.jpg,Red_Circle_Grid_2.jpg,left,901.3799999374896,true,low,false
6VtRFwQ9,3mdwe879vkfdd3966pwqlqs1zxrb9a,3lbxntkx0v8mdqa12ntaz7fk5t09x0,6VtRFwQ9,2020-0188,2020-06-04,13:16:34,13:45:39,NA,incomplete,49,filling,1,1,right,Green_Plus_Chess_2.jpg,Purple_Plus_Grid_4.jpg,Red_Circle_Chess_1.jpg,right,847.5000000325963,true,low,false
6VtRFwQ9,3mdwe879vkfdd3966pwqlqs1zxrb9a,3lbxntkx0v8mdqa12ntaz7fk5t09x0,6VtRFwQ9,2020-0188,2020-06-04,13:16:34,13:45:39,NA,incomplete,50,filling,1,1,right,Green_Triangle_Stripes_2.jpg,Purple_Triangle_Chess_3.jpg,Red_Circle_Stripes_1.jpg,right,924.4199999375269,true,low,false
6VtRFwQ9,3mdwe879vkfdd3966pwqlqs1zxrb9a,3lbxntkx0v8mdqa12ntaz7fk5t09x0,6VtRFwQ9,2020-0188,2020-06-04,13:16:34,13:45:39,NA,incomplete,51,filling,1,1,right,Red_Star_Dots_3.jpg,Purple_Star_Chess_2.jpg,Blue_Triangle_Dots_4.jpg,right,1040.2950000716373,true,low,false
6VtRFwQ9,3mdwe879vkfdd3966pwqlqs1zxrb9a,3lbxntkx0v8mdqa12ntaz7fk5t09x0,6VtRFwQ9,2020-0188,2020-06-04,13:16:34,13:45:39,NA,incomplete,52,filling,1,1,left,Blue_Circle_Stripes_3.jpg,Green_Plus_Stripes_4.jpg,Red_Circle_Dots_1.jpg,left,790.6850000144914,true,low,false
6VtRFwQ9,3mdwe879vkfdd3966pwqlqs1zxrb9a,3lbxntkx0v8mdqa12ntaz7fk5t09x0,6VtRFwQ9,2020-0188,2020-06-04,13:16:34,13:45:39,NA,incomplete,53,filling,1,1,right,Purple_Plus_Stripes_1.jpg,Blue_Plus_Grid_2.jpg,Green_Triangle_Stripes_3.jpg,right,959.5350000308827,true,low,false
6VtRFwQ9,3mdwe879vkfdd3966pwqlqs1zxrb9a,3lbxntkx0v8mdqa12ntaz7fk5t09x0,6VtRFwQ9,2020-0188,2020-06-04,13:16:34,13:45:39,NA,incomplete,54,filling,1,1,left,Blue_Triangle_Chess_1.jpg,Purple_Circle_Chess_2.jpg,Green_Triangle_Dots_4.jpg,left,750.9099999442697,true,low,false
6VtRFwQ9,3mdwe879vkfdd3966pwqlqs1zxrb9a,3lbxntkx0v8mdqa12ntaz7fk5t09x0,6VtRFwQ9,2020-0188,2020-06-04,13:16:34,13:45:39,NA,incomplete,55,filling,1,1,right,Green_Circle_Stripes_3.jpg,Blue_Circle_Dots_2.jpg,Red_Triangle_Stripes_1.jpg,right,745.1399998972192,true,low,false
6VtRFwQ9,3mdwe879vkfdd3966pwqlqs1zxrb9a,3lbxntkx0v8mdqa12ntaz7fk5t09x0,6VtRFwQ9,2020-0188,2020-06-04,13:16:34,13:45:39,NA,incomplete,56,filling,1,1,left,Purple_Triangle_Grid_3.jpg,Red_Plus_Grid_1.jpg,Green_Triangle_Dots_4.jpg,left,929.0250000776723,true,low,false
6VtRFwQ9,3mdwe879vkfdd3966pwqlqs1zxrb9a,3lbxntkx0v8mdqa12ntaz7fk5t09x0,6VtRFwQ9,2020-0188,2020-06-04,13:16:34,13:45:39,NA,incomplete,57,filling,1,1,left,Blue_Circle_Dots_4.jpg,Green_Plus_Dots_3.jpg,Purple_Circle_Chess_1.jpg,left,881.7849999759346,true,low,false
6VtRFwQ9,3mdwe879vkfdd3966pwqlqs1zxrb9a,3lbxntkx0v8mdqa12ntaz7fk5t09x0,6VtRFwQ9,2020-0188,2020-06-04,13:16:34,13:45:39,NA,incomplete,58,filling,1,1,left,Green_Plus_Stripes_4.jpg,Blue_Circle_Stripes_1.jpg,Purple_Plus_Chess_2.jpg,left,816.785000031814,true,low,false
6VtRFwQ9,3mdwe879vkfdd3966pwqlqs1zxrb9a,3lbxntkx0v8mdqa12ntaz7fk5t09x0,6VtRFwQ9,2020-0188,2020-06-04,13:16:34,13:45:39,NA,incomplete,59,filling,1,1,left,Blue_Star_Stripes_2.jpg,Green_Plus_Stripes_4.jpg,Purple_Star_Dots_1.jpg,left,755.6000000331551,true,low,false
6VtRFwQ9,3mdwe879vkfdd3966pwqlqs1zxrb9a,3lbxntkx0v8mdqa12ntaz7fk5t09x0,6VtRFwQ9,2020-0188,2020-06-04,13:16:34,13:45:39,NA,incomplete,60,shape,0,1,right,Green_Star_Stripes_2.jpg,Purple_Plus_Stripes_4.jpg,Blue_Star_Chess_3.jpg,left,874.3999999715015,false,low,false
6VtRFwQ9,3mdwe879vkfdd3966pwqlqs1zxrb9a,3lbxntkx0v8mdqa12ntaz7fk5t09x0,6VtRFwQ9,2020-0188,2020-06-04,13:16:34,13:45:39,NA,incomplete,61,shape,0,1,right,Purple_Plus_Stripes_2.jpg,Red_Star_Stripes_4.jpg,Green_Plus_Grid_1.jpg,left,860.5250000255182,false,low,false
6VtRFwQ9,3mdwe879vkfdd3966pwqlqs1zxrb9a,3lbxntkx0v8mdqa12ntaz7fk5t09x0,6VtRFwQ9,2020-0188,2020-06-04,13:16:34,13:45:39,NA,incomplete,62,shape,0,1,right,Green_Triangle_Stripes_1.jpg,Red_Star_Stripes_4.jpg,Purple_Triangle_Dots_3.jpg,right,794.6000000229105,true,low,false
6VtRFwQ9,3mdwe879vkfdd3966pwqlqs1zxrb9a,3lbxntkx0v8mdqa12ntaz7fk5t09x0,6VtRFwQ9,2020-0188,2020-06-04,13:16:34,13:45:39,NA,incomplete,63,shape,0,1,right,Green_Triangle_Grid_3.jpg,Blue_Star_Grid_4.jpg,Purple_Triangle_Stripes_1.jpg,right,651.6950000077486,true,low,false
6VtRFwQ9,3mdwe879vkfdd3966pwqlqs1zxrb9a,3lbxntkx0v8mdqa12ntaz7fk5t09x0,6VtRFwQ9,2020-0188,2020-06-04,13:16:34,13:45:39,NA,incomplete,64,shape,0,1,right,Purple_Plus_Stripes_1.jpg,Red_Triangle_Stripes_2.jpg,Green_Plus_Grid_3.jpg,right,816.7899999534711,true,low,false
6VtRFwQ9,3mdwe879vkfdd3966pwqlqs1zxrb9a,3lbxntkx0v8mdqa12ntaz7fk5t09x0,6VtRFwQ9,2020-0188,2020-06-04,13:16:34,13:45:39,NA,incomplete,65,shape,0,0,right,Green_Plus_Dots_4.jpg,Red_Star_Dots_3.jpg,Blue_Plus_Grid_1.jpg,right,662.11499995552,true,low,false
6VtRFwQ9,3mdwe879vkfdd3966pwqlqs1zxrb9a,3lbxntkx0v8mdqa12ntaz7fk5t09x0,6VtRFwQ9,2020-0188,2020-06-04,13:16:34,13:45:39,NA,incomplete,66,shape,0,1,right,Purple_Plus_Dots_3.jpg,Blue_Star_Dots_2.jpg,Green_Plus_Grid_4.jpg,right,619.8449999792501,true,low,false
6VtRFwQ9,3mdwe879vkfdd3966pwqlqs1zxrb9a,3lbxntkx0v8mdqa12ntaz7fk5t09x0,6VtRFwQ9,2020-0188,2020-06-04,13:16:34,13:45:39,NA,incomplete,67,shape,0,1,left,Blue_Star_Grid_1.jpg,Red_Star_Chess_2.jpg,Green_Plus_Grid_3.jpg,left,605.5050001014024,true,low,false
6VtRFwQ9,3mdwe879vkfdd3966pwqlqs1zxrb9a,3lbxntkx0v8mdqa12ntaz7fk5t09x0,6VtRFwQ9,2020-0188,2020-06-04,13:16:34,13:45:39,NA,incomplete,68,shape,0,1,right,Red_Circle_Dots_1.jpg,Blue_Triangle_Dots_3.jpg,Green_Circle_Grid_2.jpg,right,516.3949999259785,true,low,false
6VtRFwQ9,3mdwe879vkfdd3966pwqlqs1zxrb9a,3lbxntkx0v8mdqa12ntaz7fk5t09x0,6VtRFwQ9,2020-0188,2020-06-04,13:16:34,13:45:39,NA,incomplete,69,shape,0,1,right,Blue_Circle_Dots_4.jpg,Red_Triangle_Dots_1.jpg,Green_Circle_Grid_2.jpg,right,529.3499999679625,true,low,false
6VtRFwQ9,3mdwe879vkfdd3966pwqlqs1zxrb9a,3lbxntkx0v8mdqa12ntaz7fk5t09x0,6VtRFwQ9,2020-0188,2020-06-04,13:16:34,13:45:39,NA,incomplete,70,shape,0,1,right,Purple_Star_Dots_3.jpg,Green_Triangle_Dots_2.jpg,Red_Star_Chess_4.jpg,right,552.155000041239,true,low,false
6VtRFwQ9,3mdwe879vkfdd3966pwqlqs1zxrb9a,3lbxntkx0v8mdqa12ntaz7fk5t09x0,6VtRFwQ9,2020-0188,2020-06-04,13:16:34,13:45:39,NA,incomplete,71,shape,0,1,right,Purple_Circle_Stripes_2.jpg,Blue_Star_Stripes_3.jpg,Red_Circle_Grid_4.jpg,right,579.4449999229982,true,low,false
6VtRFwQ9,3mdwe879vkfdd3966pwqlqs1zxrb9a,3lbxntkx0v8mdqa12ntaz7fk5t09x0,6VtRFwQ9,2020-0188,2020-06-04,13:16:34,13:45:39,NA,incomplete,72,shape,0,1,right,Red_Star_Stripes_2.jpg,Blue_Circle_Stripes_1.jpg,Green_Star_Dots_4.jpg,right,468.47999992314726,true,low,false
6VtRFwQ9,3mdwe879vkfdd3966pwqlqs1zxrb9a,3lbxntkx0v8mdqa12ntaz7fk5t09x0,6VtRFwQ9,2020-0188,2020-06-04,13:16:34,13:45:39,NA,incomplete,73,shape,0,1,left,Red_Star_Stripes_2.jpg,Blue_Star_Dots_1.jpg,Purple_Circle_Stripes_3.jpg,left,773.6349999904633,true,low,false
6VtRFwQ9,3mdwe879vkfdd3966pwqlqs1zxrb9a,3lbxntkx0v8mdqa12ntaz7fk5t09x0,6VtRFwQ9,2020-0188,2020-06-04,13:16:34,13:45:39,NA,incomplete,74,shape,0,0,right,Blue_Plus_Chess_3.jpg,Green_Triangle_Chess_4.jpg,Red_Plus_Dots_1.jpg,right,711.1799999838695,true,low,false
6VtRFwQ9,3mdwe879vkfdd3966pwqlqs1zxrb9a,3lbxntkx0v8mdqa12ntaz7fk5t09x0,6VtRFwQ9,2020-0188,2020-06-04,13:16:34,13:45:39,NA,incomplete,75,shape,0,1,left,Green_Triangle_Dots_4.jpg,Blue_Triangle_Grid_3.jpg,Purple_Star_Dots_2.jpg,left,592.1399999642745,true,low,false
6VtRFwQ9,3mdwe879vkfdd3966pwqlqs1zxrb9a,3lbxntkx0v8mdqa12ntaz7fk5t09x0,6VtRFwQ9,2020-0188,2020-06-04,13:16:34,13:45:39,NA,incomplete,76,shape,0,1,left,Red_Circle_Chess_2.jpg,Blue_Circle_Dots_4.jpg,Purple_Star_Chess_3.jpg,left,574.8850000090897,true,low,false
6VtRFwQ9,3mdwe879vkfdd3966pwqlqs1zxrb9a,3lbxntkx0v8mdqa12ntaz7fk5t09x0,6VtRFwQ9,2020-0188,2020-06-04,13:16:34,13:45:39,NA,incomplete,77,shape,0,1,right,Red_Triangle_Chess_3.jpg,Blue_Plus_Chess_4.jpg,Purple_Triangle_Stripes_2.jpg,right,549.7549999272451,true,low,false
6VtRFwQ9,3mdwe879vkfdd3966pwqlqs1zxrb9a,3lbxntkx0v8mdqa12ntaz7fk5t09x0,6VtRFwQ9,2020-0188,2020-06-04,13:16:34,13:45:39,NA,incomplete,78,shape,0,1,left,Blue_Plus_Chess_2.jpg,Red_Plus_Stripes_3.jpg,Purple_Star_Chess_1.jpg,left,687.5850000651553,true,low,false
6VtRFwQ9,3mdwe879vkfdd3966pwqlqs1zxrb9a,3lbxntkx0v8mdqa12ntaz7fk5t09x0,6VtRFwQ9,2020-0188,2020-06-04,13:16:34,13:45:39,NA,incomplete,79,shape,0,1,right,Red_Star_Chess_3.jpg,Blue_Circle_Chess_4.jpg,Green_Star_Grid_2.jpg,right,582.799999974668,true,low,false
6VtRFwQ9,3mdwe879vkfdd3966pwqlqs1zxrb9a,3lbxntkx0v8mdqa12ntaz7fk5t09x0,6VtRFwQ9,2020-0188,2020-06-04,13:16:34,13:45:39,NA,incomplete,80,shape,0,1,right,Red_Star_Chess_3.jpg,Green_Plus_Chess_1.jpg,Blue_Star_Dots_2.jpg,right,566.7300000786781,true,low,false
6VtRFwQ9,3mdwe879vkfdd3966pwqlqs1zxrb9a,3lbxntkx0v8mdqa12ntaz7fk5t09x0,6VtRFwQ9,2020-0188,2020-06-04,13:16:34,13:45:39,NA,incomplete,81,shape,0,1,left,Blue_Triangle_Chess_1.jpg,Green_Triangle_Dots_2.jpg,Purple_Star_Chess_4.jpg,left,807.3800000129268,true,low,false
6VtRFwQ9,3mdwe879vkfdd3966pwqlqs1zxrb9a,3lbxntkx0v8mdqa12ntaz7fk5t09x0,6VtRFwQ9,2020-0188,2020-06-04,13:16:34,13:45:39,NA,incomplete,82,shape,0,1,left,Red_Circle_Stripes_4.jpg,Purple_Circle_Grid_2.jpg,Blue_Plus_Stripes_3.jpg,left,548.1150000123307,true,low,false
6VtRFwQ9,3mdwe879vkfdd3966pwqlqs1zxrb9a,3lbxntkx0v8mdqa12ntaz7fk5t09x0,6VtRFwQ9,2020-0188,2020-06-04,13:16:34,13:45:39,NA,incomplete,83,shape,0,1,right,Purple_Triangle_Stripes_2.jpg,Red_Star_Stripes_3.jpg,Green_Triangle_Grid_4.jpg,right,532.0749999955297,true,low,false
6VtRFwQ9,3mdwe879vkfdd3966pwqlqs1zxrb9a,3lbxntkx0v8mdqa12ntaz7fk5t09x0,6VtRFwQ9,2020-0188,2020-06-04,13:16:34,13:45:39,NA,incomplete,84,shape,0,1,left,Blue_Star_Stripes_1.jpg,Red_Star_Chess_3.jpg,Purple_Triangle_Stripes_4.jpg,left,623.3599999686703,true,low,false
6VtRFwQ9,3mdwe879vkfdd3966pwqlqs1zxrb9a,3lbxntkx0v8mdqa12ntaz7fk5t09x0,6VtRFwQ9,2020-0188,2020-06-04,13:16:34,13:45:39,NA,incomplete,85,shape,0,0,right,Blue_Triangle_Grid_4.jpg,Green_Star_Grid_2.jpg,Red_Triangle_Dots_1.jpg,right,716.4650000631809,true,low,false
6VtRFwQ9,3mdwe879vkfdd3966pwqlqs1zxrb9a,3lbxntkx0v8mdqa12ntaz7fk5t09x0,6VtRFwQ9,2020-0188,2020-06-04,13:16:34,13:45:39,NA,incomplete,86,shape,0,1,left,Green_Plus_Chess_2.jpg,Blue_Plus_Stripes_3.jpg,Red_Circle_Chess_1.jpg,left,677.9749999986961,true,low,false
6VtRFwQ9,3mdwe879vkfdd3966pwqlqs1zxrb9a,3lbxntkx0v8mdqa12ntaz7fk5t09x0,6VtRFwQ9,2020-0188,2020-06-04,13:16:34,13:45:39,NA,incomplete,87,shape,0,1,left,Green_Star_Chess_4.jpg,Red_Star_Grid_3.jpg,Purple_Triangle_Chess_1.jpg,left,583.6999999592081,true,low,false
6VtRFwQ9,3mdwe879vkfdd3966pwqlqs1zxrb9a,3lbxntkx0v8mdqa12ntaz7fk5t09x0,6VtRFwQ9,2020-0188,2020-06-04,13:16:34,13:45:39,NA,incomplete,88,shape,0,0,left,Blue_Circle_Grid_2.jpg,Green_Circle_Stripes_1.jpg,Purple_Triangle_Grid_3.jpg,left,748.9700000733137,true,low,false
6VtRFwQ9,3mdwe879vkfdd3966pwqlqs1zxrb9a,3lbxntkx0v8mdqa12ntaz7fk5t09x0,6VtRFwQ9,2020-0188,2020-06-04,13:16:34,13:45:39,NA,incomplete,89,shape,0,1,right,Red_Plus_Dots_1.jpg,Blue_Triangle_Dots_3.jpg,Purple_Plus_Chess_4.jpg,right,639.9049999890849,true,low,false
6VtRFwQ9,3mdwe879vkfdd3966pwqlqs1zxrb9a,3lbxntkx0v8mdqa12ntaz7fk5t09x0,6VtRFwQ9,2020-0188,2020-06-04,13:16:34,13:45:39,NA,incomplete,90,filling,1,0,left,Red_Circle_Grid_1.jpg,Purple_Star_Grid_2.jpg,Blue_Circle_Dots_3.jpg,right,589.6349999820814,false,low,false
6VtRFwQ9,3mdwe879vkfdd3966pwqlqs1zxrb9a,3lbxntkx0v8mdqa12ntaz7fk5t09x0,6VtRFwQ9,2020-0188,2020-06-04,13:16:34,13:45:39,NA,incomplete,91,filling,1,1,left,Red_Circle_Grid_2.jpg,Green_Plus_Grid_4.jpg,Purple_Circle_Dots_3.jpg,right,548.270000028424,false,low,false
6VtRFwQ9,3mdwe879vkfdd3966pwqlqs1zxrb9a,3lbxntkx0v8mdqa12ntaz7fk5t09x0,6VtRFwQ9,2020-0188,2020-06-04,13:16:34,13:45:39,NA,incomplete,92,filling,1,0,right,Blue_Plus_Stripes_3.jpg,Red_Plus_Chess_4.jpg,Purple_Circle_Stripes_1.jpg,left,619.8399999411777,false,low,false
6VtRFwQ9,3mdwe879vkfdd3966pwqlqs1zxrb9a,3lbxntkx0v8mdqa12ntaz7fk5t09x0,6VtRFwQ9,2020-0188,2020-06-04,13:16:34,13:45:39,NA,incomplete,93,filling,1,1,left,Green_Triangle_Grid_2.jpg,Blue_Star_Grid_3.jpg,Purple_Triangle_Stripes_4.jpg,right,547.0949999289587,false,low,false
6VtRFwQ9,3mdwe879vkfdd3966pwqlqs1zxrb9a,3lbxntkx0v8mdqa12ntaz7fk5t09x0,6VtRFwQ9,2020-0188,2020-06-04,13:16:34,13:45:39,NA,incomplete,94,filling,1,1,left,Blue_Plus_Grid_4.jpg,Green_Star_Grid_1.jpg,Red_Plus_Chess_3.jpg,right,522.2300000023097,false,low,false
6VtRFwQ9,3mdwe879vkfdd3966pwqlqs1zxrb9a,3lbxntkx0v8mdqa12ntaz7fk5t09x0,6VtRFwQ9,2020-0188,2020-06-04,13:16:34,13:45:39,NA,incomplete,95,filling,1,1,left,Blue_Plus_Stripes_4.jpg,Red_Circle_Stripes_1.jpg,Purple_Plus_Dots_2.jpg,right,660.0999999791384,false,low,false
6VtRFwQ9,3mdwe879vkfdd3966pwqlqs1zxrb9a,3lbxntkx0v8mdqa12ntaz7fk5t09x0,6VtRFwQ9,2020-0188,2020-06-04,13:16:34,13:45:39,NA,incomplete,96,filling,1,0,left,Blue_Triangle_Chess_1.jpg,Purple_Star_Chess_2.jpg,Red_Triangle_Grid_3.jpg,left,807.7500000363216,true,low,false
6VtRFwQ9,3mdwe879vkfdd3966pwqlqs1zxrb9a,3lbxntkx0v8mdqa12ntaz7fk5t09x0,6VtRFwQ9,2020-0188,2020-06-04,13:16:34,13:45:39,NA,incomplete,97,filling,1,0,right,Blue_Plus_Grid_4.jpg,Purple_Plus_Stripes_1.jpg,Red_Circle_Grid_2.jpg,right,985.8399999793619,true,low,false
6VtRFwQ9,3mdwe879vkfdd3966pwqlqs1zxrb9a,3lbxntkx0v8mdqa12ntaz7fk5t09x0,6VtRFwQ9,2020-0188,2020-06-04,13:16:34,13:45:39,NA,incomplete,98,filling,1,0,left,Purple_Star_Grid_1.jpg,Red_Circle_Grid_3.jpg,Blue_Star_Chess_4.jpg,left,930.409999913536,true,low,false
6VtRFwQ9,3mdwe879vkfdd3966pwqlqs1zxrb9a,3lbxntkx0v8mdqa12ntaz7fk5t09x0,6VtRFwQ9,2020-0188,2020-06-04,13:16:34,13:45:39,NA,incomplete,99,filling,1,1,left,Purple_Plus_Chess_4.jpg,Green_Circle_Chess_2.jpg,Blue_Plus_Grid_3.jpg,right,662.2150000184774,false,low,false
6VtRFwQ9,3mdwe879vkfdd3966pwqlqs1zxrb9a,3lbxntkx0v8mdqa12ntaz7fk5t09x0,6VtRFwQ9,2020-0188,2020-06-04,13:16:34,13:45:39,NA,incomplete,100,filling,1,1,right,Purple_Triangle_Chess_2.jpg,Blue_Triangle_Grid_4.jpg,Green_Plus_Chess_3.jpg,left,518.1050000246614,false,low,false
6VtRFwQ9,3mdwe879vkfdd3966pwqlqs1zxrb9a,3lbxntkx0v8mdqa12ntaz7fk5t09x0,6VtRFwQ9,2020-0188,2020-06-04,13:16:34,13:45:39,NA,incomplete,101,filling,1,0,right,Purple_Circle_Stripes_4.jpg,Blue_Circle_Grid_3.jpg,Red_Star_Stripes_1.jpg,left,566.5000000735745,false,low,false
6VtRFwQ9,3mdwe879vkfdd3966pwqlqs1zxrb9a,3lbxntkx0v8mdqa12ntaz7fk5t09x0,6VtRFwQ9,2020-0188,2020-06-04,13:16:34,13:45:39,NA,incomplete,102,filling,1,1,left,Purple_Plus_Chess_2.jpg,Red_Star_Chess_1.jpg,Blue_Plus_Dots_3.jpg,right,738.9200000325218,false,low,false
6VtRFwQ9,3mdwe879vkfdd3966pwqlqs1zxrb9a,3lbxntkx0v8mdqa12ntaz7fk5t09x0,6VtRFwQ9,2020-0188,2020-06-04,13:16:34,13:45:39,NA,incomplete,103,filling,1,0,left,Red_Circle_Stripes_3.jpg,Blue_Star_Stripes_4.jpg,Green_Circle_Grid_2.jpg,left,853.4350000554696,true,low,false
6VtRFwQ9,3mdwe879vkfdd3966pwqlqs1zxrb9a,3lbxntkx0v8mdqa12ntaz7fk5t09x0,6VtRFwQ9,2020-0188,2020-06-04,13:16:34,13:45:39,NA,incomplete,104,filling,1,1,left,Blue_Star_Stripes_3.jpg,Purple_Plus_Stripes_2.jpg,Green_Star_Grid_4.jpg,left,1000.3999999025837,true,low,false
6VtRFwQ9,3mdwe879vkfdd3966pwqlqs1zxrb9a,3lbxntkx0v8mdqa12ntaz7fk5t09x0,6VtRFwQ9,2020-0188,2020-06-04,13:16:34,13:45:39,NA,incomplete,105,filling,1,0,right,Green_Circle_Dots_4.jpg,Blue_Circle_Chess_3.jpg,Purple_Plus_Dots_2.jpg,right,760.065000038594,true,low,false
6VtRFwQ9,3mdwe879vkfdd3966pwqlqs1zxrb9a,3lbxntkx0v8mdqa12ntaz7fk5t09x0,6VtRFwQ9,2020-0188,2020-06-04,13:16:34,13:45:39,NA,incomplete,106,filling,1,1,right,Purple_Plus_Grid_4.jpg,Blue_Plus_Chess_3.jpg,Red_Triangle_Grid_2.jpg,right,772.4800000432879,true,low,false
6VtRFwQ9,3mdwe879vkfdd3966pwqlqs1zxrb9a,3lbxntkx0v8mdqa12ntaz7fk5t09x0,6VtRFwQ9,2020-0188,2020-06-04,13:16:34,13:45:39,NA,incomplete,107,filling,1,1,right,Purple_Star_Grid_4.jpg,Blue_Star_Dots_1.jpg,Green_Triangle_Grid_3.jpg,right,928.3399999840185,true,low,false
6VtRFwQ9,3mdwe879vkfdd3966pwqlqs1zxrb9a,3lbxntkx0v8mdqa12ntaz7fk5t09x0,6VtRFwQ9,2020-0188,2020-06-04,13:16:34,13:45:39,NA,incomplete,108,filling,1,1,right,Purple_Plus_Stripes_4.jpg,Green_Plus_Grid_1.jpg,Blue_Triangle_Stripes_2.jpg,right,854.4300000648946,true,low,false
6VtRFwQ9,3mdwe879vkfdd3966pwqlqs1zxrb9a,3lbxntkx0v8mdqa12ntaz7fk5t09x0,6VtRFwQ9,2020-0188,2020-06-04,13:16:34,13:45:39,NA,incomplete,109,filling,1,0,left,Blue_Plus_Chess_2.jpg,Red_Star_Chess_3.jpg,Purple_Plus_Stripes_4.jpg,left,820.0149999465793,true,low,false
6VtRFwQ9,3mdwe879vkfdd3966pwqlqs1zxrb9a,3lbxntkx0v8mdqa12ntaz7fk5t09x0,6VtRFwQ9,2020-0188,2020-06-04,13:16:34,13:45:39,NA,incomplete,110,filling,1,1,right,Purple_Triangle_Chess_2.jpg,Red_Triangle_Dots_1.jpg,Blue_Plus_Chess_4.jpg,right,753.484999993816,true,low,false
6VtRFwQ9,3mdwe879vkfdd3966pwqlqs1zxrb9a,3lbxntkx0v8mdqa12ntaz7fk5t09x0,6VtRFwQ9,2020-0188,2020-06-04,13:16:34,13:45:39,NA,incomplete,111,filling,1,1,right,Green_Circle_Stripes_2.jpg,Blue_Circle_Chess_4.jpg,Purple_Star_Stripes_1.jpg,right,795.3849999466911,true,low,false
6VtRFwQ9,3mdwe879vkfdd3966pwqlqs1zxrb9a,3lbxntkx0v8mdqa12ntaz7fk5t09x0,6VtRFwQ9,2020-0188,2020-06-04,13:16:34,13:45:39,NA,incomplete,112,filling,1,1,right,Red_Circle_Dots_4.jpg,Green_Circle_Chess_3.jpg,Purple_Triangle_Dots_1.jpg,right,759.2050000093877,true,low,false
6VtRFwQ9,3mdwe879vkfdd3966pwqlqs1zxrb9a,3lbxntkx0v8mdqa12ntaz7fk5t09x0,6VtRFwQ9,2020-0188,2020-06-04,13:16:34,13:45:39,NA,incomplete,113,filling,1,0,right,Purple_Plus_Grid_2.jpg,Red_Plus_Stripes_1.jpg,Green_Star_Grid_4.jpg,right,806.1949999537319,true,low,false
6VtRFwQ9,3mdwe879vkfdd3966pwqlqs1zxrb9a,3lbxntkx0v8mdqa12ntaz7fk5t09x0,6VtRFwQ9,2020-0188,2020-06-04,13:16:34,13:45:39,NA,incomplete,114,filling,1,1,right,Blue_Plus_Stripes_2.jpg,Purple_Plus_Grid_4.jpg,Green_Circle_Stripes_1.jpg,right,984.3400000827387,true,low,false
6VtRFwQ9,3mdwe879vkfdd3966pwqlqs1zxrb9a,3lbxntkx0v8mdqa12ntaz7fk5t09x0,6VtRFwQ9,2020-0188,2020-06-04,13:16:34,13:45:39,NA,incomplete,115,filling,1,1,left,Purple_Triangle_Chess_3.jpg,Red_Circle_Chess_1.jpg,Green_Triangle_Stripes_4.jpg,left,868.0350000504404,true,low,false
6VtRFwQ9,3mdwe879vkfdd3966pwqlqs1zxrb9a,3lbxntkx0v8mdqa12ntaz7fk5t09x0,6VtRFwQ9,2020-0188,2020-06-04,13:16:34,13:45:39,NA,incomplete,116,filling,1,1,left,Red_Circle_Stripes_2.jpg,Green_Star_Stripes_4.jpg,Purple_Circle_Grid_1.jpg,right,744.1999999573454,false,low,false
6VtRFwQ9,3mdwe879vkfdd3966pwqlqs1zxrb9a,3lbxntkx0v8mdqa12ntaz7fk5t09x0,6VtRFwQ9,2020-0188,2020-06-04,13:16:34,13:45:39,NA,incomplete,117,filling,1,1,left,Blue_Triangle_Chess_1.jpg,Green_Circle_Chess_4.jpg,Red_Triangle_Grid_3.jpg,left,803.8950000191107,true,low,false
6VtRFwQ9,3mdwe879vkfdd3966pwqlqs1zxrb9a,3lbxntkx0v8mdqa12ntaz7fk5t09x0,6VtRFwQ9,2020-0188,2020-06-04,13:16:34,13:45:39,NA,incomplete,118,filling,1,1,left,Red_Circle_Stripes_4.jpg,Blue_Triangle_Stripes_2.jpg,Purple_Circle_Chess_1.jpg,left,811.8900000117719,true,low,false
6VtRFwQ9,3mdwe879vkfdd3966pwqlqs1zxrb9a,3lbxntkx0v8mdqa12ntaz7fk5t09x0,6VtRFwQ9,2020-0188,2020-06-04,13:16:34,13:45:39,NA,incomplete,119,filling,1,0,left,Blue_Plus_Stripes_4.jpg,Purple_Triangle_Stripes_3.jpg,Red_Plus_Grid_2.jpg,left,816.2850000662729,true,low,false
6VtRFwQ9,3mdwe879vkfdd3966pwqlqs1zxrb9a,3lbxntkx0v8mdqa12ntaz7fk5t09x0,6VtRFwQ9,2020-0188,2020-06-04,13:16:34,13:45:39,NA,incomplete,120,gender,2,0,right,C_F_05.jpg,C_M_01.jpg,A_F_16.jpg,NA,NA,NA,low,false
6VtRFwQ9,3mdwe879vkfdd3966pwqlqs1zxrb9a,3lbxntkx0v8mdqa12ntaz7fk5t09x0,6VtRFwQ9,2020-0188,2020-06-04,13:16:34,13:45:39,NA,incomplete,121,gender,2,1,right,A_M_06.jpg,A_F_07.jpg,C_M_14.jpg,right,1047.0650000497699,true,low,false
6VtRFwQ9,3mdwe879vkfdd3966pwqlqs1zxrb9a,3lbxntkx0v8mdqa12ntaz7fk5t09x0,6VtRFwQ9,2020-0188,2020-06-04,13:16:34,13:45:39,NA,incomplete,122,gender,2,1,right,C_M_16.jpg,C_F_11.jpg,A_M_12.jpg,right,811.0500000184402,true,low,false
6VtRFwQ9,3mdwe879vkfdd3966pwqlqs1zxrb9a,3lbxntkx0v8mdqa12ntaz7fk5t09x0,6VtRFwQ9,2020-0188,2020-06-04,13:16:34,13:45:39,NA,incomplete,123,gender,2,1,right,A_M_09.jpg,A_F_14.jpg,C_M_15.jpg,right,861.5449999924749,true,low,false
6VtRFwQ9,3mdwe879vkfdd3966pwqlqs1zxrb9a,3lbxntkx0v8mdqa12ntaz7fk5t09x0,6VtRFwQ9,2020-0188,2020-06-04,13:16:34,13:45:39,NA,incomplete,124,gender,2,1,right,A_M_10.jpg,A_F_06.jpg,C_M_07.jpg,right,925.5200000479817,true,low,false
6VtRFwQ9,3mdwe879vkfdd3966pwqlqs1zxrb9a,3lbxntkx0v8mdqa12ntaz7fk5t09x0,6VtRFwQ9,2020-0188,2020-06-04,13:16:34,13:45:39,NA,incomplete,125,gender,2,1,right,C_F_01.jpg,C_M_04.jpg,A_F_16.jpg,left,897.5349999964237,false,low,false
6VtRFwQ9,3mdwe879vkfdd3966pwqlqs1zxrb9a,3lbxntkx0v8mdqa12ntaz7fk5t09x0,6VtRFwQ9,2020-0188,2020-06-04,13:16:34,13:45:39,NA,incomplete,126,gender,2,0,left,A_M_03.jpg,C_M_15.jpg,A_F_11.jpg,left,870.2500000363216,true,low,false
6VtRFwQ9,3mdwe879vkfdd3966pwqlqs1zxrb9a,3lbxntkx0v8mdqa12ntaz7fk5t09x0,6VtRFwQ9,2020-0188,2020-06-04,13:16:34,13:45:39,NA,incomplete,127,gender,2,1,right,C_M_11.jpg,C_F_14.jpg,A_M_05.jpg,left,938.7400000123307,false,low,false
6VtRFwQ9,3mdwe879vkfdd3966pwqlqs1zxrb9a,3lbxntkx0v8mdqa12ntaz7fk5t09x0,6VtRFwQ9,2020-0188,2020-06-04,13:16:34,13:45:39,NA,incomplete,128,gender,2,1,right,C_F_11.jpg,C_M_12.jpg,A_F_03.jpg,left,1332.620000001043,false,low,false
6VtRFwQ9,3mdwe879vkfdd3966pwqlqs1zxrb9a,3lbxntkx0v8mdqa12ntaz7fk5t09x0,6VtRFwQ9,2020-0188,2020-06-04,13:16:34,13:45:39,NA,incomplete,129,gender,2,0,left,C_M_08.jpg,A_M_14.jpg,C_F_01.jpg,left,967.6599999656901,true,low,false
6VtRFwQ9,3mdwe879vkfdd3966pwqlqs1zxrb9a,3lbxntkx0v8mdqa12ntaz7fk5t09x0,6VtRFwQ9,2020-0188,2020-06-04,13:16:34,13:45:39,NA,incomplete,130,gender,2,1,left,C_F_04.jpg,A_F_01.jpg,C_M_14.jpg,right,1025.0399999786168,false,low,false
6VtRFwQ9,3mdwe879vkfdd3966pwqlqs1zxrb9a,3lbxntkx0v8mdqa12ntaz7fk5t09x0,6VtRFwQ9,2020-0188,2020-06-04,13:16:34,13:45:39,NA,incomplete,131,gender,2,1,right,C_F_09.jpg,C_M_04.jpg,A_F_01.jpg,left,1251.5699999639764,false,low,false
6VtRFwQ9,3mdwe879vkfdd3966pwqlqs1zxrb9a,3lbxntkx0v8mdqa12ntaz7fk5t09x0,6VtRFwQ9,2020-0188,2020-06-04,13:16:34,13:45:39,NA,incomplete,132,gender,2,1,right,C_F_09.jpg,C_M_05.jpg,A_F_12.jpg,right,910.8450000640005,true,low,false
6VtRFwQ9,3mdwe879vkfdd3966pwqlqs1zxrb9a,3lbxntkx0v8mdqa12ntaz7fk5t09x0,6VtRFwQ9,2020-0188,2020-06-04,13:16:34,13:45:39,NA,incomplete,133,gender,2,1,right,C_F_01.jpg,C_M_15.jpg,A_F_08.jpg,left,1168.3249999769032,false,low,false
6VtRFwQ9,3mdwe879vkfdd3966pwqlqs1zxrb9a,3lbxntkx0v8mdqa12ntaz7fk5t09x0,6VtRFwQ9,2020-0188,2020-06-04,13:16:34,13:45:39,NA,incomplete,134,gender,2,1,left,A_M_04.jpg,C_M_02.jpg,A_F_15.jpg,left,834.5599999884143,true,low,false
6VtRFwQ9,3mdwe879vkfdd3966pwqlqs1zxrb9a,3lbxntkx0v8mdqa12ntaz7fk5t09x0,6VtRFwQ9,2020-0188,2020-06-04,13:16:34,13:45:39,NA,incomplete,135,gender,2,0,left,A_F_13.jpg,C_F_12.jpg,A_M_14.jpg,left,699.8299999395385,true,low,false
6VtRFwQ9,3mdwe879vkfdd3966pwqlqs1zxrb9a,3lbxntkx0v8mdqa12ntaz7fk5t09x0,6VtRFwQ9,2020-0188,2020-06-04,13:16:34,13:45:39,NA,incomplete,136,gender,2,1,right,C_F_15.jpg,C_M_10.jpg,A_F_03.jpg,right,806.2799999024719,true,low,false
6VtRFwQ9,3mdwe879vkfdd3966pwqlqs1zxrb9a,3lbxntkx0v8mdqa12ntaz7fk5t09x0,6VtRFwQ9,2020-0188,2020-06-04,13:16:34,13:45:39,NA,incomplete,137,gender,2,1,left,A_M_12.jpg,C_M_10.jpg,A_F_15.jpg,left,930.6499999947846,true,low,false
6VtRFwQ9,3mdwe879vkfdd3966pwqlqs1zxrb9a,3lbxntkx0v8mdqa12ntaz7fk5t09x0,6VtRFwQ9,2020-0188,2020-06-04,13:16:34,13:45:39,NA,incomplete,138,gender,2,1,left,C_F_14.jpg,A_F_02.jpg,C_M_05.jpg,left,801.075000083074,true,low,false
6VtRFwQ9,3mdwe879vkfdd3966pwqlqs1zxrb9a,3lbxntkx0v8mdqa12ntaz7fk5t09x0,6VtRFwQ9,2020-0188,2020-06-04,13:16:34,13:45:39,NA,incomplete,139,gender,2,0,left,C_F_05.jpg,A_F_06.jpg,C_M_10.jpg,left,796.5800000820309,true,low,false
6VtRFwQ9,3mdwe879vkfdd3966pwqlqs1zxrb9a,3lbxntkx0v8mdqa12ntaz7fk5t09x0,6VtRFwQ9,2020-0188,2020-06-04,13:16:34,13:45:39,NA,incomplete,140,race,3,1,right,C_F_13.jpg,A_F_14.jpg,C_M_08.jpg,left,693.28000000678,false,low,false
6VtRFwQ9,3mdwe879vkfdd3966pwqlqs1zxrb9a,3lbxntkx0v8mdqa12ntaz7fk5t09x0,6VtRFwQ9,2020-0188,2020-06-04,13:16:34,13:45:39,NA,incomplete,141,race,3,1,right,A_F_02.jpg,C_F_15.jpg,A_M_13.jpg,left,988.8350000837818,false,low,false
6VtRFwQ9,3mdwe879vkfdd3966pwqlqs1zxrb9a,3lbxntkx0v8mdqa12ntaz7fk5t09x0,6VtRFwQ9,2020-0188,2020-06-04,13:16:34,13:45:39,NA,incomplete,142,race,3,1,left,A_M_04.jpg,A_F_11.jpg,C_M_12.jpg,left,932.5650000246242,true,low,false
6VtRFwQ9,3mdwe879vkfdd3966pwqlqs1zxrb9a,3lbxntkx0v8mdqa12ntaz7fk5t09x0,6VtRFwQ9,2020-0188,2020-06-04,13:16:34,13:45:39,NA,incomplete,143,race,3,1,right,A_F_05.jpg,C_F_04.jpg,A_M_12.jpg,right,903.2899999292567,true,low,false
6VtRFwQ9,3mdwe879vkfdd3966pwqlqs1zxrb9a,3lbxntkx0v8mdqa12ntaz7fk5t09x0,6VtRFwQ9,2020-0188,2020-06-04,13:16:34,13:45:39,NA,incomplete,144,race,3,0,left,A_F_13.jpg,A_M_02.jpg,C_F_11.jpg,right,956.2549999682233,false,low,false
6VtRFwQ9,3mdwe879vkfdd3966pwqlqs1zxrb9a,3lbxntkx0v8mdqa12ntaz7fk5t09x0,6VtRFwQ9,2020-0188,2020-06-04,13:16:34,13:45:39,NA,incomplete,145,race,3,1,left,A_M_09.jpg,A_F_11.jpg,C_M_12.jpg,left,995.2549999579787,true,low,false
6VtRFwQ9,3mdwe879vkfdd3966pwqlqs1zxrb9a,3lbxntkx0v8mdqa12ntaz7fk5t09x0,6VtRFwQ9,2020-0188,2020-06-04,13:16:34,13:45:39,NA,incomplete,146,race,3,1,left,A_M_10.jpg,A_F_08.jpg,C_M_07.jpg,right,980.3700000047684,false,low,false
6VtRFwQ9,3mdwe879vkfdd3966pwqlqs1zxrb9a,3lbxntkx0v8mdqa12ntaz7fk5t09x0,6VtRFwQ9,2020-0188,2020-06-04,13:16:34,13:45:39,NA,incomplete,147,race,3,1,left,A_F_07.jpg,A_M_08.jpg,C_F_14.jpg,right,1031.0499999905005,false,low,false
6VtRFwQ9,3mdwe879vkfdd3966pwqlqs1zxrb9a,3lbxntkx0v8mdqa12ntaz7fk5t09x0,6VtRFwQ9,2020-0188,2020-06-04,13:16:34,13:45:39,NA,incomplete,148,race,3,1,right,C_M_02.jpg,A_M_07.jpg,C_F_10.jpg,right,1115.6199999386445,true,low,false
6VtRFwQ9,3mdwe879vkfdd3966pwqlqs1zxrb9a,3lbxntkx0v8mdqa12ntaz7fk5t09x0,6VtRFwQ9,2020-0188,2020-06-04,13:16:34,13:45:39,NA,incomplete,149,race,3,1,right,C_M_05.jpg,A_M_10.jpg,C_F_11.jpg,right,908.4849999053404,true,low,false
6VtRFwQ9,3mdwe879vkfdd3966pwqlqs1zxrb9a,3lbxntkx0v8mdqa12ntaz7fk5t09x0,6VtRFwQ9,2020-0188,2020-06-04,13:16:34,13:45:39,NA,incomplete,150,race,3,1,right,C_F_14.jpg,A_F_16.jpg,C_M_08.jpg,right,1012.224999954924,true,low,false
6VtRFwQ9,3mdwe879vkfdd3966pwqlqs1zxrb9a,3lbxntkx0v8mdqa12ntaz7fk5t09x0,6VtRFwQ9,2020-0188,2020-06-04,13:16:34,13:45:39,NA,incomplete,151,race,3,1,left,A_M_07.jpg,A_F_01.jpg,C_M_11.jpg,left,882.6799999224022,true,low,false
6VtRFwQ9,3mdwe879vkfdd3966pwqlqs1zxrb9a,3lbxntkx0v8mdqa12ntaz7fk5t09x0,6VtRFwQ9,2020-0188,2020-06-04,13:16:34,13:45:39,NA,incomplete,152,race,3,1,left,A_M_16.jpg,A_F_13.jpg,C_M_06.jpg,left,824.3050000164658,true,low,false
6VtRFwQ9,3mdwe879vkfdd3966pwqlqs1zxrb9a,3lbxntkx0v8mdqa12ntaz7fk5t09x0,6VtRFwQ9,2020-0188,2020-06-04,13:16:34,13:45:39,NA,incomplete,153,race,3,1,left,C_M_05.jpg,C_F_10.jpg,A_M_03.jpg,right,1122.2950000083074,false,low,false
6VtRFwQ9,3mdwe879vkfdd3966pwqlqs1zxrb9a,3lbxntkx0v8mdqa12ntaz7fk5t09x0,6VtRFwQ9,2020-0188,2020-06-04,13:16:34,13:45:39,NA,incomplete,154,race,3,1,right,C_M_03.jpg,A_M_08.jpg,C_F_09.jpg,right,927.2600000258535,true,low,false
6VtRFwQ9,3mdwe879vkfdd3966pwqlqs1zxrb9a,3lbxntkx0v8mdqa12ntaz7fk5t09x0,6VtRFwQ9,2020-0188,2020-06-04,13:16:34,13:45:39,NA,incomplete,155,race,3,1,right,C_F_15.jpg,A_F_12.jpg,C_M_10.jpg,right,892.8799999412149,true,low,false
6VtRFwQ9,3mdwe879vkfdd3966pwqlqs1zxrb9a,3lbxntkx0v8mdqa12ntaz7fk5t09x0,6VtRFwQ9,2020-0188,2020-06-04,13:16:34,13:45:39,NA,incomplete,156,race,3,1,right,C_F_11.jpg,A_F_02.jpg,C_M_01.jpg,right,962.8500000108033,true,low,false
6VtRFwQ9,3mdwe879vkfdd3966pwqlqs1zxrb9a,3lbxntkx0v8mdqa12ntaz7fk5t09x0,6VtRFwQ9,2020-0188,2020-06-04,13:16:34,13:45:39,NA,incomplete,157,race,3,1,right,C_M_13.jpg,A_M_01.jpg,C_F_09.jpg,right,914.7349999984726,true,low,false
6VtRFwQ9,3mdwe879vkfdd3966pwqlqs1zxrb9a,3lbxntkx0v8mdqa12ntaz7fk5t09x0,6VtRFwQ9,2020-0188,2020-06-04,13:16:34,13:45:39,NA,incomplete,158,race,3,1,right,C_F_04.jpg,A_F_10.jpg,C_M_12.jpg,left,1058.5799999535084,false,low,false
6VtRFwQ9,3mdwe879vkfdd3966pwqlqs1zxrb9a,3lbxntkx0v8mdqa12ntaz7fk5t09x0,6VtRFwQ9,2020-0188,2020-06-04,13:16:34,13:45:39,NA,incomplete,159,race,3,1,right,C_M_13.jpg,A_M_09.jpg,C_F_14.jpg,right,997.3349999636412,true,low,false
6VtRFwQ9,3mdwe879vkfdd3966pwqlqs1zxrb9a,3lbxntkx0v8mdqa12ntaz7fk5t09x0,6VtRFwQ9,2020-0188,2020-06-04,13:16:34,13:45:39,NA,incomplete,160,gender,2,1,right,A_M_16.jpg,A_F_07.jpg,C_M_13.jpg,right,931.8900000071153,true,low,false
6VtRFwQ9,3mdwe879vkfdd3966pwqlqs1zxrb9a,3lbxntkx0v8mdqa12ntaz7fk5t09x0,6VtRFwQ9,2020-0188,2020-06-04,13:16:34,13:45:39,NA,incomplete,161,gender,2,0,right,C_F_16.jpg,C_M_06.jpg,A_F_02.jpg,left,1052.8599999379367,false,low,false
6VtRFwQ9,3mdwe879vkfdd3966pwqlqs1zxrb9a,3lbxntkx0v8mdqa12ntaz7fk5t09x0,6VtRFwQ9,2020-0188,2020-06-04,13:16:34,13:45:39,NA,incomplete,162,gender,2,1,left,A_M_10.jpg,C_M_08.jpg,A_F_05.jpg,right,1158.7799999397248,false,low,false
6VtRFwQ9,3mdwe879vkfdd3966pwqlqs1zxrb9a,3lbxntkx0v8mdqa12ntaz7fk5t09x0,6VtRFwQ9,2020-0188,2020-06-04,13:16:34,13:45:39,NA,incomplete,163,gender,2,0,right,A_F_07.jpg,A_M_09.jpg,C_F_05.jpg,left,1000.4900000058115,false,low,false
6VtRFwQ9,3mdwe879vkfdd3966pwqlqs1zxrb9a,3lbxntkx0v8mdqa12ntaz7fk5t09x0,6VtRFwQ9,2020-0188,2020-06-04,13:16:34,13:45:39,NA,incomplete,164,gender,2,1,right,C_M_12.jpg,C_F_04.jpg,A_M_15.jpg,right,992.2150000929832,true,low,false
6VtRFwQ9,3mdwe879vkfdd3966pwqlqs1zxrb9a,3lbxntkx0v8mdqa12ntaz7fk5t09x0,6VtRFwQ9,2020-0188,2020-06-04,13:16:34,13:45:39,NA,incomplete,165,gender,2,1,left,A_M_12.jpg,C_M_11.jpg,A_F_01.jpg,left,886.9150000391528,true,low,false
6VtRFwQ9,3mdwe879vkfdd3966pwqlqs1zxrb9a,3lbxntkx0v8mdqa12ntaz7fk5t09x0,6VtRFwQ9,2020-0188,2020-06-04,13:16:34,13:45:39,NA,incomplete,166,gender,2,1,right,A_M_02.jpg,A_F_13.jpg,C_M_06.jpg,left,997.1800000639632,false,low,false
6VtRFwQ9,3mdwe879vkfdd3966pwqlqs1zxrb9a,3lbxntkx0v8mdqa12ntaz7fk5t09x0,6VtRFwQ9,2020-0188,2020-06-04,13:16:34,13:45:39,NA,incomplete,167,gender,2,0,right,A_F_14.jpg,A_M_06.jpg,C_F_13.jpg,left,1147.9449999751523,false,low,false
6VtRFwQ9,3mdwe879vkfdd3966pwqlqs1zxrb9a,3lbxntkx0v8mdqa12ntaz7fk5t09x0,6VtRFwQ9,2020-0188,2020-06-04,13:16:34,13:45:39,NA,incomplete,168,gender,2,1,left,A_F_08.jpg,C_F_03.jpg,A_M_04.jpg,right,966.5149999782443,false,low,false
6VtRFwQ9,3mdwe879vkfdd3966pwqlqs1zxrb9a,3lbxntkx0v8mdqa12ntaz7fk5t09x0,6VtRFwQ9,2020-0188,2020-06-04,13:16:34,13:45:39,NA,incomplete,169,gender,2,1,right,A_F_07.jpg,A_M_16.jpg,C_F_08.jpg,left,927.4800000712276,false,low,false
6VtRFwQ9,3mdwe879vkfdd3966pwqlqs1zxrb9a,3lbxntkx0v8mdqa12ntaz7fk5t09x0,6VtRFwQ9,2020-0188,2020-06-04,13:16:34,13:45:39,NA,incomplete,170,gender,2,0,right,C_F_12.jpg,C_M_08.jpg,A_F_13.jpg,right,838.495000032708,true,low,false
6VtRFwQ9,3mdwe879vkfdd3966pwqlqs1zxrb9a,3lbxntkx0v8mdqa12ntaz7fk5t09x0,6VtRFwQ9,2020-0188,2020-06-04,13:16:34,13:45:39,NA,incomplete,171,gender,2,1,left,C_M_07.jpg,A_M_15.jpg,C_F_12.jpg,left,878.3299999777228,true,low,false
6VtRFwQ9,3mdwe879vkfdd3966pwqlqs1zxrb9a,3lbxntkx0v8mdqa12ntaz7fk5t09x0,6VtRFwQ9,2020-0188,2020-06-04,13:16:34,13:45:39,NA,incomplete,172,gender,2,1,left,C_M_15.jpg,A_M_04.jpg,C_F_05.jpg,left,869.8600000934675,true,low,false
6VtRFwQ9,3mdwe879vkfdd3966pwqlqs1zxrb9a,3lbxntkx0v8mdqa12ntaz7fk5t09x0,6VtRFwQ9,2020-0188,2020-06-04,13:16:34,13:45:39,NA,incomplete,173,gender,2,1,left,A_M_16.jpg,C_M_11.jpg,A_F_07.jpg,left,841.870000003837,true,low,false
6VtRFwQ9,3mdwe879vkfdd3966pwqlqs1zxrb9a,3lbxntkx0v8mdqa12ntaz7fk5t09x0,6VtRFwQ9,2020-0188,2020-06-04,13:16:34,13:45:39,NA,incomplete,174,gender,2,0,right,C_F_10.jpg,C_M_06.jpg,A_F_04.jpg,right,769.8749999981374,true,low,false
6VtRFwQ9,3mdwe879vkfdd3966pwqlqs1zxrb9a,3lbxntkx0v8mdqa12ntaz7fk5t09x0,6VtRFwQ9,2020-0188,2020-06-04,13:16:34,13:45:39,NA,incomplete,175,gender,2,1,left,C_F_04.jpg,A_F_03.jpg,C_M_12.jpg,left,614.8350000148639,true,low,false
6VtRFwQ9,3mdwe879vkfdd3966pwqlqs1zxrb9a,3lbxntkx0v8mdqa12ntaz7fk5t09x0,6VtRFwQ9,2020-0188,2020-06-04,13:16:34,13:45:39,NA,incomplete,176,gender,2,1,right,C_M_16.jpg,C_F_07.jpg,A_M_03.jpg,right,742.1849999809638,true,low,false
6VtRFwQ9,3mdwe879vkfdd3966pwqlqs1zxrb9a,3lbxntkx0v8mdqa12ntaz7fk5t09x0,6VtRFwQ9,2020-0188,2020-06-04,13:16:34,13:45:39,NA,incomplete,177,gender,2,0,right,C_F_01.jpg,C_M_11.jpg,A_F_15.jpg,left,927.3199999006465,false,low,false
6VtRFwQ9,3mdwe879vkfdd3966pwqlqs1zxrb9a,3lbxntkx0v8mdqa12ntaz7fk5t09x0,6VtRFwQ9,2020-0188,2020-06-04,13:16:34,13:45:39,NA,incomplete,178,gender,2,1,right,C_M_06.jpg,C_F_08.jpg,A_M_03.jpg,right,907.685000100173,true,low,false
6VtRFwQ9,3mdwe879vkfdd3966pwqlqs1zxrb9a,3lbxntkx0v8mdqa12ntaz7fk5t09x0,6VtRFwQ9,2020-0188,2020-06-04,13:16:34,13:45:39,NA,incomplete,179,gender,2,1,right,A_F_01.jpg,A_M_16.jpg,C_F_11.jpg,right,724.8600000748411,true,low,false
6VtRFwQ9,3mdwe879vkfdd3966pwqlqs1zxrb9a,3lbxntkx0v8mdqa12ntaz7fk5t09x0,6VtRFwQ9,2020-0188,2020-06-04,13:16:34,13:45:39,NA,incomplete,180,race,3,1,right,C_F_14.jpg,A_F_13.jpg,C_M_06.jpg,left,693.5550000052899,false,low,false
6VtRFwQ9,3mdwe879vkfdd3966pwqlqs1zxrb9a,3lbxntkx0v8mdqa12ntaz7fk5t09x0,6VtRFwQ9,2020-0188,2020-06-04,13:16:34,13:45:39,NA,incomplete,181,race,3,1,left,A_F_13.jpg,A_M_10.jpg,C_F_07.jpg,right,815.2600000612438,false,low,false
6VtRFwQ9,3mdwe879vkfdd3966pwqlqs1zxrb9a,3lbxntkx0v8mdqa12ntaz7fk5t09x0,6VtRFwQ9,2020-0188,2020-06-04,13:16:34,13:45:39,NA,incomplete,182,race,3,1,left,A_M_08.jpg,A_F_09.jpg,C_M_15.jpg,right,877.3950000759214,false,low,false
6VtRFwQ9,3mdwe879vkfdd3966pwqlqs1zxrb9a,3lbxntkx0v8mdqa12ntaz7fk5t09x0,6VtRFwQ9,2020-0188,2020-06-04,13:16:34,13:45:39,NA,incomplete,183,race,3,1,right,A_M_05.jpg,C_M_07.jpg,A_F_09.jpg,right,872.679999913089,true,low,false
6VtRFwQ9,3mdwe879vkfdd3966pwqlqs1zxrb9a,3lbxntkx0v8mdqa12ntaz7fk5t09x0,6VtRFwQ9,2020-0188,2020-06-04,13:16:34,13:45:39,NA,incomplete,184,race,3,1,right,A_M_12.jpg,C_M_13.jpg,A_F_03.jpg,right,910.4900000384077,true,low,false
6VtRFwQ9,3mdwe879vkfdd3966pwqlqs1zxrb9a,3lbxntkx0v8mdqa12ntaz7fk5t09x0,6VtRFwQ9,2020-0188,2020-06-04,13:16:34,13:45:39,NA,incomplete,185,race,3,1,left,C_F_13.jpg,C_M_07.jpg,A_F_04.jpg,left,1198.5850000055507,true,low,false
6VtRFwQ9,3mdwe879vkfdd3966pwqlqs1zxrb9a,3lbxntkx0v8mdqa12ntaz7fk5t09x0,6VtRFwQ9,2020-0188,2020-06-04,13:16:34,13:45:39,NA,incomplete,186,race,3,1,right,C_M_02.jpg,A_M_16.jpg,C_F_04.jpg,right,877.8249999741092,true,low,false
6VtRFwQ9,3mdwe879vkfdd3966pwqlqs1zxrb9a,3lbxntkx0v8mdqa12ntaz7fk5t09x0,6VtRFwQ9,2020-0188,2020-06-04,13:16:34,13:45:39,NA,incomplete,187,race,3,1,right,A_F_04.jpg,C_F_06.jpg,A_M_05.jpg,left,906.2200000043958,false,low,false
6VtRFwQ9,3mdwe879vkfdd3966pwqlqs1zxrb9a,3lbxntkx0v8mdqa12ntaz7fk5t09x0,6VtRFwQ9,2020-0188,2020-06-04,13:16:34,13:45:39,NA,incomplete,188,race,3,1,left,A_M_12.jpg,A_F_09.jpg,C_M_07.jpg,left,1468.7999999150634,true,low,false
6VtRFwQ9,3mdwe879vkfdd3966pwqlqs1zxrb9a,3lbxntkx0v8mdqa12ntaz7fk5t09x0,6VtRFwQ9,2020-0188,2020-06-04,13:16:34,13:45:39,NA,incomplete,189,race,3,1,left,A_M_08.jpg,A_F_10.jpg,C_M_02.jpg,left,720.365000073798,true,low,false
6VtRFwQ9,3mdwe879vkfdd3966pwqlqs1zxrb9a,3lbxntkx0v8mdqa12ntaz7fk5t09x0,6VtRFwQ9,2020-0188,2020-06-04,13:16:34,13:45:39,NA,incomplete,190,race,3,0,left,A_F_10.jpg,A_M_15.jpg,C_F_02.jpg,left,986.0400001052767,true,low,false
6VtRFwQ9,3mdwe879vkfdd3966pwqlqs1zxrb9a,3lbxntkx0v8mdqa12ntaz7fk5t09x0,6VtRFwQ9,2020-0188,2020-06-04,13:16:34,13:45:39,NA,incomplete,191,race,3,1,right,C_M_16.jpg,A_M_08.jpg,C_F_03.jpg,right,1128.6950000794604,true,low,false
6VtRFwQ9,3mdwe879vkfdd3966pwqlqs1zxrb9a,3lbxntkx0v8mdqa12ntaz7fk5t09x0,6VtRFwQ9,2020-0188,2020-06-04,13:16:34,13:45:39,NA,incomplete,192,race,3,1,right,A_F_02.jpg,C_F_16.jpg,A_M_10.jpg,right,944.0100000938401,true,low,false
6VtRFwQ9,3mdwe879vkfdd3966pwqlqs1zxrb9a,3lbxntkx0v8mdqa12ntaz7fk5t09x0,6VtRFwQ9,2020-0188,2020-06-04,13:16:34,13:45:39,NA,incomplete,193,race,3,0,right,C_M_02.jpg,A_M_09.jpg,C_F_06.jpg,right,857.9250000184402,true,low,false
6VtRFwQ9,3mdwe879vkfdd3966pwqlqs1zxrb9a,3lbxntkx0v8mdqa12ntaz7fk5t09x0,6VtRFwQ9,2020-0188,2020-06-04,13:16:34,13:45:39,NA,incomplete,194,race,3,1,left,A_M_01.jpg,A_F_04.jpg,C_M_06.jpg,left,714.3950000172481,true,low,false
6VtRFwQ9,3mdwe879vkfdd3966pwqlqs1zxrb9a,3lbxntkx0v8mdqa12ntaz7fk5t09x0,6VtRFwQ9,2020-0188,2020-06-04,13:16:34,13:45:39,NA,incomplete,195,race,3,1,right,C_M_10.jpg,A_M_06.jpg,C_F_14.jpg,right,862.3399999924004,true,low,false
6VtRFwQ9,3mdwe879vkfdd3966pwqlqs1zxrb9a,3lbxntkx0v8mdqa12ntaz7fk5t09x0,6VtRFwQ9,2020-0188,2020-06-04,13:16:34,13:45:39,NA,incomplete,196,race,3,1,right,C_F_08.jpg,A_F_14.jpg,C_M_06.jpg,right,1016.6449999669567,true,low,false
6VtRFwQ9,3mdwe879vkfdd3966pwqlqs1zxrb9a,3lbxntkx0v8mdqa12ntaz7fk5t09x0,6VtRFwQ9,2020-0188,2020-06-04,13:16:34,13:45:39,NA,incomplete,197,race,3,1,right,C_F_01.jpg,A_F_12.jpg,C_M_16.jpg,right,977.2249999223277,true,low,false
6VtRFwQ9,3mdwe879vkfdd3966pwqlqs1zxrb9a,3lbxntkx0v8mdqa12ntaz7fk5t09x0,6VtRFwQ9,2020-0188,2020-06-04,13:16:34,13:45:39,NA,incomplete,198,race,3,1,right,A_M_11.jpg,C_M_15.jpg,A_F_05.jpg,right,1399.4299999903888,true,low,false
6VtRFwQ9,3mdwe879vkfdd3966pwqlqs1zxrb9a,3lbxntkx0v8mdqa12ntaz7fk5t09x0,6VtRFwQ9,2020-0188,2020-06-04,13:16:34,13:45:39,NA,incomplete,199,race,3,1,left,A_F_05.jpg,A_M_08.jpg,C_F_16.jpg,left,817.6550000207499,true,low,false
6VtRFwQ9,3mdwe879vkfdd3966pwqlqs1zxrb9a,3lbxntkx0v8mdqa12ntaz7fk5t09x0,6VtRFwQ9,2020-0188,2020-06-04,13:16:34,13:45:39,NA,incomplete,200,gender,2,1,right,C_F_13.jpg,C_M_09.jpg,A_F_01.jpg,left,980.974999954924,false,low,false
6VtRFwQ9,3mdwe879vkfdd3966pwqlqs1zxrb9a,3lbxntkx0v8mdqa12ntaz7fk5t09x0,6VtRFwQ9,2020-0188,2020-06-04,13:16:34,13:45:39,NA,incomplete,201,gender,2,0,left,C_F_16.jpg,A_F_14.jpg,C_M_06.jpg,right,871.140000061132,false,low,false
6VtRFwQ9,3mdwe879vkfdd3966pwqlqs1zxrb9a,3lbxntkx0v8mdqa12ntaz7fk5t09x0,6VtRFwQ9,2020-0188,2020-06-04,13:16:34,13:45:39,NA,incomplete,202,gender,2,1,right,C_M_01.jpg,C_F_14.jpg,A_M_04.jpg,left,830.8249999536201,false,low,false
6VtRFwQ9,3mdwe879vkfdd3966pwqlqs1zxrb9a,3lbxntkx0v8mdqa12ntaz7fk5t09x0,6VtRFwQ9,2020-0188,2020-06-04,13:16:34,13:45:39,NA,incomplete,203,gender,2,1,right,C_M_12.jpg,C_F_14.jpg,A_M_13.jpg,left,908.5050000576302,false,low,false
6VtRFwQ9,3mdwe879vkfdd3966pwqlqs1zxrb9a,3lbxntkx0v8mdqa12ntaz7fk5t09x0,6VtRFwQ9,2020-0188,2020-06-04,13:16:34,13:45:39,NA,incomplete,204,gender,2,1,right,C_F_13.jpg,C_M_02.jpg,A_F_14.jpg,right,743.5199999017641,true,low,false
6VtRFwQ9,3mdwe879vkfdd3966pwqlqs1zxrb9a,3lbxntkx0v8mdqa12ntaz7fk5t09x0,6VtRFwQ9,2020-0188,2020-06-04,13:16:34,13:45:39,NA,incomplete,205,gender,2,0,left,C_M_01.jpg,A_M_15.jpg,C_F_10.jpg,left,789.5649999845773,true,low,false
6VtRFwQ9,3mdwe879vkfdd3966pwqlqs1zxrb9a,3lbxntkx0v8mdqa12ntaz7fk5t09x0,6VtRFwQ9,2020-0188,2020-06-04,13:16:34,13:45:39,NA,incomplete,206,gender,2,1,right,C_F_01.jpg,C_M_10.jpg,A_F_13.jpg,left,887.6300000119954,false,low,false
6VtRFwQ9,3mdwe879vkfdd3966pwqlqs1zxrb9a,3lbxntkx0v8mdqa12ntaz7fk5t09x0,6VtRFwQ9,2020-0188,2020-06-04,13:16:34,13:45:39,NA,incomplete,207,gender,2,1,right,A_M_10.jpg,A_F_08.jpg,C_M_04.jpg,right,963.7299999594688,true,low,false
6VtRFwQ9,3mdwe879vkfdd3966pwqlqs1zxrb9a,3lbxntkx0v8mdqa12ntaz7fk5t09x0,6VtRFwQ9,2020-0188,2020-06-04,13:16:34,13:45:39,NA,incomplete,208,gender,2,1,left,C_F_09.jpg,A_F_04.jpg,C_M_15.jpg,left,1008.6450000526384,true,low,false
6VtRFwQ9,3mdwe879vkfdd3966pwqlqs1zxrb9a,3lbxntkx0v8mdqa12ntaz7fk5t09x0,6VtRFwQ9,2020-0188,2020-06-04,13:16:34,13:45:39,NA,incomplete,209,gender,2,1,right,A_M_01.jpg,A_F_11.jpg,C_M_09.jpg,right,766.6550000431016,true,low,false
6VtRFwQ9,3mdwe879vkfdd3966pwqlqs1zxrb9a,3lbxntkx0v8mdqa12ntaz7fk5t09x0,6VtRFwQ9,2020-0188,2020-06-04,13:16:34,13:45:39,NA,incomplete,210,gender,2,1,left,C_M_12.jpg,A_M_04.jpg,C_F_14.jpg,left,685.0300000514835,true,low,false
6VtRFwQ9,3mdwe879vkfdd3966pwqlqs1zxrb9a,3lbxntkx0v8mdqa12ntaz7fk5t09x0,6VtRFwQ9,2020-0188,2020-06-04,13:16:34,13:45:39,NA,incomplete,211,gender,2,0,left,C_F_05.jpg,A_F_13.jpg,C_M_08.jpg,left,966.3450000807643,true,low,false
6VtRFwQ9,3mdwe879vkfdd3966pwqlqs1zxrb9a,3lbxntkx0v8mdqa12ntaz7fk5t09x0,6VtRFwQ9,2020-0188,2020-06-04,13:16:34,13:45:39,NA,incomplete,212,gender,2,1,left,A_F_10.jpg,C_F_04.jpg,A_M_15.jpg,left,649.6250000782311,true,low,false
6VtRFwQ9,3mdwe879vkfdd3966pwqlqs1zxrb9a,3lbxntkx0v8mdqa12ntaz7fk5t09x0,6VtRFwQ9,2020-0188,2020-06-04,13:16:34,13:45:39,NA,incomplete,213,gender,2,0,right,A_F_12.jpg,A_M_09.jpg,C_F_01.jpg,right,622.3649999592453,true,low,false
6VtRFwQ9,3mdwe879vkfdd3966pwqlqs1zxrb9a,3lbxntkx0v8mdqa12ntaz7fk5t09x0,6VtRFwQ9,2020-0188,2020-06-04,13:16:34,13:45:39,NA,incomplete,214,gender,2,1,right,C_F_06.jpg,C_M_14.jpg,A_F_11.jpg,right,982.9499999759719,true,low,false
6VtRFwQ9,3mdwe879vkfdd3966pwqlqs1zxrb9a,3lbxntkx0v8mdqa12ntaz7fk5t09x0,6VtRFwQ9,2020-0188,2020-06-04,13:16:34,13:45:39,NA,incomplete,215,gender,2,1,left,A_M_05.jpg,C_M_07.jpg,A_F_06.jpg,left,1066.0749999806285,true,low,false
6VtRFwQ9,3mdwe879vkfdd3966pwqlqs1zxrb9a,3lbxntkx0v8mdqa12ntaz7fk5t09x0,6VtRFwQ9,2020-0188,2020-06-04,13:16:34,13:45:39,NA,incomplete,216,gender,2,1,left,C_M_16.jpg,A_M_13.jpg,C_F_08.jpg,left,762.1449999278411,true,low,false
6VtRFwQ9,3mdwe879vkfdd3966pwqlqs1zxrb9a,3lbxntkx0v8mdqa12ntaz7fk5t09x0,6VtRFwQ9,2020-0188,2020-06-04,13:16:34,13:45:39,NA,incomplete,217,gender,2,1,left,C_M_16.jpg,A_M_08.jpg,C_F_13.jpg,left,855.1750000333413,true,low,false
6VtRFwQ9,3mdwe879vkfdd3966pwqlqs1zxrb9a,3lbxntkx0v8mdqa12ntaz7fk5t09x0,6VtRFwQ9,2020-0188,2020-06-04,13:16:34,13:45:39,NA,incomplete,218,gender,2,0,right,A_F_16.jpg,A_M_15.jpg,C_F_03.jpg,right,592.5350000616163,true,low,false
6VtRFwQ9,3mdwe879vkfdd3966pwqlqs1zxrb9a,3lbxntkx0v8mdqa12ntaz7fk5t09x0,6VtRFwQ9,2020-0188,2020-06-04,13:16:34,13:45:39,NA,incomplete,219,gender,2,1,left,C_F_15.jpg,A_F_02.jpg,C_M_13.jpg,left,649.4950000196695,true,low,false
6VtRFwQ9,3mdwe879vkfdd3966pwqlqs1zxrb9a,3lbxntkx0v8mdqa12ntaz7fk5t09x0,6VtRFwQ9,2020-0188,2020-06-04,13:16:34,13:45:39,NA,incomplete,220,race,3,0,left,C_F_05.jpg,C_M_07.jpg,A_F_16.jpg,right,590.570000000298,false,low,false
6VtRFwQ9,3mdwe879vkfdd3966pwqlqs1zxrb9a,3lbxntkx0v8mdqa12ntaz7fk5t09x0,6VtRFwQ9,2020-0188,2020-06-04,13:16:34,13:45:39,NA,incomplete,221,race,3,1,left,A_F_14.jpg,A_M_12.jpg,C_F_11.jpg,right,661.9150000624359,false,low,false
6VtRFwQ9,3mdwe879vkfdd3966pwqlqs1zxrb9a,3lbxntkx0v8mdqa12ntaz7fk5t09x0,6VtRFwQ9,2020-0188,2020-06-04,13:16:34,13:45:39,NA,incomplete,222,race,3,1,right,A_M_16.jpg,C_M_02.jpg,A_F_01.jpg,left,564.0149998944253,false,low,false
6VtRFwQ9,3mdwe879vkfdd3966pwqlqs1zxrb9a,3lbxntkx0v8mdqa12ntaz7fk5t09x0,6VtRFwQ9,2020-0188,2020-06-04,13:16:34,13:45:39,NA,incomplete,223,race,3,1,left,C_F_05.jpg,C_M_11.jpg,A_F_08.jpg,right,600.4449999891222,false,low,false
6VtRFwQ9,3mdwe879vkfdd3966pwqlqs1zxrb9a,3lbxntkx0v8mdqa12ntaz7fk5t09x0,6VtRFwQ9,2020-0188,2020-06-04,13:16:34,13:45:39,NA,incomplete,224,race,3,1,left,A_M_05.jpg,A_F_09.jpg,C_M_01.jpg,left,772.6749998982996,true,low,false
6VtRFwQ9,3mdwe879vkfdd3966pwqlqs1zxrb9a,3lbxntkx0v8mdqa12ntaz7fk5t09x0,6VtRFwQ9,2020-0188,2020-06-04,13:16:34,13:45:39,NA,incomplete,225,race,3,1,left,A_F_03.jpg,A_M_07.jpg,C_F_12.jpg,left,1170.0549999950454,true,low,false
6VtRFwQ9,3mdwe879vkfdd3966pwqlqs1zxrb9a,3lbxntkx0v8mdqa12ntaz7fk5t09x0,6VtRFwQ9,2020-0188,2020-06-04,13:16:34,13:45:39,NA,incomplete,226,race,3,0,right,C_F_04.jpg,A_F_14.jpg,C_M_05.jpg,right,784.9700000369921,true,low,false
6VtRFwQ9,3mdwe879vkfdd3966pwqlqs1zxrb9a,3lbxntkx0v8mdqa12ntaz7fk5t09x0,6VtRFwQ9,2020-0188,2020-06-04,13:16:34,13:45:39,NA,incomplete,227,race,3,1,left,A_M_08.jpg,A_F_15.jpg,C_M_04.jpg,left,774.2650000145659,true,low,false
6VtRFwQ9,3mdwe879vkfdd3966pwqlqs1zxrb9a,3lbxntkx0v8mdqa12ntaz7fk5t09x0,6VtRFwQ9,2020-0188,2020-06-04,13:16:34,13:45:39,NA,incomplete,228,race,3,0,left,C_M_01.jpg,C_F_10.jpg,A_M_06.jpg,left,1020.3099999343976,true,low,false
6VtRFwQ9,3mdwe879vkfdd3966pwqlqs1zxrb9a,3lbxntkx0v8mdqa12ntaz7fk5t09x0,6VtRFwQ9,2020-0188,2020-06-04,13:16:34,13:45:39,NA,incomplete,229,race,3,1,left,A_M_15.jpg,A_F_01.jpg,C_M_04.jpg,left,812.2749999165535,true,low,false
6VtRFwQ9,3mdwe879vkfdd3966pwqlqs1zxrb9a,3lbxntkx0v8mdqa12ntaz7fk5t09x0,6VtRFwQ9,2020-0188,2020-06-04,13:16:34,13:45:39,NA,incomplete,230,race,3,1,left,C_F_02.jpg,C_M_01.jpg,A_F_03.jpg,right,951.0000000009313,false,low,false
6VtRFwQ9,3mdwe879vkfdd3966pwqlqs1zxrb9a,3lbxntkx0v8mdqa12ntaz7fk5t09x0,6VtRFwQ9,2020-0188,2020-06-04,13:16:34,13:45:39,NA,incomplete,231,race,3,1,right,C_F_10.jpg,A_F_12.jpg,C_M_13.jpg,right,1077.2349999751896,true,low,false
6VtRFwQ9,3mdwe879vkfdd3966pwqlqs1zxrb9a,3lbxntkx0v8mdqa12ntaz7fk5t09x0,6VtRFwQ9,2020-0188,2020-06-04,13:16:34,13:45:39,NA,incomplete,232,race,3,1,right,C_F_15.jpg,A_F_03.jpg,C_M_14.jpg,right,938.5400000028312,true,low,false
6VtRFwQ9,3mdwe879vkfdd3966pwqlqs1zxrb9a,3lbxntkx0v8mdqa12ntaz7fk5t09x0,6VtRFwQ9,2020-0188,2020-06-04,13:16:34,13:45:39,NA,incomplete,233,race,3,0,right,A_M_04.jpg,C_M_07.jpg,A_F_10.jpg,right,963.0250000627711,true,low,false
6VtRFwQ9,3mdwe879vkfdd3966pwqlqs1zxrb9a,3lbxntkx0v8mdqa12ntaz7fk5t09x0,6VtRFwQ9,2020-0188,2020-06-04,13:16:34,13:45:39,NA,incomplete,234,race,3,1,left,A_M_14.jpg,A_F_04.jpg,C_M_01.jpg,left,796.9349999912083,true,low,false
6VtRFwQ9,3mdwe879vkfdd3966pwqlqs1zxrb9a,3lbxntkx0v8mdqa12ntaz7fk5t09x0,6VtRFwQ9,2020-0188,2020-06-04,13:16:34,13:45:39,NA,incomplete,235,race,3,1,left,C_M_03.jpg,C_F_16.jpg,A_M_06.jpg,left,741.6199999861419,true,low,false
6VtRFwQ9,3mdwe879vkfdd3966pwqlqs1zxrb9a,3lbxntkx0v8mdqa12ntaz7fk5t09x0,6VtRFwQ9,2020-0188,2020-06-04,13:16:34,13:45:39,NA,incomplete,236,race,3,1,right,C_M_03.jpg,A_M_05.jpg,C_F_10.jpg,right,1123.810000019148,true,low,false
6VtRFwQ9,3mdwe879vkfdd3966pwqlqs1zxrb9a,3lbxntkx0v8mdqa12ntaz7fk5t09x0,6VtRFwQ9,2020-0188,2020-06-04,13:16:34,13:45:39,NA,incomplete,237,race,3,1,left,C_M_04.jpg,C_F_07.jpg,A_M_15.jpg,left,1096.0950000444427,true,low,false
6VtRFwQ9,3mdwe879vkfdd3966pwqlqs1zxrb9a,3lbxntkx0v8mdqa12ntaz7fk5t09x0,6VtRFwQ9,2020-0188,2020-06-04,13:16:34,13:45:39,NA,incomplete,238,race,3,0,right,A_F_12.jpg,C_F_06.jpg,A_M_04.jpg,right,1232.2100000455976,true,low,false
6VtRFwQ9,3mdwe879vkfdd3966pwqlqs1zxrb9a,3lbxntkx0v8mdqa12ntaz7fk5t09x0,6VtRFwQ9,2020-0188,2020-06-04,13:16:34,13:45:39,NA,incomplete,239,race,3,1,right,A_M_02.jpg,C_M_09.jpg,A_F_06.jpg,right,890.3850000351667,true,low,false
6VtRFwQ9,3mdwe879vkfdd3966pwqlqs1zxrb9a,3lbxntkx0v8mdqa12ntaz7fk5t09x0,6VtRFwQ9,2020-0188,2020-06-04,13:16:34,13:45:39,NA,NA,instruction example,shape,NA,NA,NA,Green_Triangle_Chess_2.jpg,Blue_Triangle_Dots_4.jpg,Red_Plus_Chess_3.jpg,NA,NA,NA,NA,undefined
6VtRFwQ9,3mdwe879vkfdd3966pwqlqs1zxrb9a,3lbxntkx0v8mdqa12ntaz7fk5t09x0,6VtRFwQ9,2020-0188,2020-06-04,13:16:34,13:45:39,NA,NA,instruction example,shape,NA,NA,NA,Green_Plus_Chess_3.jpg,Red_Triangle_Chess_4.jpg,Purple_Plus_Grid_1.jpg,NA,NA,NA,NA,undefined
6VtRFwQ9,3mdwe879vkfdd3966pwqlqs1zxrb9a,3lbxntkx0v8mdqa12ntaz7fk5t09x0,6VtRFwQ9,2020-0188,2020-06-04,13:16:34,13:45:39,NA,NA,instruction example,shape,NA,NA,NA,A_M_15.jpg,C_M_06.jpg,A_F_04.jpg,NA,NA,NA,NA,undefined
6VtRFwQ9,3mdwe879vkfdd3966pwqlqs1zxrb9a,3lbxntkx0v8mdqa12ntaz7fk5t09x0,6VtRFwQ9,2020-0188,2020-06-04,13:16:34,13:45:39,NA,NA,instruction example,shape,NA,NA,NA,C_F_15.jpg,C_M_10.jpg,A_F_01.jpg,NA,NA,NA,NA,undefined
