workerId,hitId,assignmentId,subject,studyid,exp_date,exp_start,exp_end,time_start,time_end,trial,type,sequence,reward_validity,answer,image_top,image_left,image_right,response,response_time,response_acc,volatility,practice
5HhW1Ik8,3ni0wfppjctpbx4ya2wphz5gism608,3ls2amnw5j35bgdviyh02peg3ojqog,5HhW1Ik8,2020-0188,2020-06-04,13:36:37,13:56:15,NA,incomplete,0,color,0,0,left,Red_Circle_Chess_3.jpg,Red_Triangle_Stripes_2.jpg,Blue_Plus_Grid_3.jpg,left,1694.8299999994924,true,NA,true
5HhW1Ik8,3ni0wfppjctpbx4ya2wphz5gism608,3ls2amnw5j35bgdviyh02peg3ojqog,5HhW1Ik8,2020-0188,2020-06-04,13:36:37,13:56:15,NA,incomplete,1,color,0,1,left,Red_Star_Grid_2.jpg,Red_Triangle_Stripes_4.jpg,Green_Plus_Chess_2.jpg,left,1676.4050000001444,true,NA,true
5HhW1Ik8,3ni0wfppjctpbx4ya2wphz5gism608,3ls2amnw5j35bgdviyh02peg3ojqog,5HhW1Ik8,2020-0188,2020-06-04,13:36:37,13:56:15,NA,incomplete,2,color,0,1,left,Red_Triangle_Dots_3.jpg,Red_Plus_Stripes_2.jpg,Purple_Star_Grid_3.jpg,left,1459.684999999823,true,NA,true
5HhW1Ik8,3ni0wfppjctpbx4ya2wphz5gism608,3ls2amnw5j35bgdviyh02peg3ojqog,5HhW1Ik8,2020-0188,2020-06-04,13:36:37,13:56:15,NA,incomplete,3,color,0,1,left,Purple_Plus_Stripes_3.jpg,Purple_Triangle_Dots_1.jpg,Blue_Circle_Grid_3.jpg,left,729.8899999996065,true,NA,true
5HhW1Ik8,3ni0wfppjctpbx4ya2wphz5gism608,3ls2amnw5j35bgdviyh02peg3ojqog,5HhW1Ik8,2020-0188,2020-06-04,13:36:37,13:56:15,NA,incomplete,4,color,0,1,left,Red_Triangle_Grid_3.jpg,Red_Star_Chess_4.jpg,Blue_Plus_Stripes_3.jpg,left,613.2899999993388,true,NA,true
5HhW1Ik8,3ni0wfppjctpbx4ya2wphz5gism608,3ls2amnw5j35bgdviyh02peg3ojqog,5HhW1Ik8,2020-0188,2020-06-04,13:36:37,13:56:15,NA,incomplete,5,color,0,0,left,Blue_Star_Chess_3.jpg,Blue_Circle_Grid_2.jpg,Green_Plus_Stripes_3.jpg,left,571.3999999998487,true,NA,true
5HhW1Ik8,3ni0wfppjctpbx4ya2wphz5gism608,3ls2amnw5j35bgdviyh02peg3ojqog,5HhW1Ik8,2020-0188,2020-06-04,13:36:37,13:56:15,NA,incomplete,6,color,0,1,right,Blue_Triangle_Dots_1.jpg,Green_Star_Stripes_1.jpg,Blue_Plus_Grid_2.jpg,right,633.6799999999348,true,NA,true
5HhW1Ik8,3ni0wfppjctpbx4ya2wphz5gism608,3ls2amnw5j35bgdviyh02peg3ojqog,5HhW1Ik8,2020-0188,2020-06-04,13:36:37,13:56:15,NA,incomplete,7,color,0,1,left,Red_Plus_Dots_4.jpg,Red_Circle_Stripes_1.jpg,Purple_Star_Grid_4.jpg,left,572.4300000001676,true,NA,true
5HhW1Ik8,3ni0wfppjctpbx4ya2wphz5gism608,3ls2amnw5j35bgdviyh02peg3ojqog,5HhW1Ik8,2020-0188,2020-06-04,13:36:37,13:56:15,NA,incomplete,8,color,0,1,right,Purple_Plus_Stripes_2.jpg,Blue_Triangle_Grid_2.jpg,Purple_Star_Dots_4.jpg,right,543.9750000005588,true,NA,true
5HhW1Ik8,3ni0wfppjctpbx4ya2wphz5gism608,3ls2amnw5j35bgdviyh02peg3ojqog,5HhW1Ik8,2020-0188,2020-06-04,13:36:37,13:56:15,NA,incomplete,9,color,0,1,right,Purple_Plus_Stripes_2.jpg,Red_Circle_Dots_2.jpg,Purple_Triangle_Grid_4.jpg,right,482.7249999998603,true,NA,true
5HhW1Ik8,3ni0wfppjctpbx4ya2wphz5gism608,3ls2amnw5j35bgdviyh02peg3ojqog,5HhW1Ik8,2020-0188,2020-06-04,13:36:37,13:56:15,NA,incomplete,10,color,0,1,right,Blue_Circle_Dots_3.jpg,Green_Plus_Stripes_3.jpg,Blue_Star_Grid_2.jpg,right,544.1100000007427,true,NA,true
5HhW1Ik8,3ni0wfppjctpbx4ya2wphz5gism608,3ls2amnw5j35bgdviyh02peg3ojqog,5HhW1Ik8,2020-0188,2020-06-04,13:36:37,13:56:15,NA,incomplete,11,color,0,1,right,Purple_Plus_Grid_1.jpg,Blue_Star_Dots_1.jpg,Purple_Circle_Stripes_3.jpg,right,479.0199999997276,true,NA,true
5HhW1Ik8,3ni0wfppjctpbx4ya2wphz5gism608,3ls2amnw5j35bgdviyh02peg3ojqog,5HhW1Ik8,2020-0188,2020-06-04,13:36:37,13:56:15,NA,incomplete,12,color,0,1,left,Blue_Circle_Chess_4.jpg,Blue_Star_Stripes_2.jpg,Purple_Triangle_Dots_4.jpg,left,469.0000000000582,true,NA,true
5HhW1Ik8,3ni0wfppjctpbx4ya2wphz5gism608,3ls2amnw5j35bgdviyh02peg3ojqog,5HhW1Ik8,2020-0188,2020-06-04,13:36:37,13:56:15,NA,incomplete,13,color,0,1,right,Purple_Star_Stripes_2.jpg,Red_Circle_Chess_2.jpg,Purple_Triangle_Dots_1.jpg,right,488.875,true,NA,true
5HhW1Ik8,3ni0wfppjctpbx4ya2wphz5gism608,3ls2amnw5j35bgdviyh02peg3ojqog,5HhW1Ik8,2020-0188,2020-06-04,13:36:37,13:56:15,NA,incomplete,14,color,0,1,right,Green_Circle_Dots_3.jpg,Purple_Star_Grid_3.jpg,Green_Plus_Stripes_4.jpg,right,392.20999999996275,true,NA,true
5HhW1Ik8,3ni0wfppjctpbx4ya2wphz5gism608,3ls2amnw5j35bgdviyh02peg3ojqog,5HhW1Ik8,2020-0188,2020-06-04,13:36:37,13:56:15,NA,incomplete,15,color,0,1,right,Red_Plus_Stripes_3.jpg,Blue_Circle_Chess_3.jpg,Red_Triangle_Grid_4.jpg,right,445.28499999974156,true,NA,true
5HhW1Ik8,3ni0wfppjctpbx4ya2wphz5gism608,3ls2amnw5j35bgdviyh02peg3ojqog,5HhW1Ik8,2020-0188,2020-06-04,13:36:37,13:56:15,NA,incomplete,16,color,0,1,left,Blue_Star_Stripes_1.jpg,Blue_Triangle_Chess_3.jpg,Purple_Circle_Grid_1.jpg,left,477.60499999916647,true,NA,true
5HhW1Ik8,3ni0wfppjctpbx4ya2wphz5gism608,3ls2amnw5j35bgdviyh02peg3ojqog,5HhW1Ik8,2020-0188,2020-06-04,13:36:37,13:56:15,NA,incomplete,17,color,0,1,right,Green_Plus_Grid_3.jpg,Blue_Circle_Dots_3.jpg,Green_Star_Chess_1.jpg,right,390.800000000163,true,NA,true
5HhW1Ik8,3ni0wfppjctpbx4ya2wphz5gism608,3ls2amnw5j35bgdviyh02peg3ojqog,5HhW1Ik8,2020-0188,2020-06-04,13:36:37,13:56:15,NA,incomplete,18,color,0,0,right,Red_Circle_Dots_4.jpg,Purple_Triangle_Chess_4.jpg,Red_Plus_Stripes_1.jpg,right,556.0450000002747,true,NA,true
5HhW1Ik8,3ni0wfppjctpbx4ya2wphz5gism608,3ls2amnw5j35bgdviyh02peg3ojqog,5HhW1Ik8,2020-0188,2020-06-04,13:36:37,13:56:15,NA,incomplete,19,color,0,1,left,Purple_Circle_Dots_3.jpg,Purple_Star_Grid_4.jpg,Green_Plus_Stripes_3.jpg,left,427.73500000021886,true,NA,true
5HhW1Ik8,3ni0wfppjctpbx4ya2wphz5gism608,3ls2amnw5j35bgdviyh02peg3ojqog,5HhW1Ik8,2020-0188,2020-06-04,13:36:37,13:56:15,NA,incomplete,20,number,1,1,left,Purple_Circle_Dots_2.jpg,Blue_Star_Stripes_2.jpg,Purple_Triangle_Chess_3.jpg,right,433.1199999997043,false,NA,true
5HhW1Ik8,3ni0wfppjctpbx4ya2wphz5gism608,3ls2amnw5j35bgdviyh02peg3ojqog,5HhW1Ik8,2020-0188,2020-06-04,13:36:37,13:56:15,NA,incomplete,21,number,1,0,right,Blue_Plus_Chess_3.jpg,Blue_Circle_Grid_4.jpg,Purple_Star_Dots_3.jpg,right,1068.8000000000466,true,NA,true
5HhW1Ik8,3ni0wfppjctpbx4ya2wphz5gism608,3ls2amnw5j35bgdviyh02peg3ojqog,5HhW1Ik8,2020-0188,2020-06-04,13:36:37,13:56:15,NA,incomplete,22,number,1,1,left,Green_Star_Dots_2.jpg,Red_Circle_Stripes_2.jpg,Green_Plus_Chess_3.jpg,left,807.5699999999488,true,NA,true
5HhW1Ik8,3ni0wfppjctpbx4ya2wphz5gism608,3ls2amnw5j35bgdviyh02peg3ojqog,5HhW1Ik8,2020-0188,2020-06-04,13:36:37,13:56:15,NA,incomplete,23,number,1,1,left,Purple_Star_Stripes_1.jpg,Blue_Triangle_Grid_1.jpg,Purple_Circle_Chess_4.jpg,left,734.9649999996182,true,NA,true
5HhW1Ik8,3ni0wfppjctpbx4ya2wphz5gism608,3ls2amnw5j35bgdviyh02peg3ojqog,5HhW1Ik8,2020-0188,2020-06-04,13:36:37,13:56:15,NA,incomplete,24,number,1,0,right,Green_Star_Chess_2.jpg,Green_Triangle_Grid_3.jpg,Red_Plus_Dots_2.jpg,right,932.5950000002631,true,NA,true
5HhW1Ik8,3ni0wfppjctpbx4ya2wphz5gism608,3ls2amnw5j35bgdviyh02peg3ojqog,5HhW1Ik8,2020-0188,2020-06-04,13:36:37,13:56:15,NA,incomplete,25,number,1,1,right,Green_Circle_Chess_1.jpg,Green_Star_Dots_2.jpg,Red_Triangle_Grid_1.jpg,right,908.0699999995413,true,NA,true
5HhW1Ik8,3ni0wfppjctpbx4ya2wphz5gism608,3ls2amnw5j35bgdviyh02peg3ojqog,5HhW1Ik8,2020-0188,2020-06-04,13:36:37,13:56:15,NA,incomplete,26,number,1,1,left,Blue_Plus_Chess_4.jpg,Purple_Triangle_Dots_4.jpg,Blue_Circle_Grid_1.jpg,left,579.0349999997998,true,NA,true
5HhW1Ik8,3ni0wfppjctpbx4ya2wphz5gism608,3ls2amnw5j35bgdviyh02peg3ojqog,5HhW1Ik8,2020-0188,2020-06-04,13:36:37,13:56:15,NA,incomplete,27,number,1,1,left,Red_Triangle_Stripes_4.jpg,Blue_Plus_Grid_4.jpg,Red_Circle_Dots_2.jpg,left,742.954999999667,true,NA,true
5HhW1Ik8,3ni0wfppjctpbx4ya2wphz5gism608,3ls2amnw5j35bgdviyh02peg3ojqog,5HhW1Ik8,2020-0188,2020-06-04,13:36:37,13:56:15,NA,incomplete,28,number,1,1,right,Green_Circle_Grid_3.jpg,Green_Plus_Chess_2.jpg,Purple_Triangle_Stripes_3.jpg,right,694.0549999999348,true,NA,true
5HhW1Ik8,3ni0wfppjctpbx4ya2wphz5gism608,3ls2amnw5j35bgdviyh02peg3ojqog,5HhW1Ik8,2020-0188,2020-06-04,13:36:37,13:56:15,NA,incomplete,29,number,1,0,left,Purple_Plus_Dots_3.jpg,Red_Triangle_Chess_3.jpg,Purple_Star_Stripes_2.jpg,left,630.3200000002398,true,NA,true
5HhW1Ik8,3ni0wfppjctpbx4ya2wphz5gism608,3ls2amnw5j35bgdviyh02peg3ojqog,5HhW1Ik8,2020-0188,2020-06-04,13:36:37,13:56:15,NA,incomplete,30,number,1,1,left,Red_Circle_Stripes_3.jpg,Purple_Plus_Dots_3.jpg,Red_Star_Grid_2.jpg,left,783.5400000003283,true,NA,true
5HhW1Ik8,3ni0wfppjctpbx4ya2wphz5gism608,3ls2amnw5j35bgdviyh02peg3ojqog,5HhW1Ik8,2020-0188,2020-06-04,13:36:37,13:56:15,NA,incomplete,31,number,1,1,left,Red_Plus_Stripes_2.jpg,Green_Triangle_Dots_2.jpg,Red_Circle_Grid_1.jpg,left,748.5850000002538,true,NA,true
5HhW1Ik8,3ni0wfppjctpbx4ya2wphz5gism608,3ls2amnw5j35bgdviyh02peg3ojqog,5HhW1Ik8,2020-0188,2020-06-04,13:36:37,13:56:15,NA,incomplete,32,number,1,1,right,Green_Circle_Grid_3.jpg,Green_Star_Chess_1.jpg,Blue_Plus_Stripes_3.jpg,right,529.1349999997765,true,NA,true
5HhW1Ik8,3ni0wfppjctpbx4ya2wphz5gism608,3ls2amnw5j35bgdviyh02peg3ojqog,5HhW1Ik8,2020-0188,2020-06-04,13:36:37,13:56:15,NA,incomplete,33,number,1,0,left,Blue_Circle_Dots_2.jpg,Red_Star_Stripes_2.jpg,Blue_Plus_Chess_1.jpg,left,589.2749999993248,true,NA,true
5HhW1Ik8,3ni0wfppjctpbx4ya2wphz5gism608,3ls2amnw5j35bgdviyh02peg3ojqog,5HhW1Ik8,2020-0188,2020-06-04,13:36:37,13:56:15,NA,incomplete,34,number,1,1,right,Purple_Circle_Dots_4.jpg,Purple_Triangle_Grid_2.jpg,Blue_Plus_Stripes_4.jpg,right,536.979999999865,true,NA,true
5HhW1Ik8,3ni0wfppjctpbx4ya2wphz5gism608,3ls2amnw5j35bgdviyh02peg3ojqog,5HhW1Ik8,2020-0188,2020-06-04,13:36:37,13:56:15,NA,incomplete,35,number,1,1,left,Green_Triangle_Chess_4.jpg,Blue_Circle_Stripes_4.jpg,Green_Plus_Grid_2.jpg,left,848.5449999998673,true,NA,true
5HhW1Ik8,3ni0wfppjctpbx4ya2wphz5gism608,3ls2amnw5j35bgdviyh02peg3ojqog,5HhW1Ik8,2020-0188,2020-06-04,13:36:37,13:56:15,NA,incomplete,36,number,1,1,left,Purple_Triangle_Grid_2.jpg,Blue_Plus_Stripes_2.jpg,Purple_Circle_Dots_3.jpg,left,639.8500000004424,true,NA,true
5HhW1Ik8,3ni0wfppjctpbx4ya2wphz5gism608,3ls2amnw5j35bgdviyh02peg3ojqog,5HhW1Ik8,2020-0188,2020-06-04,13:36:37,13:56:15,NA,incomplete,37,number,1,1,right,Red_Plus_Dots_3.jpg,Red_Triangle_Chess_1.jpg,Purple_Star_Stripes_3.jpg,right,612.8950000001932,true,NA,true
5HhW1Ik8,3ni0wfppjctpbx4ya2wphz5gism608,3ls2amnw5j35bgdviyh02peg3ojqog,5HhW1Ik8,2020-0188,2020-06-04,13:36:37,13:56:15,NA,incomplete,38,number,1,1,left,Green_Circle_Grid_2.jpg,Blue_Star_Stripes_2.jpg,Green_Triangle_Dots_4.jpg,left,551.509999999369,true,NA,true
5HhW1Ik8,3ni0wfppjctpbx4ya2wphz5gism608,3ls2amnw5j35bgdviyh02peg3ojqog,5HhW1Ik8,2020-0188,2020-06-04,13:36:37,13:56:15,NA,incomplete,39,number,1,0,left,Blue_Circle_Chess_3.jpg,Green_Triangle_Dots_3.jpg,Blue_Star_Stripes_2.jpg,left,759.7650000007125,true,NA,true
5HhW1Ik8,3ni0wfppjctpbx4ya2wphz5gism608,3ls2amnw5j35bgdviyh02peg3ojqog,5HhW1Ik8,2020-0188,2020-06-04,13:36:37,13:56:15,NA,incomplete,0,color,0,0,left,Green_Star_Chess_1.jpg,Green_Plus_Dots_2.jpg,Blue_Triangle_Grid_1.jpg,right,806.234999999986,false,low,false
5HhW1Ik8,3ni0wfppjctpbx4ya2wphz5gism608,3ls2amnw5j35bgdviyh02peg3ojqog,5HhW1Ik8,2020-0188,2020-06-04,13:36:37,13:56:15,NA,incomplete,1,color,0,1,right,Blue_Circle_Grid_1.jpg,Green_Star_Chess_1.jpg,Blue_Triangle_Stripes_4.jpg,left,484.2299999999814,false,low,false
5HhW1Ik8,3ni0wfppjctpbx4ya2wphz5gism608,3ls2amnw5j35bgdviyh02peg3ojqog,5HhW1Ik8,2020-0188,2020-06-04,13:36:37,13:56:15,NA,incomplete,2,color,0,1,left,Green_Triangle_Grid_4.jpg,Green_Circle_Dots_2.jpg,Red_Plus_Stripes_4.jpg,right,540.9799999997485,false,low,false
5HhW1Ik8,3ni0wfppjctpbx4ya2wphz5gism608,3ls2amnw5j35bgdviyh02peg3ojqog,5HhW1Ik8,2020-0188,2020-06-04,13:36:37,13:56:15,NA,incomplete,3,color,0,0,left,Purple_Triangle_Grid_2.jpg,Purple_Star_Chess_1.jpg,Green_Circle_Stripes_2.jpg,left,667.9700000004377,true,low,false
5HhW1Ik8,3ni0wfppjctpbx4ya2wphz5gism608,3ls2amnw5j35bgdviyh02peg3ojqog,5HhW1Ik8,2020-0188,2020-06-04,13:36:37,13:56:15,NA,incomplete,4,color,0,1,right,Purple_Star_Chess_2.jpg,Red_Circle_Stripes_2.jpg,Purple_Triangle_Grid_1.jpg,left,598.9399999999441,false,low,false
5HhW1Ik8,3ni0wfppjctpbx4ya2wphz5gism608,3ls2amnw5j35bgdviyh02peg3ojqog,5HhW1Ik8,2020-0188,2020-06-04,13:36:37,13:56:15,NA,incomplete,5,color,0,0,left,Blue_Triangle_Chess_3.jpg,Blue_Plus_Dots_4.jpg,Purple_Star_Grid_3.jpg,right,735.5900000002002,false,low,false
5HhW1Ik8,3ni0wfppjctpbx4ya2wphz5gism608,3ls2amnw5j35bgdviyh02peg3ojqog,5HhW1Ik8,2020-0188,2020-06-04,13:36:37,13:56:15,NA,incomplete,6,color,0,1,left,Green_Circle_Chess_1.jpg,Green_Star_Grid_2.jpg,Red_Triangle_Stripes_1.jpg,right,525.9700000005541,false,low,false
5HhW1Ik8,3ni0wfppjctpbx4ya2wphz5gism608,3ls2amnw5j35bgdviyh02peg3ojqog,5HhW1Ik8,2020-0188,2020-06-04,13:36:37,13:56:15,NA,incomplete,7,color,0,1,left,Purple_Star_Grid_3.jpg,Purple_Plus_Chess_2.jpg,Blue_Circle_Stripes_3.jpg,right,776.9550000003073,false,low,false
5HhW1Ik8,3ni0wfppjctpbx4ya2wphz5gism608,3ls2amnw5j35bgdviyh02peg3ojqog,5HhW1Ik8,2020-0188,2020-06-04,13:36:37,13:56:15,NA,incomplete,8,color,0,1,right,Blue_Circle_Dots_2.jpg,Purple_Star_Chess_2.jpg,Blue_Triangle_Grid_4.jpg,left,577.9400000000605,false,low,false
5HhW1Ik8,3ni0wfppjctpbx4ya2wphz5gism608,3ls2amnw5j35bgdviyh02peg3ojqog,5HhW1Ik8,2020-0188,2020-06-04,13:36:37,13:56:15,NA,incomplete,9,color,0,1,left,Green_Plus_Chess_2.jpg,Green_Circle_Grid_1.jpg,Purple_Star_Stripes_2.jpg,left,499.58999999950174,true,low,false
5HhW1Ik8,3ni0wfppjctpbx4ya2wphz5gism608,3ls2amnw5j35bgdviyh02peg3ojqog,5HhW1Ik8,2020-0188,2020-06-04,13:36:37,13:56:15,NA,incomplete,10,color,0,1,right,Green_Plus_Stripes_4.jpg,Red_Circle_Grid_4.jpg,Green_Triangle_Dots_3.jpg,right,451.32500000006985,true,low,false
5HhW1Ik8,3ni0wfppjctpbx4ya2wphz5gism608,3ls2amnw5j35bgdviyh02peg3ojqog,5HhW1Ik8,2020-0188,2020-06-04,13:36:37,13:56:15,NA,incomplete,11,color,0,0,left,Purple_Star_Grid_1.jpg,Purple_Triangle_Chess_4.jpg,Green_Circle_Dots_1.jpg,left,426.1150000002235,true,low,false
5HhW1Ik8,3ni0wfppjctpbx4ya2wphz5gism608,3ls2amnw5j35bgdviyh02peg3ojqog,5HhW1Ik8,2020-0188,2020-06-04,13:36:37,13:56:15,NA,incomplete,12,color,0,1,left,Blue_Star_Chess_3.jpg,Blue_Triangle_Grid_1.jpg,Purple_Circle_Dots_3.jpg,left,477.4550000001909,true,low,false
5HhW1Ik8,3ni0wfppjctpbx4ya2wphz5gism608,3ls2amnw5j35bgdviyh02peg3ojqog,5HhW1Ik8,2020-0188,2020-06-04,13:36:37,13:56:15,NA,incomplete,13,color,0,1,left,Purple_Plus_Chess_4.jpg,Purple_Triangle_Dots_3.jpg,Red_Circle_Stripes_4.jpg,left,501.76500000001397,true,low,false
5HhW1Ik8,3ni0wfppjctpbx4ya2wphz5gism608,3ls2amnw5j35bgdviyh02peg3ojqog,5HhW1Ik8,2020-0188,2020-06-04,13:36:37,13:56:15,NA,incomplete,14,color,0,0,right,Red_Triangle_Dots_3.jpg,Blue_Circle_Stripes_3.jpg,Red_Star_Chess_1.jpg,right,444.41500000003725,true,low,false
5HhW1Ik8,3ni0wfppjctpbx4ya2wphz5gism608,3ls2amnw5j35bgdviyh02peg3ojqog,5HhW1Ik8,2020-0188,2020-06-04,13:36:37,13:56:15,NA,incomplete,15,color,0,1,right,Purple_Plus_Dots_1.jpg,Red_Circle_Stripes_1.jpg,Purple_Triangle_Grid_3.jpg,right,494.3149999999441,true,low,false
5HhW1Ik8,3ni0wfppjctpbx4ya2wphz5gism608,3ls2amnw5j35bgdviyh02peg3ojqog,5HhW1Ik8,2020-0188,2020-06-04,13:36:37,13:56:15,NA,incomplete,16,color,0,0,left,Blue_Star_Dots_2.jpg,Blue_Triangle_Chess_3.jpg,Green_Circle_Grid_2.jpg,left,409.79499999957625,true,low,false
5HhW1Ik8,3ni0wfppjctpbx4ya2wphz5gism608,3ls2amnw5j35bgdviyh02peg3ojqog,5HhW1Ik8,2020-0188,2020-06-04,13:36:37,13:56:15,NA,incomplete,17,color,0,1,left,Red_Circle_Stripes_1.jpg,Red_Star_Dots_4.jpg,Blue_Triangle_Grid_1.jpg,left,443.8899999995483,true,low,false
5HhW1Ik8,3ni0wfppjctpbx4ya2wphz5gism608,3ls2amnw5j35bgdviyh02peg3ojqog,5HhW1Ik8,2020-0188,2020-06-04,13:36:37,13:56:15,NA,incomplete,18,color,0,1,right,Purple_Plus_Chess_2.jpg,Green_Triangle_Grid_2.jpg,Purple_Circle_Stripes_1.jpg,right,378.5849999994971,true,low,false
5HhW1Ik8,3ni0wfppjctpbx4ya2wphz5gism608,3ls2amnw5j35bgdviyh02peg3ojqog,5HhW1Ik8,2020-0188,2020-06-04,13:36:37,13:56:15,NA,incomplete,19,color,0,1,left,Red_Star_Dots_4.jpg,Red_Plus_Grid_1.jpg,Purple_Triangle_Stripes_4.jpg,left,440.4450000001816,true,low,false
5HhW1Ik8,3ni0wfppjctpbx4ya2wphz5gism608,3ls2amnw5j35bgdviyh02peg3ojqog,5HhW1Ik8,2020-0188,2020-06-04,13:36:37,13:56:15,NA,incomplete,20,color,0,1,left,Blue_Triangle_Chess_3.jpg,Blue_Plus_Grid_1.jpg,Purple_Circle_Stripes_3.jpg,left,423.38999999989755,true,low,false
5HhW1Ik8,3ni0wfppjctpbx4ya2wphz5gism608,3ls2amnw5j35bgdviyh02peg3ojqog,5HhW1Ik8,2020-0188,2020-06-04,13:36:37,13:56:15,NA,incomplete,21,color,0,1,right,Blue_Circle_Dots_4.jpg,Red_Triangle_Grid_4.jpg,Blue_Plus_Chess_2.jpg,right,354.6949999999488,true,low,false
5HhW1Ik8,3ni0wfppjctpbx4ya2wphz5gism608,3ls2amnw5j35bgdviyh02peg3ojqog,5HhW1Ik8,2020-0188,2020-06-04,13:36:37,13:56:15,NA,incomplete,22,color,0,1,left,Green_Circle_Chess_1.jpg,Green_Plus_Dots_2.jpg,Red_Star_Stripes_1.jpg,left,368.76000000035856,true,low,false
5HhW1Ik8,3ni0wfppjctpbx4ya2wphz5gism608,3ls2amnw5j35bgdviyh02peg3ojqog,5HhW1Ik8,2020-0188,2020-06-04,13:36:37,13:56:15,NA,incomplete,23,color,0,1,right,Green_Plus_Grid_2.jpg,Purple_Triangle_Stripes_2.jpg,Green_Circle_Chess_3.jpg,right,358.13500000035856,true,low,false
5HhW1Ik8,3ni0wfppjctpbx4ya2wphz5gism608,3ls2amnw5j35bgdviyh02peg3ojqog,5HhW1Ik8,2020-0188,2020-06-04,13:36:37,13:56:15,NA,incomplete,24,color,0,1,left,Red_Circle_Dots_1.jpg,Red_Star_Chess_3.jpg,Purple_Triangle_Grid_1.jpg,left,367.0550000006333,true,low,false
5HhW1Ik8,3ni0wfppjctpbx4ya2wphz5gism608,3ls2amnw5j35bgdviyh02peg3ojqog,5HhW1Ik8,2020-0188,2020-06-04,13:36:37,13:56:15,NA,incomplete,25,color,0,1,right,Green_Star_Stripes_2.jpg,Blue_Triangle_Chess_2.jpg,Green_Plus_Grid_3.jpg,right,373.33000000030734,true,low,false
5HhW1Ik8,3ni0wfppjctpbx4ya2wphz5gism608,3ls2amnw5j35bgdviyh02peg3ojqog,5HhW1Ik8,2020-0188,2020-06-04,13:36:37,13:56:15,NA,incomplete,26,color,0,1,left,Red_Plus_Chess_2.jpg,Red_Triangle_Dots_1.jpg,Purple_Star_Stripes_2.jpg,left,565.2900000005029,true,low,false
5HhW1Ik8,3ni0wfppjctpbx4ya2wphz5gism608,3ls2amnw5j35bgdviyh02peg3ojqog,5HhW1Ik8,2020-0188,2020-06-04,13:36:37,13:56:15,NA,incomplete,27,color,0,0,right,Green_Circle_Stripes_2.jpg,Purple_Star_Chess_2.jpg,Green_Triangle_Dots_4.jpg,right,739.4400000002934,true,low,false
5HhW1Ik8,3ni0wfppjctpbx4ya2wphz5gism608,3ls2amnw5j35bgdviyh02peg3ojqog,5HhW1Ik8,2020-0188,2020-06-04,13:36:37,13:56:15,NA,incomplete,28,color,0,1,left,Green_Triangle_Grid_3.jpg,Green_Circle_Stripes_1.jpg,Purple_Star_Chess_3.jpg,left,503.7300000003306,true,low,false
5HhW1Ik8,3ni0wfppjctpbx4ya2wphz5gism608,3ls2amnw5j35bgdviyh02peg3ojqog,5HhW1Ik8,2020-0188,2020-06-04,13:36:37,13:56:15,NA,incomplete,29,color,0,1,right,Blue_Star_Dots_4.jpg,Red_Plus_Grid_4.jpg,Blue_Circle_Stripes_3.jpg,right,395.5299999997951,true,low,false
5HhW1Ik8,3ni0wfppjctpbx4ya2wphz5gism608,3ls2amnw5j35bgdviyh02peg3ojqog,5HhW1Ik8,2020-0188,2020-06-04,13:36:37,13:56:15,NA,incomplete,30,number,1,1,left,Green_Star_Dots_2.jpg,Blue_Triangle_Chess_2.jpg,Green_Plus_Grid_3.jpg,right,383.2250000004424,false,low,false
5HhW1Ik8,3ni0wfppjctpbx4ya2wphz5gism608,3ls2amnw5j35bgdviyh02peg3ojqog,5HhW1Ik8,2020-0188,2020-06-04,13:36:37,13:56:15,NA,incomplete,31,number,1,1,left,Purple_Plus_Grid_1.jpg,Blue_Triangle_Chess_1.jpg,Purple_Circle_Stripes_2.jpg,right,553.1650000002701,false,low,false
5HhW1Ik8,3ni0wfppjctpbx4ya2wphz5gism608,3ls2amnw5j35bgdviyh02peg3ojqog,5HhW1Ik8,2020-0188,2020-06-04,13:36:37,13:56:15,NA,incomplete,32,number,1,1,right,Red_Triangle_Stripes_1.jpg,Red_Circle_Grid_4.jpg,Green_Star_Dots_1.jpg,left,415.4399999998277,false,low,false
5HhW1Ik8,3ni0wfppjctpbx4ya2wphz5gism608,3ls2amnw5j35bgdviyh02peg3ojqog,5HhW1Ik8,2020-0188,2020-06-04,13:36:37,13:56:15,NA,incomplete,33,number,1,1,right,Purple_Circle_Chess_1.jpg,Purple_Plus_Dots_2.jpg,Red_Star_Grid_1.jpg,left,473.6450000000186,false,low,false
5HhW1Ik8,3ni0wfppjctpbx4ya2wphz5gism608,3ls2amnw5j35bgdviyh02peg3ojqog,5HhW1Ik8,2020-0188,2020-06-04,13:36:37,13:56:15,NA,incomplete,34,number,1,1,left,Red_Plus_Grid_4.jpg,Purple_Star_Chess_4.jpg,Red_Triangle_Dots_1.jpg,left,494.9299999998184,true,low,false
5HhW1Ik8,3ni0wfppjctpbx4ya2wphz5gism608,3ls2amnw5j35bgdviyh02peg3ojqog,5HhW1Ik8,2020-0188,2020-06-04,13:36:37,13:56:15,NA,incomplete,35,number,1,1,right,Purple_Triangle_Chess_1.jpg,Purple_Plus_Stripes_4.jpg,Green_Star_Dots_1.jpg,right,488.4550000006566,true,low,false
5HhW1Ik8,3ni0wfppjctpbx4ya2wphz5gism608,3ls2amnw5j35bgdviyh02peg3ojqog,5HhW1Ik8,2020-0188,2020-06-04,13:36:37,13:56:15,NA,incomplete,36,number,1,1,right,Green_Plus_Grid_3.jpg,Green_Star_Dots_4.jpg,Red_Circle_Stripes_3.jpg,right,688.4849999996368,true,low,false
5HhW1Ik8,3ni0wfppjctpbx4ya2wphz5gism608,3ls2amnw5j35bgdviyh02peg3ojqog,5HhW1Ik8,2020-0188,2020-06-04,13:36:37,13:56:15,NA,incomplete,37,number,1,1,left,Blue_Circle_Chess_2.jpg,Purple_Star_Grid_2.jpg,Blue_Plus_Stripes_1.jpg,right,489.2550000003539,false,low,false
5HhW1Ik8,3ni0wfppjctpbx4ya2wphz5gism608,3ls2amnw5j35bgdviyh02peg3ojqog,5HhW1Ik8,2020-0188,2020-06-04,13:36:37,13:56:15,NA,incomplete,38,number,1,1,right,Blue_Plus_Dots_4.jpg,Blue_Star_Chess_2.jpg,Green_Circle_Grid_4.jpg,right,551.644999999553,true,low,false
5HhW1Ik8,3ni0wfppjctpbx4ya2wphz5gism608,3ls2amnw5j35bgdviyh02peg3ojqog,5HhW1Ik8,2020-0188,2020-06-04,13:36:37,13:56:15,NA,incomplete,39,number,1,1,right,Green_Plus_Chess_2.jpg,Green_Star_Stripes_4.jpg,Blue_Circle_Grid_2.jpg,right,558.645000000135,true,low,false
5HhW1Ik8,3ni0wfppjctpbx4ya2wphz5gism608,3ls2amnw5j35bgdviyh02peg3ojqog,5HhW1Ik8,2020-0188,2020-06-04,13:36:37,13:56:15,NA,incomplete,40,number,1,1,left,Blue_Triangle_Stripes_3.jpg,Red_Circle_Dots_3.jpg,Blue_Star_Grid_1.jpg,left,592.9299999998184,true,low,false
5HhW1Ik8,3ni0wfppjctpbx4ya2wphz5gism608,3ls2amnw5j35bgdviyh02peg3ojqog,5HhW1Ik8,2020-0188,2020-06-04,13:36:37,13:56:15,NA,incomplete,41,number,1,1,right,Purple_Star_Grid_3.jpg,Purple_Circle_Dots_1.jpg,Red_Plus_Stripes_3.jpg,right,489.2200000003213,true,low,false
5HhW1Ik8,3ni0wfppjctpbx4ya2wphz5gism608,3ls2amnw5j35bgdviyh02peg3ojqog,5HhW1Ik8,2020-0188,2020-06-04,13:36:37,13:56:15,NA,incomplete,42,number,1,1,right,Blue_Star_Chess_4.jpg,Blue_Circle_Dots_2.jpg,Green_Plus_Grid_4.jpg,right,591.8350000001956,true,low,false
5HhW1Ik8,3ni0wfppjctpbx4ya2wphz5gism608,3ls2amnw5j35bgdviyh02peg3ojqog,5HhW1Ik8,2020-0188,2020-06-04,13:36:37,13:56:15,NA,incomplete,43,number,1,1,left,Purple_Plus_Stripes_1.jpg,Blue_Triangle_Grid_1.jpg,Purple_Circle_Dots_4.jpg,left,526.8999999999069,true,low,false
5HhW1Ik8,3ni0wfppjctpbx4ya2wphz5gism608,3ls2amnw5j35bgdviyh02peg3ojqog,5HhW1Ik8,2020-0188,2020-06-04,13:36:37,13:56:15,NA,incomplete,44,number,1,0,right,Red_Plus_Chess_4.jpg,Red_Circle_Stripes_3.jpg,Blue_Star_Grid_4.jpg,right,494.3250000005355,true,low,false
5HhW1Ik8,3ni0wfppjctpbx4ya2wphz5gism608,3ls2amnw5j35bgdviyh02peg3ojqog,5HhW1Ik8,2020-0188,2020-06-04,13:36:37,13:56:15,NA,incomplete,45,number,1,1,right,Green_Star_Dots_1.jpg,Green_Circle_Chess_4.jpg,Blue_Triangle_Grid_1.jpg,right,541.1400000003632,true,low,false
5HhW1Ik8,3ni0wfppjctpbx4ya2wphz5gism608,3ls2amnw5j35bgdviyh02peg3ojqog,5HhW1Ik8,2020-0188,2020-06-04,13:36:37,13:56:15,NA,incomplete,46,number,1,1,left,Green_Star_Stripes_2.jpg,Blue_Circle_Chess_2.jpg,Green_Plus_Grid_3.jpg,left,538.1850000002887,true,low,false
5HhW1Ik8,3ni0wfppjctpbx4ya2wphz5gism608,3ls2amnw5j35bgdviyh02peg3ojqog,5HhW1Ik8,2020-0188,2020-06-04,13:36:37,13:56:15,NA,incomplete,47,number,1,1,right,Green_Triangle_Stripes_1.jpg,Green_Circle_Chess_2.jpg,Red_Plus_Grid_1.jpg,right,513.0600000001723,true,low,false
5HhW1Ik8,3ni0wfppjctpbx4ya2wphz5gism608,3ls2amnw5j35bgdviyh02peg3ojqog,5HhW1Ik8,2020-0188,2020-06-04,13:36:37,13:56:15,NA,incomplete,48,number,1,1,right,Blue_Triangle_Chess_2.jpg,Blue_Star_Grid_3.jpg,Red_Plus_Dots_2.jpg,right,618.7049999998417,true,low,false
5HhW1Ik8,3ni0wfppjctpbx4ya2wphz5gism608,3ls2amnw5j35bgdviyh02peg3ojqog,5HhW1Ik8,2020-0188,2020-06-04,13:36:37,13:56:15,NA,incomplete,49,number,1,1,left,Purple_Circle_Grid_4.jpg,Red_Star_Chess_4.jpg,Purple_Triangle_Stripes_1.jpg,left,568.3800000005867,true,low,false
5HhW1Ik8,3ni0wfppjctpbx4ya2wphz5gism608,3ls2amnw5j35bgdviyh02peg3ojqog,5HhW1Ik8,2020-0188,2020-06-04,13:36:37,13:56:15,NA,incomplete,50,number,1,0,right,Purple_Star_Dots_2.jpg,Purple_Triangle_Stripes_4.jpg,Blue_Circle_Grid_2.jpg,right,521.350000000908,true,low,false
5HhW1Ik8,3ni0wfppjctpbx4ya2wphz5gism608,3ls2amnw5j35bgdviyh02peg3ojqog,5HhW1Ik8,2020-0188,2020-06-04,13:36:37,13:56:15,NA,incomplete,51,number,1,1,left,Red_Plus_Grid_2.jpg,Green_Star_Stripes_2.jpg,Red_Circle_Dots_4.jpg,left,514.1300000004703,true,low,false
5HhW1Ik8,3ni0wfppjctpbx4ya2wphz5gism608,3ls2amnw5j35bgdviyh02peg3ojqog,5HhW1Ik8,2020-0188,2020-06-04,13:36:37,13:56:15,NA,incomplete,52,number,1,0,left,Purple_Triangle_Dots_1.jpg,Green_Plus_Grid_1.jpg,Purple_Star_Chess_2.jpg,left,507.864999999525,true,low,false
5HhW1Ik8,3ni0wfppjctpbx4ya2wphz5gism608,3ls2amnw5j35bgdviyh02peg3ojqog,5HhW1Ik8,2020-0188,2020-06-04,13:36:37,13:56:15,NA,incomplete,53,number,1,0,right,Green_Circle_Dots_3.jpg,Green_Star_Stripes_1.jpg,Blue_Plus_Grid_3.jpg,right,401.1650000002701,true,low,false
5HhW1Ik8,3ni0wfppjctpbx4ya2wphz5gism608,3ls2amnw5j35bgdviyh02peg3ojqog,5HhW1Ik8,2020-0188,2020-06-04,13:36:37,13:56:15,NA,incomplete,54,number,1,1,right,Red_Circle_Chess_2.jpg,Red_Triangle_Grid_4.jpg,Purple_Plus_Stripes_2.jpg,right,645.0249999999069,true,low,false
5HhW1Ik8,3ni0wfppjctpbx4ya2wphz5gism608,3ls2amnw5j35bgdviyh02peg3ojqog,5HhW1Ik8,2020-0188,2020-06-04,13:36:37,13:56:15,NA,incomplete,55,number,1,1,right,Red_Circle_Chess_4.jpg,Red_Star_Grid_3.jpg,Purple_Triangle_Dots_4.jpg,right,543.0900000002002,true,low,false
5HhW1Ik8,3ni0wfppjctpbx4ya2wphz5gism608,3ls2amnw5j35bgdviyh02peg3ojqog,5HhW1Ik8,2020-0188,2020-06-04,13:36:37,13:56:15,NA,incomplete,56,number,1,1,left,Red_Circle_Dots_1.jpg,Purple_Plus_Chess_1.jpg,Red_Triangle_Stripes_2.jpg,left,511.53499999968335,true,low,false
5HhW1Ik8,3ni0wfppjctpbx4ya2wphz5gism608,3ls2amnw5j35bgdviyh02peg3ojqog,5HhW1Ik8,2020-0188,2020-06-04,13:36:37,13:56:15,NA,incomplete,57,number,1,1,left,Green_Plus_Dots_1.jpg,Purple_Star_Grid_1.jpg,Green_Circle_Stripes_2.jpg,left,505.22999999986496,true,low,false
5HhW1Ik8,3ni0wfppjctpbx4ya2wphz5gism608,3ls2amnw5j35bgdviyh02peg3ojqog,5HhW1Ik8,2020-0188,2020-06-04,13:36:37,13:56:15,NA,incomplete,58,number,1,1,left,Purple_Plus_Chess_4.jpg,Blue_Triangle_Grid_4.jpg,Purple_Star_Stripes_2.jpg,left,702.5549999998184,true,low,false
5HhW1Ik8,3ni0wfppjctpbx4ya2wphz5gism608,3ls2amnw5j35bgdviyh02peg3ojqog,5HhW1Ik8,2020-0188,2020-06-04,13:36:37,13:56:15,NA,incomplete,59,number,1,1,left,Red_Star_Chess_1.jpg,Purple_Triangle_Grid_1.jpg,Red_Circle_Dots_2.jpg,left,1118.5400000003865,true,low,false
5HhW1Ik8,3ni0wfppjctpbx4ya2wphz5gism608,3ls2amnw5j35bgdviyh02peg3ojqog,5HhW1Ik8,2020-0188,2020-06-04,13:36:37,13:56:15,NA,incomplete,60,color,0,1,right,Green_Triangle_Dots_4.jpg,Purple_Star_Chess_4.jpg,Green_Plus_Stripes_3.jpg,right,443.77499999979045,true,low,false
5HhW1Ik8,3ni0wfppjctpbx4ya2wphz5gism608,3ls2amnw5j35bgdviyh02peg3ojqog,5HhW1Ik8,2020-0188,2020-06-04,13:36:37,13:56:15,NA,incomplete,61,color,0,0,left,Red_Triangle_Dots_3.jpg,Red_Plus_Stripes_2.jpg,Purple_Star_Grid_3.jpg,right,702.070000000298,false,low,false
5HhW1Ik8,3ni0wfppjctpbx4ya2wphz5gism608,3ls2amnw5j35bgdviyh02peg3ojqog,5HhW1Ik8,2020-0188,2020-06-04,13:36:37,13:56:15,NA,incomplete,62,color,0,0,right,Green_Circle_Dots_3.jpg,Purple_Triangle_Grid_3.jpg,Green_Star_Stripes_1.jpg,left,524.2049999997253,false,low,false
5HhW1Ik8,3ni0wfppjctpbx4ya2wphz5gism608,3ls2amnw5j35bgdviyh02peg3ojqog,5HhW1Ik8,2020-0188,2020-06-04,13:36:37,13:56:15,NA,incomplete,63,color,0,1,left,Blue_Plus_Dots_1.jpg,Blue_Circle_Grid_4.jpg,Purple_Triangle_Chess_1.jpg,right,566.3550000007963,false,low,false
5HhW1Ik8,3ni0wfppjctpbx4ya2wphz5gism608,3ls2amnw5j35bgdviyh02peg3ojqog,5HhW1Ik8,2020-0188,2020-06-04,13:36:37,13:56:15,NA,incomplete,64,color,0,1,left,Blue_Star_Dots_3.jpg,Blue_Circle_Chess_1.jpg,Red_Triangle_Grid_3.jpg,right,519.5849999999627,false,low,false
5HhW1Ik8,3ni0wfppjctpbx4ya2wphz5gism608,3ls2amnw5j35bgdviyh02peg3ojqog,5HhW1Ik8,2020-0188,2020-06-04,13:36:37,13:56:15,NA,incomplete,65,color,0,0,right,Purple_Plus_Grid_1.jpg,Green_Star_Stripes_1.jpg,Purple_Circle_Dots_3.jpg,left,490.8599999998696,false,low,false
5HhW1Ik8,3ni0wfppjctpbx4ya2wphz5gism608,3ls2amnw5j35bgdviyh02peg3ojqog,5HhW1Ik8,2020-0188,2020-06-04,13:36:37,13:56:15,NA,incomplete,66,color,0,1,right,Green_Triangle_Chess_2.jpg,Red_Circle_Dots_2.jpg,Green_Star_Grid_1.jpg,left,594.5050000000047,false,low,false
5HhW1Ik8,3ni0wfppjctpbx4ya2wphz5gism608,3ls2amnw5j35bgdviyh02peg3ojqog,5HhW1Ik8,2020-0188,2020-06-04,13:36:37,13:56:15,NA,incomplete,67,color,0,1,right,Purple_Triangle_Stripes_3.jpg,Green_Circle_Grid_3.jpg,Purple_Star_Dots_2.jpg,right,629.0449999996927,true,low,false
5HhW1Ik8,3ni0wfppjctpbx4ya2wphz5gism608,3ls2amnw5j35bgdviyh02peg3ojqog,5HhW1Ik8,2020-0188,2020-06-04,13:36:37,13:56:15,NA,incomplete,68,color,0,1,left,Red_Triangle_Grid_4.jpg,Red_Circle_Dots_1.jpg,Blue_Star_Stripes_4.jpg,left,601.520000000135,true,low,false
5HhW1Ik8,3ni0wfppjctpbx4ya2wphz5gism608,3ls2amnw5j35bgdviyh02peg3ojqog,5HhW1Ik8,2020-0188,2020-06-04,13:36:37,13:56:15,NA,incomplete,69,color,0,1,right,Purple_Plus_Stripes_2.jpg,Green_Triangle_Chess_2.jpg,Purple_Circle_Grid_4.jpg,right,801.4199999998091,true,low,false
5HhW1Ik8,3ni0wfppjctpbx4ya2wphz5gism608,3ls2amnw5j35bgdviyh02peg3ojqog,5HhW1Ik8,2020-0188,2020-06-04,13:36:37,13:56:15,NA,incomplete,70,color,0,1,left,Red_Circle_Stripes_2.jpg,Red_Plus_Grid_1.jpg,Purple_Star_Dots_2.jpg,left,526.9450000005309,true,low,false
5HhW1Ik8,3ni0wfppjctpbx4ya2wphz5gism608,3ls2amnw5j35bgdviyh02peg3ojqog,5HhW1Ik8,2020-0188,2020-06-04,13:36:37,13:56:15,NA,incomplete,71,color,0,1,right,Blue_Star_Dots_3.jpg,Red_Circle_Chess_3.jpg,Blue_Triangle_Stripes_1.jpg,right,494.85499999986496,true,low,false
5HhW1Ik8,3ni0wfppjctpbx4ya2wphz5gism608,3ls2amnw5j35bgdviyh02peg3ojqog,5HhW1Ik8,2020-0188,2020-06-04,13:36:37,13:56:15,NA,incomplete,72,color,0,0,right,Green_Triangle_Dots_4.jpg,Red_Plus_Chess_4.jpg,Green_Star_Grid_2.jpg,right,479.8049999999348,true,low,false
5HhW1Ik8,3ni0wfppjctpbx4ya2wphz5gism608,3ls2amnw5j35bgdviyh02peg3ojqog,5HhW1Ik8,2020-0188,2020-06-04,13:36:37,13:56:15,NA,incomplete,73,color,0,1,right,Blue_Star_Dots_3.jpg,Green_Circle_Grid_3.jpg,Blue_Plus_Chess_2.jpg,right,471.2449999996461,true,low,false
5HhW1Ik8,3ni0wfppjctpbx4ya2wphz5gism608,3ls2amnw5j35bgdviyh02peg3ojqog,5HhW1Ik8,2020-0188,2020-06-04,13:36:37,13:56:15,NA,incomplete,74,color,0,1,right,Red_Circle_Grid_4.jpg,Purple_Star_Chess_4.jpg,Red_Triangle_Dots_2.jpg,right,754.0799999997253,true,low,false
5HhW1Ik8,3ni0wfppjctpbx4ya2wphz5gism608,3ls2amnw5j35bgdviyh02peg3ojqog,5HhW1Ik8,2020-0188,2020-06-04,13:36:37,13:56:15,NA,incomplete,75,color,0,1,left,Red_Circle_Chess_1.jpg,Red_Triangle_Dots_2.jpg,Green_Star_Stripes_1.jpg,left,434.25000000023283,true,low,false
5HhW1Ik8,3ni0wfppjctpbx4ya2wphz5gism608,3ls2amnw5j35bgdviyh02peg3ojqog,5HhW1Ik8,2020-0188,2020-06-04,13:36:37,13:56:15,NA,incomplete,76,color,0,1,left,Red_Triangle_Dots_2.jpg,Red_Plus_Stripes_4.jpg,Green_Star_Grid_2.jpg,left,435.4599999996135,true,low,false
5HhW1Ik8,3ni0wfppjctpbx4ya2wphz5gism608,3ls2amnw5j35bgdviyh02peg3ojqog,5HhW1Ik8,2020-0188,2020-06-04,13:36:37,13:56:15,NA,incomplete,77,color,0,0,right,Blue_Plus_Grid_4.jpg,Purple_Circle_Dots_4.jpg,Blue_Triangle_Stripes_3.jpg,right,787.7749999997905,true,low,false
5HhW1Ik8,3ni0wfppjctpbx4ya2wphz5gism608,3ls2amnw5j35bgdviyh02peg3ojqog,5HhW1Ik8,2020-0188,2020-06-04,13:36:37,13:56:15,NA,incomplete,78,color,0,1,right,Green_Triangle_Stripes_1.jpg,Red_Circle_Grid_1.jpg,Green_Plus_Chess_3.jpg,right,455.11499999975786,true,low,false
5HhW1Ik8,3ni0wfppjctpbx4ya2wphz5gism608,3ls2amnw5j35bgdviyh02peg3ojqog,5HhW1Ik8,2020-0188,2020-06-04,13:36:37,13:56:15,NA,incomplete,79,color,0,1,left,Purple_Star_Dots_3.jpg,Purple_Triangle_Grid_2.jpg,Blue_Circle_Stripes_3.jpg,left,713.9750000006752,true,low,false
5HhW1Ik8,3ni0wfppjctpbx4ya2wphz5gism608,3ls2amnw5j35bgdviyh02peg3ojqog,5HhW1Ik8,2020-0188,2020-06-04,13:36:37,13:56:15,NA,incomplete,80,color,0,1,left,Blue_Plus_Grid_2.jpg,Blue_Circle_Stripes_1.jpg,Purple_Star_Chess_2.jpg,left,637.604999999865,true,low,false
5HhW1Ik8,3ni0wfppjctpbx4ya2wphz5gism608,3ls2amnw5j35bgdviyh02peg3ojqog,5HhW1Ik8,2020-0188,2020-06-04,13:36:37,13:56:15,NA,incomplete,81,color,0,1,right,Blue_Plus_Grid_2.jpg,Green_Star_Stripes_2.jpg,Blue_Triangle_Chess_1.jpg,right,430.2799999995623,true,low,false
5HhW1Ik8,3ni0wfppjctpbx4ya2wphz5gism608,3ls2amnw5j35bgdviyh02peg3ojqog,5HhW1Ik8,2020-0188,2020-06-04,13:36:37,13:56:15,NA,incomplete,82,color,0,0,right,Purple_Star_Chess_3.jpg,Red_Circle_Grid_3.jpg,Purple_Plus_Dots_4.jpg,right,763.6149999998743,true,low,false
5HhW1Ik8,3ni0wfppjctpbx4ya2wphz5gism608,3ls2amnw5j35bgdviyh02peg3ojqog,5HhW1Ik8,2020-0188,2020-06-04,13:36:37,13:56:15,NA,incomplete,83,color,0,0,right,Blue_Star_Grid_1.jpg,Purple_Circle_Chess_1.jpg,Blue_Plus_Stripes_3.jpg,right,463.03499999968335,true,low,false
5HhW1Ik8,3ni0wfppjctpbx4ya2wphz5gism608,3ls2amnw5j35bgdviyh02peg3ojqog,5HhW1Ik8,2020-0188,2020-06-04,13:36:37,13:56:15,NA,incomplete,84,color,0,0,right,Purple_Circle_Grid_4.jpg,Red_Triangle_Stripes_4.jpg,Purple_Plus_Dots_2.jpg,left,548.6900000005262,false,low,false
5HhW1Ik8,3ni0wfppjctpbx4ya2wphz5gism608,3ls2amnw5j35bgdviyh02peg3ojqog,5HhW1Ik8,2020-0188,2020-06-04,13:36:37,13:56:15,NA,incomplete,85,color,0,1,left,Purple_Circle_Stripes_2.jpg,Purple_Triangle_Grid_3.jpg,Green_Star_Chess_2.jpg,right,639.3850000003586,false,low,false
5HhW1Ik8,3ni0wfppjctpbx4ya2wphz5gism608,3ls2amnw5j35bgdviyh02peg3ojqog,5HhW1Ik8,2020-0188,2020-06-04,13:36:37,13:56:15,NA,incomplete,86,color,0,0,left,Red_Triangle_Grid_2.jpg,Red_Star_Stripes_3.jpg,Purple_Plus_Dots_2.jpg,left,693.4649999993853,true,low,false
5HhW1Ik8,3ni0wfppjctpbx4ya2wphz5gism608,3ls2amnw5j35bgdviyh02peg3ojqog,5HhW1Ik8,2020-0188,2020-06-04,13:36:37,13:56:15,NA,incomplete,87,color,0,1,right,Purple_Circle_Chess_3.jpg,Red_Star_Stripes_3.jpg,Purple_Triangle_Dots_4.jpg,left,1195.8299999997253,false,low,false
5HhW1Ik8,3ni0wfppjctpbx4ya2wphz5gism608,3ls2amnw5j35bgdviyh02peg3ojqog,5HhW1Ik8,2020-0188,2020-06-04,13:36:37,13:56:15,NA,incomplete,88,color,0,1,right,Blue_Triangle_Grid_2.jpg,Red_Star_Dots_2.jpg,Blue_Plus_Stripes_3.jpg,left,610.2000000000698,false,low,false
5HhW1Ik8,3ni0wfppjctpbx4ya2wphz5gism608,3ls2amnw5j35bgdviyh02peg3ojqog,5HhW1Ik8,2020-0188,2020-06-04,13:36:37,13:56:15,NA,incomplete,89,color,0,1,left,Red_Star_Chess_2.jpg,Red_Triangle_Dots_1.jpg,Green_Circle_Stripes_2.jpg,left,479.9700000003213,true,low,false
5HhW1Ik8,3ni0wfppjctpbx4ya2wphz5gism608,3ls2amnw5j35bgdviyh02peg3ojqog,5HhW1Ik8,2020-0188,2020-06-04,13:36:37,13:56:15,NA,incomplete,90,number,1,1,left,Purple_Circle_Grid_3.jpg,Green_Star_Stripes_3.jpg,Purple_Plus_Chess_2.jpg,left,705.0250000002561,true,low,false
5HhW1Ik8,3ni0wfppjctpbx4ya2wphz5gism608,3ls2amnw5j35bgdviyh02peg3ojqog,5HhW1Ik8,2020-0188,2020-06-04,13:36:37,13:56:15,NA,incomplete,91,number,1,1,left,Purple_Star_Chess_1.jpg,Blue_Plus_Grid_1.jpg,Purple_Circle_Dots_3.jpg,left,537.605000000447,true,low,false
5HhW1Ik8,3ni0wfppjctpbx4ya2wphz5gism608,3ls2amnw5j35bgdviyh02peg3ojqog,5HhW1Ik8,2020-0188,2020-06-04,13:36:37,13:56:15,NA,incomplete,92,number,1,1,right,Blue_Circle_Grid_4.jpg,Blue_Triangle_Chess_2.jpg,Red_Star_Dots_4.jpg,left,735.9450000004144,false,low,false
5HhW1Ik8,3ni0wfppjctpbx4ya2wphz5gism608,3ls2amnw5j35bgdviyh02peg3ojqog,5HhW1Ik8,2020-0188,2020-06-04,13:36:37,13:56:15,NA,incomplete,93,number,1,1,right,Blue_Circle_Grid_1.jpg,Blue_Star_Chess_3.jpg,Red_Triangle_Stripes_1.jpg,left,604.9899999997579,false,low,false
5HhW1Ik8,3ni0wfppjctpbx4ya2wphz5gism608,3ls2amnw5j35bgdviyh02peg3ojqog,5HhW1Ik8,2020-0188,2020-06-04,13:36:37,13:56:15,NA,incomplete,94,number,1,1,right,Green_Circle_Grid_3.jpg,Green_Star_Dots_4.jpg,Blue_Triangle_Stripes_3.jpg,right,697.1599999997998,true,low,false
5HhW1Ik8,3ni0wfppjctpbx4ya2wphz5gism608,3ls2amnw5j35bgdviyh02peg3ojqog,5HhW1Ik8,2020-0188,2020-06-04,13:36:37,13:56:15,NA,incomplete,95,number,1,1,left,Red_Plus_Chess_3.jpg,Blue_Circle_Dots_3.jpg,Red_Star_Grid_4.jpg,left,782.460000000312,true,low,false
5HhW1Ik8,3ni0wfppjctpbx4ya2wphz5gism608,3ls2amnw5j35bgdviyh02peg3ojqog,5HhW1Ik8,2020-0188,2020-06-04,13:36:37,13:56:15,NA,incomplete,96,number,1,1,right,Purple_Circle_Chess_4.jpg,Purple_Plus_Grid_3.jpg,Green_Star_Stripes_4.jpg,right,631.984999999986,true,low,false
5HhW1Ik8,3ni0wfppjctpbx4ya2wphz5gism608,3ls2amnw5j35bgdviyh02peg3ojqog,5HhW1Ik8,2020-0188,2020-06-04,13:36:37,13:56:15,NA,incomplete,97,number,1,1,left,Blue_Triangle_Stripes_4.jpg,Green_Circle_Chess_4.jpg,Blue_Star_Dots_1.jpg,left,555.5400000002701,true,low,false
5HhW1Ik8,3ni0wfppjctpbx4ya2wphz5gism608,3ls2amnw5j35bgdviyh02peg3ojqog,5HhW1Ik8,2020-0188,2020-06-04,13:36:37,13:56:15,NA,incomplete,98,number,1,0,right,Red_Plus_Grid_4.jpg,Red_Star_Stripes_2.jpg,Blue_Circle_Dots_4.jpg,right,602.4500000003027,true,low,false
5HhW1Ik8,3ni0wfppjctpbx4ya2wphz5gism608,3ls2amnw5j35bgdviyh02peg3ojqog,5HhW1Ik8,2020-0188,2020-06-04,13:36:37,13:56:15,NA,incomplete,99,number,1,1,right,Green_Plus_Grid_1.jpg,Green_Triangle_Dots_4.jpg,Purple_Circle_Chess_1.jpg,right,918.3199999998324,true,low,false
5HhW1Ik8,3ni0wfppjctpbx4ya2wphz5gism608,3ls2amnw5j35bgdviyh02peg3ojqog,5HhW1Ik8,2020-0188,2020-06-04,13:36:37,13:56:15,NA,incomplete,100,number,1,1,left,Purple_Star_Stripes_2.jpg,Red_Plus_Grid_2.jpg,Purple_Circle_Chess_4.jpg,left,517.7850000000326,true,low,false
5HhW1Ik8,3ni0wfppjctpbx4ya2wphz5gism608,3ls2amnw5j35bgdviyh02peg3ojqog,5HhW1Ik8,2020-0188,2020-06-04,13:36:37,13:56:15,NA,incomplete,101,number,1,0,right,Purple_Plus_Grid_4.jpg,Purple_Circle_Dots_3.jpg,Red_Star_Chess_4.jpg,right,630.9199999996927,true,low,false
5HhW1Ik8,3ni0wfppjctpbx4ya2wphz5gism608,3ls2amnw5j35bgdviyh02peg3ojqog,5HhW1Ik8,2020-0188,2020-06-04,13:36:37,13:56:15,NA,incomplete,102,number,1,1,right,Blue_Circle_Grid_2.jpg,Blue_Star_Dots_4.jpg,Green_Triangle_Stripes_2.jpg,right,559.7399999997579,true,low,false
5HhW1Ik8,3ni0wfppjctpbx4ya2wphz5gism608,3ls2amnw5j35bgdviyh02peg3ojqog,5HhW1Ik8,2020-0188,2020-06-04,13:36:37,13:56:15,NA,incomplete,103,number,1,1,right,Purple_Triangle_Grid_4.jpg,Purple_Circle_Chess_2.jpg,Green_Plus_Stripes_4.jpg,right,559.2999999999302,true,low,false
5HhW1Ik8,3ni0wfppjctpbx4ya2wphz5gism608,3ls2amnw5j35bgdviyh02peg3ojqog,5HhW1Ik8,2020-0188,2020-06-04,13:36:37,13:56:15,NA,incomplete,104,number,1,1,right,Purple_Triangle_Dots_1.jpg,Purple_Star_Grid_2.jpg,Red_Plus_Stripes_1.jpg,right,525.4899999999907,true,low,false
5HhW1Ik8,3ni0wfppjctpbx4ya2wphz5gism608,3ls2amnw5j35bgdviyh02peg3ojqog,5HhW1Ik8,2020-0188,2020-06-04,13:36:37,13:56:15,NA,incomplete,105,number,1,1,left,Blue_Plus_Dots_4.jpg,Green_Star_Grid_4.jpg,Blue_Triangle_Stripes_3.jpg,left,568.0149999997811,true,low,false
5HhW1Ik8,3ni0wfppjctpbx4ya2wphz5gism608,3ls2amnw5j35bgdviyh02peg3ojqog,5HhW1Ik8,2020-0188,2020-06-04,13:36:37,13:56:15,NA,incomplete,106,number,1,0,right,Purple_Circle_Dots_1.jpg,Purple_Plus_Chess_3.jpg,Green_Star_Grid_1.jpg,right,513.1600000003818,true,low,false
5HhW1Ik8,3ni0wfppjctpbx4ya2wphz5gism608,3ls2amnw5j35bgdviyh02peg3ojqog,5HhW1Ik8,2020-0188,2020-06-04,13:36:37,13:56:15,NA,incomplete,107,number,1,1,left,Purple_Star_Grid_3.jpg,Red_Circle_Stripes_3.jpg,Purple_Triangle_Dots_4.jpg,left,592.4249999998137,true,low,false
5HhW1Ik8,3ni0wfppjctpbx4ya2wphz5gism608,3ls2amnw5j35bgdviyh02peg3ojqog,5HhW1Ik8,2020-0188,2020-06-04,13:36:37,13:56:15,NA,incomplete,108,number,1,0,left,Blue_Circle_Dots_4.jpg,Red_Triangle_Stripes_4.jpg,Blue_Plus_Chess_2.jpg,left,558.5800000008894,true,low,false
5HhW1Ik8,3ni0wfppjctpbx4ya2wphz5gism608,3ls2amnw5j35bgdviyh02peg3ojqog,5HhW1Ik8,2020-0188,2020-06-04,13:36:37,13:56:15,NA,incomplete,109,number,1,1,right,Blue_Circle_Dots_2.jpg,Blue_Plus_Chess_4.jpg,Purple_Star_Stripes_2.jpg,right,506.20499999960884,true,low,false
5HhW1Ik8,3ni0wfppjctpbx4ya2wphz5gism608,3ls2amnw5j35bgdviyh02peg3ojqog,5HhW1Ik8,2020-0188,2020-06-04,13:36:37,13:56:15,NA,incomplete,110,number,1,1,left,Red_Circle_Chess_2.jpg,Purple_Plus_Grid_2.jpg,Red_Triangle_Dots_4.jpg,left,585.6750000002794,true,low,false
5HhW1Ik8,3ni0wfppjctpbx4ya2wphz5gism608,3ls2amnw5j35bgdviyh02peg3ojqog,5HhW1Ik8,2020-0188,2020-06-04,13:36:37,13:56:15,NA,incomplete,111,number,1,1,left,Green_Triangle_Dots_2.jpg,Blue_Circle_Stripes_2.jpg,Green_Plus_Chess_3.jpg,left,570.4800000003306,true,low,false
5HhW1Ik8,3ni0wfppjctpbx4ya2wphz5gism608,3ls2amnw5j35bgdviyh02peg3ojqog,5HhW1Ik8,2020-0188,2020-06-04,13:36:37,13:56:15,NA,incomplete,112,number,1,1,right,Purple_Plus_Grid_1.jpg,Purple_Circle_Dots_4.jpg,Green_Triangle_Stripes_1.jpg,right,555.2699999999022,true,low,false
5HhW1Ik8,3ni0wfppjctpbx4ya2wphz5gism608,3ls2amnw5j35bgdviyh02peg3ojqog,5HhW1Ik8,2020-0188,2020-06-04,13:36:37,13:56:15,NA,incomplete,113,number,1,1,left,Blue_Triangle_Dots_2.jpg,Purple_Plus_Grid_2.jpg,Blue_Star_Chess_1.jpg,left,549.1800000000512,true,low,false
5HhW1Ik8,3ni0wfppjctpbx4ya2wphz5gism608,3ls2amnw5j35bgdviyh02peg3ojqog,5HhW1Ik8,2020-0188,2020-06-04,13:36:37,13:56:15,NA,incomplete,114,number,1,1,left,Blue_Plus_Stripes_4.jpg,Purple_Circle_Grid_4.jpg,Blue_Star_Chess_3.jpg,right,743.8050000000512,false,low,false
5HhW1Ik8,3ni0wfppjctpbx4ya2wphz5gism608,3ls2amnw5j35bgdviyh02peg3ojqog,5HhW1Ik8,2020-0188,2020-06-04,13:36:37,13:56:15,NA,incomplete,115,number,1,1,left,Green_Star_Stripes_3.jpg,Red_Plus_Grid_3.jpg,Green_Triangle_Dots_4.jpg,left,567.0049999998882,true,low,false
5HhW1Ik8,3ni0wfppjctpbx4ya2wphz5gism608,3ls2amnw5j35bgdviyh02peg3ojqog,5HhW1Ik8,2020-0188,2020-06-04,13:36:37,13:56:15,NA,incomplete,116,number,1,1,right,Blue_Triangle_Chess_2.jpg,Blue_Circle_Grid_4.jpg,Green_Plus_Dots_2.jpg,right,586.2950000000419,true,low,false
5HhW1Ik8,3ni0wfppjctpbx4ya2wphz5gism608,3ls2amnw5j35bgdviyh02peg3ojqog,5HhW1Ik8,2020-0188,2020-06-04,13:36:37,13:56:15,NA,incomplete,117,number,1,1,left,Red_Plus_Chess_1.jpg,Blue_Star_Dots_1.jpg,Red_Circle_Grid_4.jpg,left,530.9200000001583,true,low,false
5HhW1Ik8,3ni0wfppjctpbx4ya2wphz5gism608,3ls2amnw5j35bgdviyh02peg3ojqog,5HhW1Ik8,2020-0188,2020-06-04,13:36:37,13:56:15,NA,incomplete,118,number,1,1,right,Blue_Circle_Stripes_3.jpg,Blue_Star_Chess_2.jpg,Red_Plus_Dots_3.jpg,right,557.9250000000466,true,low,false
5HhW1Ik8,3ni0wfppjctpbx4ya2wphz5gism608,3ls2amnw5j35bgdviyh02peg3ojqog,5HhW1Ik8,2020-0188,2020-06-04,13:36:37,13:56:15,NA,incomplete,119,number,1,1,right,Green_Star_Grid_3.jpg,Green_Plus_Stripes_1.jpg,Purple_Triangle_Chess_3.jpg,right,592.1650000000373,true,low,false
5HhW1Ik8,3ni0wfppjctpbx4ya2wphz5gism608,3ls2amnw5j35bgdviyh02peg3ojqog,5HhW1Ik8,2020-0188,2020-06-04,13:36:37,13:56:15,NA,incomplete,120,race,2,1,left,C_M_10.jpg,C_F_16.jpg,A_M_01.jpg,NA,NA,NA,low,false
5HhW1Ik8,3ni0wfppjctpbx4ya2wphz5gism608,3ls2amnw5j35bgdviyh02peg3ojqog,5HhW1Ik8,2020-0188,2020-06-04,13:36:37,13:56:15,NA,incomplete,121,race,2,1,right,A_F_12.jpg,C_F_14.jpg,A_M_08.jpg,left,1874.6899999997113,false,low,false
5HhW1Ik8,3ni0wfppjctpbx4ya2wphz5gism608,3ls2amnw5j35bgdviyh02peg3ojqog,5HhW1Ik8,2020-0188,2020-06-04,13:36:37,13:56:15,NA,incomplete,122,race,2,1,left,C_M_02.jpg,C_F_09.jpg,A_M_08.jpg,right,924.4950000002282,false,low,false
5HhW1Ik8,3ni0wfppjctpbx4ya2wphz5gism608,3ls2amnw5j35bgdviyh02peg3ojqog,5HhW1Ik8,2020-0188,2020-06-04,13:36:37,13:56:15,NA,incomplete,123,race,2,1,left,C_F_02.jpg,C_M_04.jpg,A_F_10.jpg,left,900.3149999998277,true,low,false
5HhW1Ik8,3ni0wfppjctpbx4ya2wphz5gism608,3ls2amnw5j35bgdviyh02peg3ojqog,5HhW1Ik8,2020-0188,2020-06-04,13:36:37,13:56:15,NA,incomplete,124,race,2,1,right,A_M_16.jpg,C_M_05.jpg,A_F_14.jpg,right,837.2049999998417,true,low,false
5HhW1Ik8,3ni0wfppjctpbx4ya2wphz5gism608,3ls2amnw5j35bgdviyh02peg3ojqog,5HhW1Ik8,2020-0188,2020-06-04,13:36:37,13:56:15,NA,incomplete,125,race,2,1,left,A_M_01.jpg,A_F_08.jpg,C_M_05.jpg,left,711.9499999999534,true,low,false
5HhW1Ik8,3ni0wfppjctpbx4ya2wphz5gism608,3ls2amnw5j35bgdviyh02peg3ojqog,5HhW1Ik8,2020-0188,2020-06-04,13:36:37,13:56:15,NA,incomplete,126,race,2,1,left,C_F_02.jpg,C_M_15.jpg,A_F_09.jpg,left,670.8849999995437,true,low,false
5HhW1Ik8,3ni0wfppjctpbx4ya2wphz5gism608,3ls2amnw5j35bgdviyh02peg3ojqog,5HhW1Ik8,2020-0188,2020-06-04,13:36:37,13:56:15,NA,incomplete,127,race,2,1,right,A_M_10.jpg,C_M_09.jpg,A_F_04.jpg,right,909.7050000000745,true,low,false
5HhW1Ik8,3ni0wfppjctpbx4ya2wphz5gism608,3ls2amnw5j35bgdviyh02peg3ojqog,5HhW1Ik8,2020-0188,2020-06-04,13:36:37,13:56:15,NA,incomplete,128,race,2,1,right,C_M_12.jpg,A_M_16.jpg,C_F_03.jpg,right,759.0850000006612,true,low,false
5HhW1Ik8,3ni0wfppjctpbx4ya2wphz5gism608,3ls2amnw5j35bgdviyh02peg3ojqog,5HhW1Ik8,2020-0188,2020-06-04,13:36:37,13:56:15,NA,incomplete,129,race,2,1,left,C_F_13.jpg,C_M_05.jpg,A_F_07.jpg,left,803.279999999213,true,low,false
5HhW1Ik8,3ni0wfppjctpbx4ya2wphz5gism608,3ls2amnw5j35bgdviyh02peg3ojqog,5HhW1Ik8,2020-0188,2020-06-04,13:36:37,13:56:15,NA,incomplete,130,race,2,0,right,C_M_10.jpg,A_M_16.jpg,C_F_04.jpg,right,772.4550000001909,true,low,false
5HhW1Ik8,3ni0wfppjctpbx4ya2wphz5gism608,3ls2amnw5j35bgdviyh02peg3ojqog,5HhW1Ik8,2020-0188,2020-06-04,13:36:37,13:56:15,NA,incomplete,131,race,2,1,right,A_F_05.jpg,C_F_09.jpg,A_M_13.jpg,right,866.4799999997485,true,low,false
5HhW1Ik8,3ni0wfppjctpbx4ya2wphz5gism608,3ls2amnw5j35bgdviyh02peg3ojqog,5HhW1Ik8,2020-0188,2020-06-04,13:36:37,13:56:15,NA,incomplete,132,race,2,1,left,C_M_12.jpg,C_F_06.jpg,A_M_01.jpg,left,754.8750000005821,true,low,false
5HhW1Ik8,3ni0wfppjctpbx4ya2wphz5gism608,3ls2amnw5j35bgdviyh02peg3ojqog,5HhW1Ik8,2020-0188,2020-06-04,13:36:37,13:56:15,NA,incomplete,133,race,2,0,left,C_M_13.jpg,C_F_09.jpg,A_M_16.jpg,left,1035.4449999994831,true,low,false
5HhW1Ik8,3ni0wfppjctpbx4ya2wphz5gism608,3ls2amnw5j35bgdviyh02peg3ojqog,5HhW1Ik8,2020-0188,2020-06-04,13:36:37,13:56:15,NA,incomplete,134,race,2,1,left,A_M_14.jpg,A_F_15.jpg,C_M_08.jpg,left,920.1150000008056,true,low,false
5HhW1Ik8,3ni0wfppjctpbx4ya2wphz5gism608,3ls2amnw5j35bgdviyh02peg3ojqog,5HhW1Ik8,2020-0188,2020-06-04,13:36:37,13:56:15,NA,incomplete,135,race,2,1,left,A_M_13.jpg,A_F_09.jpg,C_M_12.jpg,right,702.3650000001071,false,low,false
5HhW1Ik8,3ni0wfppjctpbx4ya2wphz5gism608,3ls2amnw5j35bgdviyh02peg3ojqog,5HhW1Ik8,2020-0188,2020-06-04,13:36:37,13:56:15,NA,incomplete,136,race,2,1,left,C_F_12.jpg,C_M_07.jpg,A_F_05.jpg,right,675.8099999997066,false,low,false
5HhW1Ik8,3ni0wfppjctpbx4ya2wphz5gism608,3ls2amnw5j35bgdviyh02peg3ojqog,5HhW1Ik8,2020-0188,2020-06-04,13:36:37,13:56:15,NA,incomplete,137,race,2,1,left,C_F_06.jpg,C_M_13.jpg,A_F_02.jpg,left,797.0000000004657,true,low,false
5HhW1Ik8,3ni0wfppjctpbx4ya2wphz5gism608,3ls2amnw5j35bgdviyh02peg3ojqog,5HhW1Ik8,2020-0188,2020-06-04,13:36:37,13:56:15,NA,incomplete,138,race,2,1,left,A_F_16.jpg,A_M_11.jpg,C_F_05.jpg,left,721.4450000001816,true,low,false
5HhW1Ik8,3ni0wfppjctpbx4ya2wphz5gism608,3ls2amnw5j35bgdviyh02peg3ojqog,5HhW1Ik8,2020-0188,2020-06-04,13:36:37,13:56:15,NA,incomplete,139,race,2,1,right,A_M_09.jpg,C_M_15.jpg,A_F_04.jpg,right,1038.4349999994738,true,low,false
5HhW1Ik8,3ni0wfppjctpbx4ya2wphz5gism608,3ls2amnw5j35bgdviyh02peg3ojqog,5HhW1Ik8,2020-0188,2020-06-04,13:36:37,13:56:15,NA,incomplete,140,gender,3,1,right,C_M_09.jpg,C_F_06.jpg,A_M_05.jpg,left,750.8600000001024,false,low,false
5HhW1Ik8,3ni0wfppjctpbx4ya2wphz5gism608,3ls2amnw5j35bgdviyh02peg3ojqog,5HhW1Ik8,2020-0188,2020-06-04,13:36:37,13:56:15,NA,incomplete,141,gender,3,1,left,C_F_16.jpg,A_F_12.jpg,C_M_10.jpg,right,1035.2199999997392,false,low,false
5HhW1Ik8,3ni0wfppjctpbx4ya2wphz5gism608,3ls2amnw5j35bgdviyh02peg3ojqog,5HhW1Ik8,2020-0188,2020-06-04,13:36:37,13:56:15,NA,incomplete,142,gender,3,1,left,C_F_04.jpg,A_F_10.jpg,C_M_06.jpg,right,786.6599999997998,false,low,false
5HhW1Ik8,3ni0wfppjctpbx4ya2wphz5gism608,3ls2amnw5j35bgdviyh02peg3ojqog,5HhW1Ik8,2020-0188,2020-06-04,13:36:37,13:56:15,NA,incomplete,143,gender,3,1,left,A_F_04.jpg,C_F_08.jpg,A_M_12.jpg,left,610.2449999997625,true,low,false
5HhW1Ik8,3ni0wfppjctpbx4ya2wphz5gism608,3ls2amnw5j35bgdviyh02peg3ojqog,5HhW1Ik8,2020-0188,2020-06-04,13:36:37,13:56:15,NA,incomplete,144,gender,3,0,left,A_M_02.jpg,C_M_10.jpg,A_F_14.jpg,left,603.5899999997346,true,low,false
5HhW1Ik8,3ni0wfppjctpbx4ya2wphz5gism608,3ls2amnw5j35bgdviyh02peg3ojqog,5HhW1Ik8,2020-0188,2020-06-04,13:36:37,13:56:15,NA,incomplete,145,gender,3,1,left,A_F_08.jpg,C_F_11.jpg,A_M_03.jpg,left,724.9149999998044,true,low,false
5HhW1Ik8,3ni0wfppjctpbx4ya2wphz5gism608,3ls2amnw5j35bgdviyh02peg3ojqog,5HhW1Ik8,2020-0188,2020-06-04,13:36:37,13:56:15,NA,incomplete,146,gender,3,1,left,C_F_07.jpg,A_F_13.jpg,C_M_04.jpg,left,817.3150000002934,true,low,false
5HhW1Ik8,3ni0wfppjctpbx4ya2wphz5gism608,3ls2amnw5j35bgdviyh02peg3ojqog,5HhW1Ik8,2020-0188,2020-06-04,13:36:37,13:56:15,NA,incomplete,147,gender,3,0,left,C_F_13.jpg,A_F_02.jpg,C_M_16.jpg,left,548.9649999999674,true,low,false
5HhW1Ik8,3ni0wfppjctpbx4ya2wphz5gism608,3ls2amnw5j35bgdviyh02peg3ojqog,5HhW1Ik8,2020-0188,2020-06-04,13:36:37,13:56:15,NA,incomplete,148,gender,3,1,right,A_M_03.jpg,A_F_05.jpg,C_M_14.jpg,right,740.3649999996414,true,low,false
5HhW1Ik8,3ni0wfppjctpbx4ya2wphz5gism608,3ls2amnw5j35bgdviyh02peg3ojqog,5HhW1Ik8,2020-0188,2020-06-04,13:36:37,13:56:15,NA,incomplete,149,gender,3,1,left,C_M_16.jpg,A_M_05.jpg,C_F_07.jpg,left,502.46000000066124,true,low,false
5HhW1Ik8,3ni0wfppjctpbx4ya2wphz5gism608,3ls2amnw5j35bgdviyh02peg3ojqog,5HhW1Ik8,2020-0188,2020-06-04,13:36:37,13:56:15,NA,incomplete,150,gender,3,0,left,A_M_10.jpg,C_M_06.jpg,A_F_04.jpg,left,479.2550000002375,true,low,false
5HhW1Ik8,3ni0wfppjctpbx4ya2wphz5gism608,3ls2amnw5j35bgdviyh02peg3ojqog,5HhW1Ik8,2020-0188,2020-06-04,13:36:37,13:56:15,NA,incomplete,151,gender,3,1,left,C_M_15.jpg,A_M_08.jpg,C_F_16.jpg,left,519.2950000001583,true,low,false
5HhW1Ik8,3ni0wfppjctpbx4ya2wphz5gism608,3ls2amnw5j35bgdviyh02peg3ojqog,5HhW1Ik8,2020-0188,2020-06-04,13:36:37,13:56:15,NA,incomplete,152,gender,3,0,right,A_M_10.jpg,A_F_07.jpg,C_M_01.jpg,right,533.9249999996973,true,low,false
5HhW1Ik8,3ni0wfppjctpbx4ya2wphz5gism608,3ls2amnw5j35bgdviyh02peg3ojqog,5HhW1Ik8,2020-0188,2020-06-04,13:36:37,13:56:15,NA,incomplete,153,gender,3,1,right,C_F_08.jpg,C_M_12.jpg,A_F_15.jpg,left,813.4250000002794,false,low,false
5HhW1Ik8,3ni0wfppjctpbx4ya2wphz5gism608,3ls2amnw5j35bgdviyh02peg3ojqog,5HhW1Ik8,2020-0188,2020-06-04,13:36:37,13:56:15,NA,incomplete,154,gender,3,1,right,A_F_15.jpg,A_M_04.jpg,C_F_02.jpg,right,551.4199999998091,true,low,false
5HhW1Ik8,3ni0wfppjctpbx4ya2wphz5gism608,3ls2amnw5j35bgdviyh02peg3ojqog,5HhW1Ik8,2020-0188,2020-06-04,13:36:37,13:56:15,NA,incomplete,155,gender,3,0,left,C_M_11.jpg,A_M_12.jpg,C_F_15.jpg,left,583.6699999999255,true,low,false
5HhW1Ik8,3ni0wfppjctpbx4ya2wphz5gism608,3ls2amnw5j35bgdviyh02peg3ojqog,5HhW1Ik8,2020-0188,2020-06-04,13:36:37,13:56:15,NA,incomplete,156,gender,3,1,left,C_F_13.jpg,A_F_16.jpg,C_M_06.jpg,left,867.680000000284,true,low,false
5HhW1Ik8,3ni0wfppjctpbx4ya2wphz5gism608,3ls2amnw5j35bgdviyh02peg3ojqog,5HhW1Ik8,2020-0188,2020-06-04,13:36:37,13:56:15,NA,incomplete,157,gender,3,1,right,A_F_09.jpg,A_M_16.jpg,C_F_02.jpg,left,698.4000000002561,false,low,false
5HhW1Ik8,3ni0wfppjctpbx4ya2wphz5gism608,3ls2amnw5j35bgdviyh02peg3ojqog,5HhW1Ik8,2020-0188,2020-06-04,13:36:37,13:56:15,NA,incomplete,158,gender,3,1,right,A_M_06.jpg,A_F_04.jpg,C_M_09.jpg,right,712.140000000596,true,low,false
5HhW1Ik8,3ni0wfppjctpbx4ya2wphz5gism608,3ls2amnw5j35bgdviyh02peg3ojqog,5HhW1Ik8,2020-0188,2020-06-04,13:36:37,13:56:15,NA,incomplete,159,gender,3,0,right,C_M_08.jpg,C_F_05.jpg,A_M_12.jpg,right,572.8300000000745,true,low,false
5HhW1Ik8,3ni0wfppjctpbx4ya2wphz5gism608,3ls2amnw5j35bgdviyh02peg3ojqog,5HhW1Ik8,2020-0188,2020-06-04,13:36:37,13:56:15,NA,incomplete,160,race,2,1,right,C_F_16.jpg,A_F_08.jpg,C_M_11.jpg,left,739.0450000002747,false,low,false
5HhW1Ik8,3ni0wfppjctpbx4ya2wphz5gism608,3ls2amnw5j35bgdviyh02peg3ojqog,5HhW1Ik8,2020-0188,2020-06-04,13:36:37,13:56:15,NA,incomplete,161,race,2,0,right,A_F_13.jpg,C_F_08.jpg,A_M_06.jpg,left,633.4749999996275,false,low,false
5HhW1Ik8,3ni0wfppjctpbx4ya2wphz5gism608,3ls2amnw5j35bgdviyh02peg3ojqog,5HhW1Ik8,2020-0188,2020-06-04,13:36:37,13:56:15,NA,incomplete,162,race,2,1,left,C_M_16.jpg,C_F_13.jpg,A_M_08.jpg,right,557.7700000003679,false,low,false
5HhW1Ik8,3ni0wfppjctpbx4ya2wphz5gism608,3ls2amnw5j35bgdviyh02peg3ojqog,5HhW1Ik8,2020-0188,2020-06-04,13:36:37,13:56:15,NA,incomplete,163,race,2,1,right,A_M_04.jpg,C_M_15.jpg,A_F_07.jpg,right,657.7350000006845,true,low,false
5HhW1Ik8,3ni0wfppjctpbx4ya2wphz5gism608,3ls2amnw5j35bgdviyh02peg3ojqog,5HhW1Ik8,2020-0188,2020-06-04,13:36:37,13:56:15,NA,incomplete,164,race,2,0,right,C_F_12.jpg,A_F_04.jpg,C_M_13.jpg,right,752.1049999996321,true,low,false
5HhW1Ik8,3ni0wfppjctpbx4ya2wphz5gism608,3ls2amnw5j35bgdviyh02peg3ojqog,5HhW1Ik8,2020-0188,2020-06-04,13:36:37,13:56:15,NA,incomplete,165,race,2,1,right,C_F_15.jpg,A_F_16.jpg,C_M_07.jpg,right,846.3050000000512,true,low,false
5HhW1Ik8,3ni0wfppjctpbx4ya2wphz5gism608,3ls2amnw5j35bgdviyh02peg3ojqog,5HhW1Ik8,2020-0188,2020-06-04,13:36:37,13:56:15,NA,incomplete,166,race,2,1,left,A_F_08.jpg,A_M_14.jpg,C_F_15.jpg,left,651.8900000001304,true,low,false
5HhW1Ik8,3ni0wfppjctpbx4ya2wphz5gism608,3ls2amnw5j35bgdviyh02peg3ojqog,5HhW1Ik8,2020-0188,2020-06-04,13:36:37,13:56:15,NA,incomplete,167,race,2,1,right,C_M_07.jpg,A_M_02.jpg,C_F_08.jpg,right,1004.2849999999162,true,low,false
5HhW1Ik8,3ni0wfppjctpbx4ya2wphz5gism608,3ls2amnw5j35bgdviyh02peg3ojqog,5HhW1Ik8,2020-0188,2020-06-04,13:36:37,13:56:15,NA,incomplete,168,race,2,1,right,C_M_12.jpg,A_M_01.jpg,C_F_08.jpg,right,917.8950000004843,true,low,false
5HhW1Ik8,3ni0wfppjctpbx4ya2wphz5gism608,3ls2amnw5j35bgdviyh02peg3ojqog,5HhW1Ik8,2020-0188,2020-06-04,13:36:37,13:56:15,NA,incomplete,169,race,2,0,left,C_M_15.jpg,C_F_01.jpg,A_M_04.jpg,left,763.6549999997951,true,low,false
5HhW1Ik8,3ni0wfppjctpbx4ya2wphz5gism608,3ls2amnw5j35bgdviyh02peg3ojqog,5HhW1Ik8,2020-0188,2020-06-04,13:36:37,13:56:15,NA,incomplete,170,race,2,1,left,C_M_15.jpg,C_F_01.jpg,A_M_08.jpg,left,1229.3699999999953,true,low,false
5HhW1Ik8,3ni0wfppjctpbx4ya2wphz5gism608,3ls2amnw5j35bgdviyh02peg3ojqog,5HhW1Ik8,2020-0188,2020-06-04,13:36:37,13:56:15,NA,incomplete,171,race,2,0,right,A_M_09.jpg,C_M_10.jpg,A_F_04.jpg,right,661.8749999997672,true,low,false
5HhW1Ik8,3ni0wfppjctpbx4ya2wphz5gism608,3ls2amnw5j35bgdviyh02peg3ojqog,5HhW1Ik8,2020-0188,2020-06-04,13:36:37,13:56:15,NA,incomplete,172,race,2,1,right,A_F_06.jpg,C_F_14.jpg,A_M_02.jpg,right,604.5700000004144,true,low,false
5HhW1Ik8,3ni0wfppjctpbx4ya2wphz5gism608,3ls2amnw5j35bgdviyh02peg3ojqog,5HhW1Ik8,2020-0188,2020-06-04,13:36:37,13:56:15,NA,incomplete,173,race,2,1,right,A_F_12.jpg,C_F_14.jpg,A_M_09.jpg,right,674.704999999376,true,low,false
5HhW1Ik8,3ni0wfppjctpbx4ya2wphz5gism608,3ls2amnw5j35bgdviyh02peg3ojqog,5HhW1Ik8,2020-0188,2020-06-04,13:36:37,13:56:15,NA,incomplete,174,race,2,1,left,A_M_05.jpg,A_F_14.jpg,C_M_08.jpg,left,703.9949999998789,true,low,false
5HhW1Ik8,3ni0wfppjctpbx4ya2wphz5gism608,3ls2amnw5j35bgdviyh02peg3ojqog,5HhW1Ik8,2020-0188,2020-06-04,13:36:37,13:56:15,NA,incomplete,175,race,2,0,right,C_F_07.jpg,A_F_05.jpg,C_M_15.jpg,right,865.8800000003539,true,low,false
5HhW1Ik8,3ni0wfppjctpbx4ya2wphz5gism608,3ls2amnw5j35bgdviyh02peg3ojqog,5HhW1Ik8,2020-0188,2020-06-04,13:36:37,13:56:15,NA,incomplete,176,race,2,1,left,A_M_07.jpg,A_F_02.jpg,C_M_03.jpg,left,834.1799999998184,true,low,false
5HhW1Ik8,3ni0wfppjctpbx4ya2wphz5gism608,3ls2amnw5j35bgdviyh02peg3ojqog,5HhW1Ik8,2020-0188,2020-06-04,13:36:37,13:56:15,NA,incomplete,177,race,2,1,right,C_F_12.jpg,A_F_14.jpg,C_M_16.jpg,right,835.9549999994924,true,low,false
5HhW1Ik8,3ni0wfppjctpbx4ya2wphz5gism608,3ls2amnw5j35bgdviyh02peg3ojqog,5HhW1Ik8,2020-0188,2020-06-04,13:36:37,13:56:15,NA,incomplete,178,race,2,1,right,C_F_09.jpg,A_F_02.jpg,C_M_11.jpg,right,780.1200000003446,true,low,false
5HhW1Ik8,3ni0wfppjctpbx4ya2wphz5gism608,3ls2amnw5j35bgdviyh02peg3ojqog,5HhW1Ik8,2020-0188,2020-06-04,13:36:37,13:56:15,NA,incomplete,179,race,2,0,left,A_M_01.jpg,A_F_16.jpg,C_M_02.jpg,left,540.6800000000512,true,low,false
5HhW1Ik8,3ni0wfppjctpbx4ya2wphz5gism608,3ls2amnw5j35bgdviyh02peg3ojqog,5HhW1Ik8,2020-0188,2020-06-04,13:36:37,13:56:15,NA,incomplete,180,gender,3,1,left,C_M_10.jpg,A_M_07.jpg,C_F_04.jpg,right,559.3600000002189,false,low,false
5HhW1Ik8,3ni0wfppjctpbx4ya2wphz5gism608,3ls2amnw5j35bgdviyh02peg3ojqog,5HhW1Ik8,2020-0188,2020-06-04,13:36:37,13:56:15,NA,incomplete,181,gender,3,1,left,C_M_09.jpg,A_M_04.jpg,C_F_10.jpg,right,729.3600000002189,false,low,false
5HhW1Ik8,3ni0wfppjctpbx4ya2wphz5gism608,3ls2amnw5j35bgdviyh02peg3ojqog,5HhW1Ik8,2020-0188,2020-06-04,13:36:37,13:56:15,NA,incomplete,182,gender,3,1,right,C_F_06.jpg,C_M_15.jpg,A_F_14.jpg,right,826.2000000004191,true,low,false
5HhW1Ik8,3ni0wfppjctpbx4ya2wphz5gism608,3ls2amnw5j35bgdviyh02peg3ojqog,5HhW1Ik8,2020-0188,2020-06-04,13:36:37,13:56:15,NA,incomplete,183,gender,3,1,right,A_F_15.jpg,A_M_10.jpg,C_F_08.jpg,right,542.2699999999022,true,low,false
5HhW1Ik8,3ni0wfppjctpbx4ya2wphz5gism608,3ls2amnw5j35bgdviyh02peg3ojqog,5HhW1Ik8,2020-0188,2020-06-04,13:36:37,13:56:15,NA,incomplete,184,gender,3,0,left,C_F_10.jpg,A_F_14.jpg,C_M_05.jpg,left,577.9950000005774,true,low,false
5HhW1Ik8,3ni0wfppjctpbx4ya2wphz5gism608,3ls2amnw5j35bgdviyh02peg3ojqog,5HhW1Ik8,2020-0188,2020-06-04,13:36:37,13:56:15,NA,incomplete,185,gender,3,1,right,C_F_11.jpg,C_M_03.jpg,A_F_15.jpg,right,530.3650000004563,true,low,false
5HhW1Ik8,3ni0wfppjctpbx4ya2wphz5gism608,3ls2amnw5j35bgdviyh02peg3ojqog,5HhW1Ik8,2020-0188,2020-06-04,13:36:37,13:56:15,NA,incomplete,186,gender,3,1,right,C_M_08.jpg,C_F_16.jpg,A_M_04.jpg,right,719.6400000002468,true,low,false
5HhW1Ik8,3ni0wfppjctpbx4ya2wphz5gism608,3ls2amnw5j35bgdviyh02peg3ojqog,5HhW1Ik8,2020-0188,2020-06-04,13:36:37,13:56:15,NA,incomplete,187,gender,3,1,left,A_F_10.jpg,C_F_03.jpg,A_M_16.jpg,left,531.0100000005914,true,low,false
5HhW1Ik8,3ni0wfppjctpbx4ya2wphz5gism608,3ls2amnw5j35bgdviyh02peg3ojqog,5HhW1Ik8,2020-0188,2020-06-04,13:36:37,13:56:15,NA,incomplete,188,gender,3,1,left,A_M_04.jpg,C_M_06.jpg,A_F_16.jpg,left,587.0200000000186,true,low,false
5HhW1Ik8,3ni0wfppjctpbx4ya2wphz5gism608,3ls2amnw5j35bgdviyh02peg3ojqog,5HhW1Ik8,2020-0188,2020-06-04,13:36:37,13:56:15,NA,incomplete,189,gender,3,1,right,A_F_13.jpg,A_M_11.jpg,C_F_01.jpg,right,593.9849999995204,true,low,false
5HhW1Ik8,3ni0wfppjctpbx4ya2wphz5gism608,3ls2amnw5j35bgdviyh02peg3ojqog,5HhW1Ik8,2020-0188,2020-06-04,13:36:37,13:56:15,NA,incomplete,190,gender,3,1,right,A_M_05.jpg,A_F_08.jpg,C_M_09.jpg,right,650.319999999716,true,low,false
5HhW1Ik8,3ni0wfppjctpbx4ya2wphz5gism608,3ls2amnw5j35bgdviyh02peg3ojqog,5HhW1Ik8,2020-0188,2020-06-04,13:36:37,13:56:15,NA,incomplete,191,gender,3,1,right,A_M_09.jpg,A_F_12.jpg,C_M_03.jpg,right,665.3450000003213,true,low,false
5HhW1Ik8,3ni0wfppjctpbx4ya2wphz5gism608,3ls2amnw5j35bgdviyh02peg3ojqog,5HhW1Ik8,2020-0188,2020-06-04,13:36:37,13:56:15,NA,incomplete,192,gender,3,1,left,C_M_09.jpg,A_M_13.jpg,C_F_12.jpg,left,697.8550000003306,true,low,false
5HhW1Ik8,3ni0wfppjctpbx4ya2wphz5gism608,3ls2amnw5j35bgdviyh02peg3ojqog,5HhW1Ik8,2020-0188,2020-06-04,13:36:37,13:56:15,NA,incomplete,193,gender,3,1,right,A_M_03.jpg,A_F_09.jpg,C_M_11.jpg,right,535.5950000003213,true,low,false
5HhW1Ik8,3ni0wfppjctpbx4ya2wphz5gism608,3ls2amnw5j35bgdviyh02peg3ojqog,5HhW1Ik8,2020-0188,2020-06-04,13:36:37,13:56:15,NA,incomplete,194,gender,3,0,right,A_F_05.jpg,A_M_15.jpg,C_F_10.jpg,left,1183.719999999972,false,low,false
5HhW1Ik8,3ni0wfppjctpbx4ya2wphz5gism608,3ls2amnw5j35bgdviyh02peg3ojqog,5HhW1Ik8,2020-0188,2020-06-04,13:36:37,13:56:15,NA,incomplete,195,gender,3,1,right,A_F_13.jpg,A_M_07.jpg,C_F_05.jpg,left,950.6049999999814,false,low,false
5HhW1Ik8,3ni0wfppjctpbx4ya2wphz5gism608,3ls2amnw5j35bgdviyh02peg3ojqog,5HhW1Ik8,2020-0188,2020-06-04,13:36:37,13:56:15,NA,incomplete,196,gender,3,1,left,C_F_14.jpg,A_F_09.jpg,C_M_16.jpg,left,640.6999999997206,true,low,false
5HhW1Ik8,3ni0wfppjctpbx4ya2wphz5gism608,3ls2amnw5j35bgdviyh02peg3ojqog,5HhW1Ik8,2020-0188,2020-06-04,13:36:37,13:56:15,NA,incomplete,197,gender,3,1,right,A_M_08.jpg,A_F_01.jpg,C_M_06.jpg,right,683.7450000001118,true,low,false
5HhW1Ik8,3ni0wfppjctpbx4ya2wphz5gism608,3ls2amnw5j35bgdviyh02peg3ojqog,5HhW1Ik8,2020-0188,2020-06-04,13:36:37,13:56:15,NA,incomplete,198,gender,3,1,right,C_F_01.jpg,C_M_02.jpg,A_F_06.jpg,right,816.9299999999348,true,low,false
5HhW1Ik8,3ni0wfppjctpbx4ya2wphz5gism608,3ls2amnw5j35bgdviyh02peg3ojqog,5HhW1Ik8,2020-0188,2020-06-04,13:36:37,13:56:15,NA,incomplete,199,gender,3,1,right,C_F_07.jpg,C_M_10.jpg,A_F_15.jpg,right,680.7450000005774,true,low,false
5HhW1Ik8,3ni0wfppjctpbx4ya2wphz5gism608,3ls2amnw5j35bgdviyh02peg3ojqog,5HhW1Ik8,2020-0188,2020-06-04,13:36:37,13:56:15,NA,incomplete,200,race,2,1,right,C_F_13.jpg,A_F_08.jpg,C_M_10.jpg,left,637.2249999993946,false,low,false
5HhW1Ik8,3ni0wfppjctpbx4ya2wphz5gism608,3ls2amnw5j35bgdviyh02peg3ojqog,5HhW1Ik8,2020-0188,2020-06-04,13:36:37,13:56:15,NA,incomplete,201,race,2,1,right,A_F_10.jpg,C_F_16.jpg,A_M_05.jpg,left,670.25,false,low,false
5HhW1Ik8,3ni0wfppjctpbx4ya2wphz5gism608,3ls2amnw5j35bgdviyh02peg3ojqog,5HhW1Ik8,2020-0188,2020-06-04,13:36:37,13:56:15,NA,incomplete,202,race,2,1,left,C_M_07.jpg,C_F_08.jpg,A_M_14.jpg,left,941.815000000177,true,low,false
5HhW1Ik8,3ni0wfppjctpbx4ya2wphz5gism608,3ls2amnw5j35bgdviyh02peg3ojqog,5HhW1Ik8,2020-0188,2020-06-04,13:36:37,13:56:15,NA,incomplete,203,race,2,1,right,C_M_13.jpg,A_M_06.jpg,C_F_11.jpg,right,711.910000000149,true,low,false
5HhW1Ik8,3ni0wfppjctpbx4ya2wphz5gism608,3ls2amnw5j35bgdviyh02peg3ojqog,5HhW1Ik8,2020-0188,2020-06-04,13:36:37,13:56:15,NA,incomplete,204,race,2,1,left,C_F_07.jpg,C_M_11.jpg,A_F_10.jpg,left,911.3499999993946,true,low,false
5HhW1Ik8,3ni0wfppjctpbx4ya2wphz5gism608,3ls2amnw5j35bgdviyh02peg3ojqog,5HhW1Ik8,2020-0188,2020-06-04,13:36:37,13:56:15,NA,incomplete,205,race,2,1,left,C_F_03.jpg,C_M_15.jpg,A_F_08.jpg,right,856.6149999997579,false,low,false
5HhW1Ik8,3ni0wfppjctpbx4ya2wphz5gism608,3ls2amnw5j35bgdviyh02peg3ojqog,5HhW1Ik8,2020-0188,2020-06-04,13:36:37,13:56:15,NA,incomplete,206,race,2,1,left,A_M_01.jpg,A_F_02.jpg,C_M_12.jpg,left,658.4699999995064,true,low,false
5HhW1Ik8,3ni0wfppjctpbx4ya2wphz5gism608,3ls2amnw5j35bgdviyh02peg3ojqog,5HhW1Ik8,2020-0188,2020-06-04,13:36:37,13:56:15,NA,incomplete,207,race,2,1,right,C_F_09.jpg,A_F_02.jpg,C_M_14.jpg,right,965.2750000003725,true,low,false
5HhW1Ik8,3ni0wfppjctpbx4ya2wphz5gism608,3ls2amnw5j35bgdviyh02peg3ojqog,5HhW1Ik8,2020-0188,2020-06-04,13:36:37,13:56:15,NA,incomplete,208,race,2,1,left,C_F_07.jpg,C_M_15.jpg,A_F_04.jpg,left,836.4799999997485,true,low,false
5HhW1Ik8,3ni0wfppjctpbx4ya2wphz5gism608,3ls2amnw5j35bgdviyh02peg3ojqog,5HhW1Ik8,2020-0188,2020-06-04,13:36:37,13:56:15,NA,incomplete,209,race,2,1,left,A_F_02.jpg,A_M_14.jpg,C_F_09.jpg,left,744.0750000006519,true,low,false
5HhW1Ik8,3ni0wfppjctpbx4ya2wphz5gism608,3ls2amnw5j35bgdviyh02peg3ojqog,5HhW1Ik8,2020-0188,2020-06-04,13:36:37,13:56:15,NA,incomplete,210,race,2,1,right,A_M_16.jpg,C_M_09.jpg,A_F_08.jpg,right,650.5299999997951,true,low,false
5HhW1Ik8,3ni0wfppjctpbx4ya2wphz5gism608,3ls2amnw5j35bgdviyh02peg3ojqog,5HhW1Ik8,2020-0188,2020-06-04,13:36:37,13:56:15,NA,incomplete,211,race,2,1,left,C_F_15.jpg,C_M_10.jpg,A_F_09.jpg,right,964.1750000000466,false,low,false
5HhW1Ik8,3ni0wfppjctpbx4ya2wphz5gism608,3ls2amnw5j35bgdviyh02peg3ojqog,5HhW1Ik8,2020-0188,2020-06-04,13:36:37,13:56:15,NA,incomplete,212,race,2,1,right,A_F_11.jpg,C_F_13.jpg,A_M_04.jpg,right,679.4599999994971,true,low,false
5HhW1Ik8,3ni0wfppjctpbx4ya2wphz5gism608,3ls2amnw5j35bgdviyh02peg3ojqog,5HhW1Ik8,2020-0188,2020-06-04,13:36:37,13:56:15,NA,incomplete,213,race,2,1,right,C_M_05.jpg,A_M_11.jpg,C_F_06.jpg,right,813.9700000002049,true,low,false
5HhW1Ik8,3ni0wfppjctpbx4ya2wphz5gism608,3ls2amnw5j35bgdviyh02peg3ojqog,5HhW1Ik8,2020-0188,2020-06-04,13:36:37,13:56:15,NA,incomplete,214,race,2,1,left,A_F_06.jpg,A_M_05.jpg,C_F_04.jpg,left,748.8599999996368,true,low,false
5HhW1Ik8,3ni0wfppjctpbx4ya2wphz5gism608,3ls2amnw5j35bgdviyh02peg3ojqog,5HhW1Ik8,2020-0188,2020-06-04,13:36:37,13:56:15,NA,incomplete,215,race,2,1,right,C_M_09.jpg,A_M_10.jpg,C_F_05.jpg,right,796.7100000004284,true,low,false
5HhW1Ik8,3ni0wfppjctpbx4ya2wphz5gism608,3ls2amnw5j35bgdviyh02peg3ojqog,5HhW1Ik8,2020-0188,2020-06-04,13:36:37,13:56:15,NA,incomplete,216,race,2,0,left,C_M_03.jpg,C_F_16.jpg,A_M_08.jpg,left,834.4650000000838,true,low,false
5HhW1Ik8,3ni0wfppjctpbx4ya2wphz5gism608,3ls2amnw5j35bgdviyh02peg3ojqog,5HhW1Ik8,2020-0188,2020-06-04,13:36:37,13:56:15,NA,incomplete,217,race,2,1,right,A_M_02.jpg,C_M_04.jpg,A_F_11.jpg,right,805.890000000596,true,low,false
5HhW1Ik8,3ni0wfppjctpbx4ya2wphz5gism608,3ls2amnw5j35bgdviyh02peg3ojqog,5HhW1Ik8,2020-0188,2020-06-04,13:36:37,13:56:15,NA,incomplete,218,race,2,1,left,A_M_01.jpg,A_F_13.jpg,C_M_04.jpg,left,749.2499999997672,true,low,false
5HhW1Ik8,3ni0wfppjctpbx4ya2wphz5gism608,3ls2amnw5j35bgdviyh02peg3ojqog,5HhW1Ik8,2020-0188,2020-06-04,13:36:37,13:56:15,NA,incomplete,219,race,2,1,right,C_F_05.jpg,A_F_14.jpg,C_M_13.jpg,right,838.0299999997951,true,low,false
5HhW1Ik8,3ni0wfppjctpbx4ya2wphz5gism608,3ls2amnw5j35bgdviyh02peg3ojqog,5HhW1Ik8,2020-0188,2020-06-04,13:36:37,13:56:15,NA,incomplete,220,gender,3,1,right,A_F_06.jpg,A_M_07.jpg,C_F_16.jpg,left,701.8900000001304,false,low,false
5HhW1Ik8,3ni0wfppjctpbx4ya2wphz5gism608,3ls2amnw5j35bgdviyh02peg3ojqog,5HhW1Ik8,2020-0188,2020-06-04,13:36:37,13:56:15,NA,incomplete,221,gender,3,0,right,A_M_14.jpg,A_F_12.jpg,C_M_09.jpg,left,792.3950000004843,false,low,false
5HhW1Ik8,3ni0wfppjctpbx4ya2wphz5gism608,3ls2amnw5j35bgdviyh02peg3ojqog,5HhW1Ik8,2020-0188,2020-06-04,13:36:37,13:56:15,NA,incomplete,222,gender,3,1,left,C_M_05.jpg,A_M_01.jpg,C_F_02.jpg,right,701.535000000149,false,low,false
5HhW1Ik8,3ni0wfppjctpbx4ya2wphz5gism608,3ls2amnw5j35bgdviyh02peg3ojqog,5HhW1Ik8,2020-0188,2020-06-04,13:36:37,13:56:15,NA,incomplete,223,gender,3,1,left,C_F_13.jpg,A_F_09.jpg,C_M_04.jpg,right,805.9599999997299,false,low,false
5HhW1Ik8,3ni0wfppjctpbx4ya2wphz5gism608,3ls2amnw5j35bgdviyh02peg3ojqog,5HhW1Ik8,2020-0188,2020-06-04,13:36:37,13:56:15,NA,incomplete,224,gender,3,1,left,C_M_13.jpg,A_M_12.jpg,C_F_09.jpg,left,644.3099999995902,true,low,false
5HhW1Ik8,3ni0wfppjctpbx4ya2wphz5gism608,3ls2amnw5j35bgdviyh02peg3ojqog,5HhW1Ik8,2020-0188,2020-06-04,13:36:37,13:56:15,NA,incomplete,225,gender,3,1,left,C_M_01.jpg,A_M_08.jpg,C_F_06.jpg,left,612.6950000007637,true,low,false
5HhW1Ik8,3ni0wfppjctpbx4ya2wphz5gism608,3ls2amnw5j35bgdviyh02peg3ojqog,5HhW1Ik8,2020-0188,2020-06-04,13:36:37,13:56:15,NA,incomplete,226,gender,3,0,right,A_M_05.jpg,A_F_12.jpg,C_M_14.jpg,right,918.1399999996647,true,low,false
5HhW1Ik8,3ni0wfppjctpbx4ya2wphz5gism608,3ls2amnw5j35bgdviyh02peg3ojqog,5HhW1Ik8,2020-0188,2020-06-04,13:36:37,13:56:15,NA,incomplete,227,gender,3,1,left,A_M_03.jpg,C_M_08.jpg,A_F_14.jpg,left,724.6550000000279,true,low,false
5HhW1Ik8,3ni0wfppjctpbx4ya2wphz5gism608,3ls2amnw5j35bgdviyh02peg3ojqog,5HhW1Ik8,2020-0188,2020-06-04,13:36:37,13:56:15,NA,incomplete,228,gender,3,0,right,A_M_05.jpg,A_F_13.jpg,C_M_04.jpg,right,615.1100000005681,true,low,false
5HhW1Ik8,3ni0wfppjctpbx4ya2wphz5gism608,3ls2amnw5j35bgdviyh02peg3ojqog,5HhW1Ik8,2020-0188,2020-06-04,13:36:37,13:56:15,NA,incomplete,229,gender,3,1,right,A_F_06.jpg,A_M_14.jpg,C_F_04.jpg,right,970.3100000005215,true,low,false
5HhW1Ik8,3ni0wfppjctpbx4ya2wphz5gism608,3ls2amnw5j35bgdviyh02peg3ojqog,5HhW1Ik8,2020-0188,2020-06-04,13:36:37,13:56:15,NA,incomplete,230,gender,3,0,right,A_F_14.jpg,A_M_01.jpg,C_F_16.jpg,right,658.2550000003539,true,low,false
5HhW1Ik8,3ni0wfppjctpbx4ya2wphz5gism608,3ls2amnw5j35bgdviyh02peg3ojqog,5HhW1Ik8,2020-0188,2020-06-04,13:36:37,13:56:15,NA,incomplete,231,gender,3,1,left,C_F_13.jpg,A_F_16.jpg,C_M_15.jpg,left,564.4899999997579,true,low,false
5HhW1Ik8,3ni0wfppjctpbx4ya2wphz5gism608,3ls2amnw5j35bgdviyh02peg3ojqog,5HhW1Ik8,2020-0188,2020-06-04,13:36:37,13:56:15,NA,incomplete,232,gender,3,0,right,A_F_12.jpg,A_M_14.jpg,C_F_09.jpg,right,622.6299999998882,true,low,false
5HhW1Ik8,3ni0wfppjctpbx4ya2wphz5gism608,3ls2amnw5j35bgdviyh02peg3ojqog,5HhW1Ik8,2020-0188,2020-06-04,13:36:37,13:56:15,NA,incomplete,233,gender,3,1,left,C_F_02.jpg,A_F_03.jpg,C_M_16.jpg,left,523.9999999993015,true,low,false
5HhW1Ik8,3ni0wfppjctpbx4ya2wphz5gism608,3ls2amnw5j35bgdviyh02peg3ojqog,5HhW1Ik8,2020-0188,2020-06-04,13:36:37,13:56:15,NA,incomplete,234,gender,3,0,left,A_F_02.jpg,C_F_14.jpg,A_M_11.jpg,left,489.7299999995157,true,low,false
5HhW1Ik8,3ni0wfppjctpbx4ya2wphz5gism608,3ls2amnw5j35bgdviyh02peg3ojqog,5HhW1Ik8,2020-0188,2020-06-04,13:36:37,13:56:15,NA,incomplete,235,gender,3,1,right,C_F_05.jpg,C_M_08.jpg,A_F_01.jpg,right,575.3299999996088,true,low,false
5HhW1Ik8,3ni0wfppjctpbx4ya2wphz5gism608,3ls2amnw5j35bgdviyh02peg3ojqog,5HhW1Ik8,2020-0188,2020-06-04,13:36:37,13:56:15,NA,incomplete,236,gender,3,1,right,A_F_10.jpg,A_M_08.jpg,C_F_09.jpg,right,508.3149999999441,true,low,false
5HhW1Ik8,3ni0wfppjctpbx4ya2wphz5gism608,3ls2amnw5j35bgdviyh02peg3ojqog,5HhW1Ik8,2020-0188,2020-06-04,13:36:37,13:56:15,NA,incomplete,237,gender,3,0,left,A_M_08.jpg,C_M_15.jpg,A_F_13.jpg,left,634.9650000000838,true,low,false
5HhW1Ik8,3ni0wfppjctpbx4ya2wphz5gism608,3ls2amnw5j35bgdviyh02peg3ojqog,5HhW1Ik8,2020-0188,2020-06-04,13:36:37,13:56:15,NA,incomplete,238,gender,3,1,right,C_F_07.jpg,C_M_11.jpg,A_F_10.jpg,right,592.649999999674,true,low,false
5HhW1Ik8,3ni0wfppjctpbx4ya2wphz5gism608,3ls2amnw5j35bgdviyh02peg3ojqog,5HhW1Ik8,2020-0188,2020-06-04,13:36:37,13:56:15,NA,incomplete,239,gender,3,1,right,A_F_04.jpg,A_M_05.jpg,C_F_02.jpg,right,519.0100000000093,true,low,false
5HhW1Ik8,3ni0wfppjctpbx4ya2wphz5gism608,3ls2amnw5j35bgdviyh02peg3ojqog,5HhW1Ik8,2020-0188,2020-06-04,13:36:37,13:56:15,NA,NA,instruction example,color,NA,NA,NA,Red_Star_Grid_2.jpg,Red_Triangle_Chess_3.jpg,Blue_Plus_Stripes_2.jpg,NA,NA,NA,NA,undefined
5HhW1Ik8,3ni0wfppjctpbx4ya2wphz5gism608,3ls2amnw5j35bgdviyh02peg3ojqog,5HhW1Ik8,2020-0188,2020-06-04,13:36:37,13:56:15,NA,NA,instruction example,color,NA,NA,NA,Green_Star_Chess_1.jpg,Blue_Triangle_Grid_1.jpg,Green_Plus_Dots_4.jpg,NA,NA,NA,NA,undefined
5HhW1Ik8,3ni0wfppjctpbx4ya2wphz5gism608,3ls2amnw5j35bgdviyh02peg3ojqog,5HhW1Ik8,2020-0188,2020-06-04,13:36:37,13:56:15,NA,NA,instruction example,color,NA,NA,NA,C_F_04.jpg,C_M_03.jpg,A_F_12.jpg,NA,NA,NA,NA,undefined
5HhW1Ik8,3ni0wfppjctpbx4ya2wphz5gism608,3ls2amnw5j35bgdviyh02peg3ojqog,5HhW1Ik8,2020-0188,2020-06-04,13:36:37,13:56:15,NA,NA,instruction example,color,NA,NA,NA,A_F_11.jpg,C_F_10.jpg,A_M_13.jpg,NA,NA,NA,NA,undefined
