workerId,hitId,assignmentId,subject,studyid,exp_date,exp_start,exp_end,time_start,time_end,trial,type,sequence,reward_validity,answer,image_top,image_left,image_right,response,response_time,response_acc,volatility,practice
hgGLQ1NV,38f60ialbjuvdvfa6f4is9xu20x0td,3ls2amnw5j35bgdviyh02peg3ngqob,hgGLQ1NV,2020-0188,2020-06-04,14:19:09,14:37:38,NA,incomplete,0,shape,0,1,right,Blue_Plus_Grid_2.jpg,Green_Triangle_Grid_1.jpg,Red_Plus_Dots_3.jpg,right,1483.484999999695,true,NA,true
hgGLQ1NV,38f60ialbjuvdvfa6f4is9xu20x0td,3ls2amnw5j35bgdviyh02peg3ngqob,hgGLQ1NV,2020-0188,2020-06-04,14:19:09,14:37:38,NA,incomplete,1,shape,0,1,right,Red_Plus_Stripes_1.jpg,Blue_Star_Stripes_3.jpg,Purple_Plus_Grid_2.jpg,right,1032.5250000000233,true,NA,true
hgGLQ1NV,38f60ialbjuvdvfa6f4is9xu20x0td,3ls2amnw5j35bgdviyh02peg3ngqob,hgGLQ1NV,2020-0188,2020-06-04,14:19:09,14:37:38,NA,incomplete,2,shape,0,1,left,Green_Plus_Chess_2.jpg,Red_Plus_Stripes_4.jpg,Purple_Star_Chess_1.jpg,left,705.4800000000978,true,NA,true
hgGLQ1NV,38f60ialbjuvdvfa6f4is9xu20x0td,3ls2amnw5j35bgdviyh02peg3ngqob,hgGLQ1NV,2020-0188,2020-06-04,14:19:09,14:37:38,NA,incomplete,3,shape,0,1,left,Green_Star_Grid_1.jpg,Purple_Star_Chess_3.jpg,Red_Triangle_Grid_2.jpg,left,917.0300000000861,true,NA,true
hgGLQ1NV,38f60ialbjuvdvfa6f4is9xu20x0td,3ls2amnw5j35bgdviyh02peg3ngqob,hgGLQ1NV,2020-0188,2020-06-04,14:19:09,14:37:38,NA,incomplete,4,shape,0,1,left,Red_Plus_Stripes_2.jpg,Green_Plus_Dots_1.jpg,Purple_Triangle_Stripes_3.jpg,left,1172.8649999999907,true,NA,true
hgGLQ1NV,38f60ialbjuvdvfa6f4is9xu20x0td,3ls2amnw5j35bgdviyh02peg3ngqob,hgGLQ1NV,2020-0188,2020-06-04,14:19:09,14:37:38,NA,incomplete,5,shape,0,1,right,Green_Star_Chess_4.jpg,Blue_Circle_Chess_2.jpg,Red_Star_Grid_1.jpg,right,678.2299999999814,true,NA,true
hgGLQ1NV,38f60ialbjuvdvfa6f4is9xu20x0td,3ls2amnw5j35bgdviyh02peg3ngqob,hgGLQ1NV,2020-0188,2020-06-04,14:19:09,14:37:38,NA,incomplete,6,shape,0,1,right,Red_Star_Chess_1.jpg,Green_Plus_Chess_2.jpg,Blue_Star_Grid_4.jpg,right,635.1249999997672,true,NA,true
hgGLQ1NV,38f60ialbjuvdvfa6f4is9xu20x0td,3ls2amnw5j35bgdviyh02peg3ngqob,hgGLQ1NV,2020-0188,2020-06-04,14:19:09,14:37:38,NA,incomplete,7,shape,0,0,right,Green_Triangle_Chess_3.jpg,Blue_Circle_Chess_1.jpg,Red_Triangle_Stripes_2.jpg,right,661.5700000002398,true,NA,true
hgGLQ1NV,38f60ialbjuvdvfa6f4is9xu20x0td,3ls2amnw5j35bgdviyh02peg3ngqob,hgGLQ1NV,2020-0188,2020-06-04,14:19:09,14:37:38,NA,incomplete,8,shape,0,1,left,Purple_Circle_Stripes_1.jpg,Green_Circle_Chess_2.jpg,Red_Triangle_Stripes_3.jpg,left,673.534999999858,true,NA,true
hgGLQ1NV,38f60ialbjuvdvfa6f4is9xu20x0td,3ls2amnw5j35bgdviyh02peg3ngqob,hgGLQ1NV,2020-0188,2020-06-04,14:19:09,14:37:38,NA,incomplete,9,shape,0,0,right,Red_Triangle_Chess_1.jpg,Green_Plus_Chess_2.jpg,Purple_Triangle_Stripes_4.jpg,right,725.5199999999604,true,NA,true
hgGLQ1NV,38f60ialbjuvdvfa6f4is9xu20x0td,3ls2amnw5j35bgdviyh02peg3ngqob,hgGLQ1NV,2020-0188,2020-06-04,14:19:09,14:37:38,NA,incomplete,10,shape,0,1,left,Blue_Plus_Chess_1.jpg,Green_Plus_Grid_2.jpg,Purple_Triangle_Chess_4.jpg,left,694.49500000017,true,NA,true
hgGLQ1NV,38f60ialbjuvdvfa6f4is9xu20x0td,3ls2amnw5j35bgdviyh02peg3ngqob,hgGLQ1NV,2020-0188,2020-06-04,14:19:09,14:37:38,NA,incomplete,11,shape,0,1,left,Blue_Circle_Stripes_1.jpg,Purple_Circle_Chess_3.jpg,Green_Star_Stripes_2.jpg,left,673.2300000003306,true,NA,true
hgGLQ1NV,38f60ialbjuvdvfa6f4is9xu20x0td,3ls2amnw5j35bgdviyh02peg3ngqob,hgGLQ1NV,2020-0188,2020-06-04,14:19:09,14:37:38,NA,incomplete,12,shape,0,1,right,Red_Triangle_Dots_2.jpg,Purple_Plus_Dots_4.jpg,Green_Triangle_Grid_3.jpg,right,654.8150000002934,true,NA,true
hgGLQ1NV,38f60ialbjuvdvfa6f4is9xu20x0td,3ls2amnw5j35bgdviyh02peg3ngqob,hgGLQ1NV,2020-0188,2020-06-04,14:19:09,14:37:38,NA,incomplete,13,shape,0,0,right,Green_Plus_Stripes_4.jpg,Purple_Triangle_Stripes_2.jpg,Red_Plus_Grid_3.jpg,right,628.5050000001211,true,NA,true
hgGLQ1NV,38f60ialbjuvdvfa6f4is9xu20x0td,3ls2amnw5j35bgdviyh02peg3ngqob,hgGLQ1NV,2020-0188,2020-06-04,14:19:09,14:37:38,NA,incomplete,14,shape,0,1,left,Blue_Star_Grid_1.jpg,Red_Star_Dots_4.jpg,Green_Plus_Grid_2.jpg,left,883.3049999998766,true,NA,true
hgGLQ1NV,38f60ialbjuvdvfa6f4is9xu20x0td,3ls2amnw5j35bgdviyh02peg3ngqob,hgGLQ1NV,2020-0188,2020-06-04,14:19:09,14:37:38,NA,incomplete,15,shape,0,1,right,Red_Triangle_Chess_3.jpg,Blue_Circle_Chess_2.jpg,Green_Triangle_Grid_4.jpg,right,715.9050000000279,true,NA,true
hgGLQ1NV,38f60ialbjuvdvfa6f4is9xu20x0td,3ls2amnw5j35bgdviyh02peg3ngqob,hgGLQ1NV,2020-0188,2020-06-04,14:19:09,14:37:38,NA,incomplete,16,shape,0,0,left,Green_Circle_Stripes_3.jpg,Blue_Circle_Dots_1.jpg,Purple_Triangle_Stripes_2.jpg,left,646.6350000000675,true,NA,true
hgGLQ1NV,38f60ialbjuvdvfa6f4is9xu20x0td,3ls2amnw5j35bgdviyh02peg3ngqob,hgGLQ1NV,2020-0188,2020-06-04,14:19:09,14:37:38,NA,incomplete,17,shape,0,1,right,Green_Plus_Grid_4.jpg,Blue_Triangle_Grid_2.jpg,Red_Plus_Dots_1.jpg,right,782.8499999996275,true,NA,true
hgGLQ1NV,38f60ialbjuvdvfa6f4is9xu20x0td,3ls2amnw5j35bgdviyh02peg3ngqob,hgGLQ1NV,2020-0188,2020-06-04,14:19:09,14:37:38,NA,incomplete,18,shape,0,0,right,Blue_Plus_Dots_1.jpg,Purple_Circle_Dots_4.jpg,Red_Plus_Grid_2.jpg,right,552.2750000000233,true,NA,true
hgGLQ1NV,38f60ialbjuvdvfa6f4is9xu20x0td,3ls2amnw5j35bgdviyh02peg3ngqob,hgGLQ1NV,2020-0188,2020-06-04,14:19:09,14:37:38,NA,incomplete,19,shape,0,1,left,Green_Plus_Dots_3.jpg,Purple_Plus_Stripes_1.jpg,Red_Star_Dots_2.jpg,left,786.1800000000512,true,NA,true
hgGLQ1NV,38f60ialbjuvdvfa6f4is9xu20x0td,3ls2amnw5j35bgdviyh02peg3ngqob,hgGLQ1NV,2020-0188,2020-06-04,14:19:09,14:37:38,NA,incomplete,20,filling,1,1,left,Red_Triangle_Grid_1.jpg,Blue_Star_Grid_3.jpg,Purple_Triangle_Stripes_4.jpg,right,627.46499999956,false,NA,true
hgGLQ1NV,38f60ialbjuvdvfa6f4is9xu20x0td,3ls2amnw5j35bgdviyh02peg3ngqob,hgGLQ1NV,2020-0188,2020-06-04,14:19:09,14:37:38,NA,incomplete,21,filling,1,1,left,Purple_Star_Chess_4.jpg,Blue_Circle_Chess_3.jpg,Red_Star_Dots_1.jpg,left,1305.2150000003166,true,NA,true
hgGLQ1NV,38f60ialbjuvdvfa6f4is9xu20x0td,3ls2amnw5j35bgdviyh02peg3ngqob,hgGLQ1NV,2020-0188,2020-06-04,14:19:09,14:37:38,NA,incomplete,22,filling,1,1,left,Green_Triangle_Chess_4.jpg,Purple_Star_Chess_3.jpg,Red_Triangle_Stripes_1.jpg,none,0,false,NA,true
hgGLQ1NV,38f60ialbjuvdvfa6f4is9xu20x0td,3ls2amnw5j35bgdviyh02peg3ngqob,hgGLQ1NV,2020-0188,2020-06-04,14:19:09,14:37:38,NA,incomplete,23,filling,1,1,left,Red_Triangle_Chess_3.jpg,Blue_Star_Chess_1.jpg,Green_Triangle_Grid_2.jpg,left,1216.5,true,NA,true
hgGLQ1NV,38f60ialbjuvdvfa6f4is9xu20x0td,3ls2amnw5j35bgdviyh02peg3ngqob,hgGLQ1NV,2020-0188,2020-06-04,14:19:09,14:37:38,NA,incomplete,24,filling,1,1,right,Green_Plus_Stripes_1.jpg,Purple_Plus_Grid_2.jpg,Red_Circle_Stripes_4.jpg,right,1410.2449999999953,true,NA,true
hgGLQ1NV,38f60ialbjuvdvfa6f4is9xu20x0td,3ls2amnw5j35bgdviyh02peg3ngqob,hgGLQ1NV,2020-0188,2020-06-04,14:19:09,14:37:38,NA,incomplete,25,filling,1,0,left,Blue_Plus_Stripes_3.jpg,Red_Triangle_Stripes_1.jpg,Green_Plus_Dots_4.jpg,left,1274.8249999999534,true,NA,true
hgGLQ1NV,38f60ialbjuvdvfa6f4is9xu20x0td,3ls2amnw5j35bgdviyh02peg3ngqob,hgGLQ1NV,2020-0188,2020-06-04,14:19:09,14:37:38,NA,incomplete,26,filling,1,1,right,Red_Star_Dots_2.jpg,Green_Star_Grid_4.jpg,Purple_Triangle_Dots_1.jpg,right,1636.2199999998556,true,NA,true
hgGLQ1NV,38f60ialbjuvdvfa6f4is9xu20x0td,3ls2amnw5j35bgdviyh02peg3ngqob,hgGLQ1NV,2020-0188,2020-06-04,14:19:09,14:37:38,NA,incomplete,27,filling,1,1,left,Red_Triangle_Stripes_4.jpg,Blue_Plus_Stripes_3.jpg,Green_Triangle_Chess_2.jpg,left,1394.4350000001723,true,NA,true
hgGLQ1NV,38f60ialbjuvdvfa6f4is9xu20x0td,3ls2amnw5j35bgdviyh02peg3ngqob,hgGLQ1NV,2020-0188,2020-06-04,14:19:09,14:37:38,NA,incomplete,28,filling,1,1,right,Green_Plus_Dots_3.jpg,Purple_Plus_Grid_1.jpg,Blue_Star_Dots_2.jpg,right,1491.049999999639,true,NA,true
hgGLQ1NV,38f60ialbjuvdvfa6f4is9xu20x0td,3ls2amnw5j35bgdviyh02peg3ngqob,hgGLQ1NV,2020-0188,2020-06-04,14:19:09,14:37:38,NA,incomplete,29,filling,1,0,left,Green_Star_Chess_3.jpg,Red_Triangle_Chess_1.jpg,Blue_Star_Stripes_2.jpg,left,1325.9600000001374,true,NA,true
hgGLQ1NV,38f60ialbjuvdvfa6f4is9xu20x0td,3ls2amnw5j35bgdviyh02peg3ngqob,hgGLQ1NV,2020-0188,2020-06-04,14:19:09,14:37:38,NA,incomplete,30,filling,1,1,right,Red_Circle_Grid_4.jpg,Purple_Circle_Chess_1.jpg,Green_Star_Grid_2.jpg,right,1345.87999999983,true,NA,true
hgGLQ1NV,38f60ialbjuvdvfa6f4is9xu20x0td,3ls2amnw5j35bgdviyh02peg3ngqob,hgGLQ1NV,2020-0188,2020-06-04,14:19:09,14:37:38,NA,incomplete,31,filling,1,1,left,Purple_Plus_Chess_2.jpg,Red_Triangle_Chess_3.jpg,Green_Plus_Dots_4.jpg,left,1490.8100000002305,true,NA,true
hgGLQ1NV,38f60ialbjuvdvfa6f4is9xu20x0td,3ls2amnw5j35bgdviyh02peg3ngqob,hgGLQ1NV,2020-0188,2020-06-04,14:19:09,14:37:38,NA,incomplete,32,filling,1,1,right,Purple_Plus_Grid_2.jpg,Blue_Plus_Stripes_1.jpg,Green_Star_Grid_3.jpg,right,1564.4649999999092,true,NA,true
hgGLQ1NV,38f60ialbjuvdvfa6f4is9xu20x0td,3ls2amnw5j35bgdviyh02peg3ngqob,hgGLQ1NV,2020-0188,2020-06-04,14:19:09,14:37:38,NA,incomplete,33,filling,1,0,left,Blue_Circle_Chess_3.jpg,Green_Star_Chess_4.jpg,Purple_Circle_Grid_2.jpg,left,1305.4250000000466,true,NA,true
hgGLQ1NV,38f60ialbjuvdvfa6f4is9xu20x0td,3ls2amnw5j35bgdviyh02peg3ngqob,hgGLQ1NV,2020-0188,2020-06-04,14:19:09,14:37:38,NA,incomplete,34,filling,1,1,left,Green_Circle_Grid_4.jpg,Blue_Plus_Grid_3.jpg,Red_Circle_Chess_1.jpg,left,1337.1449999999604,true,NA,true
hgGLQ1NV,38f60ialbjuvdvfa6f4is9xu20x0td,3ls2amnw5j35bgdviyh02peg3ngqob,hgGLQ1NV,2020-0188,2020-06-04,14:19:09,14:37:38,NA,incomplete,35,filling,1,1,right,Blue_Triangle_Dots_1.jpg,Purple_Triangle_Grid_3.jpg,Red_Circle_Dots_4.jpg,right,1618.8800000000047,true,NA,true
hgGLQ1NV,38f60ialbjuvdvfa6f4is9xu20x0td,3ls2amnw5j35bgdviyh02peg3ngqob,hgGLQ1NV,2020-0188,2020-06-04,14:19:09,14:37:38,NA,incomplete,36,filling,1,1,right,Green_Triangle_Stripes_2.jpg,Purple_Triangle_Grid_1.jpg,Red_Plus_Stripes_4.jpg,right,1470.125000000291,true,NA,true
hgGLQ1NV,38f60ialbjuvdvfa6f4is9xu20x0td,3ls2amnw5j35bgdviyh02peg3ngqob,hgGLQ1NV,2020-0188,2020-06-04,14:19:09,14:37:38,NA,incomplete,37,filling,1,1,right,Purple_Triangle_Stripes_1.jpg,Green_Triangle_Dots_3.jpg,Blue_Star_Stripes_4.jpg,right,1243.0300000000861,true,NA,true
hgGLQ1NV,38f60ialbjuvdvfa6f4is9xu20x0td,3ls2amnw5j35bgdviyh02peg3ngqob,hgGLQ1NV,2020-0188,2020-06-04,14:19:09,14:37:38,NA,incomplete,38,filling,1,1,left,Purple_Triangle_Dots_4.jpg,Red_Circle_Dots_3.jpg,Blue_Triangle_Chess_1.jpg,left,1334.034999999858,true,NA,true
hgGLQ1NV,38f60ialbjuvdvfa6f4is9xu20x0td,3ls2amnw5j35bgdviyh02peg3ngqob,hgGLQ1NV,2020-0188,2020-06-04,14:19:09,14:37:38,NA,incomplete,39,filling,1,1,right,Red_Triangle_Stripes_4.jpg,Blue_Triangle_Grid_1.jpg,Green_Circle_Stripes_3.jpg,right,1075.6200000001118,true,NA,true
hgGLQ1NV,38f60ialbjuvdvfa6f4is9xu20x0td,3ls2amnw5j35bgdviyh02peg3ngqob,hgGLQ1NV,2020-0188,2020-06-04,14:19:09,14:37:38,NA,incomplete,0,shape,0,1,left,Red_Star_Grid_3.jpg,Purple_Star_Chess_4.jpg,Blue_Circle_Grid_1.jpg,left,1128.2099999998463,true,low,false
hgGLQ1NV,38f60ialbjuvdvfa6f4is9xu20x0td,3ls2amnw5j35bgdviyh02peg3ngqob,hgGLQ1NV,2020-0188,2020-06-04,14:19:09,14:37:38,NA,incomplete,1,shape,0,1,left,Purple_Circle_Stripes_1.jpg,Green_Circle_Grid_3.jpg,Blue_Plus_Stripes_4.jpg,left,969.4500000000116,true,low,false
hgGLQ1NV,38f60ialbjuvdvfa6f4is9xu20x0td,3ls2amnw5j35bgdviyh02peg3ngqob,hgGLQ1NV,2020-0188,2020-06-04,14:19:09,14:37:38,NA,incomplete,2,shape,0,1,right,Blue_Plus_Grid_4.jpg,Green_Star_Grid_3.jpg,Purple_Plus_Stripes_1.jpg,right,609.5099999997765,true,low,false
hgGLQ1NV,38f60ialbjuvdvfa6f4is9xu20x0td,3ls2amnw5j35bgdviyh02peg3ngqob,hgGLQ1NV,2020-0188,2020-06-04,14:19:09,14:37:38,NA,incomplete,3,shape,0,1,left,Red_Plus_Grid_1.jpg,Blue_Plus_Chess_4.jpg,Green_Triangle_Grid_3.jpg,left,665.9099999997416,true,low,false
hgGLQ1NV,38f60ialbjuvdvfa6f4is9xu20x0td,3ls2amnw5j35bgdviyh02peg3ngqob,hgGLQ1NV,2020-0188,2020-06-04,14:19:09,14:37:38,NA,incomplete,4,shape,0,1,right,Green_Star_Chess_3.jpg,Blue_Circle_Chess_1.jpg,Red_Star_Grid_4.jpg,right,604.0450000000419,true,low,false
hgGLQ1NV,38f60ialbjuvdvfa6f4is9xu20x0td,3ls2amnw5j35bgdviyh02peg3ngqob,hgGLQ1NV,2020-0188,2020-06-04,14:19:09,14:37:38,NA,incomplete,5,shape,0,1,right,Red_Plus_Grid_4.jpg,Green_Star_Grid_3.jpg,Purple_Plus_Dots_2.jpg,right,528.9600000000792,true,low,false
hgGLQ1NV,38f60ialbjuvdvfa6f4is9xu20x0td,3ls2amnw5j35bgdviyh02peg3ngqob,hgGLQ1NV,2020-0188,2020-06-04,14:19:09,14:37:38,NA,incomplete,6,shape,0,1,left,Red_Star_Grid_1.jpg,Green_Star_Dots_4.jpg,Purple_Triangle_Grid_2.jpg,left,570.0250000000233,true,low,false
hgGLQ1NV,38f60ialbjuvdvfa6f4is9xu20x0td,3ls2amnw5j35bgdviyh02peg3ngqob,hgGLQ1NV,2020-0188,2020-06-04,14:19:09,14:37:38,NA,incomplete,7,shape,0,1,right,Red_Triangle_Dots_1.jpg,Purple_Plus_Dots_4.jpg,Green_Triangle_Chess_3.jpg,right,504.94000000023516,true,low,false
hgGLQ1NV,38f60ialbjuvdvfa6f4is9xu20x0td,3ls2amnw5j35bgdviyh02peg3ngqob,hgGLQ1NV,2020-0188,2020-06-04,14:19:09,14:37:38,NA,incomplete,8,shape,0,1,left,Red_Circle_Chess_3.jpg,Blue_Circle_Stripes_4.jpg,Green_Plus_Chess_2.jpg,left,540.0499999995809,true,low,false
hgGLQ1NV,38f60ialbjuvdvfa6f4is9xu20x0td,3ls2amnw5j35bgdviyh02peg3ngqob,hgGLQ1NV,2020-0188,2020-06-04,14:19:09,14:37:38,NA,incomplete,9,shape,0,0,left,Green_Star_Chess_1.jpg,Red_Star_Stripes_4.jpg,Blue_Circle_Chess_3.jpg,left,575.9450000000652,true,low,false
hgGLQ1NV,38f60ialbjuvdvfa6f4is9xu20x0td,3ls2amnw5j35bgdviyh02peg3ngqob,hgGLQ1NV,2020-0188,2020-06-04,14:19:09,14:37:38,NA,incomplete,10,shape,0,1,right,Purple_Circle_Chess_2.jpg,Red_Star_Chess_1.jpg,Green_Circle_Grid_4.jpg,right,527.6100000001024,true,low,false
hgGLQ1NV,38f60ialbjuvdvfa6f4is9xu20x0td,3ls2amnw5j35bgdviyh02peg3ngqob,hgGLQ1NV,2020-0188,2020-06-04,14:19:09,14:37:38,NA,incomplete,11,shape,0,1,right,Blue_Plus_Chess_4.jpg,Red_Triangle_Chess_2.jpg,Purple_Plus_Grid_1.jpg,right,529.0350000000326,true,low,false
hgGLQ1NV,38f60ialbjuvdvfa6f4is9xu20x0td,3ls2amnw5j35bgdviyh02peg3ngqob,hgGLQ1NV,2020-0188,2020-06-04,14:19:09,14:37:38,NA,incomplete,12,shape,0,1,right,Purple_Triangle_Chess_2.jpg,Green_Plus_Chess_4.jpg,Red_Triangle_Stripes_3.jpg,right,532.9050000000279,true,low,false
hgGLQ1NV,38f60ialbjuvdvfa6f4is9xu20x0td,3ls2amnw5j35bgdviyh02peg3ngqob,hgGLQ1NV,2020-0188,2020-06-04,14:19:09,14:37:38,NA,incomplete,13,shape,0,1,right,Purple_Triangle_Stripes_2.jpg,Green_Star_Stripes_1.jpg,Red_Triangle_Chess_3.jpg,right,420.39500000007683,true,low,false
hgGLQ1NV,38f60ialbjuvdvfa6f4is9xu20x0td,3ls2amnw5j35bgdviyh02peg3ngqob,hgGLQ1NV,2020-0188,2020-06-04,14:19:09,14:37:38,NA,incomplete,14,shape,0,1,left,Blue_Plus_Dots_1.jpg,Purple_Plus_Grid_2.jpg,Green_Star_Dots_3.jpg,left,417.7150000000838,true,low,false
hgGLQ1NV,38f60ialbjuvdvfa6f4is9xu20x0td,3ls2amnw5j35bgdviyh02peg3ngqob,hgGLQ1NV,2020-0188,2020-06-04,14:19:09,14:37:38,NA,incomplete,15,shape,0,1,left,Red_Triangle_Stripes_4.jpg,Purple_Triangle_Chess_2.jpg,Green_Star_Stripes_3.jpg,left,525.379999999539,true,low,false
hgGLQ1NV,38f60ialbjuvdvfa6f4is9xu20x0td,3ls2amnw5j35bgdviyh02peg3ngqob,hgGLQ1NV,2020-0188,2020-06-04,14:19:09,14:37:38,NA,incomplete,16,shape,0,1,left,Blue_Triangle_Stripes_3.jpg,Red_Triangle_Dots_2.jpg,Purple_Circle_Stripes_4.jpg,left,529.3649999998743,true,low,false
hgGLQ1NV,38f60ialbjuvdvfa6f4is9xu20x0td,3ls2amnw5j35bgdviyh02peg3ngqob,hgGLQ1NV,2020-0188,2020-06-04,14:19:09,14:37:38,NA,incomplete,17,shape,0,1,left,Purple_Circle_Dots_4.jpg,Green_Circle_Grid_2.jpg,Blue_Plus_Dots_1.jpg,left,530.9099999999162,true,low,false
hgGLQ1NV,38f60ialbjuvdvfa6f4is9xu20x0td,3ls2amnw5j35bgdviyh02peg3ngqob,hgGLQ1NV,2020-0188,2020-06-04,14:19:09,14:37:38,NA,incomplete,18,shape,0,1,right,Red_Plus_Stripes_2.jpg,Blue_Triangle_Stripes_3.jpg,Purple_Plus_Grid_1.jpg,right,463.1699999999837,true,low,false
hgGLQ1NV,38f60ialbjuvdvfa6f4is9xu20x0td,3ls2amnw5j35bgdviyh02peg3ngqob,hgGLQ1NV,2020-0188,2020-06-04,14:19:09,14:37:38,NA,incomplete,19,shape,0,0,right,Blue_Triangle_Chess_1.jpg,Green_Star_Chess_3.jpg,Purple_Triangle_Stripes_2.jpg,right,486.65500000014435,true,low,false
hgGLQ1NV,38f60ialbjuvdvfa6f4is9xu20x0td,3ls2amnw5j35bgdviyh02peg3ngqob,hgGLQ1NV,2020-0188,2020-06-04,14:19:09,14:37:38,NA,incomplete,20,shape,0,1,left,Purple_Plus_Chess_2.jpg,Red_Plus_Dots_1.jpg,Blue_Star_Chess_3.jpg,left,650.1149999999325,true,low,false
hgGLQ1NV,38f60ialbjuvdvfa6f4is9xu20x0td,3ls2amnw5j35bgdviyh02peg3ngqob,hgGLQ1NV,2020-0188,2020-06-04,14:19:09,14:37:38,NA,incomplete,21,shape,0,1,right,Green_Triangle_Stripes_2.jpg,Purple_Circle_Stripes_3.jpg,Blue_Triangle_Chess_4.jpg,right,563.2599999998929,true,low,false
hgGLQ1NV,38f60ialbjuvdvfa6f4is9xu20x0td,3ls2amnw5j35bgdviyh02peg3ngqob,hgGLQ1NV,2020-0188,2020-06-04,14:19:09,14:37:38,NA,incomplete,22,shape,0,1,right,Blue_Circle_Grid_1.jpg,Purple_Plus_Grid_4.jpg,Red_Circle_Stripes_2.jpg,right,580.0400000002701,true,low,false
hgGLQ1NV,38f60ialbjuvdvfa6f4is9xu20x0td,3ls2amnw5j35bgdviyh02peg3ngqob,hgGLQ1NV,2020-0188,2020-06-04,14:19:09,14:37:38,NA,incomplete,23,shape,0,1,right,Red_Circle_Dots_4.jpg,Green_Plus_Dots_2.jpg,Blue_Circle_Stripes_3.jpg,right,544.1750000000466,true,low,false
hgGLQ1NV,38f60ialbjuvdvfa6f4is9xu20x0td,3ls2amnw5j35bgdviyh02peg3ngqob,hgGLQ1NV,2020-0188,2020-06-04,14:19:09,14:37:38,NA,incomplete,24,shape,0,1,left,Red_Circle_Stripes_4.jpg,Green_Circle_Grid_2.jpg,Purple_Plus_Stripes_3.jpg,left,413.5649999998277,true,low,false
hgGLQ1NV,38f60ialbjuvdvfa6f4is9xu20x0td,3ls2amnw5j35bgdviyh02peg3ngqob,hgGLQ1NV,2020-0188,2020-06-04,14:19:09,14:37:38,NA,incomplete,25,shape,0,0,left,Blue_Plus_Grid_1.jpg,Red_Plus_Stripes_4.jpg,Purple_Circle_Grid_3.jpg,left,509.8200000002398,true,low,false
hgGLQ1NV,38f60ialbjuvdvfa6f4is9xu20x0td,3ls2amnw5j35bgdviyh02peg3ngqob,hgGLQ1NV,2020-0188,2020-06-04,14:19:09,14:37:38,NA,incomplete,26,shape,0,1,left,Green_Plus_Stripes_4.jpg,Purple_Plus_Dots_1.jpg,Blue_Triangle_Stripes_3.jpg,left,466.32999999972526,true,low,false
hgGLQ1NV,38f60ialbjuvdvfa6f4is9xu20x0td,3ls2amnw5j35bgdviyh02peg3ngqob,hgGLQ1NV,2020-0188,2020-06-04,14:19:09,14:37:38,NA,incomplete,27,shape,0,1,right,Red_Triangle_Dots_1.jpg,Purple_Plus_Dots_2.jpg,Blue_Triangle_Stripes_3.jpg,right,389.0499999997555,true,low,false
hgGLQ1NV,38f60ialbjuvdvfa6f4is9xu20x0td,3ls2amnw5j35bgdviyh02peg3ngqob,hgGLQ1NV,2020-0188,2020-06-04,14:19:09,14:37:38,NA,incomplete,28,shape,0,1,left,Purple_Circle_Dots_2.jpg,Red_Circle_Grid_4.jpg,Green_Plus_Dots_3.jpg,left,480.02500000037253,true,low,false
hgGLQ1NV,38f60ialbjuvdvfa6f4is9xu20x0td,3ls2amnw5j35bgdviyh02peg3ngqob,hgGLQ1NV,2020-0188,2020-06-04,14:19:09,14:37:38,NA,incomplete,29,shape,0,1,left,Red_Star_Chess_1.jpg,Blue_Star_Stripes_3.jpg,Green_Plus_Chess_4.jpg,right,394.6700000001583,false,low,false
hgGLQ1NV,38f60ialbjuvdvfa6f4is9xu20x0td,3ls2amnw5j35bgdviyh02peg3ngqob,hgGLQ1NV,2020-0188,2020-06-04,14:19:09,14:37:38,NA,incomplete,30,filling,1,1,left,Purple_Star_Grid_1.jpg,Green_Circle_Grid_2.jpg,Blue_Star_Dots_4.jpg,right,487.5800000000745,false,low,false
hgGLQ1NV,38f60ialbjuvdvfa6f4is9xu20x0td,3ls2amnw5j35bgdviyh02peg3ngqob,hgGLQ1NV,2020-0188,2020-06-04,14:19:09,14:37:38,NA,incomplete,31,filling,1,1,left,Blue_Triangle_Chess_3.jpg,Red_Star_Chess_2.jpg,Purple_Triangle_Stripes_1.jpg,right,676.2299999999814,false,low,false
hgGLQ1NV,38f60ialbjuvdvfa6f4is9xu20x0td,3ls2amnw5j35bgdviyh02peg3ngqob,hgGLQ1NV,2020-0188,2020-06-04,14:19:09,14:37:38,NA,incomplete,32,filling,1,1,right,Blue_Triangle_Chess_4.jpg,Green_Triangle_Stripes_1.jpg,Purple_Star_Chess_3.jpg,left,510.7899999998044,false,low,false
hgGLQ1NV,38f60ialbjuvdvfa6f4is9xu20x0td,3ls2amnw5j35bgdviyh02peg3ngqob,hgGLQ1NV,2020-0188,2020-06-04,14:19:09,14:37:38,NA,incomplete,33,filling,1,1,right,Blue_Plus_Grid_4.jpg,Red_Plus_Stripes_1.jpg,Purple_Circle_Grid_2.jpg,right,1152.5750000000698,true,low,false
hgGLQ1NV,38f60ialbjuvdvfa6f4is9xu20x0td,3ls2amnw5j35bgdviyh02peg3ngqob,hgGLQ1NV,2020-0188,2020-06-04,14:19:09,14:37:38,NA,incomplete,34,filling,1,1,left,Red_Star_Stripes_3.jpg,Purple_Circle_Stripes_4.jpg,Blue_Star_Dots_1.jpg,left,1185.2900000003865,true,low,false
hgGLQ1NV,38f60ialbjuvdvfa6f4is9xu20x0td,3ls2amnw5j35bgdviyh02peg3ngqob,hgGLQ1NV,2020-0188,2020-06-04,14:19:09,14:37:38,NA,incomplete,35,filling,1,0,right,Blue_Plus_Grid_2.jpg,Green_Plus_Stripes_3.jpg,Purple_Star_Grid_4.jpg,right,1266.1700000003912,true,low,false
hgGLQ1NV,38f60ialbjuvdvfa6f4is9xu20x0td,3ls2amnw5j35bgdviyh02peg3ngqob,hgGLQ1NV,2020-0188,2020-06-04,14:19:09,14:37:38,NA,incomplete,36,filling,1,1,left,Blue_Triangle_Stripes_4.jpg,Green_Star_Stripes_3.jpg,Red_Triangle_Grid_2.jpg,left,1216.794999999809,true,low,false
hgGLQ1NV,38f60ialbjuvdvfa6f4is9xu20x0td,3ls2amnw5j35bgdviyh02peg3ngqob,hgGLQ1NV,2020-0188,2020-06-04,14:19:09,14:37:38,NA,incomplete,37,filling,1,1,left,Red_Circle_Grid_3.jpg,Purple_Star_Grid_2.jpg,Green_Circle_Chess_1.jpg,left,1176.734999999986,true,low,false
hgGLQ1NV,38f60ialbjuvdvfa6f4is9xu20x0td,3ls2amnw5j35bgdviyh02peg3ngqob,hgGLQ1NV,2020-0188,2020-06-04,14:19:09,14:37:38,NA,incomplete,38,filling,1,1,left,Blue_Triangle_Dots_1.jpg,Red_Star_Dots_3.jpg,Purple_Triangle_Stripes_4.jpg,left,1181.7200000000885,true,low,false
hgGLQ1NV,38f60ialbjuvdvfa6f4is9xu20x0td,3ls2amnw5j35bgdviyh02peg3ngqob,hgGLQ1NV,2020-0188,2020-06-04,14:19:09,14:37:38,NA,incomplete,39,filling,1,1,left,Blue_Plus_Dots_3.jpg,Green_Triangle_Dots_2.jpg,Red_Plus_Chess_1.jpg,left,1205.494999999646,true,low,false
hgGLQ1NV,38f60ialbjuvdvfa6f4is9xu20x0td,3ls2amnw5j35bgdviyh02peg3ngqob,hgGLQ1NV,2020-0188,2020-06-04,14:19:09,14:37:38,NA,incomplete,40,filling,1,1,right,Red_Star_Chess_2.jpg,Green_Star_Dots_1.jpg,Purple_Plus_Chess_4.jpg,right,1121.3100000000559,true,low,false
hgGLQ1NV,38f60ialbjuvdvfa6f4is9xu20x0td,3ls2amnw5j35bgdviyh02peg3ngqob,hgGLQ1NV,2020-0188,2020-06-04,14:19:09,14:37:38,NA,incomplete,41,filling,1,0,right,Red_Triangle_Grid_4.jpg,Green_Triangle_Dots_1.jpg,Purple_Star_Grid_2.jpg,right,988.3800000002375,true,low,false
hgGLQ1NV,38f60ialbjuvdvfa6f4is9xu20x0td,3ls2amnw5j35bgdviyh02peg3ngqob,hgGLQ1NV,2020-0188,2020-06-04,14:19:09,14:37:38,NA,incomplete,42,filling,1,0,left,Green_Triangle_Stripes_1.jpg,Blue_Circle_Stripes_2.jpg,Purple_Triangle_Chess_4.jpg,left,1006.8000000000466,true,low,false
hgGLQ1NV,38f60ialbjuvdvfa6f4is9xu20x0td,3ls2amnw5j35bgdviyh02peg3ngqob,hgGLQ1NV,2020-0188,2020-06-04,14:19:09,14:37:38,NA,incomplete,43,filling,1,1,left,Purple_Triangle_Grid_2.jpg,Blue_Circle_Grid_4.jpg,Green_Triangle_Dots_1.jpg,right,668.4049999997951,false,low,false
hgGLQ1NV,38f60ialbjuvdvfa6f4is9xu20x0td,3ls2amnw5j35bgdviyh02peg3ngqob,hgGLQ1NV,2020-0188,2020-06-04,14:19:09,14:37:38,NA,incomplete,44,filling,1,0,left,Green_Circle_Stripes_1.jpg,Red_Triangle_Stripes_2.jpg,Purple_Circle_Grid_4.jpg,right,732.2650000001304,false,low,false
hgGLQ1NV,38f60ialbjuvdvfa6f4is9xu20x0td,3ls2amnw5j35bgdviyh02peg3ngqob,hgGLQ1NV,2020-0188,2020-06-04,14:19:09,14:37:38,NA,incomplete,45,filling,1,1,left,Red_Triangle_Dots_1.jpg,Green_Circle_Dots_2.jpg,Purple_Triangle_Grid_4.jpg,right,595.8700000001118,false,low,false
hgGLQ1NV,38f60ialbjuvdvfa6f4is9xu20x0td,3ls2amnw5j35bgdviyh02peg3ngqob,hgGLQ1NV,2020-0188,2020-06-04,14:19:09,14:37:38,NA,incomplete,46,filling,1,1,left,Blue_Plus_Stripes_4.jpg,Red_Circle_Stripes_3.jpg,Purple_Plus_Grid_2.jpg,left,1102.440000000177,true,low,false
hgGLQ1NV,38f60ialbjuvdvfa6f4is9xu20x0td,3ls2amnw5j35bgdviyh02peg3ngqob,hgGLQ1NV,2020-0188,2020-06-04,14:19:09,14:37:38,NA,incomplete,47,filling,1,0,left,Purple_Plus_Stripes_3.jpg,Blue_Star_Stripes_2.jpg,Green_Plus_Chess_4.jpg,left,1085.0500000000466,true,low,false
hgGLQ1NV,38f60ialbjuvdvfa6f4is9xu20x0td,3ls2amnw5j35bgdviyh02peg3ngqob,hgGLQ1NV,2020-0188,2020-06-04,14:19:09,14:37:38,NA,incomplete,48,filling,1,1,left,Red_Circle_Chess_4.jpg,Purple_Triangle_Chess_3.jpg,Green_Circle_Grid_1.jpg,right,629.9799999996321,false,low,false
hgGLQ1NV,38f60ialbjuvdvfa6f4is9xu20x0td,3ls2amnw5j35bgdviyh02peg3ngqob,hgGLQ1NV,2020-0188,2020-06-04,14:19:09,14:37:38,NA,incomplete,49,filling,1,1,left,Purple_Triangle_Dots_2.jpg,Red_Star_Dots_1.jpg,Green_Triangle_Chess_4.jpg,left,974.2399999999907,true,low,false
hgGLQ1NV,38f60ialbjuvdvfa6f4is9xu20x0td,3ls2amnw5j35bgdviyh02peg3ngqob,hgGLQ1NV,2020-0188,2020-06-04,14:19:09,14:37:38,NA,incomplete,50,filling,1,1,left,Purple_Plus_Chess_2.jpg,Green_Star_Chess_1.jpg,Red_Plus_Grid_3.jpg,left,1294.5049999998882,true,low,false
hgGLQ1NV,38f60ialbjuvdvfa6f4is9xu20x0td,3ls2amnw5j35bgdviyh02peg3ngqob,hgGLQ1NV,2020-0188,2020-06-04,14:19:09,14:37:38,NA,incomplete,51,filling,1,0,right,Purple_Circle_Stripes_2.jpg,Green_Circle_Chess_3.jpg,Blue_Plus_Stripes_4.jpg,right,960.5249999999069,true,low,false
hgGLQ1NV,38f60ialbjuvdvfa6f4is9xu20x0td,3ls2amnw5j35bgdviyh02peg3ngqob,hgGLQ1NV,2020-0188,2020-06-04,14:19:09,14:37:38,NA,incomplete,52,filling,1,0,right,Green_Circle_Chess_3.jpg,Blue_Circle_Dots_4.jpg,Purple_Triangle_Chess_1.jpg,right,1067.0249999997905,true,low,false
hgGLQ1NV,38f60ialbjuvdvfa6f4is9xu20x0td,3ls2amnw5j35bgdviyh02peg3ngqob,hgGLQ1NV,2020-0188,2020-06-04,14:19:09,14:37:38,NA,incomplete,53,filling,1,1,right,Red_Triangle_Stripes_1.jpg,Purple_Triangle_Dots_2.jpg,Blue_Circle_Stripes_4.jpg,right,1344.3949999996694,true,low,false
hgGLQ1NV,38f60ialbjuvdvfa6f4is9xu20x0td,3ls2amnw5j35bgdviyh02peg3ngqob,hgGLQ1NV,2020-0188,2020-06-04,14:19:09,14:37:38,NA,incomplete,54,filling,1,0,left,Red_Triangle_Chess_1.jpg,Green_Star_Chess_4.jpg,Purple_Triangle_Dots_2.jpg,left,1284.6799999998184,true,low,false
hgGLQ1NV,38f60ialbjuvdvfa6f4is9xu20x0td,3ls2amnw5j35bgdviyh02peg3ngqob,hgGLQ1NV,2020-0188,2020-06-04,14:19:09,14:37:38,NA,incomplete,55,filling,1,1,right,Red_Circle_Chess_1.jpg,Green_Circle_Stripes_2.jpg,Blue_Plus_Chess_3.jpg,left,619.1300000000047,false,low,false
hgGLQ1NV,38f60ialbjuvdvfa6f4is9xu20x0td,3ls2amnw5j35bgdviyh02peg3ngqob,hgGLQ1NV,2020-0188,2020-06-04,14:19:09,14:37:38,NA,incomplete,56,filling,1,1,left,Green_Circle_Grid_3.jpg,Blue_Star_Grid_1.jpg,Red_Circle_Stripes_4.jpg,left,1017.6050000000978,true,low,false
hgGLQ1NV,38f60ialbjuvdvfa6f4is9xu20x0td,3ls2amnw5j35bgdviyh02peg3ngqob,hgGLQ1NV,2020-0188,2020-06-04,14:19:09,14:37:38,NA,incomplete,57,filling,1,1,left,Blue_Star_Chess_4.jpg,Green_Triangle_Chess_3.jpg,Red_Star_Stripes_2.jpg,left,1305.2600000000093,true,low,false
hgGLQ1NV,38f60ialbjuvdvfa6f4is9xu20x0td,3ls2amnw5j35bgdviyh02peg3ngqob,hgGLQ1NV,2020-0188,2020-06-04,14:19:09,14:37:38,NA,incomplete,58,filling,1,1,right,Purple_Circle_Dots_2.jpg,Blue_Circle_Grid_3.jpg,Red_Star_Dots_1.jpg,right,1099.8199999999488,true,low,false
hgGLQ1NV,38f60ialbjuvdvfa6f4is9xu20x0td,3ls2amnw5j35bgdviyh02peg3ngqob,hgGLQ1NV,2020-0188,2020-06-04,14:19:09,14:37:38,NA,incomplete,59,filling,1,0,left,Green_Triangle_Stripes_2.jpg,Blue_Plus_Stripes_1.jpg,Purple_Triangle_Dots_4.jpg,left,1101.6249999997672,true,low,false
hgGLQ1NV,38f60ialbjuvdvfa6f4is9xu20x0td,3ls2amnw5j35bgdviyh02peg3ngqob,hgGLQ1NV,2020-0188,2020-06-04,14:19:09,14:37:38,NA,incomplete,60,shape,0,1,right,Green_Circle_Dots_1.jpg,Blue_Star_Dots_4.jpg,Red_Circle_Grid_3.jpg,left,1328.4549999998417,false,low,false
hgGLQ1NV,38f60ialbjuvdvfa6f4is9xu20x0td,3ls2amnw5j35bgdviyh02peg3ngqob,hgGLQ1NV,2020-0188,2020-06-04,14:19:09,14:37:38,NA,incomplete,61,shape,0,0,right,Blue_Triangle_Dots_1.jpg,Green_Star_Dots_3.jpg,Red_Triangle_Stripes_4.jpg,left,1258.1099999997532,false,low,false
hgGLQ1NV,38f60ialbjuvdvfa6f4is9xu20x0td,3ls2amnw5j35bgdviyh02peg3ngqob,hgGLQ1NV,2020-0188,2020-06-04,14:19:09,14:37:38,NA,incomplete,62,shape,0,0,left,Green_Star_Dots_2.jpg,Red_Star_Stripes_1.jpg,Purple_Triangle_Dots_4.jpg,right,1167.7300000000978,false,low,false
hgGLQ1NV,38f60ialbjuvdvfa6f4is9xu20x0td,3ls2amnw5j35bgdviyh02peg3ngqob,hgGLQ1NV,2020-0188,2020-06-04,14:19:09,14:37:38,NA,incomplete,63,shape,0,0,right,Purple_Plus_Grid_1.jpg,Green_Triangle_Grid_4.jpg,Blue_Plus_Stripes_3.jpg,left,1209.9949999997625,false,low,false
hgGLQ1NV,38f60ialbjuvdvfa6f4is9xu20x0td,3ls2amnw5j35bgdviyh02peg3ngqob,hgGLQ1NV,2020-0188,2020-06-04,14:19:09,14:37:38,NA,incomplete,64,shape,0,1,left,Blue_Circle_Stripes_3.jpg,Purple_Circle_Dots_4.jpg,Red_Star_Stripes_2.jpg,right,985.2649999997811,false,low,false
hgGLQ1NV,38f60ialbjuvdvfa6f4is9xu20x0td,3ls2amnw5j35bgdviyh02peg3ngqob,hgGLQ1NV,2020-0188,2020-06-04,14:19:09,14:37:38,NA,incomplete,65,shape,0,1,left,Purple_Star_Dots_1.jpg,Red_Star_Chess_3.jpg,Green_Circle_Dots_4.jpg,right,1241.4800000002142,false,low,false
hgGLQ1NV,38f60ialbjuvdvfa6f4is9xu20x0td,3ls2amnw5j35bgdviyh02peg3ngqob,hgGLQ1NV,2020-0188,2020-06-04,14:19:09,14:37:38,NA,incomplete,66,shape,0,1,left,Blue_Plus_Stripes_1.jpg,Green_Plus_Dots_4.jpg,Purple_Star_Stripes_2.jpg,left,808.2900000000373,true,low,false
hgGLQ1NV,38f60ialbjuvdvfa6f4is9xu20x0td,3ls2amnw5j35bgdviyh02peg3ngqob,hgGLQ1NV,2020-0188,2020-06-04,14:19:09,14:37:38,NA,incomplete,67,shape,0,0,left,Blue_Star_Chess_2.jpg,Red_Star_Stripes_3.jpg,Green_Triangle_Chess_4.jpg,left,644.934999999823,true,low,false
hgGLQ1NV,38f60ialbjuvdvfa6f4is9xu20x0td,3ls2amnw5j35bgdviyh02peg3ngqob,hgGLQ1NV,2020-0188,2020-06-04,14:19:09,14:37:38,NA,incomplete,68,shape,0,1,left,Blue_Plus_Dots_3.jpg,Green_Plus_Grid_4.jpg,Purple_Star_Dots_1.jpg,right,979.8699999997625,false,low,false
hgGLQ1NV,38f60ialbjuvdvfa6f4is9xu20x0td,3ls2amnw5j35bgdviyh02peg3ngqob,hgGLQ1NV,2020-0188,2020-06-04,14:19:09,14:37:38,NA,incomplete,69,shape,0,1,left,Purple_Plus_Stripes_4.jpg,Blue_Plus_Dots_3.jpg,Red_Triangle_Stripes_1.jpg,left,616.3400000000838,true,low,false
hgGLQ1NV,38f60ialbjuvdvfa6f4is9xu20x0td,3ls2amnw5j35bgdviyh02peg3ngqob,hgGLQ1NV,2020-0188,2020-06-04,14:19:09,14:37:38,NA,incomplete,70,shape,0,1,left,Purple_Star_Dots_3.jpg,Blue_Star_Chess_4.jpg,Green_Plus_Dots_1.jpg,left,610.2649999998976,true,low,false
hgGLQ1NV,38f60ialbjuvdvfa6f4is9xu20x0td,3ls2amnw5j35bgdviyh02peg3ngqob,hgGLQ1NV,2020-0188,2020-06-04,14:19:09,14:37:38,NA,incomplete,71,shape,0,1,right,Green_Plus_Chess_2.jpg,Blue_Star_Chess_4.jpg,Red_Plus_Stripes_3.jpg,right,596.0250000002561,true,low,false
hgGLQ1NV,38f60ialbjuvdvfa6f4is9xu20x0td,3ls2amnw5j35bgdviyh02peg3ngqob,hgGLQ1NV,2020-0188,2020-06-04,14:19:09,14:37:38,NA,incomplete,72,shape,0,1,right,Green_Triangle_Stripes_2.jpg,Blue_Plus_Stripes_3.jpg,Red_Triangle_Chess_1.jpg,right,640.4100000000326,true,low,false
hgGLQ1NV,38f60ialbjuvdvfa6f4is9xu20x0td,3ls2amnw5j35bgdviyh02peg3ngqob,hgGLQ1NV,2020-0188,2020-06-04,14:19:09,14:37:38,NA,incomplete,73,shape,0,1,right,Blue_Star_Stripes_3.jpg,Green_Plus_Stripes_2.jpg,Purple_Star_Dots_1.jpg,right,614.1850000004051,true,low,false
hgGLQ1NV,38f60ialbjuvdvfa6f4is9xu20x0td,3ls2amnw5j35bgdviyh02peg3ngqob,hgGLQ1NV,2020-0188,2020-06-04,14:19:09,14:37:38,NA,incomplete,74,shape,0,1,right,Purple_Circle_Dots_2.jpg,Red_Star_Dots_1.jpg,Blue_Circle_Chess_4.jpg,right,645.4650000000838,true,low,false
hgGLQ1NV,38f60ialbjuvdvfa6f4is9xu20x0td,3ls2amnw5j35bgdviyh02peg3ngqob,hgGLQ1NV,2020-0188,2020-06-04,14:19:09,14:37:38,NA,incomplete,75,shape,0,1,right,Green_Circle_Stripes_4.jpg,Red_Plus_Stripes_2.jpg,Purple_Circle_Grid_3.jpg,right,573.5099999996601,true,low,false
hgGLQ1NV,38f60ialbjuvdvfa6f4is9xu20x0td,3ls2amnw5j35bgdviyh02peg3ngqob,hgGLQ1NV,2020-0188,2020-06-04,14:19:09,14:37:38,NA,incomplete,76,shape,0,1,left,Purple_Plus_Stripes_2.jpg,Blue_Plus_Chess_4.jpg,Red_Triangle_Stripes_3.jpg,left,527.6050000002142,true,low,false
hgGLQ1NV,38f60ialbjuvdvfa6f4is9xu20x0td,3ls2amnw5j35bgdviyh02peg3ngqob,hgGLQ1NV,2020-0188,2020-06-04,14:19:09,14:37:38,NA,incomplete,77,shape,0,1,left,Red_Triangle_Stripes_3.jpg,Purple_Triangle_Chess_4.jpg,Blue_Plus_Stripes_1.jpg,left,636.4699999999721,true,low,false
hgGLQ1NV,38f60ialbjuvdvfa6f4is9xu20x0td,3ls2amnw5j35bgdviyh02peg3ngqob,hgGLQ1NV,2020-0188,2020-06-04,14:19:09,14:37:38,NA,incomplete,78,shape,0,0,left,Red_Triangle_Grid_2.jpg,Purple_Triangle_Dots_3.jpg,Green_Star_Grid_4.jpg,left,575.3450000002049,true,low,false
hgGLQ1NV,38f60ialbjuvdvfa6f4is9xu20x0td,3ls2amnw5j35bgdviyh02peg3ngqob,hgGLQ1NV,2020-0188,2020-06-04,14:19:09,14:37:38,NA,incomplete,79,shape,0,1,left,Blue_Star_Dots_3.jpg,Red_Star_Chess_4.jpg,Purple_Circle_Dots_2.jpg,left,621.2500000002328,true,low,false
hgGLQ1NV,38f60ialbjuvdvfa6f4is9xu20x0td,3ls2amnw5j35bgdviyh02peg3ngqob,hgGLQ1NV,2020-0188,2020-06-04,14:19:09,14:37:38,NA,incomplete,80,shape,0,0,right,Blue_Triangle_Dots_4.jpg,Red_Circle_Dots_3.jpg,Purple_Triangle_Stripes_1.jpg,right,634.7399999999907,true,low,false
hgGLQ1NV,38f60ialbjuvdvfa6f4is9xu20x0td,3ls2amnw5j35bgdviyh02peg3ngqob,hgGLQ1NV,2020-0188,2020-06-04,14:19:09,14:37:38,NA,incomplete,81,shape,0,0,right,Red_Triangle_Grid_1.jpg,Green_Circle_Grid_3.jpg,Purple_Triangle_Stripes_2.jpg,right,495.8750000001164,true,low,false
hgGLQ1NV,38f60ialbjuvdvfa6f4is9xu20x0td,3ls2amnw5j35bgdviyh02peg3ngqob,hgGLQ1NV,2020-0188,2020-06-04,14:19:09,14:37:38,NA,incomplete,82,shape,0,1,left,Purple_Star_Chess_1.jpg,Green_Star_Grid_4.jpg,Blue_Plus_Chess_3.jpg,right,1117.8899999998976,false,low,false
hgGLQ1NV,38f60ialbjuvdvfa6f4is9xu20x0td,3ls2amnw5j35bgdviyh02peg3ngqob,hgGLQ1NV,2020-0188,2020-06-04,14:19:09,14:37:38,NA,incomplete,83,shape,0,0,left,Red_Star_Chess_2.jpg,Purple_Star_Dots_4.jpg,Green_Plus_Chess_1.jpg,right,1252.2049999997253,false,low,false
hgGLQ1NV,38f60ialbjuvdvfa6f4is9xu20x0td,3ls2amnw5j35bgdviyh02peg3ngqob,hgGLQ1NV,2020-0188,2020-06-04,14:19:09,14:37:38,NA,incomplete,84,shape,0,1,left,Red_Circle_Grid_1.jpg,Blue_Circle_Dots_2.jpg,Purple_Plus_Grid_3.jpg,right,1049.8049999995856,false,low,false
hgGLQ1NV,38f60ialbjuvdvfa6f4is9xu20x0td,3ls2amnw5j35bgdviyh02peg3ngqob,hgGLQ1NV,2020-0188,2020-06-04,14:19:09,14:37:38,NA,incomplete,85,shape,0,1,right,Green_Plus_Chess_1.jpg,Red_Star_Chess_3.jpg,Purple_Plus_Stripes_2.jpg,right,1348.7249999998603,true,low,false
hgGLQ1NV,38f60ialbjuvdvfa6f4is9xu20x0td,3ls2amnw5j35bgdviyh02peg3ngqob,hgGLQ1NV,2020-0188,2020-06-04,14:19:09,14:37:38,NA,incomplete,86,shape,0,1,left,Red_Circle_Grid_2.jpg,Purple_Circle_Stripes_4.jpg,Blue_Star_Grid_3.jpg,left,885.055000000284,true,low,false
hgGLQ1NV,38f60ialbjuvdvfa6f4is9xu20x0td,3ls2amnw5j35bgdviyh02peg3ngqob,hgGLQ1NV,2020-0188,2020-06-04,14:19:09,14:37:38,NA,incomplete,87,shape,0,1,right,Purple_Star_Chess_2.jpg,Green_Circle_Chess_3.jpg,Blue_Star_Grid_4.jpg,right,582.6799999999348,true,low,false
hgGLQ1NV,38f60ialbjuvdvfa6f4is9xu20x0td,3ls2amnw5j35bgdviyh02peg3ngqob,hgGLQ1NV,2020-0188,2020-06-04,14:19:09,14:37:38,NA,incomplete,88,shape,0,0,left,Red_Plus_Stripes_2.jpg,Green_Plus_Dots_3.jpg,Purple_Triangle_Stripes_1.jpg,left,532.5999999999767,true,low,false
hgGLQ1NV,38f60ialbjuvdvfa6f4is9xu20x0td,3ls2amnw5j35bgdviyh02peg3ngqob,hgGLQ1NV,2020-0188,2020-06-04,14:19:09,14:37:38,NA,incomplete,89,shape,0,1,left,Blue_Circle_Dots_4.jpg,Green_Circle_Grid_2.jpg,Purple_Star_Dots_3.jpg,left,517.1999999997206,true,low,false
hgGLQ1NV,38f60ialbjuvdvfa6f4is9xu20x0td,3ls2amnw5j35bgdviyh02peg3ngqob,hgGLQ1NV,2020-0188,2020-06-04,14:19:09,14:37:38,NA,incomplete,90,filling,1,1,right,Blue_Triangle_Dots_1.jpg,Purple_Triangle_Stripes_3.jpg,Green_Circle_Dots_2.jpg,left,498.8500000004424,false,low,false
hgGLQ1NV,38f60ialbjuvdvfa6f4is9xu20x0td,3ls2amnw5j35bgdviyh02peg3ngqob,hgGLQ1NV,2020-0188,2020-06-04,14:19:09,14:37:38,NA,incomplete,91,filling,1,1,right,Red_Plus_Dots_1.jpg,Green_Plus_Stripes_4.jpg,Blue_Triangle_Dots_3.jpg,left,559.7549999997718,false,low,false
hgGLQ1NV,38f60ialbjuvdvfa6f4is9xu20x0td,3ls2amnw5j35bgdviyh02peg3ngqob,hgGLQ1NV,2020-0188,2020-06-04,14:19:09,14:37:38,NA,incomplete,92,filling,1,1,right,Purple_Star_Chess_1.jpg,Red_Star_Grid_2.jpg,Blue_Circle_Chess_4.jpg,right,1082.265000000014,true,low,false
hgGLQ1NV,38f60ialbjuvdvfa6f4is9xu20x0td,3ls2amnw5j35bgdviyh02peg3ngqob,hgGLQ1NV,2020-0188,2020-06-04,14:19:09,14:37:38,NA,incomplete,93,filling,1,1,right,Blue_Circle_Stripes_3.jpg,Green_Circle_Chess_1.jpg,Purple_Plus_Stripes_2.jpg,right,878.1199999998789,true,low,false
hgGLQ1NV,38f60ialbjuvdvfa6f4is9xu20x0td,3ls2amnw5j35bgdviyh02peg3ngqob,hgGLQ1NV,2020-0188,2020-06-04,14:19:09,14:37:38,NA,incomplete,94,filling,1,1,left,Purple_Circle_Grid_1.jpg,Red_Triangle_Grid_2.jpg,Blue_Circle_Chess_3.jpg,left,1056.6250000002328,true,low,false
hgGLQ1NV,38f60ialbjuvdvfa6f4is9xu20x0td,3ls2amnw5j35bgdviyh02peg3ngqob,hgGLQ1NV,2020-0188,2020-06-04,14:19:09,14:37:38,NA,incomplete,95,filling,1,1,left,Red_Triangle_Chess_4.jpg,Purple_Plus_Chess_2.jpg,Green_Triangle_Grid_1.jpg,left,935.2349999998696,true,low,false
hgGLQ1NV,38f60ialbjuvdvfa6f4is9xu20x0td,3ls2amnw5j35bgdviyh02peg3ngqob,hgGLQ1NV,2020-0188,2020-06-04,14:19:09,14:37:38,NA,incomplete,96,filling,1,1,right,Green_Plus_Chess_4.jpg,Purple_Plus_Dots_3.jpg,Red_Star_Chess_2.jpg,right,973.3449999998556,true,low,false
hgGLQ1NV,38f60ialbjuvdvfa6f4is9xu20x0td,3ls2amnw5j35bgdviyh02peg3ngqob,hgGLQ1NV,2020-0188,2020-06-04,14:19:09,14:37:38,NA,incomplete,97,filling,1,1,left,Green_Circle_Grid_1.jpg,Red_Plus_Grid_4.jpg,Purple_Circle_Dots_3.jpg,left,858.6100000002189,true,low,false
hgGLQ1NV,38f60ialbjuvdvfa6f4is9xu20x0td,3ls2amnw5j35bgdviyh02peg3ngqob,hgGLQ1NV,2020-0188,2020-06-04,14:19:09,14:37:38,NA,incomplete,98,filling,1,1,right,Red_Circle_Chess_1.jpg,Green_Circle_Stripes_3.jpg,Purple_Triangle_Chess_4.jpg,right,945.5699999998324,true,low,false
hgGLQ1NV,38f60ialbjuvdvfa6f4is9xu20x0td,3ls2amnw5j35bgdviyh02peg3ngqob,hgGLQ1NV,2020-0188,2020-06-04,14:19:09,14:37:38,NA,incomplete,99,filling,1,1,left,Purple_Circle_Grid_3.jpg,Red_Triangle_Grid_1.jpg,Blue_Circle_Stripes_2.jpg,left,808.3750000001164,true,low,false
hgGLQ1NV,38f60ialbjuvdvfa6f4is9xu20x0td,3ls2amnw5j35bgdviyh02peg3ngqob,hgGLQ1NV,2020-0188,2020-06-04,14:19:09,14:37:38,NA,incomplete,100,filling,1,1,left,Red_Plus_Stripes_1.jpg,Green_Circle_Stripes_4.jpg,Purple_Plus_Chess_3.jpg,left,815.0949999999721,true,low,false
hgGLQ1NV,38f60ialbjuvdvfa6f4is9xu20x0td,3ls2amnw5j35bgdviyh02peg3ngqob,hgGLQ1NV,2020-0188,2020-06-04,14:19:09,14:37:38,NA,incomplete,101,filling,1,1,left,Purple_Plus_Grid_4.jpg,Red_Star_Grid_2.jpg,Green_Plus_Stripes_3.jpg,left,1269.2849999997998,true,low,false
hgGLQ1NV,38f60ialbjuvdvfa6f4is9xu20x0td,3ls2amnw5j35bgdviyh02peg3ngqob,hgGLQ1NV,2020-0188,2020-06-04,14:19:09,14:37:38,NA,incomplete,102,filling,1,1,right,Green_Star_Chess_1.jpg,Blue_Star_Stripes_2.jpg,Purple_Circle_Chess_4.jpg,right,1021.1699999999255,true,low,false
hgGLQ1NV,38f60ialbjuvdvfa6f4is9xu20x0td,3ls2amnw5j35bgdviyh02peg3ngqob,hgGLQ1NV,2020-0188,2020-06-04,14:19:09,14:37:38,NA,incomplete,103,filling,1,0,left,Purple_Circle_Stripes_4.jpg,Red_Plus_Stripes_3.jpg,Green_Circle_Dots_2.jpg,left,921.8399999999674,true,low,false
hgGLQ1NV,38f60ialbjuvdvfa6f4is9xu20x0td,3ls2amnw5j35bgdviyh02peg3ngqob,hgGLQ1NV,2020-0188,2020-06-04,14:19:09,14:37:38,NA,incomplete,104,filling,1,1,right,Purple_Plus_Dots_3.jpg,Blue_Plus_Grid_2.jpg,Red_Star_Dots_1.jpg,right,1028.3149999999441,true,low,false
hgGLQ1NV,38f60ialbjuvdvfa6f4is9xu20x0td,3ls2amnw5j35bgdviyh02peg3ngqob,hgGLQ1NV,2020-0188,2020-06-04,14:19:09,14:37:38,NA,incomplete,105,filling,1,0,left,Red_Triangle_Chess_3.jpg,Blue_Circle_Chess_4.jpg,Purple_Triangle_Dots_1.jpg,left,837.2700000000186,true,low,false
hgGLQ1NV,38f60ialbjuvdvfa6f4is9xu20x0td,3ls2amnw5j35bgdviyh02peg3ngqob,hgGLQ1NV,2020-0188,2020-06-04,14:19:09,14:37:38,NA,incomplete,106,filling,1,1,right,Blue_Star_Stripes_3.jpg,Red_Star_Chess_4.jpg,Purple_Triangle_Stripes_1.jpg,left,564.8399999999674,false,low,false
hgGLQ1NV,38f60ialbjuvdvfa6f4is9xu20x0td,3ls2amnw5j35bgdviyh02peg3ngqob,hgGLQ1NV,2020-0188,2020-06-04,14:19:09,14:37:38,NA,incomplete,107,filling,1,1,right,Purple_Triangle_Chess_2.jpg,Red_Triangle_Grid_3.jpg,Blue_Plus_Chess_4.jpg,right,792.2900000003865,true,low,false
hgGLQ1NV,38f60ialbjuvdvfa6f4is9xu20x0td,3ls2amnw5j35bgdviyh02peg3ngqob,hgGLQ1NV,2020-0188,2020-06-04,14:19:09,14:37:38,NA,incomplete,108,filling,1,1,right,Red_Star_Stripes_4.jpg,Purple_Star_Grid_3.jpg,Green_Plus_Stripes_1.jpg,right,1000.1499999997905,true,low,false
hgGLQ1NV,38f60ialbjuvdvfa6f4is9xu20x0td,3ls2amnw5j35bgdviyh02peg3ngqob,hgGLQ1NV,2020-0188,2020-06-04,14:19:09,14:37:38,NA,incomplete,109,filling,1,1,right,Blue_Triangle_Stripes_3.jpg,Purple_Triangle_Chess_2.jpg,Green_Circle_Stripes_4.jpg,right,847.6100000002189,true,low,false
hgGLQ1NV,38f60ialbjuvdvfa6f4is9xu20x0td,3ls2amnw5j35bgdviyh02peg3ngqob,hgGLQ1NV,2020-0188,2020-06-04,14:19:09,14:37:38,NA,incomplete,110,filling,1,1,right,Green_Triangle_Grid_4.jpg,Purple_Triangle_Chess_3.jpg,Red_Star_Grid_1.jpg,right,1034.7050000000745,true,low,false
hgGLQ1NV,38f60ialbjuvdvfa6f4is9xu20x0td,3ls2amnw5j35bgdviyh02peg3ngqob,hgGLQ1NV,2020-0188,2020-06-04,14:19:09,14:37:38,NA,incomplete,111,filling,1,0,left,Purple_Triangle_Grid_2.jpg,Red_Plus_Grid_3.jpg,Green_Triangle_Stripes_4.jpg,left,872.1399999998976,true,low,false
hgGLQ1NV,38f60ialbjuvdvfa6f4is9xu20x0td,3ls2amnw5j35bgdviyh02peg3ngqob,hgGLQ1NV,2020-0188,2020-06-04,14:19:09,14:37:38,NA,incomplete,112,filling,1,1,right,Blue_Triangle_Stripes_2.jpg,Purple_Triangle_Dots_4.jpg,Green_Circle_Stripes_1.jpg,right,1134.6950000001816,true,low,false
hgGLQ1NV,38f60ialbjuvdvfa6f4is9xu20x0td,3ls2amnw5j35bgdviyh02peg3ngqob,hgGLQ1NV,2020-0188,2020-06-04,14:19:09,14:37:38,NA,incomplete,113,filling,1,1,right,Red_Plus_Chess_2.jpg,Blue_Plus_Grid_1.jpg,Purple_Star_Chess_4.jpg,right,904.3050000000512,true,low,false
hgGLQ1NV,38f60ialbjuvdvfa6f4is9xu20x0td,3ls2amnw5j35bgdviyh02peg3ngqob,hgGLQ1NV,2020-0188,2020-06-04,14:19:09,14:37:38,NA,incomplete,114,filling,1,1,left,Blue_Triangle_Stripes_4.jpg,Purple_Star_Stripes_2.jpg,Red_Triangle_Dots_3.jpg,left,1079.5100000000093,true,low,false
hgGLQ1NV,38f60ialbjuvdvfa6f4is9xu20x0td,3ls2amnw5j35bgdviyh02peg3ngqob,hgGLQ1NV,2020-0188,2020-06-04,14:19:09,14:37:38,NA,incomplete,115,filling,1,1,left,Blue_Triangle_Chess_3.jpg,Purple_Circle_Chess_2.jpg,Green_Triangle_Grid_4.jpg,left,1192.8400000002002,true,low,false
hgGLQ1NV,38f60ialbjuvdvfa6f4is9xu20x0td,3ls2amnw5j35bgdviyh02peg3ngqob,hgGLQ1NV,2020-0188,2020-06-04,14:19:09,14:37:38,NA,incomplete,116,filling,1,1,left,Red_Plus_Grid_3.jpg,Purple_Circle_Grid_1.jpg,Blue_Plus_Dots_2.jpg,left,1110.1800000001676,true,low,false
hgGLQ1NV,38f60ialbjuvdvfa6f4is9xu20x0td,3ls2amnw5j35bgdviyh02peg3ngqob,hgGLQ1NV,2020-0188,2020-06-04,14:19:09,14:37:38,NA,incomplete,117,filling,1,1,right,Purple_Triangle_Chess_1.jpg,Green_Triangle_Dots_3.jpg,Blue_Star_Chess_4.jpg,right,857.9349999999395,true,low,false
hgGLQ1NV,38f60ialbjuvdvfa6f4is9xu20x0td,3ls2amnw5j35bgdviyh02peg3ngqob,hgGLQ1NV,2020-0188,2020-06-04,14:19:09,14:37:38,NA,incomplete,118,filling,1,1,left,Blue_Circle_Dots_3.jpg,Purple_Star_Dots_2.jpg,Green_Circle_Stripes_1.jpg,left,983.0299999999115,true,low,false
hgGLQ1NV,38f60ialbjuvdvfa6f4is9xu20x0td,3ls2amnw5j35bgdviyh02peg3ngqob,hgGLQ1NV,2020-0188,2020-06-04,14:19:09,14:37:38,NA,incomplete,119,filling,1,1,left,Blue_Star_Stripes_4.jpg,Purple_Triangle_Stripes_1.jpg,Red_Star_Chess_2.jpg,left,826.820000000298,true,low,false
hgGLQ1NV,38f60ialbjuvdvfa6f4is9xu20x0td,3ls2amnw5j35bgdviyh02peg3ngqob,hgGLQ1NV,2020-0188,2020-06-04,14:19:09,14:37:38,NA,incomplete,120,race,2,1,right,C_F_06.jpg,A_F_16.jpg,C_M_09.jpg,NA,NA,NA,low,false
hgGLQ1NV,38f60ialbjuvdvfa6f4is9xu20x0td,3ls2amnw5j35bgdviyh02peg3ngqob,hgGLQ1NV,2020-0188,2020-06-04,14:19:09,14:37:38,NA,incomplete,121,race,2,1,right,C_M_09.jpg,A_M_01.jpg,C_F_12.jpg,right,1328.6300000000047,true,low,false
hgGLQ1NV,38f60ialbjuvdvfa6f4is9xu20x0td,3ls2amnw5j35bgdviyh02peg3ngqob,hgGLQ1NV,2020-0188,2020-06-04,14:19:09,14:37:38,NA,incomplete,122,race,2,1,right,C_M_09.jpg,A_M_08.jpg,C_F_12.jpg,right,784.5450000003912,true,low,false
hgGLQ1NV,38f60ialbjuvdvfa6f4is9xu20x0td,3ls2amnw5j35bgdviyh02peg3ngqob,hgGLQ1NV,2020-0188,2020-06-04,14:19:09,14:37:38,NA,incomplete,123,race,2,1,right,C_F_11.jpg,A_F_15.jpg,C_M_07.jpg,left,1884.0899999999674,false,low,false
hgGLQ1NV,38f60ialbjuvdvfa6f4is9xu20x0td,3ls2amnw5j35bgdviyh02peg3ngqob,hgGLQ1NV,2020-0188,2020-06-04,14:19:09,14:37:38,NA,incomplete,124,race,2,0,right,A_F_13.jpg,C_F_10.jpg,A_M_06.jpg,right,1099.0150000002468,true,low,false
hgGLQ1NV,38f60ialbjuvdvfa6f4is9xu20x0td,3ls2amnw5j35bgdviyh02peg3ngqob,hgGLQ1NV,2020-0188,2020-06-04,14:19:09,14:37:38,NA,incomplete,125,race,2,1,right,A_F_15.jpg,C_F_04.jpg,A_M_02.jpg,right,1848.9650000000838,true,low,false
hgGLQ1NV,38f60ialbjuvdvfa6f4is9xu20x0td,3ls2amnw5j35bgdviyh02peg3ngqob,hgGLQ1NV,2020-0188,2020-06-04,14:19:09,14:37:38,NA,incomplete,126,race,2,1,right,A_M_11.jpg,C_M_08.jpg,A_F_15.jpg,right,905.6449999997858,true,low,false
hgGLQ1NV,38f60ialbjuvdvfa6f4is9xu20x0td,3ls2amnw5j35bgdviyh02peg3ngqob,hgGLQ1NV,2020-0188,2020-06-04,14:19:09,14:37:38,NA,incomplete,127,race,2,1,right,C_M_06.jpg,A_M_03.jpg,C_F_07.jpg,left,798.0450000000419,false,low,false
hgGLQ1NV,38f60ialbjuvdvfa6f4is9xu20x0td,3ls2amnw5j35bgdviyh02peg3ngqob,hgGLQ1NV,2020-0188,2020-06-04,14:19:09,14:37:38,NA,incomplete,128,race,2,1,left,A_F_06.jpg,A_M_12.jpg,C_F_07.jpg,left,1288.9500000000698,true,low,false
hgGLQ1NV,38f60ialbjuvdvfa6f4is9xu20x0td,3ls2amnw5j35bgdviyh02peg3ngqob,hgGLQ1NV,2020-0188,2020-06-04,14:19:09,14:37:38,NA,incomplete,129,race,2,1,right,C_F_02.jpg,A_F_07.jpg,C_M_11.jpg,right,862.5300000003772,true,low,false
hgGLQ1NV,38f60ialbjuvdvfa6f4is9xu20x0td,3ls2amnw5j35bgdviyh02peg3ngqob,hgGLQ1NV,2020-0188,2020-06-04,14:19:09,14:37:38,NA,incomplete,130,race,2,1,right,C_F_12.jpg,A_F_05.jpg,C_M_15.jpg,right,1260.4299999998184,true,low,false
hgGLQ1NV,38f60ialbjuvdvfa6f4is9xu20x0td,3ls2amnw5j35bgdviyh02peg3ngqob,hgGLQ1NV,2020-0188,2020-06-04,14:19:09,14:37:38,NA,incomplete,131,race,2,1,left,C_M_04.jpg,C_F_06.jpg,A_M_12.jpg,left,1151.6550000001444,true,low,false
hgGLQ1NV,38f60ialbjuvdvfa6f4is9xu20x0td,3ls2amnw5j35bgdviyh02peg3ngqob,hgGLQ1NV,2020-0188,2020-06-04,14:19:09,14:37:38,NA,incomplete,132,race,2,1,right,A_F_16.jpg,C_F_11.jpg,A_M_04.jpg,right,797.6800000001676,true,low,false
hgGLQ1NV,38f60ialbjuvdvfa6f4is9xu20x0td,3ls2amnw5j35bgdviyh02peg3ngqob,hgGLQ1NV,2020-0188,2020-06-04,14:19:09,14:37:38,NA,incomplete,133,race,2,0,left,A_F_11.jpg,A_M_04.jpg,C_F_02.jpg,left,584.3300000001909,true,low,false
hgGLQ1NV,38f60ialbjuvdvfa6f4is9xu20x0td,3ls2amnw5j35bgdviyh02peg3ngqob,hgGLQ1NV,2020-0188,2020-06-04,14:19:09,14:37:38,NA,incomplete,134,race,2,1,left,A_M_06.jpg,A_F_02.jpg,C_M_16.jpg,left,943.940000000177,true,low,false
hgGLQ1NV,38f60ialbjuvdvfa6f4is9xu20x0td,3ls2amnw5j35bgdviyh02peg3ngqob,hgGLQ1NV,2020-0188,2020-06-04,14:19:09,14:37:38,NA,incomplete,135,race,2,1,left,C_F_01.jpg,C_M_13.jpg,A_F_07.jpg,left,1241.2750000003725,true,low,false
hgGLQ1NV,38f60ialbjuvdvfa6f4is9xu20x0td,3ls2amnw5j35bgdviyh02peg3ngqob,hgGLQ1NV,2020-0188,2020-06-04,14:19:09,14:37:38,NA,incomplete,136,race,2,0,right,A_F_13.jpg,C_F_07.jpg,A_M_04.jpg,right,754.1999999999534,true,low,false
hgGLQ1NV,38f60ialbjuvdvfa6f4is9xu20x0td,3ls2amnw5j35bgdviyh02peg3ngqob,hgGLQ1NV,2020-0188,2020-06-04,14:19:09,14:37:38,NA,incomplete,137,race,2,1,left,C_M_12.jpg,C_F_08.jpg,A_M_13.jpg,left,703.9699999996228,true,low,false
hgGLQ1NV,38f60ialbjuvdvfa6f4is9xu20x0td,3ls2amnw5j35bgdviyh02peg3ngqob,hgGLQ1NV,2020-0188,2020-06-04,14:19:09,14:37:38,NA,incomplete,138,race,2,1,left,A_F_09.jpg,A_M_11.jpg,C_F_01.jpg,left,1423.0999999999767,true,low,false
hgGLQ1NV,38f60ialbjuvdvfa6f4is9xu20x0td,3ls2amnw5j35bgdviyh02peg3ngqob,hgGLQ1NV,2020-0188,2020-06-04,14:19:09,14:37:38,NA,incomplete,139,race,2,1,left,A_F_10.jpg,A_M_09.jpg,C_F_05.jpg,left,697.5299999999115,true,low,false
hgGLQ1NV,38f60ialbjuvdvfa6f4is9xu20x0td,3ls2amnw5j35bgdviyh02peg3ngqob,hgGLQ1NV,2020-0188,2020-06-04,14:19:09,14:37:38,NA,incomplete,140,gender,3,0,left,C_F_01.jpg,A_F_16.jpg,C_M_14.jpg,right,824.6900000004098,false,low,false
hgGLQ1NV,38f60ialbjuvdvfa6f4is9xu20x0td,3ls2amnw5j35bgdviyh02peg3ngqob,hgGLQ1NV,2020-0188,2020-06-04,14:19:09,14:37:38,NA,incomplete,141,gender,3,1,left,A_M_05.jpg,C_M_03.jpg,A_F_12.jpg,right,875.8600000001024,false,low,false
hgGLQ1NV,38f60ialbjuvdvfa6f4is9xu20x0td,3ls2amnw5j35bgdviyh02peg3ngqob,hgGLQ1NV,2020-0188,2020-06-04,14:19:09,14:37:38,NA,incomplete,142,gender,3,0,left,C_M_14.jpg,A_M_07.jpg,C_F_12.jpg,right,814.5199999999022,false,low,false
hgGLQ1NV,38f60ialbjuvdvfa6f4is9xu20x0td,3ls2amnw5j35bgdviyh02peg3ngqob,hgGLQ1NV,2020-0188,2020-06-04,14:19:09,14:37:38,NA,incomplete,143,gender,3,1,right,A_F_14.jpg,A_M_11.jpg,C_F_06.jpg,left,673.4749999999767,false,low,false
hgGLQ1NV,38f60ialbjuvdvfa6f4is9xu20x0td,3ls2amnw5j35bgdviyh02peg3ngqob,hgGLQ1NV,2020-0188,2020-06-04,14:19:09,14:37:38,NA,incomplete,144,gender,3,0,left,C_F_02.jpg,A_F_15.jpg,C_M_10.jpg,right,1077.91500000027,false,low,false
hgGLQ1NV,38f60ialbjuvdvfa6f4is9xu20x0td,3ls2amnw5j35bgdviyh02peg3ngqob,hgGLQ1NV,2020-0188,2020-06-04,14:19:09,14:37:38,NA,incomplete,145,gender,3,1,right,C_F_04.jpg,C_M_14.jpg,A_F_13.jpg,left,696.1299999997718,false,low,false
hgGLQ1NV,38f60ialbjuvdvfa6f4is9xu20x0td,3ls2amnw5j35bgdviyh02peg3ngqob,hgGLQ1NV,2020-0188,2020-06-04,14:19:09,14:37:38,NA,incomplete,146,gender,3,0,right,C_M_05.jpg,C_F_07.jpg,A_M_03.jpg,right,912.8300000001909,true,low,false
hgGLQ1NV,38f60ialbjuvdvfa6f4is9xu20x0td,3ls2amnw5j35bgdviyh02peg3ngqob,hgGLQ1NV,2020-0188,2020-06-04,14:19:09,14:37:38,NA,incomplete,147,gender,3,1,left,C_M_11.jpg,A_M_04.jpg,C_F_01.jpg,right,1187.6400000001304,false,low,false
hgGLQ1NV,38f60ialbjuvdvfa6f4is9xu20x0td,3ls2amnw5j35bgdviyh02peg3ngqob,hgGLQ1NV,2020-0188,2020-06-04,14:19:09,14:37:38,NA,incomplete,148,gender,3,0,right,A_M_04.jpg,A_F_07.jpg,C_M_08.jpg,right,994.4500000001863,true,low,false
hgGLQ1NV,38f60ialbjuvdvfa6f4is9xu20x0td,3ls2amnw5j35bgdviyh02peg3ngqob,hgGLQ1NV,2020-0188,2020-06-04,14:19:09,14:37:38,NA,incomplete,149,gender,3,1,left,C_F_12.jpg,A_F_05.jpg,C_M_13.jpg,left,1093.5899999999674,true,low,false
hgGLQ1NV,38f60ialbjuvdvfa6f4is9xu20x0td,3ls2amnw5j35bgdviyh02peg3ngqob,hgGLQ1NV,2020-0188,2020-06-04,14:19:09,14:37:38,NA,incomplete,150,gender,3,1,right,C_F_11.jpg,C_M_15.jpg,A_F_01.jpg,right,819.4700000003213,true,low,false
hgGLQ1NV,38f60ialbjuvdvfa6f4is9xu20x0td,3ls2amnw5j35bgdviyh02peg3ngqob,hgGLQ1NV,2020-0188,2020-06-04,14:19:09,14:37:38,NA,incomplete,151,gender,3,0,left,C_F_07.jpg,A_F_04.jpg,C_M_12.jpg,left,732.1799999999348,true,low,false
hgGLQ1NV,38f60ialbjuvdvfa6f4is9xu20x0td,3ls2amnw5j35bgdviyh02peg3ngqob,hgGLQ1NV,2020-0188,2020-06-04,14:19:09,14:37:38,NA,incomplete,152,gender,3,1,left,C_F_08.jpg,A_F_13.jpg,C_M_14.jpg,left,1098.484999999986,true,low,false
hgGLQ1NV,38f60ialbjuvdvfa6f4is9xu20x0td,3ls2amnw5j35bgdviyh02peg3ngqob,hgGLQ1NV,2020-0188,2020-06-04,14:19:09,14:37:38,NA,incomplete,153,gender,3,1,right,A_F_10.jpg,A_M_01.jpg,C_F_05.jpg,right,797.4099999996834,true,low,false
hgGLQ1NV,38f60ialbjuvdvfa6f4is9xu20x0td,3ls2amnw5j35bgdviyh02peg3ngqob,hgGLQ1NV,2020-0188,2020-06-04,14:19:09,14:37:38,NA,incomplete,154,gender,3,1,left,C_F_13.jpg,A_F_11.jpg,C_M_16.jpg,left,837.7599999998929,true,low,false
hgGLQ1NV,38f60ialbjuvdvfa6f4is9xu20x0td,3ls2amnw5j35bgdviyh02peg3ngqob,hgGLQ1NV,2020-0188,2020-06-04,14:19:09,14:37:38,NA,incomplete,155,gender,3,1,right,A_F_12.jpg,A_M_01.jpg,C_F_05.jpg,right,1038.234999999986,true,low,false
hgGLQ1NV,38f60ialbjuvdvfa6f4is9xu20x0td,3ls2amnw5j35bgdviyh02peg3ngqob,hgGLQ1NV,2020-0188,2020-06-04,14:19:09,14:37:38,NA,incomplete,156,gender,3,1,left,A_F_11.jpg,C_F_10.jpg,A_M_16.jpg,left,586.6700000001583,true,low,false
hgGLQ1NV,38f60ialbjuvdvfa6f4is9xu20x0td,3ls2amnw5j35bgdviyh02peg3ngqob,hgGLQ1NV,2020-0188,2020-06-04,14:19:09,14:37:38,NA,incomplete,157,gender,3,1,right,A_F_16.jpg,A_M_03.jpg,C_F_12.jpg,right,692.234999999986,true,low,false
hgGLQ1NV,38f60ialbjuvdvfa6f4is9xu20x0td,3ls2amnw5j35bgdviyh02peg3ngqob,hgGLQ1NV,2020-0188,2020-06-04,14:19:09,14:37:38,NA,incomplete,158,gender,3,0,left,A_M_11.jpg,C_M_13.jpg,A_F_02.jpg,left,1019.5849999999627,true,low,false
hgGLQ1NV,38f60ialbjuvdvfa6f4is9xu20x0td,3ls2amnw5j35bgdviyh02peg3ngqob,hgGLQ1NV,2020-0188,2020-06-04,14:19:09,14:37:38,NA,incomplete,159,gender,3,1,left,C_M_03.jpg,A_M_12.jpg,C_F_09.jpg,left,843.6499999997905,true,low,false
hgGLQ1NV,38f60ialbjuvdvfa6f4is9xu20x0td,3ls2amnw5j35bgdviyh02peg3ngqob,hgGLQ1NV,2020-0188,2020-06-04,14:19:09,14:37:38,NA,incomplete,160,race,2,1,left,A_F_09.jpg,A_M_08.jpg,C_F_13.jpg,right,1137.949999999837,false,low,false
hgGLQ1NV,38f60ialbjuvdvfa6f4is9xu20x0td,3ls2amnw5j35bgdviyh02peg3ngqob,hgGLQ1NV,2020-0188,2020-06-04,14:19:09,14:37:38,NA,incomplete,161,race,2,0,left,A_F_05.jpg,A_M_15.jpg,C_F_11.jpg,right,1217.9550000000745,false,low,false
hgGLQ1NV,38f60ialbjuvdvfa6f4is9xu20x0td,3ls2amnw5j35bgdviyh02peg3ngqob,hgGLQ1NV,2020-0188,2020-06-04,14:19:09,14:37:38,NA,incomplete,162,race,2,1,right,A_M_15.jpg,C_M_14.jpg,A_F_07.jpg,left,706.3699999998789,false,low,false
hgGLQ1NV,38f60ialbjuvdvfa6f4is9xu20x0td,3ls2amnw5j35bgdviyh02peg3ngqob,hgGLQ1NV,2020-0188,2020-06-04,14:19:09,14:37:38,NA,incomplete,163,race,2,1,left,A_F_12.jpg,A_M_03.jpg,C_F_07.jpg,right,733.1899999998277,false,low,false
hgGLQ1NV,38f60ialbjuvdvfa6f4is9xu20x0td,3ls2amnw5j35bgdviyh02peg3ngqob,hgGLQ1NV,2020-0188,2020-06-04,14:19:09,14:37:38,NA,incomplete,164,race,2,0,left,A_M_13.jpg,A_F_02.jpg,C_M_01.jpg,left,771.9900000002235,true,low,false
hgGLQ1NV,38f60ialbjuvdvfa6f4is9xu20x0td,3ls2amnw5j35bgdviyh02peg3ngqob,hgGLQ1NV,2020-0188,2020-06-04,14:19:09,14:37:38,NA,incomplete,165,race,2,1,right,A_M_01.jpg,C_M_06.jpg,A_F_16.jpg,right,974.1500000000233,true,low,false
hgGLQ1NV,38f60ialbjuvdvfa6f4is9xu20x0td,3ls2amnw5j35bgdviyh02peg3ngqob,hgGLQ1NV,2020-0188,2020-06-04,14:19:09,14:37:38,NA,incomplete,166,race,2,1,left,C_M_03.jpg,C_F_16.jpg,A_M_10.jpg,right,1313.6350000000093,false,low,false
hgGLQ1NV,38f60ialbjuvdvfa6f4is9xu20x0td,3ls2amnw5j35bgdviyh02peg3ngqob,hgGLQ1NV,2020-0188,2020-06-04,14:19:09,14:37:38,NA,incomplete,167,race,2,1,left,C_M_15.jpg,C_F_10.jpg,A_M_14.jpg,left,770.550000000163,true,low,false
hgGLQ1NV,38f60ialbjuvdvfa6f4is9xu20x0td,3ls2amnw5j35bgdviyh02peg3ngqob,hgGLQ1NV,2020-0188,2020-06-04,14:19:09,14:37:38,NA,incomplete,168,race,2,1,right,A_M_04.jpg,C_M_05.jpg,A_F_11.jpg,right,921.0199999997858,true,low,false
hgGLQ1NV,38f60ialbjuvdvfa6f4is9xu20x0td,3ls2amnw5j35bgdviyh02peg3ngqob,hgGLQ1NV,2020-0188,2020-06-04,14:19:09,14:37:38,NA,incomplete,169,race,2,1,right,C_M_10.jpg,A_M_13.jpg,C_F_08.jpg,right,945.305000000284,true,low,false
hgGLQ1NV,38f60ialbjuvdvfa6f4is9xu20x0td,3ls2amnw5j35bgdviyh02peg3ngqob,hgGLQ1NV,2020-0188,2020-06-04,14:19:09,14:37:38,NA,incomplete,170,race,2,0,right,C_M_11.jpg,A_M_14.jpg,C_F_07.jpg,right,869.4550000000745,true,low,false
hgGLQ1NV,38f60ialbjuvdvfa6f4is9xu20x0td,3ls2amnw5j35bgdviyh02peg3ngqob,hgGLQ1NV,2020-0188,2020-06-04,14:19:09,14:37:38,NA,incomplete,171,race,2,1,left,A_F_04.jpg,A_M_09.jpg,C_F_14.jpg,left,1494.329999999958,true,low,false
hgGLQ1NV,38f60ialbjuvdvfa6f4is9xu20x0td,3ls2amnw5j35bgdviyh02peg3ngqob,hgGLQ1NV,2020-0188,2020-06-04,14:19:09,14:37:38,NA,incomplete,172,race,2,0,right,C_M_06.jpg,A_M_10.jpg,C_F_15.jpg,right,935.4950000002282,true,low,false
hgGLQ1NV,38f60ialbjuvdvfa6f4is9xu20x0td,3ls2amnw5j35bgdviyh02peg3ngqob,hgGLQ1NV,2020-0188,2020-06-04,14:19:09,14:37:38,NA,incomplete,173,race,2,1,left,A_F_12.jpg,A_M_02.jpg,C_F_11.jpg,left,1518.234999999986,true,low,false
hgGLQ1NV,38f60ialbjuvdvfa6f4is9xu20x0td,3ls2amnw5j35bgdviyh02peg3ngqob,hgGLQ1NV,2020-0188,2020-06-04,14:19:09,14:37:38,NA,incomplete,174,race,2,0,right,C_F_07.jpg,A_F_12.jpg,C_M_05.jpg,right,1312.6350000002421,true,low,false
hgGLQ1NV,38f60ialbjuvdvfa6f4is9xu20x0td,3ls2amnw5j35bgdviyh02peg3ngqob,hgGLQ1NV,2020-0188,2020-06-04,14:19:09,14:37:38,NA,incomplete,175,race,2,1,right,A_F_02.jpg,C_F_01.jpg,A_M_10.jpg,right,1051.1649999999208,true,low,false
hgGLQ1NV,38f60ialbjuvdvfa6f4is9xu20x0td,3ls2amnw5j35bgdviyh02peg3ngqob,hgGLQ1NV,2020-0188,2020-06-04,14:19:09,14:37:38,NA,incomplete,176,race,2,1,left,A_F_03.jpg,A_M_11.jpg,C_F_10.jpg,left,699.234999999986,true,low,false
hgGLQ1NV,38f60ialbjuvdvfa6f4is9xu20x0td,3ls2amnw5j35bgdviyh02peg3ngqob,hgGLQ1NV,2020-0188,2020-06-04,14:19:09,14:37:38,NA,incomplete,177,race,2,1,left,A_M_16.jpg,A_F_01.jpg,C_M_08.jpg,left,991.4350000002887,true,low,false
hgGLQ1NV,38f60ialbjuvdvfa6f4is9xu20x0td,3ls2amnw5j35bgdviyh02peg3ngqob,hgGLQ1NV,2020-0188,2020-06-04,14:19:09,14:37:38,NA,incomplete,178,race,2,1,right,A_M_08.jpg,C_M_10.jpg,A_F_01.jpg,right,744.1250000001164,true,low,false
hgGLQ1NV,38f60ialbjuvdvfa6f4is9xu20x0td,3ls2amnw5j35bgdviyh02peg3ngqob,hgGLQ1NV,2020-0188,2020-06-04,14:19:09,14:37:38,NA,incomplete,179,race,2,1,right,A_F_04.jpg,C_F_09.jpg,A_M_14.jpg,right,819.5749999999534,true,low,false
hgGLQ1NV,38f60ialbjuvdvfa6f4is9xu20x0td,3ls2amnw5j35bgdviyh02peg3ngqob,hgGLQ1NV,2020-0188,2020-06-04,14:19:09,14:37:38,NA,incomplete,180,gender,3,1,left,A_M_15.jpg,C_M_05.jpg,A_F_10.jpg,right,722.9700000003213,false,low,false
hgGLQ1NV,38f60ialbjuvdvfa6f4is9xu20x0td,3ls2amnw5j35bgdviyh02peg3ngqob,hgGLQ1NV,2020-0188,2020-06-04,14:19:09,14:37:38,NA,incomplete,181,gender,3,1,left,C_M_14.jpg,A_M_02.jpg,C_F_03.jpg,right,634.3549999996321,false,low,false
hgGLQ1NV,38f60ialbjuvdvfa6f4is9xu20x0td,3ls2amnw5j35bgdviyh02peg3ngqob,hgGLQ1NV,2020-0188,2020-06-04,14:19:09,14:37:38,NA,incomplete,182,gender,3,1,left,A_F_14.jpg,C_F_06.jpg,A_M_03.jpg,left,632.2049999998417,true,low,false
hgGLQ1NV,38f60ialbjuvdvfa6f4is9xu20x0td,3ls2amnw5j35bgdviyh02peg3ngqob,hgGLQ1NV,2020-0188,2020-06-04,14:19:09,14:37:38,NA,incomplete,183,gender,3,1,left,A_F_15.jpg,C_F_13.jpg,A_M_08.jpg,left,599.7499999997672,true,low,false
hgGLQ1NV,38f60ialbjuvdvfa6f4is9xu20x0td,3ls2amnw5j35bgdviyh02peg3ngqob,hgGLQ1NV,2020-0188,2020-06-04,14:19:09,14:37:38,NA,incomplete,184,gender,3,1,left,C_M_14.jpg,A_M_06.jpg,C_F_16.jpg,right,617.445000000298,false,low,false
hgGLQ1NV,38f60ialbjuvdvfa6f4is9xu20x0td,3ls2amnw5j35bgdviyh02peg3ngqob,hgGLQ1NV,2020-0188,2020-06-04,14:19:09,14:37:38,NA,incomplete,185,gender,3,1,left,A_F_13.jpg,C_F_09.jpg,A_M_06.jpg,right,640.7099999997299,false,low,false
hgGLQ1NV,38f60ialbjuvdvfa6f4is9xu20x0td,3ls2amnw5j35bgdviyh02peg3ngqob,hgGLQ1NV,2020-0188,2020-06-04,14:19:09,14:37:38,NA,incomplete,186,gender,3,1,right,A_M_03.jpg,A_F_09.jpg,C_M_05.jpg,right,668.2600000003586,true,low,false
hgGLQ1NV,38f60ialbjuvdvfa6f4is9xu20x0td,3ls2amnw5j35bgdviyh02peg3ngqob,hgGLQ1NV,2020-0188,2020-06-04,14:19:09,14:37:38,NA,incomplete,187,gender,3,0,left,C_M_10.jpg,A_M_13.jpg,C_F_14.jpg,left,768.5849999997299,true,low,false
hgGLQ1NV,38f60ialbjuvdvfa6f4is9xu20x0td,3ls2amnw5j35bgdviyh02peg3ngqob,hgGLQ1NV,2020-0188,2020-06-04,14:19:09,14:37:38,NA,incomplete,188,gender,3,1,left,C_M_04.jpg,A_M_14.jpg,C_F_09.jpg,left,760.5400000001537,true,low,false
hgGLQ1NV,38f60ialbjuvdvfa6f4is9xu20x0td,3ls2amnw5j35bgdviyh02peg3ngqob,hgGLQ1NV,2020-0188,2020-06-04,14:19:09,14:37:38,NA,incomplete,189,gender,3,1,left,C_M_12.jpg,A_M_15.jpg,C_F_07.jpg,left,733.2000000001863,true,low,false
hgGLQ1NV,38f60ialbjuvdvfa6f4is9xu20x0td,3ls2amnw5j35bgdviyh02peg3ngqob,hgGLQ1NV,2020-0188,2020-06-04,14:19:09,14:37:38,NA,incomplete,190,gender,3,1,right,C_F_12.jpg,C_M_09.jpg,A_F_14.jpg,right,763.7799999996787,true,low,false
hgGLQ1NV,38f60ialbjuvdvfa6f4is9xu20x0td,3ls2amnw5j35bgdviyh02peg3ngqob,hgGLQ1NV,2020-0188,2020-06-04,14:19:09,14:37:38,NA,incomplete,191,gender,3,1,right,C_M_08.jpg,C_F_14.jpg,A_M_03.jpg,right,689.0100000001257,true,low,false
hgGLQ1NV,38f60ialbjuvdvfa6f4is9xu20x0td,3ls2amnw5j35bgdviyh02peg3ngqob,hgGLQ1NV,2020-0188,2020-06-04,14:19:09,14:37:38,NA,incomplete,192,gender,3,1,right,A_F_01.jpg,A_M_10.jpg,C_F_16.jpg,right,691.7199999997392,true,low,false
hgGLQ1NV,38f60ialbjuvdvfa6f4is9xu20x0td,3ls2amnw5j35bgdviyh02peg3ngqob,hgGLQ1NV,2020-0188,2020-06-04,14:19:09,14:37:38,NA,incomplete,193,gender,3,1,right,C_M_10.jpg,C_F_15.jpg,A_M_01.jpg,right,850.199999999837,true,low,false
hgGLQ1NV,38f60ialbjuvdvfa6f4is9xu20x0td,3ls2amnw5j35bgdviyh02peg3ngqob,hgGLQ1NV,2020-0188,2020-06-04,14:19:09,14:37:38,NA,incomplete,194,gender,3,0,left,C_M_06.jpg,A_M_04.jpg,C_F_01.jpg,left,553.4800000000978,true,low,false
hgGLQ1NV,38f60ialbjuvdvfa6f4is9xu20x0td,3ls2amnw5j35bgdviyh02peg3ngqob,hgGLQ1NV,2020-0188,2020-06-04,14:19:09,14:37:38,NA,incomplete,195,gender,3,1,right,A_F_14.jpg,A_M_08.jpg,C_F_10.jpg,right,601.7000000001863,true,low,false
hgGLQ1NV,38f60ialbjuvdvfa6f4is9xu20x0td,3ls2amnw5j35bgdviyh02peg3ngqob,hgGLQ1NV,2020-0188,2020-06-04,14:19:09,14:37:38,NA,incomplete,196,gender,3,1,right,A_F_16.jpg,A_M_15.jpg,C_F_14.jpg,left,689.8950000000186,false,low,false
hgGLQ1NV,38f60ialbjuvdvfa6f4is9xu20x0td,3ls2amnw5j35bgdviyh02peg3ngqob,hgGLQ1NV,2020-0188,2020-06-04,14:19:09,14:37:38,NA,incomplete,197,gender,3,1,left,A_F_11.jpg,C_F_05.jpg,A_M_10.jpg,left,572.7099999998463,true,low,false
hgGLQ1NV,38f60ialbjuvdvfa6f4is9xu20x0td,3ls2amnw5j35bgdviyh02peg3ngqob,hgGLQ1NV,2020-0188,2020-06-04,14:19:09,14:37:38,NA,incomplete,198,gender,3,0,left,A_F_14.jpg,C_F_05.jpg,A_M_15.jpg,left,576.5800000004238,true,low,false
hgGLQ1NV,38f60ialbjuvdvfa6f4is9xu20x0td,3ls2amnw5j35bgdviyh02peg3ngqob,hgGLQ1NV,2020-0188,2020-06-04,14:19:09,14:37:38,NA,incomplete,199,gender,3,1,left,C_F_08.jpg,A_F_02.jpg,C_M_15.jpg,left,575.5849999996135,true,low,false
hgGLQ1NV,38f60ialbjuvdvfa6f4is9xu20x0td,3ls2amnw5j35bgdviyh02peg3ngqob,hgGLQ1NV,2020-0188,2020-06-04,14:19:09,14:37:38,NA,incomplete,200,race,2,1,left,C_M_05.jpg,C_F_01.jpg,A_M_11.jpg,right,659.9699999996228,false,low,false
hgGLQ1NV,38f60ialbjuvdvfa6f4is9xu20x0td,3ls2amnw5j35bgdviyh02peg3ngqob,hgGLQ1NV,2020-0188,2020-06-04,14:19:09,14:37:38,NA,incomplete,201,race,2,1,left,C_M_03.jpg,C_F_02.jpg,A_M_16.jpg,right,680.0200000002515,false,low,false
hgGLQ1NV,38f60ialbjuvdvfa6f4is9xu20x0td,3ls2amnw5j35bgdviyh02peg3ngqob,hgGLQ1NV,2020-0188,2020-06-04,14:19:09,14:37:38,NA,incomplete,202,race,2,1,left,A_F_01.jpg,A_M_08.jpg,C_F_07.jpg,right,937.2099999999627,false,low,false
hgGLQ1NV,38f60ialbjuvdvfa6f4is9xu20x0td,3ls2amnw5j35bgdviyh02peg3ngqob,hgGLQ1NV,2020-0188,2020-06-04,14:19:09,14:37:38,NA,incomplete,203,race,2,1,left,C_F_06.jpg,C_M_04.jpg,A_F_14.jpg,left,716.7200000003213,true,low,false
hgGLQ1NV,38f60ialbjuvdvfa6f4is9xu20x0td,3ls2amnw5j35bgdviyh02peg3ngqob,hgGLQ1NV,2020-0188,2020-06-04,14:19:09,14:37:38,NA,incomplete,204,race,2,1,right,C_M_05.jpg,A_M_12.jpg,C_F_03.jpg,right,1137.7950000001583,true,low,false
hgGLQ1NV,38f60ialbjuvdvfa6f4is9xu20x0td,3ls2amnw5j35bgdviyh02peg3ngqob,hgGLQ1NV,2020-0188,2020-06-04,14:19:09,14:37:38,NA,incomplete,205,race,2,1,right,C_M_04.jpg,A_M_12.jpg,C_F_10.jpg,right,1103.5750000000698,true,low,false
hgGLQ1NV,38f60ialbjuvdvfa6f4is9xu20x0td,3ls2amnw5j35bgdviyh02peg3ngqob,hgGLQ1NV,2020-0188,2020-06-04,14:19:09,14:37:38,NA,incomplete,206,race,2,1,right,A_F_04.jpg,C_F_12.jpg,A_M_16.jpg,right,677.7600000001257,true,low,false
hgGLQ1NV,38f60ialbjuvdvfa6f4is9xu20x0td,3ls2amnw5j35bgdviyh02peg3ngqob,hgGLQ1NV,2020-0188,2020-06-04,14:19:09,14:37:38,NA,incomplete,207,race,2,1,right,A_F_03.jpg,C_F_11.jpg,A_M_08.jpg,right,858.210000000312,true,low,false
hgGLQ1NV,38f60ialbjuvdvfa6f4is9xu20x0td,3ls2amnw5j35bgdviyh02peg3ngqob,hgGLQ1NV,2020-0188,2020-06-04,14:19:09,14:37:38,NA,incomplete,208,race,2,1,left,A_F_16.jpg,A_M_01.jpg,C_F_13.jpg,left,950.2800000000279,true,low,false
hgGLQ1NV,38f60ialbjuvdvfa6f4is9xu20x0td,3ls2amnw5j35bgdviyh02peg3ngqob,hgGLQ1NV,2020-0188,2020-06-04,14:19:09,14:37:38,NA,incomplete,209,race,2,1,right,A_F_12.jpg,C_F_15.jpg,A_M_03.jpg,left,881.7249999996275,false,low,false
hgGLQ1NV,38f60ialbjuvdvfa6f4is9xu20x0td,3ls2amnw5j35bgdviyh02peg3ngqob,hgGLQ1NV,2020-0188,2020-06-04,14:19:09,14:37:38,NA,incomplete,210,race,2,1,left,A_M_06.jpg,A_F_13.jpg,C_M_01.jpg,left,651.3649999996414,true,low,false
hgGLQ1NV,38f60ialbjuvdvfa6f4is9xu20x0td,3ls2amnw5j35bgdviyh02peg3ngqob,hgGLQ1NV,2020-0188,2020-06-04,14:19:09,14:37:38,NA,incomplete,211,race,2,0,left,A_F_05.jpg,A_M_08.jpg,C_F_15.jpg,left,660.0049999997718,true,low,false
hgGLQ1NV,38f60ialbjuvdvfa6f4is9xu20x0td,3ls2amnw5j35bgdviyh02peg3ngqob,hgGLQ1NV,2020-0188,2020-06-04,14:19:09,14:37:38,NA,incomplete,212,race,2,1,left,A_M_01.jpg,A_F_15.jpg,C_M_16.jpg,left,701.9899999999907,true,low,false
hgGLQ1NV,38f60ialbjuvdvfa6f4is9xu20x0td,3ls2amnw5j35bgdviyh02peg3ngqob,hgGLQ1NV,2020-0188,2020-06-04,14:19:09,14:37:38,NA,incomplete,213,race,2,1,right,A_M_10.jpg,C_M_15.jpg,A_F_08.jpg,right,1390.8200000000652,true,low,false
hgGLQ1NV,38f60ialbjuvdvfa6f4is9xu20x0td,3ls2amnw5j35bgdviyh02peg3ngqob,hgGLQ1NV,2020-0188,2020-06-04,14:19:09,14:37:38,NA,incomplete,214,race,2,1,left,C_M_10.jpg,C_F_02.jpg,A_M_16.jpg,left,609.015000000014,true,low,false
hgGLQ1NV,38f60ialbjuvdvfa6f4is9xu20x0td,3ls2amnw5j35bgdviyh02peg3ngqob,hgGLQ1NV,2020-0188,2020-06-04,14:19:09,14:37:38,NA,incomplete,215,race,2,1,right,A_F_02.jpg,C_F_06.jpg,A_M_16.jpg,right,985.9099999997998,true,low,false
hgGLQ1NV,38f60ialbjuvdvfa6f4is9xu20x0td,3ls2amnw5j35bgdviyh02peg3ngqob,hgGLQ1NV,2020-0188,2020-06-04,14:19:09,14:37:38,NA,incomplete,216,race,2,1,left,C_M_03.jpg,C_F_01.jpg,A_M_07.jpg,left,1390.5500000000466,true,low,false
hgGLQ1NV,38f60ialbjuvdvfa6f4is9xu20x0td,3ls2amnw5j35bgdviyh02peg3ngqob,hgGLQ1NV,2020-0188,2020-06-04,14:19:09,14:37:38,NA,incomplete,217,race,2,1,left,C_F_05.jpg,C_M_16.jpg,A_F_02.jpg,left,713.4550000000745,true,low,false
hgGLQ1NV,38f60ialbjuvdvfa6f4is9xu20x0td,3ls2amnw5j35bgdviyh02peg3ngqob,hgGLQ1NV,2020-0188,2020-06-04,14:19:09,14:37:38,NA,incomplete,218,race,2,1,right,A_M_05.jpg,C_M_07.jpg,A_F_13.jpg,right,743.5749999999534,true,low,false
hgGLQ1NV,38f60ialbjuvdvfa6f4is9xu20x0td,3ls2amnw5j35bgdviyh02peg3ngqob,hgGLQ1NV,2020-0188,2020-06-04,14:19:09,14:37:38,NA,incomplete,219,race,2,1,right,A_F_04.jpg,C_F_14.jpg,A_M_09.jpg,right,899.5499999996973,true,low,false
hgGLQ1NV,38f60ialbjuvdvfa6f4is9xu20x0td,3ls2amnw5j35bgdviyh02peg3ngqob,hgGLQ1NV,2020-0188,2020-06-04,14:19:09,14:37:38,NA,incomplete,220,gender,3,1,left,A_F_14.jpg,C_F_12.jpg,A_M_15.jpg,right,755.6850000001723,false,low,false
hgGLQ1NV,38f60ialbjuvdvfa6f4is9xu20x0td,3ls2amnw5j35bgdviyh02peg3ngqob,hgGLQ1NV,2020-0188,2020-06-04,14:19:09,14:37:38,NA,incomplete,221,gender,3,1,left,A_F_01.jpg,C_F_05.jpg,A_M_12.jpg,right,887.7700000002515,false,low,false
hgGLQ1NV,38f60ialbjuvdvfa6f4is9xu20x0td,3ls2amnw5j35bgdviyh02peg3ngqob,hgGLQ1NV,2020-0188,2020-06-04,14:19:09,14:37:38,NA,incomplete,222,gender,3,1,right,A_M_07.jpg,A_F_12.jpg,C_M_10.jpg,right,1262.7950000001583,true,low,false
hgGLQ1NV,38f60ialbjuvdvfa6f4is9xu20x0td,3ls2amnw5j35bgdviyh02peg3ngqob,hgGLQ1NV,2020-0188,2020-06-04,14:19:09,14:37:38,NA,incomplete,223,gender,3,0,left,C_M_10.jpg,A_M_05.jpg,C_F_09.jpg,left,777.4150000000373,true,low,false
hgGLQ1NV,38f60ialbjuvdvfa6f4is9xu20x0td,3ls2amnw5j35bgdviyh02peg3ngqob,hgGLQ1NV,2020-0188,2020-06-04,14:19:09,14:37:38,NA,incomplete,224,gender,3,1,right,A_M_07.jpg,A_F_05.jpg,C_M_06.jpg,right,637.5450000000419,true,low,false
hgGLQ1NV,38f60ialbjuvdvfa6f4is9xu20x0td,3ls2amnw5j35bgdviyh02peg3ngqob,hgGLQ1NV,2020-0188,2020-06-04,14:19:09,14:37:38,NA,incomplete,225,gender,3,1,left,A_F_12.jpg,C_F_08.jpg,A_M_05.jpg,left,703.6500000003725,true,low,false
hgGLQ1NV,38f60ialbjuvdvfa6f4is9xu20x0td,3ls2amnw5j35bgdviyh02peg3ngqob,hgGLQ1NV,2020-0188,2020-06-04,14:19:09,14:37:38,NA,incomplete,226,gender,3,1,right,C_F_02.jpg,C_M_09.jpg,A_F_08.jpg,right,694.2950000001583,true,low,false
hgGLQ1NV,38f60ialbjuvdvfa6f4is9xu20x0td,3ls2amnw5j35bgdviyh02peg3ngqob,hgGLQ1NV,2020-0188,2020-06-04,14:19:09,14:37:38,NA,incomplete,227,gender,3,0,left,A_M_10.jpg,C_M_06.jpg,A_F_15.jpg,left,1066.3200000005309,true,low,false
hgGLQ1NV,38f60ialbjuvdvfa6f4is9xu20x0td,3ls2amnw5j35bgdviyh02peg3ngqob,hgGLQ1NV,2020-0188,2020-06-04,14:19:09,14:37:38,NA,incomplete,228,gender,3,1,left,A_M_11.jpg,C_M_12.jpg,A_F_03.jpg,left,862.0399999998044,true,low,false
hgGLQ1NV,38f60ialbjuvdvfa6f4is9xu20x0td,3ls2amnw5j35bgdviyh02peg3ngqob,hgGLQ1NV,2020-0188,2020-06-04,14:19:09,14:37:38,NA,incomplete,229,gender,3,1,left,C_F_08.jpg,A_F_12.jpg,C_M_04.jpg,left,597.3400000000838,true,low,false
hgGLQ1NV,38f60ialbjuvdvfa6f4is9xu20x0td,3ls2amnw5j35bgdviyh02peg3ngqob,hgGLQ1NV,2020-0188,2020-06-04,14:19:09,14:37:38,NA,incomplete,230,gender,3,0,right,C_M_05.jpg,C_F_11.jpg,A_M_16.jpg,right,723.0699999998324,true,low,false
hgGLQ1NV,38f60ialbjuvdvfa6f4is9xu20x0td,3ls2amnw5j35bgdviyh02peg3ngqob,hgGLQ1NV,2020-0188,2020-06-04,14:19:09,14:37:38,NA,incomplete,231,gender,3,1,right,C_F_15.jpg,C_M_09.jpg,A_F_03.jpg,right,763.214999999851,true,low,false
hgGLQ1NV,38f60ialbjuvdvfa6f4is9xu20x0td,3ls2amnw5j35bgdviyh02peg3ngqob,hgGLQ1NV,2020-0188,2020-06-04,14:19:09,14:37:38,NA,incomplete,232,gender,3,1,left,A_F_13.jpg,C_F_12.jpg,A_M_07.jpg,left,638.4099999999162,true,low,false
hgGLQ1NV,38f60ialbjuvdvfa6f4is9xu20x0td,3ls2amnw5j35bgdviyh02peg3ngqob,hgGLQ1NV,2020-0188,2020-06-04,14:19:09,14:37:38,NA,incomplete,233,gender,3,0,left,A_M_08.jpg,C_M_05.jpg,A_F_01.jpg,left,738.0649999999441,true,low,false
hgGLQ1NV,38f60ialbjuvdvfa6f4is9xu20x0td,3ls2amnw5j35bgdviyh02peg3ngqob,hgGLQ1NV,2020-0188,2020-06-04,14:19:09,14:37:38,NA,incomplete,234,gender,3,1,left,A_M_15.jpg,C_M_02.jpg,A_F_03.jpg,left,824.1949999998324,true,low,false
hgGLQ1NV,38f60ialbjuvdvfa6f4is9xu20x0td,3ls2amnw5j35bgdviyh02peg3ngqob,hgGLQ1NV,2020-0188,2020-06-04,14:19:09,14:37:38,NA,incomplete,235,gender,3,1,left,C_M_16.jpg,A_M_12.jpg,C_F_13.jpg,left,637.3600000001024,true,low,false
hgGLQ1NV,38f60ialbjuvdvfa6f4is9xu20x0td,3ls2amnw5j35bgdviyh02peg3ngqob,hgGLQ1NV,2020-0188,2020-06-04,14:19:09,14:37:38,NA,incomplete,236,gender,3,1,left,C_F_02.jpg,A_F_16.jpg,C_M_08.jpg,left,569.6550000002608,true,low,false
hgGLQ1NV,38f60ialbjuvdvfa6f4is9xu20x0td,3ls2amnw5j35bgdviyh02peg3ngqob,hgGLQ1NV,2020-0188,2020-06-04,14:19:09,14:37:38,NA,incomplete,237,gender,3,1,right,C_M_03.jpg,C_F_11.jpg,A_M_15.jpg,right,930.9049999997951,true,low,false
hgGLQ1NV,38f60ialbjuvdvfa6f4is9xu20x0td,3ls2amnw5j35bgdviyh02peg3ngqob,hgGLQ1NV,2020-0188,2020-06-04,14:19:09,14:37:38,NA,incomplete,238,gender,3,0,right,A_M_03.jpg,A_F_05.jpg,C_M_14.jpg,left,652.8349999999627,false,low,false
hgGLQ1NV,38f60ialbjuvdvfa6f4is9xu20x0td,3ls2amnw5j35bgdviyh02peg3ngqob,hgGLQ1NV,2020-0188,2020-06-04,14:19:09,14:37:38,NA,incomplete,239,gender,3,1,right,A_M_12.jpg,A_F_02.jpg,C_M_05.jpg,right,729.2400000002235,true,low,false
hgGLQ1NV,38f60ialbjuvdvfa6f4is9xu20x0td,3ls2amnw5j35bgdviyh02peg3ngqob,hgGLQ1NV,2020-0188,2020-06-04,14:19:09,14:37:38,NA,NA,instruction example,shape,NA,NA,NA,Red_Circle_Chess_3.jpg,Blue_Circle_Stripes_4.jpg,Green_Star_Chess_1.jpg,NA,NA,NA,NA,undefined
hgGLQ1NV,38f60ialbjuvdvfa6f4is9xu20x0td,3ls2amnw5j35bgdviyh02peg3ngqob,hgGLQ1NV,2020-0188,2020-06-04,14:19:09,14:37:38,NA,NA,instruction example,shape,NA,NA,NA,Purple_Star_Chess_2.jpg,Green_Triangle_Chess_1.jpg,Blue_Star_Dots_4.jpg,NA,NA,NA,NA,undefined
hgGLQ1NV,38f60ialbjuvdvfa6f4is9xu20x0td,3ls2amnw5j35bgdviyh02peg3ngqob,hgGLQ1NV,2020-0188,2020-06-04,14:19:09,14:37:38,NA,NA,instruction example,shape,NA,NA,NA,A_F_15.jpg,A_M_04.jpg,C_F_06.jpg,NA,NA,NA,NA,undefined
hgGLQ1NV,38f60ialbjuvdvfa6f4is9xu20x0td,3ls2amnw5j35bgdviyh02peg3ngqob,hgGLQ1NV,2020-0188,2020-06-04,14:19:09,14:37:38,NA,NA,instruction example,shape,NA,NA,NA,C_M_08.jpg,A_M_14.jpg,C_F_15.jpg,NA,NA,NA,NA,undefined
