workerId,hitId,assignmentId,subject,studyid,exp_date,exp_start,exp_end,time_start,time_end,trial,type,sequence,reward_validity,answer,image_top,image_left,image_right,response,response_time,response_acc,volatility,practice
asjYPXyY,3xabxm4ak4i034slkfn2gjsp1ra8qu,3mrnmeiqw9j3gm6t0kvoa93np3nldl,asjYPXyY,2020-0188,2020-06-04,10:15:13,10:56:53,NA,incomplete,0,color,0,1,left,Red_Star_Dots_4.jpg,Red_Triangle_Stripes_2.jpg,Blue_Circle_Dots_3.jpg,left,1023.3700000008103,true,NA,true
asjYPXyY,3xabxm4ak4i034slkfn2gjsp1ra8qu,3mrnmeiqw9j3gm6t0kvoa93np3nldl,asjYPXyY,2020-0188,2020-06-04,10:15:13,10:56:53,NA,incomplete,1,color,0,1,left,Blue_Star_Dots_4.jpg,Blue_Circle_Stripes_2.jpg,Red_Plus_Dots_3.jpg,left,810.2749999999069,true,NA,true
asjYPXyY,3xabxm4ak4i034slkfn2gjsp1ra8qu,3mrnmeiqw9j3gm6t0kvoa93np3nldl,asjYPXyY,2020-0188,2020-06-04,10:15:13,10:56:53,NA,incomplete,2,color,0,1,right,Green_Triangle_Stripes_1.jpg,Blue_Plus_Stripes_4.jpg,Green_Star_Dots_3.jpg,right,776.1800000006333,true,NA,true
asjYPXyY,3xabxm4ak4i034slkfn2gjsp1ra8qu,3mrnmeiqw9j3gm6t0kvoa93np3nldl,asjYPXyY,2020-0188,2020-06-04,10:15:13,10:56:53,NA,incomplete,3,color,0,1,right,Blue_Circle_Grid_2.jpg,Purple_Plus_Grid_3.jpg,Blue_Triangle_Dots_4.jpg,right,937.480000000447,true,NA,true
asjYPXyY,3xabxm4ak4i034slkfn2gjsp1ra8qu,3mrnmeiqw9j3gm6t0kvoa93np3nldl,asjYPXyY,2020-0188,2020-06-04,10:15:13,10:56:53,NA,incomplete,4,color,0,1,right,Green_Star_Grid_4.jpg,Red_Plus_Grid_2.jpg,Green_Circle_Chess_3.jpg,right,722.6200000003446,true,NA,true
asjYPXyY,3xabxm4ak4i034slkfn2gjsp1ra8qu,3mrnmeiqw9j3gm6t0kvoa93np3nldl,asjYPXyY,2020-0188,2020-06-04,10:15:13,10:56:53,NA,incomplete,5,color,0,1,right,Red_Star_Dots_2.jpg,Blue_Triangle_Dots_1.jpg,Red_Circle_Grid_3.jpg,right,765.1899999980815,true,NA,true
asjYPXyY,3xabxm4ak4i034slkfn2gjsp1ra8qu,3mrnmeiqw9j3gm6t0kvoa93np3nldl,asjYPXyY,2020-0188,2020-06-04,10:15:13,10:56:53,NA,incomplete,6,color,0,1,right,Green_Circle_Grid_2.jpg,Red_Star_Grid_3.jpg,Green_Triangle_Stripes_1.jpg,right,727.1750000000466,true,NA,true
asjYPXyY,3xabxm4ak4i034slkfn2gjsp1ra8qu,3mrnmeiqw9j3gm6t0kvoa93np3nldl,asjYPXyY,2020-0188,2020-06-04,10:15:13,10:56:53,NA,incomplete,7,color,0,0,right,Blue_Triangle_Chess_3.jpg,Red_Circle_Chess_1.jpg,Blue_Star_Grid_2.jpg,right,756.0150000008289,true,NA,true
asjYPXyY,3xabxm4ak4i034slkfn2gjsp1ra8qu,3mrnmeiqw9j3gm6t0kvoa93np3nldl,asjYPXyY,2020-0188,2020-06-04,10:15:13,10:56:53,NA,incomplete,8,color,0,1,left,Blue_Star_Dots_4.jpg,Blue_Triangle_Stripes_1.jpg,Red_Circle_Dots_2.jpg,left,705.1399999998976,true,NA,true
asjYPXyY,3xabxm4ak4i034slkfn2gjsp1ra8qu,3mrnmeiqw9j3gm6t0kvoa93np3nldl,asjYPXyY,2020-0188,2020-06-04,10:15:13,10:56:53,NA,incomplete,9,color,0,0,left,Green_Circle_Dots_4.jpg,Green_Plus_Chess_3.jpg,Blue_Triangle_Dots_2.jpg,left,940.8199999995995,true,NA,true
asjYPXyY,3xabxm4ak4i034slkfn2gjsp1ra8qu,3mrnmeiqw9j3gm6t0kvoa93np3nldl,asjYPXyY,2020-0188,2020-06-04,10:15:13,10:56:53,NA,incomplete,10,color,0,0,left,Red_Plus_Stripes_4.jpg,Red_Triangle_Dots_3.jpg,Blue_Star_Stripes_1.jpg,left,846.6100000005681,true,NA,true
asjYPXyY,3xabxm4ak4i034slkfn2gjsp1ra8qu,3mrnmeiqw9j3gm6t0kvoa93np3nldl,asjYPXyY,2020-0188,2020-06-04,10:15:13,10:56:53,NA,incomplete,11,color,0,1,left,Red_Triangle_Grid_1.jpg,Red_Plus_Stripes_2.jpg,Blue_Circle_Grid_3.jpg,left,893.3849999993108,true,NA,true
asjYPXyY,3xabxm4ak4i034slkfn2gjsp1ra8qu,3mrnmeiqw9j3gm6t0kvoa93np3nldl,asjYPXyY,2020-0188,2020-06-04,10:15:13,10:56:53,NA,incomplete,12,color,0,0,right,Green_Circle_Grid_3.jpg,Blue_Star_Grid_2.jpg,Green_Plus_Chess_1.jpg,right,866.570000000298,true,NA,true
asjYPXyY,3xabxm4ak4i034slkfn2gjsp1ra8qu,3mrnmeiqw9j3gm6t0kvoa93np3nldl,asjYPXyY,2020-0188,2020-06-04,10:15:13,10:56:53,NA,incomplete,13,color,0,0,right,Red_Plus_Stripes_4.jpg,Blue_Star_Stripes_2.jpg,Red_Triangle_Grid_1.jpg,right,824.8300000012387,true,NA,true
asjYPXyY,3xabxm4ak4i034slkfn2gjsp1ra8qu,3mrnmeiqw9j3gm6t0kvoa93np3nldl,asjYPXyY,2020-0188,2020-06-04,10:15:13,10:56:53,NA,incomplete,14,color,0,1,left,Red_Triangle_Dots_3.jpg,Red_Star_Chess_4.jpg,Blue_Circle_Dots_2.jpg,left,865.9250000000466,true,NA,true
asjYPXyY,3xabxm4ak4i034slkfn2gjsp1ra8qu,3mrnmeiqw9j3gm6t0kvoa93np3nldl,asjYPXyY,2020-0188,2020-06-04,10:15:13,10:56:53,NA,incomplete,15,color,0,1,left,Green_Circle_Grid_4.jpg,Green_Plus_Dots_2.jpg,Blue_Triangle_Grid_1.jpg,left,791.9750000000931,true,NA,true
asjYPXyY,3xabxm4ak4i034slkfn2gjsp1ra8qu,3mrnmeiqw9j3gm6t0kvoa93np3nldl,asjYPXyY,2020-0188,2020-06-04,10:15:13,10:56:53,NA,incomplete,16,color,0,1,left,Red_Triangle_Stripes_1.jpg,Red_Plus_Dots_4.jpg,Purple_Circle_Stripes_2.jpg,left,871.3050000006333,true,NA,true
asjYPXyY,3xabxm4ak4i034slkfn2gjsp1ra8qu,3mrnmeiqw9j3gm6t0kvoa93np3nldl,asjYPXyY,2020-0188,2020-06-04,10:15:13,10:56:53,NA,incomplete,17,color,0,1,left,Purple_Circle_Dots_2.jpg,Purple_Star_Chess_3.jpg,Red_Plus_Dots_4.jpg,left,951.7350000005681,true,NA,true
asjYPXyY,3xabxm4ak4i034slkfn2gjsp1ra8qu,3mrnmeiqw9j3gm6t0kvoa93np3nldl,asjYPXyY,2020-0188,2020-06-04,10:15:13,10:56:53,NA,incomplete,18,color,0,1,left,Green_Triangle_Stripes_3.jpg,Green_Plus_Chess_1.jpg,Purple_Circle_Stripes_4.jpg,left,913.0000000004657,true,NA,true
asjYPXyY,3xabxm4ak4i034slkfn2gjsp1ra8qu,3mrnmeiqw9j3gm6t0kvoa93np3nldl,asjYPXyY,2020-0188,2020-06-04,10:15:13,10:56:53,NA,incomplete,19,color,0,1,right,Green_Star_Chess_2.jpg,Purple_Circle_Chess_1.jpg,Green_Triangle_Stripes_4.jpg,right,917.1299999996554,true,NA,true
asjYPXyY,3xabxm4ak4i034slkfn2gjsp1ra8qu,3mrnmeiqw9j3gm6t0kvoa93np3nldl,asjYPXyY,2020-0188,2020-06-04,10:15:13,10:56:53,NA,incomplete,20,filling,1,1,left,Blue_Plus_Grid_4.jpg,Green_Triangle_Grid_1.jpg,Blue_Star_Stripes_3.jpg,left,1630.5400000000373,true,NA,true
asjYPXyY,3xabxm4ak4i034slkfn2gjsp1ra8qu,3mrnmeiqw9j3gm6t0kvoa93np3nldl,asjYPXyY,2020-0188,2020-06-04,10:15:13,10:56:53,NA,incomplete,21,filling,1,1,left,Blue_Triangle_Grid_2.jpg,Purple_Circle_Grid_4.jpg,Blue_Plus_Chess_3.jpg,left,1168.5649999999441,true,NA,true
asjYPXyY,3xabxm4ak4i034slkfn2gjsp1ra8qu,3mrnmeiqw9j3gm6t0kvoa93np3nldl,asjYPXyY,2020-0188,2020-06-04,10:15:13,10:56:53,NA,incomplete,22,filling,1,0,right,Purple_Circle_Stripes_4.jpg,Purple_Star_Dots_2.jpg,Blue_Triangle_Stripes_1.jpg,right,972.0049999996554,true,NA,true
asjYPXyY,3xabxm4ak4i034slkfn2gjsp1ra8qu,3mrnmeiqw9j3gm6t0kvoa93np3nldl,asjYPXyY,2020-0188,2020-06-04,10:15:13,10:56:53,NA,incomplete,23,filling,1,1,right,Purple_Triangle_Chess_4.jpg,Purple_Plus_Grid_2.jpg,Red_Circle_Chess_1.jpg,right,1077.385000000475,true,NA,true
asjYPXyY,3xabxm4ak4i034slkfn2gjsp1ra8qu,3mrnmeiqw9j3gm6t0kvoa93np3nldl,asjYPXyY,2020-0188,2020-06-04,10:15:13,10:56:53,NA,incomplete,24,filling,1,1,right,Green_Triangle_Grid_3.jpg,Green_Plus_Dots_1.jpg,Purple_Circle_Grid_2.jpg,right,951.7000000013504,true,NA,true
asjYPXyY,3xabxm4ak4i034slkfn2gjsp1ra8qu,3mrnmeiqw9j3gm6t0kvoa93np3nldl,asjYPXyY,2020-0188,2020-06-04,10:15:13,10:56:53,NA,incomplete,25,filling,1,1,left,Red_Star_Dots_3.jpg,Green_Plus_Dots_1.jpg,Red_Triangle_Chess_2.jpg,left,1163.4499999999534,true,NA,true
asjYPXyY,3xabxm4ak4i034slkfn2gjsp1ra8qu,3mrnmeiqw9j3gm6t0kvoa93np3nldl,asjYPXyY,2020-0188,2020-06-04,10:15:13,10:56:53,NA,incomplete,26,filling,1,1,right,Red_Triangle_Stripes_2.jpg,Red_Star_Chess_4.jpg,Green_Plus_Stripes_3.jpg,right,1040.3100000002887,true,NA,true
asjYPXyY,3xabxm4ak4i034slkfn2gjsp1ra8qu,3mrnmeiqw9j3gm6t0kvoa93np3nldl,asjYPXyY,2020-0188,2020-06-04,10:15:13,10:56:53,NA,incomplete,27,filling,1,0,left,Blue_Triangle_Grid_1.jpg,Red_Circle_Grid_4.jpg,Blue_Star_Dots_2.jpg,left,973.6100000010338,true,NA,true
asjYPXyY,3xabxm4ak4i034slkfn2gjsp1ra8qu,3mrnmeiqw9j3gm6t0kvoa93np3nldl,asjYPXyY,2020-0188,2020-06-04,10:15:13,10:56:53,NA,incomplete,28,filling,1,1,right,Red_Star_Chess_2.jpg,Red_Triangle_Grid_1.jpg,Green_Plus_Chess_4.jpg,right,1232.4350000000559,true,NA,true
asjYPXyY,3xabxm4ak4i034slkfn2gjsp1ra8qu,3mrnmeiqw9j3gm6t0kvoa93np3nldl,asjYPXyY,2020-0188,2020-06-04,10:15:13,10:56:53,NA,incomplete,29,filling,1,0,left,Purple_Triangle_Stripes_1.jpg,Blue_Circle_Stripes_3.jpg,Purple_Plus_Grid_4.jpg,left,1075.4899999992922,true,NA,true
asjYPXyY,3xabxm4ak4i034slkfn2gjsp1ra8qu,3mrnmeiqw9j3gm6t0kvoa93np3nldl,asjYPXyY,2020-0188,2020-06-04,10:15:13,10:56:53,NA,incomplete,30,filling,1,1,left,Green_Plus_Chess_4.jpg,Blue_Triangle_Chess_3.jpg,Green_Circle_Stripes_2.jpg,left,1033.844999999972,true,NA,true
asjYPXyY,3xabxm4ak4i034slkfn2gjsp1ra8qu,3mrnmeiqw9j3gm6t0kvoa93np3nldl,asjYPXyY,2020-0188,2020-06-04,10:15:13,10:56:53,NA,incomplete,31,filling,1,1,right,Red_Triangle_Grid_4.jpg,Red_Circle_Stripes_2.jpg,Blue_Plus_Grid_3.jpg,right,931.5499999993481,true,NA,true
asjYPXyY,3xabxm4ak4i034slkfn2gjsp1ra8qu,3mrnmeiqw9j3gm6t0kvoa93np3nldl,asjYPXyY,2020-0188,2020-06-04,10:15:13,10:56:53,NA,incomplete,32,filling,1,1,left,Green_Star_Stripes_4.jpg,Blue_Circle_Stripes_3.jpg,Green_Plus_Grid_1.jpg,left,968.3349999994971,true,NA,true
asjYPXyY,3xabxm4ak4i034slkfn2gjsp1ra8qu,3mrnmeiqw9j3gm6t0kvoa93np3nldl,asjYPXyY,2020-0188,2020-06-04,10:15:13,10:56:53,NA,incomplete,33,filling,1,1,left,Green_Star_Grid_1.jpg,Red_Circle_Grid_3.jpg,Green_Triangle_Chess_4.jpg,left,1143.7150000003166,true,NA,true
asjYPXyY,3xabxm4ak4i034slkfn2gjsp1ra8qu,3mrnmeiqw9j3gm6t0kvoa93np3nldl,asjYPXyY,2020-0188,2020-06-04,10:15:13,10:56:53,NA,incomplete,34,filling,1,1,left,Red_Circle_Grid_2.jpg,Blue_Star_Grid_4.jpg,Red_Triangle_Dots_1.jpg,left,965.2449999994133,true,NA,true
asjYPXyY,3xabxm4ak4i034slkfn2gjsp1ra8qu,3mrnmeiqw9j3gm6t0kvoa93np3nldl,asjYPXyY,2020-0188,2020-06-04,10:15:13,10:56:53,NA,incomplete,35,filling,1,1,right,Blue_Plus_Stripes_4.jpg,Blue_Star_Chess_2.jpg,Green_Circle_Stripes_3.jpg,right,1084.3949999997858,true,NA,true
asjYPXyY,3xabxm4ak4i034slkfn2gjsp1ra8qu,3mrnmeiqw9j3gm6t0kvoa93np3nldl,asjYPXyY,2020-0188,2020-06-04,10:15:13,10:56:53,NA,incomplete,36,filling,1,1,left,Blue_Triangle_Grid_2.jpg,Red_Circle_Grid_1.jpg,Blue_Plus_Dots_4.jpg,left,873.1750000005122,true,NA,true
asjYPXyY,3xabxm4ak4i034slkfn2gjsp1ra8qu,3mrnmeiqw9j3gm6t0kvoa93np3nldl,asjYPXyY,2020-0188,2020-06-04,10:15:13,10:56:53,NA,incomplete,37,filling,1,1,right,Blue_Triangle_Chess_1.jpg,Blue_Plus_Grid_4.jpg,Green_Star_Chess_2.jpg,right,971.1499999994412,true,NA,true
asjYPXyY,3xabxm4ak4i034slkfn2gjsp1ra8qu,3mrnmeiqw9j3gm6t0kvoa93np3nldl,asjYPXyY,2020-0188,2020-06-04,10:15:13,10:56:53,NA,incomplete,38,filling,1,1,right,Blue_Plus_Grid_1.jpg,Blue_Triangle_Stripes_4.jpg,Purple_Circle_Grid_3.jpg,left,1111.7799999993294,false,NA,true
asjYPXyY,3xabxm4ak4i034slkfn2gjsp1ra8qu,3mrnmeiqw9j3gm6t0kvoa93np3nldl,asjYPXyY,2020-0188,2020-06-04,10:15:13,10:56:53,NA,incomplete,39,filling,1,1,left,Blue_Circle_Grid_2.jpg,Purple_Plus_Grid_3.jpg,Blue_Triangle_Dots_1.jpg,left,972.8150000011083,true,NA,true
asjYPXyY,3xabxm4ak4i034slkfn2gjsp1ra8qu,3mrnmeiqw9j3gm6t0kvoa93np3nldl,asjYPXyY,2020-0188,2020-06-04,10:15:13,10:56:53,NA,incomplete,0,color,0,0,right,Blue_Circle_Stripes_4.jpg,Purple_Plus_Stripes_3.jpg,Blue_Triangle_Chess_2.jpg,right,1443.1499999992084,true,high,false
asjYPXyY,3xabxm4ak4i034slkfn2gjsp1ra8qu,3mrnmeiqw9j3gm6t0kvoa93np3nldl,asjYPXyY,2020-0188,2020-06-04,10:15:13,10:56:53,NA,incomplete,1,color,0,1,left,Blue_Circle_Stripes_1.jpg,Blue_Plus_Dots_3.jpg,Green_Star_Stripes_4.jpg,right,1033.4849999998696,false,high,false
asjYPXyY,3xabxm4ak4i034slkfn2gjsp1ra8qu,3mrnmeiqw9j3gm6t0kvoa93np3nldl,asjYPXyY,2020-0188,2020-06-04,10:15:13,10:56:53,NA,incomplete,2,color,0,1,left,Red_Star_Grid_4.jpg,Red_Circle_Dots_1.jpg,Blue_Triangle_Grid_3.jpg,right,1289.160000000149,false,high,false
asjYPXyY,3xabxm4ak4i034slkfn2gjsp1ra8qu,3mrnmeiqw9j3gm6t0kvoa93np3nldl,asjYPXyY,2020-0188,2020-06-04,10:15:13,10:56:53,NA,incomplete,3,color,0,1,left,Purple_Circle_Stripes_3.jpg,Purple_Triangle_Dots_4.jpg,Red_Plus_Stripes_2.jpg,left,1151.2899999998044,true,high,false
asjYPXyY,3xabxm4ak4i034slkfn2gjsp1ra8qu,3mrnmeiqw9j3gm6t0kvoa93np3nldl,asjYPXyY,2020-0188,2020-06-04,10:15:13,10:56:53,NA,incomplete,4,color,0,0,left,Purple_Circle_Chess_3.jpg,Purple_Plus_Grid_4.jpg,Red_Star_Chess_1.jpg,left,674.2749999994412,true,high,false
asjYPXyY,3xabxm4ak4i034slkfn2gjsp1ra8qu,3mrnmeiqw9j3gm6t0kvoa93np3nldl,asjYPXyY,2020-0188,2020-06-04,10:15:13,10:56:53,NA,incomplete,5,color,0,1,left,Green_Plus_Dots_3.jpg,Green_Triangle_Stripes_1.jpg,Blue_Circle_Dots_2.jpg,right,1266.125,false,high,false
asjYPXyY,3xabxm4ak4i034slkfn2gjsp1ra8qu,3mrnmeiqw9j3gm6t0kvoa93np3nldl,asjYPXyY,2020-0188,2020-06-04,10:15:13,10:56:53,NA,incomplete,6,color,0,1,left,Blue_Triangle_Grid_4.jpg,Blue_Circle_Dots_2.jpg,Green_Plus_Grid_3.jpg,left,832.9950000005774,true,high,false
asjYPXyY,3xabxm4ak4i034slkfn2gjsp1ra8qu,3mrnmeiqw9j3gm6t0kvoa93np3nldl,asjYPXyY,2020-0188,2020-06-04,10:15:13,10:56:53,NA,incomplete,7,color,0,1,left,Red_Circle_Dots_2.jpg,Red_Triangle_Chess_4.jpg,Blue_Star_Dots_3.jpg,left,648.679999998305,true,high,false
asjYPXyY,3xabxm4ak4i034slkfn2gjsp1ra8qu,3mrnmeiqw9j3gm6t0kvoa93np3nldl,asjYPXyY,2020-0188,2020-06-04,10:15:13,10:56:53,NA,incomplete,8,color,0,0,right,Blue_Circle_Grid_1.jpg,Purple_Plus_Grid_2.jpg,Blue_Triangle_Stripes_4.jpg,right,640.1099999984726,true,high,false
asjYPXyY,3xabxm4ak4i034slkfn2gjsp1ra8qu,3mrnmeiqw9j3gm6t0kvoa93np3nldl,asjYPXyY,2020-0188,2020-06-04,10:15:13,10:56:53,NA,incomplete,9,color,0,1,left,Purple_Triangle_Stripes_4.jpg,Purple_Plus_Grid_1.jpg,Green_Star_Stripes_2.jpg,left,987.3150000004098,true,high,false
asjYPXyY,3xabxm4ak4i034slkfn2gjsp1ra8qu,3mrnmeiqw9j3gm6t0kvoa93np3nldl,asjYPXyY,2020-0188,2020-06-04,10:15:13,10:56:53,NA,incomplete,10,filling,1,1,left,Green_Star_Chess_2.jpg,Red_Plus_Chess_3.jpg,Green_Circle_Stripes_1.jpg,left,1102.6099999998696,true,high,false
asjYPXyY,3xabxm4ak4i034slkfn2gjsp1ra8qu,3mrnmeiqw9j3gm6t0kvoa93np3nldl,asjYPXyY,2020-0188,2020-06-04,10:15:13,10:56:53,NA,incomplete,11,filling,1,1,right,Red_Plus_Stripes_1.jpg,Red_Circle_Dots_2.jpg,Green_Star_Stripes_3.jpg,right,1013.0950000002049,true,high,false
asjYPXyY,3xabxm4ak4i034slkfn2gjsp1ra8qu,3mrnmeiqw9j3gm6t0kvoa93np3nldl,asjYPXyY,2020-0188,2020-06-04,10:15:13,10:56:53,NA,incomplete,12,filling,1,1,right,Blue_Circle_Dots_1.jpg,Blue_Triangle_Chess_2.jpg,Purple_Plus_Dots_4.jpg,right,1719.3700000008103,true,high,false
asjYPXyY,3xabxm4ak4i034slkfn2gjsp1ra8qu,3mrnmeiqw9j3gm6t0kvoa93np3nldl,asjYPXyY,2020-0188,2020-06-04,10:15:13,10:56:53,NA,incomplete,13,filling,1,1,right,Purple_Triangle_Chess_4.jpg,Purple_Star_Stripes_2.jpg,Green_Plus_Chess_3.jpg,right,1195.8500000000931,true,high,false
asjYPXyY,3xabxm4ak4i034slkfn2gjsp1ra8qu,3mrnmeiqw9j3gm6t0kvoa93np3nldl,asjYPXyY,2020-0188,2020-06-04,10:15:13,10:56:53,NA,incomplete,14,filling,1,1,right,Red_Plus_Stripes_4.jpg,Red_Circle_Chess_1.jpg,Blue_Star_Stripes_3.jpg,right,1040.8999999999069,true,high,false
asjYPXyY,3xabxm4ak4i034slkfn2gjsp1ra8qu,3mrnmeiqw9j3gm6t0kvoa93np3nldl,asjYPXyY,2020-0188,2020-06-04,10:15:13,10:56:53,NA,incomplete,15,filling,1,1,right,Blue_Triangle_Grid_2.jpg,Blue_Star_Dots_3.jpg,Purple_Circle_Grid_4.jpg,right,909.9600000008941,true,high,false
asjYPXyY,3xabxm4ak4i034slkfn2gjsp1ra8qu,3mrnmeiqw9j3gm6t0kvoa93np3nldl,asjYPXyY,2020-0188,2020-06-04,10:15:13,10:56:53,NA,incomplete,16,filling,1,0,right,Green_Triangle_Grid_1.jpg,Green_Star_Stripes_3.jpg,Blue_Plus_Grid_2.jpg,right,948.420000000624,true,high,false
asjYPXyY,3xabxm4ak4i034slkfn2gjsp1ra8qu,3mrnmeiqw9j3gm6t0kvoa93np3nldl,asjYPXyY,2020-0188,2020-06-04,10:15:13,10:56:53,NA,incomplete,17,filling,1,0,left,Green_Plus_Chess_1.jpg,Blue_Circle_Chess_4.jpg,Green_Star_Grid_3.jpg,none,0,false,high,false
asjYPXyY,3xabxm4ak4i034slkfn2gjsp1ra8qu,3mrnmeiqw9j3gm6t0kvoa93np3nldl,asjYPXyY,2020-0188,2020-06-04,10:15:13,10:56:53,NA,incomplete,18,filling,1,1,right,Blue_Plus_Grid_4.jpg,Blue_Circle_Dots_3.jpg,Green_Triangle_Grid_2.jpg,right,737.3000000007451,true,high,false
asjYPXyY,3xabxm4ak4i034slkfn2gjsp1ra8qu,3mrnmeiqw9j3gm6t0kvoa93np3nldl,asjYPXyY,2020-0188,2020-06-04,10:15:13,10:56:53,NA,incomplete,19,filling,1,1,right,Purple_Plus_Chess_2.jpg,Purple_Circle_Dots_3.jpg,Green_Triangle_Chess_4.jpg,left,742.095000001369,false,high,false
asjYPXyY,3xabxm4ak4i034slkfn2gjsp1ra8qu,3mrnmeiqw9j3gm6t0kvoa93np3nldl,asjYPXyY,2020-0188,2020-06-04,10:15:13,10:56:53,NA,incomplete,20,color,0,1,right,Purple_Circle_Grid_3.jpg,Blue_Plus_Grid_1.jpg,Purple_Triangle_Stripes_2.jpg,left,1004.1750000000466,false,high,false
asjYPXyY,3xabxm4ak4i034slkfn2gjsp1ra8qu,3mrnmeiqw9j3gm6t0kvoa93np3nldl,asjYPXyY,2020-0188,2020-06-04,10:15:13,10:56:53,NA,incomplete,21,color,0,1,left,Red_Star_Stripes_3.jpg,Red_Plus_Dots_2.jpg,Blue_Circle_Stripes_4.jpg,left,1546.8249999994878,true,high,false
asjYPXyY,3xabxm4ak4i034slkfn2gjsp1ra8qu,3mrnmeiqw9j3gm6t0kvoa93np3nldl,asjYPXyY,2020-0188,2020-06-04,10:15:13,10:56:53,NA,incomplete,22,color,0,1,right,Blue_Star_Grid_4.jpg,Purple_Circle_Grid_2.jpg,Blue_Triangle_Chess_1.jpg,right,1170.6699999994598,true,high,false
asjYPXyY,3xabxm4ak4i034slkfn2gjsp1ra8qu,3mrnmeiqw9j3gm6t0kvoa93np3nldl,asjYPXyY,2020-0188,2020-06-04,10:15:13,10:56:53,NA,incomplete,23,color,0,1,left,Blue_Plus_Chess_1.jpg,Blue_Star_Dots_3.jpg,Red_Circle_Chess_4.jpg,left,656.6100000001024,true,high,false
asjYPXyY,3xabxm4ak4i034slkfn2gjsp1ra8qu,3mrnmeiqw9j3gm6t0kvoa93np3nldl,asjYPXyY,2020-0188,2020-06-04,10:15:13,10:56:53,NA,incomplete,24,color,0,1,left,Green_Star_Stripes_2.jpg,Green_Plus_Chess_3.jpg,Red_Circle_Stripes_1.jpg,left,774.105000000447,true,high,false
asjYPXyY,3xabxm4ak4i034slkfn2gjsp1ra8qu,3mrnmeiqw9j3gm6t0kvoa93np3nldl,asjYPXyY,2020-0188,2020-06-04,10:15:13,10:56:53,NA,incomplete,25,color,0,1,left,Blue_Circle_Stripes_3.jpg,Blue_Triangle_Chess_4.jpg,Purple_Plus_Stripes_1.jpg,left,1626.2549999991897,true,high,false
asjYPXyY,3xabxm4ak4i034slkfn2gjsp1ra8qu,3mrnmeiqw9j3gm6t0kvoa93np3nldl,asjYPXyY,2020-0188,2020-06-04,10:15:13,10:56:53,NA,incomplete,26,color,0,1,right,Green_Plus_Stripes_3.jpg,Purple_Triangle_Stripes_4.jpg,Green_Star_Dots_2.jpg,right,643.3550000002142,true,high,false
asjYPXyY,3xabxm4ak4i034slkfn2gjsp1ra8qu,3mrnmeiqw9j3gm6t0kvoa93np3nldl,asjYPXyY,2020-0188,2020-06-04,10:15:13,10:56:53,NA,incomplete,27,color,0,1,left,Blue_Triangle_Stripes_3.jpg,Blue_Plus_Grid_2.jpg,Green_Circle_Stripes_1.jpg,left,1363.6850000002887,true,high,false
asjYPXyY,3xabxm4ak4i034slkfn2gjsp1ra8qu,3mrnmeiqw9j3gm6t0kvoa93np3nldl,asjYPXyY,2020-0188,2020-06-04,10:15:13,10:56:53,NA,incomplete,28,color,0,1,left,Red_Circle_Grid_2.jpg,Red_Triangle_Dots_1.jpg,Blue_Plus_Grid_4.jpg,left,700.1899999994785,true,high,false
asjYPXyY,3xabxm4ak4i034slkfn2gjsp1ra8qu,3mrnmeiqw9j3gm6t0kvoa93np3nldl,asjYPXyY,2020-0188,2020-06-04,10:15:13,10:56:53,NA,incomplete,29,color,0,1,left,Green_Triangle_Grid_1.jpg,Green_Plus_Stripes_4.jpg,Purple_Star_Grid_2.jpg,left,608.7150000003166,true,high,false
asjYPXyY,3xabxm4ak4i034slkfn2gjsp1ra8qu,3mrnmeiqw9j3gm6t0kvoa93np3nldl,asjYPXyY,2020-0188,2020-06-04,10:15:13,10:56:53,NA,incomplete,30,filling,1,1,left,Green_Triangle_Chess_2.jpg,Red_Plus_Chess_3.jpg,Green_Star_Dots_4.jpg,right,440.3200000014622,false,high,false
asjYPXyY,3xabxm4ak4i034slkfn2gjsp1ra8qu,3mrnmeiqw9j3gm6t0kvoa93np3nldl,asjYPXyY,2020-0188,2020-06-04,10:15:13,10:56:53,NA,incomplete,31,filling,1,1,right,Purple_Plus_Dots_3.jpg,Purple_Triangle_Grid_1.jpg,Green_Star_Dots_2.jpg,right,1080.3649999997579,true,high,false
asjYPXyY,3xabxm4ak4i034slkfn2gjsp1ra8qu,3mrnmeiqw9j3gm6t0kvoa93np3nldl,asjYPXyY,2020-0188,2020-06-04,10:15:13,10:56:53,NA,incomplete,32,filling,1,1,right,Green_Plus_Chess_1.jpg,Green_Circle_Stripes_3.jpg,Red_Star_Chess_2.jpg,right,965.9699999992736,true,high,false
asjYPXyY,3xabxm4ak4i034slkfn2gjsp1ra8qu,3mrnmeiqw9j3gm6t0kvoa93np3nldl,asjYPXyY,2020-0188,2020-06-04,10:15:13,10:56:53,NA,incomplete,33,filling,1,1,right,Blue_Circle_Chess_4.jpg,Blue_Plus_Dots_3.jpg,Red_Triangle_Chess_2.jpg,right,1284.3749999993015,true,high,false
asjYPXyY,3xabxm4ak4i034slkfn2gjsp1ra8qu,3mrnmeiqw9j3gm6t0kvoa93np3nldl,asjYPXyY,2020-0188,2020-06-04,10:15:13,10:56:53,NA,incomplete,34,filling,1,1,left,Purple_Triangle_Stripes_4.jpg,Green_Plus_Stripes_1.jpg,Purple_Star_Chess_3.jpg,left,833.1450000004843,true,high,false
asjYPXyY,3xabxm4ak4i034slkfn2gjsp1ra8qu,3mrnmeiqw9j3gm6t0kvoa93np3nldl,asjYPXyY,2020-0188,2020-06-04,10:15:13,10:56:53,NA,incomplete,35,filling,1,1,left,Green_Plus_Grid_2.jpg,Blue_Star_Grid_1.jpg,Green_Triangle_Chess_3.jpg,right,788.8850000000093,false,high,false
asjYPXyY,3xabxm4ak4i034slkfn2gjsp1ra8qu,3mrnmeiqw9j3gm6t0kvoa93np3nldl,asjYPXyY,2020-0188,2020-06-04,10:15:13,10:56:53,NA,incomplete,36,filling,1,1,right,Purple_Star_Chess_3.jpg,Purple_Triangle_Stripes_4.jpg,Red_Plus_Chess_1.jpg,right,1044.2849999999162,true,high,false
asjYPXyY,3xabxm4ak4i034slkfn2gjsp1ra8qu,3mrnmeiqw9j3gm6t0kvoa93np3nldl,asjYPXyY,2020-0188,2020-06-04,10:15:13,10:56:53,NA,incomplete,37,filling,1,0,right,Green_Circle_Dots_1.jpg,Green_Star_Chess_3.jpg,Purple_Triangle_Dots_2.jpg,right,1030.8149999999441,true,high,false
asjYPXyY,3xabxm4ak4i034slkfn2gjsp1ra8qu,3mrnmeiqw9j3gm6t0kvoa93np3nldl,asjYPXyY,2020-0188,2020-06-04,10:15:13,10:56:53,NA,incomplete,38,filling,1,1,left,Purple_Star_Stripes_4.jpg,Red_Plus_Stripes_3.jpg,Purple_Triangle_Dots_1.jpg,right,856.980000000447,false,high,false
asjYPXyY,3xabxm4ak4i034slkfn2gjsp1ra8qu,3mrnmeiqw9j3gm6t0kvoa93np3nldl,asjYPXyY,2020-0188,2020-06-04,10:15:13,10:56:53,NA,incomplete,39,filling,1,0,right,Purple_Triangle_Grid_3.jpg,Purple_Circle_Stripes_4.jpg,Red_Plus_Grid_2.jpg,right,1100.9049999993294,true,high,false
asjYPXyY,3xabxm4ak4i034slkfn2gjsp1ra8qu,3mrnmeiqw9j3gm6t0kvoa93np3nldl,asjYPXyY,2020-0188,2020-06-04,10:15:13,10:56:53,NA,incomplete,40,color,0,1,right,Green_Star_Dots_4.jpg,Blue_Plus_Dots_2.jpg,Green_Triangle_Chess_3.jpg,right,1171.0299999995623,true,high,false
asjYPXyY,3xabxm4ak4i034slkfn2gjsp1ra8qu,3mrnmeiqw9j3gm6t0kvoa93np3nldl,asjYPXyY,2020-0188,2020-06-04,10:15:13,10:56:53,NA,incomplete,41,color,0,1,left,Green_Circle_Stripes_4.jpg,Green_Star_Grid_2.jpg,Blue_Triangle_Stripes_1.jpg,left,832.8600000003353,true,high,false
asjYPXyY,3xabxm4ak4i034slkfn2gjsp1ra8qu,3mrnmeiqw9j3gm6t0kvoa93np3nldl,asjYPXyY,2020-0188,2020-06-04,10:15:13,10:56:53,NA,incomplete,42,color,0,0,right,Blue_Plus_Dots_3.jpg,Green_Star_Dots_1.jpg,Blue_Circle_Stripes_4.jpg,right,647.3600000008009,true,high,false
asjYPXyY,3xabxm4ak4i034slkfn2gjsp1ra8qu,3mrnmeiqw9j3gm6t0kvoa93np3nldl,asjYPXyY,2020-0188,2020-06-04,10:15:13,10:56:53,NA,incomplete,43,color,0,0,left,Green_Circle_Grid_4.jpg,Green_Star_Dots_3.jpg,Purple_Triangle_Grid_2.jpg,right,1049.2599999997765,false,high,false
asjYPXyY,3xabxm4ak4i034slkfn2gjsp1ra8qu,3mrnmeiqw9j3gm6t0kvoa93np3nldl,asjYPXyY,2020-0188,2020-06-04,10:15:13,10:56:53,NA,incomplete,44,color,0,0,right,Green_Circle_Chess_1.jpg,Purple_Triangle_Chess_2.jpg,Green_Star_Dots_4.jpg,left,866.4300000001676,false,high,false
asjYPXyY,3xabxm4ak4i034slkfn2gjsp1ra8qu,3mrnmeiqw9j3gm6t0kvoa93np3nldl,asjYPXyY,2020-0188,2020-06-04,10:15:13,10:56:53,NA,incomplete,45,color,0,1,left,Blue_Circle_Dots_3.jpg,Blue_Triangle_Chess_4.jpg,Purple_Star_Dots_1.jpg,left,822.8650000002235,true,high,false
asjYPXyY,3xabxm4ak4i034slkfn2gjsp1ra8qu,3mrnmeiqw9j3gm6t0kvoa93np3nldl,asjYPXyY,2020-0188,2020-06-04,10:15:13,10:56:53,NA,incomplete,46,color,0,1,right,Purple_Plus_Grid_2.jpg,Blue_Circle_Grid_1.jpg,Purple_Triangle_Dots_3.jpg,right,752.5350000013132,true,high,false
asjYPXyY,3xabxm4ak4i034slkfn2gjsp1ra8qu,3mrnmeiqw9j3gm6t0kvoa93np3nldl,asjYPXyY,2020-0188,2020-06-04,10:15:13,10:56:53,NA,incomplete,47,color,0,1,left,Purple_Triangle_Dots_4.jpg,Purple_Circle_Chess_1.jpg,Red_Plus_Dots_3.jpg,left,726.0200000000186,true,high,false
asjYPXyY,3xabxm4ak4i034slkfn2gjsp1ra8qu,3mrnmeiqw9j3gm6t0kvoa93np3nldl,asjYPXyY,2020-0188,2020-06-04,10:15:13,10:56:53,NA,incomplete,48,color,0,1,left,Blue_Plus_Dots_1.jpg,Blue_Circle_Chess_4.jpg,Purple_Star_Dots_3.jpg,left,1185.359999999404,true,high,false
asjYPXyY,3xabxm4ak4i034slkfn2gjsp1ra8qu,3mrnmeiqw9j3gm6t0kvoa93np3nldl,asjYPXyY,2020-0188,2020-06-04,10:15:13,10:56:53,NA,incomplete,49,color,0,1,right,Red_Plus_Grid_2.jpg,Blue_Triangle_Grid_3.jpg,Red_Star_Stripes_1.jpg,right,845.8300000003073,true,high,false
asjYPXyY,3xabxm4ak4i034slkfn2gjsp1ra8qu,3mrnmeiqw9j3gm6t0kvoa93np3nldl,asjYPXyY,2020-0188,2020-06-04,10:15:13,10:56:53,NA,incomplete,50,filling,1,1,right,Purple_Triangle_Chess_1.jpg,Purple_Plus_Grid_2.jpg,Blue_Star_Chess_3.jpg,left,1154.4649999996182,false,high,false
asjYPXyY,3xabxm4ak4i034slkfn2gjsp1ra8qu,3mrnmeiqw9j3gm6t0kvoa93np3nldl,asjYPXyY,2020-0188,2020-06-04,10:15:13,10:56:53,NA,incomplete,51,filling,1,1,right,Red_Plus_Chess_3.jpg,Red_Star_Grid_2.jpg,Green_Circle_Chess_4.jpg,right,1378.7650000012945,true,high,false
asjYPXyY,3xabxm4ak4i034slkfn2gjsp1ra8qu,3mrnmeiqw9j3gm6t0kvoa93np3nldl,asjYPXyY,2020-0188,2020-06-04,10:15:13,10:56:53,NA,incomplete,52,filling,1,0,right,Green_Star_Chess_4.jpg,Green_Triangle_Grid_2.jpg,Purple_Plus_Chess_3.jpg,right,997.5849999990314,true,high,false
asjYPXyY,3xabxm4ak4i034slkfn2gjsp1ra8qu,3mrnmeiqw9j3gm6t0kvoa93np3nldl,asjYPXyY,2020-0188,2020-06-04,10:15:13,10:56:53,NA,incomplete,53,filling,1,1,right,Red_Triangle_Chess_4.jpg,Red_Star_Grid_1.jpg,Blue_Plus_Chess_3.jpg,right,1296.355000000447,true,high,false
asjYPXyY,3xabxm4ak4i034slkfn2gjsp1ra8qu,3mrnmeiqw9j3gm6t0kvoa93np3nldl,asjYPXyY,2020-0188,2020-06-04,10:15:13,10:56:53,NA,incomplete,54,filling,1,1,right,Purple_Star_Grid_3.jpg,Purple_Triangle_Stripes_2.jpg,Red_Circle_Grid_4.jpg,right,981.5450000003912,true,high,false
asjYPXyY,3xabxm4ak4i034slkfn2gjsp1ra8qu,3mrnmeiqw9j3gm6t0kvoa93np3nldl,asjYPXyY,2020-0188,2020-06-04,10:15:13,10:56:53,NA,incomplete,55,filling,1,1,left,Red_Circle_Grid_1.jpg,Blue_Star_Grid_4.jpg,Red_Plus_Chess_2.jpg,left,973.6149999988265,true,high,false
asjYPXyY,3xabxm4ak4i034slkfn2gjsp1ra8qu,3mrnmeiqw9j3gm6t0kvoa93np3nldl,asjYPXyY,2020-0188,2020-06-04,10:15:13,10:56:53,NA,incomplete,56,filling,1,1,left,Blue_Triangle_Dots_2.jpg,Red_Circle_Dots_1.jpg,Blue_Star_Grid_3.jpg,left,1352.6299999994226,true,high,false
asjYPXyY,3xabxm4ak4i034slkfn2gjsp1ra8qu,3mrnmeiqw9j3gm6t0kvoa93np3nldl,asjYPXyY,2020-0188,2020-06-04,10:15:13,10:56:53,NA,incomplete,57,filling,1,1,right,Red_Plus_Dots_3.jpg,Red_Triangle_Stripes_2.jpg,Purple_Circle_Dots_1.jpg,right,904.5750000004191,true,high,false
asjYPXyY,3xabxm4ak4i034slkfn2gjsp1ra8qu,3mrnmeiqw9j3gm6t0kvoa93np3nldl,asjYPXyY,2020-0188,2020-06-04,10:15:13,10:56:53,NA,incomplete,58,filling,1,1,left,Purple_Star_Stripes_1.jpg,Green_Plus_Stripes_3.jpg,Purple_Triangle_Grid_4.jpg,right,729.4999999993015,false,high,false
asjYPXyY,3xabxm4ak4i034slkfn2gjsp1ra8qu,3mrnmeiqw9j3gm6t0kvoa93np3nldl,asjYPXyY,2020-0188,2020-06-04,10:15:13,10:56:53,NA,incomplete,59,filling,1,1,left,Green_Plus_Dots_4.jpg,Purple_Circle_Dots_2.jpg,Green_Star_Chess_1.jpg,left,937.9750000007916,true,high,false
asjYPXyY,3xabxm4ak4i034slkfn2gjsp1ra8qu,3mrnmeiqw9j3gm6t0kvoa93np3nldl,asjYPXyY,2020-0188,2020-06-04,10:15:13,10:56:53,NA,incomplete,60,color,0,0,left,Red_Plus_Dots_2.jpg,Red_Triangle_Stripes_4.jpg,Purple_Star_Dots_1.jpg,right,865.1200000003446,false,high,false
asjYPXyY,3xabxm4ak4i034slkfn2gjsp1ra8qu,3mrnmeiqw9j3gm6t0kvoa93np3nldl,asjYPXyY,2020-0188,2020-06-04,10:15:13,10:56:53,NA,incomplete,61,color,0,1,left,Purple_Triangle_Grid_1.jpg,Purple_Star_Chess_2.jpg,Blue_Plus_Grid_4.jpg,right,893.4499999994878,false,high,false
asjYPXyY,3xabxm4ak4i034slkfn2gjsp1ra8qu,3mrnmeiqw9j3gm6t0kvoa93np3nldl,asjYPXyY,2020-0188,2020-06-04,10:15:13,10:56:53,NA,incomplete,62,color,0,1,right,Purple_Plus_Grid_2.jpg,Red_Circle_Grid_3.jpg,Purple_Triangle_Chess_1.jpg,right,794.5149999994319,true,high,false
asjYPXyY,3xabxm4ak4i034slkfn2gjsp1ra8qu,3mrnmeiqw9j3gm6t0kvoa93np3nldl,asjYPXyY,2020-0188,2020-06-04,10:15:13,10:56:53,NA,incomplete,63,color,0,1,left,Purple_Triangle_Stripes_1.jpg,Purple_Star_Grid_2.jpg,Green_Plus_Stripes_4.jpg,left,604.035000000149,true,high,false
asjYPXyY,3xabxm4ak4i034slkfn2gjsp1ra8qu,3mrnmeiqw9j3gm6t0kvoa93np3nldl,asjYPXyY,2020-0188,2020-06-04,10:15:13,10:56:53,NA,incomplete,64,color,0,1,right,Blue_Plus_Chess_2.jpg,Green_Star_Chess_4.jpg,Blue_Circle_Stripes_1.jpg,right,1794.1400000001304,true,high,false
asjYPXyY,3xabxm4ak4i034slkfn2gjsp1ra8qu,3mrnmeiqw9j3gm6t0kvoa93np3nldl,asjYPXyY,2020-0188,2020-06-04,10:15:13,10:56:53,NA,incomplete,65,color,0,1,right,Blue_Circle_Grid_3.jpg,Purple_Star_Grid_1.jpg,Blue_Triangle_Chess_2.jpg,right,968.5650000011083,true,high,false
asjYPXyY,3xabxm4ak4i034slkfn2gjsp1ra8qu,3mrnmeiqw9j3gm6t0kvoa93np3nldl,asjYPXyY,2020-0188,2020-06-04,10:15:13,10:56:53,NA,incomplete,66,color,0,1,right,Blue_Circle_Stripes_2.jpg,Purple_Triangle_Stripes_4.jpg,Blue_Star_Dots_3.jpg,right,583.9699999997392,true,high,false
asjYPXyY,3xabxm4ak4i034slkfn2gjsp1ra8qu,3mrnmeiqw9j3gm6t0kvoa93np3nldl,asjYPXyY,2020-0188,2020-06-04,10:15:13,10:56:53,NA,incomplete,67,color,0,1,right,Purple_Star_Grid_1.jpg,Blue_Plus_Grid_4.jpg,Purple_Triangle_Chess_3.jpg,right,784.3699999994133,true,high,false
asjYPXyY,3xabxm4ak4i034slkfn2gjsp1ra8qu,3mrnmeiqw9j3gm6t0kvoa93np3nldl,asjYPXyY,2020-0188,2020-06-04,10:15:13,10:56:53,NA,incomplete,68,color,0,1,right,Green_Plus_Dots_4.jpg,Purple_Circle_Dots_3.jpg,Green_Star_Chess_2.jpg,right,661.5750000001863,true,high,false
asjYPXyY,3xabxm4ak4i034slkfn2gjsp1ra8qu,3mrnmeiqw9j3gm6t0kvoa93np3nldl,asjYPXyY,2020-0188,2020-06-04,10:15:13,10:56:53,NA,incomplete,69,color,0,1,left,Blue_Circle_Chess_1.jpg,Blue_Triangle_Grid_2.jpg,Purple_Plus_Chess_3.jpg,left,1127.0549999990035,true,high,false
asjYPXyY,3xabxm4ak4i034slkfn2gjsp1ra8qu,3mrnmeiqw9j3gm6t0kvoa93np3nldl,asjYPXyY,2020-0188,2020-06-04,10:15:13,10:56:53,NA,incomplete,70,filling,1,0,right,Red_Plus_Grid_1.jpg,Red_Circle_Stripes_2.jpg,Green_Star_Grid_3.jpg,left,691.4250000009779,false,high,false
asjYPXyY,3xabxm4ak4i034slkfn2gjsp1ra8qu,3mrnmeiqw9j3gm6t0kvoa93np3nldl,asjYPXyY,2020-0188,2020-06-04,10:15:13,10:56:53,NA,incomplete,71,filling,1,1,right,Blue_Star_Grid_3.jpg,Blue_Plus_Dots_1.jpg,Purple_Triangle_Grid_4.jpg,left,633.149999999674,false,high,false
asjYPXyY,3xabxm4ak4i034slkfn2gjsp1ra8qu,3mrnmeiqw9j3gm6t0kvoa93np3nldl,asjYPXyY,2020-0188,2020-06-04,10:15:13,10:56:53,NA,incomplete,72,filling,1,1,right,Green_Plus_Stripes_1.jpg,Green_Triangle_Grid_4.jpg,Red_Star_Stripes_3.jpg,left,965.7200000002049,false,high,false
asjYPXyY,3xabxm4ak4i034slkfn2gjsp1ra8qu,3mrnmeiqw9j3gm6t0kvoa93np3nldl,asjYPXyY,2020-0188,2020-06-04,10:15:13,10:56:53,NA,incomplete,73,filling,1,1,right,Red_Star_Stripes_4.jpg,Red_Triangle_Grid_1.jpg,Green_Plus_Stripes_2.jpg,right,987.0550000013318,true,high,false
asjYPXyY,3xabxm4ak4i034slkfn2gjsp1ra8qu,3mrnmeiqw9j3gm6t0kvoa93np3nldl,asjYPXyY,2020-0188,2020-06-04,10:15:13,10:56:53,NA,incomplete,74,filling,1,1,left,Green_Plus_Grid_3.jpg,Red_Star_Grid_2.jpg,Green_Triangle_Dots_4.jpg,left,1003.5650000008754,true,high,false
asjYPXyY,3xabxm4ak4i034slkfn2gjsp1ra8qu,3mrnmeiqw9j3gm6t0kvoa93np3nldl,asjYPXyY,2020-0188,2020-06-04,10:15:13,10:56:53,NA,incomplete,75,filling,1,0,right,Red_Circle_Stripes_4.jpg,Red_Star_Dots_3.jpg,Purple_Plus_Stripes_2.jpg,right,781.4949999991804,true,high,false
asjYPXyY,3xabxm4ak4i034slkfn2gjsp1ra8qu,3mrnmeiqw9j3gm6t0kvoa93np3nldl,asjYPXyY,2020-0188,2020-06-04,10:15:13,10:56:53,NA,incomplete,76,filling,1,1,right,Red_Triangle_Chess_4.jpg,Red_Circle_Stripes_1.jpg,Purple_Star_Chess_2.jpg,left,665.724999998929,false,high,false
asjYPXyY,3xabxm4ak4i034slkfn2gjsp1ra8qu,3mrnmeiqw9j3gm6t0kvoa93np3nldl,asjYPXyY,2020-0188,2020-06-04,10:15:13,10:56:53,NA,incomplete,77,filling,1,1,left,Red_Circle_Stripes_2.jpg,Blue_Star_Stripes_4.jpg,Red_Triangle_Grid_3.jpg,left,1214.5700000000652,true,high,false
asjYPXyY,3xabxm4ak4i034slkfn2gjsp1ra8qu,3mrnmeiqw9j3gm6t0kvoa93np3nldl,asjYPXyY,2020-0188,2020-06-04,10:15:13,10:56:53,NA,incomplete,78,filling,1,1,right,Blue_Star_Chess_1.jpg,Blue_Circle_Dots_3.jpg,Green_Triangle_Chess_4.jpg,right,1445.280000000028,true,high,false
asjYPXyY,3xabxm4ak4i034slkfn2gjsp1ra8qu,3mrnmeiqw9j3gm6t0kvoa93np3nldl,asjYPXyY,2020-0188,2020-06-04,10:15:13,10:56:53,NA,incomplete,79,filling,1,1,left,Purple_Star_Grid_4.jpg,Red_Plus_Grid_1.jpg,Purple_Triangle_Dots_2.jpg,left,919.7449999991804,true,high,false
asjYPXyY,3xabxm4ak4i034slkfn2gjsp1ra8qu,3mrnmeiqw9j3gm6t0kvoa93np3nldl,asjYPXyY,2020-0188,2020-06-04,10:15:13,10:56:53,NA,incomplete,80,color,0,0,left,Blue_Star_Stripes_4.jpg,Blue_Circle_Grid_3.jpg,Green_Plus_Stripes_2.jpg,left,703.2149999996182,true,high,false
asjYPXyY,3xabxm4ak4i034slkfn2gjsp1ra8qu,3mrnmeiqw9j3gm6t0kvoa93np3nldl,asjYPXyY,2020-0188,2020-06-04,10:15:13,10:56:53,NA,incomplete,81,color,0,1,right,Purple_Circle_Grid_4.jpg,Blue_Plus_Grid_1.jpg,Purple_Triangle_Stripes_2.jpg,right,949.4999999988358,true,high,false
asjYPXyY,3xabxm4ak4i034slkfn2gjsp1ra8qu,3mrnmeiqw9j3gm6t0kvoa93np3nldl,asjYPXyY,2020-0188,2020-06-04,10:15:13,10:56:53,NA,incomplete,82,color,0,1,right,Green_Star_Stripes_1.jpg,Purple_Circle_Stripes_2.jpg,Green_Plus_Dots_3.jpg,left,1953.7449999987148,false,high,false
asjYPXyY,3xabxm4ak4i034slkfn2gjsp1ra8qu,3mrnmeiqw9j3gm6t0kvoa93np3nldl,asjYPXyY,2020-0188,2020-06-04,10:15:13,10:56:53,NA,incomplete,83,color,0,1,left,Green_Star_Dots_2.jpg,Green_Circle_Chess_1.jpg,Blue_Plus_Dots_3.jpg,right,939.0499999988824,false,high,false
asjYPXyY,3xabxm4ak4i034slkfn2gjsp1ra8qu,3mrnmeiqw9j3gm6t0kvoa93np3nldl,asjYPXyY,2020-0188,2020-06-04,10:15:13,10:56:53,NA,incomplete,84,color,0,1,right,Red_Star_Stripes_4.jpg,Blue_Plus_Stripes_2.jpg,Red_Circle_Dots_1.jpg,right,952.1000000005588,true,high,false
asjYPXyY,3xabxm4ak4i034slkfn2gjsp1ra8qu,3mrnmeiqw9j3gm6t0kvoa93np3nldl,asjYPXyY,2020-0188,2020-06-04,10:15:13,10:56:53,NA,incomplete,85,color,0,0,left,Red_Circle_Stripes_4.jpg,Red_Plus_Chess_3.jpg,Blue_Triangle_Stripes_1.jpg,left,761.3600000003353,true,high,false
asjYPXyY,3xabxm4ak4i034slkfn2gjsp1ra8qu,3mrnmeiqw9j3gm6t0kvoa93np3nldl,asjYPXyY,2020-0188,2020-06-04,10:15:13,10:56:53,NA,incomplete,86,color,0,1,right,Red_Star_Dots_3.jpg,Green_Triangle_Dots_1.jpg,Red_Circle_Grid_4.jpg,right,1062.4700000006706,true,high,false
asjYPXyY,3xabxm4ak4i034slkfn2gjsp1ra8qu,3mrnmeiqw9j3gm6t0kvoa93np3nldl,asjYPXyY,2020-0188,2020-06-04,10:15:13,10:56:53,NA,incomplete,87,color,0,0,left,Red_Circle_Stripes_2.jpg,Red_Triangle_Chess_3.jpg,Blue_Star_Stripes_1.jpg,left,619.3800000001211,true,high,false
asjYPXyY,3xabxm4ak4i034slkfn2gjsp1ra8qu,3mrnmeiqw9j3gm6t0kvoa93np3nldl,asjYPXyY,2020-0188,2020-06-04,10:15:13,10:56:53,NA,incomplete,88,color,0,1,right,Red_Triangle_Dots_3.jpg,Green_Plus_Dots_2.jpg,Red_Circle_Chess_1.jpg,right,743.6249999990687,true,high,false
asjYPXyY,3xabxm4ak4i034slkfn2gjsp1ra8qu,3mrnmeiqw9j3gm6t0kvoa93np3nldl,asjYPXyY,2020-0188,2020-06-04,10:15:13,10:56:53,NA,incomplete,89,color,0,1,left,Green_Circle_Chess_4.jpg,Green_Plus_Dots_1.jpg,Purple_Star_Chess_3.jpg,left,1098.3649999997579,true,high,false
asjYPXyY,3xabxm4ak4i034slkfn2gjsp1ra8qu,3mrnmeiqw9j3gm6t0kvoa93np3nldl,asjYPXyY,2020-0188,2020-06-04,10:15:13,10:56:53,NA,incomplete,90,filling,1,1,left,Purple_Star_Grid_3.jpg,Red_Plus_Grid_2.jpg,Purple_Circle_Chess_4.jpg,right,535.7349999996368,false,high,false
asjYPXyY,3xabxm4ak4i034slkfn2gjsp1ra8qu,3mrnmeiqw9j3gm6t0kvoa93np3nldl,asjYPXyY,2020-0188,2020-06-04,10:15:13,10:56:53,NA,incomplete,91,filling,1,0,left,Green_Plus_Stripes_2.jpg,Blue_Circle_Stripes_3.jpg,Green_Triangle_Grid_1.jpg,right,840.1249999988358,false,high,false
asjYPXyY,3xabxm4ak4i034slkfn2gjsp1ra8qu,3mrnmeiqw9j3gm6t0kvoa93np3nldl,asjYPXyY,2020-0188,2020-06-04,10:15:13,10:56:53,NA,incomplete,92,filling,1,1,left,Red_Star_Dots_1.jpg,Green_Circle_Dots_2.jpg,Red_Triangle_Grid_3.jpg,right,708.8050000001676,false,high,false
asjYPXyY,3xabxm4ak4i034slkfn2gjsp1ra8qu,3mrnmeiqw9j3gm6t0kvoa93np3nldl,asjYPXyY,2020-0188,2020-06-04,10:15:13,10:56:53,NA,incomplete,93,filling,1,1,right,Green_Circle_Chess_1.jpg,Green_Plus_Grid_2.jpg,Blue_Star_Chess_4.jpg,left,920.5750000001863,false,high,false
asjYPXyY,3xabxm4ak4i034slkfn2gjsp1ra8qu,3mrnmeiqw9j3gm6t0kvoa93np3nldl,asjYPXyY,2020-0188,2020-06-04,10:15:13,10:56:53,NA,incomplete,94,filling,1,1,right,Blue_Plus_Stripes_2.jpg,Blue_Star_Grid_4.jpg,Red_Triangle_Stripes_1.jpg,left,867.1899999990128,false,high,false
asjYPXyY,3xabxm4ak4i034slkfn2gjsp1ra8qu,3mrnmeiqw9j3gm6t0kvoa93np3nldl,asjYPXyY,2020-0188,2020-06-04,10:15:13,10:56:53,NA,incomplete,95,filling,1,1,right,Red_Star_Grid_4.jpg,Red_Triangle_Stripes_2.jpg,Purple_Plus_Grid_1.jpg,right,849.9699999992736,true,high,false
asjYPXyY,3xabxm4ak4i034slkfn2gjsp1ra8qu,3mrnmeiqw9j3gm6t0kvoa93np3nldl,asjYPXyY,2020-0188,2020-06-04,10:15:13,10:56:53,NA,incomplete,96,filling,1,0,right,Purple_Circle_Stripes_1.jpg,Purple_Star_Dots_3.jpg,Red_Triangle_Stripes_4.jpg,right,892.0049999998882,true,high,false
asjYPXyY,3xabxm4ak4i034slkfn2gjsp1ra8qu,3mrnmeiqw9j3gm6t0kvoa93np3nldl,asjYPXyY,2020-0188,2020-06-04,10:15:13,10:56:53,NA,incomplete,97,filling,1,1,right,Purple_Triangle_Grid_3.jpg,Purple_Star_Dots_2.jpg,Green_Circle_Grid_4.jpg,left,722.0400000005029,false,high,false
asjYPXyY,3xabxm4ak4i034slkfn2gjsp1ra8qu,3mrnmeiqw9j3gm6t0kvoa93np3nldl,asjYPXyY,2020-0188,2020-06-04,10:15:13,10:56:53,NA,incomplete,98,filling,1,1,left,Red_Circle_Grid_1.jpg,Green_Star_Grid_2.jpg,Red_Plus_Stripes_4.jpg,left,1009.7349999996368,true,high,false
asjYPXyY,3xabxm4ak4i034slkfn2gjsp1ra8qu,3mrnmeiqw9j3gm6t0kvoa93np3nldl,asjYPXyY,2020-0188,2020-06-04,10:15:13,10:56:53,NA,incomplete,99,filling,1,1,right,Purple_Star_Grid_3.jpg,Purple_Circle_Chess_2.jpg,Red_Triangle_Grid_4.jpg,right,908.7799999997951,true,high,false
asjYPXyY,3xabxm4ak4i034slkfn2gjsp1ra8qu,3mrnmeiqw9j3gm6t0kvoa93np3nldl,asjYPXyY,2020-0188,2020-06-04,10:15:13,10:56:53,NA,incomplete,100,color,0,1,right,Blue_Plus_Chess_2.jpg,Green_Star_Chess_4.jpg,Blue_Triangle_Dots_3.jpg,left,771.2749999992084,false,high,false
asjYPXyY,3xabxm4ak4i034slkfn2gjsp1ra8qu,3mrnmeiqw9j3gm6t0kvoa93np3nldl,asjYPXyY,2020-0188,2020-06-04,10:15:13,10:56:53,NA,incomplete,101,color,0,0,right,Red_Plus_Stripes_3.jpg,Green_Circle_Stripes_2.jpg,Red_Star_Dots_4.jpg,left,1189.7950000003912,false,high,false
asjYPXyY,3xabxm4ak4i034slkfn2gjsp1ra8qu,3mrnmeiqw9j3gm6t0kvoa93np3nldl,asjYPXyY,2020-0188,2020-06-04,10:15:13,10:56:53,NA,incomplete,102,color,0,0,left,Purple_Triangle_Chess_2.jpg,Purple_Plus_Stripes_3.jpg,Green_Circle_Chess_1.jpg,left,878.3249999997206,true,high,false
asjYPXyY,3xabxm4ak4i034slkfn2gjsp1ra8qu,3mrnmeiqw9j3gm6t0kvoa93np3nldl,asjYPXyY,2020-0188,2020-06-04,10:15:13,10:56:53,NA,incomplete,103,color,0,1,right,Blue_Triangle_Grid_1.jpg,Green_Plus_Grid_2.jpg,Blue_Circle_Dots_3.jpg,right,1224.5999999996275,true,high,false
asjYPXyY,3xabxm4ak4i034slkfn2gjsp1ra8qu,3mrnmeiqw9j3gm6t0kvoa93np3nldl,asjYPXyY,2020-0188,2020-06-04,10:15:13,10:56:53,NA,incomplete,104,color,0,1,right,Red_Circle_Stripes_2.jpg,Purple_Triangle_Stripes_4.jpg,Red_Plus_Chess_1.jpg,right,756.6600000008475,true,high,false
asjYPXyY,3xabxm4ak4i034slkfn2gjsp1ra8qu,3mrnmeiqw9j3gm6t0kvoa93np3nldl,asjYPXyY,2020-0188,2020-06-04,10:15:13,10:56:53,NA,incomplete,105,color,0,0,left,Blue_Triangle_Stripes_1.jpg,Blue_Plus_Dots_3.jpg,Green_Circle_Stripes_2.jpg,left,653.875,true,high,false
asjYPXyY,3xabxm4ak4i034slkfn2gjsp1ra8qu,3mrnmeiqw9j3gm6t0kvoa93np3nldl,asjYPXyY,2020-0188,2020-06-04,10:15:13,10:56:53,NA,incomplete,106,color,0,1,left,Purple_Circle_Grid_2.jpg,Purple_Triangle_Chess_3.jpg,Green_Star_Grid_1.jpg,right,1030.4999999988358,false,high,false
asjYPXyY,3xabxm4ak4i034slkfn2gjsp1ra8qu,3mrnmeiqw9j3gm6t0kvoa93np3nldl,asjYPXyY,2020-0188,2020-06-04,10:15:13,10:56:53,NA,incomplete,107,color,0,1,right,Blue_Circle_Grid_1.jpg,Purple_Plus_Grid_4.jpg,Blue_Star_Chess_3.jpg,right,656.6299999996554,true,high,false
asjYPXyY,3xabxm4ak4i034slkfn2gjsp1ra8qu,3mrnmeiqw9j3gm6t0kvoa93np3nldl,asjYPXyY,2020-0188,2020-06-04,10:15:13,10:56:53,NA,incomplete,108,color,0,1,right,Red_Star_Stripes_4.jpg,Green_Plus_Stripes_2.jpg,Red_Triangle_Chess_3.jpg,right,699.284999998752,true,high,false
asjYPXyY,3xabxm4ak4i034slkfn2gjsp1ra8qu,3mrnmeiqw9j3gm6t0kvoa93np3nldl,asjYPXyY,2020-0188,2020-06-04,10:15:13,10:56:53,NA,incomplete,109,color,0,1,right,Purple_Circle_Stripes_3.jpg,Blue_Triangle_Stripes_1.jpg,Purple_Star_Chess_4.jpg,right,653.3649999999907,true,high,false
asjYPXyY,3xabxm4ak4i034slkfn2gjsp1ra8qu,3mrnmeiqw9j3gm6t0kvoa93np3nldl,asjYPXyY,2020-0188,2020-06-04,10:15:13,10:56:53,NA,incomplete,110,filling,1,1,left,Blue_Plus_Grid_3.jpg,Red_Circle_Grid_2.jpg,Blue_Triangle_Chess_4.jpg,right,1134.9700000011362,false,high,false
asjYPXyY,3xabxm4ak4i034slkfn2gjsp1ra8qu,3mrnmeiqw9j3gm6t0kvoa93np3nldl,asjYPXyY,2020-0188,2020-06-04,10:15:13,10:56:53,NA,incomplete,111,filling,1,1,right,Green_Triangle_Dots_1.jpg,Green_Circle_Grid_2.jpg,Purple_Plus_Dots_3.jpg,right,983.4499999997206,true,high,false
asjYPXyY,3xabxm4ak4i034slkfn2gjsp1ra8qu,3mrnmeiqw9j3gm6t0kvoa93np3nldl,asjYPXyY,2020-0188,2020-06-04,10:15:13,10:56:53,NA,incomplete,112,filling,1,1,left,Purple_Plus_Chess_1.jpg,Blue_Circle_Chess_2.jpg,Purple_Star_Dots_3.jpg,left,999.9900000002235,true,high,false
asjYPXyY,3xabxm4ak4i034slkfn2gjsp1ra8qu,3mrnmeiqw9j3gm6t0kvoa93np3nldl,asjYPXyY,2020-0188,2020-06-04,10:15:13,10:56:53,NA,incomplete,113,filling,1,0,right,Red_Star_Stripes_1.jpg,Red_Circle_Dots_3.jpg,Green_Triangle_Stripes_2.jpg,left,1523.074999999022,false,high,false
asjYPXyY,3xabxm4ak4i034slkfn2gjsp1ra8qu,3mrnmeiqw9j3gm6t0kvoa93np3nldl,asjYPXyY,2020-0188,2020-06-04,10:15:13,10:56:53,NA,incomplete,114,filling,1,1,right,Purple_Circle_Dots_3.jpg,Purple_Triangle_Grid_2.jpg,Green_Plus_Dots_4.jpg,left,604.625,false,high,false
asjYPXyY,3xabxm4ak4i034slkfn2gjsp1ra8qu,3mrnmeiqw9j3gm6t0kvoa93np3nldl,asjYPXyY,2020-0188,2020-06-04,10:15:13,10:56:53,NA,incomplete,115,filling,1,1,right,Red_Triangle_Chess_4.jpg,Red_Star_Grid_1.jpg,Green_Plus_Chess_2.jpg,right,1032.7400000004563,true,high,false
asjYPXyY,3xabxm4ak4i034slkfn2gjsp1ra8qu,3mrnmeiqw9j3gm6t0kvoa93np3nldl,asjYPXyY,2020-0188,2020-06-04,10:15:13,10:56:53,NA,incomplete,116,filling,1,0,right,Red_Star_Dots_3.jpg,Red_Plus_Stripes_1.jpg,Green_Circle_Dots_4.jpg,right,1124.369999999646,true,high,false
asjYPXyY,3xabxm4ak4i034slkfn2gjsp1ra8qu,3mrnmeiqw9j3gm6t0kvoa93np3nldl,asjYPXyY,2020-0188,2020-06-04,10:15:13,10:56:53,NA,incomplete,117,filling,1,1,left,Red_Plus_Dots_1.jpg,Green_Triangle_Dots_3.jpg,Red_Circle_Grid_4.jpg,right,1456.4350000000559,false,high,false
asjYPXyY,3xabxm4ak4i034slkfn2gjsp1ra8qu,3mrnmeiqw9j3gm6t0kvoa93np3nldl,asjYPXyY,2020-0188,2020-06-04,10:15:13,10:56:53,NA,incomplete,118,filling,1,1,right,Green_Triangle_Chess_1.jpg,Green_Circle_Grid_4.jpg,Red_Plus_Chess_2.jpg,left,1039.1299999991897,false,high,false
asjYPXyY,3xabxm4ak4i034slkfn2gjsp1ra8qu,3mrnmeiqw9j3gm6t0kvoa93np3nldl,asjYPXyY,2020-0188,2020-06-04,10:15:13,10:56:53,NA,incomplete,119,filling,1,1,left,Blue_Star_Grid_3.jpg,Green_Plus_Grid_2.jpg,Blue_Circle_Chess_4.jpg,right,883.4950000001118,false,high,false
asjYPXyY,3xabxm4ak4i034slkfn2gjsp1ra8qu,3mrnmeiqw9j3gm6t0kvoa93np3nldl,asjYPXyY,2020-0188,2020-06-04,10:15:13,10:56:53,NA,incomplete,120,race,2,0,right,A_F_12.jpg,C_F_09.jpg,A_M_16.jpg,NA,NA,NA,high,false
asjYPXyY,3xabxm4ak4i034slkfn2gjsp1ra8qu,3mrnmeiqw9j3gm6t0kvoa93np3nldl,asjYPXyY,2020-0188,2020-06-04,10:15:13,10:56:53,NA,incomplete,121,race,2,1,left,C_F_14.jpg,C_M_08.jpg,A_F_12.jpg,left,910.3400000003166,true,high,false
asjYPXyY,3xabxm4ak4i034slkfn2gjsp1ra8qu,3mrnmeiqw9j3gm6t0kvoa93np3nldl,asjYPXyY,2020-0188,2020-06-04,10:15:13,10:56:53,NA,incomplete,122,race,2,0,right,C_M_13.jpg,A_M_15.jpg,C_F_07.jpg,left,744.8349999994971,false,high,false
asjYPXyY,3xabxm4ak4i034slkfn2gjsp1ra8qu,3mrnmeiqw9j3gm6t0kvoa93np3nldl,asjYPXyY,2020-0188,2020-06-04,10:15:13,10:56:53,NA,incomplete,123,race,2,1,left,A_F_02.jpg,A_M_11.jpg,C_F_01.jpg,right,657.5450000003912,false,high,false
asjYPXyY,3xabxm4ak4i034slkfn2gjsp1ra8qu,3mrnmeiqw9j3gm6t0kvoa93np3nldl,asjYPXyY,2020-0188,2020-06-04,10:15:13,10:56:53,NA,incomplete,124,race,2,1,left,A_F_09.jpg,A_M_12.jpg,C_F_15.jpg,left,874.0949999992736,true,high,false
asjYPXyY,3xabxm4ak4i034slkfn2gjsp1ra8qu,3mrnmeiqw9j3gm6t0kvoa93np3nldl,asjYPXyY,2020-0188,2020-06-04,10:15:13,10:56:53,NA,incomplete,125,race,2,0,right,A_M_08.jpg,C_M_07.jpg,A_F_14.jpg,right,1145.5150000001304,true,high,false
asjYPXyY,3xabxm4ak4i034slkfn2gjsp1ra8qu,3mrnmeiqw9j3gm6t0kvoa93np3nldl,asjYPXyY,2020-0188,2020-06-04,10:15:13,10:56:53,NA,incomplete,126,race,2,1,left,A_M_06.jpg,A_F_01.jpg,C_M_08.jpg,right,1117.3849999993108,false,high,false
asjYPXyY,3xabxm4ak4i034slkfn2gjsp1ra8qu,3mrnmeiqw9j3gm6t0kvoa93np3nldl,asjYPXyY,2020-0188,2020-06-04,10:15:13,10:56:53,NA,incomplete,127,race,2,1,right,C_M_09.jpg,A_M_03.jpg,C_F_15.jpg,right,1108.9449999998324,true,high,false
asjYPXyY,3xabxm4ak4i034slkfn2gjsp1ra8qu,3mrnmeiqw9j3gm6t0kvoa93np3nldl,asjYPXyY,2020-0188,2020-06-04,10:15:13,10:56:53,NA,incomplete,128,race,2,1,left,C_M_03.jpg,C_F_16.jpg,A_M_12.jpg,left,787.0299999993294,true,high,false
asjYPXyY,3xabxm4ak4i034slkfn2gjsp1ra8qu,3mrnmeiqw9j3gm6t0kvoa93np3nldl,asjYPXyY,2020-0188,2020-06-04,10:15:13,10:56:53,NA,incomplete,129,race,2,1,left,C_F_07.jpg,C_M_15.jpg,A_F_10.jpg,left,1028.0449999989942,true,high,false
asjYPXyY,3xabxm4ak4i034slkfn2gjsp1ra8qu,3mrnmeiqw9j3gm6t0kvoa93np3nldl,asjYPXyY,2020-0188,2020-06-04,10:15:13,10:56:53,NA,incomplete,130,race,2,0,left,C_M_08.jpg,C_F_11.jpg,A_M_14.jpg,right,1246.1800000001676,false,high,false
asjYPXyY,3xabxm4ak4i034slkfn2gjsp1ra8qu,3mrnmeiqw9j3gm6t0kvoa93np3nldl,asjYPXyY,2020-0188,2020-06-04,10:15:13,10:56:53,NA,incomplete,131,race,2,1,right,C_F_03.jpg,A_F_06.jpg,C_M_10.jpg,left,1264.5200000004843,false,high,false
asjYPXyY,3xabxm4ak4i034slkfn2gjsp1ra8qu,3mrnmeiqw9j3gm6t0kvoa93np3nldl,asjYPXyY,2020-0188,2020-06-04,10:15:13,10:56:53,NA,incomplete,132,race,2,1,right,A_M_06.jpg,C_M_04.jpg,A_F_07.jpg,left,1048.8999999999069,false,high,false
asjYPXyY,3xabxm4ak4i034slkfn2gjsp1ra8qu,3mrnmeiqw9j3gm6t0kvoa93np3nldl,asjYPXyY,2020-0188,2020-06-04,10:15:13,10:56:53,NA,incomplete,133,race,2,1,right,A_M_12.jpg,C_M_05.jpg,A_F_06.jpg,right,821.4350000000559,true,high,false
asjYPXyY,3xabxm4ak4i034slkfn2gjsp1ra8qu,3mrnmeiqw9j3gm6t0kvoa93np3nldl,asjYPXyY,2020-0188,2020-06-04,10:15:13,10:56:53,NA,incomplete,134,race,2,1,left,C_M_08.jpg,C_F_04.jpg,A_M_01.jpg,left,1040.5599999991246,true,high,false
asjYPXyY,3xabxm4ak4i034slkfn2gjsp1ra8qu,3mrnmeiqw9j3gm6t0kvoa93np3nldl,asjYPXyY,2020-0188,2020-06-04,10:15:13,10:56:53,NA,incomplete,135,race,2,0,right,A_M_03.jpg,C_M_09.jpg,A_F_07.jpg,left,869.1650000000373,false,high,false
asjYPXyY,3xabxm4ak4i034slkfn2gjsp1ra8qu,3mrnmeiqw9j3gm6t0kvoa93np3nldl,asjYPXyY,2020-0188,2020-06-04,10:15:13,10:56:53,NA,incomplete,136,race,2,1,left,A_F_03.jpg,A_M_11.jpg,C_F_16.jpg,right,1005.859999999404,false,high,false
asjYPXyY,3xabxm4ak4i034slkfn2gjsp1ra8qu,3mrnmeiqw9j3gm6t0kvoa93np3nldl,asjYPXyY,2020-0188,2020-06-04,10:15:13,10:56:53,NA,incomplete,137,race,2,1,right,A_M_13.jpg,C_M_10.jpg,A_F_06.jpg,right,1435.3100000009872,true,high,false
asjYPXyY,3xabxm4ak4i034slkfn2gjsp1ra8qu,3mrnmeiqw9j3gm6t0kvoa93np3nldl,asjYPXyY,2020-0188,2020-06-04,10:15:13,10:56:53,NA,incomplete,138,race,2,1,left,A_F_07.jpg,A_M_16.jpg,C_F_04.jpg,left,771.0100000002421,true,high,false
asjYPXyY,3xabxm4ak4i034slkfn2gjsp1ra8qu,3mrnmeiqw9j3gm6t0kvoa93np3nldl,asjYPXyY,2020-0188,2020-06-04,10:15:13,10:56:53,NA,incomplete,139,race,2,1,right,A_F_03.jpg,C_F_09.jpg,A_M_06.jpg,left,751.1049999995157,false,high,false
asjYPXyY,3xabxm4ak4i034slkfn2gjsp1ra8qu,3mrnmeiqw9j3gm6t0kvoa93np3nldl,asjYPXyY,2020-0188,2020-06-04,10:15:13,10:56:53,NA,incomplete,140,gender,3,1,right,A_M_08.jpg,A_F_13.jpg,C_M_05.jpg,left,813.4599999976344,false,high,false
asjYPXyY,3xabxm4ak4i034slkfn2gjsp1ra8qu,3mrnmeiqw9j3gm6t0kvoa93np3nldl,asjYPXyY,2020-0188,2020-06-04,10:15:13,10:56:53,NA,incomplete,141,gender,3,0,right,A_F_05.jpg,A_M_03.jpg,C_F_14.jpg,left,1722.9350000014529,false,high,false
asjYPXyY,3xabxm4ak4i034slkfn2gjsp1ra8qu,3mrnmeiqw9j3gm6t0kvoa93np3nldl,asjYPXyY,2020-0188,2020-06-04,10:15:13,10:56:53,NA,incomplete,142,gender,3,1,right,C_M_16.jpg,C_F_06.jpg,A_M_12.jpg,right,947.3549999999814,true,high,false
asjYPXyY,3xabxm4ak4i034slkfn2gjsp1ra8qu,3mrnmeiqw9j3gm6t0kvoa93np3nldl,asjYPXyY,2020-0188,2020-06-04,10:15:13,10:56:53,NA,incomplete,143,gender,3,1,right,A_M_06.jpg,A_F_03.jpg,C_M_11.jpg,right,1287.4100000006147,true,high,false
asjYPXyY,3xabxm4ak4i034slkfn2gjsp1ra8qu,3mrnmeiqw9j3gm6t0kvoa93np3nldl,asjYPXyY,2020-0188,2020-06-04,10:15:13,10:56:53,NA,incomplete,144,gender,3,1,left,C_F_05.jpg,A_F_10.jpg,C_M_04.jpg,left,1519.7449999977835,true,high,false
asjYPXyY,3xabxm4ak4i034slkfn2gjsp1ra8qu,3mrnmeiqw9j3gm6t0kvoa93np3nldl,asjYPXyY,2020-0188,2020-06-04,10:15:13,10:56:53,NA,incomplete,145,gender,3,1,right,C_M_14.jpg,C_F_01.jpg,A_M_15.jpg,right,1373.2500000004657,true,high,false
asjYPXyY,3xabxm4ak4i034slkfn2gjsp1ra8qu,3mrnmeiqw9j3gm6t0kvoa93np3nldl,asjYPXyY,2020-0188,2020-06-04,10:15:13,10:56:53,NA,incomplete,146,gender,3,1,right,C_F_05.jpg,C_M_13.jpg,A_F_06.jpg,right,1005.1649999986403,true,high,false
asjYPXyY,3xabxm4ak4i034slkfn2gjsp1ra8qu,3mrnmeiqw9j3gm6t0kvoa93np3nldl,asjYPXyY,2020-0188,2020-06-04,10:15:13,10:56:53,NA,incomplete,147,gender,3,0,left,C_M_01.jpg,A_M_14.jpg,C_F_04.jpg,left,930.4899999988265,true,high,false
asjYPXyY,3xabxm4ak4i034slkfn2gjsp1ra8qu,3mrnmeiqw9j3gm6t0kvoa93np3nldl,asjYPXyY,2020-0188,2020-06-04,10:15:13,10:56:53,NA,incomplete,148,gender,3,1,right,A_M_09.jpg,A_F_08.jpg,C_M_04.jpg,right,1506.7799999993294,true,high,false
asjYPXyY,3xabxm4ak4i034slkfn2gjsp1ra8qu,3mrnmeiqw9j3gm6t0kvoa93np3nldl,asjYPXyY,2020-0188,2020-06-04,10:15:13,10:56:53,NA,incomplete,149,gender,3,1,right,C_M_04.jpg,C_F_10.jpg,A_M_15.jpg,right,1253.0650000008754,true,high,false
asjYPXyY,3xabxm4ak4i034slkfn2gjsp1ra8qu,3mrnmeiqw9j3gm6t0kvoa93np3nldl,asjYPXyY,2020-0188,2020-06-04,10:15:13,10:56:53,NA,incomplete,150,gender,3,0,right,C_F_01.jpg,C_M_09.jpg,A_F_03.jpg,left,909.8699999996461,false,high,false
asjYPXyY,3xabxm4ak4i034slkfn2gjsp1ra8qu,3mrnmeiqw9j3gm6t0kvoa93np3nldl,asjYPXyY,2020-0188,2020-06-04,10:15:13,10:56:53,NA,incomplete,151,gender,3,1,left,A_F_08.jpg,C_F_06.jpg,A_M_04.jpg,right,1287.3450000006706,false,high,false
asjYPXyY,3xabxm4ak4i034slkfn2gjsp1ra8qu,3mrnmeiqw9j3gm6t0kvoa93np3nldl,asjYPXyY,2020-0188,2020-06-04,10:15:13,10:56:53,NA,incomplete,152,gender,3,1,left,A_F_07.jpg,C_F_05.jpg,A_M_09.jpg,left,913.7700000028126,true,high,false
asjYPXyY,3xabxm4ak4i034slkfn2gjsp1ra8qu,3mrnmeiqw9j3gm6t0kvoa93np3nldl,asjYPXyY,2020-0188,2020-06-04,10:15:13,10:56:53,NA,incomplete,153,gender,3,1,left,C_M_15.jpg,A_M_08.jpg,C_F_01.jpg,right,913.7699999990873,false,high,false
asjYPXyY,3xabxm4ak4i034slkfn2gjsp1ra8qu,3mrnmeiqw9j3gm6t0kvoa93np3nldl,asjYPXyY,2020-0188,2020-06-04,10:15:13,10:56:53,NA,incomplete,154,gender,3,0,right,A_M_10.jpg,A_F_04.jpg,C_M_13.jpg,left,1809.1899999999441,false,high,false
asjYPXyY,3xabxm4ak4i034slkfn2gjsp1ra8qu,3mrnmeiqw9j3gm6t0kvoa93np3nldl,asjYPXyY,2020-0188,2020-06-04,10:15:13,10:56:53,NA,incomplete,155,gender,3,1,left,C_F_11.jpg,A_F_03.jpg,C_M_05.jpg,right,988.4349999991246,false,high,false
asjYPXyY,3xabxm4ak4i034slkfn2gjsp1ra8qu,3mrnmeiqw9j3gm6t0kvoa93np3nldl,asjYPXyY,2020-0188,2020-06-04,10:15:13,10:56:53,NA,incomplete,156,gender,3,1,right,A_M_03.jpg,A_F_04.jpg,C_M_09.jpg,left,1001.4850000008009,false,high,false
asjYPXyY,3xabxm4ak4i034slkfn2gjsp1ra8qu,3mrnmeiqw9j3gm6t0kvoa93np3nldl,asjYPXyY,2020-0188,2020-06-04,10:15:13,10:56:53,NA,incomplete,157,gender,3,0,left,A_M_12.jpg,C_M_03.jpg,A_F_06.jpg,right,969.7950000008568,false,high,false
asjYPXyY,3xabxm4ak4i034slkfn2gjsp1ra8qu,3mrnmeiqw9j3gm6t0kvoa93np3nldl,asjYPXyY,2020-0188,2020-06-04,10:15:13,10:56:53,NA,incomplete,158,gender,3,1,right,C_M_06.jpg,C_F_09.jpg,A_M_08.jpg,left,1399.2700000018813,false,high,false
asjYPXyY,3xabxm4ak4i034slkfn2gjsp1ra8qu,3mrnmeiqw9j3gm6t0kvoa93np3nldl,asjYPXyY,2020-0188,2020-06-04,10:15:13,10:56:53,NA,incomplete,159,gender,3,0,right,A_F_12.jpg,A_M_06.jpg,C_F_09.jpg,right,999.5650000018068,true,high,false
asjYPXyY,3xabxm4ak4i034slkfn2gjsp1ra8qu,3mrnmeiqw9j3gm6t0kvoa93np3nldl,asjYPXyY,2020-0188,2020-06-04,10:15:13,10:56:53,NA,incomplete,160,race,2,1,right,C_F_09.jpg,A_F_13.jpg,C_M_06.jpg,right,1417.3699999991804,true,high,false
asjYPXyY,3xabxm4ak4i034slkfn2gjsp1ra8qu,3mrnmeiqw9j3gm6t0kvoa93np3nldl,asjYPXyY,2020-0188,2020-06-04,10:15:13,10:56:53,NA,incomplete,161,race,2,1,right,A_M_01.jpg,C_M_06.jpg,A_F_03.jpg,right,939.7300000023097,true,high,false
asjYPXyY,3xabxm4ak4i034slkfn2gjsp1ra8qu,3mrnmeiqw9j3gm6t0kvoa93np3nldl,asjYPXyY,2020-0188,2020-06-04,10:15:13,10:56:53,NA,incomplete,162,race,2,1,right,A_M_03.jpg,C_M_05.jpg,A_F_10.jpg,right,802.2650000024587,true,high,false
asjYPXyY,3xabxm4ak4i034slkfn2gjsp1ra8qu,3mrnmeiqw9j3gm6t0kvoa93np3nldl,asjYPXyY,2020-0188,2020-06-04,10:15:13,10:56:53,NA,incomplete,163,race,2,1,left,C_M_03.jpg,C_F_12.jpg,A_M_02.jpg,left,1227.235000002198,true,high,false
asjYPXyY,3xabxm4ak4i034slkfn2gjsp1ra8qu,3mrnmeiqw9j3gm6t0kvoa93np3nldl,asjYPXyY,2020-0188,2020-06-04,10:15:13,10:56:53,NA,incomplete,164,race,2,0,left,A_F_14.jpg,A_M_11.jpg,C_F_02.jpg,right,1460.6749999984168,false,high,false
asjYPXyY,3xabxm4ak4i034slkfn2gjsp1ra8qu,3mrnmeiqw9j3gm6t0kvoa93np3nldl,asjYPXyY,2020-0188,2020-06-04,10:15:13,10:56:53,NA,incomplete,165,race,2,1,left,A_M_10.jpg,A_F_14.jpg,C_M_01.jpg,left,885.2550000008196,true,high,false
asjYPXyY,3xabxm4ak4i034slkfn2gjsp1ra8qu,3mrnmeiqw9j3gm6t0kvoa93np3nldl,asjYPXyY,2020-0188,2020-06-04,10:15:13,10:56:53,NA,incomplete,166,race,2,1,left,A_F_10.jpg,A_M_12.jpg,C_F_04.jpg,right,861.6449999972247,false,high,false
asjYPXyY,3xabxm4ak4i034slkfn2gjsp1ra8qu,3mrnmeiqw9j3gm6t0kvoa93np3nldl,asjYPXyY,2020-0188,2020-06-04,10:15:13,10:56:53,NA,incomplete,167,race,2,1,left,C_M_04.jpg,C_F_15.jpg,A_M_12.jpg,left,858.5050000003539,true,high,false
asjYPXyY,3xabxm4ak4i034slkfn2gjsp1ra8qu,3mrnmeiqw9j3gm6t0kvoa93np3nldl,asjYPXyY,2020-0188,2020-06-04,10:15:13,10:56:53,NA,incomplete,168,race,2,1,right,C_M_10.jpg,A_M_16.jpg,C_F_14.jpg,right,979.1850000000559,true,high,false
asjYPXyY,3xabxm4ak4i034slkfn2gjsp1ra8qu,3mrnmeiqw9j3gm6t0kvoa93np3nldl,asjYPXyY,2020-0188,2020-06-04,10:15:13,10:56:53,NA,incomplete,169,race,2,0,right,C_F_02.jpg,A_F_05.jpg,C_M_06.jpg,left,744.1800000015646,false,high,false
asjYPXyY,3xabxm4ak4i034slkfn2gjsp1ra8qu,3mrnmeiqw9j3gm6t0kvoa93np3nldl,asjYPXyY,2020-0188,2020-06-04,10:15:13,10:56:53,NA,incomplete,170,race,2,1,left,C_F_01.jpg,C_M_10.jpg,A_F_14.jpg,right,768.4399999999441,false,high,false
asjYPXyY,3xabxm4ak4i034slkfn2gjsp1ra8qu,3mrnmeiqw9j3gm6t0kvoa93np3nldl,asjYPXyY,2020-0188,2020-06-04,10:15:13,10:56:53,NA,incomplete,171,race,2,1,left,C_M_07.jpg,C_F_06.jpg,A_M_16.jpg,left,833.8000000002794,true,high,false
asjYPXyY,3xabxm4ak4i034slkfn2gjsp1ra8qu,3mrnmeiqw9j3gm6t0kvoa93np3nldl,asjYPXyY,2020-0188,2020-06-04,10:15:13,10:56:53,NA,incomplete,172,race,2,1,right,A_M_04.jpg,C_M_16.jpg,A_F_08.jpg,right,716.375,true,high,false
asjYPXyY,3xabxm4ak4i034slkfn2gjsp1ra8qu,3mrnmeiqw9j3gm6t0kvoa93np3nldl,asjYPXyY,2020-0188,2020-06-04,10:15:13,10:56:53,NA,incomplete,173,race,2,1,right,C_M_14.jpg,A_M_16.jpg,C_F_01.jpg,left,706.6849999972619,false,high,false
asjYPXyY,3xabxm4ak4i034slkfn2gjsp1ra8qu,3mrnmeiqw9j3gm6t0kvoa93np3nldl,asjYPXyY,2020-0188,2020-06-04,10:15:13,10:56:53,NA,incomplete,174,race,2,1,left,C_F_10.jpg,C_M_11.jpg,A_F_06.jpg,left,860.7299999999814,true,high,false
asjYPXyY,3xabxm4ak4i034slkfn2gjsp1ra8qu,3mrnmeiqw9j3gm6t0kvoa93np3nldl,asjYPXyY,2020-0188,2020-06-04,10:15:13,10:56:53,NA,incomplete,175,race,2,1,left,A_F_13.jpg,A_M_04.jpg,C_F_12.jpg,left,846.3500000000931,true,high,false
asjYPXyY,3xabxm4ak4i034slkfn2gjsp1ra8qu,3mrnmeiqw9j3gm6t0kvoa93np3nldl,asjYPXyY,2020-0188,2020-06-04,10:15:13,10:56:53,NA,incomplete,176,race,2,0,right,C_M_12.jpg,A_M_11.jpg,C_F_07.jpg,right,1424.6450000028126,true,high,false
asjYPXyY,3xabxm4ak4i034slkfn2gjsp1ra8qu,3mrnmeiqw9j3gm6t0kvoa93np3nldl,asjYPXyY,2020-0188,2020-06-04,10:15:13,10:56:53,NA,incomplete,177,race,2,1,left,A_F_04.jpg,A_M_09.jpg,C_F_12.jpg,left,1055.0799999982119,true,high,false
asjYPXyY,3xabxm4ak4i034slkfn2gjsp1ra8qu,3mrnmeiqw9j3gm6t0kvoa93np3nldl,asjYPXyY,2020-0188,2020-06-04,10:15:13,10:56:53,NA,incomplete,178,race,2,0,right,A_M_13.jpg,C_M_04.jpg,A_F_09.jpg,right,987.6399999996647,true,high,false
asjYPXyY,3xabxm4ak4i034slkfn2gjsp1ra8qu,3mrnmeiqw9j3gm6t0kvoa93np3nldl,asjYPXyY,2020-0188,2020-06-04,10:15:13,10:56:53,NA,incomplete,179,race,2,1,left,A_F_10.jpg,A_M_16.jpg,C_F_06.jpg,left,1022.2300000023097,true,high,false
asjYPXyY,3xabxm4ak4i034slkfn2gjsp1ra8qu,3mrnmeiqw9j3gm6t0kvoa93np3nldl,asjYPXyY,2020-0188,2020-06-04,10:15:13,10:56:53,NA,incomplete,180,gender,3,1,right,A_F_14.jpg,A_M_11.jpg,C_F_03.jpg,left,837.534999998752,false,high,false
asjYPXyY,3xabxm4ak4i034slkfn2gjsp1ra8qu,3mrnmeiqw9j3gm6t0kvoa93np3nldl,asjYPXyY,2020-0188,2020-06-04,10:15:13,10:56:53,NA,incomplete,181,gender,3,1,left,A_F_09.jpg,C_F_12.jpg,A_M_14.jpg,left,1195.2700000004843,true,high,false
asjYPXyY,3xabxm4ak4i034slkfn2gjsp1ra8qu,3mrnmeiqw9j3gm6t0kvoa93np3nldl,asjYPXyY,2020-0188,2020-06-04,10:15:13,10:56:53,NA,incomplete,182,gender,3,1,right,C_F_10.jpg,C_M_02.jpg,A_F_04.jpg,left,1239.359999999404,false,high,false
asjYPXyY,3xabxm4ak4i034slkfn2gjsp1ra8qu,3mrnmeiqw9j3gm6t0kvoa93np3nldl,asjYPXyY,2020-0188,2020-06-04,10:15:13,10:56:53,NA,incomplete,183,gender,3,0,left,A_F_06.jpg,C_F_04.jpg,A_M_16.jpg,right,1204.1650000028312,false,high,false
asjYPXyY,3xabxm4ak4i034slkfn2gjsp1ra8qu,3mrnmeiqw9j3gm6t0kvoa93np3nldl,asjYPXyY,2020-0188,2020-06-04,10:15:13,10:56:53,NA,incomplete,184,gender,3,1,left,A_F_16.jpg,C_F_09.jpg,A_M_15.jpg,left,802.1799999987707,true,high,false
asjYPXyY,3xabxm4ak4i034slkfn2gjsp1ra8qu,3mrnmeiqw9j3gm6t0kvoa93np3nldl,asjYPXyY,2020-0188,2020-06-04,10:15:13,10:56:53,NA,incomplete,185,gender,3,1,right,A_M_12.jpg,A_F_01.jpg,C_M_04.jpg,right,843.2100000027567,true,high,false
asjYPXyY,3xabxm4ak4i034slkfn2gjsp1ra8qu,3mrnmeiqw9j3gm6t0kvoa93np3nldl,asjYPXyY,2020-0188,2020-06-04,10:15:13,10:56:53,NA,incomplete,186,gender,3,1,right,A_F_03.jpg,A_M_12.jpg,C_F_14.jpg,right,906.9600000004284,true,high,false
asjYPXyY,3xabxm4ak4i034slkfn2gjsp1ra8qu,3mrnmeiqw9j3gm6t0kvoa93np3nldl,asjYPXyY,2020-0188,2020-06-04,10:15:13,10:56:53,NA,incomplete,187,gender,3,1,left,A_M_11.jpg,C_M_02.jpg,A_F_15.jpg,left,1493.6899999994785,true,high,false
asjYPXyY,3xabxm4ak4i034slkfn2gjsp1ra8qu,3mrnmeiqw9j3gm6t0kvoa93np3nldl,asjYPXyY,2020-0188,2020-06-04,10:15:13,10:56:53,NA,incomplete,188,gender,3,1,right,C_F_03.jpg,C_M_12.jpg,A_F_15.jpg,right,905.0350000034086,true,high,false
asjYPXyY,3xabxm4ak4i034slkfn2gjsp1ra8qu,3mrnmeiqw9j3gm6t0kvoa93np3nldl,asjYPXyY,2020-0188,2020-06-04,10:15:13,10:56:53,NA,incomplete,189,gender,3,1,right,C_F_13.jpg,C_M_09.jpg,A_F_10.jpg,left,1577.4000000022352,false,high,false
asjYPXyY,3xabxm4ak4i034slkfn2gjsp1ra8qu,3mrnmeiqw9j3gm6t0kvoa93np3nldl,asjYPXyY,2020-0188,2020-06-04,10:15:13,10:56:53,NA,incomplete,190,gender,3,1,left,A_M_10.jpg,C_M_12.jpg,A_F_06.jpg,right,860.0399999995716,false,high,false
asjYPXyY,3xabxm4ak4i034slkfn2gjsp1ra8qu,3mrnmeiqw9j3gm6t0kvoa93np3nldl,asjYPXyY,2020-0188,2020-06-04,10:15:13,10:56:53,NA,incomplete,191,gender,3,1,left,C_M_02.jpg,A_M_05.jpg,C_F_10.jpg,left,880.6650000005029,true,high,false
asjYPXyY,3xabxm4ak4i034slkfn2gjsp1ra8qu,3mrnmeiqw9j3gm6t0kvoa93np3nldl,asjYPXyY,2020-0188,2020-06-04,10:15:13,10:56:53,NA,incomplete,192,gender,3,1,right,C_F_14.jpg,C_M_13.jpg,A_F_10.jpg,left,591.8700000005774,false,high,false
asjYPXyY,3xabxm4ak4i034slkfn2gjsp1ra8qu,3mrnmeiqw9j3gm6t0kvoa93np3nldl,asjYPXyY,2020-0188,2020-06-04,10:15:13,10:56:53,NA,incomplete,193,gender,3,1,left,C_M_11.jpg,A_M_10.jpg,C_F_01.jpg,right,909.9300000015646,false,high,false
asjYPXyY,3xabxm4ak4i034slkfn2gjsp1ra8qu,3mrnmeiqw9j3gm6t0kvoa93np3nldl,asjYPXyY,2020-0188,2020-06-04,10:15:13,10:56:53,NA,incomplete,194,gender,3,1,left,C_M_11.jpg,A_M_10.jpg,C_F_02.jpg,left,726.3850000021048,true,high,false
asjYPXyY,3xabxm4ak4i034slkfn2gjsp1ra8qu,3mrnmeiqw9j3gm6t0kvoa93np3nldl,asjYPXyY,2020-0188,2020-06-04,10:15:13,10:56:53,NA,incomplete,195,gender,3,1,left,A_F_14.jpg,C_F_03.jpg,A_M_12.jpg,right,807.8050000006333,false,high,false
asjYPXyY,3xabxm4ak4i034slkfn2gjsp1ra8qu,3mrnmeiqw9j3gm6t0kvoa93np3nldl,asjYPXyY,2020-0188,2020-06-04,10:15:13,10:56:53,NA,incomplete,196,gender,3,0,right,A_F_13.jpg,A_M_03.jpg,C_F_12.jpg,left,1022.9150000014342,false,high,false
asjYPXyY,3xabxm4ak4i034slkfn2gjsp1ra8qu,3mrnmeiqw9j3gm6t0kvoa93np3nldl,asjYPXyY,2020-0188,2020-06-04,10:15:13,10:56:53,NA,incomplete,197,gender,3,1,right,A_M_08.jpg,A_F_05.jpg,C_M_09.jpg,left,940.3349999994971,false,high,false
asjYPXyY,3xabxm4ak4i034slkfn2gjsp1ra8qu,3mrnmeiqw9j3gm6t0kvoa93np3nldl,asjYPXyY,2020-0188,2020-06-04,10:15:13,10:56:53,NA,incomplete,198,gender,3,0,right,A_F_01.jpg,A_M_11.jpg,C_F_12.jpg,right,1179.9549999996088,true,high,false
asjYPXyY,3xabxm4ak4i034slkfn2gjsp1ra8qu,3mrnmeiqw9j3gm6t0kvoa93np3nldl,asjYPXyY,2020-0188,2020-06-04,10:15:13,10:56:53,NA,incomplete,199,gender,3,1,right,C_M_16.jpg,C_F_12.jpg,A_M_06.jpg,left,673.0900000003166,false,high,false
asjYPXyY,3xabxm4ak4i034slkfn2gjsp1ra8qu,3mrnmeiqw9j3gm6t0kvoa93np3nldl,asjYPXyY,2020-0188,2020-06-04,10:15:13,10:56:53,NA,incomplete,200,race,2,0,left,C_M_07.jpg,C_F_12.jpg,A_M_05.jpg,left,701.8950000023469,true,high,false
asjYPXyY,3xabxm4ak4i034slkfn2gjsp1ra8qu,3mrnmeiqw9j3gm6t0kvoa93np3nldl,asjYPXyY,2020-0188,2020-06-04,10:15:13,10:56:53,NA,incomplete,201,race,2,1,left,C_M_02.jpg,C_F_06.jpg,A_M_04.jpg,right,1546.0049999998882,false,high,false
asjYPXyY,3xabxm4ak4i034slkfn2gjsp1ra8qu,3mrnmeiqw9j3gm6t0kvoa93np3nldl,asjYPXyY,2020-0188,2020-06-04,10:15:13,10:56:53,NA,incomplete,202,race,2,1,right,C_M_16.jpg,A_M_14.jpg,C_F_13.jpg,left,587.0450000003912,false,high,false
asjYPXyY,3xabxm4ak4i034slkfn2gjsp1ra8qu,3mrnmeiqw9j3gm6t0kvoa93np3nldl,asjYPXyY,2020-0188,2020-06-04,10:15:13,10:56:53,NA,incomplete,203,race,2,1,right,C_F_15.jpg,A_F_09.jpg,C_M_11.jpg,right,1346.3649999974295,true,high,false
asjYPXyY,3xabxm4ak4i034slkfn2gjsp1ra8qu,3mrnmeiqw9j3gm6t0kvoa93np3nldl,asjYPXyY,2020-0188,2020-06-04,10:15:13,10:56:53,NA,incomplete,204,race,2,1,left,A_F_10.jpg,A_M_14.jpg,C_F_02.jpg,left,811.0850000013597,true,high,false
asjYPXyY,3xabxm4ak4i034slkfn2gjsp1ra8qu,3mrnmeiqw9j3gm6t0kvoa93np3nldl,asjYPXyY,2020-0188,2020-06-04,10:15:13,10:56:53,NA,incomplete,205,race,2,1,right,A_M_01.jpg,C_M_12.jpg,A_F_05.jpg,left,1562.2150000017136,false,high,false
asjYPXyY,3xabxm4ak4i034slkfn2gjsp1ra8qu,3mrnmeiqw9j3gm6t0kvoa93np3nldl,asjYPXyY,2020-0188,2020-06-04,10:15:13,10:56:53,NA,incomplete,206,race,2,1,right,A_F_04.jpg,C_F_07.jpg,A_M_06.jpg,none,0,false,high,false
asjYPXyY,3xabxm4ak4i034slkfn2gjsp1ra8qu,3mrnmeiqw9j3gm6t0kvoa93np3nldl,asjYPXyY,2020-0188,2020-06-04,10:15:13,10:56:53,NA,incomplete,207,race,2,1,right,A_F_10.jpg,C_F_14.jpg,A_M_01.jpg,left,768.8849999974482,false,high,false
asjYPXyY,3xabxm4ak4i034slkfn2gjsp1ra8qu,3mrnmeiqw9j3gm6t0kvoa93np3nldl,asjYPXyY,2020-0188,2020-06-04,10:15:13,10:56:53,NA,incomplete,208,race,2,1,right,C_M_13.jpg,A_M_06.jpg,C_F_04.jpg,left,782.6200000015087,false,high,false
asjYPXyY,3xabxm4ak4i034slkfn2gjsp1ra8qu,3mrnmeiqw9j3gm6t0kvoa93np3nldl,asjYPXyY,2020-0188,2020-06-04,10:15:13,10:56:53,NA,incomplete,209,race,2,0,left,A_F_03.jpg,A_M_04.jpg,C_F_15.jpg,right,1011.4800000009127,false,high,false
asjYPXyY,3xabxm4ak4i034slkfn2gjsp1ra8qu,3mrnmeiqw9j3gm6t0kvoa93np3nldl,asjYPXyY,2020-0188,2020-06-04,10:15:13,10:56:53,NA,incomplete,210,race,2,1,right,A_M_14.jpg,C_M_07.jpg,A_F_02.jpg,left,916.9550000005402,false,high,false
asjYPXyY,3xabxm4ak4i034slkfn2gjsp1ra8qu,3mrnmeiqw9j3gm6t0kvoa93np3nldl,asjYPXyY,2020-0188,2020-06-04,10:15:13,10:56:53,NA,incomplete,211,race,2,1,left,A_M_10.jpg,A_F_06.jpg,C_M_11.jpg,left,995.4500000020489,true,high,false
asjYPXyY,3xabxm4ak4i034slkfn2gjsp1ra8qu,3mrnmeiqw9j3gm6t0kvoa93np3nldl,asjYPXyY,2020-0188,2020-06-04,10:15:13,10:56:53,NA,incomplete,212,race,2,1,right,C_F_03.jpg,A_F_09.jpg,C_M_07.jpg,left,920.8899999978021,false,high,false
asjYPXyY,3xabxm4ak4i034slkfn2gjsp1ra8qu,3mrnmeiqw9j3gm6t0kvoa93np3nldl,asjYPXyY,2020-0188,2020-06-04,10:15:13,10:56:53,NA,incomplete,213,race,2,1,right,A_F_01.jpg,C_F_12.jpg,A_M_09.jpg,right,908.2799999993294,true,high,false
asjYPXyY,3xabxm4ak4i034slkfn2gjsp1ra8qu,3mrnmeiqw9j3gm6t0kvoa93np3nldl,asjYPXyY,2020-0188,2020-06-04,10:15:13,10:56:53,NA,incomplete,214,race,2,0,right,C_M_13.jpg,A_M_06.jpg,C_F_15.jpg,right,962.7550000003539,true,high,false
asjYPXyY,3xabxm4ak4i034slkfn2gjsp1ra8qu,3mrnmeiqw9j3gm6t0kvoa93np3nldl,asjYPXyY,2020-0188,2020-06-04,10:15:13,10:56:53,NA,incomplete,215,race,2,1,right,C_F_11.jpg,A_F_09.jpg,C_M_15.jpg,left,783.4250000016764,false,high,false
asjYPXyY,3xabxm4ak4i034slkfn2gjsp1ra8qu,3mrnmeiqw9j3gm6t0kvoa93np3nldl,asjYPXyY,2020-0188,2020-06-04,10:15:13,10:56:53,NA,incomplete,216,race,2,1,right,C_F_08.jpg,A_F_15.jpg,C_M_09.jpg,left,1377.2050000005402,false,high,false
asjYPXyY,3xabxm4ak4i034slkfn2gjsp1ra8qu,3mrnmeiqw9j3gm6t0kvoa93np3nldl,asjYPXyY,2020-0188,2020-06-04,10:15:13,10:56:53,NA,incomplete,217,race,2,1,right,C_M_06.jpg,A_M_07.jpg,C_F_01.jpg,right,1067.1350000011735,true,high,false
asjYPXyY,3xabxm4ak4i034slkfn2gjsp1ra8qu,3mrnmeiqw9j3gm6t0kvoa93np3nldl,asjYPXyY,2020-0188,2020-06-04,10:15:13,10:56:53,NA,incomplete,218,race,2,1,right,A_M_08.jpg,C_M_12.jpg,A_F_06.jpg,right,884.3649999978952,true,high,false
asjYPXyY,3xabxm4ak4i034slkfn2gjsp1ra8qu,3mrnmeiqw9j3gm6t0kvoa93np3nldl,asjYPXyY,2020-0188,2020-06-04,10:15:13,10:56:53,NA,incomplete,219,race,2,1,right,C_F_02.jpg,A_F_11.jpg,C_M_07.jpg,right,1093.6550000007264,true,high,false
asjYPXyY,3xabxm4ak4i034slkfn2gjsp1ra8qu,3mrnmeiqw9j3gm6t0kvoa93np3nldl,asjYPXyY,2020-0188,2020-06-04,10:15:13,10:56:53,NA,incomplete,220,gender,3,0,right,A_F_15.jpg,A_M_05.jpg,C_F_07.jpg,left,946.5600000005215,false,high,false
asjYPXyY,3xabxm4ak4i034slkfn2gjsp1ra8qu,3mrnmeiqw9j3gm6t0kvoa93np3nldl,asjYPXyY,2020-0188,2020-06-04,10:15:13,10:56:53,NA,incomplete,221,gender,3,1,right,C_F_10.jpg,C_M_03.jpg,A_F_12.jpg,right,778.9599999994971,true,high,false
asjYPXyY,3xabxm4ak4i034slkfn2gjsp1ra8qu,3mrnmeiqw9j3gm6t0kvoa93np3nldl,asjYPXyY,2020-0188,2020-06-04,10:15:13,10:56:53,NA,incomplete,222,gender,3,0,right,A_M_06.jpg,A_F_09.jpg,C_M_14.jpg,left,751.5600000005215,false,high,false
asjYPXyY,3xabxm4ak4i034slkfn2gjsp1ra8qu,3mrnmeiqw9j3gm6t0kvoa93np3nldl,asjYPXyY,2020-0188,2020-06-04,10:15:13,10:56:53,NA,incomplete,223,gender,3,1,left,C_M_01.jpg,A_M_15.jpg,C_F_16.jpg,right,957.3249999997206,false,high,false
asjYPXyY,3xabxm4ak4i034slkfn2gjsp1ra8qu,3mrnmeiqw9j3gm6t0kvoa93np3nldl,asjYPXyY,2020-0188,2020-06-04,10:15:13,10:56:53,NA,incomplete,224,gender,3,1,right,C_F_06.jpg,C_M_08.jpg,A_F_14.jpg,right,993.0750000020489,true,high,false
asjYPXyY,3xabxm4ak4i034slkfn2gjsp1ra8qu,3mrnmeiqw9j3gm6t0kvoa93np3nldl,asjYPXyY,2020-0188,2020-06-04,10:15:13,10:56:53,NA,incomplete,225,gender,3,1,right,A_F_12.jpg,A_M_14.jpg,C_F_03.jpg,right,801.4350000009872,true,high,false
asjYPXyY,3xabxm4ak4i034slkfn2gjsp1ra8qu,3mrnmeiqw9j3gm6t0kvoa93np3nldl,asjYPXyY,2020-0188,2020-06-04,10:15:13,10:56:53,NA,incomplete,226,gender,3,1,left,C_F_06.jpg,A_F_10.jpg,C_M_02.jpg,right,1058.6349999974482,false,high,false
asjYPXyY,3xabxm4ak4i034slkfn2gjsp1ra8qu,3mrnmeiqw9j3gm6t0kvoa93np3nldl,asjYPXyY,2020-0188,2020-06-04,10:15:13,10:56:53,NA,incomplete,227,gender,3,0,left,A_F_07.jpg,C_F_08.jpg,A_M_13.jpg,left,894.3349999971688,true,high,false
asjYPXyY,3xabxm4ak4i034slkfn2gjsp1ra8qu,3mrnmeiqw9j3gm6t0kvoa93np3nldl,asjYPXyY,2020-0188,2020-06-04,10:15:13,10:56:53,NA,incomplete,228,gender,3,1,right,A_M_04.jpg,A_F_16.jpg,C_M_15.jpg,left,867.4199999989942,false,high,false
asjYPXyY,3xabxm4ak4i034slkfn2gjsp1ra8qu,3mrnmeiqw9j3gm6t0kvoa93np3nldl,asjYPXyY,2020-0188,2020-06-04,10:15:13,10:56:53,NA,incomplete,229,gender,3,1,left,C_F_01.jpg,A_F_10.jpg,C_M_09.jpg,right,948.6999999969266,false,high,false
asjYPXyY,3xabxm4ak4i034slkfn2gjsp1ra8qu,3mrnmeiqw9j3gm6t0kvoa93np3nldl,asjYPXyY,2020-0188,2020-06-04,10:15:13,10:56:53,NA,incomplete,230,gender,3,1,right,C_F_07.jpg,C_M_08.jpg,A_F_09.jpg,right,899.3850000002421,true,high,false
asjYPXyY,3xabxm4ak4i034slkfn2gjsp1ra8qu,3mrnmeiqw9j3gm6t0kvoa93np3nldl,asjYPXyY,2020-0188,2020-06-04,10:15:13,10:56:53,NA,incomplete,231,gender,3,1,left,C_M_05.jpg,A_M_13.jpg,C_F_03.jpg,left,764.6650000028312,true,high,false
asjYPXyY,3xabxm4ak4i034slkfn2gjsp1ra8qu,3mrnmeiqw9j3gm6t0kvoa93np3nldl,asjYPXyY,2020-0188,2020-06-04,10:15:13,10:56:53,NA,incomplete,232,gender,3,1,right,A_M_08.jpg,A_F_11.jpg,C_M_16.jpg,right,755.3149999985471,true,high,false
asjYPXyY,3xabxm4ak4i034slkfn2gjsp1ra8qu,3mrnmeiqw9j3gm6t0kvoa93np3nldl,asjYPXyY,2020-0188,2020-06-04,10:15:13,10:56:53,NA,incomplete,233,gender,3,1,left,C_M_13.jpg,A_M_06.jpg,C_F_16.jpg,right,851.1150000011548,false,high,false
asjYPXyY,3xabxm4ak4i034slkfn2gjsp1ra8qu,3mrnmeiqw9j3gm6t0kvoa93np3nldl,asjYPXyY,2020-0188,2020-06-04,10:15:13,10:56:53,NA,incomplete,234,gender,3,1,right,C_M_04.jpg,C_F_15.jpg,A_M_11.jpg,left,615.7200000016019,false,high,false
asjYPXyY,3xabxm4ak4i034slkfn2gjsp1ra8qu,3mrnmeiqw9j3gm6t0kvoa93np3nldl,asjYPXyY,2020-0188,2020-06-04,10:15:13,10:56:53,NA,incomplete,235,gender,3,1,left,C_F_10.jpg,A_F_09.jpg,C_M_08.jpg,left,821.1850000005215,true,high,false
asjYPXyY,3xabxm4ak4i034slkfn2gjsp1ra8qu,3mrnmeiqw9j3gm6t0kvoa93np3nldl,asjYPXyY,2020-0188,2020-06-04,10:15:13,10:56:53,NA,incomplete,236,gender,3,1,left,C_F_05.jpg,A_F_09.jpg,C_M_08.jpg,left,846.7449999987148,true,high,false
asjYPXyY,3xabxm4ak4i034slkfn2gjsp1ra8qu,3mrnmeiqw9j3gm6t0kvoa93np3nldl,asjYPXyY,2020-0188,2020-06-04,10:15:13,10:56:53,NA,incomplete,237,gender,3,1,left,C_M_01.jpg,A_M_12.jpg,C_F_15.jpg,left,929.269999996759,true,high,false
asjYPXyY,3xabxm4ak4i034slkfn2gjsp1ra8qu,3mrnmeiqw9j3gm6t0kvoa93np3nldl,asjYPXyY,2020-0188,2020-06-04,10:15:13,10:56:53,NA,incomplete,238,gender,3,1,left,A_F_07.jpg,C_F_02.jpg,A_M_15.jpg,right,806.0349999978207,false,high,false
asjYPXyY,3xabxm4ak4i034slkfn2gjsp1ra8qu,3mrnmeiqw9j3gm6t0kvoa93np3nldl,asjYPXyY,2020-0188,2020-06-04,10:15:13,10:56:53,NA,incomplete,239,gender,3,1,right,C_M_03.jpg,C_F_05.jpg,A_M_11.jpg,left,433.17500000214204,false,high,false
asjYPXyY,3xabxm4ak4i034slkfn2gjsp1ra8qu,3mrnmeiqw9j3gm6t0kvoa93np3nldl,asjYPXyY,2020-0188,2020-06-04,10:15:13,10:56:53,NA,NA,instruction example,color,NA,NA,NA,Purple_Triangle_Dots_4.jpg,Purple_Circle_Grid_1.jpg,Red_Plus_Dots_3.jpg,NA,NA,NA,NA,undefined
asjYPXyY,3xabxm4ak4i034slkfn2gjsp1ra8qu,3mrnmeiqw9j3gm6t0kvoa93np3nldl,asjYPXyY,2020-0188,2020-06-04,10:15:13,10:56:53,NA,NA,instruction example,color,NA,NA,NA,Red_Triangle_Grid_2.jpg,Purple_Circle_Grid_4.jpg,Red_Star_Dots_3.jpg,NA,NA,NA,NA,undefined
asjYPXyY,3xabxm4ak4i034slkfn2gjsp1ra8qu,3mrnmeiqw9j3gm6t0kvoa93np3nldl,asjYPXyY,2020-0188,2020-06-04,10:15:13,10:56:53,NA,NA,instruction example,color,NA,NA,NA,C_M_13.jpg,C_F_15.jpg,A_M_16.jpg,NA,NA,NA,NA,undefined
asjYPXyY,3xabxm4ak4i034slkfn2gjsp1ra8qu,3mrnmeiqw9j3gm6t0kvoa93np3nldl,asjYPXyY,2020-0188,2020-06-04,10:15:13,10:56:53,NA,NA,instruction example,color,NA,NA,NA,A_M_06.jpg,C_M_01.jpg,A_F_16.jpg,NA,NA,NA,NA,undefined
