workerId,hitId,assignmentId,subject,studyid,exp_date,exp_start,exp_end,time_start,time_end,trial,type,sequence,reward_validity,answer,image_top,image_left,image_right,response,response_time,response_acc,volatility,practice
FeLk0489,3pgqrazx15xrvqygpna1awvsi04ysb,3mtmreqs4zvlt9fgkobotjcyyj2awv,FeLk0489,2020-0188,2020-11-16,17:10:11,17:28:05,NA,incomplete,0,shape,0,1,left,Red_Plus_Stripes_1.jpg,Purple_Plus_Grid_3.jpg,Blue_Star_Chess_1.jpg,right,965.5899999997928,false,NA,true
FeLk0489,3pgqrazx15xrvqygpna1awvsi04ysb,3mtmreqs4zvlt9fgkobotjcyyj2awv,FeLk0489,2020-0188,2020-11-16,17:10:11,17:28:05,NA,incomplete,1,shape,0,0,left,Blue_Circle_Dots_4.jpg,Green_Circle_Chess_3.jpg,Purple_Star_Grid_4.jpg,none,0,false,NA,true
FeLk0489,3pgqrazx15xrvqygpna1awvsi04ysb,3mtmreqs4zvlt9fgkobotjcyyj2awv,FeLk0489,2020-0188,2020-11-16,17:10:11,17:28:05,NA,incomplete,2,shape,0,1,left,Green_Triangle_Grid_1.jpg,Purple_Triangle_Chess_2.jpg,Red_Star_Dots_1.jpg,left,1105.569999999716,true,NA,true
FeLk0489,3pgqrazx15xrvqygpna1awvsi04ysb,3mtmreqs4zvlt9fgkobotjcyyj2awv,FeLk0489,2020-0188,2020-11-16,17:10:11,17:28:05,NA,incomplete,3,shape,0,1,left,Blue_Triangle_Grid_2.jpg,Purple_Triangle_Dots_4.jpg,Green_Star_Chess_2.jpg,left,1046.2050000024028,true,NA,true
FeLk0489,3pgqrazx15xrvqygpna1awvsi04ysb,3mtmreqs4zvlt9fgkobotjcyyj2awv,FeLk0489,2020-0188,2020-11-16,17:10:11,17:28:05,NA,incomplete,4,shape,0,1,right,Purple_Plus_Grid_4.jpg,Green_Triangle_Chess_4.jpg,Blue_Plus_Stripes_2.jpg,right,1022.1500000007218,true,NA,true
FeLk0489,3pgqrazx15xrvqygpna1awvsi04ysb,3mtmreqs4zvlt9fgkobotjcyyj2awv,FeLk0489,2020-0188,2020-11-16,17:10:11,17:28:05,NA,incomplete,5,shape,0,0,right,Purple_Circle_Dots_3.jpg,Green_Plus_Grid_3.jpg,Red_Circle_Chess_1.jpg,right,978.2850000010221,true,NA,true
FeLk0489,3pgqrazx15xrvqygpna1awvsi04ysb,3mtmreqs4zvlt9fgkobotjcyyj2awv,FeLk0489,2020-0188,2020-11-16,17:10:11,17:28:05,NA,incomplete,6,shape,0,1,right,Red_Circle_Dots_1.jpg,Blue_Star_Stripes_1.jpg,Green_Circle_Grid_3.jpg,right,1040.5850000025239,true,NA,true
FeLk0489,3pgqrazx15xrvqygpna1awvsi04ysb,3mtmreqs4zvlt9fgkobotjcyyj2awv,FeLk0489,2020-0188,2020-11-16,17:10:11,17:28:05,NA,incomplete,7,shape,0,1,right,Green_Plus_Chess_1.jpg,Red_Star_Stripes_1.jpg,Blue_Plus_Grid_4.jpg,right,1172.354999998759,true,NA,true
FeLk0489,3pgqrazx15xrvqygpna1awvsi04ysb,3mtmreqs4zvlt9fgkobotjcyyj2awv,FeLk0489,2020-0188,2020-11-16,17:10:11,17:28:05,NA,incomplete,8,shape,0,1,right,Blue_Circle_Grid_2.jpg,Green_Triangle_Chess_2.jpg,Purple_Circle_Stripes_1.jpg,right,851.6100000015576,true,NA,true
FeLk0489,3pgqrazx15xrvqygpna1awvsi04ysb,3mtmreqs4zvlt9fgkobotjcyyj2awv,FeLk0489,2020-0188,2020-11-16,17:10:11,17:28:05,NA,incomplete,9,shape,0,0,left,Green_Triangle_Dots_1.jpg,Purple_Triangle_Chess_2.jpg,Blue_Circle_Stripes_1.jpg,left,1070.144999997865,true,NA,true
FeLk0489,3pgqrazx15xrvqygpna1awvsi04ysb,3mtmreqs4zvlt9fgkobotjcyyj2awv,FeLk0489,2020-0188,2020-11-16,17:10:11,17:28:05,NA,incomplete,10,shape,0,1,left,Green_Triangle_Grid_3.jpg,Blue_Triangle_Chess_4.jpg,Purple_Circle_Stripes_3.jpg,left,1026.8699999978999,true,NA,true
FeLk0489,3pgqrazx15xrvqygpna1awvsi04ysb,3mtmreqs4zvlt9fgkobotjcyyj2awv,FeLk0489,2020-0188,2020-11-16,17:10:11,17:28:05,NA,incomplete,11,shape,0,1,left,Purple_Star_Chess_2.jpg,Blue_Star_Grid_4.jpg,Green_Circle_Dots_2.jpg,left,1040.4950000011013,true,NA,true
FeLk0489,3pgqrazx15xrvqygpna1awvsi04ysb,3mtmreqs4zvlt9fgkobotjcyyj2awv,FeLk0489,2020-0188,2020-11-16,17:10:11,17:28:05,NA,incomplete,12,shape,0,1,left,Green_Star_Dots_1.jpg,Purple_Star_Chess_4.jpg,Blue_Plus_Grid_1.jpg,left,1138.7749999994412,true,NA,true
FeLk0489,3pgqrazx15xrvqygpna1awvsi04ysb,3mtmreqs4zvlt9fgkobotjcyyj2awv,FeLk0489,2020-0188,2020-11-16,17:10:11,17:28:05,NA,incomplete,13,shape,0,1,left,Green_Triangle_Chess_4.jpg,Purple_Triangle_Stripes_3.jpg,Red_Circle_Grid_4.jpg,left,1250.1000000011409,true,NA,true
FeLk0489,3pgqrazx15xrvqygpna1awvsi04ysb,3mtmreqs4zvlt9fgkobotjcyyj2awv,FeLk0489,2020-0188,2020-11-16,17:10:11,17:28:05,NA,incomplete,14,shape,0,1,left,Red_Circle_Stripes_3.jpg,Blue_Circle_Chess_1.jpg,Green_Plus_Dots_3.jpg,left,885.1200000026147,true,NA,true
FeLk0489,3pgqrazx15xrvqygpna1awvsi04ysb,3mtmreqs4zvlt9fgkobotjcyyj2awv,FeLk0489,2020-0188,2020-11-16,17:10:11,17:28:05,NA,incomplete,15,shape,0,1,left,Purple_Plus_Stripes_1.jpg,Blue_Plus_Grid_2.jpg,Green_Triangle_Dots_1.jpg,left,893.8549999984098,true,NA,true
FeLk0489,3pgqrazx15xrvqygpna1awvsi04ysb,3mtmreqs4zvlt9fgkobotjcyyj2awv,FeLk0489,2020-0188,2020-11-16,17:10:11,17:28:05,NA,incomplete,16,shape,0,1,left,Red_Triangle_Grid_4.jpg,Purple_Triangle_Chess_1.jpg,Blue_Circle_Stripes_4.jpg,left,1055.100000001432,true,NA,true
FeLk0489,3pgqrazx15xrvqygpna1awvsi04ysb,3mtmreqs4zvlt9fgkobotjcyyj2awv,FeLk0489,2020-0188,2020-11-16,17:10:11,17:28:05,NA,incomplete,17,shape,0,1,left,Red_Triangle_Stripes_1.jpg,Blue_Triangle_Grid_2.jpg,Green_Star_Dots_1.jpg,left,870.65000000078,true,NA,true
FeLk0489,3pgqrazx15xrvqygpna1awvsi04ysb,3mtmreqs4zvlt9fgkobotjcyyj2awv,FeLk0489,2020-0188,2020-11-16,17:10:11,17:28:05,NA,incomplete,18,shape,0,1,right,Red_Plus_Chess_4.jpg,Blue_Star_Stripes_4.jpg,Green_Plus_Grid_1.jpg,right,985.8050000002258,true,NA,true
FeLk0489,3pgqrazx15xrvqygpna1awvsi04ysb,3mtmreqs4zvlt9fgkobotjcyyj2awv,FeLk0489,2020-0188,2020-11-16,17:10:11,17:28:05,NA,incomplete,19,shape,0,1,left,Green_Circle_Dots_1.jpg,Purple_Circle_Grid_2.jpg,Red_Triangle_Stripes_1.jpg,left,751.2649999989662,true,NA,true
FeLk0489,3pgqrazx15xrvqygpna1awvsi04ysb,3mtmreqs4zvlt9fgkobotjcyyj2awv,FeLk0489,2020-0188,2020-11-16,17:10:11,17:28:05,NA,incomplete,20,number,1,1,left,Blue_Triangle_Chess_4.jpg,Red_Star_Dots_4.jpg,Green_Triangle_Grid_1.jpg,left,1109.455000001588,true,NA,true
FeLk0489,3pgqrazx15xrvqygpna1awvsi04ysb,3mtmreqs4zvlt9fgkobotjcyyj2awv,FeLk0489,2020-0188,2020-11-16,17:10:11,17:28:05,NA,incomplete,21,number,1,1,right,Red_Circle_Stripes_4.jpg,Green_Circle_Dots_1.jpg,Blue_Triangle_Chess_4.jpg,right,1374.0150000012945,true,NA,true
FeLk0489,3pgqrazx15xrvqygpna1awvsi04ysb,3mtmreqs4zvlt9fgkobotjcyyj2awv,FeLk0489,2020-0188,2020-11-16,17:10:11,17:28:05,NA,incomplete,22,number,1,1,right,Purple_Triangle_Chess_3.jpg,Red_Triangle_Dots_1.jpg,Blue_Star_Grid_3.jpg,right,954.8250000007683,true,NA,true
FeLk0489,3pgqrazx15xrvqygpna1awvsi04ysb,3mtmreqs4zvlt9fgkobotjcyyj2awv,FeLk0489,2020-0188,2020-11-16,17:10:11,17:28:05,NA,incomplete,23,number,1,1,right,Red_Circle_Stripes_2.jpg,Purple_Circle_Chess_1.jpg,Blue_Star_Grid_2.jpg,left,829.249999998894,false,NA,true
FeLk0489,3pgqrazx15xrvqygpna1awvsi04ysb,3mtmreqs4zvlt9fgkobotjcyyj2awv,FeLk0489,2020-0188,2020-11-16,17:10:11,17:28:05,NA,incomplete,24,number,1,0,left,Red_Star_Stripes_4.jpg,Blue_Triangle_Grid_4.jpg,Green_Star_Chess_1.jpg,left,949.4249999988824,true,NA,true
FeLk0489,3pgqrazx15xrvqygpna1awvsi04ysb,3mtmreqs4zvlt9fgkobotjcyyj2awv,FeLk0489,2020-0188,2020-11-16,17:10:11,17:28:05,NA,incomplete,25,number,1,1,right,Green_Star_Chess_1.jpg,Red_Star_Grid_4.jpg,Blue_Circle_Dots_1.jpg,right,811.0950000009034,true,NA,true
FeLk0489,3pgqrazx15xrvqygpna1awvsi04ysb,3mtmreqs4zvlt9fgkobotjcyyj2awv,FeLk0489,2020-0188,2020-11-16,17:10:11,17:28:05,NA,incomplete,26,number,1,1,right,Purple_Triangle_Chess_4.jpg,Red_Triangle_Dots_2.jpg,Green_Circle_Grid_4.jpg,right,978.5400000000373,true,NA,true
FeLk0489,3pgqrazx15xrvqygpna1awvsi04ysb,3mtmreqs4zvlt9fgkobotjcyyj2awv,FeLk0489,2020-0188,2020-11-16,17:10:11,17:28:05,NA,incomplete,27,number,1,1,left,Red_Circle_Chess_2.jpg,Purple_Plus_Stripes_2.jpg,Green_Circle_Dots_3.jpg,right,1037.0350000011967,false,NA,true
FeLk0489,3pgqrazx15xrvqygpna1awvsi04ysb,3mtmreqs4zvlt9fgkobotjcyyj2awv,FeLk0489,2020-0188,2020-11-16,17:10:11,17:28:05,NA,incomplete,28,number,1,1,left,Red_Circle_Chess_1.jpg,Blue_Star_Grid_1.jpg,Purple_Circle_Dots_4.jpg,left,821.0949999993318,true,NA,true
FeLk0489,3pgqrazx15xrvqygpna1awvsi04ysb,3mtmreqs4zvlt9fgkobotjcyyj2awv,FeLk0489,2020-0188,2020-11-16,17:10:11,17:28:05,NA,incomplete,29,number,1,0,left,Red_Star_Dots_4.jpg,Purple_Triangle_Stripes_4.jpg,Green_Star_Chess_2.jpg,left,893.7499999992433,true,NA,true
FeLk0489,3pgqrazx15xrvqygpna1awvsi04ysb,3mtmreqs4zvlt9fgkobotjcyyj2awv,FeLk0489,2020-0188,2020-11-16,17:10:11,17:28:05,NA,incomplete,30,number,1,1,left,Green_Star_Dots_3.jpg,Purple_Plus_Stripes_3.jpg,Blue_Star_Chess_2.jpg,left,1160.869999999646,true,NA,true
FeLk0489,3pgqrazx15xrvqygpna1awvsi04ysb,3mtmreqs4zvlt9fgkobotjcyyj2awv,FeLk0489,2020-0188,2020-11-16,17:10:11,17:28:05,NA,incomplete,31,number,1,1,left,Purple_Circle_Chess_1.jpg,Green_Star_Dots_1.jpg,Red_Circle_Stripes_3.jpg,left,955.5049999980838,true,NA,true
FeLk0489,3pgqrazx15xrvqygpna1awvsi04ysb,3mtmreqs4zvlt9fgkobotjcyyj2awv,FeLk0489,2020-0188,2020-11-16,17:10:11,17:28:05,NA,incomplete,32,number,1,1,right,Purple_Plus_Dots_1.jpg,Blue_Plus_Stripes_2.jpg,Green_Circle_Grid_1.jpg,right,844.0899999986868,true,NA,true
FeLk0489,3pgqrazx15xrvqygpna1awvsi04ysb,3mtmreqs4zvlt9fgkobotjcyyj2awv,FeLk0489,2020-0188,2020-11-16,17:10:11,17:28:05,NA,incomplete,33,number,1,1,right,Green_Triangle_Stripes_1.jpg,Blue_Triangle_Grid_2.jpg,Purple_Star_Chess_1.jpg,right,922.1099999995204,true,NA,true
FeLk0489,3pgqrazx15xrvqygpna1awvsi04ysb,3mtmreqs4zvlt9fgkobotjcyyj2awv,FeLk0489,2020-0188,2020-11-16,17:10:11,17:28:05,NA,incomplete,34,number,1,0,left,Purple_Circle_Chess_1.jpg,Red_Star_Stripes_1.jpg,Green_Circle_Dots_2.jpg,left,896.104999999865,true,NA,true
FeLk0489,3pgqrazx15xrvqygpna1awvsi04ysb,3mtmreqs4zvlt9fgkobotjcyyj2awv,FeLk0489,2020-0188,2020-11-16,17:10:11,17:28:05,NA,incomplete,35,number,1,0,left,Blue_Triangle_Chess_3.jpg,Red_Star_Stripes_3.jpg,Purple_Triangle_Dots_2.jpg,left,1099.0749999982654,true,NA,true
FeLk0489,3pgqrazx15xrvqygpna1awvsi04ysb,3mtmreqs4zvlt9fgkobotjcyyj2awv,FeLk0489,2020-0188,2020-11-16,17:10:11,17:28:05,NA,incomplete,36,number,1,1,left,Purple_Circle_Dots_2.jpg,Blue_Star_Chess_2.jpg,Red_Circle_Grid_4.jpg,left,1133.3950000007171,true,NA,true
FeLk0489,3pgqrazx15xrvqygpna1awvsi04ysb,3mtmreqs4zvlt9fgkobotjcyyj2awv,FeLk0489,2020-0188,2020-11-16,17:10:11,17:28:05,NA,incomplete,37,number,1,1,left,Green_Plus_Grid_3.jpg,Red_Triangle_Dots_3.jpg,Purple_Plus_Stripes_1.jpg,left,1035.5899999995017,true,NA,true
FeLk0489,3pgqrazx15xrvqygpna1awvsi04ysb,3mtmreqs4zvlt9fgkobotjcyyj2awv,FeLk0489,2020-0188,2020-11-16,17:10:11,17:28:05,NA,incomplete,38,number,1,1,left,Green_Circle_Dots_2.jpg,Blue_Star_Chess_2.jpg,Red_Circle_Stripes_1.jpg,left,1189.700000002631,true,NA,true
FeLk0489,3pgqrazx15xrvqygpna1awvsi04ysb,3mtmreqs4zvlt9fgkobotjcyyj2awv,FeLk0489,2020-0188,2020-11-16,17:10:11,17:28:05,NA,incomplete,39,number,1,0,right,Blue_Star_Chess_3.jpg,Purple_Star_Stripes_2.jpg,Green_Plus_Grid_3.jpg,right,1062.2299999995157,true,NA,true
FeLk0489,3pgqrazx15xrvqygpna1awvsi04ysb,3mtmreqs4zvlt9fgkobotjcyyj2awv,FeLk0489,2020-0188,2020-11-16,17:10:11,17:28:05,NA,incomplete,0,shape,0,1,right,Green_Plus_Dots_2.jpg,Red_Circle_Stripes_2.jpg,Purple_Plus_Grid_4.jpg,right,932.3000000003958,true,high,false
FeLk0489,3pgqrazx15xrvqygpna1awvsi04ysb,3mtmreqs4zvlt9fgkobotjcyyj2awv,FeLk0489,2020-0188,2020-11-16,17:10:11,17:28:05,NA,incomplete,1,shape,0,1,right,Red_Triangle_Chess_1.jpg,Purple_Plus_Grid_1.jpg,Green_Triangle_Stripes_3.jpg,right,1139.7199999992154,true,high,false
FeLk0489,3pgqrazx15xrvqygpna1awvsi04ysb,3mtmreqs4zvlt9fgkobotjcyyj2awv,FeLk0489,2020-0188,2020-11-16,17:10:11,17:28:05,NA,incomplete,2,shape,0,1,left,Green_Circle_Dots_3.jpg,Blue_Circle_Chess_1.jpg,Purple_Plus_Grid_3.jpg,left,1017.3649999996996,true,high,false
FeLk0489,3pgqrazx15xrvqygpna1awvsi04ysb,3mtmreqs4zvlt9fgkobotjcyyj2awv,FeLk0489,2020-0188,2020-11-16,17:10:11,17:28:05,NA,incomplete,3,shape,0,1,right,Red_Triangle_Stripes_2.jpg,Purple_Circle_Chess_2.jpg,Green_Triangle_Dots_1.jpg,right,678.1399999999558,true,high,false
FeLk0489,3pgqrazx15xrvqygpna1awvsi04ysb,3mtmreqs4zvlt9fgkobotjcyyj2awv,FeLk0489,2020-0188,2020-11-16,17:10:11,17:28:05,NA,incomplete,4,shape,0,1,left,Blue_Plus_Chess_1.jpg,Purple_Plus_Grid_2.jpg,Green_Triangle_Stripes_1.jpg,left,729.7099999996135,true,high,false
FeLk0489,3pgqrazx15xrvqygpna1awvsi04ysb,3mtmreqs4zvlt9fgkobotjcyyj2awv,FeLk0489,2020-0188,2020-11-16,17:10:11,17:28:05,NA,incomplete,5,shape,0,0,left,Blue_Star_Chess_3.jpg,Red_Star_Dots_2.jpg,Purple_Plus_Stripes_3.jpg,left,981.4899999983027,true,high,false
FeLk0489,3pgqrazx15xrvqygpna1awvsi04ysb,3mtmreqs4zvlt9fgkobotjcyyj2awv,FeLk0489,2020-0188,2020-11-16,17:10:11,17:28:05,NA,incomplete,6,shape,0,1,right,Green_Star_Chess_3.jpg,Purple_Circle_Grid_3.jpg,Blue_Star_Dots_4.jpg,right,788.1249999991851,true,high,false
FeLk0489,3pgqrazx15xrvqygpna1awvsi04ysb,3mtmreqs4zvlt9fgkobotjcyyj2awv,FeLk0489,2020-0188,2020-11-16,17:10:11,17:28:05,NA,incomplete,7,shape,0,0,right,Red_Star_Dots_3.jpg,Purple_Triangle_Chess_3.jpg,Green_Star_Grid_4.jpg,right,819.4350000012782,true,high,false
FeLk0489,3pgqrazx15xrvqygpna1awvsi04ysb,3mtmreqs4zvlt9fgkobotjcyyj2awv,FeLk0489,2020-0188,2020-11-16,17:10:11,17:28:05,NA,incomplete,8,shape,0,0,left,Red_Circle_Dots_2.jpg,Green_Circle_Chess_1.jpg,Purple_Star_Grid_2.jpg,left,813.0600000004051,true,high,false
FeLk0489,3pgqrazx15xrvqygpna1awvsi04ysb,3mtmreqs4zvlt9fgkobotjcyyj2awv,FeLk0489,2020-0188,2020-11-16,17:10:11,17:28:05,NA,incomplete,9,shape,0,1,left,Blue_Circle_Dots_1.jpg,Green_Circle_Stripes_2.jpg,Red_Plus_Chess_1.jpg,right,748.4600000025239,false,high,false
FeLk0489,3pgqrazx15xrvqygpna1awvsi04ysb,3mtmreqs4zvlt9fgkobotjcyyj2awv,FeLk0489,2020-0188,2020-11-16,17:10:11,17:28:05,NA,incomplete,10,number,1,1,left,Blue_Triangle_Chess_4.jpg,Green_Plus_Stripes_4.jpg,Purple_Triangle_Grid_3.jpg,left,967.2200000023004,true,high,false
FeLk0489,3pgqrazx15xrvqygpna1awvsi04ysb,3mtmreqs4zvlt9fgkobotjcyyj2awv,FeLk0489,2020-0188,2020-11-16,17:10:11,17:28:05,NA,incomplete,11,number,1,1,left,Red_Triangle_Dots_2.jpg,Purple_Plus_Chess_2.jpg,Green_Triangle_Grid_3.jpg,left,782.3700000008103,true,high,false
FeLk0489,3pgqrazx15xrvqygpna1awvsi04ysb,3mtmreqs4zvlt9fgkobotjcyyj2awv,FeLk0489,2020-0188,2020-11-16,17:10:11,17:28:05,NA,incomplete,12,number,1,1,left,Red_Star_Stripes_2.jpg,Blue_Triangle_Grid_2.jpg,Purple_Star_Dots_4.jpg,left,891.63500000356,true,high,false
FeLk0489,3pgqrazx15xrvqygpna1awvsi04ysb,3mtmreqs4zvlt9fgkobotjcyyj2awv,FeLk0489,2020-0188,2020-11-16,17:10:11,17:28:05,NA,incomplete,13,number,1,0,right,Green_Circle_Grid_2.jpg,Purple_Circle_Stripes_1.jpg,Red_Plus_Chess_2.jpg,right,757.6000000007916,true,high,false
FeLk0489,3pgqrazx15xrvqygpna1awvsi04ysb,3mtmreqs4zvlt9fgkobotjcyyj2awv,FeLk0489,2020-0188,2020-11-16,17:10:11,17:28:05,NA,incomplete,14,number,1,1,left,Blue_Circle_Dots_2.jpg,Purple_Plus_Stripes_2.jpg,Green_Circle_Chess_3.jpg,left,749.5799999997253,true,high,false
FeLk0489,3pgqrazx15xrvqygpna1awvsi04ysb,3mtmreqs4zvlt9fgkobotjcyyj2awv,FeLk0489,2020-0188,2020-11-16,17:10:11,17:28:05,NA,incomplete,15,number,1,0,right,Red_Triangle_Chess_1.jpg,Purple_Triangle_Dots_3.jpg,Blue_Circle_Grid_1.jpg,right,806.9849999992875,true,high,false
FeLk0489,3pgqrazx15xrvqygpna1awvsi04ysb,3mtmreqs4zvlt9fgkobotjcyyj2awv,FeLk0489,2020-0188,2020-11-16,17:10:11,17:28:05,NA,incomplete,16,number,1,1,left,Purple_Triangle_Chess_1.jpg,Blue_Plus_Dots_1.jpg,Green_Triangle_Grid_3.jpg,left,706.9550000014715,true,high,false
FeLk0489,3pgqrazx15xrvqygpna1awvsi04ysb,3mtmreqs4zvlt9fgkobotjcyyj2awv,FeLk0489,2020-0188,2020-11-16,17:10:11,17:28:05,NA,incomplete,17,number,1,0,right,Purple_Star_Grid_3.jpg,Green_Star_Chess_4.jpg,Red_Circle_Dots_3.jpg,right,941.1900000013411,true,high,false
FeLk0489,3pgqrazx15xrvqygpna1awvsi04ysb,3mtmreqs4zvlt9fgkobotjcyyj2awv,FeLk0489,2020-0188,2020-11-16,17:10:11,17:28:05,NA,incomplete,18,number,1,1,right,Green_Circle_Stripes_1.jpg,Purple_Circle_Chess_2.jpg,Red_Plus_Grid_1.jpg,right,872.9400000011083,true,high,false
FeLk0489,3pgqrazx15xrvqygpna1awvsi04ysb,3mtmreqs4zvlt9fgkobotjcyyj2awv,FeLk0489,2020-0188,2020-11-16,17:10:11,17:28:05,NA,incomplete,19,number,1,1,right,Blue_Plus_Grid_4.jpg,Green_Plus_Stripes_2.jpg,Red_Circle_Chess_4.jpg,right,828.6450000014156,true,high,false
FeLk0489,3pgqrazx15xrvqygpna1awvsi04ysb,3mtmreqs4zvlt9fgkobotjcyyj2awv,FeLk0489,2020-0188,2020-11-16,17:10:11,17:28:05,NA,incomplete,20,shape,0,1,right,Purple_Triangle_Chess_3.jpg,Green_Star_Stripes_3.jpg,Blue_Triangle_Dots_2.jpg,left,719.8199999984354,false,high,false
FeLk0489,3pgqrazx15xrvqygpna1awvsi04ysb,3mtmreqs4zvlt9fgkobotjcyyj2awv,FeLk0489,2020-0188,2020-11-16,17:10:11,17:28:05,NA,incomplete,21,shape,0,1,left,Purple_Triangle_Grid_2.jpg,Blue_Triangle_Dots_3.jpg,Green_Plus_Chess_2.jpg,right,838.7750000001979,false,high,false
FeLk0489,3pgqrazx15xrvqygpna1awvsi04ysb,3mtmreqs4zvlt9fgkobotjcyyj2awv,FeLk0489,2020-0188,2020-11-16,17:10:11,17:28:05,NA,incomplete,22,shape,0,1,left,Purple_Star_Grid_3.jpg,Green_Star_Chess_1.jpg,Blue_Triangle_Stripes_3.jpg,left,740.7999999995809,true,high,false
FeLk0489,3pgqrazx15xrvqygpna1awvsi04ysb,3mtmreqs4zvlt9fgkobotjcyyj2awv,FeLk0489,2020-0188,2020-11-16,17:10:11,17:28:05,NA,incomplete,23,shape,0,1,left,Red_Triangle_Stripes_1.jpg,Purple_Triangle_Grid_3.jpg,Blue_Plus_Dots_1.jpg,left,669.835000000603,true,high,false
FeLk0489,3pgqrazx15xrvqygpna1awvsi04ysb,3mtmreqs4zvlt9fgkobotjcyyj2awv,FeLk0489,2020-0188,2020-11-16,17:10:11,17:28:05,NA,incomplete,24,shape,0,0,right,Blue_Star_Stripes_3.jpg,Red_Triangle_Dots_3.jpg,Purple_Star_Grid_4.jpg,right,778.8200000032084,true,high,false
FeLk0489,3pgqrazx15xrvqygpna1awvsi04ysb,3mtmreqs4zvlt9fgkobotjcyyj2awv,FeLk0489,2020-0188,2020-11-16,17:10:11,17:28:05,NA,incomplete,25,shape,0,0,right,Purple_Circle_Chess_1.jpg,Red_Triangle_Grid_1.jpg,Green_Circle_Dots_2.jpg,right,820.3850000026869,true,high,false
FeLk0489,3pgqrazx15xrvqygpna1awvsi04ysb,3mtmreqs4zvlt9fgkobotjcyyj2awv,FeLk0489,2020-0188,2020-11-16,17:10:11,17:28:05,NA,incomplete,26,shape,0,1,left,Purple_Star_Dots_1.jpg,Green_Star_Grid_3.jpg,Blue_Circle_Stripes_1.jpg,left,863.7600000001839,true,high,false
FeLk0489,3pgqrazx15xrvqygpna1awvsi04ysb,3mtmreqs4zvlt9fgkobotjcyyj2awv,FeLk0489,2020-0188,2020-11-16,17:10:11,17:28:05,NA,incomplete,27,shape,0,1,right,Red_Circle_Grid_4.jpg,Blue_Triangle_Dots_4.jpg,Green_Circle_Chess_2.jpg,right,807.5449999996345,true,high,false
FeLk0489,3pgqrazx15xrvqygpna1awvsi04ysb,3mtmreqs4zvlt9fgkobotjcyyj2awv,FeLk0489,2020-0188,2020-11-16,17:10:11,17:28:05,NA,incomplete,28,shape,0,1,right,Red_Triangle_Stripes_3.jpg,Purple_Circle_Dots_3.jpg,Green_Triangle_Grid_2.jpg,right,788.4049999993294,true,high,false
FeLk0489,3pgqrazx15xrvqygpna1awvsi04ysb,3mtmreqs4zvlt9fgkobotjcyyj2awv,FeLk0489,2020-0188,2020-11-16,17:10:11,17:28:05,NA,incomplete,29,shape,0,0,left,Red_Plus_Dots_2.jpg,Purple_Plus_Grid_1.jpg,Blue_Star_Stripes_2.jpg,left,685.975000000326,true,high,false
FeLk0489,3pgqrazx15xrvqygpna1awvsi04ysb,3mtmreqs4zvlt9fgkobotjcyyj2awv,FeLk0489,2020-0188,2020-11-16,17:10:11,17:28:05,NA,incomplete,30,number,1,1,right,Green_Plus_Chess_1.jpg,Blue_Plus_Dots_2.jpg,Purple_Star_Stripes_1.jpg,left,765.605000000447,false,high,false
FeLk0489,3pgqrazx15xrvqygpna1awvsi04ysb,3mtmreqs4zvlt9fgkobotjcyyj2awv,FeLk0489,2020-0188,2020-11-16,17:10:11,17:28:05,NA,incomplete,31,number,1,0,right,Red_Triangle_Stripes_1.jpg,Green_Triangle_Grid_4.jpg,Purple_Circle_Dots_1.jpg,right,895.0100000001839,true,high,false
FeLk0489,3pgqrazx15xrvqygpna1awvsi04ysb,3mtmreqs4zvlt9fgkobotjcyyj2awv,FeLk0489,2020-0188,2020-11-16,17:10:11,17:28:05,NA,incomplete,32,number,1,1,left,Blue_Circle_Dots_1.jpg,Green_Star_Stripes_1.jpg,Purple_Circle_Chess_3.jpg,left,751.6450000003097,true,high,false
FeLk0489,3pgqrazx15xrvqygpna1awvsi04ysb,3mtmreqs4zvlt9fgkobotjcyyj2awv,FeLk0489,2020-0188,2020-11-16,17:10:11,17:28:05,NA,incomplete,33,number,1,1,right,Purple_Circle_Grid_2.jpg,Blue_Circle_Stripes_1.jpg,Red_Star_Dots_2.jpg,right,701.7150000028778,true,high,false
FeLk0489,3pgqrazx15xrvqygpna1awvsi04ysb,3mtmreqs4zvlt9fgkobotjcyyj2awv,FeLk0489,2020-0188,2020-11-16,17:10:11,17:28:05,NA,incomplete,34,number,1,1,right,Blue_Plus_Chess_2.jpg,Red_Plus_Dots_1.jpg,Green_Triangle_Stripes_2.jpg,left,597.8350000005448,false,high,false
FeLk0489,3pgqrazx15xrvqygpna1awvsi04ysb,3mtmreqs4zvlt9fgkobotjcyyj2awv,FeLk0489,2020-0188,2020-11-16,17:10:11,17:28:05,NA,incomplete,35,number,1,1,left,Blue_Plus_Grid_4.jpg,Green_Triangle_Chess_4.jpg,Red_Plus_Stripes_3.jpg,left,763.9450000024517,true,high,false
FeLk0489,3pgqrazx15xrvqygpna1awvsi04ysb,3mtmreqs4zvlt9fgkobotjcyyj2awv,FeLk0489,2020-0188,2020-11-16,17:10:11,17:28:05,NA,incomplete,36,number,1,1,right,Green_Plus_Chess_3.jpg,Blue_Plus_Dots_4.jpg,Purple_Star_Stripes_3.jpg,right,772.5299999983399,true,high,false
FeLk0489,3pgqrazx15xrvqygpna1awvsi04ysb,3mtmreqs4zvlt9fgkobotjcyyj2awv,FeLk0489,2020-0188,2020-11-16,17:10:11,17:28:05,NA,incomplete,37,number,1,0,left,Red_Star_Dots_4.jpg,Green_Triangle_Stripes_4.jpg,Blue_Star_Chess_2.jpg,left,621.5950000005541,true,high,false
FeLk0489,3pgqrazx15xrvqygpna1awvsi04ysb,3mtmreqs4zvlt9fgkobotjcyyj2awv,FeLk0489,2020-0188,2020-11-16,17:10:11,17:28:05,NA,incomplete,38,number,1,1,left,Purple_Star_Chess_1.jpg,Green_Circle_Grid_1.jpg,Blue_Star_Stripes_4.jpg,left,590.1899999990128,true,high,false
FeLk0489,3pgqrazx15xrvqygpna1awvsi04ysb,3mtmreqs4zvlt9fgkobotjcyyj2awv,FeLk0489,2020-0188,2020-11-16,17:10:11,17:28:05,NA,incomplete,39,number,1,1,right,Blue_Star_Stripes_3.jpg,Green_Star_Grid_4.jpg,Red_Plus_Dots_3.jpg,right,863.2699999980396,true,high,false
FeLk0489,3pgqrazx15xrvqygpna1awvsi04ysb,3mtmreqs4zvlt9fgkobotjcyyj2awv,FeLk0489,2020-0188,2020-11-16,17:10:11,17:28:05,NA,incomplete,40,shape,0,1,right,Purple_Circle_Chess_4.jpg,Green_Star_Dots_4.jpg,Blue_Circle_Stripes_1.jpg,left,662.8049999999348,false,high,false
FeLk0489,3pgqrazx15xrvqygpna1awvsi04ysb,3mtmreqs4zvlt9fgkobotjcyyj2awv,FeLk0489,2020-0188,2020-11-16,17:10:11,17:28:05,NA,incomplete,41,shape,0,1,left,Purple_Triangle_Grid_3.jpg,Green_Triangle_Stripes_4.jpg,Blue_Circle_Chess_3.jpg,right,728.2700000032783,false,high,false
FeLk0489,3pgqrazx15xrvqygpna1awvsi04ysb,3mtmreqs4zvlt9fgkobotjcyyj2awv,FeLk0489,2020-0188,2020-11-16,17:10:11,17:28:05,NA,incomplete,42,shape,0,1,right,Blue_Plus_Chess_4.jpg,Red_Star_Grid_4.jpg,Green_Plus_Stripes_3.jpg,right,780.1949999993667,true,high,false
FeLk0489,3pgqrazx15xrvqygpna1awvsi04ysb,3mtmreqs4zvlt9fgkobotjcyyj2awv,FeLk0489,2020-0188,2020-11-16,17:10:11,17:28:05,NA,incomplete,43,shape,0,1,right,Purple_Circle_Grid_2.jpg,Green_Triangle_Dots_2.jpg,Blue_Circle_Chess_1.jpg,right,912.2749999988009,true,high,false
FeLk0489,3pgqrazx15xrvqygpna1awvsi04ysb,3mtmreqs4zvlt9fgkobotjcyyj2awv,FeLk0489,2020-0188,2020-11-16,17:10:11,17:28:05,NA,incomplete,44,shape,0,1,left,Green_Triangle_Dots_1.jpg,Purple_Triangle_Stripes_2.jpg,Blue_Plus_Grid_1.jpg,left,767.1899999986636,true,high,false
FeLk0489,3pgqrazx15xrvqygpna1awvsi04ysb,3mtmreqs4zvlt9fgkobotjcyyj2awv,FeLk0489,2020-0188,2020-11-16,17:10:11,17:28:05,NA,incomplete,45,shape,0,0,left,Purple_Circle_Grid_2.jpg,Blue_Circle_Dots_4.jpg,Green_Plus_Stripes_2.jpg,left,665.7300000006799,true,high,false
FeLk0489,3pgqrazx15xrvqygpna1awvsi04ysb,3mtmreqs4zvlt9fgkobotjcyyj2awv,FeLk0489,2020-0188,2020-11-16,17:10:11,17:28:05,NA,incomplete,46,shape,0,1,left,Purple_Circle_Dots_4.jpg,Blue_Circle_Chess_1.jpg,Red_Triangle_Grid_4.jpg,left,676.7349999972503,true,high,false
FeLk0489,3pgqrazx15xrvqygpna1awvsi04ysb,3mtmreqs4zvlt9fgkobotjcyyj2awv,FeLk0489,2020-0188,2020-11-16,17:10:11,17:28:05,NA,incomplete,47,shape,0,1,left,Blue_Plus_Stripes_4.jpg,Red_Plus_Dots_2.jpg,Purple_Circle_Chess_4.jpg,left,647.0300000000279,true,high,false
FeLk0489,3pgqrazx15xrvqygpna1awvsi04ysb,3mtmreqs4zvlt9fgkobotjcyyj2awv,FeLk0489,2020-0188,2020-11-16,17:10:11,17:28:05,NA,incomplete,48,shape,0,1,left,Green_Star_Chess_1.jpg,Blue_Star_Grid_4.jpg,Purple_Triangle_Dots_1.jpg,left,851.345000002766,true,high,false
FeLk0489,3pgqrazx15xrvqygpna1awvsi04ysb,3mtmreqs4zvlt9fgkobotjcyyj2awv,FeLk0489,2020-0188,2020-11-16,17:10:11,17:28:05,NA,incomplete,49,shape,0,0,right,Blue_Circle_Dots_1.jpg,Red_Plus_Chess_1.jpg,Green_Circle_Grid_4.jpg,right,686.6850000005797,true,high,false
FeLk0489,3pgqrazx15xrvqygpna1awvsi04ysb,3mtmreqs4zvlt9fgkobotjcyyj2awv,FeLk0489,2020-0188,2020-11-16,17:10:11,17:28:05,NA,incomplete,50,number,1,1,right,Red_Circle_Chess_1.jpg,Blue_Circle_Stripes_4.jpg,Green_Triangle_Dots_1.jpg,left,797.7700000010082,false,high,false
FeLk0489,3pgqrazx15xrvqygpna1awvsi04ysb,3mtmreqs4zvlt9fgkobotjcyyj2awv,FeLk0489,2020-0188,2020-11-16,17:10:11,17:28:05,NA,incomplete,51,number,1,1,right,Blue_Plus_Chess_4.jpg,Red_Plus_Dots_2.jpg,Green_Star_Stripes_4.jpg,right,736.3000000005122,true,high,false
FeLk0489,3pgqrazx15xrvqygpna1awvsi04ysb,3mtmreqs4zvlt9fgkobotjcyyj2awv,FeLk0489,2020-0188,2020-11-16,17:10:11,17:28:05,NA,incomplete,52,number,1,1,right,Red_Star_Grid_1.jpg,Purple_Star_Chess_2.jpg,Green_Plus_Dots_1.jpg,right,841.7449999978999,true,high,false
FeLk0489,3pgqrazx15xrvqygpna1awvsi04ysb,3mtmreqs4zvlt9fgkobotjcyyj2awv,FeLk0489,2020-0188,2020-11-16,17:10:11,17:28:05,NA,incomplete,53,number,1,1,left,Purple_Triangle_Chess_2.jpg,Green_Star_Stripes_2.jpg,Blue_Triangle_Dots_4.jpg,left,671.3850000015227,true,high,false
FeLk0489,3pgqrazx15xrvqygpna1awvsi04ysb,3mtmreqs4zvlt9fgkobotjcyyj2awv,FeLk0489,2020-0188,2020-11-16,17:10:11,17:28:05,NA,incomplete,54,number,1,1,right,Green_Circle_Grid_1.jpg,Purple_Circle_Chess_3.jpg,Red_Plus_Stripes_1.jpg,right,710.5100000008242,true,high,false
FeLk0489,3pgqrazx15xrvqygpna1awvsi04ysb,3mtmreqs4zvlt9fgkobotjcyyj2awv,FeLk0489,2020-0188,2020-11-16,17:10:11,17:28:05,NA,incomplete,55,number,1,1,right,Green_Star_Chess_2.jpg,Purple_Star_Dots_3.jpg,Blue_Triangle_Stripes_2.jpg,right,760.7349999998696,true,high,false
FeLk0489,3pgqrazx15xrvqygpna1awvsi04ysb,3mtmreqs4zvlt9fgkobotjcyyj2awv,FeLk0489,2020-0188,2020-11-16,17:10:11,17:28:05,NA,incomplete,56,number,1,1,right,Purple_Circle_Stripes_3.jpg,Blue_Circle_Grid_4.jpg,Red_Triangle_Dots_3.jpg,right,777.3500000002678,true,high,false
FeLk0489,3pgqrazx15xrvqygpna1awvsi04ysb,3mtmreqs4zvlt9fgkobotjcyyj2awv,FeLk0489,2020-0188,2020-11-16,17:10:11,17:28:05,NA,incomplete,57,number,1,1,right,Green_Triangle_Stripes_2.jpg,Blue_Triangle_Grid_1.jpg,Red_Plus_Chess_2.jpg,right,760.3849999977974,true,high,false
FeLk0489,3pgqrazx15xrvqygpna1awvsi04ysb,3mtmreqs4zvlt9fgkobotjcyyj2awv,FeLk0489,2020-0188,2020-11-16,17:10:11,17:28:05,NA,incomplete,58,number,1,1,right,Red_Circle_Chess_4.jpg,Blue_Circle_Dots_2.jpg,Purple_Plus_Grid_4.jpg,right,753.7050000028103,true,high,false
FeLk0489,3pgqrazx15xrvqygpna1awvsi04ysb,3mtmreqs4zvlt9fgkobotjcyyj2awv,FeLk0489,2020-0188,2020-11-16,17:10:11,17:28:05,NA,incomplete,59,number,1,1,left,Red_Star_Dots_1.jpg,Green_Triangle_Stripes_1.jpg,Blue_Star_Chess_2.jpg,left,611.5849999987404,true,high,false
FeLk0489,3pgqrazx15xrvqygpna1awvsi04ysb,3mtmreqs4zvlt9fgkobotjcyyj2awv,FeLk0489,2020-0188,2020-11-16,17:10:11,17:28:05,NA,incomplete,60,shape,0,1,right,Green_Circle_Grid_2.jpg,Blue_Plus_Stripes_2.jpg,Red_Circle_Dots_3.jpg,left,753.0799999986193,false,high,false
FeLk0489,3pgqrazx15xrvqygpna1awvsi04ysb,3mtmreqs4zvlt9fgkobotjcyyj2awv,FeLk0489,2020-0188,2020-11-16,17:10:11,17:28:05,NA,incomplete,61,shape,0,0,right,Blue_Plus_Grid_1.jpg,Purple_Circle_Stripes_1.jpg,Green_Plus_Dots_4.jpg,left,564.8499999988126,false,high,false
FeLk0489,3pgqrazx15xrvqygpna1awvsi04ysb,3mtmreqs4zvlt9fgkobotjcyyj2awv,FeLk0489,2020-0188,2020-11-16,17:10:11,17:28:05,NA,incomplete,62,shape,0,1,left,Green_Plus_Dots_4.jpg,Blue_Plus_Stripes_3.jpg,Purple_Star_Grid_4.jpg,right,732.0400000025984,false,high,false
FeLk0489,3pgqrazx15xrvqygpna1awvsi04ysb,3mtmreqs4zvlt9fgkobotjcyyj2awv,FeLk0489,2020-0188,2020-11-16,17:10:11,17:28:05,NA,incomplete,63,shape,0,1,right,Purple_Triangle_Dots_3.jpg,Green_Plus_Grid_3.jpg,Red_Triangle_Stripes_1.jpg,left,729.7350000008009,false,high,false
FeLk0489,3pgqrazx15xrvqygpna1awvsi04ysb,3mtmreqs4zvlt9fgkobotjcyyj2awv,FeLk0489,2020-0188,2020-11-16,17:10:11,17:28:05,NA,incomplete,64,shape,0,0,left,Red_Circle_Chess_1.jpg,Purple_Circle_Stripes_3.jpg,Blue_Star_Dots_1.jpg,left,827.7000000015832,true,high,false
FeLk0489,3pgqrazx15xrvqygpna1awvsi04ysb,3mtmreqs4zvlt9fgkobotjcyyj2awv,FeLk0489,2020-0188,2020-11-16,17:10:11,17:28:05,NA,incomplete,65,shape,0,0,right,Blue_Plus_Dots_2.jpg,Red_Circle_Chess_2.jpg,Green_Plus_Stripes_3.jpg,right,974.0850000016508,true,high,false
FeLk0489,3pgqrazx15xrvqygpna1awvsi04ysb,3mtmreqs4zvlt9fgkobotjcyyj2awv,FeLk0489,2020-0188,2020-11-16,17:10:11,17:28:05,NA,incomplete,66,shape,0,1,left,Purple_Circle_Grid_2.jpg,Blue_Circle_Stripes_3.jpg,Green_Triangle_Chess_2.jpg,left,829.004999999539,true,high,false
FeLk0489,3pgqrazx15xrvqygpna1awvsi04ysb,3mtmreqs4zvlt9fgkobotjcyyj2awv,FeLk0489,2020-0188,2020-11-16,17:10:11,17:28:05,NA,incomplete,67,shape,0,1,left,Blue_Star_Grid_2.jpg,Green_Star_Chess_3.jpg,Red_Triangle_Stripes_2.jpg,left,887.1749999998719,true,high,false
FeLk0489,3pgqrazx15xrvqygpna1awvsi04ysb,3mtmreqs4zvlt9fgkobotjcyyj2awv,FeLk0489,2020-0188,2020-11-16,17:10:11,17:28:05,NA,incomplete,68,shape,0,1,left,Green_Star_Grid_3.jpg,Red_Star_Chess_4.jpg,Purple_Triangle_Dots_3.jpg,left,758.8899999973364,true,high,false
FeLk0489,3pgqrazx15xrvqygpna1awvsi04ysb,3mtmreqs4zvlt9fgkobotjcyyj2awv,FeLk0489,2020-0188,2020-11-16,17:10:11,17:28:05,NA,incomplete,69,shape,0,1,right,Red_Star_Grid_2.jpg,Purple_Circle_Stripes_2.jpg,Blue_Star_Chess_3.jpg,right,656.9300000009825,true,high,false
FeLk0489,3pgqrazx15xrvqygpna1awvsi04ysb,3mtmreqs4zvlt9fgkobotjcyyj2awv,FeLk0489,2020-0188,2020-11-16,17:10:11,17:28:05,NA,incomplete,70,number,1,1,right,Blue_Plus_Stripes_3.jpg,Red_Plus_Chess_2.jpg,Purple_Star_Grid_3.jpg,left,784.9649999989197,false,high,false
FeLk0489,3pgqrazx15xrvqygpna1awvsi04ysb,3mtmreqs4zvlt9fgkobotjcyyj2awv,FeLk0489,2020-0188,2020-11-16,17:10:11,17:28:05,NA,incomplete,71,number,1,1,left,Purple_Star_Grid_2.jpg,Blue_Circle_Stripes_2.jpg,Red_Star_Dots_3.jpg,right,652.7849999984028,false,high,false
FeLk0489,3pgqrazx15xrvqygpna1awvsi04ysb,3mtmreqs4zvlt9fgkobotjcyyj2awv,FeLk0489,2020-0188,2020-11-16,17:10:11,17:28:05,NA,incomplete,72,number,1,1,left,Purple_Star_Stripes_4.jpg,Blue_Circle_Dots_4.jpg,Red_Star_Chess_3.jpg,left,733.570000000298,true,high,false
FeLk0489,3pgqrazx15xrvqygpna1awvsi04ysb,3mtmreqs4zvlt9fgkobotjcyyj2awv,FeLk0489,2020-0188,2020-11-16,17:10:11,17:28:05,NA,incomplete,73,number,1,1,right,Blue_Circle_Chess_3.jpg,Red_Circle_Dots_4.jpg,Green_Triangle_Stripes_3.jpg,right,759.7300000016112,true,high,false
FeLk0489,3pgqrazx15xrvqygpna1awvsi04ysb,3mtmreqs4zvlt9fgkobotjcyyj2awv,FeLk0489,2020-0188,2020-11-16,17:10:11,17:28:05,NA,incomplete,74,number,1,0,left,Red_Plus_Stripes_3.jpg,Blue_Circle_Chess_3.jpg,Purple_Plus_Dots_1.jpg,left,770.2849999986356,true,high,false
FeLk0489,3pgqrazx15xrvqygpna1awvsi04ysb,3mtmreqs4zvlt9fgkobotjcyyj2awv,FeLk0489,2020-0188,2020-11-16,17:10:11,17:28:05,NA,incomplete,75,number,1,0,left,Blue_Star_Chess_4.jpg,Red_Triangle_Dots_4.jpg,Purple_Star_Grid_2.jpg,left,727.7699999976903,true,high,false
FeLk0489,3pgqrazx15xrvqygpna1awvsi04ysb,3mtmreqs4zvlt9fgkobotjcyyj2awv,FeLk0489,2020-0188,2020-11-16,17:10:11,17:28:05,NA,incomplete,76,number,1,1,right,Purple_Star_Chess_1.jpg,Blue_Star_Stripes_3.jpg,Red_Triangle_Dots_1.jpg,left,862.1700000003912,false,high,false
FeLk0489,3pgqrazx15xrvqygpna1awvsi04ysb,3mtmreqs4zvlt9fgkobotjcyyj2awv,FeLk0489,2020-0188,2020-11-16,17:10:11,17:28:05,NA,incomplete,77,number,1,1,left,Red_Triangle_Grid_2.jpg,Green_Plus_Dots_2.jpg,Blue_Triangle_Stripes_3.jpg,right,787.8600000003353,false,high,false
FeLk0489,3pgqrazx15xrvqygpna1awvsi04ysb,3mtmreqs4zvlt9fgkobotjcyyj2awv,FeLk0489,2020-0188,2020-11-16,17:10:11,17:28:05,NA,incomplete,78,number,1,1,left,Green_Triangle_Stripes_1.jpg,Purple_Circle_Chess_1.jpg,Red_Triangle_Dots_2.jpg,left,690.3249999996042,true,high,false
FeLk0489,3pgqrazx15xrvqygpna1awvsi04ysb,3mtmreqs4zvlt9fgkobotjcyyj2awv,FeLk0489,2020-0188,2020-11-16,17:10:11,17:28:05,NA,incomplete,79,number,1,1,right,Blue_Triangle_Chess_3.jpg,Purple_Triangle_Grid_2.jpg,Green_Circle_Stripes_3.jpg,right,775.5050000014016,true,high,false
FeLk0489,3pgqrazx15xrvqygpna1awvsi04ysb,3mtmreqs4zvlt9fgkobotjcyyj2awv,FeLk0489,2020-0188,2020-11-16,17:10:11,17:28:05,NA,incomplete,80,shape,0,1,right,Purple_Triangle_Chess_4.jpg,Red_Plus_Stripes_4.jpg,Blue_Triangle_Grid_3.jpg,left,693.4299999994691,false,high,false
FeLk0489,3pgqrazx15xrvqygpna1awvsi04ysb,3mtmreqs4zvlt9fgkobotjcyyj2awv,FeLk0489,2020-0188,2020-11-16,17:10:11,17:28:05,NA,incomplete,81,shape,0,0,left,Purple_Circle_Stripes_1.jpg,Red_Circle_Grid_3.jpg,Blue_Plus_Chess_1.jpg,right,791.7899999993388,false,high,false
FeLk0489,3pgqrazx15xrvqygpna1awvsi04ysb,3mtmreqs4zvlt9fgkobotjcyyj2awv,FeLk0489,2020-0188,2020-11-16,17:10:11,17:28:05,NA,incomplete,82,shape,0,1,left,Red_Plus_Stripes_1.jpg,Blue_Plus_Grid_2.jpg,Purple_Star_Dots_1.jpg,right,832.7099999987986,false,high,false
FeLk0489,3pgqrazx15xrvqygpna1awvsi04ysb,3mtmreqs4zvlt9fgkobotjcyyj2awv,FeLk0489,2020-0188,2020-11-16,17:10:11,17:28:05,NA,incomplete,83,shape,0,0,right,Blue_Triangle_Stripes_4.jpg,Green_Plus_Chess_4.jpg,Red_Triangle_Grid_1.jpg,left,683.0000000009313,false,high,false
FeLk0489,3pgqrazx15xrvqygpna1awvsi04ysb,3mtmreqs4zvlt9fgkobotjcyyj2awv,FeLk0489,2020-0188,2020-11-16,17:10:11,17:28:05,NA,incomplete,84,shape,0,1,left,Green_Triangle_Dots_2.jpg,Purple_Triangle_Grid_4.jpg,Red_Plus_Stripes_2.jpg,right,789.9050000014249,false,high,false
FeLk0489,3pgqrazx15xrvqygpna1awvsi04ysb,3mtmreqs4zvlt9fgkobotjcyyj2awv,FeLk0489,2020-0188,2020-11-16,17:10:11,17:28:05,NA,incomplete,85,shape,0,1,right,Purple_Triangle_Chess_2.jpg,Blue_Plus_Dots_2.jpg,Green_Triangle_Stripes_3.jpg,left,790.425000002957,false,high,false
FeLk0489,3pgqrazx15xrvqygpna1awvsi04ysb,3mtmreqs4zvlt9fgkobotjcyyj2awv,FeLk0489,2020-0188,2020-11-16,17:10:11,17:28:05,NA,incomplete,86,shape,0,0,right,Green_Star_Stripes_1.jpg,Red_Circle_Chess_1.jpg,Blue_Star_Grid_3.jpg,right,828.159999997355,true,high,false
FeLk0489,3pgqrazx15xrvqygpna1awvsi04ysb,3mtmreqs4zvlt9fgkobotjcyyj2awv,FeLk0489,2020-0188,2020-11-16,17:10:11,17:28:05,NA,incomplete,87,shape,0,0,right,Blue_Triangle_Chess_3.jpg,Green_Star_Stripes_3.jpg,Purple_Triangle_Dots_2.jpg,right,1013.35499999905,true,high,false
FeLk0489,3pgqrazx15xrvqygpna1awvsi04ysb,3mtmreqs4zvlt9fgkobotjcyyj2awv,FeLk0489,2020-0188,2020-11-16,17:10:11,17:28:05,NA,incomplete,88,shape,0,1,right,Purple_Star_Chess_4.jpg,Red_Circle_Dots_4.jpg,Green_Star_Stripes_1.jpg,left,651.1250000003492,false,high,false
FeLk0489,3pgqrazx15xrvqygpna1awvsi04ysb,3mtmreqs4zvlt9fgkobotjcyyj2awv,FeLk0489,2020-0188,2020-11-16,17:10:11,17:28:05,NA,incomplete,89,shape,0,1,right,Green_Triangle_Stripes_4.jpg,Blue_Plus_Chess_4.jpg,Purple_Triangle_Grid_1.jpg,left,607.09499999939,false,high,false
FeLk0489,3pgqrazx15xrvqygpna1awvsi04ysb,3mtmreqs4zvlt9fgkobotjcyyj2awv,FeLk0489,2020-0188,2020-11-16,17:10:11,17:28:05,NA,incomplete,90,number,1,0,right,Green_Star_Dots_2.jpg,Red_Star_Chess_3.jpg,Purple_Circle_Stripes_2.jpg,left,840.4799999989336,false,high,false
FeLk0489,3pgqrazx15xrvqygpna1awvsi04ysb,3mtmreqs4zvlt9fgkobotjcyyj2awv,FeLk0489,2020-0188,2020-11-16,17:10:11,17:28:05,NA,incomplete,91,number,1,1,left,Green_Circle_Chess_3.jpg,Red_Star_Stripes_3.jpg,Purple_Circle_Grid_2.jpg,right,708.3700000002282,false,high,false
FeLk0489,3pgqrazx15xrvqygpna1awvsi04ysb,3mtmreqs4zvlt9fgkobotjcyyj2awv,FeLk0489,2020-0188,2020-11-16,17:10:11,17:28:05,NA,incomplete,92,number,1,1,right,Purple_Triangle_Stripes_2.jpg,Red_Triangle_Chess_3.jpg,Blue_Plus_Dots_2.jpg,left,765.9249999998137,false,high,false
FeLk0489,3pgqrazx15xrvqygpna1awvsi04ysb,3mtmreqs4zvlt9fgkobotjcyyj2awv,FeLk0489,2020-0188,2020-11-16,17:10:11,17:28:05,NA,incomplete,93,number,1,1,right,Green_Triangle_Dots_2.jpg,Blue_Triangle_Grid_3.jpg,Red_Star_Chess_2.jpg,left,594.2950000027195,false,high,false
FeLk0489,3pgqrazx15xrvqygpna1awvsi04ysb,3mtmreqs4zvlt9fgkobotjcyyj2awv,FeLk0489,2020-0188,2020-11-16,17:10:11,17:28:05,NA,incomplete,94,number,1,1,right,Red_Plus_Stripes_1.jpg,Blue_Plus_Chess_3.jpg,Purple_Circle_Dots_1.jpg,right,544.5199999994365,true,high,false
FeLk0489,3pgqrazx15xrvqygpna1awvsi04ysb,3mtmreqs4zvlt9fgkobotjcyyj2awv,FeLk0489,2020-0188,2020-11-16,17:10:11,17:28:05,NA,incomplete,95,number,1,1,right,Green_Triangle_Chess_3.jpg,Red_Triangle_Grid_4.jpg,Purple_Circle_Dots_3.jpg,right,933.7450000020908,true,high,false
FeLk0489,3pgqrazx15xrvqygpna1awvsi04ysb,3mtmreqs4zvlt9fgkobotjcyyj2awv,FeLk0489,2020-0188,2020-11-16,17:10:11,17:28:05,NA,incomplete,96,number,1,1,left,Blue_Star_Grid_4.jpg,Purple_Triangle_Stripes_4.jpg,Red_Star_Chess_3.jpg,left,670.2549999972107,true,high,false
FeLk0489,3pgqrazx15xrvqygpna1awvsi04ysb,3mtmreqs4zvlt9fgkobotjcyyj2awv,FeLk0489,2020-0188,2020-11-16,17:10:11,17:28:05,NA,incomplete,97,number,1,1,left,Green_Circle_Chess_3.jpg,Purple_Triangle_Dots_3.jpg,Blue_Circle_Grid_4.jpg,left,807.3600000024308,true,high,false
FeLk0489,3pgqrazx15xrvqygpna1awvsi04ysb,3mtmreqs4zvlt9fgkobotjcyyj2awv,FeLk0489,2020-0188,2020-11-16,17:10:11,17:28:05,NA,incomplete,98,number,1,1,right,Purple_Triangle_Grid_2.jpg,Red_Triangle_Dots_1.jpg,Green_Circle_Chess_2.jpg,right,683.4500000004191,true,high,false
FeLk0489,3pgqrazx15xrvqygpna1awvsi04ysb,3mtmreqs4zvlt9fgkobotjcyyj2awv,FeLk0489,2020-0188,2020-11-16,17:10:11,17:28:05,NA,incomplete,99,number,1,1,right,Purple_Star_Grid_1.jpg,Blue_Star_Dots_3.jpg,Green_Circle_Chess_1.jpg,right,716.340000002645,true,high,false
FeLk0489,3pgqrazx15xrvqygpna1awvsi04ysb,3mtmreqs4zvlt9fgkobotjcyyj2awv,FeLk0489,2020-0188,2020-11-16,17:10:11,17:28:05,NA,incomplete,100,shape,0,1,right,Red_Plus_Chess_1.jpg,Blue_Circle_Dots_1.jpg,Green_Plus_Grid_2.jpg,left,570.0050000014016,false,high,false
FeLk0489,3pgqrazx15xrvqygpna1awvsi04ysb,3mtmreqs4zvlt9fgkobotjcyyj2awv,FeLk0489,2020-0188,2020-11-16,17:10:11,17:28:05,NA,incomplete,101,shape,0,1,left,Green_Triangle_Stripes_4.jpg,Red_Triangle_Chess_1.jpg,Blue_Circle_Grid_4.jpg,right,632.5699999979697,false,high,false
FeLk0489,3pgqrazx15xrvqygpna1awvsi04ysb,3mtmreqs4zvlt9fgkobotjcyyj2awv,FeLk0489,2020-0188,2020-11-16,17:10:11,17:28:05,NA,incomplete,102,shape,0,1,right,Purple_Circle_Grid_4.jpg,Green_Triangle_Chess_4.jpg,Blue_Circle_Dots_1.jpg,right,733.3500000021886,true,high,false
FeLk0489,3pgqrazx15xrvqygpna1awvsi04ysb,3mtmreqs4zvlt9fgkobotjcyyj2awv,FeLk0489,2020-0188,2020-11-16,17:10:11,17:28:05,NA,incomplete,103,shape,0,1,left,Blue_Plus_Stripes_3.jpg,Green_Plus_Grid_1.jpg,Red_Triangle_Dots_3.jpg,left,683.0950000003213,true,high,false
FeLk0489,3pgqrazx15xrvqygpna1awvsi04ysb,3mtmreqs4zvlt9fgkobotjcyyj2awv,FeLk0489,2020-0188,2020-11-16,17:10:11,17:28:05,NA,incomplete,104,shape,0,1,right,Purple_Triangle_Dots_4.jpg,Blue_Plus_Grid_4.jpg,Green_Triangle_Stripes_1.jpg,right,769.2500000012806,true,high,false
FeLk0489,3pgqrazx15xrvqygpna1awvsi04ysb,3mtmreqs4zvlt9fgkobotjcyyj2awv,FeLk0489,2020-0188,2020-11-16,17:10:11,17:28:05,NA,incomplete,105,shape,0,1,right,Green_Star_Dots_4.jpg,Purple_Plus_Grid_4.jpg,Blue_Star_Chess_3.jpg,right,921.3049999999348,true,high,false
FeLk0489,3pgqrazx15xrvqygpna1awvsi04ysb,3mtmreqs4zvlt9fgkobotjcyyj2awv,FeLk0489,2020-0188,2020-11-16,17:10:11,17:28:05,NA,incomplete,106,shape,0,1,left,Blue_Star_Stripes_1.jpg,Green_Star_Chess_3.jpg,Red_Plus_Dots_1.jpg,left,702.5649999997113,true,high,false
FeLk0489,3pgqrazx15xrvqygpna1awvsi04ysb,3mtmreqs4zvlt9fgkobotjcyyj2awv,FeLk0489,2020-0188,2020-11-16,17:10:11,17:28:05,NA,incomplete,107,shape,0,1,left,Green_Plus_Dots_2.jpg,Blue_Plus_Chess_4.jpg,Red_Circle_Grid_2.jpg,left,619.0700000007637,true,high,false
FeLk0489,3pgqrazx15xrvqygpna1awvsi04ysb,3mtmreqs4zvlt9fgkobotjcyyj2awv,FeLk0489,2020-0188,2020-11-16,17:10:11,17:28:05,NA,incomplete,108,shape,0,1,left,Green_Plus_Stripes_1.jpg,Purple_Plus_Grid_3.jpg,Blue_Triangle_Dots_1.jpg,left,858.0250000014203,true,high,false
FeLk0489,3pgqrazx15xrvqygpna1awvsi04ysb,3mtmreqs4zvlt9fgkobotjcyyj2awv,FeLk0489,2020-0188,2020-11-16,17:10:11,17:28:05,NA,incomplete,109,shape,0,1,right,Red_Plus_Grid_4.jpg,Blue_Star_Chess_4.jpg,Purple_Plus_Dots_3.jpg,right,699.5999999998603,true,high,false
FeLk0489,3pgqrazx15xrvqygpna1awvsi04ysb,3mtmreqs4zvlt9fgkobotjcyyj2awv,FeLk0489,2020-0188,2020-11-16,17:10:11,17:28:05,NA,incomplete,110,number,1,1,right,Purple_Plus_Chess_3.jpg,Red_Plus_Grid_2.jpg,Green_Triangle_Stripes_3.jpg,left,602.3500000010245,false,high,false
FeLk0489,3pgqrazx15xrvqygpna1awvsi04ysb,3mtmreqs4zvlt9fgkobotjcyyj2awv,FeLk0489,2020-0188,2020-11-16,17:10:11,17:28:05,NA,incomplete,111,number,1,0,right,Purple_Star_Stripes_4.jpg,Blue_Star_Chess_1.jpg,Red_Triangle_Dots_4.jpg,left,762.5349999980535,false,high,false
FeLk0489,3pgqrazx15xrvqygpna1awvsi04ysb,3mtmreqs4zvlt9fgkobotjcyyj2awv,FeLk0489,2020-0188,2020-11-16,17:10:11,17:28:05,NA,incomplete,112,number,1,1,left,Blue_Triangle_Chess_2.jpg,Red_Plus_Dots_2.jpg,Purple_Triangle_Stripes_4.jpg,right,790.1049999999814,false,high,false
FeLk0489,3pgqrazx15xrvqygpna1awvsi04ysb,3mtmreqs4zvlt9fgkobotjcyyj2awv,FeLk0489,2020-0188,2020-11-16,17:10:11,17:28:05,NA,incomplete,113,number,1,1,left,Green_Circle_Chess_1.jpg,Blue_Triangle_Stripes_1.jpg,Purple_Circle_Dots_2.jpg,right,598.4999999963911,false,high,false
FeLk0489,3pgqrazx15xrvqygpna1awvsi04ysb,3mtmreqs4zvlt9fgkobotjcyyj2awv,FeLk0489,2020-0188,2020-11-16,17:10:11,17:28:05,NA,incomplete,114,number,1,1,left,Purple_Circle_Chess_4.jpg,Green_Plus_Grid_4.jpg,Red_Circle_Dots_2.jpg,left,859.3849999997765,true,high,false
FeLk0489,3pgqrazx15xrvqygpna1awvsi04ysb,3mtmreqs4zvlt9fgkobotjcyyj2awv,FeLk0489,2020-0188,2020-11-16,17:10:11,17:28:05,NA,incomplete,115,number,1,1,left,Blue_Star_Stripes_2.jpg,Red_Plus_Dots_2.jpg,Purple_Star_Grid_4.jpg,left,640.9600000006612,true,high,false
FeLk0489,3pgqrazx15xrvqygpna1awvsi04ysb,3mtmreqs4zvlt9fgkobotjcyyj2awv,FeLk0489,2020-0188,2020-11-16,17:10:11,17:28:05,NA,incomplete,116,number,1,1,left,Purple_Triangle_Chess_1.jpg,Green_Star_Dots_1.jpg,Blue_Triangle_Stripes_2.jpg,left,748.2899999995716,true,high,false
FeLk0489,3pgqrazx15xrvqygpna1awvsi04ysb,3mtmreqs4zvlt9fgkobotjcyyj2awv,FeLk0489,2020-0188,2020-11-16,17:10:11,17:28:05,NA,incomplete,117,number,1,1,right,Blue_Star_Chess_2.jpg,Green_Star_Stripes_4.jpg,Purple_Circle_Grid_2.jpg,right,663.2900000003865,true,high,false
FeLk0489,3pgqrazx15xrvqygpna1awvsi04ysb,3mtmreqs4zvlt9fgkobotjcyyj2awv,FeLk0489,2020-0188,2020-11-16,17:10:11,17:28:05,NA,incomplete,118,number,1,1,right,Purple_Plus_Grid_4.jpg,Green_Plus_Stripes_2.jpg,Blue_Star_Chess_4.jpg,right,778.9000000011874,true,high,false
FeLk0489,3pgqrazx15xrvqygpna1awvsi04ysb,3mtmreqs4zvlt9fgkobotjcyyj2awv,FeLk0489,2020-0188,2020-11-16,17:10:11,17:28:05,NA,incomplete,119,number,1,1,right,Green_Plus_Dots_3.jpg,Purple_Plus_Stripes_2.jpg,Red_Star_Grid_3.jpg,left,680.3450000006706,false,high,false
FeLk0489,3pgqrazx15xrvqygpna1awvsi04ysb,3mtmreqs4zvlt9fgkobotjcyyj2awv,FeLk0489,2020-0188,2020-11-16,17:10:11,17:28:05,NA,incomplete,120,gender,2,1,left,C_M_04.jpg,A_M_03.jpg,C_F_06.jpg,NA,NA,NA,high,false
FeLk0489,3pgqrazx15xrvqygpna1awvsi04ysb,3mtmreqs4zvlt9fgkobotjcyyj2awv,FeLk0489,2020-0188,2020-11-16,17:10:11,17:28:05,NA,incomplete,121,gender,2,1,right,C_M_10.jpg,C_F_16.jpg,A_M_01.jpg,right,811.9100000003818,true,high,false
FeLk0489,3pgqrazx15xrvqygpna1awvsi04ysb,3mtmreqs4zvlt9fgkobotjcyyj2awv,FeLk0489,2020-0188,2020-11-16,17:10:11,17:28:05,NA,incomplete,122,gender,2,1,left,A_F_15.jpg,C_F_14.jpg,A_M_02.jpg,left,660.7400000030175,true,high,false
FeLk0489,3pgqrazx15xrvqygpna1awvsi04ysb,3mtmreqs4zvlt9fgkobotjcyyj2awv,FeLk0489,2020-0188,2020-11-16,17:10:11,17:28:05,NA,incomplete,123,gender,2,0,left,C_M_16.jpg,A_M_15.jpg,C_F_04.jpg,left,770.9049999975832,true,high,false
FeLk0489,3pgqrazx15xrvqygpna1awvsi04ysb,3mtmreqs4zvlt9fgkobotjcyyj2awv,FeLk0489,2020-0188,2020-11-16,17:10:11,17:28:05,NA,incomplete,124,gender,2,1,right,A_F_10.jpg,A_M_05.jpg,C_F_12.jpg,right,886.6449999987381,true,high,false
FeLk0489,3pgqrazx15xrvqygpna1awvsi04ysb,3mtmreqs4zvlt9fgkobotjcyyj2awv,FeLk0489,2020-0188,2020-11-16,17:10:11,17:28:05,NA,incomplete,125,gender,2,1,right,C_M_10.jpg,C_F_09.jpg,A_M_04.jpg,right,748.0950000026496,true,high,false
FeLk0489,3pgqrazx15xrvqygpna1awvsi04ysb,3mtmreqs4zvlt9fgkobotjcyyj2awv,FeLk0489,2020-0188,2020-11-16,17:10:11,17:28:05,NA,incomplete,126,gender,2,0,right,C_M_01.jpg,C_F_08.jpg,A_M_14.jpg,right,714.9899999968475,true,high,false
FeLk0489,3pgqrazx15xrvqygpna1awvsi04ysb,3mtmreqs4zvlt9fgkobotjcyyj2awv,FeLk0489,2020-0188,2020-11-16,17:10:11,17:28:05,NA,incomplete,127,gender,2,1,left,C_M_08.jpg,A_M_13.jpg,C_F_15.jpg,left,686.9100000003818,true,high,false
FeLk0489,3pgqrazx15xrvqygpna1awvsi04ysb,3mtmreqs4zvlt9fgkobotjcyyj2awv,FeLk0489,2020-0188,2020-11-16,17:10:11,17:28:05,NA,incomplete,128,gender,2,1,left,C_M_04.jpg,A_M_10.jpg,C_F_11.jpg,left,990.8799999975599,true,high,false
FeLk0489,3pgqrazx15xrvqygpna1awvsi04ysb,3mtmreqs4zvlt9fgkobotjcyyj2awv,FeLk0489,2020-0188,2020-11-16,17:10:11,17:28:05,NA,incomplete,129,gender,2,1,right,A_M_15.jpg,A_F_13.jpg,C_M_09.jpg,right,957.1550000000279,true,high,false
FeLk0489,3pgqrazx15xrvqygpna1awvsi04ysb,3mtmreqs4zvlt9fgkobotjcyyj2awv,FeLk0489,2020-0188,2020-11-16,17:10:11,17:28:05,NA,incomplete,130,gender,2,1,left,A_M_11.jpg,C_M_15.jpg,A_F_07.jpg,right,771.1300000010524,false,high,false
FeLk0489,3pgqrazx15xrvqygpna1awvsi04ysb,3mtmreqs4zvlt9fgkobotjcyyj2awv,FeLk0489,2020-0188,2020-11-16,17:10:11,17:28:05,NA,incomplete,131,gender,2,0,right,A_M_04.jpg,A_F_01.jpg,C_M_03.jpg,right,801.6850000021514,true,high,false
FeLk0489,3pgqrazx15xrvqygpna1awvsi04ysb,3mtmreqs4zvlt9fgkobotjcyyj2awv,FeLk0489,2020-0188,2020-11-16,17:10:11,17:28:05,NA,incomplete,132,gender,2,1,left,A_F_10.jpg,C_F_14.jpg,A_M_12.jpg,left,737.1450000028126,true,high,false
FeLk0489,3pgqrazx15xrvqygpna1awvsi04ysb,3mtmreqs4zvlt9fgkobotjcyyj2awv,FeLk0489,2020-0188,2020-11-16,17:10:11,17:28:05,NA,incomplete,133,gender,2,1,right,C_F_03.jpg,C_M_05.jpg,A_F_07.jpg,right,953.3699999992969,true,high,false
FeLk0489,3pgqrazx15xrvqygpna1awvsi04ysb,3mtmreqs4zvlt9fgkobotjcyyj2awv,FeLk0489,2020-0188,2020-11-16,17:10:11,17:28:05,NA,incomplete,134,gender,2,1,right,A_M_03.jpg,A_F_08.jpg,C_M_02.jpg,right,825.9600000019418,true,high,false
FeLk0489,3pgqrazx15xrvqygpna1awvsi04ysb,3mtmreqs4zvlt9fgkobotjcyyj2awv,FeLk0489,2020-0188,2020-11-16,17:10:11,17:28:05,NA,incomplete,135,gender,2,1,left,A_F_13.jpg,C_F_06.jpg,A_M_09.jpg,left,765.6850000021514,true,high,false
FeLk0489,3pgqrazx15xrvqygpna1awvsi04ysb,3mtmreqs4zvlt9fgkobotjcyyj2awv,FeLk0489,2020-0188,2020-11-16,17:10:11,17:28:05,NA,incomplete,136,gender,2,1,left,C_M_04.jpg,A_M_16.jpg,C_F_13.jpg,left,723.2149999981048,true,high,false
FeLk0489,3pgqrazx15xrvqygpna1awvsi04ysb,3mtmreqs4zvlt9fgkobotjcyyj2awv,FeLk0489,2020-0188,2020-11-16,17:10:11,17:28:05,NA,incomplete,137,gender,2,1,left,A_F_12.jpg,C_F_03.jpg,A_M_10.jpg,left,744.1999999972759,true,high,false
FeLk0489,3pgqrazx15xrvqygpna1awvsi04ysb,3mtmreqs4zvlt9fgkobotjcyyj2awv,FeLk0489,2020-0188,2020-11-16,17:10:11,17:28:05,NA,incomplete,138,gender,2,1,right,C_F_12.jpg,C_M_13.jpg,A_F_04.jpg,right,695.1799999988871,true,high,false
FeLk0489,3pgqrazx15xrvqygpna1awvsi04ysb,3mtmreqs4zvlt9fgkobotjcyyj2awv,FeLk0489,2020-0188,2020-11-16,17:10:11,17:28:05,NA,incomplete,139,gender,2,1,left,C_M_06.jpg,A_M_12.jpg,C_F_11.jpg,left,1068.074999999255,true,high,false
FeLk0489,3pgqrazx15xrvqygpna1awvsi04ysb,3mtmreqs4zvlt9fgkobotjcyyj2awv,FeLk0489,2020-0188,2020-11-16,17:10:11,17:28:05,NA,incomplete,140,race,3,1,left,A_M_16.jpg,A_F_01.jpg,C_M_12.jpg,right,938.1250000004657,false,high,false
FeLk0489,3pgqrazx15xrvqygpna1awvsi04ysb,3mtmreqs4zvlt9fgkobotjcyyj2awv,FeLk0489,2020-0188,2020-11-16,17:10:11,17:28:05,NA,incomplete,141,race,3,0,left,C_M_05.jpg,C_F_14.jpg,A_M_09.jpg,right,766.8149999991292,false,high,false
FeLk0489,3pgqrazx15xrvqygpna1awvsi04ysb,3mtmreqs4zvlt9fgkobotjcyyj2awv,FeLk0489,2020-0188,2020-11-16,17:10:11,17:28:05,NA,incomplete,142,race,3,1,right,A_F_16.jpg,C_F_13.jpg,A_M_08.jpg,left,819.0300000023562,false,high,false
FeLk0489,3pgqrazx15xrvqygpna1awvsi04ysb,3mtmreqs4zvlt9fgkobotjcyyj2awv,FeLk0489,2020-0188,2020-11-16,17:10:11,17:28:05,NA,incomplete,143,race,3,1,right,A_M_15.jpg,C_M_12.jpg,A_F_03.jpg,left,698.2400000016205,false,high,false
FeLk0489,3pgqrazx15xrvqygpna1awvsi04ysb,3mtmreqs4zvlt9fgkobotjcyyj2awv,FeLk0489,2020-0188,2020-11-16,17:10:11,17:28:05,NA,incomplete,144,race,3,1,left,C_F_09.jpg,C_M_03.jpg,A_F_12.jpg,left,913.7300000002142,true,high,false
FeLk0489,3pgqrazx15xrvqygpna1awvsi04ysb,3mtmreqs4zvlt9fgkobotjcyyj2awv,FeLk0489,2020-0188,2020-11-16,17:10:11,17:28:05,NA,incomplete,145,race,3,1,right,C_F_05.jpg,A_F_08.jpg,C_M_13.jpg,right,965.595000001369,true,high,false
FeLk0489,3pgqrazx15xrvqygpna1awvsi04ysb,3mtmreqs4zvlt9fgkobotjcyyj2awv,FeLk0489,2020-0188,2020-11-16,17:10:11,17:28:05,NA,incomplete,146,race,3,1,right,C_F_15.jpg,A_F_02.jpg,C_M_06.jpg,right,825.4250000027241,true,high,false
FeLk0489,3pgqrazx15xrvqygpna1awvsi04ysb,3mtmreqs4zvlt9fgkobotjcyyj2awv,FeLk0489,2020-0188,2020-11-16,17:10:11,17:28:05,NA,incomplete,147,race,3,1,right,C_F_01.jpg,A_F_04.jpg,C_M_09.jpg,right,885.2700000024633,true,high,false
FeLk0489,3pgqrazx15xrvqygpna1awvsi04ysb,3mtmreqs4zvlt9fgkobotjcyyj2awv,FeLk0489,2020-0188,2020-11-16,17:10:11,17:28:05,NA,incomplete,148,race,3,1,right,C_M_05.jpg,A_M_02.jpg,C_F_06.jpg,right,815.0050000003539,true,high,false
FeLk0489,3pgqrazx15xrvqygpna1awvsi04ysb,3mtmreqs4zvlt9fgkobotjcyyj2awv,FeLk0489,2020-0188,2020-11-16,17:10:11,17:28:05,NA,incomplete,149,race,3,1,right,A_F_01.jpg,C_F_07.jpg,A_M_08.jpg,right,906.2300000005635,true,high,false
FeLk0489,3pgqrazx15xrvqygpna1awvsi04ysb,3mtmreqs4zvlt9fgkobotjcyyj2awv,FeLk0489,2020-0188,2020-11-16,17:10:11,17:28:05,NA,incomplete,150,race,3,1,right,A_M_15.jpg,C_M_16.jpg,A_F_09.jpg,right,904.1250000009313,true,high,false
FeLk0489,3pgqrazx15xrvqygpna1awvsi04ysb,3mtmreqs4zvlt9fgkobotjcyyj2awv,FeLk0489,2020-0188,2020-11-16,17:10:11,17:28:05,NA,incomplete,151,race,3,1,left,C_F_01.jpg,C_M_09.jpg,A_F_16.jpg,left,919.5550000004005,true,high,false
FeLk0489,3pgqrazx15xrvqygpna1awvsi04ysb,3mtmreqs4zvlt9fgkobotjcyyj2awv,FeLk0489,2020-0188,2020-11-16,17:10:11,17:28:05,NA,incomplete,152,race,3,1,left,C_F_01.jpg,C_M_11.jpg,A_F_15.jpg,left,870.6899999997113,true,high,false
FeLk0489,3pgqrazx15xrvqygpna1awvsi04ysb,3mtmreqs4zvlt9fgkobotjcyyj2awv,FeLk0489,2020-0188,2020-11-16,17:10:11,17:28:05,NA,incomplete,153,race,3,1,right,A_M_09.jpg,C_M_13.jpg,A_F_12.jpg,right,864.3649999976624,true,high,false
FeLk0489,3pgqrazx15xrvqygpna1awvsi04ysb,3mtmreqs4zvlt9fgkobotjcyyj2awv,FeLk0489,2020-0188,2020-11-16,17:10:11,17:28:05,NA,incomplete,154,race,3,1,left,C_F_07.jpg,C_M_04.jpg,A_F_15.jpg,right,1029.3949999976903,false,high,false
FeLk0489,3pgqrazx15xrvqygpna1awvsi04ysb,3mtmreqs4zvlt9fgkobotjcyyj2awv,FeLk0489,2020-0188,2020-11-16,17:10:11,17:28:05,NA,incomplete,155,race,3,0,right,A_M_08.jpg,C_M_11.jpg,A_F_10.jpg,right,879.2150000007823,true,high,false
FeLk0489,3pgqrazx15xrvqygpna1awvsi04ysb,3mtmreqs4zvlt9fgkobotjcyyj2awv,FeLk0489,2020-0188,2020-11-16,17:10:11,17:28:05,NA,incomplete,156,race,3,1,left,C_F_13.jpg,C_M_12.jpg,A_F_02.jpg,left,768.690000000759,true,high,false
FeLk0489,3pgqrazx15xrvqygpna1awvsi04ysb,3mtmreqs4zvlt9fgkobotjcyyj2awv,FeLk0489,2020-0188,2020-11-16,17:10:11,17:28:05,NA,incomplete,157,race,3,0,right,C_F_01.jpg,A_F_06.jpg,C_M_16.jpg,right,927.0499999984168,true,high,false
FeLk0489,3pgqrazx15xrvqygpna1awvsi04ysb,3mtmreqs4zvlt9fgkobotjcyyj2awv,FeLk0489,2020-0188,2020-11-16,17:10:11,17:28:05,NA,incomplete,158,race,3,1,right,C_M_15.jpg,A_M_16.jpg,C_F_04.jpg,right,1021.7499999997672,true,high,false
FeLk0489,3pgqrazx15xrvqygpna1awvsi04ysb,3mtmreqs4zvlt9fgkobotjcyyj2awv,FeLk0489,2020-0188,2020-11-16,17:10:11,17:28:05,NA,incomplete,159,race,3,1,right,A_M_10.jpg,C_M_15.jpg,A_F_04.jpg,right,1204.615000002319,true,high,false
FeLk0489,3pgqrazx15xrvqygpna1awvsi04ysb,3mtmreqs4zvlt9fgkobotjcyyj2awv,FeLk0489,2020-0188,2020-11-16,17:10:11,17:28:05,NA,incomplete,160,gender,2,1,left,C_F_05.jpg,A_F_07.jpg,C_M_15.jpg,right,833.7549999996554,false,high,false
FeLk0489,3pgqrazx15xrvqygpna1awvsi04ysb,3mtmreqs4zvlt9fgkobotjcyyj2awv,FeLk0489,2020-0188,2020-11-16,17:10:11,17:28:05,NA,incomplete,161,gender,2,0,right,C_M_06.jpg,C_F_09.jpg,A_M_04.jpg,left,926.5599999999395,false,high,false
FeLk0489,3pgqrazx15xrvqygpna1awvsi04ysb,3mtmreqs4zvlt9fgkobotjcyyj2awv,FeLk0489,2020-0188,2020-11-16,17:10:11,17:28:05,NA,incomplete,162,gender,2,1,right,A_M_09.jpg,A_F_14.jpg,C_M_12.jpg,left,1018.1699999993434,false,high,false
FeLk0489,3pgqrazx15xrvqygpna1awvsi04ysb,3mtmreqs4zvlt9fgkobotjcyyj2awv,FeLk0489,2020-0188,2020-11-16,17:10:11,17:28:05,NA,incomplete,163,gender,2,1,left,A_F_07.jpg,C_F_16.jpg,A_M_06.jpg,right,832.5450000010896,false,high,false
FeLk0489,3pgqrazx15xrvqygpna1awvsi04ysb,3mtmreqs4zvlt9fgkobotjcyyj2awv,FeLk0489,2020-0188,2020-11-16,17:10:11,17:28:05,NA,incomplete,164,gender,2,0,right,A_M_02.jpg,A_F_15.jpg,C_M_08.jpg,right,826.4299999973737,true,high,false
FeLk0489,3pgqrazx15xrvqygpna1awvsi04ysb,3mtmreqs4zvlt9fgkobotjcyyj2awv,FeLk0489,2020-0188,2020-11-16,17:10:11,17:28:05,NA,incomplete,165,gender,2,1,right,C_M_09.jpg,C_F_01.jpg,A_M_16.jpg,right,981.7600000023376,true,high,false
FeLk0489,3pgqrazx15xrvqygpna1awvsi04ysb,3mtmreqs4zvlt9fgkobotjcyyj2awv,FeLk0489,2020-0188,2020-11-16,17:10:11,17:28:05,NA,incomplete,166,gender,2,1,left,A_M_02.jpg,C_M_03.jpg,A_F_06.jpg,left,850.6799999994691,true,high,false
FeLk0489,3pgqrazx15xrvqygpna1awvsi04ysb,3mtmreqs4zvlt9fgkobotjcyyj2awv,FeLk0489,2020-0188,2020-11-16,17:10:11,17:28:05,NA,incomplete,167,gender,2,1,right,A_F_08.jpg,A_M_10.jpg,C_F_07.jpg,right,768.5400000009686,true,high,false
FeLk0489,3pgqrazx15xrvqygpna1awvsi04ysb,3mtmreqs4zvlt9fgkobotjcyyj2awv,FeLk0489,2020-0188,2020-11-16,17:10:11,17:28:05,NA,incomplete,168,gender,2,1,right,C_M_13.jpg,C_F_05.jpg,A_M_16.jpg,right,806.6949999992503,true,high,false
FeLk0489,3pgqrazx15xrvqygpna1awvsi04ysb,3mtmreqs4zvlt9fgkobotjcyyj2awv,FeLk0489,2020-0188,2020-11-16,17:10:11,17:28:05,NA,incomplete,169,gender,2,1,left,A_M_01.jpg,C_M_09.jpg,A_F_11.jpg,left,750.3649999998743,true,high,false
FeLk0489,3pgqrazx15xrvqygpna1awvsi04ysb,3mtmreqs4zvlt9fgkobotjcyyj2awv,FeLk0489,2020-0188,2020-11-16,17:10:11,17:28:05,NA,incomplete,170,gender,2,1,left,A_F_09.jpg,C_F_10.jpg,A_M_13.jpg,left,727.0049999969779,true,high,false
FeLk0489,3pgqrazx15xrvqygpna1awvsi04ysb,3mtmreqs4zvlt9fgkobotjcyyj2awv,FeLk0489,2020-0188,2020-11-16,17:10:11,17:28:05,NA,incomplete,171,gender,2,1,right,A_F_07.jpg,A_M_13.jpg,C_F_06.jpg,right,840.3900000012945,true,high,false
FeLk0489,3pgqrazx15xrvqygpna1awvsi04ysb,3mtmreqs4zvlt9fgkobotjcyyj2awv,FeLk0489,2020-0188,2020-11-16,17:10:11,17:28:05,NA,incomplete,172,gender,2,1,right,A_M_11.jpg,A_F_06.jpg,C_M_15.jpg,right,913.3750000001164,true,high,false
FeLk0489,3pgqrazx15xrvqygpna1awvsi04ysb,3mtmreqs4zvlt9fgkobotjcyyj2awv,FeLk0489,2020-0188,2020-11-16,17:10:11,17:28:05,NA,incomplete,173,gender,2,1,left,C_F_06.jpg,A_F_13.jpg,C_M_04.jpg,left,683.0599999994738,true,high,false
FeLk0489,3pgqrazx15xrvqygpna1awvsi04ysb,3mtmreqs4zvlt9fgkobotjcyyj2awv,FeLk0489,2020-0188,2020-11-16,17:10:11,17:28:05,NA,incomplete,174,gender,2,1,right,C_F_05.jpg,C_M_14.jpg,A_F_15.jpg,right,887.415000001085,true,high,false
FeLk0489,3pgqrazx15xrvqygpna1awvsi04ysb,3mtmreqs4zvlt9fgkobotjcyyj2awv,FeLk0489,2020-0188,2020-11-16,17:10:11,17:28:05,NA,incomplete,175,gender,2,1,left,C_M_16.jpg,A_M_14.jpg,C_F_05.jpg,left,634.7500000011642,true,high,false
FeLk0489,3pgqrazx15xrvqygpna1awvsi04ysb,3mtmreqs4zvlt9fgkobotjcyyj2awv,FeLk0489,2020-0188,2020-11-16,17:10:11,17:28:05,NA,incomplete,176,gender,2,1,right,C_F_15.jpg,C_M_13.jpg,A_F_09.jpg,right,963.8549999981187,true,high,false
FeLk0489,3pgqrazx15xrvqygpna1awvsi04ysb,3mtmreqs4zvlt9fgkobotjcyyj2awv,FeLk0489,2020-0188,2020-11-16,17:10:11,17:28:05,NA,incomplete,177,gender,2,1,right,A_F_03.jpg,A_M_10.jpg,C_F_07.jpg,right,793.4150000001537,true,high,false
FeLk0489,3pgqrazx15xrvqygpna1awvsi04ysb,3mtmreqs4zvlt9fgkobotjcyyj2awv,FeLk0489,2020-0188,2020-11-16,17:10:11,17:28:05,NA,incomplete,178,gender,2,0,right,A_M_16.jpg,A_F_06.jpg,C_M_01.jpg,right,827.4000000020023,true,high,false
FeLk0489,3pgqrazx15xrvqygpna1awvsi04ysb,3mtmreqs4zvlt9fgkobotjcyyj2awv,FeLk0489,2020-0188,2020-11-16,17:10:11,17:28:05,NA,incomplete,179,gender,2,1,right,C_F_06.jpg,C_M_03.jpg,A_F_09.jpg,right,820.8549999981187,true,high,false
FeLk0489,3pgqrazx15xrvqygpna1awvsi04ysb,3mtmreqs4zvlt9fgkobotjcyyj2awv,FeLk0489,2020-0188,2020-11-16,17:10:11,17:28:05,NA,incomplete,180,race,3,1,right,C_F_15.jpg,A_F_01.jpg,C_M_10.jpg,left,713.4200000000419,false,high,false
FeLk0489,3pgqrazx15xrvqygpna1awvsi04ysb,3mtmreqs4zvlt9fgkobotjcyyj2awv,FeLk0489,2020-0188,2020-11-16,17:10:11,17:28:05,NA,incomplete,181,race,3,1,right,A_M_15.jpg,C_M_12.jpg,A_F_03.jpg,left,746.3249999999534,false,high,false
FeLk0489,3pgqrazx15xrvqygpna1awvsi04ysb,3mtmreqs4zvlt9fgkobotjcyyj2awv,FeLk0489,2020-0188,2020-11-16,17:10:11,17:28:05,NA,incomplete,182,race,3,0,right,C_F_06.jpg,A_F_05.jpg,C_M_09.jpg,right,842.4100000010803,true,high,false
FeLk0489,3pgqrazx15xrvqygpna1awvsi04ysb,3mtmreqs4zvlt9fgkobotjcyyj2awv,FeLk0489,2020-0188,2020-11-16,17:10:11,17:28:05,NA,incomplete,183,race,3,1,left,A_F_10.jpg,A_M_16.jpg,C_F_04.jpg,right,838.835000002291,false,high,false
FeLk0489,3pgqrazx15xrvqygpna1awvsi04ysb,3mtmreqs4zvlt9fgkobotjcyyj2awv,FeLk0489,2020-0188,2020-11-16,17:10:11,17:28:05,NA,incomplete,184,race,3,1,right,A_F_15.jpg,C_F_07.jpg,A_M_03.jpg,right,888.1000000000931,true,high,false
FeLk0489,3pgqrazx15xrvqygpna1awvsi04ysb,3mtmreqs4zvlt9fgkobotjcyyj2awv,FeLk0489,2020-0188,2020-11-16,17:10:11,17:28:05,NA,incomplete,185,race,3,1,right,A_M_11.jpg,C_M_05.jpg,A_F_06.jpg,right,1352.554999997723,true,high,false
FeLk0489,3pgqrazx15xrvqygpna1awvsi04ysb,3mtmreqs4zvlt9fgkobotjcyyj2awv,FeLk0489,2020-0188,2020-11-16,17:10:11,17:28:05,NA,incomplete,186,race,3,0,left,C_M_15.jpg,C_F_11.jpg,A_M_04.jpg,left,975.7350000001024,true,high,false
FeLk0489,3pgqrazx15xrvqygpna1awvsi04ysb,3mtmreqs4zvlt9fgkobotjcyyj2awv,FeLk0489,2020-0188,2020-11-16,17:10:11,17:28:05,NA,incomplete,187,race,3,1,right,C_F_12.jpg,A_F_14.jpg,C_M_08.jpg,right,915.7750000013039,true,high,false
FeLk0489,3pgqrazx15xrvqygpna1awvsi04ysb,3mtmreqs4zvlt9fgkobotjcyyj2awv,FeLk0489,2020-0188,2020-11-16,17:10:11,17:28:05,NA,incomplete,188,race,3,0,left,A_M_04.jpg,A_F_01.jpg,C_M_15.jpg,left,840.490000002319,true,high,false
FeLk0489,3pgqrazx15xrvqygpna1awvsi04ysb,3mtmreqs4zvlt9fgkobotjcyyj2awv,FeLk0489,2020-0188,2020-11-16,17:10:11,17:28:05,NA,incomplete,189,race,3,1,right,A_F_12.jpg,C_F_08.jpg,A_M_01.jpg,right,936.3200000007637,true,high,false
FeLk0489,3pgqrazx15xrvqygpna1awvsi04ysb,3mtmreqs4zvlt9fgkobotjcyyj2awv,FeLk0489,2020-0188,2020-11-16,17:10:11,17:28:05,NA,incomplete,190,race,3,0,left,C_F_13.jpg,C_M_03.jpg,A_F_08.jpg,left,935.154999999213,true,high,false
FeLk0489,3pgqrazx15xrvqygpna1awvsi04ysb,3mtmreqs4zvlt9fgkobotjcyyj2awv,FeLk0489,2020-0188,2020-11-16,17:10:11,17:28:05,NA,incomplete,191,race,3,1,left,C_F_03.jpg,C_M_02.jpg,A_F_16.jpg,left,918.4349999995902,true,high,false
FeLk0489,3pgqrazx15xrvqygpna1awvsi04ysb,3mtmreqs4zvlt9fgkobotjcyyj2awv,FeLk0489,2020-0188,2020-11-16,17:10:11,17:28:05,NA,incomplete,192,race,3,1,left,C_F_11.jpg,C_M_16.jpg,A_F_13.jpg,left,966.6999999971595,true,high,false
FeLk0489,3pgqrazx15xrvqygpna1awvsi04ysb,3mtmreqs4zvlt9fgkobotjcyyj2awv,FeLk0489,2020-0188,2020-11-16,17:10:11,17:28:05,NA,incomplete,193,race,3,1,right,C_F_07.jpg,A_F_16.jpg,C_M_05.jpg,right,894.5800000000745,true,high,false
FeLk0489,3pgqrazx15xrvqygpna1awvsi04ysb,3mtmreqs4zvlt9fgkobotjcyyj2awv,FeLk0489,2020-0188,2020-11-16,17:10:11,17:28:05,NA,incomplete,194,race,3,1,left,C_F_03.jpg,C_M_01.jpg,A_F_13.jpg,left,812.6750000010943,true,high,false
FeLk0489,3pgqrazx15xrvqygpna1awvsi04ysb,3mtmreqs4zvlt9fgkobotjcyyj2awv,FeLk0489,2020-0188,2020-11-16,17:10:11,17:28:05,NA,incomplete,195,race,3,1,right,C_F_10.jpg,A_F_04.jpg,C_M_09.jpg,right,990.685000000638,true,high,false
FeLk0489,3pgqrazx15xrvqygpna1awvsi04ysb,3mtmreqs4zvlt9fgkobotjcyyj2awv,FeLk0489,2020-0188,2020-11-16,17:10:11,17:28:05,NA,incomplete,196,race,3,1,left,C_F_11.jpg,C_M_09.jpg,A_F_06.jpg,left,938.2800000021234,true,high,false
FeLk0489,3pgqrazx15xrvqygpna1awvsi04ysb,3mtmreqs4zvlt9fgkobotjcyyj2awv,FeLk0489,2020-0188,2020-11-16,17:10:11,17:28:05,NA,incomplete,197,race,3,1,left,A_F_11.jpg,A_M_10.jpg,C_F_07.jpg,left,932.4950000009267,true,high,false
FeLk0489,3pgqrazx15xrvqygpna1awvsi04ysb,3mtmreqs4zvlt9fgkobotjcyyj2awv,FeLk0489,2020-0188,2020-11-16,17:10:11,17:28:05,NA,incomplete,198,race,3,1,right,A_F_15.jpg,C_F_14.jpg,A_M_08.jpg,right,881.5699999977369,true,high,false
FeLk0489,3pgqrazx15xrvqygpna1awvsi04ysb,3mtmreqs4zvlt9fgkobotjcyyj2awv,FeLk0489,2020-0188,2020-11-16,17:10:11,17:28:05,NA,incomplete,199,race,3,0,left,C_F_07.jpg,C_M_12.jpg,A_F_11.jpg,left,814.2800000022398,true,high,false
FeLk0489,3pgqrazx15xrvqygpna1awvsi04ysb,3mtmreqs4zvlt9fgkobotjcyyj2awv,FeLk0489,2020-0188,2020-11-16,17:10:11,17:28:05,NA,incomplete,200,gender,2,1,left,C_M_16.jpg,A_M_02.jpg,C_F_08.jpg,right,804.3199999992503,false,high,false
FeLk0489,3pgqrazx15xrvqygpna1awvsi04ysb,3mtmreqs4zvlt9fgkobotjcyyj2awv,FeLk0489,2020-0188,2020-11-16,17:10:11,17:28:05,NA,incomplete,201,gender,2,0,right,C_F_11.jpg,C_M_01.jpg,A_F_05.jpg,right,1017.5549999985378,true,high,false
FeLk0489,3pgqrazx15xrvqygpna1awvsi04ysb,3mtmreqs4zvlt9fgkobotjcyyj2awv,FeLk0489,2020-0188,2020-11-16,17:10:11,17:28:05,NA,incomplete,202,gender,2,1,right,C_F_09.jpg,C_M_06.jpg,A_F_04.jpg,left,958.8150000018068,false,high,false
FeLk0489,3pgqrazx15xrvqygpna1awvsi04ysb,3mtmreqs4zvlt9fgkobotjcyyj2awv,FeLk0489,2020-0188,2020-11-16,17:10:11,17:28:05,NA,incomplete,203,gender,2,0,left,A_M_12.jpg,C_M_13.jpg,A_F_01.jpg,left,783.8599999995204,true,high,false
FeLk0489,3pgqrazx15xrvqygpna1awvsi04ysb,3mtmreqs4zvlt9fgkobotjcyyj2awv,FeLk0489,2020-0188,2020-11-16,17:10:11,17:28:05,NA,incomplete,204,gender,2,1,left,A_M_04.jpg,C_M_12.jpg,A_F_06.jpg,left,903.9950000005774,true,high,false
FeLk0489,3pgqrazx15xrvqygpna1awvsi04ysb,3mtmreqs4zvlt9fgkobotjcyyj2awv,FeLk0489,2020-0188,2020-11-16,17:10:11,17:28:05,NA,incomplete,205,gender,2,1,right,C_M_02.jpg,C_F_10.jpg,A_M_06.jpg,right,711.2950000009732,true,high,false
FeLk0489,3pgqrazx15xrvqygpna1awvsi04ysb,3mtmreqs4zvlt9fgkobotjcyyj2awv,FeLk0489,2020-0188,2020-11-16,17:10:11,17:28:05,NA,incomplete,206,gender,2,1,right,C_F_08.jpg,C_M_10.jpg,A_F_06.jpg,right,851.585000000312,true,high,false
FeLk0489,3pgqrazx15xrvqygpna1awvsi04ysb,3mtmreqs4zvlt9fgkobotjcyyj2awv,FeLk0489,2020-0188,2020-11-16,17:10:11,17:28:05,NA,incomplete,207,gender,2,0,left,A_M_14.jpg,C_M_05.jpg,A_F_03.jpg,left,781.1350000011735,true,high,false
FeLk0489,3pgqrazx15xrvqygpna1awvsi04ysb,3mtmreqs4zvlt9fgkobotjcyyj2awv,FeLk0489,2020-0188,2020-11-16,17:10:11,17:28:05,NA,incomplete,208,gender,2,1,left,A_M_16.jpg,C_M_07.jpg,A_F_12.jpg,left,720.2399999987101,true,high,false
FeLk0489,3pgqrazx15xrvqygpna1awvsi04ysb,3mtmreqs4zvlt9fgkobotjcyyj2awv,FeLk0489,2020-0188,2020-11-16,17:10:11,17:28:05,NA,incomplete,209,gender,2,1,left,C_F_10.jpg,A_F_03.jpg,C_M_05.jpg,left,851.7949999986449,true,high,false
FeLk0489,3pgqrazx15xrvqygpna1awvsi04ysb,3mtmreqs4zvlt9fgkobotjcyyj2awv,FeLk0489,2020-0188,2020-11-16,17:10:11,17:28:05,NA,incomplete,210,gender,2,0,left,C_M_09.jpg,A_M_05.jpg,C_F_15.jpg,left,786.6149999973131,true,high,false
FeLk0489,3pgqrazx15xrvqygpna1awvsi04ysb,3mtmreqs4zvlt9fgkobotjcyyj2awv,FeLk0489,2020-0188,2020-11-16,17:10:11,17:28:05,NA,incomplete,211,gender,2,1,left,C_M_11.jpg,A_M_10.jpg,C_F_05.jpg,left,691.4600000018254,true,high,false
FeLk0489,3pgqrazx15xrvqygpna1awvsi04ysb,3mtmreqs4zvlt9fgkobotjcyyj2awv,FeLk0489,2020-0188,2020-11-16,17:10:11,17:28:05,NA,incomplete,212,gender,2,1,left,C_F_11.jpg,A_F_01.jpg,C_M_02.jpg,left,680.4350000020349,true,high,false
FeLk0489,3pgqrazx15xrvqygpna1awvsi04ysb,3mtmreqs4zvlt9fgkobotjcyyj2awv,FeLk0489,2020-0188,2020-11-16,17:10:11,17:28:05,NA,incomplete,213,gender,2,1,right,A_F_07.jpg,A_M_09.jpg,C_F_03.jpg,right,784.8999999987427,true,high,false
FeLk0489,3pgqrazx15xrvqygpna1awvsi04ysb,3mtmreqs4zvlt9fgkobotjcyyj2awv,FeLk0489,2020-0188,2020-11-16,17:10:11,17:28:05,NA,incomplete,214,gender,2,1,left,A_M_08.jpg,C_M_13.jpg,A_F_06.jpg,left,717.3450000010198,true,high,false
FeLk0489,3pgqrazx15xrvqygpna1awvsi04ysb,3mtmreqs4zvlt9fgkobotjcyyj2awv,FeLk0489,2020-0188,2020-11-16,17:10:11,17:28:05,NA,incomplete,215,gender,2,1,right,A_F_16.jpg,A_M_12.jpg,C_F_06.jpg,right,772.3199999999488,true,high,false
FeLk0489,3pgqrazx15xrvqygpna1awvsi04ysb,3mtmreqs4zvlt9fgkobotjcyyj2awv,FeLk0489,2020-0188,2020-11-16,17:10:11,17:28:05,NA,incomplete,216,gender,2,1,right,A_F_03.jpg,A_M_13.jpg,C_F_02.jpg,right,670.2900000017835,true,high,false
FeLk0489,3pgqrazx15xrvqygpna1awvsi04ysb,3mtmreqs4zvlt9fgkobotjcyyj2awv,FeLk0489,2020-0188,2020-11-16,17:10:11,17:28:05,NA,incomplete,217,gender,2,1,right,C_M_11.jpg,C_F_08.jpg,A_M_03.jpg,right,856.434999997844,true,high,false
FeLk0489,3pgqrazx15xrvqygpna1awvsi04ysb,3mtmreqs4zvlt9fgkobotjcyyj2awv,FeLk0489,2020-0188,2020-11-16,17:10:11,17:28:05,NA,incomplete,218,gender,2,1,left,C_F_15.jpg,A_F_05.jpg,C_M_02.jpg,left,684.6550000009593,true,high,false
FeLk0489,3pgqrazx15xrvqygpna1awvsi04ysb,3mtmreqs4zvlt9fgkobotjcyyj2awv,FeLk0489,2020-0188,2020-11-16,17:10:11,17:28:05,NA,incomplete,219,gender,2,0,right,C_F_05.jpg,C_M_03.jpg,A_F_12.jpg,right,697.5500000008615,true,high,false
FeLk0489,3pgqrazx15xrvqygpna1awvsi04ysb,3mtmreqs4zvlt9fgkobotjcyyj2awv,FeLk0489,2020-0188,2020-11-16,17:10:11,17:28:05,NA,incomplete,220,race,3,1,right,A_M_03.jpg,C_M_02.jpg,A_F_01.jpg,left,613.274999999674,false,high,false
FeLk0489,3pgqrazx15xrvqygpna1awvsi04ysb,3mtmreqs4zvlt9fgkobotjcyyj2awv,FeLk0489,2020-0188,2020-11-16,17:10:11,17:28:05,NA,incomplete,221,race,3,1,left,A_F_02.jpg,A_M_13.jpg,C_F_09.jpg,right,730.2300000009127,false,high,false
FeLk0489,3pgqrazx15xrvqygpna1awvsi04ysb,3mtmreqs4zvlt9fgkobotjcyyj2awv,FeLk0489,2020-0188,2020-11-16,17:10:11,17:28:05,NA,incomplete,222,race,3,0,right,C_F_09.jpg,A_F_14.jpg,C_M_08.jpg,right,871.8599999992875,true,high,false
FeLk0489,3pgqrazx15xrvqygpna1awvsi04ysb,3mtmreqs4zvlt9fgkobotjcyyj2awv,FeLk0489,2020-0188,2020-11-16,17:10:11,17:28:05,NA,incomplete,223,race,3,1,right,A_F_11.jpg,C_F_15.jpg,A_M_13.jpg,right,877.8150000034366,true,high,false
FeLk0489,3pgqrazx15xrvqygpna1awvsi04ysb,3mtmreqs4zvlt9fgkobotjcyyj2awv,FeLk0489,2020-0188,2020-11-16,17:10:11,17:28:05,NA,incomplete,224,race,3,1,left,A_F_03.jpg,A_M_01.jpg,C_F_11.jpg,left,1154.3250000030966,true,high,false
FeLk0489,3pgqrazx15xrvqygpna1awvsi04ysb,3mtmreqs4zvlt9fgkobotjcyyj2awv,FeLk0489,2020-0188,2020-11-16,17:10:11,17:28:05,NA,incomplete,225,race,3,1,left,C_M_02.jpg,C_F_10.jpg,A_M_06.jpg,left,888.184999999823,true,high,false
FeLk0489,3pgqrazx15xrvqygpna1awvsi04ysb,3mtmreqs4zvlt9fgkobotjcyyj2awv,FeLk0489,2020-0188,2020-11-16,17:10:11,17:28:05,NA,incomplete,226,race,3,1,right,A_M_08.jpg,C_M_01.jpg,A_F_10.jpg,right,762.9100000013132,true,high,false
FeLk0489,3pgqrazx15xrvqygpna1awvsi04ysb,3mtmreqs4zvlt9fgkobotjcyyj2awv,FeLk0489,2020-0188,2020-11-16,17:10:11,17:28:05,NA,incomplete,227,race,3,1,left,A_F_07.jpg,A_M_08.jpg,C_F_02.jpg,left,719.7799999995623,true,high,false
FeLk0489,3pgqrazx15xrvqygpna1awvsi04ysb,3mtmreqs4zvlt9fgkobotjcyyj2awv,FeLk0489,2020-0188,2020-11-16,17:10:11,17:28:05,NA,incomplete,228,race,3,1,right,C_M_08.jpg,A_M_15.jpg,C_F_02.jpg,right,896.9949999991804,true,high,false
FeLk0489,3pgqrazx15xrvqygpna1awvsi04ysb,3mtmreqs4zvlt9fgkobotjcyyj2awv,FeLk0489,2020-0188,2020-11-16,17:10:11,17:28:05,NA,incomplete,229,race,3,0,left,C_M_10.jpg,C_F_06.jpg,A_M_15.jpg,left,841.0750000003027,true,high,false
FeLk0489,3pgqrazx15xrvqygpna1awvsi04ysb,3mtmreqs4zvlt9fgkobotjcyyj2awv,FeLk0489,2020-0188,2020-11-16,17:10:11,17:28:05,NA,incomplete,230,race,3,1,right,A_M_13.jpg,C_M_02.jpg,A_F_06.jpg,right,794.6999999985565,true,high,false
FeLk0489,3pgqrazx15xrvqygpna1awvsi04ysb,3mtmreqs4zvlt9fgkobotjcyyj2awv,FeLk0489,2020-0188,2020-11-16,17:10:11,17:28:05,NA,incomplete,231,race,3,1,right,A_M_07.jpg,C_M_16.jpg,A_F_11.jpg,right,860.6299999991897,true,high,false
FeLk0489,3pgqrazx15xrvqygpna1awvsi04ysb,3mtmreqs4zvlt9fgkobotjcyyj2awv,FeLk0489,2020-0188,2020-11-16,17:10:11,17:28:05,NA,incomplete,232,race,3,0,left,C_F_13.jpg,C_M_16.jpg,A_F_03.jpg,left,807.0499999994645,true,high,false
FeLk0489,3pgqrazx15xrvqygpna1awvsi04ysb,3mtmreqs4zvlt9fgkobotjcyyj2awv,FeLk0489,2020-0188,2020-11-16,17:10:11,17:28:05,NA,incomplete,233,race,3,1,left,C_M_15.jpg,C_F_12.jpg,A_M_05.jpg,left,744.1849999994738,true,high,false
FeLk0489,3pgqrazx15xrvqygpna1awvsi04ysb,3mtmreqs4zvlt9fgkobotjcyyj2awv,FeLk0489,2020-0188,2020-11-16,17:10:11,17:28:05,NA,incomplete,234,race,3,1,right,C_M_05.jpg,A_M_13.jpg,C_F_06.jpg,right,865.7650000023423,true,high,false
FeLk0489,3pgqrazx15xrvqygpna1awvsi04ysb,3mtmreqs4zvlt9fgkobotjcyyj2awv,FeLk0489,2020-0188,2020-11-16,17:10:11,17:28:05,NA,incomplete,235,race,3,0,left,C_M_08.jpg,C_F_06.jpg,A_M_16.jpg,left,789.9900000011548,true,high,false
FeLk0489,3pgqrazx15xrvqygpna1awvsi04ysb,3mtmreqs4zvlt9fgkobotjcyyj2awv,FeLk0489,2020-0188,2020-11-16,17:10:11,17:28:05,NA,incomplete,236,race,3,1,left,C_M_12.jpg,C_F_13.jpg,A_M_15.jpg,left,858.0250000014203,true,high,false
FeLk0489,3pgqrazx15xrvqygpna1awvsi04ysb,3mtmreqs4zvlt9fgkobotjcyyj2awv,FeLk0489,2020-0188,2020-11-16,17:10:11,17:28:05,NA,incomplete,237,race,3,0,right,C_F_11.jpg,A_F_15.jpg,C_M_05.jpg,right,1092.9749999996275,true,high,false
FeLk0489,3pgqrazx15xrvqygpna1awvsi04ysb,3mtmreqs4zvlt9fgkobotjcyyj2awv,FeLk0489,2020-0188,2020-11-16,17:10:11,17:28:05,NA,incomplete,238,race,3,1,right,A_F_01.jpg,C_F_14.jpg,A_M_02.jpg,right,875.0549999967916,true,high,false
FeLk0489,3pgqrazx15xrvqygpna1awvsi04ysb,3mtmreqs4zvlt9fgkobotjcyyj2awv,FeLk0489,2020-0188,2020-11-16,17:10:11,17:28:05,NA,incomplete,239,race,3,1,right,C_F_04.jpg,A_F_07.jpg,C_M_12.jpg,right,890.4299999994691,true,high,false
FeLk0489,3pgqrazx15xrvqygpna1awvsi04ysb,3mtmreqs4zvlt9fgkobotjcyyj2awv,FeLk0489,2020-0188,2020-11-16,17:10:11,17:28:05,NA,NA,instruction example,shape,NA,NA,NA,Blue_Circle_Chess_1.jpg,Green_Circle_Dots_2.jpg,Red_Triangle_Stripes_1.jpg,NA,NA,NA,NA,undefined
FeLk0489,3pgqrazx15xrvqygpna1awvsi04ysb,3mtmreqs4zvlt9fgkobotjcyyj2awv,FeLk0489,2020-0188,2020-11-16,17:10:11,17:28:05,NA,NA,instruction example,shape,NA,NA,NA,Red_Star_Grid_4.jpg,Purple_Triangle_Stripes_4.jpg,Green_Star_Chess_2.jpg,NA,NA,NA,NA,undefined
FeLk0489,3pgqrazx15xrvqygpna1awvsi04ysb,3mtmreqs4zvlt9fgkobotjcyyj2awv,FeLk0489,2020-0188,2020-11-16,17:10:11,17:28:05,NA,NA,instruction example,shape,NA,NA,NA,A_M_12.jpg,C_M_05.jpg,A_F_16.jpg,NA,NA,NA,NA,undefined
FeLk0489,3pgqrazx15xrvqygpna1awvsi04ysb,3mtmreqs4zvlt9fgkobotjcyyj2awv,FeLk0489,2020-0188,2020-11-16,17:10:11,17:28:05,NA,NA,instruction example,shape,NA,NA,NA,A_M_12.jpg,A_F_01.jpg,C_M_07.jpg,NA,NA,NA,NA,undefined
