workerId,hitId,assignmentId,subject,studyid,exp_date,exp_start,exp_end,time_start,time_end,trial,type,sequence,reward_validity,answer,image_top,image_left,image_right,response,response_time,response_acc,volatility,practice
uMH5ck64,3atyli1pswfm29bow6spg463876ojo,3nd9uoo81of2ps6khf0e2xs9sy7lw0,uMH5ck64,2020-0188,2020-11-17,09:15:48,09:43:47,NA,incomplete,0,filling,0,0,left,Red_Plus_Dots_1.jpg,Blue_Circle_Dots_2.jpg,Red_Star_Grid_4.jpg,right,1276.3199999990175,false,NA,true
uMH5ck64,3atyli1pswfm29bow6spg463876ojo,3nd9uoo81of2ps6khf0e2xs9sy7lw0,uMH5ck64,2020-0188,2020-11-17,09:15:48,09:43:47,NA,incomplete,1,filling,0,0,right,Blue_Star_Chess_4.jpg,Blue_Circle_Dots_2.jpg,Purple_Plus_Chess_3.jpg,right,1303.3849999992526,true,NA,true
uMH5ck64,3atyli1pswfm29bow6spg463876ojo,3nd9uoo81of2ps6khf0e2xs9sy7lw0,uMH5ck64,2020-0188,2020-11-17,09:15:48,09:43:47,NA,incomplete,2,filling,0,1,right,Green_Star_Chess_1.jpg,Green_Triangle_Grid_4.jpg,Blue_Plus_Chess_2.jpg,right,1211.3050000007497,true,NA,true
uMH5ck64,3atyli1pswfm29bow6spg463876ojo,3nd9uoo81of2ps6khf0e2xs9sy7lw0,uMH5ck64,2020-0188,2020-11-17,09:15:48,09:43:47,NA,incomplete,3,filling,0,0,left,Green_Triangle_Grid_3.jpg,Purple_Star_Grid_4.jpg,Green_Circle_Dots_1.jpg,left,1191.9999999991269,true,NA,true
uMH5ck64,3atyli1pswfm29bow6spg463876ojo,3nd9uoo81of2ps6khf0e2xs9sy7lw0,uMH5ck64,2020-0188,2020-11-17,09:15:48,09:43:47,NA,incomplete,4,filling,0,1,left,Purple_Plus_Dots_2.jpg,Red_Triangle_Dots_1.jpg,Purple_Star_Grid_3.jpg,left,1074.4350000004051,true,NA,true
uMH5ck64,3atyli1pswfm29bow6spg463876ojo,3nd9uoo81of2ps6khf0e2xs9sy7lw0,uMH5ck64,2020-0188,2020-11-17,09:15:48,09:43:47,NA,incomplete,5,filling,0,1,right,Red_Plus_Grid_3.jpg,Red_Star_Chess_2.jpg,Purple_Triangle_Grid_4.jpg,right,987.930000001099,true,NA,true
uMH5ck64,3atyli1pswfm29bow6spg463876ojo,3nd9uoo81of2ps6khf0e2xs9sy7lw0,uMH5ck64,2020-0188,2020-11-17,09:15:48,09:43:47,NA,incomplete,6,filling,0,1,right,Red_Circle_Chess_2.jpg,Red_Star_Grid_3.jpg,Blue_Plus_Chess_4.jpg,right,1000.029999999213,true,NA,true
uMH5ck64,3atyli1pswfm29bow6spg463876ojo,3nd9uoo81of2ps6khf0e2xs9sy7lw0,uMH5ck64,2020-0188,2020-11-17,09:15:48,09:43:47,NA,incomplete,7,filling,0,1,right,Green_Star_Grid_2.jpg,Green_Circle_Chess_1.jpg,Blue_Plus_Grid_4.jpg,right,886.4599999996717,true,NA,true
uMH5ck64,3atyli1pswfm29bow6spg463876ojo,3nd9uoo81of2ps6khf0e2xs9sy7lw0,uMH5ck64,2020-0188,2020-11-17,09:15:48,09:43:47,NA,incomplete,8,filling,0,1,right,Purple_Star_Stripes_1.jpg,Purple_Circle_Chess_4.jpg,Green_Plus_Stripes_3.jpg,right,1163.140000000596,true,NA,true
uMH5ck64,3atyli1pswfm29bow6spg463876ojo,3nd9uoo81of2ps6khf0e2xs9sy7lw0,uMH5ck64,2020-0188,2020-11-17,09:15:48,09:43:47,NA,incomplete,9,filling,0,1,left,Purple_Triangle_Stripes_1.jpg,Red_Plus_Stripes_3.jpg,Purple_Star_Chess_2.jpg,left,1009.6250000006403,true,NA,true
uMH5ck64,3atyli1pswfm29bow6spg463876ojo,3nd9uoo81of2ps6khf0e2xs9sy7lw0,uMH5ck64,2020-0188,2020-11-17,09:15:48,09:43:47,NA,incomplete,10,filling,0,0,left,Red_Circle_Chess_4.jpg,Purple_Plus_Chess_2.jpg,Red_Star_Grid_3.jpg,left,876.2449999995297,true,NA,true
uMH5ck64,3atyli1pswfm29bow6spg463876ojo,3nd9uoo81of2ps6khf0e2xs9sy7lw0,uMH5ck64,2020-0188,2020-11-17,09:15:48,09:43:47,NA,incomplete,11,filling,0,1,right,Purple_Triangle_Grid_1.jpg,Purple_Star_Stripes_3.jpg,Blue_Plus_Grid_2.jpg,left,1010.1699999995762,false,NA,true
uMH5ck64,3atyli1pswfm29bow6spg463876ojo,3nd9uoo81of2ps6khf0e2xs9sy7lw0,uMH5ck64,2020-0188,2020-11-17,09:15:48,09:43:47,NA,incomplete,12,filling,0,1,right,Blue_Triangle_Stripes_1.jpg,Blue_Star_Chess_2.jpg,Purple_Plus_Stripes_3.jpg,right,828.5699999996577,true,NA,true
uMH5ck64,3atyli1pswfm29bow6spg463876ojo,3nd9uoo81of2ps6khf0e2xs9sy7lw0,uMH5ck64,2020-0188,2020-11-17,09:15:48,09:43:47,NA,incomplete,13,filling,0,1,right,Green_Star_Grid_2.jpg,Green_Triangle_Dots_4.jpg,Red_Circle_Grid_1.jpg,right,1001.6200000009267,true,NA,true
uMH5ck64,3atyli1pswfm29bow6spg463876ojo,3nd9uoo81of2ps6khf0e2xs9sy7lw0,uMH5ck64,2020-0188,2020-11-17,09:15:48,09:43:47,NA,incomplete,14,filling,0,1,right,Blue_Plus_Stripes_1.jpg,Blue_Circle_Chess_3.jpg,Green_Star_Stripes_2.jpg,right,888.3900000000722,true,NA,true
uMH5ck64,3atyli1pswfm29bow6spg463876ojo,3nd9uoo81of2ps6khf0e2xs9sy7lw0,uMH5ck64,2020-0188,2020-11-17,09:15:48,09:43:47,NA,incomplete,15,filling,0,1,right,Blue_Circle_Stripes_4.jpg,Blue_Plus_Chess_3.jpg,Purple_Triangle_Stripes_2.jpg,right,810.0500000000466,true,NA,true
uMH5ck64,3atyli1pswfm29bow6spg463876ojo,3nd9uoo81of2ps6khf0e2xs9sy7lw0,uMH5ck64,2020-0188,2020-11-17,09:15:48,09:43:47,NA,incomplete,16,filling,0,1,left,Purple_Circle_Chess_1.jpg,Red_Plus_Chess_4.jpg,Purple_Triangle_Dots_3.jpg,left,847.5349999989849,true,NA,true
uMH5ck64,3atyli1pswfm29bow6spg463876ojo,3nd9uoo81of2ps6khf0e2xs9sy7lw0,uMH5ck64,2020-0188,2020-11-17,09:15:48,09:43:47,NA,incomplete,17,filling,0,1,right,Purple_Triangle_Dots_4.jpg,Purple_Circle_Grid_1.jpg,Red_Plus_Dots_3.jpg,right,955.9349999999395,true,NA,true
uMH5ck64,3atyli1pswfm29bow6spg463876ojo,3nd9uoo81of2ps6khf0e2xs9sy7lw0,uMH5ck64,2020-0188,2020-11-17,09:15:48,09:43:47,NA,incomplete,18,filling,0,1,left,Green_Plus_Dots_4.jpg,Purple_Star_Dots_3.jpg,Green_Triangle_Chess_2.jpg,left,1185.100000000617,true,NA,true
uMH5ck64,3atyli1pswfm29bow6spg463876ojo,3nd9uoo81of2ps6khf0e2xs9sy7lw0,uMH5ck64,2020-0188,2020-11-17,09:15:48,09:43:47,NA,incomplete,19,filling,0,1,left,Green_Star_Grid_3.jpg,Purple_Circle_Grid_4.jpg,Green_Plus_Dots_1.jpg,left,888.16000000044,true,NA,true
uMH5ck64,3atyli1pswfm29bow6spg463876ojo,3nd9uoo81of2ps6khf0e2xs9sy7lw0,uMH5ck64,2020-0188,2020-11-17,09:15:48,09:43:47,NA,incomplete,20,color,1,1,left,Green_Plus_Stripes_1.jpg,Green_Triangle_Grid_3.jpg,Purple_Star_Stripes_4.jpg,left,1007.1450000013574,true,NA,true
uMH5ck64,3atyli1pswfm29bow6spg463876ojo,3nd9uoo81of2ps6khf0e2xs9sy7lw0,uMH5ck64,2020-0188,2020-11-17,09:15:48,09:43:47,NA,incomplete,21,color,1,0,left,Blue_Star_Grid_3.jpg,Blue_Plus_Stripes_4.jpg,Red_Triangle_Grid_1.jpg,right,1025.6749999989988,false,NA,true
uMH5ck64,3atyli1pswfm29bow6spg463876ojo,3nd9uoo81of2ps6khf0e2xs9sy7lw0,uMH5ck64,2020-0188,2020-11-17,09:15:48,09:43:47,NA,incomplete,22,color,1,0,right,Blue_Circle_Grid_3.jpg,Red_Plus_Grid_2.jpg,Blue_Star_Dots_4.jpg,right,1027.674999999348,true,NA,true
uMH5ck64,3atyli1pswfm29bow6spg463876ojo,3nd9uoo81of2ps6khf0e2xs9sy7lw0,uMH5ck64,2020-0188,2020-11-17,09:15:48,09:43:47,NA,incomplete,23,color,1,1,right,Purple_Circle_Stripes_3.jpg,Green_Star_Stripes_2.jpg,Purple_Triangle_Grid_4.jpg,right,610.2750000008964,true,NA,true
uMH5ck64,3atyli1pswfm29bow6spg463876ojo,3nd9uoo81of2ps6khf0e2xs9sy7lw0,uMH5ck64,2020-0188,2020-11-17,09:15:48,09:43:47,NA,incomplete,24,color,1,1,left,Green_Triangle_Stripes_2.jpg,Green_Plus_Grid_1.jpg,Red_Star_Stripes_3.jpg,left,718.8750000005239,true,NA,true
uMH5ck64,3atyli1pswfm29bow6spg463876ojo,3nd9uoo81of2ps6khf0e2xs9sy7lw0,uMH5ck64,2020-0188,2020-11-17,09:15:48,09:43:47,NA,incomplete,25,color,1,1,left,Blue_Triangle_Grid_2.jpg,Blue_Star_Dots_1.jpg,Green_Circle_Grid_4.jpg,left,630.2649999997811,true,NA,true
uMH5ck64,3atyli1pswfm29bow6spg463876ojo,3nd9uoo81of2ps6khf0e2xs9sy7lw0,uMH5ck64,2020-0188,2020-11-17,09:15:48,09:43:47,NA,incomplete,26,color,1,1,right,Blue_Triangle_Dots_1.jpg,Purple_Plus_Dots_3.jpg,Blue_Circle_Chess_4.jpg,right,724.0249999994994,true,NA,true
uMH5ck64,3atyli1pswfm29bow6spg463876ojo,3nd9uoo81of2ps6khf0e2xs9sy7lw0,uMH5ck64,2020-0188,2020-11-17,09:15:48,09:43:47,NA,incomplete,27,color,1,1,left,Blue_Star_Grid_1.jpg,Blue_Plus_Chess_3.jpg,Red_Circle_Grid_4.jpg,left,635.0400000010268,true,NA,true
uMH5ck64,3atyli1pswfm29bow6spg463876ojo,3nd9uoo81of2ps6khf0e2xs9sy7lw0,uMH5ck64,2020-0188,2020-11-17,09:15:48,09:43:47,NA,incomplete,28,color,1,0,right,Purple_Triangle_Dots_2.jpg,Green_Star_Dots_4.jpg,Purple_Circle_Stripes_3.jpg,right,547.8299999995506,true,NA,true
uMH5ck64,3atyli1pswfm29bow6spg463876ojo,3nd9uoo81of2ps6khf0e2xs9sy7lw0,uMH5ck64,2020-0188,2020-11-17,09:15:48,09:43:47,NA,incomplete,29,color,1,1,left,Purple_Circle_Dots_4.jpg,Purple_Triangle_Stripes_1.jpg,Red_Star_Dots_2.jpg,left,565.1450000004843,true,NA,true
uMH5ck64,3atyli1pswfm29bow6spg463876ojo,3nd9uoo81of2ps6khf0e2xs9sy7lw0,uMH5ck64,2020-0188,2020-11-17,09:15:48,09:43:47,NA,incomplete,30,color,1,1,left,Blue_Triangle_Stripes_4.jpg,Blue_Star_Grid_1.jpg,Green_Plus_Stripes_3.jpg,left,788.0249999998487,true,NA,true
uMH5ck64,3atyli1pswfm29bow6spg463876ojo,3nd9uoo81of2ps6khf0e2xs9sy7lw0,uMH5ck64,2020-0188,2020-11-17,09:15:48,09:43:47,NA,incomplete,31,color,1,1,left,Purple_Circle_Stripes_1.jpg,Purple_Plus_Chess_2.jpg,Blue_Star_Stripes_4.jpg,left,766.3449999999721,true,NA,true
uMH5ck64,3atyli1pswfm29bow6spg463876ojo,3nd9uoo81of2ps6khf0e2xs9sy7lw0,uMH5ck64,2020-0188,2020-11-17,09:15:48,09:43:47,NA,incomplete,32,color,1,1,right,Green_Circle_Chess_2.jpg,Purple_Triangle_Chess_4.jpg,Green_Star_Stripes_3.jpg,right,514.6700000004494,true,NA,true
uMH5ck64,3atyli1pswfm29bow6spg463876ojo,3nd9uoo81of2ps6khf0e2xs9sy7lw0,uMH5ck64,2020-0188,2020-11-17,09:15:48,09:43:47,NA,incomplete,33,color,1,1,right,Purple_Plus_Stripes_3.jpg,Green_Star_Stripes_2.jpg,Purple_Circle_Grid_4.jpg,right,518.4850000005099,true,NA,true
uMH5ck64,3atyli1pswfm29bow6spg463876ojo,3nd9uoo81of2ps6khf0e2xs9sy7lw0,uMH5ck64,2020-0188,2020-11-17,09:15:48,09:43:47,NA,incomplete,34,color,1,1,right,Red_Plus_Chess_3.jpg,Purple_Star_Chess_2.jpg,Red_Triangle_Grid_4.jpg,right,546.3899999995483,true,NA,true
uMH5ck64,3atyli1pswfm29bow6spg463876ojo,3nd9uoo81of2ps6khf0e2xs9sy7lw0,uMH5ck64,2020-0188,2020-11-17,09:15:48,09:43:47,NA,incomplete,35,color,1,1,left,Blue_Circle_Chess_3.jpg,Blue_Plus_Grid_2.jpg,Red_Star_Chess_1.jpg,left,496.87000000086846,true,NA,true
uMH5ck64,3atyli1pswfm29bow6spg463876ojo,3nd9uoo81of2ps6khf0e2xs9sy7lw0,uMH5ck64,2020-0188,2020-11-17,09:15:48,09:43:47,NA,incomplete,36,color,1,1,right,Green_Circle_Stripes_2.jpg,Red_Plus_Stripes_1.jpg,Green_Star_Chess_4.jpg,right,463.1699999991106,true,NA,true
uMH5ck64,3atyli1pswfm29bow6spg463876ojo,3nd9uoo81of2ps6khf0e2xs9sy7lw0,uMH5ck64,2020-0188,2020-11-17,09:15:48,09:43:47,NA,incomplete,37,color,1,1,right,Green_Triangle_Dots_2.jpg,Purple_Star_Dots_1.jpg,Green_Plus_Grid_4.jpg,right,531.9199999994598,true,NA,true
uMH5ck64,3atyli1pswfm29bow6spg463876ojo,3nd9uoo81of2ps6khf0e2xs9sy7lw0,uMH5ck64,2020-0188,2020-11-17,09:15:48,09:43:47,NA,incomplete,38,color,1,0,left,Red_Plus_Grid_4.jpg,Red_Circle_Chess_1.jpg,Blue_Star_Grid_3.jpg,left,728.5549999996438,true,NA,true
uMH5ck64,3atyli1pswfm29bow6spg463876ojo,3nd9uoo81of2ps6khf0e2xs9sy7lw0,uMH5ck64,2020-0188,2020-11-17,09:15:48,09:43:47,NA,incomplete,39,color,1,1,right,Green_Triangle_Dots_1.jpg,Red_Star_Dots_3.jpg,Green_Circle_Chess_2.jpg,right,549.6800000001094,true,NA,true
uMH5ck64,3atyli1pswfm29bow6spg463876ojo,3nd9uoo81of2ps6khf0e2xs9sy7lw0,uMH5ck64,2020-0188,2020-11-17,09:15:48,09:43:47,NA,incomplete,0,filling,0,1,left,Blue_Triangle_Dots_4.jpg,Purple_Plus_Dots_2.jpg,Blue_Circle_Grid_3.jpg,right,1384.9850000006263,false,low,false
uMH5ck64,3atyli1pswfm29bow6spg463876ojo,3nd9uoo81of2ps6khf0e2xs9sy7lw0,uMH5ck64,2020-0188,2020-11-17,09:15:48,09:43:47,NA,incomplete,1,filling,0,1,right,Red_Triangle_Chess_3.jpg,Red_Star_Stripes_1.jpg,Blue_Circle_Chess_2.jpg,right,1689.0650000005262,true,low,false
uMH5ck64,3atyli1pswfm29bow6spg463876ojo,3nd9uoo81of2ps6khf0e2xs9sy7lw0,uMH5ck64,2020-0188,2020-11-17,09:15:48,09:43:47,NA,incomplete,2,filling,0,0,right,Purple_Star_Grid_3.jpg,Purple_Plus_Chess_1.jpg,Red_Circle_Grid_2.jpg,right,1027.0000000000582,true,low,false
uMH5ck64,3atyli1pswfm29bow6spg463876ojo,3nd9uoo81of2ps6khf0e2xs9sy7lw0,uMH5ck64,2020-0188,2020-11-17,09:15:48,09:43:47,NA,incomplete,3,filling,0,1,left,Blue_Triangle_Chess_4.jpg,Red_Star_Chess_3.jpg,Blue_Plus_Dots_1.jpg,left,1390.0250000006054,true,low,false
uMH5ck64,3atyli1pswfm29bow6spg463876ojo,3nd9uoo81of2ps6khf0e2xs9sy7lw0,uMH5ck64,2020-0188,2020-11-17,09:15:48,09:43:47,NA,incomplete,4,filling,0,1,right,Red_Circle_Chess_4.jpg,Red_Star_Grid_2.jpg,Purple_Plus_Chess_3.jpg,right,1193.8099999988335,true,low,false
uMH5ck64,3atyli1pswfm29bow6spg463876ojo,3nd9uoo81of2ps6khf0e2xs9sy7lw0,uMH5ck64,2020-0188,2020-11-17,09:15:48,09:43:47,NA,incomplete,5,filling,0,1,left,Blue_Triangle_Grid_2.jpg,Red_Circle_Grid_4.jpg,Blue_Plus_Chess_3.jpg,left,985.6249999993597,true,low,false
uMH5ck64,3atyli1pswfm29bow6spg463876ojo,3nd9uoo81of2ps6khf0e2xs9sy7lw0,uMH5ck64,2020-0188,2020-11-17,09:15:48,09:43:47,NA,incomplete,6,filling,0,0,right,Red_Circle_Stripes_3.jpg,Red_Plus_Grid_2.jpg,Blue_Triangle_Stripes_4.jpg,right,1079.3400000002002,true,low,false
uMH5ck64,3atyli1pswfm29bow6spg463876ojo,3nd9uoo81of2ps6khf0e2xs9sy7lw0,uMH5ck64,2020-0188,2020-11-17,09:15:48,09:43:47,NA,incomplete,7,filling,0,1,left,Green_Circle_Dots_4.jpg,Purple_Triangle_Dots_1.jpg,Green_Plus_Stripes_2.jpg,left,1170.889999999432,true,low,false
uMH5ck64,3atyli1pswfm29bow6spg463876ojo,3nd9uoo81of2ps6khf0e2xs9sy7lw0,uMH5ck64,2020-0188,2020-11-17,09:15:48,09:43:47,NA,incomplete,8,filling,0,1,left,Purple_Triangle_Chess_2.jpg,Red_Plus_Chess_3.jpg,Purple_Circle_Dots_1.jpg,left,887.8100000001723,true,low,false
uMH5ck64,3atyli1pswfm29bow6spg463876ojo,3nd9uoo81of2ps6khf0e2xs9sy7lw0,uMH5ck64,2020-0188,2020-11-17,09:15:48,09:43:47,NA,incomplete,9,filling,0,1,left,Blue_Circle_Grid_1.jpg,Red_Plus_Grid_3.jpg,Blue_Triangle_Stripes_2.jpg,left,895.9699999995646,true,low,false
uMH5ck64,3atyli1pswfm29bow6spg463876ojo,3nd9uoo81of2ps6khf0e2xs9sy7lw0,uMH5ck64,2020-0188,2020-11-17,09:15:48,09:43:47,NA,incomplete,10,color,1,0,left,Blue_Circle_Stripes_2.jpg,Blue_Star_Grid_3.jpg,Red_Triangle_Stripes_4.jpg,right,946.2749999984517,false,low,false
uMH5ck64,3atyli1pswfm29bow6spg463876ojo,3nd9uoo81of2ps6khf0e2xs9sy7lw0,uMH5ck64,2020-0188,2020-11-17,09:15:48,09:43:47,NA,incomplete,11,color,1,1,right,Purple_Circle_Stripes_3.jpg,Red_Triangle_Stripes_2.jpg,Purple_Plus_Grid_4.jpg,left,1139.3250000000698,false,low,false
uMH5ck64,3atyli1pswfm29bow6spg463876ojo,3nd9uoo81of2ps6khf0e2xs9sy7lw0,uMH5ck64,2020-0188,2020-11-17,09:15:48,09:43:47,NA,incomplete,12,color,1,1,right,Blue_Triangle_Grid_1.jpg,Green_Plus_Grid_2.jpg,Blue_Circle_Stripes_4.jpg,left,853.440000000759,false,low,false
uMH5ck64,3atyli1pswfm29bow6spg463876ojo,3nd9uoo81of2ps6khf0e2xs9sy7lw0,uMH5ck64,2020-0188,2020-11-17,09:15:48,09:43:47,NA,incomplete,13,color,1,1,left,Blue_Circle_Grid_1.jpg,Blue_Triangle_Dots_4.jpg,Purple_Star_Grid_2.jpg,right,875.7000000005355,false,low,false
uMH5ck64,3atyli1pswfm29bow6spg463876ojo,3nd9uoo81of2ps6khf0e2xs9sy7lw0,uMH5ck64,2020-0188,2020-11-17,09:15:48,09:43:47,NA,incomplete,14,color,1,1,right,Red_Circle_Grid_1.jpg,Purple_Star_Grid_2.jpg,Red_Triangle_Stripes_3.jpg,right,1483.0299999994459,true,low,false
uMH5ck64,3atyli1pswfm29bow6spg463876ojo,3nd9uoo81of2ps6khf0e2xs9sy7lw0,uMH5ck64,2020-0188,2020-11-17,09:15:48,09:43:47,NA,incomplete,15,color,1,1,right,Red_Triangle_Chess_2.jpg,Green_Circle_Chess_4.jpg,Red_Star_Grid_3.jpg,right,615.91000000044,true,low,false
uMH5ck64,3atyli1pswfm29bow6spg463876ojo,3nd9uoo81of2ps6khf0e2xs9sy7lw0,uMH5ck64,2020-0188,2020-11-17,09:15:48,09:43:47,NA,incomplete,16,color,1,1,left,Purple_Plus_Chess_3.jpg,Purple_Triangle_Grid_1.jpg,Blue_Circle_Chess_4.jpg,left,687.5500000005704,true,low,false
uMH5ck64,3atyli1pswfm29bow6spg463876ojo,3nd9uoo81of2ps6khf0e2xs9sy7lw0,uMH5ck64,2020-0188,2020-11-17,09:15:48,09:43:47,NA,incomplete,17,color,1,1,right,Green_Star_Grid_4.jpg,Blue_Triangle_Grid_2.jpg,Green_Circle_Chess_3.jpg,right,626.9049999991548,true,low,false
uMH5ck64,3atyli1pswfm29bow6spg463876ojo,3nd9uoo81of2ps6khf0e2xs9sy7lw0,uMH5ck64,2020-0188,2020-11-17,09:15:48,09:43:47,NA,incomplete,18,color,1,1,left,Red_Star_Grid_3.jpg,Red_Plus_Stripes_4.jpg,Blue_Triangle_Grid_1.jpg,left,538.394999999553,true,low,false
uMH5ck64,3atyli1pswfm29bow6spg463876ojo,3nd9uoo81of2ps6khf0e2xs9sy7lw0,uMH5ck64,2020-0188,2020-11-17,09:15:48,09:43:47,NA,incomplete,19,color,1,0,right,Blue_Star_Grid_2.jpg,Purple_Plus_Grid_4.jpg,Blue_Circle_Dots_3.jpg,right,531.1700000001583,true,low,false
uMH5ck64,3atyli1pswfm29bow6spg463876ojo,3nd9uoo81of2ps6khf0e2xs9sy7lw0,uMH5ck64,2020-0188,2020-11-17,09:15:48,09:43:47,NA,incomplete,20,filling,0,1,right,Blue_Star_Chess_4.jpg,Blue_Triangle_Grid_2.jpg,Purple_Plus_Chess_1.jpg,left,661.019999999553,false,low,false
uMH5ck64,3atyli1pswfm29bow6spg463876ojo,3nd9uoo81of2ps6khf0e2xs9sy7lw0,uMH5ck64,2020-0188,2020-11-17,09:15:48,09:43:47,NA,incomplete,21,filling,0,1,right,Green_Circle_Grid_4.jpg,Green_Star_Dots_1.jpg,Purple_Triangle_Grid_2.jpg,right,1009.4349999999395,true,low,false
uMH5ck64,3atyli1pswfm29bow6spg463876ojo,3nd9uoo81of2ps6khf0e2xs9sy7lw0,uMH5ck64,2020-0188,2020-11-17,09:15:48,09:43:47,NA,incomplete,22,filling,0,1,right,Red_Triangle_Grid_4.jpg,Red_Plus_Stripes_3.jpg,Purple_Circle_Grid_1.jpg,right,870.4949999992386,true,low,false
uMH5ck64,3atyli1pswfm29bow6spg463876ojo,3nd9uoo81of2ps6khf0e2xs9sy7lw0,uMH5ck64,2020-0188,2020-11-17,09:15:48,09:43:47,NA,incomplete,23,filling,0,1,left,Blue_Triangle_Chess_3.jpg,Green_Plus_Chess_2.jpg,Blue_Circle_Stripes_1.jpg,left,842.0649999989546,true,low,false
uMH5ck64,3atyli1pswfm29bow6spg463876ojo,3nd9uoo81of2ps6khf0e2xs9sy7lw0,uMH5ck64,2020-0188,2020-11-17,09:15:48,09:43:47,NA,incomplete,24,filling,0,1,left,Red_Star_Grid_1.jpg,Purple_Circle_Grid_4.jpg,Red_Triangle_Dots_2.jpg,left,923.2350000002189,true,low,false
uMH5ck64,3atyli1pswfm29bow6spg463876ojo,3nd9uoo81of2ps6khf0e2xs9sy7lw0,uMH5ck64,2020-0188,2020-11-17,09:15:48,09:43:47,NA,incomplete,25,filling,0,0,right,Purple_Circle_Chess_2.jpg,Purple_Triangle_Grid_3.jpg,Green_Star_Chess_1.jpg,right,904.5900000000838,true,low,false
uMH5ck64,3atyli1pswfm29bow6spg463876ojo,3nd9uoo81of2ps6khf0e2xs9sy7lw0,uMH5ck64,2020-0188,2020-11-17,09:15:48,09:43:47,NA,incomplete,26,filling,0,1,left,Green_Circle_Stripes_2.jpg,Blue_Triangle_Stripes_3.jpg,Green_Star_Dots_1.jpg,left,797.655000000319,true,low,false
uMH5ck64,3atyli1pswfm29bow6spg463876ojo,3nd9uoo81of2ps6khf0e2xs9sy7lw0,uMH5ck64,2020-0188,2020-11-17,09:15:48,09:43:47,NA,incomplete,27,filling,0,1,right,Blue_Plus_Grid_3.jpg,Blue_Triangle_Chess_1.jpg,Green_Circle_Grid_2.jpg,right,871.2450000002864,true,low,false
uMH5ck64,3atyli1pswfm29bow6spg463876ojo,3nd9uoo81of2ps6khf0e2xs9sy7lw0,uMH5ck64,2020-0188,2020-11-17,09:15:48,09:43:47,NA,incomplete,28,filling,0,1,right,Red_Triangle_Chess_4.jpg,Red_Star_Grid_2.jpg,Green_Circle_Chess_3.jpg,right,823.0149999999558,true,low,false
uMH5ck64,3atyli1pswfm29bow6spg463876ojo,3nd9uoo81of2ps6khf0e2xs9sy7lw0,uMH5ck64,2020-0188,2020-11-17,09:15:48,09:43:47,NA,incomplete,29,filling,0,0,left,Blue_Triangle_Dots_3.jpg,Red_Plus_Dots_1.jpg,Blue_Circle_Grid_2.jpg,left,737.1199999997625,true,low,false
uMH5ck64,3atyli1pswfm29bow6spg463876ojo,3nd9uoo81of2ps6khf0e2xs9sy7lw0,uMH5ck64,2020-0188,2020-11-17,09:15:48,09:43:47,NA,incomplete,30,color,1,0,left,Red_Plus_Chess_1.jpg,Red_Star_Stripes_2.jpg,Blue_Triangle_Chess_3.jpg,right,840.1049999992829,false,low,false
uMH5ck64,3atyli1pswfm29bow6spg463876ojo,3nd9uoo81of2ps6khf0e2xs9sy7lw0,uMH5ck64,2020-0188,2020-11-17,09:15:48,09:43:47,NA,incomplete,31,color,1,1,left,Blue_Plus_Grid_2.jpg,Blue_Circle_Dots_3.jpg,Purple_Star_Grid_4.jpg,right,1176.8799999990733,false,low,false
uMH5ck64,3atyli1pswfm29bow6spg463876ojo,3nd9uoo81of2ps6khf0e2xs9sy7lw0,uMH5ck64,2020-0188,2020-11-17,09:15:48,09:43:47,NA,incomplete,32,color,1,0,left,Red_Star_Chess_3.jpg,Red_Circle_Dots_2.jpg,Blue_Plus_Chess_1.jpg,right,1186.150000001362,false,low,false
uMH5ck64,3atyli1pswfm29bow6spg463876ojo,3nd9uoo81of2ps6khf0e2xs9sy7lw0,uMH5ck64,2020-0188,2020-11-17,09:15:48,09:43:47,NA,incomplete,33,color,1,0,right,Purple_Star_Grid_2.jpg,Green_Plus_Grid_3.jpg,Purple_Circle_Dots_4.jpg,left,1002.5100000002421,false,low,false
uMH5ck64,3atyli1pswfm29bow6spg463876ojo,3nd9uoo81of2ps6khf0e2xs9sy7lw0,uMH5ck64,2020-0188,2020-11-17,09:15:48,09:43:47,NA,incomplete,34,color,1,1,right,Red_Star_Stripes_4.jpg,Blue_Triangle_Stripes_2.jpg,Red_Plus_Grid_3.jpg,left,1126.7450000013923,false,low,false
uMH5ck64,3atyli1pswfm29bow6spg463876ojo,3nd9uoo81of2ps6khf0e2xs9sy7lw0,uMH5ck64,2020-0188,2020-11-17,09:15:48,09:43:47,NA,incomplete,35,color,1,1,right,Red_Circle_Dots_4.jpg,Green_Plus_Dots_3.jpg,Red_Star_Chess_2.jpg,left,1008.6200000005774,false,low,false
uMH5ck64,3atyli1pswfm29bow6spg463876ojo,3nd9uoo81of2ps6khf0e2xs9sy7lw0,uMH5ck64,2020-0188,2020-11-17,09:15:48,09:43:47,NA,incomplete,36,color,1,1,right,Purple_Plus_Grid_4.jpg,Red_Star_Grid_1.jpg,Purple_Triangle_Dots_2.jpg,right,622.1449999993783,true,low,false
uMH5ck64,3atyli1pswfm29bow6spg463876ojo,3nd9uoo81of2ps6khf0e2xs9sy7lw0,uMH5ck64,2020-0188,2020-11-17,09:15:48,09:43:47,NA,incomplete,37,color,1,1,right,Blue_Star_Dots_3.jpg,Red_Triangle_Dots_4.jpg,Blue_Plus_Chess_2.jpg,right,582.1400000004214,true,low,false
uMH5ck64,3atyli1pswfm29bow6spg463876ojo,3nd9uoo81of2ps6khf0e2xs9sy7lw0,uMH5ck64,2020-0188,2020-11-17,09:15:48,09:43:47,NA,incomplete,38,color,1,1,left,Purple_Triangle_Dots_1.jpg,Purple_Plus_Chess_3.jpg,Red_Circle_Dots_4.jpg,left,543.6850000005797,true,low,false
uMH5ck64,3atyli1pswfm29bow6spg463876ojo,3nd9uoo81of2ps6khf0e2xs9sy7lw0,uMH5ck64,2020-0188,2020-11-17,09:15:48,09:43:47,NA,incomplete,39,color,1,0,left,Red_Star_Stripes_3.jpg,Red_Triangle_Grid_4.jpg,Green_Plus_Stripes_2.jpg,left,684.4650000002584,true,low,false
uMH5ck64,3atyli1pswfm29bow6spg463876ojo,3nd9uoo81of2ps6khf0e2xs9sy7lw0,uMH5ck64,2020-0188,2020-11-17,09:15:48,09:43:47,NA,incomplete,40,filling,0,1,right,Red_Triangle_Grid_1.jpg,Red_Plus_Chess_3.jpg,Purple_Star_Grid_2.jpg,left,507.1100000004517,false,low,false
uMH5ck64,3atyli1pswfm29bow6spg463876ojo,3nd9uoo81of2ps6khf0e2xs9sy7lw0,uMH5ck64,2020-0188,2020-11-17,09:15:48,09:43:47,NA,incomplete,41,filling,0,1,left,Red_Circle_Dots_3.jpg,Purple_Plus_Dots_4.jpg,Red_Triangle_Stripes_1.jpg,left,977.7549999998882,true,low,false
uMH5ck64,3atyli1pswfm29bow6spg463876ojo,3nd9uoo81of2ps6khf0e2xs9sy7lw0,uMH5ck64,2020-0188,2020-11-17,09:15:48,09:43:47,NA,incomplete,42,filling,0,0,right,Red_Star_Dots_2.jpg,Red_Plus_Grid_4.jpg,Green_Triangle_Dots_3.jpg,right,948.9800000010291,true,low,false
uMH5ck64,3atyli1pswfm29bow6spg463876ojo,3nd9uoo81of2ps6khf0e2xs9sy7lw0,uMH5ck64,2020-0188,2020-11-17,09:15:48,09:43:47,NA,incomplete,43,filling,0,1,left,Red_Plus_Dots_4.jpg,Green_Star_Dots_1.jpg,Red_Circle_Grid_2.jpg,left,1128.7350000002189,true,low,false
uMH5ck64,3atyli1pswfm29bow6spg463876ojo,3nd9uoo81of2ps6khf0e2xs9sy7lw0,uMH5ck64,2020-0188,2020-11-17,09:15:48,09:43:47,NA,incomplete,44,filling,0,1,right,Purple_Star_Dots_4.jpg,Purple_Plus_Grid_1.jpg,Red_Triangle_Dots_2.jpg,right,978.5699999993085,true,low,false
uMH5ck64,3atyli1pswfm29bow6spg463876ojo,3nd9uoo81of2ps6khf0e2xs9sy7lw0,uMH5ck64,2020-0188,2020-11-17,09:15:48,09:43:47,NA,incomplete,45,filling,0,1,right,Red_Triangle_Dots_1.jpg,Red_Circle_Grid_3.jpg,Green_Star_Dots_4.jpg,right,833.1249999991851,true,low,false
uMH5ck64,3atyli1pswfm29bow6spg463876ojo,3nd9uoo81of2ps6khf0e2xs9sy7lw0,uMH5ck64,2020-0188,2020-11-17,09:15:48,09:43:47,NA,incomplete,46,filling,0,0,left,Blue_Plus_Chess_1.jpg,Purple_Circle_Chess_4.jpg,Blue_Triangle_Stripes_3.jpg,left,795.314999999362,true,low,false
uMH5ck64,3atyli1pswfm29bow6spg463876ojo,3nd9uoo81of2ps6khf0e2xs9sy7lw0,uMH5ck64,2020-0188,2020-11-17,09:15:48,09:43:47,NA,incomplete,47,filling,0,1,left,Purple_Triangle_Chess_4.jpg,Red_Plus_Chess_1.jpg,Purple_Circle_Dots_3.jpg,left,955.31000000122,true,low,false
uMH5ck64,3atyli1pswfm29bow6spg463876ojo,3nd9uoo81of2ps6khf0e2xs9sy7lw0,uMH5ck64,2020-0188,2020-11-17,09:15:48,09:43:47,NA,incomplete,48,filling,0,1,right,Green_Circle_Dots_1.jpg,Green_Triangle_Stripes_4.jpg,Purple_Plus_Dots_3.jpg,right,880.2849999992759,true,low,false
uMH5ck64,3atyli1pswfm29bow6spg463876ojo,3nd9uoo81of2ps6khf0e2xs9sy7lw0,uMH5ck64,2020-0188,2020-11-17,09:15:48,09:43:47,NA,incomplete,49,filling,0,1,left,Purple_Plus_Grid_1.jpg,Red_Circle_Grid_4.jpg,Purple_Triangle_Dots_2.jpg,left,833.8650000005146,true,low,false
uMH5ck64,3atyli1pswfm29bow6spg463876ojo,3nd9uoo81of2ps6khf0e2xs9sy7lw0,uMH5ck64,2020-0188,2020-11-17,09:15:48,09:43:47,NA,incomplete,50,color,1,1,left,Green_Triangle_Chess_2.jpg,Green_Star_Stripes_3.jpg,Purple_Circle_Chess_1.jpg,right,976.1299999990733,false,low,false
uMH5ck64,3atyli1pswfm29bow6spg463876ojo,3nd9uoo81of2ps6khf0e2xs9sy7lw0,uMH5ck64,2020-0188,2020-11-17,09:15:48,09:43:47,NA,incomplete,51,color,1,1,right,Green_Plus_Dots_3.jpg,Purple_Circle_Dots_4.jpg,Green_Triangle_Grid_2.jpg,left,934.5450000000419,false,low,false
uMH5ck64,3atyli1pswfm29bow6spg463876ojo,3nd9uoo81of2ps6khf0e2xs9sy7lw0,uMH5ck64,2020-0188,2020-11-17,09:15:48,09:43:47,NA,incomplete,52,color,1,1,left,Green_Circle_Grid_3.jpg,Green_Plus_Stripes_4.jpg,Blue_Star_Grid_1.jpg,left,646.1650000001537,true,low,false
uMH5ck64,3atyli1pswfm29bow6spg463876ojo,3nd9uoo81of2ps6khf0e2xs9sy7lw0,uMH5ck64,2020-0188,2020-11-17,09:15:48,09:43:47,NA,incomplete,53,color,1,1,left,Green_Plus_Dots_2.jpg,Green_Triangle_Stripes_1.jpg,Red_Circle_Dots_3.jpg,left,674.5700000010547,true,low,false
uMH5ck64,3atyli1pswfm29bow6spg463876ojo,3nd9uoo81of2ps6khf0e2xs9sy7lw0,uMH5ck64,2020-0188,2020-11-17,09:15:48,09:43:47,NA,incomplete,54,color,1,1,right,Green_Star_Grid_3.jpg,Red_Plus_Grid_2.jpg,Green_Triangle_Chess_1.jpg,right,525.9850000002189,true,low,false
uMH5ck64,3atyli1pswfm29bow6spg463876ojo,3nd9uoo81of2ps6khf0e2xs9sy7lw0,uMH5ck64,2020-0188,2020-11-17,09:15:48,09:43:47,NA,incomplete,55,color,1,1,right,Purple_Circle_Grid_4.jpg,Red_Star_Grid_2.jpg,Purple_Triangle_Chess_3.jpg,right,530.0900000002002,true,low,false
uMH5ck64,3atyli1pswfm29bow6spg463876ojo,3nd9uoo81of2ps6khf0e2xs9sy7lw0,uMH5ck64,2020-0188,2020-11-17,09:15:48,09:43:47,NA,incomplete,56,color,1,1,left,Green_Star_Grid_3.jpg,Green_Circle_Chess_2.jpg,Blue_Triangle_Grid_1.jpg,left,529.4050000011339,true,low,false
uMH5ck64,3atyli1pswfm29bow6spg463876ojo,3nd9uoo81of2ps6khf0e2xs9sy7lw0,uMH5ck64,2020-0188,2020-11-17,09:15:48,09:43:47,NA,incomplete,57,color,1,1,left,Red_Plus_Chess_1.jpg,Red_Star_Dots_4.jpg,Purple_Circle_Chess_2.jpg,left,645.4450000000652,true,low,false
uMH5ck64,3atyli1pswfm29bow6spg463876ojo,3nd9uoo81of2ps6khf0e2xs9sy7lw0,uMH5ck64,2020-0188,2020-11-17,09:15:48,09:43:47,NA,incomplete,58,color,1,1,left,Red_Plus_Chess_3.jpg,Red_Circle_Dots_4.jpg,Purple_Star_Chess_2.jpg,left,441.94500000053085,true,low,false
uMH5ck64,3atyli1pswfm29bow6spg463876ojo,3nd9uoo81of2ps6khf0e2xs9sy7lw0,uMH5ck64,2020-0188,2020-11-17,09:15:48,09:43:47,NA,incomplete,59,color,1,0,right,Red_Circle_Grid_4.jpg,Purple_Triangle_Grid_1.jpg,Red_Star_Dots_2.jpg,right,482.42000000027474,true,low,false
uMH5ck64,3atyli1pswfm29bow6spg463876ojo,3nd9uoo81of2ps6khf0e2xs9sy7lw0,uMH5ck64,2020-0188,2020-11-17,09:15:48,09:43:47,NA,incomplete,60,filling,0,1,right,Red_Circle_Grid_4.jpg,Red_Star_Dots_1.jpg,Blue_Plus_Grid_2.jpg,left,518.5650000002934,false,low,false
uMH5ck64,3atyli1pswfm29bow6spg463876ojo,3nd9uoo81of2ps6khf0e2xs9sy7lw0,uMH5ck64,2020-0188,2020-11-17,09:15:48,09:43:47,NA,incomplete,61,filling,0,1,left,Blue_Triangle_Stripes_3.jpg,Green_Star_Stripes_4.jpg,Blue_Plus_Grid_2.jpg,left,889.8549999993993,true,low,false
uMH5ck64,3atyli1pswfm29bow6spg463876ojo,3nd9uoo81of2ps6khf0e2xs9sy7lw0,uMH5ck64,2020-0188,2020-11-17,09:15:48,09:43:47,NA,incomplete,62,filling,0,1,right,Green_Star_Chess_2.jpg,Green_Plus_Grid_1.jpg,Purple_Circle_Chess_4.jpg,right,840.3149999994785,true,low,false
uMH5ck64,3atyli1pswfm29bow6spg463876ojo,3nd9uoo81of2ps6khf0e2xs9sy7lw0,uMH5ck64,2020-0188,2020-11-17,09:15:48,09:43:47,NA,incomplete,63,filling,0,0,right,Red_Plus_Grid_1.jpg,Red_Circle_Dots_3.jpg,Purple_Star_Grid_2.jpg,right,1071.7800000002608,true,low,false
uMH5ck64,3atyli1pswfm29bow6spg463876ojo,3nd9uoo81of2ps6khf0e2xs9sy7lw0,uMH5ck64,2020-0188,2020-11-17,09:15:48,09:43:47,NA,incomplete,64,filling,0,1,right,Red_Star_Grid_2.jpg,Red_Triangle_Chess_3.jpg,Blue_Circle_Grid_1.jpg,right,1031.1249999995343,true,low,false
uMH5ck64,3atyli1pswfm29bow6spg463876ojo,3nd9uoo81of2ps6khf0e2xs9sy7lw0,uMH5ck64,2020-0188,2020-11-17,09:15:48,09:43:47,NA,incomplete,65,filling,0,1,right,Purple_Circle_Dots_3.jpg,Purple_Star_Chess_4.jpg,Green_Triangle_Dots_2.jpg,right,799.8400000014808,true,low,false
uMH5ck64,3atyli1pswfm29bow6spg463876ojo,3nd9uoo81of2ps6khf0e2xs9sy7lw0,uMH5ck64,2020-0188,2020-11-17,09:15:48,09:43:47,NA,incomplete,66,filling,0,1,right,Purple_Plus_Grid_2.jpg,Purple_Triangle_Chess_4.jpg,Red_Star_Grid_1.jpg,right,791.2250000007916,true,low,false
uMH5ck64,3atyli1pswfm29bow6spg463876ojo,3nd9uoo81of2ps6khf0e2xs9sy7lw0,uMH5ck64,2020-0188,2020-11-17,09:15:48,09:43:47,NA,incomplete,67,filling,0,0,left,Red_Star_Grid_4.jpg,Purple_Circle_Grid_3.jpg,Red_Triangle_Chess_2.jpg,left,758.8350000005448,true,low,false
uMH5ck64,3atyli1pswfm29bow6spg463876ojo,3nd9uoo81of2ps6khf0e2xs9sy7lw0,uMH5ck64,2020-0188,2020-11-17,09:15:48,09:43:47,NA,incomplete,68,filling,0,1,left,Green_Plus_Grid_1.jpg,Blue_Star_Grid_4.jpg,Green_Triangle_Stripes_3.jpg,left,759.739999999525,true,low,false
uMH5ck64,3atyli1pswfm29bow6spg463876ojo,3nd9uoo81of2ps6khf0e2xs9sy7lw0,uMH5ck64,2020-0188,2020-11-17,09:15:48,09:43:47,NA,incomplete,69,filling,0,1,right,Purple_Star_Chess_2.jpg,Purple_Triangle_Dots_3.jpg,Blue_Plus_Chess_1.jpg,right,804.2100000001956,true,low,false
uMH5ck64,3atyli1pswfm29bow6spg463876ojo,3nd9uoo81of2ps6khf0e2xs9sy7lw0,uMH5ck64,2020-0188,2020-11-17,09:15:48,09:43:47,NA,incomplete,70,color,1,1,left,Blue_Circle_Dots_2.jpg,Blue_Plus_Chess_1.jpg,Purple_Star_Dots_3.jpg,right,813.4900000004563,false,low,false
uMH5ck64,3atyli1pswfm29bow6spg463876ojo,3nd9uoo81of2ps6khf0e2xs9sy7lw0,uMH5ck64,2020-0188,2020-11-17,09:15:48,09:43:47,NA,incomplete,71,color,1,1,right,Green_Circle_Stripes_2.jpg,Blue_Triangle_Stripes_3.jpg,Green_Plus_Grid_1.jpg,left,891.9299999998184,false,low,false
uMH5ck64,3atyli1pswfm29bow6spg463876ojo,3nd9uoo81of2ps6khf0e2xs9sy7lw0,uMH5ck64,2020-0188,2020-11-17,09:15:48,09:43:47,NA,incomplete,72,color,1,1,left,Red_Star_Chess_4.jpg,Red_Triangle_Dots_2.jpg,Purple_Plus_Chess_1.jpg,left,584.8100000002887,true,low,false
uMH5ck64,3atyli1pswfm29bow6spg463876ojo,3nd9uoo81of2ps6khf0e2xs9sy7lw0,uMH5ck64,2020-0188,2020-11-17,09:15:48,09:43:47,NA,incomplete,73,color,1,0,right,Green_Star_Chess_3.jpg,Red_Plus_Chess_2.jpg,Green_Triangle_Dots_1.jpg,right,572.7099999985658,true,low,false
uMH5ck64,3atyli1pswfm29bow6spg463876ojo,3nd9uoo81of2ps6khf0e2xs9sy7lw0,uMH5ck64,2020-0188,2020-11-17,09:15:48,09:43:47,NA,incomplete,74,color,1,1,left,Red_Star_Dots_4.jpg,Red_Plus_Chess_2.jpg,Purple_Circle_Dots_1.jpg,left,580.359999999986,true,low,false
uMH5ck64,3atyli1pswfm29bow6spg463876ojo,3nd9uoo81of2ps6khf0e2xs9sy7lw0,uMH5ck64,2020-0188,2020-11-17,09:15:48,09:43:47,NA,incomplete,75,color,1,1,right,Green_Plus_Grid_3.jpg,Blue_Star_Grid_4.jpg,Green_Triangle_Stripes_2.jpg,right,447.3699999998789,true,low,false
uMH5ck64,3atyli1pswfm29bow6spg463876ojo,3nd9uoo81of2ps6khf0e2xs9sy7lw0,uMH5ck64,2020-0188,2020-11-17,09:15:48,09:43:47,NA,incomplete,76,color,1,1,left,Green_Triangle_Stripes_2.jpg,Green_Plus_Grid_4.jpg,Purple_Star_Stripes_3.jpg,left,418.40000000048894,true,low,false
uMH5ck64,3atyli1pswfm29bow6spg463876ojo,3nd9uoo81of2ps6khf0e2xs9sy7lw0,uMH5ck64,2020-0188,2020-11-17,09:15:48,09:43:47,NA,incomplete,77,color,1,1,left,Red_Circle_Grid_1.jpg,Red_Plus_Chess_3.jpg,Blue_Triangle_Grid_2.jpg,left,462.66500000085216,true,low,false
uMH5ck64,3atyli1pswfm29bow6spg463876ojo,3nd9uoo81of2ps6khf0e2xs9sy7lw0,uMH5ck64,2020-0188,2020-11-17,09:15:48,09:43:47,NA,incomplete,78,color,1,1,right,Purple_Triangle_Stripes_2.jpg,Blue_Plus_Stripes_1.jpg,Purple_Star_Grid_4.jpg,right,479.91499999992084,true,low,false
uMH5ck64,3atyli1pswfm29bow6spg463876ojo,3nd9uoo81of2ps6khf0e2xs9sy7lw0,uMH5ck64,2020-0188,2020-11-17,09:15:48,09:43:47,NA,incomplete,79,color,1,1,left,Purple_Star_Grid_3.jpg,Purple_Circle_Chess_4.jpg,Red_Plus_Grid_2.jpg,left,441.4050000014249,true,low,false
uMH5ck64,3atyli1pswfm29bow6spg463876ojo,3nd9uoo81of2ps6khf0e2xs9sy7lw0,uMH5ck64,2020-0188,2020-11-17,09:15:48,09:43:47,NA,incomplete,80,filling,0,1,left,Blue_Circle_Grid_4.jpg,Red_Star_Grid_2.jpg,Blue_Plus_Dots_3.jpg,right,456.83500000077765,false,low,false
uMH5ck64,3atyli1pswfm29bow6spg463876ojo,3nd9uoo81of2ps6khf0e2xs9sy7lw0,uMH5ck64,2020-0188,2020-11-17,09:15:48,09:43:47,NA,incomplete,81,filling,0,1,right,Red_Plus_Chess_2.jpg,Red_Circle_Dots_4.jpg,Blue_Triangle_Chess_1.jpg,left,464.3849999993108,false,low,false
uMH5ck64,3atyli1pswfm29bow6spg463876ojo,3nd9uoo81of2ps6khf0e2xs9sy7lw0,uMH5ck64,2020-0188,2020-11-17,09:15:48,09:43:47,NA,incomplete,82,filling,0,1,left,Purple_Triangle_Dots_2.jpg,Blue_Plus_Dots_4.jpg,Purple_Star_Stripes_1.jpg,left,831.7749999987427,true,low,false
uMH5ck64,3atyli1pswfm29bow6spg463876ojo,3nd9uoo81of2ps6khf0e2xs9sy7lw0,uMH5ck64,2020-0188,2020-11-17,09:15:48,09:43:47,NA,incomplete,83,filling,0,0,right,Green_Triangle_Dots_3.jpg,Green_Star_Grid_2.jpg,Red_Plus_Dots_1.jpg,right,777.4050000007264,true,low,false
uMH5ck64,3atyli1pswfm29bow6spg463876ojo,3nd9uoo81of2ps6khf0e2xs9sy7lw0,uMH5ck64,2020-0188,2020-11-17,09:15:48,09:43:47,NA,incomplete,84,filling,0,1,left,Purple_Plus_Grid_4.jpg,Green_Circle_Grid_2.jpg,Purple_Triangle_Chess_3.jpg,left,1002.4350000004051,true,low,false
uMH5ck64,3atyli1pswfm29bow6spg463876ojo,3nd9uoo81of2ps6khf0e2xs9sy7lw0,uMH5ck64,2020-0188,2020-11-17,09:15:48,09:43:47,NA,incomplete,85,filling,0,0,right,Purple_Plus_Dots_2.jpg,Purple_Star_Chess_4.jpg,Green_Circle_Dots_3.jpg,right,787.47999999905,true,low,false
uMH5ck64,3atyli1pswfm29bow6spg463876ojo,3nd9uoo81of2ps6khf0e2xs9sy7lw0,uMH5ck64,2020-0188,2020-11-17,09:15:48,09:43:47,NA,incomplete,86,filling,0,0,left,Red_Triangle_Chess_2.jpg,Purple_Circle_Chess_1.jpg,Red_Star_Dots_4.jpg,left,805.3150000014575,true,low,false
uMH5ck64,3atyli1pswfm29bow6spg463876ojo,3nd9uoo81of2ps6khf0e2xs9sy7lw0,uMH5ck64,2020-0188,2020-11-17,09:15:48,09:43:47,NA,incomplete,87,filling,0,1,right,Blue_Triangle_Dots_1.jpg,Blue_Star_Stripes_3.jpg,Red_Plus_Dots_2.jpg,left,543.9050000004936,false,low,false
uMH5ck64,3atyli1pswfm29bow6spg463876ojo,3nd9uoo81of2ps6khf0e2xs9sy7lw0,uMH5ck64,2020-0188,2020-11-17,09:15:48,09:43:47,NA,incomplete,88,filling,0,1,left,Blue_Circle_Dots_2.jpg,Red_Triangle_Dots_4.jpg,Blue_Plus_Grid_3.jpg,right,621.4000000000233,false,low,false
uMH5ck64,3atyli1pswfm29bow6spg463876ojo,3nd9uoo81of2ps6khf0e2xs9sy7lw0,uMH5ck64,2020-0188,2020-11-17,09:15:48,09:43:47,NA,incomplete,89,filling,0,1,right,Green_Plus_Dots_1.jpg,Green_Star_Chess_3.jpg,Blue_Circle_Dots_4.jpg,right,1100.1899999992456,true,low,false
uMH5ck64,3atyli1pswfm29bow6spg463876ojo,3nd9uoo81of2ps6khf0e2xs9sy7lw0,uMH5ck64,2020-0188,2020-11-17,09:15:48,09:43:47,NA,incomplete,90,color,1,1,right,Green_Plus_Chess_2.jpg,Red_Circle_Chess_1.jpg,Green_Star_Stripes_3.jpg,left,851.2899999986403,false,low,false
uMH5ck64,3atyli1pswfm29bow6spg463876ojo,3nd9uoo81of2ps6khf0e2xs9sy7lw0,uMH5ck64,2020-0188,2020-11-17,09:15:48,09:43:47,NA,incomplete,91,color,1,1,right,Blue_Star_Stripes_3.jpg,Purple_Circle_Stripes_4.jpg,Blue_Triangle_Grid_1.jpg,left,1111.2199999989243,false,low,false
uMH5ck64,3atyli1pswfm29bow6spg463876ojo,3nd9uoo81of2ps6khf0e2xs9sy7lw0,uMH5ck64,2020-0188,2020-11-17,09:15:48,09:43:47,NA,incomplete,92,color,1,1,left,Green_Triangle_Chess_2.jpg,Green_Circle_Stripes_4.jpg,Purple_Plus_Chess_3.jpg,right,1142.2350000011502,false,low,false
uMH5ck64,3atyli1pswfm29bow6spg463876ojo,3nd9uoo81of2ps6khf0e2xs9sy7lw0,uMH5ck64,2020-0188,2020-11-17,09:15:48,09:43:47,NA,incomplete,93,color,1,1,right,Red_Triangle_Dots_4.jpg,Green_Plus_Dots_3.jpg,Red_Star_Stripes_2.jpg,right,608.8350000008941,true,low,false
uMH5ck64,3atyli1pswfm29bow6spg463876ojo,3nd9uoo81of2ps6khf0e2xs9sy7lw0,uMH5ck64,2020-0188,2020-11-17,09:15:48,09:43:47,NA,incomplete,94,color,1,1,left,Red_Triangle_Dots_4.jpg,Red_Plus_Chess_2.jpg,Purple_Star_Dots_3.jpg,left,558.125000001397,true,low,false
uMH5ck64,3atyli1pswfm29bow6spg463876ojo,3nd9uoo81of2ps6khf0e2xs9sy7lw0,uMH5ck64,2020-0188,2020-11-17,09:15:48,09:43:47,NA,incomplete,95,color,1,1,left,Blue_Plus_Grid_3.jpg,Blue_Circle_Chess_1.jpg,Red_Triangle_Grid_4.jpg,left,542.5499999983003,true,low,false
uMH5ck64,3atyli1pswfm29bow6spg463876ojo,3nd9uoo81of2ps6khf0e2xs9sy7lw0,uMH5ck64,2020-0188,2020-11-17,09:15:48,09:43:47,NA,incomplete,96,color,1,1,left,Blue_Triangle_Grid_2.jpg,Blue_Star_Stripes_1.jpg,Purple_Circle_Grid_3.jpg,left,415.3699999988312,true,low,false
uMH5ck64,3atyli1pswfm29bow6spg463876ojo,3nd9uoo81of2ps6khf0e2xs9sy7lw0,uMH5ck64,2020-0188,2020-11-17,09:15:48,09:43:47,NA,incomplete,97,color,1,0,left,Red_Triangle_Grid_4.jpg,Red_Plus_Dots_1.jpg,Purple_Circle_Grid_2.jpg,left,569.7099999997299,true,low,false
uMH5ck64,3atyli1pswfm29bow6spg463876ojo,3nd9uoo81of2ps6khf0e2xs9sy7lw0,uMH5ck64,2020-0188,2020-11-17,09:15:48,09:43:47,NA,incomplete,98,color,1,1,right,Purple_Plus_Chess_3.jpg,Green_Star_Chess_1.jpg,Purple_Circle_Grid_4.jpg,right,440.5850000001956,true,low,false
uMH5ck64,3atyli1pswfm29bow6spg463876ojo,3nd9uoo81of2ps6khf0e2xs9sy7lw0,uMH5ck64,2020-0188,2020-11-17,09:15:48,09:43:47,NA,incomplete,99,color,1,1,right,Green_Triangle_Dots_2.jpg,Purple_Plus_Dots_3.jpg,Green_Star_Chess_4.jpg,right,449.1200000011595,true,low,false
uMH5ck64,3atyli1pswfm29bow6spg463876ojo,3nd9uoo81of2ps6khf0e2xs9sy7lw0,uMH5ck64,2020-0188,2020-11-17,09:15:48,09:43:47,NA,incomplete,100,filling,0,1,right,Green_Star_Chess_3.jpg,Green_Circle_Dots_4.jpg,Blue_Triangle_Chess_1.jpg,left,410.120000000461,false,low,false
uMH5ck64,3atyli1pswfm29bow6spg463876ojo,3nd9uoo81of2ps6khf0e2xs9sy7lw0,uMH5ck64,2020-0188,2020-11-17,09:15:48,09:43:47,NA,incomplete,101,filling,0,1,left,Green_Circle_Grid_4.jpg,Blue_Plus_Grid_1.jpg,Green_Star_Stripes_3.jpg,right,464.6649999995716,false,low,false
uMH5ck64,3atyli1pswfm29bow6spg463876ojo,3nd9uoo81of2ps6khf0e2xs9sy7lw0,uMH5ck64,2020-0188,2020-11-17,09:15:48,09:43:47,NA,incomplete,102,filling,0,1,right,Blue_Circle_Chess_3.jpg,Blue_Star_Dots_4.jpg,Green_Plus_Chess_1.jpg,right,945.429999999702,true,low,false
uMH5ck64,3atyli1pswfm29bow6spg463876ojo,3nd9uoo81of2ps6khf0e2xs9sy7lw0,uMH5ck64,2020-0188,2020-11-17,09:15:48,09:43:47,NA,incomplete,103,filling,0,1,left,Green_Triangle_Grid_4.jpg,Blue_Circle_Grid_1.jpg,Green_Plus_Chess_2.jpg,left,705.5449999988778,true,low,false
uMH5ck64,3atyli1pswfm29bow6spg463876ojo,3nd9uoo81of2ps6khf0e2xs9sy7lw0,uMH5ck64,2020-0188,2020-11-17,09:15:48,09:43:47,NA,incomplete,104,filling,0,1,left,Green_Star_Stripes_4.jpg,Blue_Plus_Stripes_1.jpg,Green_Triangle_Dots_3.jpg,left,870.9399999988964,true,low,false
uMH5ck64,3atyli1pswfm29bow6spg463876ojo,3nd9uoo81of2ps6khf0e2xs9sy7lw0,uMH5ck64,2020-0188,2020-11-17,09:15:48,09:43:47,NA,incomplete,105,filling,0,1,left,Green_Triangle_Grid_1.jpg,Purple_Plus_Grid_2.jpg,Green_Star_Dots_4.jpg,left,910.8049999995856,true,low,false
uMH5ck64,3atyli1pswfm29bow6spg463876ojo,3nd9uoo81of2ps6khf0e2xs9sy7lw0,uMH5ck64,2020-0188,2020-11-17,09:15:48,09:43:47,NA,incomplete,106,filling,0,0,left,Red_Plus_Grid_3.jpg,Green_Circle_Grid_1.jpg,Red_Triangle_Dots_4.jpg,left,996.839999999851,true,low,false
uMH5ck64,3atyli1pswfm29bow6spg463876ojo,3nd9uoo81of2ps6khf0e2xs9sy7lw0,uMH5ck64,2020-0188,2020-11-17,09:15:48,09:43:47,NA,incomplete,107,filling,0,0,left,Purple_Star_Dots_2.jpg,Blue_Circle_Dots_1.jpg,Purple_Plus_Stripes_4.jpg,left,989.9750000004424,true,low,false
uMH5ck64,3atyli1pswfm29bow6spg463876ojo,3nd9uoo81of2ps6khf0e2xs9sy7lw0,uMH5ck64,2020-0188,2020-11-17,09:15:48,09:43:47,NA,incomplete,108,filling,0,1,left,Red_Circle_Stripes_4.jpg,Purple_Triangle_Stripes_1.jpg,Red_Star_Chess_2.jpg,right,797.1999999991385,false,low,false
uMH5ck64,3atyli1pswfm29bow6spg463876ojo,3nd9uoo81of2ps6khf0e2xs9sy7lw0,uMH5ck64,2020-0188,2020-11-17,09:15:48,09:43:47,NA,incomplete,109,filling,0,1,left,Red_Star_Stripes_4.jpg,Purple_Circle_Stripes_1.jpg,Red_Plus_Grid_3.jpg,right,596.7199999995064,false,low,false
uMH5ck64,3atyli1pswfm29bow6spg463876ojo,3nd9uoo81of2ps6khf0e2xs9sy7lw0,uMH5ck64,2020-0188,2020-11-17,09:15:48,09:43:47,NA,incomplete,110,color,1,1,right,Green_Circle_Chess_3.jpg,Blue_Triangle_Chess_2.jpg,Green_Star_Dots_4.jpg,left,775.1399999997811,false,low,false
uMH5ck64,3atyli1pswfm29bow6spg463876ojo,3nd9uoo81of2ps6khf0e2xs9sy7lw0,uMH5ck64,2020-0188,2020-11-17,09:15:48,09:43:47,NA,incomplete,111,color,1,1,right,Purple_Plus_Chess_4.jpg,Blue_Triangle_Chess_2.jpg,Purple_Circle_Grid_1.jpg,left,989.4299999995856,false,low,false
uMH5ck64,3atyli1pswfm29bow6spg463876ojo,3nd9uoo81of2ps6khf0e2xs9sy7lw0,uMH5ck64,2020-0188,2020-11-17,09:15:48,09:43:47,NA,incomplete,112,color,1,1,left,Blue_Triangle_Dots_2.jpg,Blue_Plus_Chess_4.jpg,Red_Star_Dots_3.jpg,left,496.43499999912456,true,low,false
uMH5ck64,3atyli1pswfm29bow6spg463876ojo,3nd9uoo81of2ps6khf0e2xs9sy7lw0,uMH5ck64,2020-0188,2020-11-17,09:15:48,09:43:47,NA,incomplete,113,color,1,0,left,Blue_Star_Dots_3.jpg,Blue_Circle_Grid_4.jpg,Green_Triangle_Dots_2.jpg,left,527.9099999988684,true,low,false
uMH5ck64,3atyli1pswfm29bow6spg463876ojo,3nd9uoo81of2ps6khf0e2xs9sy7lw0,uMH5ck64,2020-0188,2020-11-17,09:15:48,09:43:47,NA,incomplete,114,color,1,1,left,Red_Triangle_Stripes_1.jpg,Red_Star_Chess_3.jpg,Blue_Plus_Stripes_2.jpg,left,467.8600000006845,true,low,false
uMH5ck64,3atyli1pswfm29bow6spg463876ojo,3nd9uoo81of2ps6khf0e2xs9sy7lw0,uMH5ck64,2020-0188,2020-11-17,09:15:48,09:43:47,NA,incomplete,115,color,1,1,left,Green_Triangle_Stripes_4.jpg,Green_Plus_Grid_3.jpg,Purple_Star_Stripes_2.jpg,left,443.794999999227,true,low,false
uMH5ck64,3atyli1pswfm29bow6spg463876ojo,3nd9uoo81of2ps6khf0e2xs9sy7lw0,uMH5ck64,2020-0188,2020-11-17,09:15:48,09:43:47,NA,incomplete,116,color,1,0,right,Red_Circle_Chess_2.jpg,Purple_Plus_Chess_4.jpg,Red_Star_Grid_1.jpg,right,484.81999999959953,true,low,false
uMH5ck64,3atyli1pswfm29bow6spg463876ojo,3nd9uoo81of2ps6khf0e2xs9sy7lw0,uMH5ck64,2020-0188,2020-11-17,09:15:48,09:43:47,NA,incomplete,117,color,1,1,right,Green_Plus_Grid_2.jpg,Red_Star_Grid_4.jpg,Green_Triangle_Stripes_1.jpg,right,589.6350000002421,true,low,false
uMH5ck64,3atyli1pswfm29bow6spg463876ojo,3nd9uoo81of2ps6khf0e2xs9sy7lw0,uMH5ck64,2020-0188,2020-11-17,09:15:48,09:43:47,NA,incomplete,118,color,1,1,left,Blue_Triangle_Grid_1.jpg,Blue_Circle_Chess_2.jpg,Green_Plus_Grid_4.jpg,left,440.3600000004517,true,low,false
uMH5ck64,3atyli1pswfm29bow6spg463876ojo,3nd9uoo81of2ps6khf0e2xs9sy7lw0,uMH5ck64,2020-0188,2020-11-17,09:15:48,09:43:47,NA,incomplete,119,color,1,1,left,Red_Circle_Stripes_3.jpg,Red_Star_Dots_1.jpg,Blue_Plus_Stripes_2.jpg,left,567.9250000012107,true,low,false
uMH5ck64,3atyli1pswfm29bow6spg463876ojo,3nd9uoo81of2ps6khf0e2xs9sy7lw0,uMH5ck64,2020-0188,2020-11-17,09:15:48,09:43:47,NA,incomplete,120,race,2,1,left,A_F_14.jpg,A_M_03.jpg,C_F_04.jpg,NA,NA,NA,low,false
uMH5ck64,3atyli1pswfm29bow6spg463876ojo,3nd9uoo81of2ps6khf0e2xs9sy7lw0,uMH5ck64,2020-0188,2020-11-17,09:15:48,09:43:47,NA,incomplete,121,race,2,0,right,C_F_09.jpg,A_F_02.jpg,C_M_15.jpg,left,1295.6199999989476,false,low,false
uMH5ck64,3atyli1pswfm29bow6spg463876ojo,3nd9uoo81of2ps6khf0e2xs9sy7lw0,uMH5ck64,2020-0188,2020-11-17,09:15:48,09:43:47,NA,incomplete,122,race,2,1,right,C_M_09.jpg,A_M_01.jpg,C_F_06.jpg,left,806.140000000596,false,low,false
uMH5ck64,3atyli1pswfm29bow6spg463876ojo,3nd9uoo81of2ps6khf0e2xs9sy7lw0,uMH5ck64,2020-0188,2020-11-17,09:15:48,09:43:47,NA,incomplete,123,race,2,1,left,A_F_10.jpg,A_M_07.jpg,C_F_05.jpg,right,1662.95999999973,false,low,false
uMH5ck64,3atyli1pswfm29bow6spg463876ojo,3nd9uoo81of2ps6khf0e2xs9sy7lw0,uMH5ck64,2020-0188,2020-11-17,09:15:48,09:43:47,NA,incomplete,124,race,2,0,left,A_M_10.jpg,A_F_04.jpg,C_M_12.jpg,left,1338.3699999994133,true,low,false
uMH5ck64,3atyli1pswfm29bow6spg463876ojo,3nd9uoo81of2ps6khf0e2xs9sy7lw0,uMH5ck64,2020-0188,2020-11-17,09:15:48,09:43:47,NA,incomplete,125,race,2,1,left,C_F_03.jpg,C_M_08.jpg,A_F_01.jpg,right,1218.9549999984447,false,low,false
uMH5ck64,3atyli1pswfm29bow6spg463876ojo,3nd9uoo81of2ps6khf0e2xs9sy7lw0,uMH5ck64,2020-0188,2020-11-17,09:15:48,09:43:47,NA,incomplete,126,race,2,0,left,A_M_09.jpg,A_F_05.jpg,C_M_13.jpg,right,1927.3499999998603,false,low,false
uMH5ck64,3atyli1pswfm29bow6spg463876ojo,3nd9uoo81of2ps6khf0e2xs9sy7lw0,uMH5ck64,2020-0188,2020-11-17,09:15:48,09:43:47,NA,incomplete,127,race,2,1,left,C_M_13.jpg,C_F_10.jpg,A_M_11.jpg,right,1187.6949999986682,false,low,false
uMH5ck64,3atyli1pswfm29bow6spg463876ojo,3nd9uoo81of2ps6khf0e2xs9sy7lw0,uMH5ck64,2020-0188,2020-11-17,09:15:48,09:43:47,NA,incomplete,128,race,2,1,right,A_M_05.jpg,C_M_08.jpg,A_F_16.jpg,right,1202.9299999994691,true,low,false
uMH5ck64,3atyli1pswfm29bow6spg463876ojo,3nd9uoo81of2ps6khf0e2xs9sy7lw0,uMH5ck64,2020-0188,2020-11-17,09:15:48,09:43:47,NA,incomplete,129,race,2,1,right,A_F_11.jpg,C_F_08.jpg,A_M_15.jpg,right,1093.9600000001956,true,low,false
uMH5ck64,3atyli1pswfm29bow6spg463876ojo,3nd9uoo81of2ps6khf0e2xs9sy7lw0,uMH5ck64,2020-0188,2020-11-17,09:15:48,09:43:47,NA,incomplete,130,race,2,1,right,A_F_05.jpg,C_F_16.jpg,A_M_04.jpg,right,944.3299999986775,true,low,false
uMH5ck64,3atyli1pswfm29bow6spg463876ojo,3nd9uoo81of2ps6khf0e2xs9sy7lw0,uMH5ck64,2020-0188,2020-11-17,09:15:48,09:43:47,NA,incomplete,131,race,2,1,left,C_M_03.jpg,C_F_09.jpg,A_M_11.jpg,right,1362.9099999996834,false,low,false
uMH5ck64,3atyli1pswfm29bow6spg463876ojo,3nd9uoo81of2ps6khf0e2xs9sy7lw0,uMH5ck64,2020-0188,2020-11-17,09:15:48,09:43:47,NA,incomplete,132,race,2,1,left,C_F_12.jpg,C_M_11.jpg,A_F_06.jpg,right,1532.7849999994505,false,low,false
uMH5ck64,3atyli1pswfm29bow6spg463876ojo,3nd9uoo81of2ps6khf0e2xs9sy7lw0,uMH5ck64,2020-0188,2020-11-17,09:15:48,09:43:47,NA,incomplete,133,race,2,1,right,A_M_11.jpg,C_M_06.jpg,A_F_07.jpg,left,1728.3549999992829,false,low,false
uMH5ck64,3atyli1pswfm29bow6spg463876ojo,3nd9uoo81of2ps6khf0e2xs9sy7lw0,uMH5ck64,2020-0188,2020-11-17,09:15:48,09:43:47,NA,incomplete,134,race,2,0,right,C_M_03.jpg,A_M_07.jpg,C_F_09.jpg,none,0,false,low,false
uMH5ck64,3atyli1pswfm29bow6spg463876ojo,3nd9uoo81of2ps6khf0e2xs9sy7lw0,uMH5ck64,2020-0188,2020-11-17,09:15:48,09:43:47,NA,incomplete,135,race,2,1,left,A_M_12.jpg,A_F_13.jpg,C_M_15.jpg,left,1637.7499999997672,true,low,false
uMH5ck64,3atyli1pswfm29bow6spg463876ojo,3nd9uoo81of2ps6khf0e2xs9sy7lw0,uMH5ck64,2020-0188,2020-11-17,09:15:48,09:43:47,NA,incomplete,136,race,2,1,left,A_M_06.jpg,A_F_09.jpg,C_M_04.jpg,left,827.1550000007264,true,low,false
uMH5ck64,3atyli1pswfm29bow6spg463876ojo,3nd9uoo81of2ps6khf0e2xs9sy7lw0,uMH5ck64,2020-0188,2020-11-17,09:15:48,09:43:47,NA,incomplete,137,race,2,1,right,C_F_09.jpg,A_F_06.jpg,C_M_04.jpg,right,1411.8950000011828,true,low,false
uMH5ck64,3atyli1pswfm29bow6spg463876ojo,3nd9uoo81of2ps6khf0e2xs9sy7lw0,uMH5ck64,2020-0188,2020-11-17,09:15:48,09:43:47,NA,incomplete,138,race,2,1,left,A_F_10.jpg,A_M_01.jpg,C_F_12.jpg,left,1037.0449999989942,true,low,false
uMH5ck64,3atyli1pswfm29bow6spg463876ojo,3nd9uoo81of2ps6khf0e2xs9sy7lw0,uMH5ck64,2020-0188,2020-11-17,09:15:48,09:43:47,NA,incomplete,139,race,2,1,left,A_M_15.jpg,A_F_04.jpg,C_M_01.jpg,left,749.3699999996461,true,low,false
uMH5ck64,3atyli1pswfm29bow6spg463876ojo,3nd9uoo81of2ps6khf0e2xs9sy7lw0,uMH5ck64,2020-0188,2020-11-17,09:15:48,09:43:47,NA,incomplete,140,gender,3,0,right,A_F_11.jpg,A_M_01.jpg,C_F_05.jpg,left,1136.0150000001304,false,low,false
uMH5ck64,3atyli1pswfm29bow6spg463876ojo,3nd9uoo81of2ps6khf0e2xs9sy7lw0,uMH5ck64,2020-0188,2020-11-17,09:15:48,09:43:47,NA,incomplete,141,gender,3,1,right,A_M_12.jpg,A_F_09.jpg,C_M_07.jpg,right,1093.8549999992829,true,low,false
uMH5ck64,3atyli1pswfm29bow6spg463876ojo,3nd9uoo81of2ps6khf0e2xs9sy7lw0,uMH5ck64,2020-0188,2020-11-17,09:15:48,09:43:47,NA,incomplete,142,gender,3,1,right,C_F_15.jpg,C_M_09.jpg,A_F_07.jpg,left,944.8150000008754,false,low,false
uMH5ck64,3atyli1pswfm29bow6spg463876ojo,3nd9uoo81of2ps6khf0e2xs9sy7lw0,uMH5ck64,2020-0188,2020-11-17,09:15:48,09:43:47,NA,incomplete,143,gender,3,0,right,C_M_16.jpg,C_F_03.jpg,A_M_09.jpg,left,873.7399999990594,false,low,false
uMH5ck64,3atyli1pswfm29bow6spg463876ojo,3nd9uoo81of2ps6khf0e2xs9sy7lw0,uMH5ck64,2020-0188,2020-11-17,09:15:48,09:43:47,NA,incomplete,144,gender,3,1,left,C_M_07.jpg,A_M_03.jpg,C_F_01.jpg,right,995.2350000003353,false,low,false
uMH5ck64,3atyli1pswfm29bow6spg463876ojo,3nd9uoo81of2ps6khf0e2xs9sy7lw0,uMH5ck64,2020-0188,2020-11-17,09:15:48,09:43:47,NA,incomplete,145,gender,3,1,left,C_M_08.jpg,A_M_11.jpg,C_F_12.jpg,right,1113.7500000004657,false,low,false
uMH5ck64,3atyli1pswfm29bow6spg463876ojo,3nd9uoo81of2ps6khf0e2xs9sy7lw0,uMH5ck64,2020-0188,2020-11-17,09:15:48,09:43:47,NA,incomplete,146,gender,3,1,right,C_F_15.jpg,C_M_09.jpg,A_F_02.jpg,right,1066.2150000007823,true,low,false
uMH5ck64,3atyli1pswfm29bow6spg463876ojo,3nd9uoo81of2ps6khf0e2xs9sy7lw0,uMH5ck64,2020-0188,2020-11-17,09:15:48,09:43:47,NA,incomplete,147,gender,3,1,right,A_F_10.jpg,A_M_11.jpg,C_F_04.jpg,right,772.8600000008009,true,low,false
uMH5ck64,3atyli1pswfm29bow6spg463876ojo,3nd9uoo81of2ps6khf0e2xs9sy7lw0,uMH5ck64,2020-0188,2020-11-17,09:15:48,09:43:47,NA,incomplete,148,gender,3,1,right,C_F_01.jpg,C_M_02.jpg,A_F_11.jpg,right,1191.789999998873,true,low,false
uMH5ck64,3atyli1pswfm29bow6spg463876ojo,3nd9uoo81of2ps6khf0e2xs9sy7lw0,uMH5ck64,2020-0188,2020-11-17,09:15:48,09:43:47,NA,incomplete,149,gender,3,1,right,A_F_01.jpg,A_M_15.jpg,C_F_02.jpg,right,808.9900000013877,true,low,false
uMH5ck64,3atyli1pswfm29bow6spg463876ojo,3nd9uoo81of2ps6khf0e2xs9sy7lw0,uMH5ck64,2020-0188,2020-11-17,09:15:48,09:43:47,NA,incomplete,150,gender,3,1,right,A_F_05.jpg,A_M_15.jpg,C_F_06.jpg,right,653.9299999985378,true,low,false
uMH5ck64,3atyli1pswfm29bow6spg463876ojo,3nd9uoo81of2ps6khf0e2xs9sy7lw0,uMH5ck64,2020-0188,2020-11-17,09:15:48,09:43:47,NA,incomplete,151,gender,3,1,right,C_M_07.jpg,C_F_13.jpg,A_M_09.jpg,right,970.2850000013132,true,low,false
uMH5ck64,3atyli1pswfm29bow6spg463876ojo,3nd9uoo81of2ps6khf0e2xs9sy7lw0,uMH5ck64,2020-0188,2020-11-17,09:15:48,09:43:47,NA,incomplete,152,gender,3,1,right,C_M_10.jpg,C_F_16.jpg,A_M_02.jpg,right,989.3550000016112,true,low,false
uMH5ck64,3atyli1pswfm29bow6spg463876ojo,3nd9uoo81of2ps6khf0e2xs9sy7lw0,uMH5ck64,2020-0188,2020-11-17,09:15:48,09:43:47,NA,incomplete,153,gender,3,1,right,C_M_16.jpg,C_F_03.jpg,A_M_08.jpg,right,976.1500000006054,true,low,false
uMH5ck64,3atyli1pswfm29bow6spg463876ojo,3nd9uoo81of2ps6khf0e2xs9sy7lw0,uMH5ck64,2020-0188,2020-11-17,09:15:48,09:43:47,NA,incomplete,154,gender,3,1,left,C_M_03.jpg,A_M_11.jpg,C_F_12.jpg,left,883.6100000008009,true,low,false
uMH5ck64,3atyli1pswfm29bow6spg463876ojo,3nd9uoo81of2ps6khf0e2xs9sy7lw0,uMH5ck64,2020-0188,2020-11-17,09:15:48,09:43:47,NA,incomplete,155,gender,3,1,right,A_M_14.jpg,A_F_07.jpg,C_M_06.jpg,right,706.259999999078,true,low,false
uMH5ck64,3atyli1pswfm29bow6spg463876ojo,3nd9uoo81of2ps6khf0e2xs9sy7lw0,uMH5ck64,2020-0188,2020-11-17,09:15:48,09:43:47,NA,incomplete,156,gender,3,1,right,C_M_01.jpg,C_F_02.jpg,A_M_07.jpg,right,745.6700000001583,true,low,false
uMH5ck64,3atyli1pswfm29bow6spg463876ojo,3nd9uoo81of2ps6khf0e2xs9sy7lw0,uMH5ck64,2020-0188,2020-11-17,09:15:48,09:43:47,NA,incomplete,157,gender,3,1,right,A_F_05.jpg,A_M_03.jpg,C_F_07.jpg,right,853.5949999985751,true,low,false
uMH5ck64,3atyli1pswfm29bow6spg463876ojo,3nd9uoo81of2ps6khf0e2xs9sy7lw0,uMH5ck64,2020-0188,2020-11-17,09:15:48,09:43:47,NA,incomplete,158,gender,3,0,right,A_F_05.jpg,A_M_12.jpg,C_F_16.jpg,right,697.635000000475,true,low,false
uMH5ck64,3atyli1pswfm29bow6spg463876ojo,3nd9uoo81of2ps6khf0e2xs9sy7lw0,uMH5ck64,2020-0188,2020-11-17,09:15:48,09:43:47,NA,incomplete,159,gender,3,1,left,A_F_10.jpg,C_F_15.jpg,A_M_07.jpg,left,748.7949999994598,true,low,false
uMH5ck64,3atyli1pswfm29bow6spg463876ojo,3nd9uoo81of2ps6khf0e2xs9sy7lw0,uMH5ck64,2020-0188,2020-11-17,09:15:48,09:43:47,NA,incomplete,160,race,2,0,right,A_M_14.jpg,C_M_04.jpg,A_F_10.jpg,left,1053.4300000001676,false,low,false
uMH5ck64,3atyli1pswfm29bow6spg463876ojo,3nd9uoo81of2ps6khf0e2xs9sy7lw0,uMH5ck64,2020-0188,2020-11-17,09:15:48,09:43:47,NA,incomplete,161,race,2,1,left,A_F_06.jpg,A_M_13.jpg,C_F_11.jpg,right,1297.964999999851,false,low,false
uMH5ck64,3atyli1pswfm29bow6spg463876ojo,3nd9uoo81of2ps6khf0e2xs9sy7lw0,uMH5ck64,2020-0188,2020-11-17,09:15:48,09:43:47,NA,incomplete,162,race,2,1,left,A_F_08.jpg,A_M_16.jpg,C_F_11.jpg,right,767.7999999998137,false,low,false
uMH5ck64,3atyli1pswfm29bow6spg463876ojo,3nd9uoo81of2ps6khf0e2xs9sy7lw0,uMH5ck64,2020-0188,2020-11-17,09:15:48,09:43:47,NA,incomplete,163,race,2,0,right,A_F_08.jpg,C_F_07.jpg,A_M_02.jpg,right,928.8850000011735,true,low,false
uMH5ck64,3atyli1pswfm29bow6spg463876ojo,3nd9uoo81of2ps6khf0e2xs9sy7lw0,uMH5ck64,2020-0188,2020-11-17,09:15:48,09:43:47,NA,incomplete,164,race,2,1,right,C_M_06.jpg,A_M_16.jpg,C_F_12.jpg,right,1163.7350000001024,true,low,false
uMH5ck64,3atyli1pswfm29bow6spg463876ojo,3nd9uoo81of2ps6khf0e2xs9sy7lw0,uMH5ck64,2020-0188,2020-11-17,09:15:48,09:43:47,NA,incomplete,165,race,2,1,left,A_F_11.jpg,A_M_13.jpg,C_F_06.jpg,left,797.1700000017881,true,low,false
uMH5ck64,3atyli1pswfm29bow6spg463876ojo,3nd9uoo81of2ps6khf0e2xs9sy7lw0,uMH5ck64,2020-0188,2020-11-17,09:15:48,09:43:47,NA,incomplete,166,race,2,1,right,A_F_11.jpg,C_F_16.jpg,A_M_15.jpg,right,654.1199999991804,true,low,false
uMH5ck64,3atyli1pswfm29bow6spg463876ojo,3nd9uoo81of2ps6khf0e2xs9sy7lw0,uMH5ck64,2020-0188,2020-11-17,09:15:48,09:43:47,NA,incomplete,167,race,2,1,left,A_F_13.jpg,A_M_02.jpg,C_F_14.jpg,left,916.9950000012759,true,low,false
uMH5ck64,3atyli1pswfm29bow6spg463876ojo,3nd9uoo81of2ps6khf0e2xs9sy7lw0,uMH5ck64,2020-0188,2020-11-17,09:15:48,09:43:47,NA,incomplete,168,race,2,1,right,A_M_06.jpg,C_M_01.jpg,A_F_12.jpg,left,1004.9900000013877,false,low,false
uMH5ck64,3atyli1pswfm29bow6spg463876ojo,3nd9uoo81of2ps6khf0e2xs9sy7lw0,uMH5ck64,2020-0188,2020-11-17,09:15:48,09:43:47,NA,incomplete,169,race,2,1,left,A_M_07.jpg,A_F_08.jpg,C_M_01.jpg,left,676.8349999983329,true,low,false
uMH5ck64,3atyli1pswfm29bow6spg463876ojo,3nd9uoo81of2ps6khf0e2xs9sy7lw0,uMH5ck64,2020-0188,2020-11-17,09:15:48,09:43:47,NA,incomplete,170,race,2,1,right,C_M_13.jpg,A_M_14.jpg,C_F_06.jpg,right,1003.3899999998976,true,low,false
uMH5ck64,3atyli1pswfm29bow6spg463876ojo,3nd9uoo81of2ps6khf0e2xs9sy7lw0,uMH5ck64,2020-0188,2020-11-17,09:15:48,09:43:47,NA,incomplete,171,race,2,0,left,C_F_12.jpg,C_M_14.jpg,A_F_06.jpg,left,1069.1850000002887,true,low,false
uMH5ck64,3atyli1pswfm29bow6spg463876ojo,3nd9uoo81of2ps6khf0e2xs9sy7lw0,uMH5ck64,2020-0188,2020-11-17,09:15:48,09:43:47,NA,incomplete,172,race,2,1,left,C_F_07.jpg,C_M_01.jpg,A_F_09.jpg,left,928.149999999674,true,low,false
uMH5ck64,3atyli1pswfm29bow6spg463876ojo,3nd9uoo81of2ps6khf0e2xs9sy7lw0,uMH5ck64,2020-0188,2020-11-17,09:15:48,09:43:47,NA,incomplete,173,race,2,0,left,A_M_13.jpg,A_F_15.jpg,C_M_02.jpg,left,838.9449999995995,true,low,false
uMH5ck64,3atyli1pswfm29bow6spg463876ojo,3nd9uoo81of2ps6khf0e2xs9sy7lw0,uMH5ck64,2020-0188,2020-11-17,09:15:48,09:43:47,NA,incomplete,174,race,2,1,left,C_F_02.jpg,C_M_15.jpg,A_F_16.jpg,left,891.2799999997951,true,low,false
uMH5ck64,3atyli1pswfm29bow6spg463876ojo,3nd9uoo81of2ps6khf0e2xs9sy7lw0,uMH5ck64,2020-0188,2020-11-17,09:15:48,09:43:47,NA,incomplete,175,race,2,0,right,C_F_03.jpg,A_F_06.jpg,C_M_12.jpg,right,929.9399999999441,true,low,false
uMH5ck64,3atyli1pswfm29bow6spg463876ojo,3nd9uoo81of2ps6khf0e2xs9sy7lw0,uMH5ck64,2020-0188,2020-11-17,09:15:48,09:43:47,NA,incomplete,176,race,2,1,left,C_F_14.jpg,C_M_07.jpg,A_F_03.jpg,left,1470.4400000008754,true,low,false
uMH5ck64,3atyli1pswfm29bow6spg463876ojo,3nd9uoo81of2ps6khf0e2xs9sy7lw0,uMH5ck64,2020-0188,2020-11-17,09:15:48,09:43:47,NA,incomplete,177,race,2,1,left,C_M_06.jpg,C_F_14.jpg,A_M_12.jpg,right,1521.6899999994785,false,low,false
uMH5ck64,3atyli1pswfm29bow6spg463876ojo,3nd9uoo81of2ps6khf0e2xs9sy7lw0,uMH5ck64,2020-0188,2020-11-17,09:15:48,09:43:47,NA,incomplete,178,race,2,0,right,C_F_13.jpg,A_F_15.jpg,C_M_01.jpg,right,1853.255000000121,true,low,false
uMH5ck64,3atyli1pswfm29bow6spg463876ojo,3nd9uoo81of2ps6khf0e2xs9sy7lw0,uMH5ck64,2020-0188,2020-11-17,09:15:48,09:43:47,NA,incomplete,179,race,2,1,left,C_M_16.jpg,C_F_09.jpg,A_M_08.jpg,left,1272.969999999972,true,low,false
uMH5ck64,3atyli1pswfm29bow6spg463876ojo,3nd9uoo81of2ps6khf0e2xs9sy7lw0,uMH5ck64,2020-0188,2020-11-17,09:15:48,09:43:47,NA,incomplete,180,gender,3,0,right,A_F_14.jpg,A_M_06.jpg,C_F_15.jpg,right,1607.8000000014435,true,low,false
uMH5ck64,3atyli1pswfm29bow6spg463876ojo,3nd9uoo81of2ps6khf0e2xs9sy7lw0,uMH5ck64,2020-0188,2020-11-17,09:15:48,09:43:47,NA,incomplete,181,gender,3,1,left,C_M_16.jpg,A_M_06.jpg,C_F_09.jpg,right,1016.8400000003166,false,low,false
uMH5ck64,3atyli1pswfm29bow6spg463876ojo,3nd9uoo81of2ps6khf0e2xs9sy7lw0,uMH5ck64,2020-0188,2020-11-17,09:15:48,09:43:47,NA,incomplete,182,gender,3,1,left,A_F_02.jpg,C_F_11.jpg,A_M_10.jpg,right,1150.494999999879,false,low,false
uMH5ck64,3atyli1pswfm29bow6spg463876ojo,3nd9uoo81of2ps6khf0e2xs9sy7lw0,uMH5ck64,2020-0188,2020-11-17,09:15:48,09:43:47,NA,incomplete,183,gender,3,1,left,C_F_02.jpg,A_F_04.jpg,C_M_08.jpg,left,1005.4799999999814,true,low,false
uMH5ck64,3atyli1pswfm29bow6spg463876ojo,3nd9uoo81of2ps6khf0e2xs9sy7lw0,uMH5ck64,2020-0188,2020-11-17,09:15:48,09:43:47,NA,incomplete,184,gender,3,1,right,A_F_01.jpg,A_M_07.jpg,C_F_12.jpg,right,789.230000000447,true,low,false
uMH5ck64,3atyli1pswfm29bow6spg463876ojo,3nd9uoo81of2ps6khf0e2xs9sy7lw0,uMH5ck64,2020-0188,2020-11-17,09:15:48,09:43:47,NA,incomplete,185,gender,3,1,right,C_M_09.jpg,C_F_11.jpg,A_M_13.jpg,right,854.0949999988079,true,low,false
uMH5ck64,3atyli1pswfm29bow6spg463876ojo,3nd9uoo81of2ps6khf0e2xs9sy7lw0,uMH5ck64,2020-0188,2020-11-17,09:15:48,09:43:47,NA,incomplete,186,gender,3,1,left,A_F_02.jpg,C_F_14.jpg,A_M_06.jpg,left,1133.5350000008475,true,low,false
uMH5ck64,3atyli1pswfm29bow6spg463876ojo,3nd9uoo81of2ps6khf0e2xs9sy7lw0,uMH5ck64,2020-0188,2020-11-17,09:15:48,09:43:47,NA,incomplete,187,gender,3,0,right,C_F_14.jpg,C_M_01.jpg,A_F_10.jpg,right,822.6400000001304,true,low,false
uMH5ck64,3atyli1pswfm29bow6spg463876ojo,3nd9uoo81of2ps6khf0e2xs9sy7lw0,uMH5ck64,2020-0188,2020-11-17,09:15:48,09:43:47,NA,incomplete,188,gender,3,1,right,A_F_10.jpg,A_M_13.jpg,C_F_15.jpg,right,739.695000000298,true,low,false
uMH5ck64,3atyli1pswfm29bow6spg463876ojo,3nd9uoo81of2ps6khf0e2xs9sy7lw0,uMH5ck64,2020-0188,2020-11-17,09:15:48,09:43:47,NA,incomplete,189,gender,3,1,left,A_F_05.jpg,C_F_08.jpg,A_M_06.jpg,left,804.3049999994691,true,low,false
uMH5ck64,3atyli1pswfm29bow6spg463876ojo,3nd9uoo81of2ps6khf0e2xs9sy7lw0,uMH5ck64,2020-0188,2020-11-17,09:15:48,09:43:47,NA,incomplete,190,gender,3,1,left,C_F_15.jpg,A_F_12.jpg,C_M_09.jpg,left,842.9049999995623,true,low,false
uMH5ck64,3atyli1pswfm29bow6spg463876ojo,3nd9uoo81of2ps6khf0e2xs9sy7lw0,uMH5ck64,2020-0188,2020-11-17,09:15:48,09:43:47,NA,incomplete,191,gender,3,1,left,A_M_09.jpg,C_M_08.jpg,A_F_06.jpg,left,1687.5550000004005,true,low,false
uMH5ck64,3atyli1pswfm29bow6spg463876ojo,3nd9uoo81of2ps6khf0e2xs9sy7lw0,uMH5ck64,2020-0188,2020-11-17,09:15:48,09:43:47,NA,incomplete,192,gender,3,1,left,C_M_08.jpg,A_M_16.jpg,C_F_01.jpg,left,921.2000000006519,true,low,false
uMH5ck64,3atyli1pswfm29bow6spg463876ojo,3nd9uoo81of2ps6khf0e2xs9sy7lw0,uMH5ck64,2020-0188,2020-11-17,09:15:48,09:43:47,NA,incomplete,193,gender,3,1,left,C_M_02.jpg,A_M_03.jpg,C_F_09.jpg,left,901.7500000009313,true,low,false
uMH5ck64,3atyli1pswfm29bow6spg463876ojo,3nd9uoo81of2ps6khf0e2xs9sy7lw0,uMH5ck64,2020-0188,2020-11-17,09:15:48,09:43:47,NA,incomplete,194,gender,3,1,left,C_M_13.jpg,A_M_14.jpg,C_F_10.jpg,left,855.8900000008289,true,low,false
uMH5ck64,3atyli1pswfm29bow6spg463876ojo,3nd9uoo81of2ps6khf0e2xs9sy7lw0,uMH5ck64,2020-0188,2020-11-17,09:15:48,09:43:47,NA,incomplete,195,gender,3,1,left,C_F_04.jpg,A_F_15.jpg,C_M_11.jpg,left,787.97999999905,true,low,false
uMH5ck64,3atyli1pswfm29bow6spg463876ojo,3nd9uoo81of2ps6khf0e2xs9sy7lw0,uMH5ck64,2020-0188,2020-11-17,09:15:48,09:43:47,NA,incomplete,196,gender,3,1,left,C_M_10.jpg,A_M_08.jpg,C_F_04.jpg,left,756.3900000003632,true,low,false
uMH5ck64,3atyli1pswfm29bow6spg463876ojo,3nd9uoo81of2ps6khf0e2xs9sy7lw0,uMH5ck64,2020-0188,2020-11-17,09:15:48,09:43:47,NA,incomplete,197,gender,3,1,right,C_F_11.jpg,C_M_09.jpg,A_F_16.jpg,right,683.5300000002608,true,low,false
uMH5ck64,3atyli1pswfm29bow6spg463876ojo,3nd9uoo81of2ps6khf0e2xs9sy7lw0,uMH5ck64,2020-0188,2020-11-17,09:15:48,09:43:47,NA,incomplete,198,gender,3,1,right,C_F_06.jpg,C_M_15.jpg,A_F_14.jpg,right,723.9700000009034,true,low,false
uMH5ck64,3atyli1pswfm29bow6spg463876ojo,3nd9uoo81of2ps6khf0e2xs9sy7lw0,uMH5ck64,2020-0188,2020-11-17,09:15:48,09:43:47,NA,incomplete,199,gender,3,1,right,C_M_04.jpg,C_F_15.jpg,A_M_16.jpg,right,1025.2949999994598,true,low,false
uMH5ck64,3atyli1pswfm29bow6spg463876ojo,3nd9uoo81of2ps6khf0e2xs9sy7lw0,uMH5ck64,2020-0188,2020-11-17,09:15:48,09:43:47,NA,incomplete,200,race,2,0,left,C_F_03.jpg,C_M_10.jpg,A_F_16.jpg,right,986.8100000002887,false,low,false
uMH5ck64,3atyli1pswfm29bow6spg463876ojo,3nd9uoo81of2ps6khf0e2xs9sy7lw0,uMH5ck64,2020-0188,2020-11-17,09:15:48,09:43:47,NA,incomplete,201,race,2,1,left,A_F_11.jpg,A_M_07.jpg,C_F_01.jpg,right,1117.2349999996368,false,low,false
uMH5ck64,3atyli1pswfm29bow6spg463876ojo,3nd9uoo81of2ps6khf0e2xs9sy7lw0,uMH5ck64,2020-0188,2020-11-17,09:15:48,09:43:47,NA,incomplete,202,race,2,1,left,C_M_05.jpg,C_F_10.jpg,A_M_16.jpg,right,976.7450000001118,false,low,false
uMH5ck64,3atyli1pswfm29bow6spg463876ojo,3nd9uoo81of2ps6khf0e2xs9sy7lw0,uMH5ck64,2020-0188,2020-11-17,09:15:48,09:43:47,NA,incomplete,203,race,2,1,right,C_F_04.jpg,A_F_05.jpg,C_M_03.jpg,left,724.3000000016764,false,low,false
uMH5ck64,3atyli1pswfm29bow6spg463876ojo,3nd9uoo81of2ps6khf0e2xs9sy7lw0,uMH5ck64,2020-0188,2020-11-17,09:15:48,09:43:47,NA,incomplete,204,race,2,0,left,A_F_12.jpg,A_M_15.jpg,C_F_01.jpg,left,1136.3600000003353,true,low,false
uMH5ck64,3atyli1pswfm29bow6spg463876ojo,3nd9uoo81of2ps6khf0e2xs9sy7lw0,uMH5ck64,2020-0188,2020-11-17,09:15:48,09:43:47,NA,incomplete,205,race,2,1,left,C_F_09.jpg,C_M_12.jpg,A_F_03.jpg,left,820.2250000012573,true,low,false
uMH5ck64,3atyli1pswfm29bow6spg463876ojo,3nd9uoo81of2ps6khf0e2xs9sy7lw0,uMH5ck64,2020-0188,2020-11-17,09:15:48,09:43:47,NA,incomplete,206,race,2,0,right,C_F_11.jpg,A_F_08.jpg,C_M_07.jpg,right,966.1500000003725,true,low,false
uMH5ck64,3atyli1pswfm29bow6spg463876ojo,3nd9uoo81of2ps6khf0e2xs9sy7lw0,uMH5ck64,2020-0188,2020-11-17,09:15:48,09:43:47,NA,incomplete,207,race,2,1,left,C_F_08.jpg,C_M_13.jpg,A_F_12.jpg,left,965.3300000010058,true,low,false
uMH5ck64,3atyli1pswfm29bow6spg463876ojo,3nd9uoo81of2ps6khf0e2xs9sy7lw0,uMH5ck64,2020-0188,2020-11-17,09:15:48,09:43:47,NA,incomplete,208,race,2,1,right,C_F_07.jpg,A_F_12.jpg,C_M_15.jpg,right,1569.6650000007357,true,low,false
uMH5ck64,3atyli1pswfm29bow6spg463876ojo,3nd9uoo81of2ps6khf0e2xs9sy7lw0,uMH5ck64,2020-0188,2020-11-17,09:15:48,09:43:47,NA,incomplete,209,race,2,1,left,C_M_05.jpg,C_F_16.jpg,A_M_12.jpg,left,1039.3399999993853,true,low,false
uMH5ck64,3atyli1pswfm29bow6spg463876ojo,3nd9uoo81of2ps6khf0e2xs9sy7lw0,uMH5ck64,2020-0188,2020-11-17,09:15:48,09:43:47,NA,incomplete,210,race,2,1,right,C_M_10.jpg,A_M_16.jpg,C_F_09.jpg,right,844.2200000009034,true,low,false
uMH5ck64,3atyli1pswfm29bow6spg463876ojo,3nd9uoo81of2ps6khf0e2xs9sy7lw0,uMH5ck64,2020-0188,2020-11-17,09:15:48,09:43:47,NA,incomplete,211,race,2,1,left,A_M_05.jpg,A_F_08.jpg,C_M_11.jpg,left,1469.1449999993201,true,low,false
uMH5ck64,3atyli1pswfm29bow6spg463876ojo,3nd9uoo81of2ps6khf0e2xs9sy7lw0,uMH5ck64,2020-0188,2020-11-17,09:15:48,09:43:47,NA,incomplete,212,race,2,1,right,A_M_14.jpg,C_M_10.jpg,A_F_09.jpg,right,1183.0850000004284,true,low,false
uMH5ck64,3atyli1pswfm29bow6spg463876ojo,3nd9uoo81of2ps6khf0e2xs9sy7lw0,uMH5ck64,2020-0188,2020-11-17,09:15:48,09:43:47,NA,incomplete,213,race,2,1,right,C_F_03.jpg,A_F_10.jpg,C_M_16.jpg,right,894.2100000004284,true,low,false
uMH5ck64,3atyli1pswfm29bow6spg463876ojo,3nd9uoo81of2ps6khf0e2xs9sy7lw0,uMH5ck64,2020-0188,2020-11-17,09:15:48,09:43:47,NA,incomplete,214,race,2,1,right,A_M_02.jpg,C_M_04.jpg,A_F_11.jpg,right,1343.4150000012014,true,low,false
uMH5ck64,3atyli1pswfm29bow6spg463876ojo,3nd9uoo81of2ps6khf0e2xs9sy7lw0,uMH5ck64,2020-0188,2020-11-17,09:15:48,09:43:47,NA,incomplete,215,race,2,1,left,C_M_08.jpg,C_F_02.jpg,A_M_15.jpg,left,862.4799999997485,true,low,false
uMH5ck64,3atyli1pswfm29bow6spg463876ojo,3nd9uoo81of2ps6khf0e2xs9sy7lw0,uMH5ck64,2020-0188,2020-11-17,09:15:48,09:43:47,NA,incomplete,216,race,2,1,left,C_M_04.jpg,C_F_14.jpg,A_M_06.jpg,left,1235.425000000745,true,low,false
uMH5ck64,3atyli1pswfm29bow6spg463876ojo,3nd9uoo81of2ps6khf0e2xs9sy7lw0,uMH5ck64,2020-0188,2020-11-17,09:15:48,09:43:47,NA,incomplete,217,race,2,1,left,A_F_03.jpg,A_M_09.jpg,C_F_02.jpg,left,1239.7349999991711,true,low,false
uMH5ck64,3atyli1pswfm29bow6spg463876ojo,3nd9uoo81of2ps6khf0e2xs9sy7lw0,uMH5ck64,2020-0188,2020-11-17,09:15:48,09:43:47,NA,incomplete,218,race,2,1,left,C_M_11.jpg,C_F_10.jpg,A_M_01.jpg,left,1086.31499999878,true,low,false
uMH5ck64,3atyli1pswfm29bow6spg463876ojo,3nd9uoo81of2ps6khf0e2xs9sy7lw0,uMH5ck64,2020-0188,2020-11-17,09:15:48,09:43:47,NA,incomplete,219,race,2,1,left,C_F_14.jpg,C_M_05.jpg,A_F_08.jpg,left,1084.9350000007544,true,low,false
uMH5ck64,3atyli1pswfm29bow6spg463876ojo,3nd9uoo81of2ps6khf0e2xs9sy7lw0,uMH5ck64,2020-0188,2020-11-17,09:15:48,09:43:47,NA,incomplete,220,gender,3,0,right,C_F_06.jpg,C_M_01.jpg,A_F_03.jpg,right,1024.8749999990687,true,low,false
uMH5ck64,3atyli1pswfm29bow6spg463876ojo,3nd9uoo81of2ps6khf0e2xs9sy7lw0,uMH5ck64,2020-0188,2020-11-17,09:15:48,09:43:47,NA,incomplete,221,gender,3,1,right,A_M_03.jpg,A_F_14.jpg,C_M_02.jpg,right,1490.6000000010245,true,low,false
uMH5ck64,3atyli1pswfm29bow6spg463876ojo,3nd9uoo81of2ps6khf0e2xs9sy7lw0,uMH5ck64,2020-0188,2020-11-17,09:15:48,09:43:47,NA,incomplete,222,gender,3,1,right,A_M_15.jpg,A_F_14.jpg,C_M_11.jpg,left,1508.4999999997672,false,low,false
uMH5ck64,3atyli1pswfm29bow6spg463876ojo,3nd9uoo81of2ps6khf0e2xs9sy7lw0,uMH5ck64,2020-0188,2020-11-17,09:15:48,09:43:47,NA,incomplete,223,gender,3,0,left,C_F_15.jpg,A_F_02.jpg,C_M_07.jpg,right,1309.7349999989383,false,low,false
uMH5ck64,3atyli1pswfm29bow6spg463876ojo,3nd9uoo81of2ps6khf0e2xs9sy7lw0,uMH5ck64,2020-0188,2020-11-17,09:15:48,09:43:47,NA,incomplete,224,gender,3,1,right,C_F_07.jpg,C_M_15.jpg,A_F_08.jpg,left,927.0099999995437,false,low,false
uMH5ck64,3atyli1pswfm29bow6spg463876ojo,3nd9uoo81of2ps6khf0e2xs9sy7lw0,uMH5ck64,2020-0188,2020-11-17,09:15:48,09:43:47,NA,incomplete,225,gender,3,1,left,A_M_15.jpg,C_M_05.jpg,A_F_08.jpg,right,1324.914999999106,false,low,false
uMH5ck64,3atyli1pswfm29bow6spg463876ojo,3nd9uoo81of2ps6khf0e2xs9sy7lw0,uMH5ck64,2020-0188,2020-11-17,09:15:48,09:43:47,NA,incomplete,226,gender,3,0,left,A_M_02.jpg,C_M_11.jpg,A_F_05.jpg,left,1163.0550000008661,true,low,false
uMH5ck64,3atyli1pswfm29bow6spg463876ojo,3nd9uoo81of2ps6khf0e2xs9sy7lw0,uMH5ck64,2020-0188,2020-11-17,09:15:48,09:43:47,NA,incomplete,227,gender,3,1,left,C_F_05.jpg,A_F_12.jpg,C_M_04.jpg,left,908.8449999999721,true,low,false
uMH5ck64,3atyli1pswfm29bow6spg463876ojo,3nd9uoo81of2ps6khf0e2xs9sy7lw0,uMH5ck64,2020-0188,2020-11-17,09:15:48,09:43:47,NA,incomplete,228,gender,3,1,left,C_F_09.jpg,A_F_04.jpg,C_M_14.jpg,left,834.4800000013784,true,low,false
uMH5ck64,3atyli1pswfm29bow6spg463876ojo,3nd9uoo81of2ps6khf0e2xs9sy7lw0,uMH5ck64,2020-0188,2020-11-17,09:15:48,09:43:47,NA,incomplete,229,gender,3,1,right,A_F_12.jpg,A_M_09.jpg,C_F_06.jpg,right,715.3250000011176,true,low,false
uMH5ck64,3atyli1pswfm29bow6spg463876ojo,3nd9uoo81of2ps6khf0e2xs9sy7lw0,uMH5ck64,2020-0188,2020-11-17,09:15:48,09:43:47,NA,incomplete,230,gender,3,1,left,A_M_15.jpg,C_M_09.jpg,A_F_04.jpg,right,1200.2399999983609,false,low,false
uMH5ck64,3atyli1pswfm29bow6spg463876ojo,3nd9uoo81of2ps6khf0e2xs9sy7lw0,uMH5ck64,2020-0188,2020-11-17,09:15:48,09:43:47,NA,incomplete,231,gender,3,1,right,C_F_13.jpg,C_M_06.jpg,A_F_07.jpg,right,1757.5049999994226,true,low,false
uMH5ck64,3atyli1pswfm29bow6spg463876ojo,3nd9uoo81of2ps6khf0e2xs9sy7lw0,uMH5ck64,2020-0188,2020-11-17,09:15:48,09:43:47,NA,incomplete,232,gender,3,1,left,A_M_02.jpg,C_M_01.jpg,A_F_12.jpg,left,1155.5349999999162,true,low,false
uMH5ck64,3atyli1pswfm29bow6spg463876ojo,3nd9uoo81of2ps6khf0e2xs9sy7lw0,uMH5ck64,2020-0188,2020-11-17,09:15:48,09:43:47,NA,incomplete,233,gender,3,0,left,A_F_12.jpg,C_F_09.jpg,A_M_08.jpg,left,713.9900000002235,true,low,false
uMH5ck64,3atyli1pswfm29bow6spg463876ojo,3nd9uoo81of2ps6khf0e2xs9sy7lw0,uMH5ck64,2020-0188,2020-11-17,09:15:48,09:43:47,NA,incomplete,234,gender,3,1,right,A_F_14.jpg,A_M_03.jpg,C_F_10.jpg,right,832.9450000000652,true,low,false
uMH5ck64,3atyli1pswfm29bow6spg463876ojo,3nd9uoo81of2ps6khf0e2xs9sy7lw0,uMH5ck64,2020-0188,2020-11-17,09:15:48,09:43:47,NA,incomplete,235,gender,3,0,left,A_F_16.jpg,C_F_09.jpg,A_M_14.jpg,left,920.1200000005774,true,low,false
uMH5ck64,3atyli1pswfm29bow6spg463876ojo,3nd9uoo81of2ps6khf0e2xs9sy7lw0,uMH5ck64,2020-0188,2020-11-17,09:15:48,09:43:47,NA,incomplete,236,gender,3,1,right,C_M_15.jpg,C_F_01.jpg,A_M_08.jpg,right,1259.539999999106,true,low,false
uMH5ck64,3atyli1pswfm29bow6spg463876ojo,3nd9uoo81of2ps6khf0e2xs9sy7lw0,uMH5ck64,2020-0188,2020-11-17,09:15:48,09:43:47,NA,incomplete,237,gender,3,0,right,A_M_03.jpg,A_F_10.jpg,C_M_02.jpg,right,925.2350000008009,true,low,false
uMH5ck64,3atyli1pswfm29bow6spg463876ojo,3nd9uoo81of2ps6khf0e2xs9sy7lw0,uMH5ck64,2020-0188,2020-11-17,09:15:48,09:43:47,NA,incomplete,238,gender,3,1,left,C_M_08.jpg,A_M_03.jpg,C_F_10.jpg,left,963.0150000012945,true,low,false
uMH5ck64,3atyli1pswfm29bow6spg463876ojo,3nd9uoo81of2ps6khf0e2xs9sy7lw0,uMH5ck64,2020-0188,2020-11-17,09:15:48,09:43:47,NA,incomplete,239,gender,3,1,right,C_F_12.jpg,C_M_02.jpg,A_F_01.jpg,right,852.5599999993574,true,low,false
uMH5ck64,3atyli1pswfm29bow6spg463876ojo,3nd9uoo81of2ps6khf0e2xs9sy7lw0,uMH5ck64,2020-0188,2020-11-17,09:15:48,09:43:47,NA,NA,instruction example,filling,NA,NA,NA,Blue_Circle_Stripes_4.jpg,Green_Star_Stripes_3.jpg,Blue_Triangle_Dots_2.jpg,NA,NA,NA,NA,undefined
uMH5ck64,3atyli1pswfm29bow6spg463876ojo,3nd9uoo81of2ps6khf0e2xs9sy7lw0,uMH5ck64,2020-0188,2020-11-17,09:15:48,09:43:47,NA,NA,instruction example,filling,NA,NA,NA,Blue_Triangle_Grid_3.jpg,Blue_Plus_Chess_2.jpg,Green_Star_Grid_4.jpg,NA,NA,NA,NA,undefined
uMH5ck64,3atyli1pswfm29bow6spg463876ojo,3nd9uoo81of2ps6khf0e2xs9sy7lw0,uMH5ck64,2020-0188,2020-11-17,09:15:48,09:43:47,NA,NA,instruction example,filling,NA,NA,NA,C_F_01.jpg,C_M_10.jpg,A_F_08.jpg,NA,NA,NA,NA,undefined
uMH5ck64,3atyli1pswfm29bow6spg463876ojo,3nd9uoo81of2ps6khf0e2xs9sy7lw0,uMH5ck64,2020-0188,2020-11-17,09:15:48,09:43:47,NA,NA,instruction example,filling,NA,NA,NA,A_M_07.jpg,C_M_16.jpg,A_F_15.jpg,NA,NA,NA,NA,undefined
