workerId,hitId,assignmentId,subject,studyid,exp_date,exp_start,exp_end,time_start,time_end,trial,type,sequence,reward_validity,answer,image_top,image_left,image_right,response,response_time,response_acc,volatility,practice
VwnQBTtC,3r6rzgk0yip7nifkjif6ljfzh4yvyd,3njm2bjs40jj2ffdsgtk7kuq5ptcpd,VwnQBTtC,2020-0188,2020-11-16,16:29:18,16:52:03,NA,incomplete,0,number,0,1,left,Green_Plus_Grid_4.jpg,Purple_Circle_Stripes_4.jpg,Red_Star_Grid_2.jpg,left,977,true,NA,true
VwnQBTtC,3r6rzgk0yip7nifkjif6ljfzh4yvyd,3njm2bjs40jj2ffdsgtk7kuq5ptcpd,VwnQBTtC,2020-0188,2020-11-16,16:29:18,16:52:03,NA,incomplete,1,number,0,1,left,Green_Triangle_Chess_3.jpg,Red_Circle_Stripes_3.jpg,Blue_Plus_Chess_4.jpg,left,958,true,NA,true
VwnQBTtC,3r6rzgk0yip7nifkjif6ljfzh4yvyd,3njm2bjs40jj2ffdsgtk7kuq5ptcpd,VwnQBTtC,2020-0188,2020-11-16,16:29:18,16:52:03,NA,incomplete,2,number,0,1,left,Red_Plus_Grid_4.jpg,Purple_Circle_Stripes_4.jpg,Green_Star_Grid_1.jpg,left,700,true,NA,true
VwnQBTtC,3r6rzgk0yip7nifkjif6ljfzh4yvyd,3njm2bjs40jj2ffdsgtk7kuq5ptcpd,VwnQBTtC,2020-0188,2020-11-16,16:29:18,16:52:03,NA,incomplete,3,number,0,1,left,Blue_Triangle_Stripes_3.jpg,Green_Circle_Grid_3.jpg,Red_Plus_Stripes_2.jpg,left,781,true,NA,true
VwnQBTtC,3r6rzgk0yip7nifkjif6ljfzh4yvyd,3njm2bjs40jj2ffdsgtk7kuq5ptcpd,VwnQBTtC,2020-0188,2020-11-16,16:29:18,16:52:03,NA,incomplete,4,number,0,1,left,Purple_Triangle_Stripes_4.jpg,Red_Plus_Chess_4.jpg,Green_Circle_Stripes_2.jpg,left,844,true,NA,true
VwnQBTtC,3r6rzgk0yip7nifkjif6ljfzh4yvyd,3njm2bjs40jj2ffdsgtk7kuq5ptcpd,VwnQBTtC,2020-0188,2020-11-16,16:29:18,16:52:03,NA,incomplete,5,number,0,1,right,Purple_Star_Dots_3.jpg,Blue_Triangle_Dots_2.jpg,Red_Plus_Stripes_3.jpg,right,742,true,NA,true
VwnQBTtC,3r6rzgk0yip7nifkjif6ljfzh4yvyd,3njm2bjs40jj2ffdsgtk7kuq5ptcpd,VwnQBTtC,2020-0188,2020-11-16,16:29:18,16:52:03,NA,incomplete,6,number,0,1,right,Red_Star_Chess_2.jpg,Blue_Triangle_Chess_3.jpg,Purple_Plus_Stripes_2.jpg,right,919,true,NA,true
VwnQBTtC,3r6rzgk0yip7nifkjif6ljfzh4yvyd,3njm2bjs40jj2ffdsgtk7kuq5ptcpd,VwnQBTtC,2020-0188,2020-11-16,16:29:18,16:52:03,NA,incomplete,7,number,0,1,left,Blue_Circle_Dots_2.jpg,Green_Plus_Grid_2.jpg,Red_Star_Dots_3.jpg,left,822,true,NA,true
VwnQBTtC,3r6rzgk0yip7nifkjif6ljfzh4yvyd,3njm2bjs40jj2ffdsgtk7kuq5ptcpd,VwnQBTtC,2020-0188,2020-11-16,16:29:18,16:52:03,NA,incomplete,8,number,0,1,left,Red_Circle_Stripes_2.jpg,Green_Triangle_Chess_2.jpg,Purple_Plus_Stripes_1.jpg,left,882,true,NA,true
VwnQBTtC,3r6rzgk0yip7nifkjif6ljfzh4yvyd,3njm2bjs40jj2ffdsgtk7kuq5ptcpd,VwnQBTtC,2020-0188,2020-11-16,16:29:18,16:52:03,NA,incomplete,9,number,0,1,left,Blue_Circle_Grid_4.jpg,Red_Plus_Chess_4.jpg,Green_Star_Grid_2.jpg,left,787,true,NA,true
VwnQBTtC,3r6rzgk0yip7nifkjif6ljfzh4yvyd,3njm2bjs40jj2ffdsgtk7kuq5ptcpd,VwnQBTtC,2020-0188,2020-11-16,16:29:18,16:52:03,NA,incomplete,10,number,0,1,left,Purple_Circle_Chess_3.jpg,Blue_Plus_Dots_3.jpg,Red_Star_Chess_2.jpg,left,786,true,NA,true
VwnQBTtC,3r6rzgk0yip7nifkjif6ljfzh4yvyd,3njm2bjs40jj2ffdsgtk7kuq5ptcpd,VwnQBTtC,2020-0188,2020-11-16,16:29:18,16:52:03,NA,incomplete,11,number,0,1,right,Green_Plus_Dots_3.jpg,Purple_Circle_Dots_1.jpg,Blue_Star_Grid_3.jpg,right,1079,true,NA,true
VwnQBTtC,3r6rzgk0yip7nifkjif6ljfzh4yvyd,3njm2bjs40jj2ffdsgtk7kuq5ptcpd,VwnQBTtC,2020-0188,2020-11-16,16:29:18,16:52:03,NA,incomplete,12,number,0,1,left,Red_Plus_Stripes_4.jpg,Blue_Star_Chess_4.jpg,Green_Circle_Stripes_1.jpg,left,1416,true,NA,true
VwnQBTtC,3r6rzgk0yip7nifkjif6ljfzh4yvyd,3njm2bjs40jj2ffdsgtk7kuq5ptcpd,VwnQBTtC,2020-0188,2020-11-16,16:29:18,16:52:03,NA,incomplete,13,number,0,1,left,Purple_Star_Stripes_4.jpg,Blue_Triangle_Chess_4.jpg,Red_Circle_Stripes_3.jpg,left,747,true,NA,true
VwnQBTtC,3r6rzgk0yip7nifkjif6ljfzh4yvyd,3njm2bjs40jj2ffdsgtk7kuq5ptcpd,VwnQBTtC,2020-0188,2020-11-16,16:29:18,16:52:03,NA,incomplete,14,number,0,1,left,Red_Triangle_Stripes_2.jpg,Purple_Star_Chess_2.jpg,Blue_Circle_Stripes_3.jpg,left,810,true,NA,true
VwnQBTtC,3r6rzgk0yip7nifkjif6ljfzh4yvyd,3njm2bjs40jj2ffdsgtk7kuq5ptcpd,VwnQBTtC,2020-0188,2020-11-16,16:29:18,16:52:03,NA,incomplete,15,number,0,1,left,Blue_Star_Chess_1.jpg,Green_Circle_Dots_1.jpg,Purple_Triangle_Chess_4.jpg,left,783,true,NA,true
VwnQBTtC,3r6rzgk0yip7nifkjif6ljfzh4yvyd,3njm2bjs40jj2ffdsgtk7kuq5ptcpd,VwnQBTtC,2020-0188,2020-11-16,16:29:18,16:52:03,NA,incomplete,16,number,0,1,left,Green_Star_Dots_3.jpg,Purple_Plus_Grid_3.jpg,Blue_Triangle_Dots_2.jpg,left,876,true,NA,true
VwnQBTtC,3r6rzgk0yip7nifkjif6ljfzh4yvyd,3njm2bjs40jj2ffdsgtk7kuq5ptcpd,VwnQBTtC,2020-0188,2020-11-16,16:29:18,16:52:03,NA,incomplete,17,number,0,1,left,Purple_Circle_Grid_4.jpg,Red_Plus_Dots_4.jpg,Green_Triangle_Grid_1.jpg,left,1069,true,NA,true
VwnQBTtC,3r6rzgk0yip7nifkjif6ljfzh4yvyd,3njm2bjs40jj2ffdsgtk7kuq5ptcpd,VwnQBTtC,2020-0188,2020-11-16,16:29:18,16:52:03,NA,incomplete,18,number,0,0,left,Green_Triangle_Grid_3.jpg,Purple_Star_Dots_3.jpg,Blue_Circle_Grid_4.jpg,left,936,true,NA,true
VwnQBTtC,3r6rzgk0yip7nifkjif6ljfzh4yvyd,3njm2bjs40jj2ffdsgtk7kuq5ptcpd,VwnQBTtC,2020-0188,2020-11-16,16:29:18,16:52:03,NA,incomplete,19,number,0,0,right,Purple_Star_Chess_1.jpg,Blue_Plus_Chess_2.jpg,Red_Circle_Dots_1.jpg,right,1168,true,NA,true
VwnQBTtC,3r6rzgk0yip7nifkjif6ljfzh4yvyd,3njm2bjs40jj2ffdsgtk7kuq5ptcpd,VwnQBTtC,2020-0188,2020-11-16,16:29:18,16:52:03,NA,incomplete,20,filling,1,1,right,Green_Plus_Stripes_2.jpg,Red_Star_Chess_2.jpg,Purple_Circle_Stripes_3.jpg,right,1997,true,NA,true
VwnQBTtC,3r6rzgk0yip7nifkjif6ljfzh4yvyd,3njm2bjs40jj2ffdsgtk7kuq5ptcpd,VwnQBTtC,2020-0188,2020-11-16,16:29:18,16:52:03,NA,incomplete,21,filling,1,1,right,Red_Circle_Stripes_4.jpg,Green_Triangle_Chess_4.jpg,Blue_Star_Stripes_3.jpg,right,1333,true,NA,true
VwnQBTtC,3r6rzgk0yip7nifkjif6ljfzh4yvyd,3njm2bjs40jj2ffdsgtk7kuq5ptcpd,VwnQBTtC,2020-0188,2020-11-16,16:29:18,16:52:03,NA,incomplete,22,filling,1,1,left,Purple_Circle_Chess_3.jpg,Green_Star_Chess_4.jpg,Blue_Triangle_Dots_3.jpg,right,1723,false,NA,true
VwnQBTtC,3r6rzgk0yip7nifkjif6ljfzh4yvyd,3njm2bjs40jj2ffdsgtk7kuq5ptcpd,VwnQBTtC,2020-0188,2020-11-16,16:29:18,16:52:03,NA,incomplete,23,filling,1,1,right,Red_Plus_Stripes_1.jpg,Purple_Triangle_Dots_1.jpg,Green_Star_Stripes_4.jpg,right,1226,true,NA,true
VwnQBTtC,3r6rzgk0yip7nifkjif6ljfzh4yvyd,3njm2bjs40jj2ffdsgtk7kuq5ptcpd,VwnQBTtC,2020-0188,2020-11-16,16:29:18,16:52:03,NA,incomplete,24,filling,1,1,left,Red_Circle_Stripes_4.jpg,Green_Star_Stripes_1.jpg,Blue_Plus_Chess_4.jpg,left,1092,true,NA,true
VwnQBTtC,3r6rzgk0yip7nifkjif6ljfzh4yvyd,3njm2bjs40jj2ffdsgtk7kuq5ptcpd,VwnQBTtC,2020-0188,2020-11-16,16:29:18,16:52:03,NA,incomplete,25,filling,1,0,left,Red_Circle_Grid_2.jpg,Blue_Star_Grid_4.jpg,Purple_Triangle_Dots_2.jpg,right,1220,false,NA,true
VwnQBTtC,3r6rzgk0yip7nifkjif6ljfzh4yvyd,3njm2bjs40jj2ffdsgtk7kuq5ptcpd,VwnQBTtC,2020-0188,2020-11-16,16:29:18,16:52:03,NA,incomplete,26,filling,1,0,left,Green_Star_Grid_3.jpg,Red_Circle_Grid_4.jpg,Purple_Plus_Chess_3.jpg,left,919,true,NA,true
VwnQBTtC,3r6rzgk0yip7nifkjif6ljfzh4yvyd,3njm2bjs40jj2ffdsgtk7kuq5ptcpd,VwnQBTtC,2020-0188,2020-11-16,16:29:18,16:52:03,NA,incomplete,27,filling,1,1,right,Blue_Star_Chess_1.jpg,Green_Plus_Stripes_1.jpg,Red_Triangle_Chess_3.jpg,right,935,true,NA,true
VwnQBTtC,3r6rzgk0yip7nifkjif6ljfzh4yvyd,3njm2bjs40jj2ffdsgtk7kuq5ptcpd,VwnQBTtC,2020-0188,2020-11-16,16:29:18,16:52:03,NA,incomplete,28,filling,1,1,left,Red_Star_Dots_2.jpg,Purple_Triangle_Dots_4.jpg,Green_Circle_Stripes_2.jpg,left,911,true,NA,true
VwnQBTtC,3r6rzgk0yip7nifkjif6ljfzh4yvyd,3njm2bjs40jj2ffdsgtk7kuq5ptcpd,VwnQBTtC,2020-0188,2020-11-16,16:29:18,16:52:03,NA,incomplete,29,filling,1,1,left,Red_Plus_Stripes_4.jpg,Green_Triangle_Stripes_2.jpg,Blue_Circle_Chess_4.jpg,left,944,true,NA,true
VwnQBTtC,3r6rzgk0yip7nifkjif6ljfzh4yvyd,3njm2bjs40jj2ffdsgtk7kuq5ptcpd,VwnQBTtC,2020-0188,2020-11-16,16:29:18,16:52:03,NA,incomplete,30,filling,1,0,right,Green_Plus_Dots_2.jpg,Red_Circle_Chess_2.jpg,Purple_Triangle_Dots_4.jpg,right,965,true,NA,true
VwnQBTtC,3r6rzgk0yip7nifkjif6ljfzh4yvyd,3njm2bjs40jj2ffdsgtk7kuq5ptcpd,VwnQBTtC,2020-0188,2020-11-16,16:29:18,16:52:03,NA,incomplete,31,filling,1,1,right,Red_Star_Chess_4.jpg,Green_Triangle_Dots_4.jpg,Purple_Plus_Chess_1.jpg,right,1220,true,NA,true
VwnQBTtC,3r6rzgk0yip7nifkjif6ljfzh4yvyd,3njm2bjs40jj2ffdsgtk7kuq5ptcpd,VwnQBTtC,2020-0188,2020-11-16,16:29:18,16:52:03,NA,incomplete,32,filling,1,0,right,Red_Triangle_Grid_4.jpg,Green_Star_Stripes_4.jpg,Blue_Plus_Grid_1.jpg,left,1023,false,NA,true
VwnQBTtC,3r6rzgk0yip7nifkjif6ljfzh4yvyd,3njm2bjs40jj2ffdsgtk7kuq5ptcpd,VwnQBTtC,2020-0188,2020-11-16,16:29:18,16:52:03,NA,incomplete,33,filling,1,1,left,Red_Triangle_Stripes_1.jpg,Green_Star_Stripes_4.jpg,Blue_Circle_Grid_1.jpg,left,1018,true,NA,true
VwnQBTtC,3r6rzgk0yip7nifkjif6ljfzh4yvyd,3njm2bjs40jj2ffdsgtk7kuq5ptcpd,VwnQBTtC,2020-0188,2020-11-16,16:29:18,16:52:03,NA,incomplete,34,filling,1,0,left,Green_Circle_Grid_2.jpg,Red_Plus_Grid_1.jpg,Purple_Star_Chess_2.jpg,left,911,true,NA,true
VwnQBTtC,3r6rzgk0yip7nifkjif6ljfzh4yvyd,3njm2bjs40jj2ffdsgtk7kuq5ptcpd,VwnQBTtC,2020-0188,2020-11-16,16:29:18,16:52:03,NA,incomplete,35,filling,1,0,left,Red_Triangle_Grid_2.jpg,Purple_Plus_Grid_3.jpg,Blue_Circle_Chess_2.jpg,left,1046,true,NA,true
VwnQBTtC,3r6rzgk0yip7nifkjif6ljfzh4yvyd,3njm2bjs40jj2ffdsgtk7kuq5ptcpd,VwnQBTtC,2020-0188,2020-11-16,16:29:18,16:52:03,NA,incomplete,36,filling,1,1,left,Green_Plus_Dots_1.jpg,Purple_Star_Dots_2.jpg,Red_Circle_Chess_1.jpg,left,1065,true,NA,true
VwnQBTtC,3r6rzgk0yip7nifkjif6ljfzh4yvyd,3njm2bjs40jj2ffdsgtk7kuq5ptcpd,VwnQBTtC,2020-0188,2020-11-16,16:29:18,16:52:03,NA,incomplete,37,filling,1,1,left,Blue_Circle_Stripes_1.jpg,Purple_Star_Stripes_4.jpg,Red_Triangle_Chess_1.jpg,left,883,true,NA,true
VwnQBTtC,3r6rzgk0yip7nifkjif6ljfzh4yvyd,3njm2bjs40jj2ffdsgtk7kuq5ptcpd,VwnQBTtC,2020-0188,2020-11-16,16:29:18,16:52:03,NA,incomplete,38,filling,1,1,left,Blue_Triangle_Chess_4.jpg,Purple_Plus_Chess_1.jpg,Green_Star_Grid_4.jpg,left,988,true,NA,true
VwnQBTtC,3r6rzgk0yip7nifkjif6ljfzh4yvyd,3njm2bjs40jj2ffdsgtk7kuq5ptcpd,VwnQBTtC,2020-0188,2020-11-16,16:29:18,16:52:03,NA,incomplete,39,filling,1,1,left,Blue_Circle_Grid_1.jpg,Red_Triangle_Grid_2.jpg,Purple_Plus_Dots_1.jpg,left,889,true,NA,true
VwnQBTtC,3r6rzgk0yip7nifkjif6ljfzh4yvyd,3njm2bjs40jj2ffdsgtk7kuq5ptcpd,VwnQBTtC,2020-0188,2020-11-16,16:29:18,16:52:03,NA,incomplete,0,number,0,1,left,Blue_Plus_Grid_2.jpg,Red_Triangle_Dots_2.jpg,Green_Circle_Grid_3.jpg,left,1216,true,high,false
VwnQBTtC,3r6rzgk0yip7nifkjif6ljfzh4yvyd,3njm2bjs40jj2ffdsgtk7kuq5ptcpd,VwnQBTtC,2020-0188,2020-11-16,16:29:18,16:52:03,NA,incomplete,1,number,0,1,right,Red_Circle_Dots_2.jpg,Green_Plus_Dots_1.jpg,Purple_Triangle_Stripes_2.jpg,left,1179,false,high,false
VwnQBTtC,3r6rzgk0yip7nifkjif6ljfzh4yvyd,3njm2bjs40jj2ffdsgtk7kuq5ptcpd,VwnQBTtC,2020-0188,2020-11-16,16:29:18,16:52:03,NA,incomplete,2,number,0,1,left,Purple_Plus_Chess_3.jpg,Red_Circle_Dots_3.jpg,Green_Triangle_Chess_2.jpg,left,1105,true,high,false
VwnQBTtC,3r6rzgk0yip7nifkjif6ljfzh4yvyd,3njm2bjs40jj2ffdsgtk7kuq5ptcpd,VwnQBTtC,2020-0188,2020-11-16,16:29:18,16:52:03,NA,incomplete,3,number,0,1,right,Blue_Circle_Dots_4.jpg,Green_Star_Dots_2.jpg,Red_Plus_Stripes_4.jpg,right,902,true,high,false
VwnQBTtC,3r6rzgk0yip7nifkjif6ljfzh4yvyd,3njm2bjs40jj2ffdsgtk7kuq5ptcpd,VwnQBTtC,2020-0188,2020-11-16,16:29:18,16:52:03,NA,incomplete,4,number,0,1,left,Purple_Plus_Stripes_1.jpg,Red_Triangle_Grid_1.jpg,Green_Star_Stripes_4.jpg,right,664,false,high,false
VwnQBTtC,3r6rzgk0yip7nifkjif6ljfzh4yvyd,3njm2bjs40jj2ffdsgtk7kuq5ptcpd,VwnQBTtC,2020-0188,2020-11-16,16:29:18,16:52:03,NA,incomplete,5,number,0,1,right,Green_Circle_Stripes_3.jpg,Purple_Plus_Stripes_4.jpg,Blue_Triangle_Dots_3.jpg,none,0,false,high,false
VwnQBTtC,3r6rzgk0yip7nifkjif6ljfzh4yvyd,3njm2bjs40jj2ffdsgtk7kuq5ptcpd,VwnQBTtC,2020-0188,2020-11-16,16:29:18,16:52:03,NA,incomplete,6,number,0,1,left,Blue_Triangle_Chess_1.jpg,Green_Star_Dots_1.jpg,Red_Plus_Chess_4.jpg,left,905,true,high,false
VwnQBTtC,3r6rzgk0yip7nifkjif6ljfzh4yvyd,3njm2bjs40jj2ffdsgtk7kuq5ptcpd,VwnQBTtC,2020-0188,2020-11-16,16:29:18,16:52:03,NA,incomplete,7,number,0,1,left,Green_Star_Stripes_3.jpg,Blue_Circle_Chess_3.jpg,Red_Triangle_Stripes_2.jpg,left,849,true,high,false
VwnQBTtC,3r6rzgk0yip7nifkjif6ljfzh4yvyd,3njm2bjs40jj2ffdsgtk7kuq5ptcpd,VwnQBTtC,2020-0188,2020-11-16,16:29:18,16:52:03,NA,incomplete,8,number,0,1,right,Purple_Star_Stripes_3.jpg,Red_Triangle_Stripes_1.jpg,Blue_Plus_Grid_3.jpg,right,749,true,high,false
VwnQBTtC,3r6rzgk0yip7nifkjif6ljfzh4yvyd,3njm2bjs40jj2ffdsgtk7kuq5ptcpd,VwnQBTtC,2020-0188,2020-11-16,16:29:18,16:52:03,NA,incomplete,9,number,0,1,left,Green_Triangle_Grid_3.jpg,Purple_Circle_Dots_3.jpg,Blue_Star_Grid_1.jpg,left,676,true,high,false
VwnQBTtC,3r6rzgk0yip7nifkjif6ljfzh4yvyd,3njm2bjs40jj2ffdsgtk7kuq5ptcpd,VwnQBTtC,2020-0188,2020-11-16,16:29:18,16:52:03,NA,incomplete,10,filling,1,1,left,Red_Triangle_Stripes_3.jpg,Green_Circle_Stripes_1.jpg,Purple_Plus_Dots_3.jpg,left,1222,true,high,false
VwnQBTtC,3r6rzgk0yip7nifkjif6ljfzh4yvyd,3njm2bjs40jj2ffdsgtk7kuq5ptcpd,VwnQBTtC,2020-0188,2020-11-16,16:29:18,16:52:03,NA,incomplete,11,filling,1,1,right,Blue_Triangle_Dots_4.jpg,Red_Plus_Stripes_4.jpg,Green_Star_Dots_2.jpg,left,721,false,high,false
VwnQBTtC,3r6rzgk0yip7nifkjif6ljfzh4yvyd,3njm2bjs40jj2ffdsgtk7kuq5ptcpd,VwnQBTtC,2020-0188,2020-11-16,16:29:18,16:52:03,NA,incomplete,12,filling,1,0,right,Red_Circle_Stripes_4.jpg,Blue_Triangle_Dots_4.jpg,Green_Plus_Stripes_2.jpg,left,705,false,high,false
VwnQBTtC,3r6rzgk0yip7nifkjif6ljfzh4yvyd,3njm2bjs40jj2ffdsgtk7kuq5ptcpd,VwnQBTtC,2020-0188,2020-11-16,16:29:18,16:52:03,NA,incomplete,13,filling,1,0,left,Purple_Triangle_Stripes_3.jpg,Blue_Star_Stripes_4.jpg,Red_Circle_Chess_3.jpg,right,737,false,high,false
VwnQBTtC,3r6rzgk0yip7nifkjif6ljfzh4yvyd,3njm2bjs40jj2ffdsgtk7kuq5ptcpd,VwnQBTtC,2020-0188,2020-11-16,16:29:18,16:52:03,NA,incomplete,14,filling,1,1,left,Blue_Star_Chess_4.jpg,Green_Circle_Chess_2.jpg,Purple_Triangle_Stripes_4.jpg,right,785,false,high,false
VwnQBTtC,3r6rzgk0yip7nifkjif6ljfzh4yvyd,3njm2bjs40jj2ffdsgtk7kuq5ptcpd,VwnQBTtC,2020-0188,2020-11-16,16:29:18,16:52:03,NA,incomplete,15,filling,1,0,left,Red_Triangle_Dots_2.jpg,Purple_Circle_Dots_1.jpg,Green_Plus_Stripes_2.jpg,right,825,false,high,false
VwnQBTtC,3r6rzgk0yip7nifkjif6ljfzh4yvyd,3njm2bjs40jj2ffdsgtk7kuq5ptcpd,VwnQBTtC,2020-0188,2020-11-16,16:29:18,16:52:03,NA,incomplete,16,filling,1,1,left,Purple_Triangle_Dots_2.jpg,Red_Plus_Dots_1.jpg,Green_Star_Stripes_2.jpg,right,1340,false,high,false
VwnQBTtC,3r6rzgk0yip7nifkjif6ljfzh4yvyd,3njm2bjs40jj2ffdsgtk7kuq5ptcpd,VwnQBTtC,2020-0188,2020-11-16,16:29:18,16:52:03,NA,incomplete,17,filling,1,1,left,Red_Circle_Chess_3.jpg,Blue_Plus_Chess_1.jpg,Purple_Star_Dots_3.jpg,right,770,false,high,false
VwnQBTtC,3r6rzgk0yip7nifkjif6ljfzh4yvyd,3njm2bjs40jj2ffdsgtk7kuq5ptcpd,VwnQBTtC,2020-0188,2020-11-16,16:29:18,16:52:03,NA,incomplete,18,filling,1,1,left,Green_Triangle_Chess_3.jpg,Blue_Star_Chess_4.jpg,Purple_Circle_Stripes_3.jpg,left,839,true,high,false
VwnQBTtC,3r6rzgk0yip7nifkjif6ljfzh4yvyd,3njm2bjs40jj2ffdsgtk7kuq5ptcpd,VwnQBTtC,2020-0188,2020-11-16,16:29:18,16:52:03,NA,incomplete,19,filling,1,1,right,Red_Plus_Stripes_4.jpg,Purple_Star_Grid_4.jpg,Blue_Circle_Stripes_1.jpg,right,1114,true,high,false
VwnQBTtC,3r6rzgk0yip7nifkjif6ljfzh4yvyd,3njm2bjs40jj2ffdsgtk7kuq5ptcpd,VwnQBTtC,2020-0188,2020-11-16,16:29:18,16:52:03,NA,incomplete,20,number,0,1,right,Green_Circle_Grid_2.jpg,Red_Star_Grid_1.jpg,Blue_Triangle_Chess_2.jpg,left,937,false,high,false
VwnQBTtC,3r6rzgk0yip7nifkjif6ljfzh4yvyd,3njm2bjs40jj2ffdsgtk7kuq5ptcpd,VwnQBTtC,2020-0188,2020-11-16,16:29:18,16:52:03,NA,incomplete,21,number,0,1,right,Blue_Plus_Dots_2.jpg,Purple_Circle_Dots_1.jpg,Green_Star_Grid_2.jpg,left,816,false,high,false
VwnQBTtC,3r6rzgk0yip7nifkjif6ljfzh4yvyd,3njm2bjs40jj2ffdsgtk7kuq5ptcpd,VwnQBTtC,2020-0188,2020-11-16,16:29:18,16:52:03,NA,incomplete,22,number,0,1,right,Blue_Plus_Grid_4.jpg,Purple_Triangle_Grid_1.jpg,Green_Circle_Dots_4.jpg,left,1029,false,high,false
VwnQBTtC,3r6rzgk0yip7nifkjif6ljfzh4yvyd,3njm2bjs40jj2ffdsgtk7kuq5ptcpd,VwnQBTtC,2020-0188,2020-11-16,16:29:18,16:52:03,NA,incomplete,23,number,0,0,left,Blue_Plus_Dots_3.jpg,Green_Triangle_Chess_3.jpg,Purple_Star_Dots_2.jpg,right,888,false,high,false
VwnQBTtC,3r6rzgk0yip7nifkjif6ljfzh4yvyd,3njm2bjs40jj2ffdsgtk7kuq5ptcpd,VwnQBTtC,2020-0188,2020-11-16,16:29:18,16:52:03,NA,incomplete,24,number,0,0,right,Green_Circle_Grid_4.jpg,Purple_Plus_Grid_3.jpg,Blue_Triangle_Dots_4.jpg,right,1057,true,high,false
VwnQBTtC,3r6rzgk0yip7nifkjif6ljfzh4yvyd,3njm2bjs40jj2ffdsgtk7kuq5ptcpd,VwnQBTtC,2020-0188,2020-11-16,16:29:18,16:52:03,NA,incomplete,25,number,0,0,left,Green_Triangle_Dots_2.jpg,Red_Plus_Stripes_2.jpg,Blue_Star_Dots_3.jpg,right,1091,false,high,false
VwnQBTtC,3r6rzgk0yip7nifkjif6ljfzh4yvyd,3njm2bjs40jj2ffdsgtk7kuq5ptcpd,VwnQBTtC,2020-0188,2020-11-16,16:29:18,16:52:03,NA,incomplete,26,number,0,1,right,Red_Star_Grid_2.jpg,Green_Circle_Grid_1.jpg,Purple_Plus_Chess_2.jpg,left,1084,false,high,false
VwnQBTtC,3r6rzgk0yip7nifkjif6ljfzh4yvyd,3njm2bjs40jj2ffdsgtk7kuq5ptcpd,VwnQBTtC,2020-0188,2020-11-16,16:29:18,16:52:03,NA,incomplete,27,number,0,1,right,Green_Triangle_Dots_2.jpg,Purple_Star_Dots_4.jpg,Red_Plus_Grid_2.jpg,left,1076,false,high,false
VwnQBTtC,3r6rzgk0yip7nifkjif6ljfzh4yvyd,3njm2bjs40jj2ffdsgtk7kuq5ptcpd,VwnQBTtC,2020-0188,2020-11-16,16:29:18,16:52:03,NA,incomplete,28,number,0,1,right,Green_Triangle_Dots_1.jpg,Blue_Star_Dots_4.jpg,Red_Plus_Stripes_1.jpg,right,982,true,high,false
VwnQBTtC,3r6rzgk0yip7nifkjif6ljfzh4yvyd,3njm2bjs40jj2ffdsgtk7kuq5ptcpd,VwnQBTtC,2020-0188,2020-11-16,16:29:18,16:52:03,NA,incomplete,29,number,0,1,left,Purple_Plus_Stripes_3.jpg,Red_Triangle_Dots_3.jpg,Blue_Star_Stripes_1.jpg,left,763,true,high,false
VwnQBTtC,3r6rzgk0yip7nifkjif6ljfzh4yvyd,3njm2bjs40jj2ffdsgtk7kuq5ptcpd,VwnQBTtC,2020-0188,2020-11-16,16:29:18,16:52:03,NA,incomplete,30,filling,1,0,right,Blue_Plus_Grid_2.jpg,Red_Circle_Stripes_2.jpg,Green_Star_Grid_1.jpg,left,778,false,high,false
VwnQBTtC,3r6rzgk0yip7nifkjif6ljfzh4yvyd,3njm2bjs40jj2ffdsgtk7kuq5ptcpd,VwnQBTtC,2020-0188,2020-11-16,16:29:18,16:52:03,NA,incomplete,31,filling,1,1,right,Red_Circle_Stripes_4.jpg,Green_Plus_Grid_4.jpg,Blue_Star_Stripes_1.jpg,left,712,false,high,false
VwnQBTtC,3r6rzgk0yip7nifkjif6ljfzh4yvyd,3njm2bjs40jj2ffdsgtk7kuq5ptcpd,VwnQBTtC,2020-0188,2020-11-16,16:29:18,16:52:03,NA,incomplete,32,filling,1,1,left,Blue_Star_Stripes_2.jpg,Red_Circle_Stripes_3.jpg,Purple_Plus_Chess_2.jpg,right,776,false,high,false
VwnQBTtC,3r6rzgk0yip7nifkjif6ljfzh4yvyd,3njm2bjs40jj2ffdsgtk7kuq5ptcpd,VwnQBTtC,2020-0188,2020-11-16,16:29:18,16:52:03,NA,incomplete,33,filling,1,0,right,Blue_Star_Stripes_1.jpg,Purple_Plus_Dots_1.jpg,Red_Triangle_Stripes_3.jpg,left,849,false,high,false
VwnQBTtC,3r6rzgk0yip7nifkjif6ljfzh4yvyd,3njm2bjs40jj2ffdsgtk7kuq5ptcpd,VwnQBTtC,2020-0188,2020-11-16,16:29:18,16:52:03,NA,incomplete,34,filling,1,1,left,Blue_Star_Stripes_4.jpg,Red_Triangle_Stripes_1.jpg,Green_Plus_Dots_4.jpg,right,802,false,high,false
VwnQBTtC,3r6rzgk0yip7nifkjif6ljfzh4yvyd,3njm2bjs40jj2ffdsgtk7kuq5ptcpd,VwnQBTtC,2020-0188,2020-11-16,16:29:18,16:52:03,NA,incomplete,35,filling,1,1,left,Purple_Plus_Chess_4.jpg,Red_Triangle_Chess_2.jpg,Blue_Star_Dots_4.jpg,right,854,false,high,false
VwnQBTtC,3r6rzgk0yip7nifkjif6ljfzh4yvyd,3njm2bjs40jj2ffdsgtk7kuq5ptcpd,VwnQBTtC,2020-0188,2020-11-16,16:29:18,16:52:03,NA,incomplete,36,filling,1,0,right,Red_Triangle_Dots_1.jpg,Blue_Circle_Grid_1.jpg,Purple_Plus_Dots_3.jpg,left,744,false,high,false
VwnQBTtC,3r6rzgk0yip7nifkjif6ljfzh4yvyd,3njm2bjs40jj2ffdsgtk7kuq5ptcpd,VwnQBTtC,2020-0188,2020-11-16,16:29:18,16:52:03,NA,incomplete,37,filling,1,1,left,Green_Plus_Chess_2.jpg,Purple_Circle_Chess_4.jpg,Blue_Triangle_Grid_2.jpg,right,697,false,high,false
VwnQBTtC,3r6rzgk0yip7nifkjif6ljfzh4yvyd,3njm2bjs40jj2ffdsgtk7kuq5ptcpd,VwnQBTtC,2020-0188,2020-11-16,16:29:18,16:52:03,NA,incomplete,38,filling,1,1,right,Blue_Circle_Chess_2.jpg,Purple_Triangle_Stripes_2.jpg,Green_Plus_Chess_3.jpg,right,962,true,high,false
VwnQBTtC,3r6rzgk0yip7nifkjif6ljfzh4yvyd,3njm2bjs40jj2ffdsgtk7kuq5ptcpd,VwnQBTtC,2020-0188,2020-11-16,16:29:18,16:52:03,NA,incomplete,39,filling,1,0,right,Blue_Star_Stripes_3.jpg,Purple_Circle_Grid_3.jpg,Red_Plus_Stripes_2.jpg,left,832,false,high,false
VwnQBTtC,3r6rzgk0yip7nifkjif6ljfzh4yvyd,3njm2bjs40jj2ffdsgtk7kuq5ptcpd,VwnQBTtC,2020-0188,2020-11-16,16:29:18,16:52:03,NA,incomplete,40,number,0,1,left,Red_Plus_Dots_2.jpg,Green_Triangle_Grid_2.jpg,Purple_Circle_Dots_1.jpg,right,946,false,high,false
VwnQBTtC,3r6rzgk0yip7nifkjif6ljfzh4yvyd,3njm2bjs40jj2ffdsgtk7kuq5ptcpd,VwnQBTtC,2020-0188,2020-11-16,16:29:18,16:52:03,NA,incomplete,41,number,0,1,right,Purple_Star_Stripes_1.jpg,Blue_Plus_Stripes_4.jpg,Red_Circle_Chess_1.jpg,left,899,false,high,false
VwnQBTtC,3r6rzgk0yip7nifkjif6ljfzh4yvyd,3njm2bjs40jj2ffdsgtk7kuq5ptcpd,VwnQBTtC,2020-0188,2020-11-16,16:29:18,16:52:03,NA,incomplete,42,number,0,1,right,Blue_Triangle_Stripes_1.jpg,Red_Plus_Stripes_3.jpg,Purple_Circle_Grid_1.jpg,right,675,true,high,false
VwnQBTtC,3r6rzgk0yip7nifkjif6ljfzh4yvyd,3njm2bjs40jj2ffdsgtk7kuq5ptcpd,VwnQBTtC,2020-0188,2020-11-16,16:29:18,16:52:03,NA,incomplete,43,number,0,1,right,Green_Star_Chess_1.jpg,Blue_Triangle_Chess_3.jpg,Purple_Plus_Dots_1.jpg,right,886,true,high,false
VwnQBTtC,3r6rzgk0yip7nifkjif6ljfzh4yvyd,3njm2bjs40jj2ffdsgtk7kuq5ptcpd,VwnQBTtC,2020-0188,2020-11-16,16:29:18,16:52:03,NA,incomplete,44,number,0,0,right,Purple_Plus_Chess_3.jpg,Red_Triangle_Chess_4.jpg,Green_Star_Dots_3.jpg,right,784,true,high,false
VwnQBTtC,3r6rzgk0yip7nifkjif6ljfzh4yvyd,3njm2bjs40jj2ffdsgtk7kuq5ptcpd,VwnQBTtC,2020-0188,2020-11-16,16:29:18,16:52:03,NA,incomplete,45,number,0,0,right,Red_Circle_Dots_3.jpg,Green_Plus_Dots_1.jpg,Blue_Triangle_Grid_3.jpg,right,661,true,high,false
VwnQBTtC,3r6rzgk0yip7nifkjif6ljfzh4yvyd,3njm2bjs40jj2ffdsgtk7kuq5ptcpd,VwnQBTtC,2020-0188,2020-11-16,16:29:18,16:52:03,NA,incomplete,46,number,0,0,right,Purple_Star_Stripes_1.jpg,Red_Plus_Stripes_4.jpg,Green_Circle_Chess_1.jpg,left,871,false,high,false
VwnQBTtC,3r6rzgk0yip7nifkjif6ljfzh4yvyd,3njm2bjs40jj2ffdsgtk7kuq5ptcpd,VwnQBTtC,2020-0188,2020-11-16,16:29:18,16:52:03,NA,incomplete,47,number,0,1,right,Blue_Plus_Chess_1.jpg,Purple_Triangle_Chess_2.jpg,Green_Circle_Grid_1.jpg,left,1026,false,high,false
VwnQBTtC,3r6rzgk0yip7nifkjif6ljfzh4yvyd,3njm2bjs40jj2ffdsgtk7kuq5ptcpd,VwnQBTtC,2020-0188,2020-11-16,16:29:18,16:52:03,NA,incomplete,48,number,0,1,left,Blue_Plus_Dots_4.jpg,Purple_Triangle_Stripes_4.jpg,Green_Star_Dots_2.jpg,right,1029,false,high,false
VwnQBTtC,3r6rzgk0yip7nifkjif6ljfzh4yvyd,3njm2bjs40jj2ffdsgtk7kuq5ptcpd,VwnQBTtC,2020-0188,2020-11-16,16:29:18,16:52:03,NA,incomplete,49,number,0,1,left,Purple_Circle_Chess_1.jpg,Green_Plus_Grid_1.jpg,Blue_Triangle_Chess_4.jpg,left,751,true,high,false
VwnQBTtC,3r6rzgk0yip7nifkjif6ljfzh4yvyd,3njm2bjs40jj2ffdsgtk7kuq5ptcpd,VwnQBTtC,2020-0188,2020-11-16,16:29:18,16:52:03,NA,incomplete,50,filling,1,1,left,Red_Triangle_Grid_4.jpg,Blue_Plus_Grid_3.jpg,Green_Circle_Chess_4.jpg,left,927,true,high,false
VwnQBTtC,3r6rzgk0yip7nifkjif6ljfzh4yvyd,3njm2bjs40jj2ffdsgtk7kuq5ptcpd,VwnQBTtC,2020-0188,2020-11-16,16:29:18,16:52:03,NA,incomplete,51,filling,1,1,left,Blue_Star_Dots_1.jpg,Red_Plus_Dots_3.jpg,Purple_Triangle_Chess_1.jpg,right,959,false,high,false
VwnQBTtC,3r6rzgk0yip7nifkjif6ljfzh4yvyd,3njm2bjs40jj2ffdsgtk7kuq5ptcpd,VwnQBTtC,2020-0188,2020-11-16,16:29:18,16:52:03,NA,incomplete,52,filling,1,1,left,Green_Plus_Grid_1.jpg,Blue_Star_Grid_2.jpg,Red_Triangle_Dots_1.jpg,left,852,true,high,false
VwnQBTtC,3r6rzgk0yip7nifkjif6ljfzh4yvyd,3njm2bjs40jj2ffdsgtk7kuq5ptcpd,VwnQBTtC,2020-0188,2020-11-16,16:29:18,16:52:03,NA,incomplete,53,filling,1,1,left,Green_Circle_Grid_3.jpg,Red_Triangle_Grid_1.jpg,Purple_Star_Chess_3.jpg,left,1087,true,high,false
VwnQBTtC,3r6rzgk0yip7nifkjif6ljfzh4yvyd,3njm2bjs40jj2ffdsgtk7kuq5ptcpd,VwnQBTtC,2020-0188,2020-11-16,16:29:18,16:52:03,NA,incomplete,54,filling,1,1,right,Green_Plus_Grid_1.jpg,Purple_Triangle_Stripes_1.jpg,Blue_Circle_Grid_3.jpg,left,1096,false,high,false
VwnQBTtC,3r6rzgk0yip7nifkjif6ljfzh4yvyd,3njm2bjs40jj2ffdsgtk7kuq5ptcpd,VwnQBTtC,2020-0188,2020-11-16,16:29:18,16:52:03,NA,incomplete,55,filling,1,1,right,Blue_Circle_Chess_1.jpg,Purple_Triangle_Dots_1.jpg,Green_Plus_Chess_4.jpg,right,1065,true,high,false
VwnQBTtC,3r6rzgk0yip7nifkjif6ljfzh4yvyd,3njm2bjs40jj2ffdsgtk7kuq5ptcpd,VwnQBTtC,2020-0188,2020-11-16,16:29:18,16:52:03,NA,incomplete,56,filling,1,1,right,Green_Star_Grid_1.jpg,Purple_Plus_Dots_1.jpg,Red_Circle_Grid_2.jpg,right,1017,true,high,false
VwnQBTtC,3r6rzgk0yip7nifkjif6ljfzh4yvyd,3njm2bjs40jj2ffdsgtk7kuq5ptcpd,VwnQBTtC,2020-0188,2020-11-16,16:29:18,16:52:03,NA,incomplete,57,filling,1,0,right,Purple_Plus_Stripes_2.jpg,Red_Triangle_Grid_2.jpg,Blue_Circle_Stripes_4.jpg,left,949,false,high,false
VwnQBTtC,3r6rzgk0yip7nifkjif6ljfzh4yvyd,3njm2bjs40jj2ffdsgtk7kuq5ptcpd,VwnQBTtC,2020-0188,2020-11-16,16:29:18,16:52:03,NA,incomplete,58,filling,1,0,right,Blue_Plus_Grid_3.jpg,Purple_Triangle_Chess_3.jpg,Red_Circle_Grid_4.jpg,left,899,false,high,false
VwnQBTtC,3r6rzgk0yip7nifkjif6ljfzh4yvyd,3njm2bjs40jj2ffdsgtk7kuq5ptcpd,VwnQBTtC,2020-0188,2020-11-16,16:29:18,16:52:03,NA,incomplete,59,filling,1,1,left,Blue_Circle_Stripes_4.jpg,Green_Star_Stripes_3.jpg,Purple_Plus_Grid_4.jpg,right,669,false,high,false
VwnQBTtC,3r6rzgk0yip7nifkjif6ljfzh4yvyd,3njm2bjs40jj2ffdsgtk7kuq5ptcpd,VwnQBTtC,2020-0188,2020-11-16,16:29:18,16:52:03,NA,incomplete,60,number,0,0,left,Purple_Star_Grid_2.jpg,Red_Plus_Dots_2.jpg,Blue_Triangle_Grid_4.jpg,left,888,true,high,false
VwnQBTtC,3r6rzgk0yip7nifkjif6ljfzh4yvyd,3njm2bjs40jj2ffdsgtk7kuq5ptcpd,VwnQBTtC,2020-0188,2020-11-16,16:29:18,16:52:03,NA,incomplete,61,number,0,1,right,Purple_Triangle_Stripes_4.jpg,Green_Circle_Stripes_1.jpg,Blue_Plus_Chess_4.jpg,left,1033,false,high,false
VwnQBTtC,3r6rzgk0yip7nifkjif6ljfzh4yvyd,3njm2bjs40jj2ffdsgtk7kuq5ptcpd,VwnQBTtC,2020-0188,2020-11-16,16:29:18,16:52:03,NA,incomplete,62,number,0,1,left,Purple_Star_Chess_2.jpg,Blue_Triangle_Dots_2.jpg,Red_Circle_Chess_1.jpg,right,963,false,high,false
VwnQBTtC,3r6rzgk0yip7nifkjif6ljfzh4yvyd,3njm2bjs40jj2ffdsgtk7kuq5ptcpd,VwnQBTtC,2020-0188,2020-11-16,16:29:18,16:52:03,NA,incomplete,63,number,0,1,right,Red_Plus_Dots_2.jpg,Blue_Triangle_Dots_4.jpg,Purple_Circle_Stripes_2.jpg,left,1026,false,high,false
VwnQBTtC,3r6rzgk0yip7nifkjif6ljfzh4yvyd,3njm2bjs40jj2ffdsgtk7kuq5ptcpd,VwnQBTtC,2020-0188,2020-11-16,16:29:18,16:52:03,NA,incomplete,64,number,0,1,right,Purple_Circle_Chess_2.jpg,Blue_Star_Chess_3.jpg,Red_Triangle_Dots_2.jpg,right,692,true,high,false
VwnQBTtC,3r6rzgk0yip7nifkjif6ljfzh4yvyd,3njm2bjs40jj2ffdsgtk7kuq5ptcpd,VwnQBTtC,2020-0188,2020-11-16,16:29:18,16:52:03,NA,incomplete,65,number,0,1,left,Blue_Star_Grid_3.jpg,Green_Circle_Stripes_3.jpg,Red_Plus_Grid_4.jpg,left,831,true,high,false
VwnQBTtC,3r6rzgk0yip7nifkjif6ljfzh4yvyd,3njm2bjs40jj2ffdsgtk7kuq5ptcpd,VwnQBTtC,2020-0188,2020-11-16,16:29:18,16:52:03,NA,incomplete,66,number,0,1,left,Blue_Circle_Grid_2.jpg,Green_Star_Dots_2.jpg,Purple_Plus_Grid_4.jpg,left,834,true,high,false
VwnQBTtC,3r6rzgk0yip7nifkjif6ljfzh4yvyd,3njm2bjs40jj2ffdsgtk7kuq5ptcpd,VwnQBTtC,2020-0188,2020-11-16,16:29:18,16:52:03,NA,incomplete,67,number,0,1,left,Purple_Star_Dots_2.jpg,Green_Triangle_Chess_2.jpg,Blue_Circle_Dots_1.jpg,right,1037,false,high,false
VwnQBTtC,3r6rzgk0yip7nifkjif6ljfzh4yvyd,3njm2bjs40jj2ffdsgtk7kuq5ptcpd,VwnQBTtC,2020-0188,2020-11-16,16:29:18,16:52:03,NA,incomplete,68,number,0,0,right,Red_Plus_Dots_1.jpg,Green_Triangle_Dots_2.jpg,Purple_Circle_Stripes_1.jpg,left,881,false,high,false
VwnQBTtC,3r6rzgk0yip7nifkjif6ljfzh4yvyd,3njm2bjs40jj2ffdsgtk7kuq5ptcpd,VwnQBTtC,2020-0188,2020-11-16,16:29:18,16:52:03,NA,incomplete,69,number,0,1,right,Purple_Star_Chess_2.jpg,Blue_Circle_Chess_3.jpg,Green_Triangle_Stripes_2.jpg,left,907,false,high,false
VwnQBTtC,3r6rzgk0yip7nifkjif6ljfzh4yvyd,3njm2bjs40jj2ffdsgtk7kuq5ptcpd,VwnQBTtC,2020-0188,2020-11-16,16:29:18,16:52:03,NA,incomplete,70,filling,1,1,right,Red_Triangle_Grid_3.jpg,Blue_Plus_Stripes_3.jpg,Green_Star_Grid_4.jpg,left,834,false,high,false
VwnQBTtC,3r6rzgk0yip7nifkjif6ljfzh4yvyd,3njm2bjs40jj2ffdsgtk7kuq5ptcpd,VwnQBTtC,2020-0188,2020-11-16,16:29:18,16:52:03,NA,incomplete,71,filling,1,0,left,Purple_Plus_Grid_2.jpg,Green_Circle_Grid_4.jpg,Blue_Star_Dots_2.jpg,right,1141,false,high,false
VwnQBTtC,3r6rzgk0yip7nifkjif6ljfzh4yvyd,3njm2bjs40jj2ffdsgtk7kuq5ptcpd,VwnQBTtC,2020-0188,2020-11-16,16:29:18,16:52:03,NA,incomplete,72,filling,1,1,left,Purple_Triangle_Stripes_4.jpg,Blue_Circle_Stripes_1.jpg,Red_Plus_Grid_4.jpg,left,853,true,high,false
VwnQBTtC,3r6rzgk0yip7nifkjif6ljfzh4yvyd,3njm2bjs40jj2ffdsgtk7kuq5ptcpd,VwnQBTtC,2020-0188,2020-11-16,16:29:18,16:52:03,NA,incomplete,73,filling,1,1,left,Purple_Plus_Stripes_2.jpg,Green_Star_Stripes_4.jpg,Blue_Circle_Grid_2.jpg,left,1135,true,high,false
VwnQBTtC,3r6rzgk0yip7nifkjif6ljfzh4yvyd,3njm2bjs40jj2ffdsgtk7kuq5ptcpd,VwnQBTtC,2020-0188,2020-11-16,16:29:18,16:52:03,NA,incomplete,74,filling,1,1,left,Blue_Star_Stripes_4.jpg,Green_Plus_Stripes_3.jpg,Purple_Triangle_Dots_4.jpg,left,1070,true,high,false
VwnQBTtC,3r6rzgk0yip7nifkjif6ljfzh4yvyd,3njm2bjs40jj2ffdsgtk7kuq5ptcpd,VwnQBTtC,2020-0188,2020-11-16,16:29:18,16:52:03,NA,incomplete,75,filling,1,1,right,Purple_Star_Grid_4.jpg,Red_Triangle_Dots_4.jpg,Green_Circle_Grid_3.jpg,right,1183,true,high,false
VwnQBTtC,3r6rzgk0yip7nifkjif6ljfzh4yvyd,3njm2bjs40jj2ffdsgtk7kuq5ptcpd,VwnQBTtC,2020-0188,2020-11-16,16:29:18,16:52:03,NA,incomplete,76,filling,1,1,left,Blue_Plus_Stripes_3.jpg,Red_Star_Stripes_2.jpg,Green_Circle_Dots_3.jpg,left,1300,true,high,false
VwnQBTtC,3r6rzgk0yip7nifkjif6ljfzh4yvyd,3njm2bjs40jj2ffdsgtk7kuq5ptcpd,VwnQBTtC,2020-0188,2020-11-16,16:29:18,16:52:03,NA,incomplete,77,filling,1,0,right,Blue_Plus_Chess_2.jpg,Green_Star_Grid_2.jpg,Purple_Triangle_Chess_3.jpg,right,1067,true,high,false
VwnQBTtC,3r6rzgk0yip7nifkjif6ljfzh4yvyd,3njm2bjs40jj2ffdsgtk7kuq5ptcpd,VwnQBTtC,2020-0188,2020-11-16,16:29:18,16:52:03,NA,incomplete,78,filling,1,0,right,Purple_Star_Grid_1.jpg,Green_Circle_Chess_1.jpg,Blue_Plus_Grid_2.jpg,right,1109,true,high,false
VwnQBTtC,3r6rzgk0yip7nifkjif6ljfzh4yvyd,3njm2bjs40jj2ffdsgtk7kuq5ptcpd,VwnQBTtC,2020-0188,2020-11-16,16:29:18,16:52:03,NA,incomplete,79,filling,1,1,left,Blue_Circle_Chess_2.jpg,Purple_Star_Chess_1.jpg,Red_Triangle_Grid_2.jpg,right,973,false,high,false
VwnQBTtC,3r6rzgk0yip7nifkjif6ljfzh4yvyd,3njm2bjs40jj2ffdsgtk7kuq5ptcpd,VwnQBTtC,2020-0188,2020-11-16,16:29:18,16:52:03,NA,incomplete,80,number,0,1,left,Green_Plus_Chess_1.jpg,Red_Triangle_Dots_1.jpg,Purple_Circle_Chess_2.jpg,left,737,true,high,false
VwnQBTtC,3r6rzgk0yip7nifkjif6ljfzh4yvyd,3njm2bjs40jj2ffdsgtk7kuq5ptcpd,VwnQBTtC,2020-0188,2020-11-16,16:29:18,16:52:03,NA,incomplete,81,number,0,1,left,Green_Triangle_Dots_3.jpg,Purple_Star_Chess_3.jpg,Blue_Circle_Dots_2.jpg,left,849,true,high,false
VwnQBTtC,3r6rzgk0yip7nifkjif6ljfzh4yvyd,3njm2bjs40jj2ffdsgtk7kuq5ptcpd,VwnQBTtC,2020-0188,2020-11-16,16:29:18,16:52:03,NA,incomplete,82,number,0,0,right,Blue_Circle_Stripes_4.jpg,Green_Star_Stripes_1.jpg,Purple_Plus_Grid_4.jpg,right,943,true,high,false
VwnQBTtC,3r6rzgk0yip7nifkjif6ljfzh4yvyd,3njm2bjs40jj2ffdsgtk7kuq5ptcpd,VwnQBTtC,2020-0188,2020-11-16,16:29:18,16:52:03,NA,incomplete,83,number,0,1,right,Blue_Circle_Stripes_2.jpg,Purple_Triangle_Stripes_3.jpg,Green_Plus_Chess_2.jpg,right,1139,true,high,false
VwnQBTtC,3r6rzgk0yip7nifkjif6ljfzh4yvyd,3njm2bjs40jj2ffdsgtk7kuq5ptcpd,VwnQBTtC,2020-0188,2020-11-16,16:29:18,16:52:03,NA,incomplete,84,number,0,1,left,Purple_Star_Stripes_3.jpg,Red_Plus_Chess_3.jpg,Blue_Triangle_Stripes_1.jpg,right,1386,false,high,false
VwnQBTtC,3r6rzgk0yip7nifkjif6ljfzh4yvyd,3njm2bjs40jj2ffdsgtk7kuq5ptcpd,VwnQBTtC,2020-0188,2020-11-16,16:29:18,16:52:03,NA,incomplete,85,number,0,1,right,Purple_Star_Grid_4.jpg,Blue_Plus_Grid_1.jpg,Red_Circle_Stripes_4.jpg,right,805,true,high,false
VwnQBTtC,3r6rzgk0yip7nifkjif6ljfzh4yvyd,3njm2bjs40jj2ffdsgtk7kuq5ptcpd,VwnQBTtC,2020-0188,2020-11-16,16:29:18,16:52:03,NA,incomplete,86,number,0,1,right,Red_Triangle_Dots_4.jpg,Green_Circle_Dots_2.jpg,Purple_Star_Stripes_4.jpg,left,826,false,high,false
VwnQBTtC,3r6rzgk0yip7nifkjif6ljfzh4yvyd,3njm2bjs40jj2ffdsgtk7kuq5ptcpd,VwnQBTtC,2020-0188,2020-11-16,16:29:18,16:52:03,NA,incomplete,87,number,0,1,right,Blue_Plus_Chess_1.jpg,Purple_Circle_Chess_2.jpg,Green_Triangle_Dots_1.jpg,right,734,true,high,false
VwnQBTtC,3r6rzgk0yip7nifkjif6ljfzh4yvyd,3njm2bjs40jj2ffdsgtk7kuq5ptcpd,VwnQBTtC,2020-0188,2020-11-16,16:29:18,16:52:03,NA,incomplete,88,number,0,1,left,Green_Star_Dots_3.jpg,Purple_Plus_Chess_3.jpg,Red_Triangle_Dots_4.jpg,left,941,true,high,false
VwnQBTtC,3r6rzgk0yip7nifkjif6ljfzh4yvyd,3njm2bjs40jj2ffdsgtk7kuq5ptcpd,VwnQBTtC,2020-0188,2020-11-16,16:29:18,16:52:03,NA,incomplete,89,number,0,1,right,Purple_Plus_Grid_2.jpg,Red_Triangle_Grid_4.jpg,Blue_Circle_Stripes_2.jpg,right,1141,true,high,false
VwnQBTtC,3r6rzgk0yip7nifkjif6ljfzh4yvyd,3njm2bjs40jj2ffdsgtk7kuq5ptcpd,VwnQBTtC,2020-0188,2020-11-16,16:29:18,16:52:03,NA,incomplete,90,filling,1,1,right,Red_Triangle_Stripes_4.jpg,Blue_Circle_Chess_4.jpg,Purple_Star_Stripes_3.jpg,left,739,false,high,false
VwnQBTtC,3r6rzgk0yip7nifkjif6ljfzh4yvyd,3njm2bjs40jj2ffdsgtk7kuq5ptcpd,VwnQBTtC,2020-0188,2020-11-16,16:29:18,16:52:03,NA,incomplete,91,filling,1,1,right,Blue_Star_Dots_3.jpg,Red_Plus_Chess_3.jpg,Green_Circle_Dots_4.jpg,left,1034,false,high,false
VwnQBTtC,3r6rzgk0yip7nifkjif6ljfzh4yvyd,3njm2bjs40jj2ffdsgtk7kuq5ptcpd,VwnQBTtC,2020-0188,2020-11-16,16:29:18,16:52:03,NA,incomplete,92,filling,1,1,left,Purple_Star_Grid_1.jpg,Green_Circle_Grid_2.jpg,Blue_Plus_Dots_1.jpg,left,1445,true,high,false
VwnQBTtC,3r6rzgk0yip7nifkjif6ljfzh4yvyd,3njm2bjs40jj2ffdsgtk7kuq5ptcpd,VwnQBTtC,2020-0188,2020-11-16,16:29:18,16:52:03,NA,incomplete,93,filling,1,1,left,Purple_Triangle_Chess_4.jpg,Red_Plus_Chess_1.jpg,Green_Circle_Stripes_4.jpg,left,1126,true,high,false
VwnQBTtC,3r6rzgk0yip7nifkjif6ljfzh4yvyd,3njm2bjs40jj2ffdsgtk7kuq5ptcpd,VwnQBTtC,2020-0188,2020-11-16,16:29:18,16:52:03,NA,incomplete,94,filling,1,1,right,Green_Plus_Dots_1.jpg,Blue_Circle_Chess_1.jpg,Purple_Star_Dots_2.jpg,right,1005,true,high,false
VwnQBTtC,3r6rzgk0yip7nifkjif6ljfzh4yvyd,3njm2bjs40jj2ffdsgtk7kuq5ptcpd,VwnQBTtC,2020-0188,2020-11-16,16:29:18,16:52:03,NA,incomplete,95,filling,1,1,left,Green_Circle_Dots_2.jpg,Red_Plus_Dots_3.jpg,Purple_Triangle_Chess_2.jpg,right,1137,false,high,false
VwnQBTtC,3r6rzgk0yip7nifkjif6ljfzh4yvyd,3njm2bjs40jj2ffdsgtk7kuq5ptcpd,VwnQBTtC,2020-0188,2020-11-16,16:29:18,16:52:03,NA,incomplete,96,filling,1,1,right,Purple_Circle_Chess_2.jpg,Green_Plus_Stripes_2.jpg,Blue_Triangle_Chess_3.jpg,right,1033,true,high,false
VwnQBTtC,3r6rzgk0yip7nifkjif6ljfzh4yvyd,3njm2bjs40jj2ffdsgtk7kuq5ptcpd,VwnQBTtC,2020-0188,2020-11-16,16:29:18,16:52:03,NA,incomplete,97,filling,1,1,right,Blue_Circle_Grid_2.jpg,Green_Plus_Stripes_2.jpg,Purple_Star_Grid_4.jpg,left,964,false,high,false
VwnQBTtC,3r6rzgk0yip7nifkjif6ljfzh4yvyd,3njm2bjs40jj2ffdsgtk7kuq5ptcpd,VwnQBTtC,2020-0188,2020-11-16,16:29:18,16:52:03,NA,incomplete,98,filling,1,1,left,Purple_Plus_Chess_4.jpg,Blue_Star_Chess_1.jpg,Red_Circle_Dots_4.jpg,right,1154,false,high,false
VwnQBTtC,3r6rzgk0yip7nifkjif6ljfzh4yvyd,3njm2bjs40jj2ffdsgtk7kuq5ptcpd,VwnQBTtC,2020-0188,2020-11-16,16:29:18,16:52:03,NA,incomplete,99,filling,1,1,right,Purple_Triangle_Chess_3.jpg,Green_Plus_Dots_3.jpg,Red_Circle_Chess_2.jpg,right,1023,true,high,false
VwnQBTtC,3r6rzgk0yip7nifkjif6ljfzh4yvyd,3njm2bjs40jj2ffdsgtk7kuq5ptcpd,VwnQBTtC,2020-0188,2020-11-16,16:29:18,16:52:03,NA,incomplete,100,number,0,1,right,Red_Triangle_Dots_2.jpg,Green_Plus_Dots_3.jpg,Purple_Star_Stripes_2.jpg,left,979,false,high,false
VwnQBTtC,3r6rzgk0yip7nifkjif6ljfzh4yvyd,3njm2bjs40jj2ffdsgtk7kuq5ptcpd,VwnQBTtC,2020-0188,2020-11-16,16:29:18,16:52:03,NA,incomplete,101,number,0,1,right,Blue_Triangle_Grid_4.jpg,Red_Star_Grid_2.jpg,Purple_Plus_Dots_4.jpg,left,1152,false,high,false
VwnQBTtC,3r6rzgk0yip7nifkjif6ljfzh4yvyd,3njm2bjs40jj2ffdsgtk7kuq5ptcpd,VwnQBTtC,2020-0188,2020-11-16,16:29:18,16:52:03,NA,incomplete,102,number,0,1,left,Purple_Circle_Grid_1.jpg,Green_Plus_Chess_1.jpg,Red_Star_Grid_3.jpg,right,1078,false,high,false
VwnQBTtC,3r6rzgk0yip7nifkjif6ljfzh4yvyd,3njm2bjs40jj2ffdsgtk7kuq5ptcpd,VwnQBTtC,2020-0188,2020-11-16,16:29:18,16:52:03,NA,incomplete,103,number,0,1,left,Purple_Star_Grid_1.jpg,Green_Triangle_Stripes_1.jpg,Blue_Plus_Grid_4.jpg,left,702,true,high,false
VwnQBTtC,3r6rzgk0yip7nifkjif6ljfzh4yvyd,3njm2bjs40jj2ffdsgtk7kuq5ptcpd,VwnQBTtC,2020-0188,2020-11-16,16:29:18,16:52:03,NA,incomplete,104,number,0,1,left,Red_Triangle_Grid_4.jpg,Green_Star_Chess_4.jpg,Purple_Circle_Grid_3.jpg,left,695,true,high,false
VwnQBTtC,3r6rzgk0yip7nifkjif6ljfzh4yvyd,3njm2bjs40jj2ffdsgtk7kuq5ptcpd,VwnQBTtC,2020-0188,2020-11-16,16:29:18,16:52:03,NA,incomplete,105,number,0,1,right,Red_Triangle_Dots_1.jpg,Purple_Star_Dots_2.jpg,Blue_Plus_Grid_1.jpg,right,618,true,high,false
VwnQBTtC,3r6rzgk0yip7nifkjif6ljfzh4yvyd,3njm2bjs40jj2ffdsgtk7kuq5ptcpd,VwnQBTtC,2020-0188,2020-11-16,16:29:18,16:52:03,NA,incomplete,106,number,0,1,left,Purple_Star_Stripes_2.jpg,Red_Plus_Grid_2.jpg,Green_Circle_Stripes_3.jpg,left,775,true,high,false
VwnQBTtC,3r6rzgk0yip7nifkjif6ljfzh4yvyd,3njm2bjs40jj2ffdsgtk7kuq5ptcpd,VwnQBTtC,2020-0188,2020-11-16,16:29:18,16:52:03,NA,incomplete,107,number,0,0,right,Purple_Star_Chess_2.jpg,Blue_Circle_Chess_1.jpg,Red_Plus_Dots_2.jpg,right,812,true,high,false
VwnQBTtC,3r6rzgk0yip7nifkjif6ljfzh4yvyd,3njm2bjs40jj2ffdsgtk7kuq5ptcpd,VwnQBTtC,2020-0188,2020-11-16,16:29:18,16:52:03,NA,incomplete,108,number,0,1,right,Blue_Star_Stripes_1.jpg,Purple_Circle_Stripes_3.jpg,Green_Triangle_Chess_1.jpg,right,793,true,high,false
VwnQBTtC,3r6rzgk0yip7nifkjif6ljfzh4yvyd,3njm2bjs40jj2ffdsgtk7kuq5ptcpd,VwnQBTtC,2020-0188,2020-11-16,16:29:18,16:52:03,NA,incomplete,109,number,0,1,left,Purple_Circle_Dots_3.jpg,Green_Triangle_Grid_3.jpg,Red_Plus_Dots_2.jpg,left,765,true,high,false
VwnQBTtC,3r6rzgk0yip7nifkjif6ljfzh4yvyd,3njm2bjs40jj2ffdsgtk7kuq5ptcpd,VwnQBTtC,2020-0188,2020-11-16,16:29:18,16:52:03,NA,incomplete,110,filling,1,0,left,Red_Plus_Dots_1.jpg,Blue_Circle_Dots_2.jpg,Purple_Triangle_Grid_1.jpg,right,629,false,high,false
VwnQBTtC,3r6rzgk0yip7nifkjif6ljfzh4yvyd,3njm2bjs40jj2ffdsgtk7kuq5ptcpd,VwnQBTtC,2020-0188,2020-11-16,16:29:18,16:52:03,NA,incomplete,111,filling,1,1,left,Green_Star_Grid_2.jpg,Purple_Triangle_Grid_4.jpg,Red_Plus_Chess_2.jpg,right,738,false,high,false
VwnQBTtC,3r6rzgk0yip7nifkjif6ljfzh4yvyd,3njm2bjs40jj2ffdsgtk7kuq5ptcpd,VwnQBTtC,2020-0188,2020-11-16,16:29:18,16:52:03,NA,incomplete,112,filling,1,1,right,Green_Star_Dots_3.jpg,Red_Triangle_Chess_3.jpg,Purple_Circle_Dots_1.jpg,left,656,false,high,false
VwnQBTtC,3r6rzgk0yip7nifkjif6ljfzh4yvyd,3njm2bjs40jj2ffdsgtk7kuq5ptcpd,VwnQBTtC,2020-0188,2020-11-16,16:29:18,16:52:03,NA,incomplete,113,filling,1,1,right,Green_Plus_Chess_4.jpg,Red_Star_Stripes_4.jpg,Purple_Circle_Chess_3.jpg,right,1076,true,high,false
VwnQBTtC,3r6rzgk0yip7nifkjif6ljfzh4yvyd,3njm2bjs40jj2ffdsgtk7kuq5ptcpd,VwnQBTtC,2020-0188,2020-11-16,16:29:18,16:52:03,NA,incomplete,114,filling,1,1,left,Red_Plus_Grid_2.jpg,Green_Triangle_Grid_4.jpg,Purple_Circle_Chess_2.jpg,left,901,true,high,false
VwnQBTtC,3r6rzgk0yip7nifkjif6ljfzh4yvyd,3njm2bjs40jj2ffdsgtk7kuq5ptcpd,VwnQBTtC,2020-0188,2020-11-16,16:29:18,16:52:03,NA,incomplete,115,filling,1,1,left,Purple_Triangle_Stripes_2.jpg,Green_Plus_Stripes_4.jpg,Red_Circle_Grid_2.jpg,left,1135,true,high,false
VwnQBTtC,3r6rzgk0yip7nifkjif6ljfzh4yvyd,3njm2bjs40jj2ffdsgtk7kuq5ptcpd,VwnQBTtC,2020-0188,2020-11-16,16:29:18,16:52:03,NA,incomplete,116,filling,1,1,left,Green_Plus_Stripes_2.jpg,Purple_Triangle_Stripes_4.jpg,Red_Star_Chess_2.jpg,left,1013,true,high,false
VwnQBTtC,3r6rzgk0yip7nifkjif6ljfzh4yvyd,3njm2bjs40jj2ffdsgtk7kuq5ptcpd,VwnQBTtC,2020-0188,2020-11-16,16:29:18,16:52:03,NA,incomplete,117,filling,1,1,left,Blue_Plus_Dots_2.jpg,Green_Star_Dots_3.jpg,Red_Circle_Chess_2.jpg,left,960,true,high,false
VwnQBTtC,3r6rzgk0yip7nifkjif6ljfzh4yvyd,3njm2bjs40jj2ffdsgtk7kuq5ptcpd,VwnQBTtC,2020-0188,2020-11-16,16:29:18,16:52:03,NA,incomplete,118,filling,1,0,left,Red_Plus_Chess_4.jpg,Green_Circle_Chess_1.jpg,Blue_Triangle_Stripes_4.jpg,right,887,false,high,false
VwnQBTtC,3r6rzgk0yip7nifkjif6ljfzh4yvyd,3njm2bjs40jj2ffdsgtk7kuq5ptcpd,VwnQBTtC,2020-0188,2020-11-16,16:29:18,16:52:03,NA,incomplete,119,filling,1,1,left,Blue_Plus_Dots_1.jpg,Red_Triangle_Dots_3.jpg,Green_Star_Chess_1.jpg,left,792,true,high,false
VwnQBTtC,3r6rzgk0yip7nifkjif6ljfzh4yvyd,3njm2bjs40jj2ffdsgtk7kuq5ptcpd,VwnQBTtC,2020-0188,2020-11-16,16:29:18,16:52:03,NA,incomplete,120,gender,2,1,right,A_F_07.jpg,A_M_02.jpg,C_F_10.jpg,NA,NA,NA,high,false
VwnQBTtC,3r6rzgk0yip7nifkjif6ljfzh4yvyd,3njm2bjs40jj2ffdsgtk7kuq5ptcpd,VwnQBTtC,2020-0188,2020-11-16,16:29:18,16:52:03,NA,incomplete,121,gender,2,1,left,A_F_10.jpg,C_F_06.jpg,A_M_16.jpg,left,1011,true,high,false
VwnQBTtC,3r6rzgk0yip7nifkjif6ljfzh4yvyd,3njm2bjs40jj2ffdsgtk7kuq5ptcpd,VwnQBTtC,2020-0188,2020-11-16,16:29:18,16:52:03,NA,incomplete,122,gender,2,1,left,A_F_05.jpg,C_F_14.jpg,A_M_11.jpg,left,960,true,high,false
VwnQBTtC,3r6rzgk0yip7nifkjif6ljfzh4yvyd,3njm2bjs40jj2ffdsgtk7kuq5ptcpd,VwnQBTtC,2020-0188,2020-11-16,16:29:18,16:52:03,NA,incomplete,123,gender,2,1,left,A_F_15.jpg,C_F_14.jpg,A_M_04.jpg,left,797,true,high,false
VwnQBTtC,3r6rzgk0yip7nifkjif6ljfzh4yvyd,3njm2bjs40jj2ffdsgtk7kuq5ptcpd,VwnQBTtC,2020-0188,2020-11-16,16:29:18,16:52:03,NA,incomplete,124,gender,2,1,right,C_F_09.jpg,C_M_06.jpg,A_F_04.jpg,right,987,true,high,false
VwnQBTtC,3r6rzgk0yip7nifkjif6ljfzh4yvyd,3njm2bjs40jj2ffdsgtk7kuq5ptcpd,VwnQBTtC,2020-0188,2020-11-16,16:29:18,16:52:03,NA,incomplete,125,gender,2,1,right,A_M_03.jpg,A_F_02.jpg,C_M_01.jpg,right,1215,true,high,false
VwnQBTtC,3r6rzgk0yip7nifkjif6ljfzh4yvyd,3njm2bjs40jj2ffdsgtk7kuq5ptcpd,VwnQBTtC,2020-0188,2020-11-16,16:29:18,16:52:03,NA,incomplete,126,gender,2,0,left,A_M_03.jpg,C_M_15.jpg,A_F_14.jpg,left,1156,true,high,false
VwnQBTtC,3r6rzgk0yip7nifkjif6ljfzh4yvyd,3njm2bjs40jj2ffdsgtk7kuq5ptcpd,VwnQBTtC,2020-0188,2020-11-16,16:29:18,16:52:03,NA,incomplete,127,gender,2,1,left,A_M_16.jpg,C_M_03.jpg,A_F_07.jpg,left,968,true,high,false
VwnQBTtC,3r6rzgk0yip7nifkjif6ljfzh4yvyd,3njm2bjs40jj2ffdsgtk7kuq5ptcpd,VwnQBTtC,2020-0188,2020-11-16,16:29:18,16:52:03,NA,incomplete,128,gender,2,1,left,A_M_04.jpg,C_M_11.jpg,A_F_08.jpg,left,902,true,high,false
VwnQBTtC,3r6rzgk0yip7nifkjif6ljfzh4yvyd,3njm2bjs40jj2ffdsgtk7kuq5ptcpd,VwnQBTtC,2020-0188,2020-11-16,16:29:18,16:52:03,NA,incomplete,129,gender,2,1,left,A_F_08.jpg,C_F_02.jpg,A_M_01.jpg,left,934,true,high,false
VwnQBTtC,3r6rzgk0yip7nifkjif6ljfzh4yvyd,3njm2bjs40jj2ffdsgtk7kuq5ptcpd,VwnQBTtC,2020-0188,2020-11-16,16:29:18,16:52:03,NA,incomplete,130,gender,2,1,left,C_F_07.jpg,A_F_09.jpg,C_M_10.jpg,left,1077,true,high,false
VwnQBTtC,3r6rzgk0yip7nifkjif6ljfzh4yvyd,3njm2bjs40jj2ffdsgtk7kuq5ptcpd,VwnQBTtC,2020-0188,2020-11-16,16:29:18,16:52:03,NA,incomplete,131,gender,2,1,right,A_M_04.jpg,A_F_01.jpg,C_M_14.jpg,right,1039,true,high,false
VwnQBTtC,3r6rzgk0yip7nifkjif6ljfzh4yvyd,3njm2bjs40jj2ffdsgtk7kuq5ptcpd,VwnQBTtC,2020-0188,2020-11-16,16:29:18,16:52:03,NA,incomplete,132,gender,2,1,left,C_F_07.jpg,A_F_03.jpg,C_M_08.jpg,left,833,true,high,false
VwnQBTtC,3r6rzgk0yip7nifkjif6ljfzh4yvyd,3njm2bjs40jj2ffdsgtk7kuq5ptcpd,VwnQBTtC,2020-0188,2020-11-16,16:29:18,16:52:03,NA,incomplete,133,gender,2,0,left,A_F_12.jpg,C_F_11.jpg,A_M_03.jpg,left,909,true,high,false
VwnQBTtC,3r6rzgk0yip7nifkjif6ljfzh4yvyd,3njm2bjs40jj2ffdsgtk7kuq5ptcpd,VwnQBTtC,2020-0188,2020-11-16,16:29:18,16:52:03,NA,incomplete,134,gender,2,1,left,A_F_07.jpg,C_F_11.jpg,A_M_09.jpg,left,734,true,high,false
VwnQBTtC,3r6rzgk0yip7nifkjif6ljfzh4yvyd,3njm2bjs40jj2ffdsgtk7kuq5ptcpd,VwnQBTtC,2020-0188,2020-11-16,16:29:18,16:52:03,NA,incomplete,135,gender,2,0,right,C_M_01.jpg,C_F_06.jpg,A_M_08.jpg,right,949,true,high,false
VwnQBTtC,3r6rzgk0yip7nifkjif6ljfzh4yvyd,3njm2bjs40jj2ffdsgtk7kuq5ptcpd,VwnQBTtC,2020-0188,2020-11-16,16:29:18,16:52:03,NA,incomplete,136,gender,2,1,right,C_F_13.jpg,C_M_07.jpg,A_F_10.jpg,right,932,true,high,false
VwnQBTtC,3r6rzgk0yip7nifkjif6ljfzh4yvyd,3njm2bjs40jj2ffdsgtk7kuq5ptcpd,VwnQBTtC,2020-0188,2020-11-16,16:29:18,16:52:03,NA,incomplete,137,gender,2,1,right,A_F_03.jpg,A_M_10.jpg,C_F_14.jpg,right,756,true,high,false
VwnQBTtC,3r6rzgk0yip7nifkjif6ljfzh4yvyd,3njm2bjs40jj2ffdsgtk7kuq5ptcpd,VwnQBTtC,2020-0188,2020-11-16,16:29:18,16:52:03,NA,incomplete,138,gender,2,1,left,A_F_04.jpg,C_F_10.jpg,A_M_15.jpg,left,859,true,high,false
VwnQBTtC,3r6rzgk0yip7nifkjif6ljfzh4yvyd,3njm2bjs40jj2ffdsgtk7kuq5ptcpd,VwnQBTtC,2020-0188,2020-11-16,16:29:18,16:52:03,NA,incomplete,139,gender,2,1,right,C_F_01.jpg,C_M_12.jpg,A_F_04.jpg,right,1037,true,high,false
VwnQBTtC,3r6rzgk0yip7nifkjif6ljfzh4yvyd,3njm2bjs40jj2ffdsgtk7kuq5ptcpd,VwnQBTtC,2020-0188,2020-11-16,16:29:18,16:52:03,NA,incomplete,140,race,3,1,right,C_M_05.jpg,A_M_11.jpg,C_F_07.jpg,left,896,false,high,false
VwnQBTtC,3r6rzgk0yip7nifkjif6ljfzh4yvyd,3njm2bjs40jj2ffdsgtk7kuq5ptcpd,VwnQBTtC,2020-0188,2020-11-16,16:29:18,16:52:03,NA,incomplete,141,race,3,1,right,A_M_02.jpg,C_M_09.jpg,A_F_03.jpg,left,961,false,high,false
VwnQBTtC,3r6rzgk0yip7nifkjif6ljfzh4yvyd,3njm2bjs40jj2ffdsgtk7kuq5ptcpd,VwnQBTtC,2020-0188,2020-11-16,16:29:18,16:52:03,NA,incomplete,142,race,3,1,right,C_M_12.jpg,A_M_01.jpg,C_F_05.jpg,left,864,false,high,false
VwnQBTtC,3r6rzgk0yip7nifkjif6ljfzh4yvyd,3njm2bjs40jj2ffdsgtk7kuq5ptcpd,VwnQBTtC,2020-0188,2020-11-16,16:29:18,16:52:03,NA,incomplete,143,race,3,0,right,C_F_01.jpg,A_F_02.jpg,C_M_05.jpg,right,1264,true,high,false
VwnQBTtC,3r6rzgk0yip7nifkjif6ljfzh4yvyd,3njm2bjs40jj2ffdsgtk7kuq5ptcpd,VwnQBTtC,2020-0188,2020-11-16,16:29:18,16:52:03,NA,incomplete,144,race,3,1,left,C_M_05.jpg,C_F_12.jpg,A_M_03.jpg,left,1399,true,high,false
VwnQBTtC,3r6rzgk0yip7nifkjif6ljfzh4yvyd,3njm2bjs40jj2ffdsgtk7kuq5ptcpd,VwnQBTtC,2020-0188,2020-11-16,16:29:18,16:52:03,NA,incomplete,145,race,3,1,left,A_F_08.jpg,A_M_12.jpg,C_F_11.jpg,none,0,false,high,false
VwnQBTtC,3r6rzgk0yip7nifkjif6ljfzh4yvyd,3njm2bjs40jj2ffdsgtk7kuq5ptcpd,VwnQBTtC,2020-0188,2020-11-16,16:29:18,16:52:03,NA,incomplete,146,race,3,1,left,A_M_09.jpg,A_F_14.jpg,C_M_01.jpg,left,1525,true,high,false
VwnQBTtC,3r6rzgk0yip7nifkjif6ljfzh4yvyd,3njm2bjs40jj2ffdsgtk7kuq5ptcpd,VwnQBTtC,2020-0188,2020-11-16,16:29:18,16:52:03,NA,incomplete,147,race,3,1,right,A_F_16.jpg,C_F_14.jpg,A_M_07.jpg,right,1355,true,high,false
VwnQBTtC,3r6rzgk0yip7nifkjif6ljfzh4yvyd,3njm2bjs40jj2ffdsgtk7kuq5ptcpd,VwnQBTtC,2020-0188,2020-11-16,16:29:18,16:52:03,NA,incomplete,148,race,3,1,left,C_F_02.jpg,C_M_03.jpg,A_F_12.jpg,left,1151,true,high,false
VwnQBTtC,3r6rzgk0yip7nifkjif6ljfzh4yvyd,3njm2bjs40jj2ffdsgtk7kuq5ptcpd,VwnQBTtC,2020-0188,2020-11-16,16:29:18,16:52:03,NA,incomplete,149,race,3,1,left,A_M_11.jpg,A_F_01.jpg,C_M_06.jpg,right,910,false,high,false
VwnQBTtC,3r6rzgk0yip7nifkjif6ljfzh4yvyd,3njm2bjs40jj2ffdsgtk7kuq5ptcpd,VwnQBTtC,2020-0188,2020-11-16,16:29:18,16:52:03,NA,incomplete,150,race,3,0,left,A_F_02.jpg,A_M_15.jpg,C_F_12.jpg,left,1093,true,high,false
VwnQBTtC,3r6rzgk0yip7nifkjif6ljfzh4yvyd,3njm2bjs40jj2ffdsgtk7kuq5ptcpd,VwnQBTtC,2020-0188,2020-11-16,16:29:18,16:52:03,NA,incomplete,151,race,3,1,left,C_F_14.jpg,C_M_01.jpg,A_F_15.jpg,right,935,false,high,false
VwnQBTtC,3r6rzgk0yip7nifkjif6ljfzh4yvyd,3njm2bjs40jj2ffdsgtk7kuq5ptcpd,VwnQBTtC,2020-0188,2020-11-16,16:29:18,16:52:03,NA,incomplete,152,race,3,1,left,C_M_11.jpg,C_F_12.jpg,A_M_13.jpg,left,1773,true,high,false
VwnQBTtC,3r6rzgk0yip7nifkjif6ljfzh4yvyd,3njm2bjs40jj2ffdsgtk7kuq5ptcpd,VwnQBTtC,2020-0188,2020-11-16,16:29:18,16:52:03,NA,incomplete,153,race,3,1,right,A_M_07.jpg,C_M_13.jpg,A_F_15.jpg,right,1233,true,high,false
VwnQBTtC,3r6rzgk0yip7nifkjif6ljfzh4yvyd,3njm2bjs40jj2ffdsgtk7kuq5ptcpd,VwnQBTtC,2020-0188,2020-11-16,16:29:18,16:52:03,NA,incomplete,154,race,3,1,left,A_M_05.jpg,A_F_11.jpg,C_M_15.jpg,left,1019,true,high,false
VwnQBTtC,3r6rzgk0yip7nifkjif6ljfzh4yvyd,3njm2bjs40jj2ffdsgtk7kuq5ptcpd,VwnQBTtC,2020-0188,2020-11-16,16:29:18,16:52:03,NA,incomplete,155,race,3,1,right,C_M_15.jpg,A_M_02.jpg,C_F_07.jpg,right,1032,true,high,false
VwnQBTtC,3r6rzgk0yip7nifkjif6ljfzh4yvyd,3njm2bjs40jj2ffdsgtk7kuq5ptcpd,VwnQBTtC,2020-0188,2020-11-16,16:29:18,16:52:03,NA,incomplete,156,race,3,1,left,C_F_05.jpg,C_M_04.jpg,A_F_11.jpg,left,1386,true,high,false
VwnQBTtC,3r6rzgk0yip7nifkjif6ljfzh4yvyd,3njm2bjs40jj2ffdsgtk7kuq5ptcpd,VwnQBTtC,2020-0188,2020-11-16,16:29:18,16:52:03,NA,incomplete,157,race,3,1,left,C_F_02.jpg,C_M_06.jpg,A_F_15.jpg,left,894,true,high,false
VwnQBTtC,3r6rzgk0yip7nifkjif6ljfzh4yvyd,3njm2bjs40jj2ffdsgtk7kuq5ptcpd,VwnQBTtC,2020-0188,2020-11-16,16:29:18,16:52:03,NA,incomplete,158,race,3,1,right,C_F_12.jpg,A_F_16.jpg,C_M_03.jpg,right,1168,true,high,false
VwnQBTtC,3r6rzgk0yip7nifkjif6ljfzh4yvyd,3njm2bjs40jj2ffdsgtk7kuq5ptcpd,VwnQBTtC,2020-0188,2020-11-16,16:29:18,16:52:03,NA,incomplete,159,race,3,1,right,C_F_03.jpg,A_F_10.jpg,C_M_12.jpg,right,1053,true,high,false
VwnQBTtC,3r6rzgk0yip7nifkjif6ljfzh4yvyd,3njm2bjs40jj2ffdsgtk7kuq5ptcpd,VwnQBTtC,2020-0188,2020-11-16,16:29:18,16:52:03,NA,incomplete,160,gender,2,0,left,A_F_11.jpg,C_F_06.jpg,A_M_07.jpg,right,1208,false,high,false
VwnQBTtC,3r6rzgk0yip7nifkjif6ljfzh4yvyd,3njm2bjs40jj2ffdsgtk7kuq5ptcpd,VwnQBTtC,2020-0188,2020-11-16,16:29:18,16:52:03,NA,incomplete,161,gender,2,1,right,A_F_16.jpg,A_M_14.jpg,C_F_01.jpg,left,1098,false,high,false
VwnQBTtC,3r6rzgk0yip7nifkjif6ljfzh4yvyd,3njm2bjs40jj2ffdsgtk7kuq5ptcpd,VwnQBTtC,2020-0188,2020-11-16,16:29:18,16:52:03,NA,incomplete,162,gender,2,1,left,A_F_06.jpg,C_F_15.jpg,A_M_08.jpg,right,770,false,high,false
VwnQBTtC,3r6rzgk0yip7nifkjif6ljfzh4yvyd,3njm2bjs40jj2ffdsgtk7kuq5ptcpd,VwnQBTtC,2020-0188,2020-11-16,16:29:18,16:52:03,NA,incomplete,163,gender,2,1,left,A_F_01.jpg,C_F_04.jpg,A_M_03.jpg,right,953,false,high,false
VwnQBTtC,3r6rzgk0yip7nifkjif6ljfzh4yvyd,3njm2bjs40jj2ffdsgtk7kuq5ptcpd,VwnQBTtC,2020-0188,2020-11-16,16:29:18,16:52:03,NA,incomplete,164,gender,2,1,right,A_F_15.jpg,A_M_16.jpg,C_F_06.jpg,right,784,true,high,false
VwnQBTtC,3r6rzgk0yip7nifkjif6ljfzh4yvyd,3njm2bjs40jj2ffdsgtk7kuq5ptcpd,VwnQBTtC,2020-0188,2020-11-16,16:29:18,16:52:03,NA,incomplete,165,gender,2,1,right,C_M_04.jpg,C_F_02.jpg,A_M_06.jpg,right,997,true,high,false
VwnQBTtC,3r6rzgk0yip7nifkjif6ljfzh4yvyd,3njm2bjs40jj2ffdsgtk7kuq5ptcpd,VwnQBTtC,2020-0188,2020-11-16,16:29:18,16:52:03,NA,incomplete,166,gender,2,0,left,A_F_02.jpg,C_F_05.jpg,A_M_16.jpg,left,1146,true,high,false
VwnQBTtC,3r6rzgk0yip7nifkjif6ljfzh4yvyd,3njm2bjs40jj2ffdsgtk7kuq5ptcpd,VwnQBTtC,2020-0188,2020-11-16,16:29:18,16:52:03,NA,incomplete,167,gender,2,1,left,C_M_12.jpg,A_M_05.jpg,C_F_06.jpg,left,872,true,high,false
VwnQBTtC,3r6rzgk0yip7nifkjif6ljfzh4yvyd,3njm2bjs40jj2ffdsgtk7kuq5ptcpd,VwnQBTtC,2020-0188,2020-11-16,16:29:18,16:52:03,NA,incomplete,168,gender,2,0,left,C_F_05.jpg,A_F_03.jpg,C_M_02.jpg,left,810,true,high,false
VwnQBTtC,3r6rzgk0yip7nifkjif6ljfzh4yvyd,3njm2bjs40jj2ffdsgtk7kuq5ptcpd,VwnQBTtC,2020-0188,2020-11-16,16:29:18,16:52:03,NA,incomplete,169,gender,2,1,left,C_M_11.jpg,A_M_15.jpg,C_F_01.jpg,left,991,true,high,false
VwnQBTtC,3r6rzgk0yip7nifkjif6ljfzh4yvyd,3njm2bjs40jj2ffdsgtk7kuq5ptcpd,VwnQBTtC,2020-0188,2020-11-16,16:29:18,16:52:03,NA,incomplete,170,gender,2,0,right,C_M_14.jpg,C_F_06.jpg,A_M_11.jpg,right,883,true,high,false
VwnQBTtC,3r6rzgk0yip7nifkjif6ljfzh4yvyd,3njm2bjs40jj2ffdsgtk7kuq5ptcpd,VwnQBTtC,2020-0188,2020-11-16,16:29:18,16:52:03,NA,incomplete,171,gender,2,1,left,C_F_13.jpg,A_F_09.jpg,C_M_03.jpg,left,885,true,high,false
VwnQBTtC,3r6rzgk0yip7nifkjif6ljfzh4yvyd,3njm2bjs40jj2ffdsgtk7kuq5ptcpd,VwnQBTtC,2020-0188,2020-11-16,16:29:18,16:52:03,NA,incomplete,172,gender,2,1,left,C_F_03.jpg,A_F_16.jpg,C_M_04.jpg,left,847,true,high,false
VwnQBTtC,3r6rzgk0yip7nifkjif6ljfzh4yvyd,3njm2bjs40jj2ffdsgtk7kuq5ptcpd,VwnQBTtC,2020-0188,2020-11-16,16:29:18,16:52:03,NA,incomplete,173,gender,2,1,right,C_F_13.jpg,C_M_03.jpg,A_F_11.jpg,right,872,true,high,false
VwnQBTtC,3r6rzgk0yip7nifkjif6ljfzh4yvyd,3njm2bjs40jj2ffdsgtk7kuq5ptcpd,VwnQBTtC,2020-0188,2020-11-16,16:29:18,16:52:03,NA,incomplete,174,gender,2,1,right,A_M_12.jpg,A_F_09.jpg,C_M_16.jpg,right,866,true,high,false
VwnQBTtC,3r6rzgk0yip7nifkjif6ljfzh4yvyd,3njm2bjs40jj2ffdsgtk7kuq5ptcpd,VwnQBTtC,2020-0188,2020-11-16,16:29:18,16:52:03,NA,incomplete,175,gender,2,0,right,A_F_02.jpg,A_M_12.jpg,C_F_15.jpg,right,1469,true,high,false
VwnQBTtC,3r6rzgk0yip7nifkjif6ljfzh4yvyd,3njm2bjs40jj2ffdsgtk7kuq5ptcpd,VwnQBTtC,2020-0188,2020-11-16,16:29:18,16:52:03,NA,incomplete,176,gender,2,1,left,C_M_06.jpg,A_M_08.jpg,C_F_16.jpg,left,838,true,high,false
VwnQBTtC,3r6rzgk0yip7nifkjif6ljfzh4yvyd,3njm2bjs40jj2ffdsgtk7kuq5ptcpd,VwnQBTtC,2020-0188,2020-11-16,16:29:18,16:52:03,NA,incomplete,177,gender,2,1,left,A_F_14.jpg,C_F_03.jpg,A_M_08.jpg,left,959,true,high,false
VwnQBTtC,3r6rzgk0yip7nifkjif6ljfzh4yvyd,3njm2bjs40jj2ffdsgtk7kuq5ptcpd,VwnQBTtC,2020-0188,2020-11-16,16:29:18,16:52:03,NA,incomplete,178,gender,2,0,right,A_F_10.jpg,A_M_16.jpg,C_F_08.jpg,right,927,true,high,false
VwnQBTtC,3r6rzgk0yip7nifkjif6ljfzh4yvyd,3njm2bjs40jj2ffdsgtk7kuq5ptcpd,VwnQBTtC,2020-0188,2020-11-16,16:29:18,16:52:03,NA,incomplete,179,gender,2,1,right,A_F_08.jpg,A_M_11.jpg,C_F_14.jpg,right,734,true,high,false
VwnQBTtC,3r6rzgk0yip7nifkjif6ljfzh4yvyd,3njm2bjs40jj2ffdsgtk7kuq5ptcpd,VwnQBTtC,2020-0188,2020-11-16,16:29:18,16:52:03,NA,incomplete,180,race,3,1,left,A_F_14.jpg,A_M_11.jpg,C_F_13.jpg,right,677,false,high,false
VwnQBTtC,3r6rzgk0yip7nifkjif6ljfzh4yvyd,3njm2bjs40jj2ffdsgtk7kuq5ptcpd,VwnQBTtC,2020-0188,2020-11-16,16:29:18,16:52:03,NA,incomplete,181,race,3,0,right,A_M_09.jpg,C_M_02.jpg,A_F_03.jpg,left,920,false,high,false
VwnQBTtC,3r6rzgk0yip7nifkjif6ljfzh4yvyd,3njm2bjs40jj2ffdsgtk7kuq5ptcpd,VwnQBTtC,2020-0188,2020-11-16,16:29:18,16:52:03,NA,incomplete,182,race,3,1,right,A_F_06.jpg,C_F_09.jpg,A_M_12.jpg,left,1118,false,high,false
VwnQBTtC,3r6rzgk0yip7nifkjif6ljfzh4yvyd,3njm2bjs40jj2ffdsgtk7kuq5ptcpd,VwnQBTtC,2020-0188,2020-11-16,16:29:18,16:52:03,NA,incomplete,183,race,3,1,right,A_F_13.jpg,C_F_09.jpg,A_M_07.jpg,left,840,false,high,false
VwnQBTtC,3r6rzgk0yip7nifkjif6ljfzh4yvyd,3njm2bjs40jj2ffdsgtk7kuq5ptcpd,VwnQBTtC,2020-0188,2020-11-16,16:29:18,16:52:03,NA,incomplete,184,race,3,1,left,A_M_06.jpg,A_F_09.jpg,C_M_13.jpg,left,1130,true,high,false
VwnQBTtC,3r6rzgk0yip7nifkjif6ljfzh4yvyd,3njm2bjs40jj2ffdsgtk7kuq5ptcpd,VwnQBTtC,2020-0188,2020-11-16,16:29:18,16:52:03,NA,incomplete,185,race,3,1,right,C_M_04.jpg,A_M_15.jpg,C_F_14.jpg,right,1025,true,high,false
VwnQBTtC,3r6rzgk0yip7nifkjif6ljfzh4yvyd,3njm2bjs40jj2ffdsgtk7kuq5ptcpd,VwnQBTtC,2020-0188,2020-11-16,16:29:18,16:52:03,NA,incomplete,186,race,3,1,right,A_M_07.jpg,C_M_13.jpg,A_F_15.jpg,right,965,true,high,false
VwnQBTtC,3r6rzgk0yip7nifkjif6ljfzh4yvyd,3njm2bjs40jj2ffdsgtk7kuq5ptcpd,VwnQBTtC,2020-0188,2020-11-16,16:29:18,16:52:03,NA,incomplete,187,race,3,1,left,A_F_09.jpg,A_M_01.jpg,C_F_16.jpg,left,866,true,high,false
VwnQBTtC,3r6rzgk0yip7nifkjif6ljfzh4yvyd,3njm2bjs40jj2ffdsgtk7kuq5ptcpd,VwnQBTtC,2020-0188,2020-11-16,16:29:18,16:52:03,NA,incomplete,188,race,3,1,left,C_M_01.jpg,C_F_04.jpg,A_M_13.jpg,right,741,false,high,false
VwnQBTtC,3r6rzgk0yip7nifkjif6ljfzh4yvyd,3njm2bjs40jj2ffdsgtk7kuq5ptcpd,VwnQBTtC,2020-0188,2020-11-16,16:29:18,16:52:03,NA,incomplete,189,race,3,1,left,C_M_16.jpg,C_F_05.jpg,A_M_03.jpg,left,901,true,high,false
VwnQBTtC,3r6rzgk0yip7nifkjif6ljfzh4yvyd,3njm2bjs40jj2ffdsgtk7kuq5ptcpd,VwnQBTtC,2020-0188,2020-11-16,16:29:18,16:52:03,NA,incomplete,190,race,3,1,left,A_M_01.jpg,A_F_12.jpg,C_M_03.jpg,left,925,true,high,false
VwnQBTtC,3r6rzgk0yip7nifkjif6ljfzh4yvyd,3njm2bjs40jj2ffdsgtk7kuq5ptcpd,VwnQBTtC,2020-0188,2020-11-16,16:29:18,16:52:03,NA,incomplete,191,race,3,1,right,C_F_11.jpg,A_F_07.jpg,C_M_12.jpg,right,1070,true,high,false
VwnQBTtC,3r6rzgk0yip7nifkjif6ljfzh4yvyd,3njm2bjs40jj2ffdsgtk7kuq5ptcpd,VwnQBTtC,2020-0188,2020-11-16,16:29:18,16:52:03,NA,incomplete,192,race,3,0,left,A_M_02.jpg,A_F_10.jpg,C_M_06.jpg,left,898,true,high,false
VwnQBTtC,3r6rzgk0yip7nifkjif6ljfzh4yvyd,3njm2bjs40jj2ffdsgtk7kuq5ptcpd,VwnQBTtC,2020-0188,2020-11-16,16:29:18,16:52:03,NA,incomplete,193,race,3,1,left,A_F_11.jpg,A_M_06.jpg,C_F_15.jpg,left,943,true,high,false
VwnQBTtC,3r6rzgk0yip7nifkjif6ljfzh4yvyd,3njm2bjs40jj2ffdsgtk7kuq5ptcpd,VwnQBTtC,2020-0188,2020-11-16,16:29:18,16:52:03,NA,incomplete,194,race,3,1,right,A_F_03.jpg,C_F_16.jpg,A_M_07.jpg,right,1310,true,high,false
VwnQBTtC,3r6rzgk0yip7nifkjif6ljfzh4yvyd,3njm2bjs40jj2ffdsgtk7kuq5ptcpd,VwnQBTtC,2020-0188,2020-11-16,16:29:18,16:52:03,NA,incomplete,195,race,3,1,left,C_M_07.jpg,C_F_05.jpg,A_M_08.jpg,left,1004,true,high,false
VwnQBTtC,3r6rzgk0yip7nifkjif6ljfzh4yvyd,3njm2bjs40jj2ffdsgtk7kuq5ptcpd,VwnQBTtC,2020-0188,2020-11-16,16:29:18,16:52:03,NA,incomplete,196,race,3,0,left,A_M_09.jpg,A_F_05.jpg,C_M_16.jpg,left,834,true,high,false
VwnQBTtC,3r6rzgk0yip7nifkjif6ljfzh4yvyd,3njm2bjs40jj2ffdsgtk7kuq5ptcpd,VwnQBTtC,2020-0188,2020-11-16,16:29:18,16:52:03,NA,incomplete,197,race,3,1,left,C_F_05.jpg,C_M_13.jpg,A_F_01.jpg,right,894,false,high,false
VwnQBTtC,3r6rzgk0yip7nifkjif6ljfzh4yvyd,3njm2bjs40jj2ffdsgtk7kuq5ptcpd,VwnQBTtC,2020-0188,2020-11-16,16:29:18,16:52:03,NA,incomplete,198,race,3,1,left,A_F_02.jpg,A_M_01.jpg,C_F_12.jpg,left,1005,true,high,false
VwnQBTtC,3r6rzgk0yip7nifkjif6ljfzh4yvyd,3njm2bjs40jj2ffdsgtk7kuq5ptcpd,VwnQBTtC,2020-0188,2020-11-16,16:29:18,16:52:03,NA,incomplete,199,race,3,0,left,C_F_15.jpg,C_M_05.jpg,A_F_09.jpg,left,1089,true,high,false
VwnQBTtC,3r6rzgk0yip7nifkjif6ljfzh4yvyd,3njm2bjs40jj2ffdsgtk7kuq5ptcpd,VwnQBTtC,2020-0188,2020-11-16,16:29:18,16:52:03,NA,incomplete,200,gender,2,1,right,C_M_13.jpg,C_F_10.jpg,A_M_02.jpg,left,883,false,high,false
VwnQBTtC,3r6rzgk0yip7nifkjif6ljfzh4yvyd,3njm2bjs40jj2ffdsgtk7kuq5ptcpd,VwnQBTtC,2020-0188,2020-11-16,16:29:18,16:52:03,NA,incomplete,201,gender,2,1,left,A_M_12.jpg,C_M_06.jpg,A_F_09.jpg,left,876,true,high,false
VwnQBTtC,3r6rzgk0yip7nifkjif6ljfzh4yvyd,3njm2bjs40jj2ffdsgtk7kuq5ptcpd,VwnQBTtC,2020-0188,2020-11-16,16:29:18,16:52:03,NA,incomplete,202,gender,2,0,right,A_F_09.jpg,A_M_08.jpg,C_F_07.jpg,right,829,true,high,false
VwnQBTtC,3r6rzgk0yip7nifkjif6ljfzh4yvyd,3njm2bjs40jj2ffdsgtk7kuq5ptcpd,VwnQBTtC,2020-0188,2020-11-16,16:29:18,16:52:03,NA,incomplete,203,gender,2,1,right,C_F_08.jpg,C_M_11.jpg,A_F_03.jpg,right,665,true,high,false
VwnQBTtC,3r6rzgk0yip7nifkjif6ljfzh4yvyd,3njm2bjs40jj2ffdsgtk7kuq5ptcpd,VwnQBTtC,2020-0188,2020-11-16,16:29:18,16:52:03,NA,incomplete,204,gender,2,0,right,A_F_07.jpg,A_M_12.jpg,C_F_16.jpg,right,876,true,high,false
VwnQBTtC,3r6rzgk0yip7nifkjif6ljfzh4yvyd,3njm2bjs40jj2ffdsgtk7kuq5ptcpd,VwnQBTtC,2020-0188,2020-11-16,16:29:18,16:52:03,NA,incomplete,205,gender,2,1,right,C_F_12.jpg,C_M_11.jpg,A_F_10.jpg,right,813,true,high,false
VwnQBTtC,3r6rzgk0yip7nifkjif6ljfzh4yvyd,3njm2bjs40jj2ffdsgtk7kuq5ptcpd,VwnQBTtC,2020-0188,2020-11-16,16:29:18,16:52:03,NA,incomplete,206,gender,2,1,right,A_M_10.jpg,A_F_13.jpg,C_M_03.jpg,right,1081,true,high,false
VwnQBTtC,3r6rzgk0yip7nifkjif6ljfzh4yvyd,3njm2bjs40jj2ffdsgtk7kuq5ptcpd,VwnQBTtC,2020-0188,2020-11-16,16:29:18,16:52:03,NA,incomplete,207,gender,2,1,left,C_M_15.jpg,A_M_06.jpg,C_F_01.jpg,left,827,true,high,false
VwnQBTtC,3r6rzgk0yip7nifkjif6ljfzh4yvyd,3njm2bjs40jj2ffdsgtk7kuq5ptcpd,VwnQBTtC,2020-0188,2020-11-16,16:29:18,16:52:03,NA,incomplete,208,gender,2,1,left,C_M_10.jpg,A_M_02.jpg,C_F_14.jpg,left,910,true,high,false
VwnQBTtC,3r6rzgk0yip7nifkjif6ljfzh4yvyd,3njm2bjs40jj2ffdsgtk7kuq5ptcpd,VwnQBTtC,2020-0188,2020-11-16,16:29:18,16:52:03,NA,incomplete,209,gender,2,1,right,A_F_01.jpg,A_M_07.jpg,C_F_09.jpg,right,621,true,high,false
VwnQBTtC,3r6rzgk0yip7nifkjif6ljfzh4yvyd,3njm2bjs40jj2ffdsgtk7kuq5ptcpd,VwnQBTtC,2020-0188,2020-11-16,16:29:18,16:52:03,NA,incomplete,210,gender,2,1,right,C_M_04.jpg,C_F_03.jpg,A_M_14.jpg,left,652,false,high,false
VwnQBTtC,3r6rzgk0yip7nifkjif6ljfzh4yvyd,3njm2bjs40jj2ffdsgtk7kuq5ptcpd,VwnQBTtC,2020-0188,2020-11-16,16:29:18,16:52:03,NA,incomplete,211,gender,2,1,right,A_M_12.jpg,A_F_14.jpg,C_M_09.jpg,right,1047,true,high,false
VwnQBTtC,3r6rzgk0yip7nifkjif6ljfzh4yvyd,3njm2bjs40jj2ffdsgtk7kuq5ptcpd,VwnQBTtC,2020-0188,2020-11-16,16:29:18,16:52:03,NA,incomplete,212,gender,2,1,left,A_F_15.jpg,C_F_04.jpg,A_M_03.jpg,left,842,true,high,false
VwnQBTtC,3r6rzgk0yip7nifkjif6ljfzh4yvyd,3njm2bjs40jj2ffdsgtk7kuq5ptcpd,VwnQBTtC,2020-0188,2020-11-16,16:29:18,16:52:03,NA,incomplete,213,gender,2,0,right,A_F_01.jpg,A_M_06.jpg,C_F_04.jpg,right,1060,true,high,false
VwnQBTtC,3r6rzgk0yip7nifkjif6ljfzh4yvyd,3njm2bjs40jj2ffdsgtk7kuq5ptcpd,VwnQBTtC,2020-0188,2020-11-16,16:29:18,16:52:03,NA,incomplete,214,gender,2,1,right,A_M_02.jpg,A_F_08.jpg,C_M_05.jpg,right,1175,true,high,false
VwnQBTtC,3r6rzgk0yip7nifkjif6ljfzh4yvyd,3njm2bjs40jj2ffdsgtk7kuq5ptcpd,VwnQBTtC,2020-0188,2020-11-16,16:29:18,16:52:03,NA,incomplete,215,gender,2,0,left,C_F_03.jpg,A_F_16.jpg,C_M_13.jpg,left,715,true,high,false
VwnQBTtC,3r6rzgk0yip7nifkjif6ljfzh4yvyd,3njm2bjs40jj2ffdsgtk7kuq5ptcpd,VwnQBTtC,2020-0188,2020-11-16,16:29:18,16:52:03,NA,incomplete,216,gender,2,1,right,A_M_12.jpg,A_F_04.jpg,C_M_01.jpg,right,820,true,high,false
VwnQBTtC,3r6rzgk0yip7nifkjif6ljfzh4yvyd,3njm2bjs40jj2ffdsgtk7kuq5ptcpd,VwnQBTtC,2020-0188,2020-11-16,16:29:18,16:52:03,NA,incomplete,217,gender,2,0,right,C_F_01.jpg,C_M_09.jpg,A_F_12.jpg,right,952,true,high,false
VwnQBTtC,3r6rzgk0yip7nifkjif6ljfzh4yvyd,3njm2bjs40jj2ffdsgtk7kuq5ptcpd,VwnQBTtC,2020-0188,2020-11-16,16:29:18,16:52:03,NA,incomplete,218,gender,2,1,right,C_M_09.jpg,C_F_03.jpg,A_M_10.jpg,right,831,true,high,false
VwnQBTtC,3r6rzgk0yip7nifkjif6ljfzh4yvyd,3njm2bjs40jj2ffdsgtk7kuq5ptcpd,VwnQBTtC,2020-0188,2020-11-16,16:29:18,16:52:03,NA,incomplete,219,gender,2,0,right,A_M_01.jpg,A_F_16.jpg,C_M_15.jpg,right,1194,true,high,false
VwnQBTtC,3r6rzgk0yip7nifkjif6ljfzh4yvyd,3njm2bjs40jj2ffdsgtk7kuq5ptcpd,VwnQBTtC,2020-0188,2020-11-16,16:29:18,16:52:03,NA,incomplete,220,race,3,1,right,A_M_01.jpg,C_M_05.jpg,A_F_06.jpg,right,1046,true,high,false
VwnQBTtC,3r6rzgk0yip7nifkjif6ljfzh4yvyd,3njm2bjs40jj2ffdsgtk7kuq5ptcpd,VwnQBTtC,2020-0188,2020-11-16,16:29:18,16:52:03,NA,incomplete,221,race,3,0,right,A_M_13.jpg,C_M_04.jpg,A_F_10.jpg,right,1336,true,high,false
VwnQBTtC,3r6rzgk0yip7nifkjif6ljfzh4yvyd,3njm2bjs40jj2ffdsgtk7kuq5ptcpd,VwnQBTtC,2020-0188,2020-11-16,16:29:18,16:52:03,NA,incomplete,222,race,3,1,right,A_M_05.jpg,C_M_16.jpg,A_F_14.jpg,right,894,true,high,false
VwnQBTtC,3r6rzgk0yip7nifkjif6ljfzh4yvyd,3njm2bjs40jj2ffdsgtk7kuq5ptcpd,VwnQBTtC,2020-0188,2020-11-16,16:29:18,16:52:03,NA,incomplete,223,race,3,1,right,C_F_03.jpg,A_F_04.jpg,C_M_07.jpg,right,975,true,high,false
VwnQBTtC,3r6rzgk0yip7nifkjif6ljfzh4yvyd,3njm2bjs40jj2ffdsgtk7kuq5ptcpd,VwnQBTtC,2020-0188,2020-11-16,16:29:18,16:52:03,NA,incomplete,224,race,3,1,right,A_F_14.jpg,C_F_08.jpg,A_M_01.jpg,right,1004,true,high,false
VwnQBTtC,3r6rzgk0yip7nifkjif6ljfzh4yvyd,3njm2bjs40jj2ffdsgtk7kuq5ptcpd,VwnQBTtC,2020-0188,2020-11-16,16:29:18,16:52:03,NA,incomplete,225,race,3,1,left,C_M_02.jpg,C_F_11.jpg,A_M_10.jpg,left,953,true,high,false
VwnQBTtC,3r6rzgk0yip7nifkjif6ljfzh4yvyd,3njm2bjs40jj2ffdsgtk7kuq5ptcpd,VwnQBTtC,2020-0188,2020-11-16,16:29:18,16:52:03,NA,incomplete,226,race,3,1,right,C_M_16.jpg,A_M_10.jpg,C_F_01.jpg,right,879,true,high,false
VwnQBTtC,3r6rzgk0yip7nifkjif6ljfzh4yvyd,3njm2bjs40jj2ffdsgtk7kuq5ptcpd,VwnQBTtC,2020-0188,2020-11-16,16:29:18,16:52:03,NA,incomplete,227,race,3,1,left,A_F_03.jpg,A_M_01.jpg,C_F_02.jpg,left,936,true,high,false
VwnQBTtC,3r6rzgk0yip7nifkjif6ljfzh4yvyd,3njm2bjs40jj2ffdsgtk7kuq5ptcpd,VwnQBTtC,2020-0188,2020-11-16,16:29:18,16:52:03,NA,incomplete,228,race,3,1,left,C_M_13.jpg,C_F_01.jpg,A_M_12.jpg,right,871,false,high,false
VwnQBTtC,3r6rzgk0yip7nifkjif6ljfzh4yvyd,3njm2bjs40jj2ffdsgtk7kuq5ptcpd,VwnQBTtC,2020-0188,2020-11-16,16:29:18,16:52:03,NA,incomplete,229,race,3,1,left,A_F_10.jpg,A_M_01.jpg,C_F_09.jpg,left,874,true,high,false
VwnQBTtC,3r6rzgk0yip7nifkjif6ljfzh4yvyd,3njm2bjs40jj2ffdsgtk7kuq5ptcpd,VwnQBTtC,2020-0188,2020-11-16,16:29:18,16:52:03,NA,incomplete,230,race,3,1,right,C_M_09.jpg,A_M_16.jpg,C_F_12.jpg,right,850,true,high,false
VwnQBTtC,3r6rzgk0yip7nifkjif6ljfzh4yvyd,3njm2bjs40jj2ffdsgtk7kuq5ptcpd,VwnQBTtC,2020-0188,2020-11-16,16:29:18,16:52:03,NA,incomplete,231,race,3,1,left,A_M_14.jpg,A_F_15.jpg,C_M_07.jpg,left,1110,true,high,false
VwnQBTtC,3r6rzgk0yip7nifkjif6ljfzh4yvyd,3njm2bjs40jj2ffdsgtk7kuq5ptcpd,VwnQBTtC,2020-0188,2020-11-16,16:29:18,16:52:03,NA,incomplete,232,race,3,1,right,C_M_16.jpg,A_M_02.jpg,C_F_03.jpg,right,757,true,high,false
VwnQBTtC,3r6rzgk0yip7nifkjif6ljfzh4yvyd,3njm2bjs40jj2ffdsgtk7kuq5ptcpd,VwnQBTtC,2020-0188,2020-11-16,16:29:18,16:52:03,NA,incomplete,233,race,3,1,right,C_M_12.jpg,A_M_16.jpg,C_F_03.jpg,right,796,true,high,false
VwnQBTtC,3r6rzgk0yip7nifkjif6ljfzh4yvyd,3njm2bjs40jj2ffdsgtk7kuq5ptcpd,VwnQBTtC,2020-0188,2020-11-16,16:29:18,16:52:03,NA,incomplete,234,race,3,1,right,A_F_01.jpg,C_F_03.jpg,A_M_09.jpg,right,1034,true,high,false
VwnQBTtC,3r6rzgk0yip7nifkjif6ljfzh4yvyd,3njm2bjs40jj2ffdsgtk7kuq5ptcpd,VwnQBTtC,2020-0188,2020-11-16,16:29:18,16:52:03,NA,incomplete,235,race,3,0,left,A_M_15.jpg,A_F_10.jpg,C_M_09.jpg,left,1148,true,high,false
VwnQBTtC,3r6rzgk0yip7nifkjif6ljfzh4yvyd,3njm2bjs40jj2ffdsgtk7kuq5ptcpd,VwnQBTtC,2020-0188,2020-11-16,16:29:18,16:52:03,NA,incomplete,236,race,3,1,right,C_F_06.jpg,A_F_12.jpg,C_M_03.jpg,right,907,true,high,false
VwnQBTtC,3r6rzgk0yip7nifkjif6ljfzh4yvyd,3njm2bjs40jj2ffdsgtk7kuq5ptcpd,VwnQBTtC,2020-0188,2020-11-16,16:29:18,16:52:03,NA,incomplete,237,race,3,1,right,A_M_03.jpg,C_M_10.jpg,A_F_08.jpg,right,771,true,high,false
VwnQBTtC,3r6rzgk0yip7nifkjif6ljfzh4yvyd,3njm2bjs40jj2ffdsgtk7kuq5ptcpd,VwnQBTtC,2020-0188,2020-11-16,16:29:18,16:52:03,NA,incomplete,238,race,3,0,left,C_M_01.jpg,C_F_03.jpg,A_M_13.jpg,left,1048,true,high,false
VwnQBTtC,3r6rzgk0yip7nifkjif6ljfzh4yvyd,3njm2bjs40jj2ffdsgtk7kuq5ptcpd,VwnQBTtC,2020-0188,2020-11-16,16:29:18,16:52:03,NA,incomplete,239,race,3,1,left,A_F_15.jpg,A_M_01.jpg,C_F_06.jpg,left,1035,true,high,false
VwnQBTtC,3r6rzgk0yip7nifkjif6ljfzh4yvyd,3njm2bjs40jj2ffdsgtk7kuq5ptcpd,VwnQBTtC,2020-0188,2020-11-16,16:29:18,16:52:03,NA,NA,instruction example,number,NA,NA,NA,Purple_Star_Stripes_3.jpg,Blue_Triangle_Chess_3.jpg,Green_Circle_Stripes_2.jpg,NA,NA,NA,NA,undefined
VwnQBTtC,3r6rzgk0yip7nifkjif6ljfzh4yvyd,3njm2bjs40jj2ffdsgtk7kuq5ptcpd,VwnQBTtC,2020-0188,2020-11-16,16:29:18,16:52:03,NA,NA,instruction example,number,NA,NA,NA,Red_Star_Dots_4.jpg,Green_Triangle_Dots_3.jpg,Purple_Plus_Chess_4.jpg,NA,NA,NA,NA,undefined
VwnQBTtC,3r6rzgk0yip7nifkjif6ljfzh4yvyd,3njm2bjs40jj2ffdsgtk7kuq5ptcpd,VwnQBTtC,2020-0188,2020-11-16,16:29:18,16:52:03,NA,NA,instruction example,number,NA,NA,NA,A_F_04.jpg,C_F_08.jpg,A_M_16.jpg,NA,NA,NA,NA,undefined
VwnQBTtC,3r6rzgk0yip7nifkjif6ljfzh4yvyd,3njm2bjs40jj2ffdsgtk7kuq5ptcpd,VwnQBTtC,2020-0188,2020-11-16,16:29:18,16:52:03,NA,NA,instruction example,number,NA,NA,NA,C_M_08.jpg,C_F_06.jpg,A_M_03.jpg,NA,NA,NA,NA,undefined
