workerId,hitId,assignmentId,subject,studyid,exp_date,exp_start,exp_end,time_start,time_end,trial,type,sequence,reward_validity,answer,image_top,image_left,image_right,response,response_time,response_acc,volatility,age,race,gender,ethnicity,color,vision,neuro,practice
TNaOhCfV,3ba7sxog2m30f57lxuc2l92uxdc8rv,3nlzy2d53t2x5vay5618a8am8kdlqv,TNaOhCfV,2020-0188,2020-06-04,12:54:40,13:17:08,NA,incomplete,0,color,0,0,left,Red_Triangle_Grid_2.jpg,Red_Plus_Dots_3.jpg,Green_Star_Chess_2.jpg,left,823.1750000268221,true,NA,NA,NA,NA,NA,NA,NA,NA,true
TNaOhCfV,3ba7sxog2m30f57lxuc2l92uxdc8rv,3nlzy2d53t2x5vay5618a8am8kdlqv,TNaOhCfV,2020-0188,2020-06-04,12:54:40,13:17:08,NA,incomplete,1,color,0,1,right,Purple_Star_Grid_3.jpg,Green_Plus_Chess_3.jpg,Purple_Circle_Dots_4.jpg,right,1514.9850000161678,true,NA,NA,NA,NA,NA,NA,NA,NA,true
TNaOhCfV,3ba7sxog2m30f57lxuc2l92uxdc8rv,3nlzy2d53t2x5vay5618a8am8kdlqv,TNaOhCfV,2020-0188,2020-06-04,12:54:40,13:17:08,NA,incomplete,2,color,0,1,left,Red_Circle_Stripes_2.jpg,Red_Star_Chess_1.jpg,Purple_Triangle_Dots_2.jpg,left,976.0649998206645,true,NA,NA,NA,NA,NA,NA,NA,NA,true
TNaOhCfV,3ba7sxog2m30f57lxuc2l92uxdc8rv,3nlzy2d53t2x5vay5618a8am8kdlqv,TNaOhCfV,2020-0188,2020-06-04,12:54:40,13:17:08,NA,incomplete,3,color,0,0,left,Blue_Plus_Dots_3.jpg,Blue_Circle_Grid_4.jpg,Green_Triangle_Chess_3.jpg,left,882.7600001823157,true,NA,NA,NA,NA,NA,NA,NA,NA,true
TNaOhCfV,3ba7sxog2m30f57lxuc2l92uxdc8rv,3nlzy2d53t2x5vay5618a8am8kdlqv,TNaOhCfV,2020-0188,2020-06-04,12:54:40,13:17:08,NA,incomplete,4,color,0,1,right,Purple_Plus_Chess_4.jpg,Red_Star_Stripes_4.jpg,Purple_Triangle_Grid_3.jpg,right,976.835000095889,true,NA,NA,NA,NA,NA,NA,NA,NA,true
TNaOhCfV,3ba7sxog2m30f57lxuc2l92uxdc8rv,3nlzy2d53t2x5vay5618a8am8kdlqv,TNaOhCfV,2020-0188,2020-06-04,12:54:40,13:17:08,NA,incomplete,5,color,0,1,right,Red_Plus_Dots_4.jpg,Purple_Star_Grid_4.jpg,Red_Triangle_Chess_2.jpg,right,918.5150000266731,true,NA,NA,NA,NA,NA,NA,NA,NA,true
TNaOhCfV,3ba7sxog2m30f57lxuc2l92uxdc8rv,3nlzy2d53t2x5vay5618a8am8kdlqv,TNaOhCfV,2020-0188,2020-06-04,12:54:40,13:17:08,NA,incomplete,6,color,0,1,right,Green_Circle_Chess_4.jpg,Blue_Triangle_Stripes_4.jpg,Green_Plus_Grid_3.jpg,right,1070.5250001046807,true,NA,NA,NA,NA,NA,NA,NA,NA,true
TNaOhCfV,3ba7sxog2m30f57lxuc2l92uxdc8rv,3nlzy2d53t2x5vay5618a8am8kdlqv,TNaOhCfV,2020-0188,2020-06-04,12:54:40,13:17:08,NA,incomplete,7,color,0,1,right,Red_Plus_Dots_2.jpg,Blue_Circle_Grid_2.jpg,Red_Star_Stripes_4.jpg,right,693.5199999716133,true,NA,NA,NA,NA,NA,NA,NA,NA,true
TNaOhCfV,3ba7sxog2m30f57lxuc2l92uxdc8rv,3nlzy2d53t2x5vay5618a8am8kdlqv,TNaOhCfV,2020-0188,2020-06-04,12:54:40,13:17:08,NA,incomplete,8,color,0,1,left,Red_Star_Chess_3.jpg,Red_Triangle_Dots_1.jpg,Purple_Circle_Stripes_3.jpg,left,1118.5050001367927,true,NA,NA,NA,NA,NA,NA,NA,NA,true
TNaOhCfV,3ba7sxog2m30f57lxuc2l92uxdc8rv,3nlzy2d53t2x5vay5618a8am8kdlqv,TNaOhCfV,2020-0188,2020-06-04,12:54:40,13:17:08,NA,incomplete,9,color,0,0,left,Red_Triangle_Grid_4.jpg,Red_Plus_Stripes_1.jpg,Green_Star_Dots_4.jpg,left,906.4599999692291,true,NA,NA,NA,NA,NA,NA,NA,NA,true
TNaOhCfV,3ba7sxog2m30f57lxuc2l92uxdc8rv,3nlzy2d53t2x5vay5618a8am8kdlqv,TNaOhCfV,2020-0188,2020-06-04,12:54:40,13:17:08,NA,incomplete,10,color,0,1,right,Green_Star_Stripes_1.jpg,Red_Circle_Grid_1.jpg,Green_Plus_Dots_3.jpg,right,771.2949998676777,true,NA,NA,NA,NA,NA,NA,NA,NA,true
TNaOhCfV,3ba7sxog2m30f57lxuc2l92uxdc8rv,3nlzy2d53t2x5vay5618a8am8kdlqv,TNaOhCfV,2020-0188,2020-06-04,12:54:40,13:17:08,NA,incomplete,11,color,0,1,left,Green_Circle_Stripes_4.jpg,Green_Plus_Grid_3.jpg,Blue_Star_Dots_4.jpg,left,862.8400000743568,true,NA,NA,NA,NA,NA,NA,NA,NA,true
TNaOhCfV,3ba7sxog2m30f57lxuc2l92uxdc8rv,3nlzy2d53t2x5vay5618a8am8kdlqv,TNaOhCfV,2020-0188,2020-06-04,12:54:40,13:17:08,NA,incomplete,12,color,0,1,right,Blue_Triangle_Grid_3.jpg,Purple_Star_Chess_3.jpg,Blue_Circle_Stripes_2.jpg,right,1061.8999998550862,true,NA,NA,NA,NA,NA,NA,NA,NA,true
TNaOhCfV,3ba7sxog2m30f57lxuc2l92uxdc8rv,3nlzy2d53t2x5vay5618a8am8kdlqv,TNaOhCfV,2020-0188,2020-06-04,12:54:40,13:17:08,NA,incomplete,13,color,0,0,left,Red_Plus_Grid_3.jpg,Red_Triangle_Dots_1.jpg,Blue_Circle_Stripes_3.jpg,left,1198.3000000473112,true,NA,NA,NA,NA,NA,NA,NA,NA,true
TNaOhCfV,3ba7sxog2m30f57lxuc2l92uxdc8rv,3nlzy2d53t2x5vay5618a8am8kdlqv,TNaOhCfV,2020-0188,2020-06-04,12:54:40,13:17:08,NA,incomplete,14,color,0,1,right,Blue_Triangle_Dots_3.jpg,Purple_Circle_Stripes_3.jpg,Blue_Star_Chess_1.jpg,right,912.7500001341105,true,NA,NA,NA,NA,NA,NA,NA,NA,true
TNaOhCfV,3ba7sxog2m30f57lxuc2l92uxdc8rv,3nlzy2d53t2x5vay5618a8am8kdlqv,TNaOhCfV,2020-0188,2020-06-04,12:54:40,13:17:08,NA,incomplete,15,color,0,1,right,Blue_Plus_Chess_4.jpg,Purple_Triangle_Dots_4.jpg,Blue_Circle_Grid_3.jpg,right,743.6049999669194,true,NA,NA,NA,NA,NA,NA,NA,NA,true
TNaOhCfV,3ba7sxog2m30f57lxuc2l92uxdc8rv,3nlzy2d53t2x5vay5618a8am8kdlqv,TNaOhCfV,2020-0188,2020-06-04,12:54:40,13:17:08,NA,incomplete,16,color,0,1,right,Red_Triangle_Stripes_1.jpg,Green_Plus_Grid_1.jpg,Red_Circle_Dots_3.jpg,right,1023.7199999392033,true,NA,NA,NA,NA,NA,NA,NA,NA,true
TNaOhCfV,3ba7sxog2m30f57lxuc2l92uxdc8rv,3nlzy2d53t2x5vay5618a8am8kdlqv,TNaOhCfV,2020-0188,2020-06-04,12:54:40,13:17:08,NA,incomplete,17,color,0,1,right,Red_Plus_Dots_2.jpg,Blue_Star_Grid_2.jpg,Red_Triangle_Stripes_4.jpg,right,925.5949999205768,true,NA,NA,NA,NA,NA,NA,NA,NA,true
TNaOhCfV,3ba7sxog2m30f57lxuc2l92uxdc8rv,3nlzy2d53t2x5vay5618a8am8kdlqv,TNaOhCfV,2020-0188,2020-06-04,12:54:40,13:17:08,NA,incomplete,18,color,0,1,right,Red_Triangle_Stripes_2.jpg,Purple_Plus_Chess_2.jpg,Red_Circle_Grid_3.jpg,right,616.4250001311302,true,NA,NA,NA,NA,NA,NA,NA,NA,true
TNaOhCfV,3ba7sxog2m30f57lxuc2l92uxdc8rv,3nlzy2d53t2x5vay5618a8am8kdlqv,TNaOhCfV,2020-0188,2020-06-04,12:54:40,13:17:08,NA,incomplete,19,color,0,1,left,Green_Plus_Dots_4.jpg,Green_Circle_Chess_1.jpg,Blue_Triangle_Grid_4.jpg,left,850.1150000374764,true,NA,NA,NA,NA,NA,NA,NA,NA,true
TNaOhCfV,3ba7sxog2m30f57lxuc2l92uxdc8rv,3nlzy2d53t2x5vay5618a8am8kdlqv,TNaOhCfV,2020-0188,2020-06-04,12:54:40,13:17:08,NA,incomplete,20,number,1,1,left,Red_Plus_Chess_3.jpg,Purple_Triangle_Dots_3.jpg,Red_Star_Grid_1.jpg,none,0,false,NA,NA,NA,NA,NA,NA,NA,NA,true
TNaOhCfV,3ba7sxog2m30f57lxuc2l92uxdc8rv,3nlzy2d53t2x5vay5618a8am8kdlqv,TNaOhCfV,2020-0188,2020-06-04,12:54:40,13:17:08,NA,incomplete,21,number,1,1,left,Purple_Plus_Grid_1.jpg,Green_Star_Stripes_1.jpg,Purple_Triangle_Chess_3.jpg,left,1150.215000147,true,NA,NA,NA,NA,NA,NA,NA,NA,true
TNaOhCfV,3ba7sxog2m30f57lxuc2l92uxdc8rv,3nlzy2d53t2x5vay5618a8am8kdlqv,TNaOhCfV,2020-0188,2020-06-04,12:54:40,13:17:08,NA,incomplete,22,number,1,1,right,Blue_Circle_Stripes_2.jpg,Blue_Star_Chess_3.jpg,Green_Triangle_Grid_2.jpg,right,1107.4099999386817,true,NA,NA,NA,NA,NA,NA,NA,NA,true
TNaOhCfV,3ba7sxog2m30f57lxuc2l92uxdc8rv,3nlzy2d53t2x5vay5618a8am8kdlqv,TNaOhCfV,2020-0188,2020-06-04,12:54:40,13:17:08,NA,incomplete,23,number,1,1,right,Blue_Triangle_Grid_4.jpg,Blue_Star_Dots_2.jpg,Green_Circle_Chess_4.jpg,right,1326.6699998639524,true,NA,NA,NA,NA,NA,NA,NA,NA,true
TNaOhCfV,3ba7sxog2m30f57lxuc2l92uxdc8rv,3nlzy2d53t2x5vay5618a8am8kdlqv,TNaOhCfV,2020-0188,2020-06-04,12:54:40,13:17:08,NA,incomplete,24,number,1,1,right,Purple_Circle_Dots_4.jpg,Purple_Triangle_Chess_3.jpg,Green_Plus_Stripes_4.jpg,right,1743.904999922961,true,NA,NA,NA,NA,NA,NA,NA,NA,true
TNaOhCfV,3ba7sxog2m30f57lxuc2l92uxdc8rv,3nlzy2d53t2x5vay5618a8am8kdlqv,TNaOhCfV,2020-0188,2020-06-04,12:54:40,13:17:08,NA,incomplete,25,number,1,1,left,Red_Triangle_Grid_2.jpg,Purple_Circle_Dots_2.jpg,Red_Star_Stripes_3.jpg,left,1198.4550000634044,true,NA,NA,NA,NA,NA,NA,NA,NA,true
TNaOhCfV,3ba7sxog2m30f57lxuc2l92uxdc8rv,3nlzy2d53t2x5vay5618a8am8kdlqv,TNaOhCfV,2020-0188,2020-06-04,12:54:40,13:17:08,NA,incomplete,26,number,1,1,right,Blue_Star_Dots_3.jpg,Blue_Triangle_Chess_1.jpg,Red_Circle_Stripes_3.jpg,right,839.464999968186,true,NA,NA,NA,NA,NA,NA,NA,NA,true
TNaOhCfV,3ba7sxog2m30f57lxuc2l92uxdc8rv,3nlzy2d53t2x5vay5618a8am8kdlqv,TNaOhCfV,2020-0188,2020-06-04,12:54:40,13:17:08,NA,incomplete,27,number,1,0,right,Red_Circle_Grid_2.jpg,Red_Triangle_Chess_3.jpg,Green_Star_Dots_2.jpg,right,955.7349998503923,true,NA,NA,NA,NA,NA,NA,NA,NA,true
TNaOhCfV,3ba7sxog2m30f57lxuc2l92uxdc8rv,3nlzy2d53t2x5vay5618a8am8kdlqv,TNaOhCfV,2020-0188,2020-06-04,12:54:40,13:17:08,NA,incomplete,28,number,1,1,left,Blue_Triangle_Stripes_3.jpg,Purple_Star_Grid_3.jpg,Blue_Circle_Dots_2.jpg,left,1203.1849999912083,true,NA,NA,NA,NA,NA,NA,NA,NA,true
TNaOhCfV,3ba7sxog2m30f57lxuc2l92uxdc8rv,3nlzy2d53t2x5vay5618a8am8kdlqv,TNaOhCfV,2020-0188,2020-06-04,12:54:40,13:17:08,NA,incomplete,29,number,1,1,right,Purple_Plus_Grid_2.jpg,Purple_Star_Stripes_3.jpg,Green_Triangle_Chess_2.jpg,right,1359.415000071749,true,NA,NA,NA,NA,NA,NA,NA,NA,true
TNaOhCfV,3ba7sxog2m30f57lxuc2l92uxdc8rv,3nlzy2d53t2x5vay5618a8am8kdlqv,TNaOhCfV,2020-0188,2020-06-04,12:54:40,13:17:08,NA,incomplete,30,number,1,0,right,Green_Star_Grid_3.jpg,Green_Plus_Chess_4.jpg,Red_Triangle_Stripes_3.jpg,right,978.3350001089275,true,NA,NA,NA,NA,NA,NA,NA,NA,true
TNaOhCfV,3ba7sxog2m30f57lxuc2l92uxdc8rv,3nlzy2d53t2x5vay5618a8am8kdlqv,TNaOhCfV,2020-0188,2020-06-04,12:54:40,13:17:08,NA,incomplete,31,number,1,1,left,Purple_Triangle_Dots_2.jpg,Red_Plus_Stripes_2.jpg,Purple_Circle_Chess_1.jpg,left,1184.194999979809,true,NA,NA,NA,NA,NA,NA,NA,NA,true
TNaOhCfV,3ba7sxog2m30f57lxuc2l92uxdc8rv,3nlzy2d53t2x5vay5618a8am8kdlqv,TNaOhCfV,2020-0188,2020-06-04,12:54:40,13:17:08,NA,incomplete,32,number,1,0,right,Red_Circle_Dots_4.jpg,Red_Triangle_Chess_1.jpg,Blue_Plus_Stripes_4.jpg,right,1064.049999928102,true,NA,NA,NA,NA,NA,NA,NA,NA,true
TNaOhCfV,3ba7sxog2m30f57lxuc2l92uxdc8rv,3nlzy2d53t2x5vay5618a8am8kdlqv,TNaOhCfV,2020-0188,2020-06-04,12:54:40,13:17:08,NA,incomplete,33,number,1,1,right,Green_Circle_Chess_1.jpg,Green_Plus_Stripes_3.jpg,Purple_Star_Dots_1.jpg,right,1315.8100000582635,true,NA,NA,NA,NA,NA,NA,NA,NA,true
TNaOhCfV,3ba7sxog2m30f57lxuc2l92uxdc8rv,3nlzy2d53t2x5vay5618a8am8kdlqv,TNaOhCfV,2020-0188,2020-06-04,12:54:40,13:17:08,NA,incomplete,34,number,1,1,left,Blue_Star_Stripes_1.jpg,Green_Triangle_Dots_1.jpg,Blue_Circle_Chess_2.jpg,left,1417.5600002054125,true,NA,NA,NA,NA,NA,NA,NA,NA,true
TNaOhCfV,3ba7sxog2m30f57lxuc2l92uxdc8rv,3nlzy2d53t2x5vay5618a8am8kdlqv,TNaOhCfV,2020-0188,2020-06-04,12:54:40,13:17:08,NA,incomplete,35,number,1,1,right,Red_Plus_Dots_1.jpg,Red_Circle_Chess_4.jpg,Purple_Triangle_Grid_1.jpg,right,1283.9150000363588,true,NA,NA,NA,NA,NA,NA,NA,NA,true
TNaOhCfV,3ba7sxog2m30f57lxuc2l92uxdc8rv,3nlzy2d53t2x5vay5618a8am8kdlqv,TNaOhCfV,2020-0188,2020-06-04,12:54:40,13:17:08,NA,incomplete,36,number,1,1,right,Blue_Circle_Stripes_2.jpg,Blue_Plus_Grid_4.jpg,Red_Star_Dots_2.jpg,right,1203.474999871105,true,NA,NA,NA,NA,NA,NA,NA,NA,true
TNaOhCfV,3ba7sxog2m30f57lxuc2l92uxdc8rv,3nlzy2d53t2x5vay5618a8am8kdlqv,TNaOhCfV,2020-0188,2020-06-04,12:54:40,13:17:08,NA,incomplete,37,number,1,1,right,Blue_Circle_Stripes_2.jpg,Blue_Plus_Grid_1.jpg,Green_Star_Chess_2.jpg,left,1299.0900001022965,false,NA,NA,NA,NA,NA,NA,NA,NA,true
TNaOhCfV,3ba7sxog2m30f57lxuc2l92uxdc8rv,3nlzy2d53t2x5vay5618a8am8kdlqv,TNaOhCfV,2020-0188,2020-06-04,12:54:40,13:17:08,NA,incomplete,38,number,1,0,right,Red_Triangle_Grid_2.jpg,Red_Plus_Chess_3.jpg,Blue_Star_Stripes_2.jpg,right,1055.6699999142438,true,NA,NA,NA,NA,NA,NA,NA,NA,true
TNaOhCfV,3ba7sxog2m30f57lxuc2l92uxdc8rv,3nlzy2d53t2x5vay5618a8am8kdlqv,TNaOhCfV,2020-0188,2020-06-04,12:54:40,13:17:08,NA,incomplete,39,number,1,1,right,Green_Triangle_Stripes_4.jpg,Green_Star_Dots_3.jpg,Red_Plus_Grid_4.jpg,right,973.5049998853356,true,NA,NA,NA,NA,NA,NA,NA,NA,true
TNaOhCfV,3ba7sxog2m30f57lxuc2l92uxdc8rv,3nlzy2d53t2x5vay5618a8am8kdlqv,TNaOhCfV,2020-0188,2020-06-04,12:54:40,13:17:08,NA,incomplete,0,color,0,0,right,Red_Plus_Grid_1.jpg,Green_Circle_Stripes_1.jpg,Red_Triangle_Dots_2.jpg,none,0,false,high,NA,NA,NA,NA,NA,NA,NA,false
TNaOhCfV,3ba7sxog2m30f57lxuc2l92uxdc8rv,3nlzy2d53t2x5vay5618a8am8kdlqv,TNaOhCfV,2020-0188,2020-06-04,12:54:40,13:17:08,NA,incomplete,1,color,0,1,left,Blue_Star_Chess_2.jpg,Blue_Plus_Stripes_4.jpg,Red_Triangle_Dots_2.jpg,right,1123.9199999254197,false,high,NA,NA,NA,NA,NA,NA,NA,false
TNaOhCfV,3ba7sxog2m30f57lxuc2l92uxdc8rv,3nlzy2d53t2x5vay5618a8am8kdlqv,TNaOhCfV,2020-0188,2020-06-04,12:54:40,13:17:08,NA,incomplete,2,color,0,1,right,Green_Triangle_Stripes_4.jpg,Red_Plus_Grid_4.jpg,Green_Circle_Dots_3.jpg,left,970.9700001403689,false,high,NA,NA,NA,NA,NA,NA,NA,false
TNaOhCfV,3ba7sxog2m30f57lxuc2l92uxdc8rv,3nlzy2d53t2x5vay5618a8am8kdlqv,TNaOhCfV,2020-0188,2020-06-04,12:54:40,13:17:08,NA,incomplete,3,color,0,0,right,Red_Star_Chess_3.jpg,Blue_Circle_Stripes_3.jpg,Red_Triangle_Grid_4.jpg,right,834.0800001751631,true,high,NA,NA,NA,NA,NA,NA,NA,false
TNaOhCfV,3ba7sxog2m30f57lxuc2l92uxdc8rv,3nlzy2d53t2x5vay5618a8am8kdlqv,TNaOhCfV,2020-0188,2020-06-04,12:54:40,13:17:08,NA,incomplete,4,color,0,1,right,Red_Plus_Chess_1.jpg,Purple_Circle_Stripes_1.jpg,Red_Star_Dots_2.jpg,left,790.6049999874085,false,high,NA,NA,NA,NA,NA,NA,NA,false
TNaOhCfV,3ba7sxog2m30f57lxuc2l92uxdc8rv,3nlzy2d53t2x5vay5618a8am8kdlqv,TNaOhCfV,2020-0188,2020-06-04,12:54:40,13:17:08,NA,incomplete,5,color,0,1,right,Blue_Plus_Stripes_1.jpg,Green_Star_Grid_1.jpg,Blue_Circle_Dots_4.jpg,right,1216.139999916777,true,high,NA,NA,NA,NA,NA,NA,NA,false
TNaOhCfV,3ba7sxog2m30f57lxuc2l92uxdc8rv,3nlzy2d53t2x5vay5618a8am8kdlqv,TNaOhCfV,2020-0188,2020-06-04,12:54:40,13:17:08,NA,incomplete,6,color,0,1,right,Green_Star_Stripes_2.jpg,Purple_Circle_Dots_2.jpg,Green_Triangle_Grid_1.jpg,right,903.3200000412762,true,high,NA,NA,NA,NA,NA,NA,NA,false
TNaOhCfV,3ba7sxog2m30f57lxuc2l92uxdc8rv,3nlzy2d53t2x5vay5618a8am8kdlqv,TNaOhCfV,2020-0188,2020-06-04,12:54:40,13:17:08,NA,incomplete,7,color,0,0,right,Red_Circle_Dots_1.jpg,Blue_Star_Stripes_1.jpg,Red_Triangle_Chess_3.jpg,right,933.0400000326335,true,high,NA,NA,NA,NA,NA,NA,NA,false
TNaOhCfV,3ba7sxog2m30f57lxuc2l92uxdc8rv,3nlzy2d53t2x5vay5618a8am8kdlqv,TNaOhCfV,2020-0188,2020-06-04,12:54:40,13:17:08,NA,incomplete,8,color,0,1,left,Purple_Triangle_Grid_4.jpg,Purple_Star_Dots_2.jpg,Blue_Plus_Stripes_4.jpg,left,1137.889999896288,true,high,NA,NA,NA,NA,NA,NA,NA,false
TNaOhCfV,3ba7sxog2m30f57lxuc2l92uxdc8rv,3nlzy2d53t2x5vay5618a8am8kdlqv,TNaOhCfV,2020-0188,2020-06-04,12:54:40,13:17:08,NA,incomplete,9,color,0,1,right,Purple_Circle_Stripes_2.jpg,Blue_Triangle_Grid_2.jpg,Purple_Star_Chess_1.jpg,right,1123.3300000894815,true,high,NA,NA,NA,NA,NA,NA,NA,false
TNaOhCfV,3ba7sxog2m30f57lxuc2l92uxdc8rv,3nlzy2d53t2x5vay5618a8am8kdlqv,TNaOhCfV,2020-0188,2020-06-04,12:54:40,13:17:08,NA,incomplete,10,number,1,1,right,Blue_Plus_Stripes_1.jpg,Blue_Star_Chess_4.jpg,Green_Triangle_Dots_1.jpg,left,733.574999962002,false,high,NA,NA,NA,NA,NA,NA,NA,false
TNaOhCfV,3ba7sxog2m30f57lxuc2l92uxdc8rv,3nlzy2d53t2x5vay5618a8am8kdlqv,TNaOhCfV,2020-0188,2020-06-04,12:54:40,13:17:08,NA,incomplete,11,number,1,1,left,Green_Plus_Grid_2.jpg,Blue_Circle_Dots_2.jpg,Green_Triangle_Stripes_1.jpg,right,629.2899998370558,false,high,NA,NA,NA,NA,NA,NA,NA,false
TNaOhCfV,3ba7sxog2m30f57lxuc2l92uxdc8rv,3nlzy2d53t2x5vay5618a8am8kdlqv,TNaOhCfV,2020-0188,2020-06-04,12:54:40,13:17:08,NA,incomplete,12,number,1,1,left,Purple_Circle_Chess_2.jpg,Red_Triangle_Grid_2.jpg,Purple_Star_Dots_3.jpg,right,623.5749998595566,false,high,NA,NA,NA,NA,NA,NA,NA,false
TNaOhCfV,3ba7sxog2m30f57lxuc2l92uxdc8rv,3nlzy2d53t2x5vay5618a8am8kdlqv,TNaOhCfV,2020-0188,2020-06-04,12:54:40,13:17:08,NA,incomplete,13,number,1,0,right,Blue_Plus_Grid_1.jpg,Blue_Star_Stripes_4.jpg,Purple_Triangle_Chess_1.jpg,right,919.7400000412017,true,high,NA,NA,NA,NA,NA,NA,NA,false
TNaOhCfV,3ba7sxog2m30f57lxuc2l92uxdc8rv,3nlzy2d53t2x5vay5618a8am8kdlqv,TNaOhCfV,2020-0188,2020-06-04,12:54:40,13:17:08,NA,incomplete,14,number,1,1,left,Red_Triangle_Stripes_1.jpg,Purple_Plus_Grid_1.jpg,Red_Star_Dots_4.jpg,right,709.1550000477582,false,high,NA,NA,NA,NA,NA,NA,NA,false
TNaOhCfV,3ba7sxog2m30f57lxuc2l92uxdc8rv,3nlzy2d53t2x5vay5618a8am8kdlqv,TNaOhCfV,2020-0188,2020-06-04,12:54:40,13:17:08,NA,incomplete,15,number,1,1,left,Blue_Triangle_Chess_4.jpg,Purple_Plus_Stripes_4.jpg,Blue_Star_Grid_1.jpg,right,847.7300000376999,false,high,NA,NA,NA,NA,NA,NA,NA,false
TNaOhCfV,3ba7sxog2m30f57lxuc2l92uxdc8rv,3nlzy2d53t2x5vay5618a8am8kdlqv,TNaOhCfV,2020-0188,2020-06-04,12:54:40,13:17:08,NA,incomplete,16,number,1,1,right,Red_Plus_Grid_3.jpg,Red_Star_Dots_1.jpg,Green_Triangle_Chess_3.jpg,right,927.1549999248236,true,high,NA,NA,NA,NA,NA,NA,NA,false
TNaOhCfV,3ba7sxog2m30f57lxuc2l92uxdc8rv,3nlzy2d53t2x5vay5618a8am8kdlqv,TNaOhCfV,2020-0188,2020-06-04,12:54:40,13:17:08,NA,incomplete,17,number,1,1,left,Blue_Plus_Dots_1.jpg,Red_Triangle_Stripes_1.jpg,Blue_Star_Chess_2.jpg,left,789.989999961108,true,high,NA,NA,NA,NA,NA,NA,NA,false
TNaOhCfV,3ba7sxog2m30f57lxuc2l92uxdc8rv,3nlzy2d53t2x5vay5618a8am8kdlqv,TNaOhCfV,2020-0188,2020-06-04,12:54:40,13:17:08,NA,incomplete,18,number,1,1,left,Green_Circle_Stripes_4.jpg,Purple_Star_Dots_4.jpg,Green_Plus_Grid_2.jpg,left,845.6999999471009,true,high,NA,NA,NA,NA,NA,NA,NA,false
TNaOhCfV,3ba7sxog2m30f57lxuc2l92uxdc8rv,3nlzy2d53t2x5vay5618a8am8kdlqv,TNaOhCfV,2020-0188,2020-06-04,12:54:40,13:17:08,NA,incomplete,19,number,1,1,right,Red_Circle_Stripes_1.jpg,Red_Plus_Chess_2.jpg,Green_Star_Grid_1.jpg,right,807.9200000502169,true,high,NA,NA,NA,NA,NA,NA,NA,false
TNaOhCfV,3ba7sxog2m30f57lxuc2l92uxdc8rv,3nlzy2d53t2x5vay5618a8am8kdlqv,TNaOhCfV,2020-0188,2020-06-04,12:54:40,13:17:08,NA,incomplete,20,color,0,1,left,Green_Circle_Dots_4.jpg,Green_Plus_Chess_3.jpg,Blue_Triangle_Stripes_4.jpg,right,1001.4250001404434,false,high,NA,NA,NA,NA,NA,NA,NA,false
TNaOhCfV,3ba7sxog2m30f57lxuc2l92uxdc8rv,3nlzy2d53t2x5vay5618a8am8kdlqv,TNaOhCfV,2020-0188,2020-06-04,12:54:40,13:17:08,NA,incomplete,21,color,0,1,right,Red_Triangle_Chess_1.jpg,Green_Plus_Dots_1.jpg,Red_Star_Stripes_3.jpg,left,721.3800000026822,false,high,NA,NA,NA,NA,NA,NA,NA,false
TNaOhCfV,3ba7sxog2m30f57lxuc2l92uxdc8rv,3nlzy2d53t2x5vay5618a8am8kdlqv,TNaOhCfV,2020-0188,2020-06-04,12:54:40,13:17:08,NA,incomplete,22,color,0,1,left,Red_Triangle_Stripes_3.jpg,Red_Star_Dots_2.jpg,Green_Circle_Grid_3.jpg,right,1038.0799998529255,false,high,NA,NA,NA,NA,NA,NA,NA,false
TNaOhCfV,3ba7sxog2m30f57lxuc2l92uxdc8rv,3nlzy2d53t2x5vay5618a8am8kdlqv,TNaOhCfV,2020-0188,2020-06-04,12:54:40,13:17:08,NA,incomplete,23,color,0,0,left,Green_Plus_Dots_3.jpg,Green_Triangle_Chess_1.jpg,Red_Star_Stripes_3.jpg,right,1387.8199998289347,false,high,NA,NA,NA,NA,NA,NA,NA,false
TNaOhCfV,3ba7sxog2m30f57lxuc2l92uxdc8rv,3nlzy2d53t2x5vay5618a8am8kdlqv,TNaOhCfV,2020-0188,2020-06-04,12:54:40,13:17:08,NA,incomplete,24,color,0,1,right,Purple_Star_Chess_2.jpg,Red_Triangle_Grid_2.jpg,Purple_Plus_Stripes_4.jpg,left,892.1450001653284,false,high,NA,NA,NA,NA,NA,NA,NA,false
TNaOhCfV,3ba7sxog2m30f57lxuc2l92uxdc8rv,3nlzy2d53t2x5vay5618a8am8kdlqv,TNaOhCfV,2020-0188,2020-06-04,12:54:40,13:17:08,NA,incomplete,25,color,0,1,left,Green_Star_Dots_2.jpg,Green_Plus_Grid_3.jpg,Blue_Circle_Stripes_2.jpg,right,744.3999999668449,false,high,NA,NA,NA,NA,NA,NA,NA,false
TNaOhCfV,3ba7sxog2m30f57lxuc2l92uxdc8rv,3nlzy2d53t2x5vay5618a8am8kdlqv,TNaOhCfV,2020-0188,2020-06-04,12:54:40,13:17:08,NA,incomplete,26,color,0,1,right,Green_Circle_Dots_2.jpg,Red_Triangle_Grid_2.jpg,Green_Plus_Stripes_3.jpg,right,1133.0800000578165,true,high,NA,NA,NA,NA,NA,NA,NA,false
TNaOhCfV,3ba7sxog2m30f57lxuc2l92uxdc8rv,3nlzy2d53t2x5vay5618a8am8kdlqv,TNaOhCfV,2020-0188,2020-06-04,12:54:40,13:17:08,NA,incomplete,27,color,0,0,right,Purple_Circle_Grid_4.jpg,Blue_Plus_Stripes_4.jpg,Purple_Triangle_Dots_1.jpg,right,607.6299999840558,true,high,NA,NA,NA,NA,NA,NA,NA,false
TNaOhCfV,3ba7sxog2m30f57lxuc2l92uxdc8rv,3nlzy2d53t2x5vay5618a8am8kdlqv,TNaOhCfV,2020-0188,2020-06-04,12:54:40,13:17:08,NA,incomplete,28,color,0,1,left,Blue_Plus_Grid_3.jpg,Blue_Star_Stripes_4.jpg,Purple_Triangle_Dots_3.jpg,left,576.9849999342114,true,high,NA,NA,NA,NA,NA,NA,NA,false
TNaOhCfV,3ba7sxog2m30f57lxuc2l92uxdc8rv,3nlzy2d53t2x5vay5618a8am8kdlqv,TNaOhCfV,2020-0188,2020-06-04,12:54:40,13:17:08,NA,incomplete,29,color,0,1,left,Green_Star_Chess_3.jpg,Green_Plus_Dots_1.jpg,Red_Circle_Stripes_3.jpg,left,944.0549998544157,true,high,NA,NA,NA,NA,NA,NA,NA,false
TNaOhCfV,3ba7sxog2m30f57lxuc2l92uxdc8rv,3nlzy2d53t2x5vay5618a8am8kdlqv,TNaOhCfV,2020-0188,2020-06-04,12:54:40,13:17:08,NA,incomplete,30,number,1,1,left,Green_Star_Grid_4.jpg,Red_Circle_Chess_4.jpg,Green_Plus_Dots_3.jpg,right,716.1550000309944,false,high,NA,NA,NA,NA,NA,NA,NA,false
TNaOhCfV,3ba7sxog2m30f57lxuc2l92uxdc8rv,3nlzy2d53t2x5vay5618a8am8kdlqv,TNaOhCfV,2020-0188,2020-06-04,12:54:40,13:17:08,NA,incomplete,31,number,1,1,right,Red_Circle_Chess_1.jpg,Red_Triangle_Stripes_4.jpg,Blue_Star_Dots_1.jpg,left,536.7450001649559,false,high,NA,NA,NA,NA,NA,NA,NA,false
TNaOhCfV,3ba7sxog2m30f57lxuc2l92uxdc8rv,3nlzy2d53t2x5vay5618a8am8kdlqv,TNaOhCfV,2020-0188,2020-06-04,12:54:40,13:17:08,NA,incomplete,32,number,1,1,left,Green_Circle_Dots_2.jpg,Red_Star_Chess_2.jpg,Green_Plus_Grid_1.jpg,left,769.2650000099093,true,high,NA,NA,NA,NA,NA,NA,NA,false
TNaOhCfV,3ba7sxog2m30f57lxuc2l92uxdc8rv,3nlzy2d53t2x5vay5618a8am8kdlqv,TNaOhCfV,2020-0188,2020-06-04,12:54:40,13:17:08,NA,incomplete,33,number,1,0,left,Purple_Plus_Grid_4.jpg,Red_Triangle_Chess_4.jpg,Purple_Star_Dots_1.jpg,left,776.6400000546128,true,high,NA,NA,NA,NA,NA,NA,NA,false
TNaOhCfV,3ba7sxog2m30f57lxuc2l92uxdc8rv,3nlzy2d53t2x5vay5618a8am8kdlqv,TNaOhCfV,2020-0188,2020-06-04,12:54:40,13:17:08,NA,incomplete,34,number,1,0,left,Red_Plus_Stripes_3.jpg,Blue_Star_Grid_3.jpg,Red_Circle_Dots_2.jpg,left,774.2599998600781,true,high,NA,NA,NA,NA,NA,NA,NA,false
TNaOhCfV,3ba7sxog2m30f57lxuc2l92uxdc8rv,3nlzy2d53t2x5vay5618a8am8kdlqv,TNaOhCfV,2020-0188,2020-06-04,12:54:40,13:17:08,NA,incomplete,35,number,1,0,left,Blue_Circle_Dots_3.jpg,Purple_Star_Grid_3.jpg,Blue_Plus_Stripes_4.jpg,right,522.4849998485297,false,high,NA,NA,NA,NA,NA,NA,NA,false
TNaOhCfV,3ba7sxog2m30f57lxuc2l92uxdc8rv,3nlzy2d53t2x5vay5618a8am8kdlqv,TNaOhCfV,2020-0188,2020-06-04,12:54:40,13:17:08,NA,incomplete,36,number,1,1,right,Green_Triangle_Dots_1.jpg,Green_Circle_Grid_4.jpg,Purple_Star_Stripes_1.jpg,left,691.435000160709,false,high,NA,NA,NA,NA,NA,NA,NA,false
TNaOhCfV,3ba7sxog2m30f57lxuc2l92uxdc8rv,3nlzy2d53t2x5vay5618a8am8kdlqv,TNaOhCfV,2020-0188,2020-06-04,12:54:40,13:17:08,NA,incomplete,37,number,1,1,left,Purple_Plus_Grid_4.jpg,Red_Circle_Dots_4.jpg,Purple_Star_Stripes_1.jpg,left,886.56000001356,true,high,NA,NA,NA,NA,NA,NA,NA,false
TNaOhCfV,3ba7sxog2m30f57lxuc2l92uxdc8rv,3nlzy2d53t2x5vay5618a8am8kdlqv,TNaOhCfV,2020-0188,2020-06-04,12:54:40,13:17:08,NA,incomplete,38,number,1,0,left,Purple_Star_Grid_3.jpg,Red_Plus_Chess_3.jpg,Purple_Circle_Dots_1.jpg,left,791.1249999888241,true,high,NA,NA,NA,NA,NA,NA,NA,false
TNaOhCfV,3ba7sxog2m30f57lxuc2l92uxdc8rv,3nlzy2d53t2x5vay5618a8am8kdlqv,TNaOhCfV,2020-0188,2020-06-04,12:54:40,13:17:08,NA,incomplete,39,number,1,1,right,Red_Circle_Stripes_2.jpg,Red_Plus_Chess_3.jpg,Blue_Triangle_Dots_2.jpg,right,1205.8550000656396,true,high,NA,NA,NA,NA,NA,NA,NA,false
TNaOhCfV,3ba7sxog2m30f57lxuc2l92uxdc8rv,3nlzy2d53t2x5vay5618a8am8kdlqv,TNaOhCfV,2020-0188,2020-06-04,12:54:40,13:17:08,NA,incomplete,40,color,0,1,right,Red_Plus_Stripes_4.jpg,Purple_Triangle_Grid_4.jpg,Red_Circle_Dots_2.jpg,left,625.0499999150634,false,high,NA,NA,NA,NA,NA,NA,NA,false
TNaOhCfV,3ba7sxog2m30f57lxuc2l92uxdc8rv,3nlzy2d53t2x5vay5618a8am8kdlqv,TNaOhCfV,2020-0188,2020-06-04,12:54:40,13:17:08,NA,incomplete,41,color,0,0,right,Blue_Plus_Chess_3.jpg,Green_Star_Stripes_3.jpg,Blue_Circle_Grid_2.jpg,right,739.4300000742078,true,high,NA,NA,NA,NA,NA,NA,NA,false
TNaOhCfV,3ba7sxog2m30f57lxuc2l92uxdc8rv,3nlzy2d53t2x5vay5618a8am8kdlqv,TNaOhCfV,2020-0188,2020-06-04,12:54:40,13:17:08,NA,incomplete,42,color,0,1,left,Red_Triangle_Dots_4.jpg,Red_Circle_Chess_2.jpg,Purple_Star_Grid_4.jpg,right,970.8600000012666,false,high,NA,NA,NA,NA,NA,NA,NA,false
TNaOhCfV,3ba7sxog2m30f57lxuc2l92uxdc8rv,3nlzy2d53t2x5vay5618a8am8kdlqv,TNaOhCfV,2020-0188,2020-06-04,12:54:40,13:17:08,NA,incomplete,43,color,0,1,left,Purple_Circle_Grid_1.jpg,Purple_Star_Stripes_3.jpg,Green_Plus_Chess_1.jpg,left,803.1150000169873,true,high,NA,NA,NA,NA,NA,NA,NA,false
TNaOhCfV,3ba7sxog2m30f57lxuc2l92uxdc8rv,3nlzy2d53t2x5vay5618a8am8kdlqv,TNaOhCfV,2020-0188,2020-06-04,12:54:40,13:17:08,NA,incomplete,44,color,0,1,left,Blue_Circle_Chess_1.jpg,Blue_Triangle_Stripes_3.jpg,Purple_Star_Dots_1.jpg,left,627.1699999924749,true,high,NA,NA,NA,NA,NA,NA,NA,false
TNaOhCfV,3ba7sxog2m30f57lxuc2l92uxdc8rv,3nlzy2d53t2x5vay5618a8am8kdlqv,TNaOhCfV,2020-0188,2020-06-04,12:54:40,13:17:08,NA,incomplete,45,color,0,1,right,Blue_Plus_Chess_2.jpg,Purple_Circle_Dots_2.jpg,Blue_Star_Stripes_3.jpg,right,675.5349999293685,true,high,NA,NA,NA,NA,NA,NA,NA,false
TNaOhCfV,3ba7sxog2m30f57lxuc2l92uxdc8rv,3nlzy2d53t2x5vay5618a8am8kdlqv,TNaOhCfV,2020-0188,2020-06-04,12:54:40,13:17:08,NA,incomplete,46,color,0,1,left,Red_Plus_Dots_4.jpg,Red_Circle_Chess_1.jpg,Blue_Triangle_Grid_4.jpg,left,515.625,true,high,NA,NA,NA,NA,NA,NA,NA,false
TNaOhCfV,3ba7sxog2m30f57lxuc2l92uxdc8rv,3nlzy2d53t2x5vay5618a8am8kdlqv,TNaOhCfV,2020-0188,2020-06-04,12:54:40,13:17:08,NA,incomplete,47,color,0,1,left,Purple_Plus_Dots_1.jpg,Purple_Triangle_Chess_4.jpg,Red_Star_Stripes_1.jpg,left,526.964999968186,true,high,NA,NA,NA,NA,NA,NA,NA,false
TNaOhCfV,3ba7sxog2m30f57lxuc2l92uxdc8rv,3nlzy2d53t2x5vay5618a8am8kdlqv,TNaOhCfV,2020-0188,2020-06-04,12:54:40,13:17:08,NA,incomplete,48,color,0,1,right,Purple_Triangle_Chess_1.jpg,Blue_Star_Stripes_1.jpg,Purple_Plus_Dots_3.jpg,right,535.1550001651049,true,high,NA,NA,NA,NA,NA,NA,NA,false
TNaOhCfV,3ba7sxog2m30f57lxuc2l92uxdc8rv,3nlzy2d53t2x5vay5618a8am8kdlqv,TNaOhCfV,2020-0188,2020-06-04,12:54:40,13:17:08,NA,incomplete,49,color,0,1,right,Red_Triangle_Stripes_1.jpg,Purple_Plus_Chess_1.jpg,Red_Circle_Grid_4.jpg,right,517.0550001785159,true,high,NA,NA,NA,NA,NA,NA,NA,false
TNaOhCfV,3ba7sxog2m30f57lxuc2l92uxdc8rv,3nlzy2d53t2x5vay5618a8am8kdlqv,TNaOhCfV,2020-0188,2020-06-04,12:54:40,13:17:08,NA,incomplete,50,number,1,1,right,Red_Circle_Stripes_4.jpg,Red_Star_Chess_3.jpg,Green_Triangle_Grid_4.jpg,left,458.2499999087304,false,high,NA,NA,NA,NA,NA,NA,NA,false
TNaOhCfV,3ba7sxog2m30f57lxuc2l92uxdc8rv,3nlzy2d53t2x5vay5618a8am8kdlqv,TNaOhCfV,2020-0188,2020-06-04,12:54:40,13:17:08,NA,incomplete,51,number,1,0,left,Purple_Plus_Dots_1.jpg,Red_Circle_Grid_1.jpg,Purple_Star_Stripes_3.jpg,right,919.4799999240786,false,high,NA,NA,NA,NA,NA,NA,NA,false
TNaOhCfV,3ba7sxog2m30f57lxuc2l92uxdc8rv,3nlzy2d53t2x5vay5618a8am8kdlqv,TNaOhCfV,2020-0188,2020-06-04,12:54:40,13:17:08,NA,incomplete,52,number,1,1,left,Green_Plus_Chess_4.jpg,Purple_Star_Stripes_4.jpg,Green_Circle_Dots_2.jpg,right,667.8800000809133,false,high,NA,NA,NA,NA,NA,NA,NA,false
TNaOhCfV,3ba7sxog2m30f57lxuc2l92uxdc8rv,3nlzy2d53t2x5vay5618a8am8kdlqv,TNaOhCfV,2020-0188,2020-06-04,12:54:40,13:17:08,NA,incomplete,53,number,1,1,right,Green_Star_Grid_2.jpg,Green_Triangle_Dots_3.jpg,Red_Plus_Stripes_2.jpg,left,693.0499998852611,false,high,NA,NA,NA,NA,NA,NA,NA,false
TNaOhCfV,3ba7sxog2m30f57lxuc2l92uxdc8rv,3nlzy2d53t2x5vay5618a8am8kdlqv,TNaOhCfV,2020-0188,2020-06-04,12:54:40,13:17:08,NA,incomplete,54,number,1,0,left,Blue_Star_Chess_1.jpg,Purple_Triangle_Grid_1.jpg,Blue_Plus_Dots_2.jpg,left,798.6399999354035,true,high,NA,NA,NA,NA,NA,NA,NA,false
TNaOhCfV,3ba7sxog2m30f57lxuc2l92uxdc8rv,3nlzy2d53t2x5vay5618a8am8kdlqv,TNaOhCfV,2020-0188,2020-06-04,12:54:40,13:17:08,NA,incomplete,55,number,1,1,right,Blue_Circle_Chess_3.jpg,Blue_Plus_Dots_4.jpg,Red_Triangle_Stripes_3.jpg,right,641.2049999926239,true,high,NA,NA,NA,NA,NA,NA,NA,false
TNaOhCfV,3ba7sxog2m30f57lxuc2l92uxdc8rv,3nlzy2d53t2x5vay5618a8am8kdlqv,TNaOhCfV,2020-0188,2020-06-04,12:54:40,13:17:08,NA,incomplete,56,number,1,0,left,Green_Circle_Chess_4.jpg,Red_Triangle_Grid_4.jpg,Green_Star_Dots_3.jpg,left,949.4050000794232,true,high,NA,NA,NA,NA,NA,NA,NA,false
TNaOhCfV,3ba7sxog2m30f57lxuc2l92uxdc8rv,3nlzy2d53t2x5vay5618a8am8kdlqv,TNaOhCfV,2020-0188,2020-06-04,12:54:40,13:17:08,NA,incomplete,57,number,1,1,left,Red_Star_Dots_2.jpg,Purple_Circle_Chess_2.jpg,Red_Triangle_Grid_3.jpg,left,851.3950000051409,true,high,NA,NA,NA,NA,NA,NA,NA,false
TNaOhCfV,3ba7sxog2m30f57lxuc2l92uxdc8rv,3nlzy2d53t2x5vay5618a8am8kdlqv,TNaOhCfV,2020-0188,2020-06-04,12:54:40,13:17:08,NA,incomplete,58,number,1,1,right,Green_Plus_Chess_2.jpg,Green_Star_Dots_3.jpg,Red_Circle_Grid_2.jpg,right,837.2599999420345,true,high,NA,NA,NA,NA,NA,NA,NA,false
TNaOhCfV,3ba7sxog2m30f57lxuc2l92uxdc8rv,3nlzy2d53t2x5vay5618a8am8kdlqv,TNaOhCfV,2020-0188,2020-06-04,12:54:40,13:17:08,NA,incomplete,59,number,1,1,right,Red_Plus_Grid_3.jpg,Red_Circle_Chess_1.jpg,Green_Star_Stripes_3.jpg,right,633.075000019744,true,high,NA,NA,NA,NA,NA,NA,NA,false
TNaOhCfV,3ba7sxog2m30f57lxuc2l92uxdc8rv,3nlzy2d53t2x5vay5618a8am8kdlqv,TNaOhCfV,2020-0188,2020-06-04,12:54:40,13:17:08,NA,incomplete,60,color,0,0,left,Red_Triangle_Chess_3.jpg,Red_Circle_Dots_4.jpg,Green_Star_Stripes_3.jpg,right,611.5149999968708,false,high,NA,NA,NA,NA,NA,NA,NA,false
TNaOhCfV,3ba7sxog2m30f57lxuc2l92uxdc8rv,3nlzy2d53t2x5vay5618a8am8kdlqv,TNaOhCfV,2020-0188,2020-06-04,12:54:40,13:17:08,NA,incomplete,61,color,0,1,right,Red_Circle_Dots_2.jpg,Purple_Star_Chess_2.jpg,Red_Triangle_Grid_3.jpg,right,716.4349998347461,true,high,NA,NA,NA,NA,NA,NA,NA,false
TNaOhCfV,3ba7sxog2m30f57lxuc2l92uxdc8rv,3nlzy2d53t2x5vay5618a8am8kdlqv,TNaOhCfV,2020-0188,2020-06-04,12:54:40,13:17:08,NA,incomplete,62,color,0,1,right,Purple_Star_Grid_2.jpg,Blue_Circle_Dots_2.jpg,Purple_Plus_Chess_3.jpg,right,701.2950000353158,true,high,NA,NA,NA,NA,NA,NA,NA,false
TNaOhCfV,3ba7sxog2m30f57lxuc2l92uxdc8rv,3nlzy2d53t2x5vay5618a8am8kdlqv,TNaOhCfV,2020-0188,2020-06-04,12:54:40,13:17:08,NA,incomplete,63,color,0,0,left,Green_Plus_Dots_4.jpg,Green_Circle_Grid_1.jpg,Red_Triangle_Chess_4.jpg,right,769.3399998825043,false,high,NA,NA,NA,NA,NA,NA,NA,false
TNaOhCfV,3ba7sxog2m30f57lxuc2l92uxdc8rv,3nlzy2d53t2x5vay5618a8am8kdlqv,TNaOhCfV,2020-0188,2020-06-04,12:54:40,13:17:08,NA,incomplete,64,color,0,1,left,Red_Plus_Stripes_1.jpg,Red_Star_Dots_4.jpg,Blue_Circle_Grid_1.jpg,left,773.2049999758601,true,high,NA,NA,NA,NA,NA,NA,NA,false
TNaOhCfV,3ba7sxog2m30f57lxuc2l92uxdc8rv,3nlzy2d53t2x5vay5618a8am8kdlqv,TNaOhCfV,2020-0188,2020-06-04,12:54:40,13:17:08,NA,incomplete,65,color,0,1,left,Red_Circle_Dots_3.jpg,Red_Plus_Chess_2.jpg,Blue_Triangle_Stripes_3.jpg,right,651.7399998847395,false,high,NA,NA,NA,NA,NA,NA,NA,false
TNaOhCfV,3ba7sxog2m30f57lxuc2l92uxdc8rv,3nlzy2d53t2x5vay5618a8am8kdlqv,TNaOhCfV,2020-0188,2020-06-04,12:54:40,13:17:08,NA,incomplete,66,color,0,1,left,Blue_Star_Stripes_4.jpg,Blue_Circle_Grid_2.jpg,Green_Triangle_Dots_4.jpg,left,557.4049998540431,true,high,NA,NA,NA,NA,NA,NA,NA,false
TNaOhCfV,3ba7sxog2m30f57lxuc2l92uxdc8rv,3nlzy2d53t2x5vay5618a8am8kdlqv,TNaOhCfV,2020-0188,2020-06-04,12:54:40,13:17:08,NA,incomplete,67,color,0,1,right,Green_Star_Chess_2.jpg,Blue_Plus_Dots_2.jpg,Green_Circle_Grid_3.jpg,right,453.2749999780208,true,high,NA,NA,NA,NA,NA,NA,NA,false
TNaOhCfV,3ba7sxog2m30f57lxuc2l92uxdc8rv,3nlzy2d53t2x5vay5618a8am8kdlqv,TNaOhCfV,2020-0188,2020-06-04,12:54:40,13:17:08,NA,incomplete,68,color,0,1,right,Purple_Triangle_Stripes_3.jpg,Blue_Circle_Dots_3.jpg,Purple_Star_Chess_4.jpg,right,505.2249999716878,true,high,NA,NA,NA,NA,NA,NA,NA,false
TNaOhCfV,3ba7sxog2m30f57lxuc2l92uxdc8rv,3nlzy2d53t2x5vay5618a8am8kdlqv,TNaOhCfV,2020-0188,2020-06-04,12:54:40,13:17:08,NA,incomplete,69,color,0,1,left,Green_Triangle_Stripes_2.jpg,Green_Circle_Grid_1.jpg,Red_Plus_Dots_2.jpg,left,485.05500005558133,true,high,NA,NA,NA,NA,NA,NA,NA,false
TNaOhCfV,3ba7sxog2m30f57lxuc2l92uxdc8rv,3nlzy2d53t2x5vay5618a8am8kdlqv,TNaOhCfV,2020-0188,2020-06-04,12:54:40,13:17:08,NA,incomplete,70,number,1,1,left,Red_Plus_Stripes_3.jpg,Green_Star_Chess_3.jpg,Red_Triangle_Grid_4.jpg,right,522.4549998529255,false,high,NA,NA,NA,NA,NA,NA,NA,false
TNaOhCfV,3ba7sxog2m30f57lxuc2l92uxdc8rv,3nlzy2d53t2x5vay5618a8am8kdlqv,TNaOhCfV,2020-0188,2020-06-04,12:54:40,13:17:08,NA,incomplete,71,number,1,1,right,Red_Triangle_Dots_1.jpg,Red_Star_Grid_4.jpg,Purple_Plus_Chess_1.jpg,left,889.9599998258054,false,high,NA,NA,NA,NA,NA,NA,NA,false
TNaOhCfV,3ba7sxog2m30f57lxuc2l92uxdc8rv,3nlzy2d53t2x5vay5618a8am8kdlqv,TNaOhCfV,2020-0188,2020-06-04,12:54:40,13:17:08,NA,incomplete,72,number,1,1,left,Purple_Plus_Chess_1.jpg,Green_Star_Grid_1.jpg,Purple_Circle_Stripes_3.jpg,left,1251.325000077486,true,high,NA,NA,NA,NA,NA,NA,NA,false
TNaOhCfV,3ba7sxog2m30f57lxuc2l92uxdc8rv,3nlzy2d53t2x5vay5618a8am8kdlqv,TNaOhCfV,2020-0188,2020-06-04,12:54:40,13:17:08,NA,incomplete,73,number,1,1,right,Blue_Triangle_Grid_1.jpg,Blue_Plus_Stripes_4.jpg,Red_Star_Chess_1.jpg,right,1017.5449999514967,true,high,NA,NA,NA,NA,NA,NA,NA,false
TNaOhCfV,3ba7sxog2m30f57lxuc2l92uxdc8rv,3nlzy2d53t2x5vay5618a8am8kdlqv,TNaOhCfV,2020-0188,2020-06-04,12:54:40,13:17:08,NA,incomplete,74,number,1,1,left,Blue_Circle_Dots_3.jpg,Red_Star_Chess_3.jpg,Blue_Triangle_Grid_4.jpg,left,814.3649999983609,true,high,NA,NA,NA,NA,NA,NA,NA,false
TNaOhCfV,3ba7sxog2m30f57lxuc2l92uxdc8rv,3nlzy2d53t2x5vay5618a8am8kdlqv,TNaOhCfV,2020-0188,2020-06-04,12:54:40,13:17:08,NA,incomplete,75,number,1,1,left,Green_Circle_Dots_4.jpg,Blue_Star_Stripes_4.jpg,Green_Plus_Chess_2.jpg,left,684.7249998245388,true,high,NA,NA,NA,NA,NA,NA,NA,false
TNaOhCfV,3ba7sxog2m30f57lxuc2l92uxdc8rv,3nlzy2d53t2x5vay5618a8am8kdlqv,TNaOhCfV,2020-0188,2020-06-04,12:54:40,13:17:08,NA,incomplete,76,number,1,1,right,Green_Triangle_Grid_3.jpg,Green_Star_Dots_2.jpg,Red_Plus_Stripes_3.jpg,right,826.6799999400973,true,high,NA,NA,NA,NA,NA,NA,NA,false
TNaOhCfV,3ba7sxog2m30f57lxuc2l92uxdc8rv,3nlzy2d53t2x5vay5618a8am8kdlqv,TNaOhCfV,2020-0188,2020-06-04,12:54:40,13:17:08,NA,incomplete,77,number,1,1,right,Purple_Plus_Chess_3.jpg,Purple_Circle_Dots_2.jpg,Green_Star_Grid_3.jpg,right,609.9300000350922,true,high,NA,NA,NA,NA,NA,NA,NA,false
TNaOhCfV,3ba7sxog2m30f57lxuc2l92uxdc8rv,3nlzy2d53t2x5vay5618a8am8kdlqv,TNaOhCfV,2020-0188,2020-06-04,12:54:40,13:17:08,NA,incomplete,78,number,1,1,left,Red_Star_Grid_4.jpg,Green_Triangle_Stripes_4.jpg,Red_Circle_Dots_2.jpg,left,735.954999923706,true,high,NA,NA,NA,NA,NA,NA,NA,false
TNaOhCfV,3ba7sxog2m30f57lxuc2l92uxdc8rv,3nlzy2d53t2x5vay5618a8am8kdlqv,TNaOhCfV,2020-0188,2020-06-04,12:54:40,13:17:08,NA,incomplete,79,number,1,1,left,Blue_Plus_Grid_3.jpg,Purple_Circle_Chess_3.jpg,Blue_Star_Stripes_1.jpg,left,637.6849999651313,true,high,NA,NA,NA,NA,NA,NA,NA,false
TNaOhCfV,3ba7sxog2m30f57lxuc2l92uxdc8rv,3nlzy2d53t2x5vay5618a8am8kdlqv,TNaOhCfV,2020-0188,2020-06-04,12:54:40,13:17:08,NA,incomplete,80,color,0,1,right,Green_Triangle_Dots_4.jpg,Purple_Circle_Grid_4.jpg,Green_Plus_Stripes_3.jpg,left,644.9150000698864,false,high,NA,NA,NA,NA,NA,NA,NA,false
TNaOhCfV,3ba7sxog2m30f57lxuc2l92uxdc8rv,3nlzy2d53t2x5vay5618a8am8kdlqv,TNaOhCfV,2020-0188,2020-06-04,12:54:40,13:17:08,NA,incomplete,81,color,0,0,right,Green_Plus_Grid_3.jpg,Blue_Circle_Stripes_3.jpg,Green_Triangle_Dots_2.jpg,right,905.375000089407,true,high,NA,NA,NA,NA,NA,NA,NA,false
TNaOhCfV,3ba7sxog2m30f57lxuc2l92uxdc8rv,3nlzy2d53t2x5vay5618a8am8kdlqv,TNaOhCfV,2020-0188,2020-06-04,12:54:40,13:17:08,NA,incomplete,82,color,0,1,right,Red_Plus_Stripes_1.jpg,Green_Triangle_Chess_1.jpg,Red_Circle_Grid_2.jpg,left,709.3849999364465,false,high,NA,NA,NA,NA,NA,NA,NA,false
TNaOhCfV,3ba7sxog2m30f57lxuc2l92uxdc8rv,3nlzy2d53t2x5vay5618a8am8kdlqv,TNaOhCfV,2020-0188,2020-06-04,12:54:40,13:17:08,NA,incomplete,83,color,0,0,left,Purple_Star_Stripes_2.jpg,Purple_Triangle_Chess_4.jpg,Blue_Circle_Dots_2.jpg,right,894.9200001079589,false,high,NA,NA,NA,NA,NA,NA,NA,false
TNaOhCfV,3ba7sxog2m30f57lxuc2l92uxdc8rv,3nlzy2d53t2x5vay5618a8am8kdlqv,TNaOhCfV,2020-0188,2020-06-04,12:54:40,13:17:08,NA,incomplete,84,color,0,1,right,Blue_Circle_Grid_1.jpg,Green_Triangle_Chess_1.jpg,Blue_Plus_Stripes_4.jpg,left,665.5350001528859,false,high,NA,NA,NA,NA,NA,NA,NA,false
TNaOhCfV,3ba7sxog2m30f57lxuc2l92uxdc8rv,3nlzy2d53t2x5vay5618a8am8kdlqv,TNaOhCfV,2020-0188,2020-06-04,12:54:40,13:17:08,NA,incomplete,85,color,0,1,left,Blue_Plus_Dots_3.jpg,Blue_Triangle_Stripes_1.jpg,Green_Star_Chess_3.jpg,right,660.050000064075,false,high,NA,NA,NA,NA,NA,NA,NA,false
TNaOhCfV,3ba7sxog2m30f57lxuc2l92uxdc8rv,3nlzy2d53t2x5vay5618a8am8kdlqv,TNaOhCfV,2020-0188,2020-06-04,12:54:40,13:17:08,NA,incomplete,86,color,0,0,right,Red_Plus_Dots_2.jpg,Green_Star_Stripes_2.jpg,Red_Circle_Grid_3.jpg,right,710.4299999773502,true,high,NA,NA,NA,NA,NA,NA,NA,false
TNaOhCfV,3ba7sxog2m30f57lxuc2l92uxdc8rv,3nlzy2d53t2x5vay5618a8am8kdlqv,TNaOhCfV,2020-0188,2020-06-04,12:54:40,13:17:08,NA,incomplete,87,color,0,1,left,Green_Star_Stripes_1.jpg,Green_Plus_Chess_3.jpg,Blue_Triangle_Dots_1.jpg,left,541.7700000107288,true,high,NA,NA,NA,NA,NA,NA,NA,false
TNaOhCfV,3ba7sxog2m30f57lxuc2l92uxdc8rv,3nlzy2d53t2x5vay5618a8am8kdlqv,TNaOhCfV,2020-0188,2020-06-04,12:54:40,13:17:08,NA,incomplete,88,color,0,1,right,Blue_Circle_Grid_1.jpg,Purple_Triangle_Dots_1.jpg,Blue_Star_Stripes_2.jpg,right,915.6300001777709,true,high,NA,NA,NA,NA,NA,NA,NA,false
TNaOhCfV,3ba7sxog2m30f57lxuc2l92uxdc8rv,3nlzy2d53t2x5vay5618a8am8kdlqv,TNaOhCfV,2020-0188,2020-06-04,12:54:40,13:17:08,NA,incomplete,89,color,0,0,right,Blue_Circle_Chess_4.jpg,Purple_Plus_Grid_4.jpg,Blue_Triangle_Stripes_3.jpg,right,433.5950000677258,true,high,NA,NA,NA,NA,NA,NA,NA,false
TNaOhCfV,3ba7sxog2m30f57lxuc2l92uxdc8rv,3nlzy2d53t2x5vay5618a8am8kdlqv,TNaOhCfV,2020-0188,2020-06-04,12:54:40,13:17:08,NA,incomplete,90,number,1,1,left,Red_Circle_Dots_3.jpg,Green_Triangle_Stripes_3.jpg,Red_Star_Grid_1.jpg,left,770.7000002264977,true,high,NA,NA,NA,NA,NA,NA,NA,false
TNaOhCfV,3ba7sxog2m30f57lxuc2l92uxdc8rv,3nlzy2d53t2x5vay5618a8am8kdlqv,TNaOhCfV,2020-0188,2020-06-04,12:54:40,13:17:08,NA,incomplete,91,number,1,1,right,Blue_Circle_Dots_4.jpg,Blue_Triangle_Grid_2.jpg,Red_Star_Chess_4.jpg,right,803.3049998339266,true,high,NA,NA,NA,NA,NA,NA,NA,false
TNaOhCfV,3ba7sxog2m30f57lxuc2l92uxdc8rv,3nlzy2d53t2x5vay5618a8am8kdlqv,TNaOhCfV,2020-0188,2020-06-04,12:54:40,13:17:08,NA,incomplete,92,number,1,1,right,Purple_Triangle_Chess_4.jpg,Purple_Plus_Stripes_3.jpg,Red_Star_Dots_4.jpg,left,673.1750001199543,false,high,NA,NA,NA,NA,NA,NA,NA,false
TNaOhCfV,3ba7sxog2m30f57lxuc2l92uxdc8rv,3nlzy2d53t2x5vay5618a8am8kdlqv,TNaOhCfV,2020-0188,2020-06-04,12:54:40,13:17:08,NA,incomplete,93,number,1,1,right,Red_Star_Chess_4.jpg,Red_Plus_Grid_1.jpg,Green_Triangle_Stripes_4.jpg,right,677.8250001370907,true,high,NA,NA,NA,NA,NA,NA,NA,false
TNaOhCfV,3ba7sxog2m30f57lxuc2l92uxdc8rv,3nlzy2d53t2x5vay5618a8am8kdlqv,TNaOhCfV,2020-0188,2020-06-04,12:54:40,13:17:08,NA,incomplete,94,number,1,1,left,Green_Star_Chess_1.jpg,Purple_Circle_Dots_1.jpg,Green_Triangle_Stripes_4.jpg,left,719.6499998681247,true,high,NA,NA,NA,NA,NA,NA,NA,false
TNaOhCfV,3ba7sxog2m30f57lxuc2l92uxdc8rv,3nlzy2d53t2x5vay5618a8am8kdlqv,TNaOhCfV,2020-0188,2020-06-04,12:54:40,13:17:08,NA,incomplete,95,number,1,1,right,Purple_Star_Grid_3.jpg,Purple_Plus_Chess_1.jpg,Green_Triangle_Dots_3.jpg,right,758.075000019744,true,high,NA,NA,NA,NA,NA,NA,NA,false
TNaOhCfV,3ba7sxog2m30f57lxuc2l92uxdc8rv,3nlzy2d53t2x5vay5618a8am8kdlqv,TNaOhCfV,2020-0188,2020-06-04,12:54:40,13:17:08,NA,incomplete,96,number,1,0,right,Blue_Circle_Chess_2.jpg,Blue_Star_Stripes_4.jpg,Purple_Plus_Dots_2.jpg,right,841.9699999503791,true,high,NA,NA,NA,NA,NA,NA,NA,false
TNaOhCfV,3ba7sxog2m30f57lxuc2l92uxdc8rv,3nlzy2d53t2x5vay5618a8am8kdlqv,TNaOhCfV,2020-0188,2020-06-04,12:54:40,13:17:08,NA,incomplete,97,number,1,1,left,Green_Triangle_Stripes_3.jpg,Blue_Circle_Grid_3.jpg,Green_Star_Chess_4.jpg,right,654.6199999283999,false,high,NA,NA,NA,NA,NA,NA,NA,false
TNaOhCfV,3ba7sxog2m30f57lxuc2l92uxdc8rv,3nlzy2d53t2x5vay5618a8am8kdlqv,TNaOhCfV,2020-0188,2020-06-04,12:54:40,13:17:08,NA,incomplete,98,number,1,1,left,Blue_Plus_Chess_3.jpg,Green_Triangle_Dots_3.jpg,Blue_Circle_Grid_4.jpg,left,846.794999903068,true,high,NA,NA,NA,NA,NA,NA,NA,false
TNaOhCfV,3ba7sxog2m30f57lxuc2l92uxdc8rv,3nlzy2d53t2x5vay5618a8am8kdlqv,TNaOhCfV,2020-0188,2020-06-04,12:54:40,13:17:08,NA,incomplete,99,number,1,1,left,Blue_Star_Grid_1.jpg,Purple_Triangle_Chess_1.jpg,Blue_Plus_Dots_4.jpg,left,755.295000039041,true,high,NA,NA,NA,NA,NA,NA,NA,false
TNaOhCfV,3ba7sxog2m30f57lxuc2l92uxdc8rv,3nlzy2d53t2x5vay5618a8am8kdlqv,TNaOhCfV,2020-0188,2020-06-04,12:54:40,13:17:08,NA,incomplete,100,color,0,1,left,Blue_Plus_Grid_3.jpg,Blue_Triangle_Dots_1.jpg,Red_Star_Stripes_3.jpg,right,908.2600001711398,false,high,NA,NA,NA,NA,NA,NA,NA,false
TNaOhCfV,3ba7sxog2m30f57lxuc2l92uxdc8rv,3nlzy2d53t2x5vay5618a8am8kdlqv,TNaOhCfV,2020-0188,2020-06-04,12:54:40,13:17:08,NA,incomplete,101,color,0,1,left,Purple_Triangle_Grid_2.jpg,Purple_Star_Stripes_1.jpg,Red_Circle_Chess_2.jpg,right,852.2000000812113,false,high,NA,NA,NA,NA,NA,NA,NA,false
TNaOhCfV,3ba7sxog2m30f57lxuc2l92uxdc8rv,3nlzy2d53t2x5vay5618a8am8kdlqv,TNaOhCfV,2020-0188,2020-06-04,12:54:40,13:17:08,NA,incomplete,102,color,0,1,right,Purple_Plus_Grid_3.jpg,Red_Circle_Chess_3.jpg,Purple_Star_Stripes_1.jpg,right,1120.3000000678003,true,high,NA,NA,NA,NA,NA,NA,NA,false
TNaOhCfV,3ba7sxog2m30f57lxuc2l92uxdc8rv,3nlzy2d53t2x5vay5618a8am8kdlqv,TNaOhCfV,2020-0188,2020-06-04,12:54:40,13:17:08,NA,incomplete,103,color,0,0,right,Purple_Star_Dots_3.jpg,Green_Plus_Grid_3.jpg,Purple_Triangle_Stripes_4.jpg,right,713.8300000224262,true,high,NA,NA,NA,NA,NA,NA,NA,false
TNaOhCfV,3ba7sxog2m30f57lxuc2l92uxdc8rv,3nlzy2d53t2x5vay5618a8am8kdlqv,TNaOhCfV,2020-0188,2020-06-04,12:54:40,13:17:08,NA,incomplete,104,color,0,1,right,Red_Triangle_Dots_4.jpg,Green_Plus_Grid_4.jpg,Red_Circle_Chess_2.jpg,right,541.2749999668449,true,high,NA,NA,NA,NA,NA,NA,NA,false
TNaOhCfV,3ba7sxog2m30f57lxuc2l92uxdc8rv,3nlzy2d53t2x5vay5618a8am8kdlqv,TNaOhCfV,2020-0188,2020-06-04,12:54:40,13:17:08,NA,incomplete,105,color,0,1,right,Purple_Circle_Stripes_3.jpg,Green_Plus_Chess_3.jpg,Purple_Triangle_Dots_1.jpg,right,847.7900000289083,true,high,NA,NA,NA,NA,NA,NA,NA,false
TNaOhCfV,3ba7sxog2m30f57lxuc2l92uxdc8rv,3nlzy2d53t2x5vay5618a8am8kdlqv,TNaOhCfV,2020-0188,2020-06-04,12:54:40,13:17:08,NA,incomplete,106,color,0,1,left,Purple_Circle_Grid_4.jpg,Purple_Triangle_Chess_2.jpg,Green_Star_Stripes_4.jpg,right,1061.710000038147,false,high,NA,NA,NA,NA,NA,NA,NA,false
TNaOhCfV,3ba7sxog2m30f57lxuc2l92uxdc8rv,3nlzy2d53t2x5vay5618a8am8kdlqv,TNaOhCfV,2020-0188,2020-06-04,12:54:40,13:17:08,NA,incomplete,107,color,0,0,right,Blue_Triangle_Grid_2.jpg,Green_Circle_Chess_2.jpg,Blue_Plus_Dots_3.jpg,right,677.1549999248236,true,high,NA,NA,NA,NA,NA,NA,NA,false
TNaOhCfV,3ba7sxog2m30f57lxuc2l92uxdc8rv,3nlzy2d53t2x5vay5618a8am8kdlqv,TNaOhCfV,2020-0188,2020-06-04,12:54:40,13:17:08,NA,incomplete,108,color,0,1,right,Green_Circle_Grid_2.jpg,Red_Plus_Chess_2.jpg,Green_Star_Stripes_3.jpg,right,522.3699999041855,true,high,NA,NA,NA,NA,NA,NA,NA,false
TNaOhCfV,3ba7sxog2m30f57lxuc2l92uxdc8rv,3nlzy2d53t2x5vay5618a8am8kdlqv,TNaOhCfV,2020-0188,2020-06-04,12:54:40,13:17:08,NA,incomplete,109,color,0,1,right,Blue_Triangle_Dots_4.jpg,Green_Plus_Stripes_4.jpg,Blue_Star_Grid_2.jpg,right,903.334999922663,true,high,NA,NA,NA,NA,NA,NA,NA,false
TNaOhCfV,3ba7sxog2m30f57lxuc2l92uxdc8rv,3nlzy2d53t2x5vay5618a8am8kdlqv,TNaOhCfV,2020-0188,2020-06-04,12:54:40,13:17:08,NA,incomplete,110,number,1,1,right,Red_Triangle_Dots_2.jpg,Red_Plus_Grid_3.jpg,Blue_Circle_Chess_2.jpg,left,698.1500000692904,false,high,NA,NA,NA,NA,NA,NA,NA,false
TNaOhCfV,3ba7sxog2m30f57lxuc2l92uxdc8rv,3nlzy2d53t2x5vay5618a8am8kdlqv,TNaOhCfV,2020-0188,2020-06-04,12:54:40,13:17:08,NA,incomplete,111,number,1,0,right,Red_Triangle_Grid_3.jpg,Red_Circle_Stripes_1.jpg,Blue_Star_Chess_3.jpg,left,973.9299998618662,false,high,NA,NA,NA,NA,NA,NA,NA,false
TNaOhCfV,3ba7sxog2m30f57lxuc2l92uxdc8rv,3nlzy2d53t2x5vay5618a8am8kdlqv,TNaOhCfV,2020-0188,2020-06-04,12:54:40,13:17:08,NA,incomplete,112,number,1,1,left,Red_Circle_Grid_4.jpg,Purple_Triangle_Dots_4.jpg,Red_Plus_Stripes_2.jpg,right,761.9149999227375,false,high,NA,NA,NA,NA,NA,NA,NA,false
TNaOhCfV,3ba7sxog2m30f57lxuc2l92uxdc8rv,3nlzy2d53t2x5vay5618a8am8kdlqv,TNaOhCfV,2020-0188,2020-06-04,12:54:40,13:17:08,NA,incomplete,113,number,1,1,right,Blue_Star_Dots_1.jpg,Blue_Triangle_Chess_4.jpg,Purple_Plus_Grid_1.jpg,left,693.3550001122057,false,high,NA,NA,NA,NA,NA,NA,NA,false
TNaOhCfV,3ba7sxog2m30f57lxuc2l92uxdc8rv,3nlzy2d53t2x5vay5618a8am8kdlqv,TNaOhCfV,2020-0188,2020-06-04,12:54:40,13:17:08,NA,incomplete,114,number,1,1,right,Green_Triangle_Stripes_3.jpg,Green_Plus_Grid_4.jpg,Purple_Circle_Dots_3.jpg,left,792.769999941811,false,high,NA,NA,NA,NA,NA,NA,NA,false
TNaOhCfV,3ba7sxog2m30f57lxuc2l92uxdc8rv,3nlzy2d53t2x5vay5618a8am8kdlqv,TNaOhCfV,2020-0188,2020-06-04,12:54:40,13:17:08,NA,incomplete,115,number,1,1,left,Purple_Star_Grid_3.jpg,Green_Circle_Stripes_3.jpg,Purple_Plus_Chess_4.jpg,left,885.6849998701364,true,high,NA,NA,NA,NA,NA,NA,NA,false
TNaOhCfV,3ba7sxog2m30f57lxuc2l92uxdc8rv,3nlzy2d53t2x5vay5618a8am8kdlqv,TNaOhCfV,2020-0188,2020-06-04,12:54:40,13:17:08,NA,incomplete,116,number,1,1,left,Red_Circle_Chess_4.jpg,Blue_Star_Dots_4.jpg,Red_Triangle_Stripes_1.jpg,left,638.8600000645965,true,high,NA,NA,NA,NA,NA,NA,NA,false
TNaOhCfV,3ba7sxog2m30f57lxuc2l92uxdc8rv,3nlzy2d53t2x5vay5618a8am8kdlqv,TNaOhCfV,2020-0188,2020-06-04,12:54:40,13:17:08,NA,incomplete,117,number,1,1,right,Red_Star_Stripes_3.jpg,Red_Triangle_Grid_2.jpg,Purple_Plus_Dots_3.jpg,right,747.4799999035895,true,high,NA,NA,NA,NA,NA,NA,NA,false
TNaOhCfV,3ba7sxog2m30f57lxuc2l92uxdc8rv,3nlzy2d53t2x5vay5618a8am8kdlqv,TNaOhCfV,2020-0188,2020-06-04,12:54:40,13:17:08,NA,incomplete,118,number,1,1,right,Green_Circle_Chess_3.jpg,Green_Plus_Grid_2.jpg,Blue_Triangle_Dots_3.jpg,right,595.6300001125783,true,high,NA,NA,NA,NA,NA,NA,NA,false
TNaOhCfV,3ba7sxog2m30f57lxuc2l92uxdc8rv,3nlzy2d53t2x5vay5618a8am8kdlqv,TNaOhCfV,2020-0188,2020-06-04,12:54:40,13:17:08,NA,incomplete,119,number,1,1,right,Purple_Triangle_Stripes_2.jpg,Purple_Circle_Chess_3.jpg,Blue_Plus_Dots_2.jpg,right,1466.0249999724329,true,high,NA,NA,NA,NA,NA,NA,NA,false
TNaOhCfV,3ba7sxog2m30f57lxuc2l92uxdc8rv,3nlzy2d53t2x5vay5618a8am8kdlqv,TNaOhCfV,2020-0188,2020-06-04,12:54:40,13:17:08,NA,incomplete,120,gender,2,1,left,C_F_16.jpg,A_F_08.jpg,C_M_10.jpg,NA,NA,NA,high,NA,NA,NA,NA,NA,NA,NA,false
TNaOhCfV,3ba7sxog2m30f57lxuc2l92uxdc8rv,3nlzy2d53t2x5vay5618a8am8kdlqv,TNaOhCfV,2020-0188,2020-06-04,12:54:40,13:17:08,NA,incomplete,121,gender,2,1,left,C_M_02.jpg,A_M_09.jpg,C_F_11.jpg,left,1065.5799999367446,true,high,NA,NA,NA,NA,NA,NA,NA,false
TNaOhCfV,3ba7sxog2m30f57lxuc2l92uxdc8rv,3nlzy2d53t2x5vay5618a8am8kdlqv,TNaOhCfV,2020-0188,2020-06-04,12:54:40,13:17:08,NA,incomplete,122,gender,2,1,left,C_M_08.jpg,A_M_03.jpg,C_F_10.jpg,left,1060.215000063181,true,high,NA,NA,NA,NA,NA,NA,NA,false
TNaOhCfV,3ba7sxog2m30f57lxuc2l92uxdc8rv,3nlzy2d53t2x5vay5618a8am8kdlqv,TNaOhCfV,2020-0188,2020-06-04,12:54:40,13:17:08,NA,incomplete,123,gender,2,1,right,A_F_12.jpg,A_M_11.jpg,C_F_16.jpg,right,1083.0600000917912,true,high,NA,NA,NA,NA,NA,NA,NA,false
TNaOhCfV,3ba7sxog2m30f57lxuc2l92uxdc8rv,3nlzy2d53t2x5vay5618a8am8kdlqv,TNaOhCfV,2020-0188,2020-06-04,12:54:40,13:17:08,NA,incomplete,124,gender,2,1,left,A_F_07.jpg,C_F_09.jpg,A_M_15.jpg,left,1168.2799998670816,true,high,NA,NA,NA,NA,NA,NA,NA,false
TNaOhCfV,3ba7sxog2m30f57lxuc2l92uxdc8rv,3nlzy2d53t2x5vay5618a8am8kdlqv,TNaOhCfV,2020-0188,2020-06-04,12:54:40,13:17:08,NA,incomplete,125,gender,2,1,left,C_M_09.jpg,A_M_08.jpg,C_F_14.jpg,right,1191.0000001080334,false,high,NA,NA,NA,NA,NA,NA,NA,false
TNaOhCfV,3ba7sxog2m30f57lxuc2l92uxdc8rv,3nlzy2d53t2x5vay5618a8am8kdlqv,TNaOhCfV,2020-0188,2020-06-04,12:54:40,13:17:08,NA,incomplete,126,gender,2,1,right,C_M_12.jpg,C_F_03.jpg,A_M_01.jpg,right,1090.1750000193715,true,high,NA,NA,NA,NA,NA,NA,NA,false
TNaOhCfV,3ba7sxog2m30f57lxuc2l92uxdc8rv,3nlzy2d53t2x5vay5618a8am8kdlqv,TNaOhCfV,2020-0188,2020-06-04,12:54:40,13:17:08,NA,incomplete,127,gender,2,0,right,C_F_08.jpg,C_M_02.jpg,A_F_16.jpg,right,1049.8200000729412,true,high,NA,NA,NA,NA,NA,NA,NA,false
TNaOhCfV,3ba7sxog2m30f57lxuc2l92uxdc8rv,3nlzy2d53t2x5vay5618a8am8kdlqv,TNaOhCfV,2020-0188,2020-06-04,12:54:40,13:17:08,NA,incomplete,128,gender,2,1,right,A_M_14.jpg,A_F_16.jpg,C_M_15.jpg,left,888.6249999050051,false,high,NA,NA,NA,NA,NA,NA,NA,false
TNaOhCfV,3ba7sxog2m30f57lxuc2l92uxdc8rv,3nlzy2d53t2x5vay5618a8am8kdlqv,TNaOhCfV,2020-0188,2020-06-04,12:54:40,13:17:08,NA,incomplete,129,gender,2,1,left,A_F_03.jpg,C_F_07.jpg,A_M_10.jpg,left,1319.9350000359118,true,high,NA,NA,NA,NA,NA,NA,NA,false
TNaOhCfV,3ba7sxog2m30f57lxuc2l92uxdc8rv,3nlzy2d53t2x5vay5618a8am8kdlqv,TNaOhCfV,2020-0188,2020-06-04,12:54:40,13:17:08,NA,incomplete,130,gender,2,1,right,A_F_13.jpg,A_M_16.jpg,C_F_03.jpg,right,970.8050000481308,true,high,NA,NA,NA,NA,NA,NA,NA,false
TNaOhCfV,3ba7sxog2m30f57lxuc2l92uxdc8rv,3nlzy2d53t2x5vay5618a8am8kdlqv,TNaOhCfV,2020-0188,2020-06-04,12:54:40,13:17:08,NA,incomplete,131,gender,2,1,right,C_F_01.jpg,C_M_04.jpg,A_F_02.jpg,right,1030.6250001303852,true,high,NA,NA,NA,NA,NA,NA,NA,false
TNaOhCfV,3ba7sxog2m30f57lxuc2l92uxdc8rv,3nlzy2d53t2x5vay5618a8am8kdlqv,TNaOhCfV,2020-0188,2020-06-04,12:54:40,13:17:08,NA,incomplete,132,gender,2,1,left,C_M_10.jpg,A_M_13.jpg,C_F_15.jpg,left,934.1049999929965,true,high,NA,NA,NA,NA,NA,NA,NA,false
TNaOhCfV,3ba7sxog2m30f57lxuc2l92uxdc8rv,3nlzy2d53t2x5vay5618a8am8kdlqv,TNaOhCfV,2020-0188,2020-06-04,12:54:40,13:17:08,NA,incomplete,133,gender,2,1,right,A_F_01.jpg,A_M_03.jpg,C_F_13.jpg,right,1022.1750000491738,true,high,NA,NA,NA,NA,NA,NA,NA,false
TNaOhCfV,3ba7sxog2m30f57lxuc2l92uxdc8rv,3nlzy2d53t2x5vay5618a8am8kdlqv,TNaOhCfV,2020-0188,2020-06-04,12:54:40,13:17:08,NA,incomplete,134,gender,2,1,right,A_M_08.jpg,A_F_10.jpg,C_M_12.jpg,right,868.7149998731911,true,high,NA,NA,NA,NA,NA,NA,NA,false
TNaOhCfV,3ba7sxog2m30f57lxuc2l92uxdc8rv,3nlzy2d53t2x5vay5618a8am8kdlqv,TNaOhCfV,2020-0188,2020-06-04,12:54:40,13:17:08,NA,incomplete,135,gender,2,1,left,C_M_02.jpg,A_M_14.jpg,C_F_05.jpg,left,825.609999941662,true,high,NA,NA,NA,NA,NA,NA,NA,false
TNaOhCfV,3ba7sxog2m30f57lxuc2l92uxdc8rv,3nlzy2d53t2x5vay5618a8am8kdlqv,TNaOhCfV,2020-0188,2020-06-04,12:54:40,13:17:08,NA,incomplete,136,gender,2,0,right,A_M_02.jpg,A_F_07.jpg,C_M_12.jpg,right,855.5649998597801,true,high,NA,NA,NA,NA,NA,NA,NA,false
TNaOhCfV,3ba7sxog2m30f57lxuc2l92uxdc8rv,3nlzy2d53t2x5vay5618a8am8kdlqv,TNaOhCfV,2020-0188,2020-06-04,12:54:40,13:17:08,NA,incomplete,137,gender,2,1,right,A_M_10.jpg,A_F_14.jpg,C_M_12.jpg,left,1318.5649998486042,false,high,NA,NA,NA,NA,NA,NA,NA,false
TNaOhCfV,3ba7sxog2m30f57lxuc2l92uxdc8rv,3nlzy2d53t2x5vay5618a8am8kdlqv,TNaOhCfV,2020-0188,2020-06-04,12:54:40,13:17:08,NA,incomplete,138,gender,2,1,left,A_F_01.jpg,C_F_08.jpg,A_M_04.jpg,right,916.6650001425296,false,high,NA,NA,NA,NA,NA,NA,NA,false
TNaOhCfV,3ba7sxog2m30f57lxuc2l92uxdc8rv,3nlzy2d53t2x5vay5618a8am8kdlqv,TNaOhCfV,2020-0188,2020-06-04,12:54:40,13:17:08,NA,incomplete,139,gender,2,0,left,C_F_07.jpg,A_F_03.jpg,C_M_15.jpg,left,1045.9750001318753,true,high,NA,NA,NA,NA,NA,NA,NA,false
TNaOhCfV,3ba7sxog2m30f57lxuc2l92uxdc8rv,3nlzy2d53t2x5vay5618a8am8kdlqv,TNaOhCfV,2020-0188,2020-06-04,12:54:40,13:17:08,NA,incomplete,140,race,3,1,right,C_M_03.jpg,A_M_04.jpg,C_F_01.jpg,right,1028.470000019297,true,high,NA,NA,NA,NA,NA,NA,NA,false
TNaOhCfV,3ba7sxog2m30f57lxuc2l92uxdc8rv,3nlzy2d53t2x5vay5618a8am8kdlqv,TNaOhCfV,2020-0188,2020-06-04,12:54:40,13:17:08,NA,incomplete,141,race,3,1,left,C_F_03.jpg,C_M_10.jpg,A_F_01.jpg,left,1145.429999800399,true,high,NA,NA,NA,NA,NA,NA,NA,false
TNaOhCfV,3ba7sxog2m30f57lxuc2l92uxdc8rv,3nlzy2d53t2x5vay5618a8am8kdlqv,TNaOhCfV,2020-0188,2020-06-04,12:54:40,13:17:08,NA,incomplete,142,race,3,1,left,A_F_16.jpg,A_M_02.jpg,C_F_09.jpg,left,1157.2549999691546,true,high,NA,NA,NA,NA,NA,NA,NA,false
TNaOhCfV,3ba7sxog2m30f57lxuc2l92uxdc8rv,3nlzy2d53t2x5vay5618a8am8kdlqv,TNaOhCfV,2020-0188,2020-06-04,12:54:40,13:17:08,NA,incomplete,143,race,3,0,left,A_M_08.jpg,A_F_01.jpg,C_M_04.jpg,left,1112.6000001095235,true,high,NA,NA,NA,NA,NA,NA,NA,false
TNaOhCfV,3ba7sxog2m30f57lxuc2l92uxdc8rv,3nlzy2d53t2x5vay5618a8am8kdlqv,TNaOhCfV,2020-0188,2020-06-04,12:54:40,13:17:08,NA,incomplete,144,race,3,1,left,A_M_03.jpg,A_F_02.jpg,C_M_05.jpg,left,1185.8700001612306,true,high,NA,NA,NA,NA,NA,NA,NA,false
TNaOhCfV,3ba7sxog2m30f57lxuc2l92uxdc8rv,3nlzy2d53t2x5vay5618a8am8kdlqv,TNaOhCfV,2020-0188,2020-06-04,12:54:40,13:17:08,NA,incomplete,145,race,3,1,left,A_M_14.jpg,A_F_16.jpg,C_M_04.jpg,left,1250.9949998930097,true,high,NA,NA,NA,NA,NA,NA,NA,false
TNaOhCfV,3ba7sxog2m30f57lxuc2l92uxdc8rv,3nlzy2d53t2x5vay5618a8am8kdlqv,TNaOhCfV,2020-0188,2020-06-04,12:54:40,13:17:08,NA,incomplete,146,race,3,1,right,A_M_04.jpg,C_M_16.jpg,A_F_03.jpg,right,1502.1049999631941,true,high,NA,NA,NA,NA,NA,NA,NA,false
TNaOhCfV,3ba7sxog2m30f57lxuc2l92uxdc8rv,3nlzy2d53t2x5vay5618a8am8kdlqv,TNaOhCfV,2020-0188,2020-06-04,12:54:40,13:17:08,NA,incomplete,147,race,3,0,left,A_F_13.jpg,A_M_05.jpg,C_F_04.jpg,left,1450.2049998845905,true,high,NA,NA,NA,NA,NA,NA,NA,false
TNaOhCfV,3ba7sxog2m30f57lxuc2l92uxdc8rv,3nlzy2d53t2x5vay5618a8am8kdlqv,TNaOhCfV,2020-0188,2020-06-04,12:54:40,13:17:08,NA,incomplete,148,race,3,1,left,C_M_01.jpg,C_F_14.jpg,A_M_06.jpg,right,804.8050000797957,false,high,NA,NA,NA,NA,NA,NA,NA,false
TNaOhCfV,3ba7sxog2m30f57lxuc2l92uxdc8rv,3nlzy2d53t2x5vay5618a8am8kdlqv,TNaOhCfV,2020-0188,2020-06-04,12:54:40,13:17:08,NA,incomplete,149,race,3,0,right,C_F_14.jpg,A_F_10.jpg,C_M_04.jpg,left,821.6550000943244,false,high,NA,NA,NA,NA,NA,NA,NA,false
TNaOhCfV,3ba7sxog2m30f57lxuc2l92uxdc8rv,3nlzy2d53t2x5vay5618a8am8kdlqv,TNaOhCfV,2020-0188,2020-06-04,12:54:40,13:17:08,NA,incomplete,150,race,3,1,right,C_M_05.jpg,A_M_09.jpg,C_F_13.jpg,left,1000.6349999457598,false,high,NA,NA,NA,NA,NA,NA,NA,false
TNaOhCfV,3ba7sxog2m30f57lxuc2l92uxdc8rv,3nlzy2d53t2x5vay5618a8am8kdlqv,TNaOhCfV,2020-0188,2020-06-04,12:54:40,13:17:08,NA,incomplete,151,race,3,1,right,C_F_05.jpg,A_F_11.jpg,C_M_14.jpg,left,1263.9949999284,false,high,NA,NA,NA,NA,NA,NA,NA,false
TNaOhCfV,3ba7sxog2m30f57lxuc2l92uxdc8rv,3nlzy2d53t2x5vay5618a8am8kdlqv,TNaOhCfV,2020-0188,2020-06-04,12:54:40,13:17:08,NA,incomplete,152,race,3,0,left,A_M_03.jpg,A_F_14.jpg,C_M_10.jpg,left,1073.2849999330938,true,high,NA,NA,NA,NA,NA,NA,NA,false
TNaOhCfV,3ba7sxog2m30f57lxuc2l92uxdc8rv,3nlzy2d53t2x5vay5618a8am8kdlqv,TNaOhCfV,2020-0188,2020-06-04,12:54:40,13:17:08,NA,incomplete,153,race,3,1,right,C_M_13.jpg,A_M_08.jpg,C_F_01.jpg,right,874.9299999326468,true,high,NA,NA,NA,NA,NA,NA,NA,false
TNaOhCfV,3ba7sxog2m30f57lxuc2l92uxdc8rv,3nlzy2d53t2x5vay5618a8am8kdlqv,TNaOhCfV,2020-0188,2020-06-04,12:54:40,13:17:08,NA,incomplete,154,race,3,1,right,A_M_06.jpg,C_M_13.jpg,A_F_16.jpg,right,1061.8549999780953,true,high,NA,NA,NA,NA,NA,NA,NA,false
TNaOhCfV,3ba7sxog2m30f57lxuc2l92uxdc8rv,3nlzy2d53t2x5vay5618a8am8kdlqv,TNaOhCfV,2020-0188,2020-06-04,12:54:40,13:17:08,NA,incomplete,155,race,3,1,left,A_M_07.jpg,A_F_01.jpg,C_M_08.jpg,left,809.6800001803786,true,high,NA,NA,NA,NA,NA,NA,NA,false
TNaOhCfV,3ba7sxog2m30f57lxuc2l92uxdc8rv,3nlzy2d53t2x5vay5618a8am8kdlqv,TNaOhCfV,2020-0188,2020-06-04,12:54:40,13:17:08,NA,incomplete,156,race,3,1,right,C_F_01.jpg,A_F_08.jpg,C_M_02.jpg,right,850.5400000140071,true,high,NA,NA,NA,NA,NA,NA,NA,false
TNaOhCfV,3ba7sxog2m30f57lxuc2l92uxdc8rv,3nlzy2d53t2x5vay5618a8am8kdlqv,TNaOhCfV,2020-0188,2020-06-04,12:54:40,13:17:08,NA,incomplete,157,race,3,1,left,A_M_11.jpg,A_F_13.jpg,C_M_05.jpg,left,767.7799998782575,true,high,NA,NA,NA,NA,NA,NA,NA,false
TNaOhCfV,3ba7sxog2m30f57lxuc2l92uxdc8rv,3nlzy2d53t2x5vay5618a8am8kdlqv,TNaOhCfV,2020-0188,2020-06-04,12:54:40,13:17:08,NA,incomplete,158,race,3,1,right,A_M_10.jpg,C_M_05.jpg,A_F_07.jpg,right,769.764999859035,true,high,NA,NA,NA,NA,NA,NA,NA,false
TNaOhCfV,3ba7sxog2m30f57lxuc2l92uxdc8rv,3nlzy2d53t2x5vay5618a8am8kdlqv,TNaOhCfV,2020-0188,2020-06-04,12:54:40,13:17:08,NA,incomplete,159,race,3,1,left,A_M_08.jpg,A_F_14.jpg,C_M_04.jpg,left,848.6400002148002,true,high,NA,NA,NA,NA,NA,NA,NA,false
TNaOhCfV,3ba7sxog2m30f57lxuc2l92uxdc8rv,3nlzy2d53t2x5vay5618a8am8kdlqv,TNaOhCfV,2020-0188,2020-06-04,12:54:40,13:17:08,NA,incomplete,160,gender,2,1,right,A_M_11.jpg,A_F_13.jpg,C_M_02.jpg,left,688.9700000174344,false,high,NA,NA,NA,NA,NA,NA,NA,false
TNaOhCfV,3ba7sxog2m30f57lxuc2l92uxdc8rv,3nlzy2d53t2x5vay5618a8am8kdlqv,TNaOhCfV,2020-0188,2020-06-04,12:54:40,13:17:08,NA,incomplete,161,gender,2,1,right,C_M_12.jpg,C_F_02.jpg,A_M_07.jpg,right,1308.8499999139458,true,high,NA,NA,NA,NA,NA,NA,NA,false
TNaOhCfV,3ba7sxog2m30f57lxuc2l92uxdc8rv,3nlzy2d53t2x5vay5618a8am8kdlqv,TNaOhCfV,2020-0188,2020-06-04,12:54:40,13:17:08,NA,incomplete,162,gender,2,1,left,C_M_11.jpg,A_M_03.jpg,C_F_14.jpg,left,857.9199998639524,true,high,NA,NA,NA,NA,NA,NA,NA,false
TNaOhCfV,3ba7sxog2m30f57lxuc2l92uxdc8rv,3nlzy2d53t2x5vay5618a8am8kdlqv,TNaOhCfV,2020-0188,2020-06-04,12:54:40,13:17:08,NA,incomplete,163,gender,2,0,left,A_M_09.jpg,C_M_10.jpg,A_F_03.jpg,left,1015.320000005886,true,high,NA,NA,NA,NA,NA,NA,NA,false
TNaOhCfV,3ba7sxog2m30f57lxuc2l92uxdc8rv,3nlzy2d53t2x5vay5618a8am8kdlqv,TNaOhCfV,2020-0188,2020-06-04,12:54:40,13:17:08,NA,incomplete,164,gender,2,1,right,C_M_04.jpg,C_F_09.jpg,A_M_06.jpg,right,859.3849998433143,true,high,NA,NA,NA,NA,NA,NA,NA,false
TNaOhCfV,3ba7sxog2m30f57lxuc2l92uxdc8rv,3nlzy2d53t2x5vay5618a8am8kdlqv,TNaOhCfV,2020-0188,2020-06-04,12:54:40,13:17:08,NA,incomplete,165,gender,2,1,right,A_M_02.jpg,A_F_08.jpg,C_M_10.jpg,right,874.0950000938028,true,high,NA,NA,NA,NA,NA,NA,NA,false
TNaOhCfV,3ba7sxog2m30f57lxuc2l92uxdc8rv,3nlzy2d53t2x5vay5618a8am8kdlqv,TNaOhCfV,2020-0188,2020-06-04,12:54:40,13:17:08,NA,incomplete,166,gender,2,0,left,C_F_09.jpg,A_F_03.jpg,C_M_08.jpg,left,672.9200000409037,true,high,NA,NA,NA,NA,NA,NA,NA,false
TNaOhCfV,3ba7sxog2m30f57lxuc2l92uxdc8rv,3nlzy2d53t2x5vay5618a8am8kdlqv,TNaOhCfV,2020-0188,2020-06-04,12:54:40,13:17:08,NA,incomplete,167,gender,2,1,right,A_M_12.jpg,A_F_09.jpg,C_M_14.jpg,left,972.0600000582635,false,high,NA,NA,NA,NA,NA,NA,NA,false
TNaOhCfV,3ba7sxog2m30f57lxuc2l92uxdc8rv,3nlzy2d53t2x5vay5618a8am8kdlqv,TNaOhCfV,2020-0188,2020-06-04,12:54:40,13:17:08,NA,incomplete,168,gender,2,1,right,A_M_03.jpg,A_F_12.jpg,C_M_02.jpg,right,930.930000031367,true,high,NA,NA,NA,NA,NA,NA,NA,false
TNaOhCfV,3ba7sxog2m30f57lxuc2l92uxdc8rv,3nlzy2d53t2x5vay5618a8am8kdlqv,TNaOhCfV,2020-0188,2020-06-04,12:54:40,13:17:08,NA,incomplete,169,gender,2,1,left,C_M_01.jpg,A_M_03.jpg,C_F_11.jpg,left,813.5250001214445,true,high,NA,NA,NA,NA,NA,NA,NA,false
TNaOhCfV,3ba7sxog2m30f57lxuc2l92uxdc8rv,3nlzy2d53t2x5vay5618a8am8kdlqv,TNaOhCfV,2020-0188,2020-06-04,12:54:40,13:17:08,NA,incomplete,170,gender,2,1,right,A_F_08.jpg,A_M_07.jpg,C_F_15.jpg,left,952.0899998024106,false,high,NA,NA,NA,NA,NA,NA,NA,false
TNaOhCfV,3ba7sxog2m30f57lxuc2l92uxdc8rv,3nlzy2d53t2x5vay5618a8am8kdlqv,TNaOhCfV,2020-0188,2020-06-04,12:54:40,13:17:08,NA,incomplete,171,gender,2,0,right,C_M_08.jpg,C_F_12.jpg,A_M_05.jpg,right,787.0600000023842,true,high,NA,NA,NA,NA,NA,NA,NA,false
TNaOhCfV,3ba7sxog2m30f57lxuc2l92uxdc8rv,3nlzy2d53t2x5vay5618a8am8kdlqv,TNaOhCfV,2020-0188,2020-06-04,12:54:40,13:17:08,NA,incomplete,172,gender,2,1,left,C_F_15.jpg,A_F_11.jpg,C_M_05.jpg,right,1073.304999852553,false,high,NA,NA,NA,NA,NA,NA,NA,false
TNaOhCfV,3ba7sxog2m30f57lxuc2l92uxdc8rv,3nlzy2d53t2x5vay5618a8am8kdlqv,TNaOhCfV,2020-0188,2020-06-04,12:54:40,13:17:08,NA,incomplete,173,gender,2,0,left,C_M_12.jpg,A_M_15.jpg,C_F_13.jpg,left,1290.4349998570979,true,high,NA,NA,NA,NA,NA,NA,NA,false
TNaOhCfV,3ba7sxog2m30f57lxuc2l92uxdc8rv,3nlzy2d53t2x5vay5618a8am8kdlqv,TNaOhCfV,2020-0188,2020-06-04,12:54:40,13:17:08,NA,incomplete,174,gender,2,1,right,C_M_09.jpg,C_F_15.jpg,A_M_07.jpg,right,1389.435000019148,true,high,NA,NA,NA,NA,NA,NA,NA,false
TNaOhCfV,3ba7sxog2m30f57lxuc2l92uxdc8rv,3nlzy2d53t2x5vay5618a8am8kdlqv,TNaOhCfV,2020-0188,2020-06-04,12:54:40,13:17:08,NA,incomplete,175,gender,2,0,right,A_M_08.jpg,A_F_16.jpg,C_M_13.jpg,right,1154.8949999269098,true,high,NA,NA,NA,NA,NA,NA,NA,false
TNaOhCfV,3ba7sxog2m30f57lxuc2l92uxdc8rv,3nlzy2d53t2x5vay5618a8am8kdlqv,TNaOhCfV,2020-0188,2020-06-04,12:54:40,13:17:08,NA,incomplete,176,gender,2,1,left,A_M_01.jpg,C_M_16.jpg,A_F_15.jpg,left,894.5049999747425,true,high,NA,NA,NA,NA,NA,NA,NA,false
TNaOhCfV,3ba7sxog2m30f57lxuc2l92uxdc8rv,3nlzy2d53t2x5vay5618a8am8kdlqv,TNaOhCfV,2020-0188,2020-06-04,12:54:40,13:17:08,NA,incomplete,177,gender,2,1,right,A_M_13.jpg,A_F_12.jpg,C_M_09.jpg,right,791.4650000166148,true,high,NA,NA,NA,NA,NA,NA,NA,false
TNaOhCfV,3ba7sxog2m30f57lxuc2l92uxdc8rv,3nlzy2d53t2x5vay5618a8am8kdlqv,TNaOhCfV,2020-0188,2020-06-04,12:54:40,13:17:08,NA,incomplete,178,gender,2,0,left,C_M_15.jpg,A_M_10.jpg,C_F_13.jpg,left,756.9750000257045,true,high,NA,NA,NA,NA,NA,NA,NA,false
TNaOhCfV,3ba7sxog2m30f57lxuc2l92uxdc8rv,3nlzy2d53t2x5vay5618a8am8kdlqv,TNaOhCfV,2020-0188,2020-06-04,12:54:40,13:17:08,NA,incomplete,179,gender,2,1,left,A_F_02.jpg,C_F_11.jpg,A_M_14.jpg,right,1110.0400001741946,false,high,NA,NA,NA,NA,NA,NA,NA,false
TNaOhCfV,3ba7sxog2m30f57lxuc2l92uxdc8rv,3nlzy2d53t2x5vay5618a8am8kdlqv,TNaOhCfV,2020-0188,2020-06-04,12:54:40,13:17:08,NA,incomplete,180,race,3,1,left,C_M_01.jpg,C_F_12.jpg,A_M_03.jpg,left,1307.2000001557171,true,high,NA,NA,NA,NA,NA,NA,NA,false
TNaOhCfV,3ba7sxog2m30f57lxuc2l92uxdc8rv,3nlzy2d53t2x5vay5618a8am8kdlqv,TNaOhCfV,2020-0188,2020-06-04,12:54:40,13:17:08,NA,incomplete,181,race,3,1,left,A_M_14.jpg,A_F_15.jpg,C_M_02.jpg,left,1026.2249999213964,true,high,NA,NA,NA,NA,NA,NA,NA,false
TNaOhCfV,3ba7sxog2m30f57lxuc2l92uxdc8rv,3nlzy2d53t2x5vay5618a8am8kdlqv,TNaOhCfV,2020-0188,2020-06-04,12:54:40,13:17:08,NA,incomplete,182,race,3,1,right,C_M_04.jpg,A_M_13.jpg,C_F_08.jpg,right,1241.0450000315905,true,high,NA,NA,NA,NA,NA,NA,NA,false
TNaOhCfV,3ba7sxog2m30f57lxuc2l92uxdc8rv,3nlzy2d53t2x5vay5618a8am8kdlqv,TNaOhCfV,2020-0188,2020-06-04,12:54:40,13:17:08,NA,incomplete,183,race,3,0,left,C_M_12.jpg,C_F_07.jpg,A_M_02.jpg,left,946.1350000929087,true,high,NA,NA,NA,NA,NA,NA,NA,false
TNaOhCfV,3ba7sxog2m30f57lxuc2l92uxdc8rv,3nlzy2d53t2x5vay5618a8am8kdlqv,TNaOhCfV,2020-0188,2020-06-04,12:54:40,13:17:08,NA,incomplete,184,race,3,1,left,A_F_11.jpg,A_M_13.jpg,C_F_04.jpg,right,963.0000002216548,false,high,NA,NA,NA,NA,NA,NA,NA,false
TNaOhCfV,3ba7sxog2m30f57lxuc2l92uxdc8rv,3nlzy2d53t2x5vay5618a8am8kdlqv,TNaOhCfV,2020-0188,2020-06-04,12:54:40,13:17:08,NA,incomplete,185,race,3,0,left,C_M_02.jpg,C_F_08.jpg,A_M_06.jpg,right,867.7000000607222,false,high,NA,NA,NA,NA,NA,NA,NA,false
TNaOhCfV,3ba7sxog2m30f57lxuc2l92uxdc8rv,3nlzy2d53t2x5vay5618a8am8kdlqv,TNaOhCfV,2020-0188,2020-06-04,12:54:40,13:17:08,NA,incomplete,186,race,3,1,left,C_F_04.jpg,C_M_14.jpg,A_F_16.jpg,right,1225.1699999906123,false,high,NA,NA,NA,NA,NA,NA,NA,false
TNaOhCfV,3ba7sxog2m30f57lxuc2l92uxdc8rv,3nlzy2d53t2x5vay5618a8am8kdlqv,TNaOhCfV,2020-0188,2020-06-04,12:54:40,13:17:08,NA,incomplete,187,race,3,0,right,A_M_11.jpg,C_M_15.jpg,A_F_10.jpg,left,1099.7750000096858,false,high,NA,NA,NA,NA,NA,NA,NA,false
TNaOhCfV,3ba7sxog2m30f57lxuc2l92uxdc8rv,3nlzy2d53t2x5vay5618a8am8kdlqv,TNaOhCfV,2020-0188,2020-06-04,12:54:40,13:17:08,NA,incomplete,188,race,3,1,left,A_F_06.jpg,A_M_09.jpg,C_F_15.jpg,right,1607.2949999943376,false,high,NA,NA,NA,NA,NA,NA,NA,false
TNaOhCfV,3ba7sxog2m30f57lxuc2l92uxdc8rv,3nlzy2d53t2x5vay5618a8am8kdlqv,TNaOhCfV,2020-0188,2020-06-04,12:54:40,13:17:08,NA,incomplete,189,race,3,1,left,C_M_04.jpg,C_F_02.jpg,A_M_10.jpg,left,1160.8599999453872,true,high,NA,NA,NA,NA,NA,NA,NA,false
TNaOhCfV,3ba7sxog2m30f57lxuc2l92uxdc8rv,3nlzy2d53t2x5vay5618a8am8kdlqv,TNaOhCfV,2020-0188,2020-06-04,12:54:40,13:17:08,NA,incomplete,190,race,3,1,right,A_M_05.jpg,C_M_02.jpg,A_F_13.jpg,right,1816.7200000025332,true,high,NA,NA,NA,NA,NA,NA,NA,false
TNaOhCfV,3ba7sxog2m30f57lxuc2l92uxdc8rv,3nlzy2d53t2x5vay5618a8am8kdlqv,TNaOhCfV,2020-0188,2020-06-04,12:54:40,13:17:08,NA,incomplete,191,race,3,1,left,A_F_14.jpg,A_M_04.jpg,C_F_03.jpg,left,812.5450001098216,true,high,NA,NA,NA,NA,NA,NA,NA,false
TNaOhCfV,3ba7sxog2m30f57lxuc2l92uxdc8rv,3nlzy2d53t2x5vay5618a8am8kdlqv,TNaOhCfV,2020-0188,2020-06-04,12:54:40,13:17:08,NA,incomplete,192,race,3,1,right,C_M_12.jpg,A_M_02.jpg,C_F_14.jpg,right,788.5500001721084,true,high,NA,NA,NA,NA,NA,NA,NA,false
TNaOhCfV,3ba7sxog2m30f57lxuc2l92uxdc8rv,3nlzy2d53t2x5vay5618a8am8kdlqv,TNaOhCfV,2020-0188,2020-06-04,12:54:40,13:17:08,NA,incomplete,193,race,3,1,right,A_M_09.jpg,C_M_06.jpg,A_F_11.jpg,right,895.4950000625104,true,high,NA,NA,NA,NA,NA,NA,NA,false
TNaOhCfV,3ba7sxog2m30f57lxuc2l92uxdc8rv,3nlzy2d53t2x5vay5618a8am8kdlqv,TNaOhCfV,2020-0188,2020-06-04,12:54:40,13:17:08,NA,incomplete,194,race,3,1,right,C_M_09.jpg,A_M_11.jpg,C_F_13.jpg,left,939.524999819696,false,high,NA,NA,NA,NA,NA,NA,NA,false
TNaOhCfV,3ba7sxog2m30f57lxuc2l92uxdc8rv,3nlzy2d53t2x5vay5618a8am8kdlqv,TNaOhCfV,2020-0188,2020-06-04,12:54:40,13:17:08,NA,incomplete,195,race,3,1,right,A_M_15.jpg,C_M_04.jpg,A_F_13.jpg,right,1110.904999775812,true,high,NA,NA,NA,NA,NA,NA,NA,false
TNaOhCfV,3ba7sxog2m30f57lxuc2l92uxdc8rv,3nlzy2d53t2x5vay5618a8am8kdlqv,TNaOhCfV,2020-0188,2020-06-04,12:54:40,13:17:08,NA,incomplete,196,race,3,1,left,C_M_03.jpg,C_F_15.jpg,A_M_09.jpg,left,899.0950000006706,true,high,NA,NA,NA,NA,NA,NA,NA,false
TNaOhCfV,3ba7sxog2m30f57lxuc2l92uxdc8rv,3nlzy2d53t2x5vay5618a8am8kdlqv,TNaOhCfV,2020-0188,2020-06-04,12:54:40,13:17:08,NA,incomplete,197,race,3,0,right,A_M_16.jpg,C_M_14.jpg,A_F_02.jpg,right,680.045000044629,true,high,NA,NA,NA,NA,NA,NA,NA,false
TNaOhCfV,3ba7sxog2m30f57lxuc2l92uxdc8rv,3nlzy2d53t2x5vay5618a8am8kdlqv,TNaOhCfV,2020-0188,2020-06-04,12:54:40,13:17:08,NA,incomplete,198,race,3,1,right,A_F_12.jpg,C_F_09.jpg,A_M_11.jpg,left,1275.965000037104,false,high,NA,NA,NA,NA,NA,NA,NA,false
TNaOhCfV,3ba7sxog2m30f57lxuc2l92uxdc8rv,3nlzy2d53t2x5vay5618a8am8kdlqv,TNaOhCfV,2020-0188,2020-06-04,12:54:40,13:17:08,NA,incomplete,199,race,3,1,left,A_F_06.jpg,A_M_02.jpg,C_F_09.jpg,right,1455.5250001139939,false,high,NA,NA,NA,NA,NA,NA,NA,false
TNaOhCfV,3ba7sxog2m30f57lxuc2l92uxdc8rv,3nlzy2d53t2x5vay5618a8am8kdlqv,TNaOhCfV,2020-0188,2020-06-04,12:54:40,13:17:08,NA,incomplete,200,gender,2,1,right,A_F_08.jpg,A_M_10.jpg,C_F_12.jpg,right,829.5150001067668,true,high,NA,NA,NA,NA,NA,NA,NA,false
TNaOhCfV,3ba7sxog2m30f57lxuc2l92uxdc8rv,3nlzy2d53t2x5vay5618a8am8kdlqv,TNaOhCfV,2020-0188,2020-06-04,12:54:40,13:17:08,NA,incomplete,201,gender,2,1,right,C_F_04.jpg,C_M_02.jpg,A_F_07.jpg,right,687.9149999003857,true,high,NA,NA,NA,NA,NA,NA,NA,false
TNaOhCfV,3ba7sxog2m30f57lxuc2l92uxdc8rv,3nlzy2d53t2x5vay5618a8am8kdlqv,TNaOhCfV,2020-0188,2020-06-04,12:54:40,13:17:08,NA,incomplete,202,gender,2,1,left,A_F_02.jpg,C_F_12.jpg,A_M_07.jpg,left,779.8599998932332,true,high,NA,NA,NA,NA,NA,NA,NA,false
TNaOhCfV,3ba7sxog2m30f57lxuc2l92uxdc8rv,3nlzy2d53t2x5vay5618a8am8kdlqv,TNaOhCfV,2020-0188,2020-06-04,12:54:40,13:17:08,NA,incomplete,203,gender,2,1,right,C_M_14.jpg,C_F_15.jpg,A_M_11.jpg,right,966.6499998420477,true,high,NA,NA,NA,NA,NA,NA,NA,false
TNaOhCfV,3ba7sxog2m30f57lxuc2l92uxdc8rv,3nlzy2d53t2x5vay5618a8am8kdlqv,TNaOhCfV,2020-0188,2020-06-04,12:54:40,13:17:08,NA,incomplete,204,gender,2,1,left,C_F_01.jpg,A_F_15.jpg,C_M_08.jpg,right,1316.2199999205768,false,high,NA,NA,NA,NA,NA,NA,NA,false
TNaOhCfV,3ba7sxog2m30f57lxuc2l92uxdc8rv,3nlzy2d53t2x5vay5618a8am8kdlqv,TNaOhCfV,2020-0188,2020-06-04,12:54:40,13:17:08,NA,incomplete,205,gender,2,0,left,A_M_15.jpg,C_M_13.jpg,A_F_03.jpg,left,1154.1900001466274,true,high,NA,NA,NA,NA,NA,NA,NA,false
TNaOhCfV,3ba7sxog2m30f57lxuc2l92uxdc8rv,3nlzy2d53t2x5vay5618a8am8kdlqv,TNaOhCfV,2020-0188,2020-06-04,12:54:40,13:17:08,NA,incomplete,206,gender,2,1,left,C_M_12.jpg,A_M_01.jpg,C_F_04.jpg,left,1007.9250000417233,true,high,NA,NA,NA,NA,NA,NA,NA,false
TNaOhCfV,3ba7sxog2m30f57lxuc2l92uxdc8rv,3nlzy2d53t2x5vay5618a8am8kdlqv,TNaOhCfV,2020-0188,2020-06-04,12:54:40,13:17:08,NA,incomplete,207,gender,2,1,right,C_F_02.jpg,C_M_03.jpg,A_F_01.jpg,right,649.4200001470745,true,high,NA,NA,NA,NA,NA,NA,NA,false
TNaOhCfV,3ba7sxog2m30f57lxuc2l92uxdc8rv,3nlzy2d53t2x5vay5618a8am8kdlqv,TNaOhCfV,2020-0188,2020-06-04,12:54:40,13:17:08,NA,incomplete,208,gender,2,0,left,A_M_14.jpg,C_M_11.jpg,A_F_15.jpg,left,1172.0699998550117,true,high,NA,NA,NA,NA,NA,NA,NA,false
TNaOhCfV,3ba7sxog2m30f57lxuc2l92uxdc8rv,3nlzy2d53t2x5vay5618a8am8kdlqv,TNaOhCfV,2020-0188,2020-06-04,12:54:40,13:17:08,NA,incomplete,209,gender,2,1,right,C_M_08.jpg,C_F_09.jpg,A_M_04.jpg,right,866.3400001823902,true,high,NA,NA,NA,NA,NA,NA,NA,false
TNaOhCfV,3ba7sxog2m30f57lxuc2l92uxdc8rv,3nlzy2d53t2x5vay5618a8am8kdlqv,TNaOhCfV,2020-0188,2020-06-04,12:54:40,13:17:08,NA,incomplete,210,gender,2,0,right,A_M_10.jpg,A_F_05.jpg,C_M_12.jpg,left,1676.3200000859797,false,high,NA,NA,NA,NA,NA,NA,NA,false
TNaOhCfV,3ba7sxog2m30f57lxuc2l92uxdc8rv,3nlzy2d53t2x5vay5618a8am8kdlqv,TNaOhCfV,2020-0188,2020-06-04,12:54:40,13:17:08,NA,incomplete,211,gender,2,1,left,A_F_14.jpg,C_F_15.jpg,A_M_10.jpg,right,1002.4149999953806,false,high,NA,NA,NA,NA,NA,NA,NA,false
TNaOhCfV,3ba7sxog2m30f57lxuc2l92uxdc8rv,3nlzy2d53t2x5vay5618a8am8kdlqv,TNaOhCfV,2020-0188,2020-06-04,12:54:40,13:17:08,NA,incomplete,212,gender,2,1,right,C_F_02.jpg,C_M_07.jpg,A_F_08.jpg,left,1184.2000000178814,false,high,NA,NA,NA,NA,NA,NA,NA,false
TNaOhCfV,3ba7sxog2m30f57lxuc2l92uxdc8rv,3nlzy2d53t2x5vay5618a8am8kdlqv,TNaOhCfV,2020-0188,2020-06-04,12:54:40,13:17:08,NA,incomplete,213,gender,2,0,right,A_F_08.jpg,A_M_04.jpg,C_F_03.jpg,right,821.290000109002,true,high,NA,NA,NA,NA,NA,NA,NA,false
TNaOhCfV,3ba7sxog2m30f57lxuc2l92uxdc8rv,3nlzy2d53t2x5vay5618a8am8kdlqv,TNaOhCfV,2020-0188,2020-06-04,12:54:40,13:17:08,NA,incomplete,214,gender,2,1,left,C_M_03.jpg,A_M_07.jpg,C_F_11.jpg,left,1194.8500000871718,true,high,NA,NA,NA,NA,NA,NA,NA,false
TNaOhCfV,3ba7sxog2m30f57lxuc2l92uxdc8rv,3nlzy2d53t2x5vay5618a8am8kdlqv,TNaOhCfV,2020-0188,2020-06-04,12:54:40,13:17:08,NA,incomplete,215,gender,2,1,right,C_F_05.jpg,C_M_14.jpg,A_F_07.jpg,right,618.104999884963,true,high,NA,NA,NA,NA,NA,NA,NA,false
TNaOhCfV,3ba7sxog2m30f57lxuc2l92uxdc8rv,3nlzy2d53t2x5vay5618a8am8kdlqv,TNaOhCfV,2020-0188,2020-06-04,12:54:40,13:17:08,NA,incomplete,216,gender,2,0,right,A_M_05.jpg,A_F_07.jpg,C_M_06.jpg,left,749.9299999326468,false,high,NA,NA,NA,NA,NA,NA,NA,false
TNaOhCfV,3ba7sxog2m30f57lxuc2l92uxdc8rv,3nlzy2d53t2x5vay5618a8am8kdlqv,TNaOhCfV,2020-0188,2020-06-04,12:54:40,13:17:08,NA,incomplete,217,gender,2,1,right,C_F_08.jpg,C_M_15.jpg,A_F_06.jpg,right,1728.6149999126792,true,high,NA,NA,NA,NA,NA,NA,NA,false
TNaOhCfV,3ba7sxog2m30f57lxuc2l92uxdc8rv,3nlzy2d53t2x5vay5618a8am8kdlqv,TNaOhCfV,2020-0188,2020-06-04,12:54:40,13:17:08,NA,incomplete,218,gender,2,1,right,A_M_08.jpg,A_F_11.jpg,C_M_16.jpg,right,970.8799999207258,true,high,NA,NA,NA,NA,NA,NA,NA,false
TNaOhCfV,3ba7sxog2m30f57lxuc2l92uxdc8rv,3nlzy2d53t2x5vay5618a8am8kdlqv,TNaOhCfV,2020-0188,2020-06-04,12:54:40,13:17:08,NA,incomplete,219,gender,2,1,left,A_F_08.jpg,C_F_12.jpg,A_M_11.jpg,left,739.799999864772,true,high,NA,NA,NA,NA,NA,NA,NA,false
TNaOhCfV,3ba7sxog2m30f57lxuc2l92uxdc8rv,3nlzy2d53t2x5vay5618a8am8kdlqv,TNaOhCfV,2020-0188,2020-06-04,12:54:40,13:17:08,NA,incomplete,220,race,3,1,left,A_F_05.jpg,A_M_01.jpg,C_F_10.jpg,right,759.9849998950958,false,high,NA,NA,NA,NA,NA,NA,NA,false
TNaOhCfV,3ba7sxog2m30f57lxuc2l92uxdc8rv,3nlzy2d53t2x5vay5618a8am8kdlqv,TNaOhCfV,2020-0188,2020-06-04,12:54:40,13:17:08,NA,incomplete,221,race,3,0,right,C_F_15.jpg,A_F_07.jpg,C_M_13.jpg,right,928.7050000857562,true,high,NA,NA,NA,NA,NA,NA,NA,false
TNaOhCfV,3ba7sxog2m30f57lxuc2l92uxdc8rv,3nlzy2d53t2x5vay5618a8am8kdlqv,TNaOhCfV,2020-0188,2020-06-04,12:54:40,13:17:08,NA,incomplete,222,race,3,1,left,A_F_11.jpg,A_M_08.jpg,C_F_06.jpg,left,882.9600000753999,true,high,NA,NA,NA,NA,NA,NA,NA,false
TNaOhCfV,3ba7sxog2m30f57lxuc2l92uxdc8rv,3nlzy2d53t2x5vay5618a8am8kdlqv,TNaOhCfV,2020-0188,2020-06-04,12:54:40,13:17:08,NA,incomplete,223,race,3,1,left,C_F_15.jpg,C_M_02.jpg,A_F_07.jpg,right,683.3150000311434,false,high,NA,NA,NA,NA,NA,NA,NA,false
TNaOhCfV,3ba7sxog2m30f57lxuc2l92uxdc8rv,3nlzy2d53t2x5vay5618a8am8kdlqv,TNaOhCfV,2020-0188,2020-06-04,12:54:40,13:17:08,NA,incomplete,224,race,3,1,right,C_M_09.jpg,A_M_02.jpg,C_F_16.jpg,right,770.6699999980628,true,high,NA,NA,NA,NA,NA,NA,NA,false
TNaOhCfV,3ba7sxog2m30f57lxuc2l92uxdc8rv,3nlzy2d53t2x5vay5618a8am8kdlqv,TNaOhCfV,2020-0188,2020-06-04,12:54:40,13:17:08,NA,incomplete,225,race,3,1,right,A_M_07.jpg,C_M_13.jpg,A_F_16.jpg,right,927.7049999218434,true,high,NA,NA,NA,NA,NA,NA,NA,false
TNaOhCfV,3ba7sxog2m30f57lxuc2l92uxdc8rv,3nlzy2d53t2x5vay5618a8am8kdlqv,TNaOhCfV,2020-0188,2020-06-04,12:54:40,13:17:08,NA,incomplete,226,race,3,1,left,C_M_03.jpg,C_F_09.jpg,A_M_14.jpg,left,813.8150000013411,true,high,NA,NA,NA,NA,NA,NA,NA,false
TNaOhCfV,3ba7sxog2m30f57lxuc2l92uxdc8rv,3nlzy2d53t2x5vay5618a8am8kdlqv,TNaOhCfV,2020-0188,2020-06-04,12:54:40,13:17:08,NA,incomplete,227,race,3,1,right,A_M_15.jpg,C_M_14.jpg,A_F_02.jpg,right,712.220000103116,true,high,NA,NA,NA,NA,NA,NA,NA,false
TNaOhCfV,3ba7sxog2m30f57lxuc2l92uxdc8rv,3nlzy2d53t2x5vay5618a8am8kdlqv,TNaOhCfV,2020-0188,2020-06-04,12:54:40,13:17:08,NA,incomplete,228,race,3,1,right,A_M_11.jpg,C_M_13.jpg,A_F_15.jpg,right,929.1550000198185,true,high,NA,NA,NA,NA,NA,NA,NA,false
TNaOhCfV,3ba7sxog2m30f57lxuc2l92uxdc8rv,3nlzy2d53t2x5vay5618a8am8kdlqv,TNaOhCfV,2020-0188,2020-06-04,12:54:40,13:17:08,NA,incomplete,229,race,3,1,right,C_M_14.jpg,A_M_16.jpg,C_F_11.jpg,left,783.4950000979006,false,high,NA,NA,NA,NA,NA,NA,NA,false
TNaOhCfV,3ba7sxog2m30f57lxuc2l92uxdc8rv,3nlzy2d53t2x5vay5618a8am8kdlqv,TNaOhCfV,2020-0188,2020-06-04,12:54:40,13:17:08,NA,incomplete,230,race,3,1,right,A_F_07.jpg,C_F_15.jpg,A_M_01.jpg,right,1068.3600001502782,true,high,NA,NA,NA,NA,NA,NA,NA,false
TNaOhCfV,3ba7sxog2m30f57lxuc2l92uxdc8rv,3nlzy2d53t2x5vay5618a8am8kdlqv,TNaOhCfV,2020-0188,2020-06-04,12:54:40,13:17:08,NA,incomplete,231,race,3,1,left,A_M_07.jpg,A_F_16.jpg,C_M_06.jpg,left,801.6399999614805,true,high,NA,NA,NA,NA,NA,NA,NA,false
TNaOhCfV,3ba7sxog2m30f57lxuc2l92uxdc8rv,3nlzy2d53t2x5vay5618a8am8kdlqv,TNaOhCfV,2020-0188,2020-06-04,12:54:40,13:17:08,NA,incomplete,232,race,3,1,left,C_F_05.jpg,C_M_04.jpg,A_F_07.jpg,left,1319.4349999539554,true,high,NA,NA,NA,NA,NA,NA,NA,false
TNaOhCfV,3ba7sxog2m30f57lxuc2l92uxdc8rv,3nlzy2d53t2x5vay5618a8am8kdlqv,TNaOhCfV,2020-0188,2020-06-04,12:54:40,13:17:08,NA,incomplete,233,race,3,1,right,A_M_09.jpg,C_M_04.jpg,A_F_05.jpg,right,1145.3400000464171,true,high,NA,NA,NA,NA,NA,NA,NA,false
TNaOhCfV,3ba7sxog2m30f57lxuc2l92uxdc8rv,3nlzy2d53t2x5vay5618a8am8kdlqv,TNaOhCfV,2020-0188,2020-06-04,12:54:40,13:17:08,NA,incomplete,234,race,3,1,left,C_F_03.jpg,C_M_12.jpg,A_F_04.jpg,left,786.8550000712276,true,high,NA,NA,NA,NA,NA,NA,NA,false
TNaOhCfV,3ba7sxog2m30f57lxuc2l92uxdc8rv,3nlzy2d53t2x5vay5618a8am8kdlqv,TNaOhCfV,2020-0188,2020-06-04,12:54:40,13:17:08,NA,incomplete,235,race,3,1,left,C_M_13.jpg,C_F_07.jpg,A_M_02.jpg,left,862.9099999088794,true,high,NA,NA,NA,NA,NA,NA,NA,false
TNaOhCfV,3ba7sxog2m30f57lxuc2l92uxdc8rv,3nlzy2d53t2x5vay5618a8am8kdlqv,TNaOhCfV,2020-0188,2020-06-04,12:54:40,13:17:08,NA,incomplete,236,race,3,0,left,C_M_08.jpg,C_F_12.jpg,A_M_04.jpg,left,822.0549998804927,true,high,NA,NA,NA,NA,NA,NA,NA,false
TNaOhCfV,3ba7sxog2m30f57lxuc2l92uxdc8rv,3nlzy2d53t2x5vay5618a8am8kdlqv,TNaOhCfV,2020-0188,2020-06-04,12:54:40,13:17:08,NA,incomplete,237,race,3,1,right,C_F_13.jpg,A_F_02.jpg,C_M_07.jpg,left,1597.0699999015778,false,high,NA,NA,NA,NA,NA,NA,NA,false
TNaOhCfV,3ba7sxog2m30f57lxuc2l92uxdc8rv,3nlzy2d53t2x5vay5618a8am8kdlqv,TNaOhCfV,2020-0188,2020-06-04,12:54:40,13:17:08,NA,incomplete,238,race,3,1,left,C_F_14.jpg,C_M_05.jpg,A_F_02.jpg,right,737.8400000743568,false,high,NA,NA,NA,NA,NA,NA,NA,false
TNaOhCfV,3ba7sxog2m30f57lxuc2l92uxdc8rv,3nlzy2d53t2x5vay5618a8am8kdlqv,TNaOhCfV,2020-0188,2020-06-04,12:54:40,13:17:08,NA,incomplete,239,race,3,1,right,A_M_16.jpg,C_M_02.jpg,A_F_11.jpg,right,904.0850000455976,true,high,NA,NA,NA,NA,NA,NA,NA,false
TNaOhCfV,3ba7sxog2m30f57lxuc2l92uxdc8rv,3nlzy2d53t2x5vay5618a8am8kdlqv,TNaOhCfV,2020-0188,2020-06-04,12:54:40,13:17:08,NA,NA,instruction example,color,NA,NA,NA,Blue_Plus_Stripes_3.jpg,Blue_Star_Chess_4.jpg,Purple_Circle_Dots_3.jpg,NA,NA,NA,NA,NA,NA,NA,NA,NA,NA,NA,undefined
TNaOhCfV,3ba7sxog2m30f57lxuc2l92uxdc8rv,3nlzy2d53t2x5vay5618a8am8kdlqv,TNaOhCfV,2020-0188,2020-06-04,12:54:40,13:17:08,NA,NA,instruction example,color,NA,NA,NA,Purple_Circle_Dots_3.jpg,Blue_Star_Grid_3.jpg,Purple_Plus_Stripes_1.jpg,NA,NA,NA,NA,NA,NA,NA,NA,NA,NA,NA,undefined
TNaOhCfV,3ba7sxog2m30f57lxuc2l92uxdc8rv,3nlzy2d53t2x5vay5618a8am8kdlqv,TNaOhCfV,2020-0188,2020-06-04,12:54:40,13:17:08,NA,NA,instruction example,color,NA,NA,NA,A_F_11.jpg,C_F_07.jpg,A_M_02.jpg,NA,NA,NA,NA,NA,NA,NA,NA,NA,NA,NA,undefined
TNaOhCfV,3ba7sxog2m30f57lxuc2l92uxdc8rv,3nlzy2d53t2x5vay5618a8am8kdlqv,TNaOhCfV,2020-0188,2020-06-04,12:54:40,13:17:08,NA,NA,instruction example,color,NA,NA,NA,C_F_10.jpg,C_M_02.jpg,A_F_01.jpg,NA,NA,NA,NA,NA,NA,NA,NA,NA,NA,NA,undefined
TNaOhCfV,3ba7sxog2m30f57lxuc2l92uxdc8rv,3nlzy2d53t2x5vay5618a8am8kdlqv,TNaOhCfV,2020-0188,2020-06-04,12:54:40,13:17:08,1303664.1450000461,1349887.1250001248,NA,NA,NA,NA,NA,NA,NA,NA,NA,NA,NA,NA,42,White/Caucasian,Female,Italian,no,yes,no,undefined
