workerId,hitId,assignmentId,subject,studyid,exp_date,exp_start,exp_end,time_start,time_end,trial,type,sequence,reward_validity,answer,image_top,image_left,image_right,response,response_time,response_acc,volatility,practice
FIGcpkc6,3e9vauv7czrnvucm8noapw1mqoqyaq,3oonkj5dkgwi7ab6zgka70jhhopob9,FIGcpkc6,2020-0188,2020-06-04,13:02:48,13:31:45,NA,incomplete,0,shape,0,1,right,Red_Star_Dots_1.jpg,Red_Triangle_Stripes_4.jpg,Purple_Star_Chess_3.jpg,right,1926.8300000112504,true,NA,true
FIGcpkc6,3e9vauv7czrnvucm8noapw1mqoqyaq,3oonkj5dkgwi7ab6zgka70jhhopob9,FIGcpkc6,2020-0188,2020-06-04,13:02:48,13:31:45,NA,incomplete,1,shape,0,1,left,Purple_Triangle_Grid_4.jpg,Blue_Triangle_Chess_2.jpg,Purple_Circle_Dots_3.jpg,left,1481.1050000134856,true,NA,true
FIGcpkc6,3e9vauv7czrnvucm8noapw1mqoqyaq,3oonkj5dkgwi7ab6zgka70jhhopob9,FIGcpkc6,2020-0188,2020-06-04,13:02:48,13:31:45,NA,incomplete,2,shape,0,1,left,Green_Circle_Chess_4.jpg,Red_Circle_Grid_3.jpg,Green_Star_Dots_1.jpg,left,994.2249999730848,true,NA,true
FIGcpkc6,3e9vauv7czrnvucm8noapw1mqoqyaq,3oonkj5dkgwi7ab6zgka70jhhopob9,FIGcpkc6,2020-0188,2020-06-04,13:02:48,13:31:45,NA,incomplete,3,shape,0,1,right,Blue_Circle_Dots_1.jpg,Blue_Triangle_Stripes_2.jpg,Purple_Circle_Grid_4.jpg,right,1302.9700000188313,true,NA,true
FIGcpkc6,3e9vauv7czrnvucm8noapw1mqoqyaq,3oonkj5dkgwi7ab6zgka70jhhopob9,FIGcpkc6,2020-0188,2020-06-04,13:02:48,13:31:45,NA,incomplete,4,shape,0,1,left,Green_Circle_Stripes_3.jpg,Blue_Circle_Grid_4.jpg,Green_Triangle_Dots_2.jpg,left,1047.4050000193529,true,NA,true
FIGcpkc6,3e9vauv7czrnvucm8noapw1mqoqyaq,3oonkj5dkgwi7ab6zgka70jhhopob9,FIGcpkc6,2020-0188,2020-06-04,13:02:48,13:31:45,NA,incomplete,5,shape,0,1,left,Red_Circle_Grid_1.jpg,Purple_Circle_Dots_3.jpg,Red_Star_Stripes_4.jpg,left,726.8000000040047,true,NA,true
FIGcpkc6,3e9vauv7czrnvucm8noapw1mqoqyaq,3oonkj5dkgwi7ab6zgka70jhhopob9,FIGcpkc6,2020-0188,2020-06-04,13:02:48,13:31:45,NA,incomplete,6,shape,0,0,right,Purple_Circle_Grid_1.jpg,Purple_Triangle_Stripes_2.jpg,Blue_Circle_Dots_4.jpg,right,1474.3150000576861,true,NA,true
FIGcpkc6,3e9vauv7czrnvucm8noapw1mqoqyaq,3oonkj5dkgwi7ab6zgka70jhhopob9,FIGcpkc6,2020-0188,2020-06-04,13:02:48,13:31:45,NA,incomplete,7,shape,0,0,right,Purple_Star_Stripes_2.jpg,Purple_Triangle_Dots_3.jpg,Red_Star_Chess_4.jpg,right,1050.035000022035,true,NA,true
FIGcpkc6,3e9vauv7czrnvucm8noapw1mqoqyaq,3oonkj5dkgwi7ab6zgka70jhhopob9,FIGcpkc6,2020-0188,2020-06-04,13:02:48,13:31:45,NA,incomplete,8,shape,0,1,left,Blue_Star_Chess_1.jpg,Purple_Star_Stripes_2.jpg,Blue_Circle_Grid_4.jpg,none,0,false,NA,true
FIGcpkc6,3e9vauv7czrnvucm8noapw1mqoqyaq,3oonkj5dkgwi7ab6zgka70jhhopob9,FIGcpkc6,2020-0188,2020-06-04,13:02:48,13:31:45,NA,incomplete,9,shape,0,0,left,Red_Plus_Chess_4.jpg,Purple_Plus_Stripes_1.jpg,Red_Star_Grid_2.jpg,left,922.4950000061654,true,NA,true
FIGcpkc6,3e9vauv7czrnvucm8noapw1mqoqyaq,3oonkj5dkgwi7ab6zgka70jhhopob9,FIGcpkc6,2020-0188,2020-06-04,13:02:48,13:31:45,NA,incomplete,10,shape,0,0,right,Purple_Plus_Chess_1.jpg,Purple_Star_Dots_3.jpg,Red_Plus_Grid_2.jpg,right,1177.4549999972805,true,NA,true
FIGcpkc6,3e9vauv7czrnvucm8noapw1mqoqyaq,3oonkj5dkgwi7ab6zgka70jhhopob9,FIGcpkc6,2020-0188,2020-06-04,13:02:48,13:31:45,NA,incomplete,11,shape,0,1,left,Red_Circle_Chess_3.jpg,Green_Circle_Dots_4.jpg,Red_Triangle_Grid_1.jpg,left,1237.6449999865144,true,NA,true
FIGcpkc6,3e9vauv7czrnvucm8noapw1mqoqyaq,3oonkj5dkgwi7ab6zgka70jhhopob9,FIGcpkc6,2020-0188,2020-06-04,13:02:48,13:31:45,NA,incomplete,12,shape,0,1,left,Purple_Plus_Dots_2.jpg,Blue_Plus_Stripes_3.jpg,Purple_Circle_Grid_1.jpg,left,875.7849999819882,true,NA,true
FIGcpkc6,3e9vauv7czrnvucm8noapw1mqoqyaq,3oonkj5dkgwi7ab6zgka70jhhopob9,FIGcpkc6,2020-0188,2020-06-04,13:02:48,13:31:45,NA,incomplete,13,shape,0,1,right,Green_Triangle_Grid_1.jpg,Green_Star_Stripes_2.jpg,Purple_Triangle_Dots_4.jpg,right,769.2450000322424,true,NA,true
FIGcpkc6,3e9vauv7czrnvucm8noapw1mqoqyaq,3oonkj5dkgwi7ab6zgka70jhhopob9,FIGcpkc6,2020-0188,2020-06-04,13:02:48,13:31:45,NA,incomplete,14,shape,0,1,right,Blue_Circle_Stripes_3.jpg,Blue_Star_Chess_4.jpg,Purple_Circle_Grid_2.jpg,right,821.17000001017,true,NA,true
FIGcpkc6,3e9vauv7czrnvucm8noapw1mqoqyaq,3oonkj5dkgwi7ab6zgka70jhhopob9,FIGcpkc6,2020-0188,2020-06-04,13:02:48,13:31:45,NA,incomplete,15,shape,0,0,left,Green_Plus_Dots_3.jpg,Purple_Plus_Chess_2.jpg,Green_Star_Grid_4.jpg,left,833.8600000133738,true,NA,true
FIGcpkc6,3e9vauv7czrnvucm8noapw1mqoqyaq,3oonkj5dkgwi7ab6zgka70jhhopob9,FIGcpkc6,2020-0188,2020-06-04,13:02:48,13:31:45,NA,incomplete,16,shape,0,1,right,Blue_Star_Chess_4.jpg,Blue_Plus_Dots_1.jpg,Green_Star_Grid_3.jpg,right,1111.9900000048801,true,NA,true
FIGcpkc6,3e9vauv7czrnvucm8noapw1mqoqyaq,3oonkj5dkgwi7ab6zgka70jhhopob9,FIGcpkc6,2020-0188,2020-06-04,13:02:48,13:31:45,NA,incomplete,17,shape,0,1,right,Blue_Plus_Chess_1.jpg,Blue_Triangle_Dots_4.jpg,Green_Plus_Grid_2.jpg,right,863.8400000054389,true,NA,true
FIGcpkc6,3e9vauv7czrnvucm8noapw1mqoqyaq,3oonkj5dkgwi7ab6zgka70jhhopob9,FIGcpkc6,2020-0188,2020-06-04,13:02:48,13:31:45,NA,incomplete,18,shape,0,1,right,Red_Circle_Stripes_3.jpg,Red_Star_Dots_1.jpg,Purple_Circle_Grid_2.jpg,right,711.7100000032224,true,NA,true
FIGcpkc6,3e9vauv7czrnvucm8noapw1mqoqyaq,3oonkj5dkgwi7ab6zgka70jhhopob9,FIGcpkc6,2020-0188,2020-06-04,13:02:48,13:31:45,NA,incomplete,19,shape,0,1,right,Purple_Triangle_Grid_2.jpg,Purple_Plus_Chess_4.jpg,Blue_Triangle_Stripes_3.jpg,right,811.0999999917112,true,NA,true
FIGcpkc6,3e9vauv7czrnvucm8noapw1mqoqyaq,3oonkj5dkgwi7ab6zgka70jhhopob9,FIGcpkc6,2020-0188,2020-06-04,13:02:48,13:31:45,NA,incomplete,20,color,1,1,left,Blue_Circle_Grid_2.jpg,Blue_Star_Dots_1.jpg,Purple_Circle_Stripes_3.jpg,left,1232.8249999554828,true,NA,true
FIGcpkc6,3e9vauv7czrnvucm8noapw1mqoqyaq,3oonkj5dkgwi7ab6zgka70jhhopob9,FIGcpkc6,2020-0188,2020-06-04,13:02:48,13:31:45,NA,incomplete,21,color,1,1,right,Blue_Plus_Dots_1.jpg,Purple_Plus_Grid_2.jpg,Blue_Triangle_Chess_4.jpg,right,979.8400000436231,true,NA,true
FIGcpkc6,3e9vauv7czrnvucm8noapw1mqoqyaq,3oonkj5dkgwi7ab6zgka70jhhopob9,FIGcpkc6,2020-0188,2020-06-04,13:02:48,13:31:45,NA,incomplete,22,color,1,1,left,Green_Star_Dots_4.jpg,Green_Circle_Grid_3.jpg,Blue_Star_Chess_1.jpg,left,774.8550000251271,true,NA,true
FIGcpkc6,3e9vauv7czrnvucm8noapw1mqoqyaq,3oonkj5dkgwi7ab6zgka70jhhopob9,FIGcpkc6,2020-0188,2020-06-04,13:02:48,13:31:45,NA,incomplete,23,color,1,0,right,Purple_Plus_Chess_1.jpg,Red_Plus_Stripes_2.jpg,Purple_Circle_Grid_4.jpg,right,1219.0500000142492,true,NA,true
FIGcpkc6,3e9vauv7czrnvucm8noapw1mqoqyaq,3oonkj5dkgwi7ab6zgka70jhhopob9,FIGcpkc6,2020-0188,2020-06-04,13:02:48,13:31:45,NA,incomplete,24,color,1,1,right,Green_Circle_Dots_3.jpg,Purple_Circle_Grid_2.jpg,Green_Triangle_Chess_1.jpg,right,1179.6299999696203,true,NA,true
FIGcpkc6,3e9vauv7czrnvucm8noapw1mqoqyaq,3oonkj5dkgwi7ab6zgka70jhhopob9,FIGcpkc6,2020-0188,2020-06-04,13:02:48,13:31:45,NA,incomplete,25,color,1,1,left,Red_Plus_Grid_4.jpg,Red_Triangle_Chess_3.jpg,Blue_Plus_Dots_1.jpg,left,1300.0999999931082,true,NA,true
FIGcpkc6,3e9vauv7czrnvucm8noapw1mqoqyaq,3oonkj5dkgwi7ab6zgka70jhhopob9,FIGcpkc6,2020-0188,2020-06-04,13:02:48,13:31:45,NA,incomplete,26,color,1,1,right,Red_Star_Grid_2.jpg,Purple_Star_Stripes_1.jpg,Red_Triangle_Dots_4.jpg,right,729.5599999488331,true,NA,true
FIGcpkc6,3e9vauv7czrnvucm8noapw1mqoqyaq,3oonkj5dkgwi7ab6zgka70jhhopob9,FIGcpkc6,2020-0188,2020-06-04,13:02:48,13:31:45,NA,incomplete,27,color,1,1,left,Blue_Plus_Grid_2.jpg,Blue_Triangle_Chess_1.jpg,Red_Plus_Stripes_4.jpg,left,725.5149999982677,true,NA,true
FIGcpkc6,3e9vauv7czrnvucm8noapw1mqoqyaq,3oonkj5dkgwi7ab6zgka70jhhopob9,FIGcpkc6,2020-0188,2020-06-04,13:02:48,13:31:45,NA,incomplete,28,color,1,1,right,Red_Circle_Grid_3.jpg,Green_Circle_Dots_2.jpg,Red_Plus_Stripes_1.jpg,left,862.6700000022538,false,NA,true
FIGcpkc6,3e9vauv7czrnvucm8noapw1mqoqyaq,3oonkj5dkgwi7ab6zgka70jhhopob9,FIGcpkc6,2020-0188,2020-06-04,13:02:48,13:31:45,NA,incomplete,29,color,1,1,left,Blue_Plus_Dots_2.jpg,Blue_Circle_Stripes_1.jpg,Purple_Plus_Chess_3.jpg,left,997.3299999837764,true,NA,true
FIGcpkc6,3e9vauv7czrnvucm8noapw1mqoqyaq,3oonkj5dkgwi7ab6zgka70jhhopob9,FIGcpkc6,2020-0188,2020-06-04,13:02:48,13:31:45,NA,incomplete,30,color,1,1,right,Green_Star_Chess_2.jpg,Purple_Star_Dots_1.jpg,Green_Circle_Grid_3.jpg,right,718.6000000219792,true,NA,true
FIGcpkc6,3e9vauv7czrnvucm8noapw1mqoqyaq,3oonkj5dkgwi7ab6zgka70jhhopob9,FIGcpkc6,2020-0188,2020-06-04,13:02:48,13:31:45,NA,incomplete,31,color,1,0,left,Blue_Star_Dots_2.jpg,Blue_Circle_Chess_3.jpg,Purple_Star_Grid_4.jpg,left,1366.6599999996834,true,NA,true
FIGcpkc6,3e9vauv7czrnvucm8noapw1mqoqyaq,3oonkj5dkgwi7ab6zgka70jhhopob9,FIGcpkc6,2020-0188,2020-06-04,13:02:48,13:31:45,NA,incomplete,32,color,1,1,right,Red_Circle_Stripes_1.jpg,Blue_Circle_Dots_4.jpg,Red_Triangle_Grid_2.jpg,right,1225.4449999891222,true,NA,true
FIGcpkc6,3e9vauv7czrnvucm8noapw1mqoqyaq,3oonkj5dkgwi7ab6zgka70jhhopob9,FIGcpkc6,2020-0188,2020-06-04,13:02:48,13:31:45,NA,incomplete,33,color,1,0,right,Purple_Plus_Chess_4.jpg,Red_Plus_Grid_1.jpg,Purple_Circle_Stripes_2.jpg,right,1109.664999996312,true,NA,true
FIGcpkc6,3e9vauv7czrnvucm8noapw1mqoqyaq,3oonkj5dkgwi7ab6zgka70jhhopob9,FIGcpkc6,2020-0188,2020-06-04,13:02:48,13:31:45,NA,incomplete,34,color,1,1,right,Green_Triangle_Chess_4.jpg,Purple_Triangle_Grid_2.jpg,Green_Circle_Dots_1.jpg,right,777.0850000088103,true,NA,true
FIGcpkc6,3e9vauv7czrnvucm8noapw1mqoqyaq,3oonkj5dkgwi7ab6zgka70jhhopob9,FIGcpkc6,2020-0188,2020-06-04,13:02:48,13:31:45,NA,incomplete,35,color,1,1,right,Green_Plus_Stripes_1.jpg,Red_Plus_Grid_3.jpg,Green_Circle_Chess_2.jpg,right,707.8200000105426,true,NA,true
FIGcpkc6,3e9vauv7czrnvucm8noapw1mqoqyaq,3oonkj5dkgwi7ab6zgka70jhhopob9,FIGcpkc6,2020-0188,2020-06-04,13:02:48,13:31:45,NA,incomplete,36,color,1,1,left,Blue_Triangle_Chess_2.jpg,Blue_Star_Dots_3.jpg,Red_Triangle_Stripes_4.jpg,left,1226.6850000014529,true,NA,true
FIGcpkc6,3e9vauv7czrnvucm8noapw1mqoqyaq,3oonkj5dkgwi7ab6zgka70jhhopob9,FIGcpkc6,2020-0188,2020-06-04,13:02:48,13:31:45,NA,incomplete,37,color,1,1,right,Green_Circle_Grid_2.jpg,Red_Circle_Chess_1.jpg,Green_Star_Dots_3.jpg,right,987.7199999755248,true,NA,true
FIGcpkc6,3e9vauv7czrnvucm8noapw1mqoqyaq,3oonkj5dkgwi7ab6zgka70jhhopob9,FIGcpkc6,2020-0188,2020-06-04,13:02:48,13:31:45,NA,incomplete,38,color,1,1,right,Red_Circle_Chess_1.jpg,Green_Circle_Grid_3.jpg,Red_Star_Stripes_4.jpg,right,1124.2099999799393,true,NA,true
FIGcpkc6,3e9vauv7czrnvucm8noapw1mqoqyaq,3oonkj5dkgwi7ab6zgka70jhhopob9,FIGcpkc6,2020-0188,2020-06-04,13:02:48,13:31:45,NA,incomplete,39,color,1,1,right,Green_Triangle_Chess_4.jpg,Red_Triangle_Dots_3.jpg,Green_Star_Stripes_1.jpg,right,708.7349999928847,true,NA,true
FIGcpkc6,3e9vauv7czrnvucm8noapw1mqoqyaq,3oonkj5dkgwi7ab6zgka70jhhopob9,FIGcpkc6,2020-0188,2020-06-04,13:02:48,13:31:45,NA,incomplete,0,shape,0,1,left,Blue_Triangle_Grid_3.jpg,Green_Triangle_Dots_2.jpg,Blue_Circle_Stripes_4.jpg,left,956.8100000033155,true,high,false
FIGcpkc6,3e9vauv7czrnvucm8noapw1mqoqyaq,3oonkj5dkgwi7ab6zgka70jhhopob9,FIGcpkc6,2020-0188,2020-06-04,13:02:48,13:31:45,NA,incomplete,1,shape,0,1,left,Red_Circle_Stripes_2.jpg,Blue_Circle_Grid_1.jpg,Red_Star_Dots_3.jpg,left,610.7999999658205,true,high,false
FIGcpkc6,3e9vauv7czrnvucm8noapw1mqoqyaq,3oonkj5dkgwi7ab6zgka70jhhopob9,FIGcpkc6,2020-0188,2020-06-04,13:02:48,13:31:45,NA,incomplete,2,shape,0,1,right,Green_Circle_Chess_3.jpg,Green_Plus_Grid_4.jpg,Purple_Circle_Stripes_1.jpg,right,1010.550000006333,true,high,false
FIGcpkc6,3e9vauv7czrnvucm8noapw1mqoqyaq,3oonkj5dkgwi7ab6zgka70jhhopob9,FIGcpkc6,2020-0188,2020-06-04,13:02:48,13:31:45,NA,incomplete,3,shape,0,1,left,Red_Plus_Chess_4.jpg,Purple_Plus_Grid_1.jpg,Red_Star_Stripes_3.jpg,left,685.0650000269525,true,high,false
FIGcpkc6,3e9vauv7czrnvucm8noapw1mqoqyaq,3oonkj5dkgwi7ab6zgka70jhhopob9,FIGcpkc6,2020-0188,2020-06-04,13:02:48,13:31:45,NA,incomplete,4,shape,0,1,right,Red_Circle_Stripes_2.jpg,Red_Plus_Grid_4.jpg,Purple_Circle_Dots_1.jpg,right,969.9900000123307,true,high,false
FIGcpkc6,3e9vauv7czrnvucm8noapw1mqoqyaq,3oonkj5dkgwi7ab6zgka70jhhopob9,FIGcpkc6,2020-0188,2020-06-04,13:02:48,13:31:45,NA,incomplete,5,shape,0,1,right,Red_Triangle_Stripes_1.jpg,Red_Plus_Dots_4.jpg,Green_Triangle_Grid_3.jpg,right,680.4499999852851,true,high,false
FIGcpkc6,3e9vauv7czrnvucm8noapw1mqoqyaq,3oonkj5dkgwi7ab6zgka70jhhopob9,FIGcpkc6,2020-0188,2020-06-04,13:02:48,13:31:45,NA,incomplete,6,shape,0,1,right,Purple_Star_Stripes_1.jpg,Purple_Plus_Chess_3.jpg,Blue_Star_Grid_4.jpg,right,1050.6199999945238,true,high,false
FIGcpkc6,3e9vauv7czrnvucm8noapw1mqoqyaq,3oonkj5dkgwi7ab6zgka70jhhopob9,FIGcpkc6,2020-0188,2020-06-04,13:02:48,13:31:45,NA,incomplete,7,shape,0,1,right,Blue_Plus_Stripes_3.jpg,Blue_Star_Dots_2.jpg,Purple_Plus_Grid_1.jpg,right,886.0850000055507,true,high,false
FIGcpkc6,3e9vauv7czrnvucm8noapw1mqoqyaq,3oonkj5dkgwi7ab6zgka70jhhopob9,FIGcpkc6,2020-0188,2020-06-04,13:02:48,13:31:45,NA,incomplete,8,shape,0,0,right,Blue_Circle_Dots_3.jpg,Blue_Triangle_Stripes_2.jpg,Green_Circle_Chess_1.jpg,right,1105.3149999934249,true,high,false
FIGcpkc6,3e9vauv7czrnvucm8noapw1mqoqyaq,3oonkj5dkgwi7ab6zgka70jhhopob9,FIGcpkc6,2020-0188,2020-06-04,13:02:48,13:31:45,NA,incomplete,9,shape,0,1,right,Green_Circle_Dots_3.jpg,Green_Star_Grid_1.jpg,Purple_Circle_Stripes_2.jpg,right,766.2250000284985,true,high,false
FIGcpkc6,3e9vauv7czrnvucm8noapw1mqoqyaq,3oonkj5dkgwi7ab6zgka70jhhopob9,FIGcpkc6,2020-0188,2020-06-04,13:02:48,13:31:45,NA,incomplete,10,color,1,1,left,Purple_Circle_Chess_3.jpg,Purple_Star_Stripes_4.jpg,Green_Circle_Dots_1.jpg,right,710.0999999674968,false,high,false
FIGcpkc6,3e9vauv7czrnvucm8noapw1mqoqyaq,3oonkj5dkgwi7ab6zgka70jhhopob9,FIGcpkc6,2020-0188,2020-06-04,13:02:48,13:31:45,NA,incomplete,11,color,1,0,left,Blue_Plus_Grid_4.jpg,Blue_Circle_Dots_3.jpg,Red_Plus_Chess_1.jpg,right,813.5699999984354,false,high,false
FIGcpkc6,3e9vauv7czrnvucm8noapw1mqoqyaq,3oonkj5dkgwi7ab6zgka70jhhopob9,FIGcpkc6,2020-0188,2020-06-04,13:02:48,13:31:45,NA,incomplete,12,color,1,1,right,Purple_Star_Grid_4.jpg,Blue_Star_Stripes_3.jpg,Purple_Triangle_Chess_2.jpg,left,809.015000006184,false,high,false
FIGcpkc6,3e9vauv7czrnvucm8noapw1mqoqyaq,3oonkj5dkgwi7ab6zgka70jhhopob9,FIGcpkc6,2020-0188,2020-06-04,13:02:48,13:31:45,NA,incomplete,13,color,1,1,right,Red_Triangle_Chess_4.jpg,Blue_Triangle_Dots_3.jpg,Red_Plus_Stripes_2.jpg,left,1054.6350000076927,false,high,false
FIGcpkc6,3e9vauv7czrnvucm8noapw1mqoqyaq,3oonkj5dkgwi7ab6zgka70jhhopob9,FIGcpkc6,2020-0188,2020-06-04,13:02:48,13:31:45,NA,incomplete,14,color,1,0,left,Red_Star_Grid_4.jpg,Red_Circle_Chess_3.jpg,Blue_Star_Stripes_2.jpg,right,886.7549999849871,false,high,false
FIGcpkc6,3e9vauv7czrnvucm8noapw1mqoqyaq,3oonkj5dkgwi7ab6zgka70jhhopob9,FIGcpkc6,2020-0188,2020-06-04,13:02:48,13:31:45,NA,incomplete,15,color,1,1,right,Green_Triangle_Grid_1.jpg,Blue_Triangle_Dots_3.jpg,Green_Plus_Stripes_2.jpg,left,1060.9749999712221,false,high,false
FIGcpkc6,3e9vauv7czrnvucm8noapw1mqoqyaq,3oonkj5dkgwi7ab6zgka70jhhopob9,FIGcpkc6,2020-0188,2020-06-04,13:02:48,13:31:45,NA,incomplete,16,color,1,1,right,Green_Star_Dots_1.jpg,Purple_Star_Grid_3.jpg,Green_Circle_Stripes_4.jpg,right,484.1149999992922,true,high,false
FIGcpkc6,3e9vauv7czrnvucm8noapw1mqoqyaq,3oonkj5dkgwi7ab6zgka70jhhopob9,FIGcpkc6,2020-0188,2020-06-04,13:02:48,13:31:45,NA,incomplete,17,color,1,1,left,Purple_Triangle_Dots_1.jpg,Purple_Plus_Stripes_2.jpg,Green_Triangle_Chess_4.jpg,right,645.879999967292,false,high,false
FIGcpkc6,3e9vauv7czrnvucm8noapw1mqoqyaq,3oonkj5dkgwi7ab6zgka70jhhopob9,FIGcpkc6,2020-0188,2020-06-04,13:02:48,13:31:45,NA,incomplete,18,color,1,1,right,Purple_Plus_Chess_1.jpg,Green_Plus_Stripes_4.jpg,Purple_Star_Dots_2.jpg,right,751.0100000072271,true,high,false
FIGcpkc6,3e9vauv7czrnvucm8noapw1mqoqyaq,3oonkj5dkgwi7ab6zgka70jhhopob9,FIGcpkc6,2020-0188,2020-06-04,13:02:48,13:31:45,NA,incomplete,19,color,1,0,left,Red_Plus_Dots_1.jpg,Red_Triangle_Chess_3.jpg,Green_Plus_Grid_2.jpg,left,741.1450000363402,true,high,false
FIGcpkc6,3e9vauv7czrnvucm8noapw1mqoqyaq,3oonkj5dkgwi7ab6zgka70jhhopob9,FIGcpkc6,2020-0188,2020-06-04,13:02:48,13:31:45,NA,incomplete,20,shape,0,0,right,Purple_Triangle_Dots_4.jpg,Purple_Plus_Chess_2.jpg,Green_Triangle_Stripes_3.jpg,left,549.4849999668077,false,high,false
FIGcpkc6,3e9vauv7czrnvucm8noapw1mqoqyaq,3oonkj5dkgwi7ab6zgka70jhhopob9,FIGcpkc6,2020-0188,2020-06-04,13:02:48,13:31:45,NA,incomplete,21,shape,0,0,left,Blue_Circle_Chess_1.jpg,Purple_Circle_Stripes_4.jpg,Blue_Plus_Dots_3.jpg,right,1117.5299999886192,false,high,false
FIGcpkc6,3e9vauv7czrnvucm8noapw1mqoqyaq,3oonkj5dkgwi7ab6zgka70jhhopob9,FIGcpkc6,2020-0188,2020-06-04,13:02:48,13:31:45,NA,incomplete,22,shape,0,0,left,Purple_Circle_Grid_4.jpg,Red_Circle_Chess_1.jpg,Purple_Triangle_Stripes_3.jpg,right,695.8849999937229,false,high,false
FIGcpkc6,3e9vauv7czrnvucm8noapw1mqoqyaq,3oonkj5dkgwi7ab6zgka70jhhopob9,FIGcpkc6,2020-0188,2020-06-04,13:02:48,13:31:45,NA,incomplete,23,shape,0,0,left,Green_Triangle_Stripes_1.jpg,Red_Triangle_Grid_4.jpg,Green_Star_Chess_2.jpg,right,1354.8350000055507,false,high,false
FIGcpkc6,3e9vauv7czrnvucm8noapw1mqoqyaq,3oonkj5dkgwi7ab6zgka70jhhopob9,FIGcpkc6,2020-0188,2020-06-04,13:02:48,13:31:45,NA,incomplete,24,shape,0,1,left,Red_Triangle_Grid_1.jpg,Blue_Triangle_Stripes_2.jpg,Red_Star_Dots_3.jpg,right,646.4200000045821,false,high,false
FIGcpkc6,3e9vauv7czrnvucm8noapw1mqoqyaq,3oonkj5dkgwi7ab6zgka70jhhopob9,FIGcpkc6,2020-0188,2020-06-04,13:02:48,13:31:45,NA,incomplete,25,shape,0,1,right,Red_Plus_Dots_1.jpg,Red_Star_Stripes_4.jpg,Blue_Plus_Grid_3.jpg,right,880.3849999676459,true,high,false
FIGcpkc6,3e9vauv7czrnvucm8noapw1mqoqyaq,3oonkj5dkgwi7ab6zgka70jhhopob9,FIGcpkc6,2020-0188,2020-06-04,13:02:48,13:31:45,NA,incomplete,26,shape,0,1,right,Blue_Circle_Stripes_4.jpg,Blue_Plus_Dots_3.jpg,Purple_Circle_Grid_1.jpg,right,643.2600000407547,true,high,false
FIGcpkc6,3e9vauv7czrnvucm8noapw1mqoqyaq,3oonkj5dkgwi7ab6zgka70jhhopob9,FIGcpkc6,2020-0188,2020-06-04,13:02:48,13:31:45,NA,incomplete,27,shape,0,1,right,Purple_Star_Grid_1.jpg,Purple_Triangle_Chess_3.jpg,Red_Star_Dots_2.jpg,right,661.9649999774992,true,high,false
FIGcpkc6,3e9vauv7czrnvucm8noapw1mqoqyaq,3oonkj5dkgwi7ab6zgka70jhhopob9,FIGcpkc6,2020-0188,2020-06-04,13:02:48,13:31:45,NA,incomplete,28,shape,0,1,left,Blue_Star_Stripes_3.jpg,Red_Star_Dots_1.jpg,Blue_Plus_Grid_2.jpg,left,836.9399999501184,true,high,false
FIGcpkc6,3e9vauv7czrnvucm8noapw1mqoqyaq,3oonkj5dkgwi7ab6zgka70jhhopob9,FIGcpkc6,2020-0188,2020-06-04,13:02:48,13:31:45,NA,incomplete,29,shape,0,1,right,Purple_Circle_Dots_3.jpg,Purple_Star_Stripes_4.jpg,Red_Circle_Chess_1.jpg,right,829.2950000031851,true,high,false
FIGcpkc6,3e9vauv7czrnvucm8noapw1mqoqyaq,3oonkj5dkgwi7ab6zgka70jhhopob9,FIGcpkc6,2020-0188,2020-06-04,13:02:48,13:31:45,NA,incomplete,30,color,1,1,right,Purple_Circle_Dots_3.jpg,Red_Circle_Stripes_1.jpg,Purple_Triangle_Grid_2.jpg,left,759.639999945648,false,high,false
FIGcpkc6,3e9vauv7czrnvucm8noapw1mqoqyaq,3oonkj5dkgwi7ab6zgka70jhhopob9,FIGcpkc6,2020-0188,2020-06-04,13:02:48,13:31:45,NA,incomplete,31,color,1,1,right,Green_Circle_Grid_4.jpg,Red_Circle_Dots_1.jpg,Green_Triangle_Stripes_3.jpg,left,594.5099999662489,false,high,false
FIGcpkc6,3e9vauv7czrnvucm8noapw1mqoqyaq,3oonkj5dkgwi7ab6zgka70jhhopob9,FIGcpkc6,2020-0188,2020-06-04,13:02:48,13:31:45,NA,incomplete,32,color,1,1,left,Green_Circle_Stripes_2.jpg,Green_Plus_Grid_1.jpg,Purple_Circle_Dots_3.jpg,left,630.8999999891967,true,high,false
FIGcpkc6,3e9vauv7czrnvucm8noapw1mqoqyaq,3oonkj5dkgwi7ab6zgka70jhhopob9,FIGcpkc6,2020-0188,2020-06-04,13:02:48,13:31:45,NA,incomplete,33,color,1,1,left,Blue_Star_Grid_1.jpg,Blue_Triangle_Stripes_3.jpg,Purple_Star_Chess_4.jpg,left,857.5849999906495,true,high,false
FIGcpkc6,3e9vauv7czrnvucm8noapw1mqoqyaq,3oonkj5dkgwi7ab6zgka70jhhopob9,FIGcpkc6,2020-0188,2020-06-04,13:02:48,13:31:45,NA,incomplete,34,color,1,1,right,Green_Plus_Chess_1.jpg,Blue_Plus_Dots_4.jpg,Green_Circle_Grid_2.jpg,right,637.7450000145473,true,high,false
FIGcpkc6,3e9vauv7czrnvucm8noapw1mqoqyaq,3oonkj5dkgwi7ab6zgka70jhhopob9,FIGcpkc6,2020-0188,2020-06-04,13:02:48,13:31:45,NA,incomplete,35,color,1,1,left,Green_Circle_Grid_3.jpg,Green_Triangle_Dots_4.jpg,Blue_Circle_Stripes_2.jpg,left,516.109999967739,true,high,false
FIGcpkc6,3e9vauv7czrnvucm8noapw1mqoqyaq,3oonkj5dkgwi7ab6zgka70jhhopob9,FIGcpkc6,2020-0188,2020-06-04,13:02:48,13:31:45,NA,incomplete,36,color,1,1,left,Purple_Triangle_Stripes_1.jpg,Purple_Plus_Grid_4.jpg,Green_Triangle_Dots_3.jpg,left,754.8149999929592,true,high,false
FIGcpkc6,3e9vauv7czrnvucm8noapw1mqoqyaq,3oonkj5dkgwi7ab6zgka70jhhopob9,FIGcpkc6,2020-0188,2020-06-04,13:02:48,13:31:45,NA,incomplete,37,color,1,1,right,Red_Triangle_Stripes_1.jpg,Blue_Triangle_Chess_2.jpg,Red_Circle_Dots_4.jpg,right,528.6450000130571,true,high,false
FIGcpkc6,3e9vauv7czrnvucm8noapw1mqoqyaq,3oonkj5dkgwi7ab6zgka70jhhopob9,FIGcpkc6,2020-0188,2020-06-04,13:02:48,13:31:45,NA,incomplete,38,color,1,1,left,Green_Triangle_Dots_1.jpg,Green_Circle_Chess_4.jpg,Red_Triangle_Stripes_3.jpg,left,583.3599999896251,true,high,false
FIGcpkc6,3e9vauv7czrnvucm8noapw1mqoqyaq,3oonkj5dkgwi7ab6zgka70jhhopob9,FIGcpkc6,2020-0188,2020-06-04,13:02:48,13:31:45,NA,incomplete,39,color,1,0,left,Red_Star_Stripes_3.jpg,Red_Circle_Grid_2.jpg,Purple_Star_Chess_1.jpg,left,950.539999990724,true,high,false
FIGcpkc6,3e9vauv7czrnvucm8noapw1mqoqyaq,3oonkj5dkgwi7ab6zgka70jhhopob9,FIGcpkc6,2020-0188,2020-06-04,13:02:48,13:31:45,NA,incomplete,40,shape,0,0,left,Green_Star_Chess_2.jpg,Purple_Star_Grid_3.jpg,Green_Plus_Stripes_1.jpg,right,613.6500000138767,false,high,false
FIGcpkc6,3e9vauv7czrnvucm8noapw1mqoqyaq,3oonkj5dkgwi7ab6zgka70jhhopob9,FIGcpkc6,2020-0188,2020-06-04,13:02:48,13:31:45,NA,incomplete,41,shape,0,1,left,Green_Plus_Chess_1.jpg,Purple_Plus_Dots_4.jpg,Green_Circle_Grid_3.jpg,right,464.29000003263354,false,high,false
FIGcpkc6,3e9vauv7czrnvucm8noapw1mqoqyaq,3oonkj5dkgwi7ab6zgka70jhhopob9,FIGcpkc6,2020-0188,2020-06-04,13:02:48,13:31:45,NA,incomplete,42,shape,0,1,right,Blue_Plus_Grid_4.jpg,Blue_Triangle_Stripes_1.jpg,Green_Plus_Chess_3.jpg,left,573.9149999571964,false,high,false
FIGcpkc6,3e9vauv7czrnvucm8noapw1mqoqyaq,3oonkj5dkgwi7ab6zgka70jhhopob9,FIGcpkc6,2020-0188,2020-06-04,13:02:48,13:31:45,NA,incomplete,43,shape,0,1,left,Blue_Circle_Grid_4.jpg,Red_Circle_Chess_2.jpg,Blue_Plus_Stripes_1.jpg,left,708.5700000170618,true,high,false
FIGcpkc6,3e9vauv7czrnvucm8noapw1mqoqyaq,3oonkj5dkgwi7ab6zgka70jhhopob9,FIGcpkc6,2020-0188,2020-06-04,13:02:48,13:31:45,NA,incomplete,44,shape,0,0,right,Red_Triangle_Chess_4.jpg,Red_Plus_Dots_1.jpg,Purple_Triangle_Stripes_2.jpg,right,1026.9100000150502,true,high,false
FIGcpkc6,3e9vauv7czrnvucm8noapw1mqoqyaq,3oonkj5dkgwi7ab6zgka70jhhopob9,FIGcpkc6,2020-0188,2020-06-04,13:02:48,13:31:45,NA,incomplete,45,shape,0,0,right,Red_Circle_Stripes_3.jpg,Red_Star_Chess_1.jpg,Purple_Circle_Dots_2.jpg,right,638.3650000207126,true,high,false
FIGcpkc6,3e9vauv7czrnvucm8noapw1mqoqyaq,3oonkj5dkgwi7ab6zgka70jhhopob9,FIGcpkc6,2020-0188,2020-06-04,13:02:48,13:31:45,NA,incomplete,46,shape,0,1,right,Blue_Star_Dots_1.jpg,Blue_Triangle_Grid_4.jpg,Green_Star_Chess_2.jpg,left,617.5650000222959,false,high,false
FIGcpkc6,3e9vauv7czrnvucm8noapw1mqoqyaq,3oonkj5dkgwi7ab6zgka70jhhopob9,FIGcpkc6,2020-0188,2020-06-04,13:02:48,13:31:45,NA,incomplete,47,shape,0,1,right,Green_Circle_Chess_4.jpg,Green_Star_Grid_2.jpg,Purple_Circle_Dots_3.jpg,left,606.8999999552034,false,high,false
FIGcpkc6,3e9vauv7czrnvucm8noapw1mqoqyaq,3oonkj5dkgwi7ab6zgka70jhhopob9,FIGcpkc6,2020-0188,2020-06-04,13:02:48,13:31:45,NA,incomplete,48,shape,0,0,left,Red_Star_Stripes_1.jpg,Purple_Star_Dots_2.jpg,Red_Circle_Chess_3.jpg,right,857.7100000111386,false,high,false
FIGcpkc6,3e9vauv7czrnvucm8noapw1mqoqyaq,3oonkj5dkgwi7ab6zgka70jhhopob9,FIGcpkc6,2020-0188,2020-06-04,13:02:48,13:31:45,NA,incomplete,49,shape,0,1,left,Green_Triangle_Grid_4.jpg,Red_Triangle_Dots_2.jpg,Green_Star_Stripes_3.jpg,right,712.6350000035018,false,high,false
FIGcpkc6,3e9vauv7czrnvucm8noapw1mqoqyaq,3oonkj5dkgwi7ab6zgka70jhhopob9,FIGcpkc6,2020-0188,2020-06-04,13:02:48,13:31:45,NA,incomplete,50,color,1,0,left,Purple_Circle_Chess_1.jpg,Purple_Star_Stripes_3.jpg,Red_Circle_Dots_2.jpg,right,851.7800000263378,false,high,false
FIGcpkc6,3e9vauv7czrnvucm8noapw1mqoqyaq,3oonkj5dkgwi7ab6zgka70jhhopob9,FIGcpkc6,2020-0188,2020-06-04,13:02:48,13:31:45,NA,incomplete,51,color,1,1,left,Blue_Circle_Chess_2.jpg,Blue_Triangle_Dots_3.jpg,Purple_Circle_Stripes_4.jpg,right,583.1900000339374,false,high,false
FIGcpkc6,3e9vauv7czrnvucm8noapw1mqoqyaq,3oonkj5dkgwi7ab6zgka70jhhopob9,FIGcpkc6,2020-0188,2020-06-04,13:02:48,13:31:45,NA,incomplete,52,color,1,1,left,Blue_Plus_Grid_3.jpg,Blue_Circle_Chess_1.jpg,Green_Plus_Stripes_4.jpg,right,1395.0949999853037,false,high,false
FIGcpkc6,3e9vauv7czrnvucm8noapw1mqoqyaq,3oonkj5dkgwi7ab6zgka70jhhopob9,FIGcpkc6,2020-0188,2020-06-04,13:02:48,13:31:45,NA,incomplete,53,color,1,1,right,Purple_Plus_Grid_2.jpg,Red_Plus_Dots_3.jpg,Purple_Triangle_Stripes_4.jpg,left,598.8149999757297,false,high,false
FIGcpkc6,3e9vauv7czrnvucm8noapw1mqoqyaq,3oonkj5dkgwi7ab6zgka70jhhopob9,FIGcpkc6,2020-0188,2020-06-04,13:02:48,13:31:45,NA,incomplete,54,color,1,1,left,Blue_Circle_Grid_3.jpg,Blue_Triangle_Dots_4.jpg,Purple_Circle_Stripes_2.jpg,left,646.2649999884889,true,high,false
FIGcpkc6,3e9vauv7czrnvucm8noapw1mqoqyaq,3oonkj5dkgwi7ab6zgka70jhhopob9,FIGcpkc6,2020-0188,2020-06-04,13:02:48,13:31:45,NA,incomplete,55,color,1,1,left,Red_Plus_Grid_1.jpg,Red_Circle_Stripes_3.jpg,Green_Plus_Chess_2.jpg,left,542.5999999861233,true,high,false
FIGcpkc6,3e9vauv7czrnvucm8noapw1mqoqyaq,3oonkj5dkgwi7ab6zgka70jhhopob9,FIGcpkc6,2020-0188,2020-06-04,13:02:48,13:31:45,NA,incomplete,56,color,1,1,right,Red_Circle_Stripes_2.jpg,Purple_Circle_Grid_3.jpg,Red_Triangle_Dots_4.jpg,left,829.6850000042468,false,high,false
FIGcpkc6,3e9vauv7czrnvucm8noapw1mqoqyaq,3oonkj5dkgwi7ab6zgka70jhhopob9,FIGcpkc6,2020-0188,2020-06-04,13:02:48,13:31:45,NA,incomplete,57,color,1,0,right,Red_Plus_Grid_4.jpg,Blue_Plus_Stripes_2.jpg,Red_Triangle_Chess_1.jpg,left,869.574999960605,false,high,false
FIGcpkc6,3e9vauv7czrnvucm8noapw1mqoqyaq,3oonkj5dkgwi7ab6zgka70jhhopob9,FIGcpkc6,2020-0188,2020-06-04,13:02:48,13:31:45,NA,incomplete,58,color,1,1,right,Red_Plus_Stripes_3.jpg,Purple_Plus_Dots_1.jpg,Red_Star_Chess_4.jpg,left,828.1750000314787,false,high,false
FIGcpkc6,3e9vauv7czrnvucm8noapw1mqoqyaq,3oonkj5dkgwi7ab6zgka70jhhopob9,FIGcpkc6,2020-0188,2020-06-04,13:02:48,13:31:45,NA,incomplete,59,color,1,1,right,Blue_Star_Stripes_1.jpg,Purple_Star_Dots_2.jpg,Blue_Circle_Chess_4.jpg,left,972.490000014659,false,high,false
FIGcpkc6,3e9vauv7czrnvucm8noapw1mqoqyaq,3oonkj5dkgwi7ab6zgka70jhhopob9,FIGcpkc6,2020-0188,2020-06-04,13:02:48,13:31:45,NA,incomplete,60,shape,0,1,left,Green_Circle_Grid_3.jpg,Red_Circle_Chess_4.jpg,Green_Plus_Dots_1.jpg,right,622.8750000009313,false,high,false
FIGcpkc6,3e9vauv7czrnvucm8noapw1mqoqyaq,3oonkj5dkgwi7ab6zgka70jhhopob9,FIGcpkc6,2020-0188,2020-06-04,13:02:48,13:31:45,NA,incomplete,61,shape,0,1,right,Blue_Triangle_Stripes_4.jpg,Blue_Star_Grid_2.jpg,Green_Triangle_Dots_1.jpg,left,577.3199999821372,false,high,false
FIGcpkc6,3e9vauv7czrnvucm8noapw1mqoqyaq,3oonkj5dkgwi7ab6zgka70jhhopob9,FIGcpkc6,2020-0188,2020-06-04,13:02:48,13:31:45,NA,incomplete,62,shape,0,1,left,Blue_Circle_Grid_3.jpg,Green_Circle_Dots_1.jpg,Blue_Star_Chess_4.jpg,left,1167.139999975916,true,high,false
FIGcpkc6,3e9vauv7czrnvucm8noapw1mqoqyaq,3oonkj5dkgwi7ab6zgka70jhhopob9,FIGcpkc6,2020-0188,2020-06-04,13:02:48,13:31:45,NA,incomplete,63,shape,0,1,right,Red_Star_Chess_3.jpg,Red_Circle_Stripes_2.jpg,Purple_Star_Dots_1.jpg,right,1024.3100000079721,true,high,false
FIGcpkc6,3e9vauv7czrnvucm8noapw1mqoqyaq,3oonkj5dkgwi7ab6zgka70jhhopob9,FIGcpkc6,2020-0188,2020-06-04,13:02:48,13:31:45,NA,incomplete,64,shape,0,1,left,Red_Circle_Grid_3.jpg,Purple_Circle_Chess_4.jpg,Red_Star_Dots_1.jpg,left,1096.2699999799952,true,high,false
FIGcpkc6,3e9vauv7czrnvucm8noapw1mqoqyaq,3oonkj5dkgwi7ab6zgka70jhhopob9,FIGcpkc6,2020-0188,2020-06-04,13:02:48,13:31:45,NA,incomplete,65,shape,0,1,right,Red_Circle_Chess_3.jpg,Red_Star_Stripes_2.jpg,Purple_Circle_Grid_4.jpg,right,594.3200000328943,true,high,false
FIGcpkc6,3e9vauv7czrnvucm8noapw1mqoqyaq,3oonkj5dkgwi7ab6zgka70jhhopob9,FIGcpkc6,2020-0188,2020-06-04,13:02:48,13:31:45,NA,incomplete,66,shape,0,1,left,Purple_Triangle_Chess_1.jpg,Green_Triangle_Stripes_4.jpg,Purple_Circle_Grid_3.jpg,left,1360.6800000416115,true,high,false
FIGcpkc6,3e9vauv7czrnvucm8noapw1mqoqyaq,3oonkj5dkgwi7ab6zgka70jhhopob9,FIGcpkc6,2020-0188,2020-06-04,13:02:48,13:31:45,NA,incomplete,67,shape,0,1,right,Green_Triangle_Chess_2.jpg,Green_Plus_Dots_1.jpg,Blue_Triangle_Grid_4.jpg,right,762.0499999611638,true,high,false
FIGcpkc6,3e9vauv7czrnvucm8noapw1mqoqyaq,3oonkj5dkgwi7ab6zgka70jhhopob9,FIGcpkc6,2020-0188,2020-06-04,13:02:48,13:31:45,NA,incomplete,68,shape,0,1,right,Red_Triangle_Chess_4.jpg,Red_Star_Dots_1.jpg,Blue_Triangle_Grid_2.jpg,right,567.2950000152923,true,high,false
FIGcpkc6,3e9vauv7czrnvucm8noapw1mqoqyaq,3oonkj5dkgwi7ab6zgka70jhhopob9,FIGcpkc6,2020-0188,2020-06-04,13:02:48,13:31:45,NA,incomplete,69,shape,0,1,left,Blue_Plus_Stripes_2.jpg,Green_Plus_Chess_4.jpg,Blue_Circle_Dots_1.jpg,left,610.370000009425,true,high,false
FIGcpkc6,3e9vauv7czrnvucm8noapw1mqoqyaq,3oonkj5dkgwi7ab6zgka70jhhopob9,FIGcpkc6,2020-0188,2020-06-04,13:02:48,13:31:45,NA,incomplete,70,color,1,1,left,Red_Star_Grid_2.jpg,Red_Circle_Stripes_4.jpg,Purple_Star_Chess_1.jpg,right,681.2750000390224,false,high,false
FIGcpkc6,3e9vauv7czrnvucm8noapw1mqoqyaq,3oonkj5dkgwi7ab6zgka70jhhopob9,FIGcpkc6,2020-0188,2020-06-04,13:02:48,13:31:45,NA,incomplete,71,color,1,1,left,Red_Triangle_Stripes_2.jpg,Red_Star_Grid_4.jpg,Green_Triangle_Dots_3.jpg,left,608.7699999916367,true,high,false
FIGcpkc6,3e9vauv7czrnvucm8noapw1mqoqyaq,3oonkj5dkgwi7ab6zgka70jhhopob9,FIGcpkc6,2020-0188,2020-06-04,13:02:48,13:31:45,NA,incomplete,72,color,1,0,left,Red_Plus_Stripes_1.jpg,Red_Triangle_Chess_3.jpg,Purple_Plus_Dots_2.jpg,left,541.1749999620952,true,high,false
FIGcpkc6,3e9vauv7czrnvucm8noapw1mqoqyaq,3oonkj5dkgwi7ab6zgka70jhhopob9,FIGcpkc6,2020-0188,2020-06-04,13:02:48,13:31:45,NA,incomplete,73,color,1,0,right,Blue_Star_Dots_1.jpg,Red_Star_Chess_3.jpg,Blue_Plus_Grid_4.jpg,left,734.6000000252388,false,high,false
FIGcpkc6,3e9vauv7czrnvucm8noapw1mqoqyaq,3oonkj5dkgwi7ab6zgka70jhhopob9,FIGcpkc6,2020-0188,2020-06-04,13:02:48,13:31:45,NA,incomplete,74,color,1,1,right,Red_Star_Dots_1.jpg,Blue_Star_Stripes_4.jpg,Red_Triangle_Chess_2.jpg,left,604.0650000213645,false,high,false
FIGcpkc6,3e9vauv7czrnvucm8noapw1mqoqyaq,3oonkj5dkgwi7ab6zgka70jhhopob9,FIGcpkc6,2020-0188,2020-06-04,13:02:48,13:31:45,NA,incomplete,75,color,1,1,left,Green_Star_Stripes_4.jpg,Green_Plus_Chess_3.jpg,Blue_Star_Dots_1.jpg,left,774.8350000474602,true,high,false
FIGcpkc6,3e9vauv7czrnvucm8noapw1mqoqyaq,3oonkj5dkgwi7ab6zgka70jhhopob9,FIGcpkc6,2020-0188,2020-06-04,13:02:48,13:31:45,NA,incomplete,76,color,1,1,right,Purple_Triangle_Stripes_1.jpg,Blue_Triangle_Grid_4.jpg,Purple_Star_Chess_2.jpg,right,512.334999977611,true,high,false
FIGcpkc6,3e9vauv7czrnvucm8noapw1mqoqyaq,3oonkj5dkgwi7ab6zgka70jhhopob9,FIGcpkc6,2020-0188,2020-06-04,13:02:48,13:31:45,NA,incomplete,77,color,1,0,left,Blue_Triangle_Dots_2.jpg,Blue_Plus_Grid_1.jpg,Green_Triangle_Stripes_4.jpg,right,963.6600000085309,false,high,false
FIGcpkc6,3e9vauv7czrnvucm8noapw1mqoqyaq,3oonkj5dkgwi7ab6zgka70jhhopob9,FIGcpkc6,2020-0188,2020-06-04,13:02:48,13:31:45,NA,incomplete,78,color,1,1,left,Blue_Triangle_Chess_4.jpg,Blue_Star_Stripes_2.jpg,Green_Triangle_Grid_1.jpg,right,822.3400000133552,false,high,false
FIGcpkc6,3e9vauv7czrnvucm8noapw1mqoqyaq,3oonkj5dkgwi7ab6zgka70jhhopob9,FIGcpkc6,2020-0188,2020-06-04,13:02:48,13:31:45,NA,incomplete,79,color,1,1,right,Purple_Plus_Chess_4.jpg,Red_Plus_Grid_3.jpg,Purple_Star_Dots_1.jpg,left,661.019999999553,false,high,false
FIGcpkc6,3e9vauv7czrnvucm8noapw1mqoqyaq,3oonkj5dkgwi7ab6zgka70jhhopob9,FIGcpkc6,2020-0188,2020-06-04,13:02:48,13:31:45,NA,incomplete,80,shape,0,1,right,Blue_Star_Dots_4.jpg,Blue_Circle_Stripes_1.jpg,Purple_Star_Chess_3.jpg,left,1218.544999952428,false,high,false
FIGcpkc6,3e9vauv7czrnvucm8noapw1mqoqyaq,3oonkj5dkgwi7ab6zgka70jhhopob9,FIGcpkc6,2020-0188,2020-06-04,13:02:48,13:31:45,NA,incomplete,81,shape,0,1,right,Purple_Star_Dots_2.jpg,Purple_Triangle_Grid_4.jpg,Green_Star_Chess_3.jpg,left,674.9900000286289,false,high,false
FIGcpkc6,3e9vauv7czrnvucm8noapw1mqoqyaq,3oonkj5dkgwi7ab6zgka70jhhopob9,FIGcpkc6,2020-0188,2020-06-04,13:02:48,13:31:45,NA,incomplete,82,shape,0,1,right,Blue_Circle_Chess_1.jpg,Blue_Triangle_Grid_2.jpg,Red_Circle_Stripes_4.jpg,right,823.0600000242703,true,high,false
FIGcpkc6,3e9vauv7czrnvucm8noapw1mqoqyaq,3oonkj5dkgwi7ab6zgka70jhhopob9,FIGcpkc6,2020-0188,2020-06-04,13:02:48,13:31:45,NA,incomplete,83,shape,0,1,left,Blue_Circle_Chess_1.jpg,Green_Circle_Stripes_3.jpg,Blue_Plus_Grid_4.jpg,left,723.4300000127405,true,high,false
FIGcpkc6,3e9vauv7czrnvucm8noapw1mqoqyaq,3oonkj5dkgwi7ab6zgka70jhhopob9,FIGcpkc6,2020-0188,2020-06-04,13:02:48,13:31:45,NA,incomplete,84,shape,0,1,left,Blue_Triangle_Stripes_1.jpg,Green_Triangle_Dots_4.jpg,Blue_Star_Grid_3.jpg,left,701.9450000370853,true,high,false
FIGcpkc6,3e9vauv7czrnvucm8noapw1mqoqyaq,3oonkj5dkgwi7ab6zgka70jhhopob9,FIGcpkc6,2020-0188,2020-06-04,13:02:48,13:31:45,NA,incomplete,85,shape,0,1,right,Purple_Circle_Chess_4.jpg,Purple_Plus_Stripes_2.jpg,Red_Circle_Dots_3.jpg,right,625.4149999585934,true,high,false
FIGcpkc6,3e9vauv7czrnvucm8noapw1mqoqyaq,3oonkj5dkgwi7ab6zgka70jhhopob9,FIGcpkc6,2020-0188,2020-06-04,13:02:48,13:31:45,NA,incomplete,86,shape,0,1,left,Blue_Star_Stripes_3.jpg,Red_Star_Chess_2.jpg,Blue_Triangle_Dots_1.jpg,left,658.7799999979325,true,high,false
FIGcpkc6,3e9vauv7czrnvucm8noapw1mqoqyaq,3oonkj5dkgwi7ab6zgka70jhhopob9,FIGcpkc6,2020-0188,2020-06-04,13:02:48,13:31:45,NA,incomplete,87,shape,0,1,left,Green_Plus_Stripes_4.jpg,Purple_Plus_Grid_3.jpg,Green_Star_Chess_2.jpg,left,1116.8349999934435,true,high,false
FIGcpkc6,3e9vauv7czrnvucm8noapw1mqoqyaq,3oonkj5dkgwi7ab6zgka70jhhopob9,FIGcpkc6,2020-0188,2020-06-04,13:02:48,13:31:45,NA,incomplete,88,shape,0,0,right,Red_Star_Grid_4.jpg,Red_Plus_Chess_2.jpg,Purple_Star_Stripes_1.jpg,right,1060.4300000122748,true,high,false
FIGcpkc6,3e9vauv7czrnvucm8noapw1mqoqyaq,3oonkj5dkgwi7ab6zgka70jhhopob9,FIGcpkc6,2020-0188,2020-06-04,13:02:48,13:31:45,NA,incomplete,89,shape,0,1,right,Blue_Triangle_Grid_4.jpg,Blue_Plus_Dots_2.jpg,Green_Triangle_Stripes_3.jpg,right,838.2949999650009,true,high,false
FIGcpkc6,3e9vauv7czrnvucm8noapw1mqoqyaq,3oonkj5dkgwi7ab6zgka70jhhopob9,FIGcpkc6,2020-0188,2020-06-04,13:02:48,13:31:45,NA,incomplete,90,color,1,1,left,Purple_Star_Stripes_2.jpg,Purple_Circle_Chess_4.jpg,Red_Star_Dots_1.jpg,right,821.4750000042841,false,high,false
FIGcpkc6,3e9vauv7czrnvucm8noapw1mqoqyaq,3oonkj5dkgwi7ab6zgka70jhhopob9,FIGcpkc6,2020-0188,2020-06-04,13:02:48,13:31:45,NA,incomplete,91,color,1,1,left,Purple_Circle_Stripes_1.jpg,Purple_Triangle_Dots_4.jpg,Green_Circle_Grid_2.jpg,right,656.4650000073016,false,high,false
FIGcpkc6,3e9vauv7czrnvucm8noapw1mqoqyaq,3oonkj5dkgwi7ab6zgka70jhhopob9,FIGcpkc6,2020-0188,2020-06-04,13:02:48,13:31:45,NA,incomplete,92,color,1,0,left,Green_Triangle_Dots_4.jpg,Green_Star_Chess_1.jpg,Blue_Triangle_Grid_2.jpg,right,745.8349999506027,false,high,false
FIGcpkc6,3e9vauv7czrnvucm8noapw1mqoqyaq,3oonkj5dkgwi7ab6zgka70jhhopob9,FIGcpkc6,2020-0188,2020-06-04,13:02:48,13:31:45,NA,incomplete,93,color,1,0,right,Blue_Circle_Stripes_1.jpg,Red_Circle_Dots_3.jpg,Blue_Triangle_Chess_4.jpg,left,850.8699999656528,false,high,false
FIGcpkc6,3e9vauv7czrnvucm8noapw1mqoqyaq,3oonkj5dkgwi7ab6zgka70jhhopob9,FIGcpkc6,2020-0188,2020-06-04,13:02:48,13:31:45,NA,incomplete,94,color,1,1,right,Green_Triangle_Chess_4.jpg,Red_Triangle_Stripes_1.jpg,Green_Plus_Grid_2.jpg,right,902.9849999933504,true,high,false
FIGcpkc6,3e9vauv7czrnvucm8noapw1mqoqyaq,3oonkj5dkgwi7ab6zgka70jhhopob9,FIGcpkc6,2020-0188,2020-06-04,13:02:48,13:31:45,NA,incomplete,95,color,1,1,right,Purple_Circle_Chess_4.jpg,Red_Circle_Grid_3.jpg,Purple_Plus_Dots_2.jpg,left,1177.0399999804795,false,high,false
FIGcpkc6,3e9vauv7czrnvucm8noapw1mqoqyaq,3oonkj5dkgwi7ab6zgka70jhhopob9,FIGcpkc6,2020-0188,2020-06-04,13:02:48,13:31:45,NA,incomplete,96,color,1,1,left,Green_Star_Stripes_4.jpg,Green_Plus_Chess_1.jpg,Red_Star_Grid_2.jpg,left,675.1200000289828,true,high,false
FIGcpkc6,3e9vauv7czrnvucm8noapw1mqoqyaq,3oonkj5dkgwi7ab6zgka70jhhopob9,FIGcpkc6,2020-0188,2020-06-04,13:02:48,13:31:45,NA,incomplete,97,color,1,1,left,Blue_Triangle_Chess_4.jpg,Blue_Circle_Dots_2.jpg,Purple_Triangle_Stripes_3.jpg,left,518.6300000059418,true,high,false
FIGcpkc6,3e9vauv7czrnvucm8noapw1mqoqyaq,3oonkj5dkgwi7ab6zgka70jhhopob9,FIGcpkc6,2020-0188,2020-06-04,13:02:48,13:31:45,NA,incomplete,98,color,1,1,left,Green_Plus_Dots_2.jpg,Green_Star_Grid_4.jpg,Blue_Plus_Chess_3.jpg,left,484.73500000545755,true,high,false
FIGcpkc6,3e9vauv7czrnvucm8noapw1mqoqyaq,3oonkj5dkgwi7ab6zgka70jhhopob9,FIGcpkc6,2020-0188,2020-06-04,13:02:48,13:31:45,NA,incomplete,99,color,1,1,right,Purple_Plus_Stripes_2.jpg,Blue_Plus_Grid_4.jpg,Purple_Star_Dots_3.jpg,right,488.42999996850267,true,high,false
FIGcpkc6,3e9vauv7czrnvucm8noapw1mqoqyaq,3oonkj5dkgwi7ab6zgka70jhhopob9,FIGcpkc6,2020-0188,2020-06-04,13:02:48,13:31:45,NA,incomplete,100,shape,0,1,left,Red_Triangle_Grid_4.jpg,Blue_Triangle_Chess_3.jpg,Red_Circle_Stripes_2.jpg,right,625.5300000193529,false,high,false
FIGcpkc6,3e9vauv7czrnvucm8noapw1mqoqyaq,3oonkj5dkgwi7ab6zgka70jhhopob9,FIGcpkc6,2020-0188,2020-06-04,13:02:48,13:31:45,NA,incomplete,101,shape,0,1,left,Blue_Triangle_Stripes_1.jpg,Green_Triangle_Grid_3.jpg,Blue_Circle_Chess_4.jpg,right,528.1449999893084,false,high,false
FIGcpkc6,3e9vauv7czrnvucm8noapw1mqoqyaq,3oonkj5dkgwi7ab6zgka70jhhopob9,FIGcpkc6,2020-0188,2020-06-04,13:02:48,13:31:45,NA,incomplete,102,shape,0,1,right,Red_Circle_Chess_4.jpg,Red_Plus_Stripes_3.jpg,Green_Circle_Grid_2.jpg,left,596.5999999898486,false,high,false
FIGcpkc6,3e9vauv7czrnvucm8noapw1mqoqyaq,3oonkj5dkgwi7ab6zgka70jhhopob9,FIGcpkc6,2020-0188,2020-06-04,13:02:48,13:31:45,NA,incomplete,103,shape,0,1,right,Blue_Plus_Chess_3.jpg,Blue_Star_Grid_4.jpg,Purple_Plus_Dots_1.jpg,right,681.1049999669194,true,high,false
FIGcpkc6,3e9vauv7czrnvucm8noapw1mqoqyaq,3oonkj5dkgwi7ab6zgka70jhhopob9,FIGcpkc6,2020-0188,2020-06-04,13:02:48,13:31:45,NA,incomplete,104,shape,0,0,left,Purple_Circle_Stripes_1.jpg,Green_Circle_Dots_4.jpg,Purple_Star_Grid_3.jpg,left,1304.9600000376813,true,high,false
FIGcpkc6,3e9vauv7czrnvucm8noapw1mqoqyaq,3oonkj5dkgwi7ab6zgka70jhhopob9,FIGcpkc6,2020-0188,2020-06-04,13:02:48,13:31:45,NA,incomplete,105,shape,0,1,right,Green_Circle_Chess_1.jpg,Green_Star_Stripes_2.jpg,Purple_Circle_Dots_4.jpg,left,667.6350000197999,false,high,false
FIGcpkc6,3e9vauv7czrnvucm8noapw1mqoqyaq,3oonkj5dkgwi7ab6zgka70jhhopob9,FIGcpkc6,2020-0188,2020-06-04,13:02:48,13:31:45,NA,incomplete,106,shape,0,0,left,Red_Star_Stripes_1.jpg,Green_Star_Chess_3.jpg,Red_Triangle_Dots_2.jpg,right,531.4149999758229,false,high,false
FIGcpkc6,3e9vauv7czrnvucm8noapw1mqoqyaq,3oonkj5dkgwi7ab6zgka70jhhopob9,FIGcpkc6,2020-0188,2020-06-04,13:02:48,13:31:45,NA,incomplete,107,shape,0,1,left,Purple_Triangle_Grid_2.jpg,Red_Triangle_Stripes_1.jpg,Purple_Circle_Chess_4.jpg,right,575.1450000097975,false,high,false
FIGcpkc6,3e9vauv7czrnvucm8noapw1mqoqyaq,3oonkj5dkgwi7ab6zgka70jhhopob9,FIGcpkc6,2020-0188,2020-06-04,13:02:48,13:31:45,NA,incomplete,108,shape,0,1,right,Blue_Triangle_Dots_1.jpg,Blue_Star_Stripes_2.jpg,Purple_Triangle_Chess_3.jpg,left,435.2799999760464,false,high,false
FIGcpkc6,3e9vauv7czrnvucm8noapw1mqoqyaq,3oonkj5dkgwi7ab6zgka70jhhopob9,FIGcpkc6,2020-0188,2020-06-04,13:02:48,13:31:45,NA,incomplete,109,shape,0,1,left,Blue_Plus_Chess_3.jpg,Green_Plus_Dots_2.jpg,Blue_Star_Grid_1.jpg,left,641.5449999622069,true,high,false
FIGcpkc6,3e9vauv7czrnvucm8noapw1mqoqyaq,3oonkj5dkgwi7ab6zgka70jhhopob9,FIGcpkc6,2020-0188,2020-06-04,13:02:48,13:31:45,NA,incomplete,110,color,1,1,left,Purple_Circle_Stripes_1.jpg,Purple_Plus_Dots_3.jpg,Red_Circle_Grid_4.jpg,left,664.7249999805354,true,high,false
FIGcpkc6,3e9vauv7czrnvucm8noapw1mqoqyaq,3oonkj5dkgwi7ab6zgka70jhhopob9,FIGcpkc6,2020-0188,2020-06-04,13:02:48,13:31:45,NA,incomplete,111,color,1,1,left,Green_Plus_Dots_4.jpg,Green_Star_Stripes_2.jpg,Red_Plus_Chess_3.jpg,left,512.7499999944121,true,high,false
FIGcpkc6,3e9vauv7czrnvucm8noapw1mqoqyaq,3oonkj5dkgwi7ab6zgka70jhhopob9,FIGcpkc6,2020-0188,2020-06-04,13:02:48,13:31:45,NA,incomplete,112,color,1,1,left,Green_Circle_Grid_3.jpg,Green_Plus_Stripes_1.jpg,Red_Circle_Chess_2.jpg,left,547.5650000153109,true,high,false
FIGcpkc6,3e9vauv7czrnvucm8noapw1mqoqyaq,3oonkj5dkgwi7ab6zgka70jhhopob9,FIGcpkc6,2020-0188,2020-06-04,13:02:48,13:31:45,NA,incomplete,113,color,1,1,right,Purple_Star_Chess_3.jpg,Blue_Star_Stripes_1.jpg,Purple_Plus_Grid_4.jpg,right,466.3600000203587,true,high,false
FIGcpkc6,3e9vauv7czrnvucm8noapw1mqoqyaq,3oonkj5dkgwi7ab6zgka70jhhopob9,FIGcpkc6,2020-0188,2020-06-04,13:02:48,13:31:45,NA,incomplete,114,color,1,1,left,Green_Star_Grid_2.jpg,Green_Circle_Stripes_1.jpg,Purple_Star_Chess_3.jpg,left,480.18000001320615,true,high,false
FIGcpkc6,3e9vauv7czrnvucm8noapw1mqoqyaq,3oonkj5dkgwi7ab6zgka70jhhopob9,FIGcpkc6,2020-0188,2020-06-04,13:02:48,13:31:45,NA,incomplete,115,color,1,1,left,Green_Triangle_Stripes_4.jpg,Green_Circle_Grid_3.jpg,Blue_Triangle_Dots_2.jpg,left,389.2450000275858,true,high,false
FIGcpkc6,3e9vauv7czrnvucm8noapw1mqoqyaq,3oonkj5dkgwi7ab6zgka70jhhopob9,FIGcpkc6,2020-0188,2020-06-04,13:02:48,13:31:45,NA,incomplete,116,color,1,1,left,Blue_Circle_Dots_2.jpg,Blue_Plus_Grid_1.jpg,Green_Circle_Chess_4.jpg,left,639.4250000012107,true,high,false
FIGcpkc6,3e9vauv7czrnvucm8noapw1mqoqyaq,3oonkj5dkgwi7ab6zgka70jhhopob9,FIGcpkc6,2020-0188,2020-06-04,13:02:48,13:31:45,NA,incomplete,117,color,1,0,left,Purple_Plus_Stripes_4.jpg,Purple_Triangle_Chess_3.jpg,Green_Plus_Dots_1.jpg,left,527.0199999795295,true,high,false
FIGcpkc6,3e9vauv7czrnvucm8noapw1mqoqyaq,3oonkj5dkgwi7ab6zgka70jhhopob9,FIGcpkc6,2020-0188,2020-06-04,13:02:48,13:31:45,NA,incomplete,118,color,1,1,left,Green_Plus_Grid_2.jpg,Green_Circle_Dots_1.jpg,Blue_Plus_Stripes_4.jpg,right,575.0950000365265,false,high,false
FIGcpkc6,3e9vauv7czrnvucm8noapw1mqoqyaq,3oonkj5dkgwi7ab6zgka70jhhopob9,FIGcpkc6,2020-0188,2020-06-04,13:02:48,13:31:45,NA,incomplete,119,color,1,1,left,Red_Circle_Dots_1.jpg,Red_Star_Grid_4.jpg,Green_Circle_Chess_2.jpg,right,936.5400000242516,false,high,false
FIGcpkc6,3e9vauv7czrnvucm8noapw1mqoqyaq,3oonkj5dkgwi7ab6zgka70jhhopob9,FIGcpkc6,2020-0188,2020-06-04,13:02:48,13:31:45,NA,incomplete,120,race,2,0,right,A_F_12.jpg,C_F_13.jpg,A_M_14.jpg,NA,NA,NA,high,false
FIGcpkc6,3e9vauv7czrnvucm8noapw1mqoqyaq,3oonkj5dkgwi7ab6zgka70jhhopob9,FIGcpkc6,2020-0188,2020-06-04,13:02:48,13:31:45,NA,incomplete,121,race,2,1,right,A_M_09.jpg,C_M_03.jpg,A_F_07.jpg,right,806.609999970533,true,high,false
FIGcpkc6,3e9vauv7czrnvucm8noapw1mqoqyaq,3oonkj5dkgwi7ab6zgka70jhhopob9,FIGcpkc6,2020-0188,2020-06-04,13:02:48,13:31:45,NA,incomplete,122,race,2,1,right,C_F_13.jpg,A_F_01.jpg,C_M_07.jpg,right,1041.414999985136,true,high,false
FIGcpkc6,3e9vauv7czrnvucm8noapw1mqoqyaq,3oonkj5dkgwi7ab6zgka70jhhopob9,FIGcpkc6,2020-0188,2020-06-04,13:02:48,13:31:45,NA,incomplete,123,race,2,1,left,C_F_11.jpg,C_M_02.jpg,A_F_10.jpg,right,814.0600000042468,false,high,false
FIGcpkc6,3e9vauv7czrnvucm8noapw1mqoqyaq,3oonkj5dkgwi7ab6zgka70jhhopob9,FIGcpkc6,2020-0188,2020-06-04,13:02:48,13:31:45,NA,incomplete,124,race,2,0,left,C_M_11.jpg,C_F_07.jpg,A_M_01.jpg,right,677.765000029467,false,high,false
FIGcpkc6,3e9vauv7czrnvucm8noapw1mqoqyaq,3oonkj5dkgwi7ab6zgka70jhhopob9,FIGcpkc6,2020-0188,2020-06-04,13:02:48,13:31:45,NA,incomplete,125,race,2,1,left,A_M_08.jpg,A_F_01.jpg,C_M_15.jpg,right,967.4050000030547,false,high,false
FIGcpkc6,3e9vauv7czrnvucm8noapw1mqoqyaq,3oonkj5dkgwi7ab6zgka70jhhopob9,FIGcpkc6,2020-0188,2020-06-04,13:02:48,13:31:45,NA,incomplete,126,race,2,1,left,C_M_02.jpg,C_F_07.jpg,A_M_11.jpg,right,636.9800000102259,false,high,false
FIGcpkc6,3e9vauv7czrnvucm8noapw1mqoqyaq,3oonkj5dkgwi7ab6zgka70jhhopob9,FIGcpkc6,2020-0188,2020-06-04,13:02:48,13:31:45,NA,incomplete,127,race,2,1,left,A_M_04.jpg,A_F_07.jpg,C_M_15.jpg,right,801.4200000325218,false,high,false
FIGcpkc6,3e9vauv7czrnvucm8noapw1mqoqyaq,3oonkj5dkgwi7ab6zgka70jhhopob9,FIGcpkc6,2020-0188,2020-06-04,13:02:48,13:31:45,NA,incomplete,128,race,2,0,left,A_M_02.jpg,A_F_12.jpg,C_M_16.jpg,left,984.2349999817088,true,high,false
FIGcpkc6,3e9vauv7czrnvucm8noapw1mqoqyaq,3oonkj5dkgwi7ab6zgka70jhhopob9,FIGcpkc6,2020-0188,2020-06-04,13:02:48,13:31:45,NA,incomplete,129,race,2,1,right,A_F_06.jpg,C_F_05.jpg,A_M_14.jpg,right,1017.5150000141002,true,high,false
FIGcpkc6,3e9vauv7czrnvucm8noapw1mqoqyaq,3oonkj5dkgwi7ab6zgka70jhhopob9,FIGcpkc6,2020-0188,2020-06-04,13:02:48,13:31:45,NA,incomplete,130,race,2,1,left,A_M_14.jpg,A_F_01.jpg,C_M_15.jpg,left,713.5249999701045,true,high,false
FIGcpkc6,3e9vauv7czrnvucm8noapw1mqoqyaq,3oonkj5dkgwi7ab6zgka70jhhopob9,FIGcpkc6,2020-0188,2020-06-04,13:02:48,13:31:45,NA,incomplete,131,race,2,1,right,A_F_07.jpg,C_F_06.jpg,A_M_16.jpg,right,752.9050000011921,true,high,false
FIGcpkc6,3e9vauv7czrnvucm8noapw1mqoqyaq,3oonkj5dkgwi7ab6zgka70jhhopob9,FIGcpkc6,2020-0188,2020-06-04,13:02:48,13:31:45,NA,incomplete,132,race,2,1,right,A_F_14.jpg,C_F_02.jpg,A_M_11.jpg,right,788.9999999897555,true,high,false
FIGcpkc6,3e9vauv7czrnvucm8noapw1mqoqyaq,3oonkj5dkgwi7ab6zgka70jhhopob9,FIGcpkc6,2020-0188,2020-06-04,13:02:48,13:31:45,NA,incomplete,133,race,2,1,left,A_M_03.jpg,A_F_09.jpg,C_M_02.jpg,left,852.6149999815971,true,high,false
FIGcpkc6,3e9vauv7czrnvucm8noapw1mqoqyaq,3oonkj5dkgwi7ab6zgka70jhhopob9,FIGcpkc6,2020-0188,2020-06-04,13:02:48,13:31:45,NA,incomplete,134,race,2,1,right,C_F_13.jpg,A_F_05.jpg,C_M_14.jpg,left,948.6150000011548,false,high,false
FIGcpkc6,3e9vauv7czrnvucm8noapw1mqoqyaq,3oonkj5dkgwi7ab6zgka70jhhopob9,FIGcpkc6,2020-0188,2020-06-04,13:02:48,13:31:45,NA,incomplete,135,race,2,1,left,A_M_07.jpg,A_F_13.jpg,C_M_03.jpg,left,822.9200000059791,true,high,false
FIGcpkc6,3e9vauv7czrnvucm8noapw1mqoqyaq,3oonkj5dkgwi7ab6zgka70jhhopob9,FIGcpkc6,2020-0188,2020-06-04,13:02:48,13:31:45,NA,incomplete,136,race,2,1,right,C_F_11.jpg,A_F_09.jpg,C_M_12.jpg,left,774.4750000420026,false,high,false
FIGcpkc6,3e9vauv7czrnvucm8noapw1mqoqyaq,3oonkj5dkgwi7ab6zgka70jhhopob9,FIGcpkc6,2020-0188,2020-06-04,13:02:48,13:31:45,NA,incomplete,137,race,2,0,left,A_M_06.jpg,A_F_14.jpg,C_M_07.jpg,right,510.91499999165535,false,high,false
FIGcpkc6,3e9vauv7czrnvucm8noapw1mqoqyaq,3oonkj5dkgwi7ab6zgka70jhhopob9,FIGcpkc6,2020-0188,2020-06-04,13:02:48,13:31:45,NA,incomplete,138,race,2,1,left,A_M_08.jpg,A_F_14.jpg,C_M_15.jpg,left,713.835000002291,true,high,false
FIGcpkc6,3e9vauv7czrnvucm8noapw1mqoqyaq,3oonkj5dkgwi7ab6zgka70jhhopob9,FIGcpkc6,2020-0188,2020-06-04,13:02:48,13:31:45,NA,incomplete,139,race,2,1,right,C_M_15.jpg,A_M_12.jpg,C_F_06.jpg,right,966.820000030566,true,high,false
FIGcpkc6,3e9vauv7czrnvucm8noapw1mqoqyaq,3oonkj5dkgwi7ab6zgka70jhhopob9,FIGcpkc6,2020-0188,2020-06-04,13:02:48,13:31:45,NA,incomplete,140,gender,3,1,left,A_F_07.jpg,C_F_16.jpg,A_M_11.jpg,left,669.6300000185147,true,high,false
FIGcpkc6,3e9vauv7czrnvucm8noapw1mqoqyaq,3oonkj5dkgwi7ab6zgka70jhhopob9,FIGcpkc6,2020-0188,2020-06-04,13:02:48,13:31:45,NA,incomplete,141,gender,3,1,left,C_M_09.jpg,A_M_15.jpg,C_F_01.jpg,right,709.3800000147894,false,high,false
FIGcpkc6,3e9vauv7czrnvucm8noapw1mqoqyaq,3oonkj5dkgwi7ab6zgka70jhhopob9,FIGcpkc6,2020-0188,2020-06-04,13:02:48,13:31:45,NA,incomplete,142,gender,3,1,left,C_F_03.jpg,A_F_05.jpg,C_M_08.jpg,right,810.7199999503791,false,high,false
FIGcpkc6,3e9vauv7czrnvucm8noapw1mqoqyaq,3oonkj5dkgwi7ab6zgka70jhhopob9,FIGcpkc6,2020-0188,2020-06-04,13:02:48,13:31:45,NA,incomplete,143,gender,3,1,right,C_M_15.jpg,C_F_04.jpg,A_M_14.jpg,right,959.5049999770708,true,high,false
FIGcpkc6,3e9vauv7czrnvucm8noapw1mqoqyaq,3oonkj5dkgwi7ab6zgka70jhhopob9,FIGcpkc6,2020-0188,2020-06-04,13:02:48,13:31:45,NA,incomplete,144,gender,3,1,left,A_F_07.jpg,C_F_13.jpg,A_M_10.jpg,left,555.2100000204518,true,high,false
FIGcpkc6,3e9vauv7czrnvucm8noapw1mqoqyaq,3oonkj5dkgwi7ab6zgka70jhhopob9,FIGcpkc6,2020-0188,2020-06-04,13:02:48,13:31:45,NA,incomplete,145,gender,3,0,left,C_F_06.jpg,A_F_16.jpg,C_M_14.jpg,left,648.2800000230782,true,high,false
FIGcpkc6,3e9vauv7czrnvucm8noapw1mqoqyaq,3oonkj5dkgwi7ab6zgka70jhhopob9,FIGcpkc6,2020-0188,2020-06-04,13:02:48,13:31:45,NA,incomplete,146,gender,3,1,right,C_M_01.jpg,C_F_07.jpg,A_M_03.jpg,left,762.9599999636412,false,high,false
FIGcpkc6,3e9vauv7czrnvucm8noapw1mqoqyaq,3oonkj5dkgwi7ab6zgka70jhhopob9,FIGcpkc6,2020-0188,2020-06-04,13:02:48,13:31:45,NA,incomplete,147,gender,3,1,right,C_M_12.jpg,C_F_05.jpg,A_M_15.jpg,right,974.1999999969266,true,high,false
FIGcpkc6,3e9vauv7czrnvucm8noapw1mqoqyaq,3oonkj5dkgwi7ab6zgka70jhhopob9,FIGcpkc6,2020-0188,2020-06-04,13:02:48,13:31:45,NA,incomplete,148,gender,3,1,left,A_M_15.jpg,C_M_09.jpg,A_F_02.jpg,left,716.6599999764003,true,high,false
FIGcpkc6,3e9vauv7czrnvucm8noapw1mqoqyaq,3oonkj5dkgwi7ab6zgka70jhhopob9,FIGcpkc6,2020-0188,2020-06-04,13:02:48,13:31:45,NA,incomplete,149,gender,3,1,left,C_M_07.jpg,A_M_09.jpg,C_F_12.jpg,right,881.2449999968521,false,high,false
FIGcpkc6,3e9vauv7czrnvucm8noapw1mqoqyaq,3oonkj5dkgwi7ab6zgka70jhhopob9,FIGcpkc6,2020-0188,2020-06-04,13:02:48,13:31:45,NA,incomplete,150,gender,3,1,right,C_F_05.jpg,C_M_10.jpg,A_F_09.jpg,left,570.2750000054948,false,high,false
FIGcpkc6,3e9vauv7czrnvucm8noapw1mqoqyaq,3oonkj5dkgwi7ab6zgka70jhhopob9,FIGcpkc6,2020-0188,2020-06-04,13:02:48,13:31:45,NA,incomplete,151,gender,3,1,right,C_M_04.jpg,C_F_15.jpg,A_M_06.jpg,right,432.86000000080094,true,high,false
FIGcpkc6,3e9vauv7czrnvucm8noapw1mqoqyaq,3oonkj5dkgwi7ab6zgka70jhhopob9,FIGcpkc6,2020-0188,2020-06-04,13:02:48,13:31:45,NA,incomplete,152,gender,3,0,right,A_M_07.jpg,A_F_11.jpg,C_M_02.jpg,right,706.2450000084937,true,high,false
FIGcpkc6,3e9vauv7czrnvucm8noapw1mqoqyaq,3oonkj5dkgwi7ab6zgka70jhhopob9,FIGcpkc6,2020-0188,2020-06-04,13:02:48,13:31:45,NA,incomplete,153,gender,3,1,right,C_F_04.jpg,C_M_01.jpg,A_F_02.jpg,right,773.7100000376813,true,high,false
FIGcpkc6,3e9vauv7czrnvucm8noapw1mqoqyaq,3oonkj5dkgwi7ab6zgka70jhhopob9,FIGcpkc6,2020-0188,2020-06-04,13:02:48,13:31:45,NA,incomplete,154,gender,3,1,right,A_M_14.jpg,A_F_02.jpg,C_M_12.jpg,right,1062.8199999919161,true,high,false
FIGcpkc6,3e9vauv7czrnvucm8noapw1mqoqyaq,3oonkj5dkgwi7ab6zgka70jhhopob9,FIGcpkc6,2020-0188,2020-06-04,13:02:48,13:31:45,NA,incomplete,155,gender,3,1,left,A_M_04.jpg,C_M_05.jpg,A_F_02.jpg,left,1063.475000031758,true,high,false
FIGcpkc6,3e9vauv7czrnvucm8noapw1mqoqyaq,3oonkj5dkgwi7ab6zgka70jhhopob9,FIGcpkc6,2020-0188,2020-06-04,13:02:48,13:31:45,NA,incomplete,156,gender,3,1,left,C_M_04.jpg,A_M_15.jpg,C_F_01.jpg,right,778.2500000321306,false,high,false
FIGcpkc6,3e9vauv7czrnvucm8noapw1mqoqyaq,3oonkj5dkgwi7ab6zgka70jhhopob9,FIGcpkc6,2020-0188,2020-06-04,13:02:48,13:31:45,NA,incomplete,157,gender,3,1,right,C_F_15.jpg,C_M_04.jpg,A_F_11.jpg,right,545.8150000195019,true,high,false
FIGcpkc6,3e9vauv7czrnvucm8noapw1mqoqyaq,3oonkj5dkgwi7ab6zgka70jhhopob9,FIGcpkc6,2020-0188,2020-06-04,13:02:48,13:31:45,NA,incomplete,158,gender,3,1,left,C_F_06.jpg,A_F_08.jpg,C_M_11.jpg,right,356.8749999976717,false,high,false
FIGcpkc6,3e9vauv7czrnvucm8noapw1mqoqyaq,3oonkj5dkgwi7ab6zgka70jhhopob9,FIGcpkc6,2020-0188,2020-06-04,13:02:48,13:31:45,NA,incomplete,159,gender,3,1,right,C_M_01.jpg,C_F_04.jpg,A_M_06.jpg,left,467.3600000096485,false,high,false
FIGcpkc6,3e9vauv7czrnvucm8noapw1mqoqyaq,3oonkj5dkgwi7ab6zgka70jhhopob9,FIGcpkc6,2020-0188,2020-06-04,13:02:48,13:31:45,NA,incomplete,160,race,2,0,left,A_F_13.jpg,A_M_11.jpg,C_F_10.jpg,right,264.7100000176579,false,high,false
FIGcpkc6,3e9vauv7czrnvucm8noapw1mqoqyaq,3oonkj5dkgwi7ab6zgka70jhhopob9,FIGcpkc6,2020-0188,2020-06-04,13:02:48,13:31:45,NA,incomplete,161,race,2,1,left,C_F_03.jpg,C_M_09.jpg,A_F_14.jpg,right,753.6950000212528,false,high,false
FIGcpkc6,3e9vauv7czrnvucm8noapw1mqoqyaq,3oonkj5dkgwi7ab6zgka70jhhopob9,FIGcpkc6,2020-0188,2020-06-04,13:02:48,13:31:45,NA,incomplete,162,race,2,1,left,A_F_06.jpg,A_M_15.jpg,C_F_01.jpg,right,671.1650000070222,false,high,false
FIGcpkc6,3e9vauv7czrnvucm8noapw1mqoqyaq,3oonkj5dkgwi7ab6zgka70jhhopob9,FIGcpkc6,2020-0188,2020-06-04,13:02:48,13:31:45,NA,incomplete,163,race,2,0,left,C_F_01.jpg,C_M_07.jpg,A_F_08.jpg,right,794.869999983348,false,high,false
FIGcpkc6,3e9vauv7czrnvucm8noapw1mqoqyaq,3oonkj5dkgwi7ab6zgka70jhhopob9,FIGcpkc6,2020-0188,2020-06-04,13:02:48,13:31:45,NA,incomplete,164,race,2,1,left,A_M_07.jpg,A_F_01.jpg,C_M_02.jpg,left,953.6000000080094,true,high,false
FIGcpkc6,3e9vauv7czrnvucm8noapw1mqoqyaq,3oonkj5dkgwi7ab6zgka70jhhopob9,FIGcpkc6,2020-0188,2020-06-04,13:02:48,13:31:45,NA,incomplete,165,race,2,1,left,C_F_01.jpg,C_M_12.jpg,A_F_02.jpg,right,747.815000009723,false,high,false
FIGcpkc6,3e9vauv7czrnvucm8noapw1mqoqyaq,3oonkj5dkgwi7ab6zgka70jhhopob9,FIGcpkc6,2020-0188,2020-06-04,13:02:48,13:31:45,NA,incomplete,166,race,2,1,left,C_M_01.jpg,C_F_13.jpg,A_M_07.jpg,left,755.4150000214577,true,high,false
FIGcpkc6,3e9vauv7czrnvucm8noapw1mqoqyaq,3oonkj5dkgwi7ab6zgka70jhhopob9,FIGcpkc6,2020-0188,2020-06-04,13:02:48,13:31:45,NA,incomplete,167,race,2,0,right,C_F_13.jpg,A_F_10.jpg,C_M_04.jpg,right,1009.3750000232831,true,high,false
FIGcpkc6,3e9vauv7czrnvucm8noapw1mqoqyaq,3oonkj5dkgwi7ab6zgka70jhhopob9,FIGcpkc6,2020-0188,2020-06-04,13:02:48,13:31:45,NA,incomplete,168,race,2,1,right,A_M_15.jpg,C_M_07.jpg,A_F_16.jpg,right,808.385000040289,true,high,false
FIGcpkc6,3e9vauv7czrnvucm8noapw1mqoqyaq,3oonkj5dkgwi7ab6zgka70jhhopob9,FIGcpkc6,2020-0188,2020-06-04,13:02:48,13:31:45,NA,incomplete,169,race,2,1,left,A_M_06.jpg,A_F_09.jpg,C_M_15.jpg,left,924.5150000206195,true,high,false
FIGcpkc6,3e9vauv7czrnvucm8noapw1mqoqyaq,3oonkj5dkgwi7ab6zgka70jhhopob9,FIGcpkc6,2020-0188,2020-06-04,13:02:48,13:31:45,NA,incomplete,170,race,2,1,right,A_M_16.jpg,C_M_08.jpg,A_F_06.jpg,right,807.6149999978952,true,high,false
FIGcpkc6,3e9vauv7czrnvucm8noapw1mqoqyaq,3oonkj5dkgwi7ab6zgka70jhhopob9,FIGcpkc6,2020-0188,2020-06-04,13:02:48,13:31:45,NA,incomplete,171,race,2,1,right,C_F_13.jpg,A_F_10.jpg,C_M_09.jpg,left,624.1799999843352,false,high,false
FIGcpkc6,3e9vauv7czrnvucm8noapw1mqoqyaq,3oonkj5dkgwi7ab6zgka70jhhopob9,FIGcpkc6,2020-0188,2020-06-04,13:02:48,13:31:45,NA,incomplete,172,race,2,0,left,A_F_16.jpg,A_M_04.jpg,C_F_14.jpg,right,750.2099999692291,false,high,false
FIGcpkc6,3e9vauv7czrnvucm8noapw1mqoqyaq,3oonkj5dkgwi7ab6zgka70jhhopob9,FIGcpkc6,2020-0188,2020-06-04,13:02:48,13:31:45,NA,incomplete,173,race,2,1,left,A_F_15.jpg,A_M_11.jpg,C_F_05.jpg,right,643.5449999989942,false,high,false
FIGcpkc6,3e9vauv7czrnvucm8noapw1mqoqyaq,3oonkj5dkgwi7ab6zgka70jhhopob9,FIGcpkc6,2020-0188,2020-06-04,13:02:48,13:31:45,NA,incomplete,174,race,2,1,left,A_M_14.jpg,A_F_07.jpg,C_M_12.jpg,right,735.2799999644049,false,high,false
FIGcpkc6,3e9vauv7czrnvucm8noapw1mqoqyaq,3oonkj5dkgwi7ab6zgka70jhhopob9,FIGcpkc6,2020-0188,2020-06-04,13:02:48,13:31:45,NA,incomplete,175,race,2,0,left,A_F_07.jpg,A_M_09.jpg,C_F_08.jpg,left,731.4999999944121,true,high,false
FIGcpkc6,3e9vauv7czrnvucm8noapw1mqoqyaq,3oonkj5dkgwi7ab6zgka70jhhopob9,FIGcpkc6,2020-0188,2020-06-04,13:02:48,13:31:45,NA,incomplete,176,race,2,1,left,A_F_01.jpg,A_M_13.jpg,C_F_05.jpg,right,658.5700000287034,false,high,false
FIGcpkc6,3e9vauv7czrnvucm8noapw1mqoqyaq,3oonkj5dkgwi7ab6zgka70jhhopob9,FIGcpkc6,2020-0188,2020-06-04,13:02:48,13:31:45,NA,incomplete,177,race,2,1,left,A_M_12.jpg,A_F_14.jpg,C_M_10.jpg,left,740.3250000206754,true,high,false
FIGcpkc6,3e9vauv7czrnvucm8noapw1mqoqyaq,3oonkj5dkgwi7ab6zgka70jhhopob9,FIGcpkc6,2020-0188,2020-06-04,13:02:48,13:31:45,NA,incomplete,178,race,2,0,right,A_F_12.jpg,C_F_03.jpg,A_M_13.jpg,right,724.6099999756552,true,high,false
FIGcpkc6,3e9vauv7czrnvucm8noapw1mqoqyaq,3oonkj5dkgwi7ab6zgka70jhhopob9,FIGcpkc6,2020-0188,2020-06-04,13:02:48,13:31:45,NA,incomplete,179,race,2,1,right,C_F_15.jpg,A_F_13.jpg,C_M_03.jpg,left,815.0200000382029,false,high,false
FIGcpkc6,3e9vauv7czrnvucm8noapw1mqoqyaq,3oonkj5dkgwi7ab6zgka70jhhopob9,FIGcpkc6,2020-0188,2020-06-04,13:02:48,13:31:45,NA,incomplete,180,gender,3,1,right,A_M_10.jpg,A_F_14.jpg,C_M_06.jpg,right,738.4900000179186,true,high,false
FIGcpkc6,3e9vauv7czrnvucm8noapw1mqoqyaq,3oonkj5dkgwi7ab6zgka70jhhopob9,FIGcpkc6,2020-0188,2020-06-04,13:02:48,13:31:45,NA,incomplete,181,gender,3,1,right,A_F_02.jpg,A_M_03.jpg,C_F_15.jpg,right,873.444999975618,true,high,false
FIGcpkc6,3e9vauv7czrnvucm8noapw1mqoqyaq,3oonkj5dkgwi7ab6zgka70jhhopob9,FIGcpkc6,2020-0188,2020-06-04,13:02:48,13:31:45,NA,incomplete,182,gender,3,1,right,C_M_10.jpg,C_F_03.jpg,A_M_13.jpg,left,768.6199999880046,false,high,false
FIGcpkc6,3e9vauv7czrnvucm8noapw1mqoqyaq,3oonkj5dkgwi7ab6zgka70jhhopob9,FIGcpkc6,2020-0188,2020-06-04,13:02:48,13:31:45,NA,incomplete,183,gender,3,1,right,C_F_01.jpg,C_M_14.jpg,A_F_03.jpg,left,1300.0250000040978,false,high,false
FIGcpkc6,3e9vauv7czrnvucm8noapw1mqoqyaq,3oonkj5dkgwi7ab6zgka70jhhopob9,FIGcpkc6,2020-0188,2020-06-04,13:02:48,13:31:45,NA,incomplete,184,gender,3,0,right,A_F_04.jpg,A_M_03.jpg,C_F_12.jpg,right,821.7549999826588,true,high,false
FIGcpkc6,3e9vauv7czrnvucm8noapw1mqoqyaq,3oonkj5dkgwi7ab6zgka70jhhopob9,FIGcpkc6,2020-0188,2020-06-04,13:02:48,13:31:45,NA,incomplete,185,gender,3,1,left,A_F_06.jpg,C_F_15.jpg,A_M_02.jpg,left,944.965000031516,true,high,false
FIGcpkc6,3e9vauv7czrnvucm8noapw1mqoqyaq,3oonkj5dkgwi7ab6zgka70jhhopob9,FIGcpkc6,2020-0188,2020-06-04,13:02:48,13:31:45,NA,incomplete,186,gender,3,1,left,A_M_06.jpg,C_M_03.jpg,A_F_14.jpg,left,995.6900000106543,true,high,false
FIGcpkc6,3e9vauv7czrnvucm8noapw1mqoqyaq,3oonkj5dkgwi7ab6zgka70jhhopob9,FIGcpkc6,2020-0188,2020-06-04,13:02:48,13:31:45,NA,incomplete,187,gender,3,1,left,A_M_13.jpg,C_M_02.jpg,A_F_01.jpg,left,690.4849999700673,true,high,false
FIGcpkc6,3e9vauv7czrnvucm8noapw1mqoqyaq,3oonkj5dkgwi7ab6zgka70jhhopob9,FIGcpkc6,2020-0188,2020-06-04,13:02:48,13:31:45,NA,incomplete,188,gender,3,1,right,A_M_10.jpg,A_F_14.jpg,C_M_04.jpg,right,848.4600000083447,true,high,false
FIGcpkc6,3e9vauv7czrnvucm8noapw1mqoqyaq,3oonkj5dkgwi7ab6zgka70jhhopob9,FIGcpkc6,2020-0188,2020-06-04,13:02:48,13:31:45,NA,incomplete,189,gender,3,1,right,A_M_15.jpg,A_F_12.jpg,C_M_05.jpg,right,603.4600000130013,true,high,false
FIGcpkc6,3e9vauv7czrnvucm8noapw1mqoqyaq,3oonkj5dkgwi7ab6zgka70jhhopob9,FIGcpkc6,2020-0188,2020-06-04,13:02:48,13:31:45,NA,incomplete,190,gender,3,1,right,A_F_02.jpg,A_M_10.jpg,C_F_15.jpg,right,927.2200000123121,true,high,false
FIGcpkc6,3e9vauv7czrnvucm8noapw1mqoqyaq,3oonkj5dkgwi7ab6zgka70jhhopob9,FIGcpkc6,2020-0188,2020-06-04,13:02:48,13:31:45,NA,incomplete,191,gender,3,1,right,C_M_10.jpg,C_F_06.jpg,A_M_11.jpg,right,796.4299999875948,true,high,false
FIGcpkc6,3e9vauv7czrnvucm8noapw1mqoqyaq,3oonkj5dkgwi7ab6zgka70jhhopob9,FIGcpkc6,2020-0188,2020-06-04,13:02:48,13:31:45,NA,incomplete,192,gender,3,1,left,C_F_03.jpg,A_F_15.jpg,C_M_07.jpg,right,960.97999997437,false,high,false
FIGcpkc6,3e9vauv7czrnvucm8noapw1mqoqyaq,3oonkj5dkgwi7ab6zgka70jhhopob9,FIGcpkc6,2020-0188,2020-06-04,13:02:48,13:31:45,NA,incomplete,193,gender,3,1,right,A_M_07.jpg,A_F_15.jpg,C_M_04.jpg,right,1028.2400000141934,true,high,false
FIGcpkc6,3e9vauv7czrnvucm8noapw1mqoqyaq,3oonkj5dkgwi7ab6zgka70jhhopob9,FIGcpkc6,2020-0188,2020-06-04,13:02:48,13:31:45,NA,incomplete,194,gender,3,0,right,A_F_10.jpg,A_M_13.jpg,C_F_08.jpg,right,811.5000000107102,true,high,false
FIGcpkc6,3e9vauv7czrnvucm8noapw1mqoqyaq,3oonkj5dkgwi7ab6zgka70jhhopob9,FIGcpkc6,2020-0188,2020-06-04,13:02:48,13:31:45,NA,incomplete,195,gender,3,1,right,C_F_02.jpg,C_M_08.jpg,A_F_16.jpg,right,706.5000000293367,true,high,false
FIGcpkc6,3e9vauv7czrnvucm8noapw1mqoqyaq,3oonkj5dkgwi7ab6zgka70jhhopob9,FIGcpkc6,2020-0188,2020-06-04,13:02:48,13:31:45,NA,incomplete,196,gender,3,1,left,C_F_03.jpg,A_F_15.jpg,C_M_14.jpg,left,1118.465000006836,true,high,false
FIGcpkc6,3e9vauv7czrnvucm8noapw1mqoqyaq,3oonkj5dkgwi7ab6zgka70jhhopob9,FIGcpkc6,2020-0188,2020-06-04,13:02:48,13:31:45,NA,incomplete,197,gender,3,1,right,C_F_11.jpg,C_M_06.jpg,A_F_05.jpg,right,619.7649999521673,true,high,false
FIGcpkc6,3e9vauv7czrnvucm8noapw1mqoqyaq,3oonkj5dkgwi7ab6zgka70jhhopob9,FIGcpkc6,2020-0188,2020-06-04,13:02:48,13:31:45,NA,incomplete,198,gender,3,1,right,A_F_02.jpg,A_M_07.jpg,C_F_11.jpg,right,678.4300000290386,true,high,false
FIGcpkc6,3e9vauv7czrnvucm8noapw1mqoqyaq,3oonkj5dkgwi7ab6zgka70jhhopob9,FIGcpkc6,2020-0188,2020-06-04,13:02:48,13:31:45,NA,incomplete,199,gender,3,1,left,C_M_07.jpg,A_M_11.jpg,C_F_04.jpg,right,588.7499999953434,false,high,false
FIGcpkc6,3e9vauv7czrnvucm8noapw1mqoqyaq,3oonkj5dkgwi7ab6zgka70jhhopob9,FIGcpkc6,2020-0188,2020-06-04,13:02:48,13:31:45,NA,incomplete,200,race,2,0,left,C_M_16.jpg,C_F_03.jpg,A_M_07.jpg,right,926.5299999970011,false,high,false
FIGcpkc6,3e9vauv7czrnvucm8noapw1mqoqyaq,3oonkj5dkgwi7ab6zgka70jhhopob9,FIGcpkc6,2020-0188,2020-06-04,13:02:48,13:31:45,NA,incomplete,201,race,2,1,right,A_M_13.jpg,C_M_12.jpg,A_F_08.jpg,left,847.9600000428036,false,high,false
FIGcpkc6,3e9vauv7czrnvucm8noapw1mqoqyaq,3oonkj5dkgwi7ab6zgka70jhhopob9,FIGcpkc6,2020-0188,2020-06-04,13:02:48,13:31:45,NA,incomplete,202,race,2,0,left,A_M_07.jpg,A_F_04.jpg,C_M_13.jpg,right,651.590000023134,false,high,false
FIGcpkc6,3e9vauv7czrnvucm8noapw1mqoqyaq,3oonkj5dkgwi7ab6zgka70jhhopob9,FIGcpkc6,2020-0188,2020-06-04,13:02:48,13:31:45,NA,incomplete,203,race,2,1,left,A_M_07.jpg,A_F_13.jpg,C_M_09.jpg,right,577.835000003688,false,high,false
FIGcpkc6,3e9vauv7czrnvucm8noapw1mqoqyaq,3oonkj5dkgwi7ab6zgka70jhhopob9,FIGcpkc6,2020-0188,2020-06-04,13:02:48,13:31:45,NA,incomplete,204,race,2,1,right,C_M_03.jpg,A_M_06.jpg,C_F_09.jpg,left,829.5349999680184,false,high,false
FIGcpkc6,3e9vauv7czrnvucm8noapw1mqoqyaq,3oonkj5dkgwi7ab6zgka70jhhopob9,FIGcpkc6,2020-0188,2020-06-04,13:02:48,13:31:45,NA,incomplete,205,race,2,0,left,A_M_07.jpg,A_F_01.jpg,C_M_06.jpg,right,926.2549999984913,false,high,false
FIGcpkc6,3e9vauv7czrnvucm8noapw1mqoqyaq,3oonkj5dkgwi7ab6zgka70jhhopob9,FIGcpkc6,2020-0188,2020-06-04,13:02:48,13:31:45,NA,incomplete,206,race,2,1,left,A_M_02.jpg,A_F_08.jpg,C_M_12.jpg,right,687.0449999696575,false,high,false
FIGcpkc6,3e9vauv7czrnvucm8noapw1mqoqyaq,3oonkj5dkgwi7ab6zgka70jhhopob9,FIGcpkc6,2020-0188,2020-06-04,13:02:48,13:31:45,NA,incomplete,207,race,2,1,left,A_M_14.jpg,A_F_06.jpg,C_M_07.jpg,right,697.8949999902397,false,high,false
FIGcpkc6,3e9vauv7czrnvucm8noapw1mqoqyaq,3oonkj5dkgwi7ab6zgka70jhhopob9,FIGcpkc6,2020-0188,2020-06-04,13:02:48,13:31:45,NA,incomplete,208,race,2,1,left,A_F_13.jpg,A_M_11.jpg,C_F_03.jpg,right,901.8100000103004,false,high,false
FIGcpkc6,3e9vauv7czrnvucm8noapw1mqoqyaq,3oonkj5dkgwi7ab6zgka70jhhopob9,FIGcpkc6,2020-0188,2020-06-04,13:02:48,13:31:45,NA,incomplete,209,race,2,1,left,A_M_08.jpg,A_F_14.jpg,C_M_02.jpg,left,1089.464999968186,true,high,false
FIGcpkc6,3e9vauv7czrnvucm8noapw1mqoqyaq,3oonkj5dkgwi7ab6zgka70jhhopob9,FIGcpkc6,2020-0188,2020-06-04,13:02:48,13:31:45,NA,incomplete,210,race,2,0,left,A_F_07.jpg,A_M_06.jpg,C_F_05.jpg,right,906.2900000135414,false,high,false
FIGcpkc6,3e9vauv7czrnvucm8noapw1mqoqyaq,3oonkj5dkgwi7ab6zgka70jhhopob9,FIGcpkc6,2020-0188,2020-06-04,13:02:48,13:31:45,NA,incomplete,211,race,2,1,left,A_M_12.jpg,A_F_16.jpg,C_M_13.jpg,left,1225.3350000246428,true,high,false
FIGcpkc6,3e9vauv7czrnvucm8noapw1mqoqyaq,3oonkj5dkgwi7ab6zgka70jhhopob9,FIGcpkc6,2020-0188,2020-06-04,13:02:48,13:31:45,NA,incomplete,212,race,2,1,left,C_M_06.jpg,C_F_12.jpg,A_M_15.jpg,left,836.1199999926612,true,high,false
FIGcpkc6,3e9vauv7czrnvucm8noapw1mqoqyaq,3oonkj5dkgwi7ab6zgka70jhhopob9,FIGcpkc6,2020-0188,2020-06-04,13:02:48,13:31:45,NA,incomplete,213,race,2,1,left,C_M_10.jpg,C_F_09.jpg,A_M_11.jpg,right,998.7199999741279,false,high,false
FIGcpkc6,3e9vauv7czrnvucm8noapw1mqoqyaq,3oonkj5dkgwi7ab6zgka70jhhopob9,FIGcpkc6,2020-0188,2020-06-04,13:02:48,13:31:45,NA,incomplete,214,race,2,0,right,C_M_04.jpg,A_M_02.jpg,C_F_13.jpg,right,638.5149999987334,true,high,false
FIGcpkc6,3e9vauv7czrnvucm8noapw1mqoqyaq,3oonkj5dkgwi7ab6zgka70jhhopob9,FIGcpkc6,2020-0188,2020-06-04,13:02:48,13:31:45,NA,incomplete,215,race,2,1,right,C_M_09.jpg,A_M_11.jpg,C_F_04.jpg,right,583.5249999654479,true,high,false
FIGcpkc6,3e9vauv7czrnvucm8noapw1mqoqyaq,3oonkj5dkgwi7ab6zgka70jhhopob9,FIGcpkc6,2020-0188,2020-06-04,13:02:48,13:31:45,NA,incomplete,216,race,2,0,right,C_M_09.jpg,A_M_03.jpg,C_F_15.jpg,right,551.0800000047311,true,high,false
FIGcpkc6,3e9vauv7czrnvucm8noapw1mqoqyaq,3oonkj5dkgwi7ab6zgka70jhhopob9,FIGcpkc6,2020-0188,2020-06-04,13:02:48,13:31:45,NA,incomplete,217,race,2,1,left,A_M_04.jpg,A_F_06.jpg,C_M_16.jpg,left,729.4849999598227,true,high,false
FIGcpkc6,3e9vauv7czrnvucm8noapw1mqoqyaq,3oonkj5dkgwi7ab6zgka70jhhopob9,FIGcpkc6,2020-0188,2020-06-04,13:02:48,13:31:45,NA,incomplete,218,race,2,1,left,C_M_05.jpg,C_F_07.jpg,A_M_10.jpg,left,503.19499999750406,true,high,false
FIGcpkc6,3e9vauv7czrnvucm8noapw1mqoqyaq,3oonkj5dkgwi7ab6zgka70jhhopob9,FIGcpkc6,2020-0188,2020-06-04,13:02:48,13:31:45,NA,incomplete,219,race,2,1,right,C_M_11.jpg,A_M_04.jpg,C_F_12.jpg,right,588.1349999690428,true,high,false
FIGcpkc6,3e9vauv7czrnvucm8noapw1mqoqyaq,3oonkj5dkgwi7ab6zgka70jhhopob9,FIGcpkc6,2020-0188,2020-06-04,13:02:48,13:31:45,NA,incomplete,220,gender,3,0,right,A_M_14.jpg,A_F_09.jpg,C_M_13.jpg,left,510.18500002101064,false,high,false
FIGcpkc6,3e9vauv7czrnvucm8noapw1mqoqyaq,3oonkj5dkgwi7ab6zgka70jhhopob9,FIGcpkc6,2020-0188,2020-06-04,13:02:48,13:31:45,NA,incomplete,221,gender,3,1,left,A_F_14.jpg,C_F_11.jpg,A_M_10.jpg,right,684.8749999771826,false,high,false
FIGcpkc6,3e9vauv7czrnvucm8noapw1mqoqyaq,3oonkj5dkgwi7ab6zgka70jhhopob9,FIGcpkc6,2020-0188,2020-06-04,13:02:48,13:31:45,NA,incomplete,222,gender,3,1,left,C_F_02.jpg,A_F_01.jpg,C_M_05.jpg,left,663.1050000432879,true,high,false
FIGcpkc6,3e9vauv7czrnvucm8noapw1mqoqyaq,3oonkj5dkgwi7ab6zgka70jhhopob9,FIGcpkc6,2020-0188,2020-06-04,13:02:48,13:31:45,NA,incomplete,223,gender,3,1,right,C_F_08.jpg,C_M_06.jpg,A_F_12.jpg,right,689.1550000291318,true,high,false
FIGcpkc6,3e9vauv7czrnvucm8noapw1mqoqyaq,3oonkj5dkgwi7ab6zgka70jhhopob9,FIGcpkc6,2020-0188,2020-06-04,13:02:48,13:31:45,NA,incomplete,224,gender,3,1,right,A_F_13.jpg,A_M_07.jpg,C_F_01.jpg,right,764.3649999517947,true,high,false
FIGcpkc6,3e9vauv7czrnvucm8noapw1mqoqyaq,3oonkj5dkgwi7ab6zgka70jhhopob9,FIGcpkc6,2020-0188,2020-06-04,13:02:48,13:31:45,NA,incomplete,225,gender,3,1,left,A_M_15.jpg,C_M_09.jpg,A_F_08.jpg,left,1197.905000008177,true,high,false
FIGcpkc6,3e9vauv7czrnvucm8noapw1mqoqyaq,3oonkj5dkgwi7ab6zgka70jhhopob9,FIGcpkc6,2020-0188,2020-06-04,13:02:48,13:31:45,NA,incomplete,226,gender,3,1,left,C_M_08.jpg,A_M_10.jpg,C_F_05.jpg,left,638.6550000170246,true,high,false
FIGcpkc6,3e9vauv7czrnvucm8noapw1mqoqyaq,3oonkj5dkgwi7ab6zgka70jhhopob9,FIGcpkc6,2020-0188,2020-06-04,13:02:48,13:31:45,NA,incomplete,227,gender,3,1,right,C_F_05.jpg,C_M_11.jpg,A_F_06.jpg,right,1094.7850000229664,true,high,false
FIGcpkc6,3e9vauv7czrnvucm8noapw1mqoqyaq,3oonkj5dkgwi7ab6zgka70jhhopob9,FIGcpkc6,2020-0188,2020-06-04,13:02:48,13:31:45,NA,incomplete,228,gender,3,1,right,C_M_06.jpg,C_F_02.jpg,A_M_14.jpg,left,600.5349999759346,false,high,false
FIGcpkc6,3e9vauv7czrnvucm8noapw1mqoqyaq,3oonkj5dkgwi7ab6zgka70jhhopob9,FIGcpkc6,2020-0188,2020-06-04,13:02:48,13:31:45,NA,incomplete,229,gender,3,0,right,C_F_02.jpg,C_M_16.jpg,A_F_14.jpg,right,689.5999999833293,true,high,false
FIGcpkc6,3e9vauv7czrnvucm8noapw1mqoqyaq,3oonkj5dkgwi7ab6zgka70jhhopob9,FIGcpkc6,2020-0188,2020-06-04,13:02:48,13:31:45,NA,incomplete,230,gender,3,1,right,C_F_15.jpg,C_M_07.jpg,A_F_12.jpg,left,684.1799999820068,false,high,false
FIGcpkc6,3e9vauv7czrnvucm8noapw1mqoqyaq,3oonkj5dkgwi7ab6zgka70jhhopob9,FIGcpkc6,2020-0188,2020-06-04,13:02:48,13:31:45,NA,incomplete,231,gender,3,1,left,C_M_09.jpg,A_M_11.jpg,C_F_04.jpg,right,800.760000012815,false,high,false
FIGcpkc6,3e9vauv7czrnvucm8noapw1mqoqyaq,3oonkj5dkgwi7ab6zgka70jhhopob9,FIGcpkc6,2020-0188,2020-06-04,13:02:48,13:31:45,NA,incomplete,232,gender,3,1,right,A_M_06.jpg,A_F_16.jpg,C_M_02.jpg,left,582.2150000021793,false,high,false
FIGcpkc6,3e9vauv7czrnvucm8noapw1mqoqyaq,3oonkj5dkgwi7ab6zgka70jhhopob9,FIGcpkc6,2020-0188,2020-06-04,13:02:48,13:31:45,NA,incomplete,233,gender,3,0,right,C_M_16.jpg,C_F_14.jpg,A_M_11.jpg,left,652.3900000029244,false,high,false
FIGcpkc6,3e9vauv7czrnvucm8noapw1mqoqyaq,3oonkj5dkgwi7ab6zgka70jhhopob9,FIGcpkc6,2020-0188,2020-06-04,13:02:48,13:31:45,NA,incomplete,234,gender,3,1,left,C_M_11.jpg,A_M_03.jpg,C_F_01.jpg,right,593.494999979157,false,high,false
FIGcpkc6,3e9vauv7czrnvucm8noapw1mqoqyaq,3oonkj5dkgwi7ab6zgka70jhhopob9,FIGcpkc6,2020-0188,2020-06-04,13:02:48,13:31:45,NA,incomplete,235,gender,3,1,left,A_M_01.jpg,C_M_14.jpg,A_F_09.jpg,left,512.879999994766,true,high,false
FIGcpkc6,3e9vauv7czrnvucm8noapw1mqoqyaq,3oonkj5dkgwi7ab6zgka70jhhopob9,FIGcpkc6,2020-0188,2020-06-04,13:02:48,13:31:45,NA,incomplete,236,gender,3,1,right,A_F_05.jpg,A_M_10.jpg,C_F_14.jpg,right,821.8300000298768,true,high,false
FIGcpkc6,3e9vauv7czrnvucm8noapw1mqoqyaq,3oonkj5dkgwi7ab6zgka70jhhopob9,FIGcpkc6,2020-0188,2020-06-04,13:02:48,13:31:45,NA,incomplete,237,gender,3,1,right,A_M_06.jpg,A_F_16.jpg,C_M_09.jpg,right,723.2450000010431,true,high,false
FIGcpkc6,3e9vauv7czrnvucm8noapw1mqoqyaq,3oonkj5dkgwi7ab6zgka70jhhopob9,FIGcpkc6,2020-0188,2020-06-04,13:02:48,13:31:45,NA,incomplete,238,gender,3,0,right,A_M_09.jpg,A_F_15.jpg,C_M_02.jpg,right,782.0100000244565,true,high,false
FIGcpkc6,3e9vauv7czrnvucm8noapw1mqoqyaq,3oonkj5dkgwi7ab6zgka70jhhopob9,FIGcpkc6,2020-0188,2020-06-04,13:02:48,13:31:45,NA,incomplete,239,gender,3,1,right,C_F_10.jpg,C_M_01.jpg,A_F_04.jpg,right,676.4550000079907,true,high,false
FIGcpkc6,3e9vauv7czrnvucm8noapw1mqoqyaq,3oonkj5dkgwi7ab6zgka70jhhopob9,FIGcpkc6,2020-0188,2020-06-04,13:02:48,13:31:45,NA,NA,instruction example,shape,NA,NA,NA,Red_Plus_Dots_1.jpg,Purple_Plus_Stripes_4.jpg,Red_Circle_Grid_3.jpg,NA,NA,NA,NA,undefined
FIGcpkc6,3e9vauv7czrnvucm8noapw1mqoqyaq,3oonkj5dkgwi7ab6zgka70jhhopob9,FIGcpkc6,2020-0188,2020-06-04,13:02:48,13:31:45,NA,NA,instruction example,shape,NA,NA,NA,Blue_Circle_Dots_1.jpg,Blue_Star_Grid_2.jpg,Green_Circle_Stripes_4.jpg,NA,NA,NA,NA,undefined
FIGcpkc6,3e9vauv7czrnvucm8noapw1mqoqyaq,3oonkj5dkgwi7ab6zgka70jhhopob9,FIGcpkc6,2020-0188,2020-06-04,13:02:48,13:31:45,NA,NA,instruction example,shape,NA,NA,NA,A_M_11.jpg,A_F_13.jpg,C_M_03.jpg,NA,NA,NA,NA,undefined
FIGcpkc6,3e9vauv7czrnvucm8noapw1mqoqyaq,3oonkj5dkgwi7ab6zgka70jhhopob9,FIGcpkc6,2020-0188,2020-06-04,13:02:48,13:31:45,NA,NA,instruction example,shape,NA,NA,NA,A_F_04.jpg,C_F_13.jpg,A_M_05.jpg,NA,NA,NA,NA,undefined
