workerId,hitId,assignmentId,subject,studyid,exp_date,exp_start,exp_end,time_start,time_end,trial,type,sequence,reward_validity,answer,image_top,image_left,image_right,response,response_time,response_acc,volatility,practice
W6WdIuNV,379ol9dbtvr9qb2hghaat1q2k68y9b,3pdjhanyk9t29h8ozc8ccb0or0r6h7,W6WdIuNV,2020-0188,2020-06-04,11:09:31,11:27:25,NA,incomplete,0,filling,0,1,right,Green_Star_Grid_2.jpg,Red_Plus_Stripes_2.jpg,Purple_Triangle_Grid_4.jpg,left,939,false,NA,true
W6WdIuNV,379ol9dbtvr9qb2hghaat1q2k68y9b,3pdjhanyk9t29h8ozc8ccb0or0r6h7,W6WdIuNV,2020-0188,2020-06-04,11:09:31,11:27:25,NA,incomplete,1,filling,0,1,left,Purple_Star_Dots_3.jpg,Green_Circle_Dots_1.jpg,Red_Plus_Chess_3.jpg,right,427,false,NA,true
W6WdIuNV,379ol9dbtvr9qb2hghaat1q2k68y9b,3pdjhanyk9t29h8ozc8ccb0or0r6h7,W6WdIuNV,2020-0188,2020-06-04,11:09:31,11:27:25,NA,incomplete,2,filling,0,1,right,Red_Circle_Grid_4.jpg,Purple_Star_Chess_4.jpg,Green_Triangle_Grid_1.jpg,right,454,true,NA,true
W6WdIuNV,379ol9dbtvr9qb2hghaat1q2k68y9b,3pdjhanyk9t29h8ozc8ccb0or0r6h7,W6WdIuNV,2020-0188,2020-06-04,11:09:31,11:27:25,NA,incomplete,3,filling,0,1,right,Blue_Plus_Grid_4.jpg,Purple_Circle_Dots_4.jpg,Green_Star_Grid_3.jpg,right,262,true,NA,true
W6WdIuNV,379ol9dbtvr9qb2hghaat1q2k68y9b,3pdjhanyk9t29h8ozc8ccb0or0r6h7,W6WdIuNV,2020-0188,2020-06-04,11:09:31,11:27:25,NA,incomplete,4,filling,0,1,left,Red_Triangle_Dots_3.jpg,Blue_Circle_Dots_1.jpg,Purple_Plus_Stripes_3.jpg,right,242,false,NA,true
W6WdIuNV,379ol9dbtvr9qb2hghaat1q2k68y9b,3pdjhanyk9t29h8ozc8ccb0or0r6h7,W6WdIuNV,2020-0188,2020-06-04,11:09:31,11:27:25,NA,incomplete,5,filling,0,1,left,Purple_Circle_Grid_4.jpg,Green_Plus_Grid_3.jpg,Red_Triangle_Stripes_4.jpg,left,261,true,NA,true
W6WdIuNV,379ol9dbtvr9qb2hghaat1q2k68y9b,3pdjhanyk9t29h8ozc8ccb0or0r6h7,W6WdIuNV,2020-0188,2020-06-04,11:09:31,11:27:25,NA,incomplete,6,filling,0,1,right,Red_Plus_Dots_4.jpg,Green_Circle_Chess_4.jpg,Purple_Triangle_Dots_2.jpg,left,966,false,NA,true
W6WdIuNV,379ol9dbtvr9qb2hghaat1q2k68y9b,3pdjhanyk9t29h8ozc8ccb0or0r6h7,W6WdIuNV,2020-0188,2020-06-04,11:09:31,11:27:25,NA,incomplete,7,filling,0,0,left,Purple_Circle_Chess_1.jpg,Blue_Plus_Chess_2.jpg,Green_Star_Grid_1.jpg,right,250,false,NA,true
W6WdIuNV,379ol9dbtvr9qb2hghaat1q2k68y9b,3pdjhanyk9t29h8ozc8ccb0or0r6h7,W6WdIuNV,2020-0188,2020-06-04,11:09:31,11:27:25,NA,incomplete,8,filling,0,0,left,Purple_Circle_Chess_3.jpg,Red_Triangle_Chess_2.jpg,Blue_Star_Grid_3.jpg,right,276,false,NA,true
W6WdIuNV,379ol9dbtvr9qb2hghaat1q2k68y9b,3pdjhanyk9t29h8ozc8ccb0or0r6h7,W6WdIuNV,2020-0188,2020-06-04,11:09:31,11:27:25,NA,incomplete,9,filling,0,1,right,Green_Star_Grid_1.jpg,Blue_Plus_Dots_1.jpg,Red_Triangle_Grid_2.jpg,right,317,true,NA,true
W6WdIuNV,379ol9dbtvr9qb2hghaat1q2k68y9b,3pdjhanyk9t29h8ozc8ccb0or0r6h7,W6WdIuNV,2020-0188,2020-06-04,11:09:31,11:27:25,NA,incomplete,10,filling,0,1,left,Green_Star_Dots_2.jpg,Red_Plus_Dots_4.jpg,Blue_Triangle_Grid_2.jpg,left,296,true,NA,true
W6WdIuNV,379ol9dbtvr9qb2hghaat1q2k68y9b,3pdjhanyk9t29h8ozc8ccb0or0r6h7,W6WdIuNV,2020-0188,2020-06-04,11:09:31,11:27:25,NA,incomplete,11,filling,0,1,left,Red_Circle_Stripes_3.jpg,Purple_Star_Stripes_4.jpg,Blue_Triangle_Grid_3.jpg,right,832,false,NA,true
W6WdIuNV,379ol9dbtvr9qb2hghaat1q2k68y9b,3pdjhanyk9t29h8ozc8ccb0or0r6h7,W6WdIuNV,2020-0188,2020-06-04,11:09:31,11:27:25,NA,incomplete,12,filling,0,1,right,Green_Circle_Stripes_4.jpg,Purple_Triangle_Dots_4.jpg,Blue_Plus_Stripes_2.jpg,left,660,false,NA,true
W6WdIuNV,379ol9dbtvr9qb2hghaat1q2k68y9b,3pdjhanyk9t29h8ozc8ccb0or0r6h7,W6WdIuNV,2020-0188,2020-06-04,11:09:31,11:27:25,NA,incomplete,13,filling,0,1,right,Blue_Star_Grid_4.jpg,Red_Plus_Chess_4.jpg,Green_Circle_Grid_1.jpg,right,950,true,NA,true
W6WdIuNV,379ol9dbtvr9qb2hghaat1q2k68y9b,3pdjhanyk9t29h8ozc8ccb0or0r6h7,W6WdIuNV,2020-0188,2020-06-04,11:09:31,11:27:25,NA,incomplete,14,filling,0,1,right,Purple_Plus_Stripes_3.jpg,Red_Circle_Grid_3.jpg,Green_Star_Stripes_2.jpg,left,860,false,NA,true
W6WdIuNV,379ol9dbtvr9qb2hghaat1q2k68y9b,3pdjhanyk9t29h8ozc8ccb0or0r6h7,W6WdIuNV,2020-0188,2020-06-04,11:09:31,11:27:25,NA,incomplete,15,filling,0,1,right,Purple_Circle_Chess_1.jpg,Red_Star_Stripes_1.jpg,Green_Triangle_Chess_4.jpg,right,761,true,NA,true
W6WdIuNV,379ol9dbtvr9qb2hghaat1q2k68y9b,3pdjhanyk9t29h8ozc8ccb0or0r6h7,W6WdIuNV,2020-0188,2020-06-04,11:09:31,11:27:25,NA,incomplete,16,filling,0,1,right,Green_Plus_Chess_1.jpg,Blue_Star_Dots_1.jpg,Purple_Triangle_Chess_2.jpg,right,737,true,NA,true
W6WdIuNV,379ol9dbtvr9qb2hghaat1q2k68y9b,3pdjhanyk9t29h8ozc8ccb0or0r6h7,W6WdIuNV,2020-0188,2020-06-04,11:09:31,11:27:25,NA,incomplete,17,filling,0,1,right,Blue_Triangle_Grid_2.jpg,Purple_Circle_Stripes_2.jpg,Green_Plus_Grid_1.jpg,right,813,true,NA,true
W6WdIuNV,379ol9dbtvr9qb2hghaat1q2k68y9b,3pdjhanyk9t29h8ozc8ccb0or0r6h7,W6WdIuNV,2020-0188,2020-06-04,11:09:31,11:27:25,NA,incomplete,18,filling,0,1,right,Blue_Triangle_Chess_1.jpg,Red_Plus_Grid_1.jpg,Green_Star_Chess_4.jpg,right,721,true,NA,true
W6WdIuNV,379ol9dbtvr9qb2hghaat1q2k68y9b,3pdjhanyk9t29h8ozc8ccb0or0r6h7,W6WdIuNV,2020-0188,2020-06-04,11:09:31,11:27:25,NA,incomplete,19,filling,0,1,left,Red_Triangle_Stripes_2.jpg,Green_Circle_Stripes_3.jpg,Purple_Plus_Chess_2.jpg,left,1088,true,NA,true
W6WdIuNV,379ol9dbtvr9qb2hghaat1q2k68y9b,3pdjhanyk9t29h8ozc8ccb0or0r6h7,W6WdIuNV,2020-0188,2020-06-04,11:09:31,11:27:25,NA,incomplete,20,number,1,1,right,Red_Triangle_Dots_3.jpg,Purple_Star_Dots_1.jpg,Green_Circle_Chess_3.jpg,left,738,false,NA,true
W6WdIuNV,379ol9dbtvr9qb2hghaat1q2k68y9b,3pdjhanyk9t29h8ozc8ccb0or0r6h7,W6WdIuNV,2020-0188,2020-06-04,11:09:31,11:27:25,NA,incomplete,21,number,1,1,left,Red_Plus_Stripes_2.jpg,Green_Triangle_Dots_2.jpg,Blue_Circle_Stripes_1.jpg,right,1504,false,NA,true
W6WdIuNV,379ol9dbtvr9qb2hghaat1q2k68y9b,3pdjhanyk9t29h8ozc8ccb0or0r6h7,W6WdIuNV,2020-0188,2020-06-04,11:09:31,11:27:25,NA,incomplete,22,number,1,0,left,Purple_Star_Dots_3.jpg,Red_Plus_Chess_3.jpg,Blue_Triangle_Dots_2.jpg,left,1876,true,NA,true
W6WdIuNV,379ol9dbtvr9qb2hghaat1q2k68y9b,3pdjhanyk9t29h8ozc8ccb0or0r6h7,W6WdIuNV,2020-0188,2020-06-04,11:09:31,11:27:25,NA,incomplete,23,number,1,1,right,Green_Plus_Dots_2.jpg,Red_Triangle_Dots_3.jpg,Purple_Star_Chess_2.jpg,left,1080,false,NA,true
W6WdIuNV,379ol9dbtvr9qb2hghaat1q2k68y9b,3pdjhanyk9t29h8ozc8ccb0or0r6h7,W6WdIuNV,2020-0188,2020-06-04,11:09:31,11:27:25,NA,incomplete,24,number,1,1,right,Red_Plus_Stripes_2.jpg,Purple_Triangle_Stripes_4.jpg,Green_Circle_Grid_2.jpg,right,883,true,NA,true
W6WdIuNV,379ol9dbtvr9qb2hghaat1q2k68y9b,3pdjhanyk9t29h8ozc8ccb0or0r6h7,W6WdIuNV,2020-0188,2020-06-04,11:09:31,11:27:25,NA,incomplete,25,number,1,1,left,Red_Star_Dots_3.jpg,Blue_Triangle_Stripes_3.jpg,Purple_Plus_Dots_1.jpg,left,827,true,NA,true
W6WdIuNV,379ol9dbtvr9qb2hghaat1q2k68y9b,3pdjhanyk9t29h8ozc8ccb0or0r6h7,W6WdIuNV,2020-0188,2020-06-04,11:09:31,11:27:25,NA,incomplete,26,number,1,1,right,Blue_Triangle_Dots_4.jpg,Green_Plus_Dots_1.jpg,Purple_Star_Chess_4.jpg,right,810,true,NA,true
W6WdIuNV,379ol9dbtvr9qb2hghaat1q2k68y9b,3pdjhanyk9t29h8ozc8ccb0or0r6h7,W6WdIuNV,2020-0188,2020-06-04,11:09:31,11:27:25,NA,incomplete,27,number,1,1,left,Purple_Triangle_Grid_1.jpg,Red_Star_Chess_1.jpg,Green_Circle_Grid_2.jpg,right,855,false,NA,true
W6WdIuNV,379ol9dbtvr9qb2hghaat1q2k68y9b,3pdjhanyk9t29h8ozc8ccb0or0r6h7,W6WdIuNV,2020-0188,2020-06-04,11:09:31,11:27:25,NA,incomplete,28,number,1,0,right,Red_Plus_Chess_2.jpg,Green_Triangle_Chess_4.jpg,Purple_Star_Stripes_2.jpg,left,924,false,NA,true
W6WdIuNV,379ol9dbtvr9qb2hghaat1q2k68y9b,3pdjhanyk9t29h8ozc8ccb0or0r6h7,W6WdIuNV,2020-0188,2020-06-04,11:09:31,11:27:25,NA,incomplete,29,number,1,1,right,Purple_Plus_Chess_2.jpg,Blue_Star_Chess_3.jpg,Red_Circle_Stripes_2.jpg,left,993,false,NA,true
W6WdIuNV,379ol9dbtvr9qb2hghaat1q2k68y9b,3pdjhanyk9t29h8ozc8ccb0or0r6h7,W6WdIuNV,2020-0188,2020-06-04,11:09:31,11:27:25,NA,incomplete,30,number,1,1,left,Purple_Circle_Dots_3.jpg,Blue_Star_Stripes_3.jpg,Red_Triangle_Dots_1.jpg,right,670,false,NA,true
W6WdIuNV,379ol9dbtvr9qb2hghaat1q2k68y9b,3pdjhanyk9t29h8ozc8ccb0or0r6h7,W6WdIuNV,2020-0188,2020-06-04,11:09:31,11:27:25,NA,incomplete,31,number,1,0,right,Purple_Star_Grid_2.jpg,Green_Circle_Grid_3.jpg,Blue_Triangle_Stripes_2.jpg,right,887,true,NA,true
W6WdIuNV,379ol9dbtvr9qb2hghaat1q2k68y9b,3pdjhanyk9t29h8ozc8ccb0or0r6h7,W6WdIuNV,2020-0188,2020-06-04,11:09:31,11:27:25,NA,incomplete,32,number,1,1,left,Purple_Star_Grid_3.jpg,Blue_Plus_Stripes_3.jpg,Green_Circle_Grid_4.jpg,left,608,true,NA,true
W6WdIuNV,379ol9dbtvr9qb2hghaat1q2k68y9b,3pdjhanyk9t29h8ozc8ccb0or0r6h7,W6WdIuNV,2020-0188,2020-06-04,11:09:31,11:27:25,NA,incomplete,33,number,1,1,left,Green_Circle_Grid_3.jpg,Purple_Plus_Chess_3.jpg,Red_Star_Grid_4.jpg,left,649,true,NA,true
W6WdIuNV,379ol9dbtvr9qb2hghaat1q2k68y9b,3pdjhanyk9t29h8ozc8ccb0or0r6h7,W6WdIuNV,2020-0188,2020-06-04,11:09:31,11:27:25,NA,incomplete,34,number,1,1,left,Blue_Plus_Dots_3.jpg,Purple_Triangle_Chess_3.jpg,Red_Circle_Dots_4.jpg,left,700,true,NA,true
W6WdIuNV,379ol9dbtvr9qb2hghaat1q2k68y9b,3pdjhanyk9t29h8ozc8ccb0or0r6h7,W6WdIuNV,2020-0188,2020-06-04,11:09:31,11:27:25,NA,incomplete,35,number,1,1,right,Purple_Triangle_Chess_3.jpg,Blue_Circle_Chess_1.jpg,Red_Plus_Stripes_3.jpg,right,782,true,NA,true
W6WdIuNV,379ol9dbtvr9qb2hghaat1q2k68y9b,3pdjhanyk9t29h8ozc8ccb0or0r6h7,W6WdIuNV,2020-0188,2020-06-04,11:09:31,11:27:25,NA,incomplete,36,number,1,0,left,Blue_Star_Grid_3.jpg,Red_Plus_Dots_3.jpg,Purple_Triangle_Grid_4.jpg,left,915,true,NA,true
W6WdIuNV,379ol9dbtvr9qb2hghaat1q2k68y9b,3pdjhanyk9t29h8ozc8ccb0or0r6h7,W6WdIuNV,2020-0188,2020-06-04,11:09:31,11:27:25,NA,incomplete,37,number,1,1,right,Blue_Star_Grid_3.jpg,Red_Plus_Grid_4.jpg,Purple_Triangle_Dots_3.jpg,left,1044,false,NA,true
W6WdIuNV,379ol9dbtvr9qb2hghaat1q2k68y9b,3pdjhanyk9t29h8ozc8ccb0or0r6h7,W6WdIuNV,2020-0188,2020-06-04,11:09:31,11:27:25,NA,incomplete,38,number,1,0,left,Purple_Star_Chess_4.jpg,Blue_Plus_Stripes_4.jpg,Green_Triangle_Chess_2.jpg,left,1190,true,NA,true
W6WdIuNV,379ol9dbtvr9qb2hghaat1q2k68y9b,3pdjhanyk9t29h8ozc8ccb0or0r6h7,W6WdIuNV,2020-0188,2020-06-04,11:09:31,11:27:25,NA,incomplete,39,number,1,0,left,Red_Star_Dots_1.jpg,Blue_Plus_Stripes_1.jpg,Green_Circle_Dots_3.jpg,none,0,false,NA,true
W6WdIuNV,379ol9dbtvr9qb2hghaat1q2k68y9b,3pdjhanyk9t29h8ozc8ccb0or0r6h7,W6WdIuNV,2020-0188,2020-06-04,11:09:31,11:27:25,NA,incomplete,0,filling,0,1,right,Red_Triangle_Grid_4.jpg,Blue_Circle_Stripes_4.jpg,Green_Star_Grid_2.jpg,right,468,true,low,false
W6WdIuNV,379ol9dbtvr9qb2hghaat1q2k68y9b,3pdjhanyk9t29h8ozc8ccb0or0r6h7,W6WdIuNV,2020-0188,2020-06-04,11:09:31,11:27:25,NA,incomplete,1,filling,0,0,left,Blue_Circle_Dots_2.jpg,Purple_Star_Dots_3.jpg,Green_Plus_Grid_2.jpg,right,800,false,low,false
W6WdIuNV,379ol9dbtvr9qb2hghaat1q2k68y9b,3pdjhanyk9t29h8ozc8ccb0or0r6h7,W6WdIuNV,2020-0188,2020-06-04,11:09:31,11:27:25,NA,incomplete,2,filling,0,1,left,Blue_Star_Dots_3.jpg,Green_Plus_Dots_4.jpg,Purple_Triangle_Chess_3.jpg,none,0,false,low,false
W6WdIuNV,379ol9dbtvr9qb2hghaat1q2k68y9b,3pdjhanyk9t29h8ozc8ccb0or0r6h7,W6WdIuNV,2020-0188,2020-06-04,11:09:31,11:27:25,NA,incomplete,3,filling,0,1,left,Red_Plus_Grid_3.jpg,Purple_Circle_Grid_2.jpg,Green_Triangle_Dots_3.jpg,right,830,false,low,false
W6WdIuNV,379ol9dbtvr9qb2hghaat1q2k68y9b,3pdjhanyk9t29h8ozc8ccb0or0r6h7,W6WdIuNV,2020-0188,2020-06-04,11:09:31,11:27:25,NA,incomplete,4,filling,0,1,right,Red_Triangle_Chess_3.jpg,Blue_Circle_Dots_3.jpg,Purple_Plus_Chess_4.jpg,left,943,false,low,false
W6WdIuNV,379ol9dbtvr9qb2hghaat1q2k68y9b,3pdjhanyk9t29h8ozc8ccb0or0r6h7,W6WdIuNV,2020-0188,2020-06-04,11:09:31,11:27:25,NA,incomplete,5,filling,0,1,right,Red_Plus_Dots_2.jpg,Purple_Triangle_Grid_2.jpg,Green_Star_Dots_1.jpg,right,304,true,low,false
W6WdIuNV,379ol9dbtvr9qb2hghaat1q2k68y9b,3pdjhanyk9t29h8ozc8ccb0or0r6h7,W6WdIuNV,2020-0188,2020-06-04,11:09:31,11:27:25,NA,incomplete,6,filling,0,1,right,Red_Circle_Chess_2.jpg,Purple_Triangle_Dots_2.jpg,Green_Star_Chess_1.jpg,right,306,true,low,false
W6WdIuNV,379ol9dbtvr9qb2hghaat1q2k68y9b,3pdjhanyk9t29h8ozc8ccb0or0r6h7,W6WdIuNV,2020-0188,2020-06-04,11:09:31,11:27:25,NA,incomplete,7,filling,0,1,right,Green_Circle_Chess_1.jpg,Red_Star_Stripes_1.jpg,Purple_Triangle_Chess_4.jpg,right,210,true,low,false
W6WdIuNV,379ol9dbtvr9qb2hghaat1q2k68y9b,3pdjhanyk9t29h8ozc8ccb0or0r6h7,W6WdIuNV,2020-0188,2020-06-04,11:09:31,11:27:25,NA,incomplete,8,filling,0,1,right,Green_Star_Dots_2.jpg,Blue_Circle_Stripes_2.jpg,Red_Plus_Dots_1.jpg,right,245,true,low,false
W6WdIuNV,379ol9dbtvr9qb2hghaat1q2k68y9b,3pdjhanyk9t29h8ozc8ccb0or0r6h7,W6WdIuNV,2020-0188,2020-06-04,11:09:31,11:27:25,NA,incomplete,9,filling,0,0,right,Blue_Circle_Grid_4.jpg,Purple_Plus_Stripes_4.jpg,Red_Triangle_Grid_2.jpg,left,214,false,low,false
W6WdIuNV,379ol9dbtvr9qb2hghaat1q2k68y9b,3pdjhanyk9t29h8ozc8ccb0or0r6h7,W6WdIuNV,2020-0188,2020-06-04,11:09:31,11:27:25,NA,incomplete,10,filling,0,1,left,Blue_Plus_Grid_2.jpg,Green_Triangle_Grid_4.jpg,Purple_Circle_Dots_2.jpg,left,284,true,low,false
W6WdIuNV,379ol9dbtvr9qb2hghaat1q2k68y9b,3pdjhanyk9t29h8ozc8ccb0or0r6h7,W6WdIuNV,2020-0188,2020-06-04,11:09:31,11:27:25,NA,incomplete,11,filling,0,0,left,Green_Plus_Dots_1.jpg,Blue_Circle_Dots_4.jpg,Red_Triangle_Stripes_1.jpg,left,328,true,low,false
W6WdIuNV,379ol9dbtvr9qb2hghaat1q2k68y9b,3pdjhanyk9t29h8ozc8ccb0or0r6h7,W6WdIuNV,2020-0188,2020-06-04,11:09:31,11:27:25,NA,incomplete,12,filling,0,1,right,Purple_Triangle_Dots_1.jpg,Green_Plus_Chess_1.jpg,Red_Star_Dots_2.jpg,right,265,true,low,false
W6WdIuNV,379ol9dbtvr9qb2hghaat1q2k68y9b,3pdjhanyk9t29h8ozc8ccb0or0r6h7,W6WdIuNV,2020-0188,2020-06-04,11:09:31,11:27:25,NA,incomplete,13,filling,0,1,left,Blue_Star_Grid_2.jpg,Red_Plus_Grid_3.jpg,Purple_Circle_Dots_2.jpg,right,265,false,low,false
W6WdIuNV,379ol9dbtvr9qb2hghaat1q2k68y9b,3pdjhanyk9t29h8ozc8ccb0or0r6h7,W6WdIuNV,2020-0188,2020-06-04,11:09:31,11:27:25,NA,incomplete,14,filling,0,1,left,Purple_Plus_Chess_4.jpg,Blue_Triangle_Chess_2.jpg,Red_Star_Grid_4.jpg,left,324,true,low,false
W6WdIuNV,379ol9dbtvr9qb2hghaat1q2k68y9b,3pdjhanyk9t29h8ozc8ccb0or0r6h7,W6WdIuNV,2020-0188,2020-06-04,11:09:31,11:27:25,NA,incomplete,15,filling,0,0,left,Purple_Triangle_Stripes_4.jpg,Green_Circle_Stripes_1.jpg,Blue_Star_Grid_4.jpg,right,546,false,low,false
W6WdIuNV,379ol9dbtvr9qb2hghaat1q2k68y9b,3pdjhanyk9t29h8ozc8ccb0or0r6h7,W6WdIuNV,2020-0188,2020-06-04,11:09:31,11:27:25,NA,incomplete,16,filling,0,1,left,Green_Plus_Dots_1.jpg,Purple_Circle_Dots_3.jpg,Blue_Triangle_Stripes_1.jpg,right,667,false,low,false
W6WdIuNV,379ol9dbtvr9qb2hghaat1q2k68y9b,3pdjhanyk9t29h8ozc8ccb0or0r6h7,W6WdIuNV,2020-0188,2020-06-04,11:09:31,11:27:25,NA,incomplete,17,filling,0,1,left,Red_Plus_Stripes_4.jpg,Blue_Star_Stripes_3.jpg,Purple_Triangle_Chess_4.jpg,left,338,true,low,false
W6WdIuNV,379ol9dbtvr9qb2hghaat1q2k68y9b,3pdjhanyk9t29h8ozc8ccb0or0r6h7,W6WdIuNV,2020-0188,2020-06-04,11:09:31,11:27:25,NA,incomplete,18,filling,0,1,right,Blue_Star_Grid_1.jpg,Red_Plus_Dots_1.jpg,Green_Triangle_Grid_4.jpg,left,474,false,low,false
W6WdIuNV,379ol9dbtvr9qb2hghaat1q2k68y9b,3pdjhanyk9t29h8ozc8ccb0or0r6h7,W6WdIuNV,2020-0188,2020-06-04,11:09:31,11:27:25,NA,incomplete,19,filling,0,1,left,Purple_Circle_Grid_4.jpg,Green_Star_Grid_2.jpg,Blue_Triangle_Chess_4.jpg,right,16,false,low,false
W6WdIuNV,379ol9dbtvr9qb2hghaat1q2k68y9b,3pdjhanyk9t29h8ozc8ccb0or0r6h7,W6WdIuNV,2020-0188,2020-06-04,11:09:31,11:27:25,NA,incomplete,20,filling,0,1,left,Blue_Circle_Stripes_2.jpg,Red_Triangle_Stripes_1.jpg,Green_Star_Chess_2.jpg,right,244,false,low,false
W6WdIuNV,379ol9dbtvr9qb2hghaat1q2k68y9b,3pdjhanyk9t29h8ozc8ccb0or0r6h7,W6WdIuNV,2020-0188,2020-06-04,11:09:31,11:27:25,NA,incomplete,21,filling,0,1,right,Red_Plus_Grid_4.jpg,Purple_Triangle_Stripes_4.jpg,Blue_Circle_Grid_3.jpg,right,266,true,low,false
W6WdIuNV,379ol9dbtvr9qb2hghaat1q2k68y9b,3pdjhanyk9t29h8ozc8ccb0or0r6h7,W6WdIuNV,2020-0188,2020-06-04,11:09:31,11:27:25,NA,incomplete,22,filling,0,1,right,Blue_Star_Stripes_3.jpg,Red_Plus_Chess_3.jpg,Purple_Triangle_Stripes_1.jpg,left,270,false,low,false
W6WdIuNV,379ol9dbtvr9qb2hghaat1q2k68y9b,3pdjhanyk9t29h8ozc8ccb0or0r6h7,W6WdIuNV,2020-0188,2020-06-04,11:09:31,11:27:25,NA,incomplete,23,filling,0,1,right,Red_Star_Chess_3.jpg,Purple_Circle_Dots_3.jpg,Green_Triangle_Chess_1.jpg,left,791,false,low,false
W6WdIuNV,379ol9dbtvr9qb2hghaat1q2k68y9b,3pdjhanyk9t29h8ozc8ccb0or0r6h7,W6WdIuNV,2020-0188,2020-06-04,11:09:31,11:27:25,NA,incomplete,24,filling,0,1,left,Purple_Star_Chess_4.jpg,Blue_Plus_Chess_3.jpg,Green_Triangle_Grid_4.jpg,left,908,true,low,false
W6WdIuNV,379ol9dbtvr9qb2hghaat1q2k68y9b,3pdjhanyk9t29h8ozc8ccb0or0r6h7,W6WdIuNV,2020-0188,2020-06-04,11:09:31,11:27:25,NA,incomplete,25,filling,0,1,right,Blue_Triangle_Grid_4.jpg,Purple_Star_Stripes_4.jpg,Green_Circle_Grid_2.jpg,right,687,true,low,false
W6WdIuNV,379ol9dbtvr9qb2hghaat1q2k68y9b,3pdjhanyk9t29h8ozc8ccb0or0r6h7,W6WdIuNV,2020-0188,2020-06-04,11:09:31,11:27:25,NA,incomplete,26,filling,0,1,left,Green_Star_Dots_1.jpg,Blue_Plus_Dots_4.jpg,Purple_Circle_Chess_1.jpg,left,809,true,low,false
W6WdIuNV,379ol9dbtvr9qb2hghaat1q2k68y9b,3pdjhanyk9t29h8ozc8ccb0or0r6h7,W6WdIuNV,2020-0188,2020-06-04,11:09:31,11:27:25,NA,incomplete,27,filling,0,0,left,Red_Star_Chess_1.jpg,Purple_Circle_Chess_4.jpg,Blue_Triangle_Grid_1.jpg,right,770,false,low,false
W6WdIuNV,379ol9dbtvr9qb2hghaat1q2k68y9b,3pdjhanyk9t29h8ozc8ccb0or0r6h7,W6WdIuNV,2020-0188,2020-06-04,11:09:31,11:27:25,NA,incomplete,28,filling,0,1,left,Purple_Circle_Chess_4.jpg,Blue_Star_Chess_3.jpg,Red_Triangle_Grid_4.jpg,right,957,false,low,false
W6WdIuNV,379ol9dbtvr9qb2hghaat1q2k68y9b,3pdjhanyk9t29h8ozc8ccb0or0r6h7,W6WdIuNV,2020-0188,2020-06-04,11:09:31,11:27:25,NA,incomplete,29,filling,0,1,right,Green_Star_Grid_2.jpg,Blue_Triangle_Chess_2.jpg,Red_Plus_Grid_3.jpg,right,855,true,low,false
W6WdIuNV,379ol9dbtvr9qb2hghaat1q2k68y9b,3pdjhanyk9t29h8ozc8ccb0or0r6h7,W6WdIuNV,2020-0188,2020-06-04,11:09:31,11:27:25,NA,incomplete,30,number,1,1,right,Red_Star_Dots_1.jpg,Purple_Plus_Dots_4.jpg,Blue_Circle_Grid_1.jpg,left,860,false,low,false
W6WdIuNV,379ol9dbtvr9qb2hghaat1q2k68y9b,3pdjhanyk9t29h8ozc8ccb0or0r6h7,W6WdIuNV,2020-0188,2020-06-04,11:09:31,11:27:25,NA,incomplete,31,number,1,1,left,Red_Circle_Chess_3.jpg,Purple_Star_Stripes_3.jpg,Green_Plus_Chess_1.jpg,right,726,false,low,false
W6WdIuNV,379ol9dbtvr9qb2hghaat1q2k68y9b,3pdjhanyk9t29h8ozc8ccb0or0r6h7,W6WdIuNV,2020-0188,2020-06-04,11:09:31,11:27:25,NA,incomplete,32,number,1,1,right,Blue_Star_Grid_3.jpg,Green_Triangle_Grid_2.jpg,Red_Circle_Dots_3.jpg,left,687,false,low,false
W6WdIuNV,379ol9dbtvr9qb2hghaat1q2k68y9b,3pdjhanyk9t29h8ozc8ccb0or0r6h7,W6WdIuNV,2020-0188,2020-06-04,11:09:31,11:27:25,NA,incomplete,33,number,1,1,left,Red_Circle_Stripes_1.jpg,Green_Plus_Grid_1.jpg,Blue_Triangle_Stripes_2.jpg,right,790,false,low,false
W6WdIuNV,379ol9dbtvr9qb2hghaat1q2k68y9b,3pdjhanyk9t29h8ozc8ccb0or0r6h7,W6WdIuNV,2020-0188,2020-06-04,11:09:31,11:27:25,NA,incomplete,34,number,1,0,right,Green_Triangle_Chess_2.jpg,Blue_Plus_Chess_4.jpg,Purple_Circle_Stripes_2.jpg,left,905,false,low,false
W6WdIuNV,379ol9dbtvr9qb2hghaat1q2k68y9b,3pdjhanyk9t29h8ozc8ccb0or0r6h7,W6WdIuNV,2020-0188,2020-06-04,11:09:31,11:27:25,NA,incomplete,35,number,1,0,left,Red_Plus_Grid_3.jpg,Green_Star_Dots_3.jpg,Purple_Triangle_Grid_4.jpg,left,982,true,low,false
W6WdIuNV,379ol9dbtvr9qb2hghaat1q2k68y9b,3pdjhanyk9t29h8ozc8ccb0or0r6h7,W6WdIuNV,2020-0188,2020-06-04,11:09:31,11:27:25,NA,incomplete,36,number,1,1,left,Green_Plus_Chess_4.jpg,Purple_Star_Grid_4.jpg,Red_Triangle_Chess_1.jpg,right,1472,false,low,false
W6WdIuNV,379ol9dbtvr9qb2hghaat1q2k68y9b,3pdjhanyk9t29h8ozc8ccb0or0r6h7,W6WdIuNV,2020-0188,2020-06-04,11:09:31,11:27:25,NA,incomplete,37,number,1,1,right,Green_Star_Chess_4.jpg,Red_Plus_Chess_1.jpg,Blue_Triangle_Grid_4.jpg,right,1089,true,low,false
W6WdIuNV,379ol9dbtvr9qb2hghaat1q2k68y9b,3pdjhanyk9t29h8ozc8ccb0or0r6h7,W6WdIuNV,2020-0188,2020-06-04,11:09:31,11:27:25,NA,incomplete,38,number,1,1,left,Red_Triangle_Chess_2.jpg,Green_Circle_Grid_2.jpg,Purple_Star_Chess_1.jpg,right,747,false,low,false
W6WdIuNV,379ol9dbtvr9qb2hghaat1q2k68y9b,3pdjhanyk9t29h8ozc8ccb0or0r6h7,W6WdIuNV,2020-0188,2020-06-04,11:09:31,11:27:25,NA,incomplete,39,number,1,1,right,Green_Triangle_Dots_4.jpg,Red_Plus_Dots_3.jpg,Purple_Star_Stripes_4.jpg,right,761,true,low,false
W6WdIuNV,379ol9dbtvr9qb2hghaat1q2k68y9b,3pdjhanyk9t29h8ozc8ccb0or0r6h7,W6WdIuNV,2020-0188,2020-06-04,11:09:31,11:27:25,NA,incomplete,40,number,1,1,left,Blue_Circle_Stripes_4.jpg,Green_Triangle_Dots_4.jpg,Red_Plus_Stripes_1.jpg,right,968,false,low,false
W6WdIuNV,379ol9dbtvr9qb2hghaat1q2k68y9b,3pdjhanyk9t29h8ozc8ccb0or0r6h7,W6WdIuNV,2020-0188,2020-06-04,11:09:31,11:27:25,NA,incomplete,41,number,1,0,right,Blue_Circle_Chess_3.jpg,Green_Triangle_Chess_2.jpg,Purple_Plus_Stripes_3.jpg,left,975,false,low,false
W6WdIuNV,379ol9dbtvr9qb2hghaat1q2k68y9b,3pdjhanyk9t29h8ozc8ccb0or0r6h7,W6WdIuNV,2020-0188,2020-06-04,11:09:31,11:27:25,NA,incomplete,42,number,1,1,left,Green_Circle_Dots_4.jpg,Red_Plus_Chess_4.jpg,Purple_Triangle_Dots_3.jpg,right,1251,false,low,false
W6WdIuNV,379ol9dbtvr9qb2hghaat1q2k68y9b,3pdjhanyk9t29h8ozc8ccb0or0r6h7,W6WdIuNV,2020-0188,2020-06-04,11:09:31,11:27:25,NA,incomplete,43,number,1,1,right,Green_Star_Dots_1.jpg,Red_Plus_Dots_4.jpg,Purple_Triangle_Grid_1.jpg,right,605,true,low,false
W6WdIuNV,379ol9dbtvr9qb2hghaat1q2k68y9b,3pdjhanyk9t29h8ozc8ccb0or0r6h7,W6WdIuNV,2020-0188,2020-06-04,11:09:31,11:27:25,NA,incomplete,44,number,1,0,left,Red_Star_Grid_4.jpg,Purple_Circle_Dots_4.jpg,Blue_Plus_Grid_1.jpg,left,765,true,low,false
W6WdIuNV,379ol9dbtvr9qb2hghaat1q2k68y9b,3pdjhanyk9t29h8ozc8ccb0or0r6h7,W6WdIuNV,2020-0188,2020-06-04,11:09:31,11:27:25,NA,incomplete,45,number,1,1,right,Blue_Plus_Grid_4.jpg,Green_Triangle_Grid_1.jpg,Red_Circle_Dots_4.jpg,left,1351,false,low,false
W6WdIuNV,379ol9dbtvr9qb2hghaat1q2k68y9b,3pdjhanyk9t29h8ozc8ccb0or0r6h7,W6WdIuNV,2020-0188,2020-06-04,11:09:31,11:27:25,NA,incomplete,46,number,1,1,right,Green_Plus_Stripes_3.jpg,Red_Triangle_Stripes_4.jpg,Blue_Circle_Grid_3.jpg,right,788,true,low,false
W6WdIuNV,379ol9dbtvr9qb2hghaat1q2k68y9b,3pdjhanyk9t29h8ozc8ccb0or0r6h7,W6WdIuNV,2020-0188,2020-06-04,11:09:31,11:27:25,NA,incomplete,47,number,1,1,left,Blue_Triangle_Grid_1.jpg,Red_Star_Chess_1.jpg,Purple_Plus_Grid_4.jpg,right,862,false,low,false
W6WdIuNV,379ol9dbtvr9qb2hghaat1q2k68y9b,3pdjhanyk9t29h8ozc8ccb0or0r6h7,W6WdIuNV,2020-0188,2020-06-04,11:09:31,11:27:25,NA,incomplete,48,number,1,1,left,Blue_Star_Stripes_2.jpg,Red_Triangle_Grid_2.jpg,Green_Plus_Stripes_3.jpg,right,1538,false,low,false
W6WdIuNV,379ol9dbtvr9qb2hghaat1q2k68y9b,3pdjhanyk9t29h8ozc8ccb0or0r6h7,W6WdIuNV,2020-0188,2020-06-04,11:09:31,11:27:25,NA,incomplete,49,number,1,1,right,Purple_Circle_Chess_2.jpg,Blue_Star_Chess_1.jpg,Red_Triangle_Stripes_2.jpg,left,1036,false,low,false
W6WdIuNV,379ol9dbtvr9qb2hghaat1q2k68y9b,3pdjhanyk9t29h8ozc8ccb0or0r6h7,W6WdIuNV,2020-0188,2020-06-04,11:09:31,11:27:25,NA,incomplete,50,number,1,0,left,Purple_Plus_Chess_3.jpg,Red_Triangle_Stripes_3.jpg,Blue_Star_Chess_1.jpg,right,325,false,low,false
W6WdIuNV,379ol9dbtvr9qb2hghaat1q2k68y9b,3pdjhanyk9t29h8ozc8ccb0or0r6h7,W6WdIuNV,2020-0188,2020-06-04,11:09:31,11:27:25,NA,incomplete,51,number,1,1,right,Green_Circle_Dots_3.jpg,Blue_Star_Dots_1.jpg,Purple_Triangle_Stripes_3.jpg,right,625,true,low,false
W6WdIuNV,379ol9dbtvr9qb2hghaat1q2k68y9b,3pdjhanyk9t29h8ozc8ccb0or0r6h7,W6WdIuNV,2020-0188,2020-06-04,11:09:31,11:27:25,NA,incomplete,52,number,1,1,left,Green_Circle_Grid_2.jpg,Red_Triangle_Stripes_2.jpg,Blue_Plus_Grid_3.jpg,left,1178,true,low,false
W6WdIuNV,379ol9dbtvr9qb2hghaat1q2k68y9b,3pdjhanyk9t29h8ozc8ccb0or0r6h7,W6WdIuNV,2020-0188,2020-06-04,11:09:31,11:27:25,NA,incomplete,53,number,1,1,left,Red_Plus_Stripes_4.jpg,Green_Triangle_Grid_4.jpg,Blue_Circle_Stripes_1.jpg,left,639,true,low,false
W6WdIuNV,379ol9dbtvr9qb2hghaat1q2k68y9b,3pdjhanyk9t29h8ozc8ccb0or0r6h7,W6WdIuNV,2020-0188,2020-06-04,11:09:31,11:27:25,NA,incomplete,54,number,1,1,right,Purple_Star_Grid_2.jpg,Red_Circle_Grid_1.jpg,Green_Plus_Stripes_2.jpg,right,771,true,low,false
W6WdIuNV,379ol9dbtvr9qb2hghaat1q2k68y9b,3pdjhanyk9t29h8ozc8ccb0or0r6h7,W6WdIuNV,2020-0188,2020-06-04,11:09:31,11:27:25,NA,incomplete,55,number,1,1,right,Green_Plus_Dots_1.jpg,Red_Circle_Dots_3.jpg,Blue_Triangle_Grid_1.jpg,right,338,true,low,false
W6WdIuNV,379ol9dbtvr9qb2hghaat1q2k68y9b,3pdjhanyk9t29h8ozc8ccb0or0r6h7,W6WdIuNV,2020-0188,2020-06-04,11:09:31,11:27:25,NA,incomplete,56,number,1,0,left,Green_Plus_Dots_1.jpg,Red_Triangle_Chess_1.jpg,Blue_Circle_Dots_2.jpg,left,600,true,low,false
W6WdIuNV,379ol9dbtvr9qb2hghaat1q2k68y9b,3pdjhanyk9t29h8ozc8ccb0or0r6h7,W6WdIuNV,2020-0188,2020-06-04,11:09:31,11:27:25,NA,incomplete,57,number,1,1,right,Blue_Triangle_Chess_4.jpg,Green_Star_Chess_1.jpg,Red_Circle_Stripes_4.jpg,right,436,true,low,false
W6WdIuNV,379ol9dbtvr9qb2hghaat1q2k68y9b,3pdjhanyk9t29h8ozc8ccb0or0r6h7,W6WdIuNV,2020-0188,2020-06-04,11:09:31,11:27:25,NA,incomplete,58,number,1,1,right,Red_Circle_Dots_2.jpg,Green_Star_Dots_4.jpg,Purple_Plus_Grid_2.jpg,right,386,true,low,false
W6WdIuNV,379ol9dbtvr9qb2hghaat1q2k68y9b,3pdjhanyk9t29h8ozc8ccb0or0r6h7,W6WdIuNV,2020-0188,2020-06-04,11:09:31,11:27:25,NA,incomplete,59,number,1,1,right,Purple_Triangle_Chess_1.jpg,Blue_Circle_Chess_4.jpg,Red_Plus_Grid_1.jpg,right,351,true,low,false
W6WdIuNV,379ol9dbtvr9qb2hghaat1q2k68y9b,3pdjhanyk9t29h8ozc8ccb0or0r6h7,W6WdIuNV,2020-0188,2020-06-04,11:09:31,11:27:25,NA,incomplete,60,filling,0,1,left,Red_Circle_Stripes_4.jpg,Blue_Plus_Stripes_2.jpg,Green_Star_Dots_4.jpg,right,906,false,low,false
W6WdIuNV,379ol9dbtvr9qb2hghaat1q2k68y9b,3pdjhanyk9t29h8ozc8ccb0or0r6h7,W6WdIuNV,2020-0188,2020-06-04,11:09:31,11:27:25,NA,incomplete,61,filling,0,0,right,Red_Triangle_Chess_2.jpg,Blue_Plus_Dots_2.jpg,Purple_Circle_Chess_3.jpg,left,289,false,low,false
W6WdIuNV,379ol9dbtvr9qb2hghaat1q2k68y9b,3pdjhanyk9t29h8ozc8ccb0or0r6h7,W6WdIuNV,2020-0188,2020-06-04,11:09:31,11:27:25,NA,incomplete,62,filling,0,1,right,Green_Star_Dots_4.jpg,Red_Circle_Chess_4.jpg,Blue_Plus_Dots_3.jpg,left,331,false,low,false
W6WdIuNV,379ol9dbtvr9qb2hghaat1q2k68y9b,3pdjhanyk9t29h8ozc8ccb0or0r6h7,W6WdIuNV,2020-0188,2020-06-04,11:09:31,11:27:25,NA,incomplete,63,filling,0,1,right,Purple_Circle_Stripes_2.jpg,Green_Star_Chess_2.jpg,Blue_Triangle_Stripes_1.jpg,right,422,true,low,false
W6WdIuNV,379ol9dbtvr9qb2hghaat1q2k68y9b,3pdjhanyk9t29h8ozc8ccb0or0r6h7,W6WdIuNV,2020-0188,2020-06-04,11:09:31,11:27:25,NA,incomplete,64,filling,0,0,left,Green_Triangle_Stripes_4.jpg,Red_Plus_Stripes_1.jpg,Blue_Circle_Dots_4.jpg,right,496,false,low,false
W6WdIuNV,379ol9dbtvr9qb2hghaat1q2k68y9b,3pdjhanyk9t29h8ozc8ccb0or0r6h7,W6WdIuNV,2020-0188,2020-06-04,11:09:31,11:27:25,NA,incomplete,65,filling,0,1,right,Green_Triangle_Chess_4.jpg,Red_Star_Grid_4.jpg,Blue_Plus_Chess_2.jpg,left,865,false,low,false
W6WdIuNV,379ol9dbtvr9qb2hghaat1q2k68y9b,3pdjhanyk9t29h8ozc8ccb0or0r6h7,W6WdIuNV,2020-0188,2020-06-04,11:09:31,11:27:25,NA,incomplete,66,filling,0,1,left,Red_Circle_Stripes_3.jpg,Green_Star_Stripes_2.jpg,Purple_Triangle_Chess_3.jpg,right,951,false,low,false
W6WdIuNV,379ol9dbtvr9qb2hghaat1q2k68y9b,3pdjhanyk9t29h8ozc8ccb0or0r6h7,W6WdIuNV,2020-0188,2020-06-04,11:09:31,11:27:25,NA,incomplete,67,filling,0,1,right,Green_Circle_Grid_4.jpg,Blue_Plus_Stripes_4.jpg,Red_Triangle_Grid_2.jpg,right,1146,true,low,false
W6WdIuNV,379ol9dbtvr9qb2hghaat1q2k68y9b,3pdjhanyk9t29h8ozc8ccb0or0r6h7,W6WdIuNV,2020-0188,2020-06-04,11:09:31,11:27:25,NA,incomplete,68,filling,0,1,left,Red_Plus_Grid_4.jpg,Purple_Star_Grid_2.jpg,Green_Triangle_Dots_4.jpg,right,1028,false,low,false
W6WdIuNV,379ol9dbtvr9qb2hghaat1q2k68y9b,3pdjhanyk9t29h8ozc8ccb0or0r6h7,W6WdIuNV,2020-0188,2020-06-04,11:09:31,11:27:25,NA,incomplete,69,filling,0,0,right,Purple_Triangle_Dots_1.jpg,Blue_Plus_Chess_1.jpg,Green_Star_Dots_4.jpg,left,756,false,low,false
W6WdIuNV,379ol9dbtvr9qb2hghaat1q2k68y9b,3pdjhanyk9t29h8ozc8ccb0or0r6h7,W6WdIuNV,2020-0188,2020-06-04,11:09:31,11:27:25,NA,incomplete,70,filling,0,1,left,Purple_Star_Dots_3.jpg,Green_Plus_Dots_2.jpg,Red_Triangle_Chess_3.jpg,right,700,false,low,false
W6WdIuNV,379ol9dbtvr9qb2hghaat1q2k68y9b,3pdjhanyk9t29h8ozc8ccb0or0r6h7,W6WdIuNV,2020-0188,2020-06-04,11:09:31,11:27:25,NA,incomplete,71,filling,0,0,right,Blue_Plus_Dots_3.jpg,Red_Circle_Chess_3.jpg,Green_Triangle_Dots_4.jpg,left,855,false,low,false
W6WdIuNV,379ol9dbtvr9qb2hghaat1q2k68y9b,3pdjhanyk9t29h8ozc8ccb0or0r6h7,W6WdIuNV,2020-0188,2020-06-04,11:09:31,11:27:25,NA,incomplete,72,filling,0,1,left,Red_Circle_Stripes_4.jpg,Green_Star_Stripes_1.jpg,Blue_Plus_Chess_4.jpg,left,987,true,low,false
W6WdIuNV,379ol9dbtvr9qb2hghaat1q2k68y9b,3pdjhanyk9t29h8ozc8ccb0or0r6h7,W6WdIuNV,2020-0188,2020-06-04,11:09:31,11:27:25,NA,incomplete,73,filling,0,1,right,Purple_Plus_Dots_2.jpg,Red_Triangle_Stripes_2.jpg,Green_Circle_Dots_4.jpg,left,1192,false,low,false
W6WdIuNV,379ol9dbtvr9qb2hghaat1q2k68y9b,3pdjhanyk9t29h8ozc8ccb0or0r6h7,W6WdIuNV,2020-0188,2020-06-04,11:09:31,11:27:25,NA,incomplete,74,filling,0,1,left,Blue_Star_Grid_4.jpg,Red_Circle_Grid_2.jpg,Green_Plus_Chess_4.jpg,right,254,false,low,false
W6WdIuNV,379ol9dbtvr9qb2hghaat1q2k68y9b,3pdjhanyk9t29h8ozc8ccb0or0r6h7,W6WdIuNV,2020-0188,2020-06-04,11:09:31,11:27:25,NA,incomplete,75,filling,0,1,left,Blue_Circle_Dots_3.jpg,Red_Star_Dots_4.jpg,Green_Plus_Grid_3.jpg,left,291,true,low,false
W6WdIuNV,379ol9dbtvr9qb2hghaat1q2k68y9b,3pdjhanyk9t29h8ozc8ccb0or0r6h7,W6WdIuNV,2020-0188,2020-06-04,11:09:31,11:27:25,NA,incomplete,76,filling,0,1,left,Blue_Circle_Chess_4.jpg,Red_Triangle_Chess_1.jpg,Purple_Plus_Stripes_4.jpg,left,291,true,low,false
W6WdIuNV,379ol9dbtvr9qb2hghaat1q2k68y9b,3pdjhanyk9t29h8ozc8ccb0or0r6h7,W6WdIuNV,2020-0188,2020-06-04,11:09:31,11:27:25,NA,incomplete,77,filling,0,1,left,Red_Plus_Chess_2.jpg,Green_Star_Chess_1.jpg,Purple_Circle_Dots_2.jpg,left,313,true,low,false
W6WdIuNV,379ol9dbtvr9qb2hghaat1q2k68y9b,3pdjhanyk9t29h8ozc8ccb0or0r6h7,W6WdIuNV,2020-0188,2020-06-04,11:09:31,11:27:25,NA,incomplete,78,filling,0,0,left,Red_Plus_Chess_4.jpg,Green_Circle_Chess_1.jpg,Blue_Star_Grid_4.jpg,left,390,true,low,false
W6WdIuNV,379ol9dbtvr9qb2hghaat1q2k68y9b,3pdjhanyk9t29h8ozc8ccb0or0r6h7,W6WdIuNV,2020-0188,2020-06-04,11:09:31,11:27:25,NA,incomplete,79,filling,0,0,right,Red_Plus_Grid_2.jpg,Green_Circle_Chess_2.jpg,Purple_Star_Grid_4.jpg,right,297,true,low,false
W6WdIuNV,379ol9dbtvr9qb2hghaat1q2k68y9b,3pdjhanyk9t29h8ozc8ccb0or0r6h7,W6WdIuNV,2020-0188,2020-06-04,11:09:31,11:27:25,NA,incomplete,80,filling,0,1,left,Red_Circle_Grid_3.jpg,Green_Star_Grid_4.jpg,Purple_Plus_Chess_3.jpg,left,341,true,low,false
W6WdIuNV,379ol9dbtvr9qb2hghaat1q2k68y9b,3pdjhanyk9t29h8ozc8ccb0or0r6h7,W6WdIuNV,2020-0188,2020-06-04,11:09:31,11:27:25,NA,incomplete,81,filling,0,1,left,Red_Circle_Grid_1.jpg,Purple_Plus_Grid_4.jpg,Green_Star_Dots_1.jpg,right,269,false,low,false
W6WdIuNV,379ol9dbtvr9qb2hghaat1q2k68y9b,3pdjhanyk9t29h8ozc8ccb0or0r6h7,W6WdIuNV,2020-0188,2020-06-04,11:09:31,11:27:25,NA,incomplete,82,filling,0,1,right,Red_Triangle_Chess_1.jpg,Purple_Star_Stripes_1.jpg,Green_Plus_Chess_2.jpg,left,291,false,low,false
W6WdIuNV,379ol9dbtvr9qb2hghaat1q2k68y9b,3pdjhanyk9t29h8ozc8ccb0or0r6h7,W6WdIuNV,2020-0188,2020-06-04,11:09:31,11:27:25,NA,incomplete,83,filling,0,0,left,Purple_Plus_Grid_4.jpg,Blue_Star_Grid_3.jpg,Green_Triangle_Chess_4.jpg,right,194,false,low,false
W6WdIuNV,379ol9dbtvr9qb2hghaat1q2k68y9b,3pdjhanyk9t29h8ozc8ccb0or0r6h7,W6WdIuNV,2020-0188,2020-06-04,11:09:31,11:27:25,NA,incomplete,84,filling,0,1,left,Green_Plus_Stripes_4.jpg,Red_Triangle_Stripes_3.jpg,Purple_Star_Dots_4.jpg,right,651,false,low,false
W6WdIuNV,379ol9dbtvr9qb2hghaat1q2k68y9b,3pdjhanyk9t29h8ozc8ccb0or0r6h7,W6WdIuNV,2020-0188,2020-06-04,11:09:31,11:27:25,NA,incomplete,85,filling,0,1,left,Red_Plus_Stripes_3.jpg,Purple_Star_Stripes_1.jpg,Green_Triangle_Grid_3.jpg,left,340,true,low,false
W6WdIuNV,379ol9dbtvr9qb2hghaat1q2k68y9b,3pdjhanyk9t29h8ozc8ccb0or0r6h7,W6WdIuNV,2020-0188,2020-06-04,11:09:31,11:27:25,NA,incomplete,86,filling,0,1,left,Red_Triangle_Chess_1.jpg,Blue_Circle_Chess_2.jpg,Purple_Star_Stripes_1.jpg,right,275,false,low,false
W6WdIuNV,379ol9dbtvr9qb2hghaat1q2k68y9b,3pdjhanyk9t29h8ozc8ccb0or0r6h7,W6WdIuNV,2020-0188,2020-06-04,11:09:31,11:27:25,NA,incomplete,87,filling,0,1,right,Red_Plus_Grid_4.jpg,Green_Circle_Stripes_4.jpg,Blue_Star_Grid_3.jpg,left,723,false,low,false
W6WdIuNV,379ol9dbtvr9qb2hghaat1q2k68y9b,3pdjhanyk9t29h8ozc8ccb0or0r6h7,W6WdIuNV,2020-0188,2020-06-04,11:09:31,11:27:25,NA,incomplete,88,filling,0,1,right,Purple_Plus_Dots_1.jpg,Red_Triangle_Grid_1.jpg,Blue_Star_Dots_3.jpg,right,310,true,low,false
W6WdIuNV,379ol9dbtvr9qb2hghaat1q2k68y9b,3pdjhanyk9t29h8ozc8ccb0or0r6h7,W6WdIuNV,2020-0188,2020-06-04,11:09:31,11:27:25,NA,incomplete,89,filling,0,1,right,Red_Star_Grid_1.jpg,Green_Plus_Dots_1.jpg,Blue_Circle_Grid_4.jpg,right,501,true,low,false
W6WdIuNV,379ol9dbtvr9qb2hghaat1q2k68y9b,3pdjhanyk9t29h8ozc8ccb0or0r6h7,W6WdIuNV,2020-0188,2020-06-04,11:09:31,11:27:25,NA,incomplete,90,number,1,1,right,Green_Circle_Grid_3.jpg,Purple_Triangle_Grid_4.jpg,Red_Plus_Stripes_3.jpg,right,644,true,low,false
W6WdIuNV,379ol9dbtvr9qb2hghaat1q2k68y9b,3pdjhanyk9t29h8ozc8ccb0or0r6h7,W6WdIuNV,2020-0188,2020-06-04,11:09:31,11:27:25,NA,incomplete,91,number,1,0,right,Red_Triangle_Grid_1.jpg,Green_Circle_Grid_2.jpg,Purple_Star_Chess_1.jpg,right,329,true,low,false
W6WdIuNV,379ol9dbtvr9qb2hghaat1q2k68y9b,3pdjhanyk9t29h8ozc8ccb0or0r6h7,W6WdIuNV,2020-0188,2020-06-04,11:09:31,11:27:25,NA,incomplete,92,number,1,1,left,Purple_Star_Grid_4.jpg,Blue_Triangle_Dots_4.jpg,Green_Plus_Grid_3.jpg,left,303,true,low,false
W6WdIuNV,379ol9dbtvr9qb2hghaat1q2k68y9b,3pdjhanyk9t29h8ozc8ccb0or0r6h7,W6WdIuNV,2020-0188,2020-06-04,11:09:31,11:27:25,NA,incomplete,93,number,1,0,left,Red_Circle_Dots_1.jpg,Blue_Star_Stripes_1.jpg,Green_Plus_Dots_2.jpg,left,475,true,low,false
W6WdIuNV,379ol9dbtvr9qb2hghaat1q2k68y9b,3pdjhanyk9t29h8ozc8ccb0or0r6h7,W6WdIuNV,2020-0188,2020-06-04,11:09:31,11:27:25,NA,incomplete,94,number,1,0,right,Red_Plus_Grid_3.jpg,Purple_Triangle_Grid_4.jpg,Blue_Circle_Chess_3.jpg,right,554,true,low,false
W6WdIuNV,379ol9dbtvr9qb2hghaat1q2k68y9b,3pdjhanyk9t29h8ozc8ccb0or0r6h7,W6WdIuNV,2020-0188,2020-06-04,11:09:31,11:27:25,NA,incomplete,95,number,1,1,left,Red_Triangle_Grid_4.jpg,Blue_Circle_Stripes_4.jpg,Green_Plus_Grid_2.jpg,left,298,true,low,false
W6WdIuNV,379ol9dbtvr9qb2hghaat1q2k68y9b,3pdjhanyk9t29h8ozc8ccb0or0r6h7,W6WdIuNV,2020-0188,2020-06-04,11:09:31,11:27:25,NA,incomplete,96,number,1,1,left,Green_Triangle_Stripes_1.jpg,Blue_Circle_Chess_1.jpg,Purple_Star_Stripes_4.jpg,left,938,true,low,false
W6WdIuNV,379ol9dbtvr9qb2hghaat1q2k68y9b,3pdjhanyk9t29h8ozc8ccb0or0r6h7,W6WdIuNV,2020-0188,2020-06-04,11:09:31,11:27:25,NA,incomplete,97,number,1,1,right,Blue_Plus_Stripes_1.jpg,Purple_Circle_Stripes_2.jpg,Red_Star_Grid_1.jpg,right,787,true,low,false
W6WdIuNV,379ol9dbtvr9qb2hghaat1q2k68y9b,3pdjhanyk9t29h8ozc8ccb0or0r6h7,W6WdIuNV,2020-0188,2020-06-04,11:09:31,11:27:25,NA,incomplete,98,number,1,1,left,Purple_Circle_Stripes_1.jpg,Green_Triangle_Dots_1.jpg,Blue_Plus_Stripes_4.jpg,left,787,true,low,false
W6WdIuNV,379ol9dbtvr9qb2hghaat1q2k68y9b,3pdjhanyk9t29h8ozc8ccb0or0r6h7,W6WdIuNV,2020-0188,2020-06-04,11:09:31,11:27:25,NA,incomplete,99,number,1,0,right,Blue_Plus_Stripes_3.jpg,Green_Circle_Stripes_4.jpg,Purple_Star_Dots_3.jpg,right,1087,true,low,false
W6WdIuNV,379ol9dbtvr9qb2hghaat1q2k68y9b,3pdjhanyk9t29h8ozc8ccb0or0r6h7,W6WdIuNV,2020-0188,2020-06-04,11:09:31,11:27:25,NA,incomplete,100,number,1,1,right,Purple_Triangle_Stripes_1.jpg,Blue_Plus_Stripes_3.jpg,Green_Circle_Chess_1.jpg,right,623,true,low,false
W6WdIuNV,379ol9dbtvr9qb2hghaat1q2k68y9b,3pdjhanyk9t29h8ozc8ccb0or0r6h7,W6WdIuNV,2020-0188,2020-06-04,11:09:31,11:27:25,NA,incomplete,101,number,1,1,right,Red_Circle_Dots_3.jpg,Purple_Plus_Dots_2.jpg,Green_Triangle_Chess_3.jpg,right,978,true,low,false
W6WdIuNV,379ol9dbtvr9qb2hghaat1q2k68y9b,3pdjhanyk9t29h8ozc8ccb0or0r6h7,W6WdIuNV,2020-0188,2020-06-04,11:09:31,11:27:25,NA,incomplete,102,number,1,1,left,Green_Plus_Stripes_3.jpg,Purple_Circle_Grid_3.jpg,Blue_Star_Stripes_4.jpg,left,851,true,low,false
W6WdIuNV,379ol9dbtvr9qb2hghaat1q2k68y9b,3pdjhanyk9t29h8ozc8ccb0or0r6h7,W6WdIuNV,2020-0188,2020-06-04,11:09:31,11:27:25,NA,incomplete,103,number,1,1,right,Purple_Star_Chess_3.jpg,Green_Triangle_Chess_2.jpg,Blue_Circle_Stripes_3.jpg,right,783,true,low,false
W6WdIuNV,379ol9dbtvr9qb2hghaat1q2k68y9b,3pdjhanyk9t29h8ozc8ccb0or0r6h7,W6WdIuNV,2020-0188,2020-06-04,11:09:31,11:27:25,NA,incomplete,104,number,1,1,right,Red_Triangle_Stripes_1.jpg,Purple_Plus_Stripes_4.jpg,Green_Star_Chess_1.jpg,right,714,true,low,false
W6WdIuNV,379ol9dbtvr9qb2hghaat1q2k68y9b,3pdjhanyk9t29h8ozc8ccb0or0r6h7,W6WdIuNV,2020-0188,2020-06-04,11:09:31,11:27:25,NA,incomplete,105,number,1,1,left,Green_Circle_Dots_1.jpg,Purple_Star_Stripes_1.jpg,Red_Triangle_Dots_2.jpg,left,699,true,low,false
W6WdIuNV,379ol9dbtvr9qb2hghaat1q2k68y9b,3pdjhanyk9t29h8ozc8ccb0or0r6h7,W6WdIuNV,2020-0188,2020-06-04,11:09:31,11:27:25,NA,incomplete,106,number,1,1,right,Purple_Circle_Chess_2.jpg,Red_Star_Chess_4.jpg,Green_Triangle_Dots_2.jpg,right,789,true,low,false
W6WdIuNV,379ol9dbtvr9qb2hghaat1q2k68y9b,3pdjhanyk9t29h8ozc8ccb0or0r6h7,W6WdIuNV,2020-0188,2020-06-04,11:09:31,11:27:25,NA,incomplete,107,number,1,1,right,Blue_Star_Grid_1.jpg,Green_Plus_Grid_3.jpg,Red_Circle_Stripes_1.jpg,right,655,true,low,false
W6WdIuNV,379ol9dbtvr9qb2hghaat1q2k68y9b,3pdjhanyk9t29h8ozc8ccb0or0r6h7,W6WdIuNV,2020-0188,2020-06-04,11:09:31,11:27:25,NA,incomplete,108,number,1,1,left,Blue_Circle_Stripes_3.jpg,Red_Triangle_Chess_3.jpg,Purple_Plus_Stripes_1.jpg,left,631,true,low,false
W6WdIuNV,379ol9dbtvr9qb2hghaat1q2k68y9b,3pdjhanyk9t29h8ozc8ccb0or0r6h7,W6WdIuNV,2020-0188,2020-06-04,11:09:31,11:27:25,NA,incomplete,109,number,1,1,left,Blue_Plus_Dots_1.jpg,Red_Star_Grid_1.jpg,Green_Triangle_Dots_4.jpg,right,1559,false,low,false
W6WdIuNV,379ol9dbtvr9qb2hghaat1q2k68y9b,3pdjhanyk9t29h8ozc8ccb0or0r6h7,W6WdIuNV,2020-0188,2020-06-04,11:09:31,11:27:25,NA,incomplete,110,number,1,1,right,Green_Star_Grid_1.jpg,Blue_Circle_Grid_3.jpg,Purple_Triangle_Dots_1.jpg,right,645,true,low,false
W6WdIuNV,379ol9dbtvr9qb2hghaat1q2k68y9b,3pdjhanyk9t29h8ozc8ccb0or0r6h7,W6WdIuNV,2020-0188,2020-06-04,11:09:31,11:27:25,NA,incomplete,111,number,1,0,left,Red_Plus_Chess_3.jpg,Purple_Star_Stripes_3.jpg,Blue_Circle_Chess_2.jpg,left,755,true,low,false
W6WdIuNV,379ol9dbtvr9qb2hghaat1q2k68y9b,3pdjhanyk9t29h8ozc8ccb0or0r6h7,W6WdIuNV,2020-0188,2020-06-04,11:09:31,11:27:25,NA,incomplete,112,number,1,1,left,Red_Plus_Chess_1.jpg,Blue_Star_Grid_1.jpg,Green_Circle_Chess_3.jpg,left,1211,true,low,false
W6WdIuNV,379ol9dbtvr9qb2hghaat1q2k68y9b,3pdjhanyk9t29h8ozc8ccb0or0r6h7,W6WdIuNV,2020-0188,2020-06-04,11:09:31,11:27:25,NA,incomplete,113,number,1,1,left,Green_Star_Dots_3.jpg,Purple_Triangle_Grid_3.jpg,Red_Circle_Dots_4.jpg,left,781,true,low,false
W6WdIuNV,379ol9dbtvr9qb2hghaat1q2k68y9b,3pdjhanyk9t29h8ozc8ccb0or0r6h7,W6WdIuNV,2020-0188,2020-06-04,11:09:31,11:27:25,NA,incomplete,114,number,1,1,left,Blue_Plus_Stripes_1.jpg,Red_Star_Chess_1.jpg,Green_Circle_Stripes_4.jpg,left,493,true,low,false
W6WdIuNV,379ol9dbtvr9qb2hghaat1q2k68y9b,3pdjhanyk9t29h8ozc8ccb0or0r6h7,W6WdIuNV,2020-0188,2020-06-04,11:09:31,11:27:25,NA,incomplete,115,number,1,1,right,Purple_Triangle_Stripes_2.jpg,Green_Circle_Stripes_1.jpg,Blue_Plus_Chess_2.jpg,left,593,false,low,false
W6WdIuNV,379ol9dbtvr9qb2hghaat1q2k68y9b,3pdjhanyk9t29h8ozc8ccb0or0r6h7,W6WdIuNV,2020-0188,2020-06-04,11:09:31,11:27:25,NA,incomplete,116,number,1,1,left,Green_Triangle_Chess_4.jpg,Red_Circle_Dots_4.jpg,Purple_Plus_Chess_3.jpg,left,1340,true,low,false
W6WdIuNV,379ol9dbtvr9qb2hghaat1q2k68y9b,3pdjhanyk9t29h8ozc8ccb0or0r6h7,W6WdIuNV,2020-0188,2020-06-04,11:09:31,11:27:25,NA,incomplete,117,number,1,0,left,Purple_Star_Dots_4.jpg,Red_Plus_Chess_4.jpg,Green_Triangle_Dots_3.jpg,left,743,true,low,false
W6WdIuNV,379ol9dbtvr9qb2hghaat1q2k68y9b,3pdjhanyk9t29h8ozc8ccb0or0r6h7,W6WdIuNV,2020-0188,2020-06-04,11:09:31,11:27:25,NA,incomplete,118,number,1,1,right,Purple_Triangle_Chess_3.jpg,Green_Circle_Chess_2.jpg,Blue_Plus_Dots_3.jpg,right,583,true,low,false
W6WdIuNV,379ol9dbtvr9qb2hghaat1q2k68y9b,3pdjhanyk9t29h8ozc8ccb0or0r6h7,W6WdIuNV,2020-0188,2020-06-04,11:09:31,11:27:25,NA,incomplete,119,number,1,1,left,Purple_Star_Dots_2.jpg,Red_Plus_Chess_2.jpg,Green_Circle_Dots_3.jpg,left,1067,true,low,false
W6WdIuNV,379ol9dbtvr9qb2hghaat1q2k68y9b,3pdjhanyk9t29h8ozc8ccb0or0r6h7,W6WdIuNV,2020-0188,2020-06-04,11:09:31,11:27:25,NA,incomplete,120,gender,2,1,right,C_F_01.jpg,C_M_14.jpg,A_F_12.jpg,NA,NA,NA,low,false
W6WdIuNV,379ol9dbtvr9qb2hghaat1q2k68y9b,3pdjhanyk9t29h8ozc8ccb0or0r6h7,W6WdIuNV,2020-0188,2020-06-04,11:09:31,11:27:25,NA,incomplete,121,gender,2,1,right,A_M_15.jpg,A_F_12.jpg,C_M_02.jpg,right,933,true,low,false
W6WdIuNV,379ol9dbtvr9qb2hghaat1q2k68y9b,3pdjhanyk9t29h8ozc8ccb0or0r6h7,W6WdIuNV,2020-0188,2020-06-04,11:09:31,11:27:25,NA,incomplete,122,gender,2,1,left,C_M_15.jpg,A_M_07.jpg,C_F_16.jpg,left,732,true,low,false
W6WdIuNV,379ol9dbtvr9qb2hghaat1q2k68y9b,3pdjhanyk9t29h8ozc8ccb0or0r6h7,W6WdIuNV,2020-0188,2020-06-04,11:09:31,11:27:25,NA,incomplete,123,gender,2,1,right,A_F_04.jpg,A_M_06.jpg,C_F_13.jpg,right,623,true,low,false
W6WdIuNV,379ol9dbtvr9qb2hghaat1q2k68y9b,3pdjhanyk9t29h8ozc8ccb0or0r6h7,W6WdIuNV,2020-0188,2020-06-04,11:09:31,11:27:25,NA,incomplete,124,gender,2,0,left,A_M_05.jpg,C_M_04.jpg,A_F_03.jpg,left,667,true,low,false
W6WdIuNV,379ol9dbtvr9qb2hghaat1q2k68y9b,3pdjhanyk9t29h8ozc8ccb0or0r6h7,W6WdIuNV,2020-0188,2020-06-04,11:09:31,11:27:25,NA,incomplete,125,gender,2,1,right,C_F_16.jpg,C_M_06.jpg,A_F_01.jpg,right,660,true,low,false
W6WdIuNV,379ol9dbtvr9qb2hghaat1q2k68y9b,3pdjhanyk9t29h8ozc8ccb0or0r6h7,W6WdIuNV,2020-0188,2020-06-04,11:09:31,11:27:25,NA,incomplete,126,gender,2,0,right,C_M_07.jpg,C_F_01.jpg,A_M_03.jpg,right,857,true,low,false
W6WdIuNV,379ol9dbtvr9qb2hghaat1q2k68y9b,3pdjhanyk9t29h8ozc8ccb0or0r6h7,W6WdIuNV,2020-0188,2020-06-04,11:09:31,11:27:25,NA,incomplete,127,gender,2,1,right,A_F_16.jpg,A_M_15.jpg,C_F_07.jpg,left,1172,false,low,false
W6WdIuNV,379ol9dbtvr9qb2hghaat1q2k68y9b,3pdjhanyk9t29h8ozc8ccb0or0r6h7,W6WdIuNV,2020-0188,2020-06-04,11:09:31,11:27:25,NA,incomplete,128,gender,2,1,right,A_M_14.jpg,A_F_05.jpg,C_M_01.jpg,right,1631,true,low,false
W6WdIuNV,379ol9dbtvr9qb2hghaat1q2k68y9b,3pdjhanyk9t29h8ozc8ccb0or0r6h7,W6WdIuNV,2020-0188,2020-06-04,11:09:31,11:27:25,NA,incomplete,129,gender,2,1,left,A_M_06.jpg,C_M_09.jpg,A_F_10.jpg,left,1065,true,low,false
W6WdIuNV,379ol9dbtvr9qb2hghaat1q2k68y9b,3pdjhanyk9t29h8ozc8ccb0or0r6h7,W6WdIuNV,2020-0188,2020-06-04,11:09:31,11:27:25,NA,incomplete,130,gender,2,1,right,C_M_13.jpg,C_F_04.jpg,A_M_03.jpg,right,736,true,low,false
W6WdIuNV,379ol9dbtvr9qb2hghaat1q2k68y9b,3pdjhanyk9t29h8ozc8ccb0or0r6h7,W6WdIuNV,2020-0188,2020-06-04,11:09:31,11:27:25,NA,incomplete,131,gender,2,1,left,A_M_08.jpg,C_M_05.jpg,A_F_16.jpg,left,1332,true,low,false
W6WdIuNV,379ol9dbtvr9qb2hghaat1q2k68y9b,3pdjhanyk9t29h8ozc8ccb0or0r6h7,W6WdIuNV,2020-0188,2020-06-04,11:09:31,11:27:25,NA,incomplete,132,gender,2,1,right,C_F_06.jpg,C_M_07.jpg,A_F_10.jpg,right,973,true,low,false
W6WdIuNV,379ol9dbtvr9qb2hghaat1q2k68y9b,3pdjhanyk9t29h8ozc8ccb0or0r6h7,W6WdIuNV,2020-0188,2020-06-04,11:09:31,11:27:25,NA,incomplete,133,gender,2,1,left,C_M_09.jpg,A_M_06.jpg,C_F_03.jpg,left,688,true,low,false
W6WdIuNV,379ol9dbtvr9qb2hghaat1q2k68y9b,3pdjhanyk9t29h8ozc8ccb0or0r6h7,W6WdIuNV,2020-0188,2020-06-04,11:09:31,11:27:25,NA,incomplete,134,gender,2,1,left,A_F_02.jpg,C_F_15.jpg,A_M_01.jpg,left,650,true,low,false
W6WdIuNV,379ol9dbtvr9qb2hghaat1q2k68y9b,3pdjhanyk9t29h8ozc8ccb0or0r6h7,W6WdIuNV,2020-0188,2020-06-04,11:09:31,11:27:25,NA,incomplete,135,gender,2,1,left,C_M_16.jpg,A_M_01.jpg,C_F_08.jpg,left,781,true,low,false
W6WdIuNV,379ol9dbtvr9qb2hghaat1q2k68y9b,3pdjhanyk9t29h8ozc8ccb0or0r6h7,W6WdIuNV,2020-0188,2020-06-04,11:09:31,11:27:25,NA,incomplete,136,gender,2,0,right,A_F_09.jpg,A_M_02.jpg,C_F_15.jpg,right,685,true,low,false
W6WdIuNV,379ol9dbtvr9qb2hghaat1q2k68y9b,3pdjhanyk9t29h8ozc8ccb0or0r6h7,W6WdIuNV,2020-0188,2020-06-04,11:09:31,11:27:25,NA,incomplete,137,gender,2,1,left,C_F_09.jpg,A_F_14.jpg,C_M_06.jpg,left,891,true,low,false
W6WdIuNV,379ol9dbtvr9qb2hghaat1q2k68y9b,3pdjhanyk9t29h8ozc8ccb0or0r6h7,W6WdIuNV,2020-0188,2020-06-04,11:09:31,11:27:25,NA,incomplete,138,gender,2,1,right,C_F_10.jpg,C_M_04.jpg,A_F_07.jpg,right,792,true,low,false
W6WdIuNV,379ol9dbtvr9qb2hghaat1q2k68y9b,3pdjhanyk9t29h8ozc8ccb0or0r6h7,W6WdIuNV,2020-0188,2020-06-04,11:09:31,11:27:25,NA,incomplete,139,gender,2,1,right,A_M_15.jpg,A_F_10.jpg,C_M_03.jpg,left,750,false,low,false
W6WdIuNV,379ol9dbtvr9qb2hghaat1q2k68y9b,3pdjhanyk9t29h8ozc8ccb0or0r6h7,W6WdIuNV,2020-0188,2020-06-04,11:09:31,11:27:25,NA,incomplete,140,race,3,1,left,A_F_09.jpg,A_M_01.jpg,C_F_03.jpg,right,559,false,low,false
W6WdIuNV,379ol9dbtvr9qb2hghaat1q2k68y9b,3pdjhanyk9t29h8ozc8ccb0or0r6h7,W6WdIuNV,2020-0188,2020-06-04,11:09:31,11:27:25,NA,incomplete,141,race,3,0,left,C_M_12.jpg,C_F_16.jpg,A_M_01.jpg,right,694,false,low,false
W6WdIuNV,379ol9dbtvr9qb2hghaat1q2k68y9b,3pdjhanyk9t29h8ozc8ccb0or0r6h7,W6WdIuNV,2020-0188,2020-06-04,11:09:31,11:27:25,NA,incomplete,142,race,3,1,right,C_F_13.jpg,A_F_04.jpg,C_M_14.jpg,left,907,false,low,false
W6WdIuNV,379ol9dbtvr9qb2hghaat1q2k68y9b,3pdjhanyk9t29h8ozc8ccb0or0r6h7,W6WdIuNV,2020-0188,2020-06-04,11:09:31,11:27:25,NA,incomplete,143,race,3,0,left,A_F_16.jpg,A_M_02.jpg,C_F_11.jpg,right,811,false,low,false
W6WdIuNV,379ol9dbtvr9qb2hghaat1q2k68y9b,3pdjhanyk9t29h8ozc8ccb0or0r6h7,W6WdIuNV,2020-0188,2020-06-04,11:09:31,11:27:25,NA,incomplete,144,race,3,1,left,A_M_10.jpg,A_F_04.jpg,C_M_08.jpg,right,702,false,low,false
W6WdIuNV,379ol9dbtvr9qb2hghaat1q2k68y9b,3pdjhanyk9t29h8ozc8ccb0or0r6h7,W6WdIuNV,2020-0188,2020-06-04,11:09:31,11:27:25,NA,incomplete,145,race,3,1,left,A_F_10.jpg,A_M_02.jpg,C_F_13.jpg,right,624,false,low,false
W6WdIuNV,379ol9dbtvr9qb2hghaat1q2k68y9b,3pdjhanyk9t29h8ozc8ccb0or0r6h7,W6WdIuNV,2020-0188,2020-06-04,11:09:31,11:27:25,NA,incomplete,146,race,3,1,left,C_M_15.jpg,C_F_16.jpg,A_M_10.jpg,left,793,true,low,false
W6WdIuNV,379ol9dbtvr9qb2hghaat1q2k68y9b,3pdjhanyk9t29h8ozc8ccb0or0r6h7,W6WdIuNV,2020-0188,2020-06-04,11:09:31,11:27:25,NA,incomplete,147,race,3,0,left,A_M_10.jpg,A_F_13.jpg,C_M_15.jpg,left,963,true,low,false
W6WdIuNV,379ol9dbtvr9qb2hghaat1q2k68y9b,3pdjhanyk9t29h8ozc8ccb0or0r6h7,W6WdIuNV,2020-0188,2020-06-04,11:09:31,11:27:25,NA,incomplete,148,race,3,1,left,A_F_15.jpg,A_M_11.jpg,C_F_14.jpg,right,539,false,low,false
W6WdIuNV,379ol9dbtvr9qb2hghaat1q2k68y9b,3pdjhanyk9t29h8ozc8ccb0or0r6h7,W6WdIuNV,2020-0188,2020-06-04,11:09:31,11:27:25,NA,incomplete,149,race,3,1,left,A_M_04.jpg,A_F_16.jpg,C_M_03.jpg,right,804,false,low,false
W6WdIuNV,379ol9dbtvr9qb2hghaat1q2k68y9b,3pdjhanyk9t29h8ozc8ccb0or0r6h7,W6WdIuNV,2020-0188,2020-06-04,11:09:31,11:27:25,NA,incomplete,150,race,3,1,right,A_F_01.jpg,C_F_11.jpg,A_M_04.jpg,left,689,false,low,false
W6WdIuNV,379ol9dbtvr9qb2hghaat1q2k68y9b,3pdjhanyk9t29h8ozc8ccb0or0r6h7,W6WdIuNV,2020-0188,2020-06-04,11:09:31,11:27:25,NA,incomplete,151,race,3,0,right,A_M_03.jpg,C_M_13.jpg,A_F_10.jpg,right,550,true,low,false
W6WdIuNV,379ol9dbtvr9qb2hghaat1q2k68y9b,3pdjhanyk9t29h8ozc8ccb0or0r6h7,W6WdIuNV,2020-0188,2020-06-04,11:09:31,11:27:25,NA,incomplete,152,race,3,1,left,A_F_05.jpg,A_M_14.jpg,C_F_11.jpg,right,625,false,low,false
W6WdIuNV,379ol9dbtvr9qb2hghaat1q2k68y9b,3pdjhanyk9t29h8ozc8ccb0or0r6h7,W6WdIuNV,2020-0188,2020-06-04,11:09:31,11:27:25,NA,incomplete,153,race,3,1,left,A_F_16.jpg,A_M_12.jpg,C_F_01.jpg,left,1020,true,low,false
W6WdIuNV,379ol9dbtvr9qb2hghaat1q2k68y9b,3pdjhanyk9t29h8ozc8ccb0or0r6h7,W6WdIuNV,2020-0188,2020-06-04,11:09:31,11:27:25,NA,incomplete,154,race,3,1,right,A_M_10.jpg,C_M_03.jpg,A_F_13.jpg,left,1107,false,low,false
W6WdIuNV,379ol9dbtvr9qb2hghaat1q2k68y9b,3pdjhanyk9t29h8ozc8ccb0or0r6h7,W6WdIuNV,2020-0188,2020-06-04,11:09:31,11:27:25,NA,incomplete,155,race,3,1,left,C_M_11.jpg,C_F_08.jpg,A_M_12.jpg,right,843,false,low,false
W6WdIuNV,379ol9dbtvr9qb2hghaat1q2k68y9b,3pdjhanyk9t29h8ozc8ccb0or0r6h7,W6WdIuNV,2020-0188,2020-06-04,11:09:31,11:27:25,NA,incomplete,156,race,3,1,left,A_M_05.jpg,A_F_10.jpg,C_M_01.jpg,right,1259,false,low,false
W6WdIuNV,379ol9dbtvr9qb2hghaat1q2k68y9b,3pdjhanyk9t29h8ozc8ccb0or0r6h7,W6WdIuNV,2020-0188,2020-06-04,11:09:31,11:27:25,NA,incomplete,157,race,3,1,right,C_F_11.jpg,A_F_01.jpg,C_M_14.jpg,left,1010,false,low,false
W6WdIuNV,379ol9dbtvr9qb2hghaat1q2k68y9b,3pdjhanyk9t29h8ozc8ccb0or0r6h7,W6WdIuNV,2020-0188,2020-06-04,11:09:31,11:27:25,NA,incomplete,158,race,3,1,left,C_M_05.jpg,C_F_06.jpg,A_M_09.jpg,right,1200,false,low,false
W6WdIuNV,379ol9dbtvr9qb2hghaat1q2k68y9b,3pdjhanyk9t29h8ozc8ccb0or0r6h7,W6WdIuNV,2020-0188,2020-06-04,11:09:31,11:27:25,NA,incomplete,159,race,3,1,right,A_F_04.jpg,C_F_06.jpg,A_M_13.jpg,left,1124,false,low,false
W6WdIuNV,379ol9dbtvr9qb2hghaat1q2k68y9b,3pdjhanyk9t29h8ozc8ccb0or0r6h7,W6WdIuNV,2020-0188,2020-06-04,11:09:31,11:27:25,NA,incomplete,160,gender,2,1,right,A_F_06.jpg,A_M_14.jpg,C_F_11.jpg,right,807,true,low,false
W6WdIuNV,379ol9dbtvr9qb2hghaat1q2k68y9b,3pdjhanyk9t29h8ozc8ccb0or0r6h7,W6WdIuNV,2020-0188,2020-06-04,11:09:31,11:27:25,NA,incomplete,161,gender,2,0,right,A_F_08.jpg,A_M_01.jpg,C_F_05.jpg,left,1128,false,low,false
W6WdIuNV,379ol9dbtvr9qb2hghaat1q2k68y9b,3pdjhanyk9t29h8ozc8ccb0or0r6h7,W6WdIuNV,2020-0188,2020-06-04,11:09:31,11:27:25,NA,incomplete,162,gender,2,1,left,C_M_10.jpg,A_M_01.jpg,C_F_14.jpg,left,916,true,low,false
W6WdIuNV,379ol9dbtvr9qb2hghaat1q2k68y9b,3pdjhanyk9t29h8ozc8ccb0or0r6h7,W6WdIuNV,2020-0188,2020-06-04,11:09:31,11:27:25,NA,incomplete,163,gender,2,0,right,C_F_02.jpg,C_M_08.jpg,A_F_11.jpg,left,1041,false,low,false
W6WdIuNV,379ol9dbtvr9qb2hghaat1q2k68y9b,3pdjhanyk9t29h8ozc8ccb0or0r6h7,W6WdIuNV,2020-0188,2020-06-04,11:09:31,11:27:25,NA,incomplete,164,gender,2,1,right,C_F_03.jpg,C_M_10.jpg,A_F_05.jpg,left,981,false,low,false
W6WdIuNV,379ol9dbtvr9qb2hghaat1q2k68y9b,3pdjhanyk9t29h8ozc8ccb0or0r6h7,W6WdIuNV,2020-0188,2020-06-04,11:09:31,11:27:25,NA,incomplete,165,gender,2,1,right,C_M_10.jpg,C_F_06.jpg,A_M_01.jpg,left,997,false,low,false
W6WdIuNV,379ol9dbtvr9qb2hghaat1q2k68y9b,3pdjhanyk9t29h8ozc8ccb0or0r6h7,W6WdIuNV,2020-0188,2020-06-04,11:09:31,11:27:25,NA,incomplete,166,gender,2,1,left,A_M_07.jpg,C_M_15.jpg,A_F_01.jpg,right,888,false,low,false
W6WdIuNV,379ol9dbtvr9qb2hghaat1q2k68y9b,3pdjhanyk9t29h8ozc8ccb0or0r6h7,W6WdIuNV,2020-0188,2020-06-04,11:09:31,11:27:25,NA,incomplete,167,gender,2,0,right,A_F_02.jpg,A_M_07.jpg,C_F_12.jpg,left,314,false,low,false
W6WdIuNV,379ol9dbtvr9qb2hghaat1q2k68y9b,3pdjhanyk9t29h8ozc8ccb0or0r6h7,W6WdIuNV,2020-0188,2020-06-04,11:09:31,11:27:25,NA,incomplete,168,gender,2,1,left,A_F_07.jpg,C_F_10.jpg,A_M_08.jpg,left,306,true,low,false
W6WdIuNV,379ol9dbtvr9qb2hghaat1q2k68y9b,3pdjhanyk9t29h8ozc8ccb0or0r6h7,W6WdIuNV,2020-0188,2020-06-04,11:09:31,11:27:25,NA,incomplete,169,gender,2,1,right,A_M_08.jpg,A_F_10.jpg,C_M_16.jpg,left,441,false,low,false
W6WdIuNV,379ol9dbtvr9qb2hghaat1q2k68y9b,3pdjhanyk9t29h8ozc8ccb0or0r6h7,W6WdIuNV,2020-0188,2020-06-04,11:09:31,11:27:25,NA,incomplete,170,gender,2,1,left,C_M_02.jpg,A_M_04.jpg,C_F_01.jpg,right,281,false,low,false
W6WdIuNV,379ol9dbtvr9qb2hghaat1q2k68y9b,3pdjhanyk9t29h8ozc8ccb0or0r6h7,W6WdIuNV,2020-0188,2020-06-04,11:09:31,11:27:25,NA,incomplete,171,gender,2,1,left,A_F_10.jpg,C_F_13.jpg,A_M_05.jpg,left,570,true,low,false
W6WdIuNV,379ol9dbtvr9qb2hghaat1q2k68y9b,3pdjhanyk9t29h8ozc8ccb0or0r6h7,W6WdIuNV,2020-0188,2020-06-04,11:09:31,11:27:25,NA,incomplete,172,gender,2,1,left,A_F_08.jpg,C_F_09.jpg,A_M_05.jpg,left,717,true,low,false
W6WdIuNV,379ol9dbtvr9qb2hghaat1q2k68y9b,3pdjhanyk9t29h8ozc8ccb0or0r6h7,W6WdIuNV,2020-0188,2020-06-04,11:09:31,11:27:25,NA,incomplete,173,gender,2,0,right,C_M_08.jpg,C_F_13.jpg,A_M_06.jpg,left,916,false,low,false
W6WdIuNV,379ol9dbtvr9qb2hghaat1q2k68y9b,3pdjhanyk9t29h8ozc8ccb0or0r6h7,W6WdIuNV,2020-0188,2020-06-04,11:09:31,11:27:25,NA,incomplete,174,gender,2,1,right,C_M_02.jpg,C_F_05.jpg,A_M_14.jpg,left,838,false,low,false
W6WdIuNV,379ol9dbtvr9qb2hghaat1q2k68y9b,3pdjhanyk9t29h8ozc8ccb0or0r6h7,W6WdIuNV,2020-0188,2020-06-04,11:09:31,11:27:25,NA,incomplete,175,gender,2,1,left,A_F_16.jpg,C_F_02.jpg,A_M_15.jpg,right,275,false,low,false
W6WdIuNV,379ol9dbtvr9qb2hghaat1q2k68y9b,3pdjhanyk9t29h8ozc8ccb0or0r6h7,W6WdIuNV,2020-0188,2020-06-04,11:09:31,11:27:25,NA,incomplete,176,gender,2,1,right,C_F_04.jpg,C_M_07.jpg,A_F_03.jpg,left,864,false,low,false
W6WdIuNV,379ol9dbtvr9qb2hghaat1q2k68y9b,3pdjhanyk9t29h8ozc8ccb0or0r6h7,W6WdIuNV,2020-0188,2020-06-04,11:09:31,11:27:25,NA,incomplete,177,gender,2,1,right,A_M_05.jpg,A_F_11.jpg,C_M_02.jpg,right,634,true,low,false
W6WdIuNV,379ol9dbtvr9qb2hghaat1q2k68y9b,3pdjhanyk9t29h8ozc8ccb0or0r6h7,W6WdIuNV,2020-0188,2020-06-04,11:09:31,11:27:25,NA,incomplete,178,gender,2,1,right,C_M_05.jpg,C_F_11.jpg,A_M_03.jpg,left,531,false,low,false
W6WdIuNV,379ol9dbtvr9qb2hghaat1q2k68y9b,3pdjhanyk9t29h8ozc8ccb0or0r6h7,W6WdIuNV,2020-0188,2020-06-04,11:09:31,11:27:25,NA,incomplete,179,gender,2,1,left,A_M_09.jpg,C_M_11.jpg,A_F_15.jpg,right,438,false,low,false
W6WdIuNV,379ol9dbtvr9qb2hghaat1q2k68y9b,3pdjhanyk9t29h8ozc8ccb0or0r6h7,W6WdIuNV,2020-0188,2020-06-04,11:09:31,11:27:25,NA,incomplete,180,race,3,1,right,C_F_02.jpg,A_F_15.jpg,C_M_05.jpg,left,139,false,low,false
W6WdIuNV,379ol9dbtvr9qb2hghaat1q2k68y9b,3pdjhanyk9t29h8ozc8ccb0or0r6h7,W6WdIuNV,2020-0188,2020-06-04,11:09:31,11:27:25,NA,incomplete,181,race,3,1,right,C_F_14.jpg,A_F_13.jpg,C_M_08.jpg,left,587,false,low,false
W6WdIuNV,379ol9dbtvr9qb2hghaat1q2k68y9b,3pdjhanyk9t29h8ozc8ccb0or0r6h7,W6WdIuNV,2020-0188,2020-06-04,11:09:31,11:27:25,NA,incomplete,182,race,3,0,left,A_M_08.jpg,A_F_04.jpg,C_M_02.jpg,right,693,false,low,false
W6WdIuNV,379ol9dbtvr9qb2hghaat1q2k68y9b,3pdjhanyk9t29h8ozc8ccb0or0r6h7,W6WdIuNV,2020-0188,2020-06-04,11:09:31,11:27:25,NA,incomplete,183,race,3,1,right,C_M_12.jpg,A_M_13.jpg,C_F_01.jpg,left,720,false,low,false
W6WdIuNV,379ol9dbtvr9qb2hghaat1q2k68y9b,3pdjhanyk9t29h8ozc8ccb0or0r6h7,W6WdIuNV,2020-0188,2020-06-04,11:09:31,11:27:25,NA,incomplete,184,race,3,1,right,C_M_11.jpg,A_M_08.jpg,C_F_06.jpg,right,322,true,low,false
W6WdIuNV,379ol9dbtvr9qb2hghaat1q2k68y9b,3pdjhanyk9t29h8ozc8ccb0or0r6h7,W6WdIuNV,2020-0188,2020-06-04,11:09:31,11:27:25,NA,incomplete,185,race,3,0,left,A_F_02.jpg,A_M_03.jpg,C_F_13.jpg,right,538,false,low,false
W6WdIuNV,379ol9dbtvr9qb2hghaat1q2k68y9b,3pdjhanyk9t29h8ozc8ccb0or0r6h7,W6WdIuNV,2020-0188,2020-06-04,11:09:31,11:27:25,NA,incomplete,186,race,3,1,left,C_F_01.jpg,C_M_02.jpg,A_F_08.jpg,right,496,false,low,false
W6WdIuNV,379ol9dbtvr9qb2hghaat1q2k68y9b,3pdjhanyk9t29h8ozc8ccb0or0r6h7,W6WdIuNV,2020-0188,2020-06-04,11:09:31,11:27:25,NA,incomplete,187,race,3,1,left,A_F_09.jpg,A_M_14.jpg,C_F_08.jpg,left,295,true,low,false
W6WdIuNV,379ol9dbtvr9qb2hghaat1q2k68y9b,3pdjhanyk9t29h8ozc8ccb0or0r6h7,W6WdIuNV,2020-0188,2020-06-04,11:09:31,11:27:25,NA,incomplete,188,race,3,0,left,C_F_16.jpg,C_M_13.jpg,A_F_05.jpg,left,311,true,low,false
W6WdIuNV,379ol9dbtvr9qb2hghaat1q2k68y9b,3pdjhanyk9t29h8ozc8ccb0or0r6h7,W6WdIuNV,2020-0188,2020-06-04,11:09:31,11:27:25,NA,incomplete,189,race,3,1,left,A_M_05.jpg,A_F_02.jpg,C_M_06.jpg,left,605,true,low,false
W6WdIuNV,379ol9dbtvr9qb2hghaat1q2k68y9b,3pdjhanyk9t29h8ozc8ccb0or0r6h7,W6WdIuNV,2020-0188,2020-06-04,11:09:31,11:27:25,NA,incomplete,190,race,3,1,left,A_F_09.jpg,A_M_07.jpg,C_F_03.jpg,left,544,true,low,false
W6WdIuNV,379ol9dbtvr9qb2hghaat1q2k68y9b,3pdjhanyk9t29h8ozc8ccb0or0r6h7,W6WdIuNV,2020-0188,2020-06-04,11:09:31,11:27:25,NA,incomplete,191,race,3,0,right,A_M_12.jpg,C_M_09.jpg,A_F_13.jpg,left,676,false,low,false
W6WdIuNV,379ol9dbtvr9qb2hghaat1q2k68y9b,3pdjhanyk9t29h8ozc8ccb0or0r6h7,W6WdIuNV,2020-0188,2020-06-04,11:09:31,11:27:25,NA,incomplete,192,race,3,1,right,A_M_13.jpg,C_M_08.jpg,A_F_02.jpg,left,364,false,low,false
W6WdIuNV,379ol9dbtvr9qb2hghaat1q2k68y9b,3pdjhanyk9t29h8ozc8ccb0or0r6h7,W6WdIuNV,2020-0188,2020-06-04,11:09:31,11:27:25,NA,incomplete,193,race,3,1,right,C_F_12.jpg,A_F_08.jpg,C_M_16.jpg,right,308,true,low,false
W6WdIuNV,379ol9dbtvr9qb2hghaat1q2k68y9b,3pdjhanyk9t29h8ozc8ccb0or0r6h7,W6WdIuNV,2020-0188,2020-06-04,11:09:31,11:27:25,NA,incomplete,194,race,3,0,left,C_M_15.jpg,C_F_16.jpg,A_M_14.jpg,right,317,false,low,false
W6WdIuNV,379ol9dbtvr9qb2hghaat1q2k68y9b,3pdjhanyk9t29h8ozc8ccb0or0r6h7,W6WdIuNV,2020-0188,2020-06-04,11:09:31,11:27:25,NA,incomplete,195,race,3,1,left,C_F_14.jpg,C_M_15.jpg,A_F_07.jpg,right,320,false,low,false
W6WdIuNV,379ol9dbtvr9qb2hghaat1q2k68y9b,3pdjhanyk9t29h8ozc8ccb0or0r6h7,W6WdIuNV,2020-0188,2020-06-04,11:09:31,11:27:25,NA,incomplete,196,race,3,1,left,A_F_10.jpg,A_M_04.jpg,C_F_07.jpg,left,347,true,low,false
W6WdIuNV,379ol9dbtvr9qb2hghaat1q2k68y9b,3pdjhanyk9t29h8ozc8ccb0or0r6h7,W6WdIuNV,2020-0188,2020-06-04,11:09:31,11:27:25,NA,incomplete,197,race,3,1,right,A_M_15.jpg,C_M_03.jpg,A_F_12.jpg,right,503,true,low,false
W6WdIuNV,379ol9dbtvr9qb2hghaat1q2k68y9b,3pdjhanyk9t29h8ozc8ccb0or0r6h7,W6WdIuNV,2020-0188,2020-06-04,11:09:31,11:27:25,NA,incomplete,198,race,3,0,left,C_F_15.jpg,C_M_01.jpg,A_F_03.jpg,left,720,true,low,false
W6WdIuNV,379ol9dbtvr9qb2hghaat1q2k68y9b,3pdjhanyk9t29h8ozc8ccb0or0r6h7,W6WdIuNV,2020-0188,2020-06-04,11:09:31,11:27:25,NA,incomplete,199,race,3,1,right,C_F_10.jpg,A_F_15.jpg,C_M_01.jpg,right,702,true,low,false
W6WdIuNV,379ol9dbtvr9qb2hghaat1q2k68y9b,3pdjhanyk9t29h8ozc8ccb0or0r6h7,W6WdIuNV,2020-0188,2020-06-04,11:09:31,11:27:25,NA,incomplete,200,gender,2,1,left,C_M_11.jpg,A_M_01.jpg,C_F_10.jpg,right,869,false,low,false
W6WdIuNV,379ol9dbtvr9qb2hghaat1q2k68y9b,3pdjhanyk9t29h8ozc8ccb0or0r6h7,W6WdIuNV,2020-0188,2020-06-04,11:09:31,11:27:25,NA,incomplete,201,gender,2,0,right,A_F_03.jpg,A_M_05.jpg,C_F_14.jpg,right,574,true,low,false
W6WdIuNV,379ol9dbtvr9qb2hghaat1q2k68y9b,3pdjhanyk9t29h8ozc8ccb0or0r6h7,W6WdIuNV,2020-0188,2020-06-04,11:09:31,11:27:25,NA,incomplete,202,gender,2,1,left,A_M_13.jpg,C_M_10.jpg,A_F_07.jpg,left,524,true,low,false
W6WdIuNV,379ol9dbtvr9qb2hghaat1q2k68y9b,3pdjhanyk9t29h8ozc8ccb0or0r6h7,W6WdIuNV,2020-0188,2020-06-04,11:09:31,11:27:25,NA,incomplete,203,gender,2,1,right,C_M_12.jpg,C_F_15.jpg,A_M_10.jpg,right,258,true,low,false
W6WdIuNV,379ol9dbtvr9qb2hghaat1q2k68y9b,3pdjhanyk9t29h8ozc8ccb0or0r6h7,W6WdIuNV,2020-0188,2020-06-04,11:09:31,11:27:25,NA,incomplete,204,gender,2,1,right,C_M_07.jpg,C_F_04.jpg,A_M_12.jpg,left,509,false,low,false
W6WdIuNV,379ol9dbtvr9qb2hghaat1q2k68y9b,3pdjhanyk9t29h8ozc8ccb0or0r6h7,W6WdIuNV,2020-0188,2020-06-04,11:09:31,11:27:25,NA,incomplete,205,gender,2,1,right,A_F_13.jpg,A_M_16.jpg,C_F_01.jpg,right,271,true,low,false
W6WdIuNV,379ol9dbtvr9qb2hghaat1q2k68y9b,3pdjhanyk9t29h8ozc8ccb0or0r6h7,W6WdIuNV,2020-0188,2020-06-04,11:09:31,11:27:25,NA,incomplete,206,gender,2,1,right,A_F_11.jpg,A_M_05.jpg,C_F_07.jpg,right,237,true,low,false
W6WdIuNV,379ol9dbtvr9qb2hghaat1q2k68y9b,3pdjhanyk9t29h8ozc8ccb0or0r6h7,W6WdIuNV,2020-0188,2020-06-04,11:09:31,11:27:25,NA,incomplete,207,gender,2,1,left,C_F_07.jpg,A_F_16.jpg,C_M_05.jpg,right,58,false,low,false
W6WdIuNV,379ol9dbtvr9qb2hghaat1q2k68y9b,3pdjhanyk9t29h8ozc8ccb0or0r6h7,W6WdIuNV,2020-0188,2020-06-04,11:09:31,11:27:25,NA,incomplete,208,gender,2,1,right,A_F_13.jpg,A_M_11.jpg,C_F_08.jpg,left,272,false,low,false
W6WdIuNV,379ol9dbtvr9qb2hghaat1q2k68y9b,3pdjhanyk9t29h8ozc8ccb0or0r6h7,W6WdIuNV,2020-0188,2020-06-04,11:09:31,11:27:25,NA,incomplete,209,gender,2,1,left,A_M_01.jpg,C_M_05.jpg,A_F_03.jpg,left,207,true,low,false
W6WdIuNV,379ol9dbtvr9qb2hghaat1q2k68y9b,3pdjhanyk9t29h8ozc8ccb0or0r6h7,W6WdIuNV,2020-0188,2020-06-04,11:09:31,11:27:25,NA,incomplete,210,gender,2,0,right,C_F_07.jpg,C_M_06.jpg,A_F_02.jpg,left,307,false,low,false
W6WdIuNV,379ol9dbtvr9qb2hghaat1q2k68y9b,3pdjhanyk9t29h8ozc8ccb0or0r6h7,W6WdIuNV,2020-0188,2020-06-04,11:09:31,11:27:25,NA,incomplete,211,gender,2,1,left,C_M_15.jpg,A_M_08.jpg,C_F_16.jpg,left,411,true,low,false
W6WdIuNV,379ol9dbtvr9qb2hghaat1q2k68y9b,3pdjhanyk9t29h8ozc8ccb0or0r6h7,W6WdIuNV,2020-0188,2020-06-04,11:09:31,11:27:25,NA,incomplete,212,gender,2,1,left,C_F_15.jpg,A_F_16.jpg,C_M_03.jpg,left,591,true,low,false
W6WdIuNV,379ol9dbtvr9qb2hghaat1q2k68y9b,3pdjhanyk9t29h8ozc8ccb0or0r6h7,W6WdIuNV,2020-0188,2020-06-04,11:09:31,11:27:25,NA,incomplete,213,gender,2,1,right,C_M_14.jpg,C_F_10.jpg,A_M_02.jpg,left,771,false,low,false
W6WdIuNV,379ol9dbtvr9qb2hghaat1q2k68y9b,3pdjhanyk9t29h8ozc8ccb0or0r6h7,W6WdIuNV,2020-0188,2020-06-04,11:09:31,11:27:25,NA,incomplete,214,gender,2,1,right,A_F_01.jpg,A_M_14.jpg,C_F_11.jpg,right,321,true,low,false
W6WdIuNV,379ol9dbtvr9qb2hghaat1q2k68y9b,3pdjhanyk9t29h8ozc8ccb0or0r6h7,W6WdIuNV,2020-0188,2020-06-04,11:09:31,11:27:25,NA,incomplete,215,gender,2,1,left,A_M_05.jpg,C_M_01.jpg,A_F_09.jpg,right,457,false,low,false
W6WdIuNV,379ol9dbtvr9qb2hghaat1q2k68y9b,3pdjhanyk9t29h8ozc8ccb0or0r6h7,W6WdIuNV,2020-0188,2020-06-04,11:09:31,11:27:25,NA,incomplete,216,gender,2,1,right,C_F_12.jpg,C_M_15.jpg,A_F_01.jpg,left,577,false,low,false
W6WdIuNV,379ol9dbtvr9qb2hghaat1q2k68y9b,3pdjhanyk9t29h8ozc8ccb0or0r6h7,W6WdIuNV,2020-0188,2020-06-04,11:09:31,11:27:25,NA,incomplete,217,gender,2,0,right,A_M_15.jpg,A_F_13.jpg,C_M_06.jpg,left,608,false,low,false
W6WdIuNV,379ol9dbtvr9qb2hghaat1q2k68y9b,3pdjhanyk9t29h8ozc8ccb0or0r6h7,W6WdIuNV,2020-0188,2020-06-04,11:09:31,11:27:25,NA,incomplete,218,gender,2,1,left,A_F_03.jpg,C_F_09.jpg,A_M_07.jpg,left,334,true,low,false
W6WdIuNV,379ol9dbtvr9qb2hghaat1q2k68y9b,3pdjhanyk9t29h8ozc8ccb0or0r6h7,W6WdIuNV,2020-0188,2020-06-04,11:09:31,11:27:25,NA,incomplete,219,gender,2,0,right,C_M_09.jpg,C_F_02.jpg,A_M_05.jpg,left,78,false,low,false
W6WdIuNV,379ol9dbtvr9qb2hghaat1q2k68y9b,3pdjhanyk9t29h8ozc8ccb0or0r6h7,W6WdIuNV,2020-0188,2020-06-04,11:09:31,11:27:25,NA,incomplete,220,race,3,1,right,C_F_01.jpg,A_F_04.jpg,C_M_06.jpg,left,593,false,low,false
W6WdIuNV,379ol9dbtvr9qb2hghaat1q2k68y9b,3pdjhanyk9t29h8ozc8ccb0or0r6h7,W6WdIuNV,2020-0188,2020-06-04,11:09:31,11:27:25,NA,incomplete,221,race,3,1,left,A_M_03.jpg,A_F_15.jpg,C_M_10.jpg,left,187,true,low,false
W6WdIuNV,379ol9dbtvr9qb2hghaat1q2k68y9b,3pdjhanyk9t29h8ozc8ccb0or0r6h7,W6WdIuNV,2020-0188,2020-06-04,11:09:31,11:27:25,NA,incomplete,222,race,3,1,right,A_F_03.jpg,C_F_10.jpg,A_M_11.jpg,left,269,false,low,false
W6WdIuNV,379ol9dbtvr9qb2hghaat1q2k68y9b,3pdjhanyk9t29h8ozc8ccb0or0r6h7,W6WdIuNV,2020-0188,2020-06-04,11:09:31,11:27:25,NA,incomplete,223,race,3,1,left,C_M_09.jpg,C_F_01.jpg,A_M_03.jpg,right,79,false,low,false
W6WdIuNV,379ol9dbtvr9qb2hghaat1q2k68y9b,3pdjhanyk9t29h8ozc8ccb0or0r6h7,W6WdIuNV,2020-0188,2020-06-04,11:09:31,11:27:25,NA,incomplete,224,race,3,1,right,A_F_07.jpg,C_F_10.jpg,A_M_02.jpg,left,231,false,low,false
W6WdIuNV,379ol9dbtvr9qb2hghaat1q2k68y9b,3pdjhanyk9t29h8ozc8ccb0or0r6h7,W6WdIuNV,2020-0188,2020-06-04,11:09:31,11:27:25,NA,incomplete,225,race,3,1,left,C_F_06.jpg,C_M_16.jpg,A_F_07.jpg,left,265,true,low,false
W6WdIuNV,379ol9dbtvr9qb2hghaat1q2k68y9b,3pdjhanyk9t29h8ozc8ccb0or0r6h7,W6WdIuNV,2020-0188,2020-06-04,11:09:31,11:27:25,NA,incomplete,226,race,3,1,left,C_M_04.jpg,C_F_16.jpg,A_M_11.jpg,left,334,true,low,false
W6WdIuNV,379ol9dbtvr9qb2hghaat1q2k68y9b,3pdjhanyk9t29h8ozc8ccb0or0r6h7,W6WdIuNV,2020-0188,2020-06-04,11:09:31,11:27:25,NA,incomplete,227,race,3,1,left,A_M_01.jpg,A_F_06.jpg,C_M_10.jpg,left,286,true,low,false
W6WdIuNV,379ol9dbtvr9qb2hghaat1q2k68y9b,3pdjhanyk9t29h8ozc8ccb0or0r6h7,W6WdIuNV,2020-0188,2020-06-04,11:09:31,11:27:25,NA,incomplete,228,race,3,0,right,A_F_11.jpg,C_F_15.jpg,A_M_01.jpg,left,291,false,low,false
W6WdIuNV,379ol9dbtvr9qb2hghaat1q2k68y9b,3pdjhanyk9t29h8ozc8ccb0or0r6h7,W6WdIuNV,2020-0188,2020-06-04,11:09:31,11:27:25,NA,incomplete,229,race,3,1,left,C_F_12.jpg,C_M_03.jpg,A_F_02.jpg,left,282,true,low,false
W6WdIuNV,379ol9dbtvr9qb2hghaat1q2k68y9b,3pdjhanyk9t29h8ozc8ccb0or0r6h7,W6WdIuNV,2020-0188,2020-06-04,11:09:31,11:27:25,NA,incomplete,230,race,3,1,right,A_M_04.jpg,C_M_16.jpg,A_F_01.jpg,left,287,false,low,false
W6WdIuNV,379ol9dbtvr9qb2hghaat1q2k68y9b,3pdjhanyk9t29h8ozc8ccb0or0r6h7,W6WdIuNV,2020-0188,2020-06-04,11:09:31,11:27:25,NA,incomplete,231,race,3,1,right,C_M_14.jpg,A_M_16.jpg,C_F_10.jpg,right,37,true,low,false
W6WdIuNV,379ol9dbtvr9qb2hghaat1q2k68y9b,3pdjhanyk9t29h8ozc8ccb0or0r6h7,W6WdIuNV,2020-0188,2020-06-04,11:09:31,11:27:25,NA,incomplete,232,race,3,0,right,A_M_04.jpg,C_M_15.jpg,A_F_09.jpg,left,399,false,low,false
W6WdIuNV,379ol9dbtvr9qb2hghaat1q2k68y9b,3pdjhanyk9t29h8ozc8ccb0or0r6h7,W6WdIuNV,2020-0188,2020-06-04,11:09:31,11:27:25,NA,incomplete,233,race,3,1,right,C_M_02.jpg,A_M_14.jpg,C_F_12.jpg,left,344,false,low,false
W6WdIuNV,379ol9dbtvr9qb2hghaat1q2k68y9b,3pdjhanyk9t29h8ozc8ccb0or0r6h7,W6WdIuNV,2020-0188,2020-06-04,11:09:31,11:27:25,NA,incomplete,234,race,3,0,right,A_F_14.jpg,C_F_01.jpg,A_M_13.jpg,left,272,false,low,false
W6WdIuNV,379ol9dbtvr9qb2hghaat1q2k68y9b,3pdjhanyk9t29h8ozc8ccb0or0r6h7,W6WdIuNV,2020-0188,2020-06-04,11:09:31,11:27:25,NA,incomplete,235,race,3,1,right,A_M_04.jpg,C_M_15.jpg,A_F_01.jpg,left,249,false,low,false
W6WdIuNV,379ol9dbtvr9qb2hghaat1q2k68y9b,3pdjhanyk9t29h8ozc8ccb0or0r6h7,W6WdIuNV,2020-0188,2020-06-04,11:09:31,11:27:25,NA,incomplete,236,race,3,1,left,C_F_13.jpg,C_M_11.jpg,A_F_02.jpg,left,338,true,low,false
W6WdIuNV,379ol9dbtvr9qb2hghaat1q2k68y9b,3pdjhanyk9t29h8ozc8ccb0or0r6h7,W6WdIuNV,2020-0188,2020-06-04,11:09:31,11:27:25,NA,incomplete,237,race,3,1,right,A_M_12.jpg,C_M_08.jpg,A_F_10.jpg,right,297,true,low,false
W6WdIuNV,379ol9dbtvr9qb2hghaat1q2k68y9b,3pdjhanyk9t29h8ozc8ccb0or0r6h7,W6WdIuNV,2020-0188,2020-06-04,11:09:31,11:27:25,NA,incomplete,238,race,3,1,right,C_M_10.jpg,A_M_06.jpg,C_F_14.jpg,right,320,true,low,false
W6WdIuNV,379ol9dbtvr9qb2hghaat1q2k68y9b,3pdjhanyk9t29h8ozc8ccb0or0r6h7,W6WdIuNV,2020-0188,2020-06-04,11:09:31,11:27:25,NA,incomplete,239,race,3,1,left,C_M_15.jpg,C_F_01.jpg,A_M_04.jpg,left,320,true,low,false
W6WdIuNV,379ol9dbtvr9qb2hghaat1q2k68y9b,3pdjhanyk9t29h8ozc8ccb0or0r6h7,W6WdIuNV,2020-0188,2020-06-04,11:09:31,11:27:25,NA,NA,instruction example,filling,NA,NA,NA,Red_Triangle_Stripes_1.jpg,Blue_Plus_Stripes_4.jpg,Green_Star_Dots_1.jpg,NA,NA,NA,NA,undefined
W6WdIuNV,379ol9dbtvr9qb2hghaat1q2k68y9b,3pdjhanyk9t29h8ozc8ccb0or0r6h7,W6WdIuNV,2020-0188,2020-06-04,11:09:31,11:27:25,NA,NA,instruction example,filling,NA,NA,NA,Green_Triangle_Stripes_4.jpg,Purple_Plus_Chess_4.jpg,Red_Circle_Stripes_3.jpg,NA,NA,NA,NA,undefined
W6WdIuNV,379ol9dbtvr9qb2hghaat1q2k68y9b,3pdjhanyk9t29h8ozc8ccb0or0r6h7,W6WdIuNV,2020-0188,2020-06-04,11:09:31,11:27:25,NA,NA,instruction example,filling,NA,NA,NA,C_F_04.jpg,A_F_15.jpg,C_M_05.jpg,NA,NA,NA,NA,undefined
W6WdIuNV,379ol9dbtvr9qb2hghaat1q2k68y9b,3pdjhanyk9t29h8ozc8ccb0or0r6h7,W6WdIuNV,2020-0188,2020-06-04,11:09:31,11:27:25,NA,NA,instruction example,filling,NA,NA,NA,A_M_11.jpg,A_F_13.jpg,C_M_05.jpg,NA,NA,NA,NA,undefined
