workerId,hitId,assignmentId,subject,studyid,exp_date,exp_start,exp_end,time_start,time_end,trial,type,sequence,reward_validity,answer,image_top,image_left,image_right,response,response_time,response_acc,volatility,age,race,gender,ethnicity,color,vision,neuro,practice
dFluHLui,3ni0wfppjctpbx4ya2wphz5gism608,3pqmudrv7vjiywe97vzm9qr8067iig,dFluHLui,2020-0188,2020-06-04,14:33:36,15:05:20,NA,incomplete,0,filling,0,1,left,Blue_Star_Dots_2.jpg,Purple_Circle_Dots_4.jpg,Red_Triangle_Stripes_2.jpg,left,1377,true,NA,NA,NA,NA,NA,NA,NA,NA,true
dFluHLui,3ni0wfppjctpbx4ya2wphz5gism608,3pqmudrv7vjiywe97vzm9qr8067iig,dFluHLui,2020-0188,2020-06-04,14:33:36,15:05:20,NA,incomplete,1,filling,0,1,right,Green_Plus_Stripes_1.jpg,Red_Circle_Grid_1.jpg,Blue_Triangle_Stripes_3.jpg,right,1225,true,NA,NA,NA,NA,NA,NA,NA,NA,true
dFluHLui,3ni0wfppjctpbx4ya2wphz5gism608,3pqmudrv7vjiywe97vzm9qr8067iig,dFluHLui,2020-0188,2020-06-04,14:33:36,15:05:20,NA,incomplete,2,filling,0,1,left,Blue_Plus_Stripes_4.jpg,Red_Triangle_Stripes_1.jpg,Purple_Star_Chess_4.jpg,left,1256,true,NA,NA,NA,NA,NA,NA,NA,NA,true
dFluHLui,3ni0wfppjctpbx4ya2wphz5gism608,3pqmudrv7vjiywe97vzm9qr8067iig,dFluHLui,2020-0188,2020-06-04,14:33:36,15:05:20,NA,incomplete,3,filling,0,1,right,Blue_Triangle_Grid_2.jpg,Green_Circle_Chess_2.jpg,Purple_Plus_Grid_4.jpg,right,1060,true,NA,NA,NA,NA,NA,NA,NA,NA,true
dFluHLui,3ni0wfppjctpbx4ya2wphz5gism608,3pqmudrv7vjiywe97vzm9qr8067iig,dFluHLui,2020-0188,2020-06-04,14:33:36,15:05:20,NA,incomplete,4,filling,0,1,left,Blue_Circle_Stripes_2.jpg,Purple_Star_Stripes_4.jpg,Red_Plus_Dots_2.jpg,left,1079,true,NA,NA,NA,NA,NA,NA,NA,NA,true
dFluHLui,3ni0wfppjctpbx4ya2wphz5gism608,3pqmudrv7vjiywe97vzm9qr8067iig,dFluHLui,2020-0188,2020-06-04,14:33:36,15:05:20,NA,incomplete,5,filling,0,0,left,Purple_Triangle_Dots_2.jpg,Blue_Circle_Dots_4.jpg,Red_Star_Stripes_2.jpg,left,1134,true,NA,NA,NA,NA,NA,NA,NA,NA,true
dFluHLui,3ni0wfppjctpbx4ya2wphz5gism608,3pqmudrv7vjiywe97vzm9qr8067iig,dFluHLui,2020-0188,2020-06-04,14:33:36,15:05:20,NA,incomplete,6,filling,0,1,left,Red_Plus_Grid_2.jpg,Blue_Star_Grid_3.jpg,Green_Triangle_Stripes_2.jpg,left,1232,true,NA,NA,NA,NA,NA,NA,NA,NA,true
dFluHLui,3ni0wfppjctpbx4ya2wphz5gism608,3pqmudrv7vjiywe97vzm9qr8067iig,dFluHLui,2020-0188,2020-06-04,14:33:36,15:05:20,NA,incomplete,7,filling,0,0,right,Purple_Circle_Stripes_1.jpg,Red_Plus_Chess_1.jpg,Blue_Star_Stripes_3.jpg,right,1247,true,NA,NA,NA,NA,NA,NA,NA,NA,true
dFluHLui,3ni0wfppjctpbx4ya2wphz5gism608,3pqmudrv7vjiywe97vzm9qr8067iig,dFluHLui,2020-0188,2020-06-04,14:33:36,15:05:20,NA,incomplete,8,filling,0,1,left,Red_Star_Grid_3.jpg,Green_Circle_Grid_1.jpg,Purple_Triangle_Dots_3.jpg,left,1067,true,NA,NA,NA,NA,NA,NA,NA,NA,true
dFluHLui,3ni0wfppjctpbx4ya2wphz5gism608,3pqmudrv7vjiywe97vzm9qr8067iig,dFluHLui,2020-0188,2020-06-04,14:33:36,15:05:20,NA,incomplete,9,filling,0,1,right,Blue_Star_Grid_3.jpg,Green_Triangle_Stripes_3.jpg,Purple_Circle_Grid_4.jpg,right,1121,true,NA,NA,NA,NA,NA,NA,NA,NA,true
dFluHLui,3ni0wfppjctpbx4ya2wphz5gism608,3pqmudrv7vjiywe97vzm9qr8067iig,dFluHLui,2020-0188,2020-06-04,14:33:36,15:05:20,NA,incomplete,10,filling,0,1,left,Purple_Triangle_Chess_1.jpg,Red_Plus_Chess_4.jpg,Blue_Circle_Grid_1.jpg,left,1044,true,NA,NA,NA,NA,NA,NA,NA,NA,true
dFluHLui,3ni0wfppjctpbx4ya2wphz5gism608,3pqmudrv7vjiywe97vzm9qr8067iig,dFluHLui,2020-0188,2020-06-04,14:33:36,15:05:20,NA,incomplete,11,filling,0,1,right,Red_Star_Dots_2.jpg,Green_Triangle_Stripes_2.jpg,Purple_Circle_Dots_1.jpg,right,1465,true,NA,NA,NA,NA,NA,NA,NA,NA,true
dFluHLui,3ni0wfppjctpbx4ya2wphz5gism608,3pqmudrv7vjiywe97vzm9qr8067iig,dFluHLui,2020-0188,2020-06-04,14:33:36,15:05:20,NA,incomplete,12,filling,0,0,right,Purple_Circle_Dots_2.jpg,Green_Triangle_Stripes_2.jpg,Blue_Plus_Dots_1.jpg,right,1087,true,NA,NA,NA,NA,NA,NA,NA,NA,true
dFluHLui,3ni0wfppjctpbx4ya2wphz5gism608,3pqmudrv7vjiywe97vzm9qr8067iig,dFluHLui,2020-0188,2020-06-04,14:33:36,15:05:20,NA,incomplete,13,filling,0,1,left,Blue_Plus_Stripes_2.jpg,Green_Star_Stripes_3.jpg,Purple_Circle_Grid_2.jpg,left,1266,true,NA,NA,NA,NA,NA,NA,NA,NA,true
dFluHLui,3ni0wfppjctpbx4ya2wphz5gism608,3pqmudrv7vjiywe97vzm9qr8067iig,dFluHLui,2020-0188,2020-06-04,14:33:36,15:05:20,NA,incomplete,14,filling,0,1,right,Red_Plus_Stripes_3.jpg,Blue_Triangle_Grid_3.jpg,Green_Star_Stripes_2.jpg,right,1036,true,NA,NA,NA,NA,NA,NA,NA,NA,true
dFluHLui,3ni0wfppjctpbx4ya2wphz5gism608,3pqmudrv7vjiywe97vzm9qr8067iig,dFluHLui,2020-0188,2020-06-04,14:33:36,15:05:20,NA,incomplete,15,filling,0,0,right,Blue_Star_Chess_3.jpg,Green_Triangle_Grid_3.jpg,Purple_Circle_Chess_2.jpg,right,1044,true,NA,NA,NA,NA,NA,NA,NA,NA,true
dFluHLui,3ni0wfppjctpbx4ya2wphz5gism608,3pqmudrv7vjiywe97vzm9qr8067iig,dFluHLui,2020-0188,2020-06-04,14:33:36,15:05:20,NA,incomplete,16,filling,0,1,left,Blue_Star_Dots_3.jpg,Green_Circle_Dots_4.jpg,Red_Plus_Chess_3.jpg,left,1198,true,NA,NA,NA,NA,NA,NA,NA,NA,true
dFluHLui,3ni0wfppjctpbx4ya2wphz5gism608,3pqmudrv7vjiywe97vzm9qr8067iig,dFluHLui,2020-0188,2020-06-04,14:33:36,15:05:20,NA,incomplete,17,filling,0,1,left,Red_Plus_Chess_1.jpg,Green_Star_Chess_4.jpg,Purple_Circle_Grid_1.jpg,left,1004,true,NA,NA,NA,NA,NA,NA,NA,NA,true
dFluHLui,3ni0wfppjctpbx4ya2wphz5gism608,3pqmudrv7vjiywe97vzm9qr8067iig,dFluHLui,2020-0188,2020-06-04,14:33:36,15:05:20,NA,incomplete,18,filling,0,1,right,Blue_Star_Grid_4.jpg,Red_Circle_Dots_4.jpg,Green_Plus_Grid_2.jpg,right,992,true,NA,NA,NA,NA,NA,NA,NA,NA,true
dFluHLui,3ni0wfppjctpbx4ya2wphz5gism608,3pqmudrv7vjiywe97vzm9qr8067iig,dFluHLui,2020-0188,2020-06-04,14:33:36,15:05:20,NA,incomplete,19,filling,0,1,right,Purple_Star_Dots_3.jpg,Red_Circle_Grid_3.jpg,Blue_Triangle_Dots_4.jpg,right,1143,true,NA,NA,NA,NA,NA,NA,NA,NA,true
dFluHLui,3ni0wfppjctpbx4ya2wphz5gism608,3pqmudrv7vjiywe97vzm9qr8067iig,dFluHLui,2020-0188,2020-06-04,14:33:36,15:05:20,NA,incomplete,20,number,1,1,left,Blue_Circle_Grid_3.jpg,Red_Star_Dots_3.jpg,Purple_Plus_Grid_2.jpg,right,1515,false,NA,NA,NA,NA,NA,NA,NA,NA,true
dFluHLui,3ni0wfppjctpbx4ya2wphz5gism608,3pqmudrv7vjiywe97vzm9qr8067iig,dFluHLui,2020-0188,2020-06-04,14:33:36,15:05:20,NA,incomplete,21,number,1,1,right,Blue_Plus_Chess_1.jpg,Red_Triangle_Chess_4.jpg,Green_Circle_Grid_1.jpg,right,1069,true,NA,NA,NA,NA,NA,NA,NA,NA,true
dFluHLui,3ni0wfppjctpbx4ya2wphz5gism608,3pqmudrv7vjiywe97vzm9qr8067iig,dFluHLui,2020-0188,2020-06-04,14:33:36,15:05:20,NA,incomplete,22,number,1,1,left,Purple_Triangle_Grid_1.jpg,Blue_Star_Dots_1.jpg,Red_Plus_Grid_4.jpg,left,804,true,NA,NA,NA,NA,NA,NA,NA,NA,true
dFluHLui,3ni0wfppjctpbx4ya2wphz5gism608,3pqmudrv7vjiywe97vzm9qr8067iig,dFluHLui,2020-0188,2020-06-04,14:33:36,15:05:20,NA,incomplete,23,number,1,1,left,Green_Plus_Grid_4.jpg,Blue_Star_Dots_4.jpg,Red_Circle_Grid_3.jpg,left,1095,true,NA,NA,NA,NA,NA,NA,NA,NA,true
dFluHLui,3ni0wfppjctpbx4ya2wphz5gism608,3pqmudrv7vjiywe97vzm9qr8067iig,dFluHLui,2020-0188,2020-06-04,14:33:36,15:05:20,NA,incomplete,24,number,1,1,right,Red_Triangle_Stripes_2.jpg,Green_Circle_Stripes_3.jpg,Purple_Plus_Dots_2.jpg,right,708,true,NA,NA,NA,NA,NA,NA,NA,NA,true
dFluHLui,3ni0wfppjctpbx4ya2wphz5gism608,3pqmudrv7vjiywe97vzm9qr8067iig,dFluHLui,2020-0188,2020-06-04,14:33:36,15:05:20,NA,incomplete,25,number,1,1,left,Green_Triangle_Grid_1.jpg,Purple_Plus_Stripes_1.jpg,Blue_Circle_Grid_4.jpg,left,681,true,NA,NA,NA,NA,NA,NA,NA,NA,true
dFluHLui,3ni0wfppjctpbx4ya2wphz5gism608,3pqmudrv7vjiywe97vzm9qr8067iig,dFluHLui,2020-0188,2020-06-04,14:33:36,15:05:20,NA,incomplete,26,number,1,1,right,Blue_Star_Chess_3.jpg,Purple_Circle_Chess_1.jpg,Green_Plus_Stripes_3.jpg,right,622,true,NA,NA,NA,NA,NA,NA,NA,NA,true
dFluHLui,3ni0wfppjctpbx4ya2wphz5gism608,3pqmudrv7vjiywe97vzm9qr8067iig,dFluHLui,2020-0188,2020-06-04,14:33:36,15:05:20,NA,incomplete,27,number,1,0,right,Purple_Triangle_Stripes_1.jpg,Red_Star_Stripes_2.jpg,Green_Circle_Grid_1.jpg,right,853,true,NA,NA,NA,NA,NA,NA,NA,NA,true
dFluHLui,3ni0wfppjctpbx4ya2wphz5gism608,3pqmudrv7vjiywe97vzm9qr8067iig,dFluHLui,2020-0188,2020-06-04,14:33:36,15:05:20,NA,incomplete,28,number,1,0,left,Purple_Plus_Chess_4.jpg,Green_Circle_Dots_4.jpg,Red_Triangle_Chess_3.jpg,left,1189,true,NA,NA,NA,NA,NA,NA,NA,NA,true
dFluHLui,3ni0wfppjctpbx4ya2wphz5gism608,3pqmudrv7vjiywe97vzm9qr8067iig,dFluHLui,2020-0188,2020-06-04,14:33:36,15:05:20,NA,incomplete,29,number,1,1,left,Red_Circle_Stripes_1.jpg,Green_Triangle_Grid_1.jpg,Blue_Plus_Stripes_3.jpg,left,691,true,NA,NA,NA,NA,NA,NA,NA,NA,true
dFluHLui,3ni0wfppjctpbx4ya2wphz5gism608,3pqmudrv7vjiywe97vzm9qr8067iig,dFluHLui,2020-0188,2020-06-04,14:33:36,15:05:20,NA,incomplete,30,number,1,0,right,Blue_Plus_Stripes_4.jpg,Purple_Circle_Stripes_3.jpg,Green_Triangle_Chess_4.jpg,right,792,true,NA,NA,NA,NA,NA,NA,NA,NA,true
dFluHLui,3ni0wfppjctpbx4ya2wphz5gism608,3pqmudrv7vjiywe97vzm9qr8067iig,dFluHLui,2020-0188,2020-06-04,14:33:36,15:05:20,NA,incomplete,31,number,1,1,right,Red_Circle_Stripes_3.jpg,Green_Plus_Stripes_1.jpg,Purple_Triangle_Chess_3.jpg,right,713,true,NA,NA,NA,NA,NA,NA,NA,NA,true
dFluHLui,3ni0wfppjctpbx4ya2wphz5gism608,3pqmudrv7vjiywe97vzm9qr8067iig,dFluHLui,2020-0188,2020-06-04,14:33:36,15:05:20,NA,incomplete,32,number,1,1,left,Purple_Plus_Dots_1.jpg,Red_Triangle_Chess_1.jpg,Green_Star_Dots_4.jpg,left,728,true,NA,NA,NA,NA,NA,NA,NA,NA,true
dFluHLui,3ni0wfppjctpbx4ya2wphz5gism608,3pqmudrv7vjiywe97vzm9qr8067iig,dFluHLui,2020-0188,2020-06-04,14:33:36,15:05:20,NA,incomplete,33,number,1,1,right,Green_Triangle_Stripes_2.jpg,Red_Plus_Stripes_4.jpg,Purple_Star_Grid_2.jpg,right,719,true,NA,NA,NA,NA,NA,NA,NA,NA,true
dFluHLui,3ni0wfppjctpbx4ya2wphz5gism608,3pqmudrv7vjiywe97vzm9qr8067iig,dFluHLui,2020-0188,2020-06-04,14:33:36,15:05:20,NA,incomplete,34,number,1,1,right,Red_Circle_Grid_2.jpg,Purple_Plus_Grid_3.jpg,Green_Star_Dots_2.jpg,right,755,true,NA,NA,NA,NA,NA,NA,NA,NA,true
dFluHLui,3ni0wfppjctpbx4ya2wphz5gism608,3pqmudrv7vjiywe97vzm9qr8067iig,dFluHLui,2020-0188,2020-06-04,14:33:36,15:05:20,NA,incomplete,35,number,1,1,right,Purple_Circle_Grid_3.jpg,Red_Triangle_Grid_2.jpg,Green_Plus_Stripes_3.jpg,right,758,true,NA,NA,NA,NA,NA,NA,NA,NA,true
dFluHLui,3ni0wfppjctpbx4ya2wphz5gism608,3pqmudrv7vjiywe97vzm9qr8067iig,dFluHLui,2020-0188,2020-06-04,14:33:36,15:05:20,NA,incomplete,36,number,1,1,right,Blue_Plus_Stripes_4.jpg,Red_Triangle_Stripes_2.jpg,Purple_Circle_Chess_4.jpg,right,758,true,NA,NA,NA,NA,NA,NA,NA,NA,true
dFluHLui,3ni0wfppjctpbx4ya2wphz5gism608,3pqmudrv7vjiywe97vzm9qr8067iig,dFluHLui,2020-0188,2020-06-04,14:33:36,15:05:20,NA,incomplete,37,number,1,1,left,Purple_Star_Chess_4.jpg,Blue_Plus_Stripes_4.jpg,Red_Triangle_Chess_1.jpg,left,729,true,NA,NA,NA,NA,NA,NA,NA,NA,true
dFluHLui,3ni0wfppjctpbx4ya2wphz5gism608,3pqmudrv7vjiywe97vzm9qr8067iig,dFluHLui,2020-0188,2020-06-04,14:33:36,15:05:20,NA,incomplete,38,number,1,0,right,Purple_Circle_Chess_4.jpg,Green_Plus_Chess_1.jpg,Red_Triangle_Stripes_4.jpg,right,717,true,NA,NA,NA,NA,NA,NA,NA,NA,true
dFluHLui,3ni0wfppjctpbx4ya2wphz5gism608,3pqmudrv7vjiywe97vzm9qr8067iig,dFluHLui,2020-0188,2020-06-04,14:33:36,15:05:20,NA,incomplete,39,number,1,1,left,Blue_Star_Dots_4.jpg,Red_Triangle_Grid_4.jpg,Purple_Circle_Dots_1.jpg,left,591,true,NA,NA,NA,NA,NA,NA,NA,NA,true
dFluHLui,3ni0wfppjctpbx4ya2wphz5gism608,3pqmudrv7vjiywe97vzm9qr8067iig,dFluHLui,2020-0188,2020-06-04,14:33:36,15:05:20,NA,incomplete,0,filling,0,1,left,Purple_Plus_Grid_3.jpg,Blue_Star_Grid_2.jpg,Green_Triangle_Chess_3.jpg,right,819,false,low,NA,NA,NA,NA,NA,NA,NA,false
dFluHLui,3ni0wfppjctpbx4ya2wphz5gism608,3pqmudrv7vjiywe97vzm9qr8067iig,dFluHLui,2020-0188,2020-06-04,14:33:36,15:05:20,NA,incomplete,1,filling,0,1,left,Green_Plus_Chess_3.jpg,Purple_Triangle_Chess_2.jpg,Red_Star_Grid_3.jpg,right,1186,false,low,NA,NA,NA,NA,NA,NA,NA,false
dFluHLui,3ni0wfppjctpbx4ya2wphz5gism608,3pqmudrv7vjiywe97vzm9qr8067iig,dFluHLui,2020-0188,2020-06-04,14:33:36,15:05:20,NA,incomplete,2,filling,0,1,left,Blue_Triangle_Dots_4.jpg,Green_Star_Dots_1.jpg,Purple_Plus_Chess_4.jpg,left,882,true,low,NA,NA,NA,NA,NA,NA,NA,false
dFluHLui,3ni0wfppjctpbx4ya2wphz5gism608,3pqmudrv7vjiywe97vzm9qr8067iig,dFluHLui,2020-0188,2020-06-04,14:33:36,15:05:20,NA,incomplete,3,filling,0,1,right,Green_Triangle_Chess_2.jpg,Blue_Star_Stripes_2.jpg,Red_Circle_Chess_3.jpg,right,878,true,low,NA,NA,NA,NA,NA,NA,NA,false
dFluHLui,3ni0wfppjctpbx4ya2wphz5gism608,3pqmudrv7vjiywe97vzm9qr8067iig,dFluHLui,2020-0188,2020-06-04,14:33:36,15:05:20,NA,incomplete,4,filling,0,0,right,Red_Plus_Stripes_4.jpg,Purple_Star_Dots_4.jpg,Blue_Triangle_Stripes_2.jpg,right,1084,true,low,NA,NA,NA,NA,NA,NA,NA,false
dFluHLui,3ni0wfppjctpbx4ya2wphz5gism608,3pqmudrv7vjiywe97vzm9qr8067iig,dFluHLui,2020-0188,2020-06-04,14:33:36,15:05:20,NA,incomplete,5,filling,0,0,right,Purple_Plus_Grid_3.jpg,Red_Triangle_Chess_3.jpg,Green_Star_Grid_2.jpg,right,1231,true,low,NA,NA,NA,NA,NA,NA,NA,false
dFluHLui,3ni0wfppjctpbx4ya2wphz5gism608,3pqmudrv7vjiywe97vzm9qr8067iig,dFluHLui,2020-0188,2020-06-04,14:33:36,15:05:20,NA,incomplete,6,filling,0,1,right,Green_Plus_Chess_4.jpg,Purple_Triangle_Grid_4.jpg,Blue_Star_Chess_1.jpg,right,1296,true,low,NA,NA,NA,NA,NA,NA,NA,false
dFluHLui,3ni0wfppjctpbx4ya2wphz5gism608,3pqmudrv7vjiywe97vzm9qr8067iig,dFluHLui,2020-0188,2020-06-04,14:33:36,15:05:20,NA,incomplete,7,filling,0,1,left,Purple_Plus_Grid_1.jpg,Green_Triangle_Grid_3.jpg,Blue_Circle_Stripes_1.jpg,left,1306,true,low,NA,NA,NA,NA,NA,NA,NA,false
dFluHLui,3ni0wfppjctpbx4ya2wphz5gism608,3pqmudrv7vjiywe97vzm9qr8067iig,dFluHLui,2020-0188,2020-06-04,14:33:36,15:05:20,NA,incomplete,8,filling,0,1,left,Blue_Plus_Chess_3.jpg,Green_Star_Chess_1.jpg,Red_Triangle_Stripes_3.jpg,left,1060,true,low,NA,NA,NA,NA,NA,NA,NA,false
dFluHLui,3ni0wfppjctpbx4ya2wphz5gism608,3pqmudrv7vjiywe97vzm9qr8067iig,dFluHLui,2020-0188,2020-06-04,14:33:36,15:05:20,NA,incomplete,9,filling,0,1,left,Red_Star_Grid_2.jpg,Blue_Triangle_Grid_4.jpg,Purple_Plus_Stripes_2.jpg,left,969,true,low,NA,NA,NA,NA,NA,NA,NA,false
dFluHLui,3ni0wfppjctpbx4ya2wphz5gism608,3pqmudrv7vjiywe97vzm9qr8067iig,dFluHLui,2020-0188,2020-06-04,14:33:36,15:05:20,NA,incomplete,10,filling,0,1,left,Red_Star_Stripes_1.jpg,Green_Triangle_Stripes_2.jpg,Blue_Plus_Dots_1.jpg,left,850,true,low,NA,NA,NA,NA,NA,NA,NA,false
dFluHLui,3ni0wfppjctpbx4ya2wphz5gism608,3pqmudrv7vjiywe97vzm9qr8067iig,dFluHLui,2020-0188,2020-06-04,14:33:36,15:05:20,NA,incomplete,11,filling,0,1,right,Red_Plus_Grid_3.jpg,Blue_Circle_Stripes_3.jpg,Green_Triangle_Grid_4.jpg,right,912,true,low,NA,NA,NA,NA,NA,NA,NA,false
dFluHLui,3ni0wfppjctpbx4ya2wphz5gism608,3pqmudrv7vjiywe97vzm9qr8067iig,dFluHLui,2020-0188,2020-06-04,14:33:36,15:05:20,NA,incomplete,12,filling,0,1,left,Red_Triangle_Chess_4.jpg,Green_Circle_Chess_3.jpg,Purple_Plus_Grid_4.jpg,left,827,true,low,NA,NA,NA,NA,NA,NA,NA,false
dFluHLui,3ni0wfppjctpbx4ya2wphz5gism608,3pqmudrv7vjiywe97vzm9qr8067iig,dFluHLui,2020-0188,2020-06-04,14:33:36,15:05:20,NA,incomplete,13,filling,0,0,right,Purple_Star_Chess_2.jpg,Green_Plus_Dots_2.jpg,Red_Circle_Chess_3.jpg,right,810,true,low,NA,NA,NA,NA,NA,NA,NA,false
dFluHLui,3ni0wfppjctpbx4ya2wphz5gism608,3pqmudrv7vjiywe97vzm9qr8067iig,dFluHLui,2020-0188,2020-06-04,14:33:36,15:05:20,NA,incomplete,14,filling,0,1,right,Blue_Circle_Chess_1.jpg,Red_Plus_Dots_1.jpg,Purple_Triangle_Chess_4.jpg,right,874,true,low,NA,NA,NA,NA,NA,NA,NA,false
dFluHLui,3ni0wfppjctpbx4ya2wphz5gism608,3pqmudrv7vjiywe97vzm9qr8067iig,dFluHLui,2020-0188,2020-06-04,14:33:36,15:05:20,NA,incomplete,15,filling,0,0,left,Purple_Triangle_Stripes_3.jpg,Red_Star_Stripes_2.jpg,Blue_Circle_Dots_3.jpg,left,1029,true,low,NA,NA,NA,NA,NA,NA,NA,false
dFluHLui,3ni0wfppjctpbx4ya2wphz5gism608,3pqmudrv7vjiywe97vzm9qr8067iig,dFluHLui,2020-0188,2020-06-04,14:33:36,15:05:20,NA,incomplete,16,filling,0,1,right,Green_Circle_Grid_3.jpg,Purple_Plus_Dots_3.jpg,Blue_Star_Grid_1.jpg,left,1374,false,low,NA,NA,NA,NA,NA,NA,NA,false
dFluHLui,3ni0wfppjctpbx4ya2wphz5gism608,3pqmudrv7vjiywe97vzm9qr8067iig,dFluHLui,2020-0188,2020-06-04,14:33:36,15:05:20,NA,incomplete,17,filling,0,1,left,Purple_Star_Chess_1.jpg,Green_Plus_Chess_4.jpg,Red_Circle_Stripes_1.jpg,left,1366,true,low,NA,NA,NA,NA,NA,NA,NA,false
dFluHLui,3ni0wfppjctpbx4ya2wphz5gism608,3pqmudrv7vjiywe97vzm9qr8067iig,dFluHLui,2020-0188,2020-06-04,14:33:36,15:05:20,NA,incomplete,18,filling,0,1,right,Green_Circle_Grid_3.jpg,Red_Star_Stripes_3.jpg,Purple_Plus_Grid_2.jpg,right,1199,true,low,NA,NA,NA,NA,NA,NA,NA,false
dFluHLui,3ni0wfppjctpbx4ya2wphz5gism608,3pqmudrv7vjiywe97vzm9qr8067iig,dFluHLui,2020-0188,2020-06-04,14:33:36,15:05:20,NA,incomplete,19,filling,0,1,right,Purple_Circle_Stripes_3.jpg,Green_Triangle_Dots_3.jpg,Red_Star_Stripes_2.jpg,right,958,true,low,NA,NA,NA,NA,NA,NA,NA,false
dFluHLui,3ni0wfppjctpbx4ya2wphz5gism608,3pqmudrv7vjiywe97vzm9qr8067iig,dFluHLui,2020-0188,2020-06-04,14:33:36,15:05:20,NA,incomplete,20,filling,0,1,left,Blue_Star_Chess_3.jpg,Green_Circle_Chess_4.jpg,Purple_Plus_Grid_3.jpg,left,1095,true,low,NA,NA,NA,NA,NA,NA,NA,false
dFluHLui,3ni0wfppjctpbx4ya2wphz5gism608,3pqmudrv7vjiywe97vzm9qr8067iig,dFluHLui,2020-0188,2020-06-04,14:33:36,15:05:20,NA,incomplete,21,filling,0,0,left,Green_Circle_Dots_4.jpg,Purple_Triangle_Dots_1.jpg,Blue_Plus_Chess_4.jpg,left,1210,true,low,NA,NA,NA,NA,NA,NA,NA,false
dFluHLui,3ni0wfppjctpbx4ya2wphz5gism608,3pqmudrv7vjiywe97vzm9qr8067iig,dFluHLui,2020-0188,2020-06-04,14:33:36,15:05:20,NA,incomplete,22,filling,0,0,left,Red_Circle_Stripes_4.jpg,Green_Triangle_Stripes_2.jpg,Blue_Plus_Chess_4.jpg,left,890,true,low,NA,NA,NA,NA,NA,NA,NA,false
dFluHLui,3ni0wfppjctpbx4ya2wphz5gism608,3pqmudrv7vjiywe97vzm9qr8067iig,dFluHLui,2020-0188,2020-06-04,14:33:36,15:05:20,NA,incomplete,23,filling,0,1,right,Blue_Plus_Stripes_2.jpg,Purple_Star_Dots_2.jpg,Green_Circle_Stripes_1.jpg,right,999,true,low,NA,NA,NA,NA,NA,NA,NA,false
dFluHLui,3ni0wfppjctpbx4ya2wphz5gism608,3pqmudrv7vjiywe97vzm9qr8067iig,dFluHLui,2020-0188,2020-06-04,14:33:36,15:05:20,NA,incomplete,24,filling,0,0,left,Red_Triangle_Stripes_3.jpg,Green_Star_Stripes_4.jpg,Purple_Plus_Dots_3.jpg,left,1006,true,low,NA,NA,NA,NA,NA,NA,NA,false
dFluHLui,3ni0wfppjctpbx4ya2wphz5gism608,3pqmudrv7vjiywe97vzm9qr8067iig,dFluHLui,2020-0188,2020-06-04,14:33:36,15:05:20,NA,incomplete,25,filling,0,1,right,Green_Triangle_Grid_4.jpg,Red_Star_Stripes_4.jpg,Purple_Plus_Grid_1.jpg,right,757,true,low,NA,NA,NA,NA,NA,NA,NA,false
dFluHLui,3ni0wfppjctpbx4ya2wphz5gism608,3pqmudrv7vjiywe97vzm9qr8067iig,dFluHLui,2020-0188,2020-06-04,14:33:36,15:05:20,NA,incomplete,26,filling,0,1,left,Red_Circle_Chess_4.jpg,Purple_Star_Chess_3.jpg,Green_Plus_Dots_4.jpg,right,1254,false,low,NA,NA,NA,NA,NA,NA,NA,false
dFluHLui,3ni0wfppjctpbx4ya2wphz5gism608,3pqmudrv7vjiywe97vzm9qr8067iig,dFluHLui,2020-0188,2020-06-04,14:33:36,15:05:20,NA,incomplete,27,filling,0,1,right,Blue_Triangle_Stripes_1.jpg,Green_Plus_Dots_1.jpg,Red_Circle_Stripes_2.jpg,right,899,true,low,NA,NA,NA,NA,NA,NA,NA,false
dFluHLui,3ni0wfppjctpbx4ya2wphz5gism608,3pqmudrv7vjiywe97vzm9qr8067iig,dFluHLui,2020-0188,2020-06-04,14:33:36,15:05:20,NA,incomplete,28,filling,0,1,right,Red_Triangle_Dots_3.jpg,Purple_Star_Stripes_3.jpg,Blue_Circle_Dots_4.jpg,right,819,true,low,NA,NA,NA,NA,NA,NA,NA,false
dFluHLui,3ni0wfppjctpbx4ya2wphz5gism608,3pqmudrv7vjiywe97vzm9qr8067iig,dFluHLui,2020-0188,2020-06-04,14:33:36,15:05:20,NA,incomplete,29,filling,0,1,right,Green_Triangle_Stripes_3.jpg,Blue_Circle_Chess_3.jpg,Red_Plus_Stripes_1.jpg,right,977,true,low,NA,NA,NA,NA,NA,NA,NA,false
dFluHLui,3ni0wfppjctpbx4ya2wphz5gism608,3pqmudrv7vjiywe97vzm9qr8067iig,dFluHLui,2020-0188,2020-06-04,14:33:36,15:05:20,NA,incomplete,30,number,1,1,right,Blue_Triangle_Chess_2.jpg,Green_Plus_Chess_3.jpg,Purple_Star_Stripes_2.jpg,left,840,false,low,NA,NA,NA,NA,NA,NA,NA,false
dFluHLui,3ni0wfppjctpbx4ya2wphz5gism608,3pqmudrv7vjiywe97vzm9qr8067iig,dFluHLui,2020-0188,2020-06-04,14:33:36,15:05:20,NA,incomplete,31,number,1,1,right,Purple_Star_Grid_3.jpg,Blue_Circle_Grid_1.jpg,Red_Plus_Dots_3.jpg,left,1192,false,low,NA,NA,NA,NA,NA,NA,NA,false
dFluHLui,3ni0wfppjctpbx4ya2wphz5gism608,3pqmudrv7vjiywe97vzm9qr8067iig,dFluHLui,2020-0188,2020-06-04,14:33:36,15:05:20,NA,incomplete,32,number,1,1,right,Green_Circle_Dots_2.jpg,Blue_Star_Dots_3.jpg,Red_Plus_Chess_2.jpg,left,1353,false,low,NA,NA,NA,NA,NA,NA,NA,false
dFluHLui,3ni0wfppjctpbx4ya2wphz5gism608,3pqmudrv7vjiywe97vzm9qr8067iig,dFluHLui,2020-0188,2020-06-04,14:33:36,15:05:20,NA,incomplete,33,number,1,1,right,Blue_Plus_Grid_4.jpg,Green_Star_Grid_3.jpg,Purple_Circle_Dots_4.jpg,right,1104,true,low,NA,NA,NA,NA,NA,NA,NA,false
dFluHLui,3ni0wfppjctpbx4ya2wphz5gism608,3pqmudrv7vjiywe97vzm9qr8067iig,dFluHLui,2020-0188,2020-06-04,14:33:36,15:05:20,NA,incomplete,34,number,1,1,left,Blue_Plus_Stripes_2.jpg,Green_Triangle_Dots_2.jpg,Red_Circle_Stripes_4.jpg,right,880,false,low,NA,NA,NA,NA,NA,NA,NA,false
dFluHLui,3ni0wfppjctpbx4ya2wphz5gism608,3pqmudrv7vjiywe97vzm9qr8067iig,dFluHLui,2020-0188,2020-06-04,14:33:36,15:05:20,NA,incomplete,35,number,1,1,left,Purple_Plus_Stripes_3.jpg,Red_Triangle_Chess_3.jpg,Green_Star_Stripes_4.jpg,left,1087,true,low,NA,NA,NA,NA,NA,NA,NA,false
dFluHLui,3ni0wfppjctpbx4ya2wphz5gism608,3pqmudrv7vjiywe97vzm9qr8067iig,dFluHLui,2020-0188,2020-06-04,14:33:36,15:05:20,NA,incomplete,36,number,1,1,left,Red_Circle_Grid_4.jpg,Purple_Triangle_Dots_4.jpg,Green_Star_Grid_3.jpg,left,1012,true,low,NA,NA,NA,NA,NA,NA,NA,false
dFluHLui,3ni0wfppjctpbx4ya2wphz5gism608,3pqmudrv7vjiywe97vzm9qr8067iig,dFluHLui,2020-0188,2020-06-04,14:33:36,15:05:20,NA,incomplete,37,number,1,1,right,Green_Triangle_Grid_1.jpg,Purple_Circle_Grid_3.jpg,Blue_Star_Chess_1.jpg,right,922,true,low,NA,NA,NA,NA,NA,NA,NA,false
dFluHLui,3ni0wfppjctpbx4ya2wphz5gism608,3pqmudrv7vjiywe97vzm9qr8067iig,dFluHLui,2020-0188,2020-06-04,14:33:36,15:05:20,NA,incomplete,38,number,1,1,right,Red_Plus_Stripes_4.jpg,Purple_Star_Stripes_3.jpg,Green_Triangle_Dots_4.jpg,left,918,false,low,NA,NA,NA,NA,NA,NA,NA,false
dFluHLui,3ni0wfppjctpbx4ya2wphz5gism608,3pqmudrv7vjiywe97vzm9qr8067iig,dFluHLui,2020-0188,2020-06-04,14:33:36,15:05:20,NA,incomplete,39,number,1,1,right,Blue_Triangle_Dots_4.jpg,Green_Star_Dots_3.jpg,Red_Circle_Chess_4.jpg,right,881,true,low,NA,NA,NA,NA,NA,NA,NA,false
dFluHLui,3ni0wfppjctpbx4ya2wphz5gism608,3pqmudrv7vjiywe97vzm9qr8067iig,dFluHLui,2020-0188,2020-06-04,14:33:36,15:05:20,NA,incomplete,40,number,1,1,left,Red_Plus_Grid_2.jpg,Purple_Star_Stripes_2.jpg,Blue_Triangle_Grid_3.jpg,left,925,true,low,NA,NA,NA,NA,NA,NA,NA,false
dFluHLui,3ni0wfppjctpbx4ya2wphz5gism608,3pqmudrv7vjiywe97vzm9qr8067iig,dFluHLui,2020-0188,2020-06-04,14:33:36,15:05:20,NA,incomplete,41,number,1,1,left,Red_Plus_Dots_2.jpg,Purple_Triangle_Grid_2.jpg,Green_Circle_Dots_1.jpg,left,821,true,low,NA,NA,NA,NA,NA,NA,NA,false
dFluHLui,3ni0wfppjctpbx4ya2wphz5gism608,3pqmudrv7vjiywe97vzm9qr8067iig,dFluHLui,2020-0188,2020-06-04,14:33:36,15:05:20,NA,incomplete,42,number,1,1,right,Blue_Circle_Stripes_3.jpg,Green_Triangle_Stripes_1.jpg,Red_Plus_Dots_3.jpg,right,937,true,low,NA,NA,NA,NA,NA,NA,NA,false
dFluHLui,3ni0wfppjctpbx4ya2wphz5gism608,3pqmudrv7vjiywe97vzm9qr8067iig,dFluHLui,2020-0188,2020-06-04,14:33:36,15:05:20,NA,incomplete,43,number,1,1,left,Purple_Star_Grid_3.jpg,Green_Plus_Stripes_3.jpg,Blue_Circle_Grid_4.jpg,left,946,true,low,NA,NA,NA,NA,NA,NA,NA,false
dFluHLui,3ni0wfppjctpbx4ya2wphz5gism608,3pqmudrv7vjiywe97vzm9qr8067iig,dFluHLui,2020-0188,2020-06-04,14:33:36,15:05:20,NA,incomplete,44,number,1,0,left,Blue_Plus_Dots_2.jpg,Red_Star_Grid_2.jpg,Purple_Triangle_Dots_4.jpg,left,781,true,low,NA,NA,NA,NA,NA,NA,NA,false
dFluHLui,3ni0wfppjctpbx4ya2wphz5gism608,3pqmudrv7vjiywe97vzm9qr8067iig,dFluHLui,2020-0188,2020-06-04,14:33:36,15:05:20,NA,incomplete,45,number,1,1,left,Blue_Plus_Chess_3.jpg,Green_Circle_Stripes_3.jpg,Red_Triangle_Chess_2.jpg,left,906,true,low,NA,NA,NA,NA,NA,NA,NA,false
dFluHLui,3ni0wfppjctpbx4ya2wphz5gism608,3pqmudrv7vjiywe97vzm9qr8067iig,dFluHLui,2020-0188,2020-06-04,14:33:36,15:05:20,NA,incomplete,46,number,1,1,right,Green_Triangle_Grid_3.jpg,Red_Star_Grid_4.jpg,Blue_Plus_Chess_3.jpg,right,1337,true,low,NA,NA,NA,NA,NA,NA,NA,false
dFluHLui,3ni0wfppjctpbx4ya2wphz5gism608,3pqmudrv7vjiywe97vzm9qr8067iig,dFluHLui,2020-0188,2020-06-04,14:33:36,15:05:20,NA,incomplete,47,number,1,1,left,Green_Triangle_Dots_3.jpg,Red_Circle_Stripes_3.jpg,Blue_Plus_Dots_1.jpg,left,770,true,low,NA,NA,NA,NA,NA,NA,NA,false
dFluHLui,3ni0wfppjctpbx4ya2wphz5gism608,3pqmudrv7vjiywe97vzm9qr8067iig,dFluHLui,2020-0188,2020-06-04,14:33:36,15:05:20,NA,incomplete,48,number,1,1,right,Blue_Star_Chess_1.jpg,Green_Plus_Chess_4.jpg,Purple_Triangle_Dots_1.jpg,right,915,true,low,NA,NA,NA,NA,NA,NA,NA,false
dFluHLui,3ni0wfppjctpbx4ya2wphz5gism608,3pqmudrv7vjiywe97vzm9qr8067iig,dFluHLui,2020-0188,2020-06-04,14:33:36,15:05:20,NA,incomplete,49,number,1,1,left,Blue_Plus_Grid_4.jpg,Purple_Triangle_Chess_4.jpg,Red_Circle_Grid_3.jpg,left,926,true,low,NA,NA,NA,NA,NA,NA,NA,false
dFluHLui,3ni0wfppjctpbx4ya2wphz5gism608,3pqmudrv7vjiywe97vzm9qr8067iig,dFluHLui,2020-0188,2020-06-04,14:33:36,15:05:20,NA,incomplete,50,number,1,1,left,Green_Circle_Grid_4.jpg,Purple_Triangle_Chess_4.jpg,Red_Star_Grid_1.jpg,left,777,true,low,NA,NA,NA,NA,NA,NA,NA,false
dFluHLui,3ni0wfppjctpbx4ya2wphz5gism608,3pqmudrv7vjiywe97vzm9qr8067iig,dFluHLui,2020-0188,2020-06-04,14:33:36,15:05:20,NA,incomplete,51,number,1,1,left,Red_Circle_Dots_1.jpg,Blue_Triangle_Chess_1.jpg,Purple_Plus_Dots_2.jpg,left,1040,true,low,NA,NA,NA,NA,NA,NA,NA,false
dFluHLui,3ni0wfppjctpbx4ya2wphz5gism608,3pqmudrv7vjiywe97vzm9qr8067iig,dFluHLui,2020-0188,2020-06-04,14:33:36,15:05:20,NA,incomplete,52,number,1,1,right,Red_Star_Stripes_2.jpg,Blue_Plus_Stripes_1.jpg,Green_Triangle_Chess_2.jpg,right,977,true,low,NA,NA,NA,NA,NA,NA,NA,false
dFluHLui,3ni0wfppjctpbx4ya2wphz5gism608,3pqmudrv7vjiywe97vzm9qr8067iig,dFluHLui,2020-0188,2020-06-04,14:33:36,15:05:20,NA,incomplete,53,number,1,1,right,Red_Plus_Dots_4.jpg,Purple_Star_Dots_2.jpg,Blue_Triangle_Grid_4.jpg,right,823,true,low,NA,NA,NA,NA,NA,NA,NA,false
dFluHLui,3ni0wfppjctpbx4ya2wphz5gism608,3pqmudrv7vjiywe97vzm9qr8067iig,dFluHLui,2020-0188,2020-06-04,14:33:36,15:05:20,NA,incomplete,54,number,1,0,left,Blue_Plus_Grid_3.jpg,Red_Circle_Chess_3.jpg,Purple_Star_Grid_2.jpg,left,907,true,low,NA,NA,NA,NA,NA,NA,NA,false
dFluHLui,3ni0wfppjctpbx4ya2wphz5gism608,3pqmudrv7vjiywe97vzm9qr8067iig,dFluHLui,2020-0188,2020-06-04,14:33:36,15:05:20,NA,incomplete,55,number,1,1,right,Blue_Plus_Stripes_1.jpg,Green_Star_Stripes_3.jpg,Purple_Circle_Dots_1.jpg,right,965,true,low,NA,NA,NA,NA,NA,NA,NA,false
dFluHLui,3ni0wfppjctpbx4ya2wphz5gism608,3pqmudrv7vjiywe97vzm9qr8067iig,dFluHLui,2020-0188,2020-06-04,14:33:36,15:05:20,NA,incomplete,56,number,1,1,left,Red_Plus_Grid_2.jpg,Purple_Triangle_Chess_2.jpg,Green_Star_Grid_1.jpg,left,830,true,low,NA,NA,NA,NA,NA,NA,NA,false
dFluHLui,3ni0wfppjctpbx4ya2wphz5gism608,3pqmudrv7vjiywe97vzm9qr8067iig,dFluHLui,2020-0188,2020-06-04,14:33:36,15:05:20,NA,incomplete,57,number,1,0,left,Blue_Plus_Dots_2.jpg,Purple_Triangle_Grid_2.jpg,Red_Star_Dots_4.jpg,left,796,true,low,NA,NA,NA,NA,NA,NA,NA,false
dFluHLui,3ni0wfppjctpbx4ya2wphz5gism608,3pqmudrv7vjiywe97vzm9qr8067iig,dFluHLui,2020-0188,2020-06-04,14:33:36,15:05:20,NA,incomplete,58,number,1,0,left,Purple_Circle_Stripes_1.jpg,Red_Star_Chess_1.jpg,Green_Triangle_Stripes_3.jpg,right,924,false,low,NA,NA,NA,NA,NA,NA,NA,false
dFluHLui,3ni0wfppjctpbx4ya2wphz5gism608,3pqmudrv7vjiywe97vzm9qr8067iig,dFluHLui,2020-0188,2020-06-04,14:33:36,15:05:20,NA,incomplete,59,number,1,1,right,Green_Plus_Chess_4.jpg,Red_Star_Chess_1.jpg,Blue_Circle_Stripes_4.jpg,left,1208,false,low,NA,NA,NA,NA,NA,NA,NA,false
dFluHLui,3ni0wfppjctpbx4ya2wphz5gism608,3pqmudrv7vjiywe97vzm9qr8067iig,dFluHLui,2020-0188,2020-06-04,14:33:36,15:05:20,NA,incomplete,60,filling,0,1,right,Blue_Circle_Grid_1.jpg,Green_Star_Stripes_1.jpg,Purple_Triangle_Grid_2.jpg,left,1014,false,low,NA,NA,NA,NA,NA,NA,NA,false
dFluHLui,3ni0wfppjctpbx4ya2wphz5gism608,3pqmudrv7vjiywe97vzm9qr8067iig,dFluHLui,2020-0188,2020-06-04,14:33:36,15:05:20,NA,incomplete,61,filling,0,1,left,Red_Circle_Grid_4.jpg,Blue_Plus_Grid_1.jpg,Green_Star_Dots_4.jpg,left,1566,true,low,NA,NA,NA,NA,NA,NA,NA,false
dFluHLui,3ni0wfppjctpbx4ya2wphz5gism608,3pqmudrv7vjiywe97vzm9qr8067iig,dFluHLui,2020-0188,2020-06-04,14:33:36,15:05:20,NA,incomplete,62,filling,0,1,left,Green_Star_Stripes_2.jpg,Purple_Circle_Stripes_3.jpg,Red_Plus_Dots_2.jpg,left,1374,true,low,NA,NA,NA,NA,NA,NA,NA,false
dFluHLui,3ni0wfppjctpbx4ya2wphz5gism608,3pqmudrv7vjiywe97vzm9qr8067iig,dFluHLui,2020-0188,2020-06-04,14:33:36,15:05:20,NA,incomplete,63,filling,0,1,right,Blue_Circle_Chess_2.jpg,Purple_Triangle_Grid_2.jpg,Green_Plus_Chess_4.jpg,right,1093,true,low,NA,NA,NA,NA,NA,NA,NA,false
dFluHLui,3ni0wfppjctpbx4ya2wphz5gism608,3pqmudrv7vjiywe97vzm9qr8067iig,dFluHLui,2020-0188,2020-06-04,14:33:36,15:05:20,NA,incomplete,64,filling,0,0,left,Blue_Star_Stripes_2.jpg,Purple_Plus_Stripes_3.jpg,Red_Triangle_Chess_2.jpg,left,1100,true,low,NA,NA,NA,NA,NA,NA,NA,false
dFluHLui,3ni0wfppjctpbx4ya2wphz5gism608,3pqmudrv7vjiywe97vzm9qr8067iig,dFluHLui,2020-0188,2020-06-04,14:33:36,15:05:20,NA,incomplete,65,filling,0,1,right,Purple_Star_Dots_3.jpg,Blue_Circle_Grid_3.jpg,Red_Plus_Dots_1.jpg,right,1069,true,low,NA,NA,NA,NA,NA,NA,NA,false
dFluHLui,3ni0wfppjctpbx4ya2wphz5gism608,3pqmudrv7vjiywe97vzm9qr8067iig,dFluHLui,2020-0188,2020-06-04,14:33:36,15:05:20,NA,incomplete,66,filling,0,1,right,Red_Plus_Chess_1.jpg,Green_Star_Stripes_1.jpg,Purple_Triangle_Chess_2.jpg,right,1009,true,low,NA,NA,NA,NA,NA,NA,NA,false
dFluHLui,3ni0wfppjctpbx4ya2wphz5gism608,3pqmudrv7vjiywe97vzm9qr8067iig,dFluHLui,2020-0188,2020-06-04,14:33:36,15:05:20,NA,incomplete,67,filling,0,1,left,Red_Star_Chess_2.jpg,Green_Triangle_Chess_3.jpg,Purple_Circle_Grid_2.jpg,left,1081,true,low,NA,NA,NA,NA,NA,NA,NA,false
dFluHLui,3ni0wfppjctpbx4ya2wphz5gism608,3pqmudrv7vjiywe97vzm9qr8067iig,dFluHLui,2020-0188,2020-06-04,14:33:36,15:05:20,NA,incomplete,68,filling,0,1,right,Red_Triangle_Stripes_2.jpg,Green_Star_Dots_2.jpg,Blue_Circle_Stripes_4.jpg,right,768,true,low,NA,NA,NA,NA,NA,NA,NA,false
dFluHLui,3ni0wfppjctpbx4ya2wphz5gism608,3pqmudrv7vjiywe97vzm9qr8067iig,dFluHLui,2020-0188,2020-06-04,14:33:36,15:05:20,NA,incomplete,69,filling,0,1,right,Purple_Star_Grid_1.jpg,Red_Circle_Chess_1.jpg,Green_Triangle_Grid_3.jpg,right,1230,true,low,NA,NA,NA,NA,NA,NA,NA,false
dFluHLui,3ni0wfppjctpbx4ya2wphz5gism608,3pqmudrv7vjiywe97vzm9qr8067iig,dFluHLui,2020-0188,2020-06-04,14:33:36,15:05:20,NA,incomplete,70,filling,0,1,left,Green_Plus_Chess_3.jpg,Purple_Star_Chess_4.jpg,Red_Triangle_Stripes_3.jpg,left,910,true,low,NA,NA,NA,NA,NA,NA,NA,false
dFluHLui,3ni0wfppjctpbx4ya2wphz5gism608,3pqmudrv7vjiywe97vzm9qr8067iig,dFluHLui,2020-0188,2020-06-04,14:33:36,15:05:20,NA,incomplete,71,filling,0,1,left,Green_Circle_Grid_1.jpg,Purple_Plus_Grid_3.jpg,Blue_Triangle_Stripes_1.jpg,left,1080,true,low,NA,NA,NA,NA,NA,NA,NA,false
dFluHLui,3ni0wfppjctpbx4ya2wphz5gism608,3pqmudrv7vjiywe97vzm9qr8067iig,dFluHLui,2020-0188,2020-06-04,14:33:36,15:05:20,NA,incomplete,72,filling,0,1,right,Red_Plus_Stripes_2.jpg,Green_Circle_Dots_2.jpg,Purple_Triangle_Stripes_4.jpg,right,784,true,low,NA,NA,NA,NA,NA,NA,NA,false
dFluHLui,3ni0wfppjctpbx4ya2wphz5gism608,3pqmudrv7vjiywe97vzm9qr8067iig,dFluHLui,2020-0188,2020-06-04,14:33:36,15:05:20,NA,incomplete,73,filling,0,1,right,Red_Triangle_Grid_3.jpg,Blue_Plus_Stripes_3.jpg,Green_Circle_Grid_4.jpg,right,911,true,low,NA,NA,NA,NA,NA,NA,NA,false
dFluHLui,3ni0wfppjctpbx4ya2wphz5gism608,3pqmudrv7vjiywe97vzm9qr8067iig,dFluHLui,2020-0188,2020-06-04,14:33:36,15:05:20,NA,incomplete,74,filling,0,1,right,Purple_Star_Grid_2.jpg,Red_Plus_Dots_2.jpg,Green_Circle_Grid_4.jpg,left,1034,false,low,NA,NA,NA,NA,NA,NA,NA,false
dFluHLui,3ni0wfppjctpbx4ya2wphz5gism608,3pqmudrv7vjiywe97vzm9qr8067iig,dFluHLui,2020-0188,2020-06-04,14:33:36,15:05:20,NA,incomplete,75,filling,0,1,left,Purple_Triangle_Chess_1.jpg,Red_Plus_Chess_3.jpg,Blue_Circle_Stripes_1.jpg,left,977,true,low,NA,NA,NA,NA,NA,NA,NA,false
dFluHLui,3ni0wfppjctpbx4ya2wphz5gism608,3pqmudrv7vjiywe97vzm9qr8067iig,dFluHLui,2020-0188,2020-06-04,14:33:36,15:05:20,NA,incomplete,76,filling,0,1,left,Blue_Circle_Chess_2.jpg,Red_Plus_Chess_1.jpg,Green_Star_Stripes_2.jpg,left,1002,true,low,NA,NA,NA,NA,NA,NA,NA,false
dFluHLui,3ni0wfppjctpbx4ya2wphz5gism608,3pqmudrv7vjiywe97vzm9qr8067iig,dFluHLui,2020-0188,2020-06-04,14:33:36,15:05:20,NA,incomplete,77,filling,0,0,right,Purple_Triangle_Stripes_2.jpg,Red_Circle_Chess_2.jpg,Blue_Star_Stripes_3.jpg,right,801,true,low,NA,NA,NA,NA,NA,NA,NA,false
dFluHLui,3ni0wfppjctpbx4ya2wphz5gism608,3pqmudrv7vjiywe97vzm9qr8067iig,dFluHLui,2020-0188,2020-06-04,14:33:36,15:05:20,NA,incomplete,78,filling,0,1,right,Red_Circle_Dots_3.jpg,Blue_Triangle_Stripes_3.jpg,Purple_Star_Dots_4.jpg,right,1238,true,low,NA,NA,NA,NA,NA,NA,NA,false
dFluHLui,3ni0wfppjctpbx4ya2wphz5gism608,3pqmudrv7vjiywe97vzm9qr8067iig,dFluHLui,2020-0188,2020-06-04,14:33:36,15:05:20,NA,incomplete,79,filling,0,0,left,Purple_Triangle_Stripes_4.jpg,Blue_Circle_Stripes_2.jpg,Green_Plus_Dots_4.jpg,left,880,true,low,NA,NA,NA,NA,NA,NA,NA,false
dFluHLui,3ni0wfppjctpbx4ya2wphz5gism608,3pqmudrv7vjiywe97vzm9qr8067iig,dFluHLui,2020-0188,2020-06-04,14:33:36,15:05:20,NA,incomplete,80,filling,0,1,left,Red_Star_Stripes_3.jpg,Green_Plus_Stripes_4.jpg,Purple_Triangle_Dots_3.jpg,right,1629,false,low,NA,NA,NA,NA,NA,NA,NA,false
dFluHLui,3ni0wfppjctpbx4ya2wphz5gism608,3pqmudrv7vjiywe97vzm9qr8067iig,dFluHLui,2020-0188,2020-06-04,14:33:36,15:05:20,NA,incomplete,81,filling,0,1,left,Red_Star_Stripes_1.jpg,Blue_Plus_Stripes_2.jpg,Purple_Triangle_Grid_1.jpg,left,1291,true,low,NA,NA,NA,NA,NA,NA,NA,false
dFluHLui,3ni0wfppjctpbx4ya2wphz5gism608,3pqmudrv7vjiywe97vzm9qr8067iig,dFluHLui,2020-0188,2020-06-04,14:33:36,15:05:20,NA,incomplete,82,filling,0,0,right,Red_Star_Chess_3.jpg,Blue_Plus_Stripes_3.jpg,Purple_Circle_Chess_2.jpg,right,1556,true,low,NA,NA,NA,NA,NA,NA,NA,false
dFluHLui,3ni0wfppjctpbx4ya2wphz5gism608,3pqmudrv7vjiywe97vzm9qr8067iig,dFluHLui,2020-0188,2020-06-04,14:33:36,15:05:20,NA,incomplete,83,filling,0,1,right,Red_Triangle_Chess_2.jpg,Green_Star_Grid_2.jpg,Blue_Plus_Chess_1.jpg,right,1430,true,low,NA,NA,NA,NA,NA,NA,NA,false
dFluHLui,3ni0wfppjctpbx4ya2wphz5gism608,3pqmudrv7vjiywe97vzm9qr8067iig,dFluHLui,2020-0188,2020-06-04,14:33:36,15:05:20,NA,incomplete,84,filling,0,1,right,Blue_Plus_Grid_1.jpg,Green_Circle_Dots_1.jpg,Purple_Star_Grid_4.jpg,right,1117,true,low,NA,NA,NA,NA,NA,NA,NA,false
dFluHLui,3ni0wfppjctpbx4ya2wphz5gism608,3pqmudrv7vjiywe97vzm9qr8067iig,dFluHLui,2020-0188,2020-06-04,14:33:36,15:05:20,NA,incomplete,85,filling,0,1,left,Blue_Star_Chess_1.jpg,Red_Plus_Chess_4.jpg,Purple_Circle_Dots_1.jpg,left,896,true,low,NA,NA,NA,NA,NA,NA,NA,false
dFluHLui,3ni0wfppjctpbx4ya2wphz5gism608,3pqmudrv7vjiywe97vzm9qr8067iig,dFluHLui,2020-0188,2020-06-04,14:33:36,15:05:20,NA,incomplete,86,filling,0,1,right,Purple_Circle_Grid_2.jpg,Green_Triangle_Dots_2.jpg,Red_Plus_Grid_1.jpg,right,778,true,low,NA,NA,NA,NA,NA,NA,NA,false
dFluHLui,3ni0wfppjctpbx4ya2wphz5gism608,3pqmudrv7vjiywe97vzm9qr8067iig,dFluHLui,2020-0188,2020-06-04,14:33:36,15:05:20,NA,incomplete,87,filling,0,0,right,Blue_Triangle_Chess_4.jpg,Red_Plus_Grid_4.jpg,Green_Star_Chess_2.jpg,right,1084,true,low,NA,NA,NA,NA,NA,NA,NA,false
dFluHLui,3ni0wfppjctpbx4ya2wphz5gism608,3pqmudrv7vjiywe97vzm9qr8067iig,dFluHLui,2020-0188,2020-06-04,14:33:36,15:05:20,NA,incomplete,88,filling,0,1,left,Blue_Plus_Chess_1.jpg,Purple_Star_Chess_4.jpg,Green_Triangle_Grid_1.jpg,left,944,true,low,NA,NA,NA,NA,NA,NA,NA,false
dFluHLui,3ni0wfppjctpbx4ya2wphz5gism608,3pqmudrv7vjiywe97vzm9qr8067iig,dFluHLui,2020-0188,2020-06-04,14:33:36,15:05:20,NA,incomplete,89,filling,0,1,left,Green_Triangle_Dots_3.jpg,Blue_Star_Dots_4.jpg,Red_Plus_Grid_3.jpg,left,1115,true,low,NA,NA,NA,NA,NA,NA,NA,false
dFluHLui,3ni0wfppjctpbx4ya2wphz5gism608,3pqmudrv7vjiywe97vzm9qr8067iig,dFluHLui,2020-0188,2020-06-04,14:33:36,15:05:20,NA,incomplete,90,number,1,1,left,Blue_Star_Dots_4.jpg,Green_Plus_Stripes_4.jpg,Purple_Circle_Dots_2.jpg,right,813,false,low,NA,NA,NA,NA,NA,NA,NA,false
dFluHLui,3ni0wfppjctpbx4ya2wphz5gism608,3pqmudrv7vjiywe97vzm9qr8067iig,dFluHLui,2020-0188,2020-06-04,14:33:36,15:05:20,NA,incomplete,91,number,1,1,right,Blue_Star_Grid_1.jpg,Purple_Triangle_Grid_4.jpg,Red_Circle_Stripes_1.jpg,left,974,false,low,NA,NA,NA,NA,NA,NA,NA,false
dFluHLui,3ni0wfppjctpbx4ya2wphz5gism608,3pqmudrv7vjiywe97vzm9qr8067iig,dFluHLui,2020-0188,2020-06-04,14:33:36,15:05:20,NA,incomplete,92,number,1,1,left,Red_Star_Chess_3.jpg,Green_Triangle_Dots_3.jpg,Blue_Plus_Chess_1.jpg,right,1205,false,low,NA,NA,NA,NA,NA,NA,NA,false
dFluHLui,3ni0wfppjctpbx4ya2wphz5gism608,3pqmudrv7vjiywe97vzm9qr8067iig,dFluHLui,2020-0188,2020-06-04,14:33:36,15:05:20,NA,incomplete,93,number,1,1,right,Red_Star_Chess_1.jpg,Blue_Triangle_Chess_3.jpg,Green_Plus_Grid_1.jpg,right,916,true,low,NA,NA,NA,NA,NA,NA,NA,false
dFluHLui,3ni0wfppjctpbx4ya2wphz5gism608,3pqmudrv7vjiywe97vzm9qr8067iig,dFluHLui,2020-0188,2020-06-04,14:33:36,15:05:20,NA,incomplete,94,number,1,0,left,Red_Circle_Dots_3.jpg,Blue_Plus_Stripes_3.jpg,Purple_Triangle_Dots_4.jpg,left,1216,true,low,NA,NA,NA,NA,NA,NA,NA,false
dFluHLui,3ni0wfppjctpbx4ya2wphz5gism608,3pqmudrv7vjiywe97vzm9qr8067iig,dFluHLui,2020-0188,2020-06-04,14:33:36,15:05:20,NA,incomplete,95,number,1,1,right,Green_Triangle_Dots_2.jpg,Blue_Plus_Dots_4.jpg,Red_Star_Grid_2.jpg,right,1263,true,low,NA,NA,NA,NA,NA,NA,NA,false
dFluHLui,3ni0wfppjctpbx4ya2wphz5gism608,3pqmudrv7vjiywe97vzm9qr8067iig,dFluHLui,2020-0188,2020-06-04,14:33:36,15:05:20,NA,incomplete,96,number,1,0,right,Red_Star_Grid_1.jpg,Green_Circle_Grid_3.jpg,Blue_Plus_Dots_1.jpg,right,789,true,low,NA,NA,NA,NA,NA,NA,NA,false
dFluHLui,3ni0wfppjctpbx4ya2wphz5gism608,3pqmudrv7vjiywe97vzm9qr8067iig,dFluHLui,2020-0188,2020-06-04,14:33:36,15:05:20,NA,incomplete,97,number,1,1,right,Purple_Triangle_Stripes_1.jpg,Blue_Circle_Stripes_2.jpg,Green_Star_Chess_1.jpg,right,1181,true,low,NA,NA,NA,NA,NA,NA,NA,false
dFluHLui,3ni0wfppjctpbx4ya2wphz5gism608,3pqmudrv7vjiywe97vzm9qr8067iig,dFluHLui,2020-0188,2020-06-04,14:33:36,15:05:20,NA,incomplete,98,number,1,0,left,Red_Circle_Stripes_2.jpg,Purple_Star_Dots_2.jpg,Green_Plus_Stripes_1.jpg,left,878,true,low,NA,NA,NA,NA,NA,NA,NA,false
dFluHLui,3ni0wfppjctpbx4ya2wphz5gism608,3pqmudrv7vjiywe97vzm9qr8067iig,dFluHLui,2020-0188,2020-06-04,14:33:36,15:05:20,NA,incomplete,99,number,1,0,right,Green_Circle_Stripes_3.jpg,Purple_Star_Stripes_2.jpg,Red_Plus_Grid_3.jpg,right,1034,true,low,NA,NA,NA,NA,NA,NA,NA,false
dFluHLui,3ni0wfppjctpbx4ya2wphz5gism608,3pqmudrv7vjiywe97vzm9qr8067iig,dFluHLui,2020-0188,2020-06-04,14:33:36,15:05:20,NA,incomplete,100,number,1,1,right,Blue_Triangle_Chess_3.jpg,Green_Circle_Chess_4.jpg,Purple_Star_Grid_3.jpg,left,1281,false,low,NA,NA,NA,NA,NA,NA,NA,false
dFluHLui,3ni0wfppjctpbx4ya2wphz5gism608,3pqmudrv7vjiywe97vzm9qr8067iig,dFluHLui,2020-0188,2020-06-04,14:33:36,15:05:20,NA,incomplete,101,number,1,1,left,Green_Triangle_Chess_3.jpg,Blue_Star_Grid_3.jpg,Red_Plus_Chess_2.jpg,left,1373,true,low,NA,NA,NA,NA,NA,NA,NA,false
dFluHLui,3ni0wfppjctpbx4ya2wphz5gism608,3pqmudrv7vjiywe97vzm9qr8067iig,dFluHLui,2020-0188,2020-06-04,14:33:36,15:05:20,NA,incomplete,102,number,1,1,left,Purple_Triangle_Grid_2.jpg,Blue_Plus_Stripes_2.jpg,Red_Star_Grid_1.jpg,left,998,true,low,NA,NA,NA,NA,NA,NA,NA,false
dFluHLui,3ni0wfppjctpbx4ya2wphz5gism608,3pqmudrv7vjiywe97vzm9qr8067iig,dFluHLui,2020-0188,2020-06-04,14:33:36,15:05:20,NA,incomplete,103,number,1,1,right,Purple_Star_Grid_1.jpg,Red_Plus_Grid_4.jpg,Green_Triangle_Stripes_1.jpg,right,670,true,low,NA,NA,NA,NA,NA,NA,NA,false
dFluHLui,3ni0wfppjctpbx4ya2wphz5gism608,3pqmudrv7vjiywe97vzm9qr8067iig,dFluHLui,2020-0188,2020-06-04,14:33:36,15:05:20,NA,incomplete,104,number,1,1,left,Blue_Plus_Stripes_4.jpg,Purple_Star_Dots_4.jpg,Red_Triangle_Stripes_2.jpg,left,819,true,low,NA,NA,NA,NA,NA,NA,NA,false
dFluHLui,3ni0wfppjctpbx4ya2wphz5gism608,3pqmudrv7vjiywe97vzm9qr8067iig,dFluHLui,2020-0188,2020-06-04,14:33:36,15:05:20,NA,incomplete,105,number,1,1,left,Red_Triangle_Stripes_2.jpg,Purple_Plus_Dots_2.jpg,Blue_Star_Stripes_4.jpg,left,978,true,low,NA,NA,NA,NA,NA,NA,NA,false
dFluHLui,3ni0wfppjctpbx4ya2wphz5gism608,3pqmudrv7vjiywe97vzm9qr8067iig,dFluHLui,2020-0188,2020-06-04,14:33:36,15:05:20,NA,incomplete,106,number,1,0,left,Purple_Star_Dots_1.jpg,Blue_Circle_Stripes_1.jpg,Green_Triangle_Dots_2.jpg,left,1003,true,low,NA,NA,NA,NA,NA,NA,NA,false
dFluHLui,3ni0wfppjctpbx4ya2wphz5gism608,3pqmudrv7vjiywe97vzm9qr8067iig,dFluHLui,2020-0188,2020-06-04,14:33:36,15:05:20,NA,incomplete,107,number,1,1,left,Purple_Star_Dots_2.jpg,Green_Triangle_Stripes_2.jpg,Blue_Circle_Dots_3.jpg,right,1378,false,low,NA,NA,NA,NA,NA,NA,NA,false
dFluHLui,3ni0wfppjctpbx4ya2wphz5gism608,3pqmudrv7vjiywe97vzm9qr8067iig,dFluHLui,2020-0188,2020-06-04,14:33:36,15:05:20,NA,incomplete,108,number,1,1,right,Red_Plus_Dots_4.jpg,Blue_Circle_Dots_3.jpg,Purple_Triangle_Chess_4.jpg,right,1243,true,low,NA,NA,NA,NA,NA,NA,NA,false
dFluHLui,3ni0wfppjctpbx4ya2wphz5gism608,3pqmudrv7vjiywe97vzm9qr8067iig,dFluHLui,2020-0188,2020-06-04,14:33:36,15:05:20,NA,incomplete,109,number,1,1,left,Red_Plus_Stripes_3.jpg,Blue_Star_Dots_3.jpg,Purple_Triangle_Stripes_1.jpg,left,1048,true,low,NA,NA,NA,NA,NA,NA,NA,false
dFluHLui,3ni0wfppjctpbx4ya2wphz5gism608,3pqmudrv7vjiywe97vzm9qr8067iig,dFluHLui,2020-0188,2020-06-04,14:33:36,15:05:20,NA,incomplete,110,number,1,1,left,Blue_Star_Grid_4.jpg,Red_Circle_Stripes_4.jpg,Purple_Plus_Grid_2.jpg,left,812,true,low,NA,NA,NA,NA,NA,NA,NA,false
dFluHLui,3ni0wfppjctpbx4ya2wphz5gism608,3pqmudrv7vjiywe97vzm9qr8067iig,dFluHLui,2020-0188,2020-06-04,14:33:36,15:05:20,NA,incomplete,111,number,1,1,right,Red_Circle_Grid_3.jpg,Purple_Plus_Grid_1.jpg,Green_Star_Chess_3.jpg,right,703,true,low,NA,NA,NA,NA,NA,NA,NA,false
dFluHLui,3ni0wfppjctpbx4ya2wphz5gism608,3pqmudrv7vjiywe97vzm9qr8067iig,dFluHLui,2020-0188,2020-06-04,14:33:36,15:05:20,NA,incomplete,112,number,1,1,right,Red_Circle_Dots_3.jpg,Blue_Triangle_Dots_2.jpg,Purple_Star_Stripes_3.jpg,right,721,true,low,NA,NA,NA,NA,NA,NA,NA,false
dFluHLui,3ni0wfppjctpbx4ya2wphz5gism608,3pqmudrv7vjiywe97vzm9qr8067iig,dFluHLui,2020-0188,2020-06-04,14:33:36,15:05:20,NA,incomplete,113,number,1,1,right,Red_Star_Chess_2.jpg,Purple_Circle_Chess_4.jpg,Blue_Triangle_Dots_2.jpg,right,952,true,low,NA,NA,NA,NA,NA,NA,NA,false
dFluHLui,3ni0wfppjctpbx4ya2wphz5gism608,3pqmudrv7vjiywe97vzm9qr8067iig,dFluHLui,2020-0188,2020-06-04,14:33:36,15:05:20,NA,incomplete,114,number,1,1,right,Red_Plus_Stripes_1.jpg,Green_Circle_Stripes_3.jpg,Blue_Star_Dots_1.jpg,right,1214,true,low,NA,NA,NA,NA,NA,NA,NA,false
dFluHLui,3ni0wfppjctpbx4ya2wphz5gism608,3pqmudrv7vjiywe97vzm9qr8067iig,dFluHLui,2020-0188,2020-06-04,14:33:36,15:05:20,NA,incomplete,115,number,1,1,left,Red_Plus_Stripes_2.jpg,Purple_Circle_Chess_2.jpg,Blue_Star_Stripes_4.jpg,left,813,true,low,NA,NA,NA,NA,NA,NA,NA,false
dFluHLui,3ni0wfppjctpbx4ya2wphz5gism608,3pqmudrv7vjiywe97vzm9qr8067iig,dFluHLui,2020-0188,2020-06-04,14:33:36,15:05:20,NA,incomplete,116,number,1,0,right,Purple_Star_Dots_1.jpg,Red_Circle_Dots_2.jpg,Blue_Plus_Grid_1.jpg,right,1181,true,low,NA,NA,NA,NA,NA,NA,NA,false
dFluHLui,3ni0wfppjctpbx4ya2wphz5gism608,3pqmudrv7vjiywe97vzm9qr8067iig,dFluHLui,2020-0188,2020-06-04,14:33:36,15:05:20,NA,incomplete,117,number,1,0,left,Blue_Triangle_Chess_3.jpg,Green_Star_Dots_3.jpg,Red_Plus_Chess_1.jpg,left,911,true,low,NA,NA,NA,NA,NA,NA,NA,false
dFluHLui,3ni0wfppjctpbx4ya2wphz5gism608,3pqmudrv7vjiywe97vzm9qr8067iig,dFluHLui,2020-0188,2020-06-04,14:33:36,15:05:20,NA,incomplete,118,number,1,0,left,Green_Plus_Stripes_3.jpg,Red_Star_Chess_3.jpg,Purple_Triangle_Stripes_2.jpg,right,1416,false,low,NA,NA,NA,NA,NA,NA,NA,false
dFluHLui,3ni0wfppjctpbx4ya2wphz5gism608,3pqmudrv7vjiywe97vzm9qr8067iig,dFluHLui,2020-0188,2020-06-04,14:33:36,15:05:20,NA,incomplete,119,number,1,1,left,Blue_Plus_Chess_3.jpg,Purple_Star_Stripes_3.jpg,Red_Circle_Chess_4.jpg,right,1199,false,low,NA,NA,NA,NA,NA,NA,NA,false
dFluHLui,3ni0wfppjctpbx4ya2wphz5gism608,3pqmudrv7vjiywe97vzm9qr8067iig,dFluHLui,2020-0188,2020-06-04,14:33:36,15:05:20,NA,incomplete,120,gender,2,1,left,A_M_04.jpg,C_M_10.jpg,A_F_06.jpg,NA,NA,NA,low,NA,NA,NA,NA,NA,NA,NA,false
dFluHLui,3ni0wfppjctpbx4ya2wphz5gism608,3pqmudrv7vjiywe97vzm9qr8067iig,dFluHLui,2020-0188,2020-06-04,14:33:36,15:05:20,NA,incomplete,121,gender,2,1,right,A_M_05.jpg,A_F_15.jpg,C_M_06.jpg,right,1716,true,low,NA,NA,NA,NA,NA,NA,NA,false
dFluHLui,3ni0wfppjctpbx4ya2wphz5gism608,3pqmudrv7vjiywe97vzm9qr8067iig,dFluHLui,2020-0188,2020-06-04,14:33:36,15:05:20,NA,incomplete,122,gender,2,1,left,A_F_10.jpg,C_F_09.jpg,A_M_13.jpg,left,1201,true,low,NA,NA,NA,NA,NA,NA,NA,false
dFluHLui,3ni0wfppjctpbx4ya2wphz5gism608,3pqmudrv7vjiywe97vzm9qr8067iig,dFluHLui,2020-0188,2020-06-04,14:33:36,15:05:20,NA,incomplete,123,gender,2,0,left,C_M_04.jpg,A_M_16.jpg,C_F_05.jpg,left,1294,true,low,NA,NA,NA,NA,NA,NA,NA,false
dFluHLui,3ni0wfppjctpbx4ya2wphz5gism608,3pqmudrv7vjiywe97vzm9qr8067iig,dFluHLui,2020-0188,2020-06-04,14:33:36,15:05:20,NA,incomplete,124,gender,2,1,right,C_F_13.jpg,C_M_14.jpg,A_F_15.jpg,right,1034,true,low,NA,NA,NA,NA,NA,NA,NA,false
dFluHLui,3ni0wfppjctpbx4ya2wphz5gism608,3pqmudrv7vjiywe97vzm9qr8067iig,dFluHLui,2020-0188,2020-06-04,14:33:36,15:05:20,NA,incomplete,125,gender,2,1,right,C_F_01.jpg,C_M_02.jpg,A_F_08.jpg,right,897,true,low,NA,NA,NA,NA,NA,NA,NA,false
dFluHLui,3ni0wfppjctpbx4ya2wphz5gism608,3pqmudrv7vjiywe97vzm9qr8067iig,dFluHLui,2020-0188,2020-06-04,14:33:36,15:05:20,NA,incomplete,126,gender,2,0,right,A_M_14.jpg,A_F_09.jpg,C_M_13.jpg,left,781,false,low,NA,NA,NA,NA,NA,NA,NA,false
dFluHLui,3ni0wfppjctpbx4ya2wphz5gism608,3pqmudrv7vjiywe97vzm9qr8067iig,dFluHLui,2020-0188,2020-06-04,14:33:36,15:05:20,NA,incomplete,127,gender,2,1,left,A_F_06.jpg,C_F_13.jpg,A_M_05.jpg,right,1085,false,low,NA,NA,NA,NA,NA,NA,NA,false
dFluHLui,3ni0wfppjctpbx4ya2wphz5gism608,3pqmudrv7vjiywe97vzm9qr8067iig,dFluHLui,2020-0188,2020-06-04,14:33:36,15:05:20,NA,incomplete,128,gender,2,1,left,C_F_03.jpg,A_F_13.jpg,C_M_04.jpg,left,1041,true,low,NA,NA,NA,NA,NA,NA,NA,false
dFluHLui,3ni0wfppjctpbx4ya2wphz5gism608,3pqmudrv7vjiywe97vzm9qr8067iig,dFluHLui,2020-0188,2020-06-04,14:33:36,15:05:20,NA,incomplete,129,gender,2,0,right,C_F_05.jpg,C_M_10.jpg,A_F_03.jpg,right,857,true,low,NA,NA,NA,NA,NA,NA,NA,false
dFluHLui,3ni0wfppjctpbx4ya2wphz5gism608,3pqmudrv7vjiywe97vzm9qr8067iig,dFluHLui,2020-0188,2020-06-04,14:33:36,15:05:20,NA,incomplete,130,gender,2,1,left,A_M_14.jpg,C_M_05.jpg,A_F_13.jpg,left,1013,true,low,NA,NA,NA,NA,NA,NA,NA,false
dFluHLui,3ni0wfppjctpbx4ya2wphz5gism608,3pqmudrv7vjiywe97vzm9qr8067iig,dFluHLui,2020-0188,2020-06-04,14:33:36,15:05:20,NA,incomplete,131,gender,2,1,left,A_F_04.jpg,C_F_05.jpg,A_M_11.jpg,left,973,true,low,NA,NA,NA,NA,NA,NA,NA,false
dFluHLui,3ni0wfppjctpbx4ya2wphz5gism608,3pqmudrv7vjiywe97vzm9qr8067iig,dFluHLui,2020-0188,2020-06-04,14:33:36,15:05:20,NA,incomplete,132,gender,2,1,right,C_M_08.jpg,C_F_06.jpg,A_M_04.jpg,right,1285,true,low,NA,NA,NA,NA,NA,NA,NA,false
dFluHLui,3ni0wfppjctpbx4ya2wphz5gism608,3pqmudrv7vjiywe97vzm9qr8067iig,dFluHLui,2020-0188,2020-06-04,14:33:36,15:05:20,NA,incomplete,133,gender,2,1,left,A_M_09.jpg,C_M_02.jpg,A_F_05.jpg,left,789,true,low,NA,NA,NA,NA,NA,NA,NA,false
dFluHLui,3ni0wfppjctpbx4ya2wphz5gism608,3pqmudrv7vjiywe97vzm9qr8067iig,dFluHLui,2020-0188,2020-06-04,14:33:36,15:05:20,NA,incomplete,134,gender,2,1,left,C_M_10.jpg,A_M_09.jpg,C_F_15.jpg,left,929,true,low,NA,NA,NA,NA,NA,NA,NA,false
dFluHLui,3ni0wfppjctpbx4ya2wphz5gism608,3pqmudrv7vjiywe97vzm9qr8067iig,dFluHLui,2020-0188,2020-06-04,14:33:36,15:05:20,NA,incomplete,135,gender,2,1,left,A_F_10.jpg,C_F_04.jpg,A_M_14.jpg,left,989,true,low,NA,NA,NA,NA,NA,NA,NA,false
dFluHLui,3ni0wfppjctpbx4ya2wphz5gism608,3pqmudrv7vjiywe97vzm9qr8067iig,dFluHLui,2020-0188,2020-06-04,14:33:36,15:05:20,NA,incomplete,136,gender,2,1,right,A_F_12.jpg,A_M_03.jpg,C_F_09.jpg,right,948,true,low,NA,NA,NA,NA,NA,NA,NA,false
dFluHLui,3ni0wfppjctpbx4ya2wphz5gism608,3pqmudrv7vjiywe97vzm9qr8067iig,dFluHLui,2020-0188,2020-06-04,14:33:36,15:05:20,NA,incomplete,137,gender,2,1,right,C_M_09.jpg,C_F_14.jpg,A_M_06.jpg,right,1391,true,low,NA,NA,NA,NA,NA,NA,NA,false
dFluHLui,3ni0wfppjctpbx4ya2wphz5gism608,3pqmudrv7vjiywe97vzm9qr8067iig,dFluHLui,2020-0188,2020-06-04,14:33:36,15:05:20,NA,incomplete,138,gender,2,1,right,A_M_02.jpg,A_F_03.jpg,C_M_13.jpg,right,1014,true,low,NA,NA,NA,NA,NA,NA,NA,false
dFluHLui,3ni0wfppjctpbx4ya2wphz5gism608,3pqmudrv7vjiywe97vzm9qr8067iig,dFluHLui,2020-0188,2020-06-04,14:33:36,15:05:20,NA,incomplete,139,gender,2,1,right,A_F_08.jpg,A_M_16.jpg,C_F_07.jpg,right,942,true,low,NA,NA,NA,NA,NA,NA,NA,false
dFluHLui,3ni0wfppjctpbx4ya2wphz5gism608,3pqmudrv7vjiywe97vzm9qr8067iig,dFluHLui,2020-0188,2020-06-04,14:33:36,15:05:20,NA,incomplete,140,race,3,1,left,A_M_13.jpg,A_F_05.jpg,C_M_15.jpg,right,1526,false,low,NA,NA,NA,NA,NA,NA,NA,false
dFluHLui,3ni0wfppjctpbx4ya2wphz5gism608,3pqmudrv7vjiywe97vzm9qr8067iig,dFluHLui,2020-0188,2020-06-04,14:33:36,15:05:20,NA,incomplete,141,race,3,0,left,A_F_13.jpg,A_M_15.jpg,C_F_09.jpg,right,1257,false,low,NA,NA,NA,NA,NA,NA,NA,false
dFluHLui,3ni0wfppjctpbx4ya2wphz5gism608,3pqmudrv7vjiywe97vzm9qr8067iig,dFluHLui,2020-0188,2020-06-04,14:33:36,15:05:20,NA,incomplete,142,race,3,1,left,C_F_13.jpg,C_M_15.jpg,A_F_09.jpg,right,758,false,low,NA,NA,NA,NA,NA,NA,NA,false
dFluHLui,3ni0wfppjctpbx4ya2wphz5gism608,3pqmudrv7vjiywe97vzm9qr8067iig,dFluHLui,2020-0188,2020-06-04,14:33:36,15:05:20,NA,incomplete,143,race,3,0,left,C_F_09.jpg,C_M_14.jpg,A_F_07.jpg,right,1831,false,low,NA,NA,NA,NA,NA,NA,NA,false
dFluHLui,3ni0wfppjctpbx4ya2wphz5gism608,3pqmudrv7vjiywe97vzm9qr8067iig,dFluHLui,2020-0188,2020-06-04,14:33:36,15:05:20,NA,incomplete,144,race,3,1,right,A_F_05.jpg,C_F_02.jpg,A_M_10.jpg,right,1565,true,low,NA,NA,NA,NA,NA,NA,NA,false
dFluHLui,3ni0wfppjctpbx4ya2wphz5gism608,3pqmudrv7vjiywe97vzm9qr8067iig,dFluHLui,2020-0188,2020-06-04,14:33:36,15:05:20,NA,incomplete,145,race,3,1,left,C_M_08.jpg,C_F_03.jpg,A_M_15.jpg,left,1549,true,low,NA,NA,NA,NA,NA,NA,NA,false
dFluHLui,3ni0wfppjctpbx4ya2wphz5gism608,3pqmudrv7vjiywe97vzm9qr8067iig,dFluHLui,2020-0188,2020-06-04,14:33:36,15:05:20,NA,incomplete,146,race,3,1,right,C_M_01.jpg,A_M_12.jpg,C_F_04.jpg,right,1215,true,low,NA,NA,NA,NA,NA,NA,NA,false
dFluHLui,3ni0wfppjctpbx4ya2wphz5gism608,3pqmudrv7vjiywe97vzm9qr8067iig,dFluHLui,2020-0188,2020-06-04,14:33:36,15:05:20,NA,incomplete,147,race,3,1,left,A_F_07.jpg,A_M_13.jpg,C_F_15.jpg,left,909,true,low,NA,NA,NA,NA,NA,NA,NA,false
dFluHLui,3ni0wfppjctpbx4ya2wphz5gism608,3pqmudrv7vjiywe97vzm9qr8067iig,dFluHLui,2020-0188,2020-06-04,14:33:36,15:05:20,NA,incomplete,148,race,3,1,right,A_M_15.jpg,C_M_09.jpg,A_F_03.jpg,right,792,true,low,NA,NA,NA,NA,NA,NA,NA,false
dFluHLui,3ni0wfppjctpbx4ya2wphz5gism608,3pqmudrv7vjiywe97vzm9qr8067iig,dFluHLui,2020-0188,2020-06-04,14:33:36,15:05:20,NA,incomplete,149,race,3,1,right,A_M_16.jpg,C_M_10.jpg,A_F_11.jpg,right,1337,true,low,NA,NA,NA,NA,NA,NA,NA,false
dFluHLui,3ni0wfppjctpbx4ya2wphz5gism608,3pqmudrv7vjiywe97vzm9qr8067iig,dFluHLui,2020-0188,2020-06-04,14:33:36,15:05:20,NA,incomplete,150,race,3,1,left,C_F_12.jpg,C_M_06.jpg,A_F_10.jpg,left,1010,true,low,NA,NA,NA,NA,NA,NA,NA,false
dFluHLui,3ni0wfppjctpbx4ya2wphz5gism608,3pqmudrv7vjiywe97vzm9qr8067iig,dFluHLui,2020-0188,2020-06-04,14:33:36,15:05:20,NA,incomplete,151,race,3,1,left,C_M_08.jpg,C_F_02.jpg,A_M_07.jpg,left,1081,true,low,NA,NA,NA,NA,NA,NA,NA,false
dFluHLui,3ni0wfppjctpbx4ya2wphz5gism608,3pqmudrv7vjiywe97vzm9qr8067iig,dFluHLui,2020-0188,2020-06-04,14:33:36,15:05:20,NA,incomplete,152,race,3,1,right,C_F_06.jpg,A_F_05.jpg,C_M_09.jpg,right,928,true,low,NA,NA,NA,NA,NA,NA,NA,false
dFluHLui,3ni0wfppjctpbx4ya2wphz5gism608,3pqmudrv7vjiywe97vzm9qr8067iig,dFluHLui,2020-0188,2020-06-04,14:33:36,15:05:20,NA,incomplete,153,race,3,1,left,A_M_12.jpg,A_F_11.jpg,C_M_16.jpg,left,1286,true,low,NA,NA,NA,NA,NA,NA,NA,false
dFluHLui,3ni0wfppjctpbx4ya2wphz5gism608,3pqmudrv7vjiywe97vzm9qr8067iig,dFluHLui,2020-0188,2020-06-04,14:33:36,15:05:20,NA,incomplete,154,race,3,1,right,C_F_10.jpg,A_F_15.jpg,C_M_09.jpg,left,1428,false,low,NA,NA,NA,NA,NA,NA,NA,false
dFluHLui,3ni0wfppjctpbx4ya2wphz5gism608,3pqmudrv7vjiywe97vzm9qr8067iig,dFluHLui,2020-0188,2020-06-04,14:33:36,15:05:20,NA,incomplete,155,race,3,0,left,A_F_01.jpg,A_M_04.jpg,C_F_10.jpg,right,874,false,low,NA,NA,NA,NA,NA,NA,NA,false
dFluHLui,3ni0wfppjctpbx4ya2wphz5gism608,3pqmudrv7vjiywe97vzm9qr8067iig,dFluHLui,2020-0188,2020-06-04,14:33:36,15:05:20,NA,incomplete,156,race,3,1,right,C_M_12.jpg,A_M_03.jpg,C_F_06.jpg,left,1254,false,low,NA,NA,NA,NA,NA,NA,NA,false
dFluHLui,3ni0wfppjctpbx4ya2wphz5gism608,3pqmudrv7vjiywe97vzm9qr8067iig,dFluHLui,2020-0188,2020-06-04,14:33:36,15:05:20,NA,incomplete,157,race,3,1,right,C_M_12.jpg,A_M_15.jpg,C_F_14.jpg,left,853,false,low,NA,NA,NA,NA,NA,NA,NA,false
dFluHLui,3ni0wfppjctpbx4ya2wphz5gism608,3pqmudrv7vjiywe97vzm9qr8067iig,dFluHLui,2020-0188,2020-06-04,14:33:36,15:05:20,NA,incomplete,158,race,3,1,right,A_F_07.jpg,C_F_10.jpg,A_M_09.jpg,right,834,true,low,NA,NA,NA,NA,NA,NA,NA,false
dFluHLui,3ni0wfppjctpbx4ya2wphz5gism608,3pqmudrv7vjiywe97vzm9qr8067iig,dFluHLui,2020-0188,2020-06-04,14:33:36,15:05:20,NA,incomplete,159,race,3,1,left,C_M_16.jpg,C_F_06.jpg,A_M_07.jpg,left,1137,true,low,NA,NA,NA,NA,NA,NA,NA,false
dFluHLui,3ni0wfppjctpbx4ya2wphz5gism608,3pqmudrv7vjiywe97vzm9qr8067iig,dFluHLui,2020-0188,2020-06-04,14:33:36,15:05:20,NA,incomplete,160,gender,2,0,left,A_F_03.jpg,C_F_07.jpg,A_M_05.jpg,right,741,false,low,NA,NA,NA,NA,NA,NA,NA,false
dFluHLui,3ni0wfppjctpbx4ya2wphz5gism608,3pqmudrv7vjiywe97vzm9qr8067iig,dFluHLui,2020-0188,2020-06-04,14:33:36,15:05:20,NA,incomplete,161,gender,2,1,left,A_F_13.jpg,C_F_09.jpg,A_M_06.jpg,right,853,false,low,NA,NA,NA,NA,NA,NA,NA,false
dFluHLui,3ni0wfppjctpbx4ya2wphz5gism608,3pqmudrv7vjiywe97vzm9qr8067iig,dFluHLui,2020-0188,2020-06-04,14:33:36,15:05:20,NA,incomplete,162,gender,2,1,right,C_F_15.jpg,C_M_13.jpg,A_F_06.jpg,right,1285,true,low,NA,NA,NA,NA,NA,NA,NA,false
dFluHLui,3ni0wfppjctpbx4ya2wphz5gism608,3pqmudrv7vjiywe97vzm9qr8067iig,dFluHLui,2020-0188,2020-06-04,14:33:36,15:05:20,NA,incomplete,163,gender,2,1,left,C_F_03.jpg,A_F_12.jpg,C_M_13.jpg,left,1694,true,low,NA,NA,NA,NA,NA,NA,NA,false
dFluHLui,3ni0wfppjctpbx4ya2wphz5gism608,3pqmudrv7vjiywe97vzm9qr8067iig,dFluHLui,2020-0188,2020-06-04,14:33:36,15:05:20,NA,incomplete,164,gender,2,1,left,A_M_02.jpg,C_M_10.jpg,A_F_11.jpg,left,1003,true,low,NA,NA,NA,NA,NA,NA,NA,false
dFluHLui,3ni0wfppjctpbx4ya2wphz5gism608,3pqmudrv7vjiywe97vzm9qr8067iig,dFluHLui,2020-0188,2020-06-04,14:33:36,15:05:20,NA,incomplete,165,gender,2,1,left,A_M_14.jpg,C_M_02.jpg,A_F_13.jpg,left,676,true,low,NA,NA,NA,NA,NA,NA,NA,false
dFluHLui,3ni0wfppjctpbx4ya2wphz5gism608,3pqmudrv7vjiywe97vzm9qr8067iig,dFluHLui,2020-0188,2020-06-04,14:33:36,15:05:20,NA,incomplete,166,gender,2,0,right,C_F_06.jpg,C_M_09.jpg,A_F_07.jpg,right,1307,true,low,NA,NA,NA,NA,NA,NA,NA,false
dFluHLui,3ni0wfppjctpbx4ya2wphz5gism608,3pqmudrv7vjiywe97vzm9qr8067iig,dFluHLui,2020-0188,2020-06-04,14:33:36,15:05:20,NA,incomplete,167,gender,2,1,right,C_F_04.jpg,C_M_16.jpg,A_F_02.jpg,right,738,true,low,NA,NA,NA,NA,NA,NA,NA,false
dFluHLui,3ni0wfppjctpbx4ya2wphz5gism608,3pqmudrv7vjiywe97vzm9qr8067iig,dFluHLui,2020-0188,2020-06-04,14:33:36,15:05:20,NA,incomplete,168,gender,2,0,left,A_F_05.jpg,C_F_10.jpg,A_M_15.jpg,left,789,true,low,NA,NA,NA,NA,NA,NA,NA,false
dFluHLui,3ni0wfppjctpbx4ya2wphz5gism608,3pqmudrv7vjiywe97vzm9qr8067iig,dFluHLui,2020-0188,2020-06-04,14:33:36,15:05:20,NA,incomplete,169,gender,2,1,left,C_M_04.jpg,A_M_06.jpg,C_F_03.jpg,right,1253,false,low,NA,NA,NA,NA,NA,NA,NA,false
dFluHLui,3ni0wfppjctpbx4ya2wphz5gism608,3pqmudrv7vjiywe97vzm9qr8067iig,dFluHLui,2020-0188,2020-06-04,14:33:36,15:05:20,NA,incomplete,170,gender,2,1,left,C_F_07.jpg,A_F_14.jpg,C_M_11.jpg,left,1745,true,low,NA,NA,NA,NA,NA,NA,NA,false
dFluHLui,3ni0wfppjctpbx4ya2wphz5gism608,3pqmudrv7vjiywe97vzm9qr8067iig,dFluHLui,2020-0188,2020-06-04,14:33:36,15:05:20,NA,incomplete,171,gender,2,1,right,A_F_10.jpg,A_M_08.jpg,C_F_02.jpg,right,1707,true,low,NA,NA,NA,NA,NA,NA,NA,false
dFluHLui,3ni0wfppjctpbx4ya2wphz5gism608,3pqmudrv7vjiywe97vzm9qr8067iig,dFluHLui,2020-0188,2020-06-04,14:33:36,15:05:20,NA,incomplete,172,gender,2,1,right,C_M_10.jpg,C_F_05.jpg,A_M_08.jpg,right,917,true,low,NA,NA,NA,NA,NA,NA,NA,false
dFluHLui,3ni0wfppjctpbx4ya2wphz5gism608,3pqmudrv7vjiywe97vzm9qr8067iig,dFluHLui,2020-0188,2020-06-04,14:33:36,15:05:20,NA,incomplete,173,gender,2,1,right,A_F_14.jpg,A_M_01.jpg,C_F_12.jpg,right,976,true,low,NA,NA,NA,NA,NA,NA,NA,false
dFluHLui,3ni0wfppjctpbx4ya2wphz5gism608,3pqmudrv7vjiywe97vzm9qr8067iig,dFluHLui,2020-0188,2020-06-04,14:33:36,15:05:20,NA,incomplete,174,gender,2,1,right,C_F_13.jpg,C_M_09.jpg,A_F_15.jpg,right,650,true,low,NA,NA,NA,NA,NA,NA,NA,false
dFluHLui,3ni0wfppjctpbx4ya2wphz5gism608,3pqmudrv7vjiywe97vzm9qr8067iig,dFluHLui,2020-0188,2020-06-04,14:33:36,15:05:20,NA,incomplete,175,gender,2,0,right,C_M_09.jpg,C_F_16.jpg,A_M_15.jpg,right,960,true,low,NA,NA,NA,NA,NA,NA,NA,false
dFluHLui,3ni0wfppjctpbx4ya2wphz5gism608,3pqmudrv7vjiywe97vzm9qr8067iig,dFluHLui,2020-0188,2020-06-04,14:33:36,15:05:20,NA,incomplete,176,gender,2,1,right,C_F_07.jpg,C_M_15.jpg,A_F_14.jpg,right,873,true,low,NA,NA,NA,NA,NA,NA,NA,false
dFluHLui,3ni0wfppjctpbx4ya2wphz5gism608,3pqmudrv7vjiywe97vzm9qr8067iig,dFluHLui,2020-0188,2020-06-04,14:33:36,15:05:20,NA,incomplete,177,gender,2,1,left,A_F_15.jpg,C_F_04.jpg,A_M_11.jpg,left,982,true,low,NA,NA,NA,NA,NA,NA,NA,false
dFluHLui,3ni0wfppjctpbx4ya2wphz5gism608,3pqmudrv7vjiywe97vzm9qr8067iig,dFluHLui,2020-0188,2020-06-04,14:33:36,15:05:20,NA,incomplete,178,gender,2,0,right,A_M_15.jpg,A_F_08.jpg,C_M_07.jpg,right,863,true,low,NA,NA,NA,NA,NA,NA,NA,false
dFluHLui,3ni0wfppjctpbx4ya2wphz5gism608,3pqmudrv7vjiywe97vzm9qr8067iig,dFluHLui,2020-0188,2020-06-04,14:33:36,15:05:20,NA,incomplete,179,gender,2,1,left,C_F_12.jpg,A_F_16.jpg,C_M_10.jpg,right,1388,false,low,NA,NA,NA,NA,NA,NA,NA,false
dFluHLui,3ni0wfppjctpbx4ya2wphz5gism608,3pqmudrv7vjiywe97vzm9qr8067iig,dFluHLui,2020-0188,2020-06-04,14:33:36,15:05:20,NA,incomplete,180,race,3,1,left,A_F_07.jpg,A_M_05.jpg,C_F_11.jpg,right,1092,false,low,NA,NA,NA,NA,NA,NA,NA,false
dFluHLui,3ni0wfppjctpbx4ya2wphz5gism608,3pqmudrv7vjiywe97vzm9qr8067iig,dFluHLui,2020-0188,2020-06-04,14:33:36,15:05:20,NA,incomplete,181,race,3,1,left,A_M_04.jpg,A_F_10.jpg,C_M_16.jpg,left,1096,true,low,NA,NA,NA,NA,NA,NA,NA,false
dFluHLui,3ni0wfppjctpbx4ya2wphz5gism608,3pqmudrv7vjiywe97vzm9qr8067iig,dFluHLui,2020-0188,2020-06-04,14:33:36,15:05:20,NA,incomplete,182,race,3,0,right,C_F_14.jpg,A_F_10.jpg,C_M_03.jpg,right,1275,true,low,NA,NA,NA,NA,NA,NA,NA,false
dFluHLui,3ni0wfppjctpbx4ya2wphz5gism608,3pqmudrv7vjiywe97vzm9qr8067iig,dFluHLui,2020-0188,2020-06-04,14:33:36,15:05:20,NA,incomplete,183,race,3,1,right,C_M_08.jpg,A_M_16.jpg,C_F_01.jpg,left,1639,false,low,NA,NA,NA,NA,NA,NA,NA,false
dFluHLui,3ni0wfppjctpbx4ya2wphz5gism608,3pqmudrv7vjiywe97vzm9qr8067iig,dFluHLui,2020-0188,2020-06-04,14:33:36,15:05:20,NA,incomplete,184,race,3,0,left,C_M_14.jpg,C_F_07.jpg,A_M_15.jpg,left,1284,true,low,NA,NA,NA,NA,NA,NA,NA,false
dFluHLui,3ni0wfppjctpbx4ya2wphz5gism608,3pqmudrv7vjiywe97vzm9qr8067iig,dFluHLui,2020-0188,2020-06-04,14:33:36,15:05:20,NA,incomplete,185,race,3,1,right,A_F_08.jpg,C_F_02.jpg,A_M_05.jpg,right,1378,true,low,NA,NA,NA,NA,NA,NA,NA,false
dFluHLui,3ni0wfppjctpbx4ya2wphz5gism608,3pqmudrv7vjiywe97vzm9qr8067iig,dFluHLui,2020-0188,2020-06-04,14:33:36,15:05:20,NA,incomplete,186,race,3,1,right,A_F_06.jpg,C_F_16.jpg,A_M_13.jpg,right,791,true,low,NA,NA,NA,NA,NA,NA,NA,false
dFluHLui,3ni0wfppjctpbx4ya2wphz5gism608,3pqmudrv7vjiywe97vzm9qr8067iig,dFluHLui,2020-0188,2020-06-04,14:33:36,15:05:20,NA,incomplete,187,race,3,1,right,A_F_16.jpg,C_F_08.jpg,A_M_07.jpg,right,902,true,low,NA,NA,NA,NA,NA,NA,NA,false
dFluHLui,3ni0wfppjctpbx4ya2wphz5gism608,3pqmudrv7vjiywe97vzm9qr8067iig,dFluHLui,2020-0188,2020-06-04,14:33:36,15:05:20,NA,incomplete,188,race,3,1,left,C_F_01.jpg,C_M_14.jpg,A_F_08.jpg,left,882,true,low,NA,NA,NA,NA,NA,NA,NA,false
dFluHLui,3ni0wfppjctpbx4ya2wphz5gism608,3pqmudrv7vjiywe97vzm9qr8067iig,dFluHLui,2020-0188,2020-06-04,14:33:36,15:05:20,NA,incomplete,189,race,3,0,right,C_M_15.jpg,A_M_13.jpg,C_F_06.jpg,right,849,true,low,NA,NA,NA,NA,NA,NA,NA,false
dFluHLui,3ni0wfppjctpbx4ya2wphz5gism608,3pqmudrv7vjiywe97vzm9qr8067iig,dFluHLui,2020-0188,2020-06-04,14:33:36,15:05:20,NA,incomplete,190,race,3,1,left,A_F_04.jpg,A_M_07.jpg,C_F_16.jpg,left,1695,true,low,NA,NA,NA,NA,NA,NA,NA,false
dFluHLui,3ni0wfppjctpbx4ya2wphz5gism608,3pqmudrv7vjiywe97vzm9qr8067iig,dFluHLui,2020-0188,2020-06-04,14:33:36,15:05:20,NA,incomplete,191,race,3,1,right,A_F_06.jpg,C_F_16.jpg,A_M_09.jpg,right,603,true,low,NA,NA,NA,NA,NA,NA,NA,false
dFluHLui,3ni0wfppjctpbx4ya2wphz5gism608,3pqmudrv7vjiywe97vzm9qr8067iig,dFluHLui,2020-0188,2020-06-04,14:33:36,15:05:20,NA,incomplete,192,race,3,0,left,A_M_06.jpg,A_F_13.jpg,C_M_09.jpg,left,768,true,low,NA,NA,NA,NA,NA,NA,NA,false
dFluHLui,3ni0wfppjctpbx4ya2wphz5gism608,3pqmudrv7vjiywe97vzm9qr8067iig,dFluHLui,2020-0188,2020-06-04,14:33:36,15:05:20,NA,incomplete,193,race,3,1,left,C_M_14.jpg,C_F_05.jpg,A_M_06.jpg,left,898,true,low,NA,NA,NA,NA,NA,NA,NA,false
dFluHLui,3ni0wfppjctpbx4ya2wphz5gism608,3pqmudrv7vjiywe97vzm9qr8067iig,dFluHLui,2020-0188,2020-06-04,14:33:36,15:05:20,NA,incomplete,194,race,3,1,left,A_M_05.jpg,A_F_02.jpg,C_M_16.jpg,left,815,true,low,NA,NA,NA,NA,NA,NA,NA,false
dFluHLui,3ni0wfppjctpbx4ya2wphz5gism608,3pqmudrv7vjiywe97vzm9qr8067iig,dFluHLui,2020-0188,2020-06-04,14:33:36,15:05:20,NA,incomplete,195,race,3,1,right,A_F_08.jpg,C_F_15.jpg,A_M_13.jpg,right,718,true,low,NA,NA,NA,NA,NA,NA,NA,false
dFluHLui,3ni0wfppjctpbx4ya2wphz5gism608,3pqmudrv7vjiywe97vzm9qr8067iig,dFluHLui,2020-0188,2020-06-04,14:33:36,15:05:20,NA,incomplete,196,race,3,1,left,A_F_10.jpg,A_M_04.jpg,C_F_02.jpg,left,627,true,low,NA,NA,NA,NA,NA,NA,NA,false
dFluHLui,3ni0wfppjctpbx4ya2wphz5gism608,3pqmudrv7vjiywe97vzm9qr8067iig,dFluHLui,2020-0188,2020-06-04,14:33:36,15:05:20,NA,incomplete,197,race,3,0,right,A_F_16.jpg,C_F_01.jpg,A_M_13.jpg,right,776,true,low,NA,NA,NA,NA,NA,NA,NA,false
dFluHLui,3ni0wfppjctpbx4ya2wphz5gism608,3pqmudrv7vjiywe97vzm9qr8067iig,dFluHLui,2020-0188,2020-06-04,14:33:36,15:05:20,NA,incomplete,198,race,3,1,right,A_F_11.jpg,C_F_06.jpg,A_M_14.jpg,right,842,true,low,NA,NA,NA,NA,NA,NA,NA,false
dFluHLui,3ni0wfppjctpbx4ya2wphz5gism608,3pqmudrv7vjiywe97vzm9qr8067iig,dFluHLui,2020-0188,2020-06-04,14:33:36,15:05:20,NA,incomplete,199,race,3,1,right,A_F_02.jpg,C_F_09.jpg,A_M_03.jpg,right,697,true,low,NA,NA,NA,NA,NA,NA,NA,false
dFluHLui,3ni0wfppjctpbx4ya2wphz5gism608,3pqmudrv7vjiywe97vzm9qr8067iig,dFluHLui,2020-0188,2020-06-04,14:33:36,15:05:20,NA,incomplete,200,gender,2,1,left,C_F_03.jpg,A_F_11.jpg,C_M_09.jpg,right,1149,false,low,NA,NA,NA,NA,NA,NA,NA,false
dFluHLui,3ni0wfppjctpbx4ya2wphz5gism608,3pqmudrv7vjiywe97vzm9qr8067iig,dFluHLui,2020-0188,2020-06-04,14:33:36,15:05:20,NA,incomplete,201,gender,2,1,left,A_M_01.jpg,C_M_12.jpg,A_F_06.jpg,right,767,false,low,NA,NA,NA,NA,NA,NA,NA,false
dFluHLui,3ni0wfppjctpbx4ya2wphz5gism608,3pqmudrv7vjiywe97vzm9qr8067iig,dFluHLui,2020-0188,2020-06-04,14:33:36,15:05:20,NA,incomplete,202,gender,2,0,right,C_M_04.jpg,C_F_12.jpg,A_M_13.jpg,right,1409,true,low,NA,NA,NA,NA,NA,NA,NA,false
dFluHLui,3ni0wfppjctpbx4ya2wphz5gism608,3pqmudrv7vjiywe97vzm9qr8067iig,dFluHLui,2020-0188,2020-06-04,14:33:36,15:05:20,NA,incomplete,203,gender,2,1,right,A_M_16.jpg,A_F_12.jpg,C_M_05.jpg,left,936,false,low,NA,NA,NA,NA,NA,NA,NA,false
dFluHLui,3ni0wfppjctpbx4ya2wphz5gism608,3pqmudrv7vjiywe97vzm9qr8067iig,dFluHLui,2020-0188,2020-06-04,14:33:36,15:05:20,NA,incomplete,204,gender,2,1,right,A_M_03.jpg,A_F_13.jpg,C_M_06.jpg,left,803,false,low,NA,NA,NA,NA,NA,NA,NA,false
dFluHLui,3ni0wfppjctpbx4ya2wphz5gism608,3pqmudrv7vjiywe97vzm9qr8067iig,dFluHLui,2020-0188,2020-06-04,14:33:36,15:05:20,NA,incomplete,205,gender,2,0,right,A_M_15.jpg,A_F_11.jpg,C_M_10.jpg,right,1057,true,low,NA,NA,NA,NA,NA,NA,NA,false
dFluHLui,3ni0wfppjctpbx4ya2wphz5gism608,3pqmudrv7vjiywe97vzm9qr8067iig,dFluHLui,2020-0188,2020-06-04,14:33:36,15:05:20,NA,incomplete,206,gender,2,1,left,C_F_12.jpg,A_F_06.jpg,C_M_16.jpg,left,1479,true,low,NA,NA,NA,NA,NA,NA,NA,false
dFluHLui,3ni0wfppjctpbx4ya2wphz5gism608,3pqmudrv7vjiywe97vzm9qr8067iig,dFluHLui,2020-0188,2020-06-04,14:33:36,15:05:20,NA,incomplete,207,gender,2,0,left,C_M_04.jpg,A_M_14.jpg,C_F_09.jpg,right,1338,false,low,NA,NA,NA,NA,NA,NA,NA,false
dFluHLui,3ni0wfppjctpbx4ya2wphz5gism608,3pqmudrv7vjiywe97vzm9qr8067iig,dFluHLui,2020-0188,2020-06-04,14:33:36,15:05:20,NA,incomplete,208,gender,2,1,left,A_M_11.jpg,C_M_01.jpg,A_F_02.jpg,right,1395,false,low,NA,NA,NA,NA,NA,NA,NA,false
dFluHLui,3ni0wfppjctpbx4ya2wphz5gism608,3pqmudrv7vjiywe97vzm9qr8067iig,dFluHLui,2020-0188,2020-06-04,14:33:36,15:05:20,NA,incomplete,209,gender,2,1,left,C_F_06.jpg,A_F_03.jpg,C_M_15.jpg,left,988,true,low,NA,NA,NA,NA,NA,NA,NA,false
dFluHLui,3ni0wfppjctpbx4ya2wphz5gism608,3pqmudrv7vjiywe97vzm9qr8067iig,dFluHLui,2020-0188,2020-06-04,14:33:36,15:05:20,NA,incomplete,210,gender,2,1,left,A_F_13.jpg,C_F_12.jpg,A_M_02.jpg,right,802,false,low,NA,NA,NA,NA,NA,NA,NA,false
dFluHLui,3ni0wfppjctpbx4ya2wphz5gism608,3pqmudrv7vjiywe97vzm9qr8067iig,dFluHLui,2020-0188,2020-06-04,14:33:36,15:05:20,NA,incomplete,211,gender,2,1,right,A_F_06.jpg,A_M_16.jpg,C_F_10.jpg,right,1187,true,low,NA,NA,NA,NA,NA,NA,NA,false
dFluHLui,3ni0wfppjctpbx4ya2wphz5gism608,3pqmudrv7vjiywe97vzm9qr8067iig,dFluHLui,2020-0188,2020-06-04,14:33:36,15:05:20,NA,incomplete,212,gender,2,1,left,A_F_12.jpg,C_F_03.jpg,A_M_09.jpg,right,881,false,low,NA,NA,NA,NA,NA,NA,NA,false
dFluHLui,3ni0wfppjctpbx4ya2wphz5gism608,3pqmudrv7vjiywe97vzm9qr8067iig,dFluHLui,2020-0188,2020-06-04,14:33:36,15:05:20,NA,incomplete,213,gender,2,0,right,C_F_09.jpg,C_M_11.jpg,A_F_03.jpg,left,833,false,low,NA,NA,NA,NA,NA,NA,NA,false
dFluHLui,3ni0wfppjctpbx4ya2wphz5gism608,3pqmudrv7vjiywe97vzm9qr8067iig,dFluHLui,2020-0188,2020-06-04,14:33:36,15:05:20,NA,incomplete,214,gender,2,1,right,C_M_08.jpg,C_F_09.jpg,A_M_06.jpg,left,885,false,low,NA,NA,NA,NA,NA,NA,NA,false
dFluHLui,3ni0wfppjctpbx4ya2wphz5gism608,3pqmudrv7vjiywe97vzm9qr8067iig,dFluHLui,2020-0188,2020-06-04,14:33:36,15:05:20,NA,incomplete,215,gender,2,0,right,A_F_09.jpg,A_M_15.jpg,C_F_02.jpg,left,1050,false,low,NA,NA,NA,NA,NA,NA,NA,false
dFluHLui,3ni0wfppjctpbx4ya2wphz5gism608,3pqmudrv7vjiywe97vzm9qr8067iig,dFluHLui,2020-0188,2020-06-04,14:33:36,15:05:20,NA,incomplete,216,gender,2,1,right,C_F_12.jpg,C_M_05.jpg,A_F_13.jpg,left,1040,false,low,NA,NA,NA,NA,NA,NA,NA,false
dFluHLui,3ni0wfppjctpbx4ya2wphz5gism608,3pqmudrv7vjiywe97vzm9qr8067iig,dFluHLui,2020-0188,2020-06-04,14:33:36,15:05:20,NA,incomplete,217,gender,2,1,left,C_M_06.jpg,A_M_01.jpg,C_F_16.jpg,left,693,true,low,NA,NA,NA,NA,NA,NA,NA,false
dFluHLui,3ni0wfppjctpbx4ya2wphz5gism608,3pqmudrv7vjiywe97vzm9qr8067iig,dFluHLui,2020-0188,2020-06-04,14:33:36,15:05:20,NA,incomplete,218,gender,2,1,left,A_M_15.jpg,C_M_05.jpg,A_F_02.jpg,left,1002,true,low,NA,NA,NA,NA,NA,NA,NA,false
dFluHLui,3ni0wfppjctpbx4ya2wphz5gism608,3pqmudrv7vjiywe97vzm9qr8067iig,dFluHLui,2020-0188,2020-06-04,14:33:36,15:05:20,NA,incomplete,219,gender,2,1,left,A_F_01.jpg,C_F_10.jpg,A_M_15.jpg,left,1108,true,low,NA,NA,NA,NA,NA,NA,NA,false
dFluHLui,3ni0wfppjctpbx4ya2wphz5gism608,3pqmudrv7vjiywe97vzm9qr8067iig,dFluHLui,2020-0188,2020-06-04,14:33:36,15:05:20,NA,incomplete,220,race,3,1,right,C_F_04.jpg,A_F_03.jpg,C_M_02.jpg,left,949,false,low,NA,NA,NA,NA,NA,NA,NA,false
dFluHLui,3ni0wfppjctpbx4ya2wphz5gism608,3pqmudrv7vjiywe97vzm9qr8067iig,dFluHLui,2020-0188,2020-06-04,14:33:36,15:05:20,NA,incomplete,221,race,3,1,right,A_F_02.jpg,C_F_12.jpg,A_M_13.jpg,left,1007,false,low,NA,NA,NA,NA,NA,NA,NA,false
dFluHLui,3ni0wfppjctpbx4ya2wphz5gism608,3pqmudrv7vjiywe97vzm9qr8067iig,dFluHLui,2020-0188,2020-06-04,14:33:36,15:05:20,NA,incomplete,222,race,3,1,left,A_M_06.jpg,A_F_03.jpg,C_M_14.jpg,none,0,false,low,NA,NA,NA,NA,NA,NA,NA,false
dFluHLui,3ni0wfppjctpbx4ya2wphz5gism608,3pqmudrv7vjiywe97vzm9qr8067iig,dFluHLui,2020-0188,2020-06-04,14:33:36,15:05:20,NA,incomplete,223,race,3,1,right,C_F_01.jpg,A_F_16.jpg,C_M_03.jpg,left,700,false,low,NA,NA,NA,NA,NA,NA,NA,false
dFluHLui,3ni0wfppjctpbx4ya2wphz5gism608,3pqmudrv7vjiywe97vzm9qr8067iig,dFluHLui,2020-0188,2020-06-04,14:33:36,15:05:20,NA,incomplete,224,race,3,1,left,C_M_11.jpg,C_F_14.jpg,A_M_16.jpg,right,1249,false,low,NA,NA,NA,NA,NA,NA,NA,false
dFluHLui,3ni0wfppjctpbx4ya2wphz5gism608,3pqmudrv7vjiywe97vzm9qr8067iig,dFluHLui,2020-0188,2020-06-04,14:33:36,15:05:20,NA,incomplete,225,race,3,0,left,A_M_10.jpg,A_F_11.jpg,C_M_08.jpg,left,1182,true,low,NA,NA,NA,NA,NA,NA,NA,false
dFluHLui,3ni0wfppjctpbx4ya2wphz5gism608,3pqmudrv7vjiywe97vzm9qr8067iig,dFluHLui,2020-0188,2020-06-04,14:33:36,15:05:20,NA,incomplete,226,race,3,1,right,A_M_05.jpg,C_M_03.jpg,A_F_09.jpg,right,1006,true,low,NA,NA,NA,NA,NA,NA,NA,false
dFluHLui,3ni0wfppjctpbx4ya2wphz5gism608,3pqmudrv7vjiywe97vzm9qr8067iig,dFluHLui,2020-0188,2020-06-04,14:33:36,15:05:20,NA,incomplete,227,race,3,1,left,C_M_11.jpg,C_F_01.jpg,A_M_02.jpg,right,886,false,low,NA,NA,NA,NA,NA,NA,NA,false
dFluHLui,3ni0wfppjctpbx4ya2wphz5gism608,3pqmudrv7vjiywe97vzm9qr8067iig,dFluHLui,2020-0188,2020-06-04,14:33:36,15:05:20,NA,incomplete,228,race,3,0,right,A_M_08.jpg,C_M_13.jpg,A_F_16.jpg,right,1618,true,low,NA,NA,NA,NA,NA,NA,NA,false
dFluHLui,3ni0wfppjctpbx4ya2wphz5gism608,3pqmudrv7vjiywe97vzm9qr8067iig,dFluHLui,2020-0188,2020-06-04,14:33:36,15:05:20,NA,incomplete,229,race,3,1,right,A_F_13.jpg,C_F_11.jpg,A_M_04.jpg,left,1008,false,low,NA,NA,NA,NA,NA,NA,NA,false
dFluHLui,3ni0wfppjctpbx4ya2wphz5gism608,3pqmudrv7vjiywe97vzm9qr8067iig,dFluHLui,2020-0188,2020-06-04,14:33:36,15:05:20,NA,incomplete,230,race,3,1,left,A_F_07.jpg,A_M_02.jpg,C_F_16.jpg,right,887,false,low,NA,NA,NA,NA,NA,NA,NA,false
dFluHLui,3ni0wfppjctpbx4ya2wphz5gism608,3pqmudrv7vjiywe97vzm9qr8067iig,dFluHLui,2020-0188,2020-06-04,14:33:36,15:05:20,NA,incomplete,231,race,3,1,left,A_F_13.jpg,A_M_07.jpg,C_F_01.jpg,left,998,true,low,NA,NA,NA,NA,NA,NA,NA,false
dFluHLui,3ni0wfppjctpbx4ya2wphz5gism608,3pqmudrv7vjiywe97vzm9qr8067iig,dFluHLui,2020-0188,2020-06-04,14:33:36,15:05:20,NA,incomplete,232,race,3,0,left,C_M_06.jpg,C_F_12.jpg,A_M_01.jpg,left,1242,true,low,NA,NA,NA,NA,NA,NA,NA,false
dFluHLui,3ni0wfppjctpbx4ya2wphz5gism608,3pqmudrv7vjiywe97vzm9qr8067iig,dFluHLui,2020-0188,2020-06-04,14:33:36,15:05:20,NA,incomplete,233,race,3,1,left,A_M_04.jpg,A_F_02.jpg,C_M_01.jpg,right,1177,false,low,NA,NA,NA,NA,NA,NA,NA,false
dFluHLui,3ni0wfppjctpbx4ya2wphz5gism608,3pqmudrv7vjiywe97vzm9qr8067iig,dFluHLui,2020-0188,2020-06-04,14:33:36,15:05:20,NA,incomplete,234,race,3,1,left,C_F_01.jpg,C_M_10.jpg,A_F_09.jpg,right,1531,false,low,NA,NA,NA,NA,NA,NA,NA,false
dFluHLui,3ni0wfppjctpbx4ya2wphz5gism608,3pqmudrv7vjiywe97vzm9qr8067iig,dFluHLui,2020-0188,2020-06-04,14:33:36,15:05:20,NA,incomplete,235,race,3,1,left,A_M_11.jpg,A_F_03.jpg,C_M_12.jpg,left,1050,true,low,NA,NA,NA,NA,NA,NA,NA,false
dFluHLui,3ni0wfppjctpbx4ya2wphz5gism608,3pqmudrv7vjiywe97vzm9qr8067iig,dFluHLui,2020-0188,2020-06-04,14:33:36,15:05:20,NA,incomplete,236,race,3,1,right,A_F_03.jpg,C_F_01.jpg,A_M_10.jpg,right,1009,true,low,NA,NA,NA,NA,NA,NA,NA,false
dFluHLui,3ni0wfppjctpbx4ya2wphz5gism608,3pqmudrv7vjiywe97vzm9qr8067iig,dFluHLui,2020-0188,2020-06-04,14:33:36,15:05:20,NA,incomplete,237,race,3,1,right,A_F_16.jpg,C_F_04.jpg,A_M_06.jpg,right,890,true,low,NA,NA,NA,NA,NA,NA,NA,false
dFluHLui,3ni0wfppjctpbx4ya2wphz5gism608,3pqmudrv7vjiywe97vzm9qr8067iig,dFluHLui,2020-0188,2020-06-04,14:33:36,15:05:20,NA,incomplete,238,race,3,1,left,A_F_04.jpg,A_M_15.jpg,C_F_13.jpg,left,1363,true,low,NA,NA,NA,NA,NA,NA,NA,false
dFluHLui,3ni0wfppjctpbx4ya2wphz5gism608,3pqmudrv7vjiywe97vzm9qr8067iig,dFluHLui,2020-0188,2020-06-04,14:33:36,15:05:20,NA,incomplete,239,race,3,1,left,C_M_04.jpg,C_F_12.jpg,A_M_09.jpg,left,1106,true,low,NA,NA,NA,NA,NA,NA,NA,false
dFluHLui,3ni0wfppjctpbx4ya2wphz5gism608,3pqmudrv7vjiywe97vzm9qr8067iig,dFluHLui,2020-0188,2020-06-04,14:33:36,15:05:20,NA,NA,instruction example,filling,NA,NA,NA,Purple_Triangle_Chess_1.jpg,Red_Star_Chess_3.jpg,Blue_Circle_Grid_1.jpg,NA,NA,NA,NA,NA,NA,NA,NA,NA,NA,NA,undefined
dFluHLui,3ni0wfppjctpbx4ya2wphz5gism608,3pqmudrv7vjiywe97vzm9qr8067iig,dFluHLui,2020-0188,2020-06-04,14:33:36,15:05:20,NA,NA,instruction example,filling,NA,NA,NA,Purple_Plus_Stripes_3.jpg,Green_Circle_Dots_3.jpg,Red_Star_Stripes_4.jpg,NA,NA,NA,NA,NA,NA,NA,NA,NA,NA,NA,undefined
dFluHLui,3ni0wfppjctpbx4ya2wphz5gism608,3pqmudrv7vjiywe97vzm9qr8067iig,dFluHLui,2020-0188,2020-06-04,14:33:36,15:05:20,NA,NA,instruction example,filling,NA,NA,NA,C_M_11.jpg,A_M_15.jpg,C_F_14.jpg,NA,NA,NA,NA,NA,NA,NA,NA,NA,NA,NA,undefined
dFluHLui,3ni0wfppjctpbx4ya2wphz5gism608,3pqmudrv7vjiywe97vzm9qr8067iig,dFluHLui,2020-0188,2020-06-04,14:33:36,15:05:20,NA,NA,instruction example,filling,NA,NA,NA,C_F_03.jpg,C_M_13.jpg,A_F_11.jpg,NA,NA,NA,NA,NA,NA,NA,NA,NA,NA,NA,undefined
dFluHLui,3ni0wfppjctpbx4ya2wphz5gism608,3pqmudrv7vjiywe97vzm9qr8067iig,dFluHLui,2020-0188,2020-06-04,14:33:36,15:05:20,1819208,1905948,NA,NA,NA,NA,NA,NA,NA,NA,NA,NA,NA,NA,45,White/Caucasian,Female,American,no,yes,no,undefined
