workerId,hitId,assignmentId,subject,studyid,exp_date,exp_start,exp_end,time_start,time_end,trial,type,sequence,reward_validity,answer,image_top,image_left,image_right,response,response_time,response_acc,volatility,practice
tceWimqr,3ha5odm5ld5arw3bkcnh3xryudvvsa,3pqmudrv7vjiywe97vzm9qr8041ii6,tceWimqr,2020-0188,2020-06-04,07:53:38,08:20:50,NA,incomplete,0,color,0,1,right,Green_Star_Chess_3.jpg,Purple_Star_Dots_4.jpg,Green_Plus_Stripes_1.jpg,right,1095.6249998416752,true,NA,true
tceWimqr,3ha5odm5ld5arw3bkcnh3xryudvvsa,3pqmudrv7vjiywe97vzm9qr8041ii6,tceWimqr,2020-0188,2020-06-04,07:53:38,08:20:50,NA,incomplete,1,color,0,1,right,Purple_Triangle_Stripes_2.jpg,Blue_Triangle_Dots_1.jpg,Purple_Circle_Grid_4.jpg,right,606.2349998392165,true,NA,true
tceWimqr,3ha5odm5ld5arw3bkcnh3xryudvvsa,3pqmudrv7vjiywe97vzm9qr8041ii6,tceWimqr,2020-0188,2020-06-04,07:53:38,08:20:50,NA,incomplete,2,color,0,0,left,Green_Circle_Grid_4.jpg,Green_Plus_Dots_2.jpg,Blue_Circle_Stripes_3.jpg,left,542.9750001057982,true,NA,true
tceWimqr,3ha5odm5ld5arw3bkcnh3xryudvvsa,3pqmudrv7vjiywe97vzm9qr8041ii6,tceWimqr,2020-0188,2020-06-04,07:53:38,08:20:50,NA,incomplete,3,color,0,1,right,Purple_Circle_Dots_3.jpg,Red_Circle_Stripes_1.jpg,Purple_Star_Chess_2.jpg,right,443.7299999408424,true,NA,true
tceWimqr,3ha5odm5ld5arw3bkcnh3xryudvvsa,3pqmudrv7vjiywe97vzm9qr8041ii6,tceWimqr,2020-0188,2020-06-04,07:53:38,08:20:50,NA,incomplete,4,color,0,0,right,Blue_Triangle_Grid_2.jpg,Green_Triangle_Stripes_4.jpg,Blue_Star_Chess_1.jpg,right,974.9950000550598,true,NA,true
tceWimqr,3ha5odm5ld5arw3bkcnh3xryudvvsa,3pqmudrv7vjiywe97vzm9qr8041ii6,tceWimqr,2020-0188,2020-06-04,07:53:38,08:20:50,NA,incomplete,5,color,0,1,right,Purple_Triangle_Grid_3.jpg,Blue_Triangle_Chess_4.jpg,Purple_Plus_Dots_1.jpg,right,663.4949999861419,true,NA,true
tceWimqr,3ha5odm5ld5arw3bkcnh3xryudvvsa,3pqmudrv7vjiywe97vzm9qr8041ii6,tceWimqr,2020-0188,2020-06-04,07:53:38,08:20:50,NA,incomplete,6,color,0,0,left,Blue_Star_Grid_1.jpg,Blue_Triangle_Dots_2.jpg,Green_Star_Stripes_4.jpg,left,1013.3249999489635,true,NA,true
tceWimqr,3ha5odm5ld5arw3bkcnh3xryudvvsa,3pqmudrv7vjiywe97vzm9qr8041ii6,tceWimqr,2020-0188,2020-06-04,07:53:38,08:20:50,NA,incomplete,7,color,0,1,left,Green_Triangle_Stripes_1.jpg,Green_Circle_Chess_3.jpg,Red_Triangle_Dots_4.jpg,left,994.8599999770522,true,NA,true
tceWimqr,3ha5odm5ld5arw3bkcnh3xryudvvsa,3pqmudrv7vjiywe97vzm9qr8041ii6,tceWimqr,2020-0188,2020-06-04,07:53:38,08:20:50,NA,incomplete,8,color,0,1,right,Green_Star_Stripes_1.jpg,Purple_Star_Dots_3.jpg,Green_Plus_Chess_4.jpg,right,503.74500011093915,true,NA,true
tceWimqr,3ha5odm5ld5arw3bkcnh3xryudvvsa,3pqmudrv7vjiywe97vzm9qr8041ii6,tceWimqr,2020-0188,2020-06-04,07:53:38,08:20:50,NA,incomplete,9,color,0,1,left,Green_Circle_Dots_3.jpg,Green_Star_Grid_1.jpg,Red_Circle_Chess_4.jpg,left,830.5499998386949,true,NA,true
tceWimqr,3ha5odm5ld5arw3bkcnh3xryudvvsa,3pqmudrv7vjiywe97vzm9qr8041ii6,tceWimqr,2020-0188,2020-06-04,07:53:38,08:20:50,NA,incomplete,10,color,0,1,right,Blue_Plus_Grid_2.jpg,Purple_Plus_Chess_4.jpg,Blue_Circle_Stripes_1.jpg,right,535.4800000786781,true,NA,true
tceWimqr,3ha5odm5ld5arw3bkcnh3xryudvvsa,3pqmudrv7vjiywe97vzm9qr8041ii6,tceWimqr,2020-0188,2020-06-04,07:53:38,08:20:50,NA,incomplete,11,color,0,1,left,Red_Circle_Stripes_1.jpg,Red_Plus_Chess_3.jpg,Green_Circle_Grid_2.jpg,left,780.8349998667836,true,NA,true
tceWimqr,3ha5odm5ld5arw3bkcnh3xryudvvsa,3pqmudrv7vjiywe97vzm9qr8041ii6,tceWimqr,2020-0188,2020-06-04,07:53:38,08:20:50,NA,incomplete,12,color,0,1,left,Red_Star_Stripes_3.jpg,Red_Plus_Grid_1.jpg,Green_Star_Chess_2.jpg,left,1039.0699999406934,true,NA,true
tceWimqr,3ha5odm5ld5arw3bkcnh3xryudvvsa,3pqmudrv7vjiywe97vzm9qr8041ii6,tceWimqr,2020-0188,2020-06-04,07:53:38,08:20:50,NA,incomplete,13,color,0,1,left,Blue_Triangle_Grid_4.jpg,Blue_Plus_Chess_3.jpg,Purple_Triangle_Stripes_1.jpg,left,831.5999999176711,true,NA,true
tceWimqr,3ha5odm5ld5arw3bkcnh3xryudvvsa,3pqmudrv7vjiywe97vzm9qr8041ii6,tceWimqr,2020-0188,2020-06-04,07:53:38,08:20:50,NA,incomplete,14,color,0,1,left,Red_Circle_Dots_3.jpg,Red_Triangle_Chess_2.jpg,Blue_Circle_Stripes_1.jpg,left,636.6950001101941,true,NA,true
tceWimqr,3ha5odm5ld5arw3bkcnh3xryudvvsa,3pqmudrv7vjiywe97vzm9qr8041ii6,tceWimqr,2020-0188,2020-06-04,07:53:38,08:20:50,NA,incomplete,15,color,0,1,left,Red_Circle_Chess_2.jpg,Red_Triangle_Grid_3.jpg,Purple_Circle_Dots_1.jpg,left,706.8750001490116,true,NA,true
tceWimqr,3ha5odm5ld5arw3bkcnh3xryudvvsa,3pqmudrv7vjiywe97vzm9qr8041ii6,tceWimqr,2020-0188,2020-06-04,07:53:38,08:20:50,NA,incomplete,16,color,0,0,left,Purple_Plus_Chess_1.jpg,Purple_Triangle_Dots_3.jpg,Green_Plus_Grid_4.jpg,left,641.8200000189245,true,NA,true
tceWimqr,3ha5odm5ld5arw3bkcnh3xryudvvsa,3pqmudrv7vjiywe97vzm9qr8041ii6,tceWimqr,2020-0188,2020-06-04,07:53:38,08:20:50,NA,incomplete,17,color,0,0,right,Green_Plus_Stripes_4.jpg,Blue_Plus_Chess_1.jpg,Green_Triangle_Dots_2.jpg,left,855.7849999051541,false,NA,true
tceWimqr,3ha5odm5ld5arw3bkcnh3xryudvvsa,3pqmudrv7vjiywe97vzm9qr8041ii6,tceWimqr,2020-0188,2020-06-04,07:53:38,08:20:50,NA,incomplete,18,color,0,1,right,Green_Triangle_Chess_3.jpg,Red_Triangle_Stripes_4.jpg,Green_Plus_Dots_2.jpg,right,667.2449999023229,true,NA,true
tceWimqr,3ha5odm5ld5arw3bkcnh3xryudvvsa,3pqmudrv7vjiywe97vzm9qr8041ii6,tceWimqr,2020-0188,2020-06-04,07:53:38,08:20:50,NA,incomplete,19,color,0,0,left,Purple_Plus_Stripes_2.jpg,Purple_Circle_Grid_3.jpg,Green_Plus_Chess_1.jpg,right,794.0849999431521,false,NA,true
tceWimqr,3ha5odm5ld5arw3bkcnh3xryudvvsa,3pqmudrv7vjiywe97vzm9qr8041ii6,tceWimqr,2020-0188,2020-06-04,07:53:38,08:20:50,NA,incomplete,20,shape,1,0,left,Green_Plus_Grid_2.jpg,Blue_Plus_Stripes_1.jpg,Green_Triangle_Chess_3.jpg,left,1046.4999999385327,true,NA,true
tceWimqr,3ha5odm5ld5arw3bkcnh3xryudvvsa,3pqmudrv7vjiywe97vzm9qr8041ii6,tceWimqr,2020-0188,2020-06-04,07:53:38,08:20:50,NA,incomplete,21,shape,1,1,left,Red_Circle_Grid_3.jpg,Blue_Circle_Stripes_2.jpg,Red_Plus_Dots_4.jpg,right,991.9050000607967,false,NA,true
tceWimqr,3ha5odm5ld5arw3bkcnh3xryudvvsa,3pqmudrv7vjiywe97vzm9qr8041ii6,tceWimqr,2020-0188,2020-06-04,07:53:38,08:20:50,NA,incomplete,22,shape,1,1,right,Red_Star_Stripes_4.jpg,Red_Circle_Dots_2.jpg,Green_Star_Chess_1.jpg,left,1038.0649999715388,false,NA,true
tceWimqr,3ha5odm5ld5arw3bkcnh3xryudvvsa,3pqmudrv7vjiywe97vzm9qr8041ii6,tceWimqr,2020-0188,2020-06-04,07:53:38,08:20:50,NA,incomplete,23,shape,1,1,right,Red_Star_Chess_4.jpg,Red_Triangle_Grid_3.jpg,Green_Star_Dots_1.jpg,right,800.4099999088794,true,NA,true
tceWimqr,3ha5odm5ld5arw3bkcnh3xryudvvsa,3pqmudrv7vjiywe97vzm9qr8041ii6,tceWimqr,2020-0188,2020-06-04,07:53:38,08:20:50,NA,incomplete,24,shape,1,1,right,Purple_Star_Stripes_3.jpg,Purple_Plus_Chess_2.jpg,Red_Star_Dots_1.jpg,right,716.7750000953674,true,NA,true
tceWimqr,3ha5odm5ld5arw3bkcnh3xryudvvsa,3pqmudrv7vjiywe97vzm9qr8041ii6,tceWimqr,2020-0188,2020-06-04,07:53:38,08:20:50,NA,incomplete,25,shape,1,1,left,Red_Circle_Chess_2.jpg,Green_Circle_Dots_3.jpg,Red_Triangle_Stripes_4.jpg,left,848.5499999951571,true,NA,true
tceWimqr,3ha5odm5ld5arw3bkcnh3xryudvvsa,3pqmudrv7vjiywe97vzm9qr8041ii6,tceWimqr,2020-0188,2020-06-04,07:53:38,08:20:50,NA,incomplete,26,shape,1,1,left,Red_Triangle_Stripes_4.jpg,Green_Triangle_Dots_3.jpg,Red_Circle_Grid_1.jpg,left,822.965000057593,true,NA,true
tceWimqr,3ha5odm5ld5arw3bkcnh3xryudvvsa,3pqmudrv7vjiywe97vzm9qr8041ii6,tceWimqr,2020-0188,2020-06-04,07:53:38,08:20:50,NA,incomplete,27,shape,1,1,right,Purple_Circle_Chess_1.jpg,Purple_Star_Grid_2.jpg,Blue_Circle_Dots_3.jpg,right,650.6149999331683,true,NA,true
tceWimqr,3ha5odm5ld5arw3bkcnh3xryudvvsa,3pqmudrv7vjiywe97vzm9qr8041ii6,tceWimqr,2020-0188,2020-06-04,07:53:38,08:20:50,NA,incomplete,28,shape,1,1,left,Red_Plus_Stripes_3.jpg,Blue_Plus_Grid_2.jpg,Red_Circle_Dots_4.jpg,left,967.7099999971688,true,NA,true
tceWimqr,3ha5odm5ld5arw3bkcnh3xryudvvsa,3pqmudrv7vjiywe97vzm9qr8041ii6,tceWimqr,2020-0188,2020-06-04,07:53:38,08:20:50,NA,incomplete,29,shape,1,1,right,Red_Star_Grid_3.jpg,Red_Circle_Chess_2.jpg,Green_Star_Dots_1.jpg,right,561.394999967888,true,NA,true
tceWimqr,3ha5odm5ld5arw3bkcnh3xryudvvsa,3pqmudrv7vjiywe97vzm9qr8041ii6,tceWimqr,2020-0188,2020-06-04,07:53:38,08:20:50,NA,incomplete,30,shape,1,1,right,Red_Star_Chess_1.jpg,Red_Circle_Dots_4.jpg,Green_Star_Stripes_3.jpg,right,634.275000076741,true,NA,true
tceWimqr,3ha5odm5ld5arw3bkcnh3xryudvvsa,3pqmudrv7vjiywe97vzm9qr8041ii6,tceWimqr,2020-0188,2020-06-04,07:53:38,08:20:50,NA,incomplete,31,shape,1,1,left,Red_Plus_Stripes_1.jpg,Purple_Plus_Grid_3.jpg,Red_Star_Dots_2.jpg,left,1044.810000108555,true,NA,true
tceWimqr,3ha5odm5ld5arw3bkcnh3xryudvvsa,3pqmudrv7vjiywe97vzm9qr8041ii6,tceWimqr,2020-0188,2020-06-04,07:53:38,08:20:50,NA,incomplete,32,shape,1,0,left,Blue_Triangle_Dots_1.jpg,Red_Triangle_Chess_4.jpg,Blue_Star_Grid_2.jpg,left,836.210000095889,true,NA,true
tceWimqr,3ha5odm5ld5arw3bkcnh3xryudvvsa,3pqmudrv7vjiywe97vzm9qr8041ii6,tceWimqr,2020-0188,2020-06-04,07:53:38,08:20:50,NA,incomplete,33,shape,1,1,right,Purple_Circle_Dots_3.jpg,Purple_Triangle_Stripes_1.jpg,Blue_Circle_Chess_2.jpg,right,918.3100000955164,true,NA,true
tceWimqr,3ha5odm5ld5arw3bkcnh3xryudvvsa,3pqmudrv7vjiywe97vzm9qr8041ii6,tceWimqr,2020-0188,2020-06-04,07:53:38,08:20:50,NA,incomplete,34,shape,1,1,right,Purple_Circle_Stripes_4.jpg,Purple_Plus_Grid_1.jpg,Green_Circle_Dots_3.jpg,right,610.0300000980496,true,NA,true
tceWimqr,3ha5odm5ld5arw3bkcnh3xryudvvsa,3pqmudrv7vjiywe97vzm9qr8041ii6,tceWimqr,2020-0188,2020-06-04,07:53:38,08:20:50,NA,incomplete,35,shape,1,1,left,Blue_Plus_Dots_3.jpg,Green_Plus_Chess_4.jpg,Blue_Circle_Stripes_1.jpg,left,806.0949998907745,true,NA,true
tceWimqr,3ha5odm5ld5arw3bkcnh3xryudvvsa,3pqmudrv7vjiywe97vzm9qr8041ii6,tceWimqr,2020-0188,2020-06-04,07:53:38,08:20:50,NA,incomplete,36,shape,1,1,right,Blue_Triangle_Chess_4.jpg,Blue_Star_Stripes_2.jpg,Red_Triangle_Grid_1.jpg,right,677.6300000492483,true,NA,true
tceWimqr,3ha5odm5ld5arw3bkcnh3xryudvvsa,3pqmudrv7vjiywe97vzm9qr8041ii6,tceWimqr,2020-0188,2020-06-04,07:53:38,08:20:50,NA,incomplete,37,shape,1,1,right,Red_Star_Stripes_2.jpg,Red_Triangle_Dots_4.jpg,Blue_Star_Grid_3.jpg,right,686.615000013262,true,NA,true
tceWimqr,3ha5odm5ld5arw3bkcnh3xryudvvsa,3pqmudrv7vjiywe97vzm9qr8041ii6,tceWimqr,2020-0188,2020-06-04,07:53:38,08:20:50,NA,incomplete,38,shape,1,1,right,Green_Plus_Stripes_2.jpg,Green_Circle_Grid_4.jpg,Purple_Plus_Chess_3.jpg,right,766.0950000863522,true,NA,true
tceWimqr,3ha5odm5ld5arw3bkcnh3xryudvvsa,3pqmudrv7vjiywe97vzm9qr8041ii6,tceWimqr,2020-0188,2020-06-04,07:53:38,08:20:50,NA,incomplete,39,shape,1,1,right,Red_Star_Stripes_3.jpg,Red_Circle_Chess_2.jpg,Purple_Star_Dots_4.jpg,right,736.8449999485165,true,NA,true
tceWimqr,3ha5odm5ld5arw3bkcnh3xryudvvsa,3pqmudrv7vjiywe97vzm9qr8041ii6,tceWimqr,2020-0188,2020-06-04,07:53:38,08:20:50,NA,incomplete,0,color,0,1,right,Blue_Circle_Dots_1.jpg,Green_Circle_Chess_3.jpg,Blue_Star_Grid_4.jpg,right,1558.0949999857694,true,low,false
tceWimqr,3ha5odm5ld5arw3bkcnh3xryudvvsa,3pqmudrv7vjiywe97vzm9qr8041ii6,tceWimqr,2020-0188,2020-06-04,07:53:38,08:20:50,NA,incomplete,1,color,0,1,left,Green_Plus_Dots_1.jpg,Green_Triangle_Chess_2.jpg,Red_Plus_Grid_4.jpg,left,639.6500000264496,true,low,false
tceWimqr,3ha5odm5ld5arw3bkcnh3xryudvvsa,3pqmudrv7vjiywe97vzm9qr8041ii6,tceWimqr,2020-0188,2020-06-04,07:53:38,08:20:50,NA,incomplete,2,color,0,1,left,Green_Star_Dots_4.jpg,Green_Triangle_Grid_1.jpg,Blue_Star_Chess_3.jpg,left,609.5399998594075,true,low,false
tceWimqr,3ha5odm5ld5arw3bkcnh3xryudvvsa,3pqmudrv7vjiywe97vzm9qr8041ii6,tceWimqr,2020-0188,2020-06-04,07:53:38,08:20:50,NA,incomplete,3,color,0,1,right,Red_Triangle_Dots_4.jpg,Green_Triangle_Stripes_1.jpg,Red_Star_Grid_3.jpg,right,640.2650000527501,true,low,false
tceWimqr,3ha5odm5ld5arw3bkcnh3xryudvvsa,3pqmudrv7vjiywe97vzm9qr8041ii6,tceWimqr,2020-0188,2020-06-04,07:53:38,08:20:50,NA,incomplete,4,color,0,1,right,Blue_Circle_Chess_4.jpg,Purple_Circle_Grid_2.jpg,Blue_Triangle_Stripes_3.jpg,right,586.7599998600781,true,low,false
tceWimqr,3ha5odm5ld5arw3bkcnh3xryudvvsa,3pqmudrv7vjiywe97vzm9qr8041ii6,tceWimqr,2020-0188,2020-06-04,07:53:38,08:20:50,NA,incomplete,5,color,0,1,right,Blue_Plus_Dots_2.jpg,Red_Plus_Grid_1.jpg,Blue_Star_Stripes_3.jpg,right,442.77999992482364,true,low,false
tceWimqr,3ha5odm5ld5arw3bkcnh3xryudvvsa,3pqmudrv7vjiywe97vzm9qr8041ii6,tceWimqr,2020-0188,2020-06-04,07:53:38,08:20:50,NA,incomplete,6,color,0,1,right,Purple_Triangle_Dots_2.jpg,Red_Triangle_Grid_1.jpg,Purple_Star_Chess_3.jpg,right,584.559999871999,true,low,false
tceWimqr,3ha5odm5ld5arw3bkcnh3xryudvvsa,3pqmudrv7vjiywe97vzm9qr8041ii6,tceWimqr,2020-0188,2020-06-04,07:53:38,08:20:50,NA,incomplete,7,color,0,0,right,Red_Star_Grid_3.jpg,Purple_Star_Dots_1.jpg,Red_Triangle_Stripes_2.jpg,right,613.4000001475215,true,low,false
tceWimqr,3ha5odm5ld5arw3bkcnh3xryudvvsa,3pqmudrv7vjiywe97vzm9qr8041ii6,tceWimqr,2020-0188,2020-06-04,07:53:38,08:20:50,NA,incomplete,8,color,0,1,left,Green_Triangle_Grid_4.jpg,Green_Plus_Dots_3.jpg,Blue_Triangle_Chess_1.jpg,left,538.9649998396635,true,low,false
tceWimqr,3ha5odm5ld5arw3bkcnh3xryudvvsa,3pqmudrv7vjiywe97vzm9qr8041ii6,tceWimqr,2020-0188,2020-06-04,07:53:38,08:20:50,NA,incomplete,9,color,0,1,right,Blue_Star_Stripes_3.jpg,Purple_Star_Grid_2.jpg,Blue_Plus_Chess_1.jpg,right,920.7399999722838,true,low,false
tceWimqr,3ha5odm5ld5arw3bkcnh3xryudvvsa,3pqmudrv7vjiywe97vzm9qr8041ii6,tceWimqr,2020-0188,2020-06-04,07:53:38,08:20:50,NA,incomplete,10,color,0,1,left,Green_Triangle_Stripes_2.jpg,Green_Plus_Grid_3.jpg,Red_Triangle_Dots_1.jpg,left,662.1850000228733,true,low,false
tceWimqr,3ha5odm5ld5arw3bkcnh3xryudvvsa,3pqmudrv7vjiywe97vzm9qr8041ii6,tceWimqr,2020-0188,2020-06-04,07:53:38,08:20:50,NA,incomplete,11,color,0,0,left,Purple_Triangle_Stripes_4.jpg,Purple_Star_Dots_2.jpg,Blue_Triangle_Chess_1.jpg,left,605.2449999842793,true,low,false
tceWimqr,3ha5odm5ld5arw3bkcnh3xryudvvsa,3pqmudrv7vjiywe97vzm9qr8041ii6,tceWimqr,2020-0188,2020-06-04,07:53:38,08:20:50,NA,incomplete,12,color,0,1,left,Red_Circle_Stripes_3.jpg,Red_Triangle_Grid_2.jpg,Green_Circle_Chess_4.jpg,right,769.9499998707324,false,low,false
tceWimqr,3ha5odm5ld5arw3bkcnh3xryudvvsa,3pqmudrv7vjiywe97vzm9qr8041ii6,tceWimqr,2020-0188,2020-06-04,07:53:38,08:20:50,NA,incomplete,13,color,0,1,left,Green_Star_Chess_2.jpg,Green_Plus_Grid_3.jpg,Purple_Star_Stripes_4.jpg,left,952.0300000440329,true,low,false
tceWimqr,3ha5odm5ld5arw3bkcnh3xryudvvsa,3pqmudrv7vjiywe97vzm9qr8041ii6,tceWimqr,2020-0188,2020-06-04,07:53:38,08:20:50,NA,incomplete,14,color,0,1,right,Blue_Triangle_Dots_4.jpg,Red_Triangle_Stripes_1.jpg,Blue_Star_Grid_2.jpg,right,616.0850001033396,true,low,false
tceWimqr,3ha5odm5ld5arw3bkcnh3xryudvvsa,3pqmudrv7vjiywe97vzm9qr8041ii6,tceWimqr,2020-0188,2020-06-04,07:53:38,08:20:50,NA,incomplete,15,color,0,0,left,Blue_Triangle_Chess_2.jpg,Blue_Plus_Grid_3.jpg,Purple_Triangle_Dots_1.jpg,left,988.8049999717623,true,low,false
tceWimqr,3ha5odm5ld5arw3bkcnh3xryudvvsa,3pqmudrv7vjiywe97vzm9qr8041ii6,tceWimqr,2020-0188,2020-06-04,07:53:38,08:20:50,NA,incomplete,16,color,0,0,right,Blue_Circle_Grid_2.jpg,Green_Circle_Chess_4.jpg,Blue_Triangle_Stripes_3.jpg,right,754.0749998297542,true,low,false
tceWimqr,3ha5odm5ld5arw3bkcnh3xryudvvsa,3pqmudrv7vjiywe97vzm9qr8041ii6,tceWimqr,2020-0188,2020-06-04,07:53:38,08:20:50,NA,incomplete,17,color,0,1,right,Blue_Circle_Dots_4.jpg,Green_Circle_Chess_1.jpg,Blue_Star_Grid_2.jpg,right,727.8999998234212,true,low,false
tceWimqr,3ha5odm5ld5arw3bkcnh3xryudvvsa,3pqmudrv7vjiywe97vzm9qr8041ii6,tceWimqr,2020-0188,2020-06-04,07:53:38,08:20:50,NA,incomplete,18,color,0,0,right,Green_Plus_Grid_1.jpg,Purple_Plus_Stripes_2.jpg,Green_Circle_Chess_4.jpg,left,961.0550000797957,false,low,false
tceWimqr,3ha5odm5ld5arw3bkcnh3xryudvvsa,3pqmudrv7vjiywe97vzm9qr8041ii6,tceWimqr,2020-0188,2020-06-04,07:53:38,08:20:50,NA,incomplete,19,color,0,1,right,Purple_Star_Grid_4.jpg,Blue_Star_Chess_3.jpg,Purple_Circle_Dots_1.jpg,right,733.5600000806153,true,low,false
tceWimqr,3ha5odm5ld5arw3bkcnh3xryudvvsa,3pqmudrv7vjiywe97vzm9qr8041ii6,tceWimqr,2020-0188,2020-06-04,07:53:38,08:20:50,NA,incomplete,20,color,0,0,left,Blue_Circle_Stripes_3.jpg,Blue_Plus_Chess_1.jpg,Red_Circle_Dots_2.jpg,right,894.0149999689311,false,low,false
tceWimqr,3ha5odm5ld5arw3bkcnh3xryudvvsa,3pqmudrv7vjiywe97vzm9qr8041ii6,tceWimqr,2020-0188,2020-06-04,07:53:38,08:20:50,NA,incomplete,21,color,0,1,right,Blue_Circle_Chess_4.jpg,Red_Circle_Stripes_2.jpg,Blue_Star_Grid_3.jpg,right,835.4350000154227,true,low,false
tceWimqr,3ha5odm5ld5arw3bkcnh3xryudvvsa,3pqmudrv7vjiywe97vzm9qr8041ii6,tceWimqr,2020-0188,2020-06-04,07:53:38,08:20:50,NA,incomplete,22,color,0,0,right,Purple_Plus_Stripes_4.jpg,Blue_Plus_Chess_3.jpg,Purple_Circle_Grid_1.jpg,right,855.1300000399351,true,low,false
tceWimqr,3ha5odm5ld5arw3bkcnh3xryudvvsa,3pqmudrv7vjiywe97vzm9qr8041ii6,tceWimqr,2020-0188,2020-06-04,07:53:38,08:20:50,NA,incomplete,23,color,0,1,left,Purple_Triangle_Grid_4.jpg,Purple_Plus_Chess_1.jpg,Red_Triangle_Dots_2.jpg,left,937.7850000746548,true,low,false
tceWimqr,3ha5odm5ld5arw3bkcnh3xryudvvsa,3pqmudrv7vjiywe97vzm9qr8041ii6,tceWimqr,2020-0188,2020-06-04,07:53:38,08:20:50,NA,incomplete,24,color,0,1,right,Red_Plus_Stripes_3.jpg,Purple_Plus_Chess_4.jpg,Red_Star_Grid_2.jpg,left,662.3599999584258,false,low,false
tceWimqr,3ha5odm5ld5arw3bkcnh3xryudvvsa,3pqmudrv7vjiywe97vzm9qr8041ii6,tceWimqr,2020-0188,2020-06-04,07:53:38,08:20:50,NA,incomplete,25,color,0,1,left,Blue_Circle_Stripes_1.jpg,Blue_Triangle_Chess_4.jpg,Red_Circle_Grid_3.jpg,left,804.3049999978393,true,low,false
tceWimqr,3ha5odm5ld5arw3bkcnh3xryudvvsa,3pqmudrv7vjiywe97vzm9qr8041ii6,tceWimqr,2020-0188,2020-06-04,07:53:38,08:20:50,NA,incomplete,26,color,0,0,left,Red_Plus_Dots_2.jpg,Red_Triangle_Chess_4.jpg,Green_Plus_Stripes_3.jpg,left,987.1149999089539,true,low,false
tceWimqr,3ha5odm5ld5arw3bkcnh3xryudvvsa,3pqmudrv7vjiywe97vzm9qr8041ii6,tceWimqr,2020-0188,2020-06-04,07:53:38,08:20:50,NA,incomplete,27,color,0,1,left,Red_Star_Chess_4.jpg,Red_Triangle_Stripes_1.jpg,Green_Star_Grid_2.jpg,left,961.0200000461191,true,low,false
tceWimqr,3ha5odm5ld5arw3bkcnh3xryudvvsa,3pqmudrv7vjiywe97vzm9qr8041ii6,tceWimqr,2020-0188,2020-06-04,07:53:38,08:20:50,NA,incomplete,28,color,0,1,right,Purple_Triangle_Dots_3.jpg,Red_Triangle_Chess_2.jpg,Purple_Star_Stripes_1.jpg,none,0,false,low,false
tceWimqr,3ha5odm5ld5arw3bkcnh3xryudvvsa,3pqmudrv7vjiywe97vzm9qr8041ii6,tceWimqr,2020-0188,2020-06-04,07:53:38,08:20:50,NA,incomplete,29,color,0,1,right,Blue_Circle_Stripes_1.jpg,Purple_Circle_Grid_3.jpg,Blue_Triangle_Dots_2.jpg,right,547.224999871105,true,low,false
tceWimqr,3ha5odm5ld5arw3bkcnh3xryudvvsa,3pqmudrv7vjiywe97vzm9qr8041ii6,tceWimqr,2020-0188,2020-06-04,07:53:38,08:20:50,NA,incomplete,30,shape,1,1,left,Red_Circle_Dots_1.jpg,Purple_Circle_Grid_4.jpg,Red_Star_Chess_2.jpg,left,891.9950001873076,true,low,false
tceWimqr,3ha5odm5ld5arw3bkcnh3xryudvvsa,3pqmudrv7vjiywe97vzm9qr8041ii6,tceWimqr,2020-0188,2020-06-04,07:53:38,08:20:50,NA,incomplete,31,shape,1,1,right,Green_Plus_Chess_2.jpg,Green_Triangle_Grid_1.jpg,Purple_Plus_Dots_3.jpg,right,741.0949999466538,true,low,false
tceWimqr,3ha5odm5ld5arw3bkcnh3xryudvvsa,3pqmudrv7vjiywe97vzm9qr8041ii6,tceWimqr,2020-0188,2020-06-04,07:53:38,08:20:50,NA,incomplete,32,shape,1,1,right,Green_Circle_Dots_3.jpg,Green_Plus_Stripes_2.jpg,Blue_Circle_Grid_1.jpg,right,598.0449998751283,true,low,false
tceWimqr,3ha5odm5ld5arw3bkcnh3xryudvvsa,3pqmudrv7vjiywe97vzm9qr8041ii6,tceWimqr,2020-0188,2020-06-04,07:53:38,08:20:50,NA,incomplete,33,shape,1,1,right,Green_Star_Chess_1.jpg,Green_Plus_Stripes_4.jpg,Purple_Star_Grid_2.jpg,right,615.1099998969585,true,low,false
tceWimqr,3ha5odm5ld5arw3bkcnh3xryudvvsa,3pqmudrv7vjiywe97vzm9qr8041ii6,tceWimqr,2020-0188,2020-06-04,07:53:38,08:20:50,NA,incomplete,34,shape,1,1,right,Blue_Plus_Dots_3.jpg,Blue_Circle_Grid_2.jpg,Green_Plus_Chess_1.jpg,right,665.5350001528859,true,low,false
tceWimqr,3ha5odm5ld5arw3bkcnh3xryudvvsa,3pqmudrv7vjiywe97vzm9qr8041ii6,tceWimqr,2020-0188,2020-06-04,07:53:38,08:20:50,NA,incomplete,35,shape,1,1,left,Purple_Circle_Stripes_2.jpg,Blue_Circle_Chess_1.jpg,Purple_Star_Dots_3.jpg,left,639.3499998375773,true,low,false
tceWimqr,3ha5odm5ld5arw3bkcnh3xryudvvsa,3pqmudrv7vjiywe97vzm9qr8041ii6,tceWimqr,2020-0188,2020-06-04,07:53:38,08:20:50,NA,incomplete,36,shape,1,1,left,Purple_Circle_Stripes_1.jpg,Green_Circle_Dots_4.jpg,Purple_Plus_Grid_2.jpg,left,654.9500001128763,true,low,false
tceWimqr,3ha5odm5ld5arw3bkcnh3xryudvvsa,3pqmudrv7vjiywe97vzm9qr8041ii6,tceWimqr,2020-0188,2020-06-04,07:53:38,08:20:50,NA,incomplete,37,shape,1,1,right,Green_Circle_Dots_3.jpg,Green_Triangle_Grid_1.jpg,Purple_Circle_Chess_4.jpg,right,554.7450000885874,true,low,false
tceWimqr,3ha5odm5ld5arw3bkcnh3xryudvvsa,3pqmudrv7vjiywe97vzm9qr8041ii6,tceWimqr,2020-0188,2020-06-04,07:53:38,08:20:50,NA,incomplete,38,shape,1,1,left,Purple_Circle_Stripes_2.jpg,Blue_Circle_Chess_4.jpg,Purple_Star_Dots_1.jpg,left,531.734999967739,true,low,false
tceWimqr,3ha5odm5ld5arw3bkcnh3xryudvvsa,3pqmudrv7vjiywe97vzm9qr8041ii6,tceWimqr,2020-0188,2020-06-04,07:53:38,08:20:50,NA,incomplete,39,shape,1,1,right,Purple_Circle_Stripes_4.jpg,Purple_Star_Chess_1.jpg,Red_Circle_Grid_3.jpg,right,672.5650001317263,true,low,false
tceWimqr,3ha5odm5ld5arw3bkcnh3xryudvvsa,3pqmudrv7vjiywe97vzm9qr8041ii6,tceWimqr,2020-0188,2020-06-04,07:53:38,08:20:50,NA,incomplete,40,shape,1,1,left,Red_Triangle_Stripes_2.jpg,Purple_Triangle_Grid_4.jpg,Red_Star_Chess_1.jpg,left,667.0249998569489,true,low,false
tceWimqr,3ha5odm5ld5arw3bkcnh3xryudvvsa,3pqmudrv7vjiywe97vzm9qr8041ii6,tceWimqr,2020-0188,2020-06-04,07:53:38,08:20:50,NA,incomplete,41,shape,1,1,left,Blue_Triangle_Chess_2.jpg,Purple_Triangle_Grid_3.jpg,Blue_Plus_Dots_1.jpg,left,622.2900000866503,true,low,false
tceWimqr,3ha5odm5ld5arw3bkcnh3xryudvvsa,3pqmudrv7vjiywe97vzm9qr8041ii6,tceWimqr,2020-0188,2020-06-04,07:53:38,08:20:50,NA,incomplete,42,shape,1,1,right,Green_Star_Dots_4.jpg,Green_Circle_Grid_3.jpg,Red_Star_Chess_2.jpg,right,555.2950000856072,true,low,false
tceWimqr,3ha5odm5ld5arw3bkcnh3xryudvvsa,3pqmudrv7vjiywe97vzm9qr8041ii6,tceWimqr,2020-0188,2020-06-04,07:53:38,08:20:50,NA,incomplete,43,shape,1,1,left,Blue_Circle_Chess_3.jpg,Purple_Circle_Stripes_2.jpg,Blue_Star_Dots_1.jpg,left,995.155000127852,true,low,false
tceWimqr,3ha5odm5ld5arw3bkcnh3xryudvvsa,3pqmudrv7vjiywe97vzm9qr8041ii6,tceWimqr,2020-0188,2020-06-04,07:53:38,08:20:50,NA,incomplete,44,shape,1,1,left,Red_Plus_Grid_2.jpg,Blue_Plus_Chess_3.jpg,Red_Triangle_Stripes_4.jpg,left,709.0650000609457,true,low,false
tceWimqr,3ha5odm5ld5arw3bkcnh3xryudvvsa,3pqmudrv7vjiywe97vzm9qr8041ii6,tceWimqr,2020-0188,2020-06-04,07:53:38,08:20:50,NA,incomplete,45,shape,1,1,left,Red_Star_Grid_3.jpg,Green_Star_Stripes_4.jpg,Red_Circle_Chess_2.jpg,left,525.2499999478459,true,low,false
tceWimqr,3ha5odm5ld5arw3bkcnh3xryudvvsa,3pqmudrv7vjiywe97vzm9qr8041ii6,tceWimqr,2020-0188,2020-06-04,07:53:38,08:20:50,NA,incomplete,46,shape,1,1,right,Purple_Circle_Dots_3.jpg,Purple_Star_Chess_1.jpg,Green_Circle_Grid_4.jpg,right,518.269999884069,true,low,false
tceWimqr,3ha5odm5ld5arw3bkcnh3xryudvvsa,3pqmudrv7vjiywe97vzm9qr8041ii6,tceWimqr,2020-0188,2020-06-04,07:53:38,08:20:50,NA,incomplete,47,shape,1,1,right,Blue_Star_Dots_2.jpg,Blue_Plus_Chess_3.jpg,Green_Star_Grid_1.jpg,right,835.6250000651926,true,low,false
tceWimqr,3ha5odm5ld5arw3bkcnh3xryudvvsa,3pqmudrv7vjiywe97vzm9qr8041ii6,tceWimqr,2020-0188,2020-06-04,07:53:38,08:20:50,NA,incomplete,48,shape,1,1,right,Green_Circle_Dots_3.jpg,Green_Plus_Stripes_1.jpg,Blue_Circle_Grid_2.jpg,right,462.98499987460673,true,low,false
tceWimqr,3ha5odm5ld5arw3bkcnh3xryudvvsa,3pqmudrv7vjiywe97vzm9qr8041ii6,tceWimqr,2020-0188,2020-06-04,07:53:38,08:20:50,NA,incomplete,49,shape,1,1,left,Purple_Plus_Grid_3.jpg,Blue_Plus_Dots_4.jpg,Purple_Circle_Chess_1.jpg,left,792.5099998246878,true,low,false
tceWimqr,3ha5odm5ld5arw3bkcnh3xryudvvsa,3pqmudrv7vjiywe97vzm9qr8041ii6,tceWimqr,2020-0188,2020-06-04,07:53:38,08:20:50,NA,incomplete,50,shape,1,1,left,Blue_Triangle_Chess_2.jpg,Red_Triangle_Dots_3.jpg,Blue_Circle_Grid_1.jpg,left,1049.4550000876188,true,low,false
tceWimqr,3ha5odm5ld5arw3bkcnh3xryudvvsa,3pqmudrv7vjiywe97vzm9qr8041ii6,tceWimqr,2020-0188,2020-06-04,07:53:38,08:20:50,NA,incomplete,51,shape,1,1,right,Green_Star_Grid_1.jpg,Green_Circle_Chess_2.jpg,Red_Star_Dots_3.jpg,right,524.3400000035763,true,low,false
tceWimqr,3ha5odm5ld5arw3bkcnh3xryudvvsa,3pqmudrv7vjiywe97vzm9qr8041ii6,tceWimqr,2020-0188,2020-06-04,07:53:38,08:20:50,NA,incomplete,52,shape,1,1,right,Purple_Star_Chess_3.jpg,Purple_Triangle_Grid_1.jpg,Red_Star_Stripes_2.jpg,right,569.6849999949336,true,low,false
tceWimqr,3ha5odm5ld5arw3bkcnh3xryudvvsa,3pqmudrv7vjiywe97vzm9qr8041ii6,tceWimqr,2020-0188,2020-06-04,07:53:38,08:20:50,NA,incomplete,53,shape,1,0,right,Red_Star_Dots_1.jpg,Red_Circle_Grid_4.jpg,Purple_Star_Stripes_3.jpg,right,700.599999865517,true,low,false
tceWimqr,3ha5odm5ld5arw3bkcnh3xryudvvsa,3pqmudrv7vjiywe97vzm9qr8041ii6,tceWimqr,2020-0188,2020-06-04,07:53:38,08:20:50,NA,incomplete,54,shape,1,1,left,Green_Plus_Stripes_3.jpg,Blue_Plus_Grid_4.jpg,Green_Star_Chess_1.jpg,left,641.9199998490512,true,low,false
tceWimqr,3ha5odm5ld5arw3bkcnh3xryudvvsa,3pqmudrv7vjiywe97vzm9qr8041ii6,tceWimqr,2020-0188,2020-06-04,07:53:38,08:20:50,NA,incomplete,55,shape,1,1,left,Blue_Star_Stripes_3.jpg,Red_Star_Dots_2.jpg,Blue_Circle_Chess_1.jpg,left,778.385000070557,true,low,false
tceWimqr,3ha5odm5ld5arw3bkcnh3xryudvvsa,3pqmudrv7vjiywe97vzm9qr8041ii6,tceWimqr,2020-0188,2020-06-04,07:53:38,08:20:50,NA,incomplete,56,shape,1,0,right,Green_Triangle_Dots_3.jpg,Green_Circle_Stripes_1.jpg,Red_Triangle_Grid_2.jpg,right,554.5599998440593,true,low,false
tceWimqr,3ha5odm5ld5arw3bkcnh3xryudvvsa,3pqmudrv7vjiywe97vzm9qr8041ii6,tceWimqr,2020-0188,2020-06-04,07:53:38,08:20:50,NA,incomplete,57,shape,1,1,left,Red_Plus_Stripes_4.jpg,Purple_Plus_Dots_3.jpg,Red_Triangle_Chess_2.jpg,right,743.9900001045316,false,low,false
tceWimqr,3ha5odm5ld5arw3bkcnh3xryudvvsa,3pqmudrv7vjiywe97vzm9qr8041ii6,tceWimqr,2020-0188,2020-06-04,07:53:38,08:20:50,NA,incomplete,58,shape,1,1,left,Purple_Triangle_Stripes_3.jpg,Red_Triangle_Grid_2.jpg,Purple_Plus_Dots_1.jpg,right,919.8149999137968,false,low,false
tceWimqr,3ha5odm5ld5arw3bkcnh3xryudvvsa,3pqmudrv7vjiywe97vzm9qr8041ii6,tceWimqr,2020-0188,2020-06-04,07:53:38,08:20:50,NA,incomplete,59,shape,1,0,right,Green_Triangle_Stripes_3.jpg,Green_Plus_Dots_1.jpg,Red_Triangle_Chess_4.jpg,right,624.3150001391768,true,low,false
tceWimqr,3ha5odm5ld5arw3bkcnh3xryudvvsa,3pqmudrv7vjiywe97vzm9qr8041ii6,tceWimqr,2020-0188,2020-06-04,07:53:38,08:20:50,NA,incomplete,60,color,0,0,right,Blue_Circle_Dots_2.jpg,Purple_Circle_Chess_3.jpg,Blue_Plus_Grid_4.jpg,right,555.2250000182539,true,low,false
tceWimqr,3ha5odm5ld5arw3bkcnh3xryudvvsa,3pqmudrv7vjiywe97vzm9qr8041ii6,tceWimqr,2020-0188,2020-06-04,07:53:38,08:20:50,NA,incomplete,61,color,0,1,right,Red_Circle_Stripes_3.jpg,Blue_Circle_Grid_2.jpg,Red_Star_Dots_4.jpg,left,784.5250000245869,false,low,false
tceWimqr,3ha5odm5ld5arw3bkcnh3xryudvvsa,3pqmudrv7vjiywe97vzm9qr8041ii6,tceWimqr,2020-0188,2020-06-04,07:53:38,08:20:50,NA,incomplete,62,color,0,1,left,Purple_Triangle_Dots_1.jpg,Purple_Star_Stripes_4.jpg,Green_Triangle_Grid_3.jpg,left,569.8949999641627,true,low,false
tceWimqr,3ha5odm5ld5arw3bkcnh3xryudvvsa,3pqmudrv7vjiywe97vzm9qr8041ii6,tceWimqr,2020-0188,2020-06-04,07:53:38,08:20:50,NA,incomplete,63,color,0,0,left,Purple_Triangle_Stripes_1.jpg,Purple_Plus_Dots_4.jpg,Green_Triangle_Chess_3.jpg,left,551.9550000317395,true,low,false
tceWimqr,3ha5odm5ld5arw3bkcnh3xryudvvsa,3pqmudrv7vjiywe97vzm9qr8041ii6,tceWimqr,2020-0188,2020-06-04,07:53:38,08:20:50,NA,incomplete,64,color,0,1,right,Red_Plus_Stripes_4.jpg,Blue_Plus_Chess_2.jpg,Red_Triangle_Grid_3.jpg,right,572.5449998863041,true,low,false
tceWimqr,3ha5odm5ld5arw3bkcnh3xryudvvsa,3pqmudrv7vjiywe97vzm9qr8041ii6,tceWimqr,2020-0188,2020-06-04,07:53:38,08:20:50,NA,incomplete,65,color,0,0,right,Purple_Plus_Grid_3.jpg,Green_Plus_Chess_2.jpg,Purple_Triangle_Stripes_1.jpg,right,590.8399999607354,true,low,false
tceWimqr,3ha5odm5ld5arw3bkcnh3xryudvvsa,3pqmudrv7vjiywe97vzm9qr8041ii6,tceWimqr,2020-0188,2020-06-04,07:53:38,08:20:50,NA,incomplete,66,color,0,1,right,Red_Star_Chess_3.jpg,Purple_Star_Stripes_4.jpg,Red_Plus_Dots_2.jpg,right,1088.9250000473112,true,low,false
tceWimqr,3ha5odm5ld5arw3bkcnh3xryudvvsa,3pqmudrv7vjiywe97vzm9qr8041ii6,tceWimqr,2020-0188,2020-06-04,07:53:38,08:20:50,NA,incomplete,67,color,0,0,right,Green_Circle_Grid_2.jpg,Purple_Circle_Stripes_3.jpg,Green_Star_Chess_1.jpg,left,795.6550000235438,false,low,false
tceWimqr,3ha5odm5ld5arw3bkcnh3xryudvvsa,3pqmudrv7vjiywe97vzm9qr8041ii6,tceWimqr,2020-0188,2020-06-04,07:53:38,08:20:50,NA,incomplete,68,color,0,1,left,Purple_Triangle_Chess_2.jpg,Purple_Star_Dots_4.jpg,Blue_Triangle_Grid_1.jpg,left,1055.739999981597,true,low,false
tceWimqr,3ha5odm5ld5arw3bkcnh3xryudvvsa,3pqmudrv7vjiywe97vzm9qr8041ii6,tceWimqr,2020-0188,2020-06-04,07:53:38,08:20:50,NA,incomplete,69,color,0,1,left,Blue_Circle_Chess_2.jpg,Blue_Triangle_Dots_1.jpg,Red_Circle_Grid_4.jpg,right,648.964999942109,false,low,false
tceWimqr,3ha5odm5ld5arw3bkcnh3xryudvvsa,3pqmudrv7vjiywe97vzm9qr8041ii6,tceWimqr,2020-0188,2020-06-04,07:53:38,08:20:50,NA,incomplete,70,color,0,1,right,Blue_Plus_Grid_1.jpg,Red_Plus_Dots_2.jpg,Blue_Triangle_Chess_4.jpg,left,713.7000001966953,false,low,false
tceWimqr,3ha5odm5ld5arw3bkcnh3xryudvvsa,3pqmudrv7vjiywe97vzm9qr8041ii6,tceWimqr,2020-0188,2020-06-04,07:53:38,08:20:50,NA,incomplete,71,color,0,1,left,Green_Circle_Dots_4.jpg,Green_Plus_Chess_3.jpg,Blue_Circle_Grid_1.jpg,left,625.0049998052418,true,low,false
tceWimqr,3ha5odm5ld5arw3bkcnh3xryudvvsa,3pqmudrv7vjiywe97vzm9qr8041ii6,tceWimqr,2020-0188,2020-06-04,07:53:38,08:20:50,NA,incomplete,72,color,0,1,right,Blue_Circle_Dots_2.jpg,Red_Circle_Stripes_1.jpg,Blue_Plus_Grid_4.jpg,right,550.2599999308586,true,low,false
tceWimqr,3ha5odm5ld5arw3bkcnh3xryudvvsa,3pqmudrv7vjiywe97vzm9qr8041ii6,tceWimqr,2020-0188,2020-06-04,07:53:38,08:20:50,NA,incomplete,73,color,0,1,right,Green_Circle_Chess_4.jpg,Red_Circle_Dots_3.jpg,Green_Plus_Grid_1.jpg,right,674.4199998211116,true,low,false
tceWimqr,3ha5odm5ld5arw3bkcnh3xryudvvsa,3pqmudrv7vjiywe97vzm9qr8041ii6,tceWimqr,2020-0188,2020-06-04,07:53:38,08:20:50,NA,incomplete,74,color,0,1,right,Purple_Circle_Grid_3.jpg,Red_Circle_Chess_1.jpg,Purple_Triangle_Dots_2.jpg,right,681.8649999331683,true,low,false
tceWimqr,3ha5odm5ld5arw3bkcnh3xryudvvsa,3pqmudrv7vjiywe97vzm9qr8041ii6,tceWimqr,2020-0188,2020-06-04,07:53:38,08:20:50,NA,incomplete,75,color,0,1,right,Blue_Plus_Grid_4.jpg,Green_Plus_Chess_2.jpg,Blue_Star_Stripes_3.jpg,right,487.3849998693913,true,low,false
tceWimqr,3ha5odm5ld5arw3bkcnh3xryudvvsa,3pqmudrv7vjiywe97vzm9qr8041ii6,tceWimqr,2020-0188,2020-06-04,07:53:38,08:20:50,NA,incomplete,76,color,0,1,right,Red_Plus_Stripes_2.jpg,Purple_Plus_Chess_4.jpg,Red_Triangle_Dots_3.jpg,right,572.9150001425296,true,low,false
tceWimqr,3ha5odm5ld5arw3bkcnh3xryudvvsa,3pqmudrv7vjiywe97vzm9qr8041ii6,tceWimqr,2020-0188,2020-06-04,07:53:38,08:20:50,NA,incomplete,77,color,0,1,right,Blue_Plus_Chess_4.jpg,Green_Plus_Grid_3.jpg,Blue_Star_Dots_2.jpg,right,423.84500009939075,true,low,false
tceWimqr,3ha5odm5ld5arw3bkcnh3xryudvvsa,3pqmudrv7vjiywe97vzm9qr8041ii6,tceWimqr,2020-0188,2020-06-04,07:53:38,08:20:50,NA,incomplete,78,color,0,1,right,Red_Plus_Dots_1.jpg,Purple_Plus_Grid_4.jpg,Red_Triangle_Chess_2.jpg,right,460.1600000169128,true,low,false
tceWimqr,3ha5odm5ld5arw3bkcnh3xryudvvsa,3pqmudrv7vjiywe97vzm9qr8041ii6,tceWimqr,2020-0188,2020-06-04,07:53:38,08:20:50,NA,incomplete,79,color,0,1,right,Purple_Triangle_Stripes_4.jpg,Red_Triangle_Chess_3.jpg,Purple_Circle_Dots_2.jpg,right,459.8300000652671,true,low,false
tceWimqr,3ha5odm5ld5arw3bkcnh3xryudvvsa,3pqmudrv7vjiywe97vzm9qr8041ii6,tceWimqr,2020-0188,2020-06-04,07:53:38,08:20:50,NA,incomplete,80,color,0,1,right,Purple_Plus_Grid_2.jpg,Blue_Plus_Chess_3.jpg,Purple_Triangle_Dots_4.jpg,right,562.1700000483543,true,low,false
tceWimqr,3ha5odm5ld5arw3bkcnh3xryudvvsa,3pqmudrv7vjiywe97vzm9qr8041ii6,tceWimqr,2020-0188,2020-06-04,07:53:38,08:20:50,NA,incomplete,81,color,0,1,right,Purple_Circle_Chess_3.jpg,Red_Circle_Grid_2.jpg,Purple_Star_Stripes_1.jpg,right,558.4150000941008,true,low,false
tceWimqr,3ha5odm5ld5arw3bkcnh3xryudvvsa,3pqmudrv7vjiywe97vzm9qr8041ii6,tceWimqr,2020-0188,2020-06-04,07:53:38,08:20:50,NA,incomplete,82,color,0,1,right,Purple_Triangle_Chess_3.jpg,Blue_Triangle_Stripes_4.jpg,Purple_Star_Dots_2.jpg,right,636.2799999769777,true,low,false
tceWimqr,3ha5odm5ld5arw3bkcnh3xryudvvsa,3pqmudrv7vjiywe97vzm9qr8041ii6,tceWimqr,2020-0188,2020-06-04,07:53:38,08:20:50,NA,incomplete,83,color,0,1,left,Green_Star_Stripes_4.jpg,Green_Plus_Grid_1.jpg,Purple_Star_Chess_2.jpg,left,531.4400000497699,true,low,false
tceWimqr,3ha5odm5ld5arw3bkcnh3xryudvvsa,3pqmudrv7vjiywe97vzm9qr8041ii6,tceWimqr,2020-0188,2020-06-04,07:53:38,08:20:50,NA,incomplete,84,color,0,1,left,Green_Star_Dots_2.jpg,Green_Triangle_Chess_3.jpg,Purple_Star_Stripes_4.jpg,left,675.1550000626594,true,low,false
tceWimqr,3ha5odm5ld5arw3bkcnh3xryudvvsa,3pqmudrv7vjiywe97vzm9qr8041ii6,tceWimqr,2020-0188,2020-06-04,07:53:38,08:20:50,NA,incomplete,85,color,0,1,right,Purple_Circle_Stripes_1.jpg,Blue_Circle_Grid_4.jpg,Purple_Triangle_Chess_2.jpg,right,534.9850000347942,true,low,false
tceWimqr,3ha5odm5ld5arw3bkcnh3xryudvvsa,3pqmudrv7vjiywe97vzm9qr8041ii6,tceWimqr,2020-0188,2020-06-04,07:53:38,08:20:50,NA,incomplete,86,color,0,1,right,Purple_Circle_Chess_1.jpg,Blue_Circle_Stripes_3.jpg,Purple_Plus_Grid_2.jpg,right,494.2350001074374,true,low,false
tceWimqr,3ha5odm5ld5arw3bkcnh3xryudvvsa,3pqmudrv7vjiywe97vzm9qr8041ii6,tceWimqr,2020-0188,2020-06-04,07:53:38,08:20:50,NA,incomplete,87,color,0,0,left,Blue_Star_Stripes_2.jpg,Blue_Triangle_Chess_3.jpg,Purple_Star_Dots_1.jpg,left,545.8900001831353,true,low,false
tceWimqr,3ha5odm5ld5arw3bkcnh3xryudvvsa,3pqmudrv7vjiywe97vzm9qr8041ii6,tceWimqr,2020-0188,2020-06-04,07:53:38,08:20:50,NA,incomplete,88,color,0,1,left,Purple_Star_Stripes_2.jpg,Purple_Plus_Dots_1.jpg,Red_Star_Grid_3.jpg,left,504.0049999952316,true,low,false
tceWimqr,3ha5odm5ld5arw3bkcnh3xryudvvsa,3pqmudrv7vjiywe97vzm9qr8041ii6,tceWimqr,2020-0188,2020-06-04,07:53:38,08:20:50,NA,incomplete,89,color,0,1,right,Green_Star_Chess_3.jpg,Red_Star_Dots_4.jpg,Green_Circle_Grid_1.jpg,right,531.4200001303107,true,low,false
tceWimqr,3ha5odm5ld5arw3bkcnh3xryudvvsa,3pqmudrv7vjiywe97vzm9qr8041ii6,tceWimqr,2020-0188,2020-06-04,07:53:38,08:20:50,NA,incomplete,90,shape,1,0,right,Purple_Circle_Stripes_1.jpg,Purple_Star_Chess_4.jpg,Blue_Circle_Grid_3.jpg,left,856.4899999182671,false,low,false
tceWimqr,3ha5odm5ld5arw3bkcnh3xryudvvsa,3pqmudrv7vjiywe97vzm9qr8041ii6,tceWimqr,2020-0188,2020-06-04,07:53:38,08:20:50,NA,incomplete,91,shape,1,0,left,Blue_Star_Chess_1.jpg,Red_Star_Stripes_2.jpg,Blue_Triangle_Grid_3.jpg,right,451.850000070408,false,low,false
tceWimqr,3ha5odm5ld5arw3bkcnh3xryudvvsa,3pqmudrv7vjiywe97vzm9qr8041ii6,tceWimqr,2020-0188,2020-06-04,07:53:38,08:20:50,NA,incomplete,92,shape,1,1,left,Green_Circle_Dots_3.jpg,Blue_Circle_Chess_1.jpg,Green_Plus_Grid_2.jpg,right,431.0600000899285,false,low,false
tceWimqr,3ha5odm5ld5arw3bkcnh3xryudvvsa,3pqmudrv7vjiywe97vzm9qr8041ii6,tceWimqr,2020-0188,2020-06-04,07:53:38,08:20:50,NA,incomplete,93,shape,1,0,left,Red_Plus_Chess_4.jpg,Green_Plus_Dots_3.jpg,Red_Circle_Stripes_1.jpg,right,523.9949999377131,false,low,false
tceWimqr,3ha5odm5ld5arw3bkcnh3xryudvvsa,3pqmudrv7vjiywe97vzm9qr8041ii6,tceWimqr,2020-0188,2020-06-04,07:53:38,08:20:50,NA,incomplete,94,shape,1,0,right,Green_Star_Stripes_3.jpg,Green_Circle_Chess_1.jpg,Red_Star_Dots_2.jpg,left,611.4850000012666,false,low,false
tceWimqr,3ha5odm5ld5arw3bkcnh3xryudvvsa,3pqmudrv7vjiywe97vzm9qr8041ii6,tceWimqr,2020-0188,2020-06-04,07:53:38,08:20:50,NA,incomplete,95,shape,1,1,right,Blue_Star_Dots_2.jpg,Blue_Plus_Stripes_4.jpg,Green_Star_Grid_3.jpg,left,573.2849999330938,false,low,false
tceWimqr,3ha5odm5ld5arw3bkcnh3xryudvvsa,3pqmudrv7vjiywe97vzm9qr8041ii6,tceWimqr,2020-0188,2020-06-04,07:53:38,08:20:50,NA,incomplete,96,shape,1,1,left,Blue_Plus_Chess_1.jpg,Green_Plus_Dots_2.jpg,Blue_Circle_Stripes_3.jpg,right,466.0799999255687,false,low,false
tceWimqr,3ha5odm5ld5arw3bkcnh3xryudvvsa,3pqmudrv7vjiywe97vzm9qr8041ii6,tceWimqr,2020-0188,2020-06-04,07:53:38,08:20:50,NA,incomplete,97,shape,1,1,right,Green_Triangle_Dots_3.jpg,Green_Plus_Stripes_2.jpg,Purple_Triangle_Grid_4.jpg,left,527.8350000735372,false,low,false
tceWimqr,3ha5odm5ld5arw3bkcnh3xryudvvsa,3pqmudrv7vjiywe97vzm9qr8041ii6,tceWimqr,2020-0188,2020-06-04,07:53:38,08:20:50,NA,incomplete,98,shape,1,1,right,Purple_Plus_Dots_1.jpg,Purple_Triangle_Grid_3.jpg,Red_Plus_Chess_4.jpg,right,632.4499999172986,true,low,false
tceWimqr,3ha5odm5ld5arw3bkcnh3xryudvvsa,3pqmudrv7vjiywe97vzm9qr8041ii6,tceWimqr,2020-0188,2020-06-04,07:53:38,08:20:50,NA,incomplete,99,shape,1,1,right,Red_Plus_Grid_3.jpg,Red_Triangle_Dots_4.jpg,Green_Plus_Stripes_1.jpg,left,798.6149999778718,false,low,false
tceWimqr,3ha5odm5ld5arw3bkcnh3xryudvvsa,3pqmudrv7vjiywe97vzm9qr8041ii6,tceWimqr,2020-0188,2020-06-04,07:53:38,08:20:50,NA,incomplete,100,shape,1,1,left,Red_Circle_Grid_1.jpg,Blue_Circle_Dots_3.jpg,Red_Triangle_Stripes_4.jpg,right,647.0550000667572,false,low,false
tceWimqr,3ha5odm5ld5arw3bkcnh3xryudvvsa,3pqmudrv7vjiywe97vzm9qr8041ii6,tceWimqr,2020-0188,2020-06-04,07:53:38,08:20:50,NA,incomplete,101,shape,1,1,left,Red_Circle_Chess_4.jpg,Green_Circle_Grid_2.jpg,Red_Triangle_Stripes_3.jpg,left,641.7199999559671,true,low,false
tceWimqr,3ha5odm5ld5arw3bkcnh3xryudvvsa,3pqmudrv7vjiywe97vzm9qr8041ii6,tceWimqr,2020-0188,2020-06-04,07:53:38,08:20:50,NA,incomplete,102,shape,1,0,left,Red_Triangle_Dots_2.jpg,Blue_Triangle_Stripes_4.jpg,Red_Plus_Grid_1.jpg,left,597.1150000113994,true,low,false
tceWimqr,3ha5odm5ld5arw3bkcnh3xryudvvsa,3pqmudrv7vjiywe97vzm9qr8041ii6,tceWimqr,2020-0188,2020-06-04,07:53:38,08:20:50,NA,incomplete,103,shape,1,1,right,Blue_Circle_Chess_1.jpg,Blue_Star_Grid_2.jpg,Purple_Circle_Dots_3.jpg,right,715.0399999227375,true,low,false
tceWimqr,3ha5odm5ld5arw3bkcnh3xryudvvsa,3pqmudrv7vjiywe97vzm9qr8041ii6,tceWimqr,2020-0188,2020-06-04,07:53:38,08:20:50,NA,incomplete,104,shape,1,1,right,Green_Star_Dots_1.jpg,Green_Plus_Stripes_2.jpg,Blue_Star_Chess_3.jpg,left,870.9050000179559,false,low,false
tceWimqr,3ha5odm5ld5arw3bkcnh3xryudvvsa,3pqmudrv7vjiywe97vzm9qr8041ii6,tceWimqr,2020-0188,2020-06-04,07:53:38,08:20:50,NA,incomplete,105,shape,1,0,left,Purple_Star_Grid_3.jpg,Red_Star_Stripes_1.jpg,Purple_Circle_Chess_4.jpg,right,741.524999961257,false,low,false
tceWimqr,3ha5odm5ld5arw3bkcnh3xryudvvsa,3pqmudrv7vjiywe97vzm9qr8041ii6,tceWimqr,2020-0188,2020-06-04,07:53:38,08:20:50,NA,incomplete,106,shape,1,1,left,Blue_Plus_Stripes_4.jpg,Purple_Plus_Dots_3.jpg,Blue_Triangle_Chess_1.jpg,left,553.4099999349564,true,low,false
tceWimqr,3ha5odm5ld5arw3bkcnh3xryudvvsa,3pqmudrv7vjiywe97vzm9qr8041ii6,tceWimqr,2020-0188,2020-06-04,07:53:38,08:20:50,NA,incomplete,107,shape,1,0,right,Purple_Star_Stripes_1.jpg,Purple_Plus_Dots_4.jpg,Blue_Star_Chess_2.jpg,right,619.8050000239164,true,low,false
tceWimqr,3ha5odm5ld5arw3bkcnh3xryudvvsa,3pqmudrv7vjiywe97vzm9qr8041ii6,tceWimqr,2020-0188,2020-06-04,07:53:38,08:20:50,NA,incomplete,108,shape,1,1,right,Purple_Circle_Grid_1.jpg,Purple_Plus_Chess_4.jpg,Green_Circle_Dots_3.jpg,left,672.5600000936538,false,low,false
tceWimqr,3ha5odm5ld5arw3bkcnh3xryudvvsa,3pqmudrv7vjiywe97vzm9qr8041ii6,tceWimqr,2020-0188,2020-06-04,07:53:38,08:20:50,NA,incomplete,109,shape,1,0,left,Purple_Circle_Grid_4.jpg,Blue_Circle_Stripes_2.jpg,Purple_Star_Dots_3.jpg,left,601.8299998249859,true,low,false
tceWimqr,3ha5odm5ld5arw3bkcnh3xryudvvsa,3pqmudrv7vjiywe97vzm9qr8041ii6,tceWimqr,2020-0188,2020-06-04,07:53:38,08:20:50,NA,incomplete,110,shape,1,1,left,Purple_Circle_Chess_2.jpg,Green_Circle_Grid_3.jpg,Purple_Triangle_Stripes_1.jpg,left,1008.3100001793355,true,low,false
tceWimqr,3ha5odm5ld5arw3bkcnh3xryudvvsa,3pqmudrv7vjiywe97vzm9qr8041ii6,tceWimqr,2020-0188,2020-06-04,07:53:38,08:20:50,NA,incomplete,111,shape,1,1,left,Purple_Circle_Stripes_2.jpg,Blue_Circle_Grid_4.jpg,Purple_Plus_Dots_3.jpg,left,522.7149999700487,true,low,false
tceWimqr,3ha5odm5ld5arw3bkcnh3xryudvvsa,3pqmudrv7vjiywe97vzm9qr8041ii6,tceWimqr,2020-0188,2020-06-04,07:53:38,08:20:50,NA,incomplete,112,shape,1,1,left,Red_Plus_Stripes_3.jpg,Blue_Plus_Grid_4.jpg,Red_Star_Chess_2.jpg,left,791.3349999580532,true,low,false
tceWimqr,3ha5odm5ld5arw3bkcnh3xryudvvsa,3pqmudrv7vjiywe97vzm9qr8041ii6,tceWimqr,2020-0188,2020-06-04,07:53:38,08:20:50,NA,incomplete,113,shape,1,1,left,Blue_Circle_Grid_1.jpg,Green_Circle_Dots_3.jpg,Blue_Star_Stripes_2.jpg,left,696.9099999405444,true,low,false
tceWimqr,3ha5odm5ld5arw3bkcnh3xryudvvsa,3pqmudrv7vjiywe97vzm9qr8041ii6,tceWimqr,2020-0188,2020-06-04,07:53:38,08:20:50,NA,incomplete,114,shape,1,1,left,Blue_Circle_Chess_4.jpg,Red_Circle_Stripes_2.jpg,Blue_Triangle_Dots_3.jpg,none,0,false,low,false
tceWimqr,3ha5odm5ld5arw3bkcnh3xryudvvsa,3pqmudrv7vjiywe97vzm9qr8041ii6,tceWimqr,2020-0188,2020-06-04,07:53:38,08:20:50,NA,incomplete,115,shape,1,1,right,Blue_Circle_Grid_1.jpg,Blue_Plus_Dots_3.jpg,Purple_Circle_Chess_2.jpg,left,512.3300000559539,false,low,false
tceWimqr,3ha5odm5ld5arw3bkcnh3xryudvvsa,3pqmudrv7vjiywe97vzm9qr8041ii6,tceWimqr,2020-0188,2020-06-04,07:53:38,08:20:50,NA,incomplete,116,shape,1,1,left,Green_Star_Dots_3.jpg,Blue_Star_Grid_1.jpg,Green_Circle_Stripes_2.jpg,left,701.5299999620765,true,low,false
tceWimqr,3ha5odm5ld5arw3bkcnh3xryudvvsa,3pqmudrv7vjiywe97vzm9qr8041ii6,tceWimqr,2020-0188,2020-06-04,07:53:38,08:20:50,NA,incomplete,117,shape,1,1,left,Red_Plus_Stripes_3.jpg,Blue_Plus_Chess_2.jpg,Red_Circle_Dots_1.jpg,left,607.6749998610467,true,low,false
tceWimqr,3ha5odm5ld5arw3bkcnh3xryudvvsa,3pqmudrv7vjiywe97vzm9qr8041ii6,tceWimqr,2020-0188,2020-06-04,07:53:38,08:20:50,NA,incomplete,118,shape,1,1,left,Red_Plus_Chess_4.jpg,Blue_Plus_Dots_1.jpg,Red_Star_Grid_2.jpg,left,554.4700000900775,true,low,false
tceWimqr,3ha5odm5ld5arw3bkcnh3xryudvvsa,3pqmudrv7vjiywe97vzm9qr8041ii6,tceWimqr,2020-0188,2020-06-04,07:53:38,08:20:50,NA,incomplete,119,shape,1,1,left,Red_Star_Dots_1.jpg,Blue_Star_Stripes_4.jpg,Red_Circle_Grid_3.jpg,left,593.5500001069158,true,low,false
tceWimqr,3ha5odm5ld5arw3bkcnh3xryudvvsa,3pqmudrv7vjiywe97vzm9qr8041ii6,tceWimqr,2020-0188,2020-06-04,07:53:38,08:20:50,NA,incomplete,120,gender,2,1,right,A_F_15.jpg,A_M_02.jpg,C_F_13.jpg,NA,NA,NA,low,false
tceWimqr,3ha5odm5ld5arw3bkcnh3xryudvvsa,3pqmudrv7vjiywe97vzm9qr8041ii6,tceWimqr,2020-0188,2020-06-04,07:53:38,08:20:50,NA,incomplete,121,gender,2,1,left,A_F_06.jpg,C_F_16.jpg,A_M_03.jpg,right,1576.100000180304,false,low,false
tceWimqr,3ha5odm5ld5arw3bkcnh3xryudvvsa,3pqmudrv7vjiywe97vzm9qr8041ii6,tceWimqr,2020-0188,2020-06-04,07:53:38,08:20:50,NA,incomplete,122,gender,2,0,right,C_F_09.jpg,C_M_07.jpg,A_F_03.jpg,left,1338.2500000298023,false,low,false
tceWimqr,3ha5odm5ld5arw3bkcnh3xryudvvsa,3pqmudrv7vjiywe97vzm9qr8041ii6,tceWimqr,2020-0188,2020-06-04,07:53:38,08:20:50,NA,incomplete,123,gender,2,1,right,A_F_01.jpg,A_M_07.jpg,C_F_13.jpg,left,738.9549999497831,false,low,false
tceWimqr,3ha5odm5ld5arw3bkcnh3xryudvvsa,3pqmudrv7vjiywe97vzm9qr8041ii6,tceWimqr,2020-0188,2020-06-04,07:53:38,08:20:50,NA,incomplete,124,gender,2,0,left,C_F_10.jpg,A_F_08.jpg,C_M_09.jpg,right,942.5150000024587,false,low,false
tceWimqr,3ha5odm5ld5arw3bkcnh3xryudvvsa,3pqmudrv7vjiywe97vzm9qr8041ii6,tceWimqr,2020-0188,2020-06-04,07:53:38,08:20:50,NA,incomplete,125,gender,2,1,left,A_M_05.jpg,C_M_12.jpg,A_F_15.jpg,left,989.2699997872114,true,low,false
tceWimqr,3ha5odm5ld5arw3bkcnh3xryudvvsa,3pqmudrv7vjiywe97vzm9qr8041ii6,tceWimqr,2020-0188,2020-06-04,07:53:38,08:20:50,NA,incomplete,126,gender,2,1,left,A_F_16.jpg,C_F_06.jpg,A_M_02.jpg,left,892.1899998094887,true,low,false
tceWimqr,3ha5odm5ld5arw3bkcnh3xryudvvsa,3pqmudrv7vjiywe97vzm9qr8041ii6,tceWimqr,2020-0188,2020-06-04,07:53:38,08:20:50,NA,incomplete,127,gender,2,1,left,A_F_06.jpg,C_F_10.jpg,A_M_09.jpg,none,0,false,low,false
tceWimqr,3ha5odm5ld5arw3bkcnh3xryudvvsa,3pqmudrv7vjiywe97vzm9qr8041ii6,tceWimqr,2020-0188,2020-06-04,07:53:38,08:20:50,NA,incomplete,128,gender,2,1,right,A_M_03.jpg,A_F_15.jpg,C_M_16.jpg,right,1025.7200000341982,true,low,false
tceWimqr,3ha5odm5ld5arw3bkcnh3xryudvvsa,3pqmudrv7vjiywe97vzm9qr8041ii6,tceWimqr,2020-0188,2020-06-04,07:53:38,08:20:50,NA,incomplete,129,gender,2,1,left,C_F_12.jpg,A_F_08.jpg,C_M_09.jpg,left,789.1300001647323,true,low,false
tceWimqr,3ha5odm5ld5arw3bkcnh3xryudvvsa,3pqmudrv7vjiywe97vzm9qr8041ii6,tceWimqr,2020-0188,2020-06-04,07:53:38,08:20:50,NA,incomplete,130,gender,2,1,left,A_M_12.jpg,C_M_02.jpg,A_F_01.jpg,left,914.7650001104921,true,low,false
tceWimqr,3ha5odm5ld5arw3bkcnh3xryudvvsa,3pqmudrv7vjiywe97vzm9qr8041ii6,tceWimqr,2020-0188,2020-06-04,07:53:38,08:20:50,NA,incomplete,131,gender,2,1,right,A_F_08.jpg,A_M_01.jpg,C_F_06.jpg,right,736.0299997963011,true,low,false
tceWimqr,3ha5odm5ld5arw3bkcnh3xryudvvsa,3pqmudrv7vjiywe97vzm9qr8041ii6,tceWimqr,2020-0188,2020-06-04,07:53:38,08:20:50,NA,incomplete,132,gender,2,1,left,A_F_16.jpg,C_F_03.jpg,A_M_01.jpg,left,763.9450000133365,true,low,false
tceWimqr,3ha5odm5ld5arw3bkcnh3xryudvvsa,3pqmudrv7vjiywe97vzm9qr8041ii6,tceWimqr,2020-0188,2020-06-04,07:53:38,08:20:50,NA,incomplete,133,gender,2,1,left,A_F_01.jpg,C_F_06.jpg,A_M_03.jpg,left,680.0400000065565,true,low,false
tceWimqr,3ha5odm5ld5arw3bkcnh3xryudvvsa,3pqmudrv7vjiywe97vzm9qr8041ii6,tceWimqr,2020-0188,2020-06-04,07:53:38,08:20:50,NA,incomplete,134,gender,2,0,right,A_F_14.jpg,A_M_08.jpg,C_F_15.jpg,right,522.849999833852,true,low,false
tceWimqr,3ha5odm5ld5arw3bkcnh3xryudvvsa,3pqmudrv7vjiywe97vzm9qr8041ii6,tceWimqr,2020-0188,2020-06-04,07:53:38,08:20:50,NA,incomplete,135,gender,2,1,right,A_F_12.jpg,A_M_08.jpg,C_F_07.jpg,left,1166.3649999536574,false,low,false
tceWimqr,3ha5odm5ld5arw3bkcnh3xryudvvsa,3pqmudrv7vjiywe97vzm9qr8041ii6,tceWimqr,2020-0188,2020-06-04,07:53:38,08:20:50,NA,incomplete,136,gender,2,1,right,C_F_07.jpg,C_M_15.jpg,A_F_12.jpg,right,776.2799998745322,true,low,false
tceWimqr,3ha5odm5ld5arw3bkcnh3xryudvvsa,3pqmudrv7vjiywe97vzm9qr8041ii6,tceWimqr,2020-0188,2020-06-04,07:53:38,08:20:50,NA,incomplete,137,gender,2,1,left,C_M_09.jpg,A_M_12.jpg,C_F_03.jpg,left,752.6400000788271,true,low,false
tceWimqr,3ha5odm5ld5arw3bkcnh3xryudvvsa,3pqmudrv7vjiywe97vzm9qr8041ii6,tceWimqr,2020-0188,2020-06-04,07:53:38,08:20:50,NA,incomplete,138,gender,2,1,right,A_F_03.jpg,A_M_01.jpg,C_F_15.jpg,right,706.5399999264628,true,low,false
tceWimqr,3ha5odm5ld5arw3bkcnh3xryudvvsa,3pqmudrv7vjiywe97vzm9qr8041ii6,tceWimqr,2020-0188,2020-06-04,07:53:38,08:20:50,NA,incomplete,139,gender,2,1,left,A_M_06.jpg,C_M_02.jpg,A_F_08.jpg,left,687.9650000482798,true,low,false
tceWimqr,3ha5odm5ld5arw3bkcnh3xryudvvsa,3pqmudrv7vjiywe97vzm9qr8041ii6,tceWimqr,2020-0188,2020-06-04,07:53:38,08:20:50,NA,incomplete,140,race,3,1,left,A_M_11.jpg,A_F_07.jpg,C_M_16.jpg,right,681.2100000679493,false,low,false
tceWimqr,3ha5odm5ld5arw3bkcnh3xryudvvsa,3pqmudrv7vjiywe97vzm9qr8041ii6,tceWimqr,2020-0188,2020-06-04,07:53:38,08:20:50,NA,incomplete,141,race,3,1,left,A_F_01.jpg,A_M_16.jpg,C_F_10.jpg,right,874.2149998433888,false,low,false
tceWimqr,3ha5odm5ld5arw3bkcnh3xryudvvsa,3pqmudrv7vjiywe97vzm9qr8041ii6,tceWimqr,2020-0188,2020-06-04,07:53:38,08:20:50,NA,incomplete,142,race,3,1,left,A_F_04.jpg,A_M_07.jpg,C_F_13.jpg,left,722.8399999439716,true,low,false
tceWimqr,3ha5odm5ld5arw3bkcnh3xryudvvsa,3pqmudrv7vjiywe97vzm9qr8041ii6,tceWimqr,2020-0188,2020-06-04,07:53:38,08:20:50,NA,incomplete,143,race,3,0,right,A_M_05.jpg,C_M_07.jpg,A_F_13.jpg,right,807.8399999067187,true,low,false
tceWimqr,3ha5odm5ld5arw3bkcnh3xryudvvsa,3pqmudrv7vjiywe97vzm9qr8041ii6,tceWimqr,2020-0188,2020-06-04,07:53:38,08:20:50,NA,incomplete,144,race,3,1,left,C_M_02.jpg,C_F_11.jpg,A_M_01.jpg,right,1124.6499998960644,false,low,false
tceWimqr,3ha5odm5ld5arw3bkcnh3xryudvvsa,3pqmudrv7vjiywe97vzm9qr8041ii6,tceWimqr,2020-0188,2020-06-04,07:53:38,08:20:50,NA,incomplete,145,race,3,1,left,C_F_02.jpg,C_M_11.jpg,A_F_09.jpg,right,804.8499999567866,false,low,false
tceWimqr,3ha5odm5ld5arw3bkcnh3xryudvvsa,3pqmudrv7vjiywe97vzm9qr8041ii6,tceWimqr,2020-0188,2020-06-04,07:53:38,08:20:50,NA,incomplete,146,race,3,1,left,C_M_13.jpg,C_F_01.jpg,A_M_03.jpg,left,1037.0699998456985,true,low,false
tceWimqr,3ha5odm5ld5arw3bkcnh3xryudvvsa,3pqmudrv7vjiywe97vzm9qr8041ii6,tceWimqr,2020-0188,2020-06-04,07:53:38,08:20:50,NA,incomplete,147,race,3,0,left,C_F_09.jpg,C_M_08.jpg,A_F_10.jpg,left,903.0050002038479,true,low,false
tceWimqr,3ha5odm5ld5arw3bkcnh3xryudvvsa,3pqmudrv7vjiywe97vzm9qr8041ii6,tceWimqr,2020-0188,2020-06-04,07:53:38,08:20:50,NA,incomplete,148,race,3,1,left,C_F_11.jpg,C_M_01.jpg,A_F_10.jpg,right,917.5749998539686,false,low,false
tceWimqr,3ha5odm5ld5arw3bkcnh3xryudvvsa,3pqmudrv7vjiywe97vzm9qr8041ii6,tceWimqr,2020-0188,2020-06-04,07:53:38,08:20:50,NA,incomplete,149,race,3,1,right,A_F_07.jpg,C_F_11.jpg,A_M_12.jpg,right,811.0499999020249,true,low,false
tceWimqr,3ha5odm5ld5arw3bkcnh3xryudvvsa,3pqmudrv7vjiywe97vzm9qr8041ii6,tceWimqr,2020-0188,2020-06-04,07:53:38,08:20:50,NA,incomplete,150,race,3,1,left,C_F_02.jpg,C_M_08.jpg,A_F_11.jpg,left,941.0950001329184,true,low,false
tceWimqr,3ha5odm5ld5arw3bkcnh3xryudvvsa,3pqmudrv7vjiywe97vzm9qr8041ii6,tceWimqr,2020-0188,2020-06-04,07:53:38,08:20:50,NA,incomplete,151,race,3,0,right,A_M_13.jpg,C_M_15.jpg,A_F_05.jpg,right,716.8949998449534,true,low,false
tceWimqr,3ha5odm5ld5arw3bkcnh3xryudvvsa,3pqmudrv7vjiywe97vzm9qr8041ii6,tceWimqr,2020-0188,2020-06-04,07:53:38,08:20:50,NA,incomplete,152,race,3,1,left,C_F_04.jpg,C_M_12.jpg,A_F_06.jpg,left,1030.2849998697639,true,low,false
tceWimqr,3ha5odm5ld5arw3bkcnh3xryudvvsa,3pqmudrv7vjiywe97vzm9qr8041ii6,tceWimqr,2020-0188,2020-06-04,07:53:38,08:20:50,NA,incomplete,153,race,3,1,right,A_M_06.jpg,C_M_16.jpg,A_F_09.jpg,left,1061.7499998770654,false,low,false
tceWimqr,3ha5odm5ld5arw3bkcnh3xryudvvsa,3pqmudrv7vjiywe97vzm9qr8041ii6,tceWimqr,2020-0188,2020-06-04,07:53:38,08:20:50,NA,incomplete,154,race,3,0,right,C_F_15.jpg,A_F_01.jpg,C_M_08.jpg,left,1022.8999999817461,false,low,false
tceWimqr,3ha5odm5ld5arw3bkcnh3xryudvvsa,3pqmudrv7vjiywe97vzm9qr8041ii6,tceWimqr,2020-0188,2020-06-04,07:53:38,08:20:50,NA,incomplete,155,race,3,1,right,A_F_02.jpg,C_F_07.jpg,A_M_10.jpg,right,919.5149999577552,true,low,false
tceWimqr,3ha5odm5ld5arw3bkcnh3xryudvvsa,3pqmudrv7vjiywe97vzm9qr8041ii6,tceWimqr,2020-0188,2020-06-04,07:53:38,08:20:50,NA,incomplete,156,race,3,1,right,A_F_14.jpg,C_F_07.jpg,A_M_04.jpg,right,873.4049999620765,true,low,false
tceWimqr,3ha5odm5ld5arw3bkcnh3xryudvvsa,3pqmudrv7vjiywe97vzm9qr8041ii6,tceWimqr,2020-0188,2020-06-04,07:53:38,08:20:50,NA,incomplete,157,race,3,1,right,C_F_04.jpg,A_F_16.jpg,C_M_09.jpg,right,1267.8150001447648,true,low,false
tceWimqr,3ha5odm5ld5arw3bkcnh3xryudvvsa,3pqmudrv7vjiywe97vzm9qr8041ii6,tceWimqr,2020-0188,2020-06-04,07:53:38,08:20:50,NA,incomplete,158,race,3,0,left,A_F_11.jpg,A_M_10.jpg,C_F_09.jpg,left,803.0649998690933,true,low,false
tceWimqr,3ha5odm5ld5arw3bkcnh3xryudvvsa,3pqmudrv7vjiywe97vzm9qr8041ii6,tceWimqr,2020-0188,2020-06-04,07:53:38,08:20:50,NA,incomplete,159,race,3,1,right,C_M_03.jpg,A_M_15.jpg,C_F_11.jpg,left,970.6999999471009,false,low,false
tceWimqr,3ha5odm5ld5arw3bkcnh3xryudvvsa,3pqmudrv7vjiywe97vzm9qr8041ii6,tceWimqr,2020-0188,2020-06-04,07:53:38,08:20:50,NA,incomplete,160,gender,2,1,left,C_F_02.jpg,A_F_10.jpg,C_M_15.jpg,right,956.8000000435859,false,low,false
tceWimqr,3ha5odm5ld5arw3bkcnh3xryudvvsa,3pqmudrv7vjiywe97vzm9qr8041ii6,tceWimqr,2020-0188,2020-06-04,07:53:38,08:20:50,NA,incomplete,161,gender,2,0,left,C_F_09.jpg,A_F_13.jpg,C_M_11.jpg,left,763.6049999855459,true,low,false
tceWimqr,3ha5odm5ld5arw3bkcnh3xryudvvsa,3pqmudrv7vjiywe97vzm9qr8041ii6,tceWimqr,2020-0188,2020-06-04,07:53:38,08:20:50,NA,incomplete,162,gender,2,1,right,A_F_04.jpg,A_M_06.jpg,C_F_13.jpg,left,688.3100001141429,false,low,false
tceWimqr,3ha5odm5ld5arw3bkcnh3xryudvvsa,3pqmudrv7vjiywe97vzm9qr8041ii6,tceWimqr,2020-0188,2020-06-04,07:53:38,08:20:50,NA,incomplete,163,gender,2,1,right,C_M_02.jpg,C_F_11.jpg,A_M_13.jpg,left,1111.439999891445,false,low,false
tceWimqr,3ha5odm5ld5arw3bkcnh3xryudvvsa,3pqmudrv7vjiywe97vzm9qr8041ii6,tceWimqr,2020-0188,2020-06-04,07:53:38,08:20:50,NA,incomplete,164,gender,2,1,right,C_F_15.jpg,C_M_12.jpg,A_F_03.jpg,right,632.0350000169128,true,low,false
tceWimqr,3ha5odm5ld5arw3bkcnh3xryudvvsa,3pqmudrv7vjiywe97vzm9qr8041ii6,tceWimqr,2020-0188,2020-06-04,07:53:38,08:20:50,NA,incomplete,165,gender,2,0,left,C_M_13.jpg,A_M_12.jpg,C_F_15.jpg,left,716.8199999723583,true,low,false
tceWimqr,3ha5odm5ld5arw3bkcnh3xryudvvsa,3pqmudrv7vjiywe97vzm9qr8041ii6,tceWimqr,2020-0188,2020-06-04,07:53:38,08:20:50,NA,incomplete,166,gender,2,1,left,C_M_15.jpg,A_M_14.jpg,C_F_09.jpg,left,947.4499998614192,true,low,false
tceWimqr,3ha5odm5ld5arw3bkcnh3xryudvvsa,3pqmudrv7vjiywe97vzm9qr8041ii6,tceWimqr,2020-0188,2020-06-04,07:53:38,08:20:50,NA,incomplete,167,gender,2,1,left,C_M_14.jpg,A_M_13.jpg,C_F_15.jpg,left,831.7750000860542,true,low,false
tceWimqr,3ha5odm5ld5arw3bkcnh3xryudvvsa,3pqmudrv7vjiywe97vzm9qr8041ii6,tceWimqr,2020-0188,2020-06-04,07:53:38,08:20:50,NA,incomplete,168,gender,2,1,right,A_F_11.jpg,A_M_14.jpg,C_F_02.jpg,right,701.4399999752641,true,low,false
tceWimqr,3ha5odm5ld5arw3bkcnh3xryudvvsa,3pqmudrv7vjiywe97vzm9qr8041ii6,tceWimqr,2020-0188,2020-06-04,07:53:38,08:20:50,NA,incomplete,169,gender,2,1,left,A_F_11.jpg,C_F_16.jpg,A_M_04.jpg,left,853.1349999830127,true,low,false
tceWimqr,3ha5odm5ld5arw3bkcnh3xryudvvsa,3pqmudrv7vjiywe97vzm9qr8041ii6,tceWimqr,2020-0188,2020-06-04,07:53:38,08:20:50,NA,incomplete,170,gender,2,0,left,A_F_12.jpg,C_F_02.jpg,A_M_03.jpg,left,809.0600001160055,true,low,false
tceWimqr,3ha5odm5ld5arw3bkcnh3xryudvvsa,3pqmudrv7vjiywe97vzm9qr8041ii6,tceWimqr,2020-0188,2020-06-04,07:53:38,08:20:50,NA,incomplete,171,gender,2,1,left,A_M_07.jpg,C_M_13.jpg,A_F_01.jpg,right,1328.925000037998,false,low,false
tceWimqr,3ha5odm5ld5arw3bkcnh3xryudvvsa,3pqmudrv7vjiywe97vzm9qr8041ii6,tceWimqr,2020-0188,2020-06-04,07:53:38,08:20:50,NA,incomplete,172,gender,2,1,left,A_M_02.jpg,C_M_06.jpg,A_F_04.jpg,right,779.9899999517947,false,low,false
tceWimqr,3ha5odm5ld5arw3bkcnh3xryudvvsa,3pqmudrv7vjiywe97vzm9qr8041ii6,tceWimqr,2020-0188,2020-06-04,07:53:38,08:20:50,NA,incomplete,173,gender,2,1,left,A_F_14.jpg,C_F_13.jpg,A_M_02.jpg,left,871.9199998304248,true,low,false
tceWimqr,3ha5odm5ld5arw3bkcnh3xryudvvsa,3pqmudrv7vjiywe97vzm9qr8041ii6,tceWimqr,2020-0188,2020-06-04,07:53:38,08:20:50,NA,incomplete,174,gender,2,1,right,C_M_14.jpg,C_F_06.jpg,A_M_04.jpg,right,873.7399999517947,true,low,false
tceWimqr,3ha5odm5ld5arw3bkcnh3xryudvvsa,3pqmudrv7vjiywe97vzm9qr8041ii6,tceWimqr,2020-0188,2020-06-04,07:53:38,08:20:50,NA,incomplete,175,gender,2,1,right,A_M_12.jpg,A_F_16.jpg,C_M_08.jpg,right,883.7500000372529,true,low,false
tceWimqr,3ha5odm5ld5arw3bkcnh3xryudvvsa,3pqmudrv7vjiywe97vzm9qr8041ii6,tceWimqr,2020-0188,2020-06-04,07:53:38,08:20:50,NA,incomplete,176,gender,2,1,right,A_F_05.jpg,A_M_03.jpg,C_F_09.jpg,right,723.4949998091906,true,low,false
tceWimqr,3ha5odm5ld5arw3bkcnh3xryudvvsa,3pqmudrv7vjiywe97vzm9qr8041ii6,tceWimqr,2020-0188,2020-06-04,07:53:38,08:20:50,NA,incomplete,177,gender,2,1,left,A_M_13.jpg,C_M_16.jpg,A_F_04.jpg,left,686.4849999547005,true,low,false
tceWimqr,3ha5odm5ld5arw3bkcnh3xryudvvsa,3pqmudrv7vjiywe97vzm9qr8041ii6,tceWimqr,2020-0188,2020-06-04,07:53:38,08:20:50,NA,incomplete,178,gender,2,1,right,A_M_10.jpg,A_F_02.jpg,C_M_08.jpg,right,710.2599998470396,true,low,false
tceWimqr,3ha5odm5ld5arw3bkcnh3xryudvvsa,3pqmudrv7vjiywe97vzm9qr8041ii6,tceWimqr,2020-0188,2020-06-04,07:53:38,08:20:50,NA,incomplete,179,gender,2,0,right,A_F_11.jpg,A_M_09.jpg,C_F_05.jpg,right,650.5000002216548,true,low,false
tceWimqr,3ha5odm5ld5arw3bkcnh3xryudvvsa,3pqmudrv7vjiywe97vzm9qr8041ii6,tceWimqr,2020-0188,2020-06-04,07:53:38,08:20:50,NA,incomplete,180,race,3,1,left,C_M_10.jpg,C_F_04.jpg,A_M_06.jpg,right,824.7950000222772,false,low,false
tceWimqr,3ha5odm5ld5arw3bkcnh3xryudvvsa,3pqmudrv7vjiywe97vzm9qr8041ii6,tceWimqr,2020-0188,2020-06-04,07:53:38,08:20:50,NA,incomplete,181,race,3,0,right,C_F_04.jpg,A_F_13.jpg,C_M_02.jpg,right,895.5600000917912,true,low,false
tceWimqr,3ha5odm5ld5arw3bkcnh3xryudvvsa,3pqmudrv7vjiywe97vzm9qr8041ii6,tceWimqr,2020-0188,2020-06-04,07:53:38,08:20:50,NA,incomplete,182,race,3,1,left,A_F_11.jpg,A_M_12.jpg,C_F_08.jpg,left,771.6650001239032,true,low,false
tceWimqr,3ha5odm5ld5arw3bkcnh3xryudvvsa,3pqmudrv7vjiywe97vzm9qr8041ii6,tceWimqr,2020-0188,2020-06-04,07:53:38,08:20:50,NA,incomplete,183,race,3,1,left,C_M_06.jpg,C_F_11.jpg,A_M_01.jpg,right,774.3500000797212,false,low,false
tceWimqr,3ha5odm5ld5arw3bkcnh3xryudvvsa,3pqmudrv7vjiywe97vzm9qr8041ii6,tceWimqr,2020-0188,2020-06-04,07:53:38,08:20:50,NA,incomplete,184,race,3,1,left,A_M_08.jpg,A_F_16.jpg,C_M_05.jpg,right,1104.9150000326335,false,low,false
tceWimqr,3ha5odm5ld5arw3bkcnh3xryudvvsa,3pqmudrv7vjiywe97vzm9qr8041ii6,tceWimqr,2020-0188,2020-06-04,07:53:38,08:20:50,NA,incomplete,185,race,3,0,left,C_F_10.jpg,C_M_03.jpg,A_F_01.jpg,right,798.8150001037866,false,low,false
tceWimqr,3ha5odm5ld5arw3bkcnh3xryudvvsa,3pqmudrv7vjiywe97vzm9qr8041ii6,tceWimqr,2020-0188,2020-06-04,07:53:38,08:20:50,NA,incomplete,186,race,3,1,right,A_F_02.jpg,C_F_03.jpg,A_M_05.jpg,right,758.7999999523163,true,low,false
tceWimqr,3ha5odm5ld5arw3bkcnh3xryudvvsa,3pqmudrv7vjiywe97vzm9qr8041ii6,tceWimqr,2020-0188,2020-06-04,07:53:38,08:20:50,NA,incomplete,187,race,3,0,left,C_M_11.jpg,C_F_13.jpg,A_M_04.jpg,left,847.7649998385459,true,low,false
tceWimqr,3ha5odm5ld5arw3bkcnh3xryudvvsa,3pqmudrv7vjiywe97vzm9qr8041ii6,tceWimqr,2020-0188,2020-06-04,07:53:38,08:20:50,NA,incomplete,188,race,3,1,left,C_M_14.jpg,C_F_09.jpg,A_M_10.jpg,left,1020.9800000302494,true,low,false
tceWimqr,3ha5odm5ld5arw3bkcnh3xryudvvsa,3pqmudrv7vjiywe97vzm9qr8041ii6,tceWimqr,2020-0188,2020-06-04,07:53:38,08:20:50,NA,incomplete,189,race,3,1,left,A_F_11.jpg,A_M_15.jpg,C_F_07.jpg,left,912.3400000389665,true,low,false
tceWimqr,3ha5odm5ld5arw3bkcnh3xryudvvsa,3pqmudrv7vjiywe97vzm9qr8041ii6,tceWimqr,2020-0188,2020-06-04,07:53:38,08:20:50,NA,incomplete,190,race,3,1,left,A_F_09.jpg,A_M_04.jpg,C_F_01.jpg,left,823.399999877438,true,low,false
tceWimqr,3ha5odm5ld5arw3bkcnh3xryudvvsa,3pqmudrv7vjiywe97vzm9qr8041ii6,tceWimqr,2020-0188,2020-06-04,07:53:38,08:20:50,NA,incomplete,191,race,3,1,left,C_F_13.jpg,C_M_09.jpg,A_F_07.jpg,left,814.259999897331,true,low,false
tceWimqr,3ha5odm5ld5arw3bkcnh3xryudvvsa,3pqmudrv7vjiywe97vzm9qr8041ii6,tceWimqr,2020-0188,2020-06-04,07:53:38,08:20:50,NA,incomplete,192,race,3,1,right,C_F_07.jpg,A_F_16.jpg,C_M_12.jpg,right,763.1149999797344,true,low,false
tceWimqr,3ha5odm5ld5arw3bkcnh3xryudvvsa,3pqmudrv7vjiywe97vzm9qr8041ii6,tceWimqr,2020-0188,2020-06-04,07:53:38,08:20:50,NA,incomplete,193,race,3,1,left,A_M_10.jpg,A_F_09.jpg,C_M_02.jpg,left,701.9050000235438,true,low,false
tceWimqr,3ha5odm5ld5arw3bkcnh3xryudvvsa,3pqmudrv7vjiywe97vzm9qr8041ii6,tceWimqr,2020-0188,2020-06-04,07:53:38,08:20:50,NA,incomplete,194,race,3,1,right,A_F_06.jpg,C_F_10.jpg,A_M_01.jpg,right,791.7850001249462,true,low,false
tceWimqr,3ha5odm5ld5arw3bkcnh3xryudvvsa,3pqmudrv7vjiywe97vzm9qr8041ii6,tceWimqr,2020-0188,2020-06-04,07:53:38,08:20:50,NA,incomplete,195,race,3,1,left,A_F_11.jpg,A_M_03.jpg,C_F_12.jpg,left,676.1400001123548,true,low,false
tceWimqr,3ha5odm5ld5arw3bkcnh3xryudvvsa,3pqmudrv7vjiywe97vzm9qr8041ii6,tceWimqr,2020-0188,2020-06-04,07:53:38,08:20:50,NA,incomplete,196,race,3,0,left,A_M_07.jpg,A_F_10.jpg,C_M_08.jpg,left,829.8949999734759,true,low,false
tceWimqr,3ha5odm5ld5arw3bkcnh3xryudvvsa,3pqmudrv7vjiywe97vzm9qr8041ii6,tceWimqr,2020-0188,2020-06-04,07:53:38,08:20:50,NA,incomplete,197,race,3,1,right,A_M_11.jpg,C_M_08.jpg,A_F_06.jpg,right,680.3150000050664,true,low,false
tceWimqr,3ha5odm5ld5arw3bkcnh3xryudvvsa,3pqmudrv7vjiywe97vzm9qr8041ii6,tceWimqr,2020-0188,2020-06-04,07:53:38,08:20:50,NA,incomplete,198,race,3,1,left,A_F_01.jpg,A_M_14.jpg,C_F_12.jpg,left,675.3549999557436,true,low,false
tceWimqr,3ha5odm5ld5arw3bkcnh3xryudvvsa,3pqmudrv7vjiywe97vzm9qr8041ii6,tceWimqr,2020-0188,2020-06-04,07:53:38,08:20:50,NA,incomplete,199,race,3,1,left,C_M_08.jpg,C_F_07.jpg,A_M_10.jpg,right,625.8900000248104,false,low,false
tceWimqr,3ha5odm5ld5arw3bkcnh3xryudvvsa,3pqmudrv7vjiywe97vzm9qr8041ii6,tceWimqr,2020-0188,2020-06-04,07:53:38,08:20:50,NA,incomplete,200,gender,2,1,left,A_F_03.jpg,C_F_08.jpg,A_M_13.jpg,right,848.255000077188,false,low,false
tceWimqr,3ha5odm5ld5arw3bkcnh3xryudvvsa,3pqmudrv7vjiywe97vzm9qr8041ii6,tceWimqr,2020-0188,2020-06-04,07:53:38,08:20:50,NA,incomplete,201,gender,2,1,left,C_F_08.jpg,A_F_05.jpg,C_M_15.jpg,right,967.7349999547005,false,low,false
tceWimqr,3ha5odm5ld5arw3bkcnh3xryudvvsa,3pqmudrv7vjiywe97vzm9qr8041ii6,tceWimqr,2020-0188,2020-06-04,07:53:38,08:20:50,NA,incomplete,202,gender,2,1,right,A_M_11.jpg,A_F_13.jpg,C_M_12.jpg,right,856.9350000470877,true,low,false
tceWimqr,3ha5odm5ld5arw3bkcnh3xryudvvsa,3pqmudrv7vjiywe97vzm9qr8041ii6,tceWimqr,2020-0188,2020-06-04,07:53:38,08:20:50,NA,incomplete,203,gender,2,0,left,C_F_05.jpg,A_F_11.jpg,C_M_07.jpg,left,823.3649998437613,true,low,false
tceWimqr,3ha5odm5ld5arw3bkcnh3xryudvvsa,3pqmudrv7vjiywe97vzm9qr8041ii6,tceWimqr,2020-0188,2020-06-04,07:53:38,08:20:50,NA,incomplete,204,gender,2,1,right,C_F_09.jpg,C_M_02.jpg,A_F_14.jpg,left,870.1049999799579,false,low,false
tceWimqr,3ha5odm5ld5arw3bkcnh3xryudvvsa,3pqmudrv7vjiywe97vzm9qr8041ii6,tceWimqr,2020-0188,2020-06-04,07:53:38,08:20:50,NA,incomplete,205,gender,2,1,right,A_M_10.jpg,A_F_16.jpg,C_M_11.jpg,right,888.7799999210984,true,low,false
tceWimqr,3ha5odm5ld5arw3bkcnh3xryudvvsa,3pqmudrv7vjiywe97vzm9qr8041ii6,tceWimqr,2020-0188,2020-06-04,07:53:38,08:20:50,NA,incomplete,206,gender,2,0,left,C_F_15.jpg,A_F_10.jpg,C_M_13.jpg,right,782.6699998695403,false,low,false
tceWimqr,3ha5odm5ld5arw3bkcnh3xryudvvsa,3pqmudrv7vjiywe97vzm9qr8041ii6,tceWimqr,2020-0188,2020-06-04,07:53:38,08:20:50,NA,incomplete,207,gender,2,1,left,C_M_06.jpg,A_M_05.jpg,C_F_08.jpg,left,694.8500000871718,true,low,false
tceWimqr,3ha5odm5ld5arw3bkcnh3xryudvvsa,3pqmudrv7vjiywe97vzm9qr8041ii6,tceWimqr,2020-0188,2020-06-04,07:53:38,08:20:50,NA,incomplete,208,gender,2,1,right,A_F_15.jpg,A_M_10.jpg,C_F_16.jpg,right,759.3700001016259,true,low,false
tceWimqr,3ha5odm5ld5arw3bkcnh3xryudvvsa,3pqmudrv7vjiywe97vzm9qr8041ii6,tceWimqr,2020-0188,2020-06-04,07:53:38,08:20:50,NA,incomplete,209,gender,2,1,right,A_M_13.jpg,A_F_01.jpg,C_M_12.jpg,right,1198.3600000385195,true,low,false
tceWimqr,3ha5odm5ld5arw3bkcnh3xryudvvsa,3pqmudrv7vjiywe97vzm9qr8041ii6,tceWimqr,2020-0188,2020-06-04,07:53:38,08:20:50,NA,incomplete,210,gender,2,1,left,A_M_06.jpg,C_M_01.jpg,A_F_03.jpg,left,760.7549999374896,true,low,false
tceWimqr,3ha5odm5ld5arw3bkcnh3xryudvvsa,3pqmudrv7vjiywe97vzm9qr8041ii6,tceWimqr,2020-0188,2020-06-04,07:53:38,08:20:50,NA,incomplete,211,gender,2,1,right,A_M_04.jpg,A_F_07.jpg,C_M_02.jpg,right,883.5100000724196,true,low,false
tceWimqr,3ha5odm5ld5arw3bkcnh3xryudvvsa,3pqmudrv7vjiywe97vzm9qr8041ii6,tceWimqr,2020-0188,2020-06-04,07:53:38,08:20:50,NA,incomplete,212,gender,2,1,right,C_M_03.jpg,C_F_05.jpg,A_M_01.jpg,right,929.8549999948591,true,low,false
tceWimqr,3ha5odm5ld5arw3bkcnh3xryudvvsa,3pqmudrv7vjiywe97vzm9qr8041ii6,tceWimqr,2020-0188,2020-06-04,07:53:38,08:20:50,NA,incomplete,213,gender,2,1,left,A_F_05.jpg,C_F_16.jpg,A_M_12.jpg,left,756.7400000989437,true,low,false
tceWimqr,3ha5odm5ld5arw3bkcnh3xryudvvsa,3pqmudrv7vjiywe97vzm9qr8041ii6,tceWimqr,2020-0188,2020-06-04,07:53:38,08:20:50,NA,incomplete,214,gender,2,0,left,C_F_10.jpg,A_F_06.jpg,C_M_03.jpg,right,706.6649999469519,false,low,false
tceWimqr,3ha5odm5ld5arw3bkcnh3xryudvvsa,3pqmudrv7vjiywe97vzm9qr8041ii6,tceWimqr,2020-0188,2020-06-04,07:53:38,08:20:50,NA,incomplete,215,gender,2,1,left,A_F_16.jpg,C_F_12.jpg,A_M_09.jpg,left,904.829999897629,true,low,false
tceWimqr,3ha5odm5ld5arw3bkcnh3xryudvvsa,3pqmudrv7vjiywe97vzm9qr8041ii6,tceWimqr,2020-0188,2020-06-04,07:53:38,08:20:50,NA,incomplete,216,gender,2,1,right,A_M_10.jpg,A_F_14.jpg,C_M_01.jpg,right,867.3699998762459,true,low,false
tceWimqr,3ha5odm5ld5arw3bkcnh3xryudvvsa,3pqmudrv7vjiywe97vzm9qr8041ii6,tceWimqr,2020-0188,2020-06-04,07:53:38,08:20:50,NA,incomplete,217,gender,2,1,left,C_F_11.jpg,A_F_05.jpg,C_M_10.jpg,left,1062.7550000790507,true,low,false
tceWimqr,3ha5odm5ld5arw3bkcnh3xryudvvsa,3pqmudrv7vjiywe97vzm9qr8041ii6,tceWimqr,2020-0188,2020-06-04,07:53:38,08:20:50,NA,incomplete,218,gender,2,1,right,C_M_15.jpg,C_F_13.jpg,A_M_03.jpg,right,819.7049999143928,true,low,false
tceWimqr,3ha5odm5ld5arw3bkcnh3xryudvvsa,3pqmudrv7vjiywe97vzm9qr8041ii6,tceWimqr,2020-0188,2020-06-04,07:53:38,08:20:50,NA,incomplete,219,gender,2,1,right,C_M_16.jpg,C_F_14.jpg,A_M_03.jpg,right,832.264999859035,true,low,false
tceWimqr,3ha5odm5ld5arw3bkcnh3xryudvvsa,3pqmudrv7vjiywe97vzm9qr8041ii6,tceWimqr,2020-0188,2020-06-04,07:53:38,08:20:50,NA,incomplete,220,race,3,1,left,C_M_14.jpg,C_F_11.jpg,A_M_03.jpg,right,829.7300001140684,false,low,false
tceWimqr,3ha5odm5ld5arw3bkcnh3xryudvvsa,3pqmudrv7vjiywe97vzm9qr8041ii6,tceWimqr,2020-0188,2020-06-04,07:53:38,08:20:50,NA,incomplete,221,race,3,0,left,A_M_02.jpg,A_F_11.jpg,C_M_03.jpg,right,841.0750001203269,false,low,false
tceWimqr,3ha5odm5ld5arw3bkcnh3xryudvvsa,3pqmudrv7vjiywe97vzm9qr8041ii6,tceWimqr,2020-0188,2020-06-04,07:53:38,08:20:50,NA,incomplete,222,race,3,1,left,A_F_12.jpg,A_M_06.jpg,C_F_08.jpg,left,939.4350000657141,true,low,false
tceWimqr,3ha5odm5ld5arw3bkcnh3xryudvvsa,3pqmudrv7vjiywe97vzm9qr8041ii6,tceWimqr,2020-0188,2020-06-04,07:53:38,08:20:50,NA,incomplete,223,race,3,1,right,C_M_16.jpg,A_M_14.jpg,C_F_10.jpg,left,791.8799999170005,false,low,false
tceWimqr,3ha5odm5ld5arw3bkcnh3xryudvvsa,3pqmudrv7vjiywe97vzm9qr8041ii6,tceWimqr,2020-0188,2020-06-04,07:53:38,08:20:50,NA,incomplete,224,race,3,1,right,C_F_13.jpg,A_F_09.jpg,C_M_15.jpg,left,965.5949999578297,false,low,false
tceWimqr,3ha5odm5ld5arw3bkcnh3xryudvvsa,3pqmudrv7vjiywe97vzm9qr8041ii6,tceWimqr,2020-0188,2020-06-04,07:53:38,08:20:50,NA,incomplete,225,race,3,0,left,C_M_11.jpg,C_F_02.jpg,A_M_05.jpg,right,905.8700001332909,false,low,false
tceWimqr,3ha5odm5ld5arw3bkcnh3xryudvvsa,3pqmudrv7vjiywe97vzm9qr8041ii6,tceWimqr,2020-0188,2020-06-04,07:53:38,08:20:50,NA,incomplete,226,race,3,1,left,A_M_02.jpg,A_F_16.jpg,C_M_11.jpg,left,908.8300000876188,true,low,false
tceWimqr,3ha5odm5ld5arw3bkcnh3xryudvvsa,3pqmudrv7vjiywe97vzm9qr8041ii6,tceWimqr,2020-0188,2020-06-04,07:53:38,08:20:50,NA,incomplete,227,race,3,0,right,C_M_06.jpg,A_M_12.jpg,C_F_02.jpg,right,1017.5049998797476,true,low,false
tceWimqr,3ha5odm5ld5arw3bkcnh3xryudvvsa,3pqmudrv7vjiywe97vzm9qr8041ii6,tceWimqr,2020-0188,2020-06-04,07:53:38,08:20:50,NA,incomplete,228,race,3,1,right,A_M_08.jpg,C_M_04.jpg,A_F_06.jpg,right,1066.469999961555,true,low,false
tceWimqr,3ha5odm5ld5arw3bkcnh3xryudvvsa,3pqmudrv7vjiywe97vzm9qr8041ii6,tceWimqr,2020-0188,2020-06-04,07:53:38,08:20:50,NA,incomplete,229,race,3,1,left,C_M_05.jpg,C_F_14.jpg,A_M_13.jpg,left,1025.8500000927597,true,low,false
tceWimqr,3ha5odm5ld5arw3bkcnh3xryudvvsa,3pqmudrv7vjiywe97vzm9qr8041ii6,tceWimqr,2020-0188,2020-06-04,07:53:38,08:20:50,NA,incomplete,230,race,3,0,left,A_M_16.jpg,A_F_11.jpg,C_M_15.jpg,left,835.0799998734146,true,low,false
tceWimqr,3ha5odm5ld5arw3bkcnh3xryudvvsa,3pqmudrv7vjiywe97vzm9qr8041ii6,tceWimqr,2020-0188,2020-06-04,07:53:38,08:20:50,NA,incomplete,231,race,3,1,left,A_M_06.jpg,A_F_03.jpg,C_M_05.jpg,right,868.9600001089275,false,low,false
tceWimqr,3ha5odm5ld5arw3bkcnh3xryudvvsa,3pqmudrv7vjiywe97vzm9qr8041ii6,tceWimqr,2020-0188,2020-06-04,07:53:38,08:20:50,NA,incomplete,232,race,3,1,left,C_F_15.jpg,C_M_10.jpg,A_F_13.jpg,left,976.3599999714643,true,low,false
tceWimqr,3ha5odm5ld5arw3bkcnh3xryudvvsa,3pqmudrv7vjiywe97vzm9qr8041ii6,tceWimqr,2020-0188,2020-06-04,07:53:38,08:20:50,NA,incomplete,233,race,3,1,left,A_M_03.jpg,A_F_11.jpg,C_M_05.jpg,right,894.4849998224527,false,low,false
tceWimqr,3ha5odm5ld5arw3bkcnh3xryudvvsa,3pqmudrv7vjiywe97vzm9qr8041ii6,tceWimqr,2020-0188,2020-06-04,07:53:38,08:20:50,NA,incomplete,234,race,3,1,left,A_F_04.jpg,A_M_01.jpg,C_F_13.jpg,left,858.1050001084805,true,low,false
tceWimqr,3ha5odm5ld5arw3bkcnh3xryudvvsa,3pqmudrv7vjiywe97vzm9qr8041ii6,tceWimqr,2020-0188,2020-06-04,07:53:38,08:20:50,NA,incomplete,235,race,3,0,right,A_F_12.jpg,C_F_02.jpg,A_M_05.jpg,right,675.3200001548976,true,low,false
tceWimqr,3ha5odm5ld5arw3bkcnh3xryudvvsa,3pqmudrv7vjiywe97vzm9qr8041ii6,tceWimqr,2020-0188,2020-06-04,07:53:38,08:20:50,NA,incomplete,236,race,3,1,left,C_M_12.jpg,C_F_14.jpg,A_M_06.jpg,right,804.9800000153482,false,low,false
tceWimqr,3ha5odm5ld5arw3bkcnh3xryudvvsa,3pqmudrv7vjiywe97vzm9qr8041ii6,tceWimqr,2020-0188,2020-06-04,07:53:38,08:20:50,NA,incomplete,237,race,3,1,right,A_M_05.jpg,C_M_13.jpg,A_F_02.jpg,left,923.4450000803918,false,low,false
tceWimqr,3ha5odm5ld5arw3bkcnh3xryudvvsa,3pqmudrv7vjiywe97vzm9qr8041ii6,tceWimqr,2020-0188,2020-06-04,07:53:38,08:20:50,NA,incomplete,238,race,3,1,right,C_F_03.jpg,A_F_06.jpg,C_M_04.jpg,right,751.6149999573827,true,low,false
tceWimqr,3ha5odm5ld5arw3bkcnh3xryudvvsa,3pqmudrv7vjiywe97vzm9qr8041ii6,tceWimqr,2020-0188,2020-06-04,07:53:38,08:20:50,NA,incomplete,239,race,3,1,right,A_M_12.jpg,C_M_16.jpg,A_F_08.jpg,right,586.8550001177937,true,low,false
tceWimqr,3ha5odm5ld5arw3bkcnh3xryudvvsa,3pqmudrv7vjiywe97vzm9qr8041ii6,tceWimqr,2020-0188,2020-06-04,07:53:38,08:20:50,NA,NA,instruction example,color,NA,NA,NA,Purple_Triangle_Chess_3.jpg,Purple_Plus_Grid_1.jpg,Blue_Triangle_Stripes_2.jpg,NA,NA,NA,NA,undefined
tceWimqr,3ha5odm5ld5arw3bkcnh3xryudvvsa,3pqmudrv7vjiywe97vzm9qr8041ii6,tceWimqr,2020-0188,2020-06-04,07:53:38,08:20:50,NA,NA,instruction example,color,NA,NA,NA,Red_Triangle_Dots_3.jpg,Blue_Triangle_Stripes_1.jpg,Red_Plus_Grid_2.jpg,NA,NA,NA,NA,undefined
tceWimqr,3ha5odm5ld5arw3bkcnh3xryudvvsa,3pqmudrv7vjiywe97vzm9qr8041ii6,tceWimqr,2020-0188,2020-06-04,07:53:38,08:20:50,NA,NA,instruction example,color,NA,NA,NA,A_M_15.jpg,C_M_06.jpg,A_F_04.jpg,NA,NA,NA,NA,undefined
tceWimqr,3ha5odm5ld5arw3bkcnh3xryudvvsa,3pqmudrv7vjiywe97vzm9qr8041ii6,tceWimqr,2020-0188,2020-06-04,07:53:38,08:20:50,NA,NA,instruction example,color,NA,NA,NA,C_F_02.jpg,C_M_10.jpg,A_F_01.jpg,NA,NA,NA,NA,undefined
