workerId,hitId,assignmentId,subject,studyid,exp_date,exp_start,exp_end,time_start,time_end,trial,type,sequence,reward_validity,answer,image_top,image_left,image_right,response,response_time,response_acc,volatility,age,race,gender,ethnicity,color,vision,neuro,practice
uE3z9BfN,3p7qk0gj4wyyvhrnruxexlrqk8i2zm,3q5zz9zevssdx27hrp417stpug658h,uE3z9BfN,2020-0188,2020-06-16,16:47:43,17:15:03,NA,incomplete,0,filling,0,0,right,Red_Triangle_Chess_3.jpg,Red_Circle_Grid_1.jpg,Green_Star_Chess_4.jpg,none,0,false,NA,NA,NA,NA,NA,NA,NA,NA,true
uE3z9BfN,3p7qk0gj4wyyvhrnruxexlrqk8i2zm,3q5zz9zevssdx27hrp417stpug658h,uE3z9BfN,2020-0188,2020-06-16,16:47:43,17:15:03,NA,incomplete,1,filling,0,0,right,Purple_Circle_Stripes_1.jpg,Purple_Star_Grid_2.jpg,Green_Triangle_Stripes_4.jpg,right,1399.969999998575,true,NA,NA,NA,NA,NA,NA,NA,NA,true
uE3z9BfN,3p7qk0gj4wyyvhrnruxexlrqk8i2zm,3q5zz9zevssdx27hrp417stpug658h,uE3z9BfN,2020-0188,2020-06-16,16:47:43,17:15:03,NA,incomplete,2,filling,0,1,left,Green_Plus_Grid_2.jpg,Purple_Triangle_Grid_1.jpg,Green_Star_Dots_4.jpg,left,1070.8250000025146,true,NA,NA,NA,NA,NA,NA,NA,NA,true
uE3z9BfN,3p7qk0gj4wyyvhrnruxexlrqk8i2zm,3q5zz9zevssdx27hrp417stpug658h,uE3z9BfN,2020-0188,2020-06-16,16:47:43,17:15:03,NA,incomplete,3,filling,0,1,left,Red_Plus_Grid_2.jpg,Purple_Star_Grid_4.jpg,Red_Triangle_Dots_3.jpg,left,1215.9949999985984,true,NA,NA,NA,NA,NA,NA,NA,NA,true
uE3z9BfN,3p7qk0gj4wyyvhrnruxexlrqk8i2zm,3q5zz9zevssdx27hrp417stpug658h,uE3z9BfN,2020-0188,2020-06-16,16:47:43,17:15:03,NA,incomplete,4,filling,0,0,right,Purple_Triangle_Chess_1.jpg,Purple_Plus_Dots_3.jpg,Red_Star_Chess_2.jpg,right,1166.0150000024587,true,NA,NA,NA,NA,NA,NA,NA,NA,true
uE3z9BfN,3p7qk0gj4wyyvhrnruxexlrqk8i2zm,3q5zz9zevssdx27hrp417stpug658h,uE3z9BfN,2020-0188,2020-06-16,16:47:43,17:15:03,NA,incomplete,5,filling,0,0,left,Purple_Star_Dots_2.jpg,Green_Plus_Dots_1.jpg,Purple_Triangle_Stripes_4.jpg,left,1484.7149999986868,true,NA,NA,NA,NA,NA,NA,NA,NA,true
uE3z9BfN,3p7qk0gj4wyyvhrnruxexlrqk8i2zm,3q5zz9zevssdx27hrp417stpug658h,uE3z9BfN,2020-0188,2020-06-16,16:47:43,17:15:03,NA,incomplete,6,filling,0,1,left,Blue_Triangle_Dots_4.jpg,Red_Circle_Dots_3.jpg,Blue_Star_Grid_2.jpg,left,1192.0449999962002,true,NA,NA,NA,NA,NA,NA,NA,NA,true
uE3z9BfN,3p7qk0gj4wyyvhrnruxexlrqk8i2zm,3q5zz9zevssdx27hrp417stpug658h,uE3z9BfN,2020-0188,2020-06-16,16:47:43,17:15:03,NA,incomplete,7,filling,0,1,left,Purple_Plus_Chess_1.jpg,Blue_Triangle_Chess_2.jpg,Purple_Circle_Dots_4.jpg,left,903.5899999943795,true,NA,NA,NA,NA,NA,NA,NA,NA,true
uE3z9BfN,3p7qk0gj4wyyvhrnruxexlrqk8i2zm,3q5zz9zevssdx27hrp417stpug658h,uE3z9BfN,2020-0188,2020-06-16,16:47:43,17:15:03,NA,incomplete,8,filling,0,1,left,Blue_Plus_Stripes_3.jpg,Purple_Star_Stripes_1.jpg,Blue_Circle_Chess_2.jpg,right,874.8850000047823,false,NA,NA,NA,NA,NA,NA,NA,NA,true
uE3z9BfN,3p7qk0gj4wyyvhrnruxexlrqk8i2zm,3q5zz9zevssdx27hrp417stpug658h,uE3z9BfN,2020-0188,2020-06-16,16:47:43,17:15:03,NA,incomplete,9,filling,0,1,left,Blue_Star_Stripes_4.jpg,Red_Circle_Stripes_2.jpg,Blue_Triangle_Grid_3.jpg,left,1291.2450000003446,true,NA,NA,NA,NA,NA,NA,NA,NA,true
uE3z9BfN,3p7qk0gj4wyyvhrnruxexlrqk8i2zm,3q5zz9zevssdx27hrp417stpug658h,uE3z9BfN,2020-0188,2020-06-16,16:47:43,17:15:03,NA,incomplete,10,filling,0,1,left,Green_Triangle_Grid_4.jpg,Blue_Circle_Grid_1.jpg,Green_Star_Chess_3.jpg,left,1011.8750000038417,true,NA,NA,NA,NA,NA,NA,NA,NA,true
uE3z9BfN,3p7qk0gj4wyyvhrnruxexlrqk8i2zm,3q5zz9zevssdx27hrp417stpug658h,uE3z9BfN,2020-0188,2020-06-16,16:47:43,17:15:03,NA,incomplete,11,filling,0,1,left,Red_Triangle_Stripes_4.jpg,Green_Star_Stripes_1.jpg,Red_Circle_Chess_3.jpg,left,1101.2850000042235,true,NA,NA,NA,NA,NA,NA,NA,NA,true
uE3z9BfN,3p7qk0gj4wyyvhrnruxexlrqk8i2zm,3q5zz9zevssdx27hrp417stpug658h,uE3z9BfN,2020-0188,2020-06-16,16:47:43,17:15:03,NA,incomplete,12,filling,0,1,right,Red_Star_Stripes_2.jpg,Red_Plus_Grid_3.jpg,Green_Circle_Stripes_4.jpg,right,1151.5650000000605,true,NA,NA,NA,NA,NA,NA,NA,NA,true
uE3z9BfN,3p7qk0gj4wyyvhrnruxexlrqk8i2zm,3q5zz9zevssdx27hrp417stpug658h,uE3z9BfN,2020-0188,2020-06-16,16:47:43,17:15:03,NA,incomplete,13,filling,0,1,left,Purple_Triangle_Grid_3.jpg,Red_Plus_Grid_4.jpg,Purple_Star_Dots_1.jpg,left,976.2550000012852,true,NA,NA,NA,NA,NA,NA,NA,NA,true
uE3z9BfN,3p7qk0gj4wyyvhrnruxexlrqk8i2zm,3q5zz9zevssdx27hrp417stpug658h,uE3z9BfN,2020-0188,2020-06-16,16:47:43,17:15:03,NA,incomplete,14,filling,0,0,left,Purple_Circle_Grid_4.jpg,Red_Plus_Grid_2.jpg,Purple_Star_Chess_3.jpg,left,1094.3899999983842,true,NA,NA,NA,NA,NA,NA,NA,NA,true
uE3z9BfN,3p7qk0gj4wyyvhrnruxexlrqk8i2zm,3q5zz9zevssdx27hrp417stpug658h,uE3z9BfN,2020-0188,2020-06-16,16:47:43,17:15:03,NA,incomplete,15,filling,0,1,right,Blue_Triangle_Stripes_3.jpg,Blue_Star_Dots_2.jpg,Purple_Circle_Stripes_4.jpg,right,1238.3899999985006,true,NA,NA,NA,NA,NA,NA,NA,NA,true
uE3z9BfN,3p7qk0gj4wyyvhrnruxexlrqk8i2zm,3q5zz9zevssdx27hrp417stpug658h,uE3z9BfN,2020-0188,2020-06-16,16:47:43,17:15:03,NA,incomplete,16,filling,0,1,right,Green_Triangle_Chess_2.jpg,Green_Circle_Grid_4.jpg,Blue_Plus_Chess_1.jpg,left,884.7699999969918,false,NA,NA,NA,NA,NA,NA,NA,NA,true
uE3z9BfN,3p7qk0gj4wyyvhrnruxexlrqk8i2zm,3q5zz9zevssdx27hrp417stpug658h,uE3z9BfN,2020-0188,2020-06-16,16:47:43,17:15:03,NA,incomplete,17,filling,0,1,right,Purple_Plus_Dots_3.jpg,Purple_Triangle_Chess_4.jpg,Red_Star_Dots_2.jpg,right,1873.420000003418,true,NA,NA,NA,NA,NA,NA,NA,NA,true
uE3z9BfN,3p7qk0gj4wyyvhrnruxexlrqk8i2zm,3q5zz9zevssdx27hrp417stpug658h,uE3z9BfN,2020-0188,2020-06-16,16:47:43,17:15:03,NA,incomplete,18,filling,0,1,right,Red_Circle_Chess_1.jpg,Red_Star_Grid_2.jpg,Purple_Triangle_Chess_3.jpg,right,1044.1050000007963,true,NA,NA,NA,NA,NA,NA,NA,NA,true
uE3z9BfN,3p7qk0gj4wyyvhrnruxexlrqk8i2zm,3q5zz9zevssdx27hrp417stpug658h,uE3z9BfN,2020-0188,2020-06-16,16:47:43,17:15:03,NA,incomplete,19,filling,0,1,right,Blue_Circle_Chess_1.jpg,Blue_Triangle_Dots_4.jpg,Red_Plus_Chess_2.jpg,right,981.5500000040047,true,NA,NA,NA,NA,NA,NA,NA,NA,true
uE3z9BfN,3p7qk0gj4wyyvhrnruxexlrqk8i2zm,3q5zz9zevssdx27hrp417stpug658h,uE3z9BfN,2020-0188,2020-06-16,16:47:43,17:15:03,NA,incomplete,20,color,1,1,left,Blue_Triangle_Dots_4.jpg,Blue_Plus_Chess_3.jpg,Green_Circle_Dots_1.jpg,left,1402.7549999954645,true,NA,NA,NA,NA,NA,NA,NA,NA,true
uE3z9BfN,3p7qk0gj4wyyvhrnruxexlrqk8i2zm,3q5zz9zevssdx27hrp417stpug658h,uE3z9BfN,2020-0188,2020-06-16,16:47:43,17:15:03,NA,incomplete,21,color,1,1,right,Blue_Triangle_Chess_1.jpg,Purple_Circle_Chess_2.jpg,Blue_Star_Grid_4.jpg,right,823.2749999951338,true,NA,NA,NA,NA,NA,NA,NA,NA,true
uE3z9BfN,3p7qk0gj4wyyvhrnruxexlrqk8i2zm,3q5zz9zevssdx27hrp417stpug658h,uE3z9BfN,2020-0188,2020-06-16,16:47:43,17:15:03,NA,incomplete,22,color,1,0,left,Purple_Plus_Grid_3.jpg,Purple_Star_Chess_2.jpg,Red_Triangle_Grid_4.jpg,left,765.9300000013318,true,NA,NA,NA,NA,NA,NA,NA,NA,true
uE3z9BfN,3p7qk0gj4wyyvhrnruxexlrqk8i2zm,3q5zz9zevssdx27hrp417stpug658h,uE3z9BfN,2020-0188,2020-06-16,16:47:43,17:15:03,NA,incomplete,23,color,1,0,right,Red_Triangle_Grid_4.jpg,Purple_Star_Grid_3.jpg,Red_Plus_Stripes_2.jpg,right,680.9649999995017,true,NA,NA,NA,NA,NA,NA,NA,NA,true
uE3z9BfN,3p7qk0gj4wyyvhrnruxexlrqk8i2zm,3q5zz9zevssdx27hrp417stpug658h,uE3z9BfN,2020-0188,2020-06-16,16:47:43,17:15:03,NA,incomplete,24,color,1,1,right,Red_Circle_Stripes_2.jpg,Blue_Plus_Stripes_3.jpg,Red_Star_Chess_1.jpg,right,846.1850000021514,true,NA,NA,NA,NA,NA,NA,NA,NA,true
uE3z9BfN,3p7qk0gj4wyyvhrnruxexlrqk8i2zm,3q5zz9zevssdx27hrp417stpug658h,uE3z9BfN,2020-0188,2020-06-16,16:47:43,17:15:03,NA,incomplete,25,color,1,1,left,Green_Plus_Dots_1.jpg,Green_Triangle_Grid_4.jpg,Red_Star_Dots_3.jpg,left,686.6699999955017,true,NA,NA,NA,NA,NA,NA,NA,NA,true
uE3z9BfN,3p7qk0gj4wyyvhrnruxexlrqk8i2zm,3q5zz9zevssdx27hrp417stpug658h,uE3z9BfN,2020-0188,2020-06-16,16:47:43,17:15:03,NA,incomplete,26,color,1,1,left,Blue_Circle_Stripes_4.jpg,Blue_Triangle_Chess_2.jpg,Red_Plus_Stripes_1.jpg,left,667.9900000017369,true,NA,NA,NA,NA,NA,NA,NA,NA,true
uE3z9BfN,3p7qk0gj4wyyvhrnruxexlrqk8i2zm,3q5zz9zevssdx27hrp417stpug658h,uE3z9BfN,2020-0188,2020-06-16,16:47:43,17:15:03,NA,incomplete,27,color,1,0,left,Purple_Triangle_Stripes_3.jpg,Purple_Star_Grid_1.jpg,Blue_Circle_Stripes_2.jpg,left,925.555000001681,true,NA,NA,NA,NA,NA,NA,NA,NA,true
uE3z9BfN,3p7qk0gj4wyyvhrnruxexlrqk8i2zm,3q5zz9zevssdx27hrp417stpug658h,uE3z9BfN,2020-0188,2020-06-16,16:47:43,17:15:03,NA,incomplete,28,color,1,1,left,Green_Triangle_Stripes_2.jpg,Green_Star_Chess_3.jpg,Purple_Circle_Stripes_1.jpg,left,687.9000000044471,true,NA,NA,NA,NA,NA,NA,NA,NA,true
uE3z9BfN,3p7qk0gj4wyyvhrnruxexlrqk8i2zm,3q5zz9zevssdx27hrp417stpug658h,uE3z9BfN,2020-0188,2020-06-16,16:47:43,17:15:03,NA,incomplete,29,color,1,1,left,Blue_Circle_Dots_3.jpg,Blue_Star_Stripes_1.jpg,Purple_Triangle_Dots_2.jpg,left,752.1450000058394,true,NA,NA,NA,NA,NA,NA,NA,NA,true
uE3z9BfN,3p7qk0gj4wyyvhrnruxexlrqk8i2zm,3q5zz9zevssdx27hrp417stpug658h,uE3z9BfN,2020-0188,2020-06-16,16:47:43,17:15:03,NA,incomplete,30,color,1,1,right,Blue_Circle_Chess_3.jpg,Purple_Star_Chess_4.jpg,Blue_Triangle_Dots_1.jpg,right,856.5650000018068,true,NA,NA,NA,NA,NA,NA,NA,NA,true
uE3z9BfN,3p7qk0gj4wyyvhrnruxexlrqk8i2zm,3q5zz9zevssdx27hrp417stpug658h,uE3z9BfN,2020-0188,2020-06-16,16:47:43,17:15:03,NA,incomplete,31,color,1,1,right,Red_Plus_Grid_1.jpg,Blue_Star_Grid_2.jpg,Red_Triangle_Dots_3.jpg,right,820.464999997057,true,NA,NA,NA,NA,NA,NA,NA,NA,true
uE3z9BfN,3p7qk0gj4wyyvhrnruxexlrqk8i2zm,3q5zz9zevssdx27hrp417stpug658h,uE3z9BfN,2020-0188,2020-06-16,16:47:43,17:15:03,NA,incomplete,32,color,1,1,left,Purple_Triangle_Chess_1.jpg,Purple_Star_Stripes_4.jpg,Blue_Circle_Chess_2.jpg,left,734.5850000056671,true,NA,NA,NA,NA,NA,NA,NA,NA,true
uE3z9BfN,3p7qk0gj4wyyvhrnruxexlrqk8i2zm,3q5zz9zevssdx27hrp417stpug658h,uE3z9BfN,2020-0188,2020-06-16,16:47:43,17:15:03,NA,incomplete,33,color,1,1,right,Green_Circle_Dots_1.jpg,Blue_Triangle_Dots_2.jpg,Green_Plus_Grid_4.jpg,right,690.9149999992223,true,NA,NA,NA,NA,NA,NA,NA,NA,true
uE3z9BfN,3p7qk0gj4wyyvhrnruxexlrqk8i2zm,3q5zz9zevssdx27hrp417stpug658h,uE3z9BfN,2020-0188,2020-06-16,16:47:43,17:15:03,NA,incomplete,34,color,1,1,left,Blue_Star_Grid_1.jpg,Blue_Plus_Stripes_2.jpg,Red_Circle_Grid_3.jpg,left,699.4149999953806,true,NA,NA,NA,NA,NA,NA,NA,NA,true
uE3z9BfN,3p7qk0gj4wyyvhrnruxexlrqk8i2zm,3q5zz9zevssdx27hrp417stpug658h,uE3z9BfN,2020-0188,2020-06-16,16:47:43,17:15:03,NA,incomplete,35,color,1,1,right,Green_Star_Chess_3.jpg,Blue_Plus_Chess_1.jpg,Green_Triangle_Dots_4.jpg,right,734.5849999983329,true,NA,NA,NA,NA,NA,NA,NA,NA,true
uE3z9BfN,3p7qk0gj4wyyvhrnruxexlrqk8i2zm,3q5zz9zevssdx27hrp417stpug658h,uE3z9BfN,2020-0188,2020-06-16,16:47:43,17:15:03,NA,incomplete,36,color,1,1,left,Purple_Triangle_Chess_2.jpg,Purple_Circle_Grid_1.jpg,Green_Star_Chess_3.jpg,left,913.1199999975506,true,NA,NA,NA,NA,NA,NA,NA,NA,true
uE3z9BfN,3p7qk0gj4wyyvhrnruxexlrqk8i2zm,3q5zz9zevssdx27hrp417stpug658h,uE3z9BfN,2020-0188,2020-06-16,16:47:43,17:15:03,NA,incomplete,37,color,1,1,right,Purple_Circle_Grid_2.jpg,Green_Plus_Grid_1.jpg,Purple_Triangle_Dots_4.jpg,right,653.2099999967031,true,NA,NA,NA,NA,NA,NA,NA,NA,true
uE3z9BfN,3p7qk0gj4wyyvhrnruxexlrqk8i2zm,3q5zz9zevssdx27hrp417stpug658h,uE3z9BfN,2020-0188,2020-06-16,16:47:43,17:15:03,NA,incomplete,38,color,1,1,left,Purple_Star_Stripes_3.jpg,Purple_Plus_Dots_2.jpg,Red_Circle_Stripes_1.jpg,left,709.0099999986123,true,NA,NA,NA,NA,NA,NA,NA,NA,true
uE3z9BfN,3p7qk0gj4wyyvhrnruxexlrqk8i2zm,3q5zz9zevssdx27hrp417stpug658h,uE3z9BfN,2020-0188,2020-06-16,16:47:43,17:15:03,NA,incomplete,39,color,1,1,right,Green_Circle_Stripes_4.jpg,Blue_Star_Stripes_2.jpg,Green_Triangle_Dots_1.jpg,right,621.3800000040792,true,NA,NA,NA,NA,NA,NA,NA,NA,true
uE3z9BfN,3p7qk0gj4wyyvhrnruxexlrqk8i2zm,3q5zz9zevssdx27hrp417stpug658h,uE3z9BfN,2020-0188,2020-06-16,16:47:43,17:15:03,NA,incomplete,0,filling,0,1,left,Blue_Circle_Dots_3.jpg,Green_Triangle_Dots_2.jpg,Blue_Star_Chess_1.jpg,right,1175.1250000016298,false,high,NA,NA,NA,NA,NA,NA,NA,false
uE3z9BfN,3p7qk0gj4wyyvhrnruxexlrqk8i2zm,3q5zz9zevssdx27hrp417stpug658h,uE3z9BfN,2020-0188,2020-06-16,16:47:43,17:15:03,NA,incomplete,1,filling,0,1,right,Red_Circle_Stripes_1.jpg,Red_Star_Dots_3.jpg,Blue_Triangle_Stripes_4.jpg,right,1036.2099999984493,true,high,NA,NA,NA,NA,NA,NA,NA,false
uE3z9BfN,3p7qk0gj4wyyvhrnruxexlrqk8i2zm,3q5zz9zevssdx27hrp417stpug658h,uE3z9BfN,2020-0188,2020-06-16,16:47:43,17:15:03,NA,incomplete,2,filling,0,1,right,Blue_Circle_Chess_3.jpg,Blue_Plus_Grid_2.jpg,Red_Triangle_Chess_1.jpg,right,1159.2600000002421,true,high,NA,NA,NA,NA,NA,NA,NA,false
uE3z9BfN,3p7qk0gj4wyyvhrnruxexlrqk8i2zm,3q5zz9zevssdx27hrp417stpug658h,uE3z9BfN,2020-0188,2020-06-16,16:47:43,17:15:03,NA,incomplete,3,filling,0,1,left,Blue_Triangle_Stripes_2.jpg,Red_Star_Stripes_3.jpg,Blue_Plus_Chess_1.jpg,left,1138.4000000033993,true,high,NA,NA,NA,NA,NA,NA,NA,false
uE3z9BfN,3p7qk0gj4wyyvhrnruxexlrqk8i2zm,3q5zz9zevssdx27hrp417stpug658h,uE3z9BfN,2020-0188,2020-06-16,16:47:43,17:15:03,NA,incomplete,4,filling,0,0,right,Purple_Plus_Chess_4.jpg,Purple_Star_Grid_2.jpg,Blue_Triangle_Chess_3.jpg,right,1113.870000001043,true,high,NA,NA,NA,NA,NA,NA,NA,false
uE3z9BfN,3p7qk0gj4wyyvhrnruxexlrqk8i2zm,3q5zz9zevssdx27hrp417stpug658h,uE3z9BfN,2020-0188,2020-06-16,16:47:43,17:15:03,NA,incomplete,5,filling,0,1,left,Blue_Star_Grid_2.jpg,Green_Circle_Grid_4.jpg,Blue_Triangle_Stripes_1.jpg,left,895.6099999996368,true,high,NA,NA,NA,NA,NA,NA,NA,false
uE3z9BfN,3p7qk0gj4wyyvhrnruxexlrqk8i2zm,3q5zz9zevssdx27hrp417stpug658h,uE3z9BfN,2020-0188,2020-06-16,16:47:43,17:15:03,NA,incomplete,6,filling,0,1,left,Blue_Circle_Grid_4.jpg,Green_Star_Grid_3.jpg,Blue_Triangle_Dots_1.jpg,left,924.0149999968708,true,high,NA,NA,NA,NA,NA,NA,NA,false
uE3z9BfN,3p7qk0gj4wyyvhrnruxexlrqk8i2zm,3q5zz9zevssdx27hrp417stpug658h,uE3z9BfN,2020-0188,2020-06-16,16:47:43,17:15:03,NA,incomplete,7,filling,0,1,left,Green_Triangle_Grid_4.jpg,Red_Star_Grid_3.jpg,Green_Plus_Dots_2.jpg,left,884.0049999998882,true,high,NA,NA,NA,NA,NA,NA,NA,false
uE3z9BfN,3p7qk0gj4wyyvhrnruxexlrqk8i2zm,3q5zz9zevssdx27hrp417stpug658h,uE3z9BfN,2020-0188,2020-06-16,16:47:43,17:15:03,NA,incomplete,8,filling,0,0,left,Green_Triangle_Stripes_3.jpg,Purple_Plus_Stripes_2.jpg,Green_Circle_Grid_4.jpg,right,989.8099999991246,false,high,NA,NA,NA,NA,NA,NA,NA,false
uE3z9BfN,3p7qk0gj4wyyvhrnruxexlrqk8i2zm,3q5zz9zevssdx27hrp417stpug658h,uE3z9BfN,2020-0188,2020-06-16,16:47:43,17:15:03,NA,incomplete,9,filling,0,1,right,Blue_Plus_Dots_2.jpg,Blue_Circle_Chess_3.jpg,Red_Triangle_Dots_1.jpg,left,1228.5899999988033,false,high,NA,NA,NA,NA,NA,NA,NA,false
uE3z9BfN,3p7qk0gj4wyyvhrnruxexlrqk8i2zm,3q5zz9zevssdx27hrp417stpug658h,uE3z9BfN,2020-0188,2020-06-16,16:47:43,17:15:03,NA,incomplete,10,color,1,1,left,Blue_Plus_Grid_4.jpg,Blue_Star_Chess_1.jpg,Purple_Circle_Grid_3.jpg,right,992.0500000007451,false,high,NA,NA,NA,NA,NA,NA,NA,false
uE3z9BfN,3p7qk0gj4wyyvhrnruxexlrqk8i2zm,3q5zz9zevssdx27hrp417stpug658h,uE3z9BfN,2020-0188,2020-06-16,16:47:43,17:15:03,NA,incomplete,11,color,1,1,left,Purple_Triangle_Dots_2.jpg,Purple_Circle_Grid_4.jpg,Red_Plus_Dots_3.jpg,right,1300.8700000063982,false,high,NA,NA,NA,NA,NA,NA,NA,false
uE3z9BfN,3p7qk0gj4wyyvhrnruxexlrqk8i2zm,3q5zz9zevssdx27hrp417stpug658h,uE3z9BfN,2020-0188,2020-06-16,16:47:43,17:15:03,NA,incomplete,12,color,1,1,right,Red_Circle_Stripes_3.jpg,Green_Triangle_Stripes_2.jpg,Red_Star_Chess_4.jpg,right,622.5049999994226,true,high,NA,NA,NA,NA,NA,NA,NA,false
uE3z9BfN,3p7qk0gj4wyyvhrnruxexlrqk8i2zm,3q5zz9zevssdx27hrp417stpug658h,uE3z9BfN,2020-0188,2020-06-16,16:47:43,17:15:03,NA,incomplete,13,color,1,1,left,Green_Triangle_Stripes_3.jpg,Green_Circle_Grid_4.jpg,Blue_Plus_Stripes_1.jpg,left,597.3599999997532,true,high,NA,NA,NA,NA,NA,NA,NA,false
uE3z9BfN,3p7qk0gj4wyyvhrnruxexlrqk8i2zm,3q5zz9zevssdx27hrp417stpug658h,uE3z9BfN,2020-0188,2020-06-16,16:47:43,17:15:03,NA,incomplete,14,color,1,1,left,Purple_Star_Grid_3.jpg,Purple_Plus_Chess_2.jpg,Green_Circle_Grid_4.jpg,left,668.1099999987055,true,high,NA,NA,NA,NA,NA,NA,NA,false
uE3z9BfN,3p7qk0gj4wyyvhrnruxexlrqk8i2zm,3q5zz9zevssdx27hrp417stpug658h,uE3z9BfN,2020-0188,2020-06-16,16:47:43,17:15:03,NA,incomplete,15,color,1,1,right,Green_Plus_Stripes_3.jpg,Blue_Star_Stripes_1.jpg,Green_Circle_Chess_2.jpg,right,592.3750000002328,true,high,NA,NA,NA,NA,NA,NA,NA,false
uE3z9BfN,3p7qk0gj4wyyvhrnruxexlrqk8i2zm,3q5zz9zevssdx27hrp417stpug658h,uE3z9BfN,2020-0188,2020-06-16,16:47:43,17:15:03,NA,incomplete,16,color,1,1,right,Green_Plus_Dots_3.jpg,Purple_Star_Dots_2.jpg,Green_Triangle_Chess_1.jpg,right,685.4450000028592,true,high,NA,NA,NA,NA,NA,NA,NA,false
uE3z9BfN,3p7qk0gj4wyyvhrnruxexlrqk8i2zm,3q5zz9zevssdx27hrp417stpug658h,uE3z9BfN,2020-0188,2020-06-16,16:47:43,17:15:03,NA,incomplete,17,color,1,1,right,Purple_Star_Dots_4.jpg,Blue_Plus_Dots_3.jpg,Purple_Circle_Grid_1.jpg,right,772.9099999996834,true,high,NA,NA,NA,NA,NA,NA,NA,false
uE3z9BfN,3p7qk0gj4wyyvhrnruxexlrqk8i2zm,3q5zz9zevssdx27hrp417stpug658h,uE3z9BfN,2020-0188,2020-06-16,16:47:43,17:15:03,NA,incomplete,18,color,1,1,left,Purple_Star_Dots_2.jpg,Purple_Circle_Chess_3.jpg,Blue_Plus_Dots_4.jpg,left,736.4549999983283,true,high,NA,NA,NA,NA,NA,NA,NA,false
uE3z9BfN,3p7qk0gj4wyyvhrnruxexlrqk8i2zm,3q5zz9zevssdx27hrp417stpug658h,uE3z9BfN,2020-0188,2020-06-16,16:47:43,17:15:03,NA,incomplete,19,color,1,1,left,Green_Star_Stripes_3.jpg,Green_Plus_Dots_2.jpg,Purple_Triangle_Stripes_4.jpg,left,682.3549999971874,true,high,NA,NA,NA,NA,NA,NA,NA,false
uE3z9BfN,3p7qk0gj4wyyvhrnruxexlrqk8i2zm,3q5zz9zevssdx27hrp417stpug658h,uE3z9BfN,2020-0188,2020-06-16,16:47:43,17:15:03,NA,incomplete,20,filling,0,0,right,Purple_Triangle_Grid_2.jpg,Purple_Plus_Stripes_4.jpg,Blue_Circle_Grid_3.jpg,left,632.7050000036834,false,high,NA,NA,NA,NA,NA,NA,NA,false
uE3z9BfN,3p7qk0gj4wyyvhrnruxexlrqk8i2zm,3q5zz9zevssdx27hrp417stpug658h,uE3z9BfN,2020-0188,2020-06-16,16:47:43,17:15:03,NA,incomplete,21,filling,0,0,left,Purple_Plus_Stripes_4.jpg,Red_Circle_Stripes_3.jpg,Purple_Triangle_Chess_1.jpg,right,691.435000000638,false,high,NA,NA,NA,NA,NA,NA,NA,false
uE3z9BfN,3p7qk0gj4wyyvhrnruxexlrqk8i2zm,3q5zz9zevssdx27hrp417stpug658h,uE3z9BfN,2020-0188,2020-06-16,16:47:43,17:15:03,NA,incomplete,22,filling,0,1,right,Green_Star_Stripes_4.jpg,Green_Plus_Chess_1.jpg,Blue_Triangle_Stripes_3.jpg,left,628.4300000043586,false,high,NA,NA,NA,NA,NA,NA,NA,false
uE3z9BfN,3p7qk0gj4wyyvhrnruxexlrqk8i2zm,3q5zz9zevssdx27hrp417stpug658h,uE3z9BfN,2020-0188,2020-06-16,16:47:43,17:15:03,NA,incomplete,23,filling,0,1,right,Green_Plus_Dots_4.jpg,Green_Circle_Chess_1.jpg,Red_Star_Dots_3.jpg,left,658.6600000010803,false,high,NA,NA,NA,NA,NA,NA,NA,false
uE3z9BfN,3p7qk0gj4wyyvhrnruxexlrqk8i2zm,3q5zz9zevssdx27hrp417stpug658h,uE3z9BfN,2020-0188,2020-06-16,16:47:43,17:15:03,NA,incomplete,24,filling,0,1,right,Red_Star_Chess_1.jpg,Red_Circle_Dots_3.jpg,Blue_Triangle_Chess_4.jpg,right,816.0549999957439,true,high,NA,NA,NA,NA,NA,NA,NA,false
uE3z9BfN,3p7qk0gj4wyyvhrnruxexlrqk8i2zm,3q5zz9zevssdx27hrp417stpug658h,uE3z9BfN,2020-0188,2020-06-16,16:47:43,17:15:03,NA,incomplete,25,filling,0,1,left,Purple_Triangle_Dots_3.jpg,Blue_Plus_Dots_4.jpg,Purple_Star_Stripes_2.jpg,left,926.9399999976158,true,high,NA,NA,NA,NA,NA,NA,NA,false
uE3z9BfN,3p7qk0gj4wyyvhrnruxexlrqk8i2zm,3q5zz9zevssdx27hrp417stpug658h,uE3z9BfN,2020-0188,2020-06-16,16:47:43,17:15:03,NA,incomplete,26,filling,0,1,right,Green_Triangle_Chess_3.jpg,Green_Plus_Stripes_1.jpg,Purple_Circle_Chess_4.jpg,right,863.8300000020536,true,high,NA,NA,NA,NA,NA,NA,NA,false
uE3z9BfN,3p7qk0gj4wyyvhrnruxexlrqk8i2zm,3q5zz9zevssdx27hrp417stpug658h,uE3z9BfN,2020-0188,2020-06-16,16:47:43,17:15:03,NA,incomplete,27,filling,0,0,right,Blue_Circle_Grid_4.jpg,Blue_Plus_Stripes_1.jpg,Purple_Triangle_Grid_3.jpg,right,832.5049999984913,true,high,NA,NA,NA,NA,NA,NA,NA,false
uE3z9BfN,3p7qk0gj4wyyvhrnruxexlrqk8i2zm,3q5zz9zevssdx27hrp417stpug658h,uE3z9BfN,2020-0188,2020-06-16,16:47:43,17:15:03,NA,incomplete,28,filling,0,1,right,Blue_Plus_Grid_4.jpg,Blue_Triangle_Stripes_1.jpg,Red_Circle_Grid_2.jpg,right,842.2449999998789,true,high,NA,NA,NA,NA,NA,NA,NA,false
uE3z9BfN,3p7qk0gj4wyyvhrnruxexlrqk8i2zm,3q5zz9zevssdx27hrp417stpug658h,uE3z9BfN,2020-0188,2020-06-16,16:47:43,17:15:03,NA,incomplete,29,filling,0,0,right,Purple_Star_Stripes_1.jpg,Purple_Plus_Dots_3.jpg,Blue_Circle_Stripes_4.jpg,right,847.0850000012433,true,high,NA,NA,NA,NA,NA,NA,NA,false
uE3z9BfN,3p7qk0gj4wyyvhrnruxexlrqk8i2zm,3q5zz9zevssdx27hrp417stpug658h,uE3z9BfN,2020-0188,2020-06-16,16:47:43,17:15:03,NA,incomplete,30,color,1,1,left,Purple_Star_Grid_1.jpg,Purple_Triangle_Dots_2.jpg,Blue_Plus_Grid_4.jpg,right,892.3450000002049,false,high,NA,NA,NA,NA,NA,NA,NA,false
uE3z9BfN,3p7qk0gj4wyyvhrnruxexlrqk8i2zm,3q5zz9zevssdx27hrp417stpug658h,uE3z9BfN,2020-0188,2020-06-16,16:47:43,17:15:03,NA,incomplete,31,color,1,1,left,Green_Circle_Chess_4.jpg,Green_Triangle_Stripes_1.jpg,Purple_Star_Chess_2.jpg,left,634.6849999972619,true,high,NA,NA,NA,NA,NA,NA,NA,false
uE3z9BfN,3p7qk0gj4wyyvhrnruxexlrqk8i2zm,3q5zz9zevssdx27hrp417stpug658h,uE3z9BfN,2020-0188,2020-06-16,16:47:43,17:15:03,NA,incomplete,32,color,1,0,left,Red_Circle_Dots_4.jpg,Red_Star_Grid_2.jpg,Purple_Plus_Dots_3.jpg,left,600.2950000037672,true,high,NA,NA,NA,NA,NA,NA,NA,false
uE3z9BfN,3p7qk0gj4wyyvhrnruxexlrqk8i2zm,3q5zz9zevssdx27hrp417stpug658h,uE3z9BfN,2020-0188,2020-06-16,16:47:43,17:15:03,NA,incomplete,33,color,1,1,left,Blue_Triangle_Dots_2.jpg,Blue_Plus_Chess_4.jpg,Red_Circle_Dots_1.jpg,left,614.7750000018859,true,high,NA,NA,NA,NA,NA,NA,NA,false
uE3z9BfN,3p7qk0gj4wyyvhrnruxexlrqk8i2zm,3q5zz9zevssdx27hrp417stpug658h,uE3z9BfN,2020-0188,2020-06-16,16:47:43,17:15:03,NA,incomplete,34,color,1,0,right,Blue_Plus_Grid_3.jpg,Purple_Circle_Grid_1.jpg,Blue_Triangle_Chess_2.jpg,right,795.035000002943,true,high,NA,NA,NA,NA,NA,NA,NA,false
uE3z9BfN,3p7qk0gj4wyyvhrnruxexlrqk8i2zm,3q5zz9zevssdx27hrp417stpug658h,uE3z9BfN,2020-0188,2020-06-16,16:47:43,17:15:03,NA,incomplete,35,color,1,1,right,Red_Triangle_Chess_2.jpg,Green_Star_Chess_4.jpg,Red_Plus_Grid_3.jpg,left,854.1150000019697,false,high,NA,NA,NA,NA,NA,NA,NA,false
uE3z9BfN,3p7qk0gj4wyyvhrnruxexlrqk8i2zm,3q5zz9zevssdx27hrp417stpug658h,uE3z9BfN,2020-0188,2020-06-16,16:47:43,17:15:03,NA,incomplete,36,color,1,1,left,Green_Plus_Dots_4.jpg,Green_Star_Chess_3.jpg,Blue_Circle_Dots_2.jpg,left,642.3050000012154,true,high,NA,NA,NA,NA,NA,NA,NA,false
uE3z9BfN,3p7qk0gj4wyyvhrnruxexlrqk8i2zm,3q5zz9zevssdx27hrp417stpug658h,uE3z9BfN,2020-0188,2020-06-16,16:47:43,17:15:03,NA,incomplete,37,color,1,0,right,Red_Triangle_Stripes_3.jpg,Purple_Star_Stripes_2.jpg,Red_Plus_Dots_4.jpg,right,688.9599999994971,true,high,NA,NA,NA,NA,NA,NA,NA,false
uE3z9BfN,3p7qk0gj4wyyvhrnruxexlrqk8i2zm,3q5zz9zevssdx27hrp417stpug658h,uE3z9BfN,2020-0188,2020-06-16,16:47:43,17:15:03,NA,incomplete,38,color,1,1,right,Purple_Circle_Dots_3.jpg,Blue_Star_Dots_2.jpg,Purple_Plus_Grid_1.jpg,right,922.2349999982398,true,high,NA,NA,NA,NA,NA,NA,NA,false
uE3z9BfN,3p7qk0gj4wyyvhrnruxexlrqk8i2zm,3q5zz9zevssdx27hrp417stpug658h,uE3z9BfN,2020-0188,2020-06-16,16:47:43,17:15:03,NA,incomplete,39,color,1,1,left,Green_Circle_Stripes_2.jpg,Green_Plus_Dots_3.jpg,Purple_Star_Stripes_4.jpg,left,689.234999998007,true,high,NA,NA,NA,NA,NA,NA,NA,false
uE3z9BfN,3p7qk0gj4wyyvhrnruxexlrqk8i2zm,3q5zz9zevssdx27hrp417stpug658h,uE3z9BfN,2020-0188,2020-06-16,16:47:43,17:15:03,NA,incomplete,40,filling,0,1,left,Blue_Plus_Stripes_1.jpg,Purple_Star_Stripes_2.jpg,Blue_Triangle_Chess_3.jpg,right,626.2250000000931,false,high,NA,NA,NA,NA,NA,NA,NA,false
uE3z9BfN,3p7qk0gj4wyyvhrnruxexlrqk8i2zm,3q5zz9zevssdx27hrp417stpug658h,uE3z9BfN,2020-0188,2020-06-16,16:47:43,17:15:03,NA,incomplete,41,filling,0,1,right,Green_Star_Dots_4.jpg,Green_Plus_Stripes_1.jpg,Blue_Triangle_Dots_2.jpg,left,947.6349999967497,false,high,NA,NA,NA,NA,NA,NA,NA,false
uE3z9BfN,3p7qk0gj4wyyvhrnruxexlrqk8i2zm,3q5zz9zevssdx27hrp417stpug658h,uE3z9BfN,2020-0188,2020-06-16,16:47:43,17:15:03,NA,incomplete,42,filling,0,1,right,Green_Star_Stripes_3.jpg,Green_Plus_Grid_1.jpg,Red_Circle_Stripes_4.jpg,right,790.8850000021048,true,high,NA,NA,NA,NA,NA,NA,NA,false
uE3z9BfN,3p7qk0gj4wyyvhrnruxexlrqk8i2zm,3q5zz9zevssdx27hrp417stpug658h,uE3z9BfN,2020-0188,2020-06-16,16:47:43,17:15:03,NA,incomplete,43,filling,0,1,right,Purple_Triangle_Grid_4.jpg,Purple_Plus_Chess_3.jpg,Blue_Star_Grid_2.jpg,left,850.2450000013923,false,high,NA,NA,NA,NA,NA,NA,NA,false
uE3z9BfN,3p7qk0gj4wyyvhrnruxexlrqk8i2zm,3q5zz9zevssdx27hrp417stpug658h,uE3z9BfN,2020-0188,2020-06-16,16:47:43,17:15:03,NA,incomplete,44,filling,0,1,right,Blue_Star_Grid_1.jpg,Blue_Plus_Stripes_3.jpg,Red_Triangle_Grid_4.jpg,right,1379.9999999973224,true,high,NA,NA,NA,NA,NA,NA,NA,false
uE3z9BfN,3p7qk0gj4wyyvhrnruxexlrqk8i2zm,3q5zz9zevssdx27hrp417stpug658h,uE3z9BfN,2020-0188,2020-06-16,16:47:43,17:15:03,NA,incomplete,45,filling,0,0,left,Purple_Triangle_Chess_1.jpg,Red_Circle_Chess_4.jpg,Purple_Plus_Stripes_2.jpg,left,978.1199999997625,true,high,NA,NA,NA,NA,NA,NA,NA,false
uE3z9BfN,3p7qk0gj4wyyvhrnruxexlrqk8i2zm,3q5zz9zevssdx27hrp417stpug658h,uE3z9BfN,2020-0188,2020-06-16,16:47:43,17:15:03,NA,incomplete,46,filling,0,1,right,Blue_Star_Chess_2.jpg,Blue_Plus_Stripes_4.jpg,Red_Circle_Chess_3.jpg,left,608.4199999968987,false,high,NA,NA,NA,NA,NA,NA,NA,false
uE3z9BfN,3p7qk0gj4wyyvhrnruxexlrqk8i2zm,3q5zz9zevssdx27hrp417stpug658h,uE3z9BfN,2020-0188,2020-06-16,16:47:43,17:15:03,NA,incomplete,47,filling,0,0,right,Blue_Star_Dots_3.jpg,Blue_Triangle_Chess_2.jpg,Purple_Plus_Dots_4.jpg,right,1017.2649999950081,true,high,NA,NA,NA,NA,NA,NA,NA,false
uE3z9BfN,3p7qk0gj4wyyvhrnruxexlrqk8i2zm,3q5zz9zevssdx27hrp417stpug658h,uE3z9BfN,2020-0188,2020-06-16,16:47:43,17:15:03,NA,incomplete,48,filling,0,1,left,Blue_Triangle_Stripes_2.jpg,Red_Circle_Stripes_4.jpg,Blue_Star_Grid_3.jpg,right,606.135000001872,false,high,NA,NA,NA,NA,NA,NA,NA,false
uE3z9BfN,3p7qk0gj4wyyvhrnruxexlrqk8i2zm,3q5zz9zevssdx27hrp417stpug658h,uE3z9BfN,2020-0188,2020-06-16,16:47:43,17:15:03,NA,incomplete,49,filling,0,1,right,Purple_Circle_Grid_3.jpg,Purple_Star_Stripes_2.jpg,Blue_Plus_Grid_4.jpg,left,879.1199999977835,false,high,NA,NA,NA,NA,NA,NA,NA,false
uE3z9BfN,3p7qk0gj4wyyvhrnruxexlrqk8i2zm,3q5zz9zevssdx27hrp417stpug658h,uE3z9BfN,2020-0188,2020-06-16,16:47:43,17:15:03,NA,incomplete,50,color,1,0,right,Purple_Plus_Chess_2.jpg,Green_Circle_Chess_3.jpg,Purple_Star_Stripes_1.jpg,left,888.645000006305,false,high,NA,NA,NA,NA,NA,NA,NA,false
uE3z9BfN,3p7qk0gj4wyyvhrnruxexlrqk8i2zm,3q5zz9zevssdx27hrp417stpug658h,uE3z9BfN,2020-0188,2020-06-16,16:47:43,17:15:03,NA,incomplete,51,color,1,1,right,Green_Triangle_Chess_4.jpg,Red_Star_Chess_2.jpg,Green_Circle_Dots_3.jpg,left,862.2850000028266,false,high,NA,NA,NA,NA,NA,NA,NA,false
uE3z9BfN,3p7qk0gj4wyyvhrnruxexlrqk8i2zm,3q5zz9zevssdx27hrp417stpug658h,uE3z9BfN,2020-0188,2020-06-16,16:47:43,17:15:03,NA,incomplete,52,color,1,0,left,Red_Plus_Chess_2.jpg,Red_Triangle_Dots_1.jpg,Purple_Circle_Chess_4.jpg,right,685.03000000061,false,high,NA,NA,NA,NA,NA,NA,NA,false
uE3z9BfN,3p7qk0gj4wyyvhrnruxexlrqk8i2zm,3q5zz9zevssdx27hrp417stpug658h,uE3z9BfN,2020-0188,2020-06-16,16:47:43,17:15:03,NA,incomplete,53,color,1,1,left,Purple_Triangle_Stripes_2.jpg,Purple_Star_Dots_4.jpg,Blue_Plus_Stripes_1.jpg,right,867.384999997681,false,high,NA,NA,NA,NA,NA,NA,NA,false
uE3z9BfN,3p7qk0gj4wyyvhrnruxexlrqk8i2zm,3q5zz9zevssdx27hrp417stpug658h,uE3z9BfN,2020-0188,2020-06-16,16:47:43,17:15:03,NA,incomplete,54,color,1,1,right,Purple_Star_Stripes_3.jpg,Red_Triangle_Stripes_2.jpg,Purple_Circle_Chess_1.jpg,right,821.2350000031292,true,high,NA,NA,NA,NA,NA,NA,NA,false
uE3z9BfN,3p7qk0gj4wyyvhrnruxexlrqk8i2zm,3q5zz9zevssdx27hrp417stpug658h,uE3z9BfN,2020-0188,2020-06-16,16:47:43,17:15:03,NA,incomplete,55,color,1,1,left,Red_Star_Stripes_1.jpg,Red_Plus_Grid_3.jpg,Blue_Triangle_Stripes_4.jpg,left,639.2600000036182,true,high,NA,NA,NA,NA,NA,NA,NA,false
uE3z9BfN,3p7qk0gj4wyyvhrnruxexlrqk8i2zm,3q5zz9zevssdx27hrp417stpug658h,uE3z9BfN,2020-0188,2020-06-16,16:47:43,17:15:03,NA,incomplete,56,color,1,1,right,Blue_Circle_Stripes_2.jpg,Green_Plus_Stripes_4.jpg,Blue_Star_Chess_3.jpg,right,579.7049999963492,true,high,NA,NA,NA,NA,NA,NA,NA,false
uE3z9BfN,3p7qk0gj4wyyvhrnruxexlrqk8i2zm,3q5zz9zevssdx27hrp417stpug658h,uE3z9BfN,2020-0188,2020-06-16,16:47:43,17:15:03,NA,incomplete,57,color,1,1,left,Purple_Triangle_Stripes_4.jpg,Purple_Plus_Dots_1.jpg,Green_Circle_Stripes_3.jpg,left,827.1249999960419,true,high,NA,NA,NA,NA,NA,NA,NA,false
uE3z9BfN,3p7qk0gj4wyyvhrnruxexlrqk8i2zm,3q5zz9zevssdx27hrp417stpug658h,uE3z9BfN,2020-0188,2020-06-16,16:47:43,17:15:03,NA,incomplete,58,color,1,1,left,Blue_Star_Dots_3.jpg,Blue_Plus_Stripes_2.jpg,Purple_Triangle_Dots_4.jpg,left,703.6000000006752,true,high,NA,NA,NA,NA,NA,NA,NA,false
uE3z9BfN,3p7qk0gj4wyyvhrnruxexlrqk8i2zm,3q5zz9zevssdx27hrp417stpug658h,uE3z9BfN,2020-0188,2020-06-16,16:47:43,17:15:03,NA,incomplete,59,color,1,1,left,Blue_Triangle_Stripes_2.jpg,Blue_Plus_Grid_1.jpg,Red_Circle_Stripes_3.jpg,left,617.7050000042655,true,high,NA,NA,NA,NA,NA,NA,NA,false
uE3z9BfN,3p7qk0gj4wyyvhrnruxexlrqk8i2zm,3q5zz9zevssdx27hrp417stpug658h,uE3z9BfN,2020-0188,2020-06-16,16:47:43,17:15:03,NA,incomplete,60,filling,0,1,left,Green_Triangle_Dots_3.jpg,Blue_Plus_Dots_2.jpg,Green_Circle_Grid_4.jpg,right,617.5400000065565,false,high,NA,NA,NA,NA,NA,NA,NA,false
uE3z9BfN,3p7qk0gj4wyyvhrnruxexlrqk8i2zm,3q5zz9zevssdx27hrp417stpug658h,uE3z9BfN,2020-0188,2020-06-16,16:47:43,17:15:03,NA,incomplete,61,filling,0,0,left,Blue_Triangle_Chess_2.jpg,Green_Circle_Chess_1.jpg,Blue_Star_Grid_3.jpg,right,774.1349999995437,false,high,NA,NA,NA,NA,NA,NA,NA,false
uE3z9BfN,3p7qk0gj4wyyvhrnruxexlrqk8i2zm,3q5zz9zevssdx27hrp417stpug658h,uE3z9BfN,2020-0188,2020-06-16,16:47:43,17:15:03,NA,incomplete,62,filling,0,1,right,Red_Plus_Grid_1.jpg,Red_Star_Chess_2.jpg,Green_Triangle_Grid_4.jpg,left,671.3850000014063,false,high,NA,NA,NA,NA,NA,NA,NA,false
uE3z9BfN,3p7qk0gj4wyyvhrnruxexlrqk8i2zm,3q5zz9zevssdx27hrp417stpug658h,uE3z9BfN,2020-0188,2020-06-16,16:47:43,17:15:03,NA,incomplete,63,filling,0,1,right,Red_Triangle_Dots_1.jpg,Red_Plus_Grid_4.jpg,Green_Star_Dots_2.jpg,left,759.5399999991059,false,high,NA,NA,NA,NA,NA,NA,NA,false
uE3z9BfN,3p7qk0gj4wyyvhrnruxexlrqk8i2zm,3q5zz9zevssdx27hrp417stpug658h,uE3z9BfN,2020-0188,2020-06-16,16:47:43,17:15:03,NA,incomplete,64,filling,0,0,left,Red_Circle_Grid_4.jpg,Purple_Triangle_Grid_2.jpg,Red_Plus_Dots_3.jpg,left,809.6999999979744,true,high,NA,NA,NA,NA,NA,NA,NA,false
uE3z9BfN,3p7qk0gj4wyyvhrnruxexlrqk8i2zm,3q5zz9zevssdx27hrp417stpug658h,uE3z9BfN,2020-0188,2020-06-16,16:47:43,17:15:03,NA,incomplete,65,filling,0,1,right,Red_Star_Chess_1.jpg,Red_Circle_Dots_3.jpg,Purple_Triangle_Chess_4.jpg,left,1010.9450000018114,false,high,NA,NA,NA,NA,NA,NA,NA,false
uE3z9BfN,3p7qk0gj4wyyvhrnruxexlrqk8i2zm,3q5zz9zevssdx27hrp417stpug658h,uE3z9BfN,2020-0188,2020-06-16,16:47:43,17:15:03,NA,incomplete,66,filling,0,1,left,Blue_Circle_Dots_2.jpg,Green_Plus_Dots_3.jpg,Blue_Triangle_Stripes_4.jpg,left,906.8299999999581,true,high,NA,NA,NA,NA,NA,NA,NA,false
uE3z9BfN,3p7qk0gj4wyyvhrnruxexlrqk8i2zm,3q5zz9zevssdx27hrp417stpug658h,uE3z9BfN,2020-0188,2020-06-16,16:47:43,17:15:03,NA,incomplete,67,filling,0,1,left,Purple_Star_Grid_4.jpg,Red_Triangle_Grid_3.jpg,Purple_Circle_Dots_2.jpg,left,791.2199999991572,true,high,NA,NA,NA,NA,NA,NA,NA,false
uE3z9BfN,3p7qk0gj4wyyvhrnruxexlrqk8i2zm,3q5zz9zevssdx27hrp417stpug658h,uE3z9BfN,2020-0188,2020-06-16,16:47:43,17:15:03,NA,incomplete,68,filling,0,1,right,Green_Triangle_Grid_1.jpg,Green_Circle_Chess_2.jpg,Blue_Star_Grid_4.jpg,left,891.3949999986216,false,high,NA,NA,NA,NA,NA,NA,NA,false
uE3z9BfN,3p7qk0gj4wyyvhrnruxexlrqk8i2zm,3q5zz9zevssdx27hrp417stpug658h,uE3z9BfN,2020-0188,2020-06-16,16:47:43,17:15:03,NA,incomplete,69,filling,0,1,left,Blue_Star_Dots_2.jpg,Purple_Circle_Dots_3.jpg,Blue_Triangle_Grid_1.jpg,left,1093.2049999975134,true,high,NA,NA,NA,NA,NA,NA,NA,false
uE3z9BfN,3p7qk0gj4wyyvhrnruxexlrqk8i2zm,3q5zz9zevssdx27hrp417stpug658h,uE3z9BfN,2020-0188,2020-06-16,16:47:43,17:15:03,NA,incomplete,70,color,1,1,left,Red_Triangle_Dots_3.jpg,Red_Circle_Grid_1.jpg,Green_Star_Dots_4.jpg,right,930.4350000020349,false,high,NA,NA,NA,NA,NA,NA,NA,false
uE3z9BfN,3p7qk0gj4wyyvhrnruxexlrqk8i2zm,3q5zz9zevssdx27hrp417stpug658h,uE3z9BfN,2020-0188,2020-06-16,16:47:43,17:15:03,NA,incomplete,71,color,1,1,right,Red_Triangle_Grid_3.jpg,Green_Circle_Grid_2.jpg,Red_Star_Chess_1.jpg,left,938.1350000039674,false,high,NA,NA,NA,NA,NA,NA,NA,false
uE3z9BfN,3p7qk0gj4wyyvhrnruxexlrqk8i2zm,3q5zz9zevssdx27hrp417stpug658h,uE3z9BfN,2020-0188,2020-06-16,16:47:43,17:15:03,NA,incomplete,72,color,1,1,right,Blue_Plus_Dots_3.jpg,Red_Triangle_Dots_1.jpg,Blue_Circle_Chess_4.jpg,right,629.659999998752,true,high,NA,NA,NA,NA,NA,NA,NA,false
uE3z9BfN,3p7qk0gj4wyyvhrnruxexlrqk8i2zm,3q5zz9zevssdx27hrp417stpug658h,uE3z9BfN,2020-0188,2020-06-16,16:47:43,17:15:03,NA,incomplete,73,color,1,1,left,Blue_Circle_Chess_4.jpg,Blue_Triangle_Grid_1.jpg,Green_Plus_Chess_3.jpg,left,587.7649999965215,true,high,NA,NA,NA,NA,NA,NA,NA,false
uE3z9BfN,3p7qk0gj4wyyvhrnruxexlrqk8i2zm,3q5zz9zevssdx27hrp417stpug658h,uE3z9BfN,2020-0188,2020-06-16,16:47:43,17:15:03,NA,incomplete,74,color,1,0,left,Blue_Circle_Grid_4.jpg,Blue_Triangle_Chess_1.jpg,Green_Plus_Grid_3.jpg,left,573.5050000002375,true,high,NA,NA,NA,NA,NA,NA,NA,false
uE3z9BfN,3p7qk0gj4wyyvhrnruxexlrqk8i2zm,3q5zz9zevssdx27hrp417stpug658h,uE3z9BfN,2020-0188,2020-06-16,16:47:43,17:15:03,NA,incomplete,75,color,1,0,right,Green_Circle_Stripes_3.jpg,Blue_Triangle_Stripes_1.jpg,Green_Star_Grid_2.jpg,left,857.4099999968894,false,high,NA,NA,NA,NA,NA,NA,NA,false
uE3z9BfN,3p7qk0gj4wyyvhrnruxexlrqk8i2zm,3q5zz9zevssdx27hrp417stpug658h,uE3z9BfN,2020-0188,2020-06-16,16:47:43,17:15:03,NA,incomplete,76,color,1,1,left,Blue_Circle_Dots_3.jpg,Blue_Plus_Chess_4.jpg,Red_Star_Dots_2.jpg,right,803.4649999972899,false,high,NA,NA,NA,NA,NA,NA,NA,false
uE3z9BfN,3p7qk0gj4wyyvhrnruxexlrqk8i2zm,3q5zz9zevssdx27hrp417stpug658h,uE3z9BfN,2020-0188,2020-06-16,16:47:43,17:15:03,NA,incomplete,77,color,1,1,left,Red_Star_Stripes_4.jpg,Red_Circle_Chess_2.jpg,Blue_Triangle_Stripes_1.jpg,left,886.0850000055507,true,high,NA,NA,NA,NA,NA,NA,NA,false
uE3z9BfN,3p7qk0gj4wyyvhrnruxexlrqk8i2zm,3q5zz9zevssdx27hrp417stpug658h,uE3z9BfN,2020-0188,2020-06-16,16:47:43,17:15:03,NA,incomplete,78,color,1,0,left,Blue_Star_Chess_4.jpg,Blue_Plus_Dots_1.jpg,Purple_Circle_Chess_2.jpg,left,790.145000006305,true,high,NA,NA,NA,NA,NA,NA,NA,false
uE3z9BfN,3p7qk0gj4wyyvhrnruxexlrqk8i2zm,3q5zz9zevssdx27hrp417stpug658h,uE3z9BfN,2020-0188,2020-06-16,16:47:43,17:15:03,NA,incomplete,79,color,1,1,left,Purple_Star_Dots_3.jpg,Purple_Circle_Stripes_1.jpg,Green_Triangle_Dots_2.jpg,right,931.375,false,high,NA,NA,NA,NA,NA,NA,NA,false
uE3z9BfN,3p7qk0gj4wyyvhrnruxexlrqk8i2zm,3q5zz9zevssdx27hrp417stpug658h,uE3z9BfN,2020-0188,2020-06-16,16:47:43,17:15:03,NA,incomplete,80,filling,0,1,right,Green_Triangle_Grid_1.jpg,Green_Star_Stripes_4.jpg,Blue_Circle_Grid_2.jpg,left,1211.9549999986775,false,high,NA,NA,NA,NA,NA,NA,NA,false
uE3z9BfN,3p7qk0gj4wyyvhrnruxexlrqk8i2zm,3q5zz9zevssdx27hrp417stpug658h,uE3z9BfN,2020-0188,2020-06-16,16:47:43,17:15:03,NA,incomplete,81,filling,0,1,left,Red_Star_Stripes_3.jpg,Blue_Circle_Stripes_1.jpg,Red_Triangle_Chess_4.jpg,right,844.084999996936,false,high,NA,NA,NA,NA,NA,NA,NA,false
uE3z9BfN,3p7qk0gj4wyyvhrnruxexlrqk8i2zm,3q5zz9zevssdx27hrp417stpug658h,uE3z9BfN,2020-0188,2020-06-16,16:47:43,17:15:03,NA,incomplete,82,filling,0,0,right,Blue_Star_Stripes_2.jpg,Blue_Triangle_Chess_3.jpg,Green_Plus_Stripes_4.jpg,right,1049.0949999948498,true,high,NA,NA,NA,NA,NA,NA,NA,false
uE3z9BfN,3p7qk0gj4wyyvhrnruxexlrqk8i2zm,3q5zz9zevssdx27hrp417stpug658h,uE3z9BfN,2020-0188,2020-06-16,16:47:43,17:15:03,NA,incomplete,83,filling,0,0,right,Green_Circle_Stripes_2.jpg,Green_Triangle_Dots_4.jpg,Purple_Star_Stripes_3.jpg,right,830.7449999991804,true,high,NA,NA,NA,NA,NA,NA,NA,false
uE3z9BfN,3p7qk0gj4wyyvhrnruxexlrqk8i2zm,3q5zz9zevssdx27hrp417stpug658h,uE3z9BfN,2020-0188,2020-06-16,16:47:43,17:15:03,NA,incomplete,84,filling,0,0,right,Green_Star_Grid_4.jpg,Green_Circle_Chess_3.jpg,Red_Triangle_Grid_2.jpg,left,593.7149999954272,false,high,NA,NA,NA,NA,NA,NA,NA,false
uE3z9BfN,3p7qk0gj4wyyvhrnruxexlrqk8i2zm,3q5zz9zevssdx27hrp417stpug658h,uE3z9BfN,2020-0188,2020-06-16,16:47:43,17:15:03,NA,incomplete,85,filling,0,1,right,Blue_Plus_Dots_4.jpg,Blue_Star_Grid_1.jpg,Red_Triangle_Dots_2.jpg,left,622.4350000047125,false,high,NA,NA,NA,NA,NA,NA,NA,false
uE3z9BfN,3p7qk0gj4wyyvhrnruxexlrqk8i2zm,3q5zz9zevssdx27hrp417stpug658h,uE3z9BfN,2020-0188,2020-06-16,16:47:43,17:15:03,NA,incomplete,86,filling,0,1,left,Green_Circle_Dots_1.jpg,Blue_Triangle_Dots_3.jpg,Green_Plus_Chess_2.jpg,left,990.0449999987613,true,high,NA,NA,NA,NA,NA,NA,NA,false
uE3z9BfN,3p7qk0gj4wyyvhrnruxexlrqk8i2zm,3q5zz9zevssdx27hrp417stpug658h,uE3z9BfN,2020-0188,2020-06-16,16:47:43,17:15:03,NA,incomplete,87,filling,0,0,right,Green_Circle_Stripes_3.jpg,Green_Plus_Chess_2.jpg,Red_Star_Stripes_4.jpg,right,886.4400000020396,true,high,NA,NA,NA,NA,NA,NA,NA,false
uE3z9BfN,3p7qk0gj4wyyvhrnruxexlrqk8i2zm,3q5zz9zevssdx27hrp417stpug658h,uE3z9BfN,2020-0188,2020-06-16,16:47:43,17:15:03,NA,incomplete,88,filling,0,1,right,Blue_Triangle_Stripes_2.jpg,Blue_Plus_Grid_4.jpg,Red_Star_Stripes_3.jpg,left,625.2600000007078,false,high,NA,NA,NA,NA,NA,NA,NA,false
uE3z9BfN,3p7qk0gj4wyyvhrnruxexlrqk8i2zm,3q5zz9zevssdx27hrp417stpug658h,uE3z9BfN,2020-0188,2020-06-16,16:47:43,17:15:03,NA,incomplete,89,filling,0,1,right,Purple_Triangle_Chess_2.jpg,Purple_Star_Grid_1.jpg,Red_Plus_Chess_3.jpg,right,854.7050000051968,true,high,NA,NA,NA,NA,NA,NA,NA,false
uE3z9BfN,3p7qk0gj4wyyvhrnruxexlrqk8i2zm,3q5zz9zevssdx27hrp417stpug658h,uE3z9BfN,2020-0188,2020-06-16,16:47:43,17:15:03,NA,incomplete,90,color,1,1,right,Red_Plus_Stripes_3.jpg,Green_Triangle_Stripes_1.jpg,Red_Star_Chess_2.jpg,left,771.4699999997392,false,high,NA,NA,NA,NA,NA,NA,NA,false
uE3z9BfN,3p7qk0gj4wyyvhrnruxexlrqk8i2zm,3q5zz9zevssdx27hrp417stpug658h,uE3z9BfN,2020-0188,2020-06-16,16:47:43,17:15:03,NA,incomplete,91,color,1,1,right,Green_Star_Dots_2.jpg,Blue_Circle_Dots_1.jpg,Green_Triangle_Chess_4.jpg,right,589.3700000015087,true,high,NA,NA,NA,NA,NA,NA,NA,false
uE3z9BfN,3p7qk0gj4wyyvhrnruxexlrqk8i2zm,3q5zz9zevssdx27hrp417stpug658h,uE3z9BfN,2020-0188,2020-06-16,16:47:43,17:15:03,NA,incomplete,92,color,1,1,left,Purple_Plus_Stripes_3.jpg,Purple_Triangle_Dots_2.jpg,Red_Star_Stripes_1.jpg,left,618.2699999988545,true,high,NA,NA,NA,NA,NA,NA,NA,false
uE3z9BfN,3p7qk0gj4wyyvhrnruxexlrqk8i2zm,3q5zz9zevssdx27hrp417stpug658h,uE3z9BfN,2020-0188,2020-06-16,16:47:43,17:15:03,NA,incomplete,93,color,1,1,right,Green_Circle_Dots_3.jpg,Blue_Star_Dots_2.jpg,Green_Plus_Grid_4.jpg,right,583.3850000053644,true,high,NA,NA,NA,NA,NA,NA,NA,false
uE3z9BfN,3p7qk0gj4wyyvhrnruxexlrqk8i2zm,3q5zz9zevssdx27hrp417stpug658h,uE3z9BfN,2020-0188,2020-06-16,16:47:43,17:15:03,NA,incomplete,94,color,1,1,left,Purple_Plus_Chess_1.jpg,Purple_Star_Grid_3.jpg,Blue_Triangle_Chess_2.jpg,left,585.5249999950174,true,high,NA,NA,NA,NA,NA,NA,NA,false
uE3z9BfN,3p7qk0gj4wyyvhrnruxexlrqk8i2zm,3q5zz9zevssdx27hrp417stpug658h,uE3z9BfN,2020-0188,2020-06-16,16:47:43,17:15:03,NA,incomplete,95,color,1,1,right,Green_Circle_Dots_3.jpg,Purple_Triangle_Dots_2.jpg,Green_Plus_Stripes_4.jpg,right,526.4500000048429,true,high,NA,NA,NA,NA,NA,NA,NA,false
uE3z9BfN,3p7qk0gj4wyyvhrnruxexlrqk8i2zm,3q5zz9zevssdx27hrp417stpug658h,uE3z9BfN,2020-0188,2020-06-16,16:47:43,17:15:03,NA,incomplete,96,color,1,1,right,Blue_Star_Grid_4.jpg,Purple_Circle_Grid_1.jpg,Blue_Triangle_Stripes_3.jpg,right,629.2649999959394,true,high,NA,NA,NA,NA,NA,NA,NA,false
uE3z9BfN,3p7qk0gj4wyyvhrnruxexlrqk8i2zm,3q5zz9zevssdx27hrp417stpug658h,uE3z9BfN,2020-0188,2020-06-16,16:47:43,17:15:03,NA,incomplete,97,color,1,1,left,Purple_Plus_Dots_4.jpg,Purple_Triangle_Stripes_2.jpg,Red_Circle_Dots_3.jpg,left,633.0800000070594,true,high,NA,NA,NA,NA,NA,NA,NA,false
uE3z9BfN,3p7qk0gj4wyyvhrnruxexlrqk8i2zm,3q5zz9zevssdx27hrp417stpug658h,uE3z9BfN,2020-0188,2020-06-16,16:47:43,17:15:03,NA,incomplete,98,color,1,1,left,Green_Star_Dots_2.jpg,Green_Triangle_Chess_4.jpg,Purple_Circle_Dots_3.jpg,left,602.1800000017975,true,high,NA,NA,NA,NA,NA,NA,NA,false
uE3z9BfN,3p7qk0gj4wyyvhrnruxexlrqk8i2zm,3q5zz9zevssdx27hrp417stpug658h,uE3z9BfN,2020-0188,2020-06-16,16:47:43,17:15:03,NA,incomplete,99,color,1,1,right,Blue_Triangle_Stripes_2.jpg,Red_Star_Stripes_4.jpg,Blue_Circle_Grid_1.jpg,right,816.1150000013877,true,high,NA,NA,NA,NA,NA,NA,NA,false
uE3z9BfN,3p7qk0gj4wyyvhrnruxexlrqk8i2zm,3q5zz9zevssdx27hrp417stpug658h,uE3z9BfN,2020-0188,2020-06-16,16:47:43,17:15:03,NA,incomplete,100,filling,0,1,left,Blue_Triangle_Chess_1.jpg,Purple_Star_Chess_2.jpg,Blue_Circle_Grid_3.jpg,right,579.210000003688,false,high,NA,NA,NA,NA,NA,NA,NA,false
uE3z9BfN,3p7qk0gj4wyyvhrnruxexlrqk8i2zm,3q5zz9zevssdx27hrp417stpug658h,uE3z9BfN,2020-0188,2020-06-16,16:47:43,17:15:03,NA,incomplete,101,filling,0,1,right,Red_Triangle_Grid_2.jpg,Red_Plus_Dots_4.jpg,Green_Star_Grid_3.jpg,right,709.5499999993481,true,high,NA,NA,NA,NA,NA,NA,NA,false
uE3z9BfN,3p7qk0gj4wyyvhrnruxexlrqk8i2zm,3q5zz9zevssdx27hrp417stpug658h,uE3z9BfN,2020-0188,2020-06-16,16:47:43,17:15:03,NA,incomplete,102,filling,0,1,right,Blue_Circle_Chess_2.jpg,Blue_Star_Grid_3.jpg,Purple_Triangle_Chess_1.jpg,right,783.7150000049733,true,high,NA,NA,NA,NA,NA,NA,NA,false
uE3z9BfN,3p7qk0gj4wyyvhrnruxexlrqk8i2zm,3q5zz9zevssdx27hrp417stpug658h,uE3z9BfN,2020-0188,2020-06-16,16:47:43,17:15:03,NA,incomplete,103,filling,0,1,left,Blue_Star_Stripes_4.jpg,Green_Triangle_Stripes_3.jpg,Blue_Plus_Dots_1.jpg,left,817.9799999997485,true,high,NA,NA,NA,NA,NA,NA,NA,false
uE3z9BfN,3p7qk0gj4wyyvhrnruxexlrqk8i2zm,3q5zz9zevssdx27hrp417stpug658h,uE3z9BfN,2020-0188,2020-06-16,16:47:43,17:15:03,NA,incomplete,104,filling,0,1,left,Red_Circle_Chess_4.jpg,Purple_Triangle_Chess_2.jpg,Red_Plus_Dots_3.jpg,left,743.3299999975134,true,high,NA,NA,NA,NA,NA,NA,NA,false
uE3z9BfN,3p7qk0gj4wyyvhrnruxexlrqk8i2zm,3q5zz9zevssdx27hrp417stpug658h,uE3z9BfN,2020-0188,2020-06-16,16:47:43,17:15:03,NA,incomplete,105,filling,0,1,right,Green_Triangle_Dots_1.jpg,Green_Plus_Grid_3.jpg,Blue_Star_Dots_4.jpg,right,831.9300000004005,true,high,NA,NA,NA,NA,NA,NA,NA,false
uE3z9BfN,3p7qk0gj4wyyvhrnruxexlrqk8i2zm,3q5zz9zevssdx27hrp417stpug658h,uE3z9BfN,2020-0188,2020-06-16,16:47:43,17:15:03,NA,incomplete,106,filling,0,0,right,Green_Triangle_Grid_1.jpg,Green_Star_Chess_2.jpg,Blue_Plus_Grid_3.jpg,right,976.3500000045169,true,high,NA,NA,NA,NA,NA,NA,NA,false
uE3z9BfN,3p7qk0gj4wyyvhrnruxexlrqk8i2zm,3q5zz9zevssdx27hrp417stpug658h,uE3z9BfN,2020-0188,2020-06-16,16:47:43,17:15:03,NA,incomplete,107,filling,0,1,left,Blue_Plus_Grid_3.jpg,Red_Circle_Grid_1.jpg,Blue_Star_Dots_4.jpg,right,585.4550000003073,false,high,NA,NA,NA,NA,NA,NA,NA,false
uE3z9BfN,3p7qk0gj4wyyvhrnruxexlrqk8i2zm,3q5zz9zevssdx27hrp417stpug658h,uE3z9BfN,2020-0188,2020-06-16,16:47:43,17:15:03,NA,incomplete,108,filling,0,1,right,Blue_Circle_Stripes_2.jpg,Blue_Triangle_Dots_3.jpg,Green_Plus_Stripes_1.jpg,right,841.1750000012107,true,high,NA,NA,NA,NA,NA,NA,NA,false
uE3z9BfN,3p7qk0gj4wyyvhrnruxexlrqk8i2zm,3q5zz9zevssdx27hrp417stpug658h,uE3z9BfN,2020-0188,2020-06-16,16:47:43,17:15:03,NA,incomplete,109,filling,0,1,left,Purple_Triangle_Grid_1.jpg,Red_Circle_Grid_4.jpg,Purple_Star_Dots_2.jpg,left,746.2900000028312,true,high,NA,NA,NA,NA,NA,NA,NA,false
uE3z9BfN,3p7qk0gj4wyyvhrnruxexlrqk8i2zm,3q5zz9zevssdx27hrp417stpug658h,uE3z9BfN,2020-0188,2020-06-16,16:47:43,17:15:03,NA,incomplete,110,color,1,1,right,Blue_Star_Stripes_2.jpg,Green_Plus_Stripes_3.jpg,Blue_Triangle_Chess_1.jpg,left,854.820000000298,false,high,NA,NA,NA,NA,NA,NA,NA,false
uE3z9BfN,3p7qk0gj4wyyvhrnruxexlrqk8i2zm,3q5zz9zevssdx27hrp417stpug658h,uE3z9BfN,2020-0188,2020-06-16,16:47:43,17:15:03,NA,incomplete,111,color,1,1,left,Blue_Circle_Stripes_1.jpg,Blue_Star_Dots_4.jpg,Red_Plus_Stripes_2.jpg,left,656.0899999968242,true,high,NA,NA,NA,NA,NA,NA,NA,false
uE3z9BfN,3p7qk0gj4wyyvhrnruxexlrqk8i2zm,3q5zz9zevssdx27hrp417stpug658h,uE3z9BfN,2020-0188,2020-06-16,16:47:43,17:15:03,NA,incomplete,112,color,1,1,right,Red_Triangle_Grid_3.jpg,Blue_Star_Grid_4.jpg,Red_Circle_Chess_1.jpg,right,540.285000002943,true,high,NA,NA,NA,NA,NA,NA,NA,false
uE3z9BfN,3p7qk0gj4wyyvhrnruxexlrqk8i2zm,3q5zz9zevssdx27hrp417stpug658h,uE3z9BfN,2020-0188,2020-06-16,16:47:43,17:15:03,NA,incomplete,113,color,1,1,right,Blue_Plus_Stripes_4.jpg,Purple_Triangle_Stripes_2.jpg,Blue_Circle_Dots_3.jpg,right,586.6099999984726,true,high,NA,NA,NA,NA,NA,NA,NA,false
uE3z9BfN,3p7qk0gj4wyyvhrnruxexlrqk8i2zm,3q5zz9zevssdx27hrp417stpug658h,uE3z9BfN,2020-0188,2020-06-16,16:47:43,17:15:03,NA,incomplete,114,color,1,1,left,Purple_Plus_Stripes_2.jpg,Purple_Triangle_Grid_1.jpg,Green_Star_Stripes_3.jpg,left,673.7399999983609,true,high,NA,NA,NA,NA,NA,NA,NA,false
uE3z9BfN,3p7qk0gj4wyyvhrnruxexlrqk8i2zm,3q5zz9zevssdx27hrp417stpug658h,uE3z9BfN,2020-0188,2020-06-16,16:47:43,17:15:03,NA,incomplete,115,color,1,1,left,Green_Triangle_Chess_3.jpg,Green_Plus_Stripes_4.jpg,Red_Circle_Chess_1.jpg,left,545.9699999992736,true,high,NA,NA,NA,NA,NA,NA,NA,false
uE3z9BfN,3p7qk0gj4wyyvhrnruxexlrqk8i2zm,3q5zz9zevssdx27hrp417stpug658h,uE3z9BfN,2020-0188,2020-06-16,16:47:43,17:15:03,NA,incomplete,116,color,1,1,right,Red_Star_Grid_2.jpg,Blue_Circle_Grid_1.jpg,Red_Triangle_Dots_3.jpg,right,485.840000001248,true,high,NA,NA,NA,NA,NA,NA,NA,false
uE3z9BfN,3p7qk0gj4wyyvhrnruxexlrqk8i2zm,3q5zz9zevssdx27hrp417stpug658h,uE3z9BfN,2020-0188,2020-06-16,16:47:43,17:15:03,NA,incomplete,117,color,1,1,left,Red_Circle_Chess_2.jpg,Red_Plus_Grid_1.jpg,Blue_Triangle_Chess_3.jpg,left,848.275000003865,true,high,NA,NA,NA,NA,NA,NA,NA,false
uE3z9BfN,3p7qk0gj4wyyvhrnruxexlrqk8i2zm,3q5zz9zevssdx27hrp417stpug658h,uE3z9BfN,2020-0188,2020-06-16,16:47:43,17:15:03,NA,incomplete,118,color,1,0,right,Red_Triangle_Grid_1.jpg,Green_Star_Grid_3.jpg,Red_Circle_Chess_4.jpg,right,570.5149999991991,true,high,NA,NA,NA,NA,NA,NA,NA,false
uE3z9BfN,3p7qk0gj4wyyvhrnruxexlrqk8i2zm,3q5zz9zevssdx27hrp417stpug658h,uE3z9BfN,2020-0188,2020-06-16,16:47:43,17:15:03,NA,incomplete,119,color,1,1,left,Red_Plus_Stripes_4.jpg,Red_Circle_Chess_2.jpg,Purple_Star_Stripes_3.jpg,right,853.0249999966472,false,high,NA,NA,NA,NA,NA,NA,NA,false
uE3z9BfN,3p7qk0gj4wyyvhrnruxexlrqk8i2zm,3q5zz9zevssdx27hrp417stpug658h,uE3z9BfN,2020-0188,2020-06-16,16:47:43,17:15:03,NA,incomplete,120,race,2,1,left,A_M_13.jpg,A_F_06.jpg,C_M_12.jpg,NA,NA,NA,high,NA,NA,NA,NA,NA,NA,NA,false
uE3z9BfN,3p7qk0gj4wyyvhrnruxexlrqk8i2zm,3q5zz9zevssdx27hrp417stpug658h,uE3z9BfN,2020-0188,2020-06-16,16:47:43,17:15:03,NA,incomplete,121,race,2,1,right,A_F_11.jpg,C_F_04.jpg,A_M_01.jpg,right,1547.5949999962468,true,high,NA,NA,NA,NA,NA,NA,NA,false
uE3z9BfN,3p7qk0gj4wyyvhrnruxexlrqk8i2zm,3q5zz9zevssdx27hrp417stpug658h,uE3z9BfN,2020-0188,2020-06-16,16:47:43,17:15:03,NA,incomplete,122,race,2,1,left,A_M_10.jpg,A_F_09.jpg,C_M_16.jpg,right,1119.7899999970105,false,high,NA,NA,NA,NA,NA,NA,NA,false
uE3z9BfN,3p7qk0gj4wyyvhrnruxexlrqk8i2zm,3q5zz9zevssdx27hrp417stpug658h,uE3z9BfN,2020-0188,2020-06-16,16:47:43,17:15:03,NA,incomplete,123,race,2,0,right,A_M_11.jpg,C_M_12.jpg,A_F_02.jpg,right,1064.4099999989849,true,high,NA,NA,NA,NA,NA,NA,NA,false
uE3z9BfN,3p7qk0gj4wyyvhrnruxexlrqk8i2zm,3q5zz9zevssdx27hrp417stpug658h,uE3z9BfN,2020-0188,2020-06-16,16:47:43,17:15:03,NA,incomplete,124,race,2,1,left,C_F_04.jpg,C_M_07.jpg,A_F_06.jpg,left,1005.0550000013318,true,high,NA,NA,NA,NA,NA,NA,NA,false
uE3z9BfN,3p7qk0gj4wyyvhrnruxexlrqk8i2zm,3q5zz9zevssdx27hrp417stpug658h,uE3z9BfN,2020-0188,2020-06-16,16:47:43,17:15:03,NA,incomplete,125,race,2,0,left,C_F_09.jpg,C_M_15.jpg,A_F_12.jpg,right,1020.9699999978766,false,high,NA,NA,NA,NA,NA,NA,NA,false
uE3z9BfN,3p7qk0gj4wyyvhrnruxexlrqk8i2zm,3q5zz9zevssdx27hrp417stpug658h,uE3z9BfN,2020-0188,2020-06-16,16:47:43,17:15:03,NA,incomplete,126,race,2,1,right,A_F_07.jpg,C_F_06.jpg,A_M_11.jpg,left,893.0499999986496,false,high,NA,NA,NA,NA,NA,NA,NA,false
uE3z9BfN,3p7qk0gj4wyyvhrnruxexlrqk8i2zm,3q5zz9zevssdx27hrp417stpug658h,uE3z9BfN,2020-0188,2020-06-16,16:47:43,17:15:03,NA,incomplete,127,race,2,1,left,A_M_13.jpg,A_F_04.jpg,C_M_10.jpg,left,1079.5999999972992,true,high,NA,NA,NA,NA,NA,NA,NA,false
uE3z9BfN,3p7qk0gj4wyyvhrnruxexlrqk8i2zm,3q5zz9zevssdx27hrp417stpug658h,uE3z9BfN,2020-0188,2020-06-16,16:47:43,17:15:03,NA,incomplete,128,race,2,0,left,C_M_02.jpg,C_F_06.jpg,A_M_07.jpg,right,918.3850000044331,false,high,NA,NA,NA,NA,NA,NA,NA,false
uE3z9BfN,3p7qk0gj4wyyvhrnruxexlrqk8i2zm,3q5zz9zevssdx27hrp417stpug658h,uE3z9BfN,2020-0188,2020-06-16,16:47:43,17:15:03,NA,incomplete,129,race,2,1,right,C_F_04.jpg,A_F_11.jpg,C_M_13.jpg,left,960.3149999966845,false,high,NA,NA,NA,NA,NA,NA,NA,false
uE3z9BfN,3p7qk0gj4wyyvhrnruxexlrqk8i2zm,3q5zz9zevssdx27hrp417stpug658h,uE3z9BfN,2020-0188,2020-06-16,16:47:43,17:15:03,NA,incomplete,130,race,2,1,left,C_F_02.jpg,C_M_14.jpg,A_F_04.jpg,right,862.8449999960139,false,high,NA,NA,NA,NA,NA,NA,NA,false
uE3z9BfN,3p7qk0gj4wyyvhrnruxexlrqk8i2zm,3q5zz9zevssdx27hrp417stpug658h,uE3z9BfN,2020-0188,2020-06-16,16:47:43,17:15:03,NA,incomplete,131,race,2,0,right,C_F_15.jpg,A_F_10.jpg,C_M_07.jpg,right,974.5399999956135,true,high,NA,NA,NA,NA,NA,NA,NA,false
uE3z9BfN,3p7qk0gj4wyyvhrnruxexlrqk8i2zm,3q5zz9zevssdx27hrp417stpug658h,uE3z9BfN,2020-0188,2020-06-16,16:47:43,17:15:03,NA,incomplete,132,race,2,1,right,A_M_03.jpg,C_M_16.jpg,A_F_13.jpg,left,1246.85000000312,false,high,NA,NA,NA,NA,NA,NA,NA,false
uE3z9BfN,3p7qk0gj4wyyvhrnruxexlrqk8i2zm,3q5zz9zevssdx27hrp417stpug658h,uE3z9BfN,2020-0188,2020-06-16,16:47:43,17:15:03,NA,incomplete,133,race,2,1,left,A_F_12.jpg,A_M_08.jpg,C_F_13.jpg,right,1195.095000002766,false,high,NA,NA,NA,NA,NA,NA,NA,false
uE3z9BfN,3p7qk0gj4wyyvhrnruxexlrqk8i2zm,3q5zz9zevssdx27hrp417stpug658h,uE3z9BfN,2020-0188,2020-06-16,16:47:43,17:15:03,NA,incomplete,134,race,2,1,left,C_M_16.jpg,C_F_15.jpg,A_M_03.jpg,left,1300.089999997057,true,high,NA,NA,NA,NA,NA,NA,NA,false
uE3z9BfN,3p7qk0gj4wyyvhrnruxexlrqk8i2zm,3q5zz9zevssdx27hrp417stpug658h,uE3z9BfN,2020-0188,2020-06-16,16:47:43,17:15:03,NA,incomplete,135,race,2,1,left,C_M_05.jpg,C_F_04.jpg,A_M_03.jpg,left,1106.100000004517,true,high,NA,NA,NA,NA,NA,NA,NA,false
uE3z9BfN,3p7qk0gj4wyyvhrnruxexlrqk8i2zm,3q5zz9zevssdx27hrp417stpug658h,uE3z9BfN,2020-0188,2020-06-16,16:47:43,17:15:03,NA,incomplete,136,race,2,0,right,C_M_16.jpg,A_M_11.jpg,C_F_15.jpg,right,1089.9300000017975,true,high,NA,NA,NA,NA,NA,NA,NA,false
uE3z9BfN,3p7qk0gj4wyyvhrnruxexlrqk8i2zm,3q5zz9zevssdx27hrp417stpug658h,uE3z9BfN,2020-0188,2020-06-16,16:47:43,17:15:03,NA,incomplete,137,race,2,1,left,C_M_07.jpg,C_F_12.jpg,A_M_04.jpg,right,1050.234999995213,false,high,NA,NA,NA,NA,NA,NA,NA,false
uE3z9BfN,3p7qk0gj4wyyvhrnruxexlrqk8i2zm,3q5zz9zevssdx27hrp417stpug658h,uE3z9BfN,2020-0188,2020-06-16,16:47:43,17:15:03,NA,incomplete,138,race,2,0,right,C_M_02.jpg,A_M_05.jpg,C_F_15.jpg,left,917.2650000036228,false,high,NA,NA,NA,NA,NA,NA,NA,false
uE3z9BfN,3p7qk0gj4wyyvhrnruxexlrqk8i2zm,3q5zz9zevssdx27hrp417stpug658h,uE3z9BfN,2020-0188,2020-06-16,16:47:43,17:15:03,NA,incomplete,139,race,2,1,left,A_M_02.jpg,A_F_09.jpg,C_M_06.jpg,right,910.3949999990873,false,high,NA,NA,NA,NA,NA,NA,NA,false
uE3z9BfN,3p7qk0gj4wyyvhrnruxexlrqk8i2zm,3q5zz9zevssdx27hrp417stpug658h,uE3z9BfN,2020-0188,2020-06-16,16:47:43,17:15:03,NA,incomplete,140,gender,3,1,left,C_M_08.jpg,A_M_07.jpg,C_F_02.jpg,right,1005.3750000004657,false,high,NA,NA,NA,NA,NA,NA,NA,false
uE3z9BfN,3p7qk0gj4wyyvhrnruxexlrqk8i2zm,3q5zz9zevssdx27hrp417stpug658h,uE3z9BfN,2020-0188,2020-06-16,16:47:43,17:15:03,NA,incomplete,141,gender,3,0,right,C_F_11.jpg,C_M_07.jpg,A_F_10.jpg,right,1016.5899999991525,true,high,NA,NA,NA,NA,NA,NA,NA,false
uE3z9BfN,3p7qk0gj4wyyvhrnruxexlrqk8i2zm,3q5zz9zevssdx27hrp417stpug658h,uE3z9BfN,2020-0188,2020-06-16,16:47:43,17:15:03,NA,incomplete,142,gender,3,1,left,A_M_15.jpg,C_M_11.jpg,A_F_14.jpg,right,1036.5049999963958,false,high,NA,NA,NA,NA,NA,NA,NA,false
uE3z9BfN,3p7qk0gj4wyyvhrnruxexlrqk8i2zm,3q5zz9zevssdx27hrp417stpug658h,uE3z9BfN,2020-0188,2020-06-16,16:47:43,17:15:03,NA,incomplete,143,gender,3,1,left,A_M_09.jpg,C_M_02.jpg,A_F_07.jpg,left,964.9700000009034,true,high,NA,NA,NA,NA,NA,NA,NA,false
uE3z9BfN,3p7qk0gj4wyyvhrnruxexlrqk8i2zm,3q5zz9zevssdx27hrp417stpug658h,uE3z9BfN,2020-0188,2020-06-16,16:47:43,17:15:03,NA,incomplete,144,gender,3,0,left,C_M_12.jpg,A_M_05.jpg,C_F_11.jpg,left,820.214999999851,true,high,NA,NA,NA,NA,NA,NA,NA,false
uE3z9BfN,3p7qk0gj4wyyvhrnruxexlrqk8i2zm,3q5zz9zevssdx27hrp417stpug658h,uE3z9BfN,2020-0188,2020-06-16,16:47:43,17:15:03,NA,incomplete,145,gender,3,1,right,A_F_06.jpg,A_M_11.jpg,C_F_15.jpg,right,1022.2649999996647,true,high,NA,NA,NA,NA,NA,NA,NA,false
uE3z9BfN,3p7qk0gj4wyyvhrnruxexlrqk8i2zm,3q5zz9zevssdx27hrp417stpug658h,uE3z9BfN,2020-0188,2020-06-16,16:47:43,17:15:03,NA,incomplete,146,gender,3,1,right,A_F_03.jpg,A_M_07.jpg,C_F_01.jpg,right,1004.6349999974482,true,high,NA,NA,NA,NA,NA,NA,NA,false
uE3z9BfN,3p7qk0gj4wyyvhrnruxexlrqk8i2zm,3q5zz9zevssdx27hrp417stpug658h,uE3z9BfN,2020-0188,2020-06-16,16:47:43,17:15:03,NA,incomplete,147,gender,3,1,right,A_M_15.jpg,A_F_10.jpg,C_M_11.jpg,right,862.5700000049546,true,high,NA,NA,NA,NA,NA,NA,NA,false
uE3z9BfN,3p7qk0gj4wyyvhrnruxexlrqk8i2zm,3q5zz9zevssdx27hrp417stpug658h,uE3z9BfN,2020-0188,2020-06-16,16:47:43,17:15:03,NA,incomplete,148,gender,3,1,left,C_M_13.jpg,A_M_16.jpg,C_F_02.jpg,left,871.7550000003539,true,high,NA,NA,NA,NA,NA,NA,NA,false
uE3z9BfN,3p7qk0gj4wyyvhrnruxexlrqk8i2zm,3q5zz9zevssdx27hrp417stpug658h,uE3z9BfN,2020-0188,2020-06-16,16:47:43,17:15:03,NA,incomplete,149,gender,3,1,left,C_M_07.jpg,A_M_05.jpg,C_F_08.jpg,left,813.8600000019651,true,high,NA,NA,NA,NA,NA,NA,NA,false
uE3z9BfN,3p7qk0gj4wyyvhrnruxexlrqk8i2zm,3q5zz9zevssdx27hrp417stpug658h,uE3z9BfN,2020-0188,2020-06-16,16:47:43,17:15:03,NA,incomplete,150,gender,3,1,left,C_M_04.jpg,A_M_07.jpg,C_F_02.jpg,left,814.7499999979045,true,high,NA,NA,NA,NA,NA,NA,NA,false
uE3z9BfN,3p7qk0gj4wyyvhrnruxexlrqk8i2zm,3q5zz9zevssdx27hrp417stpug658h,uE3z9BfN,2020-0188,2020-06-16,16:47:43,17:15:03,NA,incomplete,151,gender,3,0,right,C_M_11.jpg,C_F_01.jpg,A_M_03.jpg,right,892.4699999990407,true,high,NA,NA,NA,NA,NA,NA,NA,false
uE3z9BfN,3p7qk0gj4wyyvhrnruxexlrqk8i2zm,3q5zz9zevssdx27hrp417stpug658h,uE3z9BfN,2020-0188,2020-06-16,16:47:43,17:15:03,NA,incomplete,152,gender,3,1,left,A_F_13.jpg,C_F_16.jpg,A_M_12.jpg,left,1201.3299999961164,true,high,NA,NA,NA,NA,NA,NA,NA,false
uE3z9BfN,3p7qk0gj4wyyvhrnruxexlrqk8i2zm,3q5zz9zevssdx27hrp417stpug658h,uE3z9BfN,2020-0188,2020-06-16,16:47:43,17:15:03,NA,incomplete,153,gender,3,0,left,C_M_01.jpg,A_M_11.jpg,C_F_15.jpg,left,896.0100000042003,true,high,NA,NA,NA,NA,NA,NA,NA,false
uE3z9BfN,3p7qk0gj4wyyvhrnruxexlrqk8i2zm,3q5zz9zevssdx27hrp417stpug658h,uE3z9BfN,2020-0188,2020-06-16,16:47:43,17:15:03,NA,incomplete,154,gender,3,1,left,C_F_12.jpg,A_F_15.jpg,C_M_06.jpg,left,831.6849999972619,true,high,NA,NA,NA,NA,NA,NA,NA,false
uE3z9BfN,3p7qk0gj4wyyvhrnruxexlrqk8i2zm,3q5zz9zevssdx27hrp417stpug658h,uE3z9BfN,2020-0188,2020-06-16,16:47:43,17:15:03,NA,incomplete,155,gender,3,1,left,A_M_02.jpg,C_M_03.jpg,A_F_16.jpg,left,866.8899999973364,true,high,NA,NA,NA,NA,NA,NA,NA,false
uE3z9BfN,3p7qk0gj4wyyvhrnruxexlrqk8i2zm,3q5zz9zevssdx27hrp417stpug658h,uE3z9BfN,2020-0188,2020-06-16,16:47:43,17:15:03,NA,incomplete,156,gender,3,0,right,A_F_14.jpg,A_M_09.jpg,C_F_12.jpg,right,789.4749999977648,true,high,NA,NA,NA,NA,NA,NA,NA,false
uE3z9BfN,3p7qk0gj4wyyvhrnruxexlrqk8i2zm,3q5zz9zevssdx27hrp417stpug658h,uE3z9BfN,2020-0188,2020-06-16,16:47:43,17:15:03,NA,incomplete,157,gender,3,1,right,C_F_01.jpg,C_M_10.jpg,A_F_12.jpg,left,906.8300000000745,false,high,NA,NA,NA,NA,NA,NA,NA,false
uE3z9BfN,3p7qk0gj4wyyvhrnruxexlrqk8i2zm,3q5zz9zevssdx27hrp417stpug658h,uE3z9BfN,2020-0188,2020-06-16,16:47:43,17:15:03,NA,incomplete,158,gender,3,1,left,C_M_11.jpg,A_M_08.jpg,C_F_16.jpg,left,974.5499999988824,true,high,NA,NA,NA,NA,NA,NA,NA,false
uE3z9BfN,3p7qk0gj4wyyvhrnruxexlrqk8i2zm,3q5zz9zevssdx27hrp417stpug658h,uE3z9BfN,2020-0188,2020-06-16,16:47:43,17:15:03,NA,incomplete,159,gender,3,1,right,A_F_12.jpg,A_M_10.jpg,C_F_13.jpg,right,710.3399999977555,true,high,NA,NA,NA,NA,NA,NA,NA,false
uE3z9BfN,3p7qk0gj4wyyvhrnruxexlrqk8i2zm,3q5zz9zevssdx27hrp417stpug658h,uE3z9BfN,2020-0188,2020-06-16,16:47:43,17:15:03,NA,incomplete,160,race,2,1,left,C_F_15.jpg,C_M_09.jpg,A_F_08.jpg,right,838.1249999946449,false,high,NA,NA,NA,NA,NA,NA,NA,false
uE3z9BfN,3p7qk0gj4wyyvhrnruxexlrqk8i2zm,3q5zz9zevssdx27hrp417stpug658h,uE3z9BfN,2020-0188,2020-06-16,16:47:43,17:15:03,NA,incomplete,161,race,2,1,right,C_M_11.jpg,A_M_13.jpg,C_F_12.jpg,left,840.8500000005588,false,high,NA,NA,NA,NA,NA,NA,NA,false
uE3z9BfN,3p7qk0gj4wyyvhrnruxexlrqk8i2zm,3q5zz9zevssdx27hrp417stpug658h,uE3z9BfN,2020-0188,2020-06-16,16:47:43,17:15:03,NA,incomplete,162,race,2,1,left,A_F_10.jpg,A_M_09.jpg,C_F_13.jpg,right,766.6650000028312,false,high,NA,NA,NA,NA,NA,NA,NA,false
uE3z9BfN,3p7qk0gj4wyyvhrnruxexlrqk8i2zm,3q5zz9zevssdx27hrp417stpug658h,uE3z9BfN,2020-0188,2020-06-16,16:47:43,17:15:03,NA,incomplete,163,race,2,1,right,A_M_03.jpg,C_M_06.jpg,A_F_02.jpg,left,901.4299999980722,false,high,NA,NA,NA,NA,NA,NA,NA,false
uE3z9BfN,3p7qk0gj4wyyvhrnruxexlrqk8i2zm,3q5zz9zevssdx27hrp417stpug658h,uE3z9BfN,2020-0188,2020-06-16,16:47:43,17:15:03,NA,incomplete,164,race,2,1,right,C_M_08.jpg,A_M_01.jpg,C_F_14.jpg,left,912.555000002496,false,high,NA,NA,NA,NA,NA,NA,NA,false
uE3z9BfN,3p7qk0gj4wyyvhrnruxexlrqk8i2zm,3q5zz9zevssdx27hrp417stpug658h,uE3z9BfN,2020-0188,2020-06-16,16:47:43,17:15:03,NA,incomplete,165,race,2,1,left,C_M_16.jpg,C_F_03.jpg,A_M_13.jpg,left,1224.1549999963026,true,high,NA,NA,NA,NA,NA,NA,NA,false
uE3z9BfN,3p7qk0gj4wyyvhrnruxexlrqk8i2zm,3q5zz9zevssdx27hrp417stpug658h,uE3z9BfN,2020-0188,2020-06-16,16:47:43,17:15:03,NA,incomplete,166,race,2,1,right,C_M_10.jpg,A_M_16.jpg,C_F_06.jpg,right,1043.975000000326,true,high,NA,NA,NA,NA,NA,NA,NA,false
uE3z9BfN,3p7qk0gj4wyyvhrnruxexlrqk8i2zm,3q5zz9zevssdx27hrp417stpug658h,uE3z9BfN,2020-0188,2020-06-16,16:47:43,17:15:03,NA,incomplete,167,race,2,1,left,A_M_02.jpg,A_F_12.jpg,C_M_08.jpg,left,1117.9399999964517,true,high,NA,NA,NA,NA,NA,NA,NA,false
uE3z9BfN,3p7qk0gj4wyyvhrnruxexlrqk8i2zm,3q5zz9zevssdx27hrp417stpug658h,uE3z9BfN,2020-0188,2020-06-16,16:47:43,17:15:03,NA,incomplete,168,race,2,1,right,C_M_06.jpg,A_M_04.jpg,C_F_03.jpg,right,908.1150000058115,true,high,NA,NA,NA,NA,NA,NA,NA,false
uE3z9BfN,3p7qk0gj4wyyvhrnruxexlrqk8i2zm,3q5zz9zevssdx27hrp417stpug658h,uE3z9BfN,2020-0188,2020-06-16,16:47:43,17:15:03,NA,incomplete,169,race,2,1,right,C_F_14.jpg,A_F_12.jpg,C_M_08.jpg,left,753.2800000044517,false,high,NA,NA,NA,NA,NA,NA,NA,false
uE3z9BfN,3p7qk0gj4wyyvhrnruxexlrqk8i2zm,3q5zz9zevssdx27hrp417stpug658h,uE3z9BfN,2020-0188,2020-06-16,16:47:43,17:15:03,NA,incomplete,170,race,2,0,left,A_M_04.jpg,A_F_02.jpg,C_M_07.jpg,left,1227.9300000008661,true,high,NA,NA,NA,NA,NA,NA,NA,false
uE3z9BfN,3p7qk0gj4wyyvhrnruxexlrqk8i2zm,3q5zz9zevssdx27hrp417stpug658h,uE3z9BfN,2020-0188,2020-06-16,16:47:43,17:15:03,NA,incomplete,171,race,2,1,right,A_F_14.jpg,C_F_06.jpg,A_M_13.jpg,right,960.0799999970477,true,high,NA,NA,NA,NA,NA,NA,NA,false
uE3z9BfN,3p7qk0gj4wyyvhrnruxexlrqk8i2zm,3q5zz9zevssdx27hrp417stpug658h,uE3z9BfN,2020-0188,2020-06-16,16:47:43,17:15:03,NA,incomplete,172,race,2,1,left,C_M_01.jpg,C_F_08.jpg,A_M_05.jpg,right,936.3050000029616,false,high,NA,NA,NA,NA,NA,NA,NA,false
uE3z9BfN,3p7qk0gj4wyyvhrnruxexlrqk8i2zm,3q5zz9zevssdx27hrp417stpug658h,uE3z9BfN,2020-0188,2020-06-16,16:47:43,17:15:03,NA,incomplete,173,race,2,1,right,A_M_13.jpg,C_M_01.jpg,A_F_12.jpg,left,965.1300000040792,false,high,NA,NA,NA,NA,NA,NA,NA,false
uE3z9BfN,3p7qk0gj4wyyvhrnruxexlrqk8i2zm,3q5zz9zevssdx27hrp417stpug658h,uE3z9BfN,2020-0188,2020-06-16,16:47:43,17:15:03,NA,incomplete,174,race,2,1,right,A_F_15.jpg,C_F_11.jpg,A_M_08.jpg,right,1060.8399999982212,true,high,NA,NA,NA,NA,NA,NA,NA,false
uE3z9BfN,3p7qk0gj4wyyvhrnruxexlrqk8i2zm,3q5zz9zevssdx27hrp417stpug658h,uE3z9BfN,2020-0188,2020-06-16,16:47:43,17:15:03,NA,incomplete,175,race,2,1,right,A_M_14.jpg,C_M_08.jpg,A_F_05.jpg,right,1021.990000000922,true,high,NA,NA,NA,NA,NA,NA,NA,false
uE3z9BfN,3p7qk0gj4wyyvhrnruxexlrqk8i2zm,3q5zz9zevssdx27hrp417stpug658h,uE3z9BfN,2020-0188,2020-06-16,16:47:43,17:15:03,NA,incomplete,176,race,2,1,right,A_M_05.jpg,C_M_01.jpg,A_F_14.jpg,right,945.8450000020675,true,high,NA,NA,NA,NA,NA,NA,NA,false
uE3z9BfN,3p7qk0gj4wyyvhrnruxexlrqk8i2zm,3q5zz9zevssdx27hrp417stpug658h,uE3z9BfN,2020-0188,2020-06-16,16:47:43,17:15:03,NA,incomplete,177,race,2,1,left,C_F_07.jpg,C_M_05.jpg,A_F_09.jpg,left,1056.9400000022724,true,high,NA,NA,NA,NA,NA,NA,NA,false
uE3z9BfN,3p7qk0gj4wyyvhrnruxexlrqk8i2zm,3q5zz9zevssdx27hrp417stpug658h,uE3z9BfN,2020-0188,2020-06-16,16:47:43,17:15:03,NA,incomplete,178,race,2,1,right,A_M_02.jpg,C_M_08.jpg,A_F_03.jpg,left,1044.2200000034645,false,high,NA,NA,NA,NA,NA,NA,NA,false
uE3z9BfN,3p7qk0gj4wyyvhrnruxexlrqk8i2zm,3q5zz9zevssdx27hrp417stpug658h,uE3z9BfN,2020-0188,2020-06-16,16:47:43,17:15:03,NA,incomplete,179,race,2,1,left,A_M_14.jpg,A_F_09.jpg,C_M_13.jpg,left,997.9349999993574,true,high,NA,NA,NA,NA,NA,NA,NA,false
uE3z9BfN,3p7qk0gj4wyyvhrnruxexlrqk8i2zm,3q5zz9zevssdx27hrp417stpug658h,uE3z9BfN,2020-0188,2020-06-16,16:47:43,17:15:03,NA,incomplete,180,gender,3,1,right,C_M_02.jpg,C_F_11.jpg,A_M_15.jpg,left,1001.3699999980163,false,high,NA,NA,NA,NA,NA,NA,NA,false
uE3z9BfN,3p7qk0gj4wyyvhrnruxexlrqk8i2zm,3q5zz9zevssdx27hrp417stpug658h,uE3z9BfN,2020-0188,2020-06-16,16:47:43,17:15:03,NA,incomplete,181,gender,3,1,right,A_M_03.jpg,A_F_15.jpg,C_M_14.jpg,left,1464,false,high,NA,NA,NA,NA,NA,NA,NA,false
uE3z9BfN,3p7qk0gj4wyyvhrnruxexlrqk8i2zm,3q5zz9zevssdx27hrp417stpug658h,uE3z9BfN,2020-0188,2020-06-16,16:47:43,17:15:03,NA,incomplete,182,gender,3,1,left,C_F_01.jpg,A_F_08.jpg,C_M_09.jpg,left,1326.3350000053179,true,high,NA,NA,NA,NA,NA,NA,NA,false
uE3z9BfN,3p7qk0gj4wyyvhrnruxexlrqk8i2zm,3q5zz9zevssdx27hrp417stpug658h,uE3z9BfN,2020-0188,2020-06-16,16:47:43,17:15:03,NA,incomplete,183,gender,3,1,left,A_F_01.jpg,C_F_10.jpg,A_M_02.jpg,left,784.4150000018999,true,high,NA,NA,NA,NA,NA,NA,NA,false
uE3z9BfN,3p7qk0gj4wyyvhrnruxexlrqk8i2zm,3q5zz9zevssdx27hrp417stpug658h,uE3z9BfN,2020-0188,2020-06-16,16:47:43,17:15:03,NA,incomplete,184,gender,3,1,left,C_F_02.jpg,A_F_06.jpg,C_M_05.jpg,left,913.2900000042282,true,high,NA,NA,NA,NA,NA,NA,NA,false
uE3z9BfN,3p7qk0gj4wyyvhrnruxexlrqk8i2zm,3q5zz9zevssdx27hrp417stpug658h,uE3z9BfN,2020-0188,2020-06-16,16:47:43,17:15:03,NA,incomplete,185,gender,3,1,left,C_F_07.jpg,A_F_12.jpg,C_M_15.jpg,left,950.4650000017136,true,high,NA,NA,NA,NA,NA,NA,NA,false
uE3z9BfN,3p7qk0gj4wyyvhrnruxexlrqk8i2zm,3q5zz9zevssdx27hrp417stpug658h,uE3z9BfN,2020-0188,2020-06-16,16:47:43,17:15:03,NA,incomplete,186,gender,3,1,right,C_M_10.jpg,C_F_05.jpg,A_M_02.jpg,right,889.7900000009686,true,high,NA,NA,NA,NA,NA,NA,NA,false
uE3z9BfN,3p7qk0gj4wyyvhrnruxexlrqk8i2zm,3q5zz9zevssdx27hrp417stpug658h,uE3z9BfN,2020-0188,2020-06-16,16:47:43,17:15:03,NA,incomplete,187,gender,3,1,left,A_M_02.jpg,C_M_12.jpg,A_F_06.jpg,left,950.259999997681,true,high,NA,NA,NA,NA,NA,NA,NA,false
uE3z9BfN,3p7qk0gj4wyyvhrnruxexlrqk8i2zm,3q5zz9zevssdx27hrp417stpug658h,uE3z9BfN,2020-0188,2020-06-16,16:47:43,17:15:03,NA,incomplete,188,gender,3,0,right,A_F_10.jpg,A_M_07.jpg,C_F_05.jpg,right,841.4350000021514,true,high,NA,NA,NA,NA,NA,NA,NA,false
uE3z9BfN,3p7qk0gj4wyyvhrnruxexlrqk8i2zm,3q5zz9zevssdx27hrp417stpug658h,uE3z9BfN,2020-0188,2020-06-16,16:47:43,17:15:03,NA,incomplete,189,gender,3,1,left,C_M_15.jpg,A_M_05.jpg,C_F_12.jpg,right,1231.494999999879,false,high,NA,NA,NA,NA,NA,NA,NA,false
uE3z9BfN,3p7qk0gj4wyyvhrnruxexlrqk8i2zm,3q5zz9zevssdx27hrp417stpug658h,uE3z9BfN,2020-0188,2020-06-16,16:47:43,17:15:03,NA,incomplete,190,gender,3,1,right,A_F_04.jpg,A_M_15.jpg,C_F_02.jpg,left,1020.0499999991152,false,high,NA,NA,NA,NA,NA,NA,NA,false
uE3z9BfN,3p7qk0gj4wyyvhrnruxexlrqk8i2zm,3q5zz9zevssdx27hrp417stpug658h,uE3z9BfN,2020-0188,2020-06-16,16:47:43,17:15:03,NA,incomplete,191,gender,3,1,right,C_F_08.jpg,C_M_15.jpg,A_F_16.jpg,right,992.9849999973085,true,high,NA,NA,NA,NA,NA,NA,NA,false
uE3z9BfN,3p7qk0gj4wyyvhrnruxexlrqk8i2zm,3q5zz9zevssdx27hrp417stpug658h,uE3z9BfN,2020-0188,2020-06-16,16:47:43,17:15:03,NA,incomplete,192,gender,3,0,left,A_M_01.jpg,C_M_14.jpg,A_F_04.jpg,left,981.0300000025891,true,high,NA,NA,NA,NA,NA,NA,NA,false
uE3z9BfN,3p7qk0gj4wyyvhrnruxexlrqk8i2zm,3q5zz9zevssdx27hrp417stpug658h,uE3z9BfN,2020-0188,2020-06-16,16:47:43,17:15:03,NA,incomplete,193,gender,3,1,right,C_F_12.jpg,C_M_11.jpg,A_F_03.jpg,left,1403.7000000025146,false,high,NA,NA,NA,NA,NA,NA,NA,false
uE3z9BfN,3p7qk0gj4wyyvhrnruxexlrqk8i2zm,3q5zz9zevssdx27hrp417stpug658h,uE3z9BfN,2020-0188,2020-06-16,16:47:43,17:15:03,NA,incomplete,194,gender,3,0,right,A_F_14.jpg,A_M_08.jpg,C_F_15.jpg,right,940.884999996284,true,high,NA,NA,NA,NA,NA,NA,NA,false
uE3z9BfN,3p7qk0gj4wyyvhrnruxexlrqk8i2zm,3q5zz9zevssdx27hrp417stpug658h,uE3z9BfN,2020-0188,2020-06-16,16:47:43,17:15:03,NA,incomplete,195,gender,3,1,right,A_F_07.jpg,A_M_09.jpg,C_F_06.jpg,left,1058.054999994114,false,high,NA,NA,NA,NA,NA,NA,NA,false
uE3z9BfN,3p7qk0gj4wyyvhrnruxexlrqk8i2zm,3q5zz9zevssdx27hrp417stpug658h,uE3z9BfN,2020-0188,2020-06-16,16:47:43,17:15:03,NA,incomplete,196,gender,3,1,left,A_F_08.jpg,C_F_12.jpg,A_M_04.jpg,left,706.6549999946728,true,high,NA,NA,NA,NA,NA,NA,NA,false
uE3z9BfN,3p7qk0gj4wyyvhrnruxexlrqk8i2zm,3q5zz9zevssdx27hrp417stpug658h,uE3z9BfN,2020-0188,2020-06-16,16:47:43,17:15:03,NA,incomplete,197,gender,3,1,left,A_F_13.jpg,C_F_06.jpg,A_M_10.jpg,left,838.9250000037719,true,high,NA,NA,NA,NA,NA,NA,NA,false
uE3z9BfN,3p7qk0gj4wyyvhrnruxexlrqk8i2zm,3q5zz9zevssdx27hrp417stpug658h,uE3z9BfN,2020-0188,2020-06-16,16:47:43,17:15:03,NA,incomplete,198,gender,3,1,left,A_F_11.jpg,C_F_09.jpg,A_M_06.jpg,left,687.1949999984354,true,high,NA,NA,NA,NA,NA,NA,NA,false
uE3z9BfN,3p7qk0gj4wyyvhrnruxexlrqk8i2zm,3q5zz9zevssdx27hrp417stpug658h,uE3z9BfN,2020-0188,2020-06-16,16:47:43,17:15:03,NA,incomplete,199,gender,3,1,left,C_M_04.jpg,A_M_14.jpg,C_F_02.jpg,left,773.0949999967124,true,high,NA,NA,NA,NA,NA,NA,NA,false
uE3z9BfN,3p7qk0gj4wyyvhrnruxexlrqk8i2zm,3q5zz9zevssdx27hrp417stpug658h,uE3z9BfN,2020-0188,2020-06-16,16:47:43,17:15:03,NA,incomplete,200,race,2,1,left,A_M_10.jpg,A_F_06.jpg,C_M_15.jpg,right,999.965000002645,false,high,NA,NA,NA,NA,NA,NA,NA,false
uE3z9BfN,3p7qk0gj4wyyvhrnruxexlrqk8i2zm,3q5zz9zevssdx27hrp417stpug658h,uE3z9BfN,2020-0188,2020-06-16,16:47:43,17:15:03,NA,incomplete,201,race,2,1,left,A_F_13.jpg,A_M_02.jpg,C_F_14.jpg,left,889.7450000003446,true,high,NA,NA,NA,NA,NA,NA,NA,false
uE3z9BfN,3p7qk0gj4wyyvhrnruxexlrqk8i2zm,3q5zz9zevssdx27hrp417stpug658h,uE3z9BfN,2020-0188,2020-06-16,16:47:43,17:15:03,NA,incomplete,202,race,2,0,right,A_F_08.jpg,C_F_16.jpg,A_M_05.jpg,right,893.3499999984633,true,high,NA,NA,NA,NA,NA,NA,NA,false
uE3z9BfN,3p7qk0gj4wyyvhrnruxexlrqk8i2zm,3q5zz9zevssdx27hrp417stpug658h,uE3z9BfN,2020-0188,2020-06-16,16:47:43,17:15:03,NA,incomplete,203,race,2,1,left,A_M_03.jpg,A_F_01.jpg,C_M_16.jpg,left,952.4000000020023,true,high,NA,NA,NA,NA,NA,NA,NA,false
uE3z9BfN,3p7qk0gj4wyyvhrnruxexlrqk8i2zm,3q5zz9zevssdx27hrp417stpug658h,uE3z9BfN,2020-0188,2020-06-16,16:47:43,17:15:03,NA,incomplete,204,race,2,1,left,A_F_15.jpg,A_M_10.jpg,C_F_02.jpg,left,843.4300000008661,true,high,NA,NA,NA,NA,NA,NA,NA,false
uE3z9BfN,3p7qk0gj4wyyvhrnruxexlrqk8i2zm,3q5zz9zevssdx27hrp417stpug658h,uE3z9BfN,2020-0188,2020-06-16,16:47:43,17:15:03,NA,incomplete,205,race,2,1,right,C_F_09.jpg,A_F_04.jpg,C_M_06.jpg,right,1254.6450000007171,true,high,NA,NA,NA,NA,NA,NA,NA,false
uE3z9BfN,3p7qk0gj4wyyvhrnruxexlrqk8i2zm,3q5zz9zevssdx27hrp417stpug658h,uE3z9BfN,2020-0188,2020-06-16,16:47:43,17:15:03,NA,incomplete,206,race,2,1,right,A_M_08.jpg,C_M_13.jpg,A_F_05.jpg,left,795.070000000298,false,high,NA,NA,NA,NA,NA,NA,NA,false
uE3z9BfN,3p7qk0gj4wyyvhrnruxexlrqk8i2zm,3q5zz9zevssdx27hrp417stpug658h,uE3z9BfN,2020-0188,2020-06-16,16:47:43,17:15:03,NA,incomplete,207,race,2,0,left,A_F_09.jpg,A_M_08.jpg,C_F_01.jpg,right,1062.6950000005309,false,high,NA,NA,NA,NA,NA,NA,NA,false
uE3z9BfN,3p7qk0gj4wyyvhrnruxexlrqk8i2zm,3q5zz9zevssdx27hrp417stpug658h,uE3z9BfN,2020-0188,2020-06-16,16:47:43,17:15:03,NA,incomplete,208,race,2,1,left,A_F_05.jpg,A_M_11.jpg,C_F_08.jpg,left,1086.7250000010245,true,high,NA,NA,NA,NA,NA,NA,NA,false
uE3z9BfN,3p7qk0gj4wyyvhrnruxexlrqk8i2zm,3q5zz9zevssdx27hrp417stpug658h,uE3z9BfN,2020-0188,2020-06-16,16:47:43,17:15:03,NA,incomplete,209,race,2,1,right,A_M_07.jpg,C_M_08.jpg,A_F_11.jpg,right,976.1450000004843,true,high,NA,NA,NA,NA,NA,NA,NA,false
uE3z9BfN,3p7qk0gj4wyyvhrnruxexlrqk8i2zm,3q5zz9zevssdx27hrp417stpug658h,uE3z9BfN,2020-0188,2020-06-16,16:47:43,17:15:03,NA,incomplete,210,race,2,1,right,C_M_04.jpg,A_M_14.jpg,C_F_02.jpg,right,1223.754999998957,true,high,NA,NA,NA,NA,NA,NA,NA,false
uE3z9BfN,3p7qk0gj4wyyvhrnruxexlrqk8i2zm,3q5zz9zevssdx27hrp417stpug658h,uE3z9BfN,2020-0188,2020-06-16,16:47:43,17:15:03,NA,incomplete,211,race,2,0,right,A_M_14.jpg,C_M_13.jpg,A_F_11.jpg,left,1003.7349999984726,false,high,NA,NA,NA,NA,NA,NA,NA,false
uE3z9BfN,3p7qk0gj4wyyvhrnruxexlrqk8i2zm,3q5zz9zevssdx27hrp417stpug658h,uE3z9BfN,2020-0188,2020-06-16,16:47:43,17:15:03,NA,incomplete,212,race,2,1,right,A_F_08.jpg,C_F_02.jpg,A_M_03.jpg,left,877.1550000021234,false,high,NA,NA,NA,NA,NA,NA,NA,false
uE3z9BfN,3p7qk0gj4wyyvhrnruxexlrqk8i2zm,3q5zz9zevssdx27hrp417stpug658h,uE3z9BfN,2020-0188,2020-06-16,16:47:43,17:15:03,NA,incomplete,213,race,2,0,right,A_F_05.jpg,C_F_04.jpg,A_M_16.jpg,right,941.7850000024773,true,high,NA,NA,NA,NA,NA,NA,NA,false
uE3z9BfN,3p7qk0gj4wyyvhrnruxexlrqk8i2zm,3q5zz9zevssdx27hrp417stpug658h,uE3z9BfN,2020-0188,2020-06-16,16:47:43,17:15:03,NA,incomplete,214,race,2,1,left,A_M_15.jpg,A_F_11.jpg,C_M_14.jpg,right,1021.4750000014901,false,high,NA,NA,NA,NA,NA,NA,NA,false
uE3z9BfN,3p7qk0gj4wyyvhrnruxexlrqk8i2zm,3q5zz9zevssdx27hrp417stpug658h,uE3z9BfN,2020-0188,2020-06-16,16:47:43,17:15:03,NA,incomplete,215,race,2,1,left,A_M_08.jpg,A_F_10.jpg,C_M_14.jpg,left,891.9950000054669,true,high,NA,NA,NA,NA,NA,NA,NA,false
uE3z9BfN,3p7qk0gj4wyyvhrnruxexlrqk8i2zm,3q5zz9zevssdx27hrp417stpug658h,uE3z9BfN,2020-0188,2020-06-16,16:47:43,17:15:03,NA,incomplete,216,race,2,1,left,A_F_07.jpg,A_M_05.jpg,C_F_13.jpg,left,1071.3900000045542,true,high,NA,NA,NA,NA,NA,NA,NA,false
uE3z9BfN,3p7qk0gj4wyyvhrnruxexlrqk8i2zm,3q5zz9zevssdx27hrp417stpug658h,uE3z9BfN,2020-0188,2020-06-16,16:47:43,17:15:03,NA,incomplete,217,race,2,1,right,A_M_14.jpg,C_M_08.jpg,A_F_13.jpg,right,1208.1000000033528,true,high,NA,NA,NA,NA,NA,NA,NA,false
uE3z9BfN,3p7qk0gj4wyyvhrnruxexlrqk8i2zm,3q5zz9zevssdx27hrp417stpug658h,uE3z9BfN,2020-0188,2020-06-16,16:47:43,17:15:03,NA,incomplete,218,race,2,1,right,C_M_02.jpg,A_M_07.jpg,C_F_16.jpg,right,1024.5450000003912,true,high,NA,NA,NA,NA,NA,NA,NA,false
uE3z9BfN,3p7qk0gj4wyyvhrnruxexlrqk8i2zm,3q5zz9zevssdx27hrp417stpug658h,uE3z9BfN,2020-0188,2020-06-16,16:47:43,17:15:03,NA,incomplete,219,race,2,0,right,A_M_07.jpg,C_M_04.jpg,A_F_05.jpg,right,1056.489999995334,true,high,NA,NA,NA,NA,NA,NA,NA,false
uE3z9BfN,3p7qk0gj4wyyvhrnruxexlrqk8i2zm,3q5zz9zevssdx27hrp417stpug658h,uE3z9BfN,2020-0188,2020-06-16,16:47:43,17:15:03,NA,incomplete,220,gender,3,1,left,A_F_07.jpg,C_F_01.jpg,A_M_13.jpg,right,932.6950000033248,false,high,NA,NA,NA,NA,NA,NA,NA,false
uE3z9BfN,3p7qk0gj4wyyvhrnruxexlrqk8i2zm,3q5zz9zevssdx27hrp417stpug658h,uE3z9BfN,2020-0188,2020-06-16,16:47:43,17:15:03,NA,incomplete,221,gender,3,0,left,C_M_01.jpg,A_M_07.jpg,C_F_12.jpg,left,756.589999997057,true,high,NA,NA,NA,NA,NA,NA,NA,false
uE3z9BfN,3p7qk0gj4wyyvhrnruxexlrqk8i2zm,3q5zz9zevssdx27hrp417stpug658h,uE3z9BfN,2020-0188,2020-06-16,16:47:43,17:15:03,NA,incomplete,222,gender,3,1,left,A_F_08.jpg,C_F_01.jpg,A_M_04.jpg,right,949.8149999999441,false,high,NA,NA,NA,NA,NA,NA,NA,false
uE3z9BfN,3p7qk0gj4wyyvhrnruxexlrqk8i2zm,3q5zz9zevssdx27hrp417stpug658h,uE3z9BfN,2020-0188,2020-06-16,16:47:43,17:15:03,NA,incomplete,223,gender,3,1,right,A_F_16.jpg,A_M_09.jpg,C_F_05.jpg,right,824.0349999978207,true,high,NA,NA,NA,NA,NA,NA,NA,false
uE3z9BfN,3p7qk0gj4wyyvhrnruxexlrqk8i2zm,3q5zz9zevssdx27hrp417stpug658h,uE3z9BfN,2020-0188,2020-06-16,16:47:43,17:15:03,NA,incomplete,224,gender,3,1,left,A_M_11.jpg,C_M_07.jpg,A_F_16.jpg,left,761.5149999985006,true,high,NA,NA,NA,NA,NA,NA,NA,false
uE3z9BfN,3p7qk0gj4wyyvhrnruxexlrqk8i2zm,3q5zz9zevssdx27hrp417stpug658h,uE3z9BfN,2020-0188,2020-06-16,16:47:43,17:15:03,NA,incomplete,225,gender,3,1,left,C_M_04.jpg,A_M_15.jpg,C_F_05.jpg,left,967.18500000122,true,high,NA,NA,NA,NA,NA,NA,NA,false
uE3z9BfN,3p7qk0gj4wyyvhrnruxexlrqk8i2zm,3q5zz9zevssdx27hrp417stpug658h,uE3z9BfN,2020-0188,2020-06-16,16:47:43,17:15:03,NA,incomplete,226,gender,3,0,right,C_M_05.jpg,C_F_07.jpg,A_M_15.jpg,right,840.0150000015274,true,high,NA,NA,NA,NA,NA,NA,NA,false
uE3z9BfN,3p7qk0gj4wyyvhrnruxexlrqk8i2zm,3q5zz9zevssdx27hrp417stpug658h,uE3z9BfN,2020-0188,2020-06-16,16:47:43,17:15:03,NA,incomplete,227,gender,3,1,right,C_F_01.jpg,C_M_04.jpg,A_F_13.jpg,right,838.5750000015832,true,high,NA,NA,NA,NA,NA,NA,NA,false
uE3z9BfN,3p7qk0gj4wyyvhrnruxexlrqk8i2zm,3q5zz9zevssdx27hrp417stpug658h,uE3z9BfN,2020-0188,2020-06-16,16:47:43,17:15:03,NA,incomplete,228,gender,3,1,left,A_F_12.jpg,C_F_13.jpg,A_M_05.jpg,left,834.744999992894,true,high,NA,NA,NA,NA,NA,NA,NA,false
uE3z9BfN,3p7qk0gj4wyyvhrnruxexlrqk8i2zm,3q5zz9zevssdx27hrp417stpug658h,uE3z9BfN,2020-0188,2020-06-16,16:47:43,17:15:03,NA,incomplete,229,gender,3,1,right,C_F_05.jpg,C_M_04.jpg,A_F_06.jpg,right,775.4350000033155,true,high,NA,NA,NA,NA,NA,NA,NA,false
uE3z9BfN,3p7qk0gj4wyyvhrnruxexlrqk8i2zm,3q5zz9zevssdx27hrp417stpug658h,uE3z9BfN,2020-0188,2020-06-16,16:47:43,17:15:03,NA,incomplete,230,gender,3,1,right,A_M_02.jpg,A_F_08.jpg,C_M_13.jpg,right,889.4799999978859,true,high,NA,NA,NA,NA,NA,NA,NA,false
uE3z9BfN,3p7qk0gj4wyyvhrnruxexlrqk8i2zm,3q5zz9zevssdx27hrp417stpug658h,uE3z9BfN,2020-0188,2020-06-16,16:47:43,17:15:03,NA,incomplete,231,gender,3,1,right,A_M_05.jpg,A_F_13.jpg,C_M_15.jpg,right,803.5700000037905,true,high,NA,NA,NA,NA,NA,NA,NA,false
uE3z9BfN,3p7qk0gj4wyyvhrnruxexlrqk8i2zm,3q5zz9zevssdx27hrp417stpug658h,uE3z9BfN,2020-0188,2020-06-16,16:47:43,17:15:03,NA,incomplete,232,gender,3,0,right,A_M_15.jpg,A_F_04.jpg,C_M_02.jpg,right,744.2200000004377,true,high,NA,NA,NA,NA,NA,NA,NA,false
uE3z9BfN,3p7qk0gj4wyyvhrnruxexlrqk8i2zm,3q5zz9zevssdx27hrp417stpug658h,uE3z9BfN,2020-0188,2020-06-16,16:47:43,17:15:03,NA,incomplete,233,gender,3,1,right,C_F_07.jpg,C_M_01.jpg,A_F_16.jpg,right,851.2100000008941,true,high,NA,NA,NA,NA,NA,NA,NA,false
uE3z9BfN,3p7qk0gj4wyyvhrnruxexlrqk8i2zm,3q5zz9zevssdx27hrp417stpug658h,uE3z9BfN,2020-0188,2020-06-16,16:47:43,17:15:03,NA,incomplete,234,gender,3,1,left,A_F_14.jpg,C_F_15.jpg,A_M_04.jpg,left,770.4599999997299,true,high,NA,NA,NA,NA,NA,NA,NA,false
uE3z9BfN,3p7qk0gj4wyyvhrnruxexlrqk8i2zm,3q5zz9zevssdx27hrp417stpug658h,uE3z9BfN,2020-0188,2020-06-16,16:47:43,17:15:03,NA,incomplete,235,gender,3,0,right,A_M_01.jpg,A_F_13.jpg,C_M_06.jpg,right,804.7949999962002,true,high,NA,NA,NA,NA,NA,NA,NA,false
uE3z9BfN,3p7qk0gj4wyyvhrnruxexlrqk8i2zm,3q5zz9zevssdx27hrp417stpug658h,uE3z9BfN,2020-0188,2020-06-16,16:47:43,17:15:03,NA,incomplete,236,gender,3,1,left,A_F_05.jpg,C_F_09.jpg,A_M_07.jpg,right,929.909999998752,false,high,NA,NA,NA,NA,NA,NA,NA,false
uE3z9BfN,3p7qk0gj4wyyvhrnruxexlrqk8i2zm,3q5zz9zevssdx27hrp417stpug658h,uE3z9BfN,2020-0188,2020-06-16,16:47:43,17:15:03,NA,incomplete,237,gender,3,1,left,C_F_08.jpg,A_F_01.jpg,C_M_13.jpg,left,985.9299999952782,true,high,NA,NA,NA,NA,NA,NA,NA,false
uE3z9BfN,3p7qk0gj4wyyvhrnruxexlrqk8i2zm,3q5zz9zevssdx27hrp417stpug658h,uE3z9BfN,2020-0188,2020-06-16,16:47:43,17:15:03,NA,incomplete,238,gender,3,1,right,C_M_06.jpg,C_F_15.jpg,A_M_14.jpg,right,902.5600000023842,true,high,NA,NA,NA,NA,NA,NA,NA,false
uE3z9BfN,3p7qk0gj4wyyvhrnruxexlrqk8i2zm,3q5zz9zevssdx27hrp417stpug658h,uE3z9BfN,2020-0188,2020-06-16,16:47:43,17:15:03,NA,incomplete,239,gender,3,1,left,A_M_11.jpg,C_M_01.jpg,A_F_05.jpg,left,814.7200000023004,true,high,NA,NA,NA,NA,NA,NA,NA,false
uE3z9BfN,3p7qk0gj4wyyvhrnruxexlrqk8i2zm,3q5zz9zevssdx27hrp417stpug658h,uE3z9BfN,2020-0188,2020-06-16,16:47:43,17:15:03,NA,NA,instruction example,filling,NA,NA,NA,Red_Circle_Dots_4.jpg,Green_Star_Dots_1.jpg,Red_Plus_Stripes_2.jpg,NA,NA,NA,NA,NA,NA,NA,NA,NA,NA,NA,undefined
uE3z9BfN,3p7qk0gj4wyyvhrnruxexlrqk8i2zm,3q5zz9zevssdx27hrp417stpug658h,uE3z9BfN,2020-0188,2020-06-16,16:47:43,17:15:03,NA,NA,instruction example,filling,NA,NA,NA,Blue_Plus_Stripes_3.jpg,Blue_Star_Chess_4.jpg,Red_Triangle_Stripes_1.jpg,NA,NA,NA,NA,NA,NA,NA,NA,NA,NA,NA,undefined
uE3z9BfN,3p7qk0gj4wyyvhrnruxexlrqk8i2zm,3q5zz9zevssdx27hrp417stpug658h,uE3z9BfN,2020-0188,2020-06-16,16:47:43,17:15:03,NA,NA,instruction example,filling,NA,NA,NA,A_M_05.jpg,A_F_04.jpg,C_M_15.jpg,NA,NA,NA,NA,NA,NA,NA,NA,NA,NA,NA,undefined
uE3z9BfN,3p7qk0gj4wyyvhrnruxexlrqk8i2zm,3q5zz9zevssdx27hrp417stpug658h,uE3z9BfN,2020-0188,2020-06-16,16:47:43,17:15:03,NA,NA,instruction example,filling,NA,NA,NA,A_M_03.jpg,C_M_05.jpg,A_F_16.jpg,NA,NA,NA,NA,NA,NA,NA,NA,NA,NA,NA,undefined
uE3z9BfN,3p7qk0gj4wyyvhrnruxexlrqk8i2zm,3q5zz9zevssdx27hrp417stpug658h,uE3z9BfN,2020-0188,2020-06-16,16:47:43,17:15:03,1599224.9099999971,1641014.6800000002,NA,NA,NA,NA,NA,NA,NA,NA,NA,NA,NA,NA,52,White/Caucasian,Female,White,no,yes,no,undefined
