workerId,hitId,assignmentId,subject,studyid,exp_date,exp_start,exp_end,time_start,time_end,trial,type,sequence,reward_validity,answer,image_top,image_left,image_right,response,response_time,response_acc,volatility,practice
Ij3sLHsk,39tx062qy41yb4nrucnyjag7oeq3xx,3qavnhz3eqh5if3hga4mk8vi0fkalu,Ij3sLHsk,2020-0188,2020-11-17,11:22:18,11:38:09,NA,incomplete,0,shape,0,0,right,Red_Triangle_Dots_1.jpg,Blue_Plus_Stripes_1.jpg,Purple_Triangle_Chess_3.jpg,right,1352.1050000563264,true,NA,true
Ij3sLHsk,39tx062qy41yb4nrucnyjag7oeq3xx,3qavnhz3eqh5if3hga4mk8vi0fkalu,Ij3sLHsk,2020-0188,2020-11-17,11:22:18,11:38:09,NA,incomplete,1,shape,0,1,right,Blue_Triangle_Grid_4.jpg,Red_Circle_Dots_4.jpg,Green_Triangle_Stripes_3.jpg,right,843.9749999670312,true,NA,true
Ij3sLHsk,39tx062qy41yb4nrucnyjag7oeq3xx,3qavnhz3eqh5if3hga4mk8vi0fkalu,Ij3sLHsk,2020-0188,2020-11-17,11:22:18,11:38:09,NA,incomplete,2,shape,0,1,left,Green_Plus_Stripes_3.jpg,Blue_Plus_Chess_2.jpg,Red_Star_Grid_3.jpg,left,981.2549999915063,true,NA,true
Ij3sLHsk,39tx062qy41yb4nrucnyjag7oeq3xx,3qavnhz3eqh5if3hga4mk8vi0fkalu,Ij3sLHsk,2020-0188,2020-11-17,11:22:18,11:38:09,NA,incomplete,3,shape,0,1,left,Purple_Plus_Stripes_1.jpg,Red_Plus_Grid_4.jpg,Green_Triangle_Chess_1.jpg,left,1104.469999903813,true,NA,true
Ij3sLHsk,39tx062qy41yb4nrucnyjag7oeq3xx,3qavnhz3eqh5if3hga4mk8vi0fkalu,Ij3sLHsk,2020-0188,2020-11-17,11:22:18,11:38:09,NA,incomplete,4,shape,0,1,right,Red_Star_Chess_4.jpg,Green_Circle_Dots_4.jpg,Purple_Star_Grid_2.jpg,right,1088.1550000049174,true,NA,true
Ij3sLHsk,39tx062qy41yb4nrucnyjag7oeq3xx,3qavnhz3eqh5if3hga4mk8vi0fkalu,Ij3sLHsk,2020-0188,2020-11-17,11:22:18,11:38:09,NA,incomplete,5,shape,0,1,left,Purple_Star_Chess_4.jpg,Blue_Star_Stripes_1.jpg,Red_Circle_Grid_4.jpg,left,706.0849999543279,true,NA,true
Ij3sLHsk,39tx062qy41yb4nrucnyjag7oeq3xx,3qavnhz3eqh5if3hga4mk8vi0fkalu,Ij3sLHsk,2020-0188,2020-11-17,11:22:18,11:38:09,NA,incomplete,6,shape,0,1,right,Red_Plus_Stripes_1.jpg,Blue_Triangle_Dots_1.jpg,Green_Plus_Grid_4.jpg,right,665.5050000408664,true,NA,true
Ij3sLHsk,39tx062qy41yb4nrucnyjag7oeq3xx,3qavnhz3eqh5if3hga4mk8vi0fkalu,Ij3sLHsk,2020-0188,2020-11-17,11:22:18,11:38:09,NA,incomplete,7,shape,0,1,right,Green_Plus_Stripes_2.jpg,Purple_Circle_Grid_2.jpg,Blue_Plus_Chess_1.jpg,right,685.884999926202,true,NA,true
Ij3sLHsk,39tx062qy41yb4nrucnyjag7oeq3xx,3qavnhz3eqh5if3hga4mk8vi0fkalu,Ij3sLHsk,2020-0188,2020-11-17,11:22:18,11:38:09,NA,incomplete,8,shape,0,1,right,Red_Circle_Stripes_2.jpg,Purple_Triangle_Grid_2.jpg,Green_Circle_Chess_4.jpg,right,745.5100000370294,true,NA,true
Ij3sLHsk,39tx062qy41yb4nrucnyjag7oeq3xx,3qavnhz3eqh5if3hga4mk8vi0fkalu,Ij3sLHsk,2020-0188,2020-11-17,11:22:18,11:38:09,NA,incomplete,9,shape,0,1,left,Green_Circle_Stripes_3.jpg,Purple_Circle_Chess_4.jpg,Blue_Plus_Dots_3.jpg,left,796.364999958314,true,NA,true
Ij3sLHsk,39tx062qy41yb4nrucnyjag7oeq3xx,3qavnhz3eqh5if3hga4mk8vi0fkalu,Ij3sLHsk,2020-0188,2020-11-17,11:22:18,11:38:09,NA,incomplete,10,shape,0,1,right,Purple_Circle_Chess_2.jpg,Red_Plus_Stripes_2.jpg,Blue_Circle_Dots_4.jpg,right,856.1650000046939,true,NA,true
Ij3sLHsk,39tx062qy41yb4nrucnyjag7oeq3xx,3qavnhz3eqh5if3hga4mk8vi0fkalu,Ij3sLHsk,2020-0188,2020-11-17,11:22:18,11:38:09,NA,incomplete,11,shape,0,1,left,Blue_Circle_Stripes_4.jpg,Red_Circle_Dots_3.jpg,Purple_Plus_Chess_4.jpg,left,680.4599999450147,true,NA,true
Ij3sLHsk,39tx062qy41yb4nrucnyjag7oeq3xx,3qavnhz3eqh5if3hga4mk8vi0fkalu,Ij3sLHsk,2020-0188,2020-11-17,11:22:18,11:38:09,NA,incomplete,12,shape,0,1,right,Green_Circle_Dots_4.jpg,Blue_Triangle_Grid_4.jpg,Red_Circle_Stripes_3.jpg,right,628.1250000465661,true,NA,true
Ij3sLHsk,39tx062qy41yb4nrucnyjag7oeq3xx,3qavnhz3eqh5if3hga4mk8vi0fkalu,Ij3sLHsk,2020-0188,2020-11-17,11:22:18,11:38:09,NA,incomplete,13,shape,0,1,left,Purple_Triangle_Grid_3.jpg,Green_Triangle_Stripes_2.jpg,Red_Plus_Dots_3.jpg,left,645.4600000288337,true,NA,true
Ij3sLHsk,39tx062qy41yb4nrucnyjag7oeq3xx,3qavnhz3eqh5if3hga4mk8vi0fkalu,Ij3sLHsk,2020-0188,2020-11-17,11:22:18,11:38:09,NA,incomplete,14,shape,0,0,right,Purple_Plus_Chess_3.jpg,Green_Star_Stripes_3.jpg,Blue_Plus_Grid_4.jpg,right,648.9849999779835,true,NA,true
Ij3sLHsk,39tx062qy41yb4nrucnyjag7oeq3xx,3qavnhz3eqh5if3hga4mk8vi0fkalu,Ij3sLHsk,2020-0188,2020-11-17,11:22:18,11:38:09,NA,incomplete,15,shape,0,1,right,Green_Plus_Chess_1.jpg,Red_Circle_Grid_1.jpg,Blue_Plus_Stripes_2.jpg,right,1050.6400000303984,true,NA,true
Ij3sLHsk,39tx062qy41yb4nrucnyjag7oeq3xx,3qavnhz3eqh5if3hga4mk8vi0fkalu,Ij3sLHsk,2020-0188,2020-11-17,11:22:18,11:38:09,NA,incomplete,16,shape,0,0,left,Blue_Circle_Stripes_2.jpg,Red_Circle_Chess_3.jpg,Purple_Triangle_Dots_2.jpg,left,718.3700000168756,true,NA,true
Ij3sLHsk,39tx062qy41yb4nrucnyjag7oeq3xx,3qavnhz3eqh5if3hga4mk8vi0fkalu,Ij3sLHsk,2020-0188,2020-11-17,11:22:18,11:38:09,NA,incomplete,17,shape,0,0,left,Blue_Triangle_Stripes_2.jpg,Red_Triangle_Chess_4.jpg,Purple_Plus_Dots_2.jpg,left,798.1649999273941,true,NA,true
Ij3sLHsk,39tx062qy41yb4nrucnyjag7oeq3xx,3qavnhz3eqh5if3hga4mk8vi0fkalu,Ij3sLHsk,2020-0188,2020-11-17,11:22:18,11:38:09,NA,incomplete,18,shape,0,1,right,Purple_Circle_Chess_4.jpg,Green_Plus_Stripes_4.jpg,Red_Circle_Grid_3.jpg,right,675.4199999850243,true,NA,true
Ij3sLHsk,39tx062qy41yb4nrucnyjag7oeq3xx,3qavnhz3eqh5if3hga4mk8vi0fkalu,Ij3sLHsk,2020-0188,2020-11-17,11:22:18,11:38:09,NA,incomplete,19,shape,0,1,left,Red_Circle_Chess_1.jpg,Purple_Circle_Dots_3.jpg,Green_Star_Stripes_1.jpg,left,800.870000035502,true,NA,true
Ij3sLHsk,39tx062qy41yb4nrucnyjag7oeq3xx,3qavnhz3eqh5if3hga4mk8vi0fkalu,Ij3sLHsk,2020-0188,2020-11-17,11:22:18,11:38:09,NA,incomplete,20,number,1,1,left,Blue_Star_Stripes_1.jpg,Green_Plus_Grid_1.jpg,Red_Star_Dots_4.jpg,left,1171.100000035949,true,NA,true
Ij3sLHsk,39tx062qy41yb4nrucnyjag7oeq3xx,3qavnhz3eqh5if3hga4mk8vi0fkalu,Ij3sLHsk,2020-0188,2020-11-17,11:22:18,11:38:09,NA,incomplete,21,number,1,1,right,Purple_Triangle_Chess_1.jpg,Blue_Triangle_Grid_2.jpg,Green_Circle_Stripes_1.jpg,right,760.7049999060109,true,NA,true
Ij3sLHsk,39tx062qy41yb4nrucnyjag7oeq3xx,3qavnhz3eqh5if3hga4mk8vi0fkalu,Ij3sLHsk,2020-0188,2020-11-17,11:22:18,11:38:09,NA,incomplete,22,number,1,1,right,Purple_Circle_Dots_2.jpg,Red_Circle_Grid_1.jpg,Blue_Star_Stripes_2.jpg,right,680.3049999289215,true,NA,true
Ij3sLHsk,39tx062qy41yb4nrucnyjag7oeq3xx,3qavnhz3eqh5if3hga4mk8vi0fkalu,Ij3sLHsk,2020-0188,2020-11-17,11:22:18,11:38:09,NA,incomplete,23,number,1,1,right,Red_Plus_Chess_3.jpg,Purple_Plus_Stripes_2.jpg,Green_Star_Dots_3.jpg,right,947.275000042282,true,NA,true
Ij3sLHsk,39tx062qy41yb4nrucnyjag7oeq3xx,3qavnhz3eqh5if3hga4mk8vi0fkalu,Ij3sLHsk,2020-0188,2020-11-17,11:22:18,11:38:09,NA,incomplete,24,number,1,1,left,Red_Circle_Chess_4.jpg,Blue_Star_Grid_4.jpg,Green_Circle_Dots_2.jpg,left,855.8999999659136,true,NA,true
Ij3sLHsk,39tx062qy41yb4nrucnyjag7oeq3xx,3qavnhz3eqh5if3hga4mk8vi0fkalu,Ij3sLHsk,2020-0188,2020-11-17,11:22:18,11:38:09,NA,incomplete,25,number,1,1,right,Red_Star_Stripes_2.jpg,Green_Star_Chess_4.jpg,Purple_Triangle_Dots_2.jpg,right,844.1149999853224,true,NA,true
Ij3sLHsk,39tx062qy41yb4nrucnyjag7oeq3xx,3qavnhz3eqh5if3hga4mk8vi0fkalu,Ij3sLHsk,2020-0188,2020-11-17,11:22:18,11:38:09,NA,incomplete,26,number,1,0,right,Red_Triangle_Dots_2.jpg,Blue_Triangle_Stripes_3.jpg,Green_Plus_Chess_2.jpg,right,1018.3050000341609,true,NA,true
Ij3sLHsk,39tx062qy41yb4nrucnyjag7oeq3xx,3qavnhz3eqh5if3hga4mk8vi0fkalu,Ij3sLHsk,2020-0188,2020-11-17,11:22:18,11:38:09,NA,incomplete,27,number,1,1,left,Red_Plus_Dots_4.jpg,Green_Triangle_Chess_4.jpg,Purple_Plus_Stripes_2.jpg,left,738.8649999629706,true,NA,true
Ij3sLHsk,39tx062qy41yb4nrucnyjag7oeq3xx,3qavnhz3eqh5if3hga4mk8vi0fkalu,Ij3sLHsk,2020-0188,2020-11-17,11:22:18,11:38:09,NA,incomplete,28,number,1,1,right,Red_Star_Stripes_2.jpg,Blue_Star_Grid_4.jpg,Green_Circle_Dots_2.jpg,right,693.3999999891967,true,NA,true
Ij3sLHsk,39tx062qy41yb4nrucnyjag7oeq3xx,3qavnhz3eqh5if3hga4mk8vi0fkalu,Ij3sLHsk,2020-0188,2020-11-17,11:22:18,11:38:09,NA,incomplete,29,number,1,1,left,Blue_Plus_Dots_4.jpg,Purple_Triangle_Chess_4.jpg,Red_Plus_Grid_3.jpg,left,711.0150000080466,true,NA,true
Ij3sLHsk,39tx062qy41yb4nrucnyjag7oeq3xx,3qavnhz3eqh5if3hga4mk8vi0fkalu,Ij3sLHsk,2020-0188,2020-11-17,11:22:18,11:38:09,NA,incomplete,30,number,1,1,right,Blue_Star_Chess_4.jpg,Purple_Star_Dots_2.jpg,Red_Circle_Grid_4.jpg,right,689.600000041537,true,NA,true
Ij3sLHsk,39tx062qy41yb4nrucnyjag7oeq3xx,3qavnhz3eqh5if3hga4mk8vi0fkalu,Ij3sLHsk,2020-0188,2020-11-17,11:22:18,11:38:09,NA,incomplete,31,number,1,1,right,Blue_Plus_Dots_2.jpg,Purple_Plus_Stripes_1.jpg,Green_Star_Chess_2.jpg,right,807.5650000246242,true,NA,true
Ij3sLHsk,39tx062qy41yb4nrucnyjag7oeq3xx,3qavnhz3eqh5if3hga4mk8vi0fkalu,Ij3sLHsk,2020-0188,2020-11-17,11:22:18,11:38:09,NA,incomplete,32,number,1,0,right,Purple_Plus_Stripes_3.jpg,Blue_Plus_Chess_1.jpg,Red_Star_Dots_3.jpg,right,789.7799999918789,true,NA,true
Ij3sLHsk,39tx062qy41yb4nrucnyjag7oeq3xx,3qavnhz3eqh5if3hga4mk8vi0fkalu,Ij3sLHsk,2020-0188,2020-11-17,11:22:18,11:38:09,NA,incomplete,33,number,1,0,left,Blue_Circle_Dots_1.jpg,Green_Star_Chess_1.jpg,Red_Circle_Grid_3.jpg,left,1031.3799999421462,true,NA,true
Ij3sLHsk,39tx062qy41yb4nrucnyjag7oeq3xx,3qavnhz3eqh5if3hga4mk8vi0fkalu,Ij3sLHsk,2020-0188,2020-11-17,11:22:18,11:38:09,NA,incomplete,34,number,1,1,right,Purple_Plus_Stripes_4.jpg,Blue_Plus_Grid_1.jpg,Green_Circle_Chess_4.jpg,right,750.7849999237806,true,NA,true
Ij3sLHsk,39tx062qy41yb4nrucnyjag7oeq3xx,3qavnhz3eqh5if3hga4mk8vi0fkalu,Ij3sLHsk,2020-0188,2020-11-17,11:22:18,11:38:09,NA,incomplete,35,number,1,1,right,Green_Plus_Dots_3.jpg,Red_Plus_Grid_4.jpg,Purple_Circle_Stripes_3.jpg,right,705.8850000612438,true,NA,true
Ij3sLHsk,39tx062qy41yb4nrucnyjag7oeq3xx,3qavnhz3eqh5if3hga4mk8vi0fkalu,Ij3sLHsk,2020-0188,2020-11-17,11:22:18,11:38:09,NA,incomplete,36,number,1,0,left,Blue_Circle_Stripes_4.jpg,Red_Star_Chess_4.jpg,Purple_Circle_Dots_3.jpg,left,848.5300000756979,true,NA,true
Ij3sLHsk,39tx062qy41yb4nrucnyjag7oeq3xx,3qavnhz3eqh5if3hga4mk8vi0fkalu,Ij3sLHsk,2020-0188,2020-11-17,11:22:18,11:38:09,NA,incomplete,37,number,1,1,right,Blue_Plus_Stripes_4.jpg,Green_Plus_Grid_2.jpg,Purple_Star_Chess_4.jpg,right,697.4199999822304,true,NA,true
Ij3sLHsk,39tx062qy41yb4nrucnyjag7oeq3xx,3qavnhz3eqh5if3hga4mk8vi0fkalu,Ij3sLHsk,2020-0188,2020-11-17,11:22:18,11:38:09,NA,incomplete,38,number,1,1,left,Green_Triangle_Chess_3.jpg,Purple_Circle_Dots_3.jpg,Blue_Triangle_Stripes_1.jpg,left,815.9800000721589,true,NA,true
Ij3sLHsk,39tx062qy41yb4nrucnyjag7oeq3xx,3qavnhz3eqh5if3hga4mk8vi0fkalu,Ij3sLHsk,2020-0188,2020-11-17,11:22:18,11:38:09,NA,incomplete,39,number,1,1,left,Red_Plus_Stripes_1.jpg,Green_Star_Chess_1.jpg,Blue_Plus_Grid_2.jpg,left,798.7850001081824,true,NA,true
Ij3sLHsk,39tx062qy41yb4nrucnyjag7oeq3xx,3qavnhz3eqh5if3hga4mk8vi0fkalu,Ij3sLHsk,2020-0188,2020-11-17,11:22:18,11:38:09,NA,incomplete,0,shape,0,1,left,Blue_Triangle_Dots_2.jpg,Green_Triangle_Stripes_1.jpg,Red_Circle_Grid_2.jpg,right,1071.6249999823049,false,low,false
Ij3sLHsk,39tx062qy41yb4nrucnyjag7oeq3xx,3qavnhz3eqh5if3hga4mk8vi0fkalu,Ij3sLHsk,2020-0188,2020-11-17,11:22:18,11:38:09,NA,incomplete,1,shape,0,0,right,Blue_Circle_Chess_3.jpg,Green_Triangle_Dots_3.jpg,Red_Circle_Grid_4.jpg,left,693.1499999482185,false,low,false
Ij3sLHsk,39tx062qy41yb4nrucnyjag7oeq3xx,3qavnhz3eqh5if3hga4mk8vi0fkalu,Ij3sLHsk,2020-0188,2020-11-17,11:22:18,11:38:09,NA,incomplete,2,shape,0,1,right,Blue_Plus_Grid_2.jpg,Purple_Triangle_Dots_2.jpg,Red_Plus_Chess_3.jpg,left,778.180000022985,false,low,false
Ij3sLHsk,39tx062qy41yb4nrucnyjag7oeq3xx,3qavnhz3eqh5if3hga4mk8vi0fkalu,Ij3sLHsk,2020-0188,2020-11-17,11:22:18,11:38:09,NA,incomplete,3,shape,0,0,right,Green_Triangle_Grid_2.jpg,Purple_Star_Dots_2.jpg,Blue_Triangle_Chess_4.jpg,left,617.1399999875575,false,low,false
Ij3sLHsk,39tx062qy41yb4nrucnyjag7oeq3xx,3qavnhz3eqh5if3hga4mk8vi0fkalu,Ij3sLHsk,2020-0188,2020-11-17,11:22:18,11:38:09,NA,incomplete,4,shape,0,1,right,Green_Star_Stripes_3.jpg,Blue_Circle_Grid_3.jpg,Red_Star_Dots_2.jpg,left,673.2799999881536,false,low,false
Ij3sLHsk,39tx062qy41yb4nrucnyjag7oeq3xx,3qavnhz3eqh5if3hga4mk8vi0fkalu,Ij3sLHsk,2020-0188,2020-11-17,11:22:18,11:38:09,NA,incomplete,5,shape,0,1,left,Green_Triangle_Stripes_3.jpg,Red_Triangle_Chess_1.jpg,Purple_Circle_Grid_3.jpg,right,603.0299999983981,false,low,false
Ij3sLHsk,39tx062qy41yb4nrucnyjag7oeq3xx,3qavnhz3eqh5if3hga4mk8vi0fkalu,Ij3sLHsk,2020-0188,2020-11-17,11:22:18,11:38:09,NA,incomplete,6,shape,0,1,left,Red_Plus_Grid_2.jpg,Blue_Plus_Stripes_1.jpg,Green_Triangle_Chess_2.jpg,right,764.1099999891594,false,low,false
Ij3sLHsk,39tx062qy41yb4nrucnyjag7oeq3xx,3qavnhz3eqh5if3hga4mk8vi0fkalu,Ij3sLHsk,2020-0188,2020-11-17,11:22:18,11:38:09,NA,incomplete,7,shape,0,1,left,Green_Circle_Chess_1.jpg,Red_Circle_Grid_4.jpg,Blue_Plus_Stripes_1.jpg,left,652.0000000018626,true,low,false
Ij3sLHsk,39tx062qy41yb4nrucnyjag7oeq3xx,3qavnhz3eqh5if3hga4mk8vi0fkalu,Ij3sLHsk,2020-0188,2020-11-17,11:22:18,11:38:09,NA,incomplete,8,shape,0,1,right,Blue_Star_Stripes_4.jpg,Purple_Triangle_Grid_4.jpg,Red_Star_Chess_3.jpg,right,886.4100000355393,true,low,false
Ij3sLHsk,39tx062qy41yb4nrucnyjag7oeq3xx,3qavnhz3eqh5if3hga4mk8vi0fkalu,Ij3sLHsk,2020-0188,2020-11-17,11:22:18,11:38:09,NA,incomplete,9,shape,0,1,right,Red_Circle_Chess_4.jpg,Purple_Triangle_Dots_4.jpg,Blue_Circle_Stripes_3.jpg,right,1010.5600000824779,true,low,false
Ij3sLHsk,39tx062qy41yb4nrucnyjag7oeq3xx,3qavnhz3eqh5if3hga4mk8vi0fkalu,Ij3sLHsk,2020-0188,2020-11-17,11:22:18,11:38:09,NA,incomplete,10,number,1,1,right,Green_Star_Chess_3.jpg,Purple_Star_Dots_2.jpg,Red_Plus_Grid_3.jpg,left,560.6399999232963,false,low,false
Ij3sLHsk,39tx062qy41yb4nrucnyjag7oeq3xx,3qavnhz3eqh5if3hga4mk8vi0fkalu,Ij3sLHsk,2020-0188,2020-11-17,11:22:18,11:38:09,NA,incomplete,11,number,1,1,left,Blue_Circle_Grid_3.jpg,Red_Plus_Stripes_3.jpg,Purple_Circle_Dots_4.jpg,right,561.794999986887,false,low,false
Ij3sLHsk,39tx062qy41yb4nrucnyjag7oeq3xx,3qavnhz3eqh5if3hga4mk8vi0fkalu,Ij3sLHsk,2020-0188,2020-11-17,11:22:18,11:38:09,NA,incomplete,12,number,1,1,left,Blue_Triangle_Grid_2.jpg,Green_Plus_Stripes_2.jpg,Purple_Triangle_Chess_1.jpg,right,908.6949999909848,false,low,false
Ij3sLHsk,39tx062qy41yb4nrucnyjag7oeq3xx,3qavnhz3eqh5if3hga4mk8vi0fkalu,Ij3sLHsk,2020-0188,2020-11-17,11:22:18,11:38:09,NA,incomplete,13,number,1,1,right,Green_Triangle_Chess_2.jpg,Purple_Triangle_Grid_3.jpg,Blue_Star_Stripes_2.jpg,right,1111.200000043027,true,low,false
Ij3sLHsk,39tx062qy41yb4nrucnyjag7oeq3xx,3qavnhz3eqh5if3hga4mk8vi0fkalu,Ij3sLHsk,2020-0188,2020-11-17,11:22:18,11:38:09,NA,incomplete,14,number,1,0,left,Red_Star_Stripes_1.jpg,Purple_Plus_Chess_1.jpg,Blue_Star_Grid_3.jpg,left,976.2350000673905,true,low,false
Ij3sLHsk,39tx062qy41yb4nrucnyjag7oeq3xx,3qavnhz3eqh5if3hga4mk8vi0fkalu,Ij3sLHsk,2020-0188,2020-11-17,11:22:18,11:38:09,NA,incomplete,15,number,1,0,right,Green_Circle_Chess_2.jpg,Purple_Circle_Grid_4.jpg,Blue_Star_Dots_2.jpg,right,742.8749999962747,true,low,false
Ij3sLHsk,39tx062qy41yb4nrucnyjag7oeq3xx,3qavnhz3eqh5if3hga4mk8vi0fkalu,Ij3sLHsk,2020-0188,2020-11-17,11:22:18,11:38:09,NA,incomplete,16,number,1,1,right,Purple_Plus_Grid_1.jpg,Red_Plus_Dots_3.jpg,Green_Circle_Stripes_1.jpg,right,935.2400000207126,true,low,false
Ij3sLHsk,39tx062qy41yb4nrucnyjag7oeq3xx,3qavnhz3eqh5if3hga4mk8vi0fkalu,Ij3sLHsk,2020-0188,2020-11-17,11:22:18,11:38:09,NA,incomplete,17,number,1,1,right,Green_Triangle_Chess_4.jpg,Red_Triangle_Stripes_1.jpg,Blue_Circle_Dots_4.jpg,right,842.9550000000745,true,low,false
Ij3sLHsk,39tx062qy41yb4nrucnyjag7oeq3xx,3qavnhz3eqh5if3hga4mk8vi0fkalu,Ij3sLHsk,2020-0188,2020-11-17,11:22:18,11:38:09,NA,incomplete,18,number,1,1,right,Blue_Circle_Grid_1.jpg,Purple_Circle_Chess_2.jpg,Green_Plus_Dots_1.jpg,right,802.254999987781,true,low,false
Ij3sLHsk,39tx062qy41yb4nrucnyjag7oeq3xx,3qavnhz3eqh5if3hga4mk8vi0fkalu,Ij3sLHsk,2020-0188,2020-11-17,11:22:18,11:38:09,NA,incomplete,19,number,1,0,right,Red_Plus_Grid_3.jpg,Green_Plus_Stripes_4.jpg,Purple_Circle_Dots_3.jpg,left,589.0549999894574,false,low,false
Ij3sLHsk,39tx062qy41yb4nrucnyjag7oeq3xx,3qavnhz3eqh5if3hga4mk8vi0fkalu,Ij3sLHsk,2020-0188,2020-11-17,11:22:18,11:38:09,NA,incomplete,20,shape,0,1,left,Purple_Star_Dots_4.jpg,Red_Star_Stripes_3.jpg,Green_Circle_Chess_4.jpg,right,1013.4349999716505,false,low,false
Ij3sLHsk,39tx062qy41yb4nrucnyjag7oeq3xx,3qavnhz3eqh5if3hga4mk8vi0fkalu,Ij3sLHsk,2020-0188,2020-11-17,11:22:18,11:38:09,NA,incomplete,21,shape,0,0,left,Red_Triangle_Stripes_3.jpg,Purple_Triangle_Dots_2.jpg,Green_Star_Chess_3.jpg,right,688.3949999464676,false,low,false
Ij3sLHsk,39tx062qy41yb4nrucnyjag7oeq3xx,3qavnhz3eqh5if3hga4mk8vi0fkalu,Ij3sLHsk,2020-0188,2020-11-17,11:22:18,11:38:09,NA,incomplete,22,shape,0,0,left,Purple_Star_Stripes_2.jpg,Red_Star_Chess_1.jpg,Blue_Plus_Dots_2.jpg,right,706.220000050962,false,low,false
Ij3sLHsk,39tx062qy41yb4nrucnyjag7oeq3xx,3qavnhz3eqh5if3hga4mk8vi0fkalu,Ij3sLHsk,2020-0188,2020-11-17,11:22:18,11:38:09,NA,incomplete,23,shape,0,1,right,Purple_Circle_Stripes_4.jpg,Red_Star_Grid_4.jpg,Blue_Circle_Chess_2.jpg,left,789.2550000688061,false,low,false
Ij3sLHsk,39tx062qy41yb4nrucnyjag7oeq3xx,3qavnhz3eqh5if3hga4mk8vi0fkalu,Ij3sLHsk,2020-0188,2020-11-17,11:22:18,11:38:09,NA,incomplete,24,shape,0,1,right,Green_Circle_Chess_1.jpg,Purple_Plus_Dots_1.jpg,Blue_Circle_Stripes_2.jpg,left,766.304999939166,false,low,false
Ij3sLHsk,39tx062qy41yb4nrucnyjag7oeq3xx,3qavnhz3eqh5if3hga4mk8vi0fkalu,Ij3sLHsk,2020-0188,2020-11-17,11:22:18,11:38:09,NA,incomplete,25,shape,0,1,left,Red_Plus_Chess_4.jpg,Purple_Plus_Stripes_1.jpg,Blue_Star_Dots_4.jpg,right,699.6599999256432,false,low,false
Ij3sLHsk,39tx062qy41yb4nrucnyjag7oeq3xx,3qavnhz3eqh5if3hga4mk8vi0fkalu,Ij3sLHsk,2020-0188,2020-11-17,11:22:18,11:38:09,NA,incomplete,26,shape,0,1,left,Green_Plus_Stripes_1.jpg,Blue_Plus_Chess_3.jpg,Purple_Triangle_Grid_1.jpg,left,668.4299999615178,true,low,false
Ij3sLHsk,39tx062qy41yb4nrucnyjag7oeq3xx,3qavnhz3eqh5if3hga4mk8vi0fkalu,Ij3sLHsk,2020-0188,2020-11-17,11:22:18,11:38:09,NA,incomplete,27,shape,0,1,right,Purple_Plus_Chess_4.jpg,Red_Circle_Stripes_4.jpg,Blue_Plus_Grid_2.jpg,right,525.569999939762,true,low,false
Ij3sLHsk,39tx062qy41yb4nrucnyjag7oeq3xx,3qavnhz3eqh5if3hga4mk8vi0fkalu,Ij3sLHsk,2020-0188,2020-11-17,11:22:18,11:38:09,NA,incomplete,28,shape,0,1,right,Red_Circle_Dots_4.jpg,Purple_Triangle_Stripes_4.jpg,Green_Circle_Chess_3.jpg,right,728.2099999720231,true,low,false
Ij3sLHsk,39tx062qy41yb4nrucnyjag7oeq3xx,3qavnhz3eqh5if3hga4mk8vi0fkalu,Ij3sLHsk,2020-0188,2020-11-17,11:22:18,11:38:09,NA,incomplete,29,shape,0,1,left,Red_Star_Grid_3.jpg,Blue_Star_Stripes_2.jpg,Green_Circle_Chess_3.jpg,left,794.9899999657646,true,low,false
Ij3sLHsk,39tx062qy41yb4nrucnyjag7oeq3xx,3qavnhz3eqh5if3hga4mk8vi0fkalu,Ij3sLHsk,2020-0188,2020-11-17,11:22:18,11:38:09,NA,incomplete,30,number,1,1,left,Purple_Star_Grid_4.jpg,Red_Plus_Chess_4.jpg,Blue_Star_Stripes_2.jpg,right,553.0449999496341,false,low,false
Ij3sLHsk,39tx062qy41yb4nrucnyjag7oeq3xx,3qavnhz3eqh5if3hga4mk8vi0fkalu,Ij3sLHsk,2020-0188,2020-11-17,11:22:18,11:38:09,NA,incomplete,31,number,1,0,right,Green_Plus_Dots_4.jpg,Purple_Plus_Stripes_1.jpg,Blue_Circle_Grid_4.jpg,left,777.9650000156835,false,low,false
Ij3sLHsk,39tx062qy41yb4nrucnyjag7oeq3xx,3qavnhz3eqh5if3hga4mk8vi0fkalu,Ij3sLHsk,2020-0188,2020-11-17,11:22:18,11:38:09,NA,incomplete,32,number,1,0,right,Red_Circle_Dots_2.jpg,Green_Circle_Chess_1.jpg,Blue_Triangle_Stripes_2.jpg,left,763.1700000492856,false,low,false
Ij3sLHsk,39tx062qy41yb4nrucnyjag7oeq3xx,3qavnhz3eqh5if3hga4mk8vi0fkalu,Ij3sLHsk,2020-0188,2020-11-17,11:22:18,11:38:09,NA,incomplete,33,number,1,1,right,Blue_Star_Dots_3.jpg,Green_Star_Stripes_4.jpg,Red_Plus_Grid_3.jpg,left,687.7499999245629,false,low,false
Ij3sLHsk,39tx062qy41yb4nrucnyjag7oeq3xx,3qavnhz3eqh5if3hga4mk8vi0fkalu,Ij3sLHsk,2020-0188,2020-11-17,11:22:18,11:38:09,NA,incomplete,34,number,1,1,right,Green_Triangle_Stripes_3.jpg,Red_Triangle_Chess_1.jpg,Blue_Plus_Grid_3.jpg,left,623.7550000660121,false,low,false
Ij3sLHsk,39tx062qy41yb4nrucnyjag7oeq3xx,3qavnhz3eqh5if3hga4mk8vi0fkalu,Ij3sLHsk,2020-0188,2020-11-17,11:22:18,11:38:09,NA,incomplete,35,number,1,1,right,Green_Plus_Stripes_3.jpg,Purple_Plus_Dots_4.jpg,Red_Circle_Grid_3.jpg,left,630.4700000910088,false,low,false
Ij3sLHsk,39tx062qy41yb4nrucnyjag7oeq3xx,3qavnhz3eqh5if3hga4mk8vi0fkalu,Ij3sLHsk,2020-0188,2020-11-17,11:22:18,11:38:09,NA,incomplete,36,number,1,1,left,Blue_Circle_Chess_1.jpg,Red_Star_Stripes_1.jpg,Green_Circle_Dots_4.jpg,left,596.64000000339,true,low,false
Ij3sLHsk,39tx062qy41yb4nrucnyjag7oeq3xx,3qavnhz3eqh5if3hga4mk8vi0fkalu,Ij3sLHsk,2020-0188,2020-11-17,11:22:18,11:38:09,NA,incomplete,37,number,1,1,right,Blue_Triangle_Chess_1.jpg,Green_Triangle_Dots_2.jpg,Red_Circle_Grid_1.jpg,right,729.4349999865517,true,low,false
Ij3sLHsk,39tx062qy41yb4nrucnyjag7oeq3xx,3qavnhz3eqh5if3hga4mk8vi0fkalu,Ij3sLHsk,2020-0188,2020-11-17,11:22:18,11:38:09,NA,incomplete,38,number,1,1,left,Green_Star_Stripes_4.jpg,Purple_Circle_Chess_4.jpg,Blue_Star_Dots_3.jpg,right,727.225000038743,false,low,false
Ij3sLHsk,39tx062qy41yb4nrucnyjag7oeq3xx,3qavnhz3eqh5if3hga4mk8vi0fkalu,Ij3sLHsk,2020-0188,2020-11-17,11:22:18,11:38:09,NA,incomplete,39,number,1,0,right,Purple_Star_Dots_4.jpg,Blue_Star_Stripes_2.jpg,Green_Circle_Chess_4.jpg,left,502.9899999499321,false,low,false
Ij3sLHsk,39tx062qy41yb4nrucnyjag7oeq3xx,3qavnhz3eqh5if3hga4mk8vi0fkalu,Ij3sLHsk,2020-0188,2020-11-17,11:22:18,11:38:09,NA,incomplete,40,shape,0,0,left,Blue_Triangle_Grid_3.jpg,Green_Triangle_Stripes_4.jpg,Purple_Circle_Chess_3.jpg,left,703.1649999553338,true,low,false
Ij3sLHsk,39tx062qy41yb4nrucnyjag7oeq3xx,3qavnhz3eqh5if3hga4mk8vi0fkalu,Ij3sLHsk,2020-0188,2020-11-17,11:22:18,11:38:09,NA,incomplete,41,shape,0,1,right,Blue_Circle_Dots_1.jpg,Red_Plus_Grid_1.jpg,Green_Circle_Chess_4.jpg,right,837.2350001009181,true,low,false
Ij3sLHsk,39tx062qy41yb4nrucnyjag7oeq3xx,3qavnhz3eqh5if3hga4mk8vi0fkalu,Ij3sLHsk,2020-0188,2020-11-17,11:22:18,11:38:09,NA,incomplete,42,shape,0,1,right,Blue_Star_Grid_4.jpg,Red_Triangle_Stripes_4.jpg,Purple_Star_Dots_1.jpg,right,630.6049999548122,true,low,false
Ij3sLHsk,39tx062qy41yb4nrucnyjag7oeq3xx,3qavnhz3eqh5if3hga4mk8vi0fkalu,Ij3sLHsk,2020-0188,2020-11-17,11:22:18,11:38:09,NA,incomplete,43,shape,0,1,right,Red_Star_Chess_4.jpg,Green_Circle_Stripes_4.jpg,Purple_Star_Grid_1.jpg,right,564.4550001015887,true,low,false
Ij3sLHsk,39tx062qy41yb4nrucnyjag7oeq3xx,3qavnhz3eqh5if3hga4mk8vi0fkalu,Ij3sLHsk,2020-0188,2020-11-17,11:22:18,11:38:09,NA,incomplete,44,shape,0,1,right,Green_Circle_Chess_3.jpg,Red_Plus_Grid_3.jpg,Blue_Circle_Dots_1.jpg,right,582.9300000332296,true,low,false
Ij3sLHsk,39tx062qy41yb4nrucnyjag7oeq3xx,3qavnhz3eqh5if3hga4mk8vi0fkalu,Ij3sLHsk,2020-0188,2020-11-17,11:22:18,11:38:09,NA,incomplete,45,shape,0,1,left,Blue_Triangle_Dots_4.jpg,Purple_Triangle_Stripes_1.jpg,Red_Star_Grid_4.jpg,left,561.6450000088662,true,low,false
Ij3sLHsk,39tx062qy41yb4nrucnyjag7oeq3xx,3qavnhz3eqh5if3hga4mk8vi0fkalu,Ij3sLHsk,2020-0188,2020-11-17,11:22:18,11:38:09,NA,incomplete,46,shape,0,0,right,Green_Triangle_Chess_1.jpg,Red_Star_Dots_1.jpg,Purple_Triangle_Grid_2.jpg,right,503.5999999381602,true,low,false
Ij3sLHsk,39tx062qy41yb4nrucnyjag7oeq3xx,3qavnhz3eqh5if3hga4mk8vi0fkalu,Ij3sLHsk,2020-0188,2020-11-17,11:22:18,11:38:09,NA,incomplete,47,shape,0,1,left,Green_Triangle_Chess_2.jpg,Red_Triangle_Grid_4.jpg,Blue_Star_Stripes_2.jpg,left,540.8799999859184,true,low,false
Ij3sLHsk,39tx062qy41yb4nrucnyjag7oeq3xx,3qavnhz3eqh5if3hga4mk8vi0fkalu,Ij3sLHsk,2020-0188,2020-11-17,11:22:18,11:38:09,NA,incomplete,48,shape,0,1,right,Purple_Plus_Stripes_4.jpg,Green_Circle_Grid_4.jpg,Blue_Plus_Chess_2.jpg,right,489.6699999226257,true,low,false
Ij3sLHsk,39tx062qy41yb4nrucnyjag7oeq3xx,3qavnhz3eqh5if3hga4mk8vi0fkalu,Ij3sLHsk,2020-0188,2020-11-17,11:22:18,11:38:09,NA,incomplete,49,shape,0,1,left,Red_Star_Chess_4.jpg,Green_Star_Grid_2.jpg,Purple_Circle_Stripes_4.jpg,left,479.2599999345839,true,low,false
Ij3sLHsk,39tx062qy41yb4nrucnyjag7oeq3xx,3qavnhz3eqh5if3hga4mk8vi0fkalu,Ij3sLHsk,2020-0188,2020-11-17,11:22:18,11:38:09,NA,incomplete,50,number,1,1,left,Green_Circle_Stripes_4.jpg,Red_Triangle_Chess_4.jpg,Blue_Circle_Dots_3.jpg,right,549.6099999872968,false,low,false
Ij3sLHsk,39tx062qy41yb4nrucnyjag7oeq3xx,3qavnhz3eqh5if3hga4mk8vi0fkalu,Ij3sLHsk,2020-0188,2020-11-17,11:22:18,11:38:09,NA,incomplete,51,number,1,1,right,Purple_Plus_Chess_4.jpg,Blue_Plus_Grid_1.jpg,Red_Star_Dots_4.jpg,left,558.3499999484047,false,low,false
Ij3sLHsk,39tx062qy41yb4nrucnyjag7oeq3xx,3qavnhz3eqh5if3hga4mk8vi0fkalu,Ij3sLHsk,2020-0188,2020-11-17,11:22:18,11:38:09,NA,incomplete,52,number,1,1,left,Blue_Plus_Chess_3.jpg,Green_Triangle_Stripes_3.jpg,Purple_Plus_Grid_4.jpg,right,540.1900000870228,false,low,false
Ij3sLHsk,39tx062qy41yb4nrucnyjag7oeq3xx,3qavnhz3eqh5if3hga4mk8vi0fkalu,Ij3sLHsk,2020-0188,2020-11-17,11:22:18,11:38:09,NA,incomplete,53,number,1,1,left,Blue_Circle_Dots_1.jpg,Purple_Triangle_Grid_1.jpg,Red_Circle_Stripes_3.jpg,left,876.4849998988211,true,low,false
Ij3sLHsk,39tx062qy41yb4nrucnyjag7oeq3xx,3qavnhz3eqh5if3hga4mk8vi0fkalu,Ij3sLHsk,2020-0188,2020-11-17,11:22:18,11:38:09,NA,incomplete,54,number,1,1,right,Purple_Triangle_Chess_4.jpg,Red_Triangle_Stripes_1.jpg,Green_Star_Grid_4.jpg,right,627.9199999989942,true,low,false
Ij3sLHsk,39tx062qy41yb4nrucnyjag7oeq3xx,3qavnhz3eqh5if3hga4mk8vi0fkalu,Ij3sLHsk,2020-0188,2020-11-17,11:22:18,11:38:09,NA,incomplete,55,number,1,1,right,Green_Star_Dots_3.jpg,Blue_Star_Grid_4.jpg,Purple_Circle_Chess_3.jpg,right,653.6500001093373,true,low,false
Ij3sLHsk,39tx062qy41yb4nrucnyjag7oeq3xx,3qavnhz3eqh5if3hga4mk8vi0fkalu,Ij3sLHsk,2020-0188,2020-11-17,11:22:18,11:38:09,NA,incomplete,56,number,1,1,right,Blue_Star_Stripes_3.jpg,Green_Star_Chess_4.jpg,Purple_Plus_Dots_3.jpg,left,751.9199999514967,false,low,false
Ij3sLHsk,39tx062qy41yb4nrucnyjag7oeq3xx,3qavnhz3eqh5if3hga4mk8vi0fkalu,Ij3sLHsk,2020-0188,2020-11-17,11:22:18,11:38:09,NA,incomplete,57,number,1,1,left,Green_Star_Chess_3.jpg,Red_Plus_Grid_3.jpg,Blue_Star_Dots_2.jpg,left,720.4250000650063,true,low,false
Ij3sLHsk,39tx062qy41yb4nrucnyjag7oeq3xx,3qavnhz3eqh5if3hga4mk8vi0fkalu,Ij3sLHsk,2020-0188,2020-11-17,11:22:18,11:38:09,NA,incomplete,58,number,1,1,right,Purple_Plus_Grid_4.jpg,Blue_Plus_Stripes_3.jpg,Green_Triangle_Chess_4.jpg,right,633.2749999128282,true,low,false
Ij3sLHsk,39tx062qy41yb4nrucnyjag7oeq3xx,3qavnhz3eqh5if3hga4mk8vi0fkalu,Ij3sLHsk,2020-0188,2020-11-17,11:22:18,11:38:09,NA,incomplete,59,number,1,1,right,Purple_Star_Grid_2.jpg,Green_Star_Dots_1.jpg,Red_Circle_Stripes_2.jpg,right,649.9049999983981,true,low,false
Ij3sLHsk,39tx062qy41yb4nrucnyjag7oeq3xx,3qavnhz3eqh5if3hga4mk8vi0fkalu,Ij3sLHsk,2020-0188,2020-11-17,11:22:18,11:38:09,NA,incomplete,60,shape,0,0,left,Purple_Triangle_Stripes_4.jpg,Red_Triangle_Grid_2.jpg,Green_Star_Chess_4.jpg,right,599.1649999050424,false,low,false
Ij3sLHsk,39tx062qy41yb4nrucnyjag7oeq3xx,3qavnhz3eqh5if3hga4mk8vi0fkalu,Ij3sLHsk,2020-0188,2020-11-17,11:22:18,11:38:09,NA,incomplete,61,shape,0,1,right,Red_Plus_Grid_3.jpg,Blue_Triangle_Stripes_3.jpg,Purple_Plus_Dots_1.jpg,left,585.6900000944734,false,low,false
Ij3sLHsk,39tx062qy41yb4nrucnyjag7oeq3xx,3qavnhz3eqh5if3hga4mk8vi0fkalu,Ij3sLHsk,2020-0188,2020-11-17,11:22:18,11:38:09,NA,incomplete,62,shape,0,1,right,Blue_Circle_Chess_2.jpg,Purple_Plus_Dots_2.jpg,Green_Circle_Stripes_1.jpg,left,602.4000000907108,false,low,false
Ij3sLHsk,39tx062qy41yb4nrucnyjag7oeq3xx,3qavnhz3eqh5if3hga4mk8vi0fkalu,Ij3sLHsk,2020-0188,2020-11-17,11:22:18,11:38:09,NA,incomplete,63,shape,0,0,left,Green_Triangle_Chess_3.jpg,Blue_Triangle_Dots_2.jpg,Red_Circle_Stripes_3.jpg,right,543.889999971725,false,low,false
Ij3sLHsk,39tx062qy41yb4nrucnyjag7oeq3xx,3qavnhz3eqh5if3hga4mk8vi0fkalu,Ij3sLHsk,2020-0188,2020-11-17,11:22:18,11:38:09,NA,incomplete,64,shape,0,1,right,Green_Plus_Chess_2.jpg,Blue_Circle_Grid_2.jpg,Purple_Plus_Stripes_3.jpg,left,724.7900000074878,false,low,false
Ij3sLHsk,39tx062qy41yb4nrucnyjag7oeq3xx,3qavnhz3eqh5if3hga4mk8vi0fkalu,Ij3sLHsk,2020-0188,2020-11-17,11:22:18,11:38:09,NA,incomplete,65,shape,0,1,left,Red_Star_Dots_1.jpg,Purple_Star_Stripes_4.jpg,Blue_Circle_Grid_1.jpg,right,689.6650000708178,false,low,false
Ij3sLHsk,39tx062qy41yb4nrucnyjag7oeq3xx,3qavnhz3eqh5if3hga4mk8vi0fkalu,Ij3sLHsk,2020-0188,2020-11-17,11:22:18,11:38:09,NA,incomplete,66,shape,0,1,left,Green_Star_Stripes_1.jpg,Red_Star_Dots_3.jpg,Purple_Circle_Chess_1.jpg,right,558.2000000867993,false,low,false
Ij3sLHsk,39tx062qy41yb4nrucnyjag7oeq3xx,3qavnhz3eqh5if3hga4mk8vi0fkalu,Ij3sLHsk,2020-0188,2020-11-17,11:22:18,11:38:09,NA,incomplete,67,shape,0,0,right,Red_Circle_Stripes_3.jpg,Purple_Star_Grid_3.jpg,Blue_Circle_Dots_4.jpg,right,1442.3449999885634,true,low,false
Ij3sLHsk,39tx062qy41yb4nrucnyjag7oeq3xx,3qavnhz3eqh5if3hga4mk8vi0fkalu,Ij3sLHsk,2020-0188,2020-11-17,11:22:18,11:38:09,NA,incomplete,68,shape,0,1,right,Purple_Circle_Dots_4.jpg,Red_Triangle_Stripes_4.jpg,Blue_Circle_Grid_1.jpg,right,736.9999999646097,true,low,false
Ij3sLHsk,39tx062qy41yb4nrucnyjag7oeq3xx,3qavnhz3eqh5if3hga4mk8vi0fkalu,Ij3sLHsk,2020-0188,2020-11-17,11:22:18,11:38:09,NA,incomplete,69,shape,0,0,left,Blue_Circle_Grid_1.jpg,Purple_Circle_Chess_3.jpg,Green_Triangle_Dots_1.jpg,left,764.1099999891594,true,low,false
Ij3sLHsk,39tx062qy41yb4nrucnyjag7oeq3xx,3qavnhz3eqh5if3hga4mk8vi0fkalu,Ij3sLHsk,2020-0188,2020-11-17,11:22:18,11:38:09,NA,incomplete,70,number,1,1,left,Green_Star_Stripes_1.jpg,Red_Triangle_Grid_1.jpg,Blue_Star_Chess_2.jpg,right,620.3450000612065,false,low,false
Ij3sLHsk,39tx062qy41yb4nrucnyjag7oeq3xx,3qavnhz3eqh5if3hga4mk8vi0fkalu,Ij3sLHsk,2020-0188,2020-11-17,11:22:18,11:38:09,NA,incomplete,71,number,1,1,right,Red_Star_Dots_3.jpg,Green_Star_Grid_2.jpg,Purple_Circle_Chess_3.jpg,left,796.7400000197813,false,low,false
Ij3sLHsk,39tx062qy41yb4nrucnyjag7oeq3xx,3qavnhz3eqh5if3hga4mk8vi0fkalu,Ij3sLHsk,2020-0188,2020-11-17,11:22:18,11:38:09,NA,incomplete,72,number,1,0,left,Blue_Circle_Stripes_2.jpg,Red_Triangle_Chess_2.jpg,Purple_Circle_Dots_3.jpg,left,691.3400000194088,true,low,false
Ij3sLHsk,39tx062qy41yb4nrucnyjag7oeq3xx,3qavnhz3eqh5if3hga4mk8vi0fkalu,Ij3sLHsk,2020-0188,2020-11-17,11:22:18,11:38:09,NA,incomplete,73,number,1,1,right,Green_Circle_Chess_3.jpg,Red_Circle_Dots_2.jpg,Blue_Star_Grid_3.jpg,right,727.3749999003485,true,low,false
Ij3sLHsk,39tx062qy41yb4nrucnyjag7oeq3xx,3qavnhz3eqh5if3hga4mk8vi0fkalu,Ij3sLHsk,2020-0188,2020-11-17,11:22:18,11:38:09,NA,incomplete,74,number,1,1,left,Blue_Star_Dots_1.jpg,Purple_Circle_Chess_1.jpg,Red_Star_Stripes_3.jpg,left,620.9900000831112,true,low,false
Ij3sLHsk,39tx062qy41yb4nrucnyjag7oeq3xx,3qavnhz3eqh5if3hga4mk8vi0fkalu,Ij3sLHsk,2020-0188,2020-11-17,11:22:18,11:38:09,NA,incomplete,75,number,1,0,right,Purple_Plus_Chess_2.jpg,Red_Plus_Dots_1.jpg,Green_Star_Grid_2.jpg,right,586.8499999633059,true,low,false
Ij3sLHsk,39tx062qy41yb4nrucnyjag7oeq3xx,3qavnhz3eqh5if3hga4mk8vi0fkalu,Ij3sLHsk,2020-0188,2020-11-17,11:22:18,11:38:09,NA,incomplete,76,number,1,1,right,Purple_Triangle_Dots_3.jpg,Blue_Triangle_Stripes_2.jpg,Red_Circle_Grid_3.jpg,right,664.4100000848994,true,low,false
Ij3sLHsk,39tx062qy41yb4nrucnyjag7oeq3xx,3qavnhz3eqh5if3hga4mk8vi0fkalu,Ij3sLHsk,2020-0188,2020-11-17,11:22:18,11:38:09,NA,incomplete,77,number,1,1,left,Purple_Star_Chess_2.jpg,Red_Circle_Dots_2.jpg,Green_Star_Grid_4.jpg,left,601.4250000007451,true,low,false
Ij3sLHsk,39tx062qy41yb4nrucnyjag7oeq3xx,3qavnhz3eqh5if3hga4mk8vi0fkalu,Ij3sLHsk,2020-0188,2020-11-17,11:22:18,11:38:09,NA,incomplete,78,number,1,1,left,Purple_Plus_Stripes_2.jpg,Red_Circle_Chess_2.jpg,Blue_Plus_Grid_3.jpg,left,670.9150000242516,true,low,false
Ij3sLHsk,39tx062qy41yb4nrucnyjag7oeq3xx,3qavnhz3eqh5if3hga4mk8vi0fkalu,Ij3sLHsk,2020-0188,2020-11-17,11:22:18,11:38:09,NA,incomplete,79,number,1,1,left,Red_Plus_Grid_2.jpg,Blue_Circle_Chess_2.jpg,Purple_Plus_Stripes_4.jpg,left,581.4849999733269,true,low,false
Ij3sLHsk,39tx062qy41yb4nrucnyjag7oeq3xx,3qavnhz3eqh5if3hga4mk8vi0fkalu,Ij3sLHsk,2020-0188,2020-11-17,11:22:18,11:38:09,NA,incomplete,80,shape,0,1,right,Red_Triangle_Stripes_3.jpg,Green_Circle_Chess_3.jpg,Purple_Triangle_Grid_2.jpg,left,881.2749999342486,false,low,false
Ij3sLHsk,39tx062qy41yb4nrucnyjag7oeq3xx,3qavnhz3eqh5if3hga4mk8vi0fkalu,Ij3sLHsk,2020-0188,2020-11-17,11:22:18,11:38:09,NA,incomplete,81,shape,0,1,right,Purple_Plus_Chess_2.jpg,Green_Circle_Dots_2.jpg,Red_Plus_Grid_1.jpg,left,615.5649999855086,false,low,false
Ij3sLHsk,39tx062qy41yb4nrucnyjag7oeq3xx,3qavnhz3eqh5if3hga4mk8vi0fkalu,Ij3sLHsk,2020-0188,2020-11-17,11:22:18,11:38:09,NA,incomplete,82,shape,0,1,right,Purple_Circle_Grid_4.jpg,Blue_Plus_Chess_4.jpg,Red_Circle_Dots_3.jpg,left,648.4049999853596,false,low,false
Ij3sLHsk,39tx062qy41yb4nrucnyjag7oeq3xx,3qavnhz3eqh5if3hga4mk8vi0fkalu,Ij3sLHsk,2020-0188,2020-11-17,11:22:18,11:38:09,NA,incomplete,83,shape,0,1,left,Blue_Star_Grid_4.jpg,Red_Star_Dots_1.jpg,Purple_Circle_Stripes_4.jpg,left,629.6100000618026,true,low,false
Ij3sLHsk,39tx062qy41yb4nrucnyjag7oeq3xx,3qavnhz3eqh5if3hga4mk8vi0fkalu,Ij3sLHsk,2020-0188,2020-11-17,11:22:18,11:38:09,NA,incomplete,84,shape,0,1,left,Green_Triangle_Grid_3.jpg,Blue_Triangle_Chess_1.jpg,Red_Plus_Dots_3.jpg,left,799.2000000085682,true,low,false
Ij3sLHsk,39tx062qy41yb4nrucnyjag7oeq3xx,3qavnhz3eqh5if3hga4mk8vi0fkalu,Ij3sLHsk,2020-0188,2020-11-17,11:22:18,11:38:09,NA,incomplete,85,shape,0,1,right,Green_Triangle_Grid_4.jpg,Purple_Circle_Chess_4.jpg,Blue_Triangle_Stripes_3.jpg,right,690.3450000099838,true,low,false
Ij3sLHsk,39tx062qy41yb4nrucnyjag7oeq3xx,3qavnhz3eqh5if3hga4mk8vi0fkalu,Ij3sLHsk,2020-0188,2020-11-17,11:22:18,11:38:09,NA,incomplete,86,shape,0,1,right,Blue_Plus_Stripes_2.jpg,Red_Triangle_Chess_2.jpg,Purple_Plus_Dots_4.jpg,right,749.9500000849366,true,low,false
Ij3sLHsk,39tx062qy41yb4nrucnyjag7oeq3xx,3qavnhz3eqh5if3hga4mk8vi0fkalu,Ij3sLHsk,2020-0188,2020-11-17,11:22:18,11:38:09,NA,incomplete,87,shape,0,1,right,Green_Plus_Stripes_2.jpg,Purple_Triangle_Chess_2.jpg,Red_Plus_Dots_4.jpg,right,703.6000000080094,true,low,false
Ij3sLHsk,39tx062qy41yb4nrucnyjag7oeq3xx,3qavnhz3eqh5if3hga4mk8vi0fkalu,Ij3sLHsk,2020-0188,2020-11-17,11:22:18,11:38:09,NA,incomplete,88,shape,0,1,left,Red_Plus_Chess_3.jpg,Purple_Plus_Grid_1.jpg,Blue_Triangle_Dots_3.jpg,left,653.844999964349,true,low,false
Ij3sLHsk,39tx062qy41yb4nrucnyjag7oeq3xx,3qavnhz3eqh5if3hga4mk8vi0fkalu,Ij3sLHsk,2020-0188,2020-11-17,11:22:18,11:38:09,NA,incomplete,89,shape,0,1,left,Green_Circle_Grid_1.jpg,Red_Circle_Chess_3.jpg,Blue_Star_Stripes_1.jpg,left,591.2149999057874,true,low,false
Ij3sLHsk,39tx062qy41yb4nrucnyjag7oeq3xx,3qavnhz3eqh5if3hga4mk8vi0fkalu,Ij3sLHsk,2020-0188,2020-11-17,11:22:18,11:38:09,NA,incomplete,90,number,1,1,right,Green_Plus_Chess_3.jpg,Purple_Plus_Dots_4.jpg,Red_Circle_Grid_3.jpg,left,622.3699999973178,false,low,false
Ij3sLHsk,39tx062qy41yb4nrucnyjag7oeq3xx,3qavnhz3eqh5if3hga4mk8vi0fkalu,Ij3sLHsk,2020-0188,2020-11-17,11:22:18,11:38:09,NA,incomplete,91,number,1,1,right,Green_Triangle_Chess_3.jpg,Blue_Triangle_Grid_2.jpg,Red_Circle_Dots_3.jpg,left,670.4449999378994,false,low,false
Ij3sLHsk,39tx062qy41yb4nrucnyjag7oeq3xx,3qavnhz3eqh5if3hga4mk8vi0fkalu,Ij3sLHsk,2020-0188,2020-11-17,11:22:18,11:38:09,NA,incomplete,92,number,1,1,left,Red_Triangle_Chess_2.jpg,Blue_Star_Stripes_2.jpg,Purple_Triangle_Grid_4.jpg,right,584.8750000586733,false,low,false
Ij3sLHsk,39tx062qy41yb4nrucnyjag7oeq3xx,3qavnhz3eqh5if3hga4mk8vi0fkalu,Ij3sLHsk,2020-0188,2020-11-17,11:22:18,11:38:09,NA,incomplete,93,number,1,1,right,Red_Circle_Chess_2.jpg,Green_Circle_Grid_4.jpg,Blue_Plus_Stripes_2.jpg,right,707.8750000800937,true,low,false
Ij3sLHsk,39tx062qy41yb4nrucnyjag7oeq3xx,3qavnhz3eqh5if3hga4mk8vi0fkalu,Ij3sLHsk,2020-0188,2020-11-17,11:22:18,11:38:09,NA,incomplete,94,number,1,1,right,Purple_Star_Chess_2.jpg,Green_Star_Dots_4.jpg,Blue_Circle_Stripes_2.jpg,right,622.484999941662,true,low,false
Ij3sLHsk,39tx062qy41yb4nrucnyjag7oeq3xx,3qavnhz3eqh5if3hga4mk8vi0fkalu,Ij3sLHsk,2020-0188,2020-11-17,11:22:18,11:38:09,NA,incomplete,95,number,1,1,right,Blue_Circle_Chess_3.jpg,Green_Circle_Dots_4.jpg,Red_Triangle_Grid_3.jpg,left,747.3499999614432,false,low,false
Ij3sLHsk,39tx062qy41yb4nrucnyjag7oeq3xx,3qavnhz3eqh5if3hga4mk8vi0fkalu,Ij3sLHsk,2020-0188,2020-11-17,11:22:18,11:38:09,NA,incomplete,96,number,1,1,left,Blue_Plus_Grid_3.jpg,Green_Circle_Stripes_3.jpg,Purple_Plus_Chess_2.jpg,left,957.869999925606,true,low,false
Ij3sLHsk,39tx062qy41yb4nrucnyjag7oeq3xx,3qavnhz3eqh5if3hga4mk8vi0fkalu,Ij3sLHsk,2020-0188,2020-11-17,11:22:18,11:38:09,NA,incomplete,97,number,1,1,right,Purple_Circle_Stripes_1.jpg,Green_Circle_Chess_4.jpg,Blue_Plus_Dots_1.jpg,right,834.569999948144,true,low,false
Ij3sLHsk,39tx062qy41yb4nrucnyjag7oeq3xx,3qavnhz3eqh5if3hga4mk8vi0fkalu,Ij3sLHsk,2020-0188,2020-11-17,11:22:18,11:38:09,NA,incomplete,98,number,1,0,left,Purple_Triangle_Chess_2.jpg,Green_Circle_Dots_2.jpg,Blue_Triangle_Stripes_3.jpg,left,902.5899999542162,true,low,false
Ij3sLHsk,39tx062qy41yb4nrucnyjag7oeq3xx,3qavnhz3eqh5if3hga4mk8vi0fkalu,Ij3sLHsk,2020-0188,2020-11-17,11:22:18,11:38:09,NA,incomplete,99,number,1,1,right,Green_Plus_Chess_1.jpg,Red_Plus_Dots_4.jpg,Blue_Star_Stripes_1.jpg,right,757.9200000036508,true,low,false
Ij3sLHsk,39tx062qy41yb4nrucnyjag7oeq3xx,3qavnhz3eqh5if3hga4mk8vi0fkalu,Ij3sLHsk,2020-0188,2020-11-17,11:22:18,11:38:09,NA,incomplete,100,shape,0,1,right,Green_Circle_Chess_3.jpg,Red_Star_Dots_3.jpg,Purple_Circle_Stripes_2.jpg,left,759.2200000071898,false,low,false
Ij3sLHsk,39tx062qy41yb4nrucnyjag7oeq3xx,3qavnhz3eqh5if3hga4mk8vi0fkalu,Ij3sLHsk,2020-0188,2020-11-17,11:22:18,11:38:09,NA,incomplete,101,shape,0,0,right,Green_Star_Grid_3.jpg,Red_Triangle_Chess_3.jpg,Blue_Star_Dots_1.jpg,left,570.1800000388175,false,low,false
Ij3sLHsk,39tx062qy41yb4nrucnyjag7oeq3xx,3qavnhz3eqh5if3hga4mk8vi0fkalu,Ij3sLHsk,2020-0188,2020-11-17,11:22:18,11:38:09,NA,incomplete,102,shape,0,0,right,Purple_Plus_Stripes_3.jpg,Green_Circle_Dots_3.jpg,Red_Plus_Chess_1.jpg,left,630.4699999745935,false,low,false
Ij3sLHsk,39tx062qy41yb4nrucnyjag7oeq3xx,3qavnhz3eqh5if3hga4mk8vi0fkalu,Ij3sLHsk,2020-0188,2020-11-17,11:22:18,11:38:09,NA,incomplete,103,shape,0,1,right,Purple_Triangle_Stripes_2.jpg,Green_Circle_Chess_2.jpg,Blue_Triangle_Dots_3.jpg,left,738.2150000194088,false,low,false
Ij3sLHsk,39tx062qy41yb4nrucnyjag7oeq3xx,3qavnhz3eqh5if3hga4mk8vi0fkalu,Ij3sLHsk,2020-0188,2020-11-17,11:22:18,11:38:09,NA,incomplete,104,shape,0,1,left,Purple_Triangle_Chess_3.jpg,Green_Triangle_Stripes_1.jpg,Red_Circle_Grid_3.jpg,right,601.6649999655783,false,low,false
Ij3sLHsk,39tx062qy41yb4nrucnyjag7oeq3xx,3qavnhz3eqh5if3hga4mk8vi0fkalu,Ij3sLHsk,2020-0188,2020-11-17,11:22:18,11:38:09,NA,incomplete,105,shape,0,1,right,Blue_Star_Dots_4.jpg,Green_Triangle_Stripes_4.jpg,Purple_Star_Grid_2.jpg,left,620.740000042133,false,low,false
Ij3sLHsk,39tx062qy41yb4nrucnyjag7oeq3xx,3qavnhz3eqh5if3hga4mk8vi0fkalu,Ij3sLHsk,2020-0188,2020-11-17,11:22:18,11:38:09,NA,incomplete,106,shape,0,1,left,Purple_Star_Stripes_3.jpg,Blue_Star_Dots_2.jpg,Red_Plus_Chess_3.jpg,left,556.0250000562519,true,low,false
Ij3sLHsk,39tx062qy41yb4nrucnyjag7oeq3xx,3qavnhz3eqh5if3hga4mk8vi0fkalu,Ij3sLHsk,2020-0188,2020-11-17,11:22:18,11:38:09,NA,incomplete,107,shape,0,1,right,Red_Triangle_Chess_2.jpg,Green_Star_Grid_2.jpg,Purple_Triangle_Stripes_3.jpg,right,637.9850000375882,true,low,false
Ij3sLHsk,39tx062qy41yb4nrucnyjag7oeq3xx,3qavnhz3eqh5if3hga4mk8vi0fkalu,Ij3sLHsk,2020-0188,2020-11-17,11:22:18,11:38:09,NA,incomplete,108,shape,0,1,left,Blue_Plus_Dots_3.jpg,Green_Plus_Stripes_2.jpg,Red_Star_Chess_3.jpg,left,642.1149999368936,true,low,false
Ij3sLHsk,39tx062qy41yb4nrucnyjag7oeq3xx,3qavnhz3eqh5if3hga4mk8vi0fkalu,Ij3sLHsk,2020-0188,2020-11-17,11:22:18,11:38:09,NA,incomplete,109,shape,0,0,left,Green_Triangle_Dots_1.jpg,Red_Triangle_Grid_3.jpg,Blue_Star_Chess_1.jpg,left,577.155000064522,true,low,false
Ij3sLHsk,39tx062qy41yb4nrucnyjag7oeq3xx,3qavnhz3eqh5if3hga4mk8vi0fkalu,Ij3sLHsk,2020-0188,2020-11-17,11:22:18,11:38:09,NA,incomplete,110,number,1,1,left,Green_Triangle_Dots_4.jpg,Red_Circle_Grid_4.jpg,Blue_Triangle_Chess_1.jpg,right,606.8250000244007,false,low,false
Ij3sLHsk,39tx062qy41yb4nrucnyjag7oeq3xx,3qavnhz3eqh5if3hga4mk8vi0fkalu,Ij3sLHsk,2020-0188,2020-11-17,11:22:18,11:38:09,NA,incomplete,111,number,1,1,right,Purple_Circle_Stripes_1.jpg,Red_Circle_Dots_4.jpg,Blue_Plus_Chess_1.jpg,left,672.8100000182167,false,low,false
Ij3sLHsk,39tx062qy41yb4nrucnyjag7oeq3xx,3qavnhz3eqh5if3hga4mk8vi0fkalu,Ij3sLHsk,2020-0188,2020-11-17,11:22:18,11:38:09,NA,incomplete,112,number,1,1,left,Purple_Star_Grid_1.jpg,Blue_Triangle_Chess_1.jpg,Red_Star_Dots_2.jpg,left,633.0049999523908,true,low,false
Ij3sLHsk,39tx062qy41yb4nrucnyjag7oeq3xx,3qavnhz3eqh5if3hga4mk8vi0fkalu,Ij3sLHsk,2020-0188,2020-11-17,11:22:18,11:38:09,NA,incomplete,113,number,1,0,right,Purple_Star_Chess_4.jpg,Blue_Star_Grid_1.jpg,Green_Circle_Stripes_4.jpg,right,648.795000044629,true,low,false
Ij3sLHsk,39tx062qy41yb4nrucnyjag7oeq3xx,3qavnhz3eqh5if3hga4mk8vi0fkalu,Ij3sLHsk,2020-0188,2020-11-17,11:22:18,11:38:09,NA,incomplete,114,number,1,1,left,Purple_Triangle_Stripes_2.jpg,Red_Circle_Dots_2.jpg,Green_Triangle_Chess_1.jpg,left,566.080000018701,true,low,false
Ij3sLHsk,39tx062qy41yb4nrucnyjag7oeq3xx,3qavnhz3eqh5if3hga4mk8vi0fkalu,Ij3sLHsk,2020-0188,2020-11-17,11:22:18,11:38:09,NA,incomplete,115,number,1,1,left,Purple_Plus_Chess_2.jpg,Blue_Circle_Grid_2.jpg,Red_Plus_Stripes_1.jpg,left,592.4300000770018,true,low,false
Ij3sLHsk,39tx062qy41yb4nrucnyjag7oeq3xx,3qavnhz3eqh5if3hga4mk8vi0fkalu,Ij3sLHsk,2020-0188,2020-11-17,11:22:18,11:38:09,NA,incomplete,116,number,1,1,right,Green_Triangle_Grid_4.jpg,Red_Triangle_Stripes_3.jpg,Purple_Plus_Dots_4.jpg,right,614.9149999255314,true,low,false
Ij3sLHsk,39tx062qy41yb4nrucnyjag7oeq3xx,3qavnhz3eqh5if3hga4mk8vi0fkalu,Ij3sLHsk,2020-0188,2020-11-17,11:22:18,11:38:09,NA,incomplete,117,number,1,1,right,Red_Triangle_Stripes_3.jpg,Blue_Triangle_Grid_2.jpg,Purple_Circle_Dots_3.jpg,right,591.8349999701604,true,low,false
Ij3sLHsk,39tx062qy41yb4nrucnyjag7oeq3xx,3qavnhz3eqh5if3hga4mk8vi0fkalu,Ij3sLHsk,2020-0188,2020-11-17,11:22:18,11:38:09,NA,incomplete,118,number,1,0,left,Purple_Star_Grid_2.jpg,Red_Circle_Stripes_2.jpg,Green_Star_Chess_3.jpg,left,609.1599999926984,true,low,false
Ij3sLHsk,39tx062qy41yb4nrucnyjag7oeq3xx,3qavnhz3eqh5if3hga4mk8vi0fkalu,Ij3sLHsk,2020-0188,2020-11-17,11:22:18,11:38:09,NA,incomplete,119,number,1,1,left,Red_Plus_Grid_1.jpg,Purple_Circle_Chess_1.jpg,Green_Plus_Dots_4.jpg,left,578.499999945052,true,low,false
Ij3sLHsk,39tx062qy41yb4nrucnyjag7oeq3xx,3qavnhz3eqh5if3hga4mk8vi0fkalu,Ij3sLHsk,2020-0188,2020-11-17,11:22:18,11:38:09,NA,incomplete,120,race,2,1,right,A_F_06.jpg,C_F_07.jpg,A_M_10.jpg,NA,NA,NA,low,false
Ij3sLHsk,39tx062qy41yb4nrucnyjag7oeq3xx,3qavnhz3eqh5if3hga4mk8vi0fkalu,Ij3sLHsk,2020-0188,2020-11-17,11:22:18,11:38:09,NA,incomplete,121,race,2,1,right,C_F_10.jpg,A_F_13.jpg,C_M_15.jpg,right,1484.180000028573,true,low,false
Ij3sLHsk,39tx062qy41yb4nrucnyjag7oeq3xx,3qavnhz3eqh5if3hga4mk8vi0fkalu,Ij3sLHsk,2020-0188,2020-11-17,11:22:18,11:38:09,NA,incomplete,122,race,2,1,right,C_F_06.jpg,A_F_12.jpg,C_M_02.jpg,right,850.4549999488518,true,low,false
Ij3sLHsk,39tx062qy41yb4nrucnyjag7oeq3xx,3qavnhz3eqh5if3hga4mk8vi0fkalu,Ij3sLHsk,2020-0188,2020-11-17,11:22:18,11:38:09,NA,incomplete,123,race,2,0,right,C_M_13.jpg,A_M_14.jpg,C_F_08.jpg,right,1023.3149999985471,true,low,false
Ij3sLHsk,39tx062qy41yb4nrucnyjag7oeq3xx,3qavnhz3eqh5if3hga4mk8vi0fkalu,Ij3sLHsk,2020-0188,2020-11-17,11:22:18,11:38:09,NA,incomplete,124,race,2,1,left,C_M_10.jpg,C_F_12.jpg,A_M_04.jpg,left,894.6100000757724,true,low,false
Ij3sLHsk,39tx062qy41yb4nrucnyjag7oeq3xx,3qavnhz3eqh5if3hga4mk8vi0fkalu,Ij3sLHsk,2020-0188,2020-11-17,11:22:18,11:38:09,NA,incomplete,125,race,2,1,left,A_F_02.jpg,A_M_11.jpg,C_F_04.jpg,left,1057.9600000055507,true,low,false
Ij3sLHsk,39tx062qy41yb4nrucnyjag7oeq3xx,3qavnhz3eqh5if3hga4mk8vi0fkalu,Ij3sLHsk,2020-0188,2020-11-17,11:22:18,11:38:09,NA,incomplete,126,race,2,1,left,C_M_14.jpg,C_F_11.jpg,A_M_08.jpg,left,1150.480000069365,true,low,false
Ij3sLHsk,39tx062qy41yb4nrucnyjag7oeq3xx,3qavnhz3eqh5if3hga4mk8vi0fkalu,Ij3sLHsk,2020-0188,2020-11-17,11:22:18,11:38:09,NA,incomplete,127,race,2,1,left,A_F_05.jpg,A_M_11.jpg,C_F_08.jpg,left,1232.2250000433996,true,low,false
Ij3sLHsk,39tx062qy41yb4nrucnyjag7oeq3xx,3qavnhz3eqh5if3hga4mk8vi0fkalu,Ij3sLHsk,2020-0188,2020-11-17,11:22:18,11:38:09,NA,incomplete,128,race,2,1,left,A_F_14.jpg,A_M_06.jpg,C_F_09.jpg,left,1564.4999999785796,true,low,false
Ij3sLHsk,39tx062qy41yb4nrucnyjag7oeq3xx,3qavnhz3eqh5if3hga4mk8vi0fkalu,Ij3sLHsk,2020-0188,2020-11-17,11:22:18,11:38:09,NA,incomplete,129,race,2,1,right,C_F_12.jpg,A_F_06.jpg,C_M_10.jpg,right,959.9600000074133,true,low,false
Ij3sLHsk,39tx062qy41yb4nrucnyjag7oeq3xx,3qavnhz3eqh5if3hga4mk8vi0fkalu,Ij3sLHsk,2020-0188,2020-11-17,11:22:18,11:38:09,NA,incomplete,130,race,2,1,left,C_M_09.jpg,C_F_02.jpg,A_M_12.jpg,left,1080.5000000400469,true,low,false
Ij3sLHsk,39tx062qy41yb4nrucnyjag7oeq3xx,3qavnhz3eqh5if3hga4mk8vi0fkalu,Ij3sLHsk,2020-0188,2020-11-17,11:22:18,11:38:09,NA,incomplete,131,race,2,1,left,C_F_08.jpg,C_M_03.jpg,A_F_10.jpg,left,1051.0550000471994,true,low,false
Ij3sLHsk,39tx062qy41yb4nrucnyjag7oeq3xx,3qavnhz3eqh5if3hga4mk8vi0fkalu,Ij3sLHsk,2020-0188,2020-11-17,11:22:18,11:38:09,NA,incomplete,132,race,2,1,left,A_F_04.jpg,A_M_08.jpg,C_F_11.jpg,left,1089.8299999535084,true,low,false
Ij3sLHsk,39tx062qy41yb4nrucnyjag7oeq3xx,3qavnhz3eqh5if3hga4mk8vi0fkalu,Ij3sLHsk,2020-0188,2020-11-17,11:22:18,11:38:09,NA,incomplete,133,race,2,1,right,A_F_10.jpg,C_F_03.jpg,A_M_09.jpg,right,975.2149999840185,true,low,false
Ij3sLHsk,39tx062qy41yb4nrucnyjag7oeq3xx,3qavnhz3eqh5if3hga4mk8vi0fkalu,Ij3sLHsk,2020-0188,2020-11-17,11:22:18,11:38:09,NA,incomplete,134,race,2,1,right,A_F_05.jpg,C_F_06.jpg,A_M_15.jpg,right,768.030000035651,true,low,false
Ij3sLHsk,39tx062qy41yb4nrucnyjag7oeq3xx,3qavnhz3eqh5if3hga4mk8vi0fkalu,Ij3sLHsk,2020-0188,2020-11-17,11:22:18,11:38:09,NA,incomplete,135,race,2,0,left,A_F_06.jpg,A_M_11.jpg,C_F_07.jpg,left,729.6349999960512,true,low,false
Ij3sLHsk,39tx062qy41yb4nrucnyjag7oeq3xx,3qavnhz3eqh5if3hga4mk8vi0fkalu,Ij3sLHsk,2020-0188,2020-11-17,11:22:18,11:38:09,NA,incomplete,136,race,2,1,left,A_F_16.jpg,A_M_02.jpg,C_F_07.jpg,left,900.4199999617413,true,low,false
Ij3sLHsk,39tx062qy41yb4nrucnyjag7oeq3xx,3qavnhz3eqh5if3hga4mk8vi0fkalu,Ij3sLHsk,2020-0188,2020-11-17,11:22:18,11:38:09,NA,incomplete,137,race,2,0,left,C_M_07.jpg,C_F_14.jpg,A_M_03.jpg,left,913.9150000410154,true,low,false
Ij3sLHsk,39tx062qy41yb4nrucnyjag7oeq3xx,3qavnhz3eqh5if3hga4mk8vi0fkalu,Ij3sLHsk,2020-0188,2020-11-17,11:22:18,11:38:09,NA,incomplete,138,race,2,1,left,A_F_14.jpg,A_M_12.jpg,C_F_10.jpg,left,901.1349999345839,true,low,false
Ij3sLHsk,39tx062qy41yb4nrucnyjag7oeq3xx,3qavnhz3eqh5if3hga4mk8vi0fkalu,Ij3sLHsk,2020-0188,2020-11-17,11:22:18,11:38:09,NA,incomplete,139,race,2,1,right,A_F_04.jpg,C_F_08.jpg,A_M_05.jpg,right,852.3199999472126,true,low,false
Ij3sLHsk,39tx062qy41yb4nrucnyjag7oeq3xx,3qavnhz3eqh5if3hga4mk8vi0fkalu,Ij3sLHsk,2020-0188,2020-11-17,11:22:18,11:38:09,NA,incomplete,140,gender,3,1,right,C_F_01.jpg,C_M_10.jpg,A_F_12.jpg,left,1098.4199999365956,false,low,false
Ij3sLHsk,39tx062qy41yb4nrucnyjag7oeq3xx,3qavnhz3eqh5if3hga4mk8vi0fkalu,Ij3sLHsk,2020-0188,2020-11-17,11:22:18,11:38:09,NA,incomplete,141,gender,3,1,right,C_F_13.jpg,C_M_08.jpg,A_F_03.jpg,left,1084.6099999034777,false,low,false
Ij3sLHsk,39tx062qy41yb4nrucnyjag7oeq3xx,3qavnhz3eqh5if3hga4mk8vi0fkalu,Ij3sLHsk,2020-0188,2020-11-17,11:22:18,11:38:09,NA,incomplete,142,gender,3,1,left,C_F_09.jpg,A_F_05.jpg,C_M_16.jpg,right,888.9150000177324,false,low,false
Ij3sLHsk,39tx062qy41yb4nrucnyjag7oeq3xx,3qavnhz3eqh5if3hga4mk8vi0fkalu,Ij3sLHsk,2020-0188,2020-11-17,11:22:18,11:38:09,NA,incomplete,143,gender,3,0,left,A_F_07.jpg,C_F_13.jpg,A_M_10.jpg,left,659.4200000399724,true,low,false
Ij3sLHsk,39tx062qy41yb4nrucnyjag7oeq3xx,3qavnhz3eqh5if3hga4mk8vi0fkalu,Ij3sLHsk,2020-0188,2020-11-17,11:22:18,11:38:09,NA,incomplete,144,gender,3,1,right,A_F_13.jpg,A_M_06.jpg,C_F_01.jpg,right,1005.9950000140816,true,low,false
Ij3sLHsk,39tx062qy41yb4nrucnyjag7oeq3xx,3qavnhz3eqh5if3hga4mk8vi0fkalu,Ij3sLHsk,2020-0188,2020-11-17,11:22:18,11:38:09,NA,incomplete,145,gender,3,1,left,C_F_16.jpg,A_F_07.jpg,C_M_09.jpg,left,742.2449999721721,true,low,false
Ij3sLHsk,39tx062qy41yb4nrucnyjag7oeq3xx,3qavnhz3eqh5if3hga4mk8vi0fkalu,Ij3sLHsk,2020-0188,2020-11-17,11:22:18,11:38:09,NA,incomplete,146,gender,3,0,left,A_M_11.jpg,C_M_05.jpg,A_F_13.jpg,left,754.6100000618026,true,low,false
Ij3sLHsk,39tx062qy41yb4nrucnyjag7oeq3xx,3qavnhz3eqh5if3hga4mk8vi0fkalu,Ij3sLHsk,2020-0188,2020-11-17,11:22:18,11:38:09,NA,incomplete,147,gender,3,1,right,A_M_08.jpg,A_F_03.jpg,C_M_12.jpg,right,801.2100000632927,true,low,false
Ij3sLHsk,39tx062qy41yb4nrucnyjag7oeq3xx,3qavnhz3eqh5if3hga4mk8vi0fkalu,Ij3sLHsk,2020-0188,2020-11-17,11:22:18,11:38:09,NA,incomplete,148,gender,3,1,left,C_F_16.jpg,A_F_14.jpg,C_M_15.jpg,left,839.0949999447912,true,low,false
Ij3sLHsk,39tx062qy41yb4nrucnyjag7oeq3xx,3qavnhz3eqh5if3hga4mk8vi0fkalu,Ij3sLHsk,2020-0188,2020-11-17,11:22:18,11:38:09,NA,incomplete,149,gender,3,1,right,A_F_02.jpg,A_M_13.jpg,C_F_16.jpg,right,756.4450000645593,true,low,false
Ij3sLHsk,39tx062qy41yb4nrucnyjag7oeq3xx,3qavnhz3eqh5if3hga4mk8vi0fkalu,Ij3sLHsk,2020-0188,2020-11-17,11:22:18,11:38:09,NA,incomplete,150,gender,3,1,right,C_M_14.jpg,C_F_04.jpg,A_M_10.jpg,right,1108.5899999598041,true,low,false
Ij3sLHsk,39tx062qy41yb4nrucnyjag7oeq3xx,3qavnhz3eqh5if3hga4mk8vi0fkalu,Ij3sLHsk,2020-0188,2020-11-17,11:22:18,11:38:09,NA,incomplete,151,gender,3,0,right,C_F_09.jpg,C_M_16.jpg,A_F_12.jpg,right,1019.994999980554,true,low,false
Ij3sLHsk,39tx062qy41yb4nrucnyjag7oeq3xx,3qavnhz3eqh5if3hga4mk8vi0fkalu,Ij3sLHsk,2020-0188,2020-11-17,11:22:18,11:38:09,NA,incomplete,152,gender,3,1,left,A_M_10.jpg,C_M_02.jpg,A_F_07.jpg,left,713.8500000583008,true,low,false
Ij3sLHsk,39tx062qy41yb4nrucnyjag7oeq3xx,3qavnhz3eqh5if3hga4mk8vi0fkalu,Ij3sLHsk,2020-0188,2020-11-17,11:22:18,11:38:09,NA,incomplete,153,gender,3,1,left,C_M_05.jpg,A_M_11.jpg,C_F_13.jpg,left,723.9699999336153,true,low,false
Ij3sLHsk,39tx062qy41yb4nrucnyjag7oeq3xx,3qavnhz3eqh5if3hga4mk8vi0fkalu,Ij3sLHsk,2020-0188,2020-11-17,11:22:18,11:38:09,NA,incomplete,154,gender,3,1,left,C_M_06.jpg,A_M_13.jpg,C_F_02.jpg,left,894.5150000508875,true,low,false
Ij3sLHsk,39tx062qy41yb4nrucnyjag7oeq3xx,3qavnhz3eqh5if3hga4mk8vi0fkalu,Ij3sLHsk,2020-0188,2020-11-17,11:22:18,11:38:09,NA,incomplete,155,gender,3,0,left,A_M_12.jpg,C_M_01.jpg,A_F_03.jpg,left,899.6099999640137,true,low,false
Ij3sLHsk,39tx062qy41yb4nrucnyjag7oeq3xx,3qavnhz3eqh5if3hga4mk8vi0fkalu,Ij3sLHsk,2020-0188,2020-11-17,11:22:18,11:38:09,NA,incomplete,156,gender,3,1,right,C_M_11.jpg,C_F_04.jpg,A_M_03.jpg,right,680.5150000145659,true,low,false
Ij3sLHsk,39tx062qy41yb4nrucnyjag7oeq3xx,3qavnhz3eqh5if3hga4mk8vi0fkalu,Ij3sLHsk,2020-0188,2020-11-17,11:22:18,11:38:09,NA,incomplete,157,gender,3,1,left,C_F_02.jpg,A_F_05.jpg,C_M_10.jpg,left,793.1300000054762,true,low,false
Ij3sLHsk,39tx062qy41yb4nrucnyjag7oeq3xx,3qavnhz3eqh5if3hga4mk8vi0fkalu,Ij3sLHsk,2020-0188,2020-11-17,11:22:18,11:38:09,NA,incomplete,158,gender,3,1,left,A_F_04.jpg,C_F_14.jpg,A_M_01.jpg,left,719.4300000555813,true,low,false
Ij3sLHsk,39tx062qy41yb4nrucnyjag7oeq3xx,3qavnhz3eqh5if3hga4mk8vi0fkalu,Ij3sLHsk,2020-0188,2020-11-17,11:22:18,11:38:09,NA,incomplete,159,gender,3,1,left,A_M_14.jpg,C_M_07.jpg,A_F_02.jpg,left,726.2249999912456,true,low,false
Ij3sLHsk,39tx062qy41yb4nrucnyjag7oeq3xx,3qavnhz3eqh5if3hga4mk8vi0fkalu,Ij3sLHsk,2020-0188,2020-11-17,11:22:18,11:38:09,NA,incomplete,160,race,2,1,right,A_M_06.jpg,C_M_16.jpg,A_F_13.jpg,left,718.8499999465421,false,low,false
Ij3sLHsk,39tx062qy41yb4nrucnyjag7oeq3xx,3qavnhz3eqh5if3hga4mk8vi0fkalu,Ij3sLHsk,2020-0188,2020-11-17,11:22:18,11:38:09,NA,incomplete,161,race,2,1,right,C_F_09.jpg,A_F_02.jpg,C_M_07.jpg,left,584.6550000132993,false,low,false
Ij3sLHsk,39tx062qy41yb4nrucnyjag7oeq3xx,3qavnhz3eqh5if3hga4mk8vi0fkalu,Ij3sLHsk,2020-0188,2020-11-17,11:22:18,11:38:09,NA,incomplete,162,race,2,0,left,A_F_03.jpg,A_M_10.jpg,C_F_02.jpg,right,588.2299999939278,false,low,false
Ij3sLHsk,39tx062qy41yb4nrucnyjag7oeq3xx,3qavnhz3eqh5if3hga4mk8vi0fkalu,Ij3sLHsk,2020-0188,2020-11-17,11:22:18,11:38:09,NA,incomplete,163,race,2,1,left,C_M_03.jpg,C_F_08.jpg,A_M_15.jpg,right,686.8000000249594,false,low,false
Ij3sLHsk,39tx062qy41yb4nrucnyjag7oeq3xx,3qavnhz3eqh5if3hga4mk8vi0fkalu,Ij3sLHsk,2020-0188,2020-11-17,11:22:18,11:38:09,NA,incomplete,164,race,2,1,left,A_M_13.jpg,A_F_04.jpg,C_M_15.jpg,right,817.8099999204278,false,low,false
Ij3sLHsk,39tx062qy41yb4nrucnyjag7oeq3xx,3qavnhz3eqh5if3hga4mk8vi0fkalu,Ij3sLHsk,2020-0188,2020-11-17,11:22:18,11:38:09,NA,incomplete,165,race,2,1,right,C_M_07.jpg,A_M_03.jpg,C_F_13.jpg,left,719.6399999083951,false,low,false
Ij3sLHsk,39tx062qy41yb4nrucnyjag7oeq3xx,3qavnhz3eqh5if3hga4mk8vi0fkalu,Ij3sLHsk,2020-0188,2020-11-17,11:22:18,11:38:09,NA,incomplete,166,race,2,1,left,C_F_14.jpg,C_M_01.jpg,A_F_02.jpg,left,863.4599999058992,true,low,false
Ij3sLHsk,39tx062qy41yb4nrucnyjag7oeq3xx,3qavnhz3eqh5if3hga4mk8vi0fkalu,Ij3sLHsk,2020-0188,2020-11-17,11:22:18,11:38:09,NA,incomplete,167,race,2,0,right,A_M_08.jpg,C_M_09.jpg,A_F_01.jpg,right,642.1299999346957,true,low,false
Ij3sLHsk,39tx062qy41yb4nrucnyjag7oeq3xx,3qavnhz3eqh5if3hga4mk8vi0fkalu,Ij3sLHsk,2020-0188,2020-11-17,11:22:18,11:38:09,NA,incomplete,168,race,2,1,right,A_F_07.jpg,C_F_05.jpg,A_M_01.jpg,right,1018.8099999213591,true,low,false
Ij3sLHsk,39tx062qy41yb4nrucnyjag7oeq3xx,3qavnhz3eqh5if3hga4mk8vi0fkalu,Ij3sLHsk,2020-0188,2020-11-17,11:22:18,11:38:09,NA,incomplete,169,race,2,0,right,A_F_09.jpg,C_F_11.jpg,A_M_04.jpg,right,894.5300000486895,true,low,false
Ij3sLHsk,39tx062qy41yb4nrucnyjag7oeq3xx,3qavnhz3eqh5if3hga4mk8vi0fkalu,Ij3sLHsk,2020-0188,2020-11-17,11:22:18,11:38:09,NA,incomplete,170,race,2,1,right,C_F_01.jpg,A_F_05.jpg,C_M_10.jpg,right,898.4250000212342,true,low,false
Ij3sLHsk,39tx062qy41yb4nrucnyjag7oeq3xx,3qavnhz3eqh5if3hga4mk8vi0fkalu,Ij3sLHsk,2020-0188,2020-11-17,11:22:18,11:38:09,NA,incomplete,171,race,2,0,left,A_M_14.jpg,A_F_09.jpg,C_M_05.jpg,left,787.4200000660494,true,low,false
Ij3sLHsk,39tx062qy41yb4nrucnyjag7oeq3xx,3qavnhz3eqh5if3hga4mk8vi0fkalu,Ij3sLHsk,2020-0188,2020-11-17,11:22:18,11:38:09,NA,incomplete,172,race,2,1,right,C_F_07.jpg,A_F_02.jpg,C_M_03.jpg,left,1356.995000038296,false,low,false
Ij3sLHsk,39tx062qy41yb4nrucnyjag7oeq3xx,3qavnhz3eqh5if3hga4mk8vi0fkalu,Ij3sLHsk,2020-0188,2020-11-17,11:22:18,11:38:09,NA,incomplete,173,race,2,1,left,C_F_07.jpg,C_M_03.jpg,A_F_02.jpg,left,930.7600000174716,true,low,false
Ij3sLHsk,39tx062qy41yb4nrucnyjag7oeq3xx,3qavnhz3eqh5if3hga4mk8vi0fkalu,Ij3sLHsk,2020-0188,2020-11-17,11:22:18,11:38:09,NA,incomplete,174,race,2,0,right,C_F_09.jpg,A_F_13.jpg,C_M_05.jpg,right,846.4200000744313,true,low,false
Ij3sLHsk,39tx062qy41yb4nrucnyjag7oeq3xx,3qavnhz3eqh5if3hga4mk8vi0fkalu,Ij3sLHsk,2020-0188,2020-11-17,11:22:18,11:38:09,NA,incomplete,175,race,2,1,right,C_M_09.jpg,A_M_08.jpg,C_F_14.jpg,right,818.570000003092,true,low,false
Ij3sLHsk,39tx062qy41yb4nrucnyjag7oeq3xx,3qavnhz3eqh5if3hga4mk8vi0fkalu,Ij3sLHsk,2020-0188,2020-11-17,11:22:18,11:38:09,NA,incomplete,176,race,2,1,left,A_F_12.jpg,A_M_01.jpg,C_F_02.jpg,left,1112.2350000077859,true,low,false
Ij3sLHsk,39tx062qy41yb4nrucnyjag7oeq3xx,3qavnhz3eqh5if3hga4mk8vi0fkalu,Ij3sLHsk,2020-0188,2020-11-17,11:22:18,11:38:09,NA,incomplete,177,race,2,1,right,C_F_04.jpg,A_F_11.jpg,C_M_10.jpg,right,804.8999999882653,true,low,false
Ij3sLHsk,39tx062qy41yb4nrucnyjag7oeq3xx,3qavnhz3eqh5if3hga4mk8vi0fkalu,Ij3sLHsk,2020-0188,2020-11-17,11:22:18,11:38:09,NA,incomplete,178,race,2,0,left,A_M_10.jpg,A_F_08.jpg,C_M_13.jpg,left,950.8950000163168,true,low,false
Ij3sLHsk,39tx062qy41yb4nrucnyjag7oeq3xx,3qavnhz3eqh5if3hga4mk8vi0fkalu,Ij3sLHsk,2020-0188,2020-11-17,11:22:18,11:38:09,NA,incomplete,179,race,2,1,right,A_M_07.jpg,C_M_11.jpg,A_F_15.jpg,right,755.0650000339374,true,low,false
Ij3sLHsk,39tx062qy41yb4nrucnyjag7oeq3xx,3qavnhz3eqh5if3hga4mk8vi0fkalu,Ij3sLHsk,2020-0188,2020-11-17,11:22:18,11:38:09,NA,incomplete,180,gender,3,0,right,C_F_15.jpg,C_M_05.jpg,A_F_12.jpg,left,882.7399999136105,false,low,false
Ij3sLHsk,39tx062qy41yb4nrucnyjag7oeq3xx,3qavnhz3eqh5if3hga4mk8vi0fkalu,Ij3sLHsk,2020-0188,2020-11-17,11:22:18,11:38:09,NA,incomplete,181,gender,3,1,left,A_F_10.jpg,C_F_03.jpg,A_M_04.jpg,right,666.1900000181049,false,low,false
Ij3sLHsk,39tx062qy41yb4nrucnyjag7oeq3xx,3qavnhz3eqh5if3hga4mk8vi0fkalu,Ij3sLHsk,2020-0188,2020-11-17,11:22:18,11:38:09,NA,incomplete,182,gender,3,0,right,C_F_08.jpg,C_M_11.jpg,A_F_01.jpg,left,945.3550000907853,false,low,false
Ij3sLHsk,39tx062qy41yb4nrucnyjag7oeq3xx,3qavnhz3eqh5if3hga4mk8vi0fkalu,Ij3sLHsk,2020-0188,2020-11-17,11:22:18,11:38:09,NA,incomplete,183,gender,3,1,left,C_M_06.jpg,A_M_02.jpg,C_F_11.jpg,right,798.3999999705702,false,low,false
Ij3sLHsk,39tx062qy41yb4nrucnyjag7oeq3xx,3qavnhz3eqh5if3hga4mk8vi0fkalu,Ij3sLHsk,2020-0188,2020-11-17,11:22:18,11:38:09,NA,incomplete,184,gender,3,0,left,C_M_13.jpg,A_M_14.jpg,C_F_15.jpg,right,825.745000038296,false,low,false
Ij3sLHsk,39tx062qy41yb4nrucnyjag7oeq3xx,3qavnhz3eqh5if3hga4mk8vi0fkalu,Ij3sLHsk,2020-0188,2020-11-17,11:22:18,11:38:09,NA,incomplete,185,gender,3,1,left,A_F_06.jpg,C_F_05.jpg,A_M_11.jpg,right,750.6000000284985,false,low,false
Ij3sLHsk,39tx062qy41yb4nrucnyjag7oeq3xx,3qavnhz3eqh5if3hga4mk8vi0fkalu,Ij3sLHsk,2020-0188,2020-11-17,11:22:18,11:38:09,NA,incomplete,186,gender,3,1,right,C_M_05.jpg,C_F_10.jpg,A_M_12.jpg,left,927.5500000221655,false,low,false
Ij3sLHsk,39tx062qy41yb4nrucnyjag7oeq3xx,3qavnhz3eqh5if3hga4mk8vi0fkalu,Ij3sLHsk,2020-0188,2020-11-17,11:22:18,11:38:09,NA,incomplete,187,gender,3,1,right,A_F_02.jpg,A_M_09.jpg,C_F_13.jpg,left,620.6849999725819,false,low,false
Ij3sLHsk,39tx062qy41yb4nrucnyjag7oeq3xx,3qavnhz3eqh5if3hga4mk8vi0fkalu,Ij3sLHsk,2020-0188,2020-11-17,11:22:18,11:38:09,NA,incomplete,188,gender,3,1,right,A_M_08.jpg,A_F_03.jpg,C_M_15.jpg,right,718.0149999912828,true,low,false
Ij3sLHsk,39tx062qy41yb4nrucnyjag7oeq3xx,3qavnhz3eqh5if3hga4mk8vi0fkalu,Ij3sLHsk,2020-0188,2020-11-17,11:22:18,11:38:09,NA,incomplete,189,gender,3,0,right,A_F_09.jpg,A_M_14.jpg,C_F_04.jpg,right,889.0399999218062,true,low,false
Ij3sLHsk,39tx062qy41yb4nrucnyjag7oeq3xx,3qavnhz3eqh5if3hga4mk8vi0fkalu,Ij3sLHsk,2020-0188,2020-11-17,11:22:18,11:38:09,NA,incomplete,190,gender,3,1,right,A_M_08.jpg,A_F_11.jpg,C_M_07.jpg,right,783.750000060536,true,low,false
Ij3sLHsk,39tx062qy41yb4nrucnyjag7oeq3xx,3qavnhz3eqh5if3hga4mk8vi0fkalu,Ij3sLHsk,2020-0188,2020-11-17,11:22:18,11:38:09,NA,incomplete,191,gender,3,1,left,C_M_16.jpg,A_M_02.jpg,C_F_01.jpg,left,827.4800000945106,true,low,false
Ij3sLHsk,39tx062qy41yb4nrucnyjag7oeq3xx,3qavnhz3eqh5if3hga4mk8vi0fkalu,Ij3sLHsk,2020-0188,2020-11-17,11:22:18,11:38:09,NA,incomplete,192,gender,3,1,right,C_F_02.jpg,C_M_12.jpg,A_F_01.jpg,right,644.6549999527633,true,low,false
Ij3sLHsk,39tx062qy41yb4nrucnyjag7oeq3xx,3qavnhz3eqh5if3hga4mk8vi0fkalu,Ij3sLHsk,2020-0188,2020-11-17,11:22:18,11:38:09,NA,incomplete,193,gender,3,1,left,A_F_07.jpg,C_F_13.jpg,A_M_12.jpg,left,634.1300000203773,true,low,false
Ij3sLHsk,39tx062qy41yb4nrucnyjag7oeq3xx,3qavnhz3eqh5if3hga4mk8vi0fkalu,Ij3sLHsk,2020-0188,2020-11-17,11:22:18,11:38:09,NA,incomplete,194,gender,3,1,right,C_F_10.jpg,C_M_03.jpg,A_F_12.jpg,right,651.2600000714883,true,low,false
Ij3sLHsk,39tx062qy41yb4nrucnyjag7oeq3xx,3qavnhz3eqh5if3hga4mk8vi0fkalu,Ij3sLHsk,2020-0188,2020-11-17,11:22:18,11:38:09,NA,incomplete,195,gender,3,1,right,A_M_16.jpg,A_F_14.jpg,C_M_10.jpg,right,798.7199999624863,true,low,false
Ij3sLHsk,39tx062qy41yb4nrucnyjag7oeq3xx,3qavnhz3eqh5if3hga4mk8vi0fkalu,Ij3sLHsk,2020-0188,2020-11-17,11:22:18,11:38:09,NA,incomplete,196,gender,3,1,left,C_F_15.jpg,A_F_02.jpg,C_M_04.jpg,left,733.7250000564381,true,low,false
Ij3sLHsk,39tx062qy41yb4nrucnyjag7oeq3xx,3qavnhz3eqh5if3hga4mk8vi0fkalu,Ij3sLHsk,2020-0188,2020-11-17,11:22:18,11:38:09,NA,incomplete,197,gender,3,1,left,A_M_12.jpg,C_M_05.jpg,A_F_04.jpg,left,672.9200000409037,true,low,false
Ij3sLHsk,39tx062qy41yb4nrucnyjag7oeq3xx,3qavnhz3eqh5if3hga4mk8vi0fkalu,Ij3sLHsk,2020-0188,2020-11-17,11:22:18,11:38:09,NA,incomplete,198,gender,3,1,right,A_F_03.jpg,A_M_13.jpg,C_F_11.jpg,right,560.1350000360981,true,low,false
Ij3sLHsk,39tx062qy41yb4nrucnyjag7oeq3xx,3qavnhz3eqh5if3hga4mk8vi0fkalu,Ij3sLHsk,2020-0188,2020-11-17,11:22:18,11:38:09,NA,incomplete,199,gender,3,1,right,C_F_02.jpg,C_M_07.jpg,A_F_12.jpg,right,624.7800000710413,true,low,false
Ij3sLHsk,39tx062qy41yb4nrucnyjag7oeq3xx,3qavnhz3eqh5if3hga4mk8vi0fkalu,Ij3sLHsk,2020-0188,2020-11-17,11:22:18,11:38:09,NA,incomplete,200,race,2,1,right,C_F_04.jpg,A_F_16.jpg,C_M_13.jpg,left,594.3599999882281,false,low,false
Ij3sLHsk,39tx062qy41yb4nrucnyjag7oeq3xx,3qavnhz3eqh5if3hga4mk8vi0fkalu,Ij3sLHsk,2020-0188,2020-11-17,11:22:18,11:38:09,NA,incomplete,201,race,2,1,left,A_F_15.jpg,A_M_01.jpg,C_F_03.jpg,right,612.7850000048056,false,low,false
Ij3sLHsk,39tx062qy41yb4nrucnyjag7oeq3xx,3qavnhz3eqh5if3hga4mk8vi0fkalu,Ij3sLHsk,2020-0188,2020-11-17,11:22:18,11:38:09,NA,incomplete,202,race,2,1,right,A_F_06.jpg,C_F_16.jpg,A_M_01.jpg,left,687.3599999817088,false,low,false
Ij3sLHsk,39tx062qy41yb4nrucnyjag7oeq3xx,3qavnhz3eqh5if3hga4mk8vi0fkalu,Ij3sLHsk,2020-0188,2020-11-17,11:22:18,11:38:09,NA,incomplete,203,race,2,1,left,C_M_07.jpg,C_F_08.jpg,A_M_04.jpg,left,890.0999999605119,true,low,false
Ij3sLHsk,39tx062qy41yb4nrucnyjag7oeq3xx,3qavnhz3eqh5if3hga4mk8vi0fkalu,Ij3sLHsk,2020-0188,2020-11-17,11:22:18,11:38:09,NA,incomplete,204,race,2,0,right,A_M_15.jpg,C_M_02.jpg,A_F_07.jpg,right,970.8749999990687,true,low,false
Ij3sLHsk,39tx062qy41yb4nrucnyjag7oeq3xx,3qavnhz3eqh5if3hga4mk8vi0fkalu,Ij3sLHsk,2020-0188,2020-11-17,11:22:18,11:38:09,NA,incomplete,205,race,2,1,right,C_F_05.jpg,A_F_06.jpg,C_M_02.jpg,right,869.8849999345839,true,low,false
Ij3sLHsk,39tx062qy41yb4nrucnyjag7oeq3xx,3qavnhz3eqh5if3hga4mk8vi0fkalu,Ij3sLHsk,2020-0188,2020-11-17,11:22:18,11:38:09,NA,incomplete,206,race,2,0,left,A_M_05.jpg,A_F_16.jpg,C_M_07.jpg,left,848.4549999702722,true,low,false
Ij3sLHsk,39tx062qy41yb4nrucnyjag7oeq3xx,3qavnhz3eqh5if3hga4mk8vi0fkalu,Ij3sLHsk,2020-0188,2020-11-17,11:22:18,11:38:09,NA,incomplete,207,race,2,1,right,C_M_16.jpg,A_M_13.jpg,C_F_07.jpg,right,1003.000000026077,true,low,false
Ij3sLHsk,39tx062qy41yb4nrucnyjag7oeq3xx,3qavnhz3eqh5if3hga4mk8vi0fkalu,Ij3sLHsk,2020-0188,2020-11-17,11:22:18,11:38:09,NA,incomplete,208,race,2,1,right,C_F_14.jpg,A_F_15.jpg,C_M_11.jpg,right,979.9699999857694,true,low,false
Ij3sLHsk,39tx062qy41yb4nrucnyjag7oeq3xx,3qavnhz3eqh5if3hga4mk8vi0fkalu,Ij3sLHsk,2020-0188,2020-11-17,11:22:18,11:38:09,NA,incomplete,209,race,2,1,right,A_M_10.jpg,C_M_09.jpg,A_F_06.jpg,right,805.4750000592321,true,low,false
Ij3sLHsk,39tx062qy41yb4nrucnyjag7oeq3xx,3qavnhz3eqh5if3hga4mk8vi0fkalu,Ij3sLHsk,2020-0188,2020-11-17,11:22:18,11:38:09,NA,incomplete,210,race,2,1,right,A_F_04.jpg,C_F_06.jpg,A_M_07.jpg,right,896.8549999408424,true,low,false
Ij3sLHsk,39tx062qy41yb4nrucnyjag7oeq3xx,3qavnhz3eqh5if3hga4mk8vi0fkalu,Ij3sLHsk,2020-0188,2020-11-17,11:22:18,11:38:09,NA,incomplete,211,race,2,1,left,C_F_01.jpg,C_M_05.jpg,A_F_06.jpg,left,800.9849999798462,true,low,false
Ij3sLHsk,39tx062qy41yb4nrucnyjag7oeq3xx,3qavnhz3eqh5if3hga4mk8vi0fkalu,Ij3sLHsk,2020-0188,2020-11-17,11:22:18,11:38:09,NA,incomplete,212,race,2,1,left,A_M_12.jpg,A_F_01.jpg,C_M_02.jpg,left,838.7149999616668,true,low,false
Ij3sLHsk,39tx062qy41yb4nrucnyjag7oeq3xx,3qavnhz3eqh5if3hga4mk8vi0fkalu,Ij3sLHsk,2020-0188,2020-11-17,11:22:18,11:38:09,NA,incomplete,213,race,2,1,left,A_F_04.jpg,A_M_08.jpg,C_F_06.jpg,left,724.3149999994785,true,low,false
Ij3sLHsk,39tx062qy41yb4nrucnyjag7oeq3xx,3qavnhz3eqh5if3hga4mk8vi0fkalu,Ij3sLHsk,2020-0188,2020-11-17,11:22:18,11:38:09,NA,incomplete,214,race,2,0,right,C_M_15.jpg,A_M_12.jpg,C_F_05.jpg,right,899.0299999713898,true,low,false
Ij3sLHsk,39tx062qy41yb4nrucnyjag7oeq3xx,3qavnhz3eqh5if3hga4mk8vi0fkalu,Ij3sLHsk,2020-0188,2020-11-17,11:22:18,11:38:09,NA,incomplete,215,race,2,1,left,A_F_06.jpg,A_M_14.jpg,C_F_09.jpg,left,876.2499999720603,true,low,false
Ij3sLHsk,39tx062qy41yb4nrucnyjag7oeq3xx,3qavnhz3eqh5if3hga4mk8vi0fkalu,Ij3sLHsk,2020-0188,2020-11-17,11:22:18,11:38:09,NA,incomplete,216,race,2,1,left,A_F_09.jpg,A_M_04.jpg,C_F_06.jpg,left,1056.734999991022,true,low,false
Ij3sLHsk,39tx062qy41yb4nrucnyjag7oeq3xx,3qavnhz3eqh5if3hga4mk8vi0fkalu,Ij3sLHsk,2020-0188,2020-11-17,11:22:18,11:38:09,NA,incomplete,217,race,2,0,right,A_F_09.jpg,C_F_12.jpg,A_M_06.jpg,right,822.4649999756366,true,low,false
Ij3sLHsk,39tx062qy41yb4nrucnyjag7oeq3xx,3qavnhz3eqh5if3hga4mk8vi0fkalu,Ij3sLHsk,2020-0188,2020-11-17,11:22:18,11:38:09,NA,incomplete,218,race,2,1,left,A_F_11.jpg,A_M_10.jpg,C_F_03.jpg,left,792.6399999996647,true,low,false
Ij3sLHsk,39tx062qy41yb4nrucnyjag7oeq3xx,3qavnhz3eqh5if3hga4mk8vi0fkalu,Ij3sLHsk,2020-0188,2020-11-17,11:22:18,11:38:09,NA,incomplete,219,race,2,1,right,A_F_11.jpg,C_F_15.jpg,A_M_04.jpg,right,618.6800000723451,true,low,false
Ij3sLHsk,39tx062qy41yb4nrucnyjag7oeq3xx,3qavnhz3eqh5if3hga4mk8vi0fkalu,Ij3sLHsk,2020-0188,2020-11-17,11:22:18,11:38:09,NA,incomplete,220,gender,3,1,left,A_M_01.jpg,C_M_10.jpg,A_F_03.jpg,right,616.7249999707565,false,low,false
Ij3sLHsk,39tx062qy41yb4nrucnyjag7oeq3xx,3qavnhz3eqh5if3hga4mk8vi0fkalu,Ij3sLHsk,2020-0188,2020-11-17,11:22:18,11:38:09,NA,incomplete,221,gender,3,1,right,A_M_14.jpg,A_F_16.jpg,C_M_07.jpg,left,763.024999992922,false,low,false
Ij3sLHsk,39tx062qy41yb4nrucnyjag7oeq3xx,3qavnhz3eqh5if3hga4mk8vi0fkalu,Ij3sLHsk,2020-0188,2020-11-17,11:22:18,11:38:09,NA,incomplete,222,gender,3,1,right,A_F_08.jpg,A_M_09.jpg,C_F_01.jpg,left,692.9950000485405,false,low,false
Ij3sLHsk,39tx062qy41yb4nrucnyjag7oeq3xx,3qavnhz3eqh5if3hga4mk8vi0fkalu,Ij3sLHsk,2020-0188,2020-11-17,11:22:18,11:38:09,NA,incomplete,223,gender,3,1,right,A_F_10.jpg,A_M_08.jpg,C_F_03.jpg,right,664.3799999728799,true,low,false
Ij3sLHsk,39tx062qy41yb4nrucnyjag7oeq3xx,3qavnhz3eqh5if3hga4mk8vi0fkalu,Ij3sLHsk,2020-0188,2020-11-17,11:22:18,11:38:09,NA,incomplete,224,gender,3,1,right,C_M_02.jpg,C_F_10.jpg,A_M_03.jpg,right,842.8350000176579,true,low,false
Ij3sLHsk,39tx062qy41yb4nrucnyjag7oeq3xx,3qavnhz3eqh5if3hga4mk8vi0fkalu,Ij3sLHsk,2020-0188,2020-11-17,11:22:18,11:38:09,NA,incomplete,225,gender,3,0,left,C_M_08.jpg,A_M_05.jpg,C_F_04.jpg,left,610.344999935478,true,low,false
Ij3sLHsk,39tx062qy41yb4nrucnyjag7oeq3xx,3qavnhz3eqh5if3hga4mk8vi0fkalu,Ij3sLHsk,2020-0188,2020-11-17,11:22:18,11:38:09,NA,incomplete,226,gender,3,1,left,C_M_07.jpg,A_M_09.jpg,C_F_10.jpg,left,697.3500000312924,true,low,false
Ij3sLHsk,39tx062qy41yb4nrucnyjag7oeq3xx,3qavnhz3eqh5if3hga4mk8vi0fkalu,Ij3sLHsk,2020-0188,2020-11-17,11:22:18,11:38:09,NA,incomplete,227,gender,3,1,left,A_M_16.jpg,C_M_14.jpg,A_F_07.jpg,left,797.9050000431016,true,low,false
Ij3sLHsk,39tx062qy41yb4nrucnyjag7oeq3xx,3qavnhz3eqh5if3hga4mk8vi0fkalu,Ij3sLHsk,2020-0188,2020-11-17,11:22:18,11:38:09,NA,incomplete,228,gender,3,0,left,C_F_10.jpg,A_F_08.jpg,C_M_03.jpg,left,819.385000038892,true,low,false
Ij3sLHsk,39tx062qy41yb4nrucnyjag7oeq3xx,3qavnhz3eqh5if3hga4mk8vi0fkalu,Ij3sLHsk,2020-0188,2020-11-17,11:22:18,11:38:09,NA,incomplete,229,gender,3,1,right,A_M_03.jpg,A_F_14.jpg,C_M_04.jpg,right,622.2800000105053,true,low,false
Ij3sLHsk,39tx062qy41yb4nrucnyjag7oeq3xx,3qavnhz3eqh5if3hga4mk8vi0fkalu,Ij3sLHsk,2020-0188,2020-11-17,11:22:18,11:38:09,NA,incomplete,230,gender,3,0,left,C_F_08.jpg,A_F_02.jpg,C_M_15.jpg,left,573.7599999411032,true,low,false
Ij3sLHsk,39tx062qy41yb4nrucnyjag7oeq3xx,3qavnhz3eqh5if3hga4mk8vi0fkalu,Ij3sLHsk,2020-0188,2020-11-17,11:22:18,11:38:09,NA,incomplete,231,gender,3,1,left,C_M_14.jpg,A_M_15.jpg,C_F_05.jpg,right,848.8000000361353,false,low,false
Ij3sLHsk,39tx062qy41yb4nrucnyjag7oeq3xx,3qavnhz3eqh5if3hga4mk8vi0fkalu,Ij3sLHsk,2020-0188,2020-11-17,11:22:18,11:38:09,NA,incomplete,232,gender,3,1,left,C_F_13.jpg,A_F_05.jpg,C_M_01.jpg,left,903.1950000207871,true,low,false
Ij3sLHsk,39tx062qy41yb4nrucnyjag7oeq3xx,3qavnhz3eqh5if3hga4mk8vi0fkalu,Ij3sLHsk,2020-0188,2020-11-17,11:22:18,11:38:09,NA,incomplete,233,gender,3,1,left,A_F_07.jpg,C_F_16.jpg,A_M_13.jpg,left,654.0200000163168,true,low,false
Ij3sLHsk,39tx062qy41yb4nrucnyjag7oeq3xx,3qavnhz3eqh5if3hga4mk8vi0fkalu,Ij3sLHsk,2020-0188,2020-11-17,11:22:18,11:38:09,NA,incomplete,234,gender,3,1,right,A_F_15.jpg,A_M_01.jpg,C_F_04.jpg,right,955.4850000422448,true,low,false
Ij3sLHsk,39tx062qy41yb4nrucnyjag7oeq3xx,3qavnhz3eqh5if3hga4mk8vi0fkalu,Ij3sLHsk,2020-0188,2020-11-17,11:22:18,11:38:09,NA,incomplete,235,gender,3,1,left,C_F_15.jpg,A_F_09.jpg,C_M_04.jpg,left,642.8150000283495,true,low,false
Ij3sLHsk,39tx062qy41yb4nrucnyjag7oeq3xx,3qavnhz3eqh5if3hga4mk8vi0fkalu,Ij3sLHsk,2020-0188,2020-11-17,11:22:18,11:38:09,NA,incomplete,236,gender,3,1,right,A_F_12.jpg,A_M_08.jpg,C_F_13.jpg,right,615.845000022091,true,low,false
Ij3sLHsk,39tx062qy41yb4nrucnyjag7oeq3xx,3qavnhz3eqh5if3hga4mk8vi0fkalu,Ij3sLHsk,2020-0188,2020-11-17,11:22:18,11:38:09,NA,incomplete,237,gender,3,1,left,C_F_02.jpg,A_F_11.jpg,C_M_04.jpg,left,776.7949999542907,true,low,false
Ij3sLHsk,39tx062qy41yb4nrucnyjag7oeq3xx,3qavnhz3eqh5if3hga4mk8vi0fkalu,Ij3sLHsk,2020-0188,2020-11-17,11:22:18,11:38:09,NA,incomplete,238,gender,3,1,left,A_F_01.jpg,C_F_04.jpg,A_M_08.jpg,left,638.9600000111386,true,low,false
Ij3sLHsk,39tx062qy41yb4nrucnyjag7oeq3xx,3qavnhz3eqh5if3hga4mk8vi0fkalu,Ij3sLHsk,2020-0188,2020-11-17,11:22:18,11:38:09,NA,incomplete,239,gender,3,1,left,A_M_09.jpg,C_M_10.jpg,A_F_16.jpg,left,533.9949999470264,true,low,false
Ij3sLHsk,39tx062qy41yb4nrucnyjag7oeq3xx,3qavnhz3eqh5if3hga4mk8vi0fkalu,Ij3sLHsk,2020-0188,2020-11-17,11:22:18,11:38:09,NA,NA,instruction example,shape,NA,NA,NA,Red_Plus_Chess_2.jpg,Blue_Plus_Dots_1.jpg,Green_Triangle_Stripes_2.jpg,NA,NA,NA,NA,undefined
Ij3sLHsk,39tx062qy41yb4nrucnyjag7oeq3xx,3qavnhz3eqh5if3hga4mk8vi0fkalu,Ij3sLHsk,2020-0188,2020-11-17,11:22:18,11:38:09,NA,NA,instruction example,shape,NA,NA,NA,Green_Plus_Stripes_3.jpg,Blue_Circle_Chess_3.jpg,Red_Plus_Grid_4.jpg,NA,NA,NA,NA,undefined
Ij3sLHsk,39tx062qy41yb4nrucnyjag7oeq3xx,3qavnhz3eqh5if3hga4mk8vi0fkalu,Ij3sLHsk,2020-0188,2020-11-17,11:22:18,11:38:09,NA,NA,instruction example,shape,NA,NA,NA,C_M_11.jpg,C_F_02.jpg,A_M_14.jpg,NA,NA,NA,NA,undefined
Ij3sLHsk,39tx062qy41yb4nrucnyjag7oeq3xx,3qavnhz3eqh5if3hga4mk8vi0fkalu,Ij3sLHsk,2020-0188,2020-11-17,11:22:18,11:38:09,NA,NA,instruction example,shape,NA,NA,NA,C_F_11.jpg,A_F_01.jpg,C_M_05.jpg,NA,NA,NA,NA,undefined
