workerId,hitId,assignmentId,subject,studyid,exp_date,exp_start,exp_end,time_start,time_end,trial,type,sequence,reward_validity,answer,image_top,image_left,image_right,response,response_time,response_acc,volatility,age,race,gender,ethnicity,color,vision,neuro,practice
341wNRlk,39tx062qy41yb4nrucnyjag7oeq3xx,3quo65dnqy1x39kcz715cqb62qqoug,341wNRlk,2020-0188,2020-11-17,18:40:02,18:57:57,NA,incomplete,0,color,0,1,left,Red_Circle_Dots_4.jpg,Red_Triangle_Chess_2.jpg,Green_Plus_Grid_4.jpg,left,1653.0800000182353,true,NA,NA,NA,NA,NA,NA,NA,NA,true
341wNRlk,39tx062qy41yb4nrucnyjag7oeq3xx,3quo65dnqy1x39kcz715cqb62qqoug,341wNRlk,2020-0188,2020-11-17,18:40:02,18:57:57,NA,incomplete,1,color,0,0,right,Purple_Circle_Chess_4.jpg,Blue_Plus_Grid_4.jpg,Purple_Triangle_Stripes_3.jpg,right,1107.094999984838,true,NA,NA,NA,NA,NA,NA,NA,NA,true
341wNRlk,39tx062qy41yb4nrucnyjag7oeq3xx,3quo65dnqy1x39kcz715cqb62qqoug,341wNRlk,2020-0188,2020-11-17,18:40:02,18:57:57,NA,incomplete,2,color,0,1,left,Red_Triangle_Chess_2.jpg,Red_Plus_Stripes_3.jpg,Green_Circle_Dots_2.jpg,left,1039.229999994859,true,NA,NA,NA,NA,NA,NA,NA,NA,true
341wNRlk,39tx062qy41yb4nrucnyjag7oeq3xx,3quo65dnqy1x39kcz715cqb62qqoug,341wNRlk,2020-0188,2020-11-17,18:40:02,18:57:57,NA,incomplete,3,color,0,1,right,Red_Triangle_Chess_2.jpg,Green_Star_Stripes_2.jpg,Red_Plus_Grid_3.jpg,right,993.274999957066,true,NA,NA,NA,NA,NA,NA,NA,NA,true
341wNRlk,39tx062qy41yb4nrucnyjag7oeq3xx,3quo65dnqy1x39kcz715cqb62qqoug,341wNRlk,2020-0188,2020-11-17,18:40:02,18:57:57,NA,incomplete,4,color,0,1,left,Blue_Triangle_Grid_4.jpg,Blue_Plus_Dots_1.jpg,Green_Star_Chess_4.jpg,left,1454.1500000050291,true,NA,NA,NA,NA,NA,NA,NA,NA,true
341wNRlk,39tx062qy41yb4nrucnyjag7oeq3xx,3quo65dnqy1x39kcz715cqb62qqoug,341wNRlk,2020-0188,2020-11-17,18:40:02,18:57:57,NA,incomplete,5,color,0,1,right,Red_Circle_Dots_1.jpg,Blue_Triangle_Grid_1.jpg,Red_Plus_Stripes_4.jpg,right,967.4750000122003,true,NA,NA,NA,NA,NA,NA,NA,NA,true
341wNRlk,39tx062qy41yb4nrucnyjag7oeq3xx,3quo65dnqy1x39kcz715cqb62qqoug,341wNRlk,2020-0188,2020-11-17,18:40:02,18:57:57,NA,incomplete,6,color,0,1,left,Green_Triangle_Stripes_1.jpg,Green_Plus_Chess_3.jpg,Purple_Star_Dots_1.jpg,left,886.8299999739975,true,NA,NA,NA,NA,NA,NA,NA,NA,true
341wNRlk,39tx062qy41yb4nrucnyjag7oeq3xx,3quo65dnqy1x39kcz715cqb62qqoug,341wNRlk,2020-0188,2020-11-17,18:40:02,18:57:57,NA,incomplete,7,color,0,1,left,Blue_Triangle_Stripes_1.jpg,Blue_Plus_Chess_2.jpg,Green_Star_Dots_1.jpg,left,846.4750000275671,true,NA,NA,NA,NA,NA,NA,NA,NA,true
341wNRlk,39tx062qy41yb4nrucnyjag7oeq3xx,3quo65dnqy1x39kcz715cqb62qqoug,341wNRlk,2020-0188,2020-11-17,18:40:02,18:57:57,NA,incomplete,8,color,0,1,left,Green_Star_Stripes_2.jpg,Green_Triangle_Chess_1.jpg,Red_Plus_Dots_2.jpg,left,849.4150000042282,true,NA,NA,NA,NA,NA,NA,NA,NA,true
341wNRlk,39tx062qy41yb4nrucnyjag7oeq3xx,3quo65dnqy1x39kcz715cqb62qqoug,341wNRlk,2020-0188,2020-11-17,18:40:02,18:57:57,NA,incomplete,9,color,0,0,right,Blue_Circle_Chess_3.jpg,Red_Star_Stripes_3.jpg,Blue_Plus_Dots_2.jpg,right,780.1650000037625,true,NA,NA,NA,NA,NA,NA,NA,NA,true
341wNRlk,39tx062qy41yb4nrucnyjag7oeq3xx,3quo65dnqy1x39kcz715cqb62qqoug,341wNRlk,2020-0188,2020-11-17,18:40:02,18:57:57,NA,incomplete,10,color,0,1,right,Purple_Star_Dots_4.jpg,Green_Circle_Grid_4.jpg,Purple_Triangle_Stripes_3.jpg,right,850.2999999909662,true,NA,NA,NA,NA,NA,NA,NA,NA,true
341wNRlk,39tx062qy41yb4nrucnyjag7oeq3xx,3quo65dnqy1x39kcz715cqb62qqoug,341wNRlk,2020-0188,2020-11-17,18:40:02,18:57:57,NA,incomplete,11,color,0,1,right,Blue_Triangle_Stripes_1.jpg,Purple_Star_Chess_1.jpg,Blue_Plus_Dots_3.jpg,right,789.3049999838695,true,NA,NA,NA,NA,NA,NA,NA,NA,true
341wNRlk,39tx062qy41yb4nrucnyjag7oeq3xx,3quo65dnqy1x39kcz715cqb62qqoug,341wNRlk,2020-0188,2020-11-17,18:40:02,18:57:57,NA,incomplete,12,color,0,0,left,Blue_Star_Stripes_3.jpg,Blue_Circle_Chess_2.jpg,Green_Plus_Grid_3.jpg,left,841.3600000203587,true,NA,NA,NA,NA,NA,NA,NA,NA,true
341wNRlk,39tx062qy41yb4nrucnyjag7oeq3xx,3quo65dnqy1x39kcz715cqb62qqoug,341wNRlk,2020-0188,2020-11-17,18:40:02,18:57:57,NA,incomplete,13,color,0,1,right,Blue_Star_Chess_2.jpg,Red_Triangle_Grid_2.jpg,Blue_Circle_Stripes_1.jpg,right,955.8950000209734,true,NA,NA,NA,NA,NA,NA,NA,NA,true
341wNRlk,39tx062qy41yb4nrucnyjag7oeq3xx,3quo65dnqy1x39kcz715cqb62qqoug,341wNRlk,2020-0188,2020-11-17,18:40:02,18:57:57,NA,incomplete,14,color,0,1,left,Purple_Circle_Grid_4.jpg,Purple_Star_Chess_3.jpg,Green_Triangle_Dots_4.jpg,left,795.2550000045449,true,NA,NA,NA,NA,NA,NA,NA,NA,true
341wNRlk,39tx062qy41yb4nrucnyjag7oeq3xx,3quo65dnqy1x39kcz715cqb62qqoug,341wNRlk,2020-0188,2020-11-17,18:40:02,18:57:57,NA,incomplete,15,color,0,1,right,Red_Circle_Grid_4.jpg,Blue_Plus_Dots_4.jpg,Red_Triangle_Chess_1.jpg,right,743.784999998752,true,NA,NA,NA,NA,NA,NA,NA,NA,true
341wNRlk,39tx062qy41yb4nrucnyjag7oeq3xx,3quo65dnqy1x39kcz715cqb62qqoug,341wNRlk,2020-0188,2020-11-17,18:40:02,18:57:57,NA,incomplete,16,color,0,1,left,Green_Plus_Dots_2.jpg,Green_Star_Chess_4.jpg,Purple_Triangle_Grid_2.jpg,left,943.8649999792688,true,NA,NA,NA,NA,NA,NA,NA,NA,true
341wNRlk,39tx062qy41yb4nrucnyjag7oeq3xx,3quo65dnqy1x39kcz715cqb62qqoug,341wNRlk,2020-0188,2020-11-17,18:40:02,18:57:57,NA,incomplete,17,color,0,1,right,Blue_Triangle_Grid_1.jpg,Purple_Plus_Stripes_1.jpg,Blue_Star_Chess_3.jpg,right,1037.5800000037998,true,NA,NA,NA,NA,NA,NA,NA,NA,true
341wNRlk,39tx062qy41yb4nrucnyjag7oeq3xx,3quo65dnqy1x39kcz715cqb62qqoug,341wNRlk,2020-0188,2020-11-17,18:40:02,18:57:57,NA,incomplete,18,color,0,1,right,Green_Triangle_Dots_2.jpg,Red_Star_Grid_2.jpg,Green_Plus_Chess_4.jpg,right,871.9699999783188,true,NA,NA,NA,NA,NA,NA,NA,NA,true
341wNRlk,39tx062qy41yb4nrucnyjag7oeq3xx,3quo65dnqy1x39kcz715cqb62qqoug,341wNRlk,2020-0188,2020-11-17,18:40:02,18:57:57,NA,incomplete,19,color,0,1,right,Red_Star_Chess_3.jpg,Blue_Plus_Dots_3.jpg,Red_Triangle_Grid_4.jpg,right,1202.149999968242,true,NA,NA,NA,NA,NA,NA,NA,NA,true
341wNRlk,39tx062qy41yb4nrucnyjag7oeq3xx,3quo65dnqy1x39kcz715cqb62qqoug,341wNRlk,2020-0188,2020-11-17,18:40:02,18:57:57,NA,incomplete,20,number,1,1,right,Red_Triangle_Stripes_3.jpg,Red_Circle_Grid_2.jpg,Green_Star_Chess_3.jpg,right,1311.3649999722838,true,NA,NA,NA,NA,NA,NA,NA,NA,true
341wNRlk,39tx062qy41yb4nrucnyjag7oeq3xx,3quo65dnqy1x39kcz715cqb62qqoug,341wNRlk,2020-0188,2020-11-17,18:40:02,18:57:57,NA,incomplete,21,number,1,0,left,Purple_Circle_Chess_1.jpg,Red_Star_Stripes_1.jpg,Purple_Triangle_Grid_2.jpg,left,1038.5200000018813,true,NA,NA,NA,NA,NA,NA,NA,NA,true
341wNRlk,39tx062qy41yb4nrucnyjag7oeq3xx,3quo65dnqy1x39kcz715cqb62qqoug,341wNRlk,2020-0188,2020-11-17,18:40:02,18:57:57,NA,incomplete,22,number,1,1,left,Blue_Plus_Chess_1.jpg,Green_Star_Dots_1.jpg,Blue_Circle_Grid_2.jpg,left,953.2599999802187,true,NA,NA,NA,NA,NA,NA,NA,NA,true
341wNRlk,39tx062qy41yb4nrucnyjag7oeq3xx,3quo65dnqy1x39kcz715cqb62qqoug,341wNRlk,2020-0188,2020-11-17,18:40:02,18:57:57,NA,incomplete,23,number,1,0,left,Blue_Circle_Grid_1.jpg,Purple_Triangle_Stripes_1.jpg,Blue_Plus_Dots_4.jpg,left,799.2400000221096,true,NA,NA,NA,NA,NA,NA,NA,NA,true
341wNRlk,39tx062qy41yb4nrucnyjag7oeq3xx,3quo65dnqy1x39kcz715cqb62qqoug,341wNRlk,2020-0188,2020-11-17,18:40:02,18:57:57,NA,incomplete,24,number,1,1,right,Green_Triangle_Grid_3.jpg,Green_Circle_Chess_4.jpg,Red_Plus_Stripes_3.jpg,right,964.9799999897368,true,NA,NA,NA,NA,NA,NA,NA,NA,true
341wNRlk,39tx062qy41yb4nrucnyjag7oeq3xx,3quo65dnqy1x39kcz715cqb62qqoug,341wNRlk,2020-0188,2020-11-17,18:40:02,18:57:57,NA,incomplete,25,number,1,1,left,Blue_Plus_Chess_4.jpg,Red_Circle_Dots_4.jpg,Blue_Star_Stripes_2.jpg,left,931.5850000130013,true,NA,NA,NA,NA,NA,NA,NA,NA,true
341wNRlk,39tx062qy41yb4nrucnyjag7oeq3xx,3quo65dnqy1x39kcz715cqb62qqoug,341wNRlk,2020-0188,2020-11-17,18:40:02,18:57:57,NA,incomplete,26,number,1,1,left,Green_Plus_Chess_4.jpg,Red_Circle_Grid_4.jpg,Green_Triangle_Stripes_3.jpg,left,1153.8450000225566,true,NA,NA,NA,NA,NA,NA,NA,NA,true
341wNRlk,39tx062qy41yb4nrucnyjag7oeq3xx,3quo65dnqy1x39kcz715cqb62qqoug,341wNRlk,2020-0188,2020-11-17,18:40:02,18:57:57,NA,incomplete,27,number,1,1,right,Green_Star_Chess_2.jpg,Green_Triangle_Grid_1.jpg,Blue_Circle_Dots_2.jpg,right,911.7349999723956,true,NA,NA,NA,NA,NA,NA,NA,NA,true
341wNRlk,39tx062qy41yb4nrucnyjag7oeq3xx,3quo65dnqy1x39kcz715cqb62qqoug,341wNRlk,2020-0188,2020-11-17,18:40:02,18:57:57,NA,incomplete,28,number,1,1,left,Red_Triangle_Stripes_3.jpg,Purple_Star_Grid_3.jpg,Red_Plus_Dots_2.jpg,left,1049.1449999972247,true,NA,NA,NA,NA,NA,NA,NA,NA,true
341wNRlk,39tx062qy41yb4nrucnyjag7oeq3xx,3quo65dnqy1x39kcz715cqb62qqoug,341wNRlk,2020-0188,2020-11-17,18:40:02,18:57:57,NA,incomplete,29,number,1,1,left,Red_Circle_Grid_1.jpg,Purple_Plus_Chess_1.jpg,Red_Star_Dots_3.jpg,left,1405.1999999792315,true,NA,NA,NA,NA,NA,NA,NA,NA,true
341wNRlk,39tx062qy41yb4nrucnyjag7oeq3xx,3quo65dnqy1x39kcz715cqb62qqoug,341wNRlk,2020-0188,2020-11-17,18:40:02,18:57:57,NA,incomplete,30,number,1,0,right,Red_Star_Grid_4.jpg,Red_Plus_Stripes_1.jpg,Green_Triangle_Dots_4.jpg,right,976.1600000201724,true,NA,NA,NA,NA,NA,NA,NA,NA,true
341wNRlk,39tx062qy41yb4nrucnyjag7oeq3xx,3quo65dnqy1x39kcz715cqb62qqoug,341wNRlk,2020-0188,2020-11-17,18:40:02,18:57:57,NA,incomplete,31,number,1,1,left,Red_Triangle_Chess_4.jpg,Green_Circle_Grid_4.jpg,Red_Plus_Stripes_2.jpg,left,820.4799999948591,true,NA,NA,NA,NA,NA,NA,NA,NA,true
341wNRlk,39tx062qy41yb4nrucnyjag7oeq3xx,3quo65dnqy1x39kcz715cqb62qqoug,341wNRlk,2020-0188,2020-11-17,18:40:02,18:57:57,NA,incomplete,32,number,1,0,right,Blue_Plus_Stripes_1.jpg,Blue_Circle_Dots_4.jpg,Green_Star_Chess_1.jpg,right,833.9999999734573,true,NA,NA,NA,NA,NA,NA,NA,NA,true
341wNRlk,39tx062qy41yb4nrucnyjag7oeq3xx,3quo65dnqy1x39kcz715cqb62qqoug,341wNRlk,2020-0188,2020-11-17,18:40:02,18:57:57,NA,incomplete,33,number,1,1,right,Green_Circle_Stripes_1.jpg,Green_Triangle_Dots_3.jpg,Red_Star_Grid_1.jpg,right,909.1250000055879,true,NA,NA,NA,NA,NA,NA,NA,NA,true
341wNRlk,39tx062qy41yb4nrucnyjag7oeq3xx,3quo65dnqy1x39kcz715cqb62qqoug,341wNRlk,2020-0188,2020-11-17,18:40:02,18:57:57,NA,incomplete,34,number,1,1,right,Blue_Plus_Grid_2.jpg,Blue_Triangle_Dots_4.jpg,Green_Star_Chess_2.jpg,right,926.2500000186265,true,NA,NA,NA,NA,NA,NA,NA,NA,true
341wNRlk,39tx062qy41yb4nrucnyjag7oeq3xx,3quo65dnqy1x39kcz715cqb62qqoug,341wNRlk,2020-0188,2020-11-17,18:40:02,18:57:57,NA,incomplete,35,number,1,1,left,Purple_Circle_Dots_1.jpg,Blue_Star_Stripes_1.jpg,Purple_Triangle_Chess_4.jpg,left,796.7199999839067,true,NA,NA,NA,NA,NA,NA,NA,NA,true
341wNRlk,39tx062qy41yb4nrucnyjag7oeq3xx,3quo65dnqy1x39kcz715cqb62qqoug,341wNRlk,2020-0188,2020-11-17,18:40:02,18:57:57,NA,incomplete,36,number,1,0,right,Purple_Circle_Stripes_1.jpg,Purple_Star_Grid_4.jpg,Red_Plus_Dots_1.jpg,right,760.8599999803118,true,NA,NA,NA,NA,NA,NA,NA,NA,true
341wNRlk,39tx062qy41yb4nrucnyjag7oeq3xx,3quo65dnqy1x39kcz715cqb62qqoug,341wNRlk,2020-0188,2020-11-17,18:40:02,18:57:57,NA,incomplete,37,number,1,1,left,Red_Triangle_Dots_4.jpg,Blue_Circle_Grid_4.jpg,Red_Star_Chess_1.jpg,left,775.7950000232086,true,NA,NA,NA,NA,NA,NA,NA,NA,true
341wNRlk,39tx062qy41yb4nrucnyjag7oeq3xx,3quo65dnqy1x39kcz715cqb62qqoug,341wNRlk,2020-0188,2020-11-17,18:40:02,18:57:57,NA,incomplete,38,number,1,1,right,Blue_Triangle_Stripes_1.jpg,Blue_Star_Grid_2.jpg,Purple_Plus_Chess_1.jpg,right,812.7350000431761,true,NA,NA,NA,NA,NA,NA,NA,NA,true
341wNRlk,39tx062qy41yb4nrucnyjag7oeq3xx,3quo65dnqy1x39kcz715cqb62qqoug,341wNRlk,2020-0188,2020-11-17,18:40:02,18:57:57,NA,incomplete,39,number,1,1,right,Green_Plus_Stripes_3.jpg,Green_Star_Grid_1.jpg,Purple_Circle_Chess_3.jpg,right,737.7850000048056,true,NA,NA,NA,NA,NA,NA,NA,NA,true
341wNRlk,39tx062qy41yb4nrucnyjag7oeq3xx,3quo65dnqy1x39kcz715cqb62qqoug,341wNRlk,2020-0188,2020-11-17,18:40:02,18:57:57,NA,incomplete,0,color,0,1,right,Red_Plus_Stripes_3.jpg,Blue_Triangle_Grid_3.jpg,Red_Circle_Dots_2.jpg,left,799.0749999880791,false,low,NA,NA,NA,NA,NA,NA,NA,false
341wNRlk,39tx062qy41yb4nrucnyjag7oeq3xx,3quo65dnqy1x39kcz715cqb62qqoug,341wNRlk,2020-0188,2020-11-17,18:40:02,18:57:57,NA,incomplete,1,color,0,1,left,Blue_Star_Dots_4.jpg,Blue_Circle_Grid_3.jpg,Purple_Triangle_Stripes_4.jpg,right,787.7049999660812,false,low,NA,NA,NA,NA,NA,NA,NA,false
341wNRlk,39tx062qy41yb4nrucnyjag7oeq3xx,3quo65dnqy1x39kcz715cqb62qqoug,341wNRlk,2020-0188,2020-11-17,18:40:02,18:57:57,NA,incomplete,2,color,0,1,left,Red_Plus_Grid_1.jpg,Red_Triangle_Chess_3.jpg,Green_Star_Dots_1.jpg,left,1178.2050000037998,true,low,NA,NA,NA,NA,NA,NA,NA,false
341wNRlk,39tx062qy41yb4nrucnyjag7oeq3xx,3quo65dnqy1x39kcz715cqb62qqoug,341wNRlk,2020-0188,2020-11-17,18:40:02,18:57:57,NA,incomplete,3,color,0,1,left,Purple_Star_Chess_2.jpg,Purple_Plus_Stripes_4.jpg,Green_Circle_Dots_2.jpg,left,670.6199999898672,true,low,NA,NA,NA,NA,NA,NA,NA,false
341wNRlk,39tx062qy41yb4nrucnyjag7oeq3xx,3quo65dnqy1x39kcz715cqb62qqoug,341wNRlk,2020-0188,2020-11-17,18:40:02,18:57:57,NA,incomplete,4,color,0,1,right,Blue_Circle_Grid_3.jpg,Red_Triangle_Dots_3.jpg,Blue_Plus_Chess_2.jpg,right,998.6199999693781,true,low,NA,NA,NA,NA,NA,NA,NA,false
341wNRlk,39tx062qy41yb4nrucnyjag7oeq3xx,3quo65dnqy1x39kcz715cqb62qqoug,341wNRlk,2020-0188,2020-11-17,18:40:02,18:57:57,NA,incomplete,5,color,0,1,left,Blue_Plus_Chess_2.jpg,Blue_Circle_Dots_1.jpg,Red_Triangle_Grid_2.jpg,left,739.3499999889173,true,low,NA,NA,NA,NA,NA,NA,NA,false
341wNRlk,39tx062qy41yb4nrucnyjag7oeq3xx,3quo65dnqy1x39kcz715cqb62qqoug,341wNRlk,2020-0188,2020-11-17,18:40:02,18:57:57,NA,incomplete,6,color,0,1,right,Blue_Circle_Chess_4.jpg,Green_Plus_Stripes_4.jpg,Blue_Star_Grid_2.jpg,right,1066.6450000135228,true,low,NA,NA,NA,NA,NA,NA,NA,false
341wNRlk,39tx062qy41yb4nrucnyjag7oeq3xx,3quo65dnqy1x39kcz715cqb62qqoug,341wNRlk,2020-0188,2020-11-17,18:40:02,18:57:57,NA,incomplete,7,color,0,0,right,Green_Star_Grid_1.jpg,Purple_Circle_Dots_1.jpg,Green_Triangle_Chess_2.jpg,right,798.8149999873713,true,low,NA,NA,NA,NA,NA,NA,NA,false
341wNRlk,39tx062qy41yb4nrucnyjag7oeq3xx,3quo65dnqy1x39kcz715cqb62qqoug,341wNRlk,2020-0188,2020-11-17,18:40:02,18:57:57,NA,incomplete,8,color,0,1,right,Green_Triangle_Grid_1.jpg,Red_Circle_Chess_1.jpg,Green_Plus_Dots_4.jpg,left,617.9999999585561,false,low,NA,NA,NA,NA,NA,NA,NA,false
341wNRlk,39tx062qy41yb4nrucnyjag7oeq3xx,3quo65dnqy1x39kcz715cqb62qqoug,341wNRlk,2020-0188,2020-11-17,18:40:02,18:57:57,NA,incomplete,9,color,0,1,left,Green_Circle_Chess_4.jpg,Green_Triangle_Dots_1.jpg,Blue_Star_Stripes_4.jpg,left,1030.4900000337511,true,low,NA,NA,NA,NA,NA,NA,NA,false
341wNRlk,39tx062qy41yb4nrucnyjag7oeq3xx,3quo65dnqy1x39kcz715cqb62qqoug,341wNRlk,2020-0188,2020-11-17,18:40:02,18:57:57,NA,incomplete,10,number,1,1,left,Blue_Circle_Grid_3.jpg,Green_Star_Stripes_3.jpg,Blue_Triangle_Chess_1.jpg,right,1321.6499999980442,false,low,NA,NA,NA,NA,NA,NA,NA,false
341wNRlk,39tx062qy41yb4nrucnyjag7oeq3xx,3quo65dnqy1x39kcz715cqb62qqoug,341wNRlk,2020-0188,2020-11-17,18:40:02,18:57:57,NA,incomplete,11,number,1,1,left,Blue_Circle_Grid_2.jpg,Purple_Triangle_Dots_2.jpg,Blue_Star_Stripes_1.jpg,left,760.9099999535829,true,low,NA,NA,NA,NA,NA,NA,NA,false
341wNRlk,39tx062qy41yb4nrucnyjag7oeq3xx,3quo65dnqy1x39kcz715cqb62qqoug,341wNRlk,2020-0188,2020-11-17,18:40:02,18:57:57,NA,incomplete,12,number,1,1,left,Red_Triangle_Stripes_3.jpg,Blue_Star_Dots_3.jpg,Red_Plus_Grid_4.jpg,left,905.4999999934807,true,low,NA,NA,NA,NA,NA,NA,NA,false
341wNRlk,39tx062qy41yb4nrucnyjag7oeq3xx,3quo65dnqy1x39kcz715cqb62qqoug,341wNRlk,2020-0188,2020-11-17,18:40:02,18:57:57,NA,incomplete,13,number,1,1,left,Green_Plus_Dots_2.jpg,Red_Triangle_Chess_2.jpg,Green_Circle_Stripes_1.jpg,left,1128.4599999780767,true,low,NA,NA,NA,NA,NA,NA,NA,false
341wNRlk,39tx062qy41yb4nrucnyjag7oeq3xx,3quo65dnqy1x39kcz715cqb62qqoug,341wNRlk,2020-0188,2020-11-17,18:40:02,18:57:57,NA,incomplete,14,number,1,0,right,Red_Star_Grid_2.jpg,Red_Triangle_Stripes_1.jpg,Blue_Circle_Dots_2.jpg,right,671.5799999656156,true,low,NA,NA,NA,NA,NA,NA,NA,false
341wNRlk,39tx062qy41yb4nrucnyjag7oeq3xx,3quo65dnqy1x39kcz715cqb62qqoug,341wNRlk,2020-0188,2020-11-17,18:40:02,18:57:57,NA,incomplete,15,number,1,0,left,Purple_Plus_Dots_4.jpg,Green_Triangle_Chess_4.jpg,Purple_Star_Stripes_2.jpg,right,929.6300000278279,false,low,NA,NA,NA,NA,NA,NA,NA,false
341wNRlk,39tx062qy41yb4nrucnyjag7oeq3xx,3quo65dnqy1x39kcz715cqb62qqoug,341wNRlk,2020-0188,2020-11-17,18:40:02,18:57:57,NA,incomplete,16,number,1,1,right,Green_Star_Grid_4.jpg,Green_Plus_Stripes_2.jpg,Red_Circle_Dots_4.jpg,left,705.2299999631941,false,low,NA,NA,NA,NA,NA,NA,NA,false
341wNRlk,39tx062qy41yb4nrucnyjag7oeq3xx,3quo65dnqy1x39kcz715cqb62qqoug,341wNRlk,2020-0188,2020-11-17,18:40:02,18:57:57,NA,incomplete,17,number,1,1,left,Purple_Star_Grid_4.jpg,Red_Plus_Stripes_4.jpg,Purple_Triangle_Chess_1.jpg,right,896.8149999855086,false,low,NA,NA,NA,NA,NA,NA,NA,false
341wNRlk,39tx062qy41yb4nrucnyjag7oeq3xx,3quo65dnqy1x39kcz715cqb62qqoug,341wNRlk,2020-0188,2020-11-17,18:40:02,18:57:57,NA,incomplete,18,number,1,1,left,Green_Circle_Grid_2.jpg,Blue_Triangle_Dots_2.jpg,Green_Star_Stripes_1.jpg,left,818.6250000144355,true,low,NA,NA,NA,NA,NA,NA,NA,false
341wNRlk,39tx062qy41yb4nrucnyjag7oeq3xx,3quo65dnqy1x39kcz715cqb62qqoug,341wNRlk,2020-0188,2020-11-17,18:40:02,18:57:57,NA,incomplete,19,number,1,0,left,Green_Triangle_Dots_4.jpg,Purple_Plus_Chess_4.jpg,Green_Star_Grid_2.jpg,left,1085.114999965299,true,low,NA,NA,NA,NA,NA,NA,NA,false
341wNRlk,39tx062qy41yb4nrucnyjag7oeq3xx,3quo65dnqy1x39kcz715cqb62qqoug,341wNRlk,2020-0188,2020-11-17,18:40:02,18:57:57,NA,incomplete,20,color,0,1,right,Red_Plus_Grid_1.jpg,Purple_Triangle_Chess_1.jpg,Red_Star_Dots_3.jpg,right,1086.6399999940768,true,low,NA,NA,NA,NA,NA,NA,NA,false
341wNRlk,39tx062qy41yb4nrucnyjag7oeq3xx,3quo65dnqy1x39kcz715cqb62qqoug,341wNRlk,2020-0188,2020-11-17,18:40:02,18:57:57,NA,incomplete,21,color,0,0,right,Red_Plus_Chess_4.jpg,Green_Star_Dots_4.jpg,Red_Triangle_Grid_1.jpg,right,759.3200000119396,true,low,NA,NA,NA,NA,NA,NA,NA,false
341wNRlk,39tx062qy41yb4nrucnyjag7oeq3xx,3quo65dnqy1x39kcz715cqb62qqoug,341wNRlk,2020-0188,2020-11-17,18:40:02,18:57:57,NA,incomplete,22,color,0,1,right,Blue_Triangle_Grid_3.jpg,Green_Plus_Chess_3.jpg,Blue_Star_Stripes_2.jpg,right,702.5550000253133,true,low,NA,NA,NA,NA,NA,NA,NA,false
341wNRlk,39tx062qy41yb4nrucnyjag7oeq3xx,3quo65dnqy1x39kcz715cqb62qqoug,341wNRlk,2020-0188,2020-11-17,18:40:02,18:57:57,NA,incomplete,23,color,0,1,left,Red_Plus_Dots_1.jpg,Red_Circle_Stripes_2.jpg,Purple_Star_Chess_1.jpg,left,1078.3400000073016,true,low,NA,NA,NA,NA,NA,NA,NA,false
341wNRlk,39tx062qy41yb4nrucnyjag7oeq3xx,3quo65dnqy1x39kcz715cqb62qqoug,341wNRlk,2020-0188,2020-11-17,18:40:02,18:57:57,NA,incomplete,24,color,0,1,right,Blue_Circle_Stripes_2.jpg,Green_Plus_Chess_2.jpg,Blue_Star_Dots_4.jpg,right,774.4850000017323,true,low,NA,NA,NA,NA,NA,NA,NA,false
341wNRlk,39tx062qy41yb4nrucnyjag7oeq3xx,3quo65dnqy1x39kcz715cqb62qqoug,341wNRlk,2020-0188,2020-11-17,18:40:02,18:57:57,NA,incomplete,25,color,0,1,right,Blue_Star_Stripes_4.jpg,Purple_Plus_Chess_4.jpg,Blue_Circle_Dots_2.jpg,right,733.0550000187941,true,low,NA,NA,NA,NA,NA,NA,NA,false
341wNRlk,39tx062qy41yb4nrucnyjag7oeq3xx,3quo65dnqy1x39kcz715cqb62qqoug,341wNRlk,2020-0188,2020-11-17,18:40:02,18:57:57,NA,incomplete,26,color,0,0,right,Green_Plus_Stripes_4.jpg,Purple_Circle_Chess_4.jpg,Green_Triangle_Dots_1.jpg,right,636.789999960456,true,low,NA,NA,NA,NA,NA,NA,NA,false
341wNRlk,39tx062qy41yb4nrucnyjag7oeq3xx,3quo65dnqy1x39kcz715cqb62qqoug,341wNRlk,2020-0188,2020-11-17,18:40:02,18:57:57,NA,incomplete,27,color,0,1,left,Red_Circle_Grid_4.jpg,Red_Plus_Dots_2.jpg,Blue_Triangle_Chess_4.jpg,left,687.9100000369363,true,low,NA,NA,NA,NA,NA,NA,NA,false
341wNRlk,39tx062qy41yb4nrucnyjag7oeq3xx,3quo65dnqy1x39kcz715cqb62qqoug,341wNRlk,2020-0188,2020-11-17,18:40:02,18:57:57,NA,incomplete,28,color,0,1,left,Green_Circle_Chess_2.jpg,Green_Star_Stripes_1.jpg,Purple_Plus_Dots_2.jpg,left,784.0599999763072,true,low,NA,NA,NA,NA,NA,NA,NA,false
341wNRlk,39tx062qy41yb4nrucnyjag7oeq3xx,3quo65dnqy1x39kcz715cqb62qqoug,341wNRlk,2020-0188,2020-11-17,18:40:02,18:57:57,NA,incomplete,29,color,0,1,right,Blue_Star_Grid_1.jpg,Green_Circle_Dots_1.jpg,Blue_Plus_Chess_2.jpg,right,644.7849999531172,true,low,NA,NA,NA,NA,NA,NA,NA,false
341wNRlk,39tx062qy41yb4nrucnyjag7oeq3xx,3quo65dnqy1x39kcz715cqb62qqoug,341wNRlk,2020-0188,2020-11-17,18:40:02,18:57:57,NA,incomplete,30,number,1,1,right,Red_Triangle_Dots_3.jpg,Red_Plus_Chess_4.jpg,Green_Star_Stripes_3.jpg,left,792.2149999649264,false,low,NA,NA,NA,NA,NA,NA,NA,false
341wNRlk,39tx062qy41yb4nrucnyjag7oeq3xx,3quo65dnqy1x39kcz715cqb62qqoug,341wNRlk,2020-0188,2020-11-17,18:40:02,18:57:57,NA,incomplete,31,number,1,1,left,Purple_Triangle_Chess_3.jpg,Red_Star_Grid_3.jpg,Purple_Circle_Stripes_1.jpg,right,691.3000000058673,false,low,NA,NA,NA,NA,NA,NA,NA,false
341wNRlk,39tx062qy41yb4nrucnyjag7oeq3xx,3quo65dnqy1x39kcz715cqb62qqoug,341wNRlk,2020-0188,2020-11-17,18:40:02,18:57:57,NA,incomplete,32,number,1,1,left,Red_Plus_Stripes_1.jpg,Green_Star_Chess_1.jpg,Red_Circle_Grid_2.jpg,right,942.3850000021048,false,low,NA,NA,NA,NA,NA,NA,NA,false
341wNRlk,39tx062qy41yb4nrucnyjag7oeq3xx,3quo65dnqy1x39kcz715cqb62qqoug,341wNRlk,2020-0188,2020-11-17,18:40:02,18:57:57,NA,incomplete,33,number,1,1,left,Blue_Star_Chess_2.jpg,Green_Triangle_Grid_2.jpg,Blue_Plus_Stripes_4.jpg,right,644.3750000325963,false,low,NA,NA,NA,NA,NA,NA,NA,false
341wNRlk,39tx062qy41yb4nrucnyjag7oeq3xx,3quo65dnqy1x39kcz715cqb62qqoug,341wNRlk,2020-0188,2020-11-17,18:40:02,18:57:57,NA,incomplete,34,number,1,1,left,Purple_Triangle_Grid_4.jpg,Green_Plus_Chess_4.jpg,Purple_Star_Stripes_2.jpg,right,814.6549999946728,false,low,NA,NA,NA,NA,NA,NA,NA,false
341wNRlk,39tx062qy41yb4nrucnyjag7oeq3xx,3quo65dnqy1x39kcz715cqb62qqoug,341wNRlk,2020-0188,2020-11-17,18:40:02,18:57:57,NA,incomplete,35,number,1,1,right,Purple_Plus_Chess_2.jpg,Purple_Circle_Grid_3.jpg,Red_Triangle_Dots_2.jpg,right,1323.5099999583326,true,low,NA,NA,NA,NA,NA,NA,NA,false
341wNRlk,39tx062qy41yb4nrucnyjag7oeq3xx,3quo65dnqy1x39kcz715cqb62qqoug,341wNRlk,2020-0188,2020-11-17,18:40:02,18:57:57,NA,incomplete,36,number,1,1,right,Blue_Star_Grid_1.jpg,Blue_Triangle_Stripes_4.jpg,Red_Plus_Chess_1.jpg,right,1180.1850000047125,true,low,NA,NA,NA,NA,NA,NA,NA,false
341wNRlk,39tx062qy41yb4nrucnyjag7oeq3xx,3quo65dnqy1x39kcz715cqb62qqoug,341wNRlk,2020-0188,2020-11-17,18:40:02,18:57:57,NA,incomplete,37,number,1,1,right,Purple_Circle_Chess_4.jpg,Purple_Plus_Grid_3.jpg,Green_Triangle_Dots_4.jpg,right,849.7349999961443,true,low,NA,NA,NA,NA,NA,NA,NA,false
341wNRlk,39tx062qy41yb4nrucnyjag7oeq3xx,3quo65dnqy1x39kcz715cqb62qqoug,341wNRlk,2020-0188,2020-11-17,18:40:02,18:57:57,NA,incomplete,38,number,1,1,right,Purple_Circle_Chess_3.jpg,Purple_Plus_Dots_2.jpg,Blue_Triangle_Stripes_3.jpg,right,651.3850000337698,true,low,NA,NA,NA,NA,NA,NA,NA,false
341wNRlk,39tx062qy41yb4nrucnyjag7oeq3xx,3quo65dnqy1x39kcz715cqb62qqoug,341wNRlk,2020-0188,2020-11-17,18:40:02,18:57:57,NA,incomplete,39,number,1,1,left,Blue_Circle_Grid_1.jpg,Green_Triangle_Chess_1.jpg,Blue_Plus_Dots_3.jpg,left,886.1850000103004,true,low,NA,NA,NA,NA,NA,NA,NA,false
341wNRlk,39tx062qy41yb4nrucnyjag7oeq3xx,3quo65dnqy1x39kcz715cqb62qqoug,341wNRlk,2020-0188,2020-11-17,18:40:02,18:57:57,NA,incomplete,40,color,0,1,right,Red_Triangle_Stripes_4.jpg,Purple_Plus_Dots_4.jpg,Red_Star_Grid_1.jpg,left,662.7799999550916,false,low,NA,NA,NA,NA,NA,NA,NA,false
341wNRlk,39tx062qy41yb4nrucnyjag7oeq3xx,3quo65dnqy1x39kcz715cqb62qqoug,341wNRlk,2020-0188,2020-11-17,18:40:02,18:57:57,NA,incomplete,41,color,0,1,right,Red_Star_Chess_4.jpg,Blue_Circle_Stripes_4.jpg,Red_Plus_Grid_1.jpg,right,1065.2899999986403,true,low,NA,NA,NA,NA,NA,NA,NA,false
341wNRlk,39tx062qy41yb4nrucnyjag7oeq3xx,3quo65dnqy1x39kcz715cqb62qqoug,341wNRlk,2020-0188,2020-11-17,18:40:02,18:57:57,NA,incomplete,42,color,0,1,left,Green_Plus_Stripes_1.jpg,Green_Triangle_Grid_3.jpg,Red_Star_Dots_1.jpg,left,725.1800000085495,true,low,NA,NA,NA,NA,NA,NA,NA,false
341wNRlk,39tx062qy41yb4nrucnyjag7oeq3xx,3quo65dnqy1x39kcz715cqb62qqoug,341wNRlk,2020-0188,2020-11-17,18:40:02,18:57:57,NA,incomplete,43,color,0,1,right,Red_Star_Grid_3.jpg,Green_Circle_Dots_3.jpg,Red_Triangle_Chess_2.jpg,right,650.3600000287406,true,low,NA,NA,NA,NA,NA,NA,NA,false
341wNRlk,39tx062qy41yb4nrucnyjag7oeq3xx,3quo65dnqy1x39kcz715cqb62qqoug,341wNRlk,2020-0188,2020-11-17,18:40:02,18:57:57,NA,incomplete,44,color,0,1,right,Red_Triangle_Stripes_3.jpg,Purple_Star_Grid_3.jpg,Red_Plus_Chess_2.jpg,right,661.6550000035204,true,low,NA,NA,NA,NA,NA,NA,NA,false
341wNRlk,39tx062qy41yb4nrucnyjag7oeq3xx,3quo65dnqy1x39kcz715cqb62qqoug,341wNRlk,2020-0188,2020-11-17,18:40:02,18:57:57,NA,incomplete,45,color,0,1,left,Green_Plus_Chess_3.jpg,Green_Triangle_Stripes_4.jpg,Blue_Star_Dots_3.jpg,left,688.155000039842,true,low,NA,NA,NA,NA,NA,NA,NA,false
341wNRlk,39tx062qy41yb4nrucnyjag7oeq3xx,3quo65dnqy1x39kcz715cqb62qqoug,341wNRlk,2020-0188,2020-11-17,18:40:02,18:57:57,NA,incomplete,46,color,0,1,left,Green_Plus_Grid_3.jpg,Green_Circle_Stripes_2.jpg,Purple_Star_Chess_3.jpg,left,639.8599999956787,true,low,NA,NA,NA,NA,NA,NA,NA,false
341wNRlk,39tx062qy41yb4nrucnyjag7oeq3xx,3quo65dnqy1x39kcz715cqb62qqoug,341wNRlk,2020-0188,2020-11-17,18:40:02,18:57:57,NA,incomplete,47,color,0,1,right,Red_Star_Stripes_2.jpg,Blue_Circle_Chess_2.jpg,Red_Triangle_Grid_3.jpg,right,557.0999999763444,true,low,NA,NA,NA,NA,NA,NA,NA,false
341wNRlk,39tx062qy41yb4nrucnyjag7oeq3xx,3quo65dnqy1x39kcz715cqb62qqoug,341wNRlk,2020-0188,2020-11-17,18:40:02,18:57:57,NA,incomplete,48,color,0,1,left,Blue_Triangle_Chess_2.jpg,Blue_Star_Stripes_4.jpg,Green_Plus_Dots_2.jpg,left,538.4150000172667,true,low,NA,NA,NA,NA,NA,NA,NA,false
341wNRlk,39tx062qy41yb4nrucnyjag7oeq3xx,3quo65dnqy1x39kcz715cqb62qqoug,341wNRlk,2020-0188,2020-11-17,18:40:02,18:57:57,NA,incomplete,49,color,0,1,left,Red_Star_Dots_2.jpg,Red_Circle_Grid_3.jpg,Green_Plus_Stripes_2.jpg,left,880.170000018552,true,low,NA,NA,NA,NA,NA,NA,NA,false
341wNRlk,39tx062qy41yb4nrucnyjag7oeq3xx,3quo65dnqy1x39kcz715cqb62qqoug,341wNRlk,2020-0188,2020-11-17,18:40:02,18:57:57,NA,incomplete,50,number,1,1,left,Blue_Star_Dots_1.jpg,Red_Circle_Chess_1.jpg,Blue_Plus_Stripes_3.jpg,right,690.4199999989942,false,low,NA,NA,NA,NA,NA,NA,NA,false
341wNRlk,39tx062qy41yb4nrucnyjag7oeq3xx,3quo65dnqy1x39kcz715cqb62qqoug,341wNRlk,2020-0188,2020-11-17,18:40:02,18:57:57,NA,incomplete,51,number,1,1,right,Blue_Star_Stripes_3.jpg,Blue_Triangle_Dots_1.jpg,Red_Plus_Grid_3.jpg,right,899.0750000230037,true,low,NA,NA,NA,NA,NA,NA,NA,false
341wNRlk,39tx062qy41yb4nrucnyjag7oeq3xx,3quo65dnqy1x39kcz715cqb62qqoug,341wNRlk,2020-0188,2020-11-17,18:40:02,18:57:57,NA,incomplete,52,number,1,1,right,Green_Circle_Chess_3.jpg,Green_Triangle_Dots_2.jpg,Red_Plus_Stripes_3.jpg,right,629.1049999999814,true,low,NA,NA,NA,NA,NA,NA,NA,false
341wNRlk,39tx062qy41yb4nrucnyjag7oeq3xx,3quo65dnqy1x39kcz715cqb62qqoug,341wNRlk,2020-0188,2020-11-17,18:40:02,18:57:57,NA,incomplete,53,number,1,1,left,Red_Star_Grid_1.jpg,Green_Plus_Dots_1.jpg,Red_Circle_Chess_3.jpg,left,1095.900000014808,true,low,NA,NA,NA,NA,NA,NA,NA,false
341wNRlk,39tx062qy41yb4nrucnyjag7oeq3xx,3quo65dnqy1x39kcz715cqb62qqoug,341wNRlk,2020-0188,2020-11-17,18:40:02,18:57:57,NA,incomplete,54,number,1,1,left,Blue_Triangle_Grid_1.jpg,Red_Circle_Dots_1.jpg,Blue_Star_Chess_2.jpg,left,665.160000033211,true,low,NA,NA,NA,NA,NA,NA,NA,false
341wNRlk,39tx062qy41yb4nrucnyjag7oeq3xx,3quo65dnqy1x39kcz715cqb62qqoug,341wNRlk,2020-0188,2020-11-17,18:40:02,18:57:57,NA,incomplete,55,number,1,1,right,Red_Circle_Dots_4.jpg,Red_Triangle_Chess_2.jpg,Purple_Star_Stripes_4.jpg,right,1106.8550000200048,true,low,NA,NA,NA,NA,NA,NA,NA,false
341wNRlk,39tx062qy41yb4nrucnyjag7oeq3xx,3quo65dnqy1x39kcz715cqb62qqoug,341wNRlk,2020-0188,2020-11-17,18:40:02,18:57:57,NA,incomplete,56,number,1,0,left,Blue_Triangle_Chess_2.jpg,Green_Star_Dots_2.jpg,Blue_Plus_Stripes_3.jpg,left,763.4449999895878,true,low,NA,NA,NA,NA,NA,NA,NA,false
341wNRlk,39tx062qy41yb4nrucnyjag7oeq3xx,3quo65dnqy1x39kcz715cqb62qqoug,341wNRlk,2020-0188,2020-11-17,18:40:02,18:57:57,NA,incomplete,57,number,1,1,left,Green_Plus_Chess_1.jpg,Purple_Circle_Stripes_1.jpg,Green_Triangle_Dots_2.jpg,right,634.4950000056997,false,low,NA,NA,NA,NA,NA,NA,NA,false
341wNRlk,39tx062qy41yb4nrucnyjag7oeq3xx,3quo65dnqy1x39kcz715cqb62qqoug,341wNRlk,2020-0188,2020-11-17,18:40:02,18:57:57,NA,incomplete,58,number,1,0,right,Purple_Triangle_Stripes_2.jpg,Purple_Star_Chess_3.jpg,Blue_Plus_Grid_2.jpg,left,757.0599999744445,false,low,NA,NA,NA,NA,NA,NA,NA,false
341wNRlk,39tx062qy41yb4nrucnyjag7oeq3xx,3quo65dnqy1x39kcz715cqb62qqoug,341wNRlk,2020-0188,2020-11-17,18:40:02,18:57:57,NA,incomplete,59,number,1,1,right,Purple_Circle_Stripes_3.jpg,Purple_Triangle_Dots_1.jpg,Blue_Star_Grid_3.jpg,left,1017.9950000019744,false,low,NA,NA,NA,NA,NA,NA,NA,false
341wNRlk,39tx062qy41yb4nrucnyjag7oeq3xx,3quo65dnqy1x39kcz715cqb62qqoug,341wNRlk,2020-0188,2020-11-17,18:40:02,18:57:57,NA,incomplete,60,color,0,1,right,Red_Triangle_Grid_1.jpg,Blue_Circle_Stripes_1.jpg,Red_Plus_Dots_4.jpg,right,1038.3349999901839,true,low,NA,NA,NA,NA,NA,NA,NA,false
341wNRlk,39tx062qy41yb4nrucnyjag7oeq3xx,3quo65dnqy1x39kcz715cqb62qqoug,341wNRlk,2020-0188,2020-11-17,18:40:02,18:57:57,NA,incomplete,61,color,0,1,left,Red_Star_Dots_3.jpg,Red_Plus_Chess_1.jpg,Green_Circle_Stripes_3.jpg,left,714.1449999762699,true,low,NA,NA,NA,NA,NA,NA,NA,false
341wNRlk,39tx062qy41yb4nrucnyjag7oeq3xx,3quo65dnqy1x39kcz715cqb62qqoug,341wNRlk,2020-0188,2020-11-17,18:40:02,18:57:57,NA,incomplete,62,color,0,1,left,Purple_Star_Grid_1.jpg,Purple_Plus_Chess_2.jpg,Green_Circle_Dots_1.jpg,left,730.9499999973923,true,low,NA,NA,NA,NA,NA,NA,NA,false
341wNRlk,39tx062qy41yb4nrucnyjag7oeq3xx,3quo65dnqy1x39kcz715cqb62qqoug,341wNRlk,2020-0188,2020-11-17,18:40:02,18:57:57,NA,incomplete,63,color,0,1,left,Green_Circle_Grid_1.jpg,Green_Triangle_Stripes_2.jpg,Red_Star_Chess_1.jpg,left,553.5449999733828,true,low,NA,NA,NA,NA,NA,NA,NA,false
341wNRlk,39tx062qy41yb4nrucnyjag7oeq3xx,3quo65dnqy1x39kcz715cqb62qqoug,341wNRlk,2020-0188,2020-11-17,18:40:02,18:57:57,NA,incomplete,64,color,0,0,right,Red_Circle_Grid_1.jpg,Green_Plus_Stripes_1.jpg,Red_Star_Dots_2.jpg,right,511.7300000274554,true,low,NA,NA,NA,NA,NA,NA,NA,false
341wNRlk,39tx062qy41yb4nrucnyjag7oeq3xx,3quo65dnqy1x39kcz715cqb62qqoug,341wNRlk,2020-0188,2020-11-17,18:40:02,18:57:57,NA,incomplete,65,color,0,0,right,Purple_Triangle_Stripes_4.jpg,Red_Circle_Chess_4.jpg,Purple_Star_Grid_3.jpg,right,1272.3200000473298,true,low,NA,NA,NA,NA,NA,NA,NA,false
341wNRlk,39tx062qy41yb4nrucnyjag7oeq3xx,3quo65dnqy1x39kcz715cqb62qqoug,341wNRlk,2020-0188,2020-11-17,18:40:02,18:57:57,NA,incomplete,66,color,0,0,left,Red_Plus_Stripes_4.jpg,Red_Triangle_Dots_3.jpg,Purple_Circle_Chess_4.jpg,right,1441.65500003146,false,low,NA,NA,NA,NA,NA,NA,NA,false
341wNRlk,39tx062qy41yb4nrucnyjag7oeq3xx,3quo65dnqy1x39kcz715cqb62qqoug,341wNRlk,2020-0188,2020-11-17,18:40:02,18:57:57,NA,incomplete,67,color,0,1,left,Red_Circle_Dots_4.jpg,Red_Star_Grid_2.jpg,Purple_Triangle_Chess_4.jpg,right,765.3750000172295,false,low,NA,NA,NA,NA,NA,NA,NA,false
341wNRlk,39tx062qy41yb4nrucnyjag7oeq3xx,3quo65dnqy1x39kcz715cqb62qqoug,341wNRlk,2020-0188,2020-11-17,18:40:02,18:57:57,NA,incomplete,68,color,0,1,left,Purple_Triangle_Chess_1.jpg,Purple_Circle_Stripes_3.jpg,Green_Star_Dots_1.jpg,right,1098.4199999948032,false,low,NA,NA,NA,NA,NA,NA,NA,false
341wNRlk,39tx062qy41yb4nrucnyjag7oeq3xx,3quo65dnqy1x39kcz715cqb62qqoug,341wNRlk,2020-0188,2020-11-17,18:40:02,18:57:57,NA,incomplete,69,color,0,0,right,Green_Triangle_Chess_1.jpg,Red_Circle_Grid_1.jpg,Green_Star_Stripes_4.jpg,right,707.7949999948032,true,low,NA,NA,NA,NA,NA,NA,NA,false
341wNRlk,39tx062qy41yb4nrucnyjag7oeq3xx,3quo65dnqy1x39kcz715cqb62qqoug,341wNRlk,2020-0188,2020-11-17,18:40:02,18:57:57,NA,incomplete,70,number,1,1,left,Purple_Triangle_Grid_3.jpg,Blue_Star_Stripes_3.jpg,Purple_Plus_Chess_4.jpg,right,796.3400000007823,false,low,NA,NA,NA,NA,NA,NA,NA,false
341wNRlk,39tx062qy41yb4nrucnyjag7oeq3xx,3quo65dnqy1x39kcz715cqb62qqoug,341wNRlk,2020-0188,2020-11-17,18:40:02,18:57:57,NA,incomplete,71,number,1,1,left,Purple_Star_Chess_1.jpg,Red_Plus_Stripes_1.jpg,Purple_Circle_Grid_3.jpg,right,1079.1700000409037,false,low,NA,NA,NA,NA,NA,NA,NA,false
341wNRlk,39tx062qy41yb4nrucnyjag7oeq3xx,3quo65dnqy1x39kcz715cqb62qqoug,341wNRlk,2020-0188,2020-11-17,18:40:02,18:57:57,NA,incomplete,72,number,1,1,right,Green_Plus_Stripes_1.jpg,Green_Triangle_Chess_4.jpg,Red_Circle_Grid_1.jpg,right,930.7149999658577,true,low,NA,NA,NA,NA,NA,NA,NA,false
341wNRlk,39tx062qy41yb4nrucnyjag7oeq3xx,3quo65dnqy1x39kcz715cqb62qqoug,341wNRlk,2020-0188,2020-11-17,18:40:02,18:57:57,NA,incomplete,73,number,1,1,left,Red_Circle_Dots_3.jpg,Green_Star_Grid_3.jpg,Red_Triangle_Chess_4.jpg,left,1250.304999994114,true,low,NA,NA,NA,NA,NA,NA,NA,false
341wNRlk,39tx062qy41yb4nrucnyjag7oeq3xx,3quo65dnqy1x39kcz715cqb62qqoug,341wNRlk,2020-0188,2020-11-17,18:40:02,18:57:57,NA,incomplete,74,number,1,0,left,Green_Circle_Grid_2.jpg,Red_Star_Dots_2.jpg,Green_Triangle_Stripes_3.jpg,left,979.8850000370294,true,low,NA,NA,NA,NA,NA,NA,NA,false
341wNRlk,39tx062qy41yb4nrucnyjag7oeq3xx,3quo65dnqy1x39kcz715cqb62qqoug,341wNRlk,2020-0188,2020-11-17,18:40:02,18:57:57,NA,incomplete,75,number,1,0,right,Red_Circle_Stripes_2.jpg,Red_Plus_Grid_3.jpg,Purple_Triangle_Chess_2.jpg,right,793.8900000299327,true,low,NA,NA,NA,NA,NA,NA,NA,false
341wNRlk,39tx062qy41yb4nrucnyjag7oeq3xx,3quo65dnqy1x39kcz715cqb62qqoug,341wNRlk,2020-0188,2020-11-17,18:40:02,18:57:57,NA,incomplete,76,number,1,0,right,Green_Triangle_Grid_2.jpg,Green_Star_Dots_3.jpg,Red_Plus_Stripes_2.jpg,left,661.6099999519065,false,low,NA,NA,NA,NA,NA,NA,NA,false
341wNRlk,39tx062qy41yb4nrucnyjag7oeq3xx,3quo65dnqy1x39kcz715cqb62qqoug,341wNRlk,2020-0188,2020-11-17,18:40:02,18:57:57,NA,incomplete,77,number,1,1,right,Green_Triangle_Chess_4.jpg,Green_Star_Dots_2.jpg,Blue_Circle_Grid_4.jpg,left,1042.829999991227,false,low,NA,NA,NA,NA,NA,NA,NA,false
341wNRlk,39tx062qy41yb4nrucnyjag7oeq3xx,3quo65dnqy1x39kcz715cqb62qqoug,341wNRlk,2020-0188,2020-11-17,18:40:02,18:57:57,NA,incomplete,78,number,1,1,left,Purple_Circle_Grid_2.jpg,Blue_Plus_Chess_2.jpg,Purple_Triangle_Dots_4.jpg,right,612.4749999726191,false,low,NA,NA,NA,NA,NA,NA,NA,false
341wNRlk,39tx062qy41yb4nrucnyjag7oeq3xx,3quo65dnqy1x39kcz715cqb62qqoug,341wNRlk,2020-0188,2020-11-17,18:40:02,18:57:57,NA,incomplete,79,number,1,1,right,Blue_Star_Stripes_2.jpg,Blue_Plus_Dots_3.jpg,Red_Circle_Grid_2.jpg,left,1151.8050000304356,false,low,NA,NA,NA,NA,NA,NA,NA,false
341wNRlk,39tx062qy41yb4nrucnyjag7oeq3xx,3quo65dnqy1x39kcz715cqb62qqoug,341wNRlk,2020-0188,2020-11-17,18:40:02,18:57:57,NA,incomplete,80,color,0,1,right,Blue_Star_Dots_4.jpg,Purple_Triangle_Grid_4.jpg,Blue_Circle_Chess_1.jpg,left,670.4000000027008,false,low,NA,NA,NA,NA,NA,NA,NA,false
341wNRlk,39tx062qy41yb4nrucnyjag7oeq3xx,3quo65dnqy1x39kcz715cqb62qqoug,341wNRlk,2020-0188,2020-11-17,18:40:02,18:57:57,NA,incomplete,81,color,0,0,right,Green_Triangle_Chess_3.jpg,Purple_Circle_Dots_3.jpg,Green_Star_Stripes_2.jpg,left,984.2499999795109,false,low,NA,NA,NA,NA,NA,NA,NA,false
341wNRlk,39tx062qy41yb4nrucnyjag7oeq3xx,3quo65dnqy1x39kcz715cqb62qqoug,341wNRlk,2020-0188,2020-11-17,18:40:02,18:57:57,NA,incomplete,82,color,0,0,right,Red_Circle_Stripes_2.jpg,Purple_Star_Dots_2.jpg,Red_Plus_Chess_3.jpg,left,942.8149999585003,false,low,NA,NA,NA,NA,NA,NA,NA,false
341wNRlk,39tx062qy41yb4nrucnyjag7oeq3xx,3quo65dnqy1x39kcz715cqb62qqoug,341wNRlk,2020-0188,2020-11-17,18:40:02,18:57:57,NA,incomplete,83,color,0,1,left,Green_Star_Dots_1.jpg,Green_Triangle_Stripes_2.jpg,Red_Circle_Chess_1.jpg,right,883.8799999793991,false,low,NA,NA,NA,NA,NA,NA,NA,false
341wNRlk,39tx062qy41yb4nrucnyjag7oeq3xx,3quo65dnqy1x39kcz715cqb62qqoug,341wNRlk,2020-0188,2020-11-17,18:40:02,18:57:57,NA,incomplete,84,color,0,1,right,Purple_Triangle_Grid_2.jpg,Red_Circle_Stripes_2.jpg,Purple_Plus_Dots_3.jpg,left,940.245000005234,false,low,NA,NA,NA,NA,NA,NA,NA,false
341wNRlk,39tx062qy41yb4nrucnyjag7oeq3xx,3quo65dnqy1x39kcz715cqb62qqoug,341wNRlk,2020-0188,2020-11-17,18:40:02,18:57:57,NA,incomplete,85,color,0,1,right,Purple_Triangle_Grid_4.jpg,Green_Star_Chess_4.jpg,Purple_Circle_Dots_1.jpg,right,1045.200000051409,true,low,NA,NA,NA,NA,NA,NA,NA,false
341wNRlk,39tx062qy41yb4nrucnyjag7oeq3xx,3quo65dnqy1x39kcz715cqb62qqoug,341wNRlk,2020-0188,2020-11-17,18:40:02,18:57:57,NA,incomplete,86,color,0,1,right,Purple_Triangle_Stripes_4.jpg,Green_Star_Dots_4.jpg,Purple_Circle_Grid_1.jpg,right,1039.3800000310875,true,low,NA,NA,NA,NA,NA,NA,NA,false
341wNRlk,39tx062qy41yb4nrucnyjag7oeq3xx,3quo65dnqy1x39kcz715cqb62qqoug,341wNRlk,2020-0188,2020-11-17,18:40:02,18:57:57,NA,incomplete,87,color,0,1,right,Green_Plus_Chess_2.jpg,Red_Triangle_Stripes_2.jpg,Green_Star_Dots_1.jpg,right,595.339999999851,true,low,NA,NA,NA,NA,NA,NA,NA,false
341wNRlk,39tx062qy41yb4nrucnyjag7oeq3xx,3quo65dnqy1x39kcz715cqb62qqoug,341wNRlk,2020-0188,2020-11-17,18:40:02,18:57:57,NA,incomplete,88,color,0,1,left,Blue_Circle_Grid_2.jpg,Blue_Plus_Stripes_1.jpg,Purple_Star_Chess_2.jpg,left,717.449999996461,true,low,NA,NA,NA,NA,NA,NA,NA,false
341wNRlk,39tx062qy41yb4nrucnyjag7oeq3xx,3quo65dnqy1x39kcz715cqb62qqoug,341wNRlk,2020-0188,2020-11-17,18:40:02,18:57:57,NA,incomplete,89,color,0,1,left,Purple_Star_Grid_3.jpg,Purple_Circle_Stripes_1.jpg,Blue_Triangle_Chess_3.jpg,left,830.7749999803491,true,low,NA,NA,NA,NA,NA,NA,NA,false
341wNRlk,39tx062qy41yb4nrucnyjag7oeq3xx,3quo65dnqy1x39kcz715cqb62qqoug,341wNRlk,2020-0188,2020-11-17,18:40:02,18:57:57,NA,incomplete,90,number,1,1,right,Red_Circle_Dots_4.jpg,Red_Plus_Grid_2.jpg,Purple_Triangle_Stripes_4.jpg,left,825.4549999837764,false,low,NA,NA,NA,NA,NA,NA,NA,false
341wNRlk,39tx062qy41yb4nrucnyjag7oeq3xx,3quo65dnqy1x39kcz715cqb62qqoug,341wNRlk,2020-0188,2020-11-17,18:40:02,18:57:57,NA,incomplete,91,number,1,1,right,Blue_Star_Stripes_4.jpg,Blue_Circle_Dots_3.jpg,Green_Plus_Grid_4.jpg,right,622.2349999588914,true,low,NA,NA,NA,NA,NA,NA,NA,false
341wNRlk,39tx062qy41yb4nrucnyjag7oeq3xx,3quo65dnqy1x39kcz715cqb62qqoug,341wNRlk,2020-0188,2020-11-17,18:40:02,18:57:57,NA,incomplete,92,number,1,1,right,Green_Star_Stripes_1.jpg,Green_Plus_Dots_3.jpg,Red_Circle_Chess_1.jpg,right,746.709999977611,true,low,NA,NA,NA,NA,NA,NA,NA,false
341wNRlk,39tx062qy41yb4nrucnyjag7oeq3xx,3quo65dnqy1x39kcz715cqb62qqoug,341wNRlk,2020-0188,2020-11-17,18:40:02,18:57:57,NA,incomplete,93,number,1,1,left,Red_Plus_Stripes_4.jpg,Blue_Star_Grid_4.jpg,Red_Triangle_Chess_2.jpg,left,832.059999986086,true,low,NA,NA,NA,NA,NA,NA,NA,false
341wNRlk,39tx062qy41yb4nrucnyjag7oeq3xx,3quo65dnqy1x39kcz715cqb62qqoug,341wNRlk,2020-0188,2020-11-17,18:40:02,18:57:57,NA,incomplete,94,number,1,0,right,Purple_Circle_Grid_4.jpg,Purple_Star_Stripes_1.jpg,Green_Triangle_Chess_4.jpg,right,628.0499999993481,true,low,NA,NA,NA,NA,NA,NA,NA,false
341wNRlk,39tx062qy41yb4nrucnyjag7oeq3xx,3quo65dnqy1x39kcz715cqb62qqoug,341wNRlk,2020-0188,2020-11-17,18:40:02,18:57:57,NA,incomplete,95,number,1,1,left,Blue_Triangle_Grid_4.jpg,Red_Plus_Chess_4.jpg,Blue_Circle_Stripes_2.jpg,right,662.4449999653734,false,low,NA,NA,NA,NA,NA,NA,NA,false
341wNRlk,39tx062qy41yb4nrucnyjag7oeq3xx,3quo65dnqy1x39kcz715cqb62qqoug,341wNRlk,2020-0188,2020-11-17,18:40:02,18:57:57,NA,incomplete,96,number,1,1,left,Red_Circle_Chess_1.jpg,Blue_Star_Grid_1.jpg,Red_Triangle_Dots_4.jpg,right,618.2699999772012,false,low,NA,NA,NA,NA,NA,NA,NA,false
341wNRlk,39tx062qy41yb4nrucnyjag7oeq3xx,3quo65dnqy1x39kcz715cqb62qqoug,341wNRlk,2020-0188,2020-11-17,18:40:02,18:57:57,NA,incomplete,97,number,1,0,right,Purple_Star_Grid_3.jpg,Purple_Triangle_Dots_4.jpg,Blue_Circle_Stripes_3.jpg,left,1558.9000000036322,false,low,NA,NA,NA,NA,NA,NA,NA,false
341wNRlk,39tx062qy41yb4nrucnyjag7oeq3xx,3quo65dnqy1x39kcz715cqb62qqoug,341wNRlk,2020-0188,2020-11-17,18:40:02,18:57:57,NA,incomplete,98,number,1,1,left,Red_Circle_Dots_3.jpg,Blue_Star_Chess_3.jpg,Red_Triangle_Grid_2.jpg,right,970.7250000210479,false,low,NA,NA,NA,NA,NA,NA,NA,false
341wNRlk,39tx062qy41yb4nrucnyjag7oeq3xx,3quo65dnqy1x39kcz715cqb62qqoug,341wNRlk,2020-0188,2020-11-17,18:40:02,18:57:57,NA,incomplete,99,number,1,1,left,Purple_Circle_Stripes_2.jpg,Red_Triangle_Dots_2.jpg,Purple_Star_Chess_1.jpg,right,690.3049999964423,false,low,NA,NA,NA,NA,NA,NA,NA,false
341wNRlk,39tx062qy41yb4nrucnyjag7oeq3xx,3quo65dnqy1x39kcz715cqb62qqoug,341wNRlk,2020-0188,2020-11-17,18:40:02,18:57:57,NA,incomplete,100,color,0,1,left,Green_Plus_Stripes_1.jpg,Green_Circle_Dots_3.jpg,Red_Triangle_Chess_1.jpg,right,1546.5400000102818,false,low,NA,NA,NA,NA,NA,NA,NA,false
341wNRlk,39tx062qy41yb4nrucnyjag7oeq3xx,3quo65dnqy1x39kcz715cqb62qqoug,341wNRlk,2020-0188,2020-11-17,18:40:02,18:57:57,NA,incomplete,101,color,0,1,right,Blue_Circle_Grid_4.jpg,Purple_Triangle_Dots_4.jpg,Blue_Plus_Chess_3.jpg,right,794.0500000258908,true,low,NA,NA,NA,NA,NA,NA,NA,false
341wNRlk,39tx062qy41yb4nrucnyjag7oeq3xx,3quo65dnqy1x39kcz715cqb62qqoug,341wNRlk,2020-0188,2020-11-17,18:40:02,18:57:57,NA,incomplete,102,color,0,0,left,Blue_Plus_Dots_1.jpg,Blue_Circle_Stripes_2.jpg,Green_Star_Grid_1.jpg,left,752.3599999840371,true,low,NA,NA,NA,NA,NA,NA,NA,false
341wNRlk,39tx062qy41yb4nrucnyjag7oeq3xx,3quo65dnqy1x39kcz715cqb62qqoug,341wNRlk,2020-0188,2020-11-17,18:40:02,18:57:57,NA,incomplete,103,color,0,1,left,Blue_Star_Grid_2.jpg,Blue_Circle_Chess_4.jpg,Red_Triangle_Dots_2.jpg,left,596.350000007078,true,low,NA,NA,NA,NA,NA,NA,NA,false
341wNRlk,39tx062qy41yb4nrucnyjag7oeq3xx,3quo65dnqy1x39kcz715cqb62qqoug,341wNRlk,2020-0188,2020-11-17,18:40:02,18:57:57,NA,incomplete,104,color,0,1,left,Green_Triangle_Stripes_2.jpg,Green_Circle_Grid_1.jpg,Red_Plus_Dots_2.jpg,left,648.3650000300258,true,low,NA,NA,NA,NA,NA,NA,NA,false
341wNRlk,39tx062qy41yb4nrucnyjag7oeq3xx,3quo65dnqy1x39kcz715cqb62qqoug,341wNRlk,2020-0188,2020-11-17,18:40:02,18:57:57,NA,incomplete,105,color,0,0,right,Red_Plus_Stripes_3.jpg,Blue_Star_Grid_3.jpg,Red_Circle_Dots_1.jpg,right,676.9199999980628,true,low,NA,NA,NA,NA,NA,NA,NA,false
341wNRlk,39tx062qy41yb4nrucnyjag7oeq3xx,3quo65dnqy1x39kcz715cqb62qqoug,341wNRlk,2020-0188,2020-11-17,18:40:02,18:57:57,NA,incomplete,106,color,0,1,left,Red_Triangle_Chess_4.jpg,Red_Circle_Dots_3.jpg,Blue_Plus_Stripes_4.jpg,left,926.5200000372715,true,low,NA,NA,NA,NA,NA,NA,NA,false
341wNRlk,39tx062qy41yb4nrucnyjag7oeq3xx,3quo65dnqy1x39kcz715cqb62qqoug,341wNRlk,2020-0188,2020-11-17,18:40:02,18:57:57,NA,incomplete,107,color,0,1,left,Red_Circle_Grid_3.jpg,Red_Triangle_Dots_1.jpg,Blue_Star_Chess_3.jpg,right,878.740000014659,false,low,NA,NA,NA,NA,NA,NA,NA,false
341wNRlk,39tx062qy41yb4nrucnyjag7oeq3xx,3quo65dnqy1x39kcz715cqb62qqoug,341wNRlk,2020-0188,2020-11-17,18:40:02,18:57:57,NA,incomplete,108,color,0,0,left,Red_Triangle_Stripes_2.jpg,Red_Plus_Chess_3.jpg,Purple_Circle_Dots_2.jpg,left,1142.534999991767,true,low,NA,NA,NA,NA,NA,NA,NA,false
341wNRlk,39tx062qy41yb4nrucnyjag7oeq3xx,3quo65dnqy1x39kcz715cqb62qqoug,341wNRlk,2020-0188,2020-11-17,18:40:02,18:57:57,NA,incomplete,109,color,0,1,left,Blue_Triangle_Stripes_2.jpg,Blue_Star_Dots_3.jpg,Purple_Circle_Grid_2.jpg,left,1390.1800000458024,true,low,NA,NA,NA,NA,NA,NA,NA,false
341wNRlk,39tx062qy41yb4nrucnyjag7oeq3xx,3quo65dnqy1x39kcz715cqb62qqoug,341wNRlk,2020-0188,2020-11-17,18:40:02,18:57:57,NA,incomplete,110,number,1,1,right,Purple_Triangle_Dots_1.jpg,Purple_Plus_Chess_2.jpg,Blue_Star_Grid_1.jpg,right,1017.2549999551848,true,low,NA,NA,NA,NA,NA,NA,NA,false
341wNRlk,39tx062qy41yb4nrucnyjag7oeq3xx,3quo65dnqy1x39kcz715cqb62qqoug,341wNRlk,2020-0188,2020-11-17,18:40:02,18:57:57,NA,incomplete,111,number,1,1,right,Blue_Plus_Dots_3.jpg,Blue_Star_Chess_1.jpg,Red_Circle_Stripes_3.jpg,left,1024.5299999951385,false,low,NA,NA,NA,NA,NA,NA,NA,false
341wNRlk,39tx062qy41yb4nrucnyjag7oeq3xx,3quo65dnqy1x39kcz715cqb62qqoug,341wNRlk,2020-0188,2020-11-17,18:40:02,18:57:57,NA,incomplete,112,number,1,1,right,Blue_Triangle_Grid_2.jpg,Blue_Plus_Chess_1.jpg,Green_Star_Dots_2.jpg,left,777.1949999732897,false,low,NA,NA,NA,NA,NA,NA,NA,false
341wNRlk,39tx062qy41yb4nrucnyjag7oeq3xx,3quo65dnqy1x39kcz715cqb62qqoug,341wNRlk,2020-0188,2020-11-17,18:40:02,18:57:57,NA,incomplete,113,number,1,1,right,Blue_Triangle_Chess_1.jpg,Blue_Plus_Dots_2.jpg,Green_Star_Stripes_1.jpg,right,623.8799999700859,true,low,NA,NA,NA,NA,NA,NA,NA,false
341wNRlk,39tx062qy41yb4nrucnyjag7oeq3xx,3quo65dnqy1x39kcz715cqb62qqoug,341wNRlk,2020-0188,2020-11-17,18:40:02,18:57:57,NA,incomplete,114,number,1,1,left,Green_Triangle_Stripes_3.jpg,Blue_Circle_Dots_3.jpg,Green_Plus_Grid_1.jpg,left,1602.004999993369,true,low,NA,NA,NA,NA,NA,NA,NA,false
341wNRlk,39tx062qy41yb4nrucnyjag7oeq3xx,3quo65dnqy1x39kcz715cqb62qqoug,341wNRlk,2020-0188,2020-11-17,18:40:02,18:57:57,NA,incomplete,115,number,1,0,right,Red_Circle_Stripes_3.jpg,Red_Plus_Dots_1.jpg,Blue_Star_Grid_3.jpg,right,863.0850000190549,true,low,NA,NA,NA,NA,NA,NA,NA,false
341wNRlk,39tx062qy41yb4nrucnyjag7oeq3xx,3quo65dnqy1x39kcz715cqb62qqoug,341wNRlk,2020-0188,2020-11-17,18:40:02,18:57:57,NA,incomplete,116,number,1,1,left,Red_Plus_Grid_1.jpg,Green_Triangle_Chess_1.jpg,Red_Circle_Dots_3.jpg,right,618.8149999943562,false,low,NA,NA,NA,NA,NA,NA,NA,false
341wNRlk,39tx062qy41yb4nrucnyjag7oeq3xx,3quo65dnqy1x39kcz715cqb62qqoug,341wNRlk,2020-0188,2020-11-17,18:40:02,18:57:57,NA,incomplete,117,number,1,1,right,Green_Circle_Chess_3.jpg,Green_Star_Grid_2.jpg,Purple_Triangle_Stripes_3.jpg,right,1476.3650000095367,true,low,NA,NA,NA,NA,NA,NA,NA,false
341wNRlk,39tx062qy41yb4nrucnyjag7oeq3xx,3quo65dnqy1x39kcz715cqb62qqoug,341wNRlk,2020-0188,2020-11-17,18:40:02,18:57:57,NA,incomplete,118,number,1,1,left,Blue_Triangle_Grid_2.jpg,Red_Plus_Chess_2.jpg,Blue_Circle_Stripes_1.jpg,left,846.4549999916926,true,low,NA,NA,NA,NA,NA,NA,NA,false
341wNRlk,39tx062qy41yb4nrucnyjag7oeq3xx,3quo65dnqy1x39kcz715cqb62qqoug,341wNRlk,2020-0188,2020-11-17,18:40:02,18:57:57,NA,incomplete,119,number,1,0,left,Blue_Plus_Chess_2.jpg,Red_Circle_Stripes_2.jpg,Blue_Triangle_Dots_4.jpg,left,1121.964999998454,true,low,NA,NA,NA,NA,NA,NA,NA,false
341wNRlk,39tx062qy41yb4nrucnyjag7oeq3xx,3quo65dnqy1x39kcz715cqb62qqoug,341wNRlk,2020-0188,2020-11-17,18:40:02,18:57:57,NA,incomplete,120,gender,2,1,left,C_F_16.jpg,A_F_07.jpg,C_M_12.jpg,NA,NA,NA,low,NA,NA,NA,NA,NA,NA,NA,false
341wNRlk,39tx062qy41yb4nrucnyjag7oeq3xx,3quo65dnqy1x39kcz715cqb62qqoug,341wNRlk,2020-0188,2020-11-17,18:40:02,18:57:57,NA,incomplete,121,gender,2,1,right,C_F_04.jpg,C_M_06.jpg,A_F_14.jpg,right,1682.53500002902,true,low,NA,NA,NA,NA,NA,NA,NA,false
341wNRlk,39tx062qy41yb4nrucnyjag7oeq3xx,3quo65dnqy1x39kcz715cqb62qqoug,341wNRlk,2020-0188,2020-11-17,18:40:02,18:57:57,NA,incomplete,122,gender,2,1,right,C_M_12.jpg,C_F_03.jpg,A_M_05.jpg,right,1059.6800000057556,true,low,NA,NA,NA,NA,NA,NA,NA,false
341wNRlk,39tx062qy41yb4nrucnyjag7oeq3xx,3quo65dnqy1x39kcz715cqb62qqoug,341wNRlk,2020-0188,2020-11-17,18:40:02,18:57:57,NA,incomplete,123,gender,2,1,right,A_M_09.jpg,A_F_14.jpg,C_M_04.jpg,right,1357.6650000177324,true,low,NA,NA,NA,NA,NA,NA,NA,false
341wNRlk,39tx062qy41yb4nrucnyjag7oeq3xx,3quo65dnqy1x39kcz715cqb62qqoug,341wNRlk,2020-0188,2020-11-17,18:40:02,18:57:57,NA,incomplete,124,gender,2,1,left,C_M_14.jpg,A_M_05.jpg,C_F_16.jpg,left,933.4600000292994,true,low,NA,NA,NA,NA,NA,NA,NA,false
341wNRlk,39tx062qy41yb4nrucnyjag7oeq3xx,3quo65dnqy1x39kcz715cqb62qqoug,341wNRlk,2020-0188,2020-11-17,18:40:02,18:57:57,NA,incomplete,125,gender,2,1,right,C_F_10.jpg,C_M_13.jpg,A_F_09.jpg,right,1178.5699999891222,true,low,NA,NA,NA,NA,NA,NA,NA,false
341wNRlk,39tx062qy41yb4nrucnyjag7oeq3xx,3quo65dnqy1x39kcz715cqb62qqoug,341wNRlk,2020-0188,2020-11-17,18:40:02,18:57:57,NA,incomplete,126,gender,2,1,left,C_F_10.jpg,A_F_12.jpg,C_M_16.jpg,left,1063.5800000163727,true,low,NA,NA,NA,NA,NA,NA,NA,false
341wNRlk,39tx062qy41yb4nrucnyjag7oeq3xx,3quo65dnqy1x39kcz715cqb62qqoug,341wNRlk,2020-0188,2020-11-17,18:40:02,18:57:57,NA,incomplete,127,gender,2,1,left,C_F_04.jpg,A_F_05.jpg,C_M_10.jpg,left,843.2100000209175,true,low,NA,NA,NA,NA,NA,NA,NA,false
341wNRlk,39tx062qy41yb4nrucnyjag7oeq3xx,3quo65dnqy1x39kcz715cqb62qqoug,341wNRlk,2020-0188,2020-11-17,18:40:02,18:57:57,NA,incomplete,128,gender,2,0,right,C_F_14.jpg,C_M_08.jpg,A_F_09.jpg,right,837.4949999852106,true,low,NA,NA,NA,NA,NA,NA,NA,false
341wNRlk,39tx062qy41yb4nrucnyjag7oeq3xx,3quo65dnqy1x39kcz715cqb62qqoug,341wNRlk,2020-0188,2020-11-17,18:40:02,18:57:57,NA,incomplete,129,gender,2,1,right,A_F_16.jpg,A_M_06.jpg,C_F_01.jpg,right,937.9049999988638,true,low,NA,NA,NA,NA,NA,NA,NA,false
341wNRlk,39tx062qy41yb4nrucnyjag7oeq3xx,3quo65dnqy1x39kcz715cqb62qqoug,341wNRlk,2020-0188,2020-11-17,18:40:02,18:57:57,NA,incomplete,130,gender,2,1,right,A_M_02.jpg,A_F_11.jpg,C_M_10.jpg,right,1423.2199999969453,true,low,NA,NA,NA,NA,NA,NA,NA,false
341wNRlk,39tx062qy41yb4nrucnyjag7oeq3xx,3quo65dnqy1x39kcz715cqb62qqoug,341wNRlk,2020-0188,2020-11-17,18:40:02,18:57:57,NA,incomplete,131,gender,2,0,right,A_F_06.jpg,A_M_16.jpg,C_F_03.jpg,right,866.9549999758601,true,low,NA,NA,NA,NA,NA,NA,NA,false
341wNRlk,39tx062qy41yb4nrucnyjag7oeq3xx,3quo65dnqy1x39kcz715cqb62qqoug,341wNRlk,2020-0188,2020-11-17,18:40:02,18:57:57,NA,incomplete,132,gender,2,1,left,A_M_04.jpg,C_M_05.jpg,A_F_14.jpg,left,1013.745000003837,true,low,NA,NA,NA,NA,NA,NA,NA,false
341wNRlk,39tx062qy41yb4nrucnyjag7oeq3xx,3quo65dnqy1x39kcz715cqb62qqoug,341wNRlk,2020-0188,2020-11-17,18:40:02,18:57:57,NA,incomplete,133,gender,2,1,right,C_F_16.jpg,C_M_09.jpg,A_F_10.jpg,right,842.5399999832734,true,low,NA,NA,NA,NA,NA,NA,NA,false
341wNRlk,39tx062qy41yb4nrucnyjag7oeq3xx,3quo65dnqy1x39kcz715cqb62qqoug,341wNRlk,2020-0188,2020-11-17,18:40:02,18:57:57,NA,incomplete,134,gender,2,1,left,C_F_04.jpg,A_F_14.jpg,C_M_08.jpg,left,964.9099999805912,true,low,NA,NA,NA,NA,NA,NA,NA,false
341wNRlk,39tx062qy41yb4nrucnyjag7oeq3xx,3quo65dnqy1x39kcz715cqb62qqoug,341wNRlk,2020-0188,2020-11-17,18:40:02,18:57:57,NA,incomplete,135,gender,2,1,right,A_M_13.jpg,A_F_06.jpg,C_M_09.jpg,right,1201.8300000345334,true,low,NA,NA,NA,NA,NA,NA,NA,false
341wNRlk,39tx062qy41yb4nrucnyjag7oeq3xx,3quo65dnqy1x39kcz715cqb62qqoug,341wNRlk,2020-0188,2020-11-17,18:40:02,18:57:57,NA,incomplete,136,gender,2,1,left,A_M_06.jpg,C_M_02.jpg,A_F_10.jpg,left,958.4499999764375,true,low,NA,NA,NA,NA,NA,NA,NA,false
341wNRlk,39tx062qy41yb4nrucnyjag7oeq3xx,3quo65dnqy1x39kcz715cqb62qqoug,341wNRlk,2020-0188,2020-11-17,18:40:02,18:57:57,NA,incomplete,137,gender,2,1,left,C_F_08.jpg,A_F_09.jpg,C_M_01.jpg,left,1030.190000019502,true,low,NA,NA,NA,NA,NA,NA,NA,false
341wNRlk,39tx062qy41yb4nrucnyjag7oeq3xx,3quo65dnqy1x39kcz715cqb62qqoug,341wNRlk,2020-0188,2020-11-17,18:40:02,18:57:57,NA,incomplete,138,gender,2,0,left,C_F_13.jpg,A_F_04.jpg,C_M_09.jpg,left,744.8899999726564,true,low,NA,NA,NA,NA,NA,NA,NA,false
341wNRlk,39tx062qy41yb4nrucnyjag7oeq3xx,3quo65dnqy1x39kcz715cqb62qqoug,341wNRlk,2020-0188,2020-11-17,18:40:02,18:57:57,NA,incomplete,139,gender,2,1,right,A_M_16.jpg,A_F_09.jpg,C_M_05.jpg,right,784.0600000345148,true,low,NA,NA,NA,NA,NA,NA,NA,false
341wNRlk,39tx062qy41yb4nrucnyjag7oeq3xx,3quo65dnqy1x39kcz715cqb62qqoug,341wNRlk,2020-0188,2020-11-17,18:40:02,18:57:57,NA,incomplete,140,race,3,0,left,C_M_12.jpg,C_F_08.jpg,A_M_02.jpg,right,661.8100000196137,false,low,NA,NA,NA,NA,NA,NA,NA,false
341wNRlk,39tx062qy41yb4nrucnyjag7oeq3xx,3quo65dnqy1x39kcz715cqb62qqoug,341wNRlk,2020-0188,2020-11-17,18:40:02,18:57:57,NA,incomplete,141,race,3,1,left,C_F_10.jpg,C_M_01.jpg,A_F_11.jpg,right,1207.909999997355,false,low,NA,NA,NA,NA,NA,NA,NA,false
341wNRlk,39tx062qy41yb4nrucnyjag7oeq3xx,3quo65dnqy1x39kcz715cqb62qqoug,341wNRlk,2020-0188,2020-11-17,18:40:02,18:57:57,NA,incomplete,142,race,3,0,right,C_M_04.jpg,A_M_10.jpg,C_F_14.jpg,left,822.4300000001676,false,low,NA,NA,NA,NA,NA,NA,NA,false
341wNRlk,39tx062qy41yb4nrucnyjag7oeq3xx,3quo65dnqy1x39kcz715cqb62qqoug,341wNRlk,2020-0188,2020-11-17,18:40:02,18:57:57,NA,incomplete,143,race,3,1,left,C_F_15.jpg,C_M_12.jpg,A_F_13.jpg,right,774.7899999958463,false,low,NA,NA,NA,NA,NA,NA,NA,false
341wNRlk,39tx062qy41yb4nrucnyjag7oeq3xx,3quo65dnqy1x39kcz715cqb62qqoug,341wNRlk,2020-0188,2020-11-17,18:40:02,18:57:57,NA,incomplete,144,race,3,1,right,A_M_14.jpg,C_M_09.jpg,A_F_11.jpg,left,883.7000000057742,false,low,NA,NA,NA,NA,NA,NA,NA,false
341wNRlk,39tx062qy41yb4nrucnyjag7oeq3xx,3quo65dnqy1x39kcz715cqb62qqoug,341wNRlk,2020-0188,2020-11-17,18:40:02,18:57:57,NA,incomplete,145,race,3,1,left,A_F_09.jpg,A_M_14.jpg,C_F_04.jpg,right,782.1600000024773,false,low,NA,NA,NA,NA,NA,NA,NA,false
341wNRlk,39tx062qy41yb4nrucnyjag7oeq3xx,3quo65dnqy1x39kcz715cqb62qqoug,341wNRlk,2020-0188,2020-11-17,18:40:02,18:57:57,NA,incomplete,146,race,3,1,right,C_M_15.jpg,A_M_01.jpg,C_F_08.jpg,left,858.1949999788776,false,low,NA,NA,NA,NA,NA,NA,NA,false
341wNRlk,39tx062qy41yb4nrucnyjag7oeq3xx,3quo65dnqy1x39kcz715cqb62qqoug,341wNRlk,2020-0188,2020-11-17,18:40:02,18:57:57,NA,incomplete,147,race,3,1,left,A_F_16.jpg,A_M_07.jpg,C_F_15.jpg,left,1445.8499999600463,true,low,NA,NA,NA,NA,NA,NA,NA,false
341wNRlk,39tx062qy41yb4nrucnyjag7oeq3xx,3quo65dnqy1x39kcz715cqb62qqoug,341wNRlk,2020-0188,2020-11-17,18:40:02,18:57:57,NA,incomplete,148,race,3,1,right,A_F_01.jpg,C_F_13.jpg,A_M_02.jpg,none,0,false,low,NA,NA,NA,NA,NA,NA,NA,false
341wNRlk,39tx062qy41yb4nrucnyjag7oeq3xx,3quo65dnqy1x39kcz715cqb62qqoug,341wNRlk,2020-0188,2020-11-17,18:40:02,18:57:57,NA,incomplete,149,race,3,1,right,C_F_12.jpg,A_F_03.jpg,C_M_08.jpg,left,1695.1349999872036,false,low,NA,NA,NA,NA,NA,NA,NA,false
341wNRlk,39tx062qy41yb4nrucnyjag7oeq3xx,3quo65dnqy1x39kcz715cqb62qqoug,341wNRlk,2020-0188,2020-11-17,18:40:02,18:57:57,NA,incomplete,150,race,3,0,right,A_F_08.jpg,C_F_09.jpg,A_M_15.jpg,right,1513.0699999863282,true,low,NA,NA,NA,NA,NA,NA,NA,false
341wNRlk,39tx062qy41yb4nrucnyjag7oeq3xx,3quo65dnqy1x39kcz715cqb62qqoug,341wNRlk,2020-0188,2020-11-17,18:40:02,18:57:57,NA,incomplete,151,race,3,1,left,C_M_10.jpg,C_F_05.jpg,A_M_13.jpg,right,936.3750000484288,false,low,NA,NA,NA,NA,NA,NA,NA,false
341wNRlk,39tx062qy41yb4nrucnyjag7oeq3xx,3quo65dnqy1x39kcz715cqb62qqoug,341wNRlk,2020-0188,2020-11-17,18:40:02,18:57:57,NA,incomplete,152,race,3,1,left,A_M_08.jpg,A_F_16.jpg,C_M_06.jpg,left,1255.6850000401028,true,low,NA,NA,NA,NA,NA,NA,NA,false
341wNRlk,39tx062qy41yb4nrucnyjag7oeq3xx,3quo65dnqy1x39kcz715cqb62qqoug,341wNRlk,2020-0188,2020-11-17,18:40:02,18:57:57,NA,incomplete,153,race,3,0,left,C_M_08.jpg,C_F_02.jpg,A_M_15.jpg,left,1513.9150000177324,true,low,NA,NA,NA,NA,NA,NA,NA,false
341wNRlk,39tx062qy41yb4nrucnyjag7oeq3xx,3quo65dnqy1x39kcz715cqb62qqoug,341wNRlk,2020-0188,2020-11-17,18:40:02,18:57:57,NA,incomplete,154,race,3,1,left,A_M_06.jpg,A_F_16.jpg,C_M_01.jpg,right,995.664999994915,false,low,NA,NA,NA,NA,NA,NA,NA,false
341wNRlk,39tx062qy41yb4nrucnyjag7oeq3xx,3quo65dnqy1x39kcz715cqb62qqoug,341wNRlk,2020-0188,2020-11-17,18:40:02,18:57:57,NA,incomplete,155,race,3,1,right,A_M_14.jpg,C_M_13.jpg,A_F_03.jpg,right,1335.224999987986,true,low,NA,NA,NA,NA,NA,NA,NA,false
341wNRlk,39tx062qy41yb4nrucnyjag7oeq3xx,3quo65dnqy1x39kcz715cqb62qqoug,341wNRlk,2020-0188,2020-11-17,18:40:02,18:57:57,NA,incomplete,156,race,3,1,right,C_F_13.jpg,A_F_02.jpg,C_M_04.jpg,right,1622.2599999746308,true,low,NA,NA,NA,NA,NA,NA,NA,false
341wNRlk,39tx062qy41yb4nrucnyjag7oeq3xx,3quo65dnqy1x39kcz715cqb62qqoug,341wNRlk,2020-0188,2020-11-17,18:40:02,18:57:57,NA,incomplete,157,race,3,1,left,C_F_16.jpg,C_M_03.jpg,A_F_15.jpg,left,1778.6949999863282,true,low,NA,NA,NA,NA,NA,NA,NA,false
341wNRlk,39tx062qy41yb4nrucnyjag7oeq3xx,3quo65dnqy1x39kcz715cqb62qqoug,341wNRlk,2020-0188,2020-11-17,18:40:02,18:57:57,NA,incomplete,158,race,3,1,right,A_M_12.jpg,C_M_08.jpg,A_F_11.jpg,right,1105.9600000153296,true,low,NA,NA,NA,NA,NA,NA,NA,false
341wNRlk,39tx062qy41yb4nrucnyjag7oeq3xx,3quo65dnqy1x39kcz715cqb62qqoug,341wNRlk,2020-0188,2020-11-17,18:40:02,18:57:57,NA,incomplete,159,race,3,1,right,A_M_06.jpg,C_M_09.jpg,A_F_05.jpg,right,1176.1050000204705,true,low,NA,NA,NA,NA,NA,NA,NA,false
341wNRlk,39tx062qy41yb4nrucnyjag7oeq3xx,3quo65dnqy1x39kcz715cqb62qqoug,341wNRlk,2020-0188,2020-11-17,18:40:02,18:57:57,NA,incomplete,160,gender,2,1,left,A_F_05.jpg,C_F_10.jpg,A_M_11.jpg,right,1342.2600000048988,false,low,NA,NA,NA,NA,NA,NA,NA,false
341wNRlk,39tx062qy41yb4nrucnyjag7oeq3xx,3quo65dnqy1x39kcz715cqb62qqoug,341wNRlk,2020-0188,2020-11-17,18:40:02,18:57:57,NA,incomplete,161,gender,2,1,left,C_F_09.jpg,A_F_15.jpg,C_M_16.jpg,left,724.4150000042282,true,low,NA,NA,NA,NA,NA,NA,NA,false
341wNRlk,39tx062qy41yb4nrucnyjag7oeq3xx,3quo65dnqy1x39kcz715cqb62qqoug,341wNRlk,2020-0188,2020-11-17,18:40:02,18:57:57,NA,incomplete,162,gender,2,1,left,A_M_06.jpg,C_M_07.jpg,A_F_14.jpg,left,1005.5949999950826,true,low,NA,NA,NA,NA,NA,NA,NA,false
341wNRlk,39tx062qy41yb4nrucnyjag7oeq3xx,3quo65dnqy1x39kcz715cqb62qqoug,341wNRlk,2020-0188,2020-11-17,18:40:02,18:57:57,NA,incomplete,163,gender,2,1,right,A_M_15.jpg,A_F_05.jpg,C_M_09.jpg,right,1273.0899999733083,true,low,NA,NA,NA,NA,NA,NA,NA,false
341wNRlk,39tx062qy41yb4nrucnyjag7oeq3xx,3quo65dnqy1x39kcz715cqb62qqoug,341wNRlk,2020-0188,2020-11-17,18:40:02,18:57:57,NA,incomplete,164,gender,2,1,right,C_M_06.jpg,C_F_13.jpg,A_M_05.jpg,right,754.4399999896996,true,low,NA,NA,NA,NA,NA,NA,NA,false
341wNRlk,39tx062qy41yb4nrucnyjag7oeq3xx,3quo65dnqy1x39kcz715cqb62qqoug,341wNRlk,2020-0188,2020-11-17,18:40:02,18:57:57,NA,incomplete,165,gender,2,1,left,A_F_16.jpg,C_F_05.jpg,A_M_10.jpg,left,992.9000000120141,true,low,NA,NA,NA,NA,NA,NA,NA,false
341wNRlk,39tx062qy41yb4nrucnyjag7oeq3xx,3quo65dnqy1x39kcz715cqb62qqoug,341wNRlk,2020-0188,2020-11-17,18:40:02,18:57:57,NA,incomplete,166,gender,2,1,left,A_M_14.jpg,C_M_13.jpg,A_F_03.jpg,left,1206.6200000117533,true,low,NA,NA,NA,NA,NA,NA,NA,false
341wNRlk,39tx062qy41yb4nrucnyjag7oeq3xx,3quo65dnqy1x39kcz715cqb62qqoug,341wNRlk,2020-0188,2020-11-17,18:40:02,18:57:57,NA,incomplete,167,gender,2,1,left,C_F_11.jpg,A_F_06.jpg,C_M_02.jpg,left,1128.9550000219606,true,low,NA,NA,NA,NA,NA,NA,NA,false
341wNRlk,39tx062qy41yb4nrucnyjag7oeq3xx,3quo65dnqy1x39kcz715cqb62qqoug,341wNRlk,2020-0188,2020-11-17,18:40:02,18:57:57,NA,incomplete,168,gender,2,1,left,C_M_01.jpg,A_M_03.jpg,C_F_06.jpg,left,721.0399999748915,true,low,NA,NA,NA,NA,NA,NA,NA,false
341wNRlk,39tx062qy41yb4nrucnyjag7oeq3xx,3quo65dnqy1x39kcz715cqb62qqoug,341wNRlk,2020-0188,2020-11-17,18:40:02,18:57:57,NA,incomplete,169,gender,2,1,right,C_F_06.jpg,C_M_16.jpg,A_F_15.jpg,right,671.2999999872409,true,low,NA,NA,NA,NA,NA,NA,NA,false
341wNRlk,39tx062qy41yb4nrucnyjag7oeq3xx,3quo65dnqy1x39kcz715cqb62qqoug,341wNRlk,2020-0188,2020-11-17,18:40:02,18:57:57,NA,incomplete,170,gender,2,1,right,C_M_07.jpg,C_F_12.jpg,A_M_11.jpg,right,834.7000000067055,true,low,NA,NA,NA,NA,NA,NA,NA,false
341wNRlk,39tx062qy41yb4nrucnyjag7oeq3xx,3quo65dnqy1x39kcz715cqb62qqoug,341wNRlk,2020-0188,2020-11-17,18:40:02,18:57:57,NA,incomplete,171,gender,2,1,left,C_F_10.jpg,A_F_16.jpg,C_M_13.jpg,left,790.7750000013039,true,low,NA,NA,NA,NA,NA,NA,NA,false
341wNRlk,39tx062qy41yb4nrucnyjag7oeq3xx,3quo65dnqy1x39kcz715cqb62qqoug,341wNRlk,2020-0188,2020-11-17,18:40:02,18:57:57,NA,incomplete,172,gender,2,0,right,C_F_10.jpg,C_M_08.jpg,A_F_04.jpg,right,778.7249999819323,true,low,NA,NA,NA,NA,NA,NA,NA,false
341wNRlk,39tx062qy41yb4nrucnyjag7oeq3xx,3quo65dnqy1x39kcz715cqb62qqoug,341wNRlk,2020-0188,2020-11-17,18:40:02,18:57:57,NA,incomplete,173,gender,2,1,left,A_M_07.jpg,C_M_13.jpg,A_F_14.jpg,left,992.534999968484,true,low,NA,NA,NA,NA,NA,NA,NA,false
341wNRlk,39tx062qy41yb4nrucnyjag7oeq3xx,3quo65dnqy1x39kcz715cqb62qqoug,341wNRlk,2020-0188,2020-11-17,18:40:02,18:57:57,NA,incomplete,174,gender,2,1,right,C_M_01.jpg,C_F_09.jpg,A_M_15.jpg,right,821.7399999848567,true,low,NA,NA,NA,NA,NA,NA,NA,false
341wNRlk,39tx062qy41yb4nrucnyjag7oeq3xx,3quo65dnqy1x39kcz715cqb62qqoug,341wNRlk,2020-0188,2020-11-17,18:40:02,18:57:57,NA,incomplete,175,gender,2,1,right,C_F_13.jpg,C_M_02.jpg,A_F_06.jpg,right,1064.5500000100583,true,low,NA,NA,NA,NA,NA,NA,NA,false
341wNRlk,39tx062qy41yb4nrucnyjag7oeq3xx,3quo65dnqy1x39kcz715cqb62qqoug,341wNRlk,2020-0188,2020-11-17,18:40:02,18:57:57,NA,incomplete,176,gender,2,1,right,C_M_03.jpg,C_F_05.jpg,A_M_11.jpg,right,884.4849999877624,true,low,NA,NA,NA,NA,NA,NA,NA,false
341wNRlk,39tx062qy41yb4nrucnyjag7oeq3xx,3quo65dnqy1x39kcz715cqb62qqoug,341wNRlk,2020-0188,2020-11-17,18:40:02,18:57:57,NA,incomplete,177,gender,2,0,left,C_F_07.jpg,A_F_06.jpg,C_M_16.jpg,left,940.7699999865144,true,low,NA,NA,NA,NA,NA,NA,NA,false
341wNRlk,39tx062qy41yb4nrucnyjag7oeq3xx,3quo65dnqy1x39kcz715cqb62qqoug,341wNRlk,2020-0188,2020-11-17,18:40:02,18:57:57,NA,incomplete,178,gender,2,1,right,A_M_12.jpg,A_F_03.jpg,C_M_15.jpg,right,1082.4700000230223,true,low,NA,NA,NA,NA,NA,NA,NA,false
341wNRlk,39tx062qy41yb4nrucnyjag7oeq3xx,3quo65dnqy1x39kcz715cqb62qqoug,341wNRlk,2020-0188,2020-11-17,18:40:02,18:57:57,NA,incomplete,179,gender,2,1,right,C_F_12.jpg,C_M_15.jpg,A_F_10.jpg,left,1237.4849999905564,false,low,NA,NA,NA,NA,NA,NA,NA,false
341wNRlk,39tx062qy41yb4nrucnyjag7oeq3xx,3quo65dnqy1x39kcz715cqb62qqoug,341wNRlk,2020-0188,2020-11-17,18:40:02,18:57:57,NA,incomplete,180,race,3,1,right,A_F_08.jpg,C_F_07.jpg,A_M_16.jpg,left,984.0050000348128,false,low,NA,NA,NA,NA,NA,NA,NA,false
341wNRlk,39tx062qy41yb4nrucnyjag7oeq3xx,3quo65dnqy1x39kcz715cqb62qqoug,341wNRlk,2020-0188,2020-11-17,18:40:02,18:57:57,NA,incomplete,181,race,3,0,right,C_F_15.jpg,A_F_05.jpg,C_M_07.jpg,left,732.7299999888055,false,low,NA,NA,NA,NA,NA,NA,NA,false
341wNRlk,39tx062qy41yb4nrucnyjag7oeq3xx,3quo65dnqy1x39kcz715cqb62qqoug,341wNRlk,2020-0188,2020-11-17,18:40:02,18:57:57,NA,incomplete,182,race,3,1,right,C_M_16.jpg,A_M_01.jpg,C_F_10.jpg,left,947.8750000125729,false,low,NA,NA,NA,NA,NA,NA,NA,false
341wNRlk,39tx062qy41yb4nrucnyjag7oeq3xx,3quo65dnqy1x39kcz715cqb62qqoug,341wNRlk,2020-0188,2020-11-17,18:40:02,18:57:57,NA,incomplete,183,race,3,1,right,C_M_05.jpg,A_M_14.jpg,C_F_08.jpg,left,683.0149999586865,false,low,NA,NA,NA,NA,NA,NA,NA,false
341wNRlk,39tx062qy41yb4nrucnyjag7oeq3xx,3quo65dnqy1x39kcz715cqb62qqoug,341wNRlk,2020-0188,2020-11-17,18:40:02,18:57:57,NA,incomplete,184,race,3,1,right,A_M_01.jpg,C_M_08.jpg,A_F_09.jpg,right,1093.094999960158,true,low,NA,NA,NA,NA,NA,NA,NA,false
341wNRlk,39tx062qy41yb4nrucnyjag7oeq3xx,3quo65dnqy1x39kcz715cqb62qqoug,341wNRlk,2020-0188,2020-11-17,18:40:02,18:57:57,NA,incomplete,185,race,3,1,right,A_M_02.jpg,C_M_09.jpg,A_F_05.jpg,right,1141.3900000043213,true,low,NA,NA,NA,NA,NA,NA,NA,false
341wNRlk,39tx062qy41yb4nrucnyjag7oeq3xx,3quo65dnqy1x39kcz715cqb62qqoug,341wNRlk,2020-0188,2020-11-17,18:40:02,18:57:57,NA,incomplete,186,race,3,0,left,C_M_16.jpg,C_F_12.jpg,A_M_10.jpg,left,1651.9249999546446,true,low,NA,NA,NA,NA,NA,NA,NA,false
341wNRlk,39tx062qy41yb4nrucnyjag7oeq3xx,3quo65dnqy1x39kcz715cqb62qqoug,341wNRlk,2020-0188,2020-11-17,18:40:02,18:57:57,NA,incomplete,187,race,3,1,left,A_M_13.jpg,A_F_01.jpg,C_M_16.jpg,left,1199.6449999860488,true,low,NA,NA,NA,NA,NA,NA,NA,false
341wNRlk,39tx062qy41yb4nrucnyjag7oeq3xx,3quo65dnqy1x39kcz715cqb62qqoug,341wNRlk,2020-0188,2020-11-17,18:40:02,18:57:57,NA,incomplete,188,race,3,0,right,A_M_02.jpg,C_M_12.jpg,A_F_03.jpg,right,980.4700000095181,true,low,NA,NA,NA,NA,NA,NA,NA,false
341wNRlk,39tx062qy41yb4nrucnyjag7oeq3xx,3quo65dnqy1x39kcz715cqb62qqoug,341wNRlk,2020-0188,2020-11-17,18:40:02,18:57:57,NA,incomplete,189,race,3,1,right,A_M_03.jpg,C_M_11.jpg,A_F_04.jpg,right,1026.1649999883957,true,low,NA,NA,NA,NA,NA,NA,NA,false
341wNRlk,39tx062qy41yb4nrucnyjag7oeq3xx,3quo65dnqy1x39kcz715cqb62qqoug,341wNRlk,2020-0188,2020-11-17,18:40:02,18:57:57,NA,incomplete,190,race,3,1,left,A_F_02.jpg,A_M_05.jpg,C_F_14.jpg,left,893.0199999595061,true,low,NA,NA,NA,NA,NA,NA,NA,false
341wNRlk,39tx062qy41yb4nrucnyjag7oeq3xx,3quo65dnqy1x39kcz715cqb62qqoug,341wNRlk,2020-0188,2020-11-17,18:40:02,18:57:57,NA,incomplete,191,race,3,1,right,C_M_11.jpg,A_M_16.jpg,C_F_07.jpg,left,1477.8349999687634,false,low,NA,NA,NA,NA,NA,NA,NA,false
341wNRlk,39tx062qy41yb4nrucnyjag7oeq3xx,3quo65dnqy1x39kcz715cqb62qqoug,341wNRlk,2020-0188,2020-11-17,18:40:02,18:57:57,NA,incomplete,192,race,3,1,right,A_F_05.jpg,C_F_02.jpg,A_M_16.jpg,right,926.8750000046566,true,low,NA,NA,NA,NA,NA,NA,NA,false
341wNRlk,39tx062qy41yb4nrucnyjag7oeq3xx,3quo65dnqy1x39kcz715cqb62qqoug,341wNRlk,2020-0188,2020-11-17,18:40:02,18:57:57,NA,incomplete,193,race,3,1,right,C_M_09.jpg,A_M_01.jpg,C_F_05.jpg,right,1128.2500000088476,true,low,NA,NA,NA,NA,NA,NA,NA,false
341wNRlk,39tx062qy41yb4nrucnyjag7oeq3xx,3quo65dnqy1x39kcz715cqb62qqoug,341wNRlk,2020-0188,2020-11-17,18:40:02,18:57:57,NA,incomplete,194,race,3,1,right,C_F_07.jpg,A_F_04.jpg,C_M_10.jpg,right,1127.199999988079,true,low,NA,NA,NA,NA,NA,NA,NA,false
341wNRlk,39tx062qy41yb4nrucnyjag7oeq3xx,3quo65dnqy1x39kcz715cqb62qqoug,341wNRlk,2020-0188,2020-11-17,18:40:02,18:57:57,NA,incomplete,195,race,3,0,right,C_F_15.jpg,A_F_11.jpg,C_M_07.jpg,left,860.9099999885075,false,low,NA,NA,NA,NA,NA,NA,NA,false
341wNRlk,39tx062qy41yb4nrucnyjag7oeq3xx,3quo65dnqy1x39kcz715cqb62qqoug,341wNRlk,2020-0188,2020-11-17,18:40:02,18:57:57,NA,incomplete,196,race,3,1,left,A_M_11.jpg,A_F_13.jpg,C_M_05.jpg,right,896.1949999793433,false,low,NA,NA,NA,NA,NA,NA,NA,false
341wNRlk,39tx062qy41yb4nrucnyjag7oeq3xx,3quo65dnqy1x39kcz715cqb62qqoug,341wNRlk,2020-0188,2020-11-17,18:40:02,18:57:57,NA,incomplete,197,race,3,0,right,C_F_14.jpg,A_F_06.jpg,C_M_16.jpg,left,1000.6649999995716,false,low,NA,NA,NA,NA,NA,NA,NA,false
341wNRlk,39tx062qy41yb4nrucnyjag7oeq3xx,3quo65dnqy1x39kcz715cqb62qqoug,341wNRlk,2020-0188,2020-11-17,18:40:02,18:57:57,NA,incomplete,198,race,3,1,right,A_M_15.jpg,C_M_01.jpg,A_F_14.jpg,left,1094.2800000193529,false,low,NA,NA,NA,NA,NA,NA,NA,false
341wNRlk,39tx062qy41yb4nrucnyjag7oeq3xx,3quo65dnqy1x39kcz715cqb62qqoug,341wNRlk,2020-0188,2020-11-17,18:40:02,18:57:57,NA,incomplete,199,race,3,1,right,C_F_16.jpg,A_F_10.jpg,C_M_07.jpg,left,814.7299999836832,false,low,NA,NA,NA,NA,NA,NA,NA,false
341wNRlk,39tx062qy41yb4nrucnyjag7oeq3xx,3quo65dnqy1x39kcz715cqb62qqoug,341wNRlk,2020-0188,2020-11-17,18:40:02,18:57:57,NA,incomplete,200,gender,2,1,left,A_F_11.jpg,C_F_01.jpg,A_M_05.jpg,right,891.1150000058115,false,low,NA,NA,NA,NA,NA,NA,NA,false
341wNRlk,39tx062qy41yb4nrucnyjag7oeq3xx,3quo65dnqy1x39kcz715cqb62qqoug,341wNRlk,2020-0188,2020-11-17,18:40:02,18:57:57,NA,incomplete,201,gender,2,1,left,A_M_15.jpg,C_M_16.jpg,A_F_07.jpg,right,996.0900000296533,false,low,NA,NA,NA,NA,NA,NA,NA,false
341wNRlk,39tx062qy41yb4nrucnyjag7oeq3xx,3quo65dnqy1x39kcz715cqb62qqoug,341wNRlk,2020-0188,2020-11-17,18:40:02,18:57:57,NA,incomplete,202,gender,2,1,left,A_M_16.jpg,C_M_05.jpg,A_F_12.jpg,right,1121.465000032913,false,low,NA,NA,NA,NA,NA,NA,NA,false
341wNRlk,39tx062qy41yb4nrucnyjag7oeq3xx,3quo65dnqy1x39kcz715cqb62qqoug,341wNRlk,2020-0188,2020-11-17,18:40:02,18:57:57,NA,incomplete,203,gender,2,1,left,A_M_03.jpg,C_M_01.jpg,A_F_12.jpg,left,711.3150000222959,true,low,NA,NA,NA,NA,NA,NA,NA,false
341wNRlk,39tx062qy41yb4nrucnyjag7oeq3xx,3quo65dnqy1x39kcz715cqb62qqoug,341wNRlk,2020-0188,2020-11-17,18:40:02,18:57:57,NA,incomplete,204,gender,2,1,right,A_M_04.jpg,A_F_16.jpg,C_M_10.jpg,right,904.610000026878,true,low,NA,NA,NA,NA,NA,NA,NA,false
341wNRlk,39tx062qy41yb4nrucnyjag7oeq3xx,3quo65dnqy1x39kcz715cqb62qqoug,341wNRlk,2020-0188,2020-11-17,18:40:02,18:57:57,NA,incomplete,205,gender,2,0,left,A_M_05.jpg,C_M_09.jpg,A_F_14.jpg,left,1265.1599999517202,true,low,NA,NA,NA,NA,NA,NA,NA,false
341wNRlk,39tx062qy41yb4nrucnyjag7oeq3xx,3quo65dnqy1x39kcz715cqb62qqoug,341wNRlk,2020-0188,2020-11-17,18:40:02,18:57:57,NA,incomplete,206,gender,2,1,right,C_M_01.jpg,C_F_11.jpg,A_M_02.jpg,right,819.6899999747984,true,low,NA,NA,NA,NA,NA,NA,NA,false
341wNRlk,39tx062qy41yb4nrucnyjag7oeq3xx,3quo65dnqy1x39kcz715cqb62qqoug,341wNRlk,2020-0188,2020-11-17,18:40:02,18:57:57,NA,incomplete,207,gender,2,0,right,C_F_05.jpg,C_M_11.jpg,A_F_10.jpg,right,878.679999965243,true,low,NA,NA,NA,NA,NA,NA,NA,false
341wNRlk,39tx062qy41yb4nrucnyjag7oeq3xx,3quo65dnqy1x39kcz715cqb62qqoug,341wNRlk,2020-0188,2020-11-17,18:40:02,18:57:57,NA,incomplete,208,gender,2,1,right,A_F_02.jpg,A_M_16.jpg,C_F_13.jpg,right,681.1849999940023,true,low,NA,NA,NA,NA,NA,NA,NA,false
341wNRlk,39tx062qy41yb4nrucnyjag7oeq3xx,3quo65dnqy1x39kcz715cqb62qqoug,341wNRlk,2020-0188,2020-11-17,18:40:02,18:57:57,NA,incomplete,209,gender,2,1,right,A_M_15.jpg,A_F_12.jpg,C_M_08.jpg,right,1161.835000035353,true,low,NA,NA,NA,NA,NA,NA,NA,false
341wNRlk,39tx062qy41yb4nrucnyjag7oeq3xx,3quo65dnqy1x39kcz715cqb62qqoug,341wNRlk,2020-0188,2020-11-17,18:40:02,18:57:57,NA,incomplete,210,gender,2,1,left,A_M_15.jpg,C_M_01.jpg,A_F_03.jpg,left,687.9600000102073,true,low,NA,NA,NA,NA,NA,NA,NA,false
341wNRlk,39tx062qy41yb4nrucnyjag7oeq3xx,3quo65dnqy1x39kcz715cqb62qqoug,341wNRlk,2020-0188,2020-11-17,18:40:02,18:57:57,NA,incomplete,211,gender,2,0,right,A_F_01.jpg,A_M_02.jpg,C_F_05.jpg,right,1089.124999998603,true,low,NA,NA,NA,NA,NA,NA,NA,false
341wNRlk,39tx062qy41yb4nrucnyjag7oeq3xx,3quo65dnqy1x39kcz715cqb62qqoug,341wNRlk,2020-0188,2020-11-17,18:40:02,18:57:57,NA,incomplete,212,gender,2,1,left,C_M_04.jpg,A_M_11.jpg,C_F_07.jpg,left,1186.0900000319816,true,low,NA,NA,NA,NA,NA,NA,NA,false
341wNRlk,39tx062qy41yb4nrucnyjag7oeq3xx,3quo65dnqy1x39kcz715cqb62qqoug,341wNRlk,2020-0188,2020-11-17,18:40:02,18:57:57,NA,incomplete,213,gender,2,1,left,C_F_12.jpg,A_F_09.jpg,C_M_06.jpg,left,686.6300000110641,true,low,NA,NA,NA,NA,NA,NA,NA,false
341wNRlk,39tx062qy41yb4nrucnyjag7oeq3xx,3quo65dnqy1x39kcz715cqb62qqoug,341wNRlk,2020-0188,2020-11-17,18:40:02,18:57:57,NA,incomplete,214,gender,2,1,left,C_F_04.jpg,A_F_07.jpg,C_M_09.jpg,left,646.5899999602698,true,low,NA,NA,NA,NA,NA,NA,NA,false
341wNRlk,39tx062qy41yb4nrucnyjag7oeq3xx,3quo65dnqy1x39kcz715cqb62qqoug,341wNRlk,2020-0188,2020-11-17,18:40:02,18:57:57,NA,incomplete,215,gender,2,1,left,A_M_12.jpg,C_M_14.jpg,A_F_05.jpg,left,922.7500000270084,true,low,NA,NA,NA,NA,NA,NA,NA,false
341wNRlk,39tx062qy41yb4nrucnyjag7oeq3xx,3quo65dnqy1x39kcz715cqb62qqoug,341wNRlk,2020-0188,2020-11-17,18:40:02,18:57:57,NA,incomplete,216,gender,2,1,right,C_F_06.jpg,C_M_09.jpg,A_F_08.jpg,right,593.010000011418,true,low,NA,NA,NA,NA,NA,NA,NA,false
341wNRlk,39tx062qy41yb4nrucnyjag7oeq3xx,3quo65dnqy1x39kcz715cqb62qqoug,341wNRlk,2020-0188,2020-11-17,18:40:02,18:57:57,NA,incomplete,217,gender,2,1,right,C_F_09.jpg,C_M_06.jpg,A_F_14.jpg,right,599.419999984093,true,low,NA,NA,NA,NA,NA,NA,NA,false
341wNRlk,39tx062qy41yb4nrucnyjag7oeq3xx,3quo65dnqy1x39kcz715cqb62qqoug,341wNRlk,2020-0188,2020-11-17,18:40:02,18:57:57,NA,incomplete,218,gender,2,1,right,C_F_08.jpg,C_M_15.jpg,A_F_01.jpg,right,683.3299999707378,true,low,NA,NA,NA,NA,NA,NA,NA,false
341wNRlk,39tx062qy41yb4nrucnyjag7oeq3xx,3quo65dnqy1x39kcz715cqb62qqoug,341wNRlk,2020-0188,2020-11-17,18:40:02,18:57:57,NA,incomplete,219,gender,2,0,left,C_M_05.jpg,A_M_03.jpg,C_F_04.jpg,left,653.35999999661,true,low,NA,NA,NA,NA,NA,NA,NA,false
341wNRlk,39tx062qy41yb4nrucnyjag7oeq3xx,3quo65dnqy1x39kcz715cqb62qqoug,341wNRlk,2020-0188,2020-11-17,18:40:02,18:57:57,NA,incomplete,220,race,3,1,left,A_F_15.jpg,A_M_06.jpg,C_F_16.jpg,right,799.2400000221096,false,low,NA,NA,NA,NA,NA,NA,NA,false
341wNRlk,39tx062qy41yb4nrucnyjag7oeq3xx,3quo65dnqy1x39kcz715cqb62qqoug,341wNRlk,2020-0188,2020-11-17,18:40:02,18:57:57,NA,incomplete,221,race,3,1,left,A_F_15.jpg,A_M_13.jpg,C_F_05.jpg,right,756.0050000320189,false,low,NA,NA,NA,NA,NA,NA,NA,false
341wNRlk,39tx062qy41yb4nrucnyjag7oeq3xx,3quo65dnqy1x39kcz715cqb62qqoug,341wNRlk,2020-0188,2020-11-17,18:40:02,18:57:57,NA,incomplete,222,race,3,0,right,A_F_08.jpg,C_F_09.jpg,A_M_11.jpg,right,1050.3499999758787,true,low,NA,NA,NA,NA,NA,NA,NA,false
341wNRlk,39tx062qy41yb4nrucnyjag7oeq3xx,3quo65dnqy1x39kcz715cqb62qqoug,341wNRlk,2020-0188,2020-11-17,18:40:02,18:57:57,NA,incomplete,223,race,3,1,left,A_F_10.jpg,A_M_12.jpg,C_F_06.jpg,left,869.574999960605,true,low,NA,NA,NA,NA,NA,NA,NA,false
341wNRlk,39tx062qy41yb4nrucnyjag7oeq3xx,3quo65dnqy1x39kcz715cqb62qqoug,341wNRlk,2020-0188,2020-11-17,18:40:02,18:57:57,NA,incomplete,224,race,3,0,right,C_M_15.jpg,A_M_08.jpg,C_F_10.jpg,right,967.2049999935552,true,low,NA,NA,NA,NA,NA,NA,NA,false
341wNRlk,39tx062qy41yb4nrucnyjag7oeq3xx,3quo65dnqy1x39kcz715cqb62qqoug,341wNRlk,2020-0188,2020-11-17,18:40:02,18:57:57,NA,incomplete,225,race,3,1,left,A_M_07.jpg,A_F_04.jpg,C_M_08.jpg,right,964.8949999827892,false,low,NA,NA,NA,NA,NA,NA,NA,false
341wNRlk,39tx062qy41yb4nrucnyjag7oeq3xx,3quo65dnqy1x39kcz715cqb62qqoug,341wNRlk,2020-0188,2020-11-17,18:40:02,18:57:57,NA,incomplete,226,race,3,0,left,A_F_10.jpg,A_M_12.jpg,C_F_09.jpg,left,1162.6199999591336,true,low,NA,NA,NA,NA,NA,NA,NA,false
341wNRlk,39tx062qy41yb4nrucnyjag7oeq3xx,3quo65dnqy1x39kcz715cqb62qqoug,341wNRlk,2020-0188,2020-11-17,18:40:02,18:57:57,NA,incomplete,227,race,3,1,left,A_F_05.jpg,A_M_12.jpg,C_F_02.jpg,left,784.1600000392646,true,low,NA,NA,NA,NA,NA,NA,NA,false
341wNRlk,39tx062qy41yb4nrucnyjag7oeq3xx,3quo65dnqy1x39kcz715cqb62qqoug,341wNRlk,2020-0188,2020-11-17,18:40:02,18:57:57,NA,incomplete,228,race,3,1,right,A_M_02.jpg,C_M_07.jpg,A_F_04.jpg,right,821.7299999669194,true,low,NA,NA,NA,NA,NA,NA,NA,false
341wNRlk,39tx062qy41yb4nrucnyjag7oeq3xx,3quo65dnqy1x39kcz715cqb62qqoug,341wNRlk,2020-0188,2020-11-17,18:40:02,18:57:57,NA,incomplete,229,race,3,1,right,C_M_04.jpg,A_M_08.jpg,C_F_13.jpg,right,1240.2149999979883,true,low,NA,NA,NA,NA,NA,NA,NA,false
341wNRlk,39tx062qy41yb4nrucnyjag7oeq3xx,3quo65dnqy1x39kcz715cqb62qqoug,341wNRlk,2020-0188,2020-11-17,18:40:02,18:57:57,NA,incomplete,230,race,3,0,left,C_F_07.jpg,C_M_13.jpg,A_F_14.jpg,left,1045.1449999818578,true,low,NA,NA,NA,NA,NA,NA,NA,false
341wNRlk,39tx062qy41yb4nrucnyjag7oeq3xx,3quo65dnqy1x39kcz715cqb62qqoug,341wNRlk,2020-0188,2020-11-17,18:40:02,18:57:57,NA,incomplete,231,race,3,1,left,C_M_10.jpg,C_F_05.jpg,A_M_16.jpg,left,1279.164999956265,true,low,NA,NA,NA,NA,NA,NA,NA,false
341wNRlk,39tx062qy41yb4nrucnyjag7oeq3xx,3quo65dnqy1x39kcz715cqb62qqoug,341wNRlk,2020-0188,2020-11-17,18:40:02,18:57:57,NA,incomplete,232,race,3,1,right,C_M_06.jpg,A_M_13.jpg,C_F_02.jpg,right,1079.9750000005588,true,low,NA,NA,NA,NA,NA,NA,NA,false
341wNRlk,39tx062qy41yb4nrucnyjag7oeq3xx,3quo65dnqy1x39kcz715cqb62qqoug,341wNRlk,2020-0188,2020-11-17,18:40:02,18:57:57,NA,incomplete,233,race,3,1,left,C_M_11.jpg,C_F_12.jpg,A_M_02.jpg,left,978.5400000400841,true,low,NA,NA,NA,NA,NA,NA,NA,false
341wNRlk,39tx062qy41yb4nrucnyjag7oeq3xx,3quo65dnqy1x39kcz715cqb62qqoug,341wNRlk,2020-0188,2020-11-17,18:40:02,18:57:57,NA,incomplete,234,race,3,1,right,A_F_03.jpg,C_F_08.jpg,A_M_10.jpg,right,1200.1649999874644,true,low,NA,NA,NA,NA,NA,NA,NA,false
341wNRlk,39tx062qy41yb4nrucnyjag7oeq3xx,3quo65dnqy1x39kcz715cqb62qqoug,341wNRlk,2020-0188,2020-11-17,18:40:02,18:57:57,NA,incomplete,235,race,3,0,left,A_F_07.jpg,A_M_05.jpg,C_F_10.jpg,left,1110.3599999914877,true,low,NA,NA,NA,NA,NA,NA,NA,false
341wNRlk,39tx062qy41yb4nrucnyjag7oeq3xx,3quo65dnqy1x39kcz715cqb62qqoug,341wNRlk,2020-0188,2020-11-17,18:40:02,18:57:57,NA,incomplete,236,race,3,1,left,C_M_14.jpg,C_F_01.jpg,A_M_15.jpg,left,1237.4749999726191,true,low,NA,NA,NA,NA,NA,NA,NA,false
341wNRlk,39tx062qy41yb4nrucnyjag7oeq3xx,3quo65dnqy1x39kcz715cqb62qqoug,341wNRlk,2020-0188,2020-11-17,18:40:02,18:57:57,NA,incomplete,237,race,3,1,left,A_M_14.jpg,A_F_04.jpg,C_M_10.jpg,left,1040.4550000093877,true,low,NA,NA,NA,NA,NA,NA,NA,false
341wNRlk,39tx062qy41yb4nrucnyjag7oeq3xx,3quo65dnqy1x39kcz715cqb62qqoug,341wNRlk,2020-0188,2020-11-17,18:40:02,18:57:57,NA,incomplete,238,race,3,0,right,A_F_09.jpg,C_F_11.jpg,A_M_03.jpg,right,1019.2099999985658,true,low,NA,NA,NA,NA,NA,NA,NA,false
341wNRlk,39tx062qy41yb4nrucnyjag7oeq3xx,3quo65dnqy1x39kcz715cqb62qqoug,341wNRlk,2020-0188,2020-11-17,18:40:02,18:57:57,NA,incomplete,239,race,3,1,left,A_F_13.jpg,A_M_05.jpg,C_F_08.jpg,left,1136.5399999776855,true,low,NA,NA,NA,NA,NA,NA,NA,false
341wNRlk,39tx062qy41yb4nrucnyjag7oeq3xx,3quo65dnqy1x39kcz715cqb62qqoug,341wNRlk,2020-0188,2020-11-17,18:40:02,18:57:57,NA,NA,instruction example,color,NA,NA,NA,Blue_Circle_Stripes_4.jpg,Blue_Plus_Grid_1.jpg,Red_Star_Chess_4.jpg,NA,NA,NA,NA,NA,NA,NA,NA,NA,NA,NA,undefined
341wNRlk,39tx062qy41yb4nrucnyjag7oeq3xx,3quo65dnqy1x39kcz715cqb62qqoug,341wNRlk,2020-0188,2020-11-17,18:40:02,18:57:57,NA,NA,instruction example,color,NA,NA,NA,Red_Circle_Dots_1.jpg,Green_Star_Stripes_1.jpg,Red_Triangle_Chess_2.jpg,NA,NA,NA,NA,NA,NA,NA,NA,NA,NA,NA,undefined
341wNRlk,39tx062qy41yb4nrucnyjag7oeq3xx,3quo65dnqy1x39kcz715cqb62qqoug,341wNRlk,2020-0188,2020-11-17,18:40:02,18:57:57,NA,NA,instruction example,color,NA,NA,NA,A_F_01.jpg,C_F_04.jpg,A_M_03.jpg,NA,NA,NA,NA,NA,NA,NA,NA,NA,NA,NA,undefined
341wNRlk,39tx062qy41yb4nrucnyjag7oeq3xx,3quo65dnqy1x39kcz715cqb62qqoug,341wNRlk,2020-0188,2020-11-17,18:40:02,18:57:57,NA,NA,instruction example,color,NA,NA,NA,A_F_14.jpg,A_M_16.jpg,C_F_05.jpg,NA,NA,NA,NA,NA,NA,NA,NA,NA,NA,NA,undefined
341wNRlk,39tx062qy41yb4nrucnyjag7oeq3xx,3quo65dnqy1x39kcz715cqb62qqoug,341wNRlk,2020-0188,2020-11-17,18:40:02,18:57:57,1051887.7099999809,1076534.5000000088,NA,NA,NA,NA,NA,NA,NA,NA,NA,NA,NA,NA,67,White/Caucasian,Female,White,no,yes,no,undefined
