workerId,hitId,assignmentId,subject,studyid,exp_date,exp_start,exp_end,time_start,time_end,trial,type,sequence,reward_validity,answer,image_top,image_left,image_right,response,response_time,response_acc,volatility,practice
Vn3lX0DQ,3mdwe879vkfdd3966pwqlqs1zxrb9a,3quo65dnqy1x39kcz715cqb56btuox,Vn3lX0DQ,2020-0188,2020-06-04,14:51:19,15:16:07,NA,incomplete,0,color,0,0,right,Red_Star_Grid_3.jpg,Green_Star_Stripes_4.jpg,Red_Plus_Dots_2.jpg,right,1174.8950000619516,true,NA,true
Vn3lX0DQ,3mdwe879vkfdd3966pwqlqs1zxrb9a,3quo65dnqy1x39kcz715cqb56btuox,Vn3lX0DQ,2020-0188,2020-06-04,14:51:19,15:16:07,NA,incomplete,1,color,0,1,left,Blue_Plus_Stripes_4.jpg,Blue_Circle_Chess_2.jpg,Purple_Plus_Dots_3.jpg,left,796.2850000476465,true,NA,true
Vn3lX0DQ,3mdwe879vkfdd3966pwqlqs1zxrb9a,3quo65dnqy1x39kcz715cqb56btuox,Vn3lX0DQ,2020-0188,2020-06-04,14:51:19,15:16:07,NA,incomplete,2,color,0,1,left,Red_Triangle_Grid_3.jpg,Red_Plus_Chess_1.jpg,Purple_Triangle_Stripes_2.jpg,left,711.7949998937547,true,NA,true
Vn3lX0DQ,3mdwe879vkfdd3966pwqlqs1zxrb9a,3quo65dnqy1x39kcz715cqb56btuox,Vn3lX0DQ,2020-0188,2020-06-04,14:51:19,15:16:07,NA,incomplete,3,color,0,0,left,Red_Plus_Chess_3.jpg,Red_Star_Grid_2.jpg,Blue_Plus_Dots_4.jpg,left,606.8949999753386,true,NA,true
Vn3lX0DQ,3mdwe879vkfdd3966pwqlqs1zxrb9a,3quo65dnqy1x39kcz715cqb56btuox,Vn3lX0DQ,2020-0188,2020-06-04,14:51:19,15:16:07,NA,incomplete,4,color,0,1,left,Green_Plus_Grid_3.jpg,Green_Star_Dots_4.jpg,Red_Plus_Chess_1.jpg,left,770.1100000413135,true,NA,true
Vn3lX0DQ,3mdwe879vkfdd3966pwqlqs1zxrb9a,3quo65dnqy1x39kcz715cqb56btuox,Vn3lX0DQ,2020-0188,2020-06-04,14:51:19,15:16:07,NA,incomplete,5,color,0,1,left,Red_Triangle_Stripes_4.jpg,Red_Circle_Chess_3.jpg,Green_Triangle_Dots_2.jpg,left,693.3450000360608,true,NA,true
Vn3lX0DQ,3mdwe879vkfdd3966pwqlqs1zxrb9a,3quo65dnqy1x39kcz715cqb56btuox,Vn3lX0DQ,2020-0188,2020-06-04,14:51:19,15:16:07,NA,incomplete,6,color,0,1,left,Red_Plus_Chess_1.jpg,Red_Circle_Dots_4.jpg,Green_Plus_Stripes_3.jpg,left,749.5099999941885,true,NA,true
Vn3lX0DQ,3mdwe879vkfdd3966pwqlqs1zxrb9a,3quo65dnqy1x39kcz715cqb56btuox,Vn3lX0DQ,2020-0188,2020-06-04,14:51:19,15:16:07,NA,incomplete,7,color,0,1,right,Red_Plus_Grid_2.jpg,Green_Plus_Chess_1.jpg,Red_Circle_Stripes_3.jpg,left,636.3850000780076,false,NA,true
Vn3lX0DQ,3mdwe879vkfdd3966pwqlqs1zxrb9a,3quo65dnqy1x39kcz715cqb56btuox,Vn3lX0DQ,2020-0188,2020-06-04,14:51:19,15:16:07,NA,incomplete,8,color,0,1,left,Green_Circle_Stripes_1.jpg,Green_Star_Dots_3.jpg,Purple_Circle_Grid_2.jpg,left,668.6599999666214,true,NA,true
Vn3lX0DQ,3mdwe879vkfdd3966pwqlqs1zxrb9a,3quo65dnqy1x39kcz715cqb56btuox,Vn3lX0DQ,2020-0188,2020-06-04,14:51:19,15:16:07,NA,incomplete,9,color,0,1,right,Blue_Star_Grid_3.jpg,Purple_Star_Stripes_4.jpg,Blue_Plus_Dots_2.jpg,right,775.2600000239909,true,NA,true
Vn3lX0DQ,3mdwe879vkfdd3966pwqlqs1zxrb9a,3quo65dnqy1x39kcz715cqb56btuox,Vn3lX0DQ,2020-0188,2020-06-04,14:51:19,15:16:07,NA,incomplete,10,color,0,1,left,Blue_Triangle_Stripes_4.jpg,Blue_Star_Dots_2.jpg,Green_Triangle_Chess_3.jpg,left,634.5999999903142,true,NA,true
Vn3lX0DQ,3mdwe879vkfdd3966pwqlqs1zxrb9a,3quo65dnqy1x39kcz715cqb56btuox,Vn3lX0DQ,2020-0188,2020-06-04,14:51:19,15:16:07,NA,incomplete,11,color,0,1,left,Red_Triangle_Grid_1.jpg,Red_Star_Chess_4.jpg,Purple_Triangle_Stripes_3.jpg,left,660.2100000018254,true,NA,true
Vn3lX0DQ,3mdwe879vkfdd3966pwqlqs1zxrb9a,3quo65dnqy1x39kcz715cqb56btuox,Vn3lX0DQ,2020-0188,2020-06-04,14:51:19,15:16:07,NA,incomplete,12,color,0,1,right,Purple_Triangle_Chess_4.jpg,Green_Triangle_Stripes_3.jpg,Purple_Star_Dots_2.jpg,right,829.0550000965595,true,NA,true
Vn3lX0DQ,3mdwe879vkfdd3966pwqlqs1zxrb9a,3quo65dnqy1x39kcz715cqb56btuox,Vn3lX0DQ,2020-0188,2020-06-04,14:51:19,15:16:07,NA,incomplete,13,color,0,1,left,Purple_Circle_Chess_2.jpg,Purple_Plus_Grid_1.jpg,Red_Circle_Dots_3.jpg,left,582.8400000464171,true,NA,true
Vn3lX0DQ,3mdwe879vkfdd3966pwqlqs1zxrb9a,3quo65dnqy1x39kcz715cqb56btuox,Vn3lX0DQ,2020-0188,2020-06-04,14:51:19,15:16:07,NA,incomplete,14,color,0,1,right,Red_Triangle_Grid_4.jpg,Blue_Triangle_Dots_1.jpg,Red_Circle_Chess_2.jpg,right,555.8299999684095,true,NA,true
Vn3lX0DQ,3mdwe879vkfdd3966pwqlqs1zxrb9a,3quo65dnqy1x39kcz715cqb56btuox,Vn3lX0DQ,2020-0188,2020-06-04,14:51:19,15:16:07,NA,incomplete,15,color,0,1,left,Red_Star_Stripes_1.jpg,Red_Circle_Dots_3.jpg,Blue_Star_Grid_4.jpg,left,664.6050000563264,true,NA,true
Vn3lX0DQ,3mdwe879vkfdd3966pwqlqs1zxrb9a,3quo65dnqy1x39kcz715cqb56btuox,Vn3lX0DQ,2020-0188,2020-06-04,14:51:19,15:16:07,NA,incomplete,16,color,0,1,right,Green_Star_Stripes_2.jpg,Red_Star_Chess_3.jpg,Green_Triangle_Dots_1.jpg,right,620.7799999974668,true,NA,true
Vn3lX0DQ,3mdwe879vkfdd3966pwqlqs1zxrb9a,3quo65dnqy1x39kcz715cqb56btuox,Vn3lX0DQ,2020-0188,2020-06-04,14:51:19,15:16:07,NA,incomplete,17,color,0,1,left,Red_Triangle_Chess_4.jpg,Red_Star_Grid_2.jpg,Blue_Triangle_Dots_1.jpg,left,637.1700000017881,true,NA,true
Vn3lX0DQ,3mdwe879vkfdd3966pwqlqs1zxrb9a,3quo65dnqy1x39kcz715cqb56btuox,Vn3lX0DQ,2020-0188,2020-06-04,14:51:19,15:16:07,NA,incomplete,18,color,0,1,right,Green_Plus_Stripes_3.jpg,Blue_Plus_Dots_1.jpg,Green_Circle_Chess_2.jpg,right,662.2300000162795,true,NA,true
Vn3lX0DQ,3mdwe879vkfdd3966pwqlqs1zxrb9a,3quo65dnqy1x39kcz715cqb56btuox,Vn3lX0DQ,2020-0188,2020-06-04,14:51:19,15:16:07,NA,incomplete,19,color,0,1,left,Red_Star_Chess_3.jpg,Red_Circle_Grid_1.jpg,Purple_Star_Stripes_4.jpg,left,839.2799999564886,true,NA,true
Vn3lX0DQ,3mdwe879vkfdd3966pwqlqs1zxrb9a,3quo65dnqy1x39kcz715cqb56btuox,Vn3lX0DQ,2020-0188,2020-06-04,14:51:19,15:16:07,NA,incomplete,20,shape,1,0,right,Green_Circle_Stripes_2.jpg,Green_Star_Chess_1.jpg,Red_Circle_Grid_3.jpg,right,889.3049999605864,true,NA,true
Vn3lX0DQ,3mdwe879vkfdd3966pwqlqs1zxrb9a,3quo65dnqy1x39kcz715cqb56btuox,Vn3lX0DQ,2020-0188,2020-06-04,14:51:19,15:16:07,NA,incomplete,21,shape,1,1,left,Green_Circle_Dots_2.jpg,Purple_Circle_Stripes_3.jpg,Green_Star_Chess_1.jpg,left,976.4300000388175,true,NA,true
Vn3lX0DQ,3mdwe879vkfdd3966pwqlqs1zxrb9a,3quo65dnqy1x39kcz715cqb56btuox,Vn3lX0DQ,2020-0188,2020-06-04,14:51:19,15:16:07,NA,incomplete,22,shape,1,1,left,Green_Triangle_Grid_4.jpg,Purple_Triangle_Chess_2.jpg,Green_Plus_Stripes_3.jpg,right,644.4550000596792,false,NA,true
Vn3lX0DQ,3mdwe879vkfdd3966pwqlqs1zxrb9a,3quo65dnqy1x39kcz715cqb56btuox,Vn3lX0DQ,2020-0188,2020-06-04,14:51:19,15:16:07,NA,incomplete,23,shape,1,0,left,Blue_Plus_Grid_4.jpg,Purple_Plus_Stripes_2.jpg,Blue_Circle_Chess_1.jpg,left,853.9400000590831,true,NA,true
Vn3lX0DQ,3mdwe879vkfdd3966pwqlqs1zxrb9a,3quo65dnqy1x39kcz715cqb56btuox,Vn3lX0DQ,2020-0188,2020-06-04,14:51:19,15:16:07,NA,incomplete,24,shape,1,1,right,Purple_Circle_Grid_1.jpg,Purple_Plus_Stripes_3.jpg,Red_Circle_Chess_4.jpg,right,798.6350000137463,true,NA,true
Vn3lX0DQ,3mdwe879vkfdd3966pwqlqs1zxrb9a,3quo65dnqy1x39kcz715cqb56btuox,Vn3lX0DQ,2020-0188,2020-06-04,14:51:19,15:16:07,NA,incomplete,25,shape,1,1,right,Red_Triangle_Chess_1.jpg,Red_Plus_Stripes_3.jpg,Green_Triangle_Dots_2.jpg,right,890.2750000124797,true,NA,true
Vn3lX0DQ,3mdwe879vkfdd3966pwqlqs1zxrb9a,3quo65dnqy1x39kcz715cqb56btuox,Vn3lX0DQ,2020-0188,2020-06-04,14:51:19,15:16:07,NA,incomplete,26,shape,1,1,right,Blue_Plus_Stripes_1.jpg,Blue_Circle_Chess_3.jpg,Red_Plus_Dots_4.jpg,left,721.4849999872968,false,NA,true
Vn3lX0DQ,3mdwe879vkfdd3966pwqlqs1zxrb9a,3quo65dnqy1x39kcz715cqb56btuox,Vn3lX0DQ,2020-0188,2020-06-04,14:51:19,15:16:07,NA,incomplete,27,shape,1,1,right,Green_Star_Stripes_4.jpg,Green_Circle_Chess_1.jpg,Blue_Star_Grid_3.jpg,right,785.1399999344721,true,NA,true
Vn3lX0DQ,3mdwe879vkfdd3966pwqlqs1zxrb9a,3quo65dnqy1x39kcz715cqb56btuox,Vn3lX0DQ,2020-0188,2020-06-04,14:51:19,15:16:07,NA,incomplete,28,shape,1,1,left,Blue_Triangle_Grid_1.jpg,Red_Triangle_Dots_4.jpg,Blue_Circle_Stripes_3.jpg,left,836.8149999296293,true,NA,true
Vn3lX0DQ,3mdwe879vkfdd3966pwqlqs1zxrb9a,3quo65dnqy1x39kcz715cqb56btuox,Vn3lX0DQ,2020-0188,2020-06-04,14:51:19,15:16:07,NA,incomplete,29,shape,1,1,right,Purple_Star_Stripes_4.jpg,Purple_Triangle_Dots_3.jpg,Green_Star_Grid_1.jpg,right,749.9400000087917,true,NA,true
Vn3lX0DQ,3mdwe879vkfdd3966pwqlqs1zxrb9a,3quo65dnqy1x39kcz715cqb56btuox,Vn3lX0DQ,2020-0188,2020-06-04,14:51:19,15:16:07,NA,incomplete,30,shape,1,1,right,Green_Star_Grid_4.jpg,Green_Triangle_Chess_2.jpg,Blue_Star_Stripes_3.jpg,right,915.515000000596,true,NA,true
Vn3lX0DQ,3mdwe879vkfdd3966pwqlqs1zxrb9a,3quo65dnqy1x39kcz715cqb56btuox,Vn3lX0DQ,2020-0188,2020-06-04,14:51:19,15:16:07,NA,incomplete,31,shape,1,0,right,Green_Circle_Stripes_2.jpg,Green_Star_Grid_3.jpg,Red_Circle_Dots_4.jpg,right,722.150000045076,true,NA,true
Vn3lX0DQ,3mdwe879vkfdd3966pwqlqs1zxrb9a,3quo65dnqy1x39kcz715cqb56btuox,Vn3lX0DQ,2020-0188,2020-06-04,14:51:19,15:16:07,NA,incomplete,32,shape,1,1,left,Blue_Star_Chess_3.jpg,Green_Star_Grid_1.jpg,Blue_Plus_Stripes_2.jpg,left,953.5799999721348,true,NA,true
Vn3lX0DQ,3mdwe879vkfdd3966pwqlqs1zxrb9a,3quo65dnqy1x39kcz715cqb56btuox,Vn3lX0DQ,2020-0188,2020-06-04,14:51:19,15:16:07,NA,incomplete,33,shape,1,1,right,Red_Circle_Chess_1.jpg,Red_Star_Stripes_4.jpg,Green_Circle_Dots_3.jpg,right,765.1949999853969,true,NA,true
Vn3lX0DQ,3mdwe879vkfdd3966pwqlqs1zxrb9a,3quo65dnqy1x39kcz715cqb56btuox,Vn3lX0DQ,2020-0188,2020-06-04,14:51:19,15:16:07,NA,incomplete,34,shape,1,0,right,Green_Plus_Grid_1.jpg,Green_Circle_Dots_4.jpg,Purple_Plus_Chess_3.jpg,right,786.9599999394268,true,NA,true
Vn3lX0DQ,3mdwe879vkfdd3966pwqlqs1zxrb9a,3quo65dnqy1x39kcz715cqb56btuox,Vn3lX0DQ,2020-0188,2020-06-04,14:51:19,15:16:07,NA,incomplete,35,shape,1,0,right,Green_Plus_Dots_4.jpg,Green_Star_Stripes_2.jpg,Purple_Plus_Grid_1.jpg,right,693.6500000301749,true,NA,true
Vn3lX0DQ,3mdwe879vkfdd3966pwqlqs1zxrb9a,3quo65dnqy1x39kcz715cqb56btuox,Vn3lX0DQ,2020-0188,2020-06-04,14:51:19,15:16:07,NA,incomplete,36,shape,1,1,right,Blue_Plus_Chess_1.jpg,Blue_Star_Dots_4.jpg,Green_Plus_Stripes_2.jpg,right,741.2300000432879,true,NA,true
Vn3lX0DQ,3mdwe879vkfdd3966pwqlqs1zxrb9a,3quo65dnqy1x39kcz715cqb56btuox,Vn3lX0DQ,2020-0188,2020-06-04,14:51:19,15:16:07,NA,incomplete,37,shape,1,1,left,Red_Circle_Dots_2.jpg,Blue_Circle_Chess_3.jpg,Red_Plus_Stripes_1.jpg,left,770.6900000339374,true,NA,true
Vn3lX0DQ,3mdwe879vkfdd3966pwqlqs1zxrb9a,3quo65dnqy1x39kcz715cqb56btuox,Vn3lX0DQ,2020-0188,2020-06-04,14:51:19,15:16:07,NA,incomplete,38,shape,1,0,left,Green_Star_Chess_1.jpg,Blue_Star_Stripes_4.jpg,Green_Circle_Grid_2.jpg,left,990.9800000023097,true,NA,true
Vn3lX0DQ,3mdwe879vkfdd3966pwqlqs1zxrb9a,3quo65dnqy1x39kcz715cqb56btuox,Vn3lX0DQ,2020-0188,2020-06-04,14:51:19,15:16:07,NA,incomplete,39,shape,1,1,left,Red_Circle_Dots_1.jpg,Blue_Circle_Grid_4.jpg,Red_Plus_Chess_2.jpg,left,962.5399999786168,true,NA,true
Vn3lX0DQ,3mdwe879vkfdd3966pwqlqs1zxrb9a,3quo65dnqy1x39kcz715cqb56btuox,Vn3lX0DQ,2020-0188,2020-06-04,14:51:19,15:16:07,NA,incomplete,0,color,0,1,left,Purple_Star_Stripes_3.jpg,Purple_Plus_Chess_2.jpg,Blue_Star_Grid_1.jpg,left,870.1250000158325,true,low,false
Vn3lX0DQ,3mdwe879vkfdd3966pwqlqs1zxrb9a,3quo65dnqy1x39kcz715cqb56btuox,Vn3lX0DQ,2020-0188,2020-06-04,14:51:19,15:16:07,NA,incomplete,1,color,0,1,right,Green_Circle_Dots_1.jpg,Red_Circle_Chess_3.jpg,Green_Plus_Stripes_2.jpg,right,508.48499999847263,true,low,false
Vn3lX0DQ,3mdwe879vkfdd3966pwqlqs1zxrb9a,3quo65dnqy1x39kcz715cqb56btuox,Vn3lX0DQ,2020-0188,2020-06-04,14:51:19,15:16:07,NA,incomplete,2,color,0,1,right,Blue_Star_Grid_2.jpg,Green_Star_Stripes_1.jpg,Blue_Triangle_Dots_4.jpg,right,476.03999997954816,true,low,false
Vn3lX0DQ,3mdwe879vkfdd3966pwqlqs1zxrb9a,3quo65dnqy1x39kcz715cqb56btuox,Vn3lX0DQ,2020-0188,2020-06-04,14:51:19,15:16:07,NA,incomplete,3,color,0,1,left,Red_Circle_Grid_1.jpg,Red_Star_Chess_4.jpg,Purple_Circle_Stripes_2.jpg,left,492.10000003222376,true,low,false
Vn3lX0DQ,3mdwe879vkfdd3966pwqlqs1zxrb9a,3quo65dnqy1x39kcz715cqb56btuox,Vn3lX0DQ,2020-0188,2020-06-04,14:51:19,15:16:07,NA,incomplete,4,color,0,1,left,Green_Star_Chess_4.jpg,Green_Plus_Stripes_1.jpg,Blue_Star_Grid_2.jpg,left,539.7249999223277,true,low,false
Vn3lX0DQ,3mdwe879vkfdd3966pwqlqs1zxrb9a,3quo65dnqy1x39kcz715cqb56btuox,Vn3lX0DQ,2020-0188,2020-06-04,14:51:19,15:16:07,NA,incomplete,5,color,0,1,right,Red_Star_Dots_1.jpg,Blue_Star_Grid_2.jpg,Red_Triangle_Chess_3.jpg,right,456.9199999095872,true,low,false
Vn3lX0DQ,3mdwe879vkfdd3966pwqlqs1zxrb9a,3quo65dnqy1x39kcz715cqb56btuox,Vn3lX0DQ,2020-0188,2020-06-04,14:51:19,15:16:07,NA,incomplete,6,color,0,1,left,Green_Star_Stripes_1.jpg,Green_Plus_Dots_2.jpg,Red_Star_Chess_3.jpg,left,514.4800000125542,true,low,false
Vn3lX0DQ,3mdwe879vkfdd3966pwqlqs1zxrb9a,3quo65dnqy1x39kcz715cqb56btuox,Vn3lX0DQ,2020-0188,2020-06-04,14:51:19,15:16:07,NA,incomplete,7,color,0,1,left,Blue_Star_Chess_1.jpg,Blue_Plus_Dots_3.jpg,Purple_Star_Stripes_4.jpg,left,561.6249999729916,true,low,false
Vn3lX0DQ,3mdwe879vkfdd3966pwqlqs1zxrb9a,3quo65dnqy1x39kcz715cqb56btuox,Vn3lX0DQ,2020-0188,2020-06-04,14:51:19,15:16:07,NA,incomplete,8,color,0,1,right,Purple_Star_Chess_3.jpg,Blue_Star_Stripes_2.jpg,Purple_Triangle_Grid_4.jpg,right,462.5649999361485,true,low,false
Vn3lX0DQ,3mdwe879vkfdd3966pwqlqs1zxrb9a,3quo65dnqy1x39kcz715cqb56btuox,Vn3lX0DQ,2020-0188,2020-06-04,14:51:19,15:16:07,NA,incomplete,9,color,0,1,left,Red_Triangle_Stripes_2.jpg,Red_Circle_Chess_1.jpg,Green_Triangle_Dots_4.jpg,left,487.6599999843165,true,low,false
Vn3lX0DQ,3mdwe879vkfdd3966pwqlqs1zxrb9a,3quo65dnqy1x39kcz715cqb56btuox,Vn3lX0DQ,2020-0188,2020-06-04,14:51:19,15:16:07,NA,incomplete,10,color,0,1,left,Red_Star_Dots_1.jpg,Red_Triangle_Stripes_2.jpg,Blue_Star_Grid_3.jpg,left,543.5700000962242,true,low,false
Vn3lX0DQ,3mdwe879vkfdd3966pwqlqs1zxrb9a,3quo65dnqy1x39kcz715cqb56btuox,Vn3lX0DQ,2020-0188,2020-06-04,14:51:19,15:16:07,NA,incomplete,11,color,0,1,right,Blue_Triangle_Dots_2.jpg,Red_Triangle_Grid_4.jpg,Blue_Star_Chess_3.jpg,right,436.27499998547137,true,low,false
Vn3lX0DQ,3mdwe879vkfdd3966pwqlqs1zxrb9a,3quo65dnqy1x39kcz715cqb56btuox,Vn3lX0DQ,2020-0188,2020-06-04,14:51:19,15:16:07,NA,incomplete,12,color,0,1,right,Blue_Triangle_Grid_1.jpg,Green_Triangle_Chess_4.jpg,Blue_Star_Dots_3.jpg,right,430.6499999947846,true,low,false
Vn3lX0DQ,3mdwe879vkfdd3966pwqlqs1zxrb9a,3quo65dnqy1x39kcz715cqb56btuox,Vn3lX0DQ,2020-0188,2020-06-04,14:51:19,15:16:07,NA,incomplete,13,color,0,1,left,Green_Star_Chess_3.jpg,Green_Plus_Stripes_1.jpg,Blue_Star_Grid_2.jpg,left,553.4200000111014,true,low,false
Vn3lX0DQ,3mdwe879vkfdd3966pwqlqs1zxrb9a,3quo65dnqy1x39kcz715cqb56btuox,Vn3lX0DQ,2020-0188,2020-06-04,14:51:19,15:16:07,NA,incomplete,14,color,0,1,left,Green_Star_Grid_1.jpg,Green_Circle_Chess_3.jpg,Red_Star_Dots_4.jpg,left,406.5499999560416,true,low,false
Vn3lX0DQ,3mdwe879vkfdd3966pwqlqs1zxrb9a,3quo65dnqy1x39kcz715cqb56btuox,Vn3lX0DQ,2020-0188,2020-06-04,14:51:19,15:16:07,NA,incomplete,15,color,0,1,left,Red_Star_Grid_2.jpg,Red_Plus_Chess_3.jpg,Green_Star_Dots_4.jpg,left,513.0600000265986,true,low,false
Vn3lX0DQ,3mdwe879vkfdd3966pwqlqs1zxrb9a,3quo65dnqy1x39kcz715cqb56btuox,Vn3lX0DQ,2020-0188,2020-06-04,14:51:19,15:16:07,NA,incomplete,16,color,0,0,left,Green_Triangle_Stripes_4.jpg,Green_Plus_Grid_3.jpg,Red_Triangle_Chess_2.jpg,left,457.04000000841916,true,low,false
Vn3lX0DQ,3mdwe879vkfdd3966pwqlqs1zxrb9a,3quo65dnqy1x39kcz715cqb56btuox,Vn3lX0DQ,2020-0188,2020-06-04,14:51:19,15:16:07,NA,incomplete,17,color,0,1,right,Purple_Circle_Stripes_2.jpg,Green_Circle_Dots_3.jpg,Purple_Star_Chess_4.jpg,left,713.0999999353662,false,low,false
Vn3lX0DQ,3mdwe879vkfdd3966pwqlqs1zxrb9a,3quo65dnqy1x39kcz715cqb56btuox,Vn3lX0DQ,2020-0188,2020-06-04,14:51:19,15:16:07,NA,incomplete,18,color,0,1,right,Purple_Triangle_Grid_4.jpg,Blue_Triangle_Chess_3.jpg,Purple_Circle_Stripes_1.jpg,right,552.6599999284372,true,low,false
Vn3lX0DQ,3mdwe879vkfdd3966pwqlqs1zxrb9a,3quo65dnqy1x39kcz715cqb56btuox,Vn3lX0DQ,2020-0188,2020-06-04,14:51:19,15:16:07,NA,incomplete,19,color,0,1,right,Purple_Star_Chess_4.jpg,Red_Star_Grid_3.jpg,Purple_Plus_Stripes_2.jpg,right,557.1149999741465,true,low,false
Vn3lX0DQ,3mdwe879vkfdd3966pwqlqs1zxrb9a,3quo65dnqy1x39kcz715cqb56btuox,Vn3lX0DQ,2020-0188,2020-06-04,14:51:19,15:16:07,NA,incomplete,20,color,0,1,left,Purple_Triangle_Dots_2.jpg,Purple_Plus_Chess_3.jpg,Green_Triangle_Stripes_1.jpg,left,401.2499999953434,true,low,false
Vn3lX0DQ,3mdwe879vkfdd3966pwqlqs1zxrb9a,3quo65dnqy1x39kcz715cqb56btuox,Vn3lX0DQ,2020-0188,2020-06-04,14:51:19,15:16:07,NA,incomplete,21,color,0,1,right,Red_Plus_Chess_4.jpg,Purple_Plus_Stripes_1.jpg,Red_Circle_Grid_3.jpg,right,429.29999995976686,true,low,false
Vn3lX0DQ,3mdwe879vkfdd3966pwqlqs1zxrb9a,3quo65dnqy1x39kcz715cqb56btuox,Vn3lX0DQ,2020-0188,2020-06-04,14:51:19,15:16:07,NA,incomplete,22,color,0,1,left,Blue_Star_Grid_2.jpg,Blue_Triangle_Dots_3.jpg,Red_Star_Stripes_1.jpg,left,376.5650000423193,true,low,false
Vn3lX0DQ,3mdwe879vkfdd3966pwqlqs1zxrb9a,3quo65dnqy1x39kcz715cqb56btuox,Vn3lX0DQ,2020-0188,2020-06-04,14:51:19,15:16:07,NA,incomplete,23,color,0,1,right,Purple_Plus_Grid_3.jpg,Red_Plus_Dots_1.jpg,Purple_Star_Chess_4.jpg,right,373.04500001482666,true,low,false
Vn3lX0DQ,3mdwe879vkfdd3966pwqlqs1zxrb9a,3quo65dnqy1x39kcz715cqb56btuox,Vn3lX0DQ,2020-0188,2020-06-04,14:51:19,15:16:07,NA,incomplete,24,color,0,0,right,Green_Star_Grid_1.jpg,Blue_Star_Chess_2.jpg,Green_Triangle_Dots_3.jpg,right,505.8950000675395,true,low,false
Vn3lX0DQ,3mdwe879vkfdd3966pwqlqs1zxrb9a,3quo65dnqy1x39kcz715cqb56btuox,Vn3lX0DQ,2020-0188,2020-06-04,14:51:19,15:16:07,NA,incomplete,25,color,0,1,right,Green_Triangle_Chess_1.jpg,Red_Triangle_Dots_3.jpg,Green_Star_Stripes_2.jpg,right,392.08500005770475,true,low,false
Vn3lX0DQ,3mdwe879vkfdd3966pwqlqs1zxrb9a,3quo65dnqy1x39kcz715cqb56btuox,Vn3lX0DQ,2020-0188,2020-06-04,14:51:19,15:16:07,NA,incomplete,26,color,0,1,left,Red_Star_Stripes_3.jpg,Red_Triangle_Grid_1.jpg,Blue_Star_Chess_4.jpg,left,523.8649999955669,true,low,false
Vn3lX0DQ,3mdwe879vkfdd3966pwqlqs1zxrb9a,3quo65dnqy1x39kcz715cqb56btuox,Vn3lX0DQ,2020-0188,2020-06-04,14:51:19,15:16:07,NA,incomplete,27,color,0,1,right,Red_Plus_Chess_2.jpg,Blue_Plus_Grid_3.jpg,Red_Circle_Dots_4.jpg,right,354.2599999345839,true,low,false
Vn3lX0DQ,3mdwe879vkfdd3966pwqlqs1zxrb9a,3quo65dnqy1x39kcz715cqb56btuox,Vn3lX0DQ,2020-0188,2020-06-04,14:51:19,15:16:07,NA,incomplete,28,color,0,1,right,Red_Triangle_Chess_1.jpg,Green_Triangle_Dots_2.jpg,Red_Plus_Grid_3.jpg,right,359.5199999399483,true,low,false
Vn3lX0DQ,3mdwe879vkfdd3966pwqlqs1zxrb9a,3quo65dnqy1x39kcz715cqb56btuox,Vn3lX0DQ,2020-0188,2020-06-04,14:51:19,15:16:07,NA,incomplete,29,color,0,0,right,Green_Triangle_Grid_4.jpg,Red_Triangle_Chess_1.jpg,Green_Star_Dots_2.jpg,right,372.6999999489635,true,low,false
Vn3lX0DQ,3mdwe879vkfdd3966pwqlqs1zxrb9a,3quo65dnqy1x39kcz715cqb56btuox,Vn3lX0DQ,2020-0188,2020-06-04,14:51:19,15:16:07,NA,incomplete,30,shape,1,1,left,Red_Circle_Chess_3.jpg,Blue_Circle_Dots_1.jpg,Red_Star_Stripes_2.jpg,right,520.67499991972,false,low,false
Vn3lX0DQ,3mdwe879vkfdd3966pwqlqs1zxrb9a,3quo65dnqy1x39kcz715cqb56btuox,Vn3lX0DQ,2020-0188,2020-06-04,14:51:19,15:16:07,NA,incomplete,31,shape,1,1,right,Purple_Triangle_Stripes_1.jpg,Purple_Plus_Grid_4.jpg,Red_Triangle_Chess_3.jpg,left,510.9599999850616,false,low,false
Vn3lX0DQ,3mdwe879vkfdd3966pwqlqs1zxrb9a,3quo65dnqy1x39kcz715cqb56btuox,Vn3lX0DQ,2020-0188,2020-06-04,14:51:19,15:16:07,NA,incomplete,32,shape,1,1,left,Purple_Triangle_Stripes_3.jpg,Blue_Triangle_Grid_2.jpg,Purple_Plus_Chess_1.jpg,left,728.5549999214709,true,low,false
Vn3lX0DQ,3mdwe879vkfdd3966pwqlqs1zxrb9a,3quo65dnqy1x39kcz715cqb56btuox,Vn3lX0DQ,2020-0188,2020-06-04,14:51:19,15:16:07,NA,incomplete,33,shape,1,1,left,Blue_Plus_Stripes_1.jpg,Green_Plus_Chess_4.jpg,Blue_Star_Grid_3.jpg,left,940.6000000890344,true,low,false
Vn3lX0DQ,3mdwe879vkfdd3966pwqlqs1zxrb9a,3quo65dnqy1x39kcz715cqb56btuox,Vn3lX0DQ,2020-0188,2020-06-04,14:51:19,15:16:07,NA,incomplete,34,shape,1,1,right,Green_Star_Stripes_2.jpg,Green_Triangle_Dots_3.jpg,Purple_Star_Chess_1.jpg,right,721.7250000685453,true,low,false
Vn3lX0DQ,3mdwe879vkfdd3966pwqlqs1zxrb9a,3quo65dnqy1x39kcz715cqb56btuox,Vn3lX0DQ,2020-0188,2020-06-04,14:51:19,15:16:07,NA,incomplete,35,shape,1,1,right,Red_Triangle_Grid_1.jpg,Red_Circle_Chess_4.jpg,Purple_Triangle_Stripes_2.jpg,left,552.8400000184774,false,low,false
Vn3lX0DQ,3mdwe879vkfdd3966pwqlqs1zxrb9a,3quo65dnqy1x39kcz715cqb56btuox,Vn3lX0DQ,2020-0188,2020-06-04,14:51:19,15:16:07,NA,incomplete,36,shape,1,1,right,Red_Star_Dots_1.jpg,Red_Triangle_Stripes_4.jpg,Purple_Star_Grid_2.jpg,right,653.3449999988079,true,low,false
Vn3lX0DQ,3mdwe879vkfdd3966pwqlqs1zxrb9a,3quo65dnqy1x39kcz715cqb56btuox,Vn3lX0DQ,2020-0188,2020-06-04,14:51:19,15:16:07,NA,incomplete,37,shape,1,1,left,Purple_Star_Grid_2.jpg,Blue_Star_Stripes_4.jpg,Purple_Plus_Chess_3.jpg,left,557.1050000144169,true,low,false
Vn3lX0DQ,3mdwe879vkfdd3966pwqlqs1zxrb9a,3quo65dnqy1x39kcz715cqb56btuox,Vn3lX0DQ,2020-0188,2020-06-04,14:51:19,15:16:07,NA,incomplete,38,shape,1,0,left,Blue_Plus_Grid_4.jpg,Green_Plus_Chess_3.jpg,Blue_Star_Dots_1.jpg,left,699.1149999666959,true,low,false
Vn3lX0DQ,3mdwe879vkfdd3966pwqlqs1zxrb9a,3quo65dnqy1x39kcz715cqb56btuox,Vn3lX0DQ,2020-0188,2020-06-04,14:51:19,15:16:07,NA,incomplete,39,shape,1,0,right,Green_Triangle_Dots_4.jpg,Green_Star_Chess_1.jpg,Purple_Triangle_Stripes_3.jpg,left,587.0099999010563,false,low,false
Vn3lX0DQ,3mdwe879vkfdd3966pwqlqs1zxrb9a,3quo65dnqy1x39kcz715cqb56btuox,Vn3lX0DQ,2020-0188,2020-06-04,14:51:19,15:16:07,NA,incomplete,40,shape,1,0,left,Green_Plus_Grid_2.jpg,Purple_Plus_Stripes_3.jpg,Green_Star_Chess_4.jpg,right,406.28999995533377,false,low,false
Vn3lX0DQ,3mdwe879vkfdd3966pwqlqs1zxrb9a,3quo65dnqy1x39kcz715cqb56btuox,Vn3lX0DQ,2020-0188,2020-06-04,14:51:19,15:16:07,NA,incomplete,41,shape,1,1,left,Blue_Plus_Stripes_4.jpg,Red_Plus_Grid_3.jpg,Blue_Star_Dots_1.jpg,right,473.40000001713634,false,low,false
Vn3lX0DQ,3mdwe879vkfdd3966pwqlqs1zxrb9a,3quo65dnqy1x39kcz715cqb56btuox,Vn3lX0DQ,2020-0188,2020-06-04,14:51:19,15:16:07,NA,incomplete,42,shape,1,1,right,Red_Circle_Chess_2.jpg,Red_Star_Grid_1.jpg,Purple_Circle_Stripes_4.jpg,right,738.2049999432638,true,low,false
Vn3lX0DQ,3mdwe879vkfdd3966pwqlqs1zxrb9a,3quo65dnqy1x39kcz715cqb56btuox,Vn3lX0DQ,2020-0188,2020-06-04,14:51:19,15:16:07,NA,incomplete,43,shape,1,1,right,Green_Plus_Stripes_2.jpg,Green_Triangle_Chess_1.jpg,Purple_Plus_Grid_3.jpg,right,640.0099999736995,true,low,false
Vn3lX0DQ,3mdwe879vkfdd3966pwqlqs1zxrb9a,3quo65dnqy1x39kcz715cqb56btuox,Vn3lX0DQ,2020-0188,2020-06-04,14:51:19,15:16:07,NA,incomplete,44,shape,1,0,left,Blue_Star_Chess_3.jpg,Red_Star_Dots_1.jpg,Blue_Circle_Stripes_2.jpg,left,624.7849999926984,true,low,false
Vn3lX0DQ,3mdwe879vkfdd3966pwqlqs1zxrb9a,3quo65dnqy1x39kcz715cqb56btuox,Vn3lX0DQ,2020-0188,2020-06-04,14:51:19,15:16:07,NA,incomplete,45,shape,1,1,left,Purple_Circle_Dots_4.jpg,Red_Circle_Stripes_3.jpg,Purple_Triangle_Chess_2.jpg,right,546.3250000029802,false,low,false
Vn3lX0DQ,3mdwe879vkfdd3966pwqlqs1zxrb9a,3quo65dnqy1x39kcz715cqb56btuox,Vn3lX0DQ,2020-0188,2020-06-04,14:51:19,15:16:07,NA,incomplete,46,shape,1,1,right,Blue_Plus_Stripes_4.jpg,Blue_Circle_Grid_3.jpg,Green_Plus_Chess_2.jpg,left,480.5149999447167,false,low,false
Vn3lX0DQ,3mdwe879vkfdd3966pwqlqs1zxrb9a,3quo65dnqy1x39kcz715cqb56btuox,Vn3lX0DQ,2020-0188,2020-06-04,14:51:19,15:16:07,NA,incomplete,47,shape,1,1,right,Blue_Triangle_Stripes_2.jpg,Blue_Star_Dots_3.jpg,Purple_Triangle_Grid_1.jpg,right,681.4950000261888,true,low,false
Vn3lX0DQ,3mdwe879vkfdd3966pwqlqs1zxrb9a,3quo65dnqy1x39kcz715cqb56btuox,Vn3lX0DQ,2020-0188,2020-06-04,14:51:19,15:16:07,NA,incomplete,48,shape,1,1,right,Blue_Plus_Dots_1.jpg,Blue_Circle_Chess_4.jpg,Green_Plus_Grid_3.jpg,right,569.8799999663606,true,low,false
Vn3lX0DQ,3mdwe879vkfdd3966pwqlqs1zxrb9a,3quo65dnqy1x39kcz715cqb56btuox,Vn3lX0DQ,2020-0188,2020-06-04,14:51:19,15:16:07,NA,incomplete,49,shape,1,1,right,Green_Star_Chess_2.jpg,Green_Triangle_Dots_1.jpg,Red_Star_Grid_4.jpg,right,654.149999958463,true,low,false
Vn3lX0DQ,3mdwe879vkfdd3966pwqlqs1zxrb9a,3quo65dnqy1x39kcz715cqb56btuox,Vn3lX0DQ,2020-0188,2020-06-04,14:51:19,15:16:07,NA,incomplete,50,shape,1,1,right,Green_Triangle_Dots_4.jpg,Green_Circle_Stripes_2.jpg,Blue_Triangle_Grid_3.jpg,right,510.6199999572709,true,low,false
Vn3lX0DQ,3mdwe879vkfdd3966pwqlqs1zxrb9a,3quo65dnqy1x39kcz715cqb56btuox,Vn3lX0DQ,2020-0188,2020-06-04,14:51:19,15:16:07,NA,incomplete,51,shape,1,1,right,Red_Triangle_Grid_3.jpg,Red_Plus_Chess_1.jpg,Purple_Triangle_Stripes_2.jpg,right,509.5199999632314,true,low,false
Vn3lX0DQ,3mdwe879vkfdd3966pwqlqs1zxrb9a,3quo65dnqy1x39kcz715cqb56btuox,Vn3lX0DQ,2020-0188,2020-06-04,14:51:19,15:16:07,NA,incomplete,52,shape,1,0,left,Green_Plus_Grid_2.jpg,Purple_Plus_Stripes_3.jpg,Green_Circle_Dots_1.jpg,left,555.8100000489503,true,low,false
Vn3lX0DQ,3mdwe879vkfdd3966pwqlqs1zxrb9a,3quo65dnqy1x39kcz715cqb56btuox,Vn3lX0DQ,2020-0188,2020-06-04,14:51:19,15:16:07,NA,incomplete,53,shape,1,1,right,Red_Triangle_Dots_1.jpg,Red_Circle_Grid_2.jpg,Purple_Triangle_Chess_4.jpg,left,609.8449999699369,false,low,false
Vn3lX0DQ,3mdwe879vkfdd3966pwqlqs1zxrb9a,3quo65dnqy1x39kcz715cqb56btuox,Vn3lX0DQ,2020-0188,2020-06-04,14:51:19,15:16:07,NA,incomplete,54,shape,1,0,right,Green_Star_Stripes_2.jpg,Green_Circle_Chess_1.jpg,Red_Star_Grid_4.jpg,left,627.8249999741092,false,low,false
Vn3lX0DQ,3mdwe879vkfdd3966pwqlqs1zxrb9a,3quo65dnqy1x39kcz715cqb56btuox,Vn3lX0DQ,2020-0188,2020-06-04,14:51:19,15:16:07,NA,incomplete,55,shape,1,0,right,Purple_Circle_Chess_4.jpg,Purple_Star_Dots_3.jpg,Green_Circle_Stripes_2.jpg,left,487.1199999470264,false,low,false
Vn3lX0DQ,3mdwe879vkfdd3966pwqlqs1zxrb9a,3quo65dnqy1x39kcz715cqb56btuox,Vn3lX0DQ,2020-0188,2020-06-04,14:51:19,15:16:07,NA,incomplete,56,shape,1,1,left,Blue_Triangle_Grid_1.jpg,Red_Triangle_Stripes_4.jpg,Blue_Star_Chess_3.jpg,right,429.8899999121204,false,low,false
Vn3lX0DQ,3mdwe879vkfdd3966pwqlqs1zxrb9a,3quo65dnqy1x39kcz715cqb56btuox,Vn3lX0DQ,2020-0188,2020-06-04,14:51:19,15:16:07,NA,incomplete,57,shape,1,0,left,Blue_Circle_Stripes_4.jpg,Red_Circle_Chess_1.jpg,Blue_Plus_Grid_3.jpg,left,585.3300000308082,true,low,false
Vn3lX0DQ,3mdwe879vkfdd3966pwqlqs1zxrb9a,3quo65dnqy1x39kcz715cqb56btuox,Vn3lX0DQ,2020-0188,2020-06-04,14:51:19,15:16:07,NA,incomplete,58,shape,1,0,left,Blue_Plus_Chess_1.jpg,Purple_Plus_Dots_2.jpg,Blue_Star_Stripes_4.jpg,right,403.6449999548495,false,low,false
Vn3lX0DQ,3mdwe879vkfdd3966pwqlqs1zxrb9a,3quo65dnqy1x39kcz715cqb56btuox,Vn3lX0DQ,2020-0188,2020-06-04,14:51:19,15:16:07,NA,incomplete,59,shape,1,1,left,Red_Triangle_Grid_2.jpg,Blue_Triangle_Dots_4.jpg,Red_Circle_Chess_3.jpg,right,799.8350000707433,false,low,false
Vn3lX0DQ,3mdwe879vkfdd3966pwqlqs1zxrb9a,3quo65dnqy1x39kcz715cqb56btuox,Vn3lX0DQ,2020-0188,2020-06-04,14:51:19,15:16:07,NA,incomplete,60,color,0,0,left,Red_Circle_Dots_3.jpg,Red_Plus_Grid_4.jpg,Green_Circle_Stripes_1.jpg,left,467.7449999144301,true,low,false
Vn3lX0DQ,3mdwe879vkfdd3966pwqlqs1zxrb9a,3quo65dnqy1x39kcz715cqb56btuox,Vn3lX0DQ,2020-0188,2020-06-04,14:51:19,15:16:07,NA,incomplete,61,color,0,1,right,Purple_Plus_Chess_4.jpg,Red_Plus_Dots_2.jpg,Purple_Star_Stripes_3.jpg,left,676.3499999651685,false,low,false
Vn3lX0DQ,3mdwe879vkfdd3966pwqlqs1zxrb9a,3quo65dnqy1x39kcz715cqb56btuox,Vn3lX0DQ,2020-0188,2020-06-04,14:51:19,15:16:07,NA,incomplete,62,color,0,1,left,Purple_Triangle_Grid_3.jpg,Purple_Plus_Stripes_2.jpg,Blue_Triangle_Dots_4.jpg,left,508.6100000189617,true,low,false
Vn3lX0DQ,3mdwe879vkfdd3966pwqlqs1zxrb9a,3quo65dnqy1x39kcz715cqb56btuox,Vn3lX0DQ,2020-0188,2020-06-04,14:51:19,15:16:07,NA,incomplete,63,color,0,1,right,Blue_Star_Grid_3.jpg,Purple_Star_Stripes_4.jpg,Blue_Plus_Chess_2.jpg,right,499.53499995172024,true,low,false
Vn3lX0DQ,3mdwe879vkfdd3966pwqlqs1zxrb9a,3quo65dnqy1x39kcz715cqb56btuox,Vn3lX0DQ,2020-0188,2020-06-04,14:51:19,15:16:07,NA,incomplete,64,color,0,1,right,Green_Plus_Chess_2.jpg,Blue_Plus_Stripes_3.jpg,Green_Triangle_Dots_1.jpg,right,587.2850000159815,true,low,false
Vn3lX0DQ,3mdwe879vkfdd3966pwqlqs1zxrb9a,3quo65dnqy1x39kcz715cqb56btuox,Vn3lX0DQ,2020-0188,2020-06-04,14:51:19,15:16:07,NA,incomplete,65,color,0,1,right,Red_Circle_Stripes_4.jpg,Blue_Circle_Grid_3.jpg,Red_Plus_Chess_2.jpg,right,503.2999999821186,true,low,false
Vn3lX0DQ,3mdwe879vkfdd3966pwqlqs1zxrb9a,3quo65dnqy1x39kcz715cqb56btuox,Vn3lX0DQ,2020-0188,2020-06-04,14:51:19,15:16:07,NA,incomplete,66,color,0,1,right,Blue_Circle_Chess_3.jpg,Red_Circle_Dots_2.jpg,Blue_Star_Stripes_4.jpg,right,429.16499997954816,true,low,false
Vn3lX0DQ,3mdwe879vkfdd3966pwqlqs1zxrb9a,3quo65dnqy1x39kcz715cqb56btuox,Vn3lX0DQ,2020-0188,2020-06-04,14:51:19,15:16:07,NA,incomplete,67,color,0,0,right,Green_Triangle_Stripes_1.jpg,Purple_Triangle_Chess_3.jpg,Green_Plus_Grid_4.jpg,right,424.6199999470264,true,low,false
Vn3lX0DQ,3mdwe879vkfdd3966pwqlqs1zxrb9a,3quo65dnqy1x39kcz715cqb56btuox,Vn3lX0DQ,2020-0188,2020-06-04,14:51:19,15:16:07,NA,incomplete,68,color,0,1,right,Purple_Circle_Stripes_4.jpg,Green_Circle_Chess_2.jpg,Purple_Plus_Grid_3.jpg,left,538.6850000359118,false,low,false
Vn3lX0DQ,3mdwe879vkfdd3966pwqlqs1zxrb9a,3quo65dnqy1x39kcz715cqb56btuox,Vn3lX0DQ,2020-0188,2020-06-04,14:51:19,15:16:07,NA,incomplete,69,color,0,1,right,Blue_Triangle_Dots_3.jpg,Green_Triangle_Stripes_1.jpg,Blue_Circle_Chess_4.jpg,right,504.36500005889684,true,low,false
Vn3lX0DQ,3mdwe879vkfdd3966pwqlqs1zxrb9a,3quo65dnqy1x39kcz715cqb56btuox,Vn3lX0DQ,2020-0188,2020-06-04,14:51:19,15:16:07,NA,incomplete,70,color,0,1,left,Green_Circle_Grid_1.jpg,Green_Triangle_Chess_3.jpg,Blue_Circle_Dots_4.jpg,left,623.6250000074506,true,low,false
Vn3lX0DQ,3mdwe879vkfdd3966pwqlqs1zxrb9a,3quo65dnqy1x39kcz715cqb56btuox,Vn3lX0DQ,2020-0188,2020-06-04,14:51:19,15:16:07,NA,incomplete,71,color,0,1,right,Green_Circle_Grid_2.jpg,Blue_Circle_Stripes_3.jpg,Green_Triangle_Dots_1.jpg,right,370.2349999221042,true,low,false
Vn3lX0DQ,3mdwe879vkfdd3966pwqlqs1zxrb9a,3quo65dnqy1x39kcz715cqb56btuox,Vn3lX0DQ,2020-0188,2020-06-04,14:51:19,15:16:07,NA,incomplete,72,color,0,1,right,Purple_Plus_Grid_3.jpg,Blue_Plus_Stripes_4.jpg,Purple_Circle_Dots_1.jpg,right,581.9549999432638,true,low,false
Vn3lX0DQ,3mdwe879vkfdd3966pwqlqs1zxrb9a,3quo65dnqy1x39kcz715cqb56btuox,Vn3lX0DQ,2020-0188,2020-06-04,14:51:19,15:16:07,NA,incomplete,73,color,0,1,right,Purple_Plus_Chess_1.jpg,Red_Plus_Grid_3.jpg,Purple_Circle_Stripes_4.jpg,right,442.73000000976026,true,low,false
Vn3lX0DQ,3mdwe879vkfdd3966pwqlqs1zxrb9a,3quo65dnqy1x39kcz715cqb56btuox,Vn3lX0DQ,2020-0188,2020-06-04,14:51:19,15:16:07,NA,incomplete,74,color,0,1,right,Blue_Star_Stripes_1.jpg,Green_Star_Grid_3.jpg,Blue_Plus_Dots_4.jpg,right,501.4049999881536,true,low,false
Vn3lX0DQ,3mdwe879vkfdd3966pwqlqs1zxrb9a,3quo65dnqy1x39kcz715cqb56btuox,Vn3lX0DQ,2020-0188,2020-06-04,14:51:19,15:16:07,NA,incomplete,75,color,0,1,left,Blue_Circle_Dots_4.jpg,Blue_Plus_Chess_1.jpg,Purple_Circle_Stripes_3.jpg,left,628.000000026077,true,low,false
Vn3lX0DQ,3mdwe879vkfdd3966pwqlqs1zxrb9a,3quo65dnqy1x39kcz715cqb56btuox,Vn3lX0DQ,2020-0188,2020-06-04,14:51:19,15:16:07,NA,incomplete,76,color,0,1,left,Red_Plus_Dots_4.jpg,Red_Circle_Grid_3.jpg,Blue_Plus_Stripes_1.jpg,left,477.82999998889863,true,low,false
Vn3lX0DQ,3mdwe879vkfdd3966pwqlqs1zxrb9a,3quo65dnqy1x39kcz715cqb56btuox,Vn3lX0DQ,2020-0188,2020-06-04,14:51:19,15:16:07,NA,incomplete,77,color,0,0,left,Blue_Triangle_Stripes_3.jpg,Blue_Circle_Dots_1.jpg,Red_Triangle_Grid_2.jpg,left,478.60999999102205,true,low,false
Vn3lX0DQ,3mdwe879vkfdd3966pwqlqs1zxrb9a,3quo65dnqy1x39kcz715cqb56btuox,Vn3lX0DQ,2020-0188,2020-06-04,14:51:19,15:16:07,NA,incomplete,78,color,0,1,left,Red_Circle_Dots_4.jpg,Red_Plus_Stripes_2.jpg,Purple_Circle_Grid_3.jpg,left,582.8500000061467,true,low,false
Vn3lX0DQ,3mdwe879vkfdd3966pwqlqs1zxrb9a,3quo65dnqy1x39kcz715cqb56btuox,Vn3lX0DQ,2020-0188,2020-06-04,14:51:19,15:16:07,NA,incomplete,79,color,0,0,left,Red_Star_Dots_1.jpg,Red_Circle_Chess_4.jpg,Blue_Star_Grid_2.jpg,left,531.2000000849366,true,low,false
Vn3lX0DQ,3mdwe879vkfdd3966pwqlqs1zxrb9a,3quo65dnqy1x39kcz715cqb56btuox,Vn3lX0DQ,2020-0188,2020-06-04,14:51:19,15:16:07,NA,incomplete,80,color,0,0,left,Blue_Star_Grid_3.jpg,Blue_Circle_Stripes_2.jpg,Red_Star_Dots_1.jpg,left,417.8450000472367,true,low,false
Vn3lX0DQ,3mdwe879vkfdd3966pwqlqs1zxrb9a,3quo65dnqy1x39kcz715cqb56btuox,Vn3lX0DQ,2020-0188,2020-06-04,14:51:19,15:16:07,NA,incomplete,81,color,0,1,right,Blue_Star_Grid_1.jpg,Purple_Star_Chess_2.jpg,Blue_Plus_Stripes_3.jpg,left,764.1349999466911,false,low,false
Vn3lX0DQ,3mdwe879vkfdd3966pwqlqs1zxrb9a,3quo65dnqy1x39kcz715cqb56btuox,Vn3lX0DQ,2020-0188,2020-06-04,14:51:19,15:16:07,NA,incomplete,82,color,0,1,left,Green_Plus_Grid_3.jpg,Green_Circle_Dots_4.jpg,Blue_Plus_Chess_1.jpg,left,425.5000000121072,true,low,false
Vn3lX0DQ,3mdwe879vkfdd3966pwqlqs1zxrb9a,3quo65dnqy1x39kcz715cqb56btuox,Vn3lX0DQ,2020-0188,2020-06-04,14:51:19,15:16:07,NA,incomplete,83,color,0,1,right,Blue_Star_Chess_1.jpg,Red_Star_Dots_3.jpg,Blue_Triangle_Stripes_4.jpg,right,395.95499995630234,true,low,false
Vn3lX0DQ,3mdwe879vkfdd3966pwqlqs1zxrb9a,3quo65dnqy1x39kcz715cqb56btuox,Vn3lX0DQ,2020-0188,2020-06-04,14:51:19,15:16:07,NA,incomplete,84,color,0,1,right,Blue_Star_Dots_2.jpg,Purple_Star_Stripes_4.jpg,Blue_Plus_Chess_3.jpg,right,359.6499999985099,true,low,false
Vn3lX0DQ,3mdwe879vkfdd3966pwqlqs1zxrb9a,3quo65dnqy1x39kcz715cqb56btuox,Vn3lX0DQ,2020-0188,2020-06-04,14:51:19,15:16:07,NA,incomplete,85,color,0,1,left,Red_Plus_Stripes_1.jpg,Red_Triangle_Dots_4.jpg,Purple_Plus_Chess_2.jpg,left,421.1399999912828,true,low,false
Vn3lX0DQ,3mdwe879vkfdd3966pwqlqs1zxrb9a,3quo65dnqy1x39kcz715cqb56btuox,Vn3lX0DQ,2020-0188,2020-06-04,14:51:19,15:16:07,NA,incomplete,86,color,0,1,left,Green_Star_Dots_1.jpg,Green_Circle_Chess_2.jpg,Blue_Star_Grid_4.jpg,left,415.14500009361655,true,low,false
Vn3lX0DQ,3mdwe879vkfdd3966pwqlqs1zxrb9a,3quo65dnqy1x39kcz715cqb56btuox,Vn3lX0DQ,2020-0188,2020-06-04,14:51:19,15:16:07,NA,incomplete,87,color,0,1,right,Purple_Triangle_Dots_2.jpg,Red_Triangle_Chess_1.jpg,Purple_Circle_Stripes_3.jpg,right,362.3649999499321,true,low,false
Vn3lX0DQ,3mdwe879vkfdd3966pwqlqs1zxrb9a,3quo65dnqy1x39kcz715cqb56btuox,Vn3lX0DQ,2020-0188,2020-06-04,14:51:19,15:16:07,NA,incomplete,88,color,0,1,right,Green_Circle_Chess_2.jpg,Purple_Circle_Dots_4.jpg,Green_Triangle_Grid_1.jpg,right,623.2849999796599,true,low,false
Vn3lX0DQ,3mdwe879vkfdd3966pwqlqs1zxrb9a,3quo65dnqy1x39kcz715cqb56btuox,Vn3lX0DQ,2020-0188,2020-06-04,14:51:19,15:16:07,NA,incomplete,89,color,0,1,left,Blue_Star_Dots_1.jpg,Blue_Plus_Chess_3.jpg,Green_Star_Grid_4.jpg,left,468.46000000368804,true,low,false
Vn3lX0DQ,3mdwe879vkfdd3966pwqlqs1zxrb9a,3quo65dnqy1x39kcz715cqb56btuox,Vn3lX0DQ,2020-0188,2020-06-04,14:51:19,15:16:07,NA,incomplete,90,shape,1,1,right,Purple_Plus_Chess_4.jpg,Purple_Triangle_Stripes_2.jpg,Blue_Plus_Dots_1.jpg,left,514.4899999722838,false,low,false
Vn3lX0DQ,3mdwe879vkfdd3966pwqlqs1zxrb9a,3quo65dnqy1x39kcz715cqb56btuox,Vn3lX0DQ,2020-0188,2020-06-04,14:51:19,15:16:07,NA,incomplete,91,shape,1,1,right,Red_Plus_Stripes_4.jpg,Red_Star_Chess_1.jpg,Green_Plus_Dots_2.jpg,right,496.3899999856949,true,low,false
Vn3lX0DQ,3mdwe879vkfdd3966pwqlqs1zxrb9a,3quo65dnqy1x39kcz715cqb56btuox,Vn3lX0DQ,2020-0188,2020-06-04,14:51:19,15:16:07,NA,incomplete,92,shape,1,1,right,Red_Plus_Grid_2.jpg,Red_Triangle_Stripes_1.jpg,Blue_Plus_Chess_4.jpg,right,506.0100000118837,true,low,false
Vn3lX0DQ,3mdwe879vkfdd3966pwqlqs1zxrb9a,3quo65dnqy1x39kcz715cqb56btuox,Vn3lX0DQ,2020-0188,2020-06-04,14:51:19,15:16:07,NA,incomplete,93,shape,1,0,right,Green_Plus_Stripes_1.jpg,Green_Circle_Dots_3.jpg,Blue_Plus_Chess_4.jpg,right,488.39999991469085,true,low,false
Vn3lX0DQ,3mdwe879vkfdd3966pwqlqs1zxrb9a,3quo65dnqy1x39kcz715cqb56btuox,Vn3lX0DQ,2020-0188,2020-06-04,14:51:19,15:16:07,NA,incomplete,94,shape,1,1,left,Red_Star_Grid_1.jpg,Blue_Star_Dots_4.jpg,Red_Circle_Stripes_3.jpg,right,560.2949999738485,false,low,false
Vn3lX0DQ,3mdwe879vkfdd3966pwqlqs1zxrb9a,3quo65dnqy1x39kcz715cqb56btuox,Vn3lX0DQ,2020-0188,2020-06-04,14:51:19,15:16:07,NA,incomplete,95,shape,1,1,right,Purple_Star_Chess_1.jpg,Purple_Triangle_Dots_3.jpg,Green_Star_Stripes_2.jpg,left,525.0600000144914,false,low,false
Vn3lX0DQ,3mdwe879vkfdd3966pwqlqs1zxrb9a,3quo65dnqy1x39kcz715cqb56btuox,Vn3lX0DQ,2020-0188,2020-06-04,14:51:19,15:16:07,NA,incomplete,96,shape,1,1,left,Green_Plus_Dots_3.jpg,Red_Plus_Stripes_4.jpg,Green_Circle_Grid_1.jpg,right,539.5199999911711,false,low,false
Vn3lX0DQ,3mdwe879vkfdd3966pwqlqs1zxrb9a,3quo65dnqy1x39kcz715cqb56btuox,Vn3lX0DQ,2020-0188,2020-06-04,14:51:19,15:16:07,NA,incomplete,97,shape,1,1,left,Red_Circle_Dots_4.jpg,Purple_Circle_Stripes_2.jpg,Red_Plus_Chess_3.jpg,left,657.2150000138208,true,low,false
Vn3lX0DQ,3mdwe879vkfdd3966pwqlqs1zxrb9a,3quo65dnqy1x39kcz715cqb56btuox,Vn3lX0DQ,2020-0188,2020-06-04,14:51:19,15:16:07,NA,incomplete,98,shape,1,0,right,Purple_Plus_Chess_3.jpg,Purple_Triangle_Dots_4.jpg,Green_Plus_Stripes_2.jpg,right,618.5200000181794,true,low,false
Vn3lX0DQ,3mdwe879vkfdd3966pwqlqs1zxrb9a,3quo65dnqy1x39kcz715cqb56btuox,Vn3lX0DQ,2020-0188,2020-06-04,14:51:19,15:16:07,NA,incomplete,99,shape,1,1,left,Blue_Circle_Stripes_4.jpg,Red_Circle_Grid_1.jpg,Blue_Triangle_Dots_2.jpg,right,518.0199999595061,false,low,false
Vn3lX0DQ,3mdwe879vkfdd3966pwqlqs1zxrb9a,3quo65dnqy1x39kcz715cqb56btuox,Vn3lX0DQ,2020-0188,2020-06-04,14:51:19,15:16:07,NA,incomplete,100,shape,1,1,right,Red_Star_Chess_4.jpg,Red_Plus_Dots_3.jpg,Green_Star_Grid_2.jpg,left,501.6400000313297,false,low,false
Vn3lX0DQ,3mdwe879vkfdd3966pwqlqs1zxrb9a,3quo65dnqy1x39kcz715cqb56btuox,Vn3lX0DQ,2020-0188,2020-06-04,14:51:19,15:16:07,NA,incomplete,101,shape,1,0,left,Green_Circle_Grid_3.jpg,Purple_Circle_Stripes_2.jpg,Green_Triangle_Chess_4.jpg,right,452.6550000300631,false,low,false
Vn3lX0DQ,3mdwe879vkfdd3966pwqlqs1zxrb9a,3quo65dnqy1x39kcz715cqb56btuox,Vn3lX0DQ,2020-0188,2020-06-04,14:51:19,15:16:07,NA,incomplete,102,shape,1,1,right,Purple_Star_Grid_2.jpg,Purple_Triangle_Stripes_3.jpg,Blue_Star_Dots_4.jpg,left,548.8499999046326,false,low,false
Vn3lX0DQ,3mdwe879vkfdd3966pwqlqs1zxrb9a,3quo65dnqy1x39kcz715cqb56btuox,Vn3lX0DQ,2020-0188,2020-06-04,14:51:19,15:16:07,NA,incomplete,103,shape,1,1,right,Green_Star_Dots_2.jpg,Green_Circle_Grid_1.jpg,Red_Star_Stripes_3.jpg,left,570.9700000006706,false,low,false
Vn3lX0DQ,3mdwe879vkfdd3966pwqlqs1zxrb9a,3quo65dnqy1x39kcz715cqb56btuox,Vn3lX0DQ,2020-0188,2020-06-04,14:51:19,15:16:07,NA,incomplete,104,shape,1,1,left,Green_Star_Grid_2.jpg,Red_Star_Dots_1.jpg,Green_Circle_Stripes_3.jpg,right,414.6050000563264,false,low,false
Vn3lX0DQ,3mdwe879vkfdd3966pwqlqs1zxrb9a,3quo65dnqy1x39kcz715cqb56btuox,Vn3lX0DQ,2020-0188,2020-06-04,14:51:19,15:16:07,NA,incomplete,105,shape,1,1,right,Purple_Circle_Dots_4.jpg,Purple_Plus_Grid_2.jpg,Green_Circle_Stripes_1.jpg,right,570.2349999919534,true,low,false
Vn3lX0DQ,3mdwe879vkfdd3966pwqlqs1zxrb9a,3quo65dnqy1x39kcz715cqb56btuox,Vn3lX0DQ,2020-0188,2020-06-04,14:51:19,15:16:07,NA,incomplete,106,shape,1,1,right,Green_Star_Dots_4.jpg,Green_Circle_Stripes_3.jpg,Blue_Star_Grid_2.jpg,right,725.2850000513718,true,low,false
Vn3lX0DQ,3mdwe879vkfdd3966pwqlqs1zxrb9a,3quo65dnqy1x39kcz715cqb56btuox,Vn3lX0DQ,2020-0188,2020-06-04,14:51:19,15:16:07,NA,incomplete,107,shape,1,1,right,Blue_Plus_Grid_1.jpg,Blue_Star_Stripes_3.jpg,Red_Plus_Dots_2.jpg,right,685.1800000295043,true,low,false
Vn3lX0DQ,3mdwe879vkfdd3966pwqlqs1zxrb9a,3quo65dnqy1x39kcz715cqb56btuox,Vn3lX0DQ,2020-0188,2020-06-04,14:51:19,15:16:07,NA,incomplete,108,shape,1,1,left,Red_Plus_Grid_2.jpg,Green_Plus_Chess_1.jpg,Red_Circle_Stripes_4.jpg,left,580.614999984391,true,low,false
Vn3lX0DQ,3mdwe879vkfdd3966pwqlqs1zxrb9a,3quo65dnqy1x39kcz715cqb56btuox,Vn3lX0DQ,2020-0188,2020-06-04,14:51:19,15:16:07,NA,incomplete,109,shape,1,1,left,Red_Triangle_Dots_3.jpg,Blue_Triangle_Grid_2.jpg,Red_Star_Chess_4.jpg,left,600.2400000579655,true,low,false
Vn3lX0DQ,3mdwe879vkfdd3966pwqlqs1zxrb9a,3quo65dnqy1x39kcz715cqb56btuox,Vn3lX0DQ,2020-0188,2020-06-04,14:51:19,15:16:07,NA,incomplete,110,shape,1,0,right,Purple_Plus_Dots_3.jpg,Purple_Triangle_Stripes_4.jpg,Blue_Plus_Grid_1.jpg,right,788.594999932684,true,low,false
Vn3lX0DQ,3mdwe879vkfdd3966pwqlqs1zxrb9a,3quo65dnqy1x39kcz715cqb56btuox,Vn3lX0DQ,2020-0188,2020-06-04,14:51:19,15:16:07,NA,incomplete,111,shape,1,0,left,Blue_Circle_Dots_2.jpg,Purple_Circle_Grid_3.jpg,Blue_Plus_Chess_1.jpg,right,528.1200000317767,false,low,false
Vn3lX0DQ,3mdwe879vkfdd3966pwqlqs1zxrb9a,3quo65dnqy1x39kcz715cqb56btuox,Vn3lX0DQ,2020-0188,2020-06-04,14:51:19,15:16:07,NA,incomplete,112,shape,1,1,left,Red_Plus_Chess_1.jpg,Purple_Plus_Dots_3.jpg,Red_Circle_Stripes_2.jpg,right,614.7249999921769,false,low,false
Vn3lX0DQ,3mdwe879vkfdd3966pwqlqs1zxrb9a,3quo65dnqy1x39kcz715cqb56btuox,Vn3lX0DQ,2020-0188,2020-06-04,14:51:19,15:16:07,NA,incomplete,113,shape,1,1,right,Green_Circle_Stripes_4.jpg,Green_Plus_Grid_1.jpg,Blue_Circle_Dots_3.jpg,right,521.4799999957904,true,low,false
Vn3lX0DQ,3mdwe879vkfdd3966pwqlqs1zxrb9a,3quo65dnqy1x39kcz715cqb56btuox,Vn3lX0DQ,2020-0188,2020-06-04,14:51:19,15:16:07,NA,incomplete,114,shape,1,1,left,Red_Star_Stripes_3.jpg,Green_Star_Chess_2.jpg,Red_Circle_Dots_4.jpg,left,663.509999983944,true,low,false
Vn3lX0DQ,3mdwe879vkfdd3966pwqlqs1zxrb9a,3quo65dnqy1x39kcz715cqb56btuox,Vn3lX0DQ,2020-0188,2020-06-04,14:51:19,15:16:07,NA,incomplete,115,shape,1,1,left,Red_Circle_Grid_2.jpg,Blue_Circle_Stripes_1.jpg,Red_Star_Chess_3.jpg,left,624.6899999678135,true,low,false
Vn3lX0DQ,3mdwe879vkfdd3966pwqlqs1zxrb9a,3quo65dnqy1x39kcz715cqb56btuox,Vn3lX0DQ,2020-0188,2020-06-04,14:51:19,15:16:07,NA,incomplete,116,shape,1,0,right,Purple_Triangle_Chess_3.jpg,Purple_Circle_Stripes_4.jpg,Green_Triangle_Dots_1.jpg,right,594.6599999442697,true,low,false
Vn3lX0DQ,3mdwe879vkfdd3966pwqlqs1zxrb9a,3quo65dnqy1x39kcz715cqb56btuox,Vn3lX0DQ,2020-0188,2020-06-04,14:51:19,15:16:07,NA,incomplete,117,shape,1,1,left,Purple_Plus_Stripes_3.jpg,Blue_Plus_Grid_4.jpg,Purple_Star_Dots_1.jpg,right,526.8149999901652,false,low,false
Vn3lX0DQ,3mdwe879vkfdd3966pwqlqs1zxrb9a,3quo65dnqy1x39kcz715cqb56btuox,Vn3lX0DQ,2020-0188,2020-06-04,14:51:19,15:16:07,NA,incomplete,118,shape,1,0,left,Red_Triangle_Chess_3.jpg,Blue_Triangle_Dots_2.jpg,Red_Circle_Stripes_1.jpg,right,573.0400000466034,false,low,false
Vn3lX0DQ,3mdwe879vkfdd3966pwqlqs1zxrb9a,3quo65dnqy1x39kcz715cqb56btuox,Vn3lX0DQ,2020-0188,2020-06-04,14:51:19,15:16:07,NA,incomplete,119,shape,1,1,left,Red_Star_Chess_3.jpg,Green_Star_Stripes_1.jpg,Red_Circle_Dots_4.jpg,right,418.70500007644296,false,low,false
Vn3lX0DQ,3mdwe879vkfdd3966pwqlqs1zxrb9a,3quo65dnqy1x39kcz715cqb56btuox,Vn3lX0DQ,2020-0188,2020-06-04,14:51:19,15:16:07,NA,incomplete,120,race,2,1,right,C_F_02.jpg,A_F_11.jpg,C_M_09.jpg,NA,NA,NA,low,false
Vn3lX0DQ,3mdwe879vkfdd3966pwqlqs1zxrb9a,3quo65dnqy1x39kcz715cqb56btuox,Vn3lX0DQ,2020-0188,2020-06-04,14:51:19,15:16:07,NA,incomplete,121,race,2,0,left,C_F_08.jpg,C_M_09.jpg,A_F_04.jpg,right,965.9300000639632,false,low,false
Vn3lX0DQ,3mdwe879vkfdd3966pwqlqs1zxrb9a,3quo65dnqy1x39kcz715cqb56btuox,Vn3lX0DQ,2020-0188,2020-06-04,14:51:19,15:16:07,NA,incomplete,122,race,2,1,left,C_F_07.jpg,C_M_03.jpg,A_F_16.jpg,right,730.2749999798834,false,low,false
Vn3lX0DQ,3mdwe879vkfdd3966pwqlqs1zxrb9a,3quo65dnqy1x39kcz715cqb56btuox,Vn3lX0DQ,2020-0188,2020-06-04,14:51:19,15:16:07,NA,incomplete,123,race,2,0,right,A_F_12.jpg,C_F_07.jpg,A_M_16.jpg,left,1014.4749999744818,false,low,false
Vn3lX0DQ,3mdwe879vkfdd3966pwqlqs1zxrb9a,3quo65dnqy1x39kcz715cqb56btuox,Vn3lX0DQ,2020-0188,2020-06-04,14:51:19,15:16:07,NA,incomplete,124,race,2,1,left,A_M_14.jpg,A_F_05.jpg,C_M_04.jpg,right,995.3700000187382,false,low,false
Vn3lX0DQ,3mdwe879vkfdd3966pwqlqs1zxrb9a,3quo65dnqy1x39kcz715cqb56btuox,Vn3lX0DQ,2020-0188,2020-06-04,14:51:19,15:16:07,NA,incomplete,125,race,2,0,right,C_M_02.jpg,A_M_14.jpg,C_F_06.jpg,right,935.2900000521913,true,low,false
Vn3lX0DQ,3mdwe879vkfdd3966pwqlqs1zxrb9a,3quo65dnqy1x39kcz715cqb56btuox,Vn3lX0DQ,2020-0188,2020-06-04,14:51:19,15:16:07,NA,incomplete,126,race,2,1,left,A_F_02.jpg,A_M_08.jpg,C_F_11.jpg,right,796.3699999963865,false,low,false
Vn3lX0DQ,3mdwe879vkfdd3966pwqlqs1zxrb9a,3quo65dnqy1x39kcz715cqb56btuox,Vn3lX0DQ,2020-0188,2020-06-04,14:51:19,15:16:07,NA,incomplete,127,race,2,1,right,C_M_14.jpg,A_M_16.jpg,C_F_15.jpg,right,920.2499999664724,true,low,false
Vn3lX0DQ,3mdwe879vkfdd3966pwqlqs1zxrb9a,3quo65dnqy1x39kcz715cqb56btuox,Vn3lX0DQ,2020-0188,2020-06-04,14:51:19,15:16:07,NA,incomplete,128,race,2,1,right,C_M_05.jpg,A_M_11.jpg,C_F_12.jpg,right,909.9350000033155,true,low,false
Vn3lX0DQ,3mdwe879vkfdd3966pwqlqs1zxrb9a,3quo65dnqy1x39kcz715cqb56btuox,Vn3lX0DQ,2020-0188,2020-06-04,14:51:19,15:16:07,NA,incomplete,129,race,2,1,left,C_M_10.jpg,C_F_13.jpg,A_M_08.jpg,left,837.085000006482,true,low,false
Vn3lX0DQ,3mdwe879vkfdd3966pwqlqs1zxrb9a,3quo65dnqy1x39kcz715cqb56btuox,Vn3lX0DQ,2020-0188,2020-06-04,14:51:19,15:16:07,NA,incomplete,130,race,2,0,left,A_F_04.jpg,A_M_12.jpg,C_F_13.jpg,right,1038.28999993857,false,low,false
Vn3lX0DQ,3mdwe879vkfdd3966pwqlqs1zxrb9a,3quo65dnqy1x39kcz715cqb56btuox,Vn3lX0DQ,2020-0188,2020-06-04,14:51:19,15:16:07,NA,incomplete,131,race,2,1,left,C_F_07.jpg,C_M_01.jpg,A_F_02.jpg,right,816.5099999168888,false,low,false
Vn3lX0DQ,3mdwe879vkfdd3966pwqlqs1zxrb9a,3quo65dnqy1x39kcz715cqb56btuox,Vn3lX0DQ,2020-0188,2020-06-04,14:51:19,15:16:07,NA,incomplete,132,race,2,1,right,A_F_13.jpg,C_F_16.jpg,A_M_04.jpg,left,1051.534999976866,false,low,false
Vn3lX0DQ,3mdwe879vkfdd3966pwqlqs1zxrb9a,3quo65dnqy1x39kcz715cqb56btuox,Vn3lX0DQ,2020-0188,2020-06-04,14:51:19,15:16:07,NA,incomplete,133,race,2,1,right,A_M_13.jpg,C_M_10.jpg,A_F_01.jpg,right,946.1000000592321,true,low,false
Vn3lX0DQ,3mdwe879vkfdd3966pwqlqs1zxrb9a,3quo65dnqy1x39kcz715cqb56btuox,Vn3lX0DQ,2020-0188,2020-06-04,14:51:19,15:16:07,NA,incomplete,134,race,2,1,right,C_F_09.jpg,A_F_14.jpg,C_M_15.jpg,right,873.5550000565127,true,low,false
Vn3lX0DQ,3mdwe879vkfdd3966pwqlqs1zxrb9a,3quo65dnqy1x39kcz715cqb56btuox,Vn3lX0DQ,2020-0188,2020-06-04,14:51:19,15:16:07,NA,incomplete,135,race,2,1,left,A_M_13.jpg,A_F_15.jpg,C_M_09.jpg,left,801.9899999490008,true,low,false
Vn3lX0DQ,3mdwe879vkfdd3966pwqlqs1zxrb9a,3quo65dnqy1x39kcz715cqb56btuox,Vn3lX0DQ,2020-0188,2020-06-04,14:51:19,15:16:07,NA,incomplete,136,race,2,0,right,A_M_15.jpg,C_M_07.jpg,A_F_04.jpg,right,732.6350000221282,true,low,false
Vn3lX0DQ,3mdwe879vkfdd3966pwqlqs1zxrb9a,3quo65dnqy1x39kcz715cqb56btuox,Vn3lX0DQ,2020-0188,2020-06-04,14:51:19,15:16:07,NA,incomplete,137,race,2,1,left,C_F_11.jpg,C_M_01.jpg,A_F_09.jpg,right,898.8449999596924,false,low,false
Vn3lX0DQ,3mdwe879vkfdd3966pwqlqs1zxrb9a,3quo65dnqy1x39kcz715cqb56btuox,Vn3lX0DQ,2020-0188,2020-06-04,14:51:19,15:16:07,NA,incomplete,138,race,2,1,left,A_M_03.jpg,A_F_01.jpg,C_M_02.jpg,left,906.3499999465421,true,low,false
Vn3lX0DQ,3mdwe879vkfdd3966pwqlqs1zxrb9a,3quo65dnqy1x39kcz715cqb56btuox,Vn3lX0DQ,2020-0188,2020-06-04,14:51:19,15:16:07,NA,incomplete,139,race,2,1,right,C_F_11.jpg,A_F_12.jpg,C_M_01.jpg,left,857.3150000302121,false,low,false
Vn3lX0DQ,3mdwe879vkfdd3966pwqlqs1zxrb9a,3quo65dnqy1x39kcz715cqb56btuox,Vn3lX0DQ,2020-0188,2020-06-04,14:51:19,15:16:07,NA,incomplete,140,gender,3,1,left,C_M_15.jpg,A_M_09.jpg,C_F_04.jpg,right,729.9900000216439,false,low,false
Vn3lX0DQ,3mdwe879vkfdd3966pwqlqs1zxrb9a,3quo65dnqy1x39kcz715cqb56btuox,Vn3lX0DQ,2020-0188,2020-06-04,14:51:19,15:16:07,NA,incomplete,141,gender,3,1,right,C_M_10.jpg,C_F_13.jpg,A_M_12.jpg,left,943.6050000367686,false,low,false
Vn3lX0DQ,3mdwe879vkfdd3966pwqlqs1zxrb9a,3quo65dnqy1x39kcz715cqb56btuox,Vn3lX0DQ,2020-0188,2020-06-04,14:51:19,15:16:07,NA,incomplete,142,gender,3,1,left,C_F_05.jpg,A_F_12.jpg,C_M_01.jpg,left,652.8849999886006,true,low,false
Vn3lX0DQ,3mdwe879vkfdd3966pwqlqs1zxrb9a,3quo65dnqy1x39kcz715cqb56btuox,Vn3lX0DQ,2020-0188,2020-06-04,14:51:19,15:16:07,NA,incomplete,143,gender,3,1,left,C_F_16.jpg,A_F_08.jpg,C_M_02.jpg,left,622.6249999599531,true,low,false
Vn3lX0DQ,3mdwe879vkfdd3966pwqlqs1zxrb9a,3quo65dnqy1x39kcz715cqb56btuox,Vn3lX0DQ,2020-0188,2020-06-04,14:51:19,15:16:07,NA,incomplete,144,gender,3,1,right,A_F_11.jpg,A_M_05.jpg,C_F_08.jpg,right,808.8849999476224,true,low,false
Vn3lX0DQ,3mdwe879vkfdd3966pwqlqs1zxrb9a,3quo65dnqy1x39kcz715cqb56btuox,Vn3lX0DQ,2020-0188,2020-06-04,14:51:19,15:16:07,NA,incomplete,145,gender,3,1,left,A_F_01.jpg,C_F_07.jpg,A_M_03.jpg,left,539.7149999625981,true,low,false
Vn3lX0DQ,3mdwe879vkfdd3966pwqlqs1zxrb9a,3quo65dnqy1x39kcz715cqb56btuox,Vn3lX0DQ,2020-0188,2020-06-04,14:51:19,15:16:07,NA,incomplete,146,gender,3,0,right,C_M_08.jpg,C_F_11.jpg,A_M_07.jpg,right,689.9500000290573,true,low,false
Vn3lX0DQ,3mdwe879vkfdd3966pwqlqs1zxrb9a,3quo65dnqy1x39kcz715cqb56btuox,Vn3lX0DQ,2020-0188,2020-06-04,14:51:19,15:16:07,NA,incomplete,147,gender,3,1,right,C_M_12.jpg,C_F_03.jpg,A_M_02.jpg,left,729.1700000641868,false,low,false
Vn3lX0DQ,3mdwe879vkfdd3966pwqlqs1zxrb9a,3quo65dnqy1x39kcz715cqb56btuox,Vn3lX0DQ,2020-0188,2020-06-04,14:51:19,15:16:07,NA,incomplete,148,gender,3,1,left,C_F_15.jpg,A_F_16.jpg,C_M_10.jpg,left,582.909999997355,true,low,false
Vn3lX0DQ,3mdwe879vkfdd3966pwqlqs1zxrb9a,3quo65dnqy1x39kcz715cqb56btuox,Vn3lX0DQ,2020-0188,2020-06-04,14:51:19,15:16:07,NA,incomplete,149,gender,3,0,left,A_M_05.jpg,C_M_15.jpg,A_F_11.jpg,right,747.5550000090152,false,low,false
Vn3lX0DQ,3mdwe879vkfdd3966pwqlqs1zxrb9a,3quo65dnqy1x39kcz715cqb56btuox,Vn3lX0DQ,2020-0188,2020-06-04,14:51:19,15:16:07,NA,incomplete,150,gender,3,1,right,A_M_14.jpg,A_F_16.jpg,C_M_13.jpg,left,897.1400000154972,false,low,false
Vn3lX0DQ,3mdwe879vkfdd3966pwqlqs1zxrb9a,3quo65dnqy1x39kcz715cqb56btuox,Vn3lX0DQ,2020-0188,2020-06-04,14:51:19,15:16:07,NA,incomplete,151,gender,3,1,left,C_F_15.jpg,A_F_07.jpg,C_M_14.jpg,left,887.2599999886006,true,low,false
Vn3lX0DQ,3mdwe879vkfdd3966pwqlqs1zxrb9a,3quo65dnqy1x39kcz715cqb56btuox,Vn3lX0DQ,2020-0188,2020-06-04,14:51:19,15:16:07,NA,incomplete,152,gender,3,1,left,C_F_05.jpg,A_F_08.jpg,C_M_07.jpg,left,695.160000002943,true,low,false
Vn3lX0DQ,3mdwe879vkfdd3966pwqlqs1zxrb9a,3quo65dnqy1x39kcz715cqb56btuox,Vn3lX0DQ,2020-0188,2020-06-04,14:51:19,15:16:07,NA,incomplete,153,gender,3,1,left,A_F_13.jpg,C_F_03.jpg,A_M_01.jpg,left,663.7450000271201,true,low,false
Vn3lX0DQ,3mdwe879vkfdd3966pwqlqs1zxrb9a,3quo65dnqy1x39kcz715cqb56btuox,Vn3lX0DQ,2020-0188,2020-06-04,14:51:19,15:16:07,NA,incomplete,154,gender,3,0,right,A_M_09.jpg,A_F_16.jpg,C_M_01.jpg,right,631.8299999693409,true,low,false
Vn3lX0DQ,3mdwe879vkfdd3966pwqlqs1zxrb9a,3quo65dnqy1x39kcz715cqb56btuox,Vn3lX0DQ,2020-0188,2020-06-04,14:51:19,15:16:07,NA,incomplete,155,gender,3,1,left,A_M_16.jpg,C_M_08.jpg,A_F_15.jpg,left,659.0249999426305,true,low,false
Vn3lX0DQ,3mdwe879vkfdd3966pwqlqs1zxrb9a,3quo65dnqy1x39kcz715cqb56btuox,Vn3lX0DQ,2020-0188,2020-06-04,14:51:19,15:16:07,NA,incomplete,156,gender,3,1,left,A_F_10.jpg,C_F_15.jpg,A_M_04.jpg,left,660.3850000537932,true,low,false
Vn3lX0DQ,3mdwe879vkfdd3966pwqlqs1zxrb9a,3quo65dnqy1x39kcz715cqb56btuox,Vn3lX0DQ,2020-0188,2020-06-04,14:51:19,15:16:07,NA,incomplete,157,gender,3,1,left,A_F_11.jpg,C_F_08.jpg,A_M_15.jpg,left,709.1599999694154,true,low,false
Vn3lX0DQ,3mdwe879vkfdd3966pwqlqs1zxrb9a,3quo65dnqy1x39kcz715cqb56btuox,Vn3lX0DQ,2020-0188,2020-06-04,14:51:19,15:16:07,NA,incomplete,158,gender,3,1,left,C_M_11.jpg,A_M_13.jpg,C_F_04.jpg,left,779.7299999510869,true,low,false
Vn3lX0DQ,3mdwe879vkfdd3966pwqlqs1zxrb9a,3quo65dnqy1x39kcz715cqb56btuox,Vn3lX0DQ,2020-0188,2020-06-04,14:51:19,15:16:07,NA,incomplete,159,gender,3,1,right,C_M_03.jpg,C_F_14.jpg,A_M_12.jpg,right,664.6099999779835,true,low,false
Vn3lX0DQ,3mdwe879vkfdd3966pwqlqs1zxrb9a,3quo65dnqy1x39kcz715cqb56btuox,Vn3lX0DQ,2020-0188,2020-06-04,14:51:19,15:16:07,NA,incomplete,160,race,2,1,right,A_F_04.jpg,C_F_06.jpg,A_M_11.jpg,left,544.9149999767542,false,low,false
Vn3lX0DQ,3mdwe879vkfdd3966pwqlqs1zxrb9a,3quo65dnqy1x39kcz715cqb56btuox,Vn3lX0DQ,2020-0188,2020-06-04,14:51:19,15:16:07,NA,incomplete,161,race,2,1,right,C_M_03.jpg,A_M_07.jpg,C_F_13.jpg,left,655.2049999590963,false,low,false
Vn3lX0DQ,3mdwe879vkfdd3966pwqlqs1zxrb9a,3quo65dnqy1x39kcz715cqb56btuox,Vn3lX0DQ,2020-0188,2020-06-04,14:51:19,15:16:07,NA,incomplete,162,race,2,1,left,A_M_11.jpg,A_F_01.jpg,C_M_05.jpg,right,727.6700000511482,false,low,false
Vn3lX0DQ,3mdwe879vkfdd3966pwqlqs1zxrb9a,3quo65dnqy1x39kcz715cqb56btuox,Vn3lX0DQ,2020-0188,2020-06-04,14:51:19,15:16:07,NA,incomplete,163,race,2,1,left,A_M_07.jpg,A_F_12.jpg,C_M_14.jpg,right,789.0649999026209,false,low,false
Vn3lX0DQ,3mdwe879vkfdd3966pwqlqs1zxrb9a,3quo65dnqy1x39kcz715cqb56btuox,Vn3lX0DQ,2020-0188,2020-06-04,14:51:19,15:16:07,NA,incomplete,164,race,2,0,right,C_M_05.jpg,A_M_12.jpg,C_F_16.jpg,left,641.5450000204146,false,low,false
Vn3lX0DQ,3mdwe879vkfdd3966pwqlqs1zxrb9a,3quo65dnqy1x39kcz715cqb56btuox,Vn3lX0DQ,2020-0188,2020-06-04,14:51:19,15:16:07,NA,incomplete,165,race,2,1,left,A_F_15.jpg,A_M_12.jpg,C_F_06.jpg,right,571.4050000533462,false,low,false
Vn3lX0DQ,3mdwe879vkfdd3966pwqlqs1zxrb9a,3quo65dnqy1x39kcz715cqb56btuox,Vn3lX0DQ,2020-0188,2020-06-04,14:51:19,15:16:07,NA,incomplete,166,race,2,1,left,C_F_05.jpg,C_M_12.jpg,A_F_07.jpg,right,855.6249999674037,false,low,false
Vn3lX0DQ,3mdwe879vkfdd3966pwqlqs1zxrb9a,3quo65dnqy1x39kcz715cqb56btuox,Vn3lX0DQ,2020-0188,2020-06-04,14:51:19,15:16:07,NA,incomplete,167,race,2,1,left,C_F_06.jpg,C_M_12.jpg,A_F_02.jpg,right,696.0749999852851,false,low,false
Vn3lX0DQ,3mdwe879vkfdd3966pwqlqs1zxrb9a,3quo65dnqy1x39kcz715cqb56btuox,Vn3lX0DQ,2020-0188,2020-06-04,14:51:19,15:16:07,NA,incomplete,168,race,2,1,right,A_F_12.jpg,C_F_11.jpg,A_M_02.jpg,left,712.2750000562519,false,low,false
Vn3lX0DQ,3mdwe879vkfdd3966pwqlqs1zxrb9a,3quo65dnqy1x39kcz715cqb56btuox,Vn3lX0DQ,2020-0188,2020-06-04,14:51:19,15:16:07,NA,incomplete,169,race,2,1,left,C_M_08.jpg,C_F_13.jpg,A_M_15.jpg,right,822.6549999089912,false,low,false
Vn3lX0DQ,3mdwe879vkfdd3966pwqlqs1zxrb9a,3quo65dnqy1x39kcz715cqb56btuox,Vn3lX0DQ,2020-0188,2020-06-04,14:51:19,15:16:07,NA,incomplete,170,race,2,1,left,A_M_02.jpg,A_F_03.jpg,C_M_07.jpg,left,776.769999996759,true,low,false
Vn3lX0DQ,3mdwe879vkfdd3966pwqlqs1zxrb9a,3quo65dnqy1x39kcz715cqb56btuox,Vn3lX0DQ,2020-0188,2020-06-04,14:51:19,15:16:07,NA,incomplete,171,race,2,1,left,A_F_07.jpg,A_M_05.jpg,C_F_15.jpg,left,717.9999999934807,true,low,false
Vn3lX0DQ,3mdwe879vkfdd3966pwqlqs1zxrb9a,3quo65dnqy1x39kcz715cqb56btuox,Vn3lX0DQ,2020-0188,2020-06-04,14:51:19,15:16:07,NA,incomplete,172,race,2,0,left,C_F_15.jpg,C_M_11.jpg,A_F_04.jpg,left,1043.3000000193715,true,low,false
Vn3lX0DQ,3mdwe879vkfdd3966pwqlqs1zxrb9a,3quo65dnqy1x39kcz715cqb56btuox,Vn3lX0DQ,2020-0188,2020-06-04,14:51:19,15:16:07,NA,incomplete,173,race,2,1,right,C_M_14.jpg,A_M_07.jpg,C_F_13.jpg,right,1093.6000000219792,true,low,false
Vn3lX0DQ,3mdwe879vkfdd3966pwqlqs1zxrb9a,3quo65dnqy1x39kcz715cqb56btuox,Vn3lX0DQ,2020-0188,2020-06-04,14:51:19,15:16:07,NA,incomplete,174,race,2,0,left,A_F_12.jpg,A_M_07.jpg,C_F_10.jpg,right,693.0700000375509,false,low,false
Vn3lX0DQ,3mdwe879vkfdd3966pwqlqs1zxrb9a,3quo65dnqy1x39kcz715cqb56btuox,Vn3lX0DQ,2020-0188,2020-06-04,14:51:19,15:16:07,NA,incomplete,175,race,2,1,left,C_M_12.jpg,C_F_05.jpg,A_M_16.jpg,left,1164.3199999816716,true,low,false
Vn3lX0DQ,3mdwe879vkfdd3966pwqlqs1zxrb9a,3quo65dnqy1x39kcz715cqb56btuox,Vn3lX0DQ,2020-0188,2020-06-04,14:51:19,15:16:07,NA,incomplete,176,race,2,1,left,C_F_12.jpg,C_M_04.jpg,A_F_14.jpg,left,761.2799999769777,true,low,false
Vn3lX0DQ,3mdwe879vkfdd3966pwqlqs1zxrb9a,3quo65dnqy1x39kcz715cqb56btuox,Vn3lX0DQ,2020-0188,2020-06-04,14:51:19,15:16:07,NA,incomplete,177,race,2,0,left,C_F_03.jpg,C_M_09.jpg,A_F_05.jpg,left,646.1200000485405,true,low,false
Vn3lX0DQ,3mdwe879vkfdd3966pwqlqs1zxrb9a,3quo65dnqy1x39kcz715cqb56btuox,Vn3lX0DQ,2020-0188,2020-06-04,14:51:19,15:16:07,NA,incomplete,178,race,2,1,left,C_F_15.jpg,C_M_06.jpg,A_F_08.jpg,right,527.7599999681115,false,low,false
Vn3lX0DQ,3mdwe879vkfdd3966pwqlqs1zxrb9a,3quo65dnqy1x39kcz715cqb56btuox,Vn3lX0DQ,2020-0188,2020-06-04,14:51:19,15:16:07,NA,incomplete,179,race,2,0,left,C_F_02.jpg,C_M_14.jpg,A_F_01.jpg,left,693.9299999503419,true,low,false
Vn3lX0DQ,3mdwe879vkfdd3966pwqlqs1zxrb9a,3quo65dnqy1x39kcz715cqb56btuox,Vn3lX0DQ,2020-0188,2020-06-04,14:51:19,15:16:07,NA,incomplete,180,gender,3,1,right,C_M_06.jpg,C_F_07.jpg,A_M_05.jpg,right,934.4800000544637,true,low,false
Vn3lX0DQ,3mdwe879vkfdd3966pwqlqs1zxrb9a,3quo65dnqy1x39kcz715cqb56btuox,Vn3lX0DQ,2020-0188,2020-06-04,14:51:19,15:16:07,NA,incomplete,181,gender,3,1,right,C_M_16.jpg,C_F_02.jpg,A_M_07.jpg,right,627.9799999902025,true,low,false
Vn3lX0DQ,3mdwe879vkfdd3966pwqlqs1zxrb9a,3quo65dnqy1x39kcz715cqb56btuox,Vn3lX0DQ,2020-0188,2020-06-04,14:51:19,15:16:07,NA,incomplete,182,gender,3,0,right,C_M_02.jpg,C_F_11.jpg,A_M_01.jpg,right,709.9750000052154,true,low,false
Vn3lX0DQ,3mdwe879vkfdd3966pwqlqs1zxrb9a,3quo65dnqy1x39kcz715cqb56btuox,Vn3lX0DQ,2020-0188,2020-06-04,14:51:19,15:16:07,NA,incomplete,183,gender,3,1,left,C_F_13.jpg,A_F_05.jpg,C_M_11.jpg,left,709.2450000345707,true,low,false
Vn3lX0DQ,3mdwe879vkfdd3966pwqlqs1zxrb9a,3quo65dnqy1x39kcz715cqb56btuox,Vn3lX0DQ,2020-0188,2020-06-04,14:51:19,15:16:07,NA,incomplete,184,gender,3,1,left,C_F_11.jpg,A_F_13.jpg,C_M_14.jpg,left,971.819999977015,true,low,false
Vn3lX0DQ,3mdwe879vkfdd3966pwqlqs1zxrb9a,3quo65dnqy1x39kcz715cqb56btuox,Vn3lX0DQ,2020-0188,2020-06-04,14:51:19,15:16:07,NA,incomplete,185,gender,3,0,right,A_F_08.jpg,A_M_02.jpg,C_F_12.jpg,right,815.2199999894947,true,low,false
Vn3lX0DQ,3mdwe879vkfdd3966pwqlqs1zxrb9a,3quo65dnqy1x39kcz715cqb56btuox,Vn3lX0DQ,2020-0188,2020-06-04,14:51:19,15:16:07,NA,incomplete,186,gender,3,1,left,A_F_07.jpg,C_F_12.jpg,A_M_13.jpg,left,1139.0149999642745,true,low,false
Vn3lX0DQ,3mdwe879vkfdd3966pwqlqs1zxrb9a,3quo65dnqy1x39kcz715cqb56btuox,Vn3lX0DQ,2020-0188,2020-06-04,14:51:19,15:16:07,NA,incomplete,187,gender,3,0,left,A_M_12.jpg,C_M_01.jpg,A_F_15.jpg,left,1088.78500002902,true,low,false
Vn3lX0DQ,3mdwe879vkfdd3966pwqlqs1zxrb9a,3quo65dnqy1x39kcz715cqb56btuox,Vn3lX0DQ,2020-0188,2020-06-04,14:51:19,15:16:07,NA,incomplete,188,gender,3,1,left,C_M_01.jpg,A_M_06.jpg,C_F_03.jpg,right,687.6950000878423,false,low,false
Vn3lX0DQ,3mdwe879vkfdd3966pwqlqs1zxrb9a,3quo65dnqy1x39kcz715cqb56btuox,Vn3lX0DQ,2020-0188,2020-06-04,14:51:19,15:16:07,NA,incomplete,189,gender,3,0,right,C_M_11.jpg,C_F_04.jpg,A_M_10.jpg,right,806.4399999566376,true,low,false
Vn3lX0DQ,3mdwe879vkfdd3966pwqlqs1zxrb9a,3quo65dnqy1x39kcz715cqb56btuox,Vn3lX0DQ,2020-0188,2020-06-04,14:51:19,15:16:07,NA,incomplete,190,gender,3,1,right,A_M_12.jpg,A_F_16.jpg,C_M_05.jpg,left,745.9449999732897,false,low,false
Vn3lX0DQ,3mdwe879vkfdd3966pwqlqs1zxrb9a,3quo65dnqy1x39kcz715cqb56btuox,Vn3lX0DQ,2020-0188,2020-06-04,14:51:19,15:16:07,NA,incomplete,191,gender,3,0,right,C_M_07.jpg,C_F_03.jpg,A_M_10.jpg,right,639.7750000469387,true,low,false
Vn3lX0DQ,3mdwe879vkfdd3966pwqlqs1zxrb9a,3quo65dnqy1x39kcz715cqb56btuox,Vn3lX0DQ,2020-0188,2020-06-04,14:51:19,15:16:07,NA,incomplete,192,gender,3,1,right,A_F_07.jpg,A_M_11.jpg,C_F_10.jpg,right,705.1350000547245,true,low,false
Vn3lX0DQ,3mdwe879vkfdd3966pwqlqs1zxrb9a,3quo65dnqy1x39kcz715cqb56btuox,Vn3lX0DQ,2020-0188,2020-06-04,14:51:19,15:16:07,NA,incomplete,193,gender,3,1,left,C_F_11.jpg,A_F_14.jpg,C_M_15.jpg,left,824.2150000296533,true,low,false
Vn3lX0DQ,3mdwe879vkfdd3966pwqlqs1zxrb9a,3quo65dnqy1x39kcz715cqb56btuox,Vn3lX0DQ,2020-0188,2020-06-04,14:51:19,15:16:07,NA,incomplete,194,gender,3,1,left,A_M_08.jpg,C_M_11.jpg,A_F_16.jpg,left,1043.4499999973923,true,low,false
Vn3lX0DQ,3mdwe879vkfdd3966pwqlqs1zxrb9a,3quo65dnqy1x39kcz715cqb56btuox,Vn3lX0DQ,2020-0188,2020-06-04,14:51:19,15:16:07,NA,incomplete,195,gender,3,1,left,C_F_07.jpg,A_F_09.jpg,C_M_14.jpg,right,595.7600000547245,false,low,false
Vn3lX0DQ,3mdwe879vkfdd3966pwqlqs1zxrb9a,3quo65dnqy1x39kcz715cqb56btuox,Vn3lX0DQ,2020-0188,2020-06-04,14:51:19,15:16:07,NA,incomplete,196,gender,3,1,right,C_M_11.jpg,C_F_13.jpg,A_M_01.jpg,left,871.7999999644235,false,low,false
Vn3lX0DQ,3mdwe879vkfdd3966pwqlqs1zxrb9a,3quo65dnqy1x39kcz715cqb56btuox,Vn3lX0DQ,2020-0188,2020-06-04,14:51:19,15:16:07,NA,incomplete,197,gender,3,1,left,C_M_13.jpg,A_M_05.jpg,C_F_04.jpg,left,911.5100000053644,true,low,false
Vn3lX0DQ,3mdwe879vkfdd3966pwqlqs1zxrb9a,3quo65dnqy1x39kcz715cqb56btuox,Vn3lX0DQ,2020-0188,2020-06-04,14:51:19,15:16:07,NA,incomplete,198,gender,3,0,right,A_F_08.jpg,A_M_03.jpg,C_F_16.jpg,right,670.3650000272319,true,low,false
Vn3lX0DQ,3mdwe879vkfdd3966pwqlqs1zxrb9a,3quo65dnqy1x39kcz715cqb56btuox,Vn3lX0DQ,2020-0188,2020-06-04,14:51:19,15:16:07,NA,incomplete,199,gender,3,1,left,A_M_02.jpg,C_M_09.jpg,A_F_04.jpg,left,719.3599999882281,true,low,false
Vn3lX0DQ,3mdwe879vkfdd3966pwqlqs1zxrb9a,3quo65dnqy1x39kcz715cqb56btuox,Vn3lX0DQ,2020-0188,2020-06-04,14:51:19,15:16:07,NA,incomplete,200,race,2,1,left,C_M_08.jpg,C_F_05.jpg,A_M_01.jpg,right,909.4849999528378,false,low,false
Vn3lX0DQ,3mdwe879vkfdd3966pwqlqs1zxrb9a,3quo65dnqy1x39kcz715cqb56btuox,Vn3lX0DQ,2020-0188,2020-06-04,14:51:19,15:16:07,NA,incomplete,201,race,2,1,left,C_F_08.jpg,C_M_09.jpg,A_F_07.jpg,right,1060.7800000580028,false,low,false
Vn3lX0DQ,3mdwe879vkfdd3966pwqlqs1zxrb9a,3quo65dnqy1x39kcz715cqb56btuox,Vn3lX0DQ,2020-0188,2020-06-04,14:51:19,15:16:07,NA,incomplete,202,race,2,1,left,A_F_02.jpg,A_M_15.jpg,C_F_10.jpg,left,733.0699999583885,true,low,false
Vn3lX0DQ,3mdwe879vkfdd3966pwqlqs1zxrb9a,3quo65dnqy1x39kcz715cqb56btuox,Vn3lX0DQ,2020-0188,2020-06-04,14:51:19,15:16:07,NA,incomplete,203,race,2,1,right,C_M_01.jpg,A_M_06.jpg,C_F_09.jpg,left,939.49000001885,false,low,false
Vn3lX0DQ,3mdwe879vkfdd3966pwqlqs1zxrb9a,3quo65dnqy1x39kcz715cqb56btuox,Vn3lX0DQ,2020-0188,2020-06-04,14:51:19,15:16:07,NA,incomplete,204,race,2,1,left,C_M_01.jpg,C_F_04.jpg,A_M_03.jpg,left,937.0450000278652,true,low,false
Vn3lX0DQ,3mdwe879vkfdd3966pwqlqs1zxrb9a,3quo65dnqy1x39kcz715cqb56btuox,Vn3lX0DQ,2020-0188,2020-06-04,14:51:19,15:16:07,NA,incomplete,205,race,2,1,right,A_F_03.jpg,C_F_14.jpg,A_M_01.jpg,right,1013.4799999650568,true,low,false
Vn3lX0DQ,3mdwe879vkfdd3966pwqlqs1zxrb9a,3quo65dnqy1x39kcz715cqb56btuox,Vn3lX0DQ,2020-0188,2020-06-04,14:51:19,15:16:07,NA,incomplete,206,race,2,1,right,A_M_01.jpg,C_M_04.jpg,A_F_13.jpg,right,793.5750000178814,true,low,false
Vn3lX0DQ,3mdwe879vkfdd3966pwqlqs1zxrb9a,3quo65dnqy1x39kcz715cqb56btuox,Vn3lX0DQ,2020-0188,2020-06-04,14:51:19,15:16:07,NA,incomplete,207,race,2,1,left,A_M_01.jpg,A_F_13.jpg,C_M_07.jpg,left,653.044999926351,true,low,false
Vn3lX0DQ,3mdwe879vkfdd3966pwqlqs1zxrb9a,3quo65dnqy1x39kcz715cqb56btuox,Vn3lX0DQ,2020-0188,2020-06-04,14:51:19,15:16:07,NA,incomplete,208,race,2,1,left,C_M_12.jpg,C_F_07.jpg,A_M_03.jpg,left,919.0299999900162,true,low,false
Vn3lX0DQ,3mdwe879vkfdd3966pwqlqs1zxrb9a,3quo65dnqy1x39kcz715cqb56btuox,Vn3lX0DQ,2020-0188,2020-06-04,14:51:19,15:16:07,NA,incomplete,209,race,2,1,right,C_M_12.jpg,A_M_03.jpg,C_F_05.jpg,right,804.4699999736622,true,low,false
Vn3lX0DQ,3mdwe879vkfdd3966pwqlqs1zxrb9a,3quo65dnqy1x39kcz715cqb56btuox,Vn3lX0DQ,2020-0188,2020-06-04,14:51:19,15:16:07,NA,incomplete,210,race,2,1,left,C_M_03.jpg,C_F_02.jpg,A_M_12.jpg,left,895.3549999278039,true,low,false
Vn3lX0DQ,3mdwe879vkfdd3966pwqlqs1zxrb9a,3quo65dnqy1x39kcz715cqb56btuox,Vn3lX0DQ,2020-0188,2020-06-04,14:51:19,15:16:07,NA,incomplete,211,race,2,0,left,A_M_13.jpg,A_F_16.jpg,C_M_15.jpg,left,775.1200000056997,true,low,false
Vn3lX0DQ,3mdwe879vkfdd3966pwqlqs1zxrb9a,3quo65dnqy1x39kcz715cqb56btuox,Vn3lX0DQ,2020-0188,2020-06-04,14:51:19,15:16:07,NA,incomplete,212,race,2,1,right,C_M_09.jpg,A_M_06.jpg,C_F_14.jpg,left,930.9849999845028,false,low,false
Vn3lX0DQ,3mdwe879vkfdd3966pwqlqs1zxrb9a,3quo65dnqy1x39kcz715cqb56btuox,Vn3lX0DQ,2020-0188,2020-06-04,14:51:19,15:16:07,NA,incomplete,213,race,2,1,right,C_F_10.jpg,A_F_14.jpg,C_M_09.jpg,right,785.4450000450015,true,low,false
Vn3lX0DQ,3mdwe879vkfdd3966pwqlqs1zxrb9a,3quo65dnqy1x39kcz715cqb56btuox,Vn3lX0DQ,2020-0188,2020-06-04,14:51:19,15:16:07,NA,incomplete,214,race,2,1,right,C_M_13.jpg,A_M_01.jpg,C_F_04.jpg,right,683.5199999623001,true,low,false
Vn3lX0DQ,3mdwe879vkfdd3966pwqlqs1zxrb9a,3quo65dnqy1x39kcz715cqb56btuox,Vn3lX0DQ,2020-0188,2020-06-04,14:51:19,15:16:07,NA,incomplete,215,race,2,0,right,A_F_14.jpg,C_F_08.jpg,A_M_01.jpg,right,1148.2949999626726,true,low,false
Vn3lX0DQ,3mdwe879vkfdd3966pwqlqs1zxrb9a,3quo65dnqy1x39kcz715cqb56btuox,Vn3lX0DQ,2020-0188,2020-06-04,14:51:19,15:16:07,NA,incomplete,216,race,2,1,right,A_M_04.jpg,C_M_06.jpg,A_F_13.jpg,right,802.1200000075623,true,low,false
Vn3lX0DQ,3mdwe879vkfdd3966pwqlqs1zxrb9a,3quo65dnqy1x39kcz715cqb56btuox,Vn3lX0DQ,2020-0188,2020-06-04,14:51:19,15:16:07,NA,incomplete,217,race,2,1,right,C_F_13.jpg,A_F_11.jpg,C_M_04.jpg,right,1146.0950000910088,true,low,false
Vn3lX0DQ,3mdwe879vkfdd3966pwqlqs1zxrb9a,3quo65dnqy1x39kcz715cqb56btuox,Vn3lX0DQ,2020-0188,2020-06-04,14:51:19,15:16:07,NA,incomplete,218,race,2,1,left,C_F_06.jpg,C_M_04.jpg,A_F_10.jpg,left,851.3050000183284,true,low,false
Vn3lX0DQ,3mdwe879vkfdd3966pwqlqs1zxrb9a,3quo65dnqy1x39kcz715cqb56btuox,Vn3lX0DQ,2020-0188,2020-06-04,14:51:19,15:16:07,NA,incomplete,219,race,2,1,right,A_F_14.jpg,C_F_13.jpg,A_M_07.jpg,right,636.8950000032783,true,low,false
Vn3lX0DQ,3mdwe879vkfdd3966pwqlqs1zxrb9a,3quo65dnqy1x39kcz715cqb56btuox,Vn3lX0DQ,2020-0188,2020-06-04,14:51:19,15:16:07,NA,incomplete,220,gender,3,1,right,C_M_08.jpg,C_F_03.jpg,A_M_07.jpg,left,1318.9899999415502,false,low,false
Vn3lX0DQ,3mdwe879vkfdd3966pwqlqs1zxrb9a,3quo65dnqy1x39kcz715cqb56btuox,Vn3lX0DQ,2020-0188,2020-06-04,14:51:19,15:16:07,NA,incomplete,221,gender,3,1,left,C_F_14.jpg,A_F_15.jpg,C_M_04.jpg,right,1005.0050000427291,false,low,false
Vn3lX0DQ,3mdwe879vkfdd3966pwqlqs1zxrb9a,3quo65dnqy1x39kcz715cqb56btuox,Vn3lX0DQ,2020-0188,2020-06-04,14:51:19,15:16:07,NA,incomplete,222,gender,3,0,right,C_M_08.jpg,C_F_06.jpg,A_M_14.jpg,left,1039.4500000402331,false,low,false
Vn3lX0DQ,3mdwe879vkfdd3966pwqlqs1zxrb9a,3quo65dnqy1x39kcz715cqb56btuox,Vn3lX0DQ,2020-0188,2020-06-04,14:51:19,15:16:07,NA,incomplete,223,gender,3,1,left,A_F_05.jpg,C_F_13.jpg,A_M_08.jpg,right,648.5000000102445,false,low,false
Vn3lX0DQ,3mdwe879vkfdd3966pwqlqs1zxrb9a,3quo65dnqy1x39kcz715cqb56btuox,Vn3lX0DQ,2020-0188,2020-06-04,14:51:19,15:16:07,NA,incomplete,224,gender,3,1,right,C_F_08.jpg,C_M_12.jpg,A_F_07.jpg,left,961.8100000079721,false,low,false
Vn3lX0DQ,3mdwe879vkfdd3966pwqlqs1zxrb9a,3quo65dnqy1x39kcz715cqb56btuox,Vn3lX0DQ,2020-0188,2020-06-04,14:51:19,15:16:07,NA,incomplete,225,gender,3,1,right,C_F_12.jpg,C_M_11.jpg,A_F_13.jpg,left,791.0200000042096,false,low,false
Vn3lX0DQ,3mdwe879vkfdd3966pwqlqs1zxrb9a,3quo65dnqy1x39kcz715cqb56btuox,Vn3lX0DQ,2020-0188,2020-06-04,14:51:19,15:16:07,NA,incomplete,226,gender,3,1,left,C_F_13.jpg,A_F_16.jpg,C_M_10.jpg,right,987.1399999829009,false,low,false
Vn3lX0DQ,3mdwe879vkfdd3966pwqlqs1zxrb9a,3quo65dnqy1x39kcz715cqb56btuox,Vn3lX0DQ,2020-0188,2020-06-04,14:51:19,15:16:07,NA,incomplete,227,gender,3,1,right,C_M_11.jpg,C_F_10.jpg,A_M_14.jpg,left,949.8450000537559,false,low,false
Vn3lX0DQ,3mdwe879vkfdd3966pwqlqs1zxrb9a,3quo65dnqy1x39kcz715cqb56btuox,Vn3lX0DQ,2020-0188,2020-06-04,14:51:19,15:16:07,NA,incomplete,228,gender,3,1,left,A_M_13.jpg,C_M_16.jpg,A_F_10.jpg,left,683.7750000413507,true,low,false
Vn3lX0DQ,3mdwe879vkfdd3966pwqlqs1zxrb9a,3quo65dnqy1x39kcz715cqb56btuox,Vn3lX0DQ,2020-0188,2020-06-04,14:51:19,15:16:07,NA,incomplete,229,gender,3,1,right,C_F_01.jpg,C_M_15.jpg,A_F_11.jpg,right,859.8299999721348,true,low,false
Vn3lX0DQ,3mdwe879vkfdd3966pwqlqs1zxrb9a,3quo65dnqy1x39kcz715cqb56btuox,Vn3lX0DQ,2020-0188,2020-06-04,14:51:19,15:16:07,NA,incomplete,230,gender,3,1,left,C_M_07.jpg,A_M_06.jpg,C_F_02.jpg,left,669.5049999980256,true,low,false
Vn3lX0DQ,3mdwe879vkfdd3966pwqlqs1zxrb9a,3quo65dnqy1x39kcz715cqb56btuox,Vn3lX0DQ,2020-0188,2020-06-04,14:51:19,15:16:07,NA,incomplete,231,gender,3,1,right,A_F_01.jpg,A_M_10.jpg,C_F_04.jpg,right,796.7949999729171,true,low,false
Vn3lX0DQ,3mdwe879vkfdd3966pwqlqs1zxrb9a,3quo65dnqy1x39kcz715cqb56btuox,Vn3lX0DQ,2020-0188,2020-06-04,14:51:19,15:16:07,NA,incomplete,232,gender,3,1,right,A_M_15.jpg,A_F_03.jpg,C_M_02.jpg,right,1048.2649999903515,true,low,false
Vn3lX0DQ,3mdwe879vkfdd3966pwqlqs1zxrb9a,3quo65dnqy1x39kcz715cqb56btuox,Vn3lX0DQ,2020-0188,2020-06-04,14:51:19,15:16:07,NA,incomplete,233,gender,3,1,left,C_F_09.jpg,A_F_04.jpg,C_M_11.jpg,left,761.7849999805912,true,low,false
Vn3lX0DQ,3mdwe879vkfdd3966pwqlqs1zxrb9a,3quo65dnqy1x39kcz715cqb56btuox,Vn3lX0DQ,2020-0188,2020-06-04,14:51:19,15:16:07,NA,incomplete,234,gender,3,0,right,C_M_02.jpg,C_F_15.jpg,A_M_05.jpg,right,769.3399999989197,true,low,false
Vn3lX0DQ,3mdwe879vkfdd3966pwqlqs1zxrb9a,3quo65dnqy1x39kcz715cqb56btuox,Vn3lX0DQ,2020-0188,2020-06-04,14:51:19,15:16:07,NA,incomplete,235,gender,3,1,right,A_F_01.jpg,A_M_09.jpg,C_F_02.jpg,left,779.4899999862537,false,low,false
Vn3lX0DQ,3mdwe879vkfdd3966pwqlqs1zxrb9a,3quo65dnqy1x39kcz715cqb56btuox,Vn3lX0DQ,2020-0188,2020-06-04,14:51:19,15:16:07,NA,incomplete,236,gender,3,0,right,C_F_14.jpg,C_M_03.jpg,A_F_06.jpg,left,975.8649999275804,false,low,false
Vn3lX0DQ,3mdwe879vkfdd3966pwqlqs1zxrb9a,3quo65dnqy1x39kcz715cqb56btuox,Vn3lX0DQ,2020-0188,2020-06-04,14:51:19,15:16:07,NA,incomplete,237,gender,3,1,right,C_M_02.jpg,C_F_07.jpg,A_M_12.jpg,right,699.8250000178814,true,low,false
Vn3lX0DQ,3mdwe879vkfdd3966pwqlqs1zxrb9a,3quo65dnqy1x39kcz715cqb56btuox,Vn3lX0DQ,2020-0188,2020-06-04,14:51:19,15:16:07,NA,incomplete,238,gender,3,1,left,A_M_07.jpg,C_M_15.jpg,A_F_11.jpg,right,1204.5050000306219,false,low,false
Vn3lX0DQ,3mdwe879vkfdd3966pwqlqs1zxrb9a,3quo65dnqy1x39kcz715cqb56btuox,Vn3lX0DQ,2020-0188,2020-06-04,14:51:19,15:16:07,NA,incomplete,239,gender,3,1,right,A_F_02.jpg,A_M_05.jpg,C_F_01.jpg,left,726.4549999963492,false,low,false
Vn3lX0DQ,3mdwe879vkfdd3966pwqlqs1zxrb9a,3quo65dnqy1x39kcz715cqb56btuox,Vn3lX0DQ,2020-0188,2020-06-04,14:51:19,15:16:07,NA,NA,instruction example,color,NA,NA,NA,Purple_Star_Stripes_1.jpg,Purple_Plus_Grid_2.jpg,Green_Star_Chess_4.jpg,NA,NA,NA,NA,undefined
Vn3lX0DQ,3mdwe879vkfdd3966pwqlqs1zxrb9a,3quo65dnqy1x39kcz715cqb56btuox,Vn3lX0DQ,2020-0188,2020-06-04,14:51:19,15:16:07,NA,NA,instruction example,color,NA,NA,NA,Purple_Plus_Dots_3.jpg,Green_Plus_Stripes_2.jpg,Purple_Star_Chess_1.jpg,NA,NA,NA,NA,undefined
Vn3lX0DQ,3mdwe879vkfdd3966pwqlqs1zxrb9a,3quo65dnqy1x39kcz715cqb56btuox,Vn3lX0DQ,2020-0188,2020-06-04,14:51:19,15:16:07,NA,NA,instruction example,color,NA,NA,NA,C_F_10.jpg,C_M_08.jpg,A_F_04.jpg,NA,NA,NA,NA,undefined
Vn3lX0DQ,3mdwe879vkfdd3966pwqlqs1zxrb9a,3quo65dnqy1x39kcz715cqb56btuox,Vn3lX0DQ,2020-0188,2020-06-04,14:51:19,15:16:07,NA,NA,instruction example,color,NA,NA,NA,A_F_16.jpg,C_F_07.jpg,A_M_03.jpg,NA,NA,NA,NA,undefined
