workerId,hitId,assignmentId,subject,studyid,exp_date,exp_start,exp_end,time_start,time_end,trial,type,sequence,reward_validity,answer,image_top,image_left,image_right,response,response_time,response_acc,volatility,practice
8QYYcjS0,3y3czjszan6hsnojzw5z9ps3vnar5b,3r08vxyt7g83a7hidlz4jsa710x7wi,8QYYcjS0,2020-0188,2020-06-04,12:22:53,12:55:26,NA,incomplete,0,number,0,1,right,Green_Circle_Dots_3.jpg,Purple_Circle_Chess_4.jpg,Blue_Plus_Grid_3.jpg,none,0,false,NA,true
8QYYcjS0,3y3czjszan6hsnojzw5z9ps3vnar5b,3r08vxyt7g83a7hidlz4jsa710x7wi,8QYYcjS0,2020-0188,2020-06-04,12:22:53,12:55:26,NA,incomplete,1,number,0,1,left,Green_Circle_Grid_4.jpg,Blue_Plus_Dots_4.jpg,Purple_Circle_Stripes_1.jpg,left,1551.6099999658763,true,NA,true
8QYYcjS0,3y3czjszan6hsnojzw5z9ps3vnar5b,3r08vxyt7g83a7hidlz4jsa710x7wi,8QYYcjS0,2020-0188,2020-06-04,12:22:53,12:55:26,NA,incomplete,2,number,0,1,left,Blue_Star_Dots_4.jpg,Red_Triangle_Grid_4.jpg,Green_Star_Stripes_3.jpg,left,1363.050000043586,true,NA,true
8QYYcjS0,3y3czjszan6hsnojzw5z9ps3vnar5b,3r08vxyt7g83a7hidlz4jsa710x7wi,8QYYcjS0,2020-0188,2020-06-04,12:22:53,12:55:26,NA,incomplete,3,number,0,1,right,Green_Plus_Dots_4.jpg,Red_Plus_Grid_1.jpg,Purple_Circle_Chess_4.jpg,right,850.3550000023097,true,NA,true
8QYYcjS0,3y3czjszan6hsnojzw5z9ps3vnar5b,3r08vxyt7g83a7hidlz4jsa710x7wi,8QYYcjS0,2020-0188,2020-06-04,12:22:53,12:55:26,NA,incomplete,4,number,0,0,left,Red_Star_Chess_4.jpg,Green_Plus_Dots_4.jpg,Purple_Star_Grid_3.jpg,left,905.7799999136478,true,NA,true
8QYYcjS0,3y3czjszan6hsnojzw5z9ps3vnar5b,3r08vxyt7g83a7hidlz4jsa710x7wi,8QYYcjS0,2020-0188,2020-06-04,12:22:53,12:55:26,NA,incomplete,5,number,0,0,left,Blue_Circle_Grid_4.jpg,Red_Triangle_Dots_4.jpg,Purple_Circle_Chess_2.jpg,left,785.2549999952316,true,NA,true
8QYYcjS0,3y3czjszan6hsnojzw5z9ps3vnar5b,3r08vxyt7g83a7hidlz4jsa710x7wi,8QYYcjS0,2020-0188,2020-06-04,12:22:53,12:55:26,NA,incomplete,6,number,0,1,left,Purple_Plus_Chess_2.jpg,Green_Triangle_Dots_2.jpg,Red_Plus_Stripes_3.jpg,left,1230.6350000435486,true,NA,true
8QYYcjS0,3y3czjszan6hsnojzw5z9ps3vnar5b,3r08vxyt7g83a7hidlz4jsa710x7wi,8QYYcjS0,2020-0188,2020-06-04,12:22:53,12:55:26,NA,incomplete,7,number,0,1,right,Blue_Circle_Dots_1.jpg,Purple_Circle_Grid_3.jpg,Green_Triangle_Stripes_1.jpg,right,953.1049999641255,true,NA,true
8QYYcjS0,3y3czjszan6hsnojzw5z9ps3vnar5b,3r08vxyt7g83a7hidlz4jsa710x7wi,8QYYcjS0,2020-0188,2020-06-04,12:22:53,12:55:26,NA,incomplete,8,number,0,1,left,Green_Plus_Chess_4.jpg,Red_Star_Dots_4.jpg,Purple_Plus_Stripes_1.jpg,left,832.9800000647083,true,NA,true
8QYYcjS0,3y3czjszan6hsnojzw5z9ps3vnar5b,3r08vxyt7g83a7hidlz4jsa710x7wi,8QYYcjS0,2020-0188,2020-06-04,12:22:53,12:55:26,NA,incomplete,9,number,0,1,right,Red_Circle_Stripes_3.jpg,Blue_Circle_Dots_1.jpg,Purple_Plus_Grid_3.jpg,right,825.6800000090152,true,NA,true
8QYYcjS0,3y3czjszan6hsnojzw5z9ps3vnar5b,3r08vxyt7g83a7hidlz4jsa710x7wi,8QYYcjS0,2020-0188,2020-06-04,12:22:53,12:55:26,NA,incomplete,10,number,0,1,right,Green_Plus_Grid_2.jpg,Red_Plus_Chess_1.jpg,Purple_Star_Dots_2.jpg,right,1293.0449999403208,true,NA,true
8QYYcjS0,3y3czjszan6hsnojzw5z9ps3vnar5b,3r08vxyt7g83a7hidlz4jsa710x7wi,8QYYcjS0,2020-0188,2020-06-04,12:22:53,12:55:26,NA,incomplete,11,number,0,1,right,Red_Triangle_Chess_2.jpg,Green_Triangle_Stripes_3.jpg,Purple_Plus_Grid_2.jpg,right,820.2100000344217,true,NA,true
8QYYcjS0,3y3czjszan6hsnojzw5z9ps3vnar5b,3r08vxyt7g83a7hidlz4jsa710x7wi,8QYYcjS0,2020-0188,2020-06-04,12:22:53,12:55:26,NA,incomplete,12,number,0,0,left,Blue_Circle_Grid_3.jpg,Green_Star_Dots_3.jpg,Red_Circle_Chess_1.jpg,left,687.320000026375,true,NA,true
8QYYcjS0,3y3czjszan6hsnojzw5z9ps3vnar5b,3r08vxyt7g83a7hidlz4jsa710x7wi,8QYYcjS0,2020-0188,2020-06-04,12:22:53,12:55:26,NA,incomplete,13,number,0,0,left,Red_Star_Chess_4.jpg,Blue_Triangle_Grid_4.jpg,Green_Star_Stripes_2.jpg,left,811.420000041835,true,NA,true
8QYYcjS0,3y3czjszan6hsnojzw5z9ps3vnar5b,3r08vxyt7g83a7hidlz4jsa710x7wi,8QYYcjS0,2020-0188,2020-06-04,12:22:53,12:55:26,NA,incomplete,14,number,0,1,left,Blue_Triangle_Dots_3.jpg,Purple_Circle_Chess_3.jpg,Green_Triangle_Grid_4.jpg,left,996.6049999929965,true,NA,true
8QYYcjS0,3y3czjszan6hsnojzw5z9ps3vnar5b,3r08vxyt7g83a7hidlz4jsa710x7wi,8QYYcjS0,2020-0188,2020-06-04,12:22:53,12:55:26,NA,incomplete,15,number,0,1,left,Red_Star_Stripes_4.jpg,Purple_Triangle_Grid_4.jpg,Blue_Star_Chess_1.jpg,left,760.5200000107288,true,NA,true
8QYYcjS0,3y3czjszan6hsnojzw5z9ps3vnar5b,3r08vxyt7g83a7hidlz4jsa710x7wi,8QYYcjS0,2020-0188,2020-06-04,12:22:53,12:55:26,NA,incomplete,16,number,0,1,left,Green_Star_Stripes_4.jpg,Red_Triangle_Grid_4.jpg,Blue_Star_Dots_2.jpg,left,750.3400000277907,true,NA,true
8QYYcjS0,3y3czjszan6hsnojzw5z9ps3vnar5b,3r08vxyt7g83a7hidlz4jsa710x7wi,8QYYcjS0,2020-0188,2020-06-04,12:22:53,12:55:26,NA,incomplete,17,number,0,1,left,Red_Circle_Grid_4.jpg,Green_Star_Chess_4.jpg,Blue_Circle_Stripes_2.jpg,left,877.405000035651,true,NA,true
8QYYcjS0,3y3czjszan6hsnojzw5z9ps3vnar5b,3r08vxyt7g83a7hidlz4jsa710x7wi,8QYYcjS0,2020-0188,2020-06-04,12:22:53,12:55:26,NA,incomplete,18,number,0,1,right,Red_Plus_Stripes_1.jpg,Purple_Plus_Dots_2.jpg,Green_Star_Chess_1.jpg,right,792.5500000128523,true,NA,true
8QYYcjS0,3y3czjszan6hsnojzw5z9ps3vnar5b,3r08vxyt7g83a7hidlz4jsa710x7wi,8QYYcjS0,2020-0188,2020-06-04,12:22:53,12:55:26,NA,incomplete,19,number,0,0,right,Green_Star_Grid_4.jpg,Red_Star_Dots_2.jpg,Blue_Triangle_Stripes_4.jpg,right,771.294999984093,true,NA,true
8QYYcjS0,3y3czjszan6hsnojzw5z9ps3vnar5b,3r08vxyt7g83a7hidlz4jsa710x7wi,8QYYcjS0,2020-0188,2020-06-04,12:22:53,12:55:26,NA,incomplete,20,shape,1,1,right,Green_Triangle_Dots_3.jpg,Purple_Circle_Chess_3.jpg,Blue_Triangle_Stripes_2.jpg,left,672.069999971427,false,NA,true
8QYYcjS0,3y3czjszan6hsnojzw5z9ps3vnar5b,3r08vxyt7g83a7hidlz4jsa710x7wi,8QYYcjS0,2020-0188,2020-06-04,12:22:53,12:55:26,NA,incomplete,21,shape,1,1,right,Blue_Triangle_Stripes_3.jpg,Purple_Circle_Grid_3.jpg,Green_Triangle_Chess_4.jpg,left,721.8750000465661,false,NA,true
8QYYcjS0,3y3czjszan6hsnojzw5z9ps3vnar5b,3r08vxyt7g83a7hidlz4jsa710x7wi,8QYYcjS0,2020-0188,2020-06-04,12:22:53,12:55:26,NA,incomplete,22,shape,1,1,left,Blue_Plus_Grid_2.jpg,Green_Plus_Chess_3.jpg,Red_Triangle_Stripes_2.jpg,left,1297.649999964051,true,NA,true
8QYYcjS0,3y3czjszan6hsnojzw5z9ps3vnar5b,3r08vxyt7g83a7hidlz4jsa710x7wi,8QYYcjS0,2020-0188,2020-06-04,12:22:53,12:55:26,NA,incomplete,23,shape,1,1,left,Purple_Star_Chess_4.jpg,Blue_Star_Grid_1.jpg,Red_Triangle_Dots_4.jpg,right,1051.1000000406057,false,NA,true
8QYYcjS0,3y3czjszan6hsnojzw5z9ps3vnar5b,3r08vxyt7g83a7hidlz4jsa710x7wi,8QYYcjS0,2020-0188,2020-06-04,12:22:53,12:55:26,NA,incomplete,24,shape,1,1,right,Blue_Plus_Chess_1.jpg,Purple_Triangle_Dots_1.jpg,Green_Plus_Grid_2.jpg,right,993.9950000261888,true,NA,true
8QYYcjS0,3y3czjszan6hsnojzw5z9ps3vnar5b,3r08vxyt7g83a7hidlz4jsa710x7wi,8QYYcjS0,2020-0188,2020-06-04,12:22:53,12:55:26,NA,incomplete,25,shape,1,1,right,Green_Triangle_Dots_3.jpg,Blue_Plus_Chess_3.jpg,Red_Triangle_Grid_4.jpg,right,933.9349999791011,true,NA,true
8QYYcjS0,3y3czjszan6hsnojzw5z9ps3vnar5b,3r08vxyt7g83a7hidlz4jsa710x7wi,8QYYcjS0,2020-0188,2020-06-04,12:22:53,12:55:26,NA,incomplete,26,shape,1,1,left,Green_Plus_Chess_3.jpg,Red_Plus_Dots_1.jpg,Purple_Circle_Grid_3.jpg,left,1348.725000047125,true,NA,true
8QYYcjS0,3y3czjszan6hsnojzw5z9ps3vnar5b,3r08vxyt7g83a7hidlz4jsa710x7wi,8QYYcjS0,2020-0188,2020-06-04,12:22:53,12:55:26,NA,incomplete,27,shape,1,1,right,Purple_Star_Grid_3.jpg,Blue_Plus_Chess_3.jpg,Red_Star_Stripes_1.jpg,right,1003.7300001131371,true,NA,true
8QYYcjS0,3y3czjszan6hsnojzw5z9ps3vnar5b,3r08vxyt7g83a7hidlz4jsa710x7wi,8QYYcjS0,2020-0188,2020-06-04,12:22:53,12:55:26,NA,incomplete,28,shape,1,1,right,Blue_Triangle_Chess_1.jpg,Red_Star_Grid_1.jpg,Green_Triangle_Stripes_4.jpg,right,885.3399999206886,true,NA,true
8QYYcjS0,3y3czjszan6hsnojzw5z9ps3vnar5b,3r08vxyt7g83a7hidlz4jsa710x7wi,8QYYcjS0,2020-0188,2020-06-04,12:22:53,12:55:26,NA,incomplete,29,shape,1,0,left,Blue_Circle_Dots_3.jpg,Green_Circle_Grid_1.jpg,Purple_Star_Chess_3.jpg,left,782.3700000299141,true,NA,true
8QYYcjS0,3y3czjszan6hsnojzw5z9ps3vnar5b,3r08vxyt7g83a7hidlz4jsa710x7wi,8QYYcjS0,2020-0188,2020-06-04,12:22:53,12:55:26,NA,incomplete,30,shape,1,0,right,Green_Circle_Dots_3.jpg,Red_Star_Chess_3.jpg,Purple_Circle_Stripes_2.jpg,right,923.6299999756739,true,NA,true
8QYYcjS0,3y3czjszan6hsnojzw5z9ps3vnar5b,3r08vxyt7g83a7hidlz4jsa710x7wi,8QYYcjS0,2020-0188,2020-06-04,12:22:53,12:55:26,NA,incomplete,31,shape,1,1,right,Blue_Circle_Grid_3.jpg,Purple_Star_Chess_3.jpg,Green_Circle_Stripes_4.jpg,right,810.5300000170246,true,NA,true
8QYYcjS0,3y3czjszan6hsnojzw5z9ps3vnar5b,3r08vxyt7g83a7hidlz4jsa710x7wi,8QYYcjS0,2020-0188,2020-06-04,12:22:53,12:55:26,NA,incomplete,32,shape,1,1,left,Blue_Circle_Stripes_1.jpg,Red_Circle_Grid_4.jpg,Green_Star_Dots_1.jpg,left,1257.6150000095367,true,NA,true
8QYYcjS0,3y3czjszan6hsnojzw5z9ps3vnar5b,3r08vxyt7g83a7hidlz4jsa710x7wi,8QYYcjS0,2020-0188,2020-06-04,12:22:53,12:55:26,NA,incomplete,33,shape,1,1,left,Green_Triangle_Dots_1.jpg,Purple_Triangle_Stripes_4.jpg,Red_Plus_Chess_1.jpg,left,910.6049999827519,true,NA,true
8QYYcjS0,3y3czjszan6hsnojzw5z9ps3vnar5b,3r08vxyt7g83a7hidlz4jsa710x7wi,8QYYcjS0,2020-0188,2020-06-04,12:22:53,12:55:26,NA,incomplete,34,shape,1,1,right,Red_Circle_Grid_3.jpg,Blue_Plus_Chess_3.jpg,Green_Circle_Stripes_2.jpg,right,710.2100000483915,true,NA,true
8QYYcjS0,3y3czjszan6hsnojzw5z9ps3vnar5b,3r08vxyt7g83a7hidlz4jsa710x7wi,8QYYcjS0,2020-0188,2020-06-04,12:22:53,12:55:26,NA,incomplete,35,shape,1,1,right,Blue_Plus_Chess_2.jpg,Red_Star_Dots_2.jpg,Green_Plus_Grid_3.jpg,right,870.6800000509247,true,NA,true
8QYYcjS0,3y3czjszan6hsnojzw5z9ps3vnar5b,3r08vxyt7g83a7hidlz4jsa710x7wi,8QYYcjS0,2020-0188,2020-06-04,12:22:53,12:55:26,NA,incomplete,36,shape,1,0,left,Blue_Plus_Stripes_4.jpg,Green_Plus_Chess_1.jpg,Red_Circle_Dots_4.jpg,left,759.3399999896064,true,NA,true
8QYYcjS0,3y3czjszan6hsnojzw5z9ps3vnar5b,3r08vxyt7g83a7hidlz4jsa710x7wi,8QYYcjS0,2020-0188,2020-06-04,12:22:53,12:55:26,NA,incomplete,37,shape,1,1,left,Red_Star_Grid_3.jpg,Green_Star_Dots_4.jpg,Purple_Plus_Stripes_3.jpg,left,1176.48000002373,true,NA,true
8QYYcjS0,3y3czjszan6hsnojzw5z9ps3vnar5b,3r08vxyt7g83a7hidlz4jsa710x7wi,8QYYcjS0,2020-0188,2020-06-04,12:22:53,12:55:26,NA,incomplete,38,shape,1,1,left,Purple_Star_Grid_3.jpg,Red_Star_Dots_4.jpg,Green_Triangle_Chess_3.jpg,left,1081.705000018701,true,NA,true
8QYYcjS0,3y3czjszan6hsnojzw5z9ps3vnar5b,3r08vxyt7g83a7hidlz4jsa710x7wi,8QYYcjS0,2020-0188,2020-06-04,12:22:53,12:55:26,NA,incomplete,39,shape,1,1,right,Red_Plus_Dots_2.jpg,Blue_Triangle_Grid_2.jpg,Green_Plus_Chess_4.jpg,right,897.705000010319,true,NA,true
8QYYcjS0,3y3czjszan6hsnojzw5z9ps3vnar5b,3r08vxyt7g83a7hidlz4jsa710x7wi,8QYYcjS0,2020-0188,2020-06-04,12:22:53,12:55:26,NA,incomplete,0,number,0,1,left,Red_Star_Grid_3.jpg,Green_Triangle_Dots_3.jpg,Purple_Star_Chess_1.jpg,right,1095.214999979362,false,high,false
8QYYcjS0,3y3czjszan6hsnojzw5z9ps3vnar5b,3r08vxyt7g83a7hidlz4jsa710x7wi,8QYYcjS0,2020-0188,2020-06-04,12:22:53,12:55:26,NA,incomplete,1,number,0,1,left,Blue_Circle_Grid_2.jpg,Green_Plus_Dots_2.jpg,Purple_Circle_Chess_1.jpg,right,902.6900000171736,false,high,false
8QYYcjS0,3y3czjszan6hsnojzw5z9ps3vnar5b,3r08vxyt7g83a7hidlz4jsa710x7wi,8QYYcjS0,2020-0188,2020-06-04,12:22:53,12:55:26,NA,incomplete,2,number,0,1,right,Green_Plus_Stripes_1.jpg,Purple_Plus_Dots_2.jpg,Red_Star_Chess_1.jpg,left,1582.425000029616,false,high,false
8QYYcjS0,3y3czjszan6hsnojzw5z9ps3vnar5b,3r08vxyt7g83a7hidlz4jsa710x7wi,8QYYcjS0,2020-0188,2020-06-04,12:22:53,12:55:26,NA,incomplete,3,number,0,1,left,Purple_Plus_Chess_2.jpg,Blue_Star_Dots_2.jpg,Red_Plus_Grid_4.jpg,right,801.2099999468774,false,high,false
8QYYcjS0,3y3czjszan6hsnojzw5z9ps3vnar5b,3r08vxyt7g83a7hidlz4jsa710x7wi,8QYYcjS0,2020-0188,2020-06-04,12:22:53,12:55:26,NA,incomplete,4,number,0,1,left,Red_Star_Grid_2.jpg,Blue_Circle_Dots_2.jpg,Purple_Star_Chess_1.jpg,left,672.4149999208748,true,high,false
8QYYcjS0,3y3czjszan6hsnojzw5z9ps3vnar5b,3r08vxyt7g83a7hidlz4jsa710x7wi,8QYYcjS0,2020-0188,2020-06-04,12:22:53,12:55:26,NA,incomplete,5,number,0,1,left,Purple_Plus_Chess_1.jpg,Blue_Circle_Grid_1.jpg,Red_Plus_Dots_4.jpg,left,792.020000051707,true,high,false
8QYYcjS0,3y3czjszan6hsnojzw5z9ps3vnar5b,3r08vxyt7g83a7hidlz4jsa710x7wi,8QYYcjS0,2020-0188,2020-06-04,12:22:53,12:55:26,NA,incomplete,6,number,0,1,right,Blue_Star_Grid_4.jpg,Purple_Star_Stripes_2.jpg,Green_Circle_Chess_4.jpg,right,1108.4800000535324,true,high,false
8QYYcjS0,3y3czjszan6hsnojzw5z9ps3vnar5b,3r08vxyt7g83a7hidlz4jsa710x7wi,8QYYcjS0,2020-0188,2020-06-04,12:22:53,12:55:26,NA,incomplete,7,number,0,1,right,Red_Plus_Grid_1.jpg,Blue_Plus_Stripes_3.jpg,Green_Circle_Chess_1.jpg,right,683.0400000326335,true,high,false
8QYYcjS0,3y3czjszan6hsnojzw5z9ps3vnar5b,3r08vxyt7g83a7hidlz4jsa710x7wi,8QYYcjS0,2020-0188,2020-06-04,12:22:53,12:55:26,NA,incomplete,8,number,0,0,left,Red_Circle_Dots_3.jpg,Purple_Plus_Stripes_3.jpg,Blue_Circle_Chess_4.jpg,left,684.6300000324845,true,high,false
8QYYcjS0,3y3czjszan6hsnojzw5z9ps3vnar5b,3r08vxyt7g83a7hidlz4jsa710x7wi,8QYYcjS0,2020-0188,2020-06-04,12:22:53,12:55:26,NA,incomplete,9,number,0,1,left,Red_Triangle_Stripes_2.jpg,Purple_Star_Chess_2.jpg,Blue_Triangle_Grid_4.jpg,left,745.0750001007691,true,high,false
8QYYcjS0,3y3czjszan6hsnojzw5z9ps3vnar5b,3r08vxyt7g83a7hidlz4jsa710x7wi,8QYYcjS0,2020-0188,2020-06-04,12:22:53,12:55:26,NA,incomplete,10,shape,1,1,right,Red_Triangle_Chess_4.jpg,Blue_Star_Dots_4.jpg,Purple_Triangle_Stripes_3.jpg,left,684.9050000309944,false,high,false
8QYYcjS0,3y3czjszan6hsnojzw5z9ps3vnar5b,3r08vxyt7g83a7hidlz4jsa710x7wi,8QYYcjS0,2020-0188,2020-06-04,12:22:53,12:55:26,NA,incomplete,11,shape,1,1,right,Red_Triangle_Grid_3.jpg,Purple_Plus_Stripes_3.jpg,Green_Triangle_Dots_1.jpg,left,638.7800000375137,false,high,false
8QYYcjS0,3y3czjszan6hsnojzw5z9ps3vnar5b,3r08vxyt7g83a7hidlz4jsa710x7wi,8QYYcjS0,2020-0188,2020-06-04,12:22:53,12:55:26,NA,incomplete,12,shape,1,1,left,Blue_Star_Chess_3.jpg,Green_Star_Dots_2.jpg,Purple_Triangle_Grid_3.jpg,left,818.3849999913946,true,high,false
8QYYcjS0,3y3czjszan6hsnojzw5z9ps3vnar5b,3r08vxyt7g83a7hidlz4jsa710x7wi,8QYYcjS0,2020-0188,2020-06-04,12:22:53,12:55:26,NA,incomplete,13,shape,1,0,left,Red_Triangle_Chess_2.jpg,Purple_Triangle_Grid_3.jpg,Green_Star_Stripes_2.jpg,left,773.3899999875575,true,high,false
8QYYcjS0,3y3czjszan6hsnojzw5z9ps3vnar5b,3r08vxyt7g83a7hidlz4jsa710x7wi,8QYYcjS0,2020-0188,2020-06-04,12:22:53,12:55:26,NA,incomplete,14,shape,1,1,left,Purple_Plus_Stripes_1.jpg,Blue_Plus_Grid_2.jpg,Red_Circle_Dots_1.jpg,left,717.6149999722838,true,high,false
8QYYcjS0,3y3czjszan6hsnojzw5z9ps3vnar5b,3r08vxyt7g83a7hidlz4jsa710x7wi,8QYYcjS0,2020-0188,2020-06-04,12:22:53,12:55:26,NA,incomplete,15,shape,1,1,right,Purple_Triangle_Chess_1.jpg,Blue_Plus_Grid_1.jpg,Red_Triangle_Dots_2.jpg,right,659.2250000685453,true,high,false
8QYYcjS0,3y3czjszan6hsnojzw5z9ps3vnar5b,3r08vxyt7g83a7hidlz4jsa710x7wi,8QYYcjS0,2020-0188,2020-06-04,12:22:53,12:55:26,NA,incomplete,16,shape,1,1,right,Purple_Circle_Stripes_4.jpg,Green_Triangle_Grid_4.jpg,Blue_Circle_Dots_2.jpg,right,909.624999971129,true,high,false
8QYYcjS0,3y3czjszan6hsnojzw5z9ps3vnar5b,3r08vxyt7g83a7hidlz4jsa710x7wi,8QYYcjS0,2020-0188,2020-06-04,12:22:53,12:55:26,NA,incomplete,17,shape,1,0,left,Red_Circle_Chess_4.jpg,Blue_Circle_Dots_3.jpg,Purple_Triangle_Grid_4.jpg,left,684.8850001115352,true,high,false
8QYYcjS0,3y3czjszan6hsnojzw5z9ps3vnar5b,3r08vxyt7g83a7hidlz4jsa710x7wi,8QYYcjS0,2020-0188,2020-06-04,12:22:53,12:55:26,NA,incomplete,18,shape,1,1,left,Red_Triangle_Chess_4.jpg,Blue_Triangle_Dots_3.jpg,Purple_Star_Stripes_4.jpg,left,975.3650000784546,true,high,false
8QYYcjS0,3y3czjszan6hsnojzw5z9ps3vnar5b,3r08vxyt7g83a7hidlz4jsa710x7wi,8QYYcjS0,2020-0188,2020-06-04,12:22:53,12:55:26,NA,incomplete,19,shape,1,1,right,Purple_Circle_Dots_3.jpg,Red_Plus_Chess_3.jpg,Blue_Circle_Stripes_4.jpg,right,878.6249998956919,true,high,false
8QYYcjS0,3y3czjszan6hsnojzw5z9ps3vnar5b,3r08vxyt7g83a7hidlz4jsa710x7wi,8QYYcjS0,2020-0188,2020-06-04,12:22:53,12:55:26,NA,incomplete,20,number,0,1,left,Green_Star_Chess_2.jpg,Purple_Triangle_Grid_2.jpg,Red_Star_Stripes_4.jpg,left,772.4900000030175,true,high,false
8QYYcjS0,3y3czjszan6hsnojzw5z9ps3vnar5b,3r08vxyt7g83a7hidlz4jsa710x7wi,8QYYcjS0,2020-0188,2020-06-04,12:22:53,12:55:26,NA,incomplete,21,number,0,1,left,Purple_Plus_Stripes_4.jpg,Green_Circle_Dots_4.jpg,Red_Plus_Chess_2.jpg,left,849.9450000235811,true,high,false
8QYYcjS0,3y3czjszan6hsnojzw5z9ps3vnar5b,3r08vxyt7g83a7hidlz4jsa710x7wi,8QYYcjS0,2020-0188,2020-06-04,12:22:53,12:55:26,NA,incomplete,22,number,0,0,right,Purple_Star_Stripes_1.jpg,Red_Star_Dots_4.jpg,Blue_Triangle_Grid_1.jpg,right,732.2799999965355,true,high,false
8QYYcjS0,3y3czjszan6hsnojzw5z9ps3vnar5b,3r08vxyt7g83a7hidlz4jsa710x7wi,8QYYcjS0,2020-0188,2020-06-04,12:22:53,12:55:26,NA,incomplete,23,number,0,1,right,Red_Star_Stripes_4.jpg,Purple_Star_Chess_2.jpg,Blue_Circle_Grid_4.jpg,left,780.1949999993667,false,high,false
8QYYcjS0,3y3czjszan6hsnojzw5z9ps3vnar5b,3r08vxyt7g83a7hidlz4jsa710x7wi,8QYYcjS0,2020-0188,2020-06-04,12:22:53,12:55:26,NA,incomplete,24,number,0,1,right,Red_Circle_Chess_2.jpg,Purple_Circle_Stripes_4.jpg,Blue_Triangle_Dots_2.jpg,left,1060.025000013411,false,high,false
8QYYcjS0,3y3czjszan6hsnojzw5z9ps3vnar5b,3r08vxyt7g83a7hidlz4jsa710x7wi,8QYYcjS0,2020-0188,2020-06-04,12:22:53,12:55:26,NA,incomplete,25,number,0,1,left,Red_Plus_Chess_2.jpg,Purple_Circle_Stripes_2.jpg,Green_Plus_Grid_1.jpg,left,713.990000076592,true,high,false
8QYYcjS0,3y3czjszan6hsnojzw5z9ps3vnar5b,3r08vxyt7g83a7hidlz4jsa710x7wi,8QYYcjS0,2020-0188,2020-06-04,12:22:53,12:55:26,NA,incomplete,26,number,0,0,right,Green_Plus_Stripes_3.jpg,Red_Plus_Chess_4.jpg,Purple_Circle_Grid_3.jpg,right,803.1699999701232,true,high,false
8QYYcjS0,3y3czjszan6hsnojzw5z9ps3vnar5b,3r08vxyt7g83a7hidlz4jsa710x7wi,8QYYcjS0,2020-0188,2020-06-04,12:22:53,12:55:26,NA,incomplete,27,number,0,1,right,Green_Triangle_Dots_4.jpg,Red_Triangle_Stripes_3.jpg,Blue_Circle_Chess_4.jpg,right,1135.1799999829382,true,high,false
8QYYcjS0,3y3czjszan6hsnojzw5z9ps3vnar5b,3r08vxyt7g83a7hidlz4jsa710x7wi,8QYYcjS0,2020-0188,2020-06-04,12:22:53,12:55:26,NA,incomplete,28,number,0,1,left,Blue_Circle_Dots_1.jpg,Green_Star_Grid_1.jpg,Red_Circle_Stripes_4.jpg,left,725.0800000037998,true,high,false
8QYYcjS0,3y3czjszan6hsnojzw5z9ps3vnar5b,3r08vxyt7g83a7hidlz4jsa710x7wi,8QYYcjS0,2020-0188,2020-06-04,12:22:53,12:55:26,NA,incomplete,29,number,0,1,right,Red_Circle_Dots_2.jpg,Purple_Circle_Chess_1.jpg,Blue_Star_Stripes_2.jpg,right,742.9499999852851,true,high,false
8QYYcjS0,3y3czjszan6hsnojzw5z9ps3vnar5b,3r08vxyt7g83a7hidlz4jsa710x7wi,8QYYcjS0,2020-0188,2020-06-04,12:22:53,12:55:26,NA,incomplete,30,shape,1,0,left,Red_Triangle_Dots_3.jpg,Blue_Triangle_Stripes_2.jpg,Purple_Circle_Grid_3.jpg,right,779.7949999803677,false,high,false
8QYYcjS0,3y3czjszan6hsnojzw5z9ps3vnar5b,3r08vxyt7g83a7hidlz4jsa710x7wi,8QYYcjS0,2020-0188,2020-06-04,12:22:53,12:55:26,NA,incomplete,31,shape,1,0,left,Green_Triangle_Stripes_4.jpg,Red_Triangle_Chess_1.jpg,Purple_Plus_Grid_4.jpg,right,776.854999945499,false,high,false
8QYYcjS0,3y3czjszan6hsnojzw5z9ps3vnar5b,3r08vxyt7g83a7hidlz4jsa710x7wi,8QYYcjS0,2020-0188,2020-06-04,12:22:53,12:55:26,NA,incomplete,32,shape,1,1,left,Purple_Star_Chess_1.jpg,Blue_Star_Stripes_4.jpg,Red_Plus_Dots_1.jpg,right,854.5099999755621,false,high,false
8QYYcjS0,3y3czjszan6hsnojzw5z9ps3vnar5b,3r08vxyt7g83a7hidlz4jsa710x7wi,8QYYcjS0,2020-0188,2020-06-04,12:22:53,12:55:26,NA,incomplete,33,shape,1,0,left,Red_Triangle_Grid_3.jpg,Purple_Triangle_Chess_2.jpg,Blue_Circle_Stripes_3.jpg,right,799.9500000150874,false,high,false
8QYYcjS0,3y3czjszan6hsnojzw5z9ps3vnar5b,3r08vxyt7g83a7hidlz4jsa710x7wi,8QYYcjS0,2020-0188,2020-06-04,12:22:53,12:55:26,NA,incomplete,34,shape,1,1,right,Blue_Star_Chess_3.jpg,Green_Circle_Dots_3.jpg,Red_Star_Stripes_2.jpg,left,766.9699999969453,false,high,false
8QYYcjS0,3y3czjszan6hsnojzw5z9ps3vnar5b,3r08vxyt7g83a7hidlz4jsa710x7wi,8QYYcjS0,2020-0188,2020-06-04,12:22:53,12:55:26,NA,incomplete,35,shape,1,1,left,Purple_Star_Chess_2.jpg,Green_Star_Dots_1.jpg,Blue_Circle_Stripes_2.jpg,right,770.3450000844896,false,high,false
8QYYcjS0,3y3czjszan6hsnojzw5z9ps3vnar5b,3r08vxyt7g83a7hidlz4jsa710x7wi,8QYYcjS0,2020-0188,2020-06-04,12:22:53,12:55:26,NA,incomplete,36,shape,1,1,left,Blue_Plus_Dots_3.jpg,Green_Plus_Chess_4.jpg,Red_Star_Stripes_3.jpg,left,896.1750000016764,true,high,false
8QYYcjS0,3y3czjszan6hsnojzw5z9ps3vnar5b,3r08vxyt7g83a7hidlz4jsa710x7wi,8QYYcjS0,2020-0188,2020-06-04,12:22:53,12:55:26,NA,incomplete,37,shape,1,0,right,Purple_Triangle_Stripes_1.jpg,Blue_Star_Dots_1.jpg,Red_Triangle_Chess_2.jpg,right,1072.829999960959,true,high,false
8QYYcjS0,3y3czjszan6hsnojzw5z9ps3vnar5b,3r08vxyt7g83a7hidlz4jsa710x7wi,8QYYcjS0,2020-0188,2020-06-04,12:22:53,12:55:26,NA,incomplete,38,shape,1,1,left,Green_Triangle_Stripes_2.jpg,Red_Triangle_Dots_4.jpg,Blue_Circle_Grid_2.jpg,right,736.4450000459328,false,high,false
8QYYcjS0,3y3czjszan6hsnojzw5z9ps3vnar5b,3r08vxyt7g83a7hidlz4jsa710x7wi,8QYYcjS0,2020-0188,2020-06-04,12:22:53,12:55:26,NA,incomplete,39,shape,1,1,left,Purple_Plus_Chess_4.jpg,Red_Plus_Stripes_2.jpg,Blue_Star_Dots_4.jpg,left,793.7300000339746,true,high,false
8QYYcjS0,3y3czjszan6hsnojzw5z9ps3vnar5b,3r08vxyt7g83a7hidlz4jsa710x7wi,8QYYcjS0,2020-0188,2020-06-04,12:22:53,12:55:26,NA,incomplete,40,number,0,0,right,Blue_Circle_Grid_4.jpg,Purple_Circle_Chess_3.jpg,Red_Plus_Stripes_4.jpg,left,739.8099999409169,false,high,false
8QYYcjS0,3y3czjszan6hsnojzw5z9ps3vnar5b,3r08vxyt7g83a7hidlz4jsa710x7wi,8QYYcjS0,2020-0188,2020-06-04,12:22:53,12:55:26,NA,incomplete,41,number,0,1,right,Red_Plus_Dots_2.jpg,Blue_Plus_Stripes_1.jpg,Purple_Circle_Chess_2.jpg,left,762.6000000163913,false,high,false
8QYYcjS0,3y3czjszan6hsnojzw5z9ps3vnar5b,3r08vxyt7g83a7hidlz4jsa710x7wi,8QYYcjS0,2020-0188,2020-06-04,12:22:53,12:55:26,NA,incomplete,42,number,0,1,left,Red_Triangle_Dots_3.jpg,Purple_Plus_Stripes_3.jpg,Blue_Triangle_Chess_2.jpg,right,800.7750000106171,false,high,false
8QYYcjS0,3y3czjszan6hsnojzw5z9ps3vnar5b,3r08vxyt7g83a7hidlz4jsa710x7wi,8QYYcjS0,2020-0188,2020-06-04,12:22:53,12:55:26,NA,incomplete,43,number,0,1,left,Green_Circle_Chess_2.jpg,Purple_Star_Stripes_2.jpg,Blue_Circle_Dots_4.jpg,left,669.7799999965355,true,high,false
8QYYcjS0,3y3czjszan6hsnojzw5z9ps3vnar5b,3r08vxyt7g83a7hidlz4jsa710x7wi,8QYYcjS0,2020-0188,2020-06-04,12:22:53,12:55:26,NA,incomplete,44,number,0,1,left,Blue_Circle_Dots_1.jpg,Purple_Star_Grid_1.jpg,Red_Circle_Stripes_3.jpg,left,721.8649999704212,true,high,false
8QYYcjS0,3y3czjszan6hsnojzw5z9ps3vnar5b,3r08vxyt7g83a7hidlz4jsa710x7wi,8QYYcjS0,2020-0188,2020-06-04,12:22:53,12:55:26,NA,incomplete,45,number,0,1,right,Blue_Circle_Dots_2.jpg,Green_Circle_Chess_1.jpg,Red_Star_Grid_2.jpg,right,806.9299999624491,true,high,false
8QYYcjS0,3y3czjszan6hsnojzw5z9ps3vnar5b,3r08vxyt7g83a7hidlz4jsa710x7wi,8QYYcjS0,2020-0188,2020-06-04,12:22:53,12:55:26,NA,incomplete,46,number,0,1,left,Blue_Star_Grid_4.jpg,Green_Triangle_Dots_4.jpg,Red_Star_Stripes_2.jpg,left,682.5050000334159,true,high,false
8QYYcjS0,3y3czjszan6hsnojzw5z9ps3vnar5b,3r08vxyt7g83a7hidlz4jsa710x7wi,8QYYcjS0,2020-0188,2020-06-04,12:22:53,12:55:26,NA,incomplete,47,number,0,1,right,Green_Circle_Stripes_1.jpg,Blue_Circle_Dots_2.jpg,Red_Plus_Chess_1.jpg,right,780.8500000974163,true,high,false
8QYYcjS0,3y3czjszan6hsnojzw5z9ps3vnar5b,3r08vxyt7g83a7hidlz4jsa710x7wi,8QYYcjS0,2020-0188,2020-06-04,12:22:53,12:55:26,NA,incomplete,48,number,0,1,left,Red_Star_Dots_1.jpg,Blue_Plus_Stripes_1.jpg,Green_Star_Chess_2.jpg,left,745.5149999586865,true,high,false
8QYYcjS0,3y3czjszan6hsnojzw5z9ps3vnar5b,3r08vxyt7g83a7hidlz4jsa710x7wi,8QYYcjS0,2020-0188,2020-06-04,12:22:53,12:55:26,NA,incomplete,49,number,0,1,left,Purple_Circle_Dots_4.jpg,Green_Triangle_Stripes_4.jpg,Blue_Circle_Chess_1.jpg,left,914.9100000504404,true,high,false
8QYYcjS0,3y3czjszan6hsnojzw5z9ps3vnar5b,3r08vxyt7g83a7hidlz4jsa710x7wi,8QYYcjS0,2020-0188,2020-06-04,12:22:53,12:55:26,NA,incomplete,50,shape,1,1,right,Blue_Circle_Grid_4.jpg,Green_Triangle_Dots_4.jpg,Purple_Circle_Stripes_1.jpg,left,624.0649999817833,false,high,false
8QYYcjS0,3y3czjszan6hsnojzw5z9ps3vnar5b,3r08vxyt7g83a7hidlz4jsa710x7wi,8QYYcjS0,2020-0188,2020-06-04,12:22:53,12:55:26,NA,incomplete,51,shape,1,1,left,Purple_Plus_Dots_3.jpg,Red_Plus_Stripes_2.jpg,Green_Circle_Grid_3.jpg,left,755.9799998998642,true,high,false
8QYYcjS0,3y3czjszan6hsnojzw5z9ps3vnar5b,3r08vxyt7g83a7hidlz4jsa710x7wi,8QYYcjS0,2020-0188,2020-06-04,12:22:53,12:55:26,NA,incomplete,52,shape,1,1,left,Green_Circle_Chess_1.jpg,Purple_Circle_Stripes_2.jpg,Blue_Triangle_Grid_1.jpg,left,921.985000022687,true,high,false
8QYYcjS0,3y3czjszan6hsnojzw5z9ps3vnar5b,3r08vxyt7g83a7hidlz4jsa710x7wi,8QYYcjS0,2020-0188,2020-06-04,12:22:53,12:55:26,NA,incomplete,53,shape,1,1,right,Green_Circle_Stripes_4.jpg,Blue_Plus_Dots_4.jpg,Purple_Circle_Chess_3.jpg,right,688.9750000555068,true,high,false
8QYYcjS0,3y3czjszan6hsnojzw5z9ps3vnar5b,3r08vxyt7g83a7hidlz4jsa710x7wi,8QYYcjS0,2020-0188,2020-06-04,12:22:53,12:55:26,NA,incomplete,54,shape,1,1,left,Purple_Star_Chess_4.jpg,Blue_Star_Dots_3.jpg,Green_Plus_Stripes_4.jpg,left,691.9200000120327,true,high,false
8QYYcjS0,3y3czjszan6hsnojzw5z9ps3vnar5b,3r08vxyt7g83a7hidlz4jsa710x7wi,8QYYcjS0,2020-0188,2020-06-04,12:22:53,12:55:26,NA,incomplete,55,shape,1,1,left,Green_Plus_Grid_4.jpg,Blue_Plus_Dots_3.jpg,Red_Circle_Chess_4.jpg,left,770.50500002224,true,high,false
8QYYcjS0,3y3czjszan6hsnojzw5z9ps3vnar5b,3r08vxyt7g83a7hidlz4jsa710x7wi,8QYYcjS0,2020-0188,2020-06-04,12:22:53,12:55:26,NA,incomplete,56,shape,1,0,left,Blue_Plus_Grid_4.jpg,Green_Plus_Stripes_3.jpg,Purple_Star_Chess_4.jpg,left,744.4599999580532,true,high,false
8QYYcjS0,3y3czjszan6hsnojzw5z9ps3vnar5b,3r08vxyt7g83a7hidlz4jsa710x7wi,8QYYcjS0,2020-0188,2020-06-04,12:22:53,12:55:26,NA,incomplete,57,shape,1,1,right,Purple_Circle_Chess_1.jpg,Red_Plus_Dots_1.jpg,Blue_Circle_Grid_3.jpg,left,670.6499999854714,false,high,false
8QYYcjS0,3y3czjszan6hsnojzw5z9ps3vnar5b,3r08vxyt7g83a7hidlz4jsa710x7wi,8QYYcjS0,2020-0188,2020-06-04,12:22:53,12:55:26,NA,incomplete,58,shape,1,1,right,Red_Plus_Chess_4.jpg,Blue_Star_Grid_4.jpg,Purple_Plus_Stripes_2.jpg,right,856.3900000881404,true,high,false
8QYYcjS0,3y3czjszan6hsnojzw5z9ps3vnar5b,3r08vxyt7g83a7hidlz4jsa710x7wi,8QYYcjS0,2020-0188,2020-06-04,12:22:53,12:55:26,NA,incomplete,59,shape,1,1,right,Green_Circle_Stripes_2.jpg,Purple_Plus_Chess_2.jpg,Blue_Circle_Dots_1.jpg,right,748.7899999832734,true,high,false
8QYYcjS0,3y3czjszan6hsnojzw5z9ps3vnar5b,3r08vxyt7g83a7hidlz4jsa710x7wi,8QYYcjS0,2020-0188,2020-06-04,12:22:53,12:55:26,NA,incomplete,60,number,0,1,right,Green_Plus_Stripes_4.jpg,Purple_Plus_Dots_1.jpg,Blue_Star_Chess_4.jpg,left,840.8900001086295,false,high,false
8QYYcjS0,3y3czjszan6hsnojzw5z9ps3vnar5b,3r08vxyt7g83a7hidlz4jsa710x7wi,8QYYcjS0,2020-0188,2020-06-04,12:22:53,12:55:26,NA,incomplete,61,number,0,1,right,Blue_Triangle_Grid_3.jpg,Purple_Triangle_Stripes_2.jpg,Red_Plus_Chess_3.jpg,left,731.6649999702349,false,high,false
8QYYcjS0,3y3czjszan6hsnojzw5z9ps3vnar5b,3r08vxyt7g83a7hidlz4jsa710x7wi,8QYYcjS0,2020-0188,2020-06-04,12:22:53,12:55:26,NA,incomplete,62,number,0,0,right,Blue_Triangle_Chess_4.jpg,Green_Triangle_Grid_1.jpg,Red_Circle_Dots_4.jpg,right,674.9399999389425,true,high,false
8QYYcjS0,3y3czjszan6hsnojzw5z9ps3vnar5b,3r08vxyt7g83a7hidlz4jsa710x7wi,8QYYcjS0,2020-0188,2020-06-04,12:22:53,12:55:26,NA,incomplete,63,number,0,1,left,Blue_Triangle_Grid_3.jpg,Purple_Star_Stripes_3.jpg,Red_Triangle_Chess_2.jpg,left,828.7000000709668,true,high,false
8QYYcjS0,3y3czjszan6hsnojzw5z9ps3vnar5b,3r08vxyt7g83a7hidlz4jsa710x7wi,8QYYcjS0,2020-0188,2020-06-04,12:22:53,12:55:26,NA,incomplete,64,number,0,1,left,Blue_Star_Stripes_1.jpg,Red_Circle_Grid_1.jpg,Purple_Star_Dots_2.jpg,left,1372.7550000185147,true,high,false
8QYYcjS0,3y3czjszan6hsnojzw5z9ps3vnar5b,3r08vxyt7g83a7hidlz4jsa710x7wi,8QYYcjS0,2020-0188,2020-06-04,12:22:53,12:55:26,NA,incomplete,65,number,0,1,right,Blue_Plus_Grid_2.jpg,Purple_Plus_Chess_4.jpg,Green_Circle_Dots_2.jpg,right,715.2249999344349,true,high,false
8QYYcjS0,3y3czjszan6hsnojzw5z9ps3vnar5b,3r08vxyt7g83a7hidlz4jsa710x7wi,8QYYcjS0,2020-0188,2020-06-04,12:22:53,12:55:26,NA,incomplete,66,number,0,1,right,Purple_Circle_Grid_2.jpg,Blue_Circle_Dots_3.jpg,Red_Plus_Chess_2.jpg,right,867.8550000768155,true,high,false
8QYYcjS0,3y3czjszan6hsnojzw5z9ps3vnar5b,3r08vxyt7g83a7hidlz4jsa710x7wi,8QYYcjS0,2020-0188,2020-06-04,12:22:53,12:55:26,NA,incomplete,67,number,0,0,left,Red_Star_Grid_4.jpg,Purple_Triangle_Chess_4.jpg,Blue_Star_Stripes_3.jpg,left,964.8949999827892,true,high,false
8QYYcjS0,3y3czjszan6hsnojzw5z9ps3vnar5b,3r08vxyt7g83a7hidlz4jsa710x7wi,8QYYcjS0,2020-0188,2020-06-04,12:22:53,12:55:26,NA,incomplete,68,number,0,1,left,Red_Star_Grid_2.jpg,Purple_Triangle_Dots_2.jpg,Green_Star_Stripes_1.jpg,left,794.3250000244007,true,high,false
8QYYcjS0,3y3czjszan6hsnojzw5z9ps3vnar5b,3r08vxyt7g83a7hidlz4jsa710x7wi,8QYYcjS0,2020-0188,2020-06-04,12:22:53,12:55:26,NA,incomplete,69,number,0,1,right,Blue_Star_Dots_3.jpg,Red_Star_Stripes_1.jpg,Green_Circle_Chess_3.jpg,right,673.4599999617785,true,high,false
8QYYcjS0,3y3czjszan6hsnojzw5z9ps3vnar5b,3r08vxyt7g83a7hidlz4jsa710x7wi,8QYYcjS0,2020-0188,2020-06-04,12:22:53,12:55:26,NA,incomplete,70,shape,1,1,right,Green_Star_Stripes_2.jpg,Blue_Triangle_Chess_2.jpg,Purple_Star_Grid_3.jpg,left,880.5300000822172,false,high,false
8QYYcjS0,3y3czjszan6hsnojzw5z9ps3vnar5b,3r08vxyt7g83a7hidlz4jsa710x7wi,8QYYcjS0,2020-0188,2020-06-04,12:22:53,12:55:26,NA,incomplete,71,shape,1,0,left,Purple_Triangle_Dots_2.jpg,Green_Triangle_Chess_1.jpg,Red_Plus_Stripes_2.jpg,right,705.5649999529123,false,high,false
8QYYcjS0,3y3czjszan6hsnojzw5z9ps3vnar5b,3r08vxyt7g83a7hidlz4jsa710x7wi,8QYYcjS0,2020-0188,2020-06-04,12:22:53,12:55:26,NA,incomplete,72,shape,1,0,left,Purple_Star_Chess_3.jpg,Blue_Star_Dots_2.jpg,Green_Triangle_Grid_3.jpg,right,922.205000068061,false,high,false
8QYYcjS0,3y3czjszan6hsnojzw5z9ps3vnar5b,3r08vxyt7g83a7hidlz4jsa710x7wi,8QYYcjS0,2020-0188,2020-06-04,12:22:53,12:55:26,NA,incomplete,73,shape,1,1,left,Blue_Star_Grid_2.jpg,Purple_Star_Dots_3.jpg,Green_Circle_Chess_2.jpg,right,784.3499999726191,false,high,false
8QYYcjS0,3y3czjszan6hsnojzw5z9ps3vnar5b,3r08vxyt7g83a7hidlz4jsa710x7wi,8QYYcjS0,2020-0188,2020-06-04,12:22:53,12:55:26,NA,incomplete,74,shape,1,1,right,Purple_Triangle_Dots_4.jpg,Green_Star_Grid_4.jpg,Blue_Triangle_Stripes_3.jpg,left,800.3799999132752,false,high,false
8QYYcjS0,3y3czjszan6hsnojzw5z9ps3vnar5b,3r08vxyt7g83a7hidlz4jsa710x7wi,8QYYcjS0,2020-0188,2020-06-04,12:22:53,12:55:26,NA,incomplete,75,shape,1,1,right,Red_Star_Dots_4.jpg,Purple_Plus_Chess_4.jpg,Green_Star_Stripes_3.jpg,right,731.1350000090897,true,high,false
8QYYcjS0,3y3czjszan6hsnojzw5z9ps3vnar5b,3r08vxyt7g83a7hidlz4jsa710x7wi,8QYYcjS0,2020-0188,2020-06-04,12:22:53,12:55:26,NA,incomplete,76,shape,1,0,right,Green_Circle_Chess_4.jpg,Red_Plus_Dots_4.jpg,Purple_Circle_Stripes_2.jpg,right,994.0199999837205,true,high,false
8QYYcjS0,3y3czjszan6hsnojzw5z9ps3vnar5b,3r08vxyt7g83a7hidlz4jsa710x7wi,8QYYcjS0,2020-0188,2020-06-04,12:22:53,12:55:26,NA,incomplete,77,shape,1,1,right,Green_Plus_Chess_1.jpg,Blue_Star_Grid_1.jpg,Red_Plus_Stripes_4.jpg,right,837.9300000378862,true,high,false
8QYYcjS0,3y3czjszan6hsnojzw5z9ps3vnar5b,3r08vxyt7g83a7hidlz4jsa710x7wi,8QYYcjS0,2020-0188,2020-06-04,12:22:53,12:55:26,NA,incomplete,78,shape,1,0,right,Red_Circle_Chess_3.jpg,Purple_Triangle_Dots_3.jpg,Green_Circle_Stripes_2.jpg,right,1040.7999999588355,true,high,false
8QYYcjS0,3y3czjszan6hsnojzw5z9ps3vnar5b,3r08vxyt7g83a7hidlz4jsa710x7wi,8QYYcjS0,2020-0188,2020-06-04,12:22:53,12:55:26,NA,incomplete,79,shape,1,1,left,Red_Circle_Stripes_1.jpg,Green_Circle_Grid_4.jpg,Blue_Plus_Dots_1.jpg,right,948.9899999462068,false,high,false
8QYYcjS0,3y3czjszan6hsnojzw5z9ps3vnar5b,3r08vxyt7g83a7hidlz4jsa710x7wi,8QYYcjS0,2020-0188,2020-06-04,12:22:53,12:55:26,NA,incomplete,80,number,0,1,right,Blue_Triangle_Stripes_2.jpg,Green_Triangle_Chess_3.jpg,Red_Star_Grid_2.jpg,right,944.2799999378622,true,high,false
8QYYcjS0,3y3czjszan6hsnojzw5z9ps3vnar5b,3r08vxyt7g83a7hidlz4jsa710x7wi,8QYYcjS0,2020-0188,2020-06-04,12:22:53,12:55:26,NA,incomplete,81,number,0,1,left,Red_Circle_Dots_3.jpg,Purple_Plus_Stripes_3.jpg,Blue_Circle_Chess_4.jpg,left,878.7500000325963,true,high,false
8QYYcjS0,3y3czjszan6hsnojzw5z9ps3vnar5b,3r08vxyt7g83a7hidlz4jsa710x7wi,8QYYcjS0,2020-0188,2020-06-04,12:22:53,12:55:26,NA,incomplete,82,number,0,1,left,Blue_Star_Stripes_3.jpg,Purple_Plus_Dots_3.jpg,Green_Star_Grid_2.jpg,left,759.239999926649,true,high,false
8QYYcjS0,3y3czjszan6hsnojzw5z9ps3vnar5b,3r08vxyt7g83a7hidlz4jsa710x7wi,8QYYcjS0,2020-0188,2020-06-04,12:22:53,12:55:26,NA,incomplete,83,number,0,1,left,Green_Star_Chess_3.jpg,Blue_Triangle_Grid_3.jpg,Red_Star_Dots_1.jpg,left,1045.8800001069903,true,high,false
8QYYcjS0,3y3czjszan6hsnojzw5z9ps3vnar5b,3r08vxyt7g83a7hidlz4jsa710x7wi,8QYYcjS0,2020-0188,2020-06-04,12:22:53,12:55:26,NA,incomplete,84,number,0,1,left,Red_Plus_Chess_4.jpg,Blue_Star_Stripes_4.jpg,Purple_Plus_Dots_2.jpg,right,913.8950000051409,false,high,false
8QYYcjS0,3y3czjszan6hsnojzw5z9ps3vnar5b,3r08vxyt7g83a7hidlz4jsa710x7wi,8QYYcjS0,2020-0188,2020-06-04,12:22:53,12:55:26,NA,incomplete,85,number,0,0,right,Red_Triangle_Chess_2.jpg,Purple_Triangle_Grid_4.jpg,Blue_Star_Stripes_2.jpg,right,838.564999983646,true,high,false
8QYYcjS0,3y3czjszan6hsnojzw5z9ps3vnar5b,3r08vxyt7g83a7hidlz4jsa710x7wi,8QYYcjS0,2020-0188,2020-06-04,12:22:53,12:55:26,NA,incomplete,86,number,0,1,right,Red_Plus_Stripes_4.jpg,Blue_Plus_Dots_1.jpg,Purple_Star_Chess_4.jpg,right,705.0850000232458,true,high,false
8QYYcjS0,3y3czjszan6hsnojzw5z9ps3vnar5b,3r08vxyt7g83a7hidlz4jsa710x7wi,8QYYcjS0,2020-0188,2020-06-04,12:22:53,12:55:26,NA,incomplete,87,number,0,0,right,Green_Triangle_Chess_3.jpg,Blue_Triangle_Grid_4.jpg,Purple_Star_Dots_3.jpg,right,818.085000035353,true,high,false
8QYYcjS0,3y3czjszan6hsnojzw5z9ps3vnar5b,3r08vxyt7g83a7hidlz4jsa710x7wi,8QYYcjS0,2020-0188,2020-06-04,12:22:53,12:55:26,NA,incomplete,88,number,0,1,right,Green_Circle_Grid_1.jpg,Blue_Circle_Stripes_4.jpg,Red_Star_Dots_1.jpg,left,1197.8949999902397,false,high,false
8QYYcjS0,3y3czjszan6hsnojzw5z9ps3vnar5b,3r08vxyt7g83a7hidlz4jsa710x7wi,8QYYcjS0,2020-0188,2020-06-04,12:22:53,12:55:26,NA,incomplete,89,number,0,1,left,Red_Circle_Chess_1.jpg,Purple_Plus_Stripes_1.jpg,Blue_Circle_Grid_4.jpg,right,883.8500001002103,false,high,false
8QYYcjS0,3y3czjszan6hsnojzw5z9ps3vnar5b,3r08vxyt7g83a7hidlz4jsa710x7wi,8QYYcjS0,2020-0188,2020-06-04,12:22:53,12:55:26,NA,incomplete,90,shape,1,1,right,Green_Circle_Grid_2.jpg,Blue_Triangle_Stripes_2.jpg,Purple_Circle_Dots_4.jpg,left,769.4850000552833,false,high,false
8QYYcjS0,3y3czjszan6hsnojzw5z9ps3vnar5b,3r08vxyt7g83a7hidlz4jsa710x7wi,8QYYcjS0,2020-0188,2020-06-04,12:22:53,12:55:26,NA,incomplete,91,shape,1,1,right,Green_Plus_Stripes_2.jpg,Red_Star_Chess_2.jpg,Blue_Plus_Dots_3.jpg,left,807.5050000334159,false,high,false
8QYYcjS0,3y3czjszan6hsnojzw5z9ps3vnar5b,3r08vxyt7g83a7hidlz4jsa710x7wi,8QYYcjS0,2020-0188,2020-06-04,12:22:53,12:55:26,NA,incomplete,92,shape,1,1,left,Blue_Plus_Stripes_1.jpg,Purple_Plus_Dots_4.jpg,Green_Star_Grid_1.jpg,left,859.5650000497699,true,high,false
8QYYcjS0,3y3czjszan6hsnojzw5z9ps3vnar5b,3r08vxyt7g83a7hidlz4jsa710x7wi,8QYYcjS0,2020-0188,2020-06-04,12:22:53,12:55:26,NA,incomplete,93,shape,1,1,left,Purple_Circle_Dots_2.jpg,Red_Circle_Chess_4.jpg,Blue_Star_Stripes_2.jpg,left,765.0750000029802,true,high,false
8QYYcjS0,3y3czjszan6hsnojzw5z9ps3vnar5b,3r08vxyt7g83a7hidlz4jsa710x7wi,8QYYcjS0,2020-0188,2020-06-04,12:22:53,12:55:26,NA,incomplete,94,shape,1,1,right,Blue_Star_Dots_1.jpg,Green_Triangle_Grid_1.jpg,Purple_Star_Chess_3.jpg,right,770.1000000815839,true,high,false
8QYYcjS0,3y3czjszan6hsnojzw5z9ps3vnar5b,3r08vxyt7g83a7hidlz4jsa710x7wi,8QYYcjS0,2020-0188,2020-06-04,12:22:53,12:55:26,NA,incomplete,95,shape,1,1,right,Red_Triangle_Stripes_2.jpg,Purple_Circle_Chess_2.jpg,Green_Triangle_Dots_3.jpg,right,849.1549999453127,true,high,false
8QYYcjS0,3y3czjszan6hsnojzw5z9ps3vnar5b,3r08vxyt7g83a7hidlz4jsa710x7wi,8QYYcjS0,2020-0188,2020-06-04,12:22:53,12:55:26,NA,incomplete,96,shape,1,1,left,Green_Star_Dots_1.jpg,Purple_Star_Stripes_2.jpg,Blue_Triangle_Grid_1.jpg,left,739.8749999701977,true,high,false
8QYYcjS0,3y3czjszan6hsnojzw5z9ps3vnar5b,3r08vxyt7g83a7hidlz4jsa710x7wi,8QYYcjS0,2020-0188,2020-06-04,12:22:53,12:55:26,NA,incomplete,97,shape,1,1,left,Red_Star_Chess_3.jpg,Blue_Star_Grid_4.jpg,Green_Circle_Stripes_3.jpg,left,715.1300000259653,true,high,false
8QYYcjS0,3y3czjszan6hsnojzw5z9ps3vnar5b,3r08vxyt7g83a7hidlz4jsa710x7wi,8QYYcjS0,2020-0188,2020-06-04,12:22:53,12:55:26,NA,incomplete,98,shape,1,1,right,Red_Plus_Grid_2.jpg,Green_Circle_Dots_2.jpg,Purple_Plus_Chess_1.jpg,right,706.7449999740347,true,high,false
8QYYcjS0,3y3czjszan6hsnojzw5z9ps3vnar5b,3r08vxyt7g83a7hidlz4jsa710x7wi,8QYYcjS0,2020-0188,2020-06-04,12:22:53,12:55:26,NA,incomplete,99,shape,1,1,left,Purple_Plus_Grid_3.jpg,Red_Plus_Stripes_2.jpg,Green_Star_Chess_3.jpg,left,1007.2350000264123,true,high,false
8QYYcjS0,3y3czjszan6hsnojzw5z9ps3vnar5b,3r08vxyt7g83a7hidlz4jsa710x7wi,8QYYcjS0,2020-0188,2020-06-04,12:22:53,12:55:26,NA,incomplete,100,number,0,0,right,Blue_Star_Grid_2.jpg,Green_Star_Dots_3.jpg,Purple_Circle_Stripes_2.jpg,left,661.9799999753013,false,high,false
8QYYcjS0,3y3czjszan6hsnojzw5z9ps3vnar5b,3r08vxyt7g83a7hidlz4jsa710x7wi,8QYYcjS0,2020-0188,2020-06-04,12:22:53,12:55:26,NA,incomplete,101,number,0,1,right,Green_Circle_Grid_2.jpg,Purple_Circle_Chess_1.jpg,Blue_Plus_Dots_2.jpg,left,640.3050000080839,false,high,false
8QYYcjS0,3y3czjszan6hsnojzw5z9ps3vnar5b,3r08vxyt7g83a7hidlz4jsa710x7wi,8QYYcjS0,2020-0188,2020-06-04,12:22:53,12:55:26,NA,incomplete,102,number,0,0,right,Purple_Triangle_Grid_1.jpg,Blue_Triangle_Dots_3.jpg,Red_Plus_Chess_1.jpg,left,837.195000029169,false,high,false
8QYYcjS0,3y3czjszan6hsnojzw5z9ps3vnar5b,3r08vxyt7g83a7hidlz4jsa710x7wi,8QYYcjS0,2020-0188,2020-06-04,12:22:53,12:55:26,NA,incomplete,103,number,0,1,left,Purple_Circle_Chess_2.jpg,Blue_Star_Dots_2.jpg,Red_Circle_Stripes_3.jpg,right,671.0100000491366,false,high,false
8QYYcjS0,3y3czjszan6hsnojzw5z9ps3vnar5b,3r08vxyt7g83a7hidlz4jsa710x7wi,8QYYcjS0,2020-0188,2020-06-04,12:22:53,12:55:26,NA,incomplete,104,number,0,1,right,Green_Triangle_Dots_4.jpg,Blue_Triangle_Chess_2.jpg,Purple_Plus_Grid_4.jpg,left,707.4799999827519,false,high,false
8QYYcjS0,3y3czjszan6hsnojzw5z9ps3vnar5b,3r08vxyt7g83a7hidlz4jsa710x7wi,8QYYcjS0,2020-0188,2020-06-04,12:22:53,12:55:26,NA,incomplete,105,number,0,0,left,Blue_Circle_Stripes_3.jpg,Purple_Plus_Chess_3.jpg,Red_Circle_Grid_4.jpg,left,792.769999941811,true,high,false
8QYYcjS0,3y3czjszan6hsnojzw5z9ps3vnar5b,3r08vxyt7g83a7hidlz4jsa710x7wi,8QYYcjS0,2020-0188,2020-06-04,12:22:53,12:55:26,NA,incomplete,106,number,0,1,right,Red_Plus_Grid_1.jpg,Purple_Plus_Chess_3.jpg,Green_Star_Dots_1.jpg,right,901.36999997776,true,high,false
8QYYcjS0,3y3czjszan6hsnojzw5z9ps3vnar5b,3r08vxyt7g83a7hidlz4jsa710x7wi,8QYYcjS0,2020-0188,2020-06-04,12:22:53,12:55:26,NA,incomplete,107,number,0,1,left,Red_Plus_Dots_3.jpg,Purple_Star_Grid_3.jpg,Blue_Plus_Stripes_2.jpg,left,757.7900000615045,true,high,false
8QYYcjS0,3y3czjszan6hsnojzw5z9ps3vnar5b,3r08vxyt7g83a7hidlz4jsa710x7wi,8QYYcjS0,2020-0188,2020-06-04,12:22:53,12:55:26,NA,incomplete,108,number,0,1,right,Red_Circle_Stripes_3.jpg,Purple_Circle_Grid_2.jpg,Green_Star_Dots_3.jpg,left,771.695000003092,false,high,false
8QYYcjS0,3y3czjszan6hsnojzw5z9ps3vnar5b,3r08vxyt7g83a7hidlz4jsa710x7wi,8QYYcjS0,2020-0188,2020-06-04,12:22:53,12:55:26,NA,incomplete,109,number,0,1,right,Purple_Circle_Stripes_3.jpg,Red_Circle_Grid_2.jpg,Blue_Plus_Dots_3.jpg,right,675.9099999908358,true,high,false
8QYYcjS0,3y3czjszan6hsnojzw5z9ps3vnar5b,3r08vxyt7g83a7hidlz4jsa710x7wi,8QYYcjS0,2020-0188,2020-06-04,12:22:53,12:55:26,NA,incomplete,110,shape,1,1,right,Green_Triangle_Dots_1.jpg,Purple_Plus_Stripes_1.jpg,Red_Triangle_Grid_3.jpg,left,651.1199999367818,false,high,false
8QYYcjS0,3y3czjszan6hsnojzw5z9ps3vnar5b,3r08vxyt7g83a7hidlz4jsa710x7wi,8QYYcjS0,2020-0188,2020-06-04,12:22:53,12:55:26,NA,incomplete,111,shape,1,0,left,Red_Star_Dots_1.jpg,Purple_Star_Stripes_2.jpg,Green_Plus_Grid_1.jpg,right,654.3200000887737,false,high,false
8QYYcjS0,3y3czjszan6hsnojzw5z9ps3vnar5b,3r08vxyt7g83a7hidlz4jsa710x7wi,8QYYcjS0,2020-0188,2020-06-04,12:22:53,12:55:26,NA,incomplete,112,shape,1,1,right,Green_Triangle_Stripes_3.jpg,Red_Star_Grid_3.jpg,Purple_Triangle_Chess_1.jpg,left,712.3549999669194,false,high,false
8QYYcjS0,3y3czjszan6hsnojzw5z9ps3vnar5b,3r08vxyt7g83a7hidlz4jsa710x7wi,8QYYcjS0,2020-0188,2020-06-04,12:22:53,12:55:26,NA,incomplete,113,shape,1,1,right,Blue_Triangle_Grid_3.jpg,Green_Circle_Stripes_3.jpg,Purple_Triangle_Chess_4.jpg,left,752.7000000700355,false,high,false
8QYYcjS0,3y3czjszan6hsnojzw5z9ps3vnar5b,3r08vxyt7g83a7hidlz4jsa710x7wi,8QYYcjS0,2020-0188,2020-06-04,12:22:53,12:55:26,NA,incomplete,114,shape,1,1,left,Red_Star_Stripes_4.jpg,Purple_Star_Chess_3.jpg,Blue_Triangle_Dots_4.jpg,left,706.3599999528378,true,high,false
8QYYcjS0,3y3czjszan6hsnojzw5z9ps3vnar5b,3r08vxyt7g83a7hidlz4jsa710x7wi,8QYYcjS0,2020-0188,2020-06-04,12:22:53,12:55:26,NA,incomplete,115,shape,1,0,left,Green_Circle_Stripes_1.jpg,Red_Circle_Chess_4.jpg,Purple_Plus_Grid_1.jpg,left,911.5650000749156,true,high,false
8QYYcjS0,3y3czjszan6hsnojzw5z9ps3vnar5b,3r08vxyt7g83a7hidlz4jsa710x7wi,8QYYcjS0,2020-0188,2020-06-04,12:22:53,12:55:26,NA,incomplete,116,shape,1,1,right,Green_Star_Stripes_2.jpg,Purple_Plus_Chess_2.jpg,Red_Star_Grid_3.jpg,right,863.0999999586493,true,high,false
8QYYcjS0,3y3czjszan6hsnojzw5z9ps3vnar5b,3r08vxyt7g83a7hidlz4jsa710x7wi,8QYYcjS0,2020-0188,2020-06-04,12:22:53,12:55:26,NA,incomplete,117,shape,1,1,left,Purple_Circle_Stripes_4.jpg,Green_Circle_Grid_2.jpg,Blue_Star_Dots_4.jpg,left,592.8600000916049,true,high,false
8QYYcjS0,3y3czjszan6hsnojzw5z9ps3vnar5b,3r08vxyt7g83a7hidlz4jsa710x7wi,8QYYcjS0,2020-0188,2020-06-04,12:22:53,12:55:26,NA,incomplete,118,shape,1,1,right,Purple_Star_Chess_1.jpg,Red_Circle_Grid_1.jpg,Blue_Star_Dots_3.jpg,right,693.874999997206,true,high,false
8QYYcjS0,3y3czjszan6hsnojzw5z9ps3vnar5b,3r08vxyt7g83a7hidlz4jsa710x7wi,8QYYcjS0,2020-0188,2020-06-04,12:22:53,12:55:26,NA,incomplete,119,shape,1,1,left,Blue_Circle_Stripes_1.jpg,Purple_Circle_Chess_2.jpg,Green_Star_Dots_1.jpg,left,610.175000037998,true,high,false
8QYYcjS0,3y3czjszan6hsnojzw5z9ps3vnar5b,3r08vxyt7g83a7hidlz4jsa710x7wi,8QYYcjS0,2020-0188,2020-06-04,12:22:53,12:55:26,NA,incomplete,120,race,2,1,right,A_M_06.jpg,C_M_13.jpg,A_F_16.jpg,NA,NA,NA,high,false
8QYYcjS0,3y3czjszan6hsnojzw5z9ps3vnar5b,3r08vxyt7g83a7hidlz4jsa710x7wi,8QYYcjS0,2020-0188,2020-06-04,12:22:53,12:55:26,NA,incomplete,121,race,2,1,right,A_M_12.jpg,C_M_04.jpg,A_F_14.jpg,left,1026.5099999960512,false,high,false
8QYYcjS0,3y3czjszan6hsnojzw5z9ps3vnar5b,3r08vxyt7g83a7hidlz4jsa710x7wi,8QYYcjS0,2020-0188,2020-06-04,12:22:53,12:55:26,NA,incomplete,122,race,2,0,right,C_M_04.jpg,A_M_14.jpg,C_F_02.jpg,right,1611.849999986589,true,high,false
8QYYcjS0,3y3czjszan6hsnojzw5z9ps3vnar5b,3r08vxyt7g83a7hidlz4jsa710x7wi,8QYYcjS0,2020-0188,2020-06-04,12:22:53,12:55:26,NA,incomplete,123,race,2,1,left,A_F_03.jpg,A_M_04.jpg,C_F_12.jpg,right,917.0849999645725,false,high,false
8QYYcjS0,3y3czjszan6hsnojzw5z9ps3vnar5b,3r08vxyt7g83a7hidlz4jsa710x7wi,8QYYcjS0,2020-0188,2020-06-04,12:22:53,12:55:26,NA,incomplete,124,race,2,0,right,A_F_08.jpg,C_F_16.jpg,A_M_04.jpg,right,951.6150000272319,true,high,false
8QYYcjS0,3y3czjszan6hsnojzw5z9ps3vnar5b,3r08vxyt7g83a7hidlz4jsa710x7wi,8QYYcjS0,2020-0188,2020-06-04,12:22:53,12:55:26,NA,incomplete,125,race,2,1,left,A_M_11.jpg,A_F_01.jpg,C_M_12.jpg,right,850.4549999488518,false,high,false
8QYYcjS0,3y3czjszan6hsnojzw5z9ps3vnar5b,3r08vxyt7g83a7hidlz4jsa710x7wi,8QYYcjS0,2020-0188,2020-06-04,12:22:53,12:55:26,NA,incomplete,126,race,2,0,left,A_M_07.jpg,A_F_11.jpg,C_M_06.jpg,left,885.8750000363216,true,high,false
8QYYcjS0,3y3czjszan6hsnojzw5z9ps3vnar5b,3r08vxyt7g83a7hidlz4jsa710x7wi,8QYYcjS0,2020-0188,2020-06-04,12:22:53,12:55:26,NA,incomplete,127,race,2,1,right,A_F_14.jpg,C_F_01.jpg,A_M_09.jpg,right,1278.0149999307469,true,high,false
8QYYcjS0,3y3czjszan6hsnojzw5z9ps3vnar5b,3r08vxyt7g83a7hidlz4jsa710x7wi,8QYYcjS0,2020-0188,2020-06-04,12:22:53,12:55:26,NA,incomplete,128,race,2,0,right,A_M_03.jpg,C_M_09.jpg,A_F_08.jpg,right,982.0649999892339,true,high,false
8QYYcjS0,3y3czjszan6hsnojzw5z9ps3vnar5b,3r08vxyt7g83a7hidlz4jsa710x7wi,8QYYcjS0,2020-0188,2020-06-04,12:22:53,12:55:26,NA,incomplete,129,race,2,1,right,A_M_08.jpg,C_M_09.jpg,A_F_07.jpg,right,1148.780000046827,true,high,false
8QYYcjS0,3y3czjszan6hsnojzw5z9ps3vnar5b,3r08vxyt7g83a7hidlz4jsa710x7wi,8QYYcjS0,2020-0188,2020-06-04,12:22:53,12:55:26,NA,incomplete,130,race,2,1,right,C_F_04.jpg,A_F_07.jpg,C_M_14.jpg,right,1287.8900000359863,true,high,false
8QYYcjS0,3y3czjszan6hsnojzw5z9ps3vnar5b,3r08vxyt7g83a7hidlz4jsa710x7wi,8QYYcjS0,2020-0188,2020-06-04,12:22:53,12:55:26,NA,incomplete,131,race,2,0,right,C_M_05.jpg,A_M_07.jpg,C_F_14.jpg,right,1119.5449999067932,true,high,false
8QYYcjS0,3y3czjszan6hsnojzw5z9ps3vnar5b,3r08vxyt7g83a7hidlz4jsa710x7wi,8QYYcjS0,2020-0188,2020-06-04,12:22:53,12:55:26,NA,incomplete,132,race,2,1,left,C_F_14.jpg,C_M_10.jpg,A_F_04.jpg,right,1014.5149999298155,false,high,false
8QYYcjS0,3y3czjszan6hsnojzw5z9ps3vnar5b,3r08vxyt7g83a7hidlz4jsa710x7wi,8QYYcjS0,2020-0188,2020-06-04,12:22:53,12:55:26,NA,incomplete,133,race,2,1,right,A_F_01.jpg,C_F_11.jpg,A_M_04.jpg,right,1202.9699999839067,true,high,false
8QYYcjS0,3y3czjszan6hsnojzw5z9ps3vnar5b,3r08vxyt7g83a7hidlz4jsa710x7wi,8QYYcjS0,2020-0188,2020-06-04,12:22:53,12:55:26,NA,incomplete,134,race,2,1,left,C_F_07.jpg,C_M_03.jpg,A_F_05.jpg,right,1300.8749999571592,false,high,false
8QYYcjS0,3y3czjszan6hsnojzw5z9ps3vnar5b,3r08vxyt7g83a7hidlz4jsa710x7wi,8QYYcjS0,2020-0188,2020-06-04,12:22:53,12:55:26,NA,incomplete,135,race,2,0,left,C_M_11.jpg,C_F_13.jpg,A_M_16.jpg,left,1234.9049999611452,true,high,false
8QYYcjS0,3y3czjszan6hsnojzw5z9ps3vnar5b,3r08vxyt7g83a7hidlz4jsa710x7wi,8QYYcjS0,2020-0188,2020-06-04,12:22:53,12:55:26,NA,incomplete,136,race,2,1,right,C_M_13.jpg,A_M_08.jpg,C_F_12.jpg,right,973.0449999915436,true,high,false
8QYYcjS0,3y3czjszan6hsnojzw5z9ps3vnar5b,3r08vxyt7g83a7hidlz4jsa710x7wi,8QYYcjS0,2020-0188,2020-06-04,12:22:53,12:55:26,NA,incomplete,137,race,2,1,right,C_M_08.jpg,A_M_11.jpg,C_F_09.jpg,right,1068.3100000023842,true,high,false
8QYYcjS0,3y3czjszan6hsnojzw5z9ps3vnar5b,3r08vxyt7g83a7hidlz4jsa710x7wi,8QYYcjS0,2020-0188,2020-06-04,12:22:53,12:55:26,NA,incomplete,138,race,2,1,right,A_F_16.jpg,C_F_06.jpg,A_M_10.jpg,right,1043.0799999739975,true,high,false
8QYYcjS0,3y3czjszan6hsnojzw5z9ps3vnar5b,3r08vxyt7g83a7hidlz4jsa710x7wi,8QYYcjS0,2020-0188,2020-06-04,12:22:53,12:55:26,NA,incomplete,139,race,2,1,right,A_F_07.jpg,C_F_11.jpg,A_M_02.jpg,right,1044.5449999533594,true,high,false
8QYYcjS0,3y3czjszan6hsnojzw5z9ps3vnar5b,3r08vxyt7g83a7hidlz4jsa710x7wi,8QYYcjS0,2020-0188,2020-06-04,12:22:53,12:55:26,NA,incomplete,140,gender,3,0,left,A_F_11.jpg,C_F_10.jpg,A_M_01.jpg,right,894.1900000208989,false,high,false
8QYYcjS0,3y3czjszan6hsnojzw5z9ps3vnar5b,3r08vxyt7g83a7hidlz4jsa710x7wi,8QYYcjS0,2020-0188,2020-06-04,12:22:53,12:55:26,NA,incomplete,141,gender,3,1,left,C_F_11.jpg,A_F_07.jpg,C_M_02.jpg,left,1217.7200000733137,true,high,false
8QYYcjS0,3y3czjszan6hsnojzw5z9ps3vnar5b,3r08vxyt7g83a7hidlz4jsa710x7wi,8QYYcjS0,2020-0188,2020-06-04,12:22:53,12:55:26,NA,incomplete,142,gender,3,0,left,A_F_15.jpg,C_F_11.jpg,A_M_02.jpg,right,992.8599999984726,false,high,false
8QYYcjS0,3y3czjszan6hsnojzw5z9ps3vnar5b,3r08vxyt7g83a7hidlz4jsa710x7wi,8QYYcjS0,2020-0188,2020-06-04,12:22:53,12:55:26,NA,incomplete,143,gender,3,1,left,C_F_10.jpg,A_F_04.jpg,C_M_09.jpg,right,1420.8749999525025,false,high,false
8QYYcjS0,3y3czjszan6hsnojzw5z9ps3vnar5b,3r08vxyt7g83a7hidlz4jsa710x7wi,8QYYcjS0,2020-0188,2020-06-04,12:22:53,12:55:26,NA,incomplete,144,gender,3,1,right,A_M_05.jpg,A_F_10.jpg,C_M_13.jpg,left,870.5449999542907,false,high,false
8QYYcjS0,3y3czjszan6hsnojzw5z9ps3vnar5b,3r08vxyt7g83a7hidlz4jsa710x7wi,8QYYcjS0,2020-0188,2020-06-04,12:22:53,12:55:26,NA,incomplete,145,gender,3,1,left,C_F_07.jpg,A_F_11.jpg,C_M_05.jpg,right,1226.7499999143183,false,high,false
8QYYcjS0,3y3czjszan6hsnojzw5z9ps3vnar5b,3r08vxyt7g83a7hidlz4jsa710x7wi,8QYYcjS0,2020-0188,2020-06-04,12:22:53,12:55:26,NA,incomplete,146,gender,3,1,left,C_F_16.jpg,A_F_11.jpg,C_M_15.jpg,left,1417.4849999835715,true,high,false
8QYYcjS0,3y3czjszan6hsnojzw5z9ps3vnar5b,3r08vxyt7g83a7hidlz4jsa710x7wi,8QYYcjS0,2020-0188,2020-06-04,12:22:53,12:55:26,NA,incomplete,147,gender,3,1,right,A_F_16.jpg,A_M_13.jpg,C_F_09.jpg,right,858.7899999693036,true,high,false
8QYYcjS0,3y3czjszan6hsnojzw5z9ps3vnar5b,3r08vxyt7g83a7hidlz4jsa710x7wi,8QYYcjS0,2020-0188,2020-06-04,12:22:53,12:55:26,NA,incomplete,148,gender,3,1,left,C_F_10.jpg,A_F_15.jpg,C_M_05.jpg,left,797.2999999765307,true,high,false
8QYYcjS0,3y3czjszan6hsnojzw5z9ps3vnar5b,3r08vxyt7g83a7hidlz4jsa710x7wi,8QYYcjS0,2020-0188,2020-06-04,12:22:53,12:55:26,NA,incomplete,149,gender,3,1,left,A_M_11.jpg,C_M_01.jpg,A_F_16.jpg,left,785.3950000135228,true,high,false
8QYYcjS0,3y3czjszan6hsnojzw5z9ps3vnar5b,3r08vxyt7g83a7hidlz4jsa710x7wi,8QYYcjS0,2020-0188,2020-06-04,12:22:53,12:55:26,NA,incomplete,150,gender,3,0,left,C_F_13.jpg,A_F_10.jpg,C_M_06.jpg,left,745.3750000568107,true,high,false
8QYYcjS0,3y3czjszan6hsnojzw5z9ps3vnar5b,3r08vxyt7g83a7hidlz4jsa710x7wi,8QYYcjS0,2020-0188,2020-06-04,12:22:53,12:55:26,NA,incomplete,151,gender,3,1,right,C_M_06.jpg,C_F_05.jpg,A_M_16.jpg,right,845.6850000657141,true,high,false
8QYYcjS0,3y3czjszan6hsnojzw5z9ps3vnar5b,3r08vxyt7g83a7hidlz4jsa710x7wi,8QYYcjS0,2020-0188,2020-06-04,12:22:53,12:55:26,NA,incomplete,152,gender,3,1,left,A_M_07.jpg,C_M_01.jpg,A_F_09.jpg,left,1079.704999923706,true,high,false
8QYYcjS0,3y3czjszan6hsnojzw5z9ps3vnar5b,3r08vxyt7g83a7hidlz4jsa710x7wi,8QYYcjS0,2020-0188,2020-06-04,12:22:53,12:55:26,NA,incomplete,153,gender,3,1,left,A_F_13.jpg,C_F_09.jpg,A_M_02.jpg,right,1721.4000000385568,false,high,false
8QYYcjS0,3y3czjszan6hsnojzw5z9ps3vnar5b,3r08vxyt7g83a7hidlz4jsa710x7wi,8QYYcjS0,2020-0188,2020-06-04,12:22:53,12:55:26,NA,incomplete,154,gender,3,0,right,A_M_01.jpg,A_F_09.jpg,C_M_16.jpg,right,1239.7699999855831,true,high,false
8QYYcjS0,3y3czjszan6hsnojzw5z9ps3vnar5b,3r08vxyt7g83a7hidlz4jsa710x7wi,8QYYcjS0,2020-0188,2020-06-04,12:22:53,12:55:26,NA,incomplete,155,gender,3,1,left,A_M_13.jpg,C_M_15.jpg,A_F_12.jpg,left,926.1100000003353,true,high,false
8QYYcjS0,3y3czjszan6hsnojzw5z9ps3vnar5b,3r08vxyt7g83a7hidlz4jsa710x7wi,8QYYcjS0,2020-0188,2020-06-04,12:22:53,12:55:26,NA,incomplete,156,gender,3,0,right,A_M_13.jpg,A_F_16.jpg,C_M_07.jpg,right,821.5299999574199,true,high,false
8QYYcjS0,3y3czjszan6hsnojzw5z9ps3vnar5b,3r08vxyt7g83a7hidlz4jsa710x7wi,8QYYcjS0,2020-0188,2020-06-04,12:22:53,12:55:26,NA,incomplete,157,gender,3,1,left,C_F_01.jpg,A_F_15.jpg,C_M_05.jpg,left,1032.3849999113008,true,high,false
8QYYcjS0,3y3czjszan6hsnojzw5z9ps3vnar5b,3r08vxyt7g83a7hidlz4jsa710x7wi,8QYYcjS0,2020-0188,2020-06-04,12:22:53,12:55:26,NA,incomplete,158,gender,3,1,right,A_F_09.jpg,A_M_14.jpg,C_F_10.jpg,left,1287.3649999964982,false,high,false
8QYYcjS0,3y3czjszan6hsnojzw5z9ps3vnar5b,3r08vxyt7g83a7hidlz4jsa710x7wi,8QYYcjS0,2020-0188,2020-06-04,12:22:53,12:55:26,NA,incomplete,159,gender,3,0,left,A_F_13.jpg,C_F_16.jpg,A_M_02.jpg,left,1394.620000035502,true,high,false
8QYYcjS0,3y3czjszan6hsnojzw5z9ps3vnar5b,3r08vxyt7g83a7hidlz4jsa710x7wi,8QYYcjS0,2020-0188,2020-06-04,12:22:53,12:55:26,NA,incomplete,160,race,2,1,left,C_F_01.jpg,C_M_11.jpg,A_F_05.jpg,right,844.5449999999255,false,high,false
8QYYcjS0,3y3czjszan6hsnojzw5z9ps3vnar5b,3r08vxyt7g83a7hidlz4jsa710x7wi,8QYYcjS0,2020-0188,2020-06-04,12:22:53,12:55:26,NA,incomplete,161,race,2,1,right,C_F_11.jpg,A_F_01.jpg,C_M_13.jpg,right,1391.1450000014156,true,high,false
8QYYcjS0,3y3czjszan6hsnojzw5z9ps3vnar5b,3r08vxyt7g83a7hidlz4jsa710x7wi,8QYYcjS0,2020-0188,2020-06-04,12:22:53,12:55:26,NA,incomplete,162,race,2,0,left,A_F_02.jpg,A_M_08.jpg,C_F_07.jpg,left,1045.464999973774,true,high,false
8QYYcjS0,3y3czjszan6hsnojzw5z9ps3vnar5b,3r08vxyt7g83a7hidlz4jsa710x7wi,8QYYcjS0,2020-0188,2020-06-04,12:22:53,12:55:26,NA,incomplete,163,race,2,1,left,A_M_02.jpg,A_F_04.jpg,C_M_10.jpg,left,939.3549999222159,true,high,false
8QYYcjS0,3y3czjszan6hsnojzw5z9ps3vnar5b,3r08vxyt7g83a7hidlz4jsa710x7wi,8QYYcjS0,2020-0188,2020-06-04,12:22:53,12:55:26,NA,incomplete,164,race,2,1,left,A_F_08.jpg,A_M_05.jpg,C_F_06.jpg,left,905.2849999861792,true,high,false
8QYYcjS0,3y3czjszan6hsnojzw5z9ps3vnar5b,3r08vxyt7g83a7hidlz4jsa710x7wi,8QYYcjS0,2020-0188,2020-06-04,12:22:53,12:55:26,NA,incomplete,165,race,2,0,left,C_F_15.jpg,C_M_08.jpg,A_F_11.jpg,left,1344.9649999383837,true,high,false
8QYYcjS0,3y3czjszan6hsnojzw5z9ps3vnar5b,3r08vxyt7g83a7hidlz4jsa710x7wi,8QYYcjS0,2020-0188,2020-06-04,12:22:53,12:55:26,NA,incomplete,166,race,2,1,left,A_F_04.jpg,A_M_10.jpg,C_F_01.jpg,left,1114.8849999299273,true,high,false
8QYYcjS0,3y3czjszan6hsnojzw5z9ps3vnar5b,3r08vxyt7g83a7hidlz4jsa710x7wi,8QYYcjS0,2020-0188,2020-06-04,12:22:53,12:55:26,NA,incomplete,167,race,2,1,right,A_M_05.jpg,C_M_15.jpg,A_F_02.jpg,right,788.93500007689,true,high,false
8QYYcjS0,3y3czjszan6hsnojzw5z9ps3vnar5b,3r08vxyt7g83a7hidlz4jsa710x7wi,8QYYcjS0,2020-0188,2020-06-04,12:22:53,12:55:26,NA,incomplete,168,race,2,1,right,A_M_02.jpg,C_M_15.jpg,A_F_01.jpg,right,729.0999999968335,true,high,false
8QYYcjS0,3y3czjszan6hsnojzw5z9ps3vnar5b,3r08vxyt7g83a7hidlz4jsa710x7wi,8QYYcjS0,2020-0188,2020-06-04,12:22:53,12:55:26,NA,incomplete,169,race,2,1,left,A_F_15.jpg,A_M_09.jpg,C_F_06.jpg,left,840.4099999461323,true,high,false
8QYYcjS0,3y3czjszan6hsnojzw5z9ps3vnar5b,3r08vxyt7g83a7hidlz4jsa710x7wi,8QYYcjS0,2020-0188,2020-06-04,12:22:53,12:55:26,NA,incomplete,170,race,2,1,left,A_M_15.jpg,A_F_09.jpg,C_M_06.jpg,left,994.925000006333,true,high,false
8QYYcjS0,3y3czjszan6hsnojzw5z9ps3vnar5b,3r08vxyt7g83a7hidlz4jsa710x7wi,8QYYcjS0,2020-0188,2020-06-04,12:22:53,12:55:26,NA,incomplete,171,race,2,1,right,A_M_12.jpg,C_M_04.jpg,A_F_08.jpg,right,729.8449999652803,true,high,false
8QYYcjS0,3y3czjszan6hsnojzw5z9ps3vnar5b,3r08vxyt7g83a7hidlz4jsa710x7wi,8QYYcjS0,2020-0188,2020-06-04,12:22:53,12:55:26,NA,incomplete,172,race,2,1,left,A_F_05.jpg,A_M_04.jpg,C_F_03.jpg,left,950.5649999482557,true,high,false
8QYYcjS0,3y3czjszan6hsnojzw5z9ps3vnar5b,3r08vxyt7g83a7hidlz4jsa710x7wi,8QYYcjS0,2020-0188,2020-06-04,12:22:53,12:55:26,NA,incomplete,173,race,2,1,right,A_F_13.jpg,C_F_05.jpg,A_M_07.jpg,right,612.5499999616295,true,high,false
8QYYcjS0,3y3czjszan6hsnojzw5z9ps3vnar5b,3r08vxyt7g83a7hidlz4jsa710x7wi,8QYYcjS0,2020-0188,2020-06-04,12:22:53,12:55:26,NA,incomplete,174,race,2,0,right,C_M_07.jpg,A_M_05.jpg,C_F_03.jpg,right,1425.1149999909103,true,high,false
8QYYcjS0,3y3czjszan6hsnojzw5z9ps3vnar5b,3r08vxyt7g83a7hidlz4jsa710x7wi,8QYYcjS0,2020-0188,2020-06-04,12:22:53,12:55:26,NA,incomplete,175,race,2,1,left,A_M_05.jpg,A_F_02.jpg,C_M_15.jpg,left,794.2299999995157,true,high,false
8QYYcjS0,3y3czjszan6hsnojzw5z9ps3vnar5b,3r08vxyt7g83a7hidlz4jsa710x7wi,8QYYcjS0,2020-0188,2020-06-04,12:22:53,12:55:26,NA,incomplete,176,race,2,1,right,A_M_05.jpg,C_M_03.jpg,A_F_10.jpg,right,812.4100000131875,true,high,false
8QYYcjS0,3y3czjszan6hsnojzw5z9ps3vnar5b,3r08vxyt7g83a7hidlz4jsa710x7wi,8QYYcjS0,2020-0188,2020-06-04,12:22:53,12:55:26,NA,incomplete,177,race,2,0,left,A_M_05.jpg,A_F_12.jpg,C_M_15.jpg,left,730.7150000706315,true,high,false
8QYYcjS0,3y3czjszan6hsnojzw5z9ps3vnar5b,3r08vxyt7g83a7hidlz4jsa710x7wi,8QYYcjS0,2020-0188,2020-06-04,12:22:53,12:55:26,NA,incomplete,178,race,2,1,left,A_F_16.jpg,A_M_13.jpg,C_F_10.jpg,left,1106.4049999695271,true,high,false
8QYYcjS0,3y3czjszan6hsnojzw5z9ps3vnar5b,3r08vxyt7g83a7hidlz4jsa710x7wi,8QYYcjS0,2020-0188,2020-06-04,12:22:53,12:55:26,NA,incomplete,179,race,2,1,left,C_F_07.jpg,C_M_15.jpg,A_F_06.jpg,left,1113.9299999922514,true,high,false
8QYYcjS0,3y3czjszan6hsnojzw5z9ps3vnar5b,3r08vxyt7g83a7hidlz4jsa710x7wi,8QYYcjS0,2020-0188,2020-06-04,12:22:53,12:55:26,NA,incomplete,180,gender,3,1,left,C_M_11.jpg,A_M_06.jpg,C_F_05.jpg,right,1282.8900000313297,false,high,false
8QYYcjS0,3y3czjszan6hsnojzw5z9ps3vnar5b,3r08vxyt7g83a7hidlz4jsa710x7wi,8QYYcjS0,2020-0188,2020-06-04,12:22:53,12:55:26,NA,incomplete,181,gender,3,1,left,A_M_06.jpg,C_M_11.jpg,A_F_02.jpg,right,847.4200000055134,false,high,false
8QYYcjS0,3y3czjszan6hsnojzw5z9ps3vnar5b,3r08vxyt7g83a7hidlz4jsa710x7wi,8QYYcjS0,2020-0188,2020-06-04,12:22:53,12:55:26,NA,incomplete,182,gender,3,1,left,A_M_15.jpg,C_M_09.jpg,A_F_07.jpg,right,809.7149999812245,false,high,false
8QYYcjS0,3y3czjszan6hsnojzw5z9ps3vnar5b,3r08vxyt7g83a7hidlz4jsa710x7wi,8QYYcjS0,2020-0188,2020-06-04,12:22:53,12:55:26,NA,incomplete,183,gender,3,0,right,A_M_10.jpg,A_F_12.jpg,C_M_05.jpg,right,1454.035000060685,true,high,false
8QYYcjS0,3y3czjszan6hsnojzw5z9ps3vnar5b,3r08vxyt7g83a7hidlz4jsa710x7wi,8QYYcjS0,2020-0188,2020-06-04,12:22:53,12:55:26,NA,incomplete,184,gender,3,1,right,C_F_16.jpg,C_M_11.jpg,A_F_05.jpg,right,886.3100000889972,true,high,false
8QYYcjS0,3y3czjszan6hsnojzw5z9ps3vnar5b,3r08vxyt7g83a7hidlz4jsa710x7wi,8QYYcjS0,2020-0188,2020-06-04,12:22:53,12:55:26,NA,incomplete,185,gender,3,1,left,C_M_10.jpg,A_M_02.jpg,C_F_11.jpg,left,1194.0750000067055,true,high,false
8QYYcjS0,3y3czjszan6hsnojzw5z9ps3vnar5b,3r08vxyt7g83a7hidlz4jsa710x7wi,8QYYcjS0,2020-0188,2020-06-04,12:22:53,12:55:26,NA,incomplete,186,gender,3,0,left,A_F_11.jpg,C_F_05.jpg,A_M_08.jpg,left,1114.5000000251457,true,high,false
8QYYcjS0,3y3czjszan6hsnojzw5z9ps3vnar5b,3r08vxyt7g83a7hidlz4jsa710x7wi,8QYYcjS0,2020-0188,2020-06-04,12:22:53,12:55:26,NA,incomplete,187,gender,3,1,left,A_F_15.jpg,C_F_02.jpg,A_M_06.jpg,left,881.5150000154972,true,high,false
8QYYcjS0,3y3czjszan6hsnojzw5z9ps3vnar5b,3r08vxyt7g83a7hidlz4jsa710x7wi,8QYYcjS0,2020-0188,2020-06-04,12:22:53,12:55:26,NA,incomplete,188,gender,3,1,left,A_M_09.jpg,C_M_06.jpg,A_F_01.jpg,left,801.3400000054389,true,high,false
8QYYcjS0,3y3czjszan6hsnojzw5z9ps3vnar5b,3r08vxyt7g83a7hidlz4jsa710x7wi,8QYYcjS0,2020-0188,2020-06-04,12:22:53,12:55:26,NA,incomplete,189,gender,3,1,left,A_F_06.jpg,C_F_04.jpg,A_M_10.jpg,left,1102.6049999054521,true,high,false
8QYYcjS0,3y3czjszan6hsnojzw5z9ps3vnar5b,3r08vxyt7g83a7hidlz4jsa710x7wi,8QYYcjS0,2020-0188,2020-06-04,12:22:53,12:55:26,NA,incomplete,190,gender,3,1,left,C_M_01.jpg,A_M_13.jpg,C_F_11.jpg,left,953.0700000468642,true,high,false
8QYYcjS0,3y3czjszan6hsnojzw5z9ps3vnar5b,3r08vxyt7g83a7hidlz4jsa710x7wi,8QYYcjS0,2020-0188,2020-06-04,12:22:53,12:55:26,NA,incomplete,191,gender,3,0,right,A_F_13.jpg,A_M_09.jpg,C_F_14.jpg,right,924.5900000678375,true,high,false
8QYYcjS0,3y3czjszan6hsnojzw5z9ps3vnar5b,3r08vxyt7g83a7hidlz4jsa710x7wi,8QYYcjS0,2020-0188,2020-06-04,12:22:53,12:55:26,NA,incomplete,192,gender,3,1,left,A_M_09.jpg,C_M_14.jpg,A_F_11.jpg,left,1315.8800000092015,true,high,false
8QYYcjS0,3y3czjszan6hsnojzw5z9ps3vnar5b,3r08vxyt7g83a7hidlz4jsa710x7wi,8QYYcjS0,2020-0188,2020-06-04,12:22:53,12:55:26,NA,incomplete,193,gender,3,1,left,A_F_09.jpg,C_F_04.jpg,A_M_15.jpg,left,937.7600000007078,true,high,false
8QYYcjS0,3y3czjszan6hsnojzw5z9ps3vnar5b,3r08vxyt7g83a7hidlz4jsa710x7wi,8QYYcjS0,2020-0188,2020-06-04,12:22:53,12:55:26,NA,incomplete,194,gender,3,0,right,C_F_10.jpg,C_M_16.jpg,A_F_02.jpg,right,743.0249999742955,true,high,false
8QYYcjS0,3y3czjszan6hsnojzw5z9ps3vnar5b,3r08vxyt7g83a7hidlz4jsa710x7wi,8QYYcjS0,2020-0188,2020-06-04,12:22:53,12:55:26,NA,incomplete,195,gender,3,1,right,C_F_10.jpg,C_M_14.jpg,A_F_04.jpg,right,872.9000000748783,true,high,false
8QYYcjS0,3y3czjszan6hsnojzw5z9ps3vnar5b,3r08vxyt7g83a7hidlz4jsa710x7wi,8QYYcjS0,2020-0188,2020-06-04,12:22:53,12:55:26,NA,incomplete,196,gender,3,1,right,C_M_04.jpg,C_F_01.jpg,A_M_16.jpg,right,799.349999986589,true,high,false
8QYYcjS0,3y3czjszan6hsnojzw5z9ps3vnar5b,3r08vxyt7g83a7hidlz4jsa710x7wi,8QYYcjS0,2020-0188,2020-06-04,12:22:53,12:55:26,NA,incomplete,197,gender,3,1,left,A_F_09.jpg,C_F_07.jpg,A_M_13.jpg,left,708.2299999892712,true,high,false
8QYYcjS0,3y3czjszan6hsnojzw5z9ps3vnar5b,3r08vxyt7g83a7hidlz4jsa710x7wi,8QYYcjS0,2020-0188,2020-06-04,12:22:53,12:55:26,NA,incomplete,198,gender,3,1,right,C_M_14.jpg,C_F_16.jpg,A_M_06.jpg,right,780.0649999408051,true,high,false
8QYYcjS0,3y3czjszan6hsnojzw5z9ps3vnar5b,3r08vxyt7g83a7hidlz4jsa710x7wi,8QYYcjS0,2020-0188,2020-06-04,12:22:53,12:55:26,NA,incomplete,199,gender,3,1,right,A_M_14.jpg,A_F_15.jpg,C_M_01.jpg,right,689.6249999990687,true,high,false
8QYYcjS0,3y3czjszan6hsnojzw5z9ps3vnar5b,3r08vxyt7g83a7hidlz4jsa710x7wi,8QYYcjS0,2020-0188,2020-06-04,12:22:53,12:55:26,NA,incomplete,200,race,2,1,right,C_M_08.jpg,A_M_04.jpg,C_F_01.jpg,left,813.010000041686,false,high,false
8QYYcjS0,3y3czjszan6hsnojzw5z9ps3vnar5b,3r08vxyt7g83a7hidlz4jsa710x7wi,8QYYcjS0,2020-0188,2020-06-04,12:22:53,12:55:26,NA,incomplete,201,race,2,1,right,C_M_05.jpg,A_M_13.jpg,C_F_07.jpg,left,718.3850000146776,false,high,false
8QYYcjS0,3y3czjszan6hsnojzw5z9ps3vnar5b,3r08vxyt7g83a7hidlz4jsa710x7wi,8QYYcjS0,2020-0188,2020-06-04,12:22:53,12:55:26,NA,incomplete,202,race,2,1,left,A_F_06.jpg,A_M_02.jpg,C_F_01.jpg,left,782.5900000752881,true,high,false
8QYYcjS0,3y3czjszan6hsnojzw5z9ps3vnar5b,3r08vxyt7g83a7hidlz4jsa710x7wi,8QYYcjS0,2020-0188,2020-06-04,12:22:53,12:55:26,NA,incomplete,203,race,2,0,right,A_M_10.jpg,C_M_14.jpg,A_F_16.jpg,right,707.9199999570847,true,high,false
8QYYcjS0,3y3czjszan6hsnojzw5z9ps3vnar5b,3r08vxyt7g83a7hidlz4jsa710x7wi,8QYYcjS0,2020-0188,2020-06-04,12:22:53,12:55:26,NA,incomplete,204,race,2,1,right,C_M_02.jpg,A_M_16.jpg,C_F_01.jpg,left,852.1099999779835,false,high,false
8QYYcjS0,3y3czjszan6hsnojzw5z9ps3vnar5b,3r08vxyt7g83a7hidlz4jsa710x7wi,8QYYcjS0,2020-0188,2020-06-04,12:22:53,12:55:26,NA,incomplete,205,race,2,1,left,A_M_03.jpg,A_F_12.jpg,C_M_09.jpg,left,713.5450000641868,true,high,false
8QYYcjS0,3y3czjszan6hsnojzw5z9ps3vnar5b,3r08vxyt7g83a7hidlz4jsa710x7wi,8QYYcjS0,2020-0188,2020-06-04,12:22:53,12:55:26,NA,incomplete,206,race,2,1,right,A_M_08.jpg,C_M_10.jpg,A_F_15.jpg,right,838.9749999623746,true,high,false
8QYYcjS0,3y3czjszan6hsnojzw5z9ps3vnar5b,3r08vxyt7g83a7hidlz4jsa710x7wi,8QYYcjS0,2020-0188,2020-06-04,12:22:53,12:55:26,NA,incomplete,207,race,2,1,left,A_F_13.jpg,A_M_04.jpg,C_F_09.jpg,left,841.2050000624731,true,high,false
8QYYcjS0,3y3czjszan6hsnojzw5z9ps3vnar5b,3r08vxyt7g83a7hidlz4jsa710x7wi,8QYYcjS0,2020-0188,2020-06-04,12:22:53,12:55:26,NA,incomplete,208,race,2,1,left,A_M_01.jpg,A_F_08.jpg,C_M_09.jpg,left,715.6849999446422,true,high,false
8QYYcjS0,3y3czjszan6hsnojzw5z9ps3vnar5b,3r08vxyt7g83a7hidlz4jsa710x7wi,8QYYcjS0,2020-0188,2020-06-04,12:22:53,12:55:26,NA,incomplete,209,race,2,0,left,A_F_12.jpg,A_M_14.jpg,C_F_05.jpg,left,867.919999989681,true,high,false
8QYYcjS0,3y3czjszan6hsnojzw5z9ps3vnar5b,3r08vxyt7g83a7hidlz4jsa710x7wi,8QYYcjS0,2020-0188,2020-06-04,12:22:53,12:55:26,NA,incomplete,210,race,2,1,right,A_F_11.jpg,C_F_13.jpg,A_M_06.jpg,right,744.1000000108033,true,high,false
8QYYcjS0,3y3czjszan6hsnojzw5z9ps3vnar5b,3r08vxyt7g83a7hidlz4jsa710x7wi,8QYYcjS0,2020-0188,2020-06-04,12:22:53,12:55:26,NA,incomplete,211,race,2,1,left,C_M_02.jpg,C_F_08.jpg,A_M_12.jpg,right,779.949999996461,false,high,false
8QYYcjS0,3y3czjszan6hsnojzw5z9ps3vnar5b,3r08vxyt7g83a7hidlz4jsa710x7wi,8QYYcjS0,2020-0188,2020-06-04,12:22:53,12:55:26,NA,incomplete,212,race,2,1,right,C_M_06.jpg,A_M_04.jpg,C_F_01.jpg,right,842.1200000448152,true,high,false
8QYYcjS0,3y3czjszan6hsnojzw5z9ps3vnar5b,3r08vxyt7g83a7hidlz4jsa710x7wi,8QYYcjS0,2020-0188,2020-06-04,12:22:53,12:55:26,NA,incomplete,213,race,2,1,right,A_F_04.jpg,C_F_01.jpg,A_M_15.jpg,right,892.3850000137463,true,high,false
8QYYcjS0,3y3czjszan6hsnojzw5z9ps3vnar5b,3r08vxyt7g83a7hidlz4jsa710x7wi,8QYYcjS0,2020-0188,2020-06-04,12:22:53,12:55:26,NA,incomplete,214,race,2,1,left,A_F_09.jpg,A_M_10.jpg,C_F_02.jpg,left,932.3200000217184,true,high,false
8QYYcjS0,3y3czjszan6hsnojzw5z9ps3vnar5b,3r08vxyt7g83a7hidlz4jsa710x7wi,8QYYcjS0,2020-0188,2020-06-04,12:22:53,12:55:26,NA,incomplete,215,race,2,1,left,C_M_13.jpg,C_F_16.jpg,A_M_01.jpg,left,829.5800000196323,true,high,false
8QYYcjS0,3y3czjszan6hsnojzw5z9ps3vnar5b,3r08vxyt7g83a7hidlz4jsa710x7wi,8QYYcjS0,2020-0188,2020-06-04,12:22:53,12:55:26,NA,incomplete,216,race,2,1,left,A_F_11.jpg,A_M_15.jpg,C_F_01.jpg,right,1238.9599999878556,false,high,false
8QYYcjS0,3y3czjszan6hsnojzw5z9ps3vnar5b,3r08vxyt7g83a7hidlz4jsa710x7wi,8QYYcjS0,2020-0188,2020-06-04,12:22:53,12:55:26,NA,incomplete,217,race,2,1,left,C_M_11.jpg,C_F_07.jpg,A_M_03.jpg,left,903.5399999702349,true,high,false
8QYYcjS0,3y3czjszan6hsnojzw5z9ps3vnar5b,3r08vxyt7g83a7hidlz4jsa710x7wi,8QYYcjS0,2020-0188,2020-06-04,12:22:53,12:55:26,NA,incomplete,218,race,2,1,right,A_F_16.jpg,C_F_06.jpg,A_M_02.jpg,right,671.9550000270829,true,high,false
8QYYcjS0,3y3czjszan6hsnojzw5z9ps3vnar5b,3r08vxyt7g83a7hidlz4jsa710x7wi,8QYYcjS0,2020-0188,2020-06-04,12:22:53,12:55:26,NA,incomplete,219,race,2,1,right,C_M_13.jpg,A_M_05.jpg,C_F_01.jpg,right,936.5950000938028,true,high,false
8QYYcjS0,3y3czjszan6hsnojzw5z9ps3vnar5b,3r08vxyt7g83a7hidlz4jsa710x7wi,8QYYcjS0,2020-0188,2020-06-04,12:22:53,12:55:26,NA,incomplete,220,gender,3,1,right,C_F_01.jpg,C_M_09.jpg,A_F_02.jpg,left,1330.100000021048,false,high,false
8QYYcjS0,3y3czjszan6hsnojzw5z9ps3vnar5b,3r08vxyt7g83a7hidlz4jsa710x7wi,8QYYcjS0,2020-0188,2020-06-04,12:22:53,12:55:26,NA,incomplete,221,gender,3,1,right,A_F_02.jpg,A_M_07.jpg,C_F_06.jpg,left,669.4049999350682,false,high,false
8QYYcjS0,3y3czjszan6hsnojzw5z9ps3vnar5b,3r08vxyt7g83a7hidlz4jsa710x7wi,8QYYcjS0,2020-0188,2020-06-04,12:22:53,12:55:26,NA,incomplete,222,gender,3,1,right,A_F_13.jpg,A_M_16.jpg,C_F_15.jpg,right,799.0799999097362,true,high,false
8QYYcjS0,3y3czjszan6hsnojzw5z9ps3vnar5b,3r08vxyt7g83a7hidlz4jsa710x7wi,8QYYcjS0,2020-0188,2020-06-04,12:22:53,12:55:26,NA,incomplete,223,gender,3,1,left,C_M_06.jpg,A_M_03.jpg,C_F_01.jpg,left,716.0400000866503,true,high,false
8QYYcjS0,3y3czjszan6hsnojzw5z9ps3vnar5b,3r08vxyt7g83a7hidlz4jsa710x7wi,8QYYcjS0,2020-0188,2020-06-04,12:22:53,12:55:26,NA,incomplete,224,gender,3,1,left,C_F_01.jpg,A_F_06.jpg,C_M_10.jpg,left,1044.3999998969957,true,high,false
8QYYcjS0,3y3czjszan6hsnojzw5z9ps3vnar5b,3r08vxyt7g83a7hidlz4jsa710x7wi,8QYYcjS0,2020-0188,2020-06-04,12:22:53,12:55:26,NA,incomplete,225,gender,3,1,right,A_M_03.jpg,A_F_01.jpg,C_M_08.jpg,right,760.6849999865517,true,high,false
8QYYcjS0,3y3czjszan6hsnojzw5z9ps3vnar5b,3r08vxyt7g83a7hidlz4jsa710x7wi,8QYYcjS0,2020-0188,2020-06-04,12:22:53,12:55:26,NA,incomplete,226,gender,3,1,right,C_M_07.jpg,C_F_05.jpg,A_M_06.jpg,right,715.9650000976399,true,high,false
8QYYcjS0,3y3czjszan6hsnojzw5z9ps3vnar5b,3r08vxyt7g83a7hidlz4jsa710x7wi,8QYYcjS0,2020-0188,2020-06-04,12:22:53,12:55:26,NA,incomplete,227,gender,3,1,left,C_F_15.jpg,A_F_12.jpg,C_M_01.jpg,left,836.6999999852851,true,high,false
8QYYcjS0,3y3czjszan6hsnojzw5z9ps3vnar5b,3r08vxyt7g83a7hidlz4jsa710x7wi,8QYYcjS0,2020-0188,2020-06-04,12:22:53,12:55:26,NA,incomplete,228,gender,3,1,left,A_M_01.jpg,C_M_11.jpg,A_F_15.jpg,left,752.2700000554323,true,high,false
8QYYcjS0,3y3czjszan6hsnojzw5z9ps3vnar5b,3r08vxyt7g83a7hidlz4jsa710x7wi,8QYYcjS0,2020-0188,2020-06-04,12:22:53,12:55:26,NA,incomplete,229,gender,3,1,right,C_M_09.jpg,C_F_12.jpg,A_M_02.jpg,right,718.2249999605119,true,high,false
8QYYcjS0,3y3czjszan6hsnojzw5z9ps3vnar5b,3r08vxyt7g83a7hidlz4jsa710x7wi,8QYYcjS0,2020-0188,2020-06-04,12:22:53,12:55:26,NA,incomplete,230,gender,3,1,right,A_F_10.jpg,A_M_05.jpg,C_F_15.jpg,right,808.9750000508502,true,high,false
8QYYcjS0,3y3czjszan6hsnojzw5z9ps3vnar5b,3r08vxyt7g83a7hidlz4jsa710x7wi,8QYYcjS0,2020-0188,2020-06-04,12:22:53,12:55:26,NA,incomplete,231,gender,3,1,left,C_M_02.jpg,A_M_10.jpg,C_F_11.jpg,left,682.5100000714883,true,high,false
8QYYcjS0,3y3czjszan6hsnojzw5z9ps3vnar5b,3r08vxyt7g83a7hidlz4jsa710x7wi,8QYYcjS0,2020-0188,2020-06-04,12:22:53,12:55:26,NA,incomplete,232,gender,3,1,left,C_F_07.jpg,A_F_02.jpg,C_M_03.jpg,left,708.0000001005828,true,high,false
8QYYcjS0,3y3czjszan6hsnojzw5z9ps3vnar5b,3r08vxyt7g83a7hidlz4jsa710x7wi,8QYYcjS0,2020-0188,2020-06-04,12:22:53,12:55:26,NA,incomplete,233,gender,3,0,right,A_F_07.jpg,A_M_10.jpg,C_F_03.jpg,right,940.2749999426305,true,high,false
8QYYcjS0,3y3czjszan6hsnojzw5z9ps3vnar5b,3r08vxyt7g83a7hidlz4jsa710x7wi,8QYYcjS0,2020-0188,2020-06-04,12:22:53,12:55:26,NA,incomplete,234,gender,3,1,right,C_M_14.jpg,C_F_16.jpg,A_M_12.jpg,right,914.2900001024827,true,high,false
8QYYcjS0,3y3czjszan6hsnojzw5z9ps3vnar5b,3r08vxyt7g83a7hidlz4jsa710x7wi,8QYYcjS0,2020-0188,2020-06-04,12:22:53,12:55:26,NA,incomplete,235,gender,3,0,left,C_M_15.jpg,A_M_07.jpg,C_F_06.jpg,left,780.8950000908226,true,high,false
8QYYcjS0,3y3czjszan6hsnojzw5z9ps3vnar5b,3r08vxyt7g83a7hidlz4jsa710x7wi,8QYYcjS0,2020-0188,2020-06-04,12:22:53,12:55:26,NA,incomplete,236,gender,3,1,left,C_M_16.jpg,A_M_09.jpg,C_F_05.jpg,left,775.1600000774488,true,high,false
8QYYcjS0,3y3czjszan6hsnojzw5z9ps3vnar5b,3r08vxyt7g83a7hidlz4jsa710x7wi,8QYYcjS0,2020-0188,2020-06-04,12:22:53,12:55:26,NA,incomplete,237,gender,3,1,left,C_F_14.jpg,A_F_04.jpg,C_M_16.jpg,left,748.5650000162423,true,high,false
8QYYcjS0,3y3czjszan6hsnojzw5z9ps3vnar5b,3r08vxyt7g83a7hidlz4jsa710x7wi,8QYYcjS0,2020-0188,2020-06-04,12:22:53,12:55:26,NA,incomplete,238,gender,3,1,right,A_M_11.jpg,A_F_02.jpg,C_M_08.jpg,right,987.5799999572337,true,high,false
8QYYcjS0,3y3czjszan6hsnojzw5z9ps3vnar5b,3r08vxyt7g83a7hidlz4jsa710x7wi,8QYYcjS0,2020-0188,2020-06-04,12:22:53,12:55:26,NA,incomplete,239,gender,3,1,left,A_M_15.jpg,C_M_03.jpg,A_F_08.jpg,left,807.8049999894574,true,high,false
8QYYcjS0,3y3czjszan6hsnojzw5z9ps3vnar5b,3r08vxyt7g83a7hidlz4jsa710x7wi,8QYYcjS0,2020-0188,2020-06-04,12:22:53,12:55:26,NA,NA,instruction example,number,NA,NA,NA,Green_Star_Chess_1.jpg,Red_Circle_Dots_1.jpg,Blue_Star_Grid_4.jpg,NA,NA,NA,NA,undefined
8QYYcjS0,3y3czjszan6hsnojzw5z9ps3vnar5b,3r08vxyt7g83a7hidlz4jsa710x7wi,8QYYcjS0,2020-0188,2020-06-04,12:22:53,12:55:26,NA,NA,instruction example,number,NA,NA,NA,Red_Circle_Grid_4.jpg,Green_Circle_Dots_1.jpg,Purple_Plus_Stripes_4.jpg,NA,NA,NA,NA,undefined
8QYYcjS0,3y3czjszan6hsnojzw5z9ps3vnar5b,3r08vxyt7g83a7hidlz4jsa710x7wi,8QYYcjS0,2020-0188,2020-06-04,12:22:53,12:55:26,NA,NA,instruction example,number,NA,NA,NA,A_F_09.jpg,A_M_02.jpg,C_F_01.jpg,NA,NA,NA,NA,undefined
8QYYcjS0,3y3czjszan6hsnojzw5z9ps3vnar5b,3r08vxyt7g83a7hidlz4jsa710x7wi,8QYYcjS0,2020-0188,2020-06-04,12:22:53,12:55:26,NA,NA,instruction example,number,NA,NA,NA,A_M_11.jpg,C_M_09.jpg,A_F_02.jpg,NA,NA,NA,NA,undefined
