workerId,hitId,assignmentId,subject,studyid,exp_date,exp_start,exp_end,time_start,time_end,trial,type,sequence,reward_validity,answer,image_top,image_left,image_right,response,response_time,response_acc,volatility,age,race,gender,ethnicity,color,vision,neuro,practice
48CMrE8d,3t5zxgo9eh1fn0t8t5nft3pt661qzj,3rrcefrb7qpe3h1ogw51t2ddwcfb44,48CMrE8d,2020-0188,2020-11-17,14:00:02,14:15:13,NA,incomplete,0,color,0,1,right,Red_Triangle_Dots_3.jpg,Green_Star_Chess_3.jpg,Red_Plus_Stripes_4.jpg,none,0,false,NA,NA,NA,NA,NA,NA,NA,NA,true
48CMrE8d,3t5zxgo9eh1fn0t8t5nft3pt661qzj,3rrcefrb7qpe3h1ogw51t2ddwcfb44,48CMrE8d,2020-0188,2020-11-17,14:00:02,14:15:13,NA,incomplete,1,color,0,0,right,Purple_Plus_Dots_3.jpg,Red_Triangle_Grid_3.jpg,Purple_Circle_Chess_4.jpg,right,889.3300000054296,true,NA,NA,NA,NA,NA,NA,NA,NA,true
48CMrE8d,3t5zxgo9eh1fn0t8t5nft3pt661qzj,3rrcefrb7qpe3h1ogw51t2ddwcfb44,48CMrE8d,2020-0188,2020-11-17,14:00:02,14:15:13,NA,incomplete,2,color,0,0,right,Green_Plus_Grid_3.jpg,Red_Circle_Chess_3.jpg,Green_Triangle_Dots_4.jpg,right,693.7549999856856,true,NA,NA,NA,NA,NA,NA,NA,NA,true
48CMrE8d,3t5zxgo9eh1fn0t8t5nft3pt661qzj,3rrcefrb7qpe3h1ogw51t2ddwcfb44,48CMrE8d,2020-0188,2020-11-17,14:00:02,14:15:13,NA,incomplete,3,color,0,1,left,Purple_Triangle_Dots_4.jpg,Purple_Circle_Stripes_3.jpg,Green_Star_Grid_4.jpg,left,707.7899999858346,true,NA,NA,NA,NA,NA,NA,NA,NA,true
48CMrE8d,3t5zxgo9eh1fn0t8t5nft3pt661qzj,3rrcefrb7qpe3h1ogw51t2ddwcfb44,48CMrE8d,2020-0188,2020-11-17,14:00:02,14:15:13,NA,incomplete,4,color,0,1,left,Blue_Plus_Stripes_4.jpg,Blue_Star_Chess_2.jpg,Green_Triangle_Grid_4.jpg,left,635.7800000114366,true,NA,NA,NA,NA,NA,NA,NA,NA,true
48CMrE8d,3t5zxgo9eh1fn0t8t5nft3pt661qzj,3rrcefrb7qpe3h1ogw51t2ddwcfb44,48CMrE8d,2020-0188,2020-11-17,14:00:02,14:15:13,NA,incomplete,5,color,0,1,left,Blue_Plus_Dots_3.jpg,Blue_Triangle_Chess_4.jpg,Green_Circle_Grid_3.jpg,left,532.2199999936856,true,NA,NA,NA,NA,NA,NA,NA,NA,true
48CMrE8d,3t5zxgo9eh1fn0t8t5nft3pt661qzj,3rrcefrb7qpe3h1ogw51t2ddwcfb44,48CMrE8d,2020-0188,2020-11-17,14:00:02,14:15:13,NA,incomplete,6,color,0,1,right,Red_Star_Stripes_2.jpg,Green_Circle_Dots_2.jpg,Red_Triangle_Chess_4.jpg,right,534.5199999865144,true,NA,NA,NA,NA,NA,NA,NA,NA,true
48CMrE8d,3t5zxgo9eh1fn0t8t5nft3pt661qzj,3rrcefrb7qpe3h1ogw51t2ddwcfb44,48CMrE8d,2020-0188,2020-11-17,14:00:02,14:15:13,NA,incomplete,7,color,0,1,left,Green_Triangle_Dots_3.jpg,Green_Plus_Stripes_4.jpg,Purple_Star_Grid_3.jpg,left,679.6099999919534,true,NA,NA,NA,NA,NA,NA,NA,NA,true
48CMrE8d,3t5zxgo9eh1fn0t8t5nft3pt661qzj,3rrcefrb7qpe3h1ogw51t2ddwcfb44,48CMrE8d,2020-0188,2020-11-17,14:00:02,14:15:13,NA,incomplete,8,color,0,1,right,Red_Circle_Dots_2.jpg,Green_Star_Chess_2.jpg,Red_Triangle_Grid_4.jpg,right,581.1699999903794,true,NA,NA,NA,NA,NA,NA,NA,NA,true
48CMrE8d,3t5zxgo9eh1fn0t8t5nft3pt661qzj,3rrcefrb7qpe3h1ogw51t2ddwcfb44,48CMrE8d,2020-0188,2020-11-17,14:00:02,14:15:13,NA,incomplete,9,color,0,1,right,Blue_Circle_Stripes_1.jpg,Purple_Triangle_Dots_1.jpg,Blue_Plus_Grid_3.jpg,right,553.8550000055693,true,NA,NA,NA,NA,NA,NA,NA,NA,true
48CMrE8d,3t5zxgo9eh1fn0t8t5nft3pt661qzj,3rrcefrb7qpe3h1ogw51t2ddwcfb44,48CMrE8d,2020-0188,2020-11-17,14:00:02,14:15:13,NA,incomplete,10,color,0,1,right,Blue_Plus_Dots_1.jpg,Red_Triangle_Chess_1.jpg,Blue_Circle_Grid_4.jpg,right,441.7350000003353,true,NA,NA,NA,NA,NA,NA,NA,NA,true
48CMrE8d,3t5zxgo9eh1fn0t8t5nft3pt661qzj,3rrcefrb7qpe3h1ogw51t2ddwcfb44,48CMrE8d,2020-0188,2020-11-17,14:00:02,14:15:13,NA,incomplete,11,color,0,1,left,Red_Star_Stripes_2.jpg,Red_Plus_Dots_4.jpg,Purple_Circle_Chess_2.jpg,left,528.8950000249315,true,NA,NA,NA,NA,NA,NA,NA,NA,true
48CMrE8d,3t5zxgo9eh1fn0t8t5nft3pt661qzj,3rrcefrb7qpe3h1ogw51t2ddwcfb44,48CMrE8d,2020-0188,2020-11-17,14:00:02,14:15:13,NA,incomplete,12,color,0,1,right,Blue_Star_Stripes_4.jpg,Red_Circle_Dots_4.jpg,Blue_Plus_Grid_2.jpg,right,599.015000014333,true,NA,NA,NA,NA,NA,NA,NA,NA,true
48CMrE8d,3t5zxgo9eh1fn0t8t5nft3pt661qzj,3rrcefrb7qpe3h1ogw51t2ddwcfb44,48CMrE8d,2020-0188,2020-11-17,14:00:02,14:15:13,NA,incomplete,13,color,0,0,right,Red_Plus_Chess_2.jpg,Purple_Star_Stripes_2.jpg,Red_Circle_Grid_1.jpg,left,824.5199999946635,false,NA,NA,NA,NA,NA,NA,NA,NA,true
48CMrE8d,3t5zxgo9eh1fn0t8t5nft3pt661qzj,3rrcefrb7qpe3h1ogw51t2ddwcfb44,48CMrE8d,2020-0188,2020-11-17,14:00:02,14:15:13,NA,incomplete,14,color,0,1,left,Red_Star_Stripes_2.jpg,Red_Triangle_Dots_4.jpg,Purple_Circle_Grid_2.jpg,left,625.5100000125822,true,NA,NA,NA,NA,NA,NA,NA,NA,true
48CMrE8d,3t5zxgo9eh1fn0t8t5nft3pt661qzj,3rrcefrb7qpe3h1ogw51t2ddwcfb44,48CMrE8d,2020-0188,2020-11-17,14:00:02,14:15:13,NA,incomplete,15,color,0,1,right,Blue_Plus_Stripes_1.jpg,Purple_Circle_Dots_1.jpg,Blue_Triangle_Chess_3.jpg,right,568.314999982249,true,NA,NA,NA,NA,NA,NA,NA,NA,true
48CMrE8d,3t5zxgo9eh1fn0t8t5nft3pt661qzj,3rrcefrb7qpe3h1ogw51t2ddwcfb44,48CMrE8d,2020-0188,2020-11-17,14:00:02,14:15:13,NA,incomplete,16,color,0,1,right,Green_Circle_Stripes_1.jpg,Red_Star_Dots_1.jpg,Green_Triangle_Grid_2.jpg,right,610.8799999929033,true,NA,NA,NA,NA,NA,NA,NA,NA,true
48CMrE8d,3t5zxgo9eh1fn0t8t5nft3pt661qzj,3rrcefrb7qpe3h1ogw51t2ddwcfb44,48CMrE8d,2020-0188,2020-11-17,14:00:02,14:15:13,NA,incomplete,17,color,0,0,right,Green_Star_Chess_2.jpg,Blue_Triangle_Dots_2.jpg,Green_Circle_Grid_4.jpg,right,499.2099999799393,true,NA,NA,NA,NA,NA,NA,NA,NA,true
48CMrE8d,3t5zxgo9eh1fn0t8t5nft3pt661qzj,3rrcefrb7qpe3h1ogw51t2ddwcfb44,48CMrE8d,2020-0188,2020-11-17,14:00:02,14:15:13,NA,incomplete,18,color,0,1,left,Green_Circle_Grid_2.jpg,Green_Triangle_Stripes_3.jpg,Purple_Star_Chess_2.jpg,left,613.374999986263,true,NA,NA,NA,NA,NA,NA,NA,NA,true
48CMrE8d,3t5zxgo9eh1fn0t8t5nft3pt661qzj,3rrcefrb7qpe3h1ogw51t2ddwcfb44,48CMrE8d,2020-0188,2020-11-17,14:00:02,14:15:13,NA,incomplete,19,color,0,0,left,Purple_Circle_Dots_3.jpg,Purple_Plus_Chess_1.jpg,Red_Star_Stripes_3.jpg,right,943.7200000102166,false,NA,NA,NA,NA,NA,NA,NA,NA,true
48CMrE8d,3t5zxgo9eh1fn0t8t5nft3pt661qzj,3rrcefrb7qpe3h1ogw51t2ddwcfb44,48CMrE8d,2020-0188,2020-11-17,14:00:02,14:15:13,NA,incomplete,20,number,1,1,right,Blue_Circle_Stripes_1.jpg,Blue_Star_Dots_2.jpg,Red_Triangle_Grid_1.jpg,right,1218.1500000006054,true,NA,NA,NA,NA,NA,NA,NA,NA,true
48CMrE8d,3t5zxgo9eh1fn0t8t5nft3pt661qzj,3rrcefrb7qpe3h1ogw51t2ddwcfb44,48CMrE8d,2020-0188,2020-11-17,14:00:02,14:15:13,NA,incomplete,21,number,1,1,right,Purple_Plus_Dots_4.jpg,Purple_Circle_Stripes_3.jpg,Blue_Star_Grid_4.jpg,right,970.8249999966938,true,NA,NA,NA,NA,NA,NA,NA,NA,true
48CMrE8d,3t5zxgo9eh1fn0t8t5nft3pt661qzj,3rrcefrb7qpe3h1ogw51t2ddwcfb44,48CMrE8d,2020-0188,2020-11-17,14:00:02,14:15:13,NA,incomplete,22,number,1,1,left,Purple_Plus_Stripes_3.jpg,Red_Circle_Chess_3.jpg,Purple_Star_Dots_1.jpg,left,781.955000013113,true,NA,NA,NA,NA,NA,NA,NA,NA,true
48CMrE8d,3t5zxgo9eh1fn0t8t5nft3pt661qzj,3rrcefrb7qpe3h1ogw51t2ddwcfb44,48CMrE8d,2020-0188,2020-11-17,14:00:02,14:15:13,NA,incomplete,23,number,1,1,right,Green_Circle_Grid_1.jpg,Green_Star_Chess_2.jpg,Red_Plus_Stripes_1.jpg,right,873.1799999950454,true,NA,NA,NA,NA,NA,NA,NA,NA,true
48CMrE8d,3t5zxgo9eh1fn0t8t5nft3pt661qzj,3rrcefrb7qpe3h1ogw51t2ddwcfb44,48CMrE8d,2020-0188,2020-11-17,14:00:02,14:15:13,NA,incomplete,24,number,1,1,left,Blue_Star_Stripes_2.jpg,Red_Triangle_Grid_2.jpg,Blue_Plus_Chess_4.jpg,right,995.1650000002701,false,NA,NA,NA,NA,NA,NA,NA,NA,true
48CMrE8d,3t5zxgo9eh1fn0t8t5nft3pt661qzj,3rrcefrb7qpe3h1ogw51t2ddwcfb44,48CMrE8d,2020-0188,2020-11-17,14:00:02,14:15:13,NA,incomplete,25,number,1,0,right,Purple_Triangle_Chess_4.jpg,Purple_Star_Stripes_3.jpg,Green_Plus_Grid_4.jpg,right,1069.710000010673,true,NA,NA,NA,NA,NA,NA,NA,NA,true
48CMrE8d,3t5zxgo9eh1fn0t8t5nft3pt661qzj,3rrcefrb7qpe3h1ogw51t2ddwcfb44,48CMrE8d,2020-0188,2020-11-17,14:00:02,14:15:13,NA,incomplete,26,number,1,1,right,Green_Triangle_Chess_4.jpg,Green_Plus_Stripes_3.jpg,Red_Circle_Dots_4.jpg,right,931.4899999881163,true,NA,NA,NA,NA,NA,NA,NA,NA,true
48CMrE8d,3t5zxgo9eh1fn0t8t5nft3pt661qzj,3rrcefrb7qpe3h1ogw51t2ddwcfb44,48CMrE8d,2020-0188,2020-11-17,14:00:02,14:15:13,NA,incomplete,27,number,1,0,left,Purple_Star_Dots_3.jpg,Blue_Circle_Chess_3.jpg,Purple_Triangle_Stripes_4.jpg,left,973.3899999991991,true,NA,NA,NA,NA,NA,NA,NA,NA,true
48CMrE8d,3t5zxgo9eh1fn0t8t5nft3pt661qzj,3rrcefrb7qpe3h1ogw51t2ddwcfb44,48CMrE8d,2020-0188,2020-11-17,14:00:02,14:15:13,NA,incomplete,28,number,1,1,right,Purple_Circle_Dots_2.jpg,Purple_Star_Stripes_3.jpg,Red_Triangle_Chess_2.jpg,right,874.2500000225846,true,NA,NA,NA,NA,NA,NA,NA,NA,true
48CMrE8d,3t5zxgo9eh1fn0t8t5nft3pt661qzj,3rrcefrb7qpe3h1ogw51t2ddwcfb44,48CMrE8d,2020-0188,2020-11-17,14:00:02,14:15:13,NA,incomplete,29,number,1,1,right,Red_Circle_Chess_3.jpg,Red_Triangle_Grid_1.jpg,Purple_Star_Stripes_3.jpg,right,1006.3949999748729,true,NA,NA,NA,NA,NA,NA,NA,NA,true
48CMrE8d,3t5zxgo9eh1fn0t8t5nft3pt661qzj,3rrcefrb7qpe3h1ogw51t2ddwcfb44,48CMrE8d,2020-0188,2020-11-17,14:00:02,14:15:13,NA,incomplete,30,number,1,1,left,Purple_Plus_Stripes_4.jpg,Blue_Triangle_Chess_4.jpg,Purple_Circle_Grid_2.jpg,left,784.4200000108685,true,NA,NA,NA,NA,NA,NA,NA,NA,true
48CMrE8d,3t5zxgo9eh1fn0t8t5nft3pt661qzj,3rrcefrb7qpe3h1ogw51t2ddwcfb44,48CMrE8d,2020-0188,2020-11-17,14:00:02,14:15:13,NA,incomplete,31,number,1,1,right,Green_Triangle_Grid_1.jpg,Green_Star_Stripes_2.jpg,Purple_Circle_Dots_1.jpg,right,955.2050000056624,true,NA,NA,NA,NA,NA,NA,NA,NA,true
48CMrE8d,3t5zxgo9eh1fn0t8t5nft3pt661qzj,3rrcefrb7qpe3h1ogw51t2ddwcfb44,48CMrE8d,2020-0188,2020-11-17,14:00:02,14:15:13,NA,incomplete,32,number,1,1,left,Blue_Star_Chess_3.jpg,Red_Plus_Dots_3.jpg,Blue_Triangle_Grid_2.jpg,left,956.4200000022538,true,NA,NA,NA,NA,NA,NA,NA,NA,true
48CMrE8d,3t5zxgo9eh1fn0t8t5nft3pt661qzj,3rrcefrb7qpe3h1ogw51t2ddwcfb44,48CMrE8d,2020-0188,2020-11-17,14:00:02,14:15:13,NA,incomplete,33,number,1,1,right,Purple_Plus_Dots_4.jpg,Purple_Star_Grid_1.jpg,Green_Triangle_Chess_4.jpg,right,803.1600000103936,true,NA,NA,NA,NA,NA,NA,NA,NA,true
48CMrE8d,3t5zxgo9eh1fn0t8t5nft3pt661qzj,3rrcefrb7qpe3h1ogw51t2ddwcfb44,48CMrE8d,2020-0188,2020-11-17,14:00:02,14:15:13,NA,incomplete,34,number,1,1,left,Green_Plus_Dots_1.jpg,Purple_Star_Grid_1.jpg,Green_Circle_Stripes_3.jpg,left,761.8850000144448,true,NA,NA,NA,NA,NA,NA,NA,NA,true
48CMrE8d,3t5zxgo9eh1fn0t8t5nft3pt661qzj,3rrcefrb7qpe3h1ogw51t2ddwcfb44,48CMrE8d,2020-0188,2020-11-17,14:00:02,14:15:13,NA,incomplete,35,number,1,1,right,Red_Circle_Dots_1.jpg,Red_Triangle_Grid_4.jpg,Purple_Star_Stripes_1.jpg,right,679.7399999923073,true,NA,NA,NA,NA,NA,NA,NA,NA,true
48CMrE8d,3t5zxgo9eh1fn0t8t5nft3pt661qzj,3rrcefrb7qpe3h1ogw51t2ddwcfb44,48CMrE8d,2020-0188,2020-11-17,14:00:02,14:15:13,NA,incomplete,36,number,1,0,left,Green_Plus_Grid_4.jpg,Blue_Circle_Chess_4.jpg,Green_Triangle_Dots_3.jpg,left,804.8100000014529,true,NA,NA,NA,NA,NA,NA,NA,NA,true
48CMrE8d,3t5zxgo9eh1fn0t8t5nft3pt661qzj,3rrcefrb7qpe3h1ogw51t2ddwcfb44,48CMrE8d,2020-0188,2020-11-17,14:00:02,14:15:13,NA,incomplete,37,number,1,1,left,Green_Plus_Dots_2.jpg,Purple_Triangle_Grid_2.jpg,Green_Star_Chess_3.jpg,left,901.6499999852385,true,NA,NA,NA,NA,NA,NA,NA,NA,true
48CMrE8d,3t5zxgo9eh1fn0t8t5nft3pt661qzj,3rrcefrb7qpe3h1ogw51t2ddwcfb44,48CMrE8d,2020-0188,2020-11-17,14:00:02,14:15:13,NA,incomplete,38,number,1,1,left,Blue_Triangle_Chess_1.jpg,Green_Circle_Grid_1.jpg,Blue_Star_Stripes_2.jpg,left,880.074999993667,true,NA,NA,NA,NA,NA,NA,NA,NA,true
48CMrE8d,3t5zxgo9eh1fn0t8t5nft3pt661qzj,3rrcefrb7qpe3h1ogw51t2ddwcfb44,48CMrE8d,2020-0188,2020-11-17,14:00:02,14:15:13,NA,incomplete,39,number,1,1,right,Purple_Triangle_Grid_1.jpg,Purple_Star_Stripes_2.jpg,Green_Circle_Chess_1.jpg,right,859.1299999970943,true,NA,NA,NA,NA,NA,NA,NA,NA,true
48CMrE8d,3t5zxgo9eh1fn0t8t5nft3pt661qzj,3rrcefrb7qpe3h1ogw51t2ddwcfb44,48CMrE8d,2020-0188,2020-11-17,14:00:02,14:15:13,NA,incomplete,0,color,0,1,right,Green_Circle_Chess_2.jpg,Purple_Triangle_Stripes_2.jpg,Green_Plus_Grid_3.jpg,right,1615.2500000025611,true,low,NA,NA,NA,NA,NA,NA,NA,false
48CMrE8d,3t5zxgo9eh1fn0t8t5nft3pt661qzj,3rrcefrb7qpe3h1ogw51t2ddwcfb44,48CMrE8d,2020-0188,2020-11-17,14:00:02,14:15:13,NA,incomplete,1,color,0,1,left,Blue_Circle_Dots_3.jpg,Blue_Triangle_Grid_1.jpg,Green_Plus_Chess_3.jpg,left,1082.8000000037719,true,low,NA,NA,NA,NA,NA,NA,NA,false
48CMrE8d,3t5zxgo9eh1fn0t8t5nft3pt661qzj,3rrcefrb7qpe3h1ogw51t2ddwcfb44,48CMrE8d,2020-0188,2020-11-17,14:00:02,14:15:13,NA,incomplete,2,color,0,1,left,Red_Circle_Grid_3.jpg,Red_Triangle_Chess_1.jpg,Blue_Star_Stripes_3.jpg,left,1223.3999999880325,true,low,NA,NA,NA,NA,NA,NA,NA,false
48CMrE8d,3t5zxgo9eh1fn0t8t5nft3pt661qzj,3rrcefrb7qpe3h1ogw51t2ddwcfb44,48CMrE8d,2020-0188,2020-11-17,14:00:02,14:15:13,NA,incomplete,3,color,0,1,right,Blue_Plus_Dots_3.jpg,Purple_Circle_Chess_3.jpg,Blue_Star_Grid_1.jpg,right,723.3050000213552,true,low,NA,NA,NA,NA,NA,NA,NA,false
48CMrE8d,3t5zxgo9eh1fn0t8t5nft3pt661qzj,3rrcefrb7qpe3h1ogw51t2ddwcfb44,48CMrE8d,2020-0188,2020-11-17,14:00:02,14:15:13,NA,incomplete,4,color,0,1,left,Green_Star_Chess_3.jpg,Green_Circle_Dots_1.jpg,Red_Triangle_Stripes_3.jpg,left,938.4549999958836,true,low,NA,NA,NA,NA,NA,NA,NA,false
48CMrE8d,3t5zxgo9eh1fn0t8t5nft3pt661qzj,3rrcefrb7qpe3h1ogw51t2ddwcfb44,48CMrE8d,2020-0188,2020-11-17,14:00:02,14:15:13,NA,incomplete,5,color,0,1,left,Red_Star_Dots_3.jpg,Red_Triangle_Grid_4.jpg,Green_Circle_Chess_3.jpg,left,571.7750000185333,true,low,NA,NA,NA,NA,NA,NA,NA,false
48CMrE8d,3t5zxgo9eh1fn0t8t5nft3pt661qzj,3rrcefrb7qpe3h1ogw51t2ddwcfb44,48CMrE8d,2020-0188,2020-11-17,14:00:02,14:15:13,NA,incomplete,6,color,0,1,right,Blue_Star_Dots_3.jpg,Green_Circle_Grid_3.jpg,Blue_Triangle_Chess_1.jpg,right,794.7449999919627,true,low,NA,NA,NA,NA,NA,NA,NA,false
48CMrE8d,3t5zxgo9eh1fn0t8t5nft3pt661qzj,3rrcefrb7qpe3h1ogw51t2ddwcfb44,48CMrE8d,2020-0188,2020-11-17,14:00:02,14:15:13,NA,incomplete,7,color,0,1,left,Green_Triangle_Stripes_1.jpg,Green_Star_Grid_4.jpg,Red_Circle_Dots_1.jpg,left,559.305000002496,true,low,NA,NA,NA,NA,NA,NA,NA,false
48CMrE8d,3t5zxgo9eh1fn0t8t5nft3pt661qzj,3rrcefrb7qpe3h1ogw51t2ddwcfb44,48CMrE8d,2020-0188,2020-11-17,14:00:02,14:15:13,NA,incomplete,8,color,0,0,left,Red_Star_Grid_3.jpg,Red_Circle_Stripes_1.jpg,Purple_Plus_Dots_3.jpg,left,727.9149999958463,true,low,NA,NA,NA,NA,NA,NA,NA,false
48CMrE8d,3t5zxgo9eh1fn0t8t5nft3pt661qzj,3rrcefrb7qpe3h1ogw51t2ddwcfb44,48CMrE8d,2020-0188,2020-11-17,14:00:02,14:15:13,NA,incomplete,9,color,0,1,left,Green_Plus_Stripes_2.jpg,Green_Triangle_Grid_3.jpg,Purple_Circle_Dots_2.jpg,right,659.0000000142027,false,low,NA,NA,NA,NA,NA,NA,NA,false
48CMrE8d,3t5zxgo9eh1fn0t8t5nft3pt661qzj,3rrcefrb7qpe3h1ogw51t2ddwcfb44,48CMrE8d,2020-0188,2020-11-17,14:00:02,14:15:13,NA,incomplete,10,number,1,1,right,Blue_Plus_Grid_3.jpg,Blue_Circle_Stripes_2.jpg,Purple_Triangle_Dots_3.jpg,right,819.084999995539,true,low,NA,NA,NA,NA,NA,NA,NA,false
48CMrE8d,3t5zxgo9eh1fn0t8t5nft3pt661qzj,3rrcefrb7qpe3h1ogw51t2ddwcfb44,48CMrE8d,2020-0188,2020-11-17,14:00:02,14:15:13,NA,incomplete,11,number,1,0,right,Red_Triangle_Chess_2.jpg,Red_Plus_Stripes_3.jpg,Green_Circle_Grid_2.jpg,right,856.0949999955483,true,low,NA,NA,NA,NA,NA,NA,NA,false
48CMrE8d,3t5zxgo9eh1fn0t8t5nft3pt661qzj,3rrcefrb7qpe3h1ogw51t2ddwcfb44,48CMrE8d,2020-0188,2020-11-17,14:00:02,14:15:13,NA,incomplete,12,number,1,1,left,Green_Circle_Grid_1.jpg,Red_Plus_Stripes_1.jpg,Green_Star_Chess_2.jpg,right,514.5350000238977,false,low,NA,NA,NA,NA,NA,NA,NA,false
48CMrE8d,3t5zxgo9eh1fn0t8t5nft3pt661qzj,3rrcefrb7qpe3h1ogw51t2ddwcfb44,48CMrE8d,2020-0188,2020-11-17,14:00:02,14:15:13,NA,incomplete,13,number,1,1,left,Blue_Circle_Dots_4.jpg,Purple_Plus_Stripes_4.jpg,Blue_Star_Grid_2.jpg,right,794.1700000083074,false,low,NA,NA,NA,NA,NA,NA,NA,false
48CMrE8d,3t5zxgo9eh1fn0t8t5nft3pt661qzj,3rrcefrb7qpe3h1ogw51t2ddwcfb44,48CMrE8d,2020-0188,2020-11-17,14:00:02,14:15:13,NA,incomplete,14,number,1,1,right,Green_Circle_Grid_2.jpg,Green_Plus_Stripes_3.jpg,Blue_Triangle_Chess_2.jpg,left,700.8649999916088,false,low,NA,NA,NA,NA,NA,NA,NA,false
48CMrE8d,3t5zxgo9eh1fn0t8t5nft3pt661qzj,3rrcefrb7qpe3h1ogw51t2ddwcfb44,48CMrE8d,2020-0188,2020-11-17,14:00:02,14:15:13,NA,incomplete,15,number,1,1,right,Purple_Star_Dots_1.jpg,Purple_Triangle_Grid_2.jpg,Blue_Circle_Stripes_1.jpg,right,754.8300000198651,true,low,NA,NA,NA,NA,NA,NA,NA,false
48CMrE8d,3t5zxgo9eh1fn0t8t5nft3pt661qzj,3rrcefrb7qpe3h1ogw51t2ddwcfb44,48CMrE8d,2020-0188,2020-11-17,14:00:02,14:15:13,NA,incomplete,16,number,1,0,left,Purple_Plus_Stripes_4.jpg,Green_Star_Dots_4.jpg,Purple_Circle_Chess_2.jpg,right,822.6600000052713,false,low,NA,NA,NA,NA,NA,NA,NA,false
48CMrE8d,3t5zxgo9eh1fn0t8t5nft3pt661qzj,3rrcefrb7qpe3h1ogw51t2ddwcfb44,48CMrE8d,2020-0188,2020-11-17,14:00:02,14:15:13,NA,incomplete,17,number,1,1,right,Red_Star_Chess_3.jpg,Red_Circle_Dots_4.jpg,Green_Plus_Grid_3.jpg,left,665.0200000149198,false,low,NA,NA,NA,NA,NA,NA,NA,false
48CMrE8d,3t5zxgo9eh1fn0t8t5nft3pt661qzj,3rrcefrb7qpe3h1ogw51t2ddwcfb44,48CMrE8d,2020-0188,2020-11-17,14:00:02,14:15:13,NA,incomplete,18,number,1,1,left,Blue_Star_Dots_2.jpg,Purple_Plus_Grid_2.jpg,Blue_Circle_Stripes_1.jpg,right,684.0650000085589,false,low,NA,NA,NA,NA,NA,NA,NA,false
48CMrE8d,3t5zxgo9eh1fn0t8t5nft3pt661qzj,3rrcefrb7qpe3h1ogw51t2ddwcfb44,48CMrE8d,2020-0188,2020-11-17,14:00:02,14:15:13,NA,incomplete,19,number,1,1,left,Green_Triangle_Dots_2.jpg,Red_Circle_Chess_2.jpg,Green_Plus_Grid_3.jpg,right,1223.2899999944493,false,low,NA,NA,NA,NA,NA,NA,NA,false
48CMrE8d,3t5zxgo9eh1fn0t8t5nft3pt661qzj,3rrcefrb7qpe3h1ogw51t2ddwcfb44,48CMrE8d,2020-0188,2020-11-17,14:00:02,14:15:13,NA,incomplete,20,color,0,0,right,Purple_Plus_Dots_4.jpg,Red_Triangle_Chess_4.jpg,Purple_Circle_Grid_3.jpg,right,817.2749999794178,true,low,NA,NA,NA,NA,NA,NA,NA,false
48CMrE8d,3t5zxgo9eh1fn0t8t5nft3pt661qzj,3rrcefrb7qpe3h1ogw51t2ddwcfb44,48CMrE8d,2020-0188,2020-11-17,14:00:02,14:15:13,NA,incomplete,21,color,0,1,right,Blue_Circle_Chess_2.jpg,Purple_Star_Grid_2.jpg,Blue_Triangle_Dots_3.jpg,right,685.4950000124518,true,low,NA,NA,NA,NA,NA,NA,NA,false
48CMrE8d,3t5zxgo9eh1fn0t8t5nft3pt661qzj,3rrcefrb7qpe3h1ogw51t2ddwcfb44,48CMrE8d,2020-0188,2020-11-17,14:00:02,14:15:13,NA,incomplete,22,color,0,1,left,Green_Circle_Grid_3.jpg,Green_Plus_Stripes_1.jpg,Blue_Triangle_Dots_3.jpg,left,720.9800000127871,true,low,NA,NA,NA,NA,NA,NA,NA,false
48CMrE8d,3t5zxgo9eh1fn0t8t5nft3pt661qzj,3rrcefrb7qpe3h1ogw51t2ddwcfb44,48CMrE8d,2020-0188,2020-11-17,14:00:02,14:15:13,NA,incomplete,23,color,0,0,left,Purple_Circle_Dots_1.jpg,Purple_Star_Chess_3.jpg,Green_Triangle_Grid_1.jpg,left,710.2349999768194,true,low,NA,NA,NA,NA,NA,NA,NA,false
48CMrE8d,3t5zxgo9eh1fn0t8t5nft3pt661qzj,3rrcefrb7qpe3h1ogw51t2ddwcfb44,48CMrE8d,2020-0188,2020-11-17,14:00:02,14:15:13,NA,incomplete,24,color,0,1,left,Green_Star_Stripes_3.jpg,Green_Circle_Dots_4.jpg,Purple_Triangle_Grid_3.jpg,right,891.3750000065193,false,low,NA,NA,NA,NA,NA,NA,NA,false
48CMrE8d,3t5zxgo9eh1fn0t8t5nft3pt661qzj,3rrcefrb7qpe3h1ogw51t2ddwcfb44,48CMrE8d,2020-0188,2020-11-17,14:00:02,14:15:13,NA,incomplete,25,color,0,1,left,Red_Triangle_Dots_1.jpg,Red_Star_Grid_4.jpg,Green_Plus_Stripes_1.jpg,left,725.4599999869242,true,low,NA,NA,NA,NA,NA,NA,NA,false
48CMrE8d,3t5zxgo9eh1fn0t8t5nft3pt661qzj,3rrcefrb7qpe3h1ogw51t2ddwcfb44,48CMrE8d,2020-0188,2020-11-17,14:00:02,14:15:13,NA,incomplete,26,color,0,1,left,Purple_Star_Grid_1.jpg,Purple_Plus_Chess_2.jpg,Green_Circle_Dots_1.jpg,left,678.0399999988731,true,low,NA,NA,NA,NA,NA,NA,NA,false
48CMrE8d,3t5zxgo9eh1fn0t8t5nft3pt661qzj,3rrcefrb7qpe3h1ogw51t2ddwcfb44,48CMrE8d,2020-0188,2020-11-17,14:00:02,14:15:13,NA,incomplete,27,color,0,0,left,Purple_Triangle_Dots_2.jpg,Purple_Plus_Chess_1.jpg,Blue_Star_Grid_2.jpg,left,748.7099999852944,true,low,NA,NA,NA,NA,NA,NA,NA,false
48CMrE8d,3t5zxgo9eh1fn0t8t5nft3pt661qzj,3rrcefrb7qpe3h1ogw51t2ddwcfb44,48CMrE8d,2020-0188,2020-11-17,14:00:02,14:15:13,NA,incomplete,28,color,0,1,right,Red_Triangle_Dots_4.jpg,Purple_Circle_Chess_4.jpg,Red_Plus_Stripes_2.jpg,right,845.7750000234228,true,low,NA,NA,NA,NA,NA,NA,NA,false
48CMrE8d,3t5zxgo9eh1fn0t8t5nft3pt661qzj,3rrcefrb7qpe3h1ogw51t2ddwcfb44,48CMrE8d,2020-0188,2020-11-17,14:00:02,14:15:13,NA,incomplete,29,color,0,0,left,Purple_Star_Dots_3.jpg,Purple_Circle_Stripes_1.jpg,Blue_Plus_Chess_3.jpg,right,1020.0999999942724,false,low,NA,NA,NA,NA,NA,NA,NA,false
48CMrE8d,3t5zxgo9eh1fn0t8t5nft3pt661qzj,3rrcefrb7qpe3h1ogw51t2ddwcfb44,48CMrE8d,2020-0188,2020-11-17,14:00:02,14:15:13,NA,incomplete,30,number,1,1,left,Blue_Circle_Grid_3.jpg,Purple_Triangle_Stripes_3.jpg,Blue_Plus_Chess_1.jpg,right,670.9799999953248,false,low,NA,NA,NA,NA,NA,NA,NA,false
48CMrE8d,3t5zxgo9eh1fn0t8t5nft3pt661qzj,3rrcefrb7qpe3h1ogw51t2ddwcfb44,48CMrE8d,2020-0188,2020-11-17,14:00:02,14:15:13,NA,incomplete,31,number,1,1,left,Green_Triangle_Chess_1.jpg,Blue_Plus_Dots_1.jpg,Green_Star_Grid_2.jpg,right,573.210000002291,false,low,NA,NA,NA,NA,NA,NA,NA,false
48CMrE8d,3t5zxgo9eh1fn0t8t5nft3pt661qzj,3rrcefrb7qpe3h1ogw51t2ddwcfb44,48CMrE8d,2020-0188,2020-11-17,14:00:02,14:15:13,NA,incomplete,32,number,1,1,left,Green_Circle_Chess_3.jpg,Blue_Triangle_Grid_3.jpg,Green_Plus_Stripes_4.jpg,right,585.6050000002142,false,low,NA,NA,NA,NA,NA,NA,NA,false
48CMrE8d,3t5zxgo9eh1fn0t8t5nft3pt661qzj,3rrcefrb7qpe3h1ogw51t2ddwcfb44,48CMrE8d,2020-0188,2020-11-17,14:00:02,14:15:13,NA,incomplete,33,number,1,1,right,Blue_Triangle_Stripes_3.jpg,Blue_Circle_Dots_2.jpg,Purple_Star_Chess_3.jpg,left,782.2100000048522,false,low,NA,NA,NA,NA,NA,NA,NA,false
48CMrE8d,3t5zxgo9eh1fn0t8t5nft3pt661qzj,3rrcefrb7qpe3h1ogw51t2ddwcfb44,48CMrE8d,2020-0188,2020-11-17,14:00:02,14:15:13,NA,incomplete,34,number,1,1,left,Green_Triangle_Dots_1.jpg,Blue_Plus_Chess_1.jpg,Green_Circle_Stripes_3.jpg,right,762.73499999661,false,low,NA,NA,NA,NA,NA,NA,NA,false
48CMrE8d,3t5zxgo9eh1fn0t8t5nft3pt661qzj,3rrcefrb7qpe3h1ogw51t2ddwcfb44,48CMrE8d,2020-0188,2020-11-17,14:00:02,14:15:13,NA,incomplete,35,number,1,1,right,Purple_Circle_Stripes_2.jpg,Purple_Plus_Dots_4.jpg,Green_Star_Grid_2.jpg,right,911.9099999952596,true,low,NA,NA,NA,NA,NA,NA,NA,false
48CMrE8d,3t5zxgo9eh1fn0t8t5nft3pt661qzj,3rrcefrb7qpe3h1ogw51t2ddwcfb44,48CMrE8d,2020-0188,2020-11-17,14:00:02,14:15:13,NA,incomplete,36,number,1,1,left,Blue_Plus_Stripes_1.jpg,Purple_Circle_Grid_1.jpg,Blue_Star_Dots_2.jpg,left,729.2299999971874,true,low,NA,NA,NA,NA,NA,NA,NA,false
48CMrE8d,3t5zxgo9eh1fn0t8t5nft3pt661qzj,3rrcefrb7qpe3h1ogw51t2ddwcfb44,48CMrE8d,2020-0188,2020-11-17,14:00:02,14:15:13,NA,incomplete,37,number,1,1,left,Red_Plus_Chess_2.jpg,Blue_Circle_Grid_2.jpg,Red_Star_Dots_4.jpg,left,802.4999999906868,true,low,NA,NA,NA,NA,NA,NA,NA,false
48CMrE8d,3t5zxgo9eh1fn0t8t5nft3pt661qzj,3rrcefrb7qpe3h1ogw51t2ddwcfb44,48CMrE8d,2020-0188,2020-11-17,14:00:02,14:15:13,NA,incomplete,38,number,1,1,left,Red_Plus_Chess_3.jpg,Purple_Star_Dots_3.jpg,Red_Triangle_Stripes_2.jpg,right,1129.7299999860115,false,low,NA,NA,NA,NA,NA,NA,NA,false
48CMrE8d,3t5zxgo9eh1fn0t8t5nft3pt661qzj,3rrcefrb7qpe3h1ogw51t2ddwcfb44,48CMrE8d,2020-0188,2020-11-17,14:00:02,14:15:13,NA,incomplete,39,number,1,0,left,Red_Star_Chess_4.jpg,Green_Plus_Dots_4.jpg,Red_Triangle_Stripes_1.jpg,left,811.5950000064913,true,low,NA,NA,NA,NA,NA,NA,NA,false
48CMrE8d,3t5zxgo9eh1fn0t8t5nft3pt661qzj,3rrcefrb7qpe3h1ogw51t2ddwcfb44,48CMrE8d,2020-0188,2020-11-17,14:00:02,14:15:13,NA,incomplete,40,color,0,1,right,Green_Triangle_Chess_1.jpg,Purple_Plus_Stripes_1.jpg,Green_Circle_Grid_4.jpg,right,530.1299999991897,true,low,NA,NA,NA,NA,NA,NA,NA,false
48CMrE8d,3t5zxgo9eh1fn0t8t5nft3pt661qzj,3rrcefrb7qpe3h1ogw51t2ddwcfb44,48CMrE8d,2020-0188,2020-11-17,14:00:02,14:15:13,NA,incomplete,41,color,0,1,right,Blue_Star_Chess_4.jpg,Red_Plus_Grid_4.jpg,Blue_Circle_Dots_1.jpg,left,851.779999997234,false,low,NA,NA,NA,NA,NA,NA,NA,false
48CMrE8d,3t5zxgo9eh1fn0t8t5nft3pt661qzj,3rrcefrb7qpe3h1ogw51t2ddwcfb44,48CMrE8d,2020-0188,2020-11-17,14:00:02,14:15:13,NA,incomplete,42,color,0,1,right,Blue_Plus_Chess_3.jpg,Purple_Star_Dots_3.jpg,Blue_Triangle_Stripes_2.jpg,right,760.3200000012293,true,low,NA,NA,NA,NA,NA,NA,NA,false
48CMrE8d,3t5zxgo9eh1fn0t8t5nft3pt661qzj,3rrcefrb7qpe3h1ogw51t2ddwcfb44,48CMrE8d,2020-0188,2020-11-17,14:00:02,14:15:13,NA,incomplete,43,color,0,1,right,Green_Circle_Grid_4.jpg,Blue_Triangle_Stripes_4.jpg,Green_Star_Dots_3.jpg,right,688.9599999994971,true,low,NA,NA,NA,NA,NA,NA,NA,false
48CMrE8d,3t5zxgo9eh1fn0t8t5nft3pt661qzj,3rrcefrb7qpe3h1ogw51t2ddwcfb44,48CMrE8d,2020-0188,2020-11-17,14:00:02,14:15:13,NA,incomplete,44,color,0,1,right,Purple_Triangle_Stripes_4.jpg,Green_Plus_Chess_4.jpg,Purple_Star_Grid_3.jpg,right,673.9649999944959,true,low,NA,NA,NA,NA,NA,NA,NA,false
48CMrE8d,3t5zxgo9eh1fn0t8t5nft3pt661qzj,3rrcefrb7qpe3h1ogw51t2ddwcfb44,48CMrE8d,2020-0188,2020-11-17,14:00:02,14:15:13,NA,incomplete,45,color,0,1,right,Green_Star_Dots_1.jpg,Purple_Plus_Stripes_1.jpg,Green_Triangle_Chess_2.jpg,left,675.8600000175647,false,low,NA,NA,NA,NA,NA,NA,NA,false
48CMrE8d,3t5zxgo9eh1fn0t8t5nft3pt661qzj,3rrcefrb7qpe3h1ogw51t2ddwcfb44,48CMrE8d,2020-0188,2020-11-17,14:00:02,14:15:13,NA,incomplete,46,color,0,0,left,Green_Star_Stripes_3.jpg,Green_Plus_Grid_4.jpg,Purple_Circle_Dots_3.jpg,left,877.5800000003073,true,low,NA,NA,NA,NA,NA,NA,NA,false
48CMrE8d,3t5zxgo9eh1fn0t8t5nft3pt661qzj,3rrcefrb7qpe3h1ogw51t2ddwcfb44,48CMrE8d,2020-0188,2020-11-17,14:00:02,14:15:13,NA,incomplete,47,color,0,1,right,Purple_Star_Chess_4.jpg,Red_Circle_Dots_4.jpg,Purple_Triangle_Stripes_3.jpg,left,910.8849999902304,false,low,NA,NA,NA,NA,NA,NA,NA,false
48CMrE8d,3t5zxgo9eh1fn0t8t5nft3pt661qzj,3rrcefrb7qpe3h1ogw51t2ddwcfb44,48CMrE8d,2020-0188,2020-11-17,14:00:02,14:15:13,NA,incomplete,48,color,0,0,left,Blue_Triangle_Stripes_1.jpg,Blue_Plus_Dots_3.jpg,Green_Circle_Grid_1.jpg,right,837.9700000223238,false,low,NA,NA,NA,NA,NA,NA,NA,false
48CMrE8d,3t5zxgo9eh1fn0t8t5nft3pt661qzj,3rrcefrb7qpe3h1ogw51t2ddwcfb44,48CMrE8d,2020-0188,2020-11-17,14:00:02,14:15:13,NA,incomplete,49,color,0,1,left,Red_Plus_Dots_4.jpg,Red_Circle_Stripes_3.jpg,Purple_Triangle_Chess_4.jpg,left,892.8050000104122,true,low,NA,NA,NA,NA,NA,NA,NA,false
48CMrE8d,3t5zxgo9eh1fn0t8t5nft3pt661qzj,3rrcefrb7qpe3h1ogw51t2ddwcfb44,48CMrE8d,2020-0188,2020-11-17,14:00:02,14:15:13,NA,incomplete,50,number,1,1,right,Red_Triangle_Stripes_3.jpg,Red_Circle_Grid_2.jpg,Green_Plus_Chess_3.jpg,left,779.1550000256393,false,low,NA,NA,NA,NA,NA,NA,NA,false
48CMrE8d,3t5zxgo9eh1fn0t8t5nft3pt661qzj,3rrcefrb7qpe3h1ogw51t2ddwcfb44,48CMrE8d,2020-0188,2020-11-17,14:00:02,14:15:13,NA,incomplete,51,number,1,1,left,Red_Circle_Stripes_2.jpg,Blue_Triangle_Chess_2.jpg,Red_Star_Dots_4.jpg,left,858.7199999892619,true,low,NA,NA,NA,NA,NA,NA,NA,false
48CMrE8d,3t5zxgo9eh1fn0t8t5nft3pt661qzj,3rrcefrb7qpe3h1ogw51t2ddwcfb44,48CMrE8d,2020-0188,2020-11-17,14:00:02,14:15:13,NA,incomplete,52,number,1,1,left,Purple_Circle_Chess_4.jpg,Green_Triangle_Stripes_4.jpg,Purple_Star_Dots_3.jpg,left,957.3050000180956,true,low,NA,NA,NA,NA,NA,NA,NA,false
48CMrE8d,3t5zxgo9eh1fn0t8t5nft3pt661qzj,3rrcefrb7qpe3h1ogw51t2ddwcfb44,48CMrE8d,2020-0188,2020-11-17,14:00:02,14:15:13,NA,incomplete,53,number,1,1,left,Purple_Circle_Chess_1.jpg,Blue_Star_Stripes_1.jpg,Purple_Plus_Grid_2.jpg,left,707.6299999898765,true,low,NA,NA,NA,NA,NA,NA,NA,false
48CMrE8d,3t5zxgo9eh1fn0t8t5nft3pt661qzj,3rrcefrb7qpe3h1ogw51t2ddwcfb44,48CMrE8d,2020-0188,2020-11-17,14:00:02,14:15:13,NA,incomplete,54,number,1,1,left,Blue_Circle_Grid_3.jpg,Purple_Triangle_Stripes_3.jpg,Blue_Star_Dots_4.jpg,left,726.0600000154227,true,low,NA,NA,NA,NA,NA,NA,NA,false
48CMrE8d,3t5zxgo9eh1fn0t8t5nft3pt661qzj,3rrcefrb7qpe3h1ogw51t2ddwcfb44,48CMrE8d,2020-0188,2020-11-17,14:00:02,14:15:13,NA,incomplete,55,number,1,0,left,Blue_Star_Dots_4.jpg,Green_Circle_Stripes_4.jpg,Blue_Plus_Chess_1.jpg,left,697.2950000199489,true,low,NA,NA,NA,NA,NA,NA,NA,false
48CMrE8d,3t5zxgo9eh1fn0t8t5nft3pt661qzj,3rrcefrb7qpe3h1ogw51t2ddwcfb44,48CMrE8d,2020-0188,2020-11-17,14:00:02,14:15:13,NA,incomplete,56,number,1,1,right,Purple_Plus_Dots_1.jpg,Purple_Triangle_Chess_2.jpg,Blue_Circle_Grid_1.jpg,left,853.3500000194181,false,low,NA,NA,NA,NA,NA,NA,NA,false
48CMrE8d,3t5zxgo9eh1fn0t8t5nft3pt661qzj,3rrcefrb7qpe3h1ogw51t2ddwcfb44,48CMrE8d,2020-0188,2020-11-17,14:00:02,14:15:13,NA,incomplete,57,number,1,1,right,Green_Triangle_Dots_1.jpg,Green_Circle_Stripes_3.jpg,Purple_Plus_Chess_1.jpg,right,791.7849999794271,true,low,NA,NA,NA,NA,NA,NA,NA,false
48CMrE8d,3t5zxgo9eh1fn0t8t5nft3pt661qzj,3rrcefrb7qpe3h1ogw51t2ddwcfb44,48CMrE8d,2020-0188,2020-11-17,14:00:02,14:15:13,NA,incomplete,58,number,1,1,right,Blue_Star_Dots_4.jpg,Blue_Triangle_Grid_3.jpg,Green_Plus_Stripes_4.jpg,right,956.9649999903049,true,low,NA,NA,NA,NA,NA,NA,NA,false
48CMrE8d,3t5zxgo9eh1fn0t8t5nft3pt661qzj,3rrcefrb7qpe3h1ogw51t2ddwcfb44,48CMrE8d,2020-0188,2020-11-17,14:00:02,14:15:13,NA,incomplete,59,number,1,1,left,Red_Triangle_Grid_4.jpg,Blue_Plus_Dots_4.jpg,Red_Star_Stripes_3.jpg,left,884.8350000043865,true,low,NA,NA,NA,NA,NA,NA,NA,false
48CMrE8d,3t5zxgo9eh1fn0t8t5nft3pt661qzj,3rrcefrb7qpe3h1ogw51t2ddwcfb44,48CMrE8d,2020-0188,2020-11-17,14:00:02,14:15:13,NA,incomplete,60,color,0,1,left,Green_Triangle_Chess_4.jpg,Green_Plus_Grid_1.jpg,Purple_Circle_Dots_4.jpg,right,819.5900000282563,false,low,NA,NA,NA,NA,NA,NA,NA,false
48CMrE8d,3t5zxgo9eh1fn0t8t5nft3pt661qzj,3rrcefrb7qpe3h1ogw51t2ddwcfb44,48CMrE8d,2020-0188,2020-11-17,14:00:02,14:15:13,NA,incomplete,61,color,0,1,right,Blue_Triangle_Dots_2.jpg,Red_Star_Chess_2.jpg,Blue_Plus_Grid_4.jpg,right,701.8499999830965,true,low,NA,NA,NA,NA,NA,NA,NA,false
48CMrE8d,3t5zxgo9eh1fn0t8t5nft3pt661qzj,3rrcefrb7qpe3h1ogw51t2ddwcfb44,48CMrE8d,2020-0188,2020-11-17,14:00:02,14:15:13,NA,incomplete,62,color,0,1,right,Green_Plus_Chess_4.jpg,Purple_Star_Stripes_4.jpg,Green_Circle_Grid_3.jpg,right,999.2400000046473,true,low,NA,NA,NA,NA,NA,NA,NA,false
48CMrE8d,3t5zxgo9eh1fn0t8t5nft3pt661qzj,3rrcefrb7qpe3h1ogw51t2ddwcfb44,48CMrE8d,2020-0188,2020-11-17,14:00:02,14:15:13,NA,incomplete,63,color,0,1,right,Green_Star_Stripes_1.jpg,Purple_Circle_Chess_1.jpg,Green_Plus_Grid_4.jpg,right,694.9899999890476,true,low,NA,NA,NA,NA,NA,NA,NA,false
48CMrE8d,3t5zxgo9eh1fn0t8t5nft3pt661qzj,3rrcefrb7qpe3h1ogw51t2ddwcfb44,48CMrE8d,2020-0188,2020-11-17,14:00:02,14:15:13,NA,incomplete,64,color,0,1,left,Purple_Plus_Grid_3.jpg,Purple_Circle_Chess_1.jpg,Blue_Star_Dots_3.jpg,left,818.0349999747705,true,low,NA,NA,NA,NA,NA,NA,NA,false
48CMrE8d,3t5zxgo9eh1fn0t8t5nft3pt661qzj,3rrcefrb7qpe3h1ogw51t2ddwcfb44,48CMrE8d,2020-0188,2020-11-17,14:00:02,14:15:13,NA,incomplete,65,color,0,1,right,Purple_Circle_Dots_2.jpg,Blue_Star_Stripes_2.jpg,Purple_Plus_Chess_4.jpg,right,771.0550000192598,true,low,NA,NA,NA,NA,NA,NA,NA,false
48CMrE8d,3t5zxgo9eh1fn0t8t5nft3pt661qzj,3rrcefrb7qpe3h1ogw51t2ddwcfb44,48CMrE8d,2020-0188,2020-11-17,14:00:02,14:15:13,NA,incomplete,66,color,0,1,right,Purple_Circle_Dots_4.jpg,Blue_Plus_Chess_4.jpg,Purple_Triangle_Stripes_1.jpg,right,652.6749999902677,true,low,NA,NA,NA,NA,NA,NA,NA,false
48CMrE8d,3t5zxgo9eh1fn0t8t5nft3pt661qzj,3rrcefrb7qpe3h1ogw51t2ddwcfb44,48CMrE8d,2020-0188,2020-11-17,14:00:02,14:15:13,NA,incomplete,67,color,0,1,right,Blue_Circle_Chess_2.jpg,Purple_Star_Stripes_2.jpg,Blue_Triangle_Dots_4.jpg,right,612.2299999988172,true,low,NA,NA,NA,NA,NA,NA,NA,false
48CMrE8d,3t5zxgo9eh1fn0t8t5nft3pt661qzj,3rrcefrb7qpe3h1ogw51t2ddwcfb44,48CMrE8d,2020-0188,2020-11-17,14:00:02,14:15:13,NA,incomplete,68,color,0,1,left,Red_Plus_Stripes_1.jpg,Red_Star_Dots_2.jpg,Blue_Triangle_Chess_1.jpg,left,510.4599999904167,true,low,NA,NA,NA,NA,NA,NA,NA,false
48CMrE8d,3t5zxgo9eh1fn0t8t5nft3pt661qzj,3rrcefrb7qpe3h1ogw51t2ddwcfb44,48CMrE8d,2020-0188,2020-11-17,14:00:02,14:15:13,NA,incomplete,69,color,0,0,left,Blue_Star_Stripes_2.jpg,Blue_Plus_Grid_4.jpg,Purple_Triangle_Chess_2.jpg,right,889.2300000006799,false,low,NA,NA,NA,NA,NA,NA,NA,false
48CMrE8d,3t5zxgo9eh1fn0t8t5nft3pt661qzj,3rrcefrb7qpe3h1ogw51t2ddwcfb44,48CMrE8d,2020-0188,2020-11-17,14:00:02,14:15:13,NA,incomplete,70,number,1,1,right,Red_Triangle_Chess_3.jpg,Red_Plus_Dots_4.jpg,Green_Circle_Stripes_3.jpg,right,1045.0100000016391,true,low,NA,NA,NA,NA,NA,NA,NA,false
48CMrE8d,3t5zxgo9eh1fn0t8t5nft3pt661qzj,3rrcefrb7qpe3h1ogw51t2ddwcfb44,48CMrE8d,2020-0188,2020-11-17,14:00:02,14:15:13,NA,incomplete,71,number,1,1,left,Purple_Circle_Grid_3.jpg,Red_Triangle_Stripes_3.jpg,Purple_Plus_Dots_2.jpg,left,791.5400000056252,true,low,NA,NA,NA,NA,NA,NA,NA,false
48CMrE8d,3t5zxgo9eh1fn0t8t5nft3pt661qzj,3rrcefrb7qpe3h1ogw51t2ddwcfb44,48CMrE8d,2020-0188,2020-11-17,14:00:02,14:15:13,NA,incomplete,72,number,1,0,right,Blue_Plus_Dots_1.jpg,Blue_Triangle_Grid_3.jpg,Purple_Star_Chess_1.jpg,right,825.4850000084843,true,low,NA,NA,NA,NA,NA,NA,NA,false
48CMrE8d,3t5zxgo9eh1fn0t8t5nft3pt661qzj,3rrcefrb7qpe3h1ogw51t2ddwcfb44,48CMrE8d,2020-0188,2020-11-17,14:00:02,14:15:13,NA,incomplete,73,number,1,1,right,Blue_Plus_Chess_3.jpg,Blue_Triangle_Dots_4.jpg,Red_Circle_Stripes_3.jpg,right,1087.5649999943562,true,low,NA,NA,NA,NA,NA,NA,NA,false
48CMrE8d,3t5zxgo9eh1fn0t8t5nft3pt661qzj,3rrcefrb7qpe3h1ogw51t2ddwcfb44,48CMrE8d,2020-0188,2020-11-17,14:00:02,14:15:13,NA,incomplete,74,number,1,1,right,Blue_Star_Dots_3.jpg,Blue_Triangle_Grid_4.jpg,Red_Circle_Chess_3.jpg,right,831.3449999841396,true,low,NA,NA,NA,NA,NA,NA,NA,false
48CMrE8d,3t5zxgo9eh1fn0t8t5nft3pt661qzj,3rrcefrb7qpe3h1ogw51t2ddwcfb44,48CMrE8d,2020-0188,2020-11-17,14:00:02,14:15:13,NA,incomplete,75,number,1,1,left,Blue_Star_Chess_2.jpg,Green_Triangle_Dots_2.jpg,Blue_Circle_Stripes_3.jpg,right,533.4699999948498,false,low,NA,NA,NA,NA,NA,NA,NA,false
48CMrE8d,3t5zxgo9eh1fn0t8t5nft3pt661qzj,3rrcefrb7qpe3h1ogw51t2ddwcfb44,48CMrE8d,2020-0188,2020-11-17,14:00:02,14:15:13,NA,incomplete,76,number,1,1,left,Blue_Triangle_Chess_2.jpg,Purple_Plus_Grid_2.jpg,Blue_Star_Dots_3.jpg,left,665.259999979753,true,low,NA,NA,NA,NA,NA,NA,NA,false
48CMrE8d,3t5zxgo9eh1fn0t8t5nft3pt661qzj,3rrcefrb7qpe3h1ogw51t2ddwcfb44,48CMrE8d,2020-0188,2020-11-17,14:00:02,14:15:13,NA,incomplete,77,number,1,1,left,Green_Triangle_Dots_4.jpg,Red_Circle_Stripes_4.jpg,Green_Plus_Chess_3.jpg,right,914.5600000047125,false,low,NA,NA,NA,NA,NA,NA,NA,false
48CMrE8d,3t5zxgo9eh1fn0t8t5nft3pt661qzj,3rrcefrb7qpe3h1ogw51t2ddwcfb44,48CMrE8d,2020-0188,2020-11-17,14:00:02,14:15:13,NA,incomplete,78,number,1,1,left,Purple_Plus_Stripes_3.jpg,Red_Star_Chess_3.jpg,Purple_Circle_Dots_1.jpg,left,823.4900000097696,true,low,NA,NA,NA,NA,NA,NA,NA,false
48CMrE8d,3t5zxgo9eh1fn0t8t5nft3pt661qzj,3rrcefrb7qpe3h1ogw51t2ddwcfb44,48CMrE8d,2020-0188,2020-11-17,14:00:02,14:15:13,NA,incomplete,79,number,1,0,right,Red_Plus_Grid_4.jpg,Red_Circle_Stripes_1.jpg,Green_Triangle_Dots_4.jpg,right,644.2400000232738,true,low,NA,NA,NA,NA,NA,NA,NA,false
48CMrE8d,3t5zxgo9eh1fn0t8t5nft3pt661qzj,3rrcefrb7qpe3h1ogw51t2ddwcfb44,48CMrE8d,2020-0188,2020-11-17,14:00:02,14:15:13,NA,incomplete,80,color,0,0,right,Purple_Triangle_Grid_1.jpg,Blue_Plus_Stripes_1.jpg,Purple_Circle_Chess_3.jpg,right,658.7799999979325,true,low,NA,NA,NA,NA,NA,NA,NA,false
48CMrE8d,3t5zxgo9eh1fn0t8t5nft3pt661qzj,3rrcefrb7qpe3h1ogw51t2ddwcfb44,48CMrE8d,2020-0188,2020-11-17,14:00:02,14:15:13,NA,incomplete,81,color,0,1,right,Green_Triangle_Stripes_2.jpg,Purple_Plus_Grid_2.jpg,Green_Circle_Chess_1.jpg,left,767.9300000017975,false,low,NA,NA,NA,NA,NA,NA,NA,false
48CMrE8d,3t5zxgo9eh1fn0t8t5nft3pt661qzj,3rrcefrb7qpe3h1ogw51t2ddwcfb44,48CMrE8d,2020-0188,2020-11-17,14:00:02,14:15:13,NA,incomplete,82,color,0,1,left,Red_Triangle_Chess_4.jpg,Red_Star_Grid_1.jpg,Blue_Plus_Stripes_4.jpg,left,969.3499999993946,true,low,NA,NA,NA,NA,NA,NA,NA,false
48CMrE8d,3t5zxgo9eh1fn0t8t5nft3pt661qzj,3rrcefrb7qpe3h1ogw51t2ddwcfb44,48CMrE8d,2020-0188,2020-11-17,14:00:02,14:15:13,NA,incomplete,83,color,0,1,left,Green_Triangle_Dots_4.jpg,Green_Plus_Chess_1.jpg,Blue_Circle_Grid_4.jpg,left,651.3700000068638,true,low,NA,NA,NA,NA,NA,NA,NA,false
48CMrE8d,3t5zxgo9eh1fn0t8t5nft3pt661qzj,3rrcefrb7qpe3h1ogw51t2ddwcfb44,48CMrE8d,2020-0188,2020-11-17,14:00:02,14:15:13,NA,incomplete,84,color,0,1,right,Purple_Triangle_Grid_2.jpg,Red_Star_Stripes_2.jpg,Purple_Plus_Chess_1.jpg,right,679.8350000171922,true,low,NA,NA,NA,NA,NA,NA,NA,false
48CMrE8d,3t5zxgo9eh1fn0t8t5nft3pt661qzj,3rrcefrb7qpe3h1ogw51t2ddwcfb44,48CMrE8d,2020-0188,2020-11-17,14:00:02,14:15:13,NA,incomplete,85,color,0,1,left,Red_Circle_Grid_2.jpg,Red_Triangle_Chess_4.jpg,Blue_Plus_Dots_2.jpg,left,1052.2950000013225,true,low,NA,NA,NA,NA,NA,NA,NA,false
48CMrE8d,3t5zxgo9eh1fn0t8t5nft3pt661qzj,3rrcefrb7qpe3h1ogw51t2ddwcfb44,48CMrE8d,2020-0188,2020-11-17,14:00:02,14:15:13,NA,incomplete,86,color,0,1,left,Red_Triangle_Grid_2.jpg,Red_Plus_Stripes_1.jpg,Green_Circle_Chess_2.jpg,left,759.7999999998137,true,low,NA,NA,NA,NA,NA,NA,NA,false
48CMrE8d,3t5zxgo9eh1fn0t8t5nft3pt661qzj,3rrcefrb7qpe3h1ogw51t2ddwcfb44,48CMrE8d,2020-0188,2020-11-17,14:00:02,14:15:13,NA,incomplete,87,color,0,0,left,Red_Plus_Dots_1.jpg,Red_Triangle_Stripes_2.jpg,Purple_Circle_Chess_1.jpg,left,639.7200000064913,true,low,NA,NA,NA,NA,NA,NA,NA,false
48CMrE8d,3t5zxgo9eh1fn0t8t5nft3pt661qzj,3rrcefrb7qpe3h1ogw51t2ddwcfb44,48CMrE8d,2020-0188,2020-11-17,14:00:02,14:15:13,NA,incomplete,88,color,0,1,left,Purple_Triangle_Chess_3.jpg,Purple_Plus_Grid_2.jpg,Green_Star_Dots_3.jpg,left,785.5250000138767,true,low,NA,NA,NA,NA,NA,NA,NA,false
48CMrE8d,3t5zxgo9eh1fn0t8t5nft3pt661qzj,3rrcefrb7qpe3h1ogw51t2ddwcfb44,48CMrE8d,2020-0188,2020-11-17,14:00:02,14:15:13,NA,incomplete,89,color,0,0,right,Green_Plus_Dots_3.jpg,Red_Star_Grid_3.jpg,Green_Triangle_Stripes_1.jpg,right,889.1299999959301,true,low,NA,NA,NA,NA,NA,NA,NA,false
48CMrE8d,3t5zxgo9eh1fn0t8t5nft3pt661qzj,3rrcefrb7qpe3h1ogw51t2ddwcfb44,48CMrE8d,2020-0188,2020-11-17,14:00:02,14:15:13,NA,incomplete,90,number,1,1,left,Green_Star_Stripes_4.jpg,Red_Plus_Chess_4.jpg,Green_Triangle_Grid_1.jpg,left,754.0549999976065,true,low,NA,NA,NA,NA,NA,NA,NA,false
48CMrE8d,3t5zxgo9eh1fn0t8t5nft3pt661qzj,3rrcefrb7qpe3h1ogw51t2ddwcfb44,48CMrE8d,2020-0188,2020-11-17,14:00:02,14:15:13,NA,incomplete,91,number,1,1,left,Purple_Plus_Grid_2.jpg,Green_Star_Stripes_2.jpg,Purple_Circle_Dots_4.jpg,left,1012.6400000008289,true,low,NA,NA,NA,NA,NA,NA,NA,false
48CMrE8d,3t5zxgo9eh1fn0t8t5nft3pt661qzj,3rrcefrb7qpe3h1ogw51t2ddwcfb44,48CMrE8d,2020-0188,2020-11-17,14:00:02,14:15:13,NA,incomplete,92,number,1,0,left,Green_Star_Chess_1.jpg,Red_Plus_Grid_1.jpg,Green_Circle_Stripes_2.jpg,left,681.2300000165123,true,low,NA,NA,NA,NA,NA,NA,NA,false
48CMrE8d,3t5zxgo9eh1fn0t8t5nft3pt661qzj,3rrcefrb7qpe3h1ogw51t2ddwcfb44,48CMrE8d,2020-0188,2020-11-17,14:00:02,14:15:13,NA,incomplete,93,number,1,1,right,Blue_Plus_Grid_2.jpg,Blue_Circle_Chess_4.jpg,Purple_Star_Dots_2.jpg,left,523.5450000036508,false,low,NA,NA,NA,NA,NA,NA,NA,false
48CMrE8d,3t5zxgo9eh1fn0t8t5nft3pt661qzj,3rrcefrb7qpe3h1ogw51t2ddwcfb44,48CMrE8d,2020-0188,2020-11-17,14:00:02,14:15:13,NA,incomplete,94,number,1,1,left,Purple_Circle_Grid_1.jpg,Red_Star_Stripes_1.jpg,Purple_Plus_Dots_2.jpg,left,864.4900000072084,true,low,NA,NA,NA,NA,NA,NA,NA,false
48CMrE8d,3t5zxgo9eh1fn0t8t5nft3pt661qzj,3rrcefrb7qpe3h1ogw51t2ddwcfb44,48CMrE8d,2020-0188,2020-11-17,14:00:02,14:15:13,NA,incomplete,95,number,1,0,left,Blue_Star_Dots_4.jpg,Purple_Triangle_Stripes_4.jpg,Blue_Circle_Grid_1.jpg,left,783.5049999994226,true,low,NA,NA,NA,NA,NA,NA,NA,false
48CMrE8d,3t5zxgo9eh1fn0t8t5nft3pt661qzj,3rrcefrb7qpe3h1ogw51t2ddwcfb44,48CMrE8d,2020-0188,2020-11-17,14:00:02,14:15:13,NA,incomplete,96,number,1,1,left,Purple_Plus_Chess_4.jpg,Blue_Star_Dots_4.jpg,Purple_Circle_Stripes_3.jpg,left,654.515000001993,true,low,NA,NA,NA,NA,NA,NA,NA,false
48CMrE8d,3t5zxgo9eh1fn0t8t5nft3pt661qzj,3rrcefrb7qpe3h1ogw51t2ddwcfb44,48CMrE8d,2020-0188,2020-11-17,14:00:02,14:15:13,NA,incomplete,97,number,1,0,left,Red_Plus_Stripes_1.jpg,Blue_Star_Grid_1.jpg,Red_Triangle_Chess_3.jpg,right,634.1550000070129,false,low,NA,NA,NA,NA,NA,NA,NA,false
48CMrE8d,3t5zxgo9eh1fn0t8t5nft3pt661qzj,3rrcefrb7qpe3h1ogw51t2ddwcfb44,48CMrE8d,2020-0188,2020-11-17,14:00:02,14:15:13,NA,incomplete,98,number,1,1,right,Blue_Circle_Dots_2.jpg,Blue_Plus_Stripes_3.jpg,Red_Triangle_Grid_2.jpg,right,858.9550000033341,true,low,NA,NA,NA,NA,NA,NA,NA,false
48CMrE8d,3t5zxgo9eh1fn0t8t5nft3pt661qzj,3rrcefrb7qpe3h1ogw51t2ddwcfb44,48CMrE8d,2020-0188,2020-11-17,14:00:02,14:15:13,NA,incomplete,99,number,1,0,left,Green_Plus_Chess_2.jpg,Purple_Star_Dots_2.jpg,Green_Triangle_Grid_1.jpg,right,627.4799999955576,false,low,NA,NA,NA,NA,NA,NA,NA,false
48CMrE8d,3t5zxgo9eh1fn0t8t5nft3pt661qzj,3rrcefrb7qpe3h1ogw51t2ddwcfb44,48CMrE8d,2020-0188,2020-11-17,14:00:02,14:15:13,NA,incomplete,100,color,0,0,left,Purple_Circle_Stripes_3.jpg,Purple_Plus_Grid_1.jpg,Red_Triangle_Chess_3.jpg,right,859.7650000010617,false,low,NA,NA,NA,NA,NA,NA,NA,false
48CMrE8d,3t5zxgo9eh1fn0t8t5nft3pt661qzj,3rrcefrb7qpe3h1ogw51t2ddwcfb44,48CMrE8d,2020-0188,2020-11-17,14:00:02,14:15:13,NA,incomplete,101,color,0,1,left,Green_Star_Chess_2.jpg,Green_Plus_Dots_3.jpg,Red_Triangle_Grid_2.jpg,left,607.7750000113156,true,low,NA,NA,NA,NA,NA,NA,NA,false
48CMrE8d,3t5zxgo9eh1fn0t8t5nft3pt661qzj,3rrcefrb7qpe3h1ogw51t2ddwcfb44,48CMrE8d,2020-0188,2020-11-17,14:00:02,14:15:13,NA,incomplete,102,color,0,1,left,Green_Triangle_Grid_3.jpg,Green_Plus_Stripes_1.jpg,Purple_Circle_Chess_3.jpg,left,617.3000000126194,true,low,NA,NA,NA,NA,NA,NA,NA,false
48CMrE8d,3t5zxgo9eh1fn0t8t5nft3pt661qzj,3rrcefrb7qpe3h1ogw51t2ddwcfb44,48CMrE8d,2020-0188,2020-11-17,14:00:02,14:15:13,NA,incomplete,103,color,0,1,right,Blue_Circle_Stripes_4.jpg,Green_Star_Dots_4.jpg,Blue_Triangle_Chess_3.jpg,right,565.2949999785051,true,low,NA,NA,NA,NA,NA,NA,NA,false
48CMrE8d,3t5zxgo9eh1fn0t8t5nft3pt661qzj,3rrcefrb7qpe3h1ogw51t2ddwcfb44,48CMrE8d,2020-0188,2020-11-17,14:00:02,14:15:13,NA,incomplete,104,color,0,1,right,Purple_Circle_Grid_4.jpg,Blue_Triangle_Dots_4.jpg,Purple_Plus_Stripes_3.jpg,right,643.225000007078,true,low,NA,NA,NA,NA,NA,NA,NA,false
48CMrE8d,3t5zxgo9eh1fn0t8t5nft3pt661qzj,3rrcefrb7qpe3h1ogw51t2ddwcfb44,48CMrE8d,2020-0188,2020-11-17,14:00:02,14:15:13,NA,incomplete,105,color,0,1,right,Green_Triangle_Grid_3.jpg,Red_Plus_Dots_3.jpg,Green_Circle_Stripes_1.jpg,right,659.205000003567,true,low,NA,NA,NA,NA,NA,NA,NA,false
48CMrE8d,3t5zxgo9eh1fn0t8t5nft3pt661qzj,3rrcefrb7qpe3h1ogw51t2ddwcfb44,48CMrE8d,2020-0188,2020-11-17,14:00:02,14:15:13,NA,incomplete,106,color,0,1,right,Red_Plus_Dots_4.jpg,Purple_Star_Stripes_4.jpg,Red_Circle_Grid_3.jpg,right,568.7200000102166,true,low,NA,NA,NA,NA,NA,NA,NA,false
48CMrE8d,3t5zxgo9eh1fn0t8t5nft3pt661qzj,3rrcefrb7qpe3h1ogw51t2ddwcfb44,48CMrE8d,2020-0188,2020-11-17,14:00:02,14:15:13,NA,incomplete,107,color,0,0,left,Purple_Triangle_Grid_3.jpg,Purple_Circle_Dots_1.jpg,Blue_Star_Chess_3.jpg,left,567.8400000033434,true,low,NA,NA,NA,NA,NA,NA,NA,false
48CMrE8d,3t5zxgo9eh1fn0t8t5nft3pt661qzj,3rrcefrb7qpe3h1ogw51t2ddwcfb44,48CMrE8d,2020-0188,2020-11-17,14:00:02,14:15:13,NA,incomplete,108,color,0,1,left,Green_Circle_Stripes_1.jpg,Green_Triangle_Dots_4.jpg,Purple_Star_Chess_1.jpg,right,832.3600000003353,false,low,NA,NA,NA,NA,NA,NA,NA,false
48CMrE8d,3t5zxgo9eh1fn0t8t5nft3pt661qzj,3rrcefrb7qpe3h1ogw51t2ddwcfb44,48CMrE8d,2020-0188,2020-11-17,14:00:02,14:15:13,NA,incomplete,109,color,0,1,left,Red_Circle_Chess_2.jpg,Red_Triangle_Stripes_3.jpg,Blue_Plus_Dots_2.jpg,left,853.1700000166893,true,low,NA,NA,NA,NA,NA,NA,NA,false
48CMrE8d,3t5zxgo9eh1fn0t8t5nft3pt661qzj,3rrcefrb7qpe3h1ogw51t2ddwcfb44,48CMrE8d,2020-0188,2020-11-17,14:00:02,14:15:13,NA,incomplete,110,number,1,1,right,Blue_Plus_Stripes_4.jpg,Blue_Circle_Chess_1.jpg,Red_Triangle_Dots_4.jpg,left,632.5300000025891,false,low,NA,NA,NA,NA,NA,NA,NA,false
48CMrE8d,3t5zxgo9eh1fn0t8t5nft3pt661qzj,3rrcefrb7qpe3h1ogw51t2ddwcfb44,48CMrE8d,2020-0188,2020-11-17,14:00:02,14:15:13,NA,incomplete,111,number,1,1,right,Green_Triangle_Grid_2.jpg,Green_Circle_Dots_1.jpg,Blue_Star_Chess_2.jpg,right,663.9049999939743,true,low,NA,NA,NA,NA,NA,NA,NA,false
48CMrE8d,3t5zxgo9eh1fn0t8t5nft3pt661qzj,3rrcefrb7qpe3h1ogw51t2ddwcfb44,48CMrE8d,2020-0188,2020-11-17,14:00:02,14:15:13,NA,incomplete,112,number,1,1,right,Green_Star_Stripes_4.jpg,Green_Circle_Dots_3.jpg,Blue_Triangle_Chess_4.jpg,right,1023.0099999753293,true,low,NA,NA,NA,NA,NA,NA,NA,false
48CMrE8d,3t5zxgo9eh1fn0t8t5nft3pt661qzj,3rrcefrb7qpe3h1ogw51t2ddwcfb44,48CMrE8d,2020-0188,2020-11-17,14:00:02,14:15:13,NA,incomplete,113,number,1,1,right,Blue_Triangle_Chess_1.jpg,Blue_Circle_Dots_2.jpg,Purple_Star_Stripes_1.jpg,right,704.649999999674,true,low,NA,NA,NA,NA,NA,NA,NA,false
48CMrE8d,3t5zxgo9eh1fn0t8t5nft3pt661qzj,3rrcefrb7qpe3h1ogw51t2ddwcfb44,48CMrE8d,2020-0188,2020-11-17,14:00:02,14:15:13,NA,incomplete,114,number,1,1,right,Purple_Star_Chess_3.jpg,Purple_Circle_Stripes_4.jpg,Red_Plus_Grid_3.jpg,right,832.1200000063982,true,low,NA,NA,NA,NA,NA,NA,NA,false
48CMrE8d,3t5zxgo9eh1fn0t8t5nft3pt661qzj,3rrcefrb7qpe3h1ogw51t2ddwcfb44,48CMrE8d,2020-0188,2020-11-17,14:00:02,14:15:13,NA,incomplete,115,number,1,1,right,Red_Plus_Grid_2.jpg,Red_Star_Chess_4.jpg,Green_Triangle_Stripes_2.jpg,right,734.7949999966659,true,low,NA,NA,NA,NA,NA,NA,NA,false
48CMrE8d,3t5zxgo9eh1fn0t8t5nft3pt661qzj,3rrcefrb7qpe3h1ogw51t2ddwcfb44,48CMrE8d,2020-0188,2020-11-17,14:00:02,14:15:13,NA,incomplete,116,number,1,1,right,Blue_Circle_Dots_4.jpg,Blue_Star_Stripes_2.jpg,Purple_Plus_Chess_4.jpg,right,869.4700000050943,true,low,NA,NA,NA,NA,NA,NA,NA,false
48CMrE8d,3t5zxgo9eh1fn0t8t5nft3pt661qzj,3rrcefrb7qpe3h1ogw51t2ddwcfb44,48CMrE8d,2020-0188,2020-11-17,14:00:02,14:15:13,NA,incomplete,117,number,1,0,right,Red_Circle_Grid_1.jpg,Red_Star_Chess_3.jpg,Purple_Triangle_Dots_1.jpg,right,820.2650000166614,true,low,NA,NA,NA,NA,NA,NA,NA,false
48CMrE8d,3t5zxgo9eh1fn0t8t5nft3pt661qzj,3rrcefrb7qpe3h1ogw51t2ddwcfb44,48CMrE8d,2020-0188,2020-11-17,14:00:02,14:15:13,NA,incomplete,118,number,1,1,left,Purple_Plus_Chess_1.jpg,Green_Circle_Stripes_1.jpg,Purple_Star_Dots_3.jpg,right,742.6449999911711,false,low,NA,NA,NA,NA,NA,NA,NA,false
48CMrE8d,3t5zxgo9eh1fn0t8t5nft3pt661qzj,3rrcefrb7qpe3h1ogw51t2ddwcfb44,48CMrE8d,2020-0188,2020-11-17,14:00:02,14:15:13,NA,incomplete,119,number,1,1,left,Purple_Star_Dots_1.jpg,Green_Triangle_Chess_1.jpg,Purple_Plus_Grid_4.jpg,left,757.6700000208803,true,low,NA,NA,NA,NA,NA,NA,NA,false
48CMrE8d,3t5zxgo9eh1fn0t8t5nft3pt661qzj,3rrcefrb7qpe3h1ogw51t2ddwcfb44,48CMrE8d,2020-0188,2020-11-17,14:00:02,14:15:13,NA,incomplete,120,race,2,1,left,C_F_16.jpg,C_M_04.jpg,A_F_08.jpg,NA,NA,NA,low,NA,NA,NA,NA,NA,NA,NA,false
48CMrE8d,3t5zxgo9eh1fn0t8t5nft3pt661qzj,3rrcefrb7qpe3h1ogw51t2ddwcfb44,48CMrE8d,2020-0188,2020-11-17,14:00:02,14:15:13,NA,incomplete,121,race,2,1,left,C_F_10.jpg,C_M_03.jpg,A_F_11.jpg,right,888.6399999901187,false,low,NA,NA,NA,NA,NA,NA,NA,false
48CMrE8d,3t5zxgo9eh1fn0t8t5nft3pt661qzj,3rrcefrb7qpe3h1ogw51t2ddwcfb44,48CMrE8d,2020-0188,2020-11-17,14:00:02,14:15:13,NA,incomplete,122,race,2,1,left,A_F_14.jpg,A_M_05.jpg,C_F_11.jpg,right,662.9400000092573,false,low,NA,NA,NA,NA,NA,NA,NA,false
48CMrE8d,3t5zxgo9eh1fn0t8t5nft3pt661qzj,3rrcefrb7qpe3h1ogw51t2ddwcfb44,48CMrE8d,2020-0188,2020-11-17,14:00:02,14:15:13,NA,incomplete,123,race,2,1,left,C_F_05.jpg,C_M_13.jpg,A_F_06.jpg,left,660.8200000191573,true,low,NA,NA,NA,NA,NA,NA,NA,false
48CMrE8d,3t5zxgo9eh1fn0t8t5nft3pt661qzj,3rrcefrb7qpe3h1ogw51t2ddwcfb44,48CMrE8d,2020-0188,2020-11-17,14:00:02,14:15:13,NA,incomplete,124,race,2,1,right,C_F_16.jpg,A_F_15.jpg,C_M_06.jpg,left,579.9350000161212,false,low,NA,NA,NA,NA,NA,NA,NA,false
48CMrE8d,3t5zxgo9eh1fn0t8t5nft3pt661qzj,3rrcefrb7qpe3h1ogw51t2ddwcfb44,48CMrE8d,2020-0188,2020-11-17,14:00:02,14:15:13,NA,incomplete,125,race,2,1,right,A_M_07.jpg,C_M_15.jpg,A_F_01.jpg,right,852.2250000096392,true,low,NA,NA,NA,NA,NA,NA,NA,false
48CMrE8d,3t5zxgo9eh1fn0t8t5nft3pt661qzj,3rrcefrb7qpe3h1ogw51t2ddwcfb44,48CMrE8d,2020-0188,2020-11-17,14:00:02,14:15:13,NA,incomplete,126,race,2,1,right,A_M_15.jpg,C_M_02.jpg,A_F_09.jpg,right,730.3000000247266,true,low,NA,NA,NA,NA,NA,NA,NA,false
48CMrE8d,3t5zxgo9eh1fn0t8t5nft3pt661qzj,3rrcefrb7qpe3h1ogw51t2ddwcfb44,48CMrE8d,2020-0188,2020-11-17,14:00:02,14:15:13,NA,incomplete,127,race,2,1,left,A_F_11.jpg,A_M_03.jpg,C_F_14.jpg,right,591.5849999873899,false,low,NA,NA,NA,NA,NA,NA,NA,false
48CMrE8d,3t5zxgo9eh1fn0t8t5nft3pt661qzj,3rrcefrb7qpe3h1ogw51t2ddwcfb44,48CMrE8d,2020-0188,2020-11-17,14:00:02,14:15:13,NA,incomplete,128,race,2,1,left,A_M_01.jpg,A_F_16.jpg,C_M_06.jpg,left,866.5050000126939,true,low,NA,NA,NA,NA,NA,NA,NA,false
48CMrE8d,3t5zxgo9eh1fn0t8t5nft3pt661qzj,3rrcefrb7qpe3h1ogw51t2ddwcfb44,48CMrE8d,2020-0188,2020-11-17,14:00:02,14:15:13,NA,incomplete,129,race,2,1,left,A_F_05.jpg,A_M_12.jpg,C_F_06.jpg,left,705.3200000082143,true,low,NA,NA,NA,NA,NA,NA,NA,false
48CMrE8d,3t5zxgo9eh1fn0t8t5nft3pt661qzj,3rrcefrb7qpe3h1ogw51t2ddwcfb44,48CMrE8d,2020-0188,2020-11-17,14:00:02,14:15:13,NA,incomplete,130,race,2,1,right,C_M_08.jpg,A_M_07.jpg,C_F_03.jpg,left,713.225000014063,false,low,NA,NA,NA,NA,NA,NA,NA,false
48CMrE8d,3t5zxgo9eh1fn0t8t5nft3pt661qzj,3rrcefrb7qpe3h1ogw51t2ddwcfb44,48CMrE8d,2020-0188,2020-11-17,14:00:02,14:15:13,NA,incomplete,131,race,2,0,left,A_M_08.jpg,A_F_12.jpg,C_M_07.jpg,right,734.0249999833759,false,low,NA,NA,NA,NA,NA,NA,NA,false
48CMrE8d,3t5zxgo9eh1fn0t8t5nft3pt661qzj,3rrcefrb7qpe3h1ogw51t2ddwcfb44,48CMrE8d,2020-0188,2020-11-17,14:00:02,14:15:13,NA,incomplete,132,race,2,1,right,C_M_06.jpg,A_M_07.jpg,C_F_10.jpg,right,753.9300000062212,true,low,NA,NA,NA,NA,NA,NA,NA,false
48CMrE8d,3t5zxgo9eh1fn0t8t5nft3pt661qzj,3rrcefrb7qpe3h1ogw51t2ddwcfb44,48CMrE8d,2020-0188,2020-11-17,14:00:02,14:15:13,NA,incomplete,133,race,2,0,right,A_M_16.jpg,C_M_02.jpg,A_F_03.jpg,left,710.5849999934435,false,low,NA,NA,NA,NA,NA,NA,NA,false
48CMrE8d,3t5zxgo9eh1fn0t8t5nft3pt661qzj,3rrcefrb7qpe3h1ogw51t2ddwcfb44,48CMrE8d,2020-0188,2020-11-17,14:00:02,14:15:13,NA,incomplete,134,race,2,1,left,A_F_08.jpg,A_M_13.jpg,C_F_11.jpg,right,741.4449999923818,false,low,NA,NA,NA,NA,NA,NA,NA,false
48CMrE8d,3t5zxgo9eh1fn0t8t5nft3pt661qzj,3rrcefrb7qpe3h1ogw51t2ddwcfb44,48CMrE8d,2020-0188,2020-11-17,14:00:02,14:15:13,NA,incomplete,135,race,2,1,left,A_M_14.jpg,A_F_04.jpg,C_M_06.jpg,left,766.879999981029,true,low,NA,NA,NA,NA,NA,NA,NA,false
48CMrE8d,3t5zxgo9eh1fn0t8t5nft3pt661qzj,3rrcefrb7qpe3h1ogw51t2ddwcfb44,48CMrE8d,2020-0188,2020-11-17,14:00:02,14:15:13,NA,incomplete,136,race,2,0,right,A_M_08.jpg,C_M_01.jpg,A_F_02.jpg,right,777.3600000073202,true,low,NA,NA,NA,NA,NA,NA,NA,false
48CMrE8d,3t5zxgo9eh1fn0t8t5nft3pt661qzj,3rrcefrb7qpe3h1ogw51t2ddwcfb44,48CMrE8d,2020-0188,2020-11-17,14:00:02,14:15:13,NA,incomplete,137,race,2,1,left,C_M_04.jpg,C_F_14.jpg,A_M_05.jpg,right,886.5899999800604,false,low,NA,NA,NA,NA,NA,NA,NA,false
48CMrE8d,3t5zxgo9eh1fn0t8t5nft3pt661qzj,3rrcefrb7qpe3h1ogw51t2ddwcfb44,48CMrE8d,2020-0188,2020-11-17,14:00:02,14:15:13,NA,incomplete,138,race,2,1,left,C_M_06.jpg,C_F_09.jpg,A_M_04.jpg,right,682.2150000080001,false,low,NA,NA,NA,NA,NA,NA,NA,false
48CMrE8d,3t5zxgo9eh1fn0t8t5nft3pt661qzj,3rrcefrb7qpe3h1ogw51t2ddwcfb44,48CMrE8d,2020-0188,2020-11-17,14:00:02,14:15:13,NA,incomplete,139,race,2,1,left,C_F_08.jpg,C_M_10.jpg,A_F_07.jpg,left,823.6500000057276,true,low,NA,NA,NA,NA,NA,NA,NA,false
48CMrE8d,3t5zxgo9eh1fn0t8t5nft3pt661qzj,3rrcefrb7qpe3h1ogw51t2ddwcfb44,48CMrE8d,2020-0188,2020-11-17,14:00:02,14:15:13,NA,incomplete,140,gender,3,1,left,A_F_03.jpg,C_F_10.jpg,A_M_08.jpg,left,766.4400000066962,true,low,NA,NA,NA,NA,NA,NA,NA,false
48CMrE8d,3t5zxgo9eh1fn0t8t5nft3pt661qzj,3rrcefrb7qpe3h1ogw51t2ddwcfb44,48CMrE8d,2020-0188,2020-11-17,14:00:02,14:15:13,NA,incomplete,141,gender,3,1,left,C_M_13.jpg,A_M_06.jpg,C_F_15.jpg,right,774.440000008326,false,low,NA,NA,NA,NA,NA,NA,NA,false
48CMrE8d,3t5zxgo9eh1fn0t8t5nft3pt661qzj,3rrcefrb7qpe3h1ogw51t2ddwcfb44,48CMrE8d,2020-0188,2020-11-17,14:00:02,14:15:13,NA,incomplete,142,gender,3,1,left,C_M_08.jpg,A_M_02.jpg,C_F_06.jpg,left,636.209999996936,true,low,NA,NA,NA,NA,NA,NA,NA,false
48CMrE8d,3t5zxgo9eh1fn0t8t5nft3pt661qzj,3rrcefrb7qpe3h1ogw51t2ddwcfb44,48CMrE8d,2020-0188,2020-11-17,14:00:02,14:15:13,NA,incomplete,143,gender,3,1,right,C_F_10.jpg,C_M_12.jpg,A_F_09.jpg,right,879.7749999794178,true,low,NA,NA,NA,NA,NA,NA,NA,false
48CMrE8d,3t5zxgo9eh1fn0t8t5nft3pt661qzj,3rrcefrb7qpe3h1ogw51t2ddwcfb44,48CMrE8d,2020-0188,2020-11-17,14:00:02,14:15:13,NA,incomplete,144,gender,3,1,right,C_F_06.jpg,C_M_02.jpg,A_F_13.jpg,right,632.805000001099,true,low,NA,NA,NA,NA,NA,NA,NA,false
48CMrE8d,3t5zxgo9eh1fn0t8t5nft3pt661qzj,3rrcefrb7qpe3h1ogw51t2ddwcfb44,48CMrE8d,2020-0188,2020-11-17,14:00:02,14:15:13,NA,incomplete,145,gender,3,1,left,C_M_14.jpg,A_M_06.jpg,C_F_07.jpg,right,934.8800000152551,false,low,NA,NA,NA,NA,NA,NA,NA,false
48CMrE8d,3t5zxgo9eh1fn0t8t5nft3pt661qzj,3rrcefrb7qpe3h1ogw51t2ddwcfb44,48CMrE8d,2020-0188,2020-11-17,14:00:02,14:15:13,NA,incomplete,146,gender,3,1,right,C_M_13.jpg,C_F_01.jpg,A_M_07.jpg,right,777.3549999983516,true,low,NA,NA,NA,NA,NA,NA,NA,false
48CMrE8d,3t5zxgo9eh1fn0t8t5nft3pt661qzj,3rrcefrb7qpe3h1ogw51t2ddwcfb44,48CMrE8d,2020-0188,2020-11-17,14:00:02,14:15:13,NA,incomplete,147,gender,3,1,left,A_F_03.jpg,C_F_08.jpg,A_M_12.jpg,left,699.2949999985285,true,low,NA,NA,NA,NA,NA,NA,NA,false
48CMrE8d,3t5zxgo9eh1fn0t8t5nft3pt661qzj,3rrcefrb7qpe3h1ogw51t2ddwcfb44,48CMrE8d,2020-0188,2020-11-17,14:00:02,14:15:13,NA,incomplete,148,gender,3,0,right,C_F_03.jpg,C_M_08.jpg,A_F_12.jpg,left,772.850000008475,false,low,NA,NA,NA,NA,NA,NA,NA,false
48CMrE8d,3t5zxgo9eh1fn0t8t5nft3pt661qzj,3rrcefrb7qpe3h1ogw51t2ddwcfb44,48CMrE8d,2020-0188,2020-11-17,14:00:02,14:15:13,NA,incomplete,149,gender,3,1,left,A_F_03.jpg,C_F_01.jpg,A_M_08.jpg,left,866.2249999761116,true,low,NA,NA,NA,NA,NA,NA,NA,false
48CMrE8d,3t5zxgo9eh1fn0t8t5nft3pt661qzj,3rrcefrb7qpe3h1ogw51t2ddwcfb44,48CMrE8d,2020-0188,2020-11-17,14:00:02,14:15:13,NA,incomplete,150,gender,3,1,right,A_M_15.jpg,A_F_12.jpg,C_M_14.jpg,right,664.1649999946821,true,low,NA,NA,NA,NA,NA,NA,NA,false
48CMrE8d,3t5zxgo9eh1fn0t8t5nft3pt661qzj,3rrcefrb7qpe3h1ogw51t2ddwcfb44,48CMrE8d,2020-0188,2020-11-17,14:00:02,14:15:13,NA,incomplete,151,gender,3,1,left,A_F_16.jpg,C_F_04.jpg,A_M_13.jpg,right,755.9199999959674,false,low,NA,NA,NA,NA,NA,NA,NA,false
48CMrE8d,3t5zxgo9eh1fn0t8t5nft3pt661qzj,3rrcefrb7qpe3h1ogw51t2ddwcfb44,48CMrE8d,2020-0188,2020-11-17,14:00:02,14:15:13,NA,incomplete,152,gender,3,1,right,A_F_16.jpg,A_M_03.jpg,C_F_06.jpg,right,750.9000000136439,true,low,NA,NA,NA,NA,NA,NA,NA,false
48CMrE8d,3t5zxgo9eh1fn0t8t5nft3pt661qzj,3rrcefrb7qpe3h1ogw51t2ddwcfb44,48CMrE8d,2020-0188,2020-11-17,14:00:02,14:15:13,NA,incomplete,153,gender,3,1,right,C_F_06.jpg,C_M_13.jpg,A_F_16.jpg,right,655.3549999953248,true,low,NA,NA,NA,NA,NA,NA,NA,false
48CMrE8d,3t5zxgo9eh1fn0t8t5nft3pt661qzj,3rrcefrb7qpe3h1ogw51t2ddwcfb44,48CMrE8d,2020-0188,2020-11-17,14:00:02,14:15:13,NA,incomplete,154,gender,3,1,left,A_M_11.jpg,C_M_09.jpg,A_F_15.jpg,left,785.6899999896996,true,low,NA,NA,NA,NA,NA,NA,NA,false
48CMrE8d,3t5zxgo9eh1fn0t8t5nft3pt661qzj,3rrcefrb7qpe3h1ogw51t2ddwcfb44,48CMrE8d,2020-0188,2020-11-17,14:00:02,14:15:13,NA,incomplete,155,gender,3,1,left,A_F_06.jpg,C_F_03.jpg,A_M_15.jpg,left,710.5100000044331,true,low,NA,NA,NA,NA,NA,NA,NA,false
48CMrE8d,3t5zxgo9eh1fn0t8t5nft3pt661qzj,3rrcefrb7qpe3h1ogw51t2ddwcfb44,48CMrE8d,2020-0188,2020-11-17,14:00:02,14:15:13,NA,incomplete,156,gender,3,1,left,A_F_03.jpg,C_F_13.jpg,A_M_15.jpg,left,489.80999999912456,true,low,NA,NA,NA,NA,NA,NA,NA,false
48CMrE8d,3t5zxgo9eh1fn0t8t5nft3pt661qzj,3rrcefrb7qpe3h1ogw51t2ddwcfb44,48CMrE8d,2020-0188,2020-11-17,14:00:02,14:15:13,NA,incomplete,157,gender,3,1,right,C_M_11.jpg,C_F_05.jpg,A_M_13.jpg,right,444.0349999931641,true,low,NA,NA,NA,NA,NA,NA,NA,false
48CMrE8d,3t5zxgo9eh1fn0t8t5nft3pt661qzj,3rrcefrb7qpe3h1ogw51t2ddwcfb44,48CMrE8d,2020-0188,2020-11-17,14:00:02,14:15:13,NA,incomplete,158,gender,3,1,right,C_M_07.jpg,C_F_13.jpg,A_M_15.jpg,right,520.3599999949802,true,low,NA,NA,NA,NA,NA,NA,NA,false
48CMrE8d,3t5zxgo9eh1fn0t8t5nft3pt661qzj,3rrcefrb7qpe3h1ogw51t2ddwcfb44,48CMrE8d,2020-0188,2020-11-17,14:00:02,14:15:13,NA,incomplete,159,gender,3,1,right,A_F_15.jpg,A_M_02.jpg,C_F_03.jpg,right,591.4800000027753,true,low,NA,NA,NA,NA,NA,NA,NA,false
48CMrE8d,3t5zxgo9eh1fn0t8t5nft3pt661qzj,3rrcefrb7qpe3h1ogw51t2ddwcfb44,48CMrE8d,2020-0188,2020-11-17,14:00:02,14:15:13,NA,incomplete,160,race,2,0,left,A_M_08.jpg,A_F_05.jpg,C_M_10.jpg,right,646.9250000081956,false,low,NA,NA,NA,NA,NA,NA,NA,false
48CMrE8d,3t5zxgo9eh1fn0t8t5nft3pt661qzj,3rrcefrb7qpe3h1ogw51t2ddwcfb44,48CMrE8d,2020-0188,2020-11-17,14:00:02,14:15:13,NA,incomplete,161,race,2,1,right,C_M_12.jpg,A_M_08.jpg,C_F_11.jpg,left,682.0850000076462,false,low,NA,NA,NA,NA,NA,NA,NA,false
48CMrE8d,3t5zxgo9eh1fn0t8t5nft3pt661qzj,3rrcefrb7qpe3h1ogw51t2ddwcfb44,48CMrE8d,2020-0188,2020-11-17,14:00:02,14:15:13,NA,incomplete,162,race,2,1,left,A_F_16.jpg,A_M_08.jpg,C_F_14.jpg,left,685.620000003837,true,low,NA,NA,NA,NA,NA,NA,NA,false
48CMrE8d,3t5zxgo9eh1fn0t8t5nft3pt661qzj,3rrcefrb7qpe3h1ogw51t2ddwcfb44,48CMrE8d,2020-0188,2020-11-17,14:00:02,14:15:13,NA,incomplete,163,race,2,0,right,C_M_11.jpg,A_M_04.jpg,C_F_03.jpg,right,678.699999989476,true,low,NA,NA,NA,NA,NA,NA,NA,false
48CMrE8d,3t5zxgo9eh1fn0t8t5nft3pt661qzj,3rrcefrb7qpe3h1ogw51t2ddwcfb44,48CMrE8d,2020-0188,2020-11-17,14:00:02,14:15:13,NA,incomplete,164,race,2,1,left,C_M_13.jpg,C_F_02.jpg,A_M_14.jpg,right,831.7800000077114,false,low,NA,NA,NA,NA,NA,NA,NA,false
48CMrE8d,3t5zxgo9eh1fn0t8t5nft3pt661qzj,3rrcefrb7qpe3h1ogw51t2ddwcfb44,48CMrE8d,2020-0188,2020-11-17,14:00:02,14:15:13,NA,incomplete,165,race,2,1,left,C_M_10.jpg,C_F_15.jpg,A_M_03.jpg,left,842.1899999957532,true,low,NA,NA,NA,NA,NA,NA,NA,false
48CMrE8d,3t5zxgo9eh1fn0t8t5nft3pt661qzj,3rrcefrb7qpe3h1ogw51t2ddwcfb44,48CMrE8d,2020-0188,2020-11-17,14:00:02,14:15:13,NA,incomplete,166,race,2,1,left,C_F_12.jpg,C_M_06.jpg,A_F_13.jpg,left,826.7650000052527,true,low,NA,NA,NA,NA,NA,NA,NA,false
48CMrE8d,3t5zxgo9eh1fn0t8t5nft3pt661qzj,3rrcefrb7qpe3h1ogw51t2ddwcfb44,48CMrE8d,2020-0188,2020-11-17,14:00:02,14:15:13,NA,incomplete,167,race,2,1,left,A_M_01.jpg,A_F_16.jpg,C_M_09.jpg,left,729.2549999838229,true,low,NA,NA,NA,NA,NA,NA,NA,false
48CMrE8d,3t5zxgo9eh1fn0t8t5nft3pt661qzj,3rrcefrb7qpe3h1ogw51t2ddwcfb44,48CMrE8d,2020-0188,2020-11-17,14:00:02,14:15:13,NA,incomplete,168,race,2,1,right,A_M_03.jpg,C_M_10.jpg,A_F_16.jpg,right,810.284999985015,true,low,NA,NA,NA,NA,NA,NA,NA,false
48CMrE8d,3t5zxgo9eh1fn0t8t5nft3pt661qzj,3rrcefrb7qpe3h1ogw51t2ddwcfb44,48CMrE8d,2020-0188,2020-11-17,14:00:02,14:15:13,NA,incomplete,169,race,2,0,left,C_F_12.jpg,C_M_11.jpg,A_F_16.jpg,left,707.9849999863654,true,low,NA,NA,NA,NA,NA,NA,NA,false
48CMrE8d,3t5zxgo9eh1fn0t8t5nft3pt661qzj,3rrcefrb7qpe3h1ogw51t2ddwcfb44,48CMrE8d,2020-0188,2020-11-17,14:00:02,14:15:13,NA,incomplete,170,race,2,1,right,A_F_04.jpg,C_F_15.jpg,A_M_11.jpg,left,897.949999984121,false,low,NA,NA,NA,NA,NA,NA,NA,false
48CMrE8d,3t5zxgo9eh1fn0t8t5nft3pt661qzj,3rrcefrb7qpe3h1ogw51t2ddwcfb44,48CMrE8d,2020-0188,2020-11-17,14:00:02,14:15:13,NA,incomplete,171,race,2,1,right,C_F_16.jpg,A_F_02.jpg,C_M_15.jpg,left,693.2600000000093,false,low,NA,NA,NA,NA,NA,NA,NA,false
48CMrE8d,3t5zxgo9eh1fn0t8t5nft3pt661qzj,3rrcefrb7qpe3h1ogw51t2ddwcfb44,48CMrE8d,2020-0188,2020-11-17,14:00:02,14:15:13,NA,incomplete,172,race,2,0,right,A_F_03.jpg,C_F_16.jpg,A_M_14.jpg,right,867.805000016233,true,low,NA,NA,NA,NA,NA,NA,NA,false
48CMrE8d,3t5zxgo9eh1fn0t8t5nft3pt661qzj,3rrcefrb7qpe3h1ogw51t2ddwcfb44,48CMrE8d,2020-0188,2020-11-17,14:00:02,14:15:13,NA,incomplete,173,race,2,1,left,C_M_13.jpg,C_F_11.jpg,A_M_04.jpg,right,1147.5800000189338,false,low,NA,NA,NA,NA,NA,NA,NA,false
48CMrE8d,3t5zxgo9eh1fn0t8t5nft3pt661qzj,3rrcefrb7qpe3h1ogw51t2ddwcfb44,48CMrE8d,2020-0188,2020-11-17,14:00:02,14:15:13,NA,incomplete,174,race,2,1,left,A_M_10.jpg,A_F_15.jpg,C_M_16.jpg,left,812.434999999823,true,low,NA,NA,NA,NA,NA,NA,NA,false
48CMrE8d,3t5zxgo9eh1fn0t8t5nft3pt661qzj,3rrcefrb7qpe3h1ogw51t2ddwcfb44,48CMrE8d,2020-0188,2020-11-17,14:00:02,14:15:13,NA,incomplete,175,race,2,1,right,A_M_01.jpg,C_M_15.jpg,A_F_07.jpg,right,971.0550000017975,true,low,NA,NA,NA,NA,NA,NA,NA,false
48CMrE8d,3t5zxgo9eh1fn0t8t5nft3pt661qzj,3rrcefrb7qpe3h1ogw51t2ddwcfb44,48CMrE8d,2020-0188,2020-11-17,14:00:02,14:15:13,NA,incomplete,176,race,2,1,right,C_F_06.jpg,A_F_13.jpg,C_M_01.jpg,right,771.9649999926332,true,low,NA,NA,NA,NA,NA,NA,NA,false
48CMrE8d,3t5zxgo9eh1fn0t8t5nft3pt661qzj,3rrcefrb7qpe3h1ogw51t2ddwcfb44,48CMrE8d,2020-0188,2020-11-17,14:00:02,14:15:13,NA,incomplete,177,race,2,0,right,A_F_16.jpg,C_F_05.jpg,A_M_12.jpg,right,1004.0600000065751,true,low,NA,NA,NA,NA,NA,NA,NA,false
48CMrE8d,3t5zxgo9eh1fn0t8t5nft3pt661qzj,3rrcefrb7qpe3h1ogw51t2ddwcfb44,48CMrE8d,2020-0188,2020-11-17,14:00:02,14:15:13,NA,incomplete,178,race,2,1,left,C_M_07.jpg,C_F_11.jpg,A_M_08.jpg,left,832.9049999883864,true,low,NA,NA,NA,NA,NA,NA,NA,false
48CMrE8d,3t5zxgo9eh1fn0t8t5nft3pt661qzj,3rrcefrb7qpe3h1ogw51t2ddwcfb44,48CMrE8d,2020-0188,2020-11-17,14:00:02,14:15:13,NA,incomplete,179,race,2,0,right,A_M_08.jpg,C_M_04.jpg,A_F_14.jpg,right,795.0450000062119,true,low,NA,NA,NA,NA,NA,NA,NA,false
48CMrE8d,3t5zxgo9eh1fn0t8t5nft3pt661qzj,3rrcefrb7qpe3h1ogw51t2ddwcfb44,48CMrE8d,2020-0188,2020-11-17,14:00:02,14:15:13,NA,incomplete,180,gender,3,1,left,C_F_03.jpg,A_F_16.jpg,C_M_11.jpg,right,830.8149999938905,false,low,NA,NA,NA,NA,NA,NA,NA,false
48CMrE8d,3t5zxgo9eh1fn0t8t5nft3pt661qzj,3rrcefrb7qpe3h1ogw51t2ddwcfb44,48CMrE8d,2020-0188,2020-11-17,14:00:02,14:15:13,NA,incomplete,181,gender,3,0,right,C_M_16.jpg,C_F_15.jpg,A_M_12.jpg,right,712.230000004638,true,low,NA,NA,NA,NA,NA,NA,NA,false
48CMrE8d,3t5zxgo9eh1fn0t8t5nft3pt661qzj,3rrcefrb7qpe3h1ogw51t2ddwcfb44,48CMrE8d,2020-0188,2020-11-17,14:00:02,14:15:13,NA,incomplete,182,gender,3,1,right,A_M_01.jpg,A_F_04.jpg,C_M_05.jpg,left,620.8700000133831,false,low,NA,NA,NA,NA,NA,NA,NA,false
48CMrE8d,3t5zxgo9eh1fn0t8t5nft3pt661qzj,3rrcefrb7qpe3h1ogw51t2ddwcfb44,48CMrE8d,2020-0188,2020-11-17,14:00:02,14:15:13,NA,incomplete,183,gender,3,1,right,A_M_11.jpg,A_F_03.jpg,C_M_05.jpg,right,491.9499999959953,true,low,NA,NA,NA,NA,NA,NA,NA,false
48CMrE8d,3t5zxgo9eh1fn0t8t5nft3pt661qzj,3rrcefrb7qpe3h1ogw51t2ddwcfb44,48CMrE8d,2020-0188,2020-11-17,14:00:02,14:15:13,NA,incomplete,184,gender,3,0,right,C_F_15.jpg,C_M_06.jpg,A_F_14.jpg,right,636.4149999863002,true,low,NA,NA,NA,NA,NA,NA,NA,false
48CMrE8d,3t5zxgo9eh1fn0t8t5nft3pt661qzj,3rrcefrb7qpe3h1ogw51t2ddwcfb44,48CMrE8d,2020-0188,2020-11-17,14:00:02,14:15:13,NA,incomplete,185,gender,3,1,left,A_F_06.jpg,C_F_03.jpg,A_M_02.jpg,left,572.8750000125729,true,low,NA,NA,NA,NA,NA,NA,NA,false
48CMrE8d,3t5zxgo9eh1fn0t8t5nft3pt661qzj,3rrcefrb7qpe3h1ogw51t2ddwcfb44,48CMrE8d,2020-0188,2020-11-17,14:00:02,14:15:13,NA,incomplete,186,gender,3,1,right,A_M_13.jpg,A_F_04.jpg,C_M_01.jpg,right,674.3549999955576,true,low,NA,NA,NA,NA,NA,NA,NA,false
48CMrE8d,3t5zxgo9eh1fn0t8t5nft3pt661qzj,3rrcefrb7qpe3h1ogw51t2ddwcfb44,48CMrE8d,2020-0188,2020-11-17,14:00:02,14:15:13,NA,incomplete,187,gender,3,1,left,C_M_06.jpg,A_M_15.jpg,C_F_14.jpg,left,685.6399999815039,true,low,NA,NA,NA,NA,NA,NA,NA,false
48CMrE8d,3t5zxgo9eh1fn0t8t5nft3pt661qzj,3rrcefrb7qpe3h1ogw51t2ddwcfb44,48CMrE8d,2020-0188,2020-11-17,14:00:02,14:15:13,NA,incomplete,188,gender,3,0,left,A_M_16.jpg,C_M_15.jpg,A_F_05.jpg,left,680.6999999971595,true,low,NA,NA,NA,NA,NA,NA,NA,false
48CMrE8d,3t5zxgo9eh1fn0t8t5nft3pt661qzj,3rrcefrb7qpe3h1ogw51t2ddwcfb44,48CMrE8d,2020-0188,2020-11-17,14:00:02,14:15:13,NA,incomplete,189,gender,3,1,left,A_M_15.jpg,C_M_11.jpg,A_F_12.jpg,left,663.3000000147149,true,low,NA,NA,NA,NA,NA,NA,NA,false
48CMrE8d,3t5zxgo9eh1fn0t8t5nft3pt661qzj,3rrcefrb7qpe3h1ogw51t2ddwcfb44,48CMrE8d,2020-0188,2020-11-17,14:00:02,14:15:13,NA,incomplete,190,gender,3,0,left,A_F_02.jpg,C_F_03.jpg,A_M_12.jpg,left,621.1850000254344,true,low,NA,NA,NA,NA,NA,NA,NA,false
48CMrE8d,3t5zxgo9eh1fn0t8t5nft3pt661qzj,3rrcefrb7qpe3h1ogw51t2ddwcfb44,48CMrE8d,2020-0188,2020-11-17,14:00:02,14:15:13,NA,incomplete,191,gender,3,1,left,A_F_07.jpg,C_F_16.jpg,A_M_12.jpg,right,804.0149999724235,false,low,NA,NA,NA,NA,NA,NA,NA,false
48CMrE8d,3t5zxgo9eh1fn0t8t5nft3pt661qzj,3rrcefrb7qpe3h1ogw51t2ddwcfb44,48CMrE8d,2020-0188,2020-11-17,14:00:02,14:15:13,NA,incomplete,192,gender,3,0,left,C_F_06.jpg,A_F_09.jpg,C_M_10.jpg,left,661.6700000013225,true,low,NA,NA,NA,NA,NA,NA,NA,false
48CMrE8d,3t5zxgo9eh1fn0t8t5nft3pt661qzj,3rrcefrb7qpe3h1ogw51t2ddwcfb44,48CMrE8d,2020-0188,2020-11-17,14:00:02,14:15:13,NA,incomplete,193,gender,3,1,left,C_F_06.jpg,A_F_07.jpg,C_M_09.jpg,left,670.125000004191,true,low,NA,NA,NA,NA,NA,NA,NA,false
48CMrE8d,3t5zxgo9eh1fn0t8t5nft3pt661qzj,3rrcefrb7qpe3h1ogw51t2ddwcfb44,48CMrE8d,2020-0188,2020-11-17,14:00:02,14:15:13,NA,incomplete,194,gender,3,1,left,C_F_10.jpg,A_F_05.jpg,C_M_07.jpg,left,502.9649999924004,true,low,NA,NA,NA,NA,NA,NA,NA,false
48CMrE8d,3t5zxgo9eh1fn0t8t5nft3pt661qzj,3rrcefrb7qpe3h1ogw51t2ddwcfb44,48CMrE8d,2020-0188,2020-11-17,14:00:02,14:15:13,NA,incomplete,195,gender,3,1,left,A_M_15.jpg,C_M_08.jpg,A_F_10.jpg,left,620.4650000145193,true,low,NA,NA,NA,NA,NA,NA,NA,false
48CMrE8d,3t5zxgo9eh1fn0t8t5nft3pt661qzj,3rrcefrb7qpe3h1ogw51t2ddwcfb44,48CMrE8d,2020-0188,2020-11-17,14:00:02,14:15:13,NA,incomplete,196,gender,3,0,right,C_M_07.jpg,C_F_03.jpg,A_M_01.jpg,left,263.59499999671243,false,low,NA,NA,NA,NA,NA,NA,NA,false
48CMrE8d,3t5zxgo9eh1fn0t8t5nft3pt661qzj,3rrcefrb7qpe3h1ogw51t2ddwcfb44,48CMrE8d,2020-0188,2020-11-17,14:00:02,14:15:13,NA,incomplete,197,gender,3,1,right,C_F_08.jpg,C_M_02.jpg,A_F_15.jpg,right,711.9050000037532,true,low,NA,NA,NA,NA,NA,NA,NA,false
48CMrE8d,3t5zxgo9eh1fn0t8t5nft3pt661qzj,3rrcefrb7qpe3h1ogw51t2ddwcfb44,48CMrE8d,2020-0188,2020-11-17,14:00:02,14:15:13,NA,incomplete,198,gender,3,0,right,A_M_07.jpg,A_F_12.jpg,C_M_14.jpg,left,820.5599999928381,false,low,NA,NA,NA,NA,NA,NA,NA,false
48CMrE8d,3t5zxgo9eh1fn0t8t5nft3pt661qzj,3rrcefrb7qpe3h1ogw51t2ddwcfb44,48CMrE8d,2020-0188,2020-11-17,14:00:02,14:15:13,NA,incomplete,199,gender,3,1,right,C_M_07.jpg,C_F_09.jpg,A_M_13.jpg,right,651.7750000057276,true,low,NA,NA,NA,NA,NA,NA,NA,false
48CMrE8d,3t5zxgo9eh1fn0t8t5nft3pt661qzj,3rrcefrb7qpe3h1ogw51t2ddwcfb44,48CMrE8d,2020-0188,2020-11-17,14:00:02,14:15:13,NA,incomplete,200,race,2,0,left,C_M_03.jpg,C_F_10.jpg,A_M_13.jpg,left,520.5750000022817,true,low,NA,NA,NA,NA,NA,NA,NA,false
48CMrE8d,3t5zxgo9eh1fn0t8t5nft3pt661qzj,3rrcefrb7qpe3h1ogw51t2ddwcfb44,48CMrE8d,2020-0188,2020-11-17,14:00:02,14:15:13,NA,incomplete,201,race,2,1,left,A_F_05.jpg,A_M_04.jpg,C_F_02.jpg,left,572.8999999992084,true,low,NA,NA,NA,NA,NA,NA,NA,false
48CMrE8d,3t5zxgo9eh1fn0t8t5nft3pt661qzj,3rrcefrb7qpe3h1ogw51t2ddwcfb44,48CMrE8d,2020-0188,2020-11-17,14:00:02,14:15:13,NA,incomplete,202,race,2,1,left,C_M_10.jpg,C_F_02.jpg,A_M_12.jpg,left,475.42000000248663,true,low,NA,NA,NA,NA,NA,NA,NA,false
48CMrE8d,3t5zxgo9eh1fn0t8t5nft3pt661qzj,3rrcefrb7qpe3h1ogw51t2ddwcfb44,48CMrE8d,2020-0188,2020-11-17,14:00:02,14:15:13,NA,incomplete,203,race,2,1,left,A_M_12.jpg,A_F_11.jpg,C_M_06.jpg,left,586.3050000043586,true,low,NA,NA,NA,NA,NA,NA,NA,false
48CMrE8d,3t5zxgo9eh1fn0t8t5nft3pt661qzj,3rrcefrb7qpe3h1ogw51t2ddwcfb44,48CMrE8d,2020-0188,2020-11-17,14:00:02,14:15:13,NA,incomplete,204,race,2,1,right,A_M_09.jpg,C_M_11.jpg,A_F_06.jpg,left,392.52500000293367,false,low,NA,NA,NA,NA,NA,NA,NA,false
48CMrE8d,3t5zxgo9eh1fn0t8t5nft3pt661qzj,3rrcefrb7qpe3h1ogw51t2ddwcfb44,48CMrE8d,2020-0188,2020-11-17,14:00:02,14:15:13,NA,incomplete,205,race,2,0,right,A_F_12.jpg,C_F_04.jpg,A_M_03.jpg,right,388.0799999751616,true,low,NA,NA,NA,NA,NA,NA,NA,false
48CMrE8d,3t5zxgo9eh1fn0t8t5nft3pt661qzj,3rrcefrb7qpe3h1ogw51t2ddwcfb44,48CMrE8d,2020-0188,2020-11-17,14:00:02,14:15:13,NA,incomplete,206,race,2,1,right,C_F_02.jpg,A_F_15.jpg,C_M_03.jpg,left,523.0699999956414,false,low,NA,NA,NA,NA,NA,NA,NA,false
48CMrE8d,3t5zxgo9eh1fn0t8t5nft3pt661qzj,3rrcefrb7qpe3h1ogw51t2ddwcfb44,48CMrE8d,2020-0188,2020-11-17,14:00:02,14:15:13,NA,incomplete,207,race,2,1,left,C_F_07.jpg,C_M_05.jpg,A_F_15.jpg,left,755.00999999349,true,low,NA,NA,NA,NA,NA,NA,NA,false
48CMrE8d,3t5zxgo9eh1fn0t8t5nft3pt661qzj,3rrcefrb7qpe3h1ogw51t2ddwcfb44,48CMrE8d,2020-0188,2020-11-17,14:00:02,14:15:13,NA,incomplete,208,race,2,1,left,A_M_11.jpg,A_F_07.jpg,C_M_06.jpg,left,724.0149999852292,true,low,NA,NA,NA,NA,NA,NA,NA,false
48CMrE8d,3t5zxgo9eh1fn0t8t5nft3pt661qzj,3rrcefrb7qpe3h1ogw51t2ddwcfb44,48CMrE8d,2020-0188,2020-11-17,14:00:02,14:15:13,NA,incomplete,209,race,2,1,right,C_M_06.jpg,A_M_02.jpg,C_F_04.jpg,left,854.9149999744259,false,low,NA,NA,NA,NA,NA,NA,NA,false
48CMrE8d,3t5zxgo9eh1fn0t8t5nft3pt661qzj,3rrcefrb7qpe3h1ogw51t2ddwcfb44,48CMrE8d,2020-0188,2020-11-17,14:00:02,14:15:13,NA,incomplete,210,race,2,0,left,A_M_03.jpg,A_F_10.jpg,C_M_02.jpg,left,843.6750000109896,true,low,NA,NA,NA,NA,NA,NA,NA,false
48CMrE8d,3t5zxgo9eh1fn0t8t5nft3pt661qzj,3rrcefrb7qpe3h1ogw51t2ddwcfb44,48CMrE8d,2020-0188,2020-11-17,14:00:02,14:15:13,NA,incomplete,211,race,2,1,left,A_M_02.jpg,A_F_07.jpg,C_M_01.jpg,left,778.4199999878183,true,low,NA,NA,NA,NA,NA,NA,NA,false
48CMrE8d,3t5zxgo9eh1fn0t8t5nft3pt661qzj,3rrcefrb7qpe3h1ogw51t2ddwcfb44,48CMrE8d,2020-0188,2020-11-17,14:00:02,14:15:13,NA,incomplete,212,race,2,1,right,C_M_13.jpg,A_M_10.jpg,C_F_02.jpg,right,792.4399999901652,true,low,NA,NA,NA,NA,NA,NA,NA,false
48CMrE8d,3t5zxgo9eh1fn0t8t5nft3pt661qzj,3rrcefrb7qpe3h1ogw51t2ddwcfb44,48CMrE8d,2020-0188,2020-11-17,14:00:02,14:15:13,NA,incomplete,213,race,2,0,right,A_F_08.jpg,C_F_15.jpg,A_M_02.jpg,left,737.185000005411,false,low,NA,NA,NA,NA,NA,NA,NA,false
48CMrE8d,3t5zxgo9eh1fn0t8t5nft3pt661qzj,3rrcefrb7qpe3h1ogw51t2ddwcfb44,48CMrE8d,2020-0188,2020-11-17,14:00:02,14:15:13,NA,incomplete,214,race,2,1,left,A_F_02.jpg,A_M_13.jpg,C_F_06.jpg,left,490.8899999863934,true,low,NA,NA,NA,NA,NA,NA,NA,false
48CMrE8d,3t5zxgo9eh1fn0t8t5nft3pt661qzj,3rrcefrb7qpe3h1ogw51t2ddwcfb44,48CMrE8d,2020-0188,2020-11-17,14:00:02,14:15:13,NA,incomplete,215,race,2,1,left,C_M_11.jpg,C_F_14.jpg,A_M_02.jpg,left,726.8200000107754,true,low,NA,NA,NA,NA,NA,NA,NA,false
48CMrE8d,3t5zxgo9eh1fn0t8t5nft3pt661qzj,3rrcefrb7qpe3h1ogw51t2ddwcfb44,48CMrE8d,2020-0188,2020-11-17,14:00:02,14:15:13,NA,incomplete,216,race,2,0,right,A_F_11.jpg,C_F_02.jpg,A_M_15.jpg,left,398.3099999895785,false,low,NA,NA,NA,NA,NA,NA,NA,false
48CMrE8d,3t5zxgo9eh1fn0t8t5nft3pt661qzj,3rrcefrb7qpe3h1ogw51t2ddwcfb44,48CMrE8d,2020-0188,2020-11-17,14:00:02,14:15:13,NA,incomplete,217,race,2,1,left,A_F_09.jpg,A_M_11.jpg,C_F_16.jpg,left,285.7499999809079,true,low,NA,NA,NA,NA,NA,NA,NA,false
48CMrE8d,3t5zxgo9eh1fn0t8t5nft3pt661qzj,3rrcefrb7qpe3h1ogw51t2ddwcfb44,48CMrE8d,2020-0188,2020-11-17,14:00:02,14:15:13,NA,incomplete,218,race,2,1,right,A_F_03.jpg,C_F_07.jpg,A_M_10.jpg,left,539.6199999959208,false,low,NA,NA,NA,NA,NA,NA,NA,false
48CMrE8d,3t5zxgo9eh1fn0t8t5nft3pt661qzj,3rrcefrb7qpe3h1ogw51t2ddwcfb44,48CMrE8d,2020-0188,2020-11-17,14:00:02,14:15:13,NA,incomplete,219,race,2,1,right,A_M_12.jpg,C_M_06.jpg,A_F_16.jpg,right,715.3899999975692,true,low,NA,NA,NA,NA,NA,NA,NA,false
48CMrE8d,3t5zxgo9eh1fn0t8t5nft3pt661qzj,3rrcefrb7qpe3h1ogw51t2ddwcfb44,48CMrE8d,2020-0188,2020-11-17,14:00:02,14:15:13,NA,incomplete,220,gender,3,1,right,C_F_16.jpg,C_M_05.jpg,A_F_10.jpg,right,473.1100000208244,true,low,NA,NA,NA,NA,NA,NA,NA,false
48CMrE8d,3t5zxgo9eh1fn0t8t5nft3pt661qzj,3rrcefrb7qpe3h1ogw51t2ddwcfb44,48CMrE8d,2020-0188,2020-11-17,14:00:02,14:15:13,NA,incomplete,221,gender,3,1,left,C_M_08.jpg,A_M_06.jpg,C_F_16.jpg,left,635.374999983469,true,low,NA,NA,NA,NA,NA,NA,NA,false
48CMrE8d,3t5zxgo9eh1fn0t8t5nft3pt661qzj,3rrcefrb7qpe3h1ogw51t2ddwcfb44,48CMrE8d,2020-0188,2020-11-17,14:00:02,14:15:13,NA,incomplete,222,gender,3,1,right,C_F_14.jpg,C_M_02.jpg,A_F_06.jpg,right,520.0149999873247,true,low,NA,NA,NA,NA,NA,NA,NA,false
48CMrE8d,3t5zxgo9eh1fn0t8t5nft3pt661qzj,3rrcefrb7qpe3h1ogw51t2ddwcfb44,48CMrE8d,2020-0188,2020-11-17,14:00:02,14:15:13,NA,incomplete,223,gender,3,1,left,C_F_08.jpg,A_F_13.jpg,C_M_04.jpg,right,542.2350000008009,false,low,NA,NA,NA,NA,NA,NA,NA,false
48CMrE8d,3t5zxgo9eh1fn0t8t5nft3pt661qzj,3rrcefrb7qpe3h1ogw51t2ddwcfb44,48CMrE8d,2020-0188,2020-11-17,14:00:02,14:15:13,NA,incomplete,224,gender,3,0,left,C_F_13.jpg,A_F_12.jpg,C_M_09.jpg,left,326.99000000138767,true,low,NA,NA,NA,NA,NA,NA,NA,false
48CMrE8d,3t5zxgo9eh1fn0t8t5nft3pt661qzj,3rrcefrb7qpe3h1ogw51t2ddwcfb44,48CMrE8d,2020-0188,2020-11-17,14:00:02,14:15:13,NA,incomplete,225,gender,3,1,left,A_F_06.jpg,C_F_16.jpg,A_M_02.jpg,left,549.7449999966193,true,low,NA,NA,NA,NA,NA,NA,NA,false
48CMrE8d,3t5zxgo9eh1fn0t8t5nft3pt661qzj,3rrcefrb7qpe3h1ogw51t2ddwcfb44,48CMrE8d,2020-0188,2020-11-17,14:00:02,14:15:13,NA,incomplete,226,gender,3,1,right,C_M_08.jpg,C_F_07.jpg,A_M_02.jpg,right,774.3399999744724,true,low,NA,NA,NA,NA,NA,NA,NA,false
48CMrE8d,3t5zxgo9eh1fn0t8t5nft3pt661qzj,3rrcefrb7qpe3h1ogw51t2ddwcfb44,48CMrE8d,2020-0188,2020-11-17,14:00:02,14:15:13,NA,incomplete,227,gender,3,1,right,C_F_13.jpg,C_M_15.jpg,A_F_05.jpg,right,556.7449999798555,true,low,NA,NA,NA,NA,NA,NA,NA,false
48CMrE8d,3t5zxgo9eh1fn0t8t5nft3pt661qzj,3rrcefrb7qpe3h1ogw51t2ddwcfb44,48CMrE8d,2020-0188,2020-11-17,14:00:02,14:15:13,NA,incomplete,228,gender,3,1,right,A_M_05.jpg,A_F_10.jpg,C_M_04.jpg,right,604.829999996582,true,low,NA,NA,NA,NA,NA,NA,NA,false
48CMrE8d,3t5zxgo9eh1fn0t8t5nft3pt661qzj,3rrcefrb7qpe3h1ogw51t2ddwcfb44,48CMrE8d,2020-0188,2020-11-17,14:00:02,14:15:13,NA,incomplete,229,gender,3,1,left,C_F_16.jpg,A_F_01.jpg,C_M_09.jpg,left,663.6099999886937,true,low,NA,NA,NA,NA,NA,NA,NA,false
48CMrE8d,3t5zxgo9eh1fn0t8t5nft3pt661qzj,3rrcefrb7qpe3h1ogw51t2ddwcfb44,48CMrE8d,2020-0188,2020-11-17,14:00:02,14:15:13,NA,incomplete,230,gender,3,1,right,A_F_08.jpg,A_M_01.jpg,C_F_10.jpg,right,662.3850000032689,true,low,NA,NA,NA,NA,NA,NA,NA,false
48CMrE8d,3t5zxgo9eh1fn0t8t5nft3pt661qzj,3rrcefrb7qpe3h1ogw51t2ddwcfb44,48CMrE8d,2020-0188,2020-11-17,14:00:02,14:15:13,NA,incomplete,231,gender,3,1,left,A_M_09.jpg,C_M_05.jpg,A_F_01.jpg,left,681.1799999850336,true,low,NA,NA,NA,NA,NA,NA,NA,false
48CMrE8d,3t5zxgo9eh1fn0t8t5nft3pt661qzj,3rrcefrb7qpe3h1ogw51t2ddwcfb44,48CMrE8d,2020-0188,2020-11-17,14:00:02,14:15:13,NA,incomplete,232,gender,3,1,right,A_M_09.jpg,A_F_15.jpg,C_M_06.jpg,right,594.0199999895412,true,low,NA,NA,NA,NA,NA,NA,NA,false
48CMrE8d,3t5zxgo9eh1fn0t8t5nft3pt661qzj,3rrcefrb7qpe3h1ogw51t2ddwcfb44,48CMrE8d,2020-0188,2020-11-17,14:00:02,14:15:13,NA,incomplete,233,gender,3,0,right,A_M_01.jpg,A_F_08.jpg,C_M_11.jpg,right,738.3950000221375,true,low,NA,NA,NA,NA,NA,NA,NA,false
48CMrE8d,3t5zxgo9eh1fn0t8t5nft3pt661qzj,3rrcefrb7qpe3h1ogw51t2ddwcfb44,48CMrE8d,2020-0188,2020-11-17,14:00:02,14:15:13,NA,incomplete,234,gender,3,1,left,A_F_06.jpg,C_F_13.jpg,A_M_01.jpg,left,323.4250000095926,true,low,NA,NA,NA,NA,NA,NA,NA,false
48CMrE8d,3t5zxgo9eh1fn0t8t5nft3pt661qzj,3rrcefrb7qpe3h1ogw51t2ddwcfb44,48CMrE8d,2020-0188,2020-11-17,14:00:02,14:15:13,NA,incomplete,235,gender,3,1,left,A_M_15.jpg,C_M_12.jpg,A_F_16.jpg,left,426.23000001185574,true,low,NA,NA,NA,NA,NA,NA,NA,false
48CMrE8d,3t5zxgo9eh1fn0t8t5nft3pt661qzj,3rrcefrb7qpe3h1ogw51t2ddwcfb44,48CMrE8d,2020-0188,2020-11-17,14:00:02,14:15:13,NA,incomplete,236,gender,3,1,left,A_F_12.jpg,C_F_02.jpg,A_M_15.jpg,left,397.6649999967776,true,low,NA,NA,NA,NA,NA,NA,NA,false
48CMrE8d,3t5zxgo9eh1fn0t8t5nft3pt661qzj,3rrcefrb7qpe3h1ogw51t2ddwcfb44,48CMrE8d,2020-0188,2020-11-17,14:00:02,14:15:13,NA,incomplete,237,gender,3,1,left,C_M_14.jpg,A_M_04.jpg,C_F_15.jpg,right,533.949999982724,false,low,NA,NA,NA,NA,NA,NA,NA,false
48CMrE8d,3t5zxgo9eh1fn0t8t5nft3pt661qzj,3rrcefrb7qpe3h1ogw51t2ddwcfb44,48CMrE8d,2020-0188,2020-11-17,14:00:02,14:15:13,NA,incomplete,238,gender,3,1,left,C_F_06.jpg,A_F_03.jpg,C_M_12.jpg,left,614.4449999846984,true,low,NA,NA,NA,NA,NA,NA,NA,false
48CMrE8d,3t5zxgo9eh1fn0t8t5nft3pt661qzj,3rrcefrb7qpe3h1ogw51t2ddwcfb44,48CMrE8d,2020-0188,2020-11-17,14:00:02,14:15:13,NA,incomplete,239,gender,3,1,right,C_M_12.jpg,C_F_10.jpg,A_M_03.jpg,left,403.9399999892339,false,low,NA,NA,NA,NA,NA,NA,NA,false
48CMrE8d,3t5zxgo9eh1fn0t8t5nft3pt661qzj,3rrcefrb7qpe3h1ogw51t2ddwcfb44,48CMrE8d,2020-0188,2020-11-17,14:00:02,14:15:13,NA,NA,instruction example,color,NA,NA,NA,Red_Triangle_Stripes_2.jpg,Red_Circle_Dots_1.jpg,Purple_Plus_Grid_2.jpg,NA,NA,NA,NA,NA,NA,NA,NA,NA,NA,NA,undefined
48CMrE8d,3t5zxgo9eh1fn0t8t5nft3pt661qzj,3rrcefrb7qpe3h1ogw51t2ddwcfb44,48CMrE8d,2020-0188,2020-11-17,14:00:02,14:15:13,NA,NA,instruction example,color,NA,NA,NA,Blue_Circle_Chess_2.jpg,Purple_Star_Grid_2.jpg,Blue_Triangle_Dots_3.jpg,NA,NA,NA,NA,NA,NA,NA,NA,NA,NA,NA,undefined
48CMrE8d,3t5zxgo9eh1fn0t8t5nft3pt661qzj,3rrcefrb7qpe3h1ogw51t2ddwcfb44,48CMrE8d,2020-0188,2020-11-17,14:00:02,14:15:13,NA,NA,instruction example,color,NA,NA,NA,A_F_06.jpg,A_M_15.jpg,C_F_02.jpg,NA,NA,NA,NA,NA,NA,NA,NA,NA,NA,NA,undefined
48CMrE8d,3t5zxgo9eh1fn0t8t5nft3pt661qzj,3rrcefrb7qpe3h1ogw51t2ddwcfb44,48CMrE8d,2020-0188,2020-11-17,14:00:02,14:15:13,NA,NA,instruction example,color,NA,NA,NA,C_M_05.jpg,A_M_02.jpg,C_F_04.jpg,NA,NA,NA,NA,NA,NA,NA,NA,NA,NA,NA,undefined
48CMrE8d,3t5zxgo9eh1fn0t8t5nft3pt661qzj,3rrcefrb7qpe3h1ogw51t2ddwcfb44,48CMrE8d,2020-0188,2020-11-17,14:00:02,14:15:13,886571.3649999816,911460.064999992,NA,NA,NA,NA,NA,NA,NA,NA,NA,NA,NA,NA,48,White/Caucasian,Male,American,no,no,no,undefined
