workerId,hitId,assignmentId,subject,studyid,exp_date,exp_start,exp_end,time_start,time_end,trial,type,sequence,reward_validity,answer,image_top,image_left,image_right,response,response_time,response_acc,volatility,practice
mVbtWEF8,3r6rzgk0yip7nifkjif6ljfzh4yvyd,3s3amizx3yiadicnn72p7qd1r7fdcr,mVbtWEF8,2020-0188,2020-11-16,19:36:59,19:59:09,NA,incomplete,0,shape,0,1,right,Green_Triangle_Dots_1.jpg,Blue_Star_Dots_4.jpg,Purple_Triangle_Chess_3.jpg,none,0,false,NA,true
mVbtWEF8,3r6rzgk0yip7nifkjif6ljfzh4yvyd,3s3amizx3yiadicnn72p7qd1r7fdcr,mVbtWEF8,2020-0188,2020-11-16,19:36:59,19:59:09,NA,incomplete,1,shape,0,1,right,Purple_Circle_Chess_4.jpg,Green_Plus_Chess_2.jpg,Blue_Circle_Dots_1.jpg,right,1054.9999997019768,true,NA,true
mVbtWEF8,3r6rzgk0yip7nifkjif6ljfzh4yvyd,3s3amizx3yiadicnn72p7qd1r7fdcr,mVbtWEF8,2020-0188,2020-11-16,19:36:59,19:59:09,NA,incomplete,2,shape,0,1,left,Blue_Plus_Dots_3.jpg,Green_Plus_Chess_1.jpg,Purple_Triangle_Dots_4.jpg,left,1670.0000003911555,true,NA,true
mVbtWEF8,3r6rzgk0yip7nifkjif6ljfzh4yvyd,3s3amizx3yiadicnn72p7qd1r7fdcr,mVbtWEF8,2020-0188,2020-11-16,19:36:59,19:59:09,NA,incomplete,3,shape,0,1,left,Purple_Plus_Chess_3.jpg,Red_Plus_Stripes_2.jpg,Blue_Star_Chess_4.jpg,left,1001.0000001639128,true,NA,true
mVbtWEF8,3r6rzgk0yip7nifkjif6ljfzh4yvyd,3s3amizx3yiadicnn72p7qd1r7fdcr,mVbtWEF8,2020-0188,2020-11-16,19:36:59,19:59:09,NA,incomplete,4,shape,0,1,left,Red_Star_Dots_1.jpg,Blue_Star_Stripes_3.jpg,Purple_Triangle_Dots_2.jpg,left,1075.999999884516,true,NA,true
mVbtWEF8,3r6rzgk0yip7nifkjif6ljfzh4yvyd,3s3amizx3yiadicnn72p7qd1r7fdcr,mVbtWEF8,2020-0188,2020-11-16,19:36:59,19:59:09,NA,incomplete,5,shape,0,1,left,Blue_Triangle_Stripes_4.jpg,Red_Triangle_Grid_2.jpg,Green_Star_Stripes_1.jpg,left,979.9999999813735,true,NA,true
mVbtWEF8,3r6rzgk0yip7nifkjif6ljfzh4yvyd,3s3amizx3yiadicnn72p7qd1r7fdcr,mVbtWEF8,2020-0188,2020-11-16,19:36:59,19:59:09,NA,incomplete,6,shape,0,1,right,Blue_Triangle_Dots_1.jpg,Green_Circle_Dots_2.jpg,Purple_Triangle_Grid_3.jpg,right,836.9999998249114,true,NA,true
mVbtWEF8,3r6rzgk0yip7nifkjif6ljfzh4yvyd,3s3amizx3yiadicnn72p7qd1r7fdcr,mVbtWEF8,2020-0188,2020-11-16,19:36:59,19:59:09,NA,incomplete,7,shape,0,1,right,Blue_Star_Grid_3.jpg,Green_Triangle_Grid_2.jpg,Purple_Star_Stripes_4.jpg,right,766.9999999925494,true,NA,true
mVbtWEF8,3r6rzgk0yip7nifkjif6ljfzh4yvyd,3s3amizx3yiadicnn72p7qd1r7fdcr,mVbtWEF8,2020-0188,2020-11-16,19:36:59,19:59:09,NA,incomplete,8,shape,0,1,right,Purple_Circle_Dots_4.jpg,Red_Triangle_Dots_2.jpg,Green_Circle_Grid_3.jpg,right,631.0000000521541,true,NA,true
mVbtWEF8,3r6rzgk0yip7nifkjif6ljfzh4yvyd,3s3amizx3yiadicnn72p7qd1r7fdcr,mVbtWEF8,2020-0188,2020-11-16,19:36:59,19:59:09,NA,incomplete,9,shape,0,1,right,Red_Triangle_Chess_1.jpg,Blue_Star_Chess_3.jpg,Purple_Triangle_Dots_2.jpg,right,779.999999795109,true,NA,true
mVbtWEF8,3r6rzgk0yip7nifkjif6ljfzh4yvyd,3s3amizx3yiadicnn72p7qd1r7fdcr,mVbtWEF8,2020-0188,2020-11-16,19:36:59,19:59:09,NA,incomplete,10,shape,0,1,left,Green_Triangle_Grid_4.jpg,Red_Triangle_Dots_2.jpg,Purple_Plus_Grid_3.jpg,left,989.9999997578561,true,NA,true
mVbtWEF8,3r6rzgk0yip7nifkjif6ljfzh4yvyd,3s3amizx3yiadicnn72p7qd1r7fdcr,mVbtWEF8,2020-0188,2020-11-16,19:36:59,19:59:09,NA,incomplete,11,shape,0,1,right,Green_Triangle_Chess_4.jpg,Purple_Star_Chess_1.jpg,Blue_Triangle_Grid_3.jpg,right,589.0000001527369,true,NA,true
mVbtWEF8,3r6rzgk0yip7nifkjif6ljfzh4yvyd,3s3amizx3yiadicnn72p7qd1r7fdcr,mVbtWEF8,2020-0188,2020-11-16,19:36:59,19:59:09,NA,incomplete,12,shape,0,1,right,Red_Circle_Grid_1.jpg,Green_Star_Grid_4.jpg,Blue_Circle_Stripes_3.jpg,right,734.0000001713634,true,NA,true
mVbtWEF8,3r6rzgk0yip7nifkjif6ljfzh4yvyd,3s3amizx3yiadicnn72p7qd1r7fdcr,mVbtWEF8,2020-0188,2020-11-16,19:36:59,19:59:09,NA,incomplete,13,shape,0,0,left,Red_Circle_Dots_1.jpg,Green_Circle_Chess_3.jpg,Blue_Plus_Dots_4.jpg,left,751.0000001639128,true,NA,true
mVbtWEF8,3r6rzgk0yip7nifkjif6ljfzh4yvyd,3s3amizx3yiadicnn72p7qd1r7fdcr,mVbtWEF8,2020-0188,2020-11-16,19:36:59,19:59:09,NA,incomplete,14,shape,0,0,left,Blue_Star_Dots_2.jpg,Purple_Star_Chess_1.jpg,Green_Triangle_Dots_3.jpg,left,862.0000001974404,true,NA,true
mVbtWEF8,3r6rzgk0yip7nifkjif6ljfzh4yvyd,3s3amizx3yiadicnn72p7qd1r7fdcr,mVbtWEF8,2020-0188,2020-11-16,19:36:59,19:59:09,NA,incomplete,15,shape,0,0,left,Green_Triangle_Dots_3.jpg,Blue_Triangle_Chess_4.jpg,Purple_Plus_Dots_1.jpg,left,1614.9999997578561,true,NA,true
mVbtWEF8,3r6rzgk0yip7nifkjif6ljfzh4yvyd,3s3amizx3yiadicnn72p7qd1r7fdcr,mVbtWEF8,2020-0188,2020-11-16,19:36:59,19:59:09,NA,incomplete,16,shape,0,1,left,Purple_Star_Grid_4.jpg,Green_Star_Chess_1.jpg,Blue_Circle_Grid_2.jpg,left,870.0000001117587,true,NA,true
mVbtWEF8,3r6rzgk0yip7nifkjif6ljfzh4yvyd,3s3amizx3yiadicnn72p7qd1r7fdcr,mVbtWEF8,2020-0188,2020-11-16,19:36:59,19:59:09,NA,incomplete,17,shape,0,1,left,Purple_Star_Grid_3.jpg,Blue_Star_Chess_2.jpg,Red_Plus_Grid_1.jpg,left,727.999999653548,true,NA,true
mVbtWEF8,3r6rzgk0yip7nifkjif6ljfzh4yvyd,3s3amizx3yiadicnn72p7qd1r7fdcr,mVbtWEF8,2020-0188,2020-11-16,19:36:59,19:59:09,NA,incomplete,18,shape,0,1,right,Red_Star_Dots_3.jpg,Purple_Triangle_Dots_4.jpg,Green_Star_Stripes_1.jpg,right,797.9999999515712,true,NA,true
mVbtWEF8,3r6rzgk0yip7nifkjif6ljfzh4yvyd,3s3amizx3yiadicnn72p7qd1r7fdcr,mVbtWEF8,2020-0188,2020-11-16,19:36:59,19:59:09,NA,incomplete,19,shape,0,1,right,Red_Plus_Grid_2.jpg,Purple_Circle_Grid_1.jpg,Blue_Plus_Dots_3.jpg,right,779.0000000968575,true,NA,true
mVbtWEF8,3r6rzgk0yip7nifkjif6ljfzh4yvyd,3s3amizx3yiadicnn72p7qd1r7fdcr,mVbtWEF8,2020-0188,2020-11-16,19:36:59,19:59:09,NA,incomplete,20,filling,1,1,left,Blue_Star_Stripes_4.jpg,Red_Triangle_Stripes_2.jpg,Green_Star_Chess_3.jpg,left,1492.0000000856817,true,NA,true
mVbtWEF8,3r6rzgk0yip7nifkjif6ljfzh4yvyd,3s3amizx3yiadicnn72p7qd1r7fdcr,mVbtWEF8,2020-0188,2020-11-16,19:36:59,19:59:09,NA,incomplete,21,filling,1,1,left,Green_Triangle_Chess_4.jpg,Red_Plus_Chess_2.jpg,Blue_Triangle_Dots_1.jpg,left,1052.000000141561,true,NA,true
mVbtWEF8,3r6rzgk0yip7nifkjif6ljfzh4yvyd,3s3amizx3yiadicnn72p7qd1r7fdcr,mVbtWEF8,2020-0188,2020-11-16,19:36:59,19:59:09,NA,incomplete,22,filling,1,1,right,Purple_Star_Stripes_4.jpg,Red_Star_Grid_1.jpg,Green_Circle_Stripes_2.jpg,right,909.9999996833503,true,NA,true
mVbtWEF8,3r6rzgk0yip7nifkjif6ljfzh4yvyd,3s3amizx3yiadicnn72p7qd1r7fdcr,mVbtWEF8,2020-0188,2020-11-16,19:36:59,19:59:09,NA,incomplete,23,filling,1,0,right,Green_Triangle_Dots_2.jpg,Red_Triangle_Stripes_1.jpg,Blue_Plus_Dots_4.jpg,left,881.0000000521541,false,NA,true
mVbtWEF8,3r6rzgk0yip7nifkjif6ljfzh4yvyd,3s3amizx3yiadicnn72p7qd1r7fdcr,mVbtWEF8,2020-0188,2020-11-16,19:36:59,19:59:09,NA,incomplete,24,filling,1,1,right,Green_Circle_Dots_2.jpg,Red_Circle_Stripes_4.jpg,Blue_Star_Dots_1.jpg,right,1391.9999999925494,true,NA,true
mVbtWEF8,3r6rzgk0yip7nifkjif6ljfzh4yvyd,3s3amizx3yiadicnn72p7qd1r7fdcr,mVbtWEF8,2020-0188,2020-11-16,19:36:59,19:59:09,NA,incomplete,25,filling,1,1,left,Blue_Plus_Chess_3.jpg,Purple_Circle_Chess_1.jpg,Green_Plus_Dots_4.jpg,left,1419.0000002272427,true,NA,true
mVbtWEF8,3r6rzgk0yip7nifkjif6ljfzh4yvyd,3s3amizx3yiadicnn72p7qd1r7fdcr,mVbtWEF8,2020-0188,2020-11-16,19:36:59,19:59:09,NA,incomplete,26,filling,1,1,right,Green_Triangle_Chess_3.jpg,Purple_Triangle_Grid_2.jpg,Red_Star_Chess_4.jpg,right,1096.999999601394,true,NA,true
mVbtWEF8,3r6rzgk0yip7nifkjif6ljfzh4yvyd,3s3amizx3yiadicnn72p7qd1r7fdcr,mVbtWEF8,2020-0188,2020-11-16,19:36:59,19:59:09,NA,incomplete,27,filling,1,1,right,Red_Circle_Dots_2.jpg,Blue_Circle_Stripes_4.jpg,Green_Plus_Dots_3.jpg,right,1496.0000002756715,true,NA,true
mVbtWEF8,3r6rzgk0yip7nifkjif6ljfzh4yvyd,3s3amizx3yiadicnn72p7qd1r7fdcr,mVbtWEF8,2020-0188,2020-11-16,19:36:59,19:59:09,NA,incomplete,28,filling,1,1,left,Green_Star_Stripes_1.jpg,Blue_Plus_Stripes_4.jpg,Purple_Star_Dots_2.jpg,left,1201.0000003501773,true,NA,true
mVbtWEF8,3r6rzgk0yip7nifkjif6ljfzh4yvyd,3s3amizx3yiadicnn72p7qd1r7fdcr,mVbtWEF8,2020-0188,2020-11-16,19:36:59,19:59:09,NA,incomplete,29,filling,1,1,left,Blue_Star_Stripes_2.jpg,Purple_Triangle_Stripes_3.jpg,Green_Star_Grid_4.jpg,left,955.9999997727573,true,NA,true
mVbtWEF8,3r6rzgk0yip7nifkjif6ljfzh4yvyd,3s3amizx3yiadicnn72p7qd1r7fdcr,mVbtWEF8,2020-0188,2020-11-16,19:36:59,19:59:09,NA,incomplete,30,filling,1,1,right,Blue_Star_Chess_3.jpg,Green_Star_Dots_2.jpg,Purple_Triangle_Chess_1.jpg,right,1344.0000000409782,true,NA,true
mVbtWEF8,3r6rzgk0yip7nifkjif6ljfzh4yvyd,3s3amizx3yiadicnn72p7qd1r7fdcr,mVbtWEF8,2020-0188,2020-11-16,19:36:59,19:59:09,NA,incomplete,31,filling,1,0,right,Green_Triangle_Chess_3.jpg,Blue_Triangle_Grid_4.jpg,Purple_Star_Chess_2.jpg,right,1182.0000000298023,true,NA,true
mVbtWEF8,3r6rzgk0yip7nifkjif6ljfzh4yvyd,3s3amizx3yiadicnn72p7qd1r7fdcr,mVbtWEF8,2020-0188,2020-11-16,19:36:59,19:59:09,NA,incomplete,32,filling,1,1,left,Purple_Circle_Stripes_1.jpg,Blue_Plus_Stripes_2.jpg,Green_Circle_Grid_3.jpg,left,1149.0000002086163,true,NA,true
mVbtWEF8,3r6rzgk0yip7nifkjif6ljfzh4yvyd,3s3amizx3yiadicnn72p7qd1r7fdcr,mVbtWEF8,2020-0188,2020-11-16,19:36:59,19:59:09,NA,incomplete,33,filling,1,1,right,Green_Circle_Grid_1.jpg,Purple_Circle_Chess_4.jpg,Red_Triangle_Grid_3.jpg,right,1080.9999997727573,true,NA,true
mVbtWEF8,3r6rzgk0yip7nifkjif6ljfzh4yvyd,3s3amizx3yiadicnn72p7qd1r7fdcr,mVbtWEF8,2020-0188,2020-11-16,19:36:59,19:59:09,NA,incomplete,34,filling,1,0,left,Green_Circle_Grid_3.jpg,Blue_Triangle_Grid_4.jpg,Purple_Circle_Dots_1.jpg,left,1320.9999999962747,true,NA,true
mVbtWEF8,3r6rzgk0yip7nifkjif6ljfzh4yvyd,3s3amizx3yiadicnn72p7qd1r7fdcr,mVbtWEF8,2020-0188,2020-11-16,19:36:59,19:59:09,NA,incomplete,35,filling,1,1,right,Blue_Plus_Grid_1.jpg,Green_Plus_Chess_4.jpg,Red_Circle_Grid_2.jpg,right,1043.00000006333,true,NA,true
mVbtWEF8,3r6rzgk0yip7nifkjif6ljfzh4yvyd,3s3amizx3yiadicnn72p7qd1r7fdcr,mVbtWEF8,2020-0188,2020-11-16,19:36:59,19:59:09,NA,incomplete,36,filling,1,1,left,Blue_Plus_Stripes_2.jpg,Red_Star_Stripes_1.jpg,Purple_Plus_Grid_4.jpg,left,1354.9999999813735,true,NA,true
mVbtWEF8,3r6rzgk0yip7nifkjif6ljfzh4yvyd,3s3amizx3yiadicnn72p7qd1r7fdcr,mVbtWEF8,2020-0188,2020-11-16,19:36:59,19:59:09,NA,incomplete,37,filling,1,0,left,Purple_Plus_Stripes_4.jpg,Green_Circle_Stripes_3.jpg,Blue_Plus_Grid_1.jpg,left,1081.99999993667,true,NA,true
mVbtWEF8,3r6rzgk0yip7nifkjif6ljfzh4yvyd,3s3amizx3yiadicnn72p7qd1r7fdcr,mVbtWEF8,2020-0188,2020-11-16,19:36:59,19:59:09,NA,incomplete,38,filling,1,0,left,Purple_Star_Stripes_3.jpg,Red_Triangle_Stripes_1.jpg,Green_Star_Chess_4.jpg,left,1172.0000002533197,true,NA,true
mVbtWEF8,3r6rzgk0yip7nifkjif6ljfzh4yvyd,3s3amizx3yiadicnn72p7qd1r7fdcr,mVbtWEF8,2020-0188,2020-11-16,19:36:59,19:59:09,NA,incomplete,39,filling,1,1,left,Green_Plus_Chess_2.jpg,Purple_Star_Chess_4.jpg,Blue_Plus_Dots_1.jpg,left,1222.9999997653067,true,NA,true
mVbtWEF8,3r6rzgk0yip7nifkjif6ljfzh4yvyd,3s3amizx3yiadicnn72p7qd1r7fdcr,mVbtWEF8,2020-0188,2020-11-16,19:36:59,19:59:09,NA,incomplete,0,shape,0,0,left,Red_Star_Dots_4.jpg,Green_Star_Chess_2.jpg,Purple_Circle_Dots_1.jpg,left,1420.9999996237457,true,high,false
mVbtWEF8,3r6rzgk0yip7nifkjif6ljfzh4yvyd,3s3amizx3yiadicnn72p7qd1r7fdcr,mVbtWEF8,2020-0188,2020-11-16,19:36:59,19:59:09,NA,incomplete,1,shape,0,1,right,Red_Plus_Stripes_1.jpg,Purple_Star_Stripes_3.jpg,Blue_Plus_Chess_2.jpg,right,810.0000000558794,true,high,false
mVbtWEF8,3r6rzgk0yip7nifkjif6ljfzh4yvyd,3s3amizx3yiadicnn72p7qd1r7fdcr,mVbtWEF8,2020-0188,2020-11-16,19:36:59,19:59:09,NA,incomplete,2,shape,0,1,left,Red_Plus_Chess_3.jpg,Blue_Plus_Dots_1.jpg,Purple_Circle_Chess_4.jpg,left,732.0000003091991,true,high,false
mVbtWEF8,3r6rzgk0yip7nifkjif6ljfzh4yvyd,3s3amizx3yiadicnn72p7qd1r7fdcr,mVbtWEF8,2020-0188,2020-11-16,19:36:59,19:59:09,NA,incomplete,3,shape,0,1,right,Purple_Triangle_Dots_4.jpg,Green_Star_Dots_3.jpg,Red_Triangle_Grid_1.jpg,right,641.0000002942979,true,high,false
mVbtWEF8,3r6rzgk0yip7nifkjif6ljfzh4yvyd,3s3amizx3yiadicnn72p7qd1r7fdcr,mVbtWEF8,2020-0188,2020-11-16,19:36:59,19:59:09,NA,incomplete,4,shape,0,0,right,Red_Plus_Chess_3.jpg,Blue_Circle_Chess_4.jpg,Green_Plus_Dots_1.jpg,right,723.000000230968,true,high,false
mVbtWEF8,3r6rzgk0yip7nifkjif6ljfzh4yvyd,3s3amizx3yiadicnn72p7qd1r7fdcr,mVbtWEF8,2020-0188,2020-11-16,19:36:59,19:59:09,NA,incomplete,5,shape,0,1,right,Blue_Triangle_Stripes_2.jpg,Red_Star_Stripes_4.jpg,Purple_Triangle_Dots_1.jpg,right,640.9999998286366,true,high,false
mVbtWEF8,3r6rzgk0yip7nifkjif6ljfzh4yvyd,3s3amizx3yiadicnn72p7qd1r7fdcr,mVbtWEF8,2020-0188,2020-11-16,19:36:59,19:59:09,NA,incomplete,6,shape,0,0,left,Blue_Triangle_Grid_1.jpg,Green_Triangle_Stripes_2.jpg,Red_Plus_Grid_3.jpg,left,834.9999999627471,true,high,false
mVbtWEF8,3r6rzgk0yip7nifkjif6ljfzh4yvyd,3s3amizx3yiadicnn72p7qd1r7fdcr,mVbtWEF8,2020-0188,2020-11-16,19:36:59,19:59:09,NA,incomplete,7,shape,0,0,left,Blue_Triangle_Grid_1.jpg,Red_Triangle_Stripes_4.jpg,Green_Circle_Grid_3.jpg,left,655.9999999590218,true,high,false
mVbtWEF8,3r6rzgk0yip7nifkjif6ljfzh4yvyd,3s3amizx3yiadicnn72p7qd1r7fdcr,mVbtWEF8,2020-0188,2020-11-16,19:36:59,19:59:09,NA,incomplete,8,shape,0,0,right,Purple_Plus_Stripes_1.jpg,Green_Circle_Stripes_2.jpg,Red_Plus_Dots_3.jpg,right,524.0000002086163,true,high,false
mVbtWEF8,3r6rzgk0yip7nifkjif6ljfzh4yvyd,3s3amizx3yiadicnn72p7qd1r7fdcr,mVbtWEF8,2020-0188,2020-11-16,19:36:59,19:59:09,NA,incomplete,9,shape,0,0,left,Green_Triangle_Grid_3.jpg,Blue_Triangle_Chess_1.jpg,Purple_Star_Grid_4.jpg,right,987.0000001974404,false,high,false
mVbtWEF8,3r6rzgk0yip7nifkjif6ljfzh4yvyd,3s3amizx3yiadicnn72p7qd1r7fdcr,mVbtWEF8,2020-0188,2020-11-16,19:36:59,19:59:09,NA,incomplete,10,filling,1,1,left,Purple_Plus_Grid_3.jpg,Blue_Star_Grid_4.jpg,Green_Plus_Stripes_1.jpg,left,1092.000000178814,true,high,false
mVbtWEF8,3r6rzgk0yip7nifkjif6ljfzh4yvyd,3s3amizx3yiadicnn72p7qd1r7fdcr,mVbtWEF8,2020-0188,2020-11-16,19:36:59,19:59:09,NA,incomplete,11,filling,1,1,left,Green_Circle_Dots_4.jpg,Red_Star_Dots_2.jpg,Blue_Circle_Chess_3.jpg,left,1046.000000089407,true,high,false
mVbtWEF8,3r6rzgk0yip7nifkjif6ljfzh4yvyd,3s3amizx3yiadicnn72p7qd1r7fdcr,mVbtWEF8,2020-0188,2020-11-16,19:36:59,19:59:09,NA,incomplete,12,filling,1,1,right,Blue_Circle_Dots_1.jpg,Red_Circle_Grid_4.jpg,Green_Plus_Dots_3.jpg,right,850.0000000931323,true,high,false
mVbtWEF8,3r6rzgk0yip7nifkjif6ljfzh4yvyd,3s3amizx3yiadicnn72p7qd1r7fdcr,mVbtWEF8,2020-0188,2020-11-16,19:36:59,19:59:09,NA,incomplete,13,filling,1,1,left,Red_Star_Stripes_2.jpg,Purple_Triangle_Stripes_1.jpg,Blue_Star_Dots_3.jpg,left,766.9999999925494,true,high,false
mVbtWEF8,3r6rzgk0yip7nifkjif6ljfzh4yvyd,3s3amizx3yiadicnn72p7qd1r7fdcr,mVbtWEF8,2020-0188,2020-11-16,19:36:59,19:59:09,NA,incomplete,14,filling,1,1,right,Blue_Star_Dots_2.jpg,Green_Star_Stripes_4.jpg,Red_Plus_Dots_3.jpg,right,942.9999999701977,true,high,false
mVbtWEF8,3r6rzgk0yip7nifkjif6ljfzh4yvyd,3s3amizx3yiadicnn72p7qd1r7fdcr,mVbtWEF8,2020-0188,2020-11-16,19:36:59,19:59:09,NA,incomplete,15,filling,1,1,right,Red_Star_Chess_4.jpg,Blue_Star_Grid_2.jpg,Purple_Triangle_Chess_3.jpg,right,851.9999999552965,true,high,false
mVbtWEF8,3r6rzgk0yip7nifkjif6ljfzh4yvyd,3s3amizx3yiadicnn72p7qd1r7fdcr,mVbtWEF8,2020-0188,2020-11-16,19:36:59,19:59:09,NA,incomplete,16,filling,1,1,right,Purple_Star_Chess_1.jpg,Green_Star_Grid_4.jpg,Red_Plus_Chess_3.jpg,left,821.9999996945262,false,high,false
mVbtWEF8,3r6rzgk0yip7nifkjif6ljfzh4yvyd,3s3amizx3yiadicnn72p7qd1r7fdcr,mVbtWEF8,2020-0188,2020-11-16,19:36:59,19:59:09,NA,incomplete,17,filling,1,1,left,Purple_Star_Chess_4.jpg,Blue_Triangle_Chess_2.jpg,Green_Star_Stripes_3.jpg,left,892.9999996908009,true,high,false
mVbtWEF8,3r6rzgk0yip7nifkjif6ljfzh4yvyd,3s3amizx3yiadicnn72p7qd1r7fdcr,mVbtWEF8,2020-0188,2020-11-16,19:36:59,19:59:09,NA,incomplete,18,filling,1,1,right,Purple_Star_Chess_3.jpg,Blue_Star_Grid_1.jpg,Green_Circle_Chess_2.jpg,left,660.0000001490116,false,high,false
mVbtWEF8,3r6rzgk0yip7nifkjif6ljfzh4yvyd,3s3amizx3yiadicnn72p7qd1r7fdcr,mVbtWEF8,2020-0188,2020-11-16,19:36:59,19:59:09,NA,incomplete,19,filling,1,1,right,Blue_Star_Dots_4.jpg,Purple_Star_Grid_1.jpg,Green_Plus_Dots_2.jpg,left,732.0000003091991,false,high,false
mVbtWEF8,3r6rzgk0yip7nifkjif6ljfzh4yvyd,3s3amizx3yiadicnn72p7qd1r7fdcr,mVbtWEF8,2020-0188,2020-11-16,19:36:59,19:59:09,NA,incomplete,20,shape,0,1,left,Purple_Plus_Dots_4.jpg,Green_Plus_Chess_2.jpg,Red_Star_Dots_1.jpg,left,742.0000000856817,true,high,false
mVbtWEF8,3r6rzgk0yip7nifkjif6ljfzh4yvyd,3s3amizx3yiadicnn72p7qd1r7fdcr,mVbtWEF8,2020-0188,2020-11-16,19:36:59,19:59:09,NA,incomplete,21,shape,0,1,left,Green_Triangle_Stripes_1.jpg,Blue_Triangle_Grid_3.jpg,Red_Circle_Stripes_4.jpg,left,851.000000257045,true,high,false
mVbtWEF8,3r6rzgk0yip7nifkjif6ljfzh4yvyd,3s3amizx3yiadicnn72p7qd1r7fdcr,mVbtWEF8,2020-0188,2020-11-16,19:36:59,19:59:09,NA,incomplete,22,shape,0,1,right,Blue_Circle_Chess_2.jpg,Red_Triangle_Chess_4.jpg,Green_Circle_Dots_3.jpg,right,777.9999999329448,true,high,false
mVbtWEF8,3r6rzgk0yip7nifkjif6ljfzh4yvyd,3s3amizx3yiadicnn72p7qd1r7fdcr,mVbtWEF8,2020-0188,2020-11-16,19:36:59,19:59:09,NA,incomplete,23,shape,0,1,left,Blue_Triangle_Chess_4.jpg,Green_Triangle_Stripes_3.jpg,Purple_Star_Chess_2.jpg,left,557.0000000298023,true,high,false
mVbtWEF8,3r6rzgk0yip7nifkjif6ljfzh4yvyd,3s3amizx3yiadicnn72p7qd1r7fdcr,mVbtWEF8,2020-0188,2020-11-16,19:36:59,19:59:09,NA,incomplete,24,shape,0,1,left,Green_Triangle_Grid_4.jpg,Purple_Triangle_Dots_3.jpg,Blue_Circle_Grid_1.jpg,left,574.0000000223517,true,high,false
mVbtWEF8,3r6rzgk0yip7nifkjif6ljfzh4yvyd,3s3amizx3yiadicnn72p7qd1r7fdcr,mVbtWEF8,2020-0188,2020-11-16,19:36:59,19:59:09,NA,incomplete,25,shape,0,1,left,Blue_Star_Stripes_4.jpg,Green_Star_Chess_1.jpg,Red_Plus_Stripes_2.jpg,left,677.000000141561,true,high,false
mVbtWEF8,3r6rzgk0yip7nifkjif6ljfzh4yvyd,3s3amizx3yiadicnn72p7qd1r7fdcr,mVbtWEF8,2020-0188,2020-11-16,19:36:59,19:59:09,NA,incomplete,26,shape,0,1,left,Blue_Star_Chess_3.jpg,Purple_Star_Grid_2.jpg,Red_Circle_Chess_4.jpg,left,632.9999999143183,true,high,false
mVbtWEF8,3r6rzgk0yip7nifkjif6ljfzh4yvyd,3s3amizx3yiadicnn72p7qd1r7fdcr,mVbtWEF8,2020-0188,2020-11-16,19:36:59,19:59:09,NA,incomplete,27,shape,0,1,left,Green_Circle_Chess_4.jpg,Blue_Circle_Stripes_2.jpg,Purple_Plus_Chess_3.jpg,left,532.0000001229346,true,high,false
mVbtWEF8,3r6rzgk0yip7nifkjif6ljfzh4yvyd,3s3amizx3yiadicnn72p7qd1r7fdcr,mVbtWEF8,2020-0188,2020-11-16,19:36:59,19:59:09,NA,incomplete,28,shape,0,0,left,Red_Star_Chess_1.jpg,Purple_Star_Grid_4.jpg,Green_Plus_Chess_3.jpg,left,517.9999996908009,true,high,false
mVbtWEF8,3r6rzgk0yip7nifkjif6ljfzh4yvyd,3s3amizx3yiadicnn72p7qd1r7fdcr,mVbtWEF8,2020-0188,2020-11-16,19:36:59,19:59:09,NA,incomplete,29,shape,0,1,left,Purple_Circle_Grid_2.jpg,Blue_Circle_Chess_4.jpg,Green_Star_Grid_3.jpg,left,554.0000000037253,true,high,false
mVbtWEF8,3r6rzgk0yip7nifkjif6ljfzh4yvyd,3s3amizx3yiadicnn72p7qd1r7fdcr,mVbtWEF8,2020-0188,2020-11-16,19:36:59,19:59:09,NA,incomplete,30,filling,1,1,left,Purple_Triangle_Chess_3.jpg,Green_Circle_Chess_2.jpg,Red_Triangle_Stripes_1.jpg,right,640.0000001303852,false,high,false
mVbtWEF8,3r6rzgk0yip7nifkjif6ljfzh4yvyd,3s3amizx3yiadicnn72p7qd1r7fdcr,mVbtWEF8,2020-0188,2020-11-16,19:36:59,19:59:09,NA,incomplete,31,filling,1,0,left,Purple_Circle_Grid_4.jpg,Green_Star_Grid_2.jpg,Blue_Circle_Dots_3.jpg,right,557.0000000298023,false,high,false
mVbtWEF8,3r6rzgk0yip7nifkjif6ljfzh4yvyd,3s3amizx3yiadicnn72p7qd1r7fdcr,mVbtWEF8,2020-0188,2020-11-16,19:36:59,19:59:09,NA,incomplete,32,filling,1,1,left,Red_Triangle_Grid_1.jpg,Purple_Star_Grid_4.jpg,Green_Triangle_Stripes_3.jpg,right,507.9999999143183,false,high,false
mVbtWEF8,3r6rzgk0yip7nifkjif6ljfzh4yvyd,3s3amizx3yiadicnn72p7qd1r7fdcr,mVbtWEF8,2020-0188,2020-11-16,19:36:59,19:59:09,NA,incomplete,33,filling,1,1,left,Green_Star_Dots_1.jpg,Purple_Triangle_Dots_4.jpg,Blue_Star_Stripes_2.jpg,right,521.9999998807907,false,high,false
mVbtWEF8,3r6rzgk0yip7nifkjif6ljfzh4yvyd,3s3amizx3yiadicnn72p7qd1r7fdcr,mVbtWEF8,2020-0188,2020-11-16,19:36:59,19:59:09,NA,incomplete,34,filling,1,1,right,Blue_Star_Chess_1.jpg,Green_Star_Grid_2.jpg,Red_Plus_Chess_3.jpg,left,844.9999997392297,false,high,false
mVbtWEF8,3r6rzgk0yip7nifkjif6ljfzh4yvyd,3s3amizx3yiadicnn72p7qd1r7fdcr,mVbtWEF8,2020-0188,2020-11-16,19:36:59,19:59:09,NA,incomplete,35,filling,1,1,right,Purple_Plus_Stripes_3.jpg,Green_Plus_Grid_2.jpg,Red_Triangle_Stripes_4.jpg,right,834.9999999627471,true,high,false
mVbtWEF8,3r6rzgk0yip7nifkjif6ljfzh4yvyd,3s3amizx3yiadicnn72p7qd1r7fdcr,mVbtWEF8,2020-0188,2020-11-16,19:36:59,19:59:09,NA,incomplete,36,filling,1,1,right,Green_Circle_Dots_2.jpg,Blue_Circle_Chess_1.jpg,Purple_Plus_Dots_3.jpg,right,902.0000002346933,true,high,false
mVbtWEF8,3r6rzgk0yip7nifkjif6ljfzh4yvyd,3s3amizx3yiadicnn72p7qd1r7fdcr,mVbtWEF8,2020-0188,2020-11-16,19:36:59,19:59:09,NA,incomplete,37,filling,1,0,left,Red_Circle_Dots_1.jpg,Purple_Triangle_Dots_2.jpg,Blue_Circle_Chess_3.jpg,left,820.9999999962747,true,high,false
mVbtWEF8,3r6rzgk0yip7nifkjif6ljfzh4yvyd,3s3amizx3yiadicnn72p7qd1r7fdcr,mVbtWEF8,2020-0188,2020-11-16,19:36:59,19:59:09,NA,incomplete,38,filling,1,1,left,Purple_Circle_Stripes_4.jpg,Red_Triangle_Stripes_2.jpg,Blue_Circle_Chess_3.jpg,left,848.000000230968,true,high,false
mVbtWEF8,3r6rzgk0yip7nifkjif6ljfzh4yvyd,3s3amizx3yiadicnn72p7qd1r7fdcr,mVbtWEF8,2020-0188,2020-11-16,19:36:59,19:59:09,NA,incomplete,39,filling,1,1,right,Purple_Star_Stripes_2.jpg,Green_Star_Dots_3.jpg,Red_Plus_Stripes_1.jpg,right,854.9999999813735,true,high,false
mVbtWEF8,3r6rzgk0yip7nifkjif6ljfzh4yvyd,3s3amizx3yiadicnn72p7qd1r7fdcr,mVbtWEF8,2020-0188,2020-11-16,19:36:59,19:59:09,NA,incomplete,40,shape,0,1,left,Red_Star_Stripes_2.jpg,Green_Star_Grid_1.jpg,Blue_Circle_Stripes_4.jpg,right,688.9999997802079,false,high,false
mVbtWEF8,3r6rzgk0yip7nifkjif6ljfzh4yvyd,3s3amizx3yiadicnn72p7qd1r7fdcr,mVbtWEF8,2020-0188,2020-11-16,19:36:59,19:59:09,NA,incomplete,41,shape,0,1,left,Red_Plus_Stripes_4.jpg,Purple_Plus_Dots_2.jpg,Blue_Triangle_Stripes_3.jpg,right,672.9999999515712,false,high,false
mVbtWEF8,3r6rzgk0yip7nifkjif6ljfzh4yvyd,3s3amizx3yiadicnn72p7qd1r7fdcr,mVbtWEF8,2020-0188,2020-11-16,19:36:59,19:59:09,NA,incomplete,42,shape,0,0,right,Purple_Star_Grid_2.jpg,Green_Circle_Grid_3.jpg,Blue_Star_Chess_4.jpg,left,1384.9999997764826,false,high,false
mVbtWEF8,3r6rzgk0yip7nifkjif6ljfzh4yvyd,3s3amizx3yiadicnn72p7qd1r7fdcr,mVbtWEF8,2020-0188,2020-11-16,19:36:59,19:59:09,NA,incomplete,43,shape,0,0,right,Green_Circle_Chess_1.jpg,Purple_Plus_Chess_4.jpg,Red_Circle_Dots_3.jpg,left,939.9999999441206,false,high,false
mVbtWEF8,3r6rzgk0yip7nifkjif6ljfzh4yvyd,3s3amizx3yiadicnn72p7qd1r7fdcr,mVbtWEF8,2020-0188,2020-11-16,19:36:59,19:59:09,NA,incomplete,44,shape,0,1,left,Purple_Plus_Chess_4.jpg,Green_Plus_Stripes_1.jpg,Blue_Star_Chess_2.jpg,right,1040.000000037253,false,high,false
mVbtWEF8,3r6rzgk0yip7nifkjif6ljfzh4yvyd,3s3amizx3yiadicnn72p7qd1r7fdcr,mVbtWEF8,2020-0188,2020-11-16,19:36:59,19:59:09,NA,incomplete,45,shape,0,1,left,Purple_Triangle_Grid_4.jpg,Blue_Triangle_Chess_3.jpg,Green_Plus_Grid_1.jpg,right,1076.9999995827675,false,high,false
mVbtWEF8,3r6rzgk0yip7nifkjif6ljfzh4yvyd,3s3amizx3yiadicnn72p7qd1r7fdcr,mVbtWEF8,2020-0188,2020-11-16,19:36:59,19:59:09,NA,incomplete,46,shape,0,1,left,Red_Circle_Chess_1.jpg,Green_Circle_Stripes_2.jpg,Blue_Plus_Chess_4.jpg,right,1169.9999999254942,false,high,false
mVbtWEF8,3r6rzgk0yip7nifkjif6ljfzh4yvyd,3s3amizx3yiadicnn72p7qd1r7fdcr,mVbtWEF8,2020-0188,2020-11-16,19:36:59,19:59:09,NA,incomplete,47,shape,0,1,right,Blue_Star_Grid_4.jpg,Purple_Triangle_Grid_2.jpg,Red_Star_Dots_1.jpg,left,1199.9999997206032,false,high,false
mVbtWEF8,3r6rzgk0yip7nifkjif6ljfzh4yvyd,3s3amizx3yiadicnn72p7qd1r7fdcr,mVbtWEF8,2020-0188,2020-11-16,19:36:59,19:59:09,NA,incomplete,48,shape,0,1,left,Green_Circle_Chess_3.jpg,Blue_Circle_Stripes_2.jpg,Purple_Plus_Chess_4.jpg,left,652.0000002346933,true,high,false
mVbtWEF8,3r6rzgk0yip7nifkjif6ljfzh4yvyd,3s3amizx3yiadicnn72p7qd1r7fdcr,mVbtWEF8,2020-0188,2020-11-16,19:36:59,19:59:09,NA,incomplete,49,shape,0,0,right,Purple_Triangle_Chess_1.jpg,Green_Star_Chess_3.jpg,Blue_Triangle_Grid_2.jpg,right,486.0000000335276,true,high,false
mVbtWEF8,3r6rzgk0yip7nifkjif6ljfzh4yvyd,3s3amizx3yiadicnn72p7qd1r7fdcr,mVbtWEF8,2020-0188,2020-11-16,19:36:59,19:59:09,NA,incomplete,50,filling,1,1,right,Purple_Star_Stripes_4.jpg,Red_Star_Dots_3.jpg,Blue_Circle_Stripes_2.jpg,left,885.0000002421439,false,high,false
mVbtWEF8,3r6rzgk0yip7nifkjif6ljfzh4yvyd,3s3amizx3yiadicnn72p7qd1r7fdcr,mVbtWEF8,2020-0188,2020-11-16,19:36:59,19:59:09,NA,incomplete,51,filling,1,1,right,Red_Triangle_Dots_4.jpg,Purple_Triangle_Stripes_2.jpg,Green_Plus_Dots_3.jpg,left,652.9999999329448,false,high,false
mVbtWEF8,3r6rzgk0yip7nifkjif6ljfzh4yvyd,3s3amizx3yiadicnn72p7qd1r7fdcr,mVbtWEF8,2020-0188,2020-11-16,19:36:59,19:59:09,NA,incomplete,52,filling,1,1,right,Green_Plus_Grid_4.jpg,Purple_Plus_Dots_2.jpg,Blue_Circle_Grid_1.jpg,left,638.9999999664724,false,high,false
mVbtWEF8,3r6rzgk0yip7nifkjif6ljfzh4yvyd,3s3amizx3yiadicnn72p7qd1r7fdcr,mVbtWEF8,2020-0188,2020-11-16,19:36:59,19:59:09,NA,incomplete,53,filling,1,1,right,Blue_Triangle_Grid_3.jpg,Purple_Triangle_Dots_4.jpg,Green_Star_Grid_1.jpg,left,793.0000000633299,false,high,false
mVbtWEF8,3r6rzgk0yip7nifkjif6ljfzh4yvyd,3s3amizx3yiadicnn72p7qd1r7fdcr,mVbtWEF8,2020-0188,2020-11-16,19:36:59,19:59:09,NA,incomplete,54,filling,1,1,left,Red_Plus_Dots_3.jpg,Blue_Triangle_Dots_2.jpg,Purple_Plus_Chess_4.jpg,left,910.9999998472631,true,high,false
mVbtWEF8,3r6rzgk0yip7nifkjif6ljfzh4yvyd,3s3amizx3yiadicnn72p7qd1r7fdcr,mVbtWEF8,2020-0188,2020-11-16,19:36:59,19:59:09,NA,incomplete,55,filling,1,1,left,Red_Plus_Stripes_4.jpg,Blue_Triangle_Stripes_2.jpg,Green_Plus_Dots_1.jpg,left,781.9999996572733,true,high,false
mVbtWEF8,3r6rzgk0yip7nifkjif6ljfzh4yvyd,3s3amizx3yiadicnn72p7qd1r7fdcr,mVbtWEF8,2020-0188,2020-11-16,19:36:59,19:59:09,NA,incomplete,56,filling,1,1,right,Purple_Circle_Stripes_1.jpg,Blue_Circle_Chess_2.jpg,Red_Star_Stripes_3.jpg,right,794.0000002272427,true,high,false
mVbtWEF8,3r6rzgk0yip7nifkjif6ljfzh4yvyd,3s3amizx3yiadicnn72p7qd1r7fdcr,mVbtWEF8,2020-0188,2020-11-16,19:36:59,19:59:09,NA,incomplete,57,filling,1,0,left,Green_Circle_Stripes_3.jpg,Red_Plus_Stripes_4.jpg,Blue_Circle_Dots_2.jpg,left,783.9999999850988,true,high,false
mVbtWEF8,3r6rzgk0yip7nifkjif6ljfzh4yvyd,3s3amizx3yiadicnn72p7qd1r7fdcr,mVbtWEF8,2020-0188,2020-11-16,19:36:59,19:59:09,NA,incomplete,58,filling,1,1,right,Red_Plus_Grid_2.jpg,Green_Plus_Stripes_1.jpg,Purple_Circle_Grid_4.jpg,right,828.999999910593,true,high,false
mVbtWEF8,3r6rzgk0yip7nifkjif6ljfzh4yvyd,3s3amizx3yiadicnn72p7qd1r7fdcr,mVbtWEF8,2020-0188,2020-11-16,19:36:59,19:59:09,NA,incomplete,59,filling,1,1,left,Purple_Circle_Grid_1.jpg,Blue_Plus_Grid_2.jpg,Green_Circle_Chess_4.jpg,left,830.0000000745058,true,high,false
mVbtWEF8,3r6rzgk0yip7nifkjif6ljfzh4yvyd,3s3amizx3yiadicnn72p7qd1r7fdcr,mVbtWEF8,2020-0188,2020-11-16,19:36:59,19:59:09,NA,incomplete,60,shape,0,0,right,Purple_Star_Dots_3.jpg,Red_Plus_Dots_4.jpg,Green_Star_Grid_2.jpg,left,937.9999996162951,false,high,false
mVbtWEF8,3r6rzgk0yip7nifkjif6ljfzh4yvyd,3s3amizx3yiadicnn72p7qd1r7fdcr,mVbtWEF8,2020-0188,2020-11-16,19:36:59,19:59:09,NA,incomplete,61,shape,0,0,left,Red_Circle_Stripes_2.jpg,Blue_Circle_Grid_3.jpg,Purple_Plus_Stripes_1.jpg,right,856.0000001452863,false,high,false
mVbtWEF8,3r6rzgk0yip7nifkjif6ljfzh4yvyd,3s3amizx3yiadicnn72p7qd1r7fdcr,mVbtWEF8,2020-0188,2020-11-16,19:36:59,19:59:09,NA,incomplete,62,shape,0,1,left,Red_Circle_Stripes_2.jpg,Purple_Circle_Dots_4.jpg,Blue_Triangle_Stripes_1.jpg,right,819.9999998323619,false,high,false
mVbtWEF8,3r6rzgk0yip7nifkjif6ljfzh4yvyd,3s3amizx3yiadicnn72p7qd1r7fdcr,mVbtWEF8,2020-0188,2020-11-16,19:36:59,19:59:09,NA,incomplete,63,shape,0,1,right,Green_Circle_Stripes_1.jpg,Purple_Triangle_Stripes_2.jpg,Blue_Circle_Chess_4.jpg,left,787.9999997094274,false,high,false
mVbtWEF8,3r6rzgk0yip7nifkjif6ljfzh4yvyd,3s3amizx3yiadicnn72p7qd1r7fdcr,mVbtWEF8,2020-0188,2020-11-16,19:36:59,19:59:09,NA,incomplete,64,shape,0,1,left,Blue_Triangle_Dots_2.jpg,Red_Triangle_Chess_4.jpg,Purple_Circle_Dots_3.jpg,right,899.9999999068677,false,high,false
mVbtWEF8,3r6rzgk0yip7nifkjif6ljfzh4yvyd,3s3amizx3yiadicnn72p7qd1r7fdcr,mVbtWEF8,2020-0188,2020-11-16,19:36:59,19:59:09,NA,incomplete,65,shape,0,1,right,Blue_Circle_Chess_3.jpg,Purple_Star_Chess_2.jpg,Green_Circle_Grid_1.jpg,left,1080.0000000745058,false,high,false
mVbtWEF8,3r6rzgk0yip7nifkjif6ljfzh4yvyd,3s3amizx3yiadicnn72p7qd1r7fdcr,mVbtWEF8,2020-0188,2020-11-16,19:36:59,19:59:09,NA,incomplete,66,shape,0,1,right,Red_Plus_Dots_1.jpg,Green_Triangle_Dots_4.jpg,Purple_Plus_Chess_2.jpg,right,711.0000001266599,true,high,false
mVbtWEF8,3r6rzgk0yip7nifkjif6ljfzh4yvyd,3s3amizx3yiadicnn72p7qd1r7fdcr,mVbtWEF8,2020-0188,2020-11-16,19:36:59,19:59:09,NA,incomplete,67,shape,0,1,right,Green_Plus_Dots_1.jpg,Blue_Star_Dots_3.jpg,Purple_Plus_Stripes_4.jpg,right,762.0000001043081,true,high,false
mVbtWEF8,3r6rzgk0yip7nifkjif6ljfzh4yvyd,3s3amizx3yiadicnn72p7qd1r7fdcr,mVbtWEF8,2020-0188,2020-11-16,19:36:59,19:59:09,NA,incomplete,68,shape,0,0,right,Purple_Triangle_Grid_3.jpg,Blue_Plus_Grid_4.jpg,Green_Triangle_Stripes_1.jpg,right,700.0000001862645,true,high,false
mVbtWEF8,3r6rzgk0yip7nifkjif6ljfzh4yvyd,3s3amizx3yiadicnn72p7qd1r7fdcr,mVbtWEF8,2020-0188,2020-11-16,19:36:59,19:59:09,NA,incomplete,69,shape,0,1,right,Green_Star_Stripes_1.jpg,Purple_Circle_Stripes_2.jpg,Red_Star_Grid_3.jpg,right,616.9999996200204,true,high,false
mVbtWEF8,3r6rzgk0yip7nifkjif6ljfzh4yvyd,3s3amizx3yiadicnn72p7qd1r7fdcr,mVbtWEF8,2020-0188,2020-11-16,19:36:59,19:59:09,NA,incomplete,70,filling,1,1,right,Green_Circle_Stripes_3.jpg,Purple_Circle_Grid_4.jpg,Red_Triangle_Stripes_2.jpg,left,579.0000003762543,false,high,false
mVbtWEF8,3r6rzgk0yip7nifkjif6ljfzh4yvyd,3s3amizx3yiadicnn72p7qd1r7fdcr,mVbtWEF8,2020-0188,2020-11-16,19:36:59,19:59:09,NA,incomplete,71,filling,1,1,right,Green_Plus_Stripes_2.jpg,Red_Plus_Grid_1.jpg,Blue_Circle_Stripes_4.jpg,left,666.9999998994172,false,high,false
mVbtWEF8,3r6rzgk0yip7nifkjif6ljfzh4yvyd,3s3amizx3yiadicnn72p7qd1r7fdcr,mVbtWEF8,2020-0188,2020-11-16,19:36:59,19:59:09,NA,incomplete,72,filling,1,1,left,Blue_Plus_Chess_1.jpg,Green_Circle_Chess_2.jpg,Red_Plus_Grid_4.jpg,right,589.9999998509884,false,high,false
mVbtWEF8,3r6rzgk0yip7nifkjif6ljfzh4yvyd,3s3amizx3yiadicnn72p7qd1r7fdcr,mVbtWEF8,2020-0188,2020-11-16,19:36:59,19:59:09,NA,incomplete,73,filling,1,1,right,Green_Star_Dots_4.jpg,Blue_Star_Chess_2.jpg,Red_Plus_Dots_3.jpg,right,807.9999997280538,true,high,false
mVbtWEF8,3r6rzgk0yip7nifkjif6ljfzh4yvyd,3s3amizx3yiadicnn72p7qd1r7fdcr,mVbtWEF8,2020-0188,2020-11-16,19:36:59,19:59:09,NA,incomplete,74,filling,1,1,left,Green_Triangle_Chess_2.jpg,Purple_Circle_Chess_3.jpg,Red_Triangle_Dots_4.jpg,left,763.9999999664724,true,high,false
mVbtWEF8,3r6rzgk0yip7nifkjif6ljfzh4yvyd,3s3amizx3yiadicnn72p7qd1r7fdcr,mVbtWEF8,2020-0188,2020-11-16,19:36:59,19:59:09,NA,incomplete,75,filling,1,1,right,Purple_Star_Chess_1.jpg,Blue_Star_Stripes_4.jpg,Red_Plus_Chess_2.jpg,right,826.9999995827675,true,high,false
mVbtWEF8,3r6rzgk0yip7nifkjif6ljfzh4yvyd,3s3amizx3yiadicnn72p7qd1r7fdcr,mVbtWEF8,2020-0188,2020-11-16,19:36:59,19:59:09,NA,incomplete,76,filling,1,1,left,Red_Star_Grid_1.jpg,Blue_Plus_Grid_2.jpg,Green_Star_Stripes_4.jpg,left,995.0000001117587,true,high,false
mVbtWEF8,3r6rzgk0yip7nifkjif6ljfzh4yvyd,3s3amizx3yiadicnn72p7qd1r7fdcr,mVbtWEF8,2020-0188,2020-11-16,19:36:59,19:59:09,NA,incomplete,77,filling,1,1,right,Green_Circle_Chess_1.jpg,Blue_Circle_Grid_2.jpg,Red_Triangle_Chess_3.jpg,right,703.0000002123415,true,high,false
mVbtWEF8,3r6rzgk0yip7nifkjif6ljfzh4yvyd,3s3amizx3yiadicnn72p7qd1r7fdcr,mVbtWEF8,2020-0188,2020-11-16,19:36:59,19:59:09,NA,incomplete,78,filling,1,1,left,Blue_Plus_Grid_4.jpg,Purple_Star_Grid_1.jpg,Red_Plus_Dots_2.jpg,left,1006.9999997504056,true,high,false
mVbtWEF8,3r6rzgk0yip7nifkjif6ljfzh4yvyd,3s3amizx3yiadicnn72p7qd1r7fdcr,mVbtWEF8,2020-0188,2020-11-16,19:36:59,19:59:09,NA,incomplete,79,filling,1,0,left,Blue_Plus_Stripes_3.jpg,Purple_Star_Stripes_4.jpg,Green_Plus_Grid_1.jpg,left,938.0000000819564,true,high,false
mVbtWEF8,3r6rzgk0yip7nifkjif6ljfzh4yvyd,3s3amizx3yiadicnn72p7qd1r7fdcr,mVbtWEF8,2020-0188,2020-11-16,19:36:59,19:59:09,NA,incomplete,80,shape,0,1,right,Green_Star_Stripes_4.jpg,Purple_Circle_Stripes_3.jpg,Red_Star_Dots_2.jpg,left,640.9999998286366,false,high,false
mVbtWEF8,3r6rzgk0yip7nifkjif6ljfzh4yvyd,3s3amizx3yiadicnn72p7qd1r7fdcr,mVbtWEF8,2020-0188,2020-11-16,19:36:59,19:59:09,NA,incomplete,81,shape,0,1,left,Red_Plus_Chess_3.jpg,Blue_Plus_Dots_1.jpg,Purple_Star_Chess_4.jpg,left,1058.000000193715,true,high,false
mVbtWEF8,3r6rzgk0yip7nifkjif6ljfzh4yvyd,3s3amizx3yiadicnn72p7qd1r7fdcr,mVbtWEF8,2020-0188,2020-11-16,19:36:59,19:59:09,NA,incomplete,82,shape,0,0,right,Green_Plus_Dots_1.jpg,Purple_Triangle_Dots_3.jpg,Blue_Plus_Grid_2.jpg,right,549.000000115484,true,high,false
mVbtWEF8,3r6rzgk0yip7nifkjif6ljfzh4yvyd,3s3amizx3yiadicnn72p7qd1r7fdcr,mVbtWEF8,2020-0188,2020-11-16,19:36:59,19:59:09,NA,incomplete,83,shape,0,1,left,Purple_Star_Dots_4.jpg,Green_Star_Stripes_3.jpg,Red_Plus_Dots_2.jpg,left,589.9999998509884,true,high,false
mVbtWEF8,3r6rzgk0yip7nifkjif6ljfzh4yvyd,3s3amizx3yiadicnn72p7qd1r7fdcr,mVbtWEF8,2020-0188,2020-11-16,19:36:59,19:59:09,NA,incomplete,84,shape,0,1,right,Blue_Triangle_Stripes_3.jpg,Purple_Circle_Stripes_2.jpg,Red_Triangle_Chess_4.jpg,right,548.9999996498227,true,high,false
mVbtWEF8,3r6rzgk0yip7nifkjif6ljfzh4yvyd,3s3amizx3yiadicnn72p7qd1r7fdcr,mVbtWEF8,2020-0188,2020-11-16,19:36:59,19:59:09,NA,incomplete,85,shape,0,1,left,Blue_Plus_Grid_3.jpg,Green_Plus_Chess_2.jpg,Red_Circle_Grid_1.jpg,left,500,true,high,false
mVbtWEF8,3r6rzgk0yip7nifkjif6ljfzh4yvyd,3s3amizx3yiadicnn72p7qd1r7fdcr,mVbtWEF8,2020-0188,2020-11-16,19:36:59,19:59:09,NA,incomplete,86,shape,0,0,left,Green_Plus_Grid_3.jpg,Purple_Plus_Chess_2.jpg,Red_Circle_Grid_4.jpg,left,563.0000000819564,true,high,false
mVbtWEF8,3r6rzgk0yip7nifkjif6ljfzh4yvyd,3s3amizx3yiadicnn72p7qd1r7fdcr,mVbtWEF8,2020-0188,2020-11-16,19:36:59,19:59:09,NA,incomplete,87,shape,0,1,right,Blue_Circle_Chess_2.jpg,Purple_Plus_Chess_4.jpg,Red_Circle_Dots_1.jpg,right,489.99999975785613,true,high,false
mVbtWEF8,3r6rzgk0yip7nifkjif6ljfzh4yvyd,3s3amizx3yiadicnn72p7qd1r7fdcr,mVbtWEF8,2020-0188,2020-11-16,19:36:59,19:59:09,NA,incomplete,88,shape,0,1,left,Green_Plus_Chess_2.jpg,Purple_Plus_Dots_4.jpg,Red_Circle_Chess_1.jpg,left,523.0000000447035,true,high,false
mVbtWEF8,3r6rzgk0yip7nifkjif6ljfzh4yvyd,3s3amizx3yiadicnn72p7qd1r7fdcr,mVbtWEF8,2020-0188,2020-11-16,19:36:59,19:59:09,NA,incomplete,89,shape,0,1,right,Blue_Triangle_Chess_3.jpg,Red_Circle_Chess_4.jpg,Green_Triangle_Dots_2.jpg,right,563.0000000819564,true,high,false
mVbtWEF8,3r6rzgk0yip7nifkjif6ljfzh4yvyd,3s3amizx3yiadicnn72p7qd1r7fdcr,mVbtWEF8,2020-0188,2020-11-16,19:36:59,19:59:09,NA,incomplete,90,filling,1,0,right,Red_Plus_Dots_4.jpg,Purple_Plus_Grid_2.jpg,Green_Star_Dots_3.jpg,left,504.9999998882413,false,high,false
mVbtWEF8,3r6rzgk0yip7nifkjif6ljfzh4yvyd,3s3amizx3yiadicnn72p7qd1r7fdcr,mVbtWEF8,2020-0188,2020-11-16,19:36:59,19:59:09,NA,incomplete,91,filling,1,0,left,Green_Circle_Chess_3.jpg,Red_Star_Chess_2.jpg,Blue_Circle_Grid_4.jpg,right,460.9999996609986,false,high,false
mVbtWEF8,3r6rzgk0yip7nifkjif6ljfzh4yvyd,3s3amizx3yiadicnn72p7qd1r7fdcr,mVbtWEF8,2020-0188,2020-11-16,19:36:59,19:59:09,NA,incomplete,92,filling,1,1,left,Green_Plus_Grid_2.jpg,Purple_Circle_Grid_3.jpg,Blue_Plus_Stripes_1.jpg,right,578.0000002123415,false,high,false
mVbtWEF8,3r6rzgk0yip7nifkjif6ljfzh4yvyd,3s3amizx3yiadicnn72p7qd1r7fdcr,mVbtWEF8,2020-0188,2020-11-16,19:36:59,19:59:09,NA,incomplete,93,filling,1,1,left,Red_Plus_Chess_2.jpg,Purple_Star_Chess_3.jpg,Green_Plus_Grid_1.jpg,right,463.9999996870756,false,high,false
mVbtWEF8,3r6rzgk0yip7nifkjif6ljfzh4yvyd,3s3amizx3yiadicnn72p7qd1r7fdcr,mVbtWEF8,2020-0188,2020-11-16,19:36:59,19:59:09,NA,incomplete,94,filling,1,1,left,Green_Star_Chess_1.jpg,Purple_Circle_Chess_4.jpg,Blue_Star_Dots_3.jpg,left,728.0000001192093,true,high,false
mVbtWEF8,3r6rzgk0yip7nifkjif6ljfzh4yvyd,3s3amizx3yiadicnn72p7qd1r7fdcr,mVbtWEF8,2020-0188,2020-11-16,19:36:59,19:59:09,NA,incomplete,95,filling,1,1,right,Purple_Plus_Chess_3.jpg,Red_Plus_Grid_4.jpg,Green_Triangle_Chess_2.jpg,right,696.9999996945262,true,high,false
mVbtWEF8,3r6rzgk0yip7nifkjif6ljfzh4yvyd,3s3amizx3yiadicnn72p7qd1r7fdcr,mVbtWEF8,2020-0188,2020-11-16,19:36:59,19:59:09,NA,incomplete,96,filling,1,1,right,Blue_Plus_Grid_4.jpg,Red_Plus_Dots_3.jpg,Purple_Circle_Grid_1.jpg,right,904.0000000968575,true,high,false
mVbtWEF8,3r6rzgk0yip7nifkjif6ljfzh4yvyd,3s3amizx3yiadicnn72p7qd1r7fdcr,mVbtWEF8,2020-0188,2020-11-16,19:36:59,19:59:09,NA,incomplete,97,filling,1,0,right,Red_Triangle_Chess_2.jpg,Blue_Triangle_Grid_1.jpg,Purple_Circle_Chess_4.jpg,right,830.0000000745058,true,high,false
mVbtWEF8,3r6rzgk0yip7nifkjif6ljfzh4yvyd,3s3amizx3yiadicnn72p7qd1r7fdcr,mVbtWEF8,2020-0188,2020-11-16,19:36:59,19:59:09,NA,incomplete,98,filling,1,0,right,Green_Circle_Dots_3.jpg,Purple_Circle_Grid_2.jpg,Red_Plus_Dots_4.jpg,right,846.9999996013939,true,high,false
mVbtWEF8,3r6rzgk0yip7nifkjif6ljfzh4yvyd,3s3amizx3yiadicnn72p7qd1r7fdcr,mVbtWEF8,2020-0188,2020-11-16,19:36:59,19:59:09,NA,incomplete,99,filling,1,1,right,Green_Circle_Stripes_2.jpg,Purple_Circle_Chess_1.jpg,Blue_Star_Stripes_4.jpg,left,558.0000001937151,false,high,false
mVbtWEF8,3r6rzgk0yip7nifkjif6ljfzh4yvyd,3s3amizx3yiadicnn72p7qd1r7fdcr,mVbtWEF8,2020-0188,2020-11-16,19:36:59,19:59:09,NA,incomplete,100,shape,0,1,right,Green_Circle_Chess_3.jpg,Purple_Triangle_Chess_2.jpg,Red_Circle_Dots_4.jpg,right,557.0000000298023,true,high,false
mVbtWEF8,3r6rzgk0yip7nifkjif6ljfzh4yvyd,3s3amizx3yiadicnn72p7qd1r7fdcr,mVbtWEF8,2020-0188,2020-11-16,19:36:59,19:59:09,NA,incomplete,101,shape,0,1,right,Blue_Star_Stripes_3.jpg,Green_Plus_Stripes_4.jpg,Purple_Star_Grid_1.jpg,right,688.0000000819564,true,high,false
mVbtWEF8,3r6rzgk0yip7nifkjif6ljfzh4yvyd,3s3amizx3yiadicnn72p7qd1r7fdcr,mVbtWEF8,2020-0188,2020-11-16,19:36:59,19:59:09,NA,incomplete,102,shape,0,0,left,Blue_Triangle_Grid_1.jpg,Red_Triangle_Chess_2.jpg,Green_Plus_Grid_4.jpg,left,500,true,high,false
mVbtWEF8,3r6rzgk0yip7nifkjif6ljfzh4yvyd,3s3amizx3yiadicnn72p7qd1r7fdcr,mVbtWEF8,2020-0188,2020-11-16,19:36:59,19:59:09,NA,incomplete,103,shape,0,1,right,Purple_Star_Stripes_3.jpg,Blue_Triangle_Stripes_2.jpg,Red_Star_Grid_1.jpg,right,558.0000001937151,true,high,false
mVbtWEF8,3r6rzgk0yip7nifkjif6ljfzh4yvyd,3s3amizx3yiadicnn72p7qd1r7fdcr,mVbtWEF8,2020-0188,2020-11-16,19:36:59,19:59:09,NA,incomplete,104,shape,0,1,left,Purple_Plus_Stripes_3.jpg,Blue_Plus_Chess_4.jpg,Red_Circle_Stripes_2.jpg,left,587.0000002905726,true,high,false
mVbtWEF8,3r6rzgk0yip7nifkjif6ljfzh4yvyd,3s3amizx3yiadicnn72p7qd1r7fdcr,mVbtWEF8,2020-0188,2020-11-16,19:36:59,19:59:09,NA,incomplete,105,shape,0,1,left,Red_Plus_Chess_1.jpg,Purple_Plus_Dots_3.jpg,Green_Circle_Chess_2.jpg,left,640.9999998286366,true,high,false
mVbtWEF8,3r6rzgk0yip7nifkjif6ljfzh4yvyd,3s3amizx3yiadicnn72p7qd1r7fdcr,mVbtWEF8,2020-0188,2020-11-16,19:36:59,19:59:09,NA,incomplete,106,shape,0,1,left,Green_Star_Grid_3.jpg,Blue_Star_Dots_1.jpg,Purple_Circle_Grid_4.jpg,left,528.9999996311963,true,high,false
mVbtWEF8,3r6rzgk0yip7nifkjif6ljfzh4yvyd,3s3amizx3yiadicnn72p7qd1r7fdcr,mVbtWEF8,2020-0188,2020-11-16,19:36:59,19:59:09,NA,incomplete,107,shape,0,1,right,Red_Star_Dots_1.jpg,Blue_Circle_Dots_2.jpg,Green_Star_Grid_4.jpg,right,500,true,high,false
mVbtWEF8,3r6rzgk0yip7nifkjif6ljfzh4yvyd,3s3amizx3yiadicnn72p7qd1r7fdcr,mVbtWEF8,2020-0188,2020-11-16,19:36:59,19:59:09,NA,incomplete,108,shape,0,1,left,Red_Star_Grid_4.jpg,Purple_Star_Chess_3.jpg,Blue_Triangle_Grid_1.jpg,left,480.99999967962503,true,high,false
mVbtWEF8,3r6rzgk0yip7nifkjif6ljfzh4yvyd,3s3amizx3yiadicnn72p7qd1r7fdcr,mVbtWEF8,2020-0188,2020-11-16,19:36:59,19:59:09,NA,incomplete,109,shape,0,1,left,Purple_Plus_Dots_3.jpg,Green_Plus_Grid_2.jpg,Red_Circle_Dots_4.jpg,left,523.999999742955,true,high,false
mVbtWEF8,3r6rzgk0yip7nifkjif6ljfzh4yvyd,3s3amizx3yiadicnn72p7qd1r7fdcr,mVbtWEF8,2020-0188,2020-11-16,19:36:59,19:59:09,NA,incomplete,110,filling,1,1,right,Blue_Plus_Grid_4.jpg,Red_Plus_Stripes_2.jpg,Purple_Star_Grid_1.jpg,left,557.9999997280538,false,high,false
mVbtWEF8,3r6rzgk0yip7nifkjif6ljfzh4yvyd,3s3amizx3yiadicnn72p7qd1r7fdcr,mVbtWEF8,2020-0188,2020-11-16,19:36:59,19:59:09,NA,incomplete,111,filling,1,1,right,Red_Star_Chess_3.jpg,Purple_Star_Dots_2.jpg,Green_Triangle_Chess_1.jpg,left,575.999999884516,false,high,false
mVbtWEF8,3r6rzgk0yip7nifkjif6ljfzh4yvyd,3s3amizx3yiadicnn72p7qd1r7fdcr,mVbtWEF8,2020-0188,2020-11-16,19:36:59,19:59:09,NA,incomplete,112,filling,1,1,right,Green_Star_Grid_2.jpg,Purple_Star_Dots_4.jpg,Red_Plus_Grid_1.jpg,right,911.0000003129244,true,high,false
mVbtWEF8,3r6rzgk0yip7nifkjif6ljfzh4yvyd,3s3amizx3yiadicnn72p7qd1r7fdcr,mVbtWEF8,2020-0188,2020-11-16,19:36:59,19:59:09,NA,incomplete,113,filling,1,1,left,Blue_Circle_Stripes_2.jpg,Purple_Plus_Stripes_4.jpg,Red_Circle_Dots_1.jpg,left,901.0000000707805,true,high,false
mVbtWEF8,3r6rzgk0yip7nifkjif6ljfzh4yvyd,3s3amizx3yiadicnn72p7qd1r7fdcr,mVbtWEF8,2020-0188,2020-11-16,19:36:59,19:59:09,NA,incomplete,114,filling,1,1,right,Red_Circle_Grid_3.jpg,Blue_Circle_Dots_4.jpg,Purple_Star_Grid_1.jpg,right,1131.9999997504056,true,high,false
mVbtWEF8,3r6rzgk0yip7nifkjif6ljfzh4yvyd,3s3amizx3yiadicnn72p7qd1r7fdcr,mVbtWEF8,2020-0188,2020-11-16,19:36:59,19:59:09,NA,incomplete,115,filling,1,1,left,Blue_Star_Grid_2.jpg,Purple_Circle_Grid_3.jpg,Green_Star_Chess_1.jpg,left,757.0000002160668,true,high,false
mVbtWEF8,3r6rzgk0yip7nifkjif6ljfzh4yvyd,3s3amizx3yiadicnn72p7qd1r7fdcr,mVbtWEF8,2020-0188,2020-11-16,19:36:59,19:59:09,NA,incomplete,116,filling,1,1,left,Green_Plus_Stripes_3.jpg,Blue_Circle_Stripes_4.jpg,Purple_Plus_Dots_1.jpg,left,663.9999998733401,true,high,false
mVbtWEF8,3r6rzgk0yip7nifkjif6ljfzh4yvyd,3s3amizx3yiadicnn72p7qd1r7fdcr,mVbtWEF8,2020-0188,2020-11-16,19:36:59,19:59:09,NA,incomplete,117,filling,1,1,left,Purple_Triangle_Stripes_1.jpg,Green_Star_Stripes_4.jpg,Red_Triangle_Dots_2.jpg,left,746.0000002756715,true,high,false
mVbtWEF8,3r6rzgk0yip7nifkjif6ljfzh4yvyd,3s3amizx3yiadicnn72p7qd1r7fdcr,mVbtWEF8,2020-0188,2020-11-16,19:36:59,19:59:09,NA,incomplete,118,filling,1,1,right,Green_Star_Grid_1.jpg,Red_Star_Stripes_3.jpg,Purple_Plus_Grid_4.jpg,left,865.9999999217689,false,high,false
mVbtWEF8,3r6rzgk0yip7nifkjif6ljfzh4yvyd,3s3amizx3yiadicnn72p7qd1r7fdcr,mVbtWEF8,2020-0188,2020-11-16,19:36:59,19:59:09,NA,incomplete,119,filling,1,1,right,Blue_Plus_Grid_4.jpg,Green_Plus_Chess_1.jpg,Red_Circle_Grid_2.jpg,right,945.9999999962747,true,high,false
mVbtWEF8,3r6rzgk0yip7nifkjif6ljfzh4yvyd,3s3amizx3yiadicnn72p7qd1r7fdcr,mVbtWEF8,2020-0188,2020-11-16,19:36:59,19:59:09,NA,incomplete,120,race,2,1,left,C_F_13.jpg,C_M_15.jpg,A_F_01.jpg,NA,NA,NA,high,false
mVbtWEF8,3r6rzgk0yip7nifkjif6ljfzh4yvyd,3s3amizx3yiadicnn72p7qd1r7fdcr,mVbtWEF8,2020-0188,2020-11-16,19:36:59,19:59:09,NA,incomplete,121,race,2,1,right,C_F_08.jpg,A_F_04.jpg,C_M_14.jpg,left,1081.99999993667,false,high,false
mVbtWEF8,3r6rzgk0yip7nifkjif6ljfzh4yvyd,3s3amizx3yiadicnn72p7qd1r7fdcr,mVbtWEF8,2020-0188,2020-11-16,19:36:59,19:59:09,NA,incomplete,122,race,2,1,left,C_M_14.jpg,C_F_08.jpg,A_M_13.jpg,right,1075.999999884516,false,high,false
mVbtWEF8,3r6rzgk0yip7nifkjif6ljfzh4yvyd,3s3amizx3yiadicnn72p7qd1r7fdcr,mVbtWEF8,2020-0188,2020-11-16,19:36:59,19:59:09,NA,incomplete,123,race,2,1,right,C_M_05.jpg,A_M_10.jpg,C_F_07.jpg,right,1535.0000001490116,true,high,false
mVbtWEF8,3r6rzgk0yip7nifkjif6ljfzh4yvyd,3s3amizx3yiadicnn72p7qd1r7fdcr,mVbtWEF8,2020-0188,2020-11-16,19:36:59,19:59:09,NA,incomplete,124,race,2,1,right,C_M_04.jpg,A_M_12.jpg,C_F_08.jpg,right,1398.0000000447035,true,high,false
mVbtWEF8,3r6rzgk0yip7nifkjif6ljfzh4yvyd,3s3amizx3yiadicnn72p7qd1r7fdcr,mVbtWEF8,2020-0188,2020-11-16,19:36:59,19:59:09,NA,incomplete,125,race,2,1,right,C_M_07.jpg,A_M_06.jpg,C_F_04.jpg,right,1156.9999996572733,true,high,false
mVbtWEF8,3r6rzgk0yip7nifkjif6ljfzh4yvyd,3s3amizx3yiadicnn72p7qd1r7fdcr,mVbtWEF8,2020-0188,2020-11-16,19:36:59,19:59:09,NA,incomplete,126,race,2,1,left,C_M_14.jpg,C_F_09.jpg,A_M_13.jpg,left,836.0000001266599,true,high,false
mVbtWEF8,3r6rzgk0yip7nifkjif6ljfzh4yvyd,3s3amizx3yiadicnn72p7qd1r7fdcr,mVbtWEF8,2020-0188,2020-11-16,19:36:59,19:59:09,NA,incomplete,127,race,2,1,right,C_M_08.jpg,A_M_13.jpg,C_F_07.jpg,right,1078.0000002123415,true,high,false
mVbtWEF8,3r6rzgk0yip7nifkjif6ljfzh4yvyd,3s3amizx3yiadicnn72p7qd1r7fdcr,mVbtWEF8,2020-0188,2020-11-16,19:36:59,19:59:09,NA,incomplete,128,race,2,1,right,A_M_04.jpg,C_M_07.jpg,A_F_08.jpg,right,1625,true,high,false
mVbtWEF8,3r6rzgk0yip7nifkjif6ljfzh4yvyd,3s3amizx3yiadicnn72p7qd1r7fdcr,mVbtWEF8,2020-0188,2020-11-16,19:36:59,19:59:09,NA,incomplete,129,race,2,1,right,C_M_09.jpg,A_M_13.jpg,C_F_04.jpg,none,0,false,high,false
mVbtWEF8,3r6rzgk0yip7nifkjif6ljfzh4yvyd,3s3amizx3yiadicnn72p7qd1r7fdcr,mVbtWEF8,2020-0188,2020-11-16,19:36:59,19:59:09,NA,incomplete,130,race,2,0,right,A_M_15.jpg,C_M_07.jpg,A_F_04.jpg,left,709.0000002644956,false,high,false
mVbtWEF8,3r6rzgk0yip7nifkjif6ljfzh4yvyd,3s3amizx3yiadicnn72p7qd1r7fdcr,mVbtWEF8,2020-0188,2020-11-16,19:36:59,19:59:09,NA,incomplete,131,race,2,1,left,C_M_05.jpg,C_F_02.jpg,A_M_11.jpg,right,845.9999999031425,false,high,false
mVbtWEF8,3r6rzgk0yip7nifkjif6ljfzh4yvyd,3s3amizx3yiadicnn72p7qd1r7fdcr,mVbtWEF8,2020-0188,2020-11-16,19:36:59,19:59:09,NA,incomplete,132,race,2,1,right,C_F_07.jpg,A_F_08.jpg,C_M_09.jpg,left,992.9999997839332,false,high,false
mVbtWEF8,3r6rzgk0yip7nifkjif6ljfzh4yvyd,3s3amizx3yiadicnn72p7qd1r7fdcr,mVbtWEF8,2020-0188,2020-11-16,19:36:59,19:59:09,NA,incomplete,133,race,2,1,left,A_F_02.jpg,A_M_04.jpg,C_F_05.jpg,left,1001.0000001639128,true,high,false
mVbtWEF8,3r6rzgk0yip7nifkjif6ljfzh4yvyd,3s3amizx3yiadicnn72p7qd1r7fdcr,mVbtWEF8,2020-0188,2020-11-16,19:36:59,19:59:09,NA,incomplete,134,race,2,1,right,A_M_10.jpg,C_M_08.jpg,A_F_05.jpg,right,743.9999999478459,true,high,false
mVbtWEF8,3r6rzgk0yip7nifkjif6ljfzh4yvyd,3s3amizx3yiadicnn72p7qd1r7fdcr,mVbtWEF8,2020-0188,2020-11-16,19:36:59,19:59:09,NA,incomplete,135,race,2,1,right,A_F_02.jpg,C_F_16.jpg,A_M_12.jpg,right,751.9999998621643,true,high,false
mVbtWEF8,3r6rzgk0yip7nifkjif6ljfzh4yvyd,3s3amizx3yiadicnn72p7qd1r7fdcr,mVbtWEF8,2020-0188,2020-11-16,19:36:59,19:59:09,NA,incomplete,136,race,2,1,left,C_M_13.jpg,C_F_03.jpg,A_M_08.jpg,left,1037.0000000111759,true,high,false
mVbtWEF8,3r6rzgk0yip7nifkjif6ljfzh4yvyd,3s3amizx3yiadicnn72p7qd1r7fdcr,mVbtWEF8,2020-0188,2020-11-16,19:36:59,19:59:09,NA,incomplete,137,race,2,1,left,C_M_15.jpg,C_F_01.jpg,A_M_12.jpg,left,827.0000000484288,true,high,false
mVbtWEF8,3r6rzgk0yip7nifkjif6ljfzh4yvyd,3s3amizx3yiadicnn72p7qd1r7fdcr,mVbtWEF8,2020-0188,2020-11-16,19:36:59,19:59:09,NA,incomplete,138,race,2,1,left,A_F_07.jpg,A_M_10.jpg,C_F_06.jpg,right,1975.0000000931323,false,high,false
mVbtWEF8,3r6rzgk0yip7nifkjif6ljfzh4yvyd,3s3amizx3yiadicnn72p7qd1r7fdcr,mVbtWEF8,2020-0188,2020-11-16,19:36:59,19:59:09,NA,incomplete,139,race,2,0,left,A_F_01.jpg,A_M_16.jpg,C_F_02.jpg,left,787.0000000111759,true,high,false
mVbtWEF8,3r6rzgk0yip7nifkjif6ljfzh4yvyd,3s3amizx3yiadicnn72p7qd1r7fdcr,mVbtWEF8,2020-0188,2020-11-16,19:36:59,19:59:09,NA,incomplete,140,gender,3,1,right,C_F_03.jpg,C_M_07.jpg,A_F_10.jpg,right,1049.000000115484,true,high,false
mVbtWEF8,3r6rzgk0yip7nifkjif6ljfzh4yvyd,3s3amizx3yiadicnn72p7qd1r7fdcr,mVbtWEF8,2020-0188,2020-11-16,19:36:59,19:59:09,NA,incomplete,141,gender,3,0,right,C_M_05.jpg,C_F_10.jpg,A_M_07.jpg,right,1195.0000002980232,true,high,false
mVbtWEF8,3r6rzgk0yip7nifkjif6ljfzh4yvyd,3s3amizx3yiadicnn72p7qd1r7fdcr,mVbtWEF8,2020-0188,2020-11-16,19:36:59,19:59:09,NA,incomplete,142,gender,3,1,right,C_M_07.jpg,C_F_05.jpg,A_M_03.jpg,right,712.9999999888241,true,high,false
mVbtWEF8,3r6rzgk0yip7nifkjif6ljfzh4yvyd,3s3amizx3yiadicnn72p7qd1r7fdcr,mVbtWEF8,2020-0188,2020-11-16,19:36:59,19:59:09,NA,incomplete,143,gender,3,0,left,C_M_12.jpg,A_M_09.jpg,C_F_13.jpg,left,745.0000001117587,true,high,false
mVbtWEF8,3r6rzgk0yip7nifkjif6ljfzh4yvyd,3s3amizx3yiadicnn72p7qd1r7fdcr,mVbtWEF8,2020-0188,2020-11-16,19:36:59,19:59:09,NA,incomplete,144,gender,3,1,left,C_F_02.jpg,A_F_01.jpg,C_M_16.jpg,left,1134.9999997764826,true,high,false
mVbtWEF8,3r6rzgk0yip7nifkjif6ljfzh4yvyd,3s3amizx3yiadicnn72p7qd1r7fdcr,mVbtWEF8,2020-0188,2020-11-16,19:36:59,19:59:09,NA,incomplete,145,gender,3,1,left,A_M_16.jpg,C_M_05.jpg,A_F_15.jpg,left,1463.9999996870756,true,high,false
mVbtWEF8,3r6rzgk0yip7nifkjif6ljfzh4yvyd,3s3amizx3yiadicnn72p7qd1r7fdcr,mVbtWEF8,2020-0188,2020-11-16,19:36:59,19:59:09,NA,incomplete,146,gender,3,1,left,A_F_14.jpg,C_F_09.jpg,A_M_05.jpg,left,974.0000003948808,true,high,false
mVbtWEF8,3r6rzgk0yip7nifkjif6ljfzh4yvyd,3s3amizx3yiadicnn72p7qd1r7fdcr,mVbtWEF8,2020-0188,2020-11-16,19:36:59,19:59:09,NA,incomplete,147,gender,3,1,left,C_M_09.jpg,A_M_02.jpg,C_F_07.jpg,left,935.9999997541308,true,high,false
mVbtWEF8,3r6rzgk0yip7nifkjif6ljfzh4yvyd,3s3amizx3yiadicnn72p7qd1r7fdcr,mVbtWEF8,2020-0188,2020-11-16,19:36:59,19:59:09,NA,incomplete,148,gender,3,0,left,C_M_06.jpg,A_M_05.jpg,C_F_04.jpg,left,733.0000000074506,true,high,false
mVbtWEF8,3r6rzgk0yip7nifkjif6ljfzh4yvyd,3s3amizx3yiadicnn72p7qd1r7fdcr,mVbtWEF8,2020-0188,2020-11-16,19:36:59,19:59:09,NA,incomplete,149,gender,3,1,right,C_F_16.jpg,C_M_10.jpg,A_F_15.jpg,right,685.9999997541308,true,high,false
mVbtWEF8,3r6rzgk0yip7nifkjif6ljfzh4yvyd,3s3amizx3yiadicnn72p7qd1r7fdcr,mVbtWEF8,2020-0188,2020-11-16,19:36:59,19:59:09,NA,incomplete,150,gender,3,0,left,A_M_09.jpg,C_M_07.jpg,A_F_08.jpg,left,927.9999998398125,true,high,false
mVbtWEF8,3r6rzgk0yip7nifkjif6ljfzh4yvyd,3s3amizx3yiadicnn72p7qd1r7fdcr,mVbtWEF8,2020-0188,2020-11-16,19:36:59,19:59:09,NA,incomplete,151,gender,3,1,right,C_M_13.jpg,C_F_16.jpg,A_M_08.jpg,right,1093.0000003427267,true,high,false
mVbtWEF8,3r6rzgk0yip7nifkjif6ljfzh4yvyd,3s3amizx3yiadicnn72p7qd1r7fdcr,mVbtWEF8,2020-0188,2020-11-16,19:36:59,19:59:09,NA,incomplete,152,gender,3,1,left,C_M_06.jpg,A_M_11.jpg,C_F_09.jpg,left,929.9999997019768,true,high,false
mVbtWEF8,3r6rzgk0yip7nifkjif6ljfzh4yvyd,3s3amizx3yiadicnn72p7qd1r7fdcr,mVbtWEF8,2020-0188,2020-11-16,19:36:59,19:59:09,NA,incomplete,153,gender,3,1,right,C_F_04.jpg,C_M_12.jpg,A_F_06.jpg,right,1235.0000003352761,true,high,false
mVbtWEF8,3r6rzgk0yip7nifkjif6ljfzh4yvyd,3s3amizx3yiadicnn72p7qd1r7fdcr,mVbtWEF8,2020-0188,2020-11-16,19:36:59,19:59:09,NA,incomplete,154,gender,3,0,left,A_M_10.jpg,C_M_05.jpg,A_F_04.jpg,left,723.9999999292195,true,high,false
mVbtWEF8,3r6rzgk0yip7nifkjif6ljfzh4yvyd,3s3amizx3yiadicnn72p7qd1r7fdcr,mVbtWEF8,2020-0188,2020-11-16,19:36:59,19:59:09,NA,incomplete,155,gender,3,1,left,A_F_07.jpg,C_F_15.jpg,A_M_01.jpg,left,1419.9999999254942,true,high,false
mVbtWEF8,3r6rzgk0yip7nifkjif6ljfzh4yvyd,3s3amizx3yiadicnn72p7qd1r7fdcr,mVbtWEF8,2020-0188,2020-11-16,19:36:59,19:59:09,NA,incomplete,156,gender,3,1,right,C_M_05.jpg,C_F_01.jpg,A_M_08.jpg,right,1247.0000004395843,true,high,false
mVbtWEF8,3r6rzgk0yip7nifkjif6ljfzh4yvyd,3s3amizx3yiadicnn72p7qd1r7fdcr,mVbtWEF8,2020-0188,2020-11-16,19:36:59,19:59:09,NA,incomplete,157,gender,3,1,left,A_M_10.jpg,C_M_16.jpg,A_F_02.jpg,left,969.0000000409782,true,high,false
mVbtWEF8,3r6rzgk0yip7nifkjif6ljfzh4yvyd,3s3amizx3yiadicnn72p7qd1r7fdcr,mVbtWEF8,2020-0188,2020-11-16,19:36:59,19:59:09,NA,incomplete,158,gender,3,1,right,A_F_01.jpg,A_M_15.jpg,C_F_07.jpg,right,845.9999999031425,true,high,false
mVbtWEF8,3r6rzgk0yip7nifkjif6ljfzh4yvyd,3s3amizx3yiadicnn72p7qd1r7fdcr,mVbtWEF8,2020-0188,2020-11-16,19:36:59,19:59:09,NA,incomplete,159,gender,3,1,right,C_F_14.jpg,C_M_07.jpg,A_F_15.jpg,right,712.0000002905726,true,high,false
mVbtWEF8,3r6rzgk0yip7nifkjif6ljfzh4yvyd,3s3amizx3yiadicnn72p7qd1r7fdcr,mVbtWEF8,2020-0188,2020-11-16,19:36:59,19:59:09,NA,incomplete,160,race,2,1,left,C_M_10.jpg,C_F_08.jpg,A_M_15.jpg,left,1003.000000026077,true,high,false
mVbtWEF8,3r6rzgk0yip7nifkjif6ljfzh4yvyd,3s3amizx3yiadicnn72p7qd1r7fdcr,mVbtWEF8,2020-0188,2020-11-16,19:36:59,19:59:09,NA,incomplete,161,race,2,1,left,C_M_16.jpg,C_F_05.jpg,A_M_14.jpg,left,1101.000000257045,true,high,false
mVbtWEF8,3r6rzgk0yip7nifkjif6ljfzh4yvyd,3s3amizx3yiadicnn72p7qd1r7fdcr,mVbtWEF8,2020-0188,2020-11-16,19:36:59,19:59:09,NA,incomplete,162,race,2,0,left,C_F_14.jpg,C_M_06.jpg,A_F_12.jpg,left,1686.9999999180436,true,high,false
mVbtWEF8,3r6rzgk0yip7nifkjif6ljfzh4yvyd,3s3amizx3yiadicnn72p7qd1r7fdcr,mVbtWEF8,2020-0188,2020-11-16,19:36:59,19:59:09,NA,incomplete,163,race,2,1,left,C_F_13.jpg,C_M_04.jpg,A_F_03.jpg,left,1485.0000003352761,true,high,false
mVbtWEF8,3r6rzgk0yip7nifkjif6ljfzh4yvyd,3s3amizx3yiadicnn72p7qd1r7fdcr,mVbtWEF8,2020-0188,2020-11-16,19:36:59,19:59:09,NA,incomplete,164,race,2,1,right,A_F_02.jpg,C_F_10.jpg,A_M_06.jpg,right,1103.0000001192093,true,high,false
mVbtWEF8,3r6rzgk0yip7nifkjif6ljfzh4yvyd,3s3amizx3yiadicnn72p7qd1r7fdcr,mVbtWEF8,2020-0188,2020-11-16,19:36:59,19:59:09,NA,incomplete,165,race,2,1,left,A_M_05.jpg,A_F_02.jpg,C_M_04.jpg,left,1027.9999999329448,true,high,false
mVbtWEF8,3r6rzgk0yip7nifkjif6ljfzh4yvyd,3s3amizx3yiadicnn72p7qd1r7fdcr,mVbtWEF8,2020-0188,2020-11-16,19:36:59,19:59:09,NA,incomplete,166,race,2,0,right,C_M_02.jpg,A_M_15.jpg,C_F_14.jpg,right,1379.9999998882413,true,high,false
mVbtWEF8,3r6rzgk0yip7nifkjif6ljfzh4yvyd,3s3amizx3yiadicnn72p7qd1r7fdcr,mVbtWEF8,2020-0188,2020-11-16,19:36:59,19:59:09,NA,incomplete,167,race,2,1,right,A_M_07.jpg,C_M_10.jpg,A_F_13.jpg,right,836.9999998249114,true,high,false
mVbtWEF8,3r6rzgk0yip7nifkjif6ljfzh4yvyd,3s3amizx3yiadicnn72p7qd1r7fdcr,mVbtWEF8,2020-0188,2020-11-16,19:36:59,19:59:09,NA,incomplete,168,race,2,1,left,A_F_05.jpg,A_M_10.jpg,C_F_11.jpg,left,952.9999997466803,true,high,false
mVbtWEF8,3r6rzgk0yip7nifkjif6ljfzh4yvyd,3s3amizx3yiadicnn72p7qd1r7fdcr,mVbtWEF8,2020-0188,2020-11-16,19:36:59,19:59:09,NA,incomplete,169,race,2,0,left,C_M_03.jpg,C_F_05.jpg,A_M_16.jpg,left,1458.9999997988343,true,high,false
mVbtWEF8,3r6rzgk0yip7nifkjif6ljfzh4yvyd,3s3amizx3yiadicnn72p7qd1r7fdcr,mVbtWEF8,2020-0188,2020-11-16,19:36:59,19:59:09,NA,incomplete,170,race,2,1,right,A_F_01.jpg,C_F_15.jpg,A_M_09.jpg,right,589.9999998509884,true,high,false
mVbtWEF8,3r6rzgk0yip7nifkjif6ljfzh4yvyd,3s3amizx3yiadicnn72p7qd1r7fdcr,mVbtWEF8,2020-0188,2020-11-16,19:36:59,19:59:09,NA,incomplete,171,race,2,1,left,C_F_12.jpg,C_M_02.jpg,A_F_03.jpg,left,1468.0000003427267,true,high,false
mVbtWEF8,3r6rzgk0yip7nifkjif6ljfzh4yvyd,3s3amizx3yiadicnn72p7qd1r7fdcr,mVbtWEF8,2020-0188,2020-11-16,19:36:59,19:59:09,NA,incomplete,172,race,2,1,right,C_F_06.jpg,A_F_08.jpg,C_M_10.jpg,right,1037.0000000111759,true,high,false
mVbtWEF8,3r6rzgk0yip7nifkjif6ljfzh4yvyd,3s3amizx3yiadicnn72p7qd1r7fdcr,mVbtWEF8,2020-0188,2020-11-16,19:36:59,19:59:09,NA,incomplete,173,race,2,1,right,C_F_11.jpg,A_F_09.jpg,C_M_06.jpg,left,1632.9999999143183,false,high,false
mVbtWEF8,3r6rzgk0yip7nifkjif6ljfzh4yvyd,3s3amizx3yiadicnn72p7qd1r7fdcr,mVbtWEF8,2020-0188,2020-11-16,19:36:59,19:59:09,NA,incomplete,174,race,2,0,left,C_F_04.jpg,C_M_10.jpg,A_F_06.jpg,left,1054.9999997019768,true,high,false
mVbtWEF8,3r6rzgk0yip7nifkjif6ljfzh4yvyd,3s3amizx3yiadicnn72p7qd1r7fdcr,mVbtWEF8,2020-0188,2020-11-16,19:36:59,19:59:09,NA,incomplete,175,race,2,1,left,A_M_16.jpg,A_F_05.jpg,C_M_15.jpg,left,603.0000001192093,true,high,false
mVbtWEF8,3r6rzgk0yip7nifkjif6ljfzh4yvyd,3s3amizx3yiadicnn72p7qd1r7fdcr,mVbtWEF8,2020-0188,2020-11-16,19:36:59,19:59:09,NA,incomplete,176,race,2,1,right,C_F_04.jpg,A_F_10.jpg,C_M_01.jpg,right,760.9999999403954,true,high,false
mVbtWEF8,3r6rzgk0yip7nifkjif6ljfzh4yvyd,3s3amizx3yiadicnn72p7qd1r7fdcr,mVbtWEF8,2020-0188,2020-11-16,19:36:59,19:59:09,NA,incomplete,177,race,2,1,left,A_F_03.jpg,A_M_08.jpg,C_F_02.jpg,left,637.0000001043081,true,high,false
mVbtWEF8,3r6rzgk0yip7nifkjif6ljfzh4yvyd,3s3amizx3yiadicnn72p7qd1r7fdcr,mVbtWEF8,2020-0188,2020-11-16,19:36:59,19:59:09,NA,incomplete,178,race,2,1,left,A_F_05.jpg,A_M_11.jpg,C_F_14.jpg,left,802.000000141561,true,high,false
mVbtWEF8,3r6rzgk0yip7nifkjif6ljfzh4yvyd,3s3amizx3yiadicnn72p7qd1r7fdcr,mVbtWEF8,2020-0188,2020-11-16,19:36:59,19:59:09,NA,incomplete,179,race,2,0,left,A_M_07.jpg,A_F_13.jpg,C_M_01.jpg,left,586.0000001266599,true,high,false
mVbtWEF8,3r6rzgk0yip7nifkjif6ljfzh4yvyd,3s3amizx3yiadicnn72p7qd1r7fdcr,mVbtWEF8,2020-0188,2020-11-16,19:36:59,19:59:09,NA,incomplete,180,gender,3,1,right,A_F_07.jpg,A_M_14.jpg,C_F_01.jpg,left,586.9999998249114,false,high,false
mVbtWEF8,3r6rzgk0yip7nifkjif6ljfzh4yvyd,3s3amizx3yiadicnn72p7qd1r7fdcr,mVbtWEF8,2020-0188,2020-11-16,19:36:59,19:59:09,NA,incomplete,181,gender,3,1,right,C_F_02.jpg,C_M_15.jpg,A_F_06.jpg,right,1032.999999821186,true,high,false
mVbtWEF8,3r6rzgk0yip7nifkjif6ljfzh4yvyd,3s3amizx3yiadicnn72p7qd1r7fdcr,mVbtWEF8,2020-0188,2020-11-16,19:36:59,19:59:09,NA,incomplete,182,gender,3,1,right,A_M_13.jpg,A_F_03.jpg,C_M_08.jpg,right,1001.0000001639128,true,high,false
mVbtWEF8,3r6rzgk0yip7nifkjif6ljfzh4yvyd,3s3amizx3yiadicnn72p7qd1r7fdcr,mVbtWEF8,2020-0188,2020-11-16,19:36:59,19:59:09,NA,incomplete,183,gender,3,1,right,C_M_15.jpg,C_F_09.jpg,A_M_10.jpg,right,785.0000001490116,true,high,false
mVbtWEF8,3r6rzgk0yip7nifkjif6ljfzh4yvyd,3s3amizx3yiadicnn72p7qd1r7fdcr,mVbtWEF8,2020-0188,2020-11-16,19:36:59,19:59:09,NA,incomplete,184,gender,3,1,left,C_F_07.jpg,A_F_04.jpg,C_M_09.jpg,left,610.0000003352761,true,high,false
mVbtWEF8,3r6rzgk0yip7nifkjif6ljfzh4yvyd,3s3amizx3yiadicnn72p7qd1r7fdcr,mVbtWEF8,2020-0188,2020-11-16,19:36:59,19:59:09,NA,incomplete,185,gender,3,1,left,A_M_12.jpg,C_M_03.jpg,A_F_06.jpg,left,861.0000000335276,true,high,false
mVbtWEF8,3r6rzgk0yip7nifkjif6ljfzh4yvyd,3s3amizx3yiadicnn72p7qd1r7fdcr,mVbtWEF8,2020-0188,2020-11-16,19:36:59,19:59:09,NA,incomplete,186,gender,3,1,left,C_F_03.jpg,A_F_12.jpg,C_M_15.jpg,left,844.9999997392297,true,high,false
mVbtWEF8,3r6rzgk0yip7nifkjif6ljfzh4yvyd,3s3amizx3yiadicnn72p7qd1r7fdcr,mVbtWEF8,2020-0188,2020-11-16,19:36:59,19:59:09,NA,incomplete,187,gender,3,1,right,C_M_12.jpg,C_F_04.jpg,A_M_02.jpg,right,900.000000372529,true,high,false
mVbtWEF8,3r6rzgk0yip7nifkjif6ljfzh4yvyd,3s3amizx3yiadicnn72p7qd1r7fdcr,mVbtWEF8,2020-0188,2020-11-16,19:36:59,19:59:09,NA,incomplete,188,gender,3,1,right,C_M_12.jpg,C_F_02.jpg,A_M_05.jpg,right,699.0000000223517,true,high,false
mVbtWEF8,3r6rzgk0yip7nifkjif6ljfzh4yvyd,3s3amizx3yiadicnn72p7qd1r7fdcr,mVbtWEF8,2020-0188,2020-11-16,19:36:59,19:59:09,NA,incomplete,189,gender,3,1,right,C_F_03.jpg,C_M_07.jpg,A_F_10.jpg,right,674.000000115484,true,high,false
mVbtWEF8,3r6rzgk0yip7nifkjif6ljfzh4yvyd,3s3amizx3yiadicnn72p7qd1r7fdcr,mVbtWEF8,2020-0188,2020-11-16,19:36:59,19:59:09,NA,incomplete,190,gender,3,0,right,A_F_07.jpg,A_M_10.jpg,C_F_04.jpg,right,723.9999999292195,true,high,false
mVbtWEF8,3r6rzgk0yip7nifkjif6ljfzh4yvyd,3s3amizx3yiadicnn72p7qd1r7fdcr,mVbtWEF8,2020-0188,2020-11-16,19:36:59,19:59:09,NA,incomplete,191,gender,3,1,left,C_F_11.jpg,A_F_05.jpg,C_M_08.jpg,left,601.9999999552965,true,high,false
mVbtWEF8,3r6rzgk0yip7nifkjif6ljfzh4yvyd,3s3amizx3yiadicnn72p7qd1r7fdcr,mVbtWEF8,2020-0188,2020-11-16,19:36:59,19:59:09,NA,incomplete,192,gender,3,1,right,A_F_07.jpg,A_M_06.jpg,C_F_09.jpg,right,714.9999998509884,true,high,false
mVbtWEF8,3r6rzgk0yip7nifkjif6ljfzh4yvyd,3s3amizx3yiadicnn72p7qd1r7fdcr,mVbtWEF8,2020-0188,2020-11-16,19:36:59,19:59:09,NA,incomplete,193,gender,3,1,right,C_F_09.jpg,C_M_15.jpg,A_F_12.jpg,right,961.0000001266599,true,high,false
mVbtWEF8,3r6rzgk0yip7nifkjif6ljfzh4yvyd,3s3amizx3yiadicnn72p7qd1r7fdcr,mVbtWEF8,2020-0188,2020-11-16,19:36:59,19:59:09,NA,incomplete,194,gender,3,1,left,A_F_13.jpg,C_F_16.jpg,A_M_06.jpg,left,796.9999997876585,true,high,false
mVbtWEF8,3r6rzgk0yip7nifkjif6ljfzh4yvyd,3s3amizx3yiadicnn72p7qd1r7fdcr,mVbtWEF8,2020-0188,2020-11-16,19:36:59,19:59:09,NA,incomplete,195,gender,3,1,left,A_M_16.jpg,C_M_15.jpg,A_F_11.jpg,left,1476.000000257045,true,high,false
mVbtWEF8,3r6rzgk0yip7nifkjif6ljfzh4yvyd,3s3amizx3yiadicnn72p7qd1r7fdcr,mVbtWEF8,2020-0188,2020-11-16,19:36:59,19:59:09,NA,incomplete,196,gender,3,1,right,C_M_09.jpg,C_F_13.jpg,A_M_12.jpg,right,1373.9999998360872,true,high,false
mVbtWEF8,3r6rzgk0yip7nifkjif6ljfzh4yvyd,3s3amizx3yiadicnn72p7qd1r7fdcr,mVbtWEF8,2020-0188,2020-11-16,19:36:59,19:59:09,NA,incomplete,197,gender,3,1,left,A_M_15.jpg,C_M_08.jpg,A_F_16.jpg,left,860.0000003352761,true,high,false
mVbtWEF8,3r6rzgk0yip7nifkjif6ljfzh4yvyd,3s3amizx3yiadicnn72p7qd1r7fdcr,mVbtWEF8,2020-0188,2020-11-16,19:36:59,19:59:09,NA,incomplete,198,gender,3,0,right,C_F_12.jpg,C_M_04.jpg,A_F_11.jpg,right,1537.0000000111759,true,high,false
mVbtWEF8,3r6rzgk0yip7nifkjif6ljfzh4yvyd,3s3amizx3yiadicnn72p7qd1r7fdcr,mVbtWEF8,2020-0188,2020-11-16,19:36:59,19:59:09,NA,incomplete,199,gender,3,1,right,A_M_09.jpg,A_F_14.jpg,C_M_10.jpg,left,729.9999999813735,false,high,false
mVbtWEF8,3r6rzgk0yip7nifkjif6ljfzh4yvyd,3s3amizx3yiadicnn72p7qd1r7fdcr,mVbtWEF8,2020-0188,2020-11-16,19:36:59,19:59:09,NA,incomplete,200,race,2,1,left,C_M_12.jpg,C_F_06.jpg,A_M_08.jpg,left,1160.0000001490116,true,high,false
mVbtWEF8,3r6rzgk0yip7nifkjif6ljfzh4yvyd,3s3amizx3yiadicnn72p7qd1r7fdcr,mVbtWEF8,2020-0188,2020-11-16,19:36:59,19:59:09,NA,incomplete,201,race,2,1,right,C_M_12.jpg,A_M_06.jpg,C_F_07.jpg,right,1239.0000000596046,true,high,false
mVbtWEF8,3r6rzgk0yip7nifkjif6ljfzh4yvyd,3s3amizx3yiadicnn72p7qd1r7fdcr,mVbtWEF8,2020-0188,2020-11-16,19:36:59,19:59:09,NA,incomplete,202,race,2,1,left,C_M_12.jpg,C_F_03.jpg,A_M_02.jpg,left,990.0000002235174,true,high,false
mVbtWEF8,3r6rzgk0yip7nifkjif6ljfzh4yvyd,3s3amizx3yiadicnn72p7qd1r7fdcr,mVbtWEF8,2020-0188,2020-11-16,19:36:59,19:59:09,NA,incomplete,203,race,2,0,left,C_F_05.jpg,C_M_15.jpg,A_F_09.jpg,left,1030.9999999590218,true,high,false
mVbtWEF8,3r6rzgk0yip7nifkjif6ljfzh4yvyd,3s3amizx3yiadicnn72p7qd1r7fdcr,mVbtWEF8,2020-0188,2020-11-16,19:36:59,19:59:09,NA,incomplete,204,race,2,1,left,A_M_09.jpg,A_F_07.jpg,C_M_10.jpg,left,733.0000000074506,true,high,false
mVbtWEF8,3r6rzgk0yip7nifkjif6ljfzh4yvyd,3s3amizx3yiadicnn72p7qd1r7fdcr,mVbtWEF8,2020-0188,2020-11-16,19:36:59,19:59:09,NA,incomplete,205,race,2,1,left,C_F_12.jpg,C_M_05.jpg,A_F_15.jpg,left,988.0000003613532,true,high,false
mVbtWEF8,3r6rzgk0yip7nifkjif6ljfzh4yvyd,3s3amizx3yiadicnn72p7qd1r7fdcr,mVbtWEF8,2020-0188,2020-11-16,19:36:59,19:59:09,NA,incomplete,206,race,2,1,right,A_F_01.jpg,C_F_11.jpg,A_M_05.jpg,right,768.0000001564622,true,high,false
mVbtWEF8,3r6rzgk0yip7nifkjif6ljfzh4yvyd,3s3amizx3yiadicnn72p7qd1r7fdcr,mVbtWEF8,2020-0188,2020-11-16,19:36:59,19:59:09,NA,incomplete,207,race,2,0,right,C_F_16.jpg,A_F_04.jpg,C_M_13.jpg,right,745.0000001117587,true,high,false
mVbtWEF8,3r6rzgk0yip7nifkjif6ljfzh4yvyd,3s3amizx3yiadicnn72p7qd1r7fdcr,mVbtWEF8,2020-0188,2020-11-16,19:36:59,19:59:09,NA,incomplete,208,race,2,1,right,C_F_09.jpg,A_F_04.jpg,C_M_06.jpg,right,944.9999998323619,true,high,false
mVbtWEF8,3r6rzgk0yip7nifkjif6ljfzh4yvyd,3s3amizx3yiadicnn72p7qd1r7fdcr,mVbtWEF8,2020-0188,2020-11-16,19:36:59,19:59:09,NA,incomplete,209,race,2,1,left,A_F_16.jpg,A_M_07.jpg,C_F_05.jpg,left,740.0000002235174,true,high,false
mVbtWEF8,3r6rzgk0yip7nifkjif6ljfzh4yvyd,3s3amizx3yiadicnn72p7qd1r7fdcr,mVbtWEF8,2020-0188,2020-11-16,19:36:59,19:59:09,NA,incomplete,210,race,2,0,left,A_F_06.jpg,A_M_14.jpg,C_F_08.jpg,left,681.0000003315508,true,high,false
mVbtWEF8,3r6rzgk0yip7nifkjif6ljfzh4yvyd,3s3amizx3yiadicnn72p7qd1r7fdcr,mVbtWEF8,2020-0188,2020-11-16,19:36:59,19:59:09,NA,incomplete,211,race,2,1,left,A_M_05.jpg,A_F_07.jpg,C_M_14.jpg,left,548.0000004172325,true,high,false
mVbtWEF8,3r6rzgk0yip7nifkjif6ljfzh4yvyd,3s3amizx3yiadicnn72p7qd1r7fdcr,mVbtWEF8,2020-0188,2020-11-16,19:36:59,19:59:09,NA,incomplete,212,race,2,0,right,C_M_13.jpg,A_M_01.jpg,C_F_06.jpg,right,595.000000204891,true,high,false
mVbtWEF8,3r6rzgk0yip7nifkjif6ljfzh4yvyd,3s3amizx3yiadicnn72p7qd1r7fdcr,mVbtWEF8,2020-0188,2020-11-16,19:36:59,19:59:09,NA,incomplete,213,race,2,1,right,C_F_04.jpg,A_F_03.jpg,C_M_08.jpg,right,671.000000089407,true,high,false
mVbtWEF8,3r6rzgk0yip7nifkjif6ljfzh4yvyd,3s3amizx3yiadicnn72p7qd1r7fdcr,mVbtWEF8,2020-0188,2020-11-16,19:36:59,19:59:09,NA,incomplete,214,race,2,1,left,C_F_13.jpg,C_M_10.jpg,A_F_01.jpg,left,1044.0000002272427,true,high,false
mVbtWEF8,3r6rzgk0yip7nifkjif6ljfzh4yvyd,3s3amizx3yiadicnn72p7qd1r7fdcr,mVbtWEF8,2020-0188,2020-11-16,19:36:59,19:59:09,NA,incomplete,215,race,2,1,right,C_F_01.jpg,A_F_03.jpg,C_M_07.jpg,right,820.9999999962747,true,high,false
mVbtWEF8,3r6rzgk0yip7nifkjif6ljfzh4yvyd,3s3amizx3yiadicnn72p7qd1r7fdcr,mVbtWEF8,2020-0188,2020-11-16,19:36:59,19:59:09,NA,incomplete,216,race,2,1,left,C_F_11.jpg,C_M_14.jpg,A_F_06.jpg,left,692.9999999701977,true,high,false
mVbtWEF8,3r6rzgk0yip7nifkjif6ljfzh4yvyd,3s3amizx3yiadicnn72p7qd1r7fdcr,mVbtWEF8,2020-0188,2020-11-16,19:36:59,19:59:09,NA,incomplete,217,race,2,1,left,A_F_04.jpg,A_M_14.jpg,C_F_12.jpg,left,804.0000000037253,true,high,false
mVbtWEF8,3r6rzgk0yip7nifkjif6ljfzh4yvyd,3s3amizx3yiadicnn72p7qd1r7fdcr,mVbtWEF8,2020-0188,2020-11-16,19:36:59,19:59:09,NA,incomplete,218,race,2,0,right,C_M_06.jpg,A_M_11.jpg,C_F_07.jpg,right,842.9999998770654,true,high,false
mVbtWEF8,3r6rzgk0yip7nifkjif6ljfzh4yvyd,3s3amizx3yiadicnn72p7qd1r7fdcr,mVbtWEF8,2020-0188,2020-11-16,19:36:59,19:59:09,NA,incomplete,219,race,2,1,left,C_M_15.jpg,C_F_10.jpg,A_M_08.jpg,left,918.9999997615814,true,high,false
mVbtWEF8,3r6rzgk0yip7nifkjif6ljfzh4yvyd,3s3amizx3yiadicnn72p7qd1r7fdcr,mVbtWEF8,2020-0188,2020-11-16,19:36:59,19:59:09,NA,incomplete,220,gender,3,1,left,C_M_01.jpg,A_M_13.jpg,C_F_05.jpg,right,756.0000000521541,false,high,false
mVbtWEF8,3r6rzgk0yip7nifkjif6ljfzh4yvyd,3s3amizx3yiadicnn72p7qd1r7fdcr,mVbtWEF8,2020-0188,2020-11-16,19:36:59,19:59:09,NA,incomplete,221,gender,3,0,left,C_M_06.jpg,A_M_16.jpg,C_F_10.jpg,right,1175.0000002793968,false,high,false
mVbtWEF8,3r6rzgk0yip7nifkjif6ljfzh4yvyd,3s3amizx3yiadicnn72p7qd1r7fdcr,mVbtWEF8,2020-0188,2020-11-16,19:36:59,19:59:09,NA,incomplete,222,gender,3,1,right,C_F_08.jpg,C_M_16.jpg,A_F_09.jpg,left,1016.0000002942979,false,high,false
mVbtWEF8,3r6rzgk0yip7nifkjif6ljfzh4yvyd,3s3amizx3yiadicnn72p7qd1r7fdcr,mVbtWEF8,2020-0188,2020-11-16,19:36:59,19:59:09,NA,incomplete,223,gender,3,1,left,C_F_09.jpg,A_F_08.jpg,C_M_13.jpg,right,871.999999973923,false,high,false
mVbtWEF8,3r6rzgk0yip7nifkjif6ljfzh4yvyd,3s3amizx3yiadicnn72p7qd1r7fdcr,mVbtWEF8,2020-0188,2020-11-16,19:36:59,19:59:09,NA,incomplete,224,gender,3,1,left,C_F_06.jpg,A_F_02.jpg,C_M_11.jpg,left,699.0000000223517,true,high,false
mVbtWEF8,3r6rzgk0yip7nifkjif6ljfzh4yvyd,3s3amizx3yiadicnn72p7qd1r7fdcr,mVbtWEF8,2020-0188,2020-11-16,19:36:59,19:59:09,NA,incomplete,225,gender,3,1,right,C_M_14.jpg,C_F_15.jpg,A_M_06.jpg,right,945.9999999962747,true,high,false
mVbtWEF8,3r6rzgk0yip7nifkjif6ljfzh4yvyd,3s3amizx3yiadicnn72p7qd1r7fdcr,mVbtWEF8,2020-0188,2020-11-16,19:36:59,19:59:09,NA,incomplete,226,gender,3,1,right,A_F_13.jpg,A_M_14.jpg,C_F_16.jpg,right,782.0000001229346,true,high,false
mVbtWEF8,3r6rzgk0yip7nifkjif6ljfzh4yvyd,3s3amizx3yiadicnn72p7qd1r7fdcr,mVbtWEF8,2020-0188,2020-11-16,19:36:59,19:59:09,NA,incomplete,227,gender,3,1,left,C_M_16.jpg,A_M_15.jpg,C_F_14.jpg,left,491.9999996200204,true,high,false
mVbtWEF8,3r6rzgk0yip7nifkjif6ljfzh4yvyd,3s3amizx3yiadicnn72p7qd1r7fdcr,mVbtWEF8,2020-0188,2020-11-16,19:36:59,19:59:09,NA,incomplete,228,gender,3,1,left,A_M_13.jpg,C_M_15.jpg,A_F_11.jpg,left,820.9999999962747,true,high,false
mVbtWEF8,3r6rzgk0yip7nifkjif6ljfzh4yvyd,3s3amizx3yiadicnn72p7qd1r7fdcr,mVbtWEF8,2020-0188,2020-11-16,19:36:59,19:59:09,NA,incomplete,229,gender,3,0,left,A_M_02.jpg,C_M_07.jpg,A_F_13.jpg,left,745.0000001117587,true,high,false
mVbtWEF8,3r6rzgk0yip7nifkjif6ljfzh4yvyd,3s3amizx3yiadicnn72p7qd1r7fdcr,mVbtWEF8,2020-0188,2020-11-16,19:36:59,19:59:09,NA,incomplete,230,gender,3,1,right,C_M_13.jpg,C_F_05.jpg,A_M_15.jpg,right,805.9999998658895,true,high,false
mVbtWEF8,3r6rzgk0yip7nifkjif6ljfzh4yvyd,3s3amizx3yiadicnn72p7qd1r7fdcr,mVbtWEF8,2020-0188,2020-11-16,19:36:59,19:59:09,NA,incomplete,231,gender,3,1,left,C_M_02.jpg,A_M_14.jpg,C_F_08.jpg,left,649.0000002086163,true,high,false
mVbtWEF8,3r6rzgk0yip7nifkjif6ljfzh4yvyd,3s3amizx3yiadicnn72p7qd1r7fdcr,mVbtWEF8,2020-0188,2020-11-16,19:36:59,19:59:09,NA,incomplete,232,gender,3,0,left,C_M_05.jpg,A_M_03.jpg,C_F_12.jpg,left,591.0000000149012,true,high,false
mVbtWEF8,3r6rzgk0yip7nifkjif6ljfzh4yvyd,3s3amizx3yiadicnn72p7qd1r7fdcr,mVbtWEF8,2020-0188,2020-11-16,19:36:59,19:59:09,NA,incomplete,233,gender,3,1,right,A_M_04.jpg,A_F_13.jpg,C_M_16.jpg,right,594.9999997392297,true,high,false
mVbtWEF8,3r6rzgk0yip7nifkjif6ljfzh4yvyd,3s3amizx3yiadicnn72p7qd1r7fdcr,mVbtWEF8,2020-0188,2020-11-16,19:36:59,19:59:09,NA,incomplete,234,gender,3,1,left,C_M_14.jpg,A_M_04.jpg,C_F_16.jpg,left,657.9999998211861,true,high,false
mVbtWEF8,3r6rzgk0yip7nifkjif6ljfzh4yvyd,3s3amizx3yiadicnn72p7qd1r7fdcr,mVbtWEF8,2020-0188,2020-11-16,19:36:59,19:59:09,NA,incomplete,235,gender,3,0,right,A_M_03.jpg,A_F_13.jpg,C_M_05.jpg,right,608.0000000074506,true,high,false
mVbtWEF8,3r6rzgk0yip7nifkjif6ljfzh4yvyd,3s3amizx3yiadicnn72p7qd1r7fdcr,mVbtWEF8,2020-0188,2020-11-16,19:36:59,19:59:09,NA,incomplete,236,gender,3,1,right,A_F_07.jpg,A_M_12.jpg,C_F_15.jpg,right,621.0000002756715,true,high,false
mVbtWEF8,3r6rzgk0yip7nifkjif6ljfzh4yvyd,3s3amizx3yiadicnn72p7qd1r7fdcr,mVbtWEF8,2020-0188,2020-11-16,19:36:59,19:59:09,NA,incomplete,237,gender,3,0,left,C_M_03.jpg,A_M_07.jpg,C_F_11.jpg,left,601.000000257045,true,high,false
mVbtWEF8,3r6rzgk0yip7nifkjif6ljfzh4yvyd,3s3amizx3yiadicnn72p7qd1r7fdcr,mVbtWEF8,2020-0188,2020-11-16,19:36:59,19:59:09,NA,incomplete,238,gender,3,1,right,C_F_13.jpg,C_M_02.jpg,A_F_16.jpg,right,535.0000001490116,true,high,false
mVbtWEF8,3r6rzgk0yip7nifkjif6ljfzh4yvyd,3s3amizx3yiadicnn72p7qd1r7fdcr,mVbtWEF8,2020-0188,2020-11-16,19:36:59,19:59:09,NA,incomplete,239,gender,3,1,left,A_F_09.jpg,C_F_05.jpg,A_M_12.jpg,left,679.0000000037253,true,high,false
mVbtWEF8,3r6rzgk0yip7nifkjif6ljfzh4yvyd,3s3amizx3yiadicnn72p7qd1r7fdcr,mVbtWEF8,2020-0188,2020-11-16,19:36:59,19:59:09,NA,NA,instruction example,shape,NA,NA,NA,Red_Triangle_Stripes_2.jpg,Blue_Triangle_Grid_3.jpg,Green_Circle_Stripes_4.jpg,NA,NA,NA,NA,undefined
mVbtWEF8,3r6rzgk0yip7nifkjif6ljfzh4yvyd,3s3amizx3yiadicnn72p7qd1r7fdcr,mVbtWEF8,2020-0188,2020-11-16,19:36:59,19:59:09,NA,NA,instruction example,shape,NA,NA,NA,Blue_Circle_Chess_1.jpg,Red_Star_Chess_3.jpg,Purple_Circle_Grid_2.jpg,NA,NA,NA,NA,undefined
mVbtWEF8,3r6rzgk0yip7nifkjif6ljfzh4yvyd,3s3amizx3yiadicnn72p7qd1r7fdcr,mVbtWEF8,2020-0188,2020-11-16,19:36:59,19:59:09,NA,NA,instruction example,shape,NA,NA,NA,A_M_09.jpg,A_F_10.jpg,C_M_13.jpg,NA,NA,NA,NA,undefined
mVbtWEF8,3r6rzgk0yip7nifkjif6ljfzh4yvyd,3s3amizx3yiadicnn72p7qd1r7fdcr,mVbtWEF8,2020-0188,2020-11-16,19:36:59,19:59:09,NA,NA,instruction example,shape,NA,NA,NA,C_F_12.jpg,A_F_11.jpg,C_M_16.jpg,NA,NA,NA,NA,undefined
