workerId,hitId,assignmentId,subject,studyid,exp_date,exp_start,exp_end,time_start,time_end,trial,type,sequence,reward_validity,answer,image_top,image_left,image_right,response,response_time,response_acc,volatility,age,race,gender,ethnicity,color,vision,neuro,practice
ktmB4Q3T,3t5zxgo9eh1fn0t8t5nft3pt661qzj,3s4aw7t80fvqgqn079uv759i87yl48,ktmB4Q3T,2020-0188,2020-11-17,15:27:54,15:49:28,NA,incomplete,0,filling,0,1,right,Blue_Triangle_Grid_1.jpg,Red_Star_Chess_1.jpg,Green_Plus_Grid_2.jpg,right,1684,true,NA,NA,NA,NA,NA,NA,NA,NA,true
ktmB4Q3T,3t5zxgo9eh1fn0t8t5nft3pt661qzj,3s4aw7t80fvqgqn079uv759i87yl48,ktmB4Q3T,2020-0188,2020-11-17,15:27:54,15:49:28,NA,incomplete,1,filling,0,1,left,Purple_Triangle_Grid_4.jpg,Blue_Circle_Grid_2.jpg,Green_Star_Chess_4.jpg,left,1126,true,NA,NA,NA,NA,NA,NA,NA,NA,true
ktmB4Q3T,3t5zxgo9eh1fn0t8t5nft3pt661qzj,3s4aw7t80fvqgqn079uv759i87yl48,ktmB4Q3T,2020-0188,2020-11-17,15:27:54,15:49:28,NA,incomplete,2,filling,0,1,left,Red_Circle_Grid_3.jpg,Blue_Triangle_Grid_2.jpg,Purple_Star_Stripes_3.jpg,left,1054,true,NA,NA,NA,NA,NA,NA,NA,NA,true
ktmB4Q3T,3t5zxgo9eh1fn0t8t5nft3pt661qzj,3s4aw7t80fvqgqn079uv759i87yl48,ktmB4Q3T,2020-0188,2020-11-17,15:27:54,15:49:28,NA,incomplete,3,filling,0,1,left,Green_Triangle_Dots_3.jpg,Blue_Plus_Dots_4.jpg,Red_Star_Chess_3.jpg,left,1119,true,NA,NA,NA,NA,NA,NA,NA,NA,true
ktmB4Q3T,3t5zxgo9eh1fn0t8t5nft3pt661qzj,3s4aw7t80fvqgqn079uv759i87yl48,ktmB4Q3T,2020-0188,2020-11-17,15:27:54,15:49:28,NA,incomplete,4,filling,0,1,right,Red_Star_Chess_4.jpg,Blue_Triangle_Grid_4.jpg,Green_Plus_Chess_1.jpg,right,1185,true,NA,NA,NA,NA,NA,NA,NA,NA,true
ktmB4Q3T,3t5zxgo9eh1fn0t8t5nft3pt661qzj,3s4aw7t80fvqgqn079uv759i87yl48,ktmB4Q3T,2020-0188,2020-11-17,15:27:54,15:49:28,NA,incomplete,5,filling,0,1,right,Red_Circle_Stripes_3.jpg,Green_Star_Chess_3.jpg,Blue_Triangle_Stripes_2.jpg,right,868,true,NA,NA,NA,NA,NA,NA,NA,NA,true
ktmB4Q3T,3t5zxgo9eh1fn0t8t5nft3pt661qzj,3s4aw7t80fvqgqn079uv759i87yl48,ktmB4Q3T,2020-0188,2020-11-17,15:27:54,15:49:28,NA,incomplete,6,filling,0,1,left,Red_Star_Dots_2.jpg,Green_Circle_Dots_3.jpg,Blue_Triangle_Stripes_2.jpg,left,1264,true,NA,NA,NA,NA,NA,NA,NA,NA,true
ktmB4Q3T,3t5zxgo9eh1fn0t8t5nft3pt661qzj,3s4aw7t80fvqgqn079uv759i87yl48,ktmB4Q3T,2020-0188,2020-11-17,15:27:54,15:49:28,NA,incomplete,7,filling,0,0,left,Red_Star_Stripes_1.jpg,Green_Plus_Stripes_3.jpg,Purple_Triangle_Chess_1.jpg,left,994,true,NA,NA,NA,NA,NA,NA,NA,NA,true
ktmB4Q3T,3t5zxgo9eh1fn0t8t5nft3pt661qzj,3s4aw7t80fvqgqn079uv759i87yl48,ktmB4Q3T,2020-0188,2020-11-17,15:27:54,15:49:28,NA,incomplete,8,filling,0,1,right,Purple_Triangle_Chess_1.jpg,Blue_Star_Stripes_1.jpg,Green_Plus_Chess_4.jpg,right,982,true,NA,NA,NA,NA,NA,NA,NA,NA,true
ktmB4Q3T,3t5zxgo9eh1fn0t8t5nft3pt661qzj,3s4aw7t80fvqgqn079uv759i87yl48,ktmB4Q3T,2020-0188,2020-11-17,15:27:54,15:49:28,NA,incomplete,9,filling,0,0,right,Red_Circle_Grid_2.jpg,Blue_Star_Stripes_2.jpg,Green_Plus_Grid_1.jpg,right,876,true,NA,NA,NA,NA,NA,NA,NA,NA,true
ktmB4Q3T,3t5zxgo9eh1fn0t8t5nft3pt661qzj,3s4aw7t80fvqgqn079uv759i87yl48,ktmB4Q3T,2020-0188,2020-11-17,15:27:54,15:49:28,NA,incomplete,10,filling,0,1,right,Green_Circle_Dots_1.jpg,Blue_Star_Grid_1.jpg,Red_Plus_Dots_2.jpg,left,855,false,NA,NA,NA,NA,NA,NA,NA,NA,true
ktmB4Q3T,3t5zxgo9eh1fn0t8t5nft3pt661qzj,3s4aw7t80fvqgqn079uv759i87yl48,ktmB4Q3T,2020-0188,2020-11-17,15:27:54,15:49:28,NA,incomplete,11,filling,0,1,right,Green_Plus_Stripes_1.jpg,Purple_Circle_Chess_1.jpg,Blue_Triangle_Stripes_3.jpg,right,954,true,NA,NA,NA,NA,NA,NA,NA,NA,true
ktmB4Q3T,3t5zxgo9eh1fn0t8t5nft3pt661qzj,3s4aw7t80fvqgqn079uv759i87yl48,ktmB4Q3T,2020-0188,2020-11-17,15:27:54,15:49:28,NA,incomplete,12,filling,0,0,left,Green_Triangle_Stripes_2.jpg,Purple_Circle_Stripes_4.jpg,Blue_Plus_Grid_2.jpg,left,1022,true,NA,NA,NA,NA,NA,NA,NA,NA,true
ktmB4Q3T,3t5zxgo9eh1fn0t8t5nft3pt661qzj,3s4aw7t80fvqgqn079uv759i87yl48,ktmB4Q3T,2020-0188,2020-11-17,15:27:54,15:49:28,NA,incomplete,13,filling,0,1,left,Purple_Star_Chess_4.jpg,Green_Plus_Chess_3.jpg,Red_Triangle_Grid_4.jpg,left,1164,true,NA,NA,NA,NA,NA,NA,NA,NA,true
ktmB4Q3T,3t5zxgo9eh1fn0t8t5nft3pt661qzj,3s4aw7t80fvqgqn079uv759i87yl48,ktmB4Q3T,2020-0188,2020-11-17,15:27:54,15:49:28,NA,incomplete,14,filling,0,1,right,Green_Triangle_Chess_1.jpg,Red_Star_Stripes_1.jpg,Purple_Circle_Chess_4.jpg,right,1049,true,NA,NA,NA,NA,NA,NA,NA,NA,true
ktmB4Q3T,3t5zxgo9eh1fn0t8t5nft3pt661qzj,3s4aw7t80fvqgqn079uv759i87yl48,ktmB4Q3T,2020-0188,2020-11-17,15:27:54,15:49:28,NA,incomplete,15,filling,0,0,right,Purple_Star_Dots_2.jpg,Green_Plus_Grid_2.jpg,Blue_Circle_Dots_1.jpg,right,1166,true,NA,NA,NA,NA,NA,NA,NA,NA,true
ktmB4Q3T,3t5zxgo9eh1fn0t8t5nft3pt661qzj,3s4aw7t80fvqgqn079uv759i87yl48,ktmB4Q3T,2020-0188,2020-11-17,15:27:54,15:49:28,NA,incomplete,16,filling,0,1,right,Purple_Plus_Stripes_3.jpg,Blue_Triangle_Chess_3.jpg,Green_Star_Stripes_4.jpg,right,1275,true,NA,NA,NA,NA,NA,NA,NA,NA,true
ktmB4Q3T,3t5zxgo9eh1fn0t8t5nft3pt661qzj,3s4aw7t80fvqgqn079uv759i87yl48,ktmB4Q3T,2020-0188,2020-11-17,15:27:54,15:49:28,NA,incomplete,17,filling,0,0,left,Blue_Star_Stripes_2.jpg,Red_Plus_Stripes_1.jpg,Green_Circle_Chess_2.jpg,left,1110,true,NA,NA,NA,NA,NA,NA,NA,NA,true
ktmB4Q3T,3t5zxgo9eh1fn0t8t5nft3pt661qzj,3s4aw7t80fvqgqn079uv759i87yl48,ktmB4Q3T,2020-0188,2020-11-17,15:27:54,15:49:28,NA,incomplete,18,filling,0,1,left,Green_Circle_Chess_1.jpg,Blue_Triangle_Chess_4.jpg,Purple_Star_Dots_1.jpg,left,1055,true,NA,NA,NA,NA,NA,NA,NA,NA,true
ktmB4Q3T,3t5zxgo9eh1fn0t8t5nft3pt661qzj,3s4aw7t80fvqgqn079uv759i87yl48,ktmB4Q3T,2020-0188,2020-11-17,15:27:54,15:49:28,NA,incomplete,19,filling,0,1,left,Green_Plus_Stripes_3.jpg,Blue_Circle_Stripes_1.jpg,Purple_Triangle_Dots_3.jpg,left,1001,true,NA,NA,NA,NA,NA,NA,NA,NA,true
ktmB4Q3T,3t5zxgo9eh1fn0t8t5nft3pt661qzj,3s4aw7t80fvqgqn079uv759i87yl48,ktmB4Q3T,2020-0188,2020-11-17,15:27:54,15:49:28,NA,incomplete,20,number,1,1,left,Purple_Star_Stripes_3.jpg,Red_Triangle_Dots_3.jpg,Green_Plus_Stripes_4.jpg,left,1069,true,NA,NA,NA,NA,NA,NA,NA,NA,true
ktmB4Q3T,3t5zxgo9eh1fn0t8t5nft3pt661qzj,3s4aw7t80fvqgqn079uv759i87yl48,ktmB4Q3T,2020-0188,2020-11-17,15:27:54,15:49:28,NA,incomplete,21,number,1,1,right,Green_Star_Grid_2.jpg,Red_Triangle_Grid_4.jpg,Purple_Circle_Chess_2.jpg,right,967,true,NA,NA,NA,NA,NA,NA,NA,NA,true
ktmB4Q3T,3t5zxgo9eh1fn0t8t5nft3pt661qzj,3s4aw7t80fvqgqn079uv759i87yl48,ktmB4Q3T,2020-0188,2020-11-17,15:27:54,15:49:28,NA,incomplete,22,number,1,1,right,Red_Plus_Dots_1.jpg,Blue_Star_Dots_2.jpg,Purple_Triangle_Stripes_1.jpg,right,933,true,NA,NA,NA,NA,NA,NA,NA,NA,true
ktmB4Q3T,3t5zxgo9eh1fn0t8t5nft3pt661qzj,3s4aw7t80fvqgqn079uv759i87yl48,ktmB4Q3T,2020-0188,2020-11-17,15:27:54,15:49:28,NA,incomplete,23,number,1,1,left,Purple_Triangle_Chess_4.jpg,Red_Plus_Stripes_4.jpg,Blue_Star_Chess_1.jpg,left,1204,true,NA,NA,NA,NA,NA,NA,NA,NA,true
ktmB4Q3T,3t5zxgo9eh1fn0t8t5nft3pt661qzj,3s4aw7t80fvqgqn079uv759i87yl48,ktmB4Q3T,2020-0188,2020-11-17,15:27:54,15:49:28,NA,incomplete,24,number,1,1,left,Purple_Circle_Dots_4.jpg,Red_Plus_Stripes_4.jpg,Green_Star_Dots_1.jpg,left,947,true,NA,NA,NA,NA,NA,NA,NA,NA,true
ktmB4Q3T,3t5zxgo9eh1fn0t8t5nft3pt661qzj,3s4aw7t80fvqgqn079uv759i87yl48,ktmB4Q3T,2020-0188,2020-11-17,15:27:54,15:49:28,NA,incomplete,25,number,1,1,right,Blue_Plus_Dots_1.jpg,Red_Star_Dots_2.jpg,Green_Circle_Grid_1.jpg,right,832,true,NA,NA,NA,NA,NA,NA,NA,NA,true
ktmB4Q3T,3t5zxgo9eh1fn0t8t5nft3pt661qzj,3s4aw7t80fvqgqn079uv759i87yl48,ktmB4Q3T,2020-0188,2020-11-17,15:27:54,15:49:28,NA,incomplete,26,number,1,1,right,Green_Triangle_Grid_3.jpg,Red_Circle_Grid_1.jpg,Blue_Star_Chess_3.jpg,right,933,true,NA,NA,NA,NA,NA,NA,NA,NA,true
ktmB4Q3T,3t5zxgo9eh1fn0t8t5nft3pt661qzj,3s4aw7t80fvqgqn079uv759i87yl48,ktmB4Q3T,2020-0188,2020-11-17,15:27:54,15:49:28,NA,incomplete,27,number,1,0,right,Green_Triangle_Stripes_3.jpg,Red_Plus_Stripes_4.jpg,Purple_Circle_Dots_3.jpg,right,964,true,NA,NA,NA,NA,NA,NA,NA,NA,true
ktmB4Q3T,3t5zxgo9eh1fn0t8t5nft3pt661qzj,3s4aw7t80fvqgqn079uv759i87yl48,ktmB4Q3T,2020-0188,2020-11-17,15:27:54,15:49:28,NA,incomplete,28,number,1,1,left,Purple_Triangle_Grid_1.jpg,Blue_Plus_Stripes_1.jpg,Green_Star_Grid_4.jpg,left,763,true,NA,NA,NA,NA,NA,NA,NA,NA,true
ktmB4Q3T,3t5zxgo9eh1fn0t8t5nft3pt661qzj,3s4aw7t80fvqgqn079uv759i87yl48,ktmB4Q3T,2020-0188,2020-11-17,15:27:54,15:49:28,NA,incomplete,29,number,1,1,right,Blue_Star_Dots_1.jpg,Red_Plus_Dots_4.jpg,Purple_Circle_Stripes_1.jpg,right,802,true,NA,NA,NA,NA,NA,NA,NA,NA,true
ktmB4Q3T,3t5zxgo9eh1fn0t8t5nft3pt661qzj,3s4aw7t80fvqgqn079uv759i87yl48,ktmB4Q3T,2020-0188,2020-11-17,15:27:54,15:49:28,NA,incomplete,30,number,1,1,right,Red_Plus_Grid_1.jpg,Purple_Circle_Grid_2.jpg,Blue_Triangle_Dots_1.jpg,right,894,true,NA,NA,NA,NA,NA,NA,NA,NA,true
ktmB4Q3T,3t5zxgo9eh1fn0t8t5nft3pt661qzj,3s4aw7t80fvqgqn079uv759i87yl48,ktmB4Q3T,2020-0188,2020-11-17,15:27:54,15:49:28,NA,incomplete,31,number,1,1,left,Blue_Star_Stripes_2.jpg,Red_Circle_Chess_2.jpg,Purple_Plus_Stripes_1.jpg,left,912,true,NA,NA,NA,NA,NA,NA,NA,NA,true
ktmB4Q3T,3t5zxgo9eh1fn0t8t5nft3pt661qzj,3s4aw7t80fvqgqn079uv759i87yl48,ktmB4Q3T,2020-0188,2020-11-17,15:27:54,15:49:28,NA,incomplete,32,number,1,1,right,Red_Plus_Chess_3.jpg,Purple_Triangle_Chess_4.jpg,Blue_Circle_Stripes_3.jpg,right,871,true,NA,NA,NA,NA,NA,NA,NA,NA,true
ktmB4Q3T,3t5zxgo9eh1fn0t8t5nft3pt661qzj,3s4aw7t80fvqgqn079uv759i87yl48,ktmB4Q3T,2020-0188,2020-11-17,15:27:54,15:49:28,NA,incomplete,33,number,1,1,right,Red_Triangle_Dots_1.jpg,Green_Circle_Dots_4.jpg,Blue_Star_Grid_1.jpg,right,737,true,NA,NA,NA,NA,NA,NA,NA,NA,true
ktmB4Q3T,3t5zxgo9eh1fn0t8t5nft3pt661qzj,3s4aw7t80fvqgqn079uv759i87yl48,ktmB4Q3T,2020-0188,2020-11-17,15:27:54,15:49:28,NA,incomplete,34,number,1,1,right,Green_Triangle_Chess_4.jpg,Purple_Plus_Chess_3.jpg,Blue_Star_Grid_4.jpg,right,1160,true,NA,NA,NA,NA,NA,NA,NA,NA,true
ktmB4Q3T,3t5zxgo9eh1fn0t8t5nft3pt661qzj,3s4aw7t80fvqgqn079uv759i87yl48,ktmB4Q3T,2020-0188,2020-11-17,15:27:54,15:49:28,NA,incomplete,35,number,1,1,left,Green_Plus_Dots_4.jpg,Blue_Triangle_Stripes_4.jpg,Red_Circle_Dots_3.jpg,left,784,true,NA,NA,NA,NA,NA,NA,NA,NA,true
ktmB4Q3T,3t5zxgo9eh1fn0t8t5nft3pt661qzj,3s4aw7t80fvqgqn079uv759i87yl48,ktmB4Q3T,2020-0188,2020-11-17,15:27:54,15:49:28,NA,incomplete,36,number,1,1,right,Red_Triangle_Grid_4.jpg,Purple_Star_Grid_1.jpg,Blue_Plus_Chess_4.jpg,right,852,true,NA,NA,NA,NA,NA,NA,NA,NA,true
ktmB4Q3T,3t5zxgo9eh1fn0t8t5nft3pt661qzj,3s4aw7t80fvqgqn079uv759i87yl48,ktmB4Q3T,2020-0188,2020-11-17,15:27:54,15:49:28,NA,incomplete,37,number,1,0,left,Blue_Circle_Grid_2.jpg,Red_Triangle_Stripes_2.jpg,Purple_Star_Grid_1.jpg,left,879,true,NA,NA,NA,NA,NA,NA,NA,NA,true
ktmB4Q3T,3t5zxgo9eh1fn0t8t5nft3pt661qzj,3s4aw7t80fvqgqn079uv759i87yl48,ktmB4Q3T,2020-0188,2020-11-17,15:27:54,15:49:28,NA,incomplete,38,number,1,0,right,Blue_Star_Dots_2.jpg,Green_Plus_Dots_1.jpg,Red_Triangle_Stripes_2.jpg,right,953,true,NA,NA,NA,NA,NA,NA,NA,NA,true
ktmB4Q3T,3t5zxgo9eh1fn0t8t5nft3pt661qzj,3s4aw7t80fvqgqn079uv759i87yl48,ktmB4Q3T,2020-0188,2020-11-17,15:27:54,15:49:28,NA,incomplete,39,number,1,1,left,Blue_Triangle_Grid_3.jpg,Purple_Plus_Chess_3.jpg,Red_Star_Grid_1.jpg,left,824,true,NA,NA,NA,NA,NA,NA,NA,NA,true
ktmB4Q3T,3t5zxgo9eh1fn0t8t5nft3pt661qzj,3s4aw7t80fvqgqn079uv759i87yl48,ktmB4Q3T,2020-0188,2020-11-17,15:27:54,15:49:28,NA,incomplete,0,filling,0,1,right,Red_Circle_Chess_4.jpg,Blue_Plus_Grid_4.jpg,Green_Triangle_Chess_1.jpg,left,1461,false,low,NA,NA,NA,NA,NA,NA,NA,false
ktmB4Q3T,3t5zxgo9eh1fn0t8t5nft3pt661qzj,3s4aw7t80fvqgqn079uv759i87yl48,ktmB4Q3T,2020-0188,2020-11-17,15:27:54,15:49:28,NA,incomplete,1,filling,0,1,left,Purple_Triangle_Dots_3.jpg,Green_Star_Dots_2.jpg,Blue_Plus_Stripes_3.jpg,right,831,false,low,NA,NA,NA,NA,NA,NA,NA,false
ktmB4Q3T,3t5zxgo9eh1fn0t8t5nft3pt661qzj,3s4aw7t80fvqgqn079uv759i87yl48,ktmB4Q3T,2020-0188,2020-11-17,15:27:54,15:49:28,NA,incomplete,2,filling,0,0,right,Purple_Plus_Dots_3.jpg,Green_Star_Chess_3.jpg,Red_Triangle_Dots_1.jpg,right,970,true,low,NA,NA,NA,NA,NA,NA,NA,false
ktmB4Q3T,3t5zxgo9eh1fn0t8t5nft3pt661qzj,3s4aw7t80fvqgqn079uv759i87yl48,ktmB4Q3T,2020-0188,2020-11-17,15:27:54,15:49:28,NA,incomplete,3,filling,0,1,left,Red_Circle_Stripes_4.jpg,Blue_Triangle_Stripes_1.jpg,Purple_Star_Chess_4.jpg,left,1034,true,low,NA,NA,NA,NA,NA,NA,NA,false
ktmB4Q3T,3t5zxgo9eh1fn0t8t5nft3pt661qzj,3s4aw7t80fvqgqn079uv759i87yl48,ktmB4Q3T,2020-0188,2020-11-17,15:27:54,15:49:28,NA,incomplete,4,filling,0,1,right,Green_Circle_Dots_1.jpg,Purple_Star_Chess_1.jpg,Blue_Triangle_Dots_2.jpg,right,902,true,low,NA,NA,NA,NA,NA,NA,NA,false
ktmB4Q3T,3t5zxgo9eh1fn0t8t5nft3pt661qzj,3s4aw7t80fvqgqn079uv759i87yl48,ktmB4Q3T,2020-0188,2020-11-17,15:27:54,15:49:28,NA,incomplete,5,filling,0,1,right,Blue_Plus_Stripes_1.jpg,Purple_Circle_Grid_1.jpg,Red_Star_Stripes_4.jpg,right,941,true,low,NA,NA,NA,NA,NA,NA,NA,false
ktmB4Q3T,3t5zxgo9eh1fn0t8t5nft3pt661qzj,3s4aw7t80fvqgqn079uv759i87yl48,ktmB4Q3T,2020-0188,2020-11-17,15:27:54,15:49:28,NA,incomplete,6,filling,0,1,left,Purple_Circle_Stripes_3.jpg,Green_Plus_Stripes_1.jpg,Red_Star_Chess_3.jpg,left,997,true,low,NA,NA,NA,NA,NA,NA,NA,false
ktmB4Q3T,3t5zxgo9eh1fn0t8t5nft3pt661qzj,3s4aw7t80fvqgqn079uv759i87yl48,ktmB4Q3T,2020-0188,2020-11-17,15:27:54,15:49:28,NA,incomplete,7,filling,0,1,left,Green_Triangle_Stripes_3.jpg,Blue_Plus_Stripes_4.jpg,Purple_Circle_Grid_3.jpg,left,1162,true,low,NA,NA,NA,NA,NA,NA,NA,false
ktmB4Q3T,3t5zxgo9eh1fn0t8t5nft3pt661qzj,3s4aw7t80fvqgqn079uv759i87yl48,ktmB4Q3T,2020-0188,2020-11-17,15:27:54,15:49:28,NA,incomplete,8,filling,0,1,right,Purple_Star_Grid_1.jpg,Red_Triangle_Stripes_1.jpg,Blue_Plus_Grid_4.jpg,right,936,true,low,NA,NA,NA,NA,NA,NA,NA,false
ktmB4Q3T,3t5zxgo9eh1fn0t8t5nft3pt661qzj,3s4aw7t80fvqgqn079uv759i87yl48,ktmB4Q3T,2020-0188,2020-11-17,15:27:54,15:49:28,NA,incomplete,9,filling,0,1,left,Red_Circle_Chess_4.jpg,Blue_Triangle_Chess_2.jpg,Green_Star_Stripes_4.jpg,left,815,true,low,NA,NA,NA,NA,NA,NA,NA,false
ktmB4Q3T,3t5zxgo9eh1fn0t8t5nft3pt661qzj,3s4aw7t80fvqgqn079uv759i87yl48,ktmB4Q3T,2020-0188,2020-11-17,15:27:54,15:49:28,NA,incomplete,10,number,1,1,left,Purple_Plus_Stripes_3.jpg,Red_Triangle_Dots_3.jpg,Green_Circle_Stripes_2.jpg,right,843,false,low,NA,NA,NA,NA,NA,NA,NA,false
ktmB4Q3T,3t5zxgo9eh1fn0t8t5nft3pt661qzj,3s4aw7t80fvqgqn079uv759i87yl48,ktmB4Q3T,2020-0188,2020-11-17,15:27:54,15:49:28,NA,incomplete,11,number,1,1,left,Purple_Triangle_Stripes_1.jpg,Green_Circle_Dots_1.jpg,Red_Plus_Stripes_2.jpg,right,775,false,low,NA,NA,NA,NA,NA,NA,NA,false
ktmB4Q3T,3t5zxgo9eh1fn0t8t5nft3pt661qzj,3s4aw7t80fvqgqn079uv759i87yl48,ktmB4Q3T,2020-0188,2020-11-17,15:27:54,15:49:28,NA,incomplete,12,number,1,1,right,Blue_Star_Grid_3.jpg,Red_Plus_Grid_4.jpg,Purple_Triangle_Chess_3.jpg,right,893,true,low,NA,NA,NA,NA,NA,NA,NA,false
ktmB4Q3T,3t5zxgo9eh1fn0t8t5nft3pt661qzj,3s4aw7t80fvqgqn079uv759i87yl48,ktmB4Q3T,2020-0188,2020-11-17,15:27:54,15:49:28,NA,incomplete,13,number,1,1,left,Red_Triangle_Grid_3.jpg,Purple_Star_Stripes_3.jpg,Blue_Plus_Grid_1.jpg,left,815,true,low,NA,NA,NA,NA,NA,NA,NA,false
ktmB4Q3T,3t5zxgo9eh1fn0t8t5nft3pt661qzj,3s4aw7t80fvqgqn079uv759i87yl48,ktmB4Q3T,2020-0188,2020-11-17,15:27:54,15:49:28,NA,incomplete,14,number,1,1,left,Green_Plus_Grid_4.jpg,Blue_Star_Stripes_4.jpg,Red_Triangle_Grid_3.jpg,left,812,true,low,NA,NA,NA,NA,NA,NA,NA,false
ktmB4Q3T,3t5zxgo9eh1fn0t8t5nft3pt661qzj,3s4aw7t80fvqgqn079uv759i87yl48,ktmB4Q3T,2020-0188,2020-11-17,15:27:54,15:49:28,NA,incomplete,15,number,1,1,left,Red_Star_Dots_1.jpg,Purple_Plus_Grid_1.jpg,Green_Triangle_Dots_4.jpg,left,728,true,low,NA,NA,NA,NA,NA,NA,NA,false
ktmB4Q3T,3t5zxgo9eh1fn0t8t5nft3pt661qzj,3s4aw7t80fvqgqn079uv759i87yl48,ktmB4Q3T,2020-0188,2020-11-17,15:27:54,15:49:28,NA,incomplete,16,number,1,1,left,Purple_Triangle_Chess_4.jpg,Blue_Star_Dots_4.jpg,Red_Plus_Chess_1.jpg,left,790,true,low,NA,NA,NA,NA,NA,NA,NA,false
ktmB4Q3T,3t5zxgo9eh1fn0t8t5nft3pt661qzj,3s4aw7t80fvqgqn079uv759i87yl48,ktmB4Q3T,2020-0188,2020-11-17,15:27:54,15:49:28,NA,incomplete,17,number,1,1,left,Red_Triangle_Dots_2.jpg,Green_Star_Grid_2.jpg,Purple_Circle_Dots_3.jpg,left,755,true,low,NA,NA,NA,NA,NA,NA,NA,false
ktmB4Q3T,3t5zxgo9eh1fn0t8t5nft3pt661qzj,3s4aw7t80fvqgqn079uv759i87yl48,ktmB4Q3T,2020-0188,2020-11-17,15:27:54,15:49:28,NA,incomplete,18,number,1,1,right,Green_Plus_Dots_3.jpg,Blue_Triangle_Dots_2.jpg,Red_Star_Chess_3.jpg,right,754,true,low,NA,NA,NA,NA,NA,NA,NA,false
ktmB4Q3T,3t5zxgo9eh1fn0t8t5nft3pt661qzj,3s4aw7t80fvqgqn079uv759i87yl48,ktmB4Q3T,2020-0188,2020-11-17,15:27:54,15:49:28,NA,incomplete,19,number,1,1,left,Blue_Circle_Grid_4.jpg,Red_Plus_Dots_4.jpg,Green_Star_Grid_1.jpg,left,793,true,low,NA,NA,NA,NA,NA,NA,NA,false
ktmB4Q3T,3t5zxgo9eh1fn0t8t5nft3pt661qzj,3s4aw7t80fvqgqn079uv759i87yl48,ktmB4Q3T,2020-0188,2020-11-17,15:27:54,15:49:28,NA,incomplete,20,filling,0,1,left,Blue_Plus_Dots_1.jpg,Red_Star_Dots_4.jpg,Green_Triangle_Chess_1.jpg,right,718,false,low,NA,NA,NA,NA,NA,NA,NA,false
ktmB4Q3T,3t5zxgo9eh1fn0t8t5nft3pt661qzj,3s4aw7t80fvqgqn079uv759i87yl48,ktmB4Q3T,2020-0188,2020-11-17,15:27:54,15:49:28,NA,incomplete,21,filling,0,1,left,Blue_Star_Dots_4.jpg,Green_Triangle_Dots_1.jpg,Purple_Plus_Chess_4.jpg,left,703,true,low,NA,NA,NA,NA,NA,NA,NA,false
ktmB4Q3T,3t5zxgo9eh1fn0t8t5nft3pt661qzj,3s4aw7t80fvqgqn079uv759i87yl48,ktmB4Q3T,2020-0188,2020-11-17,15:27:54,15:49:28,NA,incomplete,22,filling,0,1,left,Purple_Plus_Dots_4.jpg,Blue_Star_Dots_1.jpg,Red_Triangle_Grid_4.jpg,left,1176,true,low,NA,NA,NA,NA,NA,NA,NA,false
ktmB4Q3T,3t5zxgo9eh1fn0t8t5nft3pt661qzj,3s4aw7t80fvqgqn079uv759i87yl48,ktmB4Q3T,2020-0188,2020-11-17,15:27:54,15:49:28,NA,incomplete,23,filling,0,0,left,Purple_Triangle_Chess_2.jpg,Green_Plus_Chess_1.jpg,Blue_Circle_Stripes_2.jpg,left,1061,true,low,NA,NA,NA,NA,NA,NA,NA,false
ktmB4Q3T,3t5zxgo9eh1fn0t8t5nft3pt661qzj,3s4aw7t80fvqgqn079uv759i87yl48,ktmB4Q3T,2020-0188,2020-11-17,15:27:54,15:49:28,NA,incomplete,24,filling,0,1,right,Green_Star_Stripes_1.jpg,Purple_Plus_Grid_1.jpg,Blue_Circle_Stripes_4.jpg,right,856,true,low,NA,NA,NA,NA,NA,NA,NA,false
ktmB4Q3T,3t5zxgo9eh1fn0t8t5nft3pt661qzj,3s4aw7t80fvqgqn079uv759i87yl48,ktmB4Q3T,2020-0188,2020-11-17,15:27:54,15:49:28,NA,incomplete,25,filling,0,0,left,Purple_Plus_Stripes_4.jpg,Blue_Star_Stripes_2.jpg,Green_Circle_Grid_4.jpg,left,1067,true,low,NA,NA,NA,NA,NA,NA,NA,false
ktmB4Q3T,3t5zxgo9eh1fn0t8t5nft3pt661qzj,3s4aw7t80fvqgqn079uv759i87yl48,ktmB4Q3T,2020-0188,2020-11-17,15:27:54,15:49:28,NA,incomplete,26,filling,0,1,right,Red_Star_Stripes_3.jpg,Purple_Triangle_Chess_3.jpg,Green_Plus_Stripes_4.jpg,right,989,true,low,NA,NA,NA,NA,NA,NA,NA,false
ktmB4Q3T,3t5zxgo9eh1fn0t8t5nft3pt661qzj,3s4aw7t80fvqgqn079uv759i87yl48,ktmB4Q3T,2020-0188,2020-11-17,15:27:54,15:49:28,NA,incomplete,27,filling,0,1,left,Red_Triangle_Chess_3.jpg,Purple_Star_Chess_1.jpg,Blue_Plus_Stripes_3.jpg,left,1001,true,low,NA,NA,NA,NA,NA,NA,NA,false
ktmB4Q3T,3t5zxgo9eh1fn0t8t5nft3pt661qzj,3s4aw7t80fvqgqn079uv759i87yl48,ktmB4Q3T,2020-0188,2020-11-17,15:27:54,15:49:28,NA,incomplete,28,filling,0,1,right,Blue_Circle_Dots_2.jpg,Purple_Triangle_Chess_2.jpg,Red_Star_Dots_1.jpg,right,989,true,low,NA,NA,NA,NA,NA,NA,NA,false
ktmB4Q3T,3t5zxgo9eh1fn0t8t5nft3pt661qzj,3s4aw7t80fvqgqn079uv759i87yl48,ktmB4Q3T,2020-0188,2020-11-17,15:27:54,15:49:28,NA,incomplete,29,filling,0,0,left,Purple_Star_Dots_2.jpg,Blue_Triangle_Dots_4.jpg,Red_Circle_Chess_2.jpg,left,1084,true,low,NA,NA,NA,NA,NA,NA,NA,false
ktmB4Q3T,3t5zxgo9eh1fn0t8t5nft3pt661qzj,3s4aw7t80fvqgqn079uv759i87yl48,ktmB4Q3T,2020-0188,2020-11-17,15:27:54,15:49:28,NA,incomplete,30,number,1,1,right,Red_Plus_Chess_1.jpg,Purple_Triangle_Chess_4.jpg,Green_Star_Stripes_1.jpg,right,812,true,low,NA,NA,NA,NA,NA,NA,NA,false
ktmB4Q3T,3t5zxgo9eh1fn0t8t5nft3pt661qzj,3s4aw7t80fvqgqn079uv759i87yl48,ktmB4Q3T,2020-0188,2020-11-17,15:27:54,15:49:28,NA,incomplete,31,number,1,1,right,Red_Circle_Grid_4.jpg,Green_Triangle_Grid_3.jpg,Purple_Star_Chess_4.jpg,right,809,true,low,NA,NA,NA,NA,NA,NA,NA,false
ktmB4Q3T,3t5zxgo9eh1fn0t8t5nft3pt661qzj,3s4aw7t80fvqgqn079uv759i87yl48,ktmB4Q3T,2020-0188,2020-11-17,15:27:54,15:49:28,NA,incomplete,32,number,1,1,right,Purple_Triangle_Chess_2.jpg,Red_Plus_Chess_1.jpg,Blue_Star_Dots_2.jpg,right,927,true,low,NA,NA,NA,NA,NA,NA,NA,false
ktmB4Q3T,3t5zxgo9eh1fn0t8t5nft3pt661qzj,3s4aw7t80fvqgqn079uv759i87yl48,ktmB4Q3T,2020-0188,2020-11-17,15:27:54,15:49:28,NA,incomplete,33,number,1,1,left,Green_Plus_Chess_1.jpg,Red_Star_Stripes_1.jpg,Purple_Triangle_Chess_2.jpg,left,774,true,low,NA,NA,NA,NA,NA,NA,NA,false
ktmB4Q3T,3t5zxgo9eh1fn0t8t5nft3pt661qzj,3s4aw7t80fvqgqn079uv759i87yl48,ktmB4Q3T,2020-0188,2020-11-17,15:27:54,15:49:28,NA,incomplete,34,number,1,1,right,Red_Triangle_Chess_1.jpg,Blue_Plus_Chess_3.jpg,Green_Circle_Dots_1.jpg,right,748,true,low,NA,NA,NA,NA,NA,NA,NA,false
ktmB4Q3T,3t5zxgo9eh1fn0t8t5nft3pt661qzj,3s4aw7t80fvqgqn079uv759i87yl48,ktmB4Q3T,2020-0188,2020-11-17,15:27:54,15:49:28,NA,incomplete,35,number,1,1,right,Green_Star_Stripes_4.jpg,Purple_Circle_Stripes_2.jpg,Red_Triangle_Grid_4.jpg,right,876,true,low,NA,NA,NA,NA,NA,NA,NA,false
ktmB4Q3T,3t5zxgo9eh1fn0t8t5nft3pt661qzj,3s4aw7t80fvqgqn079uv759i87yl48,ktmB4Q3T,2020-0188,2020-11-17,15:27:54,15:49:28,NA,incomplete,36,number,1,1,right,Red_Circle_Dots_2.jpg,Blue_Plus_Dots_4.jpg,Purple_Star_Stripes_2.jpg,right,797,true,low,NA,NA,NA,NA,NA,NA,NA,false
ktmB4Q3T,3t5zxgo9eh1fn0t8t5nft3pt661qzj,3s4aw7t80fvqgqn079uv759i87yl48,ktmB4Q3T,2020-0188,2020-11-17,15:27:54,15:49:28,NA,incomplete,37,number,1,1,left,Red_Star_Chess_3.jpg,Green_Circle_Dots_3.jpg,Purple_Plus_Chess_2.jpg,left,971,true,low,NA,NA,NA,NA,NA,NA,NA,false
ktmB4Q3T,3t5zxgo9eh1fn0t8t5nft3pt661qzj,3s4aw7t80fvqgqn079uv759i87yl48,ktmB4Q3T,2020-0188,2020-11-17,15:27:54,15:49:28,NA,incomplete,38,number,1,1,right,Red_Star_Grid_4.jpg,Purple_Plus_Grid_3.jpg,Blue_Triangle_Dots_4.jpg,right,1039,true,low,NA,NA,NA,NA,NA,NA,NA,false
ktmB4Q3T,3t5zxgo9eh1fn0t8t5nft3pt661qzj,3s4aw7t80fvqgqn079uv759i87yl48,ktmB4Q3T,2020-0188,2020-11-17,15:27:54,15:49:28,NA,incomplete,39,number,1,1,right,Purple_Plus_Grid_3.jpg,Green_Circle_Grid_1.jpg,Blue_Star_Dots_3.jpg,right,772,true,low,NA,NA,NA,NA,NA,NA,NA,false
ktmB4Q3T,3t5zxgo9eh1fn0t8t5nft3pt661qzj,3s4aw7t80fvqgqn079uv759i87yl48,ktmB4Q3T,2020-0188,2020-11-17,15:27:54,15:49:28,NA,incomplete,40,filling,0,1,right,Green_Plus_Grid_2.jpg,Red_Triangle_Stripes_2.jpg,Blue_Circle_Grid_3.jpg,left,809,false,low,NA,NA,NA,NA,NA,NA,NA,false
ktmB4Q3T,3t5zxgo9eh1fn0t8t5nft3pt661qzj,3s4aw7t80fvqgqn079uv759i87yl48,ktmB4Q3T,2020-0188,2020-11-17,15:27:54,15:49:28,NA,incomplete,41,filling,0,1,right,Purple_Star_Grid_2.jpg,Green_Triangle_Dots_2.jpg,Blue_Circle_Grid_4.jpg,left,813,false,low,NA,NA,NA,NA,NA,NA,NA,false
ktmB4Q3T,3t5zxgo9eh1fn0t8t5nft3pt661qzj,3s4aw7t80fvqgqn079uv759i87yl48,ktmB4Q3T,2020-0188,2020-11-17,15:27:54,15:49:28,NA,incomplete,42,filling,0,1,right,Red_Plus_Dots_2.jpg,Blue_Triangle_Stripes_2.jpg,Green_Star_Dots_3.jpg,right,1131,true,low,NA,NA,NA,NA,NA,NA,NA,false
ktmB4Q3T,3t5zxgo9eh1fn0t8t5nft3pt661qzj,3s4aw7t80fvqgqn079uv759i87yl48,ktmB4Q3T,2020-0188,2020-11-17,15:27:54,15:49:28,NA,incomplete,43,filling,0,0,right,Blue_Plus_Stripes_2.jpg,Green_Star_Grid_2.jpg,Red_Circle_Stripes_1.jpg,right,874,true,low,NA,NA,NA,NA,NA,NA,NA,false
ktmB4Q3T,3t5zxgo9eh1fn0t8t5nft3pt661qzj,3s4aw7t80fvqgqn079uv759i87yl48,ktmB4Q3T,2020-0188,2020-11-17,15:27:54,15:49:28,NA,incomplete,44,filling,0,1,left,Purple_Star_Grid_1.jpg,Red_Triangle_Grid_3.jpg,Green_Plus_Chess_1.jpg,left,1331,true,low,NA,NA,NA,NA,NA,NA,NA,false
ktmB4Q3T,3t5zxgo9eh1fn0t8t5nft3pt661qzj,3s4aw7t80fvqgqn079uv759i87yl48,ktmB4Q3T,2020-0188,2020-11-17,15:27:54,15:49:28,NA,incomplete,45,filling,0,1,left,Blue_Star_Chess_4.jpg,Green_Triangle_Chess_3.jpg,Red_Plus_Dots_4.jpg,left,1324,true,low,NA,NA,NA,NA,NA,NA,NA,false
ktmB4Q3T,3t5zxgo9eh1fn0t8t5nft3pt661qzj,3s4aw7t80fvqgqn079uv759i87yl48,ktmB4Q3T,2020-0188,2020-11-17,15:27:54,15:49:28,NA,incomplete,46,filling,0,1,left,Green_Star_Stripes_2.jpg,Purple_Plus_Stripes_1.jpg,Blue_Circle_Dots_2.jpg,left,1020,true,low,NA,NA,NA,NA,NA,NA,NA,false
ktmB4Q3T,3t5zxgo9eh1fn0t8t5nft3pt661qzj,3s4aw7t80fvqgqn079uv759i87yl48,ktmB4Q3T,2020-0188,2020-11-17,15:27:54,15:49:28,NA,incomplete,47,filling,0,0,right,Green_Plus_Grid_4.jpg,Red_Star_Stripes_4.jpg,Blue_Circle_Grid_2.jpg,right,943,true,low,NA,NA,NA,NA,NA,NA,NA,false
ktmB4Q3T,3t5zxgo9eh1fn0t8t5nft3pt661qzj,3s4aw7t80fvqgqn079uv759i87yl48,ktmB4Q3T,2020-0188,2020-11-17,15:27:54,15:49:28,NA,incomplete,48,filling,0,1,right,Purple_Triangle_Chess_3.jpg,Red_Plus_Dots_3.jpg,Blue_Circle_Chess_4.jpg,right,1150,true,low,NA,NA,NA,NA,NA,NA,NA,false
ktmB4Q3T,3t5zxgo9eh1fn0t8t5nft3pt661qzj,3s4aw7t80fvqgqn079uv759i87yl48,ktmB4Q3T,2020-0188,2020-11-17,15:27:54,15:49:28,NA,incomplete,49,filling,0,1,left,Green_Triangle_Chess_1.jpg,Blue_Star_Chess_3.jpg,Red_Plus_Stripes_1.jpg,left,893,true,low,NA,NA,NA,NA,NA,NA,NA,false
ktmB4Q3T,3t5zxgo9eh1fn0t8t5nft3pt661qzj,3s4aw7t80fvqgqn079uv759i87yl48,ktmB4Q3T,2020-0188,2020-11-17,15:27:54,15:49:28,NA,incomplete,50,number,1,1,left,Green_Plus_Dots_4.jpg,Blue_Star_Grid_4.jpg,Red_Circle_Dots_1.jpg,right,918,false,low,NA,NA,NA,NA,NA,NA,NA,false
ktmB4Q3T,3t5zxgo9eh1fn0t8t5nft3pt661qzj,3s4aw7t80fvqgqn079uv759i87yl48,ktmB4Q3T,2020-0188,2020-11-17,15:27:54,15:49:28,NA,incomplete,51,number,1,1,right,Green_Star_Chess_3.jpg,Red_Circle_Chess_4.jpg,Blue_Triangle_Stripes_3.jpg,left,854,false,low,NA,NA,NA,NA,NA,NA,NA,false
ktmB4Q3T,3t5zxgo9eh1fn0t8t5nft3pt661qzj,3s4aw7t80fvqgqn079uv759i87yl48,ktmB4Q3T,2020-0188,2020-11-17,15:27:54,15:49:28,NA,incomplete,52,number,1,1,right,Purple_Plus_Grid_3.jpg,Green_Triangle_Grid_4.jpg,Blue_Star_Stripes_3.jpg,right,641,true,low,NA,NA,NA,NA,NA,NA,NA,false
ktmB4Q3T,3t5zxgo9eh1fn0t8t5nft3pt661qzj,3s4aw7t80fvqgqn079uv759i87yl48,ktmB4Q3T,2020-0188,2020-11-17,15:27:54,15:49:28,NA,incomplete,53,number,1,0,right,Purple_Circle_Chess_1.jpg,Red_Star_Chess_3.jpg,Green_Plus_Grid_1.jpg,right,1005,true,low,NA,NA,NA,NA,NA,NA,NA,false
ktmB4Q3T,3t5zxgo9eh1fn0t8t5nft3pt661qzj,3s4aw7t80fvqgqn079uv759i87yl48,ktmB4Q3T,2020-0188,2020-11-17,15:27:54,15:49:28,NA,incomplete,54,number,1,1,right,Blue_Circle_Stripes_4.jpg,Green_Plus_Stripes_1.jpg,Red_Star_Grid_4.jpg,right,721,true,low,NA,NA,NA,NA,NA,NA,NA,false
ktmB4Q3T,3t5zxgo9eh1fn0t8t5nft3pt661qzj,3s4aw7t80fvqgqn079uv759i87yl48,ktmB4Q3T,2020-0188,2020-11-17,15:27:54,15:49:28,NA,incomplete,55,number,1,1,left,Red_Star_Dots_1.jpg,Blue_Circle_Stripes_1.jpg,Green_Triangle_Dots_4.jpg,left,800,true,low,NA,NA,NA,NA,NA,NA,NA,false
ktmB4Q3T,3t5zxgo9eh1fn0t8t5nft3pt661qzj,3s4aw7t80fvqgqn079uv759i87yl48,ktmB4Q3T,2020-0188,2020-11-17,15:27:54,15:49:28,NA,incomplete,56,number,1,1,left,Blue_Triangle_Dots_4.jpg,Purple_Circle_Stripes_4.jpg,Green_Plus_Dots_1.jpg,left,853,true,low,NA,NA,NA,NA,NA,NA,NA,false
ktmB4Q3T,3t5zxgo9eh1fn0t8t5nft3pt661qzj,3s4aw7t80fvqgqn079uv759i87yl48,ktmB4Q3T,2020-0188,2020-11-17,15:27:54,15:49:28,NA,incomplete,57,number,1,1,right,Red_Circle_Dots_3.jpg,Purple_Plus_Dots_4.jpg,Blue_Star_Stripes_3.jpg,right,912,true,low,NA,NA,NA,NA,NA,NA,NA,false
ktmB4Q3T,3t5zxgo9eh1fn0t8t5nft3pt661qzj,3s4aw7t80fvqgqn079uv759i87yl48,ktmB4Q3T,2020-0188,2020-11-17,15:27:54,15:49:28,NA,incomplete,58,number,1,1,left,Red_Circle_Stripes_4.jpg,Blue_Star_Chess_4.jpg,Green_Triangle_Stripes_3.jpg,left,1057,true,low,NA,NA,NA,NA,NA,NA,NA,false
ktmB4Q3T,3t5zxgo9eh1fn0t8t5nft3pt661qzj,3s4aw7t80fvqgqn079uv759i87yl48,ktmB4Q3T,2020-0188,2020-11-17,15:27:54,15:49:28,NA,incomplete,59,number,1,1,right,Purple_Triangle_Chess_3.jpg,Red_Star_Chess_4.jpg,Blue_Circle_Dots_3.jpg,right,714,true,low,NA,NA,NA,NA,NA,NA,NA,false
ktmB4Q3T,3t5zxgo9eh1fn0t8t5nft3pt661qzj,3s4aw7t80fvqgqn079uv759i87yl48,ktmB4Q3T,2020-0188,2020-11-17,15:27:54,15:49:28,NA,incomplete,60,filling,0,1,right,Blue_Plus_Chess_4.jpg,Green_Triangle_Grid_4.jpg,Purple_Star_Chess_3.jpg,left,660,false,low,NA,NA,NA,NA,NA,NA,NA,false
ktmB4Q3T,3t5zxgo9eh1fn0t8t5nft3pt661qzj,3s4aw7t80fvqgqn079uv759i87yl48,ktmB4Q3T,2020-0188,2020-11-17,15:27:54,15:49:28,NA,incomplete,61,filling,0,1,right,Purple_Circle_Grid_2.jpg,Red_Plus_Dots_2.jpg,Green_Star_Grid_1.jpg,left,837,false,low,NA,NA,NA,NA,NA,NA,NA,false
ktmB4Q3T,3t5zxgo9eh1fn0t8t5nft3pt661qzj,3s4aw7t80fvqgqn079uv759i87yl48,ktmB4Q3T,2020-0188,2020-11-17,15:27:54,15:49:28,NA,incomplete,62,filling,0,1,left,Red_Triangle_Chess_2.jpg,Purple_Circle_Chess_1.jpg,Green_Plus_Grid_2.jpg,left,1017,true,low,NA,NA,NA,NA,NA,NA,NA,false
ktmB4Q3T,3t5zxgo9eh1fn0t8t5nft3pt661qzj,3s4aw7t80fvqgqn079uv759i87yl48,ktmB4Q3T,2020-0188,2020-11-17,15:27:54,15:49:28,NA,incomplete,63,filling,0,0,left,Blue_Plus_Chess_2.jpg,Purple_Triangle_Chess_1.jpg,Green_Circle_Stripes_2.jpg,left,997,true,low,NA,NA,NA,NA,NA,NA,NA,false
ktmB4Q3T,3t5zxgo9eh1fn0t8t5nft3pt661qzj,3s4aw7t80fvqgqn079uv759i87yl48,ktmB4Q3T,2020-0188,2020-11-17,15:27:54,15:49:28,NA,incomplete,64,filling,0,1,left,Green_Plus_Grid_3.jpg,Purple_Star_Grid_4.jpg,Blue_Triangle_Dots_3.jpg,left,1538,true,low,NA,NA,NA,NA,NA,NA,NA,false
ktmB4Q3T,3t5zxgo9eh1fn0t8t5nft3pt661qzj,3s4aw7t80fvqgqn079uv759i87yl48,ktmB4Q3T,2020-0188,2020-11-17,15:27:54,15:49:28,NA,incomplete,65,filling,0,1,right,Red_Star_Stripes_3.jpg,Blue_Circle_Dots_3.jpg,Purple_Plus_Stripes_2.jpg,right,938,true,low,NA,NA,NA,NA,NA,NA,NA,false
ktmB4Q3T,3t5zxgo9eh1fn0t8t5nft3pt661qzj,3s4aw7t80fvqgqn079uv759i87yl48,ktmB4Q3T,2020-0188,2020-11-17,15:27:54,15:49:28,NA,incomplete,66,filling,0,1,right,Purple_Circle_Stripes_4.jpg,Green_Star_Chess_4.jpg,Red_Triangle_Stripes_1.jpg,right,881,true,low,NA,NA,NA,NA,NA,NA,NA,false
ktmB4Q3T,3t5zxgo9eh1fn0t8t5nft3pt661qzj,3s4aw7t80fvqgqn079uv759i87yl48,ktmB4Q3T,2020-0188,2020-11-17,15:27:54,15:49:28,NA,incomplete,67,filling,0,0,left,Red_Star_Chess_4.jpg,Purple_Circle_Chess_3.jpg,Blue_Triangle_Dots_4.jpg,left,818,true,low,NA,NA,NA,NA,NA,NA,NA,false
ktmB4Q3T,3t5zxgo9eh1fn0t8t5nft3pt661qzj,3s4aw7t80fvqgqn079uv759i87yl48,ktmB4Q3T,2020-0188,2020-11-17,15:27:54,15:49:28,NA,incomplete,68,filling,0,1,left,Red_Triangle_Stripes_1.jpg,Green_Star_Stripes_2.jpg,Purple_Circle_Dots_1.jpg,left,951,true,low,NA,NA,NA,NA,NA,NA,NA,false
ktmB4Q3T,3t5zxgo9eh1fn0t8t5nft3pt661qzj,3s4aw7t80fvqgqn079uv759i87yl48,ktmB4Q3T,2020-0188,2020-11-17,15:27:54,15:49:28,NA,incomplete,69,filling,0,1,right,Purple_Triangle_Grid_1.jpg,Blue_Star_Stripes_1.jpg,Red_Plus_Grid_2.jpg,right,958,true,low,NA,NA,NA,NA,NA,NA,NA,false
ktmB4Q3T,3t5zxgo9eh1fn0t8t5nft3pt661qzj,3s4aw7t80fvqgqn079uv759i87yl48,ktmB4Q3T,2020-0188,2020-11-17,15:27:54,15:49:28,NA,incomplete,70,number,1,1,right,Blue_Circle_Chess_4.jpg,Red_Triangle_Chess_1.jpg,Purple_Star_Stripes_4.jpg,left,908,false,low,NA,NA,NA,NA,NA,NA,NA,false
ktmB4Q3T,3t5zxgo9eh1fn0t8t5nft3pt661qzj,3s4aw7t80fvqgqn079uv759i87yl48,ktmB4Q3T,2020-0188,2020-11-17,15:27:54,15:49:28,NA,incomplete,71,number,1,1,right,Red_Star_Grid_1.jpg,Purple_Triangle_Grid_3.jpg,Blue_Plus_Chess_1.jpg,left,1036,false,low,NA,NA,NA,NA,NA,NA,NA,false
ktmB4Q3T,3t5zxgo9eh1fn0t8t5nft3pt661qzj,3s4aw7t80fvqgqn079uv759i87yl48,ktmB4Q3T,2020-0188,2020-11-17,15:27:54,15:49:28,NA,incomplete,72,number,1,0,right,Purple_Star_Chess_3.jpg,Blue_Circle_Chess_2.jpg,Red_Triangle_Stripes_3.jpg,right,767,true,low,NA,NA,NA,NA,NA,NA,NA,false
ktmB4Q3T,3t5zxgo9eh1fn0t8t5nft3pt661qzj,3s4aw7t80fvqgqn079uv759i87yl48,ktmB4Q3T,2020-0188,2020-11-17,15:27:54,15:49:28,NA,incomplete,73,number,1,1,left,Red_Star_Chess_2.jpg,Green_Circle_Stripes_2.jpg,Purple_Triangle_Chess_4.jpg,left,781,true,low,NA,NA,NA,NA,NA,NA,NA,false
ktmB4Q3T,3t5zxgo9eh1fn0t8t5nft3pt661qzj,3s4aw7t80fvqgqn079uv759i87yl48,ktmB4Q3T,2020-0188,2020-11-17,15:27:54,15:49:28,NA,incomplete,74,number,1,1,left,Purple_Star_Stripes_4.jpg,Red_Triangle_Grid_4.jpg,Blue_Plus_Stripes_1.jpg,left,835,true,low,NA,NA,NA,NA,NA,NA,NA,false
ktmB4Q3T,3t5zxgo9eh1fn0t8t5nft3pt661qzj,3s4aw7t80fvqgqn079uv759i87yl48,ktmB4Q3T,2020-0188,2020-11-17,15:27:54,15:49:28,NA,incomplete,75,number,1,0,left,Purple_Plus_Chess_2.jpg,Red_Star_Stripes_2.jpg,Blue_Circle_Chess_3.jpg,left,1158,true,low,NA,NA,NA,NA,NA,NA,NA,false
ktmB4Q3T,3t5zxgo9eh1fn0t8t5nft3pt661qzj,3s4aw7t80fvqgqn079uv759i87yl48,ktmB4Q3T,2020-0188,2020-11-17,15:27:54,15:49:28,NA,incomplete,76,number,1,0,left,Purple_Triangle_Chess_3.jpg,Green_Circle_Stripes_3.jpg,Red_Plus_Chess_2.jpg,left,852,true,low,NA,NA,NA,NA,NA,NA,NA,false
ktmB4Q3T,3t5zxgo9eh1fn0t8t5nft3pt661qzj,3s4aw7t80fvqgqn079uv759i87yl48,ktmB4Q3T,2020-0188,2020-11-17,15:27:54,15:49:28,NA,incomplete,77,number,1,1,right,Green_Star_Stripes_3.jpg,Red_Triangle_Stripes_1.jpg,Blue_Plus_Chess_3.jpg,left,1047,false,low,NA,NA,NA,NA,NA,NA,NA,false
ktmB4Q3T,3t5zxgo9eh1fn0t8t5nft3pt661qzj,3s4aw7t80fvqgqn079uv759i87yl48,ktmB4Q3T,2020-0188,2020-11-17,15:27:54,15:49:28,NA,incomplete,78,number,1,1,right,Red_Circle_Grid_3.jpg,Green_Triangle_Grid_2.jpg,Blue_Plus_Dots_3.jpg,right,1530,true,low,NA,NA,NA,NA,NA,NA,NA,false
ktmB4Q3T,3t5zxgo9eh1fn0t8t5nft3pt661qzj,3s4aw7t80fvqgqn079uv759i87yl48,ktmB4Q3T,2020-0188,2020-11-17,15:27:54,15:49:28,NA,incomplete,79,number,1,1,left,Green_Plus_Stripes_1.jpg,Purple_Triangle_Grid_1.jpg,Blue_Star_Stripes_2.jpg,left,1003,true,low,NA,NA,NA,NA,NA,NA,NA,false
ktmB4Q3T,3t5zxgo9eh1fn0t8t5nft3pt661qzj,3s4aw7t80fvqgqn079uv759i87yl48,ktmB4Q3T,2020-0188,2020-11-17,15:27:54,15:49:28,NA,incomplete,80,filling,0,1,right,Blue_Circle_Chess_4.jpg,Red_Star_Dots_4.jpg,Purple_Plus_Chess_2.jpg,left,904,false,low,NA,NA,NA,NA,NA,NA,NA,false
ktmB4Q3T,3t5zxgo9eh1fn0t8t5nft3pt661qzj,3s4aw7t80fvqgqn079uv759i87yl48,ktmB4Q3T,2020-0188,2020-11-17,15:27:54,15:49:28,NA,incomplete,81,filling,0,1,right,Purple_Circle_Chess_2.jpg,Red_Star_Stripes_2.jpg,Blue_Triangle_Chess_3.jpg,left,975,false,low,NA,NA,NA,NA,NA,NA,NA,false
ktmB4Q3T,3t5zxgo9eh1fn0t8t5nft3pt661qzj,3s4aw7t80fvqgqn079uv759i87yl48,ktmB4Q3T,2020-0188,2020-11-17,15:27:54,15:49:28,NA,incomplete,82,filling,0,0,left,Green_Circle_Dots_4.jpg,Blue_Triangle_Dots_3.jpg,Purple_Plus_Chess_4.jpg,left,1205,true,low,NA,NA,NA,NA,NA,NA,NA,false
ktmB4Q3T,3t5zxgo9eh1fn0t8t5nft3pt661qzj,3s4aw7t80fvqgqn079uv759i87yl48,ktmB4Q3T,2020-0188,2020-11-17,15:27:54,15:49:28,NA,incomplete,83,filling,0,1,left,Blue_Star_Chess_1.jpg,Green_Plus_Chess_3.jpg,Purple_Circle_Grid_1.jpg,right,1001,false,low,NA,NA,NA,NA,NA,NA,NA,false
ktmB4Q3T,3t5zxgo9eh1fn0t8t5nft3pt661qzj,3s4aw7t80fvqgqn079uv759i87yl48,ktmB4Q3T,2020-0188,2020-11-17,15:27:54,15:49:28,NA,incomplete,84,filling,0,1,left,Blue_Star_Chess_1.jpg,Red_Triangle_Chess_4.jpg,Green_Plus_Grid_1.jpg,left,942,true,low,NA,NA,NA,NA,NA,NA,NA,false
ktmB4Q3T,3t5zxgo9eh1fn0t8t5nft3pt661qzj,3s4aw7t80fvqgqn079uv759i87yl48,ktmB4Q3T,2020-0188,2020-11-17,15:27:54,15:49:28,NA,incomplete,85,filling,0,0,left,Blue_Star_Stripes_2.jpg,Green_Circle_Stripes_3.jpg,Purple_Triangle_Grid_2.jpg,left,997,true,low,NA,NA,NA,NA,NA,NA,NA,false
ktmB4Q3T,3t5zxgo9eh1fn0t8t5nft3pt661qzj,3s4aw7t80fvqgqn079uv759i87yl48,ktmB4Q3T,2020-0188,2020-11-17,15:27:54,15:49:28,NA,incomplete,86,filling,0,1,left,Red_Star_Stripes_2.jpg,Purple_Plus_Stripes_3.jpg,Green_Circle_Grid_2.jpg,left,1115,true,low,NA,NA,NA,NA,NA,NA,NA,false
ktmB4Q3T,3t5zxgo9eh1fn0t8t5nft3pt661qzj,3s4aw7t80fvqgqn079uv759i87yl48,ktmB4Q3T,2020-0188,2020-11-17,15:27:54,15:49:28,NA,incomplete,87,filling,0,1,left,Red_Star_Dots_1.jpg,Purple_Triangle_Dots_2.jpg,Green_Plus_Stripes_1.jpg,left,1005,true,low,NA,NA,NA,NA,NA,NA,NA,false
ktmB4Q3T,3t5zxgo9eh1fn0t8t5nft3pt661qzj,3s4aw7t80fvqgqn079uv759i87yl48,ktmB4Q3T,2020-0188,2020-11-17,15:27:54,15:49:28,NA,incomplete,88,filling,0,1,left,Blue_Plus_Dots_1.jpg,Purple_Star_Dots_2.jpg,Green_Circle_Stripes_1.jpg,left,1161,true,low,NA,NA,NA,NA,NA,NA,NA,false
ktmB4Q3T,3t5zxgo9eh1fn0t8t5nft3pt661qzj,3s4aw7t80fvqgqn079uv759i87yl48,ktmB4Q3T,2020-0188,2020-11-17,15:27:54,15:49:28,NA,incomplete,89,filling,0,1,left,Purple_Circle_Grid_1.jpg,Blue_Plus_Grid_3.jpg,Green_Triangle_Dots_1.jpg,left,1118,true,low,NA,NA,NA,NA,NA,NA,NA,false
ktmB4Q3T,3t5zxgo9eh1fn0t8t5nft3pt661qzj,3s4aw7t80fvqgqn079uv759i87yl48,ktmB4Q3T,2020-0188,2020-11-17,15:27:54,15:49:28,NA,incomplete,90,number,1,0,left,Red_Triangle_Grid_2.jpg,Green_Plus_Dots_2.jpg,Purple_Star_Grid_3.jpg,right,1016,false,low,NA,NA,NA,NA,NA,NA,NA,false
ktmB4Q3T,3t5zxgo9eh1fn0t8t5nft3pt661qzj,3s4aw7t80fvqgqn079uv759i87yl48,ktmB4Q3T,2020-0188,2020-11-17,15:27:54,15:49:28,NA,incomplete,91,number,1,1,left,Red_Triangle_Dots_4.jpg,Green_Plus_Chess_4.jpg,Blue_Star_Dots_3.jpg,right,1341,false,low,NA,NA,NA,NA,NA,NA,NA,false
ktmB4Q3T,3t5zxgo9eh1fn0t8t5nft3pt661qzj,3s4aw7t80fvqgqn079uv759i87yl48,ktmB4Q3T,2020-0188,2020-11-17,15:27:54,15:49:28,NA,incomplete,92,number,1,1,left,Purple_Triangle_Grid_1.jpg,Green_Circle_Dots_1.jpg,Blue_Star_Grid_2.jpg,left,722,true,low,NA,NA,NA,NA,NA,NA,NA,false
ktmB4Q3T,3t5zxgo9eh1fn0t8t5nft3pt661qzj,3s4aw7t80fvqgqn079uv759i87yl48,ktmB4Q3T,2020-0188,2020-11-17,15:27:54,15:49:28,NA,incomplete,93,number,1,0,right,Purple_Plus_Dots_2.jpg,Blue_Triangle_Dots_3.jpg,Green_Star_Grid_2.jpg,right,1003,true,low,NA,NA,NA,NA,NA,NA,NA,false
ktmB4Q3T,3t5zxgo9eh1fn0t8t5nft3pt661qzj,3s4aw7t80fvqgqn079uv759i87yl48,ktmB4Q3T,2020-0188,2020-11-17,15:27:54,15:49:28,NA,incomplete,94,number,1,1,right,Blue_Plus_Chess_1.jpg,Purple_Circle_Chess_4.jpg,Green_Triangle_Dots_1.jpg,none,0,false,low,NA,NA,NA,NA,NA,NA,NA,false
ktmB4Q3T,3t5zxgo9eh1fn0t8t5nft3pt661qzj,3s4aw7t80fvqgqn079uv759i87yl48,ktmB4Q3T,2020-0188,2020-11-17,15:27:54,15:49:28,NA,incomplete,95,number,1,1,left,Green_Plus_Grid_1.jpg,Red_Star_Stripes_1.jpg,Purple_Circle_Grid_4.jpg,left,1215,true,low,NA,NA,NA,NA,NA,NA,NA,false
ktmB4Q3T,3t5zxgo9eh1fn0t8t5nft3pt661qzj,3s4aw7t80fvqgqn079uv759i87yl48,ktmB4Q3T,2020-0188,2020-11-17,15:27:54,15:49:28,NA,incomplete,96,number,1,1,right,Blue_Star_Chess_4.jpg,Purple_Plus_Chess_3.jpg,Green_Circle_Stripes_4.jpg,left,1401,false,low,NA,NA,NA,NA,NA,NA,NA,false
ktmB4Q3T,3t5zxgo9eh1fn0t8t5nft3pt661qzj,3s4aw7t80fvqgqn079uv759i87yl48,ktmB4Q3T,2020-0188,2020-11-17,15:27:54,15:49:28,NA,incomplete,97,number,1,1,left,Blue_Triangle_Chess_4.jpg,Red_Circle_Stripes_4.jpg,Purple_Star_Chess_3.jpg,left,888,true,low,NA,NA,NA,NA,NA,NA,NA,false
ktmB4Q3T,3t5zxgo9eh1fn0t8t5nft3pt661qzj,3s4aw7t80fvqgqn079uv759i87yl48,ktmB4Q3T,2020-0188,2020-11-17,15:27:54,15:49:28,NA,incomplete,98,number,1,0,left,Red_Star_Stripes_2.jpg,Purple_Circle_Grid_2.jpg,Green_Triangle_Stripes_3.jpg,left,824,true,low,NA,NA,NA,NA,NA,NA,NA,false
ktmB4Q3T,3t5zxgo9eh1fn0t8t5nft3pt661qzj,3s4aw7t80fvqgqn079uv759i87yl48,ktmB4Q3T,2020-0188,2020-11-17,15:27:54,15:49:28,NA,incomplete,99,number,1,0,right,Purple_Circle_Grid_3.jpg,Blue_Triangle_Grid_2.jpg,Green_Plus_Stripes_3.jpg,none,0,false,low,NA,NA,NA,NA,NA,NA,NA,false
ktmB4Q3T,3t5zxgo9eh1fn0t8t5nft3pt661qzj,3s4aw7t80fvqgqn079uv759i87yl48,ktmB4Q3T,2020-0188,2020-11-17,15:27:54,15:49:28,NA,incomplete,100,filling,0,1,left,Red_Triangle_Grid_2.jpg,Blue_Star_Grid_1.jpg,Green_Circle_Dots_2.jpg,right,1251,false,low,NA,NA,NA,NA,NA,NA,NA,false
ktmB4Q3T,3t5zxgo9eh1fn0t8t5nft3pt661qzj,3s4aw7t80fvqgqn079uv759i87yl48,ktmB4Q3T,2020-0188,2020-11-17,15:27:54,15:49:28,NA,incomplete,101,filling,0,1,right,Red_Star_Grid_1.jpg,Green_Circle_Stripes_1.jpg,Purple_Triangle_Grid_2.jpg,right,925,true,low,NA,NA,NA,NA,NA,NA,NA,false
ktmB4Q3T,3t5zxgo9eh1fn0t8t5nft3pt661qzj,3s4aw7t80fvqgqn079uv759i87yl48,ktmB4Q3T,2020-0188,2020-11-17,15:27:54,15:49:28,NA,incomplete,102,filling,0,0,right,Green_Star_Dots_4.jpg,Red_Plus_Grid_4.jpg,Blue_Triangle_Dots_3.jpg,right,990,true,low,NA,NA,NA,NA,NA,NA,NA,false
ktmB4Q3T,3t5zxgo9eh1fn0t8t5nft3pt661qzj,3s4aw7t80fvqgqn079uv759i87yl48,ktmB4Q3T,2020-0188,2020-11-17,15:27:54,15:49:28,NA,incomplete,103,filling,0,1,left,Purple_Plus_Dots_1.jpg,Red_Star_Dots_2.jpg,Blue_Triangle_Chess_1.jpg,left,1051,true,low,NA,NA,NA,NA,NA,NA,NA,false
ktmB4Q3T,3t5zxgo9eh1fn0t8t5nft3pt661qzj,3s4aw7t80fvqgqn079uv759i87yl48,ktmB4Q3T,2020-0188,2020-11-17,15:27:54,15:49:28,NA,incomplete,104,filling,0,0,right,Purple_Circle_Grid_1.jpg,Red_Plus_Stripes_1.jpg,Green_Star_Grid_3.jpg,right,870,true,low,NA,NA,NA,NA,NA,NA,NA,false
ktmB4Q3T,3t5zxgo9eh1fn0t8t5nft3pt661qzj,3s4aw7t80fvqgqn079uv759i87yl48,ktmB4Q3T,2020-0188,2020-11-17,15:27:54,15:49:28,NA,incomplete,105,filling,0,1,right,Red_Circle_Chess_4.jpg,Green_Plus_Stripes_4.jpg,Blue_Triangle_Chess_2.jpg,right,928,true,low,NA,NA,NA,NA,NA,NA,NA,false
ktmB4Q3T,3t5zxgo9eh1fn0t8t5nft3pt661qzj,3s4aw7t80fvqgqn079uv759i87yl48,ktmB4Q3T,2020-0188,2020-11-17,15:27:54,15:49:28,NA,incomplete,106,filling,0,0,left,Green_Circle_Chess_3.jpg,Blue_Triangle_Chess_2.jpg,Red_Star_Stripes_3.jpg,left,1024,true,low,NA,NA,NA,NA,NA,NA,NA,false
ktmB4Q3T,3t5zxgo9eh1fn0t8t5nft3pt661qzj,3s4aw7t80fvqgqn079uv759i87yl48,ktmB4Q3T,2020-0188,2020-11-17,15:27:54,15:49:28,NA,incomplete,107,filling,0,1,right,Blue_Plus_Chess_2.jpg,Purple_Triangle_Stripes_2.jpg,Red_Star_Chess_1.jpg,right,827,true,low,NA,NA,NA,NA,NA,NA,NA,false
ktmB4Q3T,3t5zxgo9eh1fn0t8t5nft3pt661qzj,3s4aw7t80fvqgqn079uv759i87yl48,ktmB4Q3T,2020-0188,2020-11-17,15:27:54,15:49:28,NA,incomplete,108,filling,0,1,left,Green_Triangle_Chess_2.jpg,Red_Circle_Chess_4.jpg,Blue_Star_Dots_2.jpg,left,879,true,low,NA,NA,NA,NA,NA,NA,NA,false
ktmB4Q3T,3t5zxgo9eh1fn0t8t5nft3pt661qzj,3s4aw7t80fvqgqn079uv759i87yl48,ktmB4Q3T,2020-0188,2020-11-17,15:27:54,15:49:28,NA,incomplete,109,filling,0,1,left,Blue_Plus_Chess_2.jpg,Green_Triangle_Chess_4.jpg,Red_Circle_Stripes_2.jpg,left,825,true,low,NA,NA,NA,NA,NA,NA,NA,false
ktmB4Q3T,3t5zxgo9eh1fn0t8t5nft3pt661qzj,3s4aw7t80fvqgqn079uv759i87yl48,ktmB4Q3T,2020-0188,2020-11-17,15:27:54,15:49:28,NA,incomplete,110,number,1,1,right,Blue_Star_Chess_3.jpg,Purple_Circle_Chess_4.jpg,Green_Plus_Grid_3.jpg,left,966,false,low,NA,NA,NA,NA,NA,NA,NA,false
ktmB4Q3T,3t5zxgo9eh1fn0t8t5nft3pt661qzj,3s4aw7t80fvqgqn079uv759i87yl48,ktmB4Q3T,2020-0188,2020-11-17,15:27:54,15:49:28,NA,incomplete,111,number,1,0,left,Purple_Triangle_Dots_3.jpg,Red_Circle_Stripes_3.jpg,Blue_Star_Dots_1.jpg,right,963,false,low,NA,NA,NA,NA,NA,NA,NA,false
ktmB4Q3T,3t5zxgo9eh1fn0t8t5nft3pt661qzj,3s4aw7t80fvqgqn079uv759i87yl48,ktmB4Q3T,2020-0188,2020-11-17,15:27:54,15:49:28,NA,incomplete,112,number,1,1,left,Red_Triangle_Grid_3.jpg,Blue_Circle_Dots_3.jpg,Green_Plus_Grid_1.jpg,right,914,false,low,NA,NA,NA,NA,NA,NA,NA,false
ktmB4Q3T,3t5zxgo9eh1fn0t8t5nft3pt661qzj,3s4aw7t80fvqgqn079uv759i87yl48,ktmB4Q3T,2020-0188,2020-11-17,15:27:54,15:49:28,NA,incomplete,113,number,1,1,right,Purple_Star_Grid_2.jpg,Blue_Circle_Grid_4.jpg,Red_Triangle_Dots_2.jpg,left,747,false,low,NA,NA,NA,NA,NA,NA,NA,false
ktmB4Q3T,3t5zxgo9eh1fn0t8t5nft3pt661qzj,3s4aw7t80fvqgqn079uv759i87yl48,ktmB4Q3T,2020-0188,2020-11-17,15:27:54,15:49:28,NA,incomplete,114,number,1,1,left,Blue_Circle_Grid_3.jpg,Purple_Star_Dots_3.jpg,Red_Triangle_Grid_1.jpg,right,961,false,low,NA,NA,NA,NA,NA,NA,NA,false
ktmB4Q3T,3t5zxgo9eh1fn0t8t5nft3pt661qzj,3s4aw7t80fvqgqn079uv759i87yl48,ktmB4Q3T,2020-0188,2020-11-17,15:27:54,15:49:28,NA,incomplete,115,number,1,0,right,Blue_Circle_Grid_2.jpg,Purple_Star_Grid_1.jpg,Green_Triangle_Chess_2.jpg,right,824,true,low,NA,NA,NA,NA,NA,NA,NA,false
ktmB4Q3T,3t5zxgo9eh1fn0t8t5nft3pt661qzj,3s4aw7t80fvqgqn079uv759i87yl48,ktmB4Q3T,2020-0188,2020-11-17,15:27:54,15:49:28,NA,incomplete,116,number,1,1,right,Blue_Star_Dots_3.jpg,Green_Plus_Dots_1.jpg,Purple_Circle_Grid_3.jpg,right,756,true,low,NA,NA,NA,NA,NA,NA,NA,false
ktmB4Q3T,3t5zxgo9eh1fn0t8t5nft3pt661qzj,3s4aw7t80fvqgqn079uv759i87yl48,ktmB4Q3T,2020-0188,2020-11-17,15:27:54,15:49:28,NA,incomplete,117,number,1,0,right,Purple_Star_Chess_3.jpg,Green_Circle_Chess_2.jpg,Blue_Triangle_Dots_3.jpg,right,804,true,low,NA,NA,NA,NA,NA,NA,NA,false
ktmB4Q3T,3t5zxgo9eh1fn0t8t5nft3pt661qzj,3s4aw7t80fvqgqn079uv759i87yl48,ktmB4Q3T,2020-0188,2020-11-17,15:27:54,15:49:28,NA,incomplete,118,number,1,1,left,Blue_Star_Chess_3.jpg,Red_Circle_Stripes_3.jpg,Purple_Plus_Chess_1.jpg,left,1103,true,low,NA,NA,NA,NA,NA,NA,NA,false
ktmB4Q3T,3t5zxgo9eh1fn0t8t5nft3pt661qzj,3s4aw7t80fvqgqn079uv759i87yl48,ktmB4Q3T,2020-0188,2020-11-17,15:27:54,15:49:28,NA,incomplete,119,number,1,1,left,Purple_Circle_Chess_1.jpg,Blue_Triangle_Stripes_1.jpg,Red_Star_Chess_3.jpg,left,976,true,low,NA,NA,NA,NA,NA,NA,NA,false
ktmB4Q3T,3t5zxgo9eh1fn0t8t5nft3pt661qzj,3s4aw7t80fvqgqn079uv759i87yl48,ktmB4Q3T,2020-0188,2020-11-17,15:27:54,15:49:28,NA,incomplete,120,race,2,0,right,C_F_05.jpg,A_F_16.jpg,C_M_01.jpg,NA,NA,NA,low,NA,NA,NA,NA,NA,NA,NA,false
ktmB4Q3T,3t5zxgo9eh1fn0t8t5nft3pt661qzj,3s4aw7t80fvqgqn079uv759i87yl48,ktmB4Q3T,2020-0188,2020-11-17,15:27:54,15:49:28,NA,incomplete,121,race,2,1,right,A_F_01.jpg,C_F_12.jpg,A_M_02.jpg,left,985,false,low,NA,NA,NA,NA,NA,NA,NA,false
ktmB4Q3T,3t5zxgo9eh1fn0t8t5nft3pt661qzj,3s4aw7t80fvqgqn079uv759i87yl48,ktmB4Q3T,2020-0188,2020-11-17,15:27:54,15:49:28,NA,incomplete,122,race,2,0,left,A_F_14.jpg,A_M_09.jpg,C_F_10.jpg,left,1495,true,low,NA,NA,NA,NA,NA,NA,NA,false
ktmB4Q3T,3t5zxgo9eh1fn0t8t5nft3pt661qzj,3s4aw7t80fvqgqn079uv759i87yl48,ktmB4Q3T,2020-0188,2020-11-17,15:27:54,15:49:28,NA,incomplete,123,race,2,1,right,A_F_03.jpg,C_F_04.jpg,A_M_10.jpg,left,1033,false,low,NA,NA,NA,NA,NA,NA,NA,false
ktmB4Q3T,3t5zxgo9eh1fn0t8t5nft3pt661qzj,3s4aw7t80fvqgqn079uv759i87yl48,ktmB4Q3T,2020-0188,2020-11-17,15:27:54,15:49:28,NA,incomplete,124,race,2,1,left,C_M_12.jpg,C_F_09.jpg,A_M_11.jpg,left,1341,true,low,NA,NA,NA,NA,NA,NA,NA,false
ktmB4Q3T,3t5zxgo9eh1fn0t8t5nft3pt661qzj,3s4aw7t80fvqgqn079uv759i87yl48,ktmB4Q3T,2020-0188,2020-11-17,15:27:54,15:49:28,NA,incomplete,125,race,2,1,right,A_F_05.jpg,C_F_15.jpg,A_M_02.jpg,right,1131,true,low,NA,NA,NA,NA,NA,NA,NA,false
ktmB4Q3T,3t5zxgo9eh1fn0t8t5nft3pt661qzj,3s4aw7t80fvqgqn079uv759i87yl48,ktmB4Q3T,2020-0188,2020-11-17,15:27:54,15:49:28,NA,incomplete,126,race,2,1,right,C_M_02.jpg,A_M_06.jpg,C_F_08.jpg,right,1011,true,low,NA,NA,NA,NA,NA,NA,NA,false
ktmB4Q3T,3t5zxgo9eh1fn0t8t5nft3pt661qzj,3s4aw7t80fvqgqn079uv759i87yl48,ktmB4Q3T,2020-0188,2020-11-17,15:27:54,15:49:28,NA,incomplete,127,race,2,1,left,C_M_04.jpg,C_F_16.jpg,A_M_14.jpg,left,1040,true,low,NA,NA,NA,NA,NA,NA,NA,false
ktmB4Q3T,3t5zxgo9eh1fn0t8t5nft3pt661qzj,3s4aw7t80fvqgqn079uv759i87yl48,ktmB4Q3T,2020-0188,2020-11-17,15:27:54,15:49:28,NA,incomplete,128,race,2,0,right,A_F_04.jpg,C_F_05.jpg,A_M_13.jpg,right,1035,true,low,NA,NA,NA,NA,NA,NA,NA,false
ktmB4Q3T,3t5zxgo9eh1fn0t8t5nft3pt661qzj,3s4aw7t80fvqgqn079uv759i87yl48,ktmB4Q3T,2020-0188,2020-11-17,15:27:54,15:49:28,NA,incomplete,129,race,2,1,left,C_F_12.jpg,C_M_01.jpg,A_F_14.jpg,right,845,false,low,NA,NA,NA,NA,NA,NA,NA,false
ktmB4Q3T,3t5zxgo9eh1fn0t8t5nft3pt661qzj,3s4aw7t80fvqgqn079uv759i87yl48,ktmB4Q3T,2020-0188,2020-11-17,15:27:54,15:49:28,NA,incomplete,130,race,2,1,left,A_M_05.jpg,A_F_09.jpg,C_M_14.jpg,left,945,true,low,NA,NA,NA,NA,NA,NA,NA,false
ktmB4Q3T,3t5zxgo9eh1fn0t8t5nft3pt661qzj,3s4aw7t80fvqgqn079uv759i87yl48,ktmB4Q3T,2020-0188,2020-11-17,15:27:54,15:49:28,NA,incomplete,131,race,2,1,left,C_F_10.jpg,C_M_12.jpg,A_F_11.jpg,left,1240,true,low,NA,NA,NA,NA,NA,NA,NA,false
ktmB4Q3T,3t5zxgo9eh1fn0t8t5nft3pt661qzj,3s4aw7t80fvqgqn079uv759i87yl48,ktmB4Q3T,2020-0188,2020-11-17,15:27:54,15:49:28,NA,incomplete,132,race,2,1,right,C_M_03.jpg,A_M_12.jpg,C_F_01.jpg,right,988,true,low,NA,NA,NA,NA,NA,NA,NA,false
ktmB4Q3T,3t5zxgo9eh1fn0t8t5nft3pt661qzj,3s4aw7t80fvqgqn079uv759i87yl48,ktmB4Q3T,2020-0188,2020-11-17,15:27:54,15:49:28,NA,incomplete,133,race,2,1,right,A_F_04.jpg,C_F_07.jpg,A_M_11.jpg,right,976,true,low,NA,NA,NA,NA,NA,NA,NA,false
ktmB4Q3T,3t5zxgo9eh1fn0t8t5nft3pt661qzj,3s4aw7t80fvqgqn079uv759i87yl48,ktmB4Q3T,2020-0188,2020-11-17,15:27:54,15:49:28,NA,incomplete,134,race,2,0,right,A_M_01.jpg,C_M_02.jpg,A_F_09.jpg,left,871,false,low,NA,NA,NA,NA,NA,NA,NA,false
ktmB4Q3T,3t5zxgo9eh1fn0t8t5nft3pt661qzj,3s4aw7t80fvqgqn079uv759i87yl48,ktmB4Q3T,2020-0188,2020-11-17,15:27:54,15:49:28,NA,incomplete,135,race,2,1,right,A_F_12.jpg,C_F_08.jpg,A_M_11.jpg,left,874,false,low,NA,NA,NA,NA,NA,NA,NA,false
ktmB4Q3T,3t5zxgo9eh1fn0t8t5nft3pt661qzj,3s4aw7t80fvqgqn079uv759i87yl48,ktmB4Q3T,2020-0188,2020-11-17,15:27:54,15:49:28,NA,incomplete,136,race,2,1,left,C_F_05.jpg,C_M_10.jpg,A_F_07.jpg,right,971,false,low,NA,NA,NA,NA,NA,NA,NA,false
ktmB4Q3T,3t5zxgo9eh1fn0t8t5nft3pt661qzj,3s4aw7t80fvqgqn079uv759i87yl48,ktmB4Q3T,2020-0188,2020-11-17,15:27:54,15:49:28,NA,incomplete,137,race,2,0,left,A_F_16.jpg,A_M_06.jpg,C_F_01.jpg,right,873,false,low,NA,NA,NA,NA,NA,NA,NA,false
ktmB4Q3T,3t5zxgo9eh1fn0t8t5nft3pt661qzj,3s4aw7t80fvqgqn079uv759i87yl48,ktmB4Q3T,2020-0188,2020-11-17,15:27:54,15:49:28,NA,incomplete,138,race,2,1,left,A_M_14.jpg,A_F_13.jpg,C_M_12.jpg,right,994,false,low,NA,NA,NA,NA,NA,NA,NA,false
ktmB4Q3T,3t5zxgo9eh1fn0t8t5nft3pt661qzj,3s4aw7t80fvqgqn079uv759i87yl48,ktmB4Q3T,2020-0188,2020-11-17,15:27:54,15:49:28,NA,incomplete,139,race,2,0,right,C_F_10.jpg,A_F_07.jpg,C_M_01.jpg,left,1383,false,low,NA,NA,NA,NA,NA,NA,NA,false
ktmB4Q3T,3t5zxgo9eh1fn0t8t5nft3pt661qzj,3s4aw7t80fvqgqn079uv759i87yl48,ktmB4Q3T,2020-0188,2020-11-17,15:27:54,15:49:28,NA,incomplete,140,gender,3,1,left,A_M_15.jpg,C_M_11.jpg,A_F_05.jpg,right,1133,false,low,NA,NA,NA,NA,NA,NA,NA,false
ktmB4Q3T,3t5zxgo9eh1fn0t8t5nft3pt661qzj,3s4aw7t80fvqgqn079uv759i87yl48,ktmB4Q3T,2020-0188,2020-11-17,15:27:54,15:49:28,NA,incomplete,141,gender,3,0,right,A_F_10.jpg,A_M_16.jpg,C_F_06.jpg,right,1573,true,low,NA,NA,NA,NA,NA,NA,NA,false
ktmB4Q3T,3t5zxgo9eh1fn0t8t5nft3pt661qzj,3s4aw7t80fvqgqn079uv759i87yl48,ktmB4Q3T,2020-0188,2020-11-17,15:27:54,15:49:28,NA,incomplete,142,gender,3,1,left,C_M_10.jpg,A_M_13.jpg,C_F_09.jpg,left,1315,true,low,NA,NA,NA,NA,NA,NA,NA,false
ktmB4Q3T,3t5zxgo9eh1fn0t8t5nft3pt661qzj,3s4aw7t80fvqgqn079uv759i87yl48,ktmB4Q3T,2020-0188,2020-11-17,15:27:54,15:49:28,NA,incomplete,143,gender,3,0,left,C_M_15.jpg,A_M_13.jpg,C_F_14.jpg,left,1692,true,low,NA,NA,NA,NA,NA,NA,NA,false
ktmB4Q3T,3t5zxgo9eh1fn0t8t5nft3pt661qzj,3s4aw7t80fvqgqn079uv759i87yl48,ktmB4Q3T,2020-0188,2020-11-17,15:27:54,15:49:28,NA,incomplete,144,gender,3,1,left,C_F_11.jpg,A_F_05.jpg,C_M_01.jpg,left,1516,true,low,NA,NA,NA,NA,NA,NA,NA,false
ktmB4Q3T,3t5zxgo9eh1fn0t8t5nft3pt661qzj,3s4aw7t80fvqgqn079uv759i87yl48,ktmB4Q3T,2020-0188,2020-11-17,15:27:54,15:49:28,NA,incomplete,145,gender,3,1,right,C_M_02.jpg,C_F_15.jpg,A_M_08.jpg,right,1380,true,low,NA,NA,NA,NA,NA,NA,NA,false
ktmB4Q3T,3t5zxgo9eh1fn0t8t5nft3pt661qzj,3s4aw7t80fvqgqn079uv759i87yl48,ktmB4Q3T,2020-0188,2020-11-17,15:27:54,15:49:28,NA,incomplete,146,gender,3,1,right,A_M_14.jpg,A_F_16.jpg,C_M_05.jpg,right,1139,true,low,NA,NA,NA,NA,NA,NA,NA,false
ktmB4Q3T,3t5zxgo9eh1fn0t8t5nft3pt661qzj,3s4aw7t80fvqgqn079uv759i87yl48,ktmB4Q3T,2020-0188,2020-11-17,15:27:54,15:49:28,NA,incomplete,147,gender,3,1,left,C_F_03.jpg,A_F_01.jpg,C_M_12.jpg,left,874,true,low,NA,NA,NA,NA,NA,NA,NA,false
ktmB4Q3T,3t5zxgo9eh1fn0t8t5nft3pt661qzj,3s4aw7t80fvqgqn079uv759i87yl48,ktmB4Q3T,2020-0188,2020-11-17,15:27:54,15:49:28,NA,incomplete,148,gender,3,1,left,C_M_02.jpg,A_M_10.jpg,C_F_15.jpg,left,916,true,low,NA,NA,NA,NA,NA,NA,NA,false
ktmB4Q3T,3t5zxgo9eh1fn0t8t5nft3pt661qzj,3s4aw7t80fvqgqn079uv759i87yl48,ktmB4Q3T,2020-0188,2020-11-17,15:27:54,15:49:28,NA,incomplete,149,gender,3,1,right,A_F_09.jpg,A_M_08.jpg,C_F_03.jpg,right,924,true,low,NA,NA,NA,NA,NA,NA,NA,false
ktmB4Q3T,3t5zxgo9eh1fn0t8t5nft3pt661qzj,3s4aw7t80fvqgqn079uv759i87yl48,ktmB4Q3T,2020-0188,2020-11-17,15:27:54,15:49:28,NA,incomplete,150,gender,3,1,left,A_M_05.jpg,C_M_03.jpg,A_F_08.jpg,left,909,true,low,NA,NA,NA,NA,NA,NA,NA,false
ktmB4Q3T,3t5zxgo9eh1fn0t8t5nft3pt661qzj,3s4aw7t80fvqgqn079uv759i87yl48,ktmB4Q3T,2020-0188,2020-11-17,15:27:54,15:49:28,NA,incomplete,151,gender,3,1,right,A_F_12.jpg,A_M_15.jpg,C_F_01.jpg,right,1012,true,low,NA,NA,NA,NA,NA,NA,NA,false
ktmB4Q3T,3t5zxgo9eh1fn0t8t5nft3pt661qzj,3s4aw7t80fvqgqn079uv759i87yl48,ktmB4Q3T,2020-0188,2020-11-17,15:27:54,15:49:28,NA,incomplete,152,gender,3,1,right,A_M_05.jpg,A_F_04.jpg,C_M_02.jpg,right,1057,true,low,NA,NA,NA,NA,NA,NA,NA,false
ktmB4Q3T,3t5zxgo9eh1fn0t8t5nft3pt661qzj,3s4aw7t80fvqgqn079uv759i87yl48,ktmB4Q3T,2020-0188,2020-11-17,15:27:54,15:49:28,NA,incomplete,153,gender,3,1,right,C_F_09.jpg,C_M_16.jpg,A_F_12.jpg,right,955,true,low,NA,NA,NA,NA,NA,NA,NA,false
ktmB4Q3T,3t5zxgo9eh1fn0t8t5nft3pt661qzj,3s4aw7t80fvqgqn079uv759i87yl48,ktmB4Q3T,2020-0188,2020-11-17,15:27:54,15:49:28,NA,incomplete,154,gender,3,1,right,C_F_13.jpg,C_M_12.jpg,A_F_01.jpg,right,859,true,low,NA,NA,NA,NA,NA,NA,NA,false
ktmB4Q3T,3t5zxgo9eh1fn0t8t5nft3pt661qzj,3s4aw7t80fvqgqn079uv759i87yl48,ktmB4Q3T,2020-0188,2020-11-17,15:27:54,15:49:28,NA,incomplete,155,gender,3,1,right,A_F_09.jpg,A_M_10.jpg,C_F_08.jpg,right,852,true,low,NA,NA,NA,NA,NA,NA,NA,false
ktmB4Q3T,3t5zxgo9eh1fn0t8t5nft3pt661qzj,3s4aw7t80fvqgqn079uv759i87yl48,ktmB4Q3T,2020-0188,2020-11-17,15:27:54,15:49:28,NA,incomplete,156,gender,3,1,left,A_F_04.jpg,C_F_10.jpg,A_M_15.jpg,left,832,true,low,NA,NA,NA,NA,NA,NA,NA,false
ktmB4Q3T,3t5zxgo9eh1fn0t8t5nft3pt661qzj,3s4aw7t80fvqgqn079uv759i87yl48,ktmB4Q3T,2020-0188,2020-11-17,15:27:54,15:49:28,NA,incomplete,157,gender,3,1,right,C_M_09.jpg,C_F_03.jpg,A_M_15.jpg,right,1027,true,low,NA,NA,NA,NA,NA,NA,NA,false
ktmB4Q3T,3t5zxgo9eh1fn0t8t5nft3pt661qzj,3s4aw7t80fvqgqn079uv759i87yl48,ktmB4Q3T,2020-0188,2020-11-17,15:27:54,15:49:28,NA,incomplete,158,gender,3,1,right,C_M_05.jpg,C_F_02.jpg,A_M_16.jpg,right,911,true,low,NA,NA,NA,NA,NA,NA,NA,false
ktmB4Q3T,3t5zxgo9eh1fn0t8t5nft3pt661qzj,3s4aw7t80fvqgqn079uv759i87yl48,ktmB4Q3T,2020-0188,2020-11-17,15:27:54,15:49:28,NA,incomplete,159,gender,3,0,left,A_M_05.jpg,C_M_02.jpg,A_F_07.jpg,left,992,true,low,NA,NA,NA,NA,NA,NA,NA,false
ktmB4Q3T,3t5zxgo9eh1fn0t8t5nft3pt661qzj,3s4aw7t80fvqgqn079uv759i87yl48,ktmB4Q3T,2020-0188,2020-11-17,15:27:54,15:49:28,NA,incomplete,160,race,2,1,right,C_F_02.jpg,A_F_10.jpg,C_M_06.jpg,right,1309,true,low,NA,NA,NA,NA,NA,NA,NA,false
ktmB4Q3T,3t5zxgo9eh1fn0t8t5nft3pt661qzj,3s4aw7t80fvqgqn079uv759i87yl48,ktmB4Q3T,2020-0188,2020-11-17,15:27:54,15:49:28,NA,incomplete,161,race,2,0,left,C_M_07.jpg,C_F_09.jpg,A_M_10.jpg,left,1039,true,low,NA,NA,NA,NA,NA,NA,NA,false
ktmB4Q3T,3t5zxgo9eh1fn0t8t5nft3pt661qzj,3s4aw7t80fvqgqn079uv759i87yl48,ktmB4Q3T,2020-0188,2020-11-17,15:27:54,15:49:28,NA,incomplete,162,race,2,1,left,C_M_03.jpg,C_F_04.jpg,A_M_16.jpg,left,1089,true,low,NA,NA,NA,NA,NA,NA,NA,false
ktmB4Q3T,3t5zxgo9eh1fn0t8t5nft3pt661qzj,3s4aw7t80fvqgqn079uv759i87yl48,ktmB4Q3T,2020-0188,2020-11-17,15:27:54,15:49:28,NA,incomplete,163,race,2,1,left,A_F_07.jpg,A_M_01.jpg,C_F_10.jpg,left,1026,true,low,NA,NA,NA,NA,NA,NA,NA,false
ktmB4Q3T,3t5zxgo9eh1fn0t8t5nft3pt661qzj,3s4aw7t80fvqgqn079uv759i87yl48,ktmB4Q3T,2020-0188,2020-11-17,15:27:54,15:49:28,NA,incomplete,164,race,2,1,right,A_F_14.jpg,C_F_13.jpg,A_M_09.jpg,right,958,true,low,NA,NA,NA,NA,NA,NA,NA,false
ktmB4Q3T,3t5zxgo9eh1fn0t8t5nft3pt661qzj,3s4aw7t80fvqgqn079uv759i87yl48,ktmB4Q3T,2020-0188,2020-11-17,15:27:54,15:49:28,NA,incomplete,165,race,2,0,left,C_M_16.jpg,C_F_10.jpg,A_M_07.jpg,left,1188,true,low,NA,NA,NA,NA,NA,NA,NA,false
ktmB4Q3T,3t5zxgo9eh1fn0t8t5nft3pt661qzj,3s4aw7t80fvqgqn079uv759i87yl48,ktmB4Q3T,2020-0188,2020-11-17,15:27:54,15:49:28,NA,incomplete,166,race,2,1,left,A_F_07.jpg,A_M_12.jpg,C_F_08.jpg,left,1178,true,low,NA,NA,NA,NA,NA,NA,NA,false
ktmB4Q3T,3t5zxgo9eh1fn0t8t5nft3pt661qzj,3s4aw7t80fvqgqn079uv759i87yl48,ktmB4Q3T,2020-0188,2020-11-17,15:27:54,15:49:28,NA,incomplete,167,race,2,1,left,C_M_07.jpg,C_F_12.jpg,A_M_03.jpg,right,999,false,low,NA,NA,NA,NA,NA,NA,NA,false
ktmB4Q3T,3t5zxgo9eh1fn0t8t5nft3pt661qzj,3s4aw7t80fvqgqn079uv759i87yl48,ktmB4Q3T,2020-0188,2020-11-17,15:27:54,15:49:28,NA,incomplete,168,race,2,1,left,C_F_06.jpg,C_M_01.jpg,A_F_03.jpg,left,1380,true,low,NA,NA,NA,NA,NA,NA,NA,false
ktmB4Q3T,3t5zxgo9eh1fn0t8t5nft3pt661qzj,3s4aw7t80fvqgqn079uv759i87yl48,ktmB4Q3T,2020-0188,2020-11-17,15:27:54,15:49:28,NA,incomplete,169,race,2,1,right,A_F_13.jpg,C_F_09.jpg,A_M_12.jpg,right,1194,true,low,NA,NA,NA,NA,NA,NA,NA,false
ktmB4Q3T,3t5zxgo9eh1fn0t8t5nft3pt661qzj,3s4aw7t80fvqgqn079uv759i87yl48,ktmB4Q3T,2020-0188,2020-11-17,15:27:54,15:49:28,NA,incomplete,170,race,2,1,left,A_F_03.jpg,A_M_13.jpg,C_F_06.jpg,left,1384,true,low,NA,NA,NA,NA,NA,NA,NA,false
ktmB4Q3T,3t5zxgo9eh1fn0t8t5nft3pt661qzj,3s4aw7t80fvqgqn079uv759i87yl48,ktmB4Q3T,2020-0188,2020-11-17,15:27:54,15:49:28,NA,incomplete,171,race,2,1,right,C_M_05.jpg,A_M_12.jpg,C_F_02.jpg,right,1206,true,low,NA,NA,NA,NA,NA,NA,NA,false
ktmB4Q3T,3t5zxgo9eh1fn0t8t5nft3pt661qzj,3s4aw7t80fvqgqn079uv759i87yl48,ktmB4Q3T,2020-0188,2020-11-17,15:27:54,15:49:28,NA,incomplete,172,race,2,1,left,C_M_09.jpg,C_F_04.jpg,A_M_06.jpg,left,922,true,low,NA,NA,NA,NA,NA,NA,NA,false
ktmB4Q3T,3t5zxgo9eh1fn0t8t5nft3pt661qzj,3s4aw7t80fvqgqn079uv759i87yl48,ktmB4Q3T,2020-0188,2020-11-17,15:27:54,15:49:28,NA,incomplete,173,race,2,1,left,C_M_08.jpg,C_F_01.jpg,A_M_14.jpg,left,961,true,low,NA,NA,NA,NA,NA,NA,NA,false
ktmB4Q3T,3t5zxgo9eh1fn0t8t5nft3pt661qzj,3s4aw7t80fvqgqn079uv759i87yl48,ktmB4Q3T,2020-0188,2020-11-17,15:27:54,15:49:28,NA,incomplete,174,race,2,1,right,A_M_16.jpg,C_M_08.jpg,A_F_07.jpg,left,1281,false,low,NA,NA,NA,NA,NA,NA,NA,false
ktmB4Q3T,3t5zxgo9eh1fn0t8t5nft3pt661qzj,3s4aw7t80fvqgqn079uv759i87yl48,ktmB4Q3T,2020-0188,2020-11-17,15:27:54,15:49:28,NA,incomplete,175,race,2,0,right,A_M_07.jpg,C_M_08.jpg,A_F_12.jpg,right,1138,true,low,NA,NA,NA,NA,NA,NA,NA,false
ktmB4Q3T,3t5zxgo9eh1fn0t8t5nft3pt661qzj,3s4aw7t80fvqgqn079uv759i87yl48,ktmB4Q3T,2020-0188,2020-11-17,15:27:54,15:49:28,NA,incomplete,176,race,2,1,left,C_M_07.jpg,C_F_03.jpg,A_M_05.jpg,left,930,true,low,NA,NA,NA,NA,NA,NA,NA,false
ktmB4Q3T,3t5zxgo9eh1fn0t8t5nft3pt661qzj,3s4aw7t80fvqgqn079uv759i87yl48,ktmB4Q3T,2020-0188,2020-11-17,15:27:54,15:49:28,NA,incomplete,177,race,2,1,right,C_M_16.jpg,A_M_12.jpg,C_F_04.jpg,right,954,true,low,NA,NA,NA,NA,NA,NA,NA,false
ktmB4Q3T,3t5zxgo9eh1fn0t8t5nft3pt661qzj,3s4aw7t80fvqgqn079uv759i87yl48,ktmB4Q3T,2020-0188,2020-11-17,15:27:54,15:49:28,NA,incomplete,178,race,2,1,left,A_F_10.jpg,A_M_09.jpg,C_F_04.jpg,left,969,true,low,NA,NA,NA,NA,NA,NA,NA,false
ktmB4Q3T,3t5zxgo9eh1fn0t8t5nft3pt661qzj,3s4aw7t80fvqgqn079uv759i87yl48,ktmB4Q3T,2020-0188,2020-11-17,15:27:54,15:49:28,NA,incomplete,179,race,2,1,right,C_F_03.jpg,A_F_04.jpg,C_M_02.jpg,left,1598,false,low,NA,NA,NA,NA,NA,NA,NA,false
ktmB4Q3T,3t5zxgo9eh1fn0t8t5nft3pt661qzj,3s4aw7t80fvqgqn079uv759i87yl48,ktmB4Q3T,2020-0188,2020-11-17,15:27:54,15:49:28,NA,incomplete,180,gender,3,1,left,A_F_06.jpg,C_F_14.jpg,A_M_09.jpg,right,1003,false,low,NA,NA,NA,NA,NA,NA,NA,false
ktmB4Q3T,3t5zxgo9eh1fn0t8t5nft3pt661qzj,3s4aw7t80fvqgqn079uv759i87yl48,ktmB4Q3T,2020-0188,2020-11-17,15:27:54,15:49:28,NA,incomplete,181,gender,3,1,left,C_M_10.jpg,A_M_11.jpg,C_F_06.jpg,right,1191,false,low,NA,NA,NA,NA,NA,NA,NA,false
ktmB4Q3T,3t5zxgo9eh1fn0t8t5nft3pt661qzj,3s4aw7t80fvqgqn079uv759i87yl48,ktmB4Q3T,2020-0188,2020-11-17,15:27:54,15:49:28,NA,incomplete,182,gender,3,1,left,C_M_10.jpg,A_M_05.jpg,C_F_14.jpg,left,996,true,low,NA,NA,NA,NA,NA,NA,NA,false
ktmB4Q3T,3t5zxgo9eh1fn0t8t5nft3pt661qzj,3s4aw7t80fvqgqn079uv759i87yl48,ktmB4Q3T,2020-0188,2020-11-17,15:27:54,15:49:28,NA,incomplete,183,gender,3,0,right,A_F_13.jpg,A_M_16.jpg,C_F_01.jpg,right,1115,true,low,NA,NA,NA,NA,NA,NA,NA,false
ktmB4Q3T,3t5zxgo9eh1fn0t8t5nft3pt661qzj,3s4aw7t80fvqgqn079uv759i87yl48,ktmB4Q3T,2020-0188,2020-11-17,15:27:54,15:49:28,NA,incomplete,184,gender,3,1,left,C_F_01.jpg,A_F_10.jpg,C_M_12.jpg,left,955,true,low,NA,NA,NA,NA,NA,NA,NA,false
ktmB4Q3T,3t5zxgo9eh1fn0t8t5nft3pt661qzj,3s4aw7t80fvqgqn079uv759i87yl48,ktmB4Q3T,2020-0188,2020-11-17,15:27:54,15:49:28,NA,incomplete,185,gender,3,0,left,A_F_15.jpg,C_F_06.jpg,A_M_07.jpg,left,873,true,low,NA,NA,NA,NA,NA,NA,NA,false
ktmB4Q3T,3t5zxgo9eh1fn0t8t5nft3pt661qzj,3s4aw7t80fvqgqn079uv759i87yl48,ktmB4Q3T,2020-0188,2020-11-17,15:27:54,15:49:28,NA,incomplete,186,gender,3,1,left,A_F_08.jpg,C_F_11.jpg,A_M_15.jpg,left,925,true,low,NA,NA,NA,NA,NA,NA,NA,false
ktmB4Q3T,3t5zxgo9eh1fn0t8t5nft3pt661qzj,3s4aw7t80fvqgqn079uv759i87yl48,ktmB4Q3T,2020-0188,2020-11-17,15:27:54,15:49:28,NA,incomplete,187,gender,3,1,left,A_M_07.jpg,C_M_06.jpg,A_F_04.jpg,left,1693,true,low,NA,NA,NA,NA,NA,NA,NA,false
ktmB4Q3T,3t5zxgo9eh1fn0t8t5nft3pt661qzj,3s4aw7t80fvqgqn079uv759i87yl48,ktmB4Q3T,2020-0188,2020-11-17,15:27:54,15:49:28,NA,incomplete,188,gender,3,1,right,C_F_03.jpg,C_M_01.jpg,A_F_06.jpg,right,1316,true,low,NA,NA,NA,NA,NA,NA,NA,false
ktmB4Q3T,3t5zxgo9eh1fn0t8t5nft3pt661qzj,3s4aw7t80fvqgqn079uv759i87yl48,ktmB4Q3T,2020-0188,2020-11-17,15:27:54,15:49:28,NA,incomplete,189,gender,3,1,right,C_F_06.jpg,C_M_03.jpg,A_F_09.jpg,right,972,true,low,NA,NA,NA,NA,NA,NA,NA,false
ktmB4Q3T,3t5zxgo9eh1fn0t8t5nft3pt661qzj,3s4aw7t80fvqgqn079uv759i87yl48,ktmB4Q3T,2020-0188,2020-11-17,15:27:54,15:49:28,NA,incomplete,190,gender,3,1,right,C_M_11.jpg,C_F_14.jpg,A_M_16.jpg,right,994,true,low,NA,NA,NA,NA,NA,NA,NA,false
ktmB4Q3T,3t5zxgo9eh1fn0t8t5nft3pt661qzj,3s4aw7t80fvqgqn079uv759i87yl48,ktmB4Q3T,2020-0188,2020-11-17,15:27:54,15:49:28,NA,incomplete,191,gender,3,1,left,C_M_03.jpg,A_M_11.jpg,C_F_01.jpg,left,1159,true,low,NA,NA,NA,NA,NA,NA,NA,false
ktmB4Q3T,3t5zxgo9eh1fn0t8t5nft3pt661qzj,3s4aw7t80fvqgqn079uv759i87yl48,ktmB4Q3T,2020-0188,2020-11-17,15:27:54,15:49:28,NA,incomplete,192,gender,3,1,left,A_F_03.jpg,C_F_07.jpg,A_M_08.jpg,left,1062,true,low,NA,NA,NA,NA,NA,NA,NA,false
ktmB4Q3T,3t5zxgo9eh1fn0t8t5nft3pt661qzj,3s4aw7t80fvqgqn079uv759i87yl48,ktmB4Q3T,2020-0188,2020-11-17,15:27:54,15:49:28,NA,incomplete,193,gender,3,1,right,A_M_11.jpg,A_F_06.jpg,C_M_03.jpg,right,976,true,low,NA,NA,NA,NA,NA,NA,NA,false
ktmB4Q3T,3t5zxgo9eh1fn0t8t5nft3pt661qzj,3s4aw7t80fvqgqn079uv759i87yl48,ktmB4Q3T,2020-0188,2020-11-17,15:27:54,15:49:28,NA,incomplete,194,gender,3,1,left,C_M_01.jpg,A_M_08.jpg,C_F_16.jpg,left,1006,true,low,NA,NA,NA,NA,NA,NA,NA,false
ktmB4Q3T,3t5zxgo9eh1fn0t8t5nft3pt661qzj,3s4aw7t80fvqgqn079uv759i87yl48,ktmB4Q3T,2020-0188,2020-11-17,15:27:54,15:49:28,NA,incomplete,195,gender,3,1,left,A_F_04.jpg,C_F_08.jpg,A_M_12.jpg,left,916,true,low,NA,NA,NA,NA,NA,NA,NA,false
ktmB4Q3T,3t5zxgo9eh1fn0t8t5nft3pt661qzj,3s4aw7t80fvqgqn079uv759i87yl48,ktmB4Q3T,2020-0188,2020-11-17,15:27:54,15:49:28,NA,incomplete,196,gender,3,1,right,C_M_06.jpg,C_F_11.jpg,A_M_14.jpg,right,1163,true,low,NA,NA,NA,NA,NA,NA,NA,false
ktmB4Q3T,3t5zxgo9eh1fn0t8t5nft3pt661qzj,3s4aw7t80fvqgqn079uv759i87yl48,ktmB4Q3T,2020-0188,2020-11-17,15:27:54,15:49:28,NA,incomplete,197,gender,3,1,right,A_M_12.jpg,A_F_07.jpg,C_M_15.jpg,right,1364,true,low,NA,NA,NA,NA,NA,NA,NA,false
ktmB4Q3T,3t5zxgo9eh1fn0t8t5nft3pt661qzj,3s4aw7t80fvqgqn079uv759i87yl48,ktmB4Q3T,2020-0188,2020-11-17,15:27:54,15:49:28,NA,incomplete,198,gender,3,1,left,A_F_14.jpg,C_F_04.jpg,A_M_13.jpg,left,954,true,low,NA,NA,NA,NA,NA,NA,NA,false
ktmB4Q3T,3t5zxgo9eh1fn0t8t5nft3pt661qzj,3s4aw7t80fvqgqn079uv759i87yl48,ktmB4Q3T,2020-0188,2020-11-17,15:27:54,15:49:28,NA,incomplete,199,gender,3,0,left,C_M_15.jpg,A_M_09.jpg,C_F_13.jpg,left,1056,true,low,NA,NA,NA,NA,NA,NA,NA,false
ktmB4Q3T,3t5zxgo9eh1fn0t8t5nft3pt661qzj,3s4aw7t80fvqgqn079uv759i87yl48,ktmB4Q3T,2020-0188,2020-11-17,15:27:54,15:49:28,NA,incomplete,200,race,2,1,left,C_F_15.jpg,C_M_16.jpg,A_F_05.jpg,right,1121,false,low,NA,NA,NA,NA,NA,NA,NA,false
ktmB4Q3T,3t5zxgo9eh1fn0t8t5nft3pt661qzj,3s4aw7t80fvqgqn079uv759i87yl48,ktmB4Q3T,2020-0188,2020-11-17,15:27:54,15:49:28,NA,incomplete,201,race,2,1,left,C_F_09.jpg,C_M_10.jpg,A_F_15.jpg,left,945,true,low,NA,NA,NA,NA,NA,NA,NA,false
ktmB4Q3T,3t5zxgo9eh1fn0t8t5nft3pt661qzj,3s4aw7t80fvqgqn079uv759i87yl48,ktmB4Q3T,2020-0188,2020-11-17,15:27:54,15:49:28,NA,incomplete,202,race,2,1,left,A_F_14.jpg,A_M_04.jpg,C_F_09.jpg,left,857,true,low,NA,NA,NA,NA,NA,NA,NA,false
ktmB4Q3T,3t5zxgo9eh1fn0t8t5nft3pt661qzj,3s4aw7t80fvqgqn079uv759i87yl48,ktmB4Q3T,2020-0188,2020-11-17,15:27:54,15:49:28,NA,incomplete,203,race,2,0,right,A_M_04.jpg,C_M_01.jpg,A_F_16.jpg,right,868,true,low,NA,NA,NA,NA,NA,NA,NA,false
ktmB4Q3T,3t5zxgo9eh1fn0t8t5nft3pt661qzj,3s4aw7t80fvqgqn079uv759i87yl48,ktmB4Q3T,2020-0188,2020-11-17,15:27:54,15:49:28,NA,incomplete,204,race,2,1,left,A_F_13.jpg,A_M_01.jpg,C_F_06.jpg,left,925,true,low,NA,NA,NA,NA,NA,NA,NA,false
ktmB4Q3T,3t5zxgo9eh1fn0t8t5nft3pt661qzj,3s4aw7t80fvqgqn079uv759i87yl48,ktmB4Q3T,2020-0188,2020-11-17,15:27:54,15:49:28,NA,incomplete,205,race,2,0,right,A_M_05.jpg,C_M_09.jpg,A_F_01.jpg,right,980,true,low,NA,NA,NA,NA,NA,NA,NA,false
ktmB4Q3T,3t5zxgo9eh1fn0t8t5nft3pt661qzj,3s4aw7t80fvqgqn079uv759i87yl48,ktmB4Q3T,2020-0188,2020-11-17,15:27:54,15:49:28,NA,incomplete,206,race,2,1,right,A_M_15.jpg,C_M_12.jpg,A_F_14.jpg,right,923,true,low,NA,NA,NA,NA,NA,NA,NA,false
ktmB4Q3T,3t5zxgo9eh1fn0t8t5nft3pt661qzj,3s4aw7t80fvqgqn079uv759i87yl48,ktmB4Q3T,2020-0188,2020-11-17,15:27:54,15:49:28,NA,incomplete,207,race,2,0,left,C_M_11.jpg,C_F_10.jpg,A_M_07.jpg,left,1236,true,low,NA,NA,NA,NA,NA,NA,NA,false
ktmB4Q3T,3t5zxgo9eh1fn0t8t5nft3pt661qzj,3s4aw7t80fvqgqn079uv759i87yl48,ktmB4Q3T,2020-0188,2020-11-17,15:27:54,15:49:28,NA,incomplete,208,race,2,1,left,A_F_03.jpg,A_M_05.jpg,C_F_11.jpg,left,1063,true,low,NA,NA,NA,NA,NA,NA,NA,false
ktmB4Q3T,3t5zxgo9eh1fn0t8t5nft3pt661qzj,3s4aw7t80fvqgqn079uv759i87yl48,ktmB4Q3T,2020-0188,2020-11-17,15:27:54,15:49:28,NA,incomplete,209,race,2,1,left,C_M_10.jpg,C_F_07.jpg,A_M_08.jpg,left,1089,true,low,NA,NA,NA,NA,NA,NA,NA,false
ktmB4Q3T,3t5zxgo9eh1fn0t8t5nft3pt661qzj,3s4aw7t80fvqgqn079uv759i87yl48,ktmB4Q3T,2020-0188,2020-11-17,15:27:54,15:49:28,NA,incomplete,210,race,2,1,right,C_F_09.jpg,A_F_13.jpg,C_M_02.jpg,right,1161,true,low,NA,NA,NA,NA,NA,NA,NA,false
ktmB4Q3T,3t5zxgo9eh1fn0t8t5nft3pt661qzj,3s4aw7t80fvqgqn079uv759i87yl48,ktmB4Q3T,2020-0188,2020-11-17,15:27:54,15:49:28,NA,incomplete,211,race,2,0,left,C_M_04.jpg,C_F_14.jpg,A_M_09.jpg,left,920,true,low,NA,NA,NA,NA,NA,NA,NA,false
ktmB4Q3T,3t5zxgo9eh1fn0t8t5nft3pt661qzj,3s4aw7t80fvqgqn079uv759i87yl48,ktmB4Q3T,2020-0188,2020-11-17,15:27:54,15:49:28,NA,incomplete,212,race,2,1,left,A_F_10.jpg,A_M_01.jpg,C_F_03.jpg,left,1169,true,low,NA,NA,NA,NA,NA,NA,NA,false
ktmB4Q3T,3t5zxgo9eh1fn0t8t5nft3pt661qzj,3s4aw7t80fvqgqn079uv759i87yl48,ktmB4Q3T,2020-0188,2020-11-17,15:27:54,15:49:28,NA,incomplete,213,race,2,1,right,A_M_01.jpg,C_M_10.jpg,A_F_12.jpg,right,1248,true,low,NA,NA,NA,NA,NA,NA,NA,false
ktmB4Q3T,3t5zxgo9eh1fn0t8t5nft3pt661qzj,3s4aw7t80fvqgqn079uv759i87yl48,ktmB4Q3T,2020-0188,2020-11-17,15:27:54,15:49:28,NA,incomplete,214,race,2,1,left,C_F_05.jpg,C_M_01.jpg,A_F_03.jpg,left,1147,true,low,NA,NA,NA,NA,NA,NA,NA,false
ktmB4Q3T,3t5zxgo9eh1fn0t8t5nft3pt661qzj,3s4aw7t80fvqgqn079uv759i87yl48,ktmB4Q3T,2020-0188,2020-11-17,15:27:54,15:49:28,NA,incomplete,215,race,2,1,left,C_M_09.jpg,C_F_16.jpg,A_M_12.jpg,left,874,true,low,NA,NA,NA,NA,NA,NA,NA,false
ktmB4Q3T,3t5zxgo9eh1fn0t8t5nft3pt661qzj,3s4aw7t80fvqgqn079uv759i87yl48,ktmB4Q3T,2020-0188,2020-11-17,15:27:54,15:49:28,NA,incomplete,216,race,2,1,right,A_F_02.jpg,C_F_03.jpg,A_M_04.jpg,right,914,true,low,NA,NA,NA,NA,NA,NA,NA,false
ktmB4Q3T,3t5zxgo9eh1fn0t8t5nft3pt661qzj,3s4aw7t80fvqgqn079uv759i87yl48,ktmB4Q3T,2020-0188,2020-11-17,15:27:54,15:49:28,NA,incomplete,217,race,2,1,right,A_F_14.jpg,C_F_16.jpg,A_M_09.jpg,right,1101,true,low,NA,NA,NA,NA,NA,NA,NA,false
ktmB4Q3T,3t5zxgo9eh1fn0t8t5nft3pt661qzj,3s4aw7t80fvqgqn079uv759i87yl48,ktmB4Q3T,2020-0188,2020-11-17,15:27:54,15:49:28,NA,incomplete,218,race,2,0,left,C_M_07.jpg,C_F_11.jpg,A_M_16.jpg,right,1309,false,low,NA,NA,NA,NA,NA,NA,NA,false
ktmB4Q3T,3t5zxgo9eh1fn0t8t5nft3pt661qzj,3s4aw7t80fvqgqn079uv759i87yl48,ktmB4Q3T,2020-0188,2020-11-17,15:27:54,15:49:28,NA,incomplete,219,race,2,1,right,C_F_02.jpg,A_F_10.jpg,C_M_14.jpg,left,821,false,low,NA,NA,NA,NA,NA,NA,NA,false
ktmB4Q3T,3t5zxgo9eh1fn0t8t5nft3pt661qzj,3s4aw7t80fvqgqn079uv759i87yl48,ktmB4Q3T,2020-0188,2020-11-17,15:27:54,15:49:28,NA,incomplete,220,gender,3,1,left,C_M_04.jpg,A_M_06.jpg,C_F_10.jpg,left,898,true,low,NA,NA,NA,NA,NA,NA,NA,false
ktmB4Q3T,3t5zxgo9eh1fn0t8t5nft3pt661qzj,3s4aw7t80fvqgqn079uv759i87yl48,ktmB4Q3T,2020-0188,2020-11-17,15:27:54,15:49:28,NA,incomplete,221,gender,3,0,right,A_M_11.jpg,A_F_10.jpg,C_M_15.jpg,right,1035,true,low,NA,NA,NA,NA,NA,NA,NA,false
ktmB4Q3T,3t5zxgo9eh1fn0t8t5nft3pt661qzj,3s4aw7t80fvqgqn079uv759i87yl48,ktmB4Q3T,2020-0188,2020-11-17,15:27:54,15:49:28,NA,incomplete,222,gender,3,1,right,C_F_05.jpg,C_M_16.jpg,A_F_09.jpg,right,958,true,low,NA,NA,NA,NA,NA,NA,NA,false
ktmB4Q3T,3t5zxgo9eh1fn0t8t5nft3pt661qzj,3s4aw7t80fvqgqn079uv759i87yl48,ktmB4Q3T,2020-0188,2020-11-17,15:27:54,15:49:28,NA,incomplete,223,gender,3,0,left,A_M_01.jpg,C_M_03.jpg,A_F_07.jpg,left,1108,true,low,NA,NA,NA,NA,NA,NA,NA,false
ktmB4Q3T,3t5zxgo9eh1fn0t8t5nft3pt661qzj,3s4aw7t80fvqgqn079uv759i87yl48,ktmB4Q3T,2020-0188,2020-11-17,15:27:54,15:49:28,NA,incomplete,224,gender,3,1,left,A_F_02.jpg,C_F_10.jpg,A_M_04.jpg,left,861,true,low,NA,NA,NA,NA,NA,NA,NA,false
ktmB4Q3T,3t5zxgo9eh1fn0t8t5nft3pt661qzj,3s4aw7t80fvqgqn079uv759i87yl48,ktmB4Q3T,2020-0188,2020-11-17,15:27:54,15:49:28,NA,incomplete,225,gender,3,1,right,C_F_03.jpg,C_M_12.jpg,A_F_15.jpg,right,767,true,low,NA,NA,NA,NA,NA,NA,NA,false
ktmB4Q3T,3t5zxgo9eh1fn0t8t5nft3pt661qzj,3s4aw7t80fvqgqn079uv759i87yl48,ktmB4Q3T,2020-0188,2020-11-17,15:27:54,15:49:28,NA,incomplete,226,gender,3,1,left,A_M_10.jpg,C_M_07.jpg,A_F_08.jpg,left,853,true,low,NA,NA,NA,NA,NA,NA,NA,false
ktmB4Q3T,3t5zxgo9eh1fn0t8t5nft3pt661qzj,3s4aw7t80fvqgqn079uv759i87yl48,ktmB4Q3T,2020-0188,2020-11-17,15:27:54,15:49:28,NA,incomplete,227,gender,3,1,left,A_M_10.jpg,C_M_14.jpg,A_F_16.jpg,left,823,true,low,NA,NA,NA,NA,NA,NA,NA,false
ktmB4Q3T,3t5zxgo9eh1fn0t8t5nft3pt661qzj,3s4aw7t80fvqgqn079uv759i87yl48,ktmB4Q3T,2020-0188,2020-11-17,15:27:54,15:49:28,NA,incomplete,228,gender,3,1,right,A_M_15.jpg,A_F_10.jpg,C_M_16.jpg,right,1084,true,low,NA,NA,NA,NA,NA,NA,NA,false
ktmB4Q3T,3t5zxgo9eh1fn0t8t5nft3pt661qzj,3s4aw7t80fvqgqn079uv759i87yl48,ktmB4Q3T,2020-0188,2020-11-17,15:27:54,15:49:28,NA,incomplete,229,gender,3,1,left,C_M_14.jpg,A_M_08.jpg,C_F_13.jpg,left,845,true,low,NA,NA,NA,NA,NA,NA,NA,false
ktmB4Q3T,3t5zxgo9eh1fn0t8t5nft3pt661qzj,3s4aw7t80fvqgqn079uv759i87yl48,ktmB4Q3T,2020-0188,2020-11-17,15:27:54,15:49:28,NA,incomplete,230,gender,3,1,left,C_F_07.jpg,A_F_16.jpg,C_M_13.jpg,left,913,true,low,NA,NA,NA,NA,NA,NA,NA,false
ktmB4Q3T,3t5zxgo9eh1fn0t8t5nft3pt661qzj,3s4aw7t80fvqgqn079uv759i87yl48,ktmB4Q3T,2020-0188,2020-11-17,15:27:54,15:49:28,NA,incomplete,231,gender,3,1,right,A_F_04.jpg,A_M_03.jpg,C_F_09.jpg,right,936,true,low,NA,NA,NA,NA,NA,NA,NA,false
ktmB4Q3T,3t5zxgo9eh1fn0t8t5nft3pt661qzj,3s4aw7t80fvqgqn079uv759i87yl48,ktmB4Q3T,2020-0188,2020-11-17,15:27:54,15:49:28,NA,incomplete,232,gender,3,1,right,C_F_06.jpg,C_M_12.jpg,A_F_03.jpg,right,784,true,low,NA,NA,NA,NA,NA,NA,NA,false
ktmB4Q3T,3t5zxgo9eh1fn0t8t5nft3pt661qzj,3s4aw7t80fvqgqn079uv759i87yl48,ktmB4Q3T,2020-0188,2020-11-17,15:27:54,15:49:28,NA,incomplete,233,gender,3,0,right,A_M_09.jpg,A_F_03.jpg,C_M_13.jpg,right,1310,true,low,NA,NA,NA,NA,NA,NA,NA,false
ktmB4Q3T,3t5zxgo9eh1fn0t8t5nft3pt661qzj,3s4aw7t80fvqgqn079uv759i87yl48,ktmB4Q3T,2020-0188,2020-11-17,15:27:54,15:49:28,NA,incomplete,234,gender,3,1,right,C_M_09.jpg,C_F_05.jpg,A_M_08.jpg,right,950,true,low,NA,NA,NA,NA,NA,NA,NA,false
ktmB4Q3T,3t5zxgo9eh1fn0t8t5nft3pt661qzj,3s4aw7t80fvqgqn079uv759i87yl48,ktmB4Q3T,2020-0188,2020-11-17,15:27:54,15:49:28,NA,incomplete,235,gender,3,1,right,C_M_04.jpg,C_F_02.jpg,A_M_07.jpg,right,852,true,low,NA,NA,NA,NA,NA,NA,NA,false
ktmB4Q3T,3t5zxgo9eh1fn0t8t5nft3pt661qzj,3s4aw7t80fvqgqn079uv759i87yl48,ktmB4Q3T,2020-0188,2020-11-17,15:27:54,15:49:28,NA,incomplete,236,gender,3,1,left,C_M_10.jpg,A_M_03.jpg,C_F_07.jpg,left,823,true,low,NA,NA,NA,NA,NA,NA,NA,false
ktmB4Q3T,3t5zxgo9eh1fn0t8t5nft3pt661qzj,3s4aw7t80fvqgqn079uv759i87yl48,ktmB4Q3T,2020-0188,2020-11-17,15:27:54,15:49:28,NA,incomplete,237,gender,3,1,left,C_M_05.jpg,A_M_04.jpg,C_F_12.jpg,left,1145,true,low,NA,NA,NA,NA,NA,NA,NA,false
ktmB4Q3T,3t5zxgo9eh1fn0t8t5nft3pt661qzj,3s4aw7t80fvqgqn079uv759i87yl48,ktmB4Q3T,2020-0188,2020-11-17,15:27:54,15:49:28,NA,incomplete,238,gender,3,0,left,A_M_08.jpg,C_M_11.jpg,A_F_13.jpg,left,1370,true,low,NA,NA,NA,NA,NA,NA,NA,false
ktmB4Q3T,3t5zxgo9eh1fn0t8t5nft3pt661qzj,3s4aw7t80fvqgqn079uv759i87yl48,ktmB4Q3T,2020-0188,2020-11-17,15:27:54,15:49:28,NA,incomplete,239,gender,3,1,right,C_F_03.jpg,C_M_11.jpg,A_F_15.jpg,right,888,true,low,NA,NA,NA,NA,NA,NA,NA,false
ktmB4Q3T,3t5zxgo9eh1fn0t8t5nft3pt661qzj,3s4aw7t80fvqgqn079uv759i87yl48,ktmB4Q3T,2020-0188,2020-11-17,15:27:54,15:49:28,NA,NA,instruction example,filling,NA,NA,NA,Blue_Star_Grid_2.jpg,Green_Triangle_Grid_1.jpg,Red_Circle_Chess_2.jpg,NA,NA,NA,NA,NA,NA,NA,NA,NA,NA,NA,undefined
ktmB4Q3T,3t5zxgo9eh1fn0t8t5nft3pt661qzj,3s4aw7t80fvqgqn079uv759i87yl48,ktmB4Q3T,2020-0188,2020-11-17,15:27:54,15:49:28,NA,NA,instruction example,filling,NA,NA,NA,Red_Triangle_Dots_3.jpg,Purple_Plus_Grid_3.jpg,Blue_Circle_Dots_4.jpg,NA,NA,NA,NA,NA,NA,NA,NA,NA,NA,NA,undefined
ktmB4Q3T,3t5zxgo9eh1fn0t8t5nft3pt661qzj,3s4aw7t80fvqgqn079uv759i87yl48,ktmB4Q3T,2020-0188,2020-11-17,15:27:54,15:49:28,NA,NA,instruction example,filling,NA,NA,NA,A_F_04.jpg,A_M_03.jpg,C_F_12.jpg,NA,NA,NA,NA,NA,NA,NA,NA,NA,NA,NA,undefined
ktmB4Q3T,3t5zxgo9eh1fn0t8t5nft3pt661qzj,3s4aw7t80fvqgqn079uv759i87yl48,ktmB4Q3T,2020-0188,2020-11-17,15:27:54,15:49:28,NA,NA,instruction example,filling,NA,NA,NA,A_M_05.jpg,C_M_06.jpg,A_F_08.jpg,NA,NA,NA,NA,NA,NA,NA,NA,NA,NA,NA,undefined
ktmB4Q3T,3t5zxgo9eh1fn0t8t5nft3pt661qzj,3s4aw7t80fvqgqn079uv759i87yl48,ktmB4Q3T,2020-0188,2020-11-17,15:27:54,15:49:28,1267122,1296023,NA,NA,NA,NA,NA,NA,NA,NA,NA,NA,NA,NA,28,White/Caucasian,Female,White,no,yes,no,undefined
