workerId,hitId,assignmentId,subject,studyid,exp_date,exp_start,exp_end,time_start,time_end,trial,type,sequence,reward_validity,answer,image_top,image_left,image_right,response,response_time,response_acc,volatility,age,race,gender,ethnicity,color,vision,neuro,practice
ABOSeNIv,3ha5odm5ld5arw3bkcnh3xryudvvsa,3s96kq6i9qhrzzey9txfw0d4jktdt8,ABOSeNIv,2020-0188,2020-06-04,20:33:01,21:00:08,NA,incomplete,0,number,0,0,right,Blue_Triangle_Stripes_1.jpg,Red_Triangle_Grid_4.jpg,Purple_Star_Dots_1.jpg,right,1919.9249999946915,true,NA,NA,NA,NA,NA,NA,NA,NA,true
ABOSeNIv,3ha5odm5ld5arw3bkcnh3xryudvvsa,3s96kq6i9qhrzzey9txfw0d4jktdt8,ABOSeNIv,2020-0188,2020-06-04,20:33:01,21:00:08,NA,incomplete,1,number,0,1,left,Purple_Circle_Dots_1.jpg,Red_Plus_Stripes_1.jpg,Green_Circle_Grid_2.jpg,left,1430.8149999997113,true,NA,NA,NA,NA,NA,NA,NA,NA,true
ABOSeNIv,3ha5odm5ld5arw3bkcnh3xryudvvsa,3s96kq6i9qhrzzey9txfw0d4jktdt8,ABOSeNIv,2020-0188,2020-06-04,20:33:01,21:00:08,NA,incomplete,2,number,0,1,left,Blue_Circle_Stripes_3.jpg,Purple_Plus_Grid_3.jpg,Red_Circle_Chess_2.jpg,left,1122.5799999956507,true,NA,NA,NA,NA,NA,NA,NA,NA,true
ABOSeNIv,3ha5odm5ld5arw3bkcnh3xryudvvsa,3s96kq6i9qhrzzey9txfw0d4jktdt8,ABOSeNIv,2020-0188,2020-06-04,20:33:01,21:00:08,NA,incomplete,3,number,0,1,right,Red_Star_Dots_4.jpg,Purple_Star_Stripes_2.jpg,Blue_Triangle_Grid_4.jpg,right,794.6050000027753,true,NA,NA,NA,NA,NA,NA,NA,NA,true
ABOSeNIv,3ha5odm5ld5arw3bkcnh3xryudvvsa,3s96kq6i9qhrzzey9txfw0d4jktdt8,ABOSeNIv,2020-0188,2020-06-04,20:33:01,21:00:08,NA,incomplete,4,number,0,1,right,Purple_Plus_Grid_2.jpg,Green_Plus_Chess_3.jpg,Red_Circle_Stripes_2.jpg,right,775.0899999955436,true,NA,NA,NA,NA,NA,NA,NA,NA,true
ABOSeNIv,3ha5odm5ld5arw3bkcnh3xryudvvsa,3s96kq6i9qhrzzey9txfw0d4jktdt8,ABOSeNIv,2020-0188,2020-06-04,20:33:01,21:00:08,NA,incomplete,5,number,0,1,right,Green_Triangle_Stripes_4.jpg,Purple_Triangle_Chess_3.jpg,Blue_Plus_Grid_4.jpg,right,1044.4900000002235,true,NA,NA,NA,NA,NA,NA,NA,NA,true
ABOSeNIv,3ha5odm5ld5arw3bkcnh3xryudvvsa,3s96kq6i9qhrzzey9txfw0d4jktdt8,ABOSeNIv,2020-0188,2020-06-04,20:33:01,21:00:08,NA,incomplete,6,number,0,1,left,Green_Triangle_Chess_4.jpg,Red_Circle_Grid_4.jpg,Purple_Triangle_Stripes_1.jpg,left,919.2699999985052,true,NA,NA,NA,NA,NA,NA,NA,NA,true
ABOSeNIv,3ha5odm5ld5arw3bkcnh3xryudvvsa,3s96kq6i9qhrzzey9txfw0d4jktdt8,ABOSeNIv,2020-0188,2020-06-04,20:33:01,21:00:08,NA,incomplete,7,number,0,1,right,Green_Circle_Chess_3.jpg,Purple_Circle_Dots_4.jpg,Blue_Plus_Grid_3.jpg,left,1286.8500000040513,false,NA,NA,NA,NA,NA,NA,NA,NA,true
ABOSeNIv,3ha5odm5ld5arw3bkcnh3xryudvvsa,3s96kq6i9qhrzzey9txfw0d4jktdt8,ABOSeNIv,2020-0188,2020-06-04,20:33:01,21:00:08,NA,incomplete,8,number,0,1,left,Blue_Plus_Chess_2.jpg,Purple_Triangle_Dots_2.jpg,Red_Plus_Stripes_3.jpg,left,1151.5749999962281,true,NA,NA,NA,NA,NA,NA,NA,NA,true
ABOSeNIv,3ha5odm5ld5arw3bkcnh3xryudvvsa,3s96kq6i9qhrzzey9txfw0d4jktdt8,ABOSeNIv,2020-0188,2020-06-04,20:33:01,21:00:08,NA,incomplete,9,number,0,1,left,Green_Circle_Chess_1.jpg,Red_Plus_Grid_1.jpg,Blue_Circle_Stripes_2.jpg,left,965.6850000028498,true,NA,NA,NA,NA,NA,NA,NA,NA,true
ABOSeNIv,3ha5odm5ld5arw3bkcnh3xryudvvsa,3s96kq6i9qhrzzey9txfw0d4jktdt8,ABOSeNIv,2020-0188,2020-06-04,20:33:01,21:00:08,NA,incomplete,10,number,0,1,left,Red_Star_Grid_4.jpg,Purple_Circle_Stripes_4.jpg,Blue_Star_Dots_2.jpg,left,1251.4850000006845,true,NA,NA,NA,NA,NA,NA,NA,NA,true
ABOSeNIv,3ha5odm5ld5arw3bkcnh3xryudvvsa,3s96kq6i9qhrzzey9txfw0d4jktdt8,ABOSeNIv,2020-0188,2020-06-04,20:33:01,21:00:08,NA,incomplete,11,number,0,1,left,Blue_Plus_Chess_2.jpg,Red_Circle_Dots_2.jpg,Purple_Plus_Grid_1.jpg,left,925.7950000029523,true,NA,NA,NA,NA,NA,NA,NA,NA,true
ABOSeNIv,3ha5odm5ld5arw3bkcnh3xryudvvsa,3s96kq6i9qhrzzey9txfw0d4jktdt8,ABOSeNIv,2020-0188,2020-06-04,20:33:01,21:00:08,NA,incomplete,12,number,0,1,left,Red_Star_Stripes_3.jpg,Green_Plus_Grid_3.jpg,Blue_Star_Chess_4.jpg,left,1077.8199999986682,true,NA,NA,NA,NA,NA,NA,NA,NA,true
ABOSeNIv,3ha5odm5ld5arw3bkcnh3xryudvvsa,3s96kq6i9qhrzzey9txfw0d4jktdt8,ABOSeNIv,2020-0188,2020-06-04,20:33:01,21:00:08,NA,incomplete,13,number,0,1,right,Blue_Star_Stripes_4.jpg,Red_Star_Grid_3.jpg,Purple_Triangle_Chess_4.jpg,right,1078.9950000034878,true,NA,NA,NA,NA,NA,NA,NA,NA,true
ABOSeNIv,3ha5odm5ld5arw3bkcnh3xryudvvsa,3s96kq6i9qhrzzey9txfw0d4jktdt8,ABOSeNIv,2020-0188,2020-06-04,20:33:01,21:00:08,NA,incomplete,14,number,0,1,right,Red_Star_Stripes_1.jpg,Blue_Star_Dots_3.jpg,Purple_Plus_Grid_1.jpg,right,1048.2649999975692,true,NA,NA,NA,NA,NA,NA,NA,NA,true
ABOSeNIv,3ha5odm5ld5arw3bkcnh3xryudvvsa,3s96kq6i9qhrzzey9txfw0d4jktdt8,ABOSeNIv,2020-0188,2020-06-04,20:33:01,21:00:08,NA,incomplete,15,number,0,0,right,Red_Circle_Chess_4.jpg,Green_Circle_Stripes_1.jpg,Blue_Triangle_Grid_4.jpg,right,947.0949999958975,true,NA,NA,NA,NA,NA,NA,NA,NA,true
ABOSeNIv,3ha5odm5ld5arw3bkcnh3xryudvvsa,3s96kq6i9qhrzzey9txfw0d4jktdt8,ABOSeNIv,2020-0188,2020-06-04,20:33:01,21:00:08,NA,incomplete,16,number,0,1,left,Green_Star_Dots_3.jpg,Purple_Circle_Stripes_3.jpg,Red_Star_Grid_2.jpg,left,1178.3700000013923,true,NA,NA,NA,NA,NA,NA,NA,NA,true
ABOSeNIv,3ha5odm5ld5arw3bkcnh3xryudvvsa,3s96kq6i9qhrzzey9txfw0d4jktdt8,ABOSeNIv,2020-0188,2020-06-04,20:33:01,21:00:08,NA,incomplete,17,number,0,1,right,Red_Circle_Dots_1.jpg,Green_Circle_Grid_4.jpg,Purple_Plus_Chess_1.jpg,right,1039.5999999964843,true,NA,NA,NA,NA,NA,NA,NA,NA,true
ABOSeNIv,3ha5odm5ld5arw3bkcnh3xryudvvsa,3s96kq6i9qhrzzey9txfw0d4jktdt8,ABOSeNIv,2020-0188,2020-06-04,20:33:01,21:00:08,NA,incomplete,18,number,0,0,left,Purple_Plus_Stripes_2.jpg,Blue_Circle_Dots_2.jpg,Red_Plus_Grid_1.jpg,left,970.2399999951012,true,NA,NA,NA,NA,NA,NA,NA,NA,true
ABOSeNIv,3ha5odm5ld5arw3bkcnh3xryudvvsa,3s96kq6i9qhrzzey9txfw0d4jktdt8,ABOSeNIv,2020-0188,2020-06-04,20:33:01,21:00:08,NA,incomplete,19,number,0,1,left,Blue_Star_Stripes_3.jpg,Purple_Circle_Chess_3.jpg,Red_Star_Grid_1.jpg,left,983.8499999968335,true,NA,NA,NA,NA,NA,NA,NA,NA,true
ABOSeNIv,3ha5odm5ld5arw3bkcnh3xryudvvsa,3s96kq6i9qhrzzey9txfw0d4jktdt8,ABOSeNIv,2020-0188,2020-06-04,20:33:01,21:00:08,NA,incomplete,20,shape,1,0,right,Red_Triangle_Stripes_1.jpg,Green_Plus_Chess_1.jpg,Purple_Triangle_Grid_2.jpg,left,1028.4949999985984,false,NA,NA,NA,NA,NA,NA,NA,NA,true
ABOSeNIv,3ha5odm5ld5arw3bkcnh3xryudvvsa,3s96kq6i9qhrzzey9txfw0d4jktdt8,ABOSeNIv,2020-0188,2020-06-04,20:33:01,21:00:08,NA,incomplete,21,shape,1,1,right,Purple_Circle_Chess_2.jpg,Blue_Star_Grid_2.jpg,Green_Circle_Stripes_1.jpg,right,1472.4999999961583,true,NA,NA,NA,NA,NA,NA,NA,NA,true
ABOSeNIv,3ha5odm5ld5arw3bkcnh3xryudvvsa,3s96kq6i9qhrzzey9txfw0d4jktdt8,ABOSeNIv,2020-0188,2020-06-04,20:33:01,21:00:08,NA,incomplete,22,shape,1,1,left,Red_Plus_Dots_3.jpg,Blue_Plus_Chess_4.jpg,Green_Star_Stripes_3.jpg,left,913.3000000000466,true,NA,NA,NA,NA,NA,NA,NA,NA,true
ABOSeNIv,3ha5odm5ld5arw3bkcnh3xryudvvsa,3s96kq6i9qhrzzey9txfw0d4jktdt8,ABOSeNIv,2020-0188,2020-06-04,20:33:01,21:00:08,NA,incomplete,23,shape,1,1,left,Purple_Plus_Dots_1.jpg,Green_Plus_Chess_2.jpg,Blue_Triangle_Grid_1.jpg,left,1001.1950000043726,true,NA,NA,NA,NA,NA,NA,NA,NA,true
ABOSeNIv,3ha5odm5ld5arw3bkcnh3xryudvvsa,3s96kq6i9qhrzzey9txfw0d4jktdt8,ABOSeNIv,2020-0188,2020-06-04,20:33:01,21:00:08,NA,incomplete,24,shape,1,1,right,Blue_Star_Grid_2.jpg,Purple_Plus_Chess_2.jpg,Red_Star_Dots_1.jpg,right,1205.6900000025053,true,NA,NA,NA,NA,NA,NA,NA,NA,true
ABOSeNIv,3ha5odm5ld5arw3bkcnh3xryudvvsa,3s96kq6i9qhrzzey9txfw0d4jktdt8,ABOSeNIv,2020-0188,2020-06-04,20:33:01,21:00:08,NA,incomplete,25,shape,1,1,left,Blue_Circle_Stripes_4.jpg,Red_Circle_Grid_2.jpg,Green_Triangle_Dots_4.jpg,left,1026.2499999953434,true,NA,NA,NA,NA,NA,NA,NA,NA,true
ABOSeNIv,3ha5odm5ld5arw3bkcnh3xryudvvsa,3s96kq6i9qhrzzey9txfw0d4jktdt8,ABOSeNIv,2020-0188,2020-06-04,20:33:01,21:00:08,NA,incomplete,26,shape,1,1,left,Blue_Triangle_Stripes_2.jpg,Green_Triangle_Grid_1.jpg,Red_Plus_Dots_2.jpg,left,933.6849999963306,true,NA,NA,NA,NA,NA,NA,NA,NA,true
ABOSeNIv,3ha5odm5ld5arw3bkcnh3xryudvvsa,3s96kq6i9qhrzzey9txfw0d4jktdt8,ABOSeNIv,2020-0188,2020-06-04,20:33:01,21:00:08,NA,incomplete,27,shape,1,0,right,Blue_Star_Grid_1.jpg,Purple_Triangle_Dots_1.jpg,Green_Star_Chess_4.jpg,right,988.6249999981374,true,NA,NA,NA,NA,NA,NA,NA,NA,true
ABOSeNIv,3ha5odm5ld5arw3bkcnh3xryudvvsa,3s96kq6i9qhrzzey9txfw0d4jktdt8,ABOSeNIv,2020-0188,2020-06-04,20:33:01,21:00:08,NA,incomplete,28,shape,1,1,right,Purple_Triangle_Grid_1.jpg,Green_Plus_Chess_1.jpg,Red_Triangle_Stripes_3.jpg,right,1049.7449999966193,true,NA,NA,NA,NA,NA,NA,NA,NA,true
ABOSeNIv,3ha5odm5ld5arw3bkcnh3xryudvvsa,3s96kq6i9qhrzzey9txfw0d4jktdt8,ABOSeNIv,2020-0188,2020-06-04,20:33:01,21:00:08,NA,incomplete,29,shape,1,1,left,Blue_Plus_Dots_1.jpg,Red_Plus_Stripes_3.jpg,Purple_Circle_Grid_1.jpg,left,964.1950000005309,true,NA,NA,NA,NA,NA,NA,NA,NA,true
ABOSeNIv,3ha5odm5ld5arw3bkcnh3xryudvvsa,3s96kq6i9qhrzzey9txfw0d4jktdt8,ABOSeNIv,2020-0188,2020-06-04,20:33:01,21:00:08,NA,incomplete,30,shape,1,1,right,Purple_Triangle_Stripes_3.jpg,Green_Circle_Chess_3.jpg,Blue_Triangle_Grid_4.jpg,right,1010.2100000004284,true,NA,NA,NA,NA,NA,NA,NA,NA,true
ABOSeNIv,3ha5odm5ld5arw3bkcnh3xryudvvsa,3s96kq6i9qhrzzey9txfw0d4jktdt8,ABOSeNIv,2020-0188,2020-06-04,20:33:01,21:00:08,NA,incomplete,31,shape,1,1,left,Blue_Circle_Grid_1.jpg,Red_Circle_Stripes_2.jpg,Purple_Plus_Chess_1.jpg,left,1062.7749999985099,true,NA,NA,NA,NA,NA,NA,NA,NA,true
ABOSeNIv,3ha5odm5ld5arw3bkcnh3xryudvvsa,3s96kq6i9qhrzzey9txfw0d4jktdt8,ABOSeNIv,2020-0188,2020-06-04,20:33:01,21:00:08,NA,incomplete,32,shape,1,1,left,Red_Star_Chess_2.jpg,Purple_Star_Dots_4.jpg,Blue_Plus_Grid_2.jpg,left,992.9499999997206,true,NA,NA,NA,NA,NA,NA,NA,NA,true
ABOSeNIv,3ha5odm5ld5arw3bkcnh3xryudvvsa,3s96kq6i9qhrzzey9txfw0d4jktdt8,ABOSeNIv,2020-0188,2020-06-04,20:33:01,21:00:08,NA,incomplete,33,shape,1,1,right,Purple_Star_Grid_1.jpg,Red_Plus_Dots_1.jpg,Green_Star_Stripes_2.jpg,right,1109.7599999994272,true,NA,NA,NA,NA,NA,NA,NA,NA,true
ABOSeNIv,3ha5odm5ld5arw3bkcnh3xryudvvsa,3s96kq6i9qhrzzey9txfw0d4jktdt8,ABOSeNIv,2020-0188,2020-06-04,20:33:01,21:00:08,NA,incomplete,34,shape,1,1,right,Red_Plus_Stripes_4.jpg,Blue_Triangle_Dots_4.jpg,Green_Plus_Grid_2.jpg,right,1117.919999997015,true,NA,NA,NA,NA,NA,NA,NA,NA,true
ABOSeNIv,3ha5odm5ld5arw3bkcnh3xryudvvsa,3s96kq6i9qhrzzey9txfw0d4jktdt8,ABOSeNIv,2020-0188,2020-06-04,20:33:01,21:00:08,NA,incomplete,35,shape,1,1,left,Purple_Circle_Grid_1.jpg,Green_Circle_Stripes_3.jpg,Red_Plus_Dots_1.jpg,left,1100.8199999995995,true,NA,NA,NA,NA,NA,NA,NA,NA,true
ABOSeNIv,3ha5odm5ld5arw3bkcnh3xryudvvsa,3s96kq6i9qhrzzey9txfw0d4jktdt8,ABOSeNIv,2020-0188,2020-06-04,20:33:01,21:00:08,NA,incomplete,36,shape,1,0,right,Green_Plus_Grid_3.jpg,Blue_Triangle_Chess_3.jpg,Red_Plus_Dots_4.jpg,right,1117.1699999977136,true,NA,NA,NA,NA,NA,NA,NA,NA,true
ABOSeNIv,3ha5odm5ld5arw3bkcnh3xryudvvsa,3s96kq6i9qhrzzey9txfw0d4jktdt8,ABOSeNIv,2020-0188,2020-06-04,20:33:01,21:00:08,NA,incomplete,37,shape,1,1,left,Purple_Triangle_Dots_2.jpg,Red_Triangle_Stripes_1.jpg,Green_Plus_Grid_2.jpg,left,884.5650000002934,true,NA,NA,NA,NA,NA,NA,NA,NA,true
ABOSeNIv,3ha5odm5ld5arw3bkcnh3xryudvvsa,3s96kq6i9qhrzzey9txfw0d4jktdt8,ABOSeNIv,2020-0188,2020-06-04,20:33:01,21:00:08,NA,incomplete,38,shape,1,0,left,Blue_Plus_Grid_2.jpg,Green_Plus_Stripes_3.jpg,Purple_Triangle_Dots_2.jpg,left,1014.1549999970011,true,NA,NA,NA,NA,NA,NA,NA,NA,true
ABOSeNIv,3ha5odm5ld5arw3bkcnh3xryudvvsa,3s96kq6i9qhrzzey9txfw0d4jktdt8,ABOSeNIv,2020-0188,2020-06-04,20:33:01,21:00:08,NA,incomplete,39,shape,1,0,left,Purple_Triangle_Chess_2.jpg,Red_Triangle_Dots_1.jpg,Green_Star_Grid_2.jpg,left,921.6349999988452,true,NA,NA,NA,NA,NA,NA,NA,NA,true
ABOSeNIv,3ha5odm5ld5arw3bkcnh3xryudvvsa,3s96kq6i9qhrzzey9txfw0d4jktdt8,ABOSeNIv,2020-0188,2020-06-04,20:33:01,21:00:08,NA,incomplete,0,number,0,1,left,Blue_Plus_Stripes_3.jpg,Red_Star_Dots_3.jpg,Green_Plus_Grid_4.jpg,right,819.3900000042049,false,low,NA,NA,NA,NA,NA,NA,NA,false
ABOSeNIv,3ha5odm5ld5arw3bkcnh3xryudvvsa,3s96kq6i9qhrzzey9txfw0d4jktdt8,ABOSeNIv,2020-0188,2020-06-04,20:33:01,21:00:08,NA,incomplete,1,number,0,1,left,Blue_Triangle_Dots_3.jpg,Purple_Circle_Chess_3.jpg,Red_Triangle_Grid_2.jpg,right,862.7750000013039,false,low,NA,NA,NA,NA,NA,NA,NA,false
ABOSeNIv,3ha5odm5ld5arw3bkcnh3xryudvvsa,3s96kq6i9qhrzzey9txfw0d4jktdt8,ABOSeNIv,2020-0188,2020-06-04,20:33:01,21:00:08,NA,incomplete,2,number,0,1,left,Green_Star_Dots_1.jpg,Red_Circle_Stripes_1.jpg,Blue_Star_Grid_4.jpg,left,864.9199999999255,true,low,NA,NA,NA,NA,NA,NA,NA,false
ABOSeNIv,3ha5odm5ld5arw3bkcnh3xryudvvsa,3s96kq6i9qhrzzey9txfw0d4jktdt8,ABOSeNIv,2020-0188,2020-06-04,20:33:01,21:00:08,NA,incomplete,3,number,0,1,left,Blue_Plus_Grid_3.jpg,Green_Circle_Stripes_3.jpg,Red_Plus_Chess_1.jpg,left,1034.6500000014203,true,low,NA,NA,NA,NA,NA,NA,NA,false
ABOSeNIv,3ha5odm5ld5arw3bkcnh3xryudvvsa,3s96kq6i9qhrzzey9txfw0d4jktdt8,ABOSeNIv,2020-0188,2020-06-04,20:33:01,21:00:08,NA,incomplete,4,number,0,1,right,Purple_Star_Chess_4.jpg,Red_Star_Grid_2.jpg,Blue_Circle_Stripes_4.jpg,right,798.0150000003632,true,low,NA,NA,NA,NA,NA,NA,NA,false
ABOSeNIv,3ha5odm5ld5arw3bkcnh3xryudvvsa,3s96kq6i9qhrzzey9txfw0d4jktdt8,ABOSeNIv,2020-0188,2020-06-04,20:33:01,21:00:08,NA,incomplete,5,number,0,1,right,Red_Triangle_Grid_1.jpg,Green_Triangle_Dots_2.jpg,Blue_Circle_Chess_1.jpg,right,642.6500000015367,true,low,NA,NA,NA,NA,NA,NA,NA,false
ABOSeNIv,3ha5odm5ld5arw3bkcnh3xryudvvsa,3s96kq6i9qhrzzey9txfw0d4jktdt8,ABOSeNIv,2020-0188,2020-06-04,20:33:01,21:00:08,NA,incomplete,6,number,0,1,left,Purple_Triangle_Grid_2.jpg,Blue_Circle_Stripes_2.jpg,Red_Triangle_Chess_3.jpg,left,837.5299999971176,true,low,NA,NA,NA,NA,NA,NA,NA,false
ABOSeNIv,3ha5odm5ld5arw3bkcnh3xryudvvsa,3s96kq6i9qhrzzey9txfw0d4jktdt8,ABOSeNIv,2020-0188,2020-06-04,20:33:01,21:00:08,NA,incomplete,7,number,0,1,left,Green_Triangle_Chess_4.jpg,Blue_Circle_Grid_4.jpg,Purple_Triangle_Stripes_2.jpg,left,767.9199999984121,true,low,NA,NA,NA,NA,NA,NA,NA,false
ABOSeNIv,3ha5odm5ld5arw3bkcnh3xryudvvsa,3s96kq6i9qhrzzey9txfw0d4jktdt8,ABOSeNIv,2020-0188,2020-06-04,20:33:01,21:00:08,NA,incomplete,8,number,0,1,right,Green_Star_Dots_3.jpg,Red_Star_Stripes_4.jpg,Blue_Circle_Chess_3.jpg,right,837.5500000037719,true,low,NA,NA,NA,NA,NA,NA,NA,false
ABOSeNIv,3ha5odm5ld5arw3bkcnh3xryudvvsa,3s96kq6i9qhrzzey9txfw0d4jktdt8,ABOSeNIv,2020-0188,2020-06-04,20:33:01,21:00:08,NA,incomplete,9,number,0,1,right,Red_Plus_Grid_1.jpg,Green_Plus_Chess_2.jpg,Purple_Star_Stripes_1.jpg,right,760.7050000006566,true,low,NA,NA,NA,NA,NA,NA,NA,false
ABOSeNIv,3ha5odm5ld5arw3bkcnh3xryudvvsa,3s96kq6i9qhrzzey9txfw0d4jktdt8,ABOSeNIv,2020-0188,2020-06-04,20:33:01,21:00:08,NA,incomplete,10,number,0,0,right,Green_Circle_Grid_4.jpg,Blue_Circle_Stripes_1.jpg,Red_Triangle_Chess_4.jpg,right,758.6050000026589,true,low,NA,NA,NA,NA,NA,NA,NA,false
ABOSeNIv,3ha5odm5ld5arw3bkcnh3xryudvvsa,3s96kq6i9qhrzzey9txfw0d4jktdt8,ABOSeNIv,2020-0188,2020-06-04,20:33:01,21:00:08,NA,incomplete,11,number,0,1,right,Red_Star_Grid_3.jpg,Blue_Star_Chess_2.jpg,Purple_Triangle_Dots_3.jpg,right,788.7499999996508,true,low,NA,NA,NA,NA,NA,NA,NA,false
ABOSeNIv,3ha5odm5ld5arw3bkcnh3xryudvvsa,3s96kq6i9qhrzzey9txfw0d4jktdt8,ABOSeNIv,2020-0188,2020-06-04,20:33:01,21:00:08,NA,incomplete,12,number,0,0,right,Red_Circle_Stripes_4.jpg,Green_Circle_Grid_3.jpg,Blue_Triangle_Dots_4.jpg,right,761.5399999994552,true,low,NA,NA,NA,NA,NA,NA,NA,false
ABOSeNIv,3ha5odm5ld5arw3bkcnh3xryudvvsa,3s96kq6i9qhrzzey9txfw0d4jktdt8,ABOSeNIv,2020-0188,2020-06-04,20:33:01,21:00:08,NA,incomplete,13,number,0,1,left,Blue_Star_Chess_4.jpg,Red_Circle_Dots_4.jpg,Green_Star_Grid_1.jpg,left,767.2549999988405,true,low,NA,NA,NA,NA,NA,NA,NA,false
ABOSeNIv,3ha5odm5ld5arw3bkcnh3xryudvvsa,3s96kq6i9qhrzzey9txfw0d4jktdt8,ABOSeNIv,2020-0188,2020-06-04,20:33:01,21:00:08,NA,incomplete,14,number,0,1,left,Blue_Star_Chess_1.jpg,Green_Plus_Grid_1.jpg,Red_Star_Dots_4.jpg,left,925.6849999947008,true,low,NA,NA,NA,NA,NA,NA,NA,false
ABOSeNIv,3ha5odm5ld5arw3bkcnh3xryudvvsa,3s96kq6i9qhrzzey9txfw0d4jktdt8,ABOSeNIv,2020-0188,2020-06-04,20:33:01,21:00:08,NA,incomplete,15,number,0,1,left,Blue_Triangle_Chess_3.jpg,Green_Circle_Grid_3.jpg,Purple_Triangle_Stripes_4.jpg,left,828.6050000023097,true,low,NA,NA,NA,NA,NA,NA,NA,false
ABOSeNIv,3ha5odm5ld5arw3bkcnh3xryudvvsa,3s96kq6i9qhrzzey9txfw0d4jktdt8,ABOSeNIv,2020-0188,2020-06-04,20:33:01,21:00:08,NA,incomplete,16,number,0,1,right,Blue_Triangle_Grid_2.jpg,Green_Triangle_Stripes_3.jpg,Red_Circle_Dots_2.jpg,right,887.7350000038277,true,low,NA,NA,NA,NA,NA,NA,NA,false
ABOSeNIv,3ha5odm5ld5arw3bkcnh3xryudvvsa,3s96kq6i9qhrzzey9txfw0d4jktdt8,ABOSeNIv,2020-0188,2020-06-04,20:33:01,21:00:08,NA,incomplete,17,number,0,0,right,Blue_Circle_Grid_2.jpg,Red_Circle_Dots_1.jpg,Green_Plus_Chess_2.jpg,right,744.8750000039581,true,low,NA,NA,NA,NA,NA,NA,NA,false
ABOSeNIv,3ha5odm5ld5arw3bkcnh3xryudvvsa,3s96kq6i9qhrzzey9txfw0d4jktdt8,ABOSeNIv,2020-0188,2020-06-04,20:33:01,21:00:08,NA,incomplete,18,number,0,0,left,Purple_Circle_Chess_3.jpg,Red_Triangle_Dots_3.jpg,Blue_Circle_Stripes_4.jpg,left,847.685000000638,true,low,NA,NA,NA,NA,NA,NA,NA,false
ABOSeNIv,3ha5odm5ld5arw3bkcnh3xryudvvsa,3s96kq6i9qhrzzey9txfw0d4jktdt8,ABOSeNIv,2020-0188,2020-06-04,20:33:01,21:00:08,NA,incomplete,19,number,0,1,left,Red_Triangle_Chess_3.jpg,Blue_Plus_Stripes_3.jpg,Green_Triangle_Grid_4.jpg,left,802.8500000000931,true,low,NA,NA,NA,NA,NA,NA,NA,false
ABOSeNIv,3ha5odm5ld5arw3bkcnh3xryudvvsa,3s96kq6i9qhrzzey9txfw0d4jktdt8,ABOSeNIv,2020-0188,2020-06-04,20:33:01,21:00:08,NA,incomplete,20,number,0,1,left,Green_Triangle_Dots_1.jpg,Blue_Circle_Chess_1.jpg,Red_Triangle_Grid_4.jpg,left,662.5849999981001,true,low,NA,NA,NA,NA,NA,NA,NA,false
ABOSeNIv,3ha5odm5ld5arw3bkcnh3xryudvvsa,3s96kq6i9qhrzzey9txfw0d4jktdt8,ABOSeNIv,2020-0188,2020-06-04,20:33:01,21:00:08,NA,incomplete,21,number,0,0,right,Purple_Plus_Stripes_2.jpg,Red_Plus_Chess_3.jpg,Blue_Triangle_Dots_2.jpg,right,864.4700000004377,true,low,NA,NA,NA,NA,NA,NA,NA,false
ABOSeNIv,3ha5odm5ld5arw3bkcnh3xryudvvsa,3s96kq6i9qhrzzey9txfw0d4jktdt8,ABOSeNIv,2020-0188,2020-06-04,20:33:01,21:00:08,NA,incomplete,22,number,0,0,right,Green_Plus_Stripes_4.jpg,Red_Plus_Dots_2.jpg,Blue_Star_Grid_4.jpg,right,914.8150000037858,true,low,NA,NA,NA,NA,NA,NA,NA,false
ABOSeNIv,3ha5odm5ld5arw3bkcnh3xryudvvsa,3s96kq6i9qhrzzey9txfw0d4jktdt8,ABOSeNIv,2020-0188,2020-06-04,20:33:01,21:00:08,NA,incomplete,23,number,0,1,left,Green_Star_Stripes_1.jpg,Purple_Circle_Grid_1.jpg,Red_Star_Dots_4.jpg,right,962.7899999978254,false,low,NA,NA,NA,NA,NA,NA,NA,false
ABOSeNIv,3ha5odm5ld5arw3bkcnh3xryudvvsa,3s96kq6i9qhrzzey9txfw0d4jktdt8,ABOSeNIv,2020-0188,2020-06-04,20:33:01,21:00:08,NA,incomplete,24,number,0,1,right,Green_Star_Grid_4.jpg,Blue_Star_Dots_1.jpg,Red_Circle_Chess_4.jpg,left,800.9649999948451,false,low,NA,NA,NA,NA,NA,NA,NA,false
ABOSeNIv,3ha5odm5ld5arw3bkcnh3xryudvvsa,3s96kq6i9qhrzzey9txfw0d4jktdt8,ABOSeNIv,2020-0188,2020-06-04,20:33:01,21:00:08,NA,incomplete,25,number,0,1,right,Red_Circle_Stripes_4.jpg,Purple_Circle_Chess_2.jpg,Blue_Star_Dots_4.jpg,right,845.0450000019046,true,low,NA,NA,NA,NA,NA,NA,NA,false
ABOSeNIv,3ha5odm5ld5arw3bkcnh3xryudvvsa,3s96kq6i9qhrzzey9txfw0d4jktdt8,ABOSeNIv,2020-0188,2020-06-04,20:33:01,21:00:08,NA,incomplete,26,number,0,1,right,Red_Triangle_Grid_1.jpg,Purple_Triangle_Chess_3.jpg,Blue_Star_Dots_1.jpg,right,912.1450000021141,true,low,NA,NA,NA,NA,NA,NA,NA,false
ABOSeNIv,3ha5odm5ld5arw3bkcnh3xryudvvsa,3s96kq6i9qhrzzey9txfw0d4jktdt8,ABOSeNIv,2020-0188,2020-06-04,20:33:01,21:00:08,NA,incomplete,27,number,0,1,left,Red_Triangle_Stripes_4.jpg,Blue_Star_Grid_4.jpg,Purple_Triangle_Dots_1.jpg,left,736.1299999974435,true,low,NA,NA,NA,NA,NA,NA,NA,false
ABOSeNIv,3ha5odm5ld5arw3bkcnh3xryudvvsa,3s96kq6i9qhrzzey9txfw0d4jktdt8,ABOSeNIv,2020-0188,2020-06-04,20:33:01,21:00:08,NA,incomplete,28,number,0,1,left,Blue_Star_Stripes_2.jpg,Purple_Plus_Dots_2.jpg,Green_Star_Chess_3.jpg,left,774.7400000008056,true,low,NA,NA,NA,NA,NA,NA,NA,false
ABOSeNIv,3ha5odm5ld5arw3bkcnh3xryudvvsa,3s96kq6i9qhrzzey9txfw0d4jktdt8,ABOSeNIv,2020-0188,2020-06-04,20:33:01,21:00:08,NA,incomplete,29,number,0,1,right,Red_Star_Stripes_4.jpg,Green_Star_Grid_1.jpg,Blue_Triangle_Dots_4.jpg,right,700.8350000033388,true,low,NA,NA,NA,NA,NA,NA,NA,false
ABOSeNIv,3ha5odm5ld5arw3bkcnh3xryudvvsa,3s96kq6i9qhrzzey9txfw0d4jktdt8,ABOSeNIv,2020-0188,2020-06-04,20:33:01,21:00:08,NA,incomplete,30,shape,1,1,left,Purple_Star_Stripes_3.jpg,Red_Star_Grid_2.jpg,Blue_Plus_Dots_3.jpg,right,1028.2049999950686,false,low,NA,NA,NA,NA,NA,NA,NA,false
ABOSeNIv,3ha5odm5ld5arw3bkcnh3xryudvvsa,3s96kq6i9qhrzzey9txfw0d4jktdt8,ABOSeNIv,2020-0188,2020-06-04,20:33:01,21:00:08,NA,incomplete,31,shape,1,1,right,Green_Star_Chess_1.jpg,Blue_Circle_Dots_1.jpg,Red_Star_Stripes_4.jpg,left,1104.2300000044052,false,low,NA,NA,NA,NA,NA,NA,NA,false
ABOSeNIv,3ha5odm5ld5arw3bkcnh3xryudvvsa,3s96kq6i9qhrzzey9txfw0d4jktdt8,ABOSeNIv,2020-0188,2020-06-04,20:33:01,21:00:08,NA,incomplete,32,shape,1,1,right,Purple_Plus_Dots_2.jpg,Red_Circle_Grid_2.jpg,Green_Plus_Stripes_1.jpg,left,864.2450000043027,false,low,NA,NA,NA,NA,NA,NA,NA,false
ABOSeNIv,3ha5odm5ld5arw3bkcnh3xryudvvsa,3s96kq6i9qhrzzey9txfw0d4jktdt8,ABOSeNIv,2020-0188,2020-06-04,20:33:01,21:00:08,NA,incomplete,33,shape,1,1,right,Green_Triangle_Chess_1.jpg,Blue_Circle_Dots_1.jpg,Red_Triangle_Stripes_3.jpg,right,826.2400000020862,true,low,NA,NA,NA,NA,NA,NA,NA,false
ABOSeNIv,3ha5odm5ld5arw3bkcnh3xryudvvsa,3s96kq6i9qhrzzey9txfw0d4jktdt8,ABOSeNIv,2020-0188,2020-06-04,20:33:01,21:00:08,NA,incomplete,34,shape,1,1,right,Green_Triangle_Dots_1.jpg,Blue_Star_Grid_1.jpg,Red_Triangle_Stripes_2.jpg,right,662.1349999986123,true,low,NA,NA,NA,NA,NA,NA,NA,false
ABOSeNIv,3ha5odm5ld5arw3bkcnh3xryudvvsa,3s96kq6i9qhrzzey9txfw0d4jktdt8,ABOSeNIv,2020-0188,2020-06-04,20:33:01,21:00:08,NA,incomplete,35,shape,1,0,left,Purple_Plus_Chess_1.jpg,Green_Plus_Grid_4.jpg,Blue_Circle_Dots_1.jpg,left,935.8700000012759,true,low,NA,NA,NA,NA,NA,NA,NA,false
ABOSeNIv,3ha5odm5ld5arw3bkcnh3xryudvvsa,3s96kq6i9qhrzzey9txfw0d4jktdt8,ABOSeNIv,2020-0188,2020-06-04,20:33:01,21:00:08,NA,incomplete,36,shape,1,1,right,Green_Star_Dots_3.jpg,Blue_Circle_Grid_3.jpg,Purple_Star_Chess_4.jpg,right,854.650000001071,true,low,NA,NA,NA,NA,NA,NA,NA,false
ABOSeNIv,3ha5odm5ld5arw3bkcnh3xryudvvsa,3s96kq6i9qhrzzey9txfw0d4jktdt8,ABOSeNIv,2020-0188,2020-06-04,20:33:01,21:00:08,NA,incomplete,37,shape,1,0,right,Purple_Triangle_Stripes_4.jpg,Red_Star_Dots_4.jpg,Green_Triangle_Chess_3.jpg,right,936.9149999984074,true,low,NA,NA,NA,NA,NA,NA,NA,false
ABOSeNIv,3ha5odm5ld5arw3bkcnh3xryudvvsa,3s96kq6i9qhrzzey9txfw0d4jktdt8,ABOSeNIv,2020-0188,2020-06-04,20:33:01,21:00:08,NA,incomplete,38,shape,1,1,left,Green_Circle_Chess_1.jpg,Blue_Circle_Dots_4.jpg,Purple_Star_Grid_1.jpg,left,743.5750000004191,true,low,NA,NA,NA,NA,NA,NA,NA,false
ABOSeNIv,3ha5odm5ld5arw3bkcnh3xryudvvsa,3s96kq6i9qhrzzey9txfw0d4jktdt8,ABOSeNIv,2020-0188,2020-06-04,20:33:01,21:00:08,NA,incomplete,39,shape,1,1,left,Green_Triangle_Grid_3.jpg,Red_Triangle_Dots_2.jpg,Purple_Plus_Stripes_3.jpg,left,814.7549999994226,true,low,NA,NA,NA,NA,NA,NA,NA,false
ABOSeNIv,3ha5odm5ld5arw3bkcnh3xryudvvsa,3s96kq6i9qhrzzey9txfw0d4jktdt8,ABOSeNIv,2020-0188,2020-06-04,20:33:01,21:00:08,NA,incomplete,40,shape,1,1,right,Purple_Plus_Dots_1.jpg,Green_Star_Grid_1.jpg,Blue_Plus_Stripes_3.jpg,right,890.4900000052294,true,low,NA,NA,NA,NA,NA,NA,NA,false
ABOSeNIv,3ha5odm5ld5arw3bkcnh3xryudvvsa,3s96kq6i9qhrzzey9txfw0d4jktdt8,ABOSeNIv,2020-0188,2020-06-04,20:33:01,21:00:08,NA,incomplete,41,shape,1,1,right,Red_Plus_Chess_3.jpg,Blue_Triangle_Grid_3.jpg,Green_Plus_Dots_4.jpg,right,731.4249999981839,true,low,NA,NA,NA,NA,NA,NA,NA,false
ABOSeNIv,3ha5odm5ld5arw3bkcnh3xryudvvsa,3s96kq6i9qhrzzey9txfw0d4jktdt8,ABOSeNIv,2020-0188,2020-06-04,20:33:01,21:00:08,NA,incomplete,42,shape,1,1,right,Red_Star_Chess_3.jpg,Purple_Triangle_Stripes_3.jpg,Green_Star_Dots_4.jpg,right,754.7899999989895,true,low,NA,NA,NA,NA,NA,NA,NA,false
ABOSeNIv,3ha5odm5ld5arw3bkcnh3xryudvvsa,3s96kq6i9qhrzzey9txfw0d4jktdt8,ABOSeNIv,2020-0188,2020-06-04,20:33:01,21:00:08,NA,incomplete,43,shape,1,1,left,Green_Triangle_Chess_1.jpg,Blue_Triangle_Dots_3.jpg,Red_Circle_Stripes_1.jpg,left,833.039999997709,true,low,NA,NA,NA,NA,NA,NA,NA,false
ABOSeNIv,3ha5odm5ld5arw3bkcnh3xryudvvsa,3s96kq6i9qhrzzey9txfw0d4jktdt8,ABOSeNIv,2020-0188,2020-06-04,20:33:01,21:00:08,NA,incomplete,44,shape,1,0,left,Red_Circle_Grid_1.jpg,Green_Circle_Chess_3.jpg,Purple_Plus_Dots_1.jpg,left,676.7200000031153,true,low,NA,NA,NA,NA,NA,NA,NA,false
ABOSeNIv,3ha5odm5ld5arw3bkcnh3xryudvvsa,3s96kq6i9qhrzzey9txfw0d4jktdt8,ABOSeNIv,2020-0188,2020-06-04,20:33:01,21:00:08,NA,incomplete,45,shape,1,1,left,Blue_Circle_Grid_1.jpg,Red_Circle_Chess_3.jpg,Purple_Plus_Dots_1.jpg,left,613.945000004489,true,low,NA,NA,NA,NA,NA,NA,NA,false
ABOSeNIv,3ha5odm5ld5arw3bkcnh3xryudvvsa,3s96kq6i9qhrzzey9txfw0d4jktdt8,ABOSeNIv,2020-0188,2020-06-04,20:33:01,21:00:08,NA,incomplete,46,shape,1,1,left,Red_Circle_Dots_1.jpg,Blue_Circle_Chess_4.jpg,Purple_Plus_Grid_1.jpg,left,681.539999997709,true,low,NA,NA,NA,NA,NA,NA,NA,false
ABOSeNIv,3ha5odm5ld5arw3bkcnh3xryudvvsa,3s96kq6i9qhrzzey9txfw0d4jktdt8,ABOSeNIv,2020-0188,2020-06-04,20:33:01,21:00:08,NA,incomplete,47,shape,1,1,right,Green_Triangle_Grid_3.jpg,Purple_Plus_Dots_3.jpg,Red_Triangle_Chess_4.jpg,right,691.3700000005774,true,low,NA,NA,NA,NA,NA,NA,NA,false
ABOSeNIv,3ha5odm5ld5arw3bkcnh3xryudvvsa,3s96kq6i9qhrzzey9txfw0d4jktdt8,ABOSeNIv,2020-0188,2020-06-04,20:33:01,21:00:08,NA,incomplete,48,shape,1,1,left,Red_Circle_Stripes_4.jpg,Blue_Circle_Chess_1.jpg,Green_Plus_Dots_4.jpg,left,692.159999998752,true,low,NA,NA,NA,NA,NA,NA,NA,false
ABOSeNIv,3ha5odm5ld5arw3bkcnh3xryudvvsa,3s96kq6i9qhrzzey9txfw0d4jktdt8,ABOSeNIv,2020-0188,2020-06-04,20:33:01,21:00:08,NA,incomplete,49,shape,1,0,right,Green_Triangle_Chess_4.jpg,Red_Plus_Stripes_4.jpg,Purple_Triangle_Grid_3.jpg,right,933.2950000024866,true,low,NA,NA,NA,NA,NA,NA,NA,false
ABOSeNIv,3ha5odm5ld5arw3bkcnh3xryudvvsa,3s96kq6i9qhrzzey9txfw0d4jktdt8,ABOSeNIv,2020-0188,2020-06-04,20:33:01,21:00:08,NA,incomplete,50,shape,1,1,right,Blue_Circle_Chess_4.jpg,Purple_Star_Stripes_4.jpg,Red_Circle_Dots_1.jpg,right,692.2999999951571,true,low,NA,NA,NA,NA,NA,NA,NA,false
ABOSeNIv,3ha5odm5ld5arw3bkcnh3xryudvvsa,3s96kq6i9qhrzzey9txfw0d4jktdt8,ABOSeNIv,2020-0188,2020-06-04,20:33:01,21:00:08,NA,incomplete,51,shape,1,1,right,Red_Plus_Dots_4.jpg,Purple_Circle_Chess_4.jpg,Green_Plus_Grid_1.jpg,right,812.9899999985937,true,low,NA,NA,NA,NA,NA,NA,NA,false
ABOSeNIv,3ha5odm5ld5arw3bkcnh3xryudvvsa,3s96kq6i9qhrzzey9txfw0d4jktdt8,ABOSeNIv,2020-0188,2020-06-04,20:33:01,21:00:08,NA,incomplete,52,shape,1,1,left,Green_Star_Stripes_4.jpg,Red_Star_Grid_3.jpg,Blue_Triangle_Dots_4.jpg,left,705.2650000042049,true,low,NA,NA,NA,NA,NA,NA,NA,false
ABOSeNIv,3ha5odm5ld5arw3bkcnh3xryudvvsa,3s96kq6i9qhrzzey9txfw0d4jktdt8,ABOSeNIv,2020-0188,2020-06-04,20:33:01,21:00:08,NA,incomplete,53,shape,1,1,right,Green_Circle_Grid_4.jpg,Purple_Plus_Dots_4.jpg,Blue_Circle_Chess_1.jpg,right,657.4550000005402,true,low,NA,NA,NA,NA,NA,NA,NA,false
ABOSeNIv,3ha5odm5ld5arw3bkcnh3xryudvvsa,3s96kq6i9qhrzzey9txfw0d4jktdt8,ABOSeNIv,2020-0188,2020-06-04,20:33:01,21:00:08,NA,incomplete,54,shape,1,0,left,Purple_Triangle_Grid_3.jpg,Red_Triangle_Stripes_1.jpg,Blue_Plus_Chess_3.jpg,left,716.1450000058394,true,low,NA,NA,NA,NA,NA,NA,NA,false
ABOSeNIv,3ha5odm5ld5arw3bkcnh3xryudvvsa,3s96kq6i9qhrzzey9txfw0d4jktdt8,ABOSeNIv,2020-0188,2020-06-04,20:33:01,21:00:08,NA,incomplete,55,shape,1,1,left,Red_Circle_Chess_4.jpg,Blue_Circle_Stripes_1.jpg,Purple_Triangle_Dots_4.jpg,left,683.9000000036322,true,low,NA,NA,NA,NA,NA,NA,NA,false
ABOSeNIv,3ha5odm5ld5arw3bkcnh3xryudvvsa,3s96kq6i9qhrzzey9txfw0d4jktdt8,ABOSeNIv,2020-0188,2020-06-04,20:33:01,21:00:08,NA,incomplete,56,shape,1,1,right,Purple_Triangle_Chess_3.jpg,Green_Circle_Grid_3.jpg,Red_Triangle_Dots_1.jpg,right,804.4799999989336,true,low,NA,NA,NA,NA,NA,NA,NA,false
ABOSeNIv,3ha5odm5ld5arw3bkcnh3xryudvvsa,3s96kq6i9qhrzzey9txfw0d4jktdt8,ABOSeNIv,2020-0188,2020-06-04,20:33:01,21:00:08,NA,incomplete,57,shape,1,1,left,Purple_Plus_Stripes_1.jpg,Green_Plus_Grid_3.jpg,Red_Circle_Chess_1.jpg,left,632.7249999957858,true,low,NA,NA,NA,NA,NA,NA,NA,false
ABOSeNIv,3ha5odm5ld5arw3bkcnh3xryudvvsa,3s96kq6i9qhrzzey9txfw0d4jktdt8,ABOSeNIv,2020-0188,2020-06-04,20:33:01,21:00:08,NA,incomplete,58,shape,1,1,left,Purple_Triangle_Dots_1.jpg,Blue_Triangle_Grid_4.jpg,Red_Plus_Stripes_1.jpg,left,635.7399999978952,true,low,NA,NA,NA,NA,NA,NA,NA,false
ABOSeNIv,3ha5odm5ld5arw3bkcnh3xryudvvsa,3s96kq6i9qhrzzey9txfw0d4jktdt8,ABOSeNIv,2020-0188,2020-06-04,20:33:01,21:00:08,NA,incomplete,59,shape,1,1,right,Red_Triangle_Chess_2.jpg,Green_Star_Dots_2.jpg,Blue_Triangle_Grid_3.jpg,right,631.4199999979464,true,low,NA,NA,NA,NA,NA,NA,NA,false
ABOSeNIv,3ha5odm5ld5arw3bkcnh3xryudvvsa,3s96kq6i9qhrzzey9txfw0d4jktdt8,ABOSeNIv,2020-0188,2020-06-04,20:33:01,21:00:08,NA,incomplete,60,number,0,1,left,Red_Star_Grid_2.jpg,Purple_Plus_Chess_2.jpg,Green_Star_Stripes_3.jpg,right,818.0550000033109,false,low,NA,NA,NA,NA,NA,NA,NA,false
ABOSeNIv,3ha5odm5ld5arw3bkcnh3xryudvvsa,3s96kq6i9qhrzzey9txfw0d4jktdt8,ABOSeNIv,2020-0188,2020-06-04,20:33:01,21:00:08,NA,incomplete,61,number,0,0,right,Blue_Triangle_Stripes_2.jpg,Green_Triangle_Grid_3.jpg,Purple_Star_Chess_2.jpg,left,669.6050000027753,false,low,NA,NA,NA,NA,NA,NA,NA,false
ABOSeNIv,3ha5odm5ld5arw3bkcnh3xryudvvsa,3s96kq6i9qhrzzey9txfw0d4jktdt8,ABOSeNIv,2020-0188,2020-06-04,20:33:01,21:00:08,NA,incomplete,62,number,0,1,left,Green_Star_Stripes_3.jpg,Purple_Triangle_Chess_3.jpg,Red_Star_Grid_1.jpg,right,727.1949999995995,false,low,NA,NA,NA,NA,NA,NA,NA,false
ABOSeNIv,3ha5odm5ld5arw3bkcnh3xryudvvsa,3s96kq6i9qhrzzey9txfw0d4jktdt8,ABOSeNIv,2020-0188,2020-06-04,20:33:01,21:00:08,NA,incomplete,63,number,0,1,left,Purple_Plus_Stripes_1.jpg,Blue_Circle_Dots_1.jpg,Red_Plus_Grid_4.jpg,right,726.679999999702,false,low,NA,NA,NA,NA,NA,NA,NA,false
ABOSeNIv,3ha5odm5ld5arw3bkcnh3xryudvvsa,3s96kq6i9qhrzzey9txfw0d4jktdt8,ABOSeNIv,2020-0188,2020-06-04,20:33:01,21:00:08,NA,incomplete,64,number,0,1,left,Green_Circle_Dots_2.jpg,Purple_Star_Stripes_2.jpg,Red_Circle_Grid_1.jpg,right,678.6849999988917,false,low,NA,NA,NA,NA,NA,NA,NA,false
ABOSeNIv,3ha5odm5ld5arw3bkcnh3xryudvvsa,3s96kq6i9qhrzzey9txfw0d4jktdt8,ABOSeNIv,2020-0188,2020-06-04,20:33:01,21:00:08,NA,incomplete,65,number,0,1,left,Green_Triangle_Stripes_2.jpg,Red_Plus_Dots_2.jpg,Purple_Triangle_Chess_3.jpg,right,767.4799999948591,false,low,NA,NA,NA,NA,NA,NA,NA,false
ABOSeNIv,3ha5odm5ld5arw3bkcnh3xryudvvsa,3s96kq6i9qhrzzey9txfw0d4jktdt8,ABOSeNIv,2020-0188,2020-06-04,20:33:01,21:00:08,NA,incomplete,66,number,0,1,right,Purple_Star_Grid_4.jpg,Green_Star_Chess_3.jpg,Blue_Circle_Dots_4.jpg,right,957.0099999982631,true,low,NA,NA,NA,NA,NA,NA,NA,false
ABOSeNIv,3ha5odm5ld5arw3bkcnh3xryudvvsa,3s96kq6i9qhrzzey9txfw0d4jktdt8,ABOSeNIv,2020-0188,2020-06-04,20:33:01,21:00:08,NA,incomplete,67,number,0,0,right,Red_Star_Stripes_3.jpg,Green_Star_Grid_4.jpg,Purple_Circle_Dots_3.jpg,right,1299.4200000029523,true,low,NA,NA,NA,NA,NA,NA,NA,false
ABOSeNIv,3ha5odm5ld5arw3bkcnh3xryudvvsa,3s96kq6i9qhrzzey9txfw0d4jktdt8,ABOSeNIv,2020-0188,2020-06-04,20:33:01,21:00:08,NA,incomplete,68,number,0,1,right,Blue_Plus_Chess_1.jpg,Red_Plus_Stripes_4.jpg,Green_Triangle_Grid_1.jpg,right,747.8750000009313,true,low,NA,NA,NA,NA,NA,NA,NA,false
ABOSeNIv,3ha5odm5ld5arw3bkcnh3xryudvvsa,3s96kq6i9qhrzzey9txfw0d4jktdt8,ABOSeNIv,2020-0188,2020-06-04,20:33:01,21:00:08,NA,incomplete,69,number,0,0,left,Red_Star_Dots_2.jpg,Purple_Plus_Chess_2.jpg,Green_Star_Stripes_1.jpg,left,842.7450000017416,true,low,NA,NA,NA,NA,NA,NA,NA,false
ABOSeNIv,3ha5odm5ld5arw3bkcnh3xryudvvsa,3s96kq6i9qhrzzey9txfw0d4jktdt8,ABOSeNIv,2020-0188,2020-06-04,20:33:01,21:00:08,NA,incomplete,70,number,0,1,right,Red_Triangle_Stripes_2.jpg,Blue_Triangle_Dots_1.jpg,Purple_Plus_Grid_2.jpg,right,749.5049999998882,true,low,NA,NA,NA,NA,NA,NA,NA,false
ABOSeNIv,3ha5odm5ld5arw3bkcnh3xryudvvsa,3s96kq6i9qhrzzey9txfw0d4jktdt8,ABOSeNIv,2020-0188,2020-06-04,20:33:01,21:00:08,NA,incomplete,71,number,0,1,right,Blue_Star_Chess_4.jpg,Red_Star_Stripes_2.jpg,Purple_Plus_Dots_4.jpg,right,772.3499999991618,true,low,NA,NA,NA,NA,NA,NA,NA,false
ABOSeNIv,3ha5odm5ld5arw3bkcnh3xryudvvsa,3s96kq6i9qhrzzey9txfw0d4jktdt8,ABOSeNIv,2020-0188,2020-06-04,20:33:01,21:00:08,NA,incomplete,72,number,0,0,left,Green_Star_Chess_2.jpg,Red_Circle_Grid_2.jpg,Purple_Star_Stripes_4.jpg,left,793.904999998631,true,low,NA,NA,NA,NA,NA,NA,NA,false
ABOSeNIv,3ha5odm5ld5arw3bkcnh3xryudvvsa,3s96kq6i9qhrzzey9txfw0d4jktdt8,ABOSeNIv,2020-0188,2020-06-04,20:33:01,21:00:08,NA,incomplete,73,number,0,1,left,Blue_Plus_Dots_1.jpg,Red_Circle_Stripes_1.jpg,Green_Plus_Grid_4.jpg,left,638.6100000017323,true,low,NA,NA,NA,NA,NA,NA,NA,false
ABOSeNIv,3ha5odm5ld5arw3bkcnh3xryudvvsa,3s96kq6i9qhrzzey9txfw0d4jktdt8,ABOSeNIv,2020-0188,2020-06-04,20:33:01,21:00:08,NA,incomplete,74,number,0,0,right,Blue_Triangle_Dots_1.jpg,Green_Triangle_Stripes_3.jpg,Purple_Star_Grid_1.jpg,right,697.7049999986775,true,low,NA,NA,NA,NA,NA,NA,NA,false
ABOSeNIv,3ha5odm5ld5arw3bkcnh3xryudvvsa,3s96kq6i9qhrzzey9txfw0d4jktdt8,ABOSeNIv,2020-0188,2020-06-04,20:33:01,21:00:08,NA,incomplete,75,number,0,1,right,Blue_Circle_Stripes_3.jpg,Red_Circle_Chess_2.jpg,Purple_Triangle_Dots_3.jpg,right,794.1250000003492,true,low,NA,NA,NA,NA,NA,NA,NA,false
ABOSeNIv,3ha5odm5ld5arw3bkcnh3xryudvvsa,3s96kq6i9qhrzzey9txfw0d4jktdt8,ABOSeNIv,2020-0188,2020-06-04,20:33:01,21:00:08,NA,incomplete,76,number,0,1,left,Green_Circle_Grid_3.jpg,Red_Plus_Dots_3.jpg,Purple_Circle_Chess_1.jpg,left,774.9850000035949,true,low,NA,NA,NA,NA,NA,NA,NA,false
ABOSeNIv,3ha5odm5ld5arw3bkcnh3xryudvvsa,3s96kq6i9qhrzzey9txfw0d4jktdt8,ABOSeNIv,2020-0188,2020-06-04,20:33:01,21:00:08,NA,incomplete,77,number,0,1,right,Purple_Star_Chess_4.jpg,Green_Star_Grid_1.jpg,Red_Circle_Stripes_4.jpg,right,764.4000000000233,true,low,NA,NA,NA,NA,NA,NA,NA,false
ABOSeNIv,3ha5odm5ld5arw3bkcnh3xryudvvsa,3s96kq6i9qhrzzey9txfw0d4jktdt8,ABOSeNIv,2020-0188,2020-06-04,20:33:01,21:00:08,NA,incomplete,78,number,0,1,right,Blue_Triangle_Dots_1.jpg,Green_Triangle_Stripes_4.jpg,Red_Circle_Chess_1.jpg,right,786.7149999947287,true,low,NA,NA,NA,NA,NA,NA,NA,false
ABOSeNIv,3ha5odm5ld5arw3bkcnh3xryudvvsa,3s96kq6i9qhrzzey9txfw0d4jktdt8,ABOSeNIv,2020-0188,2020-06-04,20:33:01,21:00:08,NA,incomplete,79,number,0,1,left,Blue_Circle_Grid_1.jpg,Green_Triangle_Stripes_1.jpg,Red_Circle_Chess_3.jpg,left,703.8499999981141,true,low,NA,NA,NA,NA,NA,NA,NA,false
ABOSeNIv,3ha5odm5ld5arw3bkcnh3xryudvvsa,3s96kq6i9qhrzzey9txfw0d4jktdt8,ABOSeNIv,2020-0188,2020-06-04,20:33:01,21:00:08,NA,incomplete,80,number,0,1,right,Blue_Triangle_Grid_2.jpg,Red_Triangle_Dots_4.jpg,Green_Plus_Stripes_2.jpg,right,903.5799999984447,true,low,NA,NA,NA,NA,NA,NA,NA,false
ABOSeNIv,3ha5odm5ld5arw3bkcnh3xryudvvsa,3s96kq6i9qhrzzey9txfw0d4jktdt8,ABOSeNIv,2020-0188,2020-06-04,20:33:01,21:00:08,NA,incomplete,81,number,0,1,right,Red_Triangle_Grid_2.jpg,Purple_Triangle_Chess_3.jpg,Blue_Circle_Stripes_2.jpg,right,935.665000004461,true,low,NA,NA,NA,NA,NA,NA,NA,false
ABOSeNIv,3ha5odm5ld5arw3bkcnh3xryudvvsa,3s96kq6i9qhrzzey9txfw0d4jktdt8,ABOSeNIv,2020-0188,2020-06-04,20:33:01,21:00:08,NA,incomplete,82,number,0,1,right,Purple_Plus_Dots_1.jpg,Blue_Plus_Chess_4.jpg,Green_Star_Grid_1.jpg,right,733.9900000006892,true,low,NA,NA,NA,NA,NA,NA,NA,false
ABOSeNIv,3ha5odm5ld5arw3bkcnh3xryudvvsa,3s96kq6i9qhrzzey9txfw0d4jktdt8,ABOSeNIv,2020-0188,2020-06-04,20:33:01,21:00:08,NA,incomplete,83,number,0,0,left,Purple_Star_Grid_4.jpg,Red_Triangle_Stripes_4.jpg,Blue_Star_Chess_1.jpg,left,741.0450000024866,true,low,NA,NA,NA,NA,NA,NA,NA,false
ABOSeNIv,3ha5odm5ld5arw3bkcnh3xryudvvsa,3s96kq6i9qhrzzey9txfw0d4jktdt8,ABOSeNIv,2020-0188,2020-06-04,20:33:01,21:00:08,NA,incomplete,84,number,0,1,right,Purple_Triangle_Stripes_1.jpg,Green_Triangle_Grid_4.jpg,Red_Circle_Dots_1.jpg,right,628.4450000020443,true,low,NA,NA,NA,NA,NA,NA,NA,false
ABOSeNIv,3ha5odm5ld5arw3bkcnh3xryudvvsa,3s96kq6i9qhrzzey9txfw0d4jktdt8,ABOSeNIv,2020-0188,2020-06-04,20:33:01,21:00:08,NA,incomplete,85,number,0,1,left,Green_Circle_Grid_3.jpg,Purple_Plus_Dots_3.jpg,Red_Circle_Chess_4.jpg,left,911.5950000049779,true,low,NA,NA,NA,NA,NA,NA,NA,false
ABOSeNIv,3ha5odm5ld5arw3bkcnh3xryudvvsa,3s96kq6i9qhrzzey9txfw0d4jktdt8,ABOSeNIv,2020-0188,2020-06-04,20:33:01,21:00:08,NA,incomplete,86,number,0,1,left,Green_Circle_Chess_2.jpg,Red_Star_Stripes_2.jpg,Purple_Circle_Grid_4.jpg,left,783.4799999983516,true,low,NA,NA,NA,NA,NA,NA,NA,false
ABOSeNIv,3ha5odm5ld5arw3bkcnh3xryudvvsa,3s96kq6i9qhrzzey9txfw0d4jktdt8,ABOSeNIv,2020-0188,2020-06-04,20:33:01,21:00:08,NA,incomplete,87,number,0,1,right,Green_Circle_Grid_3.jpg,Blue_Circle_Dots_4.jpg,Red_Star_Stripes_3.jpg,right,1149.0849999972852,true,low,NA,NA,NA,NA,NA,NA,NA,false
ABOSeNIv,3ha5odm5ld5arw3bkcnh3xryudvvsa,3s96kq6i9qhrzzey9txfw0d4jktdt8,ABOSeNIv,2020-0188,2020-06-04,20:33:01,21:00:08,NA,incomplete,88,number,0,1,right,Purple_Circle_Chess_4.jpg,Red_Circle_Stripes_2.jpg,Green_Plus_Grid_4.jpg,right,787.8650000055786,true,low,NA,NA,NA,NA,NA,NA,NA,false
ABOSeNIv,3ha5odm5ld5arw3bkcnh3xryudvvsa,3s96kq6i9qhrzzey9txfw0d4jktdt8,ABOSeNIv,2020-0188,2020-06-04,20:33:01,21:00:08,NA,incomplete,89,number,0,1,left,Blue_Star_Grid_4.jpg,Green_Circle_Stripes_4.jpg,Purple_Star_Dots_3.jpg,right,880.8700000009267,false,low,NA,NA,NA,NA,NA,NA,NA,false
ABOSeNIv,3ha5odm5ld5arw3bkcnh3xryudvvsa,3s96kq6i9qhrzzey9txfw0d4jktdt8,ABOSeNIv,2020-0188,2020-06-04,20:33:01,21:00:08,NA,incomplete,90,shape,1,0,right,Blue_Star_Chess_2.jpg,Green_Triangle_Grid_2.jpg,Purple_Star_Dots_1.jpg,left,833.980000003241,false,low,NA,NA,NA,NA,NA,NA,NA,false
ABOSeNIv,3ha5odm5ld5arw3bkcnh3xryudvvsa,3s96kq6i9qhrzzey9txfw0d4jktdt8,ABOSeNIv,2020-0188,2020-06-04,20:33:01,21:00:08,NA,incomplete,91,shape,1,1,left,Purple_Star_Stripes_4.jpg,Red_Star_Dots_3.jpg,Green_Plus_Grid_4.jpg,right,756.7049999998417,false,low,NA,NA,NA,NA,NA,NA,NA,false
ABOSeNIv,3ha5odm5ld5arw3bkcnh3xryudvvsa,3s96kq6i9qhrzzey9txfw0d4jktdt8,ABOSeNIv,2020-0188,2020-06-04,20:33:01,21:00:08,NA,incomplete,92,shape,1,1,right,Green_Circle_Stripes_4.jpg,Blue_Triangle_Dots_4.jpg,Red_Circle_Chess_2.jpg,left,779.0800000003073,false,low,NA,NA,NA,NA,NA,NA,NA,false
ABOSeNIv,3ha5odm5ld5arw3bkcnh3xryudvvsa,3s96kq6i9qhrzzey9txfw0d4jktdt8,ABOSeNIv,2020-0188,2020-06-04,20:33:01,21:00:08,NA,incomplete,93,shape,1,1,right,Red_Triangle_Dots_4.jpg,Blue_Plus_Stripes_4.jpg,Green_Triangle_Chess_3.jpg,left,904.5100000002421,false,low,NA,NA,NA,NA,NA,NA,NA,false
ABOSeNIv,3ha5odm5ld5arw3bkcnh3xryudvvsa,3s96kq6i9qhrzzey9txfw0d4jktdt8,ABOSeNIv,2020-0188,2020-06-04,20:33:01,21:00:08,NA,incomplete,94,shape,1,1,left,Green_Triangle_Grid_2.jpg,Purple_Triangle_Dots_4.jpg,Blue_Star_Stripes_2.jpg,right,1072.7399999960326,false,low,NA,NA,NA,NA,NA,NA,NA,false
ABOSeNIv,3ha5odm5ld5arw3bkcnh3xryudvvsa,3s96kq6i9qhrzzey9txfw0d4jktdt8,ABOSeNIv,2020-0188,2020-06-04,20:33:01,21:00:08,NA,incomplete,95,shape,1,0,left,Blue_Triangle_Grid_1.jpg,Red_Triangle_Chess_2.jpg,Green_Star_Stripes_1.jpg,right,882.1199999947567,false,low,NA,NA,NA,NA,NA,NA,NA,false
ABOSeNIv,3ha5odm5ld5arw3bkcnh3xryudvvsa,3s96kq6i9qhrzzey9txfw0d4jktdt8,ABOSeNIv,2020-0188,2020-06-04,20:33:01,21:00:08,NA,incomplete,96,shape,1,1,left,Green_Plus_Grid_2.jpg,Red_Plus_Stripes_3.jpg,Purple_Circle_Chess_2.jpg,right,923.5850000041537,false,low,NA,NA,NA,NA,NA,NA,NA,false
ABOSeNIv,3ha5odm5ld5arw3bkcnh3xryudvvsa,3s96kq6i9qhrzzey9txfw0d4jktdt8,ABOSeNIv,2020-0188,2020-06-04,20:33:01,21:00:08,NA,incomplete,97,shape,1,1,right,Blue_Triangle_Grid_3.jpg,Red_Star_Dots_3.jpg,Purple_Triangle_Stripes_2.jpg,left,867.0050000001211,false,low,NA,NA,NA,NA,NA,NA,NA,false
ABOSeNIv,3ha5odm5ld5arw3bkcnh3xryudvvsa,3s96kq6i9qhrzzey9txfw0d4jktdt8,ABOSeNIv,2020-0188,2020-06-04,20:33:01,21:00:08,NA,incomplete,98,shape,1,1,left,Purple_Plus_Grid_2.jpg,Green_Plus_Chess_3.jpg,Red_Triangle_Stripes_2.jpg,left,876.5349999957252,true,low,NA,NA,NA,NA,NA,NA,NA,false
ABOSeNIv,3ha5odm5ld5arw3bkcnh3xryudvvsa,3s96kq6i9qhrzzey9txfw0d4jktdt8,ABOSeNIv,2020-0188,2020-06-04,20:33:01,21:00:08,NA,incomplete,99,shape,1,1,left,Green_Circle_Chess_3.jpg,Red_Circle_Grid_1.jpg,Blue_Triangle_Dots_3.jpg,left,926.455000000773,true,low,NA,NA,NA,NA,NA,NA,NA,false
ABOSeNIv,3ha5odm5ld5arw3bkcnh3xryudvvsa,3s96kq6i9qhrzzey9txfw0d4jktdt8,ABOSeNIv,2020-0188,2020-06-04,20:33:01,21:00:08,NA,incomplete,100,shape,1,1,right,Red_Star_Chess_4.jpg,Purple_Circle_Stripes_4.jpg,Green_Star_Grid_2.jpg,right,861.4099999975879,true,low,NA,NA,NA,NA,NA,NA,NA,false
ABOSeNIv,3ha5odm5ld5arw3bkcnh3xryudvvsa,3s96kq6i9qhrzzey9txfw0d4jktdt8,ABOSeNIv,2020-0188,2020-06-04,20:33:01,21:00:08,NA,incomplete,101,shape,1,1,left,Red_Triangle_Grid_1.jpg,Green_Triangle_Stripes_4.jpg,Purple_Circle_Dots_1.jpg,left,831.6800000029616,true,low,NA,NA,NA,NA,NA,NA,NA,false
ABOSeNIv,3ha5odm5ld5arw3bkcnh3xryudvvsa,3s96kq6i9qhrzzey9txfw0d4jktdt8,ABOSeNIv,2020-0188,2020-06-04,20:33:01,21:00:08,NA,incomplete,102,shape,1,1,left,Red_Circle_Dots_1.jpg,Purple_Circle_Stripes_3.jpg,Green_Star_Grid_1.jpg,left,723.0800000033341,true,low,NA,NA,NA,NA,NA,NA,NA,false
ABOSeNIv,3ha5odm5ld5arw3bkcnh3xryudvvsa,3s96kq6i9qhrzzey9txfw0d4jktdt8,ABOSeNIv,2020-0188,2020-06-04,20:33:01,21:00:08,NA,incomplete,103,shape,1,1,left,Red_Triangle_Grid_2.jpg,Purple_Triangle_Chess_3.jpg,Green_Star_Stripes_2.jpg,left,946.5350000027101,true,low,NA,NA,NA,NA,NA,NA,NA,false
ABOSeNIv,3ha5odm5ld5arw3bkcnh3xryudvvsa,3s96kq6i9qhrzzey9txfw0d4jktdt8,ABOSeNIv,2020-0188,2020-06-04,20:33:01,21:00:08,NA,incomplete,104,shape,1,0,left,Red_Circle_Dots_3.jpg,Blue_Circle_Grid_4.jpg,Purple_Triangle_Chess_3.jpg,left,721.7499999969732,true,low,NA,NA,NA,NA,NA,NA,NA,false
ABOSeNIv,3ha5odm5ld5arw3bkcnh3xryudvvsa,3s96kq6i9qhrzzey9txfw0d4jktdt8,ABOSeNIv,2020-0188,2020-06-04,20:33:01,21:00:08,NA,incomplete,105,shape,1,1,left,Green_Star_Chess_4.jpg,Purple_Star_Grid_2.jpg,Blue_Circle_Dots_4.jpg,left,720.7899999993388,true,low,NA,NA,NA,NA,NA,NA,NA,false
ABOSeNIv,3ha5odm5ld5arw3bkcnh3xryudvvsa,3s96kq6i9qhrzzey9txfw0d4jktdt8,ABOSeNIv,2020-0188,2020-06-04,20:33:01,21:00:08,NA,incomplete,106,shape,1,1,left,Green_Star_Chess_4.jpg,Blue_Star_Dots_1.jpg,Purple_Plus_Grid_4.jpg,left,728.2199999974109,true,low,NA,NA,NA,NA,NA,NA,NA,false
ABOSeNIv,3ha5odm5ld5arw3bkcnh3xryudvvsa,3s96kq6i9qhrzzey9txfw0d4jktdt8,ABOSeNIv,2020-0188,2020-06-04,20:33:01,21:00:08,NA,incomplete,107,shape,1,0,left,Purple_Triangle_Grid_4.jpg,Blue_Triangle_Stripes_1.jpg,Red_Star_Chess_4.jpg,left,679.6399999950081,true,low,NA,NA,NA,NA,NA,NA,NA,false
ABOSeNIv,3ha5odm5ld5arw3bkcnh3xryudvvsa,3s96kq6i9qhrzzey9txfw0d4jktdt8,ABOSeNIv,2020-0188,2020-06-04,20:33:01,21:00:08,NA,incomplete,108,shape,1,0,right,Blue_Triangle_Dots_4.jpg,Green_Circle_Grid_4.jpg,Red_Triangle_Chess_1.jpg,right,729.1299999996554,true,low,NA,NA,NA,NA,NA,NA,NA,false
ABOSeNIv,3ha5odm5ld5arw3bkcnh3xryudvvsa,3s96kq6i9qhrzzey9txfw0d4jktdt8,ABOSeNIv,2020-0188,2020-06-04,20:33:01,21:00:08,NA,incomplete,109,shape,1,1,right,Red_Triangle_Dots_4.jpg,Green_Star_Chess_4.jpg,Blue_Triangle_Grid_3.jpg,right,721.2399999988265,true,low,NA,NA,NA,NA,NA,NA,NA,false
ABOSeNIv,3ha5odm5ld5arw3bkcnh3xryudvvsa,3s96kq6i9qhrzzey9txfw0d4jktdt8,ABOSeNIv,2020-0188,2020-06-04,20:33:01,21:00:08,NA,incomplete,110,shape,1,1,left,Red_Triangle_Stripes_4.jpg,Purple_Triangle_Dots_3.jpg,Green_Plus_Grid_4.jpg,left,680.0650000004098,true,low,NA,NA,NA,NA,NA,NA,NA,false
ABOSeNIv,3ha5odm5ld5arw3bkcnh3xryudvvsa,3s96kq6i9qhrzzey9txfw0d4jktdt8,ABOSeNIv,2020-0188,2020-06-04,20:33:01,21:00:08,NA,incomplete,111,shape,1,0,left,Blue_Triangle_Stripes_3.jpg,Green_Triangle_Dots_1.jpg,Purple_Plus_Grid_3.jpg,left,737.399999998277,true,low,NA,NA,NA,NA,NA,NA,NA,false
ABOSeNIv,3ha5odm5ld5arw3bkcnh3xryudvvsa,3s96kq6i9qhrzzey9txfw0d4jktdt8,ABOSeNIv,2020-0188,2020-06-04,20:33:01,21:00:08,NA,incomplete,112,shape,1,1,left,Purple_Star_Stripes_4.jpg,Blue_Star_Grid_3.jpg,Green_Triangle_Dots_4.jpg,left,712.1899999983143,true,low,NA,NA,NA,NA,NA,NA,NA,false
ABOSeNIv,3ha5odm5ld5arw3bkcnh3xryudvvsa,3s96kq6i9qhrzzey9txfw0d4jktdt8,ABOSeNIv,2020-0188,2020-06-04,20:33:01,21:00:08,NA,incomplete,113,shape,1,1,left,Red_Triangle_Stripes_1.jpg,Green_Triangle_Grid_2.jpg,Blue_Plus_Dots_1.jpg,left,688.4399999980815,true,low,NA,NA,NA,NA,NA,NA,NA,false
ABOSeNIv,3ha5odm5ld5arw3bkcnh3xryudvvsa,3s96kq6i9qhrzzey9txfw0d4jktdt8,ABOSeNIv,2020-0188,2020-06-04,20:33:01,21:00:08,NA,incomplete,114,shape,1,1,right,Green_Circle_Dots_3.jpg,Blue_Star_Grid_3.jpg,Purple_Circle_Stripes_1.jpg,right,705.6299999966286,true,low,NA,NA,NA,NA,NA,NA,NA,false
ABOSeNIv,3ha5odm5ld5arw3bkcnh3xryudvvsa,3s96kq6i9qhrzzey9txfw0d4jktdt8,ABOSeNIv,2020-0188,2020-06-04,20:33:01,21:00:08,NA,incomplete,115,shape,1,1,left,Green_Triangle_Stripes_4.jpg,Red_Triangle_Dots_1.jpg,Purple_Star_Grid_4.jpg,left,713.1050000027753,true,low,NA,NA,NA,NA,NA,NA,NA,false
ABOSeNIv,3ha5odm5ld5arw3bkcnh3xryudvvsa,3s96kq6i9qhrzzey9txfw0d4jktdt8,ABOSeNIv,2020-0188,2020-06-04,20:33:01,21:00:08,NA,incomplete,116,shape,1,1,right,Green_Triangle_Grid_3.jpg,Purple_Star_Chess_3.jpg,Blue_Triangle_Stripes_1.jpg,right,753.3400000031106,true,low,NA,NA,NA,NA,NA,NA,NA,false
ABOSeNIv,3ha5odm5ld5arw3bkcnh3xryudvvsa,3s96kq6i9qhrzzey9txfw0d4jktdt8,ABOSeNIv,2020-0188,2020-06-04,20:33:01,21:00:08,NA,incomplete,117,shape,1,1,right,Green_Plus_Grid_4.jpg,Blue_Circle_Dots_4.jpg,Red_Plus_Chess_3.jpg,right,775.5499999986496,true,low,NA,NA,NA,NA,NA,NA,NA,false
ABOSeNIv,3ha5odm5ld5arw3bkcnh3xryudvvsa,3s96kq6i9qhrzzey9txfw0d4jktdt8,ABOSeNIv,2020-0188,2020-06-04,20:33:01,21:00:08,NA,incomplete,118,shape,1,1,left,Green_Circle_Chess_1.jpg,Red_Circle_Grid_3.jpg,Blue_Plus_Stripes_1.jpg,left,645.0399999958463,true,low,NA,NA,NA,NA,NA,NA,NA,false
ABOSeNIv,3ha5odm5ld5arw3bkcnh3xryudvvsa,3s96kq6i9qhrzzey9txfw0d4jktdt8,ABOSeNIv,2020-0188,2020-06-04,20:33:01,21:00:08,NA,incomplete,119,shape,1,0,right,Purple_Plus_Stripes_4.jpg,Blue_Triangle_Grid_4.jpg,Red_Plus_Chess_2.jpg,right,800.159999998752,true,low,NA,NA,NA,NA,NA,NA,NA,false
ABOSeNIv,3ha5odm5ld5arw3bkcnh3xryudvvsa,3s96kq6i9qhrzzey9txfw0d4jktdt8,ABOSeNIv,2020-0188,2020-06-04,20:33:01,21:00:08,NA,incomplete,120,race,2,1,right,A_M_12.jpg,C_M_14.jpg,A_F_05.jpg,NA,NA,NA,low,NA,NA,NA,NA,NA,NA,NA,false
ABOSeNIv,3ha5odm5ld5arw3bkcnh3xryudvvsa,3s96kq6i9qhrzzey9txfw0d4jktdt8,ABOSeNIv,2020-0188,2020-06-04,20:33:01,21:00:08,NA,incomplete,121,race,2,1,left,C_M_14.jpg,C_F_06.jpg,A_M_16.jpg,right,747.9249999958556,false,low,NA,NA,NA,NA,NA,NA,NA,false
ABOSeNIv,3ha5odm5ld5arw3bkcnh3xryudvvsa,3s96kq6i9qhrzzey9txfw0d4jktdt8,ABOSeNIv,2020-0188,2020-06-04,20:33:01,21:00:08,NA,incomplete,122,race,2,1,left,A_M_11.jpg,A_F_07.jpg,C_M_01.jpg,right,1050.389999996638,false,low,NA,NA,NA,NA,NA,NA,NA,false
ABOSeNIv,3ha5odm5ld5arw3bkcnh3xryudvvsa,3s96kq6i9qhrzzey9txfw0d4jktdt8,ABOSeNIv,2020-0188,2020-06-04,20:33:01,21:00:08,NA,incomplete,123,race,2,1,left,A_M_08.jpg,A_F_05.jpg,C_M_10.jpg,left,828.6549999974668,true,low,NA,NA,NA,NA,NA,NA,NA,false
ABOSeNIv,3ha5odm5ld5arw3bkcnh3xryudvvsa,3s96kq6i9qhrzzey9txfw0d4jktdt8,ABOSeNIv,2020-0188,2020-06-04,20:33:01,21:00:08,NA,incomplete,124,race,2,0,right,A_F_05.jpg,C_F_14.jpg,A_M_15.jpg,right,800.4199999996927,true,low,NA,NA,NA,NA,NA,NA,NA,false
ABOSeNIv,3ha5odm5ld5arw3bkcnh3xryudvvsa,3s96kq6i9qhrzzey9txfw0d4jktdt8,ABOSeNIv,2020-0188,2020-06-04,20:33:01,21:00:08,NA,incomplete,125,race,2,1,right,A_M_06.jpg,C_M_11.jpg,A_F_08.jpg,right,819.6650000028312,true,low,NA,NA,NA,NA,NA,NA,NA,false
ABOSeNIv,3ha5odm5ld5arw3bkcnh3xryudvvsa,3s96kq6i9qhrzzey9txfw0d4jktdt8,ABOSeNIv,2020-0188,2020-06-04,20:33:01,21:00:08,NA,incomplete,126,race,2,0,right,A_F_09.jpg,C_F_10.jpg,A_M_04.jpg,left,903.7300000053365,false,low,NA,NA,NA,NA,NA,NA,NA,false
ABOSeNIv,3ha5odm5ld5arw3bkcnh3xryudvvsa,3s96kq6i9qhrzzey9txfw0d4jktdt8,ABOSeNIv,2020-0188,2020-06-04,20:33:01,21:00:08,NA,incomplete,127,race,2,1,right,A_M_14.jpg,C_M_07.jpg,A_F_06.jpg,left,936.1350000035018,false,low,NA,NA,NA,NA,NA,NA,NA,false
ABOSeNIv,3ha5odm5ld5arw3bkcnh3xryudvvsa,3s96kq6i9qhrzzey9txfw0d4jktdt8,ABOSeNIv,2020-0188,2020-06-04,20:33:01,21:00:08,NA,incomplete,128,race,2,1,right,A_F_07.jpg,C_F_11.jpg,A_M_12.jpg,left,870.8400000033434,false,low,NA,NA,NA,NA,NA,NA,NA,false
ABOSeNIv,3ha5odm5ld5arw3bkcnh3xryudvvsa,3s96kq6i9qhrzzey9txfw0d4jktdt8,ABOSeNIv,2020-0188,2020-06-04,20:33:01,21:00:08,NA,incomplete,129,race,2,1,right,C_F_16.jpg,A_F_03.jpg,C_M_01.jpg,right,816.1699999982957,true,low,NA,NA,NA,NA,NA,NA,NA,false
ABOSeNIv,3ha5odm5ld5arw3bkcnh3xryudvvsa,3s96kq6i9qhrzzey9txfw0d4jktdt8,ABOSeNIv,2020-0188,2020-06-04,20:33:01,21:00:08,NA,incomplete,130,race,2,1,right,A_M_09.jpg,C_M_14.jpg,A_F_12.jpg,right,804.7349999977741,true,low,NA,NA,NA,NA,NA,NA,NA,false
ABOSeNIv,3ha5odm5ld5arw3bkcnh3xryudvvsa,3s96kq6i9qhrzzey9txfw0d4jktdt8,ABOSeNIv,2020-0188,2020-06-04,20:33:01,21:00:08,NA,incomplete,131,race,2,1,right,A_F_06.jpg,C_F_14.jpg,A_M_03.jpg,right,792.4050000002608,true,low,NA,NA,NA,NA,NA,NA,NA,false
ABOSeNIv,3ha5odm5ld5arw3bkcnh3xryudvvsa,3s96kq6i9qhrzzey9txfw0d4jktdt8,ABOSeNIv,2020-0188,2020-06-04,20:33:01,21:00:08,NA,incomplete,132,race,2,1,right,C_M_07.jpg,A_M_12.jpg,C_F_09.jpg,right,933.1900000034366,true,low,NA,NA,NA,NA,NA,NA,NA,false
ABOSeNIv,3ha5odm5ld5arw3bkcnh3xryudvvsa,3s96kq6i9qhrzzey9txfw0d4jktdt8,ABOSeNIv,2020-0188,2020-06-04,20:33:01,21:00:08,NA,incomplete,133,race,2,0,left,A_F_04.jpg,A_M_14.jpg,C_F_05.jpg,left,980.8300000003073,true,low,NA,NA,NA,NA,NA,NA,NA,false
ABOSeNIv,3ha5odm5ld5arw3bkcnh3xryudvvsa,3s96kq6i9qhrzzey9txfw0d4jktdt8,ABOSeNIv,2020-0188,2020-06-04,20:33:01,21:00:08,NA,incomplete,134,race,2,1,left,A_F_14.jpg,A_M_09.jpg,C_F_16.jpg,left,938.3349999987986,true,low,NA,NA,NA,NA,NA,NA,NA,false
ABOSeNIv,3ha5odm5ld5arw3bkcnh3xryudvvsa,3s96kq6i9qhrzzey9txfw0d4jktdt8,ABOSeNIv,2020-0188,2020-06-04,20:33:01,21:00:08,NA,incomplete,135,race,2,1,right,A_F_12.jpg,C_F_03.jpg,A_M_06.jpg,right,737.3549999974202,true,low,NA,NA,NA,NA,NA,NA,NA,false
ABOSeNIv,3ha5odm5ld5arw3bkcnh3xryudvvsa,3s96kq6i9qhrzzey9txfw0d4jktdt8,ABOSeNIv,2020-0188,2020-06-04,20:33:01,21:00:08,NA,incomplete,136,race,2,1,left,A_M_02.jpg,A_F_10.jpg,C_M_01.jpg,left,807.6900000015739,true,low,NA,NA,NA,NA,NA,NA,NA,false
ABOSeNIv,3ha5odm5ld5arw3bkcnh3xryudvvsa,3s96kq6i9qhrzzey9txfw0d4jktdt8,ABOSeNIv,2020-0188,2020-06-04,20:33:01,21:00:08,NA,incomplete,137,race,2,1,right,A_M_11.jpg,C_M_14.jpg,A_F_03.jpg,right,811.5899999975227,true,low,NA,NA,NA,NA,NA,NA,NA,false
ABOSeNIv,3ha5odm5ld5arw3bkcnh3xryudvvsa,3s96kq6i9qhrzzey9txfw0d4jktdt8,ABOSeNIv,2020-0188,2020-06-04,20:33:01,21:00:08,NA,incomplete,138,race,2,1,right,C_M_06.jpg,A_M_12.jpg,C_F_01.jpg,right,1072.1150000027847,true,low,NA,NA,NA,NA,NA,NA,NA,false
ABOSeNIv,3ha5odm5ld5arw3bkcnh3xryudvvsa,3s96kq6i9qhrzzey9txfw0d4jktdt8,ABOSeNIv,2020-0188,2020-06-04,20:33:01,21:00:08,NA,incomplete,139,race,2,1,right,C_M_16.jpg,A_M_13.jpg,C_F_01.jpg,right,785.1649999937508,true,low,NA,NA,NA,NA,NA,NA,NA,false
ABOSeNIv,3ha5odm5ld5arw3bkcnh3xryudvvsa,3s96kq6i9qhrzzey9txfw0d4jktdt8,ABOSeNIv,2020-0188,2020-06-04,20:33:01,21:00:08,NA,incomplete,140,gender,3,1,right,A_F_04.jpg,A_M_15.jpg,C_F_12.jpg,left,854.630000001518,false,low,NA,NA,NA,NA,NA,NA,NA,false
ABOSeNIv,3ha5odm5ld5arw3bkcnh3xryudvvsa,3s96kq6i9qhrzzey9txfw0d4jktdt8,ABOSeNIv,2020-0188,2020-06-04,20:33:01,21:00:08,NA,incomplete,141,gender,3,0,left,A_F_11.jpg,C_F_12.jpg,A_M_10.jpg,right,712.5099999974482,false,low,NA,NA,NA,NA,NA,NA,NA,false
ABOSeNIv,3ha5odm5ld5arw3bkcnh3xryudvvsa,3s96kq6i9qhrzzey9txfw0d4jktdt8,ABOSeNIv,2020-0188,2020-06-04,20:33:01,21:00:08,NA,incomplete,142,gender,3,1,right,C_M_11.jpg,C_F_07.jpg,A_M_04.jpg,left,984.1299999970943,false,low,NA,NA,NA,NA,NA,NA,NA,false
ABOSeNIv,3ha5odm5ld5arw3bkcnh3xryudvvsa,3s96kq6i9qhrzzey9txfw0d4jktdt8,ABOSeNIv,2020-0188,2020-06-04,20:33:01,21:00:08,NA,incomplete,143,gender,3,0,right,A_F_11.jpg,A_M_06.jpg,C_F_13.jpg,right,989.4500000011176,true,low,NA,NA,NA,NA,NA,NA,NA,false
ABOSeNIv,3ha5odm5ld5arw3bkcnh3xryudvvsa,3s96kq6i9qhrzzey9txfw0d4jktdt8,ABOSeNIv,2020-0188,2020-06-04,20:33:01,21:00:08,NA,incomplete,144,gender,3,1,right,A_M_03.jpg,A_F_15.jpg,C_M_01.jpg,left,657.8450000016019,false,low,NA,NA,NA,NA,NA,NA,NA,false
ABOSeNIv,3ha5odm5ld5arw3bkcnh3xryudvvsa,3s96kq6i9qhrzzey9txfw0d4jktdt8,ABOSeNIv,2020-0188,2020-06-04,20:33:01,21:00:08,NA,incomplete,145,gender,3,1,right,C_F_10.jpg,C_M_06.jpg,A_F_08.jpg,right,1036.7249999979977,true,low,NA,NA,NA,NA,NA,NA,NA,false
ABOSeNIv,3ha5odm5ld5arw3bkcnh3xryudvvsa,3s96kq6i9qhrzzey9txfw0d4jktdt8,ABOSeNIv,2020-0188,2020-06-04,20:33:01,21:00:08,NA,incomplete,146,gender,3,1,left,C_F_08.jpg,A_F_07.jpg,C_M_03.jpg,left,814.9549999944866,true,low,NA,NA,NA,NA,NA,NA,NA,false
ABOSeNIv,3ha5odm5ld5arw3bkcnh3xryudvvsa,3s96kq6i9qhrzzey9txfw0d4jktdt8,ABOSeNIv,2020-0188,2020-06-04,20:33:01,21:00:08,NA,incomplete,147,gender,3,0,right,C_M_12.jpg,C_F_06.jpg,A_M_10.jpg,right,714.8750000051223,true,low,NA,NA,NA,NA,NA,NA,NA,false
ABOSeNIv,3ha5odm5ld5arw3bkcnh3xryudvvsa,3s96kq6i9qhrzzey9txfw0d4jktdt8,ABOSeNIv,2020-0188,2020-06-04,20:33:01,21:00:08,NA,incomplete,148,gender,3,1,right,C_M_01.jpg,C_F_03.jpg,A_M_02.jpg,right,859.4300000041258,true,low,NA,NA,NA,NA,NA,NA,NA,false
ABOSeNIv,3ha5odm5ld5arw3bkcnh3xryudvvsa,3s96kq6i9qhrzzey9txfw0d4jktdt8,ABOSeNIv,2020-0188,2020-06-04,20:33:01,21:00:08,NA,incomplete,149,gender,3,1,right,C_F_03.jpg,C_M_10.jpg,A_F_08.jpg,right,893.3850000030361,true,low,NA,NA,NA,NA,NA,NA,NA,false
ABOSeNIv,3ha5odm5ld5arw3bkcnh3xryudvvsa,3s96kq6i9qhrzzey9txfw0d4jktdt8,ABOSeNIv,2020-0188,2020-06-04,20:33:01,21:00:08,NA,incomplete,150,gender,3,1,right,A_M_02.jpg,A_F_06.jpg,C_M_07.jpg,right,878.8750000020955,true,low,NA,NA,NA,NA,NA,NA,NA,false
ABOSeNIv,3ha5odm5ld5arw3bkcnh3xryudvvsa,3s96kq6i9qhrzzey9txfw0d4jktdt8,ABOSeNIv,2020-0188,2020-06-04,20:33:01,21:00:08,NA,incomplete,151,gender,3,1,right,A_F_01.jpg,A_M_04.jpg,C_F_09.jpg,right,1111.7099999976344,true,low,NA,NA,NA,NA,NA,NA,NA,false
ABOSeNIv,3ha5odm5ld5arw3bkcnh3xryudvvsa,3s96kq6i9qhrzzey9txfw0d4jktdt8,ABOSeNIv,2020-0188,2020-06-04,20:33:01,21:00:08,NA,incomplete,152,gender,3,1,left,A_F_04.jpg,C_F_06.jpg,A_M_10.jpg,left,751.3899999975692,true,low,NA,NA,NA,NA,NA,NA,NA,false
ABOSeNIv,3ha5odm5ld5arw3bkcnh3xryudvvsa,3s96kq6i9qhrzzey9txfw0d4jktdt8,ABOSeNIv,2020-0188,2020-06-04,20:33:01,21:00:08,NA,incomplete,153,gender,3,0,right,C_M_01.jpg,C_F_15.jpg,A_M_09.jpg,right,877.7199999967124,true,low,NA,NA,NA,NA,NA,NA,NA,false
ABOSeNIv,3ha5odm5ld5arw3bkcnh3xryudvvsa,3s96kq6i9qhrzzey9txfw0d4jktdt8,ABOSeNIv,2020-0188,2020-06-04,20:33:01,21:00:08,NA,incomplete,154,gender,3,1,right,A_F_13.jpg,A_M_10.jpg,C_F_15.jpg,right,799.5349999982864,true,low,NA,NA,NA,NA,NA,NA,NA,false
ABOSeNIv,3ha5odm5ld5arw3bkcnh3xryudvvsa,3s96kq6i9qhrzzey9txfw0d4jktdt8,ABOSeNIv,2020-0188,2020-06-04,20:33:01,21:00:08,NA,incomplete,155,gender,3,1,left,C_F_13.jpg,A_F_10.jpg,C_M_06.jpg,left,828.7200000050943,true,low,NA,NA,NA,NA,NA,NA,NA,false
ABOSeNIv,3ha5odm5ld5arw3bkcnh3xryudvvsa,3s96kq6i9qhrzzey9txfw0d4jktdt8,ABOSeNIv,2020-0188,2020-06-04,20:33:01,21:00:08,NA,incomplete,156,gender,3,1,right,C_M_06.jpg,C_F_14.jpg,A_M_03.jpg,right,671.6599999999162,true,low,NA,NA,NA,NA,NA,NA,NA,false
ABOSeNIv,3ha5odm5ld5arw3bkcnh3xryudvvsa,3s96kq6i9qhrzzey9txfw0d4jktdt8,ABOSeNIv,2020-0188,2020-06-04,20:33:01,21:00:08,NA,incomplete,157,gender,3,1,left,C_F_01.jpg,A_F_11.jpg,C_M_12.jpg,left,953.150000001071,true,low,NA,NA,NA,NA,NA,NA,NA,false
ABOSeNIv,3ha5odm5ld5arw3bkcnh3xryudvvsa,3s96kq6i9qhrzzey9txfw0d4jktdt8,ABOSeNIv,2020-0188,2020-06-04,20:33:01,21:00:08,NA,incomplete,158,gender,3,1,left,C_M_13.jpg,A_M_06.jpg,C_F_10.jpg,left,823.3249999973923,true,low,NA,NA,NA,NA,NA,NA,NA,false
ABOSeNIv,3ha5odm5ld5arw3bkcnh3xryudvvsa,3s96kq6i9qhrzzey9txfw0d4jktdt8,ABOSeNIv,2020-0188,2020-06-04,20:33:01,21:00:08,NA,incomplete,159,gender,3,1,left,A_M_13.jpg,C_M_11.jpg,A_F_02.jpg,left,658.7399999990594,true,low,NA,NA,NA,NA,NA,NA,NA,false
ABOSeNIv,3ha5odm5ld5arw3bkcnh3xryudvvsa,3s96kq6i9qhrzzey9txfw0d4jktdt8,ABOSeNIv,2020-0188,2020-06-04,20:33:01,21:00:08,NA,incomplete,160,race,2,0,left,A_F_15.jpg,A_M_16.jpg,C_F_05.jpg,right,684.6800000057556,false,low,NA,NA,NA,NA,NA,NA,NA,false
ABOSeNIv,3ha5odm5ld5arw3bkcnh3xryudvvsa,3s96kq6i9qhrzzey9txfw0d4jktdt8,ABOSeNIv,2020-0188,2020-06-04,20:33:01,21:00:08,NA,incomplete,161,race,2,1,left,C_F_10.jpg,C_M_11.jpg,A_F_01.jpg,right,917.170000000624,false,low,NA,NA,NA,NA,NA,NA,NA,false
ABOSeNIv,3ha5odm5ld5arw3bkcnh3xryudvvsa,3s96kq6i9qhrzzey9txfw0d4jktdt8,ABOSeNIv,2020-0188,2020-06-04,20:33:01,21:00:08,NA,incomplete,162,race,2,1,left,C_M_16.jpg,C_F_06.jpg,A_M_03.jpg,right,684.484999998007,false,low,NA,NA,NA,NA,NA,NA,NA,false
ABOSeNIv,3ha5odm5ld5arw3bkcnh3xryudvvsa,3s96kq6i9qhrzzey9txfw0d4jktdt8,ABOSeNIv,2020-0188,2020-06-04,20:33:01,21:00:08,NA,incomplete,163,race,2,1,left,C_F_16.jpg,C_M_01.jpg,A_F_04.jpg,left,934.0149999989662,true,low,NA,NA,NA,NA,NA,NA,NA,false
ABOSeNIv,3ha5odm5ld5arw3bkcnh3xryudvvsa,3s96kq6i9qhrzzey9txfw0d4jktdt8,ABOSeNIv,2020-0188,2020-06-04,20:33:01,21:00:08,NA,incomplete,164,race,2,1,left,A_M_15.jpg,A_F_08.jpg,C_M_03.jpg,left,652.6249999951106,true,low,NA,NA,NA,NA,NA,NA,NA,false
ABOSeNIv,3ha5odm5ld5arw3bkcnh3xryudvvsa,3s96kq6i9qhrzzey9txfw0d4jktdt8,ABOSeNIv,2020-0188,2020-06-04,20:33:01,21:00:08,NA,incomplete,165,race,2,0,left,A_M_14.jpg,A_F_12.jpg,C_M_16.jpg,left,718.894999998156,true,low,NA,NA,NA,NA,NA,NA,NA,false
ABOSeNIv,3ha5odm5ld5arw3bkcnh3xryudvvsa,3s96kq6i9qhrzzey9txfw0d4jktdt8,ABOSeNIv,2020-0188,2020-06-04,20:33:01,21:00:08,NA,incomplete,166,race,2,1,left,C_F_11.jpg,C_M_09.jpg,A_F_05.jpg,right,974.2949999999255,false,low,NA,NA,NA,NA,NA,NA,NA,false
ABOSeNIv,3ha5odm5ld5arw3bkcnh3xryudvvsa,3s96kq6i9qhrzzey9txfw0d4jktdt8,ABOSeNIv,2020-0188,2020-06-04,20:33:01,21:00:08,NA,incomplete,167,race,2,0,left,A_F_16.jpg,A_M_03.jpg,C_F_11.jpg,left,907.5499999963213,true,low,NA,NA,NA,NA,NA,NA,NA,false
ABOSeNIv,3ha5odm5ld5arw3bkcnh3xryudvvsa,3s96kq6i9qhrzzey9txfw0d4jktdt8,ABOSeNIv,2020-0188,2020-06-04,20:33:01,21:00:08,NA,incomplete,168,race,2,1,right,C_M_14.jpg,A_M_01.jpg,C_F_16.jpg,right,780.0599999972619,true,low,NA,NA,NA,NA,NA,NA,NA,false
ABOSeNIv,3ha5odm5ld5arw3bkcnh3xryudvvsa,3s96kq6i9qhrzzey9txfw0d4jktdt8,ABOSeNIv,2020-0188,2020-06-04,20:33:01,21:00:08,NA,incomplete,169,race,2,1,right,C_M_08.jpg,A_M_12.jpg,C_F_04.jpg,right,769.4399999964517,true,low,NA,NA,NA,NA,NA,NA,NA,false
ABOSeNIv,3ha5odm5ld5arw3bkcnh3xryudvvsa,3s96kq6i9qhrzzey9txfw0d4jktdt8,ABOSeNIv,2020-0188,2020-06-04,20:33:01,21:00:08,NA,incomplete,170,race,2,0,right,C_M_09.jpg,A_M_14.jpg,C_F_15.jpg,right,767.3649999997579,true,low,NA,NA,NA,NA,NA,NA,NA,false
ABOSeNIv,3ha5odm5ld5arw3bkcnh3xryudvvsa,3s96kq6i9qhrzzey9txfw0d4jktdt8,ABOSeNIv,2020-0188,2020-06-04,20:33:01,21:00:08,NA,incomplete,171,race,2,1,right,C_M_14.jpg,A_M_10.jpg,C_F_09.jpg,right,796.7250000000931,true,low,NA,NA,NA,NA,NA,NA,NA,false
ABOSeNIv,3ha5odm5ld5arw3bkcnh3xryudvvsa,3s96kq6i9qhrzzey9txfw0d4jktdt8,ABOSeNIv,2020-0188,2020-06-04,20:33:01,21:00:08,NA,incomplete,172,race,2,1,left,C_M_07.jpg,C_F_05.jpg,A_M_13.jpg,left,977.7099999992643,true,low,NA,NA,NA,NA,NA,NA,NA,false
ABOSeNIv,3ha5odm5ld5arw3bkcnh3xryudvvsa,3s96kq6i9qhrzzey9txfw0d4jktdt8,ABOSeNIv,2020-0188,2020-06-04,20:33:01,21:00:08,NA,incomplete,173,race,2,0,right,A_F_10.jpg,C_F_14.jpg,A_M_12.jpg,right,719.0100000007078,true,low,NA,NA,NA,NA,NA,NA,NA,false
ABOSeNIv,3ha5odm5ld5arw3bkcnh3xryudvvsa,3s96kq6i9qhrzzey9txfw0d4jktdt8,ABOSeNIv,2020-0188,2020-06-04,20:33:01,21:00:08,NA,incomplete,174,race,2,1,right,C_F_08.jpg,A_F_16.jpg,C_M_14.jpg,right,902.710000002291,true,low,NA,NA,NA,NA,NA,NA,NA,false
ABOSeNIv,3ha5odm5ld5arw3bkcnh3xryudvvsa,3s96kq6i9qhrzzey9txfw0d4jktdt8,ABOSeNIv,2020-0188,2020-06-04,20:33:01,21:00:08,NA,incomplete,175,race,2,0,left,C_M_13.jpg,C_F_16.jpg,A_M_15.jpg,left,807.3050000020303,true,low,NA,NA,NA,NA,NA,NA,NA,false
ABOSeNIv,3ha5odm5ld5arw3bkcnh3xryudvvsa,3s96kq6i9qhrzzey9txfw0d4jktdt8,ABOSeNIv,2020-0188,2020-06-04,20:33:01,21:00:08,NA,incomplete,176,race,2,1,right,A_M_11.jpg,C_M_09.jpg,A_F_06.jpg,right,690.9099999975879,true,low,NA,NA,NA,NA,NA,NA,NA,false
ABOSeNIv,3ha5odm5ld5arw3bkcnh3xryudvvsa,3s96kq6i9qhrzzey9txfw0d4jktdt8,ABOSeNIv,2020-0188,2020-06-04,20:33:01,21:00:08,NA,incomplete,177,race,2,1,right,A_F_01.jpg,C_F_04.jpg,A_M_07.jpg,right,699.8250000032131,true,low,NA,NA,NA,NA,NA,NA,NA,false
ABOSeNIv,3ha5odm5ld5arw3bkcnh3xryudvvsa,3s96kq6i9qhrzzey9txfw0d4jktdt8,ABOSeNIv,2020-0188,2020-06-04,20:33:01,21:00:08,NA,incomplete,178,race,2,1,right,C_M_14.jpg,A_M_07.jpg,C_F_01.jpg,right,788.4899999990594,true,low,NA,NA,NA,NA,NA,NA,NA,false
ABOSeNIv,3ha5odm5ld5arw3bkcnh3xryudvvsa,3s96kq6i9qhrzzey9txfw0d4jktdt8,ABOSeNIv,2020-0188,2020-06-04,20:33:01,21:00:08,NA,incomplete,179,race,2,1,right,C_F_14.jpg,A_F_07.jpg,C_M_01.jpg,right,825.259999997681,true,low,NA,NA,NA,NA,NA,NA,NA,false
ABOSeNIv,3ha5odm5ld5arw3bkcnh3xryudvvsa,3s96kq6i9qhrzzey9txfw0d4jktdt8,ABOSeNIv,2020-0188,2020-06-04,20:33:01,21:00:08,NA,incomplete,180,gender,3,0,left,A_F_15.jpg,C_F_11.jpg,A_M_09.jpg,right,645.230000001844,false,low,NA,NA,NA,NA,NA,NA,NA,false
ABOSeNIv,3ha5odm5ld5arw3bkcnh3xryudvvsa,3s96kq6i9qhrzzey9txfw0d4jktdt8,ABOSeNIv,2020-0188,2020-06-04,20:33:01,21:00:08,NA,incomplete,181,gender,3,1,right,A_M_12.jpg,A_F_02.jpg,C_M_16.jpg,left,831.5250000013039,false,low,NA,NA,NA,NA,NA,NA,NA,false
ABOSeNIv,3ha5odm5ld5arw3bkcnh3xryudvvsa,3s96kq6i9qhrzzey9txfw0d4jktdt8,ABOSeNIv,2020-0188,2020-06-04,20:33:01,21:00:08,NA,incomplete,182,gender,3,1,left,A_F_01.jpg,C_F_09.jpg,A_M_15.jpg,right,627.0000000002328,false,low,NA,NA,NA,NA,NA,NA,NA,false
ABOSeNIv,3ha5odm5ld5arw3bkcnh3xryudvvsa,3s96kq6i9qhrzzey9txfw0d4jktdt8,ABOSeNIv,2020-0188,2020-06-04,20:33:01,21:00:08,NA,incomplete,183,gender,3,0,left,C_F_15.jpg,A_F_16.jpg,C_M_08.jpg,left,758.3899999954738,true,low,NA,NA,NA,NA,NA,NA,NA,false
ABOSeNIv,3ha5odm5ld5arw3bkcnh3xryudvvsa,3s96kq6i9qhrzzey9txfw0d4jktdt8,ABOSeNIv,2020-0188,2020-06-04,20:33:01,21:00:08,NA,incomplete,184,gender,3,1,left,A_M_07.jpg,C_M_02.jpg,A_F_01.jpg,left,748.3300000019372,true,low,NA,NA,NA,NA,NA,NA,NA,false
ABOSeNIv,3ha5odm5ld5arw3bkcnh3xryudvvsa,3s96kq6i9qhrzzey9txfw0d4jktdt8,ABOSeNIv,2020-0188,2020-06-04,20:33:01,21:00:08,NA,incomplete,185,gender,3,0,right,C_F_15.jpg,C_M_10.jpg,A_F_14.jpg,right,795.494999998482,true,low,NA,NA,NA,NA,NA,NA,NA,false
ABOSeNIv,3ha5odm5ld5arw3bkcnh3xryudvvsa,3s96kq6i9qhrzzey9txfw0d4jktdt8,ABOSeNIv,2020-0188,2020-06-04,20:33:01,21:00:08,NA,incomplete,186,gender,3,1,left,A_M_11.jpg,C_M_04.jpg,A_F_03.jpg,left,792.1549999953713,true,low,NA,NA,NA,NA,NA,NA,NA,false
ABOSeNIv,3ha5odm5ld5arw3bkcnh3xryudvvsa,3s96kq6i9qhrzzey9txfw0d4jktdt8,ABOSeNIv,2020-0188,2020-06-04,20:33:01,21:00:08,NA,incomplete,187,gender,3,1,right,C_F_06.jpg,C_M_12.jpg,A_F_09.jpg,right,812.9249999984168,true,low,NA,NA,NA,NA,NA,NA,NA,false
ABOSeNIv,3ha5odm5ld5arw3bkcnh3xryudvvsa,3s96kq6i9qhrzzey9txfw0d4jktdt8,ABOSeNIv,2020-0188,2020-06-04,20:33:01,21:00:08,NA,incomplete,188,gender,3,1,right,C_F_15.jpg,C_M_02.jpg,A_F_01.jpg,right,897.2250000007916,true,low,NA,NA,NA,NA,NA,NA,NA,false
ABOSeNIv,3ha5odm5ld5arw3bkcnh3xryudvvsa,3s96kq6i9qhrzzey9txfw0d4jktdt8,ABOSeNIv,2020-0188,2020-06-04,20:33:01,21:00:08,NA,incomplete,189,gender,3,1,left,A_M_01.jpg,C_M_04.jpg,A_F_12.jpg,right,945.8700000033714,false,low,NA,NA,NA,NA,NA,NA,NA,false
ABOSeNIv,3ha5odm5ld5arw3bkcnh3xryudvvsa,3s96kq6i9qhrzzey9txfw0d4jktdt8,ABOSeNIv,2020-0188,2020-06-04,20:33:01,21:00:08,NA,incomplete,190,gender,3,1,right,C_F_01.jpg,C_M_05.jpg,A_F_13.jpg,left,937.2349999977741,false,low,NA,NA,NA,NA,NA,NA,NA,false
ABOSeNIv,3ha5odm5ld5arw3bkcnh3xryudvvsa,3s96kq6i9qhrzzey9txfw0d4jktdt8,ABOSeNIv,2020-0188,2020-06-04,20:33:01,21:00:08,NA,incomplete,191,gender,3,1,right,A_F_08.jpg,A_M_14.jpg,C_F_09.jpg,right,879.444999998901,true,low,NA,NA,NA,NA,NA,NA,NA,false
ABOSeNIv,3ha5odm5ld5arw3bkcnh3xryudvvsa,3s96kq6i9qhrzzey9txfw0d4jktdt8,ABOSeNIv,2020-0188,2020-06-04,20:33:01,21:00:08,NA,incomplete,192,gender,3,0,left,A_M_01.jpg,C_M_14.jpg,A_F_06.jpg,left,1217.0100000002421,true,low,NA,NA,NA,NA,NA,NA,NA,false
ABOSeNIv,3ha5odm5ld5arw3bkcnh3xryudvvsa,3s96kq6i9qhrzzey9txfw0d4jktdt8,ABOSeNIv,2020-0188,2020-06-04,20:33:01,21:00:08,NA,incomplete,193,gender,3,1,left,C_F_13.jpg,A_F_12.jpg,C_M_01.jpg,left,1116.2299999995157,true,low,NA,NA,NA,NA,NA,NA,NA,false
ABOSeNIv,3ha5odm5ld5arw3bkcnh3xryudvvsa,3s96kq6i9qhrzzey9txfw0d4jktdt8,ABOSeNIv,2020-0188,2020-06-04,20:33:01,21:00:08,NA,incomplete,194,gender,3,1,left,C_M_07.jpg,A_M_10.jpg,C_F_08.jpg,left,989.1299999943003,true,low,NA,NA,NA,NA,NA,NA,NA,false
ABOSeNIv,3ha5odm5ld5arw3bkcnh3xryudvvsa,3s96kq6i9qhrzzey9txfw0d4jktdt8,ABOSeNIv,2020-0188,2020-06-04,20:33:01,21:00:08,NA,incomplete,195,gender,3,1,right,C_M_13.jpg,C_F_09.jpg,A_M_08.jpg,right,904.9149999991059,true,low,NA,NA,NA,NA,NA,NA,NA,false
ABOSeNIv,3ha5odm5ld5arw3bkcnh3xryudvvsa,3s96kq6i9qhrzzey9txfw0d4jktdt8,ABOSeNIv,2020-0188,2020-06-04,20:33:01,21:00:08,NA,incomplete,196,gender,3,1,right,C_F_11.jpg,C_M_14.jpg,A_F_16.jpg,right,761.4299999987707,true,low,NA,NA,NA,NA,NA,NA,NA,false
ABOSeNIv,3ha5odm5ld5arw3bkcnh3xryudvvsa,3s96kq6i9qhrzzey9txfw0d4jktdt8,ABOSeNIv,2020-0188,2020-06-04,20:33:01,21:00:08,NA,incomplete,197,gender,3,1,left,A_M_12.jpg,C_M_09.jpg,A_F_15.jpg,left,855.2700000000186,true,low,NA,NA,NA,NA,NA,NA,NA,false
ABOSeNIv,3ha5odm5ld5arw3bkcnh3xryudvvsa,3s96kq6i9qhrzzey9txfw0d4jktdt8,ABOSeNIv,2020-0188,2020-06-04,20:33:01,21:00:08,NA,incomplete,198,gender,3,1,left,C_F_08.jpg,A_F_10.jpg,C_M_07.jpg,left,825.7700000030454,true,low,NA,NA,NA,NA,NA,NA,NA,false
ABOSeNIv,3ha5odm5ld5arw3bkcnh3xryudvvsa,3s96kq6i9qhrzzey9txfw0d4jktdt8,ABOSeNIv,2020-0188,2020-06-04,20:33:01,21:00:08,NA,incomplete,199,gender,3,0,left,C_M_03.jpg,A_M_16.jpg,C_F_11.jpg,left,917.5149999936111,true,low,NA,NA,NA,NA,NA,NA,NA,false
ABOSeNIv,3ha5odm5ld5arw3bkcnh3xryudvvsa,3s96kq6i9qhrzzey9txfw0d4jktdt8,ABOSeNIv,2020-0188,2020-06-04,20:33:01,21:00:08,NA,incomplete,200,race,2,1,right,A_M_06.jpg,C_M_02.jpg,A_F_12.jpg,left,884.2749999966472,false,low,NA,NA,NA,NA,NA,NA,NA,false
ABOSeNIv,3ha5odm5ld5arw3bkcnh3xryudvvsa,3s96kq6i9qhrzzey9txfw0d4jktdt8,ABOSeNIv,2020-0188,2020-06-04,20:33:01,21:00:08,NA,incomplete,201,race,2,0,right,A_F_03.jpg,C_F_04.jpg,A_M_12.jpg,right,1269.4950000003446,true,low,NA,NA,NA,NA,NA,NA,NA,false
ABOSeNIv,3ha5odm5ld5arw3bkcnh3xryudvvsa,3s96kq6i9qhrzzey9txfw0d4jktdt8,ABOSeNIv,2020-0188,2020-06-04,20:33:01,21:00:08,NA,incomplete,202,race,2,1,left,A_F_03.jpg,A_M_15.jpg,C_F_02.jpg,left,1215.0399999953806,true,low,NA,NA,NA,NA,NA,NA,NA,false
ABOSeNIv,3ha5odm5ld5arw3bkcnh3xryudvvsa,3s96kq6i9qhrzzey9txfw0d4jktdt8,ABOSeNIv,2020-0188,2020-06-04,20:33:01,21:00:08,NA,incomplete,203,race,2,1,left,C_M_01.jpg,C_F_12.jpg,A_M_07.jpg,left,987.8249999966938,true,low,NA,NA,NA,NA,NA,NA,NA,false
ABOSeNIv,3ha5odm5ld5arw3bkcnh3xryudvvsa,3s96kq6i9qhrzzey9txfw0d4jktdt8,ABOSeNIv,2020-0188,2020-06-04,20:33:01,21:00:08,NA,incomplete,204,race,2,1,left,C_M_11.jpg,C_F_02.jpg,A_M_14.jpg,right,1191.9599999964703,false,low,NA,NA,NA,NA,NA,NA,NA,false
ABOSeNIv,3ha5odm5ld5arw3bkcnh3xryudvvsa,3s96kq6i9qhrzzey9txfw0d4jktdt8,ABOSeNIv,2020-0188,2020-06-04,20:33:01,21:00:08,NA,incomplete,205,race,2,1,left,A_M_10.jpg,A_F_06.jpg,C_M_15.jpg,left,980.9050000039861,true,low,NA,NA,NA,NA,NA,NA,NA,false
ABOSeNIv,3ha5odm5ld5arw3bkcnh3xryudvvsa,3s96kq6i9qhrzzey9txfw0d4jktdt8,ABOSeNIv,2020-0188,2020-06-04,20:33:01,21:00:08,NA,incomplete,206,race,2,1,left,A_M_01.jpg,A_F_06.jpg,C_M_14.jpg,left,1033.955000006128,true,low,NA,NA,NA,NA,NA,NA,NA,false
ABOSeNIv,3ha5odm5ld5arw3bkcnh3xryudvvsa,3s96kq6i9qhrzzey9txfw0d4jktdt8,ABOSeNIv,2020-0188,2020-06-04,20:33:01,21:00:08,NA,incomplete,207,race,2,0,right,C_M_03.jpg,A_M_12.jpg,C_F_10.jpg,right,1325.42499999539,true,low,NA,NA,NA,NA,NA,NA,NA,false
ABOSeNIv,3ha5odm5ld5arw3bkcnh3xryudvvsa,3s96kq6i9qhrzzey9txfw0d4jktdt8,ABOSeNIv,2020-0188,2020-06-04,20:33:01,21:00:08,NA,incomplete,208,race,2,1,right,C_M_11.jpg,A_M_14.jpg,C_F_07.jpg,right,1212.494999999879,true,low,NA,NA,NA,NA,NA,NA,NA,false
ABOSeNIv,3ha5odm5ld5arw3bkcnh3xryudvvsa,3s96kq6i9qhrzzey9txfw0d4jktdt8,ABOSeNIv,2020-0188,2020-06-04,20:33:01,21:00:08,NA,incomplete,209,race,2,1,right,A_F_09.jpg,C_F_06.jpg,A_M_05.jpg,right,1064.7800000007264,true,low,NA,NA,NA,NA,NA,NA,NA,false
ABOSeNIv,3ha5odm5ld5arw3bkcnh3xryudvvsa,3s96kq6i9qhrzzey9txfw0d4jktdt8,ABOSeNIv,2020-0188,2020-06-04,20:33:01,21:00:08,NA,incomplete,210,race,2,1,right,A_M_05.jpg,C_M_14.jpg,A_F_06.jpg,right,986.8550000027753,true,low,NA,NA,NA,NA,NA,NA,NA,false
ABOSeNIv,3ha5odm5ld5arw3bkcnh3xryudvvsa,3s96kq6i9qhrzzey9txfw0d4jktdt8,ABOSeNIv,2020-0188,2020-06-04,20:33:01,21:00:08,NA,incomplete,211,race,2,1,right,C_F_08.jpg,A_F_02.jpg,C_M_10.jpg,right,1616.2600000025705,true,low,NA,NA,NA,NA,NA,NA,NA,false
ABOSeNIv,3ha5odm5ld5arw3bkcnh3xryudvvsa,3s96kq6i9qhrzzey9txfw0d4jktdt8,ABOSeNIv,2020-0188,2020-06-04,20:33:01,21:00:08,NA,incomplete,212,race,2,1,right,A_F_02.jpg,C_F_08.jpg,A_M_10.jpg,right,1403.9100000008475,true,low,NA,NA,NA,NA,NA,NA,NA,false
ABOSeNIv,3ha5odm5ld5arw3bkcnh3xryudvvsa,3s96kq6i9qhrzzey9txfw0d4jktdt8,ABOSeNIv,2020-0188,2020-06-04,20:33:01,21:00:08,NA,incomplete,213,race,2,1,right,A_F_03.jpg,C_F_01.jpg,A_M_07.jpg,right,1183.7499999965075,true,low,NA,NA,NA,NA,NA,NA,NA,false
ABOSeNIv,3ha5odm5ld5arw3bkcnh3xryudvvsa,3s96kq6i9qhrzzey9txfw0d4jktdt8,ABOSeNIv,2020-0188,2020-06-04,20:33:01,21:00:08,NA,incomplete,214,race,2,1,right,C_F_05.jpg,A_F_10.jpg,C_M_06.jpg,left,1917.159999997355,false,low,NA,NA,NA,NA,NA,NA,NA,false
ABOSeNIv,3ha5odm5ld5arw3bkcnh3xryudvvsa,3s96kq6i9qhrzzey9txfw0d4jktdt8,ABOSeNIv,2020-0188,2020-06-04,20:33:01,21:00:08,NA,incomplete,215,race,2,1,left,C_M_12.jpg,C_F_16.jpg,A_M_02.jpg,left,1684.8499999977648,true,low,NA,NA,NA,NA,NA,NA,NA,false
ABOSeNIv,3ha5odm5ld5arw3bkcnh3xryudvvsa,3s96kq6i9qhrzzey9txfw0d4jktdt8,ABOSeNIv,2020-0188,2020-06-04,20:33:01,21:00:08,NA,incomplete,216,race,2,1,right,A_M_11.jpg,C_M_15.jpg,A_F_16.jpg,right,973.914999994915,true,low,NA,NA,NA,NA,NA,NA,NA,false
ABOSeNIv,3ha5odm5ld5arw3bkcnh3xryudvvsa,3s96kq6i9qhrzzey9txfw0d4jktdt8,ABOSeNIv,2020-0188,2020-06-04,20:33:01,21:00:08,NA,incomplete,217,race,2,1,right,A_F_09.jpg,C_F_05.jpg,A_M_06.jpg,none,0,false,low,NA,NA,NA,NA,NA,NA,NA,false
ABOSeNIv,3ha5odm5ld5arw3bkcnh3xryudvvsa,3s96kq6i9qhrzzey9txfw0d4jktdt8,ABOSeNIv,2020-0188,2020-06-04,20:33:01,21:00:08,NA,incomplete,218,race,2,0,right,A_M_09.jpg,C_M_01.jpg,A_F_10.jpg,right,877.6550000037532,true,low,NA,NA,NA,NA,NA,NA,NA,false
ABOSeNIv,3ha5odm5ld5arw3bkcnh3xryudvvsa,3s96kq6i9qhrzzey9txfw0d4jktdt8,ABOSeNIv,2020-0188,2020-06-04,20:33:01,21:00:08,NA,incomplete,219,race,2,1,right,A_F_12.jpg,C_F_06.jpg,A_M_15.jpg,left,943.545000002021,false,low,NA,NA,NA,NA,NA,NA,NA,false
ABOSeNIv,3ha5odm5ld5arw3bkcnh3xryudvvsa,3s96kq6i9qhrzzey9txfw0d4jktdt8,ABOSeNIv,2020-0188,2020-06-04,20:33:01,21:00:08,NA,incomplete,220,gender,3,1,left,A_F_13.jpg,C_F_14.jpg,A_M_16.jpg,left,797.7499999981374,true,low,NA,NA,NA,NA,NA,NA,NA,false
ABOSeNIv,3ha5odm5ld5arw3bkcnh3xryudvvsa,3s96kq6i9qhrzzey9txfw0d4jktdt8,ABOSeNIv,2020-0188,2020-06-04,20:33:01,21:00:08,NA,incomplete,221,gender,3,1,left,A_F_02.jpg,C_F_04.jpg,A_M_06.jpg,left,834.1949999956414,true,low,NA,NA,NA,NA,NA,NA,NA,false
ABOSeNIv,3ha5odm5ld5arw3bkcnh3xryudvvsa,3s96kq6i9qhrzzey9txfw0d4jktdt8,ABOSeNIv,2020-0188,2020-06-04,20:33:01,21:00:08,NA,incomplete,222,gender,3,1,left,C_F_04.jpg,A_F_01.jpg,C_M_16.jpg,left,1021.2449999961536,true,low,NA,NA,NA,NA,NA,NA,NA,false
ABOSeNIv,3ha5odm5ld5arw3bkcnh3xryudvvsa,3s96kq6i9qhrzzey9txfw0d4jktdt8,ABOSeNIv,2020-0188,2020-06-04,20:33:01,21:00:08,NA,incomplete,223,gender,3,1,right,C_F_14.jpg,C_M_06.jpg,A_F_15.jpg,right,913.0200000000186,true,low,NA,NA,NA,NA,NA,NA,NA,false
ABOSeNIv,3ha5odm5ld5arw3bkcnh3xryudvvsa,3s96kq6i9qhrzzey9txfw0d4jktdt8,ABOSeNIv,2020-0188,2020-06-04,20:33:01,21:00:08,NA,incomplete,224,gender,3,1,left,C_F_13.jpg,A_F_02.jpg,C_M_03.jpg,left,905.6849999979604,true,low,NA,NA,NA,NA,NA,NA,NA,false
ABOSeNIv,3ha5odm5ld5arw3bkcnh3xryudvvsa,3s96kq6i9qhrzzey9txfw0d4jktdt8,ABOSeNIv,2020-0188,2020-06-04,20:33:01,21:00:08,NA,incomplete,225,gender,3,1,right,C_F_04.jpg,C_M_03.jpg,A_F_16.jpg,right,881.1399999975692,true,low,NA,NA,NA,NA,NA,NA,NA,false
ABOSeNIv,3ha5odm5ld5arw3bkcnh3xryudvvsa,3s96kq6i9qhrzzey9txfw0d4jktdt8,ABOSeNIv,2020-0188,2020-06-04,20:33:01,21:00:08,NA,incomplete,226,gender,3,1,right,C_M_09.jpg,C_F_08.jpg,A_M_02.jpg,right,962.6149999967311,true,low,NA,NA,NA,NA,NA,NA,NA,false
ABOSeNIv,3ha5odm5ld5arw3bkcnh3xryudvvsa,3s96kq6i9qhrzzey9txfw0d4jktdt8,ABOSeNIv,2020-0188,2020-06-04,20:33:01,21:00:08,NA,incomplete,227,gender,3,0,right,C_M_07.jpg,C_F_16.jpg,A_M_11.jpg,right,1120.7950000027195,true,low,NA,NA,NA,NA,NA,NA,NA,false
ABOSeNIv,3ha5odm5ld5arw3bkcnh3xryudvvsa,3s96kq6i9qhrzzey9txfw0d4jktdt8,ABOSeNIv,2020-0188,2020-06-04,20:33:01,21:00:08,NA,incomplete,228,gender,3,1,right,C_M_06.jpg,C_F_16.jpg,A_M_09.jpg,right,1248.804999995511,true,low,NA,NA,NA,NA,NA,NA,NA,false
ABOSeNIv,3ha5odm5ld5arw3bkcnh3xryudvvsa,3s96kq6i9qhrzzey9txfw0d4jktdt8,ABOSeNIv,2020-0188,2020-06-04,20:33:01,21:00:08,NA,incomplete,229,gender,3,1,left,C_F_13.jpg,A_F_11.jpg,C_M_08.jpg,left,1179.0749999999534,true,low,NA,NA,NA,NA,NA,NA,NA,false
ABOSeNIv,3ha5odm5ld5arw3bkcnh3xryudvvsa,3s96kq6i9qhrzzey9txfw0d4jktdt8,ABOSeNIv,2020-0188,2020-06-04,20:33:01,21:00:08,NA,incomplete,230,gender,3,1,left,A_F_02.jpg,C_F_04.jpg,A_M_05.jpg,left,912.56499999878,true,low,NA,NA,NA,NA,NA,NA,NA,false
ABOSeNIv,3ha5odm5ld5arw3bkcnh3xryudvvsa,3s96kq6i9qhrzzey9txfw0d4jktdt8,ABOSeNIv,2020-0188,2020-06-04,20:33:01,21:00:08,NA,incomplete,231,gender,3,0,right,C_F_07.jpg,C_M_16.jpg,A_F_02.jpg,right,840.7099999967031,true,low,NA,NA,NA,NA,NA,NA,NA,false
ABOSeNIv,3ha5odm5ld5arw3bkcnh3xryudvvsa,3s96kq6i9qhrzzey9txfw0d4jktdt8,ABOSeNIv,2020-0188,2020-06-04,20:33:01,21:00:08,NA,incomplete,232,gender,3,1,left,C_F_15.jpg,A_F_02.jpg,C_M_16.jpg,right,1003.6399999952409,false,low,NA,NA,NA,NA,NA,NA,NA,false
ABOSeNIv,3ha5odm5ld5arw3bkcnh3xryudvvsa,3s96kq6i9qhrzzey9txfw0d4jktdt8,ABOSeNIv,2020-0188,2020-06-04,20:33:01,21:00:08,NA,incomplete,233,gender,3,1,left,A_M_02.jpg,C_M_12.jpg,A_F_16.jpg,left,1080.0200000014156,true,low,NA,NA,NA,NA,NA,NA,NA,false
ABOSeNIv,3ha5odm5ld5arw3bkcnh3xryudvvsa,3s96kq6i9qhrzzey9txfw0d4jktdt8,ABOSeNIv,2020-0188,2020-06-04,20:33:01,21:00:08,NA,incomplete,234,gender,3,1,right,A_M_09.jpg,A_F_02.jpg,C_M_13.jpg,right,1041.1050000039395,true,low,NA,NA,NA,NA,NA,NA,NA,false
ABOSeNIv,3ha5odm5ld5arw3bkcnh3xryudvvsa,3s96kq6i9qhrzzey9txfw0d4jktdt8,ABOSeNIv,2020-0188,2020-06-04,20:33:01,21:00:08,NA,incomplete,235,gender,3,1,right,A_M_10.jpg,A_F_08.jpg,C_M_07.jpg,right,1260.0699999965727,true,low,NA,NA,NA,NA,NA,NA,NA,false
ABOSeNIv,3ha5odm5ld5arw3bkcnh3xryudvvsa,3s96kq6i9qhrzzey9txfw0d4jktdt8,ABOSeNIv,2020-0188,2020-06-04,20:33:01,21:00:08,NA,incomplete,236,gender,3,0,right,C_F_06.jpg,C_M_07.jpg,A_F_11.jpg,right,1110.0250000017695,true,low,NA,NA,NA,NA,NA,NA,NA,false
ABOSeNIv,3ha5odm5ld5arw3bkcnh3xryudvvsa,3s96kq6i9qhrzzey9txfw0d4jktdt8,ABOSeNIv,2020-0188,2020-06-04,20:33:01,21:00:08,NA,incomplete,237,gender,3,1,left,C_M_04.jpg,A_M_12.jpg,C_F_07.jpg,left,1022.5649999992456,true,low,NA,NA,NA,NA,NA,NA,NA,false
ABOSeNIv,3ha5odm5ld5arw3bkcnh3xryudvvsa,3s96kq6i9qhrzzey9txfw0d4jktdt8,ABOSeNIv,2020-0188,2020-06-04,20:33:01,21:00:08,NA,incomplete,238,gender,3,1,left,C_F_04.jpg,A_F_01.jpg,C_M_14.jpg,right,1089.7249999979977,false,low,NA,NA,NA,NA,NA,NA,NA,false
ABOSeNIv,3ha5odm5ld5arw3bkcnh3xryudvvsa,3s96kq6i9qhrzzey9txfw0d4jktdt8,ABOSeNIv,2020-0188,2020-06-04,20:33:01,21:00:08,NA,incomplete,239,gender,3,1,right,C_F_05.jpg,C_M_08.jpg,A_F_01.jpg,right,1082.475000002887,true,low,NA,NA,NA,NA,NA,NA,NA,false
ABOSeNIv,3ha5odm5ld5arw3bkcnh3xryudvvsa,3s96kq6i9qhrzzey9txfw0d4jktdt8,ABOSeNIv,2020-0188,2020-06-04,20:33:01,21:00:08,NA,NA,instruction example,number,NA,NA,NA,Green_Star_Grid_3.jpg,Blue_Plus_Stripes_3.jpg,Purple_Star_Dots_1.jpg,NA,NA,NA,NA,NA,NA,NA,NA,NA,NA,NA,undefined
ABOSeNIv,3ha5odm5ld5arw3bkcnh3xryudvvsa,3s96kq6i9qhrzzey9txfw0d4jktdt8,ABOSeNIv,2020-0188,2020-06-04,20:33:01,21:00:08,NA,NA,instruction example,number,NA,NA,NA,Blue_Star_Grid_3.jpg,Green_Star_Chess_2.jpg,Red_Circle_Stripes_3.jpg,NA,NA,NA,NA,NA,NA,NA,NA,NA,NA,NA,undefined
ABOSeNIv,3ha5odm5ld5arw3bkcnh3xryudvvsa,3s96kq6i9qhrzzey9txfw0d4jktdt8,ABOSeNIv,2020-0188,2020-06-04,20:33:01,21:00:08,NA,NA,instruction example,number,NA,NA,NA,A_F_15.jpg,A_M_01.jpg,C_F_14.jpg,NA,NA,NA,NA,NA,NA,NA,NA,NA,NA,NA,undefined
ABOSeNIv,3ha5odm5ld5arw3bkcnh3xryudvvsa,3s96kq6i9qhrzzey9txfw0d4jktdt8,ABOSeNIv,2020-0188,2020-06-04,20:33:01,21:00:08,NA,NA,instruction example,number,NA,NA,NA,C_F_10.jpg,A_F_06.jpg,C_M_05.jpg,NA,NA,NA,NA,NA,NA,NA,NA,NA,NA,NA,undefined
ABOSeNIv,3ha5odm5ld5arw3bkcnh3xryudvvsa,3s96kq6i9qhrzzey9txfw0d4jktdt8,ABOSeNIv,2020-0188,2020-06-04,20:33:01,21:00:08,1579432.1199999978,1628984.3400000026,NA,NA,NA,NA,NA,NA,NA,NA,NA,NA,NA,NA,50,White/Caucasian,Male,Hispanic,no,no,no,undefined
