workerId,hitId,assignmentId,subject,studyid,exp_date,exp_start,exp_end,time_start,time_end,trial,type,sequence,reward_validity,answer,image_top,image_left,image_right,response,response_time,response_acc,volatility,practice
GRb8X5Cw,3ni0wfppjctpbx4ya2wphz5gism608,3skemfqbz7igflskyc879hc7pcl8kz,GRb8X5Cw,2020-0188,2020-06-04,11:48:54,12:05:30,NA,incomplete,0,number,0,1,left,Blue_Plus_Chess_2.jpg,Red_Circle_Grid_2.jpg,Purple_Triangle_Chess_1.jpg,left,1381.2899999902584,true,NA,true
GRb8X5Cw,3ni0wfppjctpbx4ya2wphz5gism608,3skemfqbz7igflskyc879hc7pcl8kz,GRb8X5Cw,2020-0188,2020-06-04,11:48:54,12:05:30,NA,incomplete,1,number,0,1,left,Purple_Circle_Dots_2.jpg,Red_Star_Chess_2.jpg,Blue_Plus_Dots_1.jpg,left,860.7299999566749,true,NA,true
GRb8X5Cw,3ni0wfppjctpbx4ya2wphz5gism608,3skemfqbz7igflskyc879hc7pcl8kz,GRb8X5Cw,2020-0188,2020-06-04,11:48:54,12:05:30,NA,incomplete,2,number,0,0,left,Blue_Triangle_Stripes_3.jpg,Green_Plus_Grid_3.jpg,Purple_Circle_Stripes_1.jpg,left,828.6049999878742,true,NA,true
GRb8X5Cw,3ni0wfppjctpbx4ya2wphz5gism608,3skemfqbz7igflskyc879hc7pcl8kz,GRb8X5Cw,2020-0188,2020-06-04,11:48:54,12:05:30,NA,incomplete,3,number,0,1,right,Green_Plus_Stripes_2.jpg,Purple_Star_Stripes_4.jpg,Blue_Triangle_Grid_2.jpg,right,1185.3099999716505,true,NA,true
GRb8X5Cw,3ni0wfppjctpbx4ya2wphz5gism608,3skemfqbz7igflskyc879hc7pcl8kz,GRb8X5Cw,2020-0188,2020-06-04,11:48:54,12:05:30,NA,incomplete,4,number,0,1,left,Green_Plus_Chess_2.jpg,Purple_Triangle_Stripes_2.jpg,Blue_Star_Chess_1.jpg,left,788.3400000282563,true,NA,true
GRb8X5Cw,3ni0wfppjctpbx4ya2wphz5gism608,3skemfqbz7igflskyc879hc7pcl8kz,GRb8X5Cw,2020-0188,2020-06-04,11:48:54,12:05:30,NA,incomplete,5,number,0,1,left,Green_Circle_Grid_4.jpg,Blue_Triangle_Chess_4.jpg,Purple_Star_Grid_2.jpg,left,649.8099999735132,true,NA,true
GRb8X5Cw,3ni0wfppjctpbx4ya2wphz5gism608,3skemfqbz7igflskyc879hc7pcl8kz,GRb8X5Cw,2020-0188,2020-06-04,11:48:54,12:05:30,NA,incomplete,6,number,0,1,right,Green_Star_Dots_3.jpg,Red_Plus_Dots_1.jpg,Blue_Circle_Grid_3.jpg,right,534.4399999594316,true,NA,true
GRb8X5Cw,3ni0wfppjctpbx4ya2wphz5gism608,3skemfqbz7igflskyc879hc7pcl8kz,GRb8X5Cw,2020-0188,2020-06-04,11:48:54,12:05:30,NA,incomplete,7,number,0,1,left,Red_Star_Chess_1.jpg,Green_Triangle_Dots_1.jpg,Purple_Plus_Chess_3.jpg,left,677.544999984093,true,NA,true
GRb8X5Cw,3ni0wfppjctpbx4ya2wphz5gism608,3skemfqbz7igflskyc879hc7pcl8kz,GRb8X5Cw,2020-0188,2020-06-04,11:48:54,12:05:30,NA,incomplete,8,number,0,1,left,Red_Plus_Dots_4.jpg,Blue_Star_Stripes_4.jpg,Purple_Circle_Dots_3.jpg,left,517.8050000104122,true,NA,true
GRb8X5Cw,3ni0wfppjctpbx4ya2wphz5gism608,3skemfqbz7igflskyc879hc7pcl8kz,GRb8X5Cw,2020-0188,2020-06-04,11:48:54,12:05:30,NA,incomplete,9,number,0,1,left,Red_Triangle_Stripes_4.jpg,Green_Star_Dots_4.jpg,Blue_Circle_Stripes_1.jpg,left,551.804999995511,true,NA,true
GRb8X5Cw,3ni0wfppjctpbx4ya2wphz5gism608,3skemfqbz7igflskyc879hc7pcl8kz,GRb8X5Cw,2020-0188,2020-06-04,11:48:54,12:05:30,NA,incomplete,10,number,0,0,left,Blue_Triangle_Chess_4.jpg,Purple_Star_Stripes_4.jpg,Green_Circle_Chess_3.jpg,left,719.7300000116229,true,NA,true
GRb8X5Cw,3ni0wfppjctpbx4ya2wphz5gism608,3skemfqbz7igflskyc879hc7pcl8kz,GRb8X5Cw,2020-0188,2020-06-04,11:48:54,12:05:30,NA,incomplete,11,number,0,1,right,Purple_Star_Chess_2.jpg,Blue_Plus_Chess_1.jpg,Red_Triangle_Dots_2.jpg,right,616.9950000476092,true,NA,true
GRb8X5Cw,3ni0wfppjctpbx4ya2wphz5gism608,3skemfqbz7igflskyc879hc7pcl8kz,GRb8X5Cw,2020-0188,2020-06-04,11:48:54,12:05:30,NA,incomplete,12,number,0,0,right,Blue_Plus_Dots_2.jpg,Red_Star_Dots_4.jpg,Purple_Triangle_Grid_2.jpg,right,914.2200000351295,true,NA,true
GRb8X5Cw,3ni0wfppjctpbx4ya2wphz5gism608,3skemfqbz7igflskyc879hc7pcl8kz,GRb8X5Cw,2020-0188,2020-06-04,11:48:54,12:05:30,NA,incomplete,13,number,0,1,right,Red_Star_Stripes_4.jpg,Blue_Plus_Stripes_2.jpg,Green_Circle_Dots_4.jpg,right,1048.4700000379235,true,NA,true
GRb8X5Cw,3ni0wfppjctpbx4ya2wphz5gism608,3skemfqbz7igflskyc879hc7pcl8kz,GRb8X5Cw,2020-0188,2020-06-04,11:48:54,12:05:30,NA,incomplete,14,number,0,1,left,Green_Triangle_Dots_4.jpg,Purple_Circle_Grid_4.jpg,Blue_Plus_Dots_1.jpg,left,654.4600000488572,true,NA,true
GRb8X5Cw,3ni0wfppjctpbx4ya2wphz5gism608,3skemfqbz7igflskyc879hc7pcl8kz,GRb8X5Cw,2020-0188,2020-06-04,11:48:54,12:05:30,NA,incomplete,15,number,0,1,left,Red_Triangle_Dots_1.jpg,Green_Star_Stripes_1.jpg,Blue_Circle_Dots_2.jpg,left,927.6200000313111,true,NA,true
GRb8X5Cw,3ni0wfppjctpbx4ya2wphz5gism608,3skemfqbz7igflskyc879hc7pcl8kz,GRb8X5Cw,2020-0188,2020-06-04,11:48:54,12:05:30,NA,incomplete,16,number,0,1,left,Green_Star_Dots_3.jpg,Red_Plus_Grid_3.jpg,Blue_Circle_Dots_1.jpg,left,643.9350000000559,true,NA,true
GRb8X5Cw,3ni0wfppjctpbx4ya2wphz5gism608,3skemfqbz7igflskyc879hc7pcl8kz,GRb8X5Cw,2020-0188,2020-06-04,11:48:54,12:05:30,NA,incomplete,17,number,0,0,left,Purple_Circle_Stripes_2.jpg,Green_Plus_Dots_2.jpg,Red_Star_Stripes_4.jpg,left,937.4099999549799,true,NA,true
GRb8X5Cw,3ni0wfppjctpbx4ya2wphz5gism608,3skemfqbz7igflskyc879hc7pcl8kz,GRb8X5Cw,2020-0188,2020-06-04,11:48:54,12:05:30,NA,incomplete,18,number,0,1,left,Green_Circle_Chess_4.jpg,Red_Plus_Grid_4.jpg,Blue_Star_Chess_3.jpg,left,826.3799999840558,true,NA,true
GRb8X5Cw,3ni0wfppjctpbx4ya2wphz5gism608,3skemfqbz7igflskyc879hc7pcl8kz,GRb8X5Cw,2020-0188,2020-06-04,11:48:54,12:05:30,NA,incomplete,19,number,0,1,right,Red_Circle_Dots_4.jpg,Green_Plus_Dots_2.jpg,Purple_Triangle_Grid_4.jpg,right,807.0200000074692,true,NA,true
GRb8X5Cw,3ni0wfppjctpbx4ya2wphz5gism608,3skemfqbz7igflskyc879hc7pcl8kz,GRb8X5Cw,2020-0188,2020-06-04,11:48:54,12:05:30,NA,incomplete,20,filling,1,1,left,Green_Circle_Stripes_1.jpg,Blue_Plus_Stripes_2.jpg,Red_Triangle_Grid_1.jpg,right,729.6900000073947,false,NA,true
GRb8X5Cw,3ni0wfppjctpbx4ya2wphz5gism608,3skemfqbz7igflskyc879hc7pcl8kz,GRb8X5Cw,2020-0188,2020-06-04,11:48:54,12:05:30,NA,incomplete,21,filling,1,1,left,Green_Plus_Dots_1.jpg,Purple_Star_Dots_3.jpg,Blue_Triangle_Chess_1.jpg,right,1418.6200000112876,false,NA,true
GRb8X5Cw,3ni0wfppjctpbx4ya2wphz5gism608,3skemfqbz7igflskyc879hc7pcl8kz,GRb8X5Cw,2020-0188,2020-06-04,11:48:54,12:05:30,NA,incomplete,22,filling,1,1,left,Blue_Triangle_Dots_1.jpg,Purple_Star_Dots_2.jpg,Red_Plus_Grid_1.jpg,left,1371.8499999959022,true,NA,true
GRb8X5Cw,3ni0wfppjctpbx4ya2wphz5gism608,3skemfqbz7igflskyc879hc7pcl8kz,GRb8X5Cw,2020-0188,2020-06-04,11:48:54,12:05:30,NA,incomplete,23,filling,1,1,left,Green_Circle_Dots_4.jpg,Red_Plus_Dots_2.jpg,Purple_Triangle_Chess_4.jpg,left,946.4699999662116,true,NA,true
GRb8X5Cw,3ni0wfppjctpbx4ya2wphz5gism608,3skemfqbz7igflskyc879hc7pcl8kz,GRb8X5Cw,2020-0188,2020-06-04,11:48:54,12:05:30,NA,incomplete,24,filling,1,1,right,Blue_Plus_Chess_4.jpg,Red_Triangle_Dots_4.jpg,Green_Circle_Chess_1.jpg,right,1153.3549999585375,true,NA,true
GRb8X5Cw,3ni0wfppjctpbx4ya2wphz5gism608,3skemfqbz7igflskyc879hc7pcl8kz,GRb8X5Cw,2020-0188,2020-06-04,11:48:54,12:05:30,NA,incomplete,25,filling,1,0,left,Red_Circle_Grid_4.jpg,Purple_Plus_Grid_3.jpg,Blue_Star_Stripes_4.jpg,left,789.0149999875575,true,NA,true
GRb8X5Cw,3ni0wfppjctpbx4ya2wphz5gism608,3skemfqbz7igflskyc879hc7pcl8kz,GRb8X5Cw,2020-0188,2020-06-04,11:48:54,12:05:30,NA,incomplete,26,filling,1,1,right,Red_Plus_Dots_1.jpg,Green_Triangle_Chess_1.jpg,Purple_Star_Dots_4.jpg,right,1169.3749999976717,true,NA,true
GRb8X5Cw,3ni0wfppjctpbx4ya2wphz5gism608,3skemfqbz7igflskyc879hc7pcl8kz,GRb8X5Cw,2020-0188,2020-06-04,11:48:54,12:05:30,NA,incomplete,27,filling,1,1,left,Blue_Plus_Chess_3.jpg,Purple_Circle_Chess_2.jpg,Red_Star_Dots_3.jpg,left,1103.5849999752827,true,NA,true
GRb8X5Cw,3ni0wfppjctpbx4ya2wphz5gism608,3skemfqbz7igflskyc879hc7pcl8kz,GRb8X5Cw,2020-0188,2020-06-04,11:48:54,12:05:30,NA,incomplete,28,filling,1,0,right,Purple_Star_Stripes_3.jpg,Green_Circle_Grid_3.jpg,Red_Triangle_Stripes_1.jpg,right,1020.7199999713339,true,NA,true
GRb8X5Cw,3ni0wfppjctpbx4ya2wphz5gism608,3skemfqbz7igflskyc879hc7pcl8kz,GRb8X5Cw,2020-0188,2020-06-04,11:48:54,12:05:30,NA,incomplete,29,filling,1,1,left,Red_Triangle_Stripes_1.jpg,Purple_Plus_Stripes_4.jpg,Green_Circle_Grid_1.jpg,left,1183.1299999612384,true,NA,true
GRb8X5Cw,3ni0wfppjctpbx4ya2wphz5gism608,3skemfqbz7igflskyc879hc7pcl8kz,GRb8X5Cw,2020-0188,2020-06-04,11:48:54,12:05:30,NA,incomplete,30,filling,1,1,right,Red_Triangle_Stripes_2.jpg,Blue_Star_Grid_2.jpg,Purple_Plus_Stripes_1.jpg,right,1069.2200000048615,true,NA,true
GRb8X5Cw,3ni0wfppjctpbx4ya2wphz5gism608,3skemfqbz7igflskyc879hc7pcl8kz,GRb8X5Cw,2020-0188,2020-06-04,11:48:54,12:05:30,NA,incomplete,31,filling,1,1,left,Red_Star_Chess_1.jpg,Green_Triangle_Chess_3.jpg,Blue_Circle_Stripes_1.jpg,left,1055.9899999643676,true,NA,true
GRb8X5Cw,3ni0wfppjctpbx4ya2wphz5gism608,3skemfqbz7igflskyc879hc7pcl8kz,GRb8X5Cw,2020-0188,2020-06-04,11:48:54,12:05:30,NA,incomplete,32,filling,1,1,right,Red_Star_Dots_3.jpg,Purple_Triangle_Grid_3.jpg,Blue_Circle_Dots_1.jpg,right,1398.1199999689125,true,NA,true
GRb8X5Cw,3ni0wfppjctpbx4ya2wphz5gism608,3skemfqbz7igflskyc879hc7pcl8kz,GRb8X5Cw,2020-0188,2020-06-04,11:48:54,12:05:30,NA,incomplete,33,filling,1,1,left,Blue_Triangle_Dots_3.jpg,Green_Plus_Dots_4.jpg,Purple_Star_Chess_3.jpg,left,1131.4000000129454,true,NA,true
GRb8X5Cw,3ni0wfppjctpbx4ya2wphz5gism608,3skemfqbz7igflskyc879hc7pcl8kz,GRb8X5Cw,2020-0188,2020-06-04,11:48:54,12:05:30,NA,incomplete,34,filling,1,1,left,Green_Star_Chess_1.jpg,Red_Plus_Chess_4.jpg,Purple_Circle_Grid_1.jpg,left,1030.6850000051782,true,NA,true
GRb8X5Cw,3ni0wfppjctpbx4ya2wphz5gism608,3skemfqbz7igflskyc879hc7pcl8kz,GRb8X5Cw,2020-0188,2020-06-04,11:48:54,12:05:30,NA,incomplete,35,filling,1,0,left,Blue_Triangle_Stripes_4.jpg,Red_Circle_Stripes_3.jpg,Purple_Plus_Chess_4.jpg,left,858.4600000176579,true,NA,true
GRb8X5Cw,3ni0wfppjctpbx4ya2wphz5gism608,3skemfqbz7igflskyc879hc7pcl8kz,GRb8X5Cw,2020-0188,2020-06-04,11:48:54,12:05:30,NA,incomplete,36,filling,1,0,left,Blue_Circle_Stripes_2.jpg,Purple_Star_Stripes_4.jpg,Red_Triangle_Grid_2.jpg,left,1081.2750000040978,true,NA,true
GRb8X5Cw,3ni0wfppjctpbx4ya2wphz5gism608,3skemfqbz7igflskyc879hc7pcl8kz,GRb8X5Cw,2020-0188,2020-06-04,11:48:54,12:05:30,NA,incomplete,37,filling,1,1,right,Purple_Circle_Dots_3.jpg,Blue_Plus_Grid_3.jpg,Red_Star_Dots_4.jpg,right,1092.9049999685958,true,NA,true
GRb8X5Cw,3ni0wfppjctpbx4ya2wphz5gism608,3skemfqbz7igflskyc879hc7pcl8kz,GRb8X5Cw,2020-0188,2020-06-04,11:48:54,12:05:30,NA,incomplete,38,filling,1,1,left,Purple_Triangle_Stripes_4.jpg,Green_Plus_Stripes_3.jpg,Red_Circle_Chess_4.jpg,left,1179.4449999579228,true,NA,true
GRb8X5Cw,3ni0wfppjctpbx4ya2wphz5gism608,3skemfqbz7igflskyc879hc7pcl8kz,GRb8X5Cw,2020-0188,2020-06-04,11:48:54,12:05:30,NA,incomplete,39,filling,1,1,left,Green_Plus_Chess_2.jpg,Purple_Circle_Chess_4.jpg,Blue_Star_Dots_2.jpg,left,886.8800000054762,true,NA,true
GRb8X5Cw,3ni0wfppjctpbx4ya2wphz5gism608,3skemfqbz7igflskyc879hc7pcl8kz,GRb8X5Cw,2020-0188,2020-06-04,11:48:54,12:05:30,NA,incomplete,0,number,0,1,left,Blue_Star_Stripes_4.jpg,Purple_Plus_Grid_4.jpg,Red_Triangle_Stripes_3.jpg,left,1475.174999970477,true,high,false
GRb8X5Cw,3ni0wfppjctpbx4ya2wphz5gism608,3skemfqbz7igflskyc879hc7pcl8kz,GRb8X5Cw,2020-0188,2020-06-04,11:48:54,12:05:30,NA,incomplete,1,number,0,1,left,Green_Star_Stripes_1.jpg,Purple_Circle_Dots_1.jpg,Blue_Triangle_Stripes_4.jpg,left,757.5100000249222,true,high,false
GRb8X5Cw,3ni0wfppjctpbx4ya2wphz5gism608,3skemfqbz7igflskyc879hc7pcl8kz,GRb8X5Cw,2020-0188,2020-06-04,11:48:54,12:05:30,NA,incomplete,2,number,0,1,left,Green_Circle_Chess_3.jpg,Red_Triangle_Stripes_3.jpg,Blue_Star_Chess_1.jpg,left,1339.7500000428408,true,high,false
GRb8X5Cw,3ni0wfppjctpbx4ya2wphz5gism608,3skemfqbz7igflskyc879hc7pcl8kz,GRb8X5Cw,2020-0188,2020-06-04,11:48:54,12:05:30,NA,incomplete,3,number,0,1,right,Red_Plus_Grid_4.jpg,Purple_Triangle_Grid_3.jpg,Green_Circle_Dots_4.jpg,left,1466.489999962505,false,high,false
GRb8X5Cw,3ni0wfppjctpbx4ya2wphz5gism608,3skemfqbz7igflskyc879hc7pcl8kz,GRb8X5Cw,2020-0188,2020-06-04,11:48:54,12:05:30,NA,incomplete,4,number,0,1,left,Purple_Triangle_Chess_2.jpg,Red_Plus_Grid_2.jpg,Green_Circle_Chess_4.jpg,left,757.0850000483915,true,high,false
GRb8X5Cw,3ni0wfppjctpbx4ya2wphz5gism608,3skemfqbz7igflskyc879hc7pcl8kz,GRb8X5Cw,2020-0188,2020-06-04,11:48:54,12:05:30,NA,incomplete,5,number,0,1,right,Purple_Triangle_Chess_2.jpg,Green_Circle_Chess_1.jpg,Blue_Star_Grid_2.jpg,right,566.8150000274181,true,high,false
GRb8X5Cw,3ni0wfppjctpbx4ya2wphz5gism608,3skemfqbz7igflskyc879hc7pcl8kz,GRb8X5Cw,2020-0188,2020-06-04,11:48:54,12:05:30,NA,incomplete,6,number,0,1,left,Purple_Triangle_Grid_1.jpg,Green_Circle_Dots_1.jpg,Red_Plus_Grid_3.jpg,left,707.5399999739602,true,high,false
GRb8X5Cw,3ni0wfppjctpbx4ya2wphz5gism608,3skemfqbz7igflskyc879hc7pcl8kz,GRb8X5Cw,2020-0188,2020-06-04,11:48:54,12:05:30,NA,incomplete,7,number,0,0,left,Red_Star_Grid_2.jpg,Purple_Plus_Dots_2.jpg,Green_Triangle_Grid_4.jpg,left,607.2799999965355,true,high,false
GRb8X5Cw,3ni0wfppjctpbx4ya2wphz5gism608,3skemfqbz7igflskyc879hc7pcl8kz,GRb8X5Cw,2020-0188,2020-06-04,11:48:54,12:05:30,NA,incomplete,8,number,0,0,left,Red_Triangle_Chess_4.jpg,Blue_Plus_Stripes_4.jpg,Green_Star_Chess_3.jpg,left,1315.8700000494719,true,high,false
GRb8X5Cw,3ni0wfppjctpbx4ya2wphz5gism608,3skemfqbz7igflskyc879hc7pcl8kz,GRb8X5Cw,2020-0188,2020-06-04,11:48:54,12:05:30,NA,incomplete,9,number,0,1,right,Purple_Star_Stripes_1.jpg,Red_Plus_Stripes_2.jpg,Blue_Triangle_Dots_1.jpg,left,1092.3349999939092,false,high,false
GRb8X5Cw,3ni0wfppjctpbx4ya2wphz5gism608,3skemfqbz7igflskyc879hc7pcl8kz,GRb8X5Cw,2020-0188,2020-06-04,11:48:54,12:05:30,NA,incomplete,10,filling,1,1,left,Red_Plus_Dots_2.jpg,Purple_Circle_Dots_3.jpg,Blue_Triangle_Chess_2.jpg,left,1135.3349999990314,true,high,false
GRb8X5Cw,3ni0wfppjctpbx4ya2wphz5gism608,3skemfqbz7igflskyc879hc7pcl8kz,GRb8X5Cw,2020-0188,2020-06-04,11:48:54,12:05:30,NA,incomplete,11,filling,1,1,left,Purple_Circle_Grid_4.jpg,Blue_Star_Grid_1.jpg,Red_Triangle_Dots_4.jpg,left,1048.7199999624863,true,high,false
GRb8X5Cw,3ni0wfppjctpbx4ya2wphz5gism608,3skemfqbz7igflskyc879hc7pcl8kz,GRb8X5Cw,2020-0188,2020-06-04,11:48:54,12:05:30,NA,incomplete,12,filling,1,1,left,Red_Star_Dots_1.jpg,Purple_Plus_Dots_2.jpg,Green_Circle_Chess_1.jpg,left,1050.954999984242,true,high,false
GRb8X5Cw,3ni0wfppjctpbx4ya2wphz5gism608,3skemfqbz7igflskyc879hc7pcl8kz,GRb8X5Cw,2020-0188,2020-06-04,11:48:54,12:05:30,NA,incomplete,13,filling,1,1,right,Green_Circle_Dots_2.jpg,Purple_Triangle_Grid_2.jpg,Blue_Star_Dots_4.jpg,right,933.6449999827892,true,high,false
GRb8X5Cw,3ni0wfppjctpbx4ya2wphz5gism608,3skemfqbz7igflskyc879hc7pcl8kz,GRb8X5Cw,2020-0188,2020-06-04,11:48:54,12:05:30,NA,incomplete,14,filling,1,0,right,Red_Circle_Chess_2.jpg,Blue_Triangle_Grid_2.jpg,Purple_Plus_Chess_3.jpg,right,780.2599999704398,true,high,false
GRb8X5Cw,3ni0wfppjctpbx4ya2wphz5gism608,3skemfqbz7igflskyc879hc7pcl8kz,GRb8X5Cw,2020-0188,2020-06-04,11:48:54,12:05:30,NA,incomplete,15,filling,1,1,right,Blue_Star_Stripes_4.jpg,Green_Triangle_Chess_4.jpg,Red_Circle_Stripes_1.jpg,left,632.8600000124425,false,high,false
GRb8X5Cw,3ni0wfppjctpbx4ya2wphz5gism608,3skemfqbz7igflskyc879hc7pcl8kz,GRb8X5Cw,2020-0188,2020-06-04,11:48:54,12:05:30,NA,incomplete,16,filling,1,1,left,Red_Star_Stripes_3.jpg,Green_Plus_Stripes_1.jpg,Purple_Circle_Dots_3.jpg,left,1046.1150000337511,true,high,false
GRb8X5Cw,3ni0wfppjctpbx4ya2wphz5gism608,3skemfqbz7igflskyc879hc7pcl8kz,GRb8X5Cw,2020-0188,2020-06-04,11:48:54,12:05:30,NA,incomplete,17,filling,1,1,right,Green_Plus_Grid_1.jpg,Red_Triangle_Stripes_1.jpg,Purple_Circle_Grid_2.jpg,right,803.234999999404,true,high,false
GRb8X5Cw,3ni0wfppjctpbx4ya2wphz5gism608,3skemfqbz7igflskyc879hc7pcl8kz,GRb8X5Cw,2020-0188,2020-06-04,11:48:54,12:05:30,NA,incomplete,18,filling,1,0,left,Red_Circle_Stripes_4.jpg,Blue_Triangle_Stripes_2.jpg,Green_Plus_Chess_4.jpg,left,838.3800000301562,true,high,false
GRb8X5Cw,3ni0wfppjctpbx4ya2wphz5gism608,3skemfqbz7igflskyc879hc7pcl8kz,GRb8X5Cw,2020-0188,2020-06-04,11:48:54,12:05:30,NA,incomplete,19,filling,1,1,left,Blue_Star_Stripes_2.jpg,Red_Triangle_Stripes_3.jpg,Purple_Plus_Chess_2.jpg,left,890.0150000117719,true,high,false
GRb8X5Cw,3ni0wfppjctpbx4ya2wphz5gism608,3skemfqbz7igflskyc879hc7pcl8kz,GRb8X5Cw,2020-0188,2020-06-04,11:48:54,12:05:30,NA,incomplete,20,number,0,0,right,Red_Plus_Chess_2.jpg,Green_Star_Chess_3.jpg,Purple_Triangle_Dots_2.jpg,left,751.8600000184961,false,high,false
GRb8X5Cw,3ni0wfppjctpbx4ya2wphz5gism608,3skemfqbz7igflskyc879hc7pcl8kz,GRb8X5Cw,2020-0188,2020-06-04,11:48:54,12:05:30,NA,incomplete,21,number,0,1,left,Purple_Star_Chess_1.jpg,Green_Plus_Dots_1.jpg,Blue_Circle_Chess_3.jpg,right,720.3500000177883,false,high,false
GRb8X5Cw,3ni0wfppjctpbx4ya2wphz5gism608,3skemfqbz7igflskyc879hc7pcl8kz,GRb8X5Cw,2020-0188,2020-06-04,11:48:54,12:05:30,NA,incomplete,22,number,0,1,right,Blue_Star_Dots_1.jpg,Red_Plus_Dots_3.jpg,Green_Circle_Chess_1.jpg,left,1119.7350000147708,false,high,false
GRb8X5Cw,3ni0wfppjctpbx4ya2wphz5gism608,3skemfqbz7igflskyc879hc7pcl8kz,GRb8X5Cw,2020-0188,2020-06-04,11:48:54,12:05:30,NA,incomplete,23,number,0,1,left,Blue_Circle_Stripes_3.jpg,Green_Star_Grid_3.jpg,Red_Plus_Stripes_1.jpg,left,605.3350000292994,true,high,false
GRb8X5Cw,3ni0wfppjctpbx4ya2wphz5gism608,3skemfqbz7igflskyc879hc7pcl8kz,GRb8X5Cw,2020-0188,2020-06-04,11:48:54,12:05:30,NA,incomplete,24,number,0,1,right,Purple_Triangle_Dots_4.jpg,Red_Circle_Dots_3.jpg,Green_Star_Chess_4.jpg,right,805.8749999618158,true,high,false
GRb8X5Cw,3ni0wfppjctpbx4ya2wphz5gism608,3skemfqbz7igflskyc879hc7pcl8kz,GRb8X5Cw,2020-0188,2020-06-04,11:48:54,12:05:30,NA,incomplete,25,number,0,0,right,Green_Triangle_Stripes_2.jpg,Blue_Circle_Stripes_1.jpg,Purple_Star_Chess_2.jpg,right,739.4300000160001,true,high,false
GRb8X5Cw,3ni0wfppjctpbx4ya2wphz5gism608,3skemfqbz7igflskyc879hc7pcl8kz,GRb8X5Cw,2020-0188,2020-06-04,11:48:54,12:05:30,NA,incomplete,26,number,0,1,left,Purple_Circle_Chess_2.jpg,Blue_Star_Dots_2.jpg,Green_Plus_Chess_3.jpg,left,857.1449999581091,true,high,false
GRb8X5Cw,3ni0wfppjctpbx4ya2wphz5gism608,3skemfqbz7igflskyc879hc7pcl8kz,GRb8X5Cw,2020-0188,2020-06-04,11:48:54,12:05:30,NA,incomplete,27,number,0,0,left,Green_Star_Chess_2.jpg,Purple_Circle_Grid_2.jpg,Red_Plus_Chess_3.jpg,left,688.0999999702908,true,high,false
GRb8X5Cw,3ni0wfppjctpbx4ya2wphz5gism608,3skemfqbz7igflskyc879hc7pcl8kz,GRb8X5Cw,2020-0188,2020-06-04,11:48:54,12:05:30,NA,incomplete,28,number,0,1,left,Green_Plus_Grid_2.jpg,Red_Triangle_Dots_2.jpg,Blue_Circle_Grid_3.jpg,left,724.7499999939464,true,high,false
GRb8X5Cw,3ni0wfppjctpbx4ya2wphz5gism608,3skemfqbz7igflskyc879hc7pcl8kz,GRb8X5Cw,2020-0188,2020-06-04,11:48:54,12:05:30,NA,incomplete,29,number,0,1,right,Blue_Circle_Grid_2.jpg,Red_Star_Grid_4.jpg,Purple_Triangle_Chess_2.jpg,right,711.7849999922328,true,high,false
GRb8X5Cw,3ni0wfppjctpbx4ya2wphz5gism608,3skemfqbz7igflskyc879hc7pcl8kz,GRb8X5Cw,2020-0188,2020-06-04,11:48:54,12:05:30,NA,incomplete,30,filling,1,1,right,Blue_Triangle_Stripes_3.jpg,Purple_Star_Chess_3.jpg,Red_Plus_Stripes_1.jpg,left,652.8650000109337,false,high,false
GRb8X5Cw,3ni0wfppjctpbx4ya2wphz5gism608,3skemfqbz7igflskyc879hc7pcl8kz,GRb8X5Cw,2020-0188,2020-06-04,11:48:54,12:05:30,NA,incomplete,31,filling,1,1,right,Blue_Triangle_Dots_1.jpg,Green_Circle_Stripes_1.jpg,Red_Plus_Dots_4.jpg,left,635.2999999653548,false,high,false
GRb8X5Cw,3ni0wfppjctpbx4ya2wphz5gism608,3skemfqbz7igflskyc879hc7pcl8kz,GRb8X5Cw,2020-0188,2020-06-04,11:48:54,12:05:30,NA,incomplete,32,filling,1,1,left,Blue_Star_Grid_1.jpg,Purple_Triangle_Grid_3.jpg,Green_Plus_Dots_1.jpg,left,926.3500000233762,true,high,false
GRb8X5Cw,3ni0wfppjctpbx4ya2wphz5gism608,3skemfqbz7igflskyc879hc7pcl8kz,GRb8X5Cw,2020-0188,2020-06-04,11:48:54,12:05:30,NA,incomplete,33,filling,1,1,right,Blue_Plus_Dots_4.jpg,Purple_Star_Grid_4.jpg,Red_Circle_Dots_2.jpg,right,1333.710000035353,true,high,false
GRb8X5Cw,3ni0wfppjctpbx4ya2wphz5gism608,3skemfqbz7igflskyc879hc7pcl8kz,GRb8X5Cw,2020-0188,2020-06-04,11:48:54,12:05:30,NA,incomplete,34,filling,1,0,right,Purple_Star_Dots_1.jpg,Green_Circle_Chess_1.jpg,Red_Plus_Dots_4.jpg,right,924.7700000414625,true,high,false
GRb8X5Cw,3ni0wfppjctpbx4ya2wphz5gism608,3skemfqbz7igflskyc879hc7pcl8kz,GRb8X5Cw,2020-0188,2020-06-04,11:48:54,12:05:30,NA,incomplete,35,filling,1,1,left,Red_Circle_Grid_3.jpg,Purple_Plus_Grid_4.jpg,Green_Triangle_Stripes_3.jpg,left,876.334999979008,true,high,false
GRb8X5Cw,3ni0wfppjctpbx4ya2wphz5gism608,3skemfqbz7igflskyc879hc7pcl8kz,GRb8X5Cw,2020-0188,2020-06-04,11:48:54,12:05:30,NA,incomplete,36,filling,1,1,right,Purple_Circle_Chess_4.jpg,Green_Triangle_Stripes_4.jpg,Red_Plus_Chess_1.jpg,right,873.9850000129081,true,high,false
GRb8X5Cw,3ni0wfppjctpbx4ya2wphz5gism608,3skemfqbz7igflskyc879hc7pcl8kz,GRb8X5Cw,2020-0188,2020-06-04,11:48:54,12:05:30,NA,incomplete,37,filling,1,1,left,Red_Plus_Chess_4.jpg,Green_Triangle_Chess_2.jpg,Blue_Star_Stripes_4.jpg,left,697.3899999866262,true,high,false
GRb8X5Cw,3ni0wfppjctpbx4ya2wphz5gism608,3skemfqbz7igflskyc879hc7pcl8kz,GRb8X5Cw,2020-0188,2020-06-04,11:48:54,12:05:30,NA,incomplete,38,filling,1,1,left,Green_Circle_Chess_1.jpg,Purple_Triangle_Chess_2.jpg,Red_Star_Stripes_1.jpg,left,734.8549999878742,true,high,false
GRb8X5Cw,3ni0wfppjctpbx4ya2wphz5gism608,3skemfqbz7igflskyc879hc7pcl8kz,GRb8X5Cw,2020-0188,2020-06-04,11:48:54,12:05:30,NA,incomplete,39,filling,1,1,right,Green_Circle_Dots_2.jpg,Purple_Triangle_Stripes_2.jpg,Red_Star_Dots_4.jpg,right,806.7000000155531,true,high,false
GRb8X5Cw,3ni0wfppjctpbx4ya2wphz5gism608,3skemfqbz7igflskyc879hc7pcl8kz,GRb8X5Cw,2020-0188,2020-06-04,11:48:54,12:05:30,NA,incomplete,40,number,0,1,right,Red_Plus_Grid_1.jpg,Green_Circle_Grid_2.jpg,Purple_Star_Chess_1.jpg,left,651.175000006333,false,high,false
GRb8X5Cw,3ni0wfppjctpbx4ya2wphz5gism608,3skemfqbz7igflskyc879hc7pcl8kz,GRb8X5Cw,2020-0188,2020-06-04,11:48:54,12:05:30,NA,incomplete,41,number,0,1,left,Red_Circle_Dots_1.jpg,Blue_Triangle_Grid_1.jpg,Purple_Star_Dots_3.jpg,right,889.2749999649823,false,high,false
GRb8X5Cw,3ni0wfppjctpbx4ya2wphz5gism608,3skemfqbz7igflskyc879hc7pcl8kz,GRb8X5Cw,2020-0188,2020-06-04,11:48:54,12:05:30,NA,incomplete,42,number,0,1,left,Green_Triangle_Stripes_2.jpg,Blue_Circle_Chess_2.jpg,Purple_Plus_Stripes_1.jpg,left,578.7100000306964,true,high,false
GRb8X5Cw,3ni0wfppjctpbx4ya2wphz5gism608,3skemfqbz7igflskyc879hc7pcl8kz,GRb8X5Cw,2020-0188,2020-06-04,11:48:54,12:05:30,NA,incomplete,43,number,0,0,left,Purple_Plus_Dots_1.jpg,Red_Star_Chess_1.jpg,Blue_Triangle_Dots_2.jpg,left,690.6549999839626,true,high,false
GRb8X5Cw,3ni0wfppjctpbx4ya2wphz5gism608,3skemfqbz7igflskyc879hc7pcl8kz,GRb8X5Cw,2020-0188,2020-06-04,11:48:54,12:05:30,NA,incomplete,44,number,0,1,right,Blue_Star_Dots_4.jpg,Green_Triangle_Dots_1.jpg,Purple_Plus_Chess_4.jpg,right,474.70500000054017,true,high,false
GRb8X5Cw,3ni0wfppjctpbx4ya2wphz5gism608,3skemfqbz7igflskyc879hc7pcl8kz,GRb8X5Cw,2020-0188,2020-06-04,11:48:54,12:05:30,NA,incomplete,45,number,0,1,left,Purple_Circle_Chess_2.jpg,Red_Plus_Stripes_2.jpg,Blue_Triangle_Chess_1.jpg,left,577.3550000158139,true,high,false
GRb8X5Cw,3ni0wfppjctpbx4ya2wphz5gism608,3skemfqbz7igflskyc879hc7pcl8kz,GRb8X5Cw,2020-0188,2020-06-04,11:48:54,12:05:30,NA,incomplete,46,number,0,1,left,Green_Plus_Chess_1.jpg,Blue_Circle_Grid_1.jpg,Red_Star_Chess_4.jpg,left,679.8849999904633,true,high,false
GRb8X5Cw,3ni0wfppjctpbx4ya2wphz5gism608,3skemfqbz7igflskyc879hc7pcl8kz,GRb8X5Cw,2020-0188,2020-06-04,11:48:54,12:05:30,NA,incomplete,47,number,0,1,right,Red_Plus_Stripes_1.jpg,Purple_Star_Stripes_3.jpg,Green_Circle_Dots_1.jpg,right,541.1350000067614,true,high,false
GRb8X5Cw,3ni0wfppjctpbx4ya2wphz5gism608,3skemfqbz7igflskyc879hc7pcl8kz,GRb8X5Cw,2020-0188,2020-06-04,11:48:54,12:05:30,NA,incomplete,48,number,0,0,left,Blue_Circle_Stripes_4.jpg,Purple_Plus_Chess_4.jpg,Red_Triangle_Stripes_1.jpg,left,518.9200000022538,true,high,false
GRb8X5Cw,3ni0wfppjctpbx4ya2wphz5gism608,3skemfqbz7igflskyc879hc7pcl8kz,GRb8X5Cw,2020-0188,2020-06-04,11:48:54,12:05:30,NA,incomplete,49,number,0,0,right,Red_Plus_Stripes_2.jpg,Purple_Triangle_Stripes_3.jpg,Green_Circle_Grid_2.jpg,right,563.8799999724142,true,high,false
GRb8X5Cw,3ni0wfppjctpbx4ya2wphz5gism608,3skemfqbz7igflskyc879hc7pcl8kz,GRb8X5Cw,2020-0188,2020-06-04,11:48:54,12:05:30,NA,incomplete,50,filling,1,1,left,Red_Star_Grid_3.jpg,Green_Circle_Grid_2.jpg,Purple_Plus_Stripes_3.jpg,right,799.5349999982864,false,high,false
GRb8X5Cw,3ni0wfppjctpbx4ya2wphz5gism608,3skemfqbz7igflskyc879hc7pcl8kz,GRb8X5Cw,2020-0188,2020-06-04,11:48:54,12:05:30,NA,incomplete,51,filling,1,1,left,Purple_Plus_Grid_4.jpg,Red_Circle_Grid_2.jpg,Blue_Triangle_Dots_4.jpg,left,910.7199999853037,true,high,false
GRb8X5Cw,3ni0wfppjctpbx4ya2wphz5gism608,3skemfqbz7igflskyc879hc7pcl8kz,GRb8X5Cw,2020-0188,2020-06-04,11:48:54,12:05:30,NA,incomplete,52,filling,1,1,left,Blue_Star_Dots_4.jpg,Green_Triangle_Dots_1.jpg,Red_Plus_Chess_4.jpg,left,939.3550000386313,true,high,false
GRb8X5Cw,3ni0wfppjctpbx4ya2wphz5gism608,3skemfqbz7igflskyc879hc7pcl8kz,GRb8X5Cw,2020-0188,2020-06-04,11:48:54,12:05:30,NA,incomplete,53,filling,1,0,right,Red_Circle_Grid_2.jpg,Blue_Star_Dots_2.jpg,Green_Triangle_Grid_1.jpg,right,795.6200000480749,true,high,false
GRb8X5Cw,3ni0wfppjctpbx4ya2wphz5gism608,3skemfqbz7igflskyc879hc7pcl8kz,GRb8X5Cw,2020-0188,2020-06-04,11:48:54,12:05:30,NA,incomplete,54,filling,1,1,left,Red_Circle_Dots_2.jpg,Green_Triangle_Dots_1.jpg,Purple_Plus_Stripes_2.jpg,left,877.5150000001304,true,high,false
GRb8X5Cw,3ni0wfppjctpbx4ya2wphz5gism608,3skemfqbz7igflskyc879hc7pcl8kz,GRb8X5Cw,2020-0188,2020-06-04,11:48:54,12:05:30,NA,incomplete,55,filling,1,1,left,Purple_Circle_Stripes_2.jpg,Blue_Plus_Stripes_4.jpg,Red_Triangle_Grid_2.jpg,left,1112.479999952484,true,high,false
GRb8X5Cw,3ni0wfppjctpbx4ya2wphz5gism608,3skemfqbz7igflskyc879hc7pcl8kz,GRb8X5Cw,2020-0188,2020-06-04,11:48:54,12:05:30,NA,incomplete,56,filling,1,1,right,Blue_Circle_Dots_2.jpg,Green_Triangle_Chess_2.jpg,Purple_Plus_Dots_4.jpg,right,793.4849999728613,true,high,false
GRb8X5Cw,3ni0wfppjctpbx4ya2wphz5gism608,3skemfqbz7igflskyc879hc7pcl8kz,GRb8X5Cw,2020-0188,2020-06-04,11:48:54,12:05:30,NA,incomplete,57,filling,1,1,right,Red_Star_Dots_4.jpg,Blue_Circle_Grid_4.jpg,Purple_Triangle_Dots_1.jpg,right,915.515000000596,true,high,false
GRb8X5Cw,3ni0wfppjctpbx4ya2wphz5gism608,3skemfqbz7igflskyc879hc7pcl8kz,GRb8X5Cw,2020-0188,2020-06-04,11:48:54,12:05:30,NA,incomplete,58,filling,1,0,left,Purple_Triangle_Grid_2.jpg,Red_Star_Grid_3.jpg,Green_Plus_Dots_2.jpg,left,816.9849999831058,true,high,false
GRb8X5Cw,3ni0wfppjctpbx4ya2wphz5gism608,3skemfqbz7igflskyc879hc7pcl8kz,GRb8X5Cw,2020-0188,2020-06-04,11:48:54,12:05:30,NA,incomplete,59,filling,1,0,right,Red_Plus_Stripes_2.jpg,Purple_Circle_Grid_2.jpg,Blue_Star_Stripes_4.jpg,right,1019.7599999955855,true,high,false
GRb8X5Cw,3ni0wfppjctpbx4ya2wphz5gism608,3skemfqbz7igflskyc879hc7pcl8kz,GRb8X5Cw,2020-0188,2020-06-04,11:48:54,12:05:30,NA,incomplete,60,number,0,1,left,Red_Plus_Grid_2.jpg,Green_Triangle_Chess_2.jpg,Blue_Star_Grid_1.jpg,left,530.1299999700859,true,high,false
GRb8X5Cw,3ni0wfppjctpbx4ya2wphz5gism608,3skemfqbz7igflskyc879hc7pcl8kz,GRb8X5Cw,2020-0188,2020-06-04,11:48:54,12:05:30,NA,incomplete,61,number,0,1,left,Green_Plus_Stripes_3.jpg,Purple_Circle_Grid_3.jpg,Blue_Star_Stripes_2.jpg,left,685.7799999997951,true,high,false
GRb8X5Cw,3ni0wfppjctpbx4ya2wphz5gism608,3skemfqbz7igflskyc879hc7pcl8kz,GRb8X5Cw,2020-0188,2020-06-04,11:48:54,12:05:30,NA,incomplete,62,number,0,1,left,Green_Triangle_Chess_3.jpg,Red_Star_Stripes_3.jpg,Blue_Plus_Chess_1.jpg,left,561.9249999872409,true,high,false
GRb8X5Cw,3ni0wfppjctpbx4ya2wphz5gism608,3skemfqbz7igflskyc879hc7pcl8kz,GRb8X5Cw,2020-0188,2020-06-04,11:48:54,12:05:30,NA,incomplete,63,number,0,0,right,Purple_Plus_Grid_1.jpg,Green_Star_Grid_2.jpg,Blue_Circle_Stripes_1.jpg,right,642.664999992121,true,high,false
GRb8X5Cw,3ni0wfppjctpbx4ya2wphz5gism608,3skemfqbz7igflskyc879hc7pcl8kz,GRb8X5Cw,2020-0188,2020-06-04,11:48:54,12:05:30,NA,incomplete,64,number,0,1,left,Purple_Plus_Grid_1.jpg,Red_Triangle_Chess_1.jpg,Blue_Circle_Grid_4.jpg,left,531.4150000340305,true,high,false
GRb8X5Cw,3ni0wfppjctpbx4ya2wphz5gism608,3skemfqbz7igflskyc879hc7pcl8kz,GRb8X5Cw,2020-0188,2020-06-04,11:48:54,12:05:30,NA,incomplete,65,number,0,1,left,Red_Star_Stripes_2.jpg,Green_Triangle_Grid_2.jpg,Purple_Circle_Stripes_4.jpg,left,715.5350000248291,true,high,false
GRb8X5Cw,3ni0wfppjctpbx4ya2wphz5gism608,3skemfqbz7igflskyc879hc7pcl8kz,GRb8X5Cw,2020-0188,2020-06-04,11:48:54,12:05:30,NA,incomplete,66,number,0,1,left,Blue_Plus_Chess_2.jpg,Green_Triangle_Dots_2.jpg,Red_Star_Chess_1.jpg,left,658.5400000330992,true,high,false
GRb8X5Cw,3ni0wfppjctpbx4ya2wphz5gism608,3skemfqbz7igflskyc879hc7pcl8kz,GRb8X5Cw,2020-0188,2020-06-04,11:48:54,12:05:30,NA,incomplete,67,number,0,0,right,Purple_Plus_Dots_3.jpg,Blue_Triangle_Dots_1.jpg,Green_Star_Chess_3.jpg,right,545.4050000407733,true,high,false
GRb8X5Cw,3ni0wfppjctpbx4ya2wphz5gism608,3skemfqbz7igflskyc879hc7pcl8kz,GRb8X5Cw,2020-0188,2020-06-04,11:48:54,12:05:30,NA,incomplete,68,number,0,1,right,Green_Circle_Stripes_4.jpg,Blue_Triangle_Stripes_3.jpg,Red_Plus_Dots_4.jpg,right,1129.4099999940954,true,high,false
GRb8X5Cw,3ni0wfppjctpbx4ya2wphz5gism608,3skemfqbz7igflskyc879hc7pcl8kz,GRb8X5Cw,2020-0188,2020-06-04,11:48:54,12:05:30,NA,incomplete,69,number,0,1,right,Blue_Triangle_Stripes_1.jpg,Red_Plus_Stripes_2.jpg,Green_Star_Grid_1.jpg,right,579.1099999914877,true,high,false
GRb8X5Cw,3ni0wfppjctpbx4ya2wphz5gism608,3skemfqbz7igflskyc879hc7pcl8kz,GRb8X5Cw,2020-0188,2020-06-04,11:48:54,12:05:30,NA,incomplete,70,filling,1,1,right,Blue_Circle_Dots_4.jpg,Green_Triangle_Grid_4.jpg,Purple_Star_Dots_2.jpg,left,502.07499996759,false,high,false
GRb8X5Cw,3ni0wfppjctpbx4ya2wphz5gism608,3skemfqbz7igflskyc879hc7pcl8kz,GRb8X5Cw,2020-0188,2020-06-04,11:48:54,12:05:30,NA,incomplete,71,filling,1,1,right,Purple_Triangle_Chess_3.jpg,Blue_Plus_Grid_3.jpg,Red_Star_Chess_1.jpg,left,598.969999991823,false,high,false
GRb8X5Cw,3ni0wfppjctpbx4ya2wphz5gism608,3skemfqbz7igflskyc879hc7pcl8kz,GRb8X5Cw,2020-0188,2020-06-04,11:48:54,12:05:30,NA,incomplete,72,filling,1,1,right,Red_Star_Dots_2.jpg,Purple_Circle_Stripes_2.jpg,Blue_Plus_Dots_3.jpg,right,815.6900000176392,true,high,false
GRb8X5Cw,3ni0wfppjctpbx4ya2wphz5gism608,3skemfqbz7igflskyc879hc7pcl8kz,GRb8X5Cw,2020-0188,2020-06-04,11:48:54,12:05:30,NA,incomplete,73,filling,1,1,right,Green_Plus_Dots_1.jpg,Red_Star_Grid_1.jpg,Blue_Circle_Dots_2.jpg,right,1018.3599999872968,true,high,false
GRb8X5Cw,3ni0wfppjctpbx4ya2wphz5gism608,3skemfqbz7igflskyc879hc7pcl8kz,GRb8X5Cw,2020-0188,2020-06-04,11:48:54,12:05:30,NA,incomplete,74,filling,1,1,right,Purple_Circle_Grid_4.jpg,Red_Star_Stripes_4.jpg,Green_Triangle_Grid_1.jpg,right,709.099999978207,true,high,false
GRb8X5Cw,3ni0wfppjctpbx4ya2wphz5gism608,3skemfqbz7igflskyc879hc7pcl8kz,GRb8X5Cw,2020-0188,2020-06-04,11:48:54,12:05:30,NA,incomplete,75,filling,1,1,left,Red_Triangle_Stripes_3.jpg,Purple_Star_Stripes_2.jpg,Blue_Circle_Chess_3.jpg,left,807.0450000232086,true,high,false
GRb8X5Cw,3ni0wfppjctpbx4ya2wphz5gism608,3skemfqbz7igflskyc879hc7pcl8kz,GRb8X5Cw,2020-0188,2020-06-04,11:48:54,12:05:30,NA,incomplete,76,filling,1,1,right,Purple_Triangle_Dots_2.jpg,Red_Plus_Grid_2.jpg,Green_Circle_Dots_4.jpg,right,878.4899999736808,true,high,false
GRb8X5Cw,3ni0wfppjctpbx4ya2wphz5gism608,3skemfqbz7igflskyc879hc7pcl8kz,GRb8X5Cw,2020-0188,2020-06-04,11:48:54,12:05:30,NA,incomplete,77,filling,1,1,right,Red_Circle_Grid_2.jpg,Green_Plus_Stripes_2.jpg,Blue_Star_Grid_4.jpg,right,825.6650000112131,true,high,false
GRb8X5Cw,3ni0wfppjctpbx4ya2wphz5gism608,3skemfqbz7igflskyc879hc7pcl8kz,GRb8X5Cw,2020-0188,2020-06-04,11:48:54,12:05:30,NA,incomplete,78,filling,1,1,right,Red_Star_Grid_4.jpg,Purple_Triangle_Dots_4.jpg,Blue_Circle_Grid_1.jpg,right,934.1550000244752,true,high,false
GRb8X5Cw,3ni0wfppjctpbx4ya2wphz5gism608,3skemfqbz7igflskyc879hc7pcl8kz,GRb8X5Cw,2020-0188,2020-06-04,11:48:54,12:05:30,NA,incomplete,79,filling,1,1,left,Green_Circle_Chess_4.jpg,Blue_Triangle_Chess_2.jpg,Purple_Star_Dots_4.jpg,left,664.1149999923073,true,high,false
GRb8X5Cw,3ni0wfppjctpbx4ya2wphz5gism608,3skemfqbz7igflskyc879hc7pcl8kz,GRb8X5Cw,2020-0188,2020-06-04,11:48:54,12:05:30,NA,incomplete,80,number,0,0,left,Blue_Circle_Stripes_1.jpg,Purple_Triangle_Chess_1.jpg,Red_Plus_Stripes_2.jpg,right,724.8099999851547,false,high,false
GRb8X5Cw,3ni0wfppjctpbx4ya2wphz5gism608,3skemfqbz7igflskyc879hc7pcl8kz,GRb8X5Cw,2020-0188,2020-06-04,11:48:54,12:05:30,NA,incomplete,81,number,0,1,right,Green_Triangle_Chess_2.jpg,Blue_Star_Chess_3.jpg,Purple_Plus_Dots_2.jpg,left,769.0650000004098,false,high,false
GRb8X5Cw,3ni0wfppjctpbx4ya2wphz5gism608,3skemfqbz7igflskyc879hc7pcl8kz,GRb8X5Cw,2020-0188,2020-06-04,11:48:54,12:05:30,NA,incomplete,82,number,0,1,left,Green_Plus_Dots_2.jpg,Red_Triangle_Chess_2.jpg,Blue_Circle_Dots_4.jpg,left,634.7449999884702,true,high,false
GRb8X5Cw,3ni0wfppjctpbx4ya2wphz5gism608,3skemfqbz7igflskyc879hc7pcl8kz,GRb8X5Cw,2020-0188,2020-06-04,11:48:54,12:05:30,NA,incomplete,83,number,0,0,right,Blue_Triangle_Stripes_4.jpg,Red_Star_Stripes_2.jpg,Purple_Circle_Dots_4.jpg,right,533.1700000097044,true,high,false
GRb8X5Cw,3ni0wfppjctpbx4ya2wphz5gism608,3skemfqbz7igflskyc879hc7pcl8kz,GRb8X5Cw,2020-0188,2020-06-04,11:48:54,12:05:30,NA,incomplete,84,number,0,1,right,Blue_Star_Stripes_2.jpg,Green_Triangle_Stripes_4.jpg,Purple_Plus_Dots_2.jpg,right,563.7700000079349,true,high,false
GRb8X5Cw,3ni0wfppjctpbx4ya2wphz5gism608,3skemfqbz7igflskyc879hc7pcl8kz,GRb8X5Cw,2020-0188,2020-06-04,11:48:54,12:05:30,NA,incomplete,85,number,0,1,right,Red_Star_Stripes_1.jpg,Blue_Plus_Stripes_3.jpg,Green_Circle_Dots_1.jpg,right,575.040000025183,true,high,false
GRb8X5Cw,3ni0wfppjctpbx4ya2wphz5gism608,3skemfqbz7igflskyc879hc7pcl8kz,GRb8X5Cw,2020-0188,2020-06-04,11:48:54,12:05:30,NA,incomplete,86,number,0,1,left,Blue_Circle_Grid_3.jpg,Red_Star_Chess_3.jpg,Green_Triangle_Grid_2.jpg,left,633.365000016056,true,high,false
GRb8X5Cw,3ni0wfppjctpbx4ya2wphz5gism608,3skemfqbz7igflskyc879hc7pcl8kz,GRb8X5Cw,2020-0188,2020-06-04,11:48:54,12:05:30,NA,incomplete,87,number,0,1,left,Purple_Circle_Dots_4.jpg,Red_Triangle_Grid_4.jpg,Green_Plus_Dots_1.jpg,left,711.5500000072643,true,high,false
GRb8X5Cw,3ni0wfppjctpbx4ya2wphz5gism608,3skemfqbz7igflskyc879hc7pcl8kz,GRb8X5Cw,2020-0188,2020-06-04,11:48:54,12:05:30,NA,incomplete,88,number,0,1,right,Red_Circle_Grid_1.jpg,Blue_Plus_Grid_2.jpg,Purple_Star_Stripes_1.jpg,right,524.37999995891,true,high,false
GRb8X5Cw,3ni0wfppjctpbx4ya2wphz5gism608,3skemfqbz7igflskyc879hc7pcl8kz,GRb8X5Cw,2020-0188,2020-06-04,11:48:54,12:05:30,NA,incomplete,89,number,0,1,left,Purple_Triangle_Chess_3.jpg,Green_Star_Stripes_3.jpg,Red_Circle_Chess_4.jpg,left,685.4149999562651,true,high,false
GRb8X5Cw,3ni0wfppjctpbx4ya2wphz5gism608,3skemfqbz7igflskyc879hc7pcl8kz,GRb8X5Cw,2020-0188,2020-06-04,11:48:54,12:05:30,NA,incomplete,90,filling,1,1,left,Green_Plus_Stripes_3.jpg,Blue_Star_Stripes_2.jpg,Purple_Triangle_Chess_3.jpg,right,613.4999999776483,false,high,false
GRb8X5Cw,3ni0wfppjctpbx4ya2wphz5gism608,3skemfqbz7igflskyc879hc7pcl8kz,GRb8X5Cw,2020-0188,2020-06-04,11:48:54,12:05:30,NA,incomplete,91,filling,1,1,left,Blue_Plus_Dots_3.jpg,Purple_Star_Dots_4.jpg,Red_Triangle_Grid_3.jpg,right,659.1350000235252,false,high,false
GRb8X5Cw,3ni0wfppjctpbx4ya2wphz5gism608,3skemfqbz7igflskyc879hc7pcl8kz,GRb8X5Cw,2020-0188,2020-06-04,11:48:54,12:05:30,NA,incomplete,92,filling,1,1,right,Red_Plus_Grid_2.jpg,Blue_Star_Dots_2.jpg,Purple_Triangle_Grid_4.jpg,right,779.9800000502728,true,high,false
GRb8X5Cw,3ni0wfppjctpbx4ya2wphz5gism608,3skemfqbz7igflskyc879hc7pcl8kz,GRb8X5Cw,2020-0188,2020-06-04,11:48:54,12:05:30,NA,incomplete,93,filling,1,1,right,Green_Triangle_Chess_3.jpg,Purple_Star_Dots_3.jpg,Red_Plus_Chess_2.jpg,right,748.2300000265241,true,high,false
GRb8X5Cw,3ni0wfppjctpbx4ya2wphz5gism608,3skemfqbz7igflskyc879hc7pcl8kz,GRb8X5Cw,2020-0188,2020-06-04,11:48:54,12:05:30,NA,incomplete,94,filling,1,1,left,Red_Circle_Dots_2.jpg,Purple_Triangle_Dots_3.jpg,Green_Plus_Grid_2.jpg,left,711.3099999842234,true,high,false
GRb8X5Cw,3ni0wfppjctpbx4ya2wphz5gism608,3skemfqbz7igflskyc879hc7pcl8kz,GRb8X5Cw,2020-0188,2020-06-04,11:48:54,12:05:30,NA,incomplete,95,filling,1,1,right,Blue_Plus_Chess_4.jpg,Green_Circle_Dots_4.jpg,Red_Triangle_Chess_2.jpg,right,684.3499999959022,true,high,false
GRb8X5Cw,3ni0wfppjctpbx4ya2wphz5gism608,3skemfqbz7igflskyc879hc7pcl8kz,GRb8X5Cw,2020-0188,2020-06-04,11:48:54,12:05:30,NA,incomplete,96,filling,1,0,right,Purple_Star_Grid_4.jpg,Blue_Plus_Chess_4.jpg,Green_Circle_Grid_2.jpg,right,993.3449999662116,true,high,false
GRb8X5Cw,3ni0wfppjctpbx4ya2wphz5gism608,3skemfqbz7igflskyc879hc7pcl8kz,GRb8X5Cw,2020-0188,2020-06-04,11:48:54,12:05:30,NA,incomplete,97,filling,1,0,left,Purple_Star_Stripes_2.jpg,Red_Plus_Stripes_3.jpg,Green_Circle_Dots_2.jpg,left,1274.7950000339188,true,high,false
GRb8X5Cw,3ni0wfppjctpbx4ya2wphz5gism608,3skemfqbz7igflskyc879hc7pcl8kz,GRb8X5Cw,2020-0188,2020-06-04,11:48:54,12:05:30,NA,incomplete,98,filling,1,1,right,Purple_Plus_Chess_3.jpg,Green_Circle_Stripes_3.jpg,Blue_Triangle_Chess_1.jpg,left,655.7500000344589,false,high,false
GRb8X5Cw,3ni0wfppjctpbx4ya2wphz5gism608,3skemfqbz7igflskyc879hc7pcl8kz,GRb8X5Cw,2020-0188,2020-06-04,11:48:54,12:05:30,NA,incomplete,99,filling,1,1,right,Purple_Plus_Stripes_3.jpg,Red_Circle_Grid_3.jpg,Blue_Star_Stripes_2.jpg,left,704.7000000020489,false,high,false
GRb8X5Cw,3ni0wfppjctpbx4ya2wphz5gism608,3skemfqbz7igflskyc879hc7pcl8kz,GRb8X5Cw,2020-0188,2020-06-04,11:48:54,12:05:30,NA,incomplete,100,number,0,1,right,Blue_Circle_Grid_3.jpg,Purple_Star_Grid_2.jpg,Green_Triangle_Stripes_3.jpg,left,850.7799999788404,false,high,false
GRb8X5Cw,3ni0wfppjctpbx4ya2wphz5gism608,3skemfqbz7igflskyc879hc7pcl8kz,GRb8X5Cw,2020-0188,2020-06-04,11:48:54,12:05:30,NA,incomplete,101,number,0,1,right,Red_Star_Chess_3.jpg,Purple_Circle_Chess_4.jpg,Green_Plus_Grid_3.jpg,left,949.544999981299,false,high,false
GRb8X5Cw,3ni0wfppjctpbx4ya2wphz5gism608,3skemfqbz7igflskyc879hc7pcl8kz,GRb8X5Cw,2020-0188,2020-06-04,11:48:54,12:05:30,NA,incomplete,102,number,0,1,left,Blue_Star_Stripes_1.jpg,Purple_Circle_Grid_1.jpg,Red_Plus_Stripes_4.jpg,left,693.5750000411645,true,high,false
GRb8X5Cw,3ni0wfppjctpbx4ya2wphz5gism608,3skemfqbz7igflskyc879hc7pcl8kz,GRb8X5Cw,2020-0188,2020-06-04,11:48:54,12:05:30,NA,incomplete,103,number,0,0,right,Blue_Triangle_Grid_3.jpg,Green_Star_Grid_4.jpg,Red_Plus_Chess_3.jpg,right,657.5599999632686,true,high,false
GRb8X5Cw,3ni0wfppjctpbx4ya2wphz5gism608,3skemfqbz7igflskyc879hc7pcl8kz,GRb8X5Cw,2020-0188,2020-06-04,11:48:54,12:05:30,NA,incomplete,104,number,0,1,left,Purple_Circle_Dots_2.jpg,Blue_Star_Chess_2.jpg,Red_Triangle_Dots_3.jpg,left,730.5599999963306,true,high,false
GRb8X5Cw,3ni0wfppjctpbx4ya2wphz5gism608,3skemfqbz7igflskyc879hc7pcl8kz,GRb8X5Cw,2020-0188,2020-06-04,11:48:54,12:05:30,NA,incomplete,105,number,0,1,right,Blue_Plus_Grid_4.jpg,Red_Triangle_Grid_1.jpg,Green_Circle_Chess_4.jpg,right,671.8299999483861,true,high,false
GRb8X5Cw,3ni0wfppjctpbx4ya2wphz5gism608,3skemfqbz7igflskyc879hc7pcl8kz,GRb8X5Cw,2020-0188,2020-06-04,11:48:54,12:05:30,NA,incomplete,106,number,0,1,right,Green_Plus_Stripes_1.jpg,Red_Triangle_Stripes_3.jpg,Blue_Circle_Chess_1.jpg,right,648.2099999557249,true,high,false
GRb8X5Cw,3ni0wfppjctpbx4ya2wphz5gism608,3skemfqbz7igflskyc879hc7pcl8kz,GRb8X5Cw,2020-0188,2020-06-04,11:48:54,12:05:30,NA,incomplete,107,number,0,1,left,Purple_Star_Chess_4.jpg,Red_Triangle_Dots_4.jpg,Green_Circle_Chess_3.jpg,left,576.3000000151806,true,high,false
GRb8X5Cw,3ni0wfppjctpbx4ya2wphz5gism608,3skemfqbz7igflskyc879hc7pcl8kz,GRb8X5Cw,2020-0188,2020-06-04,11:48:54,12:05:30,NA,incomplete,108,number,0,1,left,Blue_Circle_Chess_1.jpg,Green_Star_Grid_1.jpg,Purple_Plus_Chess_3.jpg,left,574.0499999956228,true,high,false
GRb8X5Cw,3ni0wfppjctpbx4ya2wphz5gism608,3skemfqbz7igflskyc879hc7pcl8kz,GRb8X5Cw,2020-0188,2020-06-04,11:48:54,12:05:30,NA,incomplete,109,number,0,1,right,Red_Circle_Chess_2.jpg,Blue_Star_Chess_1.jpg,Purple_Plus_Stripes_2.jpg,right,562.1749999700114,true,high,false
GRb8X5Cw,3ni0wfppjctpbx4ya2wphz5gism608,3skemfqbz7igflskyc879hc7pcl8kz,GRb8X5Cw,2020-0188,2020-06-04,11:48:54,12:05:30,NA,incomplete,110,filling,1,0,right,Green_Plus_Dots_2.jpg,Blue_Star_Stripes_2.jpg,Purple_Triangle_Dots_1.jpg,left,526.5999999828637,false,high,false
GRb8X5Cw,3ni0wfppjctpbx4ya2wphz5gism608,3skemfqbz7igflskyc879hc7pcl8kz,GRb8X5Cw,2020-0188,2020-06-04,11:48:54,12:05:30,NA,incomplete,111,filling,1,1,right,Green_Plus_Grid_1.jpg,Red_Triangle_Dots_1.jpg,Purple_Circle_Grid_2.jpg,left,581.3849999685772,false,high,false
GRb8X5Cw,3ni0wfppjctpbx4ya2wphz5gism608,3skemfqbz7igflskyc879hc7pcl8kz,GRb8X5Cw,2020-0188,2020-06-04,11:48:54,12:05:30,NA,incomplete,112,filling,1,1,left,Blue_Star_Chess_1.jpg,Purple_Circle_Chess_4.jpg,Red_Plus_Dots_1.jpg,right,661.9449999998324,false,high,false
GRb8X5Cw,3ni0wfppjctpbx4ya2wphz5gism608,3skemfqbz7igflskyc879hc7pcl8kz,GRb8X5Cw,2020-0188,2020-06-04,11:48:54,12:05:30,NA,incomplete,113,filling,1,1,right,Green_Triangle_Grid_2.jpg,Blue_Plus_Dots_2.jpg,Purple_Circle_Grid_4.jpg,right,696.9500000122935,true,high,false
GRb8X5Cw,3ni0wfppjctpbx4ya2wphz5gism608,3skemfqbz7igflskyc879hc7pcl8kz,GRb8X5Cw,2020-0188,2020-06-04,11:48:54,12:05:30,NA,incomplete,114,filling,1,1,left,Red_Triangle_Stripes_2.jpg,Green_Star_Stripes_1.jpg,Blue_Circle_Grid_2.jpg,left,874.0600000019185,true,high,false
GRb8X5Cw,3ni0wfppjctpbx4ya2wphz5gism608,3skemfqbz7igflskyc879hc7pcl8kz,GRb8X5Cw,2020-0188,2020-06-04,11:48:54,12:05:30,NA,incomplete,115,filling,1,1,left,Purple_Circle_Stripes_3.jpg,Green_Triangle_Stripes_1.jpg,Blue_Star_Dots_3.jpg,left,984.0049999766052,true,high,false
GRb8X5Cw,3ni0wfppjctpbx4ya2wphz5gism608,3skemfqbz7igflskyc879hc7pcl8kz,GRb8X5Cw,2020-0188,2020-06-04,11:48:54,12:05:30,NA,incomplete,116,filling,1,0,right,Green_Triangle_Stripes_3.jpg,Blue_Circle_Dots_3.jpg,Purple_Star_Stripes_2.jpg,right,824.9650000361726,true,high,false
GRb8X5Cw,3ni0wfppjctpbx4ya2wphz5gism608,3skemfqbz7igflskyc879hc7pcl8kz,GRb8X5Cw,2020-0188,2020-06-04,11:48:54,12:05:30,NA,incomplete,117,filling,1,0,right,Green_Triangle_Dots_1.jpg,Red_Circle_Chess_1.jpg,Purple_Star_Dots_2.jpg,right,1226.2350000091828,true,high,false
GRb8X5Cw,3ni0wfppjctpbx4ya2wphz5gism608,3skemfqbz7igflskyc879hc7pcl8kz,GRb8X5Cw,2020-0188,2020-06-04,11:48:54,12:05:30,NA,incomplete,118,filling,1,1,right,Red_Plus_Chess_2.jpg,Purple_Star_Dots_2.jpg,Blue_Triangle_Chess_3.jpg,left,578.9900000090711,false,high,false
GRb8X5Cw,3ni0wfppjctpbx4ya2wphz5gism608,3skemfqbz7igflskyc879hc7pcl8kz,GRb8X5Cw,2020-0188,2020-06-04,11:48:54,12:05:30,NA,incomplete,119,filling,1,1,left,Purple_Circle_Chess_2.jpg,Blue_Star_Chess_4.jpg,Red_Triangle_Stripes_2.jpg,right,722.6999999838881,false,high,false
GRb8X5Cw,3ni0wfppjctpbx4ya2wphz5gism608,3skemfqbz7igflskyc879hc7pcl8kz,GRb8X5Cw,2020-0188,2020-06-04,11:48:54,12:05:30,NA,incomplete,120,race,2,1,right,C_F_02.jpg,A_F_15.jpg,C_M_08.jpg,NA,NA,NA,high,false
GRb8X5Cw,3ni0wfppjctpbx4ya2wphz5gism608,3skemfqbz7igflskyc879hc7pcl8kz,GRb8X5Cw,2020-0188,2020-06-04,11:48:54,12:05:30,NA,incomplete,121,race,2,0,left,C_F_07.jpg,C_M_03.jpg,A_F_14.jpg,right,1126.2949999654666,false,high,false
GRb8X5Cw,3ni0wfppjctpbx4ya2wphz5gism608,3skemfqbz7igflskyc879hc7pcl8kz,GRb8X5Cw,2020-0188,2020-06-04,11:48:54,12:05:30,NA,incomplete,122,race,2,1,right,A_F_07.jpg,C_F_14.jpg,A_M_15.jpg,left,707.825000048615,false,high,false
GRb8X5Cw,3ni0wfppjctpbx4ya2wphz5gism608,3skemfqbz7igflskyc879hc7pcl8kz,GRb8X5Cw,2020-0188,2020-06-04,11:48:54,12:05:30,NA,incomplete,123,race,2,0,right,C_F_01.jpg,A_F_12.jpg,C_M_10.jpg,left,1107.3400000459515,false,high,false
GRb8X5Cw,3ni0wfppjctpbx4ya2wphz5gism608,3skemfqbz7igflskyc879hc7pcl8kz,GRb8X5Cw,2020-0188,2020-06-04,11:48:54,12:05:30,NA,incomplete,124,race,2,1,right,A_F_07.jpg,C_F_09.jpg,A_M_04.jpg,left,639.1750000184402,false,high,false
GRb8X5Cw,3ni0wfppjctpbx4ya2wphz5gism608,3skemfqbz7igflskyc879hc7pcl8kz,GRb8X5Cw,2020-0188,2020-06-04,11:48:54,12:05:30,NA,incomplete,125,race,2,1,right,C_M_13.jpg,A_M_01.jpg,C_F_15.jpg,left,975.4199999733828,false,high,false
GRb8X5Cw,3ni0wfppjctpbx4ya2wphz5gism608,3skemfqbz7igflskyc879hc7pcl8kz,GRb8X5Cw,2020-0188,2020-06-04,11:48:54,12:05:30,NA,incomplete,126,race,2,1,left,A_M_09.jpg,A_F_05.jpg,C_M_07.jpg,left,965.4450000380166,true,high,false
GRb8X5Cw,3ni0wfppjctpbx4ya2wphz5gism608,3skemfqbz7igflskyc879hc7pcl8kz,GRb8X5Cw,2020-0188,2020-06-04,11:48:54,12:05:30,NA,incomplete,127,race,2,1,right,C_M_14.jpg,A_M_16.jpg,C_F_06.jpg,right,1129.5150000369176,true,high,false
GRb8X5Cw,3ni0wfppjctpbx4ya2wphz5gism608,3skemfqbz7igflskyc879hc7pcl8kz,GRb8X5Cw,2020-0188,2020-06-04,11:48:54,12:05:30,NA,incomplete,128,race,2,1,right,A_F_02.jpg,C_F_12.jpg,A_M_14.jpg,right,954.909999971278,true,high,false
GRb8X5Cw,3ni0wfppjctpbx4ya2wphz5gism608,3skemfqbz7igflskyc879hc7pcl8kz,GRb8X5Cw,2020-0188,2020-06-04,11:48:54,12:05:30,NA,incomplete,129,race,2,1,left,C_M_04.jpg,C_F_02.jpg,A_M_07.jpg,left,1047.2249999875203,true,high,false
GRb8X5Cw,3ni0wfppjctpbx4ya2wphz5gism608,3skemfqbz7igflskyc879hc7pcl8kz,GRb8X5Cw,2020-0188,2020-06-04,11:48:54,12:05:30,NA,incomplete,130,race,2,0,right,C_F_03.jpg,A_F_09.jpg,C_M_12.jpg,right,973.8000000361353,true,high,false
GRb8X5Cw,3ni0wfppjctpbx4ya2wphz5gism608,3skemfqbz7igflskyc879hc7pcl8kz,GRb8X5Cw,2020-0188,2020-06-04,11:48:54,12:05:30,NA,incomplete,131,race,2,1,left,C_M_04.jpg,C_F_14.jpg,A_M_08.jpg,right,653.5449999500997,false,high,false
GRb8X5Cw,3ni0wfppjctpbx4ya2wphz5gism608,3skemfqbz7igflskyc879hc7pcl8kz,GRb8X5Cw,2020-0188,2020-06-04,11:48:54,12:05:30,NA,incomplete,132,race,2,1,left,C_M_03.jpg,C_F_08.jpg,A_M_11.jpg,left,884.5949999522418,true,high,false
GRb8X5Cw,3ni0wfppjctpbx4ya2wphz5gism608,3skemfqbz7igflskyc879hc7pcl8kz,GRb8X5Cw,2020-0188,2020-06-04,11:48:54,12:05:30,NA,incomplete,133,race,2,1,left,A_F_06.jpg,A_M_05.jpg,C_F_14.jpg,left,883.4050000295974,true,high,false
GRb8X5Cw,3ni0wfppjctpbx4ya2wphz5gism608,3skemfqbz7igflskyc879hc7pcl8kz,GRb8X5Cw,2020-0188,2020-06-04,11:48:54,12:05:30,NA,incomplete,134,race,2,1,right,A_M_13.jpg,C_M_15.jpg,A_F_16.jpg,right,715.0200000032783,true,high,false
GRb8X5Cw,3ni0wfppjctpbx4ya2wphz5gism608,3skemfqbz7igflskyc879hc7pcl8kz,GRb8X5Cw,2020-0188,2020-06-04,11:48:54,12:05:30,NA,incomplete,135,race,2,1,left,C_M_14.jpg,C_F_01.jpg,A_M_03.jpg,left,1105.9000000241213,true,high,false
GRb8X5Cw,3ni0wfppjctpbx4ya2wphz5gism608,3skemfqbz7igflskyc879hc7pcl8kz,GRb8X5Cw,2020-0188,2020-06-04,11:48:54,12:05:30,NA,incomplete,136,race,2,1,left,A_F_12.jpg,A_M_14.jpg,C_F_06.jpg,left,830.0949999829754,true,high,false
GRb8X5Cw,3ni0wfppjctpbx4ya2wphz5gism608,3skemfqbz7igflskyc879hc7pcl8kz,GRb8X5Cw,2020-0188,2020-06-04,11:48:54,12:05:30,NA,incomplete,137,race,2,1,left,C_M_07.jpg,C_F_08.jpg,A_M_06.jpg,right,1026.9500000285916,false,high,false
GRb8X5Cw,3ni0wfppjctpbx4ya2wphz5gism608,3skemfqbz7igflskyc879hc7pcl8kz,GRb8X5Cw,2020-0188,2020-06-04,11:48:54,12:05:30,NA,incomplete,138,race,2,0,left,A_M_03.jpg,A_F_10.jpg,C_M_01.jpg,left,771.9700000016019,true,high,false
GRb8X5Cw,3ni0wfppjctpbx4ya2wphz5gism608,3skemfqbz7igflskyc879hc7pcl8kz,GRb8X5Cw,2020-0188,2020-06-04,11:48:54,12:05:30,NA,incomplete,139,race,2,1,left,C_F_03.jpg,C_M_14.jpg,A_F_01.jpg,right,613.6149999802001,false,high,false
GRb8X5Cw,3ni0wfppjctpbx4ya2wphz5gism608,3skemfqbz7igflskyc879hc7pcl8kz,GRb8X5Cw,2020-0188,2020-06-04,11:48:54,12:05:30,NA,incomplete,140,gender,3,1,left,C_F_09.jpg,A_F_07.jpg,C_M_05.jpg,right,889.3250000546686,false,high,false
GRb8X5Cw,3ni0wfppjctpbx4ya2wphz5gism608,3skemfqbz7igflskyc879hc7pcl8kz,GRb8X5Cw,2020-0188,2020-06-04,11:48:54,12:05:30,NA,incomplete,141,gender,3,0,right,A_F_16.jpg,A_M_05.jpg,C_F_15.jpg,left,1011.3750000018626,false,high,false
GRb8X5Cw,3ni0wfppjctpbx4ya2wphz5gism608,3skemfqbz7igflskyc879hc7pcl8kz,GRb8X5Cw,2020-0188,2020-06-04,11:48:54,12:05:30,NA,incomplete,142,gender,3,1,left,C_M_16.jpg,A_M_07.jpg,C_F_14.jpg,right,753.3250000560656,false,high,false
GRb8X5Cw,3ni0wfppjctpbx4ya2wphz5gism608,3skemfqbz7igflskyc879hc7pcl8kz,GRb8X5Cw,2020-0188,2020-06-04,11:48:54,12:05:30,NA,incomplete,143,gender,3,1,right,A_M_09.jpg,A_F_06.jpg,C_M_05.jpg,left,891.7600000277162,false,high,false
GRb8X5Cw,3ni0wfppjctpbx4ya2wphz5gism608,3skemfqbz7igflskyc879hc7pcl8kz,GRb8X5Cw,2020-0188,2020-06-04,11:48:54,12:05:30,NA,incomplete,144,gender,3,1,right,A_F_10.jpg,A_M_15.jpg,C_F_03.jpg,right,499.82500000623986,true,high,false
GRb8X5Cw,3ni0wfppjctpbx4ya2wphz5gism608,3skemfqbz7igflskyc879hc7pcl8kz,GRb8X5Cw,2020-0188,2020-06-04,11:48:54,12:05:30,NA,incomplete,145,gender,3,0,left,C_F_09.jpg,A_F_06.jpg,C_M_15.jpg,left,816.6450000135228,true,high,false
GRb8X5Cw,3ni0wfppjctpbx4ya2wphz5gism608,3skemfqbz7igflskyc879hc7pcl8kz,GRb8X5Cw,2020-0188,2020-06-04,11:48:54,12:05:30,NA,incomplete,146,gender,3,1,right,C_M_05.jpg,C_F_04.jpg,A_M_13.jpg,right,840.7749999896623,true,high,false
GRb8X5Cw,3ni0wfppjctpbx4ya2wphz5gism608,3skemfqbz7igflskyc879hc7pcl8kz,GRb8X5Cw,2020-0188,2020-06-04,11:48:54,12:05:30,NA,incomplete,147,gender,3,0,left,C_M_03.jpg,A_M_13.jpg,C_F_04.jpg,left,648.6800000420772,true,high,false
GRb8X5Cw,3ni0wfppjctpbx4ya2wphz5gism608,3skemfqbz7igflskyc879hc7pcl8kz,GRb8X5Cw,2020-0188,2020-06-04,11:48:54,12:05:30,NA,incomplete,148,gender,3,1,right,A_F_07.jpg,A_M_10.jpg,C_F_13.jpg,right,1794.0700000035577,true,high,false
GRb8X5Cw,3ni0wfppjctpbx4ya2wphz5gism608,3skemfqbz7igflskyc879hc7pcl8kz,GRb8X5Cw,2020-0188,2020-06-04,11:48:54,12:05:30,NA,incomplete,149,gender,3,1,right,A_M_02.jpg,A_F_06.jpg,C_M_15.jpg,right,960.8199999784119,true,high,false
GRb8X5Cw,3ni0wfppjctpbx4ya2wphz5gism608,3skemfqbz7igflskyc879hc7pcl8kz,GRb8X5Cw,2020-0188,2020-06-04,11:48:54,12:05:30,NA,incomplete,150,gender,3,1,right,A_F_01.jpg,A_M_15.jpg,C_F_13.jpg,right,559.804999968037,true,high,false
GRb8X5Cw,3ni0wfppjctpbx4ya2wphz5gism608,3skemfqbz7igflskyc879hc7pcl8kz,GRb8X5Cw,2020-0188,2020-06-04,11:48:54,12:05:30,NA,incomplete,151,gender,3,1,left,A_M_01.jpg,C_M_06.jpg,A_F_03.jpg,left,662.7849999931641,true,high,false
GRb8X5Cw,3ni0wfppjctpbx4ya2wphz5gism608,3skemfqbz7igflskyc879hc7pcl8kz,GRb8X5Cw,2020-0188,2020-06-04,11:48:54,12:05:30,NA,incomplete,152,gender,3,1,right,A_M_07.jpg,A_F_01.jpg,C_M_14.jpg,right,637.1650000219233,true,high,false
GRb8X5Cw,3ni0wfppjctpbx4ya2wphz5gism608,3skemfqbz7igflskyc879hc7pcl8kz,GRb8X5Cw,2020-0188,2020-06-04,11:48:54,12:05:30,NA,incomplete,153,gender,3,0,left,C_F_01.jpg,A_F_04.jpg,C_M_13.jpg,left,677.1199999493547,true,high,false
GRb8X5Cw,3ni0wfppjctpbx4ya2wphz5gism608,3skemfqbz7igflskyc879hc7pcl8kz,GRb8X5Cw,2020-0188,2020-06-04,11:48:54,12:05:30,NA,incomplete,154,gender,3,1,right,C_F_05.jpg,C_M_10.jpg,A_F_03.jpg,right,708.1800000160001,true,high,false
GRb8X5Cw,3ni0wfppjctpbx4ya2wphz5gism608,3skemfqbz7igflskyc879hc7pcl8kz,GRb8X5Cw,2020-0188,2020-06-04,11:48:54,12:05:30,NA,incomplete,155,gender,3,0,left,A_F_15.jpg,C_F_09.jpg,A_M_08.jpg,left,917.3699999810196,true,high,false
GRb8X5Cw,3ni0wfppjctpbx4ya2wphz5gism608,3skemfqbz7igflskyc879hc7pcl8kz,GRb8X5Cw,2020-0188,2020-06-04,11:48:54,12:05:30,NA,incomplete,156,gender,3,1,right,A_F_04.jpg,A_M_13.jpg,C_F_16.jpg,right,551.4299999922514,true,high,false
GRb8X5Cw,3ni0wfppjctpbx4ya2wphz5gism608,3skemfqbz7igflskyc879hc7pcl8kz,GRb8X5Cw,2020-0188,2020-06-04,11:48:54,12:05:30,NA,incomplete,157,gender,3,0,right,C_M_12.jpg,C_F_13.jpg,A_M_15.jpg,right,1024.8049999936484,true,high,false
GRb8X5Cw,3ni0wfppjctpbx4ya2wphz5gism608,3skemfqbz7igflskyc879hc7pcl8kz,GRb8X5Cw,2020-0188,2020-06-04,11:48:54,12:05:30,NA,incomplete,158,gender,3,1,right,C_M_12.jpg,C_F_13.jpg,A_M_16.jpg,right,620.1900000451133,true,high,false
GRb8X5Cw,3ni0wfppjctpbx4ya2wphz5gism608,3skemfqbz7igflskyc879hc7pcl8kz,GRb8X5Cw,2020-0188,2020-06-04,11:48:54,12:05:30,NA,incomplete,159,gender,3,1,right,A_F_11.jpg,A_M_06.jpg,C_F_16.jpg,right,655.655000009574,true,high,false
GRb8X5Cw,3ni0wfppjctpbx4ya2wphz5gism608,3skemfqbz7igflskyc879hc7pcl8kz,GRb8X5Cw,2020-0188,2020-06-04,11:48:54,12:05:30,NA,incomplete,160,race,2,1,right,C_M_03.jpg,A_M_10.jpg,C_F_08.jpg,left,686.359999992419,false,high,false
GRb8X5Cw,3ni0wfppjctpbx4ya2wphz5gism608,3skemfqbz7igflskyc879hc7pcl8kz,GRb8X5Cw,2020-0188,2020-06-04,11:48:54,12:05:30,NA,incomplete,161,race,2,1,left,C_F_06.jpg,C_M_11.jpg,A_F_14.jpg,right,866.0450000315905,false,high,false
GRb8X5Cw,3ni0wfppjctpbx4ya2wphz5gism608,3skemfqbz7igflskyc879hc7pcl8kz,GRb8X5Cw,2020-0188,2020-06-04,11:48:54,12:05:30,NA,incomplete,162,race,2,0,left,A_M_14.jpg,A_F_10.jpg,C_M_03.jpg,left,733.6800000048243,true,high,false
GRb8X5Cw,3ni0wfppjctpbx4ya2wphz5gism608,3skemfqbz7igflskyc879hc7pcl8kz,GRb8X5Cw,2020-0188,2020-06-04,11:48:54,12:05:30,NA,incomplete,163,race,2,1,left,A_F_13.jpg,A_M_12.jpg,C_F_10.jpg,right,862.0499999960884,false,high,false
GRb8X5Cw,3ni0wfppjctpbx4ya2wphz5gism608,3skemfqbz7igflskyc879hc7pcl8kz,GRb8X5Cw,2020-0188,2020-06-04,11:48:54,12:05:30,NA,incomplete,164,race,2,0,right,C_M_07.jpg,A_M_03.jpg,C_F_13.jpg,right,1149.5800000266172,true,high,false
GRb8X5Cw,3ni0wfppjctpbx4ya2wphz5gism608,3skemfqbz7igflskyc879hc7pcl8kz,GRb8X5Cw,2020-0188,2020-06-04,11:48:54,12:05:30,NA,incomplete,165,race,2,1,right,A_F_08.jpg,C_F_10.jpg,A_M_09.jpg,left,578.9849999709986,false,high,false
GRb8X5Cw,3ni0wfppjctpbx4ya2wphz5gism608,3skemfqbz7igflskyc879hc7pcl8kz,GRb8X5Cw,2020-0188,2020-06-04,11:48:54,12:05:30,NA,incomplete,166,race,2,0,right,C_M_02.jpg,A_M_13.jpg,C_F_16.jpg,left,669.3749999976717,false,high,false
GRb8X5Cw,3ni0wfppjctpbx4ya2wphz5gism608,3skemfqbz7igflskyc879hc7pcl8kz,GRb8X5Cw,2020-0188,2020-06-04,11:48:54,12:05:30,NA,incomplete,167,race,2,1,right,A_F_07.jpg,C_F_04.jpg,A_M_14.jpg,left,731.2249999959022,false,high,false
GRb8X5Cw,3ni0wfppjctpbx4ya2wphz5gism608,3skemfqbz7igflskyc879hc7pcl8kz,GRb8X5Cw,2020-0188,2020-06-04,11:48:54,12:05:30,NA,incomplete,168,race,2,1,right,C_F_01.jpg,A_F_14.jpg,C_M_06.jpg,right,950.2450000145473,true,high,false
GRb8X5Cw,3ni0wfppjctpbx4ya2wphz5gism608,3skemfqbz7igflskyc879hc7pcl8kz,GRb8X5Cw,2020-0188,2020-06-04,11:48:54,12:05:30,NA,incomplete,169,race,2,1,right,A_M_07.jpg,C_M_06.jpg,A_F_08.jpg,right,839.7300000069663,true,high,false
GRb8X5Cw,3ni0wfppjctpbx4ya2wphz5gism608,3skemfqbz7igflskyc879hc7pcl8kz,GRb8X5Cw,2020-0188,2020-06-04,11:48:54,12:05:30,NA,incomplete,170,race,2,1,left,A_F_11.jpg,A_M_13.jpg,C_F_16.jpg,right,988.8250000076368,false,high,false
GRb8X5Cw,3ni0wfppjctpbx4ya2wphz5gism608,3skemfqbz7igflskyc879hc7pcl8kz,GRb8X5Cw,2020-0188,2020-06-04,11:48:54,12:05:30,NA,incomplete,171,race,2,1,right,A_M_01.jpg,C_M_16.jpg,A_F_02.jpg,right,826.3249999727122,true,high,false
GRb8X5Cw,3ni0wfppjctpbx4ya2wphz5gism608,3skemfqbz7igflskyc879hc7pcl8kz,GRb8X5Cw,2020-0188,2020-06-04,11:48:54,12:05:30,NA,incomplete,172,race,2,0,right,A_M_02.jpg,C_M_15.jpg,A_F_10.jpg,right,780.5199999711476,true,high,false
GRb8X5Cw,3ni0wfppjctpbx4ya2wphz5gism608,3skemfqbz7igflskyc879hc7pcl8kz,GRb8X5Cw,2020-0188,2020-06-04,11:48:54,12:05:30,NA,incomplete,173,race,2,1,left,A_F_07.jpg,A_M_10.jpg,C_F_05.jpg,left,1018.6349999858066,true,high,false
GRb8X5Cw,3ni0wfppjctpbx4ya2wphz5gism608,3skemfqbz7igflskyc879hc7pcl8kz,GRb8X5Cw,2020-0188,2020-06-04,11:48:54,12:05:30,NA,incomplete,174,race,2,1,left,A_F_04.jpg,A_M_16.jpg,C_F_03.jpg,left,905.3300000377931,true,high,false
GRb8X5Cw,3ni0wfppjctpbx4ya2wphz5gism608,3skemfqbz7igflskyc879hc7pcl8kz,GRb8X5Cw,2020-0188,2020-06-04,11:48:54,12:05:30,NA,incomplete,175,race,2,1,right,A_F_06.jpg,C_F_14.jpg,A_M_05.jpg,right,871.3100000168197,true,high,false
GRb8X5Cw,3ni0wfppjctpbx4ya2wphz5gism608,3skemfqbz7igflskyc879hc7pcl8kz,GRb8X5Cw,2020-0188,2020-06-04,11:48:54,12:05:30,NA,incomplete,176,race,2,1,right,A_M_12.jpg,C_M_07.jpg,A_F_06.jpg,right,724.5199999888428,true,high,false
GRb8X5Cw,3ni0wfppjctpbx4ya2wphz5gism608,3skemfqbz7igflskyc879hc7pcl8kz,GRb8X5Cw,2020-0188,2020-06-04,11:48:54,12:05:30,NA,incomplete,177,race,2,1,left,A_F_13.jpg,A_M_01.jpg,C_F_14.jpg,right,686.5899999975227,false,high,false
GRb8X5Cw,3ni0wfppjctpbx4ya2wphz5gism608,3skemfqbz7igflskyc879hc7pcl8kz,GRb8X5Cw,2020-0188,2020-06-04,11:48:54,12:05:30,NA,incomplete,178,race,2,1,left,A_M_13.jpg,A_F_09.jpg,C_M_12.jpg,left,768.4949999675155,true,high,false
GRb8X5Cw,3ni0wfppjctpbx4ya2wphz5gism608,3skemfqbz7igflskyc879hc7pcl8kz,GRb8X5Cw,2020-0188,2020-06-04,11:48:54,12:05:30,NA,incomplete,179,race,2,1,right,A_F_03.jpg,C_F_06.jpg,A_M_05.jpg,right,786.0450000152923,true,high,false
GRb8X5Cw,3ni0wfppjctpbx4ya2wphz5gism608,3skemfqbz7igflskyc879hc7pcl8kz,GRb8X5Cw,2020-0188,2020-06-04,11:48:54,12:05:30,NA,incomplete,180,gender,3,1,left,A_M_09.jpg,C_M_07.jpg,A_F_04.jpg,right,850.464999966789,false,high,false
GRb8X5Cw,3ni0wfppjctpbx4ya2wphz5gism608,3skemfqbz7igflskyc879hc7pcl8kz,GRb8X5Cw,2020-0188,2020-06-04,11:48:54,12:05:30,NA,incomplete,181,gender,3,1,left,A_F_10.jpg,C_F_09.jpg,A_M_12.jpg,right,734.2000000062399,false,high,false
GRb8X5Cw,3ni0wfppjctpbx4ya2wphz5gism608,3skemfqbz7igflskyc879hc7pcl8kz,GRb8X5Cw,2020-0188,2020-06-04,11:48:54,12:05:30,NA,incomplete,182,gender,3,1,left,A_F_09.jpg,C_F_11.jpg,A_M_07.jpg,left,591.3399999844842,true,high,false
GRb8X5Cw,3ni0wfppjctpbx4ya2wphz5gism608,3skemfqbz7igflskyc879hc7pcl8kz,GRb8X5Cw,2020-0188,2020-06-04,11:48:54,12:05:30,NA,incomplete,183,gender,3,0,right,A_M_07.jpg,A_F_14.jpg,C_M_04.jpg,right,560.9650000114925,true,high,false
GRb8X5Cw,3ni0wfppjctpbx4ya2wphz5gism608,3skemfqbz7igflskyc879hc7pcl8kz,GRb8X5Cw,2020-0188,2020-06-04,11:48:54,12:05:30,NA,incomplete,184,gender,3,1,right,C_M_10.jpg,C_F_11.jpg,A_M_13.jpg,right,617.7599999937229,true,high,false
GRb8X5Cw,3ni0wfppjctpbx4ya2wphz5gism608,3skemfqbz7igflskyc879hc7pcl8kz,GRb8X5Cw,2020-0188,2020-06-04,11:48:54,12:05:30,NA,incomplete,185,gender,3,1,right,A_F_13.jpg,A_M_12.jpg,C_F_10.jpg,right,847.2600000095554,true,high,false
GRb8X5Cw,3ni0wfppjctpbx4ya2wphz5gism608,3skemfqbz7igflskyc879hc7pcl8kz,GRb8X5Cw,2020-0188,2020-06-04,11:48:54,12:05:30,NA,incomplete,186,gender,3,1,left,C_F_09.jpg,A_F_16.jpg,C_M_07.jpg,left,627.2500000195578,true,high,false
GRb8X5Cw,3ni0wfppjctpbx4ya2wphz5gism608,3skemfqbz7igflskyc879hc7pcl8kz,GRb8X5Cw,2020-0188,2020-06-04,11:48:54,12:05:30,NA,incomplete,187,gender,3,1,left,C_F_02.jpg,A_F_16.jpg,C_M_09.jpg,left,467.6350000081584,true,high,false
GRb8X5Cw,3ni0wfppjctpbx4ya2wphz5gism608,3skemfqbz7igflskyc879hc7pcl8kz,GRb8X5Cw,2020-0188,2020-06-04,11:48:54,12:05:30,NA,incomplete,188,gender,3,0,right,A_M_05.jpg,A_F_14.jpg,C_M_15.jpg,right,512.5450000050478,true,high,false
GRb8X5Cw,3ni0wfppjctpbx4ya2wphz5gism608,3skemfqbz7igflskyc879hc7pcl8kz,GRb8X5Cw,2020-0188,2020-06-04,11:48:54,12:05:30,NA,incomplete,189,gender,3,1,right,A_M_14.jpg,A_F_11.jpg,C_M_04.jpg,right,581.6549999872223,true,high,false
GRb8X5Cw,3ni0wfppjctpbx4ya2wphz5gism608,3skemfqbz7igflskyc879hc7pcl8kz,GRb8X5Cw,2020-0188,2020-06-04,11:48:54,12:05:30,NA,incomplete,190,gender,3,1,right,A_F_09.jpg,A_M_05.jpg,C_F_12.jpg,right,622.6400000159629,true,high,false
GRb8X5Cw,3ni0wfppjctpbx4ya2wphz5gism608,3skemfqbz7igflskyc879hc7pcl8kz,GRb8X5Cw,2020-0188,2020-06-04,11:48:54,12:05:30,NA,incomplete,191,gender,3,0,right,C_M_03.jpg,C_F_09.jpg,A_M_01.jpg,right,538.6549999821,true,high,false
GRb8X5Cw,3ni0wfppjctpbx4ya2wphz5gism608,3skemfqbz7igflskyc879hc7pcl8kz,GRb8X5Cw,2020-0188,2020-06-04,11:48:54,12:05:30,NA,incomplete,192,gender,3,1,right,C_F_08.jpg,C_M_16.jpg,A_F_01.jpg,right,644.9650000431575,true,high,false
GRb8X5Cw,3ni0wfppjctpbx4ya2wphz5gism608,3skemfqbz7igflskyc879hc7pcl8kz,GRb8X5Cw,2020-0188,2020-06-04,11:48:54,12:05:30,NA,incomplete,193,gender,3,1,left,C_F_16.jpg,A_F_02.jpg,C_M_11.jpg,left,496.6200000490062,true,high,false
GRb8X5Cw,3ni0wfppjctpbx4ya2wphz5gism608,3skemfqbz7igflskyc879hc7pcl8kz,GRb8X5Cw,2020-0188,2020-06-04,11:48:54,12:05:30,NA,incomplete,194,gender,3,1,left,C_F_06.jpg,A_F_14.jpg,C_M_13.jpg,left,706.7000000388362,true,high,false
GRb8X5Cw,3ni0wfppjctpbx4ya2wphz5gism608,3skemfqbz7igflskyc879hc7pcl8kz,GRb8X5Cw,2020-0188,2020-06-04,11:48:54,12:05:30,NA,incomplete,195,gender,3,0,right,C_M_06.jpg,C_F_02.jpg,A_M_09.jpg,right,533.5649999906309,true,high,false
GRb8X5Cw,3ni0wfppjctpbx4ya2wphz5gism608,3skemfqbz7igflskyc879hc7pcl8kz,GRb8X5Cw,2020-0188,2020-06-04,11:48:54,12:05:30,NA,incomplete,196,gender,3,1,left,A_F_11.jpg,C_F_06.jpg,A_M_04.jpg,left,523.0800000135787,true,high,false
GRb8X5Cw,3ni0wfppjctpbx4ya2wphz5gism608,3skemfqbz7igflskyc879hc7pcl8kz,GRb8X5Cw,2020-0188,2020-06-04,11:48:54,12:05:30,NA,incomplete,197,gender,3,0,right,A_F_05.jpg,A_M_02.jpg,C_F_16.jpg,right,496.5650000376627,true,high,false
GRb8X5Cw,3ni0wfppjctpbx4ya2wphz5gism608,3skemfqbz7igflskyc879hc7pcl8kz,GRb8X5Cw,2020-0188,2020-06-04,11:48:54,12:05:30,NA,incomplete,198,gender,3,1,left,C_F_08.jpg,A_F_09.jpg,C_M_14.jpg,left,635.8100000070408,true,high,false
GRb8X5Cw,3ni0wfppjctpbx4ya2wphz5gism608,3skemfqbz7igflskyc879hc7pcl8kz,GRb8X5Cw,2020-0188,2020-06-04,11:48:54,12:05:30,NA,incomplete,199,gender,3,0,right,C_F_15.jpg,C_M_05.jpg,A_F_02.jpg,right,561.9300000253133,true,high,false
GRb8X5Cw,3ni0wfppjctpbx4ya2wphz5gism608,3skemfqbz7igflskyc879hc7pcl8kz,GRb8X5Cw,2020-0188,2020-06-04,11:48:54,12:05:30,NA,incomplete,200,race,2,1,left,C_M_08.jpg,C_F_13.jpg,A_M_01.jpg,right,721.9100000220351,false,high,false
GRb8X5Cw,3ni0wfppjctpbx4ya2wphz5gism608,3skemfqbz7igflskyc879hc7pcl8kz,GRb8X5Cw,2020-0188,2020-06-04,11:48:54,12:05:30,NA,incomplete,201,race,2,1,right,C_F_10.jpg,A_F_03.jpg,C_M_14.jpg,right,1392.6449999562465,true,high,false
GRb8X5Cw,3ni0wfppjctpbx4ya2wphz5gism608,3skemfqbz7igflskyc879hc7pcl8kz,GRb8X5Cw,2020-0188,2020-06-04,11:48:54,12:05:30,NA,incomplete,202,race,2,1,right,A_M_11.jpg,C_M_03.jpg,A_F_02.jpg,right,862.7550000092015,true,high,false
GRb8X5Cw,3ni0wfppjctpbx4ya2wphz5gism608,3skemfqbz7igflskyc879hc7pcl8kz,GRb8X5Cw,2020-0188,2020-06-04,11:48:54,12:05:30,NA,incomplete,203,race,2,1,left,C_M_05.jpg,C_F_06.jpg,A_M_03.jpg,left,1147.0250000129454,true,high,false
GRb8X5Cw,3ni0wfppjctpbx4ya2wphz5gism608,3skemfqbz7igflskyc879hc7pcl8kz,GRb8X5Cw,2020-0188,2020-06-04,11:48:54,12:05:30,NA,incomplete,204,race,2,1,right,C_F_06.jpg,A_F_04.jpg,C_M_14.jpg,right,1090.7350000343286,true,high,false
GRb8X5Cw,3ni0wfppjctpbx4ya2wphz5gism608,3skemfqbz7igflskyc879hc7pcl8kz,GRb8X5Cw,2020-0188,2020-06-04,11:48:54,12:05:30,NA,incomplete,205,race,2,1,right,A_F_11.jpg,C_F_12.jpg,A_M_10.jpg,right,778.1449999893084,true,high,false
GRb8X5Cw,3ni0wfppjctpbx4ya2wphz5gism608,3skemfqbz7igflskyc879hc7pcl8kz,GRb8X5Cw,2020-0188,2020-06-04,11:48:54,12:05:30,NA,incomplete,206,race,2,1,left,A_F_13.jpg,A_M_12.jpg,C_F_09.jpg,left,868.4750000247732,true,high,false
GRb8X5Cw,3ni0wfppjctpbx4ya2wphz5gism608,3skemfqbz7igflskyc879hc7pcl8kz,GRb8X5Cw,2020-0188,2020-06-04,11:48:54,12:05:30,NA,incomplete,207,race,2,1,right,C_F_08.jpg,A_F_01.jpg,C_M_07.jpg,right,945.1899999985471,true,high,false
GRb8X5Cw,3ni0wfppjctpbx4ya2wphz5gism608,3skemfqbz7igflskyc879hc7pcl8kz,GRb8X5Cw,2020-0188,2020-06-04,11:48:54,12:05:30,NA,incomplete,208,race,2,1,left,A_M_09.jpg,A_F_13.jpg,C_M_10.jpg,left,1133.1450000288896,true,high,false
GRb8X5Cw,3ni0wfppjctpbx4ya2wphz5gism608,3skemfqbz7igflskyc879hc7pcl8kz,GRb8X5Cw,2020-0188,2020-06-04,11:48:54,12:05:30,NA,incomplete,209,race,2,1,right,C_M_10.jpg,A_M_06.jpg,C_F_12.jpg,right,729.2350000352599,true,high,false
GRb8X5Cw,3ni0wfppjctpbx4ya2wphz5gism608,3skemfqbz7igflskyc879hc7pcl8kz,GRb8X5Cw,2020-0188,2020-06-04,11:48:54,12:05:30,NA,incomplete,210,race,2,1,left,A_M_15.jpg,A_F_01.jpg,C_M_10.jpg,right,866.260000038892,false,high,false
GRb8X5Cw,3ni0wfppjctpbx4ya2wphz5gism608,3skemfqbz7igflskyc879hc7pcl8kz,GRb8X5Cw,2020-0188,2020-06-04,11:48:54,12:05:30,NA,incomplete,211,race,2,0,left,A_M_03.jpg,A_F_01.jpg,C_M_13.jpg,left,625.0900000450201,true,high,false
GRb8X5Cw,3ni0wfppjctpbx4ya2wphz5gism608,3skemfqbz7igflskyc879hc7pcl8kz,GRb8X5Cw,2020-0188,2020-06-04,11:48:54,12:05:30,NA,incomplete,212,race,2,1,left,A_F_11.jpg,A_M_10.jpg,C_F_06.jpg,left,856.93499998888,true,high,false
GRb8X5Cw,3ni0wfppjctpbx4ya2wphz5gism608,3skemfqbz7igflskyc879hc7pcl8kz,GRb8X5Cw,2020-0188,2020-06-04,11:48:54,12:05:30,NA,incomplete,213,race,2,0,right,A_F_16.jpg,C_F_03.jpg,A_M_01.jpg,right,681.609999970533,true,high,false
GRb8X5Cw,3ni0wfppjctpbx4ya2wphz5gism608,3skemfqbz7igflskyc879hc7pcl8kz,GRb8X5Cw,2020-0188,2020-06-04,11:48:54,12:05:30,NA,incomplete,214,race,2,1,left,C_F_10.jpg,C_M_08.jpg,A_F_12.jpg,left,901.7049999674782,true,high,false
GRb8X5Cw,3ni0wfppjctpbx4ya2wphz5gism608,3skemfqbz7igflskyc879hc7pcl8kz,GRb8X5Cw,2020-0188,2020-06-04,11:48:54,12:05:30,NA,incomplete,215,race,2,1,left,A_M_02.jpg,A_F_06.jpg,C_M_09.jpg,left,834.9199999938719,true,high,false
GRb8X5Cw,3ni0wfppjctpbx4ya2wphz5gism608,3skemfqbz7igflskyc879hc7pcl8kz,GRb8X5Cw,2020-0188,2020-06-04,11:48:54,12:05:30,NA,incomplete,216,race,2,1,right,C_M_10.jpg,A_M_04.jpg,C_F_01.jpg,left,1064.7900000330992,false,high,false
GRb8X5Cw,3ni0wfppjctpbx4ya2wphz5gism608,3skemfqbz7igflskyc879hc7pcl8kz,GRb8X5Cw,2020-0188,2020-06-04,11:48:54,12:05:30,NA,incomplete,217,race,2,0,right,C_M_14.jpg,A_M_09.jpg,C_F_16.jpg,right,1025.5149999866262,true,high,false
GRb8X5Cw,3ni0wfppjctpbx4ya2wphz5gism608,3skemfqbz7igflskyc879hc7pcl8kz,GRb8X5Cw,2020-0188,2020-06-04,11:48:54,12:05:30,NA,incomplete,218,race,2,1,right,A_F_16.jpg,C_F_12.jpg,A_M_10.jpg,left,656.589999969583,false,high,false
GRb8X5Cw,3ni0wfppjctpbx4ya2wphz5gism608,3skemfqbz7igflskyc879hc7pcl8kz,GRb8X5Cw,2020-0188,2020-06-04,11:48:54,12:05:30,NA,incomplete,219,race,2,1,left,A_F_13.jpg,A_M_16.jpg,C_F_05.jpg,right,552.9150000074878,false,high,false
GRb8X5Cw,3ni0wfppjctpbx4ya2wphz5gism608,3skemfqbz7igflskyc879hc7pcl8kz,GRb8X5Cw,2020-0188,2020-06-04,11:48:54,12:05:30,NA,incomplete,220,gender,3,1,left,C_F_10.jpg,A_F_14.jpg,C_M_13.jpg,right,1125.1550000160933,false,high,false
GRb8X5Cw,3ni0wfppjctpbx4ya2wphz5gism608,3skemfqbz7igflskyc879hc7pcl8kz,GRb8X5Cw,2020-0188,2020-06-04,11:48:54,12:05:30,NA,incomplete,221,gender,3,1,right,A_M_10.jpg,A_F_13.jpg,C_M_12.jpg,left,638.7049999902956,false,high,false
GRb8X5Cw,3ni0wfppjctpbx4ya2wphz5gism608,3skemfqbz7igflskyc879hc7pcl8kz,GRb8X5Cw,2020-0188,2020-06-04,11:48:54,12:05:30,NA,incomplete,222,gender,3,1,right,A_M_11.jpg,A_F_01.jpg,C_M_06.jpg,right,520.4550000489689,true,high,false
GRb8X5Cw,3ni0wfppjctpbx4ya2wphz5gism608,3skemfqbz7igflskyc879hc7pcl8kz,GRb8X5Cw,2020-0188,2020-06-04,11:48:54,12:05:30,NA,incomplete,223,gender,3,0,left,A_F_14.jpg,C_F_15.jpg,A_M_16.jpg,left,592.5350000034086,true,high,false
GRb8X5Cw,3ni0wfppjctpbx4ya2wphz5gism608,3skemfqbz7igflskyc879hc7pcl8kz,GRb8X5Cw,2020-0188,2020-06-04,11:48:54,12:05:30,NA,incomplete,224,gender,3,1,left,A_M_16.jpg,C_M_10.jpg,A_F_11.jpg,left,729.3599999975413,true,high,false
GRb8X5Cw,3ni0wfppjctpbx4ya2wphz5gism608,3skemfqbz7igflskyc879hc7pcl8kz,GRb8X5Cw,2020-0188,2020-06-04,11:48:54,12:05:30,NA,incomplete,225,gender,3,1,right,A_M_09.jpg,A_F_07.jpg,C_M_04.jpg,right,541.9049999909475,true,high,false
GRb8X5Cw,3ni0wfppjctpbx4ya2wphz5gism608,3skemfqbz7igflskyc879hc7pcl8kz,GRb8X5Cw,2020-0188,2020-06-04,11:48:54,12:05:30,NA,incomplete,226,gender,3,1,right,A_M_14.jpg,A_F_04.jpg,C_M_12.jpg,right,884.505000023637,true,high,false
GRb8X5Cw,3ni0wfppjctpbx4ya2wphz5gism608,3skemfqbz7igflskyc879hc7pcl8kz,GRb8X5Cw,2020-0188,2020-06-04,11:48:54,12:05:30,NA,incomplete,227,gender,3,1,left,C_M_03.jpg,A_M_05.jpg,C_F_06.jpg,left,689.4850000389852,true,high,false
GRb8X5Cw,3ni0wfppjctpbx4ya2wphz5gism608,3skemfqbz7igflskyc879hc7pcl8kz,GRb8X5Cw,2020-0188,2020-06-04,11:48:54,12:05:30,NA,incomplete,228,gender,3,1,left,A_M_15.jpg,C_M_05.jpg,A_F_06.jpg,left,767.8549999836832,true,high,false
GRb8X5Cw,3ni0wfppjctpbx4ya2wphz5gism608,3skemfqbz7igflskyc879hc7pcl8kz,GRb8X5Cw,2020-0188,2020-06-04,11:48:54,12:05:30,NA,incomplete,229,gender,3,1,right,C_F_16.jpg,C_M_10.jpg,A_F_13.jpg,right,609.1349999769591,true,high,false
GRb8X5Cw,3ni0wfppjctpbx4ya2wphz5gism608,3skemfqbz7igflskyc879hc7pcl8kz,GRb8X5Cw,2020-0188,2020-06-04,11:48:54,12:05:30,NA,incomplete,230,gender,3,1,left,C_M_05.jpg,A_M_16.jpg,C_F_03.jpg,left,560.364999982994,true,high,false
GRb8X5Cw,3ni0wfppjctpbx4ya2wphz5gism608,3skemfqbz7igflskyc879hc7pcl8kz,GRb8X5Cw,2020-0188,2020-06-04,11:48:54,12:05:30,NA,incomplete,231,gender,3,1,left,C_M_01.jpg,A_M_15.jpg,C_F_13.jpg,left,447.2650000243448,true,high,false
GRb8X5Cw,3ni0wfppjctpbx4ya2wphz5gism608,3skemfqbz7igflskyc879hc7pcl8kz,GRb8X5Cw,2020-0188,2020-06-04,11:48:54,12:05:30,NA,incomplete,232,gender,3,1,left,A_F_13.jpg,C_F_11.jpg,A_M_08.jpg,left,707.3049999889918,true,high,false
GRb8X5Cw,3ni0wfppjctpbx4ya2wphz5gism608,3skemfqbz7igflskyc879hc7pcl8kz,GRb8X5Cw,2020-0188,2020-06-04,11:48:54,12:05:30,NA,incomplete,233,gender,3,1,right,C_M_09.jpg,C_F_15.jpg,A_M_05.jpg,right,516.959999979008,true,high,false
GRb8X5Cw,3ni0wfppjctpbx4ya2wphz5gism608,3skemfqbz7igflskyc879hc7pcl8kz,GRb8X5Cw,2020-0188,2020-06-04,11:48:54,12:05:30,NA,incomplete,234,gender,3,1,right,A_F_11.jpg,A_M_07.jpg,C_F_12.jpg,right,695.4599999589846,true,high,false
GRb8X5Cw,3ni0wfppjctpbx4ya2wphz5gism608,3skemfqbz7igflskyc879hc7pcl8kz,GRb8X5Cw,2020-0188,2020-06-04,11:48:54,12:05:30,NA,incomplete,235,gender,3,1,right,C_F_10.jpg,C_M_14.jpg,A_F_11.jpg,right,835.0150000187568,true,high,false
GRb8X5Cw,3ni0wfppjctpbx4ya2wphz5gism608,3skemfqbz7igflskyc879hc7pcl8kz,GRb8X5Cw,2020-0188,2020-06-04,11:48:54,12:05:30,NA,incomplete,236,gender,3,1,right,A_M_11.jpg,A_F_09.jpg,C_M_13.jpg,right,798.6750000272878,true,high,false
GRb8X5Cw,3ni0wfppjctpbx4ya2wphz5gism608,3skemfqbz7igflskyc879hc7pcl8kz,GRb8X5Cw,2020-0188,2020-06-04,11:48:54,12:05:30,NA,incomplete,237,gender,3,1,left,A_M_06.jpg,C_M_14.jpg,A_F_04.jpg,left,520.1200000010431,true,high,false
GRb8X5Cw,3ni0wfppjctpbx4ya2wphz5gism608,3skemfqbz7igflskyc879hc7pcl8kz,GRb8X5Cw,2020-0188,2020-06-04,11:48:54,12:05:30,NA,incomplete,238,gender,3,1,left,A_F_11.jpg,C_F_07.jpg,A_M_06.jpg,left,527.4949999875389,true,high,false
GRb8X5Cw,3ni0wfppjctpbx4ya2wphz5gism608,3skemfqbz7igflskyc879hc7pcl8kz,GRb8X5Cw,2020-0188,2020-06-04,11:48:54,12:05:30,NA,incomplete,239,gender,3,1,right,C_F_01.jpg,C_M_16.jpg,A_F_11.jpg,right,563.4749999735504,true,high,false
GRb8X5Cw,3ni0wfppjctpbx4ya2wphz5gism608,3skemfqbz7igflskyc879hc7pcl8kz,GRb8X5Cw,2020-0188,2020-06-04,11:48:54,12:05:30,NA,NA,instruction example,number,NA,NA,NA,Blue_Triangle_Stripes_1.jpg,Purple_Plus_Dots_1.jpg,Red_Circle_Stripes_3.jpg,NA,NA,NA,NA,undefined
GRb8X5Cw,3ni0wfppjctpbx4ya2wphz5gism608,3skemfqbz7igflskyc879hc7pcl8kz,GRb8X5Cw,2020-0188,2020-06-04,11:48:54,12:05:30,NA,NA,instruction example,number,NA,NA,NA,Blue_Plus_Stripes_1.jpg,Green_Triangle_Stripes_2.jpg,Purple_Circle_Grid_1.jpg,NA,NA,NA,NA,undefined
GRb8X5Cw,3ni0wfppjctpbx4ya2wphz5gism608,3skemfqbz7igflskyc879hc7pcl8kz,GRb8X5Cw,2020-0188,2020-06-04,11:48:54,12:05:30,NA,NA,instruction example,number,NA,NA,NA,C_F_04.jpg,C_M_01.jpg,A_F_08.jpg,NA,NA,NA,NA,undefined
GRb8X5Cw,3ni0wfppjctpbx4ya2wphz5gism608,3skemfqbz7igflskyc879hc7pcl8kz,GRb8X5Cw,2020-0188,2020-06-04,11:48:54,12:05:30,NA,NA,instruction example,number,NA,NA,NA,A_M_10.jpg,C_M_14.jpg,A_F_09.jpg,NA,NA,NA,NA,undefined
