workerId,hitId,assignmentId,subject,studyid,exp_date,exp_start,exp_end,time_start,time_end,trial,type,sequence,reward_validity,answer,image_top,image_left,image_right,response,response_time,response_acc,volatility,practice
kE2mknqy,3headtgn3s5yqh3y5nncdnm28bcvrm,3strjbfxo04zd5k81aj20d8u3s2kt2,kE2mknqy,2020-0188,2020-06-04,19:12:34,19:29:05,NA,incomplete,0,color,0,0,right,Green_Star_Chess_3.jpg,Blue_Triangle_Grid_3.jpg,Green_Plus_Dots_1.jpg,right,1796.2350000161678,true,NA,true
kE2mknqy,3headtgn3s5yqh3y5nncdnm28bcvrm,3strjbfxo04zd5k81aj20d8u3s2kt2,kE2mknqy,2020-0188,2020-06-04,19:12:34,19:29:05,NA,incomplete,1,color,0,1,right,Purple_Plus_Stripes_2.jpg,Green_Triangle_Chess_2.jpg,Purple_Circle_Grid_1.jpg,right,1226.3599999714643,true,NA,true
kE2mknqy,3headtgn3s5yqh3y5nncdnm28bcvrm,3strjbfxo04zd5k81aj20d8u3s2kt2,kE2mknqy,2020-0188,2020-06-04,19:12:34,19:29:05,NA,incomplete,2,color,0,0,left,Blue_Circle_Dots_1.jpg,Blue_Star_Stripes_2.jpg,Green_Plus_Grid_1.jpg,left,986.2550001125783,true,NA,true
kE2mknqy,3headtgn3s5yqh3y5nncdnm28bcvrm,3strjbfxo04zd5k81aj20d8u3s2kt2,kE2mknqy,2020-0188,2020-06-04,19:12:34,19:29:05,NA,incomplete,3,color,0,0,right,Purple_Plus_Grid_1.jpg,Red_Star_Stripes_1.jpg,Purple_Triangle_Dots_4.jpg,right,771.4949999935925,true,NA,true
kE2mknqy,3headtgn3s5yqh3y5nncdnm28bcvrm,3strjbfxo04zd5k81aj20d8u3s2kt2,kE2mknqy,2020-0188,2020-06-04,19:12:34,19:29:05,NA,incomplete,4,color,0,0,right,Red_Circle_Stripes_1.jpg,Blue_Plus_Grid_1.jpg,Red_Triangle_Chess_3.jpg,right,728.984999936074,true,NA,true
kE2mknqy,3headtgn3s5yqh3y5nncdnm28bcvrm,3strjbfxo04zd5k81aj20d8u3s2kt2,kE2mknqy,2020-0188,2020-06-04,19:12:34,19:29:05,NA,incomplete,5,color,0,1,left,Blue_Star_Chess_3.jpg,Blue_Triangle_Grid_1.jpg,Purple_Plus_Stripes_3.jpg,left,1149.7150000650436,true,NA,true
kE2mknqy,3headtgn3s5yqh3y5nncdnm28bcvrm,3strjbfxo04zd5k81aj20d8u3s2kt2,kE2mknqy,2020-0188,2020-06-04,19:12:34,19:29:05,NA,incomplete,6,color,0,1,right,Green_Star_Stripes_4.jpg,Purple_Circle_Grid_4.jpg,Green_Triangle_Chess_3.jpg,right,627.390000037849,true,NA,true
kE2mknqy,3headtgn3s5yqh3y5nncdnm28bcvrm,3strjbfxo04zd5k81aj20d8u3s2kt2,kE2mknqy,2020-0188,2020-06-04,19:12:34,19:29:05,NA,incomplete,7,color,0,1,left,Green_Plus_Dots_3.jpg,Green_Circle_Grid_4.jpg,Red_Star_Chess_3.jpg,left,733.6899999063462,true,NA,true
kE2mknqy,3headtgn3s5yqh3y5nncdnm28bcvrm,3strjbfxo04zd5k81aj20d8u3s2kt2,kE2mknqy,2020-0188,2020-06-04,19:12:34,19:29:05,NA,incomplete,8,color,0,1,left,Red_Plus_Chess_4.jpg,Red_Triangle_Dots_3.jpg,Blue_Star_Stripes_4.jpg,left,850.7349998690188,true,NA,true
kE2mknqy,3headtgn3s5yqh3y5nncdnm28bcvrm,3strjbfxo04zd5k81aj20d8u3s2kt2,kE2mknqy,2020-0188,2020-06-04,19:12:34,19:29:05,NA,incomplete,9,color,0,1,right,Blue_Star_Chess_1.jpg,Purple_Plus_Dots_1.jpg,Blue_Triangle_Stripes_2.jpg,right,889.4150000996888,true,NA,true
kE2mknqy,3headtgn3s5yqh3y5nncdnm28bcvrm,3strjbfxo04zd5k81aj20d8u3s2kt2,kE2mknqy,2020-0188,2020-06-04,19:12:34,19:29:05,NA,incomplete,10,color,0,1,right,Blue_Star_Stripes_1.jpg,Green_Triangle_Chess_1.jpg,Blue_Circle_Dots_3.jpg,right,948.050000006333,true,NA,true
kE2mknqy,3headtgn3s5yqh3y5nncdnm28bcvrm,3strjbfxo04zd5k81aj20d8u3s2kt2,kE2mknqy,2020-0188,2020-06-04,19:12:34,19:29:05,NA,incomplete,11,color,0,1,left,Purple_Triangle_Chess_1.jpg,Purple_Star_Dots_4.jpg,Green_Plus_Stripes_1.jpg,left,618.9699999522418,true,NA,true
kE2mknqy,3headtgn3s5yqh3y5nncdnm28bcvrm,3strjbfxo04zd5k81aj20d8u3s2kt2,kE2mknqy,2020-0188,2020-06-04,19:12:34,19:29:05,NA,incomplete,12,color,0,1,left,Red_Plus_Grid_1.jpg,Red_Triangle_Dots_2.jpg,Green_Star_Stripes_1.jpg,left,620.3299998305738,true,NA,true
kE2mknqy,3headtgn3s5yqh3y5nncdnm28bcvrm,3strjbfxo04zd5k81aj20d8u3s2kt2,kE2mknqy,2020-0188,2020-06-04,19:12:34,19:29:05,NA,incomplete,13,color,0,1,left,Red_Circle_Chess_2.jpg,Red_Star_Grid_3.jpg,Green_Plus_Dots_2.jpg,left,547.4749999120831,true,NA,true
kE2mknqy,3headtgn3s5yqh3y5nncdnm28bcvrm,3strjbfxo04zd5k81aj20d8u3s2kt2,kE2mknqy,2020-0188,2020-06-04,19:12:34,19:29:05,NA,incomplete,14,color,0,0,left,Red_Circle_Dots_2.jpg,Red_Triangle_Stripes_4.jpg,Green_Star_Chess_2.jpg,left,575.4150000866503,true,NA,true
kE2mknqy,3headtgn3s5yqh3y5nncdnm28bcvrm,3strjbfxo04zd5k81aj20d8u3s2kt2,kE2mknqy,2020-0188,2020-06-04,19:12:34,19:29:05,NA,incomplete,15,color,0,1,right,Purple_Plus_Stripes_4.jpg,Red_Triangle_Grid_4.jpg,Purple_Star_Chess_3.jpg,left,462.55000005476177,false,NA,true
kE2mknqy,3headtgn3s5yqh3y5nncdnm28bcvrm,3strjbfxo04zd5k81aj20d8u3s2kt2,kE2mknqy,2020-0188,2020-06-04,19:12:34,19:29:05,NA,incomplete,16,color,0,1,left,Red_Plus_Stripes_2.jpg,Red_Triangle_Dots_1.jpg,Purple_Circle_Chess_2.jpg,left,752.9050000011921,true,NA,true
kE2mknqy,3headtgn3s5yqh3y5nncdnm28bcvrm,3strjbfxo04zd5k81aj20d8u3s2kt2,kE2mknqy,2020-0188,2020-06-04,19:12:34,19:29:05,NA,incomplete,17,color,0,0,left,Red_Star_Grid_2.jpg,Red_Circle_Chess_1.jpg,Green_Triangle_Dots_2.jpg,left,864.9200000800192,true,NA,true
kE2mknqy,3headtgn3s5yqh3y5nncdnm28bcvrm,3strjbfxo04zd5k81aj20d8u3s2kt2,kE2mknqy,2020-0188,2020-06-04,19:12:34,19:29:05,NA,incomplete,18,color,0,1,right,Green_Circle_Dots_2.jpg,Red_Plus_Chess_2.jpg,Green_Star_Stripes_1.jpg,right,758.6250000167638,true,NA,true
kE2mknqy,3headtgn3s5yqh3y5nncdnm28bcvrm,3strjbfxo04zd5k81aj20d8u3s2kt2,kE2mknqy,2020-0188,2020-06-04,19:12:34,19:29:05,NA,incomplete,19,color,0,1,left,Purple_Triangle_Dots_1.jpg,Purple_Star_Chess_3.jpg,Green_Plus_Grid_1.jpg,left,983.6349999532104,true,NA,true
kE2mknqy,3headtgn3s5yqh3y5nncdnm28bcvrm,3strjbfxo04zd5k81aj20d8u3s2kt2,kE2mknqy,2020-0188,2020-06-04,19:12:34,19:29:05,NA,incomplete,20,number,1,1,left,Red_Plus_Dots_4.jpg,Purple_Star_Stripes_4.jpg,Red_Circle_Chess_2.jpg,left,1367.5299999304116,true,NA,true
kE2mknqy,3headtgn3s5yqh3y5nncdnm28bcvrm,3strjbfxo04zd5k81aj20d8u3s2kt2,kE2mknqy,2020-0188,2020-06-04,19:12:34,19:29:05,NA,incomplete,21,number,1,1,right,Blue_Star_Stripes_2.jpg,Blue_Plus_Chess_3.jpg,Green_Circle_Dots_2.jpg,right,1174.2350000422448,true,NA,true
kE2mknqy,3headtgn3s5yqh3y5nncdnm28bcvrm,3strjbfxo04zd5k81aj20d8u3s2kt2,kE2mknqy,2020-0188,2020-06-04,19:12:34,19:29:05,NA,incomplete,22,number,1,0,left,Blue_Circle_Stripes_3.jpg,Red_Triangle_Chess_3.jpg,Blue_Star_Grid_1.jpg,left,985.3900000452995,true,NA,true
kE2mknqy,3headtgn3s5yqh3y5nncdnm28bcvrm,3strjbfxo04zd5k81aj20d8u3s2kt2,kE2mknqy,2020-0188,2020-06-04,19:12:34,19:29:05,NA,incomplete,23,number,1,1,left,Red_Star_Dots_4.jpg,Blue_Triangle_Stripes_4.jpg,Red_Circle_Chess_1.jpg,left,1251.4749998226762,true,NA,true
kE2mknqy,3headtgn3s5yqh3y5nncdnm28bcvrm,3strjbfxo04zd5k81aj20d8u3s2kt2,kE2mknqy,2020-0188,2020-06-04,19:12:34,19:29:05,NA,incomplete,24,number,1,1,right,Purple_Triangle_Grid_1.jpg,Purple_Circle_Chess_4.jpg,Red_Star_Dots_1.jpg,right,861.1099999397993,true,NA,true
kE2mknqy,3headtgn3s5yqh3y5nncdnm28bcvrm,3strjbfxo04zd5k81aj20d8u3s2kt2,kE2mknqy,2020-0188,2020-06-04,19:12:34,19:29:05,NA,incomplete,25,number,1,1,right,Green_Star_Chess_3.jpg,Green_Plus_Grid_2.jpg,Purple_Triangle_Stripes_3.jpg,right,1177.665000082925,true,NA,true
kE2mknqy,3headtgn3s5yqh3y5nncdnm28bcvrm,3strjbfxo04zd5k81aj20d8u3s2kt2,kE2mknqy,2020-0188,2020-06-04,19:12:34,19:29:05,NA,incomplete,26,number,1,1,right,Green_Plus_Stripes_3.jpg,Green_Triangle_Chess_4.jpg,Red_Star_Dots_3.jpg,right,833.7749999482185,true,NA,true
kE2mknqy,3headtgn3s5yqh3y5nncdnm28bcvrm,3strjbfxo04zd5k81aj20d8u3s2kt2,kE2mknqy,2020-0188,2020-06-04,19:12:34,19:29:05,NA,incomplete,27,number,1,1,right,Green_Star_Stripes_4.jpg,Green_Plus_Grid_1.jpg,Blue_Triangle_Dots_4.jpg,right,1172.7200001478195,true,NA,true
kE2mknqy,3headtgn3s5yqh3y5nncdnm28bcvrm,3strjbfxo04zd5k81aj20d8u3s2kt2,kE2mknqy,2020-0188,2020-06-04,19:12:34,19:29:05,NA,incomplete,28,number,1,1,left,Red_Star_Chess_1.jpg,Green_Circle_Grid_1.jpg,Red_Triangle_Dots_3.jpg,left,765.0399999693036,true,NA,true
kE2mknqy,3headtgn3s5yqh3y5nncdnm28bcvrm,3strjbfxo04zd5k81aj20d8u3s2kt2,kE2mknqy,2020-0188,2020-06-04,19:12:34,19:29:05,NA,incomplete,29,number,1,1,left,Purple_Star_Grid_1.jpg,Blue_Circle_Stripes_1.jpg,Purple_Plus_Chess_4.jpg,left,713.3150000590831,true,NA,true
kE2mknqy,3headtgn3s5yqh3y5nncdnm28bcvrm,3strjbfxo04zd5k81aj20d8u3s2kt2,kE2mknqy,2020-0188,2020-06-04,19:12:34,19:29:05,NA,incomplete,30,number,1,1,left,Green_Star_Grid_2.jpg,Red_Plus_Dots_2.jpg,Green_Circle_Chess_4.jpg,left,962.3549999669194,true,NA,true
kE2mknqy,3headtgn3s5yqh3y5nncdnm28bcvrm,3strjbfxo04zd5k81aj20d8u3s2kt2,kE2mknqy,2020-0188,2020-06-04,19:12:34,19:29:05,NA,incomplete,31,number,1,1,left,Red_Star_Stripes_3.jpg,Purple_Triangle_Grid_3.jpg,Red_Circle_Dots_4.jpg,left,986.1299998592585,true,NA,true
kE2mknqy,3headtgn3s5yqh3y5nncdnm28bcvrm,3strjbfxo04zd5k81aj20d8u3s2kt2,kE2mknqy,2020-0188,2020-06-04,19:12:34,19:29:05,NA,incomplete,32,number,1,0,left,Red_Circle_Grid_3.jpg,Green_Triangle_Stripes_3.jpg,Red_Star_Chess_2.jpg,left,744.3099999800324,true,NA,true
kE2mknqy,3headtgn3s5yqh3y5nncdnm28bcvrm,3strjbfxo04zd5k81aj20d8u3s2kt2,kE2mknqy,2020-0188,2020-06-04,19:12:34,19:29:05,NA,incomplete,33,number,1,1,left,Green_Triangle_Dots_4.jpg,Purple_Circle_Chess_4.jpg,Green_Plus_Stripes_1.jpg,left,973.824999993667,true,NA,true
kE2mknqy,3headtgn3s5yqh3y5nncdnm28bcvrm,3strjbfxo04zd5k81aj20d8u3s2kt2,kE2mknqy,2020-0188,2020-06-04,19:12:34,19:29:05,NA,incomplete,34,number,1,1,right,Purple_Star_Chess_1.jpg,Purple_Triangle_Grid_4.jpg,Red_Circle_Dots_1.jpg,right,705.7099998928607,true,NA,true
kE2mknqy,3headtgn3s5yqh3y5nncdnm28bcvrm,3strjbfxo04zd5k81aj20d8u3s2kt2,kE2mknqy,2020-0188,2020-06-04,19:12:34,19:29:05,NA,incomplete,35,number,1,1,right,Red_Star_Dots_2.jpg,Red_Triangle_Grid_3.jpg,Green_Circle_Chess_2.jpg,right,1046.51500005275,true,NA,true
kE2mknqy,3headtgn3s5yqh3y5nncdnm28bcvrm,3strjbfxo04zd5k81aj20d8u3s2kt2,kE2mknqy,2020-0188,2020-06-04,19:12:34,19:29:05,NA,incomplete,36,number,1,1,left,Red_Star_Stripes_3.jpg,Green_Circle_Chess_3.jpg,Red_Plus_Dots_4.jpg,left,1093.0700001772493,true,NA,true
kE2mknqy,3headtgn3s5yqh3y5nncdnm28bcvrm,3strjbfxo04zd5k81aj20d8u3s2kt2,kE2mknqy,2020-0188,2020-06-04,19:12:34,19:29:05,NA,incomplete,37,number,1,1,left,Blue_Triangle_Chess_2.jpg,Red_Star_Grid_2.jpg,Blue_Circle_Stripes_3.jpg,left,1341.7350000236183,true,NA,true
kE2mknqy,3headtgn3s5yqh3y5nncdnm28bcvrm,3strjbfxo04zd5k81aj20d8u3s2kt2,kE2mknqy,2020-0188,2020-06-04,19:12:34,19:29:05,NA,incomplete,38,number,1,1,left,Green_Triangle_Chess_1.jpg,Blue_Plus_Grid_1.jpg,Green_Star_Dots_3.jpg,left,682.5999999418855,true,NA,true
kE2mknqy,3headtgn3s5yqh3y5nncdnm28bcvrm,3strjbfxo04zd5k81aj20d8u3s2kt2,kE2mknqy,2020-0188,2020-06-04,19:12:34,19:29:05,NA,incomplete,39,number,1,1,left,Blue_Circle_Grid_2.jpg,Purple_Plus_Dots_2.jpg,Blue_Star_Chess_4.jpg,left,857.3549999855459,true,NA,true
kE2mknqy,3headtgn3s5yqh3y5nncdnm28bcvrm,3strjbfxo04zd5k81aj20d8u3s2kt2,kE2mknqy,2020-0188,2020-06-04,19:12:34,19:29:05,NA,incomplete,0,color,0,1,right,Purple_Star_Chess_2.jpg,Green_Triangle_Stripes_2.jpg,Purple_Circle_Dots_1.jpg,right,916.1849999800324,true,high,false
kE2mknqy,3headtgn3s5yqh3y5nncdnm28bcvrm,3strjbfxo04zd5k81aj20d8u3s2kt2,kE2mknqy,2020-0188,2020-06-04,19:12:34,19:29:05,NA,incomplete,1,color,0,0,left,Red_Star_Stripes_4.jpg,Red_Circle_Chess_1.jpg,Purple_Triangle_Dots_4.jpg,left,1003.6700000055134,true,high,false
kE2mknqy,3headtgn3s5yqh3y5nncdnm28bcvrm,3strjbfxo04zd5k81aj20d8u3s2kt2,kE2mknqy,2020-0188,2020-06-04,19:12:34,19:29:05,NA,incomplete,2,color,0,1,left,Red_Circle_Grid_4.jpg,Red_Triangle_Dots_3.jpg,Blue_Star_Chess_4.jpg,left,977.2149999625981,true,high,false
kE2mknqy,3headtgn3s5yqh3y5nncdnm28bcvrm,3strjbfxo04zd5k81aj20d8u3s2kt2,kE2mknqy,2020-0188,2020-06-04,19:12:34,19:29:05,NA,incomplete,3,color,0,1,right,Red_Circle_Dots_3.jpg,Blue_Plus_Grid_3.jpg,Red_Triangle_Chess_1.jpg,right,596.2849999777973,true,high,false
kE2mknqy,3headtgn3s5yqh3y5nncdnm28bcvrm,3strjbfxo04zd5k81aj20d8u3s2kt2,kE2mknqy,2020-0188,2020-06-04,19:12:34,19:29:05,NA,incomplete,4,color,0,1,left,Blue_Triangle_Chess_2.jpg,Blue_Circle_Dots_1.jpg,Purple_Plus_Stripes_2.jpg,left,631.6750000696629,true,high,false
kE2mknqy,3headtgn3s5yqh3y5nncdnm28bcvrm,3strjbfxo04zd5k81aj20d8u3s2kt2,kE2mknqy,2020-0188,2020-06-04,19:12:34,19:29:05,NA,incomplete,5,color,0,1,left,Red_Star_Grid_2.jpg,Red_Circle_Chess_4.jpg,Blue_Plus_Dots_2.jpg,left,891.5699999779463,true,high,false
kE2mknqy,3headtgn3s5yqh3y5nncdnm28bcvrm,3strjbfxo04zd5k81aj20d8u3s2kt2,kE2mknqy,2020-0188,2020-06-04,19:12:34,19:29:05,NA,incomplete,6,color,0,1,right,Blue_Plus_Grid_2.jpg,Purple_Star_Chess_2.jpg,Blue_Circle_Stripes_4.jpg,right,571.5499999932945,true,high,false
kE2mknqy,3headtgn3s5yqh3y5nncdnm28bcvrm,3strjbfxo04zd5k81aj20d8u3s2kt2,kE2mknqy,2020-0188,2020-06-04,19:12:34,19:29:05,NA,incomplete,7,color,0,1,left,Purple_Circle_Stripes_3.jpg,Purple_Star_Grid_2.jpg,Blue_Plus_Chess_3.jpg,left,851.7349998001009,true,high,false
kE2mknqy,3headtgn3s5yqh3y5nncdnm28bcvrm,3strjbfxo04zd5k81aj20d8u3s2kt2,kE2mknqy,2020-0188,2020-06-04,19:12:34,19:29:05,NA,incomplete,8,color,0,1,left,Purple_Triangle_Grid_2.jpg,Purple_Star_Chess_4.jpg,Red_Plus_Stripes_2.jpg,left,661.589999916032,true,high,false
kE2mknqy,3headtgn3s5yqh3y5nncdnm28bcvrm,3strjbfxo04zd5k81aj20d8u3s2kt2,kE2mknqy,2020-0188,2020-06-04,19:12:34,19:29:05,NA,incomplete,9,color,0,1,right,Purple_Circle_Stripes_1.jpg,Blue_Plus_Chess_1.jpg,Purple_Triangle_Grid_3.jpg,right,517.2800000291318,true,high,false
kE2mknqy,3headtgn3s5yqh3y5nncdnm28bcvrm,3strjbfxo04zd5k81aj20d8u3s2kt2,kE2mknqy,2020-0188,2020-06-04,19:12:34,19:29:05,NA,incomplete,10,number,1,1,left,Red_Star_Stripes_3.jpg,Green_Circle_Grid_3.jpg,Red_Triangle_Dots_1.jpg,right,545.200000051409,false,high,false
kE2mknqy,3headtgn3s5yqh3y5nncdnm28bcvrm,3strjbfxo04zd5k81aj20d8u3s2kt2,kE2mknqy,2020-0188,2020-06-04,19:12:34,19:29:05,NA,incomplete,11,number,1,1,right,Blue_Circle_Grid_1.jpg,Blue_Plus_Stripes_3.jpg,Green_Triangle_Chess_1.jpg,left,695.1899998821318,false,high,false
kE2mknqy,3headtgn3s5yqh3y5nncdnm28bcvrm,3strjbfxo04zd5k81aj20d8u3s2kt2,kE2mknqy,2020-0188,2020-06-04,19:12:34,19:29:05,NA,incomplete,12,number,1,1,left,Purple_Star_Dots_3.jpg,Green_Triangle_Chess_3.jpg,Purple_Circle_Stripes_4.jpg,right,939.0549999661744,false,high,false
kE2mknqy,3headtgn3s5yqh3y5nncdnm28bcvrm,3strjbfxo04zd5k81aj20d8u3s2kt2,kE2mknqy,2020-0188,2020-06-04,19:12:34,19:29:05,NA,incomplete,13,number,1,1,right,Green_Triangle_Grid_4.jpg,Green_Circle_Dots_1.jpg,Purple_Plus_Chess_4.jpg,right,766.6849999222904,true,high,false
kE2mknqy,3headtgn3s5yqh3y5nncdnm28bcvrm,3strjbfxo04zd5k81aj20d8u3s2kt2,kE2mknqy,2020-0188,2020-06-04,19:12:34,19:29:05,NA,incomplete,14,number,1,1,right,Blue_Plus_Chess_1.jpg,Blue_Triangle_Dots_4.jpg,Purple_Star_Stripes_1.jpg,right,797.5099999457598,true,high,false
kE2mknqy,3headtgn3s5yqh3y5nncdnm28bcvrm,3strjbfxo04zd5k81aj20d8u3s2kt2,kE2mknqy,2020-0188,2020-06-04,19:12:34,19:29:05,NA,incomplete,15,number,1,1,right,Blue_Triangle_Stripes_4.jpg,Blue_Star_Grid_3.jpg,Green_Circle_Chess_4.jpg,right,1244.2650001030415,true,high,false
kE2mknqy,3headtgn3s5yqh3y5nncdnm28bcvrm,3strjbfxo04zd5k81aj20d8u3s2kt2,kE2mknqy,2020-0188,2020-06-04,19:12:34,19:29:05,NA,incomplete,16,number,1,0,left,Purple_Plus_Dots_4.jpg,Red_Star_Grid_4.jpg,Purple_Triangle_Chess_2.jpg,left,868.4350000694394,true,high,false
kE2mknqy,3headtgn3s5yqh3y5nncdnm28bcvrm,3strjbfxo04zd5k81aj20d8u3s2kt2,kE2mknqy,2020-0188,2020-06-04,19:12:34,19:29:05,NA,incomplete,17,number,1,0,right,Red_Circle_Grid_3.jpg,Red_Plus_Chess_2.jpg,Green_Star_Stripes_3.jpg,right,727.1249999757856,true,high,false
kE2mknqy,3headtgn3s5yqh3y5nncdnm28bcvrm,3strjbfxo04zd5k81aj20d8u3s2kt2,kE2mknqy,2020-0188,2020-06-04,19:12:34,19:29:05,NA,incomplete,18,number,1,1,right,Blue_Star_Grid_4.jpg,Blue_Triangle_Chess_3.jpg,Purple_Plus_Dots_4.jpg,right,1663.1100000813603,true,high,false
kE2mknqy,3headtgn3s5yqh3y5nncdnm28bcvrm,3strjbfxo04zd5k81aj20d8u3s2kt2,kE2mknqy,2020-0188,2020-06-04,19:12:34,19:29:05,NA,incomplete,19,number,1,0,right,Green_Star_Dots_3.jpg,Green_Triangle_Stripes_4.jpg,Blue_Circle_Chess_3.jpg,right,1556.7050001118332,true,high,false
kE2mknqy,3headtgn3s5yqh3y5nncdnm28bcvrm,3strjbfxo04zd5k81aj20d8u3s2kt2,kE2mknqy,2020-0188,2020-06-04,19:12:34,19:29:05,NA,incomplete,20,color,0,1,left,Red_Triangle_Dots_1.jpg,Red_Plus_Grid_2.jpg,Blue_Circle_Stripes_1.jpg,left,491.19500000961125,true,high,false
kE2mknqy,3headtgn3s5yqh3y5nncdnm28bcvrm,3strjbfxo04zd5k81aj20d8u3s2kt2,kE2mknqy,2020-0188,2020-06-04,19:12:34,19:29:05,NA,incomplete,21,color,0,1,left,Red_Plus_Grid_3.jpg,Red_Star_Chess_4.jpg,Green_Circle_Stripes_3.jpg,left,618.4000000357628,true,high,false
kE2mknqy,3headtgn3s5yqh3y5nncdnm28bcvrm,3strjbfxo04zd5k81aj20d8u3s2kt2,kE2mknqy,2020-0188,2020-06-04,19:12:34,19:29:05,NA,incomplete,22,color,0,1,left,Red_Star_Dots_1.jpg,Red_Triangle_Chess_2.jpg,Green_Circle_Grid_1.jpg,left,812.0600001420826,true,high,false
kE2mknqy,3headtgn3s5yqh3y5nncdnm28bcvrm,3strjbfxo04zd5k81aj20d8u3s2kt2,kE2mknqy,2020-0188,2020-06-04,19:12:34,19:29:05,NA,incomplete,23,color,0,1,left,Purple_Circle_Grid_4.jpg,Purple_Plus_Dots_1.jpg,Green_Star_Stripes_4.jpg,left,717.8350000176579,true,high,false
kE2mknqy,3headtgn3s5yqh3y5nncdnm28bcvrm,3strjbfxo04zd5k81aj20d8u3s2kt2,kE2mknqy,2020-0188,2020-06-04,19:12:34,19:29:05,NA,incomplete,24,color,0,1,left,Red_Star_Grid_4.jpg,Red_Triangle_Dots_2.jpg,Green_Plus_Stripes_4.jpg,left,636.7550001014024,true,high,false
kE2mknqy,3headtgn3s5yqh3y5nncdnm28bcvrm,3strjbfxo04zd5k81aj20d8u3s2kt2,kE2mknqy,2020-0188,2020-06-04,19:12:34,19:29:05,NA,incomplete,25,color,0,1,left,Green_Plus_Stripes_4.jpg,Green_Triangle_Grid_3.jpg,Blue_Circle_Chess_4.jpg,left,576.2000000104308,true,high,false
kE2mknqy,3headtgn3s5yqh3y5nncdnm28bcvrm,3strjbfxo04zd5k81aj20d8u3s2kt2,kE2mknqy,2020-0188,2020-06-04,19:12:34,19:29:05,NA,incomplete,26,color,0,1,left,Green_Circle_Grid_4.jpg,Green_Plus_Dots_2.jpg,Red_Triangle_Stripes_4.jpg,left,447.60000007227063,true,high,false
kE2mknqy,3headtgn3s5yqh3y5nncdnm28bcvrm,3strjbfxo04zd5k81aj20d8u3s2kt2,kE2mknqy,2020-0188,2020-06-04,19:12:34,19:29:05,NA,incomplete,27,color,0,1,right,Green_Plus_Chess_1.jpg,Blue_Triangle_Dots_1.jpg,Green_Circle_Grid_3.jpg,right,490.14500016346574,true,high,false
kE2mknqy,3headtgn3s5yqh3y5nncdnm28bcvrm,3strjbfxo04zd5k81aj20d8u3s2kt2,kE2mknqy,2020-0188,2020-06-04,19:12:34,19:29:05,NA,incomplete,28,color,0,1,right,Green_Circle_Stripes_3.jpg,Purple_Star_Dots_3.jpg,Green_Triangle_Grid_4.jpg,right,526.7350000794977,true,high,false
kE2mknqy,3headtgn3s5yqh3y5nncdnm28bcvrm,3strjbfxo04zd5k81aj20d8u3s2kt2,kE2mknqy,2020-0188,2020-06-04,19:12:34,19:29:05,NA,incomplete,29,color,0,1,right,Red_Triangle_Dots_4.jpg,Green_Circle_Chess_4.jpg,Red_Plus_Grid_2.jpg,right,650.2649998292327,true,high,false
kE2mknqy,3headtgn3s5yqh3y5nncdnm28bcvrm,3strjbfxo04zd5k81aj20d8u3s2kt2,kE2mknqy,2020-0188,2020-06-04,19:12:34,19:29:05,NA,incomplete,30,number,1,1,left,Blue_Triangle_Grid_3.jpg,Green_Star_Chess_3.jpg,Blue_Circle_Stripes_4.jpg,right,671.0999999195337,false,high,false
kE2mknqy,3headtgn3s5yqh3y5nncdnm28bcvrm,3strjbfxo04zd5k81aj20d8u3s2kt2,kE2mknqy,2020-0188,2020-06-04,19:12:34,19:29:05,NA,incomplete,31,number,1,1,right,Green_Circle_Chess_4.jpg,Green_Plus_Grid_1.jpg,Purple_Star_Dots_4.jpg,left,999.1850000806153,false,high,false
kE2mknqy,3headtgn3s5yqh3y5nncdnm28bcvrm,3strjbfxo04zd5k81aj20d8u3s2kt2,kE2mknqy,2020-0188,2020-06-04,19:12:34,19:29:05,NA,incomplete,32,number,1,1,right,Green_Triangle_Chess_3.jpg,Green_Plus_Stripes_4.jpg,Blue_Circle_Grid_3.jpg,right,847.2749998327345,true,high,false
kE2mknqy,3headtgn3s5yqh3y5nncdnm28bcvrm,3strjbfxo04zd5k81aj20d8u3s2kt2,kE2mknqy,2020-0188,2020-06-04,19:12:34,19:29:05,NA,incomplete,33,number,1,1,left,Purple_Plus_Chess_1.jpg,Blue_Triangle_Dots_1.jpg,Purple_Circle_Stripes_3.jpg,left,814.1599998343736,true,high,false
kE2mknqy,3headtgn3s5yqh3y5nncdnm28bcvrm,3strjbfxo04zd5k81aj20d8u3s2kt2,kE2mknqy,2020-0188,2020-06-04,19:12:34,19:29:05,NA,incomplete,34,number,1,1,right,Purple_Circle_Chess_4.jpg,Purple_Plus_Stripes_1.jpg,Blue_Triangle_Dots_4.jpg,right,722.0950000919402,true,high,false
kE2mknqy,3headtgn3s5yqh3y5nncdnm28bcvrm,3strjbfxo04zd5k81aj20d8u3s2kt2,kE2mknqy,2020-0188,2020-06-04,19:12:34,19:29:05,NA,incomplete,35,number,1,1,left,Green_Triangle_Stripes_4.jpg,Red_Circle_Dots_4.jpg,Green_Plus_Chess_3.jpg,left,830.3450001403689,true,high,false
kE2mknqy,3headtgn3s5yqh3y5nncdnm28bcvrm,3strjbfxo04zd5k81aj20d8u3s2kt2,kE2mknqy,2020-0188,2020-06-04,19:12:34,19:29:05,NA,incomplete,36,number,1,0,right,Blue_Plus_Chess_3.jpg,Blue_Circle_Dots_1.jpg,Green_Star_Stripes_3.jpg,right,582.315000006929,true,high,false
kE2mknqy,3headtgn3s5yqh3y5nncdnm28bcvrm,3strjbfxo04zd5k81aj20d8u3s2kt2,kE2mknqy,2020-0188,2020-06-04,19:12:34,19:29:05,NA,incomplete,37,number,1,0,left,Green_Circle_Dots_4.jpg,Blue_Plus_Grid_4.jpg,Green_Triangle_Chess_1.jpg,left,1005.9249999467283,true,high,false
kE2mknqy,3headtgn3s5yqh3y5nncdnm28bcvrm,3strjbfxo04zd5k81aj20d8u3s2kt2,kE2mknqy,2020-0188,2020-06-04,19:12:34,19:29:05,NA,incomplete,38,number,1,1,left,Green_Plus_Stripes_4.jpg,Red_Triangle_Grid_4.jpg,Green_Star_Chess_2.jpg,right,484.5600000116974,false,high,false
kE2mknqy,3headtgn3s5yqh3y5nncdnm28bcvrm,3strjbfxo04zd5k81aj20d8u3s2kt2,kE2mknqy,2020-0188,2020-06-04,19:12:34,19:29:05,NA,incomplete,39,number,1,1,right,Red_Star_Grid_4.jpg,Red_Plus_Stripes_3.jpg,Green_Triangle_Dots_4.jpg,left,724.4850001297891,false,high,false
kE2mknqy,3headtgn3s5yqh3y5nncdnm28bcvrm,3strjbfxo04zd5k81aj20d8u3s2kt2,kE2mknqy,2020-0188,2020-06-04,19:12:34,19:29:05,NA,incomplete,40,color,0,1,right,Green_Triangle_Dots_2.jpg,Blue_Star_Stripes_2.jpg,Green_Plus_Chess_3.jpg,left,1310.61500008218,false,high,false
kE2mknqy,3headtgn3s5yqh3y5nncdnm28bcvrm,3strjbfxo04zd5k81aj20d8u3s2kt2,kE2mknqy,2020-0188,2020-06-04,19:12:34,19:29:05,NA,incomplete,41,color,0,1,left,Purple_Circle_Stripes_3.jpg,Purple_Star_Dots_1.jpg,Green_Plus_Chess_3.jpg,left,1428.360000019893,true,high,false
kE2mknqy,3headtgn3s5yqh3y5nncdnm28bcvrm,3strjbfxo04zd5k81aj20d8u3s2kt2,kE2mknqy,2020-0188,2020-06-04,19:12:34,19:29:05,NA,incomplete,42,color,0,1,right,Green_Star_Chess_2.jpg,Blue_Circle_Stripes_2.jpg,Green_Triangle_Dots_1.jpg,right,638.2400000002235,true,high,false
kE2mknqy,3headtgn3s5yqh3y5nncdnm28bcvrm,3strjbfxo04zd5k81aj20d8u3s2kt2,kE2mknqy,2020-0188,2020-06-04,19:12:34,19:29:05,NA,incomplete,43,color,0,1,right,Purple_Circle_Stripes_4.jpg,Red_Star_Grid_4.jpg,Purple_Triangle_Dots_1.jpg,right,779.6849999576807,true,high,false
kE2mknqy,3headtgn3s5yqh3y5nncdnm28bcvrm,3strjbfxo04zd5k81aj20d8u3s2kt2,kE2mknqy,2020-0188,2020-06-04,19:12:34,19:29:05,NA,incomplete,44,color,0,1,left,Purple_Triangle_Grid_3.jpg,Purple_Plus_Dots_2.jpg,Red_Circle_Chess_3.jpg,left,675.8650001138449,true,high,false
kE2mknqy,3headtgn3s5yqh3y5nncdnm28bcvrm,3strjbfxo04zd5k81aj20d8u3s2kt2,kE2mknqy,2020-0188,2020-06-04,19:12:34,19:29:05,NA,incomplete,45,color,0,1,left,Red_Plus_Stripes_1.jpg,Red_Triangle_Grid_4.jpg,Green_Star_Chess_1.jpg,left,531.1500001698732,true,high,false
kE2mknqy,3headtgn3s5yqh3y5nncdnm28bcvrm,3strjbfxo04zd5k81aj20d8u3s2kt2,kE2mknqy,2020-0188,2020-06-04,19:12:34,19:29:05,NA,incomplete,46,color,0,1,right,Red_Plus_Grid_4.jpg,Purple_Triangle_Dots_4.jpg,Red_Star_Chess_1.jpg,right,624.599999981001,true,high,false
kE2mknqy,3headtgn3s5yqh3y5nncdnm28bcvrm,3strjbfxo04zd5k81aj20d8u3s2kt2,kE2mknqy,2020-0188,2020-06-04,19:12:34,19:29:05,NA,incomplete,47,color,0,1,right,Purple_Plus_Dots_2.jpg,Red_Triangle_Stripes_2.jpg,Purple_Circle_Grid_4.jpg,right,650.1149998512119,true,high,false
kE2mknqy,3headtgn3s5yqh3y5nncdnm28bcvrm,3strjbfxo04zd5k81aj20d8u3s2kt2,kE2mknqy,2020-0188,2020-06-04,19:12:34,19:29:05,NA,incomplete,48,color,0,1,right,Green_Plus_Dots_1.jpg,Red_Triangle_Grid_1.jpg,Green_Star_Stripes_3.jpg,right,520.8049998618662,true,high,false
kE2mknqy,3headtgn3s5yqh3y5nncdnm28bcvrm,3strjbfxo04zd5k81aj20d8u3s2kt2,kE2mknqy,2020-0188,2020-06-04,19:12:34,19:29:05,NA,incomplete,49,color,0,1,left,Red_Circle_Dots_4.jpg,Red_Triangle_Chess_3.jpg,Purple_Star_Stripes_4.jpg,left,553.2599999569356,true,high,false
kE2mknqy,3headtgn3s5yqh3y5nncdnm28bcvrm,3strjbfxo04zd5k81aj20d8u3s2kt2,kE2mknqy,2020-0188,2020-06-04,19:12:34,19:29:05,NA,incomplete,50,number,1,1,right,Green_Star_Chess_3.jpg,Green_Triangle_Stripes_2.jpg,Purple_Plus_Grid_3.jpg,left,736.1200000159442,false,high,false
kE2mknqy,3headtgn3s5yqh3y5nncdnm28bcvrm,3strjbfxo04zd5k81aj20d8u3s2kt2,kE2mknqy,2020-0188,2020-06-04,19:12:34,19:29:05,NA,incomplete,51,number,1,1,right,Blue_Triangle_Grid_2.jpg,Blue_Circle_Stripes_4.jpg,Red_Star_Chess_2.jpg,right,1040.199999930337,true,high,false
kE2mknqy,3headtgn3s5yqh3y5nncdnm28bcvrm,3strjbfxo04zd5k81aj20d8u3s2kt2,kE2mknqy,2020-0188,2020-06-04,19:12:34,19:29:05,NA,incomplete,52,number,1,1,left,Purple_Plus_Dots_4.jpg,Green_Star_Stripes_4.jpg,Purple_Circle_Chess_2.jpg,left,1112.4450000934303,true,high,false
kE2mknqy,3headtgn3s5yqh3y5nncdnm28bcvrm,3strjbfxo04zd5k81aj20d8u3s2kt2,kE2mknqy,2020-0188,2020-06-04,19:12:34,19:29:05,NA,incomplete,53,number,1,1,left,Blue_Triangle_Dots_3.jpg,Red_Star_Stripes_3.jpg,Blue_Circle_Grid_4.jpg,right,656.9499999750406,false,high,false
kE2mknqy,3headtgn3s5yqh3y5nncdnm28bcvrm,3strjbfxo04zd5k81aj20d8u3s2kt2,kE2mknqy,2020-0188,2020-06-04,19:12:34,19:29:05,NA,incomplete,54,number,1,0,right,Red_Triangle_Stripes_4.jpg,Red_Circle_Chess_2.jpg,Purple_Star_Dots_4.jpg,right,815.2749999426305,true,high,false
kE2mknqy,3headtgn3s5yqh3y5nncdnm28bcvrm,3strjbfxo04zd5k81aj20d8u3s2kt2,kE2mknqy,2020-0188,2020-06-04,19:12:34,19:29:05,NA,incomplete,55,number,1,1,right,Blue_Star_Grid_2.jpg,Blue_Triangle_Chess_4.jpg,Red_Circle_Stripes_2.jpg,right,774.3450000416487,true,high,false
kE2mknqy,3headtgn3s5yqh3y5nncdnm28bcvrm,3strjbfxo04zd5k81aj20d8u3s2kt2,kE2mknqy,2020-0188,2020-06-04,19:12:34,19:29:05,NA,incomplete,56,number,1,1,right,Purple_Circle_Grid_2.jpg,Purple_Star_Dots_3.jpg,Green_Triangle_Chess_2.jpg,right,551.1500001884997,true,high,false
kE2mknqy,3headtgn3s5yqh3y5nncdnm28bcvrm,3strjbfxo04zd5k81aj20d8u3s2kt2,kE2mknqy,2020-0188,2020-06-04,19:12:34,19:29:05,NA,incomplete,57,number,1,1,left,Blue_Triangle_Stripes_1.jpg,Red_Circle_Dots_1.jpg,Blue_Plus_Chess_4.jpg,left,621.1749999783933,true,high,false
kE2mknqy,3headtgn3s5yqh3y5nncdnm28bcvrm,3strjbfxo04zd5k81aj20d8u3s2kt2,kE2mknqy,2020-0188,2020-06-04,19:12:34,19:29:05,NA,incomplete,58,number,1,1,right,Red_Star_Dots_2.jpg,Red_Circle_Chess_1.jpg,Purple_Plus_Grid_2.jpg,right,845.7100000232458,true,high,false
kE2mknqy,3headtgn3s5yqh3y5nncdnm28bcvrm,3strjbfxo04zd5k81aj20d8u3s2kt2,kE2mknqy,2020-0188,2020-06-04,19:12:34,19:29:05,NA,incomplete,59,number,1,1,left,Blue_Star_Dots_2.jpg,Red_Triangle_Stripes_2.jpg,Blue_Plus_Grid_1.jpg,left,732.5750000309199,true,high,false
kE2mknqy,3headtgn3s5yqh3y5nncdnm28bcvrm,3strjbfxo04zd5k81aj20d8u3s2kt2,kE2mknqy,2020-0188,2020-06-04,19:12:34,19:29:05,NA,incomplete,60,color,0,1,left,Red_Star_Dots_4.jpg,Red_Plus_Grid_2.jpg,Green_Triangle_Stripes_4.jpg,right,846.3149999734014,false,high,false
kE2mknqy,3headtgn3s5yqh3y5nncdnm28bcvrm,3strjbfxo04zd5k81aj20d8u3s2kt2,kE2mknqy,2020-0188,2020-06-04,19:12:34,19:29:05,NA,incomplete,61,color,0,1,right,Green_Triangle_Chess_3.jpg,Red_Plus_Dots_3.jpg,Green_Circle_Grid_2.jpg,right,511.18499995209277,true,high,false
kE2mknqy,3headtgn3s5yqh3y5nncdnm28bcvrm,3strjbfxo04zd5k81aj20d8u3s2kt2,kE2mknqy,2020-0188,2020-06-04,19:12:34,19:29:05,NA,incomplete,62,color,0,1,right,Blue_Triangle_Dots_1.jpg,Purple_Plus_Chess_1.jpg,Blue_Circle_Grid_3.jpg,right,472.2100000362843,true,high,false
kE2mknqy,3headtgn3s5yqh3y5nncdnm28bcvrm,3strjbfxo04zd5k81aj20d8u3s2kt2,kE2mknqy,2020-0188,2020-06-04,19:12:34,19:29:05,NA,incomplete,63,color,0,1,right,Purple_Triangle_Chess_2.jpg,Blue_Circle_Stripes_2.jpg,Purple_Star_Grid_1.jpg,right,614.4599998369813,true,high,false
kE2mknqy,3headtgn3s5yqh3y5nncdnm28bcvrm,3strjbfxo04zd5k81aj20d8u3s2kt2,kE2mknqy,2020-0188,2020-06-04,19:12:34,19:29:05,NA,incomplete,64,color,0,0,right,Blue_Star_Grid_3.jpg,Green_Triangle_Dots_3.jpg,Blue_Plus_Chess_1.jpg,right,571.4249999728054,true,high,false
kE2mknqy,3headtgn3s5yqh3y5nncdnm28bcvrm,3strjbfxo04zd5k81aj20d8u3s2kt2,kE2mknqy,2020-0188,2020-06-04,19:12:34,19:29:05,NA,incomplete,65,color,0,0,left,Green_Star_Dots_3.jpg,Green_Plus_Chess_4.jpg,Blue_Triangle_Stripes_3.jpg,left,633.1650000065565,true,high,false
kE2mknqy,3headtgn3s5yqh3y5nncdnm28bcvrm,3strjbfxo04zd5k81aj20d8u3s2kt2,kE2mknqy,2020-0188,2020-06-04,19:12:34,19:29:05,NA,incomplete,66,color,0,0,right,Purple_Triangle_Grid_3.jpg,Green_Star_Chess_3.jpg,Purple_Circle_Stripes_4.jpg,left,797.5649998988956,false,high,false
kE2mknqy,3headtgn3s5yqh3y5nncdnm28bcvrm,3strjbfxo04zd5k81aj20d8u3s2kt2,kE2mknqy,2020-0188,2020-06-04,19:12:34,19:29:05,NA,incomplete,67,color,0,1,left,Blue_Triangle_Dots_3.jpg,Blue_Plus_Chess_2.jpg,Purple_Circle_Stripes_3.jpg,right,612.3450000304729,false,high,false
kE2mknqy,3headtgn3s5yqh3y5nncdnm28bcvrm,3strjbfxo04zd5k81aj20d8u3s2kt2,kE2mknqy,2020-0188,2020-06-04,19:12:34,19:29:05,NA,incomplete,68,color,0,0,right,Blue_Circle_Chess_4.jpg,Purple_Triangle_Dots_4.jpg,Blue_Plus_Stripes_3.jpg,left,1134.5750000327826,false,high,false
kE2mknqy,3headtgn3s5yqh3y5nncdnm28bcvrm,3strjbfxo04zd5k81aj20d8u3s2kt2,kE2mknqy,2020-0188,2020-06-04,19:12:34,19:29:05,NA,incomplete,69,color,0,1,right,Green_Triangle_Stripes_4.jpg,Blue_Circle_Dots_4.jpg,Green_Plus_Grid_2.jpg,left,884.4850000459701,false,high,false
kE2mknqy,3headtgn3s5yqh3y5nncdnm28bcvrm,3strjbfxo04zd5k81aj20d8u3s2kt2,kE2mknqy,2020-0188,2020-06-04,19:12:34,19:29:05,NA,incomplete,70,number,1,1,left,Blue_Plus_Stripes_2.jpg,Green_Triangle_Chess_2.jpg,Blue_Circle_Grid_3.jpg,right,502.06499989144504,false,high,false
kE2mknqy,3headtgn3s5yqh3y5nncdnm28bcvrm,3strjbfxo04zd5k81aj20d8u3s2kt2,kE2mknqy,2020-0188,2020-06-04,19:12:34,19:29:05,NA,incomplete,71,number,1,0,left,Blue_Plus_Chess_3.jpg,Red_Star_Grid_3.jpg,Blue_Circle_Stripes_2.jpg,left,1185.6700000353158,true,high,false
kE2mknqy,3headtgn3s5yqh3y5nncdnm28bcvrm,3strjbfxo04zd5k81aj20d8u3s2kt2,kE2mknqy,2020-0188,2020-06-04,19:12:34,19:29:05,NA,incomplete,72,number,1,1,right,Red_Circle_Stripes_1.jpg,Red_Plus_Grid_4.jpg,Blue_Triangle_Dots_1.jpg,left,588.8900000136346,false,high,false
kE2mknqy,3headtgn3s5yqh3y5nncdnm28bcvrm,3strjbfxo04zd5k81aj20d8u3s2kt2,kE2mknqy,2020-0188,2020-06-04,19:12:34,19:29:05,NA,incomplete,73,number,1,0,right,Green_Triangle_Stripes_4.jpg,Green_Star_Grid_2.jpg,Red_Plus_Dots_4.jpg,left,552.2350000683218,false,high,false
kE2mknqy,3headtgn3s5yqh3y5nncdnm28bcvrm,3strjbfxo04zd5k81aj20d8u3s2kt2,kE2mknqy,2020-0188,2020-06-04,19:12:34,19:29:05,NA,incomplete,74,number,1,1,right,Purple_Plus_Chess_1.jpg,Purple_Star_Stripes_2.jpg,Red_Triangle_Grid_1.jpg,left,471.2100001052022,false,high,false
kE2mknqy,3headtgn3s5yqh3y5nncdnm28bcvrm,3strjbfxo04zd5k81aj20d8u3s2kt2,kE2mknqy,2020-0188,2020-06-04,19:12:34,19:29:05,NA,incomplete,75,number,1,0,right,Blue_Plus_Chess_1.jpg,Blue_Star_Grid_3.jpg,Green_Triangle_Stripes_1.jpg,left,657.4650001712143,false,high,false
kE2mknqy,3headtgn3s5yqh3y5nncdnm28bcvrm,3strjbfxo04zd5k81aj20d8u3s2kt2,kE2mknqy,2020-0188,2020-06-04,19:12:34,19:29:05,NA,incomplete,76,number,1,1,right,Red_Circle_Grid_1.jpg,Red_Triangle_Chess_3.jpg,Purple_Plus_Dots_1.jpg,left,529.4099999591708,false,high,false
kE2mknqy,3headtgn3s5yqh3y5nncdnm28bcvrm,3strjbfxo04zd5k81aj20d8u3s2kt2,kE2mknqy,2020-0188,2020-06-04,19:12:34,19:29:05,NA,incomplete,77,number,1,0,right,Purple_Triangle_Grid_3.jpg,Purple_Plus_Chess_4.jpg,Green_Circle_Dots_3.jpg,left,824.640000006184,false,high,false
kE2mknqy,3headtgn3s5yqh3y5nncdnm28bcvrm,3strjbfxo04zd5k81aj20d8u3s2kt2,kE2mknqy,2020-0188,2020-06-04,19:12:34,19:29:05,NA,incomplete,78,number,1,0,right,Green_Star_Stripes_4.jpg,Green_Plus_Chess_2.jpg,Purple_Circle_Dots_4.jpg,none,0,false,high,false
kE2mknqy,3headtgn3s5yqh3y5nncdnm28bcvrm,3strjbfxo04zd5k81aj20d8u3s2kt2,kE2mknqy,2020-0188,2020-06-04,19:12:34,19:29:05,NA,incomplete,79,number,1,0,left,Red_Triangle_Stripes_1.jpg,Purple_Circle_Grid_1.jpg,Red_Plus_Chess_2.jpg,right,857.6299999840558,false,high,false
kE2mknqy,3headtgn3s5yqh3y5nncdnm28bcvrm,3strjbfxo04zd5k81aj20d8u3s2kt2,kE2mknqy,2020-0188,2020-06-04,19:12:34,19:29:05,NA,incomplete,80,color,0,1,right,Red_Star_Stripes_4.jpg,Purple_Circle_Grid_4.jpg,Red_Plus_Dots_1.jpg,right,752.9949999880046,true,high,false
kE2mknqy,3headtgn3s5yqh3y5nncdnm28bcvrm,3strjbfxo04zd5k81aj20d8u3s2kt2,kE2mknqy,2020-0188,2020-06-04,19:12:34,19:29:05,NA,incomplete,81,color,0,1,right,Red_Circle_Chess_1.jpg,Green_Triangle_Stripes_1.jpg,Red_Plus_Dots_3.jpg,right,469.8950001038611,true,high,false
kE2mknqy,3headtgn3s5yqh3y5nncdnm28bcvrm,3strjbfxo04zd5k81aj20d8u3s2kt2,kE2mknqy,2020-0188,2020-06-04,19:12:34,19:29:05,NA,incomplete,82,color,0,0,left,Green_Plus_Dots_4.jpg,Green_Star_Chess_1.jpg,Blue_Triangle_Grid_4.jpg,left,994.074999820441,true,high,false
kE2mknqy,3headtgn3s5yqh3y5nncdnm28bcvrm,3strjbfxo04zd5k81aj20d8u3s2kt2,kE2mknqy,2020-0188,2020-06-04,19:12:34,19:29:05,NA,incomplete,83,color,0,1,left,Purple_Circle_Chess_2.jpg,Purple_Star_Dots_1.jpg,Blue_Triangle_Grid_2.jpg,right,724.7950001619756,false,high,false
kE2mknqy,3headtgn3s5yqh3y5nncdnm28bcvrm,3strjbfxo04zd5k81aj20d8u3s2kt2,kE2mknqy,2020-0188,2020-06-04,19:12:34,19:29:05,NA,incomplete,84,color,0,1,right,Red_Plus_Dots_4.jpg,Blue_Circle_Stripes_4.jpg,Red_Star_Grid_1.jpg,right,843.4250000864267,true,high,false
kE2mknqy,3headtgn3s5yqh3y5nncdnm28bcvrm,3strjbfxo04zd5k81aj20d8u3s2kt2,kE2mknqy,2020-0188,2020-06-04,19:12:34,19:29:05,NA,incomplete,85,color,0,1,right,Blue_Circle_Dots_2.jpg,Purple_Plus_Grid_2.jpg,Blue_Star_Stripes_3.jpg,right,574.5950001291931,true,high,false
kE2mknqy,3headtgn3s5yqh3y5nncdnm28bcvrm,3strjbfxo04zd5k81aj20d8u3s2kt2,kE2mknqy,2020-0188,2020-06-04,19:12:34,19:29:05,NA,incomplete,86,color,0,1,right,Purple_Triangle_Grid_1.jpg,Red_Plus_Dots_1.jpg,Purple_Star_Chess_3.jpg,right,475.4500000271946,true,high,false
kE2mknqy,3headtgn3s5yqh3y5nncdnm28bcvrm,3strjbfxo04zd5k81aj20d8u3s2kt2,kE2mknqy,2020-0188,2020-06-04,19:12:34,19:29:05,NA,incomplete,87,color,0,1,right,Purple_Star_Chess_2.jpg,Red_Circle_Grid_2.jpg,Purple_Plus_Stripes_4.jpg,right,556.5599999390543,true,high,false
kE2mknqy,3headtgn3s5yqh3y5nncdnm28bcvrm,3strjbfxo04zd5k81aj20d8u3s2kt2,kE2mknqy,2020-0188,2020-06-04,19:12:34,19:29:05,NA,incomplete,88,color,0,0,left,Blue_Plus_Stripes_4.jpg,Blue_Triangle_Dots_3.jpg,Green_Star_Grid_4.jpg,left,514.0900001861155,true,high,false
kE2mknqy,3headtgn3s5yqh3y5nncdnm28bcvrm,3strjbfxo04zd5k81aj20d8u3s2kt2,kE2mknqy,2020-0188,2020-06-04,19:12:34,19:29:05,NA,incomplete,89,color,0,1,left,Green_Triangle_Dots_3.jpg,Green_Star_Grid_2.jpg,Blue_Circle_Chess_3.jpg,right,713.8199999462813,false,high,false
kE2mknqy,3headtgn3s5yqh3y5nncdnm28bcvrm,3strjbfxo04zd5k81aj20d8u3s2kt2,kE2mknqy,2020-0188,2020-06-04,19:12:34,19:29:05,NA,incomplete,90,number,1,1,right,Blue_Star_Grid_4.jpg,Blue_Plus_Dots_2.jpg,Red_Triangle_Chess_4.jpg,right,863.9399998355657,true,high,false
kE2mknqy,3headtgn3s5yqh3y5nncdnm28bcvrm,3strjbfxo04zd5k81aj20d8u3s2kt2,kE2mknqy,2020-0188,2020-06-04,19:12:34,19:29:05,NA,incomplete,91,number,1,0,right,Red_Star_Stripes_3.jpg,Red_Plus_Dots_4.jpg,Purple_Circle_Chess_3.jpg,right,696.4149998966604,true,high,false
kE2mknqy,3headtgn3s5yqh3y5nncdnm28bcvrm,3strjbfxo04zd5k81aj20d8u3s2kt2,kE2mknqy,2020-0188,2020-06-04,19:12:34,19:29:05,NA,incomplete,92,number,1,0,left,Purple_Triangle_Grid_2.jpg,Red_Star_Dots_2.jpg,Purple_Circle_Chess_3.jpg,left,708.2299999892712,true,high,false
kE2mknqy,3headtgn3s5yqh3y5nncdnm28bcvrm,3strjbfxo04zd5k81aj20d8u3s2kt2,kE2mknqy,2020-0188,2020-06-04,19:12:34,19:29:05,NA,incomplete,93,number,1,1,left,Purple_Plus_Dots_2.jpg,Red_Circle_Grid_2.jpg,Purple_Star_Stripes_1.jpg,left,711.6350000724196,true,high,false
kE2mknqy,3headtgn3s5yqh3y5nncdnm28bcvrm,3strjbfxo04zd5k81aj20d8u3s2kt2,kE2mknqy,2020-0188,2020-06-04,19:12:34,19:29:05,NA,incomplete,94,number,1,1,left,Green_Circle_Grid_4.jpg,Purple_Star_Dots_4.jpg,Green_Triangle_Stripes_2.jpg,left,770.1350001152605,true,high,false
kE2mknqy,3headtgn3s5yqh3y5nncdnm28bcvrm,3strjbfxo04zd5k81aj20d8u3s2kt2,kE2mknqy,2020-0188,2020-06-04,19:12:34,19:29:05,NA,incomplete,95,number,1,1,left,Red_Triangle_Grid_2.jpg,Green_Circle_Dots_2.jpg,Red_Star_Stripes_3.jpg,left,732.6799998991191,true,high,false
kE2mknqy,3headtgn3s5yqh3y5nncdnm28bcvrm,3strjbfxo04zd5k81aj20d8u3s2kt2,kE2mknqy,2020-0188,2020-06-04,19:12:34,19:29:05,NA,incomplete,96,number,1,1,left,Blue_Star_Dots_2.jpg,Red_Triangle_Stripes_2.jpg,Blue_Circle_Grid_1.jpg,left,615.3550001326948,true,high,false
kE2mknqy,3headtgn3s5yqh3y5nncdnm28bcvrm,3strjbfxo04zd5k81aj20d8u3s2kt2,kE2mknqy,2020-0188,2020-06-04,19:12:34,19:29:05,NA,incomplete,97,number,1,0,left,Green_Star_Grid_2.jpg,Red_Circle_Dots_2.jpg,Green_Triangle_Chess_4.jpg,left,841.4950000587851,true,high,false
kE2mknqy,3headtgn3s5yqh3y5nncdnm28bcvrm,3strjbfxo04zd5k81aj20d8u3s2kt2,kE2mknqy,2020-0188,2020-06-04,19:12:34,19:29:05,NA,incomplete,98,number,1,1,right,Blue_Star_Chess_1.jpg,Blue_Circle_Grid_4.jpg,Green_Triangle_Stripes_1.jpg,right,731.0699999798089,true,high,false
kE2mknqy,3headtgn3s5yqh3y5nncdnm28bcvrm,3strjbfxo04zd5k81aj20d8u3s2kt2,kE2mknqy,2020-0188,2020-06-04,19:12:34,19:29:05,NA,incomplete,99,number,1,1,right,Green_Circle_Chess_3.jpg,Green_Star_Grid_4.jpg,Red_Triangle_Dots_3.jpg,right,1016.0000000614673,true,high,false
kE2mknqy,3headtgn3s5yqh3y5nncdnm28bcvrm,3strjbfxo04zd5k81aj20d8u3s2kt2,kE2mknqy,2020-0188,2020-06-04,19:12:34,19:29:05,NA,incomplete,100,color,0,1,left,Red_Star_Stripes_3.jpg,Red_Circle_Chess_2.jpg,Purple_Plus_Dots_3.jpg,right,846.0150000173599,false,high,false
kE2mknqy,3headtgn3s5yqh3y5nncdnm28bcvrm,3strjbfxo04zd5k81aj20d8u3s2kt2,kE2mknqy,2020-0188,2020-06-04,19:12:34,19:29:05,NA,incomplete,101,color,0,0,right,Blue_Star_Chess_1.jpg,Red_Circle_Dots_1.jpg,Blue_Triangle_Grid_3.jpg,left,764.6099999547005,false,high,false
kE2mknqy,3headtgn3s5yqh3y5nncdnm28bcvrm,3strjbfxo04zd5k81aj20d8u3s2kt2,kE2mknqy,2020-0188,2020-06-04,19:12:34,19:29:05,NA,incomplete,102,color,0,1,left,Blue_Star_Dots_2.jpg,Blue_Circle_Stripes_1.jpg,Red_Plus_Chess_2.jpg,right,744.8000002186745,false,high,false
kE2mknqy,3headtgn3s5yqh3y5nncdnm28bcvrm,3strjbfxo04zd5k81aj20d8u3s2kt2,kE2mknqy,2020-0188,2020-06-04,19:12:34,19:29:05,NA,incomplete,103,color,0,1,right,Green_Star_Dots_2.jpg,Red_Triangle_Stripes_2.jpg,Green_Plus_Chess_1.jpg,right,666.1700000986457,true,high,false
kE2mknqy,3headtgn3s5yqh3y5nncdnm28bcvrm,3strjbfxo04zd5k81aj20d8u3s2kt2,kE2mknqy,2020-0188,2020-06-04,19:12:34,19:29:05,NA,incomplete,104,color,0,1,left,Green_Plus_Dots_4.jpg,Green_Triangle_Grid_2.jpg,Red_Star_Chess_4.jpg,left,819.2050000652671,true,high,false
kE2mknqy,3headtgn3s5yqh3y5nncdnm28bcvrm,3strjbfxo04zd5k81aj20d8u3s2kt2,kE2mknqy,2020-0188,2020-06-04,19:12:34,19:29:05,NA,incomplete,105,color,0,1,left,Green_Star_Dots_4.jpg,Green_Triangle_Chess_1.jpg,Purple_Circle_Grid_4.jpg,right,709.8699999041855,false,high,false
kE2mknqy,3headtgn3s5yqh3y5nncdnm28bcvrm,3strjbfxo04zd5k81aj20d8u3s2kt2,kE2mknqy,2020-0188,2020-06-04,19:12:34,19:29:05,NA,incomplete,106,color,0,1,left,Red_Triangle_Grid_2.jpg,Red_Star_Chess_4.jpg,Blue_Circle_Dots_2.jpg,left,506.8500000052154,true,high,false
kE2mknqy,3headtgn3s5yqh3y5nncdnm28bcvrm,3strjbfxo04zd5k81aj20d8u3s2kt2,kE2mknqy,2020-0188,2020-06-04,19:12:34,19:29:05,NA,incomplete,107,color,0,1,right,Red_Star_Dots_2.jpg,Green_Plus_Stripes_2.jpg,Red_Triangle_Chess_1.jpg,right,680.8899999596179,true,high,false
kE2mknqy,3headtgn3s5yqh3y5nncdnm28bcvrm,3strjbfxo04zd5k81aj20d8u3s2kt2,kE2mknqy,2020-0188,2020-06-04,19:12:34,19:29:05,NA,incomplete,108,color,0,1,left,Red_Triangle_Dots_1.jpg,Red_Star_Stripes_2.jpg,Purple_Circle_Chess_1.jpg,left,444.54500009305775,true,high,false
kE2mknqy,3headtgn3s5yqh3y5nncdnm28bcvrm,3strjbfxo04zd5k81aj20d8u3s2kt2,kE2mknqy,2020-0188,2020-06-04,19:12:34,19:29:05,NA,incomplete,109,color,0,1,left,Green_Star_Stripes_3.jpg,Green_Triangle_Grid_4.jpg,Purple_Plus_Chess_3.jpg,left,446.45499996840954,true,high,false
kE2mknqy,3headtgn3s5yqh3y5nncdnm28bcvrm,3strjbfxo04zd5k81aj20d8u3s2kt2,kE2mknqy,2020-0188,2020-06-04,19:12:34,19:29:05,NA,incomplete,110,number,1,1,right,Blue_Circle_Dots_4.jpg,Blue_Plus_Stripes_3.jpg,Purple_Star_Grid_4.jpg,left,513.109999941662,false,high,false
kE2mknqy,3headtgn3s5yqh3y5nncdnm28bcvrm,3strjbfxo04zd5k81aj20d8u3s2kt2,kE2mknqy,2020-0188,2020-06-04,19:12:34,19:29:05,NA,incomplete,111,number,1,0,right,Blue_Star_Stripes_3.jpg,Blue_Circle_Grid_1.jpg,Green_Plus_Dots_3.jpg,left,951.755000045523,false,high,false
kE2mknqy,3headtgn3s5yqh3y5nncdnm28bcvrm,3strjbfxo04zd5k81aj20d8u3s2kt2,kE2mknqy,2020-0188,2020-06-04,19:12:34,19:29:05,NA,incomplete,112,number,1,1,right,Green_Star_Grid_1.jpg,Green_Circle_Stripes_3.jpg,Red_Triangle_Dots_1.jpg,left,424.57500007003546,false,high,false
kE2mknqy,3headtgn3s5yqh3y5nncdnm28bcvrm,3strjbfxo04zd5k81aj20d8u3s2kt2,kE2mknqy,2020-0188,2020-06-04,19:12:34,19:29:05,NA,incomplete,113,number,1,1,left,Green_Star_Chess_2.jpg,Purple_Triangle_Dots_2.jpg,Green_Circle_Grid_3.jpg,right,458.44499999657273,false,high,false
kE2mknqy,3headtgn3s5yqh3y5nncdnm28bcvrm,3strjbfxo04zd5k81aj20d8u3s2kt2,kE2mknqy,2020-0188,2020-06-04,19:12:34,19:29:05,NA,incomplete,114,number,1,1,left,Green_Circle_Dots_1.jpg,Blue_Triangle_Chess_1.jpg,Green_Star_Grid_3.jpg,left,837.9649999551475,true,high,false
kE2mknqy,3headtgn3s5yqh3y5nncdnm28bcvrm,3strjbfxo04zd5k81aj20d8u3s2kt2,kE2mknqy,2020-0188,2020-06-04,19:12:34,19:29:05,NA,incomplete,115,number,1,1,right,Blue_Star_Dots_4.jpg,Blue_Circle_Stripes_3.jpg,Red_Triangle_Grid_4.jpg,right,785.3200000245124,true,high,false
kE2mknqy,3headtgn3s5yqh3y5nncdnm28bcvrm,3strjbfxo04zd5k81aj20d8u3s2kt2,kE2mknqy,2020-0188,2020-06-04,19:12:34,19:29:05,NA,incomplete,116,number,1,1,left,Purple_Plus_Grid_1.jpg,Blue_Star_Chess_1.jpg,Purple_Triangle_Dots_3.jpg,left,691.5400000289083,true,high,false
kE2mknqy,3headtgn3s5yqh3y5nncdnm28bcvrm,3strjbfxo04zd5k81aj20d8u3s2kt2,kE2mknqy,2020-0188,2020-06-04,19:12:34,19:29:05,NA,incomplete,117,number,1,1,right,Blue_Circle_Stripes_4.jpg,Blue_Triangle_Chess_2.jpg,Red_Star_Grid_4.jpg,right,619.5049998350441,true,high,false
kE2mknqy,3headtgn3s5yqh3y5nncdnm28bcvrm,3strjbfxo04zd5k81aj20d8u3s2kt2,kE2mknqy,2020-0188,2020-06-04,19:12:34,19:29:05,NA,incomplete,118,number,1,1,right,Red_Plus_Chess_4.jpg,Red_Triangle_Dots_1.jpg,Purple_Star_Grid_4.jpg,right,677.5100000668317,true,high,false
kE2mknqy,3headtgn3s5yqh3y5nncdnm28bcvrm,3strjbfxo04zd5k81aj20d8u3s2kt2,kE2mknqy,2020-0188,2020-06-04,19:12:34,19:29:05,NA,incomplete,119,number,1,1,right,Red_Circle_Stripes_3.jpg,Red_Plus_Chess_1.jpg,Purple_Star_Grid_3.jpg,right,790.7000000122935,true,high,false
kE2mknqy,3headtgn3s5yqh3y5nncdnm28bcvrm,3strjbfxo04zd5k81aj20d8u3s2kt2,kE2mknqy,2020-0188,2020-06-04,19:12:34,19:29:05,NA,incomplete,120,gender,2,1,left,C_M_10.jpg,A_M_12.jpg,C_F_09.jpg,NA,NA,NA,high,false
kE2mknqy,3headtgn3s5yqh3y5nncdnm28bcvrm,3strjbfxo04zd5k81aj20d8u3s2kt2,kE2mknqy,2020-0188,2020-06-04,19:12:34,19:29:05,NA,incomplete,121,gender,2,1,right,C_M_06.jpg,C_F_13.jpg,A_M_14.jpg,left,1039.2549999523908,false,high,false
kE2mknqy,3headtgn3s5yqh3y5nncdnm28bcvrm,3strjbfxo04zd5k81aj20d8u3s2kt2,kE2mknqy,2020-0188,2020-06-04,19:12:34,19:29:05,NA,incomplete,122,gender,2,1,left,C_F_12.jpg,A_F_08.jpg,C_M_16.jpg,left,1189.8099998943508,true,high,false
kE2mknqy,3headtgn3s5yqh3y5nncdnm28bcvrm,3strjbfxo04zd5k81aj20d8u3s2kt2,kE2mknqy,2020-0188,2020-06-04,19:12:34,19:29:05,NA,incomplete,123,gender,2,1,left,C_F_15.jpg,A_F_12.jpg,C_M_09.jpg,left,550.0799999572337,true,high,false
kE2mknqy,3headtgn3s5yqh3y5nncdnm28bcvrm,3strjbfxo04zd5k81aj20d8u3s2kt2,kE2mknqy,2020-0188,2020-06-04,19:12:34,19:29:05,NA,incomplete,124,gender,2,1,left,A_F_02.jpg,C_F_10.jpg,A_M_04.jpg,left,513.6499998625368,true,high,false
kE2mknqy,3headtgn3s5yqh3y5nncdnm28bcvrm,3strjbfxo04zd5k81aj20d8u3s2kt2,kE2mknqy,2020-0188,2020-06-04,19:12:34,19:29:05,NA,incomplete,125,gender,2,1,left,A_F_12.jpg,C_F_02.jpg,A_M_06.jpg,left,445.65999996848404,true,high,false
kE2mknqy,3headtgn3s5yqh3y5nncdnm28bcvrm,3strjbfxo04zd5k81aj20d8u3s2kt2,kE2mknqy,2020-0188,2020-06-04,19:12:34,19:29:05,NA,incomplete,126,gender,2,0,left,C_M_03.jpg,A_M_10.jpg,C_F_14.jpg,right,730.9050001204014,false,high,false
kE2mknqy,3headtgn3s5yqh3y5nncdnm28bcvrm,3strjbfxo04zd5k81aj20d8u3s2kt2,kE2mknqy,2020-0188,2020-06-04,19:12:34,19:29:05,NA,incomplete,127,gender,2,1,left,C_F_08.jpg,A_F_04.jpg,C_M_11.jpg,right,1420.525000197813,false,high,false
kE2mknqy,3headtgn3s5yqh3y5nncdnm28bcvrm,3strjbfxo04zd5k81aj20d8u3s2kt2,kE2mknqy,2020-0188,2020-06-04,19:12:34,19:29:05,NA,incomplete,128,gender,2,0,left,C_F_12.jpg,A_F_10.jpg,C_M_01.jpg,left,890.8100000116974,true,high,false
kE2mknqy,3headtgn3s5yqh3y5nncdnm28bcvrm,3strjbfxo04zd5k81aj20d8u3s2kt2,kE2mknqy,2020-0188,2020-06-04,19:12:34,19:29:05,NA,incomplete,129,gender,2,1,right,C_F_10.jpg,C_M_09.jpg,A_F_14.jpg,right,1139.9749999400228,true,high,false
kE2mknqy,3headtgn3s5yqh3y5nncdnm28bcvrm,3strjbfxo04zd5k81aj20d8u3s2kt2,kE2mknqy,2020-0188,2020-06-04,19:12:34,19:29:05,NA,incomplete,130,gender,2,1,right,C_M_03.jpg,C_F_07.jpg,A_M_01.jpg,right,1189.9099999573082,true,high,false
kE2mknqy,3headtgn3s5yqh3y5nncdnm28bcvrm,3strjbfxo04zd5k81aj20d8u3s2kt2,kE2mknqy,2020-0188,2020-06-04,19:12:34,19:29:05,NA,incomplete,131,gender,2,1,left,C_F_11.jpg,A_F_09.jpg,C_M_04.jpg,left,710.9550000168383,true,high,false
kE2mknqy,3headtgn3s5yqh3y5nncdnm28bcvrm,3strjbfxo04zd5k81aj20d8u3s2kt2,kE2mknqy,2020-0188,2020-06-04,19:12:34,19:29:05,NA,incomplete,132,gender,2,0,left,C_M_06.jpg,A_M_16.jpg,C_F_04.jpg,left,1264.8650000337511,true,high,false
kE2mknqy,3headtgn3s5yqh3y5nncdnm28bcvrm,3strjbfxo04zd5k81aj20d8u3s2kt2,kE2mknqy,2020-0188,2020-06-04,19:12:34,19:29:05,NA,incomplete,133,gender,2,1,left,A_M_13.jpg,C_M_11.jpg,A_F_04.jpg,left,769.5049999747425,true,high,false
kE2mknqy,3headtgn3s5yqh3y5nncdnm28bcvrm,3strjbfxo04zd5k81aj20d8u3s2kt2,kE2mknqy,2020-0188,2020-06-04,19:12:34,19:29:05,NA,incomplete,134,gender,2,0,left,C_M_07.jpg,A_M_01.jpg,C_F_10.jpg,left,550.0799999572337,true,high,false
kE2mknqy,3headtgn3s5yqh3y5nncdnm28bcvrm,3strjbfxo04zd5k81aj20d8u3s2kt2,kE2mknqy,2020-0188,2020-06-04,19:12:34,19:29:05,NA,incomplete,135,gender,2,1,left,A_M_12.jpg,C_M_09.jpg,A_F_06.jpg,right,1254.8299999907613,false,high,false
kE2mknqy,3headtgn3s5yqh3y5nncdnm28bcvrm,3strjbfxo04zd5k81aj20d8u3s2kt2,kE2mknqy,2020-0188,2020-06-04,19:12:34,19:29:05,NA,incomplete,136,gender,2,1,right,A_M_14.jpg,A_F_11.jpg,C_M_10.jpg,left,1012.2499999124557,false,high,false
kE2mknqy,3headtgn3s5yqh3y5nncdnm28bcvrm,3strjbfxo04zd5k81aj20d8u3s2kt2,kE2mknqy,2020-0188,2020-06-04,19:12:34,19:29:05,NA,incomplete,137,gender,2,1,right,C_F_13.jpg,C_M_14.jpg,A_F_15.jpg,right,920.0599999167025,true,high,false
kE2mknqy,3headtgn3s5yqh3y5nncdnm28bcvrm,3strjbfxo04zd5k81aj20d8u3s2kt2,kE2mknqy,2020-0188,2020-06-04,19:12:34,19:29:05,NA,incomplete,138,gender,2,1,right,A_M_11.jpg,A_F_12.jpg,C_M_16.jpg,right,919.1600000485778,true,high,false
kE2mknqy,3headtgn3s5yqh3y5nncdnm28bcvrm,3strjbfxo04zd5k81aj20d8u3s2kt2,kE2mknqy,2020-0188,2020-06-04,19:12:34,19:29:05,NA,incomplete,139,gender,2,1,right,C_M_16.jpg,C_F_05.jpg,A_M_08.jpg,right,988.4249998722225,true,high,false
kE2mknqy,3headtgn3s5yqh3y5nncdnm28bcvrm,3strjbfxo04zd5k81aj20d8u3s2kt2,kE2mknqy,2020-0188,2020-06-04,19:12:34,19:29:05,NA,incomplete,140,race,3,1,right,A_F_06.jpg,C_F_04.jpg,A_M_07.jpg,left,937.7899998798966,false,high,false
kE2mknqy,3headtgn3s5yqh3y5nncdnm28bcvrm,3strjbfxo04zd5k81aj20d8u3s2kt2,kE2mknqy,2020-0188,2020-06-04,19:12:34,19:29:05,NA,incomplete,141,race,3,1,left,A_M_15.jpg,A_F_03.jpg,C_M_02.jpg,right,782.5599999632686,false,high,false
kE2mknqy,3headtgn3s5yqh3y5nncdnm28bcvrm,3strjbfxo04zd5k81aj20d8u3s2kt2,kE2mknqy,2020-0188,2020-06-04,19:12:34,19:29:05,NA,incomplete,142,race,3,1,left,C_F_06.jpg,C_M_08.jpg,A_F_16.jpg,right,836.5200001280755,false,high,false
kE2mknqy,3headtgn3s5yqh3y5nncdnm28bcvrm,3strjbfxo04zd5k81aj20d8u3s2kt2,kE2mknqy,2020-0188,2020-06-04,19:12:34,19:29:05,NA,incomplete,143,race,3,1,left,C_M_16.jpg,C_F_05.jpg,A_M_13.jpg,left,752.0450002048165,true,high,false
kE2mknqy,3headtgn3s5yqh3y5nncdnm28bcvrm,3strjbfxo04zd5k81aj20d8u3s2kt2,kE2mknqy,2020-0188,2020-06-04,19:12:34,19:29:05,NA,incomplete,144,race,3,0,right,A_F_06.jpg,C_F_15.jpg,A_M_12.jpg,right,1265.929999994114,true,high,false
kE2mknqy,3headtgn3s5yqh3y5nncdnm28bcvrm,3strjbfxo04zd5k81aj20d8u3s2kt2,kE2mknqy,2020-0188,2020-06-04,19:12:34,19:29:05,NA,incomplete,145,race,3,1,right,A_M_10.jpg,C_M_03.jpg,A_F_05.jpg,right,870.8750000223517,true,high,false
kE2mknqy,3headtgn3s5yqh3y5nncdnm28bcvrm,3strjbfxo04zd5k81aj20d8u3s2kt2,kE2mknqy,2020-0188,2020-06-04,19:12:34,19:29:05,NA,incomplete,146,race,3,0,left,A_M_15.jpg,A_F_12.jpg,C_M_05.jpg,left,841.8400001246482,true,high,false
kE2mknqy,3headtgn3s5yqh3y5nncdnm28bcvrm,3strjbfxo04zd5k81aj20d8u3s2kt2,kE2mknqy,2020-0188,2020-06-04,19:12:34,19:29:05,NA,incomplete,147,race,3,1,left,A_M_07.jpg,A_F_15.jpg,C_M_08.jpg,left,990.4650000389665,true,high,false
kE2mknqy,3headtgn3s5yqh3y5nncdnm28bcvrm,3strjbfxo04zd5k81aj20d8u3s2kt2,kE2mknqy,2020-0188,2020-06-04,19:12:34,19:29:05,NA,incomplete,148,race,3,0,right,A_F_12.jpg,C_F_09.jpg,A_M_04.jpg,right,848.2099999673665,true,high,false
kE2mknqy,3headtgn3s5yqh3y5nncdnm28bcvrm,3strjbfxo04zd5k81aj20d8u3s2kt2,kE2mknqy,2020-0188,2020-06-04,19:12:34,19:29:05,NA,incomplete,149,race,3,1,right,C_F_06.jpg,A_F_10.jpg,C_M_14.jpg,right,659.5699999015778,true,high,false
kE2mknqy,3headtgn3s5yqh3y5nncdnm28bcvrm,3strjbfxo04zd5k81aj20d8u3s2kt2,kE2mknqy,2020-0188,2020-06-04,19:12:34,19:29:05,NA,incomplete,150,race,3,1,left,A_F_03.jpg,A_M_16.jpg,C_F_14.jpg,right,1115.3199998661876,false,high,false
kE2mknqy,3headtgn3s5yqh3y5nncdnm28bcvrm,3strjbfxo04zd5k81aj20d8u3s2kt2,kE2mknqy,2020-0188,2020-06-04,19:12:34,19:29:05,NA,incomplete,151,race,3,0,left,A_M_10.jpg,A_F_06.jpg,C_M_09.jpg,right,1238.60999988392,false,high,false
kE2mknqy,3headtgn3s5yqh3y5nncdnm28bcvrm,3strjbfxo04zd5k81aj20d8u3s2kt2,kE2mknqy,2020-0188,2020-06-04,19:12:34,19:29:05,NA,incomplete,152,race,3,1,left,A_F_07.jpg,A_M_06.jpg,C_F_13.jpg,right,828.7150000687689,false,high,false
kE2mknqy,3headtgn3s5yqh3y5nncdnm28bcvrm,3strjbfxo04zd5k81aj20d8u3s2kt2,kE2mknqy,2020-0188,2020-06-04,19:12:34,19:29:05,NA,incomplete,153,race,3,1,left,C_M_12.jpg,C_F_10.jpg,A_M_16.jpg,left,1039.1100000124425,true,high,false
kE2mknqy,3headtgn3s5yqh3y5nncdnm28bcvrm,3strjbfxo04zd5k81aj20d8u3s2kt2,kE2mknqy,2020-0188,2020-06-04,19:12:34,19:29:05,NA,incomplete,154,race,3,1,left,A_M_09.jpg,A_F_06.jpg,C_M_01.jpg,left,1165.2899999171495,true,high,false
kE2mknqy,3headtgn3s5yqh3y5nncdnm28bcvrm,3strjbfxo04zd5k81aj20d8u3s2kt2,kE2mknqy,2020-0188,2020-06-04,19:12:34,19:29:05,NA,incomplete,155,race,3,1,left,A_F_15.jpg,A_M_14.jpg,C_F_09.jpg,left,920.0350001920015,true,high,false
kE2mknqy,3headtgn3s5yqh3y5nncdnm28bcvrm,3strjbfxo04zd5k81aj20d8u3s2kt2,kE2mknqy,2020-0188,2020-06-04,19:12:34,19:29:05,NA,incomplete,156,race,3,1,left,A_F_01.jpg,A_M_10.jpg,C_F_11.jpg,right,553.6449998617172,false,high,false
kE2mknqy,3headtgn3s5yqh3y5nncdnm28bcvrm,3strjbfxo04zd5k81aj20d8u3s2kt2,kE2mknqy,2020-0188,2020-06-04,19:12:34,19:29:05,NA,incomplete,157,race,3,1,left,C_F_07.jpg,C_M_06.jpg,A_F_09.jpg,right,1246.0250000003725,false,high,false
kE2mknqy,3headtgn3s5yqh3y5nncdnm28bcvrm,3strjbfxo04zd5k81aj20d8u3s2kt2,kE2mknqy,2020-0188,2020-06-04,19:12:34,19:29:05,NA,incomplete,158,race,3,0,right,A_F_08.jpg,C_F_03.jpg,A_M_14.jpg,right,868.3449998497963,true,high,false
kE2mknqy,3headtgn3s5yqh3y5nncdnm28bcvrm,3strjbfxo04zd5k81aj20d8u3s2kt2,kE2mknqy,2020-0188,2020-06-04,19:12:34,19:29:05,NA,incomplete,159,race,3,1,right,A_M_10.jpg,C_M_14.jpg,A_F_03.jpg,right,927.1949999965727,true,high,false
kE2mknqy,3headtgn3s5yqh3y5nncdnm28bcvrm,3strjbfxo04zd5k81aj20d8u3s2kt2,kE2mknqy,2020-0188,2020-06-04,19:12:34,19:29:05,NA,incomplete,160,gender,2,1,left,C_F_13.jpg,A_F_09.jpg,C_M_10.jpg,right,935.0050000939518,false,high,false
kE2mknqy,3headtgn3s5yqh3y5nncdnm28bcvrm,3strjbfxo04zd5k81aj20d8u3s2kt2,kE2mknqy,2020-0188,2020-06-04,19:12:34,19:29:05,NA,incomplete,161,gender,2,1,right,C_F_03.jpg,C_M_11.jpg,A_F_04.jpg,right,1139.740000013262,true,high,false
kE2mknqy,3headtgn3s5yqh3y5nncdnm28bcvrm,3strjbfxo04zd5k81aj20d8u3s2kt2,kE2mknqy,2020-0188,2020-06-04,19:12:34,19:29:05,NA,incomplete,162,gender,2,1,right,A_M_08.jpg,A_F_11.jpg,C_M_04.jpg,right,810.2349999826401,true,high,false
kE2mknqy,3headtgn3s5yqh3y5nncdnm28bcvrm,3strjbfxo04zd5k81aj20d8u3s2kt2,kE2mknqy,2020-0188,2020-06-04,19:12:34,19:29:05,NA,incomplete,163,gender,2,0,left,A_F_09.jpg,C_F_10.jpg,A_M_13.jpg,left,581.474999897182,true,high,false
kE2mknqy,3headtgn3s5yqh3y5nncdnm28bcvrm,3strjbfxo04zd5k81aj20d8u3s2kt2,kE2mknqy,2020-0188,2020-06-04,19:12:34,19:29:05,NA,incomplete,164,gender,2,1,right,A_F_16.jpg,A_M_05.jpg,C_F_06.jpg,right,749.6300002094358,true,high,false
kE2mknqy,3headtgn3s5yqh3y5nncdnm28bcvrm,3strjbfxo04zd5k81aj20d8u3s2kt2,kE2mknqy,2020-0188,2020-06-04,19:12:34,19:29:05,NA,incomplete,165,gender,2,1,left,C_M_04.jpg,A_M_01.jpg,C_F_10.jpg,left,668.8500000163913,true,high,false
kE2mknqy,3headtgn3s5yqh3y5nncdnm28bcvrm,3strjbfxo04zd5k81aj20d8u3s2kt2,kE2mknqy,2020-0188,2020-06-04,19:12:34,19:29:05,NA,incomplete,166,gender,2,1,right,A_F_08.jpg,A_M_04.jpg,C_F_06.jpg,right,530.144999967888,true,high,false
kE2mknqy,3headtgn3s5yqh3y5nncdnm28bcvrm,3strjbfxo04zd5k81aj20d8u3s2kt2,kE2mknqy,2020-0188,2020-06-04,19:12:34,19:29:05,NA,incomplete,167,gender,2,1,right,C_F_08.jpg,C_M_09.jpg,A_F_11.jpg,right,442.9500000551343,true,high,false
kE2mknqy,3headtgn3s5yqh3y5nncdnm28bcvrm,3strjbfxo04zd5k81aj20d8u3s2kt2,kE2mknqy,2020-0188,2020-06-04,19:12:34,19:29:05,NA,incomplete,168,gender,2,1,right,A_F_14.jpg,A_M_01.jpg,C_F_07.jpg,left,500.37499982863665,false,high,false
kE2mknqy,3headtgn3s5yqh3y5nncdnm28bcvrm,3strjbfxo04zd5k81aj20d8u3s2kt2,kE2mknqy,2020-0188,2020-06-04,19:12:34,19:29:05,NA,incomplete,169,gender,2,1,right,C_F_06.jpg,C_M_13.jpg,A_F_15.jpg,right,546.3199999649078,true,high,false
kE2mknqy,3headtgn3s5yqh3y5nncdnm28bcvrm,3strjbfxo04zd5k81aj20d8u3s2kt2,kE2mknqy,2020-0188,2020-06-04,19:12:34,19:29:05,NA,incomplete,170,gender,2,1,right,A_M_13.jpg,A_F_16.jpg,C_M_05.jpg,left,545.1050000265241,false,high,false
kE2mknqy,3headtgn3s5yqh3y5nncdnm28bcvrm,3strjbfxo04zd5k81aj20d8u3s2kt2,kE2mknqy,2020-0188,2020-06-04,19:12:34,19:29:05,NA,incomplete,171,gender,2,1,left,C_M_16.jpg,A_M_13.jpg,C_F_06.jpg,left,1382.0350000169128,true,high,false
kE2mknqy,3headtgn3s5yqh3y5nncdnm28bcvrm,3strjbfxo04zd5k81aj20d8u3s2kt2,kE2mknqy,2020-0188,2020-06-04,19:12:34,19:29:05,NA,incomplete,172,gender,2,1,right,C_F_08.jpg,C_M_05.jpg,A_F_02.jpg,right,509.0600000694394,true,high,false
kE2mknqy,3headtgn3s5yqh3y5nncdnm28bcvrm,3strjbfxo04zd5k81aj20d8u3s2kt2,kE2mknqy,2020-0188,2020-06-04,19:12:34,19:29:05,NA,incomplete,173,gender,2,1,left,A_F_10.jpg,C_F_08.jpg,A_M_11.jpg,left,468.20000000298023,true,high,false
kE2mknqy,3headtgn3s5yqh3y5nncdnm28bcvrm,3strjbfxo04zd5k81aj20d8u3s2kt2,kE2mknqy,2020-0188,2020-06-04,19:12:34,19:29:05,NA,incomplete,174,gender,2,1,left,A_M_14.jpg,C_M_07.jpg,A_F_11.jpg,right,651.6100000590086,false,high,false
kE2mknqy,3headtgn3s5yqh3y5nncdnm28bcvrm,3strjbfxo04zd5k81aj20d8u3s2kt2,kE2mknqy,2020-0188,2020-06-04,19:12:34,19:29:05,NA,incomplete,175,gender,2,1,left,C_F_03.jpg,A_F_09.jpg,C_M_15.jpg,left,917.1400000341237,true,high,false
kE2mknqy,3headtgn3s5yqh3y5nncdnm28bcvrm,3strjbfxo04zd5k81aj20d8u3s2kt2,kE2mknqy,2020-0188,2020-06-04,19:12:34,19:29:05,NA,incomplete,176,gender,2,1,left,C_F_04.jpg,A_F_11.jpg,C_M_06.jpg,left,553.2400000374764,true,high,false
kE2mknqy,3headtgn3s5yqh3y5nncdnm28bcvrm,3strjbfxo04zd5k81aj20d8u3s2kt2,kE2mknqy,2020-0188,2020-06-04,19:12:34,19:29:05,NA,incomplete,177,gender,2,1,left,C_F_04.jpg,A_F_05.jpg,C_M_16.jpg,left,447.35000003129244,true,high,false
kE2mknqy,3headtgn3s5yqh3y5nncdnm28bcvrm,3strjbfxo04zd5k81aj20d8u3s2kt2,kE2mknqy,2020-0188,2020-06-04,19:12:34,19:29:05,NA,incomplete,178,gender,2,1,right,A_M_07.jpg,A_F_16.jpg,C_M_12.jpg,right,713.3500000927597,true,high,false
kE2mknqy,3headtgn3s5yqh3y5nncdnm28bcvrm,3strjbfxo04zd5k81aj20d8u3s2kt2,kE2mknqy,2020-0188,2020-06-04,19:12:34,19:29:05,NA,incomplete,179,gender,2,1,left,A_F_10.jpg,C_F_08.jpg,A_M_13.jpg,left,662.7549999393523,true,high,false
kE2mknqy,3headtgn3s5yqh3y5nncdnm28bcvrm,3strjbfxo04zd5k81aj20d8u3s2kt2,kE2mknqy,2020-0188,2020-06-04,19:12:34,19:29:05,NA,incomplete,180,race,3,1,left,C_F_06.jpg,C_M_16.jpg,A_F_01.jpg,right,650.785000063479,false,high,false
kE2mknqy,3headtgn3s5yqh3y5nncdnm28bcvrm,3strjbfxo04zd5k81aj20d8u3s2kt2,kE2mknqy,2020-0188,2020-06-04,19:12:34,19:29:05,NA,incomplete,181,race,3,0,right,C_M_03.jpg,A_M_11.jpg,C_F_08.jpg,left,602.0150000695139,false,high,false
kE2mknqy,3headtgn3s5yqh3y5nncdnm28bcvrm,3strjbfxo04zd5k81aj20d8u3s2kt2,kE2mknqy,2020-0188,2020-06-04,19:12:34,19:29:05,NA,incomplete,182,race,3,1,left,C_M_09.jpg,C_F_14.jpg,A_M_07.jpg,right,553.4699999261647,false,high,false
kE2mknqy,3headtgn3s5yqh3y5nncdnm28bcvrm,3strjbfxo04zd5k81aj20d8u3s2kt2,kE2mknqy,2020-0188,2020-06-04,19:12:34,19:29:05,NA,incomplete,183,race,3,1,right,C_M_11.jpg,A_M_06.jpg,C_F_15.jpg,left,899.7750000562519,false,high,false
kE2mknqy,3headtgn3s5yqh3y5nncdnm28bcvrm,3strjbfxo04zd5k81aj20d8u3s2kt2,kE2mknqy,2020-0188,2020-06-04,19:12:34,19:29:05,NA,incomplete,184,race,3,1,left,A_M_13.jpg,A_F_09.jpg,C_M_11.jpg,right,606.6550000105053,false,high,false
kE2mknqy,3headtgn3s5yqh3y5nncdnm28bcvrm,3strjbfxo04zd5k81aj20d8u3s2kt2,kE2mknqy,2020-0188,2020-06-04,19:12:34,19:29:05,NA,incomplete,185,race,3,0,right,C_F_13.jpg,A_F_03.jpg,C_M_05.jpg,right,889.6649999078363,true,high,false
kE2mknqy,3headtgn3s5yqh3y5nncdnm28bcvrm,3strjbfxo04zd5k81aj20d8u3s2kt2,kE2mknqy,2020-0188,2020-06-04,19:12:34,19:29:05,NA,incomplete,186,race,3,1,right,C_M_06.jpg,A_M_14.jpg,C_F_08.jpg,left,704.9449998885393,false,high,false
kE2mknqy,3headtgn3s5yqh3y5nncdnm28bcvrm,3strjbfxo04zd5k81aj20d8u3s2kt2,kE2mknqy,2020-0188,2020-06-04,19:12:34,19:29:05,NA,incomplete,187,race,3,1,right,A_F_11.jpg,C_F_14.jpg,A_M_02.jpg,left,674.7500000055879,false,high,false
kE2mknqy,3headtgn3s5yqh3y5nncdnm28bcvrm,3strjbfxo04zd5k81aj20d8u3s2kt2,kE2mknqy,2020-0188,2020-06-04,19:12:34,19:29:05,NA,incomplete,188,race,3,1,right,A_F_04.jpg,C_F_01.jpg,A_M_12.jpg,left,629.6199997887015,false,high,false
kE2mknqy,3headtgn3s5yqh3y5nncdnm28bcvrm,3strjbfxo04zd5k81aj20d8u3s2kt2,kE2mknqy,2020-0188,2020-06-04,19:12:34,19:29:05,NA,incomplete,189,race,3,1,right,A_F_05.jpg,C_F_15.jpg,A_M_06.jpg,right,704.4599999208003,true,high,false
kE2mknqy,3headtgn3s5yqh3y5nncdnm28bcvrm,3strjbfxo04zd5k81aj20d8u3s2kt2,kE2mknqy,2020-0188,2020-06-04,19:12:34,19:29:05,NA,incomplete,190,race,3,0,left,A_M_16.jpg,A_F_12.jpg,C_M_10.jpg,left,775.7050001528114,true,high,false
kE2mknqy,3headtgn3s5yqh3y5nncdnm28bcvrm,3strjbfxo04zd5k81aj20d8u3s2kt2,kE2mknqy,2020-0188,2020-06-04,19:12:34,19:29:05,NA,incomplete,191,race,3,1,right,C_M_16.jpg,A_M_15.jpg,C_F_03.jpg,right,722.8749999776483,true,high,false
kE2mknqy,3headtgn3s5yqh3y5nncdnm28bcvrm,3strjbfxo04zd5k81aj20d8u3s2kt2,kE2mknqy,2020-0188,2020-06-04,19:12:34,19:29:05,NA,incomplete,192,race,3,0,left,C_F_07.jpg,C_M_03.jpg,A_F_11.jpg,left,709.3549999408424,true,high,false
kE2mknqy,3headtgn3s5yqh3y5nncdnm28bcvrm,3strjbfxo04zd5k81aj20d8u3s2kt2,kE2mknqy,2020-0188,2020-06-04,19:12:34,19:29:05,NA,incomplete,193,race,3,1,left,A_M_07.jpg,A_F_14.jpg,C_M_11.jpg,right,675.8049998898059,false,high,false
kE2mknqy,3headtgn3s5yqh3y5nncdnm28bcvrm,3strjbfxo04zd5k81aj20d8u3s2kt2,kE2mknqy,2020-0188,2020-06-04,19:12:34,19:29:05,NA,incomplete,194,race,3,1,left,C_F_09.jpg,C_M_16.jpg,A_F_06.jpg,left,925.0799999572337,true,high,false
kE2mknqy,3headtgn3s5yqh3y5nncdnm28bcvrm,3strjbfxo04zd5k81aj20d8u3s2kt2,kE2mknqy,2020-0188,2020-06-04,19:12:34,19:29:05,NA,incomplete,195,race,3,0,left,A_F_12.jpg,A_M_08.jpg,C_F_09.jpg,left,876.7649999354035,true,high,false
kE2mknqy,3headtgn3s5yqh3y5nncdnm28bcvrm,3strjbfxo04zd5k81aj20d8u3s2kt2,kE2mknqy,2020-0188,2020-06-04,19:12:34,19:29:05,NA,incomplete,196,race,3,1,right,A_F_05.jpg,C_F_03.jpg,A_M_13.jpg,left,686.1849999986589,false,high,false
kE2mknqy,3headtgn3s5yqh3y5nncdnm28bcvrm,3strjbfxo04zd5k81aj20d8u3s2kt2,kE2mknqy,2020-0188,2020-06-04,19:12:34,19:29:05,NA,incomplete,197,race,3,1,right,A_F_13.jpg,C_F_06.jpg,A_M_08.jpg,right,755.1499998662621,true,high,false
kE2mknqy,3headtgn3s5yqh3y5nncdnm28bcvrm,3strjbfxo04zd5k81aj20d8u3s2kt2,kE2mknqy,2020-0188,2020-06-04,19:12:34,19:29:05,NA,incomplete,198,race,3,1,left,C_F_01.jpg,C_M_09.jpg,A_F_14.jpg,left,773.1599998660386,true,high,false
kE2mknqy,3headtgn3s5yqh3y5nncdnm28bcvrm,3strjbfxo04zd5k81aj20d8u3s2kt2,kE2mknqy,2020-0188,2020-06-04,19:12:34,19:29:05,NA,incomplete,199,race,3,0,right,A_M_15.jpg,C_M_02.jpg,A_F_09.jpg,right,597.81499998644,true,high,false
kE2mknqy,3headtgn3s5yqh3y5nncdnm28bcvrm,3strjbfxo04zd5k81aj20d8u3s2kt2,kE2mknqy,2020-0188,2020-06-04,19:12:34,19:29:05,NA,incomplete,200,gender,2,1,left,C_M_14.jpg,A_M_16.jpg,C_F_02.jpg,right,608.0799999181181,false,high,false
kE2mknqy,3headtgn3s5yqh3y5nncdnm28bcvrm,3strjbfxo04zd5k81aj20d8u3s2kt2,kE2mknqy,2020-0188,2020-06-04,19:12:34,19:29:05,NA,incomplete,201,gender,2,1,right,A_F_13.jpg,A_M_10.jpg,C_F_11.jpg,right,593.9750000834465,true,high,false
kE2mknqy,3headtgn3s5yqh3y5nncdnm28bcvrm,3strjbfxo04zd5k81aj20d8u3s2kt2,kE2mknqy,2020-0188,2020-06-04,19:12:34,19:29:05,NA,incomplete,202,gender,2,0,left,C_M_10.jpg,A_M_11.jpg,C_F_05.jpg,left,749.779999954626,true,high,false
kE2mknqy,3headtgn3s5yqh3y5nncdnm28bcvrm,3strjbfxo04zd5k81aj20d8u3s2kt2,kE2mknqy,2020-0188,2020-06-04,19:12:34,19:29:05,NA,incomplete,203,gender,2,1,right,C_M_12.jpg,C_F_07.jpg,A_M_02.jpg,left,966.275000013411,false,high,false
kE2mknqy,3headtgn3s5yqh3y5nncdnm28bcvrm,3strjbfxo04zd5k81aj20d8u3s2kt2,kE2mknqy,2020-0188,2020-06-04,19:12:34,19:29:05,NA,incomplete,204,gender,2,1,left,C_M_02.jpg,A_M_15.jpg,C_F_11.jpg,left,919.579999987036,true,high,false
kE2mknqy,3headtgn3s5yqh3y5nncdnm28bcvrm,3strjbfxo04zd5k81aj20d8u3s2kt2,kE2mknqy,2020-0188,2020-06-04,19:12:34,19:29:05,NA,incomplete,205,gender,2,1,left,A_M_08.jpg,C_M_01.jpg,A_F_16.jpg,right,623.5500001348555,false,high,false
kE2mknqy,3headtgn3s5yqh3y5nncdnm28bcvrm,3strjbfxo04zd5k81aj20d8u3s2kt2,kE2mknqy,2020-0188,2020-06-04,19:12:34,19:29:05,NA,incomplete,206,gender,2,1,right,C_M_16.jpg,C_F_15.jpg,A_M_05.jpg,right,877.7099999133497,true,high,false
kE2mknqy,3headtgn3s5yqh3y5nncdnm28bcvrm,3strjbfxo04zd5k81aj20d8u3s2kt2,kE2mknqy,2020-0188,2020-06-04,19:12:34,19:29:05,NA,incomplete,207,gender,2,0,right,A_M_12.jpg,A_F_04.jpg,C_M_03.jpg,left,864.5849998574704,false,high,false
kE2mknqy,3headtgn3s5yqh3y5nncdnm28bcvrm,3strjbfxo04zd5k81aj20d8u3s2kt2,kE2mknqy,2020-0188,2020-06-04,19:12:34,19:29:05,NA,incomplete,208,gender,2,1,left,A_F_08.jpg,C_F_10.jpg,A_M_14.jpg,right,807.1699999272823,false,high,false
kE2mknqy,3headtgn3s5yqh3y5nncdnm28bcvrm,3strjbfxo04zd5k81aj20d8u3s2kt2,kE2mknqy,2020-0188,2020-06-04,19:12:34,19:29:05,NA,incomplete,209,gender,2,1,right,A_M_04.jpg,A_F_07.jpg,C_M_12.jpg,left,826.0000001173466,false,high,false
kE2mknqy,3headtgn3s5yqh3y5nncdnm28bcvrm,3strjbfxo04zd5k81aj20d8u3s2kt2,kE2mknqy,2020-0188,2020-06-04,19:12:34,19:29:05,NA,incomplete,210,gender,2,1,right,C_F_10.jpg,C_M_13.jpg,A_F_02.jpg,right,751.2650000862777,true,high,false
kE2mknqy,3headtgn3s5yqh3y5nncdnm28bcvrm,3strjbfxo04zd5k81aj20d8u3s2kt2,kE2mknqy,2020-0188,2020-06-04,19:12:34,19:29:05,NA,incomplete,211,gender,2,1,right,C_M_03.jpg,C_F_13.jpg,A_M_05.jpg,right,593.1349999736995,true,high,false
kE2mknqy,3headtgn3s5yqh3y5nncdnm28bcvrm,3strjbfxo04zd5k81aj20d8u3s2kt2,kE2mknqy,2020-0188,2020-06-04,19:12:34,19:29:05,NA,incomplete,212,gender,2,1,left,C_F_03.jpg,A_F_14.jpg,C_M_16.jpg,left,596.8150000553578,true,high,false
kE2mknqy,3headtgn3s5yqh3y5nncdnm28bcvrm,3strjbfxo04zd5k81aj20d8u3s2kt2,kE2mknqy,2020-0188,2020-06-04,19:12:34,19:29:05,NA,incomplete,213,gender,2,1,right,C_M_12.jpg,C_F_08.jpg,A_M_03.jpg,right,515.2199999429286,true,high,false
kE2mknqy,3headtgn3s5yqh3y5nncdnm28bcvrm,3strjbfxo04zd5k81aj20d8u3s2kt2,kE2mknqy,2020-0188,2020-06-04,19:12:34,19:29:05,NA,incomplete,214,gender,2,1,right,A_F_04.jpg,A_M_10.jpg,C_F_07.jpg,right,538.8950000051409,true,high,false
kE2mknqy,3headtgn3s5yqh3y5nncdnm28bcvrm,3strjbfxo04zd5k81aj20d8u3s2kt2,kE2mknqy,2020-0188,2020-06-04,19:12:34,19:29:05,NA,incomplete,215,gender,2,1,right,C_M_07.jpg,C_F_13.jpg,A_M_16.jpg,right,612.1900000143796,true,high,false
kE2mknqy,3headtgn3s5yqh3y5nncdnm28bcvrm,3strjbfxo04zd5k81aj20d8u3s2kt2,kE2mknqy,2020-0188,2020-06-04,19:12:34,19:29:05,NA,incomplete,216,gender,2,1,left,A_F_09.jpg,C_F_04.jpg,A_M_02.jpg,left,718.9100000541657,true,high,false
kE2mknqy,3headtgn3s5yqh3y5nncdnm28bcvrm,3strjbfxo04zd5k81aj20d8u3s2kt2,kE2mknqy,2020-0188,2020-06-04,19:12:34,19:29:05,NA,incomplete,217,gender,2,0,left,C_F_08.jpg,A_F_10.jpg,C_M_06.jpg,left,626.505000051111,true,high,false
kE2mknqy,3headtgn3s5yqh3y5nncdnm28bcvrm,3strjbfxo04zd5k81aj20d8u3s2kt2,kE2mknqy,2020-0188,2020-06-04,19:12:34,19:29:05,NA,incomplete,218,gender,2,1,left,A_M_16.jpg,C_M_09.jpg,A_F_07.jpg,right,735.3300000540912,false,high,false
kE2mknqy,3headtgn3s5yqh3y5nncdnm28bcvrm,3strjbfxo04zd5k81aj20d8u3s2kt2,kE2mknqy,2020-0188,2020-06-04,19:12:34,19:29:05,NA,incomplete,219,gender,2,1,right,A_F_06.jpg,A_M_09.jpg,C_F_13.jpg,left,734.2600000556558,false,high,false
kE2mknqy,3headtgn3s5yqh3y5nncdnm28bcvrm,3strjbfxo04zd5k81aj20d8u3s2kt2,kE2mknqy,2020-0188,2020-06-04,19:12:34,19:29:05,NA,incomplete,220,race,3,0,right,C_M_08.jpg,A_M_03.jpg,C_F_13.jpg,left,587.9550001118332,false,high,false
kE2mknqy,3headtgn3s5yqh3y5nncdnm28bcvrm,3strjbfxo04zd5k81aj20d8u3s2kt2,kE2mknqy,2020-0188,2020-06-04,19:12:34,19:29:05,NA,incomplete,221,race,3,1,left,A_M_13.jpg,A_F_10.jpg,C_M_02.jpg,right,500.5200000014156,false,high,false
kE2mknqy,3headtgn3s5yqh3y5nncdnm28bcvrm,3strjbfxo04zd5k81aj20d8u3s2kt2,kE2mknqy,2020-0188,2020-06-04,19:12:34,19:29:05,NA,incomplete,222,race,3,0,right,A_F_05.jpg,C_F_03.jpg,A_M_11.jpg,left,471.72999987378716,false,high,false
kE2mknqy,3headtgn3s5yqh3y5nncdnm28bcvrm,3strjbfxo04zd5k81aj20d8u3s2kt2,kE2mknqy,2020-0188,2020-06-04,19:12:34,19:29:05,NA,incomplete,223,race,3,1,right,A_M_09.jpg,C_M_16.jpg,A_F_04.jpg,right,508.38999985717237,true,high,false
kE2mknqy,3headtgn3s5yqh3y5nncdnm28bcvrm,3strjbfxo04zd5k81aj20d8u3s2kt2,kE2mknqy,2020-0188,2020-06-04,19:12:34,19:29:05,NA,incomplete,224,race,3,1,left,C_M_07.jpg,C_F_05.jpg,A_M_03.jpg,right,690.9199999645352,false,high,false
kE2mknqy,3headtgn3s5yqh3y5nncdnm28bcvrm,3strjbfxo04zd5k81aj20d8u3s2kt2,kE2mknqy,2020-0188,2020-06-04,19:12:34,19:29:05,NA,incomplete,225,race,3,1,left,A_F_16.jpg,A_M_11.jpg,C_F_10.jpg,right,716.7950000148267,false,high,false
kE2mknqy,3headtgn3s5yqh3y5nncdnm28bcvrm,3strjbfxo04zd5k81aj20d8u3s2kt2,kE2mknqy,2020-0188,2020-06-04,19:12:34,19:29:05,NA,incomplete,226,race,3,1,right,C_F_07.jpg,A_F_11.jpg,C_M_06.jpg,left,717.9399998858571,false,high,false
kE2mknqy,3headtgn3s5yqh3y5nncdnm28bcvrm,3strjbfxo04zd5k81aj20d8u3s2kt2,kE2mknqy,2020-0188,2020-06-04,19:12:34,19:29:05,NA,incomplete,227,race,3,1,left,A_F_06.jpg,A_M_14.jpg,C_F_01.jpg,right,721.9249999616295,false,high,false
kE2mknqy,3headtgn3s5yqh3y5nncdnm28bcvrm,3strjbfxo04zd5k81aj20d8u3s2kt2,kE2mknqy,2020-0188,2020-06-04,19:12:34,19:29:05,NA,incomplete,228,race,3,0,right,A_F_03.jpg,C_F_04.jpg,A_M_06.jpg,left,649.3400000035763,false,high,false
kE2mknqy,3headtgn3s5yqh3y5nncdnm28bcvrm,3strjbfxo04zd5k81aj20d8u3s2kt2,kE2mknqy,2020-0188,2020-06-04,19:12:34,19:29:05,NA,incomplete,229,race,3,1,right,A_F_05.jpg,C_F_11.jpg,A_M_14.jpg,right,769.0200000070035,true,high,false
kE2mknqy,3headtgn3s5yqh3y5nncdnm28bcvrm,3strjbfxo04zd5k81aj20d8u3s2kt2,kE2mknqy,2020-0188,2020-06-04,19:12:34,19:29:05,NA,incomplete,230,race,3,1,right,C_F_01.jpg,A_F_08.jpg,C_M_02.jpg,right,827.5399999693036,true,high,false
kE2mknqy,3headtgn3s5yqh3y5nncdnm28bcvrm,3strjbfxo04zd5k81aj20d8u3s2kt2,kE2mknqy,2020-0188,2020-06-04,19:12:34,19:29:05,NA,incomplete,231,race,3,0,right,A_F_16.jpg,C_F_06.jpg,A_M_05.jpg,right,707.6399999205023,true,high,false
kE2mknqy,3headtgn3s5yqh3y5nncdnm28bcvrm,3strjbfxo04zd5k81aj20d8u3s2kt2,kE2mknqy,2020-0188,2020-06-04,19:12:34,19:29:05,NA,incomplete,232,race,3,1,left,A_F_07.jpg,A_M_15.jpg,C_F_03.jpg,right,618.2599999010563,false,high,false
kE2mknqy,3headtgn3s5yqh3y5nncdnm28bcvrm,3strjbfxo04zd5k81aj20d8u3s2kt2,kE2mknqy,2020-0188,2020-06-04,19:12:34,19:29:05,NA,incomplete,233,race,3,1,left,A_F_02.jpg,A_M_12.jpg,C_F_11.jpg,left,595.9350001066923,true,high,false
kE2mknqy,3headtgn3s5yqh3y5nncdnm28bcvrm,3strjbfxo04zd5k81aj20d8u3s2kt2,kE2mknqy,2020-0188,2020-06-04,19:12:34,19:29:05,NA,incomplete,234,race,3,1,left,C_M_05.jpg,C_F_11.jpg,A_M_08.jpg,left,751.7850000876933,true,high,false
kE2mknqy,3headtgn3s5yqh3y5nncdnm28bcvrm,3strjbfxo04zd5k81aj20d8u3s2kt2,kE2mknqy,2020-0188,2020-06-04,19:12:34,19:29:05,NA,incomplete,235,race,3,1,right,C_F_10.jpg,A_F_05.jpg,C_M_06.jpg,right,739.3799999263138,true,high,false
kE2mknqy,3headtgn3s5yqh3y5nncdnm28bcvrm,3strjbfxo04zd5k81aj20d8u3s2kt2,kE2mknqy,2020-0188,2020-06-04,19:12:34,19:29:05,NA,incomplete,236,race,3,0,right,A_F_15.jpg,C_F_08.jpg,A_M_09.jpg,left,593.3550000190735,false,high,false
kE2mknqy,3headtgn3s5yqh3y5nncdnm28bcvrm,3strjbfxo04zd5k81aj20d8u3s2kt2,kE2mknqy,2020-0188,2020-06-04,19:12:34,19:29:05,NA,incomplete,237,race,3,1,right,C_M_11.jpg,A_M_12.jpg,C_F_14.jpg,left,603.0300001148134,false,high,false
kE2mknqy,3headtgn3s5yqh3y5nncdnm28bcvrm,3strjbfxo04zd5k81aj20d8u3s2kt2,kE2mknqy,2020-0188,2020-06-04,19:12:34,19:29:05,NA,incomplete,238,race,3,1,right,C_F_04.jpg,A_F_06.jpg,C_M_15.jpg,right,709.3549999408424,true,high,false
kE2mknqy,3headtgn3s5yqh3y5nncdnm28bcvrm,3strjbfxo04zd5k81aj20d8u3s2kt2,kE2mknqy,2020-0188,2020-06-04,19:12:34,19:29:05,NA,incomplete,239,race,3,1,left,C_M_03.jpg,C_F_15.jpg,A_M_14.jpg,right,726.9250000827014,false,high,false
kE2mknqy,3headtgn3s5yqh3y5nncdnm28bcvrm,3strjbfxo04zd5k81aj20d8u3s2kt2,kE2mknqy,2020-0188,2020-06-04,19:12:34,19:29:05,NA,NA,instruction example,color,NA,NA,NA,Green_Triangle_Chess_2.jpg,Green_Circle_Stripes_4.jpg,Red_Star_Grid_2.jpg,NA,NA,NA,NA,undefined
kE2mknqy,3headtgn3s5yqh3y5nncdnm28bcvrm,3strjbfxo04zd5k81aj20d8u3s2kt2,kE2mknqy,2020-0188,2020-06-04,19:12:34,19:29:05,NA,NA,instruction example,color,NA,NA,NA,Red_Circle_Dots_2.jpg,Blue_Plus_Stripes_2.jpg,Red_Star_Chess_4.jpg,NA,NA,NA,NA,undefined
kE2mknqy,3headtgn3s5yqh3y5nncdnm28bcvrm,3strjbfxo04zd5k81aj20d8u3s2kt2,kE2mknqy,2020-0188,2020-06-04,19:12:34,19:29:05,NA,NA,instruction example,color,NA,NA,NA,C_F_07.jpg,A_F_06.jpg,C_M_14.jpg,NA,NA,NA,NA,undefined
kE2mknqy,3headtgn3s5yqh3y5nncdnm28bcvrm,3strjbfxo04zd5k81aj20d8u3s2kt2,kE2mknqy,2020-0188,2020-06-04,19:12:34,19:29:05,NA,NA,instruction example,color,NA,NA,NA,A_M_14.jpg,A_F_02.jpg,C_M_11.jpg,NA,NA,NA,NA,undefined
