workerId,hitId,assignmentId,subject,studyid,exp_date,exp_start,exp_end,time_start,time_end,trial,type,sequence,reward_validity,answer,image_top,image_left,image_right,response,response_time,response_acc,volatility,practice
b8LgKu7p,3atyli1pswfm29bow6spg463876ojo,3t3iwe1xga0lo8i3ef3zwzk4yestqv,b8LgKu7p,2020-0188,2020-11-17,21:16:05,21:34:24,NA,incomplete,0,number,0,1,right,Purple_Triangle_Chess_4.jpg,Green_Star_Chess_1.jpg,Red_Circle_Dots_4.jpg,right,1214.5399999571964,true,NA,true
b8LgKu7p,3atyli1pswfm29bow6spg463876ojo,3t3iwe1xga0lo8i3ef3zwzk4yestqv,b8LgKu7p,2020-0188,2020-11-17,21:16:05,21:34:24,NA,incomplete,1,number,0,1,left,Red_Triangle_Dots_1.jpg,Blue_Star_Chess_1.jpg,Purple_Plus_Dots_2.jpg,left,711.5950000006706,true,NA,true
b8LgKu7p,3atyli1pswfm29bow6spg463876ojo,3t3iwe1xga0lo8i3ef3zwzk4yestqv,b8LgKu7p,2020-0188,2020-11-17,21:16:05,21:34:24,NA,incomplete,2,number,0,0,left,Blue_Star_Stripes_2.jpg,Red_Circle_Dots_2.jpg,Purple_Triangle_Stripes_1.jpg,left,892.2700000694022,true,NA,true
b8LgKu7p,3atyli1pswfm29bow6spg463876ojo,3t3iwe1xga0lo8i3ef3zwzk4yestqv,b8LgKu7p,2020-0188,2020-11-17,21:16:05,21:34:24,NA,incomplete,3,number,0,1,right,Purple_Circle_Dots_4.jpg,Blue_Star_Dots_1.jpg,Red_Triangle_Chess_4.jpg,right,904.2699999408796,true,NA,true
b8LgKu7p,3atyli1pswfm29bow6spg463876ojo,3t3iwe1xga0lo8i3ef3zwzk4yestqv,b8LgKu7p,2020-0188,2020-11-17,21:16:05,21:34:24,NA,incomplete,4,number,0,1,left,Purple_Star_Dots_4.jpg,Green_Plus_Grid_4.jpg,Blue_Triangle_Dots_1.jpg,left,669.400000013411,true,NA,true
b8LgKu7p,3atyli1pswfm29bow6spg463876ojo,3t3iwe1xga0lo8i3ef3zwzk4yestqv,b8LgKu7p,2020-0188,2020-11-17,21:16:05,21:34:24,NA,incomplete,5,number,0,1,right,Red_Star_Grid_1.jpg,Purple_Circle_Grid_2.jpg,Green_Plus_Stripes_1.jpg,right,597.8850000537932,true,NA,true
b8LgKu7p,3atyli1pswfm29bow6spg463876ojo,3t3iwe1xga0lo8i3ef3zwzk4yestqv,b8LgKu7p,2020-0188,2020-11-17,21:16:05,21:34:24,NA,incomplete,6,number,0,0,right,Purple_Triangle_Stripes_4.jpg,Green_Circle_Stripes_3.jpg,Blue_Plus_Grid_4.jpg,left,575.124999973923,false,NA,true
b8LgKu7p,3atyli1pswfm29bow6spg463876ojo,3t3iwe1xga0lo8i3ef3zwzk4yestqv,b8LgKu7p,2020-0188,2020-11-17,21:16:05,21:34:24,NA,incomplete,7,number,0,0,left,Purple_Plus_Chess_4.jpg,Blue_Star_Grid_4.jpg,Red_Circle_Chess_3.jpg,right,1237.9349999828264,false,NA,true
b8LgKu7p,3atyli1pswfm29bow6spg463876ojo,3t3iwe1xga0lo8i3ef3zwzk4yestqv,b8LgKu7p,2020-0188,2020-11-17,21:16:05,21:34:24,NA,incomplete,8,number,0,1,right,Blue_Triangle_Dots_1.jpg,Red_Circle_Dots_4.jpg,Purple_Plus_Grid_1.jpg,right,880.0349999219179,true,NA,true
b8LgKu7p,3atyli1pswfm29bow6spg463876ojo,3t3iwe1xga0lo8i3ef3zwzk4yestqv,b8LgKu7p,2020-0188,2020-11-17,21:16:05,21:34:24,NA,incomplete,9,number,0,1,left,Purple_Plus_Stripes_1.jpg,Green_Star_Chess_1.jpg,Blue_Triangle_Stripes_4.jpg,left,728.0749999918044,true,NA,true
b8LgKu7p,3atyli1pswfm29bow6spg463876ojo,3t3iwe1xga0lo8i3ef3zwzk4yestqv,b8LgKu7p,2020-0188,2020-11-17,21:16:05,21:34:24,NA,incomplete,10,number,0,1,right,Red_Triangle_Stripes_2.jpg,Purple_Plus_Stripes_1.jpg,Green_Star_Grid_2.jpg,right,715.4050000244752,true,NA,true
b8LgKu7p,3atyli1pswfm29bow6spg463876ojo,3t3iwe1xga0lo8i3ef3zwzk4yestqv,b8LgKu7p,2020-0188,2020-11-17,21:16:05,21:34:24,NA,incomplete,11,number,0,1,left,Blue_Circle_Chess_2.jpg,Purple_Triangle_Grid_2.jpg,Red_Star_Chess_1.jpg,left,585.8800000278279,true,NA,true
b8LgKu7p,3atyli1pswfm29bow6spg463876ojo,3t3iwe1xga0lo8i3ef3zwzk4yestqv,b8LgKu7p,2020-0188,2020-11-17,21:16:05,21:34:24,NA,incomplete,12,number,0,1,left,Red_Circle_Dots_2.jpg,Green_Plus_Grid_2.jpg,Purple_Star_Dots_1.jpg,left,804.7650000080466,true,NA,true
b8LgKu7p,3atyli1pswfm29bow6spg463876ojo,3t3iwe1xga0lo8i3ef3zwzk4yestqv,b8LgKu7p,2020-0188,2020-11-17,21:16:05,21:34:24,NA,incomplete,13,number,0,0,left,Red_Triangle_Grid_3.jpg,Purple_Circle_Chess_3.jpg,Blue_Star_Grid_4.jpg,left,740.5649999855086,true,NA,true
b8LgKu7p,3atyli1pswfm29bow6spg463876ojo,3t3iwe1xga0lo8i3ef3zwzk4yestqv,b8LgKu7p,2020-0188,2020-11-17,21:16:05,21:34:24,NA,incomplete,14,number,0,1,right,Purple_Circle_Grid_2.jpg,Red_Triangle_Grid_3.jpg,Blue_Plus_Dots_2.jpg,right,874.8650000197813,true,NA,true
b8LgKu7p,3atyli1pswfm29bow6spg463876ojo,3t3iwe1xga0lo8i3ef3zwzk4yestqv,b8LgKu7p,2020-0188,2020-11-17,21:16:05,21:34:24,NA,incomplete,15,number,0,1,right,Green_Plus_Chess_2.jpg,Red_Circle_Chess_4.jpg,Purple_Triangle_Grid_2.jpg,right,770.130000077188,true,NA,true
b8LgKu7p,3atyli1pswfm29bow6spg463876ojo,3t3iwe1xga0lo8i3ef3zwzk4yestqv,b8LgKu7p,2020-0188,2020-11-17,21:16:05,21:34:24,NA,incomplete,16,number,0,1,right,Red_Triangle_Grid_4.jpg,Blue_Star_Grid_2.jpg,Green_Circle_Chess_4.jpg,right,655.0500000594184,true,NA,true
b8LgKu7p,3atyli1pswfm29bow6spg463876ojo,3t3iwe1xga0lo8i3ef3zwzk4yestqv,b8LgKu7p,2020-0188,2020-11-17,21:16:05,21:34:24,NA,incomplete,17,number,0,1,left,Red_Star_Dots_1.jpg,Purple_Circle_Chess_1.jpg,Blue_Triangle_Dots_2.jpg,left,896.5249999891967,true,NA,true
b8LgKu7p,3atyli1pswfm29bow6spg463876ojo,3t3iwe1xga0lo8i3ef3zwzk4yestqv,b8LgKu7p,2020-0188,2020-11-17,21:16:05,21:34:24,NA,incomplete,18,number,0,1,right,Green_Triangle_Stripes_4.jpg,Purple_Plus_Stripes_2.jpg,Red_Circle_Dots_4.jpg,right,741.7600000044331,true,NA,true
b8LgKu7p,3atyli1pswfm29bow6spg463876ojo,3t3iwe1xga0lo8i3ef3zwzk4yestqv,b8LgKu7p,2020-0188,2020-11-17,21:16:05,21:34:24,NA,incomplete,19,number,0,1,right,Purple_Star_Chess_3.jpg,Red_Plus_Chess_1.jpg,Green_Circle_Stripes_3.jpg,right,828.0749999685213,true,NA,true
b8LgKu7p,3atyli1pswfm29bow6spg463876ojo,3t3iwe1xga0lo8i3ef3zwzk4yestqv,b8LgKu7p,2020-0188,2020-11-17,21:16:05,21:34:24,NA,incomplete,20,filling,1,0,right,Green_Circle_Chess_3.jpg,Blue_Star_Dots_3.jpg,Purple_Plus_Chess_2.jpg,right,987.3049999587238,true,NA,true
b8LgKu7p,3atyli1pswfm29bow6spg463876ojo,3t3iwe1xga0lo8i3ef3zwzk4yestqv,b8LgKu7p,2020-0188,2020-11-17,21:16:05,21:34:24,NA,incomplete,21,filling,1,1,right,Green_Plus_Stripes_2.jpg,Blue_Circle_Chess_2.jpg,Red_Triangle_Stripes_3.jpg,right,986.7500000400469,true,NA,true
b8LgKu7p,3atyli1pswfm29bow6spg463876ojo,3t3iwe1xga0lo8i3ef3zwzk4yestqv,b8LgKu7p,2020-0188,2020-11-17,21:16:05,21:34:24,NA,incomplete,22,filling,1,1,left,Green_Star_Dots_2.jpg,Red_Circle_Dots_4.jpg,Blue_Plus_Grid_2.jpg,left,1097.635000012815,true,NA,true
b8LgKu7p,3atyli1pswfm29bow6spg463876ojo,3t3iwe1xga0lo8i3ef3zwzk4yestqv,b8LgKu7p,2020-0188,2020-11-17,21:16:05,21:34:24,NA,incomplete,23,filling,1,1,right,Red_Circle_Dots_1.jpg,Green_Plus_Chess_1.jpg,Blue_Triangle_Dots_4.jpg,right,1002.9349999967963,true,NA,true
b8LgKu7p,3atyli1pswfm29bow6spg463876ojo,3t3iwe1xga0lo8i3ef3zwzk4yestqv,b8LgKu7p,2020-0188,2020-11-17,21:16:05,21:34:24,NA,incomplete,24,filling,1,1,left,Red_Triangle_Dots_3.jpg,Blue_Star_Dots_2.jpg,Purple_Circle_Grid_3.jpg,left,1181.5600000554696,true,NA,true
b8LgKu7p,3atyli1pswfm29bow6spg463876ojo,3t3iwe1xga0lo8i3ef3zwzk4yestqv,b8LgKu7p,2020-0188,2020-11-17,21:16:05,21:34:24,NA,incomplete,25,filling,1,1,left,Blue_Circle_Chess_1.jpg,Purple_Star_Chess_2.jpg,Red_Triangle_Dots_1.jpg,left,1005.3700000280514,true,NA,true
b8LgKu7p,3atyli1pswfm29bow6spg463876ojo,3t3iwe1xga0lo8i3ef3zwzk4yestqv,b8LgKu7p,2020-0188,2020-11-17,21:16:05,21:34:24,NA,incomplete,26,filling,1,1,right,Purple_Plus_Stripes_2.jpg,Green_Triangle_Grid_2.jpg,Red_Star_Stripes_3.jpg,right,1015.3449999634176,true,NA,true
b8LgKu7p,3atyli1pswfm29bow6spg463876ojo,3t3iwe1xga0lo8i3ef3zwzk4yestqv,b8LgKu7p,2020-0188,2020-11-17,21:16:05,21:34:24,NA,incomplete,27,filling,1,1,left,Blue_Star_Grid_3.jpg,Red_Plus_Grid_2.jpg,Green_Circle_Dots_3.jpg,left,971.6000000480562,true,NA,true
b8LgKu7p,3atyli1pswfm29bow6spg463876ojo,3t3iwe1xga0lo8i3ef3zwzk4yestqv,b8LgKu7p,2020-0188,2020-11-17,21:16:05,21:34:24,NA,incomplete,28,filling,1,1,right,Red_Plus_Grid_2.jpg,Green_Star_Stripes_2.jpg,Blue_Circle_Grid_3.jpg,right,905.7099999627098,true,NA,true
b8LgKu7p,3atyli1pswfm29bow6spg463876ojo,3t3iwe1xga0lo8i3ef3zwzk4yestqv,b8LgKu7p,2020-0188,2020-11-17,21:16:05,21:34:24,NA,incomplete,29,filling,1,0,right,Red_Triangle_Dots_3.jpg,Blue_Star_Grid_3.jpg,Green_Circle_Dots_2.jpg,right,836.6050000768155,true,NA,true
b8LgKu7p,3atyli1pswfm29bow6spg463876ojo,3t3iwe1xga0lo8i3ef3zwzk4yestqv,b8LgKu7p,2020-0188,2020-11-17,21:16:05,21:34:24,NA,incomplete,30,filling,1,1,left,Red_Plus_Dots_4.jpg,Blue_Triangle_Dots_3.jpg,Green_Circle_Stripes_4.jpg,left,891.425000037998,true,NA,true
b8LgKu7p,3atyli1pswfm29bow6spg463876ojo,3t3iwe1xga0lo8i3ef3zwzk4yestqv,b8LgKu7p,2020-0188,2020-11-17,21:16:05,21:34:24,NA,incomplete,31,filling,1,1,right,Purple_Plus_Grid_3.jpg,Green_Triangle_Stripes_3.jpg,Blue_Circle_Grid_4.jpg,right,925.7450000150129,true,NA,true
b8LgKu7p,3atyli1pswfm29bow6spg463876ojo,3t3iwe1xga0lo8i3ef3zwzk4yestqv,b8LgKu7p,2020-0188,2020-11-17,21:16:05,21:34:24,NA,incomplete,32,filling,1,1,right,Green_Circle_Chess_2.jpg,Purple_Star_Dots_2.jpg,Red_Triangle_Chess_3.jpg,right,847.0200001029298,true,NA,true
b8LgKu7p,3atyli1pswfm29bow6spg463876ojo,3t3iwe1xga0lo8i3ef3zwzk4yestqv,b8LgKu7p,2020-0188,2020-11-17,21:16:05,21:34:24,NA,incomplete,33,filling,1,1,left,Purple_Triangle_Chess_1.jpg,Blue_Plus_Chess_2.jpg,Red_Circle_Dots_1.jpg,left,880.0350000383332,true,NA,true
b8LgKu7p,3atyli1pswfm29bow6spg463876ojo,3t3iwe1xga0lo8i3ef3zwzk4yestqv,b8LgKu7p,2020-0188,2020-11-17,21:16:05,21:34:24,NA,incomplete,34,filling,1,0,right,Blue_Star_Chess_2.jpg,Red_Circle_Dots_2.jpg,Purple_Plus_Chess_3.jpg,right,1088.8349999440834,true,NA,true
b8LgKu7p,3atyli1pswfm29bow6spg463876ojo,3t3iwe1xga0lo8i3ef3zwzk4yestqv,b8LgKu7p,2020-0188,2020-11-17,21:16:05,21:34:24,NA,incomplete,35,filling,1,1,right,Purple_Triangle_Stripes_3.jpg,Green_Plus_Dots_3.jpg,Blue_Circle_Stripes_1.jpg,right,899.6050000423566,true,NA,true
b8LgKu7p,3atyli1pswfm29bow6spg463876ojo,3t3iwe1xga0lo8i3ef3zwzk4yestqv,b8LgKu7p,2020-0188,2020-11-17,21:16:05,21:34:24,NA,incomplete,36,filling,1,1,right,Red_Triangle_Grid_1.jpg,Green_Plus_Stripes_1.jpg,Purple_Star_Grid_4.jpg,right,1017.9299999726936,true,NA,true
b8LgKu7p,3atyli1pswfm29bow6spg463876ojo,3t3iwe1xga0lo8i3ef3zwzk4yestqv,b8LgKu7p,2020-0188,2020-11-17,21:16:05,21:34:24,NA,incomplete,37,filling,1,1,left,Red_Circle_Grid_2.jpg,Green_Triangle_Grid_1.jpg,Blue_Plus_Dots_2.jpg,left,1027.5099999271333,true,NA,true
b8LgKu7p,3atyli1pswfm29bow6spg463876ojo,3t3iwe1xga0lo8i3ef3zwzk4yestqv,b8LgKu7p,2020-0188,2020-11-17,21:16:05,21:34:24,NA,incomplete,38,filling,1,1,left,Blue_Plus_Stripes_1.jpg,Green_Star_Stripes_2.jpg,Red_Circle_Chess_1.jpg,left,1348.6850000917912,true,NA,true
b8LgKu7p,3atyli1pswfm29bow6spg463876ojo,3t3iwe1xga0lo8i3ef3zwzk4yestqv,b8LgKu7p,2020-0188,2020-11-17,21:16:05,21:34:24,NA,incomplete,39,filling,1,0,left,Red_Plus_Chess_1.jpg,Blue_Circle_Chess_3.jpg,Green_Triangle_Stripes_1.jpg,left,934.2150000156835,true,NA,true
b8LgKu7p,3atyli1pswfm29bow6spg463876ojo,3t3iwe1xga0lo8i3ef3zwzk4yestqv,b8LgKu7p,2020-0188,2020-11-17,21:16:05,21:34:24,NA,incomplete,0,number,0,1,left,Blue_Triangle_Dots_2.jpg,Purple_Star_Chess_2.jpg,Green_Plus_Dots_4.jpg,right,1183.3900000201538,false,low,false
b8LgKu7p,3atyli1pswfm29bow6spg463876ojo,3t3iwe1xga0lo8i3ef3zwzk4yestqv,b8LgKu7p,2020-0188,2020-11-17,21:16:05,21:34:24,NA,incomplete,1,number,0,1,right,Red_Triangle_Grid_4.jpg,Blue_Plus_Grid_3.jpg,Purple_Star_Chess_4.jpg,left,1099.4649999774992,false,low,false
b8LgKu7p,3atyli1pswfm29bow6spg463876ojo,3t3iwe1xga0lo8i3ef3zwzk4yestqv,b8LgKu7p,2020-0188,2020-11-17,21:16:05,21:34:24,NA,incomplete,2,number,0,1,left,Blue_Circle_Grid_3.jpg,Red_Triangle_Dots_3.jpg,Green_Plus_Grid_1.jpg,right,786.5400000009686,false,low,false
b8LgKu7p,3atyli1pswfm29bow6spg463876ojo,3t3iwe1xga0lo8i3ef3zwzk4yestqv,b8LgKu7p,2020-0188,2020-11-17,21:16:05,21:34:24,NA,incomplete,3,number,0,1,right,Red_Circle_Grid_1.jpg,Purple_Star_Grid_2.jpg,Green_Triangle_Chess_1.jpg,right,776.4949999982491,true,low,false
b8LgKu7p,3atyli1pswfm29bow6spg463876ojo,3t3iwe1xga0lo8i3ef3zwzk4yestqv,b8LgKu7p,2020-0188,2020-11-17,21:16:05,21:34:24,NA,incomplete,4,number,0,1,right,Purple_Triangle_Chess_3.jpg,Blue_Circle_Chess_1.jpg,Red_Star_Stripes_3.jpg,right,643.0349999573082,true,low,false
b8LgKu7p,3atyli1pswfm29bow6spg463876ojo,3t3iwe1xga0lo8i3ef3zwzk4yestqv,b8LgKu7p,2020-0188,2020-11-17,21:16:05,21:34:24,NA,incomplete,5,number,0,1,right,Red_Star_Grid_4.jpg,Blue_Triangle_Grid_2.jpg,Green_Plus_Chess_4.jpg,right,937.1150000952184,true,low,false
b8LgKu7p,3atyli1pswfm29bow6spg463876ojo,3t3iwe1xga0lo8i3ef3zwzk4yestqv,b8LgKu7p,2020-0188,2020-11-17,21:16:05,21:34:24,NA,incomplete,6,number,0,1,right,Blue_Star_Grid_3.jpg,Red_Plus_Grid_2.jpg,Purple_Circle_Stripes_3.jpg,right,845.534999971278,true,low,false
b8LgKu7p,3atyli1pswfm29bow6spg463876ojo,3t3iwe1xga0lo8i3ef3zwzk4yestqv,b8LgKu7p,2020-0188,2020-11-17,21:16:05,21:34:24,NA,incomplete,7,number,0,1,right,Red_Star_Chess_4.jpg,Blue_Triangle_Chess_2.jpg,Green_Circle_Dots_4.jpg,right,767.1700000064448,true,low,false
b8LgKu7p,3atyli1pswfm29bow6spg463876ojo,3t3iwe1xga0lo8i3ef3zwzk4yestqv,b8LgKu7p,2020-0188,2020-11-17,21:16:05,21:34:24,NA,incomplete,8,number,0,1,right,Red_Triangle_Grid_1.jpg,Purple_Circle_Grid_3.jpg,Green_Star_Dots_1.jpg,right,1180.8799999998882,true,low,false
b8LgKu7p,3atyli1pswfm29bow6spg463876ojo,3t3iwe1xga0lo8i3ef3zwzk4yestqv,b8LgKu7p,2020-0188,2020-11-17,21:16:05,21:34:24,NA,incomplete,9,number,0,1,left,Purple_Star_Dots_1.jpg,Red_Circle_Stripes_1.jpg,Blue_Plus_Dots_2.jpg,left,711.6650000680238,true,low,false
b8LgKu7p,3atyli1pswfm29bow6spg463876ojo,3t3iwe1xga0lo8i3ef3zwzk4yestqv,b8LgKu7p,2020-0188,2020-11-17,21:16:05,21:34:24,NA,incomplete,10,filling,1,1,left,Purple_Triangle_Grid_4.jpg,Blue_Star_Grid_1.jpg,Red_Plus_Stripes_4.jpg,right,711.159999947995,false,low,false
b8LgKu7p,3atyli1pswfm29bow6spg463876ojo,3t3iwe1xga0lo8i3ef3zwzk4yestqv,b8LgKu7p,2020-0188,2020-11-17,21:16:05,21:34:24,NA,incomplete,11,filling,1,1,left,Red_Star_Stripes_2.jpg,Purple_Triangle_Stripes_1.jpg,Blue_Plus_Grid_2.jpg,right,730.6749999988824,false,low,false
b8LgKu7p,3atyli1pswfm29bow6spg463876ojo,3t3iwe1xga0lo8i3ef3zwzk4yestqv,b8LgKu7p,2020-0188,2020-11-17,21:16:05,21:34:24,NA,incomplete,12,filling,1,0,left,Green_Circle_Grid_1.jpg,Blue_Star_Grid_3.jpg,Red_Plus_Chess_1.jpg,right,842.5699999788776,false,low,false
b8LgKu7p,3atyli1pswfm29bow6spg463876ojo,3t3iwe1xga0lo8i3ef3zwzk4yestqv,b8LgKu7p,2020-0188,2020-11-17,21:16:05,21:34:24,NA,incomplete,13,filling,1,1,left,Purple_Star_Chess_4.jpg,Green_Circle_Chess_3.jpg,Red_Plus_Grid_4.jpg,right,795.0249999994412,false,low,false
b8LgKu7p,3atyli1pswfm29bow6spg463876ojo,3t3iwe1xga0lo8i3ef3zwzk4yestqv,b8LgKu7p,2020-0188,2020-11-17,21:16:05,21:34:24,NA,incomplete,14,filling,1,1,left,Purple_Plus_Dots_3.jpg,Green_Triangle_Dots_2.jpg,Red_Star_Stripes_3.jpg,left,920.9299999056384,true,low,false
b8LgKu7p,3atyli1pswfm29bow6spg463876ojo,3t3iwe1xga0lo8i3ef3zwzk4yestqv,b8LgKu7p,2020-0188,2020-11-17,21:16:05,21:34:24,NA,incomplete,15,filling,1,1,right,Red_Circle_Stripes_2.jpg,Green_Triangle_Grid_2.jpg,Blue_Plus_Stripes_4.jpg,right,875.1250000204891,true,low,false
b8LgKu7p,3atyli1pswfm29bow6spg463876ojo,3t3iwe1xga0lo8i3ef3zwzk4yestqv,b8LgKu7p,2020-0188,2020-11-17,21:16:05,21:34:24,NA,incomplete,16,filling,1,1,left,Blue_Star_Grid_2.jpg,Red_Triangle_Grid_3.jpg,Green_Circle_Dots_2.jpg,left,999.0400000242516,true,low,false
b8LgKu7p,3atyli1pswfm29bow6spg463876ojo,3t3iwe1xga0lo8i3ef3zwzk4yestqv,b8LgKu7p,2020-0188,2020-11-17,21:16:05,21:34:24,NA,incomplete,17,filling,1,0,right,Green_Star_Stripes_3.jpg,Blue_Circle_Chess_3.jpg,Red_Plus_Stripes_1.jpg,right,922.8250000160187,true,low,false
b8LgKu7p,3atyli1pswfm29bow6spg463876ojo,3t3iwe1xga0lo8i3ef3zwzk4yestqv,b8LgKu7p,2020-0188,2020-11-17,21:16:05,21:34:24,NA,incomplete,18,filling,1,1,left,Red_Plus_Chess_3.jpg,Purple_Circle_Chess_1.jpg,Green_Triangle_Grid_3.jpg,left,792.9849999491125,true,low,false
b8LgKu7p,3atyli1pswfm29bow6spg463876ojo,3t3iwe1xga0lo8i3ef3zwzk4yestqv,b8LgKu7p,2020-0188,2020-11-17,21:16:05,21:34:24,NA,incomplete,19,filling,1,1,right,Green_Star_Chess_3.jpg,Purple_Circle_Stripes_3.jpg,Red_Plus_Chess_4.jpg,right,703.499999945052,true,low,false
b8LgKu7p,3atyli1pswfm29bow6spg463876ojo,3t3iwe1xga0lo8i3ef3zwzk4yestqv,b8LgKu7p,2020-0188,2020-11-17,21:16:05,21:34:24,NA,incomplete,20,number,0,1,left,Red_Star_Grid_3.jpg,Purple_Circle_Stripes_3.jpg,Green_Triangle_Grid_2.jpg,right,1011.3350000465289,false,low,false
b8LgKu7p,3atyli1pswfm29bow6spg463876ojo,3t3iwe1xga0lo8i3ef3zwzk4yestqv,b8LgKu7p,2020-0188,2020-11-17,21:16:05,21:34:24,NA,incomplete,21,number,0,1,right,Red_Star_Dots_4.jpg,Blue_Triangle_Dots_2.jpg,Purple_Circle_Grid_4.jpg,left,918.7249999959022,false,low,false
b8LgKu7p,3atyli1pswfm29bow6spg463876ojo,3t3iwe1xga0lo8i3ef3zwzk4yestqv,b8LgKu7p,2020-0188,2020-11-17,21:16:05,21:34:24,NA,incomplete,22,number,0,1,right,Green_Triangle_Dots_4.jpg,Blue_Plus_Dots_1.jpg,Red_Circle_Grid_4.jpg,left,876.0750000365078,false,low,false
b8LgKu7p,3atyli1pswfm29bow6spg463876ojo,3t3iwe1xga0lo8i3ef3zwzk4yestqv,b8LgKu7p,2020-0188,2020-11-17,21:16:05,21:34:24,NA,incomplete,23,number,0,1,right,Purple_Triangle_Dots_1.jpg,Blue_Plus_Dots_3.jpg,Red_Star_Chess_1.jpg,right,627.9349999967963,true,low,false
b8LgKu7p,3atyli1pswfm29bow6spg463876ojo,3t3iwe1xga0lo8i3ef3zwzk4yestqv,b8LgKu7p,2020-0188,2020-11-17,21:16:05,21:34:24,NA,incomplete,24,number,0,1,left,Green_Plus_Grid_1.jpg,Red_Circle_Dots_1.jpg,Blue_Star_Grid_4.jpg,left,835.579999955371,true,low,false
b8LgKu7p,3atyli1pswfm29bow6spg463876ojo,3t3iwe1xga0lo8i3ef3zwzk4yestqv,b8LgKu7p,2020-0188,2020-11-17,21:16:05,21:34:24,NA,incomplete,25,number,0,1,left,Red_Plus_Grid_3.jpg,Blue_Star_Chess_3.jpg,Green_Circle_Grid_4.jpg,left,883.3049999084324,true,low,false
b8LgKu7p,3atyli1pswfm29bow6spg463876ojo,3t3iwe1xga0lo8i3ef3zwzk4yestqv,b8LgKu7p,2020-0188,2020-11-17,21:16:05,21:34:24,NA,incomplete,26,number,0,1,right,Purple_Triangle_Chess_3.jpg,Blue_Star_Chess_2.jpg,Green_Plus_Stripes_3.jpg,right,906.9649999728426,true,low,false
b8LgKu7p,3atyli1pswfm29bow6spg463876ojo,3t3iwe1xga0lo8i3ef3zwzk4yestqv,b8LgKu7p,2020-0188,2020-11-17,21:16:05,21:34:24,NA,incomplete,27,number,0,0,left,Purple_Triangle_Grid_1.jpg,Green_Circle_Chess_1.jpg,Red_Star_Grid_2.jpg,left,589.049999951385,true,low,false
b8LgKu7p,3atyli1pswfm29bow6spg463876ojo,3t3iwe1xga0lo8i3ef3zwzk4yestqv,b8LgKu7p,2020-0188,2020-11-17,21:16:05,21:34:24,NA,incomplete,28,number,0,1,left,Red_Circle_Dots_4.jpg,Green_Triangle_Stripes_4.jpg,Purple_Plus_Dots_3.jpg,left,1220.5300000496209,true,low,false
b8LgKu7p,3atyli1pswfm29bow6spg463876ojo,3t3iwe1xga0lo8i3ef3zwzk4yestqv,b8LgKu7p,2020-0188,2020-11-17,21:16:05,21:34:24,NA,incomplete,29,number,0,1,right,Purple_Plus_Grid_3.jpg,Blue_Star_Grid_4.jpg,Green_Triangle_Dots_3.jpg,right,669.7299999650568,true,low,false
b8LgKu7p,3atyli1pswfm29bow6spg463876ojo,3t3iwe1xga0lo8i3ef3zwzk4yestqv,b8LgKu7p,2020-0188,2020-11-17,21:16:05,21:34:24,NA,incomplete,30,filling,1,1,right,Blue_Star_Dots_1.jpg,Red_Triangle_Chess_1.jpg,Green_Circle_Dots_2.jpg,left,552.7950000250712,false,low,false
b8LgKu7p,3atyli1pswfm29bow6spg463876ojo,3t3iwe1xga0lo8i3ef3zwzk4yestqv,b8LgKu7p,2020-0188,2020-11-17,21:16:05,21:34:24,NA,incomplete,31,filling,1,1,right,Blue_Triangle_Chess_1.jpg,Red_Circle_Dots_1.jpg,Purple_Star_Chess_4.jpg,left,574.7650000266731,false,low,false
b8LgKu7p,3atyli1pswfm29bow6spg463876ojo,3t3iwe1xga0lo8i3ef3zwzk4yestqv,b8LgKu7p,2020-0188,2020-11-17,21:16:05,21:34:24,NA,incomplete,32,filling,1,1,left,Green_Star_Grid_1.jpg,Red_Circle_Grid_4.jpg,Blue_Triangle_Stripes_1.jpg,right,581.1299999477342,false,low,false
b8LgKu7p,3atyli1pswfm29bow6spg463876ojo,3t3iwe1xga0lo8i3ef3zwzk4yestqv,b8LgKu7p,2020-0188,2020-11-17,21:16:05,21:34:24,NA,incomplete,33,filling,1,1,left,Purple_Circle_Grid_3.jpg,Blue_Plus_Grid_4.jpg,Green_Triangle_Stripes_3.jpg,right,876.5999999595806,false,low,false
b8LgKu7p,3atyli1pswfm29bow6spg463876ojo,3t3iwe1xga0lo8i3ef3zwzk4yestqv,b8LgKu7p,2020-0188,2020-11-17,21:16:05,21:34:24,NA,incomplete,34,filling,1,1,left,Green_Plus_Dots_2.jpg,Purple_Triangle_Dots_3.jpg,Blue_Star_Grid_2.jpg,left,778.1200000317767,true,low,false
b8LgKu7p,3atyli1pswfm29bow6spg463876ojo,3t3iwe1xga0lo8i3ef3zwzk4yestqv,b8LgKu7p,2020-0188,2020-11-17,21:16:05,21:34:24,NA,incomplete,35,filling,1,1,left,Blue_Plus_Dots_1.jpg,Green_Star_Dots_4.jpg,Purple_Triangle_Stripes_1.jpg,left,993.2600000174716,true,low,false
b8LgKu7p,3atyli1pswfm29bow6spg463876ojo,3t3iwe1xga0lo8i3ef3zwzk4yestqv,b8LgKu7p,2020-0188,2020-11-17,21:16:05,21:34:24,NA,incomplete,36,filling,1,1,right,Purple_Triangle_Chess_3.jpg,Blue_Plus_Stripes_3.jpg,Green_Circle_Chess_1.jpg,right,1047.5899999728426,true,low,false
b8LgKu7p,3atyli1pswfm29bow6spg463876ojo,3t3iwe1xga0lo8i3ef3zwzk4yestqv,b8LgKu7p,2020-0188,2020-11-17,21:16:05,21:34:24,NA,incomplete,37,filling,1,0,left,Purple_Circle_Dots_2.jpg,Green_Triangle_Dots_3.jpg,Blue_Plus_Chess_2.jpg,left,905.280000064522,true,low,false
b8LgKu7p,3atyli1pswfm29bow6spg463876ojo,3t3iwe1xga0lo8i3ef3zwzk4yestqv,b8LgKu7p,2020-0188,2020-11-17,21:16:05,21:34:24,NA,incomplete,38,filling,1,1,right,Blue_Triangle_Stripes_4.jpg,Green_Plus_Dots_4.jpg,Red_Circle_Stripes_2.jpg,right,878.3350000157952,true,low,false
b8LgKu7p,3atyli1pswfm29bow6spg463876ojo,3t3iwe1xga0lo8i3ef3zwzk4yestqv,b8LgKu7p,2020-0188,2020-11-17,21:16:05,21:34:24,NA,incomplete,39,filling,1,0,right,Blue_Star_Stripes_4.jpg,Purple_Circle_Dots_4.jpg,Green_Triangle_Stripes_2.jpg,right,768.7850000802428,true,low,false
b8LgKu7p,3atyli1pswfm29bow6spg463876ojo,3t3iwe1xga0lo8i3ef3zwzk4yestqv,b8LgKu7p,2020-0188,2020-11-17,21:16:05,21:34:24,NA,incomplete,40,number,0,1,right,Blue_Triangle_Chess_2.jpg,Red_Circle_Chess_1.jpg,Green_Plus_Dots_2.jpg,left,906.8250000709668,false,low,false
b8LgKu7p,3atyli1pswfm29bow6spg463876ojo,3t3iwe1xga0lo8i3ef3zwzk4yestqv,b8LgKu7p,2020-0188,2020-11-17,21:16:05,21:34:24,NA,incomplete,41,number,0,1,right,Green_Plus_Grid_1.jpg,Red_Star_Grid_3.jpg,Purple_Circle_Chess_1.jpg,right,595.2500000130385,true,low,false
b8LgKu7p,3atyli1pswfm29bow6spg463876ojo,3t3iwe1xga0lo8i3ef3zwzk4yestqv,b8LgKu7p,2020-0188,2020-11-17,21:16:05,21:34:24,NA,incomplete,42,number,0,0,left,Purple_Plus_Stripes_1.jpg,Blue_Triangle_Grid_1.jpg,Green_Star_Stripes_3.jpg,left,801.7450000625104,true,low,false
b8LgKu7p,3atyli1pswfm29bow6spg463876ojo,3t3iwe1xga0lo8i3ef3zwzk4yestqv,b8LgKu7p,2020-0188,2020-11-17,21:16:05,21:34:24,NA,incomplete,43,number,0,1,left,Green_Plus_Chess_4.jpg,Red_Circle_Stripes_4.jpg,Blue_Triangle_Chess_2.jpg,left,847.0600000582635,true,low,false
b8LgKu7p,3atyli1pswfm29bow6spg463876ojo,3t3iwe1xga0lo8i3ef3zwzk4yestqv,b8LgKu7p,2020-0188,2020-11-17,21:16:05,21:34:24,NA,incomplete,44,number,0,1,right,Purple_Circle_Grid_1.jpg,Red_Star_Grid_4.jpg,Blue_Plus_Chess_1.jpg,right,669.179999968037,true,low,false
b8LgKu7p,3atyli1pswfm29bow6spg463876ojo,3t3iwe1xga0lo8i3ef3zwzk4yestqv,b8LgKu7p,2020-0188,2020-11-17,21:16:05,21:34:24,NA,incomplete,45,number,0,1,right,Red_Star_Dots_1.jpg,Blue_Triangle_Dots_2.jpg,Purple_Plus_Stripes_1.jpg,right,588.6300000129268,true,low,false
b8LgKu7p,3atyli1pswfm29bow6spg463876ojo,3t3iwe1xga0lo8i3ef3zwzk4yestqv,b8LgKu7p,2020-0188,2020-11-17,21:16:05,21:34:24,NA,incomplete,46,number,0,1,right,Purple_Triangle_Chess_1.jpg,Blue_Plus_Chess_2.jpg,Red_Circle_Grid_1.jpg,right,523.3700000680983,true,low,false
b8LgKu7p,3atyli1pswfm29bow6spg463876ojo,3t3iwe1xga0lo8i3ef3zwzk4yestqv,b8LgKu7p,2020-0188,2020-11-17,21:16:05,21:34:24,NA,incomplete,47,number,0,0,right,Green_Plus_Stripes_4.jpg,Purple_Triangle_Stripes_2.jpg,Red_Star_Chess_4.jpg,right,767.6399999763817,true,low,false
b8LgKu7p,3atyli1pswfm29bow6spg463876ojo,3t3iwe1xga0lo8i3ef3zwzk4yestqv,b8LgKu7p,2020-0188,2020-11-17,21:16:05,21:34:24,NA,incomplete,48,number,0,0,right,Green_Plus_Dots_1.jpg,Red_Star_Dots_4.jpg,Blue_Circle_Grid_1.jpg,right,617.7499999757856,true,low,false
b8LgKu7p,3atyli1pswfm29bow6spg463876ojo,3t3iwe1xga0lo8i3ef3zwzk4yestqv,b8LgKu7p,2020-0188,2020-11-17,21:16:05,21:34:24,NA,incomplete,49,number,0,1,right,Red_Circle_Dots_3.jpg,Purple_Triangle_Dots_4.jpg,Green_Plus_Chess_3.jpg,left,793.4499999973923,false,low,false
b8LgKu7p,3atyli1pswfm29bow6spg463876ojo,3t3iwe1xga0lo8i3ef3zwzk4yestqv,b8LgKu7p,2020-0188,2020-11-17,21:16:05,21:34:24,NA,incomplete,50,filling,1,1,right,Red_Circle_Chess_4.jpg,Green_Plus_Stripes_4.jpg,Blue_Star_Chess_2.jpg,right,1141.7699999874458,true,low,false
b8LgKu7p,3atyli1pswfm29bow6spg463876ojo,3t3iwe1xga0lo8i3ef3zwzk4yestqv,b8LgKu7p,2020-0188,2020-11-17,21:16:05,21:34:24,NA,incomplete,51,filling,1,1,right,Green_Plus_Chess_3.jpg,Blue_Circle_Grid_3.jpg,Red_Triangle_Chess_4.jpg,right,736.6049999836832,true,low,false
b8LgKu7p,3atyli1pswfm29bow6spg463876ojo,3t3iwe1xga0lo8i3ef3zwzk4yestqv,b8LgKu7p,2020-0188,2020-11-17,21:16:05,21:34:24,NA,incomplete,52,filling,1,1,left,Green_Circle_Chess_4.jpg,Purple_Star_Chess_2.jpg,Blue_Triangle_Dots_4.jpg,left,880.875000031665,true,low,false
b8LgKu7p,3atyli1pswfm29bow6spg463876ojo,3t3iwe1xga0lo8i3ef3zwzk4yestqv,b8LgKu7p,2020-0188,2020-11-17,21:16:05,21:34:24,NA,incomplete,53,filling,1,1,right,Purple_Star_Chess_1.jpg,Green_Circle_Grid_1.jpg,Red_Triangle_Chess_4.jpg,right,650.3400000510737,true,low,false
b8LgKu7p,3atyli1pswfm29bow6spg463876ojo,3t3iwe1xga0lo8i3ef3zwzk4yestqv,b8LgKu7p,2020-0188,2020-11-17,21:16:05,21:34:24,NA,incomplete,54,filling,1,0,right,Red_Star_Grid_3.jpg,Purple_Triangle_Stripes_3.jpg,Blue_Circle_Grid_4.jpg,right,711.0949999187142,true,low,false
b8LgKu7p,3atyli1pswfm29bow6spg463876ojo,3t3iwe1xga0lo8i3ef3zwzk4yestqv,b8LgKu7p,2020-0188,2020-11-17,21:16:05,21:34:24,NA,incomplete,55,filling,1,1,right,Green_Circle_Grid_3.jpg,Purple_Star_Dots_3.jpg,Red_Triangle_Grid_4.jpg,right,595.2350000152364,true,low,false
b8LgKu7p,3atyli1pswfm29bow6spg463876ojo,3t3iwe1xga0lo8i3ef3zwzk4yestqv,b8LgKu7p,2020-0188,2020-11-17,21:16:05,21:34:24,NA,incomplete,56,filling,1,1,left,Red_Star_Grid_2.jpg,Blue_Triangle_Grid_1.jpg,Purple_Circle_Chess_2.jpg,left,1005.3550000302494,true,low,false
b8LgKu7p,3atyli1pswfm29bow6spg463876ojo,3t3iwe1xga0lo8i3ef3zwzk4yestqv,b8LgKu7p,2020-0188,2020-11-17,21:16:05,21:34:24,NA,incomplete,57,filling,1,0,left,Green_Plus_Stripes_2.jpg,Purple_Star_Stripes_4.jpg,Red_Circle_Chess_2.jpg,left,750.8800000650808,true,low,false
b8LgKu7p,3atyli1pswfm29bow6spg463876ojo,3t3iwe1xga0lo8i3ef3zwzk4yestqv,b8LgKu7p,2020-0188,2020-11-17,21:16:05,21:34:24,NA,incomplete,58,filling,1,1,right,Blue_Triangle_Stripes_3.jpg,Purple_Plus_Grid_3.jpg,Red_Star_Stripes_4.jpg,left,873.8400000147521,false,low,false
b8LgKu7p,3atyli1pswfm29bow6spg463876ojo,3t3iwe1xga0lo8i3ef3zwzk4yestqv,b8LgKu7p,2020-0188,2020-11-17,21:16:05,21:34:24,NA,incomplete,59,filling,1,1,left,Blue_Star_Grid_1.jpg,Green_Triangle_Grid_3.jpg,Red_Plus_Stripes_1.jpg,right,485.8999999705702,false,low,false
b8LgKu7p,3atyli1pswfm29bow6spg463876ojo,3t3iwe1xga0lo8i3ef3zwzk4yestqv,b8LgKu7p,2020-0188,2020-11-17,21:16:05,21:34:24,NA,incomplete,60,number,0,1,left,Purple_Circle_Dots_3.jpg,Green_Triangle_Stripes_3.jpg,Red_Plus_Dots_1.jpg,left,581.6600000252947,true,low,false
b8LgKu7p,3atyli1pswfm29bow6spg463876ojo,3t3iwe1xga0lo8i3ef3zwzk4yestqv,b8LgKu7p,2020-0188,2020-11-17,21:16:05,21:34:24,NA,incomplete,61,number,0,1,right,Green_Star_Chess_1.jpg,Blue_Circle_Chess_2.jpg,Red_Triangle_Grid_1.jpg,right,574.5699999388307,true,low,false
b8LgKu7p,3atyli1pswfm29bow6spg463876ojo,3t3iwe1xga0lo8i3ef3zwzk4yestqv,b8LgKu7p,2020-0188,2020-11-17,21:16:05,21:34:24,NA,incomplete,62,number,0,1,right,Purple_Plus_Stripes_4.jpg,Red_Triangle_Stripes_1.jpg,Green_Circle_Chess_4.jpg,right,810.2750000543892,true,low,false
b8LgKu7p,3atyli1pswfm29bow6spg463876ojo,3t3iwe1xga0lo8i3ef3zwzk4yestqv,b8LgKu7p,2020-0188,2020-11-17,21:16:05,21:34:24,NA,incomplete,63,number,0,0,right,Blue_Circle_Stripes_2.jpg,Red_Star_Stripes_4.jpg,Green_Triangle_Dots_2.jpg,right,849.820000003092,true,low,false
b8LgKu7p,3atyli1pswfm29bow6spg463876ojo,3t3iwe1xga0lo8i3ef3zwzk4yestqv,b8LgKu7p,2020-0188,2020-11-17,21:16:05,21:34:24,NA,incomplete,64,number,0,1,left,Purple_Circle_Stripes_4.jpg,Red_Triangle_Grid_4.jpg,Green_Star_Stripes_2.jpg,left,785.440000006929,true,low,false
b8LgKu7p,3atyli1pswfm29bow6spg463876ojo,3t3iwe1xga0lo8i3ef3zwzk4yestqv,b8LgKu7p,2020-0188,2020-11-17,21:16:05,21:34:24,NA,incomplete,65,number,0,1,right,Blue_Star_Chess_3.jpg,Purple_Circle_Chess_1.jpg,Green_Triangle_Stripes_3.jpg,right,572.9849999770522,true,low,false
b8LgKu7p,3atyli1pswfm29bow6spg463876ojo,3t3iwe1xga0lo8i3ef3zwzk4yestqv,b8LgKu7p,2020-0188,2020-11-17,21:16:05,21:34:24,NA,incomplete,66,number,0,0,right,Purple_Circle_Dots_4.jpg,Blue_Star_Dots_2.jpg,Green_Plus_Stripes_4.jpg,right,605.9850000310689,true,low,false
b8LgKu7p,3atyli1pswfm29bow6spg463876ojo,3t3iwe1xga0lo8i3ef3zwzk4yestqv,b8LgKu7p,2020-0188,2020-11-17,21:16:05,21:34:24,NA,incomplete,67,number,0,1,left,Red_Star_Dots_3.jpg,Purple_Circle_Grid_3.jpg,Green_Plus_Dots_1.jpg,left,611.3350000232458,true,low,false
b8LgKu7p,3atyli1pswfm29bow6spg463876ojo,3t3iwe1xga0lo8i3ef3zwzk4yestqv,b8LgKu7p,2020-0188,2020-11-17,21:16:05,21:34:24,NA,incomplete,68,number,0,1,left,Red_Triangle_Dots_3.jpg,Green_Star_Stripes_3.jpg,Blue_Circle_Dots_1.jpg,left,578.1300000380725,true,low,false
b8LgKu7p,3atyli1pswfm29bow6spg463876ojo,3t3iwe1xga0lo8i3ef3zwzk4yestqv,b8LgKu7p,2020-0188,2020-11-17,21:16:05,21:34:24,NA,incomplete,69,number,0,1,left,Blue_Triangle_Stripes_3.jpg,Purple_Circle_Dots_3.jpg,Red_Plus_Stripes_4.jpg,left,753.2849999843165,true,low,false
b8LgKu7p,3atyli1pswfm29bow6spg463876ojo,3t3iwe1xga0lo8i3ef3zwzk4yestqv,b8LgKu7p,2020-0188,2020-11-17,21:16:05,21:34:24,NA,incomplete,70,filling,1,1,left,Red_Triangle_Chess_3.jpg,Green_Circle_Chess_4.jpg,Blue_Star_Grid_3.jpg,right,709.8950000945479,false,low,false
b8LgKu7p,3atyli1pswfm29bow6spg463876ojo,3t3iwe1xga0lo8i3ef3zwzk4yestqv,b8LgKu7p,2020-0188,2020-11-17,21:16:05,21:34:24,NA,incomplete,71,filling,1,1,left,Green_Triangle_Stripes_1.jpg,Purple_Star_Stripes_4.jpg,Blue_Plus_Chess_1.jpg,right,638.3250000653788,false,low,false
b8LgKu7p,3atyli1pswfm29bow6spg463876ojo,3t3iwe1xga0lo8i3ef3zwzk4yestqv,b8LgKu7p,2020-0188,2020-11-17,21:16:05,21:34:24,NA,incomplete,72,filling,1,1,left,Red_Plus_Dots_2.jpg,Purple_Triangle_Dots_1.jpg,Green_Star_Grid_2.jpg,left,896.6200000140816,true,low,false
b8LgKu7p,3atyli1pswfm29bow6spg463876ojo,3t3iwe1xga0lo8i3ef3zwzk4yestqv,b8LgKu7p,2020-0188,2020-11-17,21:16:05,21:34:24,NA,incomplete,73,filling,1,1,left,Red_Star_Dots_1.jpg,Green_Circle_Dots_4.jpg,Purple_Triangle_Grid_1.jpg,left,850.9149999590591,true,low,false
b8LgKu7p,3atyli1pswfm29bow6spg463876ojo,3t3iwe1xga0lo8i3ef3zwzk4yestqv,b8LgKu7p,2020-0188,2020-11-17,21:16:05,21:34:24,NA,incomplete,74,filling,1,1,left,Purple_Circle_Dots_1.jpg,Green_Plus_Dots_4.jpg,Red_Triangle_Grid_1.jpg,right,671.2200000183657,false,low,false
b8LgKu7p,3atyli1pswfm29bow6spg463876ojo,3t3iwe1xga0lo8i3ef3zwzk4yestqv,b8LgKu7p,2020-0188,2020-11-17,21:16:05,21:34:24,NA,incomplete,75,filling,1,1,right,Purple_Plus_Dots_1.jpg,Red_Triangle_Stripes_1.jpg,Green_Star_Dots_2.jpg,right,969.4899999303743,true,low,false
b8LgKu7p,3atyli1pswfm29bow6spg463876ojo,3t3iwe1xga0lo8i3ef3zwzk4yestqv,b8LgKu7p,2020-0188,2020-11-17,21:16:05,21:34:24,NA,incomplete,76,filling,1,0,right,Red_Star_Chess_4.jpg,Blue_Circle_Stripes_4.jpg,Purple_Triangle_Chess_2.jpg,right,1046.7199999839067,true,low,false
b8LgKu7p,3atyli1pswfm29bow6spg463876ojo,3t3iwe1xga0lo8i3ef3zwzk4yestqv,b8LgKu7p,2020-0188,2020-11-17,21:16:05,21:34:24,NA,incomplete,77,filling,1,1,left,Blue_Triangle_Grid_2.jpg,Red_Circle_Grid_3.jpg,Green_Plus_Stripes_2.jpg,right,933.1500000553206,false,low,false
b8LgKu7p,3atyli1pswfm29bow6spg463876ojo,3t3iwe1xga0lo8i3ef3zwzk4yestqv,b8LgKu7p,2020-0188,2020-11-17,21:16:05,21:34:24,NA,incomplete,78,filling,1,1,right,Purple_Plus_Stripes_4.jpg,Green_Star_Dots_4.jpg,Blue_Triangle_Stripes_3.jpg,right,1001.9850000971928,true,low,false
b8LgKu7p,3atyli1pswfm29bow6spg463876ojo,3t3iwe1xga0lo8i3ef3zwzk4yestqv,b8LgKu7p,2020-0188,2020-11-17,21:16:05,21:34:24,NA,incomplete,79,filling,1,1,left,Blue_Plus_Grid_2.jpg,Red_Circle_Grid_4.jpg,Green_Star_Chess_2.jpg,left,971.4799999492243,true,low,false
b8LgKu7p,3atyli1pswfm29bow6spg463876ojo,3t3iwe1xga0lo8i3ef3zwzk4yestqv,b8LgKu7p,2020-0188,2020-11-17,21:16:05,21:34:24,NA,incomplete,80,number,0,0,right,Green_Plus_Grid_3.jpg,Purple_Circle_Grid_4.jpg,Blue_Star_Stripes_3.jpg,left,860.0749999750406,false,low,false
b8LgKu7p,3atyli1pswfm29bow6spg463876ojo,3t3iwe1xga0lo8i3ef3zwzk4yestqv,b8LgKu7p,2020-0188,2020-11-17,21:16:05,21:34:24,NA,incomplete,81,number,0,1,right,Red_Circle_Chess_3.jpg,Blue_Triangle_Chess_4.jpg,Purple_Star_Dots_3.jpg,left,875.8149999193847,false,low,false
b8LgKu7p,3atyli1pswfm29bow6spg463876ojo,3t3iwe1xga0lo8i3ef3zwzk4yestqv,b8LgKu7p,2020-0188,2020-11-17,21:16:05,21:34:24,NA,incomplete,82,number,0,1,left,Purple_Star_Dots_3.jpg,Green_Plus_Chess_3.jpg,Red_Circle_Dots_1.jpg,right,786.3000000361353,false,low,false
b8LgKu7p,3atyli1pswfm29bow6spg463876ojo,3t3iwe1xga0lo8i3ef3zwzk4yestqv,b8LgKu7p,2020-0188,2020-11-17,21:16:05,21:34:24,NA,incomplete,83,number,0,1,right,Blue_Star_Stripes_2.jpg,Purple_Triangle_Stripes_1.jpg,Red_Circle_Grid_2.jpg,right,841.0949999233708,true,low,false
b8LgKu7p,3atyli1pswfm29bow6spg463876ojo,3t3iwe1xga0lo8i3ef3zwzk4yestqv,b8LgKu7p,2020-0188,2020-11-17,21:16:05,21:34:24,NA,incomplete,84,number,0,1,right,Green_Star_Stripes_3.jpg,Blue_Triangle_Stripes_1.jpg,Red_Plus_Grid_3.jpg,right,635.4499999433756,true,low,false
b8LgKu7p,3atyli1pswfm29bow6spg463876ojo,3t3iwe1xga0lo8i3ef3zwzk4yestqv,b8LgKu7p,2020-0188,2020-11-17,21:16:05,21:34:24,NA,incomplete,85,number,0,1,right,Green_Plus_Chess_1.jpg,Red_Star_Chess_3.jpg,Blue_Triangle_Stripes_1.jpg,right,709.7200000425801,true,low,false
b8LgKu7p,3atyli1pswfm29bow6spg463876ojo,3t3iwe1xga0lo8i3ef3zwzk4yestqv,b8LgKu7p,2020-0188,2020-11-17,21:16:05,21:34:24,NA,incomplete,86,number,0,1,right,Blue_Star_Grid_4.jpg,Purple_Circle_Grid_2.jpg,Green_Triangle_Stripes_4.jpg,right,706.2549999682233,true,low,false
b8LgKu7p,3atyli1pswfm29bow6spg463876ojo,3t3iwe1xga0lo8i3ef3zwzk4yestqv,b8LgKu7p,2020-0188,2020-11-17,21:16:05,21:34:24,NA,incomplete,87,number,0,1,left,Purple_Triangle_Stripes_3.jpg,Blue_Circle_Dots_3.jpg,Green_Plus_Stripes_1.jpg,left,657.6150000328198,true,low,false
b8LgKu7p,3atyli1pswfm29bow6spg463876ojo,3t3iwe1xga0lo8i3ef3zwzk4yestqv,b8LgKu7p,2020-0188,2020-11-17,21:16:05,21:34:24,NA,incomplete,88,number,0,0,right,Red_Plus_Dots_1.jpg,Blue_Triangle_Dots_4.jpg,Green_Star_Stripes_1.jpg,right,706.5799999982119,true,low,false
b8LgKu7p,3atyli1pswfm29bow6spg463876ojo,3t3iwe1xga0lo8i3ef3zwzk4yestqv,b8LgKu7p,2020-0188,2020-11-17,21:16:05,21:34:24,NA,incomplete,89,number,0,0,right,Blue_Plus_Stripes_1.jpg,Purple_Circle_Stripes_2.jpg,Green_Star_Chess_1.jpg,right,689.5450000884011,true,low,false
b8LgKu7p,3atyli1pswfm29bow6spg463876ojo,3t3iwe1xga0lo8i3ef3zwzk4yestqv,b8LgKu7p,2020-0188,2020-11-17,21:16:05,21:34:24,NA,incomplete,90,filling,1,1,right,Blue_Circle_Stripes_2.jpg,Purple_Plus_Grid_2.jpg,Red_Star_Stripes_1.jpg,left,1039.8150000255555,false,low,false
b8LgKu7p,3atyli1pswfm29bow6spg463876ojo,3t3iwe1xga0lo8i3ef3zwzk4yestqv,b8LgKu7p,2020-0188,2020-11-17,21:16:05,21:34:24,NA,incomplete,91,filling,1,0,left,Purple_Triangle_Chess_3.jpg,Red_Circle_Chess_4.jpg,Blue_Star_Stripes_3.jpg,left,968.8450000248849,true,low,false
b8LgKu7p,3atyli1pswfm29bow6spg463876ojo,3t3iwe1xga0lo8i3ef3zwzk4yestqv,b8LgKu7p,2020-0188,2020-11-17,21:16:05,21:34:24,NA,incomplete,92,filling,1,0,right,Green_Triangle_Grid_2.jpg,Purple_Star_Dots_2.jpg,Red_Plus_Grid_4.jpg,right,870.1599999330938,true,low,false
b8LgKu7p,3atyli1pswfm29bow6spg463876ojo,3t3iwe1xga0lo8i3ef3zwzk4yestqv,b8LgKu7p,2020-0188,2020-11-17,21:16:05,21:34:24,NA,incomplete,93,filling,1,1,right,Green_Plus_Grid_4.jpg,Red_Circle_Stripes_4.jpg,Purple_Triangle_Grid_1.jpg,left,832.1749999886379,false,low,false
b8LgKu7p,3atyli1pswfm29bow6spg463876ojo,3t3iwe1xga0lo8i3ef3zwzk4yestqv,b8LgKu7p,2020-0188,2020-11-17,21:16:05,21:34:24,NA,incomplete,94,filling,1,1,left,Green_Circle_Chess_2.jpg,Red_Star_Chess_4.jpg,Blue_Plus_Dots_2.jpg,left,976.52000002563,true,low,false
b8LgKu7p,3atyli1pswfm29bow6spg463876ojo,3t3iwe1xga0lo8i3ef3zwzk4yestqv,b8LgKu7p,2020-0188,2020-11-17,21:16:05,21:34:24,NA,incomplete,95,filling,1,1,left,Red_Star_Stripes_3.jpg,Purple_Circle_Stripes_4.jpg,Green_Plus_Chess_3.jpg,left,959.7199999261647,true,low,false
b8LgKu7p,3atyli1pswfm29bow6spg463876ojo,3t3iwe1xga0lo8i3ef3zwzk4yestqv,b8LgKu7p,2020-0188,2020-11-17,21:16:05,21:34:24,NA,incomplete,96,filling,1,0,left,Green_Circle_Dots_2.jpg,Blue_Star_Dots_4.jpg,Red_Plus_Stripes_2.jpg,left,1042.8299999330193,true,low,false
b8LgKu7p,3atyli1pswfm29bow6spg463876ojo,3t3iwe1xga0lo8i3ef3zwzk4yestqv,b8LgKu7p,2020-0188,2020-11-17,21:16:05,21:34:24,NA,incomplete,97,filling,1,1,right,Red_Star_Chess_2.jpg,Green_Plus_Stripes_2.jpg,Purple_Circle_Chess_1.jpg,right,888.2999999914318,true,low,false
b8LgKu7p,3atyli1pswfm29bow6spg463876ojo,3t3iwe1xga0lo8i3ef3zwzk4yestqv,b8LgKu7p,2020-0188,2020-11-17,21:16:05,21:34:24,NA,incomplete,98,filling,1,1,left,Blue_Plus_Stripes_1.jpg,Green_Star_Stripes_2.jpg,Red_Triangle_Chess_1.jpg,left,835.179999936372,true,low,false
b8LgKu7p,3atyli1pswfm29bow6spg463876ojo,3t3iwe1xga0lo8i3ef3zwzk4yestqv,b8LgKu7p,2020-0188,2020-11-17,21:16:05,21:34:24,NA,incomplete,99,filling,1,1,right,Red_Star_Dots_4.jpg,Purple_Circle_Chess_4.jpg,Green_Triangle_Dots_2.jpg,right,926.3249998912215,true,low,false
b8LgKu7p,3atyli1pswfm29bow6spg463876ojo,3t3iwe1xga0lo8i3ef3zwzk4yestqv,b8LgKu7p,2020-0188,2020-11-17,21:16:05,21:34:24,NA,incomplete,100,number,0,1,right,Purple_Circle_Chess_3.jpg,Green_Star_Chess_1.jpg,Blue_Triangle_Stripes_3.jpg,left,805.7050000643358,false,low,false
b8LgKu7p,3atyli1pswfm29bow6spg463876ojo,3t3iwe1xga0lo8i3ef3zwzk4yestqv,b8LgKu7p,2020-0188,2020-11-17,21:16:05,21:34:24,NA,incomplete,101,number,0,1,right,Blue_Plus_Stripes_3.jpg,Purple_Star_Stripes_2.jpg,Green_Triangle_Grid_3.jpg,left,916.3750000298023,false,low,false
b8LgKu7p,3atyli1pswfm29bow6spg463876ojo,3t3iwe1xga0lo8i3ef3zwzk4yestqv,b8LgKu7p,2020-0188,2020-11-17,21:16:05,21:34:24,NA,incomplete,102,number,0,1,left,Purple_Star_Dots_2.jpg,Green_Plus_Chess_2.jpg,Red_Triangle_Dots_4.jpg,left,744.7600000305101,true,low,false
b8LgKu7p,3atyli1pswfm29bow6spg463876ojo,3t3iwe1xga0lo8i3ef3zwzk4yestqv,b8LgKu7p,2020-0188,2020-11-17,21:16:05,21:34:24,NA,incomplete,103,number,0,1,right,Blue_Triangle_Chess_3.jpg,Purple_Star_Chess_2.jpg,Red_Circle_Stripes_3.jpg,right,629.4300000881776,true,low,false
b8LgKu7p,3atyli1pswfm29bow6spg463876ojo,3t3iwe1xga0lo8i3ef3zwzk4yestqv,b8LgKu7p,2020-0188,2020-11-17,21:16:05,21:34:24,NA,incomplete,104,number,0,0,left,Red_Triangle_Dots_2.jpg,Green_Star_Grid_2.jpg,Blue_Plus_Dots_3.jpg,left,641.1549999611452,true,low,false
b8LgKu7p,3atyli1pswfm29bow6spg463876ojo,3t3iwe1xga0lo8i3ef3zwzk4yestqv,b8LgKu7p,2020-0188,2020-11-17,21:16:05,21:34:24,NA,incomplete,105,number,0,1,left,Purple_Circle_Chess_1.jpg,Red_Star_Dots_1.jpg,Blue_Triangle_Chess_2.jpg,left,1005.8150000404567,true,low,false
b8LgKu7p,3atyli1pswfm29bow6spg463876ojo,3t3iwe1xga0lo8i3ef3zwzk4yestqv,b8LgKu7p,2020-0188,2020-11-17,21:16:05,21:34:24,NA,incomplete,106,number,0,1,left,Red_Circle_Grid_4.jpg,Green_Plus_Dots_4.jpg,Blue_Star_Grid_1.jpg,left,1201.365000102669,true,low,false
b8LgKu7p,3atyli1pswfm29bow6spg463876ojo,3t3iwe1xga0lo8i3ef3zwzk4yestqv,b8LgKu7p,2020-0188,2020-11-17,21:16:05,21:34:24,NA,incomplete,107,number,0,1,left,Purple_Circle_Stripes_3.jpg,Blue_Triangle_Chess_3.jpg,Green_Plus_Stripes_1.jpg,left,707.5249999761581,true,low,false
b8LgKu7p,3atyli1pswfm29bow6spg463876ojo,3t3iwe1xga0lo8i3ef3zwzk4yestqv,b8LgKu7p,2020-0188,2020-11-17,21:16:05,21:34:24,NA,incomplete,108,number,0,0,right,Purple_Triangle_Dots_3.jpg,Green_Star_Dots_4.jpg,Blue_Circle_Stripes_3.jpg,right,558.6550000589341,true,low,false
b8LgKu7p,3atyli1pswfm29bow6spg463876ojo,3t3iwe1xga0lo8i3ef3zwzk4yestqv,b8LgKu7p,2020-0188,2020-11-17,21:16:05,21:34:24,NA,incomplete,109,number,0,1,right,Purple_Plus_Grid_4.jpg,Green_Triangle_Grid_3.jpg,Blue_Star_Stripes_4.jpg,right,1065.0299999397248,true,low,false
b8LgKu7p,3atyli1pswfm29bow6spg463876ojo,3t3iwe1xga0lo8i3ef3zwzk4yestqv,b8LgKu7p,2020-0188,2020-11-17,21:16:05,21:34:24,NA,incomplete,110,filling,1,0,left,Blue_Triangle_Chess_1.jpg,Green_Star_Chess_3.jpg,Red_Plus_Grid_1.jpg,right,603.0749999918044,false,low,false
b8LgKu7p,3atyli1pswfm29bow6spg463876ojo,3t3iwe1xga0lo8i3ef3zwzk4yestqv,b8LgKu7p,2020-0188,2020-11-17,21:16:05,21:34:24,NA,incomplete,111,filling,1,1,left,Blue_Circle_Grid_4.jpg,Red_Triangle_Grid_2.jpg,Green_Star_Stripes_4.jpg,right,686.9249999290332,false,low,false
b8LgKu7p,3atyli1pswfm29bow6spg463876ojo,3t3iwe1xga0lo8i3ef3zwzk4yestqv,b8LgKu7p,2020-0188,2020-11-17,21:16:05,21:34:24,NA,incomplete,112,filling,1,1,right,Green_Circle_Stripes_4.jpg,Purple_Star_Dots_4.jpg,Red_Plus_Stripes_1.jpg,left,717.5300000235438,false,low,false
b8LgKu7p,3atyli1pswfm29bow6spg463876ojo,3t3iwe1xga0lo8i3ef3zwzk4yestqv,b8LgKu7p,2020-0188,2020-11-17,21:16:05,21:34:24,NA,incomplete,113,filling,1,1,left,Green_Star_Grid_3.jpg,Blue_Plus_Grid_1.jpg,Purple_Triangle_Dots_3.jpg,left,900.0249999808148,true,low,false
b8LgKu7p,3atyli1pswfm29bow6spg463876ojo,3t3iwe1xga0lo8i3ef3zwzk4yestqv,b8LgKu7p,2020-0188,2020-11-17,21:16:05,21:34:24,NA,incomplete,114,filling,1,1,right,Blue_Circle_Chess_4.jpg,Purple_Plus_Grid_4.jpg,Red_Star_Chess_3.jpg,right,906.3800000585616,true,low,false
b8LgKu7p,3atyli1pswfm29bow6spg463876ojo,3t3iwe1xga0lo8i3ef3zwzk4yestqv,b8LgKu7p,2020-0188,2020-11-17,21:16:05,21:34:24,NA,incomplete,115,filling,1,0,left,Red_Triangle_Stripes_1.jpg,Green_Star_Stripes_2.jpg,Purple_Circle_Grid_1.jpg,left,975.0099999364465,true,low,false
b8LgKu7p,3atyli1pswfm29bow6spg463876ojo,3t3iwe1xga0lo8i3ef3zwzk4yestqv,b8LgKu7p,2020-0188,2020-11-17,21:16:05,21:34:24,NA,incomplete,116,filling,1,1,left,Purple_Star_Grid_3.jpg,Green_Circle_Grid_2.jpg,Red_Plus_Chess_3.jpg,left,903.7050000624731,true,low,false
b8LgKu7p,3atyli1pswfm29bow6spg463876ojo,3t3iwe1xga0lo8i3ef3zwzk4yestqv,b8LgKu7p,2020-0188,2020-11-17,21:16:05,21:34:24,NA,incomplete,117,filling,1,0,right,Purple_Circle_Stripes_2.jpg,Red_Plus_Grid_2.jpg,Green_Star_Stripes_1.jpg,left,728.2600000035018,false,low,false
b8LgKu7p,3atyli1pswfm29bow6spg463876ojo,3t3iwe1xga0lo8i3ef3zwzk4yestqv,b8LgKu7p,2020-0188,2020-11-17,21:16:05,21:34:24,NA,incomplete,118,filling,1,1,right,Purple_Plus_Dots_1.jpg,Blue_Circle_Stripes_1.jpg,Green_Triangle_Dots_2.jpg,right,902.0999999484047,true,low,false
b8LgKu7p,3atyli1pswfm29bow6spg463876ojo,3t3iwe1xga0lo8i3ef3zwzk4yestqv,b8LgKu7p,2020-0188,2020-11-17,21:16:05,21:34:24,NA,incomplete,119,filling,1,1,right,Blue_Circle_Grid_4.jpg,Green_Triangle_Stripes_4.jpg,Purple_Plus_Grid_1.jpg,right,1043.4550000354648,true,low,false
b8LgKu7p,3atyli1pswfm29bow6spg463876ojo,3t3iwe1xga0lo8i3ef3zwzk4yestqv,b8LgKu7p,2020-0188,2020-11-17,21:16:05,21:34:24,NA,incomplete,120,gender,2,1,left,C_M_08.jpg,A_M_02.jpg,C_F_03.jpg,NA,NA,NA,low,false
b8LgKu7p,3atyli1pswfm29bow6spg463876ojo,3t3iwe1xga0lo8i3ef3zwzk4yestqv,b8LgKu7p,2020-0188,2020-11-17,21:16:05,21:34:24,NA,incomplete,121,gender,2,1,left,C_M_03.jpg,A_M_16.jpg,C_F_07.jpg,left,1120.3749999403954,true,low,false
b8LgKu7p,3atyli1pswfm29bow6spg463876ojo,3t3iwe1xga0lo8i3ef3zwzk4yestqv,b8LgKu7p,2020-0188,2020-11-17,21:16:05,21:34:24,NA,incomplete,122,gender,2,1,right,C_M_04.jpg,C_F_01.jpg,A_M_09.jpg,right,1047.4349999567494,true,low,false
b8LgKu7p,3atyli1pswfm29bow6spg463876ojo,3t3iwe1xga0lo8i3ef3zwzk4yestqv,b8LgKu7p,2020-0188,2020-11-17,21:16:05,21:34:24,NA,incomplete,123,gender,2,1,right,A_F_04.jpg,A_M_06.jpg,C_F_08.jpg,right,1085.1000000257045,true,low,false
b8LgKu7p,3atyli1pswfm29bow6spg463876ojo,3t3iwe1xga0lo8i3ef3zwzk4yestqv,b8LgKu7p,2020-0188,2020-11-17,21:16:05,21:34:24,NA,incomplete,124,gender,2,1,right,A_F_09.jpg,A_M_10.jpg,C_F_13.jpg,right,1070.2600000659004,true,low,false
b8LgKu7p,3atyli1pswfm29bow6spg463876ojo,3t3iwe1xga0lo8i3ef3zwzk4yestqv,b8LgKu7p,2020-0188,2020-11-17,21:16:05,21:34:24,NA,incomplete,125,gender,2,0,left,C_F_02.jpg,A_F_12.jpg,C_M_11.jpg,right,1297.8649999713525,false,low,false
b8LgKu7p,3atyli1pswfm29bow6spg463876ojo,3t3iwe1xga0lo8i3ef3zwzk4yestqv,b8LgKu7p,2020-0188,2020-11-17,21:16:05,21:34:24,NA,incomplete,126,gender,2,1,left,A_F_10.jpg,C_F_13.jpg,A_M_14.jpg,left,1163.4000000776723,true,low,false
b8LgKu7p,3atyli1pswfm29bow6spg463876ojo,3t3iwe1xga0lo8i3ef3zwzk4yestqv,b8LgKu7p,2020-0188,2020-11-17,21:16:05,21:34:24,NA,incomplete,127,gender,2,1,right,A_M_15.jpg,A_F_12.jpg,C_M_08.jpg,left,1020.699999993667,false,low,false
b8LgKu7p,3atyli1pswfm29bow6spg463876ojo,3t3iwe1xga0lo8i3ef3zwzk4yestqv,b8LgKu7p,2020-0188,2020-11-17,21:16:05,21:34:24,NA,incomplete,128,gender,2,0,left,C_F_07.jpg,A_F_12.jpg,C_M_08.jpg,left,1128.1050000106916,true,low,false
b8LgKu7p,3atyli1pswfm29bow6spg463876ojo,3t3iwe1xga0lo8i3ef3zwzk4yestqv,b8LgKu7p,2020-0188,2020-11-17,21:16:05,21:34:24,NA,incomplete,129,gender,2,1,right,A_M_07.jpg,A_F_02.jpg,C_M_05.jpg,right,921.680000028573,true,low,false
b8LgKu7p,3atyli1pswfm29bow6spg463876ojo,3t3iwe1xga0lo8i3ef3zwzk4yestqv,b8LgKu7p,2020-0188,2020-11-17,21:16:05,21:34:24,NA,incomplete,130,gender,2,0,left,A_M_07.jpg,C_M_06.jpg,A_F_09.jpg,right,1196.955000050366,false,low,false
b8LgKu7p,3atyli1pswfm29bow6spg463876ojo,3t3iwe1xga0lo8i3ef3zwzk4yestqv,b8LgKu7p,2020-0188,2020-11-17,21:16:05,21:34:24,NA,incomplete,131,gender,2,1,left,A_F_06.jpg,C_F_01.jpg,A_M_08.jpg,right,950.8850000565872,false,low,false
b8LgKu7p,3atyli1pswfm29bow6spg463876ojo,3t3iwe1xga0lo8i3ef3zwzk4yestqv,b8LgKu7p,2020-0188,2020-11-17,21:16:05,21:34:24,NA,incomplete,132,gender,2,1,left,A_F_03.jpg,C_F_11.jpg,A_M_06.jpg,right,1245.8750000223517,false,low,false
b8LgKu7p,3atyli1pswfm29bow6spg463876ojo,3t3iwe1xga0lo8i3ef3zwzk4yestqv,b8LgKu7p,2020-0188,2020-11-17,21:16:05,21:34:24,NA,incomplete,133,gender,2,1,left,C_M_08.jpg,A_M_11.jpg,C_F_03.jpg,left,893.5350000392646,true,low,false
b8LgKu7p,3atyli1pswfm29bow6spg463876ojo,3t3iwe1xga0lo8i3ef3zwzk4yestqv,b8LgKu7p,2020-0188,2020-11-17,21:16:05,21:34:24,NA,incomplete,134,gender,2,1,right,C_F_15.jpg,C_M_12.jpg,A_F_08.jpg,right,904.4049999210984,true,low,false
b8LgKu7p,3atyli1pswfm29bow6spg463876ojo,3t3iwe1xga0lo8i3ef3zwzk4yestqv,b8LgKu7p,2020-0188,2020-11-17,21:16:05,21:34:24,NA,incomplete,135,gender,2,1,right,C_M_05.jpg,C_F_08.jpg,A_M_07.jpg,right,812.320000026375,true,low,false
b8LgKu7p,3atyli1pswfm29bow6spg463876ojo,3t3iwe1xga0lo8i3ef3zwzk4yestqv,b8LgKu7p,2020-0188,2020-11-17,21:16:05,21:34:24,NA,incomplete,136,gender,2,1,right,A_M_11.jpg,A_F_07.jpg,C_M_16.jpg,right,936.7499999934807,true,low,false
b8LgKu7p,3atyli1pswfm29bow6spg463876ojo,3t3iwe1xga0lo8i3ef3zwzk4yestqv,b8LgKu7p,2020-0188,2020-11-17,21:16:05,21:34:24,NA,incomplete,137,gender,2,1,left,A_M_14.jpg,C_M_07.jpg,A_F_02.jpg,left,863.454999984242,true,low,false
b8LgKu7p,3atyli1pswfm29bow6spg463876ojo,3t3iwe1xga0lo8i3ef3zwzk4yestqv,b8LgKu7p,2020-0188,2020-11-17,21:16:05,21:34:24,NA,incomplete,138,gender,2,1,right,A_M_12.jpg,A_F_09.jpg,C_M_05.jpg,right,783.7199999485165,true,low,false
b8LgKu7p,3atyli1pswfm29bow6spg463876ojo,3t3iwe1xga0lo8i3ef3zwzk4yestqv,b8LgKu7p,2020-0188,2020-11-17,21:16:05,21:34:24,NA,incomplete,139,gender,2,1,right,A_M_15.jpg,A_F_13.jpg,C_M_06.jpg,right,677.7350000338629,true,low,false
b8LgKu7p,3atyli1pswfm29bow6spg463876ojo,3t3iwe1xga0lo8i3ef3zwzk4yestqv,b8LgKu7p,2020-0188,2020-11-17,21:16:05,21:34:24,NA,incomplete,140,race,3,1,right,C_F_12.jpg,A_F_11.jpg,C_M_05.jpg,left,1031.0949999839067,false,low,false
b8LgKu7p,3atyli1pswfm29bow6spg463876ojo,3t3iwe1xga0lo8i3ef3zwzk4yestqv,b8LgKu7p,2020-0188,2020-11-17,21:16:05,21:34:24,NA,incomplete,141,race,3,0,right,C_F_03.jpg,A_F_09.jpg,C_M_15.jpg,left,903.5500000463799,false,low,false
b8LgKu7p,3atyli1pswfm29bow6spg463876ojo,3t3iwe1xga0lo8i3ef3zwzk4yestqv,b8LgKu7p,2020-0188,2020-11-17,21:16:05,21:34:24,NA,incomplete,142,race,3,1,right,C_M_07.jpg,A_M_03.jpg,C_F_15.jpg,left,916.3949999492615,false,low,false
b8LgKu7p,3atyli1pswfm29bow6spg463876ojo,3t3iwe1xga0lo8i3ef3zwzk4yestqv,b8LgKu7p,2020-0188,2020-11-17,21:16:05,21:34:24,NA,incomplete,143,race,3,0,right,C_F_11.jpg,A_F_08.jpg,C_M_16.jpg,left,1153.385000070557,false,low,false
b8LgKu7p,3atyli1pswfm29bow6spg463876ojo,3t3iwe1xga0lo8i3ef3zwzk4yestqv,b8LgKu7p,2020-0188,2020-11-17,21:16:05,21:34:24,NA,incomplete,144,race,3,1,right,C_F_16.jpg,A_F_12.jpg,C_M_08.jpg,left,919.6849999716505,false,low,false
b8LgKu7p,3atyli1pswfm29bow6spg463876ojo,3t3iwe1xga0lo8i3ef3zwzk4yestqv,b8LgKu7p,2020-0188,2020-11-17,21:16:05,21:34:24,NA,incomplete,145,race,3,1,left,A_M_01.jpg,A_F_14.jpg,C_M_02.jpg,right,806.4399999566376,false,low,false
b8LgKu7p,3atyli1pswfm29bow6spg463876ojo,3t3iwe1xga0lo8i3ef3zwzk4yestqv,b8LgKu7p,2020-0188,2020-11-17,21:16:05,21:34:24,NA,incomplete,146,race,3,1,left,C_M_10.jpg,C_F_02.jpg,A_M_04.jpg,right,1371.419999981299,false,low,false
b8LgKu7p,3atyli1pswfm29bow6spg463876ojo,3t3iwe1xga0lo8i3ef3zwzk4yestqv,b8LgKu7p,2020-0188,2020-11-17,21:16:05,21:34:24,NA,incomplete,147,race,3,1,left,C_F_15.jpg,C_M_11.jpg,A_F_09.jpg,right,1417.8150000516325,false,low,false
b8LgKu7p,3atyli1pswfm29bow6spg463876ojo,3t3iwe1xga0lo8i3ef3zwzk4yestqv,b8LgKu7p,2020-0188,2020-11-17,21:16:05,21:34:24,NA,incomplete,148,race,3,1,left,A_F_02.jpg,A_M_12.jpg,C_F_03.jpg,left,943.4950000140816,true,low,false
b8LgKu7p,3atyli1pswfm29bow6spg463876ojo,3t3iwe1xga0lo8i3ef3zwzk4yestqv,b8LgKu7p,2020-0188,2020-11-17,21:16:05,21:34:24,NA,incomplete,149,race,3,0,left,C_M_15.jpg,C_F_05.jpg,A_M_11.jpg,left,1282.7500000130385,true,low,false
b8LgKu7p,3atyli1pswfm29bow6spg463876ojo,3t3iwe1xga0lo8i3ef3zwzk4yestqv,b8LgKu7p,2020-0188,2020-11-17,21:16:05,21:34:24,NA,incomplete,150,race,3,1,left,C_M_06.jpg,C_F_14.jpg,A_M_07.jpg,left,1092.1899999957532,true,low,false
b8LgKu7p,3atyli1pswfm29bow6spg463876ojo,3t3iwe1xga0lo8i3ef3zwzk4yestqv,b8LgKu7p,2020-0188,2020-11-17,21:16:05,21:34:24,NA,incomplete,151,race,3,0,left,C_M_10.jpg,C_F_07.jpg,A_M_04.jpg,left,955.6550000561401,true,low,false
b8LgKu7p,3atyli1pswfm29bow6spg463876ojo,3t3iwe1xga0lo8i3ef3zwzk4yestqv,b8LgKu7p,2020-0188,2020-11-17,21:16:05,21:34:24,NA,incomplete,152,race,3,1,right,A_F_07.jpg,C_F_05.jpg,A_M_02.jpg,right,1126.0699999984354,true,low,false
b8LgKu7p,3atyli1pswfm29bow6spg463876ojo,3t3iwe1xga0lo8i3ef3zwzk4yestqv,b8LgKu7p,2020-0188,2020-11-17,21:16:05,21:34:24,NA,incomplete,153,race,3,1,right,C_F_05.jpg,A_F_03.jpg,C_M_07.jpg,right,1090.6000001123175,true,low,false
b8LgKu7p,3atyli1pswfm29bow6spg463876ojo,3t3iwe1xga0lo8i3ef3zwzk4yestqv,b8LgKu7p,2020-0188,2020-11-17,21:16:05,21:34:24,NA,incomplete,154,race,3,1,right,A_M_15.jpg,C_M_01.jpg,A_F_10.jpg,right,870.8699999842793,true,low,false
b8LgKu7p,3atyli1pswfm29bow6spg463876ojo,3t3iwe1xga0lo8i3ef3zwzk4yestqv,b8LgKu7p,2020-0188,2020-11-17,21:16:05,21:34:24,NA,incomplete,155,race,3,0,right,C_M_06.jpg,A_M_09.jpg,C_F_02.jpg,right,734.7099999897182,true,low,false
b8LgKu7p,3atyli1pswfm29bow6spg463876ojo,3t3iwe1xga0lo8i3ef3zwzk4yestqv,b8LgKu7p,2020-0188,2020-11-17,21:16:05,21:34:24,NA,incomplete,156,race,3,1,right,A_M_15.jpg,C_M_14.jpg,A_F_11.jpg,right,1162.5699999276549,true,low,false
b8LgKu7p,3atyli1pswfm29bow6spg463876ojo,3t3iwe1xga0lo8i3ef3zwzk4yestqv,b8LgKu7p,2020-0188,2020-11-17,21:16:05,21:34:24,NA,incomplete,157,race,3,1,right,A_M_16.jpg,C_M_03.jpg,A_F_09.jpg,right,706.5149999689311,true,low,false
b8LgKu7p,3atyli1pswfm29bow6spg463876ojo,3t3iwe1xga0lo8i3ef3zwzk4yestqv,b8LgKu7p,2020-0188,2020-11-17,21:16:05,21:34:24,NA,incomplete,158,race,3,1,left,C_M_07.jpg,C_F_13.jpg,A_M_15.jpg,left,704.7549999551848,true,low,false
b8LgKu7p,3atyli1pswfm29bow6spg463876ojo,3t3iwe1xga0lo8i3ef3zwzk4yestqv,b8LgKu7p,2020-0188,2020-11-17,21:16:05,21:34:24,NA,incomplete,159,race,3,1,left,A_F_14.jpg,A_M_09.jpg,C_F_15.jpg,left,933.6800000164658,true,low,false
b8LgKu7p,3atyli1pswfm29bow6spg463876ojo,3t3iwe1xga0lo8i3ef3zwzk4yestqv,b8LgKu7p,2020-0188,2020-11-17,21:16:05,21:34:24,NA,incomplete,160,gender,2,0,left,A_M_05.jpg,C_M_06.jpg,A_F_02.jpg,right,966.149999992922,false,low,false
b8LgKu7p,3atyli1pswfm29bow6spg463876ojo,3t3iwe1xga0lo8i3ef3zwzk4yestqv,b8LgKu7p,2020-0188,2020-11-17,21:16:05,21:34:24,NA,incomplete,161,gender,2,1,right,C_M_13.jpg,C_F_16.jpg,A_M_08.jpg,left,1106.6049999790266,false,low,false
b8LgKu7p,3atyli1pswfm29bow6spg463876ojo,3t3iwe1xga0lo8i3ef3zwzk4yestqv,b8LgKu7p,2020-0188,2020-11-17,21:16:05,21:34:24,NA,incomplete,162,gender,2,1,right,A_F_15.jpg,A_M_09.jpg,C_F_06.jpg,left,825.4099999321625,false,low,false
b8LgKu7p,3atyli1pswfm29bow6spg463876ojo,3t3iwe1xga0lo8i3ef3zwzk4yestqv,b8LgKu7p,2020-0188,2020-11-17,21:16:05,21:34:24,NA,incomplete,163,gender,2,1,right,C_M_12.jpg,C_F_14.jpg,A_M_09.jpg,right,990.7999999122694,true,low,false
b8LgKu7p,3atyli1pswfm29bow6spg463876ojo,3t3iwe1xga0lo8i3ef3zwzk4yestqv,b8LgKu7p,2020-0188,2020-11-17,21:16:05,21:34:24,NA,incomplete,164,gender,2,0,left,C_F_12.jpg,A_F_15.jpg,C_M_13.jpg,left,745.6799999345094,true,low,false
b8LgKu7p,3atyli1pswfm29bow6spg463876ojo,3t3iwe1xga0lo8i3ef3zwzk4yestqv,b8LgKu7p,2020-0188,2020-11-17,21:16:05,21:34:24,NA,incomplete,165,gender,2,1,right,C_F_12.jpg,C_M_07.jpg,A_F_03.jpg,right,853.4600000130013,true,low,false
b8LgKu7p,3atyli1pswfm29bow6spg463876ojo,3t3iwe1xga0lo8i3ef3zwzk4yestqv,b8LgKu7p,2020-0188,2020-11-17,21:16:05,21:34:24,NA,incomplete,166,gender,2,0,right,C_M_10.jpg,C_F_03.jpg,A_M_01.jpg,left,1071.280000032857,false,low,false
b8LgKu7p,3atyli1pswfm29bow6spg463876ojo,3t3iwe1xga0lo8i3ef3zwzk4yestqv,b8LgKu7p,2020-0188,2020-11-17,21:16:05,21:34:24,NA,incomplete,167,gender,2,1,left,C_M_05.jpg,A_M_10.jpg,C_F_08.jpg,right,887.5300000654534,false,low,false
b8LgKu7p,3atyli1pswfm29bow6spg463876ojo,3t3iwe1xga0lo8i3ef3zwzk4yestqv,b8LgKu7p,2020-0188,2020-11-17,21:16:05,21:34:24,NA,incomplete,168,gender,2,1,left,A_F_15.jpg,C_F_13.jpg,A_M_09.jpg,left,829.4199999654666,true,low,false
b8LgKu7p,3atyli1pswfm29bow6spg463876ojo,3t3iwe1xga0lo8i3ef3zwzk4yestqv,b8LgKu7p,2020-0188,2020-11-17,21:16:05,21:34:24,NA,incomplete,169,gender,2,1,right,A_M_08.jpg,A_F_02.jpg,C_M_13.jpg,right,952.4049999890849,true,low,false
b8LgKu7p,3atyli1pswfm29bow6spg463876ojo,3t3iwe1xga0lo8i3ef3zwzk4yestqv,b8LgKu7p,2020-0188,2020-11-17,21:16:05,21:34:24,NA,incomplete,170,gender,2,1,left,C_M_11.jpg,A_M_04.jpg,C_F_16.jpg,left,872.6349999196827,true,low,false
b8LgKu7p,3atyli1pswfm29bow6spg463876ojo,3t3iwe1xga0lo8i3ef3zwzk4yestqv,b8LgKu7p,2020-0188,2020-11-17,21:16:05,21:34:24,NA,incomplete,171,gender,2,1,right,A_F_10.jpg,A_M_01.jpg,C_F_06.jpg,right,903.4850000170991,true,low,false
b8LgKu7p,3atyli1pswfm29bow6spg463876ojo,3t3iwe1xga0lo8i3ef3zwzk4yestqv,b8LgKu7p,2020-0188,2020-11-17,21:16:05,21:34:24,NA,incomplete,172,gender,2,1,left,A_F_12.jpg,C_F_15.jpg,A_M_04.jpg,left,800.9349999483675,true,low,false
b8LgKu7p,3atyli1pswfm29bow6spg463876ojo,3t3iwe1xga0lo8i3ef3zwzk4yestqv,b8LgKu7p,2020-0188,2020-11-17,21:16:05,21:34:24,NA,incomplete,173,gender,2,0,left,C_M_10.jpg,A_M_07.jpg,C_F_03.jpg,left,1087.390000000596,true,low,false
b8LgKu7p,3atyli1pswfm29bow6spg463876ojo,3t3iwe1xga0lo8i3ef3zwzk4yestqv,b8LgKu7p,2020-0188,2020-11-17,21:16:05,21:34:24,NA,incomplete,174,gender,2,1,right,C_F_02.jpg,C_M_12.jpg,A_F_04.jpg,left,918.5300000244752,false,low,false
b8LgKu7p,3atyli1pswfm29bow6spg463876ojo,3t3iwe1xga0lo8i3ef3zwzk4yestqv,b8LgKu7p,2020-0188,2020-11-17,21:16:05,21:34:24,NA,incomplete,175,gender,2,1,left,A_M_01.jpg,C_M_12.jpg,A_F_09.jpg,left,1251.549999928102,true,low,false
b8LgKu7p,3atyli1pswfm29bow6spg463876ojo,3t3iwe1xga0lo8i3ef3zwzk4yestqv,b8LgKu7p,2020-0188,2020-11-17,21:16:05,21:34:24,NA,incomplete,176,gender,2,1,left,A_M_06.jpg,C_M_16.jpg,A_F_12.jpg,left,649.9900000635535,true,low,false
b8LgKu7p,3atyli1pswfm29bow6spg463876ojo,3t3iwe1xga0lo8i3ef3zwzk4yestqv,b8LgKu7p,2020-0188,2020-11-17,21:16:05,21:34:24,NA,incomplete,177,gender,2,1,left,C_M_04.jpg,A_M_12.jpg,C_F_16.jpg,left,668.7150000361726,true,low,false
b8LgKu7p,3atyli1pswfm29bow6spg463876ojo,3t3iwe1xga0lo8i3ef3zwzk4yestqv,b8LgKu7p,2020-0188,2020-11-17,21:16:05,21:34:24,NA,incomplete,178,gender,2,1,right,A_M_03.jpg,A_F_06.jpg,C_M_01.jpg,right,986.975000007078,true,low,false
b8LgKu7p,3atyli1pswfm29bow6spg463876ojo,3t3iwe1xga0lo8i3ef3zwzk4yestqv,b8LgKu7p,2020-0188,2020-11-17,21:16:05,21:34:24,NA,incomplete,179,gender,2,1,left,C_M_04.jpg,A_M_08.jpg,C_F_07.jpg,left,740.4949999181554,true,low,false
b8LgKu7p,3atyli1pswfm29bow6spg463876ojo,3t3iwe1xga0lo8i3ef3zwzk4yestqv,b8LgKu7p,2020-0188,2020-11-17,21:16:05,21:34:24,NA,incomplete,180,race,3,1,right,A_F_12.jpg,C_F_02.jpg,A_M_10.jpg,left,715.7250000163913,false,low,false
b8LgKu7p,3atyli1pswfm29bow6spg463876ojo,3t3iwe1xga0lo8i3ef3zwzk4yestqv,b8LgKu7p,2020-0188,2020-11-17,21:16:05,21:34:24,NA,incomplete,181,race,3,1,left,C_F_12.jpg,C_M_14.jpg,A_F_06.jpg,right,898.0349999619648,false,low,false
b8LgKu7p,3atyli1pswfm29bow6spg463876ojo,3t3iwe1xga0lo8i3ef3zwzk4yestqv,b8LgKu7p,2020-0188,2020-11-17,21:16:05,21:34:24,NA,incomplete,182,race,3,1,right,C_F_16.jpg,A_F_14.jpg,C_M_12.jpg,right,900.4499999573454,true,low,false
b8LgKu7p,3atyli1pswfm29bow6spg463876ojo,3t3iwe1xga0lo8i3ef3zwzk4yestqv,b8LgKu7p,2020-0188,2020-11-17,21:16:05,21:34:24,NA,incomplete,183,race,3,1,left,A_M_04.jpg,A_F_01.jpg,C_M_09.jpg,left,757.5850000139326,true,low,false
b8LgKu7p,3atyli1pswfm29bow6spg463876ojo,3t3iwe1xga0lo8i3ef3zwzk4yestqv,b8LgKu7p,2020-0188,2020-11-17,21:16:05,21:34:24,NA,incomplete,184,race,3,1,left,C_F_09.jpg,C_M_06.jpg,A_F_07.jpg,left,863.2099999813363,true,low,false
b8LgKu7p,3atyli1pswfm29bow6spg463876ojo,3t3iwe1xga0lo8i3ef3zwzk4yestqv,b8LgKu7p,2020-0188,2020-11-17,21:16:05,21:34:24,NA,incomplete,185,race,3,1,left,C_M_01.jpg,C_F_15.jpg,A_M_12.jpg,left,828.514999942854,true,low,false
b8LgKu7p,3atyli1pswfm29bow6spg463876ojo,3t3iwe1xga0lo8i3ef3zwzk4yestqv,b8LgKu7p,2020-0188,2020-11-17,21:16:05,21:34:24,NA,incomplete,186,race,3,1,left,A_M_09.jpg,A_F_02.jpg,C_M_14.jpg,left,1038.6500000022352,true,low,false
b8LgKu7p,3atyli1pswfm29bow6spg463876ojo,3t3iwe1xga0lo8i3ef3zwzk4yestqv,b8LgKu7p,2020-0188,2020-11-17,21:16:05,21:34:24,NA,incomplete,187,race,3,0,left,C_M_13.jpg,C_F_10.jpg,A_M_03.jpg,left,849.6049999957904,true,low,false
b8LgKu7p,3atyli1pswfm29bow6spg463876ojo,3t3iwe1xga0lo8i3ef3zwzk4yestqv,b8LgKu7p,2020-0188,2020-11-17,21:16:05,21:34:24,NA,incomplete,188,race,3,1,left,A_F_05.jpg,A_M_16.jpg,C_F_15.jpg,left,754.2149999644607,true,low,false
b8LgKu7p,3atyli1pswfm29bow6spg463876ojo,3t3iwe1xga0lo8i3ef3zwzk4yestqv,b8LgKu7p,2020-0188,2020-11-17,21:16:05,21:34:24,NA,incomplete,189,race,3,1,right,C_M_09.jpg,A_M_10.jpg,C_F_12.jpg,left,708.7449999526143,false,low,false
b8LgKu7p,3atyli1pswfm29bow6spg463876ojo,3t3iwe1xga0lo8i3ef3zwzk4yestqv,b8LgKu7p,2020-0188,2020-11-17,21:16:05,21:34:24,NA,incomplete,190,race,3,1,left,C_F_07.jpg,C_M_13.jpg,A_F_05.jpg,left,889.519999967888,true,low,false
b8LgKu7p,3atyli1pswfm29bow6spg463876ojo,3t3iwe1xga0lo8i3ef3zwzk4yestqv,b8LgKu7p,2020-0188,2020-11-17,21:16:05,21:34:24,NA,incomplete,191,race,3,1,right,A_F_06.jpg,C_F_16.jpg,A_M_13.jpg,right,890.3799999970943,true,low,false
b8LgKu7p,3atyli1pswfm29bow6spg463876ojo,3t3iwe1xga0lo8i3ef3zwzk4yestqv,b8LgKu7p,2020-0188,2020-11-17,21:16:05,21:34:24,NA,incomplete,192,race,3,1,right,C_F_02.jpg,A_F_13.jpg,C_M_11.jpg,right,752.6099999668077,true,low,false
b8LgKu7p,3atyli1pswfm29bow6spg463876ojo,3t3iwe1xga0lo8i3ef3zwzk4yestqv,b8LgKu7p,2020-0188,2020-11-17,21:16:05,21:34:24,NA,incomplete,193,race,3,0,left,A_M_02.jpg,A_F_08.jpg,C_M_15.jpg,left,1070.479999994859,true,low,false
b8LgKu7p,3atyli1pswfm29bow6spg463876ojo,3t3iwe1xga0lo8i3ef3zwzk4yestqv,b8LgKu7p,2020-0188,2020-11-17,21:16:05,21:34:24,NA,incomplete,194,race,3,1,left,C_M_05.jpg,C_F_15.jpg,A_M_03.jpg,left,902.8849999886006,true,low,false
b8LgKu7p,3atyli1pswfm29bow6spg463876ojo,3t3iwe1xga0lo8i3ef3zwzk4yestqv,b8LgKu7p,2020-0188,2020-11-17,21:16:05,21:34:24,NA,incomplete,195,race,3,1,right,C_M_13.jpg,A_M_02.jpg,C_F_06.jpg,right,967.3750000074506,true,low,false
b8LgKu7p,3atyli1pswfm29bow6spg463876ojo,3t3iwe1xga0lo8i3ef3zwzk4yestqv,b8LgKu7p,2020-0188,2020-11-17,21:16:05,21:34:24,NA,incomplete,196,race,3,1,left,C_F_07.jpg,C_M_01.jpg,A_F_16.jpg,left,932.8350001014769,true,low,false
b8LgKu7p,3atyli1pswfm29bow6spg463876ojo,3t3iwe1xga0lo8i3ef3zwzk4yestqv,b8LgKu7p,2020-0188,2020-11-17,21:16:05,21:34:24,NA,incomplete,197,race,3,1,left,C_M_12.jpg,C_F_10.jpg,A_M_03.jpg,left,727.7349999640137,true,low,false
b8LgKu7p,3atyli1pswfm29bow6spg463876ojo,3t3iwe1xga0lo8i3ef3zwzk4yestqv,b8LgKu7p,2020-0188,2020-11-17,21:16:05,21:34:24,NA,incomplete,198,race,3,0,left,C_M_11.jpg,C_F_13.jpg,A_M_03.jpg,left,705.2899999544024,true,low,false
b8LgKu7p,3atyli1pswfm29bow6spg463876ojo,3t3iwe1xga0lo8i3ef3zwzk4yestqv,b8LgKu7p,2020-0188,2020-11-17,21:16:05,21:34:24,NA,incomplete,199,race,3,1,left,C_F_13.jpg,C_M_07.jpg,A_F_11.jpg,left,738.1400000303984,true,low,false
b8LgKu7p,3atyli1pswfm29bow6spg463876ojo,3t3iwe1xga0lo8i3ef3zwzk4yestqv,b8LgKu7p,2020-0188,2020-11-17,21:16:05,21:34:24,NA,incomplete,200,gender,2,1,left,A_M_02.jpg,C_M_06.jpg,A_F_05.jpg,right,906.4800000051036,false,low,false
b8LgKu7p,3atyli1pswfm29bow6spg463876ojo,3t3iwe1xga0lo8i3ef3zwzk4yestqv,b8LgKu7p,2020-0188,2020-11-17,21:16:05,21:34:24,NA,incomplete,201,gender,2,1,right,C_F_08.jpg,C_M_02.jpg,A_F_03.jpg,left,1050.2550000092015,false,low,false
b8LgKu7p,3atyli1pswfm29bow6spg463876ojo,3t3iwe1xga0lo8i3ef3zwzk4yestqv,b8LgKu7p,2020-0188,2020-11-17,21:16:05,21:34:24,NA,incomplete,202,gender,2,1,left,C_M_05.jpg,A_M_04.jpg,C_F_16.jpg,left,797.5249999435619,true,low,false
b8LgKu7p,3atyli1pswfm29bow6spg463876ojo,3t3iwe1xga0lo8i3ef3zwzk4yestqv,b8LgKu7p,2020-0188,2020-11-17,21:16:05,21:34:24,NA,incomplete,203,gender,2,1,right,A_M_10.jpg,A_F_11.jpg,C_M_13.jpg,right,827.6199999963865,true,low,false
b8LgKu7p,3atyli1pswfm29bow6spg463876ojo,3t3iwe1xga0lo8i3ef3zwzk4yestqv,b8LgKu7p,2020-0188,2020-11-17,21:16:05,21:34:24,NA,incomplete,204,gender,2,1,left,A_M_11.jpg,C_M_04.jpg,A_F_06.jpg,left,802.9749999986961,true,low,false
b8LgKu7p,3atyli1pswfm29bow6spg463876ojo,3t3iwe1xga0lo8i3ef3zwzk4yestqv,b8LgKu7p,2020-0188,2020-11-17,21:16:05,21:34:24,NA,incomplete,205,gender,2,1,left,C_F_12.jpg,A_F_02.jpg,C_M_07.jpg,left,782.7100000577047,true,low,false
b8LgKu7p,3atyli1pswfm29bow6spg463876ojo,3t3iwe1xga0lo8i3ef3zwzk4yestqv,b8LgKu7p,2020-0188,2020-11-17,21:16:05,21:34:24,NA,incomplete,206,gender,2,0,right,C_F_01.jpg,C_M_16.jpg,A_F_06.jpg,right,1143.3749999850988,true,low,false
b8LgKu7p,3atyli1pswfm29bow6spg463876ojo,3t3iwe1xga0lo8i3ef3zwzk4yestqv,b8LgKu7p,2020-0188,2020-11-17,21:16:05,21:34:24,NA,incomplete,207,gender,2,1,left,C_M_01.jpg,A_M_13.jpg,C_F_12.jpg,left,1004.2799999937415,true,low,false
b8LgKu7p,3atyli1pswfm29bow6spg463876ojo,3t3iwe1xga0lo8i3ef3zwzk4yestqv,b8LgKu7p,2020-0188,2020-11-17,21:16:05,21:34:24,NA,incomplete,208,gender,2,0,right,C_M_06.jpg,C_F_04.jpg,A_M_10.jpg,right,829.3650000123307,true,low,false
b8LgKu7p,3atyli1pswfm29bow6spg463876ojo,3t3iwe1xga0lo8i3ef3zwzk4yestqv,b8LgKu7p,2020-0188,2020-11-17,21:16:05,21:34:24,NA,incomplete,209,gender,2,1,left,A_F_02.jpg,C_F_05.jpg,A_M_04.jpg,left,696.8449999112636,true,low,false
b8LgKu7p,3atyli1pswfm29bow6spg463876ojo,3t3iwe1xga0lo8i3ef3zwzk4yestqv,b8LgKu7p,2020-0188,2020-11-17,21:16:05,21:34:24,NA,incomplete,210,gender,2,0,right,A_M_02.jpg,A_F_03.jpg,C_M_12.jpg,right,1082.8249999321997,true,low,false
b8LgKu7p,3atyli1pswfm29bow6spg463876ojo,3t3iwe1xga0lo8i3ef3zwzk4yestqv,b8LgKu7p,2020-0188,2020-11-17,21:16:05,21:34:24,NA,incomplete,211,gender,2,1,left,A_F_06.jpg,C_F_16.jpg,A_M_11.jpg,left,731.6850000061095,true,low,false
b8LgKu7p,3atyli1pswfm29bow6spg463876ojo,3t3iwe1xga0lo8i3ef3zwzk4yestqv,b8LgKu7p,2020-0188,2020-11-17,21:16:05,21:34:24,NA,incomplete,212,gender,2,1,right,C_F_11.jpg,C_M_01.jpg,A_F_13.jpg,right,798.2199999969453,true,low,false
b8LgKu7p,3atyli1pswfm29bow6spg463876ojo,3t3iwe1xga0lo8i3ef3zwzk4yestqv,b8LgKu7p,2020-0188,2020-11-17,21:16:05,21:34:24,NA,incomplete,213,gender,2,1,right,C_M_08.jpg,C_F_05.jpg,A_M_13.jpg,right,790.4149999376386,true,low,false
b8LgKu7p,3atyli1pswfm29bow6spg463876ojo,3t3iwe1xga0lo8i3ef3zwzk4yestqv,b8LgKu7p,2020-0188,2020-11-17,21:16:05,21:34:24,NA,incomplete,214,gender,2,1,left,A_M_05.jpg,C_M_09.jpg,A_F_12.jpg,left,742.4999999348074,true,low,false
b8LgKu7p,3atyli1pswfm29bow6spg463876ojo,3t3iwe1xga0lo8i3ef3zwzk4yestqv,b8LgKu7p,2020-0188,2020-11-17,21:16:05,21:34:24,NA,incomplete,215,gender,2,0,left,C_F_08.jpg,A_F_16.jpg,C_M_10.jpg,left,683.9900000486523,true,low,false
b8LgKu7p,3atyli1pswfm29bow6spg463876ojo,3t3iwe1xga0lo8i3ef3zwzk4yestqv,b8LgKu7p,2020-0188,2020-11-17,21:16:05,21:34:24,NA,incomplete,216,gender,2,1,left,A_F_11.jpg,C_F_02.jpg,A_M_14.jpg,left,784.7100000362843,true,low,false
b8LgKu7p,3atyli1pswfm29bow6spg463876ojo,3t3iwe1xga0lo8i3ef3zwzk4yestqv,b8LgKu7p,2020-0188,2020-11-17,21:16:05,21:34:24,NA,incomplete,217,gender,2,1,left,C_F_06.jpg,A_F_14.jpg,C_M_04.jpg,left,676.7199999885634,true,low,false
b8LgKu7p,3atyli1pswfm29bow6spg463876ojo,3t3iwe1xga0lo8i3ef3zwzk4yestqv,b8LgKu7p,2020-0188,2020-11-17,21:16:05,21:34:24,NA,incomplete,218,gender,2,0,right,C_F_07.jpg,C_M_04.jpg,A_F_08.jpg,right,669.9650000082329,true,low,false
b8LgKu7p,3atyli1pswfm29bow6spg463876ojo,3t3iwe1xga0lo8i3ef3zwzk4yestqv,b8LgKu7p,2020-0188,2020-11-17,21:16:05,21:34:24,NA,incomplete,219,gender,2,1,right,A_M_16.jpg,A_F_12.jpg,C_M_10.jpg,right,890.6799999531358,true,low,false
b8LgKu7p,3atyli1pswfm29bow6spg463876ojo,3t3iwe1xga0lo8i3ef3zwzk4yestqv,b8LgKu7p,2020-0188,2020-11-17,21:16:05,21:34:24,NA,incomplete,220,race,3,0,left,A_M_02.jpg,A_F_10.jpg,C_M_05.jpg,right,1042.9449999937788,false,low,false
b8LgKu7p,3atyli1pswfm29bow6spg463876ojo,3t3iwe1xga0lo8i3ef3zwzk4yestqv,b8LgKu7p,2020-0188,2020-11-17,21:16:05,21:34:24,NA,incomplete,221,race,3,1,right,A_F_01.jpg,C_F_10.jpg,A_M_16.jpg,left,794.5949999848381,false,low,false
b8LgKu7p,3atyli1pswfm29bow6spg463876ojo,3t3iwe1xga0lo8i3ef3zwzk4yestqv,b8LgKu7p,2020-0188,2020-11-17,21:16:05,21:34:24,NA,incomplete,222,race,3,1,right,A_F_13.jpg,C_F_03.jpg,A_M_08.jpg,left,620.4399999696761,false,low,false
b8LgKu7p,3atyli1pswfm29bow6spg463876ojo,3t3iwe1xga0lo8i3ef3zwzk4yestqv,b8LgKu7p,2020-0188,2020-11-17,21:16:05,21:34:24,NA,incomplete,223,race,3,1,left,C_F_06.jpg,C_M_12.jpg,A_F_13.jpg,left,748.2499999459833,true,low,false
b8LgKu7p,3atyli1pswfm29bow6spg463876ojo,3t3iwe1xga0lo8i3ef3zwzk4yestqv,b8LgKu7p,2020-0188,2020-11-17,21:16:05,21:34:24,NA,incomplete,224,race,3,1,left,C_F_06.jpg,C_M_08.jpg,A_F_16.jpg,left,755.5250000441447,true,low,false
b8LgKu7p,3atyli1pswfm29bow6spg463876ojo,3t3iwe1xga0lo8i3ef3zwzk4yestqv,b8LgKu7p,2020-0188,2020-11-17,21:16:05,21:34:24,NA,incomplete,225,race,3,1,right,C_M_01.jpg,A_M_12.jpg,C_F_08.jpg,right,784.0600000927225,true,low,false
b8LgKu7p,3atyli1pswfm29bow6spg463876ojo,3t3iwe1xga0lo8i3ef3zwzk4yestqv,b8LgKu7p,2020-0188,2020-11-17,21:16:05,21:34:24,NA,incomplete,226,race,3,1,right,A_M_12.jpg,C_M_02.jpg,A_F_01.jpg,right,660.1050000172108,true,low,false
b8LgKu7p,3atyli1pswfm29bow6spg463876ojo,3t3iwe1xga0lo8i3ef3zwzk4yestqv,b8LgKu7p,2020-0188,2020-11-17,21:16:05,21:34:24,NA,incomplete,227,race,3,0,left,C_M_01.jpg,C_F_11.jpg,A_M_08.jpg,left,643.4149999404326,true,low,false
b8LgKu7p,3atyli1pswfm29bow6spg463876ojo,3t3iwe1xga0lo8i3ef3zwzk4yestqv,b8LgKu7p,2020-0188,2020-11-17,21:16:05,21:34:24,NA,incomplete,228,race,3,1,left,A_M_05.jpg,A_F_08.jpg,C_M_03.jpg,left,576.7099999357015,true,low,false
b8LgKu7p,3atyli1pswfm29bow6spg463876ojo,3t3iwe1xga0lo8i3ef3zwzk4yestqv,b8LgKu7p,2020-0188,2020-11-17,21:16:05,21:34:24,NA,incomplete,229,race,3,1,left,C_M_06.jpg,C_F_07.jpg,A_M_09.jpg,left,968.155000009574,true,low,false
b8LgKu7p,3atyli1pswfm29bow6spg463876ojo,3t3iwe1xga0lo8i3ef3zwzk4yestqv,b8LgKu7p,2020-0188,2020-11-17,21:16:05,21:34:24,NA,incomplete,230,race,3,1,right,C_M_16.jpg,A_M_08.jpg,C_F_05.jpg,right,778.7149999057874,true,low,false
b8LgKu7p,3atyli1pswfm29bow6spg463876ojo,3t3iwe1xga0lo8i3ef3zwzk4yestqv,b8LgKu7p,2020-0188,2020-11-17,21:16:05,21:34:24,NA,incomplete,231,race,3,1,left,A_F_15.jpg,A_M_16.jpg,C_F_10.jpg,left,779.17500003241,true,low,false
b8LgKu7p,3atyli1pswfm29bow6spg463876ojo,3t3iwe1xga0lo8i3ef3zwzk4yestqv,b8LgKu7p,2020-0188,2020-11-17,21:16:05,21:34:24,NA,incomplete,232,race,3,1,right,C_M_03.jpg,A_M_06.jpg,C_F_13.jpg,right,753.7099999608472,true,low,false
b8LgKu7p,3atyli1pswfm29bow6spg463876ojo,3t3iwe1xga0lo8i3ef3zwzk4yestqv,b8LgKu7p,2020-0188,2020-11-17,21:16:05,21:34:24,NA,incomplete,233,race,3,1,right,C_M_06.jpg,A_M_14.jpg,C_F_08.jpg,right,656.1600000131875,true,low,false
b8LgKu7p,3atyli1pswfm29bow6spg463876ojo,3t3iwe1xga0lo8i3ef3zwzk4yestqv,b8LgKu7p,2020-0188,2020-11-17,21:16:05,21:34:24,NA,incomplete,234,race,3,0,right,C_M_06.jpg,A_M_03.jpg,C_F_15.jpg,right,685.3800000390038,true,low,false
b8LgKu7p,3atyli1pswfm29bow6spg463876ojo,3t3iwe1xga0lo8i3ef3zwzk4yestqv,b8LgKu7p,2020-0188,2020-11-17,21:16:05,21:34:24,NA,incomplete,235,race,3,1,left,C_M_09.jpg,C_F_04.jpg,A_M_13.jpg,left,641.8500000145286,true,low,false
b8LgKu7p,3atyli1pswfm29bow6spg463876ojo,3t3iwe1xga0lo8i3ef3zwzk4yestqv,b8LgKu7p,2020-0188,2020-11-17,21:16:05,21:34:24,NA,incomplete,236,race,3,1,right,C_M_09.jpg,A_M_04.jpg,C_F_07.jpg,right,702.1950000198558,true,low,false
b8LgKu7p,3atyli1pswfm29bow6spg463876ojo,3t3iwe1xga0lo8i3ef3zwzk4yestqv,b8LgKu7p,2020-0188,2020-11-17,21:16:05,21:34:24,NA,incomplete,237,race,3,0,left,A_F_11.jpg,A_M_16.jpg,C_F_05.jpg,left,1020.879999967292,true,low,false
b8LgKu7p,3atyli1pswfm29bow6spg463876ojo,3t3iwe1xga0lo8i3ef3zwzk4yestqv,b8LgKu7p,2020-0188,2020-11-17,21:16:05,21:34:24,NA,incomplete,238,race,3,1,right,A_M_14.jpg,C_M_05.jpg,A_F_08.jpg,right,663.9549999963492,true,low,false
b8LgKu7p,3atyli1pswfm29bow6spg463876ojo,3t3iwe1xga0lo8i3ef3zwzk4yestqv,b8LgKu7p,2020-0188,2020-11-17,21:16:05,21:34:24,NA,incomplete,239,race,3,1,left,C_M_02.jpg,C_F_13.jpg,A_M_11.jpg,left,786.2699999241158,true,low,false
b8LgKu7p,3atyli1pswfm29bow6spg463876ojo,3t3iwe1xga0lo8i3ef3zwzk4yestqv,b8LgKu7p,2020-0188,2020-11-17,21:16:05,21:34:24,NA,NA,instruction example,number,NA,NA,NA,Purple_Circle_Dots_2.jpg,Red_Triangle_Chess_2.jpg,Green_Star_Dots_1.jpg,NA,NA,NA,NA,undefined
b8LgKu7p,3atyli1pswfm29bow6spg463876ojo,3t3iwe1xga0lo8i3ef3zwzk4yestqv,b8LgKu7p,2020-0188,2020-11-17,21:16:05,21:34:24,NA,NA,instruction example,number,NA,NA,NA,Blue_Plus_Grid_1.jpg,Red_Star_Grid_3.jpg,Green_Circle_Chess_1.jpg,NA,NA,NA,NA,undefined
b8LgKu7p,3atyli1pswfm29bow6spg463876ojo,3t3iwe1xga0lo8i3ef3zwzk4yestqv,b8LgKu7p,2020-0188,2020-11-17,21:16:05,21:34:24,NA,NA,instruction example,number,NA,NA,NA,A_F_13.jpg,C_F_08.jpg,A_M_07.jpg,NA,NA,NA,NA,undefined
b8LgKu7p,3atyli1pswfm29bow6spg463876ojo,3t3iwe1xga0lo8i3ef3zwzk4yestqv,b8LgKu7p,2020-0188,2020-11-17,21:16:05,21:34:24,NA,NA,instruction example,number,NA,NA,NA,C_F_01.jpg,C_M_12.jpg,A_F_16.jpg,NA,NA,NA,NA,undefined
