workerId,hitId,assignmentId,subject,studyid,exp_date,exp_start,exp_end,time_start,time_end,trial,type,sequence,reward_validity,answer,image_top,image_left,image_right,response,response_time,response_acc,volatility,age,race,gender,ethnicity,color,vision,neuro,practice
4XGcMbRp,3headtgn3s5yqh3y5nncdnm28bcvrm,3tdxmtx3cf725cj85uqxcn13rd66i0,4XGcMbRp,2020-0188,2020-06-04,11:29:23,11:51:08,NA,incomplete,0,number,0,1,right,Green_Circle_Grid_1.jpg,Purple_Triangle_Grid_2.jpg,Red_Plus_Stripes_1.jpg,left,1983,false,NA,NA,NA,NA,NA,NA,NA,NA,true
4XGcMbRp,3headtgn3s5yqh3y5nncdnm28bcvrm,3tdxmtx3cf725cj85uqxcn13rd66i0,4XGcMbRp,2020-0188,2020-06-04,11:29:23,11:51:08,NA,incomplete,1,number,0,1,left,Green_Circle_Dots_4.jpg,Blue_Plus_Stripes_4.jpg,Purple_Triangle_Dots_1.jpg,left,1381,true,NA,NA,NA,NA,NA,NA,NA,NA,true
4XGcMbRp,3headtgn3s5yqh3y5nncdnm28bcvrm,3tdxmtx3cf725cj85uqxcn13rd66i0,4XGcMbRp,2020-0188,2020-06-04,11:29:23,11:51:08,NA,incomplete,2,number,0,1,left,Green_Triangle_Dots_4.jpg,Red_Plus_Grid_4.jpg,Blue_Circle_Dots_2.jpg,left,954,true,NA,NA,NA,NA,NA,NA,NA,NA,true
4XGcMbRp,3headtgn3s5yqh3y5nncdnm28bcvrm,3tdxmtx3cf725cj85uqxcn13rd66i0,4XGcMbRp,2020-0188,2020-06-04,11:29:23,11:51:08,NA,incomplete,3,number,0,1,left,Blue_Triangle_Stripes_2.jpg,Red_Circle_Chess_2.jpg,Green_Plus_Stripes_1.jpg,left,1473,true,NA,NA,NA,NA,NA,NA,NA,NA,true
4XGcMbRp,3headtgn3s5yqh3y5nncdnm28bcvrm,3tdxmtx3cf725cj85uqxcn13rd66i0,4XGcMbRp,2020-0188,2020-06-04,11:29:23,11:51:08,NA,incomplete,4,number,0,0,left,Green_Plus_Dots_2.jpg,Red_Triangle_Chess_2.jpg,Blue_Star_Dots_4.jpg,left,1064,true,NA,NA,NA,NA,NA,NA,NA,NA,true
4XGcMbRp,3headtgn3s5yqh3y5nncdnm28bcvrm,3tdxmtx3cf725cj85uqxcn13rd66i0,4XGcMbRp,2020-0188,2020-06-04,11:29:23,11:51:08,NA,incomplete,5,number,0,1,right,Red_Triangle_Grid_4.jpg,Purple_Plus_Grid_3.jpg,Blue_Circle_Chess_4.jpg,right,1450,true,NA,NA,NA,NA,NA,NA,NA,NA,true
4XGcMbRp,3headtgn3s5yqh3y5nncdnm28bcvrm,3tdxmtx3cf725cj85uqxcn13rd66i0,4XGcMbRp,2020-0188,2020-06-04,11:29:23,11:51:08,NA,incomplete,6,number,0,1,left,Purple_Triangle_Grid_2.jpg,Blue_Plus_Stripes_2.jpg,Red_Circle_Grid_3.jpg,left,1190,true,NA,NA,NA,NA,NA,NA,NA,NA,true
4XGcMbRp,3headtgn3s5yqh3y5nncdnm28bcvrm,3tdxmtx3cf725cj85uqxcn13rd66i0,4XGcMbRp,2020-0188,2020-06-04,11:29:23,11:51:08,NA,incomplete,7,number,0,1,left,Purple_Star_Stripes_4.jpg,Red_Triangle_Grid_4.jpg,Green_Circle_Stripes_2.jpg,left,1153,true,NA,NA,NA,NA,NA,NA,NA,NA,true
4XGcMbRp,3headtgn3s5yqh3y5nncdnm28bcvrm,3tdxmtx3cf725cj85uqxcn13rd66i0,4XGcMbRp,2020-0188,2020-06-04,11:29:23,11:51:08,NA,incomplete,8,number,0,0,left,Green_Circle_Stripes_4.jpg,Red_Star_Chess_4.jpg,Blue_Plus_Stripes_3.jpg,left,922,true,NA,NA,NA,NA,NA,NA,NA,NA,true
4XGcMbRp,3headtgn3s5yqh3y5nncdnm28bcvrm,3tdxmtx3cf725cj85uqxcn13rd66i0,4XGcMbRp,2020-0188,2020-06-04,11:29:23,11:51:08,NA,incomplete,9,number,0,1,right,Purple_Triangle_Grid_4.jpg,Blue_Star_Grid_1.jpg,Green_Circle_Chess_4.jpg,right,1569,true,NA,NA,NA,NA,NA,NA,NA,NA,true
4XGcMbRp,3headtgn3s5yqh3y5nncdnm28bcvrm,3tdxmtx3cf725cj85uqxcn13rd66i0,4XGcMbRp,2020-0188,2020-06-04,11:29:23,11:51:08,NA,incomplete,10,number,0,1,right,Green_Plus_Chess_2.jpg,Red_Circle_Chess_1.jpg,Purple_Star_Stripes_2.jpg,right,1478,true,NA,NA,NA,NA,NA,NA,NA,NA,true
4XGcMbRp,3headtgn3s5yqh3y5nncdnm28bcvrm,3tdxmtx3cf725cj85uqxcn13rd66i0,4XGcMbRp,2020-0188,2020-06-04,11:29:23,11:51:08,NA,incomplete,11,number,0,1,right,Red_Plus_Stripes_2.jpg,Blue_Star_Stripes_4.jpg,Purple_Circle_Dots_2.jpg,right,999,true,NA,NA,NA,NA,NA,NA,NA,NA,true
4XGcMbRp,3headtgn3s5yqh3y5nncdnm28bcvrm,3tdxmtx3cf725cj85uqxcn13rd66i0,4XGcMbRp,2020-0188,2020-06-04,11:29:23,11:51:08,NA,incomplete,12,number,0,1,right,Purple_Circle_Stripes_3.jpg,Green_Triangle_Stripes_2.jpg,Blue_Plus_Grid_3.jpg,right,996,true,NA,NA,NA,NA,NA,NA,NA,NA,true
4XGcMbRp,3headtgn3s5yqh3y5nncdnm28bcvrm,3tdxmtx3cf725cj85uqxcn13rd66i0,4XGcMbRp,2020-0188,2020-06-04,11:29:23,11:51:08,NA,incomplete,13,number,0,0,right,Blue_Triangle_Dots_1.jpg,Red_Star_Dots_3.jpg,Green_Plus_Stripes_1.jpg,right,1174,true,NA,NA,NA,NA,NA,NA,NA,NA,true
4XGcMbRp,3headtgn3s5yqh3y5nncdnm28bcvrm,3tdxmtx3cf725cj85uqxcn13rd66i0,4XGcMbRp,2020-0188,2020-06-04,11:29:23,11:51:08,NA,incomplete,14,number,0,1,right,Blue_Circle_Dots_4.jpg,Green_Star_Dots_3.jpg,Purple_Triangle_Chess_4.jpg,left,1229,false,NA,NA,NA,NA,NA,NA,NA,NA,true
4XGcMbRp,3headtgn3s5yqh3y5nncdnm28bcvrm,3tdxmtx3cf725cj85uqxcn13rd66i0,4XGcMbRp,2020-0188,2020-06-04,11:29:23,11:51:08,NA,incomplete,15,number,0,0,left,Red_Plus_Dots_3.jpg,Purple_Triangle_Chess_3.jpg,Green_Circle_Dots_4.jpg,left,784,true,NA,NA,NA,NA,NA,NA,NA,NA,true
4XGcMbRp,3headtgn3s5yqh3y5nncdnm28bcvrm,3tdxmtx3cf725cj85uqxcn13rd66i0,4XGcMbRp,2020-0188,2020-06-04,11:29:23,11:51:08,NA,incomplete,16,number,0,1,right,Green_Star_Stripes_2.jpg,Purple_Plus_Stripes_1.jpg,Red_Triangle_Grid_2.jpg,right,1485,true,NA,NA,NA,NA,NA,NA,NA,NA,true
4XGcMbRp,3headtgn3s5yqh3y5nncdnm28bcvrm,3tdxmtx3cf725cj85uqxcn13rd66i0,4XGcMbRp,2020-0188,2020-06-04,11:29:23,11:51:08,NA,incomplete,17,number,0,1,left,Purple_Triangle_Stripes_2.jpg,Red_Star_Chess_2.jpg,Green_Plus_Stripes_3.jpg,left,1309,true,NA,NA,NA,NA,NA,NA,NA,NA,true
4XGcMbRp,3headtgn3s5yqh3y5nncdnm28bcvrm,3tdxmtx3cf725cj85uqxcn13rd66i0,4XGcMbRp,2020-0188,2020-06-04,11:29:23,11:51:08,NA,incomplete,18,number,0,1,right,Purple_Star_Stripes_3.jpg,Green_Triangle_Stripes_1.jpg,Blue_Circle_Chess_3.jpg,right,1238,true,NA,NA,NA,NA,NA,NA,NA,NA,true
4XGcMbRp,3headtgn3s5yqh3y5nncdnm28bcvrm,3tdxmtx3cf725cj85uqxcn13rd66i0,4XGcMbRp,2020-0188,2020-06-04,11:29:23,11:51:08,NA,incomplete,19,number,0,1,right,Red_Plus_Stripes_4.jpg,Purple_Star_Stripes_1.jpg,Green_Triangle_Dots_4.jpg,right,1112,true,NA,NA,NA,NA,NA,NA,NA,NA,true
4XGcMbRp,3headtgn3s5yqh3y5nncdnm28bcvrm,3tdxmtx3cf725cj85uqxcn13rd66i0,4XGcMbRp,2020-0188,2020-06-04,11:29:23,11:51:08,NA,incomplete,20,filling,1,0,right,Red_Star_Grid_4.jpg,Purple_Circle_Dots_4.jpg,Blue_Triangle_Grid_1.jpg,left,1961,false,NA,NA,NA,NA,NA,NA,NA,NA,true
4XGcMbRp,3headtgn3s5yqh3y5nncdnm28bcvrm,3tdxmtx3cf725cj85uqxcn13rd66i0,4XGcMbRp,2020-0188,2020-06-04,11:29:23,11:51:08,NA,incomplete,21,filling,1,1,right,Green_Plus_Grid_3.jpg,Blue_Triangle_Chess_3.jpg,Red_Circle_Grid_1.jpg,right,1276,true,NA,NA,NA,NA,NA,NA,NA,NA,true
4XGcMbRp,3headtgn3s5yqh3y5nncdnm28bcvrm,3tdxmtx3cf725cj85uqxcn13rd66i0,4XGcMbRp,2020-0188,2020-06-04,11:29:23,11:51:08,NA,incomplete,22,filling,1,0,left,Green_Plus_Dots_1.jpg,Red_Triangle_Dots_2.jpg,Purple_Star_Grid_1.jpg,left,1208,true,NA,NA,NA,NA,NA,NA,NA,NA,true
4XGcMbRp,3headtgn3s5yqh3y5nncdnm28bcvrm,3tdxmtx3cf725cj85uqxcn13rd66i0,4XGcMbRp,2020-0188,2020-06-04,11:29:23,11:51:08,NA,incomplete,23,filling,1,1,left,Red_Plus_Dots_1.jpg,Green_Triangle_Dots_3.jpg,Blue_Star_Chess_1.jpg,left,1372,true,NA,NA,NA,NA,NA,NA,NA,NA,true
4XGcMbRp,3headtgn3s5yqh3y5nncdnm28bcvrm,3tdxmtx3cf725cj85uqxcn13rd66i0,4XGcMbRp,2020-0188,2020-06-04,11:29:23,11:51:08,NA,incomplete,24,filling,1,1,left,Green_Circle_Chess_2.jpg,Blue_Triangle_Chess_4.jpg,Red_Plus_Grid_2.jpg,left,1154,true,NA,NA,NA,NA,NA,NA,NA,NA,true
4XGcMbRp,3headtgn3s5yqh3y5nncdnm28bcvrm,3tdxmtx3cf725cj85uqxcn13rd66i0,4XGcMbRp,2020-0188,2020-06-04,11:29:23,11:51:08,NA,incomplete,25,filling,1,1,right,Blue_Triangle_Dots_4.jpg,Red_Star_Chess_4.jpg,Purple_Plus_Dots_3.jpg,right,1495,true,NA,NA,NA,NA,NA,NA,NA,NA,true
4XGcMbRp,3headtgn3s5yqh3y5nncdnm28bcvrm,3tdxmtx3cf725cj85uqxcn13rd66i0,4XGcMbRp,2020-0188,2020-06-04,11:29:23,11:51:08,NA,incomplete,26,filling,1,1,right,Green_Triangle_Stripes_1.jpg,Purple_Circle_Grid_1.jpg,Red_Plus_Stripes_3.jpg,right,1238,true,NA,NA,NA,NA,NA,NA,NA,NA,true
4XGcMbRp,3headtgn3s5yqh3y5nncdnm28bcvrm,3tdxmtx3cf725cj85uqxcn13rd66i0,4XGcMbRp,2020-0188,2020-06-04,11:29:23,11:51:08,NA,incomplete,27,filling,1,1,left,Purple_Triangle_Dots_4.jpg,Red_Circle_Dots_3.jpg,Green_Star_Grid_4.jpg,left,1442,true,NA,NA,NA,NA,NA,NA,NA,NA,true
4XGcMbRp,3headtgn3s5yqh3y5nncdnm28bcvrm,3tdxmtx3cf725cj85uqxcn13rd66i0,4XGcMbRp,2020-0188,2020-06-04,11:29:23,11:51:08,NA,incomplete,28,filling,1,1,left,Green_Star_Stripes_1.jpg,Blue_Plus_Stripes_2.jpg,Purple_Circle_Grid_1.jpg,left,1549,true,NA,NA,NA,NA,NA,NA,NA,NA,true
4XGcMbRp,3headtgn3s5yqh3y5nncdnm28bcvrm,3tdxmtx3cf725cj85uqxcn13rd66i0,4XGcMbRp,2020-0188,2020-06-04,11:29:23,11:51:08,NA,incomplete,29,filling,1,1,right,Purple_Circle_Chess_1.jpg,Green_Star_Grid_1.jpg,Red_Plus_Chess_3.jpg,right,1436,true,NA,NA,NA,NA,NA,NA,NA,NA,true
4XGcMbRp,3headtgn3s5yqh3y5nncdnm28bcvrm,3tdxmtx3cf725cj85uqxcn13rd66i0,4XGcMbRp,2020-0188,2020-06-04,11:29:23,11:51:08,NA,incomplete,30,filling,1,1,left,Green_Triangle_Chess_2.jpg,Red_Plus_Chess_1.jpg,Purple_Circle_Grid_2.jpg,left,1493,true,NA,NA,NA,NA,NA,NA,NA,NA,true
4XGcMbRp,3headtgn3s5yqh3y5nncdnm28bcvrm,3tdxmtx3cf725cj85uqxcn13rd66i0,4XGcMbRp,2020-0188,2020-06-04,11:29:23,11:51:08,NA,incomplete,31,filling,1,1,left,Red_Circle_Dots_3.jpg,Blue_Triangle_Dots_1.jpg,Green_Plus_Chess_3.jpg,left,1111,true,NA,NA,NA,NA,NA,NA,NA,NA,true
4XGcMbRp,3headtgn3s5yqh3y5nncdnm28bcvrm,3tdxmtx3cf725cj85uqxcn13rd66i0,4XGcMbRp,2020-0188,2020-06-04,11:29:23,11:51:08,NA,incomplete,32,filling,1,1,right,Purple_Circle_Stripes_3.jpg,Red_Plus_Dots_3.jpg,Blue_Star_Stripes_2.jpg,right,1151,true,NA,NA,NA,NA,NA,NA,NA,NA,true
4XGcMbRp,3headtgn3s5yqh3y5nncdnm28bcvrm,3tdxmtx3cf725cj85uqxcn13rd66i0,4XGcMbRp,2020-0188,2020-06-04,11:29:23,11:51:08,NA,incomplete,33,filling,1,1,right,Red_Star_Chess_1.jpg,Green_Circle_Stripes_1.jpg,Blue_Triangle_Chess_3.jpg,right,1229,true,NA,NA,NA,NA,NA,NA,NA,NA,true
4XGcMbRp,3headtgn3s5yqh3y5nncdnm28bcvrm,3tdxmtx3cf725cj85uqxcn13rd66i0,4XGcMbRp,2020-0188,2020-06-04,11:29:23,11:51:08,NA,incomplete,34,filling,1,0,right,Blue_Star_Stripes_2.jpg,Red_Plus_Dots_2.jpg,Green_Triangle_Stripes_3.jpg,right,1200,true,NA,NA,NA,NA,NA,NA,NA,NA,true
4XGcMbRp,3headtgn3s5yqh3y5nncdnm28bcvrm,3tdxmtx3cf725cj85uqxcn13rd66i0,4XGcMbRp,2020-0188,2020-06-04,11:29:23,11:51:08,NA,incomplete,35,filling,1,1,right,Red_Plus_Dots_1.jpg,Purple_Triangle_Chess_1.jpg,Blue_Circle_Dots_4.jpg,right,1405,true,NA,NA,NA,NA,NA,NA,NA,NA,true
4XGcMbRp,3headtgn3s5yqh3y5nncdnm28bcvrm,3tdxmtx3cf725cj85uqxcn13rd66i0,4XGcMbRp,2020-0188,2020-06-04,11:29:23,11:51:08,NA,incomplete,36,filling,1,1,left,Green_Star_Stripes_3.jpg,Red_Plus_Stripes_2.jpg,Purple_Circle_Dots_3.jpg,left,1073,true,NA,NA,NA,NA,NA,NA,NA,NA,true
4XGcMbRp,3headtgn3s5yqh3y5nncdnm28bcvrm,3tdxmtx3cf725cj85uqxcn13rd66i0,4XGcMbRp,2020-0188,2020-06-04,11:29:23,11:51:08,NA,incomplete,37,filling,1,1,right,Green_Triangle_Chess_1.jpg,Red_Plus_Grid_1.jpg,Blue_Star_Chess_2.jpg,right,1314,true,NA,NA,NA,NA,NA,NA,NA,NA,true
4XGcMbRp,3headtgn3s5yqh3y5nncdnm28bcvrm,3tdxmtx3cf725cj85uqxcn13rd66i0,4XGcMbRp,2020-0188,2020-06-04,11:29:23,11:51:08,NA,incomplete,38,filling,1,1,right,Purple_Star_Chess_1.jpg,Green_Plus_Dots_1.jpg,Red_Triangle_Chess_4.jpg,right,1114,true,NA,NA,NA,NA,NA,NA,NA,NA,true
4XGcMbRp,3headtgn3s5yqh3y5nncdnm28bcvrm,3tdxmtx3cf725cj85uqxcn13rd66i0,4XGcMbRp,2020-0188,2020-06-04,11:29:23,11:51:08,NA,incomplete,39,filling,1,0,right,Green_Star_Stripes_2.jpg,Blue_Plus_Chess_2.jpg,Red_Triangle_Stripes_1.jpg,right,1130,true,NA,NA,NA,NA,NA,NA,NA,NA,true
4XGcMbRp,3headtgn3s5yqh3y5nncdnm28bcvrm,3tdxmtx3cf725cj85uqxcn13rd66i0,4XGcMbRp,2020-0188,2020-06-04,11:29:23,11:51:08,NA,incomplete,0,number,0,0,right,Green_Triangle_Dots_2.jpg,Blue_Plus_Dots_1.jpg,Red_Circle_Chess_2.jpg,left,1689,false,low,NA,NA,NA,NA,NA,NA,NA,false
4XGcMbRp,3headtgn3s5yqh3y5nncdnm28bcvrm,3tdxmtx3cf725cj85uqxcn13rd66i0,4XGcMbRp,2020-0188,2020-06-04,11:29:23,11:51:08,NA,incomplete,1,number,0,1,right,Red_Star_Stripes_2.jpg,Green_Plus_Stripes_4.jpg,Purple_Triangle_Chess_2.jpg,right,1107,true,low,NA,NA,NA,NA,NA,NA,NA,false
4XGcMbRp,3headtgn3s5yqh3y5nncdnm28bcvrm,3tdxmtx3cf725cj85uqxcn13rd66i0,4XGcMbRp,2020-0188,2020-06-04,11:29:23,11:51:08,NA,incomplete,2,number,0,1,left,Green_Star_Chess_2.jpg,Purple_Triangle_Dots_2.jpg,Blue_Plus_Chess_3.jpg,left,921,true,low,NA,NA,NA,NA,NA,NA,NA,false
4XGcMbRp,3headtgn3s5yqh3y5nncdnm28bcvrm,3tdxmtx3cf725cj85uqxcn13rd66i0,4XGcMbRp,2020-0188,2020-06-04,11:29:23,11:51:08,NA,incomplete,3,number,0,1,left,Blue_Triangle_Stripes_1.jpg,Red_Plus_Dots_1.jpg,Green_Star_Stripes_2.jpg,left,888,true,low,NA,NA,NA,NA,NA,NA,NA,false
4XGcMbRp,3headtgn3s5yqh3y5nncdnm28bcvrm,3tdxmtx3cf725cj85uqxcn13rd66i0,4XGcMbRp,2020-0188,2020-06-04,11:29:23,11:51:08,NA,incomplete,4,number,0,1,right,Purple_Plus_Chess_2.jpg,Green_Triangle_Chess_3.jpg,Blue_Star_Dots_2.jpg,right,906,true,low,NA,NA,NA,NA,NA,NA,NA,false
4XGcMbRp,3headtgn3s5yqh3y5nncdnm28bcvrm,3tdxmtx3cf725cj85uqxcn13rd66i0,4XGcMbRp,2020-0188,2020-06-04,11:29:23,11:51:08,NA,incomplete,5,number,0,0,right,Red_Triangle_Grid_3.jpg,Green_Star_Grid_4.jpg,Purple_Circle_Chess_3.jpg,right,818,true,low,NA,NA,NA,NA,NA,NA,NA,false
4XGcMbRp,3headtgn3s5yqh3y5nncdnm28bcvrm,3tdxmtx3cf725cj85uqxcn13rd66i0,4XGcMbRp,2020-0188,2020-06-04,11:29:23,11:51:08,NA,incomplete,6,number,0,1,right,Blue_Plus_Grid_2.jpg,Red_Triangle_Grid_1.jpg,Purple_Circle_Dots_2.jpg,left,989,false,low,NA,NA,NA,NA,NA,NA,NA,false
4XGcMbRp,3headtgn3s5yqh3y5nncdnm28bcvrm,3tdxmtx3cf725cj85uqxcn13rd66i0,4XGcMbRp,2020-0188,2020-06-04,11:29:23,11:51:08,NA,incomplete,7,number,0,1,right,Green_Triangle_Dots_2.jpg,Red_Star_Dots_1.jpg,Blue_Plus_Grid_2.jpg,right,816,true,low,NA,NA,NA,NA,NA,NA,NA,false
4XGcMbRp,3headtgn3s5yqh3y5nncdnm28bcvrm,3tdxmtx3cf725cj85uqxcn13rd66i0,4XGcMbRp,2020-0188,2020-06-04,11:29:23,11:51:08,NA,incomplete,8,number,0,1,right,Green_Star_Dots_4.jpg,Purple_Circle_Dots_1.jpg,Blue_Triangle_Stripes_4.jpg,right,820,true,low,NA,NA,NA,NA,NA,NA,NA,false
4XGcMbRp,3headtgn3s5yqh3y5nncdnm28bcvrm,3tdxmtx3cf725cj85uqxcn13rd66i0,4XGcMbRp,2020-0188,2020-06-04,11:29:23,11:51:08,NA,incomplete,9,number,0,1,left,Purple_Star_Grid_4.jpg,Green_Plus_Dots_4.jpg,Blue_Triangle_Grid_1.jpg,left,777,true,low,NA,NA,NA,NA,NA,NA,NA,false
4XGcMbRp,3headtgn3s5yqh3y5nncdnm28bcvrm,3tdxmtx3cf725cj85uqxcn13rd66i0,4XGcMbRp,2020-0188,2020-06-04,11:29:23,11:51:08,NA,incomplete,10,number,0,1,right,Red_Triangle_Dots_1.jpg,Green_Circle_Dots_3.jpg,Blue_Plus_Chess_1.jpg,right,767,true,low,NA,NA,NA,NA,NA,NA,NA,false
4XGcMbRp,3headtgn3s5yqh3y5nncdnm28bcvrm,3tdxmtx3cf725cj85uqxcn13rd66i0,4XGcMbRp,2020-0188,2020-06-04,11:29:23,11:51:08,NA,incomplete,11,number,0,1,left,Green_Plus_Stripes_2.jpg,Blue_Star_Grid_2.jpg,Purple_Circle_Stripes_3.jpg,left,883,true,low,NA,NA,NA,NA,NA,NA,NA,false
4XGcMbRp,3headtgn3s5yqh3y5nncdnm28bcvrm,3tdxmtx3cf725cj85uqxcn13rd66i0,4XGcMbRp,2020-0188,2020-06-04,11:29:23,11:51:08,NA,incomplete,12,number,0,0,right,Green_Star_Dots_4.jpg,Red_Circle_Dots_2.jpg,Purple_Plus_Stripes_4.jpg,right,732,true,low,NA,NA,NA,NA,NA,NA,NA,false
4XGcMbRp,3headtgn3s5yqh3y5nncdnm28bcvrm,3tdxmtx3cf725cj85uqxcn13rd66i0,4XGcMbRp,2020-0188,2020-06-04,11:29:23,11:51:08,NA,incomplete,13,number,0,0,left,Red_Plus_Stripes_4.jpg,Green_Triangle_Grid_4.jpg,Purple_Star_Stripes_1.jpg,left,966,true,low,NA,NA,NA,NA,NA,NA,NA,false
4XGcMbRp,3headtgn3s5yqh3y5nncdnm28bcvrm,3tdxmtx3cf725cj85uqxcn13rd66i0,4XGcMbRp,2020-0188,2020-06-04,11:29:23,11:51:08,NA,incomplete,14,number,0,1,left,Green_Star_Stripes_1.jpg,Blue_Plus_Chess_1.jpg,Red_Triangle_Stripes_4.jpg,right,876,false,low,NA,NA,NA,NA,NA,NA,NA,false
4XGcMbRp,3headtgn3s5yqh3y5nncdnm28bcvrm,3tdxmtx3cf725cj85uqxcn13rd66i0,4XGcMbRp,2020-0188,2020-06-04,11:29:23,11:51:08,NA,incomplete,15,number,0,1,left,Blue_Circle_Chess_4.jpg,Red_Triangle_Dots_4.jpg,Green_Plus_Chess_1.jpg,left,1460,true,low,NA,NA,NA,NA,NA,NA,NA,false
4XGcMbRp,3headtgn3s5yqh3y5nncdnm28bcvrm,3tdxmtx3cf725cj85uqxcn13rd66i0,4XGcMbRp,2020-0188,2020-06-04,11:29:23,11:51:08,NA,incomplete,16,number,0,1,right,Purple_Star_Grid_4.jpg,Green_Triangle_Grid_2.jpg,Red_Circle_Stripes_4.jpg,right,789,true,low,NA,NA,NA,NA,NA,NA,NA,false
4XGcMbRp,3headtgn3s5yqh3y5nncdnm28bcvrm,3tdxmtx3cf725cj85uqxcn13rd66i0,4XGcMbRp,2020-0188,2020-06-04,11:29:23,11:51:08,NA,incomplete,17,number,0,1,right,Green_Star_Stripes_2.jpg,Red_Circle_Stripes_1.jpg,Blue_Triangle_Grid_2.jpg,right,780,true,low,NA,NA,NA,NA,NA,NA,NA,false
4XGcMbRp,3headtgn3s5yqh3y5nncdnm28bcvrm,3tdxmtx3cf725cj85uqxcn13rd66i0,4XGcMbRp,2020-0188,2020-06-04,11:29:23,11:51:08,NA,incomplete,18,number,0,1,left,Red_Circle_Dots_4.jpg,Purple_Plus_Grid_4.jpg,Green_Triangle_Dots_3.jpg,left,727,true,low,NA,NA,NA,NA,NA,NA,NA,false
4XGcMbRp,3headtgn3s5yqh3y5nncdnm28bcvrm,3tdxmtx3cf725cj85uqxcn13rd66i0,4XGcMbRp,2020-0188,2020-06-04,11:29:23,11:51:08,NA,incomplete,19,number,0,1,right,Purple_Plus_Chess_4.jpg,Green_Star_Chess_3.jpg,Red_Triangle_Grid_4.jpg,right,1024,true,low,NA,NA,NA,NA,NA,NA,NA,false
4XGcMbRp,3headtgn3s5yqh3y5nncdnm28bcvrm,3tdxmtx3cf725cj85uqxcn13rd66i0,4XGcMbRp,2020-0188,2020-06-04,11:29:23,11:51:08,NA,incomplete,20,number,0,1,right,Red_Circle_Stripes_1.jpg,Purple_Star_Stripes_3.jpg,Green_Triangle_Dots_1.jpg,right,761,true,low,NA,NA,NA,NA,NA,NA,NA,false
4XGcMbRp,3headtgn3s5yqh3y5nncdnm28bcvrm,3tdxmtx3cf725cj85uqxcn13rd66i0,4XGcMbRp,2020-0188,2020-06-04,11:29:23,11:51:08,NA,incomplete,21,number,0,1,left,Red_Triangle_Grid_4.jpg,Green_Circle_Stripes_4.jpg,Purple_Plus_Grid_2.jpg,left,647,true,low,NA,NA,NA,NA,NA,NA,NA,false
4XGcMbRp,3headtgn3s5yqh3y5nncdnm28bcvrm,3tdxmtx3cf725cj85uqxcn13rd66i0,4XGcMbRp,2020-0188,2020-06-04,11:29:23,11:51:08,NA,incomplete,22,number,0,0,left,Green_Triangle_Grid_3.jpg,Blue_Star_Stripes_3.jpg,Purple_Circle_Grid_1.jpg,left,740,true,low,NA,NA,NA,NA,NA,NA,NA,false
4XGcMbRp,3headtgn3s5yqh3y5nncdnm28bcvrm,3tdxmtx3cf725cj85uqxcn13rd66i0,4XGcMbRp,2020-0188,2020-06-04,11:29:23,11:51:08,NA,incomplete,23,number,0,0,left,Purple_Circle_Chess_4.jpg,Red_Plus_Grid_4.jpg,Blue_Star_Chess_3.jpg,left,819,true,low,NA,NA,NA,NA,NA,NA,NA,false
4XGcMbRp,3headtgn3s5yqh3y5nncdnm28bcvrm,3tdxmtx3cf725cj85uqxcn13rd66i0,4XGcMbRp,2020-0188,2020-06-04,11:29:23,11:51:08,NA,incomplete,24,number,0,1,left,Purple_Triangle_Dots_4.jpg,Blue_Star_Stripes_4.jpg,Green_Circle_Dots_1.jpg,left,1533,true,low,NA,NA,NA,NA,NA,NA,NA,false
4XGcMbRp,3headtgn3s5yqh3y5nncdnm28bcvrm,3tdxmtx3cf725cj85uqxcn13rd66i0,4XGcMbRp,2020-0188,2020-06-04,11:29:23,11:51:08,NA,incomplete,25,number,0,1,left,Purple_Triangle_Chess_2.jpg,Green_Plus_Dots_2.jpg,Blue_Star_Chess_4.jpg,right,860,false,low,NA,NA,NA,NA,NA,NA,NA,false
4XGcMbRp,3headtgn3s5yqh3y5nncdnm28bcvrm,3tdxmtx3cf725cj85uqxcn13rd66i0,4XGcMbRp,2020-0188,2020-06-04,11:29:23,11:51:08,NA,incomplete,26,number,0,1,left,Purple_Plus_Chess_4.jpg,Blue_Triangle_Stripes_4.jpg,Green_Circle_Chess_3.jpg,left,989,true,low,NA,NA,NA,NA,NA,NA,NA,false
4XGcMbRp,3headtgn3s5yqh3y5nncdnm28bcvrm,3tdxmtx3cf725cj85uqxcn13rd66i0,4XGcMbRp,2020-0188,2020-06-04,11:29:23,11:51:08,NA,incomplete,27,number,0,1,right,Purple_Triangle_Chess_1.jpg,Red_Plus_Chess_4.jpg,Green_Star_Stripes_1.jpg,right,748,true,low,NA,NA,NA,NA,NA,NA,NA,false
4XGcMbRp,3headtgn3s5yqh3y5nncdnm28bcvrm,3tdxmtx3cf725cj85uqxcn13rd66i0,4XGcMbRp,2020-0188,2020-06-04,11:29:23,11:51:08,NA,incomplete,28,number,0,1,right,Red_Triangle_Chess_2.jpg,Green_Plus_Chess_1.jpg,Purple_Circle_Grid_2.jpg,right,800,true,low,NA,NA,NA,NA,NA,NA,NA,false
4XGcMbRp,3headtgn3s5yqh3y5nncdnm28bcvrm,3tdxmtx3cf725cj85uqxcn13rd66i0,4XGcMbRp,2020-0188,2020-06-04,11:29:23,11:51:08,NA,incomplete,29,number,0,1,right,Green_Triangle_Stripes_3.jpg,Blue_Star_Stripes_2.jpg,Purple_Plus_Grid_3.jpg,right,773,true,low,NA,NA,NA,NA,NA,NA,NA,false
4XGcMbRp,3headtgn3s5yqh3y5nncdnm28bcvrm,3tdxmtx3cf725cj85uqxcn13rd66i0,4XGcMbRp,2020-0188,2020-06-04,11:29:23,11:51:08,NA,incomplete,30,filling,1,1,left,Purple_Triangle_Dots_3.jpg,Green_Star_Dots_2.jpg,Blue_Circle_Grid_3.jpg,right,690,false,low,NA,NA,NA,NA,NA,NA,NA,false
4XGcMbRp,3headtgn3s5yqh3y5nncdnm28bcvrm,3tdxmtx3cf725cj85uqxcn13rd66i0,4XGcMbRp,2020-0188,2020-06-04,11:29:23,11:51:08,NA,incomplete,31,filling,1,1,left,Purple_Plus_Stripes_1.jpg,Green_Star_Stripes_4.jpg,Red_Circle_Grid_1.jpg,right,1148,false,low,NA,NA,NA,NA,NA,NA,NA,false
4XGcMbRp,3headtgn3s5yqh3y5nncdnm28bcvrm,3tdxmtx3cf725cj85uqxcn13rd66i0,4XGcMbRp,2020-0188,2020-06-04,11:29:23,11:51:08,NA,incomplete,32,filling,1,1,left,Red_Triangle_Stripes_3.jpg,Green_Star_Stripes_2.jpg,Purple_Circle_Grid_3.jpg,left,1162,true,low,NA,NA,NA,NA,NA,NA,NA,false
4XGcMbRp,3headtgn3s5yqh3y5nncdnm28bcvrm,3tdxmtx3cf725cj85uqxcn13rd66i0,4XGcMbRp,2020-0188,2020-06-04,11:29:23,11:51:08,NA,incomplete,33,filling,1,1,right,Green_Circle_Grid_3.jpg,Purple_Star_Chess_3.jpg,Red_Plus_Grid_4.jpg,right,1081,true,low,NA,NA,NA,NA,NA,NA,NA,false
4XGcMbRp,3headtgn3s5yqh3y5nncdnm28bcvrm,3tdxmtx3cf725cj85uqxcn13rd66i0,4XGcMbRp,2020-0188,2020-06-04,11:29:23,11:51:08,NA,incomplete,34,filling,1,1,left,Purple_Triangle_Grid_3.jpg,Blue_Plus_Grid_4.jpg,Red_Circle_Chess_3.jpg,left,1098,true,low,NA,NA,NA,NA,NA,NA,NA,false
4XGcMbRp,3headtgn3s5yqh3y5nncdnm28bcvrm,3tdxmtx3cf725cj85uqxcn13rd66i0,4XGcMbRp,2020-0188,2020-06-04,11:29:23,11:51:08,NA,incomplete,35,filling,1,1,right,Green_Plus_Grid_1.jpg,Blue_Triangle_Dots_1.jpg,Red_Circle_Grid_3.jpg,right,904,true,low,NA,NA,NA,NA,NA,NA,NA,false
4XGcMbRp,3headtgn3s5yqh3y5nncdnm28bcvrm,3tdxmtx3cf725cj85uqxcn13rd66i0,4XGcMbRp,2020-0188,2020-06-04,11:29:23,11:51:08,NA,incomplete,36,filling,1,0,left,Green_Plus_Stripes_3.jpg,Blue_Circle_Stripes_1.jpg,Red_Triangle_Grid_3.jpg,left,1017,true,low,NA,NA,NA,NA,NA,NA,NA,false
4XGcMbRp,3headtgn3s5yqh3y5nncdnm28bcvrm,3tdxmtx3cf725cj85uqxcn13rd66i0,4XGcMbRp,2020-0188,2020-06-04,11:29:23,11:51:08,NA,incomplete,37,filling,1,0,right,Red_Star_Stripes_1.jpg,Green_Triangle_Grid_1.jpg,Blue_Plus_Stripes_2.jpg,right,1206,true,low,NA,NA,NA,NA,NA,NA,NA,false
4XGcMbRp,3headtgn3s5yqh3y5nncdnm28bcvrm,3tdxmtx3cf725cj85uqxcn13rd66i0,4XGcMbRp,2020-0188,2020-06-04,11:29:23,11:51:08,NA,incomplete,38,filling,1,1,left,Green_Circle_Dots_1.jpg,Red_Star_Dots_4.jpg,Blue_Triangle_Chess_1.jpg,right,707,false,low,NA,NA,NA,NA,NA,NA,NA,false
4XGcMbRp,3headtgn3s5yqh3y5nncdnm28bcvrm,3tdxmtx3cf725cj85uqxcn13rd66i0,4XGcMbRp,2020-0188,2020-06-04,11:29:23,11:51:08,NA,incomplete,39,filling,1,1,right,Red_Plus_Stripes_1.jpg,Green_Circle_Dots_1.jpg,Purple_Triangle_Stripes_2.jpg,right,1218,true,low,NA,NA,NA,NA,NA,NA,NA,false
4XGcMbRp,3headtgn3s5yqh3y5nncdnm28bcvrm,3tdxmtx3cf725cj85uqxcn13rd66i0,4XGcMbRp,2020-0188,2020-06-04,11:29:23,11:51:08,NA,incomplete,40,filling,1,0,right,Blue_Triangle_Dots_4.jpg,Green_Plus_Stripes_4.jpg,Red_Star_Dots_1.jpg,right,1126,true,low,NA,NA,NA,NA,NA,NA,NA,false
4XGcMbRp,3headtgn3s5yqh3y5nncdnm28bcvrm,3tdxmtx3cf725cj85uqxcn13rd66i0,4XGcMbRp,2020-0188,2020-06-04,11:29:23,11:51:08,NA,incomplete,41,filling,1,1,left,Red_Star_Chess_4.jpg,Blue_Triangle_Chess_1.jpg,Purple_Plus_Grid_4.jpg,right,853,false,low,NA,NA,NA,NA,NA,NA,NA,false
4XGcMbRp,3headtgn3s5yqh3y5nncdnm28bcvrm,3tdxmtx3cf725cj85uqxcn13rd66i0,4XGcMbRp,2020-0188,2020-06-04,11:29:23,11:51:08,NA,incomplete,42,filling,1,0,right,Purple_Circle_Dots_1.jpg,Red_Triangle_Grid_1.jpg,Green_Plus_Dots_4.jpg,right,1077,true,low,NA,NA,NA,NA,NA,NA,NA,false
4XGcMbRp,3headtgn3s5yqh3y5nncdnm28bcvrm,3tdxmtx3cf725cj85uqxcn13rd66i0,4XGcMbRp,2020-0188,2020-06-04,11:29:23,11:51:08,NA,incomplete,43,filling,1,1,right,Purple_Circle_Grid_2.jpg,Blue_Triangle_Dots_2.jpg,Red_Plus_Grid_3.jpg,right,1055,true,low,NA,NA,NA,NA,NA,NA,NA,false
4XGcMbRp,3headtgn3s5yqh3y5nncdnm28bcvrm,3tdxmtx3cf725cj85uqxcn13rd66i0,4XGcMbRp,2020-0188,2020-06-04,11:29:23,11:51:08,NA,incomplete,44,filling,1,1,left,Red_Triangle_Chess_3.jpg,Purple_Plus_Chess_4.jpg,Green_Star_Dots_3.jpg,left,954,true,low,NA,NA,NA,NA,NA,NA,NA,false
4XGcMbRp,3headtgn3s5yqh3y5nncdnm28bcvrm,3tdxmtx3cf725cj85uqxcn13rd66i0,4XGcMbRp,2020-0188,2020-06-04,11:29:23,11:51:08,NA,incomplete,45,filling,1,1,right,Green_Circle_Grid_4.jpg,Purple_Star_Dots_4.jpg,Blue_Triangle_Grid_3.jpg,right,866,true,low,NA,NA,NA,NA,NA,NA,NA,false
4XGcMbRp,3headtgn3s5yqh3y5nncdnm28bcvrm,3tdxmtx3cf725cj85uqxcn13rd66i0,4XGcMbRp,2020-0188,2020-06-04,11:29:23,11:51:08,NA,incomplete,46,filling,1,1,left,Red_Star_Stripes_4.jpg,Blue_Plus_Stripes_2.jpg,Purple_Triangle_Dots_4.jpg,left,1117,true,low,NA,NA,NA,NA,NA,NA,NA,false
4XGcMbRp,3headtgn3s5yqh3y5nncdnm28bcvrm,3tdxmtx3cf725cj85uqxcn13rd66i0,4XGcMbRp,2020-0188,2020-06-04,11:29:23,11:51:08,NA,incomplete,47,filling,1,0,left,Blue_Plus_Chess_3.jpg,Green_Star_Chess_1.jpg,Red_Triangle_Grid_3.jpg,left,1080,true,low,NA,NA,NA,NA,NA,NA,NA,false
4XGcMbRp,3headtgn3s5yqh3y5nncdnm28bcvrm,3tdxmtx3cf725cj85uqxcn13rd66i0,4XGcMbRp,2020-0188,2020-06-04,11:29:23,11:51:08,NA,incomplete,48,filling,1,1,left,Purple_Triangle_Chess_3.jpg,Green_Plus_Chess_2.jpg,Blue_Circle_Stripes_3.jpg,left,1001,true,low,NA,NA,NA,NA,NA,NA,NA,false
4XGcMbRp,3headtgn3s5yqh3y5nncdnm28bcvrm,3tdxmtx3cf725cj85uqxcn13rd66i0,4XGcMbRp,2020-0188,2020-06-04,11:29:23,11:51:08,NA,incomplete,49,filling,1,1,left,Green_Plus_Chess_2.jpg,Red_Star_Chess_3.jpg,Purple_Circle_Dots_2.jpg,left,904,true,low,NA,NA,NA,NA,NA,NA,NA,false
4XGcMbRp,3headtgn3s5yqh3y5nncdnm28bcvrm,3tdxmtx3cf725cj85uqxcn13rd66i0,4XGcMbRp,2020-0188,2020-06-04,11:29:23,11:51:08,NA,incomplete,50,filling,1,0,right,Blue_Star_Stripes_2.jpg,Green_Triangle_Dots_2.jpg,Red_Circle_Stripes_4.jpg,right,1120,true,low,NA,NA,NA,NA,NA,NA,NA,false
4XGcMbRp,3headtgn3s5yqh3y5nncdnm28bcvrm,3tdxmtx3cf725cj85uqxcn13rd66i0,4XGcMbRp,2020-0188,2020-06-04,11:29:23,11:51:08,NA,incomplete,51,filling,1,0,left,Purple_Plus_Dots_2.jpg,Green_Triangle_Dots_3.jpg,Blue_Star_Grid_2.jpg,right,935,false,low,NA,NA,NA,NA,NA,NA,NA,false
4XGcMbRp,3headtgn3s5yqh3y5nncdnm28bcvrm,3tdxmtx3cf725cj85uqxcn13rd66i0,4XGcMbRp,2020-0188,2020-06-04,11:29:23,11:51:08,NA,incomplete,52,filling,1,1,right,Purple_Circle_Grid_1.jpg,Blue_Triangle_Dots_1.jpg,Green_Plus_Grid_4.jpg,left,723,false,low,NA,NA,NA,NA,NA,NA,NA,false
4XGcMbRp,3headtgn3s5yqh3y5nncdnm28bcvrm,3tdxmtx3cf725cj85uqxcn13rd66i0,4XGcMbRp,2020-0188,2020-06-04,11:29:23,11:51:08,NA,incomplete,53,filling,1,1,left,Purple_Triangle_Chess_1.jpg,Red_Circle_Chess_3.jpg,Blue_Star_Grid_1.jpg,left,876,true,low,NA,NA,NA,NA,NA,NA,NA,false
4XGcMbRp,3headtgn3s5yqh3y5nncdnm28bcvrm,3tdxmtx3cf725cj85uqxcn13rd66i0,4XGcMbRp,2020-0188,2020-06-04,11:29:23,11:51:08,NA,incomplete,54,filling,1,1,left,Red_Triangle_Stripes_3.jpg,Blue_Circle_Stripes_4.jpg,Green_Star_Chess_3.jpg,left,870,true,low,NA,NA,NA,NA,NA,NA,NA,false
4XGcMbRp,3headtgn3s5yqh3y5nncdnm28bcvrm,3tdxmtx3cf725cj85uqxcn13rd66i0,4XGcMbRp,2020-0188,2020-06-04,11:29:23,11:51:08,NA,incomplete,55,filling,1,1,left,Purple_Plus_Stripes_4.jpg,Green_Triangle_Stripes_2.jpg,Blue_Circle_Dots_4.jpg,left,832,true,low,NA,NA,NA,NA,NA,NA,NA,false
4XGcMbRp,3headtgn3s5yqh3y5nncdnm28bcvrm,3tdxmtx3cf725cj85uqxcn13rd66i0,4XGcMbRp,2020-0188,2020-06-04,11:29:23,11:51:08,NA,incomplete,56,filling,1,1,left,Blue_Triangle_Chess_3.jpg,Green_Plus_Chess_4.jpg,Red_Star_Dots_3.jpg,left,915,true,low,NA,NA,NA,NA,NA,NA,NA,false
4XGcMbRp,3headtgn3s5yqh3y5nncdnm28bcvrm,3tdxmtx3cf725cj85uqxcn13rd66i0,4XGcMbRp,2020-0188,2020-06-04,11:29:23,11:51:08,NA,incomplete,57,filling,1,1,right,Purple_Circle_Chess_2.jpg,Green_Triangle_Stripes_2.jpg,Red_Star_Chess_4.jpg,right,1017,true,low,NA,NA,NA,NA,NA,NA,NA,false
4XGcMbRp,3headtgn3s5yqh3y5nncdnm28bcvrm,3tdxmtx3cf725cj85uqxcn13rd66i0,4XGcMbRp,2020-0188,2020-06-04,11:29:23,11:51:08,NA,incomplete,58,filling,1,1,left,Red_Triangle_Stripes_2.jpg,Purple_Plus_Stripes_1.jpg,Green_Star_Grid_2.jpg,left,839,true,low,NA,NA,NA,NA,NA,NA,NA,false
4XGcMbRp,3headtgn3s5yqh3y5nncdnm28bcvrm,3tdxmtx3cf725cj85uqxcn13rd66i0,4XGcMbRp,2020-0188,2020-06-04,11:29:23,11:51:08,NA,incomplete,59,filling,1,1,right,Blue_Triangle_Dots_3.jpg,Purple_Star_Grid_3.jpg,Green_Circle_Dots_4.jpg,right,1000,true,low,NA,NA,NA,NA,NA,NA,NA,false
4XGcMbRp,3headtgn3s5yqh3y5nncdnm28bcvrm,3tdxmtx3cf725cj85uqxcn13rd66i0,4XGcMbRp,2020-0188,2020-06-04,11:29:23,11:51:08,NA,incomplete,60,number,0,1,right,Green_Plus_Dots_3.jpg,Blue_Circle_Dots_4.jpg,Red_Star_Chess_3.jpg,left,915,false,low,NA,NA,NA,NA,NA,NA,NA,false
4XGcMbRp,3headtgn3s5yqh3y5nncdnm28bcvrm,3tdxmtx3cf725cj85uqxcn13rd66i0,4XGcMbRp,2020-0188,2020-06-04,11:29:23,11:51:08,NA,incomplete,61,number,0,1,right,Blue_Star_Stripes_3.jpg,Red_Plus_Stripes_4.jpg,Purple_Circle_Grid_3.jpg,left,1045,false,low,NA,NA,NA,NA,NA,NA,NA,false
4XGcMbRp,3headtgn3s5yqh3y5nncdnm28bcvrm,3tdxmtx3cf725cj85uqxcn13rd66i0,4XGcMbRp,2020-0188,2020-06-04,11:29:23,11:51:08,NA,incomplete,62,number,0,1,right,Red_Plus_Stripes_1.jpg,Green_Circle_Stripes_2.jpg,Purple_Triangle_Chess_1.jpg,left,1320,false,low,NA,NA,NA,NA,NA,NA,NA,false
4XGcMbRp,3headtgn3s5yqh3y5nncdnm28bcvrm,3tdxmtx3cf725cj85uqxcn13rd66i0,4XGcMbRp,2020-0188,2020-06-04,11:29:23,11:51:08,NA,incomplete,63,number,0,1,right,Red_Star_Stripes_2.jpg,Green_Circle_Stripes_4.jpg,Purple_Triangle_Chess_2.jpg,right,774,true,low,NA,NA,NA,NA,NA,NA,NA,false
4XGcMbRp,3headtgn3s5yqh3y5nncdnm28bcvrm,3tdxmtx3cf725cj85uqxcn13rd66i0,4XGcMbRp,2020-0188,2020-06-04,11:29:23,11:51:08,NA,incomplete,64,number,0,1,left,Blue_Plus_Grid_2.jpg,Red_Star_Chess_2.jpg,Purple_Circle_Grid_4.jpg,left,700,true,low,NA,NA,NA,NA,NA,NA,NA,false
4XGcMbRp,3headtgn3s5yqh3y5nncdnm28bcvrm,3tdxmtx3cf725cj85uqxcn13rd66i0,4XGcMbRp,2020-0188,2020-06-04,11:29:23,11:51:08,NA,incomplete,65,number,0,1,right,Red_Triangle_Chess_3.jpg,Blue_Circle_Chess_1.jpg,Purple_Star_Stripes_3.jpg,right,670,true,low,NA,NA,NA,NA,NA,NA,NA,false
4XGcMbRp,3headtgn3s5yqh3y5nncdnm28bcvrm,3tdxmtx3cf725cj85uqxcn13rd66i0,4XGcMbRp,2020-0188,2020-06-04,11:29:23,11:51:08,NA,incomplete,66,number,0,1,right,Green_Triangle_Grid_2.jpg,Purple_Plus_Grid_3.jpg,Red_Circle_Dots_2.jpg,right,799,true,low,NA,NA,NA,NA,NA,NA,NA,false
4XGcMbRp,3headtgn3s5yqh3y5nncdnm28bcvrm,3tdxmtx3cf725cj85uqxcn13rd66i0,4XGcMbRp,2020-0188,2020-06-04,11:29:23,11:51:08,NA,incomplete,67,number,0,1,left,Blue_Plus_Chess_2.jpg,Purple_Circle_Dots_2.jpg,Red_Star_Chess_4.jpg,left,753,true,low,NA,NA,NA,NA,NA,NA,NA,false
4XGcMbRp,3headtgn3s5yqh3y5nncdnm28bcvrm,3tdxmtx3cf725cj85uqxcn13rd66i0,4XGcMbRp,2020-0188,2020-06-04,11:29:23,11:51:08,NA,incomplete,68,number,0,1,left,Red_Plus_Chess_1.jpg,Green_Star_Grid_1.jpg,Purple_Triangle_Chess_4.jpg,left,745,true,low,NA,NA,NA,NA,NA,NA,NA,false
4XGcMbRp,3headtgn3s5yqh3y5nncdnm28bcvrm,3tdxmtx3cf725cj85uqxcn13rd66i0,4XGcMbRp,2020-0188,2020-06-04,11:29:23,11:51:08,NA,incomplete,69,number,0,1,right,Red_Plus_Chess_3.jpg,Purple_Triangle_Chess_4.jpg,Green_Circle_Grid_3.jpg,right,782,true,low,NA,NA,NA,NA,NA,NA,NA,false
4XGcMbRp,3headtgn3s5yqh3y5nncdnm28bcvrm,3tdxmtx3cf725cj85uqxcn13rd66i0,4XGcMbRp,2020-0188,2020-06-04,11:29:23,11:51:08,NA,incomplete,70,number,0,0,left,Purple_Triangle_Chess_4.jpg,Green_Circle_Grid_4.jpg,Red_Star_Chess_2.jpg,left,694,true,low,NA,NA,NA,NA,NA,NA,NA,false
4XGcMbRp,3headtgn3s5yqh3y5nncdnm28bcvrm,3tdxmtx3cf725cj85uqxcn13rd66i0,4XGcMbRp,2020-0188,2020-06-04,11:29:23,11:51:08,NA,incomplete,71,number,0,1,right,Green_Star_Dots_2.jpg,Purple_Circle_Dots_4.jpg,Blue_Triangle_Stripes_2.jpg,right,838,true,low,NA,NA,NA,NA,NA,NA,NA,false
4XGcMbRp,3headtgn3s5yqh3y5nncdnm28bcvrm,3tdxmtx3cf725cj85uqxcn13rd66i0,4XGcMbRp,2020-0188,2020-06-04,11:29:23,11:51:08,NA,incomplete,72,number,0,0,left,Purple_Triangle_Chess_4.jpg,Green_Circle_Grid_4.jpg,Blue_Plus_Chess_3.jpg,left,1054,true,low,NA,NA,NA,NA,NA,NA,NA,false
4XGcMbRp,3headtgn3s5yqh3y5nncdnm28bcvrm,3tdxmtx3cf725cj85uqxcn13rd66i0,4XGcMbRp,2020-0188,2020-06-04,11:29:23,11:51:08,NA,incomplete,73,number,0,1,left,Red_Triangle_Grid_4.jpg,Purple_Circle_Chess_4.jpg,Green_Plus_Grid_3.jpg,left,755,true,low,NA,NA,NA,NA,NA,NA,NA,false
4XGcMbRp,3headtgn3s5yqh3y5nncdnm28bcvrm,3tdxmtx3cf725cj85uqxcn13rd66i0,4XGcMbRp,2020-0188,2020-06-04,11:29:23,11:51:08,NA,incomplete,74,number,0,1,right,Purple_Plus_Stripes_4.jpg,Green_Triangle_Stripes_3.jpg,Red_Circle_Chess_4.jpg,left,1112,false,low,NA,NA,NA,NA,NA,NA,NA,false
4XGcMbRp,3headtgn3s5yqh3y5nncdnm28bcvrm,3tdxmtx3cf725cj85uqxcn13rd66i0,4XGcMbRp,2020-0188,2020-06-04,11:29:23,11:51:08,NA,incomplete,75,number,0,1,left,Red_Plus_Stripes_3.jpg,Purple_Circle_Dots_3.jpg,Green_Triangle_Stripes_2.jpg,left,793,true,low,NA,NA,NA,NA,NA,NA,NA,false
4XGcMbRp,3headtgn3s5yqh3y5nncdnm28bcvrm,3tdxmtx3cf725cj85uqxcn13rd66i0,4XGcMbRp,2020-0188,2020-06-04,11:29:23,11:51:08,NA,incomplete,76,number,0,1,right,Green_Triangle_Chess_2.jpg,Blue_Plus_Chess_4.jpg,Purple_Star_Stripes_2.jpg,right,779,true,low,NA,NA,NA,NA,NA,NA,NA,false
4XGcMbRp,3headtgn3s5yqh3y5nncdnm28bcvrm,3tdxmtx3cf725cj85uqxcn13rd66i0,4XGcMbRp,2020-0188,2020-06-04,11:29:23,11:51:08,NA,incomplete,77,number,0,1,right,Purple_Plus_Chess_2.jpg,Green_Triangle_Chess_4.jpg,Red_Star_Grid_2.jpg,right,840,true,low,NA,NA,NA,NA,NA,NA,NA,false
4XGcMbRp,3headtgn3s5yqh3y5nncdnm28bcvrm,3tdxmtx3cf725cj85uqxcn13rd66i0,4XGcMbRp,2020-0188,2020-06-04,11:29:23,11:51:08,NA,incomplete,78,number,0,1,right,Red_Circle_Grid_3.jpg,Purple_Triangle_Grid_2.jpg,Blue_Star_Stripes_3.jpg,right,765,true,low,NA,NA,NA,NA,NA,NA,NA,false
4XGcMbRp,3headtgn3s5yqh3y5nncdnm28bcvrm,3tdxmtx3cf725cj85uqxcn13rd66i0,4XGcMbRp,2020-0188,2020-06-04,11:29:23,11:51:08,NA,incomplete,79,number,0,1,left,Purple_Triangle_Dots_4.jpg,Red_Plus_Grid_4.jpg,Blue_Star_Dots_1.jpg,left,668,true,low,NA,NA,NA,NA,NA,NA,NA,false
4XGcMbRp,3headtgn3s5yqh3y5nncdnm28bcvrm,3tdxmtx3cf725cj85uqxcn13rd66i0,4XGcMbRp,2020-0188,2020-06-04,11:29:23,11:51:08,NA,incomplete,80,number,0,0,right,Purple_Triangle_Stripes_4.jpg,Blue_Star_Stripes_1.jpg,Green_Plus_Grid_4.jpg,right,683,true,low,NA,NA,NA,NA,NA,NA,NA,false
4XGcMbRp,3headtgn3s5yqh3y5nncdnm28bcvrm,3tdxmtx3cf725cj85uqxcn13rd66i0,4XGcMbRp,2020-0188,2020-06-04,11:29:23,11:51:08,NA,incomplete,81,number,0,1,right,Purple_Plus_Dots_1.jpg,Red_Triangle_Dots_2.jpg,Green_Star_Chess_1.jpg,right,835,true,low,NA,NA,NA,NA,NA,NA,NA,false
4XGcMbRp,3headtgn3s5yqh3y5nncdnm28bcvrm,3tdxmtx3cf725cj85uqxcn13rd66i0,4XGcMbRp,2020-0188,2020-06-04,11:29:23,11:51:08,NA,incomplete,82,number,0,0,right,Blue_Star_Chess_3.jpg,Red_Plus_Chess_2.jpg,Purple_Circle_Dots_3.jpg,right,735,true,low,NA,NA,NA,NA,NA,NA,NA,false
4XGcMbRp,3headtgn3s5yqh3y5nncdnm28bcvrm,3tdxmtx3cf725cj85uqxcn13rd66i0,4XGcMbRp,2020-0188,2020-06-04,11:29:23,11:51:08,NA,incomplete,83,number,0,1,right,Blue_Triangle_Grid_1.jpg,Red_Plus_Grid_3.jpg,Green_Circle_Chess_1.jpg,right,807,true,low,NA,NA,NA,NA,NA,NA,NA,false
4XGcMbRp,3headtgn3s5yqh3y5nncdnm28bcvrm,3tdxmtx3cf725cj85uqxcn13rd66i0,4XGcMbRp,2020-0188,2020-06-04,11:29:23,11:51:08,NA,incomplete,84,number,0,1,right,Green_Star_Stripes_1.jpg,Blue_Plus_Stripes_3.jpg,Red_Circle_Grid_1.jpg,right,658,true,low,NA,NA,NA,NA,NA,NA,NA,false
4XGcMbRp,3headtgn3s5yqh3y5nncdnm28bcvrm,3tdxmtx3cf725cj85uqxcn13rd66i0,4XGcMbRp,2020-0188,2020-06-04,11:29:23,11:51:08,NA,incomplete,85,number,0,1,right,Green_Star_Chess_3.jpg,Purple_Triangle_Chess_4.jpg,Red_Circle_Grid_3.jpg,right,724,true,low,NA,NA,NA,NA,NA,NA,NA,false
4XGcMbRp,3headtgn3s5yqh3y5nncdnm28bcvrm,3tdxmtx3cf725cj85uqxcn13rd66i0,4XGcMbRp,2020-0188,2020-06-04,11:29:23,11:51:08,NA,incomplete,86,number,0,0,right,Blue_Triangle_Chess_2.jpg,Red_Plus_Chess_4.jpg,Green_Circle_Grid_2.jpg,right,756,true,low,NA,NA,NA,NA,NA,NA,NA,false
4XGcMbRp,3headtgn3s5yqh3y5nncdnm28bcvrm,3tdxmtx3cf725cj85uqxcn13rd66i0,4XGcMbRp,2020-0188,2020-06-04,11:29:23,11:51:08,NA,incomplete,87,number,0,1,right,Blue_Plus_Dots_3.jpg,Purple_Triangle_Dots_4.jpg,Red_Circle_Grid_3.jpg,left,1105,false,low,NA,NA,NA,NA,NA,NA,NA,false
4XGcMbRp,3headtgn3s5yqh3y5nncdnm28bcvrm,3tdxmtx3cf725cj85uqxcn13rd66i0,4XGcMbRp,2020-0188,2020-06-04,11:29:23,11:51:08,NA,incomplete,88,number,0,0,right,Purple_Circle_Dots_1.jpg,Blue_Plus_Dots_2.jpg,Red_Triangle_Chess_1.jpg,right,1106,true,low,NA,NA,NA,NA,NA,NA,NA,false
4XGcMbRp,3headtgn3s5yqh3y5nncdnm28bcvrm,3tdxmtx3cf725cj85uqxcn13rd66i0,4XGcMbRp,2020-0188,2020-06-04,11:29:23,11:51:08,NA,incomplete,89,number,0,1,right,Purple_Plus_Stripes_1.jpg,Blue_Triangle_Stripes_3.jpg,Red_Star_Dots_1.jpg,right,1080,true,low,NA,NA,NA,NA,NA,NA,NA,false
4XGcMbRp,3headtgn3s5yqh3y5nncdnm28bcvrm,3tdxmtx3cf725cj85uqxcn13rd66i0,4XGcMbRp,2020-0188,2020-06-04,11:29:23,11:51:08,NA,incomplete,90,filling,1,1,left,Blue_Plus_Dots_1.jpg,Green_Triangle_Dots_4.jpg,Purple_Star_Chess_1.jpg,right,684,false,low,NA,NA,NA,NA,NA,NA,NA,false
4XGcMbRp,3headtgn3s5yqh3y5nncdnm28bcvrm,3tdxmtx3cf725cj85uqxcn13rd66i0,4XGcMbRp,2020-0188,2020-06-04,11:29:23,11:51:08,NA,incomplete,91,filling,1,1,right,Red_Star_Grid_3.jpg,Green_Plus_Dots_3.jpg,Purple_Triangle_Grid_2.jpg,left,803,false,low,NA,NA,NA,NA,NA,NA,NA,false
4XGcMbRp,3headtgn3s5yqh3y5nncdnm28bcvrm,3tdxmtx3cf725cj85uqxcn13rd66i0,4XGcMbRp,2020-0188,2020-06-04,11:29:23,11:51:08,NA,incomplete,92,filling,1,1,right,Red_Star_Chess_2.jpg,Green_Triangle_Grid_2.jpg,Blue_Plus_Chess_4.jpg,right,1018,true,low,NA,NA,NA,NA,NA,NA,NA,false
4XGcMbRp,3headtgn3s5yqh3y5nncdnm28bcvrm,3tdxmtx3cf725cj85uqxcn13rd66i0,4XGcMbRp,2020-0188,2020-06-04,11:29:23,11:51:08,NA,incomplete,93,filling,1,1,left,Purple_Star_Chess_2.jpg,Green_Plus_Chess_3.jpg,Red_Circle_Stripes_2.jpg,left,1340,true,low,NA,NA,NA,NA,NA,NA,NA,false
4XGcMbRp,3headtgn3s5yqh3y5nncdnm28bcvrm,3tdxmtx3cf725cj85uqxcn13rd66i0,4XGcMbRp,2020-0188,2020-06-04,11:29:23,11:51:08,NA,incomplete,94,filling,1,1,right,Red_Circle_Stripes_1.jpg,Purple_Triangle_Grid_1.jpg,Blue_Plus_Stripes_2.jpg,right,1065,true,low,NA,NA,NA,NA,NA,NA,NA,false
4XGcMbRp,3headtgn3s5yqh3y5nncdnm28bcvrm,3tdxmtx3cf725cj85uqxcn13rd66i0,4XGcMbRp,2020-0188,2020-06-04,11:29:23,11:51:08,NA,incomplete,95,filling,1,1,left,Purple_Star_Stripes_3.jpg,Green_Circle_Stripes_1.jpg,Red_Triangle_Dots_3.jpg,left,877,true,low,NA,NA,NA,NA,NA,NA,NA,false
4XGcMbRp,3headtgn3s5yqh3y5nncdnm28bcvrm,3tdxmtx3cf725cj85uqxcn13rd66i0,4XGcMbRp,2020-0188,2020-06-04,11:29:23,11:51:08,NA,incomplete,96,filling,1,1,right,Red_Triangle_Dots_4.jpg,Purple_Plus_Grid_4.jpg,Green_Star_Dots_2.jpg,right,1063,true,low,NA,NA,NA,NA,NA,NA,NA,false
4XGcMbRp,3headtgn3s5yqh3y5nncdnm28bcvrm,3tdxmtx3cf725cj85uqxcn13rd66i0,4XGcMbRp,2020-0188,2020-06-04,11:29:23,11:51:08,NA,incomplete,97,filling,1,0,right,Green_Circle_Stripes_3.jpg,Red_Triangle_Grid_3.jpg,Blue_Star_Stripes_1.jpg,right,1000,true,low,NA,NA,NA,NA,NA,NA,NA,false
4XGcMbRp,3headtgn3s5yqh3y5nncdnm28bcvrm,3tdxmtx3cf725cj85uqxcn13rd66i0,4XGcMbRp,2020-0188,2020-06-04,11:29:23,11:51:08,NA,incomplete,98,filling,1,1,right,Blue_Star_Chess_3.jpg,Green_Circle_Stripes_3.jpg,Red_Triangle_Chess_4.jpg,right,997,true,low,NA,NA,NA,NA,NA,NA,NA,false
4XGcMbRp,3headtgn3s5yqh3y5nncdnm28bcvrm,3tdxmtx3cf725cj85uqxcn13rd66i0,4XGcMbRp,2020-0188,2020-06-04,11:29:23,11:51:08,NA,incomplete,99,filling,1,1,right,Red_Triangle_Dots_1.jpg,Green_Plus_Stripes_1.jpg,Blue_Star_Dots_4.jpg,right,1042,true,low,NA,NA,NA,NA,NA,NA,NA,false
4XGcMbRp,3headtgn3s5yqh3y5nncdnm28bcvrm,3tdxmtx3cf725cj85uqxcn13rd66i0,4XGcMbRp,2020-0188,2020-06-04,11:29:23,11:51:08,NA,incomplete,100,filling,1,1,right,Red_Circle_Stripes_4.jpg,Purple_Star_Grid_4.jpg,Green_Triangle_Stripes_2.jpg,right,948,true,low,NA,NA,NA,NA,NA,NA,NA,false
4XGcMbRp,3headtgn3s5yqh3y5nncdnm28bcvrm,3tdxmtx3cf725cj85uqxcn13rd66i0,4XGcMbRp,2020-0188,2020-06-04,11:29:23,11:51:08,NA,incomplete,101,filling,1,1,right,Blue_Triangle_Grid_3.jpg,Green_Star_Chess_3.jpg,Red_Plus_Grid_2.jpg,right,928,true,low,NA,NA,NA,NA,NA,NA,NA,false
4XGcMbRp,3headtgn3s5yqh3y5nncdnm28bcvrm,3tdxmtx3cf725cj85uqxcn13rd66i0,4XGcMbRp,2020-0188,2020-06-04,11:29:23,11:51:08,NA,incomplete,102,filling,1,1,left,Blue_Circle_Stripes_1.jpg,Green_Triangle_Stripes_3.jpg,Purple_Star_Dots_1.jpg,left,763,true,low,NA,NA,NA,NA,NA,NA,NA,false
4XGcMbRp,3headtgn3s5yqh3y5nncdnm28bcvrm,3tdxmtx3cf725cj85uqxcn13rd66i0,4XGcMbRp,2020-0188,2020-06-04,11:29:23,11:51:08,NA,incomplete,103,filling,1,1,left,Blue_Triangle_Dots_3.jpg,Purple_Plus_Dots_2.jpg,Green_Circle_Stripes_3.jpg,left,927,true,low,NA,NA,NA,NA,NA,NA,NA,false
4XGcMbRp,3headtgn3s5yqh3y5nncdnm28bcvrm,3tdxmtx3cf725cj85uqxcn13rd66i0,4XGcMbRp,2020-0188,2020-06-04,11:29:23,11:51:08,NA,incomplete,104,filling,1,1,right,Green_Star_Chess_4.jpg,Purple_Triangle_Grid_4.jpg,Red_Circle_Chess_2.jpg,right,1190,true,low,NA,NA,NA,NA,NA,NA,NA,false
4XGcMbRp,3headtgn3s5yqh3y5nncdnm28bcvrm,3tdxmtx3cf725cj85uqxcn13rd66i0,4XGcMbRp,2020-0188,2020-06-04,11:29:23,11:51:08,NA,incomplete,105,filling,1,1,left,Purple_Triangle_Dots_2.jpg,Red_Circle_Dots_1.jpg,Green_Star_Grid_2.jpg,left,796,true,low,NA,NA,NA,NA,NA,NA,NA,false
4XGcMbRp,3headtgn3s5yqh3y5nncdnm28bcvrm,3tdxmtx3cf725cj85uqxcn13rd66i0,4XGcMbRp,2020-0188,2020-06-04,11:29:23,11:51:08,NA,incomplete,106,filling,1,0,right,Green_Circle_Grid_4.jpg,Blue_Star_Stripes_4.jpg,Purple_Triangle_Grid_2.jpg,right,888,true,low,NA,NA,NA,NA,NA,NA,NA,false
4XGcMbRp,3headtgn3s5yqh3y5nncdnm28bcvrm,3tdxmtx3cf725cj85uqxcn13rd66i0,4XGcMbRp,2020-0188,2020-06-04,11:29:23,11:51:08,NA,incomplete,107,filling,1,0,right,Purple_Plus_Grid_1.jpg,Blue_Triangle_Stripes_1.jpg,Green_Circle_Grid_4.jpg,right,945,true,low,NA,NA,NA,NA,NA,NA,NA,false
4XGcMbRp,3headtgn3s5yqh3y5nncdnm28bcvrm,3tdxmtx3cf725cj85uqxcn13rd66i0,4XGcMbRp,2020-0188,2020-06-04,11:29:23,11:51:08,NA,incomplete,108,filling,1,1,left,Blue_Triangle_Dots_3.jpg,Red_Star_Dots_1.jpg,Green_Plus_Chess_3.jpg,left,1079,true,low,NA,NA,NA,NA,NA,NA,NA,false
4XGcMbRp,3headtgn3s5yqh3y5nncdnm28bcvrm,3tdxmtx3cf725cj85uqxcn13rd66i0,4XGcMbRp,2020-0188,2020-06-04,11:29:23,11:51:08,NA,incomplete,109,filling,1,1,right,Green_Plus_Chess_2.jpg,Blue_Star_Grid_2.jpg,Red_Triangle_Chess_3.jpg,right,833,true,low,NA,NA,NA,NA,NA,NA,NA,false
4XGcMbRp,3headtgn3s5yqh3y5nncdnm28bcvrm,3tdxmtx3cf725cj85uqxcn13rd66i0,4XGcMbRp,2020-0188,2020-06-04,11:29:23,11:51:08,NA,incomplete,110,filling,1,1,right,Red_Circle_Grid_2.jpg,Purple_Triangle_Stripes_2.jpg,Green_Star_Grid_4.jpg,right,986,true,low,NA,NA,NA,NA,NA,NA,NA,false
4XGcMbRp,3headtgn3s5yqh3y5nncdnm28bcvrm,3tdxmtx3cf725cj85uqxcn13rd66i0,4XGcMbRp,2020-0188,2020-06-04,11:29:23,11:51:08,NA,incomplete,111,filling,1,0,left,Green_Star_Grid_3.jpg,Purple_Triangle_Grid_2.jpg,Red_Circle_Stripes_3.jpg,left,999,true,low,NA,NA,NA,NA,NA,NA,NA,false
4XGcMbRp,3headtgn3s5yqh3y5nncdnm28bcvrm,3tdxmtx3cf725cj85uqxcn13rd66i0,4XGcMbRp,2020-0188,2020-06-04,11:29:23,11:51:08,NA,incomplete,112,filling,1,1,left,Red_Star_Stripes_2.jpg,Green_Triangle_Stripes_1.jpg,Blue_Circle_Chess_2.jpg,left,917,true,low,NA,NA,NA,NA,NA,NA,NA,false
4XGcMbRp,3headtgn3s5yqh3y5nncdnm28bcvrm,3tdxmtx3cf725cj85uqxcn13rd66i0,4XGcMbRp,2020-0188,2020-06-04,11:29:23,11:51:08,NA,incomplete,113,filling,1,0,left,Red_Star_Stripes_2.jpg,Blue_Triangle_Stripes_3.jpg,Green_Circle_Grid_2.jpg,left,1014,true,low,NA,NA,NA,NA,NA,NA,NA,false
4XGcMbRp,3headtgn3s5yqh3y5nncdnm28bcvrm,3tdxmtx3cf725cj85uqxcn13rd66i0,4XGcMbRp,2020-0188,2020-06-04,11:29:23,11:51:08,NA,incomplete,114,filling,1,1,left,Purple_Star_Stripes_1.jpg,Red_Triangle_Stripes_3.jpg,Green_Circle_Grid_1.jpg,left,962,true,low,NA,NA,NA,NA,NA,NA,NA,false
4XGcMbRp,3headtgn3s5yqh3y5nncdnm28bcvrm,3tdxmtx3cf725cj85uqxcn13rd66i0,4XGcMbRp,2020-0188,2020-06-04,11:29:23,11:51:08,NA,incomplete,115,filling,1,1,left,Red_Star_Dots_3.jpg,Purple_Triangle_Dots_4.jpg,Green_Circle_Grid_3.jpg,left,1136,true,low,NA,NA,NA,NA,NA,NA,NA,false
4XGcMbRp,3headtgn3s5yqh3y5nncdnm28bcvrm,3tdxmtx3cf725cj85uqxcn13rd66i0,4XGcMbRp,2020-0188,2020-06-04,11:29:23,11:51:08,NA,incomplete,116,filling,1,1,right,Green_Triangle_Stripes_3.jpg,Purple_Plus_Chess_3.jpg,Blue_Circle_Stripes_1.jpg,right,980,true,low,NA,NA,NA,NA,NA,NA,NA,false
4XGcMbRp,3headtgn3s5yqh3y5nncdnm28bcvrm,3tdxmtx3cf725cj85uqxcn13rd66i0,4XGcMbRp,2020-0188,2020-06-04,11:29:23,11:51:08,NA,incomplete,117,filling,1,1,right,Blue_Circle_Grid_2.jpg,Purple_Star_Dots_2.jpg,Green_Plus_Grid_4.jpg,right,842,true,low,NA,NA,NA,NA,NA,NA,NA,false
4XGcMbRp,3headtgn3s5yqh3y5nncdnm28bcvrm,3tdxmtx3cf725cj85uqxcn13rd66i0,4XGcMbRp,2020-0188,2020-06-04,11:29:23,11:51:08,NA,incomplete,118,filling,1,1,right,Green_Plus_Chess_1.jpg,Red_Star_Dots_1.jpg,Purple_Triangle_Chess_2.jpg,right,863,true,low,NA,NA,NA,NA,NA,NA,NA,false
4XGcMbRp,3headtgn3s5yqh3y5nncdnm28bcvrm,3tdxmtx3cf725cj85uqxcn13rd66i0,4XGcMbRp,2020-0188,2020-06-04,11:29:23,11:51:08,NA,incomplete,119,filling,1,1,left,Purple_Plus_Grid_4.jpg,Red_Triangle_Grid_2.jpg,Green_Star_Stripes_4.jpg,left,807,true,low,NA,NA,NA,NA,NA,NA,NA,false
4XGcMbRp,3headtgn3s5yqh3y5nncdnm28bcvrm,3tdxmtx3cf725cj85uqxcn13rd66i0,4XGcMbRp,2020-0188,2020-06-04,11:29:23,11:51:08,NA,incomplete,120,race,2,1,left,C_F_03.jpg,C_M_01.jpg,A_F_13.jpg,NA,NA,NA,low,NA,NA,NA,NA,NA,NA,NA,false
4XGcMbRp,3headtgn3s5yqh3y5nncdnm28bcvrm,3tdxmtx3cf725cj85uqxcn13rd66i0,4XGcMbRp,2020-0188,2020-06-04,11:29:23,11:51:08,NA,incomplete,121,race,2,0,left,A_M_04.jpg,A_F_03.jpg,C_M_08.jpg,right,1810,false,low,NA,NA,NA,NA,NA,NA,NA,false
4XGcMbRp,3headtgn3s5yqh3y5nncdnm28bcvrm,3tdxmtx3cf725cj85uqxcn13rd66i0,4XGcMbRp,2020-0188,2020-06-04,11:29:23,11:51:08,NA,incomplete,122,race,2,1,right,C_F_14.jpg,A_F_07.jpg,C_M_09.jpg,left,1304,false,low,NA,NA,NA,NA,NA,NA,NA,false
4XGcMbRp,3headtgn3s5yqh3y5nncdnm28bcvrm,3tdxmtx3cf725cj85uqxcn13rd66i0,4XGcMbRp,2020-0188,2020-06-04,11:29:23,11:51:08,NA,incomplete,123,race,2,1,left,A_M_14.jpg,A_F_12.jpg,C_M_06.jpg,right,1200,false,low,NA,NA,NA,NA,NA,NA,NA,false
4XGcMbRp,3headtgn3s5yqh3y5nncdnm28bcvrm,3tdxmtx3cf725cj85uqxcn13rd66i0,4XGcMbRp,2020-0188,2020-06-04,11:29:23,11:51:08,NA,incomplete,124,race,2,1,right,A_M_05.jpg,C_M_03.jpg,A_F_01.jpg,right,1181,true,low,NA,NA,NA,NA,NA,NA,NA,false
4XGcMbRp,3headtgn3s5yqh3y5nncdnm28bcvrm,3tdxmtx3cf725cj85uqxcn13rd66i0,4XGcMbRp,2020-0188,2020-06-04,11:29:23,11:51:08,NA,incomplete,125,race,2,1,left,A_M_05.jpg,A_F_07.jpg,C_M_15.jpg,left,1281,true,low,NA,NA,NA,NA,NA,NA,NA,false
4XGcMbRp,3headtgn3s5yqh3y5nncdnm28bcvrm,3tdxmtx3cf725cj85uqxcn13rd66i0,4XGcMbRp,2020-0188,2020-06-04,11:29:23,11:51:08,NA,incomplete,126,race,2,1,left,A_M_14.jpg,A_F_05.jpg,C_M_15.jpg,left,1029,true,low,NA,NA,NA,NA,NA,NA,NA,false
4XGcMbRp,3headtgn3s5yqh3y5nncdnm28bcvrm,3tdxmtx3cf725cj85uqxcn13rd66i0,4XGcMbRp,2020-0188,2020-06-04,11:29:23,11:51:08,NA,incomplete,127,race,2,1,right,A_M_12.jpg,C_M_04.jpg,A_F_07.jpg,right,960,true,low,NA,NA,NA,NA,NA,NA,NA,false
4XGcMbRp,3headtgn3s5yqh3y5nncdnm28bcvrm,3tdxmtx3cf725cj85uqxcn13rd66i0,4XGcMbRp,2020-0188,2020-06-04,11:29:23,11:51:08,NA,incomplete,128,race,2,1,left,A_M_06.jpg,A_F_01.jpg,C_M_07.jpg,right,989,false,low,NA,NA,NA,NA,NA,NA,NA,false
4XGcMbRp,3headtgn3s5yqh3y5nncdnm28bcvrm,3tdxmtx3cf725cj85uqxcn13rd66i0,4XGcMbRp,2020-0188,2020-06-04,11:29:23,11:51:08,NA,incomplete,129,race,2,1,left,C_M_12.jpg,C_F_11.jpg,A_M_02.jpg,left,1171,true,low,NA,NA,NA,NA,NA,NA,NA,false
4XGcMbRp,3headtgn3s5yqh3y5nncdnm28bcvrm,3tdxmtx3cf725cj85uqxcn13rd66i0,4XGcMbRp,2020-0188,2020-06-04,11:29:23,11:51:08,NA,incomplete,130,race,2,1,left,A_F_07.jpg,A_M_13.jpg,C_F_09.jpg,left,774,true,low,NA,NA,NA,NA,NA,NA,NA,false
4XGcMbRp,3headtgn3s5yqh3y5nncdnm28bcvrm,3tdxmtx3cf725cj85uqxcn13rd66i0,4XGcMbRp,2020-0188,2020-06-04,11:29:23,11:51:08,NA,incomplete,131,race,2,1,right,C_M_15.jpg,A_M_16.jpg,C_F_14.jpg,right,916,true,low,NA,NA,NA,NA,NA,NA,NA,false
4XGcMbRp,3headtgn3s5yqh3y5nncdnm28bcvrm,3tdxmtx3cf725cj85uqxcn13rd66i0,4XGcMbRp,2020-0188,2020-06-04,11:29:23,11:51:08,NA,incomplete,132,race,2,0,left,A_M_13.jpg,A_F_15.jpg,C_M_06.jpg,left,813,true,low,NA,NA,NA,NA,NA,NA,NA,false
4XGcMbRp,3headtgn3s5yqh3y5nncdnm28bcvrm,3tdxmtx3cf725cj85uqxcn13rd66i0,4XGcMbRp,2020-0188,2020-06-04,11:29:23,11:51:08,NA,incomplete,133,race,2,1,left,C_F_06.jpg,C_M_05.jpg,A_F_03.jpg,right,1281,false,low,NA,NA,NA,NA,NA,NA,NA,false
4XGcMbRp,3headtgn3s5yqh3y5nncdnm28bcvrm,3tdxmtx3cf725cj85uqxcn13rd66i0,4XGcMbRp,2020-0188,2020-06-04,11:29:23,11:51:08,NA,incomplete,134,race,2,1,right,A_F_05.jpg,C_F_16.jpg,A_M_14.jpg,left,1154,false,low,NA,NA,NA,NA,NA,NA,NA,false
4XGcMbRp,3headtgn3s5yqh3y5nncdnm28bcvrm,3tdxmtx3cf725cj85uqxcn13rd66i0,4XGcMbRp,2020-0188,2020-06-04,11:29:23,11:51:08,NA,incomplete,135,race,2,1,left,A_F_08.jpg,A_M_07.jpg,C_F_12.jpg,left,871,true,low,NA,NA,NA,NA,NA,NA,NA,false
4XGcMbRp,3headtgn3s5yqh3y5nncdnm28bcvrm,3tdxmtx3cf725cj85uqxcn13rd66i0,4XGcMbRp,2020-0188,2020-06-04,11:29:23,11:51:08,NA,incomplete,136,race,2,1,right,C_F_14.jpg,A_F_03.jpg,C_M_05.jpg,right,1240,true,low,NA,NA,NA,NA,NA,NA,NA,false
4XGcMbRp,3headtgn3s5yqh3y5nncdnm28bcvrm,3tdxmtx3cf725cj85uqxcn13rd66i0,4XGcMbRp,2020-0188,2020-06-04,11:29:23,11:51:08,NA,incomplete,137,race,2,1,left,C_F_09.jpg,C_M_01.jpg,A_F_04.jpg,left,1194,true,low,NA,NA,NA,NA,NA,NA,NA,false
4XGcMbRp,3headtgn3s5yqh3y5nncdnm28bcvrm,3tdxmtx3cf725cj85uqxcn13rd66i0,4XGcMbRp,2020-0188,2020-06-04,11:29:23,11:51:08,NA,incomplete,138,race,2,0,left,C_F_10.jpg,C_M_02.jpg,A_F_08.jpg,left,1000,true,low,NA,NA,NA,NA,NA,NA,NA,false
4XGcMbRp,3headtgn3s5yqh3y5nncdnm28bcvrm,3tdxmtx3cf725cj85uqxcn13rd66i0,4XGcMbRp,2020-0188,2020-06-04,11:29:23,11:51:08,NA,incomplete,139,race,2,1,left,A_F_02.jpg,A_M_01.jpg,C_F_10.jpg,right,942,false,low,NA,NA,NA,NA,NA,NA,NA,false
4XGcMbRp,3headtgn3s5yqh3y5nncdnm28bcvrm,3tdxmtx3cf725cj85uqxcn13rd66i0,4XGcMbRp,2020-0188,2020-06-04,11:29:23,11:51:08,NA,incomplete,140,gender,3,1,right,A_F_16.jpg,A_M_11.jpg,C_F_15.jpg,left,1092,false,low,NA,NA,NA,NA,NA,NA,NA,false
4XGcMbRp,3headtgn3s5yqh3y5nncdnm28bcvrm,3tdxmtx3cf725cj85uqxcn13rd66i0,4XGcMbRp,2020-0188,2020-06-04,11:29:23,11:51:08,NA,incomplete,141,gender,3,0,left,C_F_06.jpg,A_F_08.jpg,C_M_05.jpg,right,1100,false,low,NA,NA,NA,NA,NA,NA,NA,false
4XGcMbRp,3headtgn3s5yqh3y5nncdnm28bcvrm,3tdxmtx3cf725cj85uqxcn13rd66i0,4XGcMbRp,2020-0188,2020-06-04,11:29:23,11:51:08,NA,incomplete,142,gender,3,1,right,A_M_01.jpg,A_F_11.jpg,C_M_08.jpg,left,1182,false,low,NA,NA,NA,NA,NA,NA,NA,false
4XGcMbRp,3headtgn3s5yqh3y5nncdnm28bcvrm,3tdxmtx3cf725cj85uqxcn13rd66i0,4XGcMbRp,2020-0188,2020-06-04,11:29:23,11:51:08,NA,incomplete,143,gender,3,1,left,C_F_12.jpg,A_F_05.jpg,C_M_02.jpg,left,1154,true,low,NA,NA,NA,NA,NA,NA,NA,false
4XGcMbRp,3headtgn3s5yqh3y5nncdnm28bcvrm,3tdxmtx3cf725cj85uqxcn13rd66i0,4XGcMbRp,2020-0188,2020-06-04,11:29:23,11:51:08,NA,incomplete,144,gender,3,1,left,A_F_10.jpg,C_F_07.jpg,A_M_02.jpg,left,1081,true,low,NA,NA,NA,NA,NA,NA,NA,false
4XGcMbRp,3headtgn3s5yqh3y5nncdnm28bcvrm,3tdxmtx3cf725cj85uqxcn13rd66i0,4XGcMbRp,2020-0188,2020-06-04,11:29:23,11:51:08,NA,incomplete,145,gender,3,1,left,C_F_07.jpg,A_F_05.jpg,C_M_15.jpg,left,912,true,low,NA,NA,NA,NA,NA,NA,NA,false
4XGcMbRp,3headtgn3s5yqh3y5nncdnm28bcvrm,3tdxmtx3cf725cj85uqxcn13rd66i0,4XGcMbRp,2020-0188,2020-06-04,11:29:23,11:51:08,NA,incomplete,146,gender,3,1,left,C_M_09.jpg,A_M_02.jpg,C_F_11.jpg,left,881,true,low,NA,NA,NA,NA,NA,NA,NA,false
4XGcMbRp,3headtgn3s5yqh3y5nncdnm28bcvrm,3tdxmtx3cf725cj85uqxcn13rd66i0,4XGcMbRp,2020-0188,2020-06-04,11:29:23,11:51:08,NA,incomplete,147,gender,3,0,right,C_M_10.jpg,C_F_03.jpg,A_M_15.jpg,right,890,true,low,NA,NA,NA,NA,NA,NA,NA,false
4XGcMbRp,3headtgn3s5yqh3y5nncdnm28bcvrm,3tdxmtx3cf725cj85uqxcn13rd66i0,4XGcMbRp,2020-0188,2020-06-04,11:29:23,11:51:08,NA,incomplete,148,gender,3,1,right,C_F_06.jpg,C_M_02.jpg,A_F_13.jpg,right,1106,true,low,NA,NA,NA,NA,NA,NA,NA,false
4XGcMbRp,3headtgn3s5yqh3y5nncdnm28bcvrm,3tdxmtx3cf725cj85uqxcn13rd66i0,4XGcMbRp,2020-0188,2020-06-04,11:29:23,11:51:08,NA,incomplete,149,gender,3,1,right,A_M_04.jpg,A_F_01.jpg,C_M_14.jpg,right,1097,true,low,NA,NA,NA,NA,NA,NA,NA,false
4XGcMbRp,3headtgn3s5yqh3y5nncdnm28bcvrm,3tdxmtx3cf725cj85uqxcn13rd66i0,4XGcMbRp,2020-0188,2020-06-04,11:29:23,11:51:08,NA,incomplete,150,gender,3,1,left,C_M_03.jpg,A_M_01.jpg,C_F_14.jpg,left,739,true,low,NA,NA,NA,NA,NA,NA,NA,false
4XGcMbRp,3headtgn3s5yqh3y5nncdnm28bcvrm,3tdxmtx3cf725cj85uqxcn13rd66i0,4XGcMbRp,2020-0188,2020-06-04,11:29:23,11:51:08,NA,incomplete,151,gender,3,1,left,C_F_15.jpg,A_F_07.jpg,C_M_02.jpg,left,834,true,low,NA,NA,NA,NA,NA,NA,NA,false
4XGcMbRp,3headtgn3s5yqh3y5nncdnm28bcvrm,3tdxmtx3cf725cj85uqxcn13rd66i0,4XGcMbRp,2020-0188,2020-06-04,11:29:23,11:51:08,NA,incomplete,152,gender,3,1,left,A_M_02.jpg,C_M_08.jpg,A_F_01.jpg,left,741,true,low,NA,NA,NA,NA,NA,NA,NA,false
4XGcMbRp,3headtgn3s5yqh3y5nncdnm28bcvrm,3tdxmtx3cf725cj85uqxcn13rd66i0,4XGcMbRp,2020-0188,2020-06-04,11:29:23,11:51:08,NA,incomplete,153,gender,3,1,right,C_M_13.jpg,C_F_01.jpg,A_M_03.jpg,right,1193,true,low,NA,NA,NA,NA,NA,NA,NA,false
4XGcMbRp,3headtgn3s5yqh3y5nncdnm28bcvrm,3tdxmtx3cf725cj85uqxcn13rd66i0,4XGcMbRp,2020-0188,2020-06-04,11:29:23,11:51:08,NA,incomplete,154,gender,3,0,right,A_F_04.jpg,A_M_02.jpg,C_F_11.jpg,right,1136,true,low,NA,NA,NA,NA,NA,NA,NA,false
4XGcMbRp,3headtgn3s5yqh3y5nncdnm28bcvrm,3tdxmtx3cf725cj85uqxcn13rd66i0,4XGcMbRp,2020-0188,2020-06-04,11:29:23,11:51:08,NA,incomplete,155,gender,3,1,right,A_M_11.jpg,A_F_04.jpg,C_M_08.jpg,right,919,true,low,NA,NA,NA,NA,NA,NA,NA,false
4XGcMbRp,3headtgn3s5yqh3y5nncdnm28bcvrm,3tdxmtx3cf725cj85uqxcn13rd66i0,4XGcMbRp,2020-0188,2020-06-04,11:29:23,11:51:08,NA,incomplete,156,gender,3,1,right,A_F_12.jpg,A_M_08.jpg,C_F_06.jpg,right,959,true,low,NA,NA,NA,NA,NA,NA,NA,false
4XGcMbRp,3headtgn3s5yqh3y5nncdnm28bcvrm,3tdxmtx3cf725cj85uqxcn13rd66i0,4XGcMbRp,2020-0188,2020-06-04,11:29:23,11:51:08,NA,incomplete,157,gender,3,0,right,C_F_09.jpg,C_M_12.jpg,A_F_13.jpg,right,915,true,low,NA,NA,NA,NA,NA,NA,NA,false
4XGcMbRp,3headtgn3s5yqh3y5nncdnm28bcvrm,3tdxmtx3cf725cj85uqxcn13rd66i0,4XGcMbRp,2020-0188,2020-06-04,11:29:23,11:51:08,NA,incomplete,158,gender,3,1,left,A_M_11.jpg,C_M_08.jpg,A_F_04.jpg,left,813,true,low,NA,NA,NA,NA,NA,NA,NA,false
4XGcMbRp,3headtgn3s5yqh3y5nncdnm28bcvrm,3tdxmtx3cf725cj85uqxcn13rd66i0,4XGcMbRp,2020-0188,2020-06-04,11:29:23,11:51:08,NA,incomplete,159,gender,3,1,left,A_F_05.jpg,C_F_12.jpg,A_M_11.jpg,left,847,true,low,NA,NA,NA,NA,NA,NA,NA,false
4XGcMbRp,3headtgn3s5yqh3y5nncdnm28bcvrm,3tdxmtx3cf725cj85uqxcn13rd66i0,4XGcMbRp,2020-0188,2020-06-04,11:29:23,11:51:08,NA,incomplete,160,race,2,1,left,C_F_12.jpg,C_M_11.jpg,A_F_15.jpg,right,755,false,low,NA,NA,NA,NA,NA,NA,NA,false
4XGcMbRp,3headtgn3s5yqh3y5nncdnm28bcvrm,3tdxmtx3cf725cj85uqxcn13rd66i0,4XGcMbRp,2020-0188,2020-06-04,11:29:23,11:51:08,NA,incomplete,161,race,2,1,right,C_M_04.jpg,A_M_06.jpg,C_F_05.jpg,left,953,false,low,NA,NA,NA,NA,NA,NA,NA,false
4XGcMbRp,3headtgn3s5yqh3y5nncdnm28bcvrm,3tdxmtx3cf725cj85uqxcn13rd66i0,4XGcMbRp,2020-0188,2020-06-04,11:29:23,11:51:08,NA,incomplete,162,race,2,1,right,C_M_14.jpg,A_M_04.jpg,C_F_12.jpg,right,1000,true,low,NA,NA,NA,NA,NA,NA,NA,false
4XGcMbRp,3headtgn3s5yqh3y5nncdnm28bcvrm,3tdxmtx3cf725cj85uqxcn13rd66i0,4XGcMbRp,2020-0188,2020-06-04,11:29:23,11:51:08,NA,incomplete,163,race,2,1,right,C_F_14.jpg,A_F_02.jpg,C_M_06.jpg,right,1196,true,low,NA,NA,NA,NA,NA,NA,NA,false
4XGcMbRp,3headtgn3s5yqh3y5nncdnm28bcvrm,3tdxmtx3cf725cj85uqxcn13rd66i0,4XGcMbRp,2020-0188,2020-06-04,11:29:23,11:51:08,NA,incomplete,164,race,2,1,left,A_F_01.jpg,A_M_05.jpg,C_F_04.jpg,left,1030,true,low,NA,NA,NA,NA,NA,NA,NA,false
4XGcMbRp,3headtgn3s5yqh3y5nncdnm28bcvrm,3tdxmtx3cf725cj85uqxcn13rd66i0,4XGcMbRp,2020-0188,2020-06-04,11:29:23,11:51:08,NA,incomplete,165,race,2,1,left,C_M_15.jpg,C_F_16.jpg,A_M_12.jpg,left,851,true,low,NA,NA,NA,NA,NA,NA,NA,false
4XGcMbRp,3headtgn3s5yqh3y5nncdnm28bcvrm,3tdxmtx3cf725cj85uqxcn13rd66i0,4XGcMbRp,2020-0188,2020-06-04,11:29:23,11:51:08,NA,incomplete,166,race,2,0,left,A_M_11.jpg,A_F_02.jpg,C_M_08.jpg,left,941,true,low,NA,NA,NA,NA,NA,NA,NA,false
4XGcMbRp,3headtgn3s5yqh3y5nncdnm28bcvrm,3tdxmtx3cf725cj85uqxcn13rd66i0,4XGcMbRp,2020-0188,2020-06-04,11:29:23,11:51:08,NA,incomplete,167,race,2,1,right,C_M_08.jpg,A_M_02.jpg,C_F_13.jpg,left,1276,false,low,NA,NA,NA,NA,NA,NA,NA,false
4XGcMbRp,3headtgn3s5yqh3y5nncdnm28bcvrm,3tdxmtx3cf725cj85uqxcn13rd66i0,4XGcMbRp,2020-0188,2020-06-04,11:29:23,11:51:08,NA,incomplete,168,race,2,1,right,A_M_11.jpg,C_M_16.jpg,A_F_03.jpg,right,1125,true,low,NA,NA,NA,NA,NA,NA,NA,false
4XGcMbRp,3headtgn3s5yqh3y5nncdnm28bcvrm,3tdxmtx3cf725cj85uqxcn13rd66i0,4XGcMbRp,2020-0188,2020-06-04,11:29:23,11:51:08,NA,incomplete,169,race,2,0,right,C_M_01.jpg,A_M_11.jpg,C_F_13.jpg,right,1085,true,low,NA,NA,NA,NA,NA,NA,NA,false
4XGcMbRp,3headtgn3s5yqh3y5nncdnm28bcvrm,3tdxmtx3cf725cj85uqxcn13rd66i0,4XGcMbRp,2020-0188,2020-06-04,11:29:23,11:51:08,NA,incomplete,170,race,2,1,right,C_F_08.jpg,A_F_12.jpg,C_M_16.jpg,right,1245,true,low,NA,NA,NA,NA,NA,NA,NA,false
4XGcMbRp,3headtgn3s5yqh3y5nncdnm28bcvrm,3tdxmtx3cf725cj85uqxcn13rd66i0,4XGcMbRp,2020-0188,2020-06-04,11:29:23,11:51:08,NA,incomplete,171,race,2,0,right,A_M_09.jpg,C_M_06.jpg,A_F_02.jpg,right,1071,true,low,NA,NA,NA,NA,NA,NA,NA,false
4XGcMbRp,3headtgn3s5yqh3y5nncdnm28bcvrm,3tdxmtx3cf725cj85uqxcn13rd66i0,4XGcMbRp,2020-0188,2020-06-04,11:29:23,11:51:08,NA,incomplete,172,race,2,1,right,A_M_05.jpg,C_M_15.jpg,A_F_07.jpg,right,911,true,low,NA,NA,NA,NA,NA,NA,NA,false
4XGcMbRp,3headtgn3s5yqh3y5nncdnm28bcvrm,3tdxmtx3cf725cj85uqxcn13rd66i0,4XGcMbRp,2020-0188,2020-06-04,11:29:23,11:51:08,NA,incomplete,173,race,2,1,left,C_M_10.jpg,C_F_11.jpg,A_M_15.jpg,left,1136,true,low,NA,NA,NA,NA,NA,NA,NA,false
4XGcMbRp,3headtgn3s5yqh3y5nncdnm28bcvrm,3tdxmtx3cf725cj85uqxcn13rd66i0,4XGcMbRp,2020-0188,2020-06-04,11:29:23,11:51:08,NA,incomplete,174,race,2,1,right,A_F_12.jpg,C_F_15.jpg,A_M_03.jpg,right,1143,true,low,NA,NA,NA,NA,NA,NA,NA,false
4XGcMbRp,3headtgn3s5yqh3y5nncdnm28bcvrm,3tdxmtx3cf725cj85uqxcn13rd66i0,4XGcMbRp,2020-0188,2020-06-04,11:29:23,11:51:08,NA,incomplete,175,race,2,0,right,C_M_02.jpg,A_M_04.jpg,C_F_05.jpg,right,1174,true,low,NA,NA,NA,NA,NA,NA,NA,false
4XGcMbRp,3headtgn3s5yqh3y5nncdnm28bcvrm,3tdxmtx3cf725cj85uqxcn13rd66i0,4XGcMbRp,2020-0188,2020-06-04,11:29:23,11:51:08,NA,incomplete,176,race,2,1,right,A_F_12.jpg,C_F_01.jpg,A_M_03.jpg,right,1060,true,low,NA,NA,NA,NA,NA,NA,NA,false
4XGcMbRp,3headtgn3s5yqh3y5nncdnm28bcvrm,3tdxmtx3cf725cj85uqxcn13rd66i0,4XGcMbRp,2020-0188,2020-06-04,11:29:23,11:51:08,NA,incomplete,177,race,2,1,left,C_M_13.jpg,C_F_06.jpg,A_M_14.jpg,left,918,true,low,NA,NA,NA,NA,NA,NA,NA,false
4XGcMbRp,3headtgn3s5yqh3y5nncdnm28bcvrm,3tdxmtx3cf725cj85uqxcn13rd66i0,4XGcMbRp,2020-0188,2020-06-04,11:29:23,11:51:08,NA,incomplete,178,race,2,1,left,C_M_05.jpg,C_F_11.jpg,A_M_10.jpg,right,1005,false,low,NA,NA,NA,NA,NA,NA,NA,false
4XGcMbRp,3headtgn3s5yqh3y5nncdnm28bcvrm,3tdxmtx3cf725cj85uqxcn13rd66i0,4XGcMbRp,2020-0188,2020-06-04,11:29:23,11:51:08,NA,incomplete,179,race,2,1,right,C_M_14.jpg,A_M_13.jpg,C_F_03.jpg,right,953,true,low,NA,NA,NA,NA,NA,NA,NA,false
4XGcMbRp,3headtgn3s5yqh3y5nncdnm28bcvrm,3tdxmtx3cf725cj85uqxcn13rd66i0,4XGcMbRp,2020-0188,2020-06-04,11:29:23,11:51:08,NA,incomplete,180,gender,3,1,left,C_F_04.jpg,A_F_06.jpg,C_M_05.jpg,right,1121,false,low,NA,NA,NA,NA,NA,NA,NA,false
4XGcMbRp,3headtgn3s5yqh3y5nncdnm28bcvrm,3tdxmtx3cf725cj85uqxcn13rd66i0,4XGcMbRp,2020-0188,2020-06-04,11:29:23,11:51:08,NA,incomplete,181,gender,3,0,right,A_M_12.jpg,A_F_09.jpg,C_M_05.jpg,left,1120,false,low,NA,NA,NA,NA,NA,NA,NA,false
4XGcMbRp,3headtgn3s5yqh3y5nncdnm28bcvrm,3tdxmtx3cf725cj85uqxcn13rd66i0,4XGcMbRp,2020-0188,2020-06-04,11:29:23,11:51:08,NA,incomplete,182,gender,3,1,left,A_F_03.jpg,C_F_01.jpg,A_M_05.jpg,right,1022,false,low,NA,NA,NA,NA,NA,NA,NA,false
4XGcMbRp,3headtgn3s5yqh3y5nncdnm28bcvrm,3tdxmtx3cf725cj85uqxcn13rd66i0,4XGcMbRp,2020-0188,2020-06-04,11:29:23,11:51:08,NA,incomplete,183,gender,3,1,left,A_F_09.jpg,C_F_07.jpg,A_M_01.jpg,right,992,false,low,NA,NA,NA,NA,NA,NA,NA,false
4XGcMbRp,3headtgn3s5yqh3y5nncdnm28bcvrm,3tdxmtx3cf725cj85uqxcn13rd66i0,4XGcMbRp,2020-0188,2020-06-04,11:29:23,11:51:08,NA,incomplete,184,gender,3,1,right,A_M_07.jpg,A_F_10.jpg,C_M_14.jpg,right,947,true,low,NA,NA,NA,NA,NA,NA,NA,false
4XGcMbRp,3headtgn3s5yqh3y5nncdnm28bcvrm,3tdxmtx3cf725cj85uqxcn13rd66i0,4XGcMbRp,2020-0188,2020-06-04,11:29:23,11:51:08,NA,incomplete,185,gender,3,1,left,A_M_14.jpg,C_M_03.jpg,A_F_04.jpg,left,810,true,low,NA,NA,NA,NA,NA,NA,NA,false
4XGcMbRp,3headtgn3s5yqh3y5nncdnm28bcvrm,3tdxmtx3cf725cj85uqxcn13rd66i0,4XGcMbRp,2020-0188,2020-06-04,11:29:23,11:51:08,NA,incomplete,186,gender,3,1,left,C_M_07.jpg,A_M_06.jpg,C_F_05.jpg,left,1127,true,low,NA,NA,NA,NA,NA,NA,NA,false
4XGcMbRp,3headtgn3s5yqh3y5nncdnm28bcvrm,3tdxmtx3cf725cj85uqxcn13rd66i0,4XGcMbRp,2020-0188,2020-06-04,11:29:23,11:51:08,NA,incomplete,187,gender,3,1,left,A_F_05.jpg,C_F_14.jpg,A_M_10.jpg,left,784,true,low,NA,NA,NA,NA,NA,NA,NA,false
4XGcMbRp,3headtgn3s5yqh3y5nncdnm28bcvrm,3tdxmtx3cf725cj85uqxcn13rd66i0,4XGcMbRp,2020-0188,2020-06-04,11:29:23,11:51:08,NA,incomplete,188,gender,3,1,left,A_F_06.jpg,C_F_10.jpg,A_M_11.jpg,left,948,true,low,NA,NA,NA,NA,NA,NA,NA,false
4XGcMbRp,3headtgn3s5yqh3y5nncdnm28bcvrm,3tdxmtx3cf725cj85uqxcn13rd66i0,4XGcMbRp,2020-0188,2020-06-04,11:29:23,11:51:08,NA,incomplete,189,gender,3,1,right,C_F_15.jpg,C_M_10.jpg,A_F_16.jpg,right,803,true,low,NA,NA,NA,NA,NA,NA,NA,false
4XGcMbRp,3headtgn3s5yqh3y5nncdnm28bcvrm,3tdxmtx3cf725cj85uqxcn13rd66i0,4XGcMbRp,2020-0188,2020-06-04,11:29:23,11:51:08,NA,incomplete,190,gender,3,1,right,A_F_14.jpg,A_M_13.jpg,C_F_15.jpg,right,822,true,low,NA,NA,NA,NA,NA,NA,NA,false
4XGcMbRp,3headtgn3s5yqh3y5nncdnm28bcvrm,3tdxmtx3cf725cj85uqxcn13rd66i0,4XGcMbRp,2020-0188,2020-06-04,11:29:23,11:51:08,NA,incomplete,191,gender,3,0,left,A_F_15.jpg,C_F_16.jpg,A_M_06.jpg,left,819,true,low,NA,NA,NA,NA,NA,NA,NA,false
4XGcMbRp,3headtgn3s5yqh3y5nncdnm28bcvrm,3tdxmtx3cf725cj85uqxcn13rd66i0,4XGcMbRp,2020-0188,2020-06-04,11:29:23,11:51:08,NA,incomplete,192,gender,3,1,right,A_M_10.jpg,A_F_14.jpg,C_M_02.jpg,right,925,true,low,NA,NA,NA,NA,NA,NA,NA,false
4XGcMbRp,3headtgn3s5yqh3y5nncdnm28bcvrm,3tdxmtx3cf725cj85uqxcn13rd66i0,4XGcMbRp,2020-0188,2020-06-04,11:29:23,11:51:08,NA,incomplete,193,gender,3,1,left,C_M_06.jpg,A_M_14.jpg,C_F_01.jpg,left,771,true,low,NA,NA,NA,NA,NA,NA,NA,false
4XGcMbRp,3headtgn3s5yqh3y5nncdnm28bcvrm,3tdxmtx3cf725cj85uqxcn13rd66i0,4XGcMbRp,2020-0188,2020-06-04,11:29:23,11:51:08,NA,incomplete,194,gender,3,0,left,A_F_02.jpg,C_F_14.jpg,A_M_03.jpg,left,874,true,low,NA,NA,NA,NA,NA,NA,NA,false
4XGcMbRp,3headtgn3s5yqh3y5nncdnm28bcvrm,3tdxmtx3cf725cj85uqxcn13rd66i0,4XGcMbRp,2020-0188,2020-06-04,11:29:23,11:51:08,NA,incomplete,195,gender,3,1,right,C_F_01.jpg,C_M_02.jpg,A_F_04.jpg,right,715,true,low,NA,NA,NA,NA,NA,NA,NA,false
4XGcMbRp,3headtgn3s5yqh3y5nncdnm28bcvrm,3tdxmtx3cf725cj85uqxcn13rd66i0,4XGcMbRp,2020-0188,2020-06-04,11:29:23,11:51:08,NA,incomplete,196,gender,3,1,left,C_F_10.jpg,A_F_06.jpg,C_M_08.jpg,left,851,true,low,NA,NA,NA,NA,NA,NA,NA,false
4XGcMbRp,3headtgn3s5yqh3y5nncdnm28bcvrm,3tdxmtx3cf725cj85uqxcn13rd66i0,4XGcMbRp,2020-0188,2020-06-04,11:29:23,11:51:08,NA,incomplete,197,gender,3,0,right,A_M_12.jpg,A_F_16.jpg,C_M_14.jpg,right,1031,true,low,NA,NA,NA,NA,NA,NA,NA,false
4XGcMbRp,3headtgn3s5yqh3y5nncdnm28bcvrm,3tdxmtx3cf725cj85uqxcn13rd66i0,4XGcMbRp,2020-0188,2020-06-04,11:29:23,11:51:08,NA,incomplete,198,gender,3,1,left,A_F_07.jpg,C_F_16.jpg,A_M_13.jpg,left,1001,true,low,NA,NA,NA,NA,NA,NA,NA,false
4XGcMbRp,3headtgn3s5yqh3y5nncdnm28bcvrm,3tdxmtx3cf725cj85uqxcn13rd66i0,4XGcMbRp,2020-0188,2020-06-04,11:29:23,11:51:08,NA,incomplete,199,gender,3,0,right,A_M_16.jpg,A_F_08.jpg,C_M_09.jpg,right,922,true,low,NA,NA,NA,NA,NA,NA,NA,false
4XGcMbRp,3headtgn3s5yqh3y5nncdnm28bcvrm,3tdxmtx3cf725cj85uqxcn13rd66i0,4XGcMbRp,2020-0188,2020-06-04,11:29:23,11:51:08,NA,incomplete,200,race,2,1,right,C_F_15.jpg,A_F_04.jpg,C_M_01.jpg,left,733,false,low,NA,NA,NA,NA,NA,NA,NA,false
4XGcMbRp,3headtgn3s5yqh3y5nncdnm28bcvrm,3tdxmtx3cf725cj85uqxcn13rd66i0,4XGcMbRp,2020-0188,2020-06-04,11:29:23,11:51:08,NA,incomplete,201,race,2,0,right,C_M_13.jpg,A_M_11.jpg,C_F_16.jpg,right,851,true,low,NA,NA,NA,NA,NA,NA,NA,false
4XGcMbRp,3headtgn3s5yqh3y5nncdnm28bcvrm,3tdxmtx3cf725cj85uqxcn13rd66i0,4XGcMbRp,2020-0188,2020-06-04,11:29:23,11:51:08,NA,incomplete,202,race,2,1,left,C_M_02.jpg,C_F_11.jpg,A_M_12.jpg,right,902,false,low,NA,NA,NA,NA,NA,NA,NA,false
4XGcMbRp,3headtgn3s5yqh3y5nncdnm28bcvrm,3tdxmtx3cf725cj85uqxcn13rd66i0,4XGcMbRp,2020-0188,2020-06-04,11:29:23,11:51:08,NA,incomplete,203,race,2,1,right,A_M_12.jpg,C_M_15.jpg,A_F_07.jpg,right,781,true,low,NA,NA,NA,NA,NA,NA,NA,false
4XGcMbRp,3headtgn3s5yqh3y5nncdnm28bcvrm,3tdxmtx3cf725cj85uqxcn13rd66i0,4XGcMbRp,2020-0188,2020-06-04,11:29:23,11:51:08,NA,incomplete,204,race,2,1,left,C_M_01.jpg,C_F_15.jpg,A_M_11.jpg,right,1104,false,low,NA,NA,NA,NA,NA,NA,NA,false
4XGcMbRp,3headtgn3s5yqh3y5nncdnm28bcvrm,3tdxmtx3cf725cj85uqxcn13rd66i0,4XGcMbRp,2020-0188,2020-06-04,11:29:23,11:51:08,NA,incomplete,205,race,2,1,right,C_F_10.jpg,A_F_15.jpg,C_M_05.jpg,right,1169,true,low,NA,NA,NA,NA,NA,NA,NA,false
4XGcMbRp,3headtgn3s5yqh3y5nncdnm28bcvrm,3tdxmtx3cf725cj85uqxcn13rd66i0,4XGcMbRp,2020-0188,2020-06-04,11:29:23,11:51:08,NA,incomplete,206,race,2,1,left,C_F_09.jpg,C_M_07.jpg,A_F_11.jpg,right,1245,false,low,NA,NA,NA,NA,NA,NA,NA,false
4XGcMbRp,3headtgn3s5yqh3y5nncdnm28bcvrm,3tdxmtx3cf725cj85uqxcn13rd66i0,4XGcMbRp,2020-0188,2020-06-04,11:29:23,11:51:08,NA,incomplete,207,race,2,0,right,C_F_03.jpg,A_F_16.jpg,C_M_14.jpg,right,955,true,low,NA,NA,NA,NA,NA,NA,NA,false
4XGcMbRp,3headtgn3s5yqh3y5nncdnm28bcvrm,3tdxmtx3cf725cj85uqxcn13rd66i0,4XGcMbRp,2020-0188,2020-06-04,11:29:23,11:51:08,NA,incomplete,208,race,2,1,right,C_M_11.jpg,A_M_10.jpg,C_F_15.jpg,right,1080,true,low,NA,NA,NA,NA,NA,NA,NA,false
4XGcMbRp,3headtgn3s5yqh3y5nncdnm28bcvrm,3tdxmtx3cf725cj85uqxcn13rd66i0,4XGcMbRp,2020-0188,2020-06-04,11:29:23,11:51:08,NA,incomplete,209,race,2,1,right,C_F_09.jpg,A_F_06.jpg,C_M_03.jpg,right,1090,true,low,NA,NA,NA,NA,NA,NA,NA,false
4XGcMbRp,3headtgn3s5yqh3y5nncdnm28bcvrm,3tdxmtx3cf725cj85uqxcn13rd66i0,4XGcMbRp,2020-0188,2020-06-04,11:29:23,11:51:08,NA,incomplete,210,race,2,1,left,C_F_15.jpg,C_M_14.jpg,A_F_02.jpg,left,1088,true,low,NA,NA,NA,NA,NA,NA,NA,false
4XGcMbRp,3headtgn3s5yqh3y5nncdnm28bcvrm,3tdxmtx3cf725cj85uqxcn13rd66i0,4XGcMbRp,2020-0188,2020-06-04,11:29:23,11:51:08,NA,incomplete,211,race,2,1,left,A_M_03.jpg,A_F_02.jpg,C_M_08.jpg,left,866,true,low,NA,NA,NA,NA,NA,NA,NA,false
4XGcMbRp,3headtgn3s5yqh3y5nncdnm28bcvrm,3tdxmtx3cf725cj85uqxcn13rd66i0,4XGcMbRp,2020-0188,2020-06-04,11:29:23,11:51:08,NA,incomplete,212,race,2,1,left,C_F_08.jpg,C_M_13.jpg,A_F_02.jpg,left,1342,true,low,NA,NA,NA,NA,NA,NA,NA,false
4XGcMbRp,3headtgn3s5yqh3y5nncdnm28bcvrm,3tdxmtx3cf725cj85uqxcn13rd66i0,4XGcMbRp,2020-0188,2020-06-04,11:29:23,11:51:08,NA,incomplete,213,race,2,1,left,C_M_04.jpg,C_F_03.jpg,A_M_08.jpg,left,1189,true,low,NA,NA,NA,NA,NA,NA,NA,false
4XGcMbRp,3headtgn3s5yqh3y5nncdnm28bcvrm,3tdxmtx3cf725cj85uqxcn13rd66i0,4XGcMbRp,2020-0188,2020-06-04,11:29:23,11:51:08,NA,incomplete,214,race,2,0,left,A_M_03.jpg,A_F_02.jpg,C_M_10.jpg,left,864,true,low,NA,NA,NA,NA,NA,NA,NA,false
4XGcMbRp,3headtgn3s5yqh3y5nncdnm28bcvrm,3tdxmtx3cf725cj85uqxcn13rd66i0,4XGcMbRp,2020-0188,2020-06-04,11:29:23,11:51:08,NA,incomplete,215,race,2,1,left,A_F_08.jpg,A_M_01.jpg,C_F_05.jpg,right,1362,false,low,NA,NA,NA,NA,NA,NA,NA,false
4XGcMbRp,3headtgn3s5yqh3y5nncdnm28bcvrm,3tdxmtx3cf725cj85uqxcn13rd66i0,4XGcMbRp,2020-0188,2020-06-04,11:29:23,11:51:08,NA,incomplete,216,race,2,0,right,C_M_02.jpg,A_M_09.jpg,C_F_07.jpg,right,1015,true,low,NA,NA,NA,NA,NA,NA,NA,false
4XGcMbRp,3headtgn3s5yqh3y5nncdnm28bcvrm,3tdxmtx3cf725cj85uqxcn13rd66i0,4XGcMbRp,2020-0188,2020-06-04,11:29:23,11:51:08,NA,incomplete,217,race,2,1,left,A_F_03.jpg,A_M_01.jpg,C_F_07.jpg,left,955,true,low,NA,NA,NA,NA,NA,NA,NA,false
4XGcMbRp,3headtgn3s5yqh3y5nncdnm28bcvrm,3tdxmtx3cf725cj85uqxcn13rd66i0,4XGcMbRp,2020-0188,2020-06-04,11:29:23,11:51:08,NA,incomplete,218,race,2,1,right,A_M_10.jpg,C_M_11.jpg,A_F_01.jpg,right,1136,true,low,NA,NA,NA,NA,NA,NA,NA,false
4XGcMbRp,3headtgn3s5yqh3y5nncdnm28bcvrm,3tdxmtx3cf725cj85uqxcn13rd66i0,4XGcMbRp,2020-0188,2020-06-04,11:29:23,11:51:08,NA,incomplete,219,race,2,0,left,C_M_16.jpg,C_F_08.jpg,A_M_01.jpg,left,1335,true,low,NA,NA,NA,NA,NA,NA,NA,false
4XGcMbRp,3headtgn3s5yqh3y5nncdnm28bcvrm,3tdxmtx3cf725cj85uqxcn13rd66i0,4XGcMbRp,2020-0188,2020-06-04,11:29:23,11:51:08,NA,incomplete,220,gender,3,1,right,C_F_16.jpg,C_M_10.jpg,A_F_02.jpg,left,1215,false,low,NA,NA,NA,NA,NA,NA,NA,false
4XGcMbRp,3headtgn3s5yqh3y5nncdnm28bcvrm,3tdxmtx3cf725cj85uqxcn13rd66i0,4XGcMbRp,2020-0188,2020-06-04,11:29:23,11:51:08,NA,incomplete,221,gender,3,1,left,A_F_02.jpg,C_F_16.jpg,A_M_12.jpg,right,1101,false,low,NA,NA,NA,NA,NA,NA,NA,false
4XGcMbRp,3headtgn3s5yqh3y5nncdnm28bcvrm,3tdxmtx3cf725cj85uqxcn13rd66i0,4XGcMbRp,2020-0188,2020-06-04,11:29:23,11:51:08,NA,incomplete,222,gender,3,1,right,C_M_13.jpg,C_F_12.jpg,A_M_10.jpg,left,1093,false,low,NA,NA,NA,NA,NA,NA,NA,false
4XGcMbRp,3headtgn3s5yqh3y5nncdnm28bcvrm,3tdxmtx3cf725cj85uqxcn13rd66i0,4XGcMbRp,2020-0188,2020-06-04,11:29:23,11:51:08,NA,incomplete,223,gender,3,1,left,A_F_07.jpg,C_F_11.jpg,A_M_09.jpg,left,851,true,low,NA,NA,NA,NA,NA,NA,NA,false
4XGcMbRp,3headtgn3s5yqh3y5nncdnm28bcvrm,3tdxmtx3cf725cj85uqxcn13rd66i0,4XGcMbRp,2020-0188,2020-06-04,11:29:23,11:51:08,NA,incomplete,224,gender,3,0,left,A_F_08.jpg,C_F_09.jpg,A_M_16.jpg,right,1533,false,low,NA,NA,NA,NA,NA,NA,NA,false
4XGcMbRp,3headtgn3s5yqh3y5nncdnm28bcvrm,3tdxmtx3cf725cj85uqxcn13rd66i0,4XGcMbRp,2020-0188,2020-06-04,11:29:23,11:51:08,NA,incomplete,225,gender,3,1,right,A_F_04.jpg,A_M_02.jpg,C_F_16.jpg,right,829,true,low,NA,NA,NA,NA,NA,NA,NA,false
4XGcMbRp,3headtgn3s5yqh3y5nncdnm28bcvrm,3tdxmtx3cf725cj85uqxcn13rd66i0,4XGcMbRp,2020-0188,2020-06-04,11:29:23,11:51:08,NA,incomplete,226,gender,3,1,right,A_M_04.jpg,A_F_02.jpg,C_M_16.jpg,right,1361,true,low,NA,NA,NA,NA,NA,NA,NA,false
4XGcMbRp,3headtgn3s5yqh3y5nncdnm28bcvrm,3tdxmtx3cf725cj85uqxcn13rd66i0,4XGcMbRp,2020-0188,2020-06-04,11:29:23,11:51:08,NA,incomplete,227,gender,3,1,left,C_F_14.jpg,A_F_12.jpg,C_M_04.jpg,left,737,true,low,NA,NA,NA,NA,NA,NA,NA,false
4XGcMbRp,3headtgn3s5yqh3y5nncdnm28bcvrm,3tdxmtx3cf725cj85uqxcn13rd66i0,4XGcMbRp,2020-0188,2020-06-04,11:29:23,11:51:08,NA,incomplete,228,gender,3,1,left,A_F_02.jpg,C_F_10.jpg,A_M_06.jpg,left,1175,true,low,NA,NA,NA,NA,NA,NA,NA,false
4XGcMbRp,3headtgn3s5yqh3y5nncdnm28bcvrm,3tdxmtx3cf725cj85uqxcn13rd66i0,4XGcMbRp,2020-0188,2020-06-04,11:29:23,11:51:08,NA,incomplete,229,gender,3,1,right,A_M_04.jpg,A_F_10.jpg,C_M_11.jpg,right,1069,true,low,NA,NA,NA,NA,NA,NA,NA,false
4XGcMbRp,3headtgn3s5yqh3y5nncdnm28bcvrm,3tdxmtx3cf725cj85uqxcn13rd66i0,4XGcMbRp,2020-0188,2020-06-04,11:29:23,11:51:08,NA,incomplete,230,gender,3,1,right,C_F_02.jpg,C_M_13.jpg,A_F_08.jpg,right,876,true,low,NA,NA,NA,NA,NA,NA,NA,false
4XGcMbRp,3headtgn3s5yqh3y5nncdnm28bcvrm,3tdxmtx3cf725cj85uqxcn13rd66i0,4XGcMbRp,2020-0188,2020-06-04,11:29:23,11:51:08,NA,incomplete,231,gender,3,0,right,C_F_14.jpg,C_M_09.jpg,A_F_05.jpg,right,1000,true,low,NA,NA,NA,NA,NA,NA,NA,false
4XGcMbRp,3headtgn3s5yqh3y5nncdnm28bcvrm,3tdxmtx3cf725cj85uqxcn13rd66i0,4XGcMbRp,2020-0188,2020-06-04,11:29:23,11:51:08,NA,incomplete,232,gender,3,1,right,A_F_13.jpg,A_M_01.jpg,C_F_16.jpg,right,857,true,low,NA,NA,NA,NA,NA,NA,NA,false
4XGcMbRp,3headtgn3s5yqh3y5nncdnm28bcvrm,3tdxmtx3cf725cj85uqxcn13rd66i0,4XGcMbRp,2020-0188,2020-06-04,11:29:23,11:51:08,NA,incomplete,233,gender,3,1,right,C_M_06.jpg,C_F_07.jpg,A_M_09.jpg,right,908,true,low,NA,NA,NA,NA,NA,NA,NA,false
4XGcMbRp,3headtgn3s5yqh3y5nncdnm28bcvrm,3tdxmtx3cf725cj85uqxcn13rd66i0,4XGcMbRp,2020-0188,2020-06-04,11:29:23,11:51:08,NA,incomplete,234,gender,3,1,right,A_F_09.jpg,A_M_03.jpg,C_F_11.jpg,right,821,true,low,NA,NA,NA,NA,NA,NA,NA,false
4XGcMbRp,3headtgn3s5yqh3y5nncdnm28bcvrm,3tdxmtx3cf725cj85uqxcn13rd66i0,4XGcMbRp,2020-0188,2020-06-04,11:29:23,11:51:08,NA,incomplete,235,gender,3,0,right,A_F_09.jpg,A_M_14.jpg,C_F_13.jpg,right,897,true,low,NA,NA,NA,NA,NA,NA,NA,false
4XGcMbRp,3headtgn3s5yqh3y5nncdnm28bcvrm,3tdxmtx3cf725cj85uqxcn13rd66i0,4XGcMbRp,2020-0188,2020-06-04,11:29:23,11:51:08,NA,incomplete,236,gender,3,1,right,C_M_09.jpg,C_F_11.jpg,A_M_10.jpg,right,1306,true,low,NA,NA,NA,NA,NA,NA,NA,false
4XGcMbRp,3headtgn3s5yqh3y5nncdnm28bcvrm,3tdxmtx3cf725cj85uqxcn13rd66i0,4XGcMbRp,2020-0188,2020-06-04,11:29:23,11:51:08,NA,incomplete,237,gender,3,1,left,A_F_02.jpg,C_F_04.jpg,A_M_13.jpg,left,1150,true,low,NA,NA,NA,NA,NA,NA,NA,false
4XGcMbRp,3headtgn3s5yqh3y5nncdnm28bcvrm,3tdxmtx3cf725cj85uqxcn13rd66i0,4XGcMbRp,2020-0188,2020-06-04,11:29:23,11:51:08,NA,incomplete,238,gender,3,1,right,C_M_08.jpg,C_F_12.jpg,A_M_07.jpg,right,920,true,low,NA,NA,NA,NA,NA,NA,NA,false
4XGcMbRp,3headtgn3s5yqh3y5nncdnm28bcvrm,3tdxmtx3cf725cj85uqxcn13rd66i0,4XGcMbRp,2020-0188,2020-06-04,11:29:23,11:51:08,NA,incomplete,239,gender,3,1,left,C_M_05.jpg,A_M_09.jpg,C_F_14.jpg,left,870,true,low,NA,NA,NA,NA,NA,NA,NA,false
4XGcMbRp,3headtgn3s5yqh3y5nncdnm28bcvrm,3tdxmtx3cf725cj85uqxcn13rd66i0,4XGcMbRp,2020-0188,2020-06-04,11:29:23,11:51:08,NA,NA,instruction example,number,NA,NA,NA,Purple_Circle_Grid_2.jpg,Red_Triangle_Stripes_2.jpg,Green_Star_Grid_1.jpg,NA,NA,NA,NA,NA,NA,NA,NA,NA,NA,NA,undefined
4XGcMbRp,3headtgn3s5yqh3y5nncdnm28bcvrm,3tdxmtx3cf725cj85uqxcn13rd66i0,4XGcMbRp,2020-0188,2020-06-04,11:29:23,11:51:08,NA,NA,instruction example,number,NA,NA,NA,Blue_Star_Grid_1.jpg,Red_Plus_Grid_4.jpg,Green_Triangle_Stripes_1.jpg,NA,NA,NA,NA,NA,NA,NA,NA,NA,NA,NA,undefined
4XGcMbRp,3headtgn3s5yqh3y5nncdnm28bcvrm,3tdxmtx3cf725cj85uqxcn13rd66i0,4XGcMbRp,2020-0188,2020-06-04,11:29:23,11:51:08,NA,NA,instruction example,number,NA,NA,NA,C_M_02.jpg,C_F_04.jpg,A_M_11.jpg,NA,NA,NA,NA,NA,NA,NA,NA,NA,NA,NA,undefined
4XGcMbRp,3headtgn3s5yqh3y5nncdnm28bcvrm,3tdxmtx3cf725cj85uqxcn13rd66i0,4XGcMbRp,2020-0188,2020-06-04,11:29:23,11:51:08,NA,NA,instruction example,number,NA,NA,NA,C_M_03.jpg,A_M_05.jpg,C_F_01.jpg,NA,NA,NA,NA,NA,NA,NA,NA,NA,NA,NA,undefined
4XGcMbRp,3headtgn3s5yqh3y5nncdnm28bcvrm,3tdxmtx3cf725cj85uqxcn13rd66i0,4XGcMbRp,2020-0188,2020-06-04,11:29:23,11:51:08,1252234,1307762,NA,NA,NA,NA,NA,NA,NA,NA,NA,NA,NA,NA,45,White/Caucasian,Male,euro white,no,yes,no,undefined
