workerId,hitId,assignmentId,subject,studyid,exp_date,exp_start,exp_end,time_start,time_end,trial,type,sequence,reward_validity,answer,image_top,image_left,image_right,response,response_time,response_acc,volatility,age,race,gender,ethnicity,color,vision,neuro,practice
vQdJHg9y,3e9vauv7czrnvucm8noapw1mqoqyaq,3tmfv4nepcr7alm1nqraxs62cju8wv,vQdJHg9y,2020-0188,2020-06-04,10:36:42,10:58:33,NA,incomplete,0,filling,0,1,left,Purple_Circle_Grid_2.jpg,Green_Triangle_Grid_4.jpg,Red_Star_Dots_2.jpg,none,0,false,NA,NA,NA,NA,NA,NA,NA,NA,true
vQdJHg9y,3e9vauv7czrnvucm8noapw1mqoqyaq,3tmfv4nepcr7alm1nqraxs62cju8wv,vQdJHg9y,2020-0188,2020-06-04,10:36:42,10:58:33,NA,incomplete,1,filling,0,1,right,Blue_Star_Chess_4.jpg,Red_Plus_Grid_4.jpg,Purple_Circle_Chess_1.jpg,right,500.32000010833144,true,NA,NA,NA,NA,NA,NA,NA,NA,true
vQdJHg9y,3e9vauv7czrnvucm8noapw1mqoqyaq,3tmfv4nepcr7alm1nqraxs62cju8wv,vQdJHg9y,2020-0188,2020-06-04,10:36:42,10:58:33,NA,incomplete,2,filling,0,1,left,Blue_Circle_Stripes_2.jpg,Red_Plus_Stripes_3.jpg,Purple_Star_Dots_2.jpg,left,1301.10999988392,true,NA,NA,NA,NA,NA,NA,NA,NA,true
vQdJHg9y,3e9vauv7czrnvucm8noapw1mqoqyaq,3tmfv4nepcr7alm1nqraxs62cju8wv,vQdJHg9y,2020-0188,2020-06-04,10:36:42,10:58:33,NA,incomplete,3,filling,0,1,right,Red_Circle_Stripes_2.jpg,Green_Triangle_Grid_2.jpg,Purple_Star_Stripes_1.jpg,right,1339.4450000487268,true,NA,NA,NA,NA,NA,NA,NA,NA,true
vQdJHg9y,3e9vauv7czrnvucm8noapw1mqoqyaq,3tmfv4nepcr7alm1nqraxs62cju8wv,vQdJHg9y,2020-0188,2020-06-04,10:36:42,10:58:33,NA,incomplete,4,filling,0,1,right,Red_Star_Dots_2.jpg,Green_Plus_Chess_2.jpg,Purple_Circle_Dots_3.jpg,right,1346.9899999909103,true,NA,NA,NA,NA,NA,NA,NA,NA,true
vQdJHg9y,3e9vauv7czrnvucm8noapw1mqoqyaq,3tmfv4nepcr7alm1nqraxs62cju8wv,vQdJHg9y,2020-0188,2020-06-04,10:36:42,10:58:33,NA,incomplete,5,filling,0,1,left,Green_Triangle_Dots_3.jpg,Blue_Plus_Dots_2.jpg,Purple_Circle_Chess_3.jpg,left,1262.489999877289,true,NA,NA,NA,NA,NA,NA,NA,NA,true
vQdJHg9y,3e9vauv7czrnvucm8noapw1mqoqyaq,3tmfv4nepcr7alm1nqraxs62cju8wv,vQdJHg9y,2020-0188,2020-06-04,10:36:42,10:58:33,NA,incomplete,6,filling,0,0,left,Blue_Circle_Grid_2.jpg,Green_Plus_Grid_3.jpg,Purple_Star_Dots_2.jpg,left,1175.0000000465661,true,NA,NA,NA,NA,NA,NA,NA,NA,true
vQdJHg9y,3e9vauv7czrnvucm8noapw1mqoqyaq,3tmfv4nepcr7alm1nqraxs62cju8wv,vQdJHg9y,2020-0188,2020-06-04,10:36:42,10:58:33,NA,incomplete,7,filling,0,1,left,Blue_Plus_Grid_3.jpg,Green_Circle_Grid_2.jpg,Purple_Star_Dots_3.jpg,left,1141.950000077486,true,NA,NA,NA,NA,NA,NA,NA,NA,true
vQdJHg9y,3e9vauv7czrnvucm8noapw1mqoqyaq,3tmfv4nepcr7alm1nqraxs62cju8wv,vQdJHg9y,2020-0188,2020-06-04,10:36:42,10:58:33,NA,incomplete,8,filling,0,0,left,Purple_Circle_Chess_2.jpg,Red_Triangle_Chess_1.jpg,Blue_Plus_Grid_2.jpg,left,1060.774999903515,true,NA,NA,NA,NA,NA,NA,NA,NA,true
vQdJHg9y,3e9vauv7czrnvucm8noapw1mqoqyaq,3tmfv4nepcr7alm1nqraxs62cju8wv,vQdJHg9y,2020-0188,2020-06-04,10:36:42,10:58:33,NA,incomplete,9,filling,0,1,left,Purple_Triangle_Grid_4.jpg,Blue_Plus_Grid_2.jpg,Green_Circle_Dots_4.jpg,left,1318.5050000902265,true,NA,NA,NA,NA,NA,NA,NA,NA,true
vQdJHg9y,3e9vauv7czrnvucm8noapw1mqoqyaq,3tmfv4nepcr7alm1nqraxs62cju8wv,vQdJHg9y,2020-0188,2020-06-04,10:36:42,10:58:33,NA,incomplete,10,filling,0,1,left,Red_Plus_Chess_4.jpg,Purple_Triangle_Chess_2.jpg,Green_Star_Grid_4.jpg,left,1375.715000089258,true,NA,NA,NA,NA,NA,NA,NA,NA,true
vQdJHg9y,3e9vauv7czrnvucm8noapw1mqoqyaq,3tmfv4nepcr7alm1nqraxs62cju8wv,vQdJHg9y,2020-0188,2020-06-04,10:36:42,10:58:33,NA,incomplete,11,filling,0,1,left,Purple_Circle_Dots_4.jpg,Blue_Plus_Dots_3.jpg,Red_Triangle_Chess_4.jpg,left,1261.5799999330193,true,NA,NA,NA,NA,NA,NA,NA,NA,true
vQdJHg9y,3e9vauv7czrnvucm8noapw1mqoqyaq,3tmfv4nepcr7alm1nqraxs62cju8wv,vQdJHg9y,2020-0188,2020-06-04,10:36:42,10:58:33,NA,incomplete,12,filling,0,1,right,Purple_Circle_Stripes_3.jpg,Red_Star_Dots_3.jpg,Blue_Plus_Stripes_1.jpg,right,1188.4449999779463,true,NA,NA,NA,NA,NA,NA,NA,NA,true
vQdJHg9y,3e9vauv7czrnvucm8noapw1mqoqyaq,3tmfv4nepcr7alm1nqraxs62cju8wv,vQdJHg9y,2020-0188,2020-06-04,10:36:42,10:58:33,NA,incomplete,13,filling,0,1,right,Green_Plus_Grid_1.jpg,Purple_Star_Chess_1.jpg,Blue_Circle_Grid_4.jpg,right,1341.5549998171628,true,NA,NA,NA,NA,NA,NA,NA,NA,true
vQdJHg9y,3e9vauv7czrnvucm8noapw1mqoqyaq,3tmfv4nepcr7alm1nqraxs62cju8wv,vQdJHg9y,2020-0188,2020-06-04,10:36:42,10:58:33,NA,incomplete,14,filling,0,1,left,Green_Circle_Chess_1.jpg,Red_Plus_Chess_2.jpg,Blue_Triangle_Grid_1.jpg,left,1129.3099999893457,true,NA,NA,NA,NA,NA,NA,NA,NA,true
vQdJHg9y,3e9vauv7czrnvucm8noapw1mqoqyaq,3tmfv4nepcr7alm1nqraxs62cju8wv,vQdJHg9y,2020-0188,2020-06-04,10:36:42,10:58:33,NA,incomplete,15,filling,0,1,left,Blue_Circle_Stripes_3.jpg,Red_Triangle_Stripes_2.jpg,Green_Plus_Chess_3.jpg,left,1120.250000152737,true,NA,NA,NA,NA,NA,NA,NA,NA,true
vQdJHg9y,3e9vauv7czrnvucm8noapw1mqoqyaq,3tmfv4nepcr7alm1nqraxs62cju8wv,vQdJHg9y,2020-0188,2020-06-04,10:36:42,10:58:33,NA,incomplete,16,filling,0,1,left,Green_Star_Stripes_4.jpg,Blue_Triangle_Stripes_3.jpg,Purple_Circle_Dots_4.jpg,left,891.2649999838322,true,NA,NA,NA,NA,NA,NA,NA,NA,true
vQdJHg9y,3e9vauv7czrnvucm8noapw1mqoqyaq,3tmfv4nepcr7alm1nqraxs62cju8wv,vQdJHg9y,2020-0188,2020-06-04,10:36:42,10:58:33,NA,incomplete,17,filling,0,0,right,Blue_Star_Stripes_4.jpg,Green_Triangle_Grid_4.jpg,Red_Plus_Stripes_3.jpg,right,1133.0099999904633,true,NA,NA,NA,NA,NA,NA,NA,NA,true
vQdJHg9y,3e9vauv7czrnvucm8noapw1mqoqyaq,3tmfv4nepcr7alm1nqraxs62cju8wv,vQdJHg9y,2020-0188,2020-06-04,10:36:42,10:58:33,NA,incomplete,18,filling,0,1,left,Blue_Plus_Chess_2.jpg,Purple_Triangle_Chess_4.jpg,Green_Circle_Dots_2.jpg,left,1088.4499999228865,true,NA,NA,NA,NA,NA,NA,NA,NA,true
vQdJHg9y,3e9vauv7czrnvucm8noapw1mqoqyaq,3tmfv4nepcr7alm1nqraxs62cju8wv,vQdJHg9y,2020-0188,2020-06-04,10:36:42,10:58:33,NA,incomplete,19,filling,0,1,left,Red_Star_Chess_2.jpg,Green_Triangle_Chess_3.jpg,Purple_Circle_Grid_2.jpg,left,1230.83999985829,true,NA,NA,NA,NA,NA,NA,NA,NA,true
vQdJHg9y,3e9vauv7czrnvucm8noapw1mqoqyaq,3tmfv4nepcr7alm1nqraxs62cju8wv,vQdJHg9y,2020-0188,2020-06-04,10:36:42,10:58:33,NA,incomplete,20,number,1,1,left,Blue_Circle_Dots_3.jpg,Red_Triangle_Stripes_3.jpg,Purple_Star_Dots_1.jpg,right,1359.4649999868125,false,NA,NA,NA,NA,NA,NA,NA,NA,true
vQdJHg9y,3e9vauv7czrnvucm8noapw1mqoqyaq,3tmfv4nepcr7alm1nqraxs62cju8wv,vQdJHg9y,2020-0188,2020-06-04,10:36:42,10:58:33,NA,incomplete,21,number,1,1,right,Green_Circle_Dots_2.jpg,Purple_Triangle_Dots_3.jpg,Red_Plus_Stripes_2.jpg,right,1459.0149999130517,true,NA,NA,NA,NA,NA,NA,NA,NA,true
vQdJHg9y,3e9vauv7czrnvucm8noapw1mqoqyaq,3tmfv4nepcr7alm1nqraxs62cju8wv,vQdJHg9y,2020-0188,2020-06-04,10:36:42,10:58:33,NA,incomplete,22,number,1,1,left,Green_Plus_Dots_4.jpg,Purple_Star_Grid_4.jpg,Blue_Circle_Dots_1.jpg,left,998.7649999093264,true,NA,NA,NA,NA,NA,NA,NA,NA,true
vQdJHg9y,3e9vauv7czrnvucm8noapw1mqoqyaq,3tmfv4nepcr7alm1nqraxs62cju8wv,vQdJHg9y,2020-0188,2020-06-04,10:36:42,10:58:33,NA,incomplete,23,number,1,1,left,Green_Plus_Dots_4.jpg,Purple_Star_Chess_4.jpg,Blue_Circle_Dots_2.jpg,left,830.6050000246614,true,NA,NA,NA,NA,NA,NA,NA,NA,true
vQdJHg9y,3e9vauv7czrnvucm8noapw1mqoqyaq,3tmfv4nepcr7alm1nqraxs62cju8wv,vQdJHg9y,2020-0188,2020-06-04,10:36:42,10:58:33,NA,incomplete,24,number,1,1,left,Green_Circle_Grid_1.jpg,Purple_Plus_Stripes_1.jpg,Red_Star_Grid_3.jpg,left,864.2849999014288,true,NA,NA,NA,NA,NA,NA,NA,NA,true
vQdJHg9y,3e9vauv7czrnvucm8noapw1mqoqyaq,3tmfv4nepcr7alm1nqraxs62cju8wv,vQdJHg9y,2020-0188,2020-06-04,10:36:42,10:58:33,NA,incomplete,25,number,1,1,right,Red_Plus_Grid_1.jpg,Green_Triangle_Grid_3.jpg,Purple_Star_Stripes_1.jpg,right,991.3000001106411,true,NA,NA,NA,NA,NA,NA,NA,NA,true
vQdJHg9y,3e9vauv7czrnvucm8noapw1mqoqyaq,3tmfv4nepcr7alm1nqraxs62cju8wv,vQdJHg9y,2020-0188,2020-06-04,10:36:42,10:58:33,NA,incomplete,26,number,1,1,right,Green_Circle_Chess_1.jpg,Purple_Plus_Chess_2.jpg,Blue_Star_Dots_1.jpg,right,882.6150000095367,true,NA,NA,NA,NA,NA,NA,NA,NA,true
vQdJHg9y,3e9vauv7czrnvucm8noapw1mqoqyaq,3tmfv4nepcr7alm1nqraxs62cju8wv,vQdJHg9y,2020-0188,2020-06-04,10:36:42,10:58:33,NA,incomplete,27,number,1,1,left,Blue_Triangle_Stripes_2.jpg,Purple_Plus_Dots_2.jpg,Red_Circle_Stripes_4.jpg,left,1061.1350000835955,true,NA,NA,NA,NA,NA,NA,NA,NA,true
vQdJHg9y,3e9vauv7czrnvucm8noapw1mqoqyaq,3tmfv4nepcr7alm1nqraxs62cju8wv,vQdJHg9y,2020-0188,2020-06-04,10:36:42,10:58:33,NA,incomplete,28,number,1,0,right,Green_Triangle_Grid_4.jpg,Blue_Plus_Grid_3.jpg,Purple_Circle_Stripes_4.jpg,right,919.1899998113513,true,NA,NA,NA,NA,NA,NA,NA,NA,true
vQdJHg9y,3e9vauv7czrnvucm8noapw1mqoqyaq,3tmfv4nepcr7alm1nqraxs62cju8wv,vQdJHg9y,2020-0188,2020-06-04,10:36:42,10:58:33,NA,incomplete,29,number,1,1,right,Red_Plus_Chess_3.jpg,Blue_Circle_Chess_4.jpg,Green_Triangle_Stripes_3.jpg,right,1445.1500000432134,true,NA,NA,NA,NA,NA,NA,NA,NA,true
vQdJHg9y,3e9vauv7czrnvucm8noapw1mqoqyaq,3tmfv4nepcr7alm1nqraxs62cju8wv,vQdJHg9y,2020-0188,2020-06-04,10:36:42,10:58:33,NA,incomplete,30,number,1,1,left,Purple_Triangle_Chess_4.jpg,Red_Star_Stripes_4.jpg,Blue_Circle_Chess_2.jpg,left,1393.530000001192,true,NA,NA,NA,NA,NA,NA,NA,NA,true
vQdJHg9y,3e9vauv7czrnvucm8noapw1mqoqyaq,3tmfv4nepcr7alm1nqraxs62cju8wv,vQdJHg9y,2020-0188,2020-06-04,10:36:42,10:58:33,NA,incomplete,31,number,1,0,left,Purple_Circle_Dots_3.jpg,Green_Plus_Grid_3.jpg,Red_Star_Dots_4.jpg,left,1152.985000051558,true,NA,NA,NA,NA,NA,NA,NA,NA,true
vQdJHg9y,3e9vauv7czrnvucm8noapw1mqoqyaq,3tmfv4nepcr7alm1nqraxs62cju8wv,vQdJHg9y,2020-0188,2020-06-04,10:36:42,10:58:33,NA,incomplete,32,number,1,1,left,Blue_Circle_Stripes_4.jpg,Purple_Plus_Chess_4.jpg,Green_Star_Stripes_1.jpg,left,989.4400001503527,true,NA,NA,NA,NA,NA,NA,NA,NA,true
vQdJHg9y,3e9vauv7czrnvucm8noapw1mqoqyaq,3tmfv4nepcr7alm1nqraxs62cju8wv,vQdJHg9y,2020-0188,2020-06-04,10:36:42,10:58:33,NA,incomplete,33,number,1,0,right,Red_Plus_Grid_2.jpg,Purple_Circle_Grid_4.jpg,Blue_Star_Chess_2.jpg,right,1080.7049998547882,true,NA,NA,NA,NA,NA,NA,NA,NA,true
vQdJHg9y,3e9vauv7czrnvucm8noapw1mqoqyaq,3tmfv4nepcr7alm1nqraxs62cju8wv,vQdJHg9y,2020-0188,2020-06-04,10:36:42,10:58:33,NA,incomplete,34,number,1,1,right,Purple_Circle_Grid_1.jpg,Green_Plus_Grid_2.jpg,Blue_Star_Chess_1.jpg,right,993.7650000210851,true,NA,NA,NA,NA,NA,NA,NA,NA,true
vQdJHg9y,3e9vauv7czrnvucm8noapw1mqoqyaq,3tmfv4nepcr7alm1nqraxs62cju8wv,vQdJHg9y,2020-0188,2020-06-04,10:36:42,10:58:33,NA,incomplete,35,number,1,0,left,Red_Star_Dots_2.jpg,Green_Triangle_Grid_2.jpg,Purple_Plus_Dots_1.jpg,left,1306.3450001645833,true,NA,NA,NA,NA,NA,NA,NA,NA,true
vQdJHg9y,3e9vauv7czrnvucm8noapw1mqoqyaq,3tmfv4nepcr7alm1nqraxs62cju8wv,vQdJHg9y,2020-0188,2020-06-04,10:36:42,10:58:33,NA,incomplete,36,number,1,0,right,Red_Plus_Dots_2.jpg,Green_Circle_Dots_4.jpg,Blue_Triangle_Chess_2.jpg,right,1737.409999826923,true,NA,NA,NA,NA,NA,NA,NA,NA,true
vQdJHg9y,3e9vauv7czrnvucm8noapw1mqoqyaq,3tmfv4nepcr7alm1nqraxs62cju8wv,vQdJHg9y,2020-0188,2020-06-04,10:36:42,10:58:33,NA,incomplete,37,number,1,1,left,Purple_Circle_Stripes_4.jpg,Green_Triangle_Chess_4.jpg,Red_Star_Stripes_1.jpg,left,1077.409999910742,true,NA,NA,NA,NA,NA,NA,NA,NA,true
vQdJHg9y,3e9vauv7czrnvucm8noapw1mqoqyaq,3tmfv4nepcr7alm1nqraxs62cju8wv,vQdJHg9y,2020-0188,2020-06-04,10:36:42,10:58:33,NA,incomplete,38,number,1,1,left,Red_Star_Stripes_2.jpg,Blue_Plus_Grid_2.jpg,Green_Circle_Stripes_1.jpg,left,1112.7049999777228,true,NA,NA,NA,NA,NA,NA,NA,NA,true
vQdJHg9y,3e9vauv7czrnvucm8noapw1mqoqyaq,3tmfv4nepcr7alm1nqraxs62cju8wv,vQdJHg9y,2020-0188,2020-06-04,10:36:42,10:58:33,NA,incomplete,39,number,1,1,left,Green_Triangle_Grid_1.jpg,Red_Star_Dots_1.jpg,Purple_Circle_Grid_2.jpg,left,1078.199999872595,true,NA,NA,NA,NA,NA,NA,NA,NA,true
vQdJHg9y,3e9vauv7czrnvucm8noapw1mqoqyaq,3tmfv4nepcr7alm1nqraxs62cju8wv,vQdJHg9y,2020-0188,2020-06-04,10:36:42,10:58:33,NA,incomplete,0,filling,0,1,left,Blue_Star_Dots_4.jpg,Purple_Triangle_Dots_1.jpg,Red_Plus_Grid_4.jpg,right,1600.3350000828505,false,high,NA,NA,NA,NA,NA,NA,NA,false
vQdJHg9y,3e9vauv7czrnvucm8noapw1mqoqyaq,3tmfv4nepcr7alm1nqraxs62cju8wv,vQdJHg9y,2020-0188,2020-06-04,10:36:42,10:58:33,NA,incomplete,1,filling,0,0,right,Red_Plus_Grid_4.jpg,Blue_Circle_Chess_4.jpg,Purple_Triangle_Grid_1.jpg,right,1852.4149998556823,true,high,NA,NA,NA,NA,NA,NA,NA,false
vQdJHg9y,3e9vauv7czrnvucm8noapw1mqoqyaq,3tmfv4nepcr7alm1nqraxs62cju8wv,vQdJHg9y,2020-0188,2020-06-04,10:36:42,10:58:33,NA,incomplete,2,filling,0,1,right,Red_Star_Stripes_2.jpg,Blue_Plus_Dots_2.jpg,Green_Triangle_Stripes_1.jpg,left,855.3499998524785,false,high,NA,NA,NA,NA,NA,NA,NA,false
vQdJHg9y,3e9vauv7czrnvucm8noapw1mqoqyaq,3tmfv4nepcr7alm1nqraxs62cju8wv,vQdJHg9y,2020-0188,2020-06-04,10:36:42,10:58:33,NA,incomplete,3,filling,0,1,left,Green_Circle_Grid_4.jpg,Purple_Plus_Grid_2.jpg,Red_Triangle_Chess_4.jpg,left,1056.9200001191348,true,high,NA,NA,NA,NA,NA,NA,NA,false
vQdJHg9y,3e9vauv7czrnvucm8noapw1mqoqyaq,3tmfv4nepcr7alm1nqraxs62cju8wv,vQdJHg9y,2020-0188,2020-06-04,10:36:42,10:58:33,NA,incomplete,4,filling,0,1,left,Red_Plus_Stripes_3.jpg,Green_Circle_Stripes_4.jpg,Purple_Star_Dots_3.jpg,left,935.9350001905113,true,high,NA,NA,NA,NA,NA,NA,NA,false
vQdJHg9y,3e9vauv7czrnvucm8noapw1mqoqyaq,3tmfv4nepcr7alm1nqraxs62cju8wv,vQdJHg9y,2020-0188,2020-06-04,10:36:42,10:58:33,NA,incomplete,5,filling,0,1,left,Green_Star_Stripes_3.jpg,Purple_Plus_Stripes_2.jpg,Blue_Circle_Chess_3.jpg,left,1231.804999988526,true,high,NA,NA,NA,NA,NA,NA,NA,false
vQdJHg9y,3e9vauv7czrnvucm8noapw1mqoqyaq,3tmfv4nepcr7alm1nqraxs62cju8wv,vQdJHg9y,2020-0188,2020-06-04,10:36:42,10:58:33,NA,incomplete,6,filling,0,1,left,Blue_Plus_Grid_2.jpg,Green_Star_Grid_4.jpg,Red_Circle_Dots_2.jpg,left,1159.3700000084937,true,high,NA,NA,NA,NA,NA,NA,NA,false
vQdJHg9y,3e9vauv7czrnvucm8noapw1mqoqyaq,3tmfv4nepcr7alm1nqraxs62cju8wv,vQdJHg9y,2020-0188,2020-06-04,10:36:42,10:58:33,NA,incomplete,7,filling,0,0,left,Purple_Star_Stripes_2.jpg,Blue_Circle_Stripes_4.jpg,Red_Plus_Grid_2.jpg,left,756.0450001619756,true,high,NA,NA,NA,NA,NA,NA,NA,false
vQdJHg9y,3e9vauv7czrnvucm8noapw1mqoqyaq,3tmfv4nepcr7alm1nqraxs62cju8wv,vQdJHg9y,2020-0188,2020-06-04,10:36:42,10:58:33,NA,incomplete,8,filling,0,1,left,Green_Triangle_Chess_2.jpg,Red_Plus_Chess_1.jpg,Blue_Star_Grid_2.jpg,left,928.9150000549853,true,high,NA,NA,NA,NA,NA,NA,NA,false
vQdJHg9y,3e9vauv7czrnvucm8noapw1mqoqyaq,3tmfv4nepcr7alm1nqraxs62cju8wv,vQdJHg9y,2020-0188,2020-06-04,10:36:42,10:58:33,NA,incomplete,9,filling,0,0,left,Red_Circle_Stripes_3.jpg,Blue_Plus_Stripes_2.jpg,Purple_Star_Dots_3.jpg,left,782.9449998680502,true,high,NA,NA,NA,NA,NA,NA,NA,false
vQdJHg9y,3e9vauv7czrnvucm8noapw1mqoqyaq,3tmfv4nepcr7alm1nqraxs62cju8wv,vQdJHg9y,2020-0188,2020-06-04,10:36:42,10:58:33,NA,incomplete,10,number,1,0,left,Blue_Plus_Chess_3.jpg,Green_Triangle_Stripes_3.jpg,Purple_Star_Chess_2.jpg,right,921.135000186041,false,high,NA,NA,NA,NA,NA,NA,NA,false
vQdJHg9y,3e9vauv7czrnvucm8noapw1mqoqyaq,3tmfv4nepcr7alm1nqraxs62cju8wv,vQdJHg9y,2020-0188,2020-06-04,10:36:42,10:58:33,NA,incomplete,11,number,1,1,left,Red_Triangle_Chess_3.jpg,Purple_Plus_Grid_3.jpg,Blue_Star_Chess_1.jpg,right,1093.5200001113117,false,high,NA,NA,NA,NA,NA,NA,NA,false
vQdJHg9y,3e9vauv7czrnvucm8noapw1mqoqyaq,3tmfv4nepcr7alm1nqraxs62cju8wv,vQdJHg9y,2020-0188,2020-06-04,10:36:42,10:58:33,NA,incomplete,12,number,1,1,left,Green_Plus_Grid_1.jpg,Red_Triangle_Dots_1.jpg,Blue_Star_Grid_3.jpg,right,1056.9850001484156,false,high,NA,NA,NA,NA,NA,NA,NA,false
vQdJHg9y,3e9vauv7czrnvucm8noapw1mqoqyaq,3tmfv4nepcr7alm1nqraxs62cju8wv,vQdJHg9y,2020-0188,2020-06-04,10:36:42,10:58:33,NA,incomplete,13,number,1,1,right,Green_Star_Dots_2.jpg,Red_Circle_Dots_1.jpg,Blue_Plus_Chess_2.jpg,right,864.2799998633564,true,high,NA,NA,NA,NA,NA,NA,NA,false
vQdJHg9y,3e9vauv7czrnvucm8noapw1mqoqyaq,3tmfv4nepcr7alm1nqraxs62cju8wv,vQdJHg9y,2020-0188,2020-06-04,10:36:42,10:58:33,NA,incomplete,14,number,1,1,left,Blue_Star_Stripes_1.jpg,Purple_Plus_Dots_1.jpg,Green_Circle_Stripes_3.jpg,left,614.185000071302,true,high,NA,NA,NA,NA,NA,NA,NA,false
vQdJHg9y,3e9vauv7czrnvucm8noapw1mqoqyaq,3tmfv4nepcr7alm1nqraxs62cju8wv,vQdJHg9y,2020-0188,2020-06-04,10:36:42,10:58:33,NA,incomplete,15,number,1,1,right,Purple_Plus_Stripes_3.jpg,Blue_Star_Stripes_2.jpg,Red_Circle_Grid_3.jpg,right,789.5450000651181,true,high,NA,NA,NA,NA,NA,NA,NA,false
vQdJHg9y,3e9vauv7czrnvucm8noapw1mqoqyaq,3tmfv4nepcr7alm1nqraxs62cju8wv,vQdJHg9y,2020-0188,2020-06-04,10:36:42,10:58:33,NA,incomplete,16,number,1,1,right,Red_Star_Dots_2.jpg,Blue_Circle_Dots_4.jpg,Purple_Triangle_Stripes_2.jpg,right,1066.080000018701,true,high,NA,NA,NA,NA,NA,NA,NA,false
vQdJHg9y,3e9vauv7czrnvucm8noapw1mqoqyaq,3tmfv4nepcr7alm1nqraxs62cju8wv,vQdJHg9y,2020-0188,2020-06-04,10:36:42,10:58:33,NA,incomplete,17,number,1,1,left,Green_Plus_Stripes_1.jpg,Blue_Star_Grid_1.jpg,Purple_Circle_Stripes_4.jpg,left,733.0000000074506,true,high,NA,NA,NA,NA,NA,NA,NA,false
vQdJHg9y,3e9vauv7czrnvucm8noapw1mqoqyaq,3tmfv4nepcr7alm1nqraxs62cju8wv,vQdJHg9y,2020-0188,2020-06-04,10:36:42,10:58:33,NA,incomplete,18,number,1,0,right,Green_Circle_Grid_2.jpg,Purple_Star_Grid_1.jpg,Blue_Plus_Dots_2.jpg,right,803.8249998353422,true,high,NA,NA,NA,NA,NA,NA,NA,false
vQdJHg9y,3e9vauv7czrnvucm8noapw1mqoqyaq,3tmfv4nepcr7alm1nqraxs62cju8wv,vQdJHg9y,2020-0188,2020-06-04,10:36:42,10:58:33,NA,incomplete,19,number,1,0,right,Green_Circle_Grid_3.jpg,Red_Plus_Grid_1.jpg,Purple_Triangle_Chess_3.jpg,right,1149.669999955222,true,high,NA,NA,NA,NA,NA,NA,NA,false
vQdJHg9y,3e9vauv7czrnvucm8noapw1mqoqyaq,3tmfv4nepcr7alm1nqraxs62cju8wv,vQdJHg9y,2020-0188,2020-06-04,10:36:42,10:58:33,NA,incomplete,20,filling,0,0,left,Red_Circle_Grid_4.jpg,Purple_Star_Grid_3.jpg,Blue_Plus_Dots_4.jpg,left,1123.7500000279397,true,high,NA,NA,NA,NA,NA,NA,NA,false
vQdJHg9y,3e9vauv7czrnvucm8noapw1mqoqyaq,3tmfv4nepcr7alm1nqraxs62cju8wv,vQdJHg9y,2020-0188,2020-06-04,10:36:42,10:58:33,NA,incomplete,21,filling,0,1,left,Green_Plus_Stripes_1.jpg,Purple_Circle_Stripes_2.jpg,Blue_Star_Dots_1.jpg,left,914.3650000914931,true,high,NA,NA,NA,NA,NA,NA,NA,false
vQdJHg9y,3e9vauv7czrnvucm8noapw1mqoqyaq,3tmfv4nepcr7alm1nqraxs62cju8wv,vQdJHg9y,2020-0188,2020-06-04,10:36:42,10:58:33,NA,incomplete,22,filling,0,1,left,Green_Circle_Stripes_2.jpg,Red_Triangle_Stripes_1.jpg,Purple_Plus_Grid_2.jpg,left,620.6700000911951,true,high,NA,NA,NA,NA,NA,NA,NA,false
vQdJHg9y,3e9vauv7czrnvucm8noapw1mqoqyaq,3tmfv4nepcr7alm1nqraxs62cju8wv,vQdJHg9y,2020-0188,2020-06-04,10:36:42,10:58:33,NA,incomplete,23,filling,0,1,right,Red_Star_Chess_2.jpg,Purple_Circle_Dots_2.jpg,Blue_Plus_Chess_4.jpg,right,834.2450000345707,true,high,NA,NA,NA,NA,NA,NA,NA,false
vQdJHg9y,3e9vauv7czrnvucm8noapw1mqoqyaq,3tmfv4nepcr7alm1nqraxs62cju8wv,vQdJHg9y,2020-0188,2020-06-04,10:36:42,10:58:33,NA,incomplete,24,filling,0,1,right,Red_Triangle_Dots_4.jpg,Purple_Circle_Stripes_4.jpg,Blue_Plus_Dots_2.jpg,right,845.6599998753518,true,high,NA,NA,NA,NA,NA,NA,NA,false
vQdJHg9y,3e9vauv7czrnvucm8noapw1mqoqyaq,3tmfv4nepcr7alm1nqraxs62cju8wv,vQdJHg9y,2020-0188,2020-06-04,10:36:42,10:58:33,NA,incomplete,25,filling,0,0,left,Red_Circle_Dots_4.jpg,Green_Plus_Dots_2.jpg,Purple_Triangle_Chess_4.jpg,left,885.5900000780821,true,high,NA,NA,NA,NA,NA,NA,NA,false
vQdJHg9y,3e9vauv7czrnvucm8noapw1mqoqyaq,3tmfv4nepcr7alm1nqraxs62cju8wv,vQdJHg9y,2020-0188,2020-06-04,10:36:42,10:58:33,NA,incomplete,26,filling,0,1,right,Purple_Triangle_Chess_2.jpg,Red_Star_Grid_2.jpg,Green_Plus_Chess_1.jpg,right,825.3600001335144,true,high,NA,NA,NA,NA,NA,NA,NA,false
vQdJHg9y,3e9vauv7czrnvucm8noapw1mqoqyaq,3tmfv4nepcr7alm1nqraxs62cju8wv,vQdJHg9y,2020-0188,2020-06-04,10:36:42,10:58:33,NA,incomplete,27,filling,0,1,right,Purple_Circle_Dots_1.jpg,Blue_Star_Grid_1.jpg,Green_Plus_Dots_4.jpg,right,1171.834999928251,true,high,NA,NA,NA,NA,NA,NA,NA,false
vQdJHg9y,3e9vauv7czrnvucm8noapw1mqoqyaq,3tmfv4nepcr7alm1nqraxs62cju8wv,vQdJHg9y,2020-0188,2020-06-04,10:36:42,10:58:33,NA,incomplete,28,filling,0,1,right,Green_Plus_Dots_1.jpg,Blue_Triangle_Stripes_1.jpg,Red_Star_Dots_4.jpg,right,1072.3699999507517,true,high,NA,NA,NA,NA,NA,NA,NA,false
vQdJHg9y,3e9vauv7czrnvucm8noapw1mqoqyaq,3tmfv4nepcr7alm1nqraxs62cju8wv,vQdJHg9y,2020-0188,2020-06-04,10:36:42,10:58:33,NA,incomplete,29,filling,0,1,right,Blue_Triangle_Chess_2.jpg,Purple_Plus_Dots_2.jpg,Red_Star_Chess_1.jpg,right,875.2500000409782,true,high,NA,NA,NA,NA,NA,NA,NA,false
vQdJHg9y,3e9vauv7czrnvucm8noapw1mqoqyaq,3tmfv4nepcr7alm1nqraxs62cju8wv,vQdJHg9y,2020-0188,2020-06-04,10:36:42,10:58:33,NA,incomplete,30,number,1,1,left,Blue_Plus_Dots_1.jpg,Purple_Star_Stripes_1.jpg,Green_Triangle_Dots_2.jpg,right,884.4299998600036,false,high,NA,NA,NA,NA,NA,NA,NA,false
vQdJHg9y,3e9vauv7czrnvucm8noapw1mqoqyaq,3tmfv4nepcr7alm1nqraxs62cju8wv,vQdJHg9y,2020-0188,2020-06-04,10:36:42,10:58:33,NA,incomplete,31,number,1,1,left,Purple_Plus_Stripes_4.jpg,Blue_Star_Grid_4.jpg,Green_Triangle_Stripes_3.jpg,right,909.3150000553578,false,high,NA,NA,NA,NA,NA,NA,NA,false
vQdJHg9y,3e9vauv7czrnvucm8noapw1mqoqyaq,3tmfv4nepcr7alm1nqraxs62cju8wv,vQdJHg9y,2020-0188,2020-06-04,10:36:42,10:58:33,NA,incomplete,32,number,1,1,right,Red_Plus_Chess_2.jpg,Blue_Circle_Chess_1.jpg,Green_Triangle_Stripes_2.jpg,left,924.7300000861287,false,high,NA,NA,NA,NA,NA,NA,NA,false
vQdJHg9y,3e9vauv7czrnvucm8noapw1mqoqyaq,3tmfv4nepcr7alm1nqraxs62cju8wv,vQdJHg9y,2020-0188,2020-06-04,10:36:42,10:58:33,NA,incomplete,33,number,1,1,right,Red_Plus_Grid_1.jpg,Blue_Star_Grid_2.jpg,Green_Triangle_Stripes_1.jpg,right,679.1349998675287,true,high,NA,NA,NA,NA,NA,NA,NA,false
vQdJHg9y,3e9vauv7czrnvucm8noapw1mqoqyaq,3tmfv4nepcr7alm1nqraxs62cju8wv,vQdJHg9y,2020-0188,2020-06-04,10:36:42,10:58:33,NA,incomplete,34,number,1,1,right,Green_Triangle_Chess_4.jpg,Blue_Star_Chess_3.jpg,Purple_Circle_Stripes_4.jpg,right,900.8449998218566,true,high,NA,NA,NA,NA,NA,NA,NA,false
vQdJHg9y,3e9vauv7czrnvucm8noapw1mqoqyaq,3tmfv4nepcr7alm1nqraxs62cju8wv,vQdJHg9y,2020-0188,2020-06-04,10:36:42,10:58:33,NA,incomplete,35,number,1,1,right,Green_Star_Stripes_4.jpg,Purple_Circle_Stripes_1.jpg,Blue_Plus_Dots_4.jpg,right,669.444999890402,true,high,NA,NA,NA,NA,NA,NA,NA,false
vQdJHg9y,3e9vauv7czrnvucm8noapw1mqoqyaq,3tmfv4nepcr7alm1nqraxs62cju8wv,vQdJHg9y,2020-0188,2020-06-04,10:36:42,10:58:33,NA,incomplete,36,number,1,0,left,Green_Circle_Stripes_3.jpg,Red_Star_Dots_3.jpg,Blue_Plus_Stripes_1.jpg,left,740.250000031665,true,high,NA,NA,NA,NA,NA,NA,NA,false
vQdJHg9y,3e9vauv7czrnvucm8noapw1mqoqyaq,3tmfv4nepcr7alm1nqraxs62cju8wv,vQdJHg9y,2020-0188,2020-06-04,10:36:42,10:58:33,NA,incomplete,37,number,1,1,left,Blue_Star_Dots_3.jpg,Red_Circle_Grid_3.jpg,Green_Plus_Dots_4.jpg,left,751.0850001126528,true,high,NA,NA,NA,NA,NA,NA,NA,false
vQdJHg9y,3e9vauv7czrnvucm8noapw1mqoqyaq,3tmfv4nepcr7alm1nqraxs62cju8wv,vQdJHg9y,2020-0188,2020-06-04,10:36:42,10:58:33,NA,incomplete,38,number,1,0,left,Blue_Triangle_Dots_4.jpg,Green_Plus_Grid_4.jpg,Purple_Star_Dots_3.jpg,left,781.8350000306964,true,high,NA,NA,NA,NA,NA,NA,NA,false
vQdJHg9y,3e9vauv7czrnvucm8noapw1mqoqyaq,3tmfv4nepcr7alm1nqraxs62cju8wv,vQdJHg9y,2020-0188,2020-06-04,10:36:42,10:58:33,NA,incomplete,39,number,1,0,right,Blue_Circle_Grid_2.jpg,Green_Plus_Grid_1.jpg,Red_Triangle_Dots_2.jpg,right,767.5099999178201,true,high,NA,NA,NA,NA,NA,NA,NA,false
vQdJHg9y,3e9vauv7czrnvucm8noapw1mqoqyaq,3tmfv4nepcr7alm1nqraxs62cju8wv,vQdJHg9y,2020-0188,2020-06-04,10:36:42,10:58:33,NA,incomplete,40,filling,0,0,right,Purple_Plus_Chess_2.jpg,Green_Circle_Grid_2.jpg,Blue_Triangle_Chess_1.jpg,right,736.9950001593679,true,high,NA,NA,NA,NA,NA,NA,NA,false
vQdJHg9y,3e9vauv7czrnvucm8noapw1mqoqyaq,3tmfv4nepcr7alm1nqraxs62cju8wv,vQdJHg9y,2020-0188,2020-06-04,10:36:42,10:58:33,NA,incomplete,41,filling,0,0,left,Green_Triangle_Grid_3.jpg,Blue_Circle_Grid_1.jpg,Red_Plus_Dots_3.jpg,right,877.4249998386949,false,high,NA,NA,NA,NA,NA,NA,NA,false
vQdJHg9y,3e9vauv7czrnvucm8noapw1mqoqyaq,3tmfv4nepcr7alm1nqraxs62cju8wv,vQdJHg9y,2020-0188,2020-06-04,10:36:42,10:58:33,NA,incomplete,42,filling,0,1,left,Purple_Triangle_Dots_2.jpg,Blue_Circle_Dots_3.jpg,Red_Plus_Chess_2.jpg,right,936.5950000938028,false,high,NA,NA,NA,NA,NA,NA,NA,false
vQdJHg9y,3e9vauv7czrnvucm8noapw1mqoqyaq,3tmfv4nepcr7alm1nqraxs62cju8wv,vQdJHg9y,2020-0188,2020-06-04,10:36:42,10:58:33,NA,incomplete,43,filling,0,1,right,Blue_Star_Dots_4.jpg,Red_Triangle_Stripes_4.jpg,Purple_Plus_Dots_3.jpg,right,1151.134999934584,true,high,NA,NA,NA,NA,NA,NA,NA,false
vQdJHg9y,3e9vauv7czrnvucm8noapw1mqoqyaq,3tmfv4nepcr7alm1nqraxs62cju8wv,vQdJHg9y,2020-0188,2020-06-04,10:36:42,10:58:33,NA,incomplete,44,filling,0,1,right,Green_Triangle_Dots_2.jpg,Red_Star_Chess_2.jpg,Purple_Plus_Dots_3.jpg,right,975.6549999583513,true,high,NA,NA,NA,NA,NA,NA,NA,false
vQdJHg9y,3e9vauv7czrnvucm8noapw1mqoqyaq,3tmfv4nepcr7alm1nqraxs62cju8wv,vQdJHg9y,2020-0188,2020-06-04,10:36:42,10:58:33,NA,incomplete,45,filling,0,1,left,Blue_Star_Stripes_3.jpg,Red_Triangle_Stripes_2.jpg,Purple_Circle_Dots_3.jpg,left,935.4850000236183,true,high,NA,NA,NA,NA,NA,NA,NA,false
vQdJHg9y,3e9vauv7czrnvucm8noapw1mqoqyaq,3tmfv4nepcr7alm1nqraxs62cju8wv,vQdJHg9y,2020-0188,2020-06-04,10:36:42,10:58:33,NA,incomplete,46,filling,0,1,right,Red_Star_Stripes_2.jpg,Green_Plus_Grid_2.jpg,Blue_Circle_Stripes_3.jpg,right,777.62999990955,true,high,NA,NA,NA,NA,NA,NA,NA,false
vQdJHg9y,3e9vauv7czrnvucm8noapw1mqoqyaq,3tmfv4nepcr7alm1nqraxs62cju8wv,vQdJHg9y,2020-0188,2020-06-04,10:36:42,10:58:33,NA,incomplete,47,filling,0,1,left,Blue_Plus_Stripes_2.jpg,Green_Circle_Stripes_3.jpg,Red_Star_Chess_2.jpg,left,803.0649998690933,true,high,NA,NA,NA,NA,NA,NA,NA,false
vQdJHg9y,3e9vauv7czrnvucm8noapw1mqoqyaq,3tmfv4nepcr7alm1nqraxs62cju8wv,vQdJHg9y,2020-0188,2020-06-04,10:36:42,10:58:33,NA,incomplete,48,filling,0,1,right,Purple_Circle_Dots_3.jpg,Red_Plus_Stripes_3.jpg,Green_Star_Dots_4.jpg,right,718.800000147894,true,high,NA,NA,NA,NA,NA,NA,NA,false
vQdJHg9y,3e9vauv7czrnvucm8noapw1mqoqyaq,3tmfv4nepcr7alm1nqraxs62cju8wv,vQdJHg9y,2020-0188,2020-06-04,10:36:42,10:58:33,NA,incomplete,49,filling,0,1,left,Purple_Star_Stripes_3.jpg,Red_Plus_Stripes_4.jpg,Blue_Circle_Chess_3.jpg,left,841.6899999137968,true,high,NA,NA,NA,NA,NA,NA,NA,false
vQdJHg9y,3e9vauv7czrnvucm8noapw1mqoqyaq,3tmfv4nepcr7alm1nqraxs62cju8wv,vQdJHg9y,2020-0188,2020-06-04,10:36:42,10:58:33,NA,incomplete,50,number,1,1,left,Red_Triangle_Stripes_1.jpg,Blue_Circle_Dots_1.jpg,Purple_Star_Stripes_2.jpg,right,837.9849998746067,false,high,NA,NA,NA,NA,NA,NA,NA,false
vQdJHg9y,3e9vauv7czrnvucm8noapw1mqoqyaq,3tmfv4nepcr7alm1nqraxs62cju8wv,vQdJHg9y,2020-0188,2020-06-04,10:36:42,10:58:33,NA,incomplete,51,number,1,1,left,Blue_Circle_Grid_1.jpg,Red_Star_Chess_1.jpg,Green_Plus_Grid_3.jpg,right,834.8300000652671,false,high,NA,NA,NA,NA,NA,NA,NA,false
vQdJHg9y,3e9vauv7czrnvucm8noapw1mqoqyaq,3tmfv4nepcr7alm1nqraxs62cju8wv,vQdJHg9y,2020-0188,2020-06-04,10:36:42,10:58:33,NA,incomplete,52,number,1,0,left,Purple_Star_Stripes_4.jpg,Green_Plus_Grid_4.jpg,Red_Circle_Stripes_2.jpg,left,640.5950000043958,true,high,NA,NA,NA,NA,NA,NA,NA,false
vQdJHg9y,3e9vauv7czrnvucm8noapw1mqoqyaq,3tmfv4nepcr7alm1nqraxs62cju8wv,vQdJHg9y,2020-0188,2020-06-04,10:36:42,10:58:33,NA,incomplete,53,number,1,0,left,Blue_Plus_Chess_4.jpg,Green_Triangle_Dots_4.jpg,Red_Circle_Chess_2.jpg,right,827.9850000981241,false,high,NA,NA,NA,NA,NA,NA,NA,false
vQdJHg9y,3e9vauv7czrnvucm8noapw1mqoqyaq,3tmfv4nepcr7alm1nqraxs62cju8wv,vQdJHg9y,2020-0188,2020-06-04,10:36:42,10:58:33,NA,incomplete,54,number,1,1,left,Purple_Triangle_Stripes_2.jpg,Red_Plus_Grid_2.jpg,Blue_Star_Stripes_4.jpg,right,943.4899999760091,false,high,NA,NA,NA,NA,NA,NA,NA,false
vQdJHg9y,3e9vauv7czrnvucm8noapw1mqoqyaq,3tmfv4nepcr7alm1nqraxs62cju8wv,vQdJHg9y,2020-0188,2020-06-04,10:36:42,10:58:33,NA,incomplete,55,number,1,1,right,Blue_Triangle_Grid_1.jpg,Purple_Star_Grid_2.jpg,Green_Circle_Stripes_1.jpg,left,1034.3900001607835,false,high,NA,NA,NA,NA,NA,NA,NA,false
vQdJHg9y,3e9vauv7czrnvucm8noapw1mqoqyaq,3tmfv4nepcr7alm1nqraxs62cju8wv,vQdJHg9y,2020-0188,2020-06-04,10:36:42,10:58:33,NA,incomplete,56,number,1,1,right,Blue_Star_Chess_2.jpg,Red_Plus_Chess_4.jpg,Green_Triangle_Dots_2.jpg,right,688.1800000555813,true,high,NA,NA,NA,NA,NA,NA,NA,false
vQdJHg9y,3e9vauv7czrnvucm8noapw1mqoqyaq,3tmfv4nepcr7alm1nqraxs62cju8wv,vQdJHg9y,2020-0188,2020-06-04,10:36:42,10:58:33,NA,incomplete,57,number,1,1,left,Blue_Circle_Dots_2.jpg,Red_Star_Grid_2.jpg,Green_Triangle_Dots_4.jpg,left,817.0000000391155,true,high,NA,NA,NA,NA,NA,NA,NA,false
vQdJHg9y,3e9vauv7czrnvucm8noapw1mqoqyaq,3tmfv4nepcr7alm1nqraxs62cju8wv,vQdJHg9y,2020-0188,2020-06-04,10:36:42,10:58:33,NA,incomplete,58,number,1,0,left,Red_Star_Stripes_2.jpg,Blue_Plus_Dots_2.jpg,Purple_Circle_Stripes_1.jpg,left,765.7200000248849,true,high,NA,NA,NA,NA,NA,NA,NA,false
vQdJHg9y,3e9vauv7czrnvucm8noapw1mqoqyaq,3tmfv4nepcr7alm1nqraxs62cju8wv,vQdJHg9y,2020-0188,2020-06-04,10:36:42,10:58:33,NA,incomplete,59,number,1,1,left,Purple_Plus_Chess_4.jpg,Blue_Triangle_Stripes_4.jpg,Red_Star_Chess_2.jpg,right,659.8849999718368,false,high,NA,NA,NA,NA,NA,NA,NA,false
vQdJHg9y,3e9vauv7czrnvucm8noapw1mqoqyaq,3tmfv4nepcr7alm1nqraxs62cju8wv,vQdJHg9y,2020-0188,2020-06-04,10:36:42,10:58:33,NA,incomplete,60,filling,0,1,right,Green_Circle_Dots_4.jpg,Blue_Plus_Stripes_4.jpg,Red_Star_Dots_3.jpg,left,997.620000038296,false,high,NA,NA,NA,NA,NA,NA,NA,false
vQdJHg9y,3e9vauv7czrnvucm8noapw1mqoqyaq,3tmfv4nepcr7alm1nqraxs62cju8wv,vQdJHg9y,2020-0188,2020-06-04,10:36:42,10:58:33,NA,incomplete,61,filling,0,1,right,Green_Star_Dots_1.jpg,Purple_Plus_Stripes_1.jpg,Blue_Circle_Dots_4.jpg,right,874.1249998565763,true,high,NA,NA,NA,NA,NA,NA,NA,false
vQdJHg9y,3e9vauv7czrnvucm8noapw1mqoqyaq,3tmfv4nepcr7alm1nqraxs62cju8wv,vQdJHg9y,2020-0188,2020-06-04,10:36:42,10:58:33,NA,incomplete,62,filling,0,0,right,Blue_Star_Dots_1.jpg,Green_Circle_Stripes_1.jpg,Red_Plus_Dots_2.jpg,right,983.6600001435727,true,high,NA,NA,NA,NA,NA,NA,NA,false
vQdJHg9y,3e9vauv7czrnvucm8noapw1mqoqyaq,3tmfv4nepcr7alm1nqraxs62cju8wv,vQdJHg9y,2020-0188,2020-06-04,10:36:42,10:58:33,NA,incomplete,63,filling,0,1,left,Purple_Star_Stripes_4.jpg,Green_Plus_Stripes_3.jpg,Red_Circle_Grid_4.jpg,left,956.125000026077,true,high,NA,NA,NA,NA,NA,NA,NA,false
vQdJHg9y,3e9vauv7czrnvucm8noapw1mqoqyaq,3tmfv4nepcr7alm1nqraxs62cju8wv,vQdJHg9y,2020-0188,2020-06-04,10:36:42,10:58:33,NA,incomplete,64,filling,0,0,right,Purple_Plus_Dots_3.jpg,Blue_Star_Chess_3.jpg,Green_Triangle_Dots_4.jpg,right,829.0899998974055,true,high,NA,NA,NA,NA,NA,NA,NA,false
vQdJHg9y,3e9vauv7czrnvucm8noapw1mqoqyaq,3tmfv4nepcr7alm1nqraxs62cju8wv,vQdJHg9y,2020-0188,2020-06-04,10:36:42,10:58:33,NA,incomplete,65,filling,0,1,left,Red_Circle_Stripes_4.jpg,Green_Plus_Stripes_3.jpg,Blue_Triangle_Dots_4.jpg,left,1023.1149999890476,true,high,NA,NA,NA,NA,NA,NA,NA,false
vQdJHg9y,3e9vauv7czrnvucm8noapw1mqoqyaq,3tmfv4nepcr7alm1nqraxs62cju8wv,vQdJHg9y,2020-0188,2020-06-04,10:36:42,10:58:33,NA,incomplete,66,filling,0,1,right,Purple_Circle_Stripes_1.jpg,Green_Plus_Grid_1.jpg,Red_Star_Stripes_4.jpg,right,1218.4899998828769,true,high,NA,NA,NA,NA,NA,NA,NA,false
vQdJHg9y,3e9vauv7czrnvucm8noapw1mqoqyaq,3tmfv4nepcr7alm1nqraxs62cju8wv,vQdJHg9y,2020-0188,2020-06-04,10:36:42,10:58:33,NA,incomplete,67,filling,0,1,left,Green_Plus_Dots_1.jpg,Red_Star_Dots_4.jpg,Purple_Triangle_Chess_1.jpg,left,964.0000001527369,true,high,NA,NA,NA,NA,NA,NA,NA,false
vQdJHg9y,3e9vauv7czrnvucm8noapw1mqoqyaq,3tmfv4nepcr7alm1nqraxs62cju8wv,vQdJHg9y,2020-0188,2020-06-04,10:36:42,10:58:33,NA,incomplete,68,filling,0,1,left,Purple_Plus_Dots_3.jpg,Blue_Circle_Dots_4.jpg,Green_Triangle_Chess_3.jpg,left,936.1449999269098,true,high,NA,NA,NA,NA,NA,NA,NA,false
vQdJHg9y,3e9vauv7czrnvucm8noapw1mqoqyaq,3tmfv4nepcr7alm1nqraxs62cju8wv,vQdJHg9y,2020-0188,2020-06-04,10:36:42,10:58:33,NA,incomplete,69,filling,0,1,right,Purple_Plus_Stripes_2.jpg,Blue_Circle_Dots_2.jpg,Red_Star_Stripes_1.jpg,right,849.9099998734891,true,high,NA,NA,NA,NA,NA,NA,NA,false
vQdJHg9y,3e9vauv7czrnvucm8noapw1mqoqyaq,3tmfv4nepcr7alm1nqraxs62cju8wv,vQdJHg9y,2020-0188,2020-06-04,10:36:42,10:58:33,NA,incomplete,70,number,1,1,left,Red_Triangle_Dots_3.jpg,Purple_Star_Stripes_3.jpg,Green_Plus_Dots_2.jpg,right,833.5250001400709,false,high,NA,NA,NA,NA,NA,NA,NA,false
vQdJHg9y,3e9vauv7czrnvucm8noapw1mqoqyaq,3tmfv4nepcr7alm1nqraxs62cju8wv,vQdJHg9y,2020-0188,2020-06-04,10:36:42,10:58:33,NA,incomplete,71,number,1,0,right,Green_Star_Stripes_3.jpg,Red_Triangle_Stripes_2.jpg,Blue_Circle_Chess_3.jpg,left,832.9500001855195,false,high,NA,NA,NA,NA,NA,NA,NA,false
vQdJHg9y,3e9vauv7czrnvucm8noapw1mqoqyaq,3tmfv4nepcr7alm1nqraxs62cju8wv,vQdJHg9y,2020-0188,2020-06-04,10:36:42,10:58:33,NA,incomplete,72,number,1,0,left,Purple_Circle_Dots_1.jpg,Red_Plus_Grid_1.jpg,Green_Star_Dots_4.jpg,right,1221.3699999265373,false,high,NA,NA,NA,NA,NA,NA,NA,false
vQdJHg9y,3e9vauv7czrnvucm8noapw1mqoqyaq,3tmfv4nepcr7alm1nqraxs62cju8wv,vQdJHg9y,2020-0188,2020-06-04,10:36:42,10:58:33,NA,incomplete,73,number,1,0,right,Red_Star_Chess_2.jpg,Purple_Circle_Chess_1.jpg,Blue_Plus_Dots_2.jpg,left,971.8049999792129,false,high,NA,NA,NA,NA,NA,NA,NA,false
vQdJHg9y,3e9vauv7czrnvucm8noapw1mqoqyaq,3tmfv4nepcr7alm1nqraxs62cju8wv,vQdJHg9y,2020-0188,2020-06-04,10:36:42,10:58:33,NA,incomplete,74,number,1,1,left,Blue_Star_Dots_4.jpg,Red_Triangle_Chess_4.jpg,Green_Plus_Dots_2.jpg,right,825.9199999738485,false,high,NA,NA,NA,NA,NA,NA,NA,false
vQdJHg9y,3e9vauv7czrnvucm8noapw1mqoqyaq,3tmfv4nepcr7alm1nqraxs62cju8wv,vQdJHg9y,2020-0188,2020-06-04,10:36:42,10:58:33,NA,incomplete,75,number,1,1,left,Blue_Circle_Grid_2.jpg,Red_Star_Chess_2.jpg,Green_Triangle_Grid_3.jpg,left,1146.6949998866767,true,high,NA,NA,NA,NA,NA,NA,NA,false
vQdJHg9y,3e9vauv7czrnvucm8noapw1mqoqyaq,3tmfv4nepcr7alm1nqraxs62cju8wv,vQdJHg9y,2020-0188,2020-06-04,10:36:42,10:58:33,NA,incomplete,76,number,1,1,left,Green_Plus_Stripes_1.jpg,Red_Triangle_Dots_1.jpg,Purple_Star_Stripes_3.jpg,left,915.9649999346584,true,high,NA,NA,NA,NA,NA,NA,NA,false
vQdJHg9y,3e9vauv7czrnvucm8noapw1mqoqyaq,3tmfv4nepcr7alm1nqraxs62cju8wv,vQdJHg9y,2020-0188,2020-06-04,10:36:42,10:58:33,NA,incomplete,77,number,1,1,left,Red_Circle_Stripes_4.jpg,Green_Plus_Chess_4.jpg,Purple_Triangle_Stripes_2.jpg,left,850.0200000125915,true,high,NA,NA,NA,NA,NA,NA,NA,false
vQdJHg9y,3e9vauv7czrnvucm8noapw1mqoqyaq,3tmfv4nepcr7alm1nqraxs62cju8wv,vQdJHg9y,2020-0188,2020-06-04,10:36:42,10:58:33,NA,incomplete,78,number,1,1,right,Green_Triangle_Chess_3.jpg,Red_Star_Chess_2.jpg,Purple_Plus_Stripes_3.jpg,right,1201.1649999767542,true,high,NA,NA,NA,NA,NA,NA,NA,false
vQdJHg9y,3e9vauv7czrnvucm8noapw1mqoqyaq,3tmfv4nepcr7alm1nqraxs62cju8wv,vQdJHg9y,2020-0188,2020-06-04,10:36:42,10:58:33,NA,incomplete,79,number,1,1,right,Green_Star_Chess_4.jpg,Purple_Plus_Chess_2.jpg,Blue_Circle_Stripes_4.jpg,right,806.4549998380244,true,high,NA,NA,NA,NA,NA,NA,NA,false
vQdJHg9y,3e9vauv7czrnvucm8noapw1mqoqyaq,3tmfv4nepcr7alm1nqraxs62cju8wv,vQdJHg9y,2020-0188,2020-06-04,10:36:42,10:58:33,NA,incomplete,80,filling,0,1,right,Purple_Star_Grid_3.jpg,Green_Triangle_Chess_3.jpg,Blue_Plus_Grid_2.jpg,left,935.7149999123067,false,high,NA,NA,NA,NA,NA,NA,NA,false
vQdJHg9y,3e9vauv7czrnvucm8noapw1mqoqyaq,3tmfv4nepcr7alm1nqraxs62cju8wv,vQdJHg9y,2020-0188,2020-06-04,10:36:42,10:58:33,NA,incomplete,81,filling,0,1,left,Red_Triangle_Dots_4.jpg,Purple_Star_Dots_3.jpg,Green_Circle_Grid_4.jpg,right,912.4149999115616,false,high,NA,NA,NA,NA,NA,NA,NA,false
vQdJHg9y,3e9vauv7czrnvucm8noapw1mqoqyaq,3tmfv4nepcr7alm1nqraxs62cju8wv,vQdJHg9y,2020-0188,2020-06-04,10:36:42,10:58:33,NA,incomplete,82,filling,0,1,right,Purple_Circle_Stripes_1.jpg,Red_Triangle_Grid_1.jpg,Blue_Star_Stripes_3.jpg,right,1002.2699998226017,true,high,NA,NA,NA,NA,NA,NA,NA,false
vQdJHg9y,3e9vauv7czrnvucm8noapw1mqoqyaq,3tmfv4nepcr7alm1nqraxs62cju8wv,vQdJHg9y,2020-0188,2020-06-04,10:36:42,10:58:33,NA,incomplete,83,filling,0,1,right,Blue_Triangle_Grid_4.jpg,Green_Plus_Dots_4.jpg,Purple_Star_Grid_3.jpg,right,990.6099999789149,true,high,NA,NA,NA,NA,NA,NA,NA,false
vQdJHg9y,3e9vauv7czrnvucm8noapw1mqoqyaq,3tmfv4nepcr7alm1nqraxs62cju8wv,vQdJHg9y,2020-0188,2020-06-04,10:36:42,10:58:33,NA,incomplete,84,filling,0,1,right,Purple_Plus_Stripes_3.jpg,Green_Star_Grid_3.jpg,Blue_Circle_Stripes_4.jpg,right,1036.3849999848753,true,high,NA,NA,NA,NA,NA,NA,NA,false
vQdJHg9y,3e9vauv7czrnvucm8noapw1mqoqyaq,3tmfv4nepcr7alm1nqraxs62cju8wv,vQdJHg9y,2020-0188,2020-06-04,10:36:42,10:58:33,NA,incomplete,85,filling,0,0,right,Red_Plus_Chess_2.jpg,Blue_Triangle_Stripes_2.jpg,Green_Circle_Chess_3.jpg,right,1055.0400000065565,true,high,NA,NA,NA,NA,NA,NA,NA,false
vQdJHg9y,3e9vauv7czrnvucm8noapw1mqoqyaq,3tmfv4nepcr7alm1nqraxs62cju8wv,vQdJHg9y,2020-0188,2020-06-04,10:36:42,10:58:33,NA,incomplete,86,filling,0,1,right,Purple_Triangle_Dots_2.jpg,Green_Circle_Chess_2.jpg,Blue_Plus_Dots_1.jpg,right,969.5299998857081,true,high,NA,NA,NA,NA,NA,NA,NA,false
vQdJHg9y,3e9vauv7czrnvucm8noapw1mqoqyaq,3tmfv4nepcr7alm1nqraxs62cju8wv,vQdJHg9y,2020-0188,2020-06-04,10:36:42,10:58:33,NA,incomplete,87,filling,0,1,right,Red_Plus_Chess_1.jpg,Blue_Triangle_Stripes_1.jpg,Green_Star_Chess_4.jpg,right,1119.13500004448,true,high,NA,NA,NA,NA,NA,NA,NA,false
vQdJHg9y,3e9vauv7czrnvucm8noapw1mqoqyaq,3tmfv4nepcr7alm1nqraxs62cju8wv,vQdJHg9y,2020-0188,2020-06-04,10:36:42,10:58:33,NA,incomplete,88,filling,0,1,right,Red_Circle_Chess_1.jpg,Green_Star_Grid_1.jpg,Purple_Triangle_Chess_3.jpg,right,792.7200000267476,true,high,NA,NA,NA,NA,NA,NA,NA,false
vQdJHg9y,3e9vauv7czrnvucm8noapw1mqoqyaq,3tmfv4nepcr7alm1nqraxs62cju8wv,vQdJHg9y,2020-0188,2020-06-04,10:36:42,10:58:33,NA,incomplete,89,filling,0,1,right,Purple_Plus_Dots_2.jpg,Green_Circle_Grid_2.jpg,Red_Triangle_Dots_1.jpg,right,1049.9299999792129,true,high,NA,NA,NA,NA,NA,NA,NA,false
vQdJHg9y,3e9vauv7czrnvucm8noapw1mqoqyaq,3tmfv4nepcr7alm1nqraxs62cju8wv,vQdJHg9y,2020-0188,2020-06-04,10:36:42,10:58:33,NA,incomplete,90,number,1,1,right,Blue_Circle_Grid_4.jpg,Red_Star_Grid_2.jpg,Green_Triangle_Chess_4.jpg,right,1110.0049999076873,true,high,NA,NA,NA,NA,NA,NA,NA,false
vQdJHg9y,3e9vauv7czrnvucm8noapw1mqoqyaq,3tmfv4nepcr7alm1nqraxs62cju8wv,vQdJHg9y,2020-0188,2020-06-04,10:36:42,10:58:33,NA,incomplete,91,number,1,1,right,Green_Plus_Stripes_3.jpg,Blue_Triangle_Stripes_4.jpg,Red_Star_Grid_3.jpg,left,951.8750000279397,false,high,NA,NA,NA,NA,NA,NA,NA,false
vQdJHg9y,3e9vauv7czrnvucm8noapw1mqoqyaq,3tmfv4nepcr7alm1nqraxs62cju8wv,vQdJHg9y,2020-0188,2020-06-04,10:36:42,10:58:33,NA,incomplete,92,number,1,1,left,Red_Plus_Chess_1.jpg,Green_Triangle_Grid_1.jpg,Purple_Circle_Chess_2.jpg,right,904.42999987863,false,high,NA,NA,NA,NA,NA,NA,NA,false
vQdJHg9y,3e9vauv7czrnvucm8noapw1mqoqyaq,3tmfv4nepcr7alm1nqraxs62cju8wv,vQdJHg9y,2020-0188,2020-06-04,10:36:42,10:58:33,NA,incomplete,93,number,1,1,right,Blue_Circle_Grid_1.jpg,Green_Plus_Grid_4.jpg,Red_Triangle_Dots_1.jpg,right,758.4900001529604,true,high,NA,NA,NA,NA,NA,NA,NA,false
vQdJHg9y,3e9vauv7czrnvucm8noapw1mqoqyaq,3tmfv4nepcr7alm1nqraxs62cju8wv,vQdJHg9y,2020-0188,2020-06-04,10:36:42,10:58:33,NA,incomplete,94,number,1,1,right,Blue_Triangle_Chess_2.jpg,Red_Plus_Chess_1.jpg,Purple_Star_Grid_2.jpg,right,1040.4450001660734,true,high,NA,NA,NA,NA,NA,NA,NA,false
vQdJHg9y,3e9vauv7czrnvucm8noapw1mqoqyaq,3tmfv4nepcr7alm1nqraxs62cju8wv,vQdJHg9y,2020-0188,2020-06-04,10:36:42,10:58:33,NA,incomplete,95,number,1,1,left,Green_Circle_Grid_2.jpg,Blue_Star_Stripes_2.jpg,Red_Triangle_Grid_3.jpg,left,1118.4799999464303,true,high,NA,NA,NA,NA,NA,NA,NA,false
vQdJHg9y,3e9vauv7czrnvucm8noapw1mqoqyaq,3tmfv4nepcr7alm1nqraxs62cju8wv,vQdJHg9y,2020-0188,2020-06-04,10:36:42,10:58:33,NA,incomplete,96,number,1,1,right,Red_Triangle_Stripes_3.jpg,Purple_Circle_Stripes_2.jpg,Green_Star_Grid_3.jpg,right,832.1599999908358,true,high,NA,NA,NA,NA,NA,NA,NA,false
vQdJHg9y,3e9vauv7czrnvucm8noapw1mqoqyaq,3tmfv4nepcr7alm1nqraxs62cju8wv,vQdJHg9y,2020-0188,2020-06-04,10:36:42,10:58:33,NA,incomplete,97,number,1,1,left,Blue_Triangle_Chess_3.jpg,Green_Circle_Stripes_3.jpg,Red_Plus_Chess_1.jpg,left,768.5450001154095,true,high,NA,NA,NA,NA,NA,NA,NA,false
vQdJHg9y,3e9vauv7czrnvucm8noapw1mqoqyaq,3tmfv4nepcr7alm1nqraxs62cju8wv,vQdJHg9y,2020-0188,2020-06-04,10:36:42,10:58:33,NA,incomplete,98,number,1,1,left,Purple_Triangle_Grid_2.jpg,Red_Circle_Stripes_2.jpg,Green_Star_Grid_4.jpg,left,983.2349999342114,true,high,NA,NA,NA,NA,NA,NA,NA,false
vQdJHg9y,3e9vauv7czrnvucm8noapw1mqoqyaq,3tmfv4nepcr7alm1nqraxs62cju8wv,vQdJHg9y,2020-0188,2020-06-04,10:36:42,10:58:33,NA,incomplete,99,number,1,1,right,Blue_Triangle_Chess_4.jpg,Red_Circle_Chess_2.jpg,Purple_Plus_Stripes_4.jpg,right,947.334999917075,true,high,NA,NA,NA,NA,NA,NA,NA,false
vQdJHg9y,3e9vauv7czrnvucm8noapw1mqoqyaq,3tmfv4nepcr7alm1nqraxs62cju8wv,vQdJHg9y,2020-0188,2020-06-04,10:36:42,10:58:33,NA,incomplete,100,filling,0,1,right,Blue_Star_Chess_4.jpg,Purple_Circle_Grid_4.jpg,Green_Triangle_Chess_1.jpg,left,954.5650000218302,false,high,NA,NA,NA,NA,NA,NA,NA,false
vQdJHg9y,3e9vauv7czrnvucm8noapw1mqoqyaq,3tmfv4nepcr7alm1nqraxs62cju8wv,vQdJHg9y,2020-0188,2020-06-04,10:36:42,10:58:33,NA,incomplete,101,filling,0,1,right,Blue_Triangle_Stripes_3.jpg,Green_Plus_Dots_3.jpg,Red_Star_Stripes_1.jpg,left,912.9550000652671,false,high,NA,NA,NA,NA,NA,NA,NA,false
vQdJHg9y,3e9vauv7czrnvucm8noapw1mqoqyaq,3tmfv4nepcr7alm1nqraxs62cju8wv,vQdJHg9y,2020-0188,2020-06-04,10:36:42,10:58:33,NA,incomplete,102,filling,0,1,left,Blue_Plus_Grid_3.jpg,Red_Circle_Grid_2.jpg,Green_Star_Chess_3.jpg,left,1017.4300000071526,true,high,NA,NA,NA,NA,NA,NA,NA,false
vQdJHg9y,3e9vauv7czrnvucm8noapw1mqoqyaq,3tmfv4nepcr7alm1nqraxs62cju8wv,vQdJHg9y,2020-0188,2020-06-04,10:36:42,10:58:33,NA,incomplete,103,filling,0,1,right,Purple_Triangle_Grid_2.jpg,Blue_Star_Stripes_2.jpg,Red_Plus_Grid_1.jpg,right,863.1849999073893,true,high,NA,NA,NA,NA,NA,NA,NA,false
vQdJHg9y,3e9vauv7czrnvucm8noapw1mqoqyaq,3tmfv4nepcr7alm1nqraxs62cju8wv,vQdJHg9y,2020-0188,2020-06-04,10:36:42,10:58:33,NA,incomplete,104,filling,0,0,right,Purple_Star_Stripes_1.jpg,Green_Triangle_Dots_1.jpg,Blue_Plus_Stripes_2.jpg,right,957.9900000244379,true,high,NA,NA,NA,NA,NA,NA,NA,false
vQdJHg9y,3e9vauv7czrnvucm8noapw1mqoqyaq,3tmfv4nepcr7alm1nqraxs62cju8wv,vQdJHg9y,2020-0188,2020-06-04,10:36:42,10:58:33,NA,incomplete,105,filling,0,1,right,Red_Triangle_Chess_3.jpg,Purple_Star_Dots_3.jpg,Blue_Plus_Chess_1.jpg,right,1045.3799997922033,true,high,NA,NA,NA,NA,NA,NA,NA,false
vQdJHg9y,3e9vauv7czrnvucm8noapw1mqoqyaq,3tmfv4nepcr7alm1nqraxs62cju8wv,vQdJHg9y,2020-0188,2020-06-04,10:36:42,10:58:33,NA,incomplete,106,filling,0,1,left,Blue_Triangle_Dots_2.jpg,Purple_Circle_Dots_4.jpg,Red_Star_Chess_2.jpg,left,874.5750000234693,true,high,NA,NA,NA,NA,NA,NA,NA,false
vQdJHg9y,3e9vauv7czrnvucm8noapw1mqoqyaq,3tmfv4nepcr7alm1nqraxs62cju8wv,vQdJHg9y,2020-0188,2020-06-04,10:36:42,10:58:33,NA,incomplete,107,filling,0,1,right,Purple_Triangle_Stripes_1.jpg,Blue_Star_Chess_1.jpg,Green_Plus_Stripes_4.jpg,right,1002.1200000774115,true,high,NA,NA,NA,NA,NA,NA,NA,false
vQdJHg9y,3e9vauv7czrnvucm8noapw1mqoqyaq,3tmfv4nepcr7alm1nqraxs62cju8wv,vQdJHg9y,2020-0188,2020-06-04,10:36:42,10:58:33,NA,incomplete,108,filling,0,1,right,Purple_Circle_Dots_1.jpg,Green_Plus_Chess_1.jpg,Blue_Star_Dots_3.jpg,right,1081.1949998605996,true,high,NA,NA,NA,NA,NA,NA,NA,false
vQdJHg9y,3e9vauv7czrnvucm8noapw1mqoqyaq,3tmfv4nepcr7alm1nqraxs62cju8wv,vQdJHg9y,2020-0188,2020-06-04,10:36:42,10:58:33,NA,incomplete,109,filling,0,1,left,Red_Circle_Stripes_3.jpg,Blue_Plus_Stripes_1.jpg,Purple_Triangle_Dots_3.jpg,left,998.8299999386072,true,high,NA,NA,NA,NA,NA,NA,NA,false
vQdJHg9y,3e9vauv7czrnvucm8noapw1mqoqyaq,3tmfv4nepcr7alm1nqraxs62cju8wv,vQdJHg9y,2020-0188,2020-06-04,10:36:42,10:58:33,NA,incomplete,110,number,1,1,right,Blue_Triangle_Dots_1.jpg,Green_Star_Dots_2.jpg,Red_Plus_Chess_1.jpg,left,1258.655000012368,false,high,NA,NA,NA,NA,NA,NA,NA,false
vQdJHg9y,3e9vauv7czrnvucm8noapw1mqoqyaq,3tmfv4nepcr7alm1nqraxs62cju8wv,vQdJHg9y,2020-0188,2020-06-04,10:36:42,10:58:33,NA,incomplete,111,number,1,1,left,Red_Circle_Stripes_3.jpg,Blue_Triangle_Grid_3.jpg,Purple_Plus_Stripes_1.jpg,right,1013.5850000660866,false,high,NA,NA,NA,NA,NA,NA,NA,false
vQdJHg9y,3e9vauv7czrnvucm8noapw1mqoqyaq,3tmfv4nepcr7alm1nqraxs62cju8wv,vQdJHg9y,2020-0188,2020-06-04,10:36:42,10:58:33,NA,incomplete,112,number,1,1,right,Blue_Circle_Grid_1.jpg,Purple_Triangle_Grid_4.jpg,Green_Plus_Chess_1.jpg,right,834.9349999334663,true,high,NA,NA,NA,NA,NA,NA,NA,false
vQdJHg9y,3e9vauv7czrnvucm8noapw1mqoqyaq,3tmfv4nepcr7alm1nqraxs62cju8wv,vQdJHg9y,2020-0188,2020-06-04,10:36:42,10:58:33,NA,incomplete,113,number,1,1,left,Purple_Circle_Chess_2.jpg,Green_Star_Dots_2.jpg,Blue_Triangle_Chess_1.jpg,left,871.1550000589341,true,high,NA,NA,NA,NA,NA,NA,NA,false
vQdJHg9y,3e9vauv7czrnvucm8noapw1mqoqyaq,3tmfv4nepcr7alm1nqraxs62cju8wv,vQdJHg9y,2020-0188,2020-06-04,10:36:42,10:58:33,NA,incomplete,114,number,1,1,right,Green_Triangle_Chess_1.jpg,Purple_Star_Chess_2.jpg,Red_Circle_Stripes_1.jpg,right,793.0250000208616,true,high,NA,NA,NA,NA,NA,NA,NA,false
vQdJHg9y,3e9vauv7czrnvucm8noapw1mqoqyaq,3tmfv4nepcr7alm1nqraxs62cju8wv,vQdJHg9y,2020-0188,2020-06-04,10:36:42,10:58:33,NA,incomplete,115,number,1,0,left,Blue_Plus_Stripes_4.jpg,Red_Circle_Dots_4.jpg,Green_Star_Stripes_2.jpg,left,1469.1649999003857,true,high,NA,NA,NA,NA,NA,NA,NA,false
vQdJHg9y,3e9vauv7czrnvucm8noapw1mqoqyaq,3tmfv4nepcr7alm1nqraxs62cju8wv,vQdJHg9y,2020-0188,2020-06-04,10:36:42,10:58:33,NA,incomplete,116,number,1,1,left,Green_Triangle_Stripes_1.jpg,Blue_Star_Dots_1.jpg,Red_Plus_Stripes_4.jpg,right,923.1500001624227,false,high,NA,NA,NA,NA,NA,NA,NA,false
vQdJHg9y,3e9vauv7czrnvucm8noapw1mqoqyaq,3tmfv4nepcr7alm1nqraxs62cju8wv,vQdJHg9y,2020-0188,2020-06-04,10:36:42,10:58:33,NA,incomplete,117,number,1,1,right,Blue_Triangle_Grid_1.jpg,Green_Star_Grid_4.jpg,Red_Plus_Stripes_1.jpg,right,834.7250001970679,true,high,NA,NA,NA,NA,NA,NA,NA,false
vQdJHg9y,3e9vauv7czrnvucm8noapw1mqoqyaq,3tmfv4nepcr7alm1nqraxs62cju8wv,vQdJHg9y,2020-0188,2020-06-04,10:36:42,10:58:33,NA,incomplete,118,number,1,1,left,Blue_Star_Dots_4.jpg,Purple_Triangle_Stripes_4.jpg,Red_Plus_Dots_1.jpg,left,733.8049998506904,true,high,NA,NA,NA,NA,NA,NA,NA,false
vQdJHg9y,3e9vauv7czrnvucm8noapw1mqoqyaq,3tmfv4nepcr7alm1nqraxs62cju8wv,vQdJHg9y,2020-0188,2020-06-04,10:36:42,10:58:33,NA,incomplete,119,number,1,1,right,Purple_Star_Grid_2.jpg,Green_Circle_Grid_3.jpg,Blue_Plus_Stripes_2.jpg,right,1026.744999922812,true,high,NA,NA,NA,NA,NA,NA,NA,false
vQdJHg9y,3e9vauv7czrnvucm8noapw1mqoqyaq,3tmfv4nepcr7alm1nqraxs62cju8wv,vQdJHg9y,2020-0188,2020-06-04,10:36:42,10:58:33,NA,incomplete,120,gender,2,1,left,A_M_07.jpg,C_M_02.jpg,A_F_01.jpg,NA,NA,NA,high,NA,NA,NA,NA,NA,NA,NA,false
vQdJHg9y,3e9vauv7czrnvucm8noapw1mqoqyaq,3tmfv4nepcr7alm1nqraxs62cju8wv,vQdJHg9y,2020-0188,2020-06-04,10:36:42,10:58:33,NA,incomplete,121,gender,2,1,left,C_F_11.jpg,A_F_01.jpg,C_M_04.jpg,left,1724.5249999687076,true,high,NA,NA,NA,NA,NA,NA,NA,false
vQdJHg9y,3e9vauv7czrnvucm8noapw1mqoqyaq,3tmfv4nepcr7alm1nqraxs62cju8wv,vQdJHg9y,2020-0188,2020-06-04,10:36:42,10:58:33,NA,incomplete,122,gender,2,1,left,A_F_04.jpg,C_F_12.jpg,A_M_07.jpg,left,1072.554999962449,true,high,NA,NA,NA,NA,NA,NA,NA,false
vQdJHg9y,3e9vauv7czrnvucm8noapw1mqoqyaq,3tmfv4nepcr7alm1nqraxs62cju8wv,vQdJHg9y,2020-0188,2020-06-04,10:36:42,10:58:33,NA,incomplete,123,gender,2,1,left,C_M_06.jpg,A_M_07.jpg,C_F_12.jpg,left,1214.0999999828637,true,high,NA,NA,NA,NA,NA,NA,NA,false
vQdJHg9y,3e9vauv7czrnvucm8noapw1mqoqyaq,3tmfv4nepcr7alm1nqraxs62cju8wv,vQdJHg9y,2020-0188,2020-06-04,10:36:42,10:58:33,NA,incomplete,124,gender,2,0,right,A_F_15.jpg,A_M_10.jpg,C_F_01.jpg,right,1188.469999935478,true,high,NA,NA,NA,NA,NA,NA,NA,false
vQdJHg9y,3e9vauv7czrnvucm8noapw1mqoqyaq,3tmfv4nepcr7alm1nqraxs62cju8wv,vQdJHg9y,2020-0188,2020-06-04,10:36:42,10:58:33,NA,incomplete,125,gender,2,1,left,A_M_02.jpg,C_M_10.jpg,A_F_15.jpg,left,989.3200001679361,true,high,NA,NA,NA,NA,NA,NA,NA,false
vQdJHg9y,3e9vauv7czrnvucm8noapw1mqoqyaq,3tmfv4nepcr7alm1nqraxs62cju8wv,vQdJHg9y,2020-0188,2020-06-04,10:36:42,10:58:33,NA,incomplete,126,gender,2,1,right,A_F_14.jpg,A_M_13.jpg,C_F_06.jpg,right,992.4999999348074,true,high,NA,NA,NA,NA,NA,NA,NA,false
vQdJHg9y,3e9vauv7czrnvucm8noapw1mqoqyaq,3tmfv4nepcr7alm1nqraxs62cju8wv,vQdJHg9y,2020-0188,2020-06-04,10:36:42,10:58:33,NA,incomplete,127,gender,2,0,right,A_F_08.jpg,A_M_02.jpg,C_F_01.jpg,right,1108.6349999532104,true,high,NA,NA,NA,NA,NA,NA,NA,false
vQdJHg9y,3e9vauv7czrnvucm8noapw1mqoqyaq,3tmfv4nepcr7alm1nqraxs62cju8wv,vQdJHg9y,2020-0188,2020-06-04,10:36:42,10:58:33,NA,incomplete,128,gender,2,1,left,A_M_02.jpg,C_M_12.jpg,A_F_16.jpg,left,997.2250000573695,true,high,NA,NA,NA,NA,NA,NA,NA,false
vQdJHg9y,3e9vauv7czrnvucm8noapw1mqoqyaq,3tmfv4nepcr7alm1nqraxs62cju8wv,vQdJHg9y,2020-0188,2020-06-04,10:36:42,10:58:33,NA,incomplete,129,gender,2,1,right,A_F_12.jpg,A_M_14.jpg,C_F_11.jpg,right,901.4999999199063,true,high,NA,NA,NA,NA,NA,NA,NA,false
vQdJHg9y,3e9vauv7czrnvucm8noapw1mqoqyaq,3tmfv4nepcr7alm1nqraxs62cju8wv,vQdJHg9y,2020-0188,2020-06-04,10:36:42,10:58:33,NA,incomplete,130,gender,2,1,left,A_F_16.jpg,C_F_12.jpg,A_M_15.jpg,left,863.4450000245124,true,high,NA,NA,NA,NA,NA,NA,NA,false
vQdJHg9y,3e9vauv7czrnvucm8noapw1mqoqyaq,3tmfv4nepcr7alm1nqraxs62cju8wv,vQdJHg9y,2020-0188,2020-06-04,10:36:42,10:58:33,NA,incomplete,131,gender,2,1,right,A_F_13.jpg,A_M_01.jpg,C_F_07.jpg,right,1193.0549999233335,true,high,NA,NA,NA,NA,NA,NA,NA,false
vQdJHg9y,3e9vauv7czrnvucm8noapw1mqoqyaq,3tmfv4nepcr7alm1nqraxs62cju8wv,vQdJHg9y,2020-0188,2020-06-04,10:36:42,10:58:33,NA,incomplete,132,gender,2,0,right,A_M_13.jpg,A_F_14.jpg,C_M_02.jpg,right,970.57000012137,true,high,NA,NA,NA,NA,NA,NA,NA,false
vQdJHg9y,3e9vauv7czrnvucm8noapw1mqoqyaq,3tmfv4nepcr7alm1nqraxs62cju8wv,vQdJHg9y,2020-0188,2020-06-04,10:36:42,10:58:33,NA,incomplete,133,gender,2,1,right,A_M_07.jpg,A_F_03.jpg,C_M_09.jpg,right,805.2099999040365,true,high,NA,NA,NA,NA,NA,NA,NA,false
vQdJHg9y,3e9vauv7czrnvucm8noapw1mqoqyaq,3tmfv4nepcr7alm1nqraxs62cju8wv,vQdJHg9y,2020-0188,2020-06-04,10:36:42,10:58:33,NA,incomplete,134,gender,2,0,right,A_F_12.jpg,A_M_10.jpg,C_F_16.jpg,right,811.4099998492748,true,high,NA,NA,NA,NA,NA,NA,NA,false
vQdJHg9y,3e9vauv7czrnvucm8noapw1mqoqyaq,3tmfv4nepcr7alm1nqraxs62cju8wv,vQdJHg9y,2020-0188,2020-06-04,10:36:42,10:58:33,NA,incomplete,135,gender,2,1,left,A_F_01.jpg,C_F_12.jpg,A_M_11.jpg,left,886.4649999886751,true,high,NA,NA,NA,NA,NA,NA,NA,false
vQdJHg9y,3e9vauv7czrnvucm8noapw1mqoqyaq,3tmfv4nepcr7alm1nqraxs62cju8wv,vQdJHg9y,2020-0188,2020-06-04,10:36:42,10:58:33,NA,incomplete,136,gender,2,1,right,C_M_11.jpg,C_F_14.jpg,A_M_04.jpg,right,1105.0599999725819,true,high,NA,NA,NA,NA,NA,NA,NA,false
vQdJHg9y,3e9vauv7czrnvucm8noapw1mqoqyaq,3tmfv4nepcr7alm1nqraxs62cju8wv,vQdJHg9y,2020-0188,2020-06-04,10:36:42,10:58:33,NA,incomplete,137,gender,2,0,right,C_F_16.jpg,C_M_04.jpg,A_F_15.jpg,right,804.865000071004,true,high,NA,NA,NA,NA,NA,NA,NA,false
vQdJHg9y,3e9vauv7czrnvucm8noapw1mqoqyaq,3tmfv4nepcr7alm1nqraxs62cju8wv,vQdJHg9y,2020-0188,2020-06-04,10:36:42,10:58:33,NA,incomplete,138,gender,2,1,right,A_M_03.jpg,A_F_07.jpg,C_M_02.jpg,right,1103.2100000884384,true,high,NA,NA,NA,NA,NA,NA,NA,false
vQdJHg9y,3e9vauv7czrnvucm8noapw1mqoqyaq,3tmfv4nepcr7alm1nqraxs62cju8wv,vQdJHg9y,2020-0188,2020-06-04,10:36:42,10:58:33,NA,incomplete,139,gender,2,1,left,C_M_05.jpg,A_M_07.jpg,C_F_04.jpg,left,903.5400000866503,true,high,NA,NA,NA,NA,NA,NA,NA,false
vQdJHg9y,3e9vauv7czrnvucm8noapw1mqoqyaq,3tmfv4nepcr7alm1nqraxs62cju8wv,vQdJHg9y,2020-0188,2020-06-04,10:36:42,10:58:33,NA,incomplete,140,race,3,1,right,C_M_05.jpg,A_M_02.jpg,C_F_15.jpg,left,959.7650000359863,false,high,NA,NA,NA,NA,NA,NA,NA,false
vQdJHg9y,3e9vauv7czrnvucm8noapw1mqoqyaq,3tmfv4nepcr7alm1nqraxs62cju8wv,vQdJHg9y,2020-0188,2020-06-04,10:36:42,10:58:33,NA,incomplete,141,race,3,0,right,A_M_05.jpg,C_M_01.jpg,A_F_08.jpg,left,972.2100000362843,false,high,NA,NA,NA,NA,NA,NA,NA,false
vQdJHg9y,3e9vauv7czrnvucm8noapw1mqoqyaq,3tmfv4nepcr7alm1nqraxs62cju8wv,vQdJHg9y,2020-0188,2020-06-04,10:36:42,10:58:33,NA,incomplete,142,race,3,1,right,A_M_13.jpg,C_M_11.jpg,A_F_10.jpg,left,678.9949999656528,false,high,NA,NA,NA,NA,NA,NA,NA,false
vQdJHg9y,3e9vauv7czrnvucm8noapw1mqoqyaq,3tmfv4nepcr7alm1nqraxs62cju8wv,vQdJHg9y,2020-0188,2020-06-04,10:36:42,10:58:33,NA,incomplete,143,race,3,1,right,A_M_15.jpg,C_M_14.jpg,A_F_07.jpg,left,884.7100001294166,false,high,NA,NA,NA,NA,NA,NA,NA,false
vQdJHg9y,3e9vauv7czrnvucm8noapw1mqoqyaq,3tmfv4nepcr7alm1nqraxs62cju8wv,vQdJHg9y,2020-0188,2020-06-04,10:36:42,10:58:33,NA,incomplete,144,race,3,1,left,C_M_07.jpg,C_F_04.jpg,A_M_13.jpg,left,1132.0550001692027,true,high,NA,NA,NA,NA,NA,NA,NA,false
vQdJHg9y,3e9vauv7czrnvucm8noapw1mqoqyaq,3tmfv4nepcr7alm1nqraxs62cju8wv,vQdJHg9y,2020-0188,2020-06-04,10:36:42,10:58:33,NA,incomplete,145,race,3,0,right,C_F_01.jpg,A_F_12.jpg,C_M_10.jpg,right,1167.3550000414252,true,high,NA,NA,NA,NA,NA,NA,NA,false
vQdJHg9y,3e9vauv7czrnvucm8noapw1mqoqyaq,3tmfv4nepcr7alm1nqraxs62cju8wv,vQdJHg9y,2020-0188,2020-06-04,10:36:42,10:58:33,NA,incomplete,146,race,3,1,right,A_M_03.jpg,C_M_04.jpg,A_F_14.jpg,right,1090.265000006184,true,high,NA,NA,NA,NA,NA,NA,NA,false
vQdJHg9y,3e9vauv7czrnvucm8noapw1mqoqyaq,3tmfv4nepcr7alm1nqraxs62cju8wv,vQdJHg9y,2020-0188,2020-06-04,10:36:42,10:58:33,NA,incomplete,147,race,3,0,left,C_M_16.jpg,C_F_12.jpg,A_M_13.jpg,left,1205.7650000788271,true,high,NA,NA,NA,NA,NA,NA,NA,false
vQdJHg9y,3e9vauv7czrnvucm8noapw1mqoqyaq,3tmfv4nepcr7alm1nqraxs62cju8wv,vQdJHg9y,2020-0188,2020-06-04,10:36:42,10:58:33,NA,incomplete,148,race,3,1,left,A_M_09.jpg,A_F_16.jpg,C_M_08.jpg,left,1129.1949998121709,true,high,NA,NA,NA,NA,NA,NA,NA,false
vQdJHg9y,3e9vauv7czrnvucm8noapw1mqoqyaq,3tmfv4nepcr7alm1nqraxs62cju8wv,vQdJHg9y,2020-0188,2020-06-04,10:36:42,10:58:33,NA,incomplete,149,race,3,0,left,C_M_05.jpg,C_F_02.jpg,A_M_04.jpg,right,932.7000000048429,false,high,NA,NA,NA,NA,NA,NA,NA,false
vQdJHg9y,3e9vauv7czrnvucm8noapw1mqoqyaq,3tmfv4nepcr7alm1nqraxs62cju8wv,vQdJHg9y,2020-0188,2020-06-04,10:36:42,10:58:33,NA,incomplete,150,race,3,1,left,A_M_15.jpg,A_F_12.jpg,C_M_05.jpg,right,1210.410000057891,false,high,NA,NA,NA,NA,NA,NA,NA,false
vQdJHg9y,3e9vauv7czrnvucm8noapw1mqoqyaq,3tmfv4nepcr7alm1nqraxs62cju8wv,vQdJHg9y,2020-0188,2020-06-04,10:36:42,10:58:33,NA,incomplete,151,race,3,1,right,C_F_14.jpg,A_F_13.jpg,C_M_16.jpg,right,1186.1149999313056,true,high,NA,NA,NA,NA,NA,NA,NA,false
vQdJHg9y,3e9vauv7czrnvucm8noapw1mqoqyaq,3tmfv4nepcr7alm1nqraxs62cju8wv,vQdJHg9y,2020-0188,2020-06-04,10:36:42,10:58:33,NA,incomplete,152,race,3,1,left,A_F_15.jpg,A_M_07.jpg,C_F_08.jpg,left,1175.3899999894202,true,high,NA,NA,NA,NA,NA,NA,NA,false
vQdJHg9y,3e9vauv7czrnvucm8noapw1mqoqyaq,3tmfv4nepcr7alm1nqraxs62cju8wv,vQdJHg9y,2020-0188,2020-06-04,10:36:42,10:58:33,NA,incomplete,153,race,3,1,left,C_M_13.jpg,C_F_01.jpg,A_M_02.jpg,left,1148.0300000403076,true,high,NA,NA,NA,NA,NA,NA,NA,false
vQdJHg9y,3e9vauv7czrnvucm8noapw1mqoqyaq,3tmfv4nepcr7alm1nqraxs62cju8wv,vQdJHg9y,2020-0188,2020-06-04,10:36:42,10:58:33,NA,incomplete,154,race,3,1,right,C_M_08.jpg,A_M_16.jpg,C_F_12.jpg,right,1248.799999943003,true,high,NA,NA,NA,NA,NA,NA,NA,false
vQdJHg9y,3e9vauv7czrnvucm8noapw1mqoqyaq,3tmfv4nepcr7alm1nqraxs62cju8wv,vQdJHg9y,2020-0188,2020-06-04,10:36:42,10:58:33,NA,incomplete,155,race,3,1,left,A_F_02.jpg,A_M_04.jpg,C_F_14.jpg,left,901.7900000326335,true,high,NA,NA,NA,NA,NA,NA,NA,false
vQdJHg9y,3e9vauv7czrnvucm8noapw1mqoqyaq,3tmfv4nepcr7alm1nqraxs62cju8wv,vQdJHg9y,2020-0188,2020-06-04,10:36:42,10:58:33,NA,incomplete,156,race,3,1,left,A_F_14.jpg,A_M_03.jpg,C_F_10.jpg,right,1179.9800000153482,false,high,NA,NA,NA,NA,NA,NA,NA,false
vQdJHg9y,3e9vauv7czrnvucm8noapw1mqoqyaq,3tmfv4nepcr7alm1nqraxs62cju8wv,vQdJHg9y,2020-0188,2020-06-04,10:36:42,10:58:33,NA,incomplete,157,race,3,1,right,A_F_02.jpg,C_F_15.jpg,A_M_07.jpg,right,995.8550001028925,true,high,NA,NA,NA,NA,NA,NA,NA,false
vQdJHg9y,3e9vauv7czrnvucm8noapw1mqoqyaq,3tmfv4nepcr7alm1nqraxs62cju8wv,vQdJHg9y,2020-0188,2020-06-04,10:36:42,10:58:33,NA,incomplete,158,race,3,0,left,C_M_06.jpg,C_F_13.jpg,A_M_04.jpg,left,1087.2700000181794,true,high,NA,NA,NA,NA,NA,NA,NA,false
vQdJHg9y,3e9vauv7czrnvucm8noapw1mqoqyaq,3tmfv4nepcr7alm1nqraxs62cju8wv,vQdJHg9y,2020-0188,2020-06-04,10:36:42,10:58:33,NA,incomplete,159,race,3,1,left,C_F_06.jpg,C_M_03.jpg,A_F_13.jpg,left,1055.7699999772012,true,high,NA,NA,NA,NA,NA,NA,NA,false
vQdJHg9y,3e9vauv7czrnvucm8noapw1mqoqyaq,3tmfv4nepcr7alm1nqraxs62cju8wv,vQdJHg9y,2020-0188,2020-06-04,10:36:42,10:58:33,NA,incomplete,160,gender,2,0,right,A_F_06.jpg,A_M_14.jpg,C_F_11.jpg,left,1158.1149999983609,false,high,NA,NA,NA,NA,NA,NA,NA,false
vQdJHg9y,3e9vauv7czrnvucm8noapw1mqoqyaq,3tmfv4nepcr7alm1nqraxs62cju8wv,vQdJHg9y,2020-0188,2020-06-04,10:36:42,10:58:33,NA,incomplete,161,gender,2,1,left,A_F_05.jpg,C_F_11.jpg,A_M_12.jpg,right,1072.3350001499057,false,high,NA,NA,NA,NA,NA,NA,NA,false
vQdJHg9y,3e9vauv7czrnvucm8noapw1mqoqyaq,3tmfv4nepcr7alm1nqraxs62cju8wv,vQdJHg9y,2020-0188,2020-06-04,10:36:42,10:58:33,NA,incomplete,162,gender,2,1,left,C_M_10.jpg,A_M_12.jpg,C_F_01.jpg,right,1124.8100001830608,false,high,NA,NA,NA,NA,NA,NA,NA,false
vQdJHg9y,3e9vauv7czrnvucm8noapw1mqoqyaq,3tmfv4nepcr7alm1nqraxs62cju8wv,vQdJHg9y,2020-0188,2020-06-04,10:36:42,10:58:33,NA,incomplete,163,gender,2,0,right,C_M_03.jpg,C_F_12.jpg,A_M_08.jpg,right,925.3199999220669,true,high,NA,NA,NA,NA,NA,NA,NA,false
vQdJHg9y,3e9vauv7czrnvucm8noapw1mqoqyaq,3tmfv4nepcr7alm1nqraxs62cju8wv,vQdJHg9y,2020-0188,2020-06-04,10:36:42,10:58:33,NA,incomplete,164,gender,2,1,left,C_F_03.jpg,A_F_11.jpg,C_M_14.jpg,right,1483.7250001728535,false,high,NA,NA,NA,NA,NA,NA,NA,false
vQdJHg9y,3e9vauv7czrnvucm8noapw1mqoqyaq,3tmfv4nepcr7alm1nqraxs62cju8wv,vQdJHg9y,2020-0188,2020-06-04,10:36:42,10:58:33,NA,incomplete,165,gender,2,0,left,C_F_02.jpg,A_F_03.jpg,C_M_13.jpg,left,1046.1849998682737,true,high,NA,NA,NA,NA,NA,NA,NA,false
vQdJHg9y,3e9vauv7czrnvucm8noapw1mqoqyaq,3tmfv4nepcr7alm1nqraxs62cju8wv,vQdJHg9y,2020-0188,2020-06-04,10:36:42,10:58:33,NA,incomplete,166,gender,2,1,left,A_F_08.jpg,C_F_06.jpg,A_M_12.jpg,right,1022.1500000916421,false,high,NA,NA,NA,NA,NA,NA,NA,false
vQdJHg9y,3e9vauv7czrnvucm8noapw1mqoqyaq,3tmfv4nepcr7alm1nqraxs62cju8wv,vQdJHg9y,2020-0188,2020-06-04,10:36:42,10:58:33,NA,incomplete,167,gender,2,1,left,C_M_11.jpg,A_M_03.jpg,C_F_10.jpg,left,1038.7099999934435,true,high,NA,NA,NA,NA,NA,NA,NA,false
vQdJHg9y,3e9vauv7czrnvucm8noapw1mqoqyaq,3tmfv4nepcr7alm1nqraxs62cju8wv,vQdJHg9y,2020-0188,2020-06-04,10:36:42,10:58:33,NA,incomplete,168,gender,2,1,left,C_F_03.jpg,A_F_12.jpg,C_M_07.jpg,left,1065.3450000099838,true,high,NA,NA,NA,NA,NA,NA,NA,false
vQdJHg9y,3e9vauv7czrnvucm8noapw1mqoqyaq,3tmfv4nepcr7alm1nqraxs62cju8wv,vQdJHg9y,2020-0188,2020-06-04,10:36:42,10:58:33,NA,incomplete,169,gender,2,1,right,C_F_10.jpg,C_M_14.jpg,A_F_16.jpg,right,817.0450001489371,true,high,NA,NA,NA,NA,NA,NA,NA,false
vQdJHg9y,3e9vauv7czrnvucm8noapw1mqoqyaq,3tmfv4nepcr7alm1nqraxs62cju8wv,vQdJHg9y,2020-0188,2020-06-04,10:36:42,10:58:33,NA,incomplete,170,gender,2,1,right,A_M_14.jpg,A_F_07.jpg,C_M_15.jpg,right,1192.2049999702722,true,high,NA,NA,NA,NA,NA,NA,NA,false
vQdJHg9y,3e9vauv7czrnvucm8noapw1mqoqyaq,3tmfv4nepcr7alm1nqraxs62cju8wv,vQdJHg9y,2020-0188,2020-06-04,10:36:42,10:58:33,NA,incomplete,171,gender,2,1,right,A_M_11.jpg,A_F_03.jpg,C_M_14.jpg,right,1018.5499999206513,true,high,NA,NA,NA,NA,NA,NA,NA,false
vQdJHg9y,3e9vauv7czrnvucm8noapw1mqoqyaq,3tmfv4nepcr7alm1nqraxs62cju8wv,vQdJHg9y,2020-0188,2020-06-04,10:36:42,10:58:33,NA,incomplete,172,gender,2,1,left,A_M_14.jpg,C_M_04.jpg,A_F_05.jpg,left,931.1249998863786,true,high,NA,NA,NA,NA,NA,NA,NA,false
vQdJHg9y,3e9vauv7czrnvucm8noapw1mqoqyaq,3tmfv4nepcr7alm1nqraxs62cju8wv,vQdJHg9y,2020-0188,2020-06-04,10:36:42,10:58:33,NA,incomplete,173,gender,2,1,right,C_F_11.jpg,C_M_05.jpg,A_F_12.jpg,right,785.9549999702722,true,high,NA,NA,NA,NA,NA,NA,NA,false
vQdJHg9y,3e9vauv7czrnvucm8noapw1mqoqyaq,3tmfv4nepcr7alm1nqraxs62cju8wv,vQdJHg9y,2020-0188,2020-06-04,10:36:42,10:58:33,NA,incomplete,174,gender,2,0,right,A_M_15.jpg,A_F_03.jpg,C_M_16.jpg,right,903.0750000383705,true,high,NA,NA,NA,NA,NA,NA,NA,false
vQdJHg9y,3e9vauv7czrnvucm8noapw1mqoqyaq,3tmfv4nepcr7alm1nqraxs62cju8wv,vQdJHg9y,2020-0188,2020-06-04,10:36:42,10:58:33,NA,incomplete,175,gender,2,1,left,A_M_14.jpg,C_M_02.jpg,A_F_16.jpg,left,838.675000006333,true,high,NA,NA,NA,NA,NA,NA,NA,false
vQdJHg9y,3e9vauv7czrnvucm8noapw1mqoqyaq,3tmfv4nepcr7alm1nqraxs62cju8wv,vQdJHg9y,2020-0188,2020-06-04,10:36:42,10:58:33,NA,incomplete,176,gender,2,1,right,A_F_13.jpg,A_M_12.jpg,C_F_02.jpg,right,821.314999833703,true,high,NA,NA,NA,NA,NA,NA,NA,false
vQdJHg9y,3e9vauv7czrnvucm8noapw1mqoqyaq,3tmfv4nepcr7alm1nqraxs62cju8wv,vQdJHg9y,2020-0188,2020-06-04,10:36:42,10:58:33,NA,incomplete,177,gender,2,0,left,A_M_15.jpg,C_M_08.jpg,A_F_10.jpg,left,825.6550000514835,true,high,NA,NA,NA,NA,NA,NA,NA,false
vQdJHg9y,3e9vauv7czrnvucm8noapw1mqoqyaq,3tmfv4nepcr7alm1nqraxs62cju8wv,vQdJHg9y,2020-0188,2020-06-04,10:36:42,10:58:33,NA,incomplete,178,gender,2,1,right,C_F_15.jpg,C_M_16.jpg,A_F_11.jpg,right,844.8649998754263,true,high,NA,NA,NA,NA,NA,NA,NA,false
vQdJHg9y,3e9vauv7czrnvucm8noapw1mqoqyaq,3tmfv4nepcr7alm1nqraxs62cju8wv,vQdJHg9y,2020-0188,2020-06-04,10:36:42,10:58:33,NA,incomplete,179,gender,2,1,right,C_M_16.jpg,C_F_13.jpg,A_M_05.jpg,right,891.7000000365078,true,high,NA,NA,NA,NA,NA,NA,NA,false
vQdJHg9y,3e9vauv7czrnvucm8noapw1mqoqyaq,3tmfv4nepcr7alm1nqraxs62cju8wv,vQdJHg9y,2020-0188,2020-06-04,10:36:42,10:58:33,NA,incomplete,180,race,3,1,right,A_M_03.jpg,C_M_15.jpg,A_F_05.jpg,left,883.329999865964,false,high,NA,NA,NA,NA,NA,NA,NA,false
vQdJHg9y,3e9vauv7czrnvucm8noapw1mqoqyaq,3tmfv4nepcr7alm1nqraxs62cju8wv,vQdJHg9y,2020-0188,2020-06-04,10:36:42,10:58:33,NA,incomplete,181,race,3,1,left,C_M_11.jpg,C_F_13.jpg,A_M_15.jpg,right,816.3699998985976,false,high,NA,NA,NA,NA,NA,NA,NA,false
vQdJHg9y,3e9vauv7czrnvucm8noapw1mqoqyaq,3tmfv4nepcr7alm1nqraxs62cju8wv,vQdJHg9y,2020-0188,2020-06-04,10:36:42,10:58:33,NA,incomplete,182,race,3,0,left,A_M_12.jpg,A_F_13.jpg,C_M_10.jpg,left,789.3600000534207,true,high,NA,NA,NA,NA,NA,NA,NA,false
vQdJHg9y,3e9vauv7czrnvucm8noapw1mqoqyaq,3tmfv4nepcr7alm1nqraxs62cju8wv,vQdJHg9y,2020-0188,2020-06-04,10:36:42,10:58:33,NA,incomplete,183,race,3,1,right,A_F_09.jpg,C_F_03.jpg,A_M_06.jpg,left,866.9150001369417,false,high,NA,NA,NA,NA,NA,NA,NA,false
vQdJHg9y,3e9vauv7czrnvucm8noapw1mqoqyaq,3tmfv4nepcr7alm1nqraxs62cju8wv,vQdJHg9y,2020-0188,2020-06-04,10:36:42,10:58:33,NA,incomplete,184,race,3,1,left,C_F_14.jpg,C_M_03.jpg,A_F_11.jpg,left,1209.345000097528,true,high,NA,NA,NA,NA,NA,NA,NA,false
vQdJHg9y,3e9vauv7czrnvucm8noapw1mqoqyaq,3tmfv4nepcr7alm1nqraxs62cju8wv,vQdJHg9y,2020-0188,2020-06-04,10:36:42,10:58:33,NA,incomplete,185,race,3,1,left,C_F_11.jpg,C_M_05.jpg,A_F_01.jpg,right,1063.7750001624227,false,high,NA,NA,NA,NA,NA,NA,NA,false
vQdJHg9y,3e9vauv7czrnvucm8noapw1mqoqyaq,3tmfv4nepcr7alm1nqraxs62cju8wv,vQdJHg9y,2020-0188,2020-06-04,10:36:42,10:58:33,NA,incomplete,186,race,3,1,right,A_F_10.jpg,C_F_05.jpg,A_M_15.jpg,right,1056.8000001367182,true,high,NA,NA,NA,NA,NA,NA,NA,false
vQdJHg9y,3e9vauv7czrnvucm8noapw1mqoqyaq,3tmfv4nepcr7alm1nqraxs62cju8wv,vQdJHg9y,2020-0188,2020-06-04,10:36:42,10:58:33,NA,incomplete,187,race,3,0,left,A_M_16.jpg,A_F_11.jpg,C_M_01.jpg,left,1435.459999833256,true,high,NA,NA,NA,NA,NA,NA,NA,false
vQdJHg9y,3e9vauv7czrnvucm8noapw1mqoqyaq,3tmfv4nepcr7alm1nqraxs62cju8wv,vQdJHg9y,2020-0188,2020-06-04,10:36:42,10:58:33,NA,incomplete,188,race,3,1,left,A_F_14.jpg,A_M_15.jpg,C_F_07.jpg,left,956.9399999454618,true,high,NA,NA,NA,NA,NA,NA,NA,false
vQdJHg9y,3e9vauv7czrnvucm8noapw1mqoqyaq,3tmfv4nepcr7alm1nqraxs62cju8wv,vQdJHg9y,2020-0188,2020-06-04,10:36:42,10:58:33,NA,incomplete,189,race,3,1,left,C_F_07.jpg,C_M_06.jpg,A_F_16.jpg,right,1319.3900000769645,false,high,NA,NA,NA,NA,NA,NA,NA,false
vQdJHg9y,3e9vauv7czrnvucm8noapw1mqoqyaq,3tmfv4nepcr7alm1nqraxs62cju8wv,vQdJHg9y,2020-0188,2020-06-04,10:36:42,10:58:33,NA,incomplete,190,race,3,1,left,A_M_02.jpg,A_F_04.jpg,C_M_05.jpg,right,1095.7349999807775,false,high,NA,NA,NA,NA,NA,NA,NA,false
vQdJHg9y,3e9vauv7czrnvucm8noapw1mqoqyaq,3tmfv4nepcr7alm1nqraxs62cju8wv,vQdJHg9y,2020-0188,2020-06-04,10:36:42,10:58:33,NA,incomplete,191,race,3,1,left,A_M_09.jpg,A_F_06.jpg,C_M_15.jpg,left,916.0099998116493,true,high,NA,NA,NA,NA,NA,NA,NA,false
vQdJHg9y,3e9vauv7czrnvucm8noapw1mqoqyaq,3tmfv4nepcr7alm1nqraxs62cju8wv,vQdJHg9y,2020-0188,2020-06-04,10:36:42,10:58:33,NA,incomplete,192,race,3,1,left,C_M_01.jpg,C_F_08.jpg,A_M_02.jpg,left,1018.0199998430908,true,high,NA,NA,NA,NA,NA,NA,NA,false
vQdJHg9y,3e9vauv7czrnvucm8noapw1mqoqyaq,3tmfv4nepcr7alm1nqraxs62cju8wv,vQdJHg9y,2020-0188,2020-06-04,10:36:42,10:58:33,NA,incomplete,193,race,3,1,left,A_F_15.jpg,A_M_08.jpg,C_F_02.jpg,left,986.0600000247359,true,high,NA,NA,NA,NA,NA,NA,NA,false
vQdJHg9y,3e9vauv7czrnvucm8noapw1mqoqyaq,3tmfv4nepcr7alm1nqraxs62cju8wv,vQdJHg9y,2020-0188,2020-06-04,10:36:42,10:58:33,NA,incomplete,194,race,3,1,right,A_M_11.jpg,C_M_09.jpg,A_F_12.jpg,right,956.220000050962,true,high,NA,NA,NA,NA,NA,NA,NA,false
vQdJHg9y,3e9vauv7czrnvucm8noapw1mqoqyaq,3tmfv4nepcr7alm1nqraxs62cju8wv,vQdJHg9y,2020-0188,2020-06-04,10:36:42,10:58:33,NA,incomplete,195,race,3,1,left,A_F_15.jpg,A_M_14.jpg,C_F_05.jpg,left,1055.794999934733,true,high,NA,NA,NA,NA,NA,NA,NA,false
vQdJHg9y,3e9vauv7czrnvucm8noapw1mqoqyaq,3tmfv4nepcr7alm1nqraxs62cju8wv,vQdJHg9y,2020-0188,2020-06-04,10:36:42,10:58:33,NA,incomplete,196,race,3,0,left,C_F_09.jpg,C_M_10.jpg,A_F_12.jpg,left,995.8850000984967,true,high,NA,NA,NA,NA,NA,NA,NA,false
vQdJHg9y,3e9vauv7czrnvucm8noapw1mqoqyaq,3tmfv4nepcr7alm1nqraxs62cju8wv,vQdJHg9y,2020-0188,2020-06-04,10:36:42,10:58:33,NA,incomplete,197,race,3,1,left,A_M_15.jpg,A_F_08.jpg,C_M_12.jpg,left,820.4100001603365,true,high,NA,NA,NA,NA,NA,NA,NA,false
vQdJHg9y,3e9vauv7czrnvucm8noapw1mqoqyaq,3tmfv4nepcr7alm1nqraxs62cju8wv,vQdJHg9y,2020-0188,2020-06-04,10:36:42,10:58:33,NA,incomplete,198,race,3,0,right,C_M_06.jpg,A_M_12.jpg,C_F_04.jpg,right,848.8199999555945,true,high,NA,NA,NA,NA,NA,NA,NA,false
vQdJHg9y,3e9vauv7czrnvucm8noapw1mqoqyaq,3tmfv4nepcr7alm1nqraxs62cju8wv,vQdJHg9y,2020-0188,2020-06-04,10:36:42,10:58:33,NA,incomplete,199,race,3,1,right,C_F_10.jpg,A_F_12.jpg,C_M_08.jpg,right,1109.9150001537055,true,high,NA,NA,NA,NA,NA,NA,NA,false
vQdJHg9y,3e9vauv7czrnvucm8noapw1mqoqyaq,3tmfv4nepcr7alm1nqraxs62cju8wv,vQdJHg9y,2020-0188,2020-06-04,10:36:42,10:58:33,NA,incomplete,200,gender,2,1,right,A_F_04.jpg,A_M_12.jpg,C_F_11.jpg,left,979.859999846667,false,high,NA,NA,NA,NA,NA,NA,NA,false
vQdJHg9y,3e9vauv7czrnvucm8noapw1mqoqyaq,3tmfv4nepcr7alm1nqraxs62cju8wv,vQdJHg9y,2020-0188,2020-06-04,10:36:42,10:58:33,NA,incomplete,201,gender,2,1,right,C_F_15.jpg,C_M_09.jpg,A_F_01.jpg,left,1182.594999903813,false,high,NA,NA,NA,NA,NA,NA,NA,false
vQdJHg9y,3e9vauv7czrnvucm8noapw1mqoqyaq,3tmfv4nepcr7alm1nqraxs62cju8wv,vQdJHg9y,2020-0188,2020-06-04,10:36:42,10:58:33,NA,incomplete,202,gender,2,1,left,C_M_11.jpg,A_M_09.jpg,C_F_16.jpg,left,884.5699999947101,true,high,NA,NA,NA,NA,NA,NA,NA,false
vQdJHg9y,3e9vauv7czrnvucm8noapw1mqoqyaq,3tmfv4nepcr7alm1nqraxs62cju8wv,vQdJHg9y,2020-0188,2020-06-04,10:36:42,10:58:33,NA,incomplete,203,gender,2,0,left,A_F_06.jpg,C_F_08.jpg,A_M_15.jpg,left,859.7549998667091,true,high,NA,NA,NA,NA,NA,NA,NA,false
vQdJHg9y,3e9vauv7czrnvucm8noapw1mqoqyaq,3tmfv4nepcr7alm1nqraxs62cju8wv,vQdJHg9y,2020-0188,2020-06-04,10:36:42,10:58:33,NA,incomplete,204,gender,2,1,left,C_F_06.jpg,A_F_11.jpg,C_M_04.jpg,left,1094.8900000657886,true,high,NA,NA,NA,NA,NA,NA,NA,false
vQdJHg9y,3e9vauv7czrnvucm8noapw1mqoqyaq,3tmfv4nepcr7alm1nqraxs62cju8wv,vQdJHg9y,2020-0188,2020-06-04,10:36:42,10:58:33,NA,incomplete,205,gender,2,1,right,A_M_13.jpg,A_F_03.jpg,C_M_05.jpg,right,799.2700000759214,true,high,NA,NA,NA,NA,NA,NA,NA,false
vQdJHg9y,3e9vauv7czrnvucm8noapw1mqoqyaq,3tmfv4nepcr7alm1nqraxs62cju8wv,vQdJHg9y,2020-0188,2020-06-04,10:36:42,10:58:33,NA,incomplete,206,gender,2,1,right,C_M_04.jpg,C_F_11.jpg,A_M_13.jpg,right,1005.8699999935925,true,high,NA,NA,NA,NA,NA,NA,NA,false
vQdJHg9y,3e9vauv7czrnvucm8noapw1mqoqyaq,3tmfv4nepcr7alm1nqraxs62cju8wv,vQdJHg9y,2020-0188,2020-06-04,10:36:42,10:58:33,NA,incomplete,207,gender,2,0,left,A_F_05.jpg,C_F_13.jpg,A_M_11.jpg,left,764.5000000484288,true,high,NA,NA,NA,NA,NA,NA,NA,false
vQdJHg9y,3e9vauv7czrnvucm8noapw1mqoqyaq,3tmfv4nepcr7alm1nqraxs62cju8wv,vQdJHg9y,2020-0188,2020-06-04,10:36:42,10:58:33,NA,incomplete,208,gender,2,1,right,C_F_05.jpg,C_M_06.jpg,A_F_12.jpg,right,775.9899999946356,true,high,NA,NA,NA,NA,NA,NA,NA,false
vQdJHg9y,3e9vauv7czrnvucm8noapw1mqoqyaq,3tmfv4nepcr7alm1nqraxs62cju8wv,vQdJHg9y,2020-0188,2020-06-04,10:36:42,10:58:33,NA,incomplete,209,gender,2,1,left,A_F_12.jpg,C_F_03.jpg,A_M_14.jpg,left,775.3399999346584,true,high,NA,NA,NA,NA,NA,NA,NA,false
vQdJHg9y,3e9vauv7czrnvucm8noapw1mqoqyaq,3tmfv4nepcr7alm1nqraxs62cju8wv,vQdJHg9y,2020-0188,2020-06-04,10:36:42,10:58:33,NA,incomplete,210,gender,2,0,left,A_F_16.jpg,C_F_01.jpg,A_M_11.jpg,left,806.2549999449402,true,high,NA,NA,NA,NA,NA,NA,NA,false
vQdJHg9y,3e9vauv7czrnvucm8noapw1mqoqyaq,3tmfv4nepcr7alm1nqraxs62cju8wv,vQdJHg9y,2020-0188,2020-06-04,10:36:42,10:58:33,NA,incomplete,211,gender,2,1,right,A_M_03.jpg,A_F_04.jpg,C_M_12.jpg,right,1007.9000000841916,true,high,NA,NA,NA,NA,NA,NA,NA,false
vQdJHg9y,3e9vauv7czrnvucm8noapw1mqoqyaq,3tmfv4nepcr7alm1nqraxs62cju8wv,vQdJHg9y,2020-0188,2020-06-04,10:36:42,10:58:33,NA,incomplete,212,gender,2,0,right,C_F_14.jpg,C_M_07.jpg,A_F_08.jpg,right,970.4350000247359,true,high,NA,NA,NA,NA,NA,NA,NA,false
vQdJHg9y,3e9vauv7czrnvucm8noapw1mqoqyaq,3tmfv4nepcr7alm1nqraxs62cju8wv,vQdJHg9y,2020-0188,2020-06-04,10:36:42,10:58:33,NA,incomplete,213,gender,2,1,right,A_F_08.jpg,A_M_12.jpg,C_F_04.jpg,right,1080.779999960214,true,high,NA,NA,NA,NA,NA,NA,NA,false
vQdJHg9y,3e9vauv7czrnvucm8noapw1mqoqyaq,3tmfv4nepcr7alm1nqraxs62cju8wv,vQdJHg9y,2020-0188,2020-06-04,10:36:42,10:58:33,NA,incomplete,214,gender,2,1,left,C_F_08.jpg,A_F_14.jpg,C_M_11.jpg,left,964.1549999359995,true,high,NA,NA,NA,NA,NA,NA,NA,false
vQdJHg9y,3e9vauv7czrnvucm8noapw1mqoqyaq,3tmfv4nepcr7alm1nqraxs62cju8wv,vQdJHg9y,2020-0188,2020-06-04,10:36:42,10:58:33,NA,incomplete,215,gender,2,1,left,A_F_06.jpg,C_F_10.jpg,A_M_15.jpg,left,914.0399999450892,true,high,NA,NA,NA,NA,NA,NA,NA,false
vQdJHg9y,3e9vauv7czrnvucm8noapw1mqoqyaq,3tmfv4nepcr7alm1nqraxs62cju8wv,vQdJHg9y,2020-0188,2020-06-04,10:36:42,10:58:33,NA,incomplete,216,gender,2,1,right,A_F_07.jpg,A_M_04.jpg,C_F_06.jpg,right,885.0899999961257,true,high,NA,NA,NA,NA,NA,NA,NA,false
vQdJHg9y,3e9vauv7czrnvucm8noapw1mqoqyaq,3tmfv4nepcr7alm1nqraxs62cju8wv,vQdJHg9y,2020-0188,2020-06-04,10:36:42,10:58:33,NA,incomplete,217,gender,2,1,left,A_M_13.jpg,C_M_05.jpg,A_F_11.jpg,left,1047.9649999178946,true,high,NA,NA,NA,NA,NA,NA,NA,false
vQdJHg9y,3e9vauv7czrnvucm8noapw1mqoqyaq,3tmfv4nepcr7alm1nqraxs62cju8wv,vQdJHg9y,2020-0188,2020-06-04,10:36:42,10:58:33,NA,incomplete,218,gender,2,1,left,C_M_06.jpg,A_M_14.jpg,C_F_04.jpg,left,1109.0850001201034,true,high,NA,NA,NA,NA,NA,NA,NA,false
vQdJHg9y,3e9vauv7czrnvucm8noapw1mqoqyaq,3tmfv4nepcr7alm1nqraxs62cju8wv,vQdJHg9y,2020-0188,2020-06-04,10:36:42,10:58:33,NA,incomplete,219,gender,2,1,right,A_M_10.jpg,A_F_05.jpg,C_M_12.jpg,right,1006.8649998866022,true,high,NA,NA,NA,NA,NA,NA,NA,false
vQdJHg9y,3e9vauv7czrnvucm8noapw1mqoqyaq,3tmfv4nepcr7alm1nqraxs62cju8wv,vQdJHg9y,2020-0188,2020-06-04,10:36:42,10:58:33,NA,incomplete,220,race,3,1,right,A_M_16.jpg,C_M_11.jpg,A_F_01.jpg,left,868.9900001045316,false,high,NA,NA,NA,NA,NA,NA,NA,false
vQdJHg9y,3e9vauv7czrnvucm8noapw1mqoqyaq,3tmfv4nepcr7alm1nqraxs62cju8wv,vQdJHg9y,2020-0188,2020-06-04,10:36:42,10:58:33,NA,incomplete,221,race,3,1,left,A_F_09.jpg,A_M_02.jpg,C_F_11.jpg,right,851.784999947995,false,high,NA,NA,NA,NA,NA,NA,NA,false
vQdJHg9y,3e9vauv7czrnvucm8noapw1mqoqyaq,3tmfv4nepcr7alm1nqraxs62cju8wv,vQdJHg9y,2020-0188,2020-06-04,10:36:42,10:58:33,NA,incomplete,222,race,3,1,right,C_M_02.jpg,A_M_16.jpg,C_F_14.jpg,right,1061.754999915138,true,high,NA,NA,NA,NA,NA,NA,NA,false
vQdJHg9y,3e9vauv7czrnvucm8noapw1mqoqyaq,3tmfv4nepcr7alm1nqraxs62cju8wv,vQdJHg9y,2020-0188,2020-06-04,10:36:42,10:58:33,NA,incomplete,223,race,3,1,right,C_M_03.jpg,A_M_09.jpg,C_F_15.jpg,right,918.5949999373406,true,high,NA,NA,NA,NA,NA,NA,NA,false
vQdJHg9y,3e9vauv7czrnvucm8noapw1mqoqyaq,3tmfv4nepcr7alm1nqraxs62cju8wv,vQdJHg9y,2020-0188,2020-06-04,10:36:42,10:58:33,NA,incomplete,224,race,3,1,left,C_F_12.jpg,C_M_05.jpg,A_F_16.jpg,right,997.6950001437217,false,high,NA,NA,NA,NA,NA,NA,NA,false
vQdJHg9y,3e9vauv7czrnvucm8noapw1mqoqyaq,3tmfv4nepcr7alm1nqraxs62cju8wv,vQdJHg9y,2020-0188,2020-06-04,10:36:42,10:58:33,NA,incomplete,225,race,3,1,right,A_F_10.jpg,C_F_16.jpg,A_M_11.jpg,right,1015.8199998550117,true,high,NA,NA,NA,NA,NA,NA,NA,false
vQdJHg9y,3e9vauv7czrnvucm8noapw1mqoqyaq,3tmfv4nepcr7alm1nqraxs62cju8wv,vQdJHg9y,2020-0188,2020-06-04,10:36:42,10:58:33,NA,incomplete,226,race,3,1,right,C_M_09.jpg,A_M_13.jpg,C_F_15.jpg,right,948.0800000019372,true,high,NA,NA,NA,NA,NA,NA,NA,false
vQdJHg9y,3e9vauv7czrnvucm8noapw1mqoqyaq,3tmfv4nepcr7alm1nqraxs62cju8wv,vQdJHg9y,2020-0188,2020-06-04,10:36:42,10:58:33,NA,incomplete,227,race,3,1,right,A_F_12.jpg,C_F_11.jpg,A_M_07.jpg,right,992.6350000314415,true,high,NA,NA,NA,NA,NA,NA,NA,false
vQdJHg9y,3e9vauv7czrnvucm8noapw1mqoqyaq,3tmfv4nepcr7alm1nqraxs62cju8wv,vQdJHg9y,2020-0188,2020-06-04,10:36:42,10:58:33,NA,incomplete,228,race,3,1,left,C_F_14.jpg,C_M_10.jpg,A_F_06.jpg,left,937.9900000058115,true,high,NA,NA,NA,NA,NA,NA,NA,false
vQdJHg9y,3e9vauv7czrnvucm8noapw1mqoqyaq,3tmfv4nepcr7alm1nqraxs62cju8wv,vQdJHg9y,2020-0188,2020-06-04,10:36:42,10:58:33,NA,incomplete,229,race,3,1,right,C_F_13.jpg,A_F_03.jpg,C_M_08.jpg,right,1020.2450000215322,true,high,NA,NA,NA,NA,NA,NA,NA,false
vQdJHg9y,3e9vauv7czrnvucm8noapw1mqoqyaq,3tmfv4nepcr7alm1nqraxs62cju8wv,vQdJHg9y,2020-0188,2020-06-04,10:36:42,10:58:33,NA,incomplete,230,race,3,0,left,A_M_07.jpg,A_F_04.jpg,C_M_15.jpg,left,923.9650000818074,true,high,NA,NA,NA,NA,NA,NA,NA,false
vQdJHg9y,3e9vauv7czrnvucm8noapw1mqoqyaq,3tmfv4nepcr7alm1nqraxs62cju8wv,vQdJHg9y,2020-0188,2020-06-04,10:36:42,10:58:33,NA,incomplete,231,race,3,1,left,C_M_07.jpg,C_F_06.jpg,A_M_02.jpg,left,1184.3999999109656,true,high,NA,NA,NA,NA,NA,NA,NA,false
vQdJHg9y,3e9vauv7czrnvucm8noapw1mqoqyaq,3tmfv4nepcr7alm1nqraxs62cju8wv,vQdJHg9y,2020-0188,2020-06-04,10:36:42,10:58:33,NA,incomplete,232,race,3,1,left,C_F_07.jpg,C_M_04.jpg,A_F_05.jpg,left,1349.9699998646975,true,high,NA,NA,NA,NA,NA,NA,NA,false
vQdJHg9y,3e9vauv7czrnvucm8noapw1mqoqyaq,3tmfv4nepcr7alm1nqraxs62cju8wv,vQdJHg9y,2020-0188,2020-06-04,10:36:42,10:58:33,NA,incomplete,233,race,3,1,left,A_M_13.jpg,A_F_06.jpg,C_M_02.jpg,left,992.3449999187142,true,high,NA,NA,NA,NA,NA,NA,NA,false
vQdJHg9y,3e9vauv7czrnvucm8noapw1mqoqyaq,3tmfv4nepcr7alm1nqraxs62cju8wv,vQdJHg9y,2020-0188,2020-06-04,10:36:42,10:58:33,NA,incomplete,234,race,3,1,left,A_F_13.jpg,A_M_10.jpg,C_F_06.jpg,left,933.4500001277775,true,high,NA,NA,NA,NA,NA,NA,NA,false
vQdJHg9y,3e9vauv7czrnvucm8noapw1mqoqyaq,3tmfv4nepcr7alm1nqraxs62cju8wv,vQdJHg9y,2020-0188,2020-06-04,10:36:42,10:58:33,NA,incomplete,235,race,3,1,right,C_F_06.jpg,A_F_10.jpg,C_M_16.jpg,right,993.8450001645833,true,high,NA,NA,NA,NA,NA,NA,NA,false
vQdJHg9y,3e9vauv7czrnvucm8noapw1mqoqyaq,3tmfv4nepcr7alm1nqraxs62cju8wv,vQdJHg9y,2020-0188,2020-06-04,10:36:42,10:58:33,NA,incomplete,236,race,3,1,right,A_F_04.jpg,C_F_09.jpg,A_M_05.jpg,right,961.2050000578165,true,high,NA,NA,NA,NA,NA,NA,NA,false
vQdJHg9y,3e9vauv7czrnvucm8noapw1mqoqyaq,3tmfv4nepcr7alm1nqraxs62cju8wv,vQdJHg9y,2020-0188,2020-06-04,10:36:42,10:58:33,NA,incomplete,237,race,3,1,right,A_F_01.jpg,C_F_05.jpg,A_M_11.jpg,right,947.7700002025813,true,high,NA,NA,NA,NA,NA,NA,NA,false
vQdJHg9y,3e9vauv7czrnvucm8noapw1mqoqyaq,3tmfv4nepcr7alm1nqraxs62cju8wv,vQdJHg9y,2020-0188,2020-06-04,10:36:42,10:58:33,NA,incomplete,238,race,3,1,left,A_M_10.jpg,A_F_02.jpg,C_M_01.jpg,left,912.6900001429021,true,high,NA,NA,NA,NA,NA,NA,NA,false
vQdJHg9y,3e9vauv7czrnvucm8noapw1mqoqyaq,3tmfv4nepcr7alm1nqraxs62cju8wv,vQdJHg9y,2020-0188,2020-06-04,10:36:42,10:58:33,NA,incomplete,239,race,3,1,left,C_F_07.jpg,C_M_14.jpg,A_F_03.jpg,left,1081.5300000831485,true,high,NA,NA,NA,NA,NA,NA,NA,false
vQdJHg9y,3e9vauv7czrnvucm8noapw1mqoqyaq,3tmfv4nepcr7alm1nqraxs62cju8wv,vQdJHg9y,2020-0188,2020-06-04,10:36:42,10:58:33,NA,NA,instruction example,filling,NA,NA,NA,Red_Plus_Chess_4.jpg,Purple_Circle_Chess_1.jpg,Green_Star_Grid_4.jpg,NA,NA,NA,NA,NA,NA,NA,NA,NA,NA,NA,undefined
vQdJHg9y,3e9vauv7czrnvucm8noapw1mqoqyaq,3tmfv4nepcr7alm1nqraxs62cju8wv,vQdJHg9y,2020-0188,2020-06-04,10:36:42,10:58:33,NA,NA,instruction example,filling,NA,NA,NA,Purple_Plus_Dots_1.jpg,Green_Circle_Stripes_1.jpg,Blue_Star_Dots_2.jpg,NA,NA,NA,NA,NA,NA,NA,NA,NA,NA,NA,undefined
vQdJHg9y,3e9vauv7czrnvucm8noapw1mqoqyaq,3tmfv4nepcr7alm1nqraxs62cju8wv,vQdJHg9y,2020-0188,2020-06-04,10:36:42,10:58:33,NA,NA,instruction example,filling,NA,NA,NA,C_M_05.jpg,A_M_01.jpg,C_F_04.jpg,NA,NA,NA,NA,NA,NA,NA,NA,NA,NA,NA,undefined
vQdJHg9y,3e9vauv7czrnvucm8noapw1mqoqyaq,3tmfv4nepcr7alm1nqraxs62cju8wv,vQdJHg9y,2020-0188,2020-06-04,10:36:42,10:58:33,NA,NA,instruction example,filling,NA,NA,NA,A_F_09.jpg,A_M_01.jpg,C_F_04.jpg,NA,NA,NA,NA,NA,NA,NA,NA,NA,NA,NA,undefined
vQdJHg9y,3e9vauv7czrnvucm8noapw1mqoqyaq,3tmfv4nepcr7alm1nqraxs62cju8wv,vQdJHg9y,2020-0188,2020-06-04,10:36:42,10:58:33,1277336.0749999993,1312525.8649999741,NA,NA,NA,NA,NA,NA,NA,NA,NA,NA,NA,NA,51,White/Caucasian,Male,Polish american,no,no,no,undefined
