workerId,hitId,assignmentId,subject,studyid,exp_date,exp_start,exp_end,time_start,time_end,trial,type,sequence,reward_validity,answer,image_top,image_left,image_right,response,response_time,response_acc,volatility,age,race,gender,ethnicity,color,vision,neuro,practice
k6ImmmCQ,3e9vauv7czrnvucm8noapw1mqoqyaq,3tpzplc3m4pvpfjuznijehqv30z3p3,k6ImmmCQ,2020-0188,2020-06-04,09:38:55,10:01:07,NA,incomplete,0,number,0,1,left,Green_Plus_Stripes_3.jpg,Purple_Star_Chess_3.jpg,Blue_Plus_Dots_4.jpg,left,1631.7300000227988,true,NA,NA,NA,NA,NA,NA,NA,NA,true
k6ImmmCQ,3e9vauv7czrnvucm8noapw1mqoqyaq,3tpzplc3m4pvpfjuznijehqv30z3p3,k6ImmmCQ,2020-0188,2020-06-04,09:38:55,10:01:07,NA,incomplete,1,number,0,0,right,Purple_Circle_Chess_2.jpg,Green_Circle_Dots_4.jpg,Blue_Star_Grid_2.jpg,right,1572.0000000437722,true,NA,NA,NA,NA,NA,NA,NA,NA,true
k6ImmmCQ,3e9vauv7czrnvucm8noapw1mqoqyaq,3tpzplc3m4pvpfjuznijehqv30z3p3,k6ImmmCQ,2020-0188,2020-06-04,09:38:55,10:01:07,NA,incomplete,2,number,0,1,right,Green_Triangle_Chess_1.jpg,Blue_Triangle_Grid_4.jpg,Red_Star_Stripes_1.jpg,right,1962.995000067167,true,NA,NA,NA,NA,NA,NA,NA,NA,true
k6ImmmCQ,3e9vauv7czrnvucm8noapw1mqoqyaq,3tpzplc3m4pvpfjuznijehqv30z3p3,k6ImmmCQ,2020-0188,2020-06-04,09:38:55,10:01:07,NA,incomplete,3,number,0,1,right,Green_Triangle_Chess_3.jpg,Purple_Triangle_Grid_1.jpg,Blue_Plus_Dots_3.jpg,right,1909.1100000077859,true,NA,NA,NA,NA,NA,NA,NA,NA,true
k6ImmmCQ,3e9vauv7czrnvucm8noapw1mqoqyaq,3tpzplc3m4pvpfjuznijehqv30z3p3,k6ImmmCQ,2020-0188,2020-06-04,09:38:55,10:01:07,NA,incomplete,4,number,0,0,left,Purple_Circle_Grid_2.jpg,Green_Star_Chess_2.jpg,Red_Circle_Dots_4.jpg,left,1468.75,true,NA,NA,NA,NA,NA,NA,NA,NA,true
k6ImmmCQ,3e9vauv7czrnvucm8noapw1mqoqyaq,3tpzplc3m4pvpfjuznijehqv30z3p3,k6ImmmCQ,2020-0188,2020-06-04,09:38:55,10:01:07,NA,incomplete,5,number,0,1,right,Blue_Star_Dots_3.jpg,Red_Star_Chess_4.jpg,Purple_Circle_Grid_3.jpg,right,1797.0350000541657,true,NA,NA,NA,NA,NA,NA,NA,NA,true
k6ImmmCQ,3e9vauv7czrnvucm8noapw1mqoqyaq,3tpzplc3m4pvpfjuznijehqv30z3p3,k6ImmmCQ,2020-0188,2020-06-04,09:38:55,10:01:07,NA,incomplete,6,number,0,1,right,Green_Star_Dots_1.jpg,Blue_Star_Stripes_3.jpg,Red_Circle_Grid_1.jpg,right,1342.960000038147,true,NA,NA,NA,NA,NA,NA,NA,NA,true
k6ImmmCQ,3e9vauv7czrnvucm8noapw1mqoqyaq,3tpzplc3m4pvpfjuznijehqv30z3p3,k6ImmmCQ,2020-0188,2020-06-04,09:38:55,10:01:07,NA,incomplete,7,number,0,1,left,Red_Triangle_Grid_4.jpg,Green_Circle_Chess_4.jpg,Blue_Triangle_Dots_2.jpg,left,1697.2000000532717,true,NA,NA,NA,NA,NA,NA,NA,NA,true
k6ImmmCQ,3e9vauv7czrnvucm8noapw1mqoqyaq,3tpzplc3m4pvpfjuznijehqv30z3p3,k6ImmmCQ,2020-0188,2020-06-04,09:38:55,10:01:07,NA,incomplete,8,number,0,1,right,Green_Plus_Dots_3.jpg,Purple_Plus_Grid_4.jpg,Blue_Star_Stripes_3.jpg,right,1169.9899999657646,true,NA,NA,NA,NA,NA,NA,NA,NA,true
k6ImmmCQ,3e9vauv7czrnvucm8noapw1mqoqyaq,3tpzplc3m4pvpfjuznijehqv30z3p3,k6ImmmCQ,2020-0188,2020-06-04,09:38:55,10:01:07,NA,incomplete,9,number,0,1,right,Red_Circle_Stripes_1.jpg,Blue_Circle_Chess_2.jpg,Purple_Star_Grid_1.jpg,right,1465.6849999446422,true,NA,NA,NA,NA,NA,NA,NA,NA,true
k6ImmmCQ,3e9vauv7czrnvucm8noapw1mqoqyaq,3tpzplc3m4pvpfjuznijehqv30z3p3,k6ImmmCQ,2020-0188,2020-06-04,09:38:55,10:01:07,NA,incomplete,10,number,0,1,left,Red_Triangle_Grid_4.jpg,Green_Star_Dots_4.jpg,Blue_Triangle_Chess_3.jpg,left,1525.7350000320002,true,NA,NA,NA,NA,NA,NA,NA,NA,true
k6ImmmCQ,3e9vauv7czrnvucm8noapw1mqoqyaq,3tpzplc3m4pvpfjuznijehqv30z3p3,k6ImmmCQ,2020-0188,2020-06-04,09:38:55,10:01:07,NA,incomplete,11,number,0,1,right,Purple_Triangle_Grid_1.jpg,Green_Triangle_Stripes_2.jpg,Blue_Circle_Chess_1.jpg,right,896.1899999994785,true,NA,NA,NA,NA,NA,NA,NA,NA,true
k6ImmmCQ,3e9vauv7czrnvucm8noapw1mqoqyaq,3tpzplc3m4pvpfjuznijehqv30z3p3,k6ImmmCQ,2020-0188,2020-06-04,09:38:55,10:01:07,NA,incomplete,12,number,0,1,left,Blue_Circle_Dots_3.jpg,Red_Star_Stripes_3.jpg,Purple_Circle_Grid_4.jpg,left,1065.375000005588,true,NA,NA,NA,NA,NA,NA,NA,NA,true
k6ImmmCQ,3e9vauv7czrnvucm8noapw1mqoqyaq,3tpzplc3m4pvpfjuznijehqv30z3p3,k6ImmmCQ,2020-0188,2020-06-04,09:38:55,10:01:07,NA,incomplete,13,number,0,0,left,Blue_Circle_Stripes_3.jpg,Purple_Triangle_Dots_3.jpg,Red_Circle_Grid_4.jpg,left,1324.6649999637157,true,NA,NA,NA,NA,NA,NA,NA,NA,true
k6ImmmCQ,3e9vauv7czrnvucm8noapw1mqoqyaq,3tpzplc3m4pvpfjuznijehqv30z3p3,k6ImmmCQ,2020-0188,2020-06-04,09:38:55,10:01:07,NA,incomplete,14,number,0,1,left,Green_Triangle_Stripes_3.jpg,Blue_Circle_Grid_3.jpg,Purple_Triangle_Dots_2.jpg,left,1149.9199999962002,true,NA,NA,NA,NA,NA,NA,NA,NA,true
k6ImmmCQ,3e9vauv7czrnvucm8noapw1mqoqyaq,3tpzplc3m4pvpfjuznijehqv30z3p3,k6ImmmCQ,2020-0188,2020-06-04,09:38:55,10:01:07,NA,incomplete,15,number,0,1,left,Green_Plus_Chess_3.jpg,Purple_Circle_Grid_3.jpg,Red_Plus_Dots_4.jpg,left,1241.6150000644848,true,NA,NA,NA,NA,NA,NA,NA,NA,true
k6ImmmCQ,3e9vauv7czrnvucm8noapw1mqoqyaq,3tpzplc3m4pvpfjuznijehqv30z3p3,k6ImmmCQ,2020-0188,2020-06-04,09:38:55,10:01:07,NA,incomplete,16,number,0,1,left,Purple_Plus_Dots_2.jpg,Green_Triangle_Grid_2.jpg,Blue_Plus_Chess_3.jpg,left,1153.9649999467656,true,NA,NA,NA,NA,NA,NA,NA,NA,true
k6ImmmCQ,3e9vauv7czrnvucm8noapw1mqoqyaq,3tpzplc3m4pvpfjuznijehqv30z3p3,k6ImmmCQ,2020-0188,2020-06-04,09:38:55,10:01:07,NA,incomplete,17,number,0,1,right,Purple_Plus_Grid_1.jpg,Green_Plus_Chess_2.jpg,Red_Star_Dots_1.jpg,right,1051.3500000815839,true,NA,NA,NA,NA,NA,NA,NA,NA,true
k6ImmmCQ,3e9vauv7czrnvucm8noapw1mqoqyaq,3tpzplc3m4pvpfjuznijehqv30z3p3,k6ImmmCQ,2020-0188,2020-06-04,09:38:55,10:01:07,NA,incomplete,18,number,0,1,left,Purple_Star_Chess_1.jpg,Red_Triangle_Dots_1.jpg,Green_Star_Grid_3.jpg,left,1006.3049999298528,true,NA,NA,NA,NA,NA,NA,NA,NA,true
k6ImmmCQ,3e9vauv7czrnvucm8noapw1mqoqyaq,3tpzplc3m4pvpfjuznijehqv30z3p3,k6ImmmCQ,2020-0188,2020-06-04,09:38:55,10:01:07,NA,incomplete,19,number,0,1,right,Green_Plus_Grid_1.jpg,Blue_Plus_Stripes_4.jpg,Purple_Circle_Dots_1.jpg,right,916.3049999624491,true,NA,NA,NA,NA,NA,NA,NA,NA,true
k6ImmmCQ,3e9vauv7czrnvucm8noapw1mqoqyaq,3tpzplc3m4pvpfjuznijehqv30z3p3,k6ImmmCQ,2020-0188,2020-06-04,09:38:55,10:01:07,NA,incomplete,20,shape,1,1,left,Red_Triangle_Stripes_2.jpg,Purple_Triangle_Dots_3.jpg,Blue_Star_Grid_2.jpg,left,1742.1999999787658,true,NA,NA,NA,NA,NA,NA,NA,NA,true
k6ImmmCQ,3e9vauv7czrnvucm8noapw1mqoqyaq,3tpzplc3m4pvpfjuznijehqv30z3p3,k6ImmmCQ,2020-0188,2020-06-04,09:38:55,10:01:07,NA,incomplete,21,shape,1,1,right,Purple_Circle_Stripes_1.jpg,Blue_Triangle_Dots_1.jpg,Green_Circle_Chess_4.jpg,right,1367.3350000753999,true,NA,NA,NA,NA,NA,NA,NA,NA,true
k6ImmmCQ,3e9vauv7czrnvucm8noapw1mqoqyaq,3tpzplc3m4pvpfjuznijehqv30z3p3,k6ImmmCQ,2020-0188,2020-06-04,09:38:55,10:01:07,NA,incomplete,22,shape,1,1,right,Red_Triangle_Dots_2.jpg,Blue_Star_Stripes_2.jpg,Green_Triangle_Chess_3.jpg,right,1870.255000074394,true,NA,NA,NA,NA,NA,NA,NA,NA,true
k6ImmmCQ,3e9vauv7czrnvucm8noapw1mqoqyaq,3tpzplc3m4pvpfjuznijehqv30z3p3,k6ImmmCQ,2020-0188,2020-06-04,09:38:55,10:01:07,NA,incomplete,23,shape,1,1,left,Red_Triangle_Grid_3.jpg,Green_Triangle_Stripes_1.jpg,Purple_Circle_Chess_3.jpg,left,1171.2899999693036,true,NA,NA,NA,NA,NA,NA,NA,NA,true
k6ImmmCQ,3e9vauv7czrnvucm8noapw1mqoqyaq,3tpzplc3m4pvpfjuznijehqv30z3p3,k6ImmmCQ,2020-0188,2020-06-04,09:38:55,10:01:07,NA,incomplete,24,shape,1,1,left,Green_Triangle_Grid_4.jpg,Red_Triangle_Chess_1.jpg,Purple_Star_Stripes_4.jpg,left,1705.100000021048,true,NA,NA,NA,NA,NA,NA,NA,NA,true
k6ImmmCQ,3e9vauv7czrnvucm8noapw1mqoqyaq,3tpzplc3m4pvpfjuznijehqv30z3p3,k6ImmmCQ,2020-0188,2020-06-04,09:38:55,10:01:07,NA,incomplete,25,shape,1,1,left,Purple_Plus_Stripes_3.jpg,Blue_Plus_Grid_4.jpg,Red_Triangle_Dots_3.jpg,left,1107.175000011921,true,NA,NA,NA,NA,NA,NA,NA,NA,true
k6ImmmCQ,3e9vauv7czrnvucm8noapw1mqoqyaq,3tpzplc3m4pvpfjuznijehqv30z3p3,k6ImmmCQ,2020-0188,2020-06-04,09:38:55,10:01:07,NA,incomplete,26,shape,1,1,right,Purple_Triangle_Grid_4.jpg,Blue_Plus_Chess_4.jpg,Red_Triangle_Stripes_1.jpg,right,949.7449999907985,true,NA,NA,NA,NA,NA,NA,NA,NA,true
k6ImmmCQ,3e9vauv7czrnvucm8noapw1mqoqyaq,3tpzplc3m4pvpfjuznijehqv30z3p3,k6ImmmCQ,2020-0188,2020-06-04,09:38:55,10:01:07,NA,incomplete,27,shape,1,0,right,Green_Plus_Dots_4.jpg,Blue_Circle_Stripes_4.jpg,Red_Plus_Grid_1.jpg,right,983.4049999481067,true,NA,NA,NA,NA,NA,NA,NA,NA,true
k6ImmmCQ,3e9vauv7czrnvucm8noapw1mqoqyaq,3tpzplc3m4pvpfjuznijehqv30z3p3,k6ImmmCQ,2020-0188,2020-06-04,09:38:55,10:01:07,NA,incomplete,28,shape,1,1,right,Blue_Star_Dots_3.jpg,Red_Circle_Chess_3.jpg,Purple_Star_Stripes_1.jpg,right,1204.4449999229982,true,NA,NA,NA,NA,NA,NA,NA,NA,true
k6ImmmCQ,3e9vauv7czrnvucm8noapw1mqoqyaq,3tpzplc3m4pvpfjuznijehqv30z3p3,k6ImmmCQ,2020-0188,2020-06-04,09:38:55,10:01:07,NA,incomplete,29,shape,1,0,right,Red_Triangle_Grid_2.jpg,Green_Circle_Stripes_2.jpg,Blue_Triangle_Dots_1.jpg,right,945.2749999472871,true,NA,NA,NA,NA,NA,NA,NA,NA,true
k6ImmmCQ,3e9vauv7czrnvucm8noapw1mqoqyaq,3tpzplc3m4pvpfjuznijehqv30z3p3,k6ImmmCQ,2020-0188,2020-06-04,09:38:55,10:01:07,NA,incomplete,30,shape,1,0,left,Green_Triangle_Dots_3.jpg,Blue_Triangle_Chess_4.jpg,Purple_Circle_Grid_3.jpg,left,962.1999999508262,true,NA,NA,NA,NA,NA,NA,NA,NA,true
k6ImmmCQ,3e9vauv7czrnvucm8noapw1mqoqyaq,3tpzplc3m4pvpfjuznijehqv30z3p3,k6ImmmCQ,2020-0188,2020-06-04,09:38:55,10:01:07,NA,incomplete,31,shape,1,1,left,Blue_Star_Dots_1.jpg,Green_Star_Grid_3.jpg,Purple_Plus_Stripes_1.jpg,left,1051.5250000171363,true,NA,NA,NA,NA,NA,NA,NA,NA,true
k6ImmmCQ,3e9vauv7czrnvucm8noapw1mqoqyaq,3tpzplc3m4pvpfjuznijehqv30z3p3,k6ImmmCQ,2020-0188,2020-06-04,09:38:55,10:01:07,NA,incomplete,32,shape,1,1,right,Red_Star_Dots_1.jpg,Purple_Plus_Stripes_1.jpg,Blue_Star_Grid_2.jpg,right,806.55000009574,true,NA,NA,NA,NA,NA,NA,NA,NA,true
k6ImmmCQ,3e9vauv7czrnvucm8noapw1mqoqyaq,3tpzplc3m4pvpfjuznijehqv30z3p3,k6ImmmCQ,2020-0188,2020-06-04,09:38:55,10:01:07,NA,incomplete,33,shape,1,0,right,Green_Circle_Grid_4.jpg,Red_Star_Stripes_4.jpg,Blue_Circle_Dots_3.jpg,right,980.9149999637157,true,NA,NA,NA,NA,NA,NA,NA,NA,true
k6ImmmCQ,3e9vauv7czrnvucm8noapw1mqoqyaq,3tpzplc3m4pvpfjuznijehqv30z3p3,k6ImmmCQ,2020-0188,2020-06-04,09:38:55,10:01:07,NA,incomplete,34,shape,1,1,left,Green_Plus_Stripes_3.jpg,Purple_Plus_Dots_4.jpg,Red_Circle_Chess_3.jpg,left,1017.8499999456108,true,NA,NA,NA,NA,NA,NA,NA,NA,true
k6ImmmCQ,3e9vauv7czrnvucm8noapw1mqoqyaq,3tpzplc3m4pvpfjuznijehqv30z3p3,k6ImmmCQ,2020-0188,2020-06-04,09:38:55,10:01:07,NA,incomplete,35,shape,1,1,right,Blue_Star_Dots_1.jpg,Red_Circle_Chess_1.jpg,Purple_Star_Stripes_2.jpg,right,1144.0200000070035,true,NA,NA,NA,NA,NA,NA,NA,NA,true
k6ImmmCQ,3e9vauv7czrnvucm8noapw1mqoqyaq,3tpzplc3m4pvpfjuznijehqv30z3p3,k6ImmmCQ,2020-0188,2020-06-04,09:38:55,10:01:07,NA,incomplete,36,shape,1,1,left,Green_Plus_Grid_3.jpg,Blue_Plus_Dots_4.jpg,Purple_Triangle_Chess_3.jpg,left,1168.7000000383705,true,NA,NA,NA,NA,NA,NA,NA,NA,true
k6ImmmCQ,3e9vauv7czrnvucm8noapw1mqoqyaq,3tpzplc3m4pvpfjuznijehqv30z3p3,k6ImmmCQ,2020-0188,2020-06-04,09:38:55,10:01:07,NA,incomplete,37,shape,1,1,left,Red_Circle_Dots_4.jpg,Green_Circle_Grid_1.jpg,Blue_Triangle_Stripes_4.jpg,left,1094.5300000021234,true,NA,NA,NA,NA,NA,NA,NA,NA,true
k6ImmmCQ,3e9vauv7czrnvucm8noapw1mqoqyaq,3tpzplc3m4pvpfjuznijehqv30z3p3,k6ImmmCQ,2020-0188,2020-06-04,09:38:55,10:01:07,NA,incomplete,38,shape,1,1,right,Red_Star_Chess_4.jpg,Blue_Circle_Grid_4.jpg,Purple_Star_Stripes_3.jpg,right,887.7299999585375,true,NA,NA,NA,NA,NA,NA,NA,NA,true
k6ImmmCQ,3e9vauv7czrnvucm8noapw1mqoqyaq,3tpzplc3m4pvpfjuznijehqv30z3p3,k6ImmmCQ,2020-0188,2020-06-04,09:38:55,10:01:07,NA,incomplete,39,shape,1,0,right,Purple_Triangle_Chess_1.jpg,Green_Circle_Stripes_1.jpg,Red_Triangle_Dots_3.jpg,right,1051.5949999680743,true,NA,NA,NA,NA,NA,NA,NA,NA,true
k6ImmmCQ,3e9vauv7czrnvucm8noapw1mqoqyaq,3tpzplc3m4pvpfjuznijehqv30z3p3,k6ImmmCQ,2020-0188,2020-06-04,09:38:55,10:01:07,NA,incomplete,0,number,0,1,left,Red_Star_Dots_1.jpg,Purple_Plus_Grid_1.jpg,Blue_Star_Chess_4.jpg,right,1129.5699999900535,false,low,NA,NA,NA,NA,NA,NA,NA,false
k6ImmmCQ,3e9vauv7czrnvucm8noapw1mqoqyaq,3tpzplc3m4pvpfjuznijehqv30z3p3,k6ImmmCQ,2020-0188,2020-06-04,09:38:55,10:01:07,NA,incomplete,1,number,0,0,left,Purple_Triangle_Chess_2.jpg,Red_Circle_Grid_2.jpg,Blue_Triangle_Dots_4.jpg,right,1098.4999999636784,false,low,NA,NA,NA,NA,NA,NA,NA,false
k6ImmmCQ,3e9vauv7czrnvucm8noapw1mqoqyaq,3tpzplc3m4pvpfjuznijehqv30z3p3,k6ImmmCQ,2020-0188,2020-06-04,09:38:55,10:01:07,NA,incomplete,2,number,0,1,right,Blue_Triangle_Chess_2.jpg,Red_Triangle_Grid_1.jpg,Purple_Circle_Dots_2.jpg,left,908.2049999851733,false,low,NA,NA,NA,NA,NA,NA,NA,false
k6ImmmCQ,3e9vauv7czrnvucm8noapw1mqoqyaq,3tpzplc3m4pvpfjuznijehqv30z3p3,k6ImmmCQ,2020-0188,2020-06-04,09:38:55,10:01:07,NA,incomplete,3,number,0,1,left,Purple_Star_Chess_3.jpg,Red_Plus_Grid_3.jpg,Blue_Star_Dots_4.jpg,right,1092.3200000543147,false,low,NA,NA,NA,NA,NA,NA,NA,false
k6ImmmCQ,3e9vauv7czrnvucm8noapw1mqoqyaq,3tpzplc3m4pvpfjuznijehqv30z3p3,k6ImmmCQ,2020-0188,2020-06-04,09:38:55,10:01:07,NA,incomplete,4,number,0,1,right,Blue_Plus_Grid_3.jpg,Red_Plus_Chess_4.jpg,Purple_Star_Stripes_3.jpg,left,1104.5199999352917,false,low,NA,NA,NA,NA,NA,NA,NA,false
k6ImmmCQ,3e9vauv7czrnvucm8noapw1mqoqyaq,3tpzplc3m4pvpfjuznijehqv30z3p3,k6ImmmCQ,2020-0188,2020-06-04,09:38:55,10:01:07,NA,incomplete,5,number,0,1,right,Blue_Star_Dots_2.jpg,Red_Star_Stripes_4.jpg,Purple_Triangle_Grid_2.jpg,right,1024.8950000386685,true,low,NA,NA,NA,NA,NA,NA,NA,false
k6ImmmCQ,3e9vauv7czrnvucm8noapw1mqoqyaq,3tpzplc3m4pvpfjuznijehqv30z3p3,k6ImmmCQ,2020-0188,2020-06-04,09:38:55,10:01:07,NA,incomplete,6,number,0,1,right,Blue_Star_Stripes_3.jpg,Red_Star_Dots_2.jpg,Green_Circle_Chess_3.jpg,right,1086.96499990765,true,low,NA,NA,NA,NA,NA,NA,NA,false
k6ImmmCQ,3e9vauv7czrnvucm8noapw1mqoqyaq,3tpzplc3m4pvpfjuznijehqv30z3p3,k6ImmmCQ,2020-0188,2020-06-04,09:38:55,10:01:07,NA,incomplete,7,number,0,0,right,Blue_Plus_Grid_2.jpg,Red_Plus_Stripes_3.jpg,Green_Star_Chess_2.jpg,right,1416.8399999616668,true,low,NA,NA,NA,NA,NA,NA,NA,false
k6ImmmCQ,3e9vauv7czrnvucm8noapw1mqoqyaq,3tpzplc3m4pvpfjuznijehqv30z3p3,k6ImmmCQ,2020-0188,2020-06-04,09:38:55,10:01:07,NA,incomplete,8,number,0,1,left,Blue_Triangle_Stripes_2.jpg,Green_Circle_Grid_2.jpg,Purple_Triangle_Chess_4.jpg,left,840.0749999564141,true,low,NA,NA,NA,NA,NA,NA,NA,false
k6ImmmCQ,3e9vauv7czrnvucm8noapw1mqoqyaq,3tpzplc3m4pvpfjuznijehqv30z3p3,k6ImmmCQ,2020-0188,2020-06-04,09:38:55,10:01:07,NA,incomplete,9,number,0,1,left,Red_Plus_Dots_3.jpg,Green_Circle_Stripes_3.jpg,Blue_Plus_Chess_2.jpg,left,1138.939999975264,true,low,NA,NA,NA,NA,NA,NA,NA,false
k6ImmmCQ,3e9vauv7czrnvucm8noapw1mqoqyaq,3tpzplc3m4pvpfjuznijehqv30z3p3,k6ImmmCQ,2020-0188,2020-06-04,09:38:55,10:01:07,NA,incomplete,10,number,0,1,left,Purple_Circle_Stripes_1.jpg,Green_Plus_Grid_1.jpg,Blue_Circle_Dots_2.jpg,left,1024.8849999625236,true,low,NA,NA,NA,NA,NA,NA,NA,false
k6ImmmCQ,3e9vauv7czrnvucm8noapw1mqoqyaq,3tpzplc3m4pvpfjuznijehqv30z3p3,k6ImmmCQ,2020-0188,2020-06-04,09:38:55,10:01:07,NA,incomplete,11,number,0,0,right,Red_Circle_Grid_1.jpg,Green_Circle_Stripes_4.jpg,Blue_Star_Chess_1.jpg,right,945.4850000329316,true,low,NA,NA,NA,NA,NA,NA,NA,false
k6ImmmCQ,3e9vauv7czrnvucm8noapw1mqoqyaq,3tpzplc3m4pvpfjuznijehqv30z3p3,k6ImmmCQ,2020-0188,2020-06-04,09:38:55,10:01:07,NA,incomplete,12,number,0,1,right,Green_Triangle_Grid_2.jpg,Purple_Triangle_Dots_4.jpg,Blue_Circle_Stripes_2.jpg,right,1100.7100000279024,true,low,NA,NA,NA,NA,NA,NA,NA,false
k6ImmmCQ,3e9vauv7czrnvucm8noapw1mqoqyaq,3tpzplc3m4pvpfjuznijehqv30z3p3,k6ImmmCQ,2020-0188,2020-06-04,09:38:55,10:01:07,NA,incomplete,13,number,0,1,left,Purple_Plus_Chess_2.jpg,Blue_Circle_Grid_2.jpg,Red_Plus_Dots_3.jpg,left,940.085000009276,true,low,NA,NA,NA,NA,NA,NA,NA,false
k6ImmmCQ,3e9vauv7czrnvucm8noapw1mqoqyaq,3tpzplc3m4pvpfjuznijehqv30z3p3,k6ImmmCQ,2020-0188,2020-06-04,09:38:55,10:01:07,NA,incomplete,14,number,0,0,right,Green_Triangle_Grid_4.jpg,Purple_Triangle_Stripes_1.jpg,Blue_Plus_Chess_4.jpg,right,907.7400000533089,true,low,NA,NA,NA,NA,NA,NA,NA,false
k6ImmmCQ,3e9vauv7czrnvucm8noapw1mqoqyaq,3tpzplc3m4pvpfjuznijehqv30z3p3,k6ImmmCQ,2020-0188,2020-06-04,09:38:55,10:01:07,NA,incomplete,15,number,0,0,left,Green_Triangle_Dots_4.jpg,Blue_Circle_Chess_4.jpg,Purple_Triangle_Grid_3.jpg,left,1037.804999970831,true,low,NA,NA,NA,NA,NA,NA,NA,false
k6ImmmCQ,3e9vauv7czrnvucm8noapw1mqoqyaq,3tpzplc3m4pvpfjuznijehqv30z3p3,k6ImmmCQ,2020-0188,2020-06-04,09:38:55,10:01:07,NA,incomplete,16,number,0,1,right,Blue_Star_Grid_2.jpg,Green_Star_Stripes_3.jpg,Purple_Triangle_Dots_2.jpg,right,922.0650000497699,true,low,NA,NA,NA,NA,NA,NA,NA,false
k6ImmmCQ,3e9vauv7czrnvucm8noapw1mqoqyaq,3tpzplc3m4pvpfjuznijehqv30z3p3,k6ImmmCQ,2020-0188,2020-06-04,09:38:55,10:01:07,NA,incomplete,17,number,0,1,right,Red_Plus_Chess_2.jpg,Green_Plus_Dots_4.jpg,Purple_Circle_Grid_2.jpg,right,954.5399999478832,true,low,NA,NA,NA,NA,NA,NA,NA,false
k6ImmmCQ,3e9vauv7czrnvucm8noapw1mqoqyaq,3tpzplc3m4pvpfjuznijehqv30z3p3,k6ImmmCQ,2020-0188,2020-06-04,09:38:55,10:01:07,NA,incomplete,18,number,0,1,left,Blue_Plus_Stripes_2.jpg,Purple_Circle_Grid_2.jpg,Red_Plus_Dots_3.jpg,left,819.4399999920279,true,low,NA,NA,NA,NA,NA,NA,NA,false
k6ImmmCQ,3e9vauv7czrnvucm8noapw1mqoqyaq,3tpzplc3m4pvpfjuznijehqv30z3p3,k6ImmmCQ,2020-0188,2020-06-04,09:38:55,10:01:07,NA,incomplete,19,number,0,1,right,Green_Plus_Chess_2.jpg,Red_Plus_Dots_3.jpg,Purple_Circle_Grid_2.jpg,right,936.2599999876693,true,low,NA,NA,NA,NA,NA,NA,NA,false
k6ImmmCQ,3e9vauv7czrnvucm8noapw1mqoqyaq,3tpzplc3m4pvpfjuznijehqv30z3p3,k6ImmmCQ,2020-0188,2020-06-04,09:38:55,10:01:07,NA,incomplete,20,number,0,1,left,Blue_Star_Chess_4.jpg,Red_Circle_Stripes_4.jpg,Green_Star_Grid_1.jpg,left,816.6999999666587,true,low,NA,NA,NA,NA,NA,NA,NA,false
k6ImmmCQ,3e9vauv7czrnvucm8noapw1mqoqyaq,3tpzplc3m4pvpfjuznijehqv30z3p3,k6ImmmCQ,2020-0188,2020-06-04,09:38:55,10:01:07,NA,incomplete,21,number,0,1,right,Green_Circle_Chess_2.jpg,Blue_Circle_Stripes_3.jpg,Purple_Triangle_Grid_2.jpg,right,814.3550000386313,true,low,NA,NA,NA,NA,NA,NA,NA,false
k6ImmmCQ,3e9vauv7czrnvucm8noapw1mqoqyaq,3tpzplc3m4pvpfjuznijehqv30z3p3,k6ImmmCQ,2020-0188,2020-06-04,09:38:55,10:01:07,NA,incomplete,22,number,0,1,right,Blue_Triangle_Dots_1.jpg,Purple_Triangle_Chess_2.jpg,Red_Plus_Grid_1.jpg,right,914.5299999509007,true,low,NA,NA,NA,NA,NA,NA,NA,false
k6ImmmCQ,3e9vauv7czrnvucm8noapw1mqoqyaq,3tpzplc3m4pvpfjuznijehqv30z3p3,k6ImmmCQ,2020-0188,2020-06-04,09:38:55,10:01:07,NA,incomplete,23,number,0,1,right,Blue_Circle_Dots_4.jpg,Green_Circle_Chess_3.jpg,Red_Triangle_Grid_4.jpg,right,965.5199999688193,true,low,NA,NA,NA,NA,NA,NA,NA,false
k6ImmmCQ,3e9vauv7czrnvucm8noapw1mqoqyaq,3tpzplc3m4pvpfjuznijehqv30z3p3,k6ImmmCQ,2020-0188,2020-06-04,09:38:55,10:01:07,NA,incomplete,24,number,0,1,right,Green_Star_Chess_4.jpg,Red_Star_Dots_3.jpg,Blue_Plus_Grid_4.jpg,right,1116.3849999429658,true,low,NA,NA,NA,NA,NA,NA,NA,false
k6ImmmCQ,3e9vauv7czrnvucm8noapw1mqoqyaq,3tpzplc3m4pvpfjuznijehqv30z3p3,k6ImmmCQ,2020-0188,2020-06-04,09:38:55,10:01:07,NA,incomplete,25,number,0,1,right,Red_Triangle_Dots_2.jpg,Green_Triangle_Stripes_3.jpg,Purple_Star_Chess_2.jpg,right,968.1050000945106,true,low,NA,NA,NA,NA,NA,NA,NA,false
k6ImmmCQ,3e9vauv7czrnvucm8noapw1mqoqyaq,3tpzplc3m4pvpfjuznijehqv30z3p3,k6ImmmCQ,2020-0188,2020-06-04,09:38:55,10:01:07,NA,incomplete,26,number,0,1,left,Blue_Star_Stripes_3.jpg,Purple_Circle_Dots_3.jpg,Red_Star_Chess_1.jpg,left,1040.485000004992,true,low,NA,NA,NA,NA,NA,NA,NA,false
k6ImmmCQ,3e9vauv7czrnvucm8noapw1mqoqyaq,3tpzplc3m4pvpfjuznijehqv30z3p3,k6ImmmCQ,2020-0188,2020-06-04,09:38:55,10:01:07,NA,incomplete,27,number,0,1,left,Purple_Plus_Dots_2.jpg,Red_Star_Chess_2.jpg,Blue_Plus_Stripes_1.jpg,left,1050.1299999887124,true,low,NA,NA,NA,NA,NA,NA,NA,false
k6ImmmCQ,3e9vauv7czrnvucm8noapw1mqoqyaq,3tpzplc3m4pvpfjuznijehqv30z3p3,k6ImmmCQ,2020-0188,2020-06-04,09:38:55,10:01:07,NA,incomplete,28,number,0,1,right,Red_Triangle_Dots_4.jpg,Blue_Triangle_Grid_1.jpg,Green_Circle_Chess_4.jpg,right,1094.039999996312,true,low,NA,NA,NA,NA,NA,NA,NA,false
k6ImmmCQ,3e9vauv7czrnvucm8noapw1mqoqyaq,3tpzplc3m4pvpfjuznijehqv30z3p3,k6ImmmCQ,2020-0188,2020-06-04,09:38:55,10:01:07,NA,incomplete,29,number,0,1,left,Red_Circle_Dots_2.jpg,Green_Triangle_Stripes_2.jpg,Purple_Circle_Grid_1.jpg,left,858.1700000213459,true,low,NA,NA,NA,NA,NA,NA,NA,false
k6ImmmCQ,3e9vauv7czrnvucm8noapw1mqoqyaq,3tpzplc3m4pvpfjuznijehqv30z3p3,k6ImmmCQ,2020-0188,2020-06-04,09:38:55,10:01:07,NA,incomplete,30,shape,1,1,left,Red_Circle_Dots_4.jpg,Green_Circle_Stripes_1.jpg,Purple_Star_Grid_4.jpg,right,788.9449999202043,false,low,NA,NA,NA,NA,NA,NA,NA,false
k6ImmmCQ,3e9vauv7czrnvucm8noapw1mqoqyaq,3tpzplc3m4pvpfjuznijehqv30z3p3,k6ImmmCQ,2020-0188,2020-06-04,09:38:55,10:01:07,NA,incomplete,31,shape,1,1,left,Red_Circle_Grid_1.jpg,Blue_Circle_Stripes_4.jpg,Green_Star_Dots_1.jpg,right,915.2600000379607,false,low,NA,NA,NA,NA,NA,NA,NA,false
k6ImmmCQ,3e9vauv7czrnvucm8noapw1mqoqyaq,3tpzplc3m4pvpfjuznijehqv30z3p3,k6ImmmCQ,2020-0188,2020-06-04,09:38:55,10:01:07,NA,incomplete,32,shape,1,1,right,Purple_Circle_Stripes_4.jpg,Red_Plus_Chess_4.jpg,Blue_Circle_Dots_1.jpg,left,1027.379999984987,false,low,NA,NA,NA,NA,NA,NA,NA,false
k6ImmmCQ,3e9vauv7czrnvucm8noapw1mqoqyaq,3tpzplc3m4pvpfjuznijehqv30z3p3,k6ImmmCQ,2020-0188,2020-06-04,09:38:55,10:01:07,NA,incomplete,33,shape,1,1,right,Green_Circle_Chess_3.jpg,Purple_Plus_Dots_3.jpg,Blue_Circle_Stripes_2.jpg,right,1049.0099999587983,true,low,NA,NA,NA,NA,NA,NA,NA,false
k6ImmmCQ,3e9vauv7czrnvucm8noapw1mqoqyaq,3tpzplc3m4pvpfjuznijehqv30z3p3,k6ImmmCQ,2020-0188,2020-06-04,09:38:55,10:01:07,NA,incomplete,34,shape,1,1,left,Blue_Star_Chess_3.jpg,Purple_Star_Dots_2.jpg,Green_Plus_Grid_3.jpg,left,910.3950000135228,true,low,NA,NA,NA,NA,NA,NA,NA,false
k6ImmmCQ,3e9vauv7czrnvucm8noapw1mqoqyaq,3tpzplc3m4pvpfjuznijehqv30z3p3,k6ImmmCQ,2020-0188,2020-06-04,09:38:55,10:01:07,NA,incomplete,35,shape,1,0,left,Green_Triangle_Grid_1.jpg,Blue_Triangle_Chess_4.jpg,Purple_Circle_Dots_1.jpg,left,1351.3050000183284,true,low,NA,NA,NA,NA,NA,NA,NA,false
k6ImmmCQ,3e9vauv7czrnvucm8noapw1mqoqyaq,3tpzplc3m4pvpfjuznijehqv30z3p3,k6ImmmCQ,2020-0188,2020-06-04,09:38:55,10:01:07,NA,incomplete,36,shape,1,1,right,Purple_Plus_Dots_2.jpg,Blue_Circle_Chess_2.jpg,Green_Plus_Stripes_1.jpg,right,1366.8849999085069,true,low,NA,NA,NA,NA,NA,NA,NA,false
k6ImmmCQ,3e9vauv7czrnvucm8noapw1mqoqyaq,3tpzplc3m4pvpfjuznijehqv30z3p3,k6ImmmCQ,2020-0188,2020-06-04,09:38:55,10:01:07,NA,incomplete,37,shape,1,0,left,Blue_Star_Dots_1.jpg,Green_Star_Stripes_2.jpg,Purple_Plus_Chess_1.jpg,left,927.254999987781,true,low,NA,NA,NA,NA,NA,NA,NA,false
k6ImmmCQ,3e9vauv7czrnvucm8noapw1mqoqyaq,3tpzplc3m4pvpfjuznijehqv30z3p3,k6ImmmCQ,2020-0188,2020-06-04,09:38:55,10:01:07,NA,incomplete,38,shape,1,1,left,Green_Triangle_Stripes_1.jpg,Blue_Triangle_Dots_2.jpg,Purple_Star_Chess_1.jpg,left,1023.9350000629202,true,low,NA,NA,NA,NA,NA,NA,NA,false
k6ImmmCQ,3e9vauv7czrnvucm8noapw1mqoqyaq,3tpzplc3m4pvpfjuznijehqv30z3p3,k6ImmmCQ,2020-0188,2020-06-04,09:38:55,10:01:07,NA,incomplete,39,shape,1,1,right,Purple_Plus_Grid_3.jpg,Blue_Circle_Chess_3.jpg,Green_Plus_Stripes_2.jpg,right,1261.4300000714138,true,low,NA,NA,NA,NA,NA,NA,NA,false
k6ImmmCQ,3e9vauv7czrnvucm8noapw1mqoqyaq,3tpzplc3m4pvpfjuznijehqv30z3p3,k6ImmmCQ,2020-0188,2020-06-04,09:38:55,10:01:07,NA,incomplete,40,shape,1,1,right,Blue_Triangle_Grid_3.jpg,Green_Star_Dots_3.jpg,Purple_Triangle_Stripes_4.jpg,right,1639.9949999758974,true,low,NA,NA,NA,NA,NA,NA,NA,false
k6ImmmCQ,3e9vauv7czrnvucm8noapw1mqoqyaq,3tpzplc3m4pvpfjuznijehqv30z3p3,k6ImmmCQ,2020-0188,2020-06-04,09:38:55,10:01:07,NA,incomplete,41,shape,1,1,right,Green_Circle_Stripes_1.jpg,Blue_Triangle_Chess_1.jpg,Red_Circle_Dots_2.jpg,right,1005.5249999277294,true,low,NA,NA,NA,NA,NA,NA,NA,false
k6ImmmCQ,3e9vauv7czrnvucm8noapw1mqoqyaq,3tpzplc3m4pvpfjuznijehqv30z3p3,k6ImmmCQ,2020-0188,2020-06-04,09:38:55,10:01:07,NA,incomplete,42,shape,1,1,left,Red_Triangle_Chess_4.jpg,Purple_Triangle_Grid_3.jpg,Green_Star_Dots_4.jpg,left,859.1399999568239,true,low,NA,NA,NA,NA,NA,NA,NA,false
k6ImmmCQ,3e9vauv7czrnvucm8noapw1mqoqyaq,3tpzplc3m4pvpfjuznijehqv30z3p3,k6ImmmCQ,2020-0188,2020-06-04,09:38:55,10:01:07,NA,incomplete,43,shape,1,1,left,Red_Triangle_Stripes_3.jpg,Green_Triangle_Chess_2.jpg,Purple_Star_Grid_3.jpg,left,904.8099999781698,true,low,NA,NA,NA,NA,NA,NA,NA,false
k6ImmmCQ,3e9vauv7czrnvucm8noapw1mqoqyaq,3tpzplc3m4pvpfjuznijehqv30z3p3,k6ImmmCQ,2020-0188,2020-06-04,09:38:55,10:01:07,NA,incomplete,44,shape,1,1,right,Blue_Star_Chess_2.jpg,Green_Circle_Grid_2.jpg,Red_Star_Dots_4.jpg,right,1065.2800000971183,true,low,NA,NA,NA,NA,NA,NA,NA,false
k6ImmmCQ,3e9vauv7czrnvucm8noapw1mqoqyaq,3tpzplc3m4pvpfjuznijehqv30z3p3,k6ImmmCQ,2020-0188,2020-06-04,09:38:55,10:01:07,NA,incomplete,45,shape,1,1,left,Purple_Triangle_Stripes_4.jpg,Blue_Triangle_Chess_3.jpg,Red_Circle_Grid_4.jpg,left,884.6949998987839,true,low,NA,NA,NA,NA,NA,NA,NA,false
k6ImmmCQ,3e9vauv7czrnvucm8noapw1mqoqyaq,3tpzplc3m4pvpfjuznijehqv30z3p3,k6ImmmCQ,2020-0188,2020-06-04,09:38:55,10:01:07,NA,incomplete,46,shape,1,1,left,Red_Circle_Dots_1.jpg,Purple_Circle_Grid_3.jpg,Green_Star_Stripes_1.jpg,left,1030.4100000066683,true,low,NA,NA,NA,NA,NA,NA,NA,false
k6ImmmCQ,3e9vauv7czrnvucm8noapw1mqoqyaq,3tpzplc3m4pvpfjuznijehqv30z3p3,k6ImmmCQ,2020-0188,2020-06-04,09:38:55,10:01:07,NA,incomplete,47,shape,1,0,right,Green_Circle_Stripes_1.jpg,Blue_Triangle_Chess_1.jpg,Red_Circle_Dots_3.jpg,right,867.7599999355152,true,low,NA,NA,NA,NA,NA,NA,NA,false
k6ImmmCQ,3e9vauv7czrnvucm8noapw1mqoqyaq,3tpzplc3m4pvpfjuznijehqv30z3p3,k6ImmmCQ,2020-0188,2020-06-04,09:38:55,10:01:07,NA,incomplete,48,shape,1,1,left,Purple_Circle_Stripes_1.jpg,Red_Circle_Grid_2.jpg,Green_Plus_Dots_1.jpg,left,952.2300000535324,true,low,NA,NA,NA,NA,NA,NA,NA,false
k6ImmmCQ,3e9vauv7czrnvucm8noapw1mqoqyaq,3tpzplc3m4pvpfjuznijehqv30z3p3,k6ImmmCQ,2020-0188,2020-06-04,09:38:55,10:01:07,NA,incomplete,49,shape,1,1,left,Red_Star_Dots_3.jpg,Green_Star_Grid_2.jpg,Blue_Plus_Stripes_3.jpg,left,1190.2249999111518,true,low,NA,NA,NA,NA,NA,NA,NA,false
k6ImmmCQ,3e9vauv7czrnvucm8noapw1mqoqyaq,3tpzplc3m4pvpfjuznijehqv30z3p3,k6ImmmCQ,2020-0188,2020-06-04,09:38:55,10:01:07,NA,incomplete,50,shape,1,1,right,Red_Star_Stripes_4.jpg,Blue_Plus_Chess_4.jpg,Purple_Star_Grid_1.jpg,right,1139.7949999663979,true,low,NA,NA,NA,NA,NA,NA,NA,false
k6ImmmCQ,3e9vauv7czrnvucm8noapw1mqoqyaq,3tpzplc3m4pvpfjuznijehqv30z3p3,k6ImmmCQ,2020-0188,2020-06-04,09:38:55,10:01:07,NA,incomplete,51,shape,1,1,left,Green_Circle_Stripes_4.jpg,Red_Circle_Grid_2.jpg,Blue_Triangle_Chess_4.jpg,left,772.7899999590591,true,low,NA,NA,NA,NA,NA,NA,NA,false
k6ImmmCQ,3e9vauv7czrnvucm8noapw1mqoqyaq,3tpzplc3m4pvpfjuznijehqv30z3p3,k6ImmmCQ,2020-0188,2020-06-04,09:38:55,10:01:07,NA,incomplete,52,shape,1,0,left,Purple_Plus_Chess_1.jpg,Red_Plus_Stripes_3.jpg,Green_Star_Dots_1.jpg,left,835.4250000556931,true,low,NA,NA,NA,NA,NA,NA,NA,false
k6ImmmCQ,3e9vauv7czrnvucm8noapw1mqoqyaq,3tpzplc3m4pvpfjuznijehqv30z3p3,k6ImmmCQ,2020-0188,2020-06-04,09:38:55,10:01:07,NA,incomplete,53,shape,1,1,left,Purple_Star_Chess_1.jpg,Red_Star_Dots_4.jpg,Green_Circle_Grid_1.jpg,left,992.1900000190362,true,low,NA,NA,NA,NA,NA,NA,NA,false
k6ImmmCQ,3e9vauv7czrnvucm8noapw1mqoqyaq,3tpzplc3m4pvpfjuznijehqv30z3p3,k6ImmmCQ,2020-0188,2020-06-04,09:38:55,10:01:07,NA,incomplete,54,shape,1,1,left,Red_Triangle_Stripes_4.jpg,Purple_Triangle_Grid_2.jpg,Green_Plus_Chess_4.jpg,left,966.6549999965355,true,low,NA,NA,NA,NA,NA,NA,NA,false
k6ImmmCQ,3e9vauv7czrnvucm8noapw1mqoqyaq,3tpzplc3m4pvpfjuznijehqv30z3p3,k6ImmmCQ,2020-0188,2020-06-04,09:38:55,10:01:07,NA,incomplete,55,shape,1,1,right,Purple_Star_Grid_3.jpg,Blue_Plus_Chess_3.jpg,Green_Star_Dots_4.jpg,right,981.6900000441819,true,low,NA,NA,NA,NA,NA,NA,NA,false
k6ImmmCQ,3e9vauv7czrnvucm8noapw1mqoqyaq,3tpzplc3m4pvpfjuznijehqv30z3p3,k6ImmmCQ,2020-0188,2020-06-04,09:38:55,10:01:07,NA,incomplete,56,shape,1,1,right,Blue_Plus_Dots_1.jpg,Green_Star_Chess_1.jpg,Red_Plus_Grid_2.jpg,right,868.8899999251589,true,low,NA,NA,NA,NA,NA,NA,NA,false
k6ImmmCQ,3e9vauv7czrnvucm8noapw1mqoqyaq,3tpzplc3m4pvpfjuznijehqv30z3p3,k6ImmmCQ,2020-0188,2020-06-04,09:38:55,10:01:07,NA,incomplete,57,shape,1,1,right,Blue_Star_Chess_4.jpg,Purple_Circle_Grid_4.jpg,Red_Star_Dots_2.jpg,right,927.3950000060722,true,low,NA,NA,NA,NA,NA,NA,NA,false
k6ImmmCQ,3e9vauv7czrnvucm8noapw1mqoqyaq,3tpzplc3m4pvpfjuznijehqv30z3p3,k6ImmmCQ,2020-0188,2020-06-04,09:38:55,10:01:07,NA,incomplete,58,shape,1,0,left,Red_Plus_Dots_1.jpg,Purple_Plus_Grid_2.jpg,Green_Star_Stripes_1.jpg,left,847.5750000216067,true,low,NA,NA,NA,NA,NA,NA,NA,false
k6ImmmCQ,3e9vauv7czrnvucm8noapw1mqoqyaq,3tpzplc3m4pvpfjuznijehqv30z3p3,k6ImmmCQ,2020-0188,2020-06-04,09:38:55,10:01:07,NA,incomplete,59,shape,1,1,left,Red_Star_Stripes_1.jpg,Green_Star_Dots_2.jpg,Purple_Plus_Grid_1.jpg,left,972.9300000471994,true,low,NA,NA,NA,NA,NA,NA,NA,false
k6ImmmCQ,3e9vauv7czrnvucm8noapw1mqoqyaq,3tpzplc3m4pvpfjuznijehqv30z3p3,k6ImmmCQ,2020-0188,2020-06-04,09:38:55,10:01:07,NA,incomplete,60,number,0,1,right,Purple_Circle_Grid_2.jpg,Green_Circle_Dots_3.jpg,Red_Triangle_Stripes_2.jpg,left,923.6500000115484,false,low,NA,NA,NA,NA,NA,NA,NA,false
k6ImmmCQ,3e9vauv7czrnvucm8noapw1mqoqyaq,3tpzplc3m4pvpfjuznijehqv30z3p3,k6ImmmCQ,2020-0188,2020-06-04,09:38:55,10:01:07,NA,incomplete,61,number,0,1,left,Purple_Star_Stripes_4.jpg,Blue_Circle_Chess_4.jpg,Red_Star_Grid_2.jpg,right,909.0050000231713,false,low,NA,NA,NA,NA,NA,NA,NA,false
k6ImmmCQ,3e9vauv7czrnvucm8noapw1mqoqyaq,3tpzplc3m4pvpfjuznijehqv30z3p3,k6ImmmCQ,2020-0188,2020-06-04,09:38:55,10:01:07,NA,incomplete,62,number,0,1,left,Purple_Plus_Chess_1.jpg,Green_Circle_Dots_1.jpg,Blue_Plus_Grid_4.jpg,left,1918.7000000383705,true,low,NA,NA,NA,NA,NA,NA,NA,false
k6ImmmCQ,3e9vauv7czrnvucm8noapw1mqoqyaq,3tpzplc3m4pvpfjuznijehqv30z3p3,k6ImmmCQ,2020-0188,2020-06-04,09:38:55,10:01:07,NA,incomplete,63,number,0,0,right,Red_Star_Stripes_2.jpg,Purple_Star_Dots_4.jpg,Green_Plus_Grid_2.jpg,right,1120.2849999535829,true,low,NA,NA,NA,NA,NA,NA,NA,false
k6ImmmCQ,3e9vauv7czrnvucm8noapw1mqoqyaq,3tpzplc3m4pvpfjuznijehqv30z3p3,k6ImmmCQ,2020-0188,2020-06-04,09:38:55,10:01:07,NA,incomplete,64,number,0,1,right,Blue_Plus_Dots_3.jpg,Purple_Plus_Chess_2.jpg,Red_Triangle_Grid_3.jpg,none,0,false,low,NA,NA,NA,NA,NA,NA,NA,false
k6ImmmCQ,3e9vauv7czrnvucm8noapw1mqoqyaq,3tpzplc3m4pvpfjuznijehqv30z3p3,k6ImmmCQ,2020-0188,2020-06-04,09:38:55,10:01:07,NA,incomplete,65,number,0,1,left,Red_Plus_Stripes_1.jpg,Green_Triangle_Grid_1.jpg,Blue_Plus_Chess_2.jpg,left,1256.4049999928102,true,low,NA,NA,NA,NA,NA,NA,NA,false
k6ImmmCQ,3e9vauv7czrnvucm8noapw1mqoqyaq,3tpzplc3m4pvpfjuznijehqv30z3p3,k6ImmmCQ,2020-0188,2020-06-04,09:38:55,10:01:07,NA,incomplete,66,number,0,1,right,Purple_Plus_Dots_3.jpg,Red_Plus_Stripes_1.jpg,Blue_Circle_Grid_3.jpg,right,796.6299999970943,true,low,NA,NA,NA,NA,NA,NA,NA,false
k6ImmmCQ,3e9vauv7czrnvucm8noapw1mqoqyaq,3tpzplc3m4pvpfjuznijehqv30z3p3,k6ImmmCQ,2020-0188,2020-06-04,09:38:55,10:01:07,NA,incomplete,67,number,0,1,right,Green_Circle_Dots_4.jpg,Purple_Circle_Chess_1.jpg,Red_Star_Grid_4.jpg,right,745.9550000494346,true,low,NA,NA,NA,NA,NA,NA,NA,false
k6ImmmCQ,3e9vauv7czrnvucm8noapw1mqoqyaq,3tpzplc3m4pvpfjuznijehqv30z3p3,k6ImmmCQ,2020-0188,2020-06-04,09:38:55,10:01:07,NA,incomplete,68,number,0,1,left,Purple_Plus_Grid_2.jpg,Blue_Circle_Dots_2.jpg,Green_Plus_Chess_1.jpg,left,842.1249999664724,true,low,NA,NA,NA,NA,NA,NA,NA,false
k6ImmmCQ,3e9vauv7czrnvucm8noapw1mqoqyaq,3tpzplc3m4pvpfjuznijehqv30z3p3,k6ImmmCQ,2020-0188,2020-06-04,09:38:55,10:01:07,NA,incomplete,69,number,0,0,left,Green_Plus_Chess_4.jpg,Blue_Star_Stripes_4.jpg,Purple_Plus_Dots_2.jpg,left,751.3599999947473,true,low,NA,NA,NA,NA,NA,NA,NA,false
k6ImmmCQ,3e9vauv7czrnvucm8noapw1mqoqyaq,3tpzplc3m4pvpfjuznijehqv30z3p3,k6ImmmCQ,2020-0188,2020-06-04,09:38:55,10:01:07,NA,incomplete,70,number,0,1,right,Red_Triangle_Chess_2.jpg,Purple_Triangle_Stripes_4.jpg,Blue_Star_Grid_2.jpg,right,830.7200000854209,true,low,NA,NA,NA,NA,NA,NA,NA,false
k6ImmmCQ,3e9vauv7czrnvucm8noapw1mqoqyaq,3tpzplc3m4pvpfjuznijehqv30z3p3,k6ImmmCQ,2020-0188,2020-06-04,09:38:55,10:01:07,NA,incomplete,71,number,0,0,right,Red_Plus_Grid_4.jpg,Purple_Plus_Chess_3.jpg,Blue_Triangle_Stripes_4.jpg,right,957.0099998963997,true,low,NA,NA,NA,NA,NA,NA,NA,false
k6ImmmCQ,3e9vauv7czrnvucm8noapw1mqoqyaq,3tpzplc3m4pvpfjuznijehqv30z3p3,k6ImmmCQ,2020-0188,2020-06-04,09:38:55,10:01:07,NA,incomplete,72,number,0,1,right,Green_Plus_Stripes_4.jpg,Red_Plus_Chess_2.jpg,Blue_Star_Grid_4.jpg,right,891.0299999406561,true,low,NA,NA,NA,NA,NA,NA,NA,false
k6ImmmCQ,3e9vauv7czrnvucm8noapw1mqoqyaq,3tpzplc3m4pvpfjuznijehqv30z3p3,k6ImmmCQ,2020-0188,2020-06-04,09:38:55,10:01:07,NA,incomplete,73,number,0,1,left,Purple_Circle_Dots_4.jpg,Blue_Triangle_Grid_4.jpg,Red_Circle_Stripes_2.jpg,left,924.959999974817,true,low,NA,NA,NA,NA,NA,NA,NA,false
k6ImmmCQ,3e9vauv7czrnvucm8noapw1mqoqyaq,3tpzplc3m4pvpfjuznijehqv30z3p3,k6ImmmCQ,2020-0188,2020-06-04,09:38:55,10:01:07,NA,incomplete,74,number,0,1,left,Green_Triangle_Stripes_4.jpg,Blue_Plus_Chess_4.jpg,Purple_Triangle_Grid_1.jpg,left,774.3049999698997,true,low,NA,NA,NA,NA,NA,NA,NA,false
k6ImmmCQ,3e9vauv7czrnvucm8noapw1mqoqyaq,3tpzplc3m4pvpfjuznijehqv30z3p3,k6ImmmCQ,2020-0188,2020-06-04,09:38:55,10:01:07,NA,incomplete,75,number,0,1,left,Red_Star_Stripes_4.jpg,Green_Triangle_Chess_4.jpg,Purple_Star_Grid_3.jpg,left,733.2600000081584,true,low,NA,NA,NA,NA,NA,NA,NA,false
k6ImmmCQ,3e9vauv7czrnvucm8noapw1mqoqyaq,3tpzplc3m4pvpfjuznijehqv30z3p3,k6ImmmCQ,2020-0188,2020-06-04,09:38:55,10:01:07,NA,incomplete,76,number,0,1,right,Red_Plus_Grid_4.jpg,Green_Plus_Stripes_3.jpg,Blue_Star_Chess_4.jpg,right,1031.8549999501556,true,low,NA,NA,NA,NA,NA,NA,NA,false
k6ImmmCQ,3e9vauv7czrnvucm8noapw1mqoqyaq,3tpzplc3m4pvpfjuznijehqv30z3p3,k6ImmmCQ,2020-0188,2020-06-04,09:38:55,10:01:07,NA,incomplete,77,number,0,1,right,Green_Circle_Dots_3.jpg,Red_Circle_Stripes_4.jpg,Purple_Triangle_Chess_3.jpg,right,826.8950000638142,true,low,NA,NA,NA,NA,NA,NA,NA,false
k6ImmmCQ,3e9vauv7czrnvucm8noapw1mqoqyaq,3tpzplc3m4pvpfjuznijehqv30z3p3,k6ImmmCQ,2020-0188,2020-06-04,09:38:55,10:01:07,NA,incomplete,78,number,0,1,left,Purple_Circle_Stripes_3.jpg,Red_Triangle_Dots_3.jpg,Blue_Circle_Chess_4.jpg,left,720.0799999991432,true,low,NA,NA,NA,NA,NA,NA,NA,false
k6ImmmCQ,3e9vauv7czrnvucm8noapw1mqoqyaq,3tpzplc3m4pvpfjuznijehqv30z3p3,k6ImmmCQ,2020-0188,2020-06-04,09:38:55,10:01:07,NA,incomplete,79,number,0,1,left,Purple_Circle_Grid_1.jpg,Blue_Star_Stripes_1.jpg,Green_Circle_Dots_3.jpg,left,671.6000000014901,true,low,NA,NA,NA,NA,NA,NA,NA,false
k6ImmmCQ,3e9vauv7czrnvucm8noapw1mqoqyaq,3tpzplc3m4pvpfjuznijehqv30z3p3,k6ImmmCQ,2020-0188,2020-06-04,09:38:55,10:01:07,NA,incomplete,80,number,0,0,right,Green_Plus_Grid_2.jpg,Purple_Plus_Chess_1.jpg,Blue_Star_Stripes_2.jpg,right,810.5900000082329,true,low,NA,NA,NA,NA,NA,NA,NA,false
k6ImmmCQ,3e9vauv7czrnvucm8noapw1mqoqyaq,3tpzplc3m4pvpfjuznijehqv30z3p3,k6ImmmCQ,2020-0188,2020-06-04,09:38:55,10:01:07,NA,incomplete,81,number,0,1,right,Blue_Plus_Grid_3.jpg,Purple_Plus_Stripes_1.jpg,Green_Circle_Chess_3.jpg,right,657.9200000269338,true,low,NA,NA,NA,NA,NA,NA,NA,false
k6ImmmCQ,3e9vauv7czrnvucm8noapw1mqoqyaq,3tpzplc3m4pvpfjuznijehqv30z3p3,k6ImmmCQ,2020-0188,2020-06-04,09:38:55,10:01:07,NA,incomplete,82,number,0,1,left,Purple_Plus_Grid_1.jpg,Green_Circle_Stripes_1.jpg,Blue_Plus_Dots_2.jpg,left,580.7999999960884,true,low,NA,NA,NA,NA,NA,NA,NA,false
k6ImmmCQ,3e9vauv7czrnvucm8noapw1mqoqyaq,3tpzplc3m4pvpfjuznijehqv30z3p3,k6ImmmCQ,2020-0188,2020-06-04,09:38:55,10:01:07,NA,incomplete,83,number,0,0,left,Green_Star_Stripes_3.jpg,Blue_Triangle_Grid_3.jpg,Red_Star_Chess_4.jpg,left,748.0900000082329,true,low,NA,NA,NA,NA,NA,NA,NA,false
k6ImmmCQ,3e9vauv7czrnvucm8noapw1mqoqyaq,3tpzplc3m4pvpfjuznijehqv30z3p3,k6ImmmCQ,2020-0188,2020-06-04,09:38:55,10:01:07,NA,incomplete,84,number,0,1,left,Red_Triangle_Dots_1.jpg,Purple_Star_Chess_1.jpg,Green_Triangle_Grid_4.jpg,left,651.2749999528751,true,low,NA,NA,NA,NA,NA,NA,NA,false
k6ImmmCQ,3e9vauv7czrnvucm8noapw1mqoqyaq,3tpzplc3m4pvpfjuznijehqv30z3p3,k6ImmmCQ,2020-0188,2020-06-04,09:38:55,10:01:07,NA,incomplete,85,number,0,1,right,Green_Circle_Grid_2.jpg,Red_Circle_Dots_3.jpg,Blue_Plus_Stripes_2.jpg,right,790.2049999684095,true,low,NA,NA,NA,NA,NA,NA,NA,false
k6ImmmCQ,3e9vauv7czrnvucm8noapw1mqoqyaq,3tpzplc3m4pvpfjuznijehqv30z3p3,k6ImmmCQ,2020-0188,2020-06-04,09:38:55,10:01:07,NA,incomplete,86,number,0,1,right,Green_Circle_Dots_4.jpg,Red_Circle_Chess_2.jpg,Purple_Star_Stripes_4.jpg,right,733.9550000615418,true,low,NA,NA,NA,NA,NA,NA,NA,false
k6ImmmCQ,3e9vauv7czrnvucm8noapw1mqoqyaq,3tpzplc3m4pvpfjuznijehqv30z3p3,k6ImmmCQ,2020-0188,2020-06-04,09:38:55,10:01:07,NA,incomplete,87,number,0,1,right,Purple_Circle_Chess_4.jpg,Blue_Circle_Dots_2.jpg,Red_Triangle_Stripes_4.jpg,right,644.9649999849498,true,low,NA,NA,NA,NA,NA,NA,NA,false
k6ImmmCQ,3e9vauv7czrnvucm8noapw1mqoqyaq,3tpzplc3m4pvpfjuznijehqv30z3p3,k6ImmmCQ,2020-0188,2020-06-04,09:38:55,10:01:07,NA,incomplete,88,number,0,0,right,Green_Plus_Grid_3.jpg,Purple_Plus_Stripes_1.jpg,Red_Circle_Dots_3.jpg,right,776.9349999725819,true,low,NA,NA,NA,NA,NA,NA,NA,false
k6ImmmCQ,3e9vauv7czrnvucm8noapw1mqoqyaq,3tpzplc3m4pvpfjuznijehqv30z3p3,k6ImmmCQ,2020-0188,2020-06-04,09:38:55,10:01:07,NA,incomplete,89,number,0,1,right,Blue_Circle_Dots_4.jpg,Red_Circle_Grid_3.jpg,Purple_Plus_Stripes_4.jpg,right,776.7899999162182,true,low,NA,NA,NA,NA,NA,NA,NA,false
k6ImmmCQ,3e9vauv7czrnvucm8noapw1mqoqyaq,3tpzplc3m4pvpfjuznijehqv30z3p3,k6ImmmCQ,2020-0188,2020-06-04,09:38:55,10:01:07,NA,incomplete,90,shape,1,1,left,Purple_Star_Stripes_3.jpg,Red_Star_Grid_1.jpg,Blue_Circle_Dots_3.jpg,right,703.7100000306964,false,low,NA,NA,NA,NA,NA,NA,NA,false
k6ImmmCQ,3e9vauv7czrnvucm8noapw1mqoqyaq,3tpzplc3m4pvpfjuznijehqv30z3p3,k6ImmmCQ,2020-0188,2020-06-04,09:38:55,10:01:07,NA,incomplete,91,shape,1,1,right,Red_Circle_Grid_4.jpg,Green_Star_Stripes_4.jpg,Blue_Circle_Dots_3.jpg,left,777.364999987185,false,low,NA,NA,NA,NA,NA,NA,NA,false
k6ImmmCQ,3e9vauv7czrnvucm8noapw1mqoqyaq,3tpzplc3m4pvpfjuznijehqv30z3p3,k6ImmmCQ,2020-0188,2020-06-04,09:38:55,10:01:07,NA,incomplete,92,shape,1,1,right,Purple_Plus_Dots_3.jpg,Red_Triangle_Chess_3.jpg,Blue_Plus_Stripes_4.jpg,right,855.7300000684336,true,low,NA,NA,NA,NA,NA,NA,NA,false
k6ImmmCQ,3e9vauv7czrnvucm8noapw1mqoqyaq,3tpzplc3m4pvpfjuznijehqv30z3p3,k6ImmmCQ,2020-0188,2020-06-04,09:38:55,10:01:07,NA,incomplete,93,shape,1,1,right,Red_Star_Grid_4.jpg,Green_Plus_Chess_4.jpg,Purple_Star_Stripes_1.jpg,right,795.9650000557303,true,low,NA,NA,NA,NA,NA,NA,NA,false
k6ImmmCQ,3e9vauv7czrnvucm8noapw1mqoqyaq,3tpzplc3m4pvpfjuznijehqv30z3p3,k6ImmmCQ,2020-0188,2020-06-04,09:38:55,10:01:07,NA,incomplete,94,shape,1,1,left,Red_Plus_Grid_4.jpg,Purple_Plus_Stripes_2.jpg,Blue_Triangle_Dots_4.jpg,left,753.1099999323487,true,low,NA,NA,NA,NA,NA,NA,NA,false
k6ImmmCQ,3e9vauv7czrnvucm8noapw1mqoqyaq,3tpzplc3m4pvpfjuznijehqv30z3p3,k6ImmmCQ,2020-0188,2020-06-04,09:38:55,10:01:07,NA,incomplete,95,shape,1,1,left,Blue_Plus_Dots_1.jpg,Purple_Plus_Grid_2.jpg,Red_Star_Chess_1.jpg,left,833.394999965094,true,low,NA,NA,NA,NA,NA,NA,NA,false
k6ImmmCQ,3e9vauv7czrnvucm8noapw1mqoqyaq,3tpzplc3m4pvpfjuznijehqv30z3p3,k6ImmmCQ,2020-0188,2020-06-04,09:38:55,10:01:07,NA,incomplete,96,shape,1,1,right,Purple_Plus_Grid_3.jpg,Red_Star_Dots_3.jpg,Blue_Plus_Stripes_1.jpg,right,678.5150000359863,true,low,NA,NA,NA,NA,NA,NA,NA,false
k6ImmmCQ,3e9vauv7czrnvucm8noapw1mqoqyaq,3tpzplc3m4pvpfjuznijehqv30z3p3,k6ImmmCQ,2020-0188,2020-06-04,09:38:55,10:01:07,NA,incomplete,97,shape,1,0,right,Purple_Triangle_Grid_1.jpg,Blue_Circle_Chess_1.jpg,Red_Triangle_Stripes_2.jpg,right,680.2499999757856,true,low,NA,NA,NA,NA,NA,NA,NA,false
k6ImmmCQ,3e9vauv7czrnvucm8noapw1mqoqyaq,3tpzplc3m4pvpfjuznijehqv30z3p3,k6ImmmCQ,2020-0188,2020-06-04,09:38:55,10:01:07,NA,incomplete,98,shape,1,1,left,Blue_Star_Stripes_1.jpg,Purple_Star_Grid_4.jpg,Red_Plus_Chess_1.jpg,left,626.964999944903,true,low,NA,NA,NA,NA,NA,NA,NA,false
k6ImmmCQ,3e9vauv7czrnvucm8noapw1mqoqyaq,3tpzplc3m4pvpfjuznijehqv30z3p3,k6ImmmCQ,2020-0188,2020-06-04,09:38:55,10:01:07,NA,incomplete,99,shape,1,1,right,Green_Plus_Chess_3.jpg,Blue_Star_Dots_3.jpg,Purple_Plus_Grid_4.jpg,right,719.9049999471754,true,low,NA,NA,NA,NA,NA,NA,NA,false
k6ImmmCQ,3e9vauv7czrnvucm8noapw1mqoqyaq,3tpzplc3m4pvpfjuznijehqv30z3p3,k6ImmmCQ,2020-0188,2020-06-04,09:38:55,10:01:07,NA,incomplete,100,shape,1,1,left,Green_Circle_Dots_2.jpg,Red_Circle_Chess_1.jpg,Purple_Plus_Stripes_2.jpg,left,966.9849999481812,true,low,NA,NA,NA,NA,NA,NA,NA,false
k6ImmmCQ,3e9vauv7czrnvucm8noapw1mqoqyaq,3tpzplc3m4pvpfjuznijehqv30z3p3,k6ImmmCQ,2020-0188,2020-06-04,09:38:55,10:01:07,NA,incomplete,101,shape,1,1,right,Red_Star_Chess_2.jpg,Blue_Circle_Dots_2.jpg,Purple_Star_Grid_1.jpg,right,834.499999997206,true,low,NA,NA,NA,NA,NA,NA,NA,false
k6ImmmCQ,3e9vauv7czrnvucm8noapw1mqoqyaq,3tpzplc3m4pvpfjuznijehqv30z3p3,k6ImmmCQ,2020-0188,2020-06-04,09:38:55,10:01:07,NA,incomplete,102,shape,1,1,left,Red_Star_Dots_2.jpg,Purple_Star_Stripes_3.jpg,Blue_Triangle_Chess_2.jpg,left,723.7350000068545,true,low,NA,NA,NA,NA,NA,NA,NA,false
k6ImmmCQ,3e9vauv7czrnvucm8noapw1mqoqyaq,3tpzplc3m4pvpfjuznijehqv30z3p3,k6ImmmCQ,2020-0188,2020-06-04,09:38:55,10:01:07,NA,incomplete,103,shape,1,1,left,Purple_Circle_Dots_3.jpg,Blue_Circle_Stripes_1.jpg,Green_Plus_Grid_3.jpg,left,756.8350000074133,true,low,NA,NA,NA,NA,NA,NA,NA,false
k6ImmmCQ,3e9vauv7czrnvucm8noapw1mqoqyaq,3tpzplc3m4pvpfjuznijehqv30z3p3,k6ImmmCQ,2020-0188,2020-06-04,09:38:55,10:01:07,NA,incomplete,104,shape,1,1,right,Red_Triangle_Stripes_3.jpg,Green_Circle_Dots_3.jpg,Blue_Triangle_Grid_4.jpg,right,741.260000038892,true,low,NA,NA,NA,NA,NA,NA,NA,false
k6ImmmCQ,3e9vauv7czrnvucm8noapw1mqoqyaq,3tpzplc3m4pvpfjuznijehqv30z3p3,k6ImmmCQ,2020-0188,2020-06-04,09:38:55,10:01:07,NA,incomplete,105,shape,1,1,right,Blue_Star_Dots_2.jpg,Purple_Triangle_Stripes_2.jpg,Red_Star_Chess_3.jpg,right,677.7299999957904,true,low,NA,NA,NA,NA,NA,NA,NA,false
k6ImmmCQ,3e9vauv7czrnvucm8noapw1mqoqyaq,3tpzplc3m4pvpfjuznijehqv30z3p3,k6ImmmCQ,2020-0188,2020-06-04,09:38:55,10:01:07,NA,incomplete,106,shape,1,1,left,Purple_Plus_Dots_2.jpg,Green_Plus_Grid_4.jpg,Blue_Triangle_Stripes_2.jpg,left,673.2550000306219,true,low,NA,NA,NA,NA,NA,NA,NA,false
k6ImmmCQ,3e9vauv7czrnvucm8noapw1mqoqyaq,3tpzplc3m4pvpfjuznijehqv30z3p3,k6ImmmCQ,2020-0188,2020-06-04,09:38:55,10:01:07,NA,incomplete,107,shape,1,1,right,Green_Plus_Stripes_3.jpg,Purple_Circle_Dots_3.jpg,Blue_Plus_Chess_2.jpg,right,578.7600000621751,true,low,NA,NA,NA,NA,NA,NA,NA,false
k6ImmmCQ,3e9vauv7czrnvucm8noapw1mqoqyaq,3tpzplc3m4pvpfjuznijehqv30z3p3,k6ImmmCQ,2020-0188,2020-06-04,09:38:55,10:01:07,NA,incomplete,108,shape,1,1,right,Red_Circle_Chess_2.jpg,Blue_Triangle_Stripes_2.jpg,Purple_Circle_Grid_4.jpg,right,616.8600000673905,true,low,NA,NA,NA,NA,NA,NA,NA,false
k6ImmmCQ,3e9vauv7czrnvucm8noapw1mqoqyaq,3tpzplc3m4pvpfjuznijehqv30z3p3,k6ImmmCQ,2020-0188,2020-06-04,09:38:55,10:01:07,NA,incomplete,109,shape,1,0,left,Green_Plus_Dots_4.jpg,Red_Plus_Grid_3.jpg,Blue_Triangle_Chess_4.jpg,left,663.5450000176206,true,low,NA,NA,NA,NA,NA,NA,NA,false
k6ImmmCQ,3e9vauv7czrnvucm8noapw1mqoqyaq,3tpzplc3m4pvpfjuznijehqv30z3p3,k6ImmmCQ,2020-0188,2020-06-04,09:38:55,10:01:07,NA,incomplete,110,shape,1,1,left,Red_Star_Stripes_4.jpg,Blue_Star_Dots_2.jpg,Purple_Triangle_Chess_4.jpg,left,722.3600000143051,true,low,NA,NA,NA,NA,NA,NA,NA,false
k6ImmmCQ,3e9vauv7czrnvucm8noapw1mqoqyaq,3tpzplc3m4pvpfjuznijehqv30z3p3,k6ImmmCQ,2020-0188,2020-06-04,09:38:55,10:01:07,NA,incomplete,111,shape,1,1,left,Purple_Triangle_Chess_3.jpg,Blue_Triangle_Dots_2.jpg,Green_Circle_Stripes_3.jpg,left,628.3849999308586,true,low,NA,NA,NA,NA,NA,NA,NA,false
k6ImmmCQ,3e9vauv7czrnvucm8noapw1mqoqyaq,3tpzplc3m4pvpfjuznijehqv30z3p3,k6ImmmCQ,2020-0188,2020-06-04,09:38:55,10:01:07,NA,incomplete,112,shape,1,0,left,Blue_Triangle_Stripes_2.jpg,Green_Triangle_Dots_4.jpg,Purple_Circle_Chess_2.jpg,left,584.5200000330806,true,low,NA,NA,NA,NA,NA,NA,NA,false
k6ImmmCQ,3e9vauv7czrnvucm8noapw1mqoqyaq,3tpzplc3m4pvpfjuznijehqv30z3p3,k6ImmmCQ,2020-0188,2020-06-04,09:38:55,10:01:07,NA,incomplete,113,shape,1,0,right,Blue_Star_Grid_4.jpg,Green_Triangle_Dots_4.jpg,Purple_Star_Chess_2.jpg,left,767.0549999456853,false,low,NA,NA,NA,NA,NA,NA,NA,false
k6ImmmCQ,3e9vauv7czrnvucm8noapw1mqoqyaq,3tpzplc3m4pvpfjuznijehqv30z3p3,k6ImmmCQ,2020-0188,2020-06-04,09:38:55,10:01:07,NA,incomplete,114,shape,1,0,right,Red_Triangle_Chess_4.jpg,Green_Circle_Stripes_4.jpg,Purple_Triangle_Dots_2.jpg,left,870.0599999865517,false,low,NA,NA,NA,NA,NA,NA,NA,false
k6ImmmCQ,3e9vauv7czrnvucm8noapw1mqoqyaq,3tpzplc3m4pvpfjuznijehqv30z3p3,k6ImmmCQ,2020-0188,2020-06-04,09:38:55,10:01:07,NA,incomplete,115,shape,1,0,right,Green_Triangle_Chess_2.jpg,Red_Star_Stripes_2.jpg,Blue_Triangle_Grid_4.jpg,left,961.0950000351295,false,low,NA,NA,NA,NA,NA,NA,NA,false
k6ImmmCQ,3e9vauv7czrnvucm8noapw1mqoqyaq,3tpzplc3m4pvpfjuznijehqv30z3p3,k6ImmmCQ,2020-0188,2020-06-04,09:38:55,10:01:07,NA,incomplete,116,shape,1,1,left,Green_Star_Chess_2.jpg,Blue_Star_Grid_3.jpg,Red_Triangle_Stripes_2.jpg,right,768.0650000693277,false,low,NA,NA,NA,NA,NA,NA,NA,false
k6ImmmCQ,3e9vauv7czrnvucm8noapw1mqoqyaq,3tpzplc3m4pvpfjuznijehqv30z3p3,k6ImmmCQ,2020-0188,2020-06-04,09:38:55,10:01:07,NA,incomplete,117,shape,1,0,right,Green_Triangle_Dots_4.jpg,Blue_Plus_Chess_4.jpg,Purple_Triangle_Grid_3.jpg,left,807.4200000846758,false,low,NA,NA,NA,NA,NA,NA,NA,false
k6ImmmCQ,3e9vauv7czrnvucm8noapw1mqoqyaq,3tpzplc3m4pvpfjuznijehqv30z3p3,k6ImmmCQ,2020-0188,2020-06-04,09:38:55,10:01:07,NA,incomplete,118,shape,1,0,left,Purple_Triangle_Chess_2.jpg,Blue_Triangle_Dots_3.jpg,Red_Circle_Grid_2.jpg,right,717.6949999993667,false,low,NA,NA,NA,NA,NA,NA,NA,false
k6ImmmCQ,3e9vauv7czrnvucm8noapw1mqoqyaq,3tpzplc3m4pvpfjuznijehqv30z3p3,k6ImmmCQ,2020-0188,2020-06-04,09:38:55,10:01:07,NA,incomplete,119,shape,1,1,left,Purple_Triangle_Stripes_1.jpg,Green_Triangle_Dots_2.jpg,Blue_Plus_Chess_1.jpg,right,742.8649999201298,false,low,NA,NA,NA,NA,NA,NA,NA,false
k6ImmmCQ,3e9vauv7czrnvucm8noapw1mqoqyaq,3tpzplc3m4pvpfjuznijehqv30z3p3,k6ImmmCQ,2020-0188,2020-06-04,09:38:55,10:01:07,NA,incomplete,120,race,2,1,left,C_M_16.jpg,C_F_09.jpg,A_M_03.jpg,NA,NA,NA,low,NA,NA,NA,NA,NA,NA,NA,false
k6ImmmCQ,3e9vauv7czrnvucm8noapw1mqoqyaq,3tpzplc3m4pvpfjuznijehqv30z3p3,k6ImmmCQ,2020-0188,2020-06-04,09:38:55,10:01:07,NA,incomplete,121,race,2,0,right,A_M_15.jpg,C_M_01.jpg,A_F_04.jpg,left,894.5950000779703,false,low,NA,NA,NA,NA,NA,NA,NA,false
k6ImmmCQ,3e9vauv7czrnvucm8noapw1mqoqyaq,3tpzplc3m4pvpfjuznijehqv30z3p3,k6ImmmCQ,2020-0188,2020-06-04,09:38:55,10:01:07,NA,incomplete,122,race,2,1,right,A_F_07.jpg,C_F_10.jpg,A_M_01.jpg,left,801.0350000113249,false,low,NA,NA,NA,NA,NA,NA,NA,false
k6ImmmCQ,3e9vauv7czrnvucm8noapw1mqoqyaq,3tpzplc3m4pvpfjuznijehqv30z3p3,k6ImmmCQ,2020-0188,2020-06-04,09:38:55,10:01:07,NA,incomplete,123,race,2,1,right,C_M_10.jpg,A_M_01.jpg,C_F_15.jpg,left,1085.5950000695884,false,low,NA,NA,NA,NA,NA,NA,NA,false
k6ImmmCQ,3e9vauv7czrnvucm8noapw1mqoqyaq,3tpzplc3m4pvpfjuznijehqv30z3p3,k6ImmmCQ,2020-0188,2020-06-04,09:38:55,10:01:07,NA,incomplete,124,race,2,0,left,A_F_04.jpg,A_M_13.jpg,C_F_12.jpg,left,1025.1250000437722,true,low,NA,NA,NA,NA,NA,NA,NA,false
k6ImmmCQ,3e9vauv7czrnvucm8noapw1mqoqyaq,3tpzplc3m4pvpfjuznijehqv30z3p3,k6ImmmCQ,2020-0188,2020-06-04,09:38:55,10:01:07,NA,incomplete,125,race,2,1,left,C_M_09.jpg,C_F_12.jpg,A_M_06.jpg,left,959.9200000520796,true,low,NA,NA,NA,NA,NA,NA,NA,false
k6ImmmCQ,3e9vauv7czrnvucm8noapw1mqoqyaq,3tpzplc3m4pvpfjuznijehqv30z3p3,k6ImmmCQ,2020-0188,2020-06-04,09:38:55,10:01:07,NA,incomplete,126,race,2,1,right,A_M_11.jpg,C_M_08.jpg,A_F_10.jpg,left,1299.805000075139,false,low,NA,NA,NA,NA,NA,NA,NA,false
k6ImmmCQ,3e9vauv7czrnvucm8noapw1mqoqyaq,3tpzplc3m4pvpfjuznijehqv30z3p3,k6ImmmCQ,2020-0188,2020-06-04,09:38:55,10:01:07,NA,incomplete,127,race,2,0,left,A_F_01.jpg,A_M_11.jpg,C_F_16.jpg,right,903.0350000830367,false,low,NA,NA,NA,NA,NA,NA,NA,false
k6ImmmCQ,3e9vauv7czrnvucm8noapw1mqoqyaq,3tpzplc3m4pvpfjuznijehqv30z3p3,k6ImmmCQ,2020-0188,2020-06-04,09:38:55,10:01:07,NA,incomplete,128,race,2,1,right,C_F_02.jpg,A_F_09.jpg,C_M_16.jpg,left,857.46999992989,false,low,NA,NA,NA,NA,NA,NA,NA,false
k6ImmmCQ,3e9vauv7czrnvucm8noapw1mqoqyaq,3tpzplc3m4pvpfjuznijehqv30z3p3,k6ImmmCQ,2020-0188,2020-06-04,09:38:55,10:01:07,NA,incomplete,129,race,2,1,right,C_F_10.jpg,A_F_06.jpg,C_M_15.jpg,right,924.2749999975786,true,low,NA,NA,NA,NA,NA,NA,NA,false
k6ImmmCQ,3e9vauv7czrnvucm8noapw1mqoqyaq,3tpzplc3m4pvpfjuznijehqv30z3p3,k6ImmmCQ,2020-0188,2020-06-04,09:38:55,10:01:07,NA,incomplete,130,race,2,1,left,A_M_09.jpg,A_F_05.jpg,C_M_16.jpg,left,912.5450000865385,true,low,NA,NA,NA,NA,NA,NA,NA,false
k6ImmmCQ,3e9vauv7czrnvucm8noapw1mqoqyaq,3tpzplc3m4pvpfjuznijehqv30z3p3,k6ImmmCQ,2020-0188,2020-06-04,09:38:55,10:01:07,NA,incomplete,131,race,2,1,left,A_M_07.jpg,A_F_14.jpg,C_M_13.jpg,left,911.4199999021366,true,low,NA,NA,NA,NA,NA,NA,NA,false
k6ImmmCQ,3e9vauv7czrnvucm8noapw1mqoqyaq,3tpzplc3m4pvpfjuznijehqv30z3p3,k6ImmmCQ,2020-0188,2020-06-04,09:38:55,10:01:07,NA,incomplete,132,race,2,1,left,C_M_16.jpg,C_F_01.jpg,A_M_15.jpg,left,1393.4900000458583,true,low,NA,NA,NA,NA,NA,NA,NA,false
k6ImmmCQ,3e9vauv7czrnvucm8noapw1mqoqyaq,3tpzplc3m4pvpfjuznijehqv30z3p3,k6ImmmCQ,2020-0188,2020-06-04,09:38:55,10:01:07,NA,incomplete,133,race,2,1,right,C_F_11.jpg,A_F_01.jpg,C_M_07.jpg,right,1175.885000033304,true,low,NA,NA,NA,NA,NA,NA,NA,false
k6ImmmCQ,3e9vauv7czrnvucm8noapw1mqoqyaq,3tpzplc3m4pvpfjuznijehqv30z3p3,k6ImmmCQ,2020-0188,2020-06-04,09:38:55,10:01:07,NA,incomplete,134,race,2,1,right,A_F_07.jpg,C_F_15.jpg,A_M_04.jpg,right,920.795000041835,true,low,NA,NA,NA,NA,NA,NA,NA,false
k6ImmmCQ,3e9vauv7czrnvucm8noapw1mqoqyaq,3tpzplc3m4pvpfjuznijehqv30z3p3,k6ImmmCQ,2020-0188,2020-06-04,09:38:55,10:01:07,NA,incomplete,135,race,2,1,right,A_F_13.jpg,C_F_14.jpg,A_M_04.jpg,right,912.0200000470504,true,low,NA,NA,NA,NA,NA,NA,NA,false
k6ImmmCQ,3e9vauv7czrnvucm8noapw1mqoqyaq,3tpzplc3m4pvpfjuznijehqv30z3p3,k6ImmmCQ,2020-0188,2020-06-04,09:38:55,10:01:07,NA,incomplete,136,race,2,0,right,C_M_03.jpg,A_M_06.jpg,C_F_11.jpg,right,1105.0299999769777,true,low,NA,NA,NA,NA,NA,NA,NA,false
k6ImmmCQ,3e9vauv7czrnvucm8noapw1mqoqyaq,3tpzplc3m4pvpfjuznijehqv30z3p3,k6ImmmCQ,2020-0188,2020-06-04,09:38:55,10:01:07,NA,incomplete,137,race,2,1,left,C_M_08.jpg,C_F_16.jpg,A_M_10.jpg,left,1066.3899999344721,true,low,NA,NA,NA,NA,NA,NA,NA,false
k6ImmmCQ,3e9vauv7czrnvucm8noapw1mqoqyaq,3tpzplc3m4pvpfjuznijehqv30z3p3,k6ImmmCQ,2020-0188,2020-06-04,09:38:55,10:01:07,NA,incomplete,138,race,2,1,right,C_F_13.jpg,A_F_06.jpg,C_M_14.jpg,right,878.7250000750646,true,low,NA,NA,NA,NA,NA,NA,NA,false
k6ImmmCQ,3e9vauv7czrnvucm8noapw1mqoqyaq,3tpzplc3m4pvpfjuznijehqv30z3p3,k6ImmmCQ,2020-0188,2020-06-04,09:38:55,10:01:07,NA,incomplete,139,race,2,1,right,C_F_13.jpg,A_F_03.jpg,C_M_10.jpg,right,785.5549999512732,true,low,NA,NA,NA,NA,NA,NA,NA,false
k6ImmmCQ,3e9vauv7czrnvucm8noapw1mqoqyaq,3tpzplc3m4pvpfjuznijehqv30z3p3,k6ImmmCQ,2020-0188,2020-06-04,09:38:55,10:01:07,NA,incomplete,140,gender,3,1,left,A_M_03.jpg,C_M_12.jpg,A_F_11.jpg,right,966.649999958463,false,low,NA,NA,NA,NA,NA,NA,NA,false
k6ImmmCQ,3e9vauv7czrnvucm8noapw1mqoqyaq,3tpzplc3m4pvpfjuznijehqv30z3p3,k6ImmmCQ,2020-0188,2020-06-04,09:38:55,10:01:07,NA,incomplete,141,gender,3,1,right,A_M_12.jpg,A_F_03.jpg,C_M_05.jpg,left,831.4000000245869,false,low,NA,NA,NA,NA,NA,NA,NA,false
k6ImmmCQ,3e9vauv7czrnvucm8noapw1mqoqyaq,3tpzplc3m4pvpfjuznijehqv30z3p3,k6ImmmCQ,2020-0188,2020-06-04,09:38:55,10:01:07,NA,incomplete,142,gender,3,1,left,A_F_04.jpg,C_F_07.jpg,A_M_06.jpg,right,899.5100000174716,false,low,NA,NA,NA,NA,NA,NA,NA,false
k6ImmmCQ,3e9vauv7czrnvucm8noapw1mqoqyaq,3tpzplc3m4pvpfjuznijehqv30z3p3,k6ImmmCQ,2020-0188,2020-06-04,09:38:55,10:01:07,NA,incomplete,143,gender,3,1,left,C_M_10.jpg,A_M_07.jpg,C_F_03.jpg,left,981.9650000426918,true,low,NA,NA,NA,NA,NA,NA,NA,false
k6ImmmCQ,3e9vauv7czrnvucm8noapw1mqoqyaq,3tpzplc3m4pvpfjuznijehqv30z3p3,k6ImmmCQ,2020-0188,2020-06-04,09:38:55,10:01:07,NA,incomplete,144,gender,3,0,left,C_F_04.jpg,A_F_14.jpg,C_M_03.jpg,left,942.1149999834597,true,low,NA,NA,NA,NA,NA,NA,NA,false
k6ImmmCQ,3e9vauv7czrnvucm8noapw1mqoqyaq,3tpzplc3m4pvpfjuznijehqv30z3p3,k6ImmmCQ,2020-0188,2020-06-04,09:38:55,10:01:07,NA,incomplete,145,gender,3,1,left,A_M_08.jpg,C_M_07.jpg,A_F_16.jpg,right,1164.0650000190362,false,low,NA,NA,NA,NA,NA,NA,NA,false
k6ImmmCQ,3e9vauv7czrnvucm8noapw1mqoqyaq,3tpzplc3m4pvpfjuznijehqv30z3p3,k6ImmmCQ,2020-0188,2020-06-04,09:38:55,10:01:07,NA,incomplete,146,gender,3,1,left,A_F_01.jpg,C_F_15.jpg,A_M_10.jpg,left,924.6950000524521,true,low,NA,NA,NA,NA,NA,NA,NA,false
k6ImmmCQ,3e9vauv7czrnvucm8noapw1mqoqyaq,3tpzplc3m4pvpfjuznijehqv30z3p3,k6ImmmCQ,2020-0188,2020-06-04,09:38:55,10:01:07,NA,incomplete,147,gender,3,1,right,A_F_08.jpg,A_M_10.jpg,C_F_02.jpg,right,1117.699999944307,true,low,NA,NA,NA,NA,NA,NA,NA,false
k6ImmmCQ,3e9vauv7czrnvucm8noapw1mqoqyaq,3tpzplc3m4pvpfjuznijehqv30z3p3,k6ImmmCQ,2020-0188,2020-06-04,09:38:55,10:01:07,NA,incomplete,148,gender,3,0,right,A_M_11.jpg,A_F_04.jpg,C_M_07.jpg,left,1047.8499999735504,false,low,NA,NA,NA,NA,NA,NA,NA,false
k6ImmmCQ,3e9vauv7czrnvucm8noapw1mqoqyaq,3tpzplc3m4pvpfjuznijehqv30z3p3,k6ImmmCQ,2020-0188,2020-06-04,09:38:55,10:01:07,NA,incomplete,149,gender,3,1,right,A_F_05.jpg,A_M_07.jpg,C_F_10.jpg,right,971.3200000114739,true,low,NA,NA,NA,NA,NA,NA,NA,false
k6ImmmCQ,3e9vauv7czrnvucm8noapw1mqoqyaq,3tpzplc3m4pvpfjuznijehqv30z3p3,k6ImmmCQ,2020-0188,2020-06-04,09:38:55,10:01:07,NA,incomplete,150,gender,3,0,left,C_M_05.jpg,A_M_15.jpg,C_F_07.jpg,left,964.3149999901652,true,low,NA,NA,NA,NA,NA,NA,NA,false
k6ImmmCQ,3e9vauv7czrnvucm8noapw1mqoqyaq,3tpzplc3m4pvpfjuznijehqv30z3p3,k6ImmmCQ,2020-0188,2020-06-04,09:38:55,10:01:07,NA,incomplete,151,gender,3,1,left,A_M_01.jpg,C_M_05.jpg,A_F_12.jpg,left,883.0749999033287,true,low,NA,NA,NA,NA,NA,NA,NA,false
k6ImmmCQ,3e9vauv7czrnvucm8noapw1mqoqyaq,3tpzplc3m4pvpfjuznijehqv30z3p3,k6ImmmCQ,2020-0188,2020-06-04,09:38:55,10:01:07,NA,incomplete,152,gender,3,1,right,A_M_08.jpg,A_F_16.jpg,C_M_14.jpg,right,1029.674999997951,true,low,NA,NA,NA,NA,NA,NA,NA,false
k6ImmmCQ,3e9vauv7czrnvucm8noapw1mqoqyaq,3tpzplc3m4pvpfjuznijehqv30z3p3,k6ImmmCQ,2020-0188,2020-06-04,09:38:55,10:01:07,NA,incomplete,153,gender,3,1,right,C_M_04.jpg,C_F_15.jpg,A_M_11.jpg,right,723.0100000742823,true,low,NA,NA,NA,NA,NA,NA,NA,false
k6ImmmCQ,3e9vauv7czrnvucm8noapw1mqoqyaq,3tpzplc3m4pvpfjuznijehqv30z3p3,k6ImmmCQ,2020-0188,2020-06-04,09:38:55,10:01:07,NA,incomplete,154,gender,3,1,right,A_M_03.jpg,A_F_12.jpg,C_M_06.jpg,right,659.2299999902025,true,low,NA,NA,NA,NA,NA,NA,NA,false
k6ImmmCQ,3e9vauv7czrnvucm8noapw1mqoqyaq,3tpzplc3m4pvpfjuznijehqv30z3p3,k6ImmmCQ,2020-0188,2020-06-04,09:38:55,10:01:07,NA,incomplete,155,gender,3,1,left,C_M_03.jpg,A_M_05.jpg,C_F_12.jpg,left,671.6099999612197,true,low,NA,NA,NA,NA,NA,NA,NA,false
k6ImmmCQ,3e9vauv7czrnvucm8noapw1mqoqyaq,3tpzplc3m4pvpfjuznijehqv30z3p3,k6ImmmCQ,2020-0188,2020-06-04,09:38:55,10:01:07,NA,incomplete,156,gender,3,1,left,C_M_06.jpg,A_M_03.jpg,C_F_01.jpg,left,681.0200000181794,true,low,NA,NA,NA,NA,NA,NA,NA,false
k6ImmmCQ,3e9vauv7czrnvucm8noapw1mqoqyaq,3tpzplc3m4pvpfjuznijehqv30z3p3,k6ImmmCQ,2020-0188,2020-06-04,09:38:55,10:01:07,NA,incomplete,157,gender,3,1,left,A_M_02.jpg,C_M_13.jpg,A_F_09.jpg,left,755.0899999914691,true,low,NA,NA,NA,NA,NA,NA,NA,false
k6ImmmCQ,3e9vauv7czrnvucm8noapw1mqoqyaq,3tpzplc3m4pvpfjuznijehqv30z3p3,k6ImmmCQ,2020-0188,2020-06-04,09:38:55,10:01:07,NA,incomplete,158,gender,3,1,right,A_F_03.jpg,A_M_08.jpg,C_F_07.jpg,right,1085.340000106953,true,low,NA,NA,NA,NA,NA,NA,NA,false
k6ImmmCQ,3e9vauv7czrnvucm8noapw1mqoqyaq,3tpzplc3m4pvpfjuznijehqv30z3p3,k6ImmmCQ,2020-0188,2020-06-04,09:38:55,10:01:07,NA,incomplete,159,gender,3,1,right,A_F_09.jpg,A_M_10.jpg,C_F_05.jpg,right,829.4549999991432,true,low,NA,NA,NA,NA,NA,NA,NA,false
k6ImmmCQ,3e9vauv7czrnvucm8noapw1mqoqyaq,3tpzplc3m4pvpfjuznijehqv30z3p3,k6ImmmCQ,2020-0188,2020-06-04,09:38:55,10:01:07,NA,incomplete,160,race,2,1,left,A_F_02.jpg,A_M_09.jpg,C_F_16.jpg,right,787.2399999760091,false,low,NA,NA,NA,NA,NA,NA,NA,false
k6ImmmCQ,3e9vauv7czrnvucm8noapw1mqoqyaq,3tpzplc3m4pvpfjuznijehqv30z3p3,k6ImmmCQ,2020-0188,2020-06-04,09:38:55,10:01:07,NA,incomplete,161,race,2,0,right,C_M_11.jpg,A_M_14.jpg,C_F_02.jpg,left,688.0799999926239,false,low,NA,NA,NA,NA,NA,NA,NA,false
k6ImmmCQ,3e9vauv7czrnvucm8noapw1mqoqyaq,3tpzplc3m4pvpfjuznijehqv30z3p3,k6ImmmCQ,2020-0188,2020-06-04,09:38:55,10:01:07,NA,incomplete,162,race,2,1,left,C_F_02.jpg,C_M_05.jpg,A_F_12.jpg,right,754.4149999739602,false,low,NA,NA,NA,NA,NA,NA,NA,false
k6ImmmCQ,3e9vauv7czrnvucm8noapw1mqoqyaq,3tpzplc3m4pvpfjuznijehqv30z3p3,k6ImmmCQ,2020-0188,2020-06-04,09:38:55,10:01:07,NA,incomplete,163,race,2,1,right,C_F_04.jpg,A_F_01.jpg,C_M_16.jpg,left,826.6099999891594,false,low,NA,NA,NA,NA,NA,NA,NA,false
k6ImmmCQ,3e9vauv7czrnvucm8noapw1mqoqyaq,3tpzplc3m4pvpfjuznijehqv30z3p3,k6ImmmCQ,2020-0188,2020-06-04,09:38:55,10:01:07,NA,incomplete,164,race,2,1,left,A_M_01.jpg,A_F_09.jpg,C_M_12.jpg,left,784.345000050962,true,low,NA,NA,NA,NA,NA,NA,NA,false
k6ImmmCQ,3e9vauv7czrnvucm8noapw1mqoqyaq,3tpzplc3m4pvpfjuznijehqv30z3p3,k6ImmmCQ,2020-0188,2020-06-04,09:38:55,10:01:07,NA,incomplete,165,race,2,0,left,C_F_13.jpg,C_M_04.jpg,A_F_11.jpg,left,983.4099999861792,true,low,NA,NA,NA,NA,NA,NA,NA,false
k6ImmmCQ,3e9vauv7czrnvucm8noapw1mqoqyaq,3tpzplc3m4pvpfjuznijehqv30z3p3,k6ImmmCQ,2020-0188,2020-06-04,09:38:55,10:01:07,NA,incomplete,166,race,2,1,right,A_M_13.jpg,C_M_03.jpg,A_F_16.jpg,right,837.5750000122935,true,low,NA,NA,NA,NA,NA,NA,NA,false
k6ImmmCQ,3e9vauv7czrnvucm8noapw1mqoqyaq,3tpzplc3m4pvpfjuznijehqv30z3p3,k6ImmmCQ,2020-0188,2020-06-04,09:38:55,10:01:07,NA,incomplete,167,race,2,0,right,C_M_04.jpg,A_M_05.jpg,C_F_10.jpg,right,1025.169999920763,true,low,NA,NA,NA,NA,NA,NA,NA,false
k6ImmmCQ,3e9vauv7czrnvucm8noapw1mqoqyaq,3tpzplc3m4pvpfjuznijehqv30z3p3,k6ImmmCQ,2020-0188,2020-06-04,09:38:55,10:01:07,NA,incomplete,168,race,2,1,left,C_F_13.jpg,C_M_02.jpg,A_F_14.jpg,left,920.5550000770018,true,low,NA,NA,NA,NA,NA,NA,NA,false
k6ImmmCQ,3e9vauv7czrnvucm8noapw1mqoqyaq,3tpzplc3m4pvpfjuznijehqv30z3p3,k6ImmmCQ,2020-0188,2020-06-04,09:38:55,10:01:07,NA,incomplete,169,race,2,1,left,C_M_12.jpg,C_F_03.jpg,A_M_13.jpg,left,928.6050000227988,true,low,NA,NA,NA,NA,NA,NA,NA,false
k6ImmmCQ,3e9vauv7czrnvucm8noapw1mqoqyaq,3tpzplc3m4pvpfjuznijehqv30z3p3,k6ImmmCQ,2020-0188,2020-06-04,09:38:55,10:01:07,NA,incomplete,170,race,2,1,right,C_F_09.jpg,A_F_06.jpg,C_M_11.jpg,right,1009.8699999507517,true,low,NA,NA,NA,NA,NA,NA,NA,false
k6ImmmCQ,3e9vauv7czrnvucm8noapw1mqoqyaq,3tpzplc3m4pvpfjuznijehqv30z3p3,k6ImmmCQ,2020-0188,2020-06-04,09:38:55,10:01:07,NA,incomplete,171,race,2,0,right,A_F_02.jpg,C_F_09.jpg,A_M_14.jpg,right,870.0550000648946,true,low,NA,NA,NA,NA,NA,NA,NA,false
k6ImmmCQ,3e9vauv7czrnvucm8noapw1mqoqyaq,3tpzplc3m4pvpfjuznijehqv30z3p3,k6ImmmCQ,2020-0188,2020-06-04,09:38:55,10:01:07,NA,incomplete,172,race,2,1,right,C_F_16.jpg,A_F_12.jpg,C_M_10.jpg,right,826.035000034608,true,low,NA,NA,NA,NA,NA,NA,NA,false
k6ImmmCQ,3e9vauv7czrnvucm8noapw1mqoqyaq,3tpzplc3m4pvpfjuznijehqv30z3p3,k6ImmmCQ,2020-0188,2020-06-04,09:38:55,10:01:07,NA,incomplete,173,race,2,1,right,C_M_05.jpg,A_M_01.jpg,C_F_09.jpg,right,952.6850000256673,true,low,NA,NA,NA,NA,NA,NA,NA,false
k6ImmmCQ,3e9vauv7czrnvucm8noapw1mqoqyaq,3tpzplc3m4pvpfjuznijehqv30z3p3,k6ImmmCQ,2020-0188,2020-06-04,09:38:55,10:01:07,NA,incomplete,174,race,2,1,left,A_M_16.jpg,A_F_02.jpg,C_M_07.jpg,left,685.0600000470877,true,low,NA,NA,NA,NA,NA,NA,NA,false
k6ImmmCQ,3e9vauv7czrnvucm8noapw1mqoqyaq,3tpzplc3m4pvpfjuznijehqv30z3p3,k6ImmmCQ,2020-0188,2020-06-04,09:38:55,10:01:07,NA,incomplete,175,race,2,1,left,A_M_11.jpg,A_F_08.jpg,C_M_07.jpg,left,702.8299999656156,true,low,NA,NA,NA,NA,NA,NA,NA,false
k6ImmmCQ,3e9vauv7czrnvucm8noapw1mqoqyaq,3tpzplc3m4pvpfjuznijehqv30z3p3,k6ImmmCQ,2020-0188,2020-06-04,09:38:55,10:01:07,NA,incomplete,176,race,2,0,left,A_M_08.jpg,A_F_16.jpg,C_M_03.jpg,left,744.5950000546873,true,low,NA,NA,NA,NA,NA,NA,NA,false
k6ImmmCQ,3e9vauv7czrnvucm8noapw1mqoqyaq,3tpzplc3m4pvpfjuznijehqv30z3p3,k6ImmmCQ,2020-0188,2020-06-04,09:38:55,10:01:07,NA,incomplete,177,race,2,1,left,C_F_10.jpg,C_M_01.jpg,A_F_13.jpg,left,977.9499999713153,true,low,NA,NA,NA,NA,NA,NA,NA,false
k6ImmmCQ,3e9vauv7czrnvucm8noapw1mqoqyaq,3tpzplc3m4pvpfjuznijehqv30z3p3,k6ImmmCQ,2020-0188,2020-06-04,09:38:55,10:01:07,NA,incomplete,178,race,2,0,left,A_M_13.jpg,A_F_03.jpg,C_M_12.jpg,left,802.1999999182299,true,low,NA,NA,NA,NA,NA,NA,NA,false
k6ImmmCQ,3e9vauv7czrnvucm8noapw1mqoqyaq,3tpzplc3m4pvpfjuznijehqv30z3p3,k6ImmmCQ,2020-0188,2020-06-04,09:38:55,10:01:07,NA,incomplete,179,race,2,1,right,A_F_04.jpg,C_F_14.jpg,A_M_07.jpg,right,790.0649999501184,true,low,NA,NA,NA,NA,NA,NA,NA,false
k6ImmmCQ,3e9vauv7czrnvucm8noapw1mqoqyaq,3tpzplc3m4pvpfjuznijehqv30z3p3,k6ImmmCQ,2020-0188,2020-06-04,09:38:55,10:01:07,NA,incomplete,180,gender,3,0,right,A_F_01.jpg,A_M_15.jpg,C_F_04.jpg,left,926.4849999453872,false,low,NA,NA,NA,NA,NA,NA,NA,false
k6ImmmCQ,3e9vauv7czrnvucm8noapw1mqoqyaq,3tpzplc3m4pvpfjuznijehqv30z3p3,k6ImmmCQ,2020-0188,2020-06-04,09:38:55,10:01:07,NA,incomplete,181,gender,3,1,right,C_F_08.jpg,C_M_05.jpg,A_F_13.jpg,left,991.1700000520796,false,low,NA,NA,NA,NA,NA,NA,NA,false
k6ImmmCQ,3e9vauv7czrnvucm8noapw1mqoqyaq,3tpzplc3m4pvpfjuznijehqv30z3p3,k6ImmmCQ,2020-0188,2020-06-04,09:38:55,10:01:07,NA,incomplete,182,gender,3,0,right,A_F_10.jpg,A_M_08.jpg,C_F_15.jpg,left,891.5849999757484,false,low,NA,NA,NA,NA,NA,NA,NA,false
k6ImmmCQ,3e9vauv7czrnvucm8noapw1mqoqyaq,3tpzplc3m4pvpfjuznijehqv30z3p3,k6ImmmCQ,2020-0188,2020-06-04,09:38:55,10:01:07,NA,incomplete,183,gender,3,1,left,A_F_15.jpg,C_F_14.jpg,A_M_11.jpg,right,840.0299999630079,false,low,NA,NA,NA,NA,NA,NA,NA,false
k6ImmmCQ,3e9vauv7czrnvucm8noapw1mqoqyaq,3tpzplc3m4pvpfjuznijehqv30z3p3,k6ImmmCQ,2020-0188,2020-06-04,09:38:55,10:01:07,NA,incomplete,184,gender,3,1,right,C_M_02.jpg,C_F_03.jpg,A_M_13.jpg,left,850.7349999854341,false,low,NA,NA,NA,NA,NA,NA,NA,false
k6ImmmCQ,3e9vauv7czrnvucm8noapw1mqoqyaq,3tpzplc3m4pvpfjuznijehqv30z3p3,k6ImmmCQ,2020-0188,2020-06-04,09:38:55,10:01:07,NA,incomplete,185,gender,3,1,right,C_M_01.jpg,C_F_02.jpg,A_M_13.jpg,right,998.7749999854714,true,low,NA,NA,NA,NA,NA,NA,NA,false
k6ImmmCQ,3e9vauv7czrnvucm8noapw1mqoqyaq,3tpzplc3m4pvpfjuznijehqv30z3p3,k6ImmmCQ,2020-0188,2020-06-04,09:38:55,10:01:07,NA,incomplete,186,gender,3,1,left,C_F_10.jpg,A_F_11.jpg,C_M_08.jpg,left,861.0850000986829,true,low,NA,NA,NA,NA,NA,NA,NA,false
k6ImmmCQ,3e9vauv7czrnvucm8noapw1mqoqyaq,3tpzplc3m4pvpfjuznijehqv30z3p3,k6ImmmCQ,2020-0188,2020-06-04,09:38:55,10:01:07,NA,incomplete,187,gender,3,1,right,C_F_11.jpg,C_M_12.jpg,A_F_09.jpg,right,776.4300000853837,true,low,NA,NA,NA,NA,NA,NA,NA,false
k6ImmmCQ,3e9vauv7czrnvucm8noapw1mqoqyaq,3tpzplc3m4pvpfjuznijehqv30z3p3,k6ImmmCQ,2020-0188,2020-06-04,09:38:55,10:01:07,NA,incomplete,188,gender,3,1,left,C_F_04.jpg,A_F_10.jpg,C_M_03.jpg,left,704.2450000299141,true,low,NA,NA,NA,NA,NA,NA,NA,false
k6ImmmCQ,3e9vauv7czrnvucm8noapw1mqoqyaq,3tpzplc3m4pvpfjuznijehqv30z3p3,k6ImmmCQ,2020-0188,2020-06-04,09:38:55,10:01:07,NA,incomplete,189,gender,3,1,left,C_M_01.jpg,A_M_13.jpg,C_F_05.jpg,left,732.1250000968575,true,low,NA,NA,NA,NA,NA,NA,NA,false
k6ImmmCQ,3e9vauv7czrnvucm8noapw1mqoqyaq,3tpzplc3m4pvpfjuznijehqv30z3p3,k6ImmmCQ,2020-0188,2020-06-04,09:38:55,10:01:07,NA,incomplete,190,gender,3,1,left,C_M_16.jpg,A_M_14.jpg,C_F_10.jpg,left,609.375,true,low,NA,NA,NA,NA,NA,NA,NA,false
k6ImmmCQ,3e9vauv7czrnvucm8noapw1mqoqyaq,3tpzplc3m4pvpfjuznijehqv30z3p3,k6ImmmCQ,2020-0188,2020-06-04,09:38:55,10:01:07,NA,incomplete,191,gender,3,0,left,C_F_07.jpg,A_F_11.jpg,C_M_04.jpg,right,758.5149999940768,false,low,NA,NA,NA,NA,NA,NA,NA,false
k6ImmmCQ,3e9vauv7czrnvucm8noapw1mqoqyaq,3tpzplc3m4pvpfjuznijehqv30z3p3,k6ImmmCQ,2020-0188,2020-06-04,09:38:55,10:01:07,NA,incomplete,192,gender,3,1,right,A_F_05.jpg,A_M_13.jpg,C_F_09.jpg,left,925.4900000523776,false,low,NA,NA,NA,NA,NA,NA,NA,false
k6ImmmCQ,3e9vauv7czrnvucm8noapw1mqoqyaq,3tpzplc3m4pvpfjuznijehqv30z3p3,k6ImmmCQ,2020-0188,2020-06-04,09:38:55,10:01:07,NA,incomplete,193,gender,3,1,right,A_M_09.jpg,A_F_14.jpg,C_M_12.jpg,left,1153.260000050068,false,low,NA,NA,NA,NA,NA,NA,NA,false
k6ImmmCQ,3e9vauv7czrnvucm8noapw1mqoqyaq,3tpzplc3m4pvpfjuznijehqv30z3p3,k6ImmmCQ,2020-0188,2020-06-04,09:38:55,10:01:07,NA,incomplete,194,gender,3,1,right,A_F_07.jpg,A_M_15.jpg,C_F_05.jpg,right,991.6850000154227,true,low,NA,NA,NA,NA,NA,NA,NA,false
k6ImmmCQ,3e9vauv7czrnvucm8noapw1mqoqyaq,3tpzplc3m4pvpfjuznijehqv30z3p3,k6ImmmCQ,2020-0188,2020-06-04,09:38:55,10:01:07,NA,incomplete,195,gender,3,1,left,A_M_14.jpg,C_M_13.jpg,A_F_06.jpg,left,956.0650000348687,true,low,NA,NA,NA,NA,NA,NA,NA,false
k6ImmmCQ,3e9vauv7czrnvucm8noapw1mqoqyaq,3tpzplc3m4pvpfjuznijehqv30z3p3,k6ImmmCQ,2020-0188,2020-06-04,09:38:55,10:01:07,NA,incomplete,196,gender,3,1,right,C_M_09.jpg,C_F_04.jpg,A_M_16.jpg,right,781.4250000519678,true,low,NA,NA,NA,NA,NA,NA,NA,false
k6ImmmCQ,3e9vauv7czrnvucm8noapw1mqoqyaq,3tpzplc3m4pvpfjuznijehqv30z3p3,k6ImmmCQ,2020-0188,2020-06-04,09:38:55,10:01:07,NA,incomplete,197,gender,3,1,right,A_F_12.jpg,A_M_05.jpg,C_F_04.jpg,right,850.5400000140071,true,low,NA,NA,NA,NA,NA,NA,NA,false
k6ImmmCQ,3e9vauv7czrnvucm8noapw1mqoqyaq,3tpzplc3m4pvpfjuznijehqv30z3p3,k6ImmmCQ,2020-0188,2020-06-04,09:38:55,10:01:07,NA,incomplete,198,gender,3,0,left,A_F_03.jpg,C_F_07.jpg,A_M_12.jpg,left,928.7849999964237,true,low,NA,NA,NA,NA,NA,NA,NA,false
k6ImmmCQ,3e9vauv7czrnvucm8noapw1mqoqyaq,3tpzplc3m4pvpfjuznijehqv30z3p3,k6ImmmCQ,2020-0188,2020-06-04,09:38:55,10:01:07,NA,incomplete,199,gender,3,1,right,A_F_15.jpg,A_M_06.jpg,C_F_05.jpg,left,1007.7599999494851,false,low,NA,NA,NA,NA,NA,NA,NA,false
k6ImmmCQ,3e9vauv7czrnvucm8noapw1mqoqyaq,3tpzplc3m4pvpfjuznijehqv30z3p3,k6ImmmCQ,2020-0188,2020-06-04,09:38:55,10:01:07,NA,incomplete,200,race,2,1,right,C_F_14.jpg,A_F_12.jpg,C_M_16.jpg,left,933.7349999696016,false,low,NA,NA,NA,NA,NA,NA,NA,false
k6ImmmCQ,3e9vauv7czrnvucm8noapw1mqoqyaq,3tpzplc3m4pvpfjuznijehqv30z3p3,k6ImmmCQ,2020-0188,2020-06-04,09:38:55,10:01:07,NA,incomplete,201,race,2,1,left,C_F_13.jpg,C_M_15.jpg,A_F_04.jpg,left,1367.0949999941513,true,low,NA,NA,NA,NA,NA,NA,NA,false
k6ImmmCQ,3e9vauv7czrnvucm8noapw1mqoqyaq,3tpzplc3m4pvpfjuznijehqv30z3p3,k6ImmmCQ,2020-0188,2020-06-04,09:38:55,10:01:07,NA,incomplete,202,race,2,1,left,A_M_08.jpg,A_F_13.jpg,C_M_11.jpg,left,944.554999936372,true,low,NA,NA,NA,NA,NA,NA,NA,false
k6ImmmCQ,3e9vauv7czrnvucm8noapw1mqoqyaq,3tpzplc3m4pvpfjuznijehqv30z3p3,k6ImmmCQ,2020-0188,2020-06-04,09:38:55,10:01:07,NA,incomplete,203,race,2,1,right,A_M_15.jpg,C_M_09.jpg,A_F_12.jpg,right,916.8800000334159,true,low,NA,NA,NA,NA,NA,NA,NA,false
k6ImmmCQ,3e9vauv7czrnvucm8noapw1mqoqyaq,3tpzplc3m4pvpfjuznijehqv30z3p3,k6ImmmCQ,2020-0188,2020-06-04,09:38:55,10:01:07,NA,incomplete,204,race,2,1,left,A_M_06.jpg,A_F_16.jpg,C_M_14.jpg,left,774.6200000401586,true,low,NA,NA,NA,NA,NA,NA,NA,false
k6ImmmCQ,3e9vauv7czrnvucm8noapw1mqoqyaq,3tpzplc3m4pvpfjuznijehqv30z3p3,k6ImmmCQ,2020-0188,2020-06-04,09:38:55,10:01:07,NA,incomplete,205,race,2,1,left,C_F_03.jpg,C_M_04.jpg,A_F_12.jpg,left,749.2449999554083,true,low,NA,NA,NA,NA,NA,NA,NA,false
k6ImmmCQ,3e9vauv7czrnvucm8noapw1mqoqyaq,3tpzplc3m4pvpfjuznijehqv30z3p3,k6ImmmCQ,2020-0188,2020-06-04,09:38:55,10:01:07,NA,incomplete,206,race,2,1,right,C_M_09.jpg,A_M_15.jpg,C_F_04.jpg,left,764.8200000403449,false,low,NA,NA,NA,NA,NA,NA,NA,false
k6ImmmCQ,3e9vauv7czrnvucm8noapw1mqoqyaq,3tpzplc3m4pvpfjuznijehqv30z3p3,k6ImmmCQ,2020-0188,2020-06-04,09:38:55,10:01:07,NA,incomplete,207,race,2,1,right,C_F_15.jpg,A_F_01.jpg,C_M_03.jpg,right,1190.1350000407547,true,low,NA,NA,NA,NA,NA,NA,NA,false
k6ImmmCQ,3e9vauv7czrnvucm8noapw1mqoqyaq,3tpzplc3m4pvpfjuznijehqv30z3p3,k6ImmmCQ,2020-0188,2020-06-04,09:38:55,10:01:07,NA,incomplete,208,race,2,1,left,C_F_16.jpg,C_M_12.jpg,A_F_09.jpg,left,995.6350000575185,true,low,NA,NA,NA,NA,NA,NA,NA,false
k6ImmmCQ,3e9vauv7czrnvucm8noapw1mqoqyaq,3tpzplc3m4pvpfjuznijehqv30z3p3,k6ImmmCQ,2020-0188,2020-06-04,09:38:55,10:01:07,NA,incomplete,209,race,2,1,left,C_F_04.jpg,C_M_02.jpg,A_F_10.jpg,left,794.3349999841303,true,low,NA,NA,NA,NA,NA,NA,NA,false
k6ImmmCQ,3e9vauv7czrnvucm8noapw1mqoqyaq,3tpzplc3m4pvpfjuznijehqv30z3p3,k6ImmmCQ,2020-0188,2020-06-04,09:38:55,10:01:07,NA,incomplete,210,race,2,1,right,C_M_05.jpg,A_M_08.jpg,C_F_07.jpg,right,935.4449999518692,true,low,NA,NA,NA,NA,NA,NA,NA,false
k6ImmmCQ,3e9vauv7czrnvucm8noapw1mqoqyaq,3tpzplc3m4pvpfjuznijehqv30z3p3,k6ImmmCQ,2020-0188,2020-06-04,09:38:55,10:01:07,NA,incomplete,211,race,2,0,left,C_M_01.jpg,C_F_06.jpg,A_M_12.jpg,left,985.2700000628829,true,low,NA,NA,NA,NA,NA,NA,NA,false
k6ImmmCQ,3e9vauv7czrnvucm8noapw1mqoqyaq,3tpzplc3m4pvpfjuznijehqv30z3p3,k6ImmmCQ,2020-0188,2020-06-04,09:38:55,10:01:07,NA,incomplete,212,race,2,1,right,A_F_09.jpg,C_F_05.jpg,A_M_10.jpg,right,977.3450000211596,true,low,NA,NA,NA,NA,NA,NA,NA,false
k6ImmmCQ,3e9vauv7czrnvucm8noapw1mqoqyaq,3tpzplc3m4pvpfjuznijehqv30z3p3,k6ImmmCQ,2020-0188,2020-06-04,09:38:55,10:01:07,NA,incomplete,213,race,2,0,left,A_F_01.jpg,A_M_12.jpg,C_F_06.jpg,left,790.8399999141693,true,low,NA,NA,NA,NA,NA,NA,NA,false
k6ImmmCQ,3e9vauv7czrnvucm8noapw1mqoqyaq,3tpzplc3m4pvpfjuznijehqv30z3p3,k6ImmmCQ,2020-0188,2020-06-04,09:38:55,10:01:07,NA,incomplete,214,race,2,1,left,A_M_02.jpg,A_F_15.jpg,C_M_05.jpg,left,1067.9200000595301,true,low,NA,NA,NA,NA,NA,NA,NA,false
k6ImmmCQ,3e9vauv7czrnvucm8noapw1mqoqyaq,3tpzplc3m4pvpfjuznijehqv30z3p3,k6ImmmCQ,2020-0188,2020-06-04,09:38:55,10:01:07,NA,incomplete,215,race,2,1,right,A_F_16.jpg,C_F_14.jpg,A_M_08.jpg,right,799.6649999404326,true,low,NA,NA,NA,NA,NA,NA,NA,false
k6ImmmCQ,3e9vauv7czrnvucm8noapw1mqoqyaq,3tpzplc3m4pvpfjuznijehqv30z3p3,k6ImmmCQ,2020-0188,2020-06-04,09:38:55,10:01:07,NA,incomplete,216,race,2,1,right,C_F_11.jpg,A_F_13.jpg,C_M_08.jpg,right,852.8999999398366,true,low,NA,NA,NA,NA,NA,NA,NA,false
k6ImmmCQ,3e9vauv7czrnvucm8noapw1mqoqyaq,3tpzplc3m4pvpfjuznijehqv30z3p3,k6ImmmCQ,2020-0188,2020-06-04,09:38:55,10:01:07,NA,incomplete,217,race,2,1,left,C_M_10.jpg,C_F_07.jpg,A_M_05.jpg,left,994.609999936074,true,low,NA,NA,NA,NA,NA,NA,NA,false
k6ImmmCQ,3e9vauv7czrnvucm8noapw1mqoqyaq,3tpzplc3m4pvpfjuznijehqv30z3p3,k6ImmmCQ,2020-0188,2020-06-04,09:38:55,10:01:07,NA,incomplete,218,race,2,0,right,A_F_02.jpg,C_F_07.jpg,A_M_12.jpg,right,782.8449999215081,true,low,NA,NA,NA,NA,NA,NA,NA,false
k6ImmmCQ,3e9vauv7czrnvucm8noapw1mqoqyaq,3tpzplc3m4pvpfjuznijehqv30z3p3,k6ImmmCQ,2020-0188,2020-06-04,09:38:55,10:01:07,NA,incomplete,219,race,2,1,left,A_M_05.jpg,A_F_15.jpg,C_M_08.jpg,left,685.9699999913573,true,low,NA,NA,NA,NA,NA,NA,NA,false
k6ImmmCQ,3e9vauv7czrnvucm8noapw1mqoqyaq,3tpzplc3m4pvpfjuznijehqv30z3p3,k6ImmmCQ,2020-0188,2020-06-04,09:38:55,10:01:07,NA,incomplete,220,gender,3,1,left,A_F_15.jpg,C_F_10.jpg,A_M_08.jpg,right,839.864999987185,false,low,NA,NA,NA,NA,NA,NA,NA,false
k6ImmmCQ,3e9vauv7czrnvucm8noapw1mqoqyaq,3tpzplc3m4pvpfjuznijehqv30z3p3,k6ImmmCQ,2020-0188,2020-06-04,09:38:55,10:01:07,NA,incomplete,221,gender,3,1,right,C_M_16.jpg,C_F_08.jpg,A_M_06.jpg,left,915.9550000913441,false,low,NA,NA,NA,NA,NA,NA,NA,false
k6ImmmCQ,3e9vauv7czrnvucm8noapw1mqoqyaq,3tpzplc3m4pvpfjuznijehqv30z3p3,k6ImmmCQ,2020-0188,2020-06-04,09:38:55,10:01:07,NA,incomplete,222,gender,3,1,left,A_M_09.jpg,C_M_14.jpg,A_F_11.jpg,left,1039.0950000146404,true,low,NA,NA,NA,NA,NA,NA,NA,false
k6ImmmCQ,3e9vauv7czrnvucm8noapw1mqoqyaq,3tpzplc3m4pvpfjuznijehqv30z3p3,k6ImmmCQ,2020-0188,2020-06-04,09:38:55,10:01:07,NA,incomplete,223,gender,3,0,left,A_M_02.jpg,C_M_09.jpg,A_F_11.jpg,left,843.9950000029057,true,low,NA,NA,NA,NA,NA,NA,NA,false
k6ImmmCQ,3e9vauv7czrnvucm8noapw1mqoqyaq,3tpzplc3m4pvpfjuznijehqv30z3p3,k6ImmmCQ,2020-0188,2020-06-04,09:38:55,10:01:07,NA,incomplete,224,gender,3,1,right,A_F_05.jpg,A_M_08.jpg,C_F_07.jpg,right,798.6200000159442,true,low,NA,NA,NA,NA,NA,NA,NA,false
k6ImmmCQ,3e9vauv7czrnvucm8noapw1mqoqyaq,3tpzplc3m4pvpfjuznijehqv30z3p3,k6ImmmCQ,2020-0188,2020-06-04,09:38:55,10:01:07,NA,incomplete,225,gender,3,1,left,C_F_15.jpg,A_F_10.jpg,C_M_02.jpg,left,790.2300000423566,true,low,NA,NA,NA,NA,NA,NA,NA,false
k6ImmmCQ,3e9vauv7czrnvucm8noapw1mqoqyaq,3tpzplc3m4pvpfjuznijehqv30z3p3,k6ImmmCQ,2020-0188,2020-06-04,09:38:55,10:01:07,NA,incomplete,226,gender,3,1,right,C_M_11.jpg,C_F_08.jpg,A_M_02.jpg,right,747.8549999650568,true,low,NA,NA,NA,NA,NA,NA,NA,false
k6ImmmCQ,3e9vauv7czrnvucm8noapw1mqoqyaq,3tpzplc3m4pvpfjuznijehqv30z3p3,k6ImmmCQ,2020-0188,2020-06-04,09:38:55,10:01:07,NA,incomplete,227,gender,3,1,right,C_M_12.jpg,C_F_06.jpg,A_M_09.jpg,right,676.5199999790639,true,low,NA,NA,NA,NA,NA,NA,NA,false
k6ImmmCQ,3e9vauv7czrnvucm8noapw1mqoqyaq,3tpzplc3m4pvpfjuznijehqv30z3p3,k6ImmmCQ,2020-0188,2020-06-04,09:38:55,10:01:07,NA,incomplete,228,gender,3,0,left,C_M_01.jpg,A_M_13.jpg,C_F_15.jpg,left,710.5699999956414,true,low,NA,NA,NA,NA,NA,NA,NA,false
k6ImmmCQ,3e9vauv7czrnvucm8noapw1mqoqyaq,3tpzplc3m4pvpfjuznijehqv30z3p3,k6ImmmCQ,2020-0188,2020-06-04,09:38:55,10:01:07,NA,incomplete,229,gender,3,1,left,A_F_10.jpg,C_F_02.jpg,A_M_14.jpg,left,752.9449999565259,true,low,NA,NA,NA,NA,NA,NA,NA,false
k6ImmmCQ,3e9vauv7czrnvucm8noapw1mqoqyaq,3tpzplc3m4pvpfjuznijehqv30z3p3,k6ImmmCQ,2020-0188,2020-06-04,09:38:55,10:01:07,NA,incomplete,230,gender,3,0,left,A_M_13.jpg,C_M_01.jpg,A_F_07.jpg,right,832.6299999607727,false,low,NA,NA,NA,NA,NA,NA,NA,false
k6ImmmCQ,3e9vauv7czrnvucm8noapw1mqoqyaq,3tpzplc3m4pvpfjuznijehqv30z3p3,k6ImmmCQ,2020-0188,2020-06-04,09:38:55,10:01:07,NA,incomplete,231,gender,3,1,left,C_F_14.jpg,A_F_15.jpg,C_M_16.jpg,left,1061.0299999825656,true,low,NA,NA,NA,NA,NA,NA,NA,false
k6ImmmCQ,3e9vauv7czrnvucm8noapw1mqoqyaq,3tpzplc3m4pvpfjuznijehqv30z3p3,k6ImmmCQ,2020-0188,2020-06-04,09:38:55,10:01:07,NA,incomplete,232,gender,3,1,left,C_M_12.jpg,A_M_09.jpg,C_F_10.jpg,left,963.2099999580532,true,low,NA,NA,NA,NA,NA,NA,NA,false
k6ImmmCQ,3e9vauv7czrnvucm8noapw1mqoqyaq,3tpzplc3m4pvpfjuznijehqv30z3p3,k6ImmmCQ,2020-0188,2020-06-04,09:38:55,10:01:07,NA,incomplete,233,gender,3,1,right,C_M_01.jpg,C_F_13.jpg,A_M_16.jpg,left,1128.0450000194833,false,low,NA,NA,NA,NA,NA,NA,NA,false
k6ImmmCQ,3e9vauv7czrnvucm8noapw1mqoqyaq,3tpzplc3m4pvpfjuznijehqv30z3p3,k6ImmmCQ,2020-0188,2020-06-04,09:38:55,10:01:07,NA,incomplete,234,gender,3,1,right,C_M_03.jpg,C_F_08.jpg,A_M_13.jpg,right,762.9400000441819,true,low,NA,NA,NA,NA,NA,NA,NA,false
k6ImmmCQ,3e9vauv7czrnvucm8noapw1mqoqyaq,3tpzplc3m4pvpfjuznijehqv30z3p3,k6ImmmCQ,2020-0188,2020-06-04,09:38:55,10:01:07,NA,incomplete,235,gender,3,1,left,A_M_05.jpg,C_M_14.jpg,A_F_07.jpg,left,801.7400000244379,true,low,NA,NA,NA,NA,NA,NA,NA,false
k6ImmmCQ,3e9vauv7czrnvucm8noapw1mqoqyaq,3tpzplc3m4pvpfjuznijehqv30z3p3,k6ImmmCQ,2020-0188,2020-06-04,09:38:55,10:01:07,NA,incomplete,236,gender,3,1,right,C_F_12.jpg,C_M_15.jpg,A_F_03.jpg,right,1215.8249999629334,true,low,NA,NA,NA,NA,NA,NA,NA,false
k6ImmmCQ,3e9vauv7czrnvucm8noapw1mqoqyaq,3tpzplc3m4pvpfjuznijehqv30z3p3,k6ImmmCQ,2020-0188,2020-06-04,09:38:55,10:01:07,NA,incomplete,237,gender,3,1,left,A_M_01.jpg,C_M_15.jpg,A_F_14.jpg,left,806.7499999888241,true,low,NA,NA,NA,NA,NA,NA,NA,false
k6ImmmCQ,3e9vauv7czrnvucm8noapw1mqoqyaq,3tpzplc3m4pvpfjuznijehqv30z3p3,k6ImmmCQ,2020-0188,2020-06-04,09:38:55,10:01:07,NA,incomplete,238,gender,3,0,right,C_M_12.jpg,C_F_01.jpg,A_M_09.jpg,right,705.904999980703,true,low,NA,NA,NA,NA,NA,NA,NA,false
k6ImmmCQ,3e9vauv7czrnvucm8noapw1mqoqyaq,3tpzplc3m4pvpfjuznijehqv30z3p3,k6ImmmCQ,2020-0188,2020-06-04,09:38:55,10:01:07,NA,incomplete,239,gender,3,1,left,A_M_10.jpg,C_M_16.jpg,A_F_15.jpg,left,827.8799999970943,true,low,NA,NA,NA,NA,NA,NA,NA,false
k6ImmmCQ,3e9vauv7czrnvucm8noapw1mqoqyaq,3tpzplc3m4pvpfjuznijehqv30z3p3,k6ImmmCQ,2020-0188,2020-06-04,09:38:55,10:01:07,NA,NA,instruction example,number,NA,NA,NA,Red_Circle_Dots_1.jpg,Green_Triangle_Stripes_1.jpg,Blue_Circle_Chess_2.jpg,NA,NA,NA,NA,NA,NA,NA,NA,NA,NA,NA,undefined
k6ImmmCQ,3e9vauv7czrnvucm8noapw1mqoqyaq,3tpzplc3m4pvpfjuznijehqv30z3p3,k6ImmmCQ,2020-0188,2020-06-04,09:38:55,10:01:07,NA,NA,instruction example,number,NA,NA,NA,Green_Triangle_Chess_2.jpg,Blue_Triangle_Stripes_3.jpg,Red_Circle_Dots_2.jpg,NA,NA,NA,NA,NA,NA,NA,NA,NA,NA,NA,undefined
k6ImmmCQ,3e9vauv7czrnvucm8noapw1mqoqyaq,3tpzplc3m4pvpfjuznijehqv30z3p3,k6ImmmCQ,2020-0188,2020-06-04,09:38:55,10:01:07,NA,NA,instruction example,number,NA,NA,NA,C_F_10.jpg,C_M_14.jpg,A_F_03.jpg,NA,NA,NA,NA,NA,NA,NA,NA,NA,NA,NA,undefined
k6ImmmCQ,3e9vauv7czrnvucm8noapw1mqoqyaq,3tpzplc3m4pvpfjuznijehqv30z3p3,k6ImmmCQ,2020-0188,2020-06-04,09:38:55,10:01:07,NA,NA,instruction example,number,NA,NA,NA,C_F_10.jpg,A_F_01.jpg,C_M_13.jpg,NA,NA,NA,NA,NA,NA,NA,NA,NA,NA,NA,undefined
k6ImmmCQ,3e9vauv7czrnvucm8noapw1mqoqyaq,3tpzplc3m4pvpfjuznijehqv30z3p3,k6ImmmCQ,2020-0188,2020-06-04,09:38:55,10:01:07,1270609.1300001135,1333618.7350000255,NA,NA,NA,NA,NA,NA,NA,NA,NA,NA,NA,NA,52,White/Caucasian,Female,Caucasian,no,yes,no,undefined
